Condition,Low fixed image (Door1),Low risky image (Door2),High fixed image (Door3),High risky image (Door4),NonExtreme Wild Card 1,NonExtreme Wild Card 2,,date,expName,psychopyVersion,OS,frameRate,PROLIFIC_PID,STUDY_ID,SESSION_ID,mouse_2.x,mouse_2.y,mouse_2.leftButton,mouse_2.midButton,mouse_2.rightButton,mouse_2.clicked_name,Trial Type,Left Option Image,Right Option Image,Chosen Door,mouse.x,mouse.y,mouse.leftButton,mouse.midButton,mouse.rightButton,mouse.time,mouse.clicked_name,Feedback,Cumulative Reward,Block,trial.thisRepN,trial.thisTrialN,trial.thisN,trial.thisIndex,trial.ran,blocks.thisRepN,blocks.thisTrialN,blocks.thisN,blocks.thisIndex,blocks.ran,Money conversion,First Outcome Reported,Shown Door (First Outcome),Displayed Image (First Outcome),outcomes.thisRepN,outcomes.thisTrialN,outcomes.thisN,outcomes.thisIndex,outcomes.ran,judgments.thisRepN,judgments.thisTrialN,judgments.thisN,judgments.thisIndex,judgments.ran,freqMouse.x,freqMouse.y,freqMouse.leftButton,freqMouse.midButton,freqMouse.rightButton,freqMouse.clicked_name,FQJ for first outcome,FQJ for second outcome,Shown Door,Displayed Image,trials.thisRepN,trials.thisTrialN,trials.thisN,trials.thisIndex,trials.ran,judgBlock.thisRepN,judgBlock.thisTrialN,judgBlock.thisN,judgBlock.thisIndex,judgBlock.ran
2,resources/DP.BMP,resources/DBN.BMP,resources/DR.BMP,resources/DG.BMP,resources/DY.BMP,resources/DB.BMP,,2023-08-16_08h48.11.460,HF_wild_card,2022.2.4,Win32,60.34638827,634688048500211f4412cff2,64d2fd46c836a06233681665,64dc7f120dfc8a90638a3d50,,,,,,,,,,,,,,,,,,,,,,,,,,,,,,,,,,,,,,,,,,,,,,,,,,,,,,,,,,,,,,,,
,,,,,,,,2023-08-16_08h48.11.460,HF_wild_card,2022.2.4,Win32,60.34638827,634688048500211f4412cff2,64d2fd46c836a06233681665,64dc7f120dfc8a90638a3d50,0.012037037,-0.422222222,1,0,0,agree,,,,,,,,,,,,,,,,,,,,,,,,,,,,,,,,,,,,,,,,,,,,,,,,,,,,,,,,,,
,,,,,,,,2023-08-16_08h48.11.460,HF_wild_card,2022.2.4,Win32,60.34638827,634688048500211f4412cff2,64d2fd46c836a06233681665,64dc7f120dfc8a90638a3d50,,,,,,,,,,,,,,,,,,,,,,,,,,,,,,,,,,,,,,,,,,,,,,,,,,,,,,,,,,,,,,,,
,,,,,,,,2023-08-16_08h48.11.460,HF_wild_card,2022.2.4,Win32,60.34638827,634688048500211f4412cff2,64d2fd46c836a06233681665,64dc7f120dfc8a90638a3d50,,,,,,,sngl,resources/Empty.png,resources/DG.BMP,Door4,0.066666667,-0.292592593,1,0,0,1.3565,optionRight,60,60,1,0,0,0,0,1,,,,,,,,,,,,,,,,,,,,,,,,,,,,,,,,,,,,,,,
,,,,,,,,2023-08-16_08h48.11.460,HF_wild_card,2022.2.4,Win32,60.34638827,634688048500211f4412cff2,64d2fd46c836a06233681665,64dc7f120dfc8a90638a3d50,,,,,,,ctch,resources/DG.BMP,resources/DP.BMP,Door1,0.059076262,0.014500537,1,0,0,15.4948,optionRight,30,90,1,1,0,1,0,1,,,,,,,,,,,,,,,,,,,,,,,,,,,,,,,,,,,,,,,
,,,,,,,,2023-08-16_08h48.11.460,HF_wild_card,2022.2.4,Win32,60.34638827,634688048500211f4412cff2,64d2fd46c836a06233681665,64dc7f120dfc8a90638a3d50,,,,,,,sngl,resources/Empty.png,resources/DR.BMP,Door3,0.316863588,-0.017722879,1,0,0,1.8031,optionRight,70,160,1,2,0,2,0,1,,,,,,,,,,,,,,,,,,,,,,,,,,,,,,,,,,,,,,,
,,,,,,,,2023-08-16_08h48.11.460,HF_wild_card,2022.2.4,Win32,60.34638827,634688048500211f4412cff2,64d2fd46c836a06233681665,64dc7f120dfc8a90638a3d50,,,,,,,decisionTrl,resources/DR.BMP,resources/DG.BMP,Door3,-0.323308271,0.035982814,1,0,0,2.3847,optionLeft,70,230,1,3,0,3,0,1,,,,,,,,,,,,,,,,,,,,,,,,,,,,,,,,,,,,,,,
,,,,,,,,2023-08-16_08h48.11.460,HF_wild_card,2022.2.4,Win32,60.34638827,634688048500211f4412cff2,64d2fd46c836a06233681665,64dc7f120dfc8a90638a3d50,,,,,,,ctch,resources/DP.BMP,resources/DG.BMP,Door4,0.298603652,-0.002685285,1,0,0,1.2815,optionRight,80,310,1,4,0,4,0,1,,,,,,,,,,,,,,,,,,,,,,,,,,,,,,,,,,,,,,,
,,,,,,,,2023-08-16_08h48.11.460,HF_wild_card,2022.2.4,Win32,60.34638827,634688048500211f4412cff2,64d2fd46c836a06233681665,64dc7f120dfc8a90638a3d50,,,,,,,sngl,resources/DP.BMP,resources/Empty.png,Door1,-0.204081633,0.027389903,1,0,0,1.3063,optionLeft,30,340,1,5,0,5,0,1,,,,,,,,,,,,,,,,,,,,,,,,,,,,,,,,,,,,,,,
,,,,,,,,2023-08-16_08h48.11.460,HF_wild_card,2022.2.4,Win32,60.34638827,634688048500211f4412cff2,64d2fd46c836a06233681665,64dc7f120dfc8a90638a3d50,,,,,,,decisionTrl,resources/DR.BMP,resources/DG.BMP,Door4,0.290010741,0.014500537,1,0,0,1.0008,optionRight,80,420,1,6,0,6,0,1,,,,,,,,,,,,,,,,,,,,,,,,,,,,,,,,,,,,,,,
,,,,,,,,2023-08-16_08h48.11.460,HF_wild_card,2022.2.4,Win32,60.34638827,634688048500211f4412cff2,64d2fd46c836a06233681665,64dc7f120dfc8a90638a3d50,,,,,,,ctch,resources/DR.BMP,resources/DBN.BMP,Door2,0.334049409,-0.004833512,1,0,0,1.3347,optionRight,40,460,1,7,0,7,0,1,,,,,,,,,,,,,,,,,,,,,,,,,,,,,,,,,,,,,,,
,,,,,,,,2023-08-16_08h48.11.460,HF_wild_card,2022.2.4,Win32,60.34638827,634688048500211f4412cff2,64d2fd46c836a06233681665,64dc7f120dfc8a90638a3d50,,,,,,,sngl,resources/Empty.png,resources/DB.BMP,WildCard_NonEx,0.236305048,0.008055854,1,0,0,0.9794,optionRight,55,515,1,8,0,8,0,1,,,,,,,,,,,,,,,,,,,,,,,,,,,,,,,,,,,,,,,
,,,,,,,,2023-08-16_08h48.11.460,HF_wild_card,2022.2.4,Win32,60.34638827,634688048500211f4412cff2,64d2fd46c836a06233681665,64dc7f120dfc8a90638a3d50,,,,,,,sngl,resources/DG.BMP,resources/Empty.png,Door4,-0.234156821,0.027389903,1,0,0,1.204,optionLeft,80,595,1,9,0,9,0,1,,,,,,,,,,,,,,,,,,,,,,,,,,,,,,,,,,,,,,,
,,,,,,,,2023-08-16_08h48.11.460,HF_wild_card,2022.2.4,Win32,60.34638827,634688048500211f4412cff2,64d2fd46c836a06233681665,64dc7f120dfc8a90638a3d50,,,,,,,ctch,resources/DR.BMP,resources/DBN.BMP,Door3,-0.256713212,-0.001611171,1,0,0,1.2152,optionLeft,70,665,1,10,0,10,0,1,,,,,,,,,,,,,,,,,,,,,,,,,,,,,,,,,,,,,,,
,,,,,,,,2023-08-16_08h48.11.460,HF_wild_card,2022.2.4,Win32,60.34638827,634688048500211f4412cff2,64d2fd46c836a06233681665,64dc7f120dfc8a90638a3d50,,,,,,,decisionTrl,resources/DG.BMP,resources/DR.BMP,Door4,-0.238453276,0.005907626,1,0,0,1.2488,optionLeft,80,745,1,11,0,11,0,1,,,,,,,,,,,,,,,,,,,,,,,,,,,,,,,,,,,,,,,
,,,,,,,,2023-08-16_08h48.11.460,HF_wild_card,2022.2.4,Win32,60.34638827,634688048500211f4412cff2,64d2fd46c836a06233681665,64dc7f120dfc8a90638a3d50,,,,,,,decisionTrl,resources/DP.BMP,resources/DBN.BMP,Door1,-0.230934479,-0.000537057,1,0,0,0.9509,optionLeft,30,775,1,12,0,12,0,1,,,,,,,,,,,,,,,,,,,,,,,,,,,,,,,,,,,,,,,
,,,,,,,,2023-08-16_08h48.11.460,HF_wild_card,2022.2.4,Win32,60.34638827,634688048500211f4412cff2,64d2fd46c836a06233681665,64dc7f120dfc8a90638a3d50,,,,,,,sngl,resources/DB.BMP,resources/Empty.png,WildCard_NonEx,-0.364124597,0.037056928,1,0,0,0.7149,optionLeft,45,820,1,13,0,13,0,1,,,,,,,,,,,,,,,,,,,,,,,,,,,,,,,,,,,,,,,
,,,,,,,,2023-08-16_08h48.11.460,HF_wild_card,2022.2.4,Win32,60.34638827,634688048500211f4412cff2,64d2fd46c836a06233681665,64dc7f120dfc8a90638a3d50,,,,,,,decisionTrl,resources/DR.BMP,resources/DG.BMP,Door3,-0.256713212,0.024167562,1,0,0,2.8862,optionLeft,70,890,1,14,0,14,0,1,,,,,,,,,,,,,,,,,,,,,,,,,,,,,,,,,,,,,,,
,,,,,,,,2023-08-16_08h48.11.460,HF_wild_card,2022.2.4,Win32,60.34638827,634688048500211f4412cff2,64d2fd46c836a06233681665,64dc7f120dfc8a90638a3d50,,,,,,,decisionTrl,resources/DP.BMP,resources/DBN.BMP,Door1,-0.287862513,0.016648765,1,0,0,1.2366,optionLeft,30,920,1,15,0,15,0,1,,,,,,,,,,,,,,,,,,,,,,,,,,,,,,,,,,,,,,,
,,,,,,,,2023-08-16_08h48.11.460,HF_wild_card,2022.2.4,Win32,60.34638827,634688048500211f4412cff2,64d2fd46c836a06233681665,64dc7f120dfc8a90638a3d50,,,,,,,decisionTrl,resources/DB.BMP,resources/DP.BMP,WildCard_NonEx,-0.247046187,-0.005907626,1,0,0,0.8855,optionLeft,45,965,1,16,0,16,0,1,,,,,,,,,,,,,,,,,,,,,,,,,,,,,,,,,,,,,,,
,,,,,,,,2023-08-16_08h48.11.460,HF_wild_card,2022.2.4,Win32,60.34638827,634688048500211f4412cff2,64d2fd46c836a06233681665,64dc7f120dfc8a90638a3d50,,,,,,,ctch,resources/DP.BMP,resources/DG.BMP,Door4,0.212674544,0.001611171,1,0,0,1.2877,optionRight,80,1045,1,17,0,17,0,1,,,,,,,,,,,,,,,,,,,,,,,,,,,,,,,,,,,,,,,
,,,,,,,,2023-08-16_08h48.11.460,HF_wild_card,2022.2.4,Win32,60.34638827,634688048500211f4412cff2,64d2fd46c836a06233681665,64dc7f120dfc8a90638a3d50,,,,,,,ctch,resources/DBN.BMP,resources/DR.BMP,Door3,0.346938776,-0.003759398,1,0,0,1.7525,optionRight,70,1115,1,18,0,18,0,1,,,,,,,,,,,,,,,,,,,,,,,,,,,,,,,,,,,,,,,
,,,,,,,,2023-08-16_08h48.11.460,HF_wild_card,2022.2.4,Win32,60.34638827,634688048500211f4412cff2,64d2fd46c836a06233681665,64dc7f120dfc8a90638a3d50,,,,,,,decisionTrl,resources/DB.BMP,resources/DR.BMP,Door3,0.386680988,-0.003759398,1,0,0,1.0671,optionRight,70,1185,1,19,0,19,0,1,,,,,,,,,,,,,,,,,,,,,,,,,,,,,,,,,,,,,,,
,,,,,,,,2023-08-16_08h48.11.460,HF_wild_card,2022.2.4,Win32,60.34638827,634688048500211f4412cff2,64d2fd46c836a06233681665,64dc7f120dfc8a90638a3d50,,,,,,,decisionTrl,resources/DBN.BMP,resources/DP.BMP,Door1,0.315789474,0.045649839,1,0,0,1.4885,optionRight,30,1215,1,20,0,20,0,1,,,,,,,,,,,,,,,,,,,,,,,,,,,,,,,,,,,,,,,
,,,,,,,,2023-08-16_08h48.11.460,HF_wild_card,2022.2.4,Win32,60.34638827,634688048500211f4412cff2,64d2fd46c836a06233681665,64dc7f120dfc8a90638a3d50,,,,,,,sngl,resources/Empty.png,resources/DB.BMP,WildCard_NonEx,0.272824919,-0.000537057,1,0,0,0.7879,optionRight,45,1260,1,21,0,21,0,1,,,,,,,,,,,,,,,,,,,,,,,,,,,,,,,,,,,,,,,
,,,,,,,,2023-08-16_08h48.11.460,HF_wild_card,2022.2.4,Win32,60.34638827,634688048500211f4412cff2,64d2fd46c836a06233681665,64dc7f120dfc8a90638a3d50,,,,,,,sngl,resources/Empty.png,resources/DP.BMP,Door1,0.340494092,-0.014500537,1,0,0,0.7967,optionRight,30,1290,1,22,0,22,0,1,,,,,,,,,,,,,,,,,,,,,,,,,,,,,,,,,,,,,,,
,,,,,,,,2023-08-16_08h48.11.460,HF_wild_card,2022.2.4,Win32,60.34638827,634688048500211f4412cff2,64d2fd46c836a06233681665,64dc7f120dfc8a90638a3d50,,,,,,,decisionTrl,resources/DG.BMP,resources/DR.BMP,Door4,-0.366272825,-0.015574651,1,0,0,1.3008,optionLeft,60,1350,1,23,0,23,0,1,,,,,,,,,,,,,,,,,,,,,,,,,,,,,,,,,,,,,,,
,,,,,,,,2023-08-16_08h48.11.460,HF_wild_card,2022.2.4,Win32,60.34638827,634688048500211f4412cff2,64d2fd46c836a06233681665,64dc7f120dfc8a90638a3d50,,,,,,,decisionTrl,resources/DBN.BMP,resources/DB.BMP,Door2,-0.21160043,0.014500537,1,0,0,1.8396,optionLeft,20,1370,1,24,0,24,0,1,,,,,,,,,,,,,,,,,,,,,,,,,,,,,,,,,,,,,,,
,,,,,,,,2023-08-16_08h48.11.460,HF_wild_card,2022.2.4,Win32,60.34638827,634688048500211f4412cff2,64d2fd46c836a06233681665,64dc7f120dfc8a90638a3d50,,,,,,,decisionTrl,resources/DP.BMP,resources/DBN.BMP,Door1,-0.258861439,0.022019334,1,0,0,3.4732,optionLeft,30,1400,1,25,0,25,0,1,,,,,,,,,,,,,,,,,,,,,,,,,,,,,,,,,,,,,,,
,,,,,,,,2023-08-16_08h48.11.460,HF_wild_card,2022.2.4,Win32,60.34638827,634688048500211f4412cff2,64d2fd46c836a06233681665,64dc7f120dfc8a90638a3d50,,,,,,,sngl,resources/DBN.BMP,resources/Empty.png,Door2,-0.324382385,0.014500537,1,0,0,0.5498,optionLeft,40,1440,1,26,0,26,0,1,,,,,,,,,,,,,,,,,,,,,,,,,,,,,,,,,,,,,,,
,,,,,,,,2023-08-16_08h48.11.460,HF_wild_card,2022.2.4,Win32,60.34638827,634688048500211f4412cff2,64d2fd46c836a06233681665,64dc7f120dfc8a90638a3d50,,,,,,,decisionTrl,resources/DG.BMP,resources/DR.BMP,Door4,-0.198711063,-0.010204082,1,0,0,1.467,optionLeft,60,1500,1,27,0,27,0,1,,,,,,,,,,,,,,,,,,,,,,,,,,,,,,,,,,,,,,,
,,,,,,,,2023-08-16_08h48.11.460,HF_wild_card,2022.2.4,Win32,60.34638827,634688048500211f4412cff2,64d2fd46c836a06233681665,64dc7f120dfc8a90638a3d50,,,,,,,decisionTrl,resources/DG.BMP,resources/DR.BMP,Door4,-0.296455424,0.004833512,1,0,0,1.3168,optionLeft,80,1580,1,28,0,28,0,1,,,,,,,,,,,,,,,,,,,,,,,,,,,,,,,,,,,,,,,
,,,,,,,,2023-08-16_08h48.11.460,HF_wild_card,2022.2.4,Win32,60.34638827,634688048500211f4412cff2,64d2fd46c836a06233681665,64dc7f120dfc8a90638a3d50,,,,,,,sngl,resources/DR.BMP,resources/Empty.png,Door3,-0.270676692,0.033834586,1,0,0,1.8452,optionLeft,70,1650,1,29,0,29,0,1,,,,,,,,,,,,,,,,,,,,,,,,,,,,,,,,,,,,,,,
,,,,,,,,2023-08-16_08h48.11.460,HF_wild_card,2022.2.4,Win32,60.34638827,634688048500211f4412cff2,64d2fd46c836a06233681665,64dc7f120dfc8a90638a3d50,,,,,,,decisionTrl,resources/DB.BMP,resources/DG.BMP,Door4,0.243823845,0.001611171,1,0,0,1.0311,optionRight,60,1710,1,30,0,30,0,1,,,,,,,,,,,,,,,,,,,,,,,,,,,,,,,,,,,,,,,
,,,,,,,,2023-08-16_08h48.11.460,HF_wild_card,2022.2.4,Win32,60.34638827,634688048500211f4412cff2,64d2fd46c836a06233681665,64dc7f120dfc8a90638a3d50,,,,,,,sngl,resources/Empty.png,resources/DBN.BMP,Door2,0.236305048,-0.003759398,1,0,0,0.9838,optionRight,20,1730,1,31,0,31,0,1,,,,,,,,,,,,,,,,,,,,,,,,,,,,,,,,,,,,,,,
,,,,,,,,2023-08-16_08h48.11.460,HF_wild_card,2022.2.4,Win32,60.34638827,634688048500211f4412cff2,64d2fd46c836a06233681665,64dc7f120dfc8a90638a3d50,,,,,,,ctch,resources/DG.BMP,resources/DP.BMP,Door4,-0.453276047,0.011278195,1,0,0,1.3178,optionLeft,60,1790,1,32,0,32,0,1,,,,,,,,,,,,,,,,,,,,,,,,,,,,,,,,,,,,,,,
,,,,,,,,2023-08-16_08h48.11.460,HF_wild_card,2022.2.4,Win32,60.34638827,634688048500211f4412cff2,64d2fd46c836a06233681665,64dc7f120dfc8a90638a3d50,,,,,,,decisionTrl,resources/DB.BMP,resources/DBN.BMP,WildCard_NonEx,-0.277121375,0.008055854,1,0,0,1.7014,optionLeft,45,1835,1,33,0,33,0,1,,,,,,,,,,,,,,,,,,,,,,,,,,,,,,,,,,,,,,,
,,,,,,,,2023-08-16_08h48.11.460,HF_wild_card,2022.2.4,Win32,60.34638827,634688048500211f4412cff2,64d2fd46c836a06233681665,64dc7f120dfc8a90638a3d50,,,,,,,decisionTrl,resources/DBN.BMP,resources/DP.BMP,Door2,-0.293233083,0.031686359,1,0,0,3.1708,optionLeft,20,1855,1,34,0,34,0,1,,,,,,,,,,,,,,,,,,,,,,,,,,,,,,,,,,,,,,,
,,,,,,,,2023-08-16_08h48.11.460,HF_wild_card,2022.2.4,Win32,60.34638827,634688048500211f4412cff2,64d2fd46c836a06233681665,64dc7f120dfc8a90638a3d50,,,,,,,decisionTrl,resources/DBN.BMP,resources/DP.BMP,Door1,0.270676692,-0.003759398,1,0,0,14.6796,optionRight,30,1885,1,35,0,35,0,1,,,,,,,,,,,,,,,,,,,,,,,,,,,,,,,,,,,,,,,
,,,,,,,,2023-08-16_08h48.11.460,HF_wild_card,2022.2.4,Win32,60.34638827,634688048500211f4412cff2,64d2fd46c836a06233681665,64dc7f120dfc8a90638a3d50,,,,,,,sngl,resources/DB.BMP,resources/Empty.png,WildCard_NonEx,-0.353383459,0.022019334,1,0,0,0.6811,optionLeft,55,1940,1,36,0,36,0,1,,,,,,,,,,,,,,,,,,,,,,,,,,,,,,,,,,,,,,,
,,,,,,,,2023-08-16_08h48.11.460,HF_wild_card,2022.2.4,Win32,60.34638827,634688048500211f4412cff2,64d2fd46c836a06233681665,64dc7f120dfc8a90638a3d50,,,,,,,decisionTrl,resources/DBN.BMP,resources/DP.BMP,Door1,0.338345865,0.010204082,1,0,0,1.6168,optionRight,30,1970,1,37,0,37,0,1,,,,,,,,,,,,,,,,,,,,,,,,,,,,,,,,,,,,,,,
,,,,,,,,2023-08-16_08h48.11.460,HF_wild_card,2022.2.4,Win32,60.34638827,634688048500211f4412cff2,64d2fd46c836a06233681665,64dc7f120dfc8a90638a3d50,,,,,,,decisionTrl,resources/DG.BMP,resources/DB.BMP,Door4,-0.364124597,0.009129968,1,0,0,0.9006,optionLeft,60,2030,1,38,0,38,0,1,,,,,,,,,,,,,,,,,,,,,,,,,,,,,,,,,,,,,,,
,,,,,,,,2023-08-16_08h48.11.460,HF_wild_card,2022.2.4,Win32,60.34638827,634688048500211f4412cff2,64d2fd46c836a06233681665,64dc7f120dfc8a90638a3d50,,,,,,,ctch,resources/DBN.BMP,resources/DR.BMP,Door3,0.335123523,0.012352309,1,0,0,1.3659,optionRight,70,2100,1,39,0,39,0,1,,,,,,,,,,,,,,,,,,,,,,,,,,,,,,,,,,,,,,,
,,,,,,,,2023-08-16_08h48.11.460,HF_wild_card,2022.2.4,Win32,60.34638827,634688048500211f4412cff2,64d2fd46c836a06233681665,64dc7f120dfc8a90638a3d50,,,,,,,decisionTrl,resources/DP.BMP,resources/DB.BMP,WildCard_NonEx,0.229860365,0.000537057,1,0,0,3.4389,optionRight,55,2155,1,40,0,40,0,1,,,,,,,,,,,,,,,,,,,,,,,,,,,,,,,,,,,,,,,
,,,,,,,,2023-08-16_08h48.11.460,HF_wild_card,2022.2.4,Win32,60.34638827,634688048500211f4412cff2,64d2fd46c836a06233681665,64dc7f120dfc8a90638a3d50,,,,,,,decisionTrl,resources/DP.BMP,resources/DBN.BMP,Door1,-0.363050483,0.001611171,1,0,0,1.2664,optionLeft,30,2185,1,41,0,41,0,1,,,,,,,,,,,,,,,,,,,,,,,,,,,,,,,,,,,,,,,
,,,,,,,,2023-08-16_08h48.11.460,HF_wild_card,2022.2.4,Win32,60.34638827,634688048500211f4412cff2,64d2fd46c836a06233681665,64dc7f120dfc8a90638a3d50,,,,,,,decisionTrl,resources/DR.BMP,resources/DG.BMP,Door4,0.352309345,0.000537057,1,0,0,1.2181,optionRight,80,2265,1,42,0,42,0,1,,,,,,,,,,,,,,,,,,,,,,,,,,,,,,,,,,,,,,,
,,,,,,,,2023-08-16_08h48.11.460,HF_wild_card,2022.2.4,Win32,60.34638827,634688048500211f4412cff2,64d2fd46c836a06233681665,64dc7f120dfc8a90638a3d50,,,,,,,decisionTrl,resources/DR.BMP,resources/DB.BMP,Door3,-0.290010741,0.003759398,1,0,0,1.6025,optionLeft,70,2335,1,43,0,43,0,1,,,,,,,,,,,,,,,,,,,,,,,,,,,,,,,,,,,,,,,
,,,,,,,,2023-08-16_08h48.11.460,HF_wild_card,2022.2.4,Win32,60.34638827,634688048500211f4412cff2,64d2fd46c836a06233681665,64dc7f120dfc8a90638a3d50,,,,,,,,,,,,,,,,,,,,,,,,,,0,0,0,0,1,,,,,,,,,,,,,,,,,,,,,,,,,,,,,,,,,,
,,,,,,,,2023-08-16_08h48.11.460,HF_wild_card,2022.2.4,Win32,60.34638827,634688048500211f4412cff2,64d2fd46c836a06233681665,64dc7f120dfc8a90638a3d50,,,,,,,decisionTrl,resources/DP.BMP,resources/DBN.BMP,Door1,-0.277121375,-0.0349087,1,0,0,1.726,optionLeft,30,2365,2,0,0,0,0,1,,,,,,,,,,,,,,,,,,,,,,,,,,,,,,,,,,,,,,,
,,,,,,,,2023-08-16_08h48.11.460,HF_wild_card,2022.2.4,Win32,60.34638827,634688048500211f4412cff2,64d2fd46c836a06233681665,64dc7f120dfc8a90638a3d50,,,,,,,ctch,resources/DBN.BMP,resources/DR.BMP,Door3,0.284640172,-0.027389903,1,0,0,1.1145,optionRight,70,2435,2,1,0,1,0,1,,,,,,,,,,,,,,,,,,,,,,,,,,,,,,,,,,,,,,,
,,,,,,,,2023-08-16_08h48.11.460,HF_wild_card,2022.2.4,Win32,60.34638827,634688048500211f4412cff2,64d2fd46c836a06233681665,64dc7f120dfc8a90638a3d50,,,,,,,sngl,resources/Empty.png,resources/DP.BMP,Door1,0.337271751,-0.017722879,1,0,0,0.5989,optionRight,30,2465,2,2,0,2,0,1,,,,,,,,,,,,,,,,,,,,,,,,,,,,,,,,,,,,,,,
,,,,,,,,2023-08-16_08h48.11.460,HF_wild_card,2022.2.4,Win32,60.34638827,634688048500211f4412cff2,64d2fd46c836a06233681665,64dc7f120dfc8a90638a3d50,,,,,,,decisionTrl,resources/DBN.BMP,resources/DP.BMP,Door1,0.252416756,0.032760473,1,0,0,2.1192,optionRight,30,2495,2,3,0,3,0,1,,,,,,,,,,,,,,,,,,,,,,,,,,,,,,,,,,,,,,,
,,,,,,,,2023-08-16_08h48.11.460,HF_wild_card,2022.2.4,Win32,60.34638827,634688048500211f4412cff2,64d2fd46c836a06233681665,64dc7f120dfc8a90638a3d50,,,,,,,decisionTrl,resources/DP.BMP,resources/DBN.BMP,Door1,-0.426423201,0.027389903,1,0,0,0.6595,optionLeft,30,2525,2,4,0,4,0,1,,,,,,,,,,,,,,,,,,,,,,,,,,,,,,,,,,,,,,,
,,,,,,,,2023-08-16_08h48.11.460,HF_wild_card,2022.2.4,Win32,60.34638827,634688048500211f4412cff2,64d2fd46c836a06233681665,64dc7f120dfc8a90638a3d50,,,,,,,decisionTrl,resources/DBN.BMP,resources/DP.BMP,Door2,-0.351235231,0.019871106,1,0,0,1.2993,optionLeft,40,2565,2,5,0,5,0,1,,,,,,,,,,,,,,,,,,,,,,,,,,,,,,,,,,,,,,,
,,,,,,,,2023-08-16_08h48.11.460,HF_wild_card,2022.2.4,Win32,60.34638827,634688048500211f4412cff2,64d2fd46c836a06233681665,64dc7f120dfc8a90638a3d50,,,,,,,decisionTrl,resources/DBN.BMP,resources/DP.BMP,Door2,-0.432867884,-0.035982814,1,0,0,0.581,optionLeft,20,2585,2,6,0,6,0,1,,,,,,,,,,,,,,,,,,,,,,,,,,,,,,,,,,,,,,,
,,,,,,,,2023-08-16_08h48.11.460,HF_wild_card,2022.2.4,Win32,60.34638827,634688048500211f4412cff2,64d2fd46c836a06233681665,64dc7f120dfc8a90638a3d50,,,,,,,ctch,resources/DBN.BMP,resources/DR.BMP,Door3,0.332975295,-0.030612245,1,0,0,0.8982,optionRight,70,2655,2,7,0,7,0,1,,,,,,,,,,,,,,,,,,,,,,,,,,,,,,,,,,,,,,,
,,,,,,,,2023-08-16_08h48.11.460,HF_wild_card,2022.2.4,Win32,60.34638827,634688048500211f4412cff2,64d2fd46c836a06233681665,64dc7f120dfc8a90638a3d50,,,,,,,sngl,resources/Empty.png,resources/DG.BMP,Door4,0.44575725,-0.023093448,1,0,0,0.5975,optionRight,80,2735,2,8,0,8,0,1,,,,,,,,,,,,,,,,,,,,,,,,,,,,,,,,,,,,,,,
,,,,,,,,2023-08-16_08h48.11.460,HF_wild_card,2022.2.4,Win32,60.34638827,634688048500211f4412cff2,64d2fd46c836a06233681665,64dc7f120dfc8a90638a3d50,,,,,,,ctch,resources/DG.BMP,resources/DP.BMP,Door4,-0.292158969,0.024167562,1,0,0,1.1157,optionLeft,80,2815,2,9,0,9,0,1,,,,,,,,,,,,,,,,,,,,,,,,,,,,,,,,,,,,,,,
,,,,,,,,2023-08-16_08h48.11.460,HF_wild_card,2022.2.4,Win32,60.34638827,634688048500211f4412cff2,64d2fd46c836a06233681665,64dc7f120dfc8a90638a3d50,,,,,,,sngl,resources/DP.BMP,resources/Empty.png,Door1,-0.311493018,-0.014500537,1,0,0,0.6149,optionLeft,30,2845,2,10,0,10,0,1,,,,,,,,,,,,,,,,,,,,,,,,,,,,,,,,,,,,,,,
,,,,,,,,2023-08-16_08h48.11.460,HF_wild_card,2022.2.4,Win32,60.34638827,634688048500211f4412cff2,64d2fd46c836a06233681665,64dc7f120dfc8a90638a3d50,,,,,,,decisionTrl,resources/DBN.BMP,resources/DP.BMP,Door1,0.29538131,0.00698174,1,0,0,2.1349,optionRight,30,2875,2,11,0,11,0,1,,,,,,,,,,,,,,,,,,,,,,,,,,,,,,,,,,,,,,,
,,,,,,,,2023-08-16_08h48.11.460,HF_wild_card,2022.2.4,Win32,60.34638827,634688048500211f4412cff2,64d2fd46c836a06233681665,64dc7f120dfc8a90638a3d50,,,,,,,decisionTrl,resources/DG.BMP,resources/DR.BMP,Door4,-0.345864662,0.018796992,1,0,0,0.8811,optionLeft,80,2955,2,12,0,12,0,1,,,,,,,,,,,,,,,,,,,,,,,,,,,,,,,,,,,,,,,
,,,,,,,,2023-08-16_08h48.11.460,HF_wild_card,2022.2.4,Win32,60.34638827,634688048500211f4412cff2,64d2fd46c836a06233681665,64dc7f120dfc8a90638a3d50,,,,,,,decisionTrl,resources/DG.BMP,resources/DR.BMP,Door4,-0.241675618,0.026315789,1,0,0,1.0154,optionLeft,80,3035,2,13,0,13,0,1,,,,,,,,,,,,,,,,,,,,,,,,,,,,,,,,,,,,,,,
,,,,,,,,2023-08-16_08h48.11.460,HF_wild_card,2022.2.4,Win32,60.34638827,634688048500211f4412cff2,64d2fd46c836a06233681665,64dc7f120dfc8a90638a3d50,,,,,,,sngl,resources/DB.BMP,resources/Empty.png,WildCard_NonEx,-0.364124597,0.008055854,1,0,0,0.7647,optionLeft,45,3080,2,14,0,14,0,1,,,,,,,,,,,,,,,,,,,,,,,,,,,,,,,,,,,,,,,
,,,,,,,,2023-08-16_08h48.11.460,HF_wild_card,2022.2.4,Win32,60.34638827,634688048500211f4412cff2,64d2fd46c836a06233681665,64dc7f120dfc8a90638a3d50,,,,,,,decisionTrl,resources/DP.BMP,resources/DB.BMP,WildCard_NonEx,0.228786251,-0.015574651,1,0,0,1.4658,optionRight,45,3125,2,15,0,15,0,1,,,,,,,,,,,,,,,,,,,,,,,,,,,,,,,,,,,,,,,
,,,,,,,,2023-08-16_08h48.11.460,HF_wild_card,2022.2.4,Win32,60.34638827,634688048500211f4412cff2,64d2fd46c836a06233681665,64dc7f120dfc8a90638a3d50,,,,,,,sngl,resources/DB.BMP,resources/Empty.png,WildCard_NonEx,-0.244897959,-0.004833512,1,0,0,0.4968,optionLeft,55,3180,2,16,0,16,0,1,,,,,,,,,,,,,,,,,,,,,,,,,,,,,,,,,,,,,,,
,,,,,,,,2023-08-16_08h48.11.460,HF_wild_card,2022.2.4,Win32,60.34638827,634688048500211f4412cff2,64d2fd46c836a06233681665,64dc7f120dfc8a90638a3d50,,,,,,,decisionTrl,resources/DR.BMP,resources/DG.BMP,Door4,0.395273899,0.001611171,1,0,0,0.8646,optionRight,60,3240,2,17,0,17,0,1,,,,,,,,,,,,,,,,,,,,,,,,,,,,,,,,,,,,,,,
,,,,,,,,2023-08-16_08h48.11.460,HF_wild_card,2022.2.4,Win32,60.34638827,634688048500211f4412cff2,64d2fd46c836a06233681665,64dc7f120dfc8a90638a3d50,,,,,,,sngl,resources/Empty.png,resources/DB.BMP,WildCard_NonEx,0.313641246,-0.030612245,1,0,0,0.4814,optionRight,55,3295,2,18,0,18,0,1,,,,,,,,,,,,,,,,,,,,,,,,,,,,,,,,,,,,,,,
,,,,,,,,2023-08-16_08h48.11.460,HF_wild_card,2022.2.4,Win32,60.34638827,634688048500211f4412cff2,64d2fd46c836a06233681665,64dc7f120dfc8a90638a3d50,,,,,,,decisionTrl,resources/DG.BMP,resources/DB.BMP,Door4,-0.294307197,-0.001611171,1,0,0,0.7476,optionLeft,80,3375,2,19,0,19,0,1,,,,,,,,,,,,,,,,,,,,,,,,,,,,,,,,,,,,,,,
,,,,,,,,2023-08-16_08h48.11.460,HF_wild_card,2022.2.4,Win32,60.34638827,634688048500211f4412cff2,64d2fd46c836a06233681665,64dc7f120dfc8a90638a3d50,,,,,,,ctch,resources/DP.BMP,resources/DG.BMP,Door4,0.251342642,-0.005907626,1,0,0,0.9818,optionRight,60,3435,2,20,0,20,0,1,,,,,,,,,,,,,,,,,,,,,,,,,,,,,,,,,,,,,,,
,,,,,,,,2023-08-16_08h48.11.460,HF_wild_card,2022.2.4,Win32,60.34638827,634688048500211f4412cff2,64d2fd46c836a06233681665,64dc7f120dfc8a90638a3d50,,,,,,,decisionTrl,resources/DG.BMP,resources/DR.BMP,Door4,-0.263157895,0.014500537,1,0,0,0.6145,optionLeft,60,3495,2,21,0,21,0,1,,,,,,,,,,,,,,,,,,,,,,,,,,,,,,,,,,,,,,,
,,,,,,,,2023-08-16_08h48.11.460,HF_wild_card,2022.2.4,Win32,60.34638827,634688048500211f4412cff2,64d2fd46c836a06233681665,64dc7f120dfc8a90638a3d50,,,,,,,ctch,resources/DR.BMP,resources/DBN.BMP,Door3,-0.38990333,0.00698174,1,0,0,0.5641,optionLeft,70,3565,2,22,0,22,0,1,,,,,,,,,,,,,,,,,,,,,,,,,,,,,,,,,,,,,,,
,,,,,,,,2023-08-16_08h48.11.460,HF_wild_card,2022.2.4,Win32,60.34638827,634688048500211f4412cff2,64d2fd46c836a06233681665,64dc7f120dfc8a90638a3d50,,,,,,,decisionTrl,resources/DB.BMP,resources/DR.BMP,Door3,0.309344791,-0.00698174,1,0,0,0.6321,optionRight,70,3635,2,23,0,23,0,1,,,,,,,,,,,,,,,,,,,,,,,,,,,,,,,,,,,,,,,
,,,,,,,,2023-08-16_08h48.11.460,HF_wild_card,2022.2.4,Win32,60.34638827,634688048500211f4412cff2,64d2fd46c836a06233681665,64dc7f120dfc8a90638a3d50,,,,,,,sngl,resources/DBN.BMP,resources/Empty.png,Door2,-0.373791622,0.027389903,1,0,0,0.6295,optionLeft,20,3655,2,24,0,24,0,1,,,,,,,,,,,,,,,,,,,,,,,,,,,,,,,,,,,,,,,
,,,,,,,,2023-08-16_08h48.11.460,HF_wild_card,2022.2.4,Win32,60.34638827,634688048500211f4412cff2,64d2fd46c836a06233681665,64dc7f120dfc8a90638a3d50,,,,,,,decisionTrl,resources/DP.BMP,resources/DBN.BMP,Door1,-0.369495166,0.008055854,1,0,0,0.8649,optionLeft,30,3685,2,25,0,25,0,1,,,,,,,,,,,,,,,,,,,,,,,,,,,,,,,,,,,,,,,
,,,,,,,,2023-08-16_08h48.11.460,HF_wild_card,2022.2.4,Win32,60.34638827,634688048500211f4412cff2,64d2fd46c836a06233681665,64dc7f120dfc8a90638a3d50,,,,,,,decisionTrl,resources/DB.BMP,resources/DP.BMP,WildCard_NonEx,-0.327604726,-0.001611171,1,0,0,1.635,optionLeft,55,3740,2,26,0,26,0,1,,,,,,,,,,,,,,,,,,,,,,,,,,,,,,,,,,,,,,,
,,,,,,,,2023-08-16_08h48.11.460,HF_wild_card,2022.2.4,Win32,60.34638827,634688048500211f4412cff2,64d2fd46c836a06233681665,64dc7f120dfc8a90638a3d50,,,,,,,decisionTrl,resources/DB.BMP,resources/DBN.BMP,WildCard_NonEx,-0.332975295,-0.00698174,1,0,0,0.7648,optionLeft,55,3795,2,27,0,27,0,1,,,,,,,,,,,,,,,,,,,,,,,,,,,,,,,,,,,,,,,
,,,,,,,,2023-08-16_08h48.11.460,HF_wild_card,2022.2.4,Win32,60.34638827,634688048500211f4412cff2,64d2fd46c836a06233681665,64dc7f120dfc8a90638a3d50,,,,,,,sngl,resources/DG.BMP,resources/Empty.png,Door4,-0.360902256,0.000537057,1,0,0,0.4973,optionLeft,60,3855,2,28,0,28,0,1,,,,,,,,,,,,,,,,,,,,,,,,,,,,,,,,,,,,,,,
,,,,,,,,2023-08-16_08h48.11.460,HF_wild_card,2022.2.4,Win32,60.34638827,634688048500211f4412cff2,64d2fd46c836a06233681665,64dc7f120dfc8a90638a3d50,,,,,,,ctch,resources/DP.BMP,resources/DG.BMP,Door4,0.296455424,0.026315789,1,0,0,1.4496,optionRight,60,3915,2,29,0,29,0,1,,,,,,,,,,,,,,,,,,,,,,,,,,,,,,,,,,,,,,,
,,,,,,,,2023-08-16_08h48.11.460,HF_wild_card,2022.2.4,Win32,60.34638827,634688048500211f4412cff2,64d2fd46c836a06233681665,64dc7f120dfc8a90638a3d50,,,,,,,decisionTrl,resources/DR.BMP,resources/DB.BMP,Door3,-0.296455424,0.014500537,1,0,0,2.3188,optionLeft,70,3985,2,30,0,30,0,1,,,,,,,,,,,,,,,,,,,,,,,,,,,,,,,,,,,,,,,
,,,,,,,,2023-08-16_08h48.11.460,HF_wild_card,2022.2.4,Win32,60.34638827,634688048500211f4412cff2,64d2fd46c836a06233681665,64dc7f120dfc8a90638a3d50,,,,,,,decisionTrl,resources/DR.BMP,resources/DG.BMP,Door3,-0.457572503,-0.011278195,1,0,0,0.5308,optionLeft,70,4055,2,31,0,31,0,1,,,,,,,,,,,,,,,,,,,,,,,,,,,,,,,,,,,,,,,
,,,,,,,,2023-08-16_08h48.11.460,HF_wild_card,2022.2.4,Win32,60.34638827,634688048500211f4412cff2,64d2fd46c836a06233681665,64dc7f120dfc8a90638a3d50,,,,,,,decisionTrl,resources/DG.BMP,resources/DR.BMP,Door4,-0.294307197,0.016648765,1,0,0,1.0487,optionLeft,60,4115,2,32,0,32,0,1,,,,,,,,,,,,,,,,,,,,,,,,,,,,,,,,,,,,,,,
,,,,,,,,2023-08-16_08h48.11.460,HF_wild_card,2022.2.4,Win32,60.34638827,634688048500211f4412cff2,64d2fd46c836a06233681665,64dc7f120dfc8a90638a3d50,,,,,,,decisionTrl,resources/DB.BMP,resources/DG.BMP,Door4,0.21160043,0.011278195,1,0,0,0.8327,optionRight,80,4195,2,33,0,33,0,1,,,,,,,,,,,,,,,,,,,,,,,,,,,,,,,,,,,,,,,
,,,,,,,,2023-08-16_08h48.11.460,HF_wild_card,2022.2.4,Win32,60.34638827,634688048500211f4412cff2,64d2fd46c836a06233681665,64dc7f120dfc8a90638a3d50,,,,,,,sngl,resources/Empty.png,resources/DB.BMP,WildCard_NonEx,0.523093448,-0.047798067,1,0,0,0.6305,optionRight,45,4240,2,34,0,34,0,1,,,,,,,,,,,,,,,,,,,,,,,,,,,,,,,,,,,,,,,
,,,,,,,,2023-08-16_08h48.11.460,HF_wild_card,2022.2.4,Win32,60.34638827,634688048500211f4412cff2,64d2fd46c836a06233681665,64dc7f120dfc8a90638a3d50,,,,,,,sngl,resources/Empty.png,resources/DR.BMP,Door3,0.387755102,-0.030612245,1,0,0,0.4975,optionRight,70,4310,2,35,0,35,0,1,,,,,,,,,,,,,,,,,,,,,,,,,,,,,,,,,,,,,,,
,,,,,,,,2023-08-16_08h48.11.460,HF_wild_card,2022.2.4,Win32,60.34638827,634688048500211f4412cff2,64d2fd46c836a06233681665,64dc7f120dfc8a90638a3d50,,,,,,,decisionTrl,resources/DR.BMP,resources/DG.BMP,Door3,-0.279269603,0.002685285,1,0,0,2.2511,optionLeft,70,4380,2,36,0,36,0,1,,,,,,,,,,,,,,,,,,,,,,,,,,,,,,,,,,,,,,,
,,,,,,,,2023-08-16_08h48.11.460,HF_wild_card,2022.2.4,Win32,60.34638827,634688048500211f4412cff2,64d2fd46c836a06233681665,64dc7f120dfc8a90638a3d50,,,,,,,ctch,resources/DR.BMP,resources/DBN.BMP,Door3,-0.377013963,0.033834586,1,0,0,0.6991,optionLeft,70,4450,2,37,0,37,0,1,,,,,,,,,,,,,,,,,,,,,,,,,,,,,,,,,,,,,,,
,,,,,,,,2023-08-16_08h48.11.460,HF_wild_card,2022.2.4,Win32,60.34638827,634688048500211f4412cff2,64d2fd46c836a06233681665,64dc7f120dfc8a90638a3d50,,,,,,,sngl,resources/Empty.png,resources/DBN.BMP,Door2,0.412459721,0.000537057,1,0,0,0.5474,optionRight,40,4490,2,38,0,38,0,1,,,,,,,,,,,,,,,,,,,,,,,,,,,,,,,,,,,,,,,
,,,,,,,,2023-08-16_08h48.11.460,HF_wild_card,2022.2.4,Win32,60.34638827,634688048500211f4412cff2,64d2fd46c836a06233681665,64dc7f120dfc8a90638a3d50,,,,,,,decisionTrl,resources/DR.BMP,resources/DG.BMP,Door3,-0.350161117,0.001611171,1,0,0,0.8312,optionLeft,70,4560,2,39,0,39,0,1,,,,,,,,,,,,,,,,,,,,,,,,,,,,,,,,,,,,,,,
,,,,,,,,2023-08-16_08h48.11.460,HF_wild_card,2022.2.4,Win32,60.34638827,634688048500211f4412cff2,64d2fd46c836a06233681665,64dc7f120dfc8a90638a3d50,,,,,,,ctch,resources/DG.BMP,resources/DP.BMP,Door4,-0.406015038,0.012352309,1,0,0,0.6648,optionLeft,60,4620,2,40,0,40,0,1,,,,,,,,,,,,,,,,,,,,,,,,,,,,,,,,,,,,,,,
,,,,,,,,2023-08-16_08h48.11.460,HF_wild_card,2022.2.4,Win32,60.34638827,634688048500211f4412cff2,64d2fd46c836a06233681665,64dc7f120dfc8a90638a3d50,,,,,,,decisionTrl,resources/DP.BMP,resources/DBN.BMP,Door1,-0.408163265,0.038131042,1,0,0,0.8657,optionLeft,30,4650,2,41,0,41,0,1,,,,,,,,,,,,,,,,,,,,,,,,,,,,,,,,,,,,,,,
,,,,,,,,2023-08-16_08h48.11.460,HF_wild_card,2022.2.4,Win32,60.34638827,634688048500211f4412cff2,64d2fd46c836a06233681665,64dc7f120dfc8a90638a3d50,,,,,,,sngl,resources/DR.BMP,resources/Empty.png,Door3,-0.298603652,0.002685285,1,0,0,0.6641,optionLeft,70,4720,2,42,0,42,0,1,,,,,,,,,,,,,,,,,,,,,,,,,,,,,,,,,,,,,,,
,,,,,,,,2023-08-16_08h48.11.460,HF_wild_card,2022.2.4,Win32,60.34638827,634688048500211f4412cff2,64d2fd46c836a06233681665,64dc7f120dfc8a90638a3d50,,,,,,,decisionTrl,resources/DBN.BMP,resources/DB.BMP,WildCard_NonEx,0.271750806,0.058539205,1,0,0,12.5924,optionRight,55,4775,2,43,0,43,0,1,,,,,,,,,,,,,,,,,,,,,,,,,,,,,,,,,,,,,,,
,,,,,,,,2023-08-16_08h48.11.460,HF_wild_card,2022.2.4,Win32,60.34638827,634688048500211f4412cff2,64d2fd46c836a06233681665,64dc7f120dfc8a90638a3d50,,,,,,,,,,,,,,,,,,,,,,,,,,1,0,1,0,1,,,,,,,,,,,,,,,,,,,,,,,,,,,,,,,,,,
,,,,,,,,2023-08-16_08h48.11.460,HF_wild_card,2022.2.4,Win32,60.34638827,634688048500211f4412cff2,64d2fd46c836a06233681665,64dc7f120dfc8a90638a3d50,,,,,,,decisionTrl,resources/DP.BMP,resources/DB.BMP,Door1,-0.404940924,-0.004833512,1,0,0,2.531,optionLeft,30,4805,3,0,0,0,0,1,,,,,,,,,,,,,,,,,,,,,,,,,,,,,,,,,,,,,,,
,,,,,,,,2023-08-16_08h48.11.460,HF_wild_card,2022.2.4,Win32,60.34638827,634688048500211f4412cff2,64d2fd46c836a06233681665,64dc7f120dfc8a90638a3d50,,,,,,,sngl,resources/Empty.png,resources/DB.BMP,WildCard_NonEx,0.32867884,-0.004833512,1,0,0,0.4678,optionRight,55,4860,3,1,0,1,0,1,,,,,,,,,,,,,,,,,,,,,,,,,,,,,,,,,,,,,,,
,,,,,,,,2023-08-16_08h48.11.460,HF_wild_card,2022.2.4,Win32,60.34638827,634688048500211f4412cff2,64d2fd46c836a06233681665,64dc7f120dfc8a90638a3d50,,,,,,,decisionTrl,resources/DBN.BMP,resources/DP.BMP,Door2,-0.32867884,0.017722879,1,0,0,1.3516,optionLeft,40,4900,3,2,0,2,0,1,,,,,,,,,,,,,,,,,,,,,,,,,,,,,,,,,,,,,,,
,,,,,,,,2023-08-16_08h48.11.460,HF_wild_card,2022.2.4,Win32,60.34638827,634688048500211f4412cff2,64d2fd46c836a06233681665,64dc7f120dfc8a90638a3d50,,,,,,,decisionTrl,resources/DBN.BMP,resources/DP.BMP,Door2,-0.348012889,0.023093448,1,0,0,1.3714,optionLeft,20,4920,3,3,0,3,0,1,,,,,,,,,,,,,,,,,,,,,,,,,,,,,,,,,,,,,,,
,,,,,,,,2023-08-16_08h48.11.460,HF_wild_card,2022.2.4,Win32,60.34638827,634688048500211f4412cff2,64d2fd46c836a06233681665,64dc7f120dfc8a90638a3d50,,,,,,,decisionTrl,resources/DP.BMP,resources/DBN.BMP,Door1,-0.390977444,0.003759398,1,0,0,1.0175,optionLeft,30,4950,3,4,0,4,0,1,,,,,,,,,,,,,,,,,,,,,,,,,,,,,,,,,,,,,,,
,,,,,,,,2023-08-16_08h48.11.460,HF_wild_card,2022.2.4,Win32,60.34638827,634688048500211f4412cff2,64d2fd46c836a06233681665,64dc7f120dfc8a90638a3d50,,,,,,,ctch,resources/DG.BMP,resources/DP.BMP,Door4,-0.438238453,-0.002685285,1,0,0,0.5756,optionLeft,80,5030,3,5,0,5,0,1,,,,,,,,,,,,,,,,,,,,,,,,,,,,,,,,,,,,,,,
,,,,,,,,2023-08-16_08h48.11.460,HF_wild_card,2022.2.4,Win32,60.34638827,634688048500211f4412cff2,64d2fd46c836a06233681665,64dc7f120dfc8a90638a3d50,,,,,,,decisionTrl,resources/DR.BMP,resources/DG.BMP,Door3,-0.423200859,-0.023093448,1,0,0,0.4987,optionLeft,70,5100,3,6,0,6,0,1,,,,,,,,,,,,,,,,,,,,,,,,,,,,,,,,,,,,,,,
,,,,,,,,2023-08-16_08h48.11.460,HF_wild_card,2022.2.4,Win32,60.34638827,634688048500211f4412cff2,64d2fd46c836a06233681665,64dc7f120dfc8a90638a3d50,,,,,,,sngl,resources/DBN.BMP,resources/Empty.png,Door2,-0.316863588,-0.028464017,1,0,0,0.4861,optionLeft,40,5140,3,7,0,7,0,1,,,,,,,,,,,,,,,,,,,,,,,,,,,,,,,,,,,,,,,
,,,,,,,,2023-08-16_08h48.11.460,HF_wild_card,2022.2.4,Win32,60.34638827,634688048500211f4412cff2,64d2fd46c836a06233681665,64dc7f120dfc8a90638a3d50,,,,,,,decisionTrl,resources/DG.BMP,resources/DB.BMP,Door4,-0.250268528,-0.014500537,1,0,0,0.4828,optionLeft,80,5220,3,8,0,8,0,1,,,,,,,,,,,,,,,,,,,,,,,,,,,,,,,,,,,,,,,
,,,,,,,,2023-08-16_08h48.11.460,HF_wild_card,2022.2.4,Win32,60.34638827,634688048500211f4412cff2,64d2fd46c836a06233681665,64dc7f120dfc8a90638a3d50,,,,,,,sngl,resources/DB.BMP,resources/Empty.png,WildCard_NonEx,-0.191192266,-0.009129968,1,0,0,0.4162,optionLeft,55,5275,3,9,0,9,0,1,,,,,,,,,,,,,,,,,,,,,,,,,,,,,,,,,,,,,,,
,,,,,,,,2023-08-16_08h48.11.460,HF_wild_card,2022.2.4,Win32,60.34638827,634688048500211f4412cff2,64d2fd46c836a06233681665,64dc7f120dfc8a90638a3d50,,,,,,,decisionTrl,resources/DG.BMP,resources/DR.BMP,Door4,-0.351235231,-0.023093448,1,0,0,0.8196,optionLeft,80,5355,3,10,0,10,0,1,,,,,,,,,,,,,,,,,,,,,,,,,,,,,,,,,,,,,,,
,,,,,,,,2023-08-16_08h48.11.460,HF_wild_card,2022.2.4,Win32,60.34638827,634688048500211f4412cff2,64d2fd46c836a06233681665,64dc7f120dfc8a90638a3d50,,,,,,,decisionTrl,resources/DB.BMP,resources/DG.BMP,Door4,0.293233083,-0.009129968,1,0,0,0.8833,optionRight,60,5415,3,11,0,11,0,1,,,,,,,,,,,,,,,,,,,,,,,,,,,,,,,,,,,,,,,
,,,,,,,,2023-08-16_08h48.11.460,HF_wild_card,2022.2.4,Win32,60.34638827,634688048500211f4412cff2,64d2fd46c836a06233681665,64dc7f120dfc8a90638a3d50,,,,,,,decisionTrl,resources/DB.BMP,resources/DR.BMP,WildCard_NonEx,-0.237379162,0.033834586,1,0,0,2.0498,optionLeft,55,5470,3,12,0,12,0,1,,,,,,,,,,,,,,,,,,,,,,,,,,,,,,,,,,,,,,,
,,,,,,,,2023-08-16_08h48.11.460,HF_wild_card,2022.2.4,Win32,60.34638827,634688048500211f4412cff2,64d2fd46c836a06233681665,64dc7f120dfc8a90638a3d50,,,,,,,decisionTrl,resources/DB.BMP,resources/DBN.BMP,WildCard_NonEx,-0.355531686,0.042427497,1,0,0,0.5999,optionLeft,45,5515,3,13,0,13,0,1,,,,,,,,,,,,,,,,,,,,,,,,,,,,,,,,,,,,,,,
,,,,,,,,2023-08-16_08h48.11.460,HF_wild_card,2022.2.4,Win32,60.34638827,634688048500211f4412cff2,64d2fd46c836a06233681665,64dc7f120dfc8a90638a3d50,,,,,,,decisionTrl,resources/DP.BMP,resources/DBN.BMP,Door1,-0.285714286,0.008055854,1,0,0,0.5852,optionLeft,30,5545,3,14,0,14,0,1,,,,,,,,,,,,,,,,,,,,,,,,,,,,,,,,,,,,,,,
,,,,,,,,2023-08-16_08h48.11.460,HF_wild_card,2022.2.4,Win32,60.34638827,634688048500211f4412cff2,64d2fd46c836a06233681665,64dc7f120dfc8a90638a3d50,,,,,,,decisionTrl,resources/DB.BMP,resources/DP.BMP,Door1,0.257787325,-0.013426423,1,0,0,0.6124,optionRight,30,5575,3,15,0,15,0,1,,,,,,,,,,,,,,,,,,,,,,,,,,,,,,,,,,,,,,,
,,,,,,,,2023-08-16_08h48.11.460,HF_wild_card,2022.2.4,Win32,60.34638827,634688048500211f4412cff2,64d2fd46c836a06233681665,64dc7f120dfc8a90638a3d50,,,,,,,decisionTrl,resources/DG.BMP,resources/DR.BMP,Door4,-0.388829216,0.002685285,1,0,0,0.446,optionLeft,60,5635,3,16,0,16,0,1,,,,,,,,,,,,,,,,,,,,,,,,,,,,,,,,,,,,,,,
,,,,,,,,2023-08-16_08h48.11.460,HF_wild_card,2022.2.4,Win32,60.34638827,634688048500211f4412cff2,64d2fd46c836a06233681665,64dc7f120dfc8a90638a3d50,,,,,,,decisionTrl,resources/DR.BMP,resources/DG.BMP,Door3,-0.301825994,-0.001611171,1,0,0,1.2164,optionLeft,70,5705,3,17,0,17,0,1,,,,,,,,,,,,,,,,,,,,,,,,,,,,,,,,,,,,,,,
,,,,,,,,2023-08-16_08h48.11.460,HF_wild_card,2022.2.4,Win32,60.34638827,634688048500211f4412cff2,64d2fd46c836a06233681665,64dc7f120dfc8a90638a3d50,,,,,,,decisionTrl,resources/DR.BMP,resources/DB.BMP,Door3,-0.34264232,0.005907626,1,0,0,0.5996,optionLeft,70,5775,3,18,0,18,0,1,,,,,,,,,,,,,,,,,,,,,,,,,,,,,,,,,,,,,,,
,,,,,,,,2023-08-16_08h48.11.460,HF_wild_card,2022.2.4,Win32,60.34638827,634688048500211f4412cff2,64d2fd46c836a06233681665,64dc7f120dfc8a90638a3d50,,,,,,,ctch,resources/DR.BMP,resources/DBN.BMP,Door3,-0.29538131,-0.02094522,1,0,0,0.4794,optionLeft,70,5845,3,19,0,19,0,1,,,,,,,,,,,,,,,,,,,,,,,,,,,,,,,,,,,,,,,
,,,,,,,,2023-08-16_08h48.11.460,HF_wild_card,2022.2.4,Win32,60.34638827,634688048500211f4412cff2,64d2fd46c836a06233681665,64dc7f120dfc8a90638a3d50,,,,,,,decisionTrl,resources/DBN.BMP,resources/DP.BMP,Door1,0.213748657,0.018796992,1,0,0,1.017,optionRight,30,5875,3,20,0,20,0,1,,,,,,,,,,,,,,,,,,,,,,,,,,,,,,,,,,,,,,,
,,,,,,,,2023-08-16_08h48.11.460,HF_wild_card,2022.2.4,Win32,60.34638827,634688048500211f4412cff2,64d2fd46c836a06233681665,64dc7f120dfc8a90638a3d50,,,,,,,decisionTrl,resources/DG.BMP,resources/DR.BMP,Door4,-0.418904404,0.022019334,1,0,0,0.6252,optionLeft,80,5955,3,21,0,21,0,1,,,,,,,,,,,,,,,,,,,,,,,,,,,,,,,,,,,,,,,
,,,,,,,,2023-08-16_08h48.11.460,HF_wild_card,2022.2.4,Win32,60.34638827,634688048500211f4412cff2,64d2fd46c836a06233681665,64dc7f120dfc8a90638a3d50,,,,,,,ctch,resources/DP.BMP,resources/DG.BMP,Door4,0.412459721,0.008055854,1,0,0,0.7864,optionRight,60,6015,3,22,0,22,0,1,,,,,,,,,,,,,,,,,,,,,,,,,,,,,,,,,,,,,,,
,,,,,,,,2023-08-16_08h48.11.460,HF_wild_card,2022.2.4,Win32,60.34638827,634688048500211f4412cff2,64d2fd46c836a06233681665,64dc7f120dfc8a90638a3d50,,,,,,,decisionTrl,resources/DR.BMP,resources/DG.BMP,Door3,-0.315789474,0.002685285,1,0,0,1.3651,optionLeft,70,6085,3,23,0,23,0,1,,,,,,,,,,,,,,,,,,,,,,,,,,,,,,,,,,,,,,,
,,,,,,,,2023-08-16_08h48.11.460,HF_wild_card,2022.2.4,Win32,60.34638827,634688048500211f4412cff2,64d2fd46c836a06233681665,64dc7f120dfc8a90638a3d50,,,,,,,sngl,resources/DG.BMP,resources/Empty.png,Door4,-0.301825994,0.011278195,1,0,0,0.583,optionLeft,80,6165,3,24,0,24,0,1,,,,,,,,,,,,,,,,,,,,,,,,,,,,,,,,,,,,,,,
,,,,,,,,2023-08-16_08h48.11.460,HF_wild_card,2022.2.4,Win32,60.34638827,634688048500211f4412cff2,64d2fd46c836a06233681665,64dc7f120dfc8a90638a3d50,,,,,,,ctch,resources/DG.BMP,resources/DP.BMP,Door4,-0.238453276,-0.00698174,1,0,0,0.5669,optionLeft,60,6225,3,25,0,25,0,1,,,,,,,,,,,,,,,,,,,,,,,,,,,,,,,,,,,,,,,
,,,,,,,,2023-08-16_08h48.11.460,HF_wild_card,2022.2.4,Win32,60.34638827,634688048500211f4412cff2,64d2fd46c836a06233681665,64dc7f120dfc8a90638a3d50,,,,,,,decisionTrl,resources/DG.BMP,resources/DR.BMP,Door4,-0.336197637,0.059613319,1,0,0,0.5819,optionLeft,80,6305,3,26,0,26,0,1,,,,,,,,,,,,,,,,,,,,,,,,,,,,,,,,,,,,,,,
,,,,,,,,2023-08-16_08h48.11.460,HF_wild_card,2022.2.4,Win32,60.34638827,634688048500211f4412cff2,64d2fd46c836a06233681665,64dc7f120dfc8a90638a3d50,,,,,,,decisionTrl,resources/DR.BMP,resources/DG.BMP,Door4,0.440386681,-0.001611171,1,0,0,1.1706,optionRight,80,6385,3,27,0,27,0,1,,,,,,,,,,,,,,,,,,,,,,,,,,,,,,,,,,,,,,,
,,,,,,,,2023-08-16_08h48.11.460,HF_wild_card,2022.2.4,Win32,60.34638827,634688048500211f4412cff2,64d2fd46c836a06233681665,64dc7f120dfc8a90638a3d50,,,,,,,decisionTrl,resources/DBN.BMP,resources/DB.BMP,Door2,-0.226638024,0.042427497,1,0,0,1.2157,optionLeft,20,6405,3,28,0,28,0,1,,,,,,,,,,,,,,,,,,,,,,,,,,,,,,,,,,,,,,,
,,,,,,,,2023-08-16_08h48.11.460,HF_wild_card,2022.2.4,Win32,60.34638827,634688048500211f4412cff2,64d2fd46c836a06233681665,64dc7f120dfc8a90638a3d50,,,,,,,decisionTrl,resources/DP.BMP,resources/DBN.BMP,Door2,0.303974221,-0.014500537,1,0,0,0.4833,optionRight,20,6425,3,29,0,29,0,1,,,,,,,,,,,,,,,,,,,,,,,,,,,,,,,,,,,,,,,
,,,,,,,,2023-08-16_08h48.11.460,HF_wild_card,2022.2.4,Win32,60.34638827,634688048500211f4412cff2,64d2fd46c836a06233681665,64dc7f120dfc8a90638a3d50,,,,,,,sngl,resources/Empty.png,resources/DP.BMP,Door1,0.284640172,0.003759398,1,0,0,0.5125,optionRight,30,6455,3,30,0,30,0,1,,,,,,,,,,,,,,,,,,,,,,,,,,,,,,,,,,,,,,,
,,,,,,,,2023-08-16_08h48.11.460,HF_wild_card,2022.2.4,Win32,60.34638827,634688048500211f4412cff2,64d2fd46c836a06233681665,64dc7f120dfc8a90638a3d50,,,,,,,sngl,resources/DP.BMP,resources/Empty.png,Door1,-0.301825994,-0.003759398,1,0,0,0.6558,optionLeft,30,6485,3,31,0,31,0,1,,,,,,,,,,,,,,,,,,,,,,,,,,,,,,,,,,,,,,,
,,,,,,,,2023-08-16_08h48.11.460,HF_wild_card,2022.2.4,Win32,60.34638827,634688048500211f4412cff2,64d2fd46c836a06233681665,64dc7f120dfc8a90638a3d50,,,,,,,sngl,resources/DB.BMP,resources/Empty.png,WildCard_NonEx,-0.409237379,-0.009129968,1,0,0,0.5833,optionLeft,45,6530,3,32,0,32,0,1,,,,,,,,,,,,,,,,,,,,,,,,,,,,,,,,,,,,,,,
,,,,,,,,2023-08-16_08h48.11.460,HF_wild_card,2022.2.4,Win32,60.34638827,634688048500211f4412cff2,64d2fd46c836a06233681665,64dc7f120dfc8a90638a3d50,,,,,,,sngl,resources/Empty.png,resources/DG.BMP,Door4,0.327604726,0.027389903,1,0,0,0.4998,optionRight,60,6590,3,33,0,33,0,1,,,,,,,,,,,,,,,,,,,,,,,,,,,,,,,,,,,,,,,
,,,,,,,,2023-08-16_08h48.11.460,HF_wild_card,2022.2.4,Win32,60.34638827,634688048500211f4412cff2,64d2fd46c836a06233681665,64dc7f120dfc8a90638a3d50,,,,,,,ctch,resources/DBN.BMP,resources/DR.BMP,Door3,0.337271751,0.016648765,1,0,0,0.7837,optionRight,70,6660,3,34,0,34,0,1,,,,,,,,,,,,,,,,,,,,,,,,,,,,,,,,,,,,,,,
,,,,,,,,2023-08-16_08h48.11.460,HF_wild_card,2022.2.4,Win32,60.34638827,634688048500211f4412cff2,64d2fd46c836a06233681665,64dc7f120dfc8a90638a3d50,,,,,,,decisionTrl,resources/DBN.BMP,resources/DP.BMP,Door1,0.294307197,-0.011278195,1,0,0,0.6973,optionRight,30,6690,3,35,0,35,0,1,,,,,,,,,,,,,,,,,,,,,,,,,,,,,,,,,,,,,,,
,,,,,,,,2023-08-16_08h48.11.460,HF_wild_card,2022.2.4,Win32,60.34638827,634688048500211f4412cff2,64d2fd46c836a06233681665,64dc7f120dfc8a90638a3d50,,,,,,,ctch,resources/DBN.BMP,resources/DR.BMP,Door2,-0.269602578,-0.012352309,1,0,0,0.5478,optionLeft,40,6730,3,36,0,36,0,1,,,,,,,,,,,,,,,,,,,,,,,,,,,,,,,,,,,,,,,
,,,,,,,,2023-08-16_08h48.11.460,HF_wild_card,2022.2.4,Win32,60.34638827,634688048500211f4412cff2,64d2fd46c836a06233681665,64dc7f120dfc8a90638a3d50,,,,,,,sngl,resources/Empty.png,resources/DBN.BMP,Door2,0.237379162,-0.011278195,1,0,0,0.4164,optionRight,20,6750,3,37,0,37,0,1,,,,,,,,,,,,,,,,,,,,,,,,,,,,,,,,,,,,,,,
,,,,,,,,2023-08-16_08h48.11.460,HF_wild_card,2022.2.4,Win32,60.34638827,634688048500211f4412cff2,64d2fd46c836a06233681665,64dc7f120dfc8a90638a3d50,,,,,,,sngl,resources/DR.BMP,resources/Empty.png,Door3,-0.306122449,-0.000537057,1,0,0,0.433,optionLeft,70,6820,3,38,0,38,0,1,,,,,,,,,,,,,,,,,,,,,,,,,,,,,,,,,,,,,,,
,,,,,,,,2023-08-16_08h48.11.460,HF_wild_card,2022.2.4,Win32,60.34638827,634688048500211f4412cff2,64d2fd46c836a06233681665,64dc7f120dfc8a90638a3d50,,,,,,,decisionTrl,resources/DP.BMP,resources/DBN.BMP,Door1,-0.348012889,0.026315789,1,0,0,0.5166,optionLeft,30,6850,3,39,0,39,0,1,,,,,,,,,,,,,,,,,,,,,,,,,,,,,,,,,,,,,,,
,,,,,,,,2023-08-16_08h48.11.460,HF_wild_card,2022.2.4,Win32,60.34638827,634688048500211f4412cff2,64d2fd46c836a06233681665,64dc7f120dfc8a90638a3d50,,,,,,,ctch,resources/DP.BMP,resources/DG.BMP,Door4,0.259935553,-0.02094522,1,0,0,0.6322,optionRight,60,6910,3,40,0,40,0,1,,,,,,,,,,,,,,,,,,,,,,,,,,,,,,,,,,,,,,,
,,,,,,,,2023-08-16_08h48.11.460,HF_wild_card,2022.2.4,Win32,60.34638827,634688048500211f4412cff2,64d2fd46c836a06233681665,64dc7f120dfc8a90638a3d50,,,,,,,sngl,resources/Empty.png,resources/DR.BMP,Door3,0.323308271,-0.02094522,1,0,0,0.45,optionRight,70,6980,3,41,0,41,0,1,,,,,,,,,,,,,,,,,,,,,,,,,,,,,,,,,,,,,,,
,,,,,,,,2023-08-16_08h48.11.460,HF_wild_card,2022.2.4,Win32,60.34638827,634688048500211f4412cff2,64d2fd46c836a06233681665,64dc7f120dfc8a90638a3d50,,,,,,,sngl,resources/Empty.png,resources/DB.BMP,WildCard_NonEx,0.363050483,-0.037056928,1,0,0,0.3336,optionRight,45,7025,3,42,0,42,0,1,,,,,,,,,,,,,,,,,,,,,,,,,,,,,,,,,,,,,,,
,,,,,,,,2023-08-16_08h48.11.460,HF_wild_card,2022.2.4,Win32,60.34638827,634688048500211f4412cff2,64d2fd46c836a06233681665,64dc7f120dfc8a90638a3d50,,,,,,,ctch,resources/DR.BMP,resources/DBN.BMP,Door3,-0.323308271,0.00698174,1,0,0,0.4822,optionLeft,70,7095,3,43,0,43,0,1,,,,,,,,,,,,,,,,,,,,,,,,,,,,,,,,,,,,,,,
,,,,,,,,2023-08-16_08h48.11.460,HF_wild_card,2022.2.4,Win32,60.34638827,634688048500211f4412cff2,64d2fd46c836a06233681665,64dc7f120dfc8a90638a3d50,,,,,,,,,,,,,,,,,,,,,,,,,,2,0,2,0,1,,,,,,,,,,,,,,,,,,,,,,,,,,,,,,,,,,
,,,,,,,,2023-08-16_08h48.11.460,HF_wild_card,2022.2.4,Win32,60.34638827,634688048500211f4412cff2,64d2fd46c836a06233681665,64dc7f120dfc8a90638a3d50,,,,,,,decisionTrl,resources/DY.BMP,resources/DG.BMP,WildCard_Ex,-0.233082707,-0.037056928,1,0,0,1.3379,optionLeft,55,7150,4,0,0,0,0,1,,,,,,,,,,,,,,,,,,,,,,,,,,,,,,,,,,,,,,,
,,,,,,,,2023-08-16_08h48.11.460,HF_wild_card,2022.2.4,Win32,60.34638827,634688048500211f4412cff2,64d2fd46c836a06233681665,64dc7f120dfc8a90638a3d50,,,,,,,sngl,resources/DG.BMP,resources/Empty.png,Door4,-0.319011815,-0.027389903,1,0,0,0.4653,optionLeft,60,7210,4,1,0,1,0,1,,,,,,,,,,,,,,,,,,,,,,,,,,,,,,,,,,,,,,,
,,,,,,,,2023-08-16_08h48.11.460,HF_wild_card,2022.2.4,Win32,60.34638827,634688048500211f4412cff2,64d2fd46c836a06233681665,64dc7f120dfc8a90638a3d50,,,,,,,sngl,resources/Empty.png,resources/DR.BMP,Door3,0.298603652,-0.014500537,1,0,0,0.4832,optionRight,70,7280,4,2,0,2,0,1,,,,,,,,,,,,,,,,,,,,,,,,,,,,,,,,,,,,,,,
,,,,,,,,2023-08-16_08h48.11.460,HF_wild_card,2022.2.4,Win32,60.34638827,634688048500211f4412cff2,64d2fd46c836a06233681665,64dc7f120dfc8a90638a3d50,,,,,,,ctch,resources/DP.BMP,resources/DG.BMP,Door1,-0.277121375,-0.00698174,1,0,0,1.2681,optionLeft,30,7310,4,3,0,3,0,1,,,,,,,,,,,,,,,,,,,,,,,,,,,,,,,,,,,,,,,
,,,,,,,,2023-08-16_08h48.11.460,HF_wild_card,2022.2.4,Win32,60.34638827,634688048500211f4412cff2,64d2fd46c836a06233681665,64dc7f120dfc8a90638a3d50,,,,,,,decisionTrl,resources/DBN.BMP,resources/DP.BMP,Door1,0.499462943,-0.015574651,1,0,0,1.5691,optionRight,30,7340,4,4,0,4,0,1,,,,,,,,,,,,,,,,,,,,,,,,,,,,,,,,,,,,,,,
,,,,,,,,2023-08-16_08h48.11.460,HF_wild_card,2022.2.4,Win32,60.34638827,634688048500211f4412cff2,64d2fd46c836a06233681665,64dc7f120dfc8a90638a3d50,,,,,,,sngl,resources/Empty.png,resources/DBN.BMP,Door2,0.336197637,-0.003759398,1,0,0,0.4752,optionRight,40,7380,4,5,0,5,0,1,,,,,,,,,,,,,,,,,,,,,,,,,,,,,,,,,,,,,,,
,,,,,,,,2023-08-16_08h48.11.460,HF_wild_card,2022.2.4,Win32,60.34638827,634688048500211f4412cff2,64d2fd46c836a06233681665,64dc7f120dfc8a90638a3d50,,,,,,,decisionTrl,resources/DG.BMP,resources/DR.BMP,Door4,-0.351235231,0.003759398,1,0,0,1.7096,optionLeft,80,7460,4,6,0,6,0,1,,,,,,,,,,,,,,,,,,,,,,,,,,,,,,,,,,,,,,,
,,,,,,,,2023-08-16_08h48.11.460,HF_wild_card,2022.2.4,Win32,60.34638827,634688048500211f4412cff2,64d2fd46c836a06233681665,64dc7f120dfc8a90638a3d50,,,,,,,decisionTrl,resources/DP.BMP,resources/DY.BMP,WildCard_Ex,0.397422127,-0.024167562,1,0,0,2.057,optionRight,45,7505,4,7,0,7,0,1,,,,,,,,,,,,,,,,,,,,,,,,,,,,,,,,,,,,,,,
,,,,,,,,2023-08-16_08h48.11.460,HF_wild_card,2022.2.4,Win32,60.34638827,634688048500211f4412cff2,64d2fd46c836a06233681665,64dc7f120dfc8a90638a3d50,,,,,,,decisionTrl,resources/DR.BMP,resources/DY.BMP,Door3,-0.329752954,0.018796992,1,0,0,1.1541,optionLeft,70,7575,4,8,0,8,0,1,,,,,,,,,,,,,,,,,,,,,,,,,,,,,,,,,,,,,,,
,,,,,,,,2023-08-16_08h48.11.460,HF_wild_card,2022.2.4,Win32,60.34638827,634688048500211f4412cff2,64d2fd46c836a06233681665,64dc7f120dfc8a90638a3d50,,,,,,,ctch,resources/DG.BMP,resources/DP.BMP,Door4,-0.32867884,0.005907626,1,0,0,0.6659,optionLeft,60,7635,4,9,0,9,0,1,,,,,,,,,,,,,,,,,,,,,,,,,,,,,,,,,,,,,,,
,,,,,,,,2023-08-16_08h48.11.460,HF_wild_card,2022.2.4,Win32,60.34638827,634688048500211f4412cff2,64d2fd46c836a06233681665,64dc7f120dfc8a90638a3d50,,,,,,,decisionTrl,resources/DBN.BMP,resources/DP.BMP,Door1,0.350161117,-0.014500537,1,0,0,0.5986,optionRight,30,7665,4,10,0,10,0,1,,,,,,,,,,,,,,,,,,,,,,,,,,,,,,,,,,,,,,,
,,,,,,,,2023-08-16_08h48.11.460,HF_wild_card,2022.2.4,Win32,60.34638827,634688048500211f4412cff2,64d2fd46c836a06233681665,64dc7f120dfc8a90638a3d50,,,,,,,sngl,resources/DY.BMP,resources/Empty.png,WildCard_Ex,-0.334049409,0.010204082,1,0,0,0.449,optionLeft,55,7720,4,11,0,11,0,1,,,,,,,,,,,,,,,,,,,,,,,,,,,,,,,,,,,,,,,
,,,,,,,,2023-08-16_08h48.11.460,HF_wild_card,2022.2.4,Win32,60.34638827,634688048500211f4412cff2,64d2fd46c836a06233681665,64dc7f120dfc8a90638a3d50,,,,,,,sngl,resources/Empty.png,resources/DY.BMP,WildCard_Ex,0.334049409,0.000537057,1,0,0,0.5111,optionRight,45,7765,4,12,0,12,0,1,,,,,,,,,,,,,,,,,,,,,,,,,,,,,,,,,,,,,,,
,,,,,,,,2023-08-16_08h48.11.460,HF_wild_card,2022.2.4,Win32,60.34638827,634688048500211f4412cff2,64d2fd46c836a06233681665,64dc7f120dfc8a90638a3d50,,,,,,,decisionTrl,resources/DP.BMP,resources/DBN.BMP,Door1,-0.308270677,0.002685285,1,0,0,1.899,optionLeft,30,7795,4,13,0,13,0,1,,,,,,,,,,,,,,,,,,,,,,,,,,,,,,,,,,,,,,,
,,,,,,,,2023-08-16_08h48.11.460,HF_wild_card,2022.2.4,Win32,60.34638827,634688048500211f4412cff2,64d2fd46c836a06233681665,64dc7f120dfc8a90638a3d50,,,,,,,decisionTrl,resources/DR.BMP,resources/DG.BMP,Door4,0.337271751,0.002685285,1,0,0,0.5996,optionRight,60,7855,4,14,0,14,0,1,,,,,,,,,,,,,,,,,,,,,,,,,,,,,,,,,,,,,,,
,,,,,,,,2023-08-16_08h48.11.460,HF_wild_card,2022.2.4,Win32,60.34638827,634688048500211f4412cff2,64d2fd46c836a06233681665,64dc7f120dfc8a90638a3d50,,,,,,,sngl,resources/DP.BMP,resources/Empty.png,Door1,-0.272824919,0.005907626,1,0,0,0.4111,optionLeft,30,7885,4,15,0,15,0,1,,,,,,,,,,,,,,,,,,,,,,,,,,,,,,,,,,,,,,,
,,,,,,,,2023-08-16_08h48.11.460,HF_wild_card,2022.2.4,Win32,60.34638827,634688048500211f4412cff2,64d2fd46c836a06233681665,64dc7f120dfc8a90638a3d50,,,,,,,decisionTrl,resources/DY.BMP,resources/DBN.BMP,WildCard_Ex,-0.340494092,-0.005907626,1,0,0,0.5356,optionLeft,45,7930,4,16,0,16,0,1,,,,,,,,,,,,,,,,,,,,,,,,,,,,,,,,,,,,,,,
,,,,,,,,2023-08-16_08h48.11.460,HF_wild_card,2022.2.4,Win32,60.34638827,634688048500211f4412cff2,64d2fd46c836a06233681665,64dc7f120dfc8a90638a3d50,,,,,,,decisionTrl,resources/DY.BMP,resources/DR.BMP,Door3,0.200859291,-0.001611171,1,0,0,1.1307,optionRight,70,8000,4,17,0,17,0,1,,,,,,,,,,,,,,,,,,,,,,,,,,,,,,,,,,,,,,,
,,,,,,,,2023-08-16_08h48.11.460,HF_wild_card,2022.2.4,Win32,60.34638827,634688048500211f4412cff2,64d2fd46c836a06233681665,64dc7f120dfc8a90638a3d50,,,,,,,decisionTrl,resources/DR.BMP,resources/DG.BMP,Door3,-0.274973147,-0.024167562,1,0,0,0.4955,optionLeft,70,8070,4,18,0,18,0,1,,,,,,,,,,,,,,,,,,,,,,,,,,,,,,,,,,,,,,,
,,,,,,,,2023-08-16_08h48.11.460,HF_wild_card,2022.2.4,Win32,60.34638827,634688048500211f4412cff2,64d2fd46c836a06233681665,64dc7f120dfc8a90638a3d50,,,,,,,decisionTrl,resources/DBN.BMP,resources/DP.BMP,Door1,0.382384533,0.009129968,1,0,0,0.7904,optionRight,30,8100,4,19,0,19,0,1,,,,,,,,,,,,,,,,,,,,,,,,,,,,,,,,,,,,,,,
,,,,,,,,2023-08-16_08h48.11.460,HF_wild_card,2022.2.4,Win32,60.34638827,634688048500211f4412cff2,64d2fd46c836a06233681665,64dc7f120dfc8a90638a3d50,,,,,,,decisionTrl,resources/DBN.BMP,resources/DY.BMP,WildCard_Ex,0.387755102,0.016648765,1,0,0,0.6162,optionRight,55,8155,4,20,0,20,0,1,,,,,,,,,,,,,,,,,,,,,,,,,,,,,,,,,,,,,,,
,,,,,,,,2023-08-16_08h48.11.460,HF_wild_card,2022.2.4,Win32,60.34638827,634688048500211f4412cff2,64d2fd46c836a06233681665,64dc7f120dfc8a90638a3d50,,,,,,,sngl,resources/Empty.png,resources/DP.BMP,Door1,0.312567132,-0.015574651,1,0,0,0.5038,optionRight,30,8185,4,21,0,21,0,1,,,,,,,,,,,,,,,,,,,,,,,,,,,,,,,,,,,,,,,
,,,,,,,,2023-08-16_08h48.11.460,HF_wild_card,2022.2.4,Win32,60.34638827,634688048500211f4412cff2,64d2fd46c836a06233681665,64dc7f120dfc8a90638a3d50,,,,,,,decisionTrl,resources/DG.BMP,resources/DR.BMP,Door4,-0.323308271,-0.02094522,1,0,0,0.5,optionLeft,80,8265,4,22,0,22,0,1,,,,,,,,,,,,,,,,,,,,,,,,,,,,,,,,,,,,,,,
,,,,,,,,2023-08-16_08h48.11.460,HF_wild_card,2022.2.4,Win32,60.34638827,634688048500211f4412cff2,64d2fd46c836a06233681665,64dc7f120dfc8a90638a3d50,,,,,,,decisionTrl,resources/DBN.BMP,resources/DP.BMP,Door1,0.526315789,-0.030612245,1,0,0,1.2507,optionRight,30,8295,4,23,0,23,0,1,,,,,,,,,,,,,,,,,,,,,,,,,,,,,,,,,,,,,,,
,,,,,,,,2023-08-16_08h48.11.460,HF_wild_card,2022.2.4,Win32,60.34638827,634688048500211f4412cff2,64d2fd46c836a06233681665,64dc7f120dfc8a90638a3d50,,,,,,,sngl,resources/Empty.png,resources/DY.BMP,WildCard_Ex,0.43179377,-0.002685285,1,0,0,0.4697,optionRight,55,8350,4,24,0,24,0,1,,,,,,,,,,,,,,,,,,,,,,,,,,,,,,,,,,,,,,,
,,,,,,,,2023-08-16_08h48.11.460,HF_wild_card,2022.2.4,Win32,60.34638827,634688048500211f4412cff2,64d2fd46c836a06233681665,64dc7f120dfc8a90638a3d50,,,,,,,sngl,resources/DY.BMP,resources/Empty.png,WildCard_Ex,-0.383458647,0.005907626,1,0,0,0.4616,optionLeft,45,8395,4,25,0,25,0,1,,,,,,,,,,,,,,,,,,,,,,,,,,,,,,,,,,,,,,,
,,,,,,,,2023-08-16_08h48.11.460,HF_wild_card,2022.2.4,Win32,60.34638827,634688048500211f4412cff2,64d2fd46c836a06233681665,64dc7f120dfc8a90638a3d50,,,,,,,ctch,resources/DR.BMP,resources/DBN.BMP,Door3,-0.469387755,0.011278195,1,0,0,0.6829,optionLeft,70,8465,4,26,0,26,0,1,,,,,,,,,,,,,,,,,,,,,,,,,,,,,,,,,,,,,,,
,,,,,,,,2023-08-16_08h48.11.460,HF_wild_card,2022.2.4,Win32,60.34638827,634688048500211f4412cff2,64d2fd46c836a06233681665,64dc7f120dfc8a90638a3d50,,,,,,,ctch,resources/DP.BMP,resources/DG.BMP,Door4,0.351235231,-0.024167562,1,0,0,1.9861,optionRight,60,8525,4,27,0,27,0,1,,,,,,,,,,,,,,,,,,,,,,,,,,,,,,,,,,,,,,,
,,,,,,,,2023-08-16_08h48.11.460,HF_wild_card,2022.2.4,Win32,60.34638827,634688048500211f4412cff2,64d2fd46c836a06233681665,64dc7f120dfc8a90638a3d50,,,,,,,decisionTrl,resources/DY.BMP,resources/DP.BMP,WildCard_Ex,-0.288936627,-0.042427497,1,0,0,0.5829,optionLeft,55,8580,4,28,0,28,0,1,,,,,,,,,,,,,,,,,,,,,,,,,,,,,,,,,,,,,,,
,,,,,,,,2023-08-16_08h48.11.460,HF_wild_card,2022.2.4,Win32,60.34638827,634688048500211f4412cff2,64d2fd46c836a06233681665,64dc7f120dfc8a90638a3d50,,,,,,,sngl,resources/DBN.BMP,resources/Empty.png,Door2,-0.32867884,-0.015574651,1,0,0,0.4996,optionLeft,20,8600,4,29,0,29,0,1,,,,,,,,,,,,,,,,,,,,,,,,,,,,,,,,,,,,,,,
,,,,,,,,2023-08-16_08h48.11.460,HF_wild_card,2022.2.4,Win32,60.34638827,634688048500211f4412cff2,64d2fd46c836a06233681665,64dc7f120dfc8a90638a3d50,,,,,,,ctch,resources/DG.BMP,resources/DP.BMP,Door4,-0.237379162,-0.010204082,1,0,0,0.7168,optionLeft,60,8660,4,30,0,30,0,1,,,,,,,,,,,,,,,,,,,,,,,,,,,,,,,,,,,,,,,
,,,,,,,,2023-08-16_08h48.11.460,HF_wild_card,2022.2.4,Win32,60.34638827,634688048500211f4412cff2,64d2fd46c836a06233681665,64dc7f120dfc8a90638a3d50,,,,,,,decisionTrl,resources/DP.BMP,resources/DBN.BMP,Door1,-0.310418904,-0.013426423,1,0,0,1.0172,optionLeft,30,8690,4,31,0,31,0,1,,,,,,,,,,,,,,,,,,,,,,,,,,,,,,,,,,,,,,,
,,,,,,,,2023-08-16_08h48.11.460,HF_wild_card,2022.2.4,Win32,60.34638827,634688048500211f4412cff2,64d2fd46c836a06233681665,64dc7f120dfc8a90638a3d50,,,,,,,decisionTrl,resources/DP.BMP,resources/DBN.BMP,Door1,-0.346938776,-0.023093448,1,0,0,0.8506,optionLeft,30,8720,4,32,0,32,0,1,,,,,,,,,,,,,,,,,,,,,,,,,,,,,,,,,,,,,,,
,,,,,,,,2023-08-16_08h48.11.460,HF_wild_card,2022.2.4,Win32,60.34638827,634688048500211f4412cff2,64d2fd46c836a06233681665,64dc7f120dfc8a90638a3d50,,,,,,,ctch,resources/DBN.BMP,resources/DR.BMP,Door3,0.364124597,0.05424275,1,0,0,0.6332,optionRight,70,8790,4,33,0,33,0,1,,,,,,,,,,,,,,,,,,,,,,,,,,,,,,,,,,,,,,,
,,,,,,,,2023-08-16_08h48.11.460,HF_wild_card,2022.2.4,Win32,60.34638827,634688048500211f4412cff2,64d2fd46c836a06233681665,64dc7f120dfc8a90638a3d50,,,,,,,decisionTrl,resources/DG.BMP,resources/DR.BMP,Door3,0.325456498,-0.030612245,1,0,0,0.7668,optionRight,70,8860,4,34,0,34,0,1,,,,,,,,,,,,,,,,,,,,,,,,,,,,,,,,,,,,,,,
,,,,,,,,2023-08-16_08h48.11.460,HF_wild_card,2022.2.4,Win32,60.34638827,634688048500211f4412cff2,64d2fd46c836a06233681665,64dc7f120dfc8a90638a3d50,,,,,,,sngl,resources/Empty.png,resources/DG.BMP,Door4,0.288936627,0.003759398,1,0,0,0.5494,optionRight,80,8940,4,35,0,35,0,1,,,,,,,,,,,,,,,,,,,,,,,,,,,,,,,,,,,,,,,
,,,,,,,,2023-08-16_08h48.11.460,HF_wild_card,2022.2.4,Win32,60.34638827,634688048500211f4412cff2,64d2fd46c836a06233681665,64dc7f120dfc8a90638a3d50,,,,,,,decisionTrl,resources/DR.BMP,resources/DG.BMP,Door4,0.302900107,0.011278195,1,0,0,7.0619,optionRight,80,9020,4,36,0,36,0,1,,,,,,,,,,,,,,,,,,,,,,,,,,,,,,,,,,,,,,,
,,,,,,,,2023-08-16_08h48.11.460,HF_wild_card,2022.2.4,Win32,60.34638827,634688048500211f4412cff2,64d2fd46c836a06233681665,64dc7f120dfc8a90638a3d50,,,,,,,decisionTrl,resources/DG.BMP,resources/DY.BMP,Door4,-0.308270677,-0.056390977,1,0,0,0.7279,optionLeft,60,9080,4,37,0,37,0,1,,,,,,,,,,,,,,,,,,,,,,,,,,,,,,,,,,,,,,,
,,,,,,,,2023-08-16_08h48.11.460,HF_wild_card,2022.2.4,Win32,60.34638827,634688048500211f4412cff2,64d2fd46c836a06233681665,64dc7f120dfc8a90638a3d50,,,,,,,sngl,resources/DR.BMP,resources/Empty.png,Door3,-0.433941998,-0.027389903,1,0,0,0.5195,optionLeft,70,9150,4,38,0,38,0,1,,,,,,,,,,,,,,,,,,,,,,,,,,,,,,,,,,,,,,,
,,,,,,,,2023-08-16_08h48.11.460,HF_wild_card,2022.2.4,Win32,60.34638827,634688048500211f4412cff2,64d2fd46c836a06233681665,64dc7f120dfc8a90638a3d50,,,,,,,ctch,resources/DBN.BMP,resources/DR.BMP,Door3,0.360902256,-0.029538131,1,0,0,0.5533,optionRight,70,9220,4,39,0,39,0,1,,,,,,,,,,,,,,,,,,,,,,,,,,,,,,,,,,,,,,,
,,,,,,,,2023-08-16_08h48.11.460,HF_wild_card,2022.2.4,Win32,60.34638827,634688048500211f4412cff2,64d2fd46c836a06233681665,64dc7f120dfc8a90638a3d50,,,,,,,decisionTrl,resources/DP.BMP,resources/DBN.BMP,Door1,-0.435016112,-0.069280344,1,0,0,1.6476,optionLeft,30,9250,4,40,0,40,0,1,,,,,,,,,,,,,,,,,,,,,,,,,,,,,,,,,,,,,,,
,,,,,,,,2023-08-16_08h48.11.460,HF_wild_card,2022.2.4,Win32,60.34638827,634688048500211f4412cff2,64d2fd46c836a06233681665,64dc7f120dfc8a90638a3d50,,,,,,,ctch,resources/DR.BMP,resources/DBN.BMP,Door3,-0.153598281,0.009129968,1,0,0,0.7298,optionLeft,70,9320,4,41,0,41,0,1,,,,,,,,,,,,,,,,,,,,,,,,,,,,,,,,,,,,,,,
,,,,,,,,2023-08-16_08h48.11.460,HF_wild_card,2022.2.4,Win32,60.34638827,634688048500211f4412cff2,64d2fd46c836a06233681665,64dc7f120dfc8a90638a3d50,,,,,,,decisionTrl,resources/DR.BMP,resources/DG.BMP,Door4,0.334049409,-0.005907626,1,0,0,0.7505,optionRight,80,9400,4,42,0,42,0,1,,,,,,,,,,,,,,,,,,,,,,,,,,,,,,,,,,,,,,,
,,,,,,,,2023-08-16_08h48.11.460,HF_wild_card,2022.2.4,Win32,60.34638827,634688048500211f4412cff2,64d2fd46c836a06233681665,64dc7f120dfc8a90638a3d50,,,,,,,decisionTrl,resources/DG.BMP,resources/DR.BMP,Door4,-0.261009667,-0.059613319,1,0,0,0.6506,optionLeft,80,9480,4,43,0,43,0,1,,,,,,,,,,,,,,,,,,,,,,,,,,,,,,,,,,,,,,,
,,,,,,,,2023-08-16_08h48.11.460,HF_wild_card,2022.2.4,Win32,60.34638827,634688048500211f4412cff2,64d2fd46c836a06233681665,64dc7f120dfc8a90638a3d50,,,,,,,,,,,,,,,,,,,,,,,,,,3,0,3,0,1,,,,,,,,,,,,,,,,,,,,,,,,,,,,,,,,,,
,,,,,,,,2023-08-16_08h48.11.460,HF_wild_card,2022.2.4,Win32,60.34638827,634688048500211f4412cff2,64d2fd46c836a06233681665,64dc7f120dfc8a90638a3d50,,,,,,,decisionTrl,resources/DY.BMP,resources/DBN.BMP,WildCard_Ex,-0.196562836,-0.099355532,1,0,0,0.6488,optionLeft,45,9525,5,0,0,0,0,1,,,,,,,,,,,,,,,,,,,,,,,,,,,,,,,,,,,,,,,
,,,,,,,,2023-08-16_08h48.11.460,HF_wild_card,2022.2.4,Win32,60.34638827,634688048500211f4412cff2,64d2fd46c836a06233681665,64dc7f120dfc8a90638a3d50,,,,,,,sngl,resources/Empty.png,resources/DY.BMP,WildCard_Ex,0.54887218,-0.024167562,1,0,0,0.7646,optionRight,55,9580,5,1,0,1,0,1,,,,,,,,,,,,,,,,,,,,,,,,,,,,,,,,,,,,,,,
,,,,,,,,2023-08-16_08h48.11.460,HF_wild_card,2022.2.4,Win32,60.34638827,634688048500211f4412cff2,64d2fd46c836a06233681665,64dc7f120dfc8a90638a3d50,,,,,,,ctch,resources/DBN.BMP,resources/DR.BMP,Door3,0.413533835,-0.000537057,1,0,0,0.7167,optionRight,70,9650,5,2,0,2,0,1,,,,,,,,,,,,,,,,,,,,,,,,,,,,,,,,,,,,,,,
,,,,,,,,2023-08-16_08h48.11.460,HF_wild_card,2022.2.4,Win32,60.34638827,634688048500211f4412cff2,64d2fd46c836a06233681665,64dc7f120dfc8a90638a3d50,,,,,,,ctch,resources/DP.BMP,resources/DG.BMP,Door4,0.484425349,-0.044575725,1,0,0,1.5021,optionRight,60,9710,5,3,0,3,0,1,,,,,,,,,,,,,,,,,,,,,,,,,,,,,,,,,,,,,,,
,,,,,,,,2023-08-16_08h48.11.460,HF_wild_card,2022.2.4,Win32,60.34638827,634688048500211f4412cff2,64d2fd46c836a06233681665,64dc7f120dfc8a90638a3d50,,,,,,,sngl,resources/DBN.BMP,resources/Empty.png,Door2,-0.323308271,-0.051020408,1,0,0,0.4994,optionLeft,40,9750,5,4,0,4,0,1,,,,,,,,,,,,,,,,,,,,,,,,,,,,,,,,,,,,,,,
,,,,,,,,2023-08-16_08h48.11.460,HF_wild_card,2022.2.4,Win32,60.34638827,634688048500211f4412cff2,64d2fd46c836a06233681665,64dc7f120dfc8a90638a3d50,,,,,,,sngl,resources/DR.BMP,resources/Empty.png,Door3,-0.291084855,0.013426423,1,0,0,0.5025,optionLeft,70,9820,5,5,0,5,0,1,,,,,,,,,,,,,,,,,,,,,,,,,,,,,,,,,,,,,,,
,,,,,,,,2023-08-16_08h48.11.460,HF_wild_card,2022.2.4,Win32,60.34638827,634688048500211f4412cff2,64d2fd46c836a06233681665,64dc7f120dfc8a90638a3d50,,,,,,,decisionTrl,resources/DP.BMP,resources/DBN.BMP,Door1,-0.303974221,-0.019871106,1,0,0,1.3562,optionLeft,30,9850,5,6,0,6,0,1,,,,,,,,,,,,,,,,,,,,,,,,,,,,,,,,,,,,,,,
,,,,,,,,2023-08-16_08h48.11.460,HF_wild_card,2022.2.4,Win32,60.34638827,634688048500211f4412cff2,64d2fd46c836a06233681665,64dc7f120dfc8a90638a3d50,,,,,,,ctch,resources/DP.BMP,resources/DG.BMP,Door4,0.299677766,-0.02094522,1,0,0,0.749,optionRight,80,9930,5,7,0,7,0,1,,,,,,,,,,,,,,,,,,,,,,,,,,,,,,,,,,,,,,,
,,,,,,,,2023-08-16_08h48.11.460,HF_wild_card,2022.2.4,Win32,60.34638827,634688048500211f4412cff2,64d2fd46c836a06233681665,64dc7f120dfc8a90638a3d50,,,,,,,decisionTrl,resources/DR.BMP,resources/DG.BMP,Door4,0.299677766,-0.012352309,1,0,0,0.4643,optionRight,60,9990,5,8,0,8,0,1,,,,,,,,,,,,,,,,,,,,,,,,,,,,,,,,,,,,,,,
,,,,,,,,2023-08-16_08h48.11.460,HF_wild_card,2022.2.4,Win32,60.34638827,634688048500211f4412cff2,64d2fd46c836a06233681665,64dc7f120dfc8a90638a3d50,,,,,,,decisionTrl,resources/DG.BMP,resources/DR.BMP,Door4,-0.257787325,0.013426423,1,0,0,0.8504,optionLeft,80,10070,5,9,0,9,0,1,,,,,,,,,,,,,,,,,,,,,,,,,,,,,,,,,,,,,,,
,,,,,,,,2023-08-16_08h48.11.460,HF_wild_card,2022.2.4,Win32,60.34638827,634688048500211f4412cff2,64d2fd46c836a06233681665,64dc7f120dfc8a90638a3d50,,,,,,,decisionTrl,resources/DG.BMP,resources/DR.BMP,Door4,-0.28141783,-0.043501611,1,0,0,1.0533,optionLeft,60,10130,5,10,0,10,0,1,,,,,,,,,,,,,,,,,,,,,,,,,,,,,,,,,,,,,,,
,,,,,,,,2023-08-16_08h48.11.460,HF_wild_card,2022.2.4,Win32,60.34638827,634688048500211f4412cff2,64d2fd46c836a06233681665,64dc7f120dfc8a90638a3d50,,,,,,,sngl,resources/DY.BMP,resources/Empty.png,WildCard_Ex,-0.307196563,-0.005907626,1,0,0,0.4438,optionLeft,55,10185,5,11,0,11,0,1,,,,,,,,,,,,,,,,,,,,,,,,,,,,,,,,,,,,,,,
,,,,,,,,2023-08-16_08h48.11.460,HF_wild_card,2022.2.4,Win32,60.34638827,634688048500211f4412cff2,64d2fd46c836a06233681665,64dc7f120dfc8a90638a3d50,,,,,,,sngl,resources/Empty.png,resources/DY.BMP,WildCard_Ex,0.380236305,-0.025241676,1,0,0,0.429,optionRight,45,10230,5,12,0,12,0,1,,,,,,,,,,,,,,,,,,,,,,,,,,,,,,,,,,,,,,,
,,,,,,,,2023-08-16_08h48.11.460,HF_wild_card,2022.2.4,Win32,60.34638827,634688048500211f4412cff2,64d2fd46c836a06233681665,64dc7f120dfc8a90638a3d50,,,,,,,decisionTrl,resources/DP.BMP,resources/DBN.BMP,Door1,-0.468313641,0.009129968,1,0,0,0.4013,optionLeft,30,10260,5,13,0,13,0,1,,,,,,,,,,,,,,,,,,,,,,,,,,,,,,,,,,,,,,,
,,,,,,,,2023-08-16_08h48.11.460,HF_wild_card,2022.2.4,Win32,60.34638827,634688048500211f4412cff2,64d2fd46c836a06233681665,64dc7f120dfc8a90638a3d50,,,,,,,decisionTrl,resources/DY.BMP,resources/DR.BMP,Door3,0.277121375,0.032760473,1,0,0,0.4765,optionRight,70,10330,5,14,0,14,0,1,,,,,,,,,,,,,,,,,,,,,,,,,,,,,,,,,,,,,,,
,,,,,,,,2023-08-16_08h48.11.460,HF_wild_card,2022.2.4,Win32,60.34638827,634688048500211f4412cff2,64d2fd46c836a06233681665,64dc7f120dfc8a90638a3d50,,,,,,,ctch,resources/DR.BMP,resources/DBN.BMP,Door2,0.000925926,-0.027777778,1,0,0,2.3377,optionRight,20,10350,5,15,0,15,0,1,,,,,,,,,,,,,,,,,,,,,,,,,,,,,,,,,,,,,,,
,,,,,,,,2023-08-16_08h48.11.460,HF_wild_card,2022.2.4,Win32,60.34638827,634688048500211f4412cff2,64d2fd46c836a06233681665,64dc7f120dfc8a90638a3d50,,,,,,,decisionTrl,resources/DP.BMP,resources/DY.BMP,Door1,-0.385185185,-0.013888889,1,0,0,0.4828,optionLeft,30,10380,5,16,0,16,0,1,,,,,,,,,,,,,,,,,,,,,,,,,,,,,,,,,,,,,,,
,,,,,,,,2023-08-16_08h48.11.460,HF_wild_card,2022.2.4,Win32,60.34638827,634688048500211f4412cff2,64d2fd46c836a06233681665,64dc7f120dfc8a90638a3d50,,,,,,,decisionTrl,resources/DP.BMP,resources/DBN.BMP,Door1,-0.39537037,-0.018518519,1,0,0,0.9821,optionLeft,30,10410,5,17,0,17,0,1,,,,,,,,,,,,,,,,,,,,,,,,,,,,,,,,,,,,,,,
,,,,,,,,2023-08-16_08h48.11.460,HF_wild_card,2022.2.4,Win32,60.34638827,634688048500211f4412cff2,64d2fd46c836a06233681665,64dc7f120dfc8a90638a3d50,,,,,,,decisionTrl,resources/DR.BMP,resources/DG.BMP,Door4,0.310185185,-0.008333333,1,0,0,0.4646,optionRight,60,10470,5,18,0,18,0,1,,,,,,,,,,,,,,,,,,,,,,,,,,,,,,,,,,,,,,,
,,,,,,,,2023-08-16_08h48.11.460,HF_wild_card,2022.2.4,Win32,60.34638827,634688048500211f4412cff2,64d2fd46c836a06233681665,64dc7f120dfc8a90638a3d50,,,,,,,decisionTrl,resources/DR.BMP,resources/DG.BMP,Door3,-0.301851852,-0.010185185,1,0,0,0.4501,optionLeft,70,10540,5,19,0,19,0,1,,,,,,,,,,,,,,,,,,,,,,,,,,,,,,,,,,,,,,,
,,,,,,,,2023-08-16_08h48.11.460,HF_wild_card,2022.2.4,Win32,60.34638827,634688048500211f4412cff2,64d2fd46c836a06233681665,64dc7f120dfc8a90638a3d50,,,,,,,sngl,resources/DY.BMP,resources/Empty.png,WildCard_Ex,-0.341666667,0.012037037,1,0,0,0.4657,optionLeft,45,10585,5,20,0,20,0,1,,,,,,,,,,,,,,,,,,,,,,,,,,,,,,,,,,,,,,,
,,,,,,,,2023-08-16_08h48.11.460,HF_wild_card,2022.2.4,Win32,60.34638827,634688048500211f4412cff2,64d2fd46c836a06233681665,64dc7f120dfc8a90638a3d50,,,,,,,ctch,resources/DBN.BMP,resources/DR.BMP,Door3,0.327777778,-0.017592593,1,0,0,0.5477,optionRight,70,10655,5,21,0,21,0,1,,,,,,,,,,,,,,,,,,,,,,,,,,,,,,,,,,,,,,,
,,,,,,,,2023-08-16_08h48.11.460,HF_wild_card,2022.2.4,Win32,60.34638827,634688048500211f4412cff2,64d2fd46c836a06233681665,64dc7f120dfc8a90638a3d50,,,,,,,decisionTrl,resources/DBN.BMP,resources/DP.BMP,Door1,0.311111111,-0.033333333,1,0,0,0.4992,optionRight,30,10685,5,22,0,22,0,1,,,,,,,,,,,,,,,,,,,,,,,,,,,,,,,,,,,,,,,
,,,,,,,,2023-08-16_08h48.11.460,HF_wild_card,2022.2.4,Win32,60.34638827,634688048500211f4412cff2,64d2fd46c836a06233681665,64dc7f120dfc8a90638a3d50,,,,,,,decisionTrl,resources/DBN.BMP,resources/DP.BMP,Door2,-0.350925926,-0.008333333,1,0,0,0.4649,optionLeft,40,10725,5,23,0,23,0,1,,,,,,,,,,,,,,,,,,,,,,,,,,,,,,,,,,,,,,,
,,,,,,,,2023-08-16_08h48.11.460,HF_wild_card,2022.2.4,Win32,60.34638827,634688048500211f4412cff2,64d2fd46c836a06233681665,64dc7f120dfc8a90638a3d50,,,,,,,ctch,resources/DG.BMP,resources/DP.BMP,Door4,-0.271296296,-0.005555556,1,0,0,0.6502,optionLeft,60,10785,5,24,0,24,0,1,,,,,,,,,,,,,,,,,,,,,,,,,,,,,,,,,,,,,,,
,,,,,,,,2023-08-16_08h48.11.460,HF_wild_card,2022.2.4,Win32,60.34638827,634688048500211f4412cff2,64d2fd46c836a06233681665,64dc7f120dfc8a90638a3d50,,,,,,,decisionTrl,resources/DG.BMP,resources/DR.BMP,Door4,-0.356481481,-0.036111111,1,0,0,0.4666,optionLeft,80,10865,5,25,0,25,0,1,,,,,,,,,,,,,,,,,,,,,,,,,,,,,,,,,,,,,,,
,,,,,,,,2023-08-16_08h48.11.460,HF_wild_card,2022.2.4,Win32,60.34638827,634688048500211f4412cff2,64d2fd46c836a06233681665,64dc7f120dfc8a90638a3d50,,,,,,,decisionTrl,resources/DBN.BMP,resources/DP.BMP,Door2,-0.344444444,-0.030555556,1,0,0,0.4504,optionLeft,40,10905,5,26,0,26,0,1,,,,,,,,,,,,,,,,,,,,,,,,,,,,,,,,,,,,,,,
,,,,,,,,2023-08-16_08h48.11.460,HF_wild_card,2022.2.4,Win32,60.34638827,634688048500211f4412cff2,64d2fd46c836a06233681665,64dc7f120dfc8a90638a3d50,,,,,,,decisionTrl,resources/DY.BMP,resources/DP.BMP,WildCard_Ex,-0.476851852,-0.021296296,1,0,0,0.4326,optionLeft,45,10950,5,27,0,27,0,1,,,,,,,,,,,,,,,,,,,,,,,,,,,,,,,,,,,,,,,
,,,,,,,,2023-08-16_08h48.11.460,HF_wild_card,2022.2.4,Win32,60.34638827,634688048500211f4412cff2,64d2fd46c836a06233681665,64dc7f120dfc8a90638a3d50,,,,,,,decisionTrl,resources/DP.BMP,resources/DBN.BMP,Door1,-0.387037037,-0.00462963,1,0,0,0.416,optionLeft,30,10980,5,28,0,28,0,1,,,,,,,,,,,,,,,,,,,,,,,,,,,,,,,,,,,,,,,
,,,,,,,,2023-08-16_08h48.11.460,HF_wild_card,2022.2.4,Win32,60.34638827,634688048500211f4412cff2,64d2fd46c836a06233681665,64dc7f120dfc8a90638a3d50,,,,,,,ctch,resources/DG.BMP,resources/DP.BMP,Door4,-0.323148148,0.009259259,1,0,0,0.5322,optionLeft,80,11060,5,29,0,29,0,1,,,,,,,,,,,,,,,,,,,,,,,,,,,,,,,,,,,,,,,
,,,,,,,,2023-08-16_08h48.11.460,HF_wild_card,2022.2.4,Win32,60.34638827,634688048500211f4412cff2,64d2fd46c836a06233681665,64dc7f120dfc8a90638a3d50,,,,,,,ctch,resources/DR.BMP,resources/DBN.BMP,Door3,-0.391666667,-0.030555556,1,0,0,0.3975,optionLeft,70,11130,5,30,0,30,0,1,,,,,,,,,,,,,,,,,,,,,,,,,,,,,,,,,,,,,,,
,,,,,,,,2023-08-16_08h48.11.460,HF_wild_card,2022.2.4,Win32,60.34638827,634688048500211f4412cff2,64d2fd46c836a06233681665,64dc7f120dfc8a90638a3d50,,,,,,,decisionTrl,resources/DBN.BMP,resources/DY.BMP,WildCard_Ex,0.430555556,-0.017592593,1,0,0,0.5815,optionRight,55,11185,5,31,0,31,0,1,,,,,,,,,,,,,,,,,,,,,,,,,,,,,,,,,,,,,,,
,,,,,,,,2023-08-16_08h48.11.460,HF_wild_card,2022.2.4,Win32,60.34638827,634688048500211f4412cff2,64d2fd46c836a06233681665,64dc7f120dfc8a90638a3d50,,,,,,,decisionTrl,resources/DBN.BMP,resources/DP.BMP,Door2,-0.364814815,-0.002777778,1,0,0,1.4858,optionLeft,20,11205,5,32,0,32,0,1,,,,,,,,,,,,,,,,,,,,,,,,,,,,,,,,,,,,,,,
,,,,,,,,2023-08-16_08h48.11.460,HF_wild_card,2022.2.4,Win32,60.34638827,634688048500211f4412cff2,64d2fd46c836a06233681665,64dc7f120dfc8a90638a3d50,,,,,,,decisionTrl,resources/DG.BMP,resources/DY.BMP,Door4,-0.360185185,-0.008333333,1,0,0,0.7314,optionLeft,60,11265,5,33,0,33,0,1,,,,,,,,,,,,,,,,,,,,,,,,,,,,,,,,,,,,,,,
,,,,,,,,2023-08-16_08h48.11.460,HF_wild_card,2022.2.4,Win32,60.34638827,634688048500211f4412cff2,64d2fd46c836a06233681665,64dc7f120dfc8a90638a3d50,,,,,,,decisionTrl,resources/DY.BMP,resources/DG.BMP,WildCard_Ex,-0.328703704,0.007407407,1,0,0,0.5832,optionLeft,55,11320,5,34,0,34,0,1,,,,,,,,,,,,,,,,,,,,,,,,,,,,,,,,,,,,,,,
,,,,,,,,2023-08-16_08h48.11.460,HF_wild_card,2022.2.4,Win32,60.34638827,634688048500211f4412cff2,64d2fd46c836a06233681665,64dc7f120dfc8a90638a3d50,,,,,,,decisionTrl,resources/DR.BMP,resources/DY.BMP,WildCard_Ex,0.341666667,-0.008333333,1,0,0,0.5839,optionRight,45,11365,5,35,0,35,0,1,,,,,,,,,,,,,,,,,,,,,,,,,,,,,,,,,,,,,,,
,,,,,,,,2023-08-16_08h48.11.460,HF_wild_card,2022.2.4,Win32,60.34638827,634688048500211f4412cff2,64d2fd46c836a06233681665,64dc7f120dfc8a90638a3d50,,,,,,,decisionTrl,resources/DR.BMP,resources/DG.BMP,Door3,-0.315740741,0.013888889,1,0,0,0.6822,optionLeft,70,11435,5,36,0,36,0,1,,,,,,,,,,,,,,,,,,,,,,,,,,,,,,,,,,,,,,,
,,,,,,,,2023-08-16_08h48.11.460,HF_wild_card,2022.2.4,Win32,60.34638827,634688048500211f4412cff2,64d2fd46c836a06233681665,64dc7f120dfc8a90638a3d50,,,,,,,sngl,resources/DP.BMP,resources/Empty.png,Door1,-0.384259259,-0.012037037,1,0,0,0.4489,optionLeft,30,11465,5,37,0,37,0,1,,,,,,,,,,,,,,,,,,,,,,,,,,,,,,,,,,,,,,,
,,,,,,,,2023-08-16_08h48.11.460,HF_wild_card,2022.2.4,Win32,60.34638827,634688048500211f4412cff2,64d2fd46c836a06233681665,64dc7f120dfc8a90638a3d50,,,,,,,sngl,resources/Empty.png,resources/DP.BMP,Door1,0.338888889,-0.000925926,1,0,0,0.4466,optionRight,30,11495,5,38,0,38,0,1,,,,,,,,,,,,,,,,,,,,,,,,,,,,,,,,,,,,,,,
,,,,,,,,2023-08-16_08h48.11.460,HF_wild_card,2022.2.4,Win32,60.34638827,634688048500211f4412cff2,64d2fd46c836a06233681665,64dc7f120dfc8a90638a3d50,,,,,,,decisionTrl,resources/DG.BMP,resources/DR.BMP,Door4,-0.349074074,-0.024074074,1,0,0,0.4498,optionLeft,80,11575,5,39,0,39,0,1,,,,,,,,,,,,,,,,,,,,,,,,,,,,,,,,,,,,,,,
,,,,,,,,2023-08-16_08h48.11.460,HF_wild_card,2022.2.4,Win32,60.34638827,634688048500211f4412cff2,64d2fd46c836a06233681665,64dc7f120dfc8a90638a3d50,,,,,,,sngl,resources/Empty.png,resources/DBN.BMP,Door2,0.357407407,-0.037037037,1,0,0,0.5161,optionRight,20,11595,5,40,0,40,0,1,,,,,,,,,,,,,,,,,,,,,,,,,,,,,,,,,,,,,,,
,,,,,,,,2023-08-16_08h48.11.460,HF_wild_card,2022.2.4,Win32,60.34638827,634688048500211f4412cff2,64d2fd46c836a06233681665,64dc7f120dfc8a90638a3d50,,,,,,,sngl,resources/Empty.png,resources/DR.BMP,Door3,0.323148148,-0.023148148,1,0,0,0.4837,optionRight,70,11665,5,41,0,41,0,1,,,,,,,,,,,,,,,,,,,,,,,,,,,,,,,,,,,,,,,
,,,,,,,,2023-08-16_08h48.11.460,HF_wild_card,2022.2.4,Win32,60.34638827,634688048500211f4412cff2,64d2fd46c836a06233681665,64dc7f120dfc8a90638a3d50,,,,,,,sngl,resources/Empty.png,resources/DG.BMP,Door4,0.302777778,-0.00462963,1,0,0,0.4816,optionRight,60,11725,5,42,0,42,0,1,,,,,,,,,,,,,,,,,,,,,,,,,,,,,,,,,,,,,,,
,,,,,,,,2023-08-16_08h48.11.460,HF_wild_card,2022.2.4,Win32,60.34638827,634688048500211f4412cff2,64d2fd46c836a06233681665,64dc7f120dfc8a90638a3d50,,,,,,,sngl,resources/DG.BMP,resources/Empty.png,Door4,-0.357407407,-0.010185185,1,0,0,0.4335,optionLeft,80,11805,5,43,0,43,0,1,,,,,,,,,,,,,,,,,,,,,,,,,,,,,,,,,,,,,,,
,,,,,,,,2023-08-16_08h48.11.460,HF_wild_card,2022.2.4,Win32,60.34638827,634688048500211f4412cff2,64d2fd46c836a06233681665,64dc7f120dfc8a90638a3d50,,,,,,,,,,,,,,,,,,,,,,,,,,4,0,4,0,1,,,,,,,,,,,,,,,,,,,,,,,,,,,,,,,,,,
,,,,,,,,2023-08-16_08h48.11.460,HF_wild_card,2022.2.4,Win32,60.34638827,634688048500211f4412cff2,64d2fd46c836a06233681665,64dc7f120dfc8a90638a3d50,,,,,,,decisionTrl,resources/DG.BMP,resources/DR.BMP,Door4,-0.208333333,-0.07037037,1,0,0,0.7481,optionLeft,60,11865,6,0,0,0,0,1,,,,,,,,,,,,,,,,,,,,,,,,,,,,,,,,,,,,,,,
,,,,,,,,2023-08-16_08h48.11.460,HF_wild_card,2022.2.4,Win32,60.34638827,634688048500211f4412cff2,64d2fd46c836a06233681665,64dc7f120dfc8a90638a3d50,,,,,,,decisionTrl,resources/DY.BMP,resources/DR.BMP,WildCard_Ex,-0.360185185,-0.032407407,1,0,0,0.5328,optionLeft,45,11910,6,1,0,1,0,1,,,,,,,,,,,,,,,,,,,,,,,,,,,,,,,,,,,,,,,
,,,,,,,,2023-08-16_08h48.11.460,HF_wild_card,2022.2.4,Win32,60.34638827,634688048500211f4412cff2,64d2fd46c836a06233681665,64dc7f120dfc8a90638a3d50,,,,,,,decisionTrl,resources/DP.BMP,resources/DBN.BMP,Door1,-0.506481481,-0.074074074,1,0,0,0.4162,optionLeft,30,11940,6,2,0,2,0,1,,,,,,,,,,,,,,,,,,,,,,,,,,,,,,,,,,,,,,,
,,,,,,,,2023-08-16_08h48.11.460,HF_wild_card,2022.2.4,Win32,60.34638827,634688048500211f4412cff2,64d2fd46c836a06233681665,64dc7f120dfc8a90638a3d50,,,,,,,decisionTrl,resources/DR.BMP,resources/DY.BMP,Door3,-0.371296296,-0.039814815,1,0,0,0.4325,optionLeft,70,12010,6,3,0,3,0,1,,,,,,,,,,,,,,,,,,,,,,,,,,,,,,,,,,,,,,,
,,,,,,,,2023-08-16_08h48.11.460,HF_wild_card,2022.2.4,Win32,60.34638827,634688048500211f4412cff2,64d2fd46c836a06233681665,64dc7f120dfc8a90638a3d50,,,,,,,ctch,resources/DG.BMP,resources/DP.BMP,Door4,-0.369444444,-0.069444444,1,0,0,0.5505,optionLeft,80,12090,6,4,0,4,0,1,,,,,,,,,,,,,,,,,,,,,,,,,,,,,,,,,,,,,,,
,,,,,,,,2023-08-16_08h48.11.460,HF_wild_card,2022.2.4,Win32,60.34638827,634688048500211f4412cff2,64d2fd46c836a06233681665,64dc7f120dfc8a90638a3d50,,,,,,,decisionTrl,resources/DG.BMP,resources/DY.BMP,Door4,-0.343518519,-0.040740741,1,0,0,0.4909,optionLeft,80,12170,6,5,0,5,0,1,,,,,,,,,,,,,,,,,,,,,,,,,,,,,,,,,,,,,,,
,,,,,,,,2023-08-16_08h48.11.460,HF_wild_card,2022.2.4,Win32,60.34638827,634688048500211f4412cff2,64d2fd46c836a06233681665,64dc7f120dfc8a90638a3d50,,,,,,,decisionTrl,resources/DY.BMP,resources/DP.BMP,WildCard_Ex,-0.205555556,-0.07962963,1,0,0,0.5169,optionLeft,55,12225,6,6,0,6,0,1,,,,,,,,,,,,,,,,,,,,,,,,,,,,,,,,,,,,,,,
,,,,,,,,2023-08-16_08h48.11.460,HF_wild_card,2022.2.4,Win32,60.34638827,634688048500211f4412cff2,64d2fd46c836a06233681665,64dc7f120dfc8a90638a3d50,,,,,,,decisionTrl,resources/DG.BMP,resources/DR.BMP,Door4,-0.321296296,-0.041666667,1,0,0,0.3827,optionLeft,80,12305,6,7,0,7,0,1,,,,,,,,,,,,,,,,,,,,,,,,,,,,,,,,,,,,,,,
,,,,,,,,2023-08-16_08h48.11.460,HF_wild_card,2022.2.4,Win32,60.34638827,634688048500211f4412cff2,64d2fd46c836a06233681665,64dc7f120dfc8a90638a3d50,,,,,,,sngl,resources/Empty.png,resources/DBN.BMP,Door2,0.236111111,0.013888889,1,0,0,0.6655,optionRight,40,12345,6,8,0,8,0,1,,,,,,,,,,,,,,,,,,,,,,,,,,,,,,,,,,,,,,,
,,,,,,,,2023-08-16_08h48.11.460,HF_wild_card,2022.2.4,Win32,60.34638827,634688048500211f4412cff2,64d2fd46c836a06233681665,64dc7f120dfc8a90638a3d50,,,,,,,ctch,resources/DR.BMP,resources/DBN.BMP,Door3,-0.312962963,-0.011111111,1,0,0,0.4145,optionLeft,70,12415,6,9,0,9,0,1,,,,,,,,,,,,,,,,,,,,,,,,,,,,,,,,,,,,,,,
,,,,,,,,2023-08-16_08h48.11.460,HF_wild_card,2022.2.4,Win32,60.34638827,634688048500211f4412cff2,64d2fd46c836a06233681665,64dc7f120dfc8a90638a3d50,,,,,,,decisionTrl,resources/DP.BMP,resources/DY.BMP,WildCard_Ex,0.276851852,-0.009259259,1,0,0,0.6172,optionRight,45,12460,6,10,0,10,0,1,,,,,,,,,,,,,,,,,,,,,,,,,,,,,,,,,,,,,,,
,,,,,,,,2023-08-16_08h48.11.460,HF_wild_card,2022.2.4,Win32,60.34638827,634688048500211f4412cff2,64d2fd46c836a06233681665,64dc7f120dfc8a90638a3d50,,,,,,,decisionTrl,resources/DR.BMP,resources/DG.BMP,Door3,-0.205555556,-0.021296296,1,0,0,0.4494,optionLeft,70,12530,6,11,0,11,0,1,,,,,,,,,,,,,,,,,,,,,,,,,,,,,,,,,,,,,,,
,,,,,,,,2023-08-16_08h48.11.460,HF_wild_card,2022.2.4,Win32,60.34638827,634688048500211f4412cff2,64d2fd46c836a06233681665,64dc7f120dfc8a90638a3d50,,,,,,,sngl,resources/Empty.png,resources/DY.BMP,WildCard_Ex,0.297222222,-0.036111111,1,0,0,0.5163,optionRight,55,12585,6,12,0,12,0,1,,,,,,,,,,,,,,,,,,,,,,,,,,,,,,,,,,,,,,,
,,,,,,,,2023-08-16_08h48.11.460,HF_wild_card,2022.2.4,Win32,60.34638827,634688048500211f4412cff2,64d2fd46c836a06233681665,64dc7f120dfc8a90638a3d50,,,,,,,decisionTrl,resources/DBN.BMP,resources/DY.BMP,WildCard_Ex,0.289814815,-0.011111111,1,0,0,0.5501,optionRight,45,12630,6,13,0,13,0,1,,,,,,,,,,,,,,,,,,,,,,,,,,,,,,,,,,,,,,,
,,,,,,,,2023-08-16_08h48.11.460,HF_wild_card,2022.2.4,Win32,60.34638827,634688048500211f4412cff2,64d2fd46c836a06233681665,64dc7f120dfc8a90638a3d50,,,,,,,decisionTrl,resources/DG.BMP,resources/DR.BMP,Door4,-0.439814815,0.023148148,1,0,0,0.4499,optionLeft,80,12710,6,14,0,14,0,1,,,,,,,,,,,,,,,,,,,,,,,,,,,,,,,,,,,,,,,
,,,,,,,,2023-08-16_08h48.11.460,HF_wild_card,2022.2.4,Win32,60.34638827,634688048500211f4412cff2,64d2fd46c836a06233681665,64dc7f120dfc8a90638a3d50,,,,,,,sngl,resources/DP.BMP,resources/Empty.png,Door1,-0.401851852,-0.055555556,1,0,0,0.5162,optionLeft,30,12740,6,15,0,15,0,1,,,,,,,,,,,,,,,,,,,,,,,,,,,,,,,,,,,,,,,
,,,,,,,,2023-08-16_08h48.11.460,HF_wild_card,2022.2.4,Win32,60.34638827,634688048500211f4412cff2,64d2fd46c836a06233681665,64dc7f120dfc8a90638a3d50,,,,,,,decisionTrl,resources/DR.BMP,resources/DG.BMP,Door4,0.331481481,-0.048148148,1,0,0,0.4998,optionRight,60,12800,6,16,0,16,0,1,,,,,,,,,,,,,,,,,,,,,,,,,,,,,,,,,,,,,,,
,,,,,,,,2023-08-16_08h48.11.460,HF_wild_card,2022.2.4,Win32,60.34638827,634688048500211f4412cff2,64d2fd46c836a06233681665,64dc7f120dfc8a90638a3d50,,,,,,,sngl,resources/Empty.png,resources/DG.BMP,Door4,0.334259259,-0.049074074,1,0,0,0.5166,optionRight,80,12880,6,17,0,17,0,1,,,,,,,,,,,,,,,,,,,,,,,,,,,,,,,,,,,,,,,
,,,,,,,,2023-08-16_08h48.11.460,HF_wild_card,2022.2.4,Win32,60.34638827,634688048500211f4412cff2,64d2fd46c836a06233681665,64dc7f120dfc8a90638a3d50,,,,,,,decisionTrl,resources/DP.BMP,resources/DBN.BMP,Door1,-0.387962963,-0.016666667,1,0,0,0.4161,optionLeft,30,12910,6,18,0,18,0,1,,,,,,,,,,,,,,,,,,,,,,,,,,,,,,,,,,,,,,,
,,,,,,,,2023-08-16_08h48.11.460,HF_wild_card,2022.2.4,Win32,60.34638827,634688048500211f4412cff2,64d2fd46c836a06233681665,64dc7f120dfc8a90638a3d50,,,,,,,decisionTrl,resources/DBN.BMP,resources/DP.BMP,Door1,0.265740741,0.008333333,1,0,0,0.2993,optionRight,30,12940,6,19,0,19,0,1,,,,,,,,,,,,,,,,,,,,,,,,,,,,,,,,,,,,,,,
,,,,,,,,2023-08-16_08h48.11.460,HF_wild_card,2022.2.4,Win32,60.34638827,634688048500211f4412cff2,64d2fd46c836a06233681665,64dc7f120dfc8a90638a3d50,,,,,,,ctch,resources/DBN.BMP,resources/DR.BMP,Door2,-0.243518519,-0.019444444,1,0,0,0.433,optionLeft,40,12980,6,20,0,20,0,1,,,,,,,,,,,,,,,,,,,,,,,,,,,,,,,,,,,,,,,
,,,,,,,,2023-08-16_08h48.11.460,HF_wild_card,2022.2.4,Win32,60.34638827,634688048500211f4412cff2,64d2fd46c836a06233681665,64dc7f120dfc8a90638a3d50,,,,,,,decisionTrl,resources/DBN.BMP,resources/DP.BMP,Door2,-0.342592593,-0.032407407,1,0,0,0.4154,optionLeft,20,13000,6,21,0,21,0,1,,,,,,,,,,,,,,,,,,,,,,,,,,,,,,,,,,,,,,,
,,,,,,,,2023-08-16_08h48.11.460,HF_wild_card,2022.2.4,Win32,60.34638827,634688048500211f4412cff2,64d2fd46c836a06233681665,64dc7f120dfc8a90638a3d50,,,,,,,decisionTrl,resources/DP.BMP,resources/DBN.BMP,Door2,0.288888889,0.001851852,1,0,0,0.3644,optionRight,40,13040,6,22,0,22,0,1,,,,,,,,,,,,,,,,,,,,,,,,,,,,,,,,,,,,,,,
,,,,,,,,2023-08-16_08h48.11.460,HF_wild_card,2022.2.4,Win32,60.34638827,634688048500211f4412cff2,64d2fd46c836a06233681665,64dc7f120dfc8a90638a3d50,,,,,,,sngl,resources/DY.BMP,resources/Empty.png,WildCard_Ex,-0.359259259,-0.016666667,1,0,0,0.3988,optionLeft,55,13095,6,23,0,23,0,1,,,,,,,,,,,,,,,,,,,,,,,,,,,,,,,,,,,,,,,
,,,,,,,,2023-08-16_08h48.11.460,HF_wild_card,2022.2.4,Win32,60.34638827,634688048500211f4412cff2,64d2fd46c836a06233681665,64dc7f120dfc8a90638a3d50,,,,,,,sngl,resources/DG.BMP,resources/Empty.png,Door4,-0.271296296,-0.008333333,1,0,0,0.5494,optionLeft,60,13155,6,24,0,24,0,1,,,,,,,,,,,,,,,,,,,,,,,,,,,,,,,,,,,,,,,
,,,,,,,,2023-08-16_08h48.11.460,HF_wild_card,2022.2.4,Win32,60.34638827,634688048500211f4412cff2,64d2fd46c836a06233681665,64dc7f120dfc8a90638a3d50,,,,,,,ctch,resources/DR.BMP,resources/DBN.BMP,Door3,-0.37037037,-0.030555556,1,0,0,0.4326,optionLeft,70,13225,6,25,0,25,0,1,,,,,,,,,,,,,,,,,,,,,,,,,,,,,,,,,,,,,,,
,,,,,,,,2023-08-16_08h48.11.460,HF_wild_card,2022.2.4,Win32,60.34638827,634688048500211f4412cff2,64d2fd46c836a06233681665,64dc7f120dfc8a90638a3d50,,,,,,,ctch,resources/DP.BMP,resources/DG.BMP,Door1,-0.393518519,-0.034259259,1,0,0,0.3327,optionLeft,30,13255,6,26,0,26,0,1,,,,,,,,,,,,,,,,,,,,,,,,,,,,,,,,,,,,,,,
,,,,,,,,2023-08-16_08h48.11.460,HF_wild_card,2022.2.4,Win32,60.34638827,634688048500211f4412cff2,64d2fd46c836a06233681665,64dc7f120dfc8a90638a3d50,,,,,,,sngl,resources/DBN.BMP,resources/Empty.png,Door2,-0.411111111,-0.034259259,1,0,0,0.7173,optionLeft,20,13275,6,27,0,27,0,1,,,,,,,,,,,,,,,,,,,,,,,,,,,,,,,,,,,,,,,
,,,,,,,,2023-08-16_08h48.11.460,HF_wild_card,2022.2.4,Win32,60.34638827,634688048500211f4412cff2,64d2fd46c836a06233681665,64dc7f120dfc8a90638a3d50,,,,,,,decisionTrl,resources/DP.BMP,resources/DBN.BMP,Door1,-0.216666667,-0.022222222,1,0,0,0.6302,optionLeft,30,13305,6,28,0,28,0,1,,,,,,,,,,,,,,,,,,,,,,,,,,,,,,,,,,,,,,,
,,,,,,,,2023-08-16_08h48.11.460,HF_wild_card,2022.2.4,Win32,60.34638827,634688048500211f4412cff2,64d2fd46c836a06233681665,64dc7f120dfc8a90638a3d50,,,,,,,ctch,resources/DBN.BMP,resources/DR.BMP,Door2,-0.273148148,-0.019444444,1,0,0,0.4155,optionLeft,20,13325,6,29,0,29,0,1,,,,,,,,,,,,,,,,,,,,,,,,,,,,,,,,,,,,,,,
,,,,,,,,2023-08-16_08h48.11.460,HF_wild_card,2022.2.4,Win32,60.34638827,634688048500211f4412cff2,64d2fd46c836a06233681665,64dc7f120dfc8a90638a3d50,,,,,,,decisionTrl,resources/DY.BMP,resources/DBN.BMP,WildCard_Ex,-0.442592593,0.005555556,1,0,0,0.4661,optionLeft,45,13370,6,30,0,30,0,1,,,,,,,,,,,,,,,,,,,,,,,,,,,,,,,,,,,,,,,
,,,,,,,,2023-08-16_08h48.11.460,HF_wild_card,2022.2.4,Win32,60.34638827,634688048500211f4412cff2,64d2fd46c836a06233681665,64dc7f120dfc8a90638a3d50,,,,,,,decisionTrl,resources/DR.BMP,resources/DG.BMP,Door4,0.39537037,0,1,0,0,0.4833,optionRight,60,13430,6,31,0,31,0,1,,,,,,,,,,,,,,,,,,,,,,,,,,,,,,,,,,,,,,,
,,,,,,,,2023-08-16_08h48.11.460,HF_wild_card,2022.2.4,Win32,60.34638827,634688048500211f4412cff2,64d2fd46c836a06233681665,64dc7f120dfc8a90638a3d50,,,,,,,ctch,resources/DP.BMP,resources/DG.BMP,Door4,0.335185185,0.000925926,1,0,0,1.168,optionRight,60,13490,6,32,0,32,0,1,,,,,,,,,,,,,,,,,,,,,,,,,,,,,,,,,,,,,,,
,,,,,,,,2023-08-16_08h48.11.460,HF_wild_card,2022.2.4,Win32,60.34638827,634688048500211f4412cff2,64d2fd46c836a06233681665,64dc7f120dfc8a90638a3d50,,,,,,,ctch,resources/DG.BMP,resources/DP.BMP,Door4,-0.386111111,-0.046296296,1,0,0,0.6653,optionLeft,80,13570,6,33,0,33,0,1,,,,,,,,,,,,,,,,,,,,,,,,,,,,,,,,,,,,,,,
,,,,,,,,2023-08-16_08h48.11.460,HF_wild_card,2022.2.4,Win32,60.34638827,634688048500211f4412cff2,64d2fd46c836a06233681665,64dc7f120dfc8a90638a3d50,,,,,,,sngl,resources/Empty.png,resources/DP.BMP,Door1,0.42962963,-0.011111111,1,0,0,0.9346,optionRight,30,13600,6,34,0,34,0,1,,,,,,,,,,,,,,,,,,,,,,,,,,,,,,,,,,,,,,,
,,,,,,,,2023-08-16_08h48.11.460,HF_wild_card,2022.2.4,Win32,60.34638827,634688048500211f4412cff2,64d2fd46c836a06233681665,64dc7f120dfc8a90638a3d50,,,,,,,decisionTrl,resources/DBN.BMP,resources/DP.BMP,Door1,0.224074074,-0.039814815,1,0,0,0.6761,optionRight,30,13630,6,35,0,35,0,1,,,,,,,,,,,,,,,,,,,,,,,,,,,,,,,,,,,,,,,
,,,,,,,,2023-08-16_08h48.11.460,HF_wild_card,2022.2.4,Win32,60.34638827,634688048500211f4412cff2,64d2fd46c836a06233681665,64dc7f120dfc8a90638a3d50,,,,,,,sngl,resources/DR.BMP,resources/Empty.png,Door3,-0.332407407,-0.002777778,1,0,0,0.4332,optionLeft,70,13700,6,36,0,36,0,1,,,,,,,,,,,,,,,,,,,,,,,,,,,,,,,,,,,,,,,
,,,,,,,,2023-08-16_08h48.11.460,HF_wild_card,2022.2.4,Win32,60.34638827,634688048500211f4412cff2,64d2fd46c836a06233681665,64dc7f120dfc8a90638a3d50,,,,,,,sngl,resources/Empty.png,resources/DR.BMP,Door3,0.268518519,-0.001851852,1,0,0,0.4153,optionRight,70,13770,6,37,0,37,0,1,,,,,,,,,,,,,,,,,,,,,,,,,,,,,,,,,,,,,,,
,,,,,,,,2023-08-16_08h48.11.460,HF_wild_card,2022.2.4,Win32,60.34638827,634688048500211f4412cff2,64d2fd46c836a06233681665,64dc7f120dfc8a90638a3d50,,,,,,,decisionTrl,resources/DG.BMP,resources/DR.BMP,Door3,0.344444444,0.00462963,1,0,0,0.3643,optionRight,70,13840,6,38,0,38,0,1,,,,,,,,,,,,,,,,,,,,,,,,,,,,,,,,,,,,,,,
,,,,,,,,2023-08-16_08h48.11.460,HF_wild_card,2022.2.4,Win32,60.34638827,634688048500211f4412cff2,64d2fd46c836a06233681665,64dc7f120dfc8a90638a3d50,,,,,,,sngl,resources/DY.BMP,resources/Empty.png,WildCard_Ex,-0.233333333,-0.009259259,1,0,0,0.3991,optionLeft,45,13885,6,39,0,39,0,1,,,,,,,,,,,,,,,,,,,,,,,,,,,,,,,,,,,,,,,
,,,,,,,,2023-08-16_08h48.11.460,HF_wild_card,2022.2.4,Win32,60.34638827,634688048500211f4412cff2,64d2fd46c836a06233681665,64dc7f120dfc8a90638a3d50,,,,,,,sngl,resources/Empty.png,resources/DY.BMP,WildCard_Ex,0.340740741,-0.02037037,1,0,0,0.4485,optionRight,45,13930,6,40,0,40,0,1,,,,,,,,,,,,,,,,,,,,,,,,,,,,,,,,,,,,,,,
,,,,,,,,2023-08-16_08h48.11.460,HF_wild_card,2022.2.4,Win32,60.34638827,634688048500211f4412cff2,64d2fd46c836a06233681665,64dc7f120dfc8a90638a3d50,,,,,,,decisionTrl,resources/DBN.BMP,resources/DP.BMP,Door1,0.425925926,0.019444444,1,0,0,0.7004,optionRight,30,13960,6,41,0,41,0,1,,,,,,,,,,,,,,,,,,,,,,,,,,,,,,,,,,,,,,,
,,,,,,,,2023-08-16_08h48.11.460,HF_wild_card,2022.2.4,Win32,60.34638827,634688048500211f4412cff2,64d2fd46c836a06233681665,64dc7f120dfc8a90638a3d50,,,,,,,decisionTrl,resources/DR.BMP,resources/DG.BMP,Door3,-0.387037037,-0.005555556,1,0,0,0.3975,optionLeft,70,14030,6,42,0,42,0,1,,,,,,,,,,,,,,,,,,,,,,,,,,,,,,,,,,,,,,,
,,,,,,,,2023-08-16_08h48.11.460,HF_wild_card,2022.2.4,Win32,60.34638827,634688048500211f4412cff2,64d2fd46c836a06233681665,64dc7f120dfc8a90638a3d50,,,,,,,decisionTrl,resources/DY.BMP,resources/DG.BMP,WildCard_Ex,-0.399074074,-0.037037037,1,0,0,0.4328,optionLeft,45,14075,6,43,0,43,0,1,,,,,,,,,,,,,,,,,,,,,,,,,,,,,,,,,,,,,,,
,,,,,,,,2023-08-16_08h48.11.460,HF_wild_card,2022.2.4,Win32,60.34638827,634688048500211f4412cff2,64d2fd46c836a06233681665,64dc7f120dfc8a90638a3d50,,,,,,,,,,,,,,,,,,,,,,,,,,5,0,5,0,1,,,,,,,,,,,,,,,,,,,,,,,,,,,,,,,,,,
,,,,,,,,2023-08-16_08h48.11.460,HF_wild_card,2022.2.4,Win32,60.34638827,634688048500211f4412cff2,64d2fd46c836a06233681665,64dc7f120dfc8a90638a3d50,,,,,,,decisionTrl,resources/DP.BMP,resources/DBN.BMP,Door1,-0.425925926,-0.117592593,1,0,0,0.7791,optionLeft,30,14105,7,0,0,0,0,1,,,,,,,,,,,,,,,,,,,,,,,,,,,,,,,,,,,,,,,
,,,,,,,,2023-08-16_08h48.11.460,HF_wild_card,2022.2.4,Win32,60.34638827,634688048500211f4412cff2,64d2fd46c836a06233681665,64dc7f120dfc8a90638a3d50,,,,,,,decisionTrl,resources/DBN.BMP,resources/DP.BMP,Door1,0.330555556,-0.017592593,1,0,0,0.9408,optionRight,30,14135,7,1,0,1,0,1,,,,,,,,,,,,,,,,,,,,,,,,,,,,,,,,,,,,,,,
,,,,,,,,2023-08-16_08h48.11.460,HF_wild_card,2022.2.4,Win32,60.34638827,634688048500211f4412cff2,64d2fd46c836a06233681665,64dc7f120dfc8a90638a3d50,,,,,,,ctch,resources/DR.BMP,resources/DBN.BMP,Door3,-0.243518519,-0.050925926,1,0,0,0.5064,optionLeft,70,14205,7,2,0,2,0,1,,,,,,,,,,,,,,,,,,,,,,,,,,,,,,,,,,,,,,,
,,,,,,,,2023-08-16_08h48.11.460,HF_wild_card,2022.2.4,Win32,60.34638827,634688048500211f4412cff2,64d2fd46c836a06233681665,64dc7f120dfc8a90638a3d50,,,,,,,decisionTrl,resources/DBN.BMP,resources/DP.BMP,Door1,0.392592593,-0.025925926,1,0,0,0.6927,optionRight,30,14235,7,3,0,3,0,1,,,,,,,,,,,,,,,,,,,,,,,,,,,,,,,,,,,,,,,
,,,,,,,,2023-08-16_08h48.11.460,HF_wild_card,2022.2.4,Win32,60.34638827,634688048500211f4412cff2,64d2fd46c836a06233681665,64dc7f120dfc8a90638a3d50,,,,,,,decisionTrl,resources/DP.BMP,resources/DBN.BMP,Door1,-0.225,-0.042592593,1,0,0,0.6093,optionLeft,30,14265,7,4,0,4,0,1,,,,,,,,,,,,,,,,,,,,,,,,,,,,,,,,,,,,,,,
,,,,,,,,2023-08-16_08h48.11.460,HF_wild_card,2022.2.4,Win32,60.34638827,634688048500211f4412cff2,64d2fd46c836a06233681665,64dc7f120dfc8a90638a3d50,,,,,,,ctch,resources/DR.BMP,resources/DBN.BMP,Door3,-0.293518519,-0.050925926,1,0,0,0.7003,optionLeft,70,14335,7,5,0,5,0,1,,,,,,,,,,,,,,,,,,,,,,,,,,,,,,,,,,,,,,,
,,,,,,,,2023-08-16_08h48.11.460,HF_wild_card,2022.2.4,Win32,60.34638827,634688048500211f4412cff2,64d2fd46c836a06233681665,64dc7f120dfc8a90638a3d50,,,,,,,decisionTrl,resources/DG.BMP,resources/DR.BMP,Door4,-0.228703704,-0.012037037,1,0,0,0.7194,optionLeft,60,14395,7,6,0,6,0,1,,,,,,,,,,,,,,,,,,,,,,,,,,,,,,,,,,,,,,,
,,,,,,,,2023-08-16_08h48.11.460,HF_wild_card,2022.2.4,Win32,60.34638827,634688048500211f4412cff2,64d2fd46c836a06233681665,64dc7f120dfc8a90638a3d50,,,,,,,ctch,resources/DBN.BMP,resources/DR.BMP,Door3,0.313888889,-0.039814815,1,0,0,0.6864,optionRight,70,14465,7,7,0,7,0,1,,,,,,,,,,,,,,,,,,,,,,,,,,,,,,,,,,,,,,,
,,,,,,,,2023-08-16_08h48.11.460,HF_wild_card,2022.2.4,Win32,60.34638827,634688048500211f4412cff2,64d2fd46c836a06233681665,64dc7f120dfc8a90638a3d50,,,,,,,decisionTrl,resources/DG.BMP,resources/DR.BMP,Door4,-0.236111111,-0.057407407,1,0,0,0.7326,optionLeft,80,14545,7,8,0,8,0,1,,,,,,,,,,,,,,,,,,,,,,,,,,,,,,,,,,,,,,,
,,,,,,,,2023-08-16_08h48.11.460,HF_wild_card,2022.2.4,Win32,60.34638827,634688048500211f4412cff2,64d2fd46c836a06233681665,64dc7f120dfc8a90638a3d50,,,,,,,decisionTrl,resources/DR.BMP,resources/DG.BMP,Door3,-0.341666667,-0.075,1,0,0,0.7163,optionLeft,70,14615,7,9,0,9,0,1,,,,,,,,,,,,,,,,,,,,,,,,,,,,,,,,,,,,,,,
,,,,,,,,2023-08-16_08h48.11.460,HF_wild_card,2022.2.4,Win32,60.34638827,634688048500211f4412cff2,64d2fd46c836a06233681665,64dc7f120dfc8a90638a3d50,,,,,,,decisionTrl,resources/DR.BMP,resources/DG.BMP,Door3,-0.306481481,-0.048148148,1,0,0,1.0082,optionLeft,70,14685,7,10,0,10,0,1,,,,,,,,,,,,,,,,,,,,,,,,,,,,,,,,,,,,,,,
,,,,,,,,2023-08-16_08h48.11.460,HF_wild_card,2022.2.4,Win32,60.34638827,634688048500211f4412cff2,64d2fd46c836a06233681665,64dc7f120dfc8a90638a3d50,,,,,,,decisionTrl,resources/DBN.BMP,resources/DP.BMP,Door1,0.333333333,-0.006481481,1,0,0,0.724,optionRight,30,14715,7,11,0,11,0,1,,,,,,,,,,,,,,,,,,,,,,,,,,,,,,,,,,,,,,,
,,,,,,,,2023-08-16_08h48.11.460,HF_wild_card,2022.2.4,Win32,60.34638827,634688048500211f4412cff2,64d2fd46c836a06233681665,64dc7f120dfc8a90638a3d50,,,,,,,ctch,resources/DG.BMP,resources/DP.BMP,Door4,-0.310185185,-0.039814815,1,0,0,0.5337,optionLeft,80,14795,7,12,0,12,0,1,,,,,,,,,,,,,,,,,,,,,,,,,,,,,,,,,,,,,,,
,,,,,,,,2023-08-16_08h48.11.460,HF_wild_card,2022.2.4,Win32,60.34638827,634688048500211f4412cff2,64d2fd46c836a06233681665,64dc7f120dfc8a90638a3d50,,,,,,,decisionTrl,resources/DG.BMP,resources/DR.BMP,Door4,-0.255555556,-0.040740741,1,0,0,0.4643,optionLeft,60,14855,7,13,0,13,0,1,,,,,,,,,,,,,,,,,,,,,,,,,,,,,,,,,,,,,,,
,,,,,,,,2023-08-16_08h48.11.460,HF_wild_card,2022.2.4,Win32,60.34638827,634688048500211f4412cff2,64d2fd46c836a06233681665,64dc7f120dfc8a90638a3d50,,,,,,,decisionTrl,resources/DBN.BMP,resources/DP.BMP,Door1,0.314814815,-0.066666667,1,0,0,1.0362,optionRight,30,14885,7,14,0,14,0,1,,,,,,,,,,,,,,,,,,,,,,,,,,,,,,,,,,,,,,,
,,,,,,,,2023-08-16_08h48.11.460,HF_wild_card,2022.2.4,Win32,60.34638827,634688048500211f4412cff2,64d2fd46c836a06233681665,64dc7f120dfc8a90638a3d50,,,,,,,decisionTrl,resources/DG.BMP,resources/DR.BMP,Door4,-0.275,-0.073148148,1,0,0,0.8797,optionLeft,60,14945,7,15,0,15,0,1,,,,,,,,,,,,,,,,,,,,,,,,,,,,,,,,,,,,,,,
,,,,,,,,2023-08-16_08h48.11.460,HF_wild_card,2022.2.4,Win32,60.34638827,634688048500211f4412cff2,64d2fd46c836a06233681665,64dc7f120dfc8a90638a3d50,,,,,,,ctch,resources/DG.BMP,resources/DP.BMP,Door4,-0.327777778,-0.065740741,1,0,0,0.7838,optionLeft,80,15025,7,16,0,16,0,1,,,,,,,,,,,,,,,,,,,,,,,,,,,,,,,,,,,,,,,
,,,,,,,,2023-08-16_08h48.11.460,HF_wild_card,2022.2.4,Win32,60.34638827,634688048500211f4412cff2,64d2fd46c836a06233681665,64dc7f120dfc8a90638a3d50,,,,,,,ctch,resources/DR.BMP,resources/DBN.BMP,Door3,-0.35,-0.034259259,1,0,0,0.5846,optionLeft,70,15095,7,17,0,17,0,1,,,,,,,,,,,,,,,,,,,,,,,,,,,,,,,,,,,,,,,
,,,,,,,,2023-08-16_08h48.11.460,HF_wild_card,2022.2.4,Win32,60.34638827,634688048500211f4412cff2,64d2fd46c836a06233681665,64dc7f120dfc8a90638a3d50,,,,,,,decisionTrl,resources/DP.BMP,resources/DBN.BMP,Door1,-0.32962963,-0.041666667,1,0,0,0.5645,optionLeft,30,15125,7,18,0,18,0,1,,,,,,,,,,,,,,,,,,,,,,,,,,,,,,,,,,,,,,,
,,,,,,,,2023-08-16_08h48.11.460,HF_wild_card,2022.2.4,Win32,60.34638827,634688048500211f4412cff2,64d2fd46c836a06233681665,64dc7f120dfc8a90638a3d50,,,,,,,ctch,resources/DP.BMP,resources/DG.BMP,Door4,0.389814815,0.007407407,1,0,0,1.0525,optionRight,80,15205,7,19,0,19,0,1,,,,,,,,,,,,,,,,,,,,,,,,,,,,,,,,,,,,,,,
,,,,,,,,2023-08-16_08h48.11.460,HF_wild_card,2022.2.4,Win32,60.34638827,634688048500211f4412cff2,64d2fd46c836a06233681665,64dc7f120dfc8a90638a3d50,,,,,,,decisionTrl,resources/DR.BMP,resources/DG.BMP,Door3,-0.324074074,-0.048148148,1,0,0,0.7338,optionLeft,70,15275,7,20,0,20,0,1,,,,,,,,,,,,,,,,,,,,,,,,,,,,,,,,,,,,,,,
,,,,,,,,2023-08-16_08h48.11.460,HF_wild_card,2022.2.4,Win32,60.34638827,634688048500211f4412cff2,64d2fd46c836a06233681665,64dc7f120dfc8a90638a3d50,,,,,,,decisionTrl,resources/DP.BMP,resources/DBN.BMP,Door1,-0.283333333,-0.064814815,1,0,0,0.5501,optionLeft,30,15305,7,21,0,21,0,1,,,,,,,,,,,,,,,,,,,,,,,,,,,,,,,,,,,,,,,
,,,,,,,,2023-08-16_08h48.11.460,HF_wild_card,2022.2.4,Win32,60.34638827,634688048500211f4412cff2,64d2fd46c836a06233681665,64dc7f120dfc8a90638a3d50,,,,,,,ctch,resources/DP.BMP,resources/DG.BMP,Door4,0.500925926,-0.037962963,1,0,0,1.4247,optionRight,60,15365,7,22,0,22,0,1,,,,,,,,,,,,,,,,,,,,,,,,,,,,,,,,,,,,,,,
,,,,,,,,2023-08-16_08h48.11.460,HF_wild_card,2022.2.4,Win32,60.34638827,634688048500211f4412cff2,64d2fd46c836a06233681665,64dc7f120dfc8a90638a3d50,,,,,,,decisionTrl,resources/DR.BMP,resources/DG.BMP,Door3,-0.421296296,-0.022222222,1,0,0,1.4544,optionLeft,70,15435,7,23,0,23,0,1,,,,,,,,,,,,,,,,,,,,,,,,,,,,,,,,,,,,,,,
,,,,,,,,2023-08-16_08h48.11.460,HF_wild_card,2022.2.4,Win32,60.34638827,634688048500211f4412cff2,64d2fd46c836a06233681665,64dc7f120dfc8a90638a3d50,,,,,,,decisionTrl,resources/DBN.BMP,resources/DP.BMP,Door1,0.364814815,-0.052777778,1,0,0,0.6337,optionRight,30,15465,7,24,0,24,0,1,,,,,,,,,,,,,,,,,,,,,,,,,,,,,,,,,,,,,,,
,,,,,,,,2023-08-16_08h48.11.460,HF_wild_card,2022.2.4,Win32,60.34638827,634688048500211f4412cff2,64d2fd46c836a06233681665,64dc7f120dfc8a90638a3d50,,,,,,,decisionTrl,resources/DG.BMP,resources/DR.BMP,Door4,-0.266666667,-0.05,1,0,0,0.5462,optionLeft,60,15525,7,25,0,25,0,1,,,,,,,,,,,,,,,,,,,,,,,,,,,,,,,,,,,,,,,
,,,,,,,,2023-08-16_08h48.11.460,HF_wild_card,2022.2.4,Win32,60.34638827,634688048500211f4412cff2,64d2fd46c836a06233681665,64dc7f120dfc8a90638a3d50,,,,,,,decisionTrl,resources/DBN.BMP,resources/DP.BMP,Door1,0.337037037,-0.012037037,1,0,0,0.8877,optionRight,30,15555,7,26,0,26,0,1,,,,,,,,,,,,,,,,,,,,,,,,,,,,,,,,,,,,,,,
,,,,,,,,2023-08-16_08h48.11.460,HF_wild_card,2022.2.4,Win32,60.34638827,634688048500211f4412cff2,64d2fd46c836a06233681665,64dc7f120dfc8a90638a3d50,,,,,,,decisionTrl,resources/DR.BMP,resources/DG.BMP,Door3,-0.287037037,-0.02037037,1,0,0,1.5828,optionLeft,70,15625,7,27,0,27,0,1,,,,,,,,,,,,,,,,,,,,,,,,,,,,,,,,,,,,,,,
,,,,,,,,2023-08-16_08h48.11.460,HF_wild_card,2022.2.4,Win32,60.34638827,634688048500211f4412cff2,64d2fd46c836a06233681665,64dc7f120dfc8a90638a3d50,,,,,,,decisionTrl,resources/DG.BMP,resources/DR.BMP,Door4,-0.258333333,-0.042592593,1,0,0,0.5981,optionLeft,60,15685,7,28,0,28,0,1,,,,,,,,,,,,,,,,,,,,,,,,,,,,,,,,,,,,,,,
,,,,,,,,2023-08-16_08h48.11.460,HF_wild_card,2022.2.4,Win32,60.34638827,634688048500211f4412cff2,64d2fd46c836a06233681665,64dc7f120dfc8a90638a3d50,,,,,,,ctch,resources/DBN.BMP,resources/DR.BMP,Door3,0.303703704,-0.023148148,1,0,0,0.7022,optionRight,70,15755,7,29,0,29,0,1,,,,,,,,,,,,,,,,,,,,,,,,,,,,,,,,,,,,,,,
,,,,,,,,2023-08-16_08h48.11.460,HF_wild_card,2022.2.4,Win32,60.34638827,634688048500211f4412cff2,64d2fd46c836a06233681665,64dc7f120dfc8a90638a3d50,,,,,,,decisionTrl,resources/DP.BMP,resources/DBN.BMP,Door1,-0.235185185,-0.038888889,1,0,0,0.7342,optionLeft,30,15785,7,30,0,30,0,1,,,,,,,,,,,,,,,,,,,,,,,,,,,,,,,,,,,,,,,
,,,,,,,,2023-08-16_08h48.11.460,HF_wild_card,2022.2.4,Win32,60.34638827,634688048500211f4412cff2,64d2fd46c836a06233681665,64dc7f120dfc8a90638a3d50,,,,,,,ctch,resources/DBN.BMP,resources/DR.BMP,Door3,0.27962963,0.003703704,1,0,0,0.6309,optionRight,70,15855,7,31,0,31,0,1,,,,,,,,,,,,,,,,,,,,,,,,,,,,,,,,,,,,,,,
,,,,,,,,2023-08-16_08h48.11.460,HF_wild_card,2022.2.4,Win32,60.34638827,634688048500211f4412cff2,64d2fd46c836a06233681665,64dc7f120dfc8a90638a3d50,,,,,,,ctch,resources/DP.BMP,resources/DG.BMP,Door4,0.311111111,-0.034259259,1,0,0,0.9163,optionRight,80,15935,7,32,0,32,0,1,,,,,,,,,,,,,,,,,,,,,,,,,,,,,,,,,,,,,,,
,,,,,,,,2023-08-16_08h48.11.460,HF_wild_card,2022.2.4,Win32,60.34638827,634688048500211f4412cff2,64d2fd46c836a06233681665,64dc7f120dfc8a90638a3d50,,,,,,,ctch,resources/DG.BMP,resources/DP.BMP,Door4,-0.241666667,-0.042592593,1,0,0,0.9879,optionLeft,80,16015,7,33,0,33,0,1,,,,,,,,,,,,,,,,,,,,,,,,,,,,,,,,,,,,,,,
,,,,,,,,2023-08-16_08h48.11.460,HF_wild_card,2022.2.4,Win32,60.34638827,634688048500211f4412cff2,64d2fd46c836a06233681665,64dc7f120dfc8a90638a3d50,,,,,,,decisionTrl,resources/DR.BMP,resources/DG.BMP,Door3,-0.287037037,-0.063888889,1,0,0,0.65,optionLeft,70,16085,7,34,0,34,0,1,,,,,,,,,,,,,,,,,,,,,,,,,,,,,,,,,,,,,,,
,,,,,,,,2023-08-16_08h48.11.460,HF_wild_card,2022.2.4,Win32,60.34638827,634688048500211f4412cff2,64d2fd46c836a06233681665,64dc7f120dfc8a90638a3d50,,,,,,,decisionTrl,resources/DP.BMP,resources/DBN.BMP,Door1,-0.381481481,-0.083333333,1,0,0,0.4865,optionLeft,30,16115,7,35,0,35,0,1,,,,,,,,,,,,,,,,,,,,,,,,,,,,,,,,,,,,,,,
,,,,,,,,2023-08-16_08h48.11.460,HF_wild_card,2022.2.4,Win32,60.34638827,634688048500211f4412cff2,64d2fd46c836a06233681665,64dc7f120dfc8a90638a3d50,,,,,,,,,,,,,,,,,,,,,,,,,,6,0,6,0,1,,,,,,,,,,,,,,,,,,,,,,,,,,,,,,,,,,
,,,,,,,,2023-08-16_08h48.11.460,HF_wild_card,2022.2.4,Win32,60.34638827,634688048500211f4412cff2,64d2fd46c836a06233681665,64dc7f120dfc8a90638a3d50,,,,,,,,,,,,,,,,,,,,,,,,,,,,,,,4,,,,,,,,,,,,,,,,,,,,,,,,,,,,,,,,,
,,,,,,,,2023-08-16_08h48.11.460,HF_wild_card,2022.2.4,Win32,60.34638827,634688048500211f4412cff2,64d2fd46c836a06233681665,64dc7f120dfc8a90638a3d50,,,,,,,,,,,,,,,,,,,,,,,,,,,,,,,,,,,,,,,,,,,,,,,,,,,,,,,,,,,,,,,,
,,,,,,,,2023-08-16_08h48.11.460,HF_wild_card,2022.2.4,Win32,60.34638827,634688048500211f4412cff2,64d2fd46c836a06233681665,64dc7f120dfc8a90638a3d50,,,,,,,,,,,,,,,,,,,,,,,,,,,,,,,,20,Door2,resources/DBN.BMP,0,0,0,0,1,,,,,,,,,,,,,,,,,,,,,,,,,
,,,,,,,,2023-08-16_08h48.11.460,HF_wild_card,2022.2.4,Win32,60.34638827,634688048500211f4412cff2,64d2fd46c836a06233681665,64dc7f120dfc8a90638a3d50,,,,,,,,,,,,,,,,,,,,,,,,,,,,,,,,5,WC_nonExtreme,resources/DB.BMP,1,0,1,0,1,,,,,,,,,,,,,,,,,,,,,,,,,
,,,,,,,,2023-08-16_08h48.11.460,HF_wild_card,2022.2.4,Win32,60.34638827,634688048500211f4412cff2,64d2fd46c836a06233681665,64dc7f120dfc8a90638a3d50,,,,,,,,,,,,,,,,,,,,,,,,,,,,,,,,70,Door3,resources/DR.BMP,2,0,2,0,1,,,,,,,,,,,,,,,,,,,,,,,,,
,,,,,,,,2023-08-16_08h48.11.460,HF_wild_card,2022.2.4,Win32,60.34638827,634688048500211f4412cff2,64d2fd46c836a06233681665,64dc7f120dfc8a90638a3d50,,,,,,,,,,,,,,,,,,,,,,,,,,,,,,,,80,Door4,resources/DG.BMP,3,0,3,0,1,,,,,,,,,,,,,,,,,,,,,,,,,
,,,,,,,,2023-08-16_08h48.11.460,HF_wild_card,2022.2.4,Win32,60.34638827,634688048500211f4412cff2,64d2fd46c836a06233681665,64dc7f120dfc8a90638a3d50,,,,,,,,,,,,,,,,,,,,,,,,,,,,,,,,40,Door1,resources/DP.BMP,4,0,4,0,1,,,,,,,,,,,,,,,,,,,,,,,,,
,,,,,,,,2023-08-16_08h48.11.460,HF_wild_card,2022.2.4,Win32,60.34638827,634688048500211f4412cff2,64d2fd46c836a06233681665,64dc7f120dfc8a90638a3d50,,,,,,,,,,,,,,,,,,,,,,,,,,,,,,,,55,WC_extreme,resources/DY.BMP,5,0,5,0,1,,,,,,,,,,,,,,,,,,,,,,,,,
,,,,,,,,2023-08-16_08h48.11.460,HF_wild_card,2022.2.4,Win32,60.34638827,634688048500211f4412cff2,64d2fd46c836a06233681665,64dc7f120dfc8a90638a3d50,,,,,,,,,,,,,,,,,,,,,,,,,,,,,,,,,,,,,,,,,,,,,,,,,,,,,,,,,,,,,,,,
