Condition,Low fixed image (Door1),Low risky image (Door2),High fixed image (Door3),High risky image (Door4),Extreme Wild Card,NonExtreme Wild Card,,date,expName,psychopyVersion,OS,frameRate,PROLIFIC_PID,STUDY_ID,SESSION_ID,mouse_2.x,mouse_2.y,mouse_2.leftButton,mouse_2.midButton,mouse_2.rightButton,mouse_2.clicked_name,Trial Type,Left Option Image,Right Option Image,Chosen Door,mouse.x,mouse.y,mouse.leftButton,mouse.midButton,mouse.rightButton,mouse.time,mouse.clicked_name,Feedback,Cumulative Reward,Block,trial.thisRepN,trial.thisTrialN,trial.thisN,trial.thisIndex,trial.ran,blocks.thisRepN,blocks.thisTrialN,blocks.thisN,blocks.thisIndex,blocks.ran,Money conversion,First Outcome Reported,Shown Door (First Outcome),Displayed Image (First Outcome),outcomes.thisRepN,outcomes.thisTrialN,outcomes.thisN,outcomes.thisIndex,outcomes.ran,judgments.thisRepN,judgments.thisTrialN,judgments.thisN,judgments.thisIndex,judgments.ran,freqMouse.x,freqMouse.y,freqMouse.leftButton,freqMouse.midButton,freqMouse.rightButton,freqMouse.clicked_name,FQJ for first outcome,FQJ for second outcome,Shown Door,Displayed Image,trials.thisRepN,trials.thisTrialN,trials.thisN,trials.thisIndex,trials.ran,judgBlock.thisRepN,judgBlock.thisTrialN,judgBlock.thisN,judgBlock.thisIndex,judgBlock.ran
0,resources/DG.BMP,resources/DY.BMP,resources/DR.BMP,resources/DB.BMP,resources/DBN.BMP,resources/DP.BMP,,2023-08-16_08h54.27.153,HF_wild_card,2022.2.4,Win32,59.91970759,5ebd5be631748b03f7273769,64d2fd46c836a06233681665,64dc80a2fdd3ca2501be8968,,,,,,,,,,,,,,,,,,,,,,,,,,,,,,,,,,,,,,,,,,,,,,,,,,,,,,,,,,,,,,,,
,,,,,,,,2023-08-16_08h54.27.153,HF_wild_card,2022.2.4,Win32,59.91970759,5ebd5be631748b03f7273769,64d2fd46c836a06233681665,64dc80a2fdd3ca2501be8968,-0.003703647,-0.410185242,1,0,0,agree,,,,,,,,,,,,,,,,,,,,,,,,,,,,,,,,,,,,,,,,,,,,,,,,,,,,,,,,,,
,,,,,,,,2023-08-16_08h54.27.153,HF_wild_card,2022.2.4,Win32,59.91970759,5ebd5be631748b03f7273769,64d2fd46c836a06233681665,64dc80a2fdd3ca2501be8968,,,,,,,,,,,,,,,,,,,,,,,,,,,,,,,,,,,,,,,,,,,,,,,,,,,,,,,,,,,,,,,,
,,,,,,,,2023-08-16_08h54.27.153,HF_wild_card,2022.2.4,Win32,59.91970759,5ebd5be631748b03f7273769,64d2fd46c836a06233681665,64dc80a2fdd3ca2501be8968,,,,,,,decisionTrl,resources/DG.BMP,resources/DY.BMP,Door1,-0.412037023,-0.13148151,1,0,0,4.1429,optionLeft,30,30,1,0,0,0,0,1,,,,,,,,,,,,,,,,,,,,,,,,,,,,,,,,,,,,,,,
,,,,,,,,2023-08-16_08h54.27.153,HF_wild_card,2022.2.4,Win32,59.91970759,5ebd5be631748b03f7273769,64d2fd46c836a06233681665,64dc80a2fdd3ca2501be8968,,,,,,,decisionTrl,resources/DB.BMP,resources/DR.BMP,Door4,-0.337962935,-0.065740755,1,0,0,4.6614,optionLeft,80,110,1,1,0,1,0,1,,,,,,,,,,,,,,,,,,,,,,,,,,,,,,,,,,,,,,,
,,,,,,,,2023-08-16_08h54.27.153,HF_wild_card,2022.2.4,Win32,59.91970759,5ebd5be631748b03f7273769,64d2fd46c836a06233681665,64dc80a2fdd3ca2501be8968,,,,,,,sngl,resources/DB.BMP,resources/Empty.png,Door4,-0.352777778,-0.025,1,0,0,1.7779,optionLeft,80,190,1,2,0,2,0,1,,,,,,,,,,,,,,,,,,,,,,,,,,,,,,,,,,,,,,,
,,,,,,,,2023-08-16_08h54.27.153,HF_wild_card,2022.2.4,Win32,59.91970759,5ebd5be631748b03f7273769,64d2fd46c836a06233681665,64dc80a2fdd3ca2501be8968,,,,,,,decisionTrl,resources/DG.BMP,resources/DBN.BMP,Door1,-0.424074046,-0.1,1,0,0,4.2621,optionLeft,30,220,1,3,0,3,0,1,,,,,,,,,,,,,,,,,,,,,,,,,,,,,,,,,,,,,,,
,,,,,,,,2023-08-16_08h54.27.153,HF_wild_card,2022.2.4,Win32,59.91970759,5ebd5be631748b03f7273769,64d2fd46c836a06233681665,64dc80a2fdd3ca2501be8968,,,,,,,sngl,resources/Empty.png,resources/DY.BMP,Door2,0.367592621,0.025925912,1,0,0,1.5914,optionRight,20,240,1,4,0,4,0,1,,,,,,,,,,,,,,,,,,,,,,,,,,,,,,,,,,,,,,,
,,,,,,,,2023-08-16_08h54.27.153,HF_wild_card,2022.2.4,Win32,59.91970759,5ebd5be631748b03f7273769,64d2fd46c836a06233681665,64dc80a2fdd3ca2501be8968,,,,,,,ctch,resources/DB.BMP,resources/DG.BMP,Door1,0.328703732,0.001851824,1,0,0,3.9081,optionRight,30,270,1,5,0,5,0,1,,,,,,,,,,,,,,,,,,,,,,,,,,,,,,,,,,,,,,,
,,,,,,,,2023-08-16_08h54.27.153,HF_wild_card,2022.2.4,Win32,59.91970759,5ebd5be631748b03f7273769,64d2fd46c836a06233681665,64dc80a2fdd3ca2501be8968,,,,,,,sngl,resources/DG.BMP,resources/Empty.png,Door1,-0.405555556,0.012962935,1,0,0,1.4786,optionLeft,30,300,1,6,0,6,0,1,,,,,,,,,,,,,,,,,,,,,,,,,,,,,,,,,,,,,,,
,,,,,,,,2023-08-16_08h54.27.153,HF_wild_card,2022.2.4,Win32,59.91970759,5ebd5be631748b03f7273769,64d2fd46c836a06233681665,64dc80a2fdd3ca2501be8968,,,,,,,sngl,resources/Empty.png,resources/DBN.BMP,WildCard_Ex,0.360185242,-0.009259288,1,0,0,1.4304,optionRight,95,395,1,7,0,7,0,1,,,,,,,,,,,,,,,,,,,,,,,,,,,,,,,,,,,,,,,
,,,,,,,,2023-08-16_08h54.27.153,HF_wild_card,2022.2.4,Win32,59.91970759,5ebd5be631748b03f7273769,64d2fd46c836a06233681665,64dc80a2fdd3ca2501be8968,,,,,,,ctch,resources/DY.BMP,resources/DR.BMP,Door2,-0.336111111,0.035185157,1,0,0,1.6952,optionLeft,40,435,1,8,0,8,0,1,,,,,,,,,,,,,,,,,,,,,,,,,,,,,,,,,,,,,,,
,,,,,,,,2023-08-16_08h54.27.153,HF_wild_card,2022.2.4,Win32,59.91970759,5ebd5be631748b03f7273769,64d2fd46c836a06233681665,64dc80a2fdd3ca2501be8968,,,,,,,sngl,resources/Empty.png,resources/DR.BMP,Door3,0.302777778,-0.011111111,1,0,0,1.1796,optionRight,70,505,1,9,0,9,0,1,,,,,,,,,,,,,,,,,,,,,,,,,,,,,,,,,,,,,,,
,,,,,,,,2023-08-16_08h54.27.153,HF_wild_card,2022.2.4,Win32,59.91970759,5ebd5be631748b03f7273769,64d2fd46c836a06233681665,64dc80a2fdd3ca2501be8968,,,,,,,decisionTrl,resources/DB.BMP,resources/DR.BMP,Door4,-0.321296268,0.014814801,1,0,0,1.2801,optionLeft,60,565,1,10,0,10,0,1,,,,,,,,,,,,,,,,,,,,,,,,,,,,,,,,,,,,,,,
,,,,,,,,2023-08-16_08h54.27.153,HF_wild_card,2022.2.4,Win32,59.91970759,5ebd5be631748b03f7273769,64d2fd46c836a06233681665,64dc80a2fdd3ca2501be8968,,,,,,,ctch,resources/DG.BMP,resources/DB.BMP,Door4,0.194444444,-0.027777778,1,0,0,1.7621,optionRight,60,625,1,11,0,11,0,1,,,,,,,,,,,,,,,,,,,,,,,,,,,,,,,,,,,,,,,
,,,,,,,,2023-08-16_08h54.27.153,HF_wild_card,2022.2.4,Win32,59.91970759,5ebd5be631748b03f7273769,64d2fd46c836a06233681665,64dc80a2fdd3ca2501be8968,,,,,,,sngl,resources/DBN.BMP,resources/Empty.png,WildCard_Ex,-0.299074046,-0.019444444,1,0,0,1.3648,optionLeft,5,630,1,12,0,12,0,1,,,,,,,,,,,,,,,,,,,,,,,,,,,,,,,,,,,,,,,
,,,,,,,,2023-08-16_08h54.27.153,HF_wild_card,2022.2.4,Win32,59.91970759,5ebd5be631748b03f7273769,64d2fd46c836a06233681665,64dc80a2fdd3ca2501be8968,,,,,,,decisionTrl,resources/DR.BMP,resources/DB.BMP,Door4,0.368518575,0.005555556,1,0,0,1.3827,optionRight,60,690,1,13,0,13,0,1,,,,,,,,,,,,,,,,,,,,,,,,,,,,,,,,,,,,,,,
,,,,,,,,2023-08-16_08h54.27.153,HF_wild_card,2022.2.4,Win32,59.91970759,5ebd5be631748b03f7273769,64d2fd46c836a06233681665,64dc80a2fdd3ca2501be8968,,,,,,,sngl,resources/Empty.png,resources/DBN.BMP,WildCard_Ex,0.35648151,0.035185157,1,0,0,1.3124,optionRight,5,695,1,14,0,14,0,1,,,,,,,,,,,,,,,,,,,,,,,,,,,,,,,,,,,,,,,
,,,,,,,,2023-08-16_08h54.27.153,HF_wild_card,2022.2.4,Win32,59.91970759,5ebd5be631748b03f7273769,64d2fd46c836a06233681665,64dc80a2fdd3ca2501be8968,,,,,,,decisionTrl,resources/DY.BMP,resources/DG.BMP,Door1,0.353703732,-0.004629644,1,0,0,3.8307,optionRight,30,725,1,15,0,15,0,1,,,,,,,,,,,,,,,,,,,,,,,,,,,,,,,,,,,,,,,
,,,,,,,,2023-08-16_08h54.27.153,HF_wild_card,2022.2.4,Win32,59.91970759,5ebd5be631748b03f7273769,64d2fd46c836a06233681665,64dc80a2fdd3ca2501be8968,,,,,,,decisionTrl,resources/DBN.BMP,resources/DB.BMP,Door4,0.219444444,0.013888889,1,0,0,1.2372,optionRight,80,805,1,16,0,16,0,1,,,,,,,,,,,,,,,,,,,,,,,,,,,,,,,,,,,,,,,
,,,,,,,,2023-08-16_08h54.27.153,HF_wild_card,2022.2.4,Win32,59.91970759,5ebd5be631748b03f7273769,64d2fd46c836a06233681665,64dc80a2fdd3ca2501be8968,,,,,,,decisionTrl,resources/DY.BMP,resources/DG.BMP,Door2,-0.208333333,-0.022222222,1,0,0,1.6222,optionLeft,40,845,1,17,0,17,0,1,,,,,,,,,,,,,,,,,,,,,,,,,,,,,,,,,,,,,,,
,,,,,,,,2023-08-16_08h54.27.153,HF_wild_card,2022.2.4,Win32,59.91970759,5ebd5be631748b03f7273769,64d2fd46c836a06233681665,64dc80a2fdd3ca2501be8968,,,,,,,ctch,resources/DG.BMP,resources/DB.BMP,Door4,0.314814843,-0.025,1,0,0,0.9641,optionRight,60,905,1,18,0,18,0,1,,,,,,,,,,,,,,,,,,,,,,,,,,,,,,,,,,,,,,,
,,,,,,,,2023-08-16_08h54.27.153,HF_wild_card,2022.2.4,Win32,59.91970759,5ebd5be631748b03f7273769,64d2fd46c836a06233681665,64dc80a2fdd3ca2501be8968,,,,,,,sngl,resources/Empty.png,resources/DG.BMP,Door1,0.284259288,-0.005555556,1,0,0,1.7428,optionRight,30,935,1,19,0,19,0,1,,,,,,,,,,,,,,,,,,,,,,,,,,,,,,,,,,,,,,,
,,,,,,,,2023-08-16_08h54.27.153,HF_wild_card,2022.2.4,Win32,59.91970759,5ebd5be631748b03f7273769,64d2fd46c836a06233681665,64dc80a2fdd3ca2501be8968,,,,,,,sngl,resources/DR.BMP,resources/Empty.png,Door3,-0.451851824,-0.027777778,1,0,0,1.1786,optionLeft,70,1005,1,20,0,20,0,1,,,,,,,,,,,,,,,,,,,,,,,,,,,,,,,,,,,,,,,
,,,,,,,,2023-08-16_08h54.27.153,HF_wild_card,2022.2.4,Win32,59.91970759,5ebd5be631748b03f7273769,64d2fd46c836a06233681665,64dc80a2fdd3ca2501be8968,,,,,,,ctch,resources/DR.BMP,resources/DY.BMP,Door2,0.354629686,-0.109259288,1,0,0,1.1613,optionRight,40,1045,1,21,0,21,0,1,,,,,,,,,,,,,,,,,,,,,,,,,,,,,,,,,,,,,,,
,,,,,,,,2023-08-16_08h54.27.153,HF_wild_card,2022.2.4,Win32,59.91970759,5ebd5be631748b03f7273769,64d2fd46c836a06233681665,64dc80a2fdd3ca2501be8968,,,,,,,decisionTrl,resources/DY.BMP,resources/DG.BMP,Door1,0.290740797,-0.118518533,1,0,0,1.6291,optionRight,30,1075,1,22,0,22,0,1,,,,,,,,,,,,,,,,,,,,,,,,,,,,,,,,,,,,,,,
,,,,,,,,2023-08-16_08h54.27.153,HF_wild_card,2022.2.4,Win32,59.91970759,5ebd5be631748b03f7273769,64d2fd46c836a06233681665,64dc80a2fdd3ca2501be8968,,,,,,,sngl,resources/DY.BMP,resources/Empty.png,Door2,-0.313888889,0.059259245,1,0,0,0.7118,optionLeft,40,1115,1,23,0,23,0,1,,,,,,,,,,,,,,,,,,,,,,,,,,,,,,,,,,,,,,,
,,,,,,,,2023-08-16_08h54.27.153,HF_wild_card,2022.2.4,Win32,59.91970759,5ebd5be631748b03f7273769,64d2fd46c836a06233681665,64dc80a2fdd3ca2501be8968,,,,,,,decisionTrl,resources/DBN.BMP,resources/DG.BMP,Door1,0.297222222,-0.128703732,1,0,0,1.328,optionRight,30,1145,1,24,0,24,0,1,,,,,,,,,,,,,,,,,,,,,,,,,,,,,,,,,,,,,,,
,,,,,,,,2023-08-16_08h54.27.153,HF_wild_card,2022.2.4,Win32,59.91970759,5ebd5be631748b03f7273769,64d2fd46c836a06233681665,64dc80a2fdd3ca2501be8968,,,,,,,decisionTrl,resources/DB.BMP,resources/DR.BMP,Door4,-0.265740712,0.031481467,1,0,0,0.8284,optionLeft,80,1225,1,25,0,25,0,1,,,,,,,,,,,,,,,,,,,,,,,,,,,,,,,,,,,,,,,
,,,,,,,,2023-08-16_08h54.27.153,HF_wild_card,2022.2.4,Win32,59.91970759,5ebd5be631748b03f7273769,64d2fd46c836a06233681665,64dc80a2fdd3ca2501be8968,,,,,,,decisionTrl,resources/DB.BMP,resources/DR.BMP,Door4,-0.223148134,0.027777778,1,0,0,1.3455,optionLeft,60,1285,1,26,0,26,0,1,,,,,,,,,,,,,,,,,,,,,,,,,,,,,,,,,,,,,,,
,,,,,,,,2023-08-16_08h54.27.153,HF_wild_card,2022.2.4,Win32,59.91970759,5ebd5be631748b03f7273769,64d2fd46c836a06233681665,64dc80a2fdd3ca2501be8968,,,,,,,ctch,resources/DY.BMP,resources/DR.BMP,Door2,-0.329629601,0.082407379,1,0,0,0.9449,optionLeft,40,1325,1,27,0,27,0,1,,,,,,,,,,,,,,,,,,,,,,,,,,,,,,,,,,,,,,,
,,,,,,,,2023-08-16_08h54.27.153,HF_wild_card,2022.2.4,Win32,59.91970759,5ebd5be631748b03f7273769,64d2fd46c836a06233681665,64dc80a2fdd3ca2501be8968,,,,,,,decisionTrl,resources/DB.BMP,resources/DBN.BMP,WildCard_Ex,0.275,-0.150925954,1,0,0,0.7957,optionRight,95,1420,1,28,0,28,0,1,,,,,,,,,,,,,,,,,,,,,,,,,,,,,,,,,,,,,,,
,,,,,,,,2023-08-16_08h54.27.153,HF_wild_card,2022.2.4,Win32,59.91970759,5ebd5be631748b03f7273769,64d2fd46c836a06233681665,64dc80a2fdd3ca2501be8968,,,,,,,decisionTrl,resources/DR.BMP,resources/DBN.BMP,WildCard_Ex,0.217592621,-0.1,1,0,0,0.6612,optionRight,95,1515,1,29,0,29,0,1,,,,,,,,,,,,,,,,,,,,,,,,,,,,,,,,,,,,,,,
,,,,,,,,2023-08-16_08h54.27.153,HF_wild_card,2022.2.4,Win32,59.91970759,5ebd5be631748b03f7273769,64d2fd46c836a06233681665,64dc80a2fdd3ca2501be8968,,,,,,,decisionTrl,resources/DG.BMP,resources/DY.BMP,Door1,-0.192592578,0.00370369,1,0,0,1.4783,optionLeft,30,1545,1,30,0,30,0,1,,,,,,,,,,,,,,,,,,,,,,,,,,,,,,,,,,,,,,,
,,,,,,,,2023-08-16_08h54.27.153,HF_wild_card,2022.2.4,Win32,59.91970759,5ebd5be631748b03f7273769,64d2fd46c836a06233681665,64dc80a2fdd3ca2501be8968,,,,,,,decisionTrl,resources/DR.BMP,resources/DB.BMP,Door4,0.20648151,-0.102777778,1,0,0,0.6958,optionRight,60,1605,1,31,0,31,0,1,,,,,,,,,,,,,,,,,,,,,,,,,,,,,,,,,,,,,,,
,,,,,,,,2023-08-16_08h54.27.153,HF_wild_card,2022.2.4,Win32,59.91970759,5ebd5be631748b03f7273769,64d2fd46c836a06233681665,64dc80a2fdd3ca2501be8968,,,,,,,decisionTrl,resources/DBN.BMP,resources/DY.BMP,WildCard_Ex,-0.206481467,0.067592578,1,0,0,0.9797,optionLeft,5,1610,1,32,0,32,0,1,,,,,,,,,,,,,,,,,,,,,,,,,,,,,,,,,,,,,,,
,,,,,,,,2023-08-16_08h54.27.153,HF_wild_card,2022.2.4,Win32,59.91970759,5ebd5be631748b03f7273769,64d2fd46c836a06233681665,64dc80a2fdd3ca2501be8968,,,,,,,decisionTrl,resources/DR.BMP,resources/DB.BMP,Door4,0.199074131,0.062037023,1,0,0,0.9951,optionRight,60,1670,1,33,0,33,0,1,,,,,,,,,,,,,,,,,,,,,,,,,,,,,,,,,,,,,,,
,,,,,,,,2023-08-16_08h54.27.153,HF_wild_card,2022.2.4,Win32,59.91970759,5ebd5be631748b03f7273769,64d2fd46c836a06233681665,64dc80a2fdd3ca2501be8968,,,,,,,decisionTrl,resources/DR.BMP,resources/DB.BMP,Door4,0.192592621,0.101851824,1,0,0,0.8788,optionRight,80,1750,1,34,0,34,0,1,,,,,,,,,,,,,,,,,,,,,,,,,,,,,,,,,,,,,,,
,,,,,,,,2023-08-16_08h54.27.153,HF_wild_card,2022.2.4,Win32,59.91970759,5ebd5be631748b03f7273769,64d2fd46c836a06233681665,64dc80a2fdd3ca2501be8968,,,,,,,sngl,resources/Empty.png,resources/DB.BMP,Door4,0.177777778,0.104629601,1,0,0,0.8278,optionRight,60,1810,1,35,0,35,0,1,,,,,,,,,,,,,,,,,,,,,,,,,,,,,,,,,,,,,,,
,,,,,,,,2023-08-16_08h54.27.153,HF_wild_card,2022.2.4,Win32,59.91970759,5ebd5be631748b03f7273769,64d2fd46c836a06233681665,64dc80a2fdd3ca2501be8968,,,,,,,sngl,resources/DBN.BMP,resources/Empty.png,WildCard_Ex,-0.398148134,0.131481467,1,0,0,1.8612,optionLeft,95,1905,1,36,0,36,0,1,,,,,,,,,,,,,,,,,,,,,,,,,,,,,,,,,,,,,,,
,,,,,,,,2023-08-16_08h54.27.153,HF_wild_card,2022.2.4,Win32,59.91970759,5ebd5be631748b03f7273769,64d2fd46c836a06233681665,64dc80a2fdd3ca2501be8968,,,,,,,ctch,resources/DR.BMP,resources/DY.BMP,Door3,-0.326851824,0.074074046,1,0,0,1.145,optionLeft,70,1975,1,37,0,37,0,1,,,,,,,,,,,,,,,,,,,,,,,,,,,,,,,,,,,,,,,
,,,,,,,,2023-08-16_08h54.27.153,HF_wild_card,2022.2.4,Win32,59.91970759,5ebd5be631748b03f7273769,64d2fd46c836a06233681665,64dc80a2fdd3ca2501be8968,,,,,,,ctch,resources/DB.BMP,resources/DG.BMP,Door4,-0.333333333,0.124074046,1,0,0,0.7949,optionLeft,80,2055,1,38,0,38,0,1,,,,,,,,,,,,,,,,,,,,,,,,,,,,,,,,,,,,,,,
,,,,,,,,2023-08-16_08h54.27.153,HF_wild_card,2022.2.4,Win32,59.91970759,5ebd5be631748b03f7273769,64d2fd46c836a06233681665,64dc80a2fdd3ca2501be8968,,,,,,,decisionTrl,resources/DY.BMP,resources/DG.BMP,Door2,-0.298148134,0.095370356,1,0,0,0.9114,optionLeft,40,2095,1,39,0,39,0,1,,,,,,,,,,,,,,,,,,,,,,,,,,,,,,,,,,,,,,,
,,,,,,,,2023-08-16_08h54.27.153,HF_wild_card,2022.2.4,Win32,59.91970759,5ebd5be631748b03f7273769,64d2fd46c836a06233681665,64dc80a2fdd3ca2501be8968,,,,,,,decisionTrl,resources/DG.BMP,resources/DY.BMP,Door1,-0.298148134,0.086111111,1,0,0,0.8119,optionLeft,30,2125,1,40,0,40,0,1,,,,,,,,,,,,,,,,,,,,,,,,,,,,,,,,,,,,,,,
,,,,,,,,2023-08-16_08h54.27.153,HF_wild_card,2022.2.4,Win32,59.91970759,5ebd5be631748b03f7273769,64d2fd46c836a06233681665,64dc80a2fdd3ca2501be8968,,,,,,,decisionTrl,resources/DBN.BMP,resources/DR.BMP,WildCard_Ex,-0.370370356,0.075925912,1,0,0,1.1958,optionLeft,5,2130,1,41,0,41,0,1,,,,,,,,,,,,,,,,,,,,,,,,,,,,,,,,,,,,,,,
,,,,,,,,2023-08-16_08h54.27.153,HF_wild_card,2022.2.4,Win32,59.91970759,5ebd5be631748b03f7273769,64d2fd46c836a06233681665,64dc80a2fdd3ca2501be8968,,,,,,,decisionTrl,resources/DY.BMP,resources/DBN.BMP,WildCard_Ex,0.568518575,-0.144444444,1,0,0,0.8285,optionRight,95,2225,1,42,0,42,0,1,,,,,,,,,,,,,,,,,,,,,,,,,,,,,,,,,,,,,,,
,,,,,,,,2023-08-16_08h54.27.153,HF_wild_card,2022.2.4,Win32,59.91970759,5ebd5be631748b03f7273769,64d2fd46c836a06233681665,64dc80a2fdd3ca2501be8968,,,,,,,decisionTrl,resources/DG.BMP,resources/DY.BMP,Door2,0.597222222,-0.137962977,1,0,0,1.7274,optionRight,40,2265,1,43,0,43,0,1,,,,,,,,,,,,,,,,,,,,,,,,,,,,,,,,,,,,,,,
,,,,,,,,2023-08-16_08h54.27.153,HF_wild_card,2022.2.4,Win32,59.91970759,5ebd5be631748b03f7273769,64d2fd46c836a06233681665,64dc80a2fdd3ca2501be8968,,,,,,,,,,,,,,,,,,,,,,,,,,0,0,0,0,1,,,,,,,,,,,,,,,,,,,,,,,,,,,,,,,,,,
,,,,,,,,2023-08-16_08h54.27.153,HF_wild_card,2022.2.4,Win32,59.91970759,5ebd5be631748b03f7273769,64d2fd46c836a06233681665,64dc80a2fdd3ca2501be8968,,,,,,,decisionTrl,resources/DG.BMP,resources/DBN.BMP,WildCard_Ex,0.223148176,-0.162037065,1,0,0,1.2731,optionRight,5,2270,2,0,0,0,0,1,,,,,,,,,,,,,,,,,,,,,,,,,,,,,,,,,,,,,,,
,,,,,,,,2023-08-16_08h54.27.153,HF_wild_card,2022.2.4,Win32,59.91970759,5ebd5be631748b03f7273769,64d2fd46c836a06233681665,64dc80a2fdd3ca2501be8968,,,,,,,decisionTrl,resources/DR.BMP,resources/DB.BMP,Door4,0.339814843,0.037962935,1,0,0,1.6607,optionRight,80,2350,2,1,0,1,0,1,,,,,,,,,,,,,,,,,,,,,,,,,,,,,,,,,,,,,,,
,,,,,,,,2023-08-16_08h54.27.153,HF_wild_card,2022.2.4,Win32,59.91970759,5ebd5be631748b03f7273769,64d2fd46c836a06233681665,64dc80a2fdd3ca2501be8968,,,,,,,sngl,resources/DBN.BMP,resources/Empty.png,WildCard_Ex,-0.313888889,0.039814801,1,0,0,0.8166,optionLeft,5,2355,2,2,0,2,0,1,,,,,,,,,,,,,,,,,,,,,,,,,,,,,,,,,,,,,,,
,,,,,,,,2023-08-16_08h54.27.153,HF_wild_card,2022.2.4,Win32,59.91970759,5ebd5be631748b03f7273769,64d2fd46c836a06233681665,64dc80a2fdd3ca2501be8968,,,,,,,decisionTrl,resources/DBN.BMP,resources/DY.BMP,WildCard_Ex,-0.252777778,0.04351849,1,0,0,0.7931,optionLeft,5,2360,2,3,0,3,0,1,,,,,,,,,,,,,,,,,,,,,,,,,,,,,,,,,,,,,,,
,,,,,,,,2023-08-16_08h54.27.153,HF_wild_card,2022.2.4,Win32,59.91970759,5ebd5be631748b03f7273769,64d2fd46c836a06233681665,64dc80a2fdd3ca2501be8968,,,,,,,decisionTrl,resources/DG.BMP,resources/DY.BMP,Door2,0.25648151,-0.113888889,1,0,0,0.679,optionRight,40,2400,2,4,0,4,0,1,,,,,,,,,,,,,,,,,,,,,,,,,,,,,,,,,,,,,,,
,,,,,,,,2023-08-16_08h54.27.153,HF_wild_card,2022.2.4,Win32,59.91970759,5ebd5be631748b03f7273769,64d2fd46c836a06233681665,64dc80a2fdd3ca2501be8968,,,,,,,ctch,resources/DY.BMP,resources/DR.BMP,Door3,0.185185242,-0.078703732,1,0,0,1.1111,optionRight,70,2470,2,5,0,5,0,1,,,,,,,,,,,,,,,,,,,,,,,,,,,,,,,,,,,,,,,
,,,,,,,,2023-08-16_08h54.27.153,HF_wild_card,2022.2.4,Win32,59.91970759,5ebd5be631748b03f7273769,64d2fd46c836a06233681665,64dc80a2fdd3ca2501be8968,,,,,,,decisionTrl,resources/DG.BMP,resources/DY.BMP,Door2,0.210185242,-0.091666667,1,0,0,0.6951,optionRight,40,2510,2,6,0,6,0,1,,,,,,,,,,,,,,,,,,,,,,,,,,,,,,,,,,,,,,,
,,,,,,,,2023-08-16_08h54.27.153,HF_wild_card,2022.2.4,Win32,59.91970759,5ebd5be631748b03f7273769,64d2fd46c836a06233681665,64dc80a2fdd3ca2501be8968,,,,,,,decisionTrl,resources/DR.BMP,resources/DB.BMP,Door4,0.227777778,-0.098148176,1,0,0,0.6461,optionRight,60,2570,2,7,0,7,0,1,,,,,,,,,,,,,,,,,,,,,,,,,,,,,,,,,,,,,,,
,,,,,,,,2023-08-16_08h54.27.153,HF_wild_card,2022.2.4,Win32,59.91970759,5ebd5be631748b03f7273769,64d2fd46c836a06233681665,64dc80a2fdd3ca2501be8968,,,,,,,decisionTrl,resources/DBN.BMP,resources/DR.BMP,WildCard_Ex,-0.154629601,0.037037023,1,0,0,0.8787,optionLeft,95,2665,2,8,0,8,0,1,,,,,,,,,,,,,,,,,,,,,,,,,,,,,,,,,,,,,,,
,,,,,,,,2023-08-16_08h54.27.153,HF_wild_card,2022.2.4,Win32,59.91970759,5ebd5be631748b03f7273769,64d2fd46c836a06233681665,64dc80a2fdd3ca2501be8968,,,,,,,decisionTrl,resources/DBN.BMP,resources/DG.BMP,WildCard_Ex,-0.190740712,0.034259245,1,0,0,1.0285,optionLeft,95,2760,2,9,0,9,0,1,,,,,,,,,,,,,,,,,,,,,,,,,,,,,,,,,,,,,,,
,,,,,,,,2023-08-16_08h54.27.153,HF_wild_card,2022.2.4,Win32,59.91970759,5ebd5be631748b03f7273769,64d2fd46c836a06233681665,64dc80a2fdd3ca2501be8968,,,,,,,decisionTrl,resources/DY.BMP,resources/DG.BMP,Door1,0.212037065,0.069444444,1,0,0,2.062,optionRight,30,2790,2,10,0,10,0,1,,,,,,,,,,,,,,,,,,,,,,,,,,,,,,,,,,,,,,,
,,,,,,,,2023-08-16_08h54.27.153,HF_wild_card,2022.2.4,Win32,59.91970759,5ebd5be631748b03f7273769,64d2fd46c836a06233681665,64dc80a2fdd3ca2501be8968,,,,,,,ctch,resources/DR.BMP,resources/DY.BMP,Door3,-0.252777778,0.05,1,0,0,0.7793,optionLeft,70,2860,2,11,0,11,0,1,,,,,,,,,,,,,,,,,,,,,,,,,,,,,,,,,,,,,,,
,,,,,,,,2023-08-16_08h54.27.153,HF_wild_card,2022.2.4,Win32,59.91970759,5ebd5be631748b03f7273769,64d2fd46c836a06233681665,64dc80a2fdd3ca2501be8968,,,,,,,decisionTrl,resources/DB.BMP,resources/DR.BMP,Door4,-0.369444444,-0.002777778,1,0,0,0.9611,optionLeft,80,2940,2,12,0,12,0,1,,,,,,,,,,,,,,,,,,,,,,,,,,,,,,,,,,,,,,,
,,,,,,,,2023-08-16_08h54.27.153,HF_wild_card,2022.2.4,Win32,59.91970759,5ebd5be631748b03f7273769,64d2fd46c836a06233681665,64dc80a2fdd3ca2501be8968,,,,,,,sngl,resources/DB.BMP,resources/Empty.png,Door4,-0.313888889,-0.034259288,1,0,0,0.6083,optionLeft,60,3000,2,13,0,13,0,1,,,,,,,,,,,,,,,,,,,,,,,,,,,,,,,,,,,,,,,
,,,,,,,,2023-08-16_08h54.27.153,HF_wild_card,2022.2.4,Win32,59.91970759,5ebd5be631748b03f7273769,64d2fd46c836a06233681665,64dc80a2fdd3ca2501be8968,,,,,,,ctch,resources/DB.BMP,resources/DG.BMP,Door4,-0.225,0.002777778,1,0,0,0.5624,optionLeft,60,3060,2,14,0,14,0,1,,,,,,,,,,,,,,,,,,,,,,,,,,,,,,,,,,,,,,,
,,,,,,,,2023-08-16_08h54.27.153,HF_wild_card,2022.2.4,Win32,59.91970759,5ebd5be631748b03f7273769,64d2fd46c836a06233681665,64dc80a2fdd3ca2501be8968,,,,,,,decisionTrl,resources/DB.BMP,resources/DR.BMP,Door4,-0.198148134,0.002777778,1,0,0,0.5114,optionLeft,60,3120,2,15,0,15,0,1,,,,,,,,,,,,,,,,,,,,,,,,,,,,,,,,,,,,,,,
,,,,,,,,2023-08-16_08h54.27.153,HF_wild_card,2022.2.4,Win32,59.91970759,5ebd5be631748b03f7273769,64d2fd46c836a06233681665,64dc80a2fdd3ca2501be8968,,,,,,,decisionTrl,resources/DBN.BMP,resources/DB.BMP,WildCard_Ex,-0.246296268,0.020370356,1,0,0,0.7791,optionLeft,5,3125,2,16,0,16,0,1,,,,,,,,,,,,,,,,,,,,,,,,,,,,,,,,,,,,,,,
,,,,,,,,2023-08-16_08h54.27.153,HF_wild_card,2022.2.4,Win32,59.91970759,5ebd5be631748b03f7273769,64d2fd46c836a06233681665,64dc80a2fdd3ca2501be8968,,,,,,,sngl,resources/Empty.png,resources/DBN.BMP,WildCard_Ex,0.223148176,-0.082407422,1,0,0,0.6617,optionRight,5,3130,2,17,0,17,0,1,,,,,,,,,,,,,,,,,,,,,,,,,,,,,,,,,,,,,,,
,,,,,,,,2023-08-16_08h54.27.153,HF_wild_card,2022.2.4,Win32,59.91970759,5ebd5be631748b03f7273769,64d2fd46c836a06233681665,64dc80a2fdd3ca2501be8968,,,,,,,decisionTrl,resources/DG.BMP,resources/DY.BMP,Door2,0.209259288,-0.052777778,1,0,0,0.9622,optionRight,40,3170,2,18,0,18,0,1,,,,,,,,,,,,,,,,,,,,,,,,,,,,,,,,,,,,,,,
,,,,,,,,2023-08-16_08h54.27.153,HF_wild_card,2022.2.4,Win32,59.91970759,5ebd5be631748b03f7273769,64d2fd46c836a06233681665,64dc80a2fdd3ca2501be8968,,,,,,,decisionTrl,resources/DR.BMP,resources/DB.BMP,Door4,0.238888889,-0.059259288,1,0,0,0.7614,optionRight,60,3230,2,19,0,19,0,1,,,,,,,,,,,,,,,,,,,,,,,,,,,,,,,,,,,,,,,
,,,,,,,,2023-08-16_08h54.27.153,HF_wild_card,2022.2.4,Win32,59.91970759,5ebd5be631748b03f7273769,64d2fd46c836a06233681665,64dc80a2fdd3ca2501be8968,,,,,,,decisionTrl,resources/DB.BMP,resources/DR.BMP,Door4,-0.333333333,0.002777778,1,0,0,1.595,optionLeft,60,3290,2,20,0,20,0,1,,,,,,,,,,,,,,,,,,,,,,,,,,,,,,,,,,,,,,,
,,,,,,,,2023-08-16_08h54.27.153,HF_wild_card,2022.2.4,Win32,59.91970759,5ebd5be631748b03f7273769,64d2fd46c836a06233681665,64dc80a2fdd3ca2501be8968,,,,,,,sngl,resources/Empty.png,resources/DB.BMP,Door4,0.274074131,-0.117592621,1,0,0,1.1949,optionRight,80,3370,2,21,0,21,0,1,,,,,,,,,,,,,,,,,,,,,,,,,,,,,,,,,,,,,,,
,,,,,,,,2023-08-16_08h54.27.153,HF_wild_card,2022.2.4,Win32,59.91970759,5ebd5be631748b03f7273769,64d2fd46c836a06233681665,64dc80a2fdd3ca2501be8968,,,,,,,ctch,resources/DG.BMP,resources/DB.BMP,Door4,0.192592621,-0.123148176,1,0,0,0.6957,optionRight,80,3450,2,22,0,22,0,1,,,,,,,,,,,,,,,,,,,,,,,,,,,,,,,,,,,,,,,
,,,,,,,,2023-08-16_08h54.27.153,HF_wild_card,2022.2.4,Win32,59.91970759,5ebd5be631748b03f7273769,64d2fd46c836a06233681665,64dc80a2fdd3ca2501be8968,,,,,,,sngl,resources/Empty.png,resources/DG.BMP,Door1,0.226851908,-0.104629644,1,0,0,0.7453,optionRight,30,3480,2,23,0,23,0,1,,,,,,,,,,,,,,,,,,,,,,,,,,,,,,,,,,,,,,,
,,,,,,,,2023-08-16_08h54.27.153,HF_wild_card,2022.2.4,Win32,59.91970759,5ebd5be631748b03f7273769,64d2fd46c836a06233681665,64dc80a2fdd3ca2501be8968,,,,,,,sngl,resources/Empty.png,resources/DBN.BMP,WildCard_Ex,0.210185242,-0.126851866,1,0,0,0.6112,optionRight,95,3575,2,24,0,24,0,1,,,,,,,,,,,,,,,,,,,,,,,,,,,,,,,,,,,,,,,
,,,,,,,,2023-08-16_08h54.27.153,HF_wild_card,2022.2.4,Win32,59.91970759,5ebd5be631748b03f7273769,64d2fd46c836a06233681665,64dc80a2fdd3ca2501be8968,,,,,,,sngl,resources/DR.BMP,resources/Empty.png,Door3,-0.306481467,0.058333333,1,0,0,0.6945,optionLeft,70,3645,2,25,0,25,0,1,,,,,,,,,,,,,,,,,,,,,,,,,,,,,,,,,,,,,,,
,,,,,,,,2023-08-16_08h54.27.153,HF_wild_card,2022.2.4,Win32,59.91970759,5ebd5be631748b03f7273769,64d2fd46c836a06233681665,64dc80a2fdd3ca2501be8968,,,,,,,ctch,resources/DR.BMP,resources/DY.BMP,Door3,-0.300925912,0.051851824,1,0,0,1.4462,optionLeft,70,3715,2,26,0,26,0,1,,,,,,,,,,,,,,,,,,,,,,,,,,,,,,,,,,,,,,,
,,,,,,,,2023-08-16_08h54.27.153,HF_wild_card,2022.2.4,Win32,59.91970759,5ebd5be631748b03f7273769,64d2fd46c836a06233681665,64dc80a2fdd3ca2501be8968,,,,,,,ctch,resources/DG.BMP,resources/DB.BMP,Door4,0.248148176,-0.145370399,1,0,0,1.0283,optionRight,60,3775,2,27,0,27,0,1,,,,,,,,,,,,,,,,,,,,,,,,,,,,,,,,,,,,,,,
,,,,,,,,2023-08-16_08h54.27.153,HF_wild_card,2022.2.4,Win32,59.91970759,5ebd5be631748b03f7273769,64d2fd46c836a06233681665,64dc80a2fdd3ca2501be8968,,,,,,,sngl,resources/Empty.png,resources/DY.BMP,Door2,0.218518575,-0.141666667,1,0,0,0.6787,optionRight,40,3815,2,28,0,28,0,1,,,,,,,,,,,,,,,,,,,,,,,,,,,,,,,,,,,,,,,
,,,,,,,,2023-08-16_08h54.27.153,HF_wild_card,2022.2.4,Win32,59.91970759,5ebd5be631748b03f7273769,64d2fd46c836a06233681665,64dc80a2fdd3ca2501be8968,,,,,,,ctch,resources/DB.BMP,resources/DG.BMP,Door4,-0.210185157,0.014814801,1,0,0,0.8619,optionLeft,80,3895,2,29,0,29,0,1,,,,,,,,,,,,,,,,,,,,,,,,,,,,,,,,,,,,,,,
,,,,,,,,2023-08-16_08h54.27.153,HF_wild_card,2022.2.4,Win32,59.91970759,5ebd5be631748b03f7273769,64d2fd46c836a06233681665,64dc80a2fdd3ca2501be8968,,,,,,,decisionTrl,resources/DR.BMP,resources/DB.BMP,Door4,0.199074131,-0.126851866,1,0,0,1.4781,optionRight,80,3975,2,30,0,30,0,1,,,,,,,,,,,,,,,,,,,,,,,,,,,,,,,,,,,,,,,
,,,,,,,,2023-08-16_08h54.27.153,HF_wild_card,2022.2.4,Win32,59.91970759,5ebd5be631748b03f7273769,64d2fd46c836a06233681665,64dc80a2fdd3ca2501be8968,,,,,,,decisionTrl,resources/DY.BMP,resources/DG.BMP,Door1,0.228703732,-0.154629644,1,0,0,1.3297,optionRight,30,4005,2,31,0,31,0,1,,,,,,,,,,,,,,,,,,,,,,,,,,,,,,,,,,,,,,,
,,,,,,,,2023-08-16_08h54.27.153,HF_wild_card,2022.2.4,Win32,59.91970759,5ebd5be631748b03f7273769,64d2fd46c836a06233681665,64dc80a2fdd3ca2501be8968,,,,,,,decisionTrl,resources/DB.BMP,resources/DR.BMP,Door4,-0.16851849,-0.004629644,1,0,0,0.929,optionLeft,80,4085,2,32,0,32,0,1,,,,,,,,,,,,,,,,,,,,,,,,,,,,,,,,,,,,,,,
,,,,,,,,2023-08-16_08h54.27.153,HF_wild_card,2022.2.4,Win32,59.91970759,5ebd5be631748b03f7273769,64d2fd46c836a06233681665,64dc80a2fdd3ca2501be8968,,,,,,,sngl,resources/DY.BMP,resources/Empty.png,Door2,-0.208333333,0.025925912,1,0,0,0.7575,optionLeft,20,4105,2,33,0,33,0,1,,,,,,,,,,,,,,,,,,,,,,,,,,,,,,,,,,,,,,,
,,,,,,,,2023-08-16_08h54.27.153,HF_wild_card,2022.2.4,Win32,59.91970759,5ebd5be631748b03f7273769,64d2fd46c836a06233681665,64dc80a2fdd3ca2501be8968,,,,,,,sngl,resources/DG.BMP,resources/Empty.png,Door1,-0.210185157,0.004629601,1,0,0,0.6621,optionLeft,30,4135,2,34,0,34,0,1,,,,,,,,,,,,,,,,,,,,,,,,,,,,,,,,,,,,,,,
,,,,,,,,2023-08-16_08h54.27.153,HF_wild_card,2022.2.4,Win32,59.91970759,5ebd5be631748b03f7273769,64d2fd46c836a06233681665,64dc80a2fdd3ca2501be8968,,,,,,,decisionTrl,resources/DR.BMP,resources/DBN.BMP,WildCard_Ex,0.221296353,-0.134259288,1,0,0,0.6778,optionRight,5,4140,2,35,0,35,0,1,,,,,,,,,,,,,,,,,,,,,,,,,,,,,,,,,,,,,,,
,,,,,,,,2023-08-16_08h54.27.153,HF_wild_card,2022.2.4,Win32,59.91970759,5ebd5be631748b03f7273769,64d2fd46c836a06233681665,64dc80a2fdd3ca2501be8968,,,,,,,decisionTrl,resources/DY.BMP,resources/DG.BMP,Door2,-0.187962935,0.007407379,1,0,0,1.096,optionLeft,20,4160,2,36,0,36,0,1,,,,,,,,,,,,,,,,,,,,,,,,,,,,,,,,,,,,,,,
,,,,,,,,2023-08-16_08h54.27.153,HF_wild_card,2022.2.4,Win32,59.91970759,5ebd5be631748b03f7273769,64d2fd46c836a06233681665,64dc80a2fdd3ca2501be8968,,,,,,,decisionTrl,resources/DG.BMP,resources/DY.BMP,Door1,-0.273148134,0.023148134,1,0,0,1.1958,optionLeft,30,4190,2,37,0,37,0,1,,,,,,,,,,,,,,,,,,,,,,,,,,,,,,,,,,,,,,,
,,,,,,,,2023-08-16_08h54.27.153,HF_wild_card,2022.2.4,Win32,59.91970759,5ebd5be631748b03f7273769,64d2fd46c836a06233681665,64dc80a2fdd3ca2501be8968,,,,,,,sngl,resources/DBN.BMP,resources/Empty.png,WildCard_Ex,-0.227777778,0.008333333,1,0,0,0.5945,optionLeft,95,4285,2,38,0,38,0,1,,,,,,,,,,,,,,,,,,,,,,,,,,,,,,,,,,,,,,,
,,,,,,,,2023-08-16_08h54.27.153,HF_wild_card,2022.2.4,Win32,59.91970759,5ebd5be631748b03f7273769,64d2fd46c836a06233681665,64dc80a2fdd3ca2501be8968,,,,,,,decisionTrl,resources/DY.BMP,resources/DG.BMP,Door1,0.534259372,-0.062037065,1,0,0,1.5285,optionRight,30,4315,2,39,0,39,0,1,,,,,,,,,,,,,,,,,,,,,,,,,,,,,,,,,,,,,,,
,,,,,,,,2023-08-16_08h54.27.153,HF_wild_card,2022.2.4,Win32,59.91970759,5ebd5be631748b03f7273769,64d2fd46c836a06233681665,64dc80a2fdd3ca2501be8968,,,,,,,decisionTrl,resources/DB.BMP,resources/DBN.BMP,Door4,-0.196296268,-0.037962977,1,0,0,0.7779,optionLeft,60,4375,2,40,0,40,0,1,,,,,,,,,,,,,,,,,,,,,,,,,,,,,,,,,,,,,,,
,,,,,,,,2023-08-16_08h54.27.153,HF_wild_card,2022.2.4,Win32,59.91970759,5ebd5be631748b03f7273769,64d2fd46c836a06233681665,64dc80a2fdd3ca2501be8968,,,,,,,sngl,resources/Empty.png,resources/DR.BMP,Door3,0.223148176,0.074074046,1,0,0,0.5953,optionRight,70,4445,2,41,0,41,0,1,,,,,,,,,,,,,,,,,,,,,,,,,,,,,,,,,,,,,,,
,,,,,,,,2023-08-16_08h54.27.153,HF_wild_card,2022.2.4,Win32,59.91970759,5ebd5be631748b03f7273769,64d2fd46c836a06233681665,64dc80a2fdd3ca2501be8968,,,,,,,ctch,resources/DY.BMP,resources/DR.BMP,Door3,0.254629686,0.096296268,1,0,0,0.747,optionRight,70,4515,2,42,0,42,0,1,,,,,,,,,,,,,,,,,,,,,,,,,,,,,,,,,,,,,,,
,,,,,,,,2023-08-16_08h54.27.153,HF_wild_card,2022.2.4,Win32,59.91970759,5ebd5be631748b03f7273769,64d2fd46c836a06233681665,64dc80a2fdd3ca2501be8968,,,,,,,decisionTrl,resources/DY.BMP,resources/DBN.BMP,WildCard_Ex,0.222222222,0.073148134,1,0,0,1.0786,optionRight,95,4610,2,43,0,43,0,1,,,,,,,,,,,,,,,,,,,,,,,,,,,,,,,,,,,,,,,
,,,,,,,,2023-08-16_08h54.27.153,HF_wild_card,2022.2.4,Win32,59.91970759,5ebd5be631748b03f7273769,64d2fd46c836a06233681665,64dc80a2fdd3ca2501be8968,,,,,,,,,,,,,,,,,,,,,,,,,,1,0,1,0,1,,,,,,,,,,,,,,,,,,,,,,,,,,,,,,,,,,
,,,,,,,,2023-08-16_08h54.27.153,HF_wild_card,2022.2.4,Win32,59.91970759,5ebd5be631748b03f7273769,64d2fd46c836a06233681665,64dc80a2fdd3ca2501be8968,,,,,,,decisionTrl,resources/DG.BMP,resources/DY.BMP,Door1,-0.198148134,-0.10648151,1,0,0,0.8398,optionLeft,30,4640,3,0,0,0,0,1,,,,,,,,,,,,,,,,,,,,,,,,,,,,,,,,,,,,,,,
,,,,,,,,2023-08-16_08h54.27.153,HF_wild_card,2022.2.4,Win32,59.91970759,5ebd5be631748b03f7273769,64d2fd46c836a06233681665,64dc80a2fdd3ca2501be8968,,,,,,,sngl,resources/DG.BMP,resources/Empty.png,Door1,-0.162036981,-0.074074088,1,0,0,0.6785,optionLeft,30,4670,3,1,0,1,0,1,,,,,,,,,,,,,,,,,,,,,,,,,,,,,,,,,,,,,,,
,,,,,,,,2023-08-16_08h54.27.153,HF_wild_card,2022.2.4,Win32,59.91970759,5ebd5be631748b03f7273769,64d2fd46c836a06233681665,64dc80a2fdd3ca2501be8968,,,,,,,decisionTrl,resources/DBN.BMP,resources/DR.BMP,WildCard_Ex,-0.157407379,-0.087962977,1,0,0,0.8284,optionLeft,5,4675,3,2,0,2,0,1,,,,,,,,,,,,,,,,,,,,,,,,,,,,,,,,,,,,,,,
,,,,,,,,2023-08-16_08h54.27.153,HF_wild_card,2022.2.4,Win32,59.91970759,5ebd5be631748b03f7273769,64d2fd46c836a06233681665,64dc80a2fdd3ca2501be8968,,,,,,,decisionTrl,resources/DR.BMP,resources/DB.BMP,Door4,0.237963019,0.051851824,1,0,0,0.5785,optionRight,80,4755,3,3,0,3,0,1,,,,,,,,,,,,,,,,,,,,,,,,,,,,,,,,,,,,,,,
,,,,,,,,2023-08-16_08h54.27.153,HF_wild_card,2022.2.4,Win32,59.91970759,5ebd5be631748b03f7273769,64d2fd46c836a06233681665,64dc80a2fdd3ca2501be8968,,,,,,,decisionTrl,resources/DY.BMP,resources/DG.BMP,Door1,0.243518575,0.035185157,1,0,0,0.9618,optionRight,30,4785,3,4,0,4,0,1,,,,,,,,,,,,,,,,,,,,,,,,,,,,,,,,,,,,,,,
,,,,,,,,2023-08-16_08h54.27.153,HF_wild_card,2022.2.4,Win32,59.91970759,5ebd5be631748b03f7273769,64d2fd46c836a06233681665,64dc80a2fdd3ca2501be8968,,,,,,,decisionTrl,resources/DG.BMP,resources/DY.BMP,Door1,-0.15,-0.073148176,1,0,0,0.8285,optionLeft,30,4815,3,5,0,5,0,1,,,,,,,,,,,,,,,,,,,,,,,,,,,,,,,,,,,,,,,
,,,,,,,,2023-08-16_08h54.27.153,HF_wild_card,2022.2.4,Win32,59.91970759,5ebd5be631748b03f7273769,64d2fd46c836a06233681665,64dc80a2fdd3ca2501be8968,,,,,,,sngl,resources/Empty.png,resources/DR.BMP,Door3,0.270370399,0.083333333,1,0,0,0.5776,optionRight,70,4885,3,6,0,6,0,1,,,,,,,,,,,,,,,,,,,,,,,,,,,,,,,,,,,,,,,
,,,,,,,,2023-08-16_08h54.27.153,HF_wild_card,2022.2.4,Win32,59.91970759,5ebd5be631748b03f7273769,64d2fd46c836a06233681665,64dc80a2fdd3ca2501be8968,,,,,,,sngl,resources/Empty.png,resources/DBN.BMP,WildCard_Ex,0.288888889,0.092592578,1,0,0,0.6458,optionRight,95,4980,3,7,0,7,0,1,,,,,,,,,,,,,,,,,,,,,,,,,,,,,,,,,,,,,,,
,,,,,,,,2023-08-16_08h54.27.153,HF_wild_card,2022.2.4,Win32,59.91970759,5ebd5be631748b03f7273769,64d2fd46c836a06233681665,64dc80a2fdd3ca2501be8968,,,,,,,decisionTrl,resources/DG.BMP,resources/DY.BMP,Door2,0.244444444,0.080555556,1,0,0,0.6791,optionRight,20,5000,3,8,0,8,0,1,,,,,,,,,,,,,,,,,,,,,,,,,,,,,,,,,,,,,,,
,,,,,,,,2023-08-16_08h54.27.153,HF_wild_card,2022.2.4,Win32,59.91970759,5ebd5be631748b03f7273769,64d2fd46c836a06233681665,64dc80a2fdd3ca2501be8968,,,,,,,decisionTrl,resources/DB.BMP,resources/DR.BMP,Door4,-0.148148092,-0.05648151,1,0,0,0.5449,optionLeft,60,5060,3,9,0,9,0,1,,,,,,,,,,,,,,,,,,,,,,,,,,,,,,,,,,,,,,,
,,,,,,,,2023-08-16_08h54.27.153,HF_wild_card,2022.2.4,Win32,59.91970759,5ebd5be631748b03f7273769,64d2fd46c836a06233681665,64dc80a2fdd3ca2501be8968,,,,,,,decisionTrl,resources/DB.BMP,resources/DR.BMP,Door4,-0.163888889,-0.074074088,1,0,0,0.611,optionLeft,80,5140,3,10,0,10,0,1,,,,,,,,,,,,,,,,,,,,,,,,,,,,,,,,,,,,,,,
,,,,,,,,2023-08-16_08h54.27.153,HF_wild_card,2022.2.4,Win32,59.91970759,5ebd5be631748b03f7273769,64d2fd46c836a06233681665,64dc80a2fdd3ca2501be8968,,,,,,,decisionTrl,resources/DB.BMP,resources/DBN.BMP,Door4,-0.149074046,-0.075,1,0,0,0.8128,optionLeft,60,5200,3,11,0,11,0,1,,,,,,,,,,,,,,,,,,,,,,,,,,,,,,,,,,,,,,,
,,,,,,,,2023-08-16_08h54.27.153,HF_wild_card,2022.2.4,Win32,59.91970759,5ebd5be631748b03f7273769,64d2fd46c836a06233681665,64dc80a2fdd3ca2501be8968,,,,,,,decisionTrl,resources/DR.BMP,resources/DB.BMP,Door4,0.226851908,0.064814801,1,0,0,0.6309,optionRight,60,5260,3,12,0,12,0,1,,,,,,,,,,,,,,,,,,,,,,,,,,,,,,,,,,,,,,,
,,,,,,,,2023-08-16_08h54.27.153,HF_wild_card,2022.2.4,Win32,59.91970759,5ebd5be631748b03f7273769,64d2fd46c836a06233681665,64dc80a2fdd3ca2501be8968,,,,,,,ctch,resources/DR.BMP,resources/DY.BMP,Door3,-0.172222222,-0.068518533,1,0,0,1.0452,optionLeft,70,5330,3,13,0,13,0,1,,,,,,,,,,,,,,,,,,,,,,,,,,,,,,,,,,,,,,,
,,,,,,,,2023-08-16_08h54.27.153,HF_wild_card,2022.2.4,Win32,59.91970759,5ebd5be631748b03f7273769,64d2fd46c836a06233681665,64dc80a2fdd3ca2501be8968,,,,,,,sngl,resources/DBN.BMP,resources/Empty.png,WildCard_Ex,-0.176851824,-0.082407422,1,0,0,0.7457,optionLeft,95,5425,3,14,0,14,0,1,,,,,,,,,,,,,,,,,,,,,,,,,,,,,,,,,,,,,,,
,,,,,,,,2023-08-16_08h54.27.153,HF_wild_card,2022.2.4,Win32,59.91970759,5ebd5be631748b03f7273769,64d2fd46c836a06233681665,64dc80a2fdd3ca2501be8968,,,,,,,sngl,resources/DR.BMP,resources/Empty.png,Door3,-0.215740712,-0.109259288,1,0,0,0.6454,optionLeft,70,5495,3,15,0,15,0,1,,,,,,,,,,,,,,,,,,,,,,,,,,,,,,,,,,,,,,,
,,,,,,,,2023-08-16_08h54.27.153,HF_wild_card,2022.2.4,Win32,59.91970759,5ebd5be631748b03f7273769,64d2fd46c836a06233681665,64dc80a2fdd3ca2501be8968,,,,,,,sngl,resources/DY.BMP,resources/Empty.png,Door2,-0.220370356,-0.102777778,1,0,0,0.7286,optionLeft,40,5535,3,16,0,16,0,1,,,,,,,,,,,,,,,,,,,,,,,,,,,,,,,,,,,,,,,
,,,,,,,,2023-08-16_08h54.27.153,HF_wild_card,2022.2.4,Win32,59.91970759,5ebd5be631748b03f7273769,64d2fd46c836a06233681665,64dc80a2fdd3ca2501be8968,,,,,,,decisionTrl,resources/DBN.BMP,resources/DG.BMP,Door1,0.232407464,0.071296268,1,0,0,0.5612,optionRight,30,5565,3,17,0,17,0,1,,,,,,,,,,,,,,,,,,,,,,,,,,,,,,,,,,,,,,,
,,,,,,,,2023-08-16_08h54.27.153,HF_wild_card,2022.2.4,Win32,59.91970759,5ebd5be631748b03f7273769,64d2fd46c836a06233681665,64dc80a2fdd3ca2501be8968,,,,,,,ctch,resources/DR.BMP,resources/DY.BMP,Door3,-0.215740712,-0.082407422,1,0,0,0.8293,optionLeft,70,5635,3,18,0,18,0,1,,,,,,,,,,,,,,,,,,,,,,,,,,,,,,,,,,,,,,,
,,,,,,,,2023-08-16_08h54.27.153,HF_wild_card,2022.2.4,Win32,59.91970759,5ebd5be631748b03f7273769,64d2fd46c836a06233681665,64dc80a2fdd3ca2501be8968,,,,,,,ctch,resources/DB.BMP,resources/DG.BMP,Door4,-0.195370356,-0.080555556,1,0,0,0.746,optionLeft,60,5695,3,19,0,19,0,1,,,,,,,,,,,,,,,,,,,,,,,,,,,,,,,,,,,,,,,
,,,,,,,,2023-08-16_08h54.27.153,HF_wild_card,2022.2.4,Win32,59.91970759,5ebd5be631748b03f7273769,64d2fd46c836a06233681665,64dc80a2fdd3ca2501be8968,,,,,,,ctch,resources/DG.BMP,resources/DB.BMP,Door4,0.28148151,0.102777778,1,0,0,0.8792,optionRight,80,5775,3,20,0,20,0,1,,,,,,,,,,,,,,,,,,,,,,,,,,,,,,,,,,,,,,,
,,,,,,,,2023-08-16_08h54.27.153,HF_wild_card,2022.2.4,Win32,59.91970759,5ebd5be631748b03f7273769,64d2fd46c836a06233681665,64dc80a2fdd3ca2501be8968,,,,,,,sngl,resources/DB.BMP,resources/Empty.png,Door4,-0.20370369,-0.090740755,1,0,0,0.6296,optionLeft,80,5855,3,21,0,21,0,1,,,,,,,,,,,,,,,,,,,,,,,,,,,,,,,,,,,,,,,
,,,,,,,,2023-08-16_08h54.27.153,HF_wild_card,2022.2.4,Win32,59.91970759,5ebd5be631748b03f7273769,64d2fd46c836a06233681665,64dc80a2fdd3ca2501be8968,,,,,,,decisionTrl,resources/DBN.BMP,resources/DY.BMP,WildCard_Ex,-0.331481467,0.115740712,1,0,0,2.5107,optionLeft,95,5950,3,22,0,22,0,1,,,,,,,,,,,,,,,,,,,,,,,,,,,,,,,,,,,,,,,
,,,,,,,,2023-08-16_08h54.27.153,HF_wild_card,2022.2.4,Win32,59.91970759,5ebd5be631748b03f7273769,64d2fd46c836a06233681665,64dc80a2fdd3ca2501be8968,,,,,,,sngl,resources/Empty.png,resources/DBN.BMP,WildCard_Ex,0.193518575,0.095370356,1,0,0,0.7119,optionRight,5,5955,3,23,0,23,0,1,,,,,,,,,,,,,,,,,,,,,,,,,,,,,,,,,,,,,,,
,,,,,,,,2023-08-16_08h54.27.153,HF_wild_card,2022.2.4,Win32,59.91970759,5ebd5be631748b03f7273769,64d2fd46c836a06233681665,64dc80a2fdd3ca2501be8968,,,,,,,decisionTrl,resources/DB.BMP,resources/DR.BMP,Door4,-0.213888889,0.074074046,1,0,0,0.7122,optionLeft,80,6035,3,24,0,24,0,1,,,,,,,,,,,,,,,,,,,,,,,,,,,,,,,,,,,,,,,
,,,,,,,,2023-08-16_08h54.27.153,HF_wild_card,2022.2.4,Win32,59.91970759,5ebd5be631748b03f7273769,64d2fd46c836a06233681665,64dc80a2fdd3ca2501be8968,,,,,,,decisionTrl,resources/DG.BMP,resources/DY.BMP,Door1,-0.256481467,0.112037023,1,0,0,0.6301,optionLeft,30,6065,3,25,0,25,0,1,,,,,,,,,,,,,,,,,,,,,,,,,,,,,,,,,,,,,,,
,,,,,,,,2023-08-16_08h54.27.153,HF_wild_card,2022.2.4,Win32,59.91970759,5ebd5be631748b03f7273769,64d2fd46c836a06233681665,64dc80a2fdd3ca2501be8968,,,,,,,decisionTrl,resources/DY.BMP,resources/DG.BMP,Door2,-0.209259245,0.075,1,0,0,0.6118,optionLeft,40,6105,3,26,0,26,0,1,,,,,,,,,,,,,,,,,,,,,,,,,,,,,,,,,,,,,,,
,,,,,,,,2023-08-16_08h54.27.153,HF_wild_card,2022.2.4,Win32,59.91970759,5ebd5be631748b03f7273769,64d2fd46c836a06233681665,64dc80a2fdd3ca2501be8968,,,,,,,decisionTrl,resources/DY.BMP,resources/DG.BMP,Door2,-0.208333333,0.104629601,1,0,0,0.6128,optionLeft,40,6145,3,27,0,27,0,1,,,,,,,,,,,,,,,,,,,,,,,,,,,,,,,,,,,,,,,
,,,,,,,,2023-08-16_08h54.27.153,HF_wild_card,2022.2.4,Win32,59.91970759,5ebd5be631748b03f7273769,64d2fd46c836a06233681665,64dc80a2fdd3ca2501be8968,,,,,,,sngl,resources/Empty.png,resources/DG.BMP,Door1,0.190740797,0.124074046,1,0,0,0.6783,optionRight,30,6175,3,28,0,28,0,1,,,,,,,,,,,,,,,,,,,,,,,,,,,,,,,,,,,,,,,
,,,,,,,,2023-08-16_08h54.27.153,HF_wild_card,2022.2.4,Win32,59.91970759,5ebd5be631748b03f7273769,64d2fd46c836a06233681665,64dc80a2fdd3ca2501be8968,,,,,,,ctch,resources/DY.BMP,resources/DR.BMP,Door2,-0.246296268,0.055555556,1,0,0,0.6117,optionLeft,40,6215,3,29,0,29,0,1,,,,,,,,,,,,,,,,,,,,,,,,,,,,,,,,,,,,,,,
,,,,,,,,2023-08-16_08h54.27.153,HF_wild_card,2022.2.4,Win32,59.91970759,5ebd5be631748b03f7273769,64d2fd46c836a06233681665,64dc80a2fdd3ca2501be8968,,,,,,,decisionTrl,resources/DY.BMP,resources/DG.BMP,Door2,-0.205555556,0.125925912,1,0,0,0.662,optionLeft,40,6255,3,30,0,30,0,1,,,,,,,,,,,,,,,,,,,,,,,,,,,,,,,,,,,,,,,
,,,,,,,,2023-08-16_08h54.27.153,HF_wild_card,2022.2.4,Win32,59.91970759,5ebd5be631748b03f7273769,64d2fd46c836a06233681665,64dc80a2fdd3ca2501be8968,,,,,,,sngl,resources/DBN.BMP,resources/Empty.png,WildCard_Ex,-0.26851849,0.17870369,1,0,0,0.6298,optionLeft,5,6260,3,31,0,31,0,1,,,,,,,,,,,,,,,,,,,,,,,,,,,,,,,,,,,,,,,
,,,,,,,,2023-08-16_08h54.27.153,HF_wild_card,2022.2.4,Win32,59.91970759,5ebd5be631748b03f7273769,64d2fd46c836a06233681665,64dc80a2fdd3ca2501be8968,,,,,,,decisionTrl,resources/DG.BMP,resources/DBN.BMP,WildCard_Ex,0.18148151,0.15,1,0,0,0.662,optionRight,95,6355,3,32,0,32,0,1,,,,,,,,,,,,,,,,,,,,,,,,,,,,,,,,,,,,,,,
,,,,,,,,2023-08-16_08h54.27.153,HF_wild_card,2022.2.4,Win32,59.91970759,5ebd5be631748b03f7273769,64d2fd46c836a06233681665,64dc80a2fdd3ca2501be8968,,,,,,,decisionTrl,resources/DBN.BMP,resources/DB.BMP,WildCard_Ex,-0.24351849,0.097222222,1,0,0,0.5947,optionLeft,5,6360,3,33,0,33,0,1,,,,,,,,,,,,,,,,,,,,,,,,,,,,,,,,,,,,,,,
,,,,,,,,2023-08-16_08h54.27.153,HF_wild_card,2022.2.4,Win32,59.91970759,5ebd5be631748b03f7273769,64d2fd46c836a06233681665,64dc80a2fdd3ca2501be8968,,,,,,,decisionTrl,resources/DY.BMP,resources/DBN.BMP,WildCard_Ex,0.180555556,0.129629601,1,0,0,0.7954,optionRight,95,6455,3,34,0,34,0,1,,,,,,,,,,,,,,,,,,,,,,,,,,,,,,,,,,,,,,,
,,,,,,,,2023-08-16_08h54.27.153,HF_wild_card,2022.2.4,Win32,59.91970759,5ebd5be631748b03f7273769,64d2fd46c836a06233681665,64dc80a2fdd3ca2501be8968,,,,,,,ctch,resources/DB.BMP,resources/DG.BMP,Door4,-0.214814801,0.109259245,1,0,0,0.6782,optionLeft,60,6515,3,35,0,35,0,1,,,,,,,,,,,,,,,,,,,,,,,,,,,,,,,,,,,,,,,
,,,,,,,,2023-08-16_08h54.27.153,HF_wild_card,2022.2.4,Win32,59.91970759,5ebd5be631748b03f7273769,64d2fd46c836a06233681665,64dc80a2fdd3ca2501be8968,,,,,,,sngl,resources/Empty.png,resources/DY.BMP,Door2,0.198148176,0.136111111,1,0,0,0.7636,optionRight,20,6535,3,36,0,36,0,1,,,,,,,,,,,,,,,,,,,,,,,,,,,,,,,,,,,,,,,
,,,,,,,,2023-08-16_08h54.27.153,HF_wild_card,2022.2.4,Win32,59.91970759,5ebd5be631748b03f7273769,64d2fd46c836a06233681665,64dc80a2fdd3ca2501be8968,,,,,,,sngl,resources/Empty.png,resources/DB.BMP,Door4,0.213888889,0.110185157,1,0,0,0.882,optionRight,60,6595,3,37,0,37,0,1,,,,,,,,,,,,,,,,,,,,,,,,,,,,,,,,,,,,,,,
,,,,,,,,2023-08-16_08h54.27.153,HF_wild_card,2022.2.4,Win32,59.91970759,5ebd5be631748b03f7273769,64d2fd46c836a06233681665,64dc80a2fdd3ca2501be8968,,,,,,,decisionTrl,resources/DR.BMP,resources/DB.BMP,Door3,-0.280555556,0.07870369,1,0,0,0.9155,optionLeft,70,6665,3,38,0,38,0,1,,,,,,,,,,,,,,,,,,,,,,,,,,,,,,,,,,,,,,,
,,,,,,,,2023-08-16_08h54.27.153,HF_wild_card,2022.2.4,Win32,59.91970759,5ebd5be631748b03f7273769,64d2fd46c836a06233681665,64dc80a2fdd3ca2501be8968,,,,,,,decisionTrl,resources/DR.BMP,resources/DBN.BMP,WildCard_Ex,0.176851908,0.116666667,1,0,0,0.8293,optionRight,5,6670,3,39,0,39,0,1,,,,,,,,,,,,,,,,,,,,,,,,,,,,,,,,,,,,,,,
,,,,,,,,2023-08-16_08h54.27.153,HF_wild_card,2022.2.4,Win32,59.91970759,5ebd5be631748b03f7273769,64d2fd46c836a06233681665,64dc80a2fdd3ca2501be8968,,,,,,,decisionTrl,resources/DB.BMP,resources/DR.BMP,Door4,-0.26851849,0.072222222,1,0,0,0.529,optionLeft,60,6730,3,40,0,40,0,1,,,,,,,,,,,,,,,,,,,,,,,,,,,,,,,,,,,,,,,
,,,,,,,,2023-08-16_08h54.27.153,HF_wild_card,2022.2.4,Win32,59.91970759,5ebd5be631748b03f7273769,64d2fd46c836a06233681665,64dc80a2fdd3ca2501be8968,,,,,,,ctch,resources/DG.BMP,resources/DB.BMP,Door1,-0.198148134,0.12870369,1,0,0,0.6119,optionLeft,30,6760,3,41,0,41,0,1,,,,,,,,,,,,,,,,,,,,,,,,,,,,,,,,,,,,,,,
,,,,,,,,2023-08-16_08h54.27.153,HF_wild_card,2022.2.4,Win32,59.91970759,5ebd5be631748b03f7273769,64d2fd46c836a06233681665,64dc80a2fdd3ca2501be8968,,,,,,,ctch,resources/DY.BMP,resources/DR.BMP,Door3,0.177777778,0.161111111,1,0,0,0.9955,optionRight,70,6830,3,42,0,42,0,1,,,,,,,,,,,,,,,,,,,,,,,,,,,,,,,,,,,,,,,
,,,,,,,,2023-08-16_08h54.27.153,HF_wild_card,2022.2.4,Win32,59.91970759,5ebd5be631748b03f7273769,64d2fd46c836a06233681665,64dc80a2fdd3ca2501be8968,,,,,,,decisionTrl,resources/DR.BMP,resources/DB.BMP,Door3,-0.233333333,0.113888889,1,0,0,0.8291,optionLeft,70,6900,3,43,0,43,0,1,,,,,,,,,,,,,,,,,,,,,,,,,,,,,,,,,,,,,,,
,,,,,,,,2023-08-16_08h54.27.153,HF_wild_card,2022.2.4,Win32,59.91970759,5ebd5be631748b03f7273769,64d2fd46c836a06233681665,64dc80a2fdd3ca2501be8968,,,,,,,,,,,,,,,,,,,,,,,,,,2,0,2,0,1,,,,,,,,,,,,,,,,,,,,,,,,,,,,,,,,,,
,,,,,,,,2023-08-16_08h54.27.153,HF_wild_card,2022.2.4,Win32,59.91970759,5ebd5be631748b03f7273769,64d2fd46c836a06233681665,64dc80a2fdd3ca2501be8968,,,,,,,sngl,resources/DP.BMP,resources/Empty.png,WildCard_NonEx,-0.322222222,0.134259245,1,0,0,0.9769,optionLeft,55,6955,4,0,0,0,0,1,,,,,,,,,,,,,,,,,,,,,,,,,,,,,,,,,,,,,,,
,,,,,,,,2023-08-16_08h54.27.153,HF_wild_card,2022.2.4,Win32,59.91970759,5ebd5be631748b03f7273769,64d2fd46c836a06233681665,64dc80a2fdd3ca2501be8968,,,,,,,decisionTrl,resources/DY.BMP,resources/DG.BMP,Door1,0.150925954,0.146296289,1,0,0,1.2116,optionRight,30,6985,4,1,0,1,0,1,,,,,,,,,,,,,,,,,,,,,,,,,,,,,,,,,,,,,,,
,,,,,,,,2023-08-16_08h54.27.153,HF_wild_card,2022.2.4,Win32,59.91970759,5ebd5be631748b03f7273769,64d2fd46c836a06233681665,64dc80a2fdd3ca2501be8968,,,,,,,ctch,resources/DR.BMP,resources/DY.BMP,Door3,-0.212037023,0.047222222,1,0,0,0.8125,optionLeft,70,7055,4,2,0,2,0,1,,,,,,,,,,,,,,,,,,,,,,,,,,,,,,,,,,,,,,,
,,,,,,,,2023-08-16_08h54.27.153,HF_wild_card,2022.2.4,Win32,59.91970759,5ebd5be631748b03f7273769,64d2fd46c836a06233681665,64dc80a2fdd3ca2501be8968,,,,,,,sngl,resources/DR.BMP,resources/Empty.png,Door3,-0.277777778,0.034259245,1,0,0,0.5442,optionLeft,70,7125,4,3,0,3,0,1,,,,,,,,,,,,,,,,,,,,,,,,,,,,,,,,,,,,,,,
,,,,,,,,2023-08-16_08h54.27.153,HF_wild_card,2022.2.4,Win32,59.91970759,5ebd5be631748b03f7273769,64d2fd46c836a06233681665,64dc80a2fdd3ca2501be8968,,,,,,,decisionTrl,resources/DG.BMP,resources/DY.BMP,Door1,-0.245370356,0.149074067,1,0,0,0.8611,optionLeft,30,7155,4,4,0,4,0,1,,,,,,,,,,,,,,,,,,,,,,,,,,,,,,,,,,,,,,,
,,,,,,,,2023-08-16_08h54.27.153,HF_wild_card,2022.2.4,Win32,59.91970759,5ebd5be631748b03f7273769,64d2fd46c836a06233681665,64dc80a2fdd3ca2501be8968,,,,,,,ctch,resources/DY.BMP,resources/DR.BMP,Door2,-0.232407379,0.1574074,1,0,0,0.645,optionLeft,20,7175,4,5,0,5,0,1,,,,,,,,,,,,,,,,,,,,,,,,,,,,,,,,,,,,,,,
,,,,,,,,2023-08-16_08h54.27.153,HF_wild_card,2022.2.4,Win32,59.91970759,5ebd5be631748b03f7273769,64d2fd46c836a06233681665,64dc80a2fdd3ca2501be8968,,,,,,,sngl,resources/DP.BMP,resources/Empty.png,WildCard_NonEx,-0.25370369,0.146296289,1,0,0,0.5623,optionLeft,45,7220,4,6,0,6,0,1,,,,,,,,,,,,,,,,,,,,,,,,,,,,,,,,,,,,,,,
,,,,,,,,2023-08-16_08h54.27.153,HF_wild_card,2022.2.4,Win32,59.91970759,5ebd5be631748b03f7273769,64d2fd46c836a06233681665,64dc80a2fdd3ca2501be8968,,,,,,,decisionTrl,resources/DR.BMP,resources/DB.BMP,Door4,0.177777778,0.135185157,1,0,0,0.9623,optionRight,80,7300,4,7,0,7,0,1,,,,,,,,,,,,,,,,,,,,,,,,,,,,,,,,,,,,,,,
,,,,,,,,2023-08-16_08h54.27.153,HF_wild_card,2022.2.4,Win32,59.91970759,5ebd5be631748b03f7273769,64d2fd46c836a06233681665,64dc80a2fdd3ca2501be8968,,,,,,,decisionTrl,resources/DG.BMP,resources/DY.BMP,Door1,-0.257407379,0.074074046,1,0,0,0.5444,optionLeft,30,7330,4,8,0,8,0,1,,,,,,,,,,,,,,,,,,,,,,,,,,,,,,,,,,,,,,,
,,,,,,,,2023-08-16_08h54.27.153,HF_wild_card,2022.2.4,Win32,59.91970759,5ebd5be631748b03f7273769,64d2fd46c836a06233681665,64dc80a2fdd3ca2501be8968,,,,,,,decisionTrl,resources/DG.BMP,resources/DY.BMP,Door1,-0.200925912,0.115740712,1,0,0,0.4618,optionLeft,30,7360,4,9,0,9,0,1,,,,,,,,,,,,,,,,,,,,,,,,,,,,,,,,,,,,,,,
,,,,,,,,2023-08-16_08h54.27.153,HF_wild_card,2022.2.4,Win32,59.91970759,5ebd5be631748b03f7273769,64d2fd46c836a06233681665,64dc80a2fdd3ca2501be8968,,,,,,,decisionTrl,resources/DR.BMP,resources/DB.BMP,Door4,0.147222222,0.149074067,1,0,0,0.6614,optionRight,60,7420,4,10,0,10,0,1,,,,,,,,,,,,,,,,,,,,,,,,,,,,,,,,,,,,,,,
,,,,,,,,2023-08-16_08h54.27.153,HF_wild_card,2022.2.4,Win32,59.91970759,5ebd5be631748b03f7273769,64d2fd46c836a06233681665,64dc80a2fdd3ca2501be8968,,,,,,,decisionTrl,resources/DB.BMP,resources/DR.BMP,Door3,0.175925954,0.167592578,1,0,0,0.6615,optionRight,70,7490,4,11,0,11,0,1,,,,,,,,,,,,,,,,,,,,,,,,,,,,,,,,,,,,,,,
,,,,,,,,2023-08-16_08h54.27.153,HF_wild_card,2022.2.4,Win32,59.91970759,5ebd5be631748b03f7273769,64d2fd46c836a06233681665,64dc80a2fdd3ca2501be8968,,,,,,,decisionTrl,resources/DR.BMP,resources/DP.BMP,Door3,-0.244444444,0.067592578,1,0,0,0.5291,optionLeft,70,7560,4,12,0,12,0,1,,,,,,,,,,,,,,,,,,,,,,,,,,,,,,,,,,,,,,,
,,,,,,,,2023-08-16_08h54.27.153,HF_wild_card,2022.2.4,Win32,59.91970759,5ebd5be631748b03f7273769,64d2fd46c836a06233681665,64dc80a2fdd3ca2501be8968,,,,,,,decisionTrl,resources/DR.BMP,resources/DB.BMP,Door3,-0.254629601,0.147222222,1,0,0,0.6459,optionLeft,70,7630,4,13,0,13,0,1,,,,,,,,,,,,,,,,,,,,,,,,,,,,,,,,,,,,,,,
,,,,,,,,2023-08-16_08h54.27.153,HF_wild_card,2022.2.4,Win32,59.91970759,5ebd5be631748b03f7273769,64d2fd46c836a06233681665,64dc80a2fdd3ca2501be8968,,,,,,,decisionTrl,resources/DG.BMP,resources/DY.BMP,Door1,-0.240740712,0.090740712,1,0,0,1.0954,optionLeft,30,7660,4,14,0,14,0,1,,,,,,,,,,,,,,,,,,,,,,,,,,,,,,,,,,,,,,,
,,,,,,,,2023-08-16_08h54.27.153,HF_wild_card,2022.2.4,Win32,59.91970759,5ebd5be631748b03f7273769,64d2fd46c836a06233681665,64dc80a2fdd3ca2501be8968,,,,,,,ctch,resources/DB.BMP,resources/DG.BMP,Door4,-0.226851824,0.129629601,1,0,0,0.6292,optionLeft,60,7720,4,15,0,15,0,1,,,,,,,,,,,,,,,,,,,,,,,,,,,,,,,,,,,,,,,
,,,,,,,,2023-08-16_08h54.27.153,HF_wild_card,2022.2.4,Win32,59.91970759,5ebd5be631748b03f7273769,64d2fd46c836a06233681665,64dc80a2fdd3ca2501be8968,,,,,,,sngl,resources/DB.BMP,resources/Empty.png,Door4,-0.250925912,0.15,1,0,0,0.6446,optionLeft,60,7780,4,16,0,16,0,1,,,,,,,,,,,,,,,,,,,,,,,,,,,,,,,,,,,,,,,
,,,,,,,,2023-08-16_08h54.27.153,HF_wild_card,2022.2.4,Win32,59.91970759,5ebd5be631748b03f7273769,64d2fd46c836a06233681665,64dc80a2fdd3ca2501be8968,,,,,,,ctch,resources/DG.BMP,resources/DB.BMP,Door4,0.159259288,0.1574074,1,0,0,0.8452,optionRight,80,7860,4,17,0,17,0,1,,,,,,,,,,,,,,,,,,,,,,,,,,,,,,,,,,,,,,,
,,,,,,,,2023-08-16_08h54.27.153,HF_wild_card,2022.2.4,Win32,59.91970759,5ebd5be631748b03f7273769,64d2fd46c836a06233681665,64dc80a2fdd3ca2501be8968,,,,,,,decisionTrl,resources/DB.BMP,resources/DP.BMP,Door4,-0.284259245,0.097222222,1,0,0,0.7435,optionLeft,80,7940,4,18,0,18,0,1,,,,,,,,,,,,,,,,,,,,,,,,,,,,,,,,,,,,,,,
,,,,,,,,2023-08-16_08h54.27.153,HF_wild_card,2022.2.4,Win32,59.91970759,5ebd5be631748b03f7273769,64d2fd46c836a06233681665,64dc80a2fdd3ca2501be8968,,,,,,,decisionTrl,resources/DP.BMP,resources/DY.BMP,Door2,0.172222222,0.148148134,1,0,0,0.9564,optionRight,20,7960,4,19,0,19,0,1,,,,,,,,,,,,,,,,,,,,,,,,,,,,,,,,,,,,,,,
,,,,,,,,2023-08-16_08h54.27.153,HF_wild_card,2022.2.4,Win32,59.91970759,5ebd5be631748b03f7273769,64d2fd46c836a06233681665,64dc80a2fdd3ca2501be8968,,,,,,,decisionTrl,resources/DG.BMP,resources/DP.BMP,Door1,-0.219444444,0.045370356,1,0,0,1.8044,optionLeft,30,7990,4,20,0,20,0,1,,,,,,,,,,,,,,,,,,,,,,,,,,,,,,,,,,,,,,,
,,,,,,,,2023-08-16_08h54.27.153,HF_wild_card,2022.2.4,Win32,59.91970759,5ebd5be631748b03f7273769,64d2fd46c836a06233681665,64dc80a2fdd3ca2501be8968,,,,,,,ctch,resources/DB.BMP,resources/DG.BMP,Door4,-0.142592536,0.148148134,1,0,0,0.7371,optionLeft,60,8050,4,21,0,21,0,1,,,,,,,,,,,,,,,,,,,,,,,,,,,,,,,,,,,,,,,
,,,,,,,,2023-08-16_08h54.27.153,HF_wild_card,2022.2.4,Win32,59.91970759,5ebd5be631748b03f7273769,64d2fd46c836a06233681665,64dc80a2fdd3ca2501be8968,,,,,,,decisionTrl,resources/DR.BMP,resources/DB.BMP,Door3,-0.237962935,0.125925912,1,0,0,0.5038,optionLeft,70,8120,4,22,0,22,0,1,,,,,,,,,,,,,,,,,,,,,,,,,,,,,,,,,,,,,,,
,,,,,,,,2023-08-16_08h54.27.153,HF_wild_card,2022.2.4,Win32,59.91970759,5ebd5be631748b03f7273769,64d2fd46c836a06233681665,64dc80a2fdd3ca2501be8968,,,,,,,decisionTrl,resources/DP.BMP,resources/DG.BMP,Door1,0.162037065,0.127777778,1,0,0,1.2196,optionRight,30,8150,4,23,0,23,0,1,,,,,,,,,,,,,,,,,,,,,,,,,,,,,,,,,,,,,,,
,,,,,,,,2023-08-16_08h54.27.153,HF_wild_card,2022.2.4,Win32,59.91970759,5ebd5be631748b03f7273769,64d2fd46c836a06233681665,64dc80a2fdd3ca2501be8968,,,,,,,sngl,resources/Empty.png,resources/DP.BMP,WildCard_NonEx,0.185185242,0.130555556,1,0,0,0.6946,optionRight,55,8205,4,24,0,24,0,1,,,,,,,,,,,,,,,,,,,,,,,,,,,,,,,,,,,,,,,
,,,,,,,,2023-08-16_08h54.27.153,HF_wild_card,2022.2.4,Win32,59.91970759,5ebd5be631748b03f7273769,64d2fd46c836a06233681665,64dc80a2fdd3ca2501be8968,,,,,,,ctch,resources/DY.BMP,resources/DR.BMP,Door3,0.179629686,0.12870369,1,0,0,1.461,optionRight,70,8275,4,25,0,25,0,1,,,,,,,,,,,,,,,,,,,,,,,,,,,,,,,,,,,,,,,
,,,,,,,,2023-08-16_08h54.27.153,HF_wild_card,2022.2.4,Win32,59.91970759,5ebd5be631748b03f7273769,64d2fd46c836a06233681665,64dc80a2fdd3ca2501be8968,,,,,,,decisionTrl,resources/DB.BMP,resources/DR.BMP,Door4,-0.227777778,0.021296268,1,0,0,0.6285,optionLeft,60,8335,4,26,0,26,0,1,,,,,,,,,,,,,,,,,,,,,,,,,,,,,,,,,,,,,,,
,,,,,,,,2023-08-16_08h54.27.153,HF_wild_card,2022.2.4,Win32,59.91970759,5ebd5be631748b03f7273769,64d2fd46c836a06233681665,64dc80a2fdd3ca2501be8968,,,,,,,sngl,resources/DY.BMP,resources/Empty.png,Door2,-0.186111111,0.137962935,1,0,0,0.6459,optionLeft,20,8355,4,27,0,27,0,1,,,,,,,,,,,,,,,,,,,,,,,,,,,,,,,,,,,,,,,
,,,,,,,,2023-08-16_08h54.27.153,HF_wild_card,2022.2.4,Win32,59.91970759,5ebd5be631748b03f7273769,64d2fd46c836a06233681665,64dc80a2fdd3ca2501be8968,,,,,,,sngl,resources/DG.BMP,resources/Empty.png,Door1,-0.207407379,0.106481467,1,0,0,0.7119,optionLeft,30,8385,4,28,0,28,0,1,,,,,,,,,,,,,,,,,,,,,,,,,,,,,,,,,,,,,,,
,,,,,,,,2023-08-16_08h54.27.153,HF_wild_card,2022.2.4,Win32,59.91970759,5ebd5be631748b03f7273769,64d2fd46c836a06233681665,64dc80a2fdd3ca2501be8968,,,,,,,decisionTrl,resources/DY.BMP,resources/DP.BMP,WildCard_NonEx,0.334259288,0.01851849,1,0,0,1.1617,optionRight,55,8440,4,29,0,29,0,1,,,,,,,,,,,,,,,,,,,,,,,,,,,,,,,,,,,,,,,
,,,,,,,,2023-08-16_08h54.27.153,HF_wild_card,2022.2.4,Win32,59.91970759,5ebd5be631748b03f7273769,64d2fd46c836a06233681665,64dc80a2fdd3ca2501be8968,,,,,,,sngl,resources/Empty.png,resources/DP.BMP,WildCard_NonEx,0.255555556,-0.040740755,1,0,0,0.9844,optionRight,45,8485,4,30,0,30,0,1,,,,,,,,,,,,,,,,,,,,,,,,,,,,,,,,,,,,,,,
,,,,,,,,2023-08-16_08h54.27.153,HF_wild_card,2022.2.4,Win32,59.91970759,5ebd5be631748b03f7273769,64d2fd46c836a06233681665,64dc80a2fdd3ca2501be8968,,,,,,,decisionTrl,resources/DB.BMP,resources/DR.BMP,Door3,0.274074131,-0.069444444,1,0,0,1.229,optionRight,70,8555,4,31,0,31,0,1,,,,,,,,,,,,,,,,,,,,,,,,,,,,,,,,,,,,,,,
,,,,,,,,2023-08-16_08h54.27.153,HF_wild_card,2022.2.4,Win32,59.91970759,5ebd5be631748b03f7273769,64d2fd46c836a06233681665,64dc80a2fdd3ca2501be8968,,,,,,,sngl,resources/Empty.png,resources/DY.BMP,Door2,0.222222222,-0.085185199,1,0,0,0.7112,optionRight,40,8595,4,32,0,32,0,1,,,,,,,,,,,,,,,,,,,,,,,,,,,,,,,,,,,,,,,
,,,,,,,,2023-08-16_08h54.27.153,HF_wild_card,2022.2.4,Win32,59.91970759,5ebd5be631748b03f7273769,64d2fd46c836a06233681665,64dc80a2fdd3ca2501be8968,,,,,,,ctch,resources/DG.BMP,resources/DB.BMP,Door4,0.212037065,-0.097222222,1,0,0,1.378,optionRight,80,8675,4,33,0,33,0,1,,,,,,,,,,,,,,,,,,,,,,,,,,,,,,,,,,,,,,,
,,,,,,,,2023-08-16_08h54.27.153,HF_wild_card,2022.2.4,Win32,59.91970759,5ebd5be631748b03f7273769,64d2fd46c836a06233681665,64dc80a2fdd3ca2501be8968,,,,,,,decisionTrl,resources/DP.BMP,resources/DB.BMP,Door4,0.210185242,-0.067592621,1,0,0,0.9279,optionRight,80,8755,4,34,0,34,0,1,,,,,,,,,,,,,,,,,,,,,,,,,,,,,,,,,,,,,,,
,,,,,,,,2023-08-16_08h54.27.153,HF_wild_card,2022.2.4,Win32,59.91970759,5ebd5be631748b03f7273769,64d2fd46c836a06233681665,64dc80a2fdd3ca2501be8968,,,,,,,decisionTrl,resources/DB.BMP,resources/DR.BMP,Door3,0.201851908,-0.098148176,1,0,0,0.5966,optionRight,70,8825,4,35,0,35,0,1,,,,,,,,,,,,,,,,,,,,,,,,,,,,,,,,,,,,,,,
,,,,,,,,2023-08-16_08h54.27.153,HF_wild_card,2022.2.4,Win32,59.91970759,5ebd5be631748b03f7273769,64d2fd46c836a06233681665,64dc80a2fdd3ca2501be8968,,,,,,,sngl,resources/Empty.png,resources/DG.BMP,Door1,0.229629686,-0.115740755,1,0,0,0.6113,optionRight,30,8855,4,36,0,36,0,1,,,,,,,,,,,,,,,,,,,,,,,,,,,,,,,,,,,,,,,
,,,,,,,,2023-08-16_08h54.27.153,HF_wild_card,2022.2.4,Win32,59.91970759,5ebd5be631748b03f7273769,64d2fd46c836a06233681665,64dc80a2fdd3ca2501be8968,,,,,,,sngl,resources/Empty.png,resources/DR.BMP,Door3,0.235185242,-0.112962977,1,0,0,0.546,optionRight,70,8925,4,37,0,37,0,1,,,,,,,,,,,,,,,,,,,,,,,,,,,,,,,,,,,,,,,
,,,,,,,,2023-08-16_08h54.27.153,HF_wild_card,2022.2.4,Win32,59.91970759,5ebd5be631748b03f7273769,64d2fd46c836a06233681665,64dc80a2fdd3ca2501be8968,,,,,,,decisionTrl,resources/DY.BMP,resources/DG.BMP,Door1,0.224074131,-0.117592621,1,0,0,0.9451,optionRight,30,8955,4,38,0,38,0,1,,,,,,,,,,,,,,,,,,,,,,,,,,,,,,,,,,,,,,,
,,,,,,,,2023-08-16_08h54.27.153,HF_wild_card,2022.2.4,Win32,59.91970759,5ebd5be631748b03f7273769,64d2fd46c836a06233681665,64dc80a2fdd3ca2501be8968,,,,,,,decisionTrl,resources/DY.BMP,resources/DG.BMP,Door1,0.223148176,-0.098148176,1,0,0,0.9463,optionRight,30,8985,4,39,0,39,0,1,,,,,,,,,,,,,,,,,,,,,,,,,,,,,,,,,,,,,,,
,,,,,,,,2023-08-16_08h54.27.153,HF_wild_card,2022.2.4,Win32,59.91970759,5ebd5be631748b03f7273769,64d2fd46c836a06233681665,64dc80a2fdd3ca2501be8968,,,,,,,decisionTrl,resources/DP.BMP,resources/DR.BMP,WildCard_NonEx,-0.205555556,0.044444444,1,0,0,0.5782,optionLeft,45,9030,4,40,0,40,0,1,,,,,,,,,,,,,,,,,,,,,,,,,,,,,,,,,,,,,,,
,,,,,,,,2023-08-16_08h54.27.153,HF_wild_card,2022.2.4,Win32,59.91970759,5ebd5be631748b03f7273769,64d2fd46c836a06233681665,64dc80a2fdd3ca2501be8968,,,,,,,sngl,resources/Empty.png,resources/DB.BMP,Door4,0.221296353,-0.104629644,1,0,0,0.5127,optionRight,80,9110,4,41,0,41,0,1,,,,,,,,,,,,,,,,,,,,,,,,,,,,,,,,,,,,,,,
,,,,,,,,2023-08-16_08h54.27.153,HF_wild_card,2022.2.4,Win32,59.91970759,5ebd5be631748b03f7273769,64d2fd46c836a06233681665,64dc80a2fdd3ca2501be8968,,,,,,,ctch,resources/DR.BMP,resources/DY.BMP,Door3,-0.326851824,0.075,1,0,0,0.9457,optionLeft,70,9180,4,42,0,42,0,1,,,,,,,,,,,,,,,,,,,,,,,,,,,,,,,,,,,,,,,
,,,,,,,,2023-08-16_08h54.27.153,HF_wild_card,2022.2.4,Win32,59.91970759,5ebd5be631748b03f7273769,64d2fd46c836a06233681665,64dc80a2fdd3ca2501be8968,,,,,,,decisionTrl,resources/DY.BMP,resources/DG.BMP,Door1,0.203703732,-0.136111111,1,0,0,0.8452,optionRight,30,9210,4,43,0,43,0,1,,,,,,,,,,,,,,,,,,,,,,,,,,,,,,,,,,,,,,,
,,,,,,,,2023-08-16_08h54.27.153,HF_wild_card,2022.2.4,Win32,59.91970759,5ebd5be631748b03f7273769,64d2fd46c836a06233681665,64dc80a2fdd3ca2501be8968,,,,,,,,,,,,,,,,,,,,,,,,,,3,0,3,0,1,,,,,,,,,,,,,,,,,,,,,,,,,,,,,,,,,,
,,,,,,,,2023-08-16_08h54.27.153,HF_wild_card,2022.2.4,Win32,59.91970759,5ebd5be631748b03f7273769,64d2fd46c836a06233681665,64dc80a2fdd3ca2501be8968,,,,,,,decisionTrl,resources/DB.BMP,resources/DR.BMP,Door3,0.287963019,-0.052777778,1,0,0,0.9891,optionRight,70,9280,5,0,0,0,0,1,,,,,,,,,,,,,,,,,,,,,,,,,,,,,,,,,,,,,,,
,,,,,,,,2023-08-16_08h54.27.153,HF_wild_card,2022.2.4,Win32,59.91970759,5ebd5be631748b03f7273769,64d2fd46c836a06233681665,64dc80a2fdd3ca2501be8968,,,,,,,decisionTrl,resources/DR.BMP,resources/DB.BMP,Door3,-0.235185157,0.005555556,1,0,0,1.0614,optionLeft,70,9350,5,1,0,1,0,1,,,,,,,,,,,,,,,,,,,,,,,,,,,,,,,,,,,,,,,
,,,,,,,,2023-08-16_08h54.27.153,HF_wild_card,2022.2.4,Win32,59.91970759,5ebd5be631748b03f7273769,64d2fd46c836a06233681665,64dc80a2fdd3ca2501be8968,,,,,,,decisionTrl,resources/DB.BMP,resources/DR.BMP,Door3,0.234259288,-0.110185199,1,0,0,0.6121,optionRight,70,9420,5,2,0,2,0,1,,,,,,,,,,,,,,,,,,,,,,,,,,,,,,,,,,,,,,,
,,,,,,,,2023-08-16_08h54.27.153,HF_wild_card,2022.2.4,Win32,59.91970759,5ebd5be631748b03f7273769,64d2fd46c836a06233681665,64dc80a2fdd3ca2501be8968,,,,,,,sngl,resources/DB.BMP,resources/Empty.png,Door4,-0.264814801,0.009259245,1,0,0,0.6608,optionLeft,80,9500,5,3,0,3,0,1,,,,,,,,,,,,,,,,,,,,,,,,,,,,,,,,,,,,,,,
,,,,,,,,2023-08-16_08h54.27.153,HF_wild_card,2022.2.4,Win32,59.91970759,5ebd5be631748b03f7273769,64d2fd46c836a06233681665,64dc80a2fdd3ca2501be8968,,,,,,,ctch,resources/DY.BMP,resources/DR.BMP,Door3,0.241666667,-0.119444444,1,0,0,0.7949,optionRight,70,9570,5,4,0,4,0,1,,,,,,,,,,,,,,,,,,,,,,,,,,,,,,,,,,,,,,,
,,,,,,,,2023-08-16_08h54.27.153,HF_wild_card,2022.2.4,Win32,59.91970759,5ebd5be631748b03f7273769,64d2fd46c836a06233681665,64dc80a2fdd3ca2501be8968,,,,,,,decisionTrl,resources/DG.BMP,resources/DY.BMP,Door2,0.215740797,-0.095370399,1,0,0,1.2122,optionRight,20,9590,5,5,0,5,0,1,,,,,,,,,,,,,,,,,,,,,,,,,,,,,,,,,,,,,,,
,,,,,,,,2023-08-16_08h54.27.153,HF_wild_card,2022.2.4,Win32,59.91970759,5ebd5be631748b03f7273769,64d2fd46c836a06233681665,64dc80a2fdd3ca2501be8968,,,,,,,sngl,resources/Empty.png,resources/DY.BMP,Door2,0.213888889,-0.123148176,1,0,0,0.6791,optionRight,20,9610,5,6,0,6,0,1,,,,,,,,,,,,,,,,,,,,,,,,,,,,,,,,,,,,,,,
,,,,,,,,2023-08-16_08h54.27.153,HF_wild_card,2022.2.4,Win32,59.91970759,5ebd5be631748b03f7273769,64d2fd46c836a06233681665,64dc80a2fdd3ca2501be8968,,,,,,,sngl,resources/Empty.png,resources/DP.BMP,WildCard_NonEx,0.213888889,-0.117592621,1,0,0,0.7125,optionRight,45,9655,5,7,0,7,0,1,,,,,,,,,,,,,,,,,,,,,,,,,,,,,,,,,,,,,,,
,,,,,,,,2023-08-16_08h54.27.153,HF_wild_card,2022.2.4,Win32,59.91970759,5ebd5be631748b03f7273769,64d2fd46c836a06233681665,64dc80a2fdd3ca2501be8968,,,,,,,decisionTrl,resources/DP.BMP,resources/DR.BMP,Door3,0.224074131,-0.102777778,1,0,0,0.9452,optionRight,70,9725,5,8,0,8,0,1,,,,,,,,,,,,,,,,,,,,,,,,,,,,,,,,,,,,,,,
,,,,,,,,2023-08-16_08h54.27.153,HF_wild_card,2022.2.4,Win32,59.91970759,5ebd5be631748b03f7273769,64d2fd46c836a06233681665,64dc80a2fdd3ca2501be8968,,,,,,,sngl,resources/DP.BMP,resources/Empty.png,WildCard_NonEx,-0.34351849,0.046296268,1,0,0,1.1455,optionLeft,45,9770,5,9,0,9,0,1,,,,,,,,,,,,,,,,,,,,,,,,,,,,,,,,,,,,,,,
,,,,,,,,2023-08-16_08h54.27.153,HF_wild_card,2022.2.4,Win32,59.91970759,5ebd5be631748b03f7273769,64d2fd46c836a06233681665,64dc80a2fdd3ca2501be8968,,,,,,,sngl,resources/Empty.png,resources/DP.BMP,WildCard_NonEx,0.23148151,-0.137037065,1,0,0,0.7279,optionRight,55,9825,5,10,0,10,0,1,,,,,,,,,,,,,,,,,,,,,,,,,,,,,,,,,,,,,,,
,,,,,,,,2023-08-16_08h54.27.153,HF_wild_card,2022.2.4,Win32,59.91970759,5ebd5be631748b03f7273769,64d2fd46c836a06233681665,64dc80a2fdd3ca2501be8968,,,,,,,decisionTrl,resources/DB.BMP,resources/DR.BMP,Door3,0.217592621,-0.138888889,1,0,0,0.7613,optionRight,70,9895,5,11,0,11,0,1,,,,,,,,,,,,,,,,,,,,,,,,,,,,,,,,,,,,,,,
,,,,,,,,2023-08-16_08h54.27.153,HF_wild_card,2022.2.4,Win32,59.91970759,5ebd5be631748b03f7273769,64d2fd46c836a06233681665,64dc80a2fdd3ca2501be8968,,,,,,,sngl,resources/Empty.png,resources/DG.BMP,Door1,0.223148176,-0.133333333,1,0,0,0.6623,optionRight,30,9925,5,12,0,12,0,1,,,,,,,,,,,,,,,,,,,,,,,,,,,,,,,,,,,,,,,
,,,,,,,,2023-08-16_08h54.27.153,HF_wild_card,2022.2.4,Win32,59.91970759,5ebd5be631748b03f7273769,64d2fd46c836a06233681665,64dc80a2fdd3ca2501be8968,,,,,,,sngl,resources/DY.BMP,resources/Empty.png,Door2,-0.217592578,0.065740712,1,0,0,0.6126,optionLeft,40,9965,5,13,0,13,0,1,,,,,,,,,,,,,,,,,,,,,,,,,,,,,,,,,,,,,,,
,,,,,,,,2023-08-16_08h54.27.153,HF_wild_card,2022.2.4,Win32,59.91970759,5ebd5be631748b03f7273769,64d2fd46c836a06233681665,64dc80a2fdd3ca2501be8968,,,,,,,ctch,resources/DY.BMP,resources/DR.BMP,Door3,0.234259288,-0.099074088,1,0,0,0.8315,optionRight,70,10035,5,14,0,14,0,1,,,,,,,,,,,,,,,,,,,,,,,,,,,,,,,,,,,,,,,
,,,,,,,,2023-08-16_08h54.27.153,HF_wild_card,2022.2.4,Win32,59.91970759,5ebd5be631748b03f7273769,64d2fd46c836a06233681665,64dc80a2fdd3ca2501be8968,,,,,,,decisionTrl,resources/DP.BMP,resources/DG.BMP,WildCard_NonEx,-0.276851824,0.074074046,1,0,0,2.146,optionLeft,55,10090,5,15,0,15,0,1,,,,,,,,,,,,,,,,,,,,,,,,,,,,,,,,,,,,,,,
,,,,,,,,2023-08-16_08h54.27.153,HF_wild_card,2022.2.4,Win32,59.91970759,5ebd5be631748b03f7273769,64d2fd46c836a06233681665,64dc80a2fdd3ca2501be8968,,,,,,,ctch,resources/DB.BMP,resources/DG.BMP,Door4,-0.256481467,0.042592578,1,0,0,1.4617,optionLeft,80,10170,5,16,0,16,0,1,,,,,,,,,,,,,,,,,,,,,,,,,,,,,,,,,,,,,,,
,,,,,,,,2023-08-16_08h54.27.153,HF_wild_card,2022.2.4,Win32,59.91970759,5ebd5be631748b03f7273769,64d2fd46c836a06233681665,64dc80a2fdd3ca2501be8968,,,,,,,decisionTrl,resources/DY.BMP,resources/DG.BMP,Door2,-0.260185157,0.014814801,1,0,0,1.2629,optionLeft,40,10210,5,17,0,17,0,1,,,,,,,,,,,,,,,,,,,,,,,,,,,,,,,,,,,,,,,
,,,,,,,,2023-08-16_08h54.27.153,HF_wild_card,2022.2.4,Win32,59.91970759,5ebd5be631748b03f7273769,64d2fd46c836a06233681665,64dc80a2fdd3ca2501be8968,,,,,,,ctch,resources/DG.BMP,resources/DB.BMP,Door4,0.294444444,-0.076851866,1,0,0,1.2784,optionRight,60,10270,5,18,0,18,0,1,,,,,,,,,,,,,,,,,,,,,,,,,,,,,,,,,,,,,,,
,,,,,,,,2023-08-16_08h54.27.153,HF_wild_card,2022.2.4,Win32,59.91970759,5ebd5be631748b03f7273769,64d2fd46c836a06233681665,64dc80a2fdd3ca2501be8968,,,,,,,decisionTrl,resources/DG.BMP,resources/DY.BMP,Door2,0.211111111,-0.112037065,1,0,0,1.1457,optionRight,20,10290,5,19,0,19,0,1,,,,,,,,,,,,,,,,,,,,,,,,,,,,,,,,,,,,,,,
,,,,,,,,2023-08-16_08h54.27.153,HF_wild_card,2022.2.4,Win32,59.91970759,5ebd5be631748b03f7273769,64d2fd46c836a06233681665,64dc80a2fdd3ca2501be8968,,,,,,,ctch,resources/DB.BMP,resources/DG.BMP,Door4,-0.241666667,0.042592578,1,0,0,0.6115,optionLeft,60,10350,5,20,0,20,0,1,,,,,,,,,,,,,,,,,,,,,,,,,,,,,,,,,,,,,,,
,,,,,,,,2023-08-16_08h54.27.153,HF_wild_card,2022.2.4,Win32,59.91970759,5ebd5be631748b03f7273769,64d2fd46c836a06233681665,64dc80a2fdd3ca2501be8968,,,,,,,decisionTrl,resources/DG.BMP,resources/DP.BMP,Door1,-0.267592578,0.033333333,1,0,0,0.9115,optionLeft,30,10380,5,21,0,21,0,1,,,,,,,,,,,,,,,,,,,,,,,,,,,,,,,,,,,,,,,
,,,,,,,,2023-08-16_08h54.27.153,HF_wild_card,2022.2.4,Win32,59.91970759,5ebd5be631748b03f7273769,64d2fd46c836a06233681665,64dc80a2fdd3ca2501be8968,,,,,,,decisionTrl,resources/DY.BMP,resources/DG.BMP,Door2,-0.227777778,0.039814801,1,0,0,1.0284,optionLeft,40,10420,5,22,0,22,0,1,,,,,,,,,,,,,,,,,,,,,,,,,,,,,,,,,,,,,,,
,,,,,,,,2023-08-16_08h54.27.153,HF_wild_card,2022.2.4,Win32,59.91970759,5ebd5be631748b03f7273769,64d2fd46c836a06233681665,64dc80a2fdd3ca2501be8968,,,,,,,decisionTrl,resources/DG.BMP,resources/DY.BMP,Door2,0.213888889,-0.075,1,0,0,1.6779,optionRight,20,10440,5,23,0,23,0,1,,,,,,,,,,,,,,,,,,,,,,,,,,,,,,,,,,,,,,,
,,,,,,,,2023-08-16_08h54.27.153,HF_wild_card,2022.2.4,Win32,59.91970759,5ebd5be631748b03f7273769,64d2fd46c836a06233681665,64dc80a2fdd3ca2501be8968,,,,,,,ctch,resources/DG.BMP,resources/DB.BMP,Door4,0.260185242,-0.120370399,1,0,0,0.8106,optionRight,80,10520,5,24,0,24,0,1,,,,,,,,,,,,,,,,,,,,,,,,,,,,,,,,,,,,,,,
,,,,,,,,2023-08-16_08h54.27.153,HF_wild_card,2022.2.4,Win32,59.91970759,5ebd5be631748b03f7273769,64d2fd46c836a06233681665,64dc80a2fdd3ca2501be8968,,,,,,,sngl,resources/DP.BMP,resources/Empty.png,WildCard_NonEx,-0.30370369,0.027777778,1,0,0,0.7957,optionLeft,55,10575,5,25,0,25,0,1,,,,,,,,,,,,,,,,,,,,,,,,,,,,,,,,,,,,,,,
,,,,,,,,2023-08-16_08h54.27.153,HF_wild_card,2022.2.4,Win32,59.91970759,5ebd5be631748b03f7273769,64d2fd46c836a06233681665,64dc80a2fdd3ca2501be8968,,,,,,,decisionTrl,resources/DR.BMP,resources/DB.BMP,Door3,-0.236111111,-0.043518533,1,0,0,0.7939,optionLeft,70,10645,5,26,0,26,0,1,,,,,,,,,,,,,,,,,,,,,,,,,,,,,,,,,,,,,,,
,,,,,,,,2023-08-16_08h54.27.153,HF_wild_card,2022.2.4,Win32,59.91970759,5ebd5be631748b03f7273769,64d2fd46c836a06233681665,64dc80a2fdd3ca2501be8968,,,,,,,decisionTrl,resources/DP.BMP,resources/DY.BMP,WildCard_NonEx,-0.184259245,-0.069444444,1,0,0,0.6465,optionLeft,55,10700,5,27,0,27,0,1,,,,,,,,,,,,,,,,,,,,,,,,,,,,,,,,,,,,,,,
,,,,,,,,2023-08-16_08h54.27.153,HF_wild_card,2022.2.4,Win32,59.91970759,5ebd5be631748b03f7273769,64d2fd46c836a06233681665,64dc80a2fdd3ca2501be8968,,,,,,,sngl,resources/DR.BMP,resources/Empty.png,Door3,-0.213888889,-0.093518533,1,0,0,0.6942,optionLeft,70,10770,5,28,0,28,0,1,,,,,,,,,,,,,,,,,,,,,,,,,,,,,,,,,,,,,,,
,,,,,,,,2023-08-16_08h54.27.153,HF_wild_card,2022.2.4,Win32,59.91970759,5ebd5be631748b03f7273769,64d2fd46c836a06233681665,64dc80a2fdd3ca2501be8968,,,,,,,decisionTrl,resources/DY.BMP,resources/DG.BMP,Door2,-0.198148134,-0.083333333,1,0,0,0.9625,optionLeft,40,10810,5,29,0,29,0,1,,,,,,,,,,,,,,,,,,,,,,,,,,,,,,,,,,,,,,,
,,,,,,,,2023-08-16_08h54.27.153,HF_wild_card,2022.2.4,Win32,59.91970759,5ebd5be631748b03f7273769,64d2fd46c836a06233681665,64dc80a2fdd3ca2501be8968,,,,,,,decisionTrl,resources/DR.BMP,resources/DB.BMP,Door4,0.309259288,0.087962935,1,0,0,0.595,optionRight,80,10890,5,30,0,30,0,1,,,,,,,,,,,,,,,,,,,,,,,,,,,,,,,,,,,,,,,
,,,,,,,,2023-08-16_08h54.27.153,HF_wild_card,2022.2.4,Win32,59.91970759,5ebd5be631748b03f7273769,64d2fd46c836a06233681665,64dc80a2fdd3ca2501be8968,,,,,,,ctch,resources/DR.BMP,resources/DY.BMP,Door3,-0.181481467,-0.059259288,1,0,0,0.6622,optionLeft,70,10960,5,31,0,31,0,1,,,,,,,,,,,,,,,,,,,,,,,,,,,,,,,,,,,,,,,
,,,,,,,,2023-08-16_08h54.27.153,HF_wild_card,2022.2.4,Win32,59.91970759,5ebd5be631748b03f7273769,64d2fd46c836a06233681665,64dc80a2fdd3ca2501be8968,,,,,,,decisionTrl,resources/DP.BMP,resources/DB.BMP,Door4,0.357407464,0.104629601,1,0,0,0.5118,optionRight,80,11040,5,32,0,32,0,1,,,,,,,,,,,,,,,,,,,,,,,,,,,,,,,,,,,,,,,
,,,,,,,,2023-08-16_08h54.27.153,HF_wild_card,2022.2.4,Win32,59.91970759,5ebd5be631748b03f7273769,64d2fd46c836a06233681665,64dc80a2fdd3ca2501be8968,,,,,,,decisionTrl,resources/DG.BMP,resources/DY.BMP,Door1,-0.188888889,-0.077777778,1,0,0,0.7454,optionLeft,30,11070,5,33,0,33,0,1,,,,,,,,,,,,,,,,,,,,,,,,,,,,,,,,,,,,,,,
,,,,,,,,2023-08-16_08h54.27.153,HF_wild_card,2022.2.4,Win32,59.91970759,5ebd5be631748b03f7273769,64d2fd46c836a06233681665,64dc80a2fdd3ca2501be8968,,,,,,,decisionTrl,resources/DY.BMP,resources/DP.BMP,WildCard_NonEx,0.328703732,0.083333333,1,0,0,1.0608,optionRight,55,11125,5,34,0,34,0,1,,,,,,,,,,,,,,,,,,,,,,,,,,,,,,,,,,,,,,,
,,,,,,,,2023-08-16_08h54.27.153,HF_wild_card,2022.2.4,Win32,59.91970759,5ebd5be631748b03f7273769,64d2fd46c836a06233681665,64dc80a2fdd3ca2501be8968,,,,,,,sngl,resources/DG.BMP,resources/Empty.png,Door1,-0.20370369,-0.080555556,1,0,0,0.7116,optionLeft,30,11155,5,35,0,35,0,1,,,,,,,,,,,,,,,,,,,,,,,,,,,,,,,,,,,,,,,
,,,,,,,,2023-08-16_08h54.27.153,HF_wild_card,2022.2.4,Win32,59.91970759,5ebd5be631748b03f7273769,64d2fd46c836a06233681665,64dc80a2fdd3ca2501be8968,,,,,,,sngl,resources/Empty.png,resources/DR.BMP,Door3,0.325925954,0.088888889,1,0,0,0.6114,optionRight,70,11225,5,36,0,36,0,1,,,,,,,,,,,,,,,,,,,,,,,,,,,,,,,,,,,,,,,
,,,,,,,,2023-08-16_08h54.27.153,HF_wild_card,2022.2.4,Win32,59.91970759,5ebd5be631748b03f7273769,64d2fd46c836a06233681665,64dc80a2fdd3ca2501be8968,,,,,,,sngl,resources/Empty.png,resources/DB.BMP,Door4,0.321296353,0.085185157,1,0,0,0.5296,optionRight,60,11285,5,37,0,37,0,1,,,,,,,,,,,,,,,,,,,,,,,,,,,,,,,,,,,,,,,
,,,,,,,,2023-08-16_08h54.27.153,HF_wild_card,2022.2.4,Win32,59.91970759,5ebd5be631748b03f7273769,64d2fd46c836a06233681665,64dc80a2fdd3ca2501be8968,,,,,,,decisionTrl,resources/DR.BMP,resources/DP.BMP,Door3,-0.181481467,-0.069444444,1,0,0,1.295,optionLeft,70,11355,5,38,0,38,0,1,,,,,,,,,,,,,,,,,,,,,,,,,,,,,,,,,,,,,,,
,,,,,,,,2023-08-16_08h54.27.153,HF_wild_card,2022.2.4,Win32,59.91970759,5ebd5be631748b03f7273769,64d2fd46c836a06233681665,64dc80a2fdd3ca2501be8968,,,,,,,decisionTrl,resources/DY.BMP,resources/DG.BMP,Door2,-0.17870369,-0.072222222,1,0,0,0.9286,optionLeft,20,11375,5,39,0,39,0,1,,,,,,,,,,,,,,,,,,,,,,,,,,,,,,,,,,,,,,,
,,,,,,,,2023-08-16_08h54.27.153,HF_wild_card,2022.2.4,Win32,59.91970759,5ebd5be631748b03f7273769,64d2fd46c836a06233681665,64dc80a2fdd3ca2501be8968,,,,,,,decisionTrl,resources/DB.BMP,resources/DP.BMP,Door4,-0.197222222,-0.05,1,0,0,1.3111,optionLeft,60,11435,5,40,0,40,0,1,,,,,,,,,,,,,,,,,,,,,,,,,,,,,,,,,,,,,,,
,,,,,,,,2023-08-16_08h54.27.153,HF_wild_card,2022.2.4,Win32,59.91970759,5ebd5be631748b03f7273769,64d2fd46c836a06233681665,64dc80a2fdd3ca2501be8968,,,,,,,ctch,resources/DR.BMP,resources/DY.BMP,Door3,-0.177777778,-0.064814843,1,0,0,0.7634,optionLeft,70,11505,5,41,0,41,0,1,,,,,,,,,,,,,,,,,,,,,,,,,,,,,,,,,,,,,,,
,,,,,,,,2023-08-16_08h54.27.153,HF_wild_card,2022.2.4,Win32,59.91970759,5ebd5be631748b03f7273769,64d2fd46c836a06233681665,64dc80a2fdd3ca2501be8968,,,,,,,decisionTrl,resources/DB.BMP,resources/DR.BMP,Door3,0.333333333,0.033333333,1,0,0,1.5956,optionRight,70,11575,5,42,0,42,0,1,,,,,,,,,,,,,,,,,,,,,,,,,,,,,,,,,,,,,,,
,,,,,,,,2023-08-16_08h54.27.153,HF_wild_card,2022.2.4,Win32,59.91970759,5ebd5be631748b03f7273769,64d2fd46c836a06233681665,64dc80a2fdd3ca2501be8968,,,,,,,decisionTrl,resources/DR.BMP,resources/DB.BMP,Door4,0.290740797,0.062962935,1,0,0,0.5278,optionRight,60,11635,5,43,0,43,0,1,,,,,,,,,,,,,,,,,,,,,,,,,,,,,,,,,,,,,,,
,,,,,,,,2023-08-16_08h54.27.153,HF_wild_card,2022.2.4,Win32,59.91970759,5ebd5be631748b03f7273769,64d2fd46c836a06233681665,64dc80a2fdd3ca2501be8968,,,,,,,,,,,,,,,,,,,,,,,,,,4,0,4,0,1,,,,,,,,,,,,,,,,,,,,,,,,,,,,,,,,,,
,,,,,,,,2023-08-16_08h54.27.153,HF_wild_card,2022.2.4,Win32,59.91970759,5ebd5be631748b03f7273769,64d2fd46c836a06233681665,64dc80a2fdd3ca2501be8968,,,,,,,decisionTrl,resources/DB.BMP,resources/DR.BMP,Door3,0.226851908,-0.061111111,1,0,0,1.2211,optionRight,70,11705,6,0,0,0,0,1,,,,,,,,,,,,,,,,,,,,,,,,,,,,,,,,,,,,,,,
,,,,,,,,2023-08-16_08h54.27.153,HF_wild_card,2022.2.4,Win32,59.91970759,5ebd5be631748b03f7273769,64d2fd46c836a06233681665,64dc80a2fdd3ca2501be8968,,,,,,,decisionTrl,resources/DP.BMP,resources/DB.BMP,Door4,0.214814843,-0.152777778,1,0,0,0.6942,optionRight,80,11785,6,1,0,1,0,1,,,,,,,,,,,,,,,,,,,,,,,,,,,,,,,,,,,,,,,
,,,,,,,,2023-08-16_08h54.27.153,HF_wild_card,2022.2.4,Win32,59.91970759,5ebd5be631748b03f7273769,64d2fd46c836a06233681665,64dc80a2fdd3ca2501be8968,,,,,,,decisionTrl,resources/DB.BMP,resources/DR.BMP,Door4,-0.219444444,0.035185157,1,0,0,0.5622,optionLeft,80,11865,6,2,0,2,0,1,,,,,,,,,,,,,,,,,,,,,,,,,,,,,,,,,,,,,,,
,,,,,,,,2023-08-16_08h54.27.153,HF_wild_card,2022.2.4,Win32,59.91970759,5ebd5be631748b03f7273769,64d2fd46c836a06233681665,64dc80a2fdd3ca2501be8968,,,,,,,decisionTrl,resources/DY.BMP,resources/DG.BMP,Door1,0.233333333,-0.120370399,1,0,0,0.9112,optionRight,30,11895,6,3,0,3,0,1,,,,,,,,,,,,,,,,,,,,,,,,,,,,,,,,,,,,,,,
,,,,,,,,2023-08-16_08h54.27.153,HF_wild_card,2022.2.4,Win32,59.91970759,5ebd5be631748b03f7273769,64d2fd46c836a06233681665,64dc80a2fdd3ca2501be8968,,,,,,,sngl,resources/DP.BMP,resources/Empty.png,WildCard_NonEx,-0.255555556,0.029629601,1,0,0,0.6452,optionLeft,55,11950,6,4,0,4,0,1,,,,,,,,,,,,,,,,,,,,,,,,,,,,,,,,,,,,,,,
,,,,,,,,2023-08-16_08h54.27.153,HF_wild_card,2022.2.4,Win32,59.91970759,5ebd5be631748b03f7273769,64d2fd46c836a06233681665,64dc80a2fdd3ca2501be8968,,,,,,,sngl,resources/DP.BMP,resources/Empty.png,WildCard_NonEx,-0.221296268,0.011111111,1,0,0,0.5287,optionLeft,45,11995,6,5,0,5,0,1,,,,,,,,,,,,,,,,,,,,,,,,,,,,,,,,,,,,,,,
,,,,,,,,2023-08-16_08h54.27.153,HF_wild_card,2022.2.4,Win32,59.91970759,5ebd5be631748b03f7273769,64d2fd46c836a06233681665,64dc80a2fdd3ca2501be8968,,,,,,,sngl,resources/Empty.png,resources/DY.BMP,Door2,0.212963019,-0.115740755,1,0,0,0.5953,optionRight,40,12035,6,6,0,6,0,1,,,,,,,,,,,,,,,,,,,,,,,,,,,,,,,,,,,,,,,
,,,,,,,,2023-08-16_08h54.27.153,HF_wild_card,2022.2.4,Win32,59.91970759,5ebd5be631748b03f7273769,64d2fd46c836a06233681665,64dc80a2fdd3ca2501be8968,,,,,,,decisionTrl,resources/DG.BMP,resources/DY.BMP,Door2,0.200925954,-0.1,1,0,0,1.0788,optionRight,40,12075,6,7,0,7,0,1,,,,,,,,,,,,,,,,,,,,,,,,,,,,,,,,,,,,,,,
,,,,,,,,2023-08-16_08h54.27.153,HF_wild_card,2022.2.4,Win32,59.91970759,5ebd5be631748b03f7273769,64d2fd46c836a06233681665,64dc80a2fdd3ca2501be8968,,,,,,,decisionTrl,resources/DG.BMP,resources/DY.BMP,Door1,-0.233333333,0.041666667,1,0,0,0.6958,optionLeft,30,12105,6,8,0,8,0,1,,,,,,,,,,,,,,,,,,,,,,,,,,,,,,,,,,,,,,,
,,,,,,,,2023-08-16_08h54.27.153,HF_wild_card,2022.2.4,Win32,59.91970759,5ebd5be631748b03f7273769,64d2fd46c836a06233681665,64dc80a2fdd3ca2501be8968,,,,,,,decisionTrl,resources/DR.BMP,resources/DB.BMP,Door3,-0.229629601,0.057407379,1,0,0,1.3304,optionLeft,70,12175,6,9,0,9,0,1,,,,,,,,,,,,,,,,,,,,,,,,,,,,,,,,,,,,,,,
,,,,,,,,2023-08-16_08h54.27.153,HF_wild_card,2022.2.4,Win32,59.91970759,5ebd5be631748b03f7273769,64d2fd46c836a06233681665,64dc80a2fdd3ca2501be8968,,,,,,,ctch,resources/DR.BMP,resources/DY.BMP,Door3,-0.252777778,0.023148134,1,0,0,0.7122,optionLeft,70,12245,6,10,0,10,0,1,,,,,,,,,,,,,,,,,,,,,,,,,,,,,,,,,,,,,,,
,,,,,,,,2023-08-16_08h54.27.153,HF_wild_card,2022.2.4,Win32,59.91970759,5ebd5be631748b03f7273769,64d2fd46c836a06233681665,64dc80a2fdd3ca2501be8968,,,,,,,decisionTrl,resources/DG.BMP,resources/DY.BMP,Door2,0.244444444,-0.15,1,0,0,1.1285,optionRight,40,12285,6,11,0,11,0,1,,,,,,,,,,,,,,,,,,,,,,,,,,,,,,,,,,,,,,,
,,,,,,,,2023-08-16_08h54.27.153,HF_wild_card,2022.2.4,Win32,59.91970759,5ebd5be631748b03f7273769,64d2fd46c836a06233681665,64dc80a2fdd3ca2501be8968,,,,,,,ctch,resources/DY.BMP,resources/DR.BMP,Door3,0.192592621,-0.125925954,1,0,0,0.6954,optionRight,70,12355,6,12,0,12,0,1,,,,,,,,,,,,,,,,,,,,,,,,,,,,,,,,,,,,,,,
,,,,,,,,2023-08-16_08h54.27.153,HF_wild_card,2022.2.4,Win32,59.91970759,5ebd5be631748b03f7273769,64d2fd46c836a06233681665,64dc80a2fdd3ca2501be8968,,,,,,,sngl,resources/Empty.png,resources/DP.BMP,WildCard_NonEx,0.188888889,-0.138888889,1,0,0,0.545,optionRight,45,12400,6,13,0,13,0,1,,,,,,,,,,,,,,,,,,,,,,,,,,,,,,,,,,,,,,,
,,,,,,,,2023-08-16_08h54.27.153,HF_wild_card,2022.2.4,Win32,59.91970759,5ebd5be631748b03f7273769,64d2fd46c836a06233681665,64dc80a2fdd3ca2501be8968,,,,,,,ctch,resources/DR.BMP,resources/DY.BMP,Door3,-0.275925912,0.042592578,1,0,0,0.7458,optionLeft,70,12470,6,14,0,14,0,1,,,,,,,,,,,,,,,,,,,,,,,,,,,,,,,,,,,,,,,
,,,,,,,,2023-08-16_08h54.27.153,HF_wild_card,2022.2.4,Win32,59.91970759,5ebd5be631748b03f7273769,64d2fd46c836a06233681665,64dc80a2fdd3ca2501be8968,,,,,,,decisionTrl,resources/DR.BMP,resources/DP.BMP,Door3,-0.254629601,0.033333333,1,0,0,0.5954,optionLeft,70,12540,6,15,0,15,0,1,,,,,,,,,,,,,,,,,,,,,,,,,,,,,,,,,,,,,,,
,,,,,,,,2023-08-16_08h54.27.153,HF_wild_card,2022.2.4,Win32,59.91970759,5ebd5be631748b03f7273769,64d2fd46c836a06233681665,64dc80a2fdd3ca2501be8968,,,,,,,decisionTrl,resources/DY.BMP,resources/DG.BMP,Door2,-0.219444444,0.040740712,1,0,0,1.2623,optionLeft,40,12580,6,16,0,16,0,1,,,,,,,,,,,,,,,,,,,,,,,,,,,,,,,,,,,,,,,
,,,,,,,,2023-08-16_08h54.27.153,HF_wild_card,2022.2.4,Win32,59.91970759,5ebd5be631748b03f7273769,64d2fd46c836a06233681665,64dc80a2fdd3ca2501be8968,,,,,,,ctch,resources/DG.BMP,resources/DB.BMP,Door4,0.227777778,-0.124074088,1,0,0,1.017,optionRight,60,12640,6,17,0,17,0,1,,,,,,,,,,,,,,,,,,,,,,,,,,,,,,,,,,,,,,,
,,,,,,,,2023-08-16_08h54.27.153,HF_wild_card,2022.2.4,Win32,59.91970759,5ebd5be631748b03f7273769,64d2fd46c836a06233681665,64dc80a2fdd3ca2501be8968,,,,,,,decisionTrl,resources/DP.BMP,resources/DY.BMP,WildCard_NonEx,-0.258333333,0.014814801,1,0,0,1.4125,optionLeft,55,12695,6,18,0,18,0,1,,,,,,,,,,,,,,,,,,,,,,,,,,,,,,,,,,,,,,,
,,,,,,,,2023-08-16_08h54.27.153,HF_wild_card,2022.2.4,Win32,59.91970759,5ebd5be631748b03f7273769,64d2fd46c836a06233681665,64dc80a2fdd3ca2501be8968,,,,,,,decisionTrl,resources/DY.BMP,resources/DG.BMP,Door1,0.165740797,-0.123148176,1,0,0,0.6961,optionRight,30,12725,6,19,0,19,0,1,,,,,,,,,,,,,,,,,,,,,,,,,,,,,,,,,,,,,,,
,,,,,,,,2023-08-16_08h54.27.153,HF_wild_card,2022.2.4,Win32,59.91970759,5ebd5be631748b03f7273769,64d2fd46c836a06233681665,64dc80a2fdd3ca2501be8968,,,,,,,ctch,resources/DG.BMP,resources/DB.BMP,Door4,0.203703732,-0.117592621,1,0,0,1.0967,optionRight,60,12785,6,20,0,20,0,1,,,,,,,,,,,,,,,,,,,,,,,,,,,,,,,,,,,,,,,
,,,,,,,,2023-08-16_08h54.27.153,HF_wild_card,2022.2.4,Win32,59.91970759,5ebd5be631748b03f7273769,64d2fd46c836a06233681665,64dc80a2fdd3ca2501be8968,,,,,,,ctch,resources/DB.BMP,resources/DG.BMP,Door4,-0.222222222,0.017592578,1,0,0,0.5982,optionLeft,80,12865,6,21,0,21,0,1,,,,,,,,,,,,,,,,,,,,,,,,,,,,,,,,,,,,,,,
,,,,,,,,2023-08-16_08h54.27.153,HF_wild_card,2022.2.4,Win32,59.91970759,5ebd5be631748b03f7273769,64d2fd46c836a06233681665,64dc80a2fdd3ca2501be8968,,,,,,,sngl,resources/Empty.png,resources/DG.BMP,Door1,0.222222222,-0.148148176,1,0,0,0.8775,optionRight,30,12895,6,22,0,22,0,1,,,,,,,,,,,,,,,,,,,,,,,,,,,,,,,,,,,,,,,
,,,,,,,,2023-08-16_08h54.27.153,HF_wild_card,2022.2.4,Win32,59.91970759,5ebd5be631748b03f7273769,64d2fd46c836a06233681665,64dc80a2fdd3ca2501be8968,,,,,,,sngl,resources/Empty.png,resources/DB.BMP,Door4,0.213888889,-0.157407422,1,0,0,0.5789,optionRight,80,12975,6,23,0,23,0,1,,,,,,,,,,,,,,,,,,,,,,,,,,,,,,,,,,,,,,,
,,,,,,,,2023-08-16_08h54.27.153,HF_wild_card,2022.2.4,Win32,59.91970759,5ebd5be631748b03f7273769,64d2fd46c836a06233681665,64dc80a2fdd3ca2501be8968,,,,,,,sngl,resources/DB.BMP,resources/Empty.png,Door4,-0.246296268,-0.000925954,1,0,0,0.4959,optionLeft,60,13035,6,24,0,24,0,1,,,,,,,,,,,,,,,,,,,,,,,,,,,,,,,,,,,,,,,
,,,,,,,,2023-08-16_08h54.27.153,HF_wild_card,2022.2.4,Win32,59.91970759,5ebd5be631748b03f7273769,64d2fd46c836a06233681665,64dc80a2fdd3ca2501be8968,,,,,,,decisionTrl,resources/DP.BMP,resources/DG.BMP,WildCard_NonEx,-0.247222222,-0.011111111,1,0,0,0.7454,optionLeft,55,13090,6,25,0,25,0,1,,,,,,,,,,,,,,,,,,,,,,,,,,,,,,,,,,,,,,,
,,,,,,,,2023-08-16_08h54.27.153,HF_wild_card,2022.2.4,Win32,59.91970759,5ebd5be631748b03f7273769,64d2fd46c836a06233681665,64dc80a2fdd3ca2501be8968,,,,,,,decisionTrl,resources/DY.BMP,resources/DG.BMP,Door2,-0.260185157,-0.000925954,1,0,0,0.8782,optionLeft,40,13130,6,26,0,26,0,1,,,,,,,,,,,,,,,,,,,,,,,,,,,,,,,,,,,,,,,
,,,,,,,,2023-08-16_08h54.27.153,HF_wild_card,2022.2.4,Win32,59.91970759,5ebd5be631748b03f7273769,64d2fd46c836a06233681665,64dc80a2fdd3ca2501be8968,,,,,,,decisionTrl,resources/DR.BMP,resources/DB.BMP,Door4,0.190740797,-0.110185199,1,0,0,0.5795,optionRight,60,13190,6,27,0,27,0,1,,,,,,,,,,,,,,,,,,,,,,,,,,,,,,,,,,,,,,,
,,,,,,,,2023-08-16_08h54.27.153,HF_wild_card,2022.2.4,Win32,59.91970759,5ebd5be631748b03f7273769,64d2fd46c836a06233681665,64dc80a2fdd3ca2501be8968,,,,,,,decisionTrl,resources/DY.BMP,resources/DP.BMP,WildCard_NonEx,0.208333333,-0.105555556,1,0,0,1.3282,optionRight,55,13245,6,28,0,28,0,1,,,,,,,,,,,,,,,,,,,,,,,,,,,,,,,,,,,,,,,
,,,,,,,,2023-08-16_08h54.27.153,HF_wild_card,2022.2.4,Win32,59.91970759,5ebd5be631748b03f7273769,64d2fd46c836a06233681665,64dc80a2fdd3ca2501be8968,,,,,,,decisionTrl,resources/DB.BMP,resources/DR.BMP,Door3,0.239814843,-0.155555556,1,0,0,1.112,optionRight,70,13315,6,29,0,29,0,1,,,,,,,,,,,,,,,,,,,,,,,,,,,,,,,,,,,,,,,
,,,,,,,,2023-08-16_08h54.27.153,HF_wild_card,2022.2.4,Win32,59.91970759,5ebd5be631748b03f7273769,64d2fd46c836a06233681665,64dc80a2fdd3ca2501be8968,,,,,,,decisionTrl,resources/DG.BMP,resources/DP.BMP,WildCard_NonEx,0.229629686,-0.119444444,1,0,0,1.1619,optionRight,45,13360,6,30,0,30,0,1,,,,,,,,,,,,,,,,,,,,,,,,,,,,,,,,,,,,,,,
,,,,,,,,2023-08-16_08h54.27.153,HF_wild_card,2022.2.4,Win32,59.91970759,5ebd5be631748b03f7273769,64d2fd46c836a06233681665,64dc80a2fdd3ca2501be8968,,,,,,,sngl,resources/DG.BMP,resources/Empty.png,Door1,-0.223148134,0.056481467,1,0,0,0.5619,optionLeft,30,13390,6,31,0,31,0,1,,,,,,,,,,,,,,,,,,,,,,,,,,,,,,,,,,,,,,,
,,,,,,,,2023-08-16_08h54.27.153,HF_wild_card,2022.2.4,Win32,59.91970759,5ebd5be631748b03f7273769,64d2fd46c836a06233681665,64dc80a2fdd3ca2501be8968,,,,,,,sngl,resources/DY.BMP,resources/Empty.png,Door2,-0.299074046,0.075925912,1,0,0,1.0459,optionLeft,20,13410,6,32,0,32,0,1,,,,,,,,,,,,,,,,,,,,,,,,,,,,,,,,,,,,,,,
,,,,,,,,2023-08-16_08h54.27.153,HF_wild_card,2022.2.4,Win32,59.91970759,5ebd5be631748b03f7273769,64d2fd46c836a06233681665,64dc80a2fdd3ca2501be8968,,,,,,,decisionTrl,resources/DB.BMP,resources/DP.BMP,Door4,-0.262962935,0.040740712,1,0,0,0.8615,optionLeft,60,13470,6,33,0,33,0,1,,,,,,,,,,,,,,,,,,,,,,,,,,,,,,,,,,,,,,,
,,,,,,,,2023-08-16_08h54.27.153,HF_wild_card,2022.2.4,Win32,59.91970759,5ebd5be631748b03f7273769,64d2fd46c836a06233681665,64dc80a2fdd3ca2501be8968,,,,,,,decisionTrl,resources/DG.BMP,resources/DY.BMP,Door1,-0.294444444,0.020370356,1,0,0,0.8415,optionLeft,30,13500,6,34,0,34,0,1,,,,,,,,,,,,,,,,,,,,,,,,,,,,,,,,,,,,,,,
,,,,,,,,2023-08-16_08h54.27.153,HF_wild_card,2022.2.4,Win32,59.91970759,5ebd5be631748b03f7273769,64d2fd46c836a06233681665,64dc80a2fdd3ca2501be8968,,,,,,,decisionTrl,resources/DP.BMP,resources/DR.BMP,Door3,0.3,0.052777778,1,0,0,0.5618,optionRight,70,13570,6,35,0,35,0,1,,,,,,,,,,,,,,,,,,,,,,,,,,,,,,,,,,,,,,,
,,,,,,,,2023-08-16_08h54.27.153,HF_wild_card,2022.2.4,Win32,59.91970759,5ebd5be631748b03f7273769,64d2fd46c836a06233681665,64dc80a2fdd3ca2501be8968,,,,,,,decisionTrl,resources/DR.BMP,resources/DB.BMP,Door4,0.399074131,0.075,1,0,0,0.9623,optionRight,80,13650,6,36,0,36,0,1,,,,,,,,,,,,,,,,,,,,,,,,,,,,,,,,,,,,,,,
,,,,,,,,2023-08-16_08h54.27.153,HF_wild_card,2022.2.4,Win32,59.91970759,5ebd5be631748b03f7273769,64d2fd46c836a06233681665,64dc80a2fdd3ca2501be8968,,,,,,,ctch,resources/DY.BMP,resources/DR.BMP,Door3,0.262963019,0.051851824,1,0,0,0.6457,optionRight,70,13720,6,37,0,37,0,1,,,,,,,,,,,,,,,,,,,,,,,,,,,,,,,,,,,,,,,
,,,,,,,,2023-08-16_08h54.27.153,HF_wild_card,2022.2.4,Win32,59.91970759,5ebd5be631748b03f7273769,64d2fd46c836a06233681665,64dc80a2fdd3ca2501be8968,,,,,,,ctch,resources/DB.BMP,resources/DG.BMP,Door4,-0.207407379,-0.125,1,0,0,0.7625,optionLeft,80,13800,6,38,0,38,0,1,,,,,,,,,,,,,,,,,,,,,,,,,,,,,,,,,,,,,,,
,,,,,,,,2023-08-16_08h54.27.153,HF_wild_card,2022.2.4,Win32,59.91970759,5ebd5be631748b03f7273769,64d2fd46c836a06233681665,64dc80a2fdd3ca2501be8968,,,,,,,sngl,resources/Empty.png,resources/DP.BMP,WildCard_NonEx,0.320370399,0.073148134,1,0,0,0.4792,optionRight,55,13855,6,39,0,39,0,1,,,,,,,,,,,,,,,,,,,,,,,,,,,,,,,,,,,,,,,
,,,,,,,,2023-08-16_08h54.27.153,HF_wild_card,2022.2.4,Win32,59.91970759,5ebd5be631748b03f7273769,64d2fd46c836a06233681665,64dc80a2fdd3ca2501be8968,,,,,,,decisionTrl,resources/DB.BMP,resources/DR.BMP,Door4,-0.176851824,-0.079629644,1,0,0,1.0781,optionLeft,80,13935,6,40,0,40,0,1,,,,,,,,,,,,,,,,,,,,,,,,,,,,,,,,,,,,,,,
,,,,,,,,2023-08-16_08h54.27.153,HF_wild_card,2022.2.4,Win32,59.91970759,5ebd5be631748b03f7273769,64d2fd46c836a06233681665,64dc80a2fdd3ca2501be8968,,,,,,,sngl,resources/Empty.png,resources/DR.BMP,Door3,0.266666667,0.076851824,1,0,0,0.5959,optionRight,70,14005,6,41,0,41,0,1,,,,,,,,,,,,,,,,,,,,,,,,,,,,,,,,,,,,,,,
,,,,,,,,2023-08-16_08h54.27.153,HF_wild_card,2022.2.4,Win32,59.91970759,5ebd5be631748b03f7273769,64d2fd46c836a06233681665,64dc80a2fdd3ca2501be8968,,,,,,,sngl,resources/DR.BMP,resources/Empty.png,Door3,-0.21851849,-0.109259288,1,0,0,0.6108,optionLeft,70,14075,6,42,0,42,0,1,,,,,,,,,,,,,,,,,,,,,,,,,,,,,,,,,,,,,,,
,,,,,,,,2023-08-16_08h54.27.153,HF_wild_card,2022.2.4,Win32,59.91970759,5ebd5be631748b03f7273769,64d2fd46c836a06233681665,64dc80a2fdd3ca2501be8968,,,,,,,decisionTrl,resources/DR.BMP,resources/DB.BMP,Door4,0.333333333,0.080555556,1,0,0,0.6461,optionRight,60,14135,6,43,0,43,0,1,,,,,,,,,,,,,,,,,,,,,,,,,,,,,,,,,,,,,,,
,,,,,,,,2023-08-16_08h54.27.153,HF_wild_card,2022.2.4,Win32,59.91970759,5ebd5be631748b03f7273769,64d2fd46c836a06233681665,64dc80a2fdd3ca2501be8968,,,,,,,,,,,,,,,,,,,,,,,,,,5,0,5,0,1,,,,,,,,,,,,,,,,,,,,,,,,,,,,,,,,,,
,,,,,,,,2023-08-16_08h54.27.153,HF_wild_card,2022.2.4,Win32,59.91970759,5ebd5be631748b03f7273769,64d2fd46c836a06233681665,64dc80a2fdd3ca2501be8968,,,,,,,ctch,resources/DY.BMP,resources/DR.BMP,Door3,0.285185242,-0.05648151,1,0,0,0.9528,optionRight,70,14205,7,0,0,0,0,1,,,,,,,,,,,,,,,,,,,,,,,,,,,,,,,,,,,,,,,
,,,,,,,,2023-08-16_08h54.27.153,HF_wild_card,2022.2.4,Win32,59.91970759,5ebd5be631748b03f7273769,64d2fd46c836a06233681665,64dc80a2fdd3ca2501be8968,,,,,,,ctch,resources/DR.BMP,resources/DY.BMP,Door3,-0.248148134,0.033333333,1,0,0,0.5649,optionLeft,70,14275,7,1,0,1,0,1,,,,,,,,,,,,,,,,,,,,,,,,,,,,,,,,,,,,,,,
,,,,,,,,2023-08-16_08h54.27.153,HF_wild_card,2022.2.4,Win32,59.91970759,5ebd5be631748b03f7273769,64d2fd46c836a06233681665,64dc80a2fdd3ca2501be8968,,,,,,,decisionTrl,resources/DG.BMP,resources/DY.BMP,Door1,-0.25370369,0.015740712,1,0,0,1.6986,optionLeft,30,14305,7,2,0,2,0,1,,,,,,,,,,,,,,,,,,,,,,,,,,,,,,,,,,,,,,,
,,,,,,,,2023-08-16_08h54.27.153,HF_wild_card,2022.2.4,Win32,59.91970759,5ebd5be631748b03f7273769,64d2fd46c836a06233681665,64dc80a2fdd3ca2501be8968,,,,,,,decisionTrl,resources/DB.BMP,resources/DR.BMP,Door4,-0.230555556,0.012037023,1,0,0,1.4804,optionLeft,60,14365,7,3,0,3,0,1,,,,,,,,,,,,,,,,,,,,,,,,,,,,,,,,,,,,,,,
,,,,,,,,2023-08-16_08h54.27.153,HF_wild_card,2022.2.4,Win32,59.91970759,5ebd5be631748b03f7273769,64d2fd46c836a06233681665,64dc80a2fdd3ca2501be8968,,,,,,,ctch,resources/DR.BMP,resources/DY.BMP,Door3,-0.224074046,0.036111111,1,0,0,0.6164,optionLeft,70,14435,7,4,0,4,0,1,,,,,,,,,,,,,,,,,,,,,,,,,,,,,,,,,,,,,,,
,,,,,,,,2023-08-16_08h54.27.153,HF_wild_card,2022.2.4,Win32,59.91970759,5ebd5be631748b03f7273769,64d2fd46c836a06233681665,64dc80a2fdd3ca2501be8968,,,,,,,decisionTrl,resources/DY.BMP,resources/DG.BMP,Door1,0.197222222,-0.053703732,1,0,0,1.1147,optionRight,30,14465,7,5,0,5,0,1,,,,,,,,,,,,,,,,,,,,,,,,,,,,,,,,,,,,,,,
,,,,,,,,2023-08-16_08h54.27.153,HF_wild_card,2022.2.4,Win32,59.91970759,5ebd5be631748b03f7273769,64d2fd46c836a06233681665,64dc80a2fdd3ca2501be8968,,,,,,,decisionTrl,resources/DB.BMP,resources/DR.BMP,Door3,0.217592621,-0.063888889,1,0,0,1.2989,optionRight,70,14535,7,6,0,6,0,1,,,,,,,,,,,,,,,,,,,,,,,,,,,,,,,,,,,,,,,
,,,,,,,,2023-08-16_08h54.27.153,HF_wild_card,2022.2.4,Win32,59.91970759,5ebd5be631748b03f7273769,64d2fd46c836a06233681665,64dc80a2fdd3ca2501be8968,,,,,,,ctch,resources/DG.BMP,resources/DB.BMP,Door4,0.170370399,-0.078703732,1,0,0,0.6119,optionRight,80,14615,7,7,0,7,0,1,,,,,,,,,,,,,,,,,,,,,,,,,,,,,,,,,,,,,,,
,,,,,,,,2023-08-16_08h54.27.153,HF_wild_card,2022.2.4,Win32,59.91970759,5ebd5be631748b03f7273769,64d2fd46c836a06233681665,64dc80a2fdd3ca2501be8968,,,,,,,decisionTrl,resources/DY.BMP,resources/DG.BMP,Door1,0.169444444,-0.075925954,1,0,0,1.049,optionRight,30,14645,7,8,0,8,0,1,,,,,,,,,,,,,,,,,,,,,,,,,,,,,,,,,,,,,,,
,,,,,,,,2023-08-16_08h54.27.153,HF_wild_card,2022.2.4,Win32,59.91970759,5ebd5be631748b03f7273769,64d2fd46c836a06233681665,64dc80a2fdd3ca2501be8968,,,,,,,decisionTrl,resources/DR.BMP,resources/DB.BMP,Door3,-0.205555556,-0.004629644,1,0,0,1.048,optionLeft,70,14715,7,9,0,9,0,1,,,,,,,,,,,,,,,,,,,,,,,,,,,,,,,,,,,,,,,
,,,,,,,,2023-08-16_08h54.27.153,HF_wild_card,2022.2.4,Win32,59.91970759,5ebd5be631748b03f7273769,64d2fd46c836a06233681665,64dc80a2fdd3ca2501be8968,,,,,,,decisionTrl,resources/DB.BMP,resources/DR.BMP,Door4,-0.216666667,0.017592578,1,0,0,0.5987,optionLeft,60,14775,7,10,0,10,0,1,,,,,,,,,,,,,,,,,,,,,,,,,,,,,,,,,,,,,,,
,,,,,,,,2023-08-16_08h54.27.153,HF_wild_card,2022.2.4,Win32,59.91970759,5ebd5be631748b03f7273769,64d2fd46c836a06233681665,64dc80a2fdd3ca2501be8968,,,,,,,ctch,resources/DG.BMP,resources/DB.BMP,Door4,0.176851908,-0.108333333,1,0,0,0.6138,optionRight,80,14855,7,11,0,11,0,1,,,,,,,,,,,,,,,,,,,,,,,,,,,,,,,,,,,,,,,
,,,,,,,,2023-08-16_08h54.27.153,HF_wild_card,2022.2.4,Win32,59.91970759,5ebd5be631748b03f7273769,64d2fd46c836a06233681665,64dc80a2fdd3ca2501be8968,,,,,,,ctch,resources/DB.BMP,resources/DG.BMP,Door4,-0.19351849,0.007407379,1,0,0,0.5312,optionLeft,80,14935,7,12,0,12,0,1,,,,,,,,,,,,,,,,,,,,,,,,,,,,,,,,,,,,,,,
,,,,,,,,2023-08-16_08h54.27.153,HF_wild_card,2022.2.4,Win32,59.91970759,5ebd5be631748b03f7273769,64d2fd46c836a06233681665,64dc80a2fdd3ca2501be8968,,,,,,,decisionTrl,resources/DG.BMP,resources/DY.BMP,Door1,-0.189814801,0.046296268,1,0,0,1.8827,optionLeft,30,14965,7,13,0,13,0,1,,,,,,,,,,,,,,,,,,,,,,,,,,,,,,,,,,,,,,,
,,,,,,,,2023-08-16_08h54.27.153,HF_wild_card,2022.2.4,Win32,59.91970759,5ebd5be631748b03f7273769,64d2fd46c836a06233681665,64dc80a2fdd3ca2501be8968,,,,,,,decisionTrl,resources/DY.BMP,resources/DG.BMP,Door1,0.198148176,-0.119444444,1,0,0,0.6484,optionRight,30,14995,7,14,0,14,0,1,,,,,,,,,,,,,,,,,,,,,,,,,,,,,,,,,,,,,,,
,,,,,,,,2023-08-16_08h54.27.153,HF_wild_card,2022.2.4,Win32,59.91970759,5ebd5be631748b03f7273769,64d2fd46c836a06233681665,64dc80a2fdd3ca2501be8968,,,,,,,decisionTrl,resources/DG.BMP,resources/DY.BMP,Door1,-0.221296268,0.029629601,1,0,0,1.0653,optionLeft,30,15025,7,15,0,15,0,1,,,,,,,,,,,,,,,,,,,,,,,,,,,,,,,,,,,,,,,
,,,,,,,,2023-08-16_08h54.27.153,HF_wild_card,2022.2.4,Win32,59.91970759,5ebd5be631748b03f7273769,64d2fd46c836a06233681665,64dc80a2fdd3ca2501be8968,,,,,,,decisionTrl,resources/DY.BMP,resources/DG.BMP,Door1,0.187037065,-0.10648151,1,0,0,0.565,optionRight,30,15055,7,16,0,16,0,1,,,,,,,,,,,,,,,,,,,,,,,,,,,,,,,,,,,,,,,
,,,,,,,,2023-08-16_08h54.27.153,HF_wild_card,2022.2.4,Win32,59.91970759,5ebd5be631748b03f7273769,64d2fd46c836a06233681665,64dc80a2fdd3ca2501be8968,,,,,,,decisionTrl,resources/DB.BMP,resources/DR.BMP,Door4,-0.214814801,0,1,0,0,1.116,optionLeft,60,15115,7,17,0,17,0,1,,,,,,,,,,,,,,,,,,,,,,,,,,,,,,,,,,,,,,,
,,,,,,,,2023-08-16_08h54.27.153,HF_wild_card,2022.2.4,Win32,59.91970759,5ebd5be631748b03f7273769,64d2fd46c836a06233681665,64dc80a2fdd3ca2501be8968,,,,,,,decisionTrl,resources/DY.BMP,resources/DG.BMP,Door1,0.219444444,-0.082407422,1,0,0,0.9491,optionRight,30,15145,7,18,0,18,0,1,,,,,,,,,,,,,,,,,,,,,,,,,,,,,,,,,,,,,,,
,,,,,,,,2023-08-16_08h54.27.153,HF_wild_card,2022.2.4,Win32,59.91970759,5ebd5be631748b03f7273769,64d2fd46c836a06233681665,64dc80a2fdd3ca2501be8968,,,,,,,ctch,resources/DY.BMP,resources/DR.BMP,Door3,0.192592621,-0.112037065,1,0,0,0.7659,optionRight,70,15215,7,19,0,19,0,1,,,,,,,,,,,,,,,,,,,,,,,,,,,,,,,,,,,,,,,
,,,,,,,,2023-08-16_08h54.27.153,HF_wild_card,2022.2.4,Win32,59.91970759,5ebd5be631748b03f7273769,64d2fd46c836a06233681665,64dc80a2fdd3ca2501be8968,,,,,,,ctch,resources/DB.BMP,resources/DG.BMP,Door4,-0.229629601,0.016666667,1,0,0,0.8149,optionLeft,80,15295,7,20,0,20,0,1,,,,,,,,,,,,,,,,,,,,,,,,,,,,,,,,,,,,,,,
,,,,,,,,2023-08-16_08h54.27.153,HF_wild_card,2022.2.4,Win32,59.91970759,5ebd5be631748b03f7273769,64d2fd46c836a06233681665,64dc80a2fdd3ca2501be8968,,,,,,,decisionTrl,resources/DY.BMP,resources/DG.BMP,Door1,0.198148176,-0.070370399,1,0,0,0.9652,optionRight,30,15325,7,21,0,21,0,1,,,,,,,,,,,,,,,,,,,,,,,,,,,,,,,,,,,,,,,
,,,,,,,,2023-08-16_08h54.27.153,HF_wild_card,2022.2.4,Win32,59.91970759,5ebd5be631748b03f7273769,64d2fd46c836a06233681665,64dc80a2fdd3ca2501be8968,,,,,,,decisionTrl,resources/DR.BMP,resources/DB.BMP,Door3,-0.199074046,0.01851849,1,0,0,1.1988,optionLeft,70,15395,7,22,0,22,0,1,,,,,,,,,,,,,,,,,,,,,,,,,,,,,,,,,,,,,,,
,,,,,,,,2023-08-16_08h54.27.153,HF_wild_card,2022.2.4,Win32,59.91970759,5ebd5be631748b03f7273769,64d2fd46c836a06233681665,64dc80a2fdd3ca2501be8968,,,,,,,decisionTrl,resources/DB.BMP,resources/DR.BMP,Door4,-0.20370369,0.025,1,0,0,0.5319,optionLeft,60,15455,7,23,0,23,0,1,,,,,,,,,,,,,,,,,,,,,,,,,,,,,,,,,,,,,,,
,,,,,,,,2023-08-16_08h54.27.153,HF_wild_card,2022.2.4,Win32,59.91970759,5ebd5be631748b03f7273769,64d2fd46c836a06233681665,64dc80a2fdd3ca2501be8968,,,,,,,decisionTrl,resources/DG.BMP,resources/DY.BMP,Door1,-0.219444444,0.029629601,1,0,0,1.183,optionLeft,30,15485,7,24,0,24,0,1,,,,,,,,,,,,,,,,,,,,,,,,,,,,,,,,,,,,,,,
,,,,,,,,2023-08-16_08h54.27.153,HF_wild_card,2022.2.4,Win32,59.91970759,5ebd5be631748b03f7273769,64d2fd46c836a06233681665,64dc80a2fdd3ca2501be8968,,,,,,,decisionTrl,resources/DG.BMP,resources/DY.BMP,Door1,-0.235185157,0.020370356,1,0,0,0.5995,optionLeft,30,15515,7,25,0,25,0,1,,,,,,,,,,,,,,,,,,,,,,,,,,,,,,,,,,,,,,,
,,,,,,,,2023-08-16_08h54.27.153,HF_wild_card,2022.2.4,Win32,59.91970759,5ebd5be631748b03f7273769,64d2fd46c836a06233681665,64dc80a2fdd3ca2501be8968,,,,,,,ctch,resources/DB.BMP,resources/DG.BMP,Door4,-0.172222222,0.002777778,1,0,0,0.7482,optionLeft,80,15595,7,26,0,26,0,1,,,,,,,,,,,,,,,,,,,,,,,,,,,,,,,,,,,,,,,
,,,,,,,,2023-08-16_08h54.27.153,HF_wild_card,2022.2.4,Win32,59.91970759,5ebd5be631748b03f7273769,64d2fd46c836a06233681665,64dc80a2fdd3ca2501be8968,,,,,,,decisionTrl,resources/DR.BMP,resources/DB.BMP,Door4,0.192592621,-0.075925954,1,0,0,0.7153,optionRight,80,15675,7,27,0,27,0,1,,,,,,,,,,,,,,,,,,,,,,,,,,,,,,,,,,,,,,,
,,,,,,,,2023-08-16_08h54.27.153,HF_wild_card,2022.2.4,Win32,59.91970759,5ebd5be631748b03f7273769,64d2fd46c836a06233681665,64dc80a2fdd3ca2501be8968,,,,,,,decisionTrl,resources/DB.BMP,resources/DR.BMP,Door3,0.182407464,-0.09629631,1,0,0,0.6314,optionRight,70,15745,7,28,0,28,0,1,,,,,,,,,,,,,,,,,,,,,,,,,,,,,,,,,,,,,,,
,,,,,,,,2023-08-16_08h54.27.153,HF_wild_card,2022.2.4,Win32,59.91970759,5ebd5be631748b03f7273769,64d2fd46c836a06233681665,64dc80a2fdd3ca2501be8968,,,,,,,ctch,resources/DY.BMP,resources/DR.BMP,Door3,0.175925954,-0.082407422,1,0,0,0.5831,optionRight,70,15815,7,29,0,29,0,1,,,,,,,,,,,,,,,,,,,,,,,,,,,,,,,,,,,,,,,
,,,,,,,,2023-08-16_08h54.27.153,HF_wild_card,2022.2.4,Win32,59.91970759,5ebd5be631748b03f7273769,64d2fd46c836a06233681665,64dc80a2fdd3ca2501be8968,,,,,,,decisionTrl,resources/DR.BMP,resources/DB.BMP,Door4,0.170370399,-0.075,1,0,0,1.1324,optionRight,60,15875,7,30,0,30,0,1,,,,,,,,,,,,,,,,,,,,,,,,,,,,,,,,,,,,,,,
,,,,,,,,2023-08-16_08h54.27.153,HF_wild_card,2022.2.4,Win32,59.91970759,5ebd5be631748b03f7273769,64d2fd46c836a06233681665,64dc80a2fdd3ca2501be8968,,,,,,,decisionTrl,resources/DR.BMP,resources/DB.BMP,Door3,-0.190740712,0.011111111,1,0,0,0.5322,optionLeft,70,15945,7,31,0,31,0,1,,,,,,,,,,,,,,,,,,,,,,,,,,,,,,,,,,,,,,,
,,,,,,,,2023-08-16_08h54.27.153,HF_wild_card,2022.2.4,Win32,59.91970759,5ebd5be631748b03f7273769,64d2fd46c836a06233681665,64dc80a2fdd3ca2501be8968,,,,,,,decisionTrl,resources/DG.BMP,resources/DY.BMP,Door1,-0.186111111,0.000925912,1,0,0,0.7469,optionLeft,30,15975,7,32,0,32,0,1,,,,,,,,,,,,,,,,,,,,,,,,,,,,,,,,,,,,,,,
,,,,,,,,2023-08-16_08h54.27.153,HF_wild_card,2022.2.4,Win32,59.91970759,5ebd5be631748b03f7273769,64d2fd46c836a06233681665,64dc80a2fdd3ca2501be8968,,,,,,,decisionTrl,resources/DR.BMP,resources/DB.BMP,Door3,0.003703732,-0.023148176,1,0,0,0.912,optionLeft,70,16045,7,33,0,33,0,1,,,,,,,,,,,,,,,,,,,,,,,,,,,,,,,,,,,,,,,
,,,,,,,,2023-08-16_08h54.27.153,HF_wild_card,2022.2.4,Win32,59.91970759,5ebd5be631748b03f7273769,64d2fd46c836a06233681665,64dc80a2fdd3ca2501be8968,,,,,,,ctch,resources/DR.BMP,resources/DY.BMP,Door3,-0.207407379,0.040740712,1,0,0,0.5461,optionLeft,70,16115,7,34,0,34,0,1,,,,,,,,,,,,,,,,,,,,,,,,,,,,,,,,,,,,,,,
,,,,,,,,2023-08-16_08h54.27.153,HF_wild_card,2022.2.4,Win32,59.91970759,5ebd5be631748b03f7273769,64d2fd46c836a06233681665,64dc80a2fdd3ca2501be8968,,,,,,,ctch,resources/DG.BMP,resources/DB.BMP,Door4,0.175925954,-0.128703732,1,0,0,0.6158,optionRight,60,16175,7,35,0,35,0,1,,,,,,,,,,,,,,,,,,,,,,,,,,,,,,,,,,,,,,,
,,,,,,,,2023-08-16_08h54.27.153,HF_wild_card,2022.2.4,Win32,59.91970759,5ebd5be631748b03f7273769,64d2fd46c836a06233681665,64dc80a2fdd3ca2501be8968,,,,,,,,,,,,,,,,,,,,,,,,,,6,0,6,0,1,,,,,,,,,,,,,,,,,,,,,,,,,,,,,,,,,,
,,,,,,,,2023-08-16_08h54.27.153,HF_wild_card,2022.2.4,Win32,59.91970759,5ebd5be631748b03f7273769,64d2fd46c836a06233681665,64dc80a2fdd3ca2501be8968,,,,,,,,,,,,,,,,,,,,,,,,,,,,,,,4,,,,,,,,,,,,,,,,,,,,,,,,,,,,,,,,,
,,,,,,,,2023-08-16_08h54.27.153,HF_wild_card,2022.2.4,Win32,59.91970759,5ebd5be631748b03f7273769,64d2fd46c836a06233681665,64dc80a2fdd3ca2501be8968,,,,,,,,,,,,,,,,,,,,,,,,,,,,,,,,,,,,,,,,,,,,,,,,,,,,,,,,,,,,,,,,
,,,,,,,,2023-08-16_08h54.27.153,HF_wild_card,2022.2.4,Win32,59.91970759,5ebd5be631748b03f7273769,64d2fd46c836a06233681665,64dc80a2fdd3ca2501be8968,,,,,,,,,,,,,,,,,,,,,,,,,,,,,,,,70,Door3,resources/DR.BMP,0,0,0,0,1,,,,,,,,,,,,,,,,,,,,,,,,,
,,,,,,,,2023-08-16_08h54.27.153,HF_wild_card,2022.2.4,Win32,59.91970759,5ebd5be631748b03f7273769,64d2fd46c836a06233681665,64dc80a2fdd3ca2501be8968,,,,,,,,,,,,,,,,,,,,,,,,,,,,,,,,55,WC_extreme,resources/DBN.BMP,1,0,1,0,1,,,,,,,,,,,,,,,,,,,,,,,,,
,,,,,,,,2023-08-16_08h54.27.153,HF_wild_card,2022.2.4,Win32,59.91970759,5ebd5be631748b03f7273769,64d2fd46c836a06233681665,64dc80a2fdd3ca2501be8968,,,,,,,,,,,,,,,,,,,,,,,,,,,,,,,,60,Door4,resources/DB.BMP,2,0,2,0,1,,,,,,,,,,,,,,,,,,,,,,,,,
,,,,,,,,2023-08-16_08h54.27.153,HF_wild_card,2022.2.4,Win32,59.91970759,5ebd5be631748b03f7273769,64d2fd46c836a06233681665,64dc80a2fdd3ca2501be8968,,,,,,,,,,,,,,,,,,,,,,,,,,,,,,,,45,Door1,resources/DG.BMP,3,0,3,0,1,,,,,,,,,,,,,,,,,,,,,,,,,
,,,,,,,,2023-08-16_08h54.27.153,HF_wild_card,2022.2.4,Win32,59.91970759,5ebd5be631748b03f7273769,64d2fd46c836a06233681665,64dc80a2fdd3ca2501be8968,,,,,,,,,,,,,,,,,,,,,,,,,,,,,,,,55,WC_nonExtreme,resources/DP.BMP,4,0,4,0,1,,,,,,,,,,,,,,,,,,,,,,,,,
,,,,,,,,2023-08-16_08h54.27.153,HF_wild_card,2022.2.4,Win32,59.91970759,5ebd5be631748b03f7273769,64d2fd46c836a06233681665,64dc80a2fdd3ca2501be8968,,,,,,,,,,,,,,,,,,,,,,,,,,,,,,,,45,Door2,resources/DY.BMP,5,0,5,0,1,,,,,,,,,,,,,,,,,,,,,,,,,
,,,,,,,,2023-08-16_08h54.27.153,HF_wild_card,2022.2.4,Win32,59.91970759,5ebd5be631748b03f7273769,64d2fd46c836a06233681665,64dc80a2fdd3ca2501be8968,,,,,,,,,,,,,,,,,,,,,,,,,,,,,,,,,,,,,,,,,,,,,,,,,,,,,,,,,,,,,,,,
,,,,,,,,2023-08-16_08h54.27.153,HF_wild_card,2022.2.4,Win32,59.91970759,5ebd5be631748b03f7273769,64d2fd46c836a06233681665,64dc80a2fdd3ca2501be8968,,,,,,,,,,,,,,,,,,,,,,,,,,,,,,,,,,,,,,,,0,0,0,0,1,,,,,,,,,,,,,,,,,,,,
