Condition,Low fixed image (Door1),Low risky image (Door2),High fixed image (Door3),High risky image (Door4),Extreme Wild Card,NonExtreme Wild Card,,date,expName,psychopyVersion,OS,frameRate,PROLIFIC_PID,STUDY_ID,SESSION_ID,mouse_2.x,mouse_2.y,mouse_2.leftButton,mouse_2.midButton,mouse_2.rightButton,mouse_2.clicked_name,Trial Type,Left Option Image,Right Option Image,Chosen Door,mouse.x,mouse.y,mouse.leftButton,mouse.midButton,mouse.rightButton,mouse.time,mouse.clicked_name,Feedback,Cumulative Reward,Block,trial.thisRepN,trial.thisTrialN,trial.thisN,trial.thisIndex,trial.ran,blocks.thisRepN,blocks.thisTrialN,blocks.thisN,blocks.thisIndex,blocks.ran,Money conversion,First Outcome Reported,Shown Door (First Outcome),Displayed Image (First Outcome),outcomes.thisRepN,outcomes.thisTrialN,outcomes.thisN,outcomes.thisIndex,outcomes.ran,judgments.thisRepN,judgments.thisTrialN,judgments.thisN,judgments.thisIndex,judgments.ran,freqMouse.x,freqMouse.y,freqMouse.leftButton,freqMouse.midButton,freqMouse.rightButton,freqMouse.clicked_name,FQJ for first outcome,FQJ for second outcome,Shown Door,Displayed Image,trials.thisRepN,trials.thisTrialN,trials.thisN,trials.thisIndex,trials.ran,judgBlock.thisRepN,judgBlock.thisTrialN,judgBlock.thisN,judgBlock.thisIndex,judgBlock.ran
0,resources/DBN.BMP,resources/DY.BMP,resources/DP.BMP,resources/DG.BMP,resources/DB.BMP,resources/DR.BMP,,2023-08-16_08h31.47.500,HF_wild_card,2022.2.4,Win32,63.25910931,60fd1ff6c3a0346b66d878ee,64d2fd46c836a06233681665,64dc788ff045656bbd2da87a,,,,,,,,,,,,,,,,,,,,,,,,,,,,,,,,,,,,,,,,,,,,,,,,,,,,,,,,,,,,,,,,
,,,,,,,,2023-08-16_08h31.47.500,HF_wild_card,2022.2.4,Win32,63.25910931,60fd1ff6c3a0346b66d878ee,64d2fd46c836a06233681665,64dc788ff045656bbd2da87a,0.022135417,-0.4140625,1,0,0,agree,,,,,,,,,,,,,,,,,,,,,,,,,,,,,,,,,,,,,,,,,,,,,,,,,,,,,,,,,,
,,,,,,,,2023-08-16_08h31.47.500,HF_wild_card,2022.2.4,Win32,63.25910931,60fd1ff6c3a0346b66d878ee,64d2fd46c836a06233681665,64dc788ff045656bbd2da87a,,,,,,,,,,,,,,,,,,,,,,,,,,,,,,,,,,,,,,,,,,,,,,,,,,,,,,,,,,,,,,,,
,,,,,,,,2023-08-16_08h31.47.500,HF_wild_card,2022.2.4,Win32,63.25910931,60fd1ff6c3a0346b66d878ee,64d2fd46c836a06233681665,64dc788ff045656bbd2da87a,,,,,,,decisionTrl,resources/DY.BMP,resources/DBN.BMP,Door2,-0.223958333,-0.10546875,1,0,0,2.1859,optionLeft,40,40,1,0,0,0,0,1,,,,,,,,,,,,,,,,,,,,,,,,,,,,,,,,,,,,,,,
,,,,,,,,2023-08-16_08h31.47.500,HF_wild_card,2022.2.4,Win32,63.25910931,60fd1ff6c3a0346b66d878ee,64d2fd46c836a06233681665,64dc788ff045656bbd2da87a,,,,,,,decisionTrl,resources/DBN.BMP,resources/DB.BMP,WildCard_Ex,0.216145833,-0.001302083,1,0,0,1.6239,optionRight,5,45,1,1,0,1,0,1,,,,,,,,,,,,,,,,,,,,,,,,,,,,,,,,,,,,,,,
,,,,,,,,2023-08-16_08h31.47.500,HF_wild_card,2022.2.4,Win32,63.25910931,60fd1ff6c3a0346b66d878ee,64d2fd46c836a06233681665,64dc788ff045656bbd2da87a,,,,,,,sngl,resources/Empty.png,resources/DG.BMP,Door4,0.14453125,-0.07421875,1,0,0,3.4806,optionRight,60,105,1,2,0,2,0,1,,,,,,,,,,,,,,,,,,,,,,,,,,,,,,,,,,,,,,,
,,,,,,,,2023-08-16_08h31.47.500,HF_wild_card,2022.2.4,Win32,63.25910931,60fd1ff6c3a0346b66d878ee,64d2fd46c836a06233681665,64dc788ff045656bbd2da87a,,,,,,,ctch,resources/DBN.BMP,resources/DG.BMP,Door4,0.584635417,-0.10546875,1,0,0,1.5483,optionRight,60,165,1,3,0,3,0,1,,,,,,,,,,,,,,,,,,,,,,,,,,,,,,,,,,,,,,,
,,,,,,,,2023-08-16_08h31.47.500,HF_wild_card,2022.2.4,Win32,63.25910931,60fd1ff6c3a0346b66d878ee,64d2fd46c836a06233681665,64dc788ff045656bbd2da87a,,,,,,,ctch,resources/DP.BMP,resources/DY.BMP,Door3,-0.34375,0.08203125,1,0,0,1.1421,optionLeft,70,235,1,4,0,4,0,1,,,,,,,,,,,,,,,,,,,,,,,,,,,,,,,,,,,,,,,
,,,,,,,,2023-08-16_08h31.47.500,HF_wild_card,2022.2.4,Win32,63.25910931,60fd1ff6c3a0346b66d878ee,64d2fd46c836a06233681665,64dc788ff045656bbd2da87a,,,,,,,sngl,resources/Empty.png,resources/DB.BMP,WildCard_Ex,0.403645833,0.046875,1,0,0,1.8061,optionRight,5,240,1,5,0,5,0,1,,,,,,,,,,,,,,,,,,,,,,,,,,,,,,,,,,,,,,,
,,,,,,,,2023-08-16_08h31.47.500,HF_wild_card,2022.2.4,Win32,63.25910931,60fd1ff6c3a0346b66d878ee,64d2fd46c836a06233681665,64dc788ff045656bbd2da87a,,,,,,,decisionTrl,resources/DBN.BMP,resources/DY.BMP,Door2,0.11328125,0.009114583,1,0,0,1.1771,optionRight,40,280,1,6,0,6,0,1,,,,,,,,,,,,,,,,,,,,,,,,,,,,,,,,,,,,,,,
,,,,,,,,2023-08-16_08h31.47.500,HF_wild_card,2022.2.4,Win32,63.25910931,60fd1ff6c3a0346b66d878ee,64d2fd46c836a06233681665,64dc788ff045656bbd2da87a,,,,,,,decisionTrl,resources/DY.BMP,resources/DBN.BMP,Door1,0.299479167,0.076822917,1,0,0,1.6859,optionRight,30,310,1,7,0,7,0,1,,,,,,,,,,,,,,,,,,,,,,,,,,,,,,,,,,,,,,,
,,,,,,,,2023-08-16_08h31.47.500,HF_wild_card,2022.2.4,Win32,63.25910931,60fd1ff6c3a0346b66d878ee,64d2fd46c836a06233681665,64dc788ff045656bbd2da87a,,,,,,,decisionTrl,resources/DBN.BMP,resources/DY.BMP,Door1,-0.309895833,0.061197917,1,0,0,0.9367,optionLeft,30,340,1,8,0,8,0,1,,,,,,,,,,,,,,,,,,,,,,,,,,,,,,,,,,,,,,,
,,,,,,,,2023-08-16_08h31.47.500,HF_wild_card,2022.2.4,Win32,63.25910931,60fd1ff6c3a0346b66d878ee,64d2fd46c836a06233681665,64dc788ff045656bbd2da87a,,,,,,,sngl,resources/DG.BMP,resources/Empty.png,Door4,-0.412760417,0.046875,1,0,0,0.8276,optionLeft,80,420,1,9,0,9,0,1,,,,,,,,,,,,,,,,,,,,,,,,,,,,,,,,,,,,,,,
,,,,,,,,2023-08-16_08h31.47.500,HF_wild_card,2022.2.4,Win32,63.25910931,60fd1ff6c3a0346b66d878ee,64d2fd46c836a06233681665,64dc788ff045656bbd2da87a,,,,,,,decisionTrl,resources/DP.BMP,resources/DG.BMP,Door4,0.3359375,0.0703125,1,0,0,0.7097,optionRight,60,480,1,10,0,10,0,1,,,,,,,,,,,,,,,,,,,,,,,,,,,,,,,,,,,,,,,
,,,,,,,,2023-08-16_08h31.47.500,HF_wild_card,2022.2.4,Win32,63.25910931,60fd1ff6c3a0346b66d878ee,64d2fd46c836a06233681665,64dc788ff045656bbd2da87a,,,,,,,decisionTrl,resources/DG.BMP,resources/DP.BMP,Door4,-0.153645833,0.114583333,1,0,0,2.3242,optionLeft,60,540,1,11,0,11,0,1,,,,,,,,,,,,,,,,,,,,,,,,,,,,,,,,,,,,,,,
,,,,,,,,2023-08-16_08h31.47.500,HF_wild_card,2022.2.4,Win32,63.25910931,60fd1ff6c3a0346b66d878ee,64d2fd46c836a06233681665,64dc788ff045656bbd2da87a,,,,,,,decisionTrl,resources/DBN.BMP,resources/DY.BMP,Door1,-0.149739583,0.0390625,1,0,0,0.914,optionLeft,30,570,1,12,0,12,0,1,,,,,,,,,,,,,,,,,,,,,,,,,,,,,,,,,,,,,,,
,,,,,,,,2023-08-16_08h31.47.500,HF_wild_card,2022.2.4,Win32,63.25910931,60fd1ff6c3a0346b66d878ee,64d2fd46c836a06233681665,64dc788ff045656bbd2da87a,,,,,,,ctch,resources/DY.BMP,resources/DP.BMP,Door3,0.235677083,0.263020833,1,0,0,0.9593,optionRight,70,640,1,13,0,13,0,1,,,,,,,,,,,,,,,,,,,,,,,,,,,,,,,,,,,,,,,
,,,,,,,,2023-08-16_08h31.47.500,HF_wild_card,2022.2.4,Win32,63.25910931,60fd1ff6c3a0346b66d878ee,64d2fd46c836a06233681665,64dc788ff045656bbd2da87a,,,,,,,decisionTrl,resources/DG.BMP,resources/DP.BMP,Door3,0.153645833,0.118489583,1,0,0,1.8249,optionRight,70,710,1,14,0,14,0,1,,,,,,,,,,,,,,,,,,,,,,,,,,,,,,,,,,,,,,,
,,,,,,,,2023-08-16_08h31.47.500,HF_wild_card,2022.2.4,Win32,63.25910931,60fd1ff6c3a0346b66d878ee,64d2fd46c836a06233681665,64dc788ff045656bbd2da87a,,,,,,,sngl,resources/DY.BMP,resources/Empty.png,Door2,-0.32421875,0.182291667,1,0,0,0.988,optionLeft,40,750,1,15,0,15,0,1,,,,,,,,,,,,,,,,,,,,,,,,,,,,,,,,,,,,,,,
,,,,,,,,2023-08-16_08h31.47.500,HF_wild_card,2022.2.4,Win32,63.25910931,60fd1ff6c3a0346b66d878ee,64d2fd46c836a06233681665,64dc788ff045656bbd2da87a,,,,,,,decisionTrl,resources/DY.BMP,resources/DB.BMP,Door2,-0.14453125,0.087239583,1,0,0,1.2431,optionLeft,40,790,1,16,0,16,0,1,,,,,,,,,,,,,,,,,,,,,,,,,,,,,,,,,,,,,,,
,,,,,,,,2023-08-16_08h31.47.500,HF_wild_card,2022.2.4,Win32,63.25910931,60fd1ff6c3a0346b66d878ee,64d2fd46c836a06233681665,64dc788ff045656bbd2da87a,,,,,,,sngl,resources/Empty.png,resources/DY.BMP,Door2,0.25390625,0.180989583,1,0,0,0.8111,optionRight,20,810,1,17,0,17,0,1,,,,,,,,,,,,,,,,,,,,,,,,,,,,,,,,,,,,,,,
,,,,,,,,2023-08-16_08h31.47.500,HF_wild_card,2022.2.4,Win32,63.25910931,60fd1ff6c3a0346b66d878ee,64d2fd46c836a06233681665,64dc788ff045656bbd2da87a,,,,,,,ctch,resources/DG.BMP,resources/DBN.BMP,Door1,0.221354167,0.126302083,1,0,0,1.0466,optionRight,30,840,1,18,0,18,0,1,,,,,,,,,,,,,,,,,,,,,,,,,,,,,,,,,,,,,,,
,,,,,,,,2023-08-16_08h31.47.500,HF_wild_card,2022.2.4,Win32,63.25910931,60fd1ff6c3a0346b66d878ee,64d2fd46c836a06233681665,64dc788ff045656bbd2da87a,,,,,,,decisionTrl,resources/DB.BMP,resources/DBN.BMP,Door1,0.256510417,0.190104167,1,0,0,1.3666,optionRight,30,870,1,19,0,19,0,1,,,,,,,,,,,,,,,,,,,,,,,,,,,,,,,,,,,,,,,
,,,,,,,,2023-08-16_08h31.47.500,HF_wild_card,2022.2.4,Win32,63.25910931,60fd1ff6c3a0346b66d878ee,64d2fd46c836a06233681665,64dc788ff045656bbd2da87a,,,,,,,decisionTrl,resources/DB.BMP,resources/DP.BMP,WildCard_Ex,-0.32421875,0.25,1,0,0,0.791,optionLeft,95,965,1,20,0,20,0,1,,,,,,,,,,,,,,,,,,,,,,,,,,,,,,,,,,,,,,,
,,,,,,,,2023-08-16_08h31.47.500,HF_wild_card,2022.2.4,Win32,63.25910931,60fd1ff6c3a0346b66d878ee,64d2fd46c836a06233681665,64dc788ff045656bbd2da87a,,,,,,,ctch,resources/DBN.BMP,resources/DG.BMP,Door1,-0.23046875,0.29296875,1,0,0,1.4059,optionLeft,30,995,1,21,0,21,0,1,,,,,,,,,,,,,,,,,,,,,,,,,,,,,,,,,,,,,,,
,,,,,,,,2023-08-16_08h31.47.500,HF_wild_card,2022.2.4,Win32,63.25910931,60fd1ff6c3a0346b66d878ee,64d2fd46c836a06233681665,64dc788ff045656bbd2da87a,,,,,,,sngl,resources/Empty.png,resources/DP.BMP,Door3,0.239583333,0.294270833,1,0,0,1.4938,optionRight,70,1065,1,22,0,22,0,1,,,,,,,,,,,,,,,,,,,,,,,,,,,,,,,,,,,,,,,
,,,,,,,,2023-08-16_08h31.47.500,HF_wild_card,2022.2.4,Win32,63.25910931,60fd1ff6c3a0346b66d878ee,64d2fd46c836a06233681665,64dc788ff045656bbd2da87a,,,,,,,decisionTrl,resources/DP.BMP,resources/DG.BMP,Door3,-0.1328125,0.1015625,1,0,0,1.9959,optionLeft,70,1135,1,23,0,23,0,1,,,,,,,,,,,,,,,,,,,,,,,,,,,,,,,,,,,,,,,
,,,,,,,,2023-08-16_08h31.47.500,HF_wild_card,2022.2.4,Win32,63.25910931,60fd1ff6c3a0346b66d878ee,64d2fd46c836a06233681665,64dc788ff045656bbd2da87a,,,,,,,decisionTrl,resources/DG.BMP,resources/DP.BMP,Door3,0.1640625,0.12890625,1,0,0,4.6217,optionRight,70,1205,1,24,0,24,0,1,,,,,,,,,,,,,,,,,,,,,,,,,,,,,,,,,,,,,,,
,,,,,,,,2023-08-16_08h31.47.500,HF_wild_card,2022.2.4,Win32,63.25910931,60fd1ff6c3a0346b66d878ee,64d2fd46c836a06233681665,64dc788ff045656bbd2da87a,,,,,,,decisionTrl,resources/DG.BMP,resources/DP.BMP,Door3,0.32421875,0.209635417,1,0,0,1.5917,optionRight,70,1275,1,25,0,25,0,1,,,,,,,,,,,,,,,,,,,,,,,,,,,,,,,,,,,,,,,
,,,,,,,,2023-08-16_08h31.47.500,HF_wild_card,2022.2.4,Win32,63.25910931,60fd1ff6c3a0346b66d878ee,64d2fd46c836a06233681665,64dc788ff045656bbd2da87a,,,,,,,ctch,resources/DY.BMP,resources/DP.BMP,Door3,0.200520833,0.09765625,1,0,0,0.7949,optionRight,70,1345,1,26,0,26,0,1,,,,,,,,,,,,,,,,,,,,,,,,,,,,,,,,,,,,,,,
,,,,,,,,2023-08-16_08h31.47.500,HF_wild_card,2022.2.4,Win32,63.25910931,60fd1ff6c3a0346b66d878ee,64d2fd46c836a06233681665,64dc788ff045656bbd2da87a,,,,,,,sngl,resources/Empty.png,resources/DBN.BMP,Door1,0.157552083,0.208333333,1,0,0,1.3817,optionRight,30,1375,1,27,0,27,0,1,,,,,,,,,,,,,,,,,,,,,,,,,,,,,,,,,,,,,,,
,,,,,,,,2023-08-16_08h31.47.500,HF_wild_card,2022.2.4,Win32,63.25910931,60fd1ff6c3a0346b66d878ee,64d2fd46c836a06233681665,64dc788ff045656bbd2da87a,,,,,,,ctch,resources/DP.BMP,resources/DY.BMP,Door3,-0.264322917,0.024739583,1,0,0,0.8768,optionLeft,70,1445,1,28,0,28,0,1,,,,,,,,,,,,,,,,,,,,,,,,,,,,,,,,,,,,,,,
,,,,,,,,2023-08-16_08h31.47.500,HF_wild_card,2022.2.4,Win32,63.25910931,60fd1ff6c3a0346b66d878ee,64d2fd46c836a06233681665,64dc788ff045656bbd2da87a,,,,,,,decisionTrl,resources/DY.BMP,resources/DBN.BMP,Door2,-0.174479167,0.11328125,1,0,0,1.1917,optionLeft,20,1465,1,29,0,29,0,1,,,,,,,,,,,,,,,,,,,,,,,,,,,,,,,,,,,,,,,
,,,,,,,,2023-08-16_08h31.47.500,HF_wild_card,2022.2.4,Win32,63.25910931,60fd1ff6c3a0346b66d878ee,64d2fd46c836a06233681665,64dc788ff045656bbd2da87a,,,,,,,decisionTrl,resources/DP.BMP,resources/DG.BMP,Door3,-0.182291667,0.0859375,1,0,0,2.0287,optionLeft,70,1535,1,30,0,30,0,1,,,,,,,,,,,,,,,,,,,,,,,,,,,,,,,,,,,,,,,
,,,,,,,,2023-08-16_08h31.47.500,HF_wild_card,2022.2.4,Win32,63.25910931,60fd1ff6c3a0346b66d878ee,64d2fd46c836a06233681665,64dc788ff045656bbd2da87a,,,,,,,decisionTrl,resources/DP.BMP,resources/DB.BMP,WildCard_Ex,0.178385417,0.083333333,1,0,0,2.7556,optionRight,5,1540,1,31,0,31,0,1,,,,,,,,,,,,,,,,,,,,,,,,,,,,,,,,,,,,,,,
,,,,,,,,2023-08-16_08h31.47.500,HF_wild_card,2022.2.4,Win32,63.25910931,60fd1ff6c3a0346b66d878ee,64d2fd46c836a06233681665,64dc788ff045656bbd2da87a,,,,,,,ctch,resources/DG.BMP,resources/DBN.BMP,Door1,0.33203125,0.244791667,1,0,0,1.6926,optionRight,30,1570,1,32,0,32,0,1,,,,,,,,,,,,,,,,,,,,,,,,,,,,,,,,,,,,,,,
,,,,,,,,2023-08-16_08h31.47.500,HF_wild_card,2022.2.4,Win32,63.25910931,60fd1ff6c3a0346b66d878ee,64d2fd46c836a06233681665,64dc788ff045656bbd2da87a,,,,,,,decisionTrl,resources/DBN.BMP,resources/DY.BMP,Door2,0.134114583,0.083333333,1,0,0,3.2414,optionRight,20,1590,1,33,0,33,0,1,,,,,,,,,,,,,,,,,,,,,,,,,,,,,,,,,,,,,,,
,,,,,,,,2023-08-16_08h31.47.500,HF_wild_card,2022.2.4,Win32,63.25910931,60fd1ff6c3a0346b66d878ee,64d2fd46c836a06233681665,64dc788ff045656bbd2da87a,,,,,,,decisionTrl,resources/DG.BMP,resources/DB.BMP,Door4,-0.11328125,0.037760417,1,0,0,1.1095,optionLeft,60,1650,1,34,0,34,0,1,,,,,,,,,,,,,,,,,,,,,,,,,,,,,,,,,,,,,,,
,,,,,,,,2023-08-16_08h31.47.500,HF_wild_card,2022.2.4,Win32,63.25910931,60fd1ff6c3a0346b66d878ee,64d2fd46c836a06233681665,64dc788ff045656bbd2da87a,,,,,,,sngl,resources/Empty.png,resources/DB.BMP,WildCard_Ex,0.36328125,0.018229167,1,0,0,1.1844,optionRight,95,1745,1,35,0,35,0,1,,,,,,,,,,,,,,,,,,,,,,,,,,,,,,,,,,,,,,,
,,,,,,,,2023-08-16_08h31.47.500,HF_wild_card,2022.2.4,Win32,63.25910931,60fd1ff6c3a0346b66d878ee,64d2fd46c836a06233681665,64dc788ff045656bbd2da87a,,,,,,,sngl,resources/DB.BMP,resources/Empty.png,WildCard_Ex,-0.196614583,0.016927083,1,0,0,0.8126,optionLeft,95,1840,1,36,0,36,0,1,,,,,,,,,,,,,,,,,,,,,,,,,,,,,,,,,,,,,,,
,,,,,,,,2023-08-16_08h31.47.500,HF_wild_card,2022.2.4,Win32,63.25910931,60fd1ff6c3a0346b66d878ee,64d2fd46c836a06233681665,64dc788ff045656bbd2da87a,,,,,,,decisionTrl,resources/DB.BMP,resources/DG.BMP,WildCard_Ex,-0.138020833,0.1640625,1,0,0,3.0257,optionLeft,95,1935,1,37,0,37,0,1,,,,,,,,,,,,,,,,,,,,,,,,,,,,,,,,,,,,,,,
,,,,,,,,2023-08-16_08h31.47.500,HF_wild_card,2022.2.4,Win32,63.25910931,60fd1ff6c3a0346b66d878ee,64d2fd46c836a06233681665,64dc788ff045656bbd2da87a,,,,,,,decisionTrl,resources/DY.BMP,resources/DBN.BMP,Door2,-0.209635417,0.18359375,1,0,0,1.1476,optionLeft,40,1975,1,38,0,38,0,1,,,,,,,,,,,,,,,,,,,,,,,,,,,,,,,,,,,,,,,
,,,,,,,,2023-08-16_08h31.47.500,HF_wild_card,2022.2.4,Win32,63.25910931,60fd1ff6c3a0346b66d878ee,64d2fd46c836a06233681665,64dc788ff045656bbd2da87a,,,,,,,decisionTrl,resources/DP.BMP,resources/DG.BMP,Door3,-0.23046875,0.184895833,1,0,0,2.0237,optionLeft,70,2045,1,39,0,39,0,1,,,,,,,,,,,,,,,,,,,,,,,,,,,,,,,,,,,,,,,
,,,,,,,,2023-08-16_08h31.47.500,HF_wild_card,2022.2.4,Win32,63.25910931,60fd1ff6c3a0346b66d878ee,64d2fd46c836a06233681665,64dc788ff045656bbd2da87a,,,,,,,decisionTrl,resources/DB.BMP,resources/DY.BMP,WildCard_Ex,-0.118489583,0.1640625,1,0,0,2.9786,optionLeft,5,2050,1,40,0,40,0,1,,,,,,,,,,,,,,,,,,,,,,,,,,,,,,,,,,,,,,,
,,,,,,,,2023-08-16_08h31.47.500,HF_wild_card,2022.2.4,Win32,63.25910931,60fd1ff6c3a0346b66d878ee,64d2fd46c836a06233681665,64dc788ff045656bbd2da87a,,,,,,,sngl,resources/DP.BMP,resources/Empty.png,Door3,-0.220052083,0.19921875,1,0,0,0.7971,optionLeft,70,2120,1,41,0,41,0,1,,,,,,,,,,,,,,,,,,,,,,,,,,,,,,,,,,,,,,,
,,,,,,,,2023-08-16_08h31.47.500,HF_wild_card,2022.2.4,Win32,63.25910931,60fd1ff6c3a0346b66d878ee,64d2fd46c836a06233681665,64dc788ff045656bbd2da87a,,,,,,,sngl,resources/DB.BMP,resources/Empty.png,WildCard_Ex,-0.217447917,0.029947917,1,0,0,0.7522,optionLeft,5,2125,1,42,0,42,0,1,,,,,,,,,,,,,,,,,,,,,,,,,,,,,,,,,,,,,,,
,,,,,,,,2023-08-16_08h31.47.500,HF_wild_card,2022.2.4,Win32,63.25910931,60fd1ff6c3a0346b66d878ee,64d2fd46c836a06233681665,64dc788ff045656bbd2da87a,,,,,,,sngl,resources/DBN.BMP,resources/Empty.png,Door1,-0.1953125,0.072916667,1,0,0,0.811,optionLeft,30,2155,1,43,0,43,0,1,,,,,,,,,,,,,,,,,,,,,,,,,,,,,,,,,,,,,,,
,,,,,,,,2023-08-16_08h31.47.500,HF_wild_card,2022.2.4,Win32,63.25910931,60fd1ff6c3a0346b66d878ee,64d2fd46c836a06233681665,64dc788ff045656bbd2da87a,,,,,,,,,,,,,,,,,,,,,,,,,,0,0,0,0,1,,,,,,,,,,,,,,,,,,,,,,,,,,,,,,,,,,
,,,,,,,,2023-08-16_08h31.47.500,HF_wild_card,2022.2.4,Win32,63.25910931,60fd1ff6c3a0346b66d878ee,64d2fd46c836a06233681665,64dc788ff045656bbd2da87a,,,,,,,ctch,resources/DBN.BMP,resources/DG.BMP,Door1,-0.135416667,0.010416667,1,0,0,1.7644,optionLeft,30,2185,2,0,0,0,0,1,,,,,,,,,,,,,,,,,,,,,,,,,,,,,,,,,,,,,,,
,,,,,,,,2023-08-16_08h31.47.500,HF_wild_card,2022.2.4,Win32,63.25910931,60fd1ff6c3a0346b66d878ee,64d2fd46c836a06233681665,64dc788ff045656bbd2da87a,,,,,,,decisionTrl,resources/DG.BMP,resources/DP.BMP,Door3,0.565104167,0.010416667,1,0,0,0.5968,optionRight,70,2255,2,1,0,1,0,1,,,,,,,,,,,,,,,,,,,,,,,,,,,,,,,,,,,,,,,
,,,,,,,,2023-08-16_08h31.47.500,HF_wild_card,2022.2.4,Win32,63.25910931,60fd1ff6c3a0346b66d878ee,64d2fd46c836a06233681665,64dc788ff045656bbd2da87a,,,,,,,decisionTrl,resources/DP.BMP,resources/DG.BMP,Door3,-0.40234375,0.078125,1,0,0,0.6291,optionLeft,70,2325,2,2,0,2,0,1,,,,,,,,,,,,,,,,,,,,,,,,,,,,,,,,,,,,,,,
,,,,,,,,2023-08-16_08h31.47.500,HF_wild_card,2022.2.4,Win32,63.25910931,60fd1ff6c3a0346b66d878ee,64d2fd46c836a06233681665,64dc788ff045656bbd2da87a,,,,,,,sngl,resources/Empty.png,resources/DP.BMP,Door3,0.412760417,0.006510417,1,0,0,0.996,optionRight,70,2395,2,3,0,3,0,1,,,,,,,,,,,,,,,,,,,,,,,,,,,,,,,,,,,,,,,
,,,,,,,,2023-08-16_08h31.47.500,HF_wild_card,2022.2.4,Win32,63.25910931,60fd1ff6c3a0346b66d878ee,64d2fd46c836a06233681665,64dc788ff045656bbd2da87a,,,,,,,sngl,resources/Empty.png,resources/DY.BMP,Door2,0.36328125,0.041666667,1,0,0,0.693,optionRight,40,2435,2,4,0,4,0,1,,,,,,,,,,,,,,,,,,,,,,,,,,,,,,,,,,,,,,,
,,,,,,,,2023-08-16_08h31.47.500,HF_wild_card,2022.2.4,Win32,63.25910931,60fd1ff6c3a0346b66d878ee,64d2fd46c836a06233681665,64dc788ff045656bbd2da87a,,,,,,,decisionTrl,resources/DB.BMP,resources/DY.BMP,WildCard_Ex,-0.1875,0.044270833,1,0,0,1.3339,optionLeft,5,2440,2,5,0,5,0,1,,,,,,,,,,,,,,,,,,,,,,,,,,,,,,,,,,,,,,,
,,,,,,,,2023-08-16_08h31.47.500,HF_wild_card,2022.2.4,Win32,63.25910931,60fd1ff6c3a0346b66d878ee,64d2fd46c836a06233681665,64dc788ff045656bbd2da87a,,,,,,,decisionTrl,resources/DBN.BMP,resources/DY.BMP,Door2,0.256510417,-0.002604167,1,0,0,0.8785,optionRight,20,2460,2,6,0,6,0,1,,,,,,,,,,,,,,,,,,,,,,,,,,,,,,,,,,,,,,,
,,,,,,,,2023-08-16_08h31.47.500,HF_wild_card,2022.2.4,Win32,63.25910931,60fd1ff6c3a0346b66d878ee,64d2fd46c836a06233681665,64dc788ff045656bbd2da87a,,,,,,,decisionTrl,resources/DB.BMP,resources/DG.BMP,Door4,0.380208333,0.049479167,1,0,0,1.8268,optionRight,80,2540,2,7,0,7,0,1,,,,,,,,,,,,,,,,,,,,,,,,,,,,,,,,,,,,,,,
,,,,,,,,2023-08-16_08h31.47.500,HF_wild_card,2022.2.4,Win32,63.25910931,60fd1ff6c3a0346b66d878ee,64d2fd46c836a06233681665,64dc788ff045656bbd2da87a,,,,,,,decisionTrl,resources/DY.BMP,resources/DBN.BMP,Door2,-0.25390625,0.036458333,1,0,0,0.7899,optionLeft,20,2560,2,8,0,8,0,1,,,,,,,,,,,,,,,,,,,,,,,,,,,,,,,,,,,,,,,
,,,,,,,,2023-08-16_08h31.47.500,HF_wild_card,2022.2.4,Win32,63.25910931,60fd1ff6c3a0346b66d878ee,64d2fd46c836a06233681665,64dc788ff045656bbd2da87a,,,,,,,ctch,resources/DG.BMP,resources/DBN.BMP,Door4,-0.325520833,0.061197917,1,0,0,0.9109,optionLeft,80,2640,2,9,0,9,0,1,,,,,,,,,,,,,,,,,,,,,,,,,,,,,,,,,,,,,,,
,,,,,,,,2023-08-16_08h31.47.500,HF_wild_card,2022.2.4,Win32,63.25910931,60fd1ff6c3a0346b66d878ee,64d2fd46c836a06233681665,64dc788ff045656bbd2da87a,,,,,,,sngl,resources/Empty.png,resources/DB.BMP,WildCard_Ex,0.33984375,0.084635417,1,0,0,1.0092,optionRight,95,2735,2,10,0,10,0,1,,,,,,,,,,,,,,,,,,,,,,,,,,,,,,,,,,,,,,,
,,,,,,,,2023-08-16_08h31.47.500,HF_wild_card,2022.2.4,Win32,63.25910931,60fd1ff6c3a0346b66d878ee,64d2fd46c836a06233681665,64dc788ff045656bbd2da87a,,,,,,,decisionTrl,resources/DP.BMP,resources/DG.BMP,Door4,0.477864583,0.125,1,0,0,2.1594,optionRight,60,2795,2,11,0,11,0,1,,,,,,,,,,,,,,,,,,,,,,,,,,,,,,,,,,,,,,,
,,,,,,,,2023-08-16_08h31.47.500,HF_wild_card,2022.2.4,Win32,63.25910931,60fd1ff6c3a0346b66d878ee,64d2fd46c836a06233681665,64dc788ff045656bbd2da87a,,,,,,,decisionTrl,resources/DY.BMP,resources/DBN.BMP,Door1,0.29296875,0.040364583,1,0,0,1.2606,optionRight,30,2825,2,12,0,12,0,1,,,,,,,,,,,,,,,,,,,,,,,,,,,,,,,,,,,,,,,
,,,,,,,,2023-08-16_08h31.47.500,HF_wild_card,2022.2.4,Win32,63.25910931,60fd1ff6c3a0346b66d878ee,64d2fd46c836a06233681665,64dc788ff045656bbd2da87a,,,,,,,ctch,resources/DY.BMP,resources/DP.BMP,Door3,0.545572917,0.174479167,1,0,0,1.7506,optionRight,70,2895,2,13,0,13,0,1,,,,,,,,,,,,,,,,,,,,,,,,,,,,,,,,,,,,,,,
,,,,,,,,2023-08-16_08h31.47.500,HF_wild_card,2022.2.4,Win32,63.25910931,60fd1ff6c3a0346b66d878ee,64d2fd46c836a06233681665,64dc788ff045656bbd2da87a,,,,,,,decisionTrl,resources/DP.BMP,resources/DG.BMP,Door3,-0.19140625,-0.084635417,1,0,0,1.0299,optionLeft,70,2965,2,14,0,14,0,1,,,,,,,,,,,,,,,,,,,,,,,,,,,,,,,,,,,,,,,
,,,,,,,,2023-08-16_08h31.47.500,HF_wild_card,2022.2.4,Win32,63.25910931,60fd1ff6c3a0346b66d878ee,64d2fd46c836a06233681665,64dc788ff045656bbd2da87a,,,,,,,decisionTrl,resources/DP.BMP,resources/DB.BMP,Door3,-0.3046875,0.03125,1,0,0,0.7476,optionLeft,70,3035,2,15,0,15,0,1,,,,,,,,,,,,,,,,,,,,,,,,,,,,,,,,,,,,,,,
,,,,,,,,2023-08-16_08h31.47.500,HF_wild_card,2022.2.4,Win32,63.25910931,60fd1ff6c3a0346b66d878ee,64d2fd46c836a06233681665,64dc788ff045656bbd2da87a,,,,,,,sngl,resources/Empty.png,resources/DG.BMP,Door4,0.161458333,0.00390625,1,0,0,1.9803,optionRight,80,3115,2,16,0,16,0,1,,,,,,,,,,,,,,,,,,,,,,,,,,,,,,,,,,,,,,,
,,,,,,,,2023-08-16_08h31.47.500,HF_wild_card,2022.2.4,Win32,63.25910931,60fd1ff6c3a0346b66d878ee,64d2fd46c836a06233681665,64dc788ff045656bbd2da87a,,,,,,,ctch,resources/DY.BMP,resources/DP.BMP,Door3,0.31640625,0.100260417,1,0,0,1.0605,optionRight,70,3185,2,17,0,17,0,1,,,,,,,,,,,,,,,,,,,,,,,,,,,,,,,,,,,,,,,
,,,,,,,,2023-08-16_08h31.47.500,HF_wild_card,2022.2.4,Win32,63.25910931,60fd1ff6c3a0346b66d878ee,64d2fd46c836a06233681665,64dc788ff045656bbd2da87a,,,,,,,decisionTrl,resources/DB.BMP,resources/DP.BMP,Door3,0.38671875,0.022135417,1,0,0,0.927,optionRight,70,3255,2,18,0,18,0,1,,,,,,,,,,,,,,,,,,,,,,,,,,,,,,,,,,,,,,,
,,,,,,,,2023-08-16_08h31.47.500,HF_wild_card,2022.2.4,Win32,63.25910931,60fd1ff6c3a0346b66d878ee,64d2fd46c836a06233681665,64dc788ff045656bbd2da87a,,,,,,,decisionTrl,resources/DY.BMP,resources/DB.BMP,Door2,-0.170572917,-0.005208333,1,0,0,1.3455,optionLeft,20,3275,2,19,0,19,0,1,,,,,,,,,,,,,,,,,,,,,,,,,,,,,,,,,,,,,,,
,,,,,,,,2023-08-16_08h31.47.500,HF_wild_card,2022.2.4,Win32,63.25910931,60fd1ff6c3a0346b66d878ee,64d2fd46c836a06233681665,64dc788ff045656bbd2da87a,,,,,,,sngl,resources/DP.BMP,resources/Empty.png,Door3,-0.173177083,0.045572917,1,0,0,0.6643,optionLeft,70,3345,2,20,0,20,0,1,,,,,,,,,,,,,,,,,,,,,,,,,,,,,,,,,,,,,,,
,,,,,,,,2023-08-16_08h31.47.500,HF_wild_card,2022.2.4,Win32,63.25910931,60fd1ff6c3a0346b66d878ee,64d2fd46c836a06233681665,64dc788ff045656bbd2da87a,,,,,,,ctch,resources/DP.BMP,resources/DY.BMP,Door3,-0.45703125,0.151041667,1,0,0,3.2015,optionLeft,70,3415,2,21,0,21,0,1,,,,,,,,,,,,,,,,,,,,,,,,,,,,,,,,,,,,,,,
,,,,,,,,2023-08-16_08h31.47.500,HF_wild_card,2022.2.4,Win32,63.25910931,60fd1ff6c3a0346b66d878ee,64d2fd46c836a06233681665,64dc788ff045656bbd2da87a,,,,,,,decisionTrl,resources/DBN.BMP,resources/DY.BMP,Door1,-0.359375,0.083333333,1,0,0,0.8206,optionLeft,30,3445,2,22,0,22,0,1,,,,,,,,,,,,,,,,,,,,,,,,,,,,,,,,,,,,,,,
,,,,,,,,2023-08-16_08h31.47.500,HF_wild_card,2022.2.4,Win32,63.25910931,60fd1ff6c3a0346b66d878ee,64d2fd46c836a06233681665,64dc788ff045656bbd2da87a,,,,,,,sngl,resources/DY.BMP,resources/Empty.png,Door2,-0.201822917,0.1015625,1,0,0,1.0603,optionLeft,20,3465,2,23,0,23,0,1,,,,,,,,,,,,,,,,,,,,,,,,,,,,,,,,,,,,,,,
,,,,,,,,2023-08-16_08h31.47.500,HF_wild_card,2022.2.4,Win32,63.25910931,60fd1ff6c3a0346b66d878ee,64d2fd46c836a06233681665,64dc788ff045656bbd2da87a,,,,,,,sngl,resources/DB.BMP,resources/Empty.png,WildCard_Ex,-0.31640625,0.182291667,1,0,0,2.6598,optionLeft,95,3560,2,24,0,24,0,1,,,,,,,,,,,,,,,,,,,,,,,,,,,,,,,,,,,,,,,
,,,,,,,,2023-08-16_08h31.47.500,HF_wild_card,2022.2.4,Win32,63.25910931,60fd1ff6c3a0346b66d878ee,64d2fd46c836a06233681665,64dc788ff045656bbd2da87a,,,,,,,decisionTrl,resources/DG.BMP,resources/DP.BMP,Door3,0.29296875,0.041666667,1,0,0,0.973,optionRight,70,3630,2,25,0,25,0,1,,,,,,,,,,,,,,,,,,,,,,,,,,,,,,,,,,,,,,,
,,,,,,,,2023-08-16_08h31.47.500,HF_wild_card,2022.2.4,Win32,63.25910931,60fd1ff6c3a0346b66d878ee,64d2fd46c836a06233681665,64dc788ff045656bbd2da87a,,,,,,,sngl,resources/Empty.png,resources/DBN.BMP,Door1,0.190104167,0.02734375,1,0,0,1.3934,optionRight,30,3660,2,26,0,26,0,1,,,,,,,,,,,,,,,,,,,,,,,,,,,,,,,,,,,,,,,
,,,,,,,,2023-08-16_08h31.47.500,HF_wild_card,2022.2.4,Win32,63.25910931,60fd1ff6c3a0346b66d878ee,64d2fd46c836a06233681665,64dc788ff045656bbd2da87a,,,,,,,decisionTrl,resources/DY.BMP,resources/DBN.BMP,Door1,0.34765625,0.084635417,1,0,0,1.0201,optionRight,30,3690,2,27,0,27,0,1,,,,,,,,,,,,,,,,,,,,,,,,,,,,,,,,,,,,,,,
,,,,,,,,2023-08-16_08h31.47.500,HF_wild_card,2022.2.4,Win32,63.25910931,60fd1ff6c3a0346b66d878ee,64d2fd46c836a06233681665,64dc788ff045656bbd2da87a,,,,,,,decisionTrl,resources/DG.BMP,resources/DB.BMP,Door4,-0.268229167,0.079427083,1,0,0,1.0014,optionLeft,60,3750,2,28,0,28,0,1,,,,,,,,,,,,,,,,,,,,,,,,,,,,,,,,,,,,,,,
,,,,,,,,2023-08-16_08h31.47.500,HF_wild_card,2022.2.4,Win32,63.25910931,60fd1ff6c3a0346b66d878ee,64d2fd46c836a06233681665,64dc788ff045656bbd2da87a,,,,,,,decisionTrl,resources/DY.BMP,resources/DBN.BMP,Door2,-0.412760417,0.173177083,1,0,0,1.508,optionLeft,40,3790,2,29,0,29,0,1,,,,,,,,,,,,,,,,,,,,,,,,,,,,,,,,,,,,,,,
,,,,,,,,2023-08-16_08h31.47.500,HF_wild_card,2022.2.4,Win32,63.25910931,60fd1ff6c3a0346b66d878ee,64d2fd46c836a06233681665,64dc788ff045656bbd2da87a,,,,,,,ctch,resources/DP.BMP,resources/DY.BMP,Door3,-0.21484375,0.095052083,1,0,0,1.0949,optionLeft,70,3860,2,30,0,30,0,1,,,,,,,,,,,,,,,,,,,,,,,,,,,,,,,,,,,,,,,
,,,,,,,,2023-08-16_08h31.47.500,HF_wild_card,2022.2.4,Win32,63.25910931,60fd1ff6c3a0346b66d878ee,64d2fd46c836a06233681665,64dc788ff045656bbd2da87a,,,,,,,sngl,resources/DG.BMP,resources/Empty.png,Door4,-0.235677083,0.063802083,1,0,0,0.7272,optionLeft,60,3920,2,31,0,31,0,1,,,,,,,,,,,,,,,,,,,,,,,,,,,,,,,,,,,,,,,
,,,,,,,,2023-08-16_08h31.47.500,HF_wild_card,2022.2.4,Win32,63.25910931,60fd1ff6c3a0346b66d878ee,64d2fd46c836a06233681665,64dc788ff045656bbd2da87a,,,,,,,decisionTrl,resources/DBN.BMP,resources/DY.BMP,Door1,-0.240885417,0.02734375,1,0,0,2.0427,optionLeft,30,3950,2,32,0,32,0,1,,,,,,,,,,,,,,,,,,,,,,,,,,,,,,,,,,,,,,,
,,,,,,,,2023-08-16_08h31.47.500,HF_wild_card,2022.2.4,Win32,63.25910931,60fd1ff6c3a0346b66d878ee,64d2fd46c836a06233681665,64dc788ff045656bbd2da87a,,,,,,,ctch,resources/DG.BMP,resources/DBN.BMP,Door4,-0.2421875,0.127604167,1,0,0,0.9084,optionLeft,80,4030,2,33,0,33,0,1,,,,,,,,,,,,,,,,,,,,,,,,,,,,,,,,,,,,,,,
,,,,,,,,2023-08-16_08h31.47.500,HF_wild_card,2022.2.4,Win32,63.25910931,60fd1ff6c3a0346b66d878ee,64d2fd46c836a06233681665,64dc788ff045656bbd2da87a,,,,,,,decisionTrl,resources/DBN.BMP,resources/DY.BMP,Door2,0.197916667,0.122395833,1,0,0,1.7935,optionRight,40,4070,2,34,0,34,0,1,,,,,,,,,,,,,,,,,,,,,,,,,,,,,,,,,,,,,,,
,,,,,,,,2023-08-16_08h31.47.500,HF_wild_card,2022.2.4,Win32,63.25910931,60fd1ff6c3a0346b66d878ee,64d2fd46c836a06233681665,64dc788ff045656bbd2da87a,,,,,,,ctch,resources/DBN.BMP,resources/DG.BMP,Door4,0.352864583,0.05859375,1,0,0,0.6733,optionRight,60,4130,2,35,0,35,0,1,,,,,,,,,,,,,,,,,,,,,,,,,,,,,,,,,,,,,,,
,,,,,,,,2023-08-16_08h31.47.500,HF_wild_card,2022.2.4,Win32,63.25910931,60fd1ff6c3a0346b66d878ee,64d2fd46c836a06233681665,64dc788ff045656bbd2da87a,,,,,,,sngl,resources/DB.BMP,resources/Empty.png,WildCard_Ex,-0.3671875,0.08203125,1,0,0,1.5067,optionLeft,5,4135,2,36,0,36,0,1,,,,,,,,,,,,,,,,,,,,,,,,,,,,,,,,,,,,,,,
,,,,,,,,2023-08-16_08h31.47.500,HF_wild_card,2022.2.4,Win32,63.25910931,60fd1ff6c3a0346b66d878ee,64d2fd46c836a06233681665,64dc788ff045656bbd2da87a,,,,,,,decisionTrl,resources/DB.BMP,resources/DBN.BMP,Door1,0.1953125,0.06640625,1,0,0,0.8956,optionRight,30,4165,2,37,0,37,0,1,,,,,,,,,,,,,,,,,,,,,,,,,,,,,,,,,,,,,,,
,,,,,,,,2023-08-16_08h31.47.500,HF_wild_card,2022.2.4,Win32,63.25910931,60fd1ff6c3a0346b66d878ee,64d2fd46c836a06233681665,64dc788ff045656bbd2da87a,,,,,,,decisionTrl,resources/DBN.BMP,resources/DB.BMP,Door1,-0.28125,0.151041667,1,0,0,3.0246,optionLeft,30,4195,2,38,0,38,0,1,,,,,,,,,,,,,,,,,,,,,,,,,,,,,,,,,,,,,,,
,,,,,,,,2023-08-16_08h31.47.500,HF_wild_card,2022.2.4,Win32,63.25910931,60fd1ff6c3a0346b66d878ee,64d2fd46c836a06233681665,64dc788ff045656bbd2da87a,,,,,,,decisionTrl,resources/DP.BMP,resources/DG.BMP,Door4,0.174479167,-0.00390625,1,0,0,0.9262,optionRight,80,4275,2,39,0,39,0,1,,,,,,,,,,,,,,,,,,,,,,,,,,,,,,,,,,,,,,,
,,,,,,,,2023-08-16_08h31.47.500,HF_wild_card,2022.2.4,Win32,63.25910931,60fd1ff6c3a0346b66d878ee,64d2fd46c836a06233681665,64dc788ff045656bbd2da87a,,,,,,,decisionTrl,resources/DG.BMP,resources/DP.BMP,Door3,0.2578125,0.057291667,1,0,0,1.4516,optionRight,70,4345,2,40,0,40,0,1,,,,,,,,,,,,,,,,,,,,,,,,,,,,,,,,,,,,,,,
,,,,,,,,2023-08-16_08h31.47.500,HF_wild_card,2022.2.4,Win32,63.25910931,60fd1ff6c3a0346b66d878ee,64d2fd46c836a06233681665,64dc788ff045656bbd2da87a,,,,,,,decisionTrl,resources/DG.BMP,resources/DP.BMP,Door4,-0.35546875,0.032552083,1,0,0,1.0637,optionLeft,80,4425,2,41,0,41,0,1,,,,,,,,,,,,,,,,,,,,,,,,,,,,,,,,,,,,,,,
,,,,,,,,2023-08-16_08h31.47.500,HF_wild_card,2022.2.4,Win32,63.25910931,60fd1ff6c3a0346b66d878ee,64d2fd46c836a06233681665,64dc788ff045656bbd2da87a,,,,,,,sngl,resources/DBN.BMP,resources/Empty.png,Door1,-0.342447917,0.083333333,1,0,0,2.5239,optionLeft,30,4455,2,42,0,42,0,1,,,,,,,,,,,,,,,,,,,,,,,,,,,,,,,,,,,,,,,
,,,,,,,,2023-08-16_08h31.47.500,HF_wild_card,2022.2.4,Win32,63.25910931,60fd1ff6c3a0346b66d878ee,64d2fd46c836a06233681665,64dc788ff045656bbd2da87a,,,,,,,sngl,resources/Empty.png,resources/DB.BMP,WildCard_Ex,0.305989583,0.072916667,1,0,0,0.66,optionRight,5,4460,2,43,0,43,0,1,,,,,,,,,,,,,,,,,,,,,,,,,,,,,,,,,,,,,,,
,,,,,,,,2023-08-16_08h31.47.500,HF_wild_card,2022.2.4,Win32,63.25910931,60fd1ff6c3a0346b66d878ee,64d2fd46c836a06233681665,64dc788ff045656bbd2da87a,,,,,,,,,,,,,,,,,,,,,,,,,,1,0,1,0,1,,,,,,,,,,,,,,,,,,,,,,,,,,,,,,,,,,
,,,,,,,,2023-08-16_08h31.47.500,HF_wild_card,2022.2.4,Win32,63.25910931,60fd1ff6c3a0346b66d878ee,64d2fd46c836a06233681665,64dc788ff045656bbd2da87a,,,,,,,decisionTrl,resources/DB.BMP,resources/DP.BMP,Door3,0.557291667,0.115885417,1,0,0,1.8598,optionRight,70,4530,3,0,0,0,0,1,,,,,,,,,,,,,,,,,,,,,,,,,,,,,,,,,,,,,,,
,,,,,,,,2023-08-16_08h31.47.500,HF_wild_card,2022.2.4,Win32,63.25910931,60fd1ff6c3a0346b66d878ee,64d2fd46c836a06233681665,64dc788ff045656bbd2da87a,,,,,,,sngl,resources/DG.BMP,resources/Empty.png,Door4,-0.354166667,0.0234375,1,0,0,0.7134,optionLeft,80,4610,3,1,0,1,0,1,,,,,,,,,,,,,,,,,,,,,,,,,,,,,,,,,,,,,,,
,,,,,,,,2023-08-16_08h31.47.500,HF_wild_card,2022.2.4,Win32,63.25910931,60fd1ff6c3a0346b66d878ee,64d2fd46c836a06233681665,64dc788ff045656bbd2da87a,,,,,,,decisionTrl,resources/DP.BMP,resources/DG.BMP,Door4,0.321614583,0.009114583,1,0,0,0.6807,optionRight,80,4690,3,2,0,2,0,1,,,,,,,,,,,,,,,,,,,,,,,,,,,,,,,,,,,,,,,
,,,,,,,,2023-08-16_08h31.47.500,HF_wild_card,2022.2.4,Win32,63.25910931,60fd1ff6c3a0346b66d878ee,64d2fd46c836a06233681665,64dc788ff045656bbd2da87a,,,,,,,sngl,resources/DB.BMP,resources/Empty.png,WildCard_Ex,-0.334635417,0.04296875,1,0,0,1.6456,optionLeft,5,4695,3,3,0,3,0,1,,,,,,,,,,,,,,,,,,,,,,,,,,,,,,,,,,,,,,,
,,,,,,,,2023-08-16_08h31.47.500,HF_wild_card,2022.2.4,Win32,63.25910931,60fd1ff6c3a0346b66d878ee,64d2fd46c836a06233681665,64dc788ff045656bbd2da87a,,,,,,,sngl,resources/DBN.BMP,resources/Empty.png,Door1,-0.311197917,0.170572917,1,0,0,0.7952,optionLeft,30,4725,3,4,0,4,0,1,,,,,,,,,,,,,,,,,,,,,,,,,,,,,,,,,,,,,,,
,,,,,,,,2023-08-16_08h31.47.500,HF_wild_card,2022.2.4,Win32,63.25910931,60fd1ff6c3a0346b66d878ee,64d2fd46c836a06233681665,64dc788ff045656bbd2da87a,,,,,,,decisionTrl,resources/DY.BMP,resources/DBN.BMP,Door2,-0.2890625,0.122395833,1,0,0,0.6833,optionLeft,20,4745,3,5,0,5,0,1,,,,,,,,,,,,,,,,,,,,,,,,,,,,,,,,,,,,,,,
,,,,,,,,2023-08-16_08h31.47.500,HF_wild_card,2022.2.4,Win32,63.25910931,60fd1ff6c3a0346b66d878ee,64d2fd46c836a06233681665,64dc788ff045656bbd2da87a,,,,,,,decisionTrl,resources/DP.BMP,resources/DG.BMP,Door4,0.177083333,0.072916667,1,0,0,1.1622,optionRight,80,4825,3,6,0,6,0,1,,,,,,,,,,,,,,,,,,,,,,,,,,,,,,,,,,,,,,,
,,,,,,,,2023-08-16_08h31.47.500,HF_wild_card,2022.2.4,Win32,63.25910931,60fd1ff6c3a0346b66d878ee,64d2fd46c836a06233681665,64dc788ff045656bbd2da87a,,,,,,,decisionTrl,resources/DY.BMP,resources/DBN.BMP,Door1,0.233072917,0.045572917,1,0,0,1.3802,optionRight,30,4855,3,7,0,7,0,1,,,,,,,,,,,,,,,,,,,,,,,,,,,,,,,,,,,,,,,
,,,,,,,,2023-08-16_08h31.47.500,HF_wild_card,2022.2.4,Win32,63.25910931,60fd1ff6c3a0346b66d878ee,64d2fd46c836a06233681665,64dc788ff045656bbd2da87a,,,,,,,ctch,resources/DBN.BMP,resources/DG.BMP,Door4,0.287760417,0.19140625,1,0,0,0.8302,optionRight,60,4915,3,8,0,8,0,1,,,,,,,,,,,,,,,,,,,,,,,,,,,,,,,,,,,,,,,
,,,,,,,,2023-08-16_08h31.47.500,HF_wild_card,2022.2.4,Win32,63.25910931,60fd1ff6c3a0346b66d878ee,64d2fd46c836a06233681665,64dc788ff045656bbd2da87a,,,,,,,decisionTrl,resources/DBN.BMP,resources/DY.BMP,Door1,-0.365885417,0.055989583,1,0,0,1.1436,optionLeft,30,4945,3,9,0,9,0,1,,,,,,,,,,,,,,,,,,,,,,,,,,,,,,,,,,,,,,,
,,,,,,,,2023-08-16_08h31.47.500,HF_wild_card,2022.2.4,Win32,63.25910931,60fd1ff6c3a0346b66d878ee,64d2fd46c836a06233681665,64dc788ff045656bbd2da87a,,,,,,,ctch,resources/DP.BMP,resources/DY.BMP,Door3,-0.220052083,0.006510417,1,0,0,1.0348,optionLeft,70,5015,3,10,0,10,0,1,,,,,,,,,,,,,,,,,,,,,,,,,,,,,,,,,,,,,,,
,,,,,,,,2023-08-16_08h31.47.500,HF_wild_card,2022.2.4,Win32,63.25910931,60fd1ff6c3a0346b66d878ee,64d2fd46c836a06233681665,64dc788ff045656bbd2da87a,,,,,,,ctch,resources/DY.BMP,resources/DP.BMP,Door3,0.348958333,0.225260417,1,0,0,1.3944,optionRight,70,5085,3,11,0,11,0,1,,,,,,,,,,,,,,,,,,,,,,,,,,,,,,,,,,,,,,,
,,,,,,,,2023-08-16_08h31.47.500,HF_wild_card,2022.2.4,Win32,63.25910931,60fd1ff6c3a0346b66d878ee,64d2fd46c836a06233681665,64dc788ff045656bbd2da87a,,,,,,,ctch,resources/DG.BMP,resources/DBN.BMP,Door4,-0.282552083,0.075520833,1,0,0,0.9367,optionLeft,80,5165,3,12,0,12,0,1,,,,,,,,,,,,,,,,,,,,,,,,,,,,,,,,,,,,,,,
,,,,,,,,2023-08-16_08h31.47.500,HF_wild_card,2022.2.4,Win32,63.25910931,60fd1ff6c3a0346b66d878ee,64d2fd46c836a06233681665,64dc788ff045656bbd2da87a,,,,,,,decisionTrl,resources/DB.BMP,resources/DY.BMP,Door2,0.287760417,0.01953125,1,0,0,0.8224,optionRight,40,5205,3,13,0,13,0,1,,,,,,,,,,,,,,,,,,,,,,,,,,,,,,,,,,,,,,,
,,,,,,,,2023-08-16_08h31.47.500,HF_wild_card,2022.2.4,Win32,63.25910931,60fd1ff6c3a0346b66d878ee,64d2fd46c836a06233681665,64dc788ff045656bbd2da87a,,,,,,,decisionTrl,resources/DG.BMP,resources/DP.BMP,Door4,-0.260416667,0.088541667,1,0,0,2.3959,optionLeft,80,5285,3,14,0,14,0,1,,,,,,,,,,,,,,,,,,,,,,,,,,,,,,,,,,,,,,,
,,,,,,,,2023-08-16_08h31.47.500,HF_wild_card,2022.2.4,Win32,63.25910931,60fd1ff6c3a0346b66d878ee,64d2fd46c836a06233681665,64dc788ff045656bbd2da87a,,,,,,,sngl,resources/DB.BMP,resources/Empty.png,WildCard_Ex,-0.173177083,0.026041667,1,0,0,1.0788,optionLeft,95,5380,3,15,0,15,0,1,,,,,,,,,,,,,,,,,,,,,,,,,,,,,,,,,,,,,,,
,,,,,,,,2023-08-16_08h31.47.500,HF_wild_card,2022.2.4,Win32,63.25910931,60fd1ff6c3a0346b66d878ee,64d2fd46c836a06233681665,64dc788ff045656bbd2da87a,,,,,,,decisionTrl,resources/DP.BMP,resources/DG.BMP,Door4,0.319010417,0.065104167,1,0,0,2.0098,optionRight,80,5460,3,16,0,16,0,1,,,,,,,,,,,,,,,,,,,,,,,,,,,,,,,,,,,,,,,
,,,,,,,,2023-08-16_08h31.47.500,HF_wild_card,2022.2.4,Win32,63.25910931,60fd1ff6c3a0346b66d878ee,64d2fd46c836a06233681665,64dc788ff045656bbd2da87a,,,,,,,decisionTrl,resources/DP.BMP,resources/DG.BMP,Door4,0.174479167,0.084635417,1,0,0,0.8633,optionRight,60,5520,3,17,0,17,0,1,,,,,,,,,,,,,,,,,,,,,,,,,,,,,,,,,,,,,,,
,,,,,,,,2023-08-16_08h31.47.500,HF_wild_card,2022.2.4,Win32,63.25910931,60fd1ff6c3a0346b66d878ee,64d2fd46c836a06233681665,64dc788ff045656bbd2da87a,,,,,,,ctch,resources/DY.BMP,resources/DP.BMP,Door3,0.287760417,-0.0234375,1,0,0,1.2812,optionRight,70,5590,3,18,0,18,0,1,,,,,,,,,,,,,,,,,,,,,,,,,,,,,,,,,,,,,,,
,,,,,,,,2023-08-16_08h31.47.500,HF_wild_card,2022.2.4,Win32,63.25910931,60fd1ff6c3a0346b66d878ee,64d2fd46c836a06233681665,64dc788ff045656bbd2da87a,,,,,,,sngl,resources/Empty.png,resources/DY.BMP,Door2,0.23828125,0.022135417,1,0,0,1.9293,optionRight,20,5610,3,19,0,19,0,1,,,,,,,,,,,,,,,,,,,,,,,,,,,,,,,,,,,,,,,
,,,,,,,,2023-08-16_08h31.47.500,HF_wild_card,2022.2.4,Win32,63.25910931,60fd1ff6c3a0346b66d878ee,64d2fd46c836a06233681665,64dc788ff045656bbd2da87a,,,,,,,decisionTrl,resources/DG.BMP,resources/DP.BMP,Door4,-0.200520833,0.053385417,1,0,0,1.2279,optionLeft,60,5670,3,20,0,20,0,1,,,,,,,,,,,,,,,,,,,,,,,,,,,,,,,,,,,,,,,
,,,,,,,,2023-08-16_08h31.47.500,HF_wild_card,2022.2.4,Win32,63.25910931,60fd1ff6c3a0346b66d878ee,64d2fd46c836a06233681665,64dc788ff045656bbd2da87a,,,,,,,decisionTrl,resources/DP.BMP,resources/DB.BMP,Door3,-0.2265625,0.05078125,1,0,0,0.711,optionLeft,70,5740,3,21,0,21,0,1,,,,,,,,,,,,,,,,,,,,,,,,,,,,,,,,,,,,,,,
,,,,,,,,2023-08-16_08h31.47.500,HF_wild_card,2022.2.4,Win32,63.25910931,60fd1ff6c3a0346b66d878ee,64d2fd46c836a06233681665,64dc788ff045656bbd2da87a,,,,,,,decisionTrl,resources/DBN.BMP,resources/DY.BMP,Door2,0.497395833,0.075520833,1,0,0,0.8658,optionRight,20,5760,3,22,0,22,0,1,,,,,,,,,,,,,,,,,,,,,,,,,,,,,,,,,,,,,,,
,,,,,,,,2023-08-16_08h31.47.500,HF_wild_card,2022.2.4,Win32,63.25910931,60fd1ff6c3a0346b66d878ee,64d2fd46c836a06233681665,64dc788ff045656bbd2da87a,,,,,,,decisionTrl,resources/DY.BMP,resources/DB.BMP,WildCard_Ex,0.200520833,0.009114583,1,0,0,0.8819,optionRight,5,5765,3,23,0,23,0,1,,,,,,,,,,,,,,,,,,,,,,,,,,,,,,,,,,,,,,,
,,,,,,,,2023-08-16_08h31.47.500,HF_wild_card,2022.2.4,Win32,63.25910931,60fd1ff6c3a0346b66d878ee,64d2fd46c836a06233681665,64dc788ff045656bbd2da87a,,,,,,,decisionTrl,resources/DY.BMP,resources/DBN.BMP,Door1,0.419270833,0.14453125,1,0,0,1.1327,optionRight,30,5795,3,24,0,24,0,1,,,,,,,,,,,,,,,,,,,,,,,,,,,,,,,,,,,,,,,
,,,,,,,,2023-08-16_08h31.47.500,HF_wild_card,2022.2.4,Win32,63.25910931,60fd1ff6c3a0346b66d878ee,64d2fd46c836a06233681665,64dc788ff045656bbd2da87a,,,,,,,sngl,resources/DP.BMP,resources/Empty.png,Door3,-0.466145833,0.036458333,1,0,0,1.1137,optionLeft,70,5865,3,25,0,25,0,1,,,,,,,,,,,,,,,,,,,,,,,,,,,,,,,,,,,,,,,
,,,,,,,,2023-08-16_08h31.47.500,HF_wild_card,2022.2.4,Win32,63.25910931,60fd1ff6c3a0346b66d878ee,64d2fd46c836a06233681665,64dc788ff045656bbd2da87a,,,,,,,sngl,resources/Empty.png,resources/DP.BMP,Door3,0.196614583,0.014322917,1,0,0,0.814,optionRight,70,5935,3,26,0,26,0,1,,,,,,,,,,,,,,,,,,,,,,,,,,,,,,,,,,,,,,,
,,,,,,,,2023-08-16_08h31.47.500,HF_wild_card,2022.2.4,Win32,63.25910931,60fd1ff6c3a0346b66d878ee,64d2fd46c836a06233681665,64dc788ff045656bbd2da87a,,,,,,,decisionTrl,resources/DBN.BMP,resources/DB.BMP,Door1,-0.220052083,0.1015625,1,0,0,1.7435,optionLeft,30,5965,3,27,0,27,0,1,,,,,,,,,,,,,,,,,,,,,,,,,,,,,,,,,,,,,,,
,,,,,,,,2023-08-16_08h31.47.500,HF_wild_card,2022.2.4,Win32,63.25910931,60fd1ff6c3a0346b66d878ee,64d2fd46c836a06233681665,64dc788ff045656bbd2da87a,,,,,,,ctch,resources/DP.BMP,resources/DY.BMP,Door3,-0.22265625,0.014322917,1,0,0,2.2424,optionLeft,70,6035,3,28,0,28,0,1,,,,,,,,,,,,,,,,,,,,,,,,,,,,,,,,,,,,,,,
,,,,,,,,2023-08-16_08h31.47.500,HF_wild_card,2022.2.4,Win32,63.25910931,60fd1ff6c3a0346b66d878ee,64d2fd46c836a06233681665,64dc788ff045656bbd2da87a,,,,,,,sngl,resources/Empty.png,resources/DBN.BMP,Door1,0.361979167,0.022135417,1,0,0,0.9456,optionRight,30,6065,3,29,0,29,0,1,,,,,,,,,,,,,,,,,,,,,,,,,,,,,,,,,,,,,,,
,,,,,,,,2023-08-16_08h31.47.500,HF_wild_card,2022.2.4,Win32,63.25910931,60fd1ff6c3a0346b66d878ee,64d2fd46c836a06233681665,64dc788ff045656bbd2da87a,,,,,,,decisionTrl,resources/DY.BMP,resources/DBN.BMP,Door1,0.393229167,0.106770833,1,0,0,3.3443,optionRight,30,6095,3,30,0,30,0,1,,,,,,,,,,,,,,,,,,,,,,,,,,,,,,,,,,,,,,,
,,,,,,,,2023-08-16_08h31.47.500,HF_wild_card,2022.2.4,Win32,63.25910931,60fd1ff6c3a0346b66d878ee,64d2fd46c836a06233681665,64dc788ff045656bbd2da87a,,,,,,,decisionTrl,resources/DB.BMP,resources/DG.BMP,Door4,0.32421875,0.028645833,1,0,0,1.225,optionRight,80,6175,3,31,0,31,0,1,,,,,,,,,,,,,,,,,,,,,,,,,,,,,,,,,,,,,,,
,,,,,,,,2023-08-16_08h31.47.500,HF_wild_card,2022.2.4,Win32,63.25910931,60fd1ff6c3a0346b66d878ee,64d2fd46c836a06233681665,64dc788ff045656bbd2da87a,,,,,,,sngl,resources/Empty.png,resources/DG.BMP,Door4,0.30859375,0.069010417,1,0,0,0.7514,optionRight,60,6235,3,32,0,32,0,1,,,,,,,,,,,,,,,,,,,,,,,,,,,,,,,,,,,,,,,
,,,,,,,,2023-08-16_08h31.47.500,HF_wild_card,2022.2.4,Win32,63.25910931,60fd1ff6c3a0346b66d878ee,64d2fd46c836a06233681665,64dc788ff045656bbd2da87a,,,,,,,sngl,resources/Empty.png,resources/DB.BMP,WildCard_Ex,0.239583333,0,1,0,0,1.2476,optionRight,95,6330,3,33,0,33,0,1,,,,,,,,,,,,,,,,,,,,,,,,,,,,,,,,,,,,,,,
,,,,,,,,2023-08-16_08h31.47.500,HF_wild_card,2022.2.4,Win32,63.25910931,60fd1ff6c3a0346b66d878ee,64d2fd46c836a06233681665,64dc788ff045656bbd2da87a,,,,,,,ctch,resources/DG.BMP,resources/DBN.BMP,Door4,-0.11328125,0.002604167,1,0,0,7.4454,optionLeft,80,6410,3,34,0,34,0,1,,,,,,,,,,,,,,,,,,,,,,,,,,,,,,,,,,,,,,,
,,,,,,,,2023-08-16_08h31.47.500,HF_wild_card,2022.2.4,Win32,63.25910931,60fd1ff6c3a0346b66d878ee,64d2fd46c836a06233681665,64dc788ff045656bbd2da87a,,,,,,,sngl,resources/DY.BMP,resources/Empty.png,Door2,-0.12890625,0.052083333,1,0,0,1.1774,optionLeft,40,6450,3,35,0,35,0,1,,,,,,,,,,,,,,,,,,,,,,,,,,,,,,,,,,,,,,,
,,,,,,,,2023-08-16_08h31.47.500,HF_wild_card,2022.2.4,Win32,63.25910931,60fd1ff6c3a0346b66d878ee,64d2fd46c836a06233681665,64dc788ff045656bbd2da87a,,,,,,,ctch,resources/DBN.BMP,resources/DG.BMP,Door4,0.315104167,0.080729167,1,0,0,2.2752,optionRight,60,6510,3,36,0,36,0,1,,,,,,,,,,,,,,,,,,,,,,,,,,,,,,,,,,,,,,,
,,,,,,,,2023-08-16_08h31.47.500,HF_wild_card,2022.2.4,Win32,63.25910931,60fd1ff6c3a0346b66d878ee,64d2fd46c836a06233681665,64dc788ff045656bbd2da87a,,,,,,,decisionTrl,resources/DG.BMP,resources/DB.BMP,Door4,-0.364583333,0.022135417,1,0,0,0.6808,optionLeft,60,6570,3,37,0,37,0,1,,,,,,,,,,,,,,,,,,,,,,,,,,,,,,,,,,,,,,,
,,,,,,,,2023-08-16_08h31.47.500,HF_wild_card,2022.2.4,Win32,63.25910931,60fd1ff6c3a0346b66d878ee,64d2fd46c836a06233681665,64dc788ff045656bbd2da87a,,,,,,,decisionTrl,resources/DG.BMP,resources/DP.BMP,Door3,0.06640625,0.020833333,1,0,0,1.2346,optionRight,70,6640,3,38,0,38,0,1,,,,,,,,,,,,,,,,,,,,,,,,,,,,,,,,,,,,,,,
,,,,,,,,2023-08-16_08h31.47.500,HF_wild_card,2022.2.4,Win32,63.25910931,60fd1ff6c3a0346b66d878ee,64d2fd46c836a06233681665,64dc788ff045656bbd2da87a,,,,,,,decisionTrl,resources/DG.BMP,resources/DP.BMP,Door4,-0.087239583,0.04296875,1,0,0,1.6594,optionLeft,80,6720,3,39,0,39,0,1,,,,,,,,,,,,,,,,,,,,,,,,,,,,,,,,,,,,,,,
,,,,,,,,2023-08-16_08h31.47.500,HF_wild_card,2022.2.4,Win32,63.25910931,60fd1ff6c3a0346b66d878ee,64d2fd46c836a06233681665,64dc788ff045656bbd2da87a,,,,,,,sngl,resources/Empty.png,resources/DB.BMP,WildCard_Ex,0.248697917,0.0625,1,0,0,0.7262,optionRight,5,6725,3,40,0,40,0,1,,,,,,,,,,,,,,,,,,,,,,,,,,,,,,,,,,,,,,,
,,,,,,,,2023-08-16_08h31.47.500,HF_wild_card,2022.2.4,Win32,63.25910931,60fd1ff6c3a0346b66d878ee,64d2fd46c836a06233681665,64dc788ff045656bbd2da87a,,,,,,,decisionTrl,resources/DBN.BMP,resources/DY.BMP,Door2,0.434895833,0.25390625,1,0,0,0.9412,optionRight,40,6765,3,41,0,41,0,1,,,,,,,,,,,,,,,,,,,,,,,,,,,,,,,,,,,,,,,
,,,,,,,,2023-08-16_08h31.47.500,HF_wild_card,2022.2.4,Win32,63.25910931,60fd1ff6c3a0346b66d878ee,64d2fd46c836a06233681665,64dc788ff045656bbd2da87a,,,,,,,decisionTrl,resources/DB.BMP,resources/DBN.BMP,WildCard_Ex,-0.302083333,0.015625,1,0,0,1.0431,optionLeft,5,6770,3,42,0,42,0,1,,,,,,,,,,,,,,,,,,,,,,,,,,,,,,,,,,,,,,,
,,,,,,,,2023-08-16_08h31.47.500,HF_wild_card,2022.2.4,Win32,63.25910931,60fd1ff6c3a0346b66d878ee,64d2fd46c836a06233681665,64dc788ff045656bbd2da87a,,,,,,,decisionTrl,resources/DBN.BMP,resources/DY.BMP,Door2,0.158854167,0.049479167,1,0,0,1.0261,optionRight,20,6790,3,43,0,43,0,1,,,,,,,,,,,,,,,,,,,,,,,,,,,,,,,,,,,,,,,
,,,,,,,,2023-08-16_08h31.47.500,HF_wild_card,2022.2.4,Win32,63.25910931,60fd1ff6c3a0346b66d878ee,64d2fd46c836a06233681665,64dc788ff045656bbd2da87a,,,,,,,,,,,,,,,,,,,,,,,,,,2,0,2,0,1,,,,,,,,,,,,,,,,,,,,,,,,,,,,,,,,,,
,,,,,,,,2023-08-16_08h31.47.500,HF_wild_card,2022.2.4,Win32,63.25910931,60fd1ff6c3a0346b66d878ee,64d2fd46c836a06233681665,64dc788ff045656bbd2da87a,,,,,,,decisionTrl,resources/DP.BMP,resources/DG.BMP,Door4,0.119791667,0.102864583,1,0,0,1.4308,optionRight,60,6850,4,0,0,0,0,1,,,,,,,,,,,,,,,,,,,,,,,,,,,,,,,,,,,,,,,
,,,,,,,,2023-08-16_08h31.47.500,HF_wild_card,2022.2.4,Win32,63.25910931,60fd1ff6c3a0346b66d878ee,64d2fd46c836a06233681665,64dc788ff045656bbd2da87a,,,,,,,decisionTrl,resources/DY.BMP,resources/DBN.BMP,Door2,-0.328125,0.02734375,1,0,0,0.6698,optionLeft,20,6870,4,1,0,1,0,1,,,,,,,,,,,,,,,,,,,,,,,,,,,,,,,,,,,,,,,
,,,,,,,,2023-08-16_08h31.47.500,HF_wild_card,2022.2.4,Win32,63.25910931,60fd1ff6c3a0346b66d878ee,64d2fd46c836a06233681665,64dc788ff045656bbd2da87a,,,,,,,ctch,resources/DY.BMP,resources/DP.BMP,Door3,0.166666667,-0.01171875,1,0,0,0.7953,optionRight,70,6940,4,2,0,2,0,1,,,,,,,,,,,,,,,,,,,,,,,,,,,,,,,,,,,,,,,
,,,,,,,,2023-08-16_08h31.47.500,HF_wild_card,2022.2.4,Win32,63.25910931,60fd1ff6c3a0346b66d878ee,64d2fd46c836a06233681665,64dc788ff045656bbd2da87a,,,,,,,decisionTrl,resources/DG.BMP,resources/DR.BMP,WildCard_NonEx,0.188802083,0.03515625,1,0,0,1.0603,optionRight,45,6985,4,3,0,3,0,1,,,,,,,,,,,,,,,,,,,,,,,,,,,,,,,,,,,,,,,
,,,,,,,,2023-08-16_08h31.47.500,HF_wild_card,2022.2.4,Win32,63.25910931,60fd1ff6c3a0346b66d878ee,64d2fd46c836a06233681665,64dc788ff045656bbd2da87a,,,,,,,decisionTrl,resources/DR.BMP,resources/DG.BMP,WildCard_NonEx,-0.40234375,-0.014322917,1,0,0,1.2938,optionLeft,55,7040,4,4,0,4,0,1,,,,,,,,,,,,,,,,,,,,,,,,,,,,,,,,,,,,,,,
,,,,,,,,2023-08-16_08h31.47.500,HF_wild_card,2022.2.4,Win32,63.25910931,60fd1ff6c3a0346b66d878ee,64d2fd46c836a06233681665,64dc788ff045656bbd2da87a,,,,,,,ctch,resources/DG.BMP,resources/DBN.BMP,Door4,-0.186197917,0.037760417,1,0,0,0.6117,optionLeft,80,7120,4,5,0,5,0,1,,,,,,,,,,,,,,,,,,,,,,,,,,,,,,,,,,,,,,,
,,,,,,,,2023-08-16_08h31.47.500,HF_wild_card,2022.2.4,Win32,63.25910931,60fd1ff6c3a0346b66d878ee,64d2fd46c836a06233681665,64dc788ff045656bbd2da87a,,,,,,,decisionTrl,resources/DR.BMP,resources/DY.BMP,Door2,0.37109375,0.178385417,1,0,0,1.1925,optionRight,20,7140,4,6,0,6,0,1,,,,,,,,,,,,,,,,,,,,,,,,,,,,,,,,,,,,,,,
,,,,,,,,2023-08-16_08h31.47.500,HF_wild_card,2022.2.4,Win32,63.25910931,60fd1ff6c3a0346b66d878ee,64d2fd46c836a06233681665,64dc788ff045656bbd2da87a,,,,,,,ctch,resources/DBN.BMP,resources/DG.BMP,Door4,0.190104167,0.036458333,1,0,0,1.5401,optionRight,80,7220,4,7,0,7,0,1,,,,,,,,,,,,,,,,,,,,,,,,,,,,,,,,,,,,,,,
,,,,,,,,2023-08-16_08h31.47.500,HF_wild_card,2022.2.4,Win32,63.25910931,60fd1ff6c3a0346b66d878ee,64d2fd46c836a06233681665,64dc788ff045656bbd2da87a,,,,,,,sngl,resources/Empty.png,resources/DR.BMP,WildCard_NonEx,0.1875,-0.014322917,1,0,0,1.0084,optionRight,55,7275,4,8,0,8,0,1,,,,,,,,,,,,,,,,,,,,,,,,,,,,,,,,,,,,,,,
,,,,,,,,2023-08-16_08h31.47.500,HF_wild_card,2022.2.4,Win32,63.25910931,60fd1ff6c3a0346b66d878ee,64d2fd46c836a06233681665,64dc788ff045656bbd2da87a,,,,,,,decisionTrl,resources/DY.BMP,resources/DBN.BMP,Door1,0.157552083,-0.002604167,1,0,0,2.4262,optionRight,30,7305,4,9,0,9,0,1,,,,,,,,,,,,,,,,,,,,,,,,,,,,,,,,,,,,,,,
,,,,,,,,2023-08-16_08h31.47.500,HF_wild_card,2022.2.4,Win32,63.25910931,60fd1ff6c3a0346b66d878ee,64d2fd46c836a06233681665,64dc788ff045656bbd2da87a,,,,,,,sngl,resources/DG.BMP,resources/Empty.png,Door4,-0.2265625,0.041666667,1,0,0,0.7944,optionLeft,60,7365,4,10,0,10,0,1,,,,,,,,,,,,,,,,,,,,,,,,,,,,,,,,,,,,,,,
,,,,,,,,2023-08-16_08h31.47.500,HF_wild_card,2022.2.4,Win32,63.25910931,60fd1ff6c3a0346b66d878ee,64d2fd46c836a06233681665,64dc788ff045656bbd2da87a,,,,,,,sngl,resources/DR.BMP,resources/Empty.png,WildCard_NonEx,-0.231770833,0.006510417,1,0,0,1.3919,optionLeft,45,7410,4,11,0,11,0,1,,,,,,,,,,,,,,,,,,,,,,,,,,,,,,,,,,,,,,,
,,,,,,,,2023-08-16_08h31.47.500,HF_wild_card,2022.2.4,Win32,63.25910931,60fd1ff6c3a0346b66d878ee,64d2fd46c836a06233681665,64dc788ff045656bbd2da87a,,,,,,,ctch,resources/DY.BMP,resources/DP.BMP,Door3,0.252604167,-0.02734375,1,0,0,0.8448,optionRight,70,7480,4,12,0,12,0,1,,,,,,,,,,,,,,,,,,,,,,,,,,,,,,,,,,,,,,,
,,,,,,,,2023-08-16_08h31.47.500,HF_wild_card,2022.2.4,Win32,63.25910931,60fd1ff6c3a0346b66d878ee,64d2fd46c836a06233681665,64dc788ff045656bbd2da87a,,,,,,,sngl,resources/DP.BMP,resources/Empty.png,Door3,-0.248697917,0.026041667,1,0,0,1.91,optionLeft,70,7550,4,13,0,13,0,1,,,,,,,,,,,,,,,,,,,,,,,,,,,,,,,,,,,,,,,
,,,,,,,,2023-08-16_08h31.47.500,HF_wild_card,2022.2.4,Win32,63.25910931,60fd1ff6c3a0346b66d878ee,64d2fd46c836a06233681665,64dc788ff045656bbd2da87a,,,,,,,ctch,resources/DBN.BMP,resources/DG.BMP,Door4,0.333333333,0.186197917,1,0,0,1.8483,optionRight,80,7630,4,14,0,14,0,1,,,,,,,,,,,,,,,,,,,,,,,,,,,,,,,,,,,,,,,
,,,,,,,,2023-08-16_08h31.47.500,HF_wild_card,2022.2.4,Win32,63.25910931,60fd1ff6c3a0346b66d878ee,64d2fd46c836a06233681665,64dc788ff045656bbd2da87a,,,,,,,sngl,resources/Empty.png,resources/DP.BMP,Door3,0.388020833,0.041666667,1,0,0,0.8119,optionRight,70,7700,4,15,0,15,0,1,,,,,,,,,,,,,,,,,,,,,,,,,,,,,,,,,,,,,,,
,,,,,,,,2023-08-16_08h31.47.500,HF_wild_card,2022.2.4,Win32,63.25910931,60fd1ff6c3a0346b66d878ee,64d2fd46c836a06233681665,64dc788ff045656bbd2da87a,,,,,,,sngl,resources/DY.BMP,resources/Empty.png,Door2,-0.204427083,0.080729167,1,0,0,0.8201,optionLeft,20,7720,4,16,0,16,0,1,,,,,,,,,,,,,,,,,,,,,,,,,,,,,,,,,,,,,,,
,,,,,,,,2023-08-16_08h31.47.500,HF_wild_card,2022.2.4,Win32,63.25910931,60fd1ff6c3a0346b66d878ee,64d2fd46c836a06233681665,64dc788ff045656bbd2da87a,,,,,,,decisionTrl,resources/DG.BMP,resources/DP.BMP,Door3,0.14453125,0.063802083,1,0,0,1.7101,optionRight,70,7790,4,17,0,17,0,1,,,,,,,,,,,,,,,,,,,,,,,,,,,,,,,,,,,,,,,
,,,,,,,,2023-08-16_08h31.47.500,HF_wild_card,2022.2.4,Win32,63.25910931,60fd1ff6c3a0346b66d878ee,64d2fd46c836a06233681665,64dc788ff045656bbd2da87a,,,,,,,decisionTrl,resources/DR.BMP,resources/DP.BMP,Door3,0.282552083,0.1953125,1,0,0,1.242,optionRight,70,7860,4,18,0,18,0,1,,,,,,,,,,,,,,,,,,,,,,,,,,,,,,,,,,,,,,,
,,,,,,,,2023-08-16_08h31.47.500,HF_wild_card,2022.2.4,Win32,63.25910931,60fd1ff6c3a0346b66d878ee,64d2fd46c836a06233681665,64dc788ff045656bbd2da87a,,,,,,,sngl,resources/DBN.BMP,resources/Empty.png,Door1,-0.109375,0.022135417,1,0,0,1.1581,optionLeft,30,7890,4,19,0,19,0,1,,,,,,,,,,,,,,,,,,,,,,,,,,,,,,,,,,,,,,,
,,,,,,,,2023-08-16_08h31.47.500,HF_wild_card,2022.2.4,Win32,63.25910931,60fd1ff6c3a0346b66d878ee,64d2fd46c836a06233681665,64dc788ff045656bbd2da87a,,,,,,,sngl,resources/DR.BMP,resources/Empty.png,WildCard_NonEx,-0.200520833,0.00390625,1,0,0,2.0292,optionLeft,55,7945,4,20,0,20,0,1,,,,,,,,,,,,,,,,,,,,,,,,,,,,,,,,,,,,,,,
,,,,,,,,2023-08-16_08h31.47.500,HF_wild_card,2022.2.4,Win32,63.25910931,60fd1ff6c3a0346b66d878ee,64d2fd46c836a06233681665,64dc788ff045656bbd2da87a,,,,,,,decisionTrl,resources/DBN.BMP,resources/DY.BMP,Door1,-0.151041667,0.048177083,1,0,0,11.9822,optionLeft,30,7975,4,21,0,21,0,1,,,,,,,,,,,,,,,,,,,,,,,,,,,,,,,,,,,,,,,
,,,,,,,,2023-08-16_08h31.47.500,HF_wild_card,2022.2.4,Win32,63.25910931,60fd1ff6c3a0346b66d878ee,64d2fd46c836a06233681665,64dc788ff045656bbd2da87a,,,,,,,decisionTrl,resources/DG.BMP,resources/DP.BMP,Door3,0.33203125,0.098958333,1,0,0,3.1435,optionRight,70,8045,4,22,0,22,0,1,,,,,,,,,,,,,,,,,,,,,,,,,,,,,,,,,,,,,,,
,,,,,,,,2023-08-16_08h31.47.500,HF_wild_card,2022.2.4,Win32,63.25910931,60fd1ff6c3a0346b66d878ee,64d2fd46c836a06233681665,64dc788ff045656bbd2da87a,,,,,,,decisionTrl,resources/DY.BMP,resources/DR.BMP,Door2,-0.235677083,-0.01953125,1,0,0,0.8241,optionLeft,40,8085,4,23,0,23,0,1,,,,,,,,,,,,,,,,,,,,,,,,,,,,,,,,,,,,,,,
,,,,,,,,2023-08-16_08h31.47.500,HF_wild_card,2022.2.4,Win32,63.25910931,60fd1ff6c3a0346b66d878ee,64d2fd46c836a06233681665,64dc788ff045656bbd2da87a,,,,,,,decisionTrl,resources/DG.BMP,resources/DP.BMP,Door4,-0.338541667,-0.001302083,1,0,0,0.8389,optionLeft,60,8145,4,24,0,24,0,1,,,,,,,,,,,,,,,,,,,,,,,,,,,,,,,,,,,,,,,
,,,,,,,,2023-08-16_08h31.47.500,HF_wild_card,2022.2.4,Win32,63.25910931,60fd1ff6c3a0346b66d878ee,64d2fd46c836a06233681665,64dc788ff045656bbd2da87a,,,,,,,sngl,resources/Empty.png,resources/DBN.BMP,Door1,0.186197917,0.03125,1,0,0,1.2857,optionRight,30,8175,4,25,0,25,0,1,,,,,,,,,,,,,,,,,,,,,,,,,,,,,,,,,,,,,,,
,,,,,,,,2023-08-16_08h31.47.500,HF_wild_card,2022.2.4,Win32,63.25910931,60fd1ff6c3a0346b66d878ee,64d2fd46c836a06233681665,64dc788ff045656bbd2da87a,,,,,,,decisionTrl,resources/DBN.BMP,resources/DR.BMP,Door1,-0.184895833,0.052083333,1,0,0,0.7594,optionLeft,30,8205,4,26,0,26,0,1,,,,,,,,,,,,,,,,,,,,,,,,,,,,,,,,,,,,,,,
,,,,,,,,2023-08-16_08h31.47.500,HF_wild_card,2022.2.4,Win32,63.25910931,60fd1ff6c3a0346b66d878ee,64d2fd46c836a06233681665,64dc788ff045656bbd2da87a,,,,,,,decisionTrl,resources/DY.BMP,resources/DBN.BMP,Door2,-0.28125,0.020833333,1,0,0,1.9929,optionLeft,20,8225,4,27,0,27,0,1,,,,,,,,,,,,,,,,,,,,,,,,,,,,,,,,,,,,,,,
,,,,,,,,2023-08-16_08h31.47.500,HF_wild_card,2022.2.4,Win32,63.25910931,60fd1ff6c3a0346b66d878ee,64d2fd46c836a06233681665,64dc788ff045656bbd2da87a,,,,,,,decisionTrl,resources/DBN.BMP,resources/DY.BMP,Door1,-0.291666667,0.00390625,1,0,0,0.6599,optionLeft,30,8255,4,28,0,28,0,1,,,,,,,,,,,,,,,,,,,,,,,,,,,,,,,,,,,,,,,
,,,,,,,,2023-08-16_08h31.47.500,HF_wild_card,2022.2.4,Win32,63.25910931,60fd1ff6c3a0346b66d878ee,64d2fd46c836a06233681665,64dc788ff045656bbd2da87a,,,,,,,decisionTrl,resources/DG.BMP,resources/DP.BMP,Door3,0.317708333,0.102864583,1,0,0,1.7426,optionRight,70,8325,4,29,0,29,0,1,,,,,,,,,,,,,,,,,,,,,,,,,,,,,,,,,,,,,,,
,,,,,,,,2023-08-16_08h31.47.500,HF_wild_card,2022.2.4,Win32,63.25910931,60fd1ff6c3a0346b66d878ee,64d2fd46c836a06233681665,64dc788ff045656bbd2da87a,,,,,,,decisionTrl,resources/DP.BMP,resources/DR.BMP,Door3,-0.32421875,0.018229167,1,0,0,71.9904,optionLeft,70,8395,4,30,0,30,0,1,,,,,,,,,,,,,,,,,,,,,,,,,,,,,,,,,,,,,,,
,,,,,,,,2023-08-16_08h31.47.500,HF_wild_card,2022.2.4,Win32,63.25910931,60fd1ff6c3a0346b66d878ee,64d2fd46c836a06233681665,64dc788ff045656bbd2da87a,,,,,,,ctch,resources/DP.BMP,resources/DY.BMP,Door3,-0.115885417,0.063802083,1,0,0,2.7791,optionLeft,70,8465,4,31,0,31,0,1,,,,,,,,,,,,,,,,,,,,,,,,,,,,,,,,,,,,,,,
,,,,,,,,2023-08-16_08h31.47.500,HF_wild_card,2022.2.4,Win32,63.25910931,60fd1ff6c3a0346b66d878ee,64d2fd46c836a06233681665,64dc788ff045656bbd2da87a,,,,,,,decisionTrl,resources/DP.BMP,resources/DG.BMP,Door3,-0.2421875,0.08203125,1,0,0,1.0264,optionLeft,70,8535,4,32,0,32,0,1,,,,,,,,,,,,,,,,,,,,,,,,,,,,,,,,,,,,,,,
,,,,,,,,2023-08-16_08h31.47.500,HF_wild_card,2022.2.4,Win32,63.25910931,60fd1ff6c3a0346b66d878ee,64d2fd46c836a06233681665,64dc788ff045656bbd2da87a,,,,,,,sngl,resources/Empty.png,resources/DR.BMP,WildCard_NonEx,0.244791667,0.067708333,1,0,0,2.2344,optionRight,45,8580,4,33,0,33,0,1,,,,,,,,,,,,,,,,,,,,,,,,,,,,,,,,,,,,,,,
,,,,,,,,2023-08-16_08h31.47.500,HF_wild_card,2022.2.4,Win32,63.25910931,60fd1ff6c3a0346b66d878ee,64d2fd46c836a06233681665,64dc788ff045656bbd2da87a,,,,,,,decisionTrl,resources/DP.BMP,resources/DG.BMP,Door3,-0.16796875,0.078125,1,0,0,0.8673,optionLeft,70,8650,4,34,0,34,0,1,,,,,,,,,,,,,,,,,,,,,,,,,,,,,,,,,,,,,,,
,,,,,,,,2023-08-16_08h31.47.500,HF_wild_card,2022.2.4,Win32,63.25910931,60fd1ff6c3a0346b66d878ee,64d2fd46c836a06233681665,64dc788ff045656bbd2da87a,,,,,,,ctch,resources/DG.BMP,resources/DBN.BMP,Door4,-0.102864583,0.0625,1,0,0,1.4267,optionLeft,80,8730,4,35,0,35,0,1,,,,,,,,,,,,,,,,,,,,,,,,,,,,,,,,,,,,,,,
,,,,,,,,2023-08-16_08h31.47.500,HF_wild_card,2022.2.4,Win32,63.25910931,60fd1ff6c3a0346b66d878ee,64d2fd46c836a06233681665,64dc788ff045656bbd2da87a,,,,,,,sngl,resources/Empty.png,resources/DG.BMP,Door4,0.328125,0.052083333,1,0,0,5.6882,optionRight,80,8810,4,36,0,36,0,1,,,,,,,,,,,,,,,,,,,,,,,,,,,,,,,,,,,,,,,
,,,,,,,,2023-08-16_08h31.47.500,HF_wild_card,2022.2.4,Win32,63.25910931,60fd1ff6c3a0346b66d878ee,64d2fd46c836a06233681665,64dc788ff045656bbd2da87a,,,,,,,decisionTrl,resources/DY.BMP,resources/DBN.BMP,Door1,0.473958333,-0.028645833,1,0,0,3.4529,optionRight,30,8840,4,37,0,37,0,1,,,,,,,,,,,,,,,,,,,,,,,,,,,,,,,,,,,,,,,
,,,,,,,,2023-08-16_08h31.47.500,HF_wild_card,2022.2.4,Win32,63.25910931,60fd1ff6c3a0346b66d878ee,64d2fd46c836a06233681665,64dc788ff045656bbd2da87a,,,,,,,decisionTrl,resources/DBN.BMP,resources/DY.BMP,Door1,-0.358072917,0.114583333,1,0,0,1.4293,optionLeft,30,8870,4,38,0,38,0,1,,,,,,,,,,,,,,,,,,,,,,,,,,,,,,,,,,,,,,,
,,,,,,,,2023-08-16_08h31.47.500,HF_wild_card,2022.2.4,Win32,63.25910931,60fd1ff6c3a0346b66d878ee,64d2fd46c836a06233681665,64dc788ff045656bbd2da87a,,,,,,,sngl,resources/Empty.png,resources/DY.BMP,Door2,0.29296875,-0.052083333,1,0,0,0.8945,optionRight,40,8910,4,39,0,39,0,1,,,,,,,,,,,,,,,,,,,,,,,,,,,,,,,,,,,,,,,
,,,,,,,,2023-08-16_08h31.47.500,HF_wild_card,2022.2.4,Win32,63.25910931,60fd1ff6c3a0346b66d878ee,64d2fd46c836a06233681665,64dc788ff045656bbd2da87a,,,,,,,decisionTrl,resources/DBN.BMP,resources/DY.BMP,Door1,-0.30078125,0.098958333,1,0,0,0.9261,optionLeft,30,8940,4,40,0,40,0,1,,,,,,,,,,,,,,,,,,,,,,,,,,,,,,,,,,,,,,,
,,,,,,,,2023-08-16_08h31.47.500,HF_wild_card,2022.2.4,Win32,63.25910931,60fd1ff6c3a0346b66d878ee,64d2fd46c836a06233681665,64dc788ff045656bbd2da87a,,,,,,,decisionTrl,resources/DP.BMP,resources/DG.BMP,Door3,-0.125,0.045572917,1,0,0,1.8629,optionLeft,70,9010,4,41,0,41,0,1,,,,,,,,,,,,,,,,,,,,,,,,,,,,,,,,,,,,,,,
,,,,,,,,2023-08-16_08h31.47.500,HF_wild_card,2022.2.4,Win32,63.25910931,60fd1ff6c3a0346b66d878ee,64d2fd46c836a06233681665,64dc788ff045656bbd2da87a,,,,,,,ctch,resources/DP.BMP,resources/DY.BMP,Door3,-0.252604167,0.026041667,1,0,0,1.26,optionLeft,70,9080,4,42,0,42,0,1,,,,,,,,,,,,,,,,,,,,,,,,,,,,,,,,,,,,,,,
,,,,,,,,2023-08-16_08h31.47.500,HF_wild_card,2022.2.4,Win32,63.25910931,60fd1ff6c3a0346b66d878ee,64d2fd46c836a06233681665,64dc788ff045656bbd2da87a,,,,,,,decisionTrl,resources/DR.BMP,resources/DBN.BMP,Door1,0.298177083,0.0078125,1,0,0,0.9582,optionRight,30,9110,4,43,0,43,0,1,,,,,,,,,,,,,,,,,,,,,,,,,,,,,,,,,,,,,,,
,,,,,,,,2023-08-16_08h31.47.500,HF_wild_card,2022.2.4,Win32,63.25910931,60fd1ff6c3a0346b66d878ee,64d2fd46c836a06233681665,64dc788ff045656bbd2da87a,,,,,,,,,,,,,,,,,,,,,,,,,,3,0,3,0,1,,,,,,,,,,,,,,,,,,,,,,,,,,,,,,,,,,
,,,,,,,,2023-08-16_08h31.47.500,HF_wild_card,2022.2.4,Win32,63.25910931,60fd1ff6c3a0346b66d878ee,64d2fd46c836a06233681665,64dc788ff045656bbd2da87a,,,,,,,sngl,resources/Empty.png,resources/DR.BMP,WildCard_NonEx,0.404947917,-0.01171875,1,0,0,29.3764,optionRight,45,9155,5,0,0,0,0,1,,,,,,,,,,,,,,,,,,,,,,,,,,,,,,,,,,,,,,,
,,,,,,,,2023-08-16_08h31.47.500,HF_wild_card,2022.2.4,Win32,63.25910931,60fd1ff6c3a0346b66d878ee,64d2fd46c836a06233681665,64dc788ff045656bbd2da87a,,,,,,,sngl,resources/Empty.png,resources/DP.BMP,Door3,0.305989583,-0.005208333,1,0,0,0.7481,optionRight,70,9225,5,1,0,1,0,1,,,,,,,,,,,,,,,,,,,,,,,,,,,,,,,,,,,,,,,
,,,,,,,,2023-08-16_08h31.47.500,HF_wild_card,2022.2.4,Win32,63.25910931,60fd1ff6c3a0346b66d878ee,64d2fd46c836a06233681665,64dc788ff045656bbd2da87a,,,,,,,sngl,resources/Empty.png,resources/DBN.BMP,Door1,0.22265625,-0.00390625,1,0,0,1.0177,optionRight,30,9255,5,2,0,2,0,1,,,,,,,,,,,,,,,,,,,,,,,,,,,,,,,,,,,,,,,
,,,,,,,,2023-08-16_08h31.47.500,HF_wild_card,2022.2.4,Win32,63.25910931,60fd1ff6c3a0346b66d878ee,64d2fd46c836a06233681665,64dc788ff045656bbd2da87a,,,,,,,decisionTrl,resources/DP.BMP,resources/DG.BMP,Door3,-0.203125,0.033854167,1,0,0,1.193,optionLeft,70,9325,5,3,0,3,0,1,,,,,,,,,,,,,,,,,,,,,,,,,,,,,,,,,,,,,,,
,,,,,,,,2023-08-16_08h31.47.500,HF_wild_card,2022.2.4,Win32,63.25910931,60fd1ff6c3a0346b66d878ee,64d2fd46c836a06233681665,64dc788ff045656bbd2da87a,,,,,,,decisionTrl,resources/DY.BMP,resources/DR.BMP,WildCard_NonEx,0.231770833,-0.020833333,1,0,0,1.5766,optionRight,45,9370,5,4,0,4,0,1,,,,,,,,,,,,,,,,,,,,,,,,,,,,,,,,,,,,,,,
,,,,,,,,2023-08-16_08h31.47.500,HF_wild_card,2022.2.4,Win32,63.25910931,60fd1ff6c3a0346b66d878ee,64d2fd46c836a06233681665,64dc788ff045656bbd2da87a,,,,,,,decisionTrl,resources/DBN.BMP,resources/DR.BMP,WildCard_NonEx,0.401041667,-0.024739583,1,0,0,4.0626,optionRight,45,9415,5,5,0,5,0,1,,,,,,,,,,,,,,,,,,,,,,,,,,,,,,,,,,,,,,,
,,,,,,,,2023-08-16_08h31.47.500,HF_wild_card,2022.2.4,Win32,63.25910931,60fd1ff6c3a0346b66d878ee,64d2fd46c836a06233681665,64dc788ff045656bbd2da87a,,,,,,,decisionTrl,resources/DG.BMP,resources/DP.BMP,Door3,0.196614583,-0.037760417,1,0,0,4.5243,optionRight,70,9485,5,6,0,6,0,1,,,,,,,,,,,,,,,,,,,,,,,,,,,,,,,,,,,,,,,
,,,,,,,,2023-08-16_08h31.47.500,HF_wild_card,2022.2.4,Win32,63.25910931,60fd1ff6c3a0346b66d878ee,64d2fd46c836a06233681665,64dc788ff045656bbd2da87a,,,,,,,sngl,resources/Empty.png,resources/DG.BMP,Door4,0.278645833,0.024739583,1,0,0,1.6237,optionRight,60,9545,5,7,0,7,0,1,,,,,,,,,,,,,,,,,,,,,,,,,,,,,,,,,,,,,,,
,,,,,,,,2023-08-16_08h31.47.500,HF_wild_card,2022.2.4,Win32,63.25910931,60fd1ff6c3a0346b66d878ee,64d2fd46c836a06233681665,64dc788ff045656bbd2da87a,,,,,,,sngl,resources/Empty.png,resources/DR.BMP,WildCard_NonEx,0.108072917,-0.01171875,1,0,0,1.8599,optionRight,55,9600,5,8,0,8,0,1,,,,,,,,,,,,,,,,,,,,,,,,,,,,,,,,,,,,,,,
,,,,,,,,2023-08-16_08h31.47.500,HF_wild_card,2022.2.4,Win32,63.25910931,60fd1ff6c3a0346b66d878ee,64d2fd46c836a06233681665,64dc788ff045656bbd2da87a,,,,,,,sngl,resources/DG.BMP,resources/Empty.png,Door4,-0.21875,0.024739583,1,0,0,1.0676,optionLeft,80,9680,5,9,0,9,0,1,,,,,,,,,,,,,,,,,,,,,,,,,,,,,,,,,,,,,,,
,,,,,,,,2023-08-16_08h31.47.500,HF_wild_card,2022.2.4,Win32,63.25910931,60fd1ff6c3a0346b66d878ee,64d2fd46c836a06233681665,64dc788ff045656bbd2da87a,,,,,,,decisionTrl,resources/DP.BMP,resources/DG.BMP,Door3,-0.225260417,0.029947917,1,0,0,2.975,optionLeft,70,9750,5,10,0,10,0,1,,,,,,,,,,,,,,,,,,,,,,,,,,,,,,,,,,,,,,,
,,,,,,,,2023-08-16_08h31.47.500,HF_wild_card,2022.2.4,Win32,63.25910931,60fd1ff6c3a0346b66d878ee,64d2fd46c836a06233681665,64dc788ff045656bbd2da87a,,,,,,,decisionTrl,resources/DR.BMP,resources/DY.BMP,WildCard_NonEx,-0.20703125,0.111979167,1,0,0,1.8264,optionLeft,55,9805,5,11,0,11,0,1,,,,,,,,,,,,,,,,,,,,,,,,,,,,,,,,,,,,,,,
,,,,,,,,2023-08-16_08h31.47.500,HF_wild_card,2022.2.4,Win32,63.25910931,60fd1ff6c3a0346b66d878ee,64d2fd46c836a06233681665,64dc788ff045656bbd2da87a,,,,,,,ctch,resources/DG.BMP,resources/DBN.BMP,Door4,-0.225260417,0.013020833,1,0,0,4.3298,optionLeft,60,9865,5,12,0,12,0,1,,,,,,,,,,,,,,,,,,,,,,,,,,,,,,,,,,,,,,,
,,,,,,,,2023-08-16_08h31.47.500,HF_wild_card,2022.2.4,Win32,63.25910931,60fd1ff6c3a0346b66d878ee,64d2fd46c836a06233681665,64dc788ff045656bbd2da87a,,,,,,,sngl,resources/DR.BMP,resources/Empty.png,WildCard_NonEx,-0.393229167,-0.084635417,1,0,0,1.0612,optionLeft,45,9910,5,13,0,13,0,1,,,,,,,,,,,,,,,,,,,,,,,,,,,,,,,,,,,,,,,
,,,,,,,,2023-08-16_08h31.47.500,HF_wild_card,2022.2.4,Win32,63.25910931,60fd1ff6c3a0346b66d878ee,64d2fd46c836a06233681665,64dc788ff045656bbd2da87a,,,,,,,decisionTrl,resources/DBN.BMP,resources/DY.BMP,Door1,-0.328125,0.06640625,1,0,0,5.5069,optionLeft,30,9940,5,14,0,14,0,1,,,,,,,,,,,,,,,,,,,,,,,,,,,,,,,,,,,,,,,
,,,,,,,,2023-08-16_08h31.47.500,HF_wild_card,2022.2.4,Win32,63.25910931,60fd1ff6c3a0346b66d878ee,64d2fd46c836a06233681665,64dc788ff045656bbd2da87a,,,,,,,decisionTrl,resources/DBN.BMP,resources/DY.BMP,Door1,-0.364583333,0.016927083,1,0,0,1.3099,optionLeft,30,9970,5,15,0,15,0,1,,,,,,,,,,,,,,,,,,,,,,,,,,,,,,,,,,,,,,,
,,,,,,,,2023-08-16_08h31.47.500,HF_wild_card,2022.2.4,Win32,63.25910931,60fd1ff6c3a0346b66d878ee,64d2fd46c836a06233681665,64dc788ff045656bbd2da87a,,,,,,,ctch,resources/DBN.BMP,resources/DG.BMP,Door4,0.2734375,0.06640625,1,0,0,1.061,optionRight,80,10050,5,16,0,16,0,1,,,,,,,,,,,,,,,,,,,,,,,,,,,,,,,,,,,,,,,
,,,,,,,,2023-08-16_08h31.47.500,HF_wild_card,2022.2.4,Win32,63.25910931,60fd1ff6c3a0346b66d878ee,64d2fd46c836a06233681665,64dc788ff045656bbd2da87a,,,,,,,decisionTrl,resources/DG.BMP,resources/DP.BMP,Door3,0.36328125,0.091145833,1,0,0,2.6296,optionRight,70,10120,5,17,0,17,0,1,,,,,,,,,,,,,,,,,,,,,,,,,,,,,,,,,,,,,,,
,,,,,,,,2023-08-16_08h31.47.500,HF_wild_card,2022.2.4,Win32,63.25910931,60fd1ff6c3a0346b66d878ee,64d2fd46c836a06233681665,64dc788ff045656bbd2da87a,,,,,,,decisionTrl,resources/DP.BMP,resources/DR.BMP,Door3,-0.104166667,-0.01171875,1,0,0,1.349,optionLeft,70,10190,5,18,0,18,0,1,,,,,,,,,,,,,,,,,,,,,,,,,,,,,,,,,,,,,,,
,,,,,,,,2023-08-16_08h31.47.500,HF_wild_card,2022.2.4,Win32,63.25910931,60fd1ff6c3a0346b66d878ee,64d2fd46c836a06233681665,64dc788ff045656bbd2da87a,,,,,,,decisionTrl,resources/DBN.BMP,resources/DY.BMP,Door1,-0.177083333,-0.014322917,1,0,0,2.2595,optionLeft,30,10220,5,19,0,19,0,1,,,,,,,,,,,,,,,,,,,,,,,,,,,,,,,,,,,,,,,
,,,,,,,,2023-08-16_08h31.47.500,HF_wild_card,2022.2.4,Win32,63.25910931,60fd1ff6c3a0346b66d878ee,64d2fd46c836a06233681665,64dc788ff045656bbd2da87a,,,,,,,decisionTrl,resources/DG.BMP,resources/DR.BMP,Door4,-0.272135417,0.045572917,1,0,0,2.9411,optionLeft,80,10300,5,20,0,20,0,1,,,,,,,,,,,,,,,,,,,,,,,,,,,,,,,,,,,,,,,
,,,,,,,,2023-08-16_08h31.47.500,HF_wild_card,2022.2.4,Win32,63.25910931,60fd1ff6c3a0346b66d878ee,64d2fd46c836a06233681665,64dc788ff045656bbd2da87a,,,,,,,decisionTrl,resources/DP.BMP,resources/DG.BMP,Door3,-0.194010417,0.010416667,1,0,0,8.3538,optionLeft,70,10370,5,21,0,21,0,1,,,,,,,,,,,,,,,,,,,,,,,,,,,,,,,,,,,,,,,
,,,,,,,,2023-08-16_08h31.47.500,HF_wild_card,2022.2.4,Win32,63.25910931,60fd1ff6c3a0346b66d878ee,64d2fd46c836a06233681665,64dc788ff045656bbd2da87a,,,,,,,decisionTrl,resources/DY.BMP,resources/DBN.BMP,Door1,0.41796875,0.020833333,1,0,0,6.7744,optionRight,30,10400,5,22,0,22,0,1,,,,,,,,,,,,,,,,,,,,,,,,,,,,,,,,,,,,,,,
,,,,,,,,2023-08-16_08h31.47.500,HF_wild_card,2022.2.4,Win32,63.25910931,60fd1ff6c3a0346b66d878ee,64d2fd46c836a06233681665,64dc788ff045656bbd2da87a,,,,,,,ctch,resources/DG.BMP,resources/DBN.BMP,Door4,-0.12890625,0.05859375,1,0,0,6.7333,optionLeft,60,10460,5,23,0,23,0,1,,,,,,,,,,,,,,,,,,,,,,,,,,,,,,,,,,,,,,,
,,,,,,,,2023-08-16_08h31.47.500,HF_wild_card,2022.2.4,Win32,63.25910931,60fd1ff6c3a0346b66d878ee,64d2fd46c836a06233681665,64dc788ff045656bbd2da87a,,,,,,,sngl,resources/DBN.BMP,resources/Empty.png,Door1,-0.255208333,0.046875,1,0,0,1.036,optionLeft,30,10490,5,24,0,24,0,1,,,,,,,,,,,,,,,,,,,,,,,,,,,,,,,,,,,,,,,
,,,,,,,,2023-08-16_08h31.47.500,HF_wild_card,2022.2.4,Win32,63.25910931,60fd1ff6c3a0346b66d878ee,64d2fd46c836a06233681665,64dc788ff045656bbd2da87a,,,,,,,ctch,resources/DY.BMP,resources/DP.BMP,Door3,0.17578125,0.032552083,1,0,0,3.1611,optionRight,70,10560,5,25,0,25,0,1,,,,,,,,,,,,,,,,,,,,,,,,,,,,,,,,,,,,,,,
,,,,,,,,2023-08-16_08h31.47.500,HF_wild_card,2022.2.4,Win32,63.25910931,60fd1ff6c3a0346b66d878ee,64d2fd46c836a06233681665,64dc788ff045656bbd2da87a,,,,,,,ctch,resources/DP.BMP,resources/DY.BMP,Door3,-0.423177083,-0.10546875,1,0,0,2.6766,optionLeft,70,10630,5,26,0,26,0,1,,,,,,,,,,,,,,,,,,,,,,,,,,,,,,,,,,,,,,,
,,,,,,,,2023-08-16_08h31.47.500,HF_wild_card,2022.2.4,Win32,63.25910931,60fd1ff6c3a0346b66d878ee,64d2fd46c836a06233681665,64dc788ff045656bbd2da87a,,,,,,,decisionTrl,resources/DG.BMP,resources/DP.BMP,Door3,0.618489583,0.029947917,1,0,0,2.2489,optionRight,70,10700,5,27,0,27,0,1,,,,,,,,,,,,,,,,,,,,,,,,,,,,,,,,,,,,,,,
,,,,,,,,2023-08-16_08h31.47.500,HF_wild_card,2022.2.4,Win32,63.25910931,60fd1ff6c3a0346b66d878ee,64d2fd46c836a06233681665,64dc788ff045656bbd2da87a,,,,,,,sngl,resources/DP.BMP,resources/Empty.png,Door3,-0.139322917,-0.001302083,1,0,0,0.927,optionLeft,70,10770,5,28,0,28,0,1,,,,,,,,,,,,,,,,,,,,,,,,,,,,,,,,,,,,,,,
,,,,,,,,2023-08-16_08h31.47.500,HF_wild_card,2022.2.4,Win32,63.25910931,60fd1ff6c3a0346b66d878ee,64d2fd46c836a06233681665,64dc788ff045656bbd2da87a,,,,,,,decisionTrl,resources/DY.BMP,resources/DBN.BMP,Door1,0.47265625,0.1484375,1,0,0,1.8439,optionRight,30,10800,5,29,0,29,0,1,,,,,,,,,,,,,,,,,,,,,,,,,,,,,,,,,,,,,,,
,,,,,,,,2023-08-16_08h31.47.500,HF_wild_card,2022.2.4,Win32,63.25910931,60fd1ff6c3a0346b66d878ee,64d2fd46c836a06233681665,64dc788ff045656bbd2da87a,,,,,,,decisionTrl,resources/DBN.BMP,resources/DY.BMP,Door1,-0.131510417,0.032552083,1,0,0,9.9032,optionLeft,30,10830,5,30,0,30,0,1,,,,,,,,,,,,,,,,,,,,,,,,,,,,,,,,,,,,,,,
,,,,,,,,2023-08-16_08h31.47.500,HF_wild_card,2022.2.4,Win32,63.25910931,60fd1ff6c3a0346b66d878ee,64d2fd46c836a06233681665,64dc788ff045656bbd2da87a,,,,,,,decisionTrl,resources/DR.BMP,resources/DP.BMP,Door3,0.3203125,0.028645833,1,0,0,2.4138,optionRight,70,10900,5,31,0,31,0,1,,,,,,,,,,,,,,,,,,,,,,,,,,,,,,,,,,,,,,,
,,,,,,,,2023-08-16_08h31.47.500,HF_wild_card,2022.2.4,Win32,63.25910931,60fd1ff6c3a0346b66d878ee,64d2fd46c836a06233681665,64dc788ff045656bbd2da87a,,,,,,,decisionTrl,resources/DY.BMP,resources/DBN.BMP,Door1,0.4140625,0.084635417,1,0,0,1.5396,optionRight,30,10930,5,32,0,32,0,1,,,,,,,,,,,,,,,,,,,,,,,,,,,,,,,,,,,,,,,
,,,,,,,,2023-08-16_08h31.47.500,HF_wild_card,2022.2.4,Win32,63.25910931,60fd1ff6c3a0346b66d878ee,64d2fd46c836a06233681665,64dc788ff045656bbd2da87a,,,,,,,sngl,resources/DR.BMP,resources/Empty.png,WildCard_NonEx,-0.1328125,-0.002604167,1,0,0,0.9849,optionLeft,55,10985,5,33,0,33,0,1,,,,,,,,,,,,,,,,,,,,,,,,,,,,,,,,,,,,,,,
,,,,,,,,2023-08-16_08h31.47.500,HF_wild_card,2022.2.4,Win32,63.25910931,60fd1ff6c3a0346b66d878ee,64d2fd46c836a06233681665,64dc788ff045656bbd2da87a,,,,,,,decisionTrl,resources/DG.BMP,resources/DP.BMP,Door3,0.46484375,-0.0546875,1,0,0,13.2558,optionRight,70,11055,5,34,0,34,0,1,,,,,,,,,,,,,,,,,,,,,,,,,,,,,,,,,,,,,,,
,,,,,,,,2023-08-16_08h31.47.500,HF_wild_card,2022.2.4,Win32,63.25910931,60fd1ff6c3a0346b66d878ee,64d2fd46c836a06233681665,64dc788ff045656bbd2da87a,,,,,,,sngl,resources/DY.BMP,resources/Empty.png,Door2,-0.204427083,-0.010416667,1,0,0,1.7497,optionLeft,40,11095,5,35,0,35,0,1,,,,,,,,,,,,,,,,,,,,,,,,,,,,,,,,,,,,,,,
,,,,,,,,2023-08-16_08h31.47.500,HF_wild_card,2022.2.4,Win32,63.25910931,60fd1ff6c3a0346b66d878ee,64d2fd46c836a06233681665,64dc788ff045656bbd2da87a,,,,,,,sngl,resources/Empty.png,resources/DY.BMP,Door2,0.216145833,-0.00390625,1,0,0,1.1849,optionRight,20,11115,5,36,0,36,0,1,,,,,,,,,,,,,,,,,,,,,,,,,,,,,,,,,,,,,,,
,,,,,,,,2023-08-16_08h31.47.500,HF_wild_card,2022.2.4,Win32,63.25910931,60fd1ff6c3a0346b66d878ee,64d2fd46c836a06233681665,64dc788ff045656bbd2da87a,,,,,,,ctch,resources/DY.BMP,resources/DP.BMP,Door3,0.233072917,-0.010416667,1,0,0,3.1068,optionRight,70,11185,5,37,0,37,0,1,,,,,,,,,,,,,,,,,,,,,,,,,,,,,,,,,,,,,,,
,,,,,,,,2023-08-16_08h31.47.500,HF_wild_card,2022.2.4,Win32,63.25910931,60fd1ff6c3a0346b66d878ee,64d2fd46c836a06233681665,64dc788ff045656bbd2da87a,,,,,,,ctch,resources/DP.BMP,resources/DY.BMP,Door3,-0.143229167,-0.033854167,1,0,0,1.3139,optionLeft,70,11255,5,38,0,38,0,1,,,,,,,,,,,,,,,,,,,,,,,,,,,,,,,,,,,,,,,
,,,,,,,,2023-08-16_08h31.47.500,HF_wild_card,2022.2.4,Win32,63.25910931,60fd1ff6c3a0346b66d878ee,64d2fd46c836a06233681665,64dc788ff045656bbd2da87a,,,,,,,ctch,resources/DBN.BMP,resources/DG.BMP,Door4,0.389322917,0.001302083,1,0,0,2.2947,optionRight,60,11315,5,39,0,39,0,1,,,,,,,,,,,,,,,,,,,,,,,,,,,,,,,,,,,,,,,
,,,,,,,,2023-08-16_08h31.47.500,HF_wild_card,2022.2.4,Win32,63.25910931,60fd1ff6c3a0346b66d878ee,64d2fd46c836a06233681665,64dc788ff045656bbd2da87a,,,,,,,decisionTrl,resources/DR.BMP,resources/DBN.BMP,WildCard_NonEx,-0.329427083,-0.03125,1,0,0,2.1748,optionLeft,55,11370,5,40,0,40,0,1,,,,,,,,,,,,,,,,,,,,,,,,,,,,,,,,,,,,,,,
,,,,,,,,2023-08-16_08h31.47.500,HF_wild_card,2022.2.4,Win32,63.25910931,60fd1ff6c3a0346b66d878ee,64d2fd46c836a06233681665,64dc788ff045656bbd2da87a,,,,,,,decisionTrl,resources/DP.BMP,resources/DG.BMP,Door3,-0.1328125,-0.001302083,1,0,0,3.8926,optionLeft,70,11440,5,41,0,41,0,1,,,,,,,,,,,,,,,,,,,,,,,,,,,,,,,,,,,,,,,
,,,,,,,,2023-08-16_08h31.47.500,HF_wild_card,2022.2.4,Win32,63.25910931,60fd1ff6c3a0346b66d878ee,64d2fd46c836a06233681665,64dc788ff045656bbd2da87a,,,,,,,decisionTrl,resources/DR.BMP,resources/DG.BMP,Door4,0.486979167,0.110677083,1,0,0,1.6832,optionRight,60,11500,5,42,0,42,0,1,,,,,,,,,,,,,,,,,,,,,,,,,,,,,,,,,,,,,,,
,,,,,,,,2023-08-16_08h31.47.500,HF_wild_card,2022.2.4,Win32,63.25910931,60fd1ff6c3a0346b66d878ee,64d2fd46c836a06233681665,64dc788ff045656bbd2da87a,,,,,,,decisionTrl,resources/DY.BMP,resources/DBN.BMP,Door1,0.52734375,-0.029947917,1,0,0,3.1899,optionRight,30,11530,5,43,0,43,0,1,,,,,,,,,,,,,,,,,,,,,,,,,,,,,,,,,,,,,,,
,,,,,,,,2023-08-16_08h31.47.500,HF_wild_card,2022.2.4,Win32,63.25910931,60fd1ff6c3a0346b66d878ee,64d2fd46c836a06233681665,64dc788ff045656bbd2da87a,,,,,,,,,,,,,,,,,,,,,,,,,,4,0,4,0,1,,,,,,,,,,,,,,,,,,,,,,,,,,,,,,,,,,
,,,,,,,,2023-08-16_08h31.47.500,HF_wild_card,2022.2.4,Win32,63.25910931,60fd1ff6c3a0346b66d878ee,64d2fd46c836a06233681665,64dc788ff045656bbd2da87a,,,,,,,decisionTrl,resources/DR.BMP,resources/DBN.BMP,WildCard_NonEx,-0.166666667,-0.063802083,1,0,0,15.2888,optionLeft,55,11585,6,0,0,0,0,1,,,,,,,,,,,,,,,,,,,,,,,,,,,,,,,,,,,,,,,
,,,,,,,,2023-08-16_08h31.47.500,HF_wild_card,2022.2.4,Win32,63.25910931,60fd1ff6c3a0346b66d878ee,64d2fd46c836a06233681665,64dc788ff045656bbd2da87a,,,,,,,ctch,resources/DP.BMP,resources/DY.BMP,Door3,-0.095052083,0.001302083,1,0,0,6.6559,optionLeft,70,11655,6,1,0,1,0,1,,,,,,,,,,,,,,,,,,,,,,,,,,,,,,,,,,,,,,,
,,,,,,,,2023-08-16_08h31.47.500,HF_wild_card,2022.2.4,Win32,63.25910931,60fd1ff6c3a0346b66d878ee,64d2fd46c836a06233681665,64dc788ff045656bbd2da87a,,,,,,,decisionTrl,resources/DP.BMP,resources/DG.BMP,Door3,-0.12890625,-0.001302083,1,0,0,6.6555,optionLeft,70,11725,6,2,0,2,0,1,,,,,,,,,,,,,,,,,,,,,,,,,,,,,,,,,,,,,,,
,,,,,,,,2023-08-16_08h31.47.500,HF_wild_card,2022.2.4,Win32,63.25910931,60fd1ff6c3a0346b66d878ee,64d2fd46c836a06233681665,64dc788ff045656bbd2da87a,,,,,,,decisionTrl,resources/DY.BMP,resources/DR.BMP,WildCard_NonEx,0.1875,0.0078125,1,0,0,2.1125,optionRight,55,11780,6,3,0,3,0,1,,,,,,,,,,,,,,,,,,,,,,,,,,,,,,,,,,,,,,,
,,,,,,,,2023-08-16_08h31.47.500,HF_wild_card,2022.2.4,Win32,63.25910931,60fd1ff6c3a0346b66d878ee,64d2fd46c836a06233681665,64dc788ff045656bbd2da87a,,,,,,,sngl,resources/Empty.png,resources/DG.BMP,Door4,0.157552083,-0.00390625,1,0,0,1.8599,optionRight,80,11860,6,4,0,4,0,1,,,,,,,,,,,,,,,,,,,,,,,,,,,,,,,,,,,,,,,
,,,,,,,,2023-08-16_08h31.47.500,HF_wild_card,2022.2.4,Win32,63.25910931,60fd1ff6c3a0346b66d878ee,64d2fd46c836a06233681665,64dc788ff045656bbd2da87a,,,,,,,ctch,resources/DG.BMP,resources/DBN.BMP,Door4,-0.130208333,-0.032552083,1,0,0,2.4169,optionLeft,60,11920,6,5,0,5,0,1,,,,,,,,,,,,,,,,,,,,,,,,,,,,,,,,,,,,,,,
,,,,,,,,2023-08-16_08h31.47.500,HF_wild_card,2022.2.4,Win32,63.25910931,60fd1ff6c3a0346b66d878ee,64d2fd46c836a06233681665,64dc788ff045656bbd2da87a,,,,,,,decisionTrl,resources/DBN.BMP,resources/DR.BMP,WildCard_NonEx,0.46875,0.069010417,1,0,0,2.6441,optionRight,55,11975,6,6,0,6,0,1,,,,,,,,,,,,,,,,,,,,,,,,,,,,,,,,,,,,,,,
,,,,,,,,2023-08-16_08h31.47.500,HF_wild_card,2022.2.4,Win32,63.25910931,60fd1ff6c3a0346b66d878ee,64d2fd46c836a06233681665,64dc788ff045656bbd2da87a,,,,,,,decisionTrl,resources/DR.BMP,resources/DY.BMP,WildCard_NonEx,-0.255208333,-0.029947917,1,0,0,11.5039,optionLeft,55,12030,6,7,0,7,0,1,,,,,,,,,,,,,,,,,,,,,,,,,,,,,,,,,,,,,,,
,,,,,,,,2023-08-16_08h31.47.500,HF_wild_card,2022.2.4,Win32,63.25910931,60fd1ff6c3a0346b66d878ee,64d2fd46c836a06233681665,64dc788ff045656bbd2da87a,,,,,,,decisionTrl,resources/DBN.BMP,resources/DY.BMP,Door1,-0.321614583,0.069010417,1,0,0,61.0113,optionLeft,30,12060,6,8,0,8,0,1,,,,,,,,,,,,,,,,,,,,,,,,,,,,,,,,,,,,,,,
,,,,,,,,2023-08-16_08h31.47.500,HF_wild_card,2022.2.4,Win32,63.25910931,60fd1ff6c3a0346b66d878ee,64d2fd46c836a06233681665,64dc788ff045656bbd2da87a,,,,,,,ctch,resources/DY.BMP,resources/DP.BMP,Door3,0.442708333,0.014322917,1,0,0,2.0407,optionRight,70,12130,6,9,0,9,0,1,,,,,,,,,,,,,,,,,,,,,,,,,,,,,,,,,,,,,,,
,,,,,,,,2023-08-16_08h31.47.500,HF_wild_card,2022.2.4,Win32,63.25910931,60fd1ff6c3a0346b66d878ee,64d2fd46c836a06233681665,64dc788ff045656bbd2da87a,,,,,,,decisionTrl,resources/DR.BMP,resources/DP.BMP,Door3,0.36328125,0.036458333,1,0,0,1.8571,optionRight,70,12200,6,10,0,10,0,1,,,,,,,,,,,,,,,,,,,,,,,,,,,,,,,,,,,,,,,
,,,,,,,,2023-08-16_08h31.47.500,HF_wild_card,2022.2.4,Win32,63.25910931,60fd1ff6c3a0346b66d878ee,64d2fd46c836a06233681665,64dc788ff045656bbd2da87a,,,,,,,decisionTrl,resources/DG.BMP,resources/DP.BMP,Door3,0.170572917,0.083333333,1,0,0,1.893,optionRight,70,12270,6,11,0,11,0,1,,,,,,,,,,,,,,,,,,,,,,,,,,,,,,,,,,,,,,,
,,,,,,,,2023-08-16_08h31.47.500,HF_wild_card,2022.2.4,Win32,63.25910931,60fd1ff6c3a0346b66d878ee,64d2fd46c836a06233681665,64dc788ff045656bbd2da87a,,,,,,,decisionTrl,resources/DP.BMP,resources/DG.BMP,Door3,-0.251302083,0.049479167,1,0,0,1.8269,optionLeft,70,12340,6,12,0,12,0,1,,,,,,,,,,,,,,,,,,,,,,,,,,,,,,,,,,,,,,,
,,,,,,,,2023-08-16_08h31.47.500,HF_wild_card,2022.2.4,Win32,63.25910931,60fd1ff6c3a0346b66d878ee,64d2fd46c836a06233681665,64dc788ff045656bbd2da87a,,,,,,,sngl,resources/Empty.png,resources/DR.BMP,WildCard_NonEx,0.313802083,0.01171875,1,0,0,1.1024,optionRight,45,12385,6,13,0,13,0,1,,,,,,,,,,,,,,,,,,,,,,,,,,,,,,,,,,,,,,,
,,,,,,,,2023-08-16_08h31.47.500,HF_wild_card,2022.2.4,Win32,63.25910931,60fd1ff6c3a0346b66d878ee,64d2fd46c836a06233681665,64dc788ff045656bbd2da87a,,,,,,,sngl,resources/DR.BMP,resources/Empty.png,WildCard_NonEx,-0.186197917,-0.018229167,1,0,0,1.781,optionLeft,45,12430,6,14,0,14,0,1,,,,,,,,,,,,,,,,,,,,,,,,,,,,,,,,,,,,,,,
,,,,,,,,2023-08-16_08h31.47.500,HF_wild_card,2022.2.4,Win32,63.25910931,60fd1ff6c3a0346b66d878ee,64d2fd46c836a06233681665,64dc788ff045656bbd2da87a,,,,,,,sngl,resources/Empty.png,resources/DBN.BMP,Door1,0.208333333,0.014322917,1,0,0,2.0103,optionRight,30,12460,6,15,0,15,0,1,,,,,,,,,,,,,,,,,,,,,,,,,,,,,,,,,,,,,,,
,,,,,,,,2023-08-16_08h31.47.500,HF_wild_card,2022.2.4,Win32,63.25910931,60fd1ff6c3a0346b66d878ee,64d2fd46c836a06233681665,64dc788ff045656bbd2da87a,,,,,,,decisionTrl,resources/DG.BMP,resources/DR.BMP,Door4,-0.2109375,0.03125,1,0,0,2.1768,optionLeft,60,12520,6,16,0,16,0,1,,,,,,,,,,,,,,,,,,,,,,,,,,,,,,,,,,,,,,,
,,,,,,,,2023-08-16_08h31.47.500,HF_wild_card,2022.2.4,Win32,63.25910931,60fd1ff6c3a0346b66d878ee,64d2fd46c836a06233681665,64dc788ff045656bbd2da87a,,,,,,,sngl,resources/DP.BMP,resources/Empty.png,Door3,-0.23046875,0.092447917,1,0,0,0.9441,optionLeft,70,12590,6,17,0,17,0,1,,,,,,,,,,,,,,,,,,,,,,,,,,,,,,,,,,,,,,,
,,,,,,,,2023-08-16_08h31.47.500,HF_wild_card,2022.2.4,Win32,63.25910931,60fd1ff6c3a0346b66d878ee,64d2fd46c836a06233681665,64dc788ff045656bbd2da87a,,,,,,,ctch,resources/DBN.BMP,resources/DG.BMP,Door4,0.154947917,0.024739583,1,0,0,2.2928,optionRight,60,12650,6,18,0,18,0,1,,,,,,,,,,,,,,,,,,,,,,,,,,,,,,,,,,,,,,,
,,,,,,,,2023-08-16_08h31.47.500,HF_wild_card,2022.2.4,Win32,63.25910931,60fd1ff6c3a0346b66d878ee,64d2fd46c836a06233681665,64dc788ff045656bbd2da87a,,,,,,,sngl,resources/DBN.BMP,resources/Empty.png,Door1,-0.19921875,0.001302083,1,0,0,2.5086,optionLeft,30,12680,6,19,0,19,0,1,,,,,,,,,,,,,,,,,,,,,,,,,,,,,,,,,,,,,,,
,,,,,,,,2023-08-16_08h31.47.500,HF_wild_card,2022.2.4,Win32,63.25910931,60fd1ff6c3a0346b66d878ee,64d2fd46c836a06233681665,64dc788ff045656bbd2da87a,,,,,,,decisionTrl,resources/DY.BMP,resources/DBN.BMP,Door1,0.540364583,-0.005208333,1,0,0,5.7051,optionRight,30,12710,6,20,0,20,0,1,,,,,,,,,,,,,,,,,,,,,,,,,,,,,,,,,,,,,,,
,,,,,,,,2023-08-16_08h31.47.500,HF_wild_card,2022.2.4,Win32,63.25910931,60fd1ff6c3a0346b66d878ee,64d2fd46c836a06233681665,64dc788ff045656bbd2da87a,,,,,,,ctch,resources/DP.BMP,resources/DY.BMP,Door3,-0.205729167,0.020833333,1,0,0,1.5106,optionLeft,70,12780,6,21,0,21,0,1,,,,,,,,,,,,,,,,,,,,,,,,,,,,,,,,,,,,,,,
,,,,,,,,2023-08-16_08h31.47.500,HF_wild_card,2022.2.4,Win32,63.25910931,60fd1ff6c3a0346b66d878ee,64d2fd46c836a06233681665,64dc788ff045656bbd2da87a,,,,,,,decisionTrl,resources/DG.BMP,resources/DP.BMP,Door3,0.325520833,0.154947917,1,0,0,2.1073,optionRight,70,12850,6,22,0,22,0,1,,,,,,,,,,,,,,,,,,,,,,,,,,,,,,,,,,,,,,,
,,,,,,,,2023-08-16_08h31.47.500,HF_wild_card,2022.2.4,Win32,63.25910931,60fd1ff6c3a0346b66d878ee,64d2fd46c836a06233681665,64dc788ff045656bbd2da87a,,,,,,,decisionTrl,resources/DG.BMP,resources/DP.BMP,Door3,0.5234375,0.11328125,1,0,0,7.8204,optionRight,70,12920,6,23,0,23,0,1,,,,,,,,,,,,,,,,,,,,,,,,,,,,,,,,,,,,,,,
,,,,,,,,2023-08-16_08h31.47.500,HF_wild_card,2022.2.4,Win32,63.25910931,60fd1ff6c3a0346b66d878ee,64d2fd46c836a06233681665,64dc788ff045656bbd2da87a,,,,,,,decisionTrl,resources/DY.BMP,resources/DBN.BMP,Door1,0.00390625,0.009114583,1,0,0,1.6921,optionRight,30,12950,6,24,0,24,0,1,,,,,,,,,,,,,,,,,,,,,,,,,,,,,,,,,,,,,,,
,,,,,,,,2023-08-16_08h31.47.500,HF_wild_card,2022.2.4,Win32,63.25910931,60fd1ff6c3a0346b66d878ee,64d2fd46c836a06233681665,64dc788ff045656bbd2da87a,,,,,,,ctch,resources/DBN.BMP,resources/DG.BMP,Door4,0.259114583,0.032552083,1,0,0,1.3922,optionRight,80,13030,6,25,0,25,0,1,,,,,,,,,,,,,,,,,,,,,,,,,,,,,,,,,,,,,,,
,,,,,,,,2023-08-16_08h31.47.500,HF_wild_card,2022.2.4,Win32,63.25910931,60fd1ff6c3a0346b66d878ee,64d2fd46c836a06233681665,64dc788ff045656bbd2da87a,,,,,,,sngl,resources/Empty.png,resources/DR.BMP,WildCard_NonEx,0.173177083,0.020833333,1,0,0,2.0097,optionRight,55,13085,6,26,0,26,0,1,,,,,,,,,,,,,,,,,,,,,,,,,,,,,,,,,,,,,,,
,,,,,,,,2023-08-16_08h31.47.500,HF_wild_card,2022.2.4,Win32,63.25910931,60fd1ff6c3a0346b66d878ee,64d2fd46c836a06233681665,64dc788ff045656bbd2da87a,,,,,,,decisionTrl,resources/DBN.BMP,resources/DY.BMP,Door1,-0.221354167,0.014322917,1,0,0,9.9695,optionLeft,30,13115,6,27,0,27,0,1,,,,,,,,,,,,,,,,,,,,,,,,,,,,,,,,,,,,,,,
,,,,,,,,2023-08-16_08h31.47.500,HF_wild_card,2022.2.4,Win32,63.25910931,60fd1ff6c3a0346b66d878ee,64d2fd46c836a06233681665,64dc788ff045656bbd2da87a,,,,,,,ctch,resources/DY.BMP,resources/DP.BMP,Door3,0.173177083,0.044270833,1,0,0,1.7348,optionRight,70,13185,6,28,0,28,0,1,,,,,,,,,,,,,,,,,,,,,,,,,,,,,,,,,,,,,,,
,,,,,,,,2023-08-16_08h31.47.500,HF_wild_card,2022.2.4,Win32,63.25910931,60fd1ff6c3a0346b66d878ee,64d2fd46c836a06233681665,64dc788ff045656bbd2da87a,,,,,,,decisionTrl,resources/DG.BMP,resources/DP.BMP,Door3,0.283854167,-0.130208333,1,0,0,1.8963,optionRight,70,13255,6,29,0,29,0,1,,,,,,,,,,,,,,,,,,,,,,,,,,,,,,,,,,,,,,,
,,,,,,,,2023-08-16_08h31.47.500,HF_wild_card,2022.2.4,Win32,63.25910931,60fd1ff6c3a0346b66d878ee,64d2fd46c836a06233681665,64dc788ff045656bbd2da87a,,,,,,,sngl,resources/Empty.png,resources/DP.BMP,Door3,0.33984375,0.03125,1,0,0,0.8269,optionRight,70,13325,6,30,0,30,0,1,,,,,,,,,,,,,,,,,,,,,,,,,,,,,,,,,,,,,,,
,,,,,,,,2023-08-16_08h31.47.500,HF_wild_card,2022.2.4,Win32,63.25910931,60fd1ff6c3a0346b66d878ee,64d2fd46c836a06233681665,64dc788ff045656bbd2da87a,,,,,,,decisionTrl,resources/DR.BMP,resources/DG.BMP,Door4,0.315104167,0.037760417,1,0,0,0.9944,optionRight,80,13405,6,31,0,31,0,1,,,,,,,,,,,,,,,,,,,,,,,,,,,,,,,,,,,,,,,
,,,,,,,,2023-08-16_08h31.47.500,HF_wild_card,2022.2.4,Win32,63.25910931,60fd1ff6c3a0346b66d878ee,64d2fd46c836a06233681665,64dc788ff045656bbd2da87a,,,,,,,decisionTrl,resources/DBN.BMP,resources/DY.BMP,Door1,-0.173177083,0.016927083,1,0,0,1.2701,optionLeft,30,13435,6,32,0,32,0,1,,,,,,,,,,,,,,,,,,,,,,,,,,,,,,,,,,,,,,,
,,,,,,,,2023-08-16_08h31.47.500,HF_wild_card,2022.2.4,Win32,63.25910931,60fd1ff6c3a0346b66d878ee,64d2fd46c836a06233681665,64dc788ff045656bbd2da87a,,,,,,,decisionTrl,resources/DP.BMP,resources/DR.BMP,Door3,-0.490885417,-0.096354167,1,0,0,1.6106,optionLeft,70,13505,6,33,0,33,0,1,,,,,,,,,,,,,,,,,,,,,,,,,,,,,,,,,,,,,,,
,,,,,,,,2023-08-16_08h31.47.500,HF_wild_card,2022.2.4,Win32,63.25910931,60fd1ff6c3a0346b66d878ee,64d2fd46c836a06233681665,64dc788ff045656bbd2da87a,,,,,,,sngl,resources/DY.BMP,resources/Empty.png,Door2,-0.375,-0.033854167,1,0,0,2.5778,optionLeft,20,13525,6,34,0,34,0,1,,,,,,,,,,,,,,,,,,,,,,,,,,,,,,,,,,,,,,,
,,,,,,,,2023-08-16_08h31.47.500,HF_wild_card,2022.2.4,Win32,63.25910931,60fd1ff6c3a0346b66d878ee,64d2fd46c836a06233681665,64dc788ff045656bbd2da87a,,,,,,,decisionTrl,resources/DP.BMP,resources/DG.BMP,Door3,-0.15234375,-0.018229167,1,0,0,2.3275,optionLeft,70,13595,6,35,0,35,0,1,,,,,,,,,,,,,,,,,,,,,,,,,,,,,,,,,,,,,,,
,,,,,,,,2023-08-16_08h31.47.500,HF_wild_card,2022.2.4,Win32,63.25910931,60fd1ff6c3a0346b66d878ee,64d2fd46c836a06233681665,64dc788ff045656bbd2da87a,,,,,,,decisionTrl,resources/DY.BMP,resources/DBN.BMP,Door1,0.270833333,0.083333333,1,0,0,1.1123,optionRight,30,13625,6,36,0,36,0,1,,,,,,,,,,,,,,,,,,,,,,,,,,,,,,,,,,,,,,,
,,,,,,,,2023-08-16_08h31.47.500,HF_wild_card,2022.2.4,Win32,63.25910931,60fd1ff6c3a0346b66d878ee,64d2fd46c836a06233681665,64dc788ff045656bbd2da87a,,,,,,,decisionTrl,resources/DY.BMP,resources/DBN.BMP,Door1,0.221354167,0.180989583,1,0,0,1.6182,optionRight,30,13655,6,37,0,37,0,1,,,,,,,,,,,,,,,,,,,,,,,,,,,,,,,,,,,,,,,
,,,,,,,,2023-08-16_08h31.47.500,HF_wild_card,2022.2.4,Win32,63.25910931,60fd1ff6c3a0346b66d878ee,64d2fd46c836a06233681665,64dc788ff045656bbd2da87a,,,,,,,sngl,resources/Empty.png,resources/DY.BMP,Door2,0.30078125,0.016927083,1,0,0,0.9523,optionRight,40,13695,6,38,0,38,0,1,,,,,,,,,,,,,,,,,,,,,,,,,,,,,,,,,,,,,,,
,,,,,,,,2023-08-16_08h31.47.500,HF_wild_card,2022.2.4,Win32,63.25910931,60fd1ff6c3a0346b66d878ee,64d2fd46c836a06233681665,64dc788ff045656bbd2da87a,,,,,,,sngl,resources/DG.BMP,resources/Empty.png,Door4,-0.25,0.010416667,1,0,0,0.9119,optionLeft,60,13755,6,39,0,39,0,1,,,,,,,,,,,,,,,,,,,,,,,,,,,,,,,,,,,,,,,
,,,,,,,,2023-08-16_08h31.47.500,HF_wild_card,2022.2.4,Win32,63.25910931,60fd1ff6c3a0346b66d878ee,64d2fd46c836a06233681665,64dc788ff045656bbd2da87a,,,,,,,decisionTrl,resources/DBN.BMP,resources/DY.BMP,Door1,-0.423177083,-0.104166667,1,0,0,3.0747,optionLeft,30,13785,6,40,0,40,0,1,,,,,,,,,,,,,,,,,,,,,,,,,,,,,,,,,,,,,,,
,,,,,,,,2023-08-16_08h31.47.500,HF_wild_card,2022.2.4,Win32,63.25910931,60fd1ff6c3a0346b66d878ee,64d2fd46c836a06233681665,64dc788ff045656bbd2da87a,,,,,,,decisionTrl,resources/DP.BMP,resources/DG.BMP,Door3,-0.209635417,0.013020833,1,0,0,8.2565,optionLeft,70,13855,6,41,0,41,0,1,,,,,,,,,,,,,,,,,,,,,,,,,,,,,,,,,,,,,,,
,,,,,,,,2023-08-16_08h31.47.500,HF_wild_card,2022.2.4,Win32,63.25910931,60fd1ff6c3a0346b66d878ee,64d2fd46c836a06233681665,64dc788ff045656bbd2da87a,,,,,,,ctch,resources/DG.BMP,resources/DBN.BMP,Door4,-0.5703125,-0.104166667,1,0,0,1.16,optionLeft,60,13915,6,42,0,42,0,1,,,,,,,,,,,,,,,,,,,,,,,,,,,,,,,,,,,,,,,
,,,,,,,,2023-08-16_08h31.47.500,HF_wild_card,2022.2.4,Win32,63.25910931,60fd1ff6c3a0346b66d878ee,64d2fd46c836a06233681665,64dc788ff045656bbd2da87a,,,,,,,sngl,resources/DR.BMP,resources/Empty.png,WildCard_NonEx,-0.265625,-0.03515625,1,0,0,1.0825,optionLeft,55,13970,6,43,0,43,0,1,,,,,,,,,,,,,,,,,,,,,,,,,,,,,,,,,,,,,,,
,,,,,,,,2023-08-16_08h31.47.500,HF_wild_card,2022.2.4,Win32,63.25910931,60fd1ff6c3a0346b66d878ee,64d2fd46c836a06233681665,64dc788ff045656bbd2da87a,,,,,,,,,,,,,,,,,,,,,,,,,,5,0,5,0,1,,,,,,,,,,,,,,,,,,,,,,,,,,,,,,,,,,
,,,,,,,,2023-08-16_08h31.47.500,HF_wild_card,2022.2.4,Win32,63.25910931,60fd1ff6c3a0346b66d878ee,64d2fd46c836a06233681665,64dc788ff045656bbd2da87a,,,,,,,ctch,resources/DP.BMP,resources/DY.BMP,Door3,-0.259114583,-0.045572917,1,0,0,1.1252,optionLeft,70,14040,7,0,0,0,0,1,,,,,,,,,,,,,,,,,,,,,,,,,,,,,,,,,,,,,,,
,,,,,,,,2023-08-16_08h31.47.500,HF_wild_card,2022.2.4,Win32,63.25910931,60fd1ff6c3a0346b66d878ee,64d2fd46c836a06233681665,64dc788ff045656bbd2da87a,,,,,,,decisionTrl,resources/DG.BMP,resources/DP.BMP,Door3,0.260416667,0.083333333,1,0,0,1.163,optionRight,70,14110,7,1,0,1,0,1,,,,,,,,,,,,,,,,,,,,,,,,,,,,,,,,,,,,,,,
,,,,,,,,2023-08-16_08h31.47.500,HF_wild_card,2022.2.4,Win32,63.25910931,60fd1ff6c3a0346b66d878ee,64d2fd46c836a06233681665,64dc788ff045656bbd2da87a,,,,,,,ctch,resources/DY.BMP,resources/DP.BMP,Door3,0.328125,0.05859375,1,0,0,0.8125,optionRight,70,14180,7,2,0,2,0,1,,,,,,,,,,,,,,,,,,,,,,,,,,,,,,,,,,,,,,,
,,,,,,,,2023-08-16_08h31.47.500,HF_wild_card,2022.2.4,Win32,63.25910931,60fd1ff6c3a0346b66d878ee,64d2fd46c836a06233681665,64dc788ff045656bbd2da87a,,,,,,,ctch,resources/DBN.BMP,resources/DG.BMP,Door4,0.157552083,0.024739583,1,0,0,1.7532,optionRight,80,14260,7,3,0,3,0,1,,,,,,,,,,,,,,,,,,,,,,,,,,,,,,,,,,,,,,,
,,,,,,,,2023-08-16_08h31.47.500,HF_wild_card,2022.2.4,Win32,63.25910931,60fd1ff6c3a0346b66d878ee,64d2fd46c836a06233681665,64dc788ff045656bbd2da87a,,,,,,,ctch,resources/DY.BMP,resources/DP.BMP,Door3,0.291666667,0.072916667,1,0,0,1.9652,optionRight,70,14330,7,4,0,4,0,1,,,,,,,,,,,,,,,,,,,,,,,,,,,,,,,,,,,,,,,
,,,,,,,,2023-08-16_08h31.47.500,HF_wild_card,2022.2.4,Win32,63.25910931,60fd1ff6c3a0346b66d878ee,64d2fd46c836a06233681665,64dc788ff045656bbd2da87a,,,,,,,ctch,resources/DP.BMP,resources/DY.BMP,Door3,-0.235677083,0.018229167,1,0,0,1.5597,optionLeft,70,14400,7,5,0,5,0,1,,,,,,,,,,,,,,,,,,,,,,,,,,,,,,,,,,,,,,,
,,,,,,,,2023-08-16_08h31.47.500,HF_wild_card,2022.2.4,Win32,63.25910931,60fd1ff6c3a0346b66d878ee,64d2fd46c836a06233681665,64dc788ff045656bbd2da87a,,,,,,,decisionTrl,resources/DY.BMP,resources/DBN.BMP,Door1,0.192708333,0.033854167,1,0,0,1.9783,optionRight,30,14430,7,6,0,6,0,1,,,,,,,,,,,,,,,,,,,,,,,,,,,,,,,,,,,,,,,
,,,,,,,,2023-08-16_08h31.47.500,HF_wild_card,2022.2.4,Win32,63.25910931,60fd1ff6c3a0346b66d878ee,64d2fd46c836a06233681665,64dc788ff045656bbd2da87a,,,,,,,decisionTrl,resources/DY.BMP,resources/DBN.BMP,Door1,0.268229167,0.075520833,1,0,0,1.8238,optionRight,30,14460,7,7,0,7,0,1,,,,,,,,,,,,,,,,,,,,,,,,,,,,,,,,,,,,,,,
,,,,,,,,2023-08-16_08h31.47.500,HF_wild_card,2022.2.4,Win32,63.25910931,60fd1ff6c3a0346b66d878ee,64d2fd46c836a06233681665,64dc788ff045656bbd2da87a,,,,,,,ctch,resources/DBN.BMP,resources/DG.BMP,Door4,0.282552083,0.0703125,1,0,0,3.1631,optionRight,80,14540,7,8,0,8,0,1,,,,,,,,,,,,,,,,,,,,,,,,,,,,,,,,,,,,,,,
,,,,,,,,2023-08-16_08h31.47.500,HF_wild_card,2022.2.4,Win32,63.25910931,60fd1ff6c3a0346b66d878ee,64d2fd46c836a06233681665,64dc788ff045656bbd2da87a,,,,,,,decisionTrl,resources/DP.BMP,resources/DG.BMP,Door3,-0.427083333,-0.026041667,1,0,0,2.4291,optionLeft,70,14610,7,9,0,9,0,1,,,,,,,,,,,,,,,,,,,,,,,,,,,,,,,,,,,,,,,
,,,,,,,,2023-08-16_08h31.47.500,HF_wild_card,2022.2.4,Win32,63.25910931,60fd1ff6c3a0346b66d878ee,64d2fd46c836a06233681665,64dc788ff045656bbd2da87a,,,,,,,ctch,resources/DBN.BMP,resources/DG.BMP,Door4,0.255208333,-0.028645833,1,0,0,0.9643,optionRight,80,14690,7,10,0,10,0,1,,,,,,,,,,,,,,,,,,,,,,,,,,,,,,,,,,,,,,,
,,,,,,,,2023-08-16_08h31.47.500,HF_wild_card,2022.2.4,Win32,63.25910931,60fd1ff6c3a0346b66d878ee,64d2fd46c836a06233681665,64dc788ff045656bbd2da87a,,,,,,,decisionTrl,resources/DP.BMP,resources/DG.BMP,Door3,-0.1875,-0.018229167,1,0,0,13.091,optionLeft,70,14760,7,11,0,11,0,1,,,,,,,,,,,,,,,,,,,,,,,,,,,,,,,,,,,,,,,
,,,,,,,,2023-08-16_08h31.47.500,HF_wild_card,2022.2.4,Win32,63.25910931,60fd1ff6c3a0346b66d878ee,64d2fd46c836a06233681665,64dc788ff045656bbd2da87a,,,,,,,decisionTrl,resources/DG.BMP,resources/DP.BMP,Door3,0.2890625,-0.04296875,1,0,0,1.7119,optionRight,70,14830,7,12,0,12,0,1,,,,,,,,,,,,,,,,,,,,,,,,,,,,,,,,,,,,,,,
,,,,,,,,2023-08-16_08h31.47.500,HF_wild_card,2022.2.4,Win32,63.25910931,60fd1ff6c3a0346b66d878ee,64d2fd46c836a06233681665,64dc788ff045656bbd2da87a,,,,,,,ctch,resources/DG.BMP,resources/DBN.BMP,Door4,-0.286458333,0.057291667,1,0,0,2.2104,optionLeft,60,14890,7,13,0,13,0,1,,,,,,,,,,,,,,,,,,,,,,,,,,,,,,,,,,,,,,,
,,,,,,,,2023-08-16_08h31.47.500,HF_wild_card,2022.2.4,Win32,63.25910931,60fd1ff6c3a0346b66d878ee,64d2fd46c836a06233681665,64dc788ff045656bbd2da87a,,,,,,,decisionTrl,resources/DG.BMP,resources/DP.BMP,Door3,0.421875,0.013020833,1,0,0,39.7971,optionRight,70,14960,7,14,0,14,0,1,,,,,,,,,,,,,,,,,,,,,,,,,,,,,,,,,,,,,,,
,,,,,,,,2023-08-16_08h31.47.500,HF_wild_card,2022.2.4,Win32,63.25910931,60fd1ff6c3a0346b66d878ee,64d2fd46c836a06233681665,64dc788ff045656bbd2da87a,,,,,,,decisionTrl,resources/DY.BMP,resources/DBN.BMP,Door1,0.454427083,0,1,0,0,3.4092,optionRight,30,14990,7,15,0,15,0,1,,,,,,,,,,,,,,,,,,,,,,,,,,,,,,,,,,,,,,,
,,,,,,,,2023-08-16_08h31.47.500,HF_wild_card,2022.2.4,Win32,63.25910931,60fd1ff6c3a0346b66d878ee,64d2fd46c836a06233681665,64dc788ff045656bbd2da87a,,,,,,,ctch,resources/DP.BMP,resources/DY.BMP,Door3,-0.311197917,0.041666667,1,0,0,1.3625,optionLeft,70,15060,7,16,0,16,0,1,,,,,,,,,,,,,,,,,,,,,,,,,,,,,,,,,,,,,,,
,,,,,,,,2023-08-16_08h31.47.500,HF_wild_card,2022.2.4,Win32,63.25910931,60fd1ff6c3a0346b66d878ee,64d2fd46c836a06233681665,64dc788ff045656bbd2da87a,,,,,,,decisionTrl,resources/DBN.BMP,resources/DY.BMP,Door1,-0.421875,0.036458333,1,0,0,0.9945,optionLeft,30,15090,7,17,0,17,0,1,,,,,,,,,,,,,,,,,,,,,,,,,,,,,,,,,,,,,,,
,,,,,,,,2023-08-16_08h31.47.500,HF_wild_card,2022.2.4,Win32,63.25910931,60fd1ff6c3a0346b66d878ee,64d2fd46c836a06233681665,64dc788ff045656bbd2da87a,,,,,,,decisionTrl,resources/DG.BMP,resources/DP.BMP,Door3,0.274739583,0.061197917,1,0,0,0.8321,optionRight,70,15160,7,18,0,18,0,1,,,,,,,,,,,,,,,,,,,,,,,,,,,,,,,,,,,,,,,
,,,,,,,,2023-08-16_08h31.47.500,HF_wild_card,2022.2.4,Win32,63.25910931,60fd1ff6c3a0346b66d878ee,64d2fd46c836a06233681665,64dc788ff045656bbd2da87a,,,,,,,decisionTrl,resources/DP.BMP,resources/DG.BMP,Door3,-0.127604167,0.03515625,1,0,0,1.4408,optionLeft,70,15230,7,19,0,19,0,1,,,,,,,,,,,,,,,,,,,,,,,,,,,,,,,,,,,,,,,
,,,,,,,,2023-08-16_08h31.47.500,HF_wild_card,2022.2.4,Win32,63.25910931,60fd1ff6c3a0346b66d878ee,64d2fd46c836a06233681665,64dc788ff045656bbd2da87a,,,,,,,ctch,resources/DY.BMP,resources/DP.BMP,Door3,0.092447917,0.014322917,1,0,0,0.9451,optionRight,70,15300,7,20,0,20,0,1,,,,,,,,,,,,,,,,,,,,,,,,,,,,,,,,,,,,,,,
,,,,,,,,2023-08-16_08h31.47.500,HF_wild_card,2022.2.4,Win32,63.25910931,60fd1ff6c3a0346b66d878ee,64d2fd46c836a06233681665,64dc788ff045656bbd2da87a,,,,,,,decisionTrl,resources/DG.BMP,resources/DP.BMP,Door3,0.1875,0.024739583,1,0,0,1.0965,optionRight,70,15370,7,21,0,21,0,1,,,,,,,,,,,,,,,,,,,,,,,,,,,,,,,,,,,,,,,
,,,,,,,,2023-08-16_08h31.47.500,HF_wild_card,2022.2.4,Win32,63.25910931,60fd1ff6c3a0346b66d878ee,64d2fd46c836a06233681665,64dc788ff045656bbd2da87a,,,,,,,decisionTrl,resources/DY.BMP,resources/DBN.BMP,Door1,0.274739583,0.0546875,1,0,0,1.1124,optionRight,30,15400,7,22,0,22,0,1,,,,,,,,,,,,,,,,,,,,,,,,,,,,,,,,,,,,,,,
,,,,,,,,2023-08-16_08h31.47.500,HF_wild_card,2022.2.4,Win32,63.25910931,60fd1ff6c3a0346b66d878ee,64d2fd46c836a06233681665,64dc788ff045656bbd2da87a,,,,,,,decisionTrl,resources/DY.BMP,resources/DBN.BMP,Door1,0.2265625,0.063802083,1,0,0,4.7445,optionRight,30,15430,7,23,0,23,0,1,,,,,,,,,,,,,,,,,,,,,,,,,,,,,,,,,,,,,,,
,,,,,,,,2023-08-16_08h31.47.500,HF_wild_card,2022.2.4,Win32,63.25910931,60fd1ff6c3a0346b66d878ee,64d2fd46c836a06233681665,64dc788ff045656bbd2da87a,,,,,,,decisionTrl,resources/DBN.BMP,resources/DY.BMP,Door1,-0.286458333,0.020833333,1,0,0,1.7296,optionLeft,30,15460,7,24,0,24,0,1,,,,,,,,,,,,,,,,,,,,,,,,,,,,,,,,,,,,,,,
,,,,,,,,2023-08-16_08h31.47.500,HF_wild_card,2022.2.4,Win32,63.25910931,60fd1ff6c3a0346b66d878ee,64d2fd46c836a06233681665,64dc788ff045656bbd2da87a,,,,,,,decisionTrl,resources/DBN.BMP,resources/DY.BMP,Door1,-0.2109375,0.1015625,1,0,0,2.2117,optionLeft,30,15490,7,25,0,25,0,1,,,,,,,,,,,,,,,,,,,,,,,,,,,,,,,,,,,,,,,
,,,,,,,,2023-08-16_08h31.47.500,HF_wild_card,2022.2.4,Win32,63.25910931,60fd1ff6c3a0346b66d878ee,64d2fd46c836a06233681665,64dc788ff045656bbd2da87a,,,,,,,decisionTrl,resources/DG.BMP,resources/DP.BMP,Door3,0.270833333,0.057291667,1,0,0,1.3465,optionRight,70,15560,7,26,0,26,0,1,,,,,,,,,,,,,,,,,,,,,,,,,,,,,,,,,,,,,,,
,,,,,,,,2023-08-16_08h31.47.500,HF_wild_card,2022.2.4,Win32,63.25910931,60fd1ff6c3a0346b66d878ee,64d2fd46c836a06233681665,64dc788ff045656bbd2da87a,,,,,,,decisionTrl,resources/DBN.BMP,resources/DY.BMP,Door1,-0.19140625,0.046875,1,0,0,3.3376,optionLeft,30,15590,7,27,0,27,0,1,,,,,,,,,,,,,,,,,,,,,,,,,,,,,,,,,,,,,,,
,,,,,,,,2023-08-16_08h31.47.500,HF_wild_card,2022.2.4,Win32,63.25910931,60fd1ff6c3a0346b66d878ee,64d2fd46c836a06233681665,64dc788ff045656bbd2da87a,,,,,,,decisionTrl,resources/DP.BMP,resources/DG.BMP,Door3,-0.213541667,0.006510417,1,0,0,1.4645,optionLeft,70,15660,7,28,0,28,0,1,,,,,,,,,,,,,,,,,,,,,,,,,,,,,,,,,,,,,,,
,,,,,,,,2023-08-16_08h31.47.500,HF_wild_card,2022.2.4,Win32,63.25910931,60fd1ff6c3a0346b66d878ee,64d2fd46c836a06233681665,64dc788ff045656bbd2da87a,,,,,,,decisionTrl,resources/DY.BMP,resources/DBN.BMP,Door1,0.221354167,0.041666667,1,0,0,1.8288,optionRight,30,15690,7,29,0,29,0,1,,,,,,,,,,,,,,,,,,,,,,,,,,,,,,,,,,,,,,,
,,,,,,,,2023-08-16_08h31.47.500,HF_wild_card,2022.2.4,Win32,63.25910931,60fd1ff6c3a0346b66d878ee,64d2fd46c836a06233681665,64dc788ff045656bbd2da87a,,,,,,,ctch,resources/DG.BMP,resources/DBN.BMP,Door4,-0.169270833,-0.0234375,1,0,0,1.1623,optionLeft,80,15770,7,30,0,30,0,1,,,,,,,,,,,,,,,,,,,,,,,,,,,,,,,,,,,,,,,
,,,,,,,,2023-08-16_08h31.47.500,HF_wild_card,2022.2.4,Win32,63.25910931,60fd1ff6c3a0346b66d878ee,64d2fd46c836a06233681665,64dc788ff045656bbd2da87a,,,,,,,decisionTrl,resources/DBN.BMP,resources/DY.BMP,Door1,-0.21875,0.03125,1,0,0,1.0711,optionLeft,30,15800,7,31,0,31,0,1,,,,,,,,,,,,,,,,,,,,,,,,,,,,,,,,,,,,,,,
,,,,,,,,2023-08-16_08h31.47.500,HF_wild_card,2022.2.4,Win32,63.25910931,60fd1ff6c3a0346b66d878ee,64d2fd46c836a06233681665,64dc788ff045656bbd2da87a,,,,,,,decisionTrl,resources/DBN.BMP,resources/DY.BMP,Door1,-0.263020833,0.02734375,1,0,0,1.0292,optionLeft,30,15830,7,32,0,32,0,1,,,,,,,,,,,,,,,,,,,,,,,,,,,,,,,,,,,,,,,
,,,,,,,,2023-08-16_08h31.47.500,HF_wild_card,2022.2.4,Win32,63.25910931,60fd1ff6c3a0346b66d878ee,64d2fd46c836a06233681665,64dc788ff045656bbd2da87a,,,,,,,ctch,resources/DG.BMP,resources/DBN.BMP,Door4,-0.1875,0.032552083,1,0,0,1.2736,optionLeft,80,15910,7,33,0,33,0,1,,,,,,,,,,,,,,,,,,,,,,,,,,,,,,,,,,,,,,,
,,,,,,,,2023-08-16_08h31.47.500,HF_wild_card,2022.2.4,Win32,63.25910931,60fd1ff6c3a0346b66d878ee,64d2fd46c836a06233681665,64dc788ff045656bbd2da87a,,,,,,,decisionTrl,resources/DP.BMP,resources/DG.BMP,Door3,-0.3125,-0.067708333,1,0,0,1.2285,optionLeft,70,15980,7,34,0,34,0,1,,,,,,,,,,,,,,,,,,,,,,,,,,,,,,,,,,,,,,,
,,,,,,,,2023-08-16_08h31.47.500,HF_wild_card,2022.2.4,Win32,63.25910931,60fd1ff6c3a0346b66d878ee,64d2fd46c836a06233681665,64dc788ff045656bbd2da87a,,,,,,,decisionTrl,resources/DP.BMP,resources/DG.BMP,Door3,-0.279947917,-0.013020833,1,0,0,0.9951,optionLeft,70,16050,7,35,0,35,0,1,,,,,,,,,,,,,,,,,,,,,,,,,,,,,,,,,,,,,,,
,,,,,,,,2023-08-16_08h31.47.500,HF_wild_card,2022.2.4,Win32,63.25910931,60fd1ff6c3a0346b66d878ee,64d2fd46c836a06233681665,64dc788ff045656bbd2da87a,,,,,,,,,,,,,,,,,,,,,,,,,,6,0,6,0,1,,,,,,,,,,,,,,,,,,,,,,,,,,,,,,,,,,
,,,,,,,,2023-08-16_08h31.47.500,HF_wild_card,2022.2.4,Win32,63.25910931,60fd1ff6c3a0346b66d878ee,64d2fd46c836a06233681665,64dc788ff045656bbd2da87a,,,,,,,,,,,,,,,,,,,,,,,,,,,,,,,4,,,,,,,,,,,,,,,,,,,,,,,,,,,,,,,,,
,,,,,,,,2023-08-16_08h31.47.500,HF_wild_card,2022.2.4,Win32,63.25910931,60fd1ff6c3a0346b66d878ee,64d2fd46c836a06233681665,64dc788ff045656bbd2da87a,,,,,,,,,,,,,,,,,,,,,,,,,,,,,,,,,,,,,,,,,,,,,,,,,,,,,,,,,,,,,,,,
,,,,,,,,2023-08-16_08h31.47.500,HF_wild_card,2022.2.4,Win32,63.25910931,60fd1ff6c3a0346b66d878ee,64d2fd46c836a06233681665,64dc788ff045656bbd2da87a,,,,,,,,,,,,,,,,,,,,,,,,,,,,,,,,20,Door2,resources/DY.BMP,0,0,0,0,1,,,,,,,,,,,,,,,,,,,,,,,,,
,,,,,,,,2023-08-16_08h31.47.500,HF_wild_card,2022.2.4,Win32,63.25910931,60fd1ff6c3a0346b66d878ee,64d2fd46c836a06233681665,64dc788ff045656bbd2da87a,,,,,,,,,,,,,,,,,,,,,,,,,,,,,,,,60,Door4,resources/DG.BMP,1,0,1,0,1,,,,,,,,,,,,,,,,,,,,,,,,,
,,,,,,,,2023-08-16_08h31.47.500,HF_wild_card,2022.2.4,Win32,63.25910931,60fd1ff6c3a0346b66d878ee,64d2fd46c836a06233681665,64dc788ff045656bbd2da87a,,,,,,,,,,,,,,,,,,,,,,,,,,,,,,,,70,Door3,resources/DP.BMP,2,0,2,0,1,,,,,,,,,,,,,,,,,,,,,,,,,
,,,,,,,,2023-08-16_08h31.47.500,HF_wild_card,2022.2.4,Win32,63.25910931,60fd1ff6c3a0346b66d878ee,64d2fd46c836a06233681665,64dc788ff045656bbd2da87a,,,,,,,,,,,,,,,,,,,,,,,,,,,,,,,,30,Door1,resources/DBN.BMP,3,0,3,0,1,,,,,,,,,,,,,,,,,,,,,,,,,
,,,,,,,,2023-08-16_08h31.47.500,HF_wild_card,2022.2.4,Win32,63.25910931,60fd1ff6c3a0346b66d878ee,64d2fd46c836a06233681665,64dc788ff045656bbd2da87a,,,,,,,,,,,,,,,,,,,,,,,,,,,,,,,,95,WC_extreme,resources/DB.BMP,4,0,4,0,1,,,,,,,,,,,,,,,,,,,,,,,,,
,,,,,,,,2023-08-16_08h31.47.500,HF_wild_card,2022.2.4,Win32,63.25910931,60fd1ff6c3a0346b66d878ee,64d2fd46c836a06233681665,64dc788ff045656bbd2da87a,,,,,,,,,,,,,,,,,,,,,,,,,,,,,,,,45,WC_nonExtreme,resources/DR.BMP,5,0,5,0,1,,,,,,,,,,,,,,,,,,,,,,,,,
,,,,,,,,2023-08-16_08h31.47.500,HF_wild_card,2022.2.4,Win32,63.25910931,60fd1ff6c3a0346b66d878ee,64d2fd46c836a06233681665,64dc788ff045656bbd2da87a,,,,,,,,,,,,,,,,,,,,,,,,,,,,,,,,,,,,,,,,,,,,,,,,,,,,,,,,,,,,,,,,
,,,,,,,,2023-08-16_08h31.47.500,HF_wild_card,2022.2.4,Win32,63.25910931,60fd1ff6c3a0346b66d878ee,64d2fd46c836a06233681665,64dc788ff045656bbd2da87a,,,,,,,,,,,,,,,,,,,,,,,,,,,,,,,,,,,,,,,,0,0,0,0,1,,,,,,,,,,,,,,,,,,,,
,,,,,,,,2023-08-16_08h31.47.500,HF_wild_card,2022.2.4,Win32,63.25910931,60fd1ff6c3a0346b66d878ee,64d2fd46c836a06233681665,64dc788ff045656bbd2da87a,,,,,,,,,,,,,,,,,,,,,,,,,,,,,,,,,,,,,,,,1,0,1,0,1,,,,,,,,,,,,,,,,,,,,
