Condition,Low fixed image (Door1),Low risky image (Door2),High fixed image (Door3),High risky image (Door4),Extreme Wild Card,NonExtreme Wild Card,,date,expName,psychopyVersion,OS,frameRate,PROLIFIC_PID,STUDY_ID,SESSION_ID,mouse_2.x,mouse_2.y,mouse_2.leftButton,mouse_2.midButton,mouse_2.rightButton,mouse_2.clicked_name,Trial Type,Left Option Image,Right Option Image,Chosen Door,mouse.x,mouse.y,mouse.leftButton,mouse.midButton,mouse.rightButton,mouse.time,mouse.clicked_name,Feedback,Cumulative Reward,Block,trial.thisRepN,trial.thisTrialN,trial.thisN,trial.thisIndex,trial.ran,blocks.thisRepN,blocks.thisTrialN,blocks.thisN,blocks.thisIndex,blocks.ran,Money conversion,First Outcome Reported,Shown Door (First Outcome),Displayed Image (First Outcome),outcomes.thisRepN,outcomes.thisTrialN,outcomes.thisN,outcomes.thisIndex,outcomes.ran,judgments.thisRepN,judgments.thisTrialN,judgments.thisN,judgments.thisIndex,judgments.ran,freqMouse.x,freqMouse.y,freqMouse.leftButton,freqMouse.midButton,freqMouse.rightButton,freqMouse.clicked_name,FQJ for first outcome,FQJ for second outcome,Shown Door,Displayed Image,trials.thisRepN,trials.thisTrialN,trials.thisN,trials.thisIndex,trials.ran,judgBlock.thisRepN,judgBlock.thisTrialN,judgBlock.thisN,judgBlock.thisIndex,judgBlock.ran
0,resources/DY.BMP,resources/DB.BMP,resources/DR.BMP,resources/DBN.BMP,resources/DP.BMP,resources/DG.BMP,,2023-08-16_08h57.10.561,HF_wild_card,2022.2.4,Win32,59.79788315,63f78703fbd3a523a963d860,64d2fd46c836a06233681665,64dc813c8bcc148647ade3b4,,,,,,,,,,,,,,,,,,,,,,,,,,,,,,,,,,,,,,,,,,,,,,,,,,,,,,,,,,,,,,,,
,,,,,,,,2023-08-16_08h57.10.561,HF_wild_card,2022.2.4,Win32,59.79788315,63f78703fbd3a523a963d860,64d2fd46c836a06233681665,64dc813c8bcc148647ade3b4,0.013888889,-0.416666667,1,0,0,agree,,,,,,,,,,,,,,,,,,,,,,,,,,,,,,,,,,,,,,,,,,,,,,,,,,,,,,,,,,
,,,,,,,,2023-08-16_08h57.10.561,HF_wild_card,2022.2.4,Win32,59.79788315,63f78703fbd3a523a963d860,64d2fd46c836a06233681665,64dc813c8bcc148647ade3b4,,,,,,,,,,,,,,,,,,,,,,,,,,,,,,,,,,,,,,,,,,,,,,,,,,,,,,,,,,,,,,,,
,,,,,,,,2023-08-16_08h57.10.561,HF_wild_card,2022.2.4,Win32,59.79788315,63f78703fbd3a523a963d860,64d2fd46c836a06233681665,64dc813c8bcc148647ade3b4,,,,,,,decisionTrl,resources/DB.BMP,resources/DY.BMP,Door2,-0.284259259,-0.139814815,1,0,0,3.5009,optionLeft,40,40,1,0,0,0,0,1,,,,,,,,,,,,,,,,,,,,,,,,,,,,,,,,,,,,,,,
,,,,,,,,2023-08-16_08h57.10.561,HF_wild_card,2022.2.4,Win32,59.79788315,63f78703fbd3a523a963d860,64d2fd46c836a06233681665,64dc813c8bcc148647ade3b4,,,,,,,decisionTrl,resources/DP.BMP,resources/DY.BMP,Door1,0.243518519,0.034259259,1,0,0,2.6178,optionRight,30,70,1,1,0,1,0,1,,,,,,,,,,,,,,,,,,,,,,,,,,,,,,,,,,,,,,,
,,,,,,,,2023-08-16_08h57.10.561,HF_wild_card,2022.2.4,Win32,59.79788315,63f78703fbd3a523a963d860,64d2fd46c836a06233681665,64dc813c8bcc148647ade3b4,,,,,,,sngl,resources/Empty.png,resources/DY.BMP,Door1,0.289814815,0.006481481,1,0,0,1.4477,optionRight,30,100,1,2,0,2,0,1,,,,,,,,,,,,,,,,,,,,,,,,,,,,,,,,,,,,,,,
,,,,,,,,2023-08-16_08h57.10.561,HF_wild_card,2022.2.4,Win32,59.79788315,63f78703fbd3a523a963d860,64d2fd46c836a06233681665,64dc813c8bcc148647ade3b4,,,,,,,decisionTrl,resources/DBN.BMP,resources/DR.BMP,Door4,-0.269444444,0.006481481,1,0,0,1.8668,optionLeft,60,160,1,3,0,3,0,1,,,,,,,,,,,,,,,,,,,,,,,,,,,,,,,,,,,,,,,
,,,,,,,,2023-08-16_08h57.10.561,HF_wild_card,2022.2.4,Win32,59.79788315,63f78703fbd3a523a963d860,64d2fd46c836a06233681665,64dc813c8bcc148647ade3b4,,,,,,,decisionTrl,resources/DR.BMP,resources/DBN.BMP,Door4,0.412962963,0.051851852,1,0,0,1.784,optionRight,80,240,1,4,0,4,0,1,,,,,,,,,,,,,,,,,,,,,,,,,,,,,,,,,,,,,,,
,,,,,,,,2023-08-16_08h57.10.561,HF_wild_card,2022.2.4,Win32,59.79788315,63f78703fbd3a523a963d860,64d2fd46c836a06233681665,64dc813c8bcc148647ade3b4,,,,,,,decisionTrl,resources/DB.BMP,resources/DY.BMP,Door2,-0.27129624,-0.024074074,1,0,0,1.7728,optionLeft,40,280,1,5,0,5,0,1,,,,,,,,,,,,,,,,,,,,,,,,,,,,,,,,,,,,,,,
,,,,,,,,2023-08-16_08h57.10.561,HF_wild_card,2022.2.4,Win32,59.79788315,63f78703fbd3a523a963d860,64d2fd46c836a06233681665,64dc813c8bcc148647ade3b4,,,,,,,sngl,resources/Empty.png,resources/DR.BMP,Door3,0.286111111,0,1,0,0,1.0957,optionRight,70,350,1,6,0,6,0,1,,,,,,,,,,,,,,,,,,,,,,,,,,,,,,,,,,,,,,,
,,,,,,,,2023-08-16_08h57.10.561,HF_wild_card,2022.2.4,Win32,59.79788315,63f78703fbd3a523a963d860,64d2fd46c836a06233681665,64dc813c8bcc148647ade3b4,,,,,,,sngl,resources/Empty.png,resources/DP.BMP,WildCard_Ex,0.35,-0.02962963,1,0,0,1.0525,optionRight,5,355,1,7,0,7,0,1,,,,,,,,,,,,,,,,,,,,,,,,,,,,,,,,,,,,,,,
,,,,,,,,2023-08-16_08h57.10.561,HF_wild_card,2022.2.4,Win32,59.79788315,63f78703fbd3a523a963d860,64d2fd46c836a06233681665,64dc813c8bcc148647ade3b4,,,,,,,ctch,resources/DY.BMP,resources/DBN.BMP,Door4,0.319444444,-0.067592593,1,0,0,1.6487,optionRight,80,435,1,8,0,8,0,1,,,,,,,,,,,,,,,,,,,,,,,,,,,,,,,,,,,,,,,
,,,,,,,,2023-08-16_08h57.10.561,HF_wild_card,2022.2.4,Win32,59.79788315,63f78703fbd3a523a963d860,64d2fd46c836a06233681665,64dc813c8bcc148647ade3b4,,,,,,,ctch,resources/DR.BMP,resources/DB.BMP,Door3,-0.323148148,-0.040740741,1,0,0,4.7085,optionLeft,70,505,1,9,0,9,0,1,,,,,,,,,,,,,,,,,,,,,,,,,,,,,,,,,,,,,,,
,,,,,,,,2023-08-16_08h57.10.561,HF_wild_card,2022.2.4,Win32,59.79788315,63f78703fbd3a523a963d860,64d2fd46c836a06233681665,64dc813c8bcc148647ade3b4,,,,,,,decisionTrl,resources/DR.BMP,resources/DBN.BMP,Door3,-0.392592593,-0.019444444,1,0,0,1.8499,optionLeft,70,575,1,10,0,10,0,1,,,,,,,,,,,,,,,,,,,,,,,,,,,,,,,,,,,,,,,
,,,,,,,,2023-08-16_08h57.10.561,HF_wild_card,2022.2.4,Win32,59.79788315,63f78703fbd3a523a963d860,64d2fd46c836a06233681665,64dc813c8bcc148647ade3b4,,,,,,,ctch,resources/DB.BMP,resources/DR.BMP,Door3,0.165740741,-0.034259259,1,0,0,1.8814,optionRight,70,645,1,11,0,11,0,1,,,,,,,,,,,,,,,,,,,,,,,,,,,,,,,,,,,,,,,
,,,,,,,,2023-08-16_08h57.10.561,HF_wild_card,2022.2.4,Win32,59.79788315,63f78703fbd3a523a963d860,64d2fd46c836a06233681665,64dc813c8bcc148647ade3b4,,,,,,,decisionTrl,resources/DB.BMP,resources/DP.BMP,WildCard_Ex,0.261111111,0.000925926,1,0,0,2.3094,optionRight,95,740,1,12,0,12,0,1,,,,,,,,,,,,,,,,,,,,,,,,,,,,,,,,,,,,,,,
,,,,,,,,2023-08-16_08h57.10.561,HF_wild_card,2022.2.4,Win32,59.79788315,63f78703fbd3a523a963d860,64d2fd46c836a06233681665,64dc813c8bcc148647ade3b4,,,,,,,sngl,resources/DB.BMP,resources/Empty.png,Door2,-0.259259259,0.00462963,1,0,0,1.2535,optionLeft,40,780,1,13,0,13,0,1,,,,,,,,,,,,,,,,,,,,,,,,,,,,,,,,,,,,,,,
,,,,,,,,2023-08-16_08h57.10.561,HF_wild_card,2022.2.4,Win32,59.79788315,63f78703fbd3a523a963d860,64d2fd46c836a06233681665,64dc813c8bcc148647ade3b4,,,,,,,decisionTrl,resources/DP.BMP,resources/DB.BMP,WildCard_Ex,-0.391666667,-0.025925926,1,0,0,1.3401,optionLeft,5,785,1,14,0,14,0,1,,,,,,,,,,,,,,,,,,,,,,,,,,,,,,,,,,,,,,,
,,,,,,,,2023-08-16_08h57.10.561,HF_wild_card,2022.2.4,Win32,59.79788315,63f78703fbd3a523a963d860,64d2fd46c836a06233681665,64dc813c8bcc148647ade3b4,,,,,,,ctch,resources/DY.BMP,resources/DBN.BMP,Door1,-0.198148148,-0.012962963,1,0,0,2.1132,optionLeft,30,815,1,15,0,15,0,1,,,,,,,,,,,,,,,,,,,,,,,,,,,,,,,,,,,,,,,
,,,,,,,,2023-08-16_08h57.10.561,HF_wild_card,2022.2.4,Win32,59.79788315,63f78703fbd3a523a963d860,64d2fd46c836a06233681665,64dc813c8bcc148647ade3b4,,,,,,,ctch,resources/DBN.BMP,resources/DY.BMP,Door4,-0.302777778,0.001851852,1,0,0,2.1734,optionLeft,60,875,1,16,0,16,0,1,,,,,,,,,,,,,,,,,,,,,,,,,,,,,,,,,,,,,,,
,,,,,,,,2023-08-16_08h57.10.561,HF_wild_card,2022.2.4,Win32,59.79788315,63f78703fbd3a523a963d860,64d2fd46c836a06233681665,64dc813c8bcc148647ade3b4,,,,,,,sngl,resources/DP.BMP,resources/Empty.png,WildCard_Ex,-0.32037037,-0.006481481,1,0,0,1.212,optionLeft,95,970,1,17,0,17,0,1,,,,,,,,,,,,,,,,,,,,,,,,,,,,,,,,,,,,,,,
,,,,,,,,2023-08-16_08h57.10.561,HF_wild_card,2022.2.4,Win32,59.79788315,63f78703fbd3a523a963d860,64d2fd46c836a06233681665,64dc813c8bcc148647ade3b4,,,,,,,decisionTrl,resources/DB.BMP,resources/DY.BMP,Door2,-0.322222222,0.002777778,1,0,0,1.5141,optionLeft,40,1010,1,18,0,18,0,1,,,,,,,,,,,,,,,,,,,,,,,,,,,,,,,,,,,,,,,
,,,,,,,,2023-08-16_08h57.10.561,HF_wild_card,2022.2.4,Win32,59.79788315,63f78703fbd3a523a963d860,64d2fd46c836a06233681665,64dc813c8bcc148647ade3b4,,,,,,,decisionTrl,resources/DP.BMP,resources/DBN.BMP,WildCard_Ex,-0.321296296,-0.044444444,1,0,0,1.6959,optionLeft,95,1105,1,19,0,19,0,1,,,,,,,,,,,,,,,,,,,,,,,,,,,,,,,,,,,,,,,
,,,,,,,,2023-08-16_08h57.10.561,HF_wild_card,2022.2.4,Win32,59.79788315,63f78703fbd3a523a963d860,64d2fd46c836a06233681665,64dc813c8bcc148647ade3b4,,,,,,,decisionTrl,resources/DR.BMP,resources/DBN.BMP,Door4,0.293518519,-0.031481481,1,0,0,2.2499,optionRight,60,1165,1,20,0,20,0,1,,,,,,,,,,,,,,,,,,,,,,,,,,,,,,,,,,,,,,,
,,,,,,,,2023-08-16_08h57.10.561,HF_wild_card,2022.2.4,Win32,59.79788315,63f78703fbd3a523a963d860,64d2fd46c836a06233681665,64dc813c8bcc148647ade3b4,,,,,,,decisionTrl,resources/DBN.BMP,resources/DR.BMP,Door4,-0.263888889,0.02037037,1,0,0,1.2054,optionLeft,60,1225,1,21,0,21,0,1,,,,,,,,,,,,,,,,,,,,,,,,,,,,,,,,,,,,,,,
,,,,,,,,2023-08-16_08h57.10.561,HF_wild_card,2022.2.4,Win32,59.79788315,63f78703fbd3a523a963d860,64d2fd46c836a06233681665,64dc813c8bcc148647ade3b4,,,,,,,decisionTrl,resources/DY.BMP,resources/DB.BMP,Door1,-0.173148148,-0.031481481,1,0,0,2.3457,optionLeft,30,1255,1,22,0,22,0,1,,,,,,,,,,,,,,,,,,,,,,,,,,,,,,,,,,,,,,,
,,,,,,,,2023-08-16_08h57.10.561,HF_wild_card,2022.2.4,Win32,59.79788315,63f78703fbd3a523a963d860,64d2fd46c836a06233681665,64dc813c8bcc148647ade3b4,,,,,,,decisionTrl,resources/DR.BMP,resources/DP.BMP,WildCard_Ex,0.268518519,-0.024074074,1,0,0,1.0626,optionRight,5,1260,1,23,0,23,0,1,,,,,,,,,,,,,,,,,,,,,,,,,,,,,,,,,,,,,,,
,,,,,,,,2023-08-16_08h57.10.561,HF_wild_card,2022.2.4,Win32,59.79788315,63f78703fbd3a523a963d860,64d2fd46c836a06233681665,64dc813c8bcc148647ade3b4,,,,,,,decisionTrl,resources/DY.BMP,resources/DB.BMP,Door2,0.318518632,-0.001851852,1,0,0,1.1803,optionRight,40,1300,1,24,0,24,0,1,,,,,,,,,,,,,,,,,,,,,,,,,,,,,,,,,,,,,,,
,,,,,,,,2023-08-16_08h57.10.561,HF_wild_card,2022.2.4,Win32,59.79788315,63f78703fbd3a523a963d860,64d2fd46c836a06233681665,64dc813c8bcc148647ade3b4,,,,,,,decisionTrl,resources/DBN.BMP,resources/DR.BMP,Door3,0.259259259,-0.026851852,1,0,0,1.6291,optionRight,70,1370,1,25,0,25,0,1,,,,,,,,,,,,,,,,,,,,,,,,,,,,,,,,,,,,,,,
,,,,,,,,2023-08-16_08h57.10.561,HF_wild_card,2022.2.4,Win32,59.79788315,63f78703fbd3a523a963d860,64d2fd46c836a06233681665,64dc813c8bcc148647ade3b4,,,,,,,decisionTrl,resources/DB.BMP,resources/DY.BMP,Door2,-0.207407407,-0.00462963,1,0,0,2.5284,optionLeft,40,1410,1,26,0,26,0,1,,,,,,,,,,,,,,,,,,,,,,,,,,,,,,,,,,,,,,,
,,,,,,,,2023-08-16_08h57.10.561,HF_wild_card,2022.2.4,Win32,59.79788315,63f78703fbd3a523a963d860,64d2fd46c836a06233681665,64dc813c8bcc148647ade3b4,,,,,,,decisionTrl,resources/DY.BMP,resources/DP.BMP,WildCard_Ex,0.223148148,-0.02962963,1,0,0,1.0821,optionRight,95,1505,1,27,0,27,0,1,,,,,,,,,,,,,,,,,,,,,,,,,,,,,,,,,,,,,,,
,,,,,,,,2023-08-16_08h57.10.561,HF_wild_card,2022.2.4,Win32,59.79788315,63f78703fbd3a523a963d860,64d2fd46c836a06233681665,64dc813c8bcc148647ade3b4,,,,,,,decisionTrl,resources/DBN.BMP,resources/DR.BMP,Door3,0.250925926,-0.068518519,1,0,0,1.398,optionRight,70,1575,1,28,0,28,0,1,,,,,,,,,,,,,,,,,,,,,,,,,,,,,,,,,,,,,,,
,,,,,,,,2023-08-16_08h57.10.561,HF_wild_card,2022.2.4,Win32,59.79788315,63f78703fbd3a523a963d860,64d2fd46c836a06233681665,64dc813c8bcc148647ade3b4,,,,,,,ctch,resources/DBN.BMP,resources/DY.BMP,Door1,0.325,-0.003703704,1,0,0,1.9127,optionRight,30,1605,1,29,0,29,0,1,,,,,,,,,,,,,,,,,,,,,,,,,,,,,,,,,,,,,,,
,,,,,,,,2023-08-16_08h57.10.561,HF_wild_card,2022.2.4,Win32,59.79788315,63f78703fbd3a523a963d860,64d2fd46c836a06233681665,64dc813c8bcc148647ade3b4,,,,,,,decisionTrl,resources/DP.BMP,resources/DR.BMP,WildCard_Ex,-0.346296296,-0.057407407,1,0,0,1.1288,optionLeft,5,1610,1,30,0,30,0,1,,,,,,,,,,,,,,,,,,,,,,,,,,,,,,,,,,,,,,,
,,,,,,,,2023-08-16_08h57.10.561,HF_wild_card,2022.2.4,Win32,59.79788315,63f78703fbd3a523a963d860,64d2fd46c836a06233681665,64dc813c8bcc148647ade3b4,,,,,,,sngl,resources/DP.BMP,resources/Empty.png,WildCard_Ex,-0.317592593,-0.02962963,1,0,0,0.9825,optionLeft,5,1615,1,31,0,31,0,1,,,,,,,,,,,,,,,,,,,,,,,,,,,,,,,,,,,,,,,
,,,,,,,,2023-08-16_08h57.10.561,HF_wild_card,2022.2.4,Win32,59.79788315,63f78703fbd3a523a963d860,64d2fd46c836a06233681665,64dc813c8bcc148647ade3b4,,,,,,,sngl,resources/DY.BMP,resources/Empty.png,Door1,-0.237037037,0.023148148,1,0,0,1.2018,optionLeft,30,1645,1,32,0,32,0,1,,,,,,,,,,,,,,,,,,,,,,,,,,,,,,,,,,,,,,,
,,,,,,,,2023-08-16_08h57.10.561,HF_wild_card,2022.2.4,Win32,59.79788315,63f78703fbd3a523a963d860,64d2fd46c836a06233681665,64dc813c8bcc148647ade3b4,,,,,,,decisionTrl,resources/DY.BMP,resources/DB.BMP,Door2,0.186111111,-0.02962963,1,0,0,1.5238,optionRight,40,1685,1,33,0,33,0,1,,,,,,,,,,,,,,,,,,,,,,,,,,,,,,,,,,,,,,,
,,,,,,,,2023-08-16_08h57.10.561,HF_wild_card,2022.2.4,Win32,59.79788315,63f78703fbd3a523a963d860,64d2fd46c836a06233681665,64dc813c8bcc148647ade3b4,,,,,,,ctch,resources/DB.BMP,resources/DR.BMP,Door3,0.323148261,0.026851824,1,0,0,1.7416,optionRight,70,1755,1,34,0,34,0,1,,,,,,,,,,,,,,,,,,,,,,,,,,,,,,,,,,,,,,,
,,,,,,,,2023-08-16_08h57.10.561,HF_wild_card,2022.2.4,Win32,59.79788315,63f78703fbd3a523a963d860,64d2fd46c836a06233681665,64dc813c8bcc148647ade3b4,,,,,,,sngl,resources/DBN.BMP,resources/Empty.png,Door4,-0.257407351,0.026851824,1,0,0,1.1037,optionLeft,80,1835,1,35,0,35,0,1,,,,,,,,,,,,,,,,,,,,,,,,,,,,,,,,,,,,,,,
,,,,,,,,2023-08-16_08h57.10.561,HF_wild_card,2022.2.4,Win32,59.79788315,63f78703fbd3a523a963d860,64d2fd46c836a06233681665,64dc813c8bcc148647ade3b4,,,,,,,sngl,resources/DR.BMP,resources/Empty.png,Door3,-0.26666661,0.028703704,1,0,0,0.9925,optionLeft,70,1905,1,36,0,36,0,1,,,,,,,,,,,,,,,,,,,,,,,,,,,,,,,,,,,,,,,
,,,,,,,,2023-08-16_08h57.10.561,HF_wild_card,2022.2.4,Win32,59.79788315,63f78703fbd3a523a963d860,64d2fd46c836a06233681665,64dc813c8bcc148647ade3b4,,,,,,,decisionTrl,resources/DBN.BMP,resources/DP.BMP,WildCard_Ex,0.394444444,-0.000925926,1,0,0,1.0531,optionRight,5,1910,1,37,0,37,0,1,,,,,,,,,,,,,,,,,,,,,,,,,,,,,,,,,,,,,,,
,,,,,,,,2023-08-16_08h57.10.561,HF_wild_card,2022.2.4,Win32,59.79788315,63f78703fbd3a523a963d860,64d2fd46c836a06233681665,64dc813c8bcc148647ade3b4,,,,,,,sngl,resources/Empty.png,resources/DBN.BMP,Door4,0.218518519,0.009259259,1,0,0,1.2896,optionRight,60,1970,1,38,0,38,0,1,,,,,,,,,,,,,,,,,,,,,,,,,,,,,,,,,,,,,,,
,,,,,,,,2023-08-16_08h57.10.561,HF_wild_card,2022.2.4,Win32,59.79788315,63f78703fbd3a523a963d860,64d2fd46c836a06233681665,64dc813c8bcc148647ade3b4,,,,,,,sngl,resources/Empty.png,resources/DB.BMP,Door2,0.421296296,-0.00462963,1,0,0,1.1122,optionRight,20,1990,1,39,0,39,0,1,,,,,,,,,,,,,,,,,,,,,,,,,,,,,,,,,,,,,,,
,,,,,,,,2023-08-16_08h57.10.561,HF_wild_card,2022.2.4,Win32,59.79788315,63f78703fbd3a523a963d860,64d2fd46c836a06233681665,64dc813c8bcc148647ade3b4,,,,,,,sngl,resources/Empty.png,resources/DP.BMP,WildCard_Ex,0.501851852,-0.02037037,1,0,0,0.8822,optionRight,95,2085,1,40,0,40,0,1,,,,,,,,,,,,,,,,,,,,,,,,,,,,,,,,,,,,,,,
,,,,,,,,2023-08-16_08h57.10.561,HF_wild_card,2022.2.4,Win32,59.79788315,63f78703fbd3a523a963d860,64d2fd46c836a06233681665,64dc813c8bcc148647ade3b4,,,,,,,decisionTrl,resources/DY.BMP,resources/DB.BMP,Door2,0.356481481,-0.010185185,1,0,0,1.9304,optionRight,20,2105,1,41,0,41,0,1,,,,,,,,,,,,,,,,,,,,,,,,,,,,,,,,,,,,,,,
,,,,,,,,2023-08-16_08h57.10.561,HF_wild_card,2022.2.4,Win32,59.79788315,63f78703fbd3a523a963d860,64d2fd46c836a06233681665,64dc813c8bcc148647ade3b4,,,,,,,decisionTrl,resources/DR.BMP,resources/DBN.BMP,Door3,-0.375,0.001851852,1,0,0,1.0283,optionLeft,70,2175,1,42,0,42,0,1,,,,,,,,,,,,,,,,,,,,,,,,,,,,,,,,,,,,,,,
,,,,,,,,2023-08-16_08h57.10.561,HF_wild_card,2022.2.4,Win32,59.79788315,63f78703fbd3a523a963d860,64d2fd46c836a06233681665,64dc813c8bcc148647ade3b4,,,,,,,ctch,resources/DR.BMP,resources/DB.BMP,Door3,-0.385185185,0.039814815,1,0,0,1.6057,optionLeft,70,2245,1,43,0,43,0,1,,,,,,,,,,,,,,,,,,,,,,,,,,,,,,,,,,,,,,,
,,,,,,,,2023-08-16_08h57.10.561,HF_wild_card,2022.2.4,Win32,59.79788315,63f78703fbd3a523a963d860,64d2fd46c836a06233681665,64dc813c8bcc148647ade3b4,,,,,,,,,,,,,,,,,,,,,,,,,,0,0,0,0,1,,,,,,,,,,,,,,,,,,,,,,,,,,,,,,,,,,
,,,,,,,,2023-08-16_08h57.10.561,HF_wild_card,2022.2.4,Win32,59.79788315,63f78703fbd3a523a963d860,64d2fd46c836a06233681665,64dc813c8bcc148647ade3b4,,,,,,,sngl,resources/Empty.png,resources/DP.BMP,WildCard_Ex,0.405555556,-0.087037037,1,0,0,3.9878,optionRight,5,2250,2,0,0,0,0,1,,,,,,,,,,,,,,,,,,,,,,,,,,,,,,,,,,,,,,,
,,,,,,,,2023-08-16_08h57.10.561,HF_wild_card,2022.2.4,Win32,59.79788315,63f78703fbd3a523a963d860,64d2fd46c836a06233681665,64dc813c8bcc148647ade3b4,,,,,,,decisionTrl,resources/DY.BMP,resources/DB.BMP,Door2,0.27037037,-0.028703704,1,0,0,3.4477,optionRight,20,2270,2,1,0,1,0,1,,,,,,,,,,,,,,,,,,,,,,,,,,,,,,,,,,,,,,,
,,,,,,,,2023-08-16_08h57.10.561,HF_wild_card,2022.2.4,Win32,59.79788315,63f78703fbd3a523a963d860,64d2fd46c836a06233681665,64dc813c8bcc148647ade3b4,,,,,,,ctch,resources/DR.BMP,resources/DB.BMP,Door3,-0.330555556,-0.033333333,1,0,0,1.1868,optionLeft,70,2340,2,2,0,2,0,1,,,,,,,,,,,,,,,,,,,,,,,,,,,,,,,,,,,,,,,
,,,,,,,,2023-08-16_08h57.10.561,HF_wild_card,2022.2.4,Win32,59.79788315,63f78703fbd3a523a963d860,64d2fd46c836a06233681665,64dc813c8bcc148647ade3b4,,,,,,,sngl,resources/Empty.png,resources/DB.BMP,Door2,0.24537037,0.006481481,1,0,0,1.5247,optionRight,40,2380,2,3,0,3,0,1,,,,,,,,,,,,,,,,,,,,,,,,,,,,,,,,,,,,,,,
,,,,,,,,2023-08-16_08h57.10.561,HF_wild_card,2022.2.4,Win32,59.79788315,63f78703fbd3a523a963d860,64d2fd46c836a06233681665,64dc813c8bcc148647ade3b4,,,,,,,decisionTrl,resources/DP.BMP,resources/DR.BMP,WildCard_Ex,-0.333333333,-0.065740741,1,0,0,1.8466,optionLeft,5,2385,2,4,0,4,0,1,,,,,,,,,,,,,,,,,,,,,,,,,,,,,,,,,,,,,,,
,,,,,,,,2023-08-16_08h57.10.561,HF_wild_card,2022.2.4,Win32,59.79788315,63f78703fbd3a523a963d860,64d2fd46c836a06233681665,64dc813c8bcc148647ade3b4,,,,,,,decisionTrl,resources/DB.BMP,resources/DY.BMP,Door2,-0.278703704,-0.036111111,1,0,0,1.4224,optionLeft,40,2425,2,5,0,5,0,1,,,,,,,,,,,,,,,,,,,,,,,,,,,,,,,,,,,,,,,
,,,,,,,,2023-08-16_08h57.10.561,HF_wild_card,2022.2.4,Win32,59.79788315,63f78703fbd3a523a963d860,64d2fd46c836a06233681665,64dc813c8bcc148647ade3b4,,,,,,,ctch,resources/DBN.BMP,resources/DY.BMP,Door4,-0.27037037,-0.048148148,1,0,0,1.6355,optionLeft,60,2485,2,6,0,6,0,1,,,,,,,,,,,,,,,,,,,,,,,,,,,,,,,,,,,,,,,
,,,,,,,,2023-08-16_08h57.10.561,HF_wild_card,2022.2.4,Win32,59.79788315,63f78703fbd3a523a963d860,64d2fd46c836a06233681665,64dc813c8bcc148647ade3b4,,,,,,,sngl,resources/Empty.png,resources/DBN.BMP,Door4,0.378703817,-0.046296296,1,0,0,1.019,optionRight,80,2565,2,7,0,7,0,1,,,,,,,,,,,,,,,,,,,,,,,,,,,,,,,,,,,,,,,
,,,,,,,,2023-08-16_08h57.10.561,HF_wild_card,2022.2.4,Win32,59.79788315,63f78703fbd3a523a963d860,64d2fd46c836a06233681665,64dc813c8bcc148647ade3b4,,,,,,,decisionTrl,resources/DY.BMP,resources/DB.BMP,Door2,0.287962963,-0.046296296,1,0,0,1.0738,optionRight,40,2605,2,8,0,8,0,1,,,,,,,,,,,,,,,,,,,,,,,,,,,,,,,,,,,,,,,
,,,,,,,,2023-08-16_08h57.10.561,HF_wild_card,2022.2.4,Win32,59.79788315,63f78703fbd3a523a963d860,64d2fd46c836a06233681665,64dc813c8bcc148647ade3b4,,,,,,,ctch,resources/DB.BMP,resources/DR.BMP,Door3,0.33703715,-0.052777778,1,0,0,0.9653,optionRight,70,2675,2,9,0,9,0,1,,,,,,,,,,,,,,,,,,,,,,,,,,,,,,,,,,,,,,,
,,,,,,,,2023-08-16_08h57.10.561,HF_wild_card,2022.2.4,Win32,59.79788315,63f78703fbd3a523a963d860,64d2fd46c836a06233681665,64dc813c8bcc148647ade3b4,,,,,,,ctch,resources/DY.BMP,resources/DBN.BMP,Door4,0.311111111,0.013888889,1,0,0,1.9967,optionRight,60,2735,2,10,0,10,0,1,,,,,,,,,,,,,,,,,,,,,,,,,,,,,,,,,,,,,,,
,,,,,,,,2023-08-16_08h57.10.561,HF_wild_card,2022.2.4,Win32,59.79788315,63f78703fbd3a523a963d860,64d2fd46c836a06233681665,64dc813c8bcc148647ade3b4,,,,,,,decisionTrl,resources/DBN.BMP,resources/DR.BMP,Door3,0.440740741,-0.012962963,1,0,0,1.0494,optionRight,70,2805,2,11,0,11,0,1,,,,,,,,,,,,,,,,,,,,,,,,,,,,,,,,,,,,,,,
,,,,,,,,2023-08-16_08h57.10.561,HF_wild_card,2022.2.4,Win32,59.79788315,63f78703fbd3a523a963d860,64d2fd46c836a06233681665,64dc813c8bcc148647ade3b4,,,,,,,sngl,resources/DP.BMP,resources/Empty.png,WildCard_Ex,-0.338888889,-0.012962963,1,0,0,0.9731,optionLeft,5,2810,2,12,0,12,0,1,,,,,,,,,,,,,,,,,,,,,,,,,,,,,,,,,,,,,,,
,,,,,,,,2023-08-16_08h57.10.561,HF_wild_card,2022.2.4,Win32,59.79788315,63f78703fbd3a523a963d860,64d2fd46c836a06233681665,64dc813c8bcc148647ade3b4,,,,,,,decisionTrl,resources/DBN.BMP,resources/DR.BMP,Door3,0.34166678,-0.033333333,1,0,0,1.0028,optionRight,70,2880,2,13,0,13,0,1,,,,,,,,,,,,,,,,,,,,,,,,,,,,,,,,,,,,,,,
,,,,,,,,2023-08-16_08h57.10.561,HF_wild_card,2022.2.4,Win32,59.79788315,63f78703fbd3a523a963d860,64d2fd46c836a06233681665,64dc813c8bcc148647ade3b4,,,,,,,decisionTrl,resources/DB.BMP,resources/DY.BMP,Door2,-0.246296296,0.022222222,1,0,0,1.5109,optionLeft,40,2920,2,14,0,14,0,1,,,,,,,,,,,,,,,,,,,,,,,,,,,,,,,,,,,,,,,
,,,,,,,,2023-08-16_08h57.10.561,HF_wild_card,2022.2.4,Win32,59.79788315,63f78703fbd3a523a963d860,64d2fd46c836a06233681665,64dc813c8bcc148647ade3b4,,,,,,,ctch,resources/DB.BMP,resources/DR.BMP,Door3,0.316666667,-0.026851852,1,0,0,1.0329,optionRight,70,2990,2,15,0,15,0,1,,,,,,,,,,,,,,,,,,,,,,,,,,,,,,,,,,,,,,,
,,,,,,,,2023-08-16_08h57.10.561,HF_wild_card,2022.2.4,Win32,59.79788315,63f78703fbd3a523a963d860,64d2fd46c836a06233681665,64dc813c8bcc148647ade3b4,,,,,,,decisionTrl,resources/DP.BMP,resources/DY.BMP,WildCard_Ex,-0.317592593,-0.015740741,1,0,0,1.2376,optionLeft,5,2995,2,16,0,16,0,1,,,,,,,,,,,,,,,,,,,,,,,,,,,,,,,,,,,,,,,
,,,,,,,,2023-08-16_08h57.10.561,HF_wild_card,2022.2.4,Win32,59.79788315,63f78703fbd3a523a963d860,64d2fd46c836a06233681665,64dc813c8bcc148647ade3b4,,,,,,,decisionTrl,resources/DR.BMP,resources/DBN.BMP,Door3,-0.318518519,0,1,0,0,0.9795,optionLeft,70,3065,2,17,0,17,0,1,,,,,,,,,,,,,,,,,,,,,,,,,,,,,,,,,,,,,,,
,,,,,,,,2023-08-16_08h57.10.561,HF_wild_card,2022.2.4,Win32,59.79788315,63f78703fbd3a523a963d860,64d2fd46c836a06233681665,64dc813c8bcc148647ade3b4,,,,,,,decisionTrl,resources/DB.BMP,resources/DY.BMP,Door1,0.312962963,-0.009259259,1,0,0,1.6142,optionRight,30,3095,2,18,0,18,0,1,,,,,,,,,,,,,,,,,,,,,,,,,,,,,,,,,,,,,,,
,,,,,,,,2023-08-16_08h57.10.561,HF_wild_card,2022.2.4,Win32,59.79788315,63f78703fbd3a523a963d860,64d2fd46c836a06233681665,64dc813c8bcc148647ade3b4,,,,,,,decisionTrl,resources/DBN.BMP,resources/DP.BMP,WildCard_Ex,0.401851965,-0.012962963,1,0,0,0.9057,optionRight,95,3190,2,19,0,19,0,1,,,,,,,,,,,,,,,,,,,,,,,,,,,,,,,,,,,,,,,
,,,,,,,,2023-08-16_08h57.10.561,HF_wild_card,2022.2.4,Win32,59.79788315,63f78703fbd3a523a963d860,64d2fd46c836a06233681665,64dc813c8bcc148647ade3b4,,,,,,,ctch,resources/DY.BMP,resources/DBN.BMP,Door4,0.199074074,0.025,1,0,0,1.4899,optionRight,60,3250,2,20,0,20,0,1,,,,,,,,,,,,,,,,,,,,,,,,,,,,,,,,,,,,,,,
,,,,,,,,2023-08-16_08h57.10.561,HF_wild_card,2022.2.4,Win32,59.79788315,63f78703fbd3a523a963d860,64d2fd46c836a06233681665,64dc813c8bcc148647ade3b4,,,,,,,sngl,resources/Empty.png,resources/DR.BMP,Door3,0.446296296,-0.02962963,1,0,0,1.0019,optionRight,70,3320,2,21,0,21,0,1,,,,,,,,,,,,,,,,,,,,,,,,,,,,,,,,,,,,,,,
,,,,,,,,2023-08-16_08h57.10.561,HF_wild_card,2022.2.4,Win32,59.79788315,63f78703fbd3a523a963d860,64d2fd46c836a06233681665,64dc813c8bcc148647ade3b4,,,,,,,sngl,resources/Empty.png,resources/DY.BMP,Door1,0.438889002,-0.076851852,1,0,0,1.1812,optionRight,30,3350,2,22,0,22,0,1,,,,,,,,,,,,,,,,,,,,,,,,,,,,,,,,,,,,,,,
,,,,,,,,2023-08-16_08h57.10.561,HF_wild_card,2022.2.4,Win32,59.79788315,63f78703fbd3a523a963d860,64d2fd46c836a06233681665,64dc813c8bcc148647ade3b4,,,,,,,decisionTrl,resources/DR.BMP,resources/DBN.BMP,Door3,-0.336111111,0.034259259,1,0,0,1.189,optionLeft,70,3420,2,23,0,23,0,1,,,,,,,,,,,,,,,,,,,,,,,,,,,,,,,,,,,,,,,
,,,,,,,,2023-08-16_08h57.10.561,HF_wild_card,2022.2.4,Win32,59.79788315,63f78703fbd3a523a963d860,64d2fd46c836a06233681665,64dc813c8bcc148647ade3b4,,,,,,,decisionTrl,resources/DY.BMP,resources/DB.BMP,Door2,0.215740741,-0.023148148,1,0,0,1.7991,optionRight,20,3440,2,24,0,24,0,1,,,,,,,,,,,,,,,,,,,,,,,,,,,,,,,,,,,,,,,
,,,,,,,,2023-08-16_08h57.10.561,HF_wild_card,2022.2.4,Win32,59.79788315,63f78703fbd3a523a963d860,64d2fd46c836a06233681665,64dc813c8bcc148647ade3b4,,,,,,,sngl,resources/DB.BMP,resources/Empty.png,Door2,-0.389814815,0.017592593,1,0,0,1.1022,optionLeft,20,3460,2,25,0,25,0,1,,,,,,,,,,,,,,,,,,,,,,,,,,,,,,,,,,,,,,,
,,,,,,,,2023-08-16_08h57.10.561,HF_wild_card,2022.2.4,Win32,59.79788315,63f78703fbd3a523a963d860,64d2fd46c836a06233681665,64dc813c8bcc148647ade3b4,,,,,,,decisionTrl,resources/DR.BMP,resources/DBN.BMP,Door3,-0.26666661,-0.00462963,1,0,0,1.0193,optionLeft,70,3530,2,26,0,26,0,1,,,,,,,,,,,,,,,,,,,,,,,,,,,,,,,,,,,,,,,
,,,,,,,,2023-08-16_08h57.10.561,HF_wild_card,2022.2.4,Win32,59.79788315,63f78703fbd3a523a963d860,64d2fd46c836a06233681665,64dc813c8bcc148647ade3b4,,,,,,,decisionTrl,resources/DBN.BMP,resources/DR.BMP,Door3,0.339814815,0.016666667,1,0,0,5.1515,optionRight,70,3600,2,27,0,27,0,1,,,,,,,,,,,,,,,,,,,,,,,,,,,,,,,,,,,,,,,
,,,,,,,,2023-08-16_08h57.10.561,HF_wild_card,2022.2.4,Win32,59.79788315,63f78703fbd3a523a963d860,64d2fd46c836a06233681665,64dc813c8bcc148647ade3b4,,,,,,,ctch,resources/DR.BMP,resources/DB.BMP,Door3,-0.296296296,0.037962963,1,0,0,1.3762,optionLeft,70,3670,2,28,0,28,0,1,,,,,,,,,,,,,,,,,,,,,,,,,,,,,,,,,,,,,,,
,,,,,,,,2023-08-16_08h57.10.561,HF_wild_card,2022.2.4,Win32,59.79788315,63f78703fbd3a523a963d860,64d2fd46c836a06233681665,64dc813c8bcc148647ade3b4,,,,,,,decisionTrl,resources/DR.BMP,resources/DBN.BMP,Door3,-0.364814815,0.028703704,1,0,0,0.9913,optionLeft,70,3740,2,29,0,29,0,1,,,,,,,,,,,,,,,,,,,,,,,,,,,,,,,,,,,,,,,
,,,,,,,,2023-08-16_08h57.10.561,HF_wild_card,2022.2.4,Win32,59.79788315,63f78703fbd3a523a963d860,64d2fd46c836a06233681665,64dc813c8bcc148647ade3b4,,,,,,,decisionTrl,resources/DR.BMP,resources/DP.BMP,WildCard_Ex,0.365740741,-0.012037037,1,0,0,1.4407,optionRight,5,3745,2,30,0,30,0,1,,,,,,,,,,,,,,,,,,,,,,,,,,,,,,,,,,,,,,,
,,,,,,,,2023-08-16_08h57.10.561,HF_wild_card,2022.2.4,Win32,59.79788315,63f78703fbd3a523a963d860,64d2fd46c836a06233681665,64dc813c8bcc148647ade3b4,,,,,,,decisionTrl,resources/DY.BMP,resources/DB.BMP,Door2,0.271296296,-0.033333333,1,0,0,1.5106,optionRight,20,3765,2,31,0,31,0,1,,,,,,,,,,,,,,,,,,,,,,,,,,,,,,,,,,,,,,,
,,,,,,,,2023-08-16_08h57.10.561,HF_wild_card,2022.2.4,Win32,59.79788315,63f78703fbd3a523a963d860,64d2fd46c836a06233681665,64dc813c8bcc148647ade3b4,,,,,,,decisionTrl,resources/DP.BMP,resources/DBN.BMP,WildCard_Ex,-0.356481481,-0.001851852,1,0,0,1.0327,optionLeft,95,3860,2,32,0,32,0,1,,,,,,,,,,,,,,,,,,,,,,,,,,,,,,,,,,,,,,,
,,,,,,,,2023-08-16_08h57.10.561,HF_wild_card,2022.2.4,Win32,59.79788315,63f78703fbd3a523a963d860,64d2fd46c836a06233681665,64dc813c8bcc148647ade3b4,,,,,,,sngl,resources/DY.BMP,resources/Empty.png,Door1,-0.362037037,-0.013888889,1,0,0,1.0985,optionLeft,30,3890,2,33,0,33,0,1,,,,,,,,,,,,,,,,,,,,,,,,,,,,,,,,,,,,,,,
,,,,,,,,2023-08-16_08h57.10.561,HF_wild_card,2022.2.4,Win32,59.79788315,63f78703fbd3a523a963d860,64d2fd46c836a06233681665,64dc813c8bcc148647ade3b4,,,,,,,decisionTrl,resources/DBN.BMP,resources/DR.BMP,Door3,0.350926039,-0.023148148,1,0,0,2.1881,optionRight,70,3960,2,34,0,34,0,1,,,,,,,,,,,,,,,,,,,,,,,,,,,,,,,,,,,,,,,
,,,,,,,,2023-08-16_08h57.10.561,HF_wild_card,2022.2.4,Win32,59.79788315,63f78703fbd3a523a963d860,64d2fd46c836a06233681665,64dc813c8bcc148647ade3b4,,,,,,,sngl,resources/DR.BMP,resources/Empty.png,Door3,-0.425925926,0.00462963,1,0,0,1.0073,optionLeft,70,4030,2,35,0,35,0,1,,,,,,,,,,,,,,,,,,,,,,,,,,,,,,,,,,,,,,,
,,,,,,,,2023-08-16_08h57.10.561,HF_wild_card,2022.2.4,Win32,59.79788315,63f78703fbd3a523a963d860,64d2fd46c836a06233681665,64dc813c8bcc148647ade3b4,,,,,,,decisionTrl,resources/DB.BMP,resources/DP.BMP,WildCard_Ex,0.319444444,-0.02037037,1,0,0,1.5348,optionRight,5,4035,2,36,0,36,0,1,,,,,,,,,,,,,,,,,,,,,,,,,,,,,,,,,,,,,,,
,,,,,,,,2023-08-16_08h57.10.561,HF_wild_card,2022.2.4,Win32,59.79788315,63f78703fbd3a523a963d860,64d2fd46c836a06233681665,64dc813c8bcc148647ade3b4,,,,,,,sngl,resources/DP.BMP,resources/Empty.png,WildCard_Ex,-0.346296296,-0.056481481,1,0,0,1.5726,optionLeft,95,4130,2,37,0,37,0,1,,,,,,,,,,,,,,,,,,,,,,,,,,,,,,,,,,,,,,,
,,,,,,,,2023-08-16_08h57.10.561,HF_wild_card,2022.2.4,Win32,59.79788315,63f78703fbd3a523a963d860,64d2fd46c836a06233681665,64dc813c8bcc148647ade3b4,,,,,,,sngl,resources/DBN.BMP,resources/Empty.png,Door4,-0.342592593,0.005555556,1,0,0,1.1636,optionLeft,60,4190,2,38,0,38,0,1,,,,,,,,,,,,,,,,,,,,,,,,,,,,,,,,,,,,,,,
,,,,,,,,2023-08-16_08h57.10.561,HF_wild_card,2022.2.4,Win32,59.79788315,63f78703fbd3a523a963d860,64d2fd46c836a06233681665,64dc813c8bcc148647ade3b4,,,,,,,decisionTrl,resources/DB.BMP,resources/DY.BMP,Door2,-0.280555499,-0.023148148,1,0,0,1.9414,optionLeft,20,4210,2,39,0,39,0,1,,,,,,,,,,,,,,,,,,,,,,,,,,,,,,,,,,,,,,,
,,,,,,,,2023-08-16_08h57.10.561,HF_wild_card,2022.2.4,Win32,59.79788315,63f78703fbd3a523a963d860,64d2fd46c836a06233681665,64dc813c8bcc148647ade3b4,,,,,,,decisionTrl,resources/DP.BMP,resources/DB.BMP,WildCard_Ex,-0.30462963,-0.02962963,1,0,0,0.984,optionLeft,95,4305,2,40,0,40,0,1,,,,,,,,,,,,,,,,,,,,,,,,,,,,,,,,,,,,,,,
,,,,,,,,2023-08-16_08h57.10.561,HF_wild_card,2022.2.4,Win32,59.79788315,63f78703fbd3a523a963d860,64d2fd46c836a06233681665,64dc813c8bcc148647ade3b4,,,,,,,sngl,resources/Empty.png,resources/DP.BMP,WildCard_Ex,0.234259259,-0.021296296,1,0,0,1.2112,optionRight,95,4400,2,41,0,41,0,1,,,,,,,,,,,,,,,,,,,,,,,,,,,,,,,,,,,,,,,
,,,,,,,,2023-08-16_08h57.10.561,HF_wild_card,2022.2.4,Win32,59.79788315,63f78703fbd3a523a963d860,64d2fd46c836a06233681665,64dc813c8bcc148647ade3b4,,,,,,,decisionTrl,resources/DY.BMP,resources/DP.BMP,WildCard_Ex,0.368518519,-0.027777778,1,0,0,1.0296,optionRight,95,4495,2,42,0,42,0,1,,,,,,,,,,,,,,,,,,,,,,,,,,,,,,,,,,,,,,,
,,,,,,,,2023-08-16_08h57.10.561,HF_wild_card,2022.2.4,Win32,59.79788315,63f78703fbd3a523a963d860,64d2fd46c836a06233681665,64dc813c8bcc148647ade3b4,,,,,,,ctch,resources/DBN.BMP,resources/DY.BMP,Door4,-0.291666667,0.035185185,1,0,0,1.2048,optionLeft,80,4575,2,43,0,43,0,1,,,,,,,,,,,,,,,,,,,,,,,,,,,,,,,,,,,,,,,
,,,,,,,,2023-08-16_08h57.10.561,HF_wild_card,2022.2.4,Win32,59.79788315,63f78703fbd3a523a963d860,64d2fd46c836a06233681665,64dc813c8bcc148647ade3b4,,,,,,,,,,,,,,,,,,,,,,,,,,1,0,1,0,1,,,,,,,,,,,,,,,,,,,,,,,,,,,,,,,,,,
,,,,,,,,2023-08-16_08h57.10.561,HF_wild_card,2022.2.4,Win32,59.79788315,63f78703fbd3a523a963d860,64d2fd46c836a06233681665,64dc813c8bcc148647ade3b4,,,,,,,decisionTrl,resources/DP.BMP,resources/DY.BMP,WildCard_Ex,-0.321296296,-0.033333333,1,0,0,2.275,optionLeft,95,4670,3,0,0,0,0,1,,,,,,,,,,,,,,,,,,,,,,,,,,,,,,,,,,,,,,,
,,,,,,,,2023-08-16_08h57.10.561,HF_wild_card,2022.2.4,Win32,59.79788315,63f78703fbd3a523a963d860,64d2fd46c836a06233681665,64dc813c8bcc148647ade3b4,,,,,,,decisionTrl,resources/DBN.BMP,resources/DP.BMP,Door4,-0.350925926,0.00462963,1,0,0,2.3218,optionLeft,80,4750,3,1,0,1,0,1,,,,,,,,,,,,,,,,,,,,,,,,,,,,,,,,,,,,,,,
,,,,,,,,2023-08-16_08h57.10.561,HF_wild_card,2022.2.4,Win32,59.79788315,63f78703fbd3a523a963d860,64d2fd46c836a06233681665,64dc813c8bcc148647ade3b4,,,,,,,decisionTrl,resources/DB.BMP,resources/DY.BMP,Door2,-0.241666667,0.010185185,1,0,0,1.4202,optionLeft,40,4790,3,2,0,2,0,1,,,,,,,,,,,,,,,,,,,,,,,,,,,,,,,,,,,,,,,
,,,,,,,,2023-08-16_08h57.10.561,HF_wild_card,2022.2.4,Win32,59.79788315,63f78703fbd3a523a963d860,64d2fd46c836a06233681665,64dc813c8bcc148647ade3b4,,,,,,,sngl,resources/DBN.BMP,resources/Empty.png,Door4,-0.34537037,0.003703704,1,0,0,1.1977,optionLeft,80,4870,3,3,0,3,0,1,,,,,,,,,,,,,,,,,,,,,,,,,,,,,,,,,,,,,,,
,,,,,,,,2023-08-16_08h57.10.561,HF_wild_card,2022.2.4,Win32,59.79788315,63f78703fbd3a523a963d860,64d2fd46c836a06233681665,64dc813c8bcc148647ade3b4,,,,,,,ctch,resources/DBN.BMP,resources/DY.BMP,Door4,-0.282407407,0.012962963,1,0,0,3.2687,optionLeft,60,4930,3,4,0,4,0,1,,,,,,,,,,,,,,,,,,,,,,,,,,,,,,,,,,,,,,,
,,,,,,,,2023-08-16_08h57.10.561,HF_wild_card,2022.2.4,Win32,59.79788315,63f78703fbd3a523a963d860,64d2fd46c836a06233681665,64dc813c8bcc148647ade3b4,,,,,,,sngl,resources/Empty.png,resources/DR.BMP,Door3,0.384259259,-0.011111111,1,0,0,1.0236,optionRight,70,5000,3,5,0,5,0,1,,,,,,,,,,,,,,,,,,,,,,,,,,,,,,,,,,,,,,,
,,,,,,,,2023-08-16_08h57.10.561,HF_wild_card,2022.2.4,Win32,59.79788315,63f78703fbd3a523a963d860,64d2fd46c836a06233681665,64dc813c8bcc148647ade3b4,,,,,,,sngl,resources/Empty.png,resources/DY.BMP,Door1,0.291666667,-0.022222222,1,0,0,1.0179,optionRight,30,5030,3,6,0,6,0,1,,,,,,,,,,,,,,,,,,,,,,,,,,,,,,,,,,,,,,,
,,,,,,,,2023-08-16_08h57.10.561,HF_wild_card,2022.2.4,Win32,59.79788315,63f78703fbd3a523a963d860,64d2fd46c836a06233681665,64dc813c8bcc148647ade3b4,,,,,,,ctch,resources/DBN.BMP,resources/DY.BMP,Door4,-0.286111111,0.015740741,1,0,0,1.0352,optionLeft,80,5110,3,7,0,7,0,1,,,,,,,,,,,,,,,,,,,,,,,,,,,,,,,,,,,,,,,
,,,,,,,,2023-08-16_08h57.10.561,HF_wild_card,2022.2.4,Win32,59.79788315,63f78703fbd3a523a963d860,64d2fd46c836a06233681665,64dc813c8bcc148647ade3b4,,,,,,,decisionTrl,resources/DP.BMP,resources/DBN.BMP,WildCard_Ex,-0.301851852,-0.012962963,1,0,0,1.0819,optionLeft,5,5115,3,8,0,8,0,1,,,,,,,,,,,,,,,,,,,,,,,,,,,,,,,,,,,,,,,
,,,,,,,,2023-08-16_08h57.10.561,HF_wild_card,2022.2.4,Win32,59.79788315,63f78703fbd3a523a963d860,64d2fd46c836a06233681665,64dc813c8bcc148647ade3b4,,,,,,,sngl,resources/DP.BMP,resources/Empty.png,WildCard_Ex,-0.324074074,-0.005555556,1,0,0,0.8737,optionLeft,5,5120,3,9,0,9,0,1,,,,,,,,,,,,,,,,,,,,,,,,,,,,,,,,,,,,,,,
,,,,,,,,2023-08-16_08h57.10.561,HF_wild_card,2022.2.4,Win32,59.79788315,63f78703fbd3a523a963d860,64d2fd46c836a06233681665,64dc813c8bcc148647ade3b4,,,,,,,decisionTrl,resources/DB.BMP,resources/DY.BMP,Door2,-0.261111111,-0.048148148,1,0,0,1.2368,optionLeft,20,5140,3,10,0,10,0,1,,,,,,,,,,,,,,,,,,,,,,,,,,,,,,,,,,,,,,,
,,,,,,,,2023-08-16_08h57.10.561,HF_wild_card,2022.2.4,Win32,59.79788315,63f78703fbd3a523a963d860,64d2fd46c836a06233681665,64dc813c8bcc148647ade3b4,,,,,,,decisionTrl,resources/DP.BMP,resources/DB.BMP,WildCard_Ex,-0.389814815,-0.017592593,1,0,0,1.0221,optionLeft,95,5235,3,11,0,11,0,1,,,,,,,,,,,,,,,,,,,,,,,,,,,,,,,,,,,,,,,
,,,,,,,,2023-08-16_08h57.10.561,HF_wild_card,2022.2.4,Win32,59.79788315,63f78703fbd3a523a963d860,64d2fd46c836a06233681665,64dc813c8bcc148647ade3b4,,,,,,,decisionTrl,resources/DBN.BMP,resources/DR.BMP,Door3,0.362962963,-0.056481481,1,0,0,1.0367,optionRight,70,5305,3,12,0,12,0,1,,,,,,,,,,,,,,,,,,,,,,,,,,,,,,,,,,,,,,,
,,,,,,,,2023-08-16_08h57.10.561,HF_wild_card,2022.2.4,Win32,59.79788315,63f78703fbd3a523a963d860,64d2fd46c836a06233681665,64dc813c8bcc148647ade3b4,,,,,,,decisionTrl,resources/DP.BMP,resources/DR.BMP,Door3,0.456481481,-0.062037037,1,0,0,1.8476,optionRight,70,5375,3,13,0,13,0,1,,,,,,,,,,,,,,,,,,,,,,,,,,,,,,,,,,,,,,,
,,,,,,,,2023-08-16_08h57.10.561,HF_wild_card,2022.2.4,Win32,59.79788315,63f78703fbd3a523a963d860,64d2fd46c836a06233681665,64dc813c8bcc148647ade3b4,,,,,,,decisionTrl,resources/DBN.BMP,resources/DR.BMP,Door4,-0.286111111,-0.002777778,1,0,0,1.3313,optionLeft,60,5435,3,14,0,14,0,1,,,,,,,,,,,,,,,,,,,,,,,,,,,,,,,,,,,,,,,
,,,,,,,,2023-08-16_08h57.10.561,HF_wild_card,2022.2.4,Win32,59.79788315,63f78703fbd3a523a963d860,64d2fd46c836a06233681665,64dc813c8bcc148647ade3b4,,,,,,,decisionTrl,resources/DY.BMP,resources/DP.BMP,WildCard_Ex,0.347222222,-0.026851852,1,0,0,0.9357,optionRight,5,5440,3,15,0,15,0,1,,,,,,,,,,,,,,,,,,,,,,,,,,,,,,,,,,,,,,,
,,,,,,,,2023-08-16_08h57.10.561,HF_wild_card,2022.2.4,Win32,59.79788315,63f78703fbd3a523a963d860,64d2fd46c836a06233681665,64dc813c8bcc148647ade3b4,,,,,,,decisionTrl,resources/DBN.BMP,resources/DR.BMP,Door3,0.34537037,-0.005555556,1,0,0,0.9298,optionRight,70,5510,3,16,0,16,0,1,,,,,,,,,,,,,,,,,,,,,,,,,,,,,,,,,,,,,,,
,,,,,,,,2023-08-16_08h57.10.561,HF_wild_card,2022.2.4,Win32,59.79788315,63f78703fbd3a523a963d860,64d2fd46c836a06233681665,64dc813c8bcc148647ade3b4,,,,,,,ctch,resources/DR.BMP,resources/DB.BMP,Door3,-0.201851795,-0.009259259,1,0,0,1.2653,optionLeft,70,5580,3,17,0,17,0,1,,,,,,,,,,,,,,,,,,,,,,,,,,,,,,,,,,,,,,,
,,,,,,,,2023-08-16_08h57.10.561,HF_wild_card,2022.2.4,Win32,59.79788315,63f78703fbd3a523a963d860,64d2fd46c836a06233681665,64dc813c8bcc148647ade3b4,,,,,,,decisionTrl,resources/DB.BMP,resources/DY.BMP,Door2,-0.369444444,-0.022222222,1,0,0,1.4895,optionLeft,20,5600,3,18,0,18,0,1,,,,,,,,,,,,,,,,,,,,,,,,,,,,,,,,,,,,,,,
,,,,,,,,2023-08-16_08h57.10.561,HF_wild_card,2022.2.4,Win32,59.79788315,63f78703fbd3a523a963d860,64d2fd46c836a06233681665,64dc813c8bcc148647ade3b4,,,,,,,decisionTrl,resources/DY.BMP,resources/DB.BMP,Door2,0.194444444,-0.037037037,1,0,0,1.5147,optionRight,40,5640,3,19,0,19,0,1,,,,,,,,,,,,,,,,,,,,,,,,,,,,,,,,,,,,,,,
,,,,,,,,2023-08-16_08h57.10.561,HF_wild_card,2022.2.4,Win32,59.79788315,63f78703fbd3a523a963d860,64d2fd46c836a06233681665,64dc813c8bcc148647ade3b4,,,,,,,ctch,resources/DR.BMP,resources/DB.BMP,Door3,-0.321296296,-0.033333333,1,0,0,0.9958,optionLeft,70,5710,3,20,0,20,0,1,,,,,,,,,,,,,,,,,,,,,,,,,,,,,,,,,,,,,,,
,,,,,,,,2023-08-16_08h57.10.561,HF_wild_card,2022.2.4,Win32,59.79788315,63f78703fbd3a523a963d860,64d2fd46c836a06233681665,64dc813c8bcc148647ade3b4,,,,,,,decisionTrl,resources/DY.BMP,resources/DB.BMP,Door2,0.226851852,-0.057407407,1,0,0,1.0343,optionRight,20,5730,3,21,0,21,0,1,,,,,,,,,,,,,,,,,,,,,,,,,,,,,,,,,,,,,,,
,,,,,,,,2023-08-16_08h57.10.561,HF_wild_card,2022.2.4,Win32,59.79788315,63f78703fbd3a523a963d860,64d2fd46c836a06233681665,64dc813c8bcc148647ade3b4,,,,,,,decisionTrl,resources/DR.BMP,resources/DBN.BMP,Door3,-0.27962963,-0.001851852,1,0,0,0.8806,optionLeft,70,5800,3,22,0,22,0,1,,,,,,,,,,,,,,,,,,,,,,,,,,,,,,,,,,,,,,,
,,,,,,,,2023-08-16_08h57.10.561,HF_wild_card,2022.2.4,Win32,59.79788315,63f78703fbd3a523a963d860,64d2fd46c836a06233681665,64dc813c8bcc148647ade3b4,,,,,,,decisionTrl,resources/DR.BMP,resources/DBN.BMP,Door3,-0.339814815,-0.068518519,1,0,0,1.02,optionLeft,70,5870,3,23,0,23,0,1,,,,,,,,,,,,,,,,,,,,,,,,,,,,,,,,,,,,,,,
,,,,,,,,2023-08-16_08h57.10.561,HF_wild_card,2022.2.4,Win32,59.79788315,63f78703fbd3a523a963d860,64d2fd46c836a06233681665,64dc813c8bcc148647ade3b4,,,,,,,ctch,resources/DB.BMP,resources/DR.BMP,Door3,0.297222222,-0.089814815,1,0,0,0.8766,optionRight,70,5940,3,24,0,24,0,1,,,,,,,,,,,,,,,,,,,,,,,,,,,,,,,,,,,,,,,
,,,,,,,,2023-08-16_08h57.10.561,HF_wild_card,2022.2.4,Win32,59.79788315,63f78703fbd3a523a963d860,64d2fd46c836a06233681665,64dc813c8bcc148647ade3b4,,,,,,,decisionTrl,resources/DR.BMP,resources/DBN.BMP,Door3,-0.275925869,-0.046296296,1,0,0,0.9897,optionLeft,70,6010,3,25,0,25,0,1,,,,,,,,,,,,,,,,,,,,,,,,,,,,,,,,,,,,,,,
,,,,,,,,2023-08-16_08h57.10.561,HF_wild_card,2022.2.4,Win32,59.79788315,63f78703fbd3a523a963d860,64d2fd46c836a06233681665,64dc813c8bcc148647ade3b4,,,,,,,sngl,resources/DB.BMP,resources/Empty.png,Door2,-0.367592593,-0.010185185,1,0,0,1.2136,optionLeft,40,6050,3,26,0,26,0,1,,,,,,,,,,,,,,,,,,,,,,,,,,,,,,,,,,,,,,,
,,,,,,,,2023-08-16_08h57.10.561,HF_wild_card,2022.2.4,Win32,59.79788315,63f78703fbd3a523a963d860,64d2fd46c836a06233681665,64dc813c8bcc148647ade3b4,,,,,,,decisionTrl,resources/DY.BMP,resources/DB.BMP,Door2,0.331481481,-0.012962963,1,0,0,1.1578,optionRight,20,6070,3,27,0,27,0,1,,,,,,,,,,,,,,,,,,,,,,,,,,,,,,,,,,,,,,,
,,,,,,,,2023-08-16_08h57.10.561,HF_wild_card,2022.2.4,Win32,59.79788315,63f78703fbd3a523a963d860,64d2fd46c836a06233681665,64dc813c8bcc148647ade3b4,,,,,,,sngl,resources/Empty.png,resources/DBN.BMP,Door4,0.314814815,-0.032407407,1,0,0,0.9159,optionRight,60,6130,3,28,0,28,0,1,,,,,,,,,,,,,,,,,,,,,,,,,,,,,,,,,,,,,,,
,,,,,,,,2023-08-16_08h57.10.561,HF_wild_card,2022.2.4,Win32,59.79788315,63f78703fbd3a523a963d860,64d2fd46c836a06233681665,64dc813c8bcc148647ade3b4,,,,,,,decisionTrl,resources/DR.BMP,resources/DP.BMP,WildCard_Ex,0.237962963,0,1,0,0,1.2974,optionRight,95,6225,3,29,0,29,0,1,,,,,,,,,,,,,,,,,,,,,,,,,,,,,,,,,,,,,,,
,,,,,,,,2023-08-16_08h57.10.561,HF_wild_card,2022.2.4,Win32,59.79788315,63f78703fbd3a523a963d860,64d2fd46c836a06233681665,64dc813c8bcc148647ade3b4,,,,,,,decisionTrl,resources/DY.BMP,resources/DB.BMP,Door1,-0.343518519,-0.017592593,1,0,0,2.8142,optionLeft,30,6255,3,30,0,30,0,1,,,,,,,,,,,,,,,,,,,,,,,,,,,,,,,,,,,,,,,
,,,,,,,,2023-08-16_08h57.10.561,HF_wild_card,2022.2.4,Win32,59.79788315,63f78703fbd3a523a963d860,64d2fd46c836a06233681665,64dc813c8bcc148647ade3b4,,,,,,,ctch,resources/DB.BMP,resources/DR.BMP,Door3,0.358333333,-0.014814815,1,0,0,1.1969,optionRight,70,6325,3,31,0,31,0,1,,,,,,,,,,,,,,,,,,,,,,,,,,,,,,,,,,,,,,,
,,,,,,,,2023-08-16_08h57.10.561,HF_wild_card,2022.2.4,Win32,59.79788315,63f78703fbd3a523a963d860,64d2fd46c836a06233681665,64dc813c8bcc148647ade3b4,,,,,,,sngl,resources/DP.BMP,resources/Empty.png,WildCard_Ex,-0.290740741,-0.00462963,1,0,0,1.1069,optionLeft,95,6420,3,32,0,32,0,1,,,,,,,,,,,,,,,,,,,,,,,,,,,,,,,,,,,,,,,
,,,,,,,,2023-08-16_08h57.10.561,HF_wild_card,2022.2.4,Win32,59.79788315,63f78703fbd3a523a963d860,64d2fd46c836a06233681665,64dc813c8bcc148647ade3b4,,,,,,,sngl,resources/Empty.png,resources/DP.BMP,WildCard_Ex,0.422222222,-0.125925926,1,0,0,1.0045,optionRight,5,6425,3,33,0,33,0,1,,,,,,,,,,,,,,,,,,,,,,,,,,,,,,,,,,,,,,,
,,,,,,,,2023-08-16_08h57.10.561,HF_wild_card,2022.2.4,Win32,59.79788315,63f78703fbd3a523a963d860,64d2fd46c836a06233681665,64dc813c8bcc148647ade3b4,,,,,,,ctch,resources/DY.BMP,resources/DBN.BMP,Door4,0.294444444,-0.068518519,1,0,0,1.7322,optionRight,80,6505,3,34,0,34,0,1,,,,,,,,,,,,,,,,,,,,,,,,,,,,,,,,,,,,,,,
,,,,,,,,2023-08-16_08h57.10.561,HF_wild_card,2022.2.4,Win32,59.79788315,63f78703fbd3a523a963d860,64d2fd46c836a06233681665,64dc813c8bcc148647ade3b4,,,,,,,sngl,resources/Empty.png,resources/DB.BMP,Door2,0.342592593,-0.038888889,1,0,0,0.9151,optionRight,20,6525,3,35,0,35,0,1,,,,,,,,,,,,,,,,,,,,,,,,,,,,,,,,,,,,,,,
,,,,,,,,2023-08-16_08h57.10.561,HF_wild_card,2022.2.4,Win32,59.79788315,63f78703fbd3a523a963d860,64d2fd46c836a06233681665,64dc813c8bcc148647ade3b4,,,,,,,ctch,resources/DY.BMP,resources/DBN.BMP,Door4,0.27037037,-0.019444444,1,0,0,1.6967,optionRight,80,6605,3,36,0,36,0,1,,,,,,,,,,,,,,,,,,,,,,,,,,,,,,,,,,,,,,,
,,,,,,,,2023-08-16_08h57.10.561,HF_wild_card,2022.2.4,Win32,59.79788315,63f78703fbd3a523a963d860,64d2fd46c836a06233681665,64dc813c8bcc148647ade3b4,,,,,,,decisionTrl,resources/DBN.BMP,resources/DR.BMP,Door3,0.309259372,-0.024074074,1,0,0,1.29,optionRight,70,6675,3,37,0,37,0,1,,,,,,,,,,,,,,,,,,,,,,,,,,,,,,,,,,,,,,,
,,,,,,,,2023-08-16_08h57.10.561,HF_wild_card,2022.2.4,Win32,59.79788315,63f78703fbd3a523a963d860,64d2fd46c836a06233681665,64dc813c8bcc148647ade3b4,,,,,,,decisionTrl,resources/DB.BMP,resources/DP.BMP,WildCard_Ex,0.378703817,-0.065740741,1,0,0,1.6077,optionRight,95,6770,3,38,0,38,0,1,,,,,,,,,,,,,,,,,,,,,,,,,,,,,,,,,,,,,,,
,,,,,,,,2023-08-16_08h57.10.561,HF_wild_card,2022.2.4,Win32,59.79788315,63f78703fbd3a523a963d860,64d2fd46c836a06233681665,64dc813c8bcc148647ade3b4,,,,,,,sngl,resources/DR.BMP,resources/Empty.png,Door3,-0.26666661,0.021296296,1,0,0,1.0477,optionLeft,70,6840,3,39,0,39,0,1,,,,,,,,,,,,,,,,,,,,,,,,,,,,,,,,,,,,,,,
,,,,,,,,2023-08-16_08h57.10.561,HF_wild_card,2022.2.4,Win32,59.79788315,63f78703fbd3a523a963d860,64d2fd46c836a06233681665,64dc813c8bcc148647ade3b4,,,,,,,decisionTrl,resources/DR.BMP,resources/DBN.BMP,Door4,0.338888889,-0.041666667,1,0,0,2.578,optionRight,80,6920,3,40,0,40,0,1,,,,,,,,,,,,,,,,,,,,,,,,,,,,,,,,,,,,,,,
,,,,,,,,2023-08-16_08h57.10.561,HF_wild_card,2022.2.4,Win32,59.79788315,63f78703fbd3a523a963d860,64d2fd46c836a06233681665,64dc813c8bcc148647ade3b4,,,,,,,sngl,resources/DY.BMP,resources/Empty.png,Door1,-0.198148148,-0.007407407,1,0,0,1.2651,optionLeft,30,6950,3,41,0,41,0,1,,,,,,,,,,,,,,,,,,,,,,,,,,,,,,,,,,,,,,,
,,,,,,,,2023-08-16_08h57.10.561,HF_wild_card,2022.2.4,Win32,59.79788315,63f78703fbd3a523a963d860,64d2fd46c836a06233681665,64dc813c8bcc148647ade3b4,,,,,,,sngl,resources/Empty.png,resources/DP.BMP,WildCard_Ex,0.324074074,-0.015740741,1,0,0,1.0156,optionRight,95,7045,3,42,0,42,0,1,,,,,,,,,,,,,,,,,,,,,,,,,,,,,,,,,,,,,,,
,,,,,,,,2023-08-16_08h57.10.561,HF_wild_card,2022.2.4,Win32,59.79788315,63f78703fbd3a523a963d860,64d2fd46c836a06233681665,64dc813c8bcc148647ade3b4,,,,,,,decisionTrl,resources/DB.BMP,resources/DY.BMP,Door2,-0.293518519,-0.007407407,1,0,0,1.7095,optionLeft,40,7085,3,43,0,43,0,1,,,,,,,,,,,,,,,,,,,,,,,,,,,,,,,,,,,,,,,
,,,,,,,,2023-08-16_08h57.10.561,HF_wild_card,2022.2.4,Win32,59.79788315,63f78703fbd3a523a963d860,64d2fd46c836a06233681665,64dc813c8bcc148647ade3b4,,,,,,,,,,,,,,,,,,,,,,,,,,2,0,2,0,1,,,,,,,,,,,,,,,,,,,,,,,,,,,,,,,,,,
,,,,,,,,2023-08-16_08h57.10.561,HF_wild_card,2022.2.4,Win32,59.79788315,63f78703fbd3a523a963d860,64d2fd46c836a06233681665,64dc813c8bcc148647ade3b4,,,,,,,decisionTrl,resources/DBN.BMP,resources/DR.BMP,Door3,0.312037037,-0.089814815,1,0,0,1.2644,optionRight,70,7155,4,0,0,0,0,1,,,,,,,,,,,,,,,,,,,,,,,,,,,,,,,,,,,,,,,
,,,,,,,,2023-08-16_08h57.10.561,HF_wild_card,2022.2.4,Win32,59.79788315,63f78703fbd3a523a963d860,64d2fd46c836a06233681665,64dc813c8bcc148647ade3b4,,,,,,,decisionTrl,resources/DBN.BMP,resources/DG.BMP,WildCard_NonEx,0.287962963,-0.039814815,1,0,0,1.2262,optionRight,55,7210,4,1,0,1,0,1,,,,,,,,,,,,,,,,,,,,,,,,,,,,,,,,,,,,,,,
,,,,,,,,2023-08-16_08h57.10.561,HF_wild_card,2022.2.4,Win32,59.79788315,63f78703fbd3a523a963d860,64d2fd46c836a06233681665,64dc813c8bcc148647ade3b4,,,,,,,decisionTrl,resources/DY.BMP,resources/DB.BMP,Door2,0.25462963,-0.026851852,1,0,0,1.2413,optionRight,40,7250,4,2,0,2,0,1,,,,,,,,,,,,,,,,,,,,,,,,,,,,,,,,,,,,,,,
,,,,,,,,2023-08-16_08h57.10.561,HF_wild_card,2022.2.4,Win32,59.79788315,63f78703fbd3a523a963d860,64d2fd46c836a06233681665,64dc813c8bcc148647ade3b4,,,,,,,decisionTrl,resources/DB.BMP,resources/DY.BMP,Door2,-0.263888889,0.014814815,1,0,0,1.4304,optionLeft,20,7270,4,3,0,3,0,1,,,,,,,,,,,,,,,,,,,,,,,,,,,,,,,,,,,,,,,
,,,,,,,,2023-08-16_08h57.10.561,HF_wild_card,2022.2.4,Win32,59.79788315,63f78703fbd3a523a963d860,64d2fd46c836a06233681665,64dc813c8bcc148647ade3b4,,,,,,,sngl,resources/DG.BMP,resources/Empty.png,WildCard_NonEx,-0.3,0.015740741,1,0,0,0.956,optionLeft,45,7315,4,4,0,4,0,1,,,,,,,,,,,,,,,,,,,,,,,,,,,,,,,,,,,,,,,
,,,,,,,,2023-08-16_08h57.10.561,HF_wild_card,2022.2.4,Win32,59.79788315,63f78703fbd3a523a963d860,64d2fd46c836a06233681665,64dc813c8bcc148647ade3b4,,,,,,,sngl,resources/Empty.png,resources/DG.BMP,WildCard_NonEx,0.310185185,0,1,0,0,0.9586,optionRight,55,7370,4,5,0,5,0,1,,,,,,,,,,,,,,,,,,,,,,,,,,,,,,,,,,,,,,,
,,,,,,,,2023-08-16_08h57.10.561,HF_wild_card,2022.2.4,Win32,59.79788315,63f78703fbd3a523a963d860,64d2fd46c836a06233681665,64dc813c8bcc148647ade3b4,,,,,,,decisionTrl,resources/DBN.BMP,resources/DR.BMP,Door3,0.25,-0.000925926,1,0,0,1.0311,optionRight,70,7440,4,6,0,6,0,1,,,,,,,,,,,,,,,,,,,,,,,,,,,,,,,,,,,,,,,
,,,,,,,,2023-08-16_08h57.10.561,HF_wild_card,2022.2.4,Win32,59.79788315,63f78703fbd3a523a963d860,64d2fd46c836a06233681665,64dc813c8bcc148647ade3b4,,,,,,,ctch,resources/DB.BMP,resources/DR.BMP,Door3,0.322222222,-0.032407407,1,0,0,1.6428,optionRight,70,7510,4,7,0,7,0,1,,,,,,,,,,,,,,,,,,,,,,,,,,,,,,,,,,,,,,,
,,,,,,,,2023-08-16_08h57.10.561,HF_wild_card,2022.2.4,Win32,59.79788315,63f78703fbd3a523a963d860,64d2fd46c836a06233681665,64dc813c8bcc148647ade3b4,,,,,,,decisionTrl,resources/DB.BMP,resources/DY.BMP,Door2,-0.267592593,-0.002777778,1,0,0,1.8685,optionLeft,40,7550,4,8,0,8,0,1,,,,,,,,,,,,,,,,,,,,,,,,,,,,,,,,,,,,,,,
,,,,,,,,2023-08-16_08h57.10.561,HF_wild_card,2022.2.4,Win32,59.79788315,63f78703fbd3a523a963d860,64d2fd46c836a06233681665,64dc813c8bcc148647ade3b4,,,,,,,ctch,resources/DBN.BMP,resources/DY.BMP,Door4,-0.211111055,-0.026851852,1,0,0,1.2626,optionLeft,80,7630,4,9,0,9,0,1,,,,,,,,,,,,,,,,,,,,,,,,,,,,,,,,,,,,,,,
,,,,,,,,2023-08-16_08h57.10.561,HF_wild_card,2022.2.4,Win32,59.79788315,63f78703fbd3a523a963d860,64d2fd46c836a06233681665,64dc813c8bcc148647ade3b4,,,,,,,sngl,resources/Empty.png,resources/DG.BMP,WildCard_NonEx,0.303703704,-0.00462963,1,0,0,1.2619,optionRight,45,7675,4,10,0,10,0,1,,,,,,,,,,,,,,,,,,,,,,,,,,,,,,,,,,,,,,,
,,,,,,,,2023-08-16_08h57.10.561,HF_wild_card,2022.2.4,Win32,59.79788315,63f78703fbd3a523a963d860,64d2fd46c836a06233681665,64dc813c8bcc148647ade3b4,,,,,,,ctch,resources/DB.BMP,resources/DR.BMP,Door3,0.398148148,-0.008333333,1,0,0,1.4075,optionRight,70,7745,4,11,0,11,0,1,,,,,,,,,,,,,,,,,,,,,,,,,,,,,,,,,,,,,,,
,,,,,,,,2023-08-16_08h57.10.561,HF_wild_card,2022.2.4,Win32,59.79788315,63f78703fbd3a523a963d860,64d2fd46c836a06233681665,64dc813c8bcc148647ade3b4,,,,,,,decisionTrl,resources/DR.BMP,resources/DBN.BMP,Door4,0.401851965,-0.012037037,1,0,0,1.1931,optionRight,80,7825,4,12,0,12,0,1,,,,,,,,,,,,,,,,,,,,,,,,,,,,,,,,,,,,,,,
,,,,,,,,2023-08-16_08h57.10.561,HF_wild_card,2022.2.4,Win32,59.79788315,63f78703fbd3a523a963d860,64d2fd46c836a06233681665,64dc813c8bcc148647ade3b4,,,,,,,sngl,resources/Empty.png,resources/DB.BMP,Door2,0.244444444,-0.013888889,1,0,0,1.096,optionRight,40,7865,4,13,0,13,0,1,,,,,,,,,,,,,,,,,,,,,,,,,,,,,,,,,,,,,,,
,,,,,,,,2023-08-16_08h57.10.561,HF_wild_card,2022.2.4,Win32,59.79788315,63f78703fbd3a523a963d860,64d2fd46c836a06233681665,64dc813c8bcc148647ade3b4,,,,,,,sngl,resources/DG.BMP,resources/Empty.png,WildCard_NonEx,-0.261111111,0.014814815,1,0,0,1.0139,optionLeft,55,7920,4,14,0,14,0,1,,,,,,,,,,,,,,,,,,,,,,,,,,,,,,,,,,,,,,,
,,,,,,,,2023-08-16_08h57.10.561,HF_wild_card,2022.2.4,Win32,59.79788315,63f78703fbd3a523a963d860,64d2fd46c836a06233681665,64dc813c8bcc148647ade3b4,,,,,,,sngl,resources/Empty.png,resources/DBN.BMP,Door4,0.337962963,-0.011111111,1,0,0,1.0591,optionRight,80,8000,4,15,0,15,0,1,,,,,,,,,,,,,,,,,,,,,,,,,,,,,,,,,,,,,,,
,,,,,,,,2023-08-16_08h57.10.561,HF_wild_card,2022.2.4,Win32,59.79788315,63f78703fbd3a523a963d860,64d2fd46c836a06233681665,64dc813c8bcc148647ade3b4,,,,,,,sngl,resources/DBN.BMP,resources/Empty.png,Door4,-0.27037037,-0.025,1,0,0,1.0471,optionLeft,60,8060,4,16,0,16,0,1,,,,,,,,,,,,,,,,,,,,,,,,,,,,,,,,,,,,,,,
,,,,,,,,2023-08-16_08h57.10.561,HF_wild_card,2022.2.4,Win32,59.79788315,63f78703fbd3a523a963d860,64d2fd46c836a06233681665,64dc813c8bcc148647ade3b4,,,,,,,decisionTrl,resources/DG.BMP,resources/DR.BMP,Door3,0.219444444,-0.023148148,1,0,0,1.444,optionRight,70,8130,4,17,0,17,0,1,,,,,,,,,,,,,,,,,,,,,,,,,,,,,,,,,,,,,,,
,,,,,,,,2023-08-16_08h57.10.561,HF_wild_card,2022.2.4,Win32,59.79788315,63f78703fbd3a523a963d860,64d2fd46c836a06233681665,64dc813c8bcc148647ade3b4,,,,,,,decisionTrl,resources/DB.BMP,resources/DY.BMP,Door1,0.246296296,-0.011111111,1,0,0,2.2034,optionRight,30,8160,4,18,0,18,0,1,,,,,,,,,,,,,,,,,,,,,,,,,,,,,,,,,,,,,,,
,,,,,,,,2023-08-16_08h57.10.561,HF_wild_card,2022.2.4,Win32,59.79788315,63f78703fbd3a523a963d860,64d2fd46c836a06233681665,64dc813c8bcc148647ade3b4,,,,,,,decisionTrl,resources/DY.BMP,resources/DG.BMP,WildCard_NonEx,0.365740741,0.003703704,1,0,0,1.8204,optionRight,45,8205,4,19,0,19,0,1,,,,,,,,,,,,,,,,,,,,,,,,,,,,,,,,,,,,,,,
,,,,,,,,2023-08-16_08h57.10.561,HF_wild_card,2022.2.4,Win32,59.79788315,63f78703fbd3a523a963d860,64d2fd46c836a06233681665,64dc813c8bcc148647ade3b4,,,,,,,decisionTrl,resources/DG.BMP,resources/DY.BMP,Door1,0.224074074,-0.031481481,1,0,0,1.5874,optionRight,30,8235,4,20,0,20,0,1,,,,,,,,,,,,,,,,,,,,,,,,,,,,,,,,,,,,,,,
,,,,,,,,2023-08-16_08h57.10.561,HF_wild_card,2022.2.4,Win32,59.79788315,63f78703fbd3a523a963d860,64d2fd46c836a06233681665,64dc813c8bcc148647ade3b4,,,,,,,decisionTrl,resources/DR.BMP,resources/DBN.BMP,Door4,0.336111111,-0.000925926,1,0,0,2.2342,optionRight,60,8295,4,21,0,21,0,1,,,,,,,,,,,,,,,,,,,,,,,,,,,,,,,,,,,,,,,
,,,,,,,,2023-08-16_08h57.10.561,HF_wild_card,2022.2.4,Win32,59.79788315,63f78703fbd3a523a963d860,64d2fd46c836a06233681665,64dc813c8bcc148647ade3b4,,,,,,,decisionTrl,resources/DBN.BMP,resources/DR.BMP,Door3,0.350926039,-0.07962963,1,0,0,1.4295,optionRight,70,8365,4,22,0,22,0,1,,,,,,,,,,,,,,,,,,,,,,,,,,,,,,,,,,,,,,,
,,,,,,,,2023-08-16_08h57.10.561,HF_wild_card,2022.2.4,Win32,59.79788315,63f78703fbd3a523a963d860,64d2fd46c836a06233681665,64dc813c8bcc148647ade3b4,,,,,,,sngl,resources/DR.BMP,resources/Empty.png,Door3,-0.309259259,0.018518519,1,0,0,0.9439,optionLeft,70,8435,4,23,0,23,0,1,,,,,,,,,,,,,,,,,,,,,,,,,,,,,,,,,,,,,,,
,,,,,,,,2023-08-16_08h57.10.561,HF_wild_card,2022.2.4,Win32,59.79788315,63f78703fbd3a523a963d860,64d2fd46c836a06233681665,64dc813c8bcc148647ade3b4,,,,,,,ctch,resources/DR.BMP,resources/DB.BMP,Door3,-0.262962963,0.010185185,1,0,0,1.3452,optionLeft,70,8505,4,24,0,24,0,1,,,,,,,,,,,,,,,,,,,,,,,,,,,,,,,,,,,,,,,
,,,,,,,,2023-08-16_08h57.10.561,HF_wild_card,2022.2.4,Win32,59.79788315,63f78703fbd3a523a963d860,64d2fd46c836a06233681665,64dc813c8bcc148647ade3b4,,,,,,,sngl,resources/DB.BMP,resources/Empty.png,Door2,-0.15462963,-0.008333333,1,0,0,1.4311,optionLeft,20,8525,4,25,0,25,0,1,,,,,,,,,,,,,,,,,,,,,,,,,,,,,,,,,,,,,,,
,,,,,,,,2023-08-16_08h57.10.561,HF_wild_card,2022.2.4,Win32,59.79788315,63f78703fbd3a523a963d860,64d2fd46c836a06233681665,64dc813c8bcc148647ade3b4,,,,,,,decisionTrl,resources/DY.BMP,resources/DB.BMP,Door2,0.289814815,-0.000925926,1,0,0,10.5854,optionRight,40,8565,4,26,0,26,0,1,,,,,,,,,,,,,,,,,,,,,,,,,,,,,,,,,,,,,,,
,,,,,,,,2023-08-16_08h57.10.561,HF_wild_card,2022.2.4,Win32,59.79788315,63f78703fbd3a523a963d860,64d2fd46c836a06233681665,64dc813c8bcc148647ade3b4,,,,,,,sngl,resources/DY.BMP,resources/Empty.png,Door1,-0.136111111,0.011111111,1,0,0,1.2974,optionLeft,30,8595,4,27,0,27,0,1,,,,,,,,,,,,,,,,,,,,,,,,,,,,,,,,,,,,,,,
,,,,,,,,2023-08-16_08h57.10.561,HF_wild_card,2022.2.4,Win32,59.79788315,63f78703fbd3a523a963d860,64d2fd46c836a06233681665,64dc813c8bcc148647ade3b4,,,,,,,decisionTrl,resources/DR.BMP,resources/DG.BMP,Door3,-0.235185185,-0.010185185,1,0,0,1.2526,optionLeft,70,8665,4,28,0,28,0,1,,,,,,,,,,,,,,,,,,,,,,,,,,,,,,,,,,,,,,,
,,,,,,,,2023-08-16_08h57.10.561,HF_wild_card,2022.2.4,Win32,59.79788315,63f78703fbd3a523a963d860,64d2fd46c836a06233681665,64dc813c8bcc148647ade3b4,,,,,,,ctch,resources/DR.BMP,resources/DB.BMP,Door3,-0.300925926,0.000925926,1,0,0,1.0851,optionLeft,70,8735,4,29,0,29,0,1,,,,,,,,,,,,,,,,,,,,,,,,,,,,,,,,,,,,,,,
,,,,,,,,2023-08-16_08h57.10.561,HF_wild_card,2022.2.4,Win32,59.79788315,63f78703fbd3a523a963d860,64d2fd46c836a06233681665,64dc813c8bcc148647ade3b4,,,,,,,decisionTrl,resources/DB.BMP,resources/DY.BMP,Door2,-0.32037037,0.001851852,1,0,0,1.3053,optionLeft,20,8755,4,30,0,30,0,1,,,,,,,,,,,,,,,,,,,,,,,,,,,,,,,,,,,,,,,
,,,,,,,,2023-08-16_08h57.10.561,HF_wild_card,2022.2.4,Win32,59.79788315,63f78703fbd3a523a963d860,64d2fd46c836a06233681665,64dc813c8bcc148647ade3b4,,,,,,,decisionTrl,resources/DG.BMP,resources/DB.BMP,Door2,0.219444444,-0.008333333,1,0,0,2.3494,optionRight,20,8775,4,31,0,31,0,1,,,,,,,,,,,,,,,,,,,,,,,,,,,,,,,,,,,,,,,
,,,,,,,,2023-08-16_08h57.10.561,HF_wild_card,2022.2.4,Win32,59.79788315,63f78703fbd3a523a963d860,64d2fd46c836a06233681665,64dc813c8bcc148647ade3b4,,,,,,,decisionTrl,resources/DBN.BMP,resources/DR.BMP,Door4,-0.331481481,0.044444444,1,0,0,1.3879,optionLeft,80,8855,4,32,0,32,0,1,,,,,,,,,,,,,,,,,,,,,,,,,,,,,,,,,,,,,,,
,,,,,,,,2023-08-16_08h57.10.561,HF_wild_card,2022.2.4,Win32,59.79788315,63f78703fbd3a523a963d860,64d2fd46c836a06233681665,64dc813c8bcc148647ade3b4,,,,,,,decisionTrl,resources/DG.BMP,resources/DBN.BMP,Door4,0.307407407,0.005555556,1,0,0,1.5233,optionRight,60,8915,4,33,0,33,0,1,,,,,,,,,,,,,,,,,,,,,,,,,,,,,,,,,,,,,,,
,,,,,,,,2023-08-16_08h57.10.561,HF_wild_card,2022.2.4,Win32,59.79788315,63f78703fbd3a523a963d860,64d2fd46c836a06233681665,64dc813c8bcc148647ade3b4,,,,,,,decisionTrl,resources/DR.BMP,resources/DBN.BMP,Door4,0.300000113,0.024074074,1,0,0,1.7551,optionRight,80,8995,4,34,0,34,0,1,,,,,,,,,,,,,,,,,,,,,,,,,,,,,,,,,,,,,,,
,,,,,,,,2023-08-16_08h57.10.561,HF_wild_card,2022.2.4,Win32,59.79788315,63f78703fbd3a523a963d860,64d2fd46c836a06233681665,64dc813c8bcc148647ade3b4,,,,,,,decisionTrl,resources/DR.BMP,resources/DBN.BMP,Door3,-0.374074074,-0.035185185,1,0,0,2.305,optionLeft,70,9065,4,35,0,35,0,1,,,,,,,,,,,,,,,,,,,,,,,,,,,,,,,,,,,,,,,
,,,,,,,,2023-08-16_08h57.10.561,HF_wild_card,2022.2.4,Win32,59.79788315,63f78703fbd3a523a963d860,64d2fd46c836a06233681665,64dc813c8bcc148647ade3b4,,,,,,,ctch,resources/DY.BMP,resources/DBN.BMP,Door4,0.307407407,0.040740712,1,0,0,1.485,optionRight,60,9125,4,36,0,36,0,1,,,,,,,,,,,,,,,,,,,,,,,,,,,,,,,,,,,,,,,
,,,,,,,,2023-08-16_08h57.10.561,HF_wild_card,2022.2.4,Win32,59.79788315,63f78703fbd3a523a963d860,64d2fd46c836a06233681665,64dc813c8bcc148647ade3b4,,,,,,,sngl,resources/Empty.png,resources/DR.BMP,Door3,0.366666667,-0.005555556,1,0,0,0.9143,optionRight,70,9195,4,37,0,37,0,1,,,,,,,,,,,,,,,,,,,,,,,,,,,,,,,,,,,,,,,
,,,,,,,,2023-08-16_08h57.10.561,HF_wild_card,2022.2.4,Win32,59.79788315,63f78703fbd3a523a963d860,64d2fd46c836a06233681665,64dc813c8bcc148647ade3b4,,,,,,,decisionTrl,resources/DY.BMP,resources/DB.BMP,Door2,0.299074074,-0.019444444,1,0,0,1.4649,optionRight,20,9215,4,38,0,38,0,1,,,,,,,,,,,,,,,,,,,,,,,,,,,,,,,,,,,,,,,
,,,,,,,,2023-08-16_08h57.10.561,HF_wild_card,2022.2.4,Win32,59.79788315,63f78703fbd3a523a963d860,64d2fd46c836a06233681665,64dc813c8bcc148647ade3b4,,,,,,,decisionTrl,resources/DY.BMP,resources/DB.BMP,Door2,0.319444444,-0.062962963,1,0,0,1.12,optionRight,20,9235,4,39,0,39,0,1,,,,,,,,,,,,,,,,,,,,,,,,,,,,,,,,,,,,,,,
,,,,,,,,2023-08-16_08h57.10.561,HF_wild_card,2022.2.4,Win32,59.79788315,63f78703fbd3a523a963d860,64d2fd46c836a06233681665,64dc813c8bcc148647ade3b4,,,,,,,ctch,resources/DBN.BMP,resources/DY.BMP,Door4,-0.26666661,0.017592593,1,0,0,1.198,optionLeft,60,9295,4,40,0,40,0,1,,,,,,,,,,,,,,,,,,,,,,,,,,,,,,,,,,,,,,,
,,,,,,,,2023-08-16_08h57.10.561,HF_wild_card,2022.2.4,Win32,59.79788315,63f78703fbd3a523a963d860,64d2fd46c836a06233681665,64dc813c8bcc148647ade3b4,,,,,,,ctch,resources/DY.BMP,resources/DBN.BMP,Door4,0.361111111,0.016666667,1,0,0,1.0806,optionRight,60,9355,4,41,0,41,0,1,,,,,,,,,,,,,,,,,,,,,,,,,,,,,,,,,,,,,,,
,,,,,,,,2023-08-16_08h57.10.561,HF_wild_card,2022.2.4,Win32,59.79788315,63f78703fbd3a523a963d860,64d2fd46c836a06233681665,64dc813c8bcc148647ade3b4,,,,,,,sngl,resources/Empty.png,resources/DY.BMP,Door1,0.585185185,0.021296296,1,0,0,1.2881,optionRight,30,9385,4,42,0,42,0,1,,,,,,,,,,,,,,,,,,,,,,,,,,,,,,,,,,,,,,,
,,,,,,,,2023-08-16_08h57.10.561,HF_wild_card,2022.2.4,Win32,59.79788315,63f78703fbd3a523a963d860,64d2fd46c836a06233681665,64dc813c8bcc148647ade3b4,,,,,,,decisionTrl,resources/DB.BMP,resources/DG.BMP,WildCard_NonEx,0.385185185,-0.008333333,1,0,0,2.2254,optionRight,45,9430,4,43,0,43,0,1,,,,,,,,,,,,,,,,,,,,,,,,,,,,,,,,,,,,,,,
,,,,,,,,2023-08-16_08h57.10.561,HF_wild_card,2022.2.4,Win32,59.79788315,63f78703fbd3a523a963d860,64d2fd46c836a06233681665,64dc813c8bcc148647ade3b4,,,,,,,,,,,,,,,,,,,,,,,,,,3,0,3,0,1,,,,,,,,,,,,,,,,,,,,,,,,,,,,,,,,,,
,,,,,,,,2023-08-16_08h57.10.561,HF_wild_card,2022.2.4,Win32,59.79788315,63f78703fbd3a523a963d860,64d2fd46c836a06233681665,64dc813c8bcc148647ade3b4,,,,,,,ctch,resources/DR.BMP,resources/DB.BMP,Door3,-0.305555556,0.034259259,1,0,0,1.6822,optionLeft,70,9500,5,0,0,0,0,1,,,,,,,,,,,,,,,,,,,,,,,,,,,,,,,,,,,,,,,
,,,,,,,,2023-08-16_08h57.10.561,HF_wild_card,2022.2.4,Win32,59.79788315,63f78703fbd3a523a963d860,64d2fd46c836a06233681665,64dc813c8bcc148647ade3b4,,,,,,,decisionTrl,resources/DY.BMP,resources/DB.BMP,Door1,-0.300925926,0.042592593,1,0,0,2.615,optionLeft,30,9530,5,1,0,1,0,1,,,,,,,,,,,,,,,,,,,,,,,,,,,,,,,,,,,,,,,
,,,,,,,,2023-08-16_08h57.10.561,HF_wild_card,2022.2.4,Win32,59.79788315,63f78703fbd3a523a963d860,64d2fd46c836a06233681665,64dc813c8bcc148647ade3b4,,,,,,,ctch,resources/DB.BMP,resources/DR.BMP,Door3,0.225,-0.07037037,1,0,0,0.9543,optionRight,70,9600,5,2,0,2,0,1,,,,,,,,,,,,,,,,,,,,,,,,,,,,,,,,,,,,,,,
,,,,,,,,2023-08-16_08h57.10.561,HF_wild_card,2022.2.4,Win32,59.79788315,63f78703fbd3a523a963d860,64d2fd46c836a06233681665,64dc813c8bcc148647ade3b4,,,,,,,decisionTrl,resources/DR.BMP,resources/DBN.BMP,Door4,0.335185185,-0.040740741,1,0,0,1.1467,optionRight,80,9680,5,3,0,3,0,1,,,,,,,,,,,,,,,,,,,,,,,,,,,,,,,,,,,,,,,
,,,,,,,,2023-08-16_08h57.10.561,HF_wild_card,2022.2.4,Win32,59.79788315,63f78703fbd3a523a963d860,64d2fd46c836a06233681665,64dc813c8bcc148647ade3b4,,,,,,,ctch,resources/DBN.BMP,resources/DY.BMP,Door4,-0.327777778,0.022222222,1,0,0,1.0308,optionLeft,80,9760,5,4,0,4,0,1,,,,,,,,,,,,,,,,,,,,,,,,,,,,,,,,,,,,,,,
,,,,,,,,2023-08-16_08h57.10.561,HF_wild_card,2022.2.4,Win32,59.79788315,63f78703fbd3a523a963d860,64d2fd46c836a06233681665,64dc813c8bcc148647ade3b4,,,,,,,decisionTrl,resources/DY.BMP,resources/DB.BMP,Door2,0.2,-0.036111111,1,0,0,1.6044,optionRight,40,9800,5,5,0,5,0,1,,,,,,,,,,,,,,,,,,,,,,,,,,,,,,,,,,,,,,,
,,,,,,,,2023-08-16_08h57.10.561,HF_wild_card,2022.2.4,Win32,59.79788315,63f78703fbd3a523a963d860,64d2fd46c836a06233681665,64dc813c8bcc148647ade3b4,,,,,,,sngl,resources/Empty.png,resources/DY.BMP,Door1,0.364814928,-0.099074131,1,0,0,0.9643,optionRight,30,9830,5,6,0,6,0,1,,,,,,,,,,,,,,,,,,,,,,,,,,,,,,,,,,,,,,,
,,,,,,,,2023-08-16_08h57.10.561,HF_wild_card,2022.2.4,Win32,59.79788315,63f78703fbd3a523a963d860,64d2fd46c836a06233681665,64dc813c8bcc148647ade3b4,,,,,,,sngl,resources/DB.BMP,resources/Empty.png,Door2,-0.287962963,0.000925926,1,0,0,0.9241,optionLeft,40,9870,5,7,0,7,0,1,,,,,,,,,,,,,,,,,,,,,,,,,,,,,,,,,,,,,,,
,,,,,,,,2023-08-16_08h57.10.561,HF_wild_card,2022.2.4,Win32,59.79788315,63f78703fbd3a523a963d860,64d2fd46c836a06233681665,64dc813c8bcc148647ade3b4,,,,,,,sngl,resources/DR.BMP,resources/Empty.png,Door3,-0.296296296,0.008333333,1,0,0,0.93,optionLeft,70,9940,5,8,0,8,0,1,,,,,,,,,,,,,,,,,,,,,,,,,,,,,,,,,,,,,,,
,,,,,,,,2023-08-16_08h57.10.561,HF_wild_card,2022.2.4,Win32,59.79788315,63f78703fbd3a523a963d860,64d2fd46c836a06233681665,64dc813c8bcc148647ade3b4,,,,,,,ctch,resources/DB.BMP,resources/DR.BMP,Door3,0.423148148,-0.042592593,1,0,0,0.8873,optionRight,70,10010,5,9,0,9,0,1,,,,,,,,,,,,,,,,,,,,,,,,,,,,,,,,,,,,,,,
,,,,,,,,2023-08-16_08h57.10.561,HF_wild_card,2022.2.4,Win32,59.79788315,63f78703fbd3a523a963d860,64d2fd46c836a06233681665,64dc813c8bcc148647ade3b4,,,,,,,decisionTrl,resources/DB.BMP,resources/DY.BMP,Door2,-0.306481481,-0.002777778,1,0,0,1.1758,optionLeft,40,10050,5,10,0,10,0,1,,,,,,,,,,,,,,,,,,,,,,,,,,,,,,,,,,,,,,,
,,,,,,,,2023-08-16_08h57.10.561,HF_wild_card,2022.2.4,Win32,59.79788315,63f78703fbd3a523a963d860,64d2fd46c836a06233681665,64dc813c8bcc148647ade3b4,,,,,,,sngl,resources/DBN.BMP,resources/Empty.png,Door4,-0.374074074,0.037962963,1,0,0,0.9668,optionLeft,80,10130,5,11,0,11,0,1,,,,,,,,,,,,,,,,,,,,,,,,,,,,,,,,,,,,,,,
,,,,,,,,2023-08-16_08h57.10.561,HF_wild_card,2022.2.4,Win32,59.79788315,63f78703fbd3a523a963d860,64d2fd46c836a06233681665,64dc813c8bcc148647ade3b4,,,,,,,decisionTrl,resources/DBN.BMP,resources/DG.BMP,Door4,-0.307407407,0.031481453,1,0,0,1.0821,optionLeft,60,10190,5,12,0,12,0,1,,,,,,,,,,,,,,,,,,,,,,,,,,,,,,,,,,,,,,,
,,,,,,,,2023-08-16_08h57.10.561,HF_wild_card,2022.2.4,Win32,59.79788315,63f78703fbd3a523a963d860,64d2fd46c836a06233681665,64dc813c8bcc148647ade3b4,,,,,,,ctch,resources/DY.BMP,resources/DBN.BMP,Door4,0.276851852,-0.012962963,1,0,0,0.957,optionRight,60,10250,5,13,0,13,0,1,,,,,,,,,,,,,,,,,,,,,,,,,,,,,,,,,,,,,,,
,,,,,,,,2023-08-16_08h57.10.561,HF_wild_card,2022.2.4,Win32,59.79788315,63f78703fbd3a523a963d860,64d2fd46c836a06233681665,64dc813c8bcc148647ade3b4,,,,,,,sngl,resources/Empty.png,resources/DG.BMP,WildCard_NonEx,0.360185298,-0.028703704,1,0,0,0.8619,optionRight,45,10295,5,14,0,14,0,1,,,,,,,,,,,,,,,,,,,,,,,,,,,,,,,,,,,,,,,
,,,,,,,,2023-08-16_08h57.10.561,HF_wild_card,2022.2.4,Win32,59.79788315,63f78703fbd3a523a963d860,64d2fd46c836a06233681665,64dc813c8bcc148647ade3b4,,,,,,,decisionTrl,resources/DR.BMP,resources/DBN.BMP,Door4,0.400925926,-0.015740741,1,0,0,1.7071,optionRight,80,10375,5,15,0,15,0,1,,,,,,,,,,,,,,,,,,,,,,,,,,,,,,,,,,,,,,,
,,,,,,,,2023-08-16_08h57.10.561,HF_wild_card,2022.2.4,Win32,59.79788315,63f78703fbd3a523a963d860,64d2fd46c836a06233681665,64dc813c8bcc148647ade3b4,,,,,,,decisionTrl,resources/DG.BMP,resources/DY.BMP,WildCard_NonEx,-0.231481481,0.021296296,1,0,0,1.3324,optionLeft,45,10420,5,16,0,16,0,1,,,,,,,,,,,,,,,,,,,,,,,,,,,,,,,,,,,,,,,
,,,,,,,,2023-08-16_08h57.10.561,HF_wild_card,2022.2.4,Win32,59.79788315,63f78703fbd3a523a963d860,64d2fd46c836a06233681665,64dc813c8bcc148647ade3b4,,,,,,,decisionTrl,resources/DG.BMP,resources/DBN.BMP,Door4,0.334259259,0.012037037,1,0,0,0.9071,optionRight,60,10480,5,17,0,17,0,1,,,,,,,,,,,,,,,,,,,,,,,,,,,,,,,,,,,,,,,
,,,,,,,,2023-08-16_08h57.10.561,HF_wild_card,2022.2.4,Win32,59.79788315,63f78703fbd3a523a963d860,64d2fd46c836a06233681665,64dc813c8bcc148647ade3b4,,,,,,,decisionTrl,resources/DB.BMP,resources/DY.BMP,Door2,-0.176851852,0.028703704,1,0,0,1.3132,optionLeft,40,10520,5,18,0,18,0,1,,,,,,,,,,,,,,,,,,,,,,,,,,,,,,,,,,,,,,,
,,,,,,,,2023-08-16_08h57.10.561,HF_wild_card,2022.2.4,Win32,59.79788315,63f78703fbd3a523a963d860,64d2fd46c836a06233681665,64dc813c8bcc148647ade3b4,,,,,,,decisionTrl,resources/DBN.BMP,resources/DR.BMP,Door4,-0.249074074,0.041666667,1,0,0,2.0372,optionLeft,80,10600,5,19,0,19,0,1,,,,,,,,,,,,,,,,,,,,,,,,,,,,,,,,,,,,,,,
,,,,,,,,2023-08-16_08h57.10.561,HF_wild_card,2022.2.4,Win32,59.79788315,63f78703fbd3a523a963d860,64d2fd46c836a06233681665,64dc813c8bcc148647ade3b4,,,,,,,decisionTrl,resources/DBN.BMP,resources/DR.BMP,Door4,-0.322222222,0.00462963,1,0,0,1.4401,optionLeft,80,10680,5,20,0,20,0,1,,,,,,,,,,,,,,,,,,,,,,,,,,,,,,,,,,,,,,,
,,,,,,,,2023-08-16_08h57.10.561,HF_wild_card,2022.2.4,Win32,59.79788315,63f78703fbd3a523a963d860,64d2fd46c836a06233681665,64dc813c8bcc148647ade3b4,,,,,,,sngl,resources/Empty.png,resources/DG.BMP,WildCard_NonEx,0.260185185,-0.013888889,1,0,0,1.0225,optionRight,55,10735,5,21,0,21,0,1,,,,,,,,,,,,,,,,,,,,,,,,,,,,,,,,,,,,,,,
,,,,,,,,2023-08-16_08h57.10.561,HF_wild_card,2022.2.4,Win32,59.79788315,63f78703fbd3a523a963d860,64d2fd46c836a06233681665,64dc813c8bcc148647ade3b4,,,,,,,sngl,resources/DG.BMP,resources/Empty.png,WildCard_NonEx,-0.323148148,0.000925926,1,0,0,0.9611,optionLeft,45,10780,5,22,0,22,0,1,,,,,,,,,,,,,,,,,,,,,,,,,,,,,,,,,,,,,,,
,,,,,,,,2023-08-16_08h57.10.561,HF_wild_card,2022.2.4,Win32,59.79788315,63f78703fbd3a523a963d860,64d2fd46c836a06233681665,64dc813c8bcc148647ade3b4,,,,,,,decisionTrl,resources/DBN.BMP,resources/DR.BMP,Door4,-0.327777778,0.010185185,1,0,0,1.6977,optionLeft,60,10840,5,23,0,23,0,1,,,,,,,,,,,,,,,,,,,,,,,,,,,,,,,,,,,,,,,
,,,,,,,,2023-08-16_08h57.10.561,HF_wild_card,2022.2.4,Win32,59.79788315,63f78703fbd3a523a963d860,64d2fd46c836a06233681665,64dc813c8bcc148647ade3b4,,,,,,,sngl,resources/DG.BMP,resources/Empty.png,WildCard_NonEx,-0.280555499,0.02962963,1,0,0,0.993,optionLeft,55,10895,5,24,0,24,0,1,,,,,,,,,,,,,,,,,,,,,,,,,,,,,,,,,,,,,,,
,,,,,,,,2023-08-16_08h57.10.561,HF_wild_card,2022.2.4,Win32,59.79788315,63f78703fbd3a523a963d860,64d2fd46c836a06233681665,64dc813c8bcc148647ade3b4,,,,,,,decisionTrl,resources/DR.BMP,resources/DG.BMP,Door3,-0.27037037,-0.002777778,1,0,0,1.0673,optionLeft,70,10965,5,25,0,25,0,1,,,,,,,,,,,,,,,,,,,,,,,,,,,,,,,,,,,,,,,
,,,,,,,,2023-08-16_08h57.10.561,HF_wild_card,2022.2.4,Win32,59.79788315,63f78703fbd3a523a963d860,64d2fd46c836a06233681665,64dc813c8bcc148647ade3b4,,,,,,,decisionTrl,resources/DG.BMP,resources/DB.BMP,WildCard_NonEx,-0.275,0.017592593,1,0,0,1.769,optionLeft,45,11010,5,26,0,26,0,1,,,,,,,,,,,,,,,,,,,,,,,,,,,,,,,,,,,,,,,
,,,,,,,,2023-08-16_08h57.10.561,HF_wild_card,2022.2.4,Win32,59.79788315,63f78703fbd3a523a963d860,64d2fd46c836a06233681665,64dc813c8bcc148647ade3b4,,,,,,,decisionTrl,resources/DBN.BMP,resources/DR.BMP,Door4,-0.375925926,0.018518519,1,0,0,3.8456,optionLeft,80,11090,5,27,0,27,0,1,,,,,,,,,,,,,,,,,,,,,,,,,,,,,,,,,,,,,,,
,,,,,,,,2023-08-16_08h57.10.561,HF_wild_card,2022.2.4,Win32,59.79788315,63f78703fbd3a523a963d860,64d2fd46c836a06233681665,64dc813c8bcc148647ade3b4,,,,,,,decisionTrl,resources/DB.BMP,resources/DY.BMP,Door2,-0.257407351,0.026851824,1,0,0,1.6312,optionLeft,40,11130,5,28,0,28,0,1,,,,,,,,,,,,,,,,,,,,,,,,,,,,,,,,,,,,,,,
,,,,,,,,2023-08-16_08h57.10.561,HF_wild_card,2022.2.4,Win32,59.79788315,63f78703fbd3a523a963d860,64d2fd46c836a06233681665,64dc813c8bcc148647ade3b4,,,,,,,decisionTrl,resources/DY.BMP,resources/DB.BMP,Door2,0.159259259,-0.016666667,1,0,0,1.6299,optionRight,40,11170,5,29,0,29,0,1,,,,,,,,,,,,,,,,,,,,,,,,,,,,,,,,,,,,,,,
,,,,,,,,2023-08-16_08h57.10.561,HF_wild_card,2022.2.4,Win32,59.79788315,63f78703fbd3a523a963d860,64d2fd46c836a06233681665,64dc813c8bcc148647ade3b4,,,,,,,decisionTrl,resources/DG.BMP,resources/DR.BMP,Door3,0.290740741,-0.048148148,1,0,0,1.2154,optionRight,70,11240,5,30,0,30,0,1,,,,,,,,,,,,,,,,,,,,,,,,,,,,,,,,,,,,,,,
,,,,,,,,2023-08-16_08h57.10.561,HF_wild_card,2022.2.4,Win32,59.79788315,63f78703fbd3a523a963d860,64d2fd46c836a06233681665,64dc813c8bcc148647ade3b4,,,,,,,ctch,resources/DR.BMP,resources/DB.BMP,Door3,-0.313888889,-0.043518519,1,0,0,0.9803,optionLeft,70,11310,5,31,0,31,0,1,,,,,,,,,,,,,,,,,,,,,,,,,,,,,,,,,,,,,,,
,,,,,,,,2023-08-16_08h57.10.561,HF_wild_card,2022.2.4,Win32,59.79788315,63f78703fbd3a523a963d860,64d2fd46c836a06233681665,64dc813c8bcc148647ade3b4,,,,,,,decisionTrl,resources/DR.BMP,resources/DBN.BMP,Door4,0.347222222,-0.025925926,1,0,0,1.1974,optionRight,60,11370,5,32,0,32,0,1,,,,,,,,,,,,,,,,,,,,,,,,,,,,,,,,,,,,,,,
,,,,,,,,2023-08-16_08h57.10.561,HF_wild_card,2022.2.4,Win32,59.79788315,63f78703fbd3a523a963d860,64d2fd46c836a06233681665,64dc813c8bcc148647ade3b4,,,,,,,ctch,resources/DY.BMP,resources/DBN.BMP,Door4,0.511111111,0.024074074,1,0,0,0.8179,optionRight,80,11450,5,33,0,33,0,1,,,,,,,,,,,,,,,,,,,,,,,,,,,,,,,,,,,,,,,
,,,,,,,,2023-08-16_08h57.10.561,HF_wild_card,2022.2.4,Win32,59.79788315,63f78703fbd3a523a963d860,64d2fd46c836a06233681665,64dc813c8bcc148647ade3b4,,,,,,,decisionTrl,resources/DY.BMP,resources/DB.BMP,Door2,0.225925926,-0.042592593,1,0,0,7.2702,optionRight,20,11470,5,34,0,34,0,1,,,,,,,,,,,,,,,,,,,,,,,,,,,,,,,,,,,,,,,
,,,,,,,,2023-08-16_08h57.10.561,HF_wild_card,2022.2.4,Win32,59.79788315,63f78703fbd3a523a963d860,64d2fd46c836a06233681665,64dc813c8bcc148647ade3b4,,,,,,,sngl,resources/Empty.png,resources/DR.BMP,Door3,0.344444444,-0.012037037,1,0,0,0.9244,optionRight,70,11540,5,35,0,35,0,1,,,,,,,,,,,,,,,,,,,,,,,,,,,,,,,,,,,,,,,
,,,,,,,,2023-08-16_08h57.10.561,HF_wild_card,2022.2.4,Win32,59.79788315,63f78703fbd3a523a963d860,64d2fd46c836a06233681665,64dc813c8bcc148647ade3b4,,,,,,,decisionTrl,resources/DY.BMP,resources/DG.BMP,WildCard_NonEx,0.380555556,-0.025,1,0,0,0.8822,optionRight,45,11585,5,36,0,36,0,1,,,,,,,,,,,,,,,,,,,,,,,,,,,,,,,,,,,,,,,
,,,,,,,,2023-08-16_08h57.10.561,HF_wild_card,2022.2.4,Win32,59.79788315,63f78703fbd3a523a963d860,64d2fd46c836a06233681665,64dc813c8bcc148647ade3b4,,,,,,,sngl,resources/DY.BMP,resources/Empty.png,Door1,-0.247222222,0.013888889,1,0,0,0.8507,optionLeft,30,11615,5,37,0,37,0,1,,,,,,,,,,,,,,,,,,,,,,,,,,,,,,,,,,,,,,,
,,,,,,,,2023-08-16_08h57.10.561,HF_wild_card,2022.2.4,Win32,59.79788315,63f78703fbd3a523a963d860,64d2fd46c836a06233681665,64dc813c8bcc148647ade3b4,,,,,,,decisionTrl,resources/DB.BMP,resources/DY.BMP,Door2,-0.122222222,0.008333333,1,0,0,2.0061,optionLeft,40,11655,5,38,0,38,0,1,,,,,,,,,,,,,,,,,,,,,,,,,,,,,,,,,,,,,,,
,,,,,,,,2023-08-16_08h57.10.561,HF_wild_card,2022.2.4,Win32,59.79788315,63f78703fbd3a523a963d860,64d2fd46c836a06233681665,64dc813c8bcc148647ade3b4,,,,,,,decisionTrl,resources/DR.BMP,resources/DBN.BMP,Door4,0.339814815,0.037962963,1,0,0,1.6725,optionRight,60,11715,5,39,0,39,0,1,,,,,,,,,,,,,,,,,,,,,,,,,,,,,,,,,,,,,,,
,,,,,,,,2023-08-16_08h57.10.561,HF_wild_card,2022.2.4,Win32,59.79788315,63f78703fbd3a523a963d860,64d2fd46c836a06233681665,64dc813c8bcc148647ade3b4,,,,,,,sngl,resources/Empty.png,resources/DBN.BMP,Door4,0.331481481,0.02037037,1,0,0,0.8717,optionRight,60,11775,5,40,0,40,0,1,,,,,,,,,,,,,,,,,,,,,,,,,,,,,,,,,,,,,,,
,,,,,,,,2023-08-16_08h57.10.561,HF_wild_card,2022.2.4,Win32,59.79788315,63f78703fbd3a523a963d860,64d2fd46c836a06233681665,64dc813c8bcc148647ade3b4,,,,,,,decisionTrl,resources/DB.BMP,resources/DG.BMP,WildCard_NonEx,0.413888889,-0.017592593,1,0,0,2.2185,optionRight,45,11820,5,41,0,41,0,1,,,,,,,,,,,,,,,,,,,,,,,,,,,,,,,,,,,,,,,
,,,,,,,,2023-08-16_08h57.10.561,HF_wild_card,2022.2.4,Win32,59.79788315,63f78703fbd3a523a963d860,64d2fd46c836a06233681665,64dc813c8bcc148647ade3b4,,,,,,,ctch,resources/DBN.BMP,resources/DY.BMP,Door4,-0.30462963,0.037962963,1,0,0,0.9822,optionLeft,80,11900,5,42,0,42,0,1,,,,,,,,,,,,,,,,,,,,,,,,,,,,,,,,,,,,,,,
,,,,,,,,2023-08-16_08h57.10.561,HF_wild_card,2022.2.4,Win32,59.79788315,63f78703fbd3a523a963d860,64d2fd46c836a06233681665,64dc813c8bcc148647ade3b4,,,,,,,sngl,resources/Empty.png,resources/DB.BMP,Door2,0.37962963,0.003703704,1,0,0,0.9658,optionRight,20,11920,5,43,0,43,0,1,,,,,,,,,,,,,,,,,,,,,,,,,,,,,,,,,,,,,,,
,,,,,,,,2023-08-16_08h57.10.561,HF_wild_card,2022.2.4,Win32,59.79788315,63f78703fbd3a523a963d860,64d2fd46c836a06233681665,64dc813c8bcc148647ade3b4,,,,,,,,,,,,,,,,,,,,,,,,,,4,0,4,0,1,,,,,,,,,,,,,,,,,,,,,,,,,,,,,,,,,,
,,,,,,,,2023-08-16_08h57.10.561,HF_wild_card,2022.2.4,Win32,59.79788315,63f78703fbd3a523a963d860,64d2fd46c836a06233681665,64dc813c8bcc148647ade3b4,,,,,,,ctch,resources/DY.BMP,resources/DBN.BMP,Door4,0.459259259,-0.071296296,1,0,0,0.9365,optionRight,60,11980,6,0,0,0,0,1,,,,,,,,,,,,,,,,,,,,,,,,,,,,,,,,,,,,,,,
,,,,,,,,2023-08-16_08h57.10.561,HF_wild_card,2022.2.4,Win32,59.79788315,63f78703fbd3a523a963d860,64d2fd46c836a06233681665,64dc813c8bcc148647ade3b4,,,,,,,ctch,resources/DB.BMP,resources/DR.BMP,Door3,0.336111111,-0.034259259,1,0,0,1.0599,optionRight,70,12050,6,1,0,1,0,1,,,,,,,,,,,,,,,,,,,,,,,,,,,,,,,,,,,,,,,
,,,,,,,,2023-08-16_08h57.10.561,HF_wild_card,2022.2.4,Win32,59.79788315,63f78703fbd3a523a963d860,64d2fd46c836a06233681665,64dc813c8bcc148647ade3b4,,,,,,,sngl,resources/DR.BMP,resources/Empty.png,Door3,-0.224074074,0.013888889,1,0,0,0.9713,optionLeft,70,12120,6,2,0,2,0,1,,,,,,,,,,,,,,,,,,,,,,,,,,,,,,,,,,,,,,,
,,,,,,,,2023-08-16_08h57.10.561,HF_wild_card,2022.2.4,Win32,59.79788315,63f78703fbd3a523a963d860,64d2fd46c836a06233681665,64dc813c8bcc148647ade3b4,,,,,,,ctch,resources/DR.BMP,resources/DB.BMP,Door3,-0.387962963,0.040740712,1,0,0,0.93,optionLeft,70,12190,6,3,0,3,0,1,,,,,,,,,,,,,,,,,,,,,,,,,,,,,,,,,,,,,,,
,,,,,,,,2023-08-16_08h57.10.561,HF_wild_card,2022.2.4,Win32,59.79788315,63f78703fbd3a523a963d860,64d2fd46c836a06233681665,64dc813c8bcc148647ade3b4,,,,,,,sngl,resources/Empty.png,resources/DR.BMP,Door3,0.338888889,-0.025,1,0,0,0.879,optionRight,70,12260,6,4,0,4,0,1,,,,,,,,,,,,,,,,,,,,,,,,,,,,,,,,,,,,,,,
,,,,,,,,2023-08-16_08h57.10.561,HF_wild_card,2022.2.4,Win32,59.79788315,63f78703fbd3a523a963d860,64d2fd46c836a06233681665,64dc813c8bcc148647ade3b4,,,,,,,sngl,resources/Empty.png,resources/DBN.BMP,Door4,0.333333333,-0.012037037,1,0,0,1.0032,optionRight,80,12340,6,5,0,5,0,1,,,,,,,,,,,,,,,,,,,,,,,,,,,,,,,,,,,,,,,
,,,,,,,,2023-08-16_08h57.10.561,HF_wild_card,2022.2.4,Win32,59.79788315,63f78703fbd3a523a963d860,64d2fd46c836a06233681665,64dc813c8bcc148647ade3b4,,,,,,,ctch,resources/DBN.BMP,resources/DY.BMP,Door4,-0.328703704,0.030555556,1,0,0,0.9972,optionLeft,60,12400,6,6,0,6,0,1,,,,,,,,,,,,,,,,,,,,,,,,,,,,,,,,,,,,,,,
,,,,,,,,2023-08-16_08h57.10.561,HF_wild_card,2022.2.4,Win32,59.79788315,63f78703fbd3a523a963d860,64d2fd46c836a06233681665,64dc813c8bcc148647ade3b4,,,,,,,sngl,resources/DY.BMP,resources/Empty.png,Door1,-0.269444444,0.072222222,1,0,0,1.0869,optionLeft,30,12430,6,7,0,7,0,1,,,,,,,,,,,,,,,,,,,,,,,,,,,,,,,,,,,,,,,
,,,,,,,,2023-08-16_08h57.10.561,HF_wild_card,2022.2.4,Win32,59.79788315,63f78703fbd3a523a963d860,64d2fd46c836a06233681665,64dc813c8bcc148647ade3b4,,,,,,,sngl,resources/DBN.BMP,resources/Empty.png,Door4,-0.366666667,0.059259231,1,0,0,0.8864,optionLeft,60,12490,6,8,0,8,0,1,,,,,,,,,,,,,,,,,,,,,,,,,,,,,,,,,,,,,,,
,,,,,,,,2023-08-16_08h57.10.561,HF_wild_card,2022.2.4,Win32,59.79788315,63f78703fbd3a523a963d860,64d2fd46c836a06233681665,64dc813c8bcc148647ade3b4,,,,,,,decisionTrl,resources/DY.BMP,resources/DB.BMP,Door2,0.316666667,-0.003703704,1,0,0,1.4985,optionRight,40,12530,6,9,0,9,0,1,,,,,,,,,,,,,,,,,,,,,,,,,,,,,,,,,,,,,,,
,,,,,,,,2023-08-16_08h57.10.561,HF_wild_card,2022.2.4,Win32,59.79788315,63f78703fbd3a523a963d860,64d2fd46c836a06233681665,64dc813c8bcc148647ade3b4,,,,,,,decisionTrl,resources/DB.BMP,resources/DY.BMP,Door2,-0.244444444,0.075,1,0,0,1.9302,optionLeft,40,12570,6,10,0,10,0,1,,,,,,,,,,,,,,,,,,,,,,,,,,,,,,,,,,,,,,,
,,,,,,,,2023-08-16_08h57.10.561,HF_wild_card,2022.2.4,Win32,59.79788315,63f78703fbd3a523a963d860,64d2fd46c836a06233681665,64dc813c8bcc148647ade3b4,,,,,,,decisionTrl,resources/DBN.BMP,resources/DR.BMP,Door4,-0.367592593,0.075,1,0,0,1.0662,optionLeft,80,12650,6,11,0,11,0,1,,,,,,,,,,,,,,,,,,,,,,,,,,,,,,,,,,,,,,,
,,,,,,,,2023-08-16_08h57.10.561,HF_wild_card,2022.2.4,Win32,59.79788315,63f78703fbd3a523a963d860,64d2fd46c836a06233681665,64dc813c8bcc148647ade3b4,,,,,,,ctch,resources/DR.BMP,resources/DB.BMP,Door3,-0.286111111,0.048148148,1,0,0,0.9222,optionLeft,70,12720,6,12,0,12,0,1,,,,,,,,,,,,,,,,,,,,,,,,,,,,,,,,,,,,,,,
,,,,,,,,2023-08-16_08h57.10.561,HF_wild_card,2022.2.4,Win32,59.79788315,63f78703fbd3a523a963d860,64d2fd46c836a06233681665,64dc813c8bcc148647ade3b4,,,,,,,decisionTrl,resources/DBN.BMP,resources/DG.BMP,Door4,-0.350925926,0.045370342,1,0,0,1.1326,optionLeft,60,12780,6,13,0,13,0,1,,,,,,,,,,,,,,,,,,,,,,,,,,,,,,,,,,,,,,,
,,,,,,,,2023-08-16_08h57.10.561,HF_wild_card,2022.2.4,Win32,59.79788315,63f78703fbd3a523a963d860,64d2fd46c836a06233681665,64dc813c8bcc148647ade3b4,,,,,,,decisionTrl,resources/DB.BMP,resources/DY.BMP,Door2,-0.229629573,0.009259259,1,0,0,1.6811,optionLeft,20,12800,6,14,0,14,0,1,,,,,,,,,,,,,,,,,,,,,,,,,,,,,,,,,,,,,,,
,,,,,,,,2023-08-16_08h57.10.561,HF_wild_card,2022.2.4,Win32,59.79788315,63f78703fbd3a523a963d860,64d2fd46c836a06233681665,64dc813c8bcc148647ade3b4,,,,,,,sngl,resources/Empty.png,resources/DY.BMP,Door1,0.290740741,-0.023148148,1,0,0,1.5481,optionRight,30,12830,6,15,0,15,0,1,,,,,,,,,,,,,,,,,,,,,,,,,,,,,,,,,,,,,,,
,,,,,,,,2023-08-16_08h57.10.561,HF_wild_card,2022.2.4,Win32,59.79788315,63f78703fbd3a523a963d860,64d2fd46c836a06233681665,64dc813c8bcc148647ade3b4,,,,,,,decisionTrl,resources/DG.BMP,resources/DY.BMP,WildCard_NonEx,-0.283333333,0.011111111,1,0,0,1.0825,optionLeft,45,12875,6,16,0,16,0,1,,,,,,,,,,,,,,,,,,,,,,,,,,,,,,,,,,,,,,,
,,,,,,,,2023-08-16_08h57.10.561,HF_wild_card,2022.2.4,Win32,59.79788315,63f78703fbd3a523a963d860,64d2fd46c836a06233681665,64dc813c8bcc148647ade3b4,,,,,,,decisionTrl,resources/DG.BMP,resources/DR.BMP,Door3,0.411111224,-0.089814815,1,0,0,1.6978,optionRight,70,12945,6,17,0,17,0,1,,,,,,,,,,,,,,,,,,,,,,,,,,,,,,,,,,,,,,,
,,,,,,,,2023-08-16_08h57.10.561,HF_wild_card,2022.2.4,Win32,59.79788315,63f78703fbd3a523a963d860,64d2fd46c836a06233681665,64dc813c8bcc148647ade3b4,,,,,,,sngl,resources/Empty.png,resources/DG.BMP,WildCard_NonEx,0.261111111,-0.028703704,1,0,0,0.8193,optionRight,45,12990,6,18,0,18,0,1,,,,,,,,,,,,,,,,,,,,,,,,,,,,,,,,,,,,,,,
,,,,,,,,2023-08-16_08h57.10.561,HF_wild_card,2022.2.4,Win32,59.79788315,63f78703fbd3a523a963d860,64d2fd46c836a06233681665,64dc813c8bcc148647ade3b4,,,,,,,decisionTrl,resources/DB.BMP,resources/DY.BMP,Door2,-0.253703704,0.035185185,1,0,0,1.381,optionLeft,40,13030,6,19,0,19,0,1,,,,,,,,,,,,,,,,,,,,,,,,,,,,,,,,,,,,,,,
,,,,,,,,2023-08-16_08h57.10.561,HF_wild_card,2022.2.4,Win32,59.79788315,63f78703fbd3a523a963d860,64d2fd46c836a06233681665,64dc813c8bcc148647ade3b4,,,,,,,decisionTrl,resources/DR.BMP,resources/DG.BMP,Door3,-0.291666667,0.002777778,1,0,0,1.1128,optionLeft,70,13100,6,20,0,20,0,1,,,,,,,,,,,,,,,,,,,,,,,,,,,,,,,,,,,,,,,
,,,,,,,,2023-08-16_08h57.10.561,HF_wild_card,2022.2.4,Win32,59.79788315,63f78703fbd3a523a963d860,64d2fd46c836a06233681665,64dc813c8bcc148647ade3b4,,,,,,,sngl,resources/DG.BMP,resources/Empty.png,WildCard_NonEx,-0.355555556,0.016666667,1,0,0,0.9376,optionLeft,45,13145,6,21,0,21,0,1,,,,,,,,,,,,,,,,,,,,,,,,,,,,,,,,,,,,,,,
,,,,,,,,2023-08-16_08h57.10.561,HF_wild_card,2022.2.4,Win32,59.79788315,63f78703fbd3a523a963d860,64d2fd46c836a06233681665,64dc813c8bcc148647ade3b4,,,,,,,decisionTrl,resources/DY.BMP,resources/DB.BMP,Door2,0.316666667,-0.075,1,0,0,1.1564,optionRight,40,13185,6,22,0,22,0,1,,,,,,,,,,,,,,,,,,,,,,,,,,,,,,,,,,,,,,,
,,,,,,,,2023-08-16_08h57.10.561,HF_wild_card,2022.2.4,Win32,59.79788315,63f78703fbd3a523a963d860,64d2fd46c836a06233681665,64dc813c8bcc148647ade3b4,,,,,,,decisionTrl,resources/DY.BMP,resources/DB.BMP,Door2,0.234259259,0.000925926,1,0,0,1.4984,optionRight,40,13225,6,23,0,23,0,1,,,,,,,,,,,,,,,,,,,,,,,,,,,,,,,,,,,,,,,
,,,,,,,,2023-08-16_08h57.10.561,HF_wild_card,2022.2.4,Win32,59.79788315,63f78703fbd3a523a963d860,64d2fd46c836a06233681665,64dc813c8bcc148647ade3b4,,,,,,,decisionTrl,resources/DBN.BMP,resources/DR.BMP,Door3,0.322222222,-0.04537037,1,0,0,0.9913,optionRight,70,13295,6,24,0,24,0,1,,,,,,,,,,,,,,,,,,,,,,,,,,,,,,,,,,,,,,,
,,,,,,,,2023-08-16_08h57.10.561,HF_wild_card,2022.2.4,Win32,59.79788315,63f78703fbd3a523a963d860,64d2fd46c836a06233681665,64dc813c8bcc148647ade3b4,,,,,,,sngl,resources/DG.BMP,resources/Empty.png,WildCard_NonEx,-0.274074074,0.016666667,1,0,0,0.9077,optionLeft,55,13350,6,25,0,25,0,1,,,,,,,,,,,,,,,,,,,,,,,,,,,,,,,,,,,,,,,
,,,,,,,,2023-08-16_08h57.10.561,HF_wild_card,2022.2.4,Win32,59.79788315,63f78703fbd3a523a963d860,64d2fd46c836a06233681665,64dc813c8bcc148647ade3b4,,,,,,,sngl,resources/Empty.png,resources/DB.BMP,Door2,0.301851852,-0.063888889,1,0,0,0.8901,optionRight,40,13390,6,26,0,26,0,1,,,,,,,,,,,,,,,,,,,,,,,,,,,,,,,,,,,,,,,
,,,,,,,,2023-08-16_08h57.10.561,HF_wild_card,2022.2.4,Win32,59.79788315,63f78703fbd3a523a963d860,64d2fd46c836a06233681665,64dc813c8bcc148647ade3b4,,,,,,,decisionTrl,resources/DR.BMP,resources/DBN.BMP,Door4,0.334259259,-0.051851852,1,0,0,1.3141,optionRight,60,13450,6,27,0,27,0,1,,,,,,,,,,,,,,,,,,,,,,,,,,,,,,,,,,,,,,,
,,,,,,,,2023-08-16_08h57.10.561,HF_wild_card,2022.2.4,Win32,59.79788315,63f78703fbd3a523a963d860,64d2fd46c836a06233681665,64dc813c8bcc148647ade3b4,,,,,,,sngl,resources/DB.BMP,resources/Empty.png,Door2,-0.20462963,0.031481453,1,0,0,1.0245,optionLeft,20,13470,6,28,0,28,0,1,,,,,,,,,,,,,,,,,,,,,,,,,,,,,,,,,,,,,,,
,,,,,,,,2023-08-16_08h57.10.561,HF_wild_card,2022.2.4,Win32,59.79788315,63f78703fbd3a523a963d860,64d2fd46c836a06233681665,64dc813c8bcc148647ade3b4,,,,,,,ctch,resources/DY.BMP,resources/DBN.BMP,Door4,0.468518519,-0.098148148,1,0,0,0.9827,optionRight,80,13550,6,29,0,29,0,1,,,,,,,,,,,,,,,,,,,,,,,,,,,,,,,,,,,,,,,
,,,,,,,,2023-08-16_08h57.10.561,HF_wild_card,2022.2.4,Win32,59.79788315,63f78703fbd3a523a963d860,64d2fd46c836a06233681665,64dc813c8bcc148647ade3b4,,,,,,,decisionTrl,resources/DB.BMP,resources/DG.BMP,Door2,-0.256481481,-0.024074074,1,0,0,1.9157,optionLeft,40,13590,6,30,0,30,0,1,,,,,,,,,,,,,,,,,,,,,,,,,,,,,,,,,,,,,,,
,,,,,,,,2023-08-16_08h57.10.561,HF_wild_card,2022.2.4,Win32,59.79788315,63f78703fbd3a523a963d860,64d2fd46c836a06233681665,64dc813c8bcc148647ade3b4,,,,,,,decisionTrl,resources/DB.BMP,resources/DY.BMP,Door2,-0.207407407,0.001851852,1,0,0,1.2167,optionLeft,20,13610,6,31,0,31,0,1,,,,,,,,,,,,,,,,,,,,,,,,,,,,,,,,,,,,,,,
,,,,,,,,2023-08-16_08h57.10.561,HF_wild_card,2022.2.4,Win32,59.79788315,63f78703fbd3a523a963d860,64d2fd46c836a06233681665,64dc813c8bcc148647ade3b4,,,,,,,decisionTrl,resources/DBN.BMP,resources/DR.BMP,Door4,-0.453703704,-0.009259259,1,0,0,1.3638,optionLeft,60,13670,6,32,0,32,0,1,,,,,,,,,,,,,,,,,,,,,,,,,,,,,,,,,,,,,,,
,,,,,,,,2023-08-16_08h57.10.561,HF_wild_card,2022.2.4,Win32,59.79788315,63f78703fbd3a523a963d860,64d2fd46c836a06233681665,64dc813c8bcc148647ade3b4,,,,,,,decisionTrl,resources/DR.BMP,resources/DBN.BMP,Door4,0.300000113,0.003703704,1,0,0,1.2922,optionRight,80,13750,6,33,0,33,0,1,,,,,,,,,,,,,,,,,,,,,,,,,,,,,,,,,,,,,,,
,,,,,,,,2023-08-16_08h57.10.561,HF_wild_card,2022.2.4,Win32,59.79788315,63f78703fbd3a523a963d860,64d2fd46c836a06233681665,64dc813c8bcc148647ade3b4,,,,,,,decisionTrl,resources/DY.BMP,resources/DG.BMP,WildCard_NonEx,0.353703704,-0.025,1,0,0,1.4707,optionRight,55,13805,6,34,0,34,0,1,,,,,,,,,,,,,,,,,,,,,,,,,,,,,,,,,,,,,,,
,,,,,,,,2023-08-16_08h57.10.561,HF_wild_card,2022.2.4,Win32,59.79788315,63f78703fbd3a523a963d860,64d2fd46c836a06233681665,64dc813c8bcc148647ade3b4,,,,,,,decisionTrl,resources/DR.BMP,resources/DBN.BMP,Door4,0.426851852,-0.044444444,1,0,0,1.1293,optionRight,80,13885,6,35,0,35,0,1,,,,,,,,,,,,,,,,,,,,,,,,,,,,,,,,,,,,,,,
,,,,,,,,2023-08-16_08h57.10.561,HF_wild_card,2022.2.4,Win32,59.79788315,63f78703fbd3a523a963d860,64d2fd46c836a06233681665,64dc813c8bcc148647ade3b4,,,,,,,decisionTrl,resources/DBN.BMP,resources/DR.BMP,Door4,-0.324074074,0.069444444,1,0,0,1.8556,optionLeft,80,13965,6,36,0,36,0,1,,,,,,,,,,,,,,,,,,,,,,,,,,,,,,,,,,,,,,,
,,,,,,,,2023-08-16_08h57.10.561,HF_wild_card,2022.2.4,Win32,59.79788315,63f78703fbd3a523a963d860,64d2fd46c836a06233681665,64dc813c8bcc148647ade3b4,,,,,,,ctch,resources/DB.BMP,resources/DR.BMP,Door3,0.294444444,0.030555556,1,0,0,2.234,optionRight,70,14035,6,37,0,37,0,1,,,,,,,,,,,,,,,,,,,,,,,,,,,,,,,,,,,,,,,
,,,,,,,,2023-08-16_08h57.10.561,HF_wild_card,2022.2.4,Win32,59.79788315,63f78703fbd3a523a963d860,64d2fd46c836a06233681665,64dc813c8bcc148647ade3b4,,,,,,,decisionTrl,resources/DR.BMP,resources/DBN.BMP,Door4,0.219444444,0.005555556,1,0,0,3.0695,optionRight,80,14115,6,38,0,38,0,1,,,,,,,,,,,,,,,,,,,,,,,,,,,,,,,,,,,,,,,
,,,,,,,,2023-08-16_08h57.10.561,HF_wild_card,2022.2.4,Win32,59.79788315,63f78703fbd3a523a963d860,64d2fd46c836a06233681665,64dc813c8bcc148647ade3b4,,,,,,,decisionTrl,resources/DY.BMP,resources/DB.BMP,Door2,0.212962963,-0.062962963,1,0,0,1.2055,optionRight,40,14155,6,39,0,39,0,1,,,,,,,,,,,,,,,,,,,,,,,,,,,,,,,,,,,,,,,
,,,,,,,,2023-08-16_08h57.10.561,HF_wild_card,2022.2.4,Win32,59.79788315,63f78703fbd3a523a963d860,64d2fd46c836a06233681665,64dc813c8bcc148647ade3b4,,,,,,,ctch,resources/DBN.BMP,resources/DY.BMP,Door4,-0.24537037,0.032407407,1,0,0,1.1331,optionLeft,80,14235,6,40,0,40,0,1,,,,,,,,,,,,,,,,,,,,,,,,,,,,,,,,,,,,,,,
,,,,,,,,2023-08-16_08h57.10.561,HF_wild_card,2022.2.4,Win32,59.79788315,63f78703fbd3a523a963d860,64d2fd46c836a06233681665,64dc813c8bcc148647ade3b4,,,,,,,decisionTrl,resources/DG.BMP,resources/DBN.BMP,Door4,0.267592593,-0.037962963,1,0,0,1.1397,optionRight,60,14295,6,41,0,41,0,1,,,,,,,,,,,,,,,,,,,,,,,,,,,,,,,,,,,,,,,
,,,,,,,,2023-08-16_08h57.10.561,HF_wild_card,2022.2.4,Win32,59.79788315,63f78703fbd3a523a963d860,64d2fd46c836a06233681665,64dc813c8bcc148647ade3b4,,,,,,,decisionTrl,resources/DG.BMP,resources/DB.BMP,Door2,0.230555556,-0.010185185,1,0,0,1.937,optionRight,40,14335,6,42,0,42,0,1,,,,,,,,,,,,,,,,,,,,,,,,,,,,,,,,,,,,,,,
,,,,,,,,2023-08-16_08h57.10.561,HF_wild_card,2022.2.4,Win32,59.79788315,63f78703fbd3a523a963d860,64d2fd46c836a06233681665,64dc813c8bcc148647ade3b4,,,,,,,sngl,resources/Empty.png,resources/DG.BMP,WildCard_NonEx,0.252777778,-0.033333333,1,0,0,0.8579,optionRight,55,14390,6,43,0,43,0,1,,,,,,,,,,,,,,,,,,,,,,,,,,,,,,,,,,,,,,,
,,,,,,,,2023-08-16_08h57.10.561,HF_wild_card,2022.2.4,Win32,59.79788315,63f78703fbd3a523a963d860,64d2fd46c836a06233681665,64dc813c8bcc148647ade3b4,,,,,,,,,,,,,,,,,,,,,,,,,,5,0,5,0,1,,,,,,,,,,,,,,,,,,,,,,,,,,,,,,,,,,
,,,,,,,,2023-08-16_08h57.10.561,HF_wild_card,2022.2.4,Win32,59.79788315,63f78703fbd3a523a963d860,64d2fd46c836a06233681665,64dc813c8bcc148647ade3b4,,,,,,,ctch,resources/DB.BMP,resources/DR.BMP,Door3,0.349074074,0.036111083,1,0,0,1.5325,optionRight,70,14460,7,0,0,0,0,1,,,,,,,,,,,,,,,,,,,,,,,,,,,,,,,,,,,,,,,
,,,,,,,,2023-08-16_08h57.10.561,HF_wild_card,2022.2.4,Win32,59.79788315,63f78703fbd3a523a963d860,64d2fd46c836a06233681665,64dc813c8bcc148647ade3b4,,,,,,,decisionTrl,resources/DB.BMP,resources/DY.BMP,Door2,-0.175,0.037037037,1,0,0,1.8947,optionLeft,20,14480,7,1,0,1,0,1,,,,,,,,,,,,,,,,,,,,,,,,,,,,,,,,,,,,,,,
,,,,,,,,2023-08-16_08h57.10.561,HF_wild_card,2022.2.4,Win32,59.79788315,63f78703fbd3a523a963d860,64d2fd46c836a06233681665,64dc813c8bcc148647ade3b4,,,,,,,ctch,resources/DB.BMP,resources/DR.BMP,Door3,0.162962963,-0.013888889,1,0,0,1.1253,optionRight,70,14550,7,2,0,2,0,1,,,,,,,,,,,,,,,,,,,,,,,,,,,,,,,,,,,,,,,
,,,,,,,,2023-08-16_08h57.10.561,HF_wild_card,2022.2.4,Win32,59.79788315,63f78703fbd3a523a963d860,64d2fd46c836a06233681665,64dc813c8bcc148647ade3b4,,,,,,,decisionTrl,resources/DR.BMP,resources/DBN.BMP,Door4,0.34166678,-0.046296296,1,0,0,1.8247,optionRight,60,14610,7,3,0,3,0,1,,,,,,,,,,,,,,,,,,,,,,,,,,,,,,,,,,,,,,,
,,,,,,,,2023-08-16_08h57.10.561,HF_wild_card,2022.2.4,Win32,59.79788315,63f78703fbd3a523a963d860,64d2fd46c836a06233681665,64dc813c8bcc148647ade3b4,,,,,,,decisionTrl,resources/DY.BMP,resources/DB.BMP,Door2,0.261111111,-0.014814815,1,0,0,1.6888,optionRight,40,14650,7,4,0,4,0,1,,,,,,,,,,,,,,,,,,,,,,,,,,,,,,,,,,,,,,,
,,,,,,,,2023-08-16_08h57.10.561,HF_wild_card,2022.2.4,Win32,59.79788315,63f78703fbd3a523a963d860,64d2fd46c836a06233681665,64dc813c8bcc148647ade3b4,,,,,,,decisionTrl,resources/DR.BMP,resources/DBN.BMP,Door4,0.246296296,-0.017592593,1,0,0,2.2979,optionRight,60,14710,7,5,0,5,0,1,,,,,,,,,,,,,,,,,,,,,,,,,,,,,,,,,,,,,,,
,,,,,,,,2023-08-16_08h57.10.561,HF_wild_card,2022.2.4,Win32,59.79788315,63f78703fbd3a523a963d860,64d2fd46c836a06233681665,64dc813c8bcc148647ade3b4,,,,,,,decisionTrl,resources/DY.BMP,resources/DB.BMP,Door2,0.27962963,-0.063888889,1,0,0,1.1697,optionRight,20,14730,7,6,0,6,0,1,,,,,,,,,,,,,,,,,,,,,,,,,,,,,,,,,,,,,,,
,,,,,,,,2023-08-16_08h57.10.561,HF_wild_card,2022.2.4,Win32,59.79788315,63f78703fbd3a523a963d860,64d2fd46c836a06233681665,64dc813c8bcc148647ade3b4,,,,,,,ctch,resources/DY.BMP,resources/DBN.BMP,Door4,0.336111111,-0.05,1,0,0,0.983,optionRight,60,14790,7,7,0,7,0,1,,,,,,,,,,,,,,,,,,,,,,,,,,,,,,,,,,,,,,,
,,,,,,,,2023-08-16_08h57.10.561,HF_wild_card,2022.2.4,Win32,59.79788315,63f78703fbd3a523a963d860,64d2fd46c836a06233681665,64dc813c8bcc148647ade3b4,,,,,,,decisionTrl,resources/DY.BMP,resources/DB.BMP,Door2,0.203703704,-0.007407407,1,0,0,1.4763,optionRight,40,14830,7,8,0,8,0,1,,,,,,,,,,,,,,,,,,,,,,,,,,,,,,,,,,,,,,,
,,,,,,,,2023-08-16_08h57.10.561,HF_wild_card,2022.2.4,Win32,59.79788315,63f78703fbd3a523a963d860,64d2fd46c836a06233681665,64dc813c8bcc148647ade3b4,,,,,,,ctch,resources/DR.BMP,resources/DB.BMP,Door3,-0.243518462,0.002777778,1,0,0,1.542,optionLeft,70,14900,7,9,0,9,0,1,,,,,,,,,,,,,,,,,,,,,,,,,,,,,,,,,,,,,,,
,,,,,,,,2023-08-16_08h57.10.561,HF_wild_card,2022.2.4,Win32,59.79788315,63f78703fbd3a523a963d860,64d2fd46c836a06233681665,64dc813c8bcc148647ade3b4,,,,,,,decisionTrl,resources/DR.BMP,resources/DBN.BMP,Door4,0.247222222,-0.05462963,1,0,0,2.1236,optionRight,80,14980,7,10,0,10,0,1,,,,,,,,,,,,,,,,,,,,,,,,,,,,,,,,,,,,,,,
,,,,,,,,2023-08-16_08h57.10.561,HF_wild_card,2022.2.4,Win32,59.79788315,63f78703fbd3a523a963d860,64d2fd46c836a06233681665,64dc813c8bcc148647ade3b4,,,,,,,decisionTrl,resources/DBN.BMP,resources/DR.BMP,Door4,-0.396296296,0.007407407,1,0,0,4.133,optionLeft,80,15060,7,11,0,11,0,1,,,,,,,,,,,,,,,,,,,,,,,,,,,,,,,,,,,,,,,
,,,,,,,,2023-08-16_08h57.10.561,HF_wild_card,2022.2.4,Win32,59.79788315,63f78703fbd3a523a963d860,64d2fd46c836a06233681665,64dc813c8bcc148647ade3b4,,,,,,,ctch,resources/DR.BMP,resources/DB.BMP,Door3,-0.323148148,0.018518519,1,0,0,1.3905,optionLeft,70,15130,7,12,0,12,0,1,,,,,,,,,,,,,,,,,,,,,,,,,,,,,,,,,,,,,,,
,,,,,,,,2023-08-16_08h57.10.561,HF_wild_card,2022.2.4,Win32,59.79788315,63f78703fbd3a523a963d860,64d2fd46c836a06233681665,64dc813c8bcc148647ade3b4,,,,,,,decisionTrl,resources/DB.BMP,resources/DY.BMP,Door2,-0.293518519,0.023148148,1,0,0,1.3768,optionLeft,20,15150,7,13,0,13,0,1,,,,,,,,,,,,,,,,,,,,,,,,,,,,,,,,,,,,,,,
,,,,,,,,2023-08-16_08h57.10.561,HF_wild_card,2022.2.4,Win32,59.79788315,63f78703fbd3a523a963d860,64d2fd46c836a06233681665,64dc813c8bcc148647ade3b4,,,,,,,ctch,resources/DY.BMP,resources/DBN.BMP,Door4,0.249074074,-0.050925926,1,0,0,1.1291,optionRight,60,15210,7,14,0,14,0,1,,,,,,,,,,,,,,,,,,,,,,,,,,,,,,,,,,,,,,,
,,,,,,,,2023-08-16_08h57.10.561,HF_wild_card,2022.2.4,Win32,59.79788315,63f78703fbd3a523a963d860,64d2fd46c836a06233681665,64dc813c8bcc148647ade3b4,,,,,,,decisionTrl,resources/DBN.BMP,resources/DR.BMP,Door4,-0.293518519,0.056481481,1,0,0,1.48,optionLeft,80,15290,7,15,0,15,0,1,,,,,,,,,,,,,,,,,,,,,,,,,,,,,,,,,,,,,,,
,,,,,,,,2023-08-16_08h57.10.561,HF_wild_card,2022.2.4,Win32,59.79788315,63f78703fbd3a523a963d860,64d2fd46c836a06233681665,64dc813c8bcc148647ade3b4,,,,,,,decisionTrl,resources/DY.BMP,resources/DB.BMP,Door2,0.252777778,-0.049074074,1,0,0,1.2665,optionRight,20,15310,7,16,0,16,0,1,,,,,,,,,,,,,,,,,,,,,,,,,,,,,,,,,,,,,,,
,,,,,,,,2023-08-16_08h57.10.561,HF_wild_card,2022.2.4,Win32,59.79788315,63f78703fbd3a523a963d860,64d2fd46c836a06233681665,64dc813c8bcc148647ade3b4,,,,,,,decisionTrl,resources/DB.BMP,resources/DY.BMP,Door2,-0.30462963,0.027777778,1,0,0,1.2321,optionLeft,40,15350,7,17,0,17,0,1,,,,,,,,,,,,,,,,,,,,,,,,,,,,,,,,,,,,,,,
,,,,,,,,2023-08-16_08h57.10.561,HF_wild_card,2022.2.4,Win32,59.79788315,63f78703fbd3a523a963d860,64d2fd46c836a06233681665,64dc813c8bcc148647ade3b4,,,,,,,decisionTrl,resources/DBN.BMP,resources/DR.BMP,Door4,-0.325,-0.003703704,1,0,0,1.3817,optionLeft,60,15410,7,18,0,18,0,1,,,,,,,,,,,,,,,,,,,,,,,,,,,,,,,,,,,,,,,
,,,,,,,,2023-08-16_08h57.10.561,HF_wild_card,2022.2.4,Win32,59.79788315,63f78703fbd3a523a963d860,64d2fd46c836a06233681665,64dc813c8bcc148647ade3b4,,,,,,,ctch,resources/DB.BMP,resources/DR.BMP,Door3,0.301851852,-0.024074074,1,0,0,1.6417,optionRight,70,15480,7,19,0,19,0,1,,,,,,,,,,,,,,,,,,,,,,,,,,,,,,,,,,,,,,,
,,,,,,,,2023-08-16_08h57.10.561,HF_wild_card,2022.2.4,Win32,59.79788315,63f78703fbd3a523a963d860,64d2fd46c836a06233681665,64dc813c8bcc148647ade3b4,,,,,,,ctch,resources/DBN.BMP,resources/DY.BMP,Door4,-0.397222222,0.032407407,1,0,0,1.1242,optionLeft,60,15540,7,20,0,20,0,1,,,,,,,,,,,,,,,,,,,,,,,,,,,,,,,,,,,,,,,
,,,,,,,,2023-08-16_08h57.10.561,HF_wild_card,2022.2.4,Win32,59.79788315,63f78703fbd3a523a963d860,64d2fd46c836a06233681665,64dc813c8bcc148647ade3b4,,,,,,,decisionTrl,resources/DBN.BMP,resources/DR.BMP,Door4,-0.315740741,0.017592593,1,0,0,1.3232,optionLeft,80,15620,7,21,0,21,0,1,,,,,,,,,,,,,,,,,,,,,,,,,,,,,,,,,,,,,,,
,,,,,,,,2023-08-16_08h57.10.561,HF_wild_card,2022.2.4,Win32,59.79788315,63f78703fbd3a523a963d860,64d2fd46c836a06233681665,64dc813c8bcc148647ade3b4,,,,,,,decisionTrl,resources/DY.BMP,resources/DB.BMP,Door2,0.19537037,0.025,1,0,0,2.2404,optionRight,20,15640,7,22,0,22,0,1,,,,,,,,,,,,,,,,,,,,,,,,,,,,,,,,,,,,,,,
,,,,,,,,2023-08-16_08h57.10.561,HF_wild_card,2022.2.4,Win32,59.79788315,63f78703fbd3a523a963d860,64d2fd46c836a06233681665,64dc813c8bcc148647ade3b4,,,,,,,decisionTrl,resources/DBN.BMP,resources/DR.BMP,Door4,-0.258333333,0.06851849,1,0,0,1.5744,optionLeft,60,15700,7,23,0,23,0,1,,,,,,,,,,,,,,,,,,,,,,,,,,,,,,,,,,,,,,,
,,,,,,,,2023-08-16_08h57.10.561,HF_wild_card,2022.2.4,Win32,59.79788315,63f78703fbd3a523a963d860,64d2fd46c836a06233681665,64dc813c8bcc148647ade3b4,,,,,,,ctch,resources/DBN.BMP,resources/DY.BMP,Door4,-0.346296296,0.046296296,1,0,0,1.0745,optionLeft,60,15760,7,24,0,24,0,1,,,,,,,,,,,,,,,,,,,,,,,,,,,,,,,,,,,,,,,
,,,,,,,,2023-08-16_08h57.10.561,HF_wild_card,2022.2.4,Win32,59.79788315,63f78703fbd3a523a963d860,64d2fd46c836a06233681665,64dc813c8bcc148647ade3b4,,,,,,,decisionTrl,resources/DB.BMP,resources/DY.BMP,Door2,-0.252777721,-0.025925926,1,0,0,1.4812,optionLeft,40,15800,7,25,0,25,0,1,,,,,,,,,,,,,,,,,,,,,,,,,,,,,,,,,,,,,,,
,,,,,,,,2023-08-16_08h57.10.561,HF_wild_card,2022.2.4,Win32,59.79788315,63f78703fbd3a523a963d860,64d2fd46c836a06233681665,64dc813c8bcc148647ade3b4,,,,,,,ctch,resources/DY.BMP,resources/DBN.BMP,Door4,0.362962963,-0.100925926,1,0,0,1.4053,optionRight,60,15860,7,26,0,26,0,1,,,,,,,,,,,,,,,,,,,,,,,,,,,,,,,,,,,,,,,
,,,,,,,,2023-08-16_08h57.10.561,HF_wild_card,2022.2.4,Win32,59.79788315,63f78703fbd3a523a963d860,64d2fd46c836a06233681665,64dc813c8bcc148647ade3b4,,,,,,,decisionTrl,resources/DR.BMP,resources/DBN.BMP,Door4,0.388888889,-0.019444444,1,0,0,1.1857,optionRight,80,15940,7,27,0,27,0,1,,,,,,,,,,,,,,,,,,,,,,,,,,,,,,,,,,,,,,,
,,,,,,,,2023-08-16_08h57.10.561,HF_wild_card,2022.2.4,Win32,59.79788315,63f78703fbd3a523a963d860,64d2fd46c836a06233681665,64dc813c8bcc148647ade3b4,,,,,,,decisionTrl,resources/DY.BMP,resources/DB.BMP,Door2,0.308333333,-0.038888889,1,0,0,1.2906,optionRight,40,15980,7,28,0,28,0,1,,,,,,,,,,,,,,,,,,,,,,,,,,,,,,,,,,,,,,,
,,,,,,,,2023-08-16_08h57.10.561,HF_wild_card,2022.2.4,Win32,59.79788315,63f78703fbd3a523a963d860,64d2fd46c836a06233681665,64dc813c8bcc148647ade3b4,,,,,,,decisionTrl,resources/DR.BMP,resources/DBN.BMP,Door4,0.368518519,-0.027777778,1,0,0,1.8971,optionRight,60,16040,7,29,0,29,0,1,,,,,,,,,,,,,,,,,,,,,,,,,,,,,,,,,,,,,,,
,,,,,,,,2023-08-16_08h57.10.561,HF_wild_card,2022.2.4,Win32,59.79788315,63f78703fbd3a523a963d860,64d2fd46c836a06233681665,64dc813c8bcc148647ade3b4,,,,,,,ctch,resources/DR.BMP,resources/DB.BMP,Door3,-0.290740741,-0.00462963,1,0,0,1.0741,optionLeft,70,16110,7,30,0,30,0,1,,,,,,,,,,,,,,,,,,,,,,,,,,,,,,,,,,,,,,,
,,,,,,,,2023-08-16_08h57.10.561,HF_wild_card,2022.2.4,Win32,59.79788315,63f78703fbd3a523a963d860,64d2fd46c836a06233681665,64dc813c8bcc148647ade3b4,,,,,,,decisionTrl,resources/DBN.BMP,resources/DR.BMP,Door4,-0.382407407,0.003703704,1,0,0,1.0066,optionLeft,60,16170,7,31,0,31,0,1,,,,,,,,,,,,,,,,,,,,,,,,,,,,,,,,,,,,,,,
,,,,,,,,2023-08-16_08h57.10.561,HF_wild_card,2022.2.4,Win32,59.79788315,63f78703fbd3a523a963d860,64d2fd46c836a06233681665,64dc813c8bcc148647ade3b4,,,,,,,decisionTrl,resources/DB.BMP,resources/DY.BMP,Door2,-0.312037037,0.026851824,1,0,0,1.3972,optionLeft,40,16210,7,32,0,32,0,1,,,,,,,,,,,,,,,,,,,,,,,,,,,,,,,,,,,,,,,
,,,,,,,,2023-08-16_08h57.10.561,HF_wild_card,2022.2.4,Win32,59.79788315,63f78703fbd3a523a963d860,64d2fd46c836a06233681665,64dc813c8bcc148647ade3b4,,,,,,,decisionTrl,resources/DR.BMP,resources/DBN.BMP,Door4,0.273148148,0.001851852,1,0,0,1.4331,optionRight,60,16270,7,33,0,33,0,1,,,,,,,,,,,,,,,,,,,,,,,,,,,,,,,,,,,,,,,
,,,,,,,,2023-08-16_08h57.10.561,HF_wild_card,2022.2.4,Win32,59.79788315,63f78703fbd3a523a963d860,64d2fd46c836a06233681665,64dc813c8bcc148647ade3b4,,,,,,,ctch,resources/DBN.BMP,resources/DY.BMP,Door4,-0.389814815,0.06851849,1,0,0,1.1021,optionLeft,60,16330,7,34,0,34,0,1,,,,,,,,,,,,,,,,,,,,,,,,,,,,,,,,,,,,,,,
,,,,,,,,2023-08-16_08h57.10.561,HF_wild_card,2022.2.4,Win32,59.79788315,63f78703fbd3a523a963d860,64d2fd46c836a06233681665,64dc813c8bcc148647ade3b4,,,,,,,decisionTrl,resources/DB.BMP,resources/DY.BMP,Door2,-0.428703704,0.014814815,1,0,0,1.751,optionLeft,20,16350,7,35,0,35,0,1,,,,,,,,,,,,,,,,,,,,,,,,,,,,,,,,,,,,,,,
,,,,,,,,2023-08-16_08h57.10.561,HF_wild_card,2022.2.4,Win32,59.79788315,63f78703fbd3a523a963d860,64d2fd46c836a06233681665,64dc813c8bcc148647ade3b4,,,,,,,,,,,,,,,,,,,,,,,,,,6,0,6,0,1,,,,,,,,,,,,,,,,,,,,,,,,,,,,,,,,,,
,,,,,,,,2023-08-16_08h57.10.561,HF_wild_card,2022.2.4,Win32,59.79788315,63f78703fbd3a523a963d860,64d2fd46c836a06233681665,64dc813c8bcc148647ade3b4,,,,,,,,,,,,,,,,,,,,,,,,,,,,,,,4,,,,,,,,,,,,,,,,,,,,,,,,,,,,,,,,,
,,,,,,,,2023-08-16_08h57.10.561,HF_wild_card,2022.2.4,Win32,59.79788315,63f78703fbd3a523a963d860,64d2fd46c836a06233681665,64dc813c8bcc148647ade3b4,,,,,,,,,,,,,,,,,,,,,,,,,,,,,,,,,,,,,,,,,,,,,,,,,,,,,,,,,,,,,,,,
,,,,,,,,2023-08-16_08h57.10.561,HF_wild_card,2022.2.4,Win32,59.79788315,63f78703fbd3a523a963d860,64d2fd46c836a06233681665,64dc813c8bcc148647ade3b4,,,,,,,,,,,,,,,,,,,,,,,,,,,,,,,,30,Door1,resources/DY.BMP,0,0,0,0,1,,,,,,,,,,,,,,,,,,,,,,,,,
,,,,,,,,2023-08-16_08h57.10.561,HF_wild_card,2022.2.4,Win32,59.79788315,63f78703fbd3a523a963d860,64d2fd46c836a06233681665,64dc813c8bcc148647ade3b4,,,,,,,,,,,,,,,,,,,,,,,,,,,,,,,,80,Door4,resources/DBN.BMP,1,0,1,0,1,,,,,,,,,,,,,,,,,,,,,,,,,
,,,,,,,,2023-08-16_08h57.10.561,HF_wild_card,2022.2.4,Win32,59.79788315,63f78703fbd3a523a963d860,64d2fd46c836a06233681665,64dc813c8bcc148647ade3b4,,,,,,,,,,,,,,,,,,,,,,,,,,,,,,,,70,Door3,resources/DR.BMP,2,0,2,0,1,,,,,,,,,,,,,,,,,,,,,,,,,
,,,,,,,,2023-08-16_08h57.10.561,HF_wild_card,2022.2.4,Win32,59.79788315,63f78703fbd3a523a963d860,64d2fd46c836a06233681665,64dc813c8bcc148647ade3b4,,,,,,,,,,,,,,,,,,,,,,,,,,,,,,,,50,Door2,resources/DB.BMP,3,0,3,0,1,,,,,,,,,,,,,,,,,,,,,,,,,
,,,,,,,,2023-08-16_08h57.10.561,HF_wild_card,2022.2.4,Win32,59.79788315,63f78703fbd3a523a963d860,64d2fd46c836a06233681665,64dc813c8bcc148647ade3b4,,,,,,,,,,,,,,,,,,,,,,,,,,,,,,,,55,WC_nonExtreme,resources/DG.BMP,4,0,4,0,1,,,,,,,,,,,,,,,,,,,,,,,,,
,,,,,,,,2023-08-16_08h57.10.561,HF_wild_card,2022.2.4,Win32,59.79788315,63f78703fbd3a523a963d860,64d2fd46c836a06233681665,64dc813c8bcc148647ade3b4,,,,,,,,,,,,,,,,,,,,,,,,,,,,,,,,95,WC_extreme,resources/DP.BMP,5,0,5,0,1,,,,,,,,,,,,,,,,,,,,,,,,,
,,,,,,,,2023-08-16_08h57.10.561,HF_wild_card,2022.2.4,Win32,59.79788315,63f78703fbd3a523a963d860,64d2fd46c836a06233681665,64dc813c8bcc148647ade3b4,,,,,,,,,,,,,,,,,,,,,,,,,,,,,,,,,,,,,,,,,,,,,,,,,,,,,,,,,,,,,,,,
