Condition,Low fixed image (Door1),Low risky image (Door2),High fixed image (Door3),High risky image (Door4),Extreme Wild Card,NonExtreme Wild Card,,date,expName,psychopyVersion,OS,frameRate,PROLIFIC_PID,STUDY_ID,SESSION_ID,mouse_2.x,mouse_2.y,mouse_2.leftButton,mouse_2.midButton,mouse_2.rightButton,mouse_2.clicked_name,Trial Type,Left Option Image,Right Option Image,Chosen Door,mouse.x,mouse.y,mouse.leftButton,mouse.midButton,mouse.rightButton,mouse.time,mouse.clicked_name,Feedback,Cumulative Reward,Block,trial.thisRepN,trial.thisTrialN,trial.thisN,trial.thisIndex,trial.ran,blocks.thisRepN,blocks.thisTrialN,blocks.thisN,blocks.thisIndex,blocks.ran,Money conversion,First Outcome Reported,Shown Door (First Outcome),Displayed Image (First Outcome),outcomes.thisRepN,outcomes.thisTrialN,outcomes.thisN,outcomes.thisIndex,outcomes.ran,judgments.thisRepN,judgments.thisTrialN,judgments.thisN,judgments.thisIndex,judgments.ran,freqMouse.x,freqMouse.y,freqMouse.leftButton,freqMouse.midButton,freqMouse.rightButton,freqMouse.clicked_name,FQJ for first outcome,FQJ for second outcome,Shown Door,Displayed Image,trials.thisRepN,trials.thisTrialN,trials.thisN,trials.thisIndex,trials.ran,judgBlock.thisRepN,judgBlock.thisTrialN,judgBlock.thisN,judgBlock.thisIndex,judgBlock.ran
0,resources/DR.BMP,resources/DP.BMP,resources/DB.BMP,resources/DY.BMP,resources/DBN.BMP,resources/DG.BMP,,2023-08-16_08h37.55.652,HF_wild_card,2022.2.4,MacIntel,60.0024001,632892646eb1fff474584dd7,64d2fd46c836a06233681665,64dc7cc2807e6bcc56f75d06,,,,,,,,,,,,,,,,,,,,,,,,,,,,,,,,,,,,,,,,,,,,,,,,,,,,,,,,,,,,,,,,
,,,,,,,,2023-08-16_08h37.55.652,HF_wild_card,2022.2.4,MacIntel,60.0024001,632892646eb1fff474584dd7,64d2fd46c836a06233681665,64dc7cc2807e6bcc56f75d06,-0.00038147,-0.429291845,1,0,0,agree,,,,,,,,,,,,,,,,,,,,,,,,,,,,,,,,,,,,,,,,,,,,,,,,,,,,,,,,,,
,,,,,,,,2023-08-16_08h37.55.652,HF_wild_card,2022.2.4,MacIntel,60.0024001,632892646eb1fff474584dd7,64d2fd46c836a06233681665,64dc7cc2807e6bcc56f75d06,,,,,,,,,,,,,,,,,,,,,,,,,,,,,,,,,,,,,,,,,,,,,,,,,,,,,,,,,,,,,,,,
,,,,,,,,2023-08-16_08h37.55.652,HF_wild_card,2022.2.4,MacIntel,60.0024001,632892646eb1fff474584dd7,64d2fd46c836a06233681665,64dc7cc2807e6bcc56f75d06,,,,,,,sngl,resources/DBN.BMP,resources/Empty.png,WildCard_Ex,-0.232044361,-0.136577013,1,0,0,4.6214,optionLeft,5,5,1,0,0,0,0,1,,,,,,,,,,,,,,,,,,,,,,,,,,,,,,,,,,,,,,,
,,,,,,,,2023-08-16_08h37.55.652,HF_wild_card,2022.2.4,MacIntel,60.0024001,632892646eb1fff474584dd7,64d2fd46c836a06233681665,64dc7cc2807e6bcc56f75d06,,,,,,,decisionTrl,resources/DP.BMP,resources/DBN.BMP,Door2,-0.264413226,0.004572946,1,0,0,1.3634,optionLeft,40,45,1,1,0,1,0,1,,,,,,,,,,,,,,,,,,,,,,,,,,,,,,,,,,,,,,,
,,,,,,,,2023-08-16_08h37.55.652,HF_wild_card,2022.2.4,MacIntel,60.0024001,632892646eb1fff474584dd7,64d2fd46c836a06233681665,64dc7cc2807e6bcc56f75d06,,,,,,,decisionTrl,resources/DR.BMP,resources/DP.BMP,Door2,0.340958433,-0.032241256,1,0,0,1.2139,optionRight,40,85,1,2,0,2,0,1,,,,,,,,,,,,,,,,,,,,,,,,,,,,,,,,,,,,,,,
,,,,,,,,2023-08-16_08h37.55.652,HF_wild_card,2022.2.4,MacIntel,60.0024001,632892646eb1fff474584dd7,64d2fd46c836a06233681665,64dc7cc2807e6bcc56f75d06,,,,,,,decisionTrl,resources/DY.BMP,resources/DB.BMP,Door4,-0.239428315,-0.027343863,1,0,0,1.5132,optionLeft,60,145,1,3,0,3,0,1,,,,,,,,,,,,,,,,,,,,,,,,,,,,,,,,,,,,,,,
,,,,,,,,2023-08-16_08h37.55.652,HF_wild_card,2022.2.4,MacIntel,60.0024001,632892646eb1fff474584dd7,64d2fd46c836a06233681665,64dc7cc2807e6bcc56f75d06,,,,,,,decisionTrl,resources/DP.BMP,resources/DR.BMP,Door2,-0.238285658,-0.006315443,1,0,0,1.2303,optionLeft,40,185,1,4,0,4,0,1,,,,,,,,,,,,,,,,,,,,,,,,,,,,,,,,,,,,,,,
,,,,,,,,2023-08-16_08h37.55.652,HF_wild_card,2022.2.4,MacIntel,60.0024001,632892646eb1fff474584dd7,64d2fd46c836a06233681665,64dc7cc2807e6bcc56f75d06,,,,,,,sngl,resources/DR.BMP,resources/Empty.png,Door1,-0.317130873,0.004702759,1,0,0,0.8982,optionLeft,30,215,1,5,0,5,0,1,,,,,,,,,,,,,,,,,,,,,,,,,,,,,,,,,,,,,,,
,,,,,,,,2023-08-16_08h37.55.652,HF_wild_card,2022.2.4,MacIntel,60.0024001,632892646eb1fff474584dd7,64d2fd46c836a06233681665,64dc7cc2807e6bcc56f75d06,,,,,,,sngl,resources/Empty.png,resources/DY.BMP,Door4,0.237884635,-0.035298722,1,0,0,0.7978,optionRight,60,275,1,6,0,6,0,1,,,,,,,,,,,,,,,,,,,,,,,,,,,,,,,,,,,,,,,
,,,,,,,,2023-08-16_08h37.55.652,HF_wild_card,2022.2.4,MacIntel,60.0024001,632892646eb1fff474584dd7,64d2fd46c836a06233681665,64dc7cc2807e6bcc56f75d06,,,,,,,decisionTrl,resources/DB.BMP,resources/DY.BMP,Door4,0.348870058,-0.027808069,1,0,0,0.6981,optionRight,60,335,1,7,0,7,0,1,,,,,,,,,,,,,,,,,,,,,,,,,,,,,,,,,,,,,,,
,,,,,,,,2023-08-16_08h37.55.652,HF_wild_card,2022.2.4,MacIntel,60.0024001,632892646eb1fff474584dd7,64d2fd46c836a06233681665,64dc7cc2807e6bcc56f75d06,,,,,,,ctch,resources/DY.BMP,resources/DR.BMP,Door1,0.365108349,-0.06282326,1,0,0,1.2145,optionRight,30,365,1,8,0,8,0,1,,,,,,,,,,,,,,,,,,,,,,,,,,,,,,,,,,,,,,,
,,,,,,,,2023-08-16_08h37.55.652,HF_wild_card,2022.2.4,MacIntel,60.0024001,632892646eb1fff474584dd7,64d2fd46c836a06233681665,64dc7cc2807e6bcc56f75d06,,,,,,,decisionTrl,resources/DB.BMP,resources/DY.BMP,Door4,0.368431713,-0.054385828,1,0,0,1.8975,optionRight,80,445,1,9,0,9,0,1,,,,,,,,,,,,,,,,,,,,,,,,,,,,,,,,,,,,,,,
,,,,,,,,2023-08-16_08h37.55.652,HF_wild_card,2022.2.4,MacIntel,60.0024001,632892646eb1fff474584dd7,64d2fd46c836a06233681665,64dc7cc2807e6bcc56f75d06,,,,,,,sngl,resources/DY.BMP,resources/Empty.png,Door4,-0.203640804,-0.002323631,1,0,0,0.9152,optionLeft,80,525,1,10,0,10,0,1,,,,,,,,,,,,,,,,,,,,,,,,,,,,,,,,,,,,,,,
,,,,,,,,2023-08-16_08h37.55.652,HF_wild_card,2022.2.4,MacIntel,60.0024001,632892646eb1fff474584dd7,64d2fd46c836a06233681665,64dc7cc2807e6bcc56f75d06,,,,,,,ctch,resources/DP.BMP,resources/DB.BMP,Door2,-0.212528087,0.007552309,1,0,0,1.5141,optionLeft,40,565,1,11,0,11,0,1,,,,,,,,,,,,,,,,,,,,,,,,,,,,,,,,,,,,,,,
,,,,,,,,2023-08-16_08h37.55.652,HF_wild_card,2022.2.4,MacIntel,60.0024001,632892646eb1fff474584dd7,64d2fd46c836a06233681665,64dc7cc2807e6bcc56f75d06,,,,,,,decisionTrl,resources/DR.BMP,resources/DBN.BMP,WildCard_Ex,0.294707009,-0.028450238,1,0,0,0.9158,optionRight,95,660,1,12,0,12,0,1,,,,,,,,,,,,,,,,,,,,,,,,,,,,,,,,,,,,,,,
,,,,,,,,2023-08-16_08h37.55.652,HF_wild_card,2022.2.4,MacIntel,60.0024001,632892646eb1fff474584dd7,64d2fd46c836a06233681665,64dc7cc2807e6bcc56f75d06,,,,,,,decisionTrl,resources/DB.BMP,resources/DY.BMP,Door4,0.262241505,-0.027410663,1,0,0,1.5317,optionRight,80,740,1,13,0,13,0,1,,,,,,,,,,,,,,,,,,,,,,,,,,,,,,,,,,,,,,,
,,,,,,,,2023-08-16_08h37.55.652,HF_wild_card,2022.2.4,MacIntel,60.0024001,632892646eb1fff474584dd7,64d2fd46c836a06233681665,64dc7cc2807e6bcc56f75d06,,,,,,,decisionTrl,resources/DP.BMP,resources/DR.BMP,Door2,-0.212126951,0.003997633,1,0,0,1.115,optionLeft,20,760,1,14,0,14,0,1,,,,,,,,,,,,,,,,,,,,,,,,,,,,,,,,,,,,,,,
,,,,,,,,2023-08-16_08h37.55.652,HF_wild_card,2022.2.4,MacIntel,60.0024001,632892646eb1fff474584dd7,64d2fd46c836a06233681665,64dc7cc2807e6bcc56f75d06,,,,,,,decisionTrl,resources/DBN.BMP,resources/DB.BMP,Door3,0.249791011,-0.010047743,1,0,0,1.4472,optionRight,70,830,1,15,0,15,0,1,,,,,,,,,,,,,,,,,,,,,,,,,,,,,,,,,,,,,,,
,,,,,,,,2023-08-16_08h37.55.652,HF_wild_card,2022.2.4,MacIntel,60.0024001,632892646eb1fff474584dd7,64d2fd46c836a06233681665,64dc7cc2807e6bcc56f75d06,,,,,,,sngl,resources/Empty.png,resources/DB.BMP,Door3,0.223505656,-0.036538244,1,0,0,0.6465,optionRight,70,900,1,16,0,16,0,1,,,,,,,,,,,,,,,,,,,,,,,,,,,,,,,,,,,,,,,
,,,,,,,,2023-08-16_08h37.55.652,HF_wild_card,2022.2.4,MacIntel,60.0024001,632892646eb1fff474584dd7,64d2fd46c836a06233681665,64dc7cc2807e6bcc56f75d06,,,,,,,decisionTrl,resources/DB.BMP,resources/DBN.BMP,Door3,-0.294045455,-0.043448893,1,0,0,0.7648,optionLeft,70,970,1,17,0,17,0,1,,,,,,,,,,,,,,,,,,,,,,,,,,,,,,,,,,,,,,,
,,,,,,,,2023-08-16_08h37.55.652,HF_wild_card,2022.2.4,MacIntel,60.0024001,632892646eb1fff474584dd7,64d2fd46c836a06233681665,64dc7cc2807e6bcc56f75d06,,,,,,,ctch,resources/DP.BMP,resources/DB.BMP,Door3,0.273596417,-0.010428704,1,0,0,1.0801,optionRight,70,1040,1,18,0,18,0,1,,,,,,,,,,,,,,,,,,,,,,,,,,,,,,,,,,,,,,,
,,,,,,,,2023-08-16_08h37.55.652,HF_wild_card,2022.2.4,MacIntel,60.0024001,632892646eb1fff474584dd7,64d2fd46c836a06233681665,64dc7cc2807e6bcc56f75d06,,,,,,,ctch,resources/DB.BMP,resources/DP.BMP,Door3,-0.274536359,-0.003801699,1,0,0,0.8969,optionLeft,70,1110,1,19,0,19,0,1,,,,,,,,,,,,,,,,,,,,,,,,,,,,,,,,,,,,,,,
,,,,,,,,2023-08-16_08h37.55.652,HF_wild_card,2022.2.4,MacIntel,60.0024001,632892646eb1fff474584dd7,64d2fd46c836a06233681665,64dc7cc2807e6bcc56f75d06,,,,,,,sngl,resources/DP.BMP,resources/Empty.png,Door2,-0.277646665,0.036977132,1,0,0,0.8982,optionLeft,40,1150,1,20,0,20,0,1,,,,,,,,,,,,,,,,,,,,,,,,,,,,,,,,,,,,,,,
,,,,,,,,2023-08-16_08h37.55.652,HF_wild_card,2022.2.4,MacIntel,60.0024001,632892646eb1fff474584dd7,64d2fd46c836a06233681665,64dc7cc2807e6bcc56f75d06,,,,,,,ctch,resources/DB.BMP,resources/DP.BMP,Door3,-0.239417408,0.003865616,1,0,0,1.3301,optionLeft,70,1220,1,21,0,21,0,1,,,,,,,,,,,,,,,,,,,,,,,,,,,,,,,,,,,,,,,
,,,,,,,,2023-08-16_08h37.55.652,HF_wild_card,2022.2.4,MacIntel,60.0024001,632892646eb1fff474584dd7,64d2fd46c836a06233681665,64dc7cc2807e6bcc56f75d06,,,,,,,ctch,resources/DY.BMP,resources/DR.BMP,Door4,-0.329670094,-0.003693757,1,0,0,0.6642,optionLeft,60,1280,1,22,0,22,0,1,,,,,,,,,,,,,,,,,,,,,,,,,,,,,,,,,,,,,,,
,,,,,,,,2023-08-16_08h37.55.652,HF_wild_card,2022.2.4,MacIntel,60.0024001,632892646eb1fff474584dd7,64d2fd46c836a06233681665,64dc7cc2807e6bcc56f75d06,,,,,,,ctch,resources/DR.BMP,resources/DY.BMP,Door1,-0.212102876,0.010948577,1,0,0,1.6463,optionLeft,30,1310,1,23,0,23,0,1,,,,,,,,,,,,,,,,,,,,,,,,,,,,,,,,,,,,,,,
,,,,,,,,2023-08-16_08h37.55.652,HF_wild_card,2022.2.4,MacIntel,60.0024001,632892646eb1fff474584dd7,64d2fd46c836a06233681665,64dc7cc2807e6bcc56f75d06,,,,,,,sngl,resources/Empty.png,resources/DR.BMP,Door1,0.34430542,-0.002374663,1,0,0,0.9143,optionRight,30,1340,1,24,0,24,0,1,,,,,,,,,,,,,,,,,,,,,,,,,,,,,,,,,,,,,,,
,,,,,,,,2023-08-16_08h37.55.652,HF_wild_card,2022.2.4,MacIntel,60.0024001,632892646eb1fff474584dd7,64d2fd46c836a06233681665,64dc7cc2807e6bcc56f75d06,,,,,,,sngl,resources/DB.BMP,resources/Empty.png,Door3,-0.281936702,0.035719299,1,0,0,0.6645,optionLeft,70,1410,1,25,0,25,0,1,,,,,,,,,,,,,,,,,,,,,,,,,,,,,,,,,,,,,,,
,,,,,,,,2023-08-16_08h37.55.652,HF_wild_card,2022.2.4,MacIntel,60.0024001,632892646eb1fff474584dd7,64d2fd46c836a06233681665,64dc7cc2807e6bcc56f75d06,,,,,,,decisionTrl,resources/DR.BMP,resources/DP.BMP,Door1,-0.261999851,-0.029863372,1,0,0,1.1811,optionLeft,30,1440,1,26,0,26,0,1,,,,,,,,,,,,,,,,,,,,,,,,,,,,,,,,,,,,,,,
,,,,,,,,2023-08-16_08h37.55.652,HF_wild_card,2022.2.4,MacIntel,60.0024001,632892646eb1fff474584dd7,64d2fd46c836a06233681665,64dc7cc2807e6bcc56f75d06,,,,,,,decisionTrl,resources/DP.BMP,resources/DR.BMP,Door2,-0.256354268,-0.015977365,1,0,0,0.6297,optionLeft,40,1480,1,27,0,27,0,1,,,,,,,,,,,,,,,,,,,,,,,,,,,,,,,,,,,,,,,
,,,,,,,,2023-08-16_08h37.55.652,HF_wild_card,2022.2.4,MacIntel,60.0024001,632892646eb1fff474584dd7,64d2fd46c836a06233681665,64dc7cc2807e6bcc56f75d06,,,,,,,decisionTrl,resources/DR.BMP,resources/DP.BMP,Door2,0.234457284,-0.018457031,1,0,0,0.9476,optionRight,40,1520,1,28,0,28,0,1,,,,,,,,,,,,,,,,,,,,,,,,,,,,,,,,,,,,,,,
,,,,,,,,2023-08-16_08h37.55.652,HF_wild_card,2022.2.4,MacIntel,60.0024001,632892646eb1fff474584dd7,64d2fd46c836a06233681665,64dc7cc2807e6bcc56f75d06,,,,,,,sngl,resources/Empty.png,resources/DBN.BMP,WildCard_Ex,0.327001388,-0.022020128,1,0,0,0.8157,optionRight,95,1615,1,29,0,29,0,1,,,,,,,,,,,,,,,,,,,,,,,,,,,,,,,,,,,,,,,
,,,,,,,,2023-08-16_08h37.55.652,HF_wild_card,2022.2.4,MacIntel,60.0024001,632892646eb1fff474584dd7,64d2fd46c836a06233681665,64dc7cc2807e6bcc56f75d06,,,,,,,decisionTrl,resources/DY.BMP,resources/DB.BMP,Door4,-0.253234694,0.023948387,1,0,0,2.2653,optionLeft,80,1695,1,30,0,30,0,1,,,,,,,,,,,,,,,,,,,,,,,,,,,,,,,,,,,,,,,
,,,,,,,,2023-08-16_08h37.55.652,HF_wild_card,2022.2.4,MacIntel,60.0024001,632892646eb1fff474584dd7,64d2fd46c836a06233681665,64dc7cc2807e6bcc56f75d06,,,,,,,decisionTrl,resources/DY.BMP,resources/DBN.BMP,WildCard_Ex,0.412546455,0.030354874,1,0,0,1.4987,optionRight,95,1790,1,31,0,31,0,1,,,,,,,,,,,,,,,,,,,,,,,,,,,,,,,,,,,,,,,
,,,,,,,,2023-08-16_08h37.55.652,HF_wild_card,2022.2.4,MacIntel,60.0024001,632892646eb1fff474584dd7,64d2fd46c836a06233681665,64dc7cc2807e6bcc56f75d06,,,,,,,decisionTrl,resources/DBN.BMP,resources/DP.BMP,WildCard_Ex,-0.352237504,0.021165297,1,0,0,1.1802,optionLeft,95,1885,1,32,0,32,0,1,,,,,,,,,,,,,,,,,,,,,,,,,,,,,,,,,,,,,,,
,,,,,,,,2023-08-16_08h37.55.652,HF_wild_card,2022.2.4,MacIntel,60.0024001,632892646eb1fff474584dd7,64d2fd46c836a06233681665,64dc7cc2807e6bcc56f75d06,,,,,,,decisionTrl,resources/DY.BMP,resources/DB.BMP,Door3,0.32909738,-0.036545082,1,0,0,2.3829,optionRight,70,1955,1,33,0,33,0,1,,,,,,,,,,,,,,,,,,,,,,,,,,,,,,,,,,,,,,,
,,,,,,,,2023-08-16_08h37.55.652,HF_wild_card,2022.2.4,MacIntel,60.0024001,632892646eb1fff474584dd7,64d2fd46c836a06233681665,64dc7cc2807e6bcc56f75d06,,,,,,,ctch,resources/DR.BMP,resources/DY.BMP,Door4,0.228154048,-0.01704548,1,0,0,1.6656,optionRight,80,2035,1,34,0,34,0,1,,,,,,,,,,,,,,,,,,,,,,,,,,,,,,,,,,,,,,,
,,,,,,,,2023-08-16_08h37.55.652,HF_wild_card,2022.2.4,MacIntel,60.0024001,632892646eb1fff474584dd7,64d2fd46c836a06233681665,64dc7cc2807e6bcc56f75d06,,,,,,,decisionTrl,resources/DBN.BMP,resources/DR.BMP,WildCard_Ex,-0.277411058,-0.015743114,1,0,0,1.2992,optionLeft,95,2130,1,35,0,35,0,1,,,,,,,,,,,,,,,,,,,,,,,,,,,,,,,,,,,,,,,
,,,,,,,,2023-08-16_08h37.55.652,HF_wild_card,2022.2.4,MacIntel,60.0024001,632892646eb1fff474584dd7,64d2fd46c836a06233681665,64dc7cc2807e6bcc56f75d06,,,,,,,decisionTrl,resources/DR.BMP,resources/DP.BMP,Door2,0.280865252,-0.035875561,1,0,0,1.5631,optionRight,40,2170,1,36,0,36,0,1,,,,,,,,,,,,,,,,,,,,,,,,,,,,,,,,,,,,,,,
,,,,,,,,2023-08-16_08h37.55.652,HF_wild_card,2022.2.4,MacIntel,60.0024001,632892646eb1fff474584dd7,64d2fd46c836a06233681665,64dc7cc2807e6bcc56f75d06,,,,,,,decisionTrl,resources/DY.BMP,resources/DB.BMP,Door3,0.370453559,-0.026332601,1,0,0,1.8979,optionRight,70,2240,1,37,0,37,0,1,,,,,,,,,,,,,,,,,,,,,,,,,,,,,,,,,,,,,,,
,,,,,,,,2023-08-16_08h37.55.652,HF_wild_card,2022.2.4,MacIntel,60.0024001,632892646eb1fff474584dd7,64d2fd46c836a06233681665,64dc7cc2807e6bcc56f75d06,,,,,,,decisionTrl,resources/DB.BMP,resources/DY.BMP,Door4,0.259962407,-0.032354849,1,0,0,1.1479,optionRight,60,2300,1,38,0,38,0,1,,,,,,,,,,,,,,,,,,,,,,,,,,,,,,,,,,,,,,,
,,,,,,,,2023-08-16_08h37.55.652,HF_wild_card,2022.2.4,MacIntel,60.0024001,632892646eb1fff474584dd7,64d2fd46c836a06233681665,64dc7cc2807e6bcc56f75d06,,,,,,,sngl,resources/DBN.BMP,resources/Empty.png,WildCard_Ex,-0.326584314,0.006879284,1,0,0,0.8308,optionLeft,95,2395,1,39,0,39,0,1,,,,,,,,,,,,,,,,,,,,,,,,,,,,,,,,,,,,,,,
,,,,,,,,2023-08-16_08h37.55.652,HF_wild_card,2022.2.4,MacIntel,60.0024001,632892646eb1fff474584dd7,64d2fd46c836a06233681665,64dc7cc2807e6bcc56f75d06,,,,,,,decisionTrl,resources/DP.BMP,resources/DR.BMP,Door2,-0.313931387,0.010926649,1,0,0,1.4803,optionLeft,20,2415,1,40,0,40,0,1,,,,,,,,,,,,,,,,,,,,,,,,,,,,,,,,,,,,,,,
,,,,,,,,2023-08-16_08h37.55.652,HF_wild_card,2022.2.4,MacIntel,60.0024001,632892646eb1fff474584dd7,64d2fd46c836a06233681665,64dc7cc2807e6bcc56f75d06,,,,,,,decisionTrl,resources/DBN.BMP,resources/DY.BMP,WildCard_Ex,-0.391037552,0.005909786,1,0,0,1.7313,optionLeft,95,2510,1,41,0,41,0,1,,,,,,,,,,,,,,,,,,,,,,,,,,,,,,,,,,,,,,,
,,,,,,,,2023-08-16_08h37.55.652,HF_wild_card,2022.2.4,MacIntel,60.0024001,632892646eb1fff474584dd7,64d2fd46c836a06233681665,64dc7cc2807e6bcc56f75d06,,,,,,,sngl,resources/Empty.png,resources/DP.BMP,Door2,0.249956371,-0.022691515,1,0,0,0.9809,optionRight,20,2530,1,42,0,42,0,1,,,,,,,,,,,,,,,,,,,,,,,,,,,,,,,,,,,,,,,
,,,,,,,,2023-08-16_08h37.55.652,HF_wild_card,2022.2.4,MacIntel,60.0024001,632892646eb1fff474584dd7,64d2fd46c836a06233681665,64dc7cc2807e6bcc56f75d06,,,,,,,sngl,resources/Empty.png,resources/DBN.BMP,WildCard_Ex,0.240256529,-0.007532077,1,0,0,0.7472,optionRight,5,2535,1,43,0,43,0,1,,,,,,,,,,,,,,,,,,,,,,,,,,,,,,,,,,,,,,,
,,,,,,,,2023-08-16_08h37.55.652,HF_wild_card,2022.2.4,MacIntel,60.0024001,632892646eb1fff474584dd7,64d2fd46c836a06233681665,64dc7cc2807e6bcc56f75d06,,,,,,,,,,,,,,,,,,,,,,,,,,0,0,0,0,1,,,,,,,,,,,,,,,,,,,,,,,,,,,,,,,,,,
,,,,,,,,2023-08-16_08h37.55.652,HF_wild_card,2022.2.4,MacIntel,60.0024001,632892646eb1fff474584dd7,64d2fd46c836a06233681665,64dc7cc2807e6bcc56f75d06,,,,,,,decisionTrl,resources/DR.BMP,resources/DP.BMP,Door2,0.271234922,-0.11151513,1,0,0,1.7873,optionRight,40,2575,2,0,0,0,0,1,,,,,,,,,,,,,,,,,,,,,,,,,,,,,,,,,,,,,,,
,,,,,,,,2023-08-16_08h37.55.652,HF_wild_card,2022.2.4,MacIntel,60.0024001,632892646eb1fff474584dd7,64d2fd46c836a06233681665,64dc7cc2807e6bcc56f75d06,,,,,,,ctch,resources/DB.BMP,resources/DP.BMP,Door3,-0.248069594,0.000407297,1,0,0,1.5161,optionLeft,70,2645,2,1,0,1,0,1,,,,,,,,,,,,,,,,,,,,,,,,,,,,,,,,,,,,,,,
,,,,,,,,2023-08-16_08h37.55.652,HF_wild_card,2022.2.4,MacIntel,60.0024001,632892646eb1fff474584dd7,64d2fd46c836a06233681665,64dc7cc2807e6bcc56f75d06,,,,,,,ctch,resources/DR.BMP,resources/DY.BMP,Door4,0.2711072,-0.005836317,1,0,0,1.4482,optionRight,60,2705,2,2,0,2,0,1,,,,,,,,,,,,,,,,,,,,,,,,,,,,,,,,,,,,,,,
,,,,,,,,2023-08-16_08h37.55.652,HF_wild_card,2022.2.4,MacIntel,60.0024001,632892646eb1fff474584dd7,64d2fd46c836a06233681665,64dc7cc2807e6bcc56f75d06,,,,,,,ctch,resources/DP.BMP,resources/DB.BMP,Door3,0.245881935,-0.029928589,1,0,0,1.2813,optionRight,70,2775,2,3,0,3,0,1,,,,,,,,,,,,,,,,,,,,,,,,,,,,,,,,,,,,,,,
,,,,,,,,2023-08-16_08h37.55.652,HF_wild_card,2022.2.4,MacIntel,60.0024001,632892646eb1fff474584dd7,64d2fd46c836a06233681665,64dc7cc2807e6bcc56f75d06,,,,,,,sngl,resources/DY.BMP,resources/Empty.png,Door4,-0.241696732,0.020124478,1,0,0,0.8141,optionLeft,60,2835,2,4,0,4,0,1,,,,,,,,,,,,,,,,,,,,,,,,,,,,,,,,,,,,,,,
,,,,,,,,2023-08-16_08h37.55.652,HF_wild_card,2022.2.4,MacIntel,60.0024001,632892646eb1fff474584dd7,64d2fd46c836a06233681665,64dc7cc2807e6bcc56f75d06,,,,,,,decisionTrl,resources/DBN.BMP,resources/DR.BMP,WildCard_Ex,-0.248936632,0.025733609,1,0,0,2.6979,optionLeft,95,2930,2,5,0,5,0,1,,,,,,,,,,,,,,,,,,,,,,,,,,,,,,,,,,,,,,,
,,,,,,,,2023-08-16_08h37.55.652,HF_wild_card,2022.2.4,MacIntel,60.0024001,632892646eb1fff474584dd7,64d2fd46c836a06233681665,64dc7cc2807e6bcc56f75d06,,,,,,,sngl,resources/Empty.png,resources/DBN.BMP,WildCard_Ex,0.27770058,-0.006965185,1,0,0,0.7116,optionRight,95,3025,2,6,0,6,0,1,,,,,,,,,,,,,,,,,,,,,,,,,,,,,,,,,,,,,,,
,,,,,,,,2023-08-16_08h37.55.652,HF_wild_card,2022.2.4,MacIntel,60.0024001,632892646eb1fff474584dd7,64d2fd46c836a06233681665,64dc7cc2807e6bcc56f75d06,,,,,,,ctch,resources/DP.BMP,resources/DB.BMP,Door3,0.350646521,0.011767691,1,0,0,2.2959,optionRight,70,3095,2,7,0,7,0,1,,,,,,,,,,,,,,,,,,,,,,,,,,,,,,,,,,,,,,,
,,,,,,,,2023-08-16_08h37.55.652,HF_wild_card,2022.2.4,MacIntel,60.0024001,632892646eb1fff474584dd7,64d2fd46c836a06233681665,64dc7cc2807e6bcc56f75d06,,,,,,,decisionTrl,resources/DB.BMP,resources/DY.BMP,Door3,-0.222499424,0.02164804,1,0,0,1.4826,optionLeft,70,3165,2,8,0,8,0,1,,,,,,,,,,,,,,,,,,,,,,,,,,,,,,,,,,,,,,,
,,,,,,,,2023-08-16_08h37.55.652,HF_wild_card,2022.2.4,MacIntel,60.0024001,632892646eb1fff474584dd7,64d2fd46c836a06233681665,64dc7cc2807e6bcc56f75d06,,,,,,,decisionTrl,resources/DP.BMP,resources/DBN.BMP,WildCard_Ex,0.27559871,-0.034986369,1,0,0,1.2294,optionRight,5,3170,2,9,0,9,0,1,,,,,,,,,,,,,,,,,,,,,,,,,,,,,,,,,,,,,,,
,,,,,,,,2023-08-16_08h37.55.652,HF_wild_card,2022.2.4,MacIntel,60.0024001,632892646eb1fff474584dd7,64d2fd46c836a06233681665,64dc7cc2807e6bcc56f75d06,,,,,,,sngl,resources/DB.BMP,resources/Empty.png,Door3,-0.326671572,-0.001722322,1,0,0,0.9825,optionLeft,70,3240,2,10,0,10,0,1,,,,,,,,,,,,,,,,,,,,,,,,,,,,,,,,,,,,,,,
,,,,,,,,2023-08-16_08h37.55.652,HF_wild_card,2022.2.4,MacIntel,60.0024001,632892646eb1fff474584dd7,64d2fd46c836a06233681665,64dc7cc2807e6bcc56f75d06,,,,,,,decisionTrl,resources/DP.BMP,resources/DR.BMP,Door2,-0.213155845,0.004776227,1,0,0,1.8133,optionLeft,40,3280,2,11,0,11,0,1,,,,,,,,,,,,,,,,,,,,,,,,,,,,,,,,,,,,,,,
,,,,,,,,2023-08-16_08h37.55.652,HF_wild_card,2022.2.4,MacIntel,60.0024001,632892646eb1fff474584dd7,64d2fd46c836a06233681665,64dc7cc2807e6bcc56f75d06,,,,,,,decisionTrl,resources/DR.BMP,resources/DP.BMP,Door2,0.193887894,-0.003010955,1,0,0,2.1966,optionRight,40,3320,2,12,0,12,0,1,,,,,,,,,,,,,,,,,,,,,,,,,,,,,,,,,,,,,,,
,,,,,,,,2023-08-16_08h37.55.652,HF_wild_card,2022.2.4,MacIntel,60.0024001,632892646eb1fff474584dd7,64d2fd46c836a06233681665,64dc7cc2807e6bcc56f75d06,,,,,,,decisionTrl,resources/DBN.BMP,resources/DB.BMP,WildCard_Ex,-0.233653824,0.013544888,1,0,0,1.0159,optionLeft,95,3415,2,13,0,13,0,1,,,,,,,,,,,,,,,,,,,,,,,,,,,,,,,,,,,,,,,
,,,,,,,,2023-08-16_08h37.55.652,HF_wild_card,2022.2.4,MacIntel,60.0024001,632892646eb1fff474584dd7,64d2fd46c836a06233681665,64dc7cc2807e6bcc56f75d06,,,,,,,decisionTrl,resources/DB.BMP,resources/DY.BMP,Door4,0.242451647,0.034236936,1,0,0,3.4825,optionRight,80,3495,2,14,0,14,0,1,,,,,,,,,,,,,,,,,,,,,,,,,,,,,,,,,,,,,,,
,,,,,,,,2023-08-16_08h37.55.652,HF_wild_card,2022.2.4,MacIntel,60.0024001,632892646eb1fff474584dd7,64d2fd46c836a06233681665,64dc7cc2807e6bcc56f75d06,,,,,,,sngl,resources/DR.BMP,resources/Empty.png,Door1,-0.332398817,0.017862504,1,0,0,0.9482,optionLeft,30,3525,2,15,0,15,0,1,,,,,,,,,,,,,,,,,,,,,,,,,,,,,,,,,,,,,,,
,,,,,,,,2023-08-16_08h37.55.652,HF_wild_card,2022.2.4,MacIntel,60.0024001,632892646eb1fff474584dd7,64d2fd46c836a06233681665,64dc7cc2807e6bcc56f75d06,,,,,,,decisionTrl,resources/DB.BMP,resources/DBN.BMP,Door3,-0.212151647,0.034001301,1,0,0,4.1619,optionLeft,70,3595,2,16,0,16,0,1,,,,,,,,,,,,,,,,,,,,,,,,,,,,,,,,,,,,,,,
,,,,,,,,2023-08-16_08h37.55.652,HF_wild_card,2022.2.4,MacIntel,60.0024001,632892646eb1fff474584dd7,64d2fd46c836a06233681665,64dc7cc2807e6bcc56f75d06,,,,,,,decisionTrl,resources/DBN.BMP,resources/DP.BMP,WildCard_Ex,-0.252761841,0.039201525,1,0,0,1.5959,optionLeft,5,3600,2,17,0,17,0,1,,,,,,,,,,,,,,,,,,,,,,,,,,,,,,,,,,,,,,,
,,,,,,,,2023-08-16_08h37.55.652,HF_wild_card,2022.2.4,MacIntel,60.0024001,632892646eb1fff474584dd7,64d2fd46c836a06233681665,64dc7cc2807e6bcc56f75d06,,,,,,,ctch,resources/DY.BMP,resources/DR.BMP,Door4,-0.351686887,0.047330616,1,0,0,1.8655,optionLeft,60,3660,2,18,0,18,0,1,,,,,,,,,,,,,,,,,,,,,,,,,,,,,,,,,,,,,,,
,,,,,,,,2023-08-16_08h37.55.652,HF_wild_card,2022.2.4,MacIntel,60.0024001,632892646eb1fff474584dd7,64d2fd46c836a06233681665,64dc7cc2807e6bcc56f75d06,,,,,,,decisionTrl,resources/DY.BMP,resources/DB.BMP,Door4,-0.220901828,0.0061216,1,0,0,0.798,optionLeft,80,3740,2,19,0,19,0,1,,,,,,,,,,,,,,,,,,,,,,,,,,,,,,,,,,,,,,,
,,,,,,,,2023-08-16_08h37.55.652,HF_wild_card,2022.2.4,MacIntel,60.0024001,632892646eb1fff474584dd7,64d2fd46c836a06233681665,64dc7cc2807e6bcc56f75d06,,,,,,,ctch,resources/DR.BMP,resources/DY.BMP,Door4,0.22048046,-0.000180223,1,0,0,1.1166,optionRight,60,3800,2,20,0,20,0,1,,,,,,,,,,,,,,,,,,,,,,,,,,,,,,,,,,,,,,,
,,,,,,,,2023-08-16_08h37.55.652,HF_wild_card,2022.2.4,MacIntel,60.0024001,632892646eb1fff474584dd7,64d2fd46c836a06233681665,64dc7cc2807e6bcc56f75d06,,,,,,,decisionTrl,resources/DR.BMP,resources/DBN.BMP,WildCard_Ex,0.23387259,-0.00317688,1,0,0,2.0624,optionRight,5,3805,2,21,0,21,0,1,,,,,,,,,,,,,,,,,,,,,,,,,,,,,,,,,,,,,,,
,,,,,,,,2023-08-16_08h37.55.652,HF_wild_card,2022.2.4,MacIntel,60.0024001,632892646eb1fff474584dd7,64d2fd46c836a06233681665,64dc7cc2807e6bcc56f75d06,,,,,,,decisionTrl,resources/DP.BMP,resources/DR.BMP,Door2,-0.246672171,0.009357029,1,0,0,2.2473,optionLeft,20,3825,2,22,0,22,0,1,,,,,,,,,,,,,,,,,,,,,,,,,,,,,,,,,,,,,,,
,,,,,,,,2023-08-16_08h37.55.652,HF_wild_card,2022.2.4,MacIntel,60.0024001,632892646eb1fff474584dd7,64d2fd46c836a06233681665,64dc7cc2807e6bcc56f75d06,,,,,,,decisionTrl,resources/DY.BMP,resources/DB.BMP,Door3,0.259624905,-0.020257964,1,0,0,1.4148,optionRight,70,3895,2,23,0,23,0,1,,,,,,,,,,,,,,,,,,,,,,,,,,,,,,,,,,,,,,,
,,,,,,,,2023-08-16_08h37.55.652,HF_wild_card,2022.2.4,MacIntel,60.0024001,632892646eb1fff474584dd7,64d2fd46c836a06233681665,64dc7cc2807e6bcc56f75d06,,,,,,,decisionTrl,resources/DR.BMP,resources/DP.BMP,Door2,0.346369765,-0.013847408,1,0,0,5.0815,optionRight,40,3935,2,24,0,24,0,1,,,,,,,,,,,,,,,,,,,,,,,,,,,,,,,,,,,,,,,
,,,,,,,,2023-08-16_08h37.55.652,HF_wild_card,2022.2.4,MacIntel,60.0024001,632892646eb1fff474584dd7,64d2fd46c836a06233681665,64dc7cc2807e6bcc56f75d06,,,,,,,decisionTrl,resources/DP.BMP,resources/DR.BMP,Door2,-0.280477679,0.020754214,1,0,0,3.9455,optionLeft,40,3975,2,25,0,25,0,1,,,,,,,,,,,,,,,,,,,,,,,,,,,,,,,,,,,,,,,
,,,,,,,,2023-08-16_08h37.55.652,HF_wild_card,2022.2.4,MacIntel,60.0024001,632892646eb1fff474584dd7,64d2fd46c836a06233681665,64dc7cc2807e6bcc56f75d06,,,,,,,sngl,resources/DBN.BMP,resources/Empty.png,WildCard_Ex,-0.234137754,0.04442619,1,0,0,1.0483,optionLeft,95,4070,2,26,0,26,0,1,,,,,,,,,,,,,,,,,,,,,,,,,,,,,,,,,,,,,,,
,,,,,,,,2023-08-16_08h37.55.652,HF_wild_card,2022.2.4,MacIntel,60.0024001,632892646eb1fff474584dd7,64d2fd46c836a06233681665,64dc7cc2807e6bcc56f75d06,,,,,,,sngl,resources/Empty.png,resources/DP.BMP,Door2,0.252831014,-0.025142641,1,0,0,1.2482,optionRight,40,4110,2,27,0,27,0,1,,,,,,,,,,,,,,,,,,,,,,,,,,,,,,,,,,,,,,,
,,,,,,,,2023-08-16_08h37.55.652,HF_wild_card,2022.2.4,MacIntel,60.0024001,632892646eb1fff474584dd7,64d2fd46c836a06233681665,64dc7cc2807e6bcc56f75d06,,,,,,,sngl,resources/Empty.png,resources/DY.BMP,Door4,0.283933851,-0.011443583,1,0,0,1.062,optionRight,80,4190,2,28,0,28,0,1,,,,,,,,,,,,,,,,,,,,,,,,,,,,,,,,,,,,,,,
,,,,,,,,2023-08-16_08h37.55.652,HF_wild_card,2022.2.4,MacIntel,60.0024001,632892646eb1fff474584dd7,64d2fd46c836a06233681665,64dc7cc2807e6bcc56f75d06,,,,,,,decisionTrl,resources/DP.BMP,resources/DR.BMP,Door2,-0.30037661,0.022981827,1,0,0,1.9808,optionLeft,40,4230,2,29,0,29,0,1,,,,,,,,,,,,,,,,,,,,,,,,,,,,,,,,,,,,,,,
,,,,,,,,2023-08-16_08h37.55.652,HF_wild_card,2022.2.4,MacIntel,60.0024001,632892646eb1fff474584dd7,64d2fd46c836a06233681665,64dc7cc2807e6bcc56f75d06,,,,,,,ctch,resources/DB.BMP,resources/DP.BMP,Door3,-0.286966621,0.010334326,1,0,0,1.5297,optionLeft,70,4300,2,30,0,30,0,1,,,,,,,,,,,,,,,,,,,,,,,,,,,,,,,,,,,,,,,
,,,,,,,,2023-08-16_08h37.55.652,HF_wild_card,2022.2.4,MacIntel,60.0024001,632892646eb1fff474584dd7,64d2fd46c836a06233681665,64dc7cc2807e6bcc56f75d06,,,,,,,decisionTrl,resources/DY.BMP,resources/DB.BMP,Door3,0.252887076,-0.002223206,1,0,0,0.8673,optionRight,70,4370,2,31,0,31,0,1,,,,,,,,,,,,,,,,,,,,,,,,,,,,,,,,,,,,,,,
,,,,,,,,2023-08-16_08h37.55.652,HF_wild_card,2022.2.4,MacIntel,60.0024001,632892646eb1fff474584dd7,64d2fd46c836a06233681665,64dc7cc2807e6bcc56f75d06,,,,,,,sngl,resources/DP.BMP,resources/Empty.png,Door2,-0.277859384,0.022747351,1,0,0,0.7616,optionLeft,20,4390,2,32,0,32,0,1,,,,,,,,,,,,,,,,,,,,,,,,,,,,,,,,,,,,,,,
,,,,,,,,2023-08-16_08h37.55.652,HF_wild_card,2022.2.4,MacIntel,60.0024001,632892646eb1fff474584dd7,64d2fd46c836a06233681665,64dc7cc2807e6bcc56f75d06,,,,,,,decisionTrl,resources/DB.BMP,resources/DY.BMP,Door3,-0.219654564,0.020117074,1,0,0,1.2837,optionLeft,70,4460,2,33,0,33,0,1,,,,,,,,,,,,,,,,,,,,,,,,,,,,,,,,,,,,,,,
,,,,,,,,2023-08-16_08h37.55.652,HF_wild_card,2022.2.4,MacIntel,60.0024001,632892646eb1fff474584dd7,64d2fd46c836a06233681665,64dc7cc2807e6bcc56f75d06,,,,,,,decisionTrl,resources/DR.BMP,resources/DP.BMP,Door1,-0.276754365,-0.001059638,1,0,0,1.9641,optionLeft,30,4490,2,34,0,34,0,1,,,,,,,,,,,,,,,,,,,,,,,,,,,,,,,,,,,,,,,
,,,,,,,,2023-08-16_08h37.55.652,HF_wild_card,2022.2.4,MacIntel,60.0024001,632892646eb1fff474584dd7,64d2fd46c836a06233681665,64dc7cc2807e6bcc56f75d06,,,,,,,decisionTrl,resources/DY.BMP,resources/DB.BMP,Door4,-0.26568044,0.010796328,1,0,0,0.9974,optionLeft,80,4570,2,35,0,35,0,1,,,,,,,,,,,,,,,,,,,,,,,,,,,,,,,,,,,,,,,
,,,,,,,,2023-08-16_08h37.55.652,HF_wild_card,2022.2.4,MacIntel,60.0024001,632892646eb1fff474584dd7,64d2fd46c836a06233681665,64dc7cc2807e6bcc56f75d06,,,,,,,ctch,resources/DY.BMP,resources/DR.BMP,Door4,-0.331462662,0.012654396,1,0,0,0.811,optionLeft,80,4650,2,36,0,36,0,1,,,,,,,,,,,,,,,,,,,,,,,,,,,,,,,,,,,,,,,
,,,,,,,,2023-08-16_08h37.55.652,HF_wild_card,2022.2.4,MacIntel,60.0024001,632892646eb1fff474584dd7,64d2fd46c836a06233681665,64dc7cc2807e6bcc56f75d06,,,,,,,decisionTrl,resources/DB.BMP,resources/DY.BMP,Door4,0.256002129,-0.009775345,1,0,0,1.114,optionRight,60,4710,2,37,0,37,0,1,,,,,,,,,,,,,,,,,,,,,,,,,,,,,,,,,,,,,,,
,,,,,,,,2023-08-16_08h37.55.652,HF_wild_card,2022.2.4,MacIntel,60.0024001,632892646eb1fff474584dd7,64d2fd46c836a06233681665,64dc7cc2807e6bcc56f75d06,,,,,,,decisionTrl,resources/DY.BMP,resources/DBN.BMP,WildCard_Ex,0.443986003,-0.005088298,1,0,0,1.4647,optionRight,95,4805,2,38,0,38,0,1,,,,,,,,,,,,,,,,,,,,,,,,,,,,,,,,,,,,,,,
,,,,,,,,2023-08-16_08h37.55.652,HF_wild_card,2022.2.4,MacIntel,60.0024001,632892646eb1fff474584dd7,64d2fd46c836a06233681665,64dc7cc2807e6bcc56f75d06,,,,,,,decisionTrl,resources/DBN.BMP,resources/DY.BMP,Door4,0.242646959,-0.008560011,1,0,0,0.7501,optionRight,80,4885,2,39,0,39,0,1,,,,,,,,,,,,,,,,,,,,,,,,,,,,,,,,,,,,,,,
,,,,,,,,2023-08-16_08h37.55.652,HF_wild_card,2022.2.4,MacIntel,60.0024001,632892646eb1fff474584dd7,64d2fd46c836a06233681665,64dc7cc2807e6bcc56f75d06,,,,,,,sngl,resources/Empty.png,resources/DB.BMP,Door3,0.239949205,-0.00390512,1,0,0,0.7827,optionRight,70,4955,2,40,0,40,0,1,,,,,,,,,,,,,,,,,,,,,,,,,,,,,,,,,,,,,,,
,,,,,,,,2023-08-16_08h37.55.652,HF_wild_card,2022.2.4,MacIntel,60.0024001,632892646eb1fff474584dd7,64d2fd46c836a06233681665,64dc7cc2807e6bcc56f75d06,,,,,,,sngl,resources/Empty.png,resources/DBN.BMP,WildCard_Ex,0.254031711,0.026978076,1,0,0,2.1397,optionRight,5,4960,2,41,0,41,0,1,,,,,,,,,,,,,,,,,,,,,,,,,,,,,,,,,,,,,,,
,,,,,,,,2023-08-16_08h37.55.652,HF_wild_card,2022.2.4,MacIntel,60.0024001,632892646eb1fff474584dd7,64d2fd46c836a06233681665,64dc7cc2807e6bcc56f75d06,,,,,,,sngl,resources/Empty.png,resources/DR.BMP,Door1,0.23426152,0.035341079,1,0,0,0.8553,optionRight,30,4990,2,42,0,42,0,1,,,,,,,,,,,,,,,,,,,,,,,,,,,,,,,,,,,,,,,
,,,,,,,,2023-08-16_08h37.55.652,HF_wild_card,2022.2.4,MacIntel,60.0024001,632892646eb1fff474584dd7,64d2fd46c836a06233681665,64dc7cc2807e6bcc56f75d06,,,,,,,sngl,resources/DBN.BMP,resources/Empty.png,WildCard_Ex,-0.23454149,0.015117447,1,0,0,0.6948,optionLeft,5,4995,2,43,0,43,0,1,,,,,,,,,,,,,,,,,,,,,,,,,,,,,,,,,,,,,,,
,,,,,,,,2023-08-16_08h37.55.652,HF_wild_card,2022.2.4,MacIntel,60.0024001,632892646eb1fff474584dd7,64d2fd46c836a06233681665,64dc7cc2807e6bcc56f75d06,,,,,,,,,,,,,,,,,,,,,,,,,,1,0,1,0,1,,,,,,,,,,,,,,,,,,,,,,,,,,,,,,,,,,
,,,,,,,,2023-08-16_08h37.55.652,HF_wild_card,2022.2.4,MacIntel,60.0024001,632892646eb1fff474584dd7,64d2fd46c836a06233681665,64dc7cc2807e6bcc56f75d06,,,,,,,decisionTrl,resources/DR.BMP,resources/DBN.BMP,WildCard_Ex,0.320984904,-0.076617319,1,0,0,1.073,optionRight,95,5090,3,0,0,0,0,1,,,,,,,,,,,,,,,,,,,,,,,,,,,,,,,,,,,,,,,
,,,,,,,,2023-08-16_08h37.55.652,HF_wild_card,2022.2.4,MacIntel,60.0024001,632892646eb1fff474584dd7,64d2fd46c836a06233681665,64dc7cc2807e6bcc56f75d06,,,,,,,ctch,resources/DR.BMP,resources/DY.BMP,Door4,0.277407159,0.015375038,1,0,0,2.0976,optionRight,80,5170,3,1,0,1,0,1,,,,,,,,,,,,,,,,,,,,,,,,,,,,,,,,,,,,,,,
,,,,,,,,2023-08-16_08h37.55.652,HF_wild_card,2022.2.4,MacIntel,60.0024001,632892646eb1fff474584dd7,64d2fd46c836a06233681665,64dc7cc2807e6bcc56f75d06,,,,,,,decisionTrl,resources/DR.BMP,resources/DP.BMP,Door2,0.24410796,-0.013891884,1,0,0,1.2996,optionRight,40,5210,3,2,0,2,0,1,,,,,,,,,,,,,,,,,,,,,,,,,,,,,,,,,,,,,,,
,,,,,,,,2023-08-16_08h37.55.652,HF_wild_card,2022.2.4,MacIntel,60.0024001,632892646eb1fff474584dd7,64d2fd46c836a06233681665,64dc7cc2807e6bcc56f75d06,,,,,,,decisionTrl,resources/DR.BMP,resources/DP.BMP,Door2,0.251966236,-0.000458216,1,0,0,0.9993,optionRight,20,5230,3,3,0,3,0,1,,,,,,,,,,,,,,,,,,,,,,,,,,,,,,,,,,,,,,,
,,,,,,,,2023-08-16_08h37.55.652,HF_wild_card,2022.2.4,MacIntel,60.0024001,632892646eb1fff474584dd7,64d2fd46c836a06233681665,64dc7cc2807e6bcc56f75d06,,,,,,,sngl,resources/Empty.png,resources/DB.BMP,Door3,0.188809317,-0.005363182,1,0,0,0.6991,optionRight,70,5300,3,4,0,4,0,1,,,,,,,,,,,,,,,,,,,,,,,,,,,,,,,,,,,,,,,
,,,,,,,,2023-08-16_08h37.55.652,HF_wild_card,2022.2.4,MacIntel,60.0024001,632892646eb1fff474584dd7,64d2fd46c836a06233681665,64dc7cc2807e6bcc56f75d06,,,,,,,ctch,resources/DY.BMP,resources/DR.BMP,Door4,-0.215999519,0.010045426,1,0,0,1.3131,optionLeft,80,5380,3,5,0,5,0,1,,,,,,,,,,,,,,,,,,,,,,,,,,,,,,,,,,,,,,,
,,,,,,,,2023-08-16_08h37.55.652,HF_wild_card,2022.2.4,MacIntel,60.0024001,632892646eb1fff474584dd7,64d2fd46c836a06233681665,64dc7cc2807e6bcc56f75d06,,,,,,,decisionTrl,resources/DBN.BMP,resources/DP.BMP,WildCard_Ex,-0.27301404,0.012318816,1,0,0,1.1491,optionLeft,95,5475,3,6,0,6,0,1,,,,,,,,,,,,,,,,,,,,,,,,,,,,,,,,,,,,,,,
,,,,,,,,2023-08-16_08h37.55.652,HF_wild_card,2022.2.4,MacIntel,60.0024001,632892646eb1fff474584dd7,64d2fd46c836a06233681665,64dc7cc2807e6bcc56f75d06,,,,,,,decisionTrl,resources/DB.BMP,resources/DY.BMP,Door4,0.2189105,-0.002226314,1,0,0,1.6502,optionRight,60,5535,3,7,0,7,0,1,,,,,,,,,,,,,,,,,,,,,,,,,,,,,,,,,,,,,,,
,,,,,,,,2023-08-16_08h37.55.652,HF_wild_card,2022.2.4,MacIntel,60.0024001,632892646eb1fff474584dd7,64d2fd46c836a06233681665,64dc7cc2807e6bcc56f75d06,,,,,,,sngl,resources/Empty.png,resources/DBN.BMP,WildCard_Ex,0.31798593,-0.017467979,1,0,0,0.7471,optionRight,95,5630,3,8,0,8,0,1,,,,,,,,,,,,,,,,,,,,,,,,,,,,,,,,,,,,,,,
,,,,,,,,2023-08-16_08h37.55.652,HF_wild_card,2022.2.4,MacIntel,60.0024001,632892646eb1fff474584dd7,64d2fd46c836a06233681665,64dc7cc2807e6bcc56f75d06,,,,,,,sngl,resources/DP.BMP,resources/Empty.png,Door2,-0.19071124,0.00174634,1,0,0,0.7153,optionLeft,40,5670,3,9,0,9,0,1,,,,,,,,,,,,,,,,,,,,,,,,,,,,,,,,,,,,,,,
,,,,,,,,2023-08-16_08h37.55.652,HF_wild_card,2022.2.4,MacIntel,60.0024001,632892646eb1fff474584dd7,64d2fd46c836a06233681665,64dc7cc2807e6bcc56f75d06,,,,,,,sngl,resources/Empty.png,resources/DY.BMP,Door4,0.232938413,0.016203704,1,0,0,0.6992,optionRight,60,5730,3,10,0,10,0,1,,,,,,,,,,,,,,,,,,,,,,,,,,,,,,,,,,,,,,,
,,,,,,,,2023-08-16_08h37.55.652,HF_wild_card,2022.2.4,MacIntel,60.0024001,632892646eb1fff474584dd7,64d2fd46c836a06233681665,64dc7cc2807e6bcc56f75d06,,,,,,,decisionTrl,resources/DB.BMP,resources/DBN.BMP,WildCard_Ex,0.149187102,0.013213094,1,0,0,1.5983,optionRight,95,5825,3,11,0,11,0,1,,,,,,,,,,,,,,,,,,,,,,,,,,,,,,,,,,,,,,,
,,,,,,,,2023-08-16_08h37.55.652,HF_wild_card,2022.2.4,MacIntel,60.0024001,632892646eb1fff474584dd7,64d2fd46c836a06233681665,64dc7cc2807e6bcc56f75d06,,,,,,,decisionTrl,resources/DP.BMP,resources/DR.BMP,Door2,-0.226953973,-0.00072694,1,0,0,1.8333,optionLeft,40,5865,3,12,0,12,0,1,,,,,,,,,,,,,,,,,,,,,,,,,,,,,,,,,,,,,,,
,,,,,,,,2023-08-16_08h37.55.652,HF_wild_card,2022.2.4,MacIntel,60.0024001,632892646eb1fff474584dd7,64d2fd46c836a06233681665,64dc7cc2807e6bcc56f75d06,,,,,,,sngl,resources/DY.BMP,resources/Empty.png,Door4,-0.223594383,0.027180311,1,0,0,0.6803,optionLeft,80,5945,3,13,0,13,0,1,,,,,,,,,,,,,,,,,,,,,,,,,,,,,,,,,,,,,,,
,,,,,,,,2023-08-16_08h37.55.652,HF_wild_card,2022.2.4,MacIntel,60.0024001,632892646eb1fff474584dd7,64d2fd46c836a06233681665,64dc7cc2807e6bcc56f75d06,,,,,,,sngl,resources/Empty.png,resources/DP.BMP,Door2,0.251872875,-0.004776792,1,0,0,0.6976,optionRight,20,5965,3,14,0,14,0,1,,,,,,,,,,,,,,,,,,,,,,,,,,,,,,,,,,,,,,,
,,,,,,,,2023-08-16_08h37.55.652,HF_wild_card,2022.2.4,MacIntel,60.0024001,632892646eb1fff474584dd7,64d2fd46c836a06233681665,64dc7cc2807e6bcc56f75d06,,,,,,,ctch,resources/DB.BMP,resources/DP.BMP,Door2,0.221639223,0.008060597,1,0,0,1.781,optionRight,40,6005,3,15,0,15,0,1,,,,,,,,,,,,,,,,,,,,,,,,,,,,,,,,,,,,,,,
,,,,,,,,2023-08-16_08h37.55.652,HF_wild_card,2022.2.4,MacIntel,60.0024001,632892646eb1fff474584dd7,64d2fd46c836a06233681665,64dc7cc2807e6bcc56f75d06,,,,,,,decisionTrl,resources/DY.BMP,resources/DB.BMP,Door4,-0.250108394,-0.010119742,1,0,0,0.7808,optionLeft,80,6085,3,16,0,16,0,1,,,,,,,,,,,,,,,,,,,,,,,,,,,,,,,,,,,,,,,
,,,,,,,,2023-08-16_08h37.55.652,HF_wild_card,2022.2.4,MacIntel,60.0024001,632892646eb1fff474584dd7,64d2fd46c836a06233681665,64dc7cc2807e6bcc56f75d06,,,,,,,decisionTrl,resources/DY.BMP,resources/DB.BMP,Door4,-0.231634861,0.03727174,1,0,0,0.7158,optionLeft,60,6145,3,17,0,17,0,1,,,,,,,,,,,,,,,,,,,,,,,,,,,,,,,,,,,,,,,
,,,,,,,,2023-08-16_08h37.55.652,HF_wild_card,2022.2.4,MacIntel,60.0024001,632892646eb1fff474584dd7,64d2fd46c836a06233681665,64dc7cc2807e6bcc56f75d06,,,,,,,decisionTrl,resources/DP.BMP,resources/DBN.BMP,WildCard_Ex,0.289638717,-0.004141348,1,0,0,1.2975,optionRight,5,6150,3,18,0,18,0,1,,,,,,,,,,,,,,,,,,,,,,,,,,,,,,,,,,,,,,,
,,,,,,,,2023-08-16_08h37.55.652,HF_wild_card,2022.2.4,MacIntel,60.0024001,632892646eb1fff474584dd7,64d2fd46c836a06233681665,64dc7cc2807e6bcc56f75d06,,,,,,,sngl,resources/Empty.png,resources/DBN.BMP,WildCard_Ex,0.229569951,0.003730604,1,0,0,0.8318,optionRight,5,6155,3,19,0,19,0,1,,,,,,,,,,,,,,,,,,,,,,,,,,,,,,,,,,,,,,,
,,,,,,,,2023-08-16_08h37.55.652,HF_wild_card,2022.2.4,MacIntel,60.0024001,632892646eb1fff474584dd7,64d2fd46c836a06233681665,64dc7cc2807e6bcc56f75d06,,,,,,,ctch,resources/DB.BMP,resources/DP.BMP,Door3,-0.297337115,0.006402814,1,0,0,1.2142,optionLeft,70,6225,3,20,0,20,0,1,,,,,,,,,,,,,,,,,,,,,,,,,,,,,,,,,,,,,,,
,,,,,,,,2023-08-16_08h37.55.652,HF_wild_card,2022.2.4,MacIntel,60.0024001,632892646eb1fff474584dd7,64d2fd46c836a06233681665,64dc7cc2807e6bcc56f75d06,,,,,,,decisionTrl,resources/DB.BMP,resources/DY.BMP,Door3,-0.235526304,0.020645989,1,0,0,0.7485,optionLeft,70,6295,3,21,0,21,0,1,,,,,,,,,,,,,,,,,,,,,,,,,,,,,,,,,,,,,,,
,,,,,,,,2023-08-16_08h37.55.652,HF_wild_card,2022.2.4,MacIntel,60.0024001,632892646eb1fff474584dd7,64d2fd46c836a06233681665,64dc7cc2807e6bcc56f75d06,,,,,,,ctch,resources/DY.BMP,resources/DR.BMP,Door4,-0.250740842,0.015403635,1,0,0,0.6978,optionLeft,80,6375,3,22,0,22,0,1,,,,,,,,,,,,,,,,,,,,,,,,,,,,,,,,,,,,,,,
,,,,,,,,2023-08-16_08h37.55.652,HF_wild_card,2022.2.4,MacIntel,60.0024001,632892646eb1fff474584dd7,64d2fd46c836a06233681665,64dc7cc2807e6bcc56f75d06,,,,,,,decisionTrl,resources/DY.BMP,resources/DB.BMP,Door4,-0.237842249,0.019279028,1,0,0,0.6669,optionLeft,80,6455,3,23,0,23,0,1,,,,,,,,,,,,,,,,,,,,,,,,,,,,,,,,,,,,,,,
,,,,,,,,2023-08-16_08h37.55.652,HF_wild_card,2022.2.4,MacIntel,60.0024001,632892646eb1fff474584dd7,64d2fd46c836a06233681665,64dc7cc2807e6bcc56f75d06,,,,,,,sngl,resources/DR.BMP,resources/Empty.png,Door1,-0.306465375,0.022492359,1,0,0,0.8489,optionLeft,30,6485,3,24,0,24,0,1,,,,,,,,,,,,,,,,,,,,,,,,,,,,,,,,,,,,,,,
,,,,,,,,2023-08-16_08h37.55.652,HF_wild_card,2022.2.4,MacIntel,60.0024001,632892646eb1fff474584dd7,64d2fd46c836a06233681665,64dc7cc2807e6bcc56f75d06,,,,,,,decisionTrl,resources/DP.BMP,resources/DR.BMP,Door2,-0.229948934,0.001428336,1,0,0,1.2484,optionLeft,20,6505,3,25,0,25,0,1,,,,,,,,,,,,,,,,,,,,,,,,,,,,,,,,,,,,,,,
,,,,,,,,2023-08-16_08h37.55.652,HF_wild_card,2022.2.4,MacIntel,60.0024001,632892646eb1fff474584dd7,64d2fd46c836a06233681665,64dc7cc2807e6bcc56f75d06,,,,,,,decisionTrl,resources/DBN.BMP,resources/DY.BMP,WildCard_Ex,-0.273248121,0.029260932,1,0,0,0.931,optionLeft,5,6510,3,26,0,26,0,1,,,,,,,,,,,,,,,,,,,,,,,,,,,,,,,,,,,,,,,
,,,,,,,,2023-08-16_08h37.55.652,HF_wild_card,2022.2.4,MacIntel,60.0024001,632892646eb1fff474584dd7,64d2fd46c836a06233681665,64dc7cc2807e6bcc56f75d06,,,,,,,decisionTrl,resources/DB.BMP,resources/DY.BMP,Door3,-0.22218594,0.026999636,1,0,0,1.4145,optionLeft,70,6580,3,27,0,27,0,1,,,,,,,,,,,,,,,,,,,,,,,,,,,,,,,,,,,,,,,
,,,,,,,,2023-08-16_08h37.55.652,HF_wild_card,2022.2.4,MacIntel,60.0024001,632892646eb1fff474584dd7,64d2fd46c836a06233681665,64dc7cc2807e6bcc56f75d06,,,,,,,decisionTrl,resources/DBN.BMP,resources/DR.BMP,WildCard_Ex,-0.249631811,0.054709145,1,0,0,2.514,optionLeft,5,6585,3,28,0,28,0,1,,,,,,,,,,,,,,,,,,,,,,,,,,,,,,,,,,,,,,,
,,,,,,,,2023-08-16_08h37.55.652,HF_wild_card,2022.2.4,MacIntel,60.0024001,632892646eb1fff474584dd7,64d2fd46c836a06233681665,64dc7cc2807e6bcc56f75d06,,,,,,,decisionTrl,resources/DBN.BMP,resources/DB.BMP,Door3,0.307782887,0.009516172,1,0,0,0.9133,optionRight,70,6655,3,29,0,29,0,1,,,,,,,,,,,,,,,,,,,,,,,,,,,,,,,,,,,,,,,
,,,,,,,,2023-08-16_08h37.55.652,HF_wild_card,2022.2.4,MacIntel,60.0024001,632892646eb1fff474584dd7,64d2fd46c836a06233681665,64dc7cc2807e6bcc56f75d06,,,,,,,decisionTrl,resources/DY.BMP,resources/DBN.BMP,Door4,-0.251167919,-0.001450941,1,0,0,1.1985,optionLeft,80,6735,3,30,0,30,0,1,,,,,,,,,,,,,,,,,,,,,,,,,,,,,,,,,,,,,,,
,,,,,,,,2023-08-16_08h37.55.652,HF_wild_card,2022.2.4,MacIntel,60.0024001,632892646eb1fff474584dd7,64d2fd46c836a06233681665,64dc7cc2807e6bcc56f75d06,,,,,,,ctch,resources/DR.BMP,resources/DY.BMP,Door4,0.249452944,-0.011282575,1,0,0,1.4808,optionRight,60,6795,3,31,0,31,0,1,,,,,,,,,,,,,,,,,,,,,,,,,,,,,,,,,,,,,,,
,,,,,,,,2023-08-16_08h37.55.652,HF_wild_card,2022.2.4,MacIntel,60.0024001,632892646eb1fff474584dd7,64d2fd46c836a06233681665,64dc7cc2807e6bcc56f75d06,,,,,,,decisionTrl,resources/DP.BMP,resources/DR.BMP,Door2,-0.213082942,0.002017268,1,0,0,1.8982,optionLeft,40,6835,3,32,0,32,0,1,,,,,,,,,,,,,,,,,,,,,,,,,,,,,,,,,,,,,,,
,,,,,,,,2023-08-16_08h37.55.652,HF_wild_card,2022.2.4,MacIntel,60.0024001,632892646eb1fff474584dd7,64d2fd46c836a06233681665,64dc7cc2807e6bcc56f75d06,,,,,,,decisionTrl,resources/DR.BMP,resources/DP.BMP,Door2,0.24757487,-0.004090938,1,0,0,0.845,optionRight,20,6855,3,33,0,33,0,1,,,,,,,,,,,,,,,,,,,,,,,,,,,,,,,,,,,,,,,
,,,,,,,,2023-08-16_08h37.55.652,HF_wild_card,2022.2.4,MacIntel,60.0024001,632892646eb1fff474584dd7,64d2fd46c836a06233681665,64dc7cc2807e6bcc56f75d06,,,,,,,sngl,resources/DBN.BMP,resources/Empty.png,WildCard_Ex,-0.202228857,0.043740619,1,0,0,0.6995,optionLeft,95,6950,3,34,0,34,0,1,,,,,,,,,,,,,,,,,,,,,,,,,,,,,,,,,,,,,,,
,,,,,,,,2023-08-16_08h37.55.652,HF_wild_card,2022.2.4,MacIntel,60.0024001,632892646eb1fff474584dd7,64d2fd46c836a06233681665,64dc7cc2807e6bcc56f75d06,,,,,,,ctch,resources/DP.BMP,resources/DB.BMP,Door3,0.20735078,0.013796658,1,0,0,1.8989,optionRight,70,7020,3,35,0,35,0,1,,,,,,,,,,,,,,,,,,,,,,,,,,,,,,,,,,,,,,,
,,,,,,,,2023-08-16_08h37.55.652,HF_wild_card,2022.2.4,MacIntel,60.0024001,632892646eb1fff474584dd7,64d2fd46c836a06233681665,64dc7cc2807e6bcc56f75d06,,,,,,,decisionTrl,resources/DY.BMP,resources/DB.BMP,Door3,0.248523288,0.005535041,1,0,0,2.5311,optionRight,70,7090,3,36,0,36,0,1,,,,,,,,,,,,,,,,,,,,,,,,,,,,,,,,,,,,,,,
,,,,,,,,2023-08-16_08h37.55.652,HF_wild_card,2022.2.4,MacIntel,60.0024001,632892646eb1fff474584dd7,64d2fd46c836a06233681665,64dc7cc2807e6bcc56f75d06,,,,,,,decisionTrl,resources/DP.BMP,resources/DR.BMP,Door2,-0.422136264,-0.012110166,1,0,0,1.582,optionLeft,40,7130,3,37,0,37,0,1,,,,,,,,,,,,,,,,,,,,,,,,,,,,,,,,,,,,,,,
,,,,,,,,2023-08-16_08h37.55.652,HF_wild_card,2022.2.4,MacIntel,60.0024001,632892646eb1fff474584dd7,64d2fd46c836a06233681665,64dc7cc2807e6bcc56f75d06,,,,,,,decisionTrl,resources/DR.BMP,resources/DP.BMP,Door2,0.25907265,-0.018111731,1,0,0,0.8793,optionRight,20,7150,3,38,0,38,0,1,,,,,,,,,,,,,,,,,,,,,,,,,,,,,,,,,,,,,,,
,,,,,,,,2023-08-16_08h37.55.652,HF_wild_card,2022.2.4,MacIntel,60.0024001,632892646eb1fff474584dd7,64d2fd46c836a06233681665,64dc7cc2807e6bcc56f75d06,,,,,,,decisionTrl,resources/DB.BMP,resources/DY.BMP,Door4,0.216803996,0.004618666,1,0,0,1.6819,optionRight,80,7230,3,39,0,39,0,1,,,,,,,,,,,,,,,,,,,,,,,,,,,,,,,,,,,,,,,
,,,,,,,,2023-08-16_08h37.55.652,HF_wild_card,2022.2.4,MacIntel,60.0024001,632892646eb1fff474584dd7,64d2fd46c836a06233681665,64dc7cc2807e6bcc56f75d06,,,,,,,sngl,resources/DB.BMP,resources/Empty.png,Door3,-0.248634282,0.005561546,1,0,0,0.7311,optionLeft,70,7300,3,40,0,40,0,1,,,,,,,,,,,,,,,,,,,,,,,,,,,,,,,,,,,,,,,
,,,,,,,,2023-08-16_08h37.55.652,HF_wild_card,2022.2.4,MacIntel,60.0024001,632892646eb1fff474584dd7,64d2fd46c836a06233681665,64dc7cc2807e6bcc56f75d06,,,,,,,sngl,resources/Empty.png,resources/DR.BMP,Door1,0.222334685,-0.005149728,1,0,0,0.798,optionRight,30,7330,3,41,0,41,0,1,,,,,,,,,,,,,,,,,,,,,,,,,,,,,,,,,,,,,,,
,,,,,,,,2023-08-16_08h37.55.652,HF_wild_card,2022.2.4,MacIntel,60.0024001,632892646eb1fff474584dd7,64d2fd46c836a06233681665,64dc7cc2807e6bcc56f75d06,,,,,,,ctch,resources/DP.BMP,resources/DB.BMP,Door2,-0.265209,0.01600777,1,0,0,0.8659,optionLeft,40,7370,3,42,0,42,0,1,,,,,,,,,,,,,,,,,,,,,,,,,,,,,,,,,,,,,,,
,,,,,,,,2023-08-16_08h37.55.652,HF_wild_card,2022.2.4,MacIntel,60.0024001,632892646eb1fff474584dd7,64d2fd46c836a06233681665,64dc7cc2807e6bcc56f75d06,,,,,,,sngl,resources/DBN.BMP,resources/Empty.png,WildCard_Ex,-0.274933257,0.036187603,1,0,0,0.6147,optionLeft,5,7375,3,43,0,43,0,1,,,,,,,,,,,,,,,,,,,,,,,,,,,,,,,,,,,,,,,
,,,,,,,,2023-08-16_08h37.55.652,HF_wild_card,2022.2.4,MacIntel,60.0024001,632892646eb1fff474584dd7,64d2fd46c836a06233681665,64dc7cc2807e6bcc56f75d06,,,,,,,,,,,,,,,,,,,,,,,,,,2,0,2,0,1,,,,,,,,,,,,,,,,,,,,,,,,,,,,,,,,,,
,,,,,,,,2023-08-16_08h37.55.652,HF_wild_card,2022.2.4,MacIntel,60.0024001,632892646eb1fff474584dd7,64d2fd46c836a06233681665,64dc7cc2807e6bcc56f75d06,,,,,,,ctch,resources/DR.BMP,resources/DY.BMP,Door1,-0.269954427,-0.107585766,1,0,0,1.6726,optionLeft,30,7405,4,0,0,0,0,1,,,,,,,,,,,,,,,,,,,,,,,,,,,,,,,,,,,,,,,
,,,,,,,,2023-08-16_08h37.55.652,HF_wild_card,2022.2.4,MacIntel,60.0024001,632892646eb1fff474584dd7,64d2fd46c836a06233681665,64dc7cc2807e6bcc56f75d06,,,,,,,sngl,resources/DP.BMP,resources/Empty.png,Door2,-0.31096943,-0.008304116,1,0,0,1.5645,optionLeft,20,7425,4,1,0,1,0,1,,,,,,,,,,,,,,,,,,,,,,,,,,,,,,,,,,,,,,,
,,,,,,,,2023-08-16_08h37.55.652,HF_wild_card,2022.2.4,MacIntel,60.0024001,632892646eb1fff474584dd7,64d2fd46c836a06233681665,64dc7cc2807e6bcc56f75d06,,,,,,,decisionTrl,resources/DY.BMP,resources/DG.BMP,WildCard_NonEx,0.280466715,0.010762985,1,0,0,0.963,optionRight,55,7480,4,2,0,2,0,1,,,,,,,,,,,,,,,,,,,,,,,,,,,,,,,,,,,,,,,
,,,,,,,,2023-08-16_08h37.55.652,HF_wild_card,2022.2.4,MacIntel,60.0024001,632892646eb1fff474584dd7,64d2fd46c836a06233681665,64dc7cc2807e6bcc56f75d06,,,,,,,sngl,resources/Empty.png,resources/DB.BMP,Door3,0.335777339,-0.001012392,1,0,0,0.6812,optionRight,70,7550,4,3,0,3,0,1,,,,,,,,,,,,,,,,,,,,,,,,,,,,,,,,,,,,,,,
,,,,,,,,2023-08-16_08h37.55.652,HF_wild_card,2022.2.4,MacIntel,60.0024001,632892646eb1fff474584dd7,64d2fd46c836a06233681665,64dc7cc2807e6bcc56f75d06,,,,,,,ctch,resources/DP.BMP,resources/DB.BMP,Door3,0.407462113,0.02275481,1,0,0,1.6338,optionRight,70,7620,4,4,0,4,0,1,,,,,,,,,,,,,,,,,,,,,,,,,,,,,,,,,,,,,,,
,,,,,,,,2023-08-16_08h37.55.652,HF_wild_card,2022.2.4,MacIntel,60.0024001,632892646eb1fff474584dd7,64d2fd46c836a06233681665,64dc7cc2807e6bcc56f75d06,,,,,,,sngl,resources/DG.BMP,resources/Empty.png,WildCard_NonEx,-0.269400024,-0.014295338,1,0,0,0.7306,optionLeft,55,7675,4,5,0,5,0,1,,,,,,,,,,,,,,,,,,,,,,,,,,,,,,,,,,,,,,,
,,,,,,,,2023-08-16_08h37.55.652,HF_wild_card,2022.2.4,MacIntel,60.0024001,632892646eb1fff474584dd7,64d2fd46c836a06233681665,64dc7cc2807e6bcc56f75d06,,,,,,,decisionTrl,resources/DP.BMP,resources/DR.BMP,Door2,-0.324719069,-0.004644719,1,0,0,1.5522,optionLeft,40,7715,4,6,0,6,0,1,,,,,,,,,,,,,,,,,,,,,,,,,,,,,,,,,,,,,,,
,,,,,,,,2023-08-16_08h37.55.652,HF_wild_card,2022.2.4,MacIntel,60.0024001,632892646eb1fff474584dd7,64d2fd46c836a06233681665,64dc7cc2807e6bcc56f75d06,,,,,,,decisionTrl,resources/DB.BMP,resources/DY.BMP,Door3,-0.268486927,0.016362508,1,0,0,0.8627,optionLeft,70,7785,4,7,0,7,0,1,,,,,,,,,,,,,,,,,,,,,,,,,,,,,,,,,,,,,,,
,,,,,,,,2023-08-16_08h37.55.652,HF_wild_card,2022.2.4,MacIntel,60.0024001,632892646eb1fff474584dd7,64d2fd46c836a06233681665,64dc7cc2807e6bcc56f75d06,,,,,,,decisionTrl,resources/DG.BMP,resources/DB.BMP,Door3,0.272701574,-0.021660925,1,0,0,0.6808,optionRight,70,7855,4,8,0,8,0,1,,,,,,,,,,,,,,,,,,,,,,,,,,,,,,,,,,,,,,,
,,,,,,,,2023-08-16_08h37.55.652,HF_wild_card,2022.2.4,MacIntel,60.0024001,632892646eb1fff474584dd7,64d2fd46c836a06233681665,64dc7cc2807e6bcc56f75d06,,,,,,,decisionTrl,resources/DR.BMP,resources/DP.BMP,Door1,-0.220269662,0.000858844,1,0,0,1.2167,optionLeft,30,7885,4,9,0,9,0,1,,,,,,,,,,,,,,,,,,,,,,,,,,,,,,,,,,,,,,,
,,,,,,,,2023-08-16_08h37.55.652,HF_wild_card,2022.2.4,MacIntel,60.0024001,632892646eb1fff474584dd7,64d2fd46c836a06233681665,64dc7cc2807e6bcc56f75d06,,,,,,,ctch,resources/DP.BMP,resources/DB.BMP,Door3,0.273784383,-0.004277152,1,0,0,0.5653,optionRight,70,7955,4,10,0,10,0,1,,,,,,,,,,,,,,,,,,,,,,,,,,,,,,,,,,,,,,,
,,,,,,,,2023-08-16_08h37.55.652,HF_wild_card,2022.2.4,MacIntel,60.0024001,632892646eb1fff474584dd7,64d2fd46c836a06233681665,64dc7cc2807e6bcc56f75d06,,,,,,,sngl,resources/Empty.png,resources/DR.BMP,Door1,0.19433006,-0.000573335,1,0,0,0.6317,optionRight,30,7985,4,11,0,11,0,1,,,,,,,,,,,,,,,,,,,,,,,,,,,,,,,,,,,,,,,
,,,,,,,,2023-08-16_08h37.55.652,HF_wild_card,2022.2.4,MacIntel,60.0024001,632892646eb1fff474584dd7,64d2fd46c836a06233681665,64dc7cc2807e6bcc56f75d06,,,,,,,decisionTrl,resources/DR.BMP,resources/DP.BMP,Door2,0.309848475,-0.045402809,1,0,0,0.9144,optionRight,20,8005,4,12,0,12,0,1,,,,,,,,,,,,,,,,,,,,,,,,,,,,,,,,,,,,,,,
,,,,,,,,2023-08-16_08h37.55.652,HF_wild_card,2022.2.4,MacIntel,60.0024001,632892646eb1fff474584dd7,64d2fd46c836a06233681665,64dc7cc2807e6bcc56f75d06,,,,,,,decisionTrl,resources/DP.BMP,resources/DR.BMP,Door2,-0.249731784,-0.031046493,1,0,0,1.1119,optionLeft,20,8025,4,13,0,13,0,1,,,,,,,,,,,,,,,,,,,,,,,,,,,,,,,,,,,,,,,
,,,,,,,,2023-08-16_08h37.55.652,HF_wild_card,2022.2.4,MacIntel,60.0024001,632892646eb1fff474584dd7,64d2fd46c836a06233681665,64dc7cc2807e6bcc56f75d06,,,,,,,decisionTrl,resources/DP.BMP,resources/DG.BMP,WildCard_NonEx,0.347333555,-0.033454499,1,0,0,0.7458,optionRight,55,8080,4,14,0,14,0,1,,,,,,,,,,,,,,,,,,,,,,,,,,,,,,,,,,,,,,,
,,,,,,,,2023-08-16_08h37.55.652,HF_wild_card,2022.2.4,MacIntel,60.0024001,632892646eb1fff474584dd7,64d2fd46c836a06233681665,64dc7cc2807e6bcc56f75d06,,,,,,,decisionTrl,resources/DG.BMP,resources/DY.BMP,WildCard_NonEx,-0.249351275,0.019168204,1,0,0,0.7156,optionLeft,45,8125,4,15,0,15,0,1,,,,,,,,,,,,,,,,,,,,,,,,,,,,,,,,,,,,,,,
,,,,,,,,2023-08-16_08h37.55.652,HF_wild_card,2022.2.4,MacIntel,60.0024001,632892646eb1fff474584dd7,64d2fd46c836a06233681665,64dc7cc2807e6bcc56f75d06,,,,,,,decisionTrl,resources/DY.BMP,resources/DB.BMP,Door3,0.283427373,-0.021380954,1,0,0,0.5807,optionRight,70,8195,4,16,0,16,0,1,,,,,,,,,,,,,,,,,,,,,,,,,,,,,,,,,,,,,,,
,,,,,,,,2023-08-16_08h37.55.652,HF_wild_card,2022.2.4,MacIntel,60.0024001,632892646eb1fff474584dd7,64d2fd46c836a06233681665,64dc7cc2807e6bcc56f75d06,,,,,,,decisionTrl,resources/DB.BMP,resources/DY.BMP,Door4,0.212985569,0.009880122,1,0,0,3.8163,optionRight,60,8255,4,17,0,17,0,1,,,,,,,,,,,,,,,,,,,,,,,,,,,,,,,,,,,,,,,
,,,,,,,,2023-08-16_08h37.55.652,HF_wild_card,2022.2.4,MacIntel,60.0024001,632892646eb1fff474584dd7,64d2fd46c836a06233681665,64dc7cc2807e6bcc56f75d06,,,,,,,sngl,resources/DR.BMP,resources/Empty.png,Door1,-0.258434663,0.008565097,1,0,0,0.6146,optionLeft,30,8285,4,18,0,18,0,1,,,,,,,,,,,,,,,,,,,,,,,,,,,,,,,,,,,,,,,
,,,,,,,,2023-08-16_08h37.55.652,HF_wild_card,2022.2.4,MacIntel,60.0024001,632892646eb1fff474584dd7,64d2fd46c836a06233681665,64dc7cc2807e6bcc56f75d06,,,,,,,decisionTrl,resources/DY.BMP,resources/DB.BMP,Door4,-0.264888622,-0.010720486,1,0,0,0.9488,optionLeft,60,8345,4,19,0,19,0,1,,,,,,,,,,,,,,,,,,,,,,,,,,,,,,,,,,,,,,,
,,,,,,,,2023-08-16_08h37.55.652,HF_wild_card,2022.2.4,MacIntel,60.0024001,632892646eb1fff474584dd7,64d2fd46c836a06233681665,64dc7cc2807e6bcc56f75d06,,,,,,,sngl,resources/Empty.png,resources/DP.BMP,Door2,0.201891638,0.013586821,1,0,0,0.7654,optionRight,40,8385,4,20,0,20,0,1,,,,,,,,,,,,,,,,,,,,,,,,,,,,,,,,,,,,,,,
,,,,,,,,2023-08-16_08h37.55.652,HF_wild_card,2022.2.4,MacIntel,60.0024001,632892646eb1fff474584dd7,64d2fd46c836a06233681665,64dc7cc2807e6bcc56f75d06,,,,,,,sngl,resources/Empty.png,resources/DG.BMP,WildCard_NonEx,0.271070579,-0.00912826,1,0,0,0.6978,optionRight,55,8440,4,21,0,21,0,1,,,,,,,,,,,,,,,,,,,,,,,,,,,,,,,,,,,,,,,
,,,,,,,,2023-08-16_08h37.55.652,HF_wild_card,2022.2.4,MacIntel,60.0024001,632892646eb1fff474584dd7,64d2fd46c836a06233681665,64dc7cc2807e6bcc56f75d06,,,,,,,decisionTrl,resources/DY.BMP,resources/DB.BMP,Door3,0.206698834,0.022881967,1,0,0,1.3837,optionRight,70,8510,4,22,0,22,0,1,,,,,,,,,,,,,,,,,,,,,,,,,,,,,,,,,,,,,,,
,,,,,,,,2023-08-16_08h37.55.652,HF_wild_card,2022.2.4,MacIntel,60.0024001,632892646eb1fff474584dd7,64d2fd46c836a06233681665,64dc7cc2807e6bcc56f75d06,,,,,,,ctch,resources/DR.BMP,resources/DY.BMP,Door4,0.343368417,-0.009190256,1,0,0,1.0173,optionRight,60,8570,4,23,0,23,0,1,,,,,,,,,,,,,,,,,,,,,,,,,,,,,,,,,,,,,,,
,,,,,,,,2023-08-16_08h37.55.652,HF_wild_card,2022.2.4,MacIntel,60.0024001,632892646eb1fff474584dd7,64d2fd46c836a06233681665,64dc7cc2807e6bcc56f75d06,,,,,,,ctch,resources/DY.BMP,resources/DR.BMP,Door4,-0.220232759,-0.007763107,1,0,0,1.1312,optionLeft,60,8630,4,24,0,24,0,1,,,,,,,,,,,,,,,,,,,,,,,,,,,,,,,,,,,,,,,
,,,,,,,,2023-08-16_08h37.55.652,HF_wild_card,2022.2.4,MacIntel,60.0024001,632892646eb1fff474584dd7,64d2fd46c836a06233681665,64dc7cc2807e6bcc56f75d06,,,,,,,sngl,resources/DY.BMP,resources/Empty.png,Door4,-0.32990101,0.028695594,1,0,0,0.6005,optionLeft,60,8690,4,25,0,25,0,1,,,,,,,,,,,,,,,,,,,,,,,,,,,,,,,,,,,,,,,
,,,,,,,,2023-08-16_08h37.55.652,HF_wild_card,2022.2.4,MacIntel,60.0024001,632892646eb1fff474584dd7,64d2fd46c836a06233681665,64dc7cc2807e6bcc56f75d06,,,,,,,decisionTrl,resources/DR.BMP,resources/DG.BMP,WildCard_NonEx,0.289921852,0.005379175,1,0,0,2.4638,optionRight,45,8735,4,26,0,26,0,1,,,,,,,,,,,,,,,,,,,,,,,,,,,,,,,,,,,,,,,
,,,,,,,,2023-08-16_08h37.55.652,HF_wild_card,2022.2.4,MacIntel,60.0024001,632892646eb1fff474584dd7,64d2fd46c836a06233681665,64dc7cc2807e6bcc56f75d06,,,,,,,decisionTrl,resources/DB.BMP,resources/DG.BMP,Door3,-0.28017985,-0.020452994,1,0,0,1.2812,optionLeft,70,8805,4,27,0,27,0,1,,,,,,,,,,,,,,,,,,,,,,,,,,,,,,,,,,,,,,,
,,,,,,,,2023-08-16_08h37.55.652,HF_wild_card,2022.2.4,MacIntel,60.0024001,632892646eb1fff474584dd7,64d2fd46c836a06233681665,64dc7cc2807e6bcc56f75d06,,,,,,,decisionTrl,resources/DR.BMP,resources/DP.BMP,Door2,0.27843108,0.00339655,1,0,0,1.2817,optionRight,20,8825,4,28,0,28,0,1,,,,,,,,,,,,,,,,,,,,,,,,,,,,,,,,,,,,,,,
,,,,,,,,2023-08-16_08h37.55.652,HF_wild_card,2022.2.4,MacIntel,60.0024001,632892646eb1fff474584dd7,64d2fd46c836a06233681665,64dc7cc2807e6bcc56f75d06,,,,,,,decisionTrl,resources/DP.BMP,resources/DR.BMP,Door1,0.239157331,0.000436627,1,0,0,1.2308,optionRight,30,8855,4,29,0,29,0,1,,,,,,,,,,,,,,,,,,,,,,,,,,,,,,,,,,,,,,,
,,,,,,,,2023-08-16_08h37.55.652,HF_wild_card,2022.2.4,MacIntel,60.0024001,632892646eb1fff474584dd7,64d2fd46c836a06233681665,64dc7cc2807e6bcc56f75d06,,,,,,,sngl,resources/DG.BMP,resources/Empty.png,WildCard_NonEx,-0.222042451,-0.001429805,1,0,0,0.6317,optionLeft,45,8900,4,30,0,30,0,1,,,,,,,,,,,,,,,,,,,,,,,,,,,,,,,,,,,,,,,
,,,,,,,,2023-08-16_08h37.55.652,HF_wild_card,2022.2.4,MacIntel,60.0024001,632892646eb1fff474584dd7,64d2fd46c836a06233681665,64dc7cc2807e6bcc56f75d06,,,,,,,decisionTrl,resources/DB.BMP,resources/DY.BMP,Door3,-0.26388595,0.001621105,1,0,0,1.6821,optionLeft,70,8970,4,31,0,31,0,1,,,,,,,,,,,,,,,,,,,,,,,,,,,,,,,,,,,,,,,
,,,,,,,,2023-08-16_08h37.55.652,HF_wild_card,2022.2.4,MacIntel,60.0024001,632892646eb1fff474584dd7,64d2fd46c836a06233681665,64dc7cc2807e6bcc56f75d06,,,,,,,sngl,resources/Empty.png,resources/DG.BMP,WildCard_NonEx,0.276430596,-0.0103033,1,0,0,0.764,optionRight,45,9015,4,32,0,32,0,1,,,,,,,,,,,,,,,,,,,,,,,,,,,,,,,,,,,,,,,
,,,,,,,,2023-08-16_08h37.55.652,HF_wild_card,2022.2.4,MacIntel,60.0024001,632892646eb1fff474584dd7,64d2fd46c836a06233681665,64dc7cc2807e6bcc56f75d06,,,,,,,decisionTrl,resources/DG.BMP,resources/DR.BMP,WildCard_NonEx,-0.231179753,0.017386655,1,0,0,1.129,optionLeft,55,9070,4,33,0,33,0,1,,,,,,,,,,,,,,,,,,,,,,,,,,,,,,,,,,,,,,,
,,,,,,,,2023-08-16_08h37.55.652,HF_wild_card,2022.2.4,MacIntel,60.0024001,632892646eb1fff474584dd7,64d2fd46c836a06233681665,64dc7cc2807e6bcc56f75d06,,,,,,,ctch,resources/DB.BMP,resources/DP.BMP,Door3,-0.239024466,0.009608629,1,0,0,1.1302,optionLeft,70,9140,4,34,0,34,0,1,,,,,,,,,,,,,,,,,,,,,,,,,,,,,,,,,,,,,,,
,,,,,,,,2023-08-16_08h37.55.652,HF_wild_card,2022.2.4,MacIntel,60.0024001,632892646eb1fff474584dd7,64d2fd46c836a06233681665,64dc7cc2807e6bcc56f75d06,,,,,,,decisionTrl,resources/DB.BMP,resources/DY.BMP,Door3,-0.310772536,0.017085097,1,0,0,0.8169,optionLeft,70,9210,4,35,0,35,0,1,,,,,,,,,,,,,,,,,,,,,,,,,,,,,,,,,,,,,,,
,,,,,,,,2023-08-16_08h37.55.652,HF_wild_card,2022.2.4,MacIntel,60.0024001,632892646eb1fff474584dd7,64d2fd46c836a06233681665,64dc7cc2807e6bcc56f75d06,,,,,,,decisionTrl,resources/DP.BMP,resources/DR.BMP,Door2,-0.235596268,0.009049649,1,0,0,1.2646,optionLeft,20,9230,4,36,0,36,0,1,,,,,,,,,,,,,,,,,,,,,,,,,,,,,,,,,,,,,,,
,,,,,,,,2023-08-16_08h37.55.652,HF_wild_card,2022.2.4,MacIntel,60.0024001,632892646eb1fff474584dd7,64d2fd46c836a06233681665,64dc7cc2807e6bcc56f75d06,,,,,,,decisionTrl,resources/DR.BMP,resources/DP.BMP,Door2,0.194244724,0.000998377,1,0,0,0.6825,optionRight,40,9270,4,37,0,37,0,1,,,,,,,,,,,,,,,,,,,,,,,,,,,,,,,,,,,,,,,
,,,,,,,,2023-08-16_08h37.55.652,HF_wild_card,2022.2.4,MacIntel,60.0024001,632892646eb1fff474584dd7,64d2fd46c836a06233681665,64dc7cc2807e6bcc56f75d06,,,,,,,sngl,resources/DB.BMP,resources/Empty.png,Door3,-0.244051107,0.027499164,1,0,0,0.6303,optionLeft,70,9340,4,38,0,38,0,1,,,,,,,,,,,,,,,,,,,,,,,,,,,,,,,,,,,,,,,
,,,,,,,,2023-08-16_08h37.55.652,HF_wild_card,2022.2.4,MacIntel,60.0024001,632892646eb1fff474584dd7,64d2fd46c836a06233681665,64dc7cc2807e6bcc56f75d06,,,,,,,ctch,resources/DY.BMP,resources/DR.BMP,Door4,-0.301859707,0.005778729,1,0,0,1.0992,optionLeft,60,9400,4,39,0,39,0,1,,,,,,,,,,,,,,,,,,,,,,,,,,,,,,,,,,,,,,,
,,,,,,,,2023-08-16_08h37.55.652,HF_wild_card,2022.2.4,MacIntel,60.0024001,632892646eb1fff474584dd7,64d2fd46c836a06233681665,64dc7cc2807e6bcc56f75d06,,,,,,,ctch,resources/DB.BMP,resources/DP.BMP,Door3,-0.233764931,0.021282055,1,0,0,1.7977,optionLeft,70,9470,4,40,0,40,0,1,,,,,,,,,,,,,,,,,,,,,,,,,,,,,,,,,,,,,,,
,,,,,,,,2023-08-16_08h37.55.652,HF_wild_card,2022.2.4,MacIntel,60.0024001,632892646eb1fff474584dd7,64d2fd46c836a06233681665,64dc7cc2807e6bcc56f75d06,,,,,,,decisionTrl,resources/DG.BMP,resources/DP.BMP,WildCard_NonEx,-0.189135064,0.023934993,1,0,0,1.3969,optionLeft,45,9515,4,41,0,41,0,1,,,,,,,,,,,,,,,,,,,,,,,,,,,,,,,,,,,,,,,
,,,,,,,,2023-08-16_08h37.55.652,HF_wild_card,2022.2.4,MacIntel,60.0024001,632892646eb1fff474584dd7,64d2fd46c836a06233681665,64dc7cc2807e6bcc56f75d06,,,,,,,sngl,resources/Empty.png,resources/DY.BMP,Door4,0.149578066,0.028903537,1,0,0,0.9325,optionRight,80,9595,4,42,0,42,0,1,,,,,,,,,,,,,,,,,,,,,,,,,,,,,,,,,,,,,,,
,,,,,,,,2023-08-16_08h37.55.652,HF_wild_card,2022.2.4,MacIntel,60.0024001,632892646eb1fff474584dd7,64d2fd46c836a06233681665,64dc7cc2807e6bcc56f75d06,,,,,,,decisionTrl,resources/DY.BMP,resources/DB.BMP,Door3,0.25921936,0.005072869,1,0,0,0.7621,optionRight,70,9665,4,43,0,43,0,1,,,,,,,,,,,,,,,,,,,,,,,,,,,,,,,,,,,,,,,
,,,,,,,,2023-08-16_08h37.55.652,HF_wild_card,2022.2.4,MacIntel,60.0024001,632892646eb1fff474584dd7,64d2fd46c836a06233681665,64dc7cc2807e6bcc56f75d06,,,,,,,,,,,,,,,,,,,,,,,,,,3,0,3,0,1,,,,,,,,,,,,,,,,,,,,,,,,,,,,,,,,,,
,,,,,,,,2023-08-16_08h37.55.652,HF_wild_card,2022.2.4,MacIntel,60.0024001,632892646eb1fff474584dd7,64d2fd46c836a06233681665,64dc7cc2807e6bcc56f75d06,,,,,,,decisionTrl,resources/DB.BMP,resources/DY.BMP,Door3,-0.196404182,-0.087986812,1,0,0,1.636,optionLeft,70,9735,5,0,0,0,0,1,,,,,,,,,,,,,,,,,,,,,,,,,,,,,,,,,,,,,,,
,,,,,,,,2023-08-16_08h37.55.652,HF_wild_card,2022.2.4,MacIntel,60.0024001,632892646eb1fff474584dd7,64d2fd46c836a06233681665,64dc7cc2807e6bcc56f75d06,,,,,,,ctch,resources/DB.BMP,resources/DP.BMP,Door3,-0.22262155,-7.55593E-05,1,0,0,1.1643,optionLeft,70,9805,5,1,0,1,0,1,,,,,,,,,,,,,,,,,,,,,,,,,,,,,,,,,,,,,,,
,,,,,,,,2023-08-16_08h37.55.652,HF_wild_card,2022.2.4,MacIntel,60.0024001,632892646eb1fff474584dd7,64d2fd46c836a06233681665,64dc7cc2807e6bcc56f75d06,,,,,,,ctch,resources/DR.BMP,resources/DY.BMP,Door4,0.304296762,-0.029262797,1,0,0,1.6768,optionRight,80,9885,5,2,0,2,0,1,,,,,,,,,,,,,,,,,,,,,,,,,,,,,,,,,,,,,,,
,,,,,,,,2023-08-16_08h37.55.652,HF_wild_card,2022.2.4,MacIntel,60.0024001,632892646eb1fff474584dd7,64d2fd46c836a06233681665,64dc7cc2807e6bcc56f75d06,,,,,,,decisionTrl,resources/DP.BMP,resources/DR.BMP,Door2,-0.197981714,-0.002871252,1,0,0,1.1472,optionLeft,40,9925,5,3,0,3,0,1,,,,,,,,,,,,,,,,,,,,,,,,,,,,,,,,,,,,,,,
,,,,,,,,2023-08-16_08h37.55.652,HF_wild_card,2022.2.4,MacIntel,60.0024001,632892646eb1fff474584dd7,64d2fd46c836a06233681665,64dc7cc2807e6bcc56f75d06,,,,,,,sngl,resources/DP.BMP,resources/Empty.png,Door2,-0.289716424,0.01777389,1,0,0,0.6323,optionLeft,40,9965,5,4,0,4,0,1,,,,,,,,,,,,,,,,,,,,,,,,,,,,,,,,,,,,,,,
,,,,,,,,2023-08-16_08h37.55.652,HF_wild_card,2022.2.4,MacIntel,60.0024001,632892646eb1fff474584dd7,64d2fd46c836a06233681665,64dc7cc2807e6bcc56f75d06,,,,,,,decisionTrl,resources/DB.BMP,resources/DY.BMP,Door4,0.267103407,-0.03344444,1,0,0,0.8975,optionRight,60,10025,5,5,0,5,0,1,,,,,,,,,,,,,,,,,,,,,,,,,,,,,,,,,,,,,,,
,,,,,,,,2023-08-16_08h37.55.652,HF_wild_card,2022.2.4,MacIntel,60.0024001,632892646eb1fff474584dd7,64d2fd46c836a06233681665,64dc7cc2807e6bcc56f75d06,,,,,,,sngl,resources/Empty.png,resources/DP.BMP,Door2,0.292758744,-0.0140022,1,0,0,0.6328,optionRight,20,10045,5,6,0,6,0,1,,,,,,,,,,,,,,,,,,,,,,,,,,,,,,,,,,,,,,,
,,,,,,,,2023-08-16_08h37.55.652,HF_wild_card,2022.2.4,MacIntel,60.0024001,632892646eb1fff474584dd7,64d2fd46c836a06233681665,64dc7cc2807e6bcc56f75d06,,,,,,,decisionTrl,resources/DY.BMP,resources/DB.BMP,Door4,-0.278429102,0.014125796,1,0,0,1.0312,optionLeft,60,10105,5,7,0,7,0,1,,,,,,,,,,,,,,,,,,,,,,,,,,,,,,,,,,,,,,,
,,,,,,,,2023-08-16_08h37.55.652,HF_wild_card,2022.2.4,MacIntel,60.0024001,632892646eb1fff474584dd7,64d2fd46c836a06233681665,64dc7cc2807e6bcc56f75d06,,,,,,,sngl,resources/Empty.png,resources/DG.BMP,WildCard_NonEx,0.226840775,-0.003758466,1,0,0,0.7802,optionRight,55,10160,5,8,0,8,0,1,,,,,,,,,,,,,,,,,,,,,,,,,,,,,,,,,,,,,,,
,,,,,,,,2023-08-16_08h37.55.652,HF_wild_card,2022.2.4,MacIntel,60.0024001,632892646eb1fff474584dd7,64d2fd46c836a06233681665,64dc7cc2807e6bcc56f75d06,,,,,,,decisionTrl,resources/DP.BMP,resources/DR.BMP,Door2,-0.224273908,-0.010464025,1,0,0,1.1617,optionLeft,40,10200,5,9,0,9,0,1,,,,,,,,,,,,,,,,,,,,,,,,,,,,,,,,,,,,,,,
,,,,,,,,2023-08-16_08h37.55.652,HF_wild_card,2022.2.4,MacIntel,60.0024001,632892646eb1fff474584dd7,64d2fd46c836a06233681665,64dc7cc2807e6bcc56f75d06,,,,,,,decisionTrl,resources/DR.BMP,resources/DP.BMP,Door1,-0.188066779,-0.00951832,1,0,0,1.115,optionLeft,30,10230,5,10,0,10,0,1,,,,,,,,,,,,,,,,,,,,,,,,,,,,,,,,,,,,,,,
,,,,,,,,2023-08-16_08h37.55.652,HF_wild_card,2022.2.4,MacIntel,60.0024001,632892646eb1fff474584dd7,64d2fd46c836a06233681665,64dc7cc2807e6bcc56f75d06,,,,,,,decisionTrl,resources/DY.BMP,resources/DB.BMP,Door3,0.291343406,-0.021964631,1,0,0,0.8149,optionRight,70,10300,5,11,0,11,0,1,,,,,,,,,,,,,,,,,,,,,,,,,,,,,,,,,,,,,,,
,,,,,,,,2023-08-16_08h37.55.652,HF_wild_card,2022.2.4,MacIntel,60.0024001,632892646eb1fff474584dd7,64d2fd46c836a06233681665,64dc7cc2807e6bcc56f75d06,,,,,,,decisionTrl,resources/DY.BMP,resources/DB.BMP,Door3,0.287038054,-0.025220405,1,0,0,0.6801,optionRight,70,10370,5,12,0,12,0,1,,,,,,,,,,,,,,,,,,,,,,,,,,,,,,,,,,,,,,,
,,,,,,,,2023-08-16_08h37.55.652,HF_wild_card,2022.2.4,MacIntel,60.0024001,632892646eb1fff474584dd7,64d2fd46c836a06233681665,64dc7cc2807e6bcc56f75d06,,,,,,,ctch,resources/DY.BMP,resources/DR.BMP,Door4,-0.278101886,-0.003076907,1,0,0,1.2501,optionLeft,60,10430,5,13,0,13,0,1,,,,,,,,,,,,,,,,,,,,,,,,,,,,,,,,,,,,,,,
,,,,,,,,2023-08-16_08h37.55.652,HF_wild_card,2022.2.4,MacIntel,60.0024001,632892646eb1fff474584dd7,64d2fd46c836a06233681665,64dc7cc2807e6bcc56f75d06,,,,,,,sngl,resources/Empty.png,resources/DB.BMP,Door3,0.199269839,-0.00838753,1,0,0,0.6982,optionRight,70,10500,5,14,0,14,0,1,,,,,,,,,,,,,,,,,,,,,,,,,,,,,,,,,,,,,,,
,,,,,,,,2023-08-16_08h37.55.652,HF_wild_card,2022.2.4,MacIntel,60.0024001,632892646eb1fff474584dd7,64d2fd46c836a06233681665,64dc7cc2807e6bcc56f75d06,,,,,,,decisionTrl,resources/DR.BMP,resources/DG.BMP,WildCard_NonEx,0.278910884,-0.024562468,1,0,0,1.4475,optionRight,55,10555,5,15,0,15,0,1,,,,,,,,,,,,,,,,,,,,,,,,,,,,,,,,,,,,,,,
,,,,,,,,2023-08-16_08h37.55.652,HF_wild_card,2022.2.4,MacIntel,60.0024001,632892646eb1fff474584dd7,64d2fd46c836a06233681665,64dc7cc2807e6bcc56f75d06,,,,,,,decisionTrl,resources/DY.BMP,resources/DG.BMP,Door4,-0.251108636,-0.000828722,1,0,0,1.9317,optionLeft,80,10635,5,16,0,16,0,1,,,,,,,,,,,,,,,,,,,,,,,,,,,,,,,,,,,,,,,
,,,,,,,,2023-08-16_08h37.55.652,HF_wild_card,2022.2.4,MacIntel,60.0024001,632892646eb1fff474584dd7,64d2fd46c836a06233681665,64dc7cc2807e6bcc56f75d06,,,,,,,sngl,resources/DY.BMP,resources/Empty.png,Door4,-0.349013321,0.006120696,1,0,0,0.6163,optionLeft,80,10715,5,17,0,17,0,1,,,,,,,,,,,,,,,,,,,,,,,,,,,,,,,,,,,,,,,
,,,,,,,,2023-08-16_08h37.55.652,HF_wild_card,2022.2.4,MacIntel,60.0024001,632892646eb1fff474584dd7,64d2fd46c836a06233681665,64dc7cc2807e6bcc56f75d06,,,,,,,decisionTrl,resources/DG.BMP,resources/DB.BMP,Door3,0.313183029,-0.044183011,1,0,0,1.3982,optionRight,70,10785,5,18,0,18,0,1,,,,,,,,,,,,,,,,,,,,,,,,,,,,,,,,,,,,,,,
,,,,,,,,2023-08-16_08h37.55.652,HF_wild_card,2022.2.4,MacIntel,60.0024001,632892646eb1fff474584dd7,64d2fd46c836a06233681665,64dc7cc2807e6bcc56f75d06,,,,,,,decisionTrl,resources/DP.BMP,resources/DR.BMP,Door2,-0.202055189,0.000326142,1,0,0,1.3475,optionLeft,20,10805,5,19,0,19,0,1,,,,,,,,,,,,,,,,,,,,,,,,,,,,,,,,,,,,,,,
,,,,,,,,2023-08-16_08h37.55.652,HF_wild_card,2022.2.4,MacIntel,60.0024001,632892646eb1fff474584dd7,64d2fd46c836a06233681665,64dc7cc2807e6bcc56f75d06,,,,,,,decisionTrl,resources/DP.BMP,resources/DG.BMP,WildCard_NonEx,0.261153271,-0.01877221,1,0,0,0.9983,optionRight,55,10860,5,20,0,20,0,1,,,,,,,,,,,,,,,,,,,,,,,,,,,,,,,,,,,,,,,
,,,,,,,,2023-08-16_08h37.55.652,HF_wild_card,2022.2.4,MacIntel,60.0024001,632892646eb1fff474584dd7,64d2fd46c836a06233681665,64dc7cc2807e6bcc56f75d06,,,,,,,sngl,resources/Empty.png,resources/DR.BMP,Door1,0.24736362,-0.019544587,1,0,0,0.6633,optionRight,30,10890,5,21,0,21,0,1,,,,,,,,,,,,,,,,,,,,,,,,,,,,,,,,,,,,,,,
,,,,,,,,2023-08-16_08h37.55.652,HF_wild_card,2022.2.4,MacIntel,60.0024001,632892646eb1fff474584dd7,64d2fd46c836a06233681665,64dc7cc2807e6bcc56f75d06,,,,,,,ctch,resources/DP.BMP,resources/DB.BMP,Door3,0.30655495,-0.031898555,1,0,0,1.1459,optionRight,70,10960,5,22,0,22,0,1,,,,,,,,,,,,,,,,,,,,,,,,,,,,,,,,,,,,,,,
,,,,,,,,2023-08-16_08h37.55.652,HF_wild_card,2022.2.4,MacIntel,60.0024001,632892646eb1fff474584dd7,64d2fd46c836a06233681665,64dc7cc2807e6bcc56f75d06,,,,,,,decisionTrl,resources/DG.BMP,resources/DY.BMP,Door4,0.226827777,-0.023976305,1,0,0,1.6467,optionRight,80,11040,5,23,0,23,0,1,,,,,,,,,,,,,,,,,,,,,,,,,,,,,,,,,,,,,,,
,,,,,,,,2023-08-16_08h37.55.652,HF_wild_card,2022.2.4,MacIntel,60.0024001,632892646eb1fff474584dd7,64d2fd46c836a06233681665,64dc7cc2807e6bcc56f75d06,,,,,,,decisionTrl,resources/DG.BMP,resources/DR.BMP,WildCard_NonEx,-0.244590194,0.003763835,1,0,0,1.2314,optionLeft,55,11095,5,24,0,24,0,1,,,,,,,,,,,,,,,,,,,,,,,,,,,,,,,,,,,,,,,
,,,,,,,,2023-08-16_08h37.55.652,HF_wild_card,2022.2.4,MacIntel,60.0024001,632892646eb1fff474584dd7,64d2fd46c836a06233681665,64dc7cc2807e6bcc56f75d06,,,,,,,decisionTrl,resources/DR.BMP,resources/DP.BMP,Door1,-0.354556218,0.028573834,1,0,0,1.78,optionLeft,30,11125,5,25,0,25,0,1,,,,,,,,,,,,,,,,,,,,,,,,,,,,,,,,,,,,,,,
,,,,,,,,2023-08-16_08h37.55.652,HF_wild_card,2022.2.4,MacIntel,60.0024001,632892646eb1fff474584dd7,64d2fd46c836a06233681665,64dc7cc2807e6bcc56f75d06,,,,,,,decisionTrl,resources/DP.BMP,resources/DR.BMP,Door2,-0.2669667,0.028553037,1,0,0,0.8644,optionLeft,40,11165,5,26,0,26,0,1,,,,,,,,,,,,,,,,,,,,,,,,,,,,,,,,,,,,,,,
,,,,,,,,2023-08-16_08h37.55.652,HF_wild_card,2022.2.4,MacIntel,60.0024001,632892646eb1fff474584dd7,64d2fd46c836a06233681665,64dc7cc2807e6bcc56f75d06,,,,,,,sngl,resources/DB.BMP,resources/Empty.png,Door3,-0.288052425,0.036214419,1,0,0,0.6515,optionLeft,70,11235,5,27,0,27,0,1,,,,,,,,,,,,,,,,,,,,,,,,,,,,,,,,,,,,,,,
,,,,,,,,2023-08-16_08h37.55.652,HF_wild_card,2022.2.4,MacIntel,60.0024001,632892646eb1fff474584dd7,64d2fd46c836a06233681665,64dc7cc2807e6bcc56f75d06,,,,,,,decisionTrl,resources/DB.BMP,resources/DG.BMP,WildCard_NonEx,0.308229008,-0.012424045,1,0,0,1.3286,optionRight,55,11290,5,28,0,28,0,1,,,,,,,,,,,,,,,,,,,,,,,,,,,,,,,,,,,,,,,
,,,,,,,,2023-08-16_08h37.55.652,HF_wild_card,2022.2.4,MacIntel,60.0024001,632892646eb1fff474584dd7,64d2fd46c836a06233681665,64dc7cc2807e6bcc56f75d06,,,,,,,ctch,resources/DB.BMP,resources/DP.BMP,Door3,-0.197515134,0.008790475,1,0,0,0.8819,optionLeft,70,11360,5,29,0,29,0,1,,,,,,,,,,,,,,,,,,,,,,,,,,,,,,,,,,,,,,,
,,,,,,,,2023-08-16_08h37.55.652,HF_wild_card,2022.2.4,MacIntel,60.0024001,632892646eb1fff474584dd7,64d2fd46c836a06233681665,64dc7cc2807e6bcc56f75d06,,,,,,,decisionTrl,resources/DG.BMP,resources/DP.BMP,Door2,0.257942256,0.007905748,1,0,0,1.4616,optionRight,20,11380,5,30,0,30,0,1,,,,,,,,,,,,,,,,,,,,,,,,,,,,,,,,,,,,,,,
,,,,,,,,2023-08-16_08h37.55.652,HF_wild_card,2022.2.4,MacIntel,60.0024001,632892646eb1fff474584dd7,64d2fd46c836a06233681665,64dc7cc2807e6bcc56f75d06,,,,,,,ctch,resources/DY.BMP,resources/DR.BMP,Door4,-0.275016841,0.027622308,1,0,0,1.1479,optionLeft,80,11460,5,31,0,31,0,1,,,,,,,,,,,,,,,,,,,,,,,,,,,,,,,,,,,,,,,
,,,,,,,,2023-08-16_08h37.55.652,HF_wild_card,2022.2.4,MacIntel,60.0024001,632892646eb1fff474584dd7,64d2fd46c836a06233681665,64dc7cc2807e6bcc56f75d06,,,,,,,ctch,resources/DP.BMP,resources/DB.BMP,Door3,0.323053092,0.00674139,1,0,0,0.8986,optionRight,70,11530,5,32,0,32,0,1,,,,,,,,,,,,,,,,,,,,,,,,,,,,,,,,,,,,,,,
,,,,,,,,2023-08-16_08h37.55.652,HF_wild_card,2022.2.4,MacIntel,60.0024001,632892646eb1fff474584dd7,64d2fd46c836a06233681665,64dc7cc2807e6bcc56f75d06,,,,,,,sngl,resources/Empty.png,resources/DG.BMP,WildCard_NonEx,0.395077967,-0.009159116,1,0,0,0.8677,optionRight,45,11575,5,33,0,33,0,1,,,,,,,,,,,,,,,,,,,,,,,,,,,,,,,,,,,,,,,
,,,,,,,,2023-08-16_08h37.55.652,HF_wild_card,2022.2.4,MacIntel,60.0024001,632892646eb1fff474584dd7,64d2fd46c836a06233681665,64dc7cc2807e6bcc56f75d06,,,,,,,sngl,resources/DR.BMP,resources/Empty.png,Door1,-0.198225629,0.015898584,1,0,0,0.8804,optionLeft,30,11605,5,34,0,34,0,1,,,,,,,,,,,,,,,,,,,,,,,,,,,,,,,,,,,,,,,
,,,,,,,,2023-08-16_08h37.55.652,HF_wild_card,2022.2.4,MacIntel,60.0024001,632892646eb1fff474584dd7,64d2fd46c836a06233681665,64dc7cc2807e6bcc56f75d06,,,,,,,sngl,resources/Empty.png,resources/DY.BMP,Door4,0.179252568,-0.004355141,1,0,0,0.7117,optionRight,60,11665,5,35,0,35,0,1,,,,,,,,,,,,,,,,,,,,,,,,,,,,,,,,,,,,,,,
,,,,,,,,2023-08-16_08h37.55.652,HF_wild_card,2022.2.4,MacIntel,60.0024001,632892646eb1fff474584dd7,64d2fd46c836a06233681665,64dc7cc2807e6bcc56f75d06,,,,,,,decisionTrl,resources/DB.BMP,resources/DY.BMP,Door3,-0.147350453,0.000427981,1,0,0,1.2808,optionLeft,70,11735,5,36,0,36,0,1,,,,,,,,,,,,,,,,,,,,,,,,,,,,,,,,,,,,,,,
,,,,,,,,2023-08-16_08h37.55.652,HF_wild_card,2022.2.4,MacIntel,60.0024001,632892646eb1fff474584dd7,64d2fd46c836a06233681665,64dc7cc2807e6bcc56f75d06,,,,,,,sngl,resources/DG.BMP,resources/Empty.png,WildCard_NonEx,-0.246322519,0.019556625,1,0,0,0.6301,optionLeft,55,11790,5,37,0,37,0,1,,,,,,,,,,,,,,,,,,,,,,,,,,,,,,,,,,,,,,,
,,,,,,,,2023-08-16_08h37.55.652,HF_wild_card,2022.2.4,MacIntel,60.0024001,632892646eb1fff474584dd7,64d2fd46c836a06233681665,64dc7cc2807e6bcc56f75d06,,,,,,,decisionTrl,resources/DR.BMP,resources/DP.BMP,Door1,-0.271387114,0.004521292,1,0,0,2.2479,optionLeft,30,11820,5,38,0,38,0,1,,,,,,,,,,,,,,,,,,,,,,,,,,,,,,,,,,,,,,,
,,,,,,,,2023-08-16_08h37.55.652,HF_wild_card,2022.2.4,MacIntel,60.0024001,632892646eb1fff474584dd7,64d2fd46c836a06233681665,64dc7cc2807e6bcc56f75d06,,,,,,,decisionTrl,resources/DY.BMP,resources/DB.BMP,Door3,0.178883305,0.001130789,1,0,0,1.2785,optionRight,70,11890,5,39,0,39,0,1,,,,,,,,,,,,,,,,,,,,,,,,,,,,,,,,,,,,,,,
,,,,,,,,2023-08-16_08h37.55.652,HF_wild_card,2022.2.4,MacIntel,60.0024001,632892646eb1fff474584dd7,64d2fd46c836a06233681665,64dc7cc2807e6bcc56f75d06,,,,,,,sngl,resources/DG.BMP,resources/Empty.png,WildCard_NonEx,-0.235437351,0.00581066,1,0,0,0.7157,optionLeft,45,11935,5,40,0,40,0,1,,,,,,,,,,,,,,,,,,,,,,,,,,,,,,,,,,,,,,,
,,,,,,,,2023-08-16_08h37.55.652,HF_wild_card,2022.2.4,MacIntel,60.0024001,632892646eb1fff474584dd7,64d2fd46c836a06233681665,64dc7cc2807e6bcc56f75d06,,,,,,,decisionTrl,resources/DR.BMP,resources/DP.BMP,Door1,-0.339299802,0.012808849,1,0,0,2.1818,optionLeft,30,11965,5,41,0,41,0,1,,,,,,,,,,,,,,,,,,,,,,,,,,,,,,,,,,,,,,,
,,,,,,,,2023-08-16_08h37.55.652,HF_wild_card,2022.2.4,MacIntel,60.0024001,632892646eb1fff474584dd7,64d2fd46c836a06233681665,64dc7cc2807e6bcc56f75d06,,,,,,,decisionTrl,resources/DB.BMP,resources/DY.BMP,Door3,-0.187605964,0.019976524,1,0,0,1.6477,optionLeft,70,12035,5,42,0,42,0,1,,,,,,,,,,,,,,,,,,,,,,,,,,,,,,,,,,,,,,,
,,,,,,,,2023-08-16_08h37.55.652,HF_wild_card,2022.2.4,MacIntel,60.0024001,632892646eb1fff474584dd7,64d2fd46c836a06233681665,64dc7cc2807e6bcc56f75d06,,,,,,,ctch,resources/DR.BMP,resources/DY.BMP,Door4,0.20604768,0.01200279,1,0,0,1.9483,optionRight,60,12095,5,43,0,43,0,1,,,,,,,,,,,,,,,,,,,,,,,,,,,,,,,,,,,,,,,
,,,,,,,,2023-08-16_08h37.55.652,HF_wild_card,2022.2.4,MacIntel,60.0024001,632892646eb1fff474584dd7,64d2fd46c836a06233681665,64dc7cc2807e6bcc56f75d06,,,,,,,,,,,,,,,,,,,,,,,,,,4,0,4,0,1,,,,,,,,,,,,,,,,,,,,,,,,,,,,,,,,,,
,,,,,,,,2023-08-16_08h37.55.652,HF_wild_card,2022.2.4,MacIntel,60.0024001,632892646eb1fff474584dd7,64d2fd46c836a06233681665,64dc7cc2807e6bcc56f75d06,,,,,,,sngl,resources/DY.BMP,resources/Empty.png,Door4,-0.233961939,-0.031086053,1,0,0,0.6945,optionLeft,60,12155,6,0,0,0,0,1,,,,,,,,,,,,,,,,,,,,,,,,,,,,,,,,,,,,,,,
,,,,,,,,2023-08-16_08h37.55.652,HF_wild_card,2022.2.4,MacIntel,60.0024001,632892646eb1fff474584dd7,64d2fd46c836a06233681665,64dc7cc2807e6bcc56f75d06,,,,,,,decisionTrl,resources/DR.BMP,resources/DP.BMP,Door2,0.212239696,0.006924721,1,0,0,1.8645,optionRight,40,12195,6,1,0,1,0,1,,,,,,,,,,,,,,,,,,,,,,,,,,,,,,,,,,,,,,,
,,,,,,,,2023-08-16_08h37.55.652,HF_wild_card,2022.2.4,MacIntel,60.0024001,632892646eb1fff474584dd7,64d2fd46c836a06233681665,64dc7cc2807e6bcc56f75d06,,,,,,,sngl,resources/Empty.png,resources/DP.BMP,Door2,0.257546206,0.009436035,1,0,0,0.7146,optionRight,40,12235,6,2,0,2,0,1,,,,,,,,,,,,,,,,,,,,,,,,,,,,,,,,,,,,,,,
,,,,,,,,2023-08-16_08h37.55.652,HF_wild_card,2022.2.4,MacIntel,60.0024001,632892646eb1fff474584dd7,64d2fd46c836a06233681665,64dc7cc2807e6bcc56f75d06,,,,,,,ctch,resources/DP.BMP,resources/DB.BMP,Door3,0.235764454,0.000575765,1,0,0,1.5478,optionRight,70,12305,6,3,0,3,0,1,,,,,,,,,,,,,,,,,,,,,,,,,,,,,,,,,,,,,,,
,,,,,,,,2023-08-16_08h37.55.652,HF_wild_card,2022.2.4,MacIntel,60.0024001,632892646eb1fff474584dd7,64d2fd46c836a06233681665,64dc7cc2807e6bcc56f75d06,,,,,,,decisionTrl,resources/DR.BMP,resources/DP.BMP,Door2,0.257264992,-0.015491344,1,0,0,3.8314,optionRight,40,12345,6,4,0,4,0,1,,,,,,,,,,,,,,,,,,,,,,,,,,,,,,,,,,,,,,,
,,,,,,,,2023-08-16_08h37.55.652,HF_wild_card,2022.2.4,MacIntel,60.0024001,632892646eb1fff474584dd7,64d2fd46c836a06233681665,64dc7cc2807e6bcc56f75d06,,,,,,,ctch,resources/DY.BMP,resources/DR.BMP,Door4,-0.230601219,0.007980912,1,0,0,1.1479,optionLeft,80,12425,6,5,0,5,0,1,,,,,,,,,,,,,,,,,,,,,,,,,,,,,,,,,,,,,,,
,,,,,,,,2023-08-16_08h37.55.652,HF_wild_card,2022.2.4,MacIntel,60.0024001,632892646eb1fff474584dd7,64d2fd46c836a06233681665,64dc7cc2807e6bcc56f75d06,,,,,,,sngl,resources/DP.BMP,resources/Empty.png,Door2,-0.244344923,0.039950675,1,0,0,0.7462,optionLeft,20,12445,6,6,0,6,0,1,,,,,,,,,,,,,,,,,,,,,,,,,,,,,,,,,,,,,,,
,,,,,,,,2023-08-16_08h37.55.652,HF_wild_card,2022.2.4,MacIntel,60.0024001,632892646eb1fff474584dd7,64d2fd46c836a06233681665,64dc7cc2807e6bcc56f75d06,,,,,,,ctch,resources/DP.BMP,resources/DB.BMP,Door3,0.304304561,-0.01783549,1,0,0,0.9798,optionRight,70,12515,6,7,0,7,0,1,,,,,,,,,,,,,,,,,,,,,,,,,,,,,,,,,,,,,,,
,,,,,,,,2023-08-16_08h37.55.652,HF_wild_card,2022.2.4,MacIntel,60.0024001,632892646eb1fff474584dd7,64d2fd46c836a06233681665,64dc7cc2807e6bcc56f75d06,,,,,,,decisionTrl,resources/DB.BMP,resources/DY.BMP,Door3,-0.240012444,0.011226682,1,0,0,0.6804,optionLeft,70,12585,6,8,0,8,0,1,,,,,,,,,,,,,,,,,,,,,,,,,,,,,,,,,,,,,,,
,,,,,,,,2023-08-16_08h37.55.652,HF_wild_card,2022.2.4,MacIntel,60.0024001,632892646eb1fff474584dd7,64d2fd46c836a06233681665,64dc7cc2807e6bcc56f75d06,,,,,,,decisionTrl,resources/DP.BMP,resources/DR.BMP,Door1,0.276530061,-0.005701305,1,0,0,2.7964,optionRight,30,12615,6,9,0,9,0,1,,,,,,,,,,,,,,,,,,,,,,,,,,,,,,,,,,,,,,,
,,,,,,,,2023-08-16_08h37.55.652,HF_wild_card,2022.2.4,MacIntel,60.0024001,632892646eb1fff474584dd7,64d2fd46c836a06233681665,64dc7cc2807e6bcc56f75d06,,,,,,,sngl,resources/Empty.png,resources/DG.BMP,WildCard_NonEx,0.224736192,0.003756544,1,0,0,0.7782,optionRight,55,12670,6,10,0,10,0,1,,,,,,,,,,,,,,,,,,,,,,,,,,,,,,,,,,,,,,,
,,,,,,,,2023-08-16_08h37.55.652,HF_wild_card,2022.2.4,MacIntel,60.0024001,632892646eb1fff474584dd7,64d2fd46c836a06233681665,64dc7cc2807e6bcc56f75d06,,,,,,,decisionTrl,resources/DP.BMP,resources/DG.BMP,WildCard_NonEx,0.255135204,0.014444309,1,0,0,1.5301,optionRight,55,12725,6,11,0,11,0,1,,,,,,,,,,,,,,,,,,,,,,,,,,,,,,,,,,,,,,,
,,,,,,,,2023-08-16_08h37.55.652,HF_wild_card,2022.2.4,MacIntel,60.0024001,632892646eb1fff474584dd7,64d2fd46c836a06233681665,64dc7cc2807e6bcc56f75d06,,,,,,,decisionTrl,resources/DR.BMP,resources/DG.BMP,WildCard_NonEx,0.23675085,0.003759257,1,0,0,1.2144,optionRight,45,12770,6,12,0,12,0,1,,,,,,,,,,,,,,,,,,,,,,,,,,,,,,,,,,,,,,,
,,,,,,,,2023-08-16_08h37.55.652,HF_wild_card,2022.2.4,MacIntel,60.0024001,632892646eb1fff474584dd7,64d2fd46c836a06233681665,64dc7cc2807e6bcc56f75d06,,,,,,,sngl,resources/DG.BMP,resources/Empty.png,WildCard_NonEx,-0.208462581,-0.006879905,1,0,0,0.8149,optionLeft,45,12815,6,13,0,13,0,1,,,,,,,,,,,,,,,,,,,,,,,,,,,,,,,,,,,,,,,
,,,,,,,,2023-08-16_08h37.55.652,HF_wild_card,2022.2.4,MacIntel,60.0024001,632892646eb1fff474584dd7,64d2fd46c836a06233681665,64dc7cc2807e6bcc56f75d06,,,,,,,decisionTrl,resources/DG.BMP,resources/DR.BMP,WildCard_NonEx,-0.213033492,-0.00476515,1,0,0,0.9816,optionLeft,55,12870,6,14,0,14,0,1,,,,,,,,,,,,,,,,,,,,,,,,,,,,,,,,,,,,,,,
,,,,,,,,2023-08-16_08h37.55.652,HF_wild_card,2022.2.4,MacIntel,60.0024001,632892646eb1fff474584dd7,64d2fd46c836a06233681665,64dc7cc2807e6bcc56f75d06,,,,,,,decisionTrl,resources/DY.BMP,resources/DB.BMP,Door3,0.269864005,-0.017771855,1,0,0,1.8165,optionRight,70,12940,6,15,0,15,0,1,,,,,,,,,,,,,,,,,,,,,,,,,,,,,,,,,,,,,,,
,,,,,,,,2023-08-16_08h37.55.652,HF_wild_card,2022.2.4,MacIntel,60.0024001,632892646eb1fff474584dd7,64d2fd46c836a06233681665,64dc7cc2807e6bcc56f75d06,,,,,,,decisionTrl,resources/DY.BMP,resources/DB.BMP,Door3,0.197549099,0.004154573,1,0,0,1.2131,optionRight,70,13010,6,16,0,16,0,1,,,,,,,,,,,,,,,,,,,,,,,,,,,,,,,,,,,,,,,
,,,,,,,,2023-08-16_08h37.55.652,HF_wild_card,2022.2.4,MacIntel,60.0024001,632892646eb1fff474584dd7,64d2fd46c836a06233681665,64dc7cc2807e6bcc56f75d06,,,,,,,ctch,resources/DR.BMP,resources/DY.BMP,Door4,0.286235781,-0.006372466,1,0,0,1.2647,optionRight,80,13090,6,17,0,17,0,1,,,,,,,,,,,,,,,,,,,,,,,,,,,,,,,,,,,,,,,
,,,,,,,,2023-08-16_08h37.55.652,HF_wild_card,2022.2.4,MacIntel,60.0024001,632892646eb1fff474584dd7,64d2fd46c836a06233681665,64dc7cc2807e6bcc56f75d06,,,,,,,ctch,resources/DB.BMP,resources/DP.BMP,Door3,-0.315815678,0.011825448,1,0,0,1.5301,optionLeft,70,13160,6,18,0,18,0,1,,,,,,,,,,,,,,,,,,,,,,,,,,,,,,,,,,,,,,,
,,,,,,,,2023-08-16_08h37.55.652,HF_wild_card,2022.2.4,MacIntel,60.0024001,632892646eb1fff474584dd7,64d2fd46c836a06233681665,64dc7cc2807e6bcc56f75d06,,,,,,,decisionTrl,resources/DP.BMP,resources/DR.BMP,Door1,0.331861143,0.004163671,1,0,0,3.1726,optionRight,30,13190,6,19,0,19,0,1,,,,,,,,,,,,,,,,,,,,,,,,,,,,,,,,,,,,,,,
,,,,,,,,2023-08-16_08h37.55.652,HF_wild_card,2022.2.4,MacIntel,60.0024001,632892646eb1fff474584dd7,64d2fd46c836a06233681665,64dc7cc2807e6bcc56f75d06,,,,,,,decisionTrl,resources/DB.BMP,resources/DY.BMP,Door4,0.245854922,-0.00122415,1,0,0,1.5813,optionRight,80,13270,6,20,0,20,0,1,,,,,,,,,,,,,,,,,,,,,,,,,,,,,,,,,,,,,,,
,,,,,,,,2023-08-16_08h37.55.652,HF_wild_card,2022.2.4,MacIntel,60.0024001,632892646eb1fff474584dd7,64d2fd46c836a06233681665,64dc7cc2807e6bcc56f75d06,,,,,,,sngl,resources/DR.BMP,resources/Empty.png,Door1,-0.270674698,0.036792727,1,0,0,0.7342,optionLeft,30,13300,6,21,0,21,0,1,,,,,,,,,,,,,,,,,,,,,,,,,,,,,,,,,,,,,,,
,,,,,,,,2023-08-16_08h37.55.652,HF_wild_card,2022.2.4,MacIntel,60.0024001,632892646eb1fff474584dd7,64d2fd46c836a06233681665,64dc7cc2807e6bcc56f75d06,,,,,,,sngl,resources/Empty.png,resources/DY.BMP,Door4,0.273624109,0.006931333,1,0,0,0.8652,optionRight,80,13380,6,22,0,22,0,1,,,,,,,,,,,,,,,,,,,,,,,,,,,,,,,,,,,,,,,
,,,,,,,,2023-08-16_08h37.55.652,HF_wild_card,2022.2.4,MacIntel,60.0024001,632892646eb1fff474584dd7,64d2fd46c836a06233681665,64dc7cc2807e6bcc56f75d06,,,,,,,sngl,resources/DB.BMP,resources/Empty.png,Door3,-0.193917055,0.043519762,1,0,0,0.7316,optionLeft,70,13450,6,23,0,23,0,1,,,,,,,,,,,,,,,,,,,,,,,,,,,,,,,,,,,,,,,
,,,,,,,,2023-08-16_08h37.55.652,HF_wild_card,2022.2.4,MacIntel,60.0024001,632892646eb1fff474584dd7,64d2fd46c836a06233681665,64dc7cc2807e6bcc56f75d06,,,,,,,sngl,resources/Empty.png,resources/DR.BMP,Door1,0.212444164,-0.005062866,1,0,0,0.8329,optionRight,30,13480,6,24,0,24,0,1,,,,,,,,,,,,,,,,,,,,,,,,,,,,,,,,,,,,,,,
,,,,,,,,2023-08-16_08h37.55.652,HF_wild_card,2022.2.4,MacIntel,60.0024001,632892646eb1fff474584dd7,64d2fd46c836a06233681665,64dc7cc2807e6bcc56f75d06,,,,,,,sngl,resources/DG.BMP,resources/Empty.png,WildCard_NonEx,-0.287779971,0.012040654,1,0,0,0.7497,optionLeft,55,13535,6,25,0,25,0,1,,,,,,,,,,,,,,,,,,,,,,,,,,,,,,,,,,,,,,,
,,,,,,,,2023-08-16_08h37.55.652,HF_wild_card,2022.2.4,MacIntel,60.0024001,632892646eb1fff474584dd7,64d2fd46c836a06233681665,64dc7cc2807e6bcc56f75d06,,,,,,,ctch,resources/DB.BMP,resources/DP.BMP,Door3,-0.251922777,0.004575263,1,0,0,1.997,optionLeft,70,13605,6,26,0,26,0,1,,,,,,,,,,,,,,,,,,,,,,,,,,,,,,,,,,,,,,,
,,,,,,,,2023-08-16_08h37.55.652,HF_wild_card,2022.2.4,MacIntel,60.0024001,632892646eb1fff474584dd7,64d2fd46c836a06233681665,64dc7cc2807e6bcc56f75d06,,,,,,,decisionTrl,resources/DY.BMP,resources/DB.BMP,Door4,-0.327110743,0.004682527,1,0,0,1.3665,optionLeft,80,13685,6,27,0,27,0,1,,,,,,,,,,,,,,,,,,,,,,,,,,,,,,,,,,,,,,,
,,,,,,,,2023-08-16_08h37.55.652,HF_wild_card,2022.2.4,MacIntel,60.0024001,632892646eb1fff474584dd7,64d2fd46c836a06233681665,64dc7cc2807e6bcc56f75d06,,,,,,,decisionTrl,resources/DR.BMP,resources/DP.BMP,Door1,-0.191214611,0.024047173,1,0,0,3.53,optionLeft,30,13715,6,28,0,28,0,1,,,,,,,,,,,,,,,,,,,,,,,,,,,,,,,,,,,,,,,
,,,,,,,,2023-08-16_08h37.55.652,HF_wild_card,2022.2.4,MacIntel,60.0024001,632892646eb1fff474584dd7,64d2fd46c836a06233681665,64dc7cc2807e6bcc56f75d06,,,,,,,decisionTrl,resources/DB.BMP,resources/DY.BMP,Door4,0.172553281,0.000461381,1,0,0,1.5651,optionRight,60,13775,6,29,0,29,0,1,,,,,,,,,,,,,,,,,,,,,,,,,,,,,,,,,,,,,,,
,,,,,,,,2023-08-16_08h37.55.652,HF_wild_card,2022.2.4,MacIntel,60.0024001,632892646eb1fff474584dd7,64d2fd46c836a06233681665,64dc7cc2807e6bcc56f75d06,,,,,,,decisionTrl,resources/DB.BMP,resources/DY.BMP,Door3,-0.268259345,0.015455967,1,0,0,0.6816,optionLeft,70,13845,6,30,0,30,0,1,,,,,,,,,,,,,,,,,,,,,,,,,,,,,,,,,,,,,,,
,,,,,,,,2023-08-16_08h37.55.652,HF_wild_card,2022.2.4,MacIntel,60.0024001,632892646eb1fff474584dd7,64d2fd46c836a06233681665,64dc7cc2807e6bcc56f75d06,,,,,,,sngl,resources/Empty.png,resources/DG.BMP,WildCard_NonEx,0.199632433,-0.006994742,1,0,0,0.6992,optionRight,45,13890,6,31,0,31,0,1,,,,,,,,,,,,,,,,,,,,,,,,,,,,,,,,,,,,,,,
,,,,,,,,2023-08-16_08h37.55.652,HF_wild_card,2022.2.4,MacIntel,60.0024001,632892646eb1fff474584dd7,64d2fd46c836a06233681665,64dc7cc2807e6bcc56f75d06,,,,,,,decisionTrl,resources/DG.BMP,resources/DP.BMP,WildCard_NonEx,-0.236131343,0.027922623,1,0,0,1.5001,optionLeft,45,13935,6,32,0,32,0,1,,,,,,,,,,,,,,,,,,,,,,,,,,,,,,,,,,,,,,,
,,,,,,,,2023-08-16_08h37.55.652,HF_wild_card,2022.2.4,MacIntel,60.0024001,632892646eb1fff474584dd7,64d2fd46c836a06233681665,64dc7cc2807e6bcc56f75d06,,,,,,,ctch,resources/DR.BMP,resources/DY.BMP,Door4,0.238517705,0.013600215,1,0,0,1.9925,optionRight,80,14015,6,33,0,33,0,1,,,,,,,,,,,,,,,,,,,,,,,,,,,,,,,,,,,,,,,
,,,,,,,,2023-08-16_08h37.55.652,HF_wild_card,2022.2.4,MacIntel,60.0024001,632892646eb1fff474584dd7,64d2fd46c836a06233681665,64dc7cc2807e6bcc56f75d06,,,,,,,decisionTrl,resources/DY.BMP,resources/DB.BMP,Door4,-0.191122719,0.03015603,1,0,0,0.9324,optionLeft,80,14095,6,34,0,34,0,1,,,,,,,,,,,,,,,,,,,,,,,,,,,,,,,,,,,,,,,
,,,,,,,,2023-08-16_08h37.55.652,HF_wild_card,2022.2.4,MacIntel,60.0024001,632892646eb1fff474584dd7,64d2fd46c836a06233681665,64dc7cc2807e6bcc56f75d06,,,,,,,decisionTrl,resources/DR.BMP,resources/DP.BMP,Door2,0.287502148,-0.009323685,1,0,0,1.048,optionRight,20,14115,6,35,0,35,0,1,,,,,,,,,,,,,,,,,,,,,,,,,,,,,,,,,,,,,,,
,,,,,,,,2023-08-16_08h37.55.652,HF_wild_card,2022.2.4,MacIntel,60.0024001,632892646eb1fff474584dd7,64d2fd46c836a06233681665,64dc7cc2807e6bcc56f75d06,,,,,,,decisionTrl,resources/DG.BMP,resources/DB.BMP,Door3,0.220793887,0.005832474,1,0,0,1.6305,optionRight,70,14185,6,36,0,36,0,1,,,,,,,,,,,,,,,,,,,,,,,,,,,,,,,,,,,,,,,
,,,,,,,,2023-08-16_08h37.55.652,HF_wild_card,2022.2.4,MacIntel,60.0024001,632892646eb1fff474584dd7,64d2fd46c836a06233681665,64dc7cc2807e6bcc56f75d06,,,,,,,sngl,resources/Empty.png,resources/DB.BMP,Door3,0.224073848,0.006044854,1,0,0,0.6625,optionRight,70,14255,6,37,0,37,0,1,,,,,,,,,,,,,,,,,,,,,,,,,,,,,,,,,,,,,,,
,,,,,,,,2023-08-16_08h37.55.652,HF_wild_card,2022.2.4,MacIntel,60.0024001,632892646eb1fff474584dd7,64d2fd46c836a06233681665,64dc7cc2807e6bcc56f75d06,,,,,,,decisionTrl,resources/DG.BMP,resources/DY.BMP,Door4,0.321987463,0.024908447,1,0,0,3.697,optionRight,60,14315,6,38,0,38,0,1,,,,,,,,,,,,,,,,,,,,,,,,,,,,,,,,,,,,,,,
,,,,,,,,2023-08-16_08h37.55.652,HF_wild_card,2022.2.4,MacIntel,60.0024001,632892646eb1fff474584dd7,64d2fd46c836a06233681665,64dc7cc2807e6bcc56f75d06,,,,,,,decisionTrl,resources/DP.BMP,resources/DR.BMP,Door2,-0.274271195,0.007000506,1,0,0,4.1464,optionLeft,20,14335,6,39,0,39,0,1,,,,,,,,,,,,,,,,,,,,,,,,,,,,,,,,,,,,,,,
,,,,,,,,2023-08-16_08h37.55.652,HF_wild_card,2022.2.4,MacIntel,60.0024001,632892646eb1fff474584dd7,64d2fd46c836a06233681665,64dc7cc2807e6bcc56f75d06,,,,,,,decisionTrl,resources/DP.BMP,resources/DR.BMP,Door1,0.250675117,0.01385871,1,0,0,0.7632,optionRight,30,14365,6,40,0,40,0,1,,,,,,,,,,,,,,,,,,,,,,,,,,,,,,,,,,,,,,,
,,,,,,,,2023-08-16_08h37.55.652,HF_wild_card,2022.2.4,MacIntel,60.0024001,632892646eb1fff474584dd7,64d2fd46c836a06233681665,64dc7cc2807e6bcc56f75d06,,,,,,,decisionTrl,resources/DB.BMP,resources/DG.BMP,Door3,-0.203760839,0.055820041,1,0,0,1.8984,optionLeft,70,14435,6,41,0,41,0,1,,,,,,,,,,,,,,,,,,,,,,,,,,,,,,,,,,,,,,,
,,,,,,,,2023-08-16_08h37.55.652,HF_wild_card,2022.2.4,MacIntel,60.0024001,632892646eb1fff474584dd7,64d2fd46c836a06233681665,64dc7cc2807e6bcc56f75d06,,,,,,,decisionTrl,resources/DY.BMP,resources/DG.BMP,Door4,-0.217741338,0.052341489,1,0,0,1.3304,optionLeft,80,14515,6,42,0,42,0,1,,,,,,,,,,,,,,,,,,,,,,,,,,,,,,,,,,,,,,,
,,,,,,,,2023-08-16_08h37.55.652,HF_wild_card,2022.2.4,MacIntel,60.0024001,632892646eb1fff474584dd7,64d2fd46c836a06233681665,64dc7cc2807e6bcc56f75d06,,,,,,,ctch,resources/DY.BMP,resources/DR.BMP,Door4,-0.167117875,0.070320101,1,0,0,1.0637,optionLeft,80,14595,6,43,0,43,0,1,,,,,,,,,,,,,,,,,,,,,,,,,,,,,,,,,,,,,,,
,,,,,,,,2023-08-16_08h37.55.652,HF_wild_card,2022.2.4,MacIntel,60.0024001,632892646eb1fff474584dd7,64d2fd46c836a06233681665,64dc7cc2807e6bcc56f75d06,,,,,,,,,,,,,,,,,,,,,,,,,,5,0,5,0,1,,,,,,,,,,,,,,,,,,,,,,,,,,,,,,,,,,
,,,,,,,,2023-08-16_08h37.55.652,HF_wild_card,2022.2.4,MacIntel,60.0024001,632892646eb1fff474584dd7,64d2fd46c836a06233681665,64dc7cc2807e6bcc56f75d06,,,,,,,decisionTrl,resources/DR.BMP,resources/DP.BMP,Door1,-0.286692414,-0.027279663,1,0,0,3.47,optionLeft,30,14625,7,0,0,0,0,1,,,,,,,,,,,,,,,,,,,,,,,,,,,,,,,,,,,,,,,
,,,,,,,,2023-08-16_08h37.55.652,HF_wild_card,2022.2.4,MacIntel,60.0024001,632892646eb1fff474584dd7,64d2fd46c836a06233681665,64dc7cc2807e6bcc56f75d06,,,,,,,ctch,resources/DP.BMP,resources/DB.BMP,Door3,0.19771559,-0.021032037,1,0,0,1.5484,optionRight,70,14695,7,1,0,1,0,1,,,,,,,,,,,,,,,,,,,,,,,,,,,,,,,,,,,,,,,
,,,,,,,,2023-08-16_08h37.55.652,HF_wild_card,2022.2.4,MacIntel,60.0024001,632892646eb1fff474584dd7,64d2fd46c836a06233681665,64dc7cc2807e6bcc56f75d06,,,,,,,decisionTrl,resources/DP.BMP,resources/DR.BMP,Door1,0.200359203,-0.00488852,1,0,0,4.5321,optionRight,30,14725,7,2,0,2,0,1,,,,,,,,,,,,,,,,,,,,,,,,,,,,,,,,,,,,,,,
,,,,,,,,2023-08-16_08h37.55.652,HF_wild_card,2022.2.4,MacIntel,60.0024001,632892646eb1fff474584dd7,64d2fd46c836a06233681665,64dc7cc2807e6bcc56f75d06,,,,,,,ctch,resources/DR.BMP,resources/DY.BMP,Door4,0.228841372,0.007014183,1,0,0,1.1793,optionRight,80,14805,7,3,0,3,0,1,,,,,,,,,,,,,,,,,,,,,,,,,,,,,,,,,,,,,,,
,,,,,,,,2023-08-16_08h37.55.652,HF_wild_card,2022.2.4,MacIntel,60.0024001,632892646eb1fff474584dd7,64d2fd46c836a06233681665,64dc7cc2807e6bcc56f75d06,,,,,,,decisionTrl,resources/DB.BMP,resources/DY.BMP,Door3,-0.179107892,0.013545171,1,0,0,2.4995,optionLeft,70,14875,7,4,0,4,0,1,,,,,,,,,,,,,,,,,,,,,,,,,,,,,,,,,,,,,,,
,,,,,,,,2023-08-16_08h37.55.652,HF_wild_card,2022.2.4,MacIntel,60.0024001,632892646eb1fff474584dd7,64d2fd46c836a06233681665,64dc7cc2807e6bcc56f75d06,,,,,,,decisionTrl,resources/DB.BMP,resources/DY.BMP,Door3,-0.212250151,0.013626833,1,0,0,0.7329,optionLeft,70,14945,7,5,0,5,0,1,,,,,,,,,,,,,,,,,,,,,,,,,,,,,,,,,,,,,,,
,,,,,,,,2023-08-16_08h37.55.652,HF_wild_card,2022.2.4,MacIntel,60.0024001,632892646eb1fff474584dd7,64d2fd46c836a06233681665,64dc7cc2807e6bcc56f75d06,,,,,,,decisionTrl,resources/DB.BMP,resources/DY.BMP,Door3,-0.347155479,0.051959511,1,0,0,0.8488,optionLeft,70,15015,7,6,0,6,0,1,,,,,,,,,,,,,,,,,,,,,,,,,,,,,,,,,,,,,,,
,,,,,,,,2023-08-16_08h37.55.652,HF_wild_card,2022.2.4,MacIntel,60.0024001,632892646eb1fff474584dd7,64d2fd46c836a06233681665,64dc7cc2807e6bcc56f75d06,,,,,,,decisionTrl,resources/DY.BMP,resources/DB.BMP,Door3,0.202906969,0.001033981,1,0,0,1.182,optionRight,70,15085,7,7,0,7,0,1,,,,,,,,,,,,,,,,,,,,,,,,,,,,,,,,,,,,,,,
,,,,,,,,2023-08-16_08h37.55.652,HF_wild_card,2022.2.4,MacIntel,60.0024001,632892646eb1fff474584dd7,64d2fd46c836a06233681665,64dc7cc2807e6bcc56f75d06,,,,,,,ctch,resources/DY.BMP,resources/DR.BMP,Door4,-0.290342825,0.020374835,1,0,0,1.1823,optionLeft,60,15145,7,8,0,8,0,1,,,,,,,,,,,,,,,,,,,,,,,,,,,,,,,,,,,,,,,
,,,,,,,,2023-08-16_08h37.55.652,HF_wild_card,2022.2.4,MacIntel,60.0024001,632892646eb1fff474584dd7,64d2fd46c836a06233681665,64dc7cc2807e6bcc56f75d06,,,,,,,decisionTrl,resources/DR.BMP,resources/DP.BMP,Door1,-0.192626671,0.058743851,1,0,0,3.4516,optionLeft,30,15175,7,9,0,9,0,1,,,,,,,,,,,,,,,,,,,,,,,,,,,,,,,,,,,,,,,
,,,,,,,,2023-08-16_08h37.55.652,HF_wild_card,2022.2.4,MacIntel,60.0024001,632892646eb1fff474584dd7,64d2fd46c836a06233681665,64dc7cc2807e6bcc56f75d06,,,,,,,decisionTrl,resources/DY.BMP,resources/DB.BMP,Door3,0.220042928,3.50387E-06,1,0,0,3.7142,optionRight,70,15245,7,10,0,10,0,1,,,,,,,,,,,,,,,,,,,,,,,,,,,,,,,,,,,,,,,
,,,,,,,,2023-08-16_08h37.55.652,HF_wild_card,2022.2.4,MacIntel,60.0024001,632892646eb1fff474584dd7,64d2fd46c836a06233681665,64dc7cc2807e6bcc56f75d06,,,,,,,decisionTrl,resources/DY.BMP,resources/DB.BMP,Door3,0.202950259,0.007285337,1,0,0,1.0476,optionRight,70,15315,7,11,0,11,0,1,,,,,,,,,,,,,,,,,,,,,,,,,,,,,,,,,,,,,,,
,,,,,,,,2023-08-16_08h37.55.652,HF_wild_card,2022.2.4,MacIntel,60.0024001,632892646eb1fff474584dd7,64d2fd46c836a06233681665,64dc7cc2807e6bcc56f75d06,,,,,,,decisionTrl,resources/DB.BMP,resources/DY.BMP,Door3,-0.173335888,0.02677471,1,0,0,0.8304,optionLeft,70,15385,7,12,0,12,0,1,,,,,,,,,,,,,,,,,,,,,,,,,,,,,,,,,,,,,,,
,,,,,,,,2023-08-16_08h37.55.652,HF_wild_card,2022.2.4,MacIntel,60.0024001,632892646eb1fff474584dd7,64d2fd46c836a06233681665,64dc7cc2807e6bcc56f75d06,,,,,,,ctch,resources/DY.BMP,resources/DR.BMP,Door4,-0.252118485,0.036884675,1,0,0,1.2329,optionLeft,80,15465,7,13,0,13,0,1,,,,,,,,,,,,,,,,,,,,,,,,,,,,,,,,,,,,,,,
,,,,,,,,2023-08-16_08h37.55.652,HF_wild_card,2022.2.4,MacIntel,60.0024001,632892646eb1fff474584dd7,64d2fd46c836a06233681665,64dc7cc2807e6bcc56f75d06,,,,,,,decisionTrl,resources/DB.BMP,resources/DY.BMP,Door3,-0.229798268,0.026389793,1,0,0,2.4746,optionLeft,70,15535,7,14,0,14,0,1,,,,,,,,,,,,,,,,,,,,,,,,,,,,,,,,,,,,,,,
,,,,,,,,2023-08-16_08h37.55.652,HF_wild_card,2022.2.4,MacIntel,60.0024001,632892646eb1fff474584dd7,64d2fd46c836a06233681665,64dc7cc2807e6bcc56f75d06,,,,,,,ctch,resources/DP.BMP,resources/DB.BMP,Door3,0.191588451,0.013987449,1,0,0,1.8661,optionRight,70,15605,7,15,0,15,0,1,,,,,,,,,,,,,,,,,,,,,,,,,,,,,,,,,,,,,,,
,,,,,,,,2023-08-16_08h37.55.652,HF_wild_card,2022.2.4,MacIntel,60.0024001,632892646eb1fff474584dd7,64d2fd46c836a06233681665,64dc7cc2807e6bcc56f75d06,,,,,,,decisionTrl,resources/DY.BMP,resources/DB.BMP,Door4,-0.192255486,0.025215771,1,0,0,3.0826,optionLeft,60,15665,7,16,0,16,0,1,,,,,,,,,,,,,,,,,,,,,,,,,,,,,,,,,,,,,,,
,,,,,,,,2023-08-16_08h37.55.652,HF_wild_card,2022.2.4,MacIntel,60.0024001,632892646eb1fff474584dd7,64d2fd46c836a06233681665,64dc7cc2807e6bcc56f75d06,,,,,,,decisionTrl,resources/DR.BMP,resources/DP.BMP,Door1,-0.18466633,0.032464713,1,0,0,1.9503,optionLeft,30,15695,7,17,0,17,0,1,,,,,,,,,,,,,,,,,,,,,,,,,,,,,,,,,,,,,,,
,,,,,,,,2023-08-16_08h37.55.652,HF_wild_card,2022.2.4,MacIntel,60.0024001,632892646eb1fff474584dd7,64d2fd46c836a06233681665,64dc7cc2807e6bcc56f75d06,,,,,,,decisionTrl,resources/DP.BMP,resources/DR.BMP,Door1,0.266690855,0.019243481,1,0,0,4.4671,optionRight,30,15725,7,18,0,18,0,1,,,,,,,,,,,,,,,,,,,,,,,,,,,,,,,,,,,,,,,
,,,,,,,,2023-08-16_08h37.55.652,HF_wild_card,2022.2.4,MacIntel,60.0024001,632892646eb1fff474584dd7,64d2fd46c836a06233681665,64dc7cc2807e6bcc56f75d06,,,,,,,decisionTrl,resources/DP.BMP,resources/DR.BMP,Door1,0.150426794,0.007368413,1,0,0,0.8322,optionRight,30,15755,7,19,0,19,0,1,,,,,,,,,,,,,,,,,,,,,,,,,,,,,,,,,,,,,,,
,,,,,,,,2023-08-16_08h37.55.652,HF_wild_card,2022.2.4,MacIntel,60.0024001,632892646eb1fff474584dd7,64d2fd46c836a06233681665,64dc7cc2807e6bcc56f75d06,,,,,,,ctch,resources/DP.BMP,resources/DB.BMP,Door3,0.276622631,0.013358448,1,0,0,1.9658,optionRight,70,15825,7,20,0,20,0,1,,,,,,,,,,,,,,,,,,,,,,,,,,,,,,,,,,,,,,,
,,,,,,,,2023-08-16_08h37.55.652,HF_wild_card,2022.2.4,MacIntel,60.0024001,632892646eb1fff474584dd7,64d2fd46c836a06233681665,64dc7cc2807e6bcc56f75d06,,,,,,,ctch,resources/DB.BMP,resources/DP.BMP,Door3,-0.236001926,-0.011552429,1,0,0,1.1648,optionLeft,70,15895,7,21,0,21,0,1,,,,,,,,,,,,,,,,,,,,,,,,,,,,,,,,,,,,,,,
,,,,,,,,2023-08-16_08h37.55.652,HF_wild_card,2022.2.4,MacIntel,60.0024001,632892646eb1fff474584dd7,64d2fd46c836a06233681665,64dc7cc2807e6bcc56f75d06,,,,,,,decisionTrl,resources/DY.BMP,resources/DB.BMP,Door3,0.224399143,0.015528191,1,0,0,1.7976,optionRight,70,15965,7,22,0,22,0,1,,,,,,,,,,,,,,,,,,,,,,,,,,,,,,,,,,,,,,,
,,,,,,,,2023-08-16_08h37.55.652,HF_wild_card,2022.2.4,MacIntel,60.0024001,632892646eb1fff474584dd7,64d2fd46c836a06233681665,64dc7cc2807e6bcc56f75d06,,,,,,,ctch,resources/DR.BMP,resources/DY.BMP,Door4,0.236925026,-0.000263808,1,0,0,1.3496,optionRight,80,16045,7,23,0,23,0,1,,,,,,,,,,,,,,,,,,,,,,,,,,,,,,,,,,,,,,,
,,,,,,,,2023-08-16_08h37.55.652,HF_wild_card,2022.2.4,MacIntel,60.0024001,632892646eb1fff474584dd7,64d2fd46c836a06233681665,64dc7cc2807e6bcc56f75d06,,,,,,,ctch,resources/DR.BMP,resources/DY.BMP,Door4,0.166077225,0.001335201,1,0,0,0.7492,optionRight,60,16105,7,24,0,24,0,1,,,,,,,,,,,,,,,,,,,,,,,,,,,,,,,,,,,,,,,
,,,,,,,,2023-08-16_08h37.55.652,HF_wild_card,2022.2.4,MacIntel,60.0024001,632892646eb1fff474584dd7,64d2fd46c836a06233681665,64dc7cc2807e6bcc56f75d06,,,,,,,decisionTrl,resources/DR.BMP,resources/DP.BMP,Door1,-0.113993892,0.016621229,1,0,0,3.2806,optionLeft,30,16135,7,25,0,25,0,1,,,,,,,,,,,,,,,,,,,,,,,,,,,,,,,,,,,,,,,
,,,,,,,,2023-08-16_08h37.55.652,HF_wild_card,2022.2.4,MacIntel,60.0024001,632892646eb1fff474584dd7,64d2fd46c836a06233681665,64dc7cc2807e6bcc56f75d06,,,,,,,decisionTrl,resources/DY.BMP,resources/DB.BMP,Door3,0.22757331,0.014092961,1,0,0,2.5519,optionRight,70,16205,7,26,0,26,0,1,,,,,,,,,,,,,,,,,,,,,,,,,,,,,,,,,,,,,,,
,,,,,,,,2023-08-16_08h37.55.652,HF_wild_card,2022.2.4,MacIntel,60.0024001,632892646eb1fff474584dd7,64d2fd46c836a06233681665,64dc7cc2807e6bcc56f75d06,,,,,,,ctch,resources/DB.BMP,resources/DP.BMP,Door3,-0.193831098,0.036212215,1,0,0,0.7829,optionLeft,70,16275,7,27,0,27,0,1,,,,,,,,,,,,,,,,,,,,,,,,,,,,,,,,,,,,,,,
,,,,,,,,2023-08-16_08h37.55.652,HF_wild_card,2022.2.4,MacIntel,60.0024001,632892646eb1fff474584dd7,64d2fd46c836a06233681665,64dc7cc2807e6bcc56f75d06,,,,,,,ctch,resources/DY.BMP,resources/DR.BMP,Door4,-0.201321185,0.033757641,1,0,0,1.5812,optionLeft,60,16335,7,28,0,28,0,1,,,,,,,,,,,,,,,,,,,,,,,,,,,,,,,,,,,,,,,
,,,,,,,,2023-08-16_08h37.55.652,HF_wild_card,2022.2.4,MacIntel,60.0024001,632892646eb1fff474584dd7,64d2fd46c836a06233681665,64dc7cc2807e6bcc56f75d06,,,,,,,decisionTrl,resources/DP.BMP,resources/DR.BMP,Door1,0.250211249,-0.002674131,1,0,0,3.5487,optionRight,30,16365,7,29,0,29,0,1,,,,,,,,,,,,,,,,,,,,,,,,,,,,,,,,,,,,,,,
,,,,,,,,2023-08-16_08h37.55.652,HF_wild_card,2022.2.4,MacIntel,60.0024001,632892646eb1fff474584dd7,64d2fd46c836a06233681665,64dc7cc2807e6bcc56f75d06,,,,,,,decisionTrl,resources/DP.BMP,resources/DR.BMP,Door1,0.125680316,0.007281155,1,0,0,1.0159,optionRight,30,16395,7,30,0,30,0,1,,,,,,,,,,,,,,,,,,,,,,,,,,,,,,,,,,,,,,,
,,,,,,,,2023-08-16_08h37.55.652,HF_wild_card,2022.2.4,MacIntel,60.0024001,632892646eb1fff474584dd7,64d2fd46c836a06233681665,64dc7cc2807e6bcc56f75d06,,,,,,,decisionTrl,resources/DB.BMP,resources/DY.BMP,Door4,0.193785943,0.009487124,1,0,0,2.7493,optionRight,60,16455,7,31,0,31,0,1,,,,,,,,,,,,,,,,,,,,,,,,,,,,,,,,,,,,,,,
,,,,,,,,2023-08-16_08h37.55.652,HF_wild_card,2022.2.4,MacIntel,60.0024001,632892646eb1fff474584dd7,64d2fd46c836a06233681665,64dc7cc2807e6bcc56f75d06,,,,,,,decisionTrl,resources/DR.BMP,resources/DP.BMP,Door1,-0.191782238,0.019418222,1,0,0,1.8174,optionLeft,30,16485,7,32,0,32,0,1,,,,,,,,,,,,,,,,,,,,,,,,,,,,,,,,,,,,,,,
,,,,,,,,2023-08-16_08h37.55.652,HF_wild_card,2022.2.4,MacIntel,60.0024001,632892646eb1fff474584dd7,64d2fd46c836a06233681665,64dc7cc2807e6bcc56f75d06,,,,,,,ctch,resources/DB.BMP,resources/DP.BMP,Door3,-0.199280124,0.018576728,1,0,0,2.5319,optionLeft,70,16555,7,33,0,33,0,1,,,,,,,,,,,,,,,,,,,,,,,,,,,,,,,,,,,,,,,
,,,,,,,,2023-08-16_08h37.55.652,HF_wild_card,2022.2.4,MacIntel,60.0024001,632892646eb1fff474584dd7,64d2fd46c836a06233681665,64dc7cc2807e6bcc56f75d06,,,,,,,decisionTrl,resources/DP.BMP,resources/DR.BMP,Door2,-0.239968081,-0.003317148,1,0,0,7.4676,optionLeft,40,16595,7,34,0,34,0,1,,,,,,,,,,,,,,,,,,,,,,,,,,,,,,,,,,,,,,,
,,,,,,,,2023-08-16_08h37.55.652,HF_wild_card,2022.2.4,MacIntel,60.0024001,632892646eb1fff474584dd7,64d2fd46c836a06233681665,64dc7cc2807e6bcc56f75d06,,,,,,,decisionTrl,resources/DR.BMP,resources/DP.BMP,Door2,0.160159189,-0.0020401,1,0,0,1.1294,optionRight,20,16615,7,35,0,35,0,1,,,,,,,,,,,,,,,,,,,,,,,,,,,,,,,,,,,,,,,
,,,,,,,,2023-08-16_08h37.55.652,HF_wild_card,2022.2.4,MacIntel,60.0024001,632892646eb1fff474584dd7,64d2fd46c836a06233681665,64dc7cc2807e6bcc56f75d06,,,,,,,,,,,,,,,,,,,,,,,,,,6,0,6,0,1,,,,,,,,,,,,,,,,,,,,,,,,,,,,,,,,,,
,,,,,,,,2023-08-16_08h37.55.652,HF_wild_card,2022.2.4,MacIntel,60.0024001,632892646eb1fff474584dd7,64d2fd46c836a06233681665,64dc7cc2807e6bcc56f75d06,,,,,,,,,,,,,,,,,,,,,,,,,,,,,,,4,,,,,,,,,,,,,,,,,,,,,,,,,,,,,,,,,
,,,,,,,,2023-08-16_08h37.55.652,HF_wild_card,2022.2.4,MacIntel,60.0024001,632892646eb1fff474584dd7,64d2fd46c836a06233681665,64dc7cc2807e6bcc56f75d06,,,,,,,,,,,,,,,,,,,,,,,,,,,,,,,,,,,,,,,,,,,,,,,,,,,,,,,,,,,,,,,,
,,,,,,,,2023-08-16_08h37.55.652,HF_wild_card,2022.2.4,MacIntel,60.0024001,632892646eb1fff474584dd7,64d2fd46c836a06233681665,64dc7cc2807e6bcc56f75d06,,,,,,,,,,,,,,,,,,,,,,,,,,,,,,,,70,Door4,resources/DY.BMP,0,0,0,0,1,,,,,,,,,,,,,,,,,,,,,,,,,
,,,,,,,,2023-08-16_08h37.55.652,HF_wild_card,2022.2.4,MacIntel,60.0024001,632892646eb1fff474584dd7,64d2fd46c836a06233681665,64dc7cc2807e6bcc56f75d06,,,,,,,,,,,,,,,,,,,,,,,,,,,,,,,,30,Door2,resources/DP.BMP,1,0,1,0,1,,,,,,,,,,,,,,,,,,,,,,,,,
,,,,,,,,2023-08-16_08h37.55.652,HF_wild_card,2022.2.4,MacIntel,60.0024001,632892646eb1fff474584dd7,64d2fd46c836a06233681665,64dc7cc2807e6bcc56f75d06,,,,,,,,,,,,,,,,,,,,,,,,,,,,,,,,80,Door3,resources/DB.BMP,2,0,2,0,1,,,,,,,,,,,,,,,,,,,,,,,,,
,,,,,,,,2023-08-16_08h37.55.652,HF_wild_card,2022.2.4,MacIntel,60.0024001,632892646eb1fff474584dd7,64d2fd46c836a06233681665,64dc7cc2807e6bcc56f75d06,,,,,,,,,,,,,,,,,,,,,,,,,,,,,,,,50,WC_nonExtreme,resources/DG.BMP,3,0,3,0,1,,,,,,,,,,,,,,,,,,,,,,,,,
