Condition,Low fixed image (Door1),Low risky image (Door2),High fixed image (Door3),High risky image (Door4),Extreme Wild Card,NonExtreme Wild Card,,date,expName,psychopyVersion,OS,frameRate,PROLIFIC_PID,STUDY_ID,SESSION_ID,mouse_2.x,mouse_2.y,mouse_2.leftButton,mouse_2.midButton,mouse_2.rightButton,mouse_2.clicked_name,Trial Type,Left Option Image,Right Option Image,Chosen Door,mouse.x,mouse.y,mouse.leftButton,mouse.midButton,mouse.rightButton,mouse.time,mouse.clicked_name,Feedback,Cumulative Reward,Block,trial.thisRepN,trial.thisTrialN,trial.thisN,trial.thisIndex,trial.ran,blocks.thisRepN,blocks.thisTrialN,blocks.thisN,blocks.thisIndex,blocks.ran,Money conversion,First Outcome Reported,Shown Door (First Outcome),Displayed Image (First Outcome),outcomes.thisRepN,outcomes.thisTrialN,outcomes.thisN,outcomes.thisIndex,outcomes.ran,judgments.thisRepN,judgments.thisTrialN,judgments.thisN,judgments.thisIndex,judgments.ran,freqMouse.x,freqMouse.y,freqMouse.leftButton,freqMouse.midButton,freqMouse.rightButton,freqMouse.clicked_name,FQJ for first outcome,FQJ for second outcome,Shown Door,Displayed Image,trials.thisRepN,trials.thisTrialN,trials.thisN,trials.thisIndex,trials.ran,judgBlock.thisRepN,judgBlock.thisTrialN,judgBlock.thisN,judgBlock.thisIndex,judgBlock.ran
1,resources/DBN.BMP,resources/DR.BMP,resources/DG.BMP,resources/DP.BMP,resources/DB.BMP,resources/DY.BMP,,2023-08-16_08h30.50.290,HF_wild_card,2022.2.4,MacIntel,62.5,62a882f2dc6e6b6b98199b8c,64d2fd46c836a06233681665,64dc7b1a1a8a7ce03986474c,,,,,,,,,,,,,,,,,,,,,,,,,,,,,,,,,,,,,,,,,,,,,,,,,,,,,,,,,,,,,,,,
,,,,,,,,2023-08-16_08h30.50.290,HF_wild_card,2022.2.4,MacIntel,62.5,62a882f2dc6e6b6b98199b8c,64d2fd46c836a06233681665,64dc7b1a1a8a7ce03986474c,-0.004444444,-0.42,1,0,0,agree,,,,,,,,,,,,,,,,,,,,,,,,,,,,,,,,,,,,,,,,,,,,,,,,,,,,,,,,,,
,,,,,,,,2023-08-16_08h30.50.290,HF_wild_card,2022.2.4,MacIntel,62.5,62a882f2dc6e6b6b98199b8c,64d2fd46c836a06233681665,64dc7b1a1a8a7ce03986474c,,,,,,,,,,,,,,,,,,,,,,,,,,,,,,,,,,,,,,,,,,,,,,,,,,,,,,,,,,,,,,,,
,,,,,,,,2023-08-16_08h30.50.290,HF_wild_card,2022.2.4,MacIntel,62.5,62a882f2dc6e6b6b98199b8c,64d2fd46c836a06233681665,64dc7b1a1a8a7ce03986474c,,,,,,,decisionTrl,resources/DBN.BMP,resources/DR.BMP,Door1,-0.246666667,-0.083333333,1,0,0,1.454,optionLeft,30,30,1,0,0,0,0,1,,,,,,,,,,,,,,,,,,,,,,,,,,,,,,,,,,,,,,,
,,,,,,,,2023-08-16_08h30.50.290,HF_wild_card,2022.2.4,MacIntel,62.5,62a882f2dc6e6b6b98199b8c,64d2fd46c836a06233681665,64dc7b1a1a8a7ce03986474c,,,,,,,decisionTrl,resources/DG.BMP,resources/DP.BMP,Door4,0.37,-0.022222222,1,0,0,0.86,optionRight,80,110,1,1,0,1,0,1,,,,,,,,,,,,,,,,,,,,,,,,,,,,,,,,,,,,,,,
,,,,,,,,2023-08-16_08h30.50.290,HF_wild_card,2022.2.4,MacIntel,62.5,62a882f2dc6e6b6b98199b8c,64d2fd46c836a06233681665,64dc7b1a1a8a7ce03986474c,,,,,,,ctch,resources/DP.BMP,resources/DBN.BMP,Door4,-0.35,0.071111111,1,0,0,0.645,optionLeft,80,190,1,2,0,2,0,1,,,,,,,,,,,,,,,,,,,,,,,,,,,,,,,,,,,,,,,
,,,,,,,,2023-08-16_08h30.50.290,HF_wild_card,2022.2.4,MacIntel,62.5,62a882f2dc6e6b6b98199b8c,64d2fd46c836a06233681665,64dc7b1a1a8a7ce03986474c,,,,,,,ctch,resources/DR.BMP,resources/DG.BMP,Door3,0.452222222,-0.174444444,1,0,0,1.342,optionRight,70,260,1,3,0,3,0,1,,,,,,,,,,,,,,,,,,,,,,,,,,,,,,,,,,,,,,,
,,,,,,,,2023-08-16_08h30.50.290,HF_wild_card,2022.2.4,MacIntel,62.5,62a882f2dc6e6b6b98199b8c,64d2fd46c836a06233681665,64dc7b1a1a8a7ce03986474c,,,,,,,ctch,resources/DBN.BMP,resources/DP.BMP,Door4,0.295555556,-0.023333333,1,0,0,0.748,optionRight,60,320,1,4,0,4,0,1,,,,,,,,,,,,,,,,,,,,,,,,,,,,,,,,,,,,,,,
,,,,,,,,2023-08-16_08h30.50.290,HF_wild_card,2022.2.4,MacIntel,62.5,62a882f2dc6e6b6b98199b8c,64d2fd46c836a06233681665,64dc7b1a1a8a7ce03986474c,,,,,,,ctch,resources/DG.BMP,resources/DR.BMP,Door3,-0.295555556,-0.007777778,1,0,0,0.876,optionLeft,70,390,1,5,0,5,0,1,,,,,,,,,,,,,,,,,,,,,,,,,,,,,,,,,,,,,,,
,,,,,,,,2023-08-16_08h30.50.290,HF_wild_card,2022.2.4,MacIntel,62.5,62a882f2dc6e6b6b98199b8c,64d2fd46c836a06233681665,64dc7b1a1a8a7ce03986474c,,,,,,,decisionTrl,resources/DP.BMP,resources/DG.BMP,Door3,0.335555556,0.031111111,1,0,0,0.643,optionRight,70,460,1,6,0,6,0,1,,,,,,,,,,,,,,,,,,,,,,,,,,,,,,,,,,,,,,,
,,,,,,,,2023-08-16_08h30.50.290,HF_wild_card,2022.2.4,MacIntel,62.5,62a882f2dc6e6b6b98199b8c,64d2fd46c836a06233681665,64dc7b1a1a8a7ce03986474c,,,,,,,decisionTrl,resources/DP.BMP,resources/DG.BMP,Door4,-0.277777778,-0.01,1,0,0,0.793,optionLeft,60,520,1,7,0,7,0,1,,,,,,,,,,,,,,,,,,,,,,,,,,,,,,,,,,,,,,,
,,,,,,,,2023-08-16_08h30.50.290,HF_wild_card,2022.2.4,MacIntel,62.5,62a882f2dc6e6b6b98199b8c,64d2fd46c836a06233681665,64dc7b1a1a8a7ce03986474c,,,,,,,decisionTrl,resources/DBN.BMP,resources/DR.BMP,Door2,0.327777778,-0.027777778,1,0,0,1.112,optionRight,40,560,1,8,0,8,0,1,,,,,,,,,,,,,,,,,,,,,,,,,,,,,,,,,,,,,,,
,,,,,,,,2023-08-16_08h30.50.290,HF_wild_card,2022.2.4,MacIntel,62.5,62a882f2dc6e6b6b98199b8c,64d2fd46c836a06233681665,64dc7b1a1a8a7ce03986474c,,,,,,,decisionTrl,resources/DY.BMP,resources/DR.BMP,WildCard_NonEx,-0.26,0.003333333,1,0,0,0.709,optionLeft,55,615,1,9,0,9,0,1,,,,,,,,,,,,,,,,,,,,,,,,,,,,,,,,,,,,,,,
,,,,,,,,2023-08-16_08h30.50.290,HF_wild_card,2022.2.4,MacIntel,62.5,62a882f2dc6e6b6b98199b8c,64d2fd46c836a06233681665,64dc7b1a1a8a7ce03986474c,,,,,,,sngl,resources/DBN.BMP,resources/Empty.png,Door1,-0.275555556,0.021111111,1,0,0,0.778,optionLeft,30,645,1,10,0,10,0,1,,,,,,,,,,,,,,,,,,,,,,,,,,,,,,,,,,,,,,,
,,,,,,,,2023-08-16_08h30.50.290,HF_wild_card,2022.2.4,MacIntel,62.5,62a882f2dc6e6b6b98199b8c,64d2fd46c836a06233681665,64dc7b1a1a8a7ce03986474c,,,,,,,decisionTrl,resources/DG.BMP,resources/DP.BMP,Door4,0.258888889,0.024444444,1,0,0,0.712,optionRight,60,705,1,11,0,11,0,1,,,,,,,,,,,,,,,,,,,,,,,,,,,,,,,,,,,,,,,
,,,,,,,,2023-08-16_08h30.50.290,HF_wild_card,2022.2.4,MacIntel,62.5,62a882f2dc6e6b6b98199b8c,64d2fd46c836a06233681665,64dc7b1a1a8a7ce03986474c,,,,,,,decisionTrl,resources/DBN.BMP,resources/DR.BMP,Door1,-0.321111111,0.015555556,1,0,0,1.111,optionLeft,30,735,1,12,0,12,0,1,,,,,,,,,,,,,,,,,,,,,,,,,,,,,,,,,,,,,,,
,,,,,,,,2023-08-16_08h30.50.290,HF_wild_card,2022.2.4,MacIntel,62.5,62a882f2dc6e6b6b98199b8c,64d2fd46c836a06233681665,64dc7b1a1a8a7ce03986474c,,,,,,,sngl,resources/Empty.png,resources/DG.BMP,Door3,0.256666667,-0.003333333,1,0,0,0.659,optionRight,70,805,1,13,0,13,0,1,,,,,,,,,,,,,,,,,,,,,,,,,,,,,,,,,,,,,,,
,,,,,,,,2023-08-16_08h30.50.290,HF_wild_card,2022.2.4,MacIntel,62.5,62a882f2dc6e6b6b98199b8c,64d2fd46c836a06233681665,64dc7b1a1a8a7ce03986474c,,,,,,,ctch,resources/DP.BMP,resources/DBN.BMP,Door4,-0.196666667,0,1,0,0,0.795,optionLeft,60,865,1,14,0,14,0,1,,,,,,,,,,,,,,,,,,,,,,,,,,,,,,,,,,,,,,,
,,,,,,,,2023-08-16_08h30.50.290,HF_wild_card,2022.2.4,MacIntel,62.5,62a882f2dc6e6b6b98199b8c,64d2fd46c836a06233681665,64dc7b1a1a8a7ce03986474c,,,,,,,sngl,resources/Empty.png,resources/DY.BMP,WildCard_NonEx,0.244444444,-0.032222222,1,0,0,0.594,optionRight,45,910,1,15,0,15,0,1,,,,,,,,,,,,,,,,,,,,,,,,,,,,,,,,,,,,,,,
,,,,,,,,2023-08-16_08h30.50.290,HF_wild_card,2022.2.4,MacIntel,62.5,62a882f2dc6e6b6b98199b8c,64d2fd46c836a06233681665,64dc7b1a1a8a7ce03986474c,,,,,,,decisionTrl,resources/DP.BMP,resources/DG.BMP,Door4,-0.308888889,0.008888889,1,0,0,0.677,optionLeft,80,990,1,16,0,16,0,1,,,,,,,,,,,,,,,,,,,,,,,,,,,,,,,,,,,,,,,
,,,,,,,,2023-08-16_08h30.50.290,HF_wild_card,2022.2.4,MacIntel,62.5,62a882f2dc6e6b6b98199b8c,64d2fd46c836a06233681665,64dc7b1a1a8a7ce03986474c,,,,,,,sngl,resources/DY.BMP,resources/Empty.png,WildCard_NonEx,-0.242222222,0.022222222,1,0,0,0.661,optionLeft,45,1035,1,17,0,17,0,1,,,,,,,,,,,,,,,,,,,,,,,,,,,,,,,,,,,,,,,
,,,,,,,,2023-08-16_08h30.50.290,HF_wild_card,2022.2.4,MacIntel,62.5,62a882f2dc6e6b6b98199b8c,64d2fd46c836a06233681665,64dc7b1a1a8a7ce03986474c,,,,,,,decisionTrl,resources/DY.BMP,resources/DBN.BMP,WildCard_NonEx,-0.346666667,0.04,1,0,0,0.911,optionLeft,45,1080,1,18,0,18,0,1,,,,,,,,,,,,,,,,,,,,,,,,,,,,,,,,,,,,,,,
,,,,,,,,2023-08-16_08h30.50.290,HF_wild_card,2022.2.4,MacIntel,62.5,62a882f2dc6e6b6b98199b8c,64d2fd46c836a06233681665,64dc7b1a1a8a7ce03986474c,,,,,,,decisionTrl,resources/DP.BMP,resources/DG.BMP,Door4,-0.241111111,-0.034444444,1,0,0,1.027,optionLeft,80,1160,1,19,0,19,0,1,,,,,,,,,,,,,,,,,,,,,,,,,,,,,,,,,,,,,,,
,,,,,,,,2023-08-16_08h30.50.290,HF_wild_card,2022.2.4,MacIntel,62.5,62a882f2dc6e6b6b98199b8c,64d2fd46c836a06233681665,64dc7b1a1a8a7ce03986474c,,,,,,,decisionTrl,resources/DBN.BMP,resources/DR.BMP,Door2,0.205555556,-0.015555556,1,0,0,0.726,optionRight,20,1180,1,20,0,20,0,1,,,,,,,,,,,,,,,,,,,,,,,,,,,,,,,,,,,,,,,
,,,,,,,,2023-08-16_08h30.50.290,HF_wild_card,2022.2.4,MacIntel,62.5,62a882f2dc6e6b6b98199b8c,64d2fd46c836a06233681665,64dc7b1a1a8a7ce03986474c,,,,,,,decisionTrl,resources/DG.BMP,resources/DP.BMP,Door4,0.202222222,0.055555556,1,0,0,1.127,optionRight,60,1240,1,21,0,21,0,1,,,,,,,,,,,,,,,,,,,,,,,,,,,,,,,,,,,,,,,
,,,,,,,,2023-08-16_08h30.50.290,HF_wild_card,2022.2.4,MacIntel,62.5,62a882f2dc6e6b6b98199b8c,64d2fd46c836a06233681665,64dc7b1a1a8a7ce03986474c,,,,,,,decisionTrl,resources/DR.BMP,resources/DBN.BMP,Door2,-0.371111111,0.043333333,1,0,0,0.678,optionLeft,20,1260,1,22,0,22,0,1,,,,,,,,,,,,,,,,,,,,,,,,,,,,,,,,,,,,,,,
,,,,,,,,2023-08-16_08h30.50.290,HF_wild_card,2022.2.4,MacIntel,62.5,62a882f2dc6e6b6b98199b8c,64d2fd46c836a06233681665,64dc7b1a1a8a7ce03986474c,,,,,,,decisionTrl,resources/DG.BMP,resources/DP.BMP,Door4,0.42,-0.045555556,1,0,0,0.794,optionRight,80,1340,1,23,0,23,0,1,,,,,,,,,,,,,,,,,,,,,,,,,,,,,,,,,,,,,,,
,,,,,,,,2023-08-16_08h30.50.290,HF_wild_card,2022.2.4,MacIntel,62.5,62a882f2dc6e6b6b98199b8c,64d2fd46c836a06233681665,64dc7b1a1a8a7ce03986474c,,,,,,,decisionTrl,resources/DG.BMP,resources/DY.BMP,Door3,-0.236666667,-0.041111111,1,0,0,0.827,optionLeft,70,1410,1,24,0,24,0,1,,,,,,,,,,,,,,,,,,,,,,,,,,,,,,,,,,,,,,,
,,,,,,,,2023-08-16_08h30.50.290,HF_wild_card,2022.2.4,MacIntel,62.5,62a882f2dc6e6b6b98199b8c,64d2fd46c836a06233681665,64dc7b1a1a8a7ce03986474c,,,,,,,sngl,resources/DP.BMP,resources/Empty.png,Door4,-0.357777778,-0.032222222,1,0,0,1.026,optionLeft,80,1490,1,25,0,25,0,1,,,,,,,,,,,,,,,,,,,,,,,,,,,,,,,,,,,,,,,
,,,,,,,,2023-08-16_08h30.50.290,HF_wild_card,2022.2.4,MacIntel,62.5,62a882f2dc6e6b6b98199b8c,64d2fd46c836a06233681665,64dc7b1a1a8a7ce03986474c,,,,,,,sngl,resources/DY.BMP,resources/Empty.png,WildCard_NonEx,-0.247777778,0.03,1,0,0,0.628,optionLeft,55,1545,1,26,0,26,0,1,,,,,,,,,,,,,,,,,,,,,,,,,,,,,,,,,,,,,,,
,,,,,,,,2023-08-16_08h30.50.290,HF_wild_card,2022.2.4,MacIntel,62.5,62a882f2dc6e6b6b98199b8c,64d2fd46c836a06233681665,64dc7b1a1a8a7ce03986474c,,,,,,,decisionTrl,resources/DR.BMP,resources/DBN.BMP,Door2,-0.346666667,0.014444444,1,0,0,0.725,optionLeft,40,1585,1,27,0,27,0,1,,,,,,,,,,,,,,,,,,,,,,,,,,,,,,,,,,,,,,,
,,,,,,,,2023-08-16_08h30.50.290,HF_wild_card,2022.2.4,MacIntel,62.5,62a882f2dc6e6b6b98199b8c,64d2fd46c836a06233681665,64dc7b1a1a8a7ce03986474c,,,,,,,sngl,resources/Empty.png,resources/DP.BMP,Door4,0.291111111,-0.026666667,1,0,0,0.559,optionRight,60,1645,1,28,0,28,0,1,,,,,,,,,,,,,,,,,,,,,,,,,,,,,,,,,,,,,,,
,,,,,,,,2023-08-16_08h30.50.290,HF_wild_card,2022.2.4,MacIntel,62.5,62a882f2dc6e6b6b98199b8c,64d2fd46c836a06233681665,64dc7b1a1a8a7ce03986474c,,,,,,,sngl,resources/Empty.png,resources/DY.BMP,WildCard_NonEx,0.126666667,0.01,1,0,0,0.747,optionRight,55,1700,1,29,0,29,0,1,,,,,,,,,,,,,,,,,,,,,,,,,,,,,,,,,,,,,,,
,,,,,,,,2023-08-16_08h30.50.290,HF_wild_card,2022.2.4,MacIntel,62.5,62a882f2dc6e6b6b98199b8c,64d2fd46c836a06233681665,64dc7b1a1a8a7ce03986474c,,,,,,,ctch,resources/DBN.BMP,resources/DP.BMP,Door1,-0.318888889,0.015555556,1,0,0,0.66,optionLeft,30,1730,1,30,0,30,0,1,,,,,,,,,,,,,,,,,,,,,,,,,,,,,,,,,,,,,,,
,,,,,,,,2023-08-16_08h30.50.290,HF_wild_card,2022.2.4,MacIntel,62.5,62a882f2dc6e6b6b98199b8c,64d2fd46c836a06233681665,64dc7b1a1a8a7ce03986474c,,,,,,,sngl,resources/DG.BMP,resources/Empty.png,Door3,-0.285555556,-0.006666667,1,0,0,0.827,optionLeft,70,1800,1,31,0,31,0,1,,,,,,,,,,,,,,,,,,,,,,,,,,,,,,,,,,,,,,,
,,,,,,,,2023-08-16_08h30.50.290,HF_wild_card,2022.2.4,MacIntel,62.5,62a882f2dc6e6b6b98199b8c,64d2fd46c836a06233681665,64dc7b1a1a8a7ce03986474c,,,,,,,ctch,resources/DR.BMP,resources/DG.BMP,Door3,0.495555556,-0.061111111,1,0,0,0.827,optionRight,70,1870,1,32,0,32,0,1,,,,,,,,,,,,,,,,,,,,,,,,,,,,,,,,,,,,,,,
,,,,,,,,2023-08-16_08h30.50.290,HF_wild_card,2022.2.4,MacIntel,62.5,62a882f2dc6e6b6b98199b8c,64d2fd46c836a06233681665,64dc7b1a1a8a7ce03986474c,,,,,,,ctch,resources/DG.BMP,resources/DR.BMP,Door3,-0.32,-0.004444444,1,0,0,1.362,optionLeft,70,1940,1,33,0,33,0,1,,,,,,,,,,,,,,,,,,,,,,,,,,,,,,,,,,,,,,,
,,,,,,,,2023-08-16_08h30.50.290,HF_wild_card,2022.2.4,MacIntel,62.5,62a882f2dc6e6b6b98199b8c,64d2fd46c836a06233681665,64dc7b1a1a8a7ce03986474c,,,,,,,decisionTrl,resources/DP.BMP,resources/DY.BMP,Door4,-0.276666667,-0.026666667,1,0,0,1.01,optionLeft,60,2000,1,34,0,34,0,1,,,,,,,,,,,,,,,,,,,,,,,,,,,,,,,,,,,,,,,
,,,,,,,,2023-08-16_08h30.50.290,HF_wild_card,2022.2.4,MacIntel,62.5,62a882f2dc6e6b6b98199b8c,64d2fd46c836a06233681665,64dc7b1a1a8a7ce03986474c,,,,,,,decisionTrl,resources/DR.BMP,resources/DBN.BMP,Door2,-0.365555556,0.013333333,1,0,0,0.761,optionLeft,20,2020,1,35,0,35,0,1,,,,,,,,,,,,,,,,,,,,,,,,,,,,,,,,,,,,,,,
,,,,,,,,2023-08-16_08h30.50.290,HF_wild_card,2022.2.4,MacIntel,62.5,62a882f2dc6e6b6b98199b8c,64d2fd46c836a06233681665,64dc7b1a1a8a7ce03986474c,,,,,,,sngl,resources/Empty.png,resources/DBN.BMP,Door1,0.354444444,0.012222222,1,0,0,0.861,optionRight,30,2050,1,36,0,36,0,1,,,,,,,,,,,,,,,,,,,,,,,,,,,,,,,,,,,,,,,
,,,,,,,,2023-08-16_08h30.50.290,HF_wild_card,2022.2.4,MacIntel,62.5,62a882f2dc6e6b6b98199b8c,64d2fd46c836a06233681665,64dc7b1a1a8a7ce03986474c,,,,,,,decisionTrl,resources/DY.BMP,resources/DG.BMP,Door3,0.21,-0.012222222,1,0,0,1.21,optionRight,70,2120,1,37,0,37,0,1,,,,,,,,,,,,,,,,,,,,,,,,,,,,,,,,,,,,,,,
,,,,,,,,2023-08-16_08h30.50.290,HF_wild_card,2022.2.4,MacIntel,62.5,62a882f2dc6e6b6b98199b8c,64d2fd46c836a06233681665,64dc7b1a1a8a7ce03986474c,,,,,,,decisionTrl,resources/DBN.BMP,resources/DY.BMP,Door1,-0.368888889,0.012222222,1,0,0,0.693,optionLeft,30,2150,1,38,0,38,0,1,,,,,,,,,,,,,,,,,,,,,,,,,,,,,,,,,,,,,,,
,,,,,,,,2023-08-16_08h30.50.290,HF_wild_card,2022.2.4,MacIntel,62.5,62a882f2dc6e6b6b98199b8c,64d2fd46c836a06233681665,64dc7b1a1a8a7ce03986474c,,,,,,,sngl,resources/Empty.png,resources/DR.BMP,Door2,0.325555556,0.013333333,1,0,0,0.578,optionRight,20,2170,1,39,0,39,0,1,,,,,,,,,,,,,,,,,,,,,,,,,,,,,,,,,,,,,,,
,,,,,,,,2023-08-16_08h30.50.290,HF_wild_card,2022.2.4,MacIntel,62.5,62a882f2dc6e6b6b98199b8c,64d2fd46c836a06233681665,64dc7b1a1a8a7ce03986474c,,,,,,,decisionTrl,resources/DR.BMP,resources/DBN.BMP,Door2,-0.356666667,0.028888889,1,0,0,0.96,optionLeft,20,2190,1,40,0,40,0,1,,,,,,,,,,,,,,,,,,,,,,,,,,,,,,,,,,,,,,,
,,,,,,,,2023-08-16_08h30.50.290,HF_wild_card,2022.2.4,MacIntel,62.5,62a882f2dc6e6b6b98199b8c,64d2fd46c836a06233681665,64dc7b1a1a8a7ce03986474c,,,,,,,decisionTrl,resources/DY.BMP,resources/DP.BMP,Door4,0.311111111,0.003333333,1,0,0,0.694,optionRight,60,2250,1,41,0,41,0,1,,,,,,,,,,,,,,,,,,,,,,,,,,,,,,,,,,,,,,,
,,,,,,,,2023-08-16_08h30.50.290,HF_wild_card,2022.2.4,MacIntel,62.5,62a882f2dc6e6b6b98199b8c,64d2fd46c836a06233681665,64dc7b1a1a8a7ce03986474c,,,,,,,sngl,resources/DR.BMP,resources/Empty.png,Door2,-0.36,-0.005555556,1,0,0,0.829,optionLeft,40,2290,1,42,0,42,0,1,,,,,,,,,,,,,,,,,,,,,,,,,,,,,,,,,,,,,,,
,,,,,,,,2023-08-16_08h30.50.290,HF_wild_card,2022.2.4,MacIntel,62.5,62a882f2dc6e6b6b98199b8c,64d2fd46c836a06233681665,64dc7b1a1a8a7ce03986474c,,,,,,,decisionTrl,resources/DR.BMP,resources/DY.BMP,WildCard_NonEx,0.31,-0.005555556,1,0,0,1.011,optionRight,55,2345,1,43,0,43,0,1,,,,,,,,,,,,,,,,,,,,,,,,,,,,,,,,,,,,,,,
,,,,,,,,2023-08-16_08h30.50.290,HF_wild_card,2022.2.4,MacIntel,62.5,62a882f2dc6e6b6b98199b8c,64d2fd46c836a06233681665,64dc7b1a1a8a7ce03986474c,,,,,,,,,,,,,,,,,,,,,,,,,,0,0,0,0,1,,,,,,,,,,,,,,,,,,,,,,,,,,,,,,,,,,
,,,,,,,,2023-08-16_08h30.50.290,HF_wild_card,2022.2.4,MacIntel,62.5,62a882f2dc6e6b6b98199b8c,64d2fd46c836a06233681665,64dc7b1a1a8a7ce03986474c,,,,,,,decisionTrl,resources/DY.BMP,resources/DP.BMP,Door4,0.26,-0.066666667,1,0,0,1.089,optionRight,60,2405,2,0,0,0,0,1,,,,,,,,,,,,,,,,,,,,,,,,,,,,,,,,,,,,,,,
,,,,,,,,2023-08-16_08h30.50.290,HF_wild_card,2022.2.4,MacIntel,62.5,62a882f2dc6e6b6b98199b8c,64d2fd46c836a06233681665,64dc7b1a1a8a7ce03986474c,,,,,,,sngl,resources/DG.BMP,resources/Empty.png,Door3,-0.302222222,-0.013333333,1,0,0,1.161,optionLeft,70,2475,2,1,0,1,0,1,,,,,,,,,,,,,,,,,,,,,,,,,,,,,,,,,,,,,,,
,,,,,,,,2023-08-16_08h30.50.290,HF_wild_card,2022.2.4,MacIntel,62.5,62a882f2dc6e6b6b98199b8c,64d2fd46c836a06233681665,64dc7b1a1a8a7ce03986474c,,,,,,,decisionTrl,resources/DG.BMP,resources/DP.BMP,Door4,0.284444444,0.003333333,1,0,0,1.126,optionRight,80,2555,2,2,0,2,0,1,,,,,,,,,,,,,,,,,,,,,,,,,,,,,,,,,,,,,,,
,,,,,,,,2023-08-16_08h30.50.290,HF_wild_card,2022.2.4,MacIntel,62.5,62a882f2dc6e6b6b98199b8c,64d2fd46c836a06233681665,64dc7b1a1a8a7ce03986474c,,,,,,,decisionTrl,resources/DBN.BMP,resources/DR.BMP,Door1,-0.307777778,0.018888889,1,0,0,0.642,optionLeft,30,2585,2,3,0,3,0,1,,,,,,,,,,,,,,,,,,,,,,,,,,,,,,,,,,,,,,,
,,,,,,,,2023-08-16_08h30.50.290,HF_wild_card,2022.2.4,MacIntel,62.5,62a882f2dc6e6b6b98199b8c,64d2fd46c836a06233681665,64dc7b1a1a8a7ce03986474c,,,,,,,decisionTrl,resources/DG.BMP,resources/DP.BMP,Door4,0.396666667,0.02,1,0,0,0.595,optionRight,80,2665,2,4,0,4,0,1,,,,,,,,,,,,,,,,,,,,,,,,,,,,,,,,,,,,,,,
,,,,,,,,2023-08-16_08h30.50.290,HF_wild_card,2022.2.4,MacIntel,62.5,62a882f2dc6e6b6b98199b8c,64d2fd46c836a06233681665,64dc7b1a1a8a7ce03986474c,,,,,,,decisionTrl,resources/DR.BMP,resources/DBN.BMP,Door1,0.11,-0.024444444,1,0,0,1.194,optionRight,30,2695,2,5,0,5,0,1,,,,,,,,,,,,,,,,,,,,,,,,,,,,,,,,,,,,,,,
,,,,,,,,2023-08-16_08h30.50.290,HF_wild_card,2022.2.4,MacIntel,62.5,62a882f2dc6e6b6b98199b8c,64d2fd46c836a06233681665,64dc7b1a1a8a7ce03986474c,,,,,,,decisionTrl,resources/DP.BMP,resources/DY.BMP,Door4,-0.376666667,-0.025555556,1,0,0,0.695,optionLeft,80,2775,2,6,0,6,0,1,,,,,,,,,,,,,,,,,,,,,,,,,,,,,,,,,,,,,,,
,,,,,,,,2023-08-16_08h30.50.290,HF_wild_card,2022.2.4,MacIntel,62.5,62a882f2dc6e6b6b98199b8c,64d2fd46c836a06233681665,64dc7b1a1a8a7ce03986474c,,,,,,,decisionTrl,resources/DY.BMP,resources/DBN.BMP,WildCard_NonEx,-0.271111111,-0.007777778,1,0,0,1.013,optionLeft,45,2820,2,7,0,7,0,1,,,,,,,,,,,,,,,,,,,,,,,,,,,,,,,,,,,,,,,
,,,,,,,,2023-08-16_08h30.50.290,HF_wild_card,2022.2.4,MacIntel,62.5,62a882f2dc6e6b6b98199b8c,64d2fd46c836a06233681665,64dc7b1a1a8a7ce03986474c,,,,,,,sngl,resources/Empty.png,resources/DBN.BMP,Door1,0.394444444,0.018888889,1,0,0,0.979,optionRight,30,2850,2,8,0,8,0,1,,,,,,,,,,,,,,,,,,,,,,,,,,,,,,,,,,,,,,,
,,,,,,,,2023-08-16_08h30.50.290,HF_wild_card,2022.2.4,MacIntel,62.5,62a882f2dc6e6b6b98199b8c,64d2fd46c836a06233681665,64dc7b1a1a8a7ce03986474c,,,,,,,decisionTrl,resources/DP.BMP,resources/DG.BMP,Door4,-0.313333333,-0.002222222,1,0,0,1.077,optionLeft,80,2930,2,9,0,9,0,1,,,,,,,,,,,,,,,,,,,,,,,,,,,,,,,,,,,,,,,
,,,,,,,,2023-08-16_08h30.50.290,HF_wild_card,2022.2.4,MacIntel,62.5,62a882f2dc6e6b6b98199b8c,64d2fd46c836a06233681665,64dc7b1a1a8a7ce03986474c,,,,,,,sngl,resources/Empty.png,resources/DP.BMP,Door4,0.337777778,-0.032222222,1,0,0,0.777,optionRight,80,3010,2,10,0,10,0,1,,,,,,,,,,,,,,,,,,,,,,,,,,,,,,,,,,,,,,,
,,,,,,,,2023-08-16_08h30.50.290,HF_wild_card,2022.2.4,MacIntel,62.5,62a882f2dc6e6b6b98199b8c,64d2fd46c836a06233681665,64dc7b1a1a8a7ce03986474c,,,,,,,sngl,resources/DY.BMP,resources/Empty.png,WildCard_NonEx,-0.303333333,-0.004444444,1,0,0,0.627,optionLeft,55,3065,2,11,0,11,0,1,,,,,,,,,,,,,,,,,,,,,,,,,,,,,,,,,,,,,,,
,,,,,,,,2023-08-16_08h30.50.290,HF_wild_card,2022.2.4,MacIntel,62.5,62a882f2dc6e6b6b98199b8c,64d2fd46c836a06233681665,64dc7b1a1a8a7ce03986474c,,,,,,,ctch,resources/DP.BMP,resources/DBN.BMP,Door4,-0.245555556,-0.004444444,1,0,0,0.91,optionLeft,80,3145,2,12,0,12,0,1,,,,,,,,,,,,,,,,,,,,,,,,,,,,,,,,,,,,,,,
,,,,,,,,2023-08-16_08h30.50.290,HF_wild_card,2022.2.4,MacIntel,62.5,62a882f2dc6e6b6b98199b8c,64d2fd46c836a06233681665,64dc7b1a1a8a7ce03986474c,,,,,,,sngl,resources/Empty.png,resources/DY.BMP,WildCard_NonEx,0.402222222,0.005555556,1,0,0,0.611,optionRight,55,3200,2,13,0,13,0,1,,,,,,,,,,,,,,,,,,,,,,,,,,,,,,,,,,,,,,,
,,,,,,,,2023-08-16_08h30.50.290,HF_wild_card,2022.2.4,MacIntel,62.5,62a882f2dc6e6b6b98199b8c,64d2fd46c836a06233681665,64dc7b1a1a8a7ce03986474c,,,,,,,decisionTrl,resources/DR.BMP,resources/DBN.BMP,Door1,0.32,0.004444444,1,0,0,0.86,optionRight,30,3230,2,14,0,14,0,1,,,,,,,,,,,,,,,,,,,,,,,,,,,,,,,,,,,,,,,
,,,,,,,,2023-08-16_08h30.50.290,HF_wild_card,2022.2.4,MacIntel,62.5,62a882f2dc6e6b6b98199b8c,64d2fd46c836a06233681665,64dc7b1a1a8a7ce03986474c,,,,,,,ctch,resources/DP.BMP,resources/DBN.BMP,Door4,-0.398888889,0.015555556,1,0,0,0.761,optionLeft,80,3310,2,15,0,15,0,1,,,,,,,,,,,,,,,,,,,,,,,,,,,,,,,,,,,,,,,
,,,,,,,,2023-08-16_08h30.50.290,HF_wild_card,2022.2.4,MacIntel,62.5,62a882f2dc6e6b6b98199b8c,64d2fd46c836a06233681665,64dc7b1a1a8a7ce03986474c,,,,,,,sngl,resources/DR.BMP,resources/Empty.png,Door2,-0.248888889,0.017777778,1,0,0,0.831,optionLeft,20,3330,2,16,0,16,0,1,,,,,,,,,,,,,,,,,,,,,,,,,,,,,,,,,,,,,,,
,,,,,,,,2023-08-16_08h30.50.290,HF_wild_card,2022.2.4,MacIntel,62.5,62a882f2dc6e6b6b98199b8c,64d2fd46c836a06233681665,64dc7b1a1a8a7ce03986474c,,,,,,,ctch,resources/DBN.BMP,resources/DP.BMP,Door4,0.3,-0.047777778,1,0,0,0.961,optionRight,80,3410,2,17,0,17,0,1,,,,,,,,,,,,,,,,,,,,,,,,,,,,,,,,,,,,,,,
,,,,,,,,2023-08-16_08h30.50.290,HF_wild_card,2022.2.4,MacIntel,62.5,62a882f2dc6e6b6b98199b8c,64d2fd46c836a06233681665,64dc7b1a1a8a7ce03986474c,,,,,,,ctch,resources/DBN.BMP,resources/DP.BMP,Door4,0.365555556,-0.006666667,1,0,0,0.944,optionRight,60,3470,2,18,0,18,0,1,,,,,,,,,,,,,,,,,,,,,,,,,,,,,,,,,,,,,,,
,,,,,,,,2023-08-16_08h30.50.290,HF_wild_card,2022.2.4,MacIntel,62.5,62a882f2dc6e6b6b98199b8c,64d2fd46c836a06233681665,64dc7b1a1a8a7ce03986474c,,,,,,,decisionTrl,resources/DP.BMP,resources/DG.BMP,Door4,-0.32,-0.04,1,0,0,0.729,optionLeft,80,3550,2,19,0,19,0,1,,,,,,,,,,,,,,,,,,,,,,,,,,,,,,,,,,,,,,,
,,,,,,,,2023-08-16_08h30.50.290,HF_wild_card,2022.2.4,MacIntel,62.5,62a882f2dc6e6b6b98199b8c,64d2fd46c836a06233681665,64dc7b1a1a8a7ce03986474c,,,,,,,decisionTrl,resources/DG.BMP,resources/DP.BMP,Door4,0.468888889,-0.013333333,1,0,0,0.56,optionRight,80,3630,2,20,0,20,0,1,,,,,,,,,,,,,,,,,,,,,,,,,,,,,,,,,,,,,,,
,,,,,,,,2023-08-16_08h30.50.290,HF_wild_card,2022.2.4,MacIntel,62.5,62a882f2dc6e6b6b98199b8c,64d2fd46c836a06233681665,64dc7b1a1a8a7ce03986474c,,,,,,,decisionTrl,resources/DBN.BMP,resources/DY.BMP,WildCard_NonEx,0.2,-0.016666667,1,0,0,0.61,optionRight,55,3685,2,21,0,21,0,1,,,,,,,,,,,,,,,,,,,,,,,,,,,,,,,,,,,,,,,
,,,,,,,,2023-08-16_08h30.50.290,HF_wild_card,2022.2.4,MacIntel,62.5,62a882f2dc6e6b6b98199b8c,64d2fd46c836a06233681665,64dc7b1a1a8a7ce03986474c,,,,,,,decisionTrl,resources/DR.BMP,resources/DBN.BMP,Door1,0.223333333,-0.027777778,1,0,0,1.06,optionRight,30,3715,2,22,0,22,0,1,,,,,,,,,,,,,,,,,,,,,,,,,,,,,,,,,,,,,,,
,,,,,,,,2023-08-16_08h30.50.290,HF_wild_card,2022.2.4,MacIntel,62.5,62a882f2dc6e6b6b98199b8c,64d2fd46c836a06233681665,64dc7b1a1a8a7ce03986474c,,,,,,,sngl,resources/Empty.png,resources/DR.BMP,Door2,0.285555556,0.007777778,1,0,0,0.627,optionRight,40,3755,2,23,0,23,0,1,,,,,,,,,,,,,,,,,,,,,,,,,,,,,,,,,,,,,,,
,,,,,,,,2023-08-16_08h30.50.290,HF_wild_card,2022.2.4,MacIntel,62.5,62a882f2dc6e6b6b98199b8c,64d2fd46c836a06233681665,64dc7b1a1a8a7ce03986474c,,,,,,,sngl,resources/Empty.png,resources/DY.BMP,WildCard_NonEx,0.374444444,0.025555556,1,0,0,0.81,optionRight,45,3800,2,24,0,24,0,1,,,,,,,,,,,,,,,,,,,,,,,,,,,,,,,,,,,,,,,
,,,,,,,,2023-08-16_08h30.50.290,HF_wild_card,2022.2.4,MacIntel,62.5,62a882f2dc6e6b6b98199b8c,64d2fd46c836a06233681665,64dc7b1a1a8a7ce03986474c,,,,,,,decisionTrl,resources/DR.BMP,resources/DY.BMP,Door2,-0.252222222,-0.044444444,1,0,0,0.829,optionLeft,40,3840,2,25,0,25,0,1,,,,,,,,,,,,,,,,,,,,,,,,,,,,,,,,,,,,,,,
,,,,,,,,2023-08-16_08h30.50.290,HF_wild_card,2022.2.4,MacIntel,62.5,62a882f2dc6e6b6b98199b8c,64d2fd46c836a06233681665,64dc7b1a1a8a7ce03986474c,,,,,,,sngl,resources/Empty.png,resources/DG.BMP,Door3,0.263333333,0.026666667,1,0,0,0.794,optionRight,70,3910,2,26,0,26,0,1,,,,,,,,,,,,,,,,,,,,,,,,,,,,,,,,,,,,,,,
,,,,,,,,2023-08-16_08h30.50.290,HF_wild_card,2022.2.4,MacIntel,62.5,62a882f2dc6e6b6b98199b8c,64d2fd46c836a06233681665,64dc7b1a1a8a7ce03986474c,,,,,,,decisionTrl,resources/DBN.BMP,resources/DR.BMP,Door1,-0.273333333,-0.038888889,1,0,0,0.978,optionLeft,30,3940,2,27,0,27,0,1,,,,,,,,,,,,,,,,,,,,,,,,,,,,,,,,,,,,,,,
,,,,,,,,2023-08-16_08h30.50.290,HF_wild_card,2022.2.4,MacIntel,62.5,62a882f2dc6e6b6b98199b8c,64d2fd46c836a06233681665,64dc7b1a1a8a7ce03986474c,,,,,,,decisionTrl,resources/DG.BMP,resources/DP.BMP,Door4,0.254444444,-0.028888889,1,0,0,0.794,optionRight,60,4000,2,28,0,28,0,1,,,,,,,,,,,,,,,,,,,,,,,,,,,,,,,,,,,,,,,
,,,,,,,,2023-08-16_08h30.50.290,HF_wild_card,2022.2.4,MacIntel,62.5,62a882f2dc6e6b6b98199b8c,64d2fd46c836a06233681665,64dc7b1a1a8a7ce03986474c,,,,,,,decisionTrl,resources/DY.BMP,resources/DG.BMP,WildCard_NonEx,-0.225555556,-0.008888889,1,0,0,1.228,optionLeft,45,4045,2,29,0,29,0,1,,,,,,,,,,,,,,,,,,,,,,,,,,,,,,,,,,,,,,,
,,,,,,,,2023-08-16_08h30.50.290,HF_wild_card,2022.2.4,MacIntel,62.5,62a882f2dc6e6b6b98199b8c,64d2fd46c836a06233681665,64dc7b1a1a8a7ce03986474c,,,,,,,sngl,resources/DY.BMP,resources/Empty.png,WildCard_NonEx,-0.258888889,0.003333333,1,0,0,0.71,optionLeft,45,4090,2,30,0,30,0,1,,,,,,,,,,,,,,,,,,,,,,,,,,,,,,,,,,,,,,,
,,,,,,,,2023-08-16_08h30.50.290,HF_wild_card,2022.2.4,MacIntel,62.5,62a882f2dc6e6b6b98199b8c,64d2fd46c836a06233681665,64dc7b1a1a8a7ce03986474c,,,,,,,ctch,resources/DR.BMP,resources/DG.BMP,Door3,0.295555556,0.006666667,1,0,0,0.911,optionRight,70,4160,2,31,0,31,0,1,,,,,,,,,,,,,,,,,,,,,,,,,,,,,,,,,,,,,,,
,,,,,,,,2023-08-16_08h30.50.290,HF_wild_card,2022.2.4,MacIntel,62.5,62a882f2dc6e6b6b98199b8c,64d2fd46c836a06233681665,64dc7b1a1a8a7ce03986474c,,,,,,,sngl,resources/DBN.BMP,resources/Empty.png,Door1,-0.348888889,0.027777778,1,0,0,0.878,optionLeft,30,4190,2,32,0,32,0,1,,,,,,,,,,,,,,,,,,,,,,,,,,,,,,,,,,,,,,,
,,,,,,,,2023-08-16_08h30.50.290,HF_wild_card,2022.2.4,MacIntel,62.5,62a882f2dc6e6b6b98199b8c,64d2fd46c836a06233681665,64dc7b1a1a8a7ce03986474c,,,,,,,decisionTrl,resources/DP.BMP,resources/DG.BMP,Door3,0.372222222,0.018888889,1,0,0,1.077,optionRight,70,4260,2,33,0,33,0,1,,,,,,,,,,,,,,,,,,,,,,,,,,,,,,,,,,,,,,,
,,,,,,,,2023-08-16_08h30.50.290,HF_wild_card,2022.2.4,MacIntel,62.5,62a882f2dc6e6b6b98199b8c,64d2fd46c836a06233681665,64dc7b1a1a8a7ce03986474c,,,,,,,ctch,resources/DG.BMP,resources/DR.BMP,Door3,-0.228888889,-0.02,1,0,0,0.744,optionLeft,70,4330,2,34,0,34,0,1,,,,,,,,,,,,,,,,,,,,,,,,,,,,,,,,,,,,,,,
,,,,,,,,2023-08-16_08h30.50.290,HF_wild_card,2022.2.4,MacIntel,62.5,62a882f2dc6e6b6b98199b8c,64d2fd46c836a06233681665,64dc7b1a1a8a7ce03986474c,,,,,,,ctch,resources/DR.BMP,resources/DG.BMP,Door3,0.382222222,0.02,1,0,0,0.544,optionRight,70,4400,2,35,0,35,0,1,,,,,,,,,,,,,,,,,,,,,,,,,,,,,,,,,,,,,,,
,,,,,,,,2023-08-16_08h30.50.290,HF_wild_card,2022.2.4,MacIntel,62.5,62a882f2dc6e6b6b98199b8c,64d2fd46c836a06233681665,64dc7b1a1a8a7ce03986474c,,,,,,,decisionTrl,resources/DG.BMP,resources/DY.BMP,Door3,-0.27,-0.004444444,1,0,0,0.612,optionLeft,70,4470,2,36,0,36,0,1,,,,,,,,,,,,,,,,,,,,,,,,,,,,,,,,,,,,,,,
,,,,,,,,2023-08-16_08h30.50.290,HF_wild_card,2022.2.4,MacIntel,62.5,62a882f2dc6e6b6b98199b8c,64d2fd46c836a06233681665,64dc7b1a1a8a7ce03986474c,,,,,,,ctch,resources/DG.BMP,resources/DR.BMP,Door3,-0.245555556,0.015555556,1,0,0,0.677,optionLeft,70,4540,2,37,0,37,0,1,,,,,,,,,,,,,,,,,,,,,,,,,,,,,,,,,,,,,,,
,,,,,,,,2023-08-16_08h30.50.290,HF_wild_card,2022.2.4,MacIntel,62.5,62a882f2dc6e6b6b98199b8c,64d2fd46c836a06233681665,64dc7b1a1a8a7ce03986474c,,,,,,,decisionTrl,resources/DBN.BMP,resources/DR.BMP,Door2,0.353333333,0.028888889,1,0,0,0.861,optionRight,20,4560,2,38,0,38,0,1,,,,,,,,,,,,,,,,,,,,,,,,,,,,,,,,,,,,,,,
,,,,,,,,2023-08-16_08h30.50.290,HF_wild_card,2022.2.4,MacIntel,62.5,62a882f2dc6e6b6b98199b8c,64d2fd46c836a06233681665,64dc7b1a1a8a7ce03986474c,,,,,,,decisionTrl,resources/DR.BMP,resources/DBN.BMP,Door2,-0.207777778,-0.003333333,1,0,0,0.827,optionLeft,20,4580,2,39,0,39,0,1,,,,,,,,,,,,,,,,,,,,,,,,,,,,,,,,,,,,,,,
,,,,,,,,2023-08-16_08h30.50.290,HF_wild_card,2022.2.4,MacIntel,62.5,62a882f2dc6e6b6b98199b8c,64d2fd46c836a06233681665,64dc7b1a1a8a7ce03986474c,,,,,,,decisionTrl,resources/DBN.BMP,resources/DR.BMP,Door1,-0.222222222,0.026666667,1,0,0,0.86,optionLeft,30,4610,2,40,0,40,0,1,,,,,,,,,,,,,,,,,,,,,,,,,,,,,,,,,,,,,,,
,,,,,,,,2023-08-16_08h30.50.290,HF_wild_card,2022.2.4,MacIntel,62.5,62a882f2dc6e6b6b98199b8c,64d2fd46c836a06233681665,64dc7b1a1a8a7ce03986474c,,,,,,,sngl,resources/DP.BMP,resources/Empty.png,Door4,-0.332222222,-0.004444444,1,0,0,0.961,optionLeft,60,4670,2,41,0,41,0,1,,,,,,,,,,,,,,,,,,,,,,,,,,,,,,,,,,,,,,,
,,,,,,,,2023-08-16_08h30.50.290,HF_wild_card,2022.2.4,MacIntel,62.5,62a882f2dc6e6b6b98199b8c,64d2fd46c836a06233681665,64dc7b1a1a8a7ce03986474c,,,,,,,decisionTrl,resources/DP.BMP,resources/DG.BMP,Door3,0.158888889,-0.002222222,1,0,0,0.811,optionRight,70,4740,2,42,0,42,0,1,,,,,,,,,,,,,,,,,,,,,,,,,,,,,,,,,,,,,,,
,,,,,,,,2023-08-16_08h30.50.290,HF_wild_card,2022.2.4,MacIntel,62.5,62a882f2dc6e6b6b98199b8c,64d2fd46c836a06233681665,64dc7b1a1a8a7ce03986474c,,,,,,,decisionTrl,resources/DY.BMP,resources/DR.BMP,WildCard_NonEx,-0.267777778,0.045555556,1,0,0,0.893,optionLeft,55,4795,2,43,0,43,0,1,,,,,,,,,,,,,,,,,,,,,,,,,,,,,,,,,,,,,,,
,,,,,,,,2023-08-16_08h30.50.290,HF_wild_card,2022.2.4,MacIntel,62.5,62a882f2dc6e6b6b98199b8c,64d2fd46c836a06233681665,64dc7b1a1a8a7ce03986474c,,,,,,,,,,,,,,,,,,,,,,,,,,1,0,1,0,1,,,,,,,,,,,,,,,,,,,,,,,,,,,,,,,,,,
,,,,,,,,2023-08-16_08h30.50.290,HF_wild_card,2022.2.4,MacIntel,62.5,62a882f2dc6e6b6b98199b8c,64d2fd46c836a06233681665,64dc7b1a1a8a7ce03986474c,,,,,,,decisionTrl,resources/DR.BMP,resources/DBN.BMP,Door1,0.263333333,-0.001111111,1,0,0,0.958,optionRight,30,4825,3,0,0,0,0,1,,,,,,,,,,,,,,,,,,,,,,,,,,,,,,,,,,,,,,,
,,,,,,,,2023-08-16_08h30.50.290,HF_wild_card,2022.2.4,MacIntel,62.5,62a882f2dc6e6b6b98199b8c,64d2fd46c836a06233681665,64dc7b1a1a8a7ce03986474c,,,,,,,sngl,resources/Empty.png,resources/DR.BMP,Door2,0.252222222,0.007777778,1,0,0,0.628,optionRight,20,4845,3,1,0,1,0,1,,,,,,,,,,,,,,,,,,,,,,,,,,,,,,,,,,,,,,,
,,,,,,,,2023-08-16_08h30.50.290,HF_wild_card,2022.2.4,MacIntel,62.5,62a882f2dc6e6b6b98199b8c,64d2fd46c836a06233681665,64dc7b1a1a8a7ce03986474c,,,,,,,sngl,resources/DP.BMP,resources/Empty.png,Door4,-0.28,0.01,1,0,0,0.642,optionLeft,80,4925,3,2,0,2,0,1,,,,,,,,,,,,,,,,,,,,,,,,,,,,,,,,,,,,,,,
,,,,,,,,2023-08-16_08h30.50.290,HF_wild_card,2022.2.4,MacIntel,62.5,62a882f2dc6e6b6b98199b8c,64d2fd46c836a06233681665,64dc7b1a1a8a7ce03986474c,,,,,,,decisionTrl,resources/DR.BMP,resources/DBN.BMP,Door2,-0.304444444,0.007777778,1,0,0,0.694,optionLeft,20,4945,3,3,0,3,0,1,,,,,,,,,,,,,,,,,,,,,,,,,,,,,,,,,,,,,,,
,,,,,,,,2023-08-16_08h30.50.290,HF_wild_card,2022.2.4,MacIntel,62.5,62a882f2dc6e6b6b98199b8c,64d2fd46c836a06233681665,64dc7b1a1a8a7ce03986474c,,,,,,,decisionTrl,resources/DG.BMP,resources/DP.BMP,Door3,-0.2,-0.006666667,1,0,0,0.894,optionLeft,70,5015,3,4,0,4,0,1,,,,,,,,,,,,,,,,,,,,,,,,,,,,,,,,,,,,,,,
,,,,,,,,2023-08-16_08h30.50.290,HF_wild_card,2022.2.4,MacIntel,62.5,62a882f2dc6e6b6b98199b8c,64d2fd46c836a06233681665,64dc7b1a1a8a7ce03986474c,,,,,,,decisionTrl,resources/DBN.BMP,resources/DY.BMP,WildCard_NonEx,0.363333333,0.047777778,1,0,0,1.044,optionRight,55,5070,3,5,0,5,0,1,,,,,,,,,,,,,,,,,,,,,,,,,,,,,,,,,,,,,,,
,,,,,,,,2023-08-16_08h30.50.290,HF_wild_card,2022.2.4,MacIntel,62.5,62a882f2dc6e6b6b98199b8c,64d2fd46c836a06233681665,64dc7b1a1a8a7ce03986474c,,,,,,,decisionTrl,resources/DR.BMP,resources/DBN.BMP,Door2,-0.331111111,-0.002222222,1,0,0,1.46,optionLeft,40,5110,3,6,0,6,0,1,,,,,,,,,,,,,,,,,,,,,,,,,,,,,,,,,,,,,,,
,,,,,,,,2023-08-16_08h30.50.290,HF_wild_card,2022.2.4,MacIntel,62.5,62a882f2dc6e6b6b98199b8c,64d2fd46c836a06233681665,64dc7b1a1a8a7ce03986474c,,,,,,,decisionTrl,resources/DG.BMP,resources/DP.BMP,Door4,0.285555556,-0.021111111,1,0,0,0.845,optionRight,80,5190,3,7,0,7,0,1,,,,,,,,,,,,,,,,,,,,,,,,,,,,,,,,,,,,,,,
,,,,,,,,2023-08-16_08h30.50.290,HF_wild_card,2022.2.4,MacIntel,62.5,62a882f2dc6e6b6b98199b8c,64d2fd46c836a06233681665,64dc7b1a1a8a7ce03986474c,,,,,,,decisionTrl,resources/DG.BMP,resources/DY.BMP,WildCard_NonEx,0.221111111,0.082222222,1,0,0,0.761,optionRight,45,5235,3,8,0,8,0,1,,,,,,,,,,,,,,,,,,,,,,,,,,,,,,,,,,,,,,,
,,,,,,,,2023-08-16_08h30.50.290,HF_wild_card,2022.2.4,MacIntel,62.5,62a882f2dc6e6b6b98199b8c,64d2fd46c836a06233681665,64dc7b1a1a8a7ce03986474c,,,,,,,decisionTrl,resources/DY.BMP,resources/DG.BMP,Door3,0.15,0.008888889,1,0,0,0.728,optionRight,70,5305,3,9,0,9,0,1,,,,,,,,,,,,,,,,,,,,,,,,,,,,,,,,,,,,,,,
,,,,,,,,2023-08-16_08h30.50.290,HF_wild_card,2022.2.4,MacIntel,62.5,62a882f2dc6e6b6b98199b8c,64d2fd46c836a06233681665,64dc7b1a1a8a7ce03986474c,,,,,,,sngl,resources/DG.BMP,resources/Empty.png,Door3,-0.24,0.058888889,1,0,0,0.629,optionLeft,70,5375,3,10,0,10,0,1,,,,,,,,,,,,,,,,,,,,,,,,,,,,,,,,,,,,,,,
,,,,,,,,2023-08-16_08h30.50.290,HF_wild_card,2022.2.4,MacIntel,62.5,62a882f2dc6e6b6b98199b8c,64d2fd46c836a06233681665,64dc7b1a1a8a7ce03986474c,,,,,,,ctch,resources/DG.BMP,resources/DR.BMP,Door3,-0.271111111,0.023333333,1,0,0,0.711,optionLeft,70,5445,3,11,0,11,0,1,,,,,,,,,,,,,,,,,,,,,,,,,,,,,,,,,,,,,,,
,,,,,,,,2023-08-16_08h30.50.290,HF_wild_card,2022.2.4,MacIntel,62.5,62a882f2dc6e6b6b98199b8c,64d2fd46c836a06233681665,64dc7b1a1a8a7ce03986474c,,,,,,,decisionTrl,resources/DP.BMP,resources/DG.BMP,Door4,-0.223333333,-0.038888889,1,0,0,1.676,optionLeft,80,5525,3,12,0,12,0,1,,,,,,,,,,,,,,,,,,,,,,,,,,,,,,,,,,,,,,,
,,,,,,,,2023-08-16_08h30.50.290,HF_wild_card,2022.2.4,MacIntel,62.5,62a882f2dc6e6b6b98199b8c,64d2fd46c836a06233681665,64dc7b1a1a8a7ce03986474c,,,,,,,decisionTrl,resources/DP.BMP,resources/DG.BMP,Door4,-0.29,-0.008888889,1,0,0,0.911,optionLeft,60,5585,3,13,0,13,0,1,,,,,,,,,,,,,,,,,,,,,,,,,,,,,,,,,,,,,,,
,,,,,,,,2023-08-16_08h30.50.290,HF_wild_card,2022.2.4,MacIntel,62.5,62a882f2dc6e6b6b98199b8c,64d2fd46c836a06233681665,64dc7b1a1a8a7ce03986474c,,,,,,,decisionTrl,resources/DG.BMP,resources/DP.BMP,Door3,-0.228888889,0.01,1,0,0,0.662,optionLeft,70,5655,3,14,0,14,0,1,,,,,,,,,,,,,,,,,,,,,,,,,,,,,,,,,,,,,,,
,,,,,,,,2023-08-16_08h30.50.290,HF_wild_card,2022.2.4,MacIntel,62.5,62a882f2dc6e6b6b98199b8c,64d2fd46c836a06233681665,64dc7b1a1a8a7ce03986474c,,,,,,,decisionTrl,resources/DP.BMP,resources/DY.BMP,Door4,-0.35,0.013333333,1,0,0,0.944,optionLeft,80,5735,3,15,0,15,0,1,,,,,,,,,,,,,,,,,,,,,,,,,,,,,,,,,,,,,,,
,,,,,,,,2023-08-16_08h30.50.290,HF_wild_card,2022.2.4,MacIntel,62.5,62a882f2dc6e6b6b98199b8c,64d2fd46c836a06233681665,64dc7b1a1a8a7ce03986474c,,,,,,,ctch,resources/DBN.BMP,resources/DP.BMP,Door4,0.333333333,-0.033333333,1,0,0,0.894,optionRight,80,5815,3,16,0,16,0,1,,,,,,,,,,,,,,,,,,,,,,,,,,,,,,,,,,,,,,,
,,,,,,,,2023-08-16_08h30.50.290,HF_wild_card,2022.2.4,MacIntel,62.5,62a882f2dc6e6b6b98199b8c,64d2fd46c836a06233681665,64dc7b1a1a8a7ce03986474c,,,,,,,sngl,resources/DY.BMP,resources/Empty.png,WildCard_NonEx,-0.287777778,-0.041111111,1,0,0,0.812,optionLeft,55,5870,3,17,0,17,0,1,,,,,,,,,,,,,,,,,,,,,,,,,,,,,,,,,,,,,,,
,,,,,,,,2023-08-16_08h30.50.290,HF_wild_card,2022.2.4,MacIntel,62.5,62a882f2dc6e6b6b98199b8c,64d2fd46c836a06233681665,64dc7b1a1a8a7ce03986474c,,,,,,,sngl,resources/Empty.png,resources/DP.BMP,Door4,0.418888889,0.016666667,1,0,0,0.612,optionRight,60,5930,3,18,0,18,0,1,,,,,,,,,,,,,,,,,,,,,,,,,,,,,,,,,,,,,,,
,,,,,,,,2023-08-16_08h30.50.290,HF_wild_card,2022.2.4,MacIntel,62.5,62a882f2dc6e6b6b98199b8c,64d2fd46c836a06233681665,64dc7b1a1a8a7ce03986474c,,,,,,,decisionTrl,resources/DY.BMP,resources/DP.BMP,Door4,0.132222222,0.028888889,1,0,0,0.677,optionRight,60,5990,3,19,0,19,0,1,,,,,,,,,,,,,,,,,,,,,,,,,,,,,,,,,,,,,,,
,,,,,,,,2023-08-16_08h30.50.290,HF_wild_card,2022.2.4,MacIntel,62.5,62a882f2dc6e6b6b98199b8c,64d2fd46c836a06233681665,64dc7b1a1a8a7ce03986474c,,,,,,,sngl,resources/Empty.png,resources/DG.BMP,Door3,0.39,0.025555556,1,0,0,0.626,optionRight,70,6060,3,20,0,20,0,1,,,,,,,,,,,,,,,,,,,,,,,,,,,,,,,,,,,,,,,
,,,,,,,,2023-08-16_08h30.50.290,HF_wild_card,2022.2.4,MacIntel,62.5,62a882f2dc6e6b6b98199b8c,64d2fd46c836a06233681665,64dc7b1a1a8a7ce03986474c,,,,,,,decisionTrl,resources/DBN.BMP,resources/DR.BMP,Door1,-0.331111111,-0.004444444,1,0,0,1.495,optionLeft,30,6090,3,21,0,21,0,1,,,,,,,,,,,,,,,,,,,,,,,,,,,,,,,,,,,,,,,
,,,,,,,,2023-08-16_08h30.50.290,HF_wild_card,2022.2.4,MacIntel,62.5,62a882f2dc6e6b6b98199b8c,64d2fd46c836a06233681665,64dc7b1a1a8a7ce03986474c,,,,,,,decisionTrl,resources/DR.BMP,resources/DBN.BMP,Door2,-0.295555556,-0.047777778,1,0,0,0.877,optionLeft,40,6130,3,22,0,22,0,1,,,,,,,,,,,,,,,,,,,,,,,,,,,,,,,,,,,,,,,
,,,,,,,,2023-08-16_08h30.50.290,HF_wild_card,2022.2.4,MacIntel,62.5,62a882f2dc6e6b6b98199b8c,64d2fd46c836a06233681665,64dc7b1a1a8a7ce03986474c,,,,,,,ctch,resources/DP.BMP,resources/DBN.BMP,Door4,-0.281111111,-0.02,1,0,0,0.662,optionLeft,60,6190,3,23,0,23,0,1,,,,,,,,,,,,,,,,,,,,,,,,,,,,,,,,,,,,,,,
,,,,,,,,2023-08-16_08h30.50.290,HF_wild_card,2022.2.4,MacIntel,62.5,62a882f2dc6e6b6b98199b8c,64d2fd46c836a06233681665,64dc7b1a1a8a7ce03986474c,,,,,,,decisionTrl,resources/DY.BMP,resources/DBN.BMP,WildCard_NonEx,-0.27,0.013333333,1,0,0,1.21,optionLeft,55,6245,3,24,0,24,0,1,,,,,,,,,,,,,,,,,,,,,,,,,,,,,,,,,,,,,,,
,,,,,,,,2023-08-16_08h30.50.290,HF_wild_card,2022.2.4,MacIntel,62.5,62a882f2dc6e6b6b98199b8c,64d2fd46c836a06233681665,64dc7b1a1a8a7ce03986474c,,,,,,,sngl,resources/Empty.png,resources/DBN.BMP,Door1,0.25,0.01,1,0,0,0.862,optionRight,30,6275,3,25,0,25,0,1,,,,,,,,,,,,,,,,,,,,,,,,,,,,,,,,,,,,,,,
,,,,,,,,2023-08-16_08h30.50.290,HF_wild_card,2022.2.4,MacIntel,62.5,62a882f2dc6e6b6b98199b8c,64d2fd46c836a06233681665,64dc7b1a1a8a7ce03986474c,,,,,,,ctch,resources/DR.BMP,resources/DG.BMP,Door3,0.207777778,-0.001111111,1,0,0,0.994,optionRight,70,6345,3,26,0,26,0,1,,,,,,,,,,,,,,,,,,,,,,,,,,,,,,,,,,,,,,,
,,,,,,,,2023-08-16_08h30.50.290,HF_wild_card,2022.2.4,MacIntel,62.5,62a882f2dc6e6b6b98199b8c,64d2fd46c836a06233681665,64dc7b1a1a8a7ce03986474c,,,,,,,decisionTrl,resources/DR.BMP,resources/DY.BMP,WildCard_NonEx,0.342222222,-0.02,1,0,0,1.144,optionRight,45,6390,3,27,0,27,0,1,,,,,,,,,,,,,,,,,,,,,,,,,,,,,,,,,,,,,,,
,,,,,,,,2023-08-16_08h30.50.290,HF_wild_card,2022.2.4,MacIntel,62.5,62a882f2dc6e6b6b98199b8c,64d2fd46c836a06233681665,64dc7b1a1a8a7ce03986474c,,,,,,,ctch,resources/DBN.BMP,resources/DP.BMP,Door4,0.25,0.05,1,0,0,0.811,optionRight,60,6450,3,28,0,28,0,1,,,,,,,,,,,,,,,,,,,,,,,,,,,,,,,,,,,,,,,
,,,,,,,,2023-08-16_08h30.50.290,HF_wild_card,2022.2.4,MacIntel,62.5,62a882f2dc6e6b6b98199b8c,64d2fd46c836a06233681665,64dc7b1a1a8a7ce03986474c,,,,,,,decisionTrl,resources/DBN.BMP,resources/DR.BMP,Door1,-0.486666667,0.007777778,1,0,0,1.61,optionLeft,30,6480,3,29,0,29,0,1,,,,,,,,,,,,,,,,,,,,,,,,,,,,,,,,,,,,,,,
,,,,,,,,2023-08-16_08h30.50.290,HF_wild_card,2022.2.4,MacIntel,62.5,62a882f2dc6e6b6b98199b8c,64d2fd46c836a06233681665,64dc7b1a1a8a7ce03986474c,,,,,,,decisionTrl,resources/DBN.BMP,resources/DR.BMP,Door1,-0.355555556,0.002222222,1,0,0,0.796,optionLeft,30,6510,3,30,0,30,0,1,,,,,,,,,,,,,,,,,,,,,,,,,,,,,,,,,,,,,,,
,,,,,,,,2023-08-16_08h30.50.290,HF_wild_card,2022.2.4,MacIntel,62.5,62a882f2dc6e6b6b98199b8c,64d2fd46c836a06233681665,64dc7b1a1a8a7ce03986474c,,,,,,,decisionTrl,resources/DG.BMP,resources/DP.BMP,Door4,0.193333333,-0.006666667,1,0,0,0.812,optionRight,60,6570,3,31,0,31,0,1,,,,,,,,,,,,,,,,,,,,,,,,,,,,,,,,,,,,,,,
,,,,,,,,2023-08-16_08h30.50.290,HF_wild_card,2022.2.4,MacIntel,62.5,62a882f2dc6e6b6b98199b8c,64d2fd46c836a06233681665,64dc7b1a1a8a7ce03986474c,,,,,,,decisionTrl,resources/DBN.BMP,resources/DR.BMP,Door2,0.181111111,0.03,1,0,0,0.911,optionRight,40,6610,3,32,0,32,0,1,,,,,,,,,,,,,,,,,,,,,,,,,,,,,,,,,,,,,,,
,,,,,,,,2023-08-16_08h30.50.290,HF_wild_card,2022.2.4,MacIntel,62.5,62a882f2dc6e6b6b98199b8c,64d2fd46c836a06233681665,64dc7b1a1a8a7ce03986474c,,,,,,,ctch,resources/DP.BMP,resources/DBN.BMP,Door4,-0.242222222,0.027777778,1,0,0,0.694,optionLeft,80,6690,3,33,0,33,0,1,,,,,,,,,,,,,,,,,,,,,,,,,,,,,,,,,,,,,,,
,,,,,,,,2023-08-16_08h30.50.290,HF_wild_card,2022.2.4,MacIntel,62.5,62a882f2dc6e6b6b98199b8c,64d2fd46c836a06233681665,64dc7b1a1a8a7ce03986474c,,,,,,,sngl,resources/DR.BMP,resources/Empty.png,Door2,-0.207777778,0.004444444,1,0,0,0.678,optionLeft,40,6730,3,34,0,34,0,1,,,,,,,,,,,,,,,,,,,,,,,,,,,,,,,,,,,,,,,
,,,,,,,,2023-08-16_08h30.50.290,HF_wild_card,2022.2.4,MacIntel,62.5,62a882f2dc6e6b6b98199b8c,64d2fd46c836a06233681665,64dc7b1a1a8a7ce03986474c,,,,,,,sngl,resources/DBN.BMP,resources/Empty.png,Door1,-0.256666667,0.021111111,1,0,0,0.695,optionLeft,30,6760,3,35,0,35,0,1,,,,,,,,,,,,,,,,,,,,,,,,,,,,,,,,,,,,,,,
,,,,,,,,2023-08-16_08h30.50.290,HF_wild_card,2022.2.4,MacIntel,62.5,62a882f2dc6e6b6b98199b8c,64d2fd46c836a06233681665,64dc7b1a1a8a7ce03986474c,,,,,,,decisionTrl,resources/DP.BMP,resources/DG.BMP,Door3,0.415555556,0.032222222,1,0,0,1.311,optionRight,70,6830,3,36,0,36,0,1,,,,,,,,,,,,,,,,,,,,,,,,,,,,,,,,,,,,,,,
,,,,,,,,2023-08-16_08h30.50.290,HF_wild_card,2022.2.4,MacIntel,62.5,62a882f2dc6e6b6b98199b8c,64d2fd46c836a06233681665,64dc7b1a1a8a7ce03986474c,,,,,,,ctch,resources/DG.BMP,resources/DR.BMP,Door3,-0.31,0.024444444,1,0,0,0.794,optionLeft,70,6900,3,37,0,37,0,1,,,,,,,,,,,,,,,,,,,,,,,,,,,,,,,,,,,,,,,
,,,,,,,,2023-08-16_08h30.50.290,HF_wild_card,2022.2.4,MacIntel,62.5,62a882f2dc6e6b6b98199b8c,64d2fd46c836a06233681665,64dc7b1a1a8a7ce03986474c,,,,,,,sngl,resources/DY.BMP,resources/Empty.png,WildCard_NonEx,-0.286666667,0,1,0,0,0.709,optionLeft,45,6945,3,38,0,38,0,1,,,,,,,,,,,,,,,,,,,,,,,,,,,,,,,,,,,,,,,
,,,,,,,,2023-08-16_08h30.50.290,HF_wild_card,2022.2.4,MacIntel,62.5,62a882f2dc6e6b6b98199b8c,64d2fd46c836a06233681665,64dc7b1a1a8a7ce03986474c,,,,,,,ctch,resources/DR.BMP,resources/DG.BMP,Door3,0.293333333,-0.016666667,1,0,0,0.628,optionRight,70,7015,3,39,0,39,0,1,,,,,,,,,,,,,,,,,,,,,,,,,,,,,,,,,,,,,,,
,,,,,,,,2023-08-16_08h30.50.290,HF_wild_card,2022.2.4,MacIntel,62.5,62a882f2dc6e6b6b98199b8c,64d2fd46c836a06233681665,64dc7b1a1a8a7ce03986474c,,,,,,,decisionTrl,resources/DP.BMP,resources/DG.BMP,Door3,0.241111111,-0.014444444,1,0,0,0.714,optionRight,70,7085,3,40,0,40,0,1,,,,,,,,,,,,,,,,,,,,,,,,,,,,,,,,,,,,,,,
,,,,,,,,2023-08-16_08h30.50.290,HF_wild_card,2022.2.4,MacIntel,62.5,62a882f2dc6e6b6b98199b8c,64d2fd46c836a06233681665,64dc7b1a1a8a7ce03986474c,,,,,,,decisionTrl,resources/DY.BMP,resources/DR.BMP,WildCard_NonEx,-0.191111111,-0.044444444,1,0,0,0.811,optionLeft,45,7130,3,41,0,41,0,1,,,,,,,,,,,,,,,,,,,,,,,,,,,,,,,,,,,,,,,
,,,,,,,,2023-08-16_08h30.50.290,HF_wild_card,2022.2.4,MacIntel,62.5,62a882f2dc6e6b6b98199b8c,64d2fd46c836a06233681665,64dc7b1a1a8a7ce03986474c,,,,,,,sngl,resources/Empty.png,resources/DY.BMP,WildCard_NonEx,0.255555556,0.035555556,1,0,0,0.595,optionRight,55,7185,3,42,0,42,0,1,,,,,,,,,,,,,,,,,,,,,,,,,,,,,,,,,,,,,,,
,,,,,,,,2023-08-16_08h30.50.290,HF_wild_card,2022.2.4,MacIntel,62.5,62a882f2dc6e6b6b98199b8c,64d2fd46c836a06233681665,64dc7b1a1a8a7ce03986474c,,,,,,,sngl,resources/Empty.png,resources/DY.BMP,WildCard_NonEx,0.188888889,0.012222222,1,0,0,0.645,optionRight,45,7230,3,43,0,43,0,1,,,,,,,,,,,,,,,,,,,,,,,,,,,,,,,,,,,,,,,
,,,,,,,,2023-08-16_08h30.50.290,HF_wild_card,2022.2.4,MacIntel,62.5,62a882f2dc6e6b6b98199b8c,64d2fd46c836a06233681665,64dc7b1a1a8a7ce03986474c,,,,,,,,,,,,,,,,,,,,,,,,,,2,0,2,0,1,,,,,,,,,,,,,,,,,,,,,,,,,,,,,,,,,,
,,,,,,,,2023-08-16_08h30.50.290,HF_wild_card,2022.2.4,MacIntel,62.5,62a882f2dc6e6b6b98199b8c,64d2fd46c836a06233681665,64dc7b1a1a8a7ce03986474c,,,,,,,decisionTrl,resources/DB.BMP,resources/DG.BMP,WildCard_Ex,-0.407777778,0.023333333,1,0,0,1.709,optionLeft,5,7235,4,0,0,0,0,1,,,,,,,,,,,,,,,,,,,,,,,,,,,,,,,,,,,,,,,
,,,,,,,,2023-08-16_08h30.50.290,HF_wild_card,2022.2.4,MacIntel,62.5,62a882f2dc6e6b6b98199b8c,64d2fd46c836a06233681665,64dc7b1a1a8a7ce03986474c,,,,,,,decisionTrl,resources/DBN.BMP,resources/DR.BMP,Door1,-0.367777778,0.04,1,0,0,1.594,optionLeft,30,7265,4,1,0,1,0,1,,,,,,,,,,,,,,,,,,,,,,,,,,,,,,,,,,,,,,,
,,,,,,,,2023-08-16_08h30.50.290,HF_wild_card,2022.2.4,MacIntel,62.5,62a882f2dc6e6b6b98199b8c,64d2fd46c836a06233681665,64dc7b1a1a8a7ce03986474c,,,,,,,decisionTrl,resources/DB.BMP,resources/DP.BMP,Door4,0.211111111,-0.004444444,1,0,0,0.911,optionRight,60,7325,4,2,0,2,0,1,,,,,,,,,,,,,,,,,,,,,,,,,,,,,,,,,,,,,,,
,,,,,,,,2023-08-16_08h30.50.290,HF_wild_card,2022.2.4,MacIntel,62.5,62a882f2dc6e6b6b98199b8c,64d2fd46c836a06233681665,64dc7b1a1a8a7ce03986474c,,,,,,,decisionTrl,resources/DP.BMP,resources/DG.BMP,Door4,-0.331111111,-0.018888889,1,0,0,0.678,optionLeft,60,7385,4,3,0,3,0,1,,,,,,,,,,,,,,,,,,,,,,,,,,,,,,,,,,,,,,,
,,,,,,,,2023-08-16_08h30.50.290,HF_wild_card,2022.2.4,MacIntel,62.5,62a882f2dc6e6b6b98199b8c,64d2fd46c836a06233681665,64dc7b1a1a8a7ce03986474c,,,,,,,decisionTrl,resources/DBN.BMP,resources/DR.BMP,Door2,0.268888889,-0.042222222,1,0,0,1.194,optionRight,40,7425,4,4,0,4,0,1,,,,,,,,,,,,,,,,,,,,,,,,,,,,,,,,,,,,,,,
,,,,,,,,2023-08-16_08h30.50.290,HF_wild_card,2022.2.4,MacIntel,62.5,62a882f2dc6e6b6b98199b8c,64d2fd46c836a06233681665,64dc7b1a1a8a7ce03986474c,,,,,,,sngl,resources/Empty.png,resources/DR.BMP,Door2,0.463333333,-0.098888889,1,0,0,0.894,optionRight,40,7465,4,5,0,5,0,1,,,,,,,,,,,,,,,,,,,,,,,,,,,,,,,,,,,,,,,
,,,,,,,,2023-08-16_08h30.50.290,HF_wild_card,2022.2.4,MacIntel,62.5,62a882f2dc6e6b6b98199b8c,64d2fd46c836a06233681665,64dc7b1a1a8a7ce03986474c,,,,,,,sngl,resources/Empty.png,resources/DP.BMP,Door4,0.343333333,-0.025555556,1,0,0,0.728,optionRight,80,7545,4,6,0,6,0,1,,,,,,,,,,,,,,,,,,,,,,,,,,,,,,,,,,,,,,,
,,,,,,,,2023-08-16_08h30.50.290,HF_wild_card,2022.2.4,MacIntel,62.5,62a882f2dc6e6b6b98199b8c,64d2fd46c836a06233681665,64dc7b1a1a8a7ce03986474c,,,,,,,ctch,resources/DBN.BMP,resources/DP.BMP,Door4,0.307777778,0.017777778,1,0,0,0.945,optionRight,60,7605,4,7,0,7,0,1,,,,,,,,,,,,,,,,,,,,,,,,,,,,,,,,,,,,,,,
,,,,,,,,2023-08-16_08h30.50.290,HF_wild_card,2022.2.4,MacIntel,62.5,62a882f2dc6e6b6b98199b8c,64d2fd46c836a06233681665,64dc7b1a1a8a7ce03986474c,,,,,,,decisionTrl,resources/DR.BMP,resources/DBN.BMP,Door2,-0.261111111,0,1,0,0,1.193,optionLeft,40,7645,4,8,0,8,0,1,,,,,,,,,,,,,,,,,,,,,,,,,,,,,,,,,,,,,,,
,,,,,,,,2023-08-16_08h30.50.290,HF_wild_card,2022.2.4,MacIntel,62.5,62a882f2dc6e6b6b98199b8c,64d2fd46c836a06233681665,64dc7b1a1a8a7ce03986474c,,,,,,,decisionTrl,resources/DR.BMP,resources/DBN.BMP,Door1,0.198888889,-0.001111111,1,0,0,0.894,optionRight,30,7675,4,9,0,9,0,1,,,,,,,,,,,,,,,,,,,,,,,,,,,,,,,,,,,,,,,
,,,,,,,,2023-08-16_08h30.50.290,HF_wild_card,2022.2.4,MacIntel,62.5,62a882f2dc6e6b6b98199b8c,64d2fd46c836a06233681665,64dc7b1a1a8a7ce03986474c,,,,,,,sngl,resources/DG.BMP,resources/Empty.png,Door3,-0.225555556,-0.034444444,1,0,0,0.612,optionLeft,70,7745,4,10,0,10,0,1,,,,,,,,,,,,,,,,,,,,,,,,,,,,,,,,,,,,,,,
,,,,,,,,2023-08-16_08h30.50.290,HF_wild_card,2022.2.4,MacIntel,62.5,62a882f2dc6e6b6b98199b8c,64d2fd46c836a06233681665,64dc7b1a1a8a7ce03986474c,,,,,,,sngl,resources/DR.BMP,resources/Empty.png,Door2,-0.233333333,0.027777778,1,0,0,0.862,optionLeft,20,7765,4,11,0,11,0,1,,,,,,,,,,,,,,,,,,,,,,,,,,,,,,,,,,,,,,,
,,,,,,,,2023-08-16_08h30.50.290,HF_wild_card,2022.2.4,MacIntel,62.5,62a882f2dc6e6b6b98199b8c,64d2fd46c836a06233681665,64dc7b1a1a8a7ce03986474c,,,,,,,decisionTrl,resources/DB.BMP,resources/DBN.BMP,Door1,0.351111111,-0.058888889,1,0,0,0.895,optionRight,30,7795,4,12,0,12,0,1,,,,,,,,,,,,,,,,,,,,,,,,,,,,,,,,,,,,,,,
,,,,,,,,2023-08-16_08h30.50.290,HF_wild_card,2022.2.4,MacIntel,62.5,62a882f2dc6e6b6b98199b8c,64d2fd46c836a06233681665,64dc7b1a1a8a7ce03986474c,,,,,,,ctch,resources/DP.BMP,resources/DBN.BMP,Door4,-0.297777778,0.007777778,1,0,0,0.661,optionLeft,80,7875,4,13,0,13,0,1,,,,,,,,,,,,,,,,,,,,,,,,,,,,,,,,,,,,,,,
,,,,,,,,2023-08-16_08h30.50.290,HF_wild_card,2022.2.4,MacIntel,62.5,62a882f2dc6e6b6b98199b8c,64d2fd46c836a06233681665,64dc7b1a1a8a7ce03986474c,,,,,,,sngl,resources/DB.BMP,resources/Empty.png,WildCard_Ex,-0.246666667,0.013333333,1,0,0,0.593,optionLeft,95,7970,4,14,0,14,0,1,,,,,,,,,,,,,,,,,,,,,,,,,,,,,,,,,,,,,,,
,,,,,,,,2023-08-16_08h30.50.290,HF_wild_card,2022.2.4,MacIntel,62.5,62a882f2dc6e6b6b98199b8c,64d2fd46c836a06233681665,64dc7b1a1a8a7ce03986474c,,,,,,,ctch,resources/DG.BMP,resources/DR.BMP,Door3,-0.157777778,-0.002222222,1,0,0,1.977,optionLeft,70,8040,4,15,0,15,0,1,,,,,,,,,,,,,,,,,,,,,,,,,,,,,,,,,,,,,,,
,,,,,,,,2023-08-16_08h30.50.290,HF_wild_card,2022.2.4,MacIntel,62.5,62a882f2dc6e6b6b98199b8c,64d2fd46c836a06233681665,64dc7b1a1a8a7ce03986474c,,,,,,,decisionTrl,resources/DB.BMP,resources/DR.BMP,WildCard_Ex,-0.164444444,0.002222222,1,0,0,0.943,optionLeft,95,8135,4,16,0,16,0,1,,,,,,,,,,,,,,,,,,,,,,,,,,,,,,,,,,,,,,,
,,,,,,,,2023-08-16_08h30.50.290,HF_wild_card,2022.2.4,MacIntel,62.5,62a882f2dc6e6b6b98199b8c,64d2fd46c836a06233681665,64dc7b1a1a8a7ce03986474c,,,,,,,decisionTrl,resources/DP.BMP,resources/DB.BMP,WildCard_Ex,0.255555556,0.048888889,1,0,0,0.627,optionRight,5,8140,4,17,0,17,0,1,,,,,,,,,,,,,,,,,,,,,,,,,,,,,,,,,,,,,,,
,,,,,,,,2023-08-16_08h30.50.290,HF_wild_card,2022.2.4,MacIntel,62.5,62a882f2dc6e6b6b98199b8c,64d2fd46c836a06233681665,64dc7b1a1a8a7ce03986474c,,,,,,,sngl,resources/Empty.png,resources/DBN.BMP,Door1,0.206666667,0.063333333,1,0,0,0.693,optionRight,30,8170,4,18,0,18,0,1,,,,,,,,,,,,,,,,,,,,,,,,,,,,,,,,,,,,,,,
,,,,,,,,2023-08-16_08h30.50.290,HF_wild_card,2022.2.4,MacIntel,62.5,62a882f2dc6e6b6b98199b8c,64d2fd46c836a06233681665,64dc7b1a1a8a7ce03986474c,,,,,,,sngl,resources/DP.BMP,resources/Empty.png,Door4,-0.235555556,0.003333333,1,0,0,0.761,optionLeft,60,8230,4,19,0,19,0,1,,,,,,,,,,,,,,,,,,,,,,,,,,,,,,,,,,,,,,,
,,,,,,,,2023-08-16_08h30.50.290,HF_wild_card,2022.2.4,MacIntel,62.5,62a882f2dc6e6b6b98199b8c,64d2fd46c836a06233681665,64dc7b1a1a8a7ce03986474c,,,,,,,decisionTrl,resources/DBN.BMP,resources/DR.BMP,Door2,0.215555556,0.011111111,1,0,0,1.062,optionRight,20,8250,4,20,0,20,0,1,,,,,,,,,,,,,,,,,,,,,,,,,,,,,,,,,,,,,,,
,,,,,,,,2023-08-16_08h30.50.290,HF_wild_card,2022.2.4,MacIntel,62.5,62a882f2dc6e6b6b98199b8c,64d2fd46c836a06233681665,64dc7b1a1a8a7ce03986474c,,,,,,,decisionTrl,resources/DG.BMP,resources/DP.BMP,Door4,0.378888889,-0.012222222,1,0,0,1.212,optionRight,80,8330,4,21,0,21,0,1,,,,,,,,,,,,,,,,,,,,,,,,,,,,,,,,,,,,,,,
,,,,,,,,2023-08-16_08h30.50.290,HF_wild_card,2022.2.4,MacIntel,62.5,62a882f2dc6e6b6b98199b8c,64d2fd46c836a06233681665,64dc7b1a1a8a7ce03986474c,,,,,,,sngl,resources/Empty.png,resources/DG.BMP,Door3,0.295555556,0.047777778,1,0,0,0.978,optionRight,70,8400,4,22,0,22,0,1,,,,,,,,,,,,,,,,,,,,,,,,,,,,,,,,,,,,,,,
,,,,,,,,2023-08-16_08h30.50.290,HF_wild_card,2022.2.4,MacIntel,62.5,62a882f2dc6e6b6b98199b8c,64d2fd46c836a06233681665,64dc7b1a1a8a7ce03986474c,,,,,,,ctch,resources/DG.BMP,resources/DR.BMP,Door3,-0.235555556,-0.031111111,1,0,0,0.662,optionLeft,70,8470,4,23,0,23,0,1,,,,,,,,,,,,,,,,,,,,,,,,,,,,,,,,,,,,,,,
,,,,,,,,2023-08-16_08h30.50.290,HF_wild_card,2022.2.4,MacIntel,62.5,62a882f2dc6e6b6b98199b8c,64d2fd46c836a06233681665,64dc7b1a1a8a7ce03986474c,,,,,,,sngl,resources/Empty.png,resources/DB.BMP,WildCard_Ex,0.228888889,-0.01,1,0,0,0.711,optionRight,95,8565,4,24,0,24,0,1,,,,,,,,,,,,,,,,,,,,,,,,,,,,,,,,,,,,,,,
,,,,,,,,2023-08-16_08h30.50.290,HF_wild_card,2022.2.4,MacIntel,62.5,62a882f2dc6e6b6b98199b8c,64d2fd46c836a06233681665,64dc7b1a1a8a7ce03986474c,,,,,,,decisionTrl,resources/DP.BMP,resources/DG.BMP,Door4,-0.237777778,-0.042222222,1,0,0,0.761,optionLeft,60,8625,4,25,0,25,0,1,,,,,,,,,,,,,,,,,,,,,,,,,,,,,,,,,,,,,,,
,,,,,,,,2023-08-16_08h30.50.290,HF_wild_card,2022.2.4,MacIntel,62.5,62a882f2dc6e6b6b98199b8c,64d2fd46c836a06233681665,64dc7b1a1a8a7ce03986474c,,,,,,,decisionTrl,resources/DG.BMP,resources/DP.BMP,Door4,0.246666667,0.005555556,1,0,0,0.692,optionRight,60,8685,4,26,0,26,0,1,,,,,,,,,,,,,,,,,,,,,,,,,,,,,,,,,,,,,,,
,,,,,,,,2023-08-16_08h30.50.290,HF_wild_card,2022.2.4,MacIntel,62.5,62a882f2dc6e6b6b98199b8c,64d2fd46c836a06233681665,64dc7b1a1a8a7ce03986474c,,,,,,,sngl,resources/Empty.png,resources/DB.BMP,WildCard_Ex,0.206666667,0.004444444,1,0,0,0.662,optionRight,5,8690,4,27,0,27,0,1,,,,,,,,,,,,,,,,,,,,,,,,,,,,,,,,,,,,,,,
,,,,,,,,2023-08-16_08h30.50.290,HF_wild_card,2022.2.4,MacIntel,62.5,62a882f2dc6e6b6b98199b8c,64d2fd46c836a06233681665,64dc7b1a1a8a7ce03986474c,,,,,,,decisionTrl,resources/DP.BMP,resources/DG.BMP,Door4,-0.29,-0.051111111,1,0,0,1.111,optionLeft,60,8750,4,28,0,28,0,1,,,,,,,,,,,,,,,,,,,,,,,,,,,,,,,,,,,,,,,
,,,,,,,,2023-08-16_08h30.50.290,HF_wild_card,2022.2.4,MacIntel,62.5,62a882f2dc6e6b6b98199b8c,64d2fd46c836a06233681665,64dc7b1a1a8a7ce03986474c,,,,,,,decisionTrl,resources/DR.BMP,resources/DBN.BMP,Door2,-0.21,0.013333333,1,0,0,0.777,optionLeft,20,8770,4,29,0,29,0,1,,,,,,,,,,,,,,,,,,,,,,,,,,,,,,,,,,,,,,,
,,,,,,,,2023-08-16_08h30.50.290,HF_wild_card,2022.2.4,MacIntel,62.5,62a882f2dc6e6b6b98199b8c,64d2fd46c836a06233681665,64dc7b1a1a8a7ce03986474c,,,,,,,sngl,resources/DBN.BMP,resources/Empty.png,Door1,-0.196666667,0.012222222,1,0,0,0.661,optionLeft,30,8800,4,30,0,30,0,1,,,,,,,,,,,,,,,,,,,,,,,,,,,,,,,,,,,,,,,
,,,,,,,,2023-08-16_08h30.50.290,HF_wild_card,2022.2.4,MacIntel,62.5,62a882f2dc6e6b6b98199b8c,64d2fd46c836a06233681665,64dc7b1a1a8a7ce03986474c,,,,,,,decisionTrl,resources/DP.BMP,resources/DG.BMP,Door3,0.245555556,0.074444444,1,0,0,0.961,optionRight,70,8870,4,31,0,31,0,1,,,,,,,,,,,,,,,,,,,,,,,,,,,,,,,,,,,,,,,
,,,,,,,,2023-08-16_08h30.50.290,HF_wild_card,2022.2.4,MacIntel,62.5,62a882f2dc6e6b6b98199b8c,64d2fd46c836a06233681665,64dc7b1a1a8a7ce03986474c,,,,,,,decisionTrl,resources/DR.BMP,resources/DBN.BMP,Door1,0.295555556,0.091111111,1,0,0,1.145,optionRight,30,8900,4,32,0,32,0,1,,,,,,,,,,,,,,,,,,,,,,,,,,,,,,,,,,,,,,,
,,,,,,,,2023-08-16_08h30.50.290,HF_wild_card,2022.2.4,MacIntel,62.5,62a882f2dc6e6b6b98199b8c,64d2fd46c836a06233681665,64dc7b1a1a8a7ce03986474c,,,,,,,sngl,resources/DB.BMP,resources/Empty.png,WildCard_Ex,-0.256666667,-0.012222222,1,0,0,0.678,optionLeft,5,8905,4,33,0,33,0,1,,,,,,,,,,,,,,,,,,,,,,,,,,,,,,,,,,,,,,,
,,,,,,,,2023-08-16_08h30.50.290,HF_wild_card,2022.2.4,MacIntel,62.5,62a882f2dc6e6b6b98199b8c,64d2fd46c836a06233681665,64dc7b1a1a8a7ce03986474c,,,,,,,decisionTrl,resources/DBN.BMP,resources/DR.BMP,Door2,0.223333333,0.012222222,1,0,0,0.694,optionRight,40,8945,4,34,0,34,0,1,,,,,,,,,,,,,,,,,,,,,,,,,,,,,,,,,,,,,,,
,,,,,,,,2023-08-16_08h30.50.290,HF_wild_card,2022.2.4,MacIntel,62.5,62a882f2dc6e6b6b98199b8c,64d2fd46c836a06233681665,64dc7b1a1a8a7ce03986474c,,,,,,,decisionTrl,resources/DG.BMP,resources/DP.BMP,Door4,0.305555556,0.026666667,1,0,0,0.828,optionRight,80,9025,4,35,0,35,0,1,,,,,,,,,,,,,,,,,,,,,,,,,,,,,,,,,,,,,,,
,,,,,,,,2023-08-16_08h30.50.290,HF_wild_card,2022.2.4,MacIntel,62.5,62a882f2dc6e6b6b98199b8c,64d2fd46c836a06233681665,64dc7b1a1a8a7ce03986474c,,,,,,,decisionTrl,resources/DR.BMP,resources/DB.BMP,WildCard_Ex,0.175555556,-0.004444444,1,0,0,0.844,optionRight,5,9030,4,36,0,36,0,1,,,,,,,,,,,,,,,,,,,,,,,,,,,,,,,,,,,,,,,
,,,,,,,,2023-08-16_08h30.50.290,HF_wild_card,2022.2.4,MacIntel,62.5,62a882f2dc6e6b6b98199b8c,64d2fd46c836a06233681665,64dc7b1a1a8a7ce03986474c,,,,,,,ctch,resources/DR.BMP,resources/DG.BMP,Door3,0.172222222,0.014444444,1,0,0,1.144,optionRight,70,9100,4,37,0,37,0,1,,,,,,,,,,,,,,,,,,,,,,,,,,,,,,,,,,,,,,,
,,,,,,,,2023-08-16_08h30.50.290,HF_wild_card,2022.2.4,MacIntel,62.5,62a882f2dc6e6b6b98199b8c,64d2fd46c836a06233681665,64dc7b1a1a8a7ce03986474c,,,,,,,decisionTrl,resources/DG.BMP,resources/DP.BMP,Door4,0.181111111,0.014444444,1,0,0,0.909,optionRight,60,9160,4,38,0,38,0,1,,,,,,,,,,,,,,,,,,,,,,,,,,,,,,,,,,,,,,,
,,,,,,,,2023-08-16_08h30.50.290,HF_wild_card,2022.2.4,MacIntel,62.5,62a882f2dc6e6b6b98199b8c,64d2fd46c836a06233681665,64dc7b1a1a8a7ce03986474c,,,,,,,ctch,resources/DBN.BMP,resources/DP.BMP,Door4,0.151111111,0.036666667,1,0,0,0.793,optionRight,60,9220,4,39,0,39,0,1,,,,,,,,,,,,,,,,,,,,,,,,,,,,,,,,,,,,,,,
,,,,,,,,2023-08-16_08h30.50.290,HF_wild_card,2022.2.4,MacIntel,62.5,62a882f2dc6e6b6b98199b8c,64d2fd46c836a06233681665,64dc7b1a1a8a7ce03986474c,,,,,,,decisionTrl,resources/DBN.BMP,resources/DB.BMP,WildCard_Ex,0.164444444,0.05,1,0,0,1.078,optionRight,5,9225,4,40,0,40,0,1,,,,,,,,,,,,,,,,,,,,,,,,,,,,,,,,,,,,,,,
,,,,,,,,2023-08-16_08h30.50.290,HF_wild_card,2022.2.4,MacIntel,62.5,62a882f2dc6e6b6b98199b8c,64d2fd46c836a06233681665,64dc7b1a1a8a7ce03986474c,,,,,,,ctch,resources/DP.BMP,resources/DBN.BMP,Door4,-0.192222222,-0.045555556,1,0,0,0.811,optionLeft,80,9305,4,41,0,41,0,1,,,,,,,,,,,,,,,,,,,,,,,,,,,,,,,,,,,,,,,
,,,,,,,,2023-08-16_08h30.50.290,HF_wild_card,2022.2.4,MacIntel,62.5,62a882f2dc6e6b6b98199b8c,64d2fd46c836a06233681665,64dc7b1a1a8a7ce03986474c,,,,,,,decisionTrl,resources/DG.BMP,resources/DB.BMP,Door3,-0.325555556,-0.001111111,1,0,0,1.627,optionLeft,70,9375,4,42,0,42,0,1,,,,,,,,,,,,,,,,,,,,,,,,,,,,,,,,,,,,,,,
,,,,,,,,2023-08-16_08h30.50.290,HF_wild_card,2022.2.4,MacIntel,62.5,62a882f2dc6e6b6b98199b8c,64d2fd46c836a06233681665,64dc7b1a1a8a7ce03986474c,,,,,,,ctch,resources/DR.BMP,resources/DG.BMP,Door3,0.22,0.025555556,1,0,0,0.812,optionRight,70,9445,4,43,0,43,0,1,,,,,,,,,,,,,,,,,,,,,,,,,,,,,,,,,,,,,,,
,,,,,,,,2023-08-16_08h30.50.290,HF_wild_card,2022.2.4,MacIntel,62.5,62a882f2dc6e6b6b98199b8c,64d2fd46c836a06233681665,64dc7b1a1a8a7ce03986474c,,,,,,,,,,,,,,,,,,,,,,,,,,3,0,3,0,1,,,,,,,,,,,,,,,,,,,,,,,,,,,,,,,,,,
,,,,,,,,2023-08-16_08h30.50.290,HF_wild_card,2022.2.4,MacIntel,62.5,62a882f2dc6e6b6b98199b8c,64d2fd46c836a06233681665,64dc7b1a1a8a7ce03986474c,,,,,,,decisionTrl,resources/DB.BMP,resources/DP.BMP,WildCard_Ex,-0.218888889,-0.081111111,1,0,0,0.844,optionLeft,95,9540,5,0,0,0,0,1,,,,,,,,,,,,,,,,,,,,,,,,,,,,,,,,,,,,,,,
,,,,,,,,2023-08-16_08h30.50.290,HF_wild_card,2022.2.4,MacIntel,62.5,62a882f2dc6e6b6b98199b8c,64d2fd46c836a06233681665,64dc7b1a1a8a7ce03986474c,,,,,,,decisionTrl,resources/DB.BMP,resources/DR.BMP,Door2,0.245555556,0.098888889,1,0,0,0.977,optionRight,20,9560,5,1,0,1,0,1,,,,,,,,,,,,,,,,,,,,,,,,,,,,,,,,,,,,,,,
,,,,,,,,2023-08-16_08h30.50.290,HF_wild_card,2022.2.4,MacIntel,62.5,62a882f2dc6e6b6b98199b8c,64d2fd46c836a06233681665,64dc7b1a1a8a7ce03986474c,,,,,,,decisionTrl,resources/DBN.BMP,resources/DR.BMP,Door1,-0.191111111,0.03,1,0,0,1.127,optionLeft,30,9590,5,2,0,2,0,1,,,,,,,,,,,,,,,,,,,,,,,,,,,,,,,,,,,,,,,
,,,,,,,,2023-08-16_08h30.50.290,HF_wild_card,2022.2.4,MacIntel,62.5,62a882f2dc6e6b6b98199b8c,64d2fd46c836a06233681665,64dc7b1a1a8a7ce03986474c,,,,,,,ctch,resources/DP.BMP,resources/DBN.BMP,Door4,-0.193333333,-0.002222222,1,0,0,0.677,optionLeft,80,9670,5,3,0,3,0,1,,,,,,,,,,,,,,,,,,,,,,,,,,,,,,,,,,,,,,,
,,,,,,,,2023-08-16_08h30.50.290,HF_wild_card,2022.2.4,MacIntel,62.5,62a882f2dc6e6b6b98199b8c,64d2fd46c836a06233681665,64dc7b1a1a8a7ce03986474c,,,,,,,decisionTrl,resources/DP.BMP,resources/DB.BMP,WildCard_Ex,0.224444444,0.058888889,1,0,0,0.843,optionRight,5,9675,5,4,0,4,0,1,,,,,,,,,,,,,,,,,,,,,,,,,,,,,,,,,,,,,,,
,,,,,,,,2023-08-16_08h30.50.290,HF_wild_card,2022.2.4,MacIntel,62.5,62a882f2dc6e6b6b98199b8c,64d2fd46c836a06233681665,64dc7b1a1a8a7ce03986474c,,,,,,,ctch,resources/DG.BMP,resources/DR.BMP,Door3,-0.186666667,0.023333333,1,0,0,1.161,optionLeft,70,9745,5,5,0,5,0,1,,,,,,,,,,,,,,,,,,,,,,,,,,,,,,,,,,,,,,,
,,,,,,,,2023-08-16_08h30.50.290,HF_wild_card,2022.2.4,MacIntel,62.5,62a882f2dc6e6b6b98199b8c,64d2fd46c836a06233681665,64dc7b1a1a8a7ce03986474c,,,,,,,decisionTrl,resources/DG.BMP,resources/DB.BMP,WildCard_Ex,0.177777778,0.021111111,1,0,0,0.978,optionRight,5,9750,5,6,0,6,0,1,,,,,,,,,,,,,,,,,,,,,,,,,,,,,,,,,,,,,,,
,,,,,,,,2023-08-16_08h30.50.290,HF_wild_card,2022.2.4,MacIntel,62.5,62a882f2dc6e6b6b98199b8c,64d2fd46c836a06233681665,64dc7b1a1a8a7ce03986474c,,,,,,,ctch,resources/DBN.BMP,resources/DP.BMP,Door4,0.26,0.033333333,1,0,0,0.957,optionRight,60,9810,5,7,0,7,0,1,,,,,,,,,,,,,,,,,,,,,,,,,,,,,,,,,,,,,,,
,,,,,,,,2023-08-16_08h30.50.290,HF_wild_card,2022.2.4,MacIntel,62.5,62a882f2dc6e6b6b98199b8c,64d2fd46c836a06233681665,64dc7b1a1a8a7ce03986474c,,,,,,,ctch,resources/DP.BMP,resources/DBN.BMP,Door4,-0.17,0,1,0,0,0.778,optionLeft,80,9890,5,8,0,8,0,1,,,,,,,,,,,,,,,,,,,,,,,,,,,,,,,,,,,,,,,
,,,,,,,,2023-08-16_08h30.50.290,HF_wild_card,2022.2.4,MacIntel,62.5,62a882f2dc6e6b6b98199b8c,64d2fd46c836a06233681665,64dc7b1a1a8a7ce03986474c,,,,,,,sngl,resources/DB.BMP,resources/Empty.png,WildCard_Ex,-0.221111111,-0.065555556,1,0,0,0.696,optionLeft,5,9895,5,9,0,9,0,1,,,,,,,,,,,,,,,,,,,,,,,,,,,,,,,,,,,,,,,
,,,,,,,,2023-08-16_08h30.50.290,HF_wild_card,2022.2.4,MacIntel,62.5,62a882f2dc6e6b6b98199b8c,64d2fd46c836a06233681665,64dc7b1a1a8a7ce03986474c,,,,,,,decisionTrl,resources/DG.BMP,resources/DP.BMP,Door4,0.213333333,0.005555556,1,0,0,0.811,optionRight,60,9955,5,10,0,10,0,1,,,,,,,,,,,,,,,,,,,,,,,,,,,,,,,,,,,,,,,
,,,,,,,,2023-08-16_08h30.50.290,HF_wild_card,2022.2.4,MacIntel,62.5,62a882f2dc6e6b6b98199b8c,64d2fd46c836a06233681665,64dc7b1a1a8a7ce03986474c,,,,,,,decisionTrl,resources/DBN.BMP,resources/DR.BMP,Door1,-0.218888889,0.005555556,1,0,0,0.96,optionLeft,30,9985,5,11,0,11,0,1,,,,,,,,,,,,,,,,,,,,,,,,,,,,,,,,,,,,,,,
,,,,,,,,2023-08-16_08h30.50.290,HF_wild_card,2022.2.4,MacIntel,62.5,62a882f2dc6e6b6b98199b8c,64d2fd46c836a06233681665,64dc7b1a1a8a7ce03986474c,,,,,,,ctch,resources/DBN.BMP,resources/DP.BMP,Door4,0.165555556,0.041111111,1,0,0,0.862,optionRight,80,10065,5,12,0,12,0,1,,,,,,,,,,,,,,,,,,,,,,,,,,,,,,,,,,,,,,,
,,,,,,,,2023-08-16_08h30.50.290,HF_wild_card,2022.2.4,MacIntel,62.5,62a882f2dc6e6b6b98199b8c,64d2fd46c836a06233681665,64dc7b1a1a8a7ce03986474c,,,,,,,decisionTrl,resources/DP.BMP,resources/DG.BMP,Door4,-0.178888889,-0.025555556,1,0,0,0.776,optionLeft,80,10145,5,13,0,13,0,1,,,,,,,,,,,,,,,,,,,,,,,,,,,,,,,,,,,,,,,
,,,,,,,,2023-08-16_08h30.50.290,HF_wild_card,2022.2.4,MacIntel,62.5,62a882f2dc6e6b6b98199b8c,64d2fd46c836a06233681665,64dc7b1a1a8a7ce03986474c,,,,,,,decisionTrl,resources/DR.BMP,resources/DBN.BMP,Door2,-0.22,-0.003333333,1,0,0,0.91,optionLeft,20,10165,5,14,0,14,0,1,,,,,,,,,,,,,,,,,,,,,,,,,,,,,,,,,,,,,,,
,,,,,,,,2023-08-16_08h30.50.290,HF_wild_card,2022.2.4,MacIntel,62.5,62a882f2dc6e6b6b98199b8c,64d2fd46c836a06233681665,64dc7b1a1a8a7ce03986474c,,,,,,,decisionTrl,resources/DB.BMP,resources/DG.BMP,Door3,0.208888889,0.02,1,0,0,1.31,optionRight,70,10235,5,15,0,15,0,1,,,,,,,,,,,,,,,,,,,,,,,,,,,,,,,,,,,,,,,
,,,,,,,,2023-08-16_08h30.50.290,HF_wild_card,2022.2.4,MacIntel,62.5,62a882f2dc6e6b6b98199b8c,64d2fd46c836a06233681665,64dc7b1a1a8a7ce03986474c,,,,,,,decisionTrl,resources/DR.BMP,resources/DBN.BMP,Door1,0.255555556,0.046666667,1,0,0,1.812,optionRight,30,10265,5,16,0,16,0,1,,,,,,,,,,,,,,,,,,,,,,,,,,,,,,,,,,,,,,,
,,,,,,,,2023-08-16_08h30.50.290,HF_wild_card,2022.2.4,MacIntel,62.5,62a882f2dc6e6b6b98199b8c,64d2fd46c836a06233681665,64dc7b1a1a8a7ce03986474c,,,,,,,sngl,resources/Empty.png,resources/DB.BMP,WildCard_Ex,0.257777778,-0.025555556,1,0,0,0.695,optionRight,95,10360,5,17,0,17,0,1,,,,,,,,,,,,,,,,,,,,,,,,,,,,,,,,,,,,,,,
,,,,,,,,2023-08-16_08h30.50.290,HF_wild_card,2022.2.4,MacIntel,62.5,62a882f2dc6e6b6b98199b8c,64d2fd46c836a06233681665,64dc7b1a1a8a7ce03986474c,,,,,,,sngl,resources/DP.BMP,resources/Empty.png,Door4,-0.227777778,0.04,1,0,0,0.693,optionLeft,80,10440,5,18,0,18,0,1,,,,,,,,,,,,,,,,,,,,,,,,,,,,,,,,,,,,,,,
,,,,,,,,2023-08-16_08h30.50.290,HF_wild_card,2022.2.4,MacIntel,62.5,62a882f2dc6e6b6b98199b8c,64d2fd46c836a06233681665,64dc7b1a1a8a7ce03986474c,,,,,,,ctch,resources/DR.BMP,resources/DG.BMP,Door3,0.223333333,-0.014444444,1,0,0,0.661,optionRight,70,10510,5,19,0,19,0,1,,,,,,,,,,,,,,,,,,,,,,,,,,,,,,,,,,,,,,,
,,,,,,,,2023-08-16_08h30.50.290,HF_wild_card,2022.2.4,MacIntel,62.5,62a882f2dc6e6b6b98199b8c,64d2fd46c836a06233681665,64dc7b1a1a8a7ce03986474c,,,,,,,sngl,resources/DB.BMP,resources/Empty.png,WildCard_Ex,-0.271111111,0.053333333,1,0,0,0.677,optionLeft,95,10605,5,20,0,20,0,1,,,,,,,,,,,,,,,,,,,,,,,,,,,,,,,,,,,,,,,
,,,,,,,,2023-08-16_08h30.50.290,HF_wild_card,2022.2.4,MacIntel,62.5,62a882f2dc6e6b6b98199b8c,64d2fd46c836a06233681665,64dc7b1a1a8a7ce03986474c,,,,,,,ctch,resources/DG.BMP,resources/DR.BMP,Door3,-0.205555556,-0.024444444,1,0,0,0.861,optionLeft,70,10675,5,21,0,21,0,1,,,,,,,,,,,,,,,,,,,,,,,,,,,,,,,,,,,,,,,
,,,,,,,,2023-08-16_08h30.50.290,HF_wild_card,2022.2.4,MacIntel,62.5,62a882f2dc6e6b6b98199b8c,64d2fd46c836a06233681665,64dc7b1a1a8a7ce03986474c,,,,,,,sngl,resources/DBN.BMP,resources/Empty.png,Door1,-0.343333333,0.024444444,1,0,0,1.029,optionLeft,30,10705,5,22,0,22,0,1,,,,,,,,,,,,,,,,,,,,,,,,,,,,,,,,,,,,,,,
,,,,,,,,2023-08-16_08h30.50.290,HF_wild_card,2022.2.4,MacIntel,62.5,62a882f2dc6e6b6b98199b8c,64d2fd46c836a06233681665,64dc7b1a1a8a7ce03986474c,,,,,,,decisionTrl,resources/DG.BMP,resources/DP.BMP,Door4,0.251111111,0.002222222,1,0,0,0.678,optionRight,60,10765,5,23,0,23,0,1,,,,,,,,,,,,,,,,,,,,,,,,,,,,,,,,,,,,,,,
,,,,,,,,2023-08-16_08h30.50.290,HF_wild_card,2022.2.4,MacIntel,62.5,62a882f2dc6e6b6b98199b8c,64d2fd46c836a06233681665,64dc7b1a1a8a7ce03986474c,,,,,,,sngl,resources/Empty.png,resources/DG.BMP,Door3,0.233333333,-0.008888889,1,0,0,0.595,optionRight,70,10835,5,24,0,24,0,1,,,,,,,,,,,,,,,,,,,,,,,,,,,,,,,,,,,,,,,
,,,,,,,,2023-08-16_08h30.50.290,HF_wild_card,2022.2.4,MacIntel,62.5,62a882f2dc6e6b6b98199b8c,64d2fd46c836a06233681665,64dc7b1a1a8a7ce03986474c,,,,,,,decisionTrl,resources/DBN.BMP,resources/DR.BMP,Door1,-0.19,-0.023333333,1,0,0,1.393,optionLeft,30,10865,5,25,0,25,0,1,,,,,,,,,,,,,,,,,,,,,,,,,,,,,,,,,,,,,,,
,,,,,,,,2023-08-16_08h30.50.290,HF_wild_card,2022.2.4,MacIntel,62.5,62a882f2dc6e6b6b98199b8c,64d2fd46c836a06233681665,64dc7b1a1a8a7ce03986474c,,,,,,,decisionTrl,resources/DG.BMP,resources/DP.BMP,Door4,0.242222222,0.006666667,1,0,0,0.727,optionRight,80,10945,5,26,0,26,0,1,,,,,,,,,,,,,,,,,,,,,,,,,,,,,,,,,,,,,,,
,,,,,,,,2023-08-16_08h30.50.290,HF_wild_card,2022.2.4,MacIntel,62.5,62a882f2dc6e6b6b98199b8c,64d2fd46c836a06233681665,64dc7b1a1a8a7ce03986474c,,,,,,,sngl,resources/Empty.png,resources/DB.BMP,WildCard_Ex,0.228888889,0.005555556,1,0,0,0.66,optionRight,5,10950,5,27,0,27,0,1,,,,,,,,,,,,,,,,,,,,,,,,,,,,,,,,,,,,,,,
,,,,,,,,2023-08-16_08h30.50.290,HF_wild_card,2022.2.4,MacIntel,62.5,62a882f2dc6e6b6b98199b8c,64d2fd46c836a06233681665,64dc7b1a1a8a7ce03986474c,,,,,,,decisionTrl,resources/DB.BMP,resources/DBN.BMP,WildCard_Ex,-0.174444444,-0.022222222,1,0,0,0.892,optionLeft,5,10955,5,28,0,28,0,1,,,,,,,,,,,,,,,,,,,,,,,,,,,,,,,,,,,,,,,
,,,,,,,,2023-08-16_08h30.50.290,HF_wild_card,2022.2.4,MacIntel,62.5,62a882f2dc6e6b6b98199b8c,64d2fd46c836a06233681665,64dc7b1a1a8a7ce03986474c,,,,,,,decisionTrl,resources/DR.BMP,resources/DBN.BMP,Door2,-0.354444444,0.03,1,0,0,0.761,optionLeft,40,10995,5,29,0,29,0,1,,,,,,,,,,,,,,,,,,,,,,,,,,,,,,,,,,,,,,,
,,,,,,,,2023-08-16_08h30.50.290,HF_wild_card,2022.2.4,MacIntel,62.5,62a882f2dc6e6b6b98199b8c,64d2fd46c836a06233681665,64dc7b1a1a8a7ce03986474c,,,,,,,decisionTrl,resources/DBN.BMP,resources/DR.BMP,Door2,0.195555556,0.026666667,1,0,0,0.947,optionRight,20,11015,5,30,0,30,0,1,,,,,,,,,,,,,,,,,,,,,,,,,,,,,,,,,,,,,,,
,,,,,,,,2023-08-16_08h30.50.290,HF_wild_card,2022.2.4,MacIntel,62.5,62a882f2dc6e6b6b98199b8c,64d2fd46c836a06233681665,64dc7b1a1a8a7ce03986474c,,,,,,,ctch,resources/DR.BMP,resources/DG.BMP,Door3,0.265555556,0.072222222,1,0,0,1.411,optionRight,70,11085,5,31,0,31,0,1,,,,,,,,,,,,,,,,,,,,,,,,,,,,,,,,,,,,,,,
,,,,,,,,2023-08-16_08h30.50.290,HF_wild_card,2022.2.4,MacIntel,62.5,62a882f2dc6e6b6b98199b8c,64d2fd46c836a06233681665,64dc7b1a1a8a7ce03986474c,,,,,,,decisionTrl,resources/DR.BMP,resources/DB.BMP,WildCard_Ex,0.15,0.003333333,1,0,0,1.744,optionRight,95,11180,5,32,0,32,0,1,,,,,,,,,,,,,,,,,,,,,,,,,,,,,,,,,,,,,,,
,,,,,,,,2023-08-16_08h30.50.290,HF_wild_card,2022.2.4,MacIntel,62.5,62a882f2dc6e6b6b98199b8c,64d2fd46c836a06233681665,64dc7b1a1a8a7ce03986474c,,,,,,,decisionTrl,resources/DP.BMP,resources/DG.BMP,Door4,-0.237777778,-0.06,1,0,0,1.179,optionLeft,60,11240,5,33,0,33,0,1,,,,,,,,,,,,,,,,,,,,,,,,,,,,,,,,,,,,,,,
,,,,,,,,2023-08-16_08h30.50.290,HF_wild_card,2022.2.4,MacIntel,62.5,62a882f2dc6e6b6b98199b8c,64d2fd46c836a06233681665,64dc7b1a1a8a7ce03986474c,,,,,,,sngl,resources/Empty.png,resources/DBN.BMP,Door1,0.273333333,0.007777778,1,0,0,0.778,optionRight,30,11270,5,34,0,34,0,1,,,,,,,,,,,,,,,,,,,,,,,,,,,,,,,,,,,,,,,
,,,,,,,,2023-08-16_08h30.50.290,HF_wild_card,2022.2.4,MacIntel,62.5,62a882f2dc6e6b6b98199b8c,64d2fd46c836a06233681665,64dc7b1a1a8a7ce03986474c,,,,,,,sngl,resources/DG.BMP,resources/Empty.png,Door3,-0.233333333,-0.028888889,1,0,0,0.661,optionLeft,70,11340,5,35,0,35,0,1,,,,,,,,,,,,,,,,,,,,,,,,,,,,,,,,,,,,,,,
,,,,,,,,2023-08-16_08h30.50.290,HF_wild_card,2022.2.4,MacIntel,62.5,62a882f2dc6e6b6b98199b8c,64d2fd46c836a06233681665,64dc7b1a1a8a7ce03986474c,,,,,,,decisionTrl,resources/DR.BMP,resources/DBN.BMP,Door2,-0.186666667,-0.033333333,1,0,0,0.795,optionLeft,40,11380,5,36,0,36,0,1,,,,,,,,,,,,,,,,,,,,,,,,,,,,,,,,,,,,,,,
,,,,,,,,2023-08-16_08h30.50.290,HF_wild_card,2022.2.4,MacIntel,62.5,62a882f2dc6e6b6b98199b8c,64d2fd46c836a06233681665,64dc7b1a1a8a7ce03986474c,,,,,,,sngl,resources/Empty.png,resources/DR.BMP,Door2,0.213333333,0.023333333,1,0,0,0.543,optionRight,20,11400,5,37,0,37,0,1,,,,,,,,,,,,,,,,,,,,,,,,,,,,,,,,,,,,,,,
,,,,,,,,2023-08-16_08h30.50.290,HF_wild_card,2022.2.4,MacIntel,62.5,62a882f2dc6e6b6b98199b8c,64d2fd46c836a06233681665,64dc7b1a1a8a7ce03986474c,,,,,,,sngl,resources/Empty.png,resources/DP.BMP,Door4,0.184444444,0.005555556,1,0,0,0.545,optionRight,60,11460,5,38,0,38,0,1,,,,,,,,,,,,,,,,,,,,,,,,,,,,,,,,,,,,,,,
,,,,,,,,2023-08-16_08h30.50.290,HF_wild_card,2022.2.4,MacIntel,62.5,62a882f2dc6e6b6b98199b8c,64d2fd46c836a06233681665,64dc7b1a1a8a7ce03986474c,,,,,,,decisionTrl,resources/DP.BMP,resources/DG.BMP,Door4,-0.308888889,-0.032222222,1,0,0,1.044,optionLeft,60,11520,5,39,0,39,0,1,,,,,,,,,,,,,,,,,,,,,,,,,,,,,,,,,,,,,,,
,,,,,,,,2023-08-16_08h30.50.290,HF_wild_card,2022.2.4,MacIntel,62.5,62a882f2dc6e6b6b98199b8c,64d2fd46c836a06233681665,64dc7b1a1a8a7ce03986474c,,,,,,,decisionTrl,resources/DP.BMP,resources/DG.BMP,Door4,-0.164444444,-0.001111111,1,0,0,1.527,optionLeft,60,11580,5,40,0,40,0,1,,,,,,,,,,,,,,,,,,,,,,,,,,,,,,,,,,,,,,,
,,,,,,,,2023-08-16_08h30.50.290,HF_wild_card,2022.2.4,MacIntel,62.5,62a882f2dc6e6b6b98199b8c,64d2fd46c836a06233681665,64dc7b1a1a8a7ce03986474c,,,,,,,sngl,resources/DR.BMP,resources/Empty.png,Door2,-0.344444444,0.042222222,1,0,0,0.977,optionLeft,40,11620,5,41,0,41,0,1,,,,,,,,,,,,,,,,,,,,,,,,,,,,,,,,,,,,,,,
,,,,,,,,2023-08-16_08h30.50.290,HF_wild_card,2022.2.4,MacIntel,62.5,62a882f2dc6e6b6b98199b8c,64d2fd46c836a06233681665,64dc7b1a1a8a7ce03986474c,,,,,,,decisionTrl,resources/DG.BMP,resources/DP.BMP,Door4,0.311111111,-0.014444444,1,0,0,0.877,optionRight,80,11700,5,42,0,42,0,1,,,,,,,,,,,,,,,,,,,,,,,,,,,,,,,,,,,,,,,
,,,,,,,,2023-08-16_08h30.50.290,HF_wild_card,2022.2.4,MacIntel,62.5,62a882f2dc6e6b6b98199b8c,64d2fd46c836a06233681665,64dc7b1a1a8a7ce03986474c,,,,,,,decisionTrl,resources/DBN.BMP,resources/DB.BMP,WildCard_Ex,0.2,-0.015555556,1,0,0,0.844,optionRight,95,11795,5,43,0,43,0,1,,,,,,,,,,,,,,,,,,,,,,,,,,,,,,,,,,,,,,,
,,,,,,,,2023-08-16_08h30.50.290,HF_wild_card,2022.2.4,MacIntel,62.5,62a882f2dc6e6b6b98199b8c,64d2fd46c836a06233681665,64dc7b1a1a8a7ce03986474c,,,,,,,,,,,,,,,,,,,,,,,,,,4,0,4,0,1,,,,,,,,,,,,,,,,,,,,,,,,,,,,,,,,,,
,,,,,,,,2023-08-16_08h30.50.290,HF_wild_card,2022.2.4,MacIntel,62.5,62a882f2dc6e6b6b98199b8c,64d2fd46c836a06233681665,64dc7b1a1a8a7ce03986474c,,,,,,,sngl,resources/Empty.png,resources/DB.BMP,WildCard_Ex,0.231111111,-0.1,1,0,0,0.707,optionRight,95,11890,6,0,0,0,0,1,,,,,,,,,,,,,,,,,,,,,,,,,,,,,,,,,,,,,,,
,,,,,,,,2023-08-16_08h30.50.290,HF_wild_card,2022.2.4,MacIntel,62.5,62a882f2dc6e6b6b98199b8c,64d2fd46c836a06233681665,64dc7b1a1a8a7ce03986474c,,,,,,,sngl,resources/DB.BMP,resources/Empty.png,WildCard_Ex,-0.237777778,0.01,1,0,0,0.676,optionLeft,5,11895,6,1,0,1,0,1,,,,,,,,,,,,,,,,,,,,,,,,,,,,,,,,,,,,,,,
,,,,,,,,2023-08-16_08h30.50.290,HF_wild_card,2022.2.4,MacIntel,62.5,62a882f2dc6e6b6b98199b8c,64d2fd46c836a06233681665,64dc7b1a1a8a7ce03986474c,,,,,,,decisionTrl,resources/DB.BMP,resources/DG.BMP,Door3,0.233333333,0.028888889,1,0,0,0.897,optionRight,70,11965,6,2,0,2,0,1,,,,,,,,,,,,,,,,,,,,,,,,,,,,,,,,,,,,,,,
,,,,,,,,2023-08-16_08h30.50.290,HF_wild_card,2022.2.4,MacIntel,62.5,62a882f2dc6e6b6b98199b8c,64d2fd46c836a06233681665,64dc7b1a1a8a7ce03986474c,,,,,,,decisionTrl,resources/DR.BMP,resources/DBN.BMP,Door1,0.225555556,0.057777778,1,0,0,1.061,optionRight,30,11995,6,3,0,3,0,1,,,,,,,,,,,,,,,,,,,,,,,,,,,,,,,,,,,,,,,
,,,,,,,,2023-08-16_08h30.50.290,HF_wild_card,2022.2.4,MacIntel,62.5,62a882f2dc6e6b6b98199b8c,64d2fd46c836a06233681665,64dc7b1a1a8a7ce03986474c,,,,,,,sngl,resources/DR.BMP,resources/Empty.png,Door2,-0.218888889,-0.023333333,1,0,0,0.676,optionLeft,20,12015,6,4,0,4,0,1,,,,,,,,,,,,,,,,,,,,,,,,,,,,,,,,,,,,,,,
,,,,,,,,2023-08-16_08h30.50.290,HF_wild_card,2022.2.4,MacIntel,62.5,62a882f2dc6e6b6b98199b8c,64d2fd46c836a06233681665,64dc7b1a1a8a7ce03986474c,,,,,,,ctch,resources/DBN.BMP,resources/DP.BMP,Door4,0.224444444,0.026666667,1,0,0,0.827,optionRight,60,12075,6,5,0,5,0,1,,,,,,,,,,,,,,,,,,,,,,,,,,,,,,,,,,,,,,,
,,,,,,,,2023-08-16_08h30.50.290,HF_wild_card,2022.2.4,MacIntel,62.5,62a882f2dc6e6b6b98199b8c,64d2fd46c836a06233681665,64dc7b1a1a8a7ce03986474c,,,,,,,sngl,resources/DBN.BMP,resources/Empty.png,Door1,-0.286666667,0.002222222,1,0,0,0.694,optionLeft,30,12105,6,6,0,6,0,1,,,,,,,,,,,,,,,,,,,,,,,,,,,,,,,,,,,,,,,
,,,,,,,,2023-08-16_08h30.50.290,HF_wild_card,2022.2.4,MacIntel,62.5,62a882f2dc6e6b6b98199b8c,64d2fd46c836a06233681665,64dc7b1a1a8a7ce03986474c,,,,,,,ctch,resources/DR.BMP,resources/DG.BMP,Door3,0.312222222,-0.011111111,1,0,0,0.559,optionRight,70,12175,6,7,0,7,0,1,,,,,,,,,,,,,,,,,,,,,,,,,,,,,,,,,,,,,,,
,,,,,,,,2023-08-16_08h30.50.290,HF_wild_card,2022.2.4,MacIntel,62.5,62a882f2dc6e6b6b98199b8c,64d2fd46c836a06233681665,64dc7b1a1a8a7ce03986474c,,,,,,,sngl,resources/Empty.png,resources/DBN.BMP,Door1,0.254444444,-0.042222222,1,0,0,0.61,optionRight,30,12205,6,8,0,8,0,1,,,,,,,,,,,,,,,,,,,,,,,,,,,,,,,,,,,,,,,
,,,,,,,,2023-08-16_08h30.50.290,HF_wild_card,2022.2.4,MacIntel,62.5,62a882f2dc6e6b6b98199b8c,64d2fd46c836a06233681665,64dc7b1a1a8a7ce03986474c,,,,,,,decisionTrl,resources/DBN.BMP,resources/DB.BMP,WildCard_Ex,0.143333333,0.014444444,1,0,0,0.698,optionRight,5,12210,6,9,0,9,0,1,,,,,,,,,,,,,,,,,,,,,,,,,,,,,,,,,,,,,,,
,,,,,,,,2023-08-16_08h30.50.290,HF_wild_card,2022.2.4,MacIntel,62.5,62a882f2dc6e6b6b98199b8c,64d2fd46c836a06233681665,64dc7b1a1a8a7ce03986474c,,,,,,,decisionTrl,resources/DBN.BMP,resources/DR.BMP,Door2,0.312222222,0.004444444,1,0,0,0.728,optionRight,40,12250,6,10,0,10,0,1,,,,,,,,,,,,,,,,,,,,,,,,,,,,,,,,,,,,,,,
,,,,,,,,2023-08-16_08h30.50.290,HF_wild_card,2022.2.4,MacIntel,62.5,62a882f2dc6e6b6b98199b8c,64d2fd46c836a06233681665,64dc7b1a1a8a7ce03986474c,,,,,,,ctch,resources/DG.BMP,resources/DR.BMP,Door3,-0.244444444,-0.017777778,1,0,0,0.828,optionLeft,70,12320,6,11,0,11,0,1,,,,,,,,,,,,,,,,,,,,,,,,,,,,,,,,,,,,,,,
,,,,,,,,2023-08-16_08h30.50.290,HF_wild_card,2022.2.4,MacIntel,62.5,62a882f2dc6e6b6b98199b8c,64d2fd46c836a06233681665,64dc7b1a1a8a7ce03986474c,,,,,,,sngl,resources/Empty.png,resources/DG.BMP,Door3,0.298888889,-0.03,1,0,0,0.677,optionRight,70,12390,6,12,0,12,0,1,,,,,,,,,,,,,,,,,,,,,,,,,,,,,,,,,,,,,,,
,,,,,,,,2023-08-16_08h30.50.290,HF_wild_card,2022.2.4,MacIntel,62.5,62a882f2dc6e6b6b98199b8c,64d2fd46c836a06233681665,64dc7b1a1a8a7ce03986474c,,,,,,,decisionTrl,resources/DP.BMP,resources/DB.BMP,WildCard_Ex,0.384444444,-0.014444444,1,0,0,1.211,optionRight,5,12395,6,13,0,13,0,1,,,,,,,,,,,,,,,,,,,,,,,,,,,,,,,,,,,,,,,
,,,,,,,,2023-08-16_08h30.50.290,HF_wild_card,2022.2.4,MacIntel,62.5,62a882f2dc6e6b6b98199b8c,64d2fd46c836a06233681665,64dc7b1a1a8a7ce03986474c,,,,,,,decisionTrl,resources/DB.BMP,resources/DBN.BMP,WildCard_Ex,-0.172222222,-0.017777778,1,0,0,0.661,optionLeft,5,12400,6,14,0,14,0,1,,,,,,,,,,,,,,,,,,,,,,,,,,,,,,,,,,,,,,,
,,,,,,,,2023-08-16_08h30.50.290,HF_wild_card,2022.2.4,MacIntel,62.5,62a882f2dc6e6b6b98199b8c,64d2fd46c836a06233681665,64dc7b1a1a8a7ce03986474c,,,,,,,decisionTrl,resources/DG.BMP,resources/DB.BMP,Door3,-0.274444444,0.015555556,1,0,0,1.01,optionLeft,70,12470,6,15,0,15,0,1,,,,,,,,,,,,,,,,,,,,,,,,,,,,,,,,,,,,,,,
,,,,,,,,2023-08-16_08h30.50.290,HF_wild_card,2022.2.4,MacIntel,62.5,62a882f2dc6e6b6b98199b8c,64d2fd46c836a06233681665,64dc7b1a1a8a7ce03986474c,,,,,,,decisionTrl,resources/DB.BMP,resources/DR.BMP,WildCard_Ex,-0.195555556,0.045555556,1,0,0,1.192,optionLeft,95,12565,6,16,0,16,0,1,,,,,,,,,,,,,,,,,,,,,,,,,,,,,,,,,,,,,,,
,,,,,,,,2023-08-16_08h30.50.290,HF_wild_card,2022.2.4,MacIntel,62.5,62a882f2dc6e6b6b98199b8c,64d2fd46c836a06233681665,64dc7b1a1a8a7ce03986474c,,,,,,,decisionTrl,resources/DG.BMP,resources/DP.BMP,Door4,0.15,0.023333333,1,0,0,1.126,optionRight,60,12625,6,17,0,17,0,1,,,,,,,,,,,,,,,,,,,,,,,,,,,,,,,,,,,,,,,
,,,,,,,,2023-08-16_08h30.50.290,HF_wild_card,2022.2.4,MacIntel,62.5,62a882f2dc6e6b6b98199b8c,64d2fd46c836a06233681665,64dc7b1a1a8a7ce03986474c,,,,,,,sngl,resources/DG.BMP,resources/Empty.png,Door3,-0.243333333,0.038888889,1,0,0,0.627,optionLeft,70,12695,6,18,0,18,0,1,,,,,,,,,,,,,,,,,,,,,,,,,,,,,,,,,,,,,,,
,,,,,,,,2023-08-16_08h30.50.290,HF_wild_card,2022.2.4,MacIntel,62.5,62a882f2dc6e6b6b98199b8c,64d2fd46c836a06233681665,64dc7b1a1a8a7ce03986474c,,,,,,,decisionTrl,resources/DR.BMP,resources/DBN.BMP,Door1,0.106666667,0.027777778,1,0,0,1.109,optionRight,30,12725,6,19,0,19,0,1,,,,,,,,,,,,,,,,,,,,,,,,,,,,,,,,,,,,,,,
,,,,,,,,2023-08-16_08h30.50.290,HF_wild_card,2022.2.4,MacIntel,62.5,62a882f2dc6e6b6b98199b8c,64d2fd46c836a06233681665,64dc7b1a1a8a7ce03986474c,,,,,,,decisionTrl,resources/DG.BMP,resources/DP.BMP,Door3,-0.144444444,0.028888889,1,0,0,1.496,optionLeft,70,12795,6,20,0,20,0,1,,,,,,,,,,,,,,,,,,,,,,,,,,,,,,,,,,,,,,,
,,,,,,,,2023-08-16_08h30.50.290,HF_wild_card,2022.2.4,MacIntel,62.5,62a882f2dc6e6b6b98199b8c,64d2fd46c836a06233681665,64dc7b1a1a8a7ce03986474c,,,,,,,decisionTrl,resources/DP.BMP,resources/DG.BMP,Door3,0.153333333,0.044444444,1,0,0,0.977,optionRight,70,12865,6,21,0,21,0,1,,,,,,,,,,,,,,,,,,,,,,,,,,,,,,,,,,,,,,,
,,,,,,,,2023-08-16_08h30.50.290,HF_wild_card,2022.2.4,MacIntel,62.5,62a882f2dc6e6b6b98199b8c,64d2fd46c836a06233681665,64dc7b1a1a8a7ce03986474c,,,,,,,ctch,resources/DG.BMP,resources/DR.BMP,Door3,-0.163333333,-0.003333333,1,0,0,1.278,optionLeft,70,12935,6,22,0,22,0,1,,,,,,,,,,,,,,,,,,,,,,,,,,,,,,,,,,,,,,,
,,,,,,,,2023-08-16_08h30.50.290,HF_wild_card,2022.2.4,MacIntel,62.5,62a882f2dc6e6b6b98199b8c,64d2fd46c836a06233681665,64dc7b1a1a8a7ce03986474c,,,,,,,ctch,resources/DP.BMP,resources/DBN.BMP,Door4,-0.162222222,0.002222222,1,0,0,0.911,optionLeft,80,13015,6,23,0,23,0,1,,,,,,,,,,,,,,,,,,,,,,,,,,,,,,,,,,,,,,,
,,,,,,,,2023-08-16_08h30.50.290,HF_wild_card,2022.2.4,MacIntel,62.5,62a882f2dc6e6b6b98199b8c,64d2fd46c836a06233681665,64dc7b1a1a8a7ce03986474c,,,,,,,decisionTrl,resources/DR.BMP,resources/DBN.BMP,Door1,0.192222222,0.013333333,1,0,0,1.195,optionRight,30,13045,6,24,0,24,0,1,,,,,,,,,,,,,,,,,,,,,,,,,,,,,,,,,,,,,,,
,,,,,,,,2023-08-16_08h30.50.290,HF_wild_card,2022.2.4,MacIntel,62.5,62a882f2dc6e6b6b98199b8c,64d2fd46c836a06233681665,64dc7b1a1a8a7ce03986474c,,,,,,,decisionTrl,resources/DG.BMP,resources/DP.BMP,Door3,-0.111111111,-0.011111111,1,0,0,1.627,optionLeft,70,13115,6,25,0,25,0,1,,,,,,,,,,,,,,,,,,,,,,,,,,,,,,,,,,,,,,,
,,,,,,,,2023-08-16_08h30.50.290,HF_wild_card,2022.2.4,MacIntel,62.5,62a882f2dc6e6b6b98199b8c,64d2fd46c836a06233681665,64dc7b1a1a8a7ce03986474c,,,,,,,sngl,resources/Empty.png,resources/DR.BMP,Door2,0.283333333,-0.01,1,0,0,0.712,optionRight,40,13155,6,26,0,26,0,1,,,,,,,,,,,,,,,,,,,,,,,,,,,,,,,,,,,,,,,
,,,,,,,,2023-08-16_08h30.50.290,HF_wild_card,2022.2.4,MacIntel,62.5,62a882f2dc6e6b6b98199b8c,64d2fd46c836a06233681665,64dc7b1a1a8a7ce03986474c,,,,,,,decisionTrl,resources/DBN.BMP,resources/DR.BMP,Door1,-0.376666667,0.015555556,1,0,0,1.094,optionLeft,30,13185,6,27,0,27,0,1,,,,,,,,,,,,,,,,,,,,,,,,,,,,,,,,,,,,,,,
,,,,,,,,2023-08-16_08h30.50.290,HF_wild_card,2022.2.4,MacIntel,62.5,62a882f2dc6e6b6b98199b8c,64d2fd46c836a06233681665,64dc7b1a1a8a7ce03986474c,,,,,,,decisionTrl,resources/DBN.BMP,resources/DR.BMP,Door2,0.211111111,0.054444444,1,0,0,1.494,optionRight,40,13225,6,28,0,28,0,1,,,,,,,,,,,,,,,,,,,,,,,,,,,,,,,,,,,,,,,
,,,,,,,,2023-08-16_08h30.50.290,HF_wild_card,2022.2.4,MacIntel,62.5,62a882f2dc6e6b6b98199b8c,64d2fd46c836a06233681665,64dc7b1a1a8a7ce03986474c,,,,,,,sngl,resources/Empty.png,resources/DB.BMP,WildCard_Ex,0.245555556,-0.006666667,1,0,0,0.744,optionRight,5,13230,6,29,0,29,0,1,,,,,,,,,,,,,,,,,,,,,,,,,,,,,,,,,,,,,,,
,,,,,,,,2023-08-16_08h30.50.290,HF_wild_card,2022.2.4,MacIntel,62.5,62a882f2dc6e6b6b98199b8c,64d2fd46c836a06233681665,64dc7b1a1a8a7ce03986474c,,,,,,,decisionTrl,resources/DP.BMP,resources/DG.BMP,Door3,0.19,0,1,0,0,1.577,optionRight,70,13300,6,30,0,30,0,1,,,,,,,,,,,,,,,,,,,,,,,,,,,,,,,,,,,,,,,
,,,,,,,,2023-08-16_08h30.50.290,HF_wild_card,2022.2.4,MacIntel,62.5,62a882f2dc6e6b6b98199b8c,64d2fd46c836a06233681665,64dc7b1a1a8a7ce03986474c,,,,,,,ctch,resources/DBN.BMP,resources/DP.BMP,Door4,0.151111111,0.026666667,1,0,0,0.728,optionRight,80,13380,6,31,0,31,0,1,,,,,,,,,,,,,,,,,,,,,,,,,,,,,,,,,,,,,,,
,,,,,,,,2023-08-16_08h30.50.290,HF_wild_card,2022.2.4,MacIntel,62.5,62a882f2dc6e6b6b98199b8c,64d2fd46c836a06233681665,64dc7b1a1a8a7ce03986474c,,,,,,,decisionTrl,resources/DP.BMP,resources/DG.BMP,Door3,0.211111111,0.007777778,1,0,0,1.694,optionRight,70,13450,6,32,0,32,0,1,,,,,,,,,,,,,,,,,,,,,,,,,,,,,,,,,,,,,,,
,,,,,,,,2023-08-16_08h30.50.290,HF_wild_card,2022.2.4,MacIntel,62.5,62a882f2dc6e6b6b98199b8c,64d2fd46c836a06233681665,64dc7b1a1a8a7ce03986474c,,,,,,,ctch,resources/DP.BMP,resources/DBN.BMP,Door4,-0.243333333,0.003333333,1,0,0,0.845,optionLeft,80,13530,6,33,0,33,0,1,,,,,,,,,,,,,,,,,,,,,,,,,,,,,,,,,,,,,,,
,,,,,,,,2023-08-16_08h30.50.290,HF_wild_card,2022.2.4,MacIntel,62.5,62a882f2dc6e6b6b98199b8c,64d2fd46c836a06233681665,64dc7b1a1a8a7ce03986474c,,,,,,,decisionTrl,resources/DR.BMP,resources/DBN.BMP,Door1,0.191111111,0.047777778,1,0,0,0.86,optionRight,30,13560,6,34,0,34,0,1,,,,,,,,,,,,,,,,,,,,,,,,,,,,,,,,,,,,,,,
,,,,,,,,2023-08-16_08h30.50.290,HF_wild_card,2022.2.4,MacIntel,62.5,62a882f2dc6e6b6b98199b8c,64d2fd46c836a06233681665,64dc7b1a1a8a7ce03986474c,,,,,,,ctch,resources/DR.BMP,resources/DG.BMP,Door3,0.234444444,-0.002222222,1,0,0,1.312,optionRight,70,13630,6,35,0,35,0,1,,,,,,,,,,,,,,,,,,,,,,,,,,,,,,,,,,,,,,,
,,,,,,,,2023-08-16_08h30.50.290,HF_wild_card,2022.2.4,MacIntel,62.5,62a882f2dc6e6b6b98199b8c,64d2fd46c836a06233681665,64dc7b1a1a8a7ce03986474c,,,,,,,decisionTrl,resources/DP.BMP,resources/DG.BMP,Door3,0.186666667,-0.004444444,1,0,0,0.894,optionRight,70,13700,6,36,0,36,0,1,,,,,,,,,,,,,,,,,,,,,,,,,,,,,,,,,,,,,,,
,,,,,,,,2023-08-16_08h30.50.290,HF_wild_card,2022.2.4,MacIntel,62.5,62a882f2dc6e6b6b98199b8c,64d2fd46c836a06233681665,64dc7b1a1a8a7ce03986474c,,,,,,,sngl,resources/Empty.png,resources/DP.BMP,Door4,0.285555556,-0.003333333,1,0,0,0.878,optionRight,80,13780,6,37,0,37,0,1,,,,,,,,,,,,,,,,,,,,,,,,,,,,,,,,,,,,,,,
,,,,,,,,2023-08-16_08h30.50.290,HF_wild_card,2022.2.4,MacIntel,62.5,62a882f2dc6e6b6b98199b8c,64d2fd46c836a06233681665,64dc7b1a1a8a7ce03986474c,,,,,,,sngl,resources/DP.BMP,resources/Empty.png,Door4,-0.203333333,0.008888889,1,0,0,1.128,optionLeft,60,13840,6,38,0,38,0,1,,,,,,,,,,,,,,,,,,,,,,,,,,,,,,,,,,,,,,,
,,,,,,,,2023-08-16_08h30.50.290,HF_wild_card,2022.2.4,MacIntel,62.5,62a882f2dc6e6b6b98199b8c,64d2fd46c836a06233681665,64dc7b1a1a8a7ce03986474c,,,,,,,sngl,resources/DB.BMP,resources/Empty.png,WildCard_Ex,-0.172222222,-0.043333333,1,0,0,0.745,optionLeft,95,13935,6,39,0,39,0,1,,,,,,,,,,,,,,,,,,,,,,,,,,,,,,,,,,,,,,,
,,,,,,,,2023-08-16_08h30.50.290,HF_wild_card,2022.2.4,MacIntel,62.5,62a882f2dc6e6b6b98199b8c,64d2fd46c836a06233681665,64dc7b1a1a8a7ce03986474c,,,,,,,decisionTrl,resources/DR.BMP,resources/DB.BMP,WildCard_Ex,0.23,-0.036666667,1,0,0,1.426,optionRight,95,14030,6,40,0,40,0,1,,,,,,,,,,,,,,,,,,,,,,,,,,,,,,,,,,,,,,,
,,,,,,,,2023-08-16_08h30.50.290,HF_wild_card,2022.2.4,MacIntel,62.5,62a882f2dc6e6b6b98199b8c,64d2fd46c836a06233681665,64dc7b1a1a8a7ce03986474c,,,,,,,decisionTrl,resources/DBN.BMP,resources/DR.BMP,Door1,-0.27,0.008888889,1,0,0,1.127,optionLeft,30,14060,6,41,0,41,0,1,,,,,,,,,,,,,,,,,,,,,,,,,,,,,,,,,,,,,,,
,,,,,,,,2023-08-16_08h30.50.290,HF_wild_card,2022.2.4,MacIntel,62.5,62a882f2dc6e6b6b98199b8c,64d2fd46c836a06233681665,64dc7b1a1a8a7ce03986474c,,,,,,,decisionTrl,resources/DG.BMP,resources/DP.BMP,Door4,0.138888889,-0.011111111,1,0,0,1.062,optionRight,80,14140,6,42,0,42,0,1,,,,,,,,,,,,,,,,,,,,,,,,,,,,,,,,,,,,,,,
,,,,,,,,2023-08-16_08h30.50.290,HF_wild_card,2022.2.4,MacIntel,62.5,62a882f2dc6e6b6b98199b8c,64d2fd46c836a06233681665,64dc7b1a1a8a7ce03986474c,,,,,,,decisionTrl,resources/DB.BMP,resources/DP.BMP,Door4,0.203333333,0.013333333,1,0,0,0.711,optionRight,60,14200,6,43,0,43,0,1,,,,,,,,,,,,,,,,,,,,,,,,,,,,,,,,,,,,,,,
,,,,,,,,2023-08-16_08h30.50.290,HF_wild_card,2022.2.4,MacIntel,62.5,62a882f2dc6e6b6b98199b8c,64d2fd46c836a06233681665,64dc7b1a1a8a7ce03986474c,,,,,,,,,,,,,,,,,,,,,,,,,,5,0,5,0,1,,,,,,,,,,,,,,,,,,,,,,,,,,,,,,,,,,
,,,,,,,,2023-08-16_08h30.50.290,HF_wild_card,2022.2.4,MacIntel,62.5,62a882f2dc6e6b6b98199b8c,64d2fd46c836a06233681665,64dc7b1a1a8a7ce03986474c,,,,,,,decisionTrl,resources/DP.BMP,resources/DG.BMP,Door3,0.211111111,-0.037777778,1,0,0,1.072,optionRight,70,14270,7,0,0,0,0,1,,,,,,,,,,,,,,,,,,,,,,,,,,,,,,,,,,,,,,,
,,,,,,,,2023-08-16_08h30.50.290,HF_wild_card,2022.2.4,MacIntel,62.5,62a882f2dc6e6b6b98199b8c,64d2fd46c836a06233681665,64dc7b1a1a8a7ce03986474c,,,,,,,ctch,resources/DBN.BMP,resources/DP.BMP,Door4,0.19,-0.026666667,1,0,0,0.73,optionRight,60,14330,7,1,0,1,0,1,,,,,,,,,,,,,,,,,,,,,,,,,,,,,,,,,,,,,,,
,,,,,,,,2023-08-16_08h30.50.290,HF_wild_card,2022.2.4,MacIntel,62.5,62a882f2dc6e6b6b98199b8c,64d2fd46c836a06233681665,64dc7b1a1a8a7ce03986474c,,,,,,,decisionTrl,resources/DP.BMP,resources/DG.BMP,Door3,0.228888889,-0.023333333,1,0,0,1.048,optionRight,70,14400,7,2,0,2,0,1,,,,,,,,,,,,,,,,,,,,,,,,,,,,,,,,,,,,,,,
,,,,,,,,2023-08-16_08h30.50.290,HF_wild_card,2022.2.4,MacIntel,62.5,62a882f2dc6e6b6b98199b8c,64d2fd46c836a06233681665,64dc7b1a1a8a7ce03986474c,,,,,,,decisionTrl,resources/DBN.BMP,resources/DR.BMP,Door1,-0.24,0.037777778,1,0,0,1.049,optionLeft,30,14430,7,3,0,3,0,1,,,,,,,,,,,,,,,,,,,,,,,,,,,,,,,,,,,,,,,
,,,,,,,,2023-08-16_08h30.50.290,HF_wild_card,2022.2.4,MacIntel,62.5,62a882f2dc6e6b6b98199b8c,64d2fd46c836a06233681665,64dc7b1a1a8a7ce03986474c,,,,,,,decisionTrl,resources/DR.BMP,resources/DBN.BMP,Door1,0.131111111,0.011111111,1,0,0,1.163,optionRight,30,14460,7,4,0,4,0,1,,,,,,,,,,,,,,,,,,,,,,,,,,,,,,,,,,,,,,,
,,,,,,,,2023-08-16_08h30.50.290,HF_wild_card,2022.2.4,MacIntel,62.5,62a882f2dc6e6b6b98199b8c,64d2fd46c836a06233681665,64dc7b1a1a8a7ce03986474c,,,,,,,decisionTrl,resources/DBN.BMP,resources/DR.BMP,Door2,0.214444444,0.008888889,1,0,0,1.332,optionRight,40,14500,7,5,0,5,0,1,,,,,,,,,,,,,,,,,,,,,,,,,,,,,,,,,,,,,,,
,,,,,,,,2023-08-16_08h30.50.290,HF_wild_card,2022.2.4,MacIntel,62.5,62a882f2dc6e6b6b98199b8c,64d2fd46c836a06233681665,64dc7b1a1a8a7ce03986474c,,,,,,,decisionTrl,resources/DBN.BMP,resources/DR.BMP,Door2,0.25,0.004444444,1,0,0,0.748,optionRight,20,14520,7,6,0,6,0,1,,,,,,,,,,,,,,,,,,,,,,,,,,,,,,,,,,,,,,,
,,,,,,,,2023-08-16_08h30.50.290,HF_wild_card,2022.2.4,MacIntel,62.5,62a882f2dc6e6b6b98199b8c,64d2fd46c836a06233681665,64dc7b1a1a8a7ce03986474c,,,,,,,decisionTrl,resources/DG.BMP,resources/DP.BMP,Door3,-0.268888889,0.034444444,1,0,0,1.08,optionLeft,70,14590,7,7,0,7,0,1,,,,,,,,,,,,,,,,,,,,,,,,,,,,,,,,,,,,,,,
,,,,,,,,2023-08-16_08h30.50.290,HF_wild_card,2022.2.4,MacIntel,62.5,62a882f2dc6e6b6b98199b8c,64d2fd46c836a06233681665,64dc7b1a1a8a7ce03986474c,,,,,,,ctch,resources/DBN.BMP,resources/DP.BMP,Door4,0.232222222,0.003333333,1,0,0,0.815,optionRight,60,14650,7,8,0,8,0,1,,,,,,,,,,,,,,,,,,,,,,,,,,,,,,,,,,,,,,,
,,,,,,,,2023-08-16_08h30.50.290,HF_wild_card,2022.2.4,MacIntel,62.5,62a882f2dc6e6b6b98199b8c,64d2fd46c836a06233681665,64dc7b1a1a8a7ce03986474c,,,,,,,ctch,resources/DR.BMP,resources/DG.BMP,Door3,0.133333333,-0.011111111,1,0,0,1.149,optionRight,70,14720,7,9,0,9,0,1,,,,,,,,,,,,,,,,,,,,,,,,,,,,,,,,,,,,,,,
,,,,,,,,2023-08-16_08h30.50.290,HF_wild_card,2022.2.4,MacIntel,62.5,62a882f2dc6e6b6b98199b8c,64d2fd46c836a06233681665,64dc7b1a1a8a7ce03986474c,,,,,,,decisionTrl,resources/DP.BMP,resources/DG.BMP,Door3,0.037777778,0.056666667,1,0,0,1.348,optionRight,70,14790,7,10,0,10,0,1,,,,,,,,,,,,,,,,,,,,,,,,,,,,,,,,,,,,,,,
,,,,,,,,2023-08-16_08h30.50.290,HF_wild_card,2022.2.4,MacIntel,62.5,62a882f2dc6e6b6b98199b8c,64d2fd46c836a06233681665,64dc7b1a1a8a7ce03986474c,,,,,,,decisionTrl,resources/DR.BMP,resources/DBN.BMP,Door1,0.264444444,0.06,1,0,0,1.899,optionRight,30,14820,7,11,0,11,0,1,,,,,,,,,,,,,,,,,,,,,,,,,,,,,,,,,,,,,,,
,,,,,,,,2023-08-16_08h30.50.290,HF_wild_card,2022.2.4,MacIntel,62.5,62a882f2dc6e6b6b98199b8c,64d2fd46c836a06233681665,64dc7b1a1a8a7ce03986474c,,,,,,,decisionTrl,resources/DG.BMP,resources/DP.BMP,Door3,-0.194444444,0.038888889,1,0,0,1.668,optionLeft,70,14890,7,12,0,12,0,1,,,,,,,,,,,,,,,,,,,,,,,,,,,,,,,,,,,,,,,
,,,,,,,,2023-08-16_08h30.50.290,HF_wild_card,2022.2.4,MacIntel,62.5,62a882f2dc6e6b6b98199b8c,64d2fd46c836a06233681665,64dc7b1a1a8a7ce03986474c,,,,,,,decisionTrl,resources/DR.BMP,resources/DBN.BMP,Door1,0.145555556,0.054444444,1,0,0,1.015,optionRight,30,14920,7,13,0,13,0,1,,,,,,,,,,,,,,,,,,,,,,,,,,,,,,,,,,,,,,,
,,,,,,,,2023-08-16_08h30.50.290,HF_wild_card,2022.2.4,MacIntel,62.5,62a882f2dc6e6b6b98199b8c,64d2fd46c836a06233681665,64dc7b1a1a8a7ce03986474c,,,,,,,decisionTrl,resources/DG.BMP,resources/DP.BMP,Door3,-0.113333333,0.023333333,1,0,0,1.815,optionLeft,70,14990,7,14,0,14,0,1,,,,,,,,,,,,,,,,,,,,,,,,,,,,,,,,,,,,,,,
,,,,,,,,2023-08-16_08h30.50.290,HF_wild_card,2022.2.4,MacIntel,62.5,62a882f2dc6e6b6b98199b8c,64d2fd46c836a06233681665,64dc7b1a1a8a7ce03986474c,,,,,,,decisionTrl,resources/DR.BMP,resources/DBN.BMP,Door1,0.216666667,-0.025555556,1,0,0,0.848,optionRight,30,15020,7,15,0,15,0,1,,,,,,,,,,,,,,,,,,,,,,,,,,,,,,,,,,,,,,,
,,,,,,,,2023-08-16_08h30.50.290,HF_wild_card,2022.2.4,MacIntel,62.5,62a882f2dc6e6b6b98199b8c,64d2fd46c836a06233681665,64dc7b1a1a8a7ce03986474c,,,,,,,decisionTrl,resources/DR.BMP,resources/DBN.BMP,Door2,-0.15,0.024444444,1,0,0,0.815,optionLeft,20,15040,7,16,0,16,0,1,,,,,,,,,,,,,,,,,,,,,,,,,,,,,,,,,,,,,,,
,,,,,,,,2023-08-16_08h30.50.290,HF_wild_card,2022.2.4,MacIntel,62.5,62a882f2dc6e6b6b98199b8c,64d2fd46c836a06233681665,64dc7b1a1a8a7ce03986474c,,,,,,,ctch,resources/DG.BMP,resources/DR.BMP,Door3,-0.321111111,0.096666667,1,0,0,0.949,optionLeft,70,15110,7,17,0,17,0,1,,,,,,,,,,,,,,,,,,,,,,,,,,,,,,,,,,,,,,,
,,,,,,,,2023-08-16_08h30.50.290,HF_wild_card,2022.2.4,MacIntel,62.5,62a882f2dc6e6b6b98199b8c,64d2fd46c836a06233681665,64dc7b1a1a8a7ce03986474c,,,,,,,ctch,resources/DP.BMP,resources/DBN.BMP,Door4,-0.305555556,0.057777778,1,0,0,0.782,optionLeft,60,15170,7,18,0,18,0,1,,,,,,,,,,,,,,,,,,,,,,,,,,,,,,,,,,,,,,,
,,,,,,,,2023-08-16_08h30.50.290,HF_wild_card,2022.2.4,MacIntel,62.5,62a882f2dc6e6b6b98199b8c,64d2fd46c836a06233681665,64dc7b1a1a8a7ce03986474c,,,,,,,ctch,resources/DG.BMP,resources/DR.BMP,Door3,-0.24,0.042222222,1,0,0,0.731,optionLeft,70,15240,7,19,0,19,0,1,,,,,,,,,,,,,,,,,,,,,,,,,,,,,,,,,,,,,,,
,,,,,,,,2023-08-16_08h30.50.290,HF_wild_card,2022.2.4,MacIntel,62.5,62a882f2dc6e6b6b98199b8c,64d2fd46c836a06233681665,64dc7b1a1a8a7ce03986474c,,,,,,,decisionTrl,resources/DG.BMP,resources/DP.BMP,Door3,-0.221111111,0.046666667,1,0,0,1.15,optionLeft,70,15310,7,20,0,20,0,1,,,,,,,,,,,,,,,,,,,,,,,,,,,,,,,,,,,,,,,
,,,,,,,,2023-08-16_08h30.50.290,HF_wild_card,2022.2.4,MacIntel,62.5,62a882f2dc6e6b6b98199b8c,64d2fd46c836a06233681665,64dc7b1a1a8a7ce03986474c,,,,,,,decisionTrl,resources/DBN.BMP,resources/DR.BMP,Door1,-0.205555556,0.05,1,0,0,0.932,optionLeft,30,15340,7,21,0,21,0,1,,,,,,,,,,,,,,,,,,,,,,,,,,,,,,,,,,,,,,,
,,,,,,,,2023-08-16_08h30.50.290,HF_wild_card,2022.2.4,MacIntel,62.5,62a882f2dc6e6b6b98199b8c,64d2fd46c836a06233681665,64dc7b1a1a8a7ce03986474c,,,,,,,ctch,resources/DR.BMP,resources/DG.BMP,Door3,0.135555556,0.046666667,1,0,0,0.948,optionRight,70,15410,7,22,0,22,0,1,,,,,,,,,,,,,,,,,,,,,,,,,,,,,,,,,,,,,,,
,,,,,,,,2023-08-16_08h30.50.290,HF_wild_card,2022.2.4,MacIntel,62.5,62a882f2dc6e6b6b98199b8c,64d2fd46c836a06233681665,64dc7b1a1a8a7ce03986474c,,,,,,,decisionTrl,resources/DR.BMP,resources/DBN.BMP,Door1,0.097777778,0.066666667,1,0,0,0.916,optionRight,30,15440,7,23,0,23,0,1,,,,,,,,,,,,,,,,,,,,,,,,,,,,,,,,,,,,,,,
,,,,,,,,2023-08-16_08h30.50.290,HF_wild_card,2022.2.4,MacIntel,62.5,62a882f2dc6e6b6b98199b8c,64d2fd46c836a06233681665,64dc7b1a1a8a7ce03986474c,,,,,,,decisionTrl,resources/DBN.BMP,resources/DR.BMP,Door1,-0.168888889,0.077777778,1,0,0,1.082,optionLeft,30,15470,7,24,0,24,0,1,,,,,,,,,,,,,,,,,,,,,,,,,,,,,,,,,,,,,,,
,,,,,,,,2023-08-16_08h30.50.290,HF_wild_card,2022.2.4,MacIntel,62.5,62a882f2dc6e6b6b98199b8c,64d2fd46c836a06233681665,64dc7b1a1a8a7ce03986474c,,,,,,,decisionTrl,resources/DG.BMP,resources/DP.BMP,Door4,0.238888889,0.006666667,1,0,0,1.181,optionRight,60,15530,7,25,0,25,0,1,,,,,,,,,,,,,,,,,,,,,,,,,,,,,,,,,,,,,,,
,,,,,,,,2023-08-16_08h30.50.290,HF_wild_card,2022.2.4,MacIntel,62.5,62a882f2dc6e6b6b98199b8c,64d2fd46c836a06233681665,64dc7b1a1a8a7ce03986474c,,,,,,,ctch,resources/DR.BMP,resources/DG.BMP,Door3,0.268888889,0.034444444,1,0,0,1.048,optionRight,70,15600,7,26,0,26,0,1,,,,,,,,,,,,,,,,,,,,,,,,,,,,,,,,,,,,,,,
,,,,,,,,2023-08-16_08h30.50.290,HF_wild_card,2022.2.4,MacIntel,62.5,62a882f2dc6e6b6b98199b8c,64d2fd46c836a06233681665,64dc7b1a1a8a7ce03986474c,,,,,,,decisionTrl,resources/DP.BMP,resources/DG.BMP,Door4,-0.245555556,-0.005555556,1,0,0,0.899,optionLeft,80,15680,7,27,0,27,0,1,,,,,,,,,,,,,,,,,,,,,,,,,,,,,,,,,,,,,,,
,,,,,,,,2023-08-16_08h30.50.290,HF_wild_card,2022.2.4,MacIntel,62.5,62a882f2dc6e6b6b98199b8c,64d2fd46c836a06233681665,64dc7b1a1a8a7ce03986474c,,,,,,,ctch,resources/DP.BMP,resources/DBN.BMP,Door4,-0.244444444,0.064444444,1,0,0,0.749,optionLeft,80,15760,7,28,0,28,0,1,,,,,,,,,,,,,,,,,,,,,,,,,,,,,,,,,,,,,,,
,,,,,,,,2023-08-16_08h30.50.290,HF_wild_card,2022.2.4,MacIntel,62.5,62a882f2dc6e6b6b98199b8c,64d2fd46c836a06233681665,64dc7b1a1a8a7ce03986474c,,,,,,,ctch,resources/DG.BMP,resources/DR.BMP,Door3,-0.26,0.053333333,1,0,0,0.915,optionLeft,70,15830,7,29,0,29,0,1,,,,,,,,,,,,,,,,,,,,,,,,,,,,,,,,,,,,,,,
,,,,,,,,2023-08-16_08h30.50.290,HF_wild_card,2022.2.4,MacIntel,62.5,62a882f2dc6e6b6b98199b8c,64d2fd46c836a06233681665,64dc7b1a1a8a7ce03986474c,,,,,,,ctch,resources/DBN.BMP,resources/DP.BMP,Door4,0.218888889,0.007777778,1,0,0,0.798,optionRight,60,15890,7,30,0,30,0,1,,,,,,,,,,,,,,,,,,,,,,,,,,,,,,,,,,,,,,,
,,,,,,,,2023-08-16_08h30.50.290,HF_wild_card,2022.2.4,MacIntel,62.5,62a882f2dc6e6b6b98199b8c,64d2fd46c836a06233681665,64dc7b1a1a8a7ce03986474c,,,,,,,decisionTrl,resources/DG.BMP,resources/DP.BMP,Door3,-0.207777778,0.013333333,1,0,0,1.181,optionLeft,70,15960,7,31,0,31,0,1,,,,,,,,,,,,,,,,,,,,,,,,,,,,,,,,,,,,,,,
,,,,,,,,2023-08-16_08h30.50.290,HF_wild_card,2022.2.4,MacIntel,62.5,62a882f2dc6e6b6b98199b8c,64d2fd46c836a06233681665,64dc7b1a1a8a7ce03986474c,,,,,,,decisionTrl,resources/DP.BMP,resources/DG.BMP,Door3,0.253333333,0.026666667,1,0,0,0.647,optionRight,70,16030,7,32,0,32,0,1,,,,,,,,,,,,,,,,,,,,,,,,,,,,,,,,,,,,,,,
,,,,,,,,2023-08-16_08h30.50.290,HF_wild_card,2022.2.4,MacIntel,62.5,62a882f2dc6e6b6b98199b8c,64d2fd46c836a06233681665,64dc7b1a1a8a7ce03986474c,,,,,,,decisionTrl,resources/DBN.BMP,resources/DR.BMP,Door1,-0.202222222,0.068888889,1,0,0,3.532,optionLeft,30,16060,7,33,0,33,0,1,,,,,,,,,,,,,,,,,,,,,,,,,,,,,,,,,,,,,,,
,,,,,,,,2023-08-16_08h30.50.290,HF_wild_card,2022.2.4,MacIntel,62.5,62a882f2dc6e6b6b98199b8c,64d2fd46c836a06233681665,64dc7b1a1a8a7ce03986474c,,,,,,,ctch,resources/DP.BMP,resources/DBN.BMP,Door4,-0.253333333,0.041111111,1,0,0,0.765,optionLeft,80,16140,7,34,0,34,0,1,,,,,,,,,,,,,,,,,,,,,,,,,,,,,,,,,,,,,,,
,,,,,,,,2023-08-16_08h30.50.290,HF_wild_card,2022.2.4,MacIntel,62.5,62a882f2dc6e6b6b98199b8c,64d2fd46c836a06233681665,64dc7b1a1a8a7ce03986474c,,,,,,,decisionTrl,resources/DP.BMP,resources/DG.BMP,Door4,-0.126666667,0.023333333,1,0,0,1.199,optionLeft,60,16200,7,35,0,35,0,1,,,,,,,,,,,,,,,,,,,,,,,,,,,,,,,,,,,,,,,
,,,,,,,,2023-08-16_08h30.50.290,HF_wild_card,2022.2.4,MacIntel,62.5,62a882f2dc6e6b6b98199b8c,64d2fd46c836a06233681665,64dc7b1a1a8a7ce03986474c,,,,,,,,,,,,,,,,,,,,,,,,,,6,0,6,0,1,,,,,,,,,,,,,,,,,,,,,,,,,,,,,,,,,,
,,,,,,,,2023-08-16_08h30.50.290,HF_wild_card,2022.2.4,MacIntel,62.5,62a882f2dc6e6b6b98199b8c,64d2fd46c836a06233681665,64dc7b1a1a8a7ce03986474c,,,,,,,,,,,,,,,,,,,,,,,,,,,,,,,4,,,,,,,,,,,,,,,,,,,,,,,,,,,,,,,,,
,,,,,,,,2023-08-16_08h30.50.290,HF_wild_card,2022.2.4,MacIntel,62.5,62a882f2dc6e6b6b98199b8c,64d2fd46c836a06233681665,64dc7b1a1a8a7ce03986474c,,,,,,,,,,,,,,,,,,,,,,,,,,,,,,,,,,,,,,,,,,,,,,,,,,,,,,,,,,,,,,,,
,,,,,,,,2023-08-16_08h30.50.290,HF_wild_card,2022.2.4,MacIntel,62.5,62a882f2dc6e6b6b98199b8c,64d2fd46c836a06233681665,64dc7b1a1a8a7ce03986474c,,,,,,,,,,,,,,,,,,,,,,,,,,,,,,,,60,WC_nonExtreme,resources/DY.BMP,0,0,0,0,1,,,,,,,,,,,,,,,,,,,,,,,,,
,,,,,,,,2023-08-16_08h30.50.290,HF_wild_card,2022.2.4,MacIntel,62.5,62a882f2dc6e6b6b98199b8c,64d2fd46c836a06233681665,64dc7b1a1a8a7ce03986474c,,,,,,,,,,,,,,,,,,,,,,,,,,,,,,,,80,Door4,resources/DP.BMP,1,0,1,0,1,,,,,,,,,,,,,,,,,,,,,,,,,
,,,,,,,,2023-08-16_08h30.50.290,HF_wild_card,2022.2.4,MacIntel,62.5,62a882f2dc6e6b6b98199b8c,64d2fd46c836a06233681665,64dc7b1a1a8a7ce03986474c,,,,,,,,,,,,,,,,,,,,,,,,,,,,,,,,95,WC_extreme,resources/DB.BMP,2,0,2,0,1,,,,,,,,,,,,,,,,,,,,,,,,,
,,,,,,,,2023-08-16_08h30.50.290,HF_wild_card,2022.2.4,MacIntel,62.5,62a882f2dc6e6b6b98199b8c,64d2fd46c836a06233681665,64dc7b1a1a8a7ce03986474c,,,,,,,,,,,,,,,,,,,,,,,,,,,,,,,,70,Door3,resources/DG.BMP,3,0,3,0,1,,,,,,,,,,,,,,,,,,,,,,,,,
,,,,,,,,2023-08-16_08h30.50.290,HF_wild_card,2022.2.4,MacIntel,62.5,62a882f2dc6e6b6b98199b8c,64d2fd46c836a06233681665,64dc7b1a1a8a7ce03986474c,,,,,,,,,,,,,,,,,,,,,,,,,,,,,,,,40,Door1,resources/DBN.BMP,4,0,4,0,1,,,,,,,,,,,,,,,,,,,,,,,,,
,,,,,,,,2023-08-16_08h30.50.290,HF_wild_card,2022.2.4,MacIntel,62.5,62a882f2dc6e6b6b98199b8c,64d2fd46c836a06233681665,64dc7b1a1a8a7ce03986474c,,,,,,,,,,,,,,,,,,,,,,,,,,,,,,,,20,Door2,resources/DR.BMP,5,0,5,0,1,,,,,,,,,,,,,,,,,,,,,,,,,
,,,,,,,,2023-08-16_08h30.50.290,HF_wild_card,2022.2.4,MacIntel,62.5,62a882f2dc6e6b6b98199b8c,64d2fd46c836a06233681665,64dc7b1a1a8a7ce03986474c,,,,,,,,,,,,,,,,,,,,,,,,,,,,,,,,,,,,,,,,,,,,,,,,,,,,,,,,,,,,,,,,
,,,,,,,,2023-08-16_08h30.50.290,HF_wild_card,2022.2.4,MacIntel,62.5,62a882f2dc6e6b6b98199b8c,64d2fd46c836a06233681665,64dc7b1a1a8a7ce03986474c,,,,,,,,,,,,,,,,,,,,,,,,,,,,,,,,,,,,,,,,0,0,0,0,1,,,,,,,,,,,,,,,,,,,,
,,,,,,,,2023-08-16_08h30.50.290,HF_wild_card,2022.2.4,MacIntel,62.5,62a882f2dc6e6b6b98199b8c,64d2fd46c836a06233681665,64dc7b1a1a8a7ce03986474c,,,,,,,,,,,,,,,,,,,,,,,,,,,,,,,,,,,,,,,,1,0,1,0,1,,,,,,,,,,,,,,,,,,,,
,,,,,,,,2023-08-16_08h30.50.290,HF_wild_card,2022.2.4,MacIntel,62.5,62a882f2dc6e6b6b98199b8c,64d2fd46c836a06233681665,64dc7b1a1a8a7ce03986474c,,,,,,,,,,,,,,,,,,,,,,,,,,,,,,,,,,,,,,,,,,,,,-0.274444444,-0.393333333,1,0,0,yes,50%,50%,Door4,resources/DP.BMP,0,0,0,0,1,,,,,
,,,,,,,,2023-08-16_08h30.50.290,HF_wild_card,2022.2.4,MacIntel,62.5,62a882f2dc6e6b6b98199b8c,64d2fd46c836a06233681665,64dc7b1a1a8a7ce03986474c,,,,,,,,,,,,,,,,,,,,,,,,,,,,,,,,,,,,,,,,,,,,,,,,,,,,,,,,,,,,0,0,0,0,1
,,,,,,,,2023-08-16_08h30.50.290,HF_wild_card,2022.2.4,MacIntel,62.5,62a882f2dc6e6b6b98199b8c,64d2fd46c836a06233681665,64dc7b1a1a8a7ce03986474c,,,,,,,,,,,,,,,,,,,,,,,,,,,,,,,,,,,,,,,,0,0,0,0,1,,,,,,,,,,,,,,,,,,,,
,,,,,,,,2023-08-16_08h30.50.290,HF_wild_card,2022.2.4,MacIntel,62.5,62a882f2dc6e6b6b98199b8c,64d2fd46c836a06233681665,64dc7b1a1a8a7ce03986474c,,,,,,,,,,,,,,,,,,,,,,,,,,,,,,,,,,,,,,,,1,0,1,0,1,,,,,,,,,,,,,,,,,,,,
,,,,,,,,2023-08-16_08h30.50.290,HF_wild_card,2022.2.4,MacIntel,62.5,62a882f2dc6e6b6b98199b8c,64d2fd46c836a06233681665,64dc7b1a1a8a7ce03986474c,,,,,,,,,,,,,,,,,,,,,,,,,,,,,,,,,,,,,,,,,,,,,-0.276666667,-0.401111111,1,0,0,yes,30%,70%,WC_nonExtreme,resources/DY.BMP,0,0,0,0,1,,,,,
,,,,,,,,2023-08-16_08h30.50.290,HF_wild_card,2022.2.4,MacIntel,62.5,62a882f2dc6e6b6b98199b8c,64d2fd46c836a06233681665,64dc7b1a1a8a7ce03986474c,,,,,,,,,,,,,,,,,,,,,,,,,,,,,,,,,,,,,,,,,,,,,,,,,,,,,,,,,,,,1,0,1,0,1
,,,,,,,,2023-08-16_08h30.50.290,HF_wild_card,2022.2.4,MacIntel,62.5,62a882f2dc6e6b6b98199b8c,64d2fd46c836a06233681665,64dc7b1a1a8a7ce03986474c,,,,,,,,,,,,,,,,,,,,,,,,,,,,,,,,,,,,,,,,0,0,0,0,1,,,,,,,,,,,,,,,,,,,,
