Condition,Low fixed image (Door1),Low risky image (Door2),High fixed image (Door3),High risky image (Door4),NonExtreme Wild Card 1,NonExtreme Wild Card 2,,date,expName,psychopyVersion,OS,frameRate,PROLIFIC_PID,STUDY_ID,SESSION_ID,mouse_2.x,mouse_2.y,mouse_2.leftButton,mouse_2.midButton,mouse_2.rightButton,mouse_2.clicked_name,Trial Type,Left Option Image,Right Option Image,Chosen Door,mouse.x,mouse.y,mouse.leftButton,mouse.midButton,mouse.rightButton,mouse.time,mouse.clicked_name,Feedback,Cumulative Reward,Block,trial.thisRepN,trial.thisTrialN,trial.thisN,trial.thisIndex,trial.ran,blocks.thisRepN,blocks.thisTrialN,blocks.thisN,blocks.thisIndex,blocks.ran,Money conversion,First Outcome Reported,Shown Door (First Outcome),Displayed Image (First Outcome),outcomes.thisRepN,outcomes.thisTrialN,outcomes.thisN,outcomes.thisIndex,outcomes.ran,judgments.thisRepN,judgments.thisTrialN,judgments.thisN,judgments.thisIndex,judgments.ran,freqMouse.x,freqMouse.y,freqMouse.leftButton,freqMouse.midButton,freqMouse.rightButton,freqMouse.clicked_name,FQJ for first outcome,FQJ for second outcome,Shown Door,Displayed Image,trials.thisRepN,trials.thisTrialN,trials.thisN,trials.thisIndex,trials.ran,judgBlock.thisRepN,judgBlock.thisTrialN,judgBlock.thisN,judgBlock.thisIndex,judgBlock.ran
2,resources/DB.BMP,resources/DG.BMP,resources/DBN.BMP,resources/DR.BMP,resources/DP.BMP,resources/DY.BMP,5f3172eea47594017768b6f5,2023-08-03_06h03.58.654,HF_wild_card,2022.2.4,MacIntel,60.0024001,5f3172eea47594017768b6f5,64b543b0a84ad6ab4a25b86a,64cb352a2290629906618e39,,,,,,,,,,,,,,,,,,,,,,,,,,,,,,,,,,,,,,,,,,,,,,,,,,,,,,,,,,,,,,,,
,,,,,,,5f3172eea47594017768b6f5,2023-08-03_06h03.58.654,HF_wild_card,2022.2.4,MacIntel,60.0024001,5f3172eea47594017768b6f5,64b543b0a84ad6ab4a25b86a,64cb352a2290629906618e39,0.004524878,-0.421244899,1,0,0,agree,,,,,,,,,,,,,,,,,,,,,,,,,,,,,,,,,,,,,,,,,,,,,,,,,,,,,,,,,,
,,,,,,,5f3172eea47594017768b6f5,2023-08-03_06h03.58.654,HF_wild_card,2022.2.4,MacIntel,60.0024001,5f3172eea47594017768b6f5,64b543b0a84ad6ab4a25b86a,64cb352a2290629906618e39,,,,,,,,,,,,,,,,,,,,,,,,,,,,,,,,,,,,,,,,,,,,,,,,,,,,,,,,,,,,,,,,
,,,,,,,5f3172eea47594017768b6f5,2023-08-03_06h03.58.654,HF_wild_card,2022.2.4,MacIntel,60.0024001,5f3172eea47594017768b6f5,64b543b0a84ad6ab4a25b86a,64cb352a2290629906618e39,,,,,,,ctch,resources/DBN.BMP,resources/DG.BMP,Door3,-0.241097896,-0.139413325,1,0,0,3.3695,optionLeft,70,70,1,0,0,0,0,1,,,,,,,,,,,,,,,,,,,,,,,,,,,,,,,,,,,,,,,
,,,,,,,5f3172eea47594017768b6f5,2023-08-03_06h03.58.654,HF_wild_card,2022.2.4,MacIntel,60.0024001,5f3172eea47594017768b6f5,64b543b0a84ad6ab4a25b86a,64cb352a2290629906618e39,,,,,,,decisionTrl,resources/DB.BMP,resources/DG.BMP,Door2,0.48584511,-0.063187939,1,0,0,2.7617,optionRight,40,110,1,1,0,1,0,1,,,,,,,,,,,,,,,,,,,,,,,,,,,,,,,,,,,,,,,
,,,,,,,5f3172eea47594017768b6f5,2023-08-03_06h03.58.654,HF_wild_card,2022.2.4,MacIntel,60.0024001,5f3172eea47594017768b6f5,64b543b0a84ad6ab4a25b86a,64cb352a2290629906618e39,,,,,,,ctch,resources/DR.BMP,resources/DB.BMP,Door4,-0.372827703,0.044321774,1,0,0,1.1629,optionLeft,80,190,1,2,0,2,0,1,,,,,,,,,,,,,,,,,,,,,,,,,,,,,,,,,,,,,,,
,,,,,,,5f3172eea47594017768b6f5,2023-08-03_06h03.58.654,HF_wild_card,2022.2.4,MacIntel,60.0024001,5f3172eea47594017768b6f5,64b543b0a84ad6ab4a25b86a,64cb352a2290629906618e39,,,,,,,sngl,resources/DB.BMP,resources/Empty.png,Door1,-0.295799032,-0.019966208,1,0,0,2.0298,optionLeft,30,220,1,3,0,3,0,1,,,,,,,,,,,,,,,,,,,,,,,,,,,,,,,,,,,,,,,
,,,,,,,5f3172eea47594017768b6f5,2023-08-03_06h03.58.654,HF_wild_card,2022.2.4,MacIntel,60.0024001,5f3172eea47594017768b6f5,64b543b0a84ad6ab4a25b86a,64cb352a2290629906618e39,,,,,,,decisionTrl,resources/DY.BMP,resources/DG.BMP,WildCard_NonEx,-0.296266153,0.017379502,1,0,0,1.0629,optionLeft,55,275,1,4,0,4,0,1,,,,,,,,,,,,,,,,,,,,,,,,,,,,,,,,,,,,,,,
,,,,,,,5f3172eea47594017768b6f5,2023-08-03_06h03.58.654,HF_wild_card,2022.2.4,MacIntel,60.0024001,5f3172eea47594017768b6f5,64b543b0a84ad6ab4a25b86a,64cb352a2290629906618e39,,,,,,,sngl,resources/Empty.png,resources/DBN.BMP,Door3,0.28526459,0.046379524,1,0,0,1.3791,optionRight,70,345,1,5,0,5,0,1,,,,,,,,,,,,,,,,,,,,,,,,,,,,,,,,,,,,,,,
,,,,,,,5f3172eea47594017768b6f5,2023-08-03_06h03.58.654,HF_wild_card,2022.2.4,MacIntel,60.0024001,5f3172eea47594017768b6f5,64b543b0a84ad6ab4a25b86a,64cb352a2290629906618e39,,,,,,,decisionTrl,resources/DB.BMP,resources/DG.BMP,Door1,-0.261806024,-0.024673297,1,0,0,1.6291,optionLeft,30,375,1,6,0,6,0,1,,,,,,,,,,,,,,,,,,,,,,,,,,,,,,,,,,,,,,,
,,,,,,,5f3172eea47594017768b6f5,2023-08-03_06h03.58.654,HF_wild_card,2022.2.4,MacIntel,60.0024001,5f3172eea47594017768b6f5,64b543b0a84ad6ab4a25b86a,64cb352a2290629906618e39,,,,,,,decisionTrl,resources/DR.BMP,resources/DY.BMP,WildCard_NonEx,0.524066417,0.001302547,1,0,0,1.4763,optionRight,55,430,1,7,0,7,0,1,,,,,,,,,,,,,,,,,,,,,,,,,,,,,,,,,,,,,,,
,,,,,,,5f3172eea47594017768b6f5,2023-08-03_06h03.58.654,HF_wild_card,2022.2.4,MacIntel,60.0024001,5f3172eea47594017768b6f5,64b543b0a84ad6ab4a25b86a,64cb352a2290629906618e39,,,,,,,decisionTrl,resources/DG.BMP,resources/DB.BMP,Door1,0.343129901,-0.033344999,1,0,0,2.2613,optionRight,30,460,1,8,0,8,0,1,,,,,,,,,,,,,,,,,,,,,,,,,,,,,,,,,,,,,,,
,,,,,,,5f3172eea47594017768b6f5,2023-08-03_06h03.58.654,HF_wild_card,2022.2.4,MacIntel,60.0024001,5f3172eea47594017768b6f5,64b543b0a84ad6ab4a25b86a,64cb352a2290629906618e39,,,,,,,decisionTrl,resources/DG.BMP,resources/DB.BMP,Door2,-0.266612006,-0.017810198,1,0,0,0.8168,optionLeft,40,500,1,9,0,9,0,1,,,,,,,,,,,,,,,,,,,,,,,,,,,,,,,,,,,,,,,
,,,,,,,5f3172eea47594017768b6f5,2023-08-03_06h03.58.654,HF_wild_card,2022.2.4,MacIntel,60.0024001,5f3172eea47594017768b6f5,64b543b0a84ad6ab4a25b86a,64cb352a2290629906618e39,,,,,,,decisionTrl,resources/DBN.BMP,resources/DR.BMP,Door3,-0.334585444,0.045374262,1,0,0,0.9916,optionLeft,70,570,1,10,0,10,0,1,,,,,,,,,,,,,,,,,,,,,,,,,,,,,,,,,,,,,,,
,,,,,,,5f3172eea47594017768b6f5,2023-08-03_06h03.58.654,HF_wild_card,2022.2.4,MacIntel,60.0024001,5f3172eea47594017768b6f5,64b543b0a84ad6ab4a25b86a,64cb352a2290629906618e39,,,,,,,decisionTrl,resources/DR.BMP,resources/DBN.BMP,Door4,-0.280996228,0.027931204,1,0,0,3.291,optionLeft,60,630,1,11,0,11,0,1,,,,,,,,,,,,,,,,,,,,,,,,,,,,,,,,,,,,,,,
,,,,,,,5f3172eea47594017768b6f5,2023-08-03_06h03.58.654,HF_wild_card,2022.2.4,MacIntel,60.0024001,5f3172eea47594017768b6f5,64b543b0a84ad6ab4a25b86a,64cb352a2290629906618e39,,,,,,,sngl,resources/DY.BMP,resources/Empty.png,WildCard_NonEx,-0.35053318,0.019249088,1,0,0,0.8968,optionLeft,55,685,1,12,0,12,0,1,,,,,,,,,,,,,,,,,,,,,,,,,,,,,,,,,,,,,,,
,,,,,,,5f3172eea47594017768b6f5,2023-08-03_06h03.58.654,HF_wild_card,2022.2.4,MacIntel,60.0024001,5f3172eea47594017768b6f5,64b543b0a84ad6ab4a25b86a,64cb352a2290629906618e39,,,,,,,decisionTrl,resources/DG.BMP,resources/DB.BMP,Door2,-0.287688706,0.033309028,1,0,0,1.1781,optionLeft,40,725,1,13,0,13,0,1,,,,,,,,,,,,,,,,,,,,,,,,,,,,,,,,,,,,,,,
,,,,,,,5f3172eea47594017768b6f5,2023-08-03_06h03.58.654,HF_wild_card,2022.2.4,MacIntel,60.0024001,5f3172eea47594017768b6f5,64b543b0a84ad6ab4a25b86a,64cb352a2290629906618e39,,,,,,,sngl,resources/DG.BMP,resources/Empty.png,Door2,-0.354106444,0.006083055,1,0,0,0.8804,optionLeft,40,765,1,14,0,14,0,1,,,,,,,,,,,,,,,,,,,,,,,,,,,,,,,,,,,,,,,
,,,,,,,5f3172eea47594017768b6f5,2023-08-03_06h03.58.654,HF_wild_card,2022.2.4,MacIntel,60.0024001,5f3172eea47594017768b6f5,64b543b0a84ad6ab4a25b86a,64cb352a2290629906618e39,,,,,,,decisionTrl,resources/DR.BMP,resources/DBN.BMP,Door4,-0.305832857,0.022881183,1,0,0,3.6818,optionLeft,80,845,1,15,0,15,0,1,,,,,,,,,,,,,,,,,,,,,,,,,,,,,,,,,,,,,,,
,,,,,,,5f3172eea47594017768b6f5,2023-08-03_06h03.58.654,HF_wild_card,2022.2.4,MacIntel,60.0024001,5f3172eea47594017768b6f5,64b543b0a84ad6ab4a25b86a,64cb352a2290629906618e39,,,,,,,ctch,resources/DG.BMP,resources/DBN.BMP,Door2,-0.414272216,0.029559427,1,0,0,1.2962,optionLeft,40,885,1,16,0,16,0,1,,,,,,,,,,,,,,,,,,,,,,,,,,,,,,,,,,,,,,,
,,,,,,,5f3172eea47594017768b6f5,2023-08-03_06h03.58.654,HF_wild_card,2022.2.4,MacIntel,60.0024001,5f3172eea47594017768b6f5,64b543b0a84ad6ab4a25b86a,64cb352a2290629906618e39,,,,,,,decisionTrl,resources/DB.BMP,resources/DG.BMP,Door2,0.30473229,0.075884569,1,0,0,1.8783,optionRight,20,905,1,17,0,17,0,1,,,,,,,,,,,,,,,,,,,,,,,,,,,,,,,,,,,,,,,
,,,,,,,5f3172eea47594017768b6f5,2023-08-03_06h03.58.654,HF_wild_card,2022.2.4,MacIntel,60.0024001,5f3172eea47594017768b6f5,64b543b0a84ad6ab4a25b86a,64cb352a2290629906618e39,,,,,,,decisionTrl,resources/DG.BMP,resources/DY.BMP,WildCard_NonEx,0.451138611,0.098334057,1,0,0,1.7301,optionRight,45,950,1,18,0,18,0,1,,,,,,,,,,,,,,,,,,,,,,,,,,,,,,,,,,,,,,,
,,,,,,,5f3172eea47594017768b6f5,2023-08-03_06h03.58.654,HF_wild_card,2022.2.4,MacIntel,60.0024001,5f3172eea47594017768b6f5,64b543b0a84ad6ab4a25b86a,64cb352a2290629906618e39,,,,,,,sngl,resources/Empty.png,resources/DY.BMP,WildCard_NonEx,0.25162714,-0.018634521,1,0,0,0.9958,optionRight,45,995,1,19,0,19,0,1,,,,,,,,,,,,,,,,,,,,,,,,,,,,,,,,,,,,,,,
,,,,,,,5f3172eea47594017768b6f5,2023-08-03_06h03.58.654,HF_wild_card,2022.2.4,MacIntel,60.0024001,5f3172eea47594017768b6f5,64b543b0a84ad6ab4a25b86a,64cb352a2290629906618e39,,,,,,,sngl,resources/DR.BMP,resources/Empty.png,Door4,-0.387995344,0.012814366,1,0,0,0.93,optionLeft,80,1075,1,20,0,20,0,1,,,,,,,,,,,,,,,,,,,,,,,,,,,,,,,,,,,,,,,
,,,,,,,5f3172eea47594017768b6f5,2023-08-03_06h03.58.654,HF_wild_card,2022.2.4,MacIntel,60.0024001,5f3172eea47594017768b6f5,64b543b0a84ad6ab4a25b86a,64cb352a2290629906618e39,,,,,,,decisionTrl,resources/DY.BMP,resources/DB.BMP,WildCard_NonEx,-0.346968928,0.020392975,1,0,0,1.697,optionLeft,55,1130,1,21,0,21,0,1,,,,,,,,,,,,,,,,,,,,,,,,,,,,,,,,,,,,,,,
,,,,,,,5f3172eea47594017768b6f5,2023-08-03_06h03.58.654,HF_wild_card,2022.2.4,MacIntel,60.0024001,5f3172eea47594017768b6f5,64b543b0a84ad6ab4a25b86a,64cb352a2290629906618e39,,,,,,,ctch,resources/DG.BMP,resources/DBN.BMP,Door3,0.344999712,0.073730894,1,0,0,4.0467,optionRight,70,1200,1,22,0,22,0,1,,,,,,,,,,,,,,,,,,,,,,,,,,,,,,,,,,,,,,,
,,,,,,,5f3172eea47594017768b6f5,2023-08-03_06h03.58.654,HF_wild_card,2022.2.4,MacIntel,60.0024001,5f3172eea47594017768b6f5,64b543b0a84ad6ab4a25b86a,64cb352a2290629906618e39,,,,,,,ctch,resources/DB.BMP,resources/DR.BMP,Door4,0.395600796,0.050412177,1,0,0,1.4966,optionRight,80,1280,1,23,0,23,0,1,,,,,,,,,,,,,,,,,,,,,,,,,,,,,,,,,,,,,,,
,,,,,,,5f3172eea47594017768b6f5,2023-08-03_06h03.58.654,HF_wild_card,2022.2.4,MacIntel,60.0024001,5f3172eea47594017768b6f5,64b543b0a84ad6ab4a25b86a,64cb352a2290629906618e39,,,,,,,sngl,resources/DY.BMP,resources/Empty.png,WildCard_NonEx,-0.386243271,0.007578803,1,0,0,0.7768,optionLeft,45,1325,1,24,0,24,0,1,,,,,,,,,,,,,,,,,,,,,,,,,,,,,,,,,,,,,,,
,,,,,,,5f3172eea47594017768b6f5,2023-08-03_06h03.58.654,HF_wild_card,2022.2.4,MacIntel,60.0024001,5f3172eea47594017768b6f5,64b543b0a84ad6ab4a25b86a,64cb352a2290629906618e39,,,,,,,decisionTrl,resources/DB.BMP,resources/DG.BMP,Door2,0.276118715,-0.007643164,1,0,0,1.5645,optionRight,20,1345,1,25,0,25,0,1,,,,,,,,,,,,,,,,,,,,,,,,,,,,,,,,,,,,,,,
,,,,,,,5f3172eea47594017768b6f5,2023-08-03_06h03.58.654,HF_wild_card,2022.2.4,MacIntel,60.0024001,5f3172eea47594017768b6f5,64b543b0a84ad6ab4a25b86a,64cb352a2290629906618e39,,,,,,,decisionTrl,resources/DR.BMP,resources/DBN.BMP,Door3,0.331896725,0.087217304,1,0,0,1.7307,optionRight,70,1415,1,26,0,26,0,1,,,,,,,,,,,,,,,,,,,,,,,,,,,,,,,,,,,,,,,
,,,,,,,5f3172eea47594017768b6f5,2023-08-03_06h03.58.654,HF_wild_card,2022.2.4,MacIntel,60.0024001,5f3172eea47594017768b6f5,64b543b0a84ad6ab4a25b86a,64cb352a2290629906618e39,,,,,,,sngl,resources/Empty.png,resources/DB.BMP,Door1,0.389944253,0.022971188,1,0,0,1.2137,optionRight,30,1445,1,27,0,27,0,1,,,,,,,,,,,,,,,,,,,,,,,,,,,,,,,,,,,,,,,
,,,,,,,5f3172eea47594017768b6f5,2023-08-03_06h03.58.654,HF_wild_card,2022.2.4,MacIntel,60.0024001,5f3172eea47594017768b6f5,64b543b0a84ad6ab4a25b86a,64cb352a2290629906618e39,,,,,,,ctch,resources/DR.BMP,resources/DB.BMP,Door4,-0.378532381,0.053718054,1,0,0,1.248,optionLeft,80,1525,1,28,0,28,0,1,,,,,,,,,,,,,,,,,,,,,,,,,,,,,,,,,,,,,,,
,,,,,,,5f3172eea47594017768b6f5,2023-08-03_06h03.58.654,HF_wild_card,2022.2.4,MacIntel,60.0024001,5f3172eea47594017768b6f5,64b543b0a84ad6ab4a25b86a,64cb352a2290629906618e39,,,,,,,sngl,resources/Empty.png,resources/DR.BMP,Door4,0.348513063,0.045836165,1,0,0,0.7297,optionRight,60,1585,1,29,0,29,0,1,,,,,,,,,,,,,,,,,,,,,,,,,,,,,,,,,,,,,,,
,,,,,,,5f3172eea47594017768b6f5,2023-08-03_06h03.58.654,HF_wild_card,2022.2.4,MacIntel,60.0024001,5f3172eea47594017768b6f5,64b543b0a84ad6ab4a25b86a,64cb352a2290629906618e39,,,,,,,decisionTrl,resources/DBN.BMP,resources/DR.BMP,Door3,-0.360673873,-0.007511192,1,0,0,1.9315,optionLeft,70,1655,1,30,0,30,0,1,,,,,,,,,,,,,,,,,,,,,,,,,,,,,,,,,,,,,,,
,,,,,,,5f3172eea47594017768b6f5,2023-08-03_06h03.58.654,HF_wild_card,2022.2.4,MacIntel,60.0024001,5f3172eea47594017768b6f5,64b543b0a84ad6ab4a25b86a,64cb352a2290629906618e39,,,,,,,decisionTrl,resources/DB.BMP,resources/DY.BMP,WildCard_NonEx,0.422316403,0.019985842,1,0,0,2.0473,optionRight,45,1700,1,31,0,31,0,1,,,,,,,,,,,,,,,,,,,,,,,,,,,,,,,,,,,,,,,
,,,,,,,5f3172eea47594017768b6f5,2023-08-03_06h03.58.654,HF_wild_card,2022.2.4,MacIntel,60.0024001,5f3172eea47594017768b6f5,64b543b0a84ad6ab4a25b86a,64cb352a2290629906618e39,,,,,,,decisionTrl,resources/DBN.BMP,resources/DR.BMP,Door3,-0.246432112,0.022511994,1,0,0,1.4794,optionLeft,70,1770,1,32,0,32,0,1,,,,,,,,,,,,,,,,,,,,,,,,,,,,,,,,,,,,,,,
,,,,,,,5f3172eea47594017768b6f5,2023-08-03_06h03.58.654,HF_wild_card,2022.2.4,MacIntel,60.0024001,5f3172eea47594017768b6f5,64b543b0a84ad6ab4a25b86a,64cb352a2290629906618e39,,,,,,,sngl,resources/Empty.png,resources/DG.BMP,Door2,0.539526646,-0.020413049,1,0,0,1.0647,optionRight,20,1790,1,33,0,33,0,1,,,,,,,,,,,,,,,,,,,,,,,,,,,,,,,,,,,,,,,
,,,,,,,5f3172eea47594017768b6f5,2023-08-03_06h03.58.654,HF_wild_card,2022.2.4,MacIntel,60.0024001,5f3172eea47594017768b6f5,64b543b0a84ad6ab4a25b86a,64cb352a2290629906618e39,,,,,,,ctch,resources/DBN.BMP,resources/DG.BMP,Door3,-0.456162485,0.110537105,1,0,0,1.0326,optionLeft,70,1860,1,34,0,34,0,1,,,,,,,,,,,,,,,,,,,,,,,,,,,,,,,,,,,,,,,
,,,,,,,5f3172eea47594017768b6f5,2023-08-03_06h03.58.654,HF_wild_card,2022.2.4,MacIntel,60.0024001,5f3172eea47594017768b6f5,64b543b0a84ad6ab4a25b86a,64cb352a2290629906618e39,,,,,,,ctch,resources/DB.BMP,resources/DR.BMP,Door1,-0.343954069,-0.032270966,1,0,0,1.9127,optionLeft,30,1890,1,35,0,35,0,1,,,,,,,,,,,,,,,,,,,,,,,,,,,,,,,,,,,,,,,
,,,,,,,5f3172eea47594017768b6f5,2023-08-03_06h03.58.654,HF_wild_card,2022.2.4,MacIntel,60.0024001,5f3172eea47594017768b6f5,64b543b0a84ad6ab4a25b86a,64cb352a2290629906618e39,,,,,,,decisionTrl,resources/DR.BMP,resources/DBN.BMP,Door4,-0.421038455,0.013278047,1,0,0,0.9123,optionLeft,60,1950,1,36,0,36,0,1,,,,,,,,,,,,,,,,,,,,,,,,,,,,,,,,,,,,,,,
,,,,,,,5f3172eea47594017768b6f5,2023-08-03_06h03.58.654,HF_wild_card,2022.2.4,MacIntel,60.0024001,5f3172eea47594017768b6f5,64b543b0a84ad6ab4a25b86a,64cb352a2290629906618e39,,,,,,,decisionTrl,resources/DY.BMP,resources/DR.BMP,Door4,0.393662988,0.101537359,1,0,0,2.9474,optionRight,60,2010,1,37,0,37,0,1,,,,,,,,,,,,,,,,,,,,,,,,,,,,,,,,,,,,,,,
,,,,,,,5f3172eea47594017768b6f5,2023-08-03_06h03.58.654,HF_wild_card,2022.2.4,MacIntel,60.0024001,5f3172eea47594017768b6f5,64b543b0a84ad6ab4a25b86a,64cb352a2290629906618e39,,,,,,,decisionTrl,resources/DBN.BMP,resources/DR.BMP,Door3,-0.330537513,0.038305865,1,0,0,1.0472,optionLeft,70,2080,1,38,0,38,0,1,,,,,,,,,,,,,,,,,,,,,,,,,,,,,,,,,,,,,,,
,,,,,,,5f3172eea47594017768b6f5,2023-08-03_06h03.58.654,HF_wild_card,2022.2.4,MacIntel,60.0024001,5f3172eea47594017768b6f5,64b543b0a84ad6ab4a25b86a,64cb352a2290629906618e39,,,,,,,decisionTrl,resources/DBN.BMP,resources/DY.BMP,Door3,-0.349550777,0.040658774,1,0,0,1.1114,optionLeft,70,2150,1,39,0,39,0,1,,,,,,,,,,,,,,,,,,,,,,,,,,,,,,,,,,,,,,,
,,,,,,,5f3172eea47594017768b6f5,2023-08-03_06h03.58.654,HF_wild_card,2022.2.4,MacIntel,60.0024001,5f3172eea47594017768b6f5,64b543b0a84ad6ab4a25b86a,64cb352a2290629906618e39,,,,,,,sngl,resources/DBN.BMP,resources/Empty.png,Door3,-0.282275801,-0.005376818,1,0,0,1.4631,optionLeft,70,2220,1,40,0,40,0,1,,,,,,,,,,,,,,,,,,,,,,,,,,,,,,,,,,,,,,,
,,,,,,,5f3172eea47594017768b6f5,2023-08-03_06h03.58.654,HF_wild_card,2022.2.4,MacIntel,60.0024001,5f3172eea47594017768b6f5,64b543b0a84ad6ab4a25b86a,64cb352a2290629906618e39,,,,,,,decisionTrl,resources/DY.BMP,resources/DBN.BMP,Door3,0.279840699,0.04159484,1,0,0,1.3641,optionRight,70,2290,1,41,0,41,0,1,,,,,,,,,,,,,,,,,,,,,,,,,,,,,,,,,,,,,,,
,,,,,,,5f3172eea47594017768b6f5,2023-08-03_06h03.58.654,HF_wild_card,2022.2.4,MacIntel,60.0024001,5f3172eea47594017768b6f5,64b543b0a84ad6ab4a25b86a,64cb352a2290629906618e39,,,,,,,decisionTrl,resources/DG.BMP,resources/DB.BMP,Door1,0.376856737,-0.090639528,1,0,0,2.0644,optionRight,30,2320,1,42,0,42,0,1,,,,,,,,,,,,,,,,,,,,,,,,,,,,,,,,,,,,,,,
,,,,,,,5f3172eea47594017768b6f5,2023-08-03_06h03.58.654,HF_wild_card,2022.2.4,MacIntel,60.0024001,5f3172eea47594017768b6f5,64b543b0a84ad6ab4a25b86a,64cb352a2290629906618e39,,,,,,,sngl,resources/Empty.png,resources/DY.BMP,WildCard_NonEx,0.298479784,-0.031246287,1,0,0,0.879,optionRight,55,2375,1,43,0,43,0,1,,,,,,,,,,,,,,,,,,,,,,,,,,,,,,,,,,,,,,,
,,,,,,,5f3172eea47594017768b6f5,2023-08-03_06h03.58.654,HF_wild_card,2022.2.4,MacIntel,60.0024001,5f3172eea47594017768b6f5,64b543b0a84ad6ab4a25b86a,64cb352a2290629906618e39,,,,,,,,,,,,,,,,,,,,,,,,,,0,0,0,0,1,,,,,,,,,,,,,,,,,,,,,,,,,,,,,,,,,,
,,,,,,,5f3172eea47594017768b6f5,2023-08-03_06h03.58.654,HF_wild_card,2022.2.4,MacIntel,60.0024001,5f3172eea47594017768b6f5,64b543b0a84ad6ab4a25b86a,64cb352a2290629906618e39,,,,,,,sngl,resources/DY.BMP,resources/Empty.png,WildCard_NonEx,-0.428909708,0.081832364,1,0,0,1.307,optionLeft,45,2420,2,0,0,0,0,1,,,,,,,,,,,,,,,,,,,,,,,,,,,,,,,,,,,,,,,
,,,,,,,5f3172eea47594017768b6f5,2023-08-03_06h03.58.654,HF_wild_card,2022.2.4,MacIntel,60.0024001,5f3172eea47594017768b6f5,64b543b0a84ad6ab4a25b86a,64cb352a2290629906618e39,,,,,,,decisionTrl,resources/DR.BMP,resources/DBN.BMP,Door3,0.422983535,0.026934528,1,0,0,3.0474,optionRight,70,2490,2,1,0,1,0,1,,,,,,,,,,,,,,,,,,,,,,,,,,,,,,,,,,,,,,,
,,,,,,,5f3172eea47594017768b6f5,2023-08-03_06h03.58.654,HF_wild_card,2022.2.4,MacIntel,60.0024001,5f3172eea47594017768b6f5,64b543b0a84ad6ab4a25b86a,64cb352a2290629906618e39,,,,,,,decisionTrl,resources/DR.BMP,resources/DBN.BMP,Door3,0.310474314,0.003647566,1,0,0,2.498,optionRight,70,2560,2,2,0,2,0,1,,,,,,,,,,,,,,,,,,,,,,,,,,,,,,,,,,,,,,,
,,,,,,,5f3172eea47594017768b6f5,2023-08-03_06h03.58.654,HF_wild_card,2022.2.4,MacIntel,60.0024001,5f3172eea47594017768b6f5,64b543b0a84ad6ab4a25b86a,64cb352a2290629906618e39,,,,,,,ctch,resources/DB.BMP,resources/DR.BMP,Door4,0.327678182,-0.006554743,1,0,0,1.7962,optionRight,60,2620,2,3,0,3,0,1,,,,,,,,,,,,,,,,,,,,,,,,,,,,,,,,,,,,,,,
,,,,,,,5f3172eea47594017768b6f5,2023-08-03_06h03.58.654,HF_wild_card,2022.2.4,MacIntel,60.0024001,5f3172eea47594017768b6f5,64b543b0a84ad6ab4a25b86a,64cb352a2290629906618e39,,,,,,,sngl,resources/Empty.png,resources/DY.BMP,WildCard_NonEx,0.29573297,0.022199159,1,0,0,0.8455,optionRight,45,2665,2,4,0,4,0,1,,,,,,,,,,,,,,,,,,,,,,,,,,,,,,,,,,,,,,,
,,,,,,,5f3172eea47594017768b6f5,2023-08-03_06h03.58.654,HF_wild_card,2022.2.4,MacIntel,60.0024001,5f3172eea47594017768b6f5,64b543b0a84ad6ab4a25b86a,64cb352a2290629906618e39,,,,,,,sngl,resources/DR.BMP,resources/Empty.png,Door4,-0.377112095,-0.024462102,1,0,0,2.4466,optionLeft,60,2725,2,5,0,5,0,1,,,,,,,,,,,,,,,,,,,,,,,,,,,,,,,,,,,,,,,
,,,,,,,5f3172eea47594017768b6f5,2023-08-03_06h03.58.654,HF_wild_card,2022.2.4,MacIntel,60.0024001,5f3172eea47594017768b6f5,64b543b0a84ad6ab4a25b86a,64cb352a2290629906618e39,,,,,,,ctch,resources/DG.BMP,resources/DBN.BMP,Door3,0.290454937,0.055216858,1,0,0,2.4137,optionRight,70,2795,2,6,0,6,0,1,,,,,,,,,,,,,,,,,,,,,,,,,,,,,,,,,,,,,,,
,,,,,,,5f3172eea47594017768b6f5,2023-08-03_06h03.58.654,HF_wild_card,2022.2.4,MacIntel,60.0024001,5f3172eea47594017768b6f5,64b543b0a84ad6ab4a25b86a,64cb352a2290629906618e39,,,,,,,ctch,resources/DG.BMP,resources/DBN.BMP,Door3,0.413156333,-0.011519399,1,0,0,3.3837,optionRight,70,2865,2,7,0,7,0,1,,,,,,,,,,,,,,,,,,,,,,,,,,,,,,,,,,,,,,,
,,,,,,,5f3172eea47594017768b6f5,2023-08-03_06h03.58.654,HF_wild_card,2022.2.4,MacIntel,60.0024001,5f3172eea47594017768b6f5,64b543b0a84ad6ab4a25b86a,64cb352a2290629906618e39,,,,,,,decisionTrl,resources/DB.BMP,resources/DG.BMP,Door1,-0.323450318,-0.012315177,1,0,0,3.1309,optionLeft,30,2895,2,8,0,8,0,1,,,,,,,,,,,,,,,,,,,,,,,,,,,,,,,,,,,,,,,
,,,,,,,5f3172eea47594017768b6f5,2023-08-03_06h03.58.654,HF_wild_card,2022.2.4,MacIntel,60.0024001,5f3172eea47594017768b6f5,64b543b0a84ad6ab4a25b86a,64cb352a2290629906618e39,,,,,,,decisionTrl,resources/DY.BMP,resources/DR.BMP,Door4,0.353401909,0.069658441,1,0,0,1.5144,optionRight,80,2975,2,9,0,9,0,1,,,,,,,,,,,,,,,,,,,,,,,,,,,,,,,,,,,,,,,
,,,,,,,5f3172eea47594017768b6f5,2023-08-03_06h03.58.654,HF_wild_card,2022.2.4,MacIntel,60.0024001,5f3172eea47594017768b6f5,64b543b0a84ad6ab4a25b86a,64cb352a2290629906618e39,,,,,,,sngl,resources/DY.BMP,resources/Empty.png,WildCard_NonEx,-0.317685049,-0.003403658,1,0,0,0.7447,optionLeft,55,3030,2,10,0,10,0,1,,,,,,,,,,,,,,,,,,,,,,,,,,,,,,,,,,,,,,,
,,,,,,,5f3172eea47594017768b6f5,2023-08-03_06h03.58.654,HF_wild_card,2022.2.4,MacIntel,60.0024001,5f3172eea47594017768b6f5,64b543b0a84ad6ab4a25b86a,64cb352a2290629906618e39,,,,,,,decisionTrl,resources/DB.BMP,resources/DY.BMP,Door1,-0.273380178,-0.017844545,1,0,0,1.4969,optionLeft,30,3060,2,11,0,11,0,1,,,,,,,,,,,,,,,,,,,,,,,,,,,,,,,,,,,,,,,
,,,,,,,5f3172eea47594017768b6f5,2023-08-03_06h03.58.654,HF_wild_card,2022.2.4,MacIntel,60.0024001,5f3172eea47594017768b6f5,64b543b0a84ad6ab4a25b86a,64cb352a2290629906618e39,,,,,,,decisionTrl,resources/DG.BMP,resources/DB.BMP,Door1,0.279703002,0.003113953,1,0,0,1.5479,optionRight,30,3090,2,12,0,12,0,1,,,,,,,,,,,,,,,,,,,,,,,,,,,,,,,,,,,,,,,
,,,,,,,5f3172eea47594017768b6f5,2023-08-03_06h03.58.654,HF_wild_card,2022.2.4,MacIntel,60.0024001,5f3172eea47594017768b6f5,64b543b0a84ad6ab4a25b86a,64cb352a2290629906618e39,,,,,,,decisionTrl,resources/DB.BMP,resources/DG.BMP,Door1,-0.354295274,-0.052377679,1,0,0,18.4831,optionLeft,30,3120,2,13,0,13,0,1,,,,,,,,,,,,,,,,,,,,,,,,,,,,,,,,,,,,,,,
,,,,,,,5f3172eea47594017768b6f5,2023-08-03_06h03.58.654,HF_wild_card,2022.2.4,MacIntel,60.0024001,5f3172eea47594017768b6f5,64b543b0a84ad6ab4a25b86a,64cb352a2290629906618e39,,,,,,,decisionTrl,resources/DBN.BMP,resources/DR.BMP,Door3,-0.348433655,0.044974246,1,0,0,2.0787,optionLeft,70,3190,2,14,0,14,0,1,,,,,,,,,,,,,,,,,,,,,,,,,,,,,,,,,,,,,,,
,,,,,,,5f3172eea47594017768b6f5,2023-08-03_06h03.58.654,HF_wild_card,2022.2.4,MacIntel,60.0024001,5f3172eea47594017768b6f5,64b543b0a84ad6ab4a25b86a,64cb352a2290629906618e39,,,,,,,decisionTrl,resources/DBN.BMP,resources/DR.BMP,Door3,-0.294093182,0.026991115,1,0,0,3.5799,optionLeft,70,3260,2,15,0,15,0,1,,,,,,,,,,,,,,,,,,,,,,,,,,,,,,,,,,,,,,,
,,,,,,,5f3172eea47594017768b6f5,2023-08-03_06h03.58.654,HF_wild_card,2022.2.4,MacIntel,60.0024001,5f3172eea47594017768b6f5,64b543b0a84ad6ab4a25b86a,64cb352a2290629906618e39,,,,,,,decisionTrl,resources/DG.BMP,resources/DB.BMP,Door2,-0.300029992,0.021003172,1,0,0,3.0982,optionLeft,40,3300,2,16,0,16,0,1,,,,,,,,,,,,,,,,,,,,,,,,,,,,,,,,,,,,,,,
,,,,,,,5f3172eea47594017768b6f5,2023-08-03_06h03.58.654,HF_wild_card,2022.2.4,MacIntel,60.0024001,5f3172eea47594017768b6f5,64b543b0a84ad6ab4a25b86a,64cb352a2290629906618e39,,,,,,,decisionTrl,resources/DB.BMP,resources/DG.BMP,Door1,-0.409738519,0.032473527,1,0,0,1.5645,optionLeft,30,3330,2,17,0,17,0,1,,,,,,,,,,,,,,,,,,,,,,,,,,,,,,,,,,,,,,,
,,,,,,,5f3172eea47594017768b6f5,2023-08-03_06h03.58.654,HF_wild_card,2022.2.4,MacIntel,60.0024001,5f3172eea47594017768b6f5,64b543b0a84ad6ab4a25b86a,64cb352a2290629906618e39,,,,,,,ctch,resources/DBN.BMP,resources/DG.BMP,Door3,-0.355483641,0.083412045,1,0,0,0.8815,optionLeft,70,3400,2,18,0,18,0,1,,,,,,,,,,,,,,,,,,,,,,,,,,,,,,,,,,,,,,,
,,,,,,,5f3172eea47594017768b6f5,2023-08-03_06h03.58.654,HF_wild_card,2022.2.4,MacIntel,60.0024001,5f3172eea47594017768b6f5,64b543b0a84ad6ab4a25b86a,64cb352a2290629906618e39,,,,,,,decisionTrl,resources/DR.BMP,resources/DBN.BMP,Door4,-0.329582882,0.003466627,1,0,0,1.6485,optionLeft,60,3460,2,19,0,19,0,1,,,,,,,,,,,,,,,,,,,,,,,,,,,,,,,,,,,,,,,
,,,,,,,5f3172eea47594017768b6f5,2023-08-03_06h03.58.654,HF_wild_card,2022.2.4,MacIntel,60.0024001,5f3172eea47594017768b6f5,64b543b0a84ad6ab4a25b86a,64cb352a2290629906618e39,,,,,,,decisionTrl,resources/DBN.BMP,resources/DR.BMP,Door3,-0.278042599,0.026546309,1,0,0,0.8299,optionLeft,70,3530,2,20,0,20,0,1,,,,,,,,,,,,,,,,,,,,,,,,,,,,,,,,,,,,,,,
,,,,,,,5f3172eea47594017768b6f5,2023-08-03_06h03.58.654,HF_wild_card,2022.2.4,MacIntel,60.0024001,5f3172eea47594017768b6f5,64b543b0a84ad6ab4a25b86a,64cb352a2290629906618e39,,,,,,,decisionTrl,resources/DY.BMP,resources/DG.BMP,Door2,0.419032262,0.011741725,1,0,0,1.8618,optionRight,20,3550,2,21,0,21,0,1,,,,,,,,,,,,,,,,,,,,,,,,,,,,,,,,,,,,,,,
,,,,,,,5f3172eea47594017768b6f5,2023-08-03_06h03.58.654,HF_wild_card,2022.2.4,MacIntel,60.0024001,5f3172eea47594017768b6f5,64b543b0a84ad6ab4a25b86a,64cb352a2290629906618e39,,,,,,,ctch,resources/DB.BMP,resources/DR.BMP,Door4,0.3292972,0.020337432,1,0,0,1.5641,optionRight,80,3630,2,22,0,22,0,1,,,,,,,,,,,,,,,,,,,,,,,,,,,,,,,,,,,,,,,
,,,,,,,5f3172eea47594017768b6f5,2023-08-03_06h03.58.654,HF_wild_card,2022.2.4,MacIntel,60.0024001,5f3172eea47594017768b6f5,64b543b0a84ad6ab4a25b86a,64cb352a2290629906618e39,,,,,,,decisionTrl,resources/DG.BMP,resources/DB.BMP,Door1,0.310461085,-0.010652453,1,0,0,6.5612,optionRight,30,3660,2,23,0,23,0,1,,,,,,,,,,,,,,,,,,,,,,,,,,,,,,,,,,,,,,,
,,,,,,,5f3172eea47594017768b6f5,2023-08-03_06h03.58.654,HF_wild_card,2022.2.4,MacIntel,60.0024001,5f3172eea47594017768b6f5,64b543b0a84ad6ab4a25b86a,64cb352a2290629906618e39,,,,,,,decisionTrl,resources/DBN.BMP,resources/DR.BMP,Door3,-0.409200729,0.051371295,1,0,0,0.7115,optionLeft,70,3730,2,24,0,24,0,1,,,,,,,,,,,,,,,,,,,,,,,,,,,,,,,,,,,,,,,
,,,,,,,5f3172eea47594017768b6f5,2023-08-03_06h03.58.654,HF_wild_card,2022.2.4,MacIntel,60.0024001,5f3172eea47594017768b6f5,64b543b0a84ad6ab4a25b86a,64cb352a2290629906618e39,,,,,,,sngl,resources/DB.BMP,resources/Empty.png,Door1,-0.304153539,0.019362649,1,0,0,0.93,optionLeft,30,3760,2,25,0,25,0,1,,,,,,,,,,,,,,,,,,,,,,,,,,,,,,,,,,,,,,,
,,,,,,,5f3172eea47594017768b6f5,2023-08-03_06h03.58.654,HF_wild_card,2022.2.4,MacIntel,60.0024001,5f3172eea47594017768b6f5,64b543b0a84ad6ab4a25b86a,64cb352a2290629906618e39,,,,,,,decisionTrl,resources/DG.BMP,resources/DY.BMP,Door2,-0.302897909,0.034145457,1,0,0,1.7299,optionLeft,40,3800,2,26,0,26,0,1,,,,,,,,,,,,,,,,,,,,,,,,,,,,,,,,,,,,,,,
,,,,,,,5f3172eea47594017768b6f5,2023-08-03_06h03.58.654,HF_wild_card,2022.2.4,MacIntel,60.0024001,5f3172eea47594017768b6f5,64b543b0a84ad6ab4a25b86a,64cb352a2290629906618e39,,,,,,,sngl,resources/DG.BMP,resources/Empty.png,Door2,-0.306095911,-0.009652064,1,0,0,0.9974,optionLeft,20,3820,2,27,0,27,0,1,,,,,,,,,,,,,,,,,,,,,,,,,,,,,,,,,,,,,,,
,,,,,,,5f3172eea47594017768b6f5,2023-08-03_06h03.58.654,HF_wild_card,2022.2.4,MacIntel,60.0024001,5f3172eea47594017768b6f5,64b543b0a84ad6ab4a25b86a,64cb352a2290629906618e39,,,,,,,ctch,resources/DR.BMP,resources/DB.BMP,Door4,-0.339750341,0.059256047,1,0,0,0.9634,optionLeft,80,3900,2,28,0,28,0,1,,,,,,,,,,,,,,,,,,,,,,,,,,,,,,,,,,,,,,,
,,,,,,,5f3172eea47594017768b6f5,2023-08-03_06h03.58.654,HF_wild_card,2022.2.4,MacIntel,60.0024001,5f3172eea47594017768b6f5,64b543b0a84ad6ab4a25b86a,64cb352a2290629906618e39,,,,,,,decisionTrl,resources/DR.BMP,resources/DY.BMP,Door4,-0.359685359,0.041965422,1,0,0,1.4872,optionLeft,60,3960,2,29,0,29,0,1,,,,,,,,,,,,,,,,,,,,,,,,,,,,,,,,,,,,,,,
,,,,,,,5f3172eea47594017768b6f5,2023-08-03_06h03.58.654,HF_wild_card,2022.2.4,MacIntel,60.0024001,5f3172eea47594017768b6f5,64b543b0a84ad6ab4a25b86a,64cb352a2290629906618e39,,,,,,,decisionTrl,resources/DY.BMP,resources/DBN.BMP,Door3,0.473761536,0.054201462,1,0,0,1.0969,optionRight,70,4030,2,30,0,30,0,1,,,,,,,,,,,,,,,,,,,,,,,,,,,,,,,,,,,,,,,
,,,,,,,5f3172eea47594017768b6f5,2023-08-03_06h03.58.654,HF_wild_card,2022.2.4,MacIntel,60.0024001,5f3172eea47594017768b6f5,64b543b0a84ad6ab4a25b86a,64cb352a2290629906618e39,,,,,,,ctch,resources/DBN.BMP,resources/DG.BMP,Door3,-0.387658993,0.013651839,1,0,0,0.9492,optionLeft,70,4100,2,31,0,31,0,1,,,,,,,,,,,,,,,,,,,,,,,,,,,,,,,,,,,,,,,
,,,,,,,5f3172eea47594017768b6f5,2023-08-03_06h03.58.654,HF_wild_card,2022.2.4,MacIntel,60.0024001,5f3172eea47594017768b6f5,64b543b0a84ad6ab4a25b86a,64cb352a2290629906618e39,,,,,,,sngl,resources/Empty.png,resources/DR.BMP,Door4,0.278706791,-0.032569876,1,0,0,0.9976,optionRight,80,4180,2,32,0,32,0,1,,,,,,,,,,,,,,,,,,,,,,,,,,,,,,,,,,,,,,,
,,,,,,,5f3172eea47594017768b6f5,2023-08-03_06h03.58.654,HF_wild_card,2022.2.4,MacIntel,60.0024001,5f3172eea47594017768b6f5,64b543b0a84ad6ab4a25b86a,64cb352a2290629906618e39,,,,,,,sngl,resources/Empty.png,resources/DBN.BMP,Door3,0.276233978,0.044475599,1,0,0,0.7809,optionRight,70,4250,2,33,0,33,0,1,,,,,,,,,,,,,,,,,,,,,,,,,,,,,,,,,,,,,,,
,,,,,,,5f3172eea47594017768b6f5,2023-08-03_06h03.58.654,HF_wild_card,2022.2.4,MacIntel,60.0024001,5f3172eea47594017768b6f5,64b543b0a84ad6ab4a25b86a,64cb352a2290629906618e39,,,,,,,sngl,resources/Empty.png,resources/DB.BMP,Door1,0.282901508,0.038971257,1,0,0,1.2478,optionRight,30,4280,2,34,0,34,0,1,,,,,,,,,,,,,,,,,,,,,,,,,,,,,,,,,,,,,,,
,,,,,,,5f3172eea47594017768b6f5,2023-08-03_06h03.58.654,HF_wild_card,2022.2.4,MacIntel,60.0024001,5f3172eea47594017768b6f5,64b543b0a84ad6ab4a25b86a,64cb352a2290629906618e39,,,,,,,sngl,resources/Empty.png,resources/DY.BMP,WildCard_NonEx,0.354892049,0.004823943,1,0,0,0.8321,optionRight,55,4335,2,35,0,35,0,1,,,,,,,,,,,,,,,,,,,,,,,,,,,,,,,,,,,,,,,
,,,,,,,5f3172eea47594017768b6f5,2023-08-03_06h03.58.654,HF_wild_card,2022.2.4,MacIntel,60.0024001,5f3172eea47594017768b6f5,64b543b0a84ad6ab4a25b86a,64cb352a2290629906618e39,,,,,,,decisionTrl,resources/DBN.BMP,resources/DY.BMP,Door3,-0.514063111,0.099619006,1,0,0,1.0475,optionLeft,70,4405,2,36,0,36,0,1,,,,,,,,,,,,,,,,,,,,,,,,,,,,,,,,,,,,,,,
,,,,,,,5f3172eea47594017768b6f5,2023-08-03_06h03.58.654,HF_wild_card,2022.2.4,MacIntel,60.0024001,5f3172eea47594017768b6f5,64b543b0a84ad6ab4a25b86a,64cb352a2290629906618e39,,,,,,,sngl,resources/DBN.BMP,resources/Empty.png,Door3,-0.399667061,0.019779375,1,0,0,0.8309,optionLeft,70,4475,2,37,0,37,0,1,,,,,,,,,,,,,,,,,,,,,,,,,,,,,,,,,,,,,,,
,,,,,,,5f3172eea47594017768b6f5,2023-08-03_06h03.58.654,HF_wild_card,2022.2.4,MacIntel,60.0024001,5f3172eea47594017768b6f5,64b543b0a84ad6ab4a25b86a,64cb352a2290629906618e39,,,,,,,decisionTrl,resources/DR.BMP,resources/DBN.BMP,Door4,-0.430903136,0.069188997,1,0,0,0.8132,optionLeft,80,4555,2,38,0,38,0,1,,,,,,,,,,,,,,,,,,,,,,,,,,,,,,,,,,,,,,,
,,,,,,,5f3172eea47594017768b6f5,2023-08-03_06h03.58.654,HF_wild_card,2022.2.4,MacIntel,60.0024001,5f3172eea47594017768b6f5,64b543b0a84ad6ab4a25b86a,64cb352a2290629906618e39,,,,,,,ctch,resources/DR.BMP,resources/DB.BMP,Door4,-0.346134935,-0.027351795,1,0,0,1.1132,optionLeft,80,4635,2,39,0,39,0,1,,,,,,,,,,,,,,,,,,,,,,,,,,,,,,,,,,,,,,,
,,,,,,,5f3172eea47594017768b6f5,2023-08-03_06h03.58.654,HF_wild_card,2022.2.4,MacIntel,60.0024001,5f3172eea47594017768b6f5,64b543b0a84ad6ab4a25b86a,64cb352a2290629906618e39,,,,,,,decisionTrl,resources/DG.BMP,resources/DB.BMP,Door2,-0.437108454,-0.004585295,1,0,0,4.6667,optionLeft,40,4675,2,40,0,40,0,1,,,,,,,,,,,,,,,,,,,,,,,,,,,,,,,,,,,,,,,
,,,,,,,5f3172eea47594017768b6f5,2023-08-03_06h03.58.654,HF_wild_card,2022.2.4,MacIntel,60.0024001,5f3172eea47594017768b6f5,64b543b0a84ad6ab4a25b86a,64cb352a2290629906618e39,,,,,,,decisionTrl,resources/DY.BMP,resources/DB.BMP,WildCard_NonEx,-0.237568168,0.016948666,1,0,0,2.8287,optionLeft,55,4730,2,41,0,41,0,1,,,,,,,,,,,,,,,,,,,,,,,,,,,,,,,,,,,,,,,
,,,,,,,5f3172eea47594017768b6f5,2023-08-03_06h03.58.654,HF_wild_card,2022.2.4,MacIntel,60.0024001,5f3172eea47594017768b6f5,64b543b0a84ad6ab4a25b86a,64cb352a2290629906618e39,,,,,,,decisionTrl,resources/DB.BMP,resources/DG.BMP,Door1,-0.337513468,0.002770253,1,0,0,2.6296,optionLeft,30,4760,2,42,0,42,0,1,,,,,,,,,,,,,,,,,,,,,,,,,,,,,,,,,,,,,,,
,,,,,,,5f3172eea47594017768b6f5,2023-08-03_06h03.58.654,HF_wild_card,2022.2.4,MacIntel,60.0024001,5f3172eea47594017768b6f5,64b543b0a84ad6ab4a25b86a,64cb352a2290629906618e39,,,,,,,sngl,resources/Empty.png,resources/DG.BMP,Door2,0.434972727,-0.001417075,1,0,0,0.747,optionRight,40,4800,2,43,0,43,0,1,,,,,,,,,,,,,,,,,,,,,,,,,,,,,,,,,,,,,,,
,,,,,,,5f3172eea47594017768b6f5,2023-08-03_06h03.58.654,HF_wild_card,2022.2.4,MacIntel,60.0024001,5f3172eea47594017768b6f5,64b543b0a84ad6ab4a25b86a,64cb352a2290629906618e39,,,,,,,,,,,,,,,,,,,,,,,,,,1,0,1,0,1,,,,,,,,,,,,,,,,,,,,,,,,,,,,,,,,,,
,,,,,,,5f3172eea47594017768b6f5,2023-08-03_06h03.58.654,HF_wild_card,2022.2.4,MacIntel,60.0024001,5f3172eea47594017768b6f5,64b543b0a84ad6ab4a25b86a,64cb352a2290629906618e39,,,,,,,ctch,resources/DR.BMP,resources/DB.BMP,Door4,-0.307899504,-0.053957321,1,0,0,0.8771,optionLeft,60,4860,3,0,0,0,0,1,,,,,,,,,,,,,,,,,,,,,,,,,,,,,,,,,,,,,,,
,,,,,,,5f3172eea47594017768b6f5,2023-08-03_06h03.58.654,HF_wild_card,2022.2.4,MacIntel,60.0024001,5f3172eea47594017768b6f5,64b543b0a84ad6ab4a25b86a,64cb352a2290629906618e39,,,,,,,decisionTrl,resources/DB.BMP,resources/DG.BMP,Door2,0.321659373,0.034867899,1,0,0,1.9962,optionRight,40,4900,3,1,0,1,0,1,,,,,,,,,,,,,,,,,,,,,,,,,,,,,,,,,,,,,,,
,,,,,,,5f3172eea47594017768b6f5,2023-08-03_06h03.58.654,HF_wild_card,2022.2.4,MacIntel,60.0024001,5f3172eea47594017768b6f5,64b543b0a84ad6ab4a25b86a,64cb352a2290629906618e39,,,,,,,decisionTrl,resources/DBN.BMP,resources/DR.BMP,Door3,-0.317830713,0.057564468,1,0,0,1.6956,optionLeft,70,4970,3,2,0,2,0,1,,,,,,,,,,,,,,,,,,,,,,,,,,,,,,,,,,,,,,,
,,,,,,,5f3172eea47594017768b6f5,2023-08-03_06h03.58.654,HF_wild_card,2022.2.4,MacIntel,60.0024001,5f3172eea47594017768b6f5,64b543b0a84ad6ab4a25b86a,64cb352a2290629906618e39,,,,,,,decisionTrl,resources/DBN.BMP,resources/DY.BMP,Door3,-0.305710052,0.062294886,1,0,0,1.4631,optionLeft,70,5040,3,3,0,3,0,1,,,,,,,,,,,,,,,,,,,,,,,,,,,,,,,,,,,,,,,
,,,,,,,5f3172eea47594017768b6f5,2023-08-03_06h03.58.654,HF_wild_card,2022.2.4,MacIntel,60.0024001,5f3172eea47594017768b6f5,64b543b0a84ad6ab4a25b86a,64cb352a2290629906618e39,,,,,,,sngl,resources/Empty.png,resources/DBN.BMP,Door3,0.313063628,0.041331012,1,0,0,0.9115,optionRight,70,5110,3,4,0,4,0,1,,,,,,,,,,,,,,,,,,,,,,,,,,,,,,,,,,,,,,,
,,,,,,,5f3172eea47594017768b6f5,2023-08-03_06h03.58.654,HF_wild_card,2022.2.4,MacIntel,60.0024001,5f3172eea47594017768b6f5,64b543b0a84ad6ab4a25b86a,64cb352a2290629906618e39,,,,,,,sngl,resources/DB.BMP,resources/Empty.png,Door1,-0.36475557,0.022713587,1,0,0,0.7646,optionLeft,30,5140,3,5,0,5,0,1,,,,,,,,,,,,,,,,,,,,,,,,,,,,,,,,,,,,,,,
,,,,,,,5f3172eea47594017768b6f5,2023-08-03_06h03.58.654,HF_wild_card,2022.2.4,MacIntel,60.0024001,5f3172eea47594017768b6f5,64b543b0a84ad6ab4a25b86a,64cb352a2290629906618e39,,,,,,,decisionTrl,resources/DY.BMP,resources/DG.BMP,Door2,0.391215703,0.033759906,1,0,0,1.796,optionRight,20,5160,3,6,0,6,0,1,,,,,,,,,,,,,,,,,,,,,,,,,,,,,,,,,,,,,,,
,,,,,,,5f3172eea47594017768b6f5,2023-08-03_06h03.58.654,HF_wild_card,2022.2.4,MacIntel,60.0024001,5f3172eea47594017768b6f5,64b543b0a84ad6ab4a25b86a,64cb352a2290629906618e39,,,,,,,decisionTrl,resources/DB.BMP,resources/DY.BMP,WildCard_NonEx,0.356202023,0.038684531,1,0,0,2.0982,optionRight,45,5205,3,7,0,7,0,1,,,,,,,,,,,,,,,,,,,,,,,,,,,,,,,,,,,,,,,
,,,,,,,5f3172eea47594017768b6f5,2023-08-03_06h03.58.654,HF_wild_card,2022.2.4,MacIntel,60.0024001,5f3172eea47594017768b6f5,64b543b0a84ad6ab4a25b86a,64cb352a2290629906618e39,,,,,,,ctch,resources/DG.BMP,resources/DBN.BMP,Door3,0.201337343,0.094440455,1,0,0,1.1225,optionRight,70,5275,3,8,0,8,0,1,,,,,,,,,,,,,,,,,,,,,,,,,,,,,,,,,,,,,,,
,,,,,,,5f3172eea47594017768b6f5,2023-08-03_06h03.58.654,HF_wild_card,2022.2.4,MacIntel,60.0024001,5f3172eea47594017768b6f5,64b543b0a84ad6ab4a25b86a,64cb352a2290629906618e39,,,,,,,sngl,resources/DG.BMP,resources/Empty.png,Door2,-0.331294187,0.006730925,1,0,0,0.9143,optionLeft,40,5315,3,9,0,9,0,1,,,,,,,,,,,,,,,,,,,,,,,,,,,,,,,,,,,,,,,
,,,,,,,5f3172eea47594017768b6f5,2023-08-03_06h03.58.654,HF_wild_card,2022.2.4,MacIntel,60.0024001,5f3172eea47594017768b6f5,64b543b0a84ad6ab4a25b86a,64cb352a2290629906618e39,,,,,,,decisionTrl,resources/DG.BMP,resources/DY.BMP,Door2,-0.26782273,0.029797417,1,0,0,2.578,optionLeft,40,5355,3,10,0,10,0,1,,,,,,,,,,,,,,,,,,,,,,,,,,,,,,,,,,,,,,,
,,,,,,,5f3172eea47594017768b6f5,2023-08-03_06h03.58.654,HF_wild_card,2022.2.4,MacIntel,60.0024001,5f3172eea47594017768b6f5,64b543b0a84ad6ab4a25b86a,64cb352a2290629906618e39,,,,,,,decisionTrl,resources/DR.BMP,resources/DBN.BMP,Door3,0.302213217,0.162599203,1,0,0,1.4314,optionRight,70,5425,3,11,0,11,0,1,,,,,,,,,,,,,,,,,,,,,,,,,,,,,,,,,,,,,,,
,,,,,,,5f3172eea47594017768b6f5,2023-08-03_06h03.58.654,HF_wild_card,2022.2.4,MacIntel,60.0024001,5f3172eea47594017768b6f5,64b543b0a84ad6ab4a25b86a,64cb352a2290629906618e39,,,,,,,sngl,resources/Empty.png,resources/DY.BMP,WildCard_NonEx,0.263742038,0.020674247,1,0,0,0.7787,optionRight,45,5470,3,12,0,12,0,1,,,,,,,,,,,,,,,,,,,,,,,,,,,,,,,,,,,,,,,
,,,,,,,5f3172eea47594017768b6f5,2023-08-03_06h03.58.654,HF_wild_card,2022.2.4,MacIntel,60.0024001,5f3172eea47594017768b6f5,64b543b0a84ad6ab4a25b86a,64cb352a2290629906618e39,,,,,,,decisionTrl,resources/DR.BMP,resources/DBN.BMP,Door3,0.187752805,0.109484693,1,0,0,1.1124,optionRight,70,5540,3,13,0,13,0,1,,,,,,,,,,,,,,,,,,,,,,,,,,,,,,,,,,,,,,,
,,,,,,,5f3172eea47594017768b6f5,2023-08-03_06h03.58.654,HF_wild_card,2022.2.4,MacIntel,60.0024001,5f3172eea47594017768b6f5,64b543b0a84ad6ab4a25b86a,64cb352a2290629906618e39,,,,,,,decisionTrl,resources/DB.BMP,resources/DG.BMP,Door1,-0.314886212,0.044093298,1,0,0,2.2137,optionLeft,30,5570,3,14,0,14,0,1,,,,,,,,,,,,,,,,,,,,,,,,,,,,,,,,,,,,,,,
,,,,,,,5f3172eea47594017768b6f5,2023-08-03_06h03.58.654,HF_wild_card,2022.2.4,MacIntel,60.0024001,5f3172eea47594017768b6f5,64b543b0a84ad6ab4a25b86a,64cb352a2290629906618e39,,,,,,,ctch,resources/DB.BMP,resources/DR.BMP,Door4,0.430589954,0.127080146,1,0,0,1.5638,optionRight,60,5630,3,15,0,15,0,1,,,,,,,,,,,,,,,,,,,,,,,,,,,,,,,,,,,,,,,
,,,,,,,5f3172eea47594017768b6f5,2023-08-03_06h03.58.654,HF_wild_card,2022.2.4,MacIntel,60.0024001,5f3172eea47594017768b6f5,64b543b0a84ad6ab4a25b86a,64cb352a2290629906618e39,,,,,,,sngl,resources/DY.BMP,resources/Empty.png,WildCard_NonEx,-0.375801193,0.036518943,1,0,0,0.8626,optionLeft,45,5675,3,16,0,16,0,1,,,,,,,,,,,,,,,,,,,,,,,,,,,,,,,,,,,,,,,
,,,,,,,5f3172eea47594017768b6f5,2023-08-03_06h03.58.654,HF_wild_card,2022.2.4,MacIntel,60.0024001,5f3172eea47594017768b6f5,64b543b0a84ad6ab4a25b86a,64cb352a2290629906618e39,,,,,,,decisionTrl,resources/DBN.BMP,resources/DR.BMP,Door3,-0.271252302,0.085237375,1,0,0,1.7136,optionLeft,70,5745,3,17,0,17,0,1,,,,,,,,,,,,,,,,,,,,,,,,,,,,,,,,,,,,,,,
,,,,,,,5f3172eea47594017768b6f5,2023-08-03_06h03.58.654,HF_wild_card,2022.2.4,MacIntel,60.0024001,5f3172eea47594017768b6f5,64b543b0a84ad6ab4a25b86a,64cb352a2290629906618e39,,,,,,,decisionTrl,resources/DG.BMP,resources/DB.BMP,Door2,-0.469130058,1.53942E-05,1,0,0,3.279,optionLeft,20,5765,3,18,0,18,0,1,,,,,,,,,,,,,,,,,,,,,,,,,,,,,,,,,,,,,,,
,,,,,,,5f3172eea47594017768b6f5,2023-08-03_06h03.58.654,HF_wild_card,2022.2.4,MacIntel,60.0024001,5f3172eea47594017768b6f5,64b543b0a84ad6ab4a25b86a,64cb352a2290629906618e39,,,,,,,sngl,resources/DY.BMP,resources/Empty.png,WildCard_NonEx,-0.314371706,0.062811635,1,0,0,0.7806,optionLeft,55,5820,3,19,0,19,0,1,,,,,,,,,,,,,,,,,,,,,,,,,,,,,,,,,,,,,,,
,,,,,,,5f3172eea47594017768b6f5,2023-08-03_06h03.58.654,HF_wild_card,2022.2.4,MacIntel,60.0024001,5f3172eea47594017768b6f5,64b543b0a84ad6ab4a25b86a,64cb352a2290629906618e39,,,,,,,decisionTrl,resources/DY.BMP,resources/DR.BMP,Door4,0.493651106,0.107276056,1,0,0,1.0477,optionRight,80,5900,3,20,0,20,0,1,,,,,,,,,,,,,,,,,,,,,,,,,,,,,,,,,,,,,,,
,,,,,,,5f3172eea47594017768b6f5,2023-08-03_06h03.58.654,HF_wild_card,2022.2.4,MacIntel,60.0024001,5f3172eea47594017768b6f5,64b543b0a84ad6ab4a25b86a,64cb352a2290629906618e39,,,,,,,decisionTrl,resources/DG.BMP,resources/DB.BMP,Door1,0.364871955,0.024831059,1,0,0,2.4819,optionRight,30,5930,3,21,0,21,0,1,,,,,,,,,,,,,,,,,,,,,,,,,,,,,,,,,,,,,,,
,,,,,,,5f3172eea47594017768b6f5,2023-08-03_06h03.58.654,HF_wild_card,2022.2.4,MacIntel,60.0024001,5f3172eea47594017768b6f5,64b543b0a84ad6ab4a25b86a,64cb352a2290629906618e39,,,,,,,decisionTrl,resources/DG.BMP,resources/DB.BMP,Door1,0.334961092,0.014610958,1,0,0,0.9303,optionRight,30,5960,3,22,0,22,0,1,,,,,,,,,,,,,,,,,,,,,,,,,,,,,,,,,,,,,,,
,,,,,,,5f3172eea47594017768b6f5,2023-08-03_06h03.58.654,HF_wild_card,2022.2.4,MacIntel,60.0024001,5f3172eea47594017768b6f5,64b543b0a84ad6ab4a25b86a,64cb352a2290629906618e39,,,,,,,sngl,resources/Empty.png,resources/DR.BMP,Door4,0.308944567,0.042348651,1,0,0,1.0462,optionRight,60,6020,3,23,0,23,0,1,,,,,,,,,,,,,,,,,,,,,,,,,,,,,,,,,,,,,,,
,,,,,,,5f3172eea47594017768b6f5,2023-08-03_06h03.58.654,HF_wild_card,2022.2.4,MacIntel,60.0024001,5f3172eea47594017768b6f5,64b543b0a84ad6ab4a25b86a,64cb352a2290629906618e39,,,,,,,ctch,resources/DB.BMP,resources/DR.BMP,Door4,0.412119741,0.061313837,1,0,0,1.2139,optionRight,80,6100,3,24,0,24,0,1,,,,,,,,,,,,,,,,,,,,,,,,,,,,,,,,,,,,,,,
,,,,,,,5f3172eea47594017768b6f5,2023-08-03_06h03.58.654,HF_wild_card,2022.2.4,MacIntel,60.0024001,5f3172eea47594017768b6f5,64b543b0a84ad6ab4a25b86a,64cb352a2290629906618e39,,,,,,,sngl,resources/DR.BMP,resources/Empty.png,Door4,-0.306814215,-0.000785334,1,0,0,0.8974,optionLeft,80,6180,3,25,0,25,0,1,,,,,,,,,,,,,,,,,,,,,,,,,,,,,,,,,,,,,,,
,,,,,,,5f3172eea47594017768b6f5,2023-08-03_06h03.58.654,HF_wild_card,2022.2.4,MacIntel,60.0024001,5f3172eea47594017768b6f5,64b543b0a84ad6ab4a25b86a,64cb352a2290629906618e39,,,,,,,sngl,resources/Empty.png,resources/DB.BMP,Door1,0.215376512,0.060174514,1,0,0,0.9961,optionRight,30,6210,3,26,0,26,0,1,,,,,,,,,,,,,,,,,,,,,,,,,,,,,,,,,,,,,,,
,,,,,,,5f3172eea47594017768b6f5,2023-08-03_06h03.58.654,HF_wild_card,2022.2.4,MacIntel,60.0024001,5f3172eea47594017768b6f5,64b543b0a84ad6ab4a25b86a,64cb352a2290629906618e39,,,,,,,sngl,resources/Empty.png,resources/DY.BMP,WildCard_NonEx,0.250372245,0.072444553,1,0,0,0.8131,optionRight,55,6265,3,27,0,27,0,1,,,,,,,,,,,,,,,,,,,,,,,,,,,,,,,,,,,,,,,
,,,,,,,5f3172eea47594017768b6f5,2023-08-03_06h03.58.654,HF_wild_card,2022.2.4,MacIntel,60.0024001,5f3172eea47594017768b6f5,64b543b0a84ad6ab4a25b86a,64cb352a2290629906618e39,,,,,,,decisionTrl,resources/DBN.BMP,resources/DR.BMP,Door3,-0.331121176,0.091009877,1,0,0,2.8733,optionLeft,70,6335,3,28,0,28,0,1,,,,,,,,,,,,,,,,,,,,,,,,,,,,,,,,,,,,,,,
,,,,,,,5f3172eea47594017768b6f5,2023-08-03_06h03.58.654,HF_wild_card,2022.2.4,MacIntel,60.0024001,5f3172eea47594017768b6f5,64b543b0a84ad6ab4a25b86a,64cb352a2290629906618e39,,,,,,,decisionTrl,resources/DR.BMP,resources/DBN.BMP,Door3,0.414087254,0.193788478,1,0,0,1.631,optionRight,70,6405,3,29,0,29,0,1,,,,,,,,,,,,,,,,,,,,,,,,,,,,,,,,,,,,,,,
,,,,,,,5f3172eea47594017768b6f5,2023-08-03_06h03.58.654,HF_wild_card,2022.2.4,MacIntel,60.0024001,5f3172eea47594017768b6f5,64b543b0a84ad6ab4a25b86a,64cb352a2290629906618e39,,,,,,,sngl,resources/Empty.png,resources/DG.BMP,Door2,0.231549591,0.038189829,1,0,0,1.6601,optionRight,20,6425,3,30,0,30,0,1,,,,,,,,,,,,,,,,,,,,,,,,,,,,,,,,,,,,,,,
,,,,,,,5f3172eea47594017768b6f5,2023-08-03_06h03.58.654,HF_wild_card,2022.2.4,MacIntel,60.0024001,5f3172eea47594017768b6f5,64b543b0a84ad6ab4a25b86a,64cb352a2290629906618e39,,,,,,,ctch,resources/DG.BMP,resources/DBN.BMP,Door3,0.382279119,0.094948192,1,0,0,2.8476,optionRight,70,6495,3,31,0,31,0,1,,,,,,,,,,,,,,,,,,,,,,,,,,,,,,,,,,,,,,,
,,,,,,,5f3172eea47594017768b6f5,2023-08-03_06h03.58.654,HF_wild_card,2022.2.4,MacIntel,60.0024001,5f3172eea47594017768b6f5,64b543b0a84ad6ab4a25b86a,64cb352a2290629906618e39,,,,,,,decisionTrl,resources/DB.BMP,resources/DG.BMP,Door2,0.335163073,0.031856174,1,0,0,1.008,optionRight,20,6515,3,32,0,32,0,1,,,,,,,,,,,,,,,,,,,,,,,,,,,,,,,,,,,,,,,
,,,,,,,5f3172eea47594017768b6f5,2023-08-03_06h03.58.654,HF_wild_card,2022.2.4,MacIntel,60.0024001,5f3172eea47594017768b6f5,64b543b0a84ad6ab4a25b86a,64cb352a2290629906618e39,,,,,,,decisionTrl,resources/DY.BMP,resources/DB.BMP,WildCard_NonEx,-0.257616012,0.078737904,1,0,0,3.9265,optionLeft,55,6570,3,33,0,33,0,1,,,,,,,,,,,,,,,,,,,,,,,,,,,,,,,,,,,,,,,
,,,,,,,5f3172eea47594017768b6f5,2023-08-03_06h03.58.654,HF_wild_card,2022.2.4,MacIntel,60.0024001,5f3172eea47594017768b6f5,64b543b0a84ad6ab4a25b86a,64cb352a2290629906618e39,,,,,,,decisionTrl,resources/DR.BMP,resources/DBN.BMP,Door3,0.216757036,0.007037647,1,0,0,1.5635,optionRight,70,6640,3,34,0,34,0,1,,,,,,,,,,,,,,,,,,,,,,,,,,,,,,,,,,,,,,,
,,,,,,,5f3172eea47594017768b6f5,2023-08-03_06h03.58.654,HF_wild_card,2022.2.4,MacIntel,60.0024001,5f3172eea47594017768b6f5,64b543b0a84ad6ab4a25b86a,64cb352a2290629906618e39,,,,,,,decisionTrl,resources/DB.BMP,resources/DG.BMP,Door1,-0.305956629,0.012896249,1,0,0,2.7981,optionLeft,30,6670,3,35,0,35,0,1,,,,,,,,,,,,,,,,,,,,,,,,,,,,,,,,,,,,,,,
,,,,,,,5f3172eea47594017768b6f5,2023-08-03_06h03.58.654,HF_wild_card,2022.2.4,MacIntel,60.0024001,5f3172eea47594017768b6f5,64b543b0a84ad6ab4a25b86a,64cb352a2290629906618e39,,,,,,,decisionTrl,resources/DY.BMP,resources/DBN.BMP,Door3,0.364465904,0.050483501,1,0,0,1.0973,optionRight,70,6740,3,36,0,36,0,1,,,,,,,,,,,,,,,,,,,,,,,,,,,,,,,,,,,,,,,
,,,,,,,5f3172eea47594017768b6f5,2023-08-03_06h03.58.654,HF_wild_card,2022.2.4,MacIntel,60.0024001,5f3172eea47594017768b6f5,64b543b0a84ad6ab4a25b86a,64cb352a2290629906618e39,,,,,,,ctch,resources/DBN.BMP,resources/DG.BMP,Door3,-0.323780674,0.099095372,1,0,0,1.3643,optionLeft,70,6810,3,37,0,37,0,1,,,,,,,,,,,,,,,,,,,,,,,,,,,,,,,,,,,,,,,
,,,,,,,5f3172eea47594017768b6f5,2023-08-03_06h03.58.654,HF_wild_card,2022.2.4,MacIntel,60.0024001,5f3172eea47594017768b6f5,64b543b0a84ad6ab4a25b86a,64cb352a2290629906618e39,,,,,,,sngl,resources/DBN.BMP,resources/Empty.png,Door3,-0.38625677,0.055709665,1,0,0,0.763,optionLeft,70,6880,3,38,0,38,0,1,,,,,,,,,,,,,,,,,,,,,,,,,,,,,,,,,,,,,,,
,,,,,,,5f3172eea47594017768b6f5,2023-08-03_06h03.58.654,HF_wild_card,2022.2.4,MacIntel,60.0024001,5f3172eea47594017768b6f5,64b543b0a84ad6ab4a25b86a,64cb352a2290629906618e39,,,,,,,decisionTrl,resources/DR.BMP,resources/DY.BMP,Door4,-0.262474843,0.047278691,1,0,0,1.7782,optionLeft,80,6960,3,39,0,39,0,1,,,,,,,,,,,,,,,,,,,,,,,,,,,,,,,,,,,,,,,
,,,,,,,5f3172eea47594017768b6f5,2023-08-03_06h03.58.654,HF_wild_card,2022.2.4,MacIntel,60.0024001,5f3172eea47594017768b6f5,64b543b0a84ad6ab4a25b86a,64cb352a2290629906618e39,,,,,,,ctch,resources/DR.BMP,resources/DB.BMP,Door4,-0.308814374,0.01344893,1,0,0,1.0478,optionLeft,60,7020,3,40,0,40,0,1,,,,,,,,,,,,,,,,,,,,,,,,,,,,,,,,,,,,,,,
,,,,,,,5f3172eea47594017768b6f5,2023-08-03_06h03.58.654,HF_wild_card,2022.2.4,MacIntel,60.0024001,5f3172eea47594017768b6f5,64b543b0a84ad6ab4a25b86a,64cb352a2290629906618e39,,,,,,,decisionTrl,resources/DG.BMP,resources/DB.BMP,Door1,0.344026089,0.009958671,1,0,0,2.5804,optionRight,30,7050,3,41,0,41,0,1,,,,,,,,,,,,,,,,,,,,,,,,,,,,,,,,,,,,,,,
,,,,,,,5f3172eea47594017768b6f5,2023-08-03_06h03.58.654,HF_wild_card,2022.2.4,MacIntel,60.0024001,5f3172eea47594017768b6f5,64b543b0a84ad6ab4a25b86a,64cb352a2290629906618e39,,,,,,,ctch,resources/DBN.BMP,resources/DG.BMP,Door3,-0.323678833,0.066196572,1,0,0,1.0145,optionLeft,70,7120,3,42,0,42,0,1,,,,,,,,,,,,,,,,,,,,,,,,,,,,,,,,,,,,,,,
,,,,,,,5f3172eea47594017768b6f5,2023-08-03_06h03.58.654,HF_wild_card,2022.2.4,MacIntel,60.0024001,5f3172eea47594017768b6f5,64b543b0a84ad6ab4a25b86a,64cb352a2290629906618e39,,,,,,,decisionTrl,resources/DBN.BMP,resources/DR.BMP,Door3,-0.33151775,0.123243093,1,0,0,0.9439,optionLeft,70,7190,3,43,0,43,0,1,,,,,,,,,,,,,,,,,,,,,,,,,,,,,,,,,,,,,,,
,,,,,,,5f3172eea47594017768b6f5,2023-08-03_06h03.58.654,HF_wild_card,2022.2.4,MacIntel,60.0024001,5f3172eea47594017768b6f5,64b543b0a84ad6ab4a25b86a,64cb352a2290629906618e39,,,,,,,,,,,,,,,,,,,,,,,,,,2,0,2,0,1,,,,,,,,,,,,,,,,,,,,,,,,,,,,,,,,,,
,,,,,,,5f3172eea47594017768b6f5,2023-08-03_06h03.58.654,HF_wild_card,2022.2.4,MacIntel,60.0024001,5f3172eea47594017768b6f5,64b543b0a84ad6ab4a25b86a,64cb352a2290629906618e39,,,,,,,sngl,resources/DG.BMP,resources/Empty.png,Door2,-0.37485596,-0.00291789,1,0,0,0.8955,optionLeft,20,7210,4,0,0,0,0,1,,,,,,,,,,,,,,,,,,,,,,,,,,,,,,,,,,,,,,,
,,,,,,,5f3172eea47594017768b6f5,2023-08-03_06h03.58.654,HF_wild_card,2022.2.4,MacIntel,60.0024001,5f3172eea47594017768b6f5,64b543b0a84ad6ab4a25b86a,64cb352a2290629906618e39,,,,,,,sngl,resources/DR.BMP,resources/Empty.png,Door4,-0.415029973,0.150418474,1,0,0,0.8434,optionLeft,60,7270,4,1,0,1,0,1,,,,,,,,,,,,,,,,,,,,,,,,,,,,,,,,,,,,,,,
,,,,,,,5f3172eea47594017768b6f5,2023-08-03_06h03.58.654,HF_wild_card,2022.2.4,MacIntel,60.0024001,5f3172eea47594017768b6f5,64b543b0a84ad6ab4a25b86a,64cb352a2290629906618e39,,,,,,,decisionTrl,resources/DP.BMP,resources/DG.BMP,WildCard_Ex,-0.259605417,-0.00909594,1,0,0,1.8284,optionLeft,55,7325,4,2,0,2,0,1,,,,,,,,,,,,,,,,,,,,,,,,,,,,,,,,,,,,,,,
,,,,,,,5f3172eea47594017768b6f5,2023-08-03_06h03.58.654,HF_wild_card,2022.2.4,MacIntel,60.0024001,5f3172eea47594017768b6f5,64b543b0a84ad6ab4a25b86a,64cb352a2290629906618e39,,,,,,,sngl,resources/Empty.png,resources/DB.BMP,Door1,0.347485367,-0.006014902,1,0,0,0.8147,optionRight,30,7355,4,3,0,3,0,1,,,,,,,,,,,,,,,,,,,,,,,,,,,,,,,,,,,,,,,
,,,,,,,5f3172eea47594017768b6f5,2023-08-03_06h03.58.654,HF_wild_card,2022.2.4,MacIntel,60.0024001,5f3172eea47594017768b6f5,64b543b0a84ad6ab4a25b86a,64cb352a2290629906618e39,,,,,,,decisionTrl,resources/DG.BMP,resources/DB.BMP,Door1,0.326085234,0.038062034,1,0,0,1.8231,optionRight,30,7385,4,4,0,4,0,1,,,,,,,,,,,,,,,,,,,,,,,,,,,,,,,,,,,,,,,
,,,,,,,5f3172eea47594017768b6f5,2023-08-03_06h03.58.654,HF_wild_card,2022.2.4,MacIntel,60.0024001,5f3172eea47594017768b6f5,64b543b0a84ad6ab4a25b86a,64cb352a2290629906618e39,,,,,,,ctch,resources/DG.BMP,resources/DBN.BMP,Door3,0.346769886,0.061017093,1,0,0,0.9462,optionRight,70,7455,4,5,0,5,0,1,,,,,,,,,,,,,,,,,,,,,,,,,,,,,,,,,,,,,,,
,,,,,,,5f3172eea47594017768b6f5,2023-08-03_06h03.58.654,HF_wild_card,2022.2.4,MacIntel,60.0024001,5f3172eea47594017768b6f5,64b543b0a84ad6ab4a25b86a,64cb352a2290629906618e39,,,,,,,decisionTrl,resources/DB.BMP,resources/DG.BMP,Door1,-0.157944905,0.006144709,1,0,0,1.6789,optionLeft,30,7485,4,6,0,6,0,1,,,,,,,,,,,,,,,,,,,,,,,,,,,,,,,,,,,,,,,
,,,,,,,5f3172eea47594017768b6f5,2023-08-03_06h03.58.654,HF_wild_card,2022.2.4,MacIntel,60.0024001,5f3172eea47594017768b6f5,64b543b0a84ad6ab4a25b86a,64cb352a2290629906618e39,,,,,,,decisionTrl,resources/DG.BMP,resources/DB.BMP,Door1,0.394955943,-0.009648583,1,0,0,2.0217,optionRight,30,7515,4,7,0,7,0,1,,,,,,,,,,,,,,,,,,,,,,,,,,,,,,,,,,,,,,,
,,,,,,,5f3172eea47594017768b6f5,2023-08-03_06h03.58.654,HF_wild_card,2022.2.4,MacIntel,60.0024001,5f3172eea47594017768b6f5,64b543b0a84ad6ab4a25b86a,64cb352a2290629906618e39,,,,,,,decisionTrl,resources/DG.BMP,resources/DB.BMP,Door1,0.25712278,-0.001517988,1,0,0,1.7134,optionRight,30,7545,4,8,0,8,0,1,,,,,,,,,,,,,,,,,,,,,,,,,,,,,,,,,,,,,,,
,,,,,,,5f3172eea47594017768b6f5,2023-08-03_06h03.58.654,HF_wild_card,2022.2.4,MacIntel,60.0024001,5f3172eea47594017768b6f5,64b543b0a84ad6ab4a25b86a,64cb352a2290629906618e39,,,,,,,ctch,resources/DBN.BMP,resources/DG.BMP,Door3,-0.315771647,0.048343634,1,0,0,0.7637,optionLeft,70,7615,4,9,0,9,0,1,,,,,,,,,,,,,,,,,,,,,,,,,,,,,,,,,,,,,,,
,,,,,,,5f3172eea47594017768b6f5,2023-08-03_06h03.58.654,HF_wild_card,2022.2.4,MacIntel,60.0024001,5f3172eea47594017768b6f5,64b543b0a84ad6ab4a25b86a,64cb352a2290629906618e39,,,,,,,ctch,resources/DG.BMP,resources/DBN.BMP,Door3,0.240022338,0.063525685,1,0,0,1.1155,optionRight,70,7685,4,10,0,10,0,1,,,,,,,,,,,,,,,,,,,,,,,,,,,,,,,,,,,,,,,
,,,,,,,5f3172eea47594017768b6f5,2023-08-03_06h03.58.654,HF_wild_card,2022.2.4,MacIntel,60.0024001,5f3172eea47594017768b6f5,64b543b0a84ad6ab4a25b86a,64cb352a2290629906618e39,,,,,,,sngl,resources/DB.BMP,resources/Empty.png,Door1,-0.292708596,0.006179829,1,0,0,0.7647,optionLeft,30,7715,4,11,0,11,0,1,,,,,,,,,,,,,,,,,,,,,,,,,,,,,,,,,,,,,,,
,,,,,,,5f3172eea47594017768b6f5,2023-08-03_06h03.58.654,HF_wild_card,2022.2.4,MacIntel,60.0024001,5f3172eea47594017768b6f5,64b543b0a84ad6ab4a25b86a,64cb352a2290629906618e39,,,,,,,decisionTrl,resources/DB.BMP,resources/DG.BMP,Door1,-0.374670263,-0.005017105,1,0,0,1.1313,optionLeft,30,7745,4,12,0,12,0,1,,,,,,,,,,,,,,,,,,,,,,,,,,,,,,,,,,,,,,,
,,,,,,,5f3172eea47594017768b6f5,2023-08-03_06h03.58.654,HF_wild_card,2022.2.4,MacIntel,60.0024001,5f3172eea47594017768b6f5,64b543b0a84ad6ab4a25b86a,64cb352a2290629906618e39,,,,,,,sngl,resources/Empty.png,resources/DG.BMP,Door2,0.250965887,0.079776546,1,0,0,0.7628,optionRight,40,7785,4,13,0,13,0,1,,,,,,,,,,,,,,,,,,,,,,,,,,,,,,,,,,,,,,,
,,,,,,,5f3172eea47594017768b6f5,2023-08-03_06h03.58.654,HF_wild_card,2022.2.4,MacIntel,60.0024001,5f3172eea47594017768b6f5,64b543b0a84ad6ab4a25b86a,64cb352a2290629906618e39,,,,,,,sngl,resources/Empty.png,resources/DP.BMP,WildCard_Ex,0.197020556,-0.010262648,1,0,0,0.9148,optionRight,55,7840,4,14,0,14,0,1,,,,,,,,,,,,,,,,,,,,,,,,,,,,,,,,,,,,,,,
,,,,,,,5f3172eea47594017768b6f5,2023-08-03_06h03.58.654,HF_wild_card,2022.2.4,MacIntel,60.0024001,5f3172eea47594017768b6f5,64b543b0a84ad6ab4a25b86a,64cb352a2290629906618e39,,,,,,,ctch,resources/DR.BMP,resources/DB.BMP,Door4,-0.349758985,0.041333062,1,0,0,1.0957,optionLeft,80,7920,4,15,0,15,0,1,,,,,,,,,,,,,,,,,,,,,,,,,,,,,,,,,,,,,,,
,,,,,,,5f3172eea47594017768b6f5,2023-08-03_06h03.58.654,HF_wild_card,2022.2.4,MacIntel,60.0024001,5f3172eea47594017768b6f5,64b543b0a84ad6ab4a25b86a,64cb352a2290629906618e39,,,,,,,decisionTrl,resources/DR.BMP,resources/DBN.BMP,Door4,-0.294944309,-0.000654097,1,0,0,1.2979,optionLeft,80,8000,4,16,0,16,0,1,,,,,,,,,,,,,,,,,,,,,,,,,,,,,,,,,,,,,,,
,,,,,,,5f3172eea47594017768b6f5,2023-08-03_06h03.58.654,HF_wild_card,2022.2.4,MacIntel,60.0024001,5f3172eea47594017768b6f5,64b543b0a84ad6ab4a25b86a,64cb352a2290629906618e39,,,,,,,sngl,resources/Empty.png,resources/DP.BMP,WildCard_Ex,0.31985903,0.034031625,1,0,0,0.9308,optionRight,45,8045,4,17,0,17,0,1,,,,,,,,,,,,,,,,,,,,,,,,,,,,,,,,,,,,,,,
,,,,,,,5f3172eea47594017768b6f5,2023-08-03_06h03.58.654,HF_wild_card,2022.2.4,MacIntel,60.0024001,5f3172eea47594017768b6f5,64b543b0a84ad6ab4a25b86a,64cb352a2290629906618e39,,,,,,,decisionTrl,resources/DBN.BMP,resources/DR.BMP,Door4,0.249241509,0.062692156,1,0,0,1.1131,optionRight,60,8105,4,18,0,18,0,1,,,,,,,,,,,,,,,,,,,,,,,,,,,,,,,,,,,,,,,
,,,,,,,5f3172eea47594017768b6f5,2023-08-03_06h03.58.654,HF_wild_card,2022.2.4,MacIntel,60.0024001,5f3172eea47594017768b6f5,64b543b0a84ad6ab4a25b86a,64cb352a2290629906618e39,,,,,,,decisionTrl,resources/DR.BMP,resources/DBN.BMP,Door4,-0.304468346,0.017999182,1,0,0,1.1958,optionLeft,60,8165,4,19,0,19,0,1,,,,,,,,,,,,,,,,,,,,,,,,,,,,,,,,,,,,,,,
,,,,,,,5f3172eea47594017768b6f5,2023-08-03_06h03.58.654,HF_wild_card,2022.2.4,MacIntel,60.0024001,5f3172eea47594017768b6f5,64b543b0a84ad6ab4a25b86a,64cb352a2290629906618e39,,,,,,,ctch,resources/DR.BMP,resources/DB.BMP,Door4,-0.389855601,0.044069665,1,0,0,1.5734,optionLeft,80,8245,4,20,0,20,0,1,,,,,,,,,,,,,,,,,,,,,,,,,,,,,,,,,,,,,,,
,,,,,,,5f3172eea47594017768b6f5,2023-08-03_06h03.58.654,HF_wild_card,2022.2.4,MacIntel,60.0024001,5f3172eea47594017768b6f5,64b543b0a84ad6ab4a25b86a,64cb352a2290629906618e39,,,,,,,ctch,resources/DB.BMP,resources/DR.BMP,Door4,0.425762529,0.048705475,1,0,0,1.2134,optionRight,80,8325,4,21,0,21,0,1,,,,,,,,,,,,,,,,,,,,,,,,,,,,,,,,,,,,,,,
,,,,,,,5f3172eea47594017768b6f5,2023-08-03_06h03.58.654,HF_wild_card,2022.2.4,MacIntel,60.0024001,5f3172eea47594017768b6f5,64b543b0a84ad6ab4a25b86a,64cb352a2290629906618e39,,,,,,,decisionTrl,resources/DBN.BMP,resources/DR.BMP,Door3,-0.392810198,0.03435908,1,0,0,0.8962,optionLeft,70,8395,4,22,0,22,0,1,,,,,,,,,,,,,,,,,,,,,,,,,,,,,,,,,,,,,,,
,,,,,,,5f3172eea47594017768b6f5,2023-08-03_06h03.58.654,HF_wild_card,2022.2.4,MacIntel,60.0024001,5f3172eea47594017768b6f5,64b543b0a84ad6ab4a25b86a,64cb352a2290629906618e39,,,,,,,decisionTrl,resources/DP.BMP,resources/DB.BMP,WildCard_Ex,-0.288276276,0.054894316,1,0,0,0.9625,optionLeft,55,8450,4,23,0,23,0,1,,,,,,,,,,,,,,,,,,,,,,,,,,,,,,,,,,,,,,,
,,,,,,,5f3172eea47594017768b6f5,2023-08-03_06h03.58.654,HF_wild_card,2022.2.4,MacIntel,60.0024001,5f3172eea47594017768b6f5,64b543b0a84ad6ab4a25b86a,64cb352a2290629906618e39,,,,,,,decisionTrl,resources/DBN.BMP,resources/DR.BMP,Door3,-0.350795499,0.104749169,1,0,0,0.8765,optionLeft,70,8520,4,24,0,24,0,1,,,,,,,,,,,,,,,,,,,,,,,,,,,,,,,,,,,,,,,
,,,,,,,5f3172eea47594017768b6f5,2023-08-03_06h03.58.654,HF_wild_card,2022.2.4,MacIntel,60.0024001,5f3172eea47594017768b6f5,64b543b0a84ad6ab4a25b86a,64cb352a2290629906618e39,,,,,,,decisionTrl,resources/DP.BMP,resources/DBN.BMP,Door3,0.282173263,0.115608825,1,0,0,1.8464,optionRight,70,8590,4,25,0,25,0,1,,,,,,,,,,,,,,,,,,,,,,,,,,,,,,,,,,,,,,,
,,,,,,,5f3172eea47594017768b6f5,2023-08-03_06h03.58.654,HF_wild_card,2022.2.4,MacIntel,60.0024001,5f3172eea47594017768b6f5,64b543b0a84ad6ab4a25b86a,64cb352a2290629906618e39,,,,,,,decisionTrl,resources/DP.BMP,resources/DR.BMP,Door4,0.258484815,0.022829276,1,0,0,1.4485,optionRight,80,8670,4,26,0,26,0,1,,,,,,,,,,,,,,,,,,,,,,,,,,,,,,,,,,,,,,,
,,,,,,,5f3172eea47594017768b6f5,2023-08-03_06h03.58.654,HF_wild_card,2022.2.4,MacIntel,60.0024001,5f3172eea47594017768b6f5,64b543b0a84ad6ab4a25b86a,64cb352a2290629906618e39,,,,,,,decisionTrl,resources/DG.BMP,resources/DB.BMP,Door1,0.375070628,0.041604355,1,0,0,2.0305,optionRight,30,8700,4,27,0,27,0,1,,,,,,,,,,,,,,,,,,,,,,,,,,,,,,,,,,,,,,,
,,,,,,,5f3172eea47594017768b6f5,2023-08-03_06h03.58.654,HF_wild_card,2022.2.4,MacIntel,60.0024001,5f3172eea47594017768b6f5,64b543b0a84ad6ab4a25b86a,64cb352a2290629906618e39,,,,,,,decisionTrl,resources/DR.BMP,resources/DP.BMP,Door4,-0.393810664,-0.003008283,1,0,0,1.1799,optionLeft,60,8760,4,28,0,28,0,1,,,,,,,,,,,,,,,,,,,,,,,,,,,,,,,,,,,,,,,
,,,,,,,5f3172eea47594017768b6f5,2023-08-03_06h03.58.654,HF_wild_card,2022.2.4,MacIntel,60.0024001,5f3172eea47594017768b6f5,64b543b0a84ad6ab4a25b86a,64cb352a2290629906618e39,,,,,,,ctch,resources/DB.BMP,resources/DR.BMP,Door4,0.323689005,0.044190962,1,0,0,1.5273,optionRight,60,8820,4,29,0,29,0,1,,,,,,,,,,,,,,,,,,,,,,,,,,,,,,,,,,,,,,,
,,,,,,,5f3172eea47594017768b6f5,2023-08-03_06h03.58.654,HF_wild_card,2022.2.4,MacIntel,60.0024001,5f3172eea47594017768b6f5,64b543b0a84ad6ab4a25b86a,64cb352a2290629906618e39,,,,,,,decisionTrl,resources/DB.BMP,resources/DP.BMP,WildCard_Ex,0.289732649,0.022548622,1,0,0,1.8635,optionRight,55,8875,4,30,0,30,0,1,,,,,,,,,,,,,,,,,,,,,,,,,,,,,,,,,,,,,,,
,,,,,,,5f3172eea47594017768b6f5,2023-08-03_06h03.58.654,HF_wild_card,2022.2.4,MacIntel,60.0024001,5f3172eea47594017768b6f5,64b543b0a84ad6ab4a25b86a,64cb352a2290629906618e39,,,,,,,decisionTrl,resources/DR.BMP,resources/DBN.BMP,Door3,0.367780137,0.077772211,1,0,0,0.6808,optionRight,70,8945,4,31,0,31,0,1,,,,,,,,,,,,,,,,,,,,,,,,,,,,,,,,,,,,,,,
,,,,,,,5f3172eea47594017768b6f5,2023-08-03_06h03.58.654,HF_wild_card,2022.2.4,MacIntel,60.0024001,5f3172eea47594017768b6f5,64b543b0a84ad6ab4a25b86a,64cb352a2290629906618e39,,,,,,,decisionTrl,resources/DG.BMP,resources/DP.BMP,WildCard_Ex,0.236624095,0.006700446,1,0,0,1.5475,optionRight,45,8990,4,32,0,32,0,1,,,,,,,,,,,,,,,,,,,,,,,,,,,,,,,,,,,,,,,
,,,,,,,5f3172eea47594017768b6f5,2023-08-03_06h03.58.654,HF_wild_card,2022.2.4,MacIntel,60.0024001,5f3172eea47594017768b6f5,64b543b0a84ad6ab4a25b86a,64cb352a2290629906618e39,,,,,,,sngl,resources/DP.BMP,resources/Empty.png,WildCard_Ex,-0.301014483,0.033051195,1,0,0,0.6803,optionLeft,55,9045,4,33,0,33,0,1,,,,,,,,,,,,,,,,,,,,,,,,,,,,,,,,,,,,,,,
,,,,,,,5f3172eea47594017768b6f5,2023-08-03_06h03.58.654,HF_wild_card,2022.2.4,MacIntel,60.0024001,5f3172eea47594017768b6f5,64b543b0a84ad6ab4a25b86a,64cb352a2290629906618e39,,,,,,,sngl,resources/Empty.png,resources/DBN.BMP,Door3,0.368730552,0.080123766,1,0,0,0.6952,optionRight,70,9115,4,34,0,34,0,1,,,,,,,,,,,,,,,,,,,,,,,,,,,,,,,,,,,,,,,
,,,,,,,5f3172eea47594017768b6f5,2023-08-03_06h03.58.654,HF_wild_card,2022.2.4,MacIntel,60.0024001,5f3172eea47594017768b6f5,64b543b0a84ad6ab4a25b86a,64cb352a2290629906618e39,,,,,,,decisionTrl,resources/DR.BMP,resources/DBN.BMP,Door3,0.264040097,0.054447537,1,0,0,0.8642,optionRight,70,9185,4,35,0,35,0,1,,,,,,,,,,,,,,,,,,,,,,,,,,,,,,,,,,,,,,,
,,,,,,,5f3172eea47594017768b6f5,2023-08-03_06h03.58.654,HF_wild_card,2022.2.4,MacIntel,60.0024001,5f3172eea47594017768b6f5,64b543b0a84ad6ab4a25b86a,64cb352a2290629906618e39,,,,,,,decisionTrl,resources/DB.BMP,resources/DG.BMP,Door1,-0.28665107,0.037094174,1,0,0,1.9959,optionLeft,30,9215,4,36,0,36,0,1,,,,,,,,,,,,,,,,,,,,,,,,,,,,,,,,,,,,,,,
,,,,,,,5f3172eea47594017768b6f5,2023-08-03_06h03.58.654,HF_wild_card,2022.2.4,MacIntel,60.0024001,5f3172eea47594017768b6f5,64b543b0a84ad6ab4a25b86a,64cb352a2290629906618e39,,,,,,,sngl,resources/DBN.BMP,resources/Empty.png,Door3,-0.374217102,0.035485871,1,0,0,0.7658,optionLeft,70,9285,4,37,0,37,0,1,,,,,,,,,,,,,,,,,,,,,,,,,,,,,,,,,,,,,,,
,,,,,,,5f3172eea47594017768b6f5,2023-08-03_06h03.58.654,HF_wild_card,2022.2.4,MacIntel,60.0024001,5f3172eea47594017768b6f5,64b543b0a84ad6ab4a25b86a,64cb352a2290629906618e39,,,,,,,decisionTrl,resources/DBN.BMP,resources/DP.BMP,Door3,-0.35975529,0.121411612,1,0,0,0.9293,optionLeft,70,9355,4,38,0,38,0,1,,,,,,,,,,,,,,,,,,,,,,,,,,,,,,,,,,,,,,,
,,,,,,,5f3172eea47594017768b6f5,2023-08-03_06h03.58.654,HF_wild_card,2022.2.4,MacIntel,60.0024001,5f3172eea47594017768b6f5,64b543b0a84ad6ab4a25b86a,64cb352a2290629906618e39,,,,,,,decisionTrl,resources/DBN.BMP,resources/DR.BMP,Door3,-0.366048448,0.124627407,1,0,0,0.7315,optionLeft,70,9425,4,39,0,39,0,1,,,,,,,,,,,,,,,,,,,,,,,,,,,,,,,,,,,,,,,
,,,,,,,5f3172eea47594017768b6f5,2023-08-03_06h03.58.654,HF_wild_card,2022.2.4,MacIntel,60.0024001,5f3172eea47594017768b6f5,64b543b0a84ad6ab4a25b86a,64cb352a2290629906618e39,,,,,,,ctch,resources/DBN.BMP,resources/DG.BMP,Door3,-0.32854451,0.125828964,1,0,0,0.8648,optionLeft,70,9495,4,40,0,40,0,1,,,,,,,,,,,,,,,,,,,,,,,,,,,,,,,,,,,,,,,
,,,,,,,5f3172eea47594017768b6f5,2023-08-03_06h03.58.654,HF_wild_card,2022.2.4,MacIntel,60.0024001,5f3172eea47594017768b6f5,64b543b0a84ad6ab4a25b86a,64cb352a2290629906618e39,,,,,,,sngl,resources/DP.BMP,resources/Empty.png,WildCard_Ex,-0.319502063,0.06321053,1,0,0,0.9308,optionLeft,45,9540,4,41,0,41,0,1,,,,,,,,,,,,,,,,,,,,,,,,,,,,,,,,,,,,,,,
,,,,,,,5f3172eea47594017768b6f5,2023-08-03_06h03.58.654,HF_wild_card,2022.2.4,MacIntel,60.0024001,5f3172eea47594017768b6f5,64b543b0a84ad6ab4a25b86a,64cb352a2290629906618e39,,,,,,,sngl,resources/Empty.png,resources/DR.BMP,Door4,-0.010259321,-0.01552985,1,0,0,0.4142,optionRight,80,9620,4,42,0,42,0,1,,,,,,,,,,,,,,,,,,,,,,,,,,,,,,,,,,,,,,,
,,,,,,,5f3172eea47594017768b6f5,2023-08-03_06h03.58.654,HF_wild_card,2022.2.4,MacIntel,60.0024001,5f3172eea47594017768b6f5,64b543b0a84ad6ab4a25b86a,64cb352a2290629906618e39,,,,,,,decisionTrl,resources/DB.BMP,resources/DG.BMP,Door1,-0.259918638,-0.015844309,1,0,0,1.1268,optionLeft,30,9650,4,43,0,43,0,1,,,,,,,,,,,,,,,,,,,,,,,,,,,,,,,,,,,,,,,
,,,,,,,5f3172eea47594017768b6f5,2023-08-03_06h03.58.654,HF_wild_card,2022.2.4,MacIntel,60.0024001,5f3172eea47594017768b6f5,64b543b0a84ad6ab4a25b86a,64cb352a2290629906618e39,,,,,,,,,,,,,,,,,,,,,,,,,,3,0,3,0,1,,,,,,,,,,,,,,,,,,,,,,,,,,,,,,,,,,
,,,,,,,5f3172eea47594017768b6f5,2023-08-03_06h03.58.654,HF_wild_card,2022.2.4,MacIntel,60.0024001,5f3172eea47594017768b6f5,64b543b0a84ad6ab4a25b86a,64cb352a2290629906618e39,,,,,,,decisionTrl,resources/DB.BMP,resources/DG.BMP,Door1,-0.445174687,-0.088827658,1,0,0,1.126,optionLeft,30,9680,5,0,0,0,0,1,,,,,,,,,,,,,,,,,,,,,,,,,,,,,,,,,,,,,,,
,,,,,,,5f3172eea47594017768b6f5,2023-08-03_06h03.58.654,HF_wild_card,2022.2.4,MacIntel,60.0024001,5f3172eea47594017768b6f5,64b543b0a84ad6ab4a25b86a,64cb352a2290629906618e39,,,,,,,decisionTrl,resources/DBN.BMP,resources/DR.BMP,Door3,-0.438892824,0.04737063,1,0,0,0.8122,optionLeft,70,9750,5,1,0,1,0,1,,,,,,,,,,,,,,,,,,,,,,,,,,,,,,,,,,,,,,,
,,,,,,,5f3172eea47594017768b6f5,2023-08-03_06h03.58.654,HF_wild_card,2022.2.4,MacIntel,60.0024001,5f3172eea47594017768b6f5,64b543b0a84ad6ab4a25b86a,64cb352a2290629906618e39,,,,,,,ctch,resources/DB.BMP,resources/DR.BMP,Door4,0.289477988,0.08479516,1,0,0,0.898,optionRight,60,9810,5,2,0,2,0,1,,,,,,,,,,,,,,,,,,,,,,,,,,,,,,,,,,,,,,,
,,,,,,,5f3172eea47594017768b6f5,2023-08-03_06h03.58.654,HF_wild_card,2022.2.4,MacIntel,60.0024001,5f3172eea47594017768b6f5,64b543b0a84ad6ab4a25b86a,64cb352a2290629906618e39,,,,,,,ctch,resources/DR.BMP,resources/DB.BMP,Door4,-0.379336745,-0.00913957,1,0,0,1.0291,optionLeft,60,9870,5,3,0,3,0,1,,,,,,,,,,,,,,,,,,,,,,,,,,,,,,,,,,,,,,,
,,,,,,,5f3172eea47594017768b6f5,2023-08-03_06h03.58.654,HF_wild_card,2022.2.4,MacIntel,60.0024001,5f3172eea47594017768b6f5,64b543b0a84ad6ab4a25b86a,64cb352a2290629906618e39,,,,,,,decisionTrl,resources/DR.BMP,resources/DBN.BMP,Door4,-0.327876953,-0.010131217,1,0,0,1.4975,optionLeft,60,9930,5,4,0,4,0,1,,,,,,,,,,,,,,,,,,,,,,,,,,,,,,,,,,,,,,,
,,,,,,,5f3172eea47594017768b6f5,2023-08-03_06h03.58.654,HF_wild_card,2022.2.4,MacIntel,60.0024001,5f3172eea47594017768b6f5,64b543b0a84ad6ab4a25b86a,64cb352a2290629906618e39,,,,,,,sngl,resources/DBN.BMP,resources/Empty.png,Door3,-0.313195522,0.074364646,1,0,0,0.6632,optionLeft,70,10000,5,5,0,5,0,1,,,,,,,,,,,,,,,,,,,,,,,,,,,,,,,,,,,,,,,
,,,,,,,5f3172eea47594017768b6f5,2023-08-03_06h03.58.654,HF_wild_card,2022.2.4,MacIntel,60.0024001,5f3172eea47594017768b6f5,64b543b0a84ad6ab4a25b86a,64cb352a2290629906618e39,,,,,,,decisionTrl,resources/DB.BMP,resources/DG.BMP,Door1,-0.31196132,-0.002427714,1,0,0,1.4801,optionLeft,30,10030,5,6,0,6,0,1,,,,,,,,,,,,,,,,,,,,,,,,,,,,,,,,,,,,,,,
,,,,,,,5f3172eea47594017768b6f5,2023-08-03_06h03.58.654,HF_wild_card,2022.2.4,MacIntel,60.0024001,5f3172eea47594017768b6f5,64b543b0a84ad6ab4a25b86a,64cb352a2290629906618e39,,,,,,,decisionTrl,resources/DB.BMP,resources/DG.BMP,Door1,-0.278534941,0.018323079,1,0,0,0.6803,optionLeft,30,10060,5,7,0,7,0,1,,,,,,,,,,,,,,,,,,,,,,,,,,,,,,,,,,,,,,,
,,,,,,,5f3172eea47594017768b6f5,2023-08-03_06h03.58.654,HF_wild_card,2022.2.4,MacIntel,60.0024001,5f3172eea47594017768b6f5,64b543b0a84ad6ab4a25b86a,64cb352a2290629906618e39,,,,,,,decisionTrl,resources/DR.BMP,resources/DBN.BMP,Door3,0.570897014,0.237607543,1,0,0,1.8805,optionRight,70,10130,5,8,0,8,0,1,,,,,,,,,,,,,,,,,,,,,,,,,,,,,,,,,,,,,,,
,,,,,,,5f3172eea47594017768b6f5,2023-08-03_06h03.58.654,HF_wild_card,2022.2.4,MacIntel,60.0024001,5f3172eea47594017768b6f5,64b543b0a84ad6ab4a25b86a,64cb352a2290629906618e39,,,,,,,sngl,resources/DB.BMP,resources/Empty.png,Door1,-0.277140454,0.004069513,1,0,0,0.714,optionLeft,30,10160,5,9,0,9,0,1,,,,,,,,,,,,,,,,,,,,,,,,,,,,,,,,,,,,,,,
,,,,,,,5f3172eea47594017768b6f5,2023-08-03_06h03.58.654,HF_wild_card,2022.2.4,MacIntel,60.0024001,5f3172eea47594017768b6f5,64b543b0a84ad6ab4a25b86a,64cb352a2290629906618e39,,,,,,,decisionTrl,resources/DP.BMP,resources/DB.BMP,WildCard_Ex,-0.278305847,0.015169209,1,0,0,2.0805,optionLeft,55,10215,5,10,0,10,0,1,,,,,,,,,,,,,,,,,,,,,,,,,,,,,,,,,,,,,,,
,,,,,,,5f3172eea47594017768b6f5,2023-08-03_06h03.58.654,HF_wild_card,2022.2.4,MacIntel,60.0024001,5f3172eea47594017768b6f5,64b543b0a84ad6ab4a25b86a,64cb352a2290629906618e39,,,,,,,sngl,resources/DP.BMP,resources/Empty.png,WildCard_Ex,-0.257195264,0.017768077,1,0,0,0.7802,optionLeft,45,10260,5,11,0,11,0,1,,,,,,,,,,,,,,,,,,,,,,,,,,,,,,,,,,,,,,,
,,,,,,,5f3172eea47594017768b6f5,2023-08-03_06h03.58.654,HF_wild_card,2022.2.4,MacIntel,60.0024001,5f3172eea47594017768b6f5,64b543b0a84ad6ab4a25b86a,64cb352a2290629906618e39,,,,,,,decisionTrl,resources/DBN.BMP,resources/DR.BMP,Door3,-0.244380743,0.035939418,1,0,0,1.4291,optionLeft,70,10330,5,12,0,12,0,1,,,,,,,,,,,,,,,,,,,,,,,,,,,,,,,,,,,,,,,
,,,,,,,5f3172eea47594017768b6f5,2023-08-03_06h03.58.654,HF_wild_card,2022.2.4,MacIntel,60.0024001,5f3172eea47594017768b6f5,64b543b0a84ad6ab4a25b86a,64cb352a2290629906618e39,,,,,,,sngl,resources/Empty.png,resources/DBN.BMP,Door3,0.421481714,0.018537708,1,0,0,0.8631,optionRight,70,10400,5,13,0,13,0,1,,,,,,,,,,,,,,,,,,,,,,,,,,,,,,,,,,,,,,,
,,,,,,,5f3172eea47594017768b6f5,2023-08-03_06h03.58.654,HF_wild_card,2022.2.4,MacIntel,60.0024001,5f3172eea47594017768b6f5,64b543b0a84ad6ab4a25b86a,64cb352a2290629906618e39,,,,,,,sngl,resources/Empty.png,resources/DR.BMP,Door4,0.231832101,0.032622827,1,0,0,0.7972,optionRight,60,10460,5,14,0,14,0,1,,,,,,,,,,,,,,,,,,,,,,,,,,,,,,,,,,,,,,,
,,,,,,,5f3172eea47594017768b6f5,2023-08-03_06h03.58.654,HF_wild_card,2022.2.4,MacIntel,60.0024001,5f3172eea47594017768b6f5,64b543b0a84ad6ab4a25b86a,64cb352a2290629906618e39,,,,,,,decisionTrl,resources/DBN.BMP,resources/DR.BMP,Door3,-0.377258494,0.069645832,1,0,0,1.1145,optionLeft,70,10530,5,15,0,15,0,1,,,,,,,,,,,,,,,,,,,,,,,,,,,,,,,,,,,,,,,
,,,,,,,5f3172eea47594017768b6f5,2023-08-03_06h03.58.654,HF_wild_card,2022.2.4,MacIntel,60.0024001,5f3172eea47594017768b6f5,64b543b0a84ad6ab4a25b86a,64cb352a2290629906618e39,,,,,,,sngl,resources/Empty.png,resources/DB.BMP,Door1,0.235716304,-0.015788225,1,0,0,2.2297,optionRight,30,10560,5,16,0,16,0,1,,,,,,,,,,,,,,,,,,,,,,,,,,,,,,,,,,,,,,,
,,,,,,,5f3172eea47594017768b6f5,2023-08-03_06h03.58.654,HF_wild_card,2022.2.4,MacIntel,60.0024001,5f3172eea47594017768b6f5,64b543b0a84ad6ab4a25b86a,64cb352a2290629906618e39,,,,,,,decisionTrl,resources/DR.BMP,resources/DP.BMP,WildCard_Ex,0.455065902,0.072737004,1,0,0,1.5964,optionRight,55,10615,5,17,0,17,0,1,,,,,,,,,,,,,,,,,,,,,,,,,,,,,,,,,,,,,,,
,,,,,,,5f3172eea47594017768b6f5,2023-08-03_06h03.58.654,HF_wild_card,2022.2.4,MacIntel,60.0024001,5f3172eea47594017768b6f5,64b543b0a84ad6ab4a25b86a,64cb352a2290629906618e39,,,,,,,sngl,resources/DR.BMP,resources/Empty.png,Door4,-0.463672865,-0.022997877,1,0,0,0.6636,optionLeft,80,10695,5,18,0,18,0,1,,,,,,,,,,,,,,,,,,,,,,,,,,,,,,,,,,,,,,,
,,,,,,,5f3172eea47594017768b6f5,2023-08-03_06h03.58.654,HF_wild_card,2022.2.4,MacIntel,60.0024001,5f3172eea47594017768b6f5,64b543b0a84ad6ab4a25b86a,64cb352a2290629906618e39,,,,,,,decisionTrl,resources/DB.BMP,resources/DP.BMP,WildCard_Ex,0.303144216,0.015716359,1,0,0,1.2148,optionRight,55,10750,5,19,0,19,0,1,,,,,,,,,,,,,,,,,,,,,,,,,,,,,,,,,,,,,,,
,,,,,,,5f3172eea47594017768b6f5,2023-08-03_06h03.58.654,HF_wild_card,2022.2.4,MacIntel,60.0024001,5f3172eea47594017768b6f5,64b543b0a84ad6ab4a25b86a,64cb352a2290629906618e39,,,,,,,decisionTrl,resources/DP.BMP,resources/DG.BMP,WildCard_Ex,-0.417150655,-0.004234904,1,0,0,1.0471,optionLeft,45,10795,5,20,0,20,0,1,,,,,,,,,,,,,,,,,,,,,,,,,,,,,,,,,,,,,,,
,,,,,,,5f3172eea47594017768b6f5,2023-08-03_06h03.58.654,HF_wild_card,2022.2.4,MacIntel,60.0024001,5f3172eea47594017768b6f5,64b543b0a84ad6ab4a25b86a,64cb352a2290629906618e39,,,,,,,ctch,resources/DR.BMP,resources/DB.BMP,Door4,-0.36497105,0.012331964,1,0,0,0.8791,optionLeft,80,10875,5,21,0,21,0,1,,,,,,,,,,,,,,,,,,,,,,,,,,,,,,,,,,,,,,,
,,,,,,,5f3172eea47594017768b6f5,2023-08-03_06h03.58.654,HF_wild_card,2022.2.4,MacIntel,60.0024001,5f3172eea47594017768b6f5,64b543b0a84ad6ab4a25b86a,64cb352a2290629906618e39,,,,,,,sngl,resources/Empty.png,resources/DG.BMP,Door2,0.293789901,0.053557267,1,0,0,0.7305,optionRight,20,10895,5,22,0,22,0,1,,,,,,,,,,,,,,,,,,,,,,,,,,,,,,,,,,,,,,,
,,,,,,,5f3172eea47594017768b6f5,2023-08-03_06h03.58.654,HF_wild_card,2022.2.4,MacIntel,60.0024001,5f3172eea47594017768b6f5,64b543b0a84ad6ab4a25b86a,64cb352a2290629906618e39,,,,,,,sngl,resources/DG.BMP,resources/Empty.png,Door2,-0.391559325,-0.002917426,1,0,0,0.6958,optionLeft,40,10935,5,23,0,23,0,1,,,,,,,,,,,,,,,,,,,,,,,,,,,,,,,,,,,,,,,
,,,,,,,5f3172eea47594017768b6f5,2023-08-03_06h03.58.654,HF_wild_card,2022.2.4,MacIntel,60.0024001,5f3172eea47594017768b6f5,64b543b0a84ad6ab4a25b86a,64cb352a2290629906618e39,,,,,,,decisionTrl,resources/DBN.BMP,resources/DR.BMP,Door3,-0.305996275,0.006711353,1,0,0,1.9469,optionLeft,70,11005,5,24,0,24,0,1,,,,,,,,,,,,,,,,,,,,,,,,,,,,,,,,,,,,,,,
,,,,,,,5f3172eea47594017768b6f5,2023-08-03_06h03.58.654,HF_wild_card,2022.2.4,MacIntel,60.0024001,5f3172eea47594017768b6f5,64b543b0a84ad6ab4a25b86a,64cb352a2290629906618e39,,,,,,,ctch,resources/DBN.BMP,resources/DG.BMP,Door3,-0.289030126,0.011265164,1,0,0,0.7644,optionLeft,70,11075,5,25,0,25,0,1,,,,,,,,,,,,,,,,,,,,,,,,,,,,,,,,,,,,,,,
,,,,,,,5f3172eea47594017768b6f5,2023-08-03_06h03.58.654,HF_wild_card,2022.2.4,MacIntel,60.0024001,5f3172eea47594017768b6f5,64b543b0a84ad6ab4a25b86a,64cb352a2290629906618e39,,,,,,,decisionTrl,resources/DG.BMP,resources/DB.BMP,Door1,0.671747051,0.109210499,1,0,0,2.179,optionRight,30,11105,5,26,0,26,0,1,,,,,,,,,,,,,,,,,,,,,,,,,,,,,,,,,,,,,,,
,,,,,,,5f3172eea47594017768b6f5,2023-08-03_06h03.58.654,HF_wild_card,2022.2.4,MacIntel,60.0024001,5f3172eea47594017768b6f5,64b543b0a84ad6ab4a25b86a,64cb352a2290629906618e39,,,,,,,sngl,resources/Empty.png,resources/DP.BMP,WildCard_Ex,0.220239289,0.122994543,1,0,0,0.7645,optionRight,45,11150,5,27,0,27,0,1,,,,,,,,,,,,,,,,,,,,,,,,,,,,,,,,,,,,,,,
,,,,,,,5f3172eea47594017768b6f5,2023-08-03_06h03.58.654,HF_wild_card,2022.2.4,MacIntel,60.0024001,5f3172eea47594017768b6f5,64b543b0a84ad6ab4a25b86a,64cb352a2290629906618e39,,,,,,,decisionTrl,resources/DP.BMP,resources/DBN.BMP,Door3,0.195199635,0.130775249,1,0,0,1.8303,optionRight,70,11220,5,28,0,28,0,1,,,,,,,,,,,,,,,,,,,,,,,,,,,,,,,,,,,,,,,
,,,,,,,5f3172eea47594017768b6f5,2023-08-03_06h03.58.654,HF_wild_card,2022.2.4,MacIntel,60.0024001,5f3172eea47594017768b6f5,64b543b0a84ad6ab4a25b86a,64cb352a2290629906618e39,,,,,,,decisionTrl,resources/DBN.BMP,resources/DP.BMP,Door3,-0.378473937,0.022864551,1,0,0,1.1651,optionLeft,70,11290,5,29,0,29,0,1,,,,,,,,,,,,,,,,,,,,,,,,,,,,,,,,,,,,,,,
,,,,,,,5f3172eea47594017768b6f5,2023-08-03_06h03.58.654,HF_wild_card,2022.2.4,MacIntel,60.0024001,5f3172eea47594017768b6f5,64b543b0a84ad6ab4a25b86a,64cb352a2290629906618e39,,,,,,,ctch,resources/DG.BMP,resources/DBN.BMP,Door3,0.200870644,0.132581278,1,0,0,0.8664,optionRight,70,11360,5,30,0,30,0,1,,,,,,,,,,,,,,,,,,,,,,,,,,,,,,,,,,,,,,,
,,,,,,,5f3172eea47594017768b6f5,2023-08-03_06h03.58.654,HF_wild_card,2022.2.4,MacIntel,60.0024001,5f3172eea47594017768b6f5,64b543b0a84ad6ab4a25b86a,64cb352a2290629906618e39,,,,,,,decisionTrl,resources/DB.BMP,resources/DG.BMP,Door1,-0.293202022,-0.026565223,1,0,0,1.3799,optionLeft,30,11390,5,31,0,31,0,1,,,,,,,,,,,,,,,,,,,,,,,,,,,,,,,,,,,,,,,
,,,,,,,5f3172eea47594017768b6f5,2023-08-03_06h03.58.654,HF_wild_card,2022.2.4,MacIntel,60.0024001,5f3172eea47594017768b6f5,64b543b0a84ad6ab4a25b86a,64cb352a2290629906618e39,,,,,,,decisionTrl,resources/DR.BMP,resources/DBN.BMP,Door4,-0.238187957,0.023099718,1,0,0,0.7141,optionLeft,60,11450,5,32,0,32,0,1,,,,,,,,,,,,,,,,,,,,,,,,,,,,,,,,,,,,,,,
,,,,,,,5f3172eea47594017768b6f5,2023-08-03_06h03.58.654,HF_wild_card,2022.2.4,MacIntel,60.0024001,5f3172eea47594017768b6f5,64b543b0a84ad6ab4a25b86a,64cb352a2290629906618e39,,,,,,,decisionTrl,resources/DG.BMP,resources/DB.BMP,Door1,0.271863505,0.100809733,1,0,0,2.0473,optionRight,30,11480,5,33,0,33,0,1,,,,,,,,,,,,,,,,,,,,,,,,,,,,,,,,,,,,,,,
,,,,,,,5f3172eea47594017768b6f5,2023-08-03_06h03.58.654,HF_wild_card,2022.2.4,MacIntel,60.0024001,5f3172eea47594017768b6f5,64b543b0a84ad6ab4a25b86a,64cb352a2290629906618e39,,,,,,,decisionTrl,resources/DR.BMP,resources/DBN.BMP,Door3,0.309792174,0.081101489,1,0,0,0.8823,optionRight,70,11550,5,34,0,34,0,1,,,,,,,,,,,,,,,,,,,,,,,,,,,,,,,,,,,,,,,
,,,,,,,5f3172eea47594017768b6f5,2023-08-03_06h03.58.654,HF_wild_card,2022.2.4,MacIntel,60.0024001,5f3172eea47594017768b6f5,64b543b0a84ad6ab4a25b86a,64cb352a2290629906618e39,,,,,,,decisionTrl,resources/DG.BMP,resources/DB.BMP,Door1,0.232006851,0.039517904,1,0,0,1.1286,optionRight,30,11580,5,35,0,35,0,1,,,,,,,,,,,,,,,,,,,,,,,,,,,,,,,,,,,,,,,
,,,,,,,5f3172eea47594017768b6f5,2023-08-03_06h03.58.654,HF_wild_card,2022.2.4,MacIntel,60.0024001,5f3172eea47594017768b6f5,64b543b0a84ad6ab4a25b86a,64cb352a2290629906618e39,,,,,,,ctch,resources/DG.BMP,resources/DBN.BMP,Door3,0.229282394,0.017333559,1,0,0,0.9305,optionRight,70,11650,5,36,0,36,0,1,,,,,,,,,,,,,,,,,,,,,,,,,,,,,,,,,,,,,,,
,,,,,,,5f3172eea47594017768b6f5,2023-08-03_06h03.58.654,HF_wild_card,2022.2.4,MacIntel,60.0024001,5f3172eea47594017768b6f5,64b543b0a84ad6ab4a25b86a,64cb352a2290629906618e39,,,,,,,ctch,resources/DBN.BMP,resources/DG.BMP,Door3,-0.392289117,-0.011188077,1,0,0,2.231,optionLeft,70,11720,5,37,0,37,0,1,,,,,,,,,,,,,,,,,,,,,,,,,,,,,,,,,,,,,,,
,,,,,,,5f3172eea47594017768b6f5,2023-08-03_06h03.58.654,HF_wild_card,2022.2.4,MacIntel,60.0024001,5f3172eea47594017768b6f5,64b543b0a84ad6ab4a25b86a,64cb352a2290629906618e39,,,,,,,decisionTrl,resources/DG.BMP,resources/DP.BMP,WildCard_Ex,0.278821512,0.04497324,1,0,0,0.878,optionRight,55,11775,5,38,0,38,0,1,,,,,,,,,,,,,,,,,,,,,,,,,,,,,,,,,,,,,,,
,,,,,,,5f3172eea47594017768b6f5,2023-08-03_06h03.58.654,HF_wild_card,2022.2.4,MacIntel,60.0024001,5f3172eea47594017768b6f5,64b543b0a84ad6ab4a25b86a,64cb352a2290629906618e39,,,,,,,decisionTrl,resources/DG.BMP,resources/DB.BMP,Door1,0.27252878,0.065690267,1,0,0,1.047,optionRight,30,11805,5,39,0,39,0,1,,,,,,,,,,,,,,,,,,,,,,,,,,,,,,,,,,,,,,,
,,,,,,,5f3172eea47594017768b6f5,2023-08-03_06h03.58.654,HF_wild_card,2022.2.4,MacIntel,60.0024001,5f3172eea47594017768b6f5,64b543b0a84ad6ab4a25b86a,64cb352a2290629906618e39,,,,,,,ctch,resources/DB.BMP,resources/DR.BMP,Door4,0.234171163,0.073511895,1,0,0,1.1309,optionRight,60,11865,5,40,0,40,0,1,,,,,,,,,,,,,,,,,,,,,,,,,,,,,,,,,,,,,,,
,,,,,,,5f3172eea47594017768b6f5,2023-08-03_06h03.58.654,HF_wild_card,2022.2.4,MacIntel,60.0024001,5f3172eea47594017768b6f5,64b543b0a84ad6ab4a25b86a,64cb352a2290629906618e39,,,,,,,sngl,resources/Empty.png,resources/DP.BMP,WildCard_Ex,0.362864215,0.023317016,1,0,0,0.8805,optionRight,55,11920,5,41,0,41,0,1,,,,,,,,,,,,,,,,,,,,,,,,,,,,,,,,,,,,,,,
,,,,,,,5f3172eea47594017768b6f5,2023-08-03_06h03.58.654,HF_wild_card,2022.2.4,MacIntel,60.0024001,5f3172eea47594017768b6f5,64b543b0a84ad6ab4a25b86a,64cb352a2290629906618e39,,,,,,,sngl,resources/DP.BMP,resources/Empty.png,WildCard_Ex,-0.302422353,0.008876747,1,0,0,0.6809,optionLeft,55,11975,5,42,0,42,0,1,,,,,,,,,,,,,,,,,,,,,,,,,,,,,,,,,,,,,,,
,,,,,,,5f3172eea47594017768b6f5,2023-08-03_06h03.58.654,HF_wild_card,2022.2.4,MacIntel,60.0024001,5f3172eea47594017768b6f5,64b543b0a84ad6ab4a25b86a,64cb352a2290629906618e39,,,,,,,decisionTrl,resources/DP.BMP,resources/DR.BMP,Door4,0.358531415,0.089915577,1,0,0,3.0627,optionRight,60,12035,5,43,0,43,0,1,,,,,,,,,,,,,,,,,,,,,,,,,,,,,,,,,,,,,,,
,,,,,,,5f3172eea47594017768b6f5,2023-08-03_06h03.58.654,HF_wild_card,2022.2.4,MacIntel,60.0024001,5f3172eea47594017768b6f5,64b543b0a84ad6ab4a25b86a,64cb352a2290629906618e39,,,,,,,,,,,,,,,,,,,,,,,,,,4,0,4,0,1,,,,,,,,,,,,,,,,,,,,,,,,,,,,,,,,,,
,,,,,,,5f3172eea47594017768b6f5,2023-08-03_06h03.58.654,HF_wild_card,2022.2.4,MacIntel,60.0024001,5f3172eea47594017768b6f5,64b543b0a84ad6ab4a25b86a,64cb352a2290629906618e39,,,,,,,ctch,resources/DBN.BMP,resources/DG.BMP,Door3,-0.27726353,-0.069391558,1,0,0,0.8672,optionLeft,70,12105,6,0,0,0,0,1,,,,,,,,,,,,,,,,,,,,,,,,,,,,,,,,,,,,,,,
,,,,,,,5f3172eea47594017768b6f5,2023-08-03_06h03.58.654,HF_wild_card,2022.2.4,MacIntel,60.0024001,5f3172eea47594017768b6f5,64b543b0a84ad6ab4a25b86a,64cb352a2290629906618e39,,,,,,,decisionTrl,resources/DR.BMP,resources/DBN.BMP,Door3,0.25865183,0.076555298,1,0,0,0.9647,optionRight,70,12175,6,1,0,1,0,1,,,,,,,,,,,,,,,,,,,,,,,,,,,,,,,,,,,,,,,
,,,,,,,5f3172eea47594017768b6f5,2023-08-03_06h03.58.654,HF_wild_card,2022.2.4,MacIntel,60.0024001,5f3172eea47594017768b6f5,64b543b0a84ad6ab4a25b86a,64cb352a2290629906618e39,,,,,,,sngl,resources/DBN.BMP,resources/Empty.png,Door3,-0.241545896,0.011967842,1,0,0,0.6639,optionLeft,70,12245,6,2,0,2,0,1,,,,,,,,,,,,,,,,,,,,,,,,,,,,,,,,,,,,,,,
,,,,,,,5f3172eea47594017768b6f5,2023-08-03_06h03.58.654,HF_wild_card,2022.2.4,MacIntel,60.0024001,5f3172eea47594017768b6f5,64b543b0a84ad6ab4a25b86a,64cb352a2290629906618e39,,,,,,,decisionTrl,resources/DBN.BMP,resources/DR.BMP,Door3,-0.315342467,0.005523295,1,0,0,0.9817,optionLeft,70,12315,6,3,0,3,0,1,,,,,,,,,,,,,,,,,,,,,,,,,,,,,,,,,,,,,,,
,,,,,,,5f3172eea47594017768b6f5,2023-08-03_06h03.58.654,HF_wild_card,2022.2.4,MacIntel,60.0024001,5f3172eea47594017768b6f5,64b543b0a84ad6ab4a25b86a,64cb352a2290629906618e39,,,,,,,decisionTrl,resources/DBN.BMP,resources/DR.BMP,Door3,-0.262244163,0.077163754,1,0,0,0.8482,optionLeft,70,12385,6,4,0,4,0,1,,,,,,,,,,,,,,,,,,,,,,,,,,,,,,,,,,,,,,,
,,,,,,,5f3172eea47594017768b6f5,2023-08-03_06h03.58.654,HF_wild_card,2022.2.4,MacIntel,60.0024001,5f3172eea47594017768b6f5,64b543b0a84ad6ab4a25b86a,64cb352a2290629906618e39,,,,,,,decisionTrl,resources/DBN.BMP,resources/DP.BMP,Door3,-0.424957198,0.066658281,1,0,0,0.661,optionLeft,70,12455,6,5,0,5,0,1,,,,,,,,,,,,,,,,,,,,,,,,,,,,,,,,,,,,,,,
,,,,,,,5f3172eea47594017768b6f5,2023-08-03_06h03.58.654,HF_wild_card,2022.2.4,MacIntel,60.0024001,5f3172eea47594017768b6f5,64b543b0a84ad6ab4a25b86a,64cb352a2290629906618e39,,,,,,,ctch,resources/DR.BMP,resources/DB.BMP,Door4,-0.200910252,0.072293706,1,0,0,1.0976,optionLeft,60,12515,6,6,0,6,0,1,,,,,,,,,,,,,,,,,,,,,,,,,,,,,,,,,,,,,,,
,,,,,,,5f3172eea47594017768b6f5,2023-08-03_06h03.58.654,HF_wild_card,2022.2.4,MacIntel,60.0024001,5f3172eea47594017768b6f5,64b543b0a84ad6ab4a25b86a,64cb352a2290629906618e39,,,,,,,sngl,resources/Empty.png,resources/DB.BMP,Door1,0.300200449,0.051190433,1,0,0,1.2955,optionRight,30,12545,6,7,0,7,0,1,,,,,,,,,,,,,,,,,,,,,,,,,,,,,,,,,,,,,,,
,,,,,,,5f3172eea47594017768b6f5,2023-08-03_06h03.58.654,HF_wild_card,2022.2.4,MacIntel,60.0024001,5f3172eea47594017768b6f5,64b543b0a84ad6ab4a25b86a,64cb352a2290629906618e39,,,,,,,ctch,resources/DR.BMP,resources/DB.BMP,Door4,-0.277355547,-0.004313615,1,0,0,2.4809,optionLeft,60,12605,6,8,0,8,0,1,,,,,,,,,,,,,,,,,,,,,,,,,,,,,,,,,,,,,,,
,,,,,,,5f3172eea47594017768b6f5,2023-08-03_06h03.58.654,HF_wild_card,2022.2.4,MacIntel,60.0024001,5f3172eea47594017768b6f5,64b543b0a84ad6ab4a25b86a,64cb352a2290629906618e39,,,,,,,ctch,resources/DBN.BMP,resources/DG.BMP,Door3,-0.301397868,-9.08952E-05,1,0,0,0.8477,optionLeft,70,12675,6,9,0,9,0,1,,,,,,,,,,,,,,,,,,,,,,,,,,,,,,,,,,,,,,,
,,,,,,,5f3172eea47594017768b6f5,2023-08-03_06h03.58.654,HF_wild_card,2022.2.4,MacIntel,60.0024001,5f3172eea47594017768b6f5,64b543b0a84ad6ab4a25b86a,64cb352a2290629906618e39,,,,,,,decisionTrl,resources/DB.BMP,resources/DG.BMP,Door1,-0.288975395,-0.057516391,1,0,0,1.5497,optionLeft,30,12705,6,10,0,10,0,1,,,,,,,,,,,,,,,,,,,,,,,,,,,,,,,,,,,,,,,
,,,,,,,5f3172eea47594017768b6f5,2023-08-03_06h03.58.654,HF_wild_card,2022.2.4,MacIntel,60.0024001,5f3172eea47594017768b6f5,64b543b0a84ad6ab4a25b86a,64cb352a2290629906618e39,,,,,,,ctch,resources/DG.BMP,resources/DBN.BMP,Door3,0.196103404,0.020314302,1,0,0,2.2478,optionRight,70,12775,6,11,0,11,0,1,,,,,,,,,,,,,,,,,,,,,,,,,,,,,,,,,,,,,,,
,,,,,,,5f3172eea47594017768b6f5,2023-08-03_06h03.58.654,HF_wild_card,2022.2.4,MacIntel,60.0024001,5f3172eea47594017768b6f5,64b543b0a84ad6ab4a25b86a,64cb352a2290629906618e39,,,,,,,sngl,resources/DB.BMP,resources/Empty.png,Door1,-0.309748196,-0.080897729,1,0,0,0.6638,optionLeft,30,12805,6,12,0,12,0,1,,,,,,,,,,,,,,,,,,,,,,,,,,,,,,,,,,,,,,,
,,,,,,,5f3172eea47594017768b6f5,2023-08-03_06h03.58.654,HF_wild_card,2022.2.4,MacIntel,60.0024001,5f3172eea47594017768b6f5,64b543b0a84ad6ab4a25b86a,64cb352a2290629906618e39,,,,,,,ctch,resources/DB.BMP,resources/DR.BMP,Door4,0.305619505,-0.021172005,1,0,0,0.9626,optionRight,80,12885,6,13,0,13,0,1,,,,,,,,,,,,,,,,,,,,,,,,,,,,,,,,,,,,,,,
,,,,,,,5f3172eea47594017768b6f5,2023-08-03_06h03.58.654,HF_wild_card,2022.2.4,MacIntel,60.0024001,5f3172eea47594017768b6f5,64b543b0a84ad6ab4a25b86a,64cb352a2290629906618e39,,,,,,,decisionTrl,resources/DR.BMP,resources/DBN.BMP,Door3,0.00215557,0.010159801,1,0,0,0.6792,optionRight,70,12955,6,14,0,14,0,1,,,,,,,,,,,,,,,,,,,,,,,,,,,,,,,,,,,,,,,
,,,,,,,5f3172eea47594017768b6f5,2023-08-03_06h03.58.654,HF_wild_card,2022.2.4,MacIntel,60.0024001,5f3172eea47594017768b6f5,64b543b0a84ad6ab4a25b86a,64cb352a2290629906618e39,,,,,,,sngl,resources/DG.BMP,resources/Empty.png,Door2,-0.292603545,0.002116504,1,0,0,0.7971,optionLeft,20,12975,6,15,0,15,0,1,,,,,,,,,,,,,,,,,,,,,,,,,,,,,,,,,,,,,,,
,,,,,,,5f3172eea47594017768b6f5,2023-08-03_06h03.58.654,HF_wild_card,2022.2.4,MacIntel,60.0024001,5f3172eea47594017768b6f5,64b543b0a84ad6ab4a25b86a,64cb352a2290629906618e39,,,,,,,decisionTrl,resources/DP.BMP,resources/DBN.BMP,Door3,0.214205859,0.064070669,1,0,0,1.064,optionRight,70,13045,6,16,0,16,0,1,,,,,,,,,,,,,,,,,,,,,,,,,,,,,,,,,,,,,,,
,,,,,,,5f3172eea47594017768b6f5,2023-08-03_06h03.58.654,HF_wild_card,2022.2.4,MacIntel,60.0024001,5f3172eea47594017768b6f5,64b543b0a84ad6ab4a25b86a,64cb352a2290629906618e39,,,,,,,sngl,resources/DP.BMP,resources/Empty.png,WildCard_Ex,-0.260572078,0.005212356,1,0,0,0.6996,optionLeft,55,13100,6,17,0,17,0,1,,,,,,,,,,,,,,,,,,,,,,,,,,,,,,,,,,,,,,,
,,,,,,,5f3172eea47594017768b6f5,2023-08-03_06h03.58.654,HF_wild_card,2022.2.4,MacIntel,60.0024001,5f3172eea47594017768b6f5,64b543b0a84ad6ab4a25b86a,64cb352a2290629906618e39,,,,,,,decisionTrl,resources/DP.BMP,resources/DG.BMP,WildCard_Ex,-0.33431183,0.019705459,1,0,0,0.8809,optionLeft,55,13155,6,18,0,18,0,1,,,,,,,,,,,,,,,,,,,,,,,,,,,,,,,,,,,,,,,
,,,,,,,5f3172eea47594017768b6f5,2023-08-03_06h03.58.654,HF_wild_card,2022.2.4,MacIntel,60.0024001,5f3172eea47594017768b6f5,64b543b0a84ad6ab4a25b86a,64cb352a2290629906618e39,,,,,,,sngl,resources/Empty.png,resources/DP.BMP,WildCard_Ex,0.303771509,0.113931093,1,0,0,0.7648,optionRight,55,13210,6,19,0,19,0,1,,,,,,,,,,,,,,,,,,,,,,,,,,,,,,,,,,,,,,,
,,,,,,,5f3172eea47594017768b6f5,2023-08-03_06h03.58.654,HF_wild_card,2022.2.4,MacIntel,60.0024001,5f3172eea47594017768b6f5,64b543b0a84ad6ab4a25b86a,64cb352a2290629906618e39,,,,,,,sngl,resources/Empty.png,resources/DG.BMP,Door2,0.317794432,0.034134201,1,0,0,0.9822,optionRight,40,13250,6,20,0,20,0,1,,,,,,,,,,,,,,,,,,,,,,,,,,,,,,,,,,,,,,,
,,,,,,,5f3172eea47594017768b6f5,2023-08-03_06h03.58.654,HF_wild_card,2022.2.4,MacIntel,60.0024001,5f3172eea47594017768b6f5,64b543b0a84ad6ab4a25b86a,64cb352a2290629906618e39,,,,,,,sngl,resources/Empty.png,resources/DR.BMP,Door4,0.29249594,0.050325382,1,0,0,0.8481,optionRight,80,13330,6,21,0,21,0,1,,,,,,,,,,,,,,,,,,,,,,,,,,,,,,,,,,,,,,,
,,,,,,,5f3172eea47594017768b6f5,2023-08-03_06h03.58.654,HF_wild_card,2022.2.4,MacIntel,60.0024001,5f3172eea47594017768b6f5,64b543b0a84ad6ab4a25b86a,64cb352a2290629906618e39,,,,,,,decisionTrl,resources/DP.BMP,resources/DB.BMP,WildCard_Ex,-0.426321825,-0.063153053,1,0,0,0.9812,optionLeft,45,13375,6,22,0,22,0,1,,,,,,,,,,,,,,,,,,,,,,,,,,,,,,,,,,,,,,,
,,,,,,,5f3172eea47594017768b6f5,2023-08-03_06h03.58.654,HF_wild_card,2022.2.4,MacIntel,60.0024001,5f3172eea47594017768b6f5,64b543b0a84ad6ab4a25b86a,64cb352a2290629906618e39,,,,,,,decisionTrl,resources/DB.BMP,resources/DG.BMP,Door1,-0.264115946,-0.013932493,1,0,0,1.4141,optionLeft,30,13405,6,23,0,23,0,1,,,,,,,,,,,,,,,,,,,,,,,,,,,,,,,,,,,,,,,
,,,,,,,5f3172eea47594017768b6f5,2023-08-03_06h03.58.654,HF_wild_card,2022.2.4,MacIntel,60.0024001,5f3172eea47594017768b6f5,64b543b0a84ad6ab4a25b86a,64cb352a2290629906618e39,,,,,,,decisionTrl,resources/DR.BMP,resources/DBN.BMP,Door3,0.316721714,0.149225426,1,0,0,1.4295,optionRight,70,13475,6,24,0,24,0,1,,,,,,,,,,,,,,,,,,,,,,,,,,,,,,,,,,,,,,,
,,,,,,,5f3172eea47594017768b6f5,2023-08-03_06h03.58.654,HF_wild_card,2022.2.4,MacIntel,60.0024001,5f3172eea47594017768b6f5,64b543b0a84ad6ab4a25b86a,64cb352a2290629906618e39,,,,,,,decisionTrl,resources/DG.BMP,resources/DB.BMP,Door1,0.161258983,0.008784692,1,0,0,1.4298,optionRight,30,13505,6,25,0,25,0,1,,,,,,,,,,,,,,,,,,,,,,,,,,,,,,,,,,,,,,,
,,,,,,,5f3172eea47594017768b6f5,2023-08-03_06h03.58.654,HF_wild_card,2022.2.4,MacIntel,60.0024001,5f3172eea47594017768b6f5,64b543b0a84ad6ab4a25b86a,64cb352a2290629906618e39,,,,,,,sngl,resources/Empty.png,resources/DBN.BMP,Door3,0.266015656,0.076052474,1,0,0,0.7812,optionRight,70,13575,6,26,0,26,0,1,,,,,,,,,,,,,,,,,,,,,,,,,,,,,,,,,,,,,,,
,,,,,,,5f3172eea47594017768b6f5,2023-08-03_06h03.58.654,HF_wild_card,2022.2.4,MacIntel,60.0024001,5f3172eea47594017768b6f5,64b543b0a84ad6ab4a25b86a,64cb352a2290629906618e39,,,,,,,decisionTrl,resources/DG.BMP,resources/DP.BMP,WildCard_Ex,0.34450238,0.052375784,1,0,0,1.1475,optionRight,55,13630,6,27,0,27,0,1,,,,,,,,,,,,,,,,,,,,,,,,,,,,,,,,,,,,,,,
,,,,,,,5f3172eea47594017768b6f5,2023-08-03_06h03.58.654,HF_wild_card,2022.2.4,MacIntel,60.0024001,5f3172eea47594017768b6f5,64b543b0a84ad6ab4a25b86a,64cb352a2290629906618e39,,,,,,,sngl,resources/DP.BMP,resources/Empty.png,WildCard_Ex,-0.490304113,-0.131983845,1,0,0,0.8124,optionLeft,45,13675,6,28,0,28,0,1,,,,,,,,,,,,,,,,,,,,,,,,,,,,,,,,,,,,,,,
,,,,,,,5f3172eea47594017768b6f5,2023-08-03_06h03.58.654,HF_wild_card,2022.2.4,MacIntel,60.0024001,5f3172eea47594017768b6f5,64b543b0a84ad6ab4a25b86a,64cb352a2290629906618e39,,,,,,,decisionTrl,resources/DG.BMP,resources/DB.BMP,Door1,0.396818869,0.115472869,1,0,0,0.8294,optionRight,30,13705,6,29,0,29,0,1,,,,,,,,,,,,,,,,,,,,,,,,,,,,,,,,,,,,,,,
,,,,,,,5f3172eea47594017768b6f5,2023-08-03_06h03.58.654,HF_wild_card,2022.2.4,MacIntel,60.0024001,5f3172eea47594017768b6f5,64b543b0a84ad6ab4a25b86a,64cb352a2290629906618e39,,,,,,,decisionTrl,resources/DR.BMP,resources/DBN.BMP,Door3,0.288057006,0.081948671,1,0,0,0.8991,optionRight,70,13775,6,30,0,30,0,1,,,,,,,,,,,,,,,,,,,,,,,,,,,,,,,,,,,,,,,
,,,,,,,5f3172eea47594017768b6f5,2023-08-03_06h03.58.654,HF_wild_card,2022.2.4,MacIntel,60.0024001,5f3172eea47594017768b6f5,64b543b0a84ad6ab4a25b86a,64cb352a2290629906618e39,,,,,,,decisionTrl,resources/DB.BMP,resources/DG.BMP,Door1,-0.276934528,-0.028123979,1,0,0,1.6988,optionLeft,30,13805,6,31,0,31,0,1,,,,,,,,,,,,,,,,,,,,,,,,,,,,,,,,,,,,,,,
,,,,,,,5f3172eea47594017768b6f5,2023-08-03_06h03.58.654,HF_wild_card,2022.2.4,MacIntel,60.0024001,5f3172eea47594017768b6f5,64b543b0a84ad6ab4a25b86a,64cb352a2290629906618e39,,,,,,,decisionTrl,resources/DBN.BMP,resources/DR.BMP,Door3,-0.362242067,0.089734869,1,0,0,0.8628,optionLeft,70,13875,6,32,0,32,0,1,,,,,,,,,,,,,,,,,,,,,,,,,,,,,,,,,,,,,,,
,,,,,,,5f3172eea47594017768b6f5,2023-08-03_06h03.58.654,HF_wild_card,2022.2.4,MacIntel,60.0024001,5f3172eea47594017768b6f5,64b543b0a84ad6ab4a25b86a,64cb352a2290629906618e39,,,,,,,decisionTrl,resources/DP.BMP,resources/DR.BMP,Door4,0.436550049,0.079483825,1,0,0,2.8466,optionRight,80,13955,6,33,0,33,0,1,,,,,,,,,,,,,,,,,,,,,,,,,,,,,,,,,,,,,,,
,,,,,,,5f3172eea47594017768b6f5,2023-08-03_06h03.58.654,HF_wild_card,2022.2.4,MacIntel,60.0024001,5f3172eea47594017768b6f5,64b543b0a84ad6ab4a25b86a,64cb352a2290629906618e39,,,,,,,sngl,resources/DR.BMP,resources/Empty.png,Door4,-0.312852441,-0.039770554,1,0,0,2.7953,optionLeft,60,14015,6,34,0,34,0,1,,,,,,,,,,,,,,,,,,,,,,,,,,,,,,,,,,,,,,,
,,,,,,,5f3172eea47594017768b6f5,2023-08-03_06h03.58.654,HF_wild_card,2022.2.4,MacIntel,60.0024001,5f3172eea47594017768b6f5,64b543b0a84ad6ab4a25b86a,64cb352a2290629906618e39,,,,,,,decisionTrl,resources/DR.BMP,resources/DP.BMP,Door4,-0.327594481,-0.028550683,1,0,0,3.0492,optionLeft,60,14075,6,35,0,35,0,1,,,,,,,,,,,,,,,,,,,,,,,,,,,,,,,,,,,,,,,
,,,,,,,5f3172eea47594017768b6f5,2023-08-03_06h03.58.654,HF_wild_card,2022.2.4,MacIntel,60.0024001,5f3172eea47594017768b6f5,64b543b0a84ad6ab4a25b86a,64cb352a2290629906618e39,,,,,,,decisionTrl,resources/DBN.BMP,resources/DR.BMP,Door3,-0.383547513,-0.000716293,1,0,0,0.7815,optionLeft,70,14145,6,36,0,36,0,1,,,,,,,,,,,,,,,,,,,,,,,,,,,,,,,,,,,,,,,
,,,,,,,5f3172eea47594017768b6f5,2023-08-03_06h03.58.654,HF_wild_card,2022.2.4,MacIntel,60.0024001,5f3172eea47594017768b6f5,64b543b0a84ad6ab4a25b86a,64cb352a2290629906618e39,,,,,,,sngl,resources/Empty.png,resources/DP.BMP,WildCard_Ex,0.304718366,0.045889077,1,0,0,2.113,optionRight,45,14190,6,37,0,37,0,1,,,,,,,,,,,,,,,,,,,,,,,,,,,,,,,,,,,,,,,
,,,,,,,5f3172eea47594017768b6f5,2023-08-03_06h03.58.654,HF_wild_card,2022.2.4,MacIntel,60.0024001,5f3172eea47594017768b6f5,64b543b0a84ad6ab4a25b86a,64cb352a2290629906618e39,,,,,,,decisionTrl,resources/DG.BMP,resources/DB.BMP,Door1,0.393376765,0.021032955,1,0,0,1.6803,optionRight,30,14220,6,38,0,38,0,1,,,,,,,,,,,,,,,,,,,,,,,,,,,,,,,,,,,,,,,
,,,,,,,5f3172eea47594017768b6f5,2023-08-03_06h03.58.654,HF_wild_card,2022.2.4,MacIntel,60.0024001,5f3172eea47594017768b6f5,64b543b0a84ad6ab4a25b86a,64cb352a2290629906618e39,,,,,,,decisionTrl,resources/DG.BMP,resources/DB.BMP,Door1,0.281720025,0.01862137,1,0,0,1.7972,optionRight,30,14250,6,39,0,39,0,1,,,,,,,,,,,,,,,,,,,,,,,,,,,,,,,,,,,,,,,
,,,,,,,5f3172eea47594017768b6f5,2023-08-03_06h03.58.654,HF_wild_card,2022.2.4,MacIntel,60.0024001,5f3172eea47594017768b6f5,64b543b0a84ad6ab4a25b86a,64cb352a2290629906618e39,,,,,,,ctch,resources/DB.BMP,resources/DR.BMP,Door4,0.311018989,0.077540138,1,0,0,0.9072,optionRight,60,14310,6,40,0,40,0,1,,,,,,,,,,,,,,,,,,,,,,,,,,,,,,,,,,,,,,,
,,,,,,,5f3172eea47594017768b6f5,2023-08-03_06h03.58.654,HF_wild_card,2022.2.4,MacIntel,60.0024001,5f3172eea47594017768b6f5,64b543b0a84ad6ab4a25b86a,64cb352a2290629906618e39,,,,,,,decisionTrl,resources/DB.BMP,resources/DP.BMP,WildCard_Ex,0.311871779,0.072222111,1,0,0,0.9642,optionRight,45,14355,6,41,0,41,0,1,,,,,,,,,,,,,,,,,,,,,,,,,,,,,,,,,,,,,,,
,,,,,,,5f3172eea47594017768b6f5,2023-08-03_06h03.58.654,HF_wild_card,2022.2.4,MacIntel,60.0024001,5f3172eea47594017768b6f5,64b543b0a84ad6ab4a25b86a,64cb352a2290629906618e39,,,,,,,decisionTrl,resources/DB.BMP,resources/DG.BMP,Door1,-0.365010463,0.005686751,1,0,0,1.2794,optionLeft,30,14385,6,42,0,42,0,1,,,,,,,,,,,,,,,,,,,,,,,,,,,,,,,,,,,,,,,
,,,,,,,5f3172eea47594017768b6f5,2023-08-03_06h03.58.654,HF_wild_card,2022.2.4,MacIntel,60.0024001,5f3172eea47594017768b6f5,64b543b0a84ad6ab4a25b86a,64cb352a2290629906618e39,,,,,,,ctch,resources/DG.BMP,resources/DBN.BMP,Door3,0.383122395,0.175292891,1,0,0,1.3145,optionRight,70,14455,6,43,0,43,0,1,,,,,,,,,,,,,,,,,,,,,,,,,,,,,,,,,,,,,,,
,,,,,,,5f3172eea47594017768b6f5,2023-08-03_06h03.58.654,HF_wild_card,2022.2.4,MacIntel,60.0024001,5f3172eea47594017768b6f5,64b543b0a84ad6ab4a25b86a,64cb352a2290629906618e39,,,,,,,,,,,,,,,,,,,,,,,,,,5,0,5,0,1,,,,,,,,,,,,,,,,,,,,,,,,,,,,,,,,,,
,,,,,,,5f3172eea47594017768b6f5,2023-08-03_06h03.58.654,HF_wild_card,2022.2.4,MacIntel,60.0024001,5f3172eea47594017768b6f5,64b543b0a84ad6ab4a25b86a,64cb352a2290629906618e39,,,,,,,ctch,resources/DG.BMP,resources/DBN.BMP,Door3,0.347297465,-0.031391642,1,0,0,2.1699,optionRight,70,14525,7,0,0,0,0,1,,,,,,,,,,,,,,,,,,,,,,,,,,,,,,,,,,,,,,,
,,,,,,,5f3172eea47594017768b6f5,2023-08-03_06h03.58.654,HF_wild_card,2022.2.4,MacIntel,60.0024001,5f3172eea47594017768b6f5,64b543b0a84ad6ab4a25b86a,64cb352a2290629906618e39,,,,,,,decisionTrl,resources/DB.BMP,resources/DG.BMP,Door1,-0.329736939,-0.010922276,1,0,0,1.0308,optionLeft,30,14555,7,1,0,1,0,1,,,,,,,,,,,,,,,,,,,,,,,,,,,,,,,,,,,,,,,
,,,,,,,5f3172eea47594017768b6f5,2023-08-03_06h03.58.654,HF_wild_card,2022.2.4,MacIntel,60.0024001,5f3172eea47594017768b6f5,64b543b0a84ad6ab4a25b86a,64cb352a2290629906618e39,,,,,,,decisionTrl,resources/DBN.BMP,resources/DR.BMP,Door3,-0.397584323,0.042991145,1,0,0,0.7983,optionLeft,70,14625,7,2,0,2,0,1,,,,,,,,,,,,,,,,,,,,,,,,,,,,,,,,,,,,,,,
,,,,,,,5f3172eea47594017768b6f5,2023-08-03_06h03.58.654,HF_wild_card,2022.2.4,MacIntel,60.0024001,5f3172eea47594017768b6f5,64b543b0a84ad6ab4a25b86a,64cb352a2290629906618e39,,,,,,,decisionTrl,resources/DG.BMP,resources/DB.BMP,Door1,0.325182394,0.033395165,1,0,0,1.3483,optionRight,30,14655,7,3,0,3,0,1,,,,,,,,,,,,,,,,,,,,,,,,,,,,,,,,,,,,,,,
,,,,,,,5f3172eea47594017768b6f5,2023-08-03_06h03.58.654,HF_wild_card,2022.2.4,MacIntel,60.0024001,5f3172eea47594017768b6f5,64b543b0a84ad6ab4a25b86a,64cb352a2290629906618e39,,,,,,,decisionTrl,resources/DB.BMP,resources/DG.BMP,Door1,-0.325099969,-0.004600341,1,0,0,0.7665,optionLeft,30,14685,7,4,0,4,0,1,,,,,,,,,,,,,,,,,,,,,,,,,,,,,,,,,,,,,,,
,,,,,,,5f3172eea47594017768b6f5,2023-08-03_06h03.58.654,HF_wild_card,2022.2.4,MacIntel,60.0024001,5f3172eea47594017768b6f5,64b543b0a84ad6ab4a25b86a,64cb352a2290629906618e39,,,,,,,ctch,resources/DR.BMP,resources/DB.BMP,Door4,-0.262170132,0.023451154,1,0,0,1.5646,optionLeft,80,14765,7,5,0,5,0,1,,,,,,,,,,,,,,,,,,,,,,,,,,,,,,,,,,,,,,,
,,,,,,,5f3172eea47594017768b6f5,2023-08-03_06h03.58.654,HF_wild_card,2022.2.4,MacIntel,60.0024001,5f3172eea47594017768b6f5,64b543b0a84ad6ab4a25b86a,64cb352a2290629906618e39,,,,,,,decisionTrl,resources/DBN.BMP,resources/DR.BMP,Door3,-0.271500079,0.09804474,1,0,0,1.4982,optionLeft,70,14835,7,6,0,6,0,1,,,,,,,,,,,,,,,,,,,,,,,,,,,,,,,,,,,,,,,
,,,,,,,5f3172eea47594017768b6f5,2023-08-03_06h03.58.654,HF_wild_card,2022.2.4,MacIntel,60.0024001,5f3172eea47594017768b6f5,64b543b0a84ad6ab4a25b86a,64cb352a2290629906618e39,,,,,,,decisionTrl,resources/DBN.BMP,resources/DR.BMP,Door3,-0.33068136,0.083092867,1,0,0,0.683,optionLeft,70,14905,7,7,0,7,0,1,,,,,,,,,,,,,,,,,,,,,,,,,,,,,,,,,,,,,,,
,,,,,,,5f3172eea47594017768b6f5,2023-08-03_06h03.58.654,HF_wild_card,2022.2.4,MacIntel,60.0024001,5f3172eea47594017768b6f5,64b543b0a84ad6ab4a25b86a,64cb352a2290629906618e39,,,,,,,ctch,resources/DG.BMP,resources/DBN.BMP,Door3,0.28340936,0.183555574,1,0,0,0.9637,optionRight,70,14975,7,8,0,8,0,1,,,,,,,,,,,,,,,,,,,,,,,,,,,,,,,,,,,,,,,
,,,,,,,5f3172eea47594017768b6f5,2023-08-03_06h03.58.654,HF_wild_card,2022.2.4,MacIntel,60.0024001,5f3172eea47594017768b6f5,64b543b0a84ad6ab4a25b86a,64cb352a2290629906618e39,,,,,,,decisionTrl,resources/DR.BMP,resources/DBN.BMP,Door3,0.215073193,0.06740807,1,0,0,0.8643,optionRight,70,15045,7,9,0,9,0,1,,,,,,,,,,,,,,,,,,,,,,,,,,,,,,,,,,,,,,,
,,,,,,,5f3172eea47594017768b6f5,2023-08-03_06h03.58.654,HF_wild_card,2022.2.4,MacIntel,60.0024001,5f3172eea47594017768b6f5,64b543b0a84ad6ab4a25b86a,64cb352a2290629906618e39,,,,,,,decisionTrl,resources/DR.BMP,resources/DBN.BMP,Door3,0.342605494,0.015336417,1,0,0,0.7809,optionRight,70,15115,7,10,0,10,0,1,,,,,,,,,,,,,,,,,,,,,,,,,,,,,,,,,,,,,,,
,,,,,,,5f3172eea47594017768b6f5,2023-08-03_06h03.58.654,HF_wild_card,2022.2.4,MacIntel,60.0024001,5f3172eea47594017768b6f5,64b543b0a84ad6ab4a25b86a,64cb352a2290629906618e39,,,,,,,decisionTrl,resources/DBN.BMP,resources/DR.BMP,Door3,-0.309080329,0.044688797,1,0,0,0.9322,optionLeft,70,15185,7,11,0,11,0,1,,,,,,,,,,,,,,,,,,,,,,,,,,,,,,,,,,,,,,,
,,,,,,,5f3172eea47594017768b6f5,2023-08-03_06h03.58.654,HF_wild_card,2022.2.4,MacIntel,60.0024001,5f3172eea47594017768b6f5,64b543b0a84ad6ab4a25b86a,64cb352a2290629906618e39,,,,,,,decisionTrl,resources/DG.BMP,resources/DB.BMP,Door1,0.305554292,0.028845957,1,0,0,2.0649,optionRight,30,15215,7,12,0,12,0,1,,,,,,,,,,,,,,,,,,,,,,,,,,,,,,,,,,,,,,,
,,,,,,,5f3172eea47594017768b6f5,2023-08-03_06h03.58.654,HF_wild_card,2022.2.4,MacIntel,60.0024001,5f3172eea47594017768b6f5,64b543b0a84ad6ab4a25b86a,64cb352a2290629906618e39,,,,,,,decisionTrl,resources/DB.BMP,resources/DG.BMP,Door1,-0.242986372,0.028214719,1,0,0,0.848,optionLeft,30,15245,7,13,0,13,0,1,,,,,,,,,,,,,,,,,,,,,,,,,,,,,,,,,,,,,,,
,,,,,,,5f3172eea47594017768b6f5,2023-08-03_06h03.58.654,HF_wild_card,2022.2.4,MacIntel,60.0024001,5f3172eea47594017768b6f5,64b543b0a84ad6ab4a25b86a,64cb352a2290629906618e39,,,,,,,decisionTrl,resources/DG.BMP,resources/DB.BMP,Door1,0.447540709,0.125871898,1,0,0,0.7812,optionRight,30,15275,7,14,0,14,0,1,,,,,,,,,,,,,,,,,,,,,,,,,,,,,,,,,,,,,,,
,,,,,,,5f3172eea47594017768b6f5,2023-08-03_06h03.58.654,HF_wild_card,2022.2.4,MacIntel,60.0024001,5f3172eea47594017768b6f5,64b543b0a84ad6ab4a25b86a,64cb352a2290629906618e39,,,,,,,ctch,resources/DB.BMP,resources/DR.BMP,Door4,0.330009199,0.049137053,1,0,0,1.2336,optionRight,60,15335,7,15,0,15,0,1,,,,,,,,,,,,,,,,,,,,,,,,,,,,,,,,,,,,,,,
,,,,,,,5f3172eea47594017768b6f5,2023-08-03_06h03.58.654,HF_wild_card,2022.2.4,MacIntel,60.0024001,5f3172eea47594017768b6f5,64b543b0a84ad6ab4a25b86a,64cb352a2290629906618e39,,,,,,,decisionTrl,resources/DB.BMP,resources/DG.BMP,Door1,-0.273443418,-0.030170629,1,0,0,0.9473,optionLeft,30,15365,7,16,0,16,0,1,,,,,,,,,,,,,,,,,,,,,,,,,,,,,,,,,,,,,,,
,,,,,,,5f3172eea47594017768b6f5,2023-08-03_06h03.58.654,HF_wild_card,2022.2.4,MacIntel,60.0024001,5f3172eea47594017768b6f5,64b543b0a84ad6ab4a25b86a,64cb352a2290629906618e39,,,,,,,decisionTrl,resources/DG.BMP,resources/DB.BMP,Door1,0.274404934,0.028429503,1,0,0,0.7488,optionRight,30,15395,7,17,0,17,0,1,,,,,,,,,,,,,,,,,,,,,,,,,,,,,,,,,,,,,,,
,,,,,,,5f3172eea47594017768b6f5,2023-08-03_06h03.58.654,HF_wild_card,2022.2.4,MacIntel,60.0024001,5f3172eea47594017768b6f5,64b543b0a84ad6ab4a25b86a,64cb352a2290629906618e39,,,,,,,ctch,resources/DB.BMP,resources/DR.BMP,Door4,0.45490964,0.084696955,1,0,0,1.3823,optionRight,80,15475,7,18,0,18,0,1,,,,,,,,,,,,,,,,,,,,,,,,,,,,,,,,,,,,,,,
