Condition,Low fixed image (Door1),Low risky image (Door2),High fixed image (Door3),High risky image (Door4),NonExtreme Wild Card 1,NonExtreme Wild Card 2,,date,expName,psychopyVersion,OS,frameRate,PROLIFIC_PID,STUDY_ID,SESSION_ID,mouse_2.x,mouse_2.y,mouse_2.leftButton,mouse_2.midButton,mouse_2.rightButton,mouse_2.clicked_name,Trial Type,Left Option Image,Right Option Image,Chosen Door,mouse.x,mouse.y,mouse.leftButton,mouse.midButton,mouse.rightButton,mouse.time,mouse.clicked_name,Feedback,Cumulative Reward,Block,trial.thisRepN,trial.thisTrialN,trial.thisN,trial.thisIndex,trial.ran,blocks.thisRepN,blocks.thisTrialN,blocks.thisN,blocks.thisIndex,blocks.ran,Money conversion,First Outcome Reported,Shown Door (First Outcome),Displayed Image (First Outcome),outcomes.thisRepN,outcomes.thisTrialN,outcomes.thisN,outcomes.thisIndex,outcomes.ran,judgments.thisRepN,judgments.thisTrialN,judgments.thisN,judgments.thisIndex,judgments.ran,freqMouse.x,freqMouse.y,freqMouse.leftButton,freqMouse.midButton,freqMouse.rightButton,freqMouse.clicked_name,FQJ for first outcome,FQJ for second outcome,Shown Door,Displayed Image,trials.thisRepN,trials.thisTrialN,trials.thisN,trials.thisIndex,trials.ran,judgBlock.thisRepN,judgBlock.thisTrialN,judgBlock.thisN,judgBlock.thisIndex,judgBlock.ran
2,resources/DP.BMP,resources/DG.BMP,resources/DY.BMP,resources/DBN.BMP,resources/DR.BMP,resources/DB.BMP,,2023-08-16_08h48.07.188,HF_wild_card,2022.2.4,MacIntel,59.97361161,5efcd984f7176d0e6a59dd17,64d2fd46c836a06233681665,64dc7f270f8c32a0027f3743,,,,,,,,,,,,,,,,,,,,,,,,,,,,,,,,,,,,,,,,,,,,,,,,,,,,,,,,,,,,,,,,
,,,,,,,,2023-08-16_08h48.07.188,HF_wild_card,2022.2.4,MacIntel,59.97361161,5efcd984f7176d0e6a59dd17,64d2fd46c836a06233681665,64dc7f270f8c32a0027f3743,-0.010506524,-0.422633057,1,0,0,agree,,,,,,,,,,,,,,,,,,,,,,,,,,,,,,,,,,,,,,,,,,,,,,,,,,,,,,,,,,
,,,,,,,,2023-08-16_08h48.07.188,HF_wild_card,2022.2.4,MacIntel,59.97361161,5efcd984f7176d0e6a59dd17,64d2fd46c836a06233681665,64dc7f270f8c32a0027f3743,,,,,,,,,,,,,,,,,,,,,,,,,,,,,,,,,,,,,,,,,,,,,,,,,,,,,,,,,,,,,,,,
,,,,,,,,2023-08-16_08h48.07.188,HF_wild_card,2022.2.4,MacIntel,59.97361161,5efcd984f7176d0e6a59dd17,64d2fd46c836a06233681665,64dc7f270f8c32a0027f3743,,,,,,,sngl,resources/DP.BMP,resources/Empty.png,Door1,-0.303374227,-0.101624959,1,0,0,2.9611,optionLeft,30,30,1,0,0,0,0,1,,,,,,,,,,,,,,,,,,,,,,,,,,,,,,,,,,,,,,,
,,,,,,,,2023-08-16_08h48.07.188,HF_wild_card,2022.2.4,MacIntel,59.97361161,5efcd984f7176d0e6a59dd17,64d2fd46c836a06233681665,64dc7f270f8c32a0027f3743,,,,,,,decisionTrl,resources/DP.BMP,resources/DG.BMP,Door1,-0.208544922,-0.013995056,1,0,0,1.53,optionLeft,30,60,1,1,0,1,0,1,,,,,,,,,,,,,,,,,,,,,,,,,,,,,,,,,,,,,,,
,,,,,,,,2023-08-16_08h48.07.188,HF_wild_card,2022.2.4,MacIntel,59.97361161,5efcd984f7176d0e6a59dd17,64d2fd46c836a06233681665,64dc7f270f8c32a0027f3743,,,,,,,sngl,resources/Empty.png,resources/DB.BMP,WildCard_NonEx,0.276896566,0.000429281,1,0,0,1.2446,optionRight,55,115,1,2,0,2,0,1,,,,,,,,,,,,,,,,,,,,,,,,,,,,,,,,,,,,,,,
,,,,,,,,2023-08-16_08h48.07.188,HF_wild_card,2022.2.4,MacIntel,59.97361161,5efcd984f7176d0e6a59dd17,64d2fd46c836a06233681665,64dc7f270f8c32a0027f3743,,,,,,,ctch,resources/DY.BMP,resources/DG.BMP,Door3,-0.242980787,-0.001500787,1,0,0,1.7644,optionLeft,70,185,1,3,0,3,0,1,,,,,,,,,,,,,,,,,,,,,,,,,,,,,,,,,,,,,,,
,,,,,,,,2023-08-16_08h48.07.188,HF_wild_card,2022.2.4,MacIntel,59.97361161,5efcd984f7176d0e6a59dd17,64d2fd46c836a06233681665,64dc7f270f8c32a0027f3743,,,,,,,sngl,resources/DY.BMP,resources/Empty.png,Door3,-0.297378947,-0.00744656,1,0,0,0.8154,optionLeft,70,255,1,4,0,4,0,1,,,,,,,,,,,,,,,,,,,,,,,,,,,,,,,,,,,,,,,
,,,,,,,,2023-08-16_08h48.07.188,HF_wild_card,2022.2.4,MacIntel,59.97361161,5efcd984f7176d0e6a59dd17,64d2fd46c836a06233681665,64dc7f270f8c32a0027f3743,,,,,,,sngl,resources/Empty.png,resources/DBN.BMP,Door4,0.224189928,-0.016545071,1,0,0,0.9494,optionRight,60,315,1,5,0,5,0,1,,,,,,,,,,,,,,,,,,,,,,,,,,,,,,,,,,,,,,,
,,,,,,,,2023-08-16_08h48.07.188,HF_wild_card,2022.2.4,MacIntel,59.97361161,5efcd984f7176d0e6a59dd17,64d2fd46c836a06233681665,64dc7f270f8c32a0027f3743,,,,,,,ctch,resources/DG.BMP,resources/DY.BMP,Door3,0.205778673,0.010714891,1,0,0,1.2645,optionRight,70,385,1,6,0,6,0,1,,,,,,,,,,,,,,,,,,,,,,,,,,,,,,,,,,,,,,,
,,,,,,,,2023-08-16_08h48.07.188,HF_wild_card,2022.2.4,MacIntel,59.97361161,5efcd984f7176d0e6a59dd17,64d2fd46c836a06233681665,64dc7f270f8c32a0027f3743,,,,,,,decisionTrl,resources/DB.BMP,resources/DP.BMP,WildCard_NonEx,-0.295413886,-0.069544406,1,0,0,1.716,optionLeft,45,430,1,7,0,7,0,1,,,,,,,,,,,,,,,,,,,,,,,,,,,,,,,,,,,,,,,
,,,,,,,,2023-08-16_08h48.07.188,HF_wild_card,2022.2.4,MacIntel,59.97361161,5efcd984f7176d0e6a59dd17,64d2fd46c836a06233681665,64dc7f270f8c32a0027f3743,,,,,,,sngl,resources/DG.BMP,resources/Empty.png,Door2,-0.240691189,-0.040359022,1,0,0,1.0967,optionLeft,40,470,1,8,0,8,0,1,,,,,,,,,,,,,,,,,,,,,,,,,,,,,,,,,,,,,,,
,,,,,,,,2023-08-16_08h48.07.188,HF_wild_card,2022.2.4,MacIntel,59.97361161,5efcd984f7176d0e6a59dd17,64d2fd46c836a06233681665,64dc7f270f8c32a0027f3743,,,,,,,sngl,resources/Empty.png,resources/DB.BMP,WildCard_NonEx,0.265588243,-0.000787354,1,0,0,0.9676,optionRight,45,515,1,9,0,9,0,1,,,,,,,,,,,,,,,,,,,,,,,,,,,,,,,,,,,,,,,
,,,,,,,,2023-08-16_08h48.07.188,HF_wild_card,2022.2.4,MacIntel,59.97361161,5efcd984f7176d0e6a59dd17,64d2fd46c836a06233681665,64dc7f270f8c32a0027f3743,,,,,,,decisionTrl,resources/DB.BMP,resources/DG.BMP,Door2,0.1485692,-0.015151672,1,0,0,1.5821,optionRight,20,535,1,10,0,10,0,1,,,,,,,,,,,,,,,,,,,,,,,,,,,,,,,,,,,,,,,
,,,,,,,,2023-08-16_08h48.07.188,HF_wild_card,2022.2.4,MacIntel,59.97361161,5efcd984f7176d0e6a59dd17,64d2fd46c836a06233681665,64dc7f270f8c32a0027f3743,,,,,,,decisionTrl,resources/DP.BMP,resources/DG.BMP,Door1,-0.241258545,-0.022020094,1,0,0,0.7255,optionLeft,30,565,1,11,0,11,0,1,,,,,,,,,,,,,,,,,,,,,,,,,,,,,,,,,,,,,,,
,,,,,,,,2023-08-16_08h48.07.188,HF_wild_card,2022.2.4,MacIntel,59.97361161,5efcd984f7176d0e6a59dd17,64d2fd46c836a06233681665,64dc7f270f8c32a0027f3743,,,,,,,decisionTrl,resources/DY.BMP,resources/DBN.BMP,Door3,-0.310135905,-0.051906942,1,0,0,1.0235,optionLeft,70,635,1,12,0,12,0,1,,,,,,,,,,,,,,,,,,,,,,,,,,,,,,,,,,,,,,,
,,,,,,,,2023-08-16_08h48.07.188,HF_wild_card,2022.2.4,MacIntel,59.97361161,5efcd984f7176d0e6a59dd17,64d2fd46c836a06233681665,64dc7f270f8c32a0027f3743,,,,,,,sngl,resources/DB.BMP,resources/Empty.png,WildCard_NonEx,-0.275482585,-0.002128228,1,0,0,1.0969,optionLeft,55,690,1,13,0,13,0,1,,,,,,,,,,,,,,,,,,,,,,,,,,,,,,,,,,,,,,,
,,,,,,,,2023-08-16_08h48.07.188,HF_wild_card,2022.2.4,MacIntel,59.97361161,5efcd984f7176d0e6a59dd17,64d2fd46c836a06233681665,64dc7f270f8c32a0027f3743,,,,,,,decisionTrl,resources/DY.BMP,resources/DBN.BMP,Door3,-0.282453105,0.014333293,1,0,0,1.2836,optionLeft,70,760,1,14,0,14,0,1,,,,,,,,,,,,,,,,,,,,,,,,,,,,,,,,,,,,,,,
,,,,,,,,2023-08-16_08h48.07.188,HF_wild_card,2022.2.4,MacIntel,59.97361161,5efcd984f7176d0e6a59dd17,64d2fd46c836a06233681665,64dc7f270f8c32a0027f3743,,,,,,,decisionTrl,resources/DBN.BMP,resources/DB.BMP,Door4,-0.350521376,0.008295559,1,0,0,1.5987,optionLeft,80,840,1,15,0,15,0,1,,,,,,,,,,,,,,,,,,,,,,,,,,,,,,,,,,,,,,,
,,,,,,,,2023-08-16_08h48.07.188,HF_wild_card,2022.2.4,MacIntel,59.97361161,5efcd984f7176d0e6a59dd17,64d2fd46c836a06233681665,64dc7f270f8c32a0027f3743,,,,,,,decisionTrl,resources/DBN.BMP,resources/DY.BMP,Door4,-0.237620104,0.035256178,1,0,0,0.783,optionLeft,60,900,1,16,0,16,0,1,,,,,,,,,,,,,,,,,,,,,,,,,,,,,,,,,,,,,,,
,,,,,,,,2023-08-16_08h48.07.188,HF_wild_card,2022.2.4,MacIntel,59.97361161,5efcd984f7176d0e6a59dd17,64d2fd46c836a06233681665,64dc7f270f8c32a0027f3743,,,,,,,decisionTrl,resources/DY.BMP,resources/DBN.BMP,Door4,0.27453186,-0.01812344,1,0,0,1.3307,optionRight,60,960,1,17,0,17,0,1,,,,,,,,,,,,,,,,,,,,,,,,,,,,,,,,,,,,,,,
,,,,,,,,2023-08-16_08h48.07.188,HF_wild_card,2022.2.4,MacIntel,59.97361161,5efcd984f7176d0e6a59dd17,64d2fd46c836a06233681665,64dc7f270f8c32a0027f3743,,,,,,,decisionTrl,resources/DBN.BMP,resources/DY.BMP,Door3,0.23646559,-0.001043837,1,0,0,0.8474,optionRight,70,1030,1,18,0,18,0,1,,,,,,,,,,,,,,,,,,,,,,,,,,,,,,,,,,,,,,,
,,,,,,,,2023-08-16_08h48.07.188,HF_wild_card,2022.2.4,MacIntel,59.97361161,5efcd984f7176d0e6a59dd17,64d2fd46c836a06233681665,64dc7f270f8c32a0027f3743,,,,,,,decisionTrl,resources/DB.BMP,resources/DBN.BMP,WildCard_NonEx,-0.346387465,-0.006600613,1,0,0,1.1615,optionLeft,55,1085,1,19,0,19,0,1,,,,,,,,,,,,,,,,,,,,,,,,,,,,,,,,,,,,,,,
,,,,,,,,2023-08-16_08h48.07.188,HF_wild_card,2022.2.4,MacIntel,59.97361161,5efcd984f7176d0e6a59dd17,64d2fd46c836a06233681665,64dc7f270f8c32a0027f3743,,,,,,,decisionTrl,resources/DY.BMP,resources/DBN.BMP,Door3,-0.309517517,-0.038897298,1,0,0,1.0156,optionLeft,70,1155,1,20,0,20,0,1,,,,,,,,,,,,,,,,,,,,,,,,,,,,,,,,,,,,,,,
,,,,,,,,2023-08-16_08h48.07.188,HF_wild_card,2022.2.4,MacIntel,59.97361161,5efcd984f7176d0e6a59dd17,64d2fd46c836a06233681665,64dc7f270f8c32a0027f3743,,,,,,,sngl,resources/DB.BMP,resources/Empty.png,WildCard_NonEx,-0.210281915,-0.01062222,1,0,0,0.8145,optionLeft,45,1200,1,21,0,21,0,1,,,,,,,,,,,,,,,,,,,,,,,,,,,,,,,,,,,,,,,
,,,,,,,,2023-08-16_08h48.07.188,HF_wild_card,2022.2.4,MacIntel,59.97361161,5efcd984f7176d0e6a59dd17,64d2fd46c836a06233681665,64dc7f270f8c32a0027f3743,,,,,,,sngl,resources/Empty.png,resources/DG.BMP,Door2,0.195250583,0.029548408,1,0,0,0.7964,optionRight,20,1220,1,22,0,22,0,1,,,,,,,,,,,,,,,,,,,,,,,,,,,,,,,,,,,,,,,
,,,,,,,,2023-08-16_08h48.07.188,HF_wild_card,2022.2.4,MacIntel,59.97361161,5efcd984f7176d0e6a59dd17,64d2fd46c836a06233681665,64dc7f270f8c32a0027f3743,,,,,,,decisionTrl,resources/DP.BMP,resources/DG.BMP,Door1,-0.284342957,-0.040145704,1,0,0,0.8969,optionLeft,30,1250,1,23,0,23,0,1,,,,,,,,,,,,,,,,,,,,,,,,,,,,,,,,,,,,,,,
,,,,,,,,2023-08-16_08h48.07.188,HF_wild_card,2022.2.4,MacIntel,59.97361161,5efcd984f7176d0e6a59dd17,64d2fd46c836a06233681665,64dc7f270f8c32a0027f3743,,,,,,,decisionTrl,resources/DG.BMP,resources/DP.BMP,Door2,-0.180508762,0.002451748,1,0,0,2.0322,optionLeft,40,1290,1,24,0,24,0,1,,,,,,,,,,,,,,,,,,,,,,,,,,,,,,,,,,,,,,,
,,,,,,,,2023-08-16_08h48.07.188,HF_wild_card,2022.2.4,MacIntel,59.97361161,5efcd984f7176d0e6a59dd17,64d2fd46c836a06233681665,64dc7f270f8c32a0027f3743,,,,,,,decisionTrl,resources/DP.BMP,resources/DB.BMP,Door1,-0.24703637,-0.010076497,1,0,0,1.6654,optionLeft,30,1320,1,25,0,25,0,1,,,,,,,,,,,,,,,,,,,,,,,,,,,,,,,,,,,,,,,
,,,,,,,,2023-08-16_08h48.07.188,HF_wild_card,2022.2.4,MacIntel,59.97361161,5efcd984f7176d0e6a59dd17,64d2fd46c836a06233681665,64dc7f270f8c32a0027f3743,,,,,,,ctch,resources/DBN.BMP,resources/DP.BMP,Door4,-0.241900804,0.017502543,1,0,0,1.0002,optionLeft,60,1380,1,26,0,26,0,1,,,,,,,,,,,,,,,,,,,,,,,,,,,,,,,,,,,,,,,
,,,,,,,,2023-08-16_08h48.07.188,HF_wild_card,2022.2.4,MacIntel,59.97361161,5efcd984f7176d0e6a59dd17,64d2fd46c836a06233681665,64dc7f270f8c32a0027f3743,,,,,,,decisionTrl,resources/DG.BMP,resources/DP.BMP,Door2,-0.235317417,-0.052957458,1,0,0,5.9275,optionLeft,20,1400,1,27,0,27,0,1,,,,,,,,,,,,,,,,,,,,,,,,,,,,,,,,,,,,,,,
,,,,,,,,2023-08-16_08h48.07.188,HF_wild_card,2022.2.4,MacIntel,59.97361161,5efcd984f7176d0e6a59dd17,64d2fd46c836a06233681665,64dc7f270f8c32a0027f3743,,,,,,,ctch,resources/DP.BMP,resources/DBN.BMP,Door1,-0.186106364,-0.03362871,1,0,0,1.198,optionLeft,30,1430,1,28,0,28,0,1,,,,,,,,,,,,,,,,,,,,,,,,,,,,,,,,,,,,,,,
,,,,,,,,2023-08-16_08h48.07.188,HF_wild_card,2022.2.4,MacIntel,59.97361161,5efcd984f7176d0e6a59dd17,64d2fd46c836a06233681665,64dc7f270f8c32a0027f3743,,,,,,,decisionTrl,resources/DG.BMP,resources/DP.BMP,Door1,0.180084975,-0.083393894,1,0,0,2.883,optionRight,30,1460,1,29,0,29,0,1,,,,,,,,,,,,,,,,,,,,,,,,,,,,,,,,,,,,,,,
,,,,,,,,2023-08-16_08h48.07.188,HF_wild_card,2022.2.4,MacIntel,59.97361161,5efcd984f7176d0e6a59dd17,64d2fd46c836a06233681665,64dc7f270f8c32a0027f3743,,,,,,,ctch,resources/DG.BMP,resources/DY.BMP,Door3,0.229854669,-0.001222127,1,0,0,1.1806,optionRight,70,1530,1,30,0,30,0,1,,,,,,,,,,,,,,,,,,,,,,,,,,,,,,,,,,,,,,,
,,,,,,,,2023-08-16_08h48.07.188,HF_wild_card,2022.2.4,MacIntel,59.97361161,5efcd984f7176d0e6a59dd17,64d2fd46c836a06233681665,64dc7f270f8c32a0027f3743,,,,,,,decisionTrl,resources/DG.BMP,resources/DB.BMP,WildCard_NonEx,0.172192722,-0.091675822,1,0,0,4.7009,optionRight,55,1585,1,31,0,31,0,1,,,,,,,,,,,,,,,,,,,,,,,,,,,,,,,,,,,,,,,
,,,,,,,,2023-08-16_08h48.07.188,HF_wild_card,2022.2.4,MacIntel,59.97361161,5efcd984f7176d0e6a59dd17,64d2fd46c836a06233681665,64dc7f270f8c32a0027f3743,,,,,,,ctch,resources/DP.BMP,resources/DBN.BMP,Door4,0.200704007,0.008192478,1,0,0,1.2874,optionRight,80,1665,1,32,0,32,0,1,,,,,,,,,,,,,,,,,,,,,,,,,,,,,,,,,,,,,,,
,,,,,,,,2023-08-16_08h48.07.188,HF_wild_card,2022.2.4,MacIntel,59.97361161,5efcd984f7176d0e6a59dd17,64d2fd46c836a06233681665,64dc7f270f8c32a0027f3743,,,,,,,decisionTrl,resources/DBN.BMP,resources/DY.BMP,Door4,-0.294866909,0.014535116,1,0,0,0.8297,optionLeft,80,1745,1,33,0,33,0,1,,,,,,,,,,,,,,,,,,,,,,,,,,,,,,,,,,,,,,,
,,,,,,,,2023-08-16_08h48.07.188,HF_wild_card,2022.2.4,MacIntel,59.97361161,5efcd984f7176d0e6a59dd17,64d2fd46c836a06233681665,64dc7f270f8c32a0027f3743,,,,,,,ctch,resources/DBN.BMP,resources/DP.BMP,Door4,-0.215187785,0.027350871,1,0,0,0.8142,optionLeft,80,1825,1,34,0,34,0,1,,,,,,,,,,,,,,,,,,,,,,,,,,,,,,,,,,,,,,,
,,,,,,,,2023-08-16_08h48.07.188,HF_wild_card,2022.2.4,MacIntel,59.97361161,5efcd984f7176d0e6a59dd17,64d2fd46c836a06233681665,64dc7f270f8c32a0027f3743,,,,,,,decisionTrl,resources/DY.BMP,resources/DB.BMP,Door3,-0.295576782,-0.006786669,1,0,0,0.9309,optionLeft,70,1895,1,35,0,35,0,1,,,,,,,,,,,,,,,,,,,,,,,,,,,,,,,,,,,,,,,
,,,,,,,,2023-08-16_08h48.07.188,HF_wild_card,2022.2.4,MacIntel,59.97361161,5efcd984f7176d0e6a59dd17,64d2fd46c836a06233681665,64dc7f270f8c32a0027f3743,,,,,,,decisionTrl,resources/DP.BMP,resources/DG.BMP,Door1,-0.230364583,-0.010656806,1,0,0,2.4354,optionLeft,30,1925,1,36,0,36,0,1,,,,,,,,,,,,,,,,,,,,,,,,,,,,,,,,,,,,,,,
,,,,,,,,2023-08-16_08h48.07.188,HF_wild_card,2022.2.4,MacIntel,59.97361161,5efcd984f7176d0e6a59dd17,64d2fd46c836a06233681665,64dc7f270f8c32a0027f3743,,,,,,,decisionTrl,resources/DBN.BMP,resources/DY.BMP,Door4,-0.158075765,0.021948174,1,0,0,0.8816,optionLeft,60,1985,1,37,0,37,0,1,,,,,,,,,,,,,,,,,,,,,,,,,,,,,,,,,,,,,,,
,,,,,,,,2023-08-16_08h48.07.188,HF_wild_card,2022.2.4,MacIntel,59.97361161,5efcd984f7176d0e6a59dd17,64d2fd46c836a06233681665,64dc7f270f8c32a0027f3743,,,,,,,decisionTrl,resources/DB.BMP,resources/DY.BMP,Door3,0.304541016,0.020429891,1,0,0,0.5807,optionRight,70,2055,1,38,0,38,0,1,,,,,,,,,,,,,,,,,,,,,,,,,,,,,,,,,,,,,,,
,,,,,,,,2023-08-16_08h48.07.188,HF_wild_card,2022.2.4,MacIntel,59.97361161,5efcd984f7176d0e6a59dd17,64d2fd46c836a06233681665,64dc7f270f8c32a0027f3743,,,,,,,ctch,resources/DY.BMP,resources/DG.BMP,Door3,-0.263909912,0.006471219,1,0,0,0.7651,optionLeft,70,2125,1,39,0,39,0,1,,,,,,,,,,,,,,,,,,,,,,,,,,,,,,,,,,,,,,,
,,,,,,,,2023-08-16_08h48.07.188,HF_wild_card,2022.2.4,MacIntel,59.97361161,5efcd984f7176d0e6a59dd17,64d2fd46c836a06233681665,64dc7f270f8c32a0027f3743,,,,,,,sngl,resources/Empty.png,resources/DP.BMP,Door1,0.15699958,-0.015156318,1,0,0,1.0848,optionRight,30,2155,1,40,0,40,0,1,,,,,,,,,,,,,,,,,,,,,,,,,,,,,,,,,,,,,,,
,,,,,,,,2023-08-16_08h48.07.188,HF_wild_card,2022.2.4,MacIntel,59.97361161,5efcd984f7176d0e6a59dd17,64d2fd46c836a06233681665,64dc7f270f8c32a0027f3743,,,,,,,sngl,resources/Empty.png,resources/DY.BMP,Door3,0.232505086,0.014269002,1,0,0,0.6979,optionRight,70,2225,1,41,0,41,0,1,,,,,,,,,,,,,,,,,,,,,,,,,,,,,,,,,,,,,,,
,,,,,,,,2023-08-16_08h48.07.188,HF_wild_card,2022.2.4,MacIntel,59.97361161,5efcd984f7176d0e6a59dd17,64d2fd46c836a06233681665,64dc7f270f8c32a0027f3743,,,,,,,sngl,resources/DBN.BMP,resources/Empty.png,Door4,-0.259348958,-0.002611966,1,0,0,0.8298,optionLeft,80,2305,1,42,0,42,0,1,,,,,,,,,,,,,,,,,,,,,,,,,,,,,,,,,,,,,,,
,,,,,,,,2023-08-16_08h48.07.188,HF_wild_card,2022.2.4,MacIntel,59.97361161,5efcd984f7176d0e6a59dd17,64d2fd46c836a06233681665,64dc7f270f8c32a0027f3743,,,,,,,decisionTrl,resources/DG.BMP,resources/DP.BMP,Door2,-0.297325236,-0.010071886,1,0,0,1.5165,optionLeft,20,2325,1,43,0,43,0,1,,,,,,,,,,,,,,,,,,,,,,,,,,,,,,,,,,,,,,,
,,,,,,,,2023-08-16_08h48.07.188,HF_wild_card,2022.2.4,MacIntel,59.97361161,5efcd984f7176d0e6a59dd17,64d2fd46c836a06233681665,64dc7f270f8c32a0027f3743,,,,,,,,,,,,,,,,,,,,,,,,,,0,0,0,0,1,,,,,,,,,,,,,,,,,,,,,,,,,,,,,,,,,,
,,,,,,,,2023-08-16_08h48.07.188,HF_wild_card,2022.2.4,MacIntel,59.97361161,5efcd984f7176d0e6a59dd17,64d2fd46c836a06233681665,64dc7f270f8c32a0027f3743,,,,,,,decisionTrl,resources/DBN.BMP,resources/DY.BMP,Door4,-0.31287974,-0.161719428,1,0,0,1.1159,optionLeft,60,2385,2,0,0,0,0,1,,,,,,,,,,,,,,,,,,,,,,,,,,,,,,,,,,,,,,,
,,,,,,,,2023-08-16_08h48.07.188,HF_wild_card,2022.2.4,MacIntel,59.97361161,5efcd984f7176d0e6a59dd17,64d2fd46c836a06233681665,64dc7f270f8c32a0027f3743,,,,,,,decisionTrl,resources/DP.BMP,resources/DB.BMP,Door1,-0.317806702,0.015262858,1,0,0,1.746,optionLeft,30,2415,2,1,0,1,0,1,,,,,,,,,,,,,,,,,,,,,,,,,,,,,,,,,,,,,,,
,,,,,,,,2023-08-16_08h48.07.188,HF_wild_card,2022.2.4,MacIntel,59.97361161,5efcd984f7176d0e6a59dd17,64d2fd46c836a06233681665,64dc7f270f8c32a0027f3743,,,,,,,decisionTrl,resources/DB.BMP,resources/DP.BMP,Door1,0.123186306,-0.003705919,1,0,0,1.3478,optionRight,30,2445,2,2,0,2,0,1,,,,,,,,,,,,,,,,,,,,,,,,,,,,,,,,,,,,,,,
,,,,,,,,2023-08-16_08h48.07.188,HF_wild_card,2022.2.4,MacIntel,59.97361161,5efcd984f7176d0e6a59dd17,64d2fd46c836a06233681665,64dc7f270f8c32a0027f3743,,,,,,,sngl,resources/Empty.png,resources/DP.BMP,Door1,0.206272719,0.006910027,1,0,0,0.7146,optionRight,30,2475,2,3,0,3,0,1,,,,,,,,,,,,,,,,,,,,,,,,,,,,,,,,,,,,,,,
,,,,,,,,2023-08-16_08h48.07.188,HF_wild_card,2022.2.4,MacIntel,59.97361161,5efcd984f7176d0e6a59dd17,64d2fd46c836a06233681665,64dc7f270f8c32a0027f3743,,,,,,,decisionTrl,resources/DG.BMP,resources/DP.BMP,Door1,0.223313192,-0.007650146,1,0,0,1.2799,optionRight,30,2505,2,4,0,4,0,1,,,,,,,,,,,,,,,,,,,,,,,,,,,,,,,,,,,,,,,
,,,,,,,,2023-08-16_08h48.07.188,HF_wild_card,2022.2.4,MacIntel,59.97361161,5efcd984f7176d0e6a59dd17,64d2fd46c836a06233681665,64dc7f270f8c32a0027f3743,,,,,,,decisionTrl,resources/DP.BMP,resources/DG.BMP,Door1,-0.239482524,-0.032860684,1,0,0,0.8949,optionLeft,30,2535,2,5,0,5,0,1,,,,,,,,,,,,,,,,,,,,,,,,,,,,,,,,,,,,,,,
,,,,,,,,2023-08-16_08h48.07.188,HF_wild_card,2022.2.4,MacIntel,59.97361161,5efcd984f7176d0e6a59dd17,64d2fd46c836a06233681665,64dc7f270f8c32a0027f3743,,,,,,,sngl,resources/DP.BMP,resources/Empty.png,Door1,-0.206800673,0.008569878,1,0,0,0.6478,optionLeft,30,2565,2,6,0,6,0,1,,,,,,,,,,,,,,,,,,,,,,,,,,,,,,,,,,,,,,,
,,,,,,,,2023-08-16_08h48.07.188,HF_wild_card,2022.2.4,MacIntel,59.97361161,5efcd984f7176d0e6a59dd17,64d2fd46c836a06233681665,64dc7f270f8c32a0027f3743,,,,,,,decisionTrl,resources/DY.BMP,resources/DB.BMP,Door3,-0.208336521,-0.003219672,1,0,0,0.8641,optionLeft,70,2635,2,7,0,7,0,1,,,,,,,,,,,,,,,,,,,,,,,,,,,,,,,,,,,,,,,
,,,,,,,,2023-08-16_08h48.07.188,HF_wild_card,2022.2.4,MacIntel,59.97361161,5efcd984f7176d0e6a59dd17,64d2fd46c836a06233681665,64dc7f270f8c32a0027f3743,,,,,,,decisionTrl,resources/DP.BMP,resources/DG.BMP,Door1,-0.270106676,-0.015370416,1,0,0,1.0274,optionLeft,30,2665,2,8,0,8,0,1,,,,,,,,,,,,,,,,,,,,,,,,,,,,,,,,,,,,,,,
,,,,,,,,2023-08-16_08h48.07.188,HF_wild_card,2022.2.4,MacIntel,59.97361161,5efcd984f7176d0e6a59dd17,64d2fd46c836a06233681665,64dc7f270f8c32a0027f3743,,,,,,,decisionTrl,resources/DB.BMP,resources/DBN.BMP,Door4,0.331370104,-0.026277669,1,0,0,0.8156,optionRight,60,2725,2,9,0,9,0,1,,,,,,,,,,,,,,,,,,,,,,,,,,,,,,,,,,,,,,,
,,,,,,,,2023-08-16_08h48.07.188,HF_wild_card,2022.2.4,MacIntel,59.97361161,5efcd984f7176d0e6a59dd17,64d2fd46c836a06233681665,64dc7f270f8c32a0027f3743,,,,,,,decisionTrl,resources/DBN.BMP,resources/DB.BMP,Door4,-0.202562459,-0.017169732,1,0,0,0.7778,optionLeft,60,2785,2,10,0,10,0,1,,,,,,,,,,,,,,,,,,,,,,,,,,,,,,,,,,,,,,,
,,,,,,,,2023-08-16_08h48.07.188,HF_wild_card,2022.2.4,MacIntel,59.97361161,5efcd984f7176d0e6a59dd17,64d2fd46c836a06233681665,64dc7f270f8c32a0027f3743,,,,,,,ctch,resources/DY.BMP,resources/DG.BMP,Door3,-0.206650323,0.012521261,1,0,0,0.7974,optionLeft,70,2855,2,11,0,11,0,1,,,,,,,,,,,,,,,,,,,,,,,,,,,,,,,,,,,,,,,
,,,,,,,,2023-08-16_08h48.07.188,HF_wild_card,2022.2.4,MacIntel,59.97361161,5efcd984f7176d0e6a59dd17,64d2fd46c836a06233681665,64dc7f270f8c32a0027f3743,,,,,,,decisionTrl,resources/DG.BMP,resources/DP.BMP,Door2,-0.232347276,-0.040226712,1,0,0,2.1639,optionLeft,40,2895,2,12,0,12,0,1,,,,,,,,,,,,,,,,,,,,,,,,,,,,,,,,,,,,,,,
,,,,,,,,2023-08-16_08h48.07.188,HF_wild_card,2022.2.4,MacIntel,59.97361161,5efcd984f7176d0e6a59dd17,64d2fd46c836a06233681665,64dc7f270f8c32a0027f3743,,,,,,,decisionTrl,resources/DB.BMP,resources/DY.BMP,Door3,0.242274645,0.015471259,1,0,0,0.8983,optionRight,70,2965,2,13,0,13,0,1,,,,,,,,,,,,,,,,,,,,,,,,,,,,,,,,,,,,,,,
,,,,,,,,2023-08-16_08h48.07.188,HF_wild_card,2022.2.4,MacIntel,59.97361161,5efcd984f7176d0e6a59dd17,64d2fd46c836a06233681665,64dc7f270f8c32a0027f3743,,,,,,,sngl,resources/Empty.png,resources/DY.BMP,Door3,0.223143107,0.004734904,1,0,0,0.6971,optionRight,70,3035,2,14,0,14,0,1,,,,,,,,,,,,,,,,,,,,,,,,,,,,,,,,,,,,,,,
,,,,,,,,2023-08-16_08h48.07.188,HF_wild_card,2022.2.4,MacIntel,59.97361161,5efcd984f7176d0e6a59dd17,64d2fd46c836a06233681665,64dc7f270f8c32a0027f3743,,,,,,,decisionTrl,resources/DY.BMP,resources/DBN.BMP,Door4,0.27619222,-0.007071058,1,0,0,0.8664,optionRight,60,3095,2,15,0,15,0,1,,,,,,,,,,,,,,,,,,,,,,,,,,,,,,,,,,,,,,,
,,,,,,,,2023-08-16_08h48.07.188,HF_wild_card,2022.2.4,MacIntel,59.97361161,5efcd984f7176d0e6a59dd17,64d2fd46c836a06233681665,64dc7f270f8c32a0027f3743,,,,,,,sngl,resources/Empty.png,resources/DB.BMP,WildCard_NonEx,0.252745226,-0.017569682,1,0,0,0.713,optionRight,55,3150,2,16,0,16,0,1,,,,,,,,,,,,,,,,,,,,,,,,,,,,,,,,,,,,,,,
,,,,,,,,2023-08-16_08h48.07.188,HF_wild_card,2022.2.4,MacIntel,59.97361161,5efcd984f7176d0e6a59dd17,64d2fd46c836a06233681665,64dc7f270f8c32a0027f3743,,,,,,,decisionTrl,resources/DBN.BMP,resources/DY.BMP,Door4,-0.238072103,-0.01358473,1,0,0,0.9465,optionLeft,80,3230,2,17,0,17,0,1,,,,,,,,,,,,,,,,,,,,,,,,,,,,,,,,,,,,,,,
,,,,,,,,2023-08-16_08h48.07.188,HF_wild_card,2022.2.4,MacIntel,59.97361161,5efcd984f7176d0e6a59dd17,64d2fd46c836a06233681665,64dc7f270f8c32a0027f3743,,,,,,,decisionTrl,resources/DY.BMP,resources/DBN.BMP,Door4,0.288297729,0.000839912,1,0,0,0.6819,optionRight,60,3290,2,18,0,18,0,1,,,,,,,,,,,,,,,,,,,,,,,,,,,,,,,,,,,,,,,
,,,,,,,,2023-08-16_08h48.07.188,HF_wild_card,2022.2.4,MacIntel,59.97361161,5efcd984f7176d0e6a59dd17,64d2fd46c836a06233681665,64dc7f270f8c32a0027f3743,,,,,,,sngl,resources/DB.BMP,resources/Empty.png,WildCard_NonEx,-0.198871392,-0.007270237,1,0,0,0.9432,optionLeft,45,3335,2,19,0,19,0,1,,,,,,,,,,,,,,,,,,,,,,,,,,,,,,,,,,,,,,,
,,,,,,,,2023-08-16_08h48.07.188,HF_wild_card,2022.2.4,MacIntel,59.97361161,5efcd984f7176d0e6a59dd17,64d2fd46c836a06233681665,64dc7f270f8c32a0027f3743,,,,,,,ctch,resources/DG.BMP,resources/DY.BMP,Door3,0.19545695,-0.021420017,1,0,0,1.7651,optionRight,70,3405,2,20,0,20,0,1,,,,,,,,,,,,,,,,,,,,,,,,,,,,,,,,,,,,,,,
,,,,,,,,2023-08-16_08h48.07.188,HF_wild_card,2022.2.4,MacIntel,59.97361161,5efcd984f7176d0e6a59dd17,64d2fd46c836a06233681665,64dc7f270f8c32a0027f3743,,,,,,,sngl,resources/DBN.BMP,resources/Empty.png,Door4,-0.230692952,0.044508396,1,0,0,0.7158,optionLeft,60,3465,2,21,0,21,0,1,,,,,,,,,,,,,,,,,,,,,,,,,,,,,,,,,,,,,,,
,,,,,,,,2023-08-16_08h48.07.188,HF_wild_card,2022.2.4,MacIntel,59.97361161,5efcd984f7176d0e6a59dd17,64d2fd46c836a06233681665,64dc7f270f8c32a0027f3743,,,,,,,decisionTrl,resources/DBN.BMP,resources/DY.BMP,Door4,-0.191254069,0.05951277,1,0,0,0.8135,optionLeft,80,3545,2,22,0,22,0,1,,,,,,,,,,,,,,,,,,,,,,,,,,,,,,,,,,,,,,,
,,,,,,,,2023-08-16_08h48.07.188,HF_wild_card,2022.2.4,MacIntel,59.97361161,5efcd984f7176d0e6a59dd17,64d2fd46c836a06233681665,64dc7f270f8c32a0027f3743,,,,,,,decisionTrl,resources/DB.BMP,resources/DG.BMP,WildCard_NonEx,-0.155014174,-0.054807434,1,0,0,1.6701,optionLeft,45,3590,2,23,0,23,0,1,,,,,,,,,,,,,,,,,,,,,,,,,,,,,,,,,,,,,,,
,,,,,,,,2023-08-16_08h48.07.188,HF_wild_card,2022.2.4,MacIntel,59.97361161,5efcd984f7176d0e6a59dd17,64d2fd46c836a06233681665,64dc7f270f8c32a0027f3743,,,,,,,sngl,resources/DG.BMP,resources/Empty.png,Door2,-0.19435947,0.001279161,1,0,0,0.6963,optionLeft,20,3610,2,24,0,24,0,1,,,,,,,,,,,,,,,,,,,,,,,,,,,,,,,,,,,,,,,
,,,,,,,,2023-08-16_08h48.07.188,HF_wild_card,2022.2.4,MacIntel,59.97361161,5efcd984f7176d0e6a59dd17,64d2fd46c836a06233681665,64dc7f270f8c32a0027f3743,,,,,,,ctch,resources/DBN.BMP,resources/DP.BMP,Door4,-0.265131802,0.040105726,1,0,0,0.8748,optionLeft,60,3670,2,25,0,25,0,1,,,,,,,,,,,,,,,,,,,,,,,,,,,,,,,,,,,,,,,
,,,,,,,,2023-08-16_08h48.07.188,HF_wild_card,2022.2.4,MacIntel,59.97361161,5efcd984f7176d0e6a59dd17,64d2fd46c836a06233681665,64dc7f270f8c32a0027f3743,,,,,,,sngl,resources/Empty.png,resources/DG.BMP,Door2,0.244393785,-0.017849155,1,0,0,0.9323,optionRight,40,3710,2,26,0,26,0,1,,,,,,,,,,,,,,,,,,,,,,,,,,,,,,,,,,,,,,,
,,,,,,,,2023-08-16_08h48.07.188,HF_wild_card,2022.2.4,MacIntel,59.97361161,5efcd984f7176d0e6a59dd17,64d2fd46c836a06233681665,64dc7f270f8c32a0027f3743,,,,,,,decisionTrl,resources/DP.BMP,resources/DG.BMP,Door1,-0.207640381,0.000476752,1,0,0,1.5299,optionLeft,30,3740,2,27,0,27,0,1,,,,,,,,,,,,,,,,,,,,,,,,,,,,,,,,,,,,,,,
,,,,,,,,2023-08-16_08h48.07.188,HF_wild_card,2022.2.4,MacIntel,59.97361161,5efcd984f7176d0e6a59dd17,64d2fd46c836a06233681665,64dc7f270f8c32a0027f3743,,,,,,,decisionTrl,resources/DP.BMP,resources/DG.BMP,Door1,-0.181913249,0.016259359,1,0,0,1.0144,optionLeft,30,3770,2,28,0,28,0,1,,,,,,,,,,,,,,,,,,,,,,,,,,,,,,,,,,,,,,,
,,,,,,,,2023-08-16_08h48.07.188,HF_wild_card,2022.2.4,MacIntel,59.97361161,5efcd984f7176d0e6a59dd17,64d2fd46c836a06233681665,64dc7f270f8c32a0027f3743,,,,,,,decisionTrl,resources/DG.BMP,resources/DB.BMP,WildCard_NonEx,0.204604424,-0.062933994,1,0,0,1.7384,optionRight,45,3815,2,29,0,29,0,1,,,,,,,,,,,,,,,,,,,,,,,,,,,,,,,,,,,,,,,
,,,,,,,,2023-08-16_08h48.07.188,HF_wild_card,2022.2.4,MacIntel,59.97361161,5efcd984f7176d0e6a59dd17,64d2fd46c836a06233681665,64dc7f270f8c32a0027f3743,,,,,,,sngl,resources/DY.BMP,resources/Empty.png,Door3,-0.241843906,0.004814589,1,0,0,0.729,optionLeft,70,3885,2,30,0,30,0,1,,,,,,,,,,,,,,,,,,,,,,,,,,,,,,,,,,,,,,,
,,,,,,,,2023-08-16_08h48.07.188,HF_wild_card,2022.2.4,MacIntel,59.97361161,5efcd984f7176d0e6a59dd17,64d2fd46c836a06233681665,64dc7f270f8c32a0027f3743,,,,,,,sngl,resources/DB.BMP,resources/Empty.png,WildCard_NonEx,-0.272844781,0.069256354,1,0,0,0.6776,optionLeft,55,3940,2,31,0,31,0,1,,,,,,,,,,,,,,,,,,,,,,,,,,,,,,,,,,,,,,,
,,,,,,,,2023-08-16_08h48.07.188,HF_wild_card,2022.2.4,MacIntel,59.97361161,5efcd984f7176d0e6a59dd17,64d2fd46c836a06233681665,64dc7f270f8c32a0027f3743,,,,,,,decisionTrl,resources/DBN.BMP,resources/DY.BMP,Door4,-0.227479045,0.049040256,1,0,0,0.8467,optionLeft,60,4000,2,32,0,32,0,1,,,,,,,,,,,,,,,,,,,,,,,,,,,,,,,,,,,,,,,
,,,,,,,,2023-08-16_08h48.07.188,HF_wild_card,2022.2.4,MacIntel,59.97361161,5efcd984f7176d0e6a59dd17,64d2fd46c836a06233681665,64dc7f270f8c32a0027f3743,,,,,,,ctch,resources/DP.BMP,resources/DBN.BMP,Door4,0.170807292,0.005422092,1,0,0,0.8815,optionRight,60,4060,2,33,0,33,0,1,,,,,,,,,,,,,,,,,,,,,,,,,,,,,,,,,,,,,,,
,,,,,,,,2023-08-16_08h48.07.188,HF_wild_card,2022.2.4,MacIntel,59.97361161,5efcd984f7176d0e6a59dd17,64d2fd46c836a06233681665,64dc7f270f8c32a0027f3743,,,,,,,decisionTrl,resources/DG.BMP,resources/DP.BMP,Door1,0.174127808,0.005102946,1,0,0,1.6473,optionRight,30,4090,2,34,0,34,0,1,,,,,,,,,,,,,,,,,,,,,,,,,,,,,,,,,,,,,,,
,,,,,,,,2023-08-16_08h48.07.188,HF_wild_card,2022.2.4,MacIntel,59.97361161,5efcd984f7176d0e6a59dd17,64d2fd46c836a06233681665,64dc7f270f8c32a0027f3743,,,,,,,ctch,resources/DP.BMP,resources/DBN.BMP,Door4,-0.454715814,-0.382916802,1,0,0,1.0913,optionRight,80,4170,2,35,0,35,0,1,,,,,,,,,,,,,,,,,,,,,,,,,,,,,,,,,,,,,,,
,,,,,,,,2023-08-16_08h48.07.188,HF_wild_card,2022.2.4,MacIntel,59.97361161,5efcd984f7176d0e6a59dd17,64d2fd46c836a06233681665,64dc7f270f8c32a0027f3743,,,,,,,sngl,resources/Empty.png,resources/DB.BMP,WildCard_NonEx,0.270987752,0.000579563,1,0,0,0.7966,optionRight,45,4215,2,36,0,36,0,1,,,,,,,,,,,,,,,,,,,,,,,,,,,,,,,,,,,,,,,
,,,,,,,,2023-08-16_08h48.07.188,HF_wild_card,2022.2.4,MacIntel,59.97361161,5efcd984f7176d0e6a59dd17,64d2fd46c836a06233681665,64dc7f270f8c32a0027f3743,,,,,,,decisionTrl,resources/DY.BMP,resources/DBN.BMP,Door4,0.276665785,0.068106825,1,0,0,0.5819,optionRight,80,4295,2,37,0,37,0,1,,,,,,,,,,,,,,,,,,,,,,,,,,,,,,,,,,,,,,,
,,,,,,,,2023-08-16_08h48.07.188,HF_wild_card,2022.2.4,MacIntel,59.97361161,5efcd984f7176d0e6a59dd17,64d2fd46c836a06233681665,64dc7f270f8c32a0027f3743,,,,,,,ctch,resources/DBN.BMP,resources/DP.BMP,Door4,-0.28035041,0.015289714,1,0,0,1.0475,optionLeft,60,4355,2,38,0,38,0,1,,,,,,,,,,,,,,,,,,,,,,,,,,,,,,,,,,,,,,,
,,,,,,,,2023-08-16_08h48.07.188,HF_wild_card,2022.2.4,MacIntel,59.97361161,5efcd984f7176d0e6a59dd17,64d2fd46c836a06233681665,64dc7f270f8c32a0027f3743,,,,,,,decisionTrl,resources/DY.BMP,resources/DBN.BMP,Door3,-0.225039334,0.021275499,1,0,0,1.098,optionLeft,70,4425,2,39,0,39,0,1,,,,,,,,,,,,,,,,,,,,,,,,,,,,,,,,,,,,,,,
,,,,,,,,2023-08-16_08h48.07.188,HF_wild_card,2022.2.4,MacIntel,59.97361161,5efcd984f7176d0e6a59dd17,64d2fd46c836a06233681665,64dc7f270f8c32a0027f3743,,,,,,,decisionTrl,resources/DG.BMP,resources/DP.BMP,Door1,0.216025865,0.033097975,1,0,0,4.0274,optionRight,30,4455,2,40,0,40,0,1,,,,,,,,,,,,,,,,,,,,,,,,,,,,,,,,,,,,,,,
,,,,,,,,2023-08-16_08h48.07.188,HF_wild_card,2022.2.4,MacIntel,59.97361161,5efcd984f7176d0e6a59dd17,64d2fd46c836a06233681665,64dc7f270f8c32a0027f3743,,,,,,,sngl,resources/Empty.png,resources/DBN.BMP,Door4,0.20270284,-0.011399333,1,0,0,0.7635,optionRight,80,4535,2,41,0,41,0,1,,,,,,,,,,,,,,,,,,,,,,,,,,,,,,,,,,,,,,,
,,,,,,,,2023-08-16_08h48.07.188,HF_wild_card,2022.2.4,MacIntel,59.97361161,5efcd984f7176d0e6a59dd17,64d2fd46c836a06233681665,64dc7f270f8c32a0027f3743,,,,,,,ctch,resources/DY.BMP,resources/DG.BMP,Door3,-0.167622409,-0.016774258,1,0,0,0.8772,optionLeft,70,4605,2,42,0,42,0,1,,,,,,,,,,,,,,,,,,,,,,,,,,,,,,,,,,,,,,,
,,,,,,,,2023-08-16_08h48.07.188,HF_wild_card,2022.2.4,MacIntel,59.97361161,5efcd984f7176d0e6a59dd17,64d2fd46c836a06233681665,64dc7f270f8c32a0027f3743,,,,,,,ctch,resources/DG.BMP,resources/DY.BMP,Door3,0.23768887,0.024788344,1,0,0,0.6655,optionRight,70,4675,2,43,0,43,0,1,,,,,,,,,,,,,,,,,,,,,,,,,,,,,,,,,,,,,,,
,,,,,,,,2023-08-16_08h48.07.188,HF_wild_card,2022.2.4,MacIntel,59.97361161,5efcd984f7176d0e6a59dd17,64d2fd46c836a06233681665,64dc7f270f8c32a0027f3743,,,,,,,,,,,,,,,,,,,,,,,,,,1,0,1,0,1,,,,,,,,,,,,,,,,,,,,,,,,,,,,,,,,,,
,,,,,,,,2023-08-16_08h48.07.188,HF_wild_card,2022.2.4,MacIntel,59.97361161,5efcd984f7176d0e6a59dd17,64d2fd46c836a06233681665,64dc7f270f8c32a0027f3743,,,,,,,decisionTrl,resources/DP.BMP,resources/DG.BMP,Door1,-0.208583849,-0.053241713,1,0,0,1.0476,optionLeft,30,4705,3,0,0,0,0,1,,,,,,,,,,,,,,,,,,,,,,,,,,,,,,,,,,,,,,,
,,,,,,,,2023-08-16_08h48.07.188,HF_wild_card,2022.2.4,MacIntel,59.97361161,5efcd984f7176d0e6a59dd17,64d2fd46c836a06233681665,64dc7f270f8c32a0027f3743,,,,,,,decisionTrl,resources/DY.BMP,resources/DBN.BMP,Door3,-0.222413127,0.00381524,1,0,0,1.1143,optionLeft,70,4775,3,1,0,1,0,1,,,,,,,,,,,,,,,,,,,,,,,,,,,,,,,,,,,,,,,
,,,,,,,,2023-08-16_08h48.07.188,HF_wild_card,2022.2.4,MacIntel,59.97361161,5efcd984f7176d0e6a59dd17,64d2fd46c836a06233681665,64dc7f270f8c32a0027f3743,,,,,,,decisionTrl,resources/DG.BMP,resources/DP.BMP,Door2,-0.197372369,0.00360928,1,0,0,2.5658,optionLeft,20,4795,3,2,0,2,0,1,,,,,,,,,,,,,,,,,,,,,,,,,,,,,,,,,,,,,,,
,,,,,,,,2023-08-16_08h48.07.188,HF_wild_card,2022.2.4,MacIntel,59.97361161,5efcd984f7176d0e6a59dd17,64d2fd46c836a06233681665,64dc7f270f8c32a0027f3743,,,,,,,decisionTrl,resources/DB.BMP,resources/DP.BMP,WildCard_NonEx,-0.31929657,0.00384847,1,0,0,1.2324,optionLeft,45,4840,3,3,0,3,0,1,,,,,,,,,,,,,,,,,,,,,,,,,,,,,,,,,,,,,,,
,,,,,,,,2023-08-16_08h48.07.188,HF_wild_card,2022.2.4,MacIntel,59.97361161,5efcd984f7176d0e6a59dd17,64d2fd46c836a06233681665,64dc7f270f8c32a0027f3743,,,,,,,decisionTrl,resources/DB.BMP,resources/DY.BMP,Door3,0.264416436,0.00064053,1,0,0,1.0988,optionRight,70,4910,3,4,0,4,0,1,,,,,,,,,,,,,,,,,,,,,,,,,,,,,,,,,,,,,,,
,,,,,,,,2023-08-16_08h48.07.188,HF_wild_card,2022.2.4,MacIntel,59.97361161,5efcd984f7176d0e6a59dd17,64d2fd46c836a06233681665,64dc7f270f8c32a0027f3743,,,,,,,decisionTrl,resources/DY.BMP,resources/DBN.BMP,Door3,-0.276344367,0.025186835,1,0,0,0.6777,optionLeft,70,4980,3,5,0,5,0,1,,,,,,,,,,,,,,,,,,,,,,,,,,,,,,,,,,,,,,,
,,,,,,,,2023-08-16_08h48.07.188,HF_wild_card,2022.2.4,MacIntel,59.97361161,5efcd984f7176d0e6a59dd17,64d2fd46c836a06233681665,64dc7f270f8c32a0027f3743,,,,,,,decisionTrl,resources/DP.BMP,resources/DG.BMP,Door1,-0.224630127,-0.062400445,1,0,0,1.648,optionLeft,30,5010,3,6,0,6,0,1,,,,,,,,,,,,,,,,,,,,,,,,,,,,,,,,,,,,,,,
,,,,,,,,2023-08-16_08h48.07.188,HF_wild_card,2022.2.4,MacIntel,59.97361161,5efcd984f7176d0e6a59dd17,64d2fd46c836a06233681665,64dc7f270f8c32a0027f3743,,,,,,,decisionTrl,resources/DBN.BMP,resources/DY.BMP,Door4,-0.200070597,0.025441555,1,0,0,0.9794,optionLeft,80,5090,3,7,0,7,0,1,,,,,,,,,,,,,,,,,,,,,,,,,,,,,,,,,,,,,,,
,,,,,,,,2023-08-16_08h48.07.188,HF_wild_card,2022.2.4,MacIntel,59.97361161,5efcd984f7176d0e6a59dd17,64d2fd46c836a06233681665,64dc7f270f8c32a0027f3743,,,,,,,sngl,resources/Empty.png,resources/DB.BMP,WildCard_NonEx,0.280574476,0.022821587,1,0,0,0.7155,optionRight,45,5135,3,8,0,8,0,1,,,,,,,,,,,,,,,,,,,,,,,,,,,,,,,,,,,,,,,
,,,,,,,,2023-08-16_08h48.07.188,HF_wild_card,2022.2.4,MacIntel,59.97361161,5efcd984f7176d0e6a59dd17,64d2fd46c836a06233681665,64dc7f270f8c32a0027f3743,,,,,,,decisionTrl,resources/DG.BMP,resources/DP.BMP,Door1,0.151167128,-0.004604289,1,0,0,1.6331,optionRight,30,5165,3,9,0,9,0,1,,,,,,,,,,,,,,,,,,,,,,,,,,,,,,,,,,,,,,,
,,,,,,,,2023-08-16_08h48.07.188,HF_wild_card,2022.2.4,MacIntel,59.97361161,5efcd984f7176d0e6a59dd17,64d2fd46c836a06233681665,64dc7f270f8c32a0027f3743,,,,,,,decisionTrl,resources/DY.BMP,resources/DBN.BMP,Door4,0.314460585,0.033518575,1,0,0,0.8634,optionRight,80,5245,3,10,0,10,0,1,,,,,,,,,,,,,,,,,,,,,,,,,,,,,,,,,,,,,,,
,,,,,,,,2023-08-16_08h48.07.188,HF_wild_card,2022.2.4,MacIntel,59.97361161,5efcd984f7176d0e6a59dd17,64d2fd46c836a06233681665,64dc7f270f8c32a0027f3743,,,,,,,decisionTrl,resources/DBN.BMP,resources/DB.BMP,Door4,-0.256387634,0.018696086,1,0,0,0.8454,optionLeft,80,5325,3,11,0,11,0,1,,,,,,,,,,,,,,,,,,,,,,,,,,,,,,,,,,,,,,,
,,,,,,,,2023-08-16_08h48.07.188,HF_wild_card,2022.2.4,MacIntel,59.97361161,5efcd984f7176d0e6a59dd17,64d2fd46c836a06233681665,64dc7f270f8c32a0027f3743,,,,,,,sngl,resources/DB.BMP,resources/Empty.png,WildCard_NonEx,-0.265572578,0.034362318,1,0,0,0.6626,optionLeft,45,5370,3,12,0,12,0,1,,,,,,,,,,,,,,,,,,,,,,,,,,,,,,,,,,,,,,,
,,,,,,,,2023-08-16_08h48.07.188,HF_wild_card,2022.2.4,MacIntel,59.97361161,5efcd984f7176d0e6a59dd17,64d2fd46c836a06233681665,64dc7f270f8c32a0027f3743,,,,,,,decisionTrl,resources/DB.BMP,resources/DG.BMP,WildCard_NonEx,-0.233664246,0.017615492,1,0,0,1.1734,optionLeft,55,5425,3,13,0,13,0,1,,,,,,,,,,,,,,,,,,,,,,,,,,,,,,,,,,,,,,,
,,,,,,,,2023-08-16_08h48.07.188,HF_wild_card,2022.2.4,MacIntel,59.97361161,5efcd984f7176d0e6a59dd17,64d2fd46c836a06233681665,64dc7f270f8c32a0027f3743,,,,,,,decisionTrl,resources/DG.BMP,resources/DB.BMP,WildCard_NonEx,0.2576435,0.018547262,1,0,0,1.0823,optionRight,45,5470,3,14,0,14,0,1,,,,,,,,,,,,,,,,,,,,,,,,,,,,,,,,,,,,,,,
,,,,,,,,2023-08-16_08h48.07.188,HF_wild_card,2022.2.4,MacIntel,59.97361161,5efcd984f7176d0e6a59dd17,64d2fd46c836a06233681665,64dc7f270f8c32a0027f3743,,,,,,,decisionTrl,resources/DY.BMP,resources/DBN.BMP,Door4,0.2327516,0.036965332,1,0,0,0.9022,optionRight,80,5550,3,15,0,15,0,1,,,,,,,,,,,,,,,,,,,,,,,,,,,,,,,,,,,,,,,
,,,,,,,,2023-08-16_08h48.07.188,HF_wild_card,2022.2.4,MacIntel,59.97361161,5efcd984f7176d0e6a59dd17,64d2fd46c836a06233681665,64dc7f270f8c32a0027f3743,,,,,,,decisionTrl,resources/DP.BMP,resources/DB.BMP,WildCard_NonEx,0.139803331,-0.010492622,1,0,0,1.2307,optionRight,45,5595,3,16,0,16,0,1,,,,,,,,,,,,,,,,,,,,,,,,,,,,,,,,,,,,,,,
,,,,,,,,2023-08-16_08h48.07.188,HF_wild_card,2022.2.4,MacIntel,59.97361161,5efcd984f7176d0e6a59dd17,64d2fd46c836a06233681665,64dc7f270f8c32a0027f3743,,,,,,,ctch,resources/DP.BMP,resources/DBN.BMP,Door4,0.208324314,0.02428772,1,0,0,0.8752,optionRight,80,5675,3,17,0,17,0,1,,,,,,,,,,,,,,,,,,,,,,,,,,,,,,,,,,,,,,,
,,,,,,,,2023-08-16_08h48.07.188,HF_wild_card,2022.2.4,MacIntel,59.97361161,5efcd984f7176d0e6a59dd17,64d2fd46c836a06233681665,64dc7f270f8c32a0027f3743,,,,,,,sngl,resources/Empty.png,resources/DB.BMP,WildCard_NonEx,0.240636258,0.024658305,1,0,0,0.8985,optionRight,55,5730,3,18,0,18,0,1,,,,,,,,,,,,,,,,,,,,,,,,,,,,,,,,,,,,,,,
,,,,,,,,2023-08-16_08h48.07.188,HF_wild_card,2022.2.4,MacIntel,59.97361161,5efcd984f7176d0e6a59dd17,64d2fd46c836a06233681665,64dc7f270f8c32a0027f3743,,,,,,,sngl,resources/Empty.png,resources/DBN.BMP,Door4,0.211415812,0.01994873,1,0,0,0.747,optionRight,60,5790,3,19,0,19,0,1,,,,,,,,,,,,,,,,,,,,,,,,,,,,,,,,,,,,,,,
,,,,,,,,2023-08-16_08h48.07.188,HF_wild_card,2022.2.4,MacIntel,59.97361161,5efcd984f7176d0e6a59dd17,64d2fd46c836a06233681665,64dc7f270f8c32a0027f3743,,,,,,,decisionTrl,resources/DP.BMP,resources/DG.BMP,Door1,-0.325528971,-0.04859097,1,0,0,1.9467,optionLeft,30,5820,3,20,0,20,0,1,,,,,,,,,,,,,,,,,,,,,,,,,,,,,,,,,,,,,,,
,,,,,,,,2023-08-16_08h48.07.188,HF_wild_card,2022.2.4,MacIntel,59.97361161,5efcd984f7176d0e6a59dd17,64d2fd46c836a06233681665,64dc7f270f8c32a0027f3743,,,,,,,sngl,resources/Empty.png,resources/DG.BMP,Door2,0.304590997,0.010612386,1,0,0,0.6466,optionRight,20,5840,3,21,0,21,0,1,,,,,,,,,,,,,,,,,,,,,,,,,,,,,,,,,,,,,,,
,,,,,,,,2023-08-16_08h48.07.188,HF_wild_card,2022.2.4,MacIntel,59.97361161,5efcd984f7176d0e6a59dd17,64d2fd46c836a06233681665,64dc7f270f8c32a0027f3743,,,,,,,sngl,resources/DBN.BMP,resources/Empty.png,Door4,-0.243566657,0.014298299,1,0,0,0.7807,optionLeft,80,5920,3,22,0,22,0,1,,,,,,,,,,,,,,,,,,,,,,,,,,,,,,,,,,,,,,,
,,,,,,,,2023-08-16_08h48.07.188,HF_wild_card,2022.2.4,MacIntel,59.97361161,5efcd984f7176d0e6a59dd17,64d2fd46c836a06233681665,64dc7f270f8c32a0027f3743,,,,,,,decisionTrl,resources/DBN.BMP,resources/DY.BMP,Door4,-0.231702983,0.028187731,1,0,0,1.1665,optionLeft,80,6000,3,23,0,23,0,1,,,,,,,,,,,,,,,,,,,,,,,,,,,,,,,,,,,,,,,
,,,,,,,,2023-08-16_08h48.07.188,HF_wild_card,2022.2.4,MacIntel,59.97361161,5efcd984f7176d0e6a59dd17,64d2fd46c836a06233681665,64dc7f270f8c32a0027f3743,,,,,,,decisionTrl,resources/DG.BMP,resources/DP.BMP,Door1,0.157695719,0.008035312,1,0,0,1.6478,optionRight,30,6030,3,24,0,24,0,1,,,,,,,,,,,,,,,,,,,,,,,,,,,,,,,,,,,,,,,
,,,,,,,,2023-08-16_08h48.07.188,HF_wild_card,2022.2.4,MacIntel,59.97361161,5efcd984f7176d0e6a59dd17,64d2fd46c836a06233681665,64dc7f270f8c32a0027f3743,,,,,,,ctch,resources/DG.BMP,resources/DY.BMP,Door3,0.2798369,0.016021661,1,0,0,1.047,optionRight,70,6100,3,25,0,25,0,1,,,,,,,,,,,,,,,,,,,,,,,,,,,,,,,,,,,,,,,
,,,,,,,,2023-08-16_08h48.07.188,HF_wild_card,2022.2.4,MacIntel,59.97361161,5efcd984f7176d0e6a59dd17,64d2fd46c836a06233681665,64dc7f270f8c32a0027f3743,,,,,,,sngl,resources/DP.BMP,resources/Empty.png,Door1,-0.216092258,0.031368612,1,0,0,0.6934,optionLeft,30,6130,3,26,0,26,0,1,,,,,,,,,,,,,,,,,,,,,,,,,,,,,,,,,,,,,,,
,,,,,,,,2023-08-16_08h48.07.188,HF_wild_card,2022.2.4,MacIntel,59.97361161,5efcd984f7176d0e6a59dd17,64d2fd46c836a06233681665,64dc7f270f8c32a0027f3743,,,,,,,decisionTrl,resources/DBN.BMP,resources/DY.BMP,Door4,-0.188333876,0.034625854,1,0,0,0.9972,optionLeft,60,6190,3,27,0,27,0,1,,,,,,,,,,,,,,,,,,,,,,,,,,,,,,,,,,,,,,,
,,,,,,,,2023-08-16_08h48.07.188,HF_wild_card,2022.2.4,MacIntel,59.97361161,5efcd984f7176d0e6a59dd17,64d2fd46c836a06233681665,64dc7f270f8c32a0027f3743,,,,,,,decisionTrl,resources/DP.BMP,resources/DG.BMP,Door1,-0.268648478,0.009676988,1,0,0,1.3817,optionLeft,30,6220,3,28,0,28,0,1,,,,,,,,,,,,,,,,,,,,,,,,,,,,,,,,,,,,,,,
,,,,,,,,2023-08-16_08h48.07.188,HF_wild_card,2022.2.4,MacIntel,59.97361161,5efcd984f7176d0e6a59dd17,64d2fd46c836a06233681665,64dc7f270f8c32a0027f3743,,,,,,,sngl,resources/DY.BMP,resources/Empty.png,Door3,-0.23829678,0.015271403,1,0,0,0.6642,optionLeft,70,6290,3,29,0,29,0,1,,,,,,,,,,,,,,,,,,,,,,,,,,,,,,,,,,,,,,,
,,,,,,,,2023-08-16_08h48.07.188,HF_wild_card,2022.2.4,MacIntel,59.97361161,5efcd984f7176d0e6a59dd17,64d2fd46c836a06233681665,64dc7f270f8c32a0027f3743,,,,,,,decisionTrl,resources/DB.BMP,resources/DBN.BMP,Door4,0.275913222,0.094333089,1,0,0,0.6128,optionRight,60,6350,3,30,0,30,0,1,,,,,,,,,,,,,,,,,,,,,,,,,,,,,,,,,,,,,,,
,,,,,,,,2023-08-16_08h48.07.188,HF_wild_card,2022.2.4,MacIntel,59.97361161,5efcd984f7176d0e6a59dd17,64d2fd46c836a06233681665,64dc7f270f8c32a0027f3743,,,,,,,sngl,resources/Empty.png,resources/DY.BMP,Door3,0.271097683,0.036629096,1,0,0,0.6301,optionRight,70,6420,3,31,0,31,0,1,,,,,,,,,,,,,,,,,,,,,,,,,,,,,,,,,,,,,,,
,,,,,,,,2023-08-16_08h48.07.188,HF_wild_card,2022.2.4,MacIntel,59.97361161,5efcd984f7176d0e6a59dd17,64d2fd46c836a06233681665,64dc7f270f8c32a0027f3743,,,,,,,ctch,resources/DY.BMP,resources/DG.BMP,Door3,-0.201331719,0.007182821,1,0,0,0.6741,optionLeft,70,6490,3,32,0,32,0,1,,,,,,,,,,,,,,,,,,,,,,,,,,,,,,,,,,,,,,,
,,,,,,,,2023-08-16_08h48.07.188,HF_wild_card,2022.2.4,MacIntel,59.97361161,5efcd984f7176d0e6a59dd17,64d2fd46c836a06233681665,64dc7f270f8c32a0027f3743,,,,,,,ctch,resources/DP.BMP,resources/DBN.BMP,Door4,0.262143962,-0.011038683,1,0,0,0.8318,optionRight,60,6550,3,33,0,33,0,1,,,,,,,,,,,,,,,,,,,,,,,,,,,,,,,,,,,,,,,
,,,,,,,,2023-08-16_08h48.07.188,HF_wild_card,2022.2.4,MacIntel,59.97361161,5efcd984f7176d0e6a59dd17,64d2fd46c836a06233681665,64dc7f270f8c32a0027f3743,,,,,,,sngl,resources/DB.BMP,resources/Empty.png,WildCard_NonEx,-0.243727654,0.016060316,1,0,0,0.6448,optionLeft,55,6605,3,34,0,34,0,1,,,,,,,,,,,,,,,,,,,,,,,,,,,,,,,,,,,,,,,
,,,,,,,,2023-08-16_08h48.07.188,HF_wild_card,2022.2.4,MacIntel,59.97361161,5efcd984f7176d0e6a59dd17,64d2fd46c836a06233681665,64dc7f270f8c32a0027f3743,,,,,,,decisionTrl,resources/DY.BMP,resources/DB.BMP,Door3,-0.269491815,-0.000924038,1,0,0,1.1314,optionLeft,70,6675,3,35,0,35,0,1,,,,,,,,,,,,,,,,,,,,,,,,,,,,,,,,,,,,,,,
,,,,,,,,2023-08-16_08h48.07.188,HF_wild_card,2022.2.4,MacIntel,59.97361161,5efcd984f7176d0e6a59dd17,64d2fd46c836a06233681665,64dc7f270f8c32a0027f3743,,,,,,,sngl,resources/Empty.png,resources/DP.BMP,Door1,0.261425781,0.02092926,1,0,0,0.6987,optionRight,30,6705,3,36,0,36,0,1,,,,,,,,,,,,,,,,,,,,,,,,,,,,,,,,,,,,,,,
,,,,,,,,2023-08-16_08h48.07.188,HF_wild_card,2022.2.4,MacIntel,59.97361161,5efcd984f7176d0e6a59dd17,64d2fd46c836a06233681665,64dc7f270f8c32a0027f3743,,,,,,,decisionTrl,resources/DG.BMP,resources/DP.BMP,Door1,0.221264648,0.022548286,1,0,0,1.4484,optionRight,30,6735,3,37,0,37,0,1,,,,,,,,,,,,,,,,,,,,,,,,,,,,,,,,,,,,,,,
,,,,,,,,2023-08-16_08h48.07.188,HF_wild_card,2022.2.4,MacIntel,59.97361161,5efcd984f7176d0e6a59dd17,64d2fd46c836a06233681665,64dc7f270f8c32a0027f3743,,,,,,,ctch,resources/DBN.BMP,resources/DP.BMP,Door4,-0.278652581,0.026313951,1,0,0,0.659,optionLeft,80,6815,3,38,0,38,0,1,,,,,,,,,,,,,,,,,,,,,,,,,,,,,,,,,,,,,,,
,,,,,,,,2023-08-16_08h48.07.188,HF_wild_card,2022.2.4,MacIntel,59.97361161,5efcd984f7176d0e6a59dd17,64d2fd46c836a06233681665,64dc7f270f8c32a0027f3743,,,,,,,sngl,resources/DG.BMP,resources/Empty.png,Door2,-0.271976454,0.024447767,1,0,0,0.8147,optionLeft,40,6855,3,39,0,39,0,1,,,,,,,,,,,,,,,,,,,,,,,,,,,,,,,,,,,,,,,
,,,,,,,,2023-08-16_08h48.07.188,HF_wild_card,2022.2.4,MacIntel,59.97361161,5efcd984f7176d0e6a59dd17,64d2fd46c836a06233681665,64dc7f270f8c32a0027f3743,,,,,,,ctch,resources/DG.BMP,resources/DY.BMP,Door3,0.26247267,0.016291097,1,0,0,1.748,optionRight,70,6925,3,40,0,40,0,1,,,,,,,,,,,,,,,,,,,,,,,,,,,,,,,,,,,,,,,
,,,,,,,,2023-08-16_08h48.07.188,HF_wild_card,2022.2.4,MacIntel,59.97361161,5efcd984f7176d0e6a59dd17,64d2fd46c836a06233681665,64dc7f270f8c32a0027f3743,,,,,,,decisionTrl,resources/DBN.BMP,resources/DY.BMP,Door4,-0.206270481,0.024335395,1,0,0,1.1651,optionLeft,60,6985,3,41,0,41,0,1,,,,,,,,,,,,,,,,,,,,,,,,,,,,,,,,,,,,,,,
,,,,,,,,2023-08-16_08h48.07.188,HF_wild_card,2022.2.4,MacIntel,59.97361161,5efcd984f7176d0e6a59dd17,64d2fd46c836a06233681665,64dc7f270f8c32a0027f3743,,,,,,,ctch,resources/DY.BMP,resources/DG.BMP,Door3,-0.298265991,0.006361152,1,0,0,0.7315,optionLeft,70,7055,3,42,0,42,0,1,,,,,,,,,,,,,,,,,,,,,,,,,,,,,,,,,,,,,,,
,,,,,,,,2023-08-16_08h48.07.188,HF_wild_card,2022.2.4,MacIntel,59.97361161,5efcd984f7176d0e6a59dd17,64d2fd46c836a06233681665,64dc7f270f8c32a0027f3743,,,,,,,ctch,resources/DBN.BMP,resources/DP.BMP,Door4,-0.24256134,0.030307278,1,0,0,0.8489,optionLeft,60,7115,3,43,0,43,0,1,,,,,,,,,,,,,,,,,,,,,,,,,,,,,,,,,,,,,,,
,,,,,,,,2023-08-16_08h48.07.188,HF_wild_card,2022.2.4,MacIntel,59.97361161,5efcd984f7176d0e6a59dd17,64d2fd46c836a06233681665,64dc7f270f8c32a0027f3743,,,,,,,,,,,,,,,,,,,,,,,,,,2,0,2,0,1,,,,,,,,,,,,,,,,,,,,,,,,,,,,,,,,,,
,,,,,,,,2023-08-16_08h48.07.188,HF_wild_card,2022.2.4,MacIntel,59.97361161,5efcd984f7176d0e6a59dd17,64d2fd46c836a06233681665,64dc7f270f8c32a0027f3743,,,,,,,decisionTrl,resources/DG.BMP,resources/DP.BMP,Door1,0.257338392,-0.002186754,1,0,0,1.6045,optionRight,30,7145,4,0,0,0,0,1,,,,,,,,,,,,,,,,,,,,,,,,,,,,,,,,,,,,,,,
,,,,,,,,2023-08-16_08h48.07.188,HF_wild_card,2022.2.4,MacIntel,59.97361161,5efcd984f7176d0e6a59dd17,64d2fd46c836a06233681665,64dc7f270f8c32a0027f3743,,,,,,,sngl,resources/Empty.png,resources/DG.BMP,Door2,0.286260851,-0.011245321,1,0,0,0.9155,optionRight,40,7185,4,1,0,1,0,1,,,,,,,,,,,,,,,,,,,,,,,,,,,,,,,,,,,,,,,
,,,,,,,,2023-08-16_08h48.07.188,HF_wild_card,2022.2.4,MacIntel,59.97361161,5efcd984f7176d0e6a59dd17,64d2fd46c836a06233681665,64dc7f270f8c32a0027f3743,,,,,,,decisionTrl,resources/DY.BMP,resources/DBN.BMP,Door4,0.352864312,0.028786146,1,0,0,0.8355,optionRight,60,7245,4,2,0,2,0,1,,,,,,,,,,,,,,,,,,,,,,,,,,,,,,,,,,,,,,,
,,,,,,,,2023-08-16_08h48.07.188,HF_wild_card,2022.2.4,MacIntel,59.97361161,5efcd984f7176d0e6a59dd17,64d2fd46c836a06233681665,64dc7f270f8c32a0027f3743,,,,,,,decisionTrl,resources/DY.BMP,resources/DBN.BMP,Door3,-0.262459412,-0.025484348,1,0,0,0.6305,optionLeft,70,7315,4,3,0,3,0,1,,,,,,,,,,,,,,,,,,,,,,,,,,,,,,,,,,,,,,,
,,,,,,,,2023-08-16_08h48.07.188,HF_wild_card,2022.2.4,MacIntel,59.97361161,5efcd984f7176d0e6a59dd17,64d2fd46c836a06233681665,64dc7f270f8c32a0027f3743,,,,,,,decisionTrl,resources/DBN.BMP,resources/DY.BMP,Door3,0.299248861,0.014403178,1,0,0,0.6328,optionRight,70,7385,4,4,0,4,0,1,,,,,,,,,,,,,,,,,,,,,,,,,,,,,,,,,,,,,,,
,,,,,,,,2023-08-16_08h48.07.188,HF_wild_card,2022.2.4,MacIntel,59.97361161,5efcd984f7176d0e6a59dd17,64d2fd46c836a06233681665,64dc7f270f8c32a0027f3743,,,,,,,decisionTrl,resources/DR.BMP,resources/DP.BMP,WildCard_Ex,-0.200400187,-0.035656738,1,0,0,1.4142,optionLeft,45,7430,4,5,0,5,0,1,,,,,,,,,,,,,,,,,,,,,,,,,,,,,,,,,,,,,,,
,,,,,,,,2023-08-16_08h48.07.188,HF_wild_card,2022.2.4,MacIntel,59.97361161,5efcd984f7176d0e6a59dd17,64d2fd46c836a06233681665,64dc7f270f8c32a0027f3743,,,,,,,decisionTrl,resources/DBN.BMP,resources/DR.BMP,Door4,-0.165786743,0.011169501,1,0,0,0.8987,optionLeft,80,7510,4,6,0,6,0,1,,,,,,,,,,,,,,,,,,,,,,,,,,,,,,,,,,,,,,,
,,,,,,,,2023-08-16_08h48.07.188,HF_wild_card,2022.2.4,MacIntel,59.97361161,5efcd984f7176d0e6a59dd17,64d2fd46c836a06233681665,64dc7f270f8c32a0027f3743,,,,,,,sngl,resources/DY.BMP,resources/Empty.png,Door3,-0.219093085,0.027999878,1,0,0,0.6984,optionLeft,70,7580,4,7,0,7,0,1,,,,,,,,,,,,,,,,,,,,,,,,,,,,,,,,,,,,,,,
,,,,,,,,2023-08-16_08h48.07.188,HF_wild_card,2022.2.4,MacIntel,59.97361161,5efcd984f7176d0e6a59dd17,64d2fd46c836a06233681665,64dc7f270f8c32a0027f3743,,,,,,,ctch,resources/DG.BMP,resources/DY.BMP,Door3,0.334108344,-0.0175609,1,0,0,1.7983,optionRight,70,7650,4,8,0,8,0,1,,,,,,,,,,,,,,,,,,,,,,,,,,,,,,,,,,,,,,,
,,,,,,,,2023-08-16_08h48.07.188,HF_wild_card,2022.2.4,MacIntel,59.97361161,5efcd984f7176d0e6a59dd17,64d2fd46c836a06233681665,64dc7f270f8c32a0027f3743,,,,,,,ctch,resources/DY.BMP,resources/DG.BMP,Door3,-0.408273519,-0.005024651,1,0,0,0.6997,optionLeft,70,7720,4,9,0,9,0,1,,,,,,,,,,,,,,,,,,,,,,,,,,,,,,,,,,,,,,,
,,,,,,,,2023-08-16_08h48.07.188,HF_wild_card,2022.2.4,MacIntel,59.97361161,5efcd984f7176d0e6a59dd17,64d2fd46c836a06233681665,64dc7f270f8c32a0027f3743,,,,,,,sngl,resources/Empty.png,resources/DP.BMP,Door1,0.358024902,-1.56657E-05,1,0,0,0.6466,optionRight,30,7750,4,10,0,10,0,1,,,,,,,,,,,,,,,,,,,,,,,,,,,,,,,,,,,,,,,
,,,,,,,,2023-08-16_08h48.07.188,HF_wild_card,2022.2.4,MacIntel,59.97361161,5efcd984f7176d0e6a59dd17,64d2fd46c836a06233681665,64dc7f270f8c32a0027f3743,,,,,,,sngl,resources/DP.BMP,resources/Empty.png,Door1,-0.286449076,0.011078491,1,0,0,0.6462,optionLeft,30,7780,4,11,0,11,0,1,,,,,,,,,,,,,,,,,,,,,,,,,,,,,,,,,,,,,,,
,,,,,,,,2023-08-16_08h48.07.188,HF_wild_card,2022.2.4,MacIntel,59.97361161,5efcd984f7176d0e6a59dd17,64d2fd46c836a06233681665,64dc7f270f8c32a0027f3743,,,,,,,decisionTrl,resources/DP.BMP,resources/DG.BMP,Door1,-0.199268731,-0.025941298,1,0,0,1.3135,optionLeft,30,7810,4,12,0,12,0,1,,,,,,,,,,,,,,,,,,,,,,,,,,,,,,,,,,,,,,,
,,,,,,,,2023-08-16_08h48.07.188,HF_wild_card,2022.2.4,MacIntel,59.97361161,5efcd984f7176d0e6a59dd17,64d2fd46c836a06233681665,64dc7f270f8c32a0027f3743,,,,,,,decisionTrl,resources/DG.BMP,resources/DP.BMP,Door1,0.296910265,-0.01224745,1,0,0,0.6611,optionRight,30,7840,4,13,0,13,0,1,,,,,,,,,,,,,,,,,,,,,,,,,,,,,,,,,,,,,,,
,,,,,,,,2023-08-16_08h48.07.188,HF_wild_card,2022.2.4,MacIntel,59.97361161,5efcd984f7176d0e6a59dd17,64d2fd46c836a06233681665,64dc7f270f8c32a0027f3743,,,,,,,ctch,resources/DP.BMP,resources/DBN.BMP,Door4,0.316284519,0.000990194,1,0,0,0.8483,optionRight,80,7920,4,14,0,14,0,1,,,,,,,,,,,,,,,,,,,,,,,,,,,,,,,,,,,,,,,
,,,,,,,,2023-08-16_08h48.07.188,HF_wild_card,2022.2.4,MacIntel,59.97361161,5efcd984f7176d0e6a59dd17,64d2fd46c836a06233681665,64dc7f270f8c32a0027f3743,,,,,,,sngl,resources/DBN.BMP,resources/Empty.png,Door4,-0.2979992,-0.038203159,1,0,0,0.649,optionLeft,60,7980,4,15,0,15,0,1,,,,,,,,,,,,,,,,,,,,,,,,,,,,,,,,,,,,,,,
,,,,,,,,2023-08-16_08h48.07.188,HF_wild_card,2022.2.4,MacIntel,59.97361161,5efcd984f7176d0e6a59dd17,64d2fd46c836a06233681665,64dc7f270f8c32a0027f3743,,,,,,,decisionTrl,resources/DBN.BMP,resources/DY.BMP,Door4,-0.324395549,-0.005065443,1,0,0,1.284,optionLeft,80,8060,4,16,0,16,0,1,,,,,,,,,,,,,,,,,,,,,,,,,,,,,,,,,,,,,,,
,,,,,,,,2023-08-16_08h48.07.188,HF_wild_card,2022.2.4,MacIntel,59.97361161,5efcd984f7176d0e6a59dd17,64d2fd46c836a06233681665,64dc7f270f8c32a0027f3743,,,,,,,sngl,resources/DR.BMP,resources/Empty.png,WildCard_Ex,-0.317570326,-0.006747979,1,0,0,0.9318,optionLeft,55,8115,4,17,0,17,0,1,,,,,,,,,,,,,,,,,,,,,,,,,,,,,,,,,,,,,,,
,,,,,,,,2023-08-16_08h48.07.188,HF_wild_card,2022.2.4,MacIntel,59.97361161,5efcd984f7176d0e6a59dd17,64d2fd46c836a06233681665,64dc7f270f8c32a0027f3743,,,,,,,decisionTrl,resources/DR.BMP,resources/DBN.BMP,Door4,0.260670437,-0.016296658,1,0,0,0.9994,optionRight,80,8195,4,18,0,18,0,1,,,,,,,,,,,,,,,,,,,,,,,,,,,,,,,,,,,,,,,
,,,,,,,,2023-08-16_08h48.07.188,HF_wild_card,2022.2.4,MacIntel,59.97361161,5efcd984f7176d0e6a59dd17,64d2fd46c836a06233681665,64dc7f270f8c32a0027f3743,,,,,,,decisionTrl,resources/DBN.BMP,resources/DY.BMP,Door4,-0.278673333,-0.013321804,1,0,0,0.7014,optionLeft,60,8255,4,19,0,19,0,1,,,,,,,,,,,,,,,,,,,,,,,,,,,,,,,,,,,,,,,
,,,,,,,,2023-08-16_08h48.07.188,HF_wild_card,2022.2.4,MacIntel,59.97361161,5efcd984f7176d0e6a59dd17,64d2fd46c836a06233681665,64dc7f270f8c32a0027f3743,,,,,,,sngl,resources/Empty.png,resources/DR.BMP,WildCard_Ex,0.362916802,0.024891493,1,0,0,0.6632,optionRight,55,8310,4,20,0,20,0,1,,,,,,,,,,,,,,,,,,,,,,,,,,,,,,,,,,,,,,,
,,,,,,,,2023-08-16_08h48.07.188,HF_wild_card,2022.2.4,MacIntel,59.97361161,5efcd984f7176d0e6a59dd17,64d2fd46c836a06233681665,64dc7f270f8c32a0027f3743,,,,,,,decisionTrl,resources/DY.BMP,resources/DBN.BMP,Door4,0.289854262,0.004750027,1,0,0,0.8808,optionRight,60,8370,4,21,0,21,0,1,,,,,,,,,,,,,,,,,,,,,,,,,,,,,,,,,,,,,,,
,,,,,,,,2023-08-16_08h48.07.188,HF_wild_card,2022.2.4,MacIntel,59.97361161,5efcd984f7176d0e6a59dd17,64d2fd46c836a06233681665,64dc7f270f8c32a0027f3743,,,,,,,ctch,resources/DG.BMP,resources/DY.BMP,Door3,0.245993991,-0.039393311,1,0,0,0.7812,optionRight,70,8440,4,22,0,22,0,1,,,,,,,,,,,,,,,,,,,,,,,,,,,,,,,,,,,,,,,
,,,,,,,,2023-08-16_08h48.07.188,HF_wild_card,2022.2.4,MacIntel,59.97361161,5efcd984f7176d0e6a59dd17,64d2fd46c836a06233681665,64dc7f270f8c32a0027f3743,,,,,,,decisionTrl,resources/DR.BMP,resources/DG.BMP,WildCard_Ex,-0.266057943,-0.02318434,1,0,0,0.8146,optionLeft,55,8495,4,23,0,23,0,1,,,,,,,,,,,,,,,,,,,,,,,,,,,,,,,,,,,,,,,
,,,,,,,,2023-08-16_08h48.07.188,HF_wild_card,2022.2.4,MacIntel,59.97361161,5efcd984f7176d0e6a59dd17,64d2fd46c836a06233681665,64dc7f270f8c32a0027f3743,,,,,,,decisionTrl,resources/DY.BMP,resources/DR.BMP,Door3,-0.189974772,0.010998264,1,0,0,0.8772,optionLeft,70,8565,4,24,0,24,0,1,,,,,,,,,,,,,,,,,,,,,,,,,,,,,,,,,,,,,,,
,,,,,,,,2023-08-16_08h48.07.188,HF_wild_card,2022.2.4,MacIntel,59.97361161,5efcd984f7176d0e6a59dd17,64d2fd46c836a06233681665,64dc7f270f8c32a0027f3743,,,,,,,sngl,resources/Empty.png,resources/DY.BMP,Door3,0.344888509,0.003815986,1,0,0,0.5985,optionRight,70,8635,4,25,0,25,0,1,,,,,,,,,,,,,,,,,,,,,,,,,,,,,,,,,,,,,,,
,,,,,,,,2023-08-16_08h48.07.188,HF_wild_card,2022.2.4,MacIntel,59.97361161,5efcd984f7176d0e6a59dd17,64d2fd46c836a06233681665,64dc7f270f8c32a0027f3743,,,,,,,decisionTrl,resources/DBN.BMP,resources/DY.BMP,Door3,0.376885851,-0.049668647,1,0,0,2.1991,optionRight,70,8705,4,26,0,26,0,1,,,,,,,,,,,,,,,,,,,,,,,,,,,,,,,,,,,,,,,
,,,,,,,,2023-08-16_08h48.07.188,HF_wild_card,2022.2.4,MacIntel,59.97361161,5efcd984f7176d0e6a59dd17,64d2fd46c836a06233681665,64dc7f270f8c32a0027f3743,,,,,,,ctch,resources/DBN.BMP,resources/DP.BMP,Door4,-0.243591444,-0.005795966,1,0,0,0.7483,optionLeft,80,8785,4,27,0,27,0,1,,,,,,,,,,,,,,,,,,,,,,,,,,,,,,,,,,,,,,,
,,,,,,,,2023-08-16_08h48.07.188,HF_wild_card,2022.2.4,MacIntel,59.97361161,5efcd984f7176d0e6a59dd17,64d2fd46c836a06233681665,64dc7f270f8c32a0027f3743,,,,,,,decisionTrl,resources/DY.BMP,resources/DBN.BMP,Door3,-0.23910753,0.001450602,1,0,0,1.0614,optionLeft,70,8855,4,28,0,28,0,1,,,,,,,,,,,,,,,,,,,,,,,,,,,,,,,,,,,,,,,
,,,,,,,,2023-08-16_08h48.07.188,HF_wild_card,2022.2.4,MacIntel,59.97361161,5efcd984f7176d0e6a59dd17,64d2fd46c836a06233681665,64dc7f270f8c32a0027f3743,,,,,,,sngl,resources/DG.BMP,resources/Empty.png,Door2,-0.291850416,-0.048856676,1,0,0,1.0832,optionLeft,20,8875,4,29,0,29,0,1,,,,,,,,,,,,,,,,,,,,,,,,,,,,,,,,,,,,,,,
,,,,,,,,2023-08-16_08h48.07.188,HF_wild_card,2022.2.4,MacIntel,59.97361161,5efcd984f7176d0e6a59dd17,64d2fd46c836a06233681665,64dc7f270f8c32a0027f3743,,,,,,,decisionTrl,resources/DP.BMP,resources/DG.BMP,Door1,-0.20920261,-0.017591214,1,0,0,2.0309,optionLeft,30,8905,4,30,0,30,0,1,,,,,,,,,,,,,,,,,,,,,,,,,,,,,,,,,,,,,,,
,,,,,,,,2023-08-16_08h48.07.188,HF_wild_card,2022.2.4,MacIntel,59.97361161,5efcd984f7176d0e6a59dd17,64d2fd46c836a06233681665,64dc7f270f8c32a0027f3743,,,,,,,ctch,resources/DBN.BMP,resources/DP.BMP,Door4,-0.300925632,-0.043807237,1,0,0,0.9005,optionLeft,80,8985,4,31,0,31,0,1,,,,,,,,,,,,,,,,,,,,,,,,,,,,,,,,,,,,,,,
,,,,,,,,2023-08-16_08h48.07.188,HF_wild_card,2022.2.4,MacIntel,59.97361161,5efcd984f7176d0e6a59dd17,64d2fd46c836a06233681665,64dc7f270f8c32a0027f3743,,,,,,,decisionTrl,resources/DP.BMP,resources/DG.BMP,Door1,-0.212116835,-0.055958659,1,0,0,1.0785,optionLeft,30,9015,4,32,0,32,0,1,,,,,,,,,,,,,,,,,,,,,,,,,,,,,,,,,,,,,,,
,,,,,,,,2023-08-16_08h48.07.188,HF_wild_card,2022.2.4,MacIntel,59.97361161,5efcd984f7176d0e6a59dd17,64d2fd46c836a06233681665,64dc7f270f8c32a0027f3743,,,,,,,sngl,resources/Empty.png,resources/DBN.BMP,Door4,0.432243652,0.00419515,1,0,0,0.6141,optionRight,80,9095,4,33,0,33,0,1,,,,,,,,,,,,,,,,,,,,,,,,,,,,,,,,,,,,,,,
,,,,,,,,2023-08-16_08h48.07.188,HF_wild_card,2022.2.4,MacIntel,59.97361161,5efcd984f7176d0e6a59dd17,64d2fd46c836a06233681665,64dc7f270f8c32a0027f3743,,,,,,,decisionTrl,resources/DR.BMP,resources/DY.BMP,WildCard_Ex,-0.229778714,-0.030690986,1,0,0,1.0656,optionLeft,55,9150,4,34,0,34,0,1,,,,,,,,,,,,,,,,,,,,,,,,,,,,,,,,,,,,,,,
,,,,,,,,2023-08-16_08h48.07.188,HF_wild_card,2022.2.4,MacIntel,59.97361161,5efcd984f7176d0e6a59dd17,64d2fd46c836a06233681665,64dc7f270f8c32a0027f3743,,,,,,,decisionTrl,resources/DP.BMP,resources/DR.BMP,Door1,-0.202904867,-0.005399645,1,0,0,0.9667,optionLeft,30,9180,4,35,0,35,0,1,,,,,,,,,,,,,,,,,,,,,,,,,,,,,,,,,,,,,,,
,,,,,,,,2023-08-16_08h48.07.188,HF_wild_card,2022.2.4,MacIntel,59.97361161,5efcd984f7176d0e6a59dd17,64d2fd46c836a06233681665,64dc7f270f8c32a0027f3743,,,,,,,decisionTrl,resources/DG.BMP,resources/DP.BMP,Door1,0.14582723,-0.041221313,1,0,0,1.0438,optionRight,30,9210,4,36,0,36,0,1,,,,,,,,,,,,,,,,,,,,,,,,,,,,,,,,,,,,,,,
,,,,,,,,2023-08-16_08h48.07.188,HF_wild_card,2022.2.4,MacIntel,59.97361161,5efcd984f7176d0e6a59dd17,64d2fd46c836a06233681665,64dc7f270f8c32a0027f3743,,,,,,,decisionTrl,resources/DG.BMP,resources/DP.BMP,Door1,0.272447171,-0.040600518,1,0,0,0.7643,optionRight,30,9240,4,37,0,37,0,1,,,,,,,,,,,,,,,,,,,,,,,,,,,,,,,,,,,,,,,
,,,,,,,,2023-08-16_08h48.07.188,HF_wild_card,2022.2.4,MacIntel,59.97361161,5efcd984f7176d0e6a59dd17,64d2fd46c836a06233681665,64dc7f270f8c32a0027f3743,,,,,,,ctch,resources/DY.BMP,resources/DG.BMP,Door3,-0.291557346,0.003087565,1,0,0,0.8998,optionLeft,70,9310,4,38,0,38,0,1,,,,,,,,,,,,,,,,,,,,,,,,,,,,,,,,,,,,,,,
,,,,,,,,2023-08-16_08h48.07.188,HF_wild_card,2022.2.4,MacIntel,59.97361161,5efcd984f7176d0e6a59dd17,64d2fd46c836a06233681665,64dc7f270f8c32a0027f3743,,,,,,,decisionTrl,resources/DG.BMP,resources/DR.BMP,WildCard_Ex,0.259836222,-0.009283346,1,0,0,0.9318,optionRight,45,9355,4,39,0,39,0,1,,,,,,,,,,,,,,,,,,,,,,,,,,,,,,,,,,,,,,,
,,,,,,,,2023-08-16_08h48.07.188,HF_wild_card,2022.2.4,MacIntel,59.97361161,5efcd984f7176d0e6a59dd17,64d2fd46c836a06233681665,64dc7f270f8c32a0027f3743,,,,,,,sngl,resources/DR.BMP,resources/Empty.png,WildCard_Ex,-0.287736206,-0.01441352,1,0,0,0.8497,optionLeft,45,9400,4,40,0,40,0,1,,,,,,,,,,,,,,,,,,,,,,,,,,,,,,,,,,,,,,,
,,,,,,,,2023-08-16_08h48.07.188,HF_wild_card,2022.2.4,MacIntel,59.97361161,5efcd984f7176d0e6a59dd17,64d2fd46c836a06233681665,64dc7f270f8c32a0027f3743,,,,,,,sngl,resources/Empty.png,resources/DR.BMP,WildCard_Ex,0.276736721,0.001527846,1,0,0,0.6958,optionRight,45,9445,4,41,0,41,0,1,,,,,,,,,,,,,,,,,,,,,,,,,,,,,,,,,,,,,,,
,,,,,,,,2023-08-16_08h48.07.188,HF_wild_card,2022.2.4,MacIntel,59.97361161,5efcd984f7176d0e6a59dd17,64d2fd46c836a06233681665,64dc7f270f8c32a0027f3743,,,,,,,ctch,resources/DP.BMP,resources/DBN.BMP,Door4,0.246145291,-0.005851169,1,0,0,0.8017,optionRight,80,9525,4,42,0,42,0,1,,,,,,,,,,,,,,,,,,,,,,,,,,,,,,,,,,,,,,,
,,,,,,,,2023-08-16_08h48.07.188,HF_wild_card,2022.2.4,MacIntel,59.97361161,5efcd984f7176d0e6a59dd17,64d2fd46c836a06233681665,64dc7f270f8c32a0027f3743,,,,,,,decisionTrl,resources/DP.BMP,resources/DG.BMP,Door1,-0.324572042,-0.022038303,1,0,0,1.4971,optionLeft,30,9555,4,43,0,43,0,1,,,,,,,,,,,,,,,,,,,,,,,,,,,,,,,,,,,,,,,
,,,,,,,,2023-08-16_08h48.07.188,HF_wild_card,2022.2.4,MacIntel,59.97361161,5efcd984f7176d0e6a59dd17,64d2fd46c836a06233681665,64dc7f270f8c32a0027f3743,,,,,,,,,,,,,,,,,,,,,,,,,,3,0,3,0,1,,,,,,,,,,,,,,,,,,,,,,,,,,,,,,,,,,
,,,,,,,,2023-08-16_08h48.07.188,HF_wild_card,2022.2.4,MacIntel,59.97361161,5efcd984f7176d0e6a59dd17,64d2fd46c836a06233681665,64dc7f270f8c32a0027f3743,,,,,,,decisionTrl,resources/DY.BMP,resources/DBN.BMP,Door3,-0.210326809,-0.076258681,1,0,0,1.4373,optionLeft,70,9625,5,0,0,0,0,1,,,,,,,,,,,,,,,,,,,,,,,,,,,,,,,,,,,,,,,
,,,,,,,,2023-08-16_08h48.07.188,HF_wild_card,2022.2.4,MacIntel,59.97361161,5efcd984f7176d0e6a59dd17,64d2fd46c836a06233681665,64dc7f270f8c32a0027f3743,,,,,,,decisionTrl,resources/DG.BMP,resources/DP.BMP,Door1,0.297143148,-0.063208618,1,0,0,1.6817,optionRight,30,9655,5,1,0,1,0,1,,,,,,,,,,,,,,,,,,,,,,,,,,,,,,,,,,,,,,,
,,,,,,,,2023-08-16_08h48.07.188,HF_wild_card,2022.2.4,MacIntel,59.97361161,5efcd984f7176d0e6a59dd17,64d2fd46c836a06233681665,64dc7f270f8c32a0027f3743,,,,,,,decisionTrl,resources/DP.BMP,resources/DG.BMP,Door1,-0.278501926,0.000816311,1,0,0,0.7958,optionLeft,30,9685,5,2,0,2,0,1,,,,,,,,,,,,,,,,,,,,,,,,,,,,,,,,,,,,,,,
,,,,,,,,2023-08-16_08h48.07.188,HF_wild_card,2022.2.4,MacIntel,59.97361161,5efcd984f7176d0e6a59dd17,64d2fd46c836a06233681665,64dc7f270f8c32a0027f3743,,,,,,,sngl,resources/DY.BMP,resources/Empty.png,Door3,-0.295045776,-0.006758558,1,0,0,0.7695,optionLeft,70,9755,5,3,0,3,0,1,,,,,,,,,,,,,,,,,,,,,,,,,,,,,,,,,,,,,,,
,,,,,,,,2023-08-16_08h48.07.188,HF_wild_card,2022.2.4,MacIntel,59.97361161,5efcd984f7176d0e6a59dd17,64d2fd46c836a06233681665,64dc7f270f8c32a0027f3743,,,,,,,decisionTrl,resources/DP.BMP,resources/DG.BMP,Door1,-0.241930847,0.009951647,1,0,0,1.178,optionLeft,30,9785,5,4,0,4,0,1,,,,,,,,,,,,,,,,,,,,,,,,,,,,,,,,,,,,,,,
,,,,,,,,2023-08-16_08h48.07.188,HF_wild_card,2022.2.4,MacIntel,59.97361161,5efcd984f7176d0e6a59dd17,64d2fd46c836a06233681665,64dc7f270f8c32a0027f3743,,,,,,,decisionTrl,resources/DR.BMP,resources/DY.BMP,Door3,0.235681966,-0.011375054,1,0,0,0.8803,optionRight,70,9855,5,5,0,5,0,1,,,,,,,,,,,,,,,,,,,,,,,,,,,,,,,,,,,,,,,
,,,,,,,,2023-08-16_08h48.07.188,HF_wild_card,2022.2.4,MacIntel,59.97361161,5efcd984f7176d0e6a59dd17,64d2fd46c836a06233681665,64dc7f270f8c32a0027f3743,,,,,,,decisionTrl,resources/DBN.BMP,resources/DR.BMP,Door4,-0.340069682,-0.020455763,1,0,0,0.8772,optionLeft,80,9935,5,6,0,6,0,1,,,,,,,,,,,,,,,,,,,,,,,,,,,,,,,,,,,,,,,
,,,,,,,,2023-08-16_08h48.07.188,HF_wild_card,2022.2.4,MacIntel,59.97361161,5efcd984f7176d0e6a59dd17,64d2fd46c836a06233681665,64dc7f270f8c32a0027f3743,,,,,,,ctch,resources/DY.BMP,resources/DG.BMP,Door3,-0.262349141,0.006861877,1,0,0,0.8843,optionLeft,70,10005,5,7,0,7,0,1,,,,,,,,,,,,,,,,,,,,,,,,,,,,,,,,,,,,,,,
,,,,,,,,2023-08-16_08h48.07.188,HF_wild_card,2022.2.4,MacIntel,59.97361161,5efcd984f7176d0e6a59dd17,64d2fd46c836a06233681665,64dc7f270f8c32a0027f3743,,,,,,,sngl,resources/Empty.png,resources/DBN.BMP,Door4,0.279495985,-0.033616299,1,0,0,0.7147,optionRight,60,10065,5,8,0,8,0,1,,,,,,,,,,,,,,,,,,,,,,,,,,,,,,,,,,,,,,,
,,,,,,,,2023-08-16_08h48.07.188,HF_wild_card,2022.2.4,MacIntel,59.97361161,5efcd984f7176d0e6a59dd17,64d2fd46c836a06233681665,64dc7f270f8c32a0027f3743,,,,,,,ctch,resources/DG.BMP,resources/DY.BMP,Door3,0.269447021,0.018741625,1,0,0,0.8296,optionRight,70,10135,5,9,0,9,0,1,,,,,,,,,,,,,,,,,,,,,,,,,,,,,,,,,,,,,,,
,,,,,,,,2023-08-16_08h48.07.188,HF_wild_card,2022.2.4,MacIntel,59.97361161,5efcd984f7176d0e6a59dd17,64d2fd46c836a06233681665,64dc7f270f8c32a0027f3743,,,,,,,decisionTrl,resources/DBN.BMP,resources/DY.BMP,Door3,0.285094198,0.000570882,1,0,0,1.5785,optionRight,70,10205,5,10,0,10,0,1,,,,,,,,,,,,,,,,,,,,,,,,,,,,,,,,,,,,,,,
,,,,,,,,2023-08-16_08h48.07.188,HF_wild_card,2022.2.4,MacIntel,59.97361161,5efcd984f7176d0e6a59dd17,64d2fd46c836a06233681665,64dc7f270f8c32a0027f3743,,,,,,,sngl,resources/Empty.png,resources/DP.BMP,Door1,0.231170247,-0.022269796,1,0,0,0.946,optionRight,30,10235,5,11,0,11,0,1,,,,,,,,,,,,,,,,,,,,,,,,,,,,,,,,,,,,,,,
,,,,,,,,2023-08-16_08h48.07.188,HF_wild_card,2022.2.4,MacIntel,59.97361161,5efcd984f7176d0e6a59dd17,64d2fd46c836a06233681665,64dc7f270f8c32a0027f3743,,,,,,,decisionTrl,resources/DG.BMP,resources/DR.BMP,WildCard_Ex,0.23400411,-0.039339566,1,0,0,0.8971,optionRight,55,10290,5,12,0,12,0,1,,,,,,,,,,,,,,,,,,,,,,,,,,,,,,,,,,,,,,,
,,,,,,,,2023-08-16_08h48.07.188,HF_wild_card,2022.2.4,MacIntel,59.97361161,5efcd984f7176d0e6a59dd17,64d2fd46c836a06233681665,64dc7f270f8c32a0027f3743,,,,,,,ctch,resources/DP.BMP,resources/DBN.BMP,Door4,0.296604818,0.006629571,1,0,0,0.9794,optionRight,60,10350,5,13,0,13,0,1,,,,,,,,,,,,,,,,,,,,,,,,,,,,,,,,,,,,,,,
,,,,,,,,2023-08-16_08h48.07.188,HF_wild_card,2022.2.4,MacIntel,59.97361161,5efcd984f7176d0e6a59dd17,64d2fd46c836a06233681665,64dc7f270f8c32a0027f3743,,,,,,,ctch,resources/DBN.BMP,resources/DP.BMP,Door4,-0.278254666,0.000366414,1,0,0,0.8989,optionLeft,80,10430,5,14,0,14,0,1,,,,,,,,,,,,,,,,,,,,,,,,,,,,,,,,,,,,,,,
,,,,,,,,2023-08-16_08h48.07.188,HF_wild_card,2022.2.4,MacIntel,59.97361161,5efcd984f7176d0e6a59dd17,64d2fd46c836a06233681665,64dc7f270f8c32a0027f3743,,,,,,,decisionTrl,resources/DBN.BMP,resources/DY.BMP,Door4,-0.284889492,-0.00901123,1,0,0,0.9809,optionLeft,60,10490,5,15,0,15,0,1,,,,,,,,,,,,,,,,,,,,,,,,,,,,,,,,,,,,,,,
,,,,,,,,2023-08-16_08h48.07.188,HF_wild_card,2022.2.4,MacIntel,59.97361161,5efcd984f7176d0e6a59dd17,64d2fd46c836a06233681665,64dc7f270f8c32a0027f3743,,,,,,,sngl,resources/Empty.png,resources/DR.BMP,WildCard_Ex,0.338761664,-0.001129354,1,0,0,0.6314,optionRight,45,10535,5,16,0,16,0,1,,,,,,,,,,,,,,,,,,,,,,,,,,,,,,,,,,,,,,,
,,,,,,,,2023-08-16_08h48.07.188,HF_wild_card,2022.2.4,MacIntel,59.97361161,5efcd984f7176d0e6a59dd17,64d2fd46c836a06233681665,64dc7f270f8c32a0027f3743,,,,,,,sngl,resources/DR.BMP,resources/Empty.png,WildCard_Ex,-0.334117906,-0.011331245,1,0,0,0.6814,optionLeft,55,10590,5,17,0,17,0,1,,,,,,,,,,,,,,,,,,,,,,,,,,,,,,,,,,,,,,,
,,,,,,,,2023-08-16_08h48.07.188,HF_wild_card,2022.2.4,MacIntel,59.97361161,5efcd984f7176d0e6a59dd17,64d2fd46c836a06233681665,64dc7f270f8c32a0027f3743,,,,,,,decisionTrl,resources/DG.BMP,resources/DP.BMP,Door1,0.254621379,0.002145589,1,0,0,0.9396,optionRight,30,10620,5,18,0,18,0,1,,,,,,,,,,,,,,,,,,,,,,,,,,,,,,,,,,,,,,,
,,,,,,,,2023-08-16_08h48.07.188,HF_wild_card,2022.2.4,MacIntel,59.97361161,5efcd984f7176d0e6a59dd17,64d2fd46c836a06233681665,64dc7f270f8c32a0027f3743,,,,,,,sngl,resources/DG.BMP,resources/Empty.png,Door2,-0.377792291,-0.01761461,1,0,0,0.6611,optionLeft,40,10660,5,19,0,19,0,1,,,,,,,,,,,,,,,,,,,,,,,,,,,,,,,,,,,,,,,
,,,,,,,,2023-08-16_08h48.07.188,HF_wild_card,2022.2.4,MacIntel,59.97361161,5efcd984f7176d0e6a59dd17,64d2fd46c836a06233681665,64dc7f270f8c32a0027f3743,,,,,,,ctch,resources/DP.BMP,resources/DBN.BMP,Door4,0.333552314,0.025610284,1,0,0,0.7953,optionRight,80,10740,5,20,0,20,0,1,,,,,,,,,,,,,,,,,,,,,,,,,,,,,,,,,,,,,,,
,,,,,,,,2023-08-16_08h48.07.188,HF_wild_card,2022.2.4,MacIntel,59.97361161,5efcd984f7176d0e6a59dd17,64d2fd46c836a06233681665,64dc7f270f8c32a0027f3743,,,,,,,decisionTrl,resources/DR.BMP,resources/DG.BMP,WildCard_Ex,-0.327801548,-0.033897366,1,0,0,0.9485,optionLeft,45,10785,5,21,0,21,0,1,,,,,,,,,,,,,,,,,,,,,,,,,,,,,,,,,,,,,,,
,,,,,,,,2023-08-16_08h48.07.188,HF_wild_card,2022.2.4,MacIntel,59.97361161,5efcd984f7176d0e6a59dd17,64d2fd46c836a06233681665,64dc7f270f8c32a0027f3743,,,,,,,ctch,resources/DG.BMP,resources/DY.BMP,Door3,0.274909804,-0.014266663,1,0,0,0.7151,optionRight,70,10855,5,22,0,22,0,1,,,,,,,,,,,,,,,,,,,,,,,,,,,,,,,,,,,,,,,
,,,,,,,,2023-08-16_08h48.07.188,HF_wild_card,2022.2.4,MacIntel,59.97361161,5efcd984f7176d0e6a59dd17,64d2fd46c836a06233681665,64dc7f270f8c32a0027f3743,,,,,,,decisionTrl,resources/DY.BMP,resources/DR.BMP,Door3,-0.288756002,0.012944878,1,0,0,0.7986,optionLeft,70,10925,5,23,0,23,0,1,,,,,,,,,,,,,,,,,,,,,,,,,,,,,,,,,,,,,,,
,,,,,,,,2023-08-16_08h48.07.188,HF_wild_card,2022.2.4,MacIntel,59.97361161,5efcd984f7176d0e6a59dd17,64d2fd46c836a06233681665,64dc7f270f8c32a0027f3743,,,,,,,decisionTrl,resources/DR.BMP,resources/DBN.BMP,Door4,0.210135634,0.008044976,1,0,0,0.7808,optionRight,80,11005,5,24,0,24,0,1,,,,,,,,,,,,,,,,,,,,,,,,,,,,,,,,,,,,,,,
,,,,,,,,2023-08-16_08h48.07.188,HF_wild_card,2022.2.4,MacIntel,59.97361161,5efcd984f7176d0e6a59dd17,64d2fd46c836a06233681665,64dc7f270f8c32a0027f3743,,,,,,,sngl,resources/Empty.png,resources/DR.BMP,WildCard_Ex,0.264614936,0.028714261,1,0,0,0.7139,optionRight,55,11060,5,25,0,25,0,1,,,,,,,,,,,,,,,,,,,,,,,,,,,,,,,,,,,,,,,
,,,,,,,,2023-08-16_08h48.07.188,HF_wild_card,2022.2.4,MacIntel,59.97361161,5efcd984f7176d0e6a59dd17,64d2fd46c836a06233681665,64dc7f270f8c32a0027f3743,,,,,,,decisionTrl,resources/DP.BMP,resources/DG.BMP,Door1,-0.267236701,0.004172567,1,0,0,1.9655,optionLeft,30,11090,5,26,0,26,0,1,,,,,,,,,,,,,,,,,,,,,,,,,,,,,,,,,,,,,,,
,,,,,,,,2023-08-16_08h48.07.188,HF_wild_card,2022.2.4,MacIntel,59.97361161,5efcd984f7176d0e6a59dd17,64d2fd46c836a06233681665,64dc7f270f8c32a0027f3743,,,,,,,ctch,resources/DBN.BMP,resources/DP.BMP,Door4,-0.315609266,0.077546319,1,0,0,0.7793,optionLeft,80,11170,5,27,0,27,0,1,,,,,,,,,,,,,,,,,,,,,,,,,,,,,,,,,,,,,,,
,,,,,,,,2023-08-16_08h48.07.188,HF_wild_card,2022.2.4,MacIntel,59.97361161,5efcd984f7176d0e6a59dd17,64d2fd46c836a06233681665,64dc7f270f8c32a0027f3743,,,,,,,decisionTrl,resources/DG.BMP,resources/DP.BMP,Door1,0.229320001,0.001065606,1,0,0,0.8813,optionRight,30,11200,5,28,0,28,0,1,,,,,,,,,,,,,,,,,,,,,,,,,,,,,,,,,,,,,,,
,,,,,,,,2023-08-16_08h48.07.188,HF_wild_card,2022.2.4,MacIntel,59.97361161,5efcd984f7176d0e6a59dd17,64d2fd46c836a06233681665,64dc7f270f8c32a0027f3743,,,,,,,decisionTrl,resources/DBN.BMP,resources/DY.BMP,Door3,0.242017076,0.01346049,1,0,0,1.6318,optionRight,70,11270,5,29,0,29,0,1,,,,,,,,,,,,,,,,,,,,,,,,,,,,,,,,,,,,,,,
,,,,,,,,2023-08-16_08h48.07.188,HF_wild_card,2022.2.4,MacIntel,59.97361161,5efcd984f7176d0e6a59dd17,64d2fd46c836a06233681665,64dc7f270f8c32a0027f3743,,,,,,,decisionTrl,resources/DY.BMP,resources/DBN.BMP,Door3,-0.27518948,-0.032568902,1,0,0,1.0967,optionLeft,70,11340,5,30,0,30,0,1,,,,,,,,,,,,,,,,,,,,,,,,,,,,,,,,,,,,,,,
,,,,,,,,2023-08-16_08h48.07.188,HF_wild_card,2022.2.4,MacIntel,59.97361161,5efcd984f7176d0e6a59dd17,64d2fd46c836a06233681665,64dc7f270f8c32a0027f3743,,,,,,,decisionTrl,resources/DP.BMP,resources/DG.BMP,Door1,-0.243045146,-0.022885403,1,0,0,0.9471,optionLeft,30,11370,5,31,0,31,0,1,,,,,,,,,,,,,,,,,,,,,,,,,,,,,,,,,,,,,,,
,,,,,,,,2023-08-16_08h48.07.188,HF_wild_card,2022.2.4,MacIntel,59.97361161,5efcd984f7176d0e6a59dd17,64d2fd46c836a06233681665,64dc7f270f8c32a0027f3743,,,,,,,decisionTrl,resources/DP.BMP,resources/DR.BMP,WildCard_Ex,0.23658766,-0.01219279,1,0,0,1.2482,optionRight,55,11425,5,32,0,32,0,1,,,,,,,,,,,,,,,,,,,,,,,,,,,,,,,,,,,,,,,
,,,,,,,,2023-08-16_08h48.07.188,HF_wild_card,2022.2.4,MacIntel,59.97361161,5efcd984f7176d0e6a59dd17,64d2fd46c836a06233681665,64dc7f270f8c32a0027f3743,,,,,,,ctch,resources/DY.BMP,resources/DG.BMP,Door3,-0.328191935,-0.063889703,1,0,0,1.1132,optionLeft,70,11495,5,33,0,33,0,1,,,,,,,,,,,,,,,,,,,,,,,,,,,,,,,,,,,,,,,
,,,,,,,,2023-08-16_08h48.07.188,HF_wild_card,2022.2.4,MacIntel,59.97361161,5efcd984f7176d0e6a59dd17,64d2fd46c836a06233681665,64dc7f270f8c32a0027f3743,,,,,,,sngl,resources/Empty.png,resources/DY.BMP,Door3,0.271457723,-0.033971219,1,0,0,0.7644,optionRight,70,11565,5,34,0,34,0,1,,,,,,,,,,,,,,,,,,,,,,,,,,,,,,,,,,,,,,,
,,,,,,,,2023-08-16_08h48.07.188,HF_wild_card,2022.2.4,MacIntel,59.97361161,5efcd984f7176d0e6a59dd17,64d2fd46c836a06233681665,64dc7f270f8c32a0027f3743,,,,,,,decisionTrl,resources/DBN.BMP,resources/DY.BMP,Door3,0.232535672,-0.026635369,1,0,0,1.1984,optionRight,70,11635,5,35,0,35,0,1,,,,,,,,,,,,,,,,,,,,,,,,,,,,,,,,,,,,,,,
,,,,,,,,2023-08-16_08h48.07.188,HF_wild_card,2022.2.4,MacIntel,59.97361161,5efcd984f7176d0e6a59dd17,64d2fd46c836a06233681665,64dc7f270f8c32a0027f3743,,,,,,,sngl,resources/Empty.png,resources/DG.BMP,Door2,0.274334174,0.000244683,1,0,0,0.7475,optionRight,20,11655,5,36,0,36,0,1,,,,,,,,,,,,,,,,,,,,,,,,,,,,,,,,,,,,,,,
,,,,,,,,2023-08-16_08h48.07.188,HF_wild_card,2022.2.4,MacIntel,59.97361161,5efcd984f7176d0e6a59dd17,64d2fd46c836a06233681665,64dc7f270f8c32a0027f3743,,,,,,,decisionTrl,resources/DY.BMP,resources/DBN.BMP,Door3,-0.323265144,-0.006088325,1,0,0,0.8333,optionLeft,70,11725,5,37,0,37,0,1,,,,,,,,,,,,,,,,,,,,,,,,,,,,,,,,,,,,,,,
,,,,,,,,2023-08-16_08h48.07.188,HF_wild_card,2022.2.4,MacIntel,59.97361161,5efcd984f7176d0e6a59dd17,64d2fd46c836a06233681665,64dc7f270f8c32a0027f3743,,,,,,,sngl,resources/DP.BMP,resources/Empty.png,Door1,-0.349156867,0.034994914,1,0,0,0.7639,optionLeft,30,11755,5,38,0,38,0,1,,,,,,,,,,,,,,,,,,,,,,,,,,,,,,,,,,,,,,,
,,,,,,,,2023-08-16_08h48.07.188,HF_wild_card,2022.2.4,MacIntel,59.97361161,5efcd984f7176d0e6a59dd17,64d2fd46c836a06233681665,64dc7f270f8c32a0027f3743,,,,,,,decisionTrl,resources/DG.BMP,resources/DP.BMP,Door1,0.233058946,-0.014630568,1,0,0,0.9952,optionRight,30,11785,5,39,0,39,0,1,,,,,,,,,,,,,,,,,,,,,,,,,,,,,,,,,,,,,,,
,,,,,,,,2023-08-16_08h48.07.188,HF_wild_card,2022.2.4,MacIntel,59.97361161,5efcd984f7176d0e6a59dd17,64d2fd46c836a06233681665,64dc7f270f8c32a0027f3743,,,,,,,sngl,resources/DBN.BMP,resources/Empty.png,Door4,-0.340431044,0.048312446,1,0,0,0.6992,optionLeft,80,11865,5,40,0,40,0,1,,,,,,,,,,,,,,,,,,,,,,,,,,,,,,,,,,,,,,,
,,,,,,,,2023-08-16_08h48.07.188,HF_wild_card,2022.2.4,MacIntel,59.97361161,5efcd984f7176d0e6a59dd17,64d2fd46c836a06233681665,64dc7f270f8c32a0027f3743,,,,,,,decisionTrl,resources/DY.BMP,resources/DBN.BMP,Door3,-0.125871107,-0.00905521,1,0,0,1.1133,optionLeft,70,11935,5,41,0,41,0,1,,,,,,,,,,,,,,,,,,,,,,,,,,,,,,,,,,,,,,,
,,,,,,,,2023-08-16_08h48.07.188,HF_wild_card,2022.2.4,MacIntel,59.97361161,5efcd984f7176d0e6a59dd17,64d2fd46c836a06233681665,64dc7f270f8c32a0027f3743,,,,,,,sngl,resources/DR.BMP,resources/Empty.png,WildCard_Ex,-0.330662977,0.034914415,1,0,0,0.7625,optionLeft,45,11980,5,42,0,42,0,1,,,,,,,,,,,,,,,,,,,,,,,,,,,,,,,,,,,,,,,
,,,,,,,,2023-08-16_08h48.07.188,HF_wild_card,2022.2.4,MacIntel,59.97361161,5efcd984f7176d0e6a59dd17,64d2fd46c836a06233681665,64dc7f270f8c32a0027f3743,,,,,,,decisionTrl,resources/DR.BMP,resources/DP.BMP,WildCard_Ex,-0.280192362,-0.001835768,1,0,0,0.8118,optionLeft,45,12025,5,43,0,43,0,1,,,,,,,,,,,,,,,,,,,,,,,,,,,,,,,,,,,,,,,
,,,,,,,,2023-08-16_08h48.07.188,HF_wild_card,2022.2.4,MacIntel,59.97361161,5efcd984f7176d0e6a59dd17,64d2fd46c836a06233681665,64dc7f270f8c32a0027f3743,,,,,,,,,,,,,,,,,,,,,,,,,,4,0,4,0,1,,,,,,,,,,,,,,,,,,,,,,,,,,,,,,,,,,
,,,,,,,,2023-08-16_08h48.07.188,HF_wild_card,2022.2.4,MacIntel,59.97361161,5efcd984f7176d0e6a59dd17,64d2fd46c836a06233681665,64dc7f270f8c32a0027f3743,,,,,,,sngl,resources/DP.BMP,resources/Empty.png,Door1,-0.338333774,-0.014651286,1,0,0,0.6842,optionLeft,30,12055,6,0,0,0,0,1,,,,,,,,,,,,,,,,,,,,,,,,,,,,,,,,,,,,,,,
,,,,,,,,2023-08-16_08h48.07.188,HF_wild_card,2022.2.4,MacIntel,59.97361161,5efcd984f7176d0e6a59dd17,64d2fd46c836a06233681665,64dc7f270f8c32a0027f3743,,,,,,,decisionTrl,resources/DR.BMP,resources/DBN.BMP,Door4,0.289623752,-0.020820313,1,0,0,1.4155,optionRight,80,12135,6,1,0,1,0,1,,,,,,,,,,,,,,,,,,,,,,,,,,,,,,,,,,,,,,,
,,,,,,,,2023-08-16_08h48.07.188,HF_wild_card,2022.2.4,MacIntel,59.97361161,5efcd984f7176d0e6a59dd17,64d2fd46c836a06233681665,64dc7f270f8c32a0027f3743,,,,,,,ctch,resources/DBN.BMP,resources/DP.BMP,Door4,-0.3226533,0.041161635,1,0,0,0.798,optionLeft,60,12195,6,2,0,2,0,1,,,,,,,,,,,,,,,,,,,,,,,,,,,,,,,,,,,,,,,
,,,,,,,,2023-08-16_08h48.07.188,HF_wild_card,2022.2.4,MacIntel,59.97361161,5efcd984f7176d0e6a59dd17,64d2fd46c836a06233681665,64dc7f270f8c32a0027f3743,,,,,,,decisionTrl,resources/DG.BMP,resources/DP.BMP,Door1,0.241957533,0.019169549,1,0,0,1.0813,optionRight,30,12225,6,3,0,3,0,1,,,,,,,,,,,,,,,,,,,,,,,,,,,,,,,,,,,,,,,
,,,,,,,,2023-08-16_08h48.07.188,HF_wild_card,2022.2.4,MacIntel,59.97361161,5efcd984f7176d0e6a59dd17,64d2fd46c836a06233681665,64dc7f270f8c32a0027f3743,,,,,,,decisionTrl,resources/DG.BMP,resources/DP.BMP,Door1,0.21180013,0.000858629,1,0,0,1.1053,optionRight,30,12255,6,4,0,4,0,1,,,,,,,,,,,,,,,,,,,,,,,,,,,,,,,,,,,,,,,
,,,,,,,,2023-08-16_08h48.07.188,HF_wild_card,2022.2.4,MacIntel,59.97361161,5efcd984f7176d0e6a59dd17,64d2fd46c836a06233681665,64dc7f270f8c32a0027f3743,,,,,,,decisionTrl,resources/DBN.BMP,resources/DY.BMP,Door3,0.194228516,-0.019810859,1,0,0,1.861,optionRight,70,12325,6,5,0,5,0,1,,,,,,,,,,,,,,,,,,,,,,,,,,,,,,,,,,,,,,,
,,,,,,,,2023-08-16_08h48.07.188,HF_wild_card,2022.2.4,MacIntel,59.97361161,5efcd984f7176d0e6a59dd17,64d2fd46c836a06233681665,64dc7f270f8c32a0027f3743,,,,,,,ctch,resources/DG.BMP,resources/DY.BMP,Door3,0.329342516,-0.031698371,1,0,0,1.1772,optionRight,70,12395,6,6,0,6,0,1,,,,,,,,,,,,,,,,,,,,,,,,,,,,,,,,,,,,,,,
,,,,,,,,2023-08-16_08h48.07.188,HF_wild_card,2022.2.4,MacIntel,59.97361161,5efcd984f7176d0e6a59dd17,64d2fd46c836a06233681665,64dc7f270f8c32a0027f3743,,,,,,,decisionTrl,resources/DP.BMP,resources/DG.BMP,Door1,-0.208905504,-0.003238118,1,0,0,2.1157,optionLeft,30,12425,6,7,0,7,0,1,,,,,,,,,,,,,,,,,,,,,,,,,,,,,,,,,,,,,,,
,,,,,,,,2023-08-16_08h48.07.188,HF_wild_card,2022.2.4,MacIntel,59.97361161,5efcd984f7176d0e6a59dd17,64d2fd46c836a06233681665,64dc7f270f8c32a0027f3743,,,,,,,sngl,resources/Empty.png,resources/DR.BMP,WildCard_Ex,0.362930366,-0.003433634,1,0,0,0.7628,optionRight,55,12480,6,8,0,8,0,1,,,,,,,,,,,,,,,,,,,,,,,,,,,,,,,,,,,,,,,
,,,,,,,,2023-08-16_08h48.07.188,HF_wild_card,2022.2.4,MacIntel,59.97361161,5efcd984f7176d0e6a59dd17,64d2fd46c836a06233681665,64dc7f270f8c32a0027f3743,,,,,,,ctch,resources/DP.BMP,resources/DBN.BMP,Door4,0.318862101,0.001032613,1,0,0,0.8317,optionRight,60,12540,6,9,0,9,0,1,,,,,,,,,,,,,,,,,,,,,,,,,,,,,,,,,,,,,,,
,,,,,,,,2023-08-16_08h48.07.188,HF_wild_card,2022.2.4,MacIntel,59.97361161,5efcd984f7176d0e6a59dd17,64d2fd46c836a06233681665,64dc7f270f8c32a0027f3743,,,,,,,decisionTrl,resources/DBN.BMP,resources/DY.BMP,Door4,-0.278003676,0.004276259,1,0,0,1.9823,optionLeft,60,12600,6,10,0,10,0,1,,,,,,,,,,,,,,,,,,,,,,,,,,,,,,,,,,,,,,,
,,,,,,,,2023-08-16_08h48.07.188,HF_wild_card,2022.2.4,MacIntel,59.97361161,5efcd984f7176d0e6a59dd17,64d2fd46c836a06233681665,64dc7f270f8c32a0027f3743,,,,,,,decisionTrl,resources/DY.BMP,resources/DBN.BMP,Door3,-0.274277886,0.014912177,1,0,0,2.483,optionLeft,70,12670,6,11,0,11,0,1,,,,,,,,,,,,,,,,,,,,,,,,,,,,,,,,,,,,,,,
,,,,,,,,2023-08-16_08h48.07.188,HF_wild_card,2022.2.4,MacIntel,59.97361161,5efcd984f7176d0e6a59dd17,64d2fd46c836a06233681665,64dc7f270f8c32a0027f3743,,,,,,,sngl,resources/Empty.png,resources/DBN.BMP,Door4,0.274436035,0.00402086,1,0,0,0.6985,optionRight,80,12750,6,12,0,12,0,1,,,,,,,,,,,,,,,,,,,,,,,,,,,,,,,,,,,,,,,
,,,,,,,,2023-08-16_08h48.07.188,HF_wild_card,2022.2.4,MacIntel,59.97361161,5efcd984f7176d0e6a59dd17,64d2fd46c836a06233681665,64dc7f270f8c32a0027f3743,,,,,,,sngl,resources/Empty.png,resources/DR.BMP,WildCard_Ex,0.315168457,-0.007038371,1,0,0,0.6802,optionRight,45,12795,6,13,0,13,0,1,,,,,,,,,,,,,,,,,,,,,,,,,,,,,,,,,,,,,,,
,,,,,,,,2023-08-16_08h48.07.188,HF_wild_card,2022.2.4,MacIntel,59.97361161,5efcd984f7176d0e6a59dd17,64d2fd46c836a06233681665,64dc7f270f8c32a0027f3743,,,,,,,ctch,resources/DY.BMP,resources/DG.BMP,Door3,-0.265013224,0.01564738,1,0,0,0.9796,optionLeft,70,12865,6,14,0,14,0,1,,,,,,,,,,,,,,,,,,,,,,,,,,,,,,,,,,,,,,,
,,,,,,,,2023-08-16_08h48.07.188,HF_wild_card,2022.2.4,MacIntel,59.97361161,5efcd984f7176d0e6a59dd17,64d2fd46c836a06233681665,64dc7f270f8c32a0027f3743,,,,,,,decisionTrl,resources/DP.BMP,resources/DG.BMP,Door1,-0.332218153,-0.019349399,1,0,0,1.277,optionLeft,30,12895,6,15,0,15,0,1,,,,,,,,,,,,,,,,,,,,,,,,,,,,,,,,,,,,,,,
,,,,,,,,2023-08-16_08h48.07.188,HF_wild_card,2022.2.4,MacIntel,59.97361161,5efcd984f7176d0e6a59dd17,64d2fd46c836a06233681665,64dc7f270f8c32a0027f3743,,,,,,,decisionTrl,resources/DR.BMP,resources/DY.BMP,Door3,0.252995402,-0.006540256,1,0,0,1.0341,optionRight,70,12965,6,16,0,16,0,1,,,,,,,,,,,,,,,,,,,,,,,,,,,,,,,,,,,,,,,
,,,,,,,,2023-08-16_08h48.07.188,HF_wild_card,2022.2.4,MacIntel,59.97361161,5efcd984f7176d0e6a59dd17,64d2fd46c836a06233681665,64dc7f270f8c32a0027f3743,,,,,,,decisionTrl,resources/DG.BMP,resources/DP.BMP,Door1,0.222810601,-0.001308458,1,0,0,0.9115,optionRight,30,12995,6,17,0,17,0,1,,,,,,,,,,,,,,,,,,,,,,,,,,,,,,,,,,,,,,,
,,,,,,,,2023-08-16_08h48.07.188,HF_wild_card,2022.2.4,MacIntel,59.97361161,5efcd984f7176d0e6a59dd17,64d2fd46c836a06233681665,64dc7f270f8c32a0027f3743,,,,,,,decisionTrl,resources/DR.BMP,resources/DG.BMP,WildCard_Ex,-0.342542725,-0.018793335,1,0,0,1.0415,optionLeft,55,13050,6,18,0,18,0,1,,,,,,,,,,,,,,,,,,,,,,,,,,,,,,,,,,,,,,,
,,,,,,,,2023-08-16_08h48.07.188,HF_wild_card,2022.2.4,MacIntel,59.97361161,5efcd984f7176d0e6a59dd17,64d2fd46c836a06233681665,64dc7f270f8c32a0027f3743,,,,,,,decisionTrl,resources/DBN.BMP,resources/DR.BMP,Door4,-0.291607632,-0.008612196,1,0,0,1.2473,optionLeft,80,13130,6,19,0,19,0,1,,,,,,,,,,,,,,,,,,,,,,,,,,,,,,,,,,,,,,,
,,,,,,,,2023-08-16_08h48.07.188,HF_wild_card,2022.2.4,MacIntel,59.97361161,5efcd984f7176d0e6a59dd17,64d2fd46c836a06233681665,64dc7f270f8c32a0027f3743,,,,,,,sngl,resources/Empty.png,resources/DY.BMP,Door3,0.256266819,-0.016257087,1,0,0,0.9819,optionRight,70,13200,6,20,0,20,0,1,,,,,,,,,,,,,,,,,,,,,,,,,,,,,,,,,,,,,,,
,,,,,,,,2023-08-16_08h48.07.188,HF_wild_card,2022.2.4,MacIntel,59.97361161,5efcd984f7176d0e6a59dd17,64d2fd46c836a06233681665,64dc7f270f8c32a0027f3743,,,,,,,ctch,resources/DY.BMP,resources/DG.BMP,Door3,-0.228607856,0.011919149,1,0,0,0.7116,optionLeft,70,13270,6,21,0,21,0,1,,,,,,,,,,,,,,,,,,,,,,,,,,,,,,,,,,,,,,,
,,,,,,,,2023-08-16_08h48.07.188,HF_wild_card,2022.2.4,MacIntel,59.97361161,5efcd984f7176d0e6a59dd17,64d2fd46c836a06233681665,64dc7f270f8c32a0027f3743,,,,,,,decisionTrl,resources/DG.BMP,resources/DR.BMP,WildCard_Ex,0.245520901,-0.01614407,1,0,0,0.9815,optionRight,55,13325,6,22,0,22,0,1,,,,,,,,,,,,,,,,,,,,,,,,,,,,,,,,,,,,,,,
,,,,,,,,2023-08-16_08h48.07.188,HF_wild_card,2022.2.4,MacIntel,59.97361161,5efcd984f7176d0e6a59dd17,64d2fd46c836a06233681665,64dc7f270f8c32a0027f3743,,,,,,,decisionTrl,resources/DBN.BMP,resources/DY.BMP,Door4,-0.226442668,0.027461683,1,0,0,0.8769,optionLeft,80,13405,6,23,0,23,0,1,,,,,,,,,,,,,,,,,,,,,,,,,,,,,,,,,,,,,,,
,,,,,,,,2023-08-16_08h48.07.188,HF_wild_card,2022.2.4,MacIntel,59.97361161,5efcd984f7176d0e6a59dd17,64d2fd46c836a06233681665,64dc7f270f8c32a0027f3743,,,,,,,sngl,resources/Empty.png,resources/DG.BMP,Door2,0.329897257,-0.009892917,1,0,0,0.6802,optionRight,40,13445,6,24,0,24,0,1,,,,,,,,,,,,,,,,,,,,,,,,,,,,,,,,,,,,,,,
,,,,,,,,2023-08-16_08h48.07.188,HF_wild_card,2022.2.4,MacIntel,59.97361161,5efcd984f7176d0e6a59dd17,64d2fd46c836a06233681665,64dc7f270f8c32a0027f3743,,,,,,,decisionTrl,resources/DR.BMP,resources/DP.BMP,WildCard_Ex,-0.262275662,0.013639391,1,0,0,0.6955,optionLeft,55,13500,6,25,0,25,0,1,,,,,,,,,,,,,,,,,,,,,,,,,,,,,,,,,,,,,,,
,,,,,,,,2023-08-16_08h48.07.188,HF_wild_card,2022.2.4,MacIntel,59.97361161,5efcd984f7176d0e6a59dd17,64d2fd46c836a06233681665,64dc7f270f8c32a0027f3743,,,,,,,sngl,resources/DG.BMP,resources/Empty.png,Door2,-0.287432794,0.016805623,1,0,0,0.6651,optionLeft,20,13520,6,26,0,26,0,1,,,,,,,,,,,,,,,,,,,,,,,,,,,,,,,,,,,,,,,
,,,,,,,,2023-08-16_08h48.07.188,HF_wild_card,2022.2.4,MacIntel,59.97361161,5efcd984f7176d0e6a59dd17,64d2fd46c836a06233681665,64dc7f270f8c32a0027f3743,,,,,,,decisionTrl,resources/DG.BMP,resources/DP.BMP,Door1,0.366659342,0.043257175,1,0,0,0.7302,optionRight,30,13550,6,27,0,27,0,1,,,,,,,,,,,,,,,,,,,,,,,,,,,,,,,,,,,,,,,
,,,,,,,,2023-08-16_08h48.07.188,HF_wild_card,2022.2.4,MacIntel,59.97361161,5efcd984f7176d0e6a59dd17,64d2fd46c836a06233681665,64dc7f270f8c32a0027f3743,,,,,,,sngl,resources/DY.BMP,resources/Empty.png,Door3,-0.23962738,0.001887071,1,0,0,0.7142,optionLeft,70,13620,6,28,0,28,0,1,,,,,,,,,,,,,,,,,,,,,,,,,,,,,,,,,,,,,,,
,,,,,,,,2023-08-16_08h48.07.188,HF_wild_card,2022.2.4,MacIntel,59.97361161,5efcd984f7176d0e6a59dd17,64d2fd46c836a06233681665,64dc7f270f8c32a0027f3743,,,,,,,decisionTrl,resources/DP.BMP,resources/DG.BMP,Door1,-0.330245361,-0.01259569,1,0,0,0.9463,optionLeft,30,13650,6,29,0,29,0,1,,,,,,,,,,,,,,,,,,,,,,,,,,,,,,,,,,,,,,,
,,,,,,,,2023-08-16_08h48.07.188,HF_wild_card,2022.2.4,MacIntel,59.97361161,5efcd984f7176d0e6a59dd17,64d2fd46c836a06233681665,64dc7f270f8c32a0027f3743,,,,,,,decisionTrl,resources/DY.BMP,resources/DBN.BMP,Door3,-0.165261434,-0.004876641,1,0,0,1.3824,optionLeft,70,13720,6,30,0,30,0,1,,,,,,,,,,,,,,,,,,,,,,,,,,,,,,,,,,,,,,,
,,,,,,,,2023-08-16_08h48.07.188,HF_wild_card,2022.2.4,MacIntel,59.97361161,5efcd984f7176d0e6a59dd17,64d2fd46c836a06233681665,64dc7f270f8c32a0027f3743,,,,,,,sngl,resources/DR.BMP,resources/Empty.png,WildCard_Ex,-0.260296733,-0.004172092,1,0,0,0.7516,optionLeft,45,13765,6,31,0,31,0,1,,,,,,,,,,,,,,,,,,,,,,,,,,,,,,,,,,,,,,,
,,,,,,,,2023-08-16_08h48.07.188,HF_wild_card,2022.2.4,MacIntel,59.97361161,5efcd984f7176d0e6a59dd17,64d2fd46c836a06233681665,64dc7f270f8c32a0027f3743,,,,,,,decisionTrl,resources/DY.BMP,resources/DR.BMP,Door3,-0.284289483,0.005354682,1,0,0,0.8786,optionLeft,70,13835,6,32,0,32,0,1,,,,,,,,,,,,,,,,,,,,,,,,,,,,,,,,,,,,,,,
,,,,,,,,2023-08-16_08h48.07.188,HF_wild_card,2022.2.4,MacIntel,59.97361161,5efcd984f7176d0e6a59dd17,64d2fd46c836a06233681665,64dc7f270f8c32a0027f3743,,,,,,,decisionTrl,resources/DY.BMP,resources/DBN.BMP,Door3,-0.262967834,0.040829197,1,0,0,1.0813,optionLeft,70,13905,6,33,0,33,0,1,,,,,,,,,,,,,,,,,,,,,,,,,,,,,,,,,,,,,,,
,,,,,,,,2023-08-16_08h48.07.188,HF_wild_card,2022.2.4,MacIntel,59.97361161,5efcd984f7176d0e6a59dd17,64d2fd46c836a06233681665,64dc7f270f8c32a0027f3743,,,,,,,decisionTrl,resources/DP.BMP,resources/DG.BMP,Door1,-0.221000705,-0.015234036,1,0,0,1.1808,optionLeft,30,13935,6,34,0,34,0,1,,,,,,,,,,,,,,,,,,,,,,,,,,,,,,,,,,,,,,,
,,,,,,,,2023-08-16_08h48.07.188,HF_wild_card,2022.2.4,MacIntel,59.97361161,5efcd984f7176d0e6a59dd17,64d2fd46c836a06233681665,64dc7f270f8c32a0027f3743,,,,,,,sngl,resources/DR.BMP,resources/Empty.png,WildCard_Ex,-0.306837802,0.004115702,1,0,0,0.7485,optionLeft,55,13990,6,35,0,35,0,1,,,,,,,,,,,,,,,,,,,,,,,,,,,,,,,,,,,,,,,
,,,,,,,,2023-08-16_08h48.07.188,HF_wild_card,2022.2.4,MacIntel,59.97361161,5efcd984f7176d0e6a59dd17,64d2fd46c836a06233681665,64dc7f270f8c32a0027f3743,,,,,,,decisionTrl,resources/DP.BMP,resources/DR.BMP,WildCard_Ex,0.357829454,-0.027836812,1,0,0,0.9965,optionRight,45,14035,6,36,0,36,0,1,,,,,,,,,,,,,,,,,,,,,,,,,,,,,,,,,,,,,,,
,,,,,,,,2023-08-16_08h48.07.188,HF_wild_card,2022.2.4,MacIntel,59.97361161,5efcd984f7176d0e6a59dd17,64d2fd46c836a06233681665,64dc7f270f8c32a0027f3743,,,,,,,ctch,resources/DP.BMP,resources/DBN.BMP,Door4,0.246484714,0.015143975,1,0,0,1.1812,optionRight,60,14095,6,37,0,37,0,1,,,,,,,,,,,,,,,,,,,,,,,,,,,,,,,,,,,,,,,
,,,,,,,,2023-08-16_08h48.07.188,HF_wild_card,2022.2.4,MacIntel,59.97361161,5efcd984f7176d0e6a59dd17,64d2fd46c836a06233681665,64dc7f270f8c32a0027f3743,,,,,,,decisionTrl,resources/DY.BMP,resources/DBN.BMP,Door3,-0.249117974,-0.004026184,1,0,0,1.1135,optionLeft,70,14165,6,38,0,38,0,1,,,,,,,,,,,,,,,,,,,,,,,,,,,,,,,,,,,,,,,
,,,,,,,,2023-08-16_08h48.07.188,HF_wild_card,2022.2.4,MacIntel,59.97361161,5efcd984f7176d0e6a59dd17,64d2fd46c836a06233681665,64dc7f270f8c32a0027f3743,,,,,,,ctch,resources/DBN.BMP,resources/DP.BMP,Door4,-0.304098545,0.06343238,1,0,0,0.8815,optionLeft,80,14245,6,39,0,39,0,1,,,,,,,,,,,,,,,,,,,,,,,,,,,,,,,,,,,,,,,
,,,,,,,,2023-08-16_08h48.07.188,HF_wild_card,2022.2.4,MacIntel,59.97361161,5efcd984f7176d0e6a59dd17,64d2fd46c836a06233681665,64dc7f270f8c32a0027f3743,,,,,,,sngl,resources/Empty.png,resources/DP.BMP,Door1,0.275747138,-0.03680108,1,0,0,0.879,optionRight,30,14275,6,40,0,40,0,1,,,,,,,,,,,,,,,,,,,,,,,,,,,,,,,,,,,,,,,
,,,,,,,,2023-08-16_08h48.07.188,HF_wild_card,2022.2.4,MacIntel,59.97361161,5efcd984f7176d0e6a59dd17,64d2fd46c836a06233681665,64dc7f270f8c32a0027f3743,,,,,,,decisionTrl,resources/DBN.BMP,resources/DY.BMP,Door4,-0.289124552,-0.0188247,1,0,0,1.0307,optionLeft,80,14355,6,41,0,41,0,1,,,,,,,,,,,,,,,,,,,,,,,,,,,,,,,,,,,,,,,
,,,,,,,,2023-08-16_08h48.07.188,HF_wild_card,2022.2.4,MacIntel,59.97361161,5efcd984f7176d0e6a59dd17,64d2fd46c836a06233681665,64dc7f270f8c32a0027f3743,,,,,,,sngl,resources/DBN.BMP,resources/Empty.png,Door4,-0.273089227,0.013409559,1,0,0,0.7298,optionLeft,60,14415,6,42,0,42,0,1,,,,,,,,,,,,,,,,,,,,,,,,,,,,,,,,,,,,,,,
,,,,,,,,2023-08-16_08h48.07.188,HF_wild_card,2022.2.4,MacIntel,59.97361161,5efcd984f7176d0e6a59dd17,64d2fd46c836a06233681665,64dc7f270f8c32a0027f3743,,,,,,,ctch,resources/DG.BMP,resources/DY.BMP,Door3,0.281002265,0.011923218,1,0,0,0.8432,optionRight,70,14485,6,43,0,43,0,1,,,,,,,,,,,,,,,,,,,,,,,,,,,,,,,,,,,,,,,
,,,,,,,,2023-08-16_08h48.07.188,HF_wild_card,2022.2.4,MacIntel,59.97361161,5efcd984f7176d0e6a59dd17,64d2fd46c836a06233681665,64dc7f270f8c32a0027f3743,,,,,,,,,,,,,,,,,,,,,,,,,,5,0,5,0,1,,,,,,,,,,,,,,,,,,,,,,,,,,,,,,,,,,
,,,,,,,,2023-08-16_08h48.07.188,HF_wild_card,2022.2.4,MacIntel,59.97361161,5efcd984f7176d0e6a59dd17,64d2fd46c836a06233681665,64dc7f270f8c32a0027f3743,,,,,,,decisionTrl,resources/DP.BMP,resources/DG.BMP,Door1,-0.270463325,-0.055791355,1,0,0,1.3203,optionLeft,30,14515,7,0,0,0,0,1,,,,,,,,,,,,,,,,,,,,,,,,,,,,,,,,,,,,,,,
,,,,,,,,2023-08-16_08h48.07.188,HF_wild_card,2022.2.4,MacIntel,59.97361161,5efcd984f7176d0e6a59dd17,64d2fd46c836a06233681665,64dc7f270f8c32a0027f3743,,,,,,,decisionTrl,resources/DG.BMP,resources/DP.BMP,Door1,0.257110664,-0.002079061,1,0,0,0.9522,optionRight,30,14545,7,1,0,1,0,1,,,,,,,,,,,,,,,,,,,,,,,,,,,,,,,,,,,,,,,
,,,,,,,,2023-08-16_08h48.07.188,HF_wild_card,2022.2.4,MacIntel,59.97361161,5efcd984f7176d0e6a59dd17,64d2fd46c836a06233681665,64dc7f270f8c32a0027f3743,,,,,,,decisionTrl,resources/DP.BMP,resources/DG.BMP,Door1,-0.21510064,0.041096361,1,0,0,0.8287,optionLeft,30,14575,7,2,0,2,0,1,,,,,,,,,,,,,,,,,,,,,,,,,,,,,,,,,,,,,,,
,,,,,,,,2023-08-16_08h48.07.188,HF_wild_card,2022.2.4,MacIntel,59.97361161,5efcd984f7176d0e6a59dd17,64d2fd46c836a06233681665,64dc7f270f8c32a0027f3743,,,,,,,ctch,resources/DG.BMP,resources/DY.BMP,Door3,0.265595432,0.018538038,1,0,0,1.0474,optionRight,70,14645,7,3,0,3,0,1,,,,,,,,,,,,,,,,,,,,,,,,,,,,,,,,,,,,,,,
,,,,,,,,2023-08-16_08h48.07.188,HF_wild_card,2022.2.4,MacIntel,59.97361161,5efcd984f7176d0e6a59dd17,64d2fd46c836a06233681665,64dc7f270f8c32a0027f3743,,,,,,,decisionTrl,resources/DG.BMP,resources/DP.BMP,Door1,0.228858778,0.036037903,1,0,0,0.9963,optionRight,30,14675,7,4,0,4,0,1,,,,,,,,,,,,,,,,,,,,,,,,,,,,,,,,,,,,,,,
,,,,,,,,2023-08-16_08h48.07.188,HF_wild_card,2022.2.4,MacIntel,59.97361161,5efcd984f7176d0e6a59dd17,64d2fd46c836a06233681665,64dc7f270f8c32a0027f3743,,,,,,,decisionTrl,resources/DG.BMP,resources/DP.BMP,Door1,0.272107069,0.01859514,1,0,0,0.8154,optionRight,30,14705,7,5,0,5,0,1,,,,,,,,,,,,,,,,,,,,,,,,,,,,,,,,,,,,,,,
,,,,,,,,2023-08-16_08h48.07.188,HF_wild_card,2022.2.4,MacIntel,59.97361161,5efcd984f7176d0e6a59dd17,64d2fd46c836a06233681665,64dc7f270f8c32a0027f3743,,,,,,,decisionTrl,resources/DY.BMP,resources/DBN.BMP,Door3,-0.208831855,0.01344062,1,0,0,1.3489,optionLeft,70,14775,7,6,0,6,0,1,,,,,,,,,,,,,,,,,,,,,,,,,,,,,,,,,,,,,,,
,,,,,,,,2023-08-16_08h48.07.188,HF_wild_card,2022.2.4,MacIntel,59.97361161,5efcd984f7176d0e6a59dd17,64d2fd46c836a06233681665,64dc7f270f8c32a0027f3743,,,,,,,ctch,resources/DG.BMP,resources/DY.BMP,Door3,0.21882114,0.004292094,1,0,0,0.7496,optionRight,70,14845,7,7,0,7,0,1,,,,,,,,,,,,,,,,,,,,,,,,,,,,,,,,,,,,,,,
,,,,,,,,2023-08-16_08h48.07.188,HF_wild_card,2022.2.4,MacIntel,59.97361161,5efcd984f7176d0e6a59dd17,64d2fd46c836a06233681665,64dc7f270f8c32a0027f3743,,,,,,,decisionTrl,resources/DBN.BMP,resources/DY.BMP,Door4,-0.222749905,0.033382094,1,0,0,1.4005,optionLeft,80,14925,7,8,0,8,0,1,,,,,,,,,,,,,,,,,,,,,,,,,,,,,,,,,,,,,,,
,,,,,,,,2023-08-16_08h48.07.188,HF_wild_card,2022.2.4,MacIntel,59.97361161,5efcd984f7176d0e6a59dd17,64d2fd46c836a06233681665,64dc7f270f8c32a0027f3743,,,,,,,decisionTrl,resources/DBN.BMP,resources/DY.BMP,Door3,0.193625827,0.021341824,1,0,0,1.9501,optionRight,70,14995,7,9,0,9,0,1,,,,,,,,,,,,,,,,,,,,,,,,,,,,,,,,,,,,,,,
,,,,,,,,2023-08-16_08h48.07.188,HF_wild_card,2022.2.4,MacIntel,59.97361161,5efcd984f7176d0e6a59dd17,64d2fd46c836a06233681665,64dc7f270f8c32a0027f3743,,,,,,,ctch,resources/DY.BMP,resources/DG.BMP,Door3,-0.256031698,0.026178792,1,0,0,0.7325,optionLeft,70,15065,7,10,0,10,0,1,,,,,,,,,,,,,,,,,,,,,,,,,,,,,,,,,,,,,,,
,,,,,,,,2023-08-16_08h48.07.188,HF_wild_card,2022.2.4,MacIntel,59.97361161,5efcd984f7176d0e6a59dd17,64d2fd46c836a06233681665,64dc7f270f8c32a0027f3743,,,,,,,decisionTrl,resources/DBN.BMP,resources/DY.BMP,Door4,-0.153932902,0.026431003,1,0,0,1.2471,optionLeft,60,15125,7,11,0,11,0,1,,,,,,,,,,,,,,,,,,,,,,,,,,,,,,,,,,,,,,,
,,,,,,,,2023-08-16_08h48.07.188,HF_wild_card,2022.2.4,MacIntel,59.97361161,5efcd984f7176d0e6a59dd17,64d2fd46c836a06233681665,64dc7f270f8c32a0027f3743,,,,,,,decisionTrl,resources/DY.BMP,resources/DBN.BMP,Door3,-0.234590929,0.041856961,1,0,0,1.0133,optionLeft,70,15195,7,12,0,12,0,1,,,,,,,,,,,,,,,,,,,,,,,,,,,,,,,,,,,,,,,
,,,,,,,,2023-08-16_08h48.07.188,HF_wild_card,2022.2.4,MacIntel,59.97361161,5efcd984f7176d0e6a59dd17,64d2fd46c836a06233681665,64dc7f270f8c32a0027f3743,,,,,,,ctch,resources/DP.BMP,resources/DBN.BMP,Door4,0.219207492,0.038012187,1,0,0,0.9341,optionRight,80,15275,7,13,0,13,0,1,,,,,,,,,,,,,,,,,,,,,,,,,,,,,,,,,,,,,,,
,,,,,,,,2023-08-16_08h48.07.188,HF_wild_card,2022.2.4,MacIntel,59.97361161,5efcd984f7176d0e6a59dd17,64d2fd46c836a06233681665,64dc7f270f8c32a0027f3743,,,,,,,decisionTrl,resources/DBN.BMP,resources/DY.BMP,Door4,-0.234195319,0.051902669,1,0,0,0.7831,optionLeft,60,15335,7,14,0,14,0,1,,,,,,,,,,,,,,,,,,,,,,,,,,,,,,,,,,,,,,,
,,,,,,,,2023-08-16_08h48.07.188,HF_wild_card,2022.2.4,MacIntel,59.97361161,5efcd984f7176d0e6a59dd17,64d2fd46c836a06233681665,64dc7f270f8c32a0027f3743,,,,,,,decisionTrl,resources/DG.BMP,resources/DP.BMP,Door1,0.318399726,-0.026520148,1,0,0,2.3835,optionRight,30,15365,7,15,0,15,0,1,,,,,,,,,,,,,,,,,,,,,,,,,,,,,,,,,,,,,,,
,,,,,,,,2023-08-16_08h48.07.188,HF_wild_card,2022.2.4,MacIntel,59.97361161,5efcd984f7176d0e6a59dd17,64d2fd46c836a06233681665,64dc7f270f8c32a0027f3743,,,,,,,decisionTrl,resources/DBN.BMP,resources/DY.BMP,Door4,-0.138807983,0.017427673,1,0,0,1.8345,optionLeft,60,15425,7,16,0,16,0,1,,,,,,,,,,,,,,,,,,,,,,,,,,,,,,,,,,,,,,,
,,,,,,,,2023-08-16_08h48.07.188,HF_wild_card,2022.2.4,MacIntel,59.97361161,5efcd984f7176d0e6a59dd17,64d2fd46c836a06233681665,64dc7f270f8c32a0027f3743,,,,,,,decisionTrl,resources/DP.BMP,resources/DG.BMP,Door1,-0.248144803,0.022975023,1,0,0,0.853,optionLeft,30,15455,7,17,0,17,0,1,,,,,,,,,,,,,,,,,,,,,,,,,,,,,,,,,,,,,,,
,,,,,,,,2023-08-16_08h48.07.188,HF_wild_card,2022.2.4,MacIntel,59.97361161,5efcd984f7176d0e6a59dd17,64d2fd46c836a06233681665,64dc7f270f8c32a0027f3743,,,,,,,decisionTrl,resources/DY.BMP,resources/DBN.BMP,Door3,-0.183658515,0.043516574,1,0,0,1.6018,optionLeft,70,15525,7,18,0,18,0,1,,,,,,,,,,,,,,,,,,,,,,,,,,,,,,,,,,,,,,,
,,,,,,,,2023-08-16_08h48.07.188,HF_wild_card,2022.2.4,MacIntel,59.97361161,5efcd984f7176d0e6a59dd17,64d2fd46c836a06233681665,64dc7f270f8c32a0027f3743,,,,,,,ctch,resources/DP.BMP,resources/DBN.BMP,Door4,0.226478746,0.038027581,1,0,0,0.7373,optionRight,80,15605,7,19,0,19,0,1,,,,,,,,,,,,,,,,,,,,,,,,,,,,,,,,,,,,,,,
,,,,,,,,2023-08-16_08h48.07.188,HF_wild_card,2022.2.4,MacIntel,59.97361161,5efcd984f7176d0e6a59dd17,64d2fd46c836a06233681665,64dc7f270f8c32a0027f3743,,,,,,,decisionTrl,resources/DY.BMP,resources/DBN.BMP,Door3,-0.181762221,-0.01078932,1,0,0,1.8487,optionLeft,70,15675,7,20,0,20,0,1,,,,,,,,,,,,,,,,,,,,,,,,,,,,,,,,,,,,,,,
,,,,,,,,2023-08-16_08h48.07.188,HF_wild_card,2022.2.4,MacIntel,59.97361161,5efcd984f7176d0e6a59dd17,64d2fd46c836a06233681665,64dc7f270f8c32a0027f3743,,,,,,,decisionTrl,resources/DP.BMP,resources/DG.BMP,Door1,-0.207964749,0.015090739,1,0,0,0.8663,optionLeft,30,15705,7,21,0,21,0,1,,,,,,,,,,,,,,,,,,,,,,,,,,,,,,,,,,,,,,,
,,,,,,,,2023-08-16_08h48.07.188,HF_wild_card,2022.2.4,MacIntel,59.97361161,5efcd984f7176d0e6a59dd17,64d2fd46c836a06233681665,64dc7f270f8c32a0027f3743,,,,,,,ctch,resources/DBN.BMP,resources/DP.BMP,Door4,-0.155505168,-0.015240682,1,0,0,1.1869,optionLeft,80,15785,7,22,0,22,0,1,,,,,,,,,,,,,,,,,,,,,,,,,,,,,,,,,,,,,,,
,,,,,,,,2023-08-16_08h48.07.188,HF_wild_card,2022.2.4,MacIntel,59.97361161,5efcd984f7176d0e6a59dd17,64d2fd46c836a06233681665,64dc7f270f8c32a0027f3743,,,,,,,decisionTrl,resources/DY.BMP,resources/DBN.BMP,Door3,-0.158646647,-0.020467428,1,0,0,1.7648,optionLeft,70,15855,7,23,0,23,0,1,,,,,,,,,,,,,,,,,,,,,,,,,,,,,,,,,,,,,,,
,,,,,,,,2023-08-16_08h48.07.188,HF_wild_card,2022.2.4,MacIntel,59.97361161,5efcd984f7176d0e6a59dd17,64d2fd46c836a06233681665,64dc7f270f8c32a0027f3743,,,,,,,ctch,resources/DG.BMP,resources/DY.BMP,Door3,0.239874946,-0.002538452,1,0,0,0.8992,optionRight,70,15925,7,24,0,24,0,1,,,,,,,,,,,,,,,,,,,,,,,,,,,,,,,,,,,,,,,
,,,,,,,,2023-08-16_08h48.07.188,HF_wild_card,2022.2.4,MacIntel,59.97361161,5efcd984f7176d0e6a59dd17,64d2fd46c836a06233681665,64dc7f270f8c32a0027f3743,,,,,,,decisionTrl,resources/DP.BMP,resources/DG.BMP,Door1,-0.211116333,0.013755764,1,0,0,0.9144,optionLeft,30,15955,7,25,0,25,0,1,,,,,,,,,,,,,,,,,,,,,,,,,,,,,,,,,,,,,,,
,,,,,,,,2023-08-16_08h48.07.188,HF_wild_card,2022.2.4,MacIntel,59.97361161,5efcd984f7176d0e6a59dd17,64d2fd46c836a06233681665,64dc7f270f8c32a0027f3743,,,,,,,decisionTrl,resources/DP.BMP,resources/DG.BMP,Door1,-0.239381985,0.035389303,1,0,0,0.6794,optionLeft,30,15985,7,26,0,26,0,1,,,,,,,,,,,,,,,,,,,,,,,,,,,,,,,,,,,,,,,
,,,,,,,,2023-08-16_08h48.07.188,HF_wild_card,2022.2.4,MacIntel,59.97361161,5efcd984f7176d0e6a59dd17,64d2fd46c836a06233681665,64dc7f270f8c32a0027f3743,,,,,,,decisionTrl,resources/DG.BMP,resources/DP.BMP,Door1,0.245555623,0.016996121,1,0,0,0.883,optionRight,30,16015,7,27,0,27,0,1,,,,,,,,,,,,,,,,,,,,,,,,,,,,,,,,,,,,,,,
,,,,,,,,2023-08-16_08h48.07.188,HF_wild_card,2022.2.4,MacIntel,59.97361161,5efcd984f7176d0e6a59dd17,64d2fd46c836a06233681665,64dc7f270f8c32a0027f3743,,,,,,,decisionTrl,resources/DY.BMP,resources/DBN.BMP,Door3,-0.220096978,0.024237535,1,0,0,1.8999,optionLeft,70,16085,7,28,0,28,0,1,,,,,,,,,,,,,,,,,,,,,,,,,,,,,,,,,,,,,,,
,,,,,,,,2023-08-16_08h48.07.188,HF_wild_card,2022.2.4,MacIntel,59.97361161,5efcd984f7176d0e6a59dd17,64d2fd46c836a06233681665,64dc7f270f8c32a0027f3743,,,,,,,decisionTrl,resources/DG.BMP,resources/DP.BMP,Door1,0.23307529,0.002166951,1,0,0,1.065,optionRight,30,16115,7,29,0,29,0,1,,,,,,,,,,,,,,,,,,,,,,,,,,,,,,,,,,,,,,,
,,,,,,,,2023-08-16_08h48.07.188,HF_wild_card,2022.2.4,MacIntel,59.97361161,5efcd984f7176d0e6a59dd17,64d2fd46c836a06233681665,64dc7f270f8c32a0027f3743,,,,,,,ctch,resources/DP.BMP,resources/DBN.BMP,Door4,0.205247125,-0.026842855,1,0,0,1.1348,optionRight,60,16175,7,30,0,30,0,1,,,,,,,,,,,,,,,,,,,,,,,,,,,,,,,,,,,,,,,
,,,,,,,,2023-08-16_08h48.07.188,HF_wild_card,2022.2.4,MacIntel,59.97361161,5efcd984f7176d0e6a59dd17,64d2fd46c836a06233681665,64dc7f270f8c32a0027f3743,,,,,,,ctch,resources/DY.BMP,resources/DG.BMP,Door3,-0.186382514,0.034131538,1,0,0,0.7987,optionLeft,70,16245,7,31,0,31,0,1,,,,,,,,,,,,,,,,,,,,,,,,,,,,,,,,,,,,,,,
,,,,,,,,2023-08-16_08h48.07.188,HF_wild_card,2022.2.4,MacIntel,59.97361161,5efcd984f7176d0e6a59dd17,64d2fd46c836a06233681665,64dc7f270f8c32a0027f3743,,,,,,,ctch,resources/DBN.BMP,resources/DP.BMP,Door4,-0.220512627,0.044299588,1,0,0,0.8812,optionLeft,60,16305,7,32,0,32,0,1,,,,,,,,,,,,,,,,,,,,,,,,,,,,,,,,,,,,,,,
,,,,,,,,2023-08-16_08h48.07.188,HF_wild_card,2022.2.4,MacIntel,59.97361161,5efcd984f7176d0e6a59dd17,64d2fd46c836a06233681665,64dc7f270f8c32a0027f3743,,,,,,,ctch,resources/DY.BMP,resources/DG.BMP,Door3,-0.260499098,0.015293274,1,0,0,1.0844,optionLeft,70,16375,7,33,0,33,0,1,,,,,,,,,,,,,,,,,,,,,,,,,,,,,,,,,,,,,,,
,,,,,,,,2023-08-16_08h48.07.188,HF_wild_card,2022.2.4,MacIntel,59.97361161,5efcd984f7176d0e6a59dd17,64d2fd46c836a06233681665,64dc7f270f8c32a0027f3743,,,,,,,ctch,resources/DBN.BMP,resources/DP.BMP,Door4,-0.257236091,0.029567735,1,0,0,0.8975,optionLeft,80,16455,7,34,0,34,0,1,,,,,,,,,,,,,,,,,,,,,,,,,,,,,,,,,,,,,,,
,,,,,,,,2023-08-16_08h48.07.188,HF_wild_card,2022.2.4,MacIntel,59.97361161,5efcd984f7176d0e6a59dd17,64d2fd46c836a06233681665,64dc7f270f8c32a0027f3743,,,,,,,decisionTrl,resources/DBN.BMP,resources/DY.BMP,Door4,-0.213665771,0.014894477,1,0,0,1.7985,optionLeft,80,16535,7,35,0,35,0,1,,,,,,,,,,,,,,,,,,,,,,,,,,,,,,,,,,,,,,,
,,,,,,,,2023-08-16_08h48.07.188,HF_wild_card,2022.2.4,MacIntel,59.97361161,5efcd984f7176d0e6a59dd17,64d2fd46c836a06233681665,64dc7f270f8c32a0027f3743,,,,,,,,,,,,,,,,,,,,,,,,,,6,0,6,0,1,,,,,,,,,,,,,,,,,,,,,,,,,,,,,,,,,,
,,,,,,,,2023-08-16_08h48.07.188,HF_wild_card,2022.2.4,MacIntel,59.97361161,5efcd984f7176d0e6a59dd17,64d2fd46c836a06233681665,64dc7f270f8c32a0027f3743,,,,,,,,,,,,,,,,,,,,,,,,,,,,,,,4,,,,,,,,,,,,,,,,,,,,,,,,,,,,,,,,,
,,,,,,,,2023-08-16_08h48.07.188,HF_wild_card,2022.2.4,MacIntel,59.97361161,5efcd984f7176d0e6a59dd17,64d2fd46c836a06233681665,64dc7f270f8c32a0027f3743,,,,,,,,,,,,,,,,,,,,,,,,,,,,,,,,,,,,,,,,,,,,,,,,,,,,,,,,,,,,,,,,
,,,,,,,,2023-08-16_08h48.07.188,HF_wild_card,2022.2.4,MacIntel,59.97361161,5efcd984f7176d0e6a59dd17,64d2fd46c836a06233681665,64dc7f270f8c32a0027f3743,,,,,,,,,,,,,,,,,,,,,,,,,,,,,,,,55,WC_extreme,resources/DR.BMP,0,0,0,0,1,,,,,,,,,,,,,,,,,,,,,,,,,
,,,,,,,,2023-08-16_08h48.07.188,HF_wild_card,2022.2.4,MacIntel,59.97361161,5efcd984f7176d0e6a59dd17,64d2fd46c836a06233681665,64dc7f270f8c32a0027f3743,,,,,,,,,,,,,,,,,,,,,,,,,,,,,,,,30,Door1,resources/DP.BMP,1,0,1,0,1,,,,,,,,,,,,,,,,,,,,,,,,,
,,,,,,,,2023-08-16_08h48.07.188,HF_wild_card,2022.2.4,MacIntel,59.97361161,5efcd984f7176d0e6a59dd17,64d2fd46c836a06233681665,64dc7f270f8c32a0027f3743,,,,,,,,,,,,,,,,,,,,,,,,,,,,,,,,70,Door4,resources/DBN.BMP,2,0,2,0,1,,,,,,,,,,,,,,,,,,,,,,,,,
