Condition,Low fixed image (Door1),Low risky image (Door2),High fixed image (Door3),High risky image (Door4),Extreme Wild Card,NonExtreme Wild Card,,date,expName,psychopyVersion,OS,frameRate,PROLIFIC_PID,STUDY_ID,SESSION_ID,mouse_2.x,mouse_2.y,mouse_2.leftButton,mouse_2.midButton,mouse_2.rightButton,mouse_2.clicked_name,Trial Type,Left Option Image,Right Option Image,Chosen Door,mouse.x,mouse.y,mouse.leftButton,mouse.midButton,mouse.rightButton,mouse.time,mouse.clicked_name,Feedback,Cumulative Reward,Block,trial.thisRepN,trial.thisTrialN,trial.thisN,trial.thisIndex,trial.ran,blocks.thisRepN,blocks.thisTrialN,blocks.thisN,blocks.thisIndex,blocks.ran,Money conversion,First Outcome Reported,Shown Door (First Outcome),Displayed Image (First Outcome),outcomes.thisRepN,outcomes.thisTrialN,outcomes.thisN,outcomes.thisIndex,outcomes.ran,judgments.thisRepN,judgments.thisTrialN,judgments.thisN,judgments.thisIndex,judgments.ran,freqMouse.x,freqMouse.y,freqMouse.leftButton,freqMouse.midButton,freqMouse.rightButton,freqMouse.clicked_name,FQJ for first outcome,FQJ for second outcome,Shown Door,Displayed Image,trials.thisRepN,trials.thisTrialN,trials.thisN,trials.thisIndex,trials.ran,judgBlock.thisRepN,judgBlock.thisTrialN,judgBlock.thisN,judgBlock.thisIndex,judgBlock.ran
0,resources/DR.BMP,resources/DB.BMP,resources/DY.BMP,resources/DG.BMP,resources/DBN.BMP,resources/DP.BMP,,2023-08-16_08h43.48.481,HF_wild_card,2022.2.4,Win32,60.89392279,61688d6c15deec9c3554760e,64d2fd46c836a06233681665,64dc7d10792e1824bf53d2cd,,,,,,,,,,,,,,,,,,,,,,,,,,,,,,,,,,,,,,,,,,,,,,,,,,,,,,,,,,,,,,,,
,,,,,,,,2023-08-16_08h43.48.481,HF_wild_card,2022.2.4,Win32,60.89392279,61688d6c15deec9c3554760e,64d2fd46c836a06233681665,64dc7d10792e1824bf53d2cd,-0.002777778,-0.412037037,1,0,0,agree,,,,,,,,,,,,,,,,,,,,,,,,,,,,,,,,,,,,,,,,,,,,,,,,,,,,,,,,,,
,,,,,,,,2023-08-16_08h43.48.481,HF_wild_card,2022.2.4,Win32,60.89392279,61688d6c15deec9c3554760e,64d2fd46c836a06233681665,64dc7d10792e1824bf53d2cd,,,,,,,,,,,,,,,,,,,,,,,,,,,,,,,,,,,,,,,,,,,,,,,,,,,,,,,,,,,,,,,,
,,,,,,,,2023-08-16_08h43.48.481,HF_wild_card,2022.2.4,Win32,60.89392279,61688d6c15deec9c3554760e,64d2fd46c836a06233681665,64dc7d10792e1824bf53d2cd,,,,,,,decisionTrl,resources/DY.BMP,resources/DG.BMP,Door3,-0.388888889,-0.042592593,1,0,0,2.2001,optionLeft,70,70,1,0,0,0,0,1,,,,,,,,,,,,,,,,,,,,,,,,,,,,,,,,,,,,,,,
,,,,,,,,2023-08-16_08h43.48.481,HF_wild_card,2022.2.4,Win32,60.89392279,61688d6c15deec9c3554760e,64d2fd46c836a06233681665,64dc7d10792e1824bf53d2cd,,,,,,,decisionTrl,resources/DR.BMP,resources/DBN.BMP,WildCard_Ex,0.425,0.027777778,1,0,0,1.8603,optionRight,95,165,1,1,0,1,0,1,,,,,,,,,,,,,,,,,,,,,,,,,,,,,,,,,,,,,,,
,,,,,,,,2023-08-16_08h43.48.481,HF_wild_card,2022.2.4,Win32,60.89392279,61688d6c15deec9c3554760e,64d2fd46c836a06233681665,64dc7d10792e1824bf53d2cd,,,,,,,ctch,resources/DG.BMP,resources/DR.BMP,Door1,0.361111111,-0.021296296,1,0,0,1.5131,optionRight,30,195,1,2,0,2,0,1,,,,,,,,,,,,,,,,,,,,,,,,,,,,,,,,,,,,,,,
,,,,,,,,2023-08-16_08h43.48.481,HF_wild_card,2022.2.4,Win32,60.89392279,61688d6c15deec9c3554760e,64d2fd46c836a06233681665,64dc7d10792e1824bf53d2cd,,,,,,,decisionTrl,resources/DBN.BMP,resources/DR.BMP,WildCard_Ex,-0.324074074,-0.007407407,1,0,0,0.7684,optionLeft,5,200,1,3,0,3,0,1,,,,,,,,,,,,,,,,,,,,,,,,,,,,,,,,,,,,,,,
,,,,,,,,2023-08-16_08h43.48.481,HF_wild_card,2022.2.4,Win32,60.89392279,61688d6c15deec9c3554760e,64d2fd46c836a06233681665,64dc7d10792e1824bf53d2cd,,,,,,,decisionTrl,resources/DBN.BMP,resources/DY.BMP,WildCard_Ex,-0.383333333,-0.05462963,1,0,0,1.0779,optionLeft,95,295,1,4,0,4,0,1,,,,,,,,,,,,,,,,,,,,,,,,,,,,,,,,,,,,,,,
,,,,,,,,2023-08-16_08h43.48.481,HF_wild_card,2022.2.4,Win32,60.89392279,61688d6c15deec9c3554760e,64d2fd46c836a06233681665,64dc7d10792e1824bf53d2cd,,,,,,,ctch,resources/DR.BMP,resources/DG.BMP,Door1,-0.440740741,-0.072222222,1,0,0,0.9195,optionLeft,30,325,1,5,0,5,0,1,,,,,,,,,,,,,,,,,,,,,,,,,,,,,,,,,,,,,,,
,,,,,,,,2023-08-16_08h43.48.481,HF_wild_card,2022.2.4,Win32,60.89392279,61688d6c15deec9c3554760e,64d2fd46c836a06233681665,64dc7d10792e1824bf53d2cd,,,,,,,decisionTrl,resources/DB.BMP,resources/DR.BMP,Door1,0.306481481,-0.046296296,1,0,0,0.7781,optionRight,30,355,1,6,0,6,0,1,,,,,,,,,,,,,,,,,,,,,,,,,,,,,,,,,,,,,,,
,,,,,,,,2023-08-16_08h43.48.481,HF_wild_card,2022.2.4,Win32,60.89392279,61688d6c15deec9c3554760e,64d2fd46c836a06233681665,64dc7d10792e1824bf53d2cd,,,,,,,sngl,resources/DB.BMP,resources/Empty.png,Door2,-0.407407407,-0.033333333,1,0,0,1.2291,optionLeft,40,395,1,7,0,7,0,1,,,,,,,,,,,,,,,,,,,,,,,,,,,,,,,,,,,,,,,
,,,,,,,,2023-08-16_08h43.48.481,HF_wild_card,2022.2.4,Win32,60.89392279,61688d6c15deec9c3554760e,64d2fd46c836a06233681665,64dc7d10792e1824bf53d2cd,,,,,,,decisionTrl,resources/DG.BMP,resources/DY.BMP,Door4,-0.353703704,-0.053703704,1,0,0,1.5291,optionLeft,60,455,1,8,0,8,0,1,,,,,,,,,,,,,,,,,,,,,,,,,,,,,,,,,,,,,,,
,,,,,,,,2023-08-16_08h43.48.481,HF_wild_card,2022.2.4,Win32,60.89392279,61688d6c15deec9c3554760e,64d2fd46c836a06233681665,64dc7d10792e1824bf53d2cd,,,,,,,sngl,resources/DG.BMP,resources/Empty.png,Door4,-0.365740741,-0.062962963,1,0,0,0.781,optionLeft,80,535,1,9,0,9,0,1,,,,,,,,,,,,,,,,,,,,,,,,,,,,,,,,,,,,,,,
,,,,,,,,2023-08-16_08h43.48.481,HF_wild_card,2022.2.4,Win32,60.89392279,61688d6c15deec9c3554760e,64d2fd46c836a06233681665,64dc7d10792e1824bf53d2cd,,,,,,,decisionTrl,resources/DB.BMP,resources/DBN.BMP,Door2,-0.387037037,-0.053703704,1,0,0,1.1145,optionLeft,40,575,1,10,0,10,0,1,,,,,,,,,,,,,,,,,,,,,,,,,,,,,,,,,,,,,,,
,,,,,,,,2023-08-16_08h43.48.481,HF_wild_card,2022.2.4,Win32,60.89392279,61688d6c15deec9c3554760e,64d2fd46c836a06233681665,64dc7d10792e1824bf53d2cd,,,,,,,ctch,resources/DG.BMP,resources/DR.BMP,Door4,-0.362962963,-0.031481481,1,0,0,1.4755,optionLeft,80,655,1,11,0,11,0,1,,,,,,,,,,,,,,,,,,,,,,,,,,,,,,,,,,,,,,,
,,,,,,,,2023-08-16_08h43.48.481,HF_wild_card,2022.2.4,Win32,60.89392279,61688d6c15deec9c3554760e,64d2fd46c836a06233681665,64dc7d10792e1824bf53d2cd,,,,,,,ctch,resources/DY.BMP,resources/DB.BMP,Door3,-0.334259259,-0.082407407,1,0,0,1.4106,optionLeft,70,725,1,12,0,12,0,1,,,,,,,,,,,,,,,,,,,,,,,,,,,,,,,,,,,,,,,
,,,,,,,,2023-08-16_08h43.48.481,HF_wild_card,2022.2.4,Win32,60.89392279,61688d6c15deec9c3554760e,64d2fd46c836a06233681665,64dc7d10792e1824bf53d2cd,,,,,,,decisionTrl,resources/DBN.BMP,resources/DG.BMP,WildCard_Ex,-0.335185185,-0.00462963,1,0,0,1.1936,optionLeft,5,730,1,13,0,13,0,1,,,,,,,,,,,,,,,,,,,,,,,,,,,,,,,,,,,,,,,
,,,,,,,,2023-08-16_08h43.48.481,HF_wild_card,2022.2.4,Win32,60.89392279,61688d6c15deec9c3554760e,64d2fd46c836a06233681665,64dc7d10792e1824bf53d2cd,,,,,,,decisionTrl,resources/DY.BMP,resources/DG.BMP,Door3,-0.356481481,-0.038888889,1,0,0,2.1222,optionLeft,70,800,1,14,0,14,0,1,,,,,,,,,,,,,,,,,,,,,,,,,,,,,,,,,,,,,,,
,,,,,,,,2023-08-16_08h43.48.481,HF_wild_card,2022.2.4,Win32,60.89392279,61688d6c15deec9c3554760e,64d2fd46c836a06233681665,64dc7d10792e1824bf53d2cd,,,,,,,ctch,resources/DB.BMP,resources/DY.BMP,Door3,0.377777778,-0.047222222,1,0,0,1.2299,optionRight,70,870,1,15,0,15,0,1,,,,,,,,,,,,,,,,,,,,,,,,,,,,,,,,,,,,,,,
,,,,,,,,2023-08-16_08h43.48.481,HF_wild_card,2022.2.4,Win32,60.89392279,61688d6c15deec9c3554760e,64d2fd46c836a06233681665,64dc7d10792e1824bf53d2cd,,,,,,,decisionTrl,resources/DBN.BMP,resources/DB.BMP,WildCard_Ex,-0.42037037,0.010185185,1,0,0,1.4629,optionLeft,5,875,1,16,0,16,0,1,,,,,,,,,,,,,,,,,,,,,,,,,,,,,,,,,,,,,,,
,,,,,,,,2023-08-16_08h43.48.481,HF_wild_card,2022.2.4,Win32,60.89392279,61688d6c15deec9c3554760e,64d2fd46c836a06233681665,64dc7d10792e1824bf53d2cd,,,,,,,decisionTrl,resources/DY.BMP,resources/DG.BMP,Door3,-0.388888889,-0.007407407,1,0,0,0.9323,optionLeft,70,945,1,17,0,17,0,1,,,,,,,,,,,,,,,,,,,,,,,,,,,,,,,,,,,,,,,
,,,,,,,,2023-08-16_08h43.48.481,HF_wild_card,2022.2.4,Win32,60.89392279,61688d6c15deec9c3554760e,64d2fd46c836a06233681665,64dc7d10792e1824bf53d2cd,,,,,,,sngl,resources/DY.BMP,resources/Empty.png,Door3,-0.312037037,-0.007407407,1,0,0,0.7313,optionLeft,70,1015,1,18,0,18,0,1,,,,,,,,,,,,,,,,,,,,,,,,,,,,,,,,,,,,,,,
,,,,,,,,2023-08-16_08h43.48.481,HF_wild_card,2022.2.4,Win32,60.89392279,61688d6c15deec9c3554760e,64d2fd46c836a06233681665,64dc7d10792e1824bf53d2cd,,,,,,,decisionTrl,resources/DY.BMP,resources/DG.BMP,Door4,0.293518519,-0.006481481,1,0,0,1.1515,optionRight,80,1095,1,19,0,19,0,1,,,,,,,,,,,,,,,,,,,,,,,,,,,,,,,,,,,,,,,
,,,,,,,,2023-08-16_08h43.48.481,HF_wild_card,2022.2.4,Win32,60.89392279,61688d6c15deec9c3554760e,64d2fd46c836a06233681665,64dc7d10792e1824bf53d2cd,,,,,,,decisionTrl,resources/DG.BMP,resources/DBN.BMP,Door4,-0.363888889,-0.032407407,1,0,0,0.6929,optionLeft,80,1175,1,20,0,20,0,1,,,,,,,,,,,,,,,,,,,,,,,,,,,,,,,,,,,,,,,
,,,,,,,,2023-08-16_08h43.48.481,HF_wild_card,2022.2.4,Win32,60.89392279,61688d6c15deec9c3554760e,64d2fd46c836a06233681665,64dc7d10792e1824bf53d2cd,,,,,,,decisionTrl,resources/DR.BMP,resources/DB.BMP,Door1,-0.380555556,-0.026851852,1,0,0,1.9619,optionLeft,30,1205,1,21,0,21,0,1,,,,,,,,,,,,,,,,,,,,,,,,,,,,,,,,,,,,,,,
,,,,,,,,2023-08-16_08h43.48.481,HF_wild_card,2022.2.4,Win32,60.89392279,61688d6c15deec9c3554760e,64d2fd46c836a06233681665,64dc7d10792e1824bf53d2cd,,,,,,,ctch,resources/DR.BMP,resources/DG.BMP,Door4,0.388888889,-0.080555556,1,0,0,0.9119,optionRight,60,1265,1,22,0,22,0,1,,,,,,,,,,,,,,,,,,,,,,,,,,,,,,,,,,,,,,,
,,,,,,,,2023-08-16_08h43.48.481,HF_wild_card,2022.2.4,Win32,60.89392279,61688d6c15deec9c3554760e,64d2fd46c836a06233681665,64dc7d10792e1824bf53d2cd,,,,,,,sngl,resources/DBN.BMP,resources/Empty.png,WildCard_Ex,-0.416666667,-0.018518519,1,0,0,0.7234,optionLeft,95,1360,1,23,0,23,0,1,,,,,,,,,,,,,,,,,,,,,,,,,,,,,,,,,,,,,,,
,,,,,,,,2023-08-16_08h43.48.481,HF_wild_card,2022.2.4,Win32,60.89392279,61688d6c15deec9c3554760e,64d2fd46c836a06233681665,64dc7d10792e1824bf53d2cd,,,,,,,ctch,resources/DY.BMP,resources/DB.BMP,Door3,-0.42962963,-0.006481481,1,0,0,1.5387,optionLeft,70,1430,1,24,0,24,0,1,,,,,,,,,,,,,,,,,,,,,,,,,,,,,,,,,,,,,,,
,,,,,,,,2023-08-16_08h43.48.481,HF_wild_card,2022.2.4,Win32,60.89392279,61688d6c15deec9c3554760e,64d2fd46c836a06233681665,64dc7d10792e1824bf53d2cd,,,,,,,decisionTrl,resources/DB.BMP,resources/DR.BMP,Door1,0.35,-0.040740741,1,0,0,1.9939,optionRight,30,1460,1,25,0,25,0,1,,,,,,,,,,,,,,,,,,,,,,,,,,,,,,,,,,,,,,,
,,,,,,,,2023-08-16_08h43.48.481,HF_wild_card,2022.2.4,Win32,60.89392279,61688d6c15deec9c3554760e,64d2fd46c836a06233681665,64dc7d10792e1824bf53d2cd,,,,,,,decisionTrl,resources/DB.BMP,resources/DR.BMP,Door2,-0.365740741,-0.028703704,1,0,0,0.8957,optionLeft,40,1500,1,26,0,26,0,1,,,,,,,,,,,,,,,,,,,,,,,,,,,,,,,,,,,,,,,
,,,,,,,,2023-08-16_08h43.48.481,HF_wild_card,2022.2.4,Win32,60.89392279,61688d6c15deec9c3554760e,64d2fd46c836a06233681665,64dc7d10792e1824bf53d2cd,,,,,,,decisionTrl,resources/DG.BMP,resources/DY.BMP,Door3,0.428703704,-0.012962963,1,0,0,1.8278,optionRight,70,1570,1,27,0,27,0,1,,,,,,,,,,,,,,,,,,,,,,,,,,,,,,,,,,,,,,,
,,,,,,,,2023-08-16_08h43.48.481,HF_wild_card,2022.2.4,Win32,60.89392279,61688d6c15deec9c3554760e,64d2fd46c836a06233681665,64dc7d10792e1824bf53d2cd,,,,,,,decisionTrl,resources/DB.BMP,resources/DR.BMP,Door2,-0.296296296,-0.024074074,1,0,0,1.5458,optionLeft,20,1590,1,28,0,28,0,1,,,,,,,,,,,,,,,,,,,,,,,,,,,,,,,,,,,,,,,
,,,,,,,,2023-08-16_08h43.48.481,HF_wild_card,2022.2.4,Win32,60.89392279,61688d6c15deec9c3554760e,64d2fd46c836a06233681665,64dc7d10792e1824bf53d2cd,,,,,,,sngl,resources/Empty.png,resources/DB.BMP,Door2,0.433333333,-0.028703704,1,0,0,0.6969,optionRight,20,1610,1,29,0,29,0,1,,,,,,,,,,,,,,,,,,,,,,,,,,,,,,,,,,,,,,,
,,,,,,,,2023-08-16_08h43.48.481,HF_wild_card,2022.2.4,Win32,60.89392279,61688d6c15deec9c3554760e,64d2fd46c836a06233681665,64dc7d10792e1824bf53d2cd,,,,,,,sngl,resources/Empty.png,resources/DG.BMP,Door4,0.465740741,-0.1,1,0,0,0.6832,optionRight,60,1670,1,30,0,30,0,1,,,,,,,,,,,,,,,,,,,,,,,,,,,,,,,,,,,,,,,
,,,,,,,,2023-08-16_08h43.48.481,HF_wild_card,2022.2.4,Win32,60.89392279,61688d6c15deec9c3554760e,64d2fd46c836a06233681665,64dc7d10792e1824bf53d2cd,,,,,,,decisionTrl,resources/DR.BMP,resources/DB.BMP,Door1,-0.391666667,-0.026851852,1,0,0,2.1358,optionLeft,30,1700,1,31,0,31,0,1,,,,,,,,,,,,,,,,,,,,,,,,,,,,,,,,,,,,,,,
,,,,,,,,2023-08-16_08h43.48.481,HF_wild_card,2022.2.4,Win32,60.89392279,61688d6c15deec9c3554760e,64d2fd46c836a06233681665,64dc7d10792e1824bf53d2cd,,,,,,,decisionTrl,resources/DY.BMP,resources/DBN.BMP,WildCard_Ex,0.321296296,0.025,1,0,0,0.811,optionRight,95,1795,1,32,0,32,0,1,,,,,,,,,,,,,,,,,,,,,,,,,,,,,,,,,,,,,,,
,,,,,,,,2023-08-16_08h43.48.481,HF_wild_card,2022.2.4,Win32,60.89392279,61688d6c15deec9c3554760e,64d2fd46c836a06233681665,64dc7d10792e1824bf53d2cd,,,,,,,decisionTrl,resources/DR.BMP,resources/DB.BMP,Door1,-0.387037037,-0.053703704,1,0,0,0.9485,optionLeft,30,1825,1,33,0,33,0,1,,,,,,,,,,,,,,,,,,,,,,,,,,,,,,,,,,,,,,,
,,,,,,,,2023-08-16_08h43.48.481,HF_wild_card,2022.2.4,Win32,60.89392279,61688d6c15deec9c3554760e,64d2fd46c836a06233681665,64dc7d10792e1824bf53d2cd,,,,,,,decisionTrl,resources/DG.BMP,resources/DY.BMP,Door3,0.419444444,0.015740741,1,0,0,2.0724,optionRight,70,1895,1,34,0,34,0,1,,,,,,,,,,,,,,,,,,,,,,,,,,,,,,,,,,,,,,,
,,,,,,,,2023-08-16_08h43.48.481,HF_wild_card,2022.2.4,Win32,60.89392279,61688d6c15deec9c3554760e,64d2fd46c836a06233681665,64dc7d10792e1824bf53d2cd,,,,,,,ctch,resources/DB.BMP,resources/DY.BMP,Door3,0.315740741,0,1,0,0,1.3443,optionRight,70,1965,1,35,0,35,0,1,,,,,,,,,,,,,,,,,,,,,,,,,,,,,,,,,,,,,,,
,,,,,,,,2023-08-16_08h43.48.481,HF_wild_card,2022.2.4,Win32,60.89392279,61688d6c15deec9c3554760e,64d2fd46c836a06233681665,64dc7d10792e1824bf53d2cd,,,,,,,sngl,resources/Empty.png,resources/DBN.BMP,WildCard_Ex,0.367592593,0.041666667,1,0,0,0.6436,optionRight,5,1970,1,36,0,36,0,1,,,,,,,,,,,,,,,,,,,,,,,,,,,,,,,,,,,,,,,
,,,,,,,,2023-08-16_08h43.48.481,HF_wild_card,2022.2.4,Win32,60.89392279,61688d6c15deec9c3554760e,64d2fd46c836a06233681665,64dc7d10792e1824bf53d2cd,,,,,,,decisionTrl,resources/DG.BMP,resources/DY.BMP,Door3,0.442592593,-0.016666667,1,0,0,1.006,optionRight,70,2040,1,37,0,37,0,1,,,,,,,,,,,,,,,,,,,,,,,,,,,,,,,,,,,,,,,
,,,,,,,,2023-08-16_08h43.48.481,HF_wild_card,2022.2.4,Win32,60.89392279,61688d6c15deec9c3554760e,64d2fd46c836a06233681665,64dc7d10792e1824bf53d2cd,,,,,,,sngl,resources/DR.BMP,resources/Empty.png,Door1,-0.363888889,-0.014814815,1,0,0,0.7456,optionLeft,30,2070,1,38,0,38,0,1,,,,,,,,,,,,,,,,,,,,,,,,,,,,,,,,,,,,,,,
,,,,,,,,2023-08-16_08h43.48.481,HF_wild_card,2022.2.4,Win32,60.89392279,61688d6c15deec9c3554760e,64d2fd46c836a06233681665,64dc7d10792e1824bf53d2cd,,,,,,,decisionTrl,resources/DR.BMP,resources/DB.BMP,Door2,0.300925926,-0.024074074,1,0,0,1.9679,optionRight,40,2110,1,39,0,39,0,1,,,,,,,,,,,,,,,,,,,,,,,,,,,,,,,,,,,,,,,
,,,,,,,,2023-08-16_08h43.48.481,HF_wild_card,2022.2.4,Win32,60.89392279,61688d6c15deec9c3554760e,64d2fd46c836a06233681665,64dc7d10792e1824bf53d2cd,,,,,,,sngl,resources/Empty.png,resources/DBN.BMP,WildCard_Ex,0.324074074,0.023148148,1,0,0,0.6651,optionRight,95,2205,1,40,0,40,0,1,,,,,,,,,,,,,,,,,,,,,,,,,,,,,,,,,,,,,,,
,,,,,,,,2023-08-16_08h43.48.481,HF_wild_card,2022.2.4,Win32,60.89392279,61688d6c15deec9c3554760e,64d2fd46c836a06233681665,64dc7d10792e1824bf53d2cd,,,,,,,sngl,resources/DBN.BMP,resources/Empty.png,WildCard_Ex,-0.387037037,-0.006481481,1,0,0,0.5462,optionLeft,5,2210,1,41,0,41,0,1,,,,,,,,,,,,,,,,,,,,,,,,,,,,,,,,,,,,,,,
,,,,,,,,2023-08-16_08h43.48.481,HF_wild_card,2022.2.4,Win32,60.89392279,61688d6c15deec9c3554760e,64d2fd46c836a06233681665,64dc7d10792e1824bf53d2cd,,,,,,,sngl,resources/Empty.png,resources/DY.BMP,Door3,0.435185185,0.00462963,1,0,0,0.6136,optionRight,70,2280,1,42,0,42,0,1,,,,,,,,,,,,,,,,,,,,,,,,,,,,,,,,,,,,,,,
,,,,,,,,2023-08-16_08h43.48.481,HF_wild_card,2022.2.4,Win32,60.89392279,61688d6c15deec9c3554760e,64d2fd46c836a06233681665,64dc7d10792e1824bf53d2cd,,,,,,,sngl,resources/Empty.png,resources/DR.BMP,Door1,0.3,0.000925926,1,0,0,0.6955,optionRight,30,2310,1,43,0,43,0,1,,,,,,,,,,,,,,,,,,,,,,,,,,,,,,,,,,,,,,,
,,,,,,,,2023-08-16_08h43.48.481,HF_wild_card,2022.2.4,Win32,60.89392279,61688d6c15deec9c3554760e,64d2fd46c836a06233681665,64dc7d10792e1824bf53d2cd,,,,,,,,,,,,,,,,,,,,,,,,,,0,0,0,0,1,,,,,,,,,,,,,,,,,,,,,,,,,,,,,,,,,,
,,,,,,,,2023-08-16_08h43.48.481,HF_wild_card,2022.2.4,Win32,60.89392279,61688d6c15deec9c3554760e,64d2fd46c836a06233681665,64dc7d10792e1824bf53d2cd,,,,,,,decisionTrl,resources/DY.BMP,resources/DG.BMP,Door3,-0.360185185,-0.024074074,1,0,0,1.8893,optionLeft,70,2380,2,0,0,0,0,1,,,,,,,,,,,,,,,,,,,,,,,,,,,,,,,,,,,,,,,
,,,,,,,,2023-08-16_08h43.48.481,HF_wild_card,2022.2.4,Win32,60.89392279,61688d6c15deec9c3554760e,64d2fd46c836a06233681665,64dc7d10792e1824bf53d2cd,,,,,,,decisionTrl,resources/DB.BMP,resources/DR.BMP,Door1,0.25,-0.022222222,1,0,0,0.763,optionRight,30,2410,2,1,0,1,0,1,,,,,,,,,,,,,,,,,,,,,,,,,,,,,,,,,,,,,,,
,,,,,,,,2023-08-16_08h43.48.481,HF_wild_card,2022.2.4,Win32,60.89392279,61688d6c15deec9c3554760e,64d2fd46c836a06233681665,64dc7d10792e1824bf53d2cd,,,,,,,sngl,resources/Empty.png,resources/DY.BMP,Door3,0.377777778,-0.093518519,1,0,0,0.5796,optionRight,70,2480,2,2,0,2,0,1,,,,,,,,,,,,,,,,,,,,,,,,,,,,,,,,,,,,,,,
,,,,,,,,2023-08-16_08h43.48.481,HF_wild_card,2022.2.4,Win32,60.89392279,61688d6c15deec9c3554760e,64d2fd46c836a06233681665,64dc7d10792e1824bf53d2cd,,,,,,,decisionTrl,resources/DR.BMP,resources/DB.BMP,Door1,-0.39537037,-0.028703704,1,0,0,0.673,optionLeft,30,2510,2,3,0,3,0,1,,,,,,,,,,,,,,,,,,,,,,,,,,,,,,,,,,,,,,,
,,,,,,,,2023-08-16_08h43.48.481,HF_wild_card,2022.2.4,Win32,60.89392279,61688d6c15deec9c3554760e,64d2fd46c836a06233681665,64dc7d10792e1824bf53d2cd,,,,,,,ctch,resources/DY.BMP,resources/DB.BMP,Door2,0.312962963,-0.022222222,1,0,0,0.5621,optionRight,20,2530,2,4,0,4,0,1,,,,,,,,,,,,,,,,,,,,,,,,,,,,,,,,,,,,,,,
,,,,,,,,2023-08-16_08h43.48.481,HF_wild_card,2022.2.4,Win32,60.89392279,61688d6c15deec9c3554760e,64d2fd46c836a06233681665,64dc7d10792e1824bf53d2cd,,,,,,,decisionTrl,resources/DG.BMP,resources/DY.BMP,Door3,0.394444444,-0.047222222,1,0,0,0.6807,optionRight,70,2600,2,5,0,5,0,1,,,,,,,,,,,,,,,,,,,,,,,,,,,,,,,,,,,,,,,
,,,,,,,,2023-08-16_08h43.48.481,HF_wild_card,2022.2.4,Win32,60.89392279,61688d6c15deec9c3554760e,64d2fd46c836a06233681665,64dc7d10792e1824bf53d2cd,,,,,,,decisionTrl,resources/DG.BMP,resources/DY.BMP,Door4,-0.287037037,0.010185185,1,0,0,1.4467,optionLeft,80,2680,2,6,0,6,0,1,,,,,,,,,,,,,,,,,,,,,,,,,,,,,,,,,,,,,,,
,,,,,,,,2023-08-16_08h43.48.481,HF_wild_card,2022.2.4,Win32,60.89392279,61688d6c15deec9c3554760e,64d2fd46c836a06233681665,64dc7d10792e1824bf53d2cd,,,,,,,decisionTrl,resources/DBN.BMP,resources/DY.BMP,WildCard_Ex,-0.378703704,0.013888889,1,0,0,1.0628,optionLeft,5,2685,2,7,0,7,0,1,,,,,,,,,,,,,,,,,,,,,,,,,,,,,,,,,,,,,,,
,,,,,,,,2023-08-16_08h43.48.481,HF_wild_card,2022.2.4,Win32,60.89392279,61688d6c15deec9c3554760e,64d2fd46c836a06233681665,64dc7d10792e1824bf53d2cd,,,,,,,ctch,resources/DG.BMP,resources/DR.BMP,Door4,-0.3,-0.036111111,1,0,0,1.0903,optionLeft,80,2765,2,8,0,8,0,1,,,,,,,,,,,,,,,,,,,,,,,,,,,,,,,,,,,,,,,
,,,,,,,,2023-08-16_08h43.48.481,HF_wild_card,2022.2.4,Win32,60.89392279,61688d6c15deec9c3554760e,64d2fd46c836a06233681665,64dc7d10792e1824bf53d2cd,,,,,,,sngl,resources/DR.BMP,resources/Empty.png,Door1,-0.423148148,-0.001851852,1,0,0,0.6618,optionLeft,30,2795,2,9,0,9,0,1,,,,,,,,,,,,,,,,,,,,,,,,,,,,,,,,,,,,,,,
,,,,,,,,2023-08-16_08h43.48.481,HF_wild_card,2022.2.4,Win32,60.89392279,61688d6c15deec9c3554760e,64d2fd46c836a06233681665,64dc7d10792e1824bf53d2cd,,,,,,,decisionTrl,resources/DBN.BMP,resources/DG.BMP,Door4,0.383333333,-0.051851852,1,0,0,1.5614,optionRight,60,2855,2,10,0,10,0,1,,,,,,,,,,,,,,,,,,,,,,,,,,,,,,,,,,,,,,,
,,,,,,,,2023-08-16_08h43.48.481,HF_wild_card,2022.2.4,Win32,60.89392279,61688d6c15deec9c3554760e,64d2fd46c836a06233681665,64dc7d10792e1824bf53d2cd,,,,,,,decisionTrl,resources/DG.BMP,resources/DBN.BMP,WildCard_Ex,0.441666667,0.001851852,1,0,0,0.9127,optionRight,95,2950,2,11,0,11,0,1,,,,,,,,,,,,,,,,,,,,,,,,,,,,,,,,,,,,,,,
,,,,,,,,2023-08-16_08h43.48.481,HF_wild_card,2022.2.4,Win32,60.89392279,61688d6c15deec9c3554760e,64d2fd46c836a06233681665,64dc7d10792e1824bf53d2cd,,,,,,,sngl,resources/DY.BMP,resources/Empty.png,Door3,-0.437037037,-0.030555556,1,0,0,0.6018,optionLeft,70,3020,2,12,0,12,0,1,,,,,,,,,,,,,,,,,,,,,,,,,,,,,,,,,,,,,,,
,,,,,,,,2023-08-16_08h43.48.481,HF_wild_card,2022.2.4,Win32,60.89392279,61688d6c15deec9c3554760e,64d2fd46c836a06233681665,64dc7d10792e1824bf53d2cd,,,,,,,sngl,resources/DBN.BMP,resources/Empty.png,WildCard_Ex,-0.431481481,0.024074074,1,0,0,0.64,optionLeft,95,3115,2,13,0,13,0,1,,,,,,,,,,,,,,,,,,,,,,,,,,,,,,,,,,,,,,,
,,,,,,,,2023-08-16_08h43.48.481,HF_wild_card,2022.2.4,Win32,60.89392279,61688d6c15deec9c3554760e,64d2fd46c836a06233681665,64dc7d10792e1824bf53d2cd,,,,,,,decisionTrl,resources/DG.BMP,resources/DY.BMP,Door3,0.265740741,-0.026851852,1,0,0,2.0457,optionRight,70,3185,2,14,0,14,0,1,,,,,,,,,,,,,,,,,,,,,,,,,,,,,,,,,,,,,,,
,,,,,,,,2023-08-16_08h43.48.481,HF_wild_card,2022.2.4,Win32,60.89392279,61688d6c15deec9c3554760e,64d2fd46c836a06233681665,64dc7d10792e1824bf53d2cd,,,,,,,sngl,resources/Empty.png,resources/DBN.BMP,WildCard_Ex,0.319444444,-0.000925926,1,0,0,0.6796,optionRight,5,3190,2,15,0,15,0,1,,,,,,,,,,,,,,,,,,,,,,,,,,,,,,,,,,,,,,,
,,,,,,,,2023-08-16_08h43.48.481,HF_wild_card,2022.2.4,Win32,60.89392279,61688d6c15deec9c3554760e,64d2fd46c836a06233681665,64dc7d10792e1824bf53d2cd,,,,,,,sngl,resources/DBN.BMP,resources/Empty.png,WildCard_Ex,-0.397222222,0.023148148,1,0,0,0.6134,optionLeft,5,3195,2,16,0,16,0,1,,,,,,,,,,,,,,,,,,,,,,,,,,,,,,,,,,,,,,,
,,,,,,,,2023-08-16_08h43.48.481,HF_wild_card,2022.2.4,Win32,60.89392279,61688d6c15deec9c3554760e,64d2fd46c836a06233681665,64dc7d10792e1824bf53d2cd,,,,,,,decisionTrl,resources/DB.BMP,resources/DBN.BMP,Door2,-0.390740741,-0.002777778,1,0,0,0.7974,optionLeft,40,3235,2,17,0,17,0,1,,,,,,,,,,,,,,,,,,,,,,,,,,,,,,,,,,,,,,,
,,,,,,,,2023-08-16_08h43.48.481,HF_wild_card,2022.2.4,Win32,60.89392279,61688d6c15deec9c3554760e,64d2fd46c836a06233681665,64dc7d10792e1824bf53d2cd,,,,,,,decisionTrl,resources/DY.BMP,resources/DBN.BMP,WildCard_Ex,0.337037037,0.023148148,1,0,0,1.4002,optionRight,5,3240,2,18,0,18,0,1,,,,,,,,,,,,,,,,,,,,,,,,,,,,,,,,,,,,,,,
,,,,,,,,2023-08-16_08h43.48.481,HF_wild_card,2022.2.4,Win32,60.89392279,61688d6c15deec9c3554760e,64d2fd46c836a06233681665,64dc7d10792e1824bf53d2cd,,,,,,,decisionTrl,resources/DR.BMP,resources/DBN.BMP,Door1,-0.319444444,-0.072222222,1,0,0,0.9465,optionLeft,30,3270,2,19,0,19,0,1,,,,,,,,,,,,,,,,,,,,,,,,,,,,,,,,,,,,,,,
,,,,,,,,2023-08-16_08h43.48.481,HF_wild_card,2022.2.4,Win32,60.89392279,61688d6c15deec9c3554760e,64d2fd46c836a06233681665,64dc7d10792e1824bf53d2cd,,,,,,,decisionTrl,resources/DB.BMP,resources/DR.BMP,Door2,-0.411111111,-0.012037037,1,0,0,1.9763,optionLeft,20,3290,2,20,0,20,0,1,,,,,,,,,,,,,,,,,,,,,,,,,,,,,,,,,,,,,,,
,,,,,,,,2023-08-16_08h43.48.481,HF_wild_card,2022.2.4,Win32,60.89392279,61688d6c15deec9c3554760e,64d2fd46c836a06233681665,64dc7d10792e1824bf53d2cd,,,,,,,decisionTrl,resources/DB.BMP,resources/DR.BMP,Door1,0.457407407,-0.031481481,1,0,0,1.2465,optionRight,30,3320,2,21,0,21,0,1,,,,,,,,,,,,,,,,,,,,,,,,,,,,,,,,,,,,,,,
,,,,,,,,2023-08-16_08h43.48.481,HF_wild_card,2022.2.4,Win32,60.89392279,61688d6c15deec9c3554760e,64d2fd46c836a06233681665,64dc7d10792e1824bf53d2cd,,,,,,,sngl,resources/Empty.png,resources/DB.BMP,Door2,0.412962963,0.005555556,1,0,0,0.6238,optionRight,40,3360,2,22,0,22,0,1,,,,,,,,,,,,,,,,,,,,,,,,,,,,,,,,,,,,,,,
,,,,,,,,2023-08-16_08h43.48.481,HF_wild_card,2022.2.4,Win32,60.89392279,61688d6c15deec9c3554760e,64d2fd46c836a06233681665,64dc7d10792e1824bf53d2cd,,,,,,,ctch,resources/DY.BMP,resources/DB.BMP,Door3,0.017592593,0.011111111,1,0,0,0.6423,optionLeft,70,3430,2,23,0,23,0,1,,,,,,,,,,,,,,,,,,,,,,,,,,,,,,,,,,,,,,,
,,,,,,,,2023-08-16_08h43.48.481,HF_wild_card,2022.2.4,Win32,60.89392279,61688d6c15deec9c3554760e,64d2fd46c836a06233681665,64dc7d10792e1824bf53d2cd,,,,,,,sngl,resources/Empty.png,resources/DBN.BMP,WildCard_Ex,0.32037037,0.002777778,1,0,0,0.743,optionRight,95,3525,2,24,0,24,0,1,,,,,,,,,,,,,,,,,,,,,,,,,,,,,,,,,,,,,,,
,,,,,,,,2023-08-16_08h43.48.481,HF_wild_card,2022.2.4,Win32,60.89392279,61688d6c15deec9c3554760e,64d2fd46c836a06233681665,64dc7d10792e1824bf53d2cd,,,,,,,decisionTrl,resources/DG.BMP,resources/DY.BMP,Door4,-0.378703704,-0.04537037,1,0,0,1.5244,optionLeft,80,3605,2,25,0,25,0,1,,,,,,,,,,,,,,,,,,,,,,,,,,,,,,,,,,,,,,,
,,,,,,,,2023-08-16_08h43.48.481,HF_wild_card,2022.2.4,Win32,60.89392279,61688d6c15deec9c3554760e,64d2fd46c836a06233681665,64dc7d10792e1824bf53d2cd,,,,,,,ctch,resources/DB.BMP,resources/DY.BMP,Door3,0.340740741,0.033333333,1,0,0,1.8625,optionRight,70,3675,2,26,0,26,0,1,,,,,,,,,,,,,,,,,,,,,,,,,,,,,,,,,,,,,,,
,,,,,,,,2023-08-16_08h43.48.481,HF_wild_card,2022.2.4,Win32,60.89392279,61688d6c15deec9c3554760e,64d2fd46c836a06233681665,64dc7d10792e1824bf53d2cd,,,,,,,ctch,resources/DR.BMP,resources/DG.BMP,Door4,0.437962963,0.02037037,1,0,0,1.042,optionRight,60,3735,2,27,0,27,0,1,,,,,,,,,,,,,,,,,,,,,,,,,,,,,,,,,,,,,,,
,,,,,,,,2023-08-16_08h43.48.481,HF_wild_card,2022.2.4,Win32,60.89392279,61688d6c15deec9c3554760e,64d2fd46c836a06233681665,64dc7d10792e1824bf53d2cd,,,,,,,decisionTrl,resources/DY.BMP,resources/DG.BMP,Door3,-0.405555556,-0.036111111,1,0,0,2.4164,optionLeft,70,3805,2,28,0,28,0,1,,,,,,,,,,,,,,,,,,,,,,,,,,,,,,,,,,,,,,,
,,,,,,,,2023-08-16_08h43.48.481,HF_wild_card,2022.2.4,Win32,60.89392279,61688d6c15deec9c3554760e,64d2fd46c836a06233681665,64dc7d10792e1824bf53d2cd,,,,,,,decisionTrl,resources/DY.BMP,resources/DG.BMP,Door4,0.337037037,-0.028703704,1,0,0,1.1616,optionRight,60,3865,2,29,0,29,0,1,,,,,,,,,,,,,,,,,,,,,,,,,,,,,,,,,,,,,,,
,,,,,,,,2023-08-16_08h43.48.481,HF_wild_card,2022.2.4,Win32,60.89392279,61688d6c15deec9c3554760e,64d2fd46c836a06233681665,64dc7d10792e1824bf53d2cd,,,,,,,decisionTrl,resources/DBN.BMP,resources/DR.BMP,WildCard_Ex,-0.39537037,0.006481481,1,0,0,1.0069,optionLeft,95,3960,2,30,0,30,0,1,,,,,,,,,,,,,,,,,,,,,,,,,,,,,,,,,,,,,,,
,,,,,,,,2023-08-16_08h43.48.481,HF_wild_card,2022.2.4,Win32,60.89392279,61688d6c15deec9c3554760e,64d2fd46c836a06233681665,64dc7d10792e1824bf53d2cd,,,,,,,sngl,resources/Empty.png,resources/DG.BMP,Door4,0.417592593,0.002777778,1,0,0,0.6352,optionRight,80,4040,2,31,0,31,0,1,,,,,,,,,,,,,,,,,,,,,,,,,,,,,,,,,,,,,,,
,,,,,,,,2023-08-16_08h43.48.481,HF_wild_card,2022.2.4,Win32,60.89392279,61688d6c15deec9c3554760e,64d2fd46c836a06233681665,64dc7d10792e1824bf53d2cd,,,,,,,sngl,resources/Empty.png,resources/DR.BMP,Door1,0.366666667,-0.042592593,1,0,0,0.6621,optionRight,30,4070,2,32,0,32,0,1,,,,,,,,,,,,,,,,,,,,,,,,,,,,,,,,,,,,,,,
,,,,,,,,2023-08-16_08h43.48.481,HF_wild_card,2022.2.4,Win32,60.89392279,61688d6c15deec9c3554760e,64d2fd46c836a06233681665,64dc7d10792e1824bf53d2cd,,,,,,,decisionTrl,resources/DR.BMP,resources/DB.BMP,Door1,-0.432407407,-0.022222222,1,0,0,1.1809,optionLeft,30,4100,2,33,0,33,0,1,,,,,,,,,,,,,,,,,,,,,,,,,,,,,,,,,,,,,,,
,,,,,,,,2023-08-16_08h43.48.481,HF_wild_card,2022.2.4,Win32,60.89392279,61688d6c15deec9c3554760e,64d2fd46c836a06233681665,64dc7d10792e1824bf53d2cd,,,,,,,ctch,resources/DG.BMP,resources/DR.BMP,Door4,-0.397222222,-0.041666667,1,0,0,0.8139,optionLeft,80,4180,2,34,0,34,0,1,,,,,,,,,,,,,,,,,,,,,,,,,,,,,,,,,,,,,,,
,,,,,,,,2023-08-16_08h43.48.481,HF_wild_card,2022.2.4,Win32,60.89392279,61688d6c15deec9c3554760e,64d2fd46c836a06233681665,64dc7d10792e1824bf53d2cd,,,,,,,decisionTrl,resources/DB.BMP,resources/DR.BMP,Door1,0.358333333,0.009259259,1,0,0,1.1135,optionRight,30,4210,2,35,0,35,0,1,,,,,,,,,,,,,,,,,,,,,,,,,,,,,,,,,,,,,,,
,,,,,,,,2023-08-16_08h43.48.481,HF_wild_card,2022.2.4,Win32,60.89392279,61688d6c15deec9c3554760e,64d2fd46c836a06233681665,64dc7d10792e1824bf53d2cd,,,,,,,decisionTrl,resources/DBN.BMP,resources/DB.BMP,WildCard_Ex,-0.331481481,0.011111111,1,0,0,0.9282,optionLeft,5,4215,2,36,0,36,0,1,,,,,,,,,,,,,,,,,,,,,,,,,,,,,,,,,,,,,,,
,,,,,,,,2023-08-16_08h43.48.481,HF_wild_card,2022.2.4,Win32,60.89392279,61688d6c15deec9c3554760e,64d2fd46c836a06233681665,64dc7d10792e1824bf53d2cd,,,,,,,decisionTrl,resources/DR.BMP,resources/DB.BMP,Door1,-0.342592593,-0.00462963,1,0,0,0.9983,optionLeft,30,4245,2,37,0,37,0,1,,,,,,,,,,,,,,,,,,,,,,,,,,,,,,,,,,,,,,,
,,,,,,,,2023-08-16_08h43.48.481,HF_wild_card,2022.2.4,Win32,60.89392279,61688d6c15deec9c3554760e,64d2fd46c836a06233681665,64dc7d10792e1824bf53d2cd,,,,,,,sngl,resources/DB.BMP,resources/Empty.png,Door2,-0.407407407,-0.090740741,1,0,0,0.8138,optionLeft,20,4265,2,38,0,38,0,1,,,,,,,,,,,,,,,,,,,,,,,,,,,,,,,,,,,,,,,
,,,,,,,,2023-08-16_08h43.48.481,HF_wild_card,2022.2.4,Win32,60.89392279,61688d6c15deec9c3554760e,64d2fd46c836a06233681665,64dc7d10792e1824bf53d2cd,,,,,,,ctch,resources/DB.BMP,resources/DY.BMP,Door3,0.558333333,0.02962963,1,0,0,1.3561,optionRight,70,4335,2,39,0,39,0,1,,,,,,,,,,,,,,,,,,,,,,,,,,,,,,,,,,,,,,,
,,,,,,,,2023-08-16_08h43.48.481,HF_wild_card,2022.2.4,Win32,60.89392279,61688d6c15deec9c3554760e,64d2fd46c836a06233681665,64dc7d10792e1824bf53d2cd,,,,,,,decisionTrl,resources/DY.BMP,resources/DG.BMP,Door3,-0.327777778,-0.019444444,1,0,0,0.9784,optionLeft,70,4405,2,40,0,40,0,1,,,,,,,,,,,,,,,,,,,,,,,,,,,,,,,,,,,,,,,
,,,,,,,,2023-08-16_08h43.48.481,HF_wild_card,2022.2.4,Win32,60.89392279,61688d6c15deec9c3554760e,64d2fd46c836a06233681665,64dc7d10792e1824bf53d2cd,,,,,,,decisionTrl,resources/DR.BMP,resources/DB.BMP,Door1,-0.353703704,-0.030555556,1,0,0,1.1811,optionLeft,30,4435,2,41,0,41,0,1,,,,,,,,,,,,,,,,,,,,,,,,,,,,,,,,,,,,,,,
,,,,,,,,2023-08-16_08h43.48.481,HF_wild_card,2022.2.4,Win32,60.89392279,61688d6c15deec9c3554760e,64d2fd46c836a06233681665,64dc7d10792e1824bf53d2cd,,,,,,,ctch,resources/DR.BMP,resources/DG.BMP,Door4,0.526851852,-0.056481481,1,0,0,0.7969,optionRight,80,4515,2,42,0,42,0,1,,,,,,,,,,,,,,,,,,,,,,,,,,,,,,,,,,,,,,,
,,,,,,,,2023-08-16_08h43.48.481,HF_wild_card,2022.2.4,Win32,60.89392279,61688d6c15deec9c3554760e,64d2fd46c836a06233681665,64dc7d10792e1824bf53d2cd,,,,,,,sngl,resources/DG.BMP,resources/Empty.png,Door4,-0.435185185,-0.052777778,1,0,0,0.6031,optionLeft,60,4575,2,43,0,43,0,1,,,,,,,,,,,,,,,,,,,,,,,,,,,,,,,,,,,,,,,
,,,,,,,,2023-08-16_08h43.48.481,HF_wild_card,2022.2.4,Win32,60.89392279,61688d6c15deec9c3554760e,64d2fd46c836a06233681665,64dc7d10792e1824bf53d2cd,,,,,,,,,,,,,,,,,,,,,,,,,,1,0,1,0,1,,,,,,,,,,,,,,,,,,,,,,,,,,,,,,,,,,
,,,,,,,,2023-08-16_08h43.48.481,HF_wild_card,2022.2.4,Win32,60.89392279,61688d6c15deec9c3554760e,64d2fd46c836a06233681665,64dc7d10792e1824bf53d2cd,,,,,,,decisionTrl,resources/DBN.BMP,resources/DY.BMP,WildCard_Ex,-0.412962963,-0.103703704,1,0,0,0.8508,optionLeft,95,4670,3,0,0,0,0,1,,,,,,,,,,,,,,,,,,,,,,,,,,,,,,,,,,,,,,,
,,,,,,,,2023-08-16_08h43.48.481,HF_wild_card,2022.2.4,Win32,60.89392279,61688d6c15deec9c3554760e,64d2fd46c836a06233681665,64dc7d10792e1824bf53d2cd,,,,,,,sngl,resources/Empty.png,resources/DB.BMP,Door2,0.393518519,-0.057407407,1,0,0,0.6514,optionRight,20,4690,3,1,0,1,0,1,,,,,,,,,,,,,,,,,,,,,,,,,,,,,,,,,,,,,,,
,,,,,,,,2023-08-16_08h43.48.481,HF_wild_card,2022.2.4,Win32,60.89392279,61688d6c15deec9c3554760e,64d2fd46c836a06233681665,64dc7d10792e1824bf53d2cd,,,,,,,decisionTrl,resources/DG.BMP,resources/DY.BMP,Door3,0.331481481,0.000925926,1,0,0,1.0625,optionRight,70,4760,3,2,0,2,0,1,,,,,,,,,,,,,,,,,,,,,,,,,,,,,,,,,,,,,,,
,,,,,,,,2023-08-16_08h43.48.481,HF_wild_card,2022.2.4,Win32,60.89392279,61688d6c15deec9c3554760e,64d2fd46c836a06233681665,64dc7d10792e1824bf53d2cd,,,,,,,decisionTrl,resources/DY.BMP,resources/DBN.BMP,WildCard_Ex,0.252777778,-0.030555556,1,0,0,0.9348,optionRight,5,4765,3,3,0,3,0,1,,,,,,,,,,,,,,,,,,,,,,,,,,,,,,,,,,,,,,,
,,,,,,,,2023-08-16_08h43.48.481,HF_wild_card,2022.2.4,Win32,60.89392279,61688d6c15deec9c3554760e,64d2fd46c836a06233681665,64dc7d10792e1824bf53d2cd,,,,,,,sngl,resources/DBN.BMP,resources/Empty.png,WildCard_Ex,-0.332407407,0.002777778,1,0,0,0.513,optionLeft,95,4860,3,4,0,4,0,1,,,,,,,,,,,,,,,,,,,,,,,,,,,,,,,,,,,,,,,
,,,,,,,,2023-08-16_08h43.48.481,HF_wild_card,2022.2.4,Win32,60.89392279,61688d6c15deec9c3554760e,64d2fd46c836a06233681665,64dc7d10792e1824bf53d2cd,,,,,,,decisionTrl,resources/DY.BMP,resources/DG.BMP,Door3,-0.324074074,-0.044444444,1,0,0,0.8024,optionLeft,70,4930,3,5,0,5,0,1,,,,,,,,,,,,,,,,,,,,,,,,,,,,,,,,,,,,,,,
,,,,,,,,2023-08-16_08h43.48.481,HF_wild_card,2022.2.4,Win32,60.89392279,61688d6c15deec9c3554760e,64d2fd46c836a06233681665,64dc7d10792e1824bf53d2cd,,,,,,,decisionTrl,resources/DBN.BMP,resources/DB.BMP,WildCard_Ex,-0.374074074,-0.017592593,1,0,0,0.6189,optionLeft,95,5025,3,6,0,6,0,1,,,,,,,,,,,,,,,,,,,,,,,,,,,,,,,,,,,,,,,
,,,,,,,,2023-08-16_08h43.48.481,HF_wild_card,2022.2.4,Win32,60.89392279,61688d6c15deec9c3554760e,64d2fd46c836a06233681665,64dc7d10792e1824bf53d2cd,,,,,,,sngl,resources/DG.BMP,resources/Empty.png,Door4,-0.386111111,-0.014814815,1,0,0,0.5816,optionLeft,80,5105,3,7,0,7,0,1,,,,,,,,,,,,,,,,,,,,,,,,,,,,,,,,,,,,,,,
,,,,,,,,2023-08-16_08h43.48.481,HF_wild_card,2022.2.4,Win32,60.89392279,61688d6c15deec9c3554760e,64d2fd46c836a06233681665,64dc7d10792e1824bf53d2cd,,,,,,,decisionTrl,resources/DB.BMP,resources/DR.BMP,Door2,-0.410185185,-0.017592593,1,0,0,1.0958,optionLeft,40,5145,3,8,0,8,0,1,,,,,,,,,,,,,,,,,,,,,,,,,,,,,,,,,,,,,,,
,,,,,,,,2023-08-16_08h43.48.481,HF_wild_card,2022.2.4,Win32,60.89392279,61688d6c15deec9c3554760e,64d2fd46c836a06233681665,64dc7d10792e1824bf53d2cd,,,,,,,sngl,resources/Empty.png,resources/DR.BMP,Door1,0.344444444,0.00462963,1,0,0,0.6662,optionRight,30,5175,3,9,0,9,0,1,,,,,,,,,,,,,,,,,,,,,,,,,,,,,,,,,,,,,,,
,,,,,,,,2023-08-16_08h43.48.481,HF_wild_card,2022.2.4,Win32,60.89392279,61688d6c15deec9c3554760e,64d2fd46c836a06233681665,64dc7d10792e1824bf53d2cd,,,,,,,decisionTrl,resources/DR.BMP,resources/DB.BMP,Door1,-0.360185185,-0.017592593,1,0,0,0.7119,optionLeft,30,5205,3,10,0,10,0,1,,,,,,,,,,,,,,,,,,,,,,,,,,,,,,,,,,,,,,,
,,,,,,,,2023-08-16_08h43.48.481,HF_wild_card,2022.2.4,Win32,60.89392279,61688d6c15deec9c3554760e,64d2fd46c836a06233681665,64dc7d10792e1824bf53d2cd,,,,,,,decisionTrl,resources/DB.BMP,resources/DR.BMP,Door2,-0.437962963,-0.035185185,1,0,0,0.8457,optionLeft,20,5225,3,11,0,11,0,1,,,,,,,,,,,,,,,,,,,,,,,,,,,,,,,,,,,,,,,
,,,,,,,,2023-08-16_08h43.48.481,HF_wild_card,2022.2.4,Win32,60.89392279,61688d6c15deec9c3554760e,64d2fd46c836a06233681665,64dc7d10792e1824bf53d2cd,,,,,,,sngl,resources/Empty.png,resources/DBN.BMP,WildCard_Ex,0.322222222,0.014814815,1,0,0,0.9471,optionRight,95,5320,3,12,0,12,0,1,,,,,,,,,,,,,,,,,,,,,,,,,,,,,,,,,,,,,,,
,,,,,,,,2023-08-16_08h43.48.481,HF_wild_card,2022.2.4,Win32,60.89392279,61688d6c15deec9c3554760e,64d2fd46c836a06233681665,64dc7d10792e1824bf53d2cd,,,,,,,sngl,resources/DY.BMP,resources/Empty.png,Door3,-0.423148148,-0.05,1,0,0,0.5259,optionLeft,70,5390,3,13,0,13,0,1,,,,,,,,,,,,,,,,,,,,,,,,,,,,,,,,,,,,,,,
,,,,,,,,2023-08-16_08h43.48.481,HF_wild_card,2022.2.4,Win32,60.89392279,61688d6c15deec9c3554760e,64d2fd46c836a06233681665,64dc7d10792e1824bf53d2cd,,,,,,,ctch,resources/DR.BMP,resources/DG.BMP,Door4,0.29537037,-0.037037037,1,0,0,1.2693,optionRight,60,5450,3,14,0,14,0,1,,,,,,,,,,,,,,,,,,,,,,,,,,,,,,,,,,,,,,,
,,,,,,,,2023-08-16_08h43.48.481,HF_wild_card,2022.2.4,Win32,60.89392279,61688d6c15deec9c3554760e,64d2fd46c836a06233681665,64dc7d10792e1824bf53d2cd,,,,,,,decisionTrl,resources/DG.BMP,resources/DY.BMP,Door4,-0.336111111,-0.02037037,1,0,0,0.8089,optionLeft,60,5510,3,15,0,15,0,1,,,,,,,,,,,,,,,,,,,,,,,,,,,,,,,,,,,,,,,
,,,,,,,,2023-08-16_08h43.48.481,HF_wild_card,2022.2.4,Win32,60.89392279,61688d6c15deec9c3554760e,64d2fd46c836a06233681665,64dc7d10792e1824bf53d2cd,,,,,,,decisionTrl,resources/DY.BMP,resources/DG.BMP,Door4,0.306481481,-0.006481481,1,0,0,0.8517,optionRight,60,5570,3,16,0,16,0,1,,,,,,,,,,,,,,,,,,,,,,,,,,,,,,,,,,,,,,,
,,,,,,,,2023-08-16_08h43.48.481,HF_wild_card,2022.2.4,Win32,60.89392279,61688d6c15deec9c3554760e,64d2fd46c836a06233681665,64dc7d10792e1824bf53d2cd,,,,,,,decisionTrl,resources/DY.BMP,resources/DG.BMP,Door3,-0.388888889,-0.031481481,1,0,0,0.5636,optionLeft,70,5640,3,17,0,17,0,1,,,,,,,,,,,,,,,,,,,,,,,,,,,,,,,,,,,,,,,
,,,,,,,,2023-08-16_08h43.48.481,HF_wild_card,2022.2.4,Win32,60.89392279,61688d6c15deec9c3554760e,64d2fd46c836a06233681665,64dc7d10792e1824bf53d2cd,,,,,,,sngl,resources/Empty.png,resources/DY.BMP,Door3,0.269444444,-0.05,1,0,0,0.5637,optionRight,70,5710,3,18,0,18,0,1,,,,,,,,,,,,,,,,,,,,,,,,,,,,,,,,,,,,,,,
,,,,,,,,2023-08-16_08h43.48.481,HF_wild_card,2022.2.4,Win32,60.89392279,61688d6c15deec9c3554760e,64d2fd46c836a06233681665,64dc7d10792e1824bf53d2cd,,,,,,,sngl,resources/Empty.png,resources/DBN.BMP,WildCard_Ex,0.25462963,0.006481481,1,0,0,0.7425,optionRight,5,5715,3,19,0,19,0,1,,,,,,,,,,,,,,,,,,,,,,,,,,,,,,,,,,,,,,,
,,,,,,,,2023-08-16_08h43.48.481,HF_wild_card,2022.2.4,Win32,60.89392279,61688d6c15deec9c3554760e,64d2fd46c836a06233681665,64dc7d10792e1824bf53d2cd,,,,,,,sngl,resources/DR.BMP,resources/Empty.png,Door1,-0.390740741,-0.024074074,1,0,0,0.542,optionLeft,30,5745,3,20,0,20,0,1,,,,,,,,,,,,,,,,,,,,,,,,,,,,,,,,,,,,,,,
,,,,,,,,2023-08-16_08h43.48.481,HF_wild_card,2022.2.4,Win32,60.89392279,61688d6c15deec9c3554760e,64d2fd46c836a06233681665,64dc7d10792e1824bf53d2cd,,,,,,,ctch,resources/DB.BMP,resources/DY.BMP,Door3,0.296296296,0.026851852,1,0,0,0.9467,optionRight,70,5815,3,21,0,21,0,1,,,,,,,,,,,,,,,,,,,,,,,,,,,,,,,,,,,,,,,
,,,,,,,,2023-08-16_08h43.48.481,HF_wild_card,2022.2.4,Win32,60.89392279,61688d6c15deec9c3554760e,64d2fd46c836a06233681665,64dc7d10792e1824bf53d2cd,,,,,,,ctch,resources/DG.BMP,resources/DR.BMP,Door4,-0.298148148,-0.019444444,1,0,0,0.6983,optionLeft,80,5895,3,22,0,22,0,1,,,,,,,,,,,,,,,,,,,,,,,,,,,,,,,,,,,,,,,
,,,,,,,,2023-08-16_08h43.48.481,HF_wild_card,2022.2.4,Win32,60.89392279,61688d6c15deec9c3554760e,64d2fd46c836a06233681665,64dc7d10792e1824bf53d2cd,,,,,,,decisionTrl,resources/DR.BMP,resources/DBN.BMP,Door1,-0.432407407,0.037962963,1,0,0,1.2465,optionLeft,30,5925,3,23,0,23,0,1,,,,,,,,,,,,,,,,,,,,,,,,,,,,,,,,,,,,,,,
,,,,,,,,2023-08-16_08h43.48.481,HF_wild_card,2022.2.4,Win32,60.89392279,61688d6c15deec9c3554760e,64d2fd46c836a06233681665,64dc7d10792e1824bf53d2cd,,,,,,,decisionTrl,resources/DBN.BMP,resources/DR.BMP,WildCard_Ex,-0.336111111,0.017592593,1,0,0,0.5647,optionLeft,95,6020,3,24,0,24,0,1,,,,,,,,,,,,,,,,,,,,,,,,,,,,,,,,,,,,,,,
,,,,,,,,2023-08-16_08h43.48.481,HF_wild_card,2022.2.4,Win32,60.89392279,61688d6c15deec9c3554760e,64d2fd46c836a06233681665,64dc7d10792e1824bf53d2cd,,,,,,,decisionTrl,resources/DG.BMP,resources/DY.BMP,Door4,-0.3,-0.013888889,1,0,0,0.6814,optionLeft,80,6100,3,25,0,25,0,1,,,,,,,,,,,,,,,,,,,,,,,,,,,,,,,,,,,,,,,
,,,,,,,,2023-08-16_08h43.48.481,HF_wild_card,2022.2.4,Win32,60.89392279,61688d6c15deec9c3554760e,64d2fd46c836a06233681665,64dc7d10792e1824bf53d2cd,,,,,,,ctch,resources/DY.BMP,resources/DB.BMP,Door3,-0.356481481,-0.031481481,1,0,0,0.7809,optionLeft,70,6170,3,26,0,26,0,1,,,,,,,,,,,,,,,,,,,,,,,,,,,,,,,,,,,,,,,
,,,,,,,,2023-08-16_08h43.48.481,HF_wild_card,2022.2.4,Win32,60.89392279,61688d6c15deec9c3554760e,64d2fd46c836a06233681665,64dc7d10792e1824bf53d2cd,,,,,,,decisionTrl,resources/DB.BMP,resources/DR.BMP,Door1,0.308333333,0.006481481,1,0,0,1.4641,optionRight,30,6200,3,27,0,27,0,1,,,,,,,,,,,,,,,,,,,,,,,,,,,,,,,,,,,,,,,
,,,,,,,,2023-08-16_08h43.48.481,HF_wild_card,2022.2.4,Win32,60.89392279,61688d6c15deec9c3554760e,64d2fd46c836a06233681665,64dc7d10792e1824bf53d2cd,,,,,,,ctch,resources/DB.BMP,resources/DY.BMP,Door3,0.342592593,-0.028703704,1,0,0,0.7428,optionRight,70,6270,3,28,0,28,0,1,,,,,,,,,,,,,,,,,,,,,,,,,,,,,,,,,,,,,,,
,,,,,,,,2023-08-16_08h43.48.481,HF_wild_card,2022.2.4,Win32,60.89392279,61688d6c15deec9c3554760e,64d2fd46c836a06233681665,64dc7d10792e1824bf53d2cd,,,,,,,decisionTrl,resources/DG.BMP,resources/DBN.BMP,Door4,-0.337037037,0.017592593,1,0,0,1.1281,optionLeft,60,6330,3,29,0,29,0,1,,,,,,,,,,,,,,,,,,,,,,,,,,,,,,,,,,,,,,,
,,,,,,,,2023-08-16_08h43.48.481,HF_wild_card,2022.2.4,Win32,60.89392279,61688d6c15deec9c3554760e,64d2fd46c836a06233681665,64dc7d10792e1824bf53d2cd,,,,,,,ctch,resources/DR.BMP,resources/DG.BMP,Door4,0.307407407,0.001851852,1,0,0,0.7648,optionRight,80,6410,3,30,0,30,0,1,,,,,,,,,,,,,,,,,,,,,,,,,,,,,,,,,,,,,,,
,,,,,,,,2023-08-16_08h43.48.481,HF_wild_card,2022.2.4,Win32,60.89392279,61688d6c15deec9c3554760e,64d2fd46c836a06233681665,64dc7d10792e1824bf53d2cd,,,,,,,decisionTrl,resources/DY.BMP,resources/DG.BMP,Door4,0.463888889,0.061111111,1,0,0,2.1304,optionRight,60,6470,3,31,0,31,0,1,,,,,,,,,,,,,,,,,,,,,,,,,,,,,,,,,,,,,,,
,,,,,,,,2023-08-16_08h43.48.481,HF_wild_card,2022.2.4,Win32,60.89392279,61688d6c15deec9c3554760e,64d2fd46c836a06233681665,64dc7d10792e1824bf53d2cd,,,,,,,decisionTrl,resources/DB.BMP,resources/DBN.BMP,WildCard_Ex,0.317592593,0.04537037,1,0,0,0.947,optionRight,5,6475,3,32,0,32,0,1,,,,,,,,,,,,,,,,,,,,,,,,,,,,,,,,,,,,,,,
,,,,,,,,2023-08-16_08h43.48.481,HF_wild_card,2022.2.4,Win32,60.89392279,61688d6c15deec9c3554760e,64d2fd46c836a06233681665,64dc7d10792e1824bf53d2cd,,,,,,,sngl,resources/DB.BMP,resources/Empty.png,Door2,-0.327777778,-0.006481481,1,0,0,0.4478,optionLeft,40,6515,3,33,0,33,0,1,,,,,,,,,,,,,,,,,,,,,,,,,,,,,,,,,,,,,,,
,,,,,,,,2023-08-16_08h43.48.481,HF_wild_card,2022.2.4,Win32,60.89392279,61688d6c15deec9c3554760e,64d2fd46c836a06233681665,64dc7d10792e1824bf53d2cd,,,,,,,decisionTrl,resources/DR.BMP,resources/DB.BMP,Door1,-0.34537037,0,1,0,0,0.9809,optionLeft,30,6545,3,34,0,34,0,1,,,,,,,,,,,,,,,,,,,,,,,,,,,,,,,,,,,,,,,
,,,,,,,,2023-08-16_08h43.48.481,HF_wild_card,2022.2.4,Win32,60.89392279,61688d6c15deec9c3554760e,64d2fd46c836a06233681665,64dc7d10792e1824bf53d2cd,,,,,,,decisionTrl,resources/DBN.BMP,resources/DG.BMP,WildCard_Ex,-0.373148148,-0.018518519,1,0,0,0.6645,optionLeft,95,6640,3,35,0,35,0,1,,,,,,,,,,,,,,,,,,,,,,,,,,,,,,,,,,,,,,,
,,,,,,,,2023-08-16_08h43.48.481,HF_wild_card,2022.2.4,Win32,60.89392279,61688d6c15deec9c3554760e,64d2fd46c836a06233681665,64dc7d10792e1824bf53d2cd,,,,,,,decisionTrl,resources/DB.BMP,resources/DR.BMP,Door1,0.288888889,-0.014814815,1,0,0,1.0147,optionRight,30,6670,3,36,0,36,0,1,,,,,,,,,,,,,,,,,,,,,,,,,,,,,,,,,,,,,,,
,,,,,,,,2023-08-16_08h43.48.481,HF_wild_card,2022.2.4,Win32,60.89392279,61688d6c15deec9c3554760e,64d2fd46c836a06233681665,64dc7d10792e1824bf53d2cd,,,,,,,ctch,resources/DG.BMP,resources/DR.BMP,Door4,-0.331481481,0.015740741,1,0,0,1.412,optionLeft,60,6730,3,37,0,37,0,1,,,,,,,,,,,,,,,,,,,,,,,,,,,,,,,,,,,,,,,
,,,,,,,,2023-08-16_08h43.48.481,HF_wild_card,2022.2.4,Win32,60.89392279,61688d6c15deec9c3554760e,64d2fd46c836a06233681665,64dc7d10792e1824bf53d2cd,,,,,,,sngl,resources/Empty.png,resources/DG.BMP,Door4,0.397222222,-0.031481481,1,0,0,0.6295,optionRight,60,6790,3,38,0,38,0,1,,,,,,,,,,,,,,,,,,,,,,,,,,,,,,,,,,,,,,,
,,,,,,,,2023-08-16_08h43.48.481,HF_wild_card,2022.2.4,Win32,60.89392279,61688d6c15deec9c3554760e,64d2fd46c836a06233681665,64dc7d10792e1824bf53d2cd,,,,,,,decisionTrl,resources/DR.BMP,resources/DB.BMP,Door1,-0.333333333,0.024074074,1,0,0,0.997,optionLeft,30,6820,3,39,0,39,0,1,,,,,,,,,,,,,,,,,,,,,,,,,,,,,,,,,,,,,,,
,,,,,,,,2023-08-16_08h43.48.481,HF_wild_card,2022.2.4,Win32,60.89392279,61688d6c15deec9c3554760e,64d2fd46c836a06233681665,64dc7d10792e1824bf53d2cd,,,,,,,ctch,resources/DY.BMP,resources/DB.BMP,Door3,-0.342592593,-0.013888889,1,0,0,0.7486,optionLeft,70,6890,3,40,0,40,0,1,,,,,,,,,,,,,,,,,,,,,,,,,,,,,,,,,,,,,,,
,,,,,,,,2023-08-16_08h43.48.481,HF_wild_card,2022.2.4,Win32,60.89392279,61688d6c15deec9c3554760e,64d2fd46c836a06233681665,64dc7d10792e1824bf53d2cd,,,,,,,sngl,resources/DBN.BMP,resources/Empty.png,WildCard_Ex,-0.478703704,-0.043518519,1,0,0,0.7819,optionLeft,5,6895,3,41,0,41,0,1,,,,,,,,,,,,,,,,,,,,,,,,,,,,,,,,,,,,,,,
,,,,,,,,2023-08-16_08h43.48.481,HF_wild_card,2022.2.4,Win32,60.89392279,61688d6c15deec9c3554760e,64d2fd46c836a06233681665,64dc7d10792e1824bf53d2cd,,,,,,,decisionTrl,resources/DG.BMP,resources/DY.BMP,Door3,0.276851852,-0.00462963,1,0,0,0.9812,optionRight,70,6965,3,42,0,42,0,1,,,,,,,,,,,,,,,,,,,,,,,,,,,,,,,,,,,,,,,
,,,,,,,,2023-08-16_08h43.48.481,HF_wild_card,2022.2.4,Win32,60.89392279,61688d6c15deec9c3554760e,64d2fd46c836a06233681665,64dc7d10792e1824bf53d2cd,,,,,,,decisionTrl,resources/DR.BMP,resources/DB.BMP,Door1,-0.312037037,-0.007407407,1,0,0,0.6158,optionLeft,30,6995,3,43,0,43,0,1,,,,,,,,,,,,,,,,,,,,,,,,,,,,,,,,,,,,,,,
,,,,,,,,2023-08-16_08h43.48.481,HF_wild_card,2022.2.4,Win32,60.89392279,61688d6c15deec9c3554760e,64d2fd46c836a06233681665,64dc7d10792e1824bf53d2cd,,,,,,,,,,,,,,,,,,,,,,,,,,2,0,2,0,1,,,,,,,,,,,,,,,,,,,,,,,,,,,,,,,,,,
,,,,,,,,2023-08-16_08h43.48.481,HF_wild_card,2022.2.4,Win32,60.89392279,61688d6c15deec9c3554760e,64d2fd46c836a06233681665,64dc7d10792e1824bf53d2cd,,,,,,,decisionTrl,resources/DB.BMP,resources/DR.BMP,Door2,-0.241666667,-0.112962963,1,0,0,2.5167,optionLeft,20,7015,4,0,0,0,0,1,,,,,,,,,,,,,,,,,,,,,,,,,,,,,,,,,,,,,,,
,,,,,,,,2023-08-16_08h43.48.481,HF_wild_card,2022.2.4,Win32,60.89392279,61688d6c15deec9c3554760e,64d2fd46c836a06233681665,64dc7d10792e1824bf53d2cd,,,,,,,decisionTrl,resources/DP.BMP,resources/DY.BMP,WildCard_NonEx,-0.341666667,-0.047222222,1,0,0,1.1311,optionLeft,45,7060,4,1,0,1,0,1,,,,,,,,,,,,,,,,,,,,,,,,,,,,,,,,,,,,,,,
,,,,,,,,2023-08-16_08h43.48.481,HF_wild_card,2022.2.4,Win32,60.89392279,61688d6c15deec9c3554760e,64d2fd46c836a06233681665,64dc7d10792e1824bf53d2cd,,,,,,,decisionTrl,resources/DG.BMP,resources/DY.BMP,Door3,0.387037037,-0.025,1,0,0,0.7149,optionRight,70,7130,4,2,0,2,0,1,,,,,,,,,,,,,,,,,,,,,,,,,,,,,,,,,,,,,,,
,,,,,,,,2023-08-16_08h43.48.481,HF_wild_card,2022.2.4,Win32,60.89392279,61688d6c15deec9c3554760e,64d2fd46c836a06233681665,64dc7d10792e1824bf53d2cd,,,,,,,ctch,resources/DG.BMP,resources/DR.BMP,Door4,-0.313888889,-0.015740741,1,0,0,0.7979,optionLeft,60,7190,4,3,0,3,0,1,,,,,,,,,,,,,,,,,,,,,,,,,,,,,,,,,,,,,,,
,,,,,,,,2023-08-16_08h43.48.481,HF_wild_card,2022.2.4,Win32,60.89392279,61688d6c15deec9c3554760e,64d2fd46c836a06233681665,64dc7d10792e1824bf53d2cd,,,,,,,decisionTrl,resources/DB.BMP,resources/DR.BMP,Door2,-0.271296296,-0.022222222,1,0,0,0.8815,optionLeft,40,7230,4,4,0,4,0,1,,,,,,,,,,,,,,,,,,,,,,,,,,,,,,,,,,,,,,,
,,,,,,,,2023-08-16_08h43.48.481,HF_wild_card,2022.2.4,Win32,60.89392279,61688d6c15deec9c3554760e,64d2fd46c836a06233681665,64dc7d10792e1824bf53d2cd,,,,,,,ctch,resources/DB.BMP,resources/DY.BMP,Door3,0.378703704,-0.014814815,1,0,0,0.7144,optionRight,70,7300,4,5,0,5,0,1,,,,,,,,,,,,,,,,,,,,,,,,,,,,,,,,,,,,,,,
,,,,,,,,2023-08-16_08h43.48.481,HF_wild_card,2022.2.4,Win32,60.89392279,61688d6c15deec9c3554760e,64d2fd46c836a06233681665,64dc7d10792e1824bf53d2cd,,,,,,,decisionTrl,resources/DB.BMP,resources/DR.BMP,Door1,0.277777778,-0.008333333,1,0,0,0.7807,optionRight,30,7330,4,6,0,6,0,1,,,,,,,,,,,,,,,,,,,,,,,,,,,,,,,,,,,,,,,
,,,,,,,,2023-08-16_08h43.48.481,HF_wild_card,2022.2.4,Win32,60.89392279,61688d6c15deec9c3554760e,64d2fd46c836a06233681665,64dc7d10792e1824bf53d2cd,,,,,,,decisionTrl,resources/DY.BMP,resources/DG.BMP,Door3,-0.315740741,-0.032407407,1,0,0,0.7987,optionLeft,70,7400,4,7,0,7,0,1,,,,,,,,,,,,,,,,,,,,,,,,,,,,,,,,,,,,,,,
,,,,,,,,2023-08-16_08h43.48.481,HF_wild_card,2022.2.4,Win32,60.89392279,61688d6c15deec9c3554760e,64d2fd46c836a06233681665,64dc7d10792e1824bf53d2cd,,,,,,,sngl,resources/DB.BMP,resources/Empty.png,Door2,-0.444444444,-0.04537037,1,0,0,0.5983,optionLeft,20,7420,4,8,0,8,0,1,,,,,,,,,,,,,,,,,,,,,,,,,,,,,,,,,,,,,,,
,,,,,,,,2023-08-16_08h43.48.481,HF_wild_card,2022.2.4,Win32,60.89392279,61688d6c15deec9c3554760e,64d2fd46c836a06233681665,64dc7d10792e1824bf53d2cd,,,,,,,decisionTrl,resources/DG.BMP,resources/DP.BMP,Door4,-0.314814815,-0.010185185,1,0,0,1.1086,optionLeft,80,7500,4,9,0,9,0,1,,,,,,,,,,,,,,,,,,,,,,,,,,,,,,,,,,,,,,,
,,,,,,,,2023-08-16_08h43.48.481,HF_wild_card,2022.2.4,Win32,60.89392279,61688d6c15deec9c3554760e,64d2fd46c836a06233681665,64dc7d10792e1824bf53d2cd,,,,,,,decisionTrl,resources/DR.BMP,resources/DB.BMP,Door1,-0.360185185,-0.061111111,1,0,0,0.7316,optionLeft,30,7530,4,10,0,10,0,1,,,,,,,,,,,,,,,,,,,,,,,,,,,,,,,,,,,,,,,
,,,,,,,,2023-08-16_08h43.48.481,HF_wild_card,2022.2.4,Win32,60.89392279,61688d6c15deec9c3554760e,64d2fd46c836a06233681665,64dc7d10792e1824bf53d2cd,,,,,,,sngl,resources/Empty.png,resources/DR.BMP,Door1,0.32037037,0.00462963,1,0,0,0.5478,optionRight,30,7560,4,11,0,11,0,1,,,,,,,,,,,,,,,,,,,,,,,,,,,,,,,,,,,,,,,
,,,,,,,,2023-08-16_08h43.48.481,HF_wild_card,2022.2.4,Win32,60.89392279,61688d6c15deec9c3554760e,64d2fd46c836a06233681665,64dc7d10792e1824bf53d2cd,,,,,,,decisionTrl,resources/DG.BMP,resources/DY.BMP,Door4,-0.32037037,-0.02962963,1,0,0,0.679,optionLeft,80,7640,4,12,0,12,0,1,,,,,,,,,,,,,,,,,,,,,,,,,,,,,,,,,,,,,,,
,,,,,,,,2023-08-16_08h43.48.481,HF_wild_card,2022.2.4,Win32,60.89392279,61688d6c15deec9c3554760e,64d2fd46c836a06233681665,64dc7d10792e1824bf53d2cd,,,,,,,decisionTrl,resources/DR.BMP,resources/DB.BMP,Door1,-0.344444444,-0.037962963,1,0,0,0.7976,optionLeft,30,7670,4,13,0,13,0,1,,,,,,,,,,,,,,,,,,,,,,,,,,,,,,,,,,,,,,,
,,,,,,,,2023-08-16_08h43.48.481,HF_wild_card,2022.2.4,Win32,60.89392279,61688d6c15deec9c3554760e,64d2fd46c836a06233681665,64dc7d10792e1824bf53d2cd,,,,,,,decisionTrl,resources/DG.BMP,resources/DY.BMP,Door4,-0.287962963,-0.005555556,1,0,0,1.5802,optionLeft,60,7730,4,14,0,14,0,1,,,,,,,,,,,,,,,,,,,,,,,,,,,,,,,,,,,,,,,
,,,,,,,,2023-08-16_08h43.48.481,HF_wild_card,2022.2.4,Win32,60.89392279,61688d6c15deec9c3554760e,64d2fd46c836a06233681665,64dc7d10792e1824bf53d2cd,,,,,,,sngl,resources/Empty.png,resources/DG.BMP,Door4,0.366666667,0.049074074,1,0,0,0.565,optionRight,80,7810,4,15,0,15,0,1,,,,,,,,,,,,,,,,,,,,,,,,,,,,,,,,,,,,,,,
,,,,,,,,2023-08-16_08h43.48.481,HF_wild_card,2022.2.4,Win32,60.89392279,61688d6c15deec9c3554760e,64d2fd46c836a06233681665,64dc7d10792e1824bf53d2cd,,,,,,,decisionTrl,resources/DP.BMP,resources/DR.BMP,WildCard_NonEx,-0.338888889,-0.044444444,1,0,0,1.3804,optionLeft,45,7855,4,16,0,16,0,1,,,,,,,,,,,,,,,,,,,,,,,,,,,,,,,,,,,,,,,
,,,,,,,,2023-08-16_08h43.48.481,HF_wild_card,2022.2.4,Win32,60.89392279,61688d6c15deec9c3554760e,64d2fd46c836a06233681665,64dc7d10792e1824bf53d2cd,,,,,,,sngl,resources/DP.BMP,resources/Empty.png,WildCard_NonEx,-0.416666667,-0.099074074,1,0,0,0.5811,optionLeft,55,7910,4,17,0,17,0,1,,,,,,,,,,,,,,,,,,,,,,,,,,,,,,,,,,,,,,,
,,,,,,,,2023-08-16_08h43.48.481,HF_wild_card,2022.2.4,Win32,60.89392279,61688d6c15deec9c3554760e,64d2fd46c836a06233681665,64dc7d10792e1824bf53d2cd,,,,,,,decisionTrl,resources/DB.BMP,resources/DP.BMP,WildCard_NonEx,0.32962963,0.001851852,1,0,0,1.1141,optionRight,45,7955,4,18,0,18,0,1,,,,,,,,,,,,,,,,,,,,,,,,,,,,,,,,,,,,,,,
,,,,,,,,2023-08-16_08h43.48.481,HF_wild_card,2022.2.4,Win32,60.89392279,61688d6c15deec9c3554760e,64d2fd46c836a06233681665,64dc7d10792e1824bf53d2cd,,,,,,,decisionTrl,resources/DP.BMP,resources/DB.BMP,WildCard_NonEx,-0.359259259,-0.067592593,1,0,0,1.0971,optionLeft,45,8000,4,19,0,19,0,1,,,,,,,,,,,,,,,,,,,,,,,,,,,,,,,,,,,,,,,
,,,,,,,,2023-08-16_08h43.48.481,HF_wild_card,2022.2.4,Win32,60.89392279,61688d6c15deec9c3554760e,64d2fd46c836a06233681665,64dc7d10792e1824bf53d2cd,,,,,,,decisionTrl,resources/DY.BMP,resources/DG.BMP,Door4,0.263888889,0.025925926,1,0,0,1.2193,optionRight,60,8060,4,20,0,20,0,1,,,,,,,,,,,,,,,,,,,,,,,,,,,,,,,,,,,,,,,
,,,,,,,,2023-08-16_08h43.48.481,HF_wild_card,2022.2.4,Win32,60.89392279,61688d6c15deec9c3554760e,64d2fd46c836a06233681665,64dc7d10792e1824bf53d2cd,,,,,,,ctch,resources/DG.BMP,resources/DR.BMP,Door4,-0.314814815,-0.026851852,1,0,0,0.6641,optionLeft,60,8120,4,21,0,21,0,1,,,,,,,,,,,,,,,,,,,,,,,,,,,,,,,,,,,,,,,
,,,,,,,,2023-08-16_08h43.48.481,HF_wild_card,2022.2.4,Win32,60.89392279,61688d6c15deec9c3554760e,64d2fd46c836a06233681665,64dc7d10792e1824bf53d2cd,,,,,,,decisionTrl,resources/DR.BMP,resources/DB.BMP,Door1,-0.374074074,-0.02962963,1,0,0,1.0819,optionLeft,30,8150,4,22,0,22,0,1,,,,,,,,,,,,,,,,,,,,,,,,,,,,,,,,,,,,,,,
,,,,,,,,2023-08-16_08h43.48.481,HF_wild_card,2022.2.4,Win32,60.89392279,61688d6c15deec9c3554760e,64d2fd46c836a06233681665,64dc7d10792e1824bf53d2cd,,,,,,,decisionTrl,resources/DY.BMP,resources/DP.BMP,Door3,-0.376851852,-0.036111111,1,0,0,0.9749,optionLeft,70,8220,4,23,0,23,0,1,,,,,,,,,,,,,,,,,,,,,,,,,,,,,,,,,,,,,,,
,,,,,,,,2023-08-16_08h43.48.481,HF_wild_card,2022.2.4,Win32,60.89392279,61688d6c15deec9c3554760e,64d2fd46c836a06233681665,64dc7d10792e1824bf53d2cd,,,,,,,decisionTrl,resources/DG.BMP,resources/DY.BMP,Door3,0.315740741,-0.013888889,1,0,0,0.8305,optionRight,70,8290,4,24,0,24,0,1,,,,,,,,,,,,,,,,,,,,,,,,,,,,,,,,,,,,,,,
,,,,,,,,2023-08-16_08h43.48.481,HF_wild_card,2022.2.4,Win32,60.89392279,61688d6c15deec9c3554760e,64d2fd46c836a06233681665,64dc7d10792e1824bf53d2cd,,,,,,,sngl,resources/Empty.png,resources/DP.BMP,WildCard_NonEx,0.352777778,-0.027777778,1,0,0,0.5972,optionRight,55,8345,4,25,0,25,0,1,,,,,,,,,,,,,,,,,,,,,,,,,,,,,,,,,,,,,,,
,,,,,,,,2023-08-16_08h43.48.481,HF_wild_card,2022.2.4,Win32,60.89392279,61688d6c15deec9c3554760e,64d2fd46c836a06233681665,64dc7d10792e1824bf53d2cd,,,,,,,decisionTrl,resources/DB.BMP,resources/DR.BMP,Door2,-0.362037037,-0.043518519,1,0,0,1.1474,optionLeft,20,8365,4,26,0,26,0,1,,,,,,,,,,,,,,,,,,,,,,,,,,,,,,,,,,,,,,,
,,,,,,,,2023-08-16_08h43.48.481,HF_wild_card,2022.2.4,Win32,60.89392279,61688d6c15deec9c3554760e,64d2fd46c836a06233681665,64dc7d10792e1824bf53d2cd,,,,,,,decisionTrl,resources/DP.BMP,resources/DG.BMP,Door4,0.384259259,-0.00462963,1,0,0,1.1915,optionRight,80,8445,4,27,0,27,0,1,,,,,,,,,,,,,,,,,,,,,,,,,,,,,,,,,,,,,,,
,,,,,,,,2023-08-16_08h43.48.481,HF_wild_card,2022.2.4,Win32,60.89392279,61688d6c15deec9c3554760e,64d2fd46c836a06233681665,64dc7d10792e1824bf53d2cd,,,,,,,decisionTrl,resources/DR.BMP,resources/DB.BMP,Door2,0.291666667,-0.040740741,1,0,0,0.9148,optionRight,20,8465,4,28,0,28,0,1,,,,,,,,,,,,,,,,,,,,,,,,,,,,,,,,,,,,,,,
,,,,,,,,2023-08-16_08h43.48.481,HF_wild_card,2022.2.4,Win32,60.89392279,61688d6c15deec9c3554760e,64d2fd46c836a06233681665,64dc7d10792e1824bf53d2cd,,,,,,,ctch,resources/DB.BMP,resources/DY.BMP,Door3,0.3,-0.027777778,1,0,0,1.0312,optionRight,70,8535,4,29,0,29,0,1,,,,,,,,,,,,,,,,,,,,,,,,,,,,,,,,,,,,,,,
,,,,,,,,2023-08-16_08h43.48.481,HF_wild_card,2022.2.4,Win32,60.89392279,61688d6c15deec9c3554760e,64d2fd46c836a06233681665,64dc7d10792e1824bf53d2cd,,,,,,,decisionTrl,resources/DR.BMP,resources/DP.BMP,WildCard_NonEx,0.362037037,0.02037037,1,0,0,1.5319,optionRight,45,8580,4,30,0,30,0,1,,,,,,,,,,,,,,,,,,,,,,,,,,,,,,,,,,,,,,,
,,,,,,,,2023-08-16_08h43.48.481,HF_wild_card,2022.2.4,Win32,60.89392279,61688d6c15deec9c3554760e,64d2fd46c836a06233681665,64dc7d10792e1824bf53d2cd,,,,,,,sngl,resources/DG.BMP,resources/Empty.png,Door4,-0.322222222,-0.015740741,1,0,0,0.5483,optionLeft,60,8640,4,31,0,31,0,1,,,,,,,,,,,,,,,,,,,,,,,,,,,,,,,,,,,,,,,
,,,,,,,,2023-08-16_08h43.48.481,HF_wild_card,2022.2.4,Win32,60.89392279,61688d6c15deec9c3554760e,64d2fd46c836a06233681665,64dc7d10792e1824bf53d2cd,,,,,,,sngl,resources/DR.BMP,resources/Empty.png,Door1,-0.337037037,-0.108333333,1,0,0,0.5483,optionLeft,30,8670,4,32,0,32,0,1,,,,,,,,,,,,,,,,,,,,,,,,,,,,,,,,,,,,,,,
,,,,,,,,2023-08-16_08h43.48.481,HF_wild_card,2022.2.4,Win32,60.89392279,61688d6c15deec9c3554760e,64d2fd46c836a06233681665,64dc7d10792e1824bf53d2cd,,,,,,,sngl,resources/DP.BMP,resources/Empty.png,WildCard_NonEx,-0.35,-0.076851852,1,0,0,0.5322,optionLeft,45,8715,4,33,0,33,0,1,,,,,,,,,,,,,,,,,,,,,,,,,,,,,,,,,,,,,,,
,,,,,,,,2023-08-16_08h43.48.481,HF_wild_card,2022.2.4,Win32,60.89392279,61688d6c15deec9c3554760e,64d2fd46c836a06233681665,64dc7d10792e1824bf53d2cd,,,,,,,decisionTrl,resources/DY.BMP,resources/DG.BMP,Door3,-0.372222222,-0.132407407,1,0,0,2.6301,optionLeft,70,8785,4,34,0,34,0,1,,,,,,,,,,,,,,,,,,,,,,,,,,,,,,,,,,,,,,,
,,,,,,,,2023-08-16_08h43.48.481,HF_wild_card,2022.2.4,Win32,60.89392279,61688d6c15deec9c3554760e,64d2fd46c836a06233681665,64dc7d10792e1824bf53d2cd,,,,,,,ctch,resources/DR.BMP,resources/DG.BMP,Door4,0.292592593,-0.018518519,1,0,0,0.9746,optionRight,80,8865,4,35,0,35,0,1,,,,,,,,,,,,,,,,,,,,,,,,,,,,,,,,,,,,,,,
,,,,,,,,2023-08-16_08h43.48.481,HF_wild_card,2022.2.4,Win32,60.89392279,61688d6c15deec9c3554760e,64d2fd46c836a06233681665,64dc7d10792e1824bf53d2cd,,,,,,,sngl,resources/DY.BMP,resources/Empty.png,Door3,-0.351851852,-0.026851852,1,0,0,0.5141,optionLeft,70,8935,4,36,0,36,0,1,,,,,,,,,,,,,,,,,,,,,,,,,,,,,,,,,,,,,,,
,,,,,,,,2023-08-16_08h43.48.481,HF_wild_card,2022.2.4,Win32,60.89392279,61688d6c15deec9c3554760e,64d2fd46c836a06233681665,64dc7d10792e1824bf53d2cd,,,,,,,ctch,resources/DY.BMP,resources/DB.BMP,Door3,-0.3,-0.05462963,1,0,0,0.7481,optionLeft,70,9005,4,37,0,37,0,1,,,,,,,,,,,,,,,,,,,,,,,,,,,,,,,,,,,,,,,
,,,,,,,,2023-08-16_08h43.48.481,HF_wild_card,2022.2.4,Win32,60.89392279,61688d6c15deec9c3554760e,64d2fd46c836a06233681665,64dc7d10792e1824bf53d2cd,,,,,,,ctch,resources/DY.BMP,resources/DB.BMP,Door3,-0.456481481,-0.072222222,1,0,0,0.715,optionLeft,70,9075,4,38,0,38,0,1,,,,,,,,,,,,,,,,,,,,,,,,,,,,,,,,,,,,,,,
,,,,,,,,2023-08-16_08h43.48.481,HF_wild_card,2022.2.4,Win32,60.89392279,61688d6c15deec9c3554760e,64d2fd46c836a06233681665,64dc7d10792e1824bf53d2cd,,,,,,,ctch,resources/DR.BMP,resources/DG.BMP,Door4,0.359259259,0.053703704,1,0,0,0.8199,optionRight,80,9155,4,39,0,39,0,1,,,,,,,,,,,,,,,,,,,,,,,,,,,,,,,,,,,,,,,
,,,,,,,,2023-08-16_08h43.48.481,HF_wild_card,2022.2.4,Win32,60.89392279,61688d6c15deec9c3554760e,64d2fd46c836a06233681665,64dc7d10792e1824bf53d2cd,,,,,,,sngl,resources/Empty.png,resources/DB.BMP,Door2,0.326851852,0.043518519,1,0,0,0.5461,optionRight,40,9195,4,40,0,40,0,1,,,,,,,,,,,,,,,,,,,,,,,,,,,,,,,,,,,,,,,
,,,,,,,,2023-08-16_08h43.48.481,HF_wild_card,2022.2.4,Win32,60.89392279,61688d6c15deec9c3554760e,64d2fd46c836a06233681665,64dc7d10792e1824bf53d2cd,,,,,,,sngl,resources/Empty.png,resources/DY.BMP,Door3,0.373148148,0.019444444,1,0,0,0.5451,optionRight,70,9265,4,41,0,41,0,1,,,,,,,,,,,,,,,,,,,,,,,,,,,,,,,,,,,,,,,
,,,,,,,,2023-08-16_08h43.48.481,HF_wild_card,2022.2.4,Win32,60.89392279,61688d6c15deec9c3554760e,64d2fd46c836a06233681665,64dc7d10792e1824bf53d2cd,,,,,,,sngl,resources/Empty.png,resources/DP.BMP,WildCard_NonEx,0.280555556,0.006481481,1,0,0,0.5983,optionRight,45,9310,4,42,0,42,0,1,,,,,,,,,,,,,,,,,,,,,,,,,,,,,,,,,,,,,,,
,,,,,,,,2023-08-16_08h43.48.481,HF_wild_card,2022.2.4,Win32,60.89392279,61688d6c15deec9c3554760e,64d2fd46c836a06233681665,64dc7d10792e1824bf53d2cd,,,,,,,decisionTrl,resources/DY.BMP,resources/DG.BMP,Door3,-0.289814815,0.000925926,1,0,0,1.1643,optionLeft,70,9380,4,43,0,43,0,1,,,,,,,,,,,,,,,,,,,,,,,,,,,,,,,,,,,,,,,
,,,,,,,,2023-08-16_08h43.48.481,HF_wild_card,2022.2.4,Win32,60.89392279,61688d6c15deec9c3554760e,64d2fd46c836a06233681665,64dc7d10792e1824bf53d2cd,,,,,,,,,,,,,,,,,,,,,,,,,,3,0,3,0,1,,,,,,,,,,,,,,,,,,,,,,,,,,,,,,,,,,
,,,,,,,,2023-08-16_08h43.48.481,HF_wild_card,2022.2.4,Win32,60.89392279,61688d6c15deec9c3554760e,64d2fd46c836a06233681665,64dc7d10792e1824bf53d2cd,,,,,,,ctch,resources/DG.BMP,resources/DR.BMP,Door4,-0.366666667,-0.1,1,0,0,1.4812,optionLeft,60,9440,5,0,0,0,0,1,,,,,,,,,,,,,,,,,,,,,,,,,,,,,,,,,,,,,,,
,,,,,,,,2023-08-16_08h43.48.481,HF_wild_card,2022.2.4,Win32,60.89392279,61688d6c15deec9c3554760e,64d2fd46c836a06233681665,64dc7d10792e1824bf53d2cd,,,,,,,sngl,resources/Empty.png,resources/DP.BMP,WildCard_NonEx,0.42037037,0.031481481,1,0,0,0.5472,optionRight,55,9495,5,1,0,1,0,1,,,,,,,,,,,,,,,,,,,,,,,,,,,,,,,,,,,,,,,
,,,,,,,,2023-08-16_08h43.48.481,HF_wild_card,2022.2.4,Win32,60.89392279,61688d6c15deec9c3554760e,64d2fd46c836a06233681665,64dc7d10792e1824bf53d2cd,,,,,,,ctch,resources/DY.BMP,resources/DB.BMP,Door3,-0.313888889,-0.018518519,1,0,0,0.7144,optionLeft,70,9565,5,2,0,2,0,1,,,,,,,,,,,,,,,,,,,,,,,,,,,,,,,,,,,,,,,
,,,,,,,,2023-08-16_08h43.48.481,HF_wild_card,2022.2.4,Win32,60.89392279,61688d6c15deec9c3554760e,64d2fd46c836a06233681665,64dc7d10792e1824bf53d2cd,,,,,,,decisionTrl,resources/DY.BMP,resources/DG.BMP,Door3,-0.381481481,-0.038888889,1,0,0,0.598,optionLeft,70,9635,5,3,0,3,0,1,,,,,,,,,,,,,,,,,,,,,,,,,,,,,,,,,,,,,,,
,,,,,,,,2023-08-16_08h43.48.481,HF_wild_card,2022.2.4,Win32,60.89392279,61688d6c15deec9c3554760e,64d2fd46c836a06233681665,64dc7d10792e1824bf53d2cd,,,,,,,decisionTrl,resources/DY.BMP,resources/DG.BMP,Door3,-0.386111111,-0.018518519,1,0,0,0.5977,optionLeft,70,9705,5,4,0,4,0,1,,,,,,,,,,,,,,,,,,,,,,,,,,,,,,,,,,,,,,,
,,,,,,,,2023-08-16_08h43.48.481,HF_wild_card,2022.2.4,Win32,60.89392279,61688d6c15deec9c3554760e,64d2fd46c836a06233681665,64dc7d10792e1824bf53d2cd,,,,,,,ctch,resources/DR.BMP,resources/DG.BMP,Door4,0.37037037,-0.000925926,1,0,0,0.7302,optionRight,80,9785,5,5,0,5,0,1,,,,,,,,,,,,,,,,,,,,,,,,,,,,,,,,,,,,,,,
,,,,,,,,2023-08-16_08h43.48.481,HF_wild_card,2022.2.4,Win32,60.89392279,61688d6c15deec9c3554760e,64d2fd46c836a06233681665,64dc7d10792e1824bf53d2cd,,,,,,,decisionTrl,resources/DR.BMP,resources/DB.BMP,Door1,-0.346296296,0.016666667,1,0,0,0.8744,optionLeft,30,9815,5,6,0,6,0,1,,,,,,,,,,,,,,,,,,,,,,,,,,,,,,,,,,,,,,,
,,,,,,,,2023-08-16_08h43.48.481,HF_wild_card,2022.2.4,Win32,60.89392279,61688d6c15deec9c3554760e,64d2fd46c836a06233681665,64dc7d10792e1824bf53d2cd,,,,,,,decisionTrl,resources/DB.BMP,resources/DP.BMP,WildCard_NonEx,0.336111111,-0.038888889,1,0,0,1.0299,optionRight,55,9870,5,7,0,7,0,1,,,,,,,,,,,,,,,,,,,,,,,,,,,,,,,,,,,,,,,
,,,,,,,,2023-08-16_08h43.48.481,HF_wild_card,2022.2.4,Win32,60.89392279,61688d6c15deec9c3554760e,64d2fd46c836a06233681665,64dc7d10792e1824bf53d2cd,,,,,,,decisionTrl,resources/DB.BMP,resources/DR.BMP,Door1,0.288888889,-0.024074074,1,0,0,0.864,optionRight,30,9900,5,8,0,8,0,1,,,,,,,,,,,,,,,,,,,,,,,,,,,,,,,,,,,,,,,
,,,,,,,,2023-08-16_08h43.48.481,HF_wild_card,2022.2.4,Win32,60.89392279,61688d6c15deec9c3554760e,64d2fd46c836a06233681665,64dc7d10792e1824bf53d2cd,,,,,,,decisionTrl,resources/DG.BMP,resources/DP.BMP,Door4,-0.377777778,-0.02962963,1,0,0,1.3975,optionLeft,80,9980,5,9,0,9,0,1,,,,,,,,,,,,,,,,,,,,,,,,,,,,,,,,,,,,,,,
,,,,,,,,2023-08-16_08h43.48.481,HF_wild_card,2022.2.4,Win32,60.89392279,61688d6c15deec9c3554760e,64d2fd46c836a06233681665,64dc7d10792e1824bf53d2cd,,,,,,,sngl,resources/DG.BMP,resources/Empty.png,Door4,-0.39537037,-0.053703704,1,0,0,0.4984,optionLeft,80,10060,5,10,0,10,0,1,,,,,,,,,,,,,,,,,,,,,,,,,,,,,,,,,,,,,,,
,,,,,,,,2023-08-16_08h43.48.481,HF_wild_card,2022.2.4,Win32,60.89392279,61688d6c15deec9c3554760e,64d2fd46c836a06233681665,64dc7d10792e1824bf53d2cd,,,,,,,decisionTrl,resources/DP.BMP,resources/DY.BMP,Door3,0.45462963,0.038888889,1,0,0,1.0743,optionRight,70,10130,5,11,0,11,0,1,,,,,,,,,,,,,,,,,,,,,,,,,,,,,,,,,,,,,,,
,,,,,,,,2023-08-16_08h43.48.481,HF_wild_card,2022.2.4,Win32,60.89392279,61688d6c15deec9c3554760e,64d2fd46c836a06233681665,64dc7d10792e1824bf53d2cd,,,,,,,decisionTrl,resources/DB.BMP,resources/DR.BMP,Door1,0.355555556,-0.058333333,1,0,0,1.0297,optionRight,30,10160,5,12,0,12,0,1,,,,,,,,,,,,,,,,,,,,,,,,,,,,,,,,,,,,,,,
,,,,,,,,2023-08-16_08h43.48.481,HF_wild_card,2022.2.4,Win32,60.89392279,61688d6c15deec9c3554760e,64d2fd46c836a06233681665,64dc7d10792e1824bf53d2cd,,,,,,,sngl,resources/DR.BMP,resources/Empty.png,Door1,-0.306481481,-0.009259259,1,0,0,0.5479,optionLeft,30,10190,5,13,0,13,0,1,,,,,,,,,,,,,,,,,,,,,,,,,,,,,,,,,,,,,,,
,,,,,,,,2023-08-16_08h43.48.481,HF_wild_card,2022.2.4,Win32,60.89392279,61688d6c15deec9c3554760e,64d2fd46c836a06233681665,64dc7d10792e1824bf53d2cd,,,,,,,decisionTrl,resources/DR.BMP,resources/DP.BMP,WildCard_NonEx,0.34537037,-0.039814815,1,0,0,1.0991,optionRight,45,10235,5,14,0,14,0,1,,,,,,,,,,,,,,,,,,,,,,,,,,,,,,,,,,,,,,,
,,,,,,,,2023-08-16_08h43.48.481,HF_wild_card,2022.2.4,Win32,60.89392279,61688d6c15deec9c3554760e,64d2fd46c836a06233681665,64dc7d10792e1824bf53d2cd,,,,,,,decisionTrl,resources/DP.BMP,resources/DB.BMP,WildCard_NonEx,-0.35,-0.048148148,1,0,0,0.8133,optionLeft,55,10290,5,15,0,15,0,1,,,,,,,,,,,,,,,,,,,,,,,,,,,,,,,,,,,,,,,
,,,,,,,,2023-08-16_08h43.48.481,HF_wild_card,2022.2.4,Win32,60.89392279,61688d6c15deec9c3554760e,64d2fd46c836a06233681665,64dc7d10792e1824bf53d2cd,,,,,,,ctch,resources/DY.BMP,resources/DB.BMP,Door3,-0.312037037,0.008333333,1,0,0,0.8294,optionLeft,70,10360,5,16,0,16,0,1,,,,,,,,,,,,,,,,,,,,,,,,,,,,,,,,,,,,,,,
,,,,,,,,2023-08-16_08h43.48.481,HF_wild_card,2022.2.4,Win32,60.89392279,61688d6c15deec9c3554760e,64d2fd46c836a06233681665,64dc7d10792e1824bf53d2cd,,,,,,,sngl,resources/DB.BMP,resources/Empty.png,Door2,-0.374074074,-0.062037037,1,0,0,0.5134,optionLeft,40,10400,5,17,0,17,0,1,,,,,,,,,,,,,,,,,,,,,,,,,,,,,,,,,,,,,,,
,,,,,,,,2023-08-16_08h43.48.481,HF_wild_card,2022.2.4,Win32,60.89392279,61688d6c15deec9c3554760e,64d2fd46c836a06233681665,64dc7d10792e1824bf53d2cd,,,,,,,sngl,resources/Empty.png,resources/DY.BMP,Door3,0.362037037,0.036111111,1,0,0,0.531,optionRight,70,10470,5,18,0,18,0,1,,,,,,,,,,,,,,,,,,,,,,,,,,,,,,,,,,,,,,,
,,,,,,,,2023-08-16_08h43.48.481,HF_wild_card,2022.2.4,Win32,60.89392279,61688d6c15deec9c3554760e,64d2fd46c836a06233681665,64dc7d10792e1824bf53d2cd,,,,,,,decisionTrl,resources/DY.BMP,resources/DP.BMP,Door3,-0.328703704,-0.067592593,1,0,0,1.3308,optionLeft,70,10540,5,19,0,19,0,1,,,,,,,,,,,,,,,,,,,,,,,,,,,,,,,,,,,,,,,
,,,,,,,,2023-08-16_08h43.48.481,HF_wild_card,2022.2.4,Win32,60.89392279,61688d6c15deec9c3554760e,64d2fd46c836a06233681665,64dc7d10792e1824bf53d2cd,,,,,,,decisionTrl,resources/DB.BMP,resources/DR.BMP,Door1,0.30462963,0.005555556,1,0,0,0.6921,optionRight,30,10570,5,20,0,20,0,1,,,,,,,,,,,,,,,,,,,,,,,,,,,,,,,,,,,,,,,
,,,,,,,,2023-08-16_08h43.48.481,HF_wild_card,2022.2.4,Win32,60.89392279,61688d6c15deec9c3554760e,64d2fd46c836a06233681665,64dc7d10792e1824bf53d2cd,,,,,,,sngl,resources/DY.BMP,resources/Empty.png,Door3,-0.447222222,-0.025,1,0,0,0.5308,optionLeft,70,10640,5,21,0,21,0,1,,,,,,,,,,,,,,,,,,,,,,,,,,,,,,,,,,,,,,,
,,,,,,,,2023-08-16_08h43.48.481,HF_wild_card,2022.2.4,Win32,60.89392279,61688d6c15deec9c3554760e,64d2fd46c836a06233681665,64dc7d10792e1824bf53d2cd,,,,,,,decisionTrl,resources/DG.BMP,resources/DY.BMP,Door4,-0.327777778,-0.016666667,1,0,0,0.6633,optionLeft,80,10720,5,22,0,22,0,1,,,,,,,,,,,,,,,,,,,,,,,,,,,,,,,,,,,,,,,
,,,,,,,,2023-08-16_08h43.48.481,HF_wild_card,2022.2.4,Win32,60.89392279,61688d6c15deec9c3554760e,64d2fd46c836a06233681665,64dc7d10792e1824bf53d2cd,,,,,,,decisionTrl,resources/DR.BMP,resources/DB.BMP,Door1,-0.418518519,-0.024074074,1,0,0,1.1321,optionLeft,30,10750,5,23,0,23,0,1,,,,,,,,,,,,,,,,,,,,,,,,,,,,,,,,,,,,,,,
,,,,,,,,2023-08-16_08h43.48.481,HF_wild_card,2022.2.4,Win32,60.89392279,61688d6c15deec9c3554760e,64d2fd46c836a06233681665,64dc7d10792e1824bf53d2cd,,,,,,,ctch,resources/DB.BMP,resources/DY.BMP,Door3,0.333333333,-0.009259259,1,0,0,0.8961,optionRight,70,10820,5,24,0,24,0,1,,,,,,,,,,,,,,,,,,,,,,,,,,,,,,,,,,,,,,,
,,,,,,,,2023-08-16_08h43.48.481,HF_wild_card,2022.2.4,Win32,60.89392279,61688d6c15deec9c3554760e,64d2fd46c836a06233681665,64dc7d10792e1824bf53d2cd,,,,,,,decisionTrl,resources/DY.BMP,resources/DG.BMP,Door4,0.249074074,-0.051851852,1,0,0,1.5947,optionRight,60,10880,5,25,0,25,0,1,,,,,,,,,,,,,,,,,,,,,,,,,,,,,,,,,,,,,,,
,,,,,,,,2023-08-16_08h43.48.481,HF_wild_card,2022.2.4,Win32,60.89392279,61688d6c15deec9c3554760e,64d2fd46c836a06233681665,64dc7d10792e1824bf53d2cd,,,,,,,decisionTrl,resources/DG.BMP,resources/DY.BMP,Door3,0.372222222,0.000925926,1,0,0,1.8612,optionRight,70,10950,5,26,0,26,0,1,,,,,,,,,,,,,,,,,,,,,,,,,,,,,,,,,,,,,,,
,,,,,,,,2023-08-16_08h43.48.481,HF_wild_card,2022.2.4,Win32,60.89392279,61688d6c15deec9c3554760e,64d2fd46c836a06233681665,64dc7d10792e1824bf53d2cd,,,,,,,decisionTrl,resources/DP.BMP,resources/DR.BMP,WildCard_NonEx,-0.361111111,-0.068518519,1,0,0,0.9132,optionLeft,55,11005,5,27,0,27,0,1,,,,,,,,,,,,,,,,,,,,,,,,,,,,,,,,,,,,,,,
,,,,,,,,2023-08-16_08h43.48.481,HF_wild_card,2022.2.4,Win32,60.89392279,61688d6c15deec9c3554760e,64d2fd46c836a06233681665,64dc7d10792e1824bf53d2cd,,,,,,,decisionTrl,resources/DR.BMP,resources/DB.BMP,Door2,0.215740741,-0.007407407,1,0,0,1.2363,optionRight,20,11025,5,28,0,28,0,1,,,,,,,,,,,,,,,,,,,,,,,,,,,,,,,,,,,,,,,
,,,,,,,,2023-08-16_08h43.48.481,HF_wild_card,2022.2.4,Win32,60.89392279,61688d6c15deec9c3554760e,64d2fd46c836a06233681665,64dc7d10792e1824bf53d2cd,,,,,,,ctch,resources/DG.BMP,resources/DR.BMP,Door4,-0.368518519,-0.048148148,1,0,0,0.8966,optionLeft,60,11085,5,29,0,29,0,1,,,,,,,,,,,,,,,,,,,,,,,,,,,,,,,,,,,,,,,
,,,,,,,,2023-08-16_08h43.48.481,HF_wild_card,2022.2.4,Win32,60.89392279,61688d6c15deec9c3554760e,64d2fd46c836a06233681665,64dc7d10792e1824bf53d2cd,,,,,,,decisionTrl,resources/DR.BMP,resources/DB.BMP,Door2,0.343518519,-0.003703704,1,0,0,1.478,optionRight,20,11105,5,30,0,30,0,1,,,,,,,,,,,,,,,,,,,,,,,,,,,,,,,,,,,,,,,
,,,,,,,,2023-08-16_08h43.48.481,HF_wild_card,2022.2.4,Win32,60.89392279,61688d6c15deec9c3554760e,64d2fd46c836a06233681665,64dc7d10792e1824bf53d2cd,,,,,,,sngl,resources/Empty.png,resources/DG.BMP,Door4,0.424074074,0.009259259,1,0,0,0.5964,optionRight,60,11165,5,31,0,31,0,1,,,,,,,,,,,,,,,,,,,,,,,,,,,,,,,,,,,,,,,
,,,,,,,,2023-08-16_08h43.48.481,HF_wild_card,2022.2.4,Win32,60.89392279,61688d6c15deec9c3554760e,64d2fd46c836a06233681665,64dc7d10792e1824bf53d2cd,,,,,,,decisionTrl,resources/DB.BMP,resources/DR.BMP,Door1,0.328703704,-0.034259259,1,0,0,1.1124,optionRight,30,11195,5,32,0,32,0,1,,,,,,,,,,,,,,,,,,,,,,,,,,,,,,,,,,,,,,,
,,,,,,,,2023-08-16_08h43.48.481,HF_wild_card,2022.2.4,Win32,60.89392279,61688d6c15deec9c3554760e,64d2fd46c836a06233681665,64dc7d10792e1824bf53d2cd,,,,,,,sngl,resources/Empty.png,resources/DR.BMP,Door1,0.357407407,-0.019444444,1,0,0,0.5623,optionRight,30,11225,5,33,0,33,0,1,,,,,,,,,,,,,,,,,,,,,,,,,,,,,,,,,,,,,,,
,,,,,,,,2023-08-16_08h43.48.481,HF_wild_card,2022.2.4,Win32,60.89392279,61688d6c15deec9c3554760e,64d2fd46c836a06233681665,64dc7d10792e1824bf53d2cd,,,,,,,sngl,resources/DP.BMP,resources/Empty.png,WildCard_NonEx,-0.42962963,-0.024074074,1,0,0,0.5019,optionLeft,55,11280,5,34,0,34,0,1,,,,,,,,,,,,,,,,,,,,,,,,,,,,,,,,,,,,,,,
,,,,,,,,2023-08-16_08h43.48.481,HF_wild_card,2022.2.4,Win32,60.89392279,61688d6c15deec9c3554760e,64d2fd46c836a06233681665,64dc7d10792e1824bf53d2cd,,,,,,,decisionTrl,resources/DP.BMP,resources/DG.BMP,Door4,0.462962963,0.002777778,1,0,0,1.0629,optionRight,60,11340,5,35,0,35,0,1,,,,,,,,,,,,,,,,,,,,,,,,,,,,,,,,,,,,,,,
,,,,,,,,2023-08-16_08h43.48.481,HF_wild_card,2022.2.4,Win32,60.89392279,61688d6c15deec9c3554760e,64d2fd46c836a06233681665,64dc7d10792e1824bf53d2cd,,,,,,,ctch,resources/DR.BMP,resources/DG.BMP,Door4,0.37037037,-0.013888889,1,0,0,1.0636,optionRight,60,11400,5,36,0,36,0,1,,,,,,,,,,,,,,,,,,,,,,,,,,,,,,,,,,,,,,,
,,,,,,,,2023-08-16_08h43.48.481,HF_wild_card,2022.2.4,Win32,60.89392279,61688d6c15deec9c3554760e,64d2fd46c836a06233681665,64dc7d10792e1824bf53d2cd,,,,,,,sngl,resources/Empty.png,resources/DB.BMP,Door2,0.348148148,-0.011111111,1,0,0,0.5688,optionRight,20,11420,5,37,0,37,0,1,,,,,,,,,,,,,,,,,,,,,,,,,,,,,,,,,,,,,,,
,,,,,,,,2023-08-16_08h43.48.481,HF_wild_card,2022.2.4,Win32,60.89392279,61688d6c15deec9c3554760e,64d2fd46c836a06233681665,64dc7d10792e1824bf53d2cd,,,,,,,decisionTrl,resources/DG.BMP,resources/DY.BMP,Door4,-0.407407407,-0.017592593,1,0,0,1.6485,optionLeft,60,11480,5,38,0,38,0,1,,,,,,,,,,,,,,,,,,,,,,,,,,,,,,,,,,,,,,,
,,,,,,,,2023-08-16_08h43.48.481,HF_wild_card,2022.2.4,Win32,60.89392279,61688d6c15deec9c3554760e,64d2fd46c836a06233681665,64dc7d10792e1824bf53d2cd,,,,,,,ctch,resources/DB.BMP,resources/DY.BMP,Door3,0.372222222,0.010185185,1,0,0,0.6773,optionRight,70,11550,5,39,0,39,0,1,,,,,,,,,,,,,,,,,,,,,,,,,,,,,,,,,,,,,,,
,,,,,,,,2023-08-16_08h43.48.481,HF_wild_card,2022.2.4,Win32,60.89392279,61688d6c15deec9c3554760e,64d2fd46c836a06233681665,64dc7d10792e1824bf53d2cd,,,,,,,sngl,resources/Empty.png,resources/DP.BMP,WildCard_NonEx,0.327777778,0.000925926,1,0,0,0.5637,optionRight,45,11595,5,40,0,40,0,1,,,,,,,,,,,,,,,,,,,,,,,,,,,,,,,,,,,,,,,
,,,,,,,,2023-08-16_08h43.48.481,HF_wild_card,2022.2.4,Win32,60.89392279,61688d6c15deec9c3554760e,64d2fd46c836a06233681665,64dc7d10792e1824bf53d2cd,,,,,,,decisionTrl,resources/DY.BMP,resources/DG.BMP,Door3,-0.482407407,-0.037037037,1,0,0,1.1633,optionLeft,70,11665,5,41,0,41,0,1,,,,,,,,,,,,,,,,,,,,,,,,,,,,,,,,,,,,,,,
,,,,,,,,2023-08-16_08h43.48.481,HF_wild_card,2022.2.4,Win32,60.89392279,61688d6c15deec9c3554760e,64d2fd46c836a06233681665,64dc7d10792e1824bf53d2cd,,,,,,,sngl,resources/DP.BMP,resources/Empty.png,WildCard_NonEx,-0.439814815,-0.026851852,1,0,0,0.5804,optionLeft,45,11710,5,42,0,42,0,1,,,,,,,,,,,,,,,,,,,,,,,,,,,,,,,,,,,,,,,
,,,,,,,,2023-08-16_08h43.48.481,HF_wild_card,2022.2.4,Win32,60.89392279,61688d6c15deec9c3554760e,64d2fd46c836a06233681665,64dc7d10792e1824bf53d2cd,,,,,,,decisionTrl,resources/DG.BMP,resources/DY.BMP,Door4,-0.406481481,-0.017592593,1,0,0,2.0303,optionLeft,60,11770,5,43,0,43,0,1,,,,,,,,,,,,,,,,,,,,,,,,,,,,,,,,,,,,,,,
,,,,,,,,2023-08-16_08h43.48.481,HF_wild_card,2022.2.4,Win32,60.89392279,61688d6c15deec9c3554760e,64d2fd46c836a06233681665,64dc7d10792e1824bf53d2cd,,,,,,,,,,,,,,,,,,,,,,,,,,4,0,4,0,1,,,,,,,,,,,,,,,,,,,,,,,,,,,,,,,,,,
,,,,,,,,2023-08-16_08h43.48.481,HF_wild_card,2022.2.4,Win32,60.89392279,61688d6c15deec9c3554760e,64d2fd46c836a06233681665,64dc7d10792e1824bf53d2cd,,,,,,,decisionTrl,resources/DB.BMP,resources/DR.BMP,Door1,0.333333333,-0.084259259,1,0,0,1.1972,optionRight,30,11800,6,0,0,0,0,1,,,,,,,,,,,,,,,,,,,,,,,,,,,,,,,,,,,,,,,
,,,,,,,,2023-08-16_08h43.48.481,HF_wild_card,2022.2.4,Win32,60.89392279,61688d6c15deec9c3554760e,64d2fd46c836a06233681665,64dc7d10792e1824bf53d2cd,,,,,,,decisionTrl,resources/DB.BMP,resources/DR.BMP,Door1,0.307407407,-0.060185185,1,0,0,0.879,optionRight,30,11830,6,1,0,1,0,1,,,,,,,,,,,,,,,,,,,,,,,,,,,,,,,,,,,,,,,
,,,,,,,,2023-08-16_08h43.48.481,HF_wild_card,2022.2.4,Win32,60.89392279,61688d6c15deec9c3554760e,64d2fd46c836a06233681665,64dc7d10792e1824bf53d2cd,,,,,,,decisionTrl,resources/DG.BMP,resources/DY.BMP,Door3,0.323148148,0.007407407,1,0,0,1.9453,optionRight,70,11900,6,2,0,2,0,1,,,,,,,,,,,,,,,,,,,,,,,,,,,,,,,,,,,,,,,
,,,,,,,,2023-08-16_08h43.48.481,HF_wild_card,2022.2.4,Win32,60.89392279,61688d6c15deec9c3554760e,64d2fd46c836a06233681665,64dc7d10792e1824bf53d2cd,,,,,,,sngl,resources/Empty.png,resources/DG.BMP,Door4,0.35,0.02037037,1,0,0,0.5456,optionRight,80,11980,6,3,0,3,0,1,,,,,,,,,,,,,,,,,,,,,,,,,,,,,,,,,,,,,,,
,,,,,,,,2023-08-16_08h43.48.481,HF_wild_card,2022.2.4,Win32,60.89392279,61688d6c15deec9c3554760e,64d2fd46c836a06233681665,64dc7d10792e1824bf53d2cd,,,,,,,sngl,resources/DB.BMP,resources/Empty.png,Door2,-0.459259259,-0.05462963,1,0,0,0.4964,optionLeft,20,12000,6,4,0,4,0,1,,,,,,,,,,,,,,,,,,,,,,,,,,,,,,,,,,,,,,,
,,,,,,,,2023-08-16_08h43.48.481,HF_wild_card,2022.2.4,Win32,60.89392279,61688d6c15deec9c3554760e,64d2fd46c836a06233681665,64dc7d10792e1824bf53d2cd,,,,,,,decisionTrl,resources/DP.BMP,resources/DB.BMP,WildCard_NonEx,-0.465740741,-0.112962963,1,0,0,0.9631,optionLeft,45,12045,6,5,0,5,0,1,,,,,,,,,,,,,,,,,,,,,,,,,,,,,,,,,,,,,,,
,,,,,,,,2023-08-16_08h43.48.481,HF_wild_card,2022.2.4,Win32,60.89392279,61688d6c15deec9c3554760e,64d2fd46c836a06233681665,64dc7d10792e1824bf53d2cd,,,,,,,decisionTrl,resources/DG.BMP,resources/DP.BMP,Door4,-0.371296296,-0.038888889,1,0,0,0.9965,optionLeft,60,12105,6,6,0,6,0,1,,,,,,,,,,,,,,,,,,,,,,,,,,,,,,,,,,,,,,,
,,,,,,,,2023-08-16_08h43.48.481,HF_wild_card,2022.2.4,Win32,60.89392279,61688d6c15deec9c3554760e,64d2fd46c836a06233681665,64dc7d10792e1824bf53d2cd,,,,,,,decisionTrl,resources/DY.BMP,resources/DG.BMP,Door4,0.438888889,0.02962963,1,0,0,0.5617,optionRight,60,12165,6,7,0,7,0,1,,,,,,,,,,,,,,,,,,,,,,,,,,,,,,,,,,,,,,,
,,,,,,,,2023-08-16_08h43.48.481,HF_wild_card,2022.2.4,Win32,60.89392279,61688d6c15deec9c3554760e,64d2fd46c836a06233681665,64dc7d10792e1824bf53d2cd,,,,,,,sngl,resources/DY.BMP,resources/Empty.png,Door3,-0.409259259,-0.055555556,1,0,0,0.4804,optionLeft,70,12235,6,8,0,8,0,1,,,,,,,,,,,,,,,,,,,,,,,,,,,,,,,,,,,,,,,
,,,,,,,,2023-08-16_08h43.48.481,HF_wild_card,2022.2.4,Win32,60.89392279,61688d6c15deec9c3554760e,64d2fd46c836a06233681665,64dc7d10792e1824bf53d2cd,,,,,,,decisionTrl,resources/DG.BMP,resources/DY.BMP,Door3,0.311111111,-0.006481481,1,0,0,1.1775,optionRight,70,12305,6,9,0,9,0,1,,,,,,,,,,,,,,,,,,,,,,,,,,,,,,,,,,,,,,,
,,,,,,,,2023-08-16_08h43.48.481,HF_wild_card,2022.2.4,Win32,60.89392279,61688d6c15deec9c3554760e,64d2fd46c836a06233681665,64dc7d10792e1824bf53d2cd,,,,,,,decisionTrl,resources/DY.BMP,resources/DG.BMP,Door3,-0.402777778,-0.024074074,1,0,0,0.7639,optionLeft,70,12375,6,10,0,10,0,1,,,,,,,,,,,,,,,,,,,,,,,,,,,,,,,,,,,,,,,
,,,,,,,,2023-08-16_08h43.48.481,HF_wild_card,2022.2.4,Win32,60.89392279,61688d6c15deec9c3554760e,64d2fd46c836a06233681665,64dc7d10792e1824bf53d2cd,,,,,,,decisionTrl,resources/DY.BMP,resources/DG.BMP,Door3,-0.337037037,-0.053703704,1,0,0,0.6481,optionLeft,70,12445,6,11,0,11,0,1,,,,,,,,,,,,,,,,,,,,,,,,,,,,,,,,,,,,,,,
,,,,,,,,2023-08-16_08h43.48.481,HF_wild_card,2022.2.4,Win32,60.89392279,61688d6c15deec9c3554760e,64d2fd46c836a06233681665,64dc7d10792e1824bf53d2cd,,,,,,,sngl,resources/Empty.png,resources/DY.BMP,Door3,0.384259259,-0.006481481,1,0,0,0.5007,optionRight,70,12515,6,12,0,12,0,1,,,,,,,,,,,,,,,,,,,,,,,,,,,,,,,,,,,,,,,
,,,,,,,,2023-08-16_08h43.48.481,HF_wild_card,2022.2.4,Win32,60.89392279,61688d6c15deec9c3554760e,64d2fd46c836a06233681665,64dc7d10792e1824bf53d2cd,,,,,,,decisionTrl,resources/DP.BMP,resources/DY.BMP,Door3,0.516666667,0.036111111,1,0,0,1.2797,optionRight,70,12585,6,13,0,13,0,1,,,,,,,,,,,,,,,,,,,,,,,,,,,,,,,,,,,,,,,
,,,,,,,,2023-08-16_08h43.48.481,HF_wild_card,2022.2.4,Win32,60.89392279,61688d6c15deec9c3554760e,64d2fd46c836a06233681665,64dc7d10792e1824bf53d2cd,,,,,,,decisionTrl,resources/DR.BMP,resources/DB.BMP,Door2,0.243518519,0,1,0,0,1.1338,optionRight,40,12625,6,14,0,14,0,1,,,,,,,,,,,,,,,,,,,,,,,,,,,,,,,,,,,,,,,
,,,,,,,,2023-08-16_08h43.48.481,HF_wild_card,2022.2.4,Win32,60.89392279,61688d6c15deec9c3554760e,64d2fd46c836a06233681665,64dc7d10792e1824bf53d2cd,,,,,,,decisionTrl,resources/DB.BMP,resources/DR.BMP,Door2,-0.358333333,-0.024074074,1,0,0,1.064,optionLeft,40,12665,6,15,0,15,0,1,,,,,,,,,,,,,,,,,,,,,,,,,,,,,,,,,,,,,,,
,,,,,,,,2023-08-16_08h43.48.481,HF_wild_card,2022.2.4,Win32,60.89392279,61688d6c15deec9c3554760e,64d2fd46c836a06233681665,64dc7d10792e1824bf53d2cd,,,,,,,ctch,resources/DR.BMP,resources/DG.BMP,Door4,0.410185185,0.008333333,1,0,0,1.3559,optionRight,60,12725,6,16,0,16,0,1,,,,,,,,,,,,,,,,,,,,,,,,,,,,,,,,,,,,,,,
,,,,,,,,2023-08-16_08h43.48.481,HF_wild_card,2022.2.4,Win32,60.89392279,61688d6c15deec9c3554760e,64d2fd46c836a06233681665,64dc7d10792e1824bf53d2cd,,,,,,,ctch,resources/DR.BMP,resources/DG.BMP,Door4,0.407407407,0.026851852,1,0,0,0.6451,optionRight,80,12805,6,17,0,17,0,1,,,,,,,,,,,,,,,,,,,,,,,,,,,,,,,,,,,,,,,
,,,,,,,,2023-08-16_08h43.48.481,HF_wild_card,2022.2.4,Win32,60.89392279,61688d6c15deec9c3554760e,64d2fd46c836a06233681665,64dc7d10792e1824bf53d2cd,,,,,,,decisionTrl,resources/DG.BMP,resources/DY.BMP,Door3,0.406481481,-0.00462963,1,0,0,2.5022,optionRight,70,12875,6,18,0,18,0,1,,,,,,,,,,,,,,,,,,,,,,,,,,,,,,,,,,,,,,,
,,,,,,,,2023-08-16_08h43.48.481,HF_wild_card,2022.2.4,Win32,60.89392279,61688d6c15deec9c3554760e,64d2fd46c836a06233681665,64dc7d10792e1824bf53d2cd,,,,,,,decisionTrl,resources/DR.BMP,resources/DB.BMP,Door1,-0.412037037,-0.050925926,1,0,0,1.789,optionLeft,30,12905,6,19,0,19,0,1,,,,,,,,,,,,,,,,,,,,,,,,,,,,,,,,,,,,,,,
,,,,,,,,2023-08-16_08h43.48.481,HF_wild_card,2022.2.4,Win32,60.89392279,61688d6c15deec9c3554760e,64d2fd46c836a06233681665,64dc7d10792e1824bf53d2cd,,,,,,,decisionTrl,resources/DG.BMP,resources/DY.BMP,Door3,0.307407407,-0.057407407,1,0,0,1.0297,optionRight,70,12975,6,20,0,20,0,1,,,,,,,,,,,,,,,,,,,,,,,,,,,,,,,,,,,,,,,
,,,,,,,,2023-08-16_08h43.48.481,HF_wild_card,2022.2.4,Win32,60.89392279,61688d6c15deec9c3554760e,64d2fd46c836a06233681665,64dc7d10792e1824bf53d2cd,,,,,,,ctch,resources/DY.BMP,resources/DB.BMP,Door3,-0.362962963,-0.049074074,1,0,0,0.822,optionLeft,70,13045,6,21,0,21,0,1,,,,,,,,,,,,,,,,,,,,,,,,,,,,,,,,,,,,,,,
,,,,,,,,2023-08-16_08h43.48.481,HF_wild_card,2022.2.4,Win32,60.89392279,61688d6c15deec9c3554760e,64d2fd46c836a06233681665,64dc7d10792e1824bf53d2cd,,,,,,,ctch,resources/DB.BMP,resources/DY.BMP,Door3,0.332407407,-0.012962963,1,0,0,0.5097,optionRight,70,13115,6,22,0,22,0,1,,,,,,,,,,,,,,,,,,,,,,,,,,,,,,,,,,,,,,,
,,,,,,,,2023-08-16_08h43.48.481,HF_wild_card,2022.2.4,Win32,60.89392279,61688d6c15deec9c3554760e,64d2fd46c836a06233681665,64dc7d10792e1824bf53d2cd,,,,,,,sngl,resources/Empty.png,resources/DR.BMP,Door1,0.27962963,0.022222222,1,0,0,0.5301,optionRight,30,13145,6,23,0,23,0,1,,,,,,,,,,,,,,,,,,,,,,,,,,,,,,,,,,,,,,,
,,,,,,,,2023-08-16_08h43.48.481,HF_wild_card,2022.2.4,Win32,60.89392279,61688d6c15deec9c3554760e,64d2fd46c836a06233681665,64dc7d10792e1824bf53d2cd,,,,,,,ctch,resources/DB.BMP,resources/DY.BMP,Door3,0.29537037,0.033333333,1,0,0,0.5605,optionRight,70,13215,6,24,0,24,0,1,,,,,,,,,,,,,,,,,,,,,,,,,,,,,,,,,,,,,,,
,,,,,,,,2023-08-16_08h43.48.481,HF_wild_card,2022.2.4,Win32,60.89392279,61688d6c15deec9c3554760e,64d2fd46c836a06233681665,64dc7d10792e1824bf53d2cd,,,,,,,decisionTrl,resources/DR.BMP,resources/DB.BMP,Door1,-0.45462963,-0.005555556,1,0,0,1.2122,optionLeft,30,13245,6,25,0,25,0,1,,,,,,,,,,,,,,,,,,,,,,,,,,,,,,,,,,,,,,,
,,,,,,,,2023-08-16_08h43.48.481,HF_wild_card,2022.2.4,Win32,60.89392279,61688d6c15deec9c3554760e,64d2fd46c836a06233681665,64dc7d10792e1824bf53d2cd,,,,,,,sngl,resources/Empty.png,resources/DP.BMP,WildCard_NonEx,0.342592593,0.001851852,1,0,0,0.4804,optionRight,45,13290,6,26,0,26,0,1,,,,,,,,,,,,,,,,,,,,,,,,,,,,,,,,,,,,,,,
,,,,,,,,2023-08-16_08h43.48.481,HF_wild_card,2022.2.4,Win32,60.89392279,61688d6c15deec9c3554760e,64d2fd46c836a06233681665,64dc7d10792e1824bf53d2cd,,,,,,,sngl,resources/Empty.png,resources/DB.BMP,Door2,0.291666667,0.011111111,1,0,0,0.5024,optionRight,40,13330,6,27,0,27,0,1,,,,,,,,,,,,,,,,,,,,,,,,,,,,,,,,,,,,,,,
,,,,,,,,2023-08-16_08h43.48.481,HF_wild_card,2022.2.4,Win32,60.89392279,61688d6c15deec9c3554760e,64d2fd46c836a06233681665,64dc7d10792e1824bf53d2cd,,,,,,,ctch,resources/DG.BMP,resources/DR.BMP,Door4,-0.358333333,-0.018518519,1,0,0,0.7953,optionLeft,80,13410,6,28,0,28,0,1,,,,,,,,,,,,,,,,,,,,,,,,,,,,,,,,,,,,,,,
,,,,,,,,2023-08-16_08h43.48.481,HF_wild_card,2022.2.4,Win32,60.89392279,61688d6c15deec9c3554760e,64d2fd46c836a06233681665,64dc7d10792e1824bf53d2cd,,,,,,,decisionTrl,resources/DR.BMP,resources/DB.BMP,Door1,-0.382407407,-0.037962963,1,0,0,0.9467,optionLeft,30,13440,6,29,0,29,0,1,,,,,,,,,,,,,,,,,,,,,,,,,,,,,,,,,,,,,,,
,,,,,,,,2023-08-16_08h43.48.481,HF_wild_card,2022.2.4,Win32,60.89392279,61688d6c15deec9c3554760e,64d2fd46c836a06233681665,64dc7d10792e1824bf53d2cd,,,,,,,sngl,resources/DP.BMP,resources/Empty.png,WildCard_NonEx,-0.378703704,-0.074074074,1,0,0,0.4977,optionLeft,45,13485,6,30,0,30,0,1,,,,,,,,,,,,,,,,,,,,,,,,,,,,,,,,,,,,,,,
,,,,,,,,2023-08-16_08h43.48.481,HF_wild_card,2022.2.4,Win32,60.89392279,61688d6c15deec9c3554760e,64d2fd46c836a06233681665,64dc7d10792e1824bf53d2cd,,,,,,,ctch,resources/DG.BMP,resources/DR.BMP,Door4,-0.371296296,-0.052777778,1,0,0,0.6637,optionLeft,60,13545,6,31,0,31,0,1,,,,,,,,,,,,,,,,,,,,,,,,,,,,,,,,,,,,,,,
,,,,,,,,2023-08-16_08h43.48.481,HF_wild_card,2022.2.4,Win32,60.89392279,61688d6c15deec9c3554760e,64d2fd46c836a06233681665,64dc7d10792e1824bf53d2cd,,,,,,,decisionTrl,resources/DB.BMP,resources/DR.BMP,Door1,0.266666667,-0.07962963,1,0,0,0.7139,optionRight,30,13575,6,32,0,32,0,1,,,,,,,,,,,,,,,,,,,,,,,,,,,,,,,,,,,,,,,
,,,,,,,,2023-08-16_08h43.48.481,HF_wild_card,2022.2.4,Win32,60.89392279,61688d6c15deec9c3554760e,64d2fd46c836a06233681665,64dc7d10792e1824bf53d2cd,,,,,,,decisionTrl,resources/DY.BMP,resources/DG.BMP,Door3,-0.419444444,-0.031481481,1,0,0,1.3394,optionLeft,70,13645,6,33,0,33,0,1,,,,,,,,,,,,,,,,,,,,,,,,,,,,,,,,,,,,,,,
,,,,,,,,2023-08-16_08h43.48.481,HF_wild_card,2022.2.4,Win32,60.89392279,61688d6c15deec9c3554760e,64d2fd46c836a06233681665,64dc7d10792e1824bf53d2cd,,,,,,,decisionTrl,resources/DY.BMP,resources/DP.BMP,Door3,-0.288888889,-0.04537037,1,0,0,0.9293,optionLeft,70,13715,6,34,0,34,0,1,,,,,,,,,,,,,,,,,,,,,,,,,,,,,,,,,,,,,,,
,,,,,,,,2023-08-16_08h43.48.481,HF_wild_card,2022.2.4,Win32,60.89392279,61688d6c15deec9c3554760e,64d2fd46c836a06233681665,64dc7d10792e1824bf53d2cd,,,,,,,decisionTrl,resources/DB.BMP,resources/DP.BMP,WildCard_NonEx,0.317592593,-0.062037037,1,0,0,1.2287,optionRight,45,13760,6,35,0,35,0,1,,,,,,,,,,,,,,,,,,,,,,,,,,,,,,,,,,,,,,,
,,,,,,,,2023-08-16_08h43.48.481,HF_wild_card,2022.2.4,Win32,60.89392279,61688d6c15deec9c3554760e,64d2fd46c836a06233681665,64dc7d10792e1824bf53d2cd,,,,,,,decisionTrl,resources/DP.BMP,resources/DG.BMP,Door4,0.353703704,-0.025,1,0,0,1.0608,optionRight,80,13840,6,36,0,36,0,1,,,,,,,,,,,,,,,,,,,,,,,,,,,,,,,,,,,,,,,
,,,,,,,,2023-08-16_08h43.48.481,HF_wild_card,2022.2.4,Win32,60.89392279,61688d6c15deec9c3554760e,64d2fd46c836a06233681665,64dc7d10792e1824bf53d2cd,,,,,,,ctch,resources/DY.BMP,resources/DB.BMP,Door3,-0.410185185,-0.055555556,1,0,0,0.6808,optionLeft,70,13910,6,37,0,37,0,1,,,,,,,,,,,,,,,,,,,,,,,,,,,,,,,,,,,,,,,
,,,,,,,,2023-08-16_08h43.48.481,HF_wild_card,2022.2.4,Win32,60.89392279,61688d6c15deec9c3554760e,64d2fd46c836a06233681665,64dc7d10792e1824bf53d2cd,,,,,,,decisionTrl,resources/DR.BMP,resources/DP.BMP,WildCard_NonEx,0.42037037,-0.015740741,1,0,0,0.6627,optionRight,45,13955,6,38,0,38,0,1,,,,,,,,,,,,,,,,,,,,,,,,,,,,,,,,,,,,,,,
,,,,,,,,2023-08-16_08h43.48.481,HF_wild_card,2022.2.4,Win32,60.89392279,61688d6c15deec9c3554760e,64d2fd46c836a06233681665,64dc7d10792e1824bf53d2cd,,,,,,,decisionTrl,resources/DP.BMP,resources/DR.BMP,WildCard_NonEx,-0.331481481,-0.033333333,1,0,0,1.0407,optionLeft,55,14010,6,39,0,39,0,1,,,,,,,,,,,,,,,,,,,,,,,,,,,,,,,,,,,,,,,
,,,,,,,,2023-08-16_08h43.48.481,HF_wild_card,2022.2.4,Win32,60.89392279,61688d6c15deec9c3554760e,64d2fd46c836a06233681665,64dc7d10792e1824bf53d2cd,,,,,,,sngl,resources/Empty.png,resources/DP.BMP,WildCard_NonEx,0.387037037,-0.044444444,1,0,0,0.496,optionRight,55,14065,6,40,0,40,0,1,,,,,,,,,,,,,,,,,,,,,,,,,,,,,,,,,,,,,,,
,,,,,,,,2023-08-16_08h43.48.481,HF_wild_card,2022.2.4,Win32,60.89392279,61688d6c15deec9c3554760e,64d2fd46c836a06233681665,64dc7d10792e1824bf53d2cd,,,,,,,sngl,resources/DG.BMP,resources/Empty.png,Door4,-0.334259259,-0.025,1,0,0,0.48,optionLeft,60,14125,6,41,0,41,0,1,,,,,,,,,,,,,,,,,,,,,,,,,,,,,,,,,,,,,,,
,,,,,,,,2023-08-16_08h43.48.481,HF_wild_card,2022.2.4,Win32,60.89392279,61688d6c15deec9c3554760e,64d2fd46c836a06233681665,64dc7d10792e1824bf53d2cd,,,,,,,sngl,resources/DP.BMP,resources/Empty.png,WildCard_NonEx,-0.362962963,-0.071296296,1,0,0,0.4961,optionLeft,55,14180,6,42,0,42,0,1,,,,,,,,,,,,,,,,,,,,,,,,,,,,,,,,,,,,,,,
,,,,,,,,2023-08-16_08h43.48.481,HF_wild_card,2022.2.4,Win32,60.89392279,61688d6c15deec9c3554760e,64d2fd46c836a06233681665,64dc7d10792e1824bf53d2cd,,,,,,,sngl,resources/DR.BMP,resources/Empty.png,Door1,-0.407407407,-0.10462963,1,0,0,0.5136,optionLeft,30,14210,6,43,0,43,0,1,,,,,,,,,,,,,,,,,,,,,,,,,,,,,,,,,,,,,,,
,,,,,,,,2023-08-16_08h43.48.481,HF_wild_card,2022.2.4,Win32,60.89392279,61688d6c15deec9c3554760e,64d2fd46c836a06233681665,64dc7d10792e1824bf53d2cd,,,,,,,,,,,,,,,,,,,,,,,,,,5,0,5,0,1,,,,,,,,,,,,,,,,,,,,,,,,,,,,,,,,,,
,,,,,,,,2023-08-16_08h43.48.481,HF_wild_card,2022.2.4,Win32,60.89392279,61688d6c15deec9c3554760e,64d2fd46c836a06233681665,64dc7d10792e1824bf53d2cd,,,,,,,ctch,resources/DY.BMP,resources/DB.BMP,Door3,-0.317592593,-0.040740741,1,0,0,1.2207,optionLeft,70,14280,7,0,0,0,0,1,,,,,,,,,,,,,,,,,,,,,,,,,,,,,,,,,,,,,,,
,,,,,,,,2023-08-16_08h43.48.481,HF_wild_card,2022.2.4,Win32,60.89392279,61688d6c15deec9c3554760e,64d2fd46c836a06233681665,64dc7d10792e1824bf53d2cd,,,,,,,decisionTrl,resources/DG.BMP,resources/DY.BMP,Door3,0.347222222,-0.012037037,1,0,0,1.1058,optionRight,70,14350,7,1,0,1,0,1,,,,,,,,,,,,,,,,,,,,,,,,,,,,,,,,,,,,,,,
,,,,,,,,2023-08-16_08h43.48.481,HF_wild_card,2022.2.4,Win32,60.89392279,61688d6c15deec9c3554760e,64d2fd46c836a06233681665,64dc7d10792e1824bf53d2cd,,,,,,,ctch,resources/DR.BMP,resources/DG.BMP,Door4,0.3,-0.011111111,1,0,0,0.8151,optionRight,80,14430,7,2,0,2,0,1,,,,,,,,,,,,,,,,,,,,,,,,,,,,,,,,,,,,,,,
,,,,,,,,2023-08-16_08h43.48.481,HF_wild_card,2022.2.4,Win32,60.89392279,61688d6c15deec9c3554760e,64d2fd46c836a06233681665,64dc7d10792e1824bf53d2cd,,,,,,,ctch,resources/DG.BMP,resources/DR.BMP,Door4,-0.37962963,0.007407407,1,0,0,0.6807,optionLeft,60,14490,7,3,0,3,0,1,,,,,,,,,,,,,,,,,,,,,,,,,,,,,,,,,,,,,,,
,,,,,,,,2023-08-16_08h43.48.481,HF_wild_card,2022.2.4,Win32,60.89392279,61688d6c15deec9c3554760e,64d2fd46c836a06233681665,64dc7d10792e1824bf53d2cd,,,,,,,decisionTrl,resources/DY.BMP,resources/DG.BMP,Door3,-0.362962963,-0.051851852,1,0,0,1.264,optionLeft,70,14560,7,4,0,4,0,1,,,,,,,,,,,,,,,,,,,,,,,,,,,,,,,,,,,,,,,
,,,,,,,,2023-08-16_08h43.48.481,HF_wild_card,2022.2.4,Win32,60.89392279,61688d6c15deec9c3554760e,64d2fd46c836a06233681665,64dc7d10792e1824bf53d2cd,,,,,,,decisionTrl,resources/DB.BMP,resources/DR.BMP,Door1,0.308333333,-0.046296296,1,0,0,2.6924,optionRight,30,14590,7,5,0,5,0,1,,,,,,,,,,,,,,,,,,,,,,,,,,,,,,,,,,,,,,,
,,,,,,,,2023-08-16_08h43.48.481,HF_wild_card,2022.2.4,Win32,60.89392279,61688d6c15deec9c3554760e,64d2fd46c836a06233681665,64dc7d10792e1824bf53d2cd,,,,,,,decisionTrl,resources/DR.BMP,resources/DB.BMP,Door1,-0.358333333,-0.064814815,1,0,0,0.7476,optionLeft,30,14620,7,6,0,6,0,1,,,,,,,,,,,,,,,,,,,,,,,,,,,,,,,,,,,,,,,
,,,,,,,,2023-08-16_08h43.48.481,HF_wild_card,2022.2.4,Win32,60.89392279,61688d6c15deec9c3554760e,64d2fd46c836a06233681665,64dc7d10792e1824bf53d2cd,,,,,,,decisionTrl,resources/DY.BMP,resources/DG.BMP,Door3,-0.428703704,-0.062962963,1,0,0,1.1989,optionLeft,70,14690,7,7,0,7,0,1,,,,,,,,,,,,,,,,,,,,,,,,,,,,,,,,,,,,,,,
,,,,,,,,2023-08-16_08h43.48.481,HF_wild_card,2022.2.4,Win32,60.89392279,61688d6c15deec9c3554760e,64d2fd46c836a06233681665,64dc7d10792e1824bf53d2cd,,,,,,,decisionTrl,resources/DY.BMP,resources/DG.BMP,Door3,-0.37037037,-0.036111111,1,0,0,0.5707,optionLeft,70,14760,7,8,0,8,0,1,,,,,,,,,,,,,,,,,,,,,,,,,,,,,,,,,,,,,,,
,,,,,,,,2023-08-16_08h43.48.481,HF_wild_card,2022.2.4,Win32,60.89392279,61688d6c15deec9c3554760e,64d2fd46c836a06233681665,64dc7d10792e1824bf53d2cd,,,,,,,ctch,resources/DB.BMP,resources/DY.BMP,Door3,0.384259259,-0.026851852,1,0,0,0.6484,optionRight,70,14830,7,9,0,9,0,1,,,,,,,,,,,,,,,,,,,,,,,,,,,,,,,,,,,,,,,
,,,,,,,,2023-08-16_08h43.48.481,HF_wild_card,2022.2.4,Win32,60.89392279,61688d6c15deec9c3554760e,64d2fd46c836a06233681665,64dc7d10792e1824bf53d2cd,,,,,,,decisionTrl,resources/DG.BMP,resources/DY.BMP,Door3,0.413888889,-0.028703704,1,0,0,0.7078,optionRight,70,14900,7,10,0,10,0,1,,,,,,,,,,,,,,,,,,,,,,,,,,,,,,,,,,,,,,,
,,,,,,,,2023-08-16_08h43.48.481,HF_wild_card,2022.2.4,Win32,60.89392279,61688d6c15deec9c3554760e,64d2fd46c836a06233681665,64dc7d10792e1824bf53d2cd,,,,,,,decisionTrl,resources/DG.BMP,resources/DY.BMP,Door3,0.453703704,-0.024074074,1,0,0,0.6145,optionRight,70,14970,7,11,0,11,0,1,,,,,,,,,,,,,,,,,,,,,,,,,,,,,,,,,,,,,,,
,,,,,,,,2023-08-16_08h43.48.481,HF_wild_card,2022.2.4,Win32,60.89392279,61688d6c15deec9c3554760e,64d2fd46c836a06233681665,64dc7d10792e1824bf53d2cd,,,,,,,decisionTrl,resources/DB.BMP,resources/DR.BMP,Door1,0.467592593,-0.057407407,1,0,0,1.0365,optionRight,30,15000,7,12,0,12,0,1,,,,,,,,,,,,,,,,,,,,,,,,,,,,,,,,,,,,,,,
,,,,,,,,2023-08-16_08h43.48.481,HF_wild_card,2022.2.4,Win32,60.89392279,61688d6c15deec9c3554760e,64d2fd46c836a06233681665,64dc7d10792e1824bf53d2cd,,,,,,,decisionTrl,resources/DG.BMP,resources/DY.BMP,Door3,0.369444444,-0.043518519,1,0,0,0.9474,optionRight,70,15070,7,13,0,13,0,1,,,,,,,,,,,,,,,,,,,,,,,,,,,,,,,,,,,,,,,
,,,,,,,,2023-08-16_08h43.48.481,HF_wild_card,2022.2.4,Win32,60.89392279,61688d6c15deec9c3554760e,64d2fd46c836a06233681665,64dc7d10792e1824bf53d2cd,,,,,,,ctch,resources/DG.BMP,resources/DR.BMP,Door4,-0.361111111,-0.02962963,1,0,0,0.7313,optionLeft,60,15130,7,14,0,14,0,1,,,,,,,,,,,,,,,,,,,,,,,,,,,,,,,,,,,,,,,
,,,,,,,,2023-08-16_08h43.48.481,HF_wild_card,2022.2.4,Win32,60.89392279,61688d6c15deec9c3554760e,64d2fd46c836a06233681665,64dc7d10792e1824bf53d2cd,,,,,,,decisionTrl,resources/DB.BMP,resources/DR.BMP,Door1,0.376851852,-0.048148148,1,0,0,0.913,optionRight,30,15160,7,15,0,15,0,1,,,,,,,,,,,,,,,,,,,,,,,,,,,,,,,,,,,,,,,
,,,,,,,,2023-08-16_08h43.48.481,HF_wild_card,2022.2.4,Win32,60.89392279,61688d6c15deec9c3554760e,64d2fd46c836a06233681665,64dc7d10792e1824bf53d2cd,,,,,,,ctch,resources/DR.BMP,resources/DG.BMP,Door4,0.417592593,-0.027777778,1,0,0,0.6313,optionRight,60,15220,7,16,0,16,0,1,,,,,,,,,,,,,,,,,,,,,,,,,,,,,,,,,,,,,,,
,,,,,,,,2023-08-16_08h43.48.481,HF_wild_card,2022.2.4,Win32,60.89392279,61688d6c15deec9c3554760e,64d2fd46c836a06233681665,64dc7d10792e1824bf53d2cd,,,,,,,decisionTrl,resources/DY.BMP,resources/DG.BMP,Door3,-0.317592593,-0.013888889,1,0,0,1.7143,optionLeft,70,15290,7,17,0,17,0,1,,,,,,,,,,,,,,,,,,,,,,,,,,,,,,,,,,,,,,,
,,,,,,,,2023-08-16_08h43.48.481,HF_wild_card,2022.2.4,Win32,60.89392279,61688d6c15deec9c3554760e,64d2fd46c836a06233681665,64dc7d10792e1824bf53d2cd,,,,,,,decisionTrl,resources/DY.BMP,resources/DG.BMP,Door3,-0.433333333,-0.060185185,1,0,0,0.731,optionLeft,70,15360,7,18,0,18,0,1,,,,,,,,,,,,,,,,,,,,,,,,,,,,,,,,,,,,,,,
,,,,,,,,2023-08-16_08h43.48.481,HF_wild_card,2022.2.4,Win32,60.89392279,61688d6c15deec9c3554760e,64d2fd46c836a06233681665,64dc7d10792e1824bf53d2cd,,,,,,,decisionTrl,resources/DG.BMP,resources/DY.BMP,Door3,0.338888889,-0.033333333,1,0,0,0.63,optionRight,70,15430,7,19,0,19,0,1,,,,,,,,,,,,,,,,,,,,,,,,,,,,,,,,,,,,,,,
,,,,,,,,2023-08-16_08h43.48.481,HF_wild_card,2022.2.4,Win32,60.89392279,61688d6c15deec9c3554760e,64d2fd46c836a06233681665,64dc7d10792e1824bf53d2cd,,,,,,,decisionTrl,resources/DR.BMP,resources/DB.BMP,Door1,-0.403703704,0.001851852,1,0,0,1.1127,optionLeft,30,15460,7,20,0,20,0,1,,,,,,,,,,,,,,,,,,,,,,,,,,,,,,,,,,,,,,,
,,,,,,,,2023-08-16_08h43.48.481,HF_wild_card,2022.2.4,Win32,60.89392279,61688d6c15deec9c3554760e,64d2fd46c836a06233681665,64dc7d10792e1824bf53d2cd,,,,,,,ctch,resources/DB.BMP,resources/DY.BMP,Door3,0.425,-0.007407407,1,0,0,0.6036,optionRight,70,15530,7,21,0,21,0,1,,,,,,,,,,,,,,,,,,,,,,,,,,,,,,,,,,,,,,,
,,,,,,,,2023-08-16_08h43.48.481,HF_wild_card,2022.2.4,Win32,60.89392279,61688d6c15deec9c3554760e,64d2fd46c836a06233681665,64dc7d10792e1824bf53d2cd,,,,,,,decisionTrl,resources/DB.BMP,resources/DR.BMP,Door1,0.281481481,-0.023148148,1,0,0,1.4077,optionRight,30,15560,7,22,0,22,0,1,,,,,,,,,,,,,,,,,,,,,,,,,,,,,,,,,,,,,,,
,,,,,,,,2023-08-16_08h43.48.481,HF_wild_card,2022.2.4,Win32,60.89392279,61688d6c15deec9c3554760e,64d2fd46c836a06233681665,64dc7d10792e1824bf53d2cd,,,,,,,ctch,resources/DR.BMP,resources/DG.BMP,Door4,0.37962963,-0.046296296,1,0,0,0.7213,optionRight,80,15640,7,23,0,23,0,1,,,,,,,,,,,,,,,,,,,,,,,,,,,,,,,,,,,,,,,
,,,,,,,,2023-08-16_08h43.48.481,HF_wild_card,2022.2.4,Win32,60.89392279,61688d6c15deec9c3554760e,64d2fd46c836a06233681665,64dc7d10792e1824bf53d2cd,,,,,,,ctch,resources/DY.BMP,resources/DB.BMP,Door3,-0.45462963,-0.093518519,1,0,0,0.8806,optionLeft,70,15710,7,24,0,24,0,1,,,,,,,,,,,,,,,,,,,,,,,,,,,,,,,,,,,,,,,
,,,,,,,,2023-08-16_08h43.48.481,HF_wild_card,2022.2.4,Win32,60.89392279,61688d6c15deec9c3554760e,64d2fd46c836a06233681665,64dc7d10792e1824bf53d2cd,,,,,,,decisionTrl,resources/DR.BMP,resources/DB.BMP,Door1,-0.342592593,-0.024074074,1,0,0,0.9797,optionLeft,30,15740,7,25,0,25,0,1,,,,,,,,,,,,,,,,,,,,,,,,,,,,,,,,,,,,,,,
,,,,,,,,2023-08-16_08h43.48.481,HF_wild_card,2022.2.4,Win32,60.89392279,61688d6c15deec9c3554760e,64d2fd46c836a06233681665,64dc7d10792e1824bf53d2cd,,,,,,,decisionTrl,resources/DG.BMP,resources/DY.BMP,Door3,0.378703704,-0.046296296,1,0,0,0.682,optionRight,70,15810,7,26,0,26,0,1,,,,,,,,,,,,,,,,,,,,,,,,,,,,,,,,,,,,,,,
,,,,,,,,2023-08-16_08h43.48.481,HF_wild_card,2022.2.4,Win32,60.89392279,61688d6c15deec9c3554760e,64d2fd46c836a06233681665,64dc7d10792e1824bf53d2cd,,,,,,,decisionTrl,resources/DR.BMP,resources/DB.BMP,Door1,-0.365740741,-0.048148148,1,0,0,0.814,optionLeft,30,15840,7,27,0,27,0,1,,,,,,,,,,,,,,,,,,,,,,,,,,,,,,,,,,,,,,,
,,,,,,,,2023-08-16_08h43.48.481,HF_wild_card,2022.2.4,Win32,60.89392279,61688d6c15deec9c3554760e,64d2fd46c836a06233681665,64dc7d10792e1824bf53d2cd,,,,,,,decisionTrl,resources/DR.BMP,resources/DB.BMP,Door1,-0.340740741,-0.037037037,1,0,0,0.6315,optionLeft,30,15870,7,28,0,28,0,1,,,,,,,,,,,,,,,,,,,,,,,,,,,,,,,,,,,,,,,
,,,,,,,,2023-08-16_08h43.48.481,HF_wild_card,2022.2.4,Win32,60.89392279,61688d6c15deec9c3554760e,64d2fd46c836a06233681665,64dc7d10792e1824bf53d2cd,,,,,,,decisionTrl,resources/DB.BMP,resources/DR.BMP,Door1,0.373148148,-0.001851852,1,0,0,0.6084,optionRight,30,15900,7,29,0,29,0,1,,,,,,,,,,,,,,,,,,,,,,,,,,,,,,,,,,,,,,,
,,,,,,,,2023-08-16_08h43.48.481,HF_wild_card,2022.2.4,Win32,60.89392279,61688d6c15deec9c3554760e,64d2fd46c836a06233681665,64dc7d10792e1824bf53d2cd,,,,,,,decisionTrl,resources/DB.BMP,resources/DR.BMP,Door1,0.388888889,-0.008333333,1,0,0,0.5654,optionRight,30,15930,7,30,0,30,0,1,,,,,,,,,,,,,,,,,,,,,,,,,,,,,,,,,,,,,,,
,,,,,,,,2023-08-16_08h43.48.481,HF_wild_card,2022.2.4,Win32,60.89392279,61688d6c15deec9c3554760e,64d2fd46c836a06233681665,64dc7d10792e1824bf53d2cd,,,,,,,decisionTrl,resources/DY.BMP,resources/DG.BMP,Door3,-0.361111111,-0.048148148,1,0,0,0.8897,optionLeft,70,16000,7,31,0,31,0,1,,,,,,,,,,,,,,,,,,,,,,,,,,,,,,,,,,,,,,,
,,,,,,,,2023-08-16_08h43.48.481,HF_wild_card,2022.2.4,Win32,60.89392279,61688d6c15deec9c3554760e,64d2fd46c836a06233681665,64dc7d10792e1824bf53d2cd,,,,,,,ctch,resources/DG.BMP,resources/DR.BMP,Door4,-0.37037037,-0.023148148,1,0,0,0.5825,optionLeft,80,16080,7,32,0,32,0,1,,,,,,,,,,,,,,,,,,,,,,,,,,,,,,,,,,,,,,,
,,,,,,,,2023-08-16_08h43.48.481,HF_wild_card,2022.2.4,Win32,60.89392279,61688d6c15deec9c3554760e,64d2fd46c836a06233681665,64dc7d10792e1824bf53d2cd,,,,,,,ctch,resources/DY.BMP,resources/DB.BMP,Door3,-0.359259259,-0.02962963,1,0,0,0.5711,optionLeft,70,16150,7,33,0,33,0,1,,,,,,,,,,,,,,,,,,,,,,,,,,,,,,,,,,,,,,,
,,,,,,,,2023-08-16_08h43.48.481,HF_wild_card,2022.2.4,Win32,60.89392279,61688d6c15deec9c3554760e,64d2fd46c836a06233681665,64dc7d10792e1824bf53d2cd,,,,,,,decisionTrl,resources/DR.BMP,resources/DB.BMP,Door1,-0.397222222,-0.030555556,1,0,0,0.998,optionLeft,30,16180,7,34,0,34,0,1,,,,,,,,,,,,,,,,,,,,,,,,,,,,,,,,,,,,,,,
,,,,,,,,2023-08-16_08h43.48.481,HF_wild_card,2022.2.4,Win32,60.89392279,61688d6c15deec9c3554760e,64d2fd46c836a06233681665,64dc7d10792e1824bf53d2cd,,,,,,,ctch,resources/DB.BMP,resources/DY.BMP,Door3,0.412962963,0.009259259,1,0,0,0.5804,optionRight,70,16250,7,35,0,35,0,1,,,,,,,,,,,,,,,,,,,,,,,,,,,,,,,,,,,,,,,
,,,,,,,,2023-08-16_08h43.48.481,HF_wild_card,2022.2.4,Win32,60.89392279,61688d6c15deec9c3554760e,64d2fd46c836a06233681665,64dc7d10792e1824bf53d2cd,,,,,,,,,,,,,,,,,,,,,,,,,,6,0,6,0,1,,,,,,,,,,,,,,,,,,,,,,,,,,,,,,,,,,
,,,,,,,,2023-08-16_08h43.48.481,HF_wild_card,2022.2.4,Win32,60.89392279,61688d6c15deec9c3554760e,64d2fd46c836a06233681665,64dc7d10792e1824bf53d2cd,,,,,,,,,,,,,,,,,,,,,,,,,,,,,,,4,,,,,,,,,,,,,,,,,,,,,,,,,,,,,,,,,
,,,,,,,,2023-08-16_08h43.48.481,HF_wild_card,2022.2.4,Win32,60.89392279,61688d6c15deec9c3554760e,64d2fd46c836a06233681665,64dc7d10792e1824bf53d2cd,,,,,,,,,,,,,,,,,,,,,,,,,,,,,,,,,,,,,,,,,,,,,,,,,,,,,,,,,,,,,,,,
,,,,,,,,2023-08-16_08h43.48.481,HF_wild_card,2022.2.4,Win32,60.89392279,61688d6c15deec9c3554760e,64d2fd46c836a06233681665,64dc7d10792e1824bf53d2cd,,,,,,,,,,,,,,,,,,,,,,,,,,,,,,,,70,Door3,resources/DY.BMP,0,0,0,0,1,,,,,,,,,,,,,,,,,,,,,,,,,
,,,,,,,,2023-08-16_08h43.48.481,HF_wild_card,2022.2.4,Win32,60.89392279,61688d6c15deec9c3554760e,64d2fd46c836a06233681665,64dc7d10792e1824bf53d2cd,,,,,,,,,,,,,,,,,,,,,,,,,,,,,,,,95,WC_extreme,resources/DBN.BMP,1,0,1,0,1,,,,,,,,,,,,,,,,,,,,,,,,,
,,,,,,,,2023-08-16_08h43.48.481,HF_wild_card,2022.2.4,Win32,60.89392279,61688d6c15deec9c3554760e,64d2fd46c836a06233681665,64dc7d10792e1824bf53d2cd,,,,,,,,,,,,,,,,,,,,,,,,,,,,,,,,30,Door2,resources/DB.BMP,2,0,2,0,1,,,,,,,,,,,,,,,,,,,,,,,,,
,,,,,,,,2023-08-16_08h43.48.481,HF_wild_card,2022.2.4,Win32,60.89392279,61688d6c15deec9c3554760e,64d2fd46c836a06233681665,64dc7d10792e1824bf53d2cd,,,,,,,,,,,,,,,,,,,,,,,,,,,,,,,,60,Door4,resources/DG.BMP,3,0,3,0,1,,,,,,,,,,,,,,,,,,,,,,,,,
,,,,,,,,2023-08-16_08h43.48.481,HF_wild_card,2022.2.4,Win32,60.89392279,61688d6c15deec9c3554760e,64d2fd46c836a06233681665,64dc7d10792e1824bf53d2cd,,,,,,,,,,,,,,,,,,,,,,,,,,,,,,,,55,WC_nonExtreme,resources/DP.BMP,4,0,4,0,1,,,,,,,,,,,,,,,,,,,,,,,,,
,,,,,,,,2023-08-16_08h43.48.481,HF_wild_card,2022.2.4,Win32,60.89392279,61688d6c15deec9c3554760e,64d2fd46c836a06233681665,64dc7d10792e1824bf53d2cd,,,,,,,,,,,,,,,,,,,,,,,,,,,,,,,,30,Door1,resources/DR.BMP,5,0,5,0,1,,,,,,,,,,,,,,,,,,,,,,,,,
,,,,,,,,2023-08-16_08h43.48.481,HF_wild_card,2022.2.4,Win32,60.89392279,61688d6c15deec9c3554760e,64d2fd46c836a06233681665,64dc7d10792e1824bf53d2cd,,,,,,,,,,,,,,,,,,,,,,,,,,,,,,,,,,,,,,,,,,,,,,,,,,,,,,,,,,,,,,,,
,,,,,,,,2023-08-16_08h43.48.481,HF_wild_card,2022.2.4,Win32,60.89392279,61688d6c15deec9c3554760e,64d2fd46c836a06233681665,64dc7d10792e1824bf53d2cd,,,,,,,,,,,,,,,,,,,,,,,,,,,,,,,,,,,,,,,,0,0,0,0,1,,,,,,,,,,,,,,,,,,,,
