Condition,Low fixed image (Door1),Low risky image (Door2),High fixed image (Door3),High risky image (Door4),NonExtreme Wild Card 1,NonExtreme Wild Card 2,,date,expName,psychopyVersion,OS,frameRate,PROLIFIC_PID,STUDY_ID,SESSION_ID,mouse_2.x,mouse_2.y,mouse_2.leftButton,mouse_2.midButton,mouse_2.rightButton,mouse_2.clicked_name,Trial Type,Left Option Image,Right Option Image,Chosen Door,mouse.x,mouse.y,mouse.leftButton,mouse.midButton,mouse.rightButton,mouse.time,mouse.clicked_name,Feedback,Cumulative Reward,Block,trial.thisRepN,trial.thisTrialN,trial.thisN,trial.thisIndex,trial.ran,blocks.thisRepN,blocks.thisTrialN,blocks.thisN,blocks.thisIndex,blocks.ran,Money conversion,First Outcome Reported,Shown Door (First Outcome),Displayed Image (First Outcome),outcomes.thisRepN,outcomes.thisTrialN,outcomes.thisN,outcomes.thisIndex,outcomes.ran,judgments.thisRepN,judgments.thisTrialN,judgments.thisN,judgments.thisIndex,judgments.ran,freqMouse.x,freqMouse.y,freqMouse.leftButton,freqMouse.midButton,freqMouse.rightButton,freqMouse.clicked_name,FQJ for first outcome,FQJ for second outcome,Shown Door,Displayed Image,trials.thisRepN,trials.thisTrialN,trials.thisN,trials.thisIndex,trials.ran,judgBlock.thisRepN,judgBlock.thisTrialN,judgBlock.thisN,judgBlock.thisIndex,judgBlock.ran
2,resources/DY.BMP,resources/DR.BMP,resources/DP.BMP,resources/DB.BMP,resources/DG.BMP,resources/DBN.BMP,,2023-08-06_08h28.29.129,HF_wild_card,2022.2.4,MacIntel,59.99880002,5d53bdc9b18d590018dac171,64ce5acb97489d65b14ecc7a,64cf4b8c910285c0698e9f31,,,,,,,,,,,,,,,,,,,,,,,,,,,,,,,,,,,,,,,,,,,,,,,,,,,,,,,,,,,,,,,,
,,,,,,,,2023-08-06_08h28.29.129,HF_wild_card,2022.2.4,MacIntel,59.99880002,5d53bdc9b18d590018dac171,64ce5acb97489d65b14ecc7a,64cf4b8c910285c0698e9f31,0.017048611,-0.416736111,1,0,0,agree,,,,,,,,,,,,,,,,,,,,,,,,,,,,,,,,,,,,,,,,,,,,,,,,,,,,,,,,,,
,,,,,,,,2023-08-06_08h28.29.129,HF_wild_card,2022.2.4,MacIntel,59.99880002,5d53bdc9b18d590018dac171,64ce5acb97489d65b14ecc7a,64cf4b8c910285c0698e9f31,,,,,,,,,,,,,,,,,,,,,,,,,,,,,,,,,,,,,,,,,,,,,,,,,,,,,,,,,,,,,,,,
,,,,,,,,2023-08-06_08h28.29.129,HF_wild_card,2022.2.4,MacIntel,59.99880002,5d53bdc9b18d590018dac171,64ce5acb97489d65b14ecc7a,64cf4b8c910285c0698e9f31,,,,,,,decisionTrl,resources/DB.BMP,resources/DBN.BMP,Door4,-0.363867188,-0.05468316,1,0,0,6.013,optionLeft,80,80,1,0,0,0,0,1,,,,,,,,,,,,,,,,,,,,,,,,,,,,,,,,,,,,,,,
,,,,,,,,2023-08-06_08h28.29.129,HF_wild_card,2022.2.4,MacIntel,59.99880002,5d53bdc9b18d590018dac171,64ce5acb97489d65b14ecc7a,64cf4b8c910285c0698e9f31,,,,,,,decisionTrl,resources/DY.BMP,resources/DR.BMP,Door1,-0.354700521,-0.045108507,1,0,0,2.9807,optionLeft,30,110,1,1,0,1,0,1,,,,,,,,,,,,,,,,,,,,,,,,,,,,,,,,,,,,,,,
,,,,,,,,2023-08-06_08h28.29.129,HF_wild_card,2022.2.4,MacIntel,59.99880002,5d53bdc9b18d590018dac171,64ce5acb97489d65b14ecc7a,64cf4b8c910285c0698e9f31,,,,,,,decisionTrl,resources/DB.BMP,resources/DP.BMP,Door4,-0.380833333,-0.026809896,1,0,0,2.0455,optionLeft,60,170,1,2,0,2,0,1,,,,,,,,,,,,,,,,,,,,,,,,,,,,,,,,,,,,,,,
,,,,,,,,2023-08-06_08h28.29.129,HF_wild_card,2022.2.4,MacIntel,59.99880002,5d53bdc9b18d590018dac171,64ce5acb97489d65b14ecc7a,64cf4b8c910285c0698e9f31,,,,,,,decisionTrl,resources/DY.BMP,resources/DR.BMP,Door1,-0.334157986,-0.046354167,1,0,0,3.4113,optionLeft,30,200,1,3,0,3,0,1,,,,,,,,,,,,,,,,,,,,,,,,,,,,,,,,,,,,,,,
,,,,,,,,2023-08-06_08h28.29.129,HF_wild_card,2022.2.4,MacIntel,59.99880002,5d53bdc9b18d590018dac171,64ce5acb97489d65b14ecc7a,64cf4b8c910285c0698e9f31,,,,,,,ctch,resources/DP.BMP,resources/DR.BMP,Door2,0.438324653,-0.081436632,1,0,0,1.3604,optionRight,20,220,1,4,0,4,0,1,,,,,,,,,,,,,,,,,,,,,,,,,,,,,,,,,,,,,,,
,,,,,,,,2023-08-06_08h28.29.129,HF_wild_card,2022.2.4,MacIntel,59.99880002,5d53bdc9b18d590018dac171,64ce5acb97489d65b14ecc7a,64cf4b8c910285c0698e9f31,,,,,,,decisionTrl,resources/DR.BMP,resources/DY.BMP,Door1,0.363797743,-0.062243924,1,0,0,1.76,optionRight,30,250,1,5,0,5,0,1,,,,,,,,,,,,,,,,,,,,,,,,,,,,,,,,,,,,,,,
,,,,,,,,2023-08-06_08h28.29.129,HF_wild_card,2022.2.4,MacIntel,59.99880002,5d53bdc9b18d590018dac171,64ce5acb97489d65b14ecc7a,64cf4b8c910285c0698e9f31,,,,,,,sngl,resources/Empty.png,resources/DP.BMP,Door3,0.28781684,-0.006948785,1,0,0,2.2102,optionRight,70,320,1,6,0,6,0,1,,,,,,,,,,,,,,,,,,,,,,,,,,,,,,,,,,,,,,,
,,,,,,,,2023-08-06_08h28.29.129,HF_wild_card,2022.2.4,MacIntel,59.99880002,5d53bdc9b18d590018dac171,64ce5acb97489d65b14ecc7a,64cf4b8c910285c0698e9f31,,,,,,,decisionTrl,resources/DP.BMP,resources/DB.BMP,Door3,-0.356050347,-0.031471354,1,0,0,4.509,optionLeft,70,390,1,7,0,7,0,1,,,,,,,,,,,,,,,,,,,,,,,,,,,,,,,,,,,,,,,
,,,,,,,,2023-08-06_08h28.29.129,HF_wild_card,2022.2.4,MacIntel,59.99880002,5d53bdc9b18d590018dac171,64ce5acb97489d65b14ecc7a,64cf4b8c910285c0698e9f31,,,,,,,decisionTrl,resources/DR.BMP,resources/DY.BMP,Door1,0.440668403,-0.085989583,1,0,0,2.7622,optionRight,30,420,1,8,0,8,0,1,,,,,,,,,,,,,,,,,,,,,,,,,,,,,,,,,,,,,,,
,,,,,,,,2023-08-06_08h28.29.129,HF_wild_card,2022.2.4,MacIntel,59.99880002,5d53bdc9b18d590018dac171,64ce5acb97489d65b14ecc7a,64cf4b8c910285c0698e9f31,,,,,,,sngl,resources/DBN.BMP,resources/Empty.png,WildCard_NonEx,-0.335638021,0.022126736,1,0,0,1.3402,optionLeft,55,475,1,9,0,9,0,1,,,,,,,,,,,,,,,,,,,,,,,,,,,,,,,,,,,,,,,
,,,,,,,,2023-08-06_08h28.29.129,HF_wild_card,2022.2.4,MacIntel,59.99880002,5d53bdc9b18d590018dac171,64ce5acb97489d65b14ecc7a,64cf4b8c910285c0698e9f31,,,,,,,ctch,resources/DY.BMP,resources/DB.BMP,Door4,0.388224826,-0.046458333,1,0,0,3.4616,optionRight,60,535,1,10,0,10,0,1,,,,,,,,,,,,,,,,,,,,,,,,,,,,,,,,,,,,,,,
,,,,,,,,2023-08-06_08h28.29.129,HF_wild_card,2022.2.4,MacIntel,59.99880002,5d53bdc9b18d590018dac171,64ce5acb97489d65b14ecc7a,64cf4b8c910285c0698e9f31,,,,,,,decisionTrl,resources/DY.BMP,resources/DR.BMP,Door2,0.416631944,-0.141002604,1,0,0,1.7472,optionRight,40,575,1,11,0,11,0,1,,,,,,,,,,,,,,,,,,,,,,,,,,,,,,,,,,,,,,,
,,,,,,,,2023-08-06_08h28.29.129,HF_wild_card,2022.2.4,MacIntel,59.99880002,5d53bdc9b18d590018dac171,64ce5acb97489d65b14ecc7a,64cf4b8c910285c0698e9f31,,,,,,,decisionTrl,resources/DR.BMP,resources/DY.BMP,Door2,-0.344908854,-0.032356771,1,0,0,3.0971,optionLeft,40,615,1,12,0,12,0,1,,,,,,,,,,,,,,,,,,,,,,,,,,,,,,,,,,,,,,,
,,,,,,,,2023-08-06_08h28.29.129,HF_wild_card,2022.2.4,MacIntel,59.99880002,5d53bdc9b18d590018dac171,64ce5acb97489d65b14ecc7a,64cf4b8c910285c0698e9f31,,,,,,,sngl,resources/Empty.png,resources/DY.BMP,Door1,0.429500868,-0.003702257,1,0,0,2.4275,optionRight,30,645,1,13,0,13,0,1,,,,,,,,,,,,,,,,,,,,,,,,,,,,,,,,,,,,,,,
,,,,,,,,2023-08-06_08h28.29.129,HF_wild_card,2022.2.4,MacIntel,59.99880002,5d53bdc9b18d590018dac171,64ce5acb97489d65b14ecc7a,64cf4b8c910285c0698e9f31,,,,,,,decisionTrl,resources/DB.BMP,resources/DP.BMP,Door3,0.504301215,-0.036853299,1,0,0,6.2958,optionRight,70,715,1,14,0,14,0,1,,,,,,,,,,,,,,,,,,,,,,,,,,,,,,,,,,,,,,,
,,,,,,,,2023-08-06_08h28.29.129,HF_wild_card,2022.2.4,MacIntel,59.99880002,5d53bdc9b18d590018dac171,64ce5acb97489d65b14ecc7a,64cf4b8c910285c0698e9f31,,,,,,,sngl,resources/DY.BMP,resources/Empty.png,Door1,-0.279157986,0.004761285,1,0,0,2.0477,optionLeft,30,745,1,15,0,15,0,1,,,,,,,,,,,,,,,,,,,,,,,,,,,,,,,,,,,,,,,
,,,,,,,,2023-08-06_08h28.29.129,HF_wild_card,2022.2.4,MacIntel,59.99880002,5d53bdc9b18d590018dac171,64ce5acb97489d65b14ecc7a,64cf4b8c910285c0698e9f31,,,,,,,ctch,resources/DY.BMP,resources/DB.BMP,Door4,0.350603299,-0.018151042,1,0,0,4.079,optionRight,80,825,1,16,0,16,0,1,,,,,,,,,,,,,,,,,,,,,,,,,,,,,,,,,,,,,,,
,,,,,,,,2023-08-06_08h28.29.129,HF_wild_card,2022.2.4,MacIntel,59.99880002,5d53bdc9b18d590018dac171,64ce5acb97489d65b14ecc7a,64cf4b8c910285c0698e9f31,,,,,,,sngl,resources/DR.BMP,resources/Empty.png,Door2,-0.307200521,-0.043428819,1,0,0,2.5282,optionLeft,40,865,1,17,0,17,0,1,,,,,,,,,,,,,,,,,,,,,,,,,,,,,,,,,,,,,,,
,,,,,,,,2023-08-06_08h28.29.129,HF_wild_card,2022.2.4,MacIntel,59.99880002,5d53bdc9b18d590018dac171,64ce5acb97489d65b14ecc7a,64cf4b8c910285c0698e9f31,,,,,,,sngl,resources/DBN.BMP,resources/Empty.png,WildCard_NonEx,-0.317174479,0.056458333,1,0,0,2.4915,optionLeft,45,910,1,18,0,18,0,1,,,,,,,,,,,,,,,,,,,,,,,,,,,,,,,,,,,,,,,
,,,,,,,,2023-08-06_08h28.29.129,HF_wild_card,2022.2.4,MacIntel,59.99880002,5d53bdc9b18d590018dac171,64ce5acb97489d65b14ecc7a,64cf4b8c910285c0698e9f31,,,,,,,ctch,resources/DP.BMP,resources/DR.BMP,Door3,-0.351497396,-0.005724826,1,0,0,7.4,optionLeft,70,980,1,19,0,19,0,1,,,,,,,,,,,,,,,,,,,,,,,,,,,,,,,,,,,,,,,
,,,,,,,,2023-08-06_08h28.29.129,HF_wild_card,2022.2.4,MacIntel,59.99880002,5d53bdc9b18d590018dac171,64ce5acb97489d65b14ecc7a,64cf4b8c910285c0698e9f31,,,,,,,ctch,resources/DR.BMP,resources/DP.BMP,Door3,0.403229167,-0.059457465,1,0,0,2.8126,optionRight,70,1050,1,20,0,20,0,1,,,,,,,,,,,,,,,,,,,,,,,,,,,,,,,,,,,,,,,
,,,,,,,,2023-08-06_08h28.29.129,HF_wild_card,2022.2.4,MacIntel,59.99880002,5d53bdc9b18d590018dac171,64ce5acb97489d65b14ecc7a,64cf4b8c910285c0698e9f31,,,,,,,decisionTrl,resources/DBN.BMP,resources/DP.BMP,Door3,0.418645833,-0.016432292,1,0,0,3.9771,optionRight,70,1120,1,21,0,21,0,1,,,,,,,,,,,,,,,,,,,,,,,,,,,,,,,,,,,,,,,
,,,,,,,,2023-08-06_08h28.29.129,HF_wild_card,2022.2.4,MacIntel,59.99880002,5d53bdc9b18d590018dac171,64ce5acb97489d65b14ecc7a,64cf4b8c910285c0698e9f31,,,,,,,sngl,resources/Empty.png,resources/DBN.BMP,WildCard_NonEx,0.411197917,-0.050837674,1,0,0,1.9456,optionRight,55,1175,1,22,0,22,0,1,,,,,,,,,,,,,,,,,,,,,,,,,,,,,,,,,,,,,,,
,,,,,,,,2023-08-06_08h28.29.129,HF_wild_card,2022.2.4,MacIntel,59.99880002,5d53bdc9b18d590018dac171,64ce5acb97489d65b14ecc7a,64cf4b8c910285c0698e9f31,,,,,,,decisionTrl,resources/DB.BMP,resources/DP.BMP,Door3,0.468780382,-0.052873264,1,0,0,5.7485,optionRight,70,1245,1,23,0,23,0,1,,,,,,,,,,,,,,,,,,,,,,,,,,,,,,,,,,,,,,,
,,,,,,,,2023-08-06_08h28.29.129,HF_wild_card,2022.2.4,MacIntel,59.99880002,5d53bdc9b18d590018dac171,64ce5acb97489d65b14ecc7a,64cf4b8c910285c0698e9f31,,,,,,,decisionTrl,resources/DP.BMP,resources/DB.BMP,Door3,-0.411297743,-0.048172743,1,0,0,1.64,optionLeft,70,1315,1,24,0,24,0,1,,,,,,,,,,,,,,,,,,,,,,,,,,,,,,,,,,,,,,,
,,,,,,,,2023-08-06_08h28.29.129,HF_wild_card,2022.2.4,MacIntel,59.99880002,5d53bdc9b18d590018dac171,64ce5acb97489d65b14ecc7a,64cf4b8c910285c0698e9f31,,,,,,,ctch,resources/DB.BMP,resources/DY.BMP,Door4,-0.394748264,-0.033515625,1,0,0,4.2773,optionLeft,60,1375,1,25,0,25,0,1,,,,,,,,,,,,,,,,,,,,,,,,,,,,,,,,,,,,,,,
,,,,,,,,2023-08-06_08h28.29.129,HF_wild_card,2022.2.4,MacIntel,59.99880002,5d53bdc9b18d590018dac171,64ce5acb97489d65b14ecc7a,64cf4b8c910285c0698e9f31,,,,,,,decisionTrl,resources/DBN.BMP,resources/DB.BMP,Door4,0.420399306,0.008563368,1,0,0,5.296,optionRight,60,1435,1,26,0,26,0,1,,,,,,,,,,,,,,,,,,,,,,,,,,,,,,,,,,,,,,,
,,,,,,,,2023-08-06_08h28.29.129,HF_wild_card,2022.2.4,MacIntel,59.99880002,5d53bdc9b18d590018dac171,64ce5acb97489d65b14ecc7a,64cf4b8c910285c0698e9f31,,,,,,,decisionTrl,resources/DP.BMP,resources/DBN.BMP,Door3,-0.3340625,-0.047317708,1,0,0,3.0933,optionLeft,70,1505,1,27,0,27,0,1,,,,,,,,,,,,,,,,,,,,,,,,,,,,,,,,,,,,,,,
,,,,,,,,2023-08-06_08h28.29.129,HF_wild_card,2022.2.4,MacIntel,59.99880002,5d53bdc9b18d590018dac171,64ce5acb97489d65b14ecc7a,64cf4b8c910285c0698e9f31,,,,,,,sngl,resources/DB.BMP,resources/Empty.png,Door4,-0.347018229,-0.021931424,1,0,0,1.7777,optionLeft,80,1585,1,28,0,28,0,1,,,,,,,,,,,,,,,,,,,,,,,,,,,,,,,,,,,,,,,
,,,,,,,,2023-08-06_08h28.29.129,HF_wild_card,2022.2.4,MacIntel,59.99880002,5d53bdc9b18d590018dac171,64ce5acb97489d65b14ecc7a,64cf4b8c910285c0698e9f31,,,,,,,sngl,resources/Empty.png,resources/DB.BMP,Door4,0.386124132,-0.029969618,1,0,0,1.1654,optionRight,60,1645,1,29,0,29,0,1,,,,,,,,,,,,,,,,,,,,,,,,,,,,,,,,,,,,,,,
,,,,,,,,2023-08-06_08h28.29.129,HF_wild_card,2022.2.4,MacIntel,59.99880002,5d53bdc9b18d590018dac171,64ce5acb97489d65b14ecc7a,64cf4b8c910285c0698e9f31,,,,,,,sngl,resources/DP.BMP,resources/Empty.png,Door3,-0.38843316,-0.050633681,1,0,0,1.2592,optionLeft,70,1715,1,30,0,30,0,1,,,,,,,,,,,,,,,,,,,,,,,,,,,,,,,,,,,,,,,
,,,,,,,,2023-08-06_08h28.29.129,HF_wild_card,2022.2.4,MacIntel,59.99880002,5d53bdc9b18d590018dac171,64ce5acb97489d65b14ecc7a,64cf4b8c910285c0698e9f31,,,,,,,decisionTrl,resources/DBN.BMP,resources/DR.BMP,WildCard_NonEx,-0.294392361,-0.045716146,1,0,0,4.3628,optionLeft,55,1770,1,31,0,31,0,1,,,,,,,,,,,,,,,,,,,,,,,,,,,,,,,,,,,,,,,
,,,,,,,,2023-08-06_08h28.29.129,HF_wild_card,2022.2.4,MacIntel,59.99880002,5d53bdc9b18d590018dac171,64ce5acb97489d65b14ecc7a,64cf4b8c910285c0698e9f31,,,,,,,sngl,resources/Empty.png,resources/DR.BMP,Door2,0.412148438,-0.031341146,1,0,0,1.2927,optionRight,20,1790,1,32,0,32,0,1,,,,,,,,,,,,,,,,,,,,,,,,,,,,,,,,,,,,,,,
,,,,,,,,2023-08-06_08h28.29.129,HF_wild_card,2022.2.4,MacIntel,59.99880002,5d53bdc9b18d590018dac171,64ce5acb97489d65b14ecc7a,64cf4b8c910285c0698e9f31,,,,,,,decisionTrl,resources/DP.BMP,resources/DB.BMP,Door3,-0.313046875,-0.044188368,1,0,0,1.8345,optionLeft,70,1860,1,33,0,33,0,1,,,,,,,,,,,,,,,,,,,,,,,,,,,,,,,,,,,,,,,
,,,,,,,,2023-08-06_08h28.29.129,HF_wild_card,2022.2.4,MacIntel,59.99880002,5d53bdc9b18d590018dac171,64ce5acb97489d65b14ecc7a,64cf4b8c910285c0698e9f31,,,,,,,ctch,resources/DB.BMP,resources/DY.BMP,Door4,-0.328663194,-0.030733507,1,0,0,4.0964,optionLeft,60,1920,1,34,0,34,0,1,,,,,,,,,,,,,,,,,,,,,,,,,,,,,,,,,,,,,,,
,,,,,,,,2023-08-06_08h28.29.129,HF_wild_card,2022.2.4,MacIntel,59.99880002,5d53bdc9b18d590018dac171,64ce5acb97489d65b14ecc7a,64cf4b8c910285c0698e9f31,,,,,,,decisionTrl,resources/DY.BMP,resources/DR.BMP,Door2,0.375633681,-0.006697049,1,0,0,7.1124,optionRight,20,1940,1,35,0,35,0,1,,,,,,,,,,,,,,,,,,,,,,,,,,,,,,,,,,,,,,,
,,,,,,,,2023-08-06_08h28.29.129,HF_wild_card,2022.2.4,MacIntel,59.99880002,5d53bdc9b18d590018dac171,64ce5acb97489d65b14ecc7a,64cf4b8c910285c0698e9f31,,,,,,,ctch,resources/DR.BMP,resources/DP.BMP,Door3,0.465538194,-0.095568576,1,0,0,1.4113,optionRight,70,2010,1,36,0,36,0,1,,,,,,,,,,,,,,,,,,,,,,,,,,,,,,,,,,,,,,,
,,,,,,,,2023-08-06_08h28.29.129,HF_wild_card,2022.2.4,MacIntel,59.99880002,5d53bdc9b18d590018dac171,64ce5acb97489d65b14ecc7a,64cf4b8c910285c0698e9f31,,,,,,,sngl,resources/Empty.png,resources/DBN.BMP,WildCard_NonEx,0.323949653,-0.009331597,1,0,0,1.2641,optionRight,45,2055,1,37,0,37,0,1,,,,,,,,,,,,,,,,,,,,,,,,,,,,,,,,,,,,,,,
,,,,,,,,2023-08-06_08h28.29.129,HF_wild_card,2022.2.4,MacIntel,59.99880002,5d53bdc9b18d590018dac171,64ce5acb97489d65b14ecc7a,64cf4b8c910285c0698e9f31,,,,,,,decisionTrl,resources/DP.BMP,resources/DB.BMP,Door3,-0.502313368,0.00046441,1,0,0,1.2276,optionLeft,70,2125,1,38,0,38,0,1,,,,,,,,,,,,,,,,,,,,,,,,,,,,,,,,,,,,,,,
,,,,,,,,2023-08-06_08h28.29.129,HF_wild_card,2022.2.4,MacIntel,59.99880002,5d53bdc9b18d590018dac171,64ce5acb97489d65b14ecc7a,64cf4b8c910285c0698e9f31,,,,,,,decisionTrl,resources/DR.BMP,resources/DBN.BMP,WildCard_NonEx,0.381002604,-0.029027778,1,0,0,4.1143,optionRight,45,2170,1,39,0,39,0,1,,,,,,,,,,,,,,,,,,,,,,,,,,,,,,,,,,,,,,,
,,,,,,,,2023-08-06_08h28.29.129,HF_wild_card,2022.2.4,MacIntel,59.99880002,5d53bdc9b18d590018dac171,64ce5acb97489d65b14ecc7a,64cf4b8c910285c0698e9f31,,,,,,,decisionTrl,resources/DY.BMP,resources/DBN.BMP,WildCard_NonEx,0.275407986,-0.088407118,1,0,0,3.4775,optionRight,45,2215,1,40,0,40,0,1,,,,,,,,,,,,,,,,,,,,,,,,,,,,,,,,,,,,,,,
,,,,,,,,2023-08-06_08h28.29.129,HF_wild_card,2022.2.4,MacIntel,59.99880002,5d53bdc9b18d590018dac171,64ce5acb97489d65b14ecc7a,64cf4b8c910285c0698e9f31,,,,,,,decisionTrl,resources/DBN.BMP,resources/DY.BMP,WildCard_NonEx,-0.302469618,-0.027560764,1,0,0,2.8429,optionLeft,45,2260,1,41,0,41,0,1,,,,,,,,,,,,,,,,,,,,,,,,,,,,,,,,,,,,,,,
,,,,,,,,2023-08-06_08h28.29.129,HF_wild_card,2022.2.4,MacIntel,59.99880002,5d53bdc9b18d590018dac171,64ce5acb97489d65b14ecc7a,64cf4b8c910285c0698e9f31,,,,,,,decisionTrl,resources/DR.BMP,resources/DY.BMP,Door2,-0.408888889,-0.031054688,1,0,0,4.5281,optionLeft,40,2300,1,42,0,42,0,1,,,,,,,,,,,,,,,,,,,,,,,,,,,,,,,,,,,,,,,
,,,,,,,,2023-08-06_08h28.29.129,HF_wild_card,2022.2.4,MacIntel,59.99880002,5d53bdc9b18d590018dac171,64ce5acb97489d65b14ecc7a,64cf4b8c910285c0698e9f31,,,,,,,decisionTrl,resources/DB.BMP,resources/DP.BMP,Door3,0.358259549,-0.049153646,1,0,0,1.1122,optionRight,70,2370,1,43,0,43,0,1,,,,,,,,,,,,,,,,,,,,,,,,,,,,,,,,,,,,,,,
,,,,,,,,2023-08-06_08h28.29.129,HF_wild_card,2022.2.4,MacIntel,59.99880002,5d53bdc9b18d590018dac171,64ce5acb97489d65b14ecc7a,64cf4b8c910285c0698e9f31,,,,,,,,,,,,,,,,,,,,,,,,,,0,0,0,0,1,,,,,,,,,,,,,,,,,,,,,,,,,,,,,,,,,,
,,,,,,,,2023-08-06_08h28.29.129,HF_wild_card,2022.2.4,MacIntel,59.99880002,5d53bdc9b18d590018dac171,64ce5acb97489d65b14ecc7a,64cf4b8c910285c0698e9f31,,,,,,,decisionTrl,resources/DP.BMP,resources/DB.BMP,Door3,-0.391584201,-0.072994792,1,0,0,1.6274,optionLeft,70,2440,2,0,0,0,0,1,,,,,,,,,,,,,,,,,,,,,,,,,,,,,,,,,,,,,,,
,,,,,,,,2023-08-06_08h28.29.129,HF_wild_card,2022.2.4,MacIntel,59.99880002,5d53bdc9b18d590018dac171,64ce5acb97489d65b14ecc7a,64cf4b8c910285c0698e9f31,,,,,,,ctch,resources/DP.BMP,resources/DR.BMP,Door3,-0.331549479,-0.037382813,1,0,0,1.0116,optionLeft,70,2510,2,1,0,1,0,1,,,,,,,,,,,,,,,,,,,,,,,,,,,,,,,,,,,,,,,
,,,,,,,,2023-08-06_08h28.29.129,HF_wild_card,2022.2.4,MacIntel,59.99880002,5d53bdc9b18d590018dac171,64ce5acb97489d65b14ecc7a,64cf4b8c910285c0698e9f31,,,,,,,sngl,resources/DP.BMP,resources/Empty.png,Door3,-0.354635417,-0.068997396,1,0,0,0.8796,optionLeft,70,2580,2,2,0,2,0,1,,,,,,,,,,,,,,,,,,,,,,,,,,,,,,,,,,,,,,,
,,,,,,,,2023-08-06_08h28.29.129,HF_wild_card,2022.2.4,MacIntel,59.99880002,5d53bdc9b18d590018dac171,64ce5acb97489d65b14ecc7a,64cf4b8c910285c0698e9f31,,,,,,,sngl,resources/DBN.BMP,resources/Empty.png,WildCard_NonEx,-0.342434896,-0.027052951,1,0,0,1.097,optionLeft,45,2625,2,3,0,3,0,1,,,,,,,,,,,,,,,,,,,,,,,,,,,,,,,,,,,,,,,
,,,,,,,,2023-08-06_08h28.29.129,HF_wild_card,2022.2.4,MacIntel,59.99880002,5d53bdc9b18d590018dac171,64ce5acb97489d65b14ecc7a,64cf4b8c910285c0698e9f31,,,,,,,decisionTrl,resources/DY.BMP,resources/DR.BMP,Door2,0.405664062,0.019344618,1,0,0,4.263,optionRight,20,2645,2,4,0,4,0,1,,,,,,,,,,,,,,,,,,,,,,,,,,,,,,,,,,,,,,,
,,,,,,,,2023-08-06_08h28.29.129,HF_wild_card,2022.2.4,MacIntel,59.99880002,5d53bdc9b18d590018dac171,64ce5acb97489d65b14ecc7a,64cf4b8c910285c0698e9f31,,,,,,,decisionTrl,resources/DBN.BMP,resources/DB.BMP,WildCard_NonEx,-0.372955729,-0.042734375,1,0,0,2.4791,optionLeft,45,2690,2,5,0,5,0,1,,,,,,,,,,,,,,,,,,,,,,,,,,,,,,,,,,,,,,,
,,,,,,,,2023-08-06_08h28.29.129,HF_wild_card,2022.2.4,MacIntel,59.99880002,5d53bdc9b18d590018dac171,64ce5acb97489d65b14ecc7a,64cf4b8c910285c0698e9f31,,,,,,,ctch,resources/DY.BMP,resources/DB.BMP,Door4,0.204075521,0.035364583,1,0,0,2.3124,optionRight,80,2770,2,6,0,6,0,1,,,,,,,,,,,,,,,,,,,,,,,,,,,,,,,,,,,,,,,
,,,,,,,,2023-08-06_08h28.29.129,HF_wild_card,2022.2.4,MacIntel,59.99880002,5d53bdc9b18d590018dac171,64ce5acb97489d65b14ecc7a,64cf4b8c910285c0698e9f31,,,,,,,decisionTrl,resources/DR.BMP,resources/DY.BMP,Door2,-0.317929688,0.000546875,1,0,0,8.8117,optionLeft,20,2790,2,7,0,7,0,1,,,,,,,,,,,,,,,,,,,,,,,,,,,,,,,,,,,,,,,
,,,,,,,,2023-08-06_08h28.29.129,HF_wild_card,2022.2.4,MacIntel,59.99880002,5d53bdc9b18d590018dac171,64ce5acb97489d65b14ecc7a,64cf4b8c910285c0698e9f31,,,,,,,sngl,resources/DB.BMP,resources/Empty.png,Door4,-0.290876736,-0.006762153,1,0,0,1.0105,optionLeft,60,2850,2,8,0,8,0,1,,,,,,,,,,,,,,,,,,,,,,,,,,,,,,,,,,,,,,,
,,,,,,,,2023-08-06_08h28.29.129,HF_wild_card,2022.2.4,MacIntel,59.99880002,5d53bdc9b18d590018dac171,64ce5acb97489d65b14ecc7a,64cf4b8c910285c0698e9f31,,,,,,,decisionTrl,resources/DR.BMP,resources/DY.BMP,Door1,0.43516059,-0.003632813,1,0,0,1.7269,optionRight,30,2880,2,9,0,9,0,1,,,,,,,,,,,,,,,,,,,,,,,,,,,,,,,,,,,,,,,
,,,,,,,,2023-08-06_08h28.29.129,HF_wild_card,2022.2.4,MacIntel,59.99880002,5d53bdc9b18d590018dac171,64ce5acb97489d65b14ecc7a,64cf4b8c910285c0698e9f31,,,,,,,decisionTrl,resources/DBN.BMP,resources/DP.BMP,Door3,0.469513889,-0.035512153,1,0,0,2.9972,optionRight,70,2950,2,10,0,10,0,1,,,,,,,,,,,,,,,,,,,,,,,,,,,,,,,,,,,,,,,
,,,,,,,,2023-08-06_08h28.29.129,HF_wild_card,2022.2.4,MacIntel,59.99880002,5d53bdc9b18d590018dac171,64ce5acb97489d65b14ecc7a,64cf4b8c910285c0698e9f31,,,,,,,decisionTrl,resources/DBN.BMP,resources/DR.BMP,WildCard_NonEx,-0.406901042,-0.018715278,1,0,0,6.1054,optionLeft,45,2995,2,11,0,11,0,1,,,,,,,,,,,,,,,,,,,,,,,,,,,,,,,,,,,,,,,
,,,,,,,,2023-08-06_08h28.29.129,HF_wild_card,2022.2.4,MacIntel,59.99880002,5d53bdc9b18d590018dac171,64ce5acb97489d65b14ecc7a,64cf4b8c910285c0698e9f31,,,,,,,decisionTrl,resources/DY.BMP,resources/DBN.BMP,WildCard_NonEx,0.349991319,0.032708333,1,0,0,3.2618,optionRight,55,3050,2,12,0,12,0,1,,,,,,,,,,,,,,,,,,,,,,,,,,,,,,,,,,,,,,,
,,,,,,,,2023-08-06_08h28.29.129,HF_wild_card,2022.2.4,MacIntel,59.99880002,5d53bdc9b18d590018dac171,64ce5acb97489d65b14ecc7a,64cf4b8c910285c0698e9f31,,,,,,,decisionTrl,resources/DP.BMP,resources/DB.BMP,Door3,-0.344092882,-0.052868924,1,0,0,2.9684,optionLeft,70,3120,2,13,0,13,0,1,,,,,,,,,,,,,,,,,,,,,,,,,,,,,,,,,,,,,,,
,,,,,,,,2023-08-06_08h28.29.129,HF_wild_card,2022.2.4,MacIntel,59.99880002,5d53bdc9b18d590018dac171,64ce5acb97489d65b14ecc7a,64cf4b8c910285c0698e9f31,,,,,,,ctch,resources/DB.BMP,resources/DY.BMP,Door4,-0.431059028,-0.039921875,1,0,0,3.3945,optionLeft,60,3180,2,14,0,14,0,1,,,,,,,,,,,,,,,,,,,,,,,,,,,,,,,,,,,,,,,
,,,,,,,,2023-08-06_08h28.29.129,HF_wild_card,2022.2.4,MacIntel,59.99880002,5d53bdc9b18d590018dac171,64ce5acb97489d65b14ecc7a,64cf4b8c910285c0698e9f31,,,,,,,decisionTrl,resources/DY.BMP,resources/DR.BMP,Door1,-0.355073785,-0.047452257,1,0,0,4.6278,optionLeft,30,3210,2,15,0,15,0,1,,,,,,,,,,,,,,,,,,,,,,,,,,,,,,,,,,,,,,,
,,,,,,,,2023-08-06_08h28.29.129,HF_wild_card,2022.2.4,MacIntel,59.99880002,5d53bdc9b18d590018dac171,64ce5acb97489d65b14ecc7a,64cf4b8c910285c0698e9f31,,,,,,,ctch,resources/DP.BMP,resources/DR.BMP,Door3,-0.408932292,-0.03812066,1,0,0,0.9522,optionLeft,70,3280,2,16,0,16,0,1,,,,,,,,,,,,,,,,,,,,,,,,,,,,,,,,,,,,,,,
,,,,,,,,2023-08-06_08h28.29.129,HF_wild_card,2022.2.4,MacIntel,59.99880002,5d53bdc9b18d590018dac171,64ce5acb97489d65b14ecc7a,64cf4b8c910285c0698e9f31,,,,,,,sngl,resources/DY.BMP,resources/Empty.png,Door1,-0.330716146,-0.011154514,1,0,0,1.0108,optionLeft,30,3310,2,17,0,17,0,1,,,,,,,,,,,,,,,,,,,,,,,,,,,,,,,,,,,,,,,
,,,,,,,,2023-08-06_08h28.29.129,HF_wild_card,2022.2.4,MacIntel,59.99880002,5d53bdc9b18d590018dac171,64ce5acb97489d65b14ecc7a,64cf4b8c910285c0698e9f31,,,,,,,ctch,resources/DY.BMP,resources/DB.BMP,Door4,0.28108941,-0.031922743,1,0,0,3.2942,optionRight,60,3370,2,18,0,18,0,1,,,,,,,,,,,,,,,,,,,,,,,,,,,,,,,,,,,,,,,
,,,,,,,,2023-08-06_08h28.29.129,HF_wild_card,2022.2.4,MacIntel,59.99880002,5d53bdc9b18d590018dac171,64ce5acb97489d65b14ecc7a,64cf4b8c910285c0698e9f31,,,,,,,sngl,resources/DBN.BMP,resources/Empty.png,WildCard_NonEx,-0.317673611,-0.033815104,1,0,0,0.9757,optionLeft,55,3425,2,19,0,19,0,1,,,,,,,,,,,,,,,,,,,,,,,,,,,,,,,,,,,,,,,
,,,,,,,,2023-08-06_08h28.29.129,HF_wild_card,2022.2.4,MacIntel,59.99880002,5d53bdc9b18d590018dac171,64ce5acb97489d65b14ecc7a,64cf4b8c910285c0698e9f31,,,,,,,decisionTrl,resources/DR.BMP,resources/DBN.BMP,WildCard_NonEx,0.351328125,0.034327257,1,0,0,3.0273,optionRight,55,3480,2,20,0,20,0,1,,,,,,,,,,,,,,,,,,,,,,,,,,,,,,,,,,,,,,,
,,,,,,,,2023-08-06_08h28.29.129,HF_wild_card,2022.2.4,MacIntel,59.99880002,5d53bdc9b18d590018dac171,64ce5acb97489d65b14ecc7a,64cf4b8c910285c0698e9f31,,,,,,,decisionTrl,resources/DB.BMP,resources/DP.BMP,Door3,0.449197049,-0.051458333,1,0,0,1.3253,optionRight,70,3550,2,21,0,21,0,1,,,,,,,,,,,,,,,,,,,,,,,,,,,,,,,,,,,,,,,
,,,,,,,,2023-08-06_08h28.29.129,HF_wild_card,2022.2.4,MacIntel,59.99880002,5d53bdc9b18d590018dac171,64ce5acb97489d65b14ecc7a,64cf4b8c910285c0698e9f31,,,,,,,ctch,resources/DR.BMP,resources/DP.BMP,Door3,0.356072049,-0.040642361,1,0,0,1.0781,optionRight,70,3620,2,22,0,22,0,1,,,,,,,,,,,,,,,,,,,,,,,,,,,,,,,,,,,,,,,
,,,,,,,,2023-08-06_08h28.29.129,HF_wild_card,2022.2.4,MacIntel,59.99880002,5d53bdc9b18d590018dac171,64ce5acb97489d65b14ecc7a,64cf4b8c910285c0698e9f31,,,,,,,sngl,resources/Empty.png,resources/DP.BMP,Door3,0.42999566,-0.037126736,1,0,0,1.1278,optionRight,70,3690,2,23,0,23,0,1,,,,,,,,,,,,,,,,,,,,,,,,,,,,,,,,,,,,,,,
,,,,,,,,2023-08-06_08h28.29.129,HF_wild_card,2022.2.4,MacIntel,59.99880002,5d53bdc9b18d590018dac171,64ce5acb97489d65b14ecc7a,64cf4b8c910285c0698e9f31,,,,,,,sngl,resources/Empty.png,resources/DR.BMP,Door2,0.307682292,-0.030520833,1,0,0,3.0462,optionRight,40,3730,2,24,0,24,0,1,,,,,,,,,,,,,,,,,,,,,,,,,,,,,,,,,,,,,,,
,,,,,,,,2023-08-06_08h28.29.129,HF_wild_card,2022.2.4,MacIntel,59.99880002,5d53bdc9b18d590018dac171,64ce5acb97489d65b14ecc7a,64cf4b8c910285c0698e9f31,,,,,,,ctch,resources/DB.BMP,resources/DY.BMP,Door4,-0.371380208,-0.056137153,1,0,0,5.0478,optionLeft,60,3790,2,25,0,25,0,1,,,,,,,,,,,,,,,,,,,,,,,,,,,,,,,,,,,,,,,
,,,,,,,,2023-08-06_08h28.29.129,HF_wild_card,2022.2.4,MacIntel,59.99880002,5d53bdc9b18d590018dac171,64ce5acb97489d65b14ecc7a,64cf4b8c910285c0698e9f31,,,,,,,decisionTrl,resources/DB.BMP,resources/DP.BMP,Door3,0.439952257,-0.032078993,1,0,0,1.7792,optionRight,70,3860,2,26,0,26,0,1,,,,,,,,,,,,,,,,,,,,,,,,,,,,,,,,,,,,,,,
,,,,,,,,2023-08-06_08h28.29.129,HF_wild_card,2022.2.4,MacIntel,59.99880002,5d53bdc9b18d590018dac171,64ce5acb97489d65b14ecc7a,64cf4b8c910285c0698e9f31,,,,,,,decisionTrl,resources/DBN.BMP,resources/DY.BMP,WildCard_NonEx,-0.33016059,-0.024014757,1,0,0,1.2756,optionLeft,55,3915,2,27,0,27,0,1,,,,,,,,,,,,,,,,,,,,,,,,,,,,,,,,,,,,,,,
,,,,,,,,2023-08-06_08h28.29.129,HF_wild_card,2022.2.4,MacIntel,59.99880002,5d53bdc9b18d590018dac171,64ce5acb97489d65b14ecc7a,64cf4b8c910285c0698e9f31,,,,,,,decisionTrl,resources/DB.BMP,resources/DBN.BMP,Door4,-0.285585937,-0.057374132,1,0,0,4.5975,optionLeft,60,3975,2,28,0,28,0,1,,,,,,,,,,,,,,,,,,,,,,,,,,,,,,,,,,,,,,,
,,,,,,,,2023-08-06_08h28.29.129,HF_wild_card,2022.2.4,MacIntel,59.99880002,5d53bdc9b18d590018dac171,64ce5acb97489d65b14ecc7a,64cf4b8c910285c0698e9f31,,,,,,,decisionTrl,resources/DP.BMP,resources/DB.BMP,Door3,-0.321371528,-0.054822049,1,0,0,1.1798,optionLeft,70,4045,2,29,0,29,0,1,,,,,,,,,,,,,,,,,,,,,,,,,,,,,,,,,,,,,,,
,,,,,,,,2023-08-06_08h28.29.129,HF_wild_card,2022.2.4,MacIntel,59.99880002,5d53bdc9b18d590018dac171,64ce5acb97489d65b14ecc7a,64cf4b8c910285c0698e9f31,,,,,,,sngl,resources/Empty.png,resources/DY.BMP,Door1,0.381072049,-0.008515625,1,0,0,1.1948,optionRight,30,4075,2,30,0,30,0,1,,,,,,,,,,,,,,,,,,,,,,,,,,,,,,,,,,,,,,,
,,,,,,,,2023-08-06_08h28.29.129,HF_wild_card,2022.2.4,MacIntel,59.99880002,5d53bdc9b18d590018dac171,64ce5acb97489d65b14ecc7a,64cf4b8c910285c0698e9f31,,,,,,,decisionTrl,resources/DR.BMP,resources/DY.BMP,Door1,0.406640625,-0.019162326,1,0,0,4.8442,optionRight,30,4105,2,31,0,31,0,1,,,,,,,,,,,,,,,,,,,,,,,,,,,,,,,,,,,,,,,
,,,,,,,,2023-08-06_08h28.29.129,HF_wild_card,2022.2.4,MacIntel,59.99880002,5d53bdc9b18d590018dac171,64ce5acb97489d65b14ecc7a,64cf4b8c910285c0698e9f31,,,,,,,sngl,resources/Empty.png,resources/DBN.BMP,WildCard_NonEx,0.291688368,-0.001115451,1,0,0,0.9616,optionRight,45,4150,2,32,0,32,0,1,,,,,,,,,,,,,,,,,,,,,,,,,,,,,,,,,,,,,,,
,,,,,,,,2023-08-06_08h28.29.129,HF_wild_card,2022.2.4,MacIntel,59.99880002,5d53bdc9b18d590018dac171,64ce5acb97489d65b14ecc7a,64cf4b8c910285c0698e9f31,,,,,,,sngl,resources/DR.BMP,resources/Empty.png,Door2,-0.346414931,-0.031684028,1,0,0,0.9627,optionLeft,20,4170,2,33,0,33,0,1,,,,,,,,,,,,,,,,,,,,,,,,,,,,,,,,,,,,,,,
,,,,,,,,2023-08-06_08h28.29.129,HF_wild_card,2022.2.4,MacIntel,59.99880002,5d53bdc9b18d590018dac171,64ce5acb97489d65b14ecc7a,64cf4b8c910285c0698e9f31,,,,,,,sngl,resources/Empty.png,resources/DBN.BMP,WildCard_NonEx,0.358832465,0.025972222,1,0,0,0.9572,optionRight,55,4225,2,34,0,34,0,1,,,,,,,,,,,,,,,,,,,,,,,,,,,,,,,,,,,,,,,
,,,,,,,,2023-08-06_08h28.29.129,HF_wild_card,2022.2.4,MacIntel,59.99880002,5d53bdc9b18d590018dac171,64ce5acb97489d65b14ecc7a,64cf4b8c910285c0698e9f31,,,,,,,ctch,resources/DR.BMP,resources/DP.BMP,Door3,0.393016493,0.005959201,1,0,0,1.1285,optionRight,70,4295,2,35,0,35,0,1,,,,,,,,,,,,,,,,,,,,,,,,,,,,,,,,,,,,,,,
,,,,,,,,2023-08-06_08h28.29.129,HF_wild_card,2022.2.4,MacIntel,59.99880002,5d53bdc9b18d590018dac171,64ce5acb97489d65b14ecc7a,64cf4b8c910285c0698e9f31,,,,,,,decisionTrl,resources/DB.BMP,resources/DP.BMP,Door3,0.450546875,-0.039748264,1,0,0,0.8281,optionRight,70,4365,2,36,0,36,0,1,,,,,,,,,,,,,,,,,,,,,,,,,,,,,,,,,,,,,,,
,,,,,,,,2023-08-06_08h28.29.129,HF_wild_card,2022.2.4,MacIntel,59.99880002,5d53bdc9b18d590018dac171,64ce5acb97489d65b14ecc7a,64cf4b8c910285c0698e9f31,,,,,,,sngl,resources/Empty.png,resources/DB.BMP,Door4,0.326236979,-0.020794271,1,0,0,1.1415,optionRight,80,4445,2,37,0,37,0,1,,,,,,,,,,,,,,,,,,,,,,,,,,,,,,,,,,,,,,,
,,,,,,,,2023-08-06_08h28.29.129,HF_wild_card,2022.2.4,MacIntel,59.99880002,5d53bdc9b18d590018dac171,64ce5acb97489d65b14ecc7a,64cf4b8c910285c0698e9f31,,,,,,,decisionTrl,resources/DP.BMP,resources/DB.BMP,Door3,-0.351375868,-0.095303819,1,0,0,2.607,optionLeft,70,4515,2,38,0,38,0,1,,,,,,,,,,,,,,,,,,,,,,,,,,,,,,,,,,,,,,,
,,,,,,,,2023-08-06_08h28.29.129,HF_wild_card,2022.2.4,MacIntel,59.99880002,5d53bdc9b18d590018dac171,64ce5acb97489d65b14ecc7a,64cf4b8c910285c0698e9f31,,,,,,,decisionTrl,resources/DP.BMP,resources/DBN.BMP,Door3,-0.343511285,-0.070455729,1,0,0,1.1278,optionLeft,70,4585,2,39,0,39,0,1,,,,,,,,,,,,,,,,,,,,,,,,,,,,,,,,,,,,,,,
,,,,,,,,2023-08-06_08h28.29.129,HF_wild_card,2022.2.4,MacIntel,59.99880002,5d53bdc9b18d590018dac171,64ce5acb97489d65b14ecc7a,64cf4b8c910285c0698e9f31,,,,,,,decisionTrl,resources/DB.BMP,resources/DP.BMP,Door3,0.419314236,-0.045321181,1,0,0,1.2761,optionRight,70,4655,2,40,0,40,0,1,,,,,,,,,,,,,,,,,,,,,,,,,,,,,,,,,,,,,,,
,,,,,,,,2023-08-06_08h28.29.129,HF_wild_card,2022.2.4,MacIntel,59.99880002,5d53bdc9b18d590018dac171,64ce5acb97489d65b14ecc7a,64cf4b8c910285c0698e9f31,,,,,,,decisionTrl,resources/DR.BMP,resources/DY.BMP,Door1,0.430277778,0.012087674,1,0,0,4.8294,optionRight,30,4685,2,41,0,41,0,1,,,,,,,,,,,,,,,,,,,,,,,,,,,,,,,,,,,,,,,
,,,,,,,,2023-08-06_08h28.29.129,HF_wild_card,2022.2.4,MacIntel,59.99880002,5d53bdc9b18d590018dac171,64ce5acb97489d65b14ecc7a,64cf4b8c910285c0698e9f31,,,,,,,decisionTrl,resources/DY.BMP,resources/DR.BMP,Door1,-0.331427951,-0.064179687,1,0,0,3.4143,optionLeft,30,4715,2,42,0,42,0,1,,,,,,,,,,,,,,,,,,,,,,,,,,,,,,,,,,,,,,,
,,,,,,,,2023-08-06_08h28.29.129,HF_wild_card,2022.2.4,MacIntel,59.99880002,5d53bdc9b18d590018dac171,64ce5acb97489d65b14ecc7a,64cf4b8c910285c0698e9f31,,,,,,,decisionTrl,resources/DY.BMP,resources/DR.BMP,Door2,0.398975694,-0.039348958,1,0,0,0.7973,optionRight,40,4755,2,43,0,43,0,1,,,,,,,,,,,,,,,,,,,,,,,,,,,,,,,,,,,,,,,
,,,,,,,,2023-08-06_08h28.29.129,HF_wild_card,2022.2.4,MacIntel,59.99880002,5d53bdc9b18d590018dac171,64ce5acb97489d65b14ecc7a,64cf4b8c910285c0698e9f31,,,,,,,,,,,,,,,,,,,,,,,,,,1,0,1,0,1,,,,,,,,,,,,,,,,,,,,,,,,,,,,,,,,,,
,,,,,,,,2023-08-06_08h28.29.129,HF_wild_card,2022.2.4,MacIntel,59.99880002,5d53bdc9b18d590018dac171,64ce5acb97489d65b14ecc7a,64cf4b8c910285c0698e9f31,,,,,,,decisionTrl,resources/DY.BMP,resources/DR.BMP,Door2,0.340668403,-0.133585069,1,0,0,1.4828,optionRight,40,4795,3,0,0,0,0,1,,,,,,,,,,,,,,,,,,,,,,,,,,,,,,,,,,,,,,,
,,,,,,,,2023-08-06_08h28.29.129,HF_wild_card,2022.2.4,MacIntel,59.99880002,5d53bdc9b18d590018dac171,64ce5acb97489d65b14ecc7a,64cf4b8c910285c0698e9f31,,,,,,,ctch,resources/DP.BMP,resources/DR.BMP,Door3,-0.352803819,-0.067473958,1,0,0,1.3141,optionLeft,70,4865,3,1,0,1,0,1,,,,,,,,,,,,,,,,,,,,,,,,,,,,,,,,,,,,,,,
,,,,,,,,2023-08-06_08h28.29.129,HF_wild_card,2022.2.4,MacIntel,59.99880002,5d53bdc9b18d590018dac171,64ce5acb97489d65b14ecc7a,64cf4b8c910285c0698e9f31,,,,,,,decisionTrl,resources/DP.BMP,resources/DB.BMP,Door3,-0.432617188,-0.116132813,1,0,0,1.2444,optionLeft,70,4935,3,2,0,2,0,1,,,,,,,,,,,,,,,,,,,,,,,,,,,,,,,,,,,,,,,
,,,,,,,,2023-08-06_08h28.29.129,HF_wild_card,2022.2.4,MacIntel,59.99880002,5d53bdc9b18d590018dac171,64ce5acb97489d65b14ecc7a,64cf4b8c910285c0698e9f31,,,,,,,decisionTrl,resources/DB.BMP,resources/DP.BMP,Door4,-0.329179687,-0.064127604,1,0,0,1.8117,optionLeft,80,5015,3,3,0,3,0,1,,,,,,,,,,,,,,,,,,,,,,,,,,,,,,,,,,,,,,,
,,,,,,,,2023-08-06_08h28.29.129,HF_wild_card,2022.2.4,MacIntel,59.99880002,5d53bdc9b18d590018dac171,64ce5acb97489d65b14ecc7a,64cf4b8c910285c0698e9f31,,,,,,,decisionTrl,resources/DB.BMP,resources/DBN.BMP,Door4,-0.360217014,-0.013606771,1,0,0,1.7128,optionLeft,80,5095,3,4,0,4,0,1,,,,,,,,,,,,,,,,,,,,,,,,,,,,,,,,,,,,,,,
,,,,,,,,2023-08-06_08h28.29.129,HF_wild_card,2022.2.4,MacIntel,59.99880002,5d53bdc9b18d590018dac171,64ce5acb97489d65b14ecc7a,64cf4b8c910285c0698e9f31,,,,,,,decisionTrl,resources/DP.BMP,resources/DB.BMP,Door4,0.363138021,-0.014782986,1,0,0,1.2283,optionRight,80,5175,3,5,0,5,0,1,,,,,,,,,,,,,,,,,,,,,,,,,,,,,,,,,,,,,,,
,,,,,,,,2023-08-06_08h28.29.129,HF_wild_card,2022.2.4,MacIntel,59.99880002,5d53bdc9b18d590018dac171,64ce5acb97489d65b14ecc7a,64cf4b8c910285c0698e9f31,,,,,,,decisionTrl,resources/DP.BMP,resources/DB.BMP,Door4,0.318684896,-0.007317708,1,0,0,0.8942,optionRight,60,5235,3,6,0,6,0,1,,,,,,,,,,,,,,,,,,,,,,,,,,,,,,,,,,,,,,,
,,,,,,,,2023-08-06_08h28.29.129,HF_wild_card,2022.2.4,MacIntel,59.99880002,5d53bdc9b18d590018dac171,64ce5acb97489d65b14ecc7a,64cf4b8c910285c0698e9f31,,,,,,,decisionTrl,resources/DR.BMP,resources/DY.BMP,Door2,-0.331905382,-0.097686632,1,0,0,4.4773,optionLeft,20,5255,3,7,0,7,0,1,,,,,,,,,,,,,,,,,,,,,,,,,,,,,,,,,,,,,,,
,,,,,,,,2023-08-06_08h28.29.129,HF_wild_card,2022.2.4,MacIntel,59.99880002,5d53bdc9b18d590018dac171,64ce5acb97489d65b14ecc7a,64cf4b8c910285c0698e9f31,,,,,,,decisionTrl,resources/DBN.BMP,resources/DR.BMP,WildCard_NonEx,-0.431484375,-0.010451389,1,0,0,1.1445,optionLeft,55,5310,3,8,0,8,0,1,,,,,,,,,,,,,,,,,,,,,,,,,,,,,,,,,,,,,,,
,,,,,,,,2023-08-06_08h28.29.129,HF_wild_card,2022.2.4,MacIntel,59.99880002,5d53bdc9b18d590018dac171,64ce5acb97489d65b14ecc7a,64cf4b8c910285c0698e9f31,,,,,,,ctch,resources/DB.BMP,resources/DY.BMP,Door4,-0.397113715,-0.044700521,1,0,0,1.8432,optionLeft,60,5370,3,9,0,9,0,1,,,,,,,,,,,,,,,,,,,,,,,,,,,,,,,,,,,,,,,
,,,,,,,,2023-08-06_08h28.29.129,HF_wild_card,2022.2.4,MacIntel,59.99880002,5d53bdc9b18d590018dac171,64ce5acb97489d65b14ecc7a,64cf4b8c910285c0698e9f31,,,,,,,decisionTrl,resources/DB.BMP,resources/DP.BMP,Door3,0.358094618,-0.014401042,1,0,0,1.1281,optionRight,70,5440,3,10,0,10,0,1,,,,,,,,,,,,,,,,,,,,,,,,,,,,,,,,,,,,,,,
,,,,,,,,2023-08-06_08h28.29.129,HF_wild_card,2022.2.4,MacIntel,59.99880002,5d53bdc9b18d590018dac171,64ce5acb97489d65b14ecc7a,64cf4b8c910285c0698e9f31,,,,,,,ctch,resources/DY.BMP,resources/DB.BMP,Door4,0.274613715,-0.030039063,1,0,0,1.6108,optionRight,80,5520,3,11,0,11,0,1,,,,,,,,,,,,,,,,,,,,,,,,,,,,,,,,,,,,,,,
,,,,,,,,2023-08-06_08h28.29.129,HF_wild_card,2022.2.4,MacIntel,59.99880002,5d53bdc9b18d590018dac171,64ce5acb97489d65b14ecc7a,64cf4b8c910285c0698e9f31,,,,,,,decisionTrl,resources/DBN.BMP,resources/DY.BMP,WildCard_NonEx,-0.314288194,-0.002582465,1,0,0,2.279,optionLeft,55,5575,3,12,0,12,0,1,,,,,,,,,,,,,,,,,,,,,,,,,,,,,,,,,,,,,,,
,,,,,,,,2023-08-06_08h28.29.129,HF_wild_card,2022.2.4,MacIntel,59.99880002,5d53bdc9b18d590018dac171,64ce5acb97489d65b14ecc7a,64cf4b8c910285c0698e9f31,,,,,,,decisionTrl,resources/DY.BMP,resources/DBN.BMP,WildCard_NonEx,0.349518229,-0.007304688,1,0,0,1.1962,optionRight,55,5630,3,13,0,13,0,1,,,,,,,,,,,,,,,,,,,,,,,,,,,,,,,,,,,,,,,
,,,,,,,,2023-08-06_08h28.29.129,HF_wild_card,2022.2.4,MacIntel,59.99880002,5d53bdc9b18d590018dac171,64ce5acb97489d65b14ecc7a,64cf4b8c910285c0698e9f31,,,,,,,sngl,resources/DY.BMP,resources/Empty.png,Door1,-0.330755208,-0.006037326,1,0,0,0.9444,optionLeft,30,5660,3,14,0,14,0,1,,,,,,,,,,,,,,,,,,,,,,,,,,,,,,,,,,,,,,,
,,,,,,,,2023-08-06_08h28.29.129,HF_wild_card,2022.2.4,MacIntel,59.99880002,5d53bdc9b18d590018dac171,64ce5acb97489d65b14ecc7a,64cf4b8c910285c0698e9f31,,,,,,,decisionTrl,resources/DP.BMP,resources/DBN.BMP,Door3,-0.352109375,-0.016219618,1,0,0,1.3289,optionLeft,70,5730,3,15,0,15,0,1,,,,,,,,,,,,,,,,,,,,,,,,,,,,,,,,,,,,,,,
,,,,,,,,2023-08-06_08h28.29.129,HF_wild_card,2022.2.4,MacIntel,59.99880002,5d53bdc9b18d590018dac171,64ce5acb97489d65b14ecc7a,64cf4b8c910285c0698e9f31,,,,,,,sngl,resources/Empty.png,resources/DR.BMP,Door2,0.401961806,-0.054188368,1,0,0,1.0944,optionRight,20,5750,3,16,0,16,0,1,,,,,,,,,,,,,,,,,,,,,,,,,,,,,,,,,,,,,,,
,,,,,,,,2023-08-06_08h28.29.129,HF_wild_card,2022.2.4,MacIntel,59.99880002,5d53bdc9b18d590018dac171,64ce5acb97489d65b14ecc7a,64cf4b8c910285c0698e9f31,,,,,,,ctch,resources/DR.BMP,resources/DP.BMP,Door3,0.418190104,-0.035711806,1,0,0,1.0295,optionRight,70,5820,3,17,0,17,0,1,,,,,,,,,,,,,,,,,,,,,,,,,,,,,,,,,,,,,,,
,,,,,,,,2023-08-06_08h28.29.129,HF_wild_card,2022.2.4,MacIntel,59.99880002,5d53bdc9b18d590018dac171,64ce5acb97489d65b14ecc7a,64cf4b8c910285c0698e9f31,,,,,,,decisionTrl,resources/DR.BMP,resources/DY.BMP,Door1,0.400303819,0.004422743,1,0,0,1.7119,optionRight,30,5850,3,18,0,18,0,1,,,,,,,,,,,,,,,,,,,,,,,,,,,,,,,,,,,,,,,
,,,,,,,,2023-08-06_08h28.29.129,HF_wild_card,2022.2.4,MacIntel,59.99880002,5d53bdc9b18d590018dac171,64ce5acb97489d65b14ecc7a,64cf4b8c910285c0698e9f31,,,,,,,decisionTrl,resources/DB.BMP,resources/DP.BMP,Door3,0.392638889,-0.022947049,1,0,0,1.0814,optionRight,70,5920,3,19,0,19,0,1,,,,,,,,,,,,,,,,,,,,,,,,,,,,,,,,,,,,,,,
,,,,,,,,2023-08-06_08h28.29.129,HF_wild_card,2022.2.4,MacIntel,59.99880002,5d53bdc9b18d590018dac171,64ce5acb97489d65b14ecc7a,64cf4b8c910285c0698e9f31,,,,,,,decisionTrl,resources/DB.BMP,resources/DP.BMP,Door3,0.444092882,-0.00984375,1,0,0,0.7784,optionRight,70,5990,3,20,0,20,0,1,,,,,,,,,,,,,,,,,,,,,,,,,,,,,,,,,,,,,,,
,,,,,,,,2023-08-06_08h28.29.129,HF_wild_card,2022.2.4,MacIntel,59.99880002,5d53bdc9b18d590018dac171,64ce5acb97489d65b14ecc7a,64cf4b8c910285c0698e9f31,,,,,,,decisionTrl,resources/DR.BMP,resources/DBN.BMP,WildCard_NonEx,0.391315104,0.032960069,1,0,0,4.4782,optionRight,45,6035,3,21,0,21,0,1,,,,,,,,,,,,,,,,,,,,,,,,,,,,,,,,,,,,,,,
,,,,,,,,2023-08-06_08h28.29.129,HF_wild_card,2022.2.4,MacIntel,59.99880002,5d53bdc9b18d590018dac171,64ce5acb97489d65b14ecc7a,64cf4b8c910285c0698e9f31,,,,,,,decisionTrl,resources/DY.BMP,resources/DR.BMP,Door2,0.377152778,-0.003927951,1,0,0,2.1806,optionRight,20,6055,3,22,0,22,0,1,,,,,,,,,,,,,,,,,,,,,,,,,,,,,,,,,,,,,,,
,,,,,,,,2023-08-06_08h28.29.129,HF_wild_card,2022.2.4,MacIntel,59.99880002,5d53bdc9b18d590018dac171,64ce5acb97489d65b14ecc7a,64cf4b8c910285c0698e9f31,,,,,,,ctch,resources/DY.BMP,resources/DB.BMP,Door4,0.309006076,0.020564236,1,0,0,1.3792,optionRight,60,6115,3,23,0,23,0,1,,,,,,,,,,,,,,,,,,,,,,,,,,,,,,,,,,,,,,,
,,,,,,,,2023-08-06_08h28.29.129,HF_wild_card,2022.2.4,MacIntel,59.99880002,5d53bdc9b18d590018dac171,64ce5acb97489d65b14ecc7a,64cf4b8c910285c0698e9f31,,,,,,,sngl,resources/DP.BMP,resources/Empty.png,Door3,-0.309388021,-0.013263889,1,0,0,0.8276,optionLeft,70,6185,3,24,0,24,0,1,,,,,,,,,,,,,,,,,,,,,,,,,,,,,,,,,,,,,,,
,,,,,,,,2023-08-06_08h28.29.129,HF_wild_card,2022.2.4,MacIntel,59.99880002,5d53bdc9b18d590018dac171,64ce5acb97489d65b14ecc7a,64cf4b8c910285c0698e9f31,,,,,,,ctch,resources/DB.BMP,resources/DY.BMP,Door4,-0.362699653,-0.026184896,1,0,0,1.562,optionLeft,60,6245,3,25,0,25,0,1,,,,,,,,,,,,,,,,,,,,,,,,,,,,,,,,,,,,,,,
,,,,,,,,2023-08-06_08h28.29.129,HF_wild_card,2022.2.4,MacIntel,59.99880002,5d53bdc9b18d590018dac171,64ce5acb97489d65b14ecc7a,64cf4b8c910285c0698e9f31,,,,,,,sngl,resources/DBN.BMP,resources/Empty.png,WildCard_NonEx,-0.310716146,0.009600694,1,0,0,0.9652,optionLeft,55,6300,3,26,0,26,0,1,,,,,,,,,,,,,,,,,,,,,,,,,,,,,,,,,,,,,,,
,,,,,,,,2023-08-06_08h28.29.129,HF_wild_card,2022.2.4,MacIntel,59.99880002,5d53bdc9b18d590018dac171,64ce5acb97489d65b14ecc7a,64cf4b8c910285c0698e9f31,,,,,,,decisionTrl,resources/DR.BMP,resources/DY.BMP,Door2,-0.355598958,-0.065186632,1,0,0,5.1781,optionLeft,40,6340,3,27,0,27,0,1,,,,,,,,,,,,,,,,,,,,,,,,,,,,,,,,,,,,,,,
,,,,,,,,2023-08-06_08h28.29.129,HF_wild_card,2022.2.4,MacIntel,59.99880002,5d53bdc9b18d590018dac171,64ce5acb97489d65b14ecc7a,64cf4b8c910285c0698e9f31,,,,,,,sngl,resources/Empty.png,resources/DBN.BMP,WildCard_NonEx,0.351888021,0.026197917,1,0,0,0.8787,optionRight,45,6385,3,28,0,28,0,1,,,,,,,,,,,,,,,,,,,,,,,,,,,,,,,,,,,,,,,
,,,,,,,,2023-08-06_08h28.29.129,HF_wild_card,2022.2.4,MacIntel,59.99880002,5d53bdc9b18d590018dac171,64ce5acb97489d65b14ecc7a,64cf4b8c910285c0698e9f31,,,,,,,decisionTrl,resources/DP.BMP,resources/DB.BMP,Door3,-0.270833333,-0.079561632,1,0,0,1.0454,optionLeft,70,6455,3,29,0,29,0,1,,,,,,,,,,,,,,,,,,,,,,,,,,,,,,,,,,,,,,,
,,,,,,,,2023-08-06_08h28.29.129,HF_wild_card,2022.2.4,MacIntel,59.99880002,5d53bdc9b18d590018dac171,64ce5acb97489d65b14ecc7a,64cf4b8c910285c0698e9f31,,,,,,,sngl,resources/DR.BMP,resources/Empty.png,Door2,-0.282287326,-0.036302083,1,0,0,1.0106,optionLeft,40,6495,3,30,0,30,0,1,,,,,,,,,,,,,,,,,,,,,,,,,,,,,,,,,,,,,,,
,,,,,,,,2023-08-06_08h28.29.129,HF_wild_card,2022.2.4,MacIntel,59.99880002,5d53bdc9b18d590018dac171,64ce5acb97489d65b14ecc7a,64cf4b8c910285c0698e9f31,,,,,,,sngl,resources/Empty.png,resources/DY.BMP,Door1,0.384960937,0.004548611,1,0,0,1.0914,optionRight,30,6525,3,31,0,31,0,1,,,,,,,,,,,,,,,,,,,,,,,,,,,,,,,,,,,,,,,
,,,,,,,,2023-08-06_08h28.29.129,HF_wild_card,2022.2.4,MacIntel,59.99880002,5d53bdc9b18d590018dac171,64ce5acb97489d65b14ecc7a,64cf4b8c910285c0698e9f31,,,,,,,ctch,resources/DR.BMP,resources/DP.BMP,Door3,0.416332465,-0.047356771,1,0,0,1.2632,optionRight,70,6595,3,32,0,32,0,1,,,,,,,,,,,,,,,,,,,,,,,,,,,,,,,,,,,,,,,
,,,,,,,,2023-08-06_08h28.29.129,HF_wild_card,2022.2.4,MacIntel,59.99880002,5d53bdc9b18d590018dac171,64ce5acb97489d65b14ecc7a,64cf4b8c910285c0698e9f31,,,,,,,decisionTrl,resources/DY.BMP,resources/DR.BMP,Door2,0.504079861,-0.052573785,1,0,0,1.5446,optionRight,40,6635,3,33,0,33,0,1,,,,,,,,,,,,,,,,,,,,,,,,,,,,,,,,,,,,,,,
,,,,,,,,2023-08-06_08h28.29.129,HF_wild_card,2022.2.4,MacIntel,59.99880002,5d53bdc9b18d590018dac171,64ce5acb97489d65b14ecc7a,64cf4b8c910285c0698e9f31,,,,,,,sngl,resources/Empty.png,resources/DB.BMP,Door4,0.360564236,-0.027942708,1,0,0,1.0616,optionRight,60,6695,3,34,0,34,0,1,,,,,,,,,,,,,,,,,,,,,,,,,,,,,,,,,,,,,,,
,,,,,,,,2023-08-06_08h28.29.129,HF_wild_card,2022.2.4,MacIntel,59.99880002,5d53bdc9b18d590018dac171,64ce5acb97489d65b14ecc7a,64cf4b8c910285c0698e9f31,,,,,,,decisionTrl,resources/DBN.BMP,resources/DP.BMP,Door3,0.394930556,-0.025434028,1,0,0,5.3796,optionRight,70,6765,3,35,0,35,0,1,,,,,,,,,,,,,,,,,,,,,,,,,,,,,,,,,,,,,,,
,,,,,,,,2023-08-06_08h28.29.129,HF_wild_card,2022.2.4,MacIntel,59.99880002,5d53bdc9b18d590018dac171,64ce5acb97489d65b14ecc7a,64cf4b8c910285c0698e9f31,,,,,,,decisionTrl,resources/DBN.BMP,resources/DB.BMP,Door4,0.396289063,-0.009253472,1,0,0,1.7613,optionRight,60,6825,3,36,0,36,0,1,,,,,,,,,,,,,,,,,,,,,,,,,,,,,,,,,,,,,,,
,,,,,,,,2023-08-06_08h28.29.129,HF_wild_card,2022.2.4,MacIntel,59.99880002,5d53bdc9b18d590018dac171,64ce5acb97489d65b14ecc7a,64cf4b8c910285c0698e9f31,,,,,,,sngl,resources/DB.BMP,resources/Empty.png,Door4,-0.303125,-0.044010417,1,0,0,1.1452,optionLeft,80,6905,3,37,0,37,0,1,,,,,,,,,,,,,,,,,,,,,,,,,,,,,,,,,,,,,,,
,,,,,,,,2023-08-06_08h28.29.129,HF_wild_card,2022.2.4,MacIntel,59.99880002,5d53bdc9b18d590018dac171,64ce5acb97489d65b14ecc7a,64cf4b8c910285c0698e9f31,,,,,,,ctch,resources/DP.BMP,resources/DR.BMP,Door3,-0.387916667,-0.053914931,1,0,0,1.5608,optionLeft,70,6975,3,38,0,38,0,1,,,,,,,,,,,,,,,,,,,,,,,,,,,,,,,,,,,,,,,
,,,,,,,,2023-08-06_08h28.29.129,HF_wild_card,2022.2.4,MacIntel,59.99880002,5d53bdc9b18d590018dac171,64ce5acb97489d65b14ecc7a,64cf4b8c910285c0698e9f31,,,,,,,sngl,resources/DBN.BMP,resources/Empty.png,WildCard_NonEx,-0.298081597,-0.025633681,1,0,0,0.9444,optionLeft,45,7020,3,39,0,39,0,1,,,,,,,,,,,,,,,,,,,,,,,,,,,,,,,,,,,,,,,
,,,,,,,,2023-08-06_08h28.29.129,HF_wild_card,2022.2.4,MacIntel,59.99880002,5d53bdc9b18d590018dac171,64ce5acb97489d65b14ecc7a,64cf4b8c910285c0698e9f31,,,,,,,sngl,resources/Empty.png,resources/DBN.BMP,WildCard_NonEx,0.340416667,0.019097222,1,0,0,0.878,optionRight,55,7075,3,40,0,40,0,1,,,,,,,,,,,,,,,,,,,,,,,,,,,,,,,,,,,,,,,
,,,,,,,,2023-08-06_08h28.29.129,HF_wild_card,2022.2.4,MacIntel,59.99880002,5d53bdc9b18d590018dac171,64ce5acb97489d65b14ecc7a,64cf4b8c910285c0698e9f31,,,,,,,decisionTrl,resources/DY.BMP,resources/DR.BMP,Door1,-0.334483507,0.009414063,1,0,0,5.3125,optionLeft,30,7105,3,41,0,41,0,1,,,,,,,,,,,,,,,,,,,,,,,,,,,,,,,,,,,,,,,
,,,,,,,,2023-08-06_08h28.29.129,HF_wild_card,2022.2.4,MacIntel,59.99880002,5d53bdc9b18d590018dac171,64ce5acb97489d65b14ecc7a,64cf4b8c910285c0698e9f31,,,,,,,sngl,resources/Empty.png,resources/DP.BMP,Door3,0.380746528,0.001358507,1,0,0,0.8436,optionRight,70,7175,3,42,0,42,0,1,,,,,,,,,,,,,,,,,,,,,,,,,,,,,,,,,,,,,,,
,,,,,,,,2023-08-06_08h28.29.129,HF_wild_card,2022.2.4,MacIntel,59.99880002,5d53bdc9b18d590018dac171,64ce5acb97489d65b14ecc7a,64cf4b8c910285c0698e9f31,,,,,,,decisionTrl,resources/DR.BMP,resources/DY.BMP,Door1,0.342356771,-0.018828125,1,0,0,4.3298,optionRight,30,7205,3,43,0,43,0,1,,,,,,,,,,,,,,,,,,,,,,,,,,,,,,,,,,,,,,,
,,,,,,,,2023-08-06_08h28.29.129,HF_wild_card,2022.2.4,MacIntel,59.99880002,5d53bdc9b18d590018dac171,64ce5acb97489d65b14ecc7a,64cf4b8c910285c0698e9f31,,,,,,,,,,,,,,,,,,,,,,,,,,2,0,2,0,1,,,,,,,,,,,,,,,,,,,,,,,,,,,,,,,,,,
,,,,,,,,2023-08-06_08h28.29.129,HF_wild_card,2022.2.4,MacIntel,59.99880002,5d53bdc9b18d590018dac171,64ce5acb97489d65b14ecc7a,64cf4b8c910285c0698e9f31,,,,,,,ctch,resources/DP.BMP,resources/DR.BMP,Door3,-0.358650174,-0.053654514,1,0,0,1.0251,optionLeft,70,7275,4,0,0,0,0,1,,,,,,,,,,,,,,,,,,,,,,,,,,,,,,,,,,,,,,,
,,,,,,,,2023-08-06_08h28.29.129,HF_wild_card,2022.2.4,MacIntel,59.99880002,5d53bdc9b18d590018dac171,64ce5acb97489d65b14ecc7a,64cf4b8c910285c0698e9f31,,,,,,,decisionTrl,resources/DY.BMP,resources/DR.BMP,Door2,0.418975694,-0.000590278,1,0,0,3.9937,optionRight,20,7295,4,1,0,1,0,1,,,,,,,,,,,,,,,,,,,,,,,,,,,,,,,,,,,,,,,
,,,,,,,,2023-08-06_08h28.29.129,HF_wild_card,2022.2.4,MacIntel,59.99880002,5d53bdc9b18d590018dac171,64ce5acb97489d65b14ecc7a,64cf4b8c910285c0698e9f31,,,,,,,decisionTrl,resources/DY.BMP,resources/DR.BMP,Door1,-0.300664062,-0.044288194,1,0,0,0.7955,optionLeft,30,7325,4,2,0,2,0,1,,,,,,,,,,,,,,,,,,,,,,,,,,,,,,,,,,,,,,,
,,,,,,,,2023-08-06_08h28.29.129,HF_wild_card,2022.2.4,MacIntel,59.99880002,5d53bdc9b18d590018dac171,64ce5acb97489d65b14ecc7a,64cf4b8c910285c0698e9f31,,,,,,,sngl,resources/DG.BMP,resources/Empty.png,WildCard_Ex,-0.338880208,-0.047999132,1,0,0,1.426,optionLeft,45,7370,4,3,0,3,0,1,,,,,,,,,,,,,,,,,,,,,,,,,,,,,,,,,,,,,,,
,,,,,,,,2023-08-06_08h28.29.129,HF_wild_card,2022.2.4,MacIntel,59.99880002,5d53bdc9b18d590018dac171,64ce5acb97489d65b14ecc7a,64cf4b8c910285c0698e9f31,,,,,,,ctch,resources/DB.BMP,resources/DY.BMP,Door4,-0.306453993,-0.041792535,1,0,0,6.4796,optionLeft,80,7450,4,4,0,4,0,1,,,,,,,,,,,,,,,,,,,,,,,,,,,,,,,,,,,,,,,
,,,,,,,,2023-08-06_08h28.29.129,HF_wild_card,2022.2.4,MacIntel,59.99880002,5d53bdc9b18d590018dac171,64ce5acb97489d65b14ecc7a,64cf4b8c910285c0698e9f31,,,,,,,decisionTrl,resources/DG.BMP,resources/DP.BMP,Door3,0.32234809,-0.011597222,1,0,0,2.5314,optionRight,70,7520,4,5,0,5,0,1,,,,,,,,,,,,,,,,,,,,,,,,,,,,,,,,,,,,,,,
,,,,,,,,2023-08-06_08h28.29.129,HF_wild_card,2022.2.4,MacIntel,59.99880002,5d53bdc9b18d590018dac171,64ce5acb97489d65b14ecc7a,64cf4b8c910285c0698e9f31,,,,,,,decisionTrl,resources/DP.BMP,resources/DG.BMP,Door3,-0.346145833,-0.04499566,1,0,0,1.0617,optionLeft,70,7590,4,6,0,6,0,1,,,,,,,,,,,,,,,,,,,,,,,,,,,,,,,,,,,,,,,
,,,,,,,,2023-08-06_08h28.29.129,HF_wild_card,2022.2.4,MacIntel,59.99880002,5d53bdc9b18d590018dac171,64ce5acb97489d65b14ecc7a,64cf4b8c910285c0698e9f31,,,,,,,ctch,resources/DY.BMP,resources/DB.BMP,Door4,0.35171441,-0.061896701,1,0,0,1.8275,optionRight,60,7650,4,7,0,7,0,1,,,,,,,,,,,,,,,,,,,,,,,,,,,,,,,,,,,,,,,
,,,,,,,,2023-08-06_08h28.29.129,HF_wild_card,2022.2.4,MacIntel,59.99880002,5d53bdc9b18d590018dac171,64ce5acb97489d65b14ecc7a,64cf4b8c910285c0698e9f31,,,,,,,decisionTrl,resources/DP.BMP,resources/DB.BMP,Door3,-0.476666667,-0.011809896,1,0,0,0.9125,optionLeft,70,7720,4,8,0,8,0,1,,,,,,,,,,,,,,,,,,,,,,,,,,,,,,,,,,,,,,,
,,,,,,,,2023-08-06_08h28.29.129,HF_wild_card,2022.2.4,MacIntel,59.99880002,5d53bdc9b18d590018dac171,64ce5acb97489d65b14ecc7a,64cf4b8c910285c0698e9f31,,,,,,,decisionTrl,resources/DY.BMP,resources/DG.BMP,WildCard_Ex,0.369114583,-0.031649306,1,0,0,4.0643,optionRight,55,7775,4,9,0,9,0,1,,,,,,,,,,,,,,,,,,,,,,,,,,,,,,,,,,,,,,,
,,,,,,,,2023-08-06_08h28.29.129,HF_wild_card,2022.2.4,MacIntel,59.99880002,5d53bdc9b18d590018dac171,64ce5acb97489d65b14ecc7a,64cf4b8c910285c0698e9f31,,,,,,,decisionTrl,resources/DB.BMP,resources/DP.BMP,Door3,0.420273438,-0.061692708,1,0,0,1.7126,optionRight,70,7845,4,10,0,10,0,1,,,,,,,,,,,,,,,,,,,,,,,,,,,,,,,,,,,,,,,
,,,,,,,,2023-08-06_08h28.29.129,HF_wild_card,2022.2.4,MacIntel,59.99880002,5d53bdc9b18d590018dac171,64ce5acb97489d65b14ecc7a,64cf4b8c910285c0698e9f31,,,,,,,sngl,resources/DB.BMP,resources/Empty.png,Door4,-0.333953993,0.013862847,1,0,0,0.781,optionLeft,60,7905,4,11,0,11,0,1,,,,,,,,,,,,,,,,,,,,,,,,,,,,,,,,,,,,,,,
,,,,,,,,2023-08-06_08h28.29.129,HF_wild_card,2022.2.4,MacIntel,59.99880002,5d53bdc9b18d590018dac171,64ce5acb97489d65b14ecc7a,64cf4b8c910285c0698e9f31,,,,,,,decisionTrl,resources/DP.BMP,resources/DB.BMP,Door3,-0.320724826,-0.028177083,1,0,0,1.2108,optionLeft,70,7975,4,12,0,12,0,1,,,,,,,,,,,,,,,,,,,,,,,,,,,,,,,,,,,,,,,
,,,,,,,,2023-08-06_08h28.29.129,HF_wild_card,2022.2.4,MacIntel,59.99880002,5d53bdc9b18d590018dac171,64ce5acb97489d65b14ecc7a,64cf4b8c910285c0698e9f31,,,,,,,ctch,resources/DP.BMP,resources/DR.BMP,Door3,-0.366848958,-0.015750868,1,0,0,0.9268,optionLeft,70,8045,4,13,0,13,0,1,,,,,,,,,,,,,,,,,,,,,,,,,,,,,,,,,,,,,,,
,,,,,,,,2023-08-06_08h28.29.129,HF_wild_card,2022.2.4,MacIntel,59.99880002,5d53bdc9b18d590018dac171,64ce5acb97489d65b14ecc7a,64cf4b8c910285c0698e9f31,,,,,,,decisionTrl,resources/DP.BMP,resources/DB.BMP,Door3,-0.380347222,-0.0153125,1,0,0,1.1119,optionLeft,70,8115,4,14,0,14,0,1,,,,,,,,,,,,,,,,,,,,,,,,,,,,,,,,,,,,,,,
,,,,,,,,2023-08-06_08h28.29.129,HF_wild_card,2022.2.4,MacIntel,59.99880002,5d53bdc9b18d590018dac171,64ce5acb97489d65b14ecc7a,64cf4b8c910285c0698e9f31,,,,,,,decisionTrl,resources/DB.BMP,resources/DP.BMP,Door3,0.423350694,-0.055711806,1,0,0,1.1804,optionRight,70,8185,4,15,0,15,0,1,,,,,,,,,,,,,,,,,,,,,,,,,,,,,,,,,,,,,,,
,,,,,,,,2023-08-06_08h28.29.129,HF_wild_card,2022.2.4,MacIntel,59.99880002,5d53bdc9b18d590018dac171,64ce5acb97489d65b14ecc7a,64cf4b8c910285c0698e9f31,,,,,,,sngl,resources/DP.BMP,resources/Empty.png,Door3,-0.305555556,-0.01531684,1,0,0,0.8787,optionLeft,70,8255,4,16,0,16,0,1,,,,,,,,,,,,,,,,,,,,,,,,,,,,,,,,,,,,,,,
,,,,,,,,2023-08-06_08h28.29.129,HF_wild_card,2022.2.4,MacIntel,59.99880002,5d53bdc9b18d590018dac171,64ce5acb97489d65b14ecc7a,64cf4b8c910285c0698e9f31,,,,,,,ctch,resources/DY.BMP,resources/DB.BMP,Door4,0.38156684,-0.038763021,1,0,0,1.1986,optionRight,60,8315,4,17,0,17,0,1,,,,,,,,,,,,,,,,,,,,,,,,,,,,,,,,,,,,,,,
,,,,,,,,2023-08-06_08h28.29.129,HF_wild_card,2022.2.4,MacIntel,59.99880002,5d53bdc9b18d590018dac171,64ce5acb97489d65b14ecc7a,64cf4b8c910285c0698e9f31,,,,,,,sngl,resources/Empty.png,resources/DB.BMP,Door4,0.417508681,-0.013394097,1,0,0,0.7802,optionRight,80,8395,4,18,0,18,0,1,,,,,,,,,,,,,,,,,,,,,,,,,,,,,,,,,,,,,,,
,,,,,,,,2023-08-06_08h28.29.129,HF_wild_card,2022.2.4,MacIntel,59.99880002,5d53bdc9b18d590018dac171,64ce5acb97489d65b14ecc7a,64cf4b8c910285c0698e9f31,,,,,,,decisionTrl,resources/DB.BMP,resources/DG.BMP,Door4,-0.344088542,-0.020681424,1,0,0,0.843,optionLeft,60,8455,4,19,0,19,0,1,,,,,,,,,,,,,,,,,,,,,,,,,,,,,,,,,,,,,,,
,,,,,,,,2023-08-06_08h28.29.129,HF_wild_card,2022.2.4,MacIntel,59.99880002,5d53bdc9b18d590018dac171,64ce5acb97489d65b14ecc7a,64cf4b8c910285c0698e9f31,,,,,,,decisionTrl,resources/DY.BMP,resources/DR.BMP,Door2,0.409019097,-0.030368924,1,0,0,4.5125,optionRight,20,8475,4,20,0,20,0,1,,,,,,,,,,,,,,,,,,,,,,,,,,,,,,,,,,,,,,,
,,,,,,,,2023-08-06_08h28.29.129,HF_wild_card,2022.2.4,MacIntel,59.99880002,5d53bdc9b18d590018dac171,64ce5acb97489d65b14ecc7a,64cf4b8c910285c0698e9f31,,,,,,,decisionTrl,resources/DR.BMP,resources/DY.BMP,Door1,0.445347222,-0.059709201,1,0,0,1.0791,optionRight,30,8505,4,21,0,21,0,1,,,,,,,,,,,,,,,,,,,,,,,,,,,,,,,,,,,,,,,
,,,,,,,,2023-08-06_08h28.29.129,HF_wild_card,2022.2.4,MacIntel,59.99880002,5d53bdc9b18d590018dac171,64ce5acb97489d65b14ecc7a,64cf4b8c910285c0698e9f31,,,,,,,sngl,resources/Empty.png,resources/DG.BMP,WildCard_Ex,0.353563368,-0.013359375,1,0,0,0.8442,optionRight,55,8560,4,22,0,22,0,1,,,,,,,,,,,,,,,,,,,,,,,,,,,,,,,,,,,,,,,
,,,,,,,,2023-08-06_08h28.29.129,HF_wild_card,2022.2.4,MacIntel,59.99880002,5d53bdc9b18d590018dac171,64ce5acb97489d65b14ecc7a,64cf4b8c910285c0698e9f31,,,,,,,decisionTrl,resources/DY.BMP,resources/DR.BMP,Door1,-0.342000868,-0.027482639,1,0,0,5.046,optionLeft,30,8590,4,23,0,23,0,1,,,,,,,,,,,,,,,,,,,,,,,,,,,,,,,,,,,,,,,
,,,,,,,,2023-08-06_08h28.29.129,HF_wild_card,2022.2.4,MacIntel,59.99880002,5d53bdc9b18d590018dac171,64ce5acb97489d65b14ecc7a,64cf4b8c910285c0698e9f31,,,,,,,decisionTrl,resources/DR.BMP,resources/DY.BMP,Door1,0.457595486,-0.035373264,1,0,0,1.0466,optionRight,30,8620,4,24,0,24,0,1,,,,,,,,,,,,,,,,,,,,,,,,,,,,,,,,,,,,,,,
,,,,,,,,2023-08-06_08h28.29.129,HF_wild_card,2022.2.4,MacIntel,59.99880002,5d53bdc9b18d590018dac171,64ce5acb97489d65b14ecc7a,64cf4b8c910285c0698e9f31,,,,,,,sngl,resources/DG.BMP,resources/Empty.png,WildCard_Ex,-0.328480903,0.007265625,1,0,0,0.7609,optionLeft,55,8675,4,25,0,25,0,1,,,,,,,,,,,,,,,,,,,,,,,,,,,,,,,,,,,,,,,
,,,,,,,,2023-08-06_08h28.29.129,HF_wild_card,2022.2.4,MacIntel,59.99880002,5d53bdc9b18d590018dac171,64ce5acb97489d65b14ecc7a,64cf4b8c910285c0698e9f31,,,,,,,sngl,resources/DR.BMP,resources/Empty.png,Door2,-0.325099826,-0.045199653,1,0,0,0.8298,optionLeft,20,8695,4,26,0,26,0,1,,,,,,,,,,,,,,,,,,,,,,,,,,,,,,,,,,,,,,,
,,,,,,,,2023-08-06_08h28.29.129,HF_wild_card,2022.2.4,MacIntel,59.99880002,5d53bdc9b18d590018dac171,64ce5acb97489d65b14ecc7a,64cf4b8c910285c0698e9f31,,,,,,,decisionTrl,resources/DG.BMP,resources/DR.BMP,WildCard_Ex,-0.404422743,-0.043025174,1,0,0,1.1095,optionLeft,45,8740,4,27,0,27,0,1,,,,,,,,,,,,,,,,,,,,,,,,,,,,,,,,,,,,,,,
,,,,,,,,2023-08-06_08h28.29.129,HF_wild_card,2022.2.4,MacIntel,59.99880002,5d53bdc9b18d590018dac171,64ce5acb97489d65b14ecc7a,64cf4b8c910285c0698e9f31,,,,,,,ctch,resources/DR.BMP,resources/DP.BMP,Door3,0.408155382,-0.077543403,1,0,0,1.1615,optionRight,70,8810,4,28,0,28,0,1,,,,,,,,,,,,,,,,,,,,,,,,,,,,,,,,,,,,,,,
,,,,,,,,2023-08-06_08h28.29.129,HF_wild_card,2022.2.4,MacIntel,59.99880002,5d53bdc9b18d590018dac171,64ce5acb97489d65b14ecc7a,64cf4b8c910285c0698e9f31,,,,,,,sngl,resources/Empty.png,resources/DG.BMP,WildCard_Ex,0.413259549,-0.043016493,1,0,0,0.8432,optionRight,45,8855,4,29,0,29,0,1,,,,,,,,,,,,,,,,,,,,,,,,,,,,,,,,,,,,,,,
,,,,,,,,2023-08-06_08h28.29.129,HF_wild_card,2022.2.4,MacIntel,59.99880002,5d53bdc9b18d590018dac171,64ce5acb97489d65b14ecc7a,64cf4b8c910285c0698e9f31,,,,,,,sngl,resources/Empty.png,resources/DP.BMP,Door3,0.304696181,-0.032226563,1,0,0,0.8257,optionRight,70,8925,4,30,0,30,0,1,,,,,,,,,,,,,,,,,,,,,,,,,,,,,,,,,,,,,,,
,,,,,,,,2023-08-06_08h28.29.129,HF_wild_card,2022.2.4,MacIntel,59.99880002,5d53bdc9b18d590018dac171,64ce5acb97489d65b14ecc7a,64cf4b8c910285c0698e9f31,,,,,,,sngl,resources/Empty.png,resources/DY.BMP,Door1,0.303897569,-0.037803819,1,0,0,1.0463,optionRight,30,8955,4,31,0,31,0,1,,,,,,,,,,,,,,,,,,,,,,,,,,,,,,,,,,,,,,,
,,,,,,,,2023-08-06_08h28.29.129,HF_wild_card,2022.2.4,MacIntel,59.99880002,5d53bdc9b18d590018dac171,64ce5acb97489d65b14ecc7a,64cf4b8c910285c0698e9f31,,,,,,,ctch,resources/DB.BMP,resources/DY.BMP,Door4,-0.348988715,-0.002452257,1,0,0,1.3127,optionLeft,60,9015,4,32,0,32,0,1,,,,,,,,,,,,,,,,,,,,,,,,,,,,,,,,,,,,,,,
,,,,,,,,2023-08-06_08h28.29.129,HF_wild_card,2022.2.4,MacIntel,59.99880002,5d53bdc9b18d590018dac171,64ce5acb97489d65b14ecc7a,64cf4b8c910285c0698e9f31,,,,,,,decisionTrl,resources/DB.BMP,resources/DP.BMP,Door3,0.313923611,-0.037113715,1,0,0,1.2788,optionRight,70,9085,4,33,0,33,0,1,,,,,,,,,,,,,,,,,,,,,,,,,,,,,,,,,,,,,,,
,,,,,,,,2023-08-06_08h28.29.129,HF_wild_card,2022.2.4,MacIntel,59.99880002,5d53bdc9b18d590018dac171,64ce5acb97489d65b14ecc7a,64cf4b8c910285c0698e9f31,,,,,,,decisionTrl,resources/DG.BMP,resources/DB.BMP,Door4,0.356414931,0.005924479,1,0,0,1.9803,optionRight,80,9165,4,34,0,34,0,1,,,,,,,,,,,,,,,,,,,,,,,,,,,,,,,,,,,,,,,
,,,,,,,,2023-08-06_08h28.29.129,HF_wild_card,2022.2.4,MacIntel,59.99880002,5d53bdc9b18d590018dac171,64ce5acb97489d65b14ecc7a,64cf4b8c910285c0698e9f31,,,,,,,decisionTrl,resources/DG.BMP,resources/DY.BMP,WildCard_Ex,-0.300998264,-0.022921007,1,0,0,1.8289,optionLeft,55,9220,4,35,0,35,0,1,,,,,,,,,,,,,,,,,,,,,,,,,,,,,,,,,,,,,,,
,,,,,,,,2023-08-06_08h28.29.129,HF_wild_card,2022.2.4,MacIntel,59.99880002,5d53bdc9b18d590018dac171,64ce5acb97489d65b14ecc7a,64cf4b8c910285c0698e9f31,,,,,,,ctch,resources/DR.BMP,resources/DP.BMP,Door3,0.403311632,-0.06641059,1,0,0,1.0283,optionRight,70,9290,4,36,0,36,0,1,,,,,,,,,,,,,,,,,,,,,,,,,,,,,,,,,,,,,,,
,,,,,,,,2023-08-06_08h28.29.129,HF_wild_card,2022.2.4,MacIntel,59.99880002,5d53bdc9b18d590018dac171,64ce5acb97489d65b14ecc7a,64cf4b8c910285c0698e9f31,,,,,,,decisionTrl,resources/DB.BMP,resources/DP.BMP,Door3,0.382721354,-0.06890191,1,0,0,1.295,optionRight,70,9360,4,37,0,37,0,1,,,,,,,,,,,,,,,,,,,,,,,,,,,,,,,,,,,,,,,
,,,,,,,,2023-08-06_08h28.29.129,HF_wild_card,2022.2.4,MacIntel,59.99880002,5d53bdc9b18d590018dac171,64ce5acb97489d65b14ecc7a,64cf4b8c910285c0698e9f31,,,,,,,decisionTrl,resources/DP.BMP,resources/DB.BMP,Door3,-0.3471875,-0.030243056,1,0,0,1.3947,optionLeft,70,9430,4,38,0,38,0,1,,,,,,,,,,,,,,,,,,,,,,,,,,,,,,,,,,,,,,,
,,,,,,,,2023-08-06_08h28.29.129,HF_wild_card,2022.2.4,MacIntel,59.99880002,5d53bdc9b18d590018dac171,64ce5acb97489d65b14ecc7a,64cf4b8c910285c0698e9f31,,,,,,,decisionTrl,resources/DR.BMP,resources/DY.BMP,Door1,0.348480903,-0.061901042,1,0,0,2.5792,optionRight,30,9460,4,39,0,39,0,1,,,,,,,,,,,,,,,,,,,,,,,,,,,,,,,,,,,,,,,
,,,,,,,,2023-08-06_08h28.29.129,HF_wild_card,2022.2.4,MacIntel,59.99880002,5d53bdc9b18d590018dac171,64ce5acb97489d65b14ecc7a,64cf4b8c910285c0698e9f31,,,,,,,sngl,resources/DY.BMP,resources/Empty.png,Door1,-0.367556424,-0.013806424,1,0,0,0.7943,optionLeft,30,9490,4,40,0,40,0,1,,,,,,,,,,,,,,,,,,,,,,,,,,,,,,,,,,,,,,,
,,,,,,,,2023-08-06_08h28.29.129,HF_wild_card,2022.2.4,MacIntel,59.99880002,5d53bdc9b18d590018dac171,64ce5acb97489d65b14ecc7a,64cf4b8c910285c0698e9f31,,,,,,,sngl,resources/Empty.png,resources/DR.BMP,Door2,0.378007812,-0.029318576,1,0,0,0.7593,optionRight,40,9530,4,41,0,41,0,1,,,,,,,,,,,,,,,,,,,,,,,,,,,,,,,,,,,,,,,
,,,,,,,,2023-08-06_08h28.29.129,HF_wild_card,2022.2.4,MacIntel,59.99880002,5d53bdc9b18d590018dac171,64ce5acb97489d65b14ecc7a,64cf4b8c910285c0698e9f31,,,,,,,decisionTrl,resources/DR.BMP,resources/DY.BMP,Door2,-0.34187066,-0.021892361,1,0,0,1.1617,optionLeft,20,9550,4,42,0,42,0,1,,,,,,,,,,,,,,,,,,,,,,,,,,,,,,,,,,,,,,,
,,,,,,,,2023-08-06_08h28.29.129,HF_wild_card,2022.2.4,MacIntel,59.99880002,5d53bdc9b18d590018dac171,64ce5acb97489d65b14ecc7a,64cf4b8c910285c0698e9f31,,,,,,,decisionTrl,resources/DR.BMP,resources/DG.BMP,WildCard_Ex,0.401888021,-0.016905382,1,0,0,1.2939,optionRight,45,9595,4,43,0,43,0,1,,,,,,,,,,,,,,,,,,,,,,,,,,,,,,,,,,,,,,,
,,,,,,,,2023-08-06_08h28.29.129,HF_wild_card,2022.2.4,MacIntel,59.99880002,5d53bdc9b18d590018dac171,64ce5acb97489d65b14ecc7a,64cf4b8c910285c0698e9f31,,,,,,,,,,,,,,,,,,,,,,,,,,3,0,3,0,1,,,,,,,,,,,,,,,,,,,,,,,,,,,,,,,,,,
,,,,,,,,2023-08-06_08h28.29.129,HF_wild_card,2022.2.4,MacIntel,59.99880002,5d53bdc9b18d590018dac171,64ce5acb97489d65b14ecc7a,64cf4b8c910285c0698e9f31,,,,,,,sngl,resources/DB.BMP,resources/Empty.png,Door4,-0.296145833,-0.147278646,1,0,0,0.9596,optionLeft,80,9675,5,0,0,0,0,1,,,,,,,,,,,,,,,,,,,,,,,,,,,,,,,,,,,,,,,
,,,,,,,,2023-08-06_08h28.29.129,HF_wild_card,2022.2.4,MacIntel,59.99880002,5d53bdc9b18d590018dac171,64ce5acb97489d65b14ecc7a,64cf4b8c910285c0698e9f31,,,,,,,decisionTrl,resources/DR.BMP,resources/DY.BMP,Door1,0.431931424,-0.047751736,1,0,0,3.2283,optionRight,30,9705,5,1,0,1,0,1,,,,,,,,,,,,,,,,,,,,,,,,,,,,,,,,,,,,,,,
,,,,,,,,2023-08-06_08h28.29.129,HF_wild_card,2022.2.4,MacIntel,59.99880002,5d53bdc9b18d590018dac171,64ce5acb97489d65b14ecc7a,64cf4b8c910285c0698e9f31,,,,,,,decisionTrl,resources/DB.BMP,resources/DP.BMP,Door3,0.401549479,-0.062907986,1,0,0,1.1777,optionRight,70,9775,5,2,0,2,0,1,,,,,,,,,,,,,,,,,,,,,,,,,,,,,,,,,,,,,,,
,,,,,,,,2023-08-06_08h28.29.129,HF_wild_card,2022.2.4,MacIntel,59.99880002,5d53bdc9b18d590018dac171,64ce5acb97489d65b14ecc7a,64cf4b8c910285c0698e9f31,,,,,,,ctch,resources/DB.BMP,resources/DY.BMP,Door4,-0.397899306,-0.065625,1,0,0,1.9948,optionLeft,60,9835,5,3,0,3,0,1,,,,,,,,,,,,,,,,,,,,,,,,,,,,,,,,,,,,,,,
,,,,,,,,2023-08-06_08h28.29.129,HF_wild_card,2022.2.4,MacIntel,59.99880002,5d53bdc9b18d590018dac171,64ce5acb97489d65b14ecc7a,64cf4b8c910285c0698e9f31,,,,,,,sngl,resources/Empty.png,resources/DB.BMP,Door4,0.330512153,-0.058094618,1,0,0,0.7778,optionRight,60,9895,5,4,0,4,0,1,,,,,,,,,,,,,,,,,,,,,,,,,,,,,,,,,,,,,,,
,,,,,,,,2023-08-06_08h28.29.129,HF_wild_card,2022.2.4,MacIntel,59.99880002,5d53bdc9b18d590018dac171,64ce5acb97489d65b14ecc7a,64cf4b8c910285c0698e9f31,,,,,,,decisionTrl,resources/DB.BMP,resources/DP.BMP,Door3,0.390611979,-0.056753472,1,0,0,1.3137,optionRight,70,9965,5,5,0,5,0,1,,,,,,,,,,,,,,,,,,,,,,,,,,,,,,,,,,,,,,,
,,,,,,,,2023-08-06_08h28.29.129,HF_wild_card,2022.2.4,MacIntel,59.99880002,5d53bdc9b18d590018dac171,64ce5acb97489d65b14ecc7a,64cf4b8c910285c0698e9f31,,,,,,,sngl,resources/Empty.png,resources/DR.BMP,Door2,0.351588542,-0.004722222,1,0,0,0.8457,optionRight,20,9985,5,6,0,6,0,1,,,,,,,,,,,,,,,,,,,,,,,,,,,,,,,,,,,,,,,
,,,,,,,,2023-08-06_08h28.29.129,HF_wild_card,2022.2.4,MacIntel,59.99880002,5d53bdc9b18d590018dac171,64ce5acb97489d65b14ecc7a,64cf4b8c910285c0698e9f31,,,,,,,decisionTrl,resources/DP.BMP,resources/DB.BMP,Door3,-0.410212674,-0.003971354,1,0,0,0.8953,optionLeft,70,10055,5,7,0,7,0,1,,,,,,,,,,,,,,,,,,,,,,,,,,,,,,,,,,,,,,,
,,,,,,,,2023-08-06_08h28.29.129,HF_wild_card,2022.2.4,MacIntel,59.99880002,5d53bdc9b18d590018dac171,64ce5acb97489d65b14ecc7a,64cf4b8c910285c0698e9f31,,,,,,,decisionTrl,resources/DB.BMP,resources/DG.BMP,Door4,-0.29781684,0.009149306,1,0,0,2.044,optionLeft,60,10115,5,8,0,8,0,1,,,,,,,,,,,,,,,,,,,,,,,,,,,,,,,,,,,,,,,
,,,,,,,,2023-08-06_08h28.29.129,HF_wild_card,2022.2.4,MacIntel,59.99880002,5d53bdc9b18d590018dac171,64ce5acb97489d65b14ecc7a,64cf4b8c910285c0698e9f31,,,,,,,decisionTrl,resources/DG.BMP,resources/DR.BMP,WildCard_Ex,-0.322378472,-0.041875,1,0,0,1.1795,optionLeft,55,10170,5,9,0,9,0,1,,,,,,,,,,,,,,,,,,,,,,,,,,,,,,,,,,,,,,,
,,,,,,,,2023-08-06_08h28.29.129,HF_wild_card,2022.2.4,MacIntel,59.99880002,5d53bdc9b18d590018dac171,64ce5acb97489d65b14ecc7a,64cf4b8c910285c0698e9f31,,,,,,,ctch,resources/DP.BMP,resources/DR.BMP,Door3,-0.373307292,-0.068051215,1,0,0,1.0199,optionLeft,70,10240,5,10,0,10,0,1,,,,,,,,,,,,,,,,,,,,,,,,,,,,,,,,,,,,,,,
,,,,,,,,2023-08-06_08h28.29.129,HF_wild_card,2022.2.4,MacIntel,59.99880002,5d53bdc9b18d590018dac171,64ce5acb97489d65b14ecc7a,64cf4b8c910285c0698e9f31,,,,,,,decisionTrl,resources/DR.BMP,resources/DY.BMP,Door1,0.464162326,0.00390191,1,0,0,4.5771,optionRight,30,10270,5,11,0,11,0,1,,,,,,,,,,,,,,,,,,,,,,,,,,,,,,,,,,,,,,,
,,,,,,,,2023-08-06_08h28.29.129,HF_wild_card,2022.2.4,MacIntel,59.99880002,5d53bdc9b18d590018dac171,64ce5acb97489d65b14ecc7a,64cf4b8c910285c0698e9f31,,,,,,,decisionTrl,resources/DB.BMP,resources/DP.BMP,Door3,0.414813368,0.01077691,1,0,0,1.1785,optionRight,70,10340,5,12,0,12,0,1,,,,,,,,,,,,,,,,,,,,,,,,,,,,,,,,,,,,,,,
,,,,,,,,2023-08-06_08h28.29.129,HF_wild_card,2022.2.4,MacIntel,59.99880002,5d53bdc9b18d590018dac171,64ce5acb97489d65b14ecc7a,64cf4b8c910285c0698e9f31,,,,,,,sngl,resources/DR.BMP,resources/Empty.png,Door2,-0.358984375,-0.002625868,1,0,0,0.8792,optionLeft,40,10380,5,13,0,13,0,1,,,,,,,,,,,,,,,,,,,,,,,,,,,,,,,,,,,,,,,
,,,,,,,,2023-08-06_08h28.29.129,HF_wild_card,2022.2.4,MacIntel,59.99880002,5d53bdc9b18d590018dac171,64ce5acb97489d65b14ecc7a,64cf4b8c910285c0698e9f31,,,,,,,ctch,resources/DR.BMP,resources/DP.BMP,Door3,0.407417535,-0.009796007,1,0,0,1.4439,optionRight,70,10450,5,14,0,14,0,1,,,,,,,,,,,,,,,,,,,,,,,,,,,,,,,,,,,,,,,
,,,,,,,,2023-08-06_08h28.29.129,HF_wild_card,2022.2.4,MacIntel,59.99880002,5d53bdc9b18d590018dac171,64ce5acb97489d65b14ecc7a,64cf4b8c910285c0698e9f31,,,,,,,sngl,resources/Empty.png,resources/DP.BMP,Door3,0.432921007,-0.035060764,1,0,0,0.8112,optionRight,70,10520,5,15,0,15,0,1,,,,,,,,,,,,,,,,,,,,,,,,,,,,,,,,,,,,,,,
,,,,,,,,2023-08-06_08h28.29.129,HF_wild_card,2022.2.4,MacIntel,59.99880002,5d53bdc9b18d590018dac171,64ce5acb97489d65b14ecc7a,64cf4b8c910285c0698e9f31,,,,,,,decisionTrl,resources/DG.BMP,resources/DB.BMP,Door4,0.357482639,-0.061523438,1,0,0,3.7778,optionRight,80,10600,5,16,0,16,0,1,,,,,,,,,,,,,,,,,,,,,,,,,,,,,,,,,,,,,,,
,,,,,,,,2023-08-06_08h28.29.129,HF_wild_card,2022.2.4,MacIntel,59.99880002,5d53bdc9b18d590018dac171,64ce5acb97489d65b14ecc7a,64cf4b8c910285c0698e9f31,,,,,,,decisionTrl,resources/DP.BMP,resources/DG.BMP,Door3,-0.441614583,-0.065655382,1,0,0,0.9102,optionLeft,70,10670,5,17,0,17,0,1,,,,,,,,,,,,,,,,,,,,,,,,,,,,,,,,,,,,,,,
,,,,,,,,2023-08-06_08h28.29.129,HF_wild_card,2022.2.4,MacIntel,59.99880002,5d53bdc9b18d590018dac171,64ce5acb97489d65b14ecc7a,64cf4b8c910285c0698e9f31,,,,,,,decisionTrl,resources/DR.BMP,resources/DY.BMP,Door1,0.383142361,-0.054027778,1,0,0,2.5098,optionRight,30,10700,5,18,0,18,0,1,,,,,,,,,,,,,,,,,,,,,,,,,,,,,,,,,,,,,,,
,,,,,,,,2023-08-06_08h28.29.129,HF_wild_card,2022.2.4,MacIntel,59.99880002,5d53bdc9b18d590018dac171,64ce5acb97489d65b14ecc7a,64cf4b8c910285c0698e9f31,,,,,,,ctch,resources/DY.BMP,resources/DB.BMP,Door4,0.417743056,-0.023090278,1,0,0,0.9437,optionRight,60,10760,5,19,0,19,0,1,,,,,,,,,,,,,,,,,,,,,,,,,,,,,,,,,,,,,,,
,,,,,,,,2023-08-06_08h28.29.129,HF_wild_card,2022.2.4,MacIntel,59.99880002,5d53bdc9b18d590018dac171,64ce5acb97489d65b14ecc7a,64cf4b8c910285c0698e9f31,,,,,,,decisionTrl,resources/DY.BMP,resources/DR.BMP,Door2,0.371206597,-0.029674479,1,0,0,2.0623,optionRight,20,10780,5,20,0,20,0,1,,,,,,,,,,,,,,,,,,,,,,,,,,,,,,,,,,,,,,,
,,,,,,,,2023-08-06_08h28.29.129,HF_wild_card,2022.2.4,MacIntel,59.99880002,5d53bdc9b18d590018dac171,64ce5acb97489d65b14ecc7a,64cf4b8c910285c0698e9f31,,,,,,,sngl,resources/Empty.png,resources/DG.BMP,WildCard_Ex,0.413025174,-0.002708333,1,0,0,0.8963,optionRight,45,10825,5,21,0,21,0,1,,,,,,,,,,,,,,,,,,,,,,,,,,,,,,,,,,,,,,,
,,,,,,,,2023-08-06_08h28.29.129,HF_wild_card,2022.2.4,MacIntel,59.99880002,5d53bdc9b18d590018dac171,64ce5acb97489d65b14ecc7a,64cf4b8c910285c0698e9f31,,,,,,,sngl,resources/DG.BMP,resources/Empty.png,WildCard_Ex,-0.279904514,0.003884549,1,0,0,0.7126,optionLeft,45,10870,5,22,0,22,0,1,,,,,,,,,,,,,,,,,,,,,,,,,,,,,,,,,,,,,,,
,,,,,,,,2023-08-06_08h28.29.129,HF_wild_card,2022.2.4,MacIntel,59.99880002,5d53bdc9b18d590018dac171,64ce5acb97489d65b14ecc7a,64cf4b8c910285c0698e9f31,,,,,,,decisionTrl,resources/DP.BMP,resources/DB.BMP,Door3,-0.388498264,-0.071684028,1,0,0,0.9931,optionLeft,70,10940,5,23,0,23,0,1,,,,,,,,,,,,,,,,,,,,,,,,,,,,,,,,,,,,,,,
,,,,,,,,2023-08-06_08h28.29.129,HF_wild_card,2022.2.4,MacIntel,59.99880002,5d53bdc9b18d590018dac171,64ce5acb97489d65b14ecc7a,64cf4b8c910285c0698e9f31,,,,,,,ctch,resources/DY.BMP,resources/DB.BMP,Door4,0.422269965,-0.018407118,1,0,0,0.7757,optionRight,60,11000,5,24,0,24,0,1,,,,,,,,,,,,,,,,,,,,,,,,,,,,,,,,,,,,,,,
,,,,,,,,2023-08-06_08h28.29.129,HF_wild_card,2022.2.4,MacIntel,59.99880002,5d53bdc9b18d590018dac171,64ce5acb97489d65b14ecc7a,64cf4b8c910285c0698e9f31,,,,,,,decisionTrl,resources/DG.BMP,resources/DP.BMP,Door3,0.344943576,-0.031458333,1,0,0,1.9773,optionRight,70,11070,5,25,0,25,0,1,,,,,,,,,,,,,,,,,,,,,,,,,,,,,,,,,,,,,,,
,,,,,,,,2023-08-06_08h28.29.129,HF_wild_card,2022.2.4,MacIntel,59.99880002,5d53bdc9b18d590018dac171,64ce5acb97489d65b14ecc7a,64cf4b8c910285c0698e9f31,,,,,,,sngl,resources/Empty.png,resources/DY.BMP,Door1,0.425581597,-0.004552951,1,0,0,0.8971,optionRight,30,11100,5,26,0,26,0,1,,,,,,,,,,,,,,,,,,,,,,,,,,,,,,,,,,,,,,,
,,,,,,,,2023-08-06_08h28.29.129,HF_wild_card,2022.2.4,MacIntel,59.99880002,5d53bdc9b18d590018dac171,64ce5acb97489d65b14ecc7a,64cf4b8c910285c0698e9f31,,,,,,,sngl,resources/DY.BMP,resources/Empty.png,Door1,-0.303888889,-0.00141059,1,0,0,0.7936,optionLeft,30,11130,5,27,0,27,0,1,,,,,,,,,,,,,,,,,,,,,,,,,,,,,,,,,,,,,,,
,,,,,,,,2023-08-06_08h28.29.129,HF_wild_card,2022.2.4,MacIntel,59.99880002,5d53bdc9b18d590018dac171,64ce5acb97489d65b14ecc7a,64cf4b8c910285c0698e9f31,,,,,,,decisionTrl,resources/DY.BMP,resources/DR.BMP,Door2,0.345334201,0.001961806,1,0,0,1.6595,optionRight,20,11150,5,28,0,28,0,1,,,,,,,,,,,,,,,,,,,,,,,,,,,,,,,,,,,,,,,
,,,,,,,,2023-08-06_08h28.29.129,HF_wild_card,2022.2.4,MacIntel,59.99880002,5d53bdc9b18d590018dac171,64ce5acb97489d65b14ecc7a,64cf4b8c910285c0698e9f31,,,,,,,sngl,resources/DP.BMP,resources/Empty.png,Door3,-0.384140625,-0.014162326,1,0,0,0.7451,optionLeft,70,11220,5,29,0,29,0,1,,,,,,,,,,,,,,,,,,,,,,,,,,,,,,,,,,,,,,,
,,,,,,,,2023-08-06_08h28.29.129,HF_wild_card,2022.2.4,MacIntel,59.99880002,5d53bdc9b18d590018dac171,64ce5acb97489d65b14ecc7a,64cf4b8c910285c0698e9f31,,,,,,,decisionTrl,resources/DY.BMP,resources/DG.BMP,WildCard_Ex,0.350985243,-0.046284722,1,0,0,1.2143,optionRight,55,11275,5,30,0,30,0,1,,,,,,,,,,,,,,,,,,,,,,,,,,,,,,,,,,,,,,,
,,,,,,,,2023-08-06_08h28.29.129,HF_wild_card,2022.2.4,MacIntel,59.99880002,5d53bdc9b18d590018dac171,64ce5acb97489d65b14ecc7a,64cf4b8c910285c0698e9f31,,,,,,,decisionTrl,resources/DR.BMP,resources/DY.BMP,Door1,0.350529514,0.004960938,1,0,0,2.626,optionRight,30,11305,5,31,0,31,0,1,,,,,,,,,,,,,,,,,,,,,,,,,,,,,,,,,,,,,,,
,,,,,,,,2023-08-06_08h28.29.129,HF_wild_card,2022.2.4,MacIntel,59.99880002,5d53bdc9b18d590018dac171,64ce5acb97489d65b14ecc7a,64cf4b8c910285c0698e9f31,,,,,,,decisionTrl,resources/DB.BMP,resources/DP.BMP,Door3,0.401276042,-0.04265625,1,0,0,1.2591,optionRight,70,11375,5,32,0,32,0,1,,,,,,,,,,,,,,,,,,,,,,,,,,,,,,,,,,,,,,,
,,,,,,,,2023-08-06_08h28.29.129,HF_wild_card,2022.2.4,MacIntel,59.99880002,5d53bdc9b18d590018dac171,64ce5acb97489d65b14ecc7a,64cf4b8c910285c0698e9f31,,,,,,,ctch,resources/DR.BMP,resources/DP.BMP,Door3,0.386310764,-0.049887153,1,0,0,1.2447,optionRight,70,11445,5,33,0,33,0,1,,,,,,,,,,,,,,,,,,,,,,,,,,,,,,,,,,,,,,,
,,,,,,,,2023-08-06_08h28.29.129,HF_wild_card,2022.2.4,MacIntel,59.99880002,5d53bdc9b18d590018dac171,64ce5acb97489d65b14ecc7a,64cf4b8c910285c0698e9f31,,,,,,,decisionTrl,resources/DG.BMP,resources/DY.BMP,WildCard_Ex,-0.412986111,-0.030143229,1,0,0,1.3935,optionLeft,55,11500,5,34,0,34,0,1,,,,,,,,,,,,,,,,,,,,,,,,,,,,,,,,,,,,,,,
,,,,,,,,2023-08-06_08h28.29.129,HF_wild_card,2022.2.4,MacIntel,59.99880002,5d53bdc9b18d590018dac171,64ce5acb97489d65b14ecc7a,64cf4b8c910285c0698e9f31,,,,,,,decisionTrl,resources/DY.BMP,resources/DR.BMP,Door2,0.317157118,-0.033741319,1,0,0,2.629,optionRight,20,11520,5,35,0,35,0,1,,,,,,,,,,,,,,,,,,,,,,,,,,,,,,,,,,,,,,,
,,,,,,,,2023-08-06_08h28.29.129,HF_wild_card,2022.2.4,MacIntel,59.99880002,5d53bdc9b18d590018dac171,64ce5acb97489d65b14ecc7a,64cf4b8c910285c0698e9f31,,,,,,,ctch,resources/DP.BMP,resources/DR.BMP,Door3,-0.411831597,-0.008307292,1,0,0,0.7289,optionLeft,70,11590,5,36,0,36,0,1,,,,,,,,,,,,,,,,,,,,,,,,,,,,,,,,,,,,,,,
,,,,,,,,2023-08-06_08h28.29.129,HF_wild_card,2022.2.4,MacIntel,59.99880002,5d53bdc9b18d590018dac171,64ce5acb97489d65b14ecc7a,64cf4b8c910285c0698e9f31,,,,,,,decisionTrl,resources/DR.BMP,resources/DG.BMP,WildCard_Ex,0.405755208,0.012213542,1,0,0,1.144,optionRight,45,11635,5,37,0,37,0,1,,,,,,,,,,,,,,,,,,,,,,,,,,,,,,,,,,,,,,,
,,,,,,,,2023-08-06_08h28.29.129,HF_wild_card,2022.2.4,MacIntel,59.99880002,5d53bdc9b18d590018dac171,64ce5acb97489d65b14ecc7a,64cf4b8c910285c0698e9f31,,,,,,,decisionTrl,resources/DP.BMP,resources/DB.BMP,Door4,0.403194444,-0.031488715,1,0,0,1.7258,optionRight,80,11715,5,38,0,38,0,1,,,,,,,,,,,,,,,,,,,,,,,,,,,,,,,,,,,,,,,
,,,,,,,,2023-08-06_08h28.29.129,HF_wild_card,2022.2.4,MacIntel,59.99880002,5d53bdc9b18d590018dac171,64ce5acb97489d65b14ecc7a,64cf4b8c910285c0698e9f31,,,,,,,decisionTrl,resources/DY.BMP,resources/DR.BMP,Door1,-0.34609809,-0.039461806,1,0,0,1.8785,optionLeft,30,11745,5,39,0,39,0,1,,,,,,,,,,,,,,,,,,,,,,,,,,,,,,,,,,,,,,,
,,,,,,,,2023-08-06_08h28.29.129,HF_wild_card,2022.2.4,MacIntel,59.99880002,5d53bdc9b18d590018dac171,64ce5acb97489d65b14ecc7a,64cf4b8c910285c0698e9f31,,,,,,,decisionTrl,resources/DP.BMP,resources/DB.BMP,Door4,0.344257812,0.000130208,1,0,0,1.3443,optionRight,80,11825,5,40,0,40,0,1,,,,,,,,,,,,,,,,,,,,,,,,,,,,,,,,,,,,,,,
,,,,,,,,2023-08-06_08h28.29.129,HF_wild_card,2022.2.4,MacIntel,59.99880002,5d53bdc9b18d590018dac171,64ce5acb97489d65b14ecc7a,64cf4b8c910285c0698e9f31,,,,,,,ctch,resources/DB.BMP,resources/DY.BMP,Door4,-0.326536458,-0.021966146,1,0,0,0.9615,optionLeft,60,11885,5,41,0,41,0,1,,,,,,,,,,,,,,,,,,,,,,,,,,,,,,,,,,,,,,,
,,,,,,,,2023-08-06_08h28.29.129,HF_wild_card,2022.2.4,MacIntel,59.99880002,5d53bdc9b18d590018dac171,64ce5acb97489d65b14ecc7a,64cf4b8c910285c0698e9f31,,,,,,,sngl,resources/DG.BMP,resources/Empty.png,WildCard_Ex,-0.281163194,0.010052083,1,0,0,0.9123,optionLeft,55,11940,5,42,0,42,0,1,,,,,,,,,,,,,,,,,,,,,,,,,,,,,,,,,,,,,,,
,,,,,,,,2023-08-06_08h28.29.129,HF_wild_card,2022.2.4,MacIntel,59.99880002,5d53bdc9b18d590018dac171,64ce5acb97489d65b14ecc7a,64cf4b8c910285c0698e9f31,,,,,,,sngl,resources/Empty.png,resources/DG.BMP,WildCard_Ex,0.371644965,0.001480035,1,0,0,1.0961,optionRight,55,11995,5,43,0,43,0,1,,,,,,,,,,,,,,,,,,,,,,,,,,,,,,,,,,,,,,,
,,,,,,,,2023-08-06_08h28.29.129,HF_wild_card,2022.2.4,MacIntel,59.99880002,5d53bdc9b18d590018dac171,64ce5acb97489d65b14ecc7a,64cf4b8c910285c0698e9f31,,,,,,,,,,,,,,,,,,,,,,,,,,4,0,4,0,1,,,,,,,,,,,,,,,,,,,,,,,,,,,,,,,,,,
,,,,,,,,2023-08-06_08h28.29.129,HF_wild_card,2022.2.4,MacIntel,59.99880002,5d53bdc9b18d590018dac171,64ce5acb97489d65b14ecc7a,64cf4b8c910285c0698e9f31,,,,,,,sngl,resources/Empty.png,resources/DG.BMP,WildCard_Ex,0.365516493,-0.074835069,1,0,0,0.8891,optionRight,45,12040,6,0,0,0,0,1,,,,,,,,,,,,,,,,,,,,,,,,,,,,,,,,,,,,,,,
,,,,,,,,2023-08-06_08h28.29.129,HF_wild_card,2022.2.4,MacIntel,59.99880002,5d53bdc9b18d590018dac171,64ce5acb97489d65b14ecc7a,64cf4b8c910285c0698e9f31,,,,,,,decisionTrl,resources/DB.BMP,resources/DP.BMP,Door4,-0.340130208,-0.002690972,1,0,0,2.6444,optionLeft,80,12120,6,1,0,1,0,1,,,,,,,,,,,,,,,,,,,,,,,,,,,,,,,,,,,,,,,
,,,,,,,,2023-08-06_08h28.29.129,HF_wild_card,2022.2.4,MacIntel,59.99880002,5d53bdc9b18d590018dac171,64ce5acb97489d65b14ecc7a,64cf4b8c910285c0698e9f31,,,,,,,decisionTrl,resources/DB.BMP,resources/DP.BMP,Door4,-0.320208333,-0.039266493,1,0,0,0.978,optionLeft,80,12200,6,2,0,2,0,1,,,,,,,,,,,,,,,,,,,,,,,,,,,,,,,,,,,,,,,
,,,,,,,,2023-08-06_08h28.29.129,HF_wild_card,2022.2.4,MacIntel,59.99880002,5d53bdc9b18d590018dac171,64ce5acb97489d65b14ecc7a,64cf4b8c910285c0698e9f31,,,,,,,decisionTrl,resources/DY.BMP,resources/DR.BMP,Door1,-0.287773438,-0.027608507,1,0,0,2.1802,optionLeft,30,12230,6,3,0,3,0,1,,,,,,,,,,,,,,,,,,,,,,,,,,,,,,,,,,,,,,,
,,,,,,,,2023-08-06_08h28.29.129,HF_wild_card,2022.2.4,MacIntel,59.99880002,5d53bdc9b18d590018dac171,64ce5acb97489d65b14ecc7a,64cf4b8c910285c0698e9f31,,,,,,,ctch,resources/DP.BMP,resources/DR.BMP,Door3,-0.381319444,-0.039401042,1,0,0,1.0124,optionLeft,70,12300,6,4,0,4,0,1,,,,,,,,,,,,,,,,,,,,,,,,,,,,,,,,,,,,,,,
,,,,,,,,2023-08-06_08h28.29.129,HF_wild_card,2022.2.4,MacIntel,59.99880002,5d53bdc9b18d590018dac171,64ce5acb97489d65b14ecc7a,64cf4b8c910285c0698e9f31,,,,,,,sngl,resources/DY.BMP,resources/Empty.png,Door1,-0.27297309,-0.013229167,1,0,0,0.8266,optionLeft,30,12330,6,5,0,5,0,1,,,,,,,,,,,,,,,,,,,,,,,,,,,,,,,,,,,,,,,
,,,,,,,,2023-08-06_08h28.29.129,HF_wild_card,2022.2.4,MacIntel,59.99880002,5d53bdc9b18d590018dac171,64ce5acb97489d65b14ecc7a,64cf4b8c910285c0698e9f31,,,,,,,decisionTrl,resources/DG.BMP,resources/DP.BMP,Door3,0.37640191,-0.030698785,1,0,0,1.1786,optionRight,70,12400,6,6,0,6,0,1,,,,,,,,,,,,,,,,,,,,,,,,,,,,,,,,,,,,,,,
,,,,,,,,2023-08-06_08h28.29.129,HF_wild_card,2022.2.4,MacIntel,59.99880002,5d53bdc9b18d590018dac171,64ce5acb97489d65b14ecc7a,64cf4b8c910285c0698e9f31,,,,,,,decisionTrl,resources/DP.BMP,resources/DB.BMP,Door4,0.39672309,-0.008420139,1,0,0,0.962,optionRight,60,12460,6,7,0,7,0,1,,,,,,,,,,,,,,,,,,,,,,,,,,,,,,,,,,,,,,,
,,,,,,,,2023-08-06_08h28.29.129,HF_wild_card,2022.2.4,MacIntel,59.99880002,5d53bdc9b18d590018dac171,64ce5acb97489d65b14ecc7a,64cf4b8c910285c0698e9f31,,,,,,,ctch,resources/DB.BMP,resources/DY.BMP,Door4,-0.37358941,-0.029244792,1,0,0,0.9116,optionLeft,80,12540,6,8,0,8,0,1,,,,,,,,,,,,,,,,,,,,,,,,,,,,,,,,,,,,,,,
,,,,,,,,2023-08-06_08h28.29.129,HF_wild_card,2022.2.4,MacIntel,59.99880002,5d53bdc9b18d590018dac171,64ce5acb97489d65b14ecc7a,64cf4b8c910285c0698e9f31,,,,,,,decisionTrl,resources/DR.BMP,resources/DY.BMP,Door1,0.404418403,-0.023532986,1,0,0,3.1639,optionRight,30,12570,6,9,0,9,0,1,,,,,,,,,,,,,,,,,,,,,,,,,,,,,,,,,,,,,,,
,,,,,,,,2023-08-06_08h28.29.129,HF_wild_card,2022.2.4,MacIntel,59.99880002,5d53bdc9b18d590018dac171,64ce5acb97489d65b14ecc7a,64cf4b8c910285c0698e9f31,,,,,,,sngl,resources/Empty.png,resources/DR.BMP,Door2,0.386597222,0.000243056,1,0,0,0.827,optionRight,40,12610,6,10,0,10,0,1,,,,,,,,,,,,,,,,,,,,,,,,,,,,,,,,,,,,,,,
,,,,,,,,2023-08-06_08h28.29.129,HF_wild_card,2022.2.4,MacIntel,59.99880002,5d53bdc9b18d590018dac171,64ce5acb97489d65b14ecc7a,64cf4b8c910285c0698e9f31,,,,,,,decisionTrl,resources/DR.BMP,resources/DY.BMP,Door1,0.419626736,0.005256076,1,0,0,2.3475,optionRight,30,12640,6,11,0,11,0,1,,,,,,,,,,,,,,,,,,,,,,,,,,,,,,,,,,,,,,,
,,,,,,,,2023-08-06_08h28.29.129,HF_wild_card,2022.2.4,MacIntel,59.99880002,5d53bdc9b18d590018dac171,64ce5acb97489d65b14ecc7a,64cf4b8c910285c0698e9f31,,,,,,,decisionTrl,resources/DY.BMP,resources/DR.BMP,Door1,-0.329800347,-0.029366319,1,0,0,1.6755,optionLeft,30,12670,6,12,0,12,0,1,,,,,,,,,,,,,,,,,,,,,,,,,,,,,,,,,,,,,,,
,,,,,,,,2023-08-06_08h28.29.129,HF_wild_card,2022.2.4,MacIntel,59.99880002,5d53bdc9b18d590018dac171,64ce5acb97489d65b14ecc7a,64cf4b8c910285c0698e9f31,,,,,,,decisionTrl,resources/DR.BMP,resources/DG.BMP,WildCard_Ex,0.421306424,0.002712674,1,0,0,0.9958,optionRight,55,12725,6,13,0,13,0,1,,,,,,,,,,,,,,,,,,,,,,,,,,,,,,,,,,,,,,,
,,,,,,,,2023-08-06_08h28.29.129,HF_wild_card,2022.2.4,MacIntel,59.99880002,5d53bdc9b18d590018dac171,64ce5acb97489d65b14ecc7a,64cf4b8c910285c0698e9f31,,,,,,,ctch,resources/DY.BMP,resources/DB.BMP,Door4,0.339952257,-0.014509549,1,0,0,0.8948,optionRight,80,12805,6,14,0,14,0,1,,,,,,,,,,,,,,,,,,,,,,,,,,,,,,,,,,,,,,,
,,,,,,,,2023-08-06_08h28.29.129,HF_wild_card,2022.2.4,MacIntel,59.99880002,5d53bdc9b18d590018dac171,64ce5acb97489d65b14ecc7a,64cf4b8c910285c0698e9f31,,,,,,,decisionTrl,resources/DB.BMP,resources/DP.BMP,Door4,-0.298684896,-0.015217014,1,0,0,0.9962,optionLeft,80,12885,6,15,0,15,0,1,,,,,,,,,,,,,,,,,,,,,,,,,,,,,,,,,,,,,,,
,,,,,,,,2023-08-06_08h28.29.129,HF_wild_card,2022.2.4,MacIntel,59.99880002,5d53bdc9b18d590018dac171,64ce5acb97489d65b14ecc7a,64cf4b8c910285c0698e9f31,,,,,,,sngl,resources/Empty.png,resources/DY.BMP,Door1,0.397009549,-0.030711806,1,0,0,0.895,optionRight,30,12915,6,16,0,16,0,1,,,,,,,,,,,,,,,,,,,,,,,,,,,,,,,,,,,,,,,
,,,,,,,,2023-08-06_08h28.29.129,HF_wild_card,2022.2.4,MacIntel,59.99880002,5d53bdc9b18d590018dac171,64ce5acb97489d65b14ecc7a,64cf4b8c910285c0698e9f31,,,,,,,decisionTrl,resources/DB.BMP,resources/DG.BMP,Door4,-0.357330729,-0.009661458,1,0,0,1.31,optionLeft,80,12995,6,17,0,17,0,1,,,,,,,,,,,,,,,,,,,,,,,,,,,,,,,,,,,,,,,
,,,,,,,,2023-08-06_08h28.29.129,HF_wild_card,2022.2.4,MacIntel,59.99880002,5d53bdc9b18d590018dac171,64ce5acb97489d65b14ecc7a,64cf4b8c910285c0698e9f31,,,,,,,sngl,resources/Empty.png,resources/DB.BMP,Door4,0.363250868,0.007864583,1,0,0,0.7604,optionRight,80,13075,6,18,0,18,0,1,,,,,,,,,,,,,,,,,,,,,,,,,,,,,,,,,,,,,,,
,,,,,,,,2023-08-06_08h28.29.129,HF_wild_card,2022.2.4,MacIntel,59.99880002,5d53bdc9b18d590018dac171,64ce5acb97489d65b14ecc7a,64cf4b8c910285c0698e9f31,,,,,,,decisionTrl,resources/DP.BMP,resources/DG.BMP,Door3,-0.365633681,-0.041532118,1,0,0,1.1435,optionLeft,70,13145,6,19,0,19,0,1,,,,,,,,,,,,,,,,,,,,,,,,,,,,,,,,,,,,,,,
,,,,,,,,2023-08-06_08h28.29.129,HF_wild_card,2022.2.4,MacIntel,59.99880002,5d53bdc9b18d590018dac171,64ce5acb97489d65b14ecc7a,64cf4b8c910285c0698e9f31,,,,,,,sngl,resources/Empty.png,resources/DG.BMP,WildCard_Ex,0.414904514,-0.032855903,1,0,0,0.8117,optionRight,55,13200,6,20,0,20,0,1,,,,,,,,,,,,,,,,,,,,,,,,,,,,,,,,,,,,,,,
,,,,,,,,2023-08-06_08h28.29.129,HF_wild_card,2022.2.4,MacIntel,59.99880002,5d53bdc9b18d590018dac171,64ce5acb97489d65b14ecc7a,64cf4b8c910285c0698e9f31,,,,,,,decisionTrl,resources/DB.BMP,resources/DP.BMP,Door4,-0.311432292,-0.011948785,1,0,0,1.0961,optionLeft,80,13280,6,21,0,21,0,1,,,,,,,,,,,,,,,,,,,,,,,,,,,,,,,,,,,,,,,
,,,,,,,,2023-08-06_08h28.29.129,HF_wild_card,2022.2.4,MacIntel,59.99880002,5d53bdc9b18d590018dac171,64ce5acb97489d65b14ecc7a,64cf4b8c910285c0698e9f31,,,,,,,ctch,resources/DP.BMP,resources/DR.BMP,Door3,-0.412222222,-0.045182292,1,0,0,1.4448,optionLeft,70,13350,6,22,0,22,0,1,,,,,,,,,,,,,,,,,,,,,,,,,,,,,,,,,,,,,,,
,,,,,,,,2023-08-06_08h28.29.129,HF_wild_card,2022.2.4,MacIntel,59.99880002,5d53bdc9b18d590018dac171,64ce5acb97489d65b14ecc7a,64cf4b8c910285c0698e9f31,,,,,,,decisionTrl,resources/DG.BMP,resources/DR.BMP,WildCard_Ex,-0.362426215,-0.086584201,1,0,0,1.5444,optionLeft,45,13395,6,23,0,23,0,1,,,,,,,,,,,,,,,,,,,,,,,,,,,,,,,,,,,,,,,
,,,,,,,,2023-08-06_08h28.29.129,HF_wild_card,2022.2.4,MacIntel,59.99880002,5d53bdc9b18d590018dac171,64ce5acb97489d65b14ecc7a,64cf4b8c910285c0698e9f31,,,,,,,sngl,resources/DB.BMP,resources/Empty.png,Door4,-0.329197049,-0.002391493,1,0,0,0.7116,optionLeft,60,13455,6,24,0,24,0,1,,,,,,,,,,,,,,,,,,,,,,,,,,,,,,,,,,,,,,,
,,,,,,,,2023-08-06_08h28.29.129,HF_wild_card,2022.2.4,MacIntel,59.99880002,5d53bdc9b18d590018dac171,64ce5acb97489d65b14ecc7a,64cf4b8c910285c0698e9f31,,,,,,,decisionTrl,resources/DR.BMP,resources/DY.BMP,Door1,0.381206597,-0.031783854,1,0,0,1.9767,optionRight,30,13485,6,25,0,25,0,1,,,,,,,,,,,,,,,,,,,,,,,,,,,,,,,,,,,,,,,
,,,,,,,,2023-08-06_08h28.29.129,HF_wild_card,2022.2.4,MacIntel,59.99880002,5d53bdc9b18d590018dac171,64ce5acb97489d65b14ecc7a,64cf4b8c910285c0698e9f31,,,,,,,decisionTrl,resources/DP.BMP,resources/DB.BMP,Door3,-0.379674479,0.033940972,1,0,0,0.8786,optionLeft,70,13555,6,26,0,26,0,1,,,,,,,,,,,,,,,,,,,,,,,,,,,,,,,,,,,,,,,
,,,,,,,,2023-08-06_08h28.29.129,HF_wild_card,2022.2.4,MacIntel,59.99880002,5d53bdc9b18d590018dac171,64ce5acb97489d65b14ecc7a,64cf4b8c910285c0698e9f31,,,,,,,decisionTrl,resources/DG.BMP,resources/DY.BMP,WildCard_Ex,-0.295959201,0.00172309,1,0,0,1.3109,optionLeft,55,13610,6,27,0,27,0,1,,,,,,,,,,,,,,,,,,,,,,,,,,,,,,,,,,,,,,,
,,,,,,,,2023-08-06_08h28.29.129,HF_wild_card,2022.2.4,MacIntel,59.99880002,5d53bdc9b18d590018dac171,64ce5acb97489d65b14ecc7a,64cf4b8c910285c0698e9f31,,,,,,,sngl,resources/DR.BMP,resources/Empty.png,Door2,-0.287113715,-0.017682292,1,0,0,0.8593,optionLeft,20,13630,6,28,0,28,0,1,,,,,,,,,,,,,,,,,,,,,,,,,,,,,,,,,,,,,,,
,,,,,,,,2023-08-06_08h28.29.129,HF_wild_card,2022.2.4,MacIntel,59.99880002,5d53bdc9b18d590018dac171,64ce5acb97489d65b14ecc7a,64cf4b8c910285c0698e9f31,,,,,,,decisionTrl,resources/DY.BMP,resources/DG.BMP,WildCard_Ex,0.407413194,-0.028997396,1,0,0,0.9612,optionRight,55,13685,6,29,0,29,0,1,,,,,,,,,,,,,,,,,,,,,,,,,,,,,,,,,,,,,,,
,,,,,,,,2023-08-06_08h28.29.129,HF_wild_card,2022.2.4,MacIntel,59.99880002,5d53bdc9b18d590018dac171,64ce5acb97489d65b14ecc7a,64cf4b8c910285c0698e9f31,,,,,,,decisionTrl,resources/DR.BMP,resources/DY.BMP,Door1,0.422170139,-0.004991319,1,0,0,1.86,optionRight,30,13715,6,30,0,30,0,1,,,,,,,,,,,,,,,,,,,,,,,,,,,,,,,,,,,,,,,
,,,,,,,,2023-08-06_08h28.29.129,HF_wild_card,2022.2.4,MacIntel,59.99880002,5d53bdc9b18d590018dac171,64ce5acb97489d65b14ecc7a,64cf4b8c910285c0698e9f31,,,,,,,sngl,resources/Empty.png,resources/DP.BMP,Door3,0.28062934,0.000486111,1,0,0,0.7623,optionRight,70,13785,6,31,0,31,0,1,,,,,,,,,,,,,,,,,,,,,,,,,,,,,,,,,,,,,,,
,,,,,,,,2023-08-06_08h28.29.129,HF_wild_card,2022.2.4,MacIntel,59.99880002,5d53bdc9b18d590018dac171,64ce5acb97489d65b14ecc7a,64cf4b8c910285c0698e9f31,,,,,,,sngl,resources/DG.BMP,resources/Empty.png,WildCard_Ex,-0.314665799,-0.015833333,1,0,0,0.8105,optionLeft,45,13830,6,32,0,32,0,1,,,,,,,,,,,,,,,,,,,,,,,,,,,,,,,,,,,,,,,
,,,,,,,,2023-08-06_08h28.29.129,HF_wild_card,2022.2.4,MacIntel,59.99880002,5d53bdc9b18d590018dac171,64ce5acb97489d65b14ecc7a,64cf4b8c910285c0698e9f31,,,,,,,decisionTrl,resources/DY.BMP,resources/DR.BMP,Door1,-0.339956597,0.013146701,1,0,0,1.8943,optionLeft,30,13860,6,33,0,33,0,1,,,,,,,,,,,,,,,,,,,,,,,,,,,,,,,,,,,,,,,
,,,,,,,,2023-08-06_08h28.29.129,HF_wild_card,2022.2.4,MacIntel,59.99880002,5d53bdc9b18d590018dac171,64ce5acb97489d65b14ecc7a,64cf4b8c910285c0698e9f31,,,,,,,sngl,resources/DG.BMP,resources/Empty.png,WildCard_Ex,-0.269053819,-0.00390191,1,0,0,0.8774,optionLeft,55,13915,6,34,0,34,0,1,,,,,,,,,,,,,,,,,,,,,,,,,,,,,,,,,,,,,,,
,,,,,,,,2023-08-06_08h28.29.129,HF_wild_card,2022.2.4,MacIntel,59.99880002,5d53bdc9b18d590018dac171,64ce5acb97489d65b14ecc7a,64cf4b8c910285c0698e9f31,,,,,,,decisionTrl,resources/DP.BMP,resources/DB.BMP,Door4,0.368789062,-0.064917535,1,0,0,0.9306,optionRight,60,13975,6,35,0,35,0,1,,,,,,,,,,,,,,,,,,,,,,,,,,,,,,,,,,,,,,,
,,,,,,,,2023-08-06_08h28.29.129,HF_wild_card,2022.2.4,MacIntel,59.99880002,5d53bdc9b18d590018dac171,64ce5acb97489d65b14ecc7a,64cf4b8c910285c0698e9f31,,,,,,,ctch,resources/DB.BMP,resources/DY.BMP,Door4,-0.439392361,-0.063446181,1,0,0,0.7442,optionLeft,80,14055,6,36,0,36,0,1,,,,,,,,,,,,,,,,,,,,,,,,,,,,,,,,,,,,,,,
,,,,,,,,2023-08-06_08h28.29.129,HF_wild_card,2022.2.4,MacIntel,59.99880002,5d53bdc9b18d590018dac171,64ce5acb97489d65b14ecc7a,64cf4b8c910285c0698e9f31,,,,,,,decisionTrl,resources/DG.BMP,resources/DB.BMP,Door4,0.385447049,-0.045668403,1,0,0,0.8944,optionRight,80,14135,6,37,0,37,0,1,,,,,,,,,,,,,,,,,,,,,,,,,,,,,,,,,,,,,,,
,,,,,,,,2023-08-06_08h28.29.129,HF_wild_card,2022.2.4,MacIntel,59.99880002,5d53bdc9b18d590018dac171,64ce5acb97489d65b14ecc7a,64cf4b8c910285c0698e9f31,,,,,,,ctch,resources/DY.BMP,resources/DB.BMP,Door4,0.425043403,0.01734375,1,0,0,0.8463,optionRight,60,14195,6,38,0,38,0,1,,,,,,,,,,,,,,,,,,,,,,,,,,,,,,,,,,,,,,,
,,,,,,,,2023-08-06_08h28.29.129,HF_wild_card,2022.2.4,MacIntel,59.99880002,5d53bdc9b18d590018dac171,64ce5acb97489d65b14ecc7a,64cf4b8c910285c0698e9f31,,,,,,,ctch,resources/DR.BMP,resources/DP.BMP,Door3,0.430238715,-0.017608507,1,0,0,1.1263,optionRight,70,14265,6,39,0,39,0,1,,,,,,,,,,,,,,,,,,,,,,,,,,,,,,,,,,,,,,,
,,,,,,,,2023-08-06_08h28.29.129,HF_wild_card,2022.2.4,MacIntel,59.99880002,5d53bdc9b18d590018dac171,64ce5acb97489d65b14ecc7a,64cf4b8c910285c0698e9f31,,,,,,,sngl,resources/DP.BMP,resources/Empty.png,Door3,-0.377317708,-0.047608507,1,0,0,0.7276,optionLeft,70,14335,6,40,0,40,0,1,,,,,,,,,,,,,,,,,,,,,,,,,,,,,,,,,,,,,,,
,,,,,,,,2023-08-06_08h28.29.129,HF_wild_card,2022.2.4,MacIntel,59.99880002,5d53bdc9b18d590018dac171,64ce5acb97489d65b14ecc7a,64cf4b8c910285c0698e9f31,,,,,,,decisionTrl,resources/DY.BMP,resources/DR.BMP,Door1,-0.369782986,-0.01265191,1,0,0,1.6777,optionLeft,30,14365,6,41,0,41,0,1,,,,,,,,,,,,,,,,,,,,,,,,,,,,,,,,,,,,,,,
,,,,,,,,2023-08-06_08h28.29.129,HF_wild_card,2022.2.4,MacIntel,59.99880002,5d53bdc9b18d590018dac171,64ce5acb97489d65b14ecc7a,64cf4b8c910285c0698e9f31,,,,,,,decisionTrl,resources/DP.BMP,resources/DB.BMP,Door3,-0.399279514,0.006644965,1,0,0,0.8615,optionLeft,70,14435,6,42,0,42,0,1,,,,,,,,,,,,,,,,,,,,,,,,,,,,,,,,,,,,,,,
,,,,,,,,2023-08-06_08h28.29.129,HF_wild_card,2022.2.4,MacIntel,59.99880002,5d53bdc9b18d590018dac171,64ce5acb97489d65b14ecc7a,64cf4b8c910285c0698e9f31,,,,,,,ctch,resources/DR.BMP,resources/DP.BMP,Door3,0.506896701,-0.063888889,1,0,0,1.046,optionRight,70,14505,6,43,0,43,0,1,,,,,,,,,,,,,,,,,,,,,,,,,,,,,,,,,,,,,,,
,,,,,,,,2023-08-06_08h28.29.129,HF_wild_card,2022.2.4,MacIntel,59.99880002,5d53bdc9b18d590018dac171,64ce5acb97489d65b14ecc7a,64cf4b8c910285c0698e9f31,,,,,,,,,,,,,,,,,,,,,,,,,,5,0,5,0,1,,,,,,,,,,,,,,,,,,,,,,,,,,,,,,,,,,
,,,,,,,,2023-08-06_08h28.29.129,HF_wild_card,2022.2.4,MacIntel,59.99880002,5d53bdc9b18d590018dac171,64ce5acb97489d65b14ecc7a,64cf4b8c910285c0698e9f31,,,,,,,decisionTrl,resources/DB.BMP,resources/DP.BMP,Door3,0.379500868,-0.156575521,1,0,0,1.2596,optionRight,70,14575,7,0,0,0,0,1,,,,,,,,,,,,,,,,,,,,,,,,,,,,,,,,,,,,,,,
,,,,,,,,2023-08-06_08h28.29.129,HF_wild_card,2022.2.4,MacIntel,59.99880002,5d53bdc9b18d590018dac171,64ce5acb97489d65b14ecc7a,64cf4b8c910285c0698e9f31,,,,,,,ctch,resources/DP.BMP,resources/DR.BMP,Door3,-0.341215278,-0.035121528,1,0,0,0.9123,optionLeft,70,14645,7,1,0,1,0,1,,,,,,,,,,,,,,,,,,,,,,,,,,,,,,,,,,,,,,,
,,,,,,,,2023-08-06_08h28.29.129,HF_wild_card,2022.2.4,MacIntel,59.99880002,5d53bdc9b18d590018dac171,64ce5acb97489d65b14ecc7a,64cf4b8c910285c0698e9f31,,,,,,,ctch,resources/DY.BMP,resources/DB.BMP,Door4,0.382261285,0.001844618,1,0,0,0.813,optionRight,60,14705,7,2,0,2,0,1,,,,,,,,,,,,,,,,,,,,,,,,,,,,,,,,,,,,,,,
,,,,,,,,2023-08-06_08h28.29.129,HF_wild_card,2022.2.4,MacIntel,59.99880002,5d53bdc9b18d590018dac171,64ce5acb97489d65b14ecc7a,64cf4b8c910285c0698e9f31,,,,,,,decisionTrl,resources/DP.BMP,resources/DB.BMP,Door3,-0.390008681,-0.045520833,1,0,0,1.1631,optionLeft,70,14775,7,3,0,3,0,1,,,,,,,,,,,,,,,,,,,,,,,,,,,,,,,,,,,,,,,
,,,,,,,,2023-08-06_08h28.29.129,HF_wild_card,2022.2.4,MacIntel,59.99880002,5d53bdc9b18d590018dac171,64ce5acb97489d65b14ecc7a,64cf4b8c910285c0698e9f31,,,,,,,decisionTrl,resources/DB.BMP,resources/DP.BMP,Door3,0.403381076,-0.029796007,1,0,0,1.096,optionRight,70,14845,7,4,0,4,0,1,,,,,,,,,,,,,,,,,,,,,,,,,,,,,,,,,,,,,,,
,,,,,,,,2023-08-06_08h28.29.129,HF_wild_card,2022.2.4,MacIntel,59.99880002,5d53bdc9b18d590018dac171,64ce5acb97489d65b14ecc7a,64cf4b8c910285c0698e9f31,,,,,,,decisionTrl,resources/DP.BMP,resources/DB.BMP,Door4,0.39266059,-0.059952257,1,0,0,0.9329,optionRight,80,14925,7,5,0,5,0,1,,,,,,,,,,,,,,,,,,,,,,,,,,,,,,,,,,,,,,,
,,,,,,,,2023-08-06_08h28.29.129,HF_wild_card,2022.2.4,MacIntel,59.99880002,5d53bdc9b18d590018dac171,64ce5acb97489d65b14ecc7a,64cf4b8c910285c0698e9f31,,,,,,,decisionTrl,resources/DB.BMP,resources/DP.BMP,Door3,0.353394097,-0.012300347,1,0,0,1.1294,optionRight,70,14995,7,6,0,6,0,1,,,,,,,,,,,,,,,,,,,,,,,,,,,,,,,,,,,,,,,
,,,,,,,,2023-08-06_08h28.29.129,HF_wild_card,2022.2.4,MacIntel,59.99880002,5d53bdc9b18d590018dac171,64ce5acb97489d65b14ecc7a,64cf4b8c910285c0698e9f31,,,,,,,decisionTrl,resources/DY.BMP,resources/DR.BMP,Door1,-0.341888021,-0.021514757,1,0,0,2.0782,optionLeft,30,15025,7,7,0,7,0,1,,,,,,,,,,,,,,,,,,,,,,,,,,,,,,,,,,,,,,,
,,,,,,,,2023-08-06_08h28.29.129,HF_wild_card,2022.2.4,MacIntel,59.99880002,5d53bdc9b18d590018dac171,64ce5acb97489d65b14ecc7a,64cf4b8c910285c0698e9f31,,,,,,,ctch,resources/DR.BMP,resources/DP.BMP,Door3,0.351197917,-0.04641059,1,0,0,0.9993,optionRight,70,15095,7,8,0,8,0,1,,,,,,,,,,,,,,,,,,,,,,,,,,,,,,,,,,,,,,,
,,,,,,,,2023-08-06_08h28.29.129,HF_wild_card,2022.2.4,MacIntel,59.99880002,5d53bdc9b18d590018dac171,64ce5acb97489d65b14ecc7a,64cf4b8c910285c0698e9f31,,,,,,,decisionTrl,resources/DB.BMP,resources/DP.BMP,Door3,0.380486111,-0.007074653,1,0,0,1.3489,optionRight,70,15165,7,9,0,9,0,1,,,,,,,,,,,,,,,,,,,,,,,,,,,,,,,,,,,,,,,
,,,,,,,,2023-08-06_08h28.29.129,HF_wild_card,2022.2.4,MacIntel,59.99880002,5d53bdc9b18d590018dac171,64ce5acb97489d65b14ecc7a,64cf4b8c910285c0698e9f31,,,,,,,decisionTrl,resources/DY.BMP,resources/DR.BMP,Door1,-0.310447049,-0.019678819,1,0,0,1.6845,optionLeft,30,15195,7,10,0,10,0,1,,,,,,,,,,,,,,,,,,,,,,,,,,,,,,,,,,,,,,,
,,,,,,,,2023-08-06_08h28.29.129,HF_wild_card,2022.2.4,MacIntel,59.99880002,5d53bdc9b18d590018dac171,64ce5acb97489d65b14ecc7a,64cf4b8c910285c0698e9f31,,,,,,,decisionTrl,resources/DR.BMP,resources/DY.BMP,Door1,0.364648437,-0.026219618,1,0,0,1.0466,optionRight,30,15225,7,11,0,11,0,1,,,,,,,,,,,,,,,,,,,,,,,,,,,,,,,,,,,,,,,
,,,,,,,,2023-08-06_08h28.29.129,HF_wild_card,2022.2.4,MacIntel,59.99880002,5d53bdc9b18d590018dac171,64ce5acb97489d65b14ecc7a,64cf4b8c910285c0698e9f31,,,,,,,decisionTrl,resources/DB.BMP,resources/DP.BMP,Door3,0.431041667,-0.004596354,1,0,0,1.1804,optionRight,70,15295,7,12,0,12,0,1,,,,,,,,,,,,,,,,,,,,,,,,,,,,,,,,,,,,,,,
,,,,,,,,2023-08-06_08h28.29.129,HF_wild_card,2022.2.4,MacIntel,59.99880002,5d53bdc9b18d590018dac171,64ce5acb97489d65b14ecc7a,64cf4b8c910285c0698e9f31,,,,,,,decisionTrl,resources/DR.BMP,resources/DY.BMP,Door1,0.364288194,-0.001315104,1,0,0,4.1158,optionRight,30,15325,7,13,0,13,0,1,,,,,,,,,,,,,,,,,,,,,,,,,,,,,,,,,,,,,,,
,,,,,,,,2023-08-06_08h28.29.129,HF_wild_card,2022.2.4,MacIntel,59.99880002,5d53bdc9b18d590018dac171,64ce5acb97489d65b14ecc7a,64cf4b8c910285c0698e9f31,,,,,,,decisionTrl,resources/DP.BMP,resources/DB.BMP,Door3,-0.329722222,-0.015698785,1,0,0,1.0648,optionLeft,70,15395,7,14,0,14,0,1,,,,,,,,,,,,,,,,,,,,,,,,,,,,,,,,,,,,,,,
,,,,,,,,2023-08-06_08h28.29.129,HF_wild_card,2022.2.4,MacIntel,59.99880002,5d53bdc9b18d590018dac171,64ce5acb97489d65b14ecc7a,64cf4b8c910285c0698e9f31,,,,,,,ctch,resources/DB.BMP,resources/DY.BMP,Door4,-0.343919271,-0.035234375,1,0,0,0.8962,optionLeft,60,15455,7,15,0,15,0,1,,,,,,,,,,,,,,,,,,,,,,,,,,,,,,,,,,,,,,,
,,,,,,,,2023-08-06_08h28.29.129,HF_wild_card,2022.2.4,MacIntel,59.99880002,5d53bdc9b18d590018dac171,64ce5acb97489d65b14ecc7a,64cf4b8c910285c0698e9f31,,,,,,,decisionTrl,resources/DY.BMP,resources/DR.BMP,Door1,-0.322521701,-0.023702257,1,0,0,1.2467,optionLeft,30,15485,7,16,0,16,0,1,,,,,,,,,,,,,,,,,,,,,,,,,,,,,,,,,,,,,,,
,,,,,,,,2023-08-06_08h28.29.129,HF_wild_card,2022.2.4,MacIntel,59.99880002,5d53bdc9b18d590018dac171,64ce5acb97489d65b14ecc7a,64cf4b8c910285c0698e9f31,,,,,,,ctch,resources/DP.BMP,resources/DR.BMP,Door3,-0.368506944,-0.02984375,1,0,0,0.781,optionLeft,70,15555,7,17,0,17,0,1,,,,,,,,,,,,,,,,,,,,,,,,,,,,,,,,,,,,,,,
,,,,,,,,2023-08-06_08h28.29.129,HF_wild_card,2022.2.4,MacIntel,59.99880002,5d53bdc9b18d590018dac171,64ce5acb97489d65b14ecc7a,64cf4b8c910285c0698e9f31,,,,,,,ctch,resources/DR.BMP,resources/DP.BMP,Door3,0.394032118,-0.020911458,1,0,0,1.1314,optionRight,70,15625,7,18,0,18,0,1,,,,,,,,,,,,,,,,,,,,,,,,,,,,,,,,,,,,,,,
,,,,,,,,2023-08-06_08h28.29.129,HF_wild_card,2022.2.4,MacIntel,59.99880002,5d53bdc9b18d590018dac171,64ce5acb97489d65b14ecc7a,64cf4b8c910285c0698e9f31,,,,,,,decisionTrl,resources/DR.BMP,resources/DY.BMP,Door1,0.395394965,-0.010251736,1,0,0,1.4476,optionRight,30,15655,7,19,0,19,0,1,,,,,,,,,,,,,,,,,,,,,,,,,,,,,,,,,,,,,,,
,,,,,,,,2023-08-06_08h28.29.129,HF_wild_card,2022.2.4,MacIntel,59.99880002,5d53bdc9b18d590018dac171,64ce5acb97489d65b14ecc7a,64cf4b8c910285c0698e9f31,,,,,,,decisionTrl,resources/DR.BMP,resources/DY.BMP,Door1,0.413802083,0.042174479,1,0,0,1.0645,optionRight,30,15685,7,20,0,20,0,1,,,,,,,,,,,,,,,,,,,,,,,,,,,,,,,,,,,,,,,
,,,,,,,,2023-08-06_08h28.29.129,HF_wild_card,2022.2.4,MacIntel,59.99880002,5d53bdc9b18d590018dac171,64ce5acb97489d65b14ecc7a,64cf4b8c910285c0698e9f31,,,,,,,ctch,resources/DB.BMP,resources/DY.BMP,Door4,-0.428346354,-0.015529514,1,0,0,1.3303,optionLeft,80,15765,7,21,0,21,0,1,,,,,,,,,,,,,,,,,,,,,,,,,,,,,,,,,,,,,,,
,,,,,,,,2023-08-06_08h28.29.129,HF_wild_card,2022.2.4,MacIntel,59.99880002,5d53bdc9b18d590018dac171,64ce5acb97489d65b14ecc7a,64cf4b8c910285c0698e9f31,,,,,,,decisionTrl,resources/DP.BMP,resources/DB.BMP,Door4,0.370512153,0.000533854,1,0,0,1.0789,optionRight,60,15825,7,22,0,22,0,1,,,,,,,,,,,,,,,,,,,,,,,,,,,,,,,,,,,,,,,
,,,,,,,,2023-08-06_08h28.29.129,HF_wild_card,2022.2.4,MacIntel,59.99880002,5d53bdc9b18d590018dac171,64ce5acb97489d65b14ecc7a,64cf4b8c910285c0698e9f31,,,,,,,ctch,resources/DP.BMP,resources/DR.BMP,Door3,-0.275416667,-0.024952257,1,0,0,0.8326,optionLeft,70,15895,7,23,0,23,0,1,,,,,,,,,,,,,,,,,,,,,,,,,,,,,,,,,,,,,,,
,,,,,,,,2023-08-06_08h28.29.129,HF_wild_card,2022.2.4,MacIntel,59.99880002,5d53bdc9b18d590018dac171,64ce5acb97489d65b14ecc7a,64cf4b8c910285c0698e9f31,,,,,,,ctch,resources/DB.BMP,resources/DY.BMP,Door4,-0.389409722,-0.020572917,1,0,0,0.7461,optionLeft,60,15955,7,24,0,24,0,1,,,,,,,,,,,,,,,,,,,,,,,,,,,,,,,,,,,,,,,
,,,,,,,,2023-08-06_08h28.29.129,HF_wild_card,2022.2.4,MacIntel,59.99880002,5d53bdc9b18d590018dac171,64ce5acb97489d65b14ecc7a,64cf4b8c910285c0698e9f31,,,,,,,decisionTrl,resources/DY.BMP,resources/DR.BMP,Door1,-0.282682292,-0.031128472,1,0,0,1.3311,optionLeft,30,15985,7,25,0,25,0,1,,,,,,,,,,,,,,,,,,,,,,,,,,,,,,,,,,,,,,,
,,,,,,,,2023-08-06_08h28.29.129,HF_wild_card,2022.2.4,MacIntel,59.99880002,5d53bdc9b18d590018dac171,64ce5acb97489d65b14ecc7a,64cf4b8c910285c0698e9f31,,,,,,,ctch,resources/DY.BMP,resources/DB.BMP,Door4,0.389913194,-0.040855035,1,0,0,1.13,optionRight,80,16065,7,26,0,26,0,1,,,,,,,,,,,,,,,,,,,,,,,,,,,,,,,,,,,,,,,
,,,,,,,,2023-08-06_08h28.29.129,HF_wild_card,2022.2.4,MacIntel,59.99880002,5d53bdc9b18d590018dac171,64ce5acb97489d65b14ecc7a,64cf4b8c910285c0698e9f31,,,,,,,decisionTrl,resources/DP.BMP,resources/DB.BMP,Door3,-0.323463542,-0.040199653,1,0,0,1.3474,optionLeft,70,16135,7,27,0,27,0,1,,,,,,,,,,,,,,,,,,,,,,,,,,,,,,,,,,,,,,,
,,,,,,,,2023-08-06_08h28.29.129,HF_wild_card,2022.2.4,MacIntel,59.99880002,5d53bdc9b18d590018dac171,64ce5acb97489d65b14ecc7a,64cf4b8c910285c0698e9f31,,,,,,,decisionTrl,resources/DY.BMP,resources/DR.BMP,Door1,-0.333828125,-0.020529514,1,0,0,1.5498,optionLeft,30,16165,7,28,0,28,0,1,,,,,,,,,,,,,,,,,,,,,,,,,,,,,,,,,,,,,,,
,,,,,,,,2023-08-06_08h28.29.129,HF_wild_card,2022.2.4,MacIntel,59.99880002,5d53bdc9b18d590018dac171,64ce5acb97489d65b14ecc7a,64cf4b8c910285c0698e9f31,,,,,,,ctch,resources/DY.BMP,resources/DB.BMP,Door4,0.295664062,0.002352431,1,0,0,1.6638,optionRight,60,16225,7,29,0,29,0,1,,,,,,,,,,,,,,,,,,,,,,,,,,,,,,,,,,,,,,,
,,,,,,,,2023-08-06_08h28.29.129,HF_wild_card,2022.2.4,MacIntel,59.99880002,5d53bdc9b18d590018dac171,64ce5acb97489d65b14ecc7a,64cf4b8c910285c0698e9f31,,,,,,,decisionTrl,resources/DR.BMP,resources/DY.BMP,Door1,0.375685764,-0.063537326,1,0,0,1.2298,optionRight,30,16255,7,30,0,30,0,1,,,,,,,,,,,,,,,,,,,,,,,,,,,,,,,,,,,,,,,
,,,,,,,,2023-08-06_08h28.29.129,HF_wild_card,2022.2.4,MacIntel,59.99880002,5d53bdc9b18d590018dac171,64ce5acb97489d65b14ecc7a,64cf4b8c910285c0698e9f31,,,,,,,ctch,resources/DR.BMP,resources/DP.BMP,Door3,0.388446181,-0.055902778,1,0,0,1.0146,optionRight,70,16325,7,31,0,31,0,1,,,,,,,,,,,,,,,,,,,,,,,,,,,,,,,,,,,,,,,
,,,,,,,,2023-08-06_08h28.29.129,HF_wild_card,2022.2.4,MacIntel,59.99880002,5d53bdc9b18d590018dac171,64ce5acb97489d65b14ecc7a,64cf4b8c910285c0698e9f31,,,,,,,decisionTrl,resources/DB.BMP,resources/DP.BMP,Door4,-0.437478299,0.041128472,1,0,0,1.9818,optionLeft,80,16405,7,32,0,32,0,1,,,,,,,,,,,,,,,,,,,,,,,,,,,,,,,,,,,,,,,
,,,,,,,,2023-08-06_08h28.29.129,HF_wild_card,2022.2.4,MacIntel,59.99880002,5d53bdc9b18d590018dac171,64ce5acb97489d65b14ecc7a,64cf4b8c910285c0698e9f31,,,,,,,decisionTrl,resources/DR.BMP,resources/DY.BMP,Door1,0.432122396,-0.029956597,1,0,0,0.9456,optionRight,30,16435,7,33,0,33,0,1,,,,,,,,,,,,,,,,,,,,,,,,,,,,,,,,,,,,,,,
,,,,,,,,2023-08-06_08h28.29.129,HF_wild_card,2022.2.4,MacIntel,59.99880002,5d53bdc9b18d590018dac171,64ce5acb97489d65b14ecc7a,64cf4b8c910285c0698e9f31,,,,,,,decisionTrl,resources/DY.BMP,resources/DR.BMP,Door1,-0.303181424,0.004947917,1,0,0,1.1976,optionLeft,30,16465,7,34,0,34,0,1,,,,,,,,,,,,,,,,,,,,,,,,,,,,,,,,,,,,,,,
,,,,,,,,2023-08-06_08h28.29.129,HF_wild_card,2022.2.4,MacIntel,59.99880002,5d53bdc9b18d590018dac171,64ce5acb97489d65b14ecc7a,64cf4b8c910285c0698e9f31,,,,,,,decisionTrl,resources/DP.BMP,resources/DB.BMP,Door3,-0.409644097,-0.054626736,1,0,0,1.2471,optionLeft,70,16535,7,35,0,35,0,1,,,,,,,,,,,,,,,,,,,,,,,,,,,,,,,,,,,,,,,
,,,,,,,,2023-08-06_08h28.29.129,HF_wild_card,2022.2.4,MacIntel,59.99880002,5d53bdc9b18d590018dac171,64ce5acb97489d65b14ecc7a,64cf4b8c910285c0698e9f31,,,,,,,,,,,,,,,,,,,,,,,,,,6,0,6,0,1,,,,,,,,,,,,,,,,,,,,,,,,,,,,,,,,,,
,,,,,,,,2023-08-06_08h28.29.129,HF_wild_card,2022.2.4,MacIntel,59.99880002,5d53bdc9b18d590018dac171,64ce5acb97489d65b14ecc7a,64cf4b8c910285c0698e9f31,,,,,,,,,,,,,,,,,,,,,,,,,,,,,,,4,,,,,,,,,,,,,,,,,,,,,,,,,,,,,,,,,
,,,,,,,,2023-08-06_08h28.29.129,HF_wild_card,2022.2.4,MacIntel,59.99880002,5d53bdc9b18d590018dac171,64ce5acb97489d65b14ecc7a,64cf4b8c910285c0698e9f31,,,,,,,,,,,,,,,,,,,,,,,,,,,,,,,,,,,,,,,,,,,,,,,,,,,,,,,,,,,,,,,,
,,,,,,,,2023-08-06_08h28.29.129,HF_wild_card,2022.2.4,MacIntel,59.99880002,5d53bdc9b18d590018dac171,64ce5acb97489d65b14ecc7a,64cf4b8c910285c0698e9f31,,,,,,,,,,,,,,,,,,,,,,,,,,,,,,,,55,WC_nonExtreme,resources/DBN.BMP,0,0,0,0,1,,,,,,,,,,,,,,,,,,,,,,,,,
,,,,,,,,2023-08-06_08h28.29.129,HF_wild_card,2022.2.4,MacIntel,59.99880002,5d53bdc9b18d590018dac171,64ce5acb97489d65b14ecc7a,64cf4b8c910285c0698e9f31,,,,,,,,,,,,,,,,,,,,,,,,,,,,,,,,70,Door3,resources/DP.BMP,1,0,1,0,1,,,,,,,,,,,,,,,,,,,,,,,,,
,,,,,,,,2023-08-06_08h28.29.129,HF_wild_card,2022.2.4,MacIntel,59.99880002,5d53bdc9b18d590018dac171,64ce5acb97489d65b14ecc7a,64cf4b8c910285c0698e9f31,,,,,,,,,,,,,,,,,,,,,,,,,,,,,,,,20,Door2,resources/DR.BMP,2,0,2,0,1,,,,,,,,,,,,,,,,,,,,,,,,,
