Condition,Low fixed image (Door1),Low risky image (Door2),High fixed image (Door3),High risky image (Door4),Extreme Wild Card,NonExtreme Wild Card,,date,expName,psychopyVersion,OS,frameRate,PROLIFIC_PID,STUDY_ID,SESSION_ID,mouse_2.x,mouse_2.y,mouse_2.leftButton,mouse_2.midButton,mouse_2.rightButton,mouse_2.clicked_name,Trial Type,Left Option Image,Right Option Image,Chosen Door,mouse.x,mouse.y,mouse.leftButton,mouse.midButton,mouse.rightButton,mouse.time,mouse.clicked_name,Feedback,Cumulative Reward,Block,trial.thisRepN,trial.thisTrialN,trial.thisN,trial.thisIndex,trial.ran,blocks.thisRepN,blocks.thisTrialN,blocks.thisN,blocks.thisIndex,blocks.ran,Money conversion,First Outcome Reported,Shown Door (First Outcome),Displayed Image (First Outcome),outcomes.thisRepN,outcomes.thisTrialN,outcomes.thisN,outcomes.thisIndex,outcomes.ran,judgments.thisRepN,judgments.thisTrialN,judgments.thisN,judgments.thisIndex,judgments.ran,freqMouse.x,freqMouse.y,freqMouse.leftButton,freqMouse.midButton,freqMouse.rightButton,freqMouse.clicked_name,trials.thisRepN,trials.thisTrialN,trials.thisN,trials.thisIndex,trials.ran,FQJ for first outcome,FQJ for second outcome,Shown Door,Displayed Image,judgBlock.thisRepN,judgBlock.thisTrialN,judgBlock.thisN,judgBlock.thisIndex,judgBlock.ran
0,resources/DP.BMP,resources/DY.BMP,resources/DR.BMP,resources/DB.BMP,resources/DG.BMP,resources/DBN.BMP,,2023-08-16_08h42.01.988,HF_wild_card,2022.2.4,Win32,20.0020002,5ce740c8636a5b0018f55968,64d2fd46c836a06233681665,64dc7da45c5711870ec86cfd,,,,,,,,,,,,,,,,,,,,,,,,,,,,,,,,,,,,,,,,,,,,,,,,,,,,,,,,,,,,,,,,
,,,,,,,,2023-08-16_08h42.01.988,HF_wild_card,2022.2.4,Win32,20.0020002,5ce740c8636a5b0018f55968,64d2fd46c836a06233681665,64dc7da45c5711870ec86cfd,0.02,-0.41125,1,0,0,agree,,,,,,,,,,,,,,,,,,,,,,,,,,,,,,,,,,,,,,,,,,,,,,,,,,,,,,,,,,
,,,,,,,,2023-08-16_08h42.01.988,HF_wild_card,2022.2.4,Win32,20.0020002,5ce740c8636a5b0018f55968,64d2fd46c836a06233681665,64dc7da45c5711870ec86cfd,,,,,,,,,,,,,,,,,,,,,,,,,,,,,,,,,,,,,,,,,,,,,,,,,,,,,,,,,,,,,,,,
,,,,,,,,2023-08-16_08h42.01.988,HF_wild_card,2022.2.4,Win32,20.0020002,5ce740c8636a5b0018f55968,64d2fd46c836a06233681665,64dc7da45c5711870ec86cfd,,,,,,,decisionTrl,resources/DP.BMP,resources/DY.BMP,Door2,0.3575,-0.075,1,0,0,7.908,optionRight,20,20,1,0,0,0,0,1,,,,,,,,,,,,,,,,,,,,,,,,,,,,,,,,,,,,,,,
,,,,,,,,2023-08-16_08h42.01.988,HF_wild_card,2022.2.4,Win32,20.0020002,5ce740c8636a5b0018f55968,64d2fd46c836a06233681665,64dc7da45c5711870ec86cfd,,,,,,,decisionTrl,resources/DP.BMP,resources/DG.BMP,WildCard_Ex,0.3825,-0.07125,1,0,0,3.602,optionRight,95,115,1,1,0,1,0,1,,,,,,,,,,,,,,,,,,,,,,,,,,,,,,,,,,,,,,,
,,,,,,,,2023-08-16_08h42.01.988,HF_wild_card,2022.2.4,Win32,20.0020002,5ce740c8636a5b0018f55968,64d2fd46c836a06233681665,64dc7da45c5711870ec86cfd,,,,,,,ctch,resources/DY.BMP,resources/DR.BMP,Door2,-0.37375,-0.03375,1,0,0,5.753,optionLeft,20,135,1,2,0,2,0,1,,,,,,,,,,,,,,,,,,,,,,,,,,,,,,,,,,,,,,,
,,,,,,,,2023-08-16_08h42.01.988,HF_wild_card,2022.2.4,Win32,20.0020002,5ce740c8636a5b0018f55968,64d2fd46c836a06233681665,64dc7da45c5711870ec86cfd,,,,,,,decisionTrl,resources/DB.BMP,resources/DR.BMP,Door4,-0.38125,-0.0375,1,0,0,4.875,optionLeft,60,195,1,3,0,3,0,1,,,,,,,,,,,,,,,,,,,,,,,,,,,,,,,,,,,,,,,
,,,,,,,,2023-08-16_08h42.01.988,HF_wild_card,2022.2.4,Win32,20.0020002,5ce740c8636a5b0018f55968,64d2fd46c836a06233681665,64dc7da45c5711870ec86cfd,,,,,,,decisionTrl,resources/DR.BMP,resources/DB.BMP,Door4,0.38875,-0.0225,1,0,0,4.119,optionRight,80,275,1,4,0,4,0,1,,,,,,,,,,,,,,,,,,,,,,,,,,,,,,,,,,,,,,,
,,,,,,,,2023-08-16_08h42.01.988,HF_wild_card,2022.2.4,Win32,20.0020002,5ce740c8636a5b0018f55968,64d2fd46c836a06233681665,64dc7da45c5711870ec86cfd,,,,,,,sngl,resources/DY.BMP,resources/Empty.png,Door2,-0.2975,-0.01125,1,0,0,2.459,optionLeft,40,315,1,5,0,5,0,1,,,,,,,,,,,,,,,,,,,,,,,,,,,,,,,,,,,,,,,
,,,,,,,,2023-08-16_08h42.01.988,HF_wild_card,2022.2.4,Win32,20.0020002,5ce740c8636a5b0018f55968,64d2fd46c836a06233681665,64dc7da45c5711870ec86cfd,,,,,,,ctch,resources/DP.BMP,resources/DB.BMP,Door4,0.38375,-0.0225,1,0,0,3.124,optionRight,60,375,1,6,0,6,0,1,,,,,,,,,,,,,,,,,,,,,,,,,,,,,,,,,,,,,,,
,,,,,,,,2023-08-16_08h42.01.988,HF_wild_card,2022.2.4,Win32,20.0020002,5ce740c8636a5b0018f55968,64d2fd46c836a06233681665,64dc7da45c5711870ec86cfd,,,,,,,sngl,resources/DP.BMP,resources/Empty.png,Door1,-0.41875,-0.02875,1,0,0,2.069,optionLeft,30,405,1,7,0,7,0,1,,,,,,,,,,,,,,,,,,,,,,,,,,,,,,,,,,,,,,,
,,,,,,,,2023-08-16_08h42.01.988,HF_wild_card,2022.2.4,Win32,20.0020002,5ce740c8636a5b0018f55968,64d2fd46c836a06233681665,64dc7da45c5711870ec86cfd,,,,,,,ctch,resources/DY.BMP,resources/DR.BMP,Door2,-0.37875,-0.0475,1,0,0,2.25,optionLeft,20,425,1,8,0,8,0,1,,,,,,,,,,,,,,,,,,,,,,,,,,,,,,,,,,,,,,,
,,,,,,,,2023-08-16_08h42.01.988,HF_wild_card,2022.2.4,Win32,20.0020002,5ce740c8636a5b0018f55968,64d2fd46c836a06233681665,64dc7da45c5711870ec86cfd,,,,,,,decisionTrl,resources/DP.BMP,resources/DY.BMP,Door1,-0.3225,-0.06,1,0,0,4.587,optionLeft,30,455,1,9,0,9,0,1,,,,,,,,,,,,,,,,,,,,,,,,,,,,,,,,,,,,,,,
,,,,,,,,2023-08-16_08h42.01.988,HF_wild_card,2022.2.4,Win32,20.0020002,5ce740c8636a5b0018f55968,64d2fd46c836a06233681665,64dc7da45c5711870ec86cfd,,,,,,,sngl,resources/DR.BMP,resources/Empty.png,Door3,-0.39125,-0.035,1,0,0,1.568,optionLeft,70,525,1,10,0,10,0,1,,,,,,,,,,,,,,,,,,,,,,,,,,,,,,,,,,,,,,,
,,,,,,,,2023-08-16_08h42.01.988,HF_wild_card,2022.2.4,Win32,20.0020002,5ce740c8636a5b0018f55968,64d2fd46c836a06233681665,64dc7da45c5711870ec86cfd,,,,,,,sngl,resources/Empty.png,resources/DB.BMP,Door4,0.46625,-0.00125,1,0,0,1.501,optionRight,60,585,1,11,0,11,0,1,,,,,,,,,,,,,,,,,,,,,,,,,,,,,,,,,,,,,,,
,,,,,,,,2023-08-16_08h42.01.988,HF_wild_card,2022.2.4,Win32,20.0020002,5ce740c8636a5b0018f55968,64d2fd46c836a06233681665,64dc7da45c5711870ec86cfd,,,,,,,sngl,resources/Empty.png,resources/DP.BMP,Door1,0.4175,-0.02625,1,0,0,1.428,optionRight,30,615,1,12,0,12,0,1,,,,,,,,,,,,,,,,,,,,,,,,,,,,,,,,,,,,,,,
,,,,,,,,2023-08-16_08h42.01.988,HF_wild_card,2022.2.4,Win32,20.0020002,5ce740c8636a5b0018f55968,64d2fd46c836a06233681665,64dc7da45c5711870ec86cfd,,,,,,,decisionTrl,resources/DG.BMP,resources/DB.BMP,WildCard_Ex,-0.30875,-0.04625,1,0,0,2.243,optionLeft,95,710,1,13,0,13,0,1,,,,,,,,,,,,,,,,,,,,,,,,,,,,,,,,,,,,,,,
,,,,,,,,2023-08-16_08h42.01.988,HF_wild_card,2022.2.4,Win32,20.0020002,5ce740c8636a5b0018f55968,64d2fd46c836a06233681665,64dc7da45c5711870ec86cfd,,,,,,,decisionTrl,resources/DB.BMP,resources/DG.BMP,WildCard_Ex,0.3375,-0.03375,1,0,0,1.446,optionRight,95,805,1,14,0,14,0,1,,,,,,,,,,,,,,,,,,,,,,,,,,,,,,,,,,,,,,,
,,,,,,,,2023-08-16_08h42.01.988,HF_wild_card,2022.2.4,Win32,20.0020002,5ce740c8636a5b0018f55968,64d2fd46c836a06233681665,64dc7da45c5711870ec86cfd,,,,,,,ctch,resources/DB.BMP,resources/DP.BMP,Door4,-0.33125,-0.025,1,0,0,2.062,optionLeft,60,865,1,15,0,15,0,1,,,,,,,,,,,,,,,,,,,,,,,,,,,,,,,,,,,,,,,
,,,,,,,,2023-08-16_08h42.01.988,HF_wild_card,2022.2.4,Win32,20.0020002,5ce740c8636a5b0018f55968,64d2fd46c836a06233681665,64dc7da45c5711870ec86cfd,,,,,,,decisionTrl,resources/DY.BMP,resources/DG.BMP,WildCard_Ex,0.37375,-0.01375,1,0,0,2.871,optionRight,95,960,1,16,0,16,0,1,,,,,,,,,,,,,,,,,,,,,,,,,,,,,,,,,,,,,,,
,,,,,,,,2023-08-16_08h42.01.988,HF_wild_card,2022.2.4,Win32,20.0020002,5ce740c8636a5b0018f55968,64d2fd46c836a06233681665,64dc7da45c5711870ec86cfd,,,,,,,ctch,resources/DB.BMP,resources/DP.BMP,Door4,-0.3625,-0.01125,1,0,0,1.747,optionLeft,80,1040,1,17,0,17,0,1,,,,,,,,,,,,,,,,,,,,,,,,,,,,,,,,,,,,,,,
,,,,,,,,2023-08-16_08h42.01.988,HF_wild_card,2022.2.4,Win32,20.0020002,5ce740c8636a5b0018f55968,64d2fd46c836a06233681665,64dc7da45c5711870ec86cfd,,,,,,,decisionTrl,resources/DR.BMP,resources/DB.BMP,Door3,-0.35,0.0025,1,0,0,1.822,optionLeft,70,1110,1,18,0,18,0,1,,,,,,,,,,,,,,,,,,,,,,,,,,,,,,,,,,,,,,,
,,,,,,,,2023-08-16_08h42.01.988,HF_wild_card,2022.2.4,Win32,20.0020002,5ce740c8636a5b0018f55968,64d2fd46c836a06233681665,64dc7da45c5711870ec86cfd,,,,,,,sngl,resources/DG.BMP,resources/Empty.png,WildCard_Ex,-0.3275,-0.03625,1,0,0,1.294,optionLeft,5,1115,1,19,0,19,0,1,,,,,,,,,,,,,,,,,,,,,,,,,,,,,,,,,,,,,,,
,,,,,,,,2023-08-16_08h42.01.988,HF_wild_card,2022.2.4,Win32,20.0020002,5ce740c8636a5b0018f55968,64d2fd46c836a06233681665,64dc7da45c5711870ec86cfd,,,,,,,decisionTrl,resources/DR.BMP,resources/DB.BMP,Door3,-0.3175,-0.02625,1,0,0,2.166,optionLeft,70,1185,1,20,0,20,0,1,,,,,,,,,,,,,,,,,,,,,,,,,,,,,,,,,,,,,,,
,,,,,,,,2023-08-16_08h42.01.988,HF_wild_card,2022.2.4,Win32,20.0020002,5ce740c8636a5b0018f55968,64d2fd46c836a06233681665,64dc7da45c5711870ec86cfd,,,,,,,sngl,resources/DG.BMP,resources/Empty.png,WildCard_Ex,-0.305,0.0025,1,0,0,1.432,optionLeft,95,1280,1,21,0,21,0,1,,,,,,,,,,,,,,,,,,,,,,,,,,,,,,,,,,,,,,,
,,,,,,,,2023-08-16_08h42.01.988,HF_wild_card,2022.2.4,Win32,20.0020002,5ce740c8636a5b0018f55968,64d2fd46c836a06233681665,64dc7da45c5711870ec86cfd,,,,,,,decisionTrl,resources/DB.BMP,resources/DR.BMP,Door3,0.3,-0.025,1,0,0,1.917,optionRight,70,1350,1,22,0,22,0,1,,,,,,,,,,,,,,,,,,,,,,,,,,,,,,,,,,,,,,,
,,,,,,,,2023-08-16_08h42.01.988,HF_wild_card,2022.2.4,Win32,20.0020002,5ce740c8636a5b0018f55968,64d2fd46c836a06233681665,64dc7da45c5711870ec86cfd,,,,,,,sngl,resources/Empty.png,resources/DG.BMP,WildCard_Ex,0.29625,-0.00125,1,0,0,2.549,optionRight,95,1445,1,23,0,23,0,1,,,,,,,,,,,,,,,,,,,,,,,,,,,,,,,,,,,,,,,
,,,,,,,,2023-08-16_08h42.01.988,HF_wild_card,2022.2.4,Win32,20.0020002,5ce740c8636a5b0018f55968,64d2fd46c836a06233681665,64dc7da45c5711870ec86cfd,,,,,,,sngl,resources/Empty.png,resources/DY.BMP,Door2,0.35875,-0.0125,1,0,0,1.218,optionRight,20,1465,1,24,0,24,0,1,,,,,,,,,,,,,,,,,,,,,,,,,,,,,,,,,,,,,,,
,,,,,,,,2023-08-16_08h42.01.988,HF_wild_card,2022.2.4,Win32,20.0020002,5ce740c8636a5b0018f55968,64d2fd46c836a06233681665,64dc7da45c5711870ec86cfd,,,,,,,decisionTrl,resources/DG.BMP,resources/DR.BMP,WildCard_Ex,-0.3475,0.0175,1,0,0,1.563,optionLeft,5,1470,1,25,0,25,0,1,,,,,,,,,,,,,,,,,,,,,,,,,,,,,,,,,,,,,,,
,,,,,,,,2023-08-16_08h42.01.988,HF_wild_card,2022.2.4,Win32,20.0020002,5ce740c8636a5b0018f55968,64d2fd46c836a06233681665,64dc7da45c5711870ec86cfd,,,,,,,decisionTrl,resources/DP.BMP,resources/DY.BMP,Door2,0.32875,-0.00125,1,0,0,3.044,optionRight,20,1490,1,26,0,26,0,1,,,,,,,,,,,,,,,,,,,,,,,,,,,,,,,,,,,,,,,
,,,,,,,,2023-08-16_08h42.01.988,HF_wild_card,2022.2.4,Win32,20.0020002,5ce740c8636a5b0018f55968,64d2fd46c836a06233681665,64dc7da45c5711870ec86cfd,,,,,,,sngl,resources/Empty.png,resources/DR.BMP,Door3,0.3225,0.00125,1,0,0,1.206,optionRight,70,1560,1,27,0,27,0,1,,,,,,,,,,,,,,,,,,,,,,,,,,,,,,,,,,,,,,,
,,,,,,,,2023-08-16_08h42.01.988,HF_wild_card,2022.2.4,Win32,20.0020002,5ce740c8636a5b0018f55968,64d2fd46c836a06233681665,64dc7da45c5711870ec86cfd,,,,,,,ctch,resources/DR.BMP,resources/DY.BMP,Door3,-0.26875,-0.00625,1,0,0,1.873,optionLeft,70,1630,1,28,0,28,0,1,,,,,,,,,,,,,,,,,,,,,,,,,,,,,,,,,,,,,,,
,,,,,,,,2023-08-16_08h42.01.988,HF_wild_card,2022.2.4,Win32,20.0020002,5ce740c8636a5b0018f55968,64d2fd46c836a06233681665,64dc7da45c5711870ec86cfd,,,,,,,decisionTrl,resources/DY.BMP,resources/DP.BMP,Door1,0.35,-0.04375,1,0,0,1.865,optionRight,30,1660,1,29,0,29,0,1,,,,,,,,,,,,,,,,,,,,,,,,,,,,,,,,,,,,,,,
,,,,,,,,2023-08-16_08h42.01.988,HF_wild_card,2022.2.4,Win32,20.0020002,5ce740c8636a5b0018f55968,64d2fd46c836a06233681665,64dc7da45c5711870ec86cfd,,,,,,,decisionTrl,resources/DB.BMP,resources/DR.BMP,Door3,0.265,-0.005,1,0,0,1.903,optionRight,70,1730,1,30,0,30,0,1,,,,,,,,,,,,,,,,,,,,,,,,,,,,,,,,,,,,,,,
,,,,,,,,2023-08-16_08h42.01.988,HF_wild_card,2022.2.4,Win32,20.0020002,5ce740c8636a5b0018f55968,64d2fd46c836a06233681665,64dc7da45c5711870ec86cfd,,,,,,,decisionTrl,resources/DG.BMP,resources/DY.BMP,Door2,0.2325,-0.01,1,0,0,3.036,optionRight,20,1750,1,31,0,31,0,1,,,,,,,,,,,,,,,,,,,,,,,,,,,,,,,,,,,,,,,
,,,,,,,,2023-08-16_08h42.01.988,HF_wild_card,2022.2.4,Win32,20.0020002,5ce740c8636a5b0018f55968,64d2fd46c836a06233681665,64dc7da45c5711870ec86cfd,,,,,,,sngl,resources/Empty.png,resources/DG.BMP,WildCard_Ex,0.33875,-0.0025,1,0,0,1.171,optionRight,5,1755,1,32,0,32,0,1,,,,,,,,,,,,,,,,,,,,,,,,,,,,,,,,,,,,,,,
,,,,,,,,2023-08-16_08h42.01.988,HF_wild_card,2022.2.4,Win32,20.0020002,5ce740c8636a5b0018f55968,64d2fd46c836a06233681665,64dc7da45c5711870ec86cfd,,,,,,,decisionTrl,resources/DP.BMP,resources/DY.BMP,Door1,-0.28875,0.005,1,0,0,1.75,optionLeft,30,1785,1,33,0,33,0,1,,,,,,,,,,,,,,,,,,,,,,,,,,,,,,,,,,,,,,,
,,,,,,,,2023-08-16_08h42.01.988,HF_wild_card,2022.2.4,Win32,20.0020002,5ce740c8636a5b0018f55968,64d2fd46c836a06233681665,64dc7da45c5711870ec86cfd,,,,,,,decisionTrl,resources/DY.BMP,resources/DP.BMP,Door2,-0.30375,-0.0175,1,0,0,2.933,optionLeft,40,1825,1,34,0,34,0,1,,,,,,,,,,,,,,,,,,,,,,,,,,,,,,,,,,,,,,,
,,,,,,,,2023-08-16_08h42.01.988,HF_wild_card,2022.2.4,Win32,20.0020002,5ce740c8636a5b0018f55968,64d2fd46c836a06233681665,64dc7da45c5711870ec86cfd,,,,,,,decisionTrl,resources/DR.BMP,resources/DG.BMP,Door3,-0.265,-0.02125,1,0,0,2.749,optionLeft,70,1895,1,35,0,35,0,1,,,,,,,,,,,,,,,,,,,,,,,,,,,,,,,,,,,,,,,
,,,,,,,,2023-08-16_08h42.01.988,HF_wild_card,2022.2.4,Win32,20.0020002,5ce740c8636a5b0018f55968,64d2fd46c836a06233681665,64dc7da45c5711870ec86cfd,,,,,,,ctch,resources/DP.BMP,resources/DB.BMP,Door4,0.30625,-0.05,1,0,0,1.529,optionRight,60,1955,1,36,0,36,0,1,,,,,,,,,,,,,,,,,,,,,,,,,,,,,,,,,,,,,,,
,,,,,,,,2023-08-16_08h42.01.988,HF_wild_card,2022.2.4,Win32,20.0020002,5ce740c8636a5b0018f55968,64d2fd46c836a06233681665,64dc7da45c5711870ec86cfd,,,,,,,decisionTrl,resources/DY.BMP,resources/DP.BMP,Door2,-0.35625,-0.02,1,0,0,1.777,optionLeft,40,1995,1,37,0,37,0,1,,,,,,,,,,,,,,,,,,,,,,,,,,,,,,,,,,,,,,,
,,,,,,,,2023-08-16_08h42.01.988,HF_wild_card,2022.2.4,Win32,20.0020002,5ce740c8636a5b0018f55968,64d2fd46c836a06233681665,64dc7da45c5711870ec86cfd,,,,,,,decisionTrl,resources/DG.BMP,resources/DP.BMP,WildCard_Ex,-0.2325,-0.00625,1,0,0,2.639,optionLeft,95,2090,1,38,0,38,0,1,,,,,,,,,,,,,,,,,,,,,,,,,,,,,,,,,,,,,,,
,,,,,,,,2023-08-16_08h42.01.988,HF_wild_card,2022.2.4,Win32,20.0020002,5ce740c8636a5b0018f55968,64d2fd46c836a06233681665,64dc7da45c5711870ec86cfd,,,,,,,sngl,resources/DB.BMP,resources/Empty.png,Door4,-0.29625,-0.00375,1,0,0,1.245,optionLeft,80,2170,1,39,0,39,0,1,,,,,,,,,,,,,,,,,,,,,,,,,,,,,,,,,,,,,,,
,,,,,,,,2023-08-16_08h42.01.988,HF_wild_card,2022.2.4,Win32,20.0020002,5ce740c8636a5b0018f55968,64d2fd46c836a06233681665,64dc7da45c5711870ec86cfd,,,,,,,decisionTrl,resources/DB.BMP,resources/DR.BMP,Door4,-0.2575,0,1,0,0,1.237,optionLeft,80,2250,1,40,0,40,0,1,,,,,,,,,,,,,,,,,,,,,,,,,,,,,,,,,,,,,,,
,,,,,,,,2023-08-16_08h42.01.988,HF_wild_card,2022.2.4,Win32,20.0020002,5ce740c8636a5b0018f55968,64d2fd46c836a06233681665,64dc7da45c5711870ec86cfd,,,,,,,ctch,resources/DR.BMP,resources/DY.BMP,Door3,-0.2775,-0.0125,1,0,0,1.702,optionLeft,70,2320,1,41,0,41,0,1,,,,,,,,,,,,,,,,,,,,,,,,,,,,,,,,,,,,,,,
,,,,,,,,2023-08-16_08h42.01.988,HF_wild_card,2022.2.4,Win32,20.0020002,5ce740c8636a5b0018f55968,64d2fd46c836a06233681665,64dc7da45c5711870ec86cfd,,,,,,,decisionTrl,resources/DY.BMP,resources/DP.BMP,Door1,0.33625,-0.02375,1,0,0,1.922,optionRight,30,2350,1,42,0,42,0,1,,,,,,,,,,,,,,,,,,,,,,,,,,,,,,,,,,,,,,,
,,,,,,,,2023-08-16_08h42.01.988,HF_wild_card,2022.2.4,Win32,20.0020002,5ce740c8636a5b0018f55968,64d2fd46c836a06233681665,64dc7da45c5711870ec86cfd,,,,,,,decisionTrl,resources/DR.BMP,resources/DB.BMP,Door4,0.2375,-0.03625,1,0,0,1.425,optionRight,80,2430,1,43,0,43,0,1,,,,,,,,,,,,,,,,,,,,,,,,,,,,,,,,,,,,,,,
,,,,,,,,2023-08-16_08h42.01.988,HF_wild_card,2022.2.4,Win32,20.0020002,5ce740c8636a5b0018f55968,64d2fd46c836a06233681665,64dc7da45c5711870ec86cfd,,,,,,,,,,,,,,,,,,,,,,,,,,0,0,0,0,1,,,,,,,,,,,,,,,,,,,,,,,,,,,,,,,,,,
,,,,,,,,2023-08-16_08h42.01.988,HF_wild_card,2022.2.4,Win32,20.0020002,5ce740c8636a5b0018f55968,64d2fd46c836a06233681665,64dc7da45c5711870ec86cfd,,,,,,,decisionTrl,resources/DP.BMP,resources/DY.BMP,Door1,-0.30875,-0.03,1,0,0,3.11,optionLeft,30,2460,2,0,0,0,0,1,,,,,,,,,,,,,,,,,,,,,,,,,,,,,,,,,,,,,,,
,,,,,,,,2023-08-16_08h42.01.988,HF_wild_card,2022.2.4,Win32,20.0020002,5ce740c8636a5b0018f55968,64d2fd46c836a06233681665,64dc7da45c5711870ec86cfd,,,,,,,sngl,resources/Empty.png,resources/DY.BMP,Door2,0.40125,-0.00125,1,0,0,2.207,optionRight,40,2500,2,1,0,1,0,1,,,,,,,,,,,,,,,,,,,,,,,,,,,,,,,,,,,,,,,
,,,,,,,,2023-08-16_08h42.01.988,HF_wild_card,2022.2.4,Win32,20.0020002,5ce740c8636a5b0018f55968,64d2fd46c836a06233681665,64dc7da45c5711870ec86cfd,,,,,,,sngl,resources/Empty.png,resources/DG.BMP,WildCard_Ex,0.26125,-0.01625,1,0,0,1.117,optionRight,5,2505,2,2,0,2,0,1,,,,,,,,,,,,,,,,,,,,,,,,,,,,,,,,,,,,,,,
,,,,,,,,2023-08-16_08h42.01.988,HF_wild_card,2022.2.4,Win32,20.0020002,5ce740c8636a5b0018f55968,64d2fd46c836a06233681665,64dc7da45c5711870ec86cfd,,,,,,,decisionTrl,resources/DG.BMP,resources/DP.BMP,Door1,0.28375,-0.02875,1,0,0,1.229,optionRight,30,2535,2,3,0,3,0,1,,,,,,,,,,,,,,,,,,,,,,,,,,,,,,,,,,,,,,,
,,,,,,,,2023-08-16_08h42.01.988,HF_wild_card,2022.2.4,Win32,20.0020002,5ce740c8636a5b0018f55968,64d2fd46c836a06233681665,64dc7da45c5711870ec86cfd,,,,,,,ctch,resources/DP.BMP,resources/DB.BMP,Door4,0.23125,-0.00125,1,0,0,1.581,optionRight,80,2615,2,4,0,4,0,1,,,,,,,,,,,,,,,,,,,,,,,,,,,,,,,,,,,,,,,
,,,,,,,,2023-08-16_08h42.01.988,HF_wild_card,2022.2.4,Win32,20.0020002,5ce740c8636a5b0018f55968,64d2fd46c836a06233681665,64dc7da45c5711870ec86cfd,,,,,,,decisionTrl,resources/DB.BMP,resources/DR.BMP,Door3,0.3,-0.03625,1,0,0,2.017,optionRight,70,2685,2,5,0,5,0,1,,,,,,,,,,,,,,,,,,,,,,,,,,,,,,,,,,,,,,,
,,,,,,,,2023-08-16_08h42.01.988,HF_wild_card,2022.2.4,Win32,20.0020002,5ce740c8636a5b0018f55968,64d2fd46c836a06233681665,64dc7da45c5711870ec86cfd,,,,,,,sngl,resources/Empty.png,resources/DG.BMP,WildCard_Ex,0.28125,-0.01875,1,0,0,1.24,optionRight,95,2780,2,6,0,6,0,1,,,,,,,,,,,,,,,,,,,,,,,,,,,,,,,,,,,,,,,
,,,,,,,,2023-08-16_08h42.01.988,HF_wild_card,2022.2.4,Win32,20.0020002,5ce740c8636a5b0018f55968,64d2fd46c836a06233681665,64dc7da45c5711870ec86cfd,,,,,,,decisionTrl,resources/DP.BMP,resources/DY.BMP,Door2,0.2775,-0.055,1,0,0,1.879,optionRight,40,2820,2,7,0,7,0,1,,,,,,,,,,,,,,,,,,,,,,,,,,,,,,,,,,,,,,,
,,,,,,,,2023-08-16_08h42.01.988,HF_wild_card,2022.2.4,Win32,20.0020002,5ce740c8636a5b0018f55968,64d2fd46c836a06233681665,64dc7da45c5711870ec86cfd,,,,,,,decisionTrl,resources/DP.BMP,resources/DY.BMP,Door2,0.26375,-0.045,1,0,0,1.229,optionRight,40,2860,2,8,0,8,0,1,,,,,,,,,,,,,,,,,,,,,,,,,,,,,,,,,,,,,,,
,,,,,,,,2023-08-16_08h42.01.988,HF_wild_card,2022.2.4,Win32,20.0020002,5ce740c8636a5b0018f55968,64d2fd46c836a06233681665,64dc7da45c5711870ec86cfd,,,,,,,decisionTrl,resources/DY.BMP,resources/DP.BMP,Door2,-0.375,0.01,1,0,0,1.344,optionLeft,40,2900,2,9,0,9,0,1,,,,,,,,,,,,,,,,,,,,,,,,,,,,,,,,,,,,,,,
,,,,,,,,2023-08-16_08h42.01.988,HF_wild_card,2022.2.4,Win32,20.0020002,5ce740c8636a5b0018f55968,64d2fd46c836a06233681665,64dc7da45c5711870ec86cfd,,,,,,,ctch,resources/DP.BMP,resources/DB.BMP,Door4,0.37375,-0.045,1,0,0,1.21,optionRight,60,2960,2,10,0,10,0,1,,,,,,,,,,,,,,,,,,,,,,,,,,,,,,,,,,,,,,,
,,,,,,,,2023-08-16_08h42.01.988,HF_wild_card,2022.2.4,Win32,20.0020002,5ce740c8636a5b0018f55968,64d2fd46c836a06233681665,64dc7da45c5711870ec86cfd,,,,,,,ctch,resources/DY.BMP,resources/DR.BMP,Door3,0.2225,-0.035,1,0,0,2.075,optionRight,70,3030,2,11,0,11,0,1,,,,,,,,,,,,,,,,,,,,,,,,,,,,,,,,,,,,,,,
,,,,,,,,2023-08-16_08h42.01.988,HF_wild_card,2022.2.4,Win32,20.0020002,5ce740c8636a5b0018f55968,64d2fd46c836a06233681665,64dc7da45c5711870ec86cfd,,,,,,,sngl,resources/Empty.png,resources/DB.BMP,Door4,0.2825,-0.04,1,0,0,1.085,optionRight,80,3110,2,12,0,12,0,1,,,,,,,,,,,,,,,,,,,,,,,,,,,,,,,,,,,,,,,
,,,,,,,,2023-08-16_08h42.01.988,HF_wild_card,2022.2.4,Win32,20.0020002,5ce740c8636a5b0018f55968,64d2fd46c836a06233681665,64dc7da45c5711870ec86cfd,,,,,,,sngl,resources/DY.BMP,resources/Empty.png,Door2,-0.2425,0.01375,1,0,0,1.171,optionLeft,20,3130,2,13,0,13,0,1,,,,,,,,,,,,,,,,,,,,,,,,,,,,,,,,,,,,,,,
,,,,,,,,2023-08-16_08h42.01.988,HF_wild_card,2022.2.4,Win32,20.0020002,5ce740c8636a5b0018f55968,64d2fd46c836a06233681665,64dc7da45c5711870ec86cfd,,,,,,,decisionTrl,resources/DR.BMP,resources/DG.BMP,WildCard_Ex,0.01625,0.00875,1,0,0,0.094,optionRight,5,3135,2,14,0,14,0,1,,,,,,,,,,,,,,,,,,,,,,,,,,,,,,,,,,,,,,,
,,,,,,,,2023-08-16_08h42.01.988,HF_wild_card,2022.2.4,Win32,20.0020002,5ce740c8636a5b0018f55968,64d2fd46c836a06233681665,64dc7da45c5711870ec86cfd,,,,,,,decisionTrl,resources/DR.BMP,resources/DB.BMP,Door3,-0.23875,0.025,1,0,0,1.346,optionLeft,70,3205,2,15,0,15,0,1,,,,,,,,,,,,,,,,,,,,,,,,,,,,,,,,,,,,,,,
,,,,,,,,2023-08-16_08h42.01.988,HF_wild_card,2022.2.4,Win32,20.0020002,5ce740c8636a5b0018f55968,64d2fd46c836a06233681665,64dc7da45c5711870ec86cfd,,,,,,,decisionTrl,resources/DR.BMP,resources/DB.BMP,Door3,-0.32625,-0.035,1,0,0,1.234,optionLeft,70,3275,2,16,0,16,0,1,,,,,,,,,,,,,,,,,,,,,,,,,,,,,,,,,,,,,,,
,,,,,,,,2023-08-16_08h42.01.988,HF_wild_card,2022.2.4,Win32,20.0020002,5ce740c8636a5b0018f55968,64d2fd46c836a06233681665,64dc7da45c5711870ec86cfd,,,,,,,decisionTrl,resources/DR.BMP,resources/DB.BMP,Door3,-0.205,-0.0125,1,0,0,1.729,optionLeft,70,3345,2,17,0,17,0,1,,,,,,,,,,,,,,,,,,,,,,,,,,,,,,,,,,,,,,,
,,,,,,,,2023-08-16_08h42.01.988,HF_wild_card,2022.2.4,Win32,20.0020002,5ce740c8636a5b0018f55968,64d2fd46c836a06233681665,64dc7da45c5711870ec86cfd,,,,,,,ctch,resources/DB.BMP,resources/DP.BMP,Door4,-0.28125,-0.00875,1,0,0,1.501,optionLeft,80,3425,2,18,0,18,0,1,,,,,,,,,,,,,,,,,,,,,,,,,,,,,,,,,,,,,,,
,,,,,,,,2023-08-16_08h42.01.988,HF_wild_card,2022.2.4,Win32,20.0020002,5ce740c8636a5b0018f55968,64d2fd46c836a06233681665,64dc7da45c5711870ec86cfd,,,,,,,decisionTrl,resources/DB.BMP,resources/DR.BMP,Door4,-0.255,-0.005,1,0,0,1.178,optionLeft,80,3505,2,19,0,19,0,1,,,,,,,,,,,,,,,,,,,,,,,,,,,,,,,,,,,,,,,
,,,,,,,,2023-08-16_08h42.01.988,HF_wild_card,2022.2.4,Win32,20.0020002,5ce740c8636a5b0018f55968,64d2fd46c836a06233681665,64dc7da45c5711870ec86cfd,,,,,,,ctch,resources/DB.BMP,resources/DP.BMP,Door4,-0.1975,-0.01125,1,0,0,1.249,optionLeft,60,3565,2,20,0,20,0,1,,,,,,,,,,,,,,,,,,,,,,,,,,,,,,,,,,,,,,,
,,,,,,,,2023-08-16_08h42.01.988,HF_wild_card,2022.2.4,Win32,20.0020002,5ce740c8636a5b0018f55968,64d2fd46c836a06233681665,64dc7da45c5711870ec86cfd,,,,,,,decisionTrl,resources/DB.BMP,resources/DG.BMP,Door4,-0.2125,-0.02875,1,0,0,1.521,optionLeft,60,3625,2,21,0,21,0,1,,,,,,,,,,,,,,,,,,,,,,,,,,,,,,,,,,,,,,,
,,,,,,,,2023-08-16_08h42.01.988,HF_wild_card,2022.2.4,Win32,20.0020002,5ce740c8636a5b0018f55968,64d2fd46c836a06233681665,64dc7da45c5711870ec86cfd,,,,,,,decisionTrl,resources/DY.BMP,resources/DP.BMP,Door2,-0.24,0.01125,1,0,0,1.725,optionLeft,20,3645,2,22,0,22,0,1,,,,,,,,,,,,,,,,,,,,,,,,,,,,,,,,,,,,,,,
,,,,,,,,2023-08-16_08h42.01.988,HF_wild_card,2022.2.4,Win32,20.0020002,5ce740c8636a5b0018f55968,64d2fd46c836a06233681665,64dc7da45c5711870ec86cfd,,,,,,,ctch,resources/DR.BMP,resources/DY.BMP,Door3,-0.225,-0.0225,1,0,0,1.535,optionLeft,70,3715,2,23,0,23,0,1,,,,,,,,,,,,,,,,,,,,,,,,,,,,,,,,,,,,,,,
,,,,,,,,2023-08-16_08h42.01.988,HF_wild_card,2022.2.4,Win32,20.0020002,5ce740c8636a5b0018f55968,64d2fd46c836a06233681665,64dc7da45c5711870ec86cfd,,,,,,,sngl,resources/DG.BMP,resources/Empty.png,WildCard_Ex,-0.2775,-0.00375,1,0,0,1.057,optionLeft,95,3810,2,24,0,24,0,1,,,,,,,,,,,,,,,,,,,,,,,,,,,,,,,,,,,,,,,
,,,,,,,,2023-08-16_08h42.01.988,HF_wild_card,2022.2.4,Win32,20.0020002,5ce740c8636a5b0018f55968,64d2fd46c836a06233681665,64dc7da45c5711870ec86cfd,,,,,,,decisionTrl,resources/DG.BMP,resources/DY.BMP,WildCard_Ex,-0.2375,0.0075,1,0,0,1.181,optionLeft,95,3905,2,25,0,25,0,1,,,,,,,,,,,,,,,,,,,,,,,,,,,,,,,,,,,,,,,
,,,,,,,,2023-08-16_08h42.01.988,HF_wild_card,2022.2.4,Win32,20.0020002,5ce740c8636a5b0018f55968,64d2fd46c836a06233681665,64dc7da45c5711870ec86cfd,,,,,,,decisionTrl,resources/DY.BMP,resources/DP.BMP,Door1,0.295,-0.0025,1,0,0,2.262,optionRight,30,3935,2,26,0,26,0,1,,,,,,,,,,,,,,,,,,,,,,,,,,,,,,,,,,,,,,,
,,,,,,,,2023-08-16_08h42.01.988,HF_wild_card,2022.2.4,Win32,20.0020002,5ce740c8636a5b0018f55968,64d2fd46c836a06233681665,64dc7da45c5711870ec86cfd,,,,,,,decisionTrl,resources/DP.BMP,resources/DG.BMP,WildCard_Ex,0.29875,0.0025,1,0,0,1.265,optionRight,95,4030,2,27,0,27,0,1,,,,,,,,,,,,,,,,,,,,,,,,,,,,,,,,,,,,,,,
,,,,,,,,2023-08-16_08h42.01.988,HF_wild_card,2022.2.4,Win32,20.0020002,5ce740c8636a5b0018f55968,64d2fd46c836a06233681665,64dc7da45c5711870ec86cfd,,,,,,,decisionTrl,resources/DG.BMP,resources/DR.BMP,WildCard_Ex,-0.24625,0.00625,1,0,0,1.194,optionLeft,95,4125,2,28,0,28,0,1,,,,,,,,,,,,,,,,,,,,,,,,,,,,,,,,,,,,,,,
,,,,,,,,2023-08-16_08h42.01.988,HF_wild_card,2022.2.4,Win32,20.0020002,5ce740c8636a5b0018f55968,64d2fd46c836a06233681665,64dc7da45c5711870ec86cfd,,,,,,,sngl,resources/DG.BMP,resources/Empty.png,WildCard_Ex,-0.2725,0.01125,1,0,0,1.143,optionLeft,5,4130,2,29,0,29,0,1,,,,,,,,,,,,,,,,,,,,,,,,,,,,,,,,,,,,,,,
,,,,,,,,2023-08-16_08h42.01.988,HF_wild_card,2022.2.4,Win32,20.0020002,5ce740c8636a5b0018f55968,64d2fd46c836a06233681665,64dc7da45c5711870ec86cfd,,,,,,,decisionTrl,resources/DY.BMP,resources/DG.BMP,WildCard_Ex,0.22375,0.01,1,0,0,1.433,optionRight,5,4135,2,30,0,30,0,1,,,,,,,,,,,,,,,,,,,,,,,,,,,,,,,,,,,,,,,
,,,,,,,,2023-08-16_08h42.01.988,HF_wild_card,2022.2.4,Win32,20.0020002,5ce740c8636a5b0018f55968,64d2fd46c836a06233681665,64dc7da45c5711870ec86cfd,,,,,,,sngl,resources/DP.BMP,resources/Empty.png,Door1,-0.28625,-0.005,1,0,0,1.023,optionLeft,30,4165,2,31,0,31,0,1,,,,,,,,,,,,,,,,,,,,,,,,,,,,,,,,,,,,,,,
,,,,,,,,2023-08-16_08h42.01.988,HF_wild_card,2022.2.4,Win32,20.0020002,5ce740c8636a5b0018f55968,64d2fd46c836a06233681665,64dc7da45c5711870ec86cfd,,,,,,,decisionTrl,resources/DB.BMP,resources/DR.BMP,Door4,-0.21875,0.015,1,0,0,1.29,optionLeft,80,4245,2,32,0,32,0,1,,,,,,,,,,,,,,,,,,,,,,,,,,,,,,,,,,,,,,,
,,,,,,,,2023-08-16_08h42.01.988,HF_wild_card,2022.2.4,Win32,20.0020002,5ce740c8636a5b0018f55968,64d2fd46c836a06233681665,64dc7da45c5711870ec86cfd,,,,,,,decisionTrl,resources/DG.BMP,resources/DB.BMP,Door4,0.24625,-0.005,1,0,0,1.042,optionRight,60,4305,2,33,0,33,0,1,,,,,,,,,,,,,,,,,,,,,,,,,,,,,,,,,,,,,,,
,,,,,,,,2023-08-16_08h42.01.988,HF_wild_card,2022.2.4,Win32,20.0020002,5ce740c8636a5b0018f55968,64d2fd46c836a06233681665,64dc7da45c5711870ec86cfd,,,,,,,sngl,resources/DB.BMP,resources/Empty.png,Door4,-0.26625,0.01375,1,0,0,1.026,optionLeft,60,4365,2,34,0,34,0,1,,,,,,,,,,,,,,,,,,,,,,,,,,,,,,,,,,,,,,,
,,,,,,,,2023-08-16_08h42.01.988,HF_wild_card,2022.2.4,Win32,20.0020002,5ce740c8636a5b0018f55968,64d2fd46c836a06233681665,64dc7da45c5711870ec86cfd,,,,,,,decisionTrl,resources/DB.BMP,resources/DR.BMP,Door4,-0.11375,-0.02125,1,0,0,1.421,optionLeft,80,4445,2,35,0,35,0,1,,,,,,,,,,,,,,,,,,,,,,,,,,,,,,,,,,,,,,,
,,,,,,,,2023-08-16_08h42.01.988,HF_wild_card,2022.2.4,Win32,20.0020002,5ce740c8636a5b0018f55968,64d2fd46c836a06233681665,64dc7da45c5711870ec86cfd,,,,,,,ctch,resources/DY.BMP,resources/DR.BMP,Door2,-0.17875,-0.01625,1,0,0,1.72,optionLeft,20,4465,2,36,0,36,0,1,,,,,,,,,,,,,,,,,,,,,,,,,,,,,,,,,,,,,,,
,,,,,,,,2023-08-16_08h42.01.988,HF_wild_card,2022.2.4,Win32,20.0020002,5ce740c8636a5b0018f55968,64d2fd46c836a06233681665,64dc7da45c5711870ec86cfd,,,,,,,sngl,resources/DR.BMP,resources/Empty.png,Door3,-0.1975,-0.01,1,0,0,1.079,optionLeft,70,4535,2,37,0,37,0,1,,,,,,,,,,,,,,,,,,,,,,,,,,,,,,,,,,,,,,,
,,,,,,,,2023-08-16_08h42.01.988,HF_wild_card,2022.2.4,Win32,20.0020002,5ce740c8636a5b0018f55968,64d2fd46c836a06233681665,64dc7da45c5711870ec86cfd,,,,,,,sngl,resources/Empty.png,resources/DR.BMP,Door3,0.20625,-0.0225,1,0,0,0.98,optionRight,70,4605,2,38,0,38,0,1,,,,,,,,,,,,,,,,,,,,,,,,,,,,,,,,,,,,,,,
,,,,,,,,2023-08-16_08h42.01.988,HF_wild_card,2022.2.4,Win32,20.0020002,5ce740c8636a5b0018f55968,64d2fd46c836a06233681665,64dc7da45c5711870ec86cfd,,,,,,,ctch,resources/DR.BMP,resources/DY.BMP,Door3,-0.1925,-0.0125,1,0,0,1.14,optionLeft,70,4675,2,39,0,39,0,1,,,,,,,,,,,,,,,,,,,,,,,,,,,,,,,,,,,,,,,
,,,,,,,,2023-08-16_08h42.01.988,HF_wild_card,2022.2.4,Win32,20.0020002,5ce740c8636a5b0018f55968,64d2fd46c836a06233681665,64dc7da45c5711870ec86cfd,,,,,,,sngl,resources/Empty.png,resources/DP.BMP,Door1,0.2725,-0.015,1,0,0,0.971,optionRight,30,4705,2,40,0,40,0,1,,,,,,,,,,,,,,,,,,,,,,,,,,,,,,,,,,,,,,,
,,,,,,,,2023-08-16_08h42.01.988,HF_wild_card,2022.2.4,Win32,20.0020002,5ce740c8636a5b0018f55968,64d2fd46c836a06233681665,64dc7da45c5711870ec86cfd,,,,,,,decisionTrl,resources/DP.BMP,resources/DY.BMP,Door1,-0.2275,-0.01375,1,0,0,1.701,optionLeft,30,4735,2,41,0,41,0,1,,,,,,,,,,,,,,,,,,,,,,,,,,,,,,,,,,,,,,,
,,,,,,,,2023-08-16_08h42.01.988,HF_wild_card,2022.2.4,Win32,20.0020002,5ce740c8636a5b0018f55968,64d2fd46c836a06233681665,64dc7da45c5711870ec86cfd,,,,,,,decisionTrl,resources/DY.BMP,resources/DP.BMP,Door1,0.31,-0.01,1,0,0,1.493,optionRight,30,4765,2,42,0,42,0,1,,,,,,,,,,,,,,,,,,,,,,,,,,,,,,,,,,,,,,,
,,,,,,,,2023-08-16_08h42.01.988,HF_wild_card,2022.2.4,Win32,20.0020002,5ce740c8636a5b0018f55968,64d2fd46c836a06233681665,64dc7da45c5711870ec86cfd,,,,,,,decisionTrl,resources/DR.BMP,resources/DB.BMP,Door3,-0.25375,-0.02375,1,0,0,1.454,optionLeft,70,4835,2,43,0,43,0,1,,,,,,,,,,,,,,,,,,,,,,,,,,,,,,,,,,,,,,,
,,,,,,,,2023-08-16_08h42.01.988,HF_wild_card,2022.2.4,Win32,20.0020002,5ce740c8636a5b0018f55968,64d2fd46c836a06233681665,64dc7da45c5711870ec86cfd,,,,,,,,,,,,,,,,,,,,,,,,,,1,0,1,0,1,,,,,,,,,,,,,,,,,,,,,,,,,,,,,,,,,,
,,,,,,,,2023-08-16_08h42.01.988,HF_wild_card,2022.2.4,Win32,20.0020002,5ce740c8636a5b0018f55968,64d2fd46c836a06233681665,64dc7da45c5711870ec86cfd,,,,,,,decisionTrl,resources/DG.BMP,resources/DB.BMP,WildCard_Ex,-0.17375,-0.05875,1,0,0,1.508,optionLeft,95,4930,3,0,0,0,0,1,,,,,,,,,,,,,,,,,,,,,,,,,,,,,,,,,,,,,,,
,,,,,,,,2023-08-16_08h42.01.988,HF_wild_card,2022.2.4,Win32,20.0020002,5ce740c8636a5b0018f55968,64d2fd46c836a06233681665,64dc7da45c5711870ec86cfd,,,,,,,decisionTrl,resources/DR.BMP,resources/DB.BMP,Door3,-0.2075,0.0025,1,0,0,1.207,optionLeft,70,5000,3,1,0,1,0,1,,,,,,,,,,,,,,,,,,,,,,,,,,,,,,,,,,,,,,,
,,,,,,,,2023-08-16_08h42.01.988,HF_wild_card,2022.2.4,Win32,20.0020002,5ce740c8636a5b0018f55968,64d2fd46c836a06233681665,64dc7da45c5711870ec86cfd,,,,,,,sngl,resources/Empty.png,resources/DG.BMP,WildCard_Ex,0.3025,-0.03125,1,0,0,1.023,optionRight,95,5095,3,2,0,2,0,1,,,,,,,,,,,,,,,,,,,,,,,,,,,,,,,,,,,,,,,
,,,,,,,,2023-08-16_08h42.01.988,HF_wild_card,2022.2.4,Win32,20.0020002,5ce740c8636a5b0018f55968,64d2fd46c836a06233681665,64dc7da45c5711870ec86cfd,,,,,,,sngl,resources/DR.BMP,resources/Empty.png,Door3,-0.2475,-0.01,1,0,0,1.129,optionLeft,70,5165,3,3,0,3,0,1,,,,,,,,,,,,,,,,,,,,,,,,,,,,,,,,,,,,,,,
,,,,,,,,2023-08-16_08h42.01.988,HF_wild_card,2022.2.4,Win32,20.0020002,5ce740c8636a5b0018f55968,64d2fd46c836a06233681665,64dc7da45c5711870ec86cfd,,,,,,,decisionTrl,resources/DY.BMP,resources/DP.BMP,Door1,0.2575,0.00125,1,0,0,1.734,optionRight,30,5195,3,4,0,4,0,1,,,,,,,,,,,,,,,,,,,,,,,,,,,,,,,,,,,,,,,
,,,,,,,,2023-08-16_08h42.01.988,HF_wild_card,2022.2.4,Win32,20.0020002,5ce740c8636a5b0018f55968,64d2fd46c836a06233681665,64dc7da45c5711870ec86cfd,,,,,,,decisionTrl,resources/DY.BMP,resources/DP.BMP,Door2,-0.18,-0.01,1,0,0,1.479,optionLeft,40,5235,3,5,0,5,0,1,,,,,,,,,,,,,,,,,,,,,,,,,,,,,,,,,,,,,,,
,,,,,,,,2023-08-16_08h42.01.988,HF_wild_card,2022.2.4,Win32,20.0020002,5ce740c8636a5b0018f55968,64d2fd46c836a06233681665,64dc7da45c5711870ec86cfd,,,,,,,sngl,resources/DG.BMP,resources/Empty.png,WildCard_Ex,-0.235,0.01375,1,0,0,1.028,optionLeft,95,5330,3,6,0,6,0,1,,,,,,,,,,,,,,,,,,,,,,,,,,,,,,,,,,,,,,,
,,,,,,,,2023-08-16_08h42.01.988,HF_wild_card,2022.2.4,Win32,20.0020002,5ce740c8636a5b0018f55968,64d2fd46c836a06233681665,64dc7da45c5711870ec86cfd,,,,,,,ctch,resources/DB.BMP,resources/DP.BMP,Door4,-0.2275,-0.0075,1,0,0,1.561,optionLeft,60,5390,3,7,0,7,0,1,,,,,,,,,,,,,,,,,,,,,,,,,,,,,,,,,,,,,,,
,,,,,,,,2023-08-16_08h42.01.988,HF_wild_card,2022.2.4,Win32,20.0020002,5ce740c8636a5b0018f55968,64d2fd46c836a06233681665,64dc7da45c5711870ec86cfd,,,,,,,ctch,resources/DY.BMP,resources/DR.BMP,Door3,0.28375,-0.0175,1,0,0,2.649,optionRight,70,5460,3,8,0,8,0,1,,,,,,,,,,,,,,,,,,,,,,,,,,,,,,,,,,,,,,,
,,,,,,,,2023-08-16_08h42.01.988,HF_wild_card,2022.2.4,Win32,20.0020002,5ce740c8636a5b0018f55968,64d2fd46c836a06233681665,64dc7da45c5711870ec86cfd,,,,,,,ctch,resources/DY.BMP,resources/DR.BMP,Door3,0.19375,-0.01875,1,0,0,0.951,optionRight,70,5530,3,9,0,9,0,1,,,,,,,,,,,,,,,,,,,,,,,,,,,,,,,,,,,,,,,
,,,,,,,,2023-08-16_08h42.01.988,HF_wild_card,2022.2.4,Win32,20.0020002,5ce740c8636a5b0018f55968,64d2fd46c836a06233681665,64dc7da45c5711870ec86cfd,,,,,,,decisionTrl,resources/DB.BMP,resources/DR.BMP,Door3,0.21875,-0.01375,1,0,0,1.77,optionRight,70,5600,3,10,0,10,0,1,,,,,,,,,,,,,,,,,,,,,,,,,,,,,,,,,,,,,,,
,,,,,,,,2023-08-16_08h42.01.988,HF_wild_card,2022.2.4,Win32,20.0020002,5ce740c8636a5b0018f55968,64d2fd46c836a06233681665,64dc7da45c5711870ec86cfd,,,,,,,decisionTrl,resources/DB.BMP,resources/DG.BMP,Door4,-0.19875,-0.0325,1,0,0,1.746,optionLeft,60,5660,3,11,0,11,0,1,,,,,,,,,,,,,,,,,,,,,,,,,,,,,,,,,,,,,,,
,,,,,,,,2023-08-16_08h42.01.988,HF_wild_card,2022.2.4,Win32,20.0020002,5ce740c8636a5b0018f55968,64d2fd46c836a06233681665,64dc7da45c5711870ec86cfd,,,,,,,decisionTrl,resources/DB.BMP,resources/DR.BMP,Door3,0.265,0.00125,1,0,0,1.623,optionRight,70,5730,3,12,0,12,0,1,,,,,,,,,,,,,,,,,,,,,,,,,,,,,,,,,,,,,,,
,,,,,,,,2023-08-16_08h42.01.988,HF_wild_card,2022.2.4,Win32,20.0020002,5ce740c8636a5b0018f55968,64d2fd46c836a06233681665,64dc7da45c5711870ec86cfd,,,,,,,decisionTrl,resources/DP.BMP,resources/DY.BMP,Door2,0.2025,-0.015,1,0,0,2.068,optionRight,40,5770,3,13,0,13,0,1,,,,,,,,,,,,,,,,,,,,,,,,,,,,,,,,,,,,,,,
,,,,,,,,2023-08-16_08h42.01.988,HF_wild_card,2022.2.4,Win32,20.0020002,5ce740c8636a5b0018f55968,64d2fd46c836a06233681665,64dc7da45c5711870ec86cfd,,,,,,,decisionTrl,resources/DY.BMP,resources/DP.BMP,Door2,-0.215,-0.005,1,0,0,2.104,optionLeft,40,5810,3,14,0,14,0,1,,,,,,,,,,,,,,,,,,,,,,,,,,,,,,,,,,,,,,,
,,,,,,,,2023-08-16_08h42.01.988,HF_wild_card,2022.2.4,Win32,20.0020002,5ce740c8636a5b0018f55968,64d2fd46c836a06233681665,64dc7da45c5711870ec86cfd,,,,,,,sngl,resources/DY.BMP,resources/Empty.png,Door2,-0.2375,0.00125,1,0,0,1.143,optionLeft,40,5850,3,15,0,15,0,1,,,,,,,,,,,,,,,,,,,,,,,,,,,,,,,,,,,,,,,
,,,,,,,,2023-08-16_08h42.01.988,HF_wild_card,2022.2.4,Win32,20.0020002,5ce740c8636a5b0018f55968,64d2fd46c836a06233681665,64dc7da45c5711870ec86cfd,,,,,,,ctch,resources/DP.BMP,resources/DB.BMP,Door4,0.38,-0.01875,1,0,0,1.402,optionRight,80,5930,3,16,0,16,0,1,,,,,,,,,,,,,,,,,,,,,,,,,,,,,,,,,,,,,,,
,,,,,,,,2023-08-16_08h42.01.988,HF_wild_card,2022.2.4,Win32,20.0020002,5ce740c8636a5b0018f55968,64d2fd46c836a06233681665,64dc7da45c5711870ec86cfd,,,,,,,decisionTrl,resources/DP.BMP,resources/DG.BMP,WildCard_Ex,0.17625,-0.0175,1,0,0,1.361,optionRight,5,5935,3,17,0,17,0,1,,,,,,,,,,,,,,,,,,,,,,,,,,,,,,,,,,,,,,,
,,,,,,,,2023-08-16_08h42.01.988,HF_wild_card,2022.2.4,Win32,20.0020002,5ce740c8636a5b0018f55968,64d2fd46c836a06233681665,64dc7da45c5711870ec86cfd,,,,,,,decisionTrl,resources/DR.BMP,resources/DB.BMP,Door3,-0.28125,-0.02,1,0,0,1.601,optionLeft,70,6005,3,18,0,18,0,1,,,,,,,,,,,,,,,,,,,,,,,,,,,,,,,,,,,,,,,
,,,,,,,,2023-08-16_08h42.01.988,HF_wild_card,2022.2.4,Win32,20.0020002,5ce740c8636a5b0018f55968,64d2fd46c836a06233681665,64dc7da45c5711870ec86cfd,,,,,,,decisionTrl,resources/DB.BMP,resources/DR.BMP,Door4,-0.23875,-0.0025,1,0,0,1.193,optionLeft,60,6065,3,19,0,19,0,1,,,,,,,,,,,,,,,,,,,,,,,,,,,,,,,,,,,,,,,
,,,,,,,,2023-08-16_08h42.01.988,HF_wild_card,2022.2.4,Win32,20.0020002,5ce740c8636a5b0018f55968,64d2fd46c836a06233681665,64dc7da45c5711870ec86cfd,,,,,,,sngl,resources/Empty.png,resources/DY.BMP,Door2,0.25,-0.0175,1,0,0,0.969,optionRight,20,6085,3,20,0,20,0,1,,,,,,,,,,,,,,,,,,,,,,,,,,,,,,,,,,,,,,,
,,,,,,,,2023-08-16_08h42.01.988,HF_wild_card,2022.2.4,Win32,20.0020002,5ce740c8636a5b0018f55968,64d2fd46c836a06233681665,64dc7da45c5711870ec86cfd,,,,,,,decisionTrl,resources/DG.BMP,resources/DR.BMP,WildCard_Ex,-0.25875,-0.00375,1,0,0,1.498,optionLeft,95,6180,3,21,0,21,0,1,,,,,,,,,,,,,,,,,,,,,,,,,,,,,,,,,,,,,,,
,,,,,,,,2023-08-16_08h42.01.988,HF_wild_card,2022.2.4,Win32,20.0020002,5ce740c8636a5b0018f55968,64d2fd46c836a06233681665,64dc7da45c5711870ec86cfd,,,,,,,decisionTrl,resources/DG.BMP,resources/DY.BMP,WildCard_Ex,-0.1475,-0.005,1,0,0,1.256,optionLeft,95,6275,3,22,0,22,0,1,,,,,,,,,,,,,,,,,,,,,,,,,,,,,,,,,,,,,,,
,,,,,,,,2023-08-16_08h42.01.988,HF_wild_card,2022.2.4,Win32,20.0020002,5ce740c8636a5b0018f55968,64d2fd46c836a06233681665,64dc7da45c5711870ec86cfd,,,,,,,decisionTrl,resources/DG.BMP,resources/DP.BMP,WildCard_Ex,-0.1975,-0.00125,1,0,0,1.147,optionLeft,95,6370,3,23,0,23,0,1,,,,,,,,,,,,,,,,,,,,,,,,,,,,,,,,,,,,,,,
,,,,,,,,2023-08-16_08h42.01.988,HF_wild_card,2022.2.4,Win32,20.0020002,5ce740c8636a5b0018f55968,64d2fd46c836a06233681665,64dc7da45c5711870ec86cfd,,,,,,,sngl,resources/Empty.png,resources/DB.BMP,Door4,0.2375,-0.0125,1,0,0,1.055,optionRight,60,6430,3,24,0,24,0,1,,,,,,,,,,,,,,,,,,,,,,,,,,,,,,,,,,,,,,,
,,,,,,,,2023-08-16_08h42.01.988,HF_wild_card,2022.2.4,Win32,20.0020002,5ce740c8636a5b0018f55968,64d2fd46c836a06233681665,64dc7da45c5711870ec86cfd,,,,,,,sngl,resources/DG.BMP,resources/Empty.png,WildCard_Ex,-0.22125,-0.005,1,0,0,1.096,optionLeft,5,6435,3,25,0,25,0,1,,,,,,,,,,,,,,,,,,,,,,,,,,,,,,,,,,,,,,,
,,,,,,,,2023-08-16_08h42.01.988,HF_wild_card,2022.2.4,Win32,20.0020002,5ce740c8636a5b0018f55968,64d2fd46c836a06233681665,64dc7da45c5711870ec86cfd,,,,,,,sngl,resources/Empty.png,resources/DG.BMP,WildCard_Ex,0.26125,0.0075,1,0,0,1.23,optionRight,5,6440,3,26,0,26,0,1,,,,,,,,,,,,,,,,,,,,,,,,,,,,,,,,,,,,,,,
,,,,,,,,2023-08-16_08h42.01.988,HF_wild_card,2022.2.4,Win32,20.0020002,5ce740c8636a5b0018f55968,64d2fd46c836a06233681665,64dc7da45c5711870ec86cfd,,,,,,,sngl,resources/Empty.png,resources/DP.BMP,Door1,0.18125,0,1,0,0,1.017,optionRight,30,6470,3,27,0,27,0,1,,,,,,,,,,,,,,,,,,,,,,,,,,,,,,,,,,,,,,,
,,,,,,,,2023-08-16_08h42.01.988,HF_wild_card,2022.2.4,Win32,20.0020002,5ce740c8636a5b0018f55968,64d2fd46c836a06233681665,64dc7da45c5711870ec86cfd,,,,,,,sngl,resources/DP.BMP,resources/Empty.png,Door1,-0.21125,-0.00375,1,0,0,1.015,optionLeft,30,6500,3,28,0,28,0,1,,,,,,,,,,,,,,,,,,,,,,,,,,,,,,,,,,,,,,,
,,,,,,,,2023-08-16_08h42.01.988,HF_wild_card,2022.2.4,Win32,20.0020002,5ce740c8636a5b0018f55968,64d2fd46c836a06233681665,64dc7da45c5711870ec86cfd,,,,,,,decisionTrl,resources/DR.BMP,resources/DB.BMP,Door3,-0.23125,-0.03,1,0,0,1.333,optionLeft,70,6570,3,29,0,29,0,1,,,,,,,,,,,,,,,,,,,,,,,,,,,,,,,,,,,,,,,
,,,,,,,,2023-08-16_08h42.01.988,HF_wild_card,2022.2.4,Win32,20.0020002,5ce740c8636a5b0018f55968,64d2fd46c836a06233681665,64dc7da45c5711870ec86cfd,,,,,,,decisionTrl,resources/DR.BMP,resources/DB.BMP,Door3,-0.19,-0.03,1,0,0,1.16,optionLeft,70,6640,3,30,0,30,0,1,,,,,,,,,,,,,,,,,,,,,,,,,,,,,,,,,,,,,,,
,,,,,,,,2023-08-16_08h42.01.988,HF_wild_card,2022.2.4,Win32,20.0020002,5ce740c8636a5b0018f55968,64d2fd46c836a06233681665,64dc7da45c5711870ec86cfd,,,,,,,decisionTrl,resources/DY.BMP,resources/DP.BMP,Door2,-0.19,0.00125,1,0,0,2.022,optionLeft,20,6660,3,31,0,31,0,1,,,,,,,,,,,,,,,,,,,,,,,,,,,,,,,,,,,,,,,
,,,,,,,,2023-08-16_08h42.01.988,HF_wild_card,2022.2.4,Win32,20.0020002,5ce740c8636a5b0018f55968,64d2fd46c836a06233681665,64dc7da45c5711870ec86cfd,,,,,,,decisionTrl,resources/DY.BMP,resources/DG.BMP,WildCard_Ex,0.195,0.00625,1,0,0,1.471,optionRight,95,6755,3,32,0,32,0,1,,,,,,,,,,,,,,,,,,,,,,,,,,,,,,,,,,,,,,,
,,,,,,,,2023-08-16_08h42.01.988,HF_wild_card,2022.2.4,Win32,20.0020002,5ce740c8636a5b0018f55968,64d2fd46c836a06233681665,64dc7da45c5711870ec86cfd,,,,,,,ctch,resources/DP.BMP,resources/DB.BMP,Door4,0.15,-0.00375,1,0,0,1.58,optionRight,60,6815,3,33,0,33,0,1,,,,,,,,,,,,,,,,,,,,,,,,,,,,,,,,,,,,,,,
,,,,,,,,2023-08-16_08h42.01.988,HF_wild_card,2022.2.4,Win32,20.0020002,5ce740c8636a5b0018f55968,64d2fd46c836a06233681665,64dc7da45c5711870ec86cfd,,,,,,,ctch,resources/DR.BMP,resources/DY.BMP,Door3,-0.175,-0.01125,1,0,0,2.045,optionLeft,70,6885,3,34,0,34,0,1,,,,,,,,,,,,,,,,,,,,,,,,,,,,,,,,,,,,,,,
,,,,,,,,2023-08-16_08h42.01.988,HF_wild_card,2022.2.4,Win32,20.0020002,5ce740c8636a5b0018f55968,64d2fd46c836a06233681665,64dc7da45c5711870ec86cfd,,,,,,,ctch,resources/DB.BMP,resources/DP.BMP,Door4,-0.1775,0.005,1,0,0,1.523,optionLeft,80,6965,3,35,0,35,0,1,,,,,,,,,,,,,,,,,,,,,,,,,,,,,,,,,,,,,,,
,,,,,,,,2023-08-16_08h42.01.988,HF_wild_card,2022.2.4,Win32,20.0020002,5ce740c8636a5b0018f55968,64d2fd46c836a06233681665,64dc7da45c5711870ec86cfd,,,,,,,sngl,resources/Empty.png,resources/DR.BMP,Door3,0.22375,-0.00875,1,0,0,0.929,optionRight,70,7035,3,36,0,36,0,1,,,,,,,,,,,,,,,,,,,,,,,,,,,,,,,,,,,,,,,
,,,,,,,,2023-08-16_08h42.01.988,HF_wild_card,2022.2.4,Win32,20.0020002,5ce740c8636a5b0018f55968,64d2fd46c836a06233681665,64dc7da45c5711870ec86cfd,,,,,,,decisionTrl,resources/DP.BMP,resources/DY.BMP,Door1,-0.19625,-0.0525,1,0,0,1.985,optionLeft,30,7065,3,37,0,37,0,1,,,,,,,,,,,,,,,,,,,,,,,,,,,,,,,,,,,,,,,
,,,,,,,,2023-08-16_08h42.01.988,HF_wild_card,2022.2.4,Win32,20.0020002,5ce740c8636a5b0018f55968,64d2fd46c836a06233681665,64dc7da45c5711870ec86cfd,,,,,,,ctch,resources/DR.BMP,resources/DY.BMP,Door3,-0.2375,-0.0225,1,0,0,1.5,optionLeft,70,7135,3,38,0,38,0,1,,,,,,,,,,,,,,,,,,,,,,,,,,,,,,,,,,,,,,,
,,,,,,,,2023-08-16_08h42.01.988,HF_wild_card,2022.2.4,Win32,20.0020002,5ce740c8636a5b0018f55968,64d2fd46c836a06233681665,64dc7da45c5711870ec86cfd,,,,,,,decisionTrl,resources/DB.BMP,resources/DR.BMP,Door3,0.23125,-0.00875,1,0,0,1.09,optionRight,70,7205,3,39,0,39,0,1,,,,,,,,,,,,,,,,,,,,,,,,,,,,,,,,,,,,,,,
,,,,,,,,2023-08-16_08h42.01.988,HF_wild_card,2022.2.4,Win32,20.0020002,5ce740c8636a5b0018f55968,64d2fd46c836a06233681665,64dc7da45c5711870ec86cfd,,,,,,,sngl,resources/DB.BMP,resources/Empty.png,Door4,-0.21125,-0.00875,1,0,0,1.065,optionLeft,80,7285,3,40,0,40,0,1,,,,,,,,,,,,,,,,,,,,,,,,,,,,,,,,,,,,,,,
,,,,,,,,2023-08-16_08h42.01.988,HF_wild_card,2022.2.4,Win32,20.0020002,5ce740c8636a5b0018f55968,64d2fd46c836a06233681665,64dc7da45c5711870ec86cfd,,,,,,,decisionTrl,resources/DP.BMP,resources/DY.BMP,Door2,0.23125,0.0125,1,0,0,2.562,optionRight,20,7305,3,41,0,41,0,1,,,,,,,,,,,,,,,,,,,,,,,,,,,,,,,,,,,,,,,
,,,,,,,,2023-08-16_08h42.01.988,HF_wild_card,2022.2.4,Win32,20.0020002,5ce740c8636a5b0018f55968,64d2fd46c836a06233681665,64dc7da45c5711870ec86cfd,,,,,,,decisionTrl,resources/DR.BMP,resources/DG.BMP,Door3,-0.21125,-0.01625,1,0,0,1.763,optionLeft,70,7375,3,42,0,42,0,1,,,,,,,,,,,,,,,,,,,,,,,,,,,,,,,,,,,,,,,
,,,,,,,,2023-08-16_08h42.01.988,HF_wild_card,2022.2.4,Win32,20.0020002,5ce740c8636a5b0018f55968,64d2fd46c836a06233681665,64dc7da45c5711870ec86cfd,,,,,,,decisionTrl,resources/DP.BMP,resources/DY.BMP,Door1,-0.15625,0.005,1,0,0,2.278,optionLeft,30,7405,3,43,0,43,0,1,,,,,,,,,,,,,,,,,,,,,,,,,,,,,,,,,,,,,,,
,,,,,,,,2023-08-16_08h42.01.988,HF_wild_card,2022.2.4,Win32,20.0020002,5ce740c8636a5b0018f55968,64d2fd46c836a06233681665,64dc7da45c5711870ec86cfd,,,,,,,,,,,,,,,,,,,,,,,,,,2,0,2,0,1,,,,,,,,,,,,,,,,,,,,,,,,,,,,,,,,,,
,,,,,,,,2023-08-16_08h42.01.988,HF_wild_card,2022.2.4,Win32,20.0020002,5ce740c8636a5b0018f55968,64d2fd46c836a06233681665,64dc7da45c5711870ec86cfd,,,,,,,decisionTrl,resources/DP.BMP,resources/DBN.BMP,WildCard_NonEx,0.1975,-0.08,1,0,0,1.969,optionRight,55,7460,4,0,0,0,0,1,,,,,,,,,,,,,,,,,,,,,,,,,,,,,,,,,,,,,,,
,,,,,,,,2023-08-16_08h42.01.988,HF_wild_card,2022.2.4,Win32,20.0020002,5ce740c8636a5b0018f55968,64d2fd46c836a06233681665,64dc7da45c5711870ec86cfd,,,,,,,decisionTrl,resources/DY.BMP,resources/DP.BMP,Door2,-0.14375,-0.0025,1,0,0,1.778,optionLeft,40,7500,4,1,0,1,0,1,,,,,,,,,,,,,,,,,,,,,,,,,,,,,,,,,,,,,,,
,,,,,,,,2023-08-16_08h42.01.988,HF_wild_card,2022.2.4,Win32,20.0020002,5ce740c8636a5b0018f55968,64d2fd46c836a06233681665,64dc7da45c5711870ec86cfd,,,,,,,decisionTrl,resources/DR.BMP,resources/DB.BMP,Door4,0.22875,-0.02875,1,0,0,1.26,optionRight,80,7580,4,2,0,2,0,1,,,,,,,,,,,,,,,,,,,,,,,,,,,,,,,,,,,,,,,
,,,,,,,,2023-08-16_08h42.01.988,HF_wild_card,2022.2.4,Win32,20.0020002,5ce740c8636a5b0018f55968,64d2fd46c836a06233681665,64dc7da45c5711870ec86cfd,,,,,,,decisionTrl,resources/DP.BMP,resources/DY.BMP,Door1,-0.17875,-0.00375,1,0,0,1.556,optionLeft,30,7610,4,3,0,3,0,1,,,,,,,,,,,,,,,,,,,,,,,,,,,,,,,,,,,,,,,
,,,,,,,,2023-08-16_08h42.01.988,HF_wild_card,2022.2.4,Win32,20.0020002,5ce740c8636a5b0018f55968,64d2fd46c836a06233681665,64dc7da45c5711870ec86cfd,,,,,,,decisionTrl,resources/DY.BMP,resources/DP.BMP,Door2,-0.1625,-0.00875,1,0,0,1.415,optionLeft,20,7630,4,4,0,4,0,1,,,,,,,,,,,,,,,,,,,,,,,,,,,,,,,,,,,,,,,
,,,,,,,,2023-08-16_08h42.01.988,HF_wild_card,2022.2.4,Win32,20.0020002,5ce740c8636a5b0018f55968,64d2fd46c836a06233681665,64dc7da45c5711870ec86cfd,,,,,,,ctch,resources/DY.BMP,resources/DR.BMP,Door3,0.18875,0.00125,1,0,0,1.134,optionRight,70,7700,4,5,0,5,0,1,,,,,,,,,,,,,,,,,,,,,,,,,,,,,,,,,,,,,,,
,,,,,,,,2023-08-16_08h42.01.988,HF_wild_card,2022.2.4,Win32,20.0020002,5ce740c8636a5b0018f55968,64d2fd46c836a06233681665,64dc7da45c5711870ec86cfd,,,,,,,sngl,resources/Empty.png,resources/DY.BMP,Door2,0.19625,0.0075,1,0,0,1.146,optionRight,40,7740,4,6,0,6,0,1,,,,,,,,,,,,,,,,,,,,,,,,,,,,,,,,,,,,,,,
,,,,,,,,2023-08-16_08h42.01.988,HF_wild_card,2022.2.4,Win32,20.0020002,5ce740c8636a5b0018f55968,64d2fd46c836a06233681665,64dc7da45c5711870ec86cfd,,,,,,,decisionTrl,resources/DP.BMP,resources/DY.BMP,Door2,0.23375,-0.0125,1,0,0,1.895,optionRight,20,7760,4,7,0,7,0,1,,,,,,,,,,,,,,,,,,,,,,,,,,,,,,,,,,,,,,,
,,,,,,,,2023-08-16_08h42.01.988,HF_wild_card,2022.2.4,Win32,20.0020002,5ce740c8636a5b0018f55968,64d2fd46c836a06233681665,64dc7da45c5711870ec86cfd,,,,,,,decisionTrl,resources/DB.BMP,resources/DR.BMP,Door3,0.20875,0.0175,1,0,0,1.13,optionRight,70,7830,4,8,0,8,0,1,,,,,,,,,,,,,,,,,,,,,,,,,,,,,,,,,,,,,,,
,,,,,,,,2023-08-16_08h42.01.988,HF_wild_card,2022.2.4,Win32,20.0020002,5ce740c8636a5b0018f55968,64d2fd46c836a06233681665,64dc7da45c5711870ec86cfd,,,,,,,sngl,resources/Empty.png,resources/DBN.BMP,WildCard_NonEx,0.26,0.01125,1,0,0,1.218,optionRight,55,7885,4,9,0,9,0,1,,,,,,,,,,,,,,,,,,,,,,,,,,,,,,,,,,,,,,,
,,,,,,,,2023-08-16_08h42.01.988,HF_wild_card,2022.2.4,Win32,20.0020002,5ce740c8636a5b0018f55968,64d2fd46c836a06233681665,64dc7da45c5711870ec86cfd,,,,,,,decisionTrl,resources/DBN.BMP,resources/DR.BMP,WildCard_NonEx,-0.16875,0.01625,1,0,0,1.252,optionLeft,55,7940,4,10,0,10,0,1,,,,,,,,,,,,,,,,,,,,,,,,,,,,,,,,,,,,,,,
,,,,,,,,2023-08-16_08h42.01.988,HF_wild_card,2022.2.4,Win32,20.0020002,5ce740c8636a5b0018f55968,64d2fd46c836a06233681665,64dc7da45c5711870ec86cfd,,,,,,,ctch,resources/DR.BMP,resources/DY.BMP,Door3,-0.1825,-0.00125,1,0,0,1.163,optionLeft,70,8010,4,11,0,11,0,1,,,,,,,,,,,,,,,,,,,,,,,,,,,,,,,,,,,,,,,
,,,,,,,,2023-08-16_08h42.01.988,HF_wild_card,2022.2.4,Win32,20.0020002,5ce740c8636a5b0018f55968,64d2fd46c836a06233681665,64dc7da45c5711870ec86cfd,,,,,,,ctch,resources/DB.BMP,resources/DP.BMP,Door4,-0.15625,0.005,1,0,0,1.415,optionLeft,60,8070,4,12,0,12,0,1,,,,,,,,,,,,,,,,,,,,,,,,,,,,,,,,,,,,,,,
,,,,,,,,2023-08-16_08h42.01.988,HF_wild_card,2022.2.4,Win32,20.0020002,5ce740c8636a5b0018f55968,64d2fd46c836a06233681665,64dc7da45c5711870ec86cfd,,,,,,,decisionTrl,resources/DR.BMP,resources/DB.BMP,Door3,-0.16625,-0.005,1,0,0,1.948,optionLeft,70,8140,4,13,0,13,0,1,,,,,,,,,,,,,,,,,,,,,,,,,,,,,,,,,,,,,,,
,,,,,,,,2023-08-16_08h42.01.988,HF_wild_card,2022.2.4,Win32,20.0020002,5ce740c8636a5b0018f55968,64d2fd46c836a06233681665,64dc7da45c5711870ec86cfd,,,,,,,decisionTrl,resources/DB.BMP,resources/DR.BMP,Door4,-0.1825,-0.0075,1,0,0,1.319,optionLeft,80,8220,4,14,0,14,0,1,,,,,,,,,,,,,,,,,,,,,,,,,,,,,,,,,,,,,,,
,,,,,,,,2023-08-16_08h42.01.988,HF_wild_card,2022.2.4,Win32,20.0020002,5ce740c8636a5b0018f55968,64d2fd46c836a06233681665,64dc7da45c5711870ec86cfd,,,,,,,decisionTrl,resources/DBN.BMP,resources/DB.BMP,Door4,0.12875,-0.005,1,0,0,1.668,optionRight,80,8300,4,15,0,15,0,1,,,,,,,,,,,,,,,,,,,,,,,,,,,,,,,,,,,,,,,
,,,,,,,,2023-08-16_08h42.01.988,HF_wild_card,2022.2.4,Win32,20.0020002,5ce740c8636a5b0018f55968,64d2fd46c836a06233681665,64dc7da45c5711870ec86cfd,,,,,,,decisionTrl,resources/DB.BMP,resources/DR.BMP,Door3,0.26875,0.01,1,0,0,1.431,optionRight,70,8370,4,16,0,16,0,1,,,,,,,,,,,,,,,,,,,,,,,,,,,,,,,,,,,,,,,
,,,,,,,,2023-08-16_08h42.01.988,HF_wild_card,2022.2.4,Win32,20.0020002,5ce740c8636a5b0018f55968,64d2fd46c836a06233681665,64dc7da45c5711870ec86cfd,,,,,,,decisionTrl,resources/DY.BMP,resources/DP.BMP,Door2,-0.15625,0.005,1,0,0,1.691,optionLeft,20,8390,4,17,0,17,0,1,,,,,,,,,,,,,,,,,,,,,,,,,,,,,,,,,,,,,,,
,,,,,,,,2023-08-16_08h42.01.988,HF_wild_card,2022.2.4,Win32,20.0020002,5ce740c8636a5b0018f55968,64d2fd46c836a06233681665,64dc7da45c5711870ec86cfd,,,,,,,sngl,resources/DBN.BMP,resources/Empty.png,WildCard_NonEx,-0.255,0.0175,1,0,0,1.146,optionLeft,45,8435,4,18,0,18,0,1,,,,,,,,,,,,,,,,,,,,,,,,,,,,,,,,,,,,,,,
,,,,,,,,2023-08-16_08h42.01.988,HF_wild_card,2022.2.4,Win32,20.0020002,5ce740c8636a5b0018f55968,64d2fd46c836a06233681665,64dc7da45c5711870ec86cfd,,,,,,,decisionTrl,resources/DY.BMP,resources/DBN.BMP,WildCard_NonEx,0.1525,0.0075,1,0,0,2.278,optionRight,55,8490,4,19,0,19,0,1,,,,,,,,,,,,,,,,,,,,,,,,,,,,,,,,,,,,,,,
,,,,,,,,2023-08-16_08h42.01.988,HF_wild_card,2022.2.4,Win32,20.0020002,5ce740c8636a5b0018f55968,64d2fd46c836a06233681665,64dc7da45c5711870ec86cfd,,,,,,,sngl,resources/Empty.png,resources/DP.BMP,Door1,0.1825,-0.00875,1,0,0,1.07,optionRight,30,8520,4,20,0,20,0,1,,,,,,,,,,,,,,,,,,,,,,,,,,,,,,,,,,,,,,,
,,,,,,,,2023-08-16_08h42.01.988,HF_wild_card,2022.2.4,Win32,20.0020002,5ce740c8636a5b0018f55968,64d2fd46c836a06233681665,64dc7da45c5711870ec86cfd,,,,,,,decisionTrl,resources/DR.BMP,resources/DB.BMP,Door3,-0.1875,0.00375,1,0,0,1.269,optionLeft,70,8590,4,21,0,21,0,1,,,,,,,,,,,,,,,,,,,,,,,,,,,,,,,,,,,,,,,
,,,,,,,,2023-08-16_08h42.01.988,HF_wild_card,2022.2.4,Win32,20.0020002,5ce740c8636a5b0018f55968,64d2fd46c836a06233681665,64dc7da45c5711870ec86cfd,,,,,,,decisionTrl,resources/DR.BMP,resources/DBN.BMP,WildCard_NonEx,0.20625,0.0175,1,0,0,1.32,optionRight,55,8645,4,22,0,22,0,1,,,,,,,,,,,,,,,,,,,,,,,,,,,,,,,,,,,,,,,
,,,,,,,,2023-08-16_08h42.01.988,HF_wild_card,2022.2.4,Win32,20.0020002,5ce740c8636a5b0018f55968,64d2fd46c836a06233681665,64dc7da45c5711870ec86cfd,,,,,,,sngl,resources/DR.BMP,resources/Empty.png,Door3,-0.145,0.025,1,0,0,0.972,optionLeft,70,8715,4,23,0,23,0,1,,,,,,,,,,,,,,,,,,,,,,,,,,,,,,,,,,,,,,,
,,,,,,,,2023-08-16_08h42.01.988,HF_wild_card,2022.2.4,Win32,20.0020002,5ce740c8636a5b0018f55968,64d2fd46c836a06233681665,64dc7da45c5711870ec86cfd,,,,,,,decisionTrl,resources/DBN.BMP,resources/DY.BMP,WildCard_NonEx,-0.19625,0.0075,1,0,0,2.511,optionLeft,55,8770,4,24,0,24,0,1,,,,,,,,,,,,,,,,,,,,,,,,,,,,,,,,,,,,,,,
,,,,,,,,2023-08-16_08h42.01.988,HF_wild_card,2022.2.4,Win32,20.0020002,5ce740c8636a5b0018f55968,64d2fd46c836a06233681665,64dc7da45c5711870ec86cfd,,,,,,,sngl,resources/DBN.BMP,resources/Empty.png,WildCard_NonEx,-0.18,0.00875,1,0,0,1.279,optionLeft,55,8825,4,25,0,25,0,1,,,,,,,,,,,,,,,,,,,,,,,,,,,,,,,,,,,,,,,
,,,,,,,,2023-08-16_08h42.01.988,HF_wild_card,2022.2.4,Win32,20.0020002,5ce740c8636a5b0018f55968,64d2fd46c836a06233681665,64dc7da45c5711870ec86cfd,,,,,,,ctch,resources/DB.BMP,resources/DP.BMP,Door4,-0.1675,-0.005,1,0,0,1.323,optionLeft,60,8885,4,26,0,26,0,1,,,,,,,,,,,,,,,,,,,,,,,,,,,,,,,,,,,,,,,
,,,,,,,,2023-08-16_08h42.01.988,HF_wild_card,2022.2.4,Win32,20.0020002,5ce740c8636a5b0018f55968,64d2fd46c836a06233681665,64dc7da45c5711870ec86cfd,,,,,,,decisionTrl,resources/DB.BMP,resources/DR.BMP,Door3,0.165,-0.0025,1,0,0,1.1,optionRight,70,8955,4,27,0,27,0,1,,,,,,,,,,,,,,,,,,,,,,,,,,,,,,,,,,,,,,,
,,,,,,,,2023-08-16_08h42.01.988,HF_wild_card,2022.2.4,Win32,20.0020002,5ce740c8636a5b0018f55968,64d2fd46c836a06233681665,64dc7da45c5711870ec86cfd,,,,,,,decisionTrl,resources/DB.BMP,resources/DBN.BMP,Door4,-0.155,-0.0075,1,0,0,1.227,optionLeft,80,9035,4,28,0,28,0,1,,,,,,,,,,,,,,,,,,,,,,,,,,,,,,,,,,,,,,,
,,,,,,,,2023-08-16_08h42.01.988,HF_wild_card,2022.2.4,Win32,20.0020002,5ce740c8636a5b0018f55968,64d2fd46c836a06233681665,64dc7da45c5711870ec86cfd,,,,,,,sngl,resources/DY.BMP,resources/Empty.png,Door2,-0.185,0.00875,1,0,0,1.135,optionLeft,20,9055,4,29,0,29,0,1,,,,,,,,,,,,,,,,,,,,,,,,,,,,,,,,,,,,,,,
,,,,,,,,2023-08-16_08h42.01.988,HF_wild_card,2022.2.4,Win32,20.0020002,5ce740c8636a5b0018f55968,64d2fd46c836a06233681665,64dc7da45c5711870ec86cfd,,,,,,,sngl,resources/DB.BMP,resources/Empty.png,Door4,-0.1775,0.0175,1,0,0,1.034,optionLeft,60,9115,4,30,0,30,0,1,,,,,,,,,,,,,,,,,,,,,,,,,,,,,,,,,,,,,,,
,,,,,,,,2023-08-16_08h42.01.988,HF_wild_card,2022.2.4,Win32,20.0020002,5ce740c8636a5b0018f55968,64d2fd46c836a06233681665,64dc7da45c5711870ec86cfd,,,,,,,sngl,resources/Empty.png,resources/DB.BMP,Door4,0.14375,-0.0025,1,0,0,1.011,optionRight,80,9195,4,31,0,31,0,1,,,,,,,,,,,,,,,,,,,,,,,,,,,,,,,,,,,,,,,
,,,,,,,,2023-08-16_08h42.01.988,HF_wild_card,2022.2.4,Win32,20.0020002,5ce740c8636a5b0018f55968,64d2fd46c836a06233681665,64dc7da45c5711870ec86cfd,,,,,,,decisionTrl,resources/DP.BMP,resources/DY.BMP,Door1,-0.15125,0.01875,1,0,0,1.842,optionLeft,30,9225,4,32,0,32,0,1,,,,,,,,,,,,,,,,,,,,,,,,,,,,,,,,,,,,,,,
,,,,,,,,2023-08-16_08h42.01.988,HF_wild_card,2022.2.4,Win32,20.0020002,5ce740c8636a5b0018f55968,64d2fd46c836a06233681665,64dc7da45c5711870ec86cfd,,,,,,,ctch,resources/DY.BMP,resources/DR.BMP,Door3,0.14875,0.00875,1,0,0,1.368,optionRight,70,9295,4,33,0,33,0,1,,,,,,,,,,,,,,,,,,,,,,,,,,,,,,,,,,,,,,,
,,,,,,,,2023-08-16_08h42.01.988,HF_wild_card,2022.2.4,Win32,20.0020002,5ce740c8636a5b0018f55968,64d2fd46c836a06233681665,64dc7da45c5711870ec86cfd,,,,,,,decisionTrl,resources/DBN.BMP,resources/DP.BMP,WildCard_NonEx,-0.1725,0.00375,1,0,0,2.129,optionLeft,45,9340,4,34,0,34,0,1,,,,,,,,,,,,,,,,,,,,,,,,,,,,,,,,,,,,,,,
,,,,,,,,2023-08-16_08h42.01.988,HF_wild_card,2022.2.4,Win32,20.0020002,5ce740c8636a5b0018f55968,64d2fd46c836a06233681665,64dc7da45c5711870ec86cfd,,,,,,,decisionTrl,resources/DP.BMP,resources/DY.BMP,Door1,-0.125,0.01375,1,0,0,2.518,optionLeft,30,9370,4,35,0,35,0,1,,,,,,,,,,,,,,,,,,,,,,,,,,,,,,,,,,,,,,,
,,,,,,,,2023-08-16_08h42.01.988,HF_wild_card,2022.2.4,Win32,20.0020002,5ce740c8636a5b0018f55968,64d2fd46c836a06233681665,64dc7da45c5711870ec86cfd,,,,,,,sngl,resources/DP.BMP,resources/Empty.png,Door1,-0.1775,0.0075,1,0,0,1.062,optionLeft,30,9400,4,36,0,36,0,1,,,,,,,,,,,,,,,,,,,,,,,,,,,,,,,,,,,,,,,
,,,,,,,,2023-08-16_08h42.01.988,HF_wild_card,2022.2.4,Win32,20.0020002,5ce740c8636a5b0018f55968,64d2fd46c836a06233681665,64dc7da45c5711870ec86cfd,,,,,,,ctch,resources/DP.BMP,resources/DB.BMP,Door4,0.2475,-0.00375,1,0,0,1.229,optionRight,80,9480,4,37,0,37,0,1,,,,,,,,,,,,,,,,,,,,,,,,,,,,,,,,,,,,,,,
,,,,,,,,2023-08-16_08h42.01.988,HF_wild_card,2022.2.4,Win32,20.0020002,5ce740c8636a5b0018f55968,64d2fd46c836a06233681665,64dc7da45c5711870ec86cfd,,,,,,,sngl,resources/Empty.png,resources/DBN.BMP,WildCard_NonEx,0.2125,0.015,1,0,0,1.161,optionRight,45,9525,4,38,0,38,0,1,,,,,,,,,,,,,,,,,,,,,,,,,,,,,,,,,,,,,,,
,,,,,,,,2023-08-16_08h42.01.988,HF_wild_card,2022.2.4,Win32,20.0020002,5ce740c8636a5b0018f55968,64d2fd46c836a06233681665,64dc7da45c5711870ec86cfd,,,,,,,decisionTrl,resources/DR.BMP,resources/DB.BMP,Door3,-0.2525,-0.02,1,0,0,1.94,optionLeft,70,9595,4,39,0,39,0,1,,,,,,,,,,,,,,,,,,,,,,,,,,,,,,,,,,,,,,,
,,,,,,,,2023-08-16_08h42.01.988,HF_wild_card,2022.2.4,Win32,20.0020002,5ce740c8636a5b0018f55968,64d2fd46c836a06233681665,64dc7da45c5711870ec86cfd,,,,,,,ctch,resources/DP.BMP,resources/DB.BMP,Door4,0.205,-0.015,1,0,0,1.345,optionRight,80,9675,4,40,0,40,0,1,,,,,,,,,,,,,,,,,,,,,,,,,,,,,,,,,,,,,,,
,,,,,,,,2023-08-16_08h42.01.988,HF_wild_card,2022.2.4,Win32,20.0020002,5ce740c8636a5b0018f55968,64d2fd46c836a06233681665,64dc7da45c5711870ec86cfd,,,,,,,decisionTrl,resources/DY.BMP,resources/DP.BMP,Door1,0.175,0.00625,1,0,0,1.795,optionRight,30,9705,4,41,0,41,0,1,,,,,,,,,,,,,,,,,,,,,,,,,,,,,,,,,,,,,,,
,,,,,,,,2023-08-16_08h42.01.988,HF_wild_card,2022.2.4,Win32,20.0020002,5ce740c8636a5b0018f55968,64d2fd46c836a06233681665,64dc7da45c5711870ec86cfd,,,,,,,sngl,resources/Empty.png,resources/DR.BMP,Door3,0.215,0.00125,1,0,0,1.025,optionRight,70,9775,4,42,0,42,0,1,,,,,,,,,,,,,,,,,,,,,,,,,,,,,,,,,,,,,,,
,,,,,,,,2023-08-16_08h42.01.988,HF_wild_card,2022.2.4,Win32,20.0020002,5ce740c8636a5b0018f55968,64d2fd46c836a06233681665,64dc7da45c5711870ec86cfd,,,,,,,ctch,resources/DR.BMP,resources/DY.BMP,Door3,-0.17125,0.01875,1,0,0,1.035,optionLeft,70,9845,4,43,0,43,0,1,,,,,,,,,,,,,,,,,,,,,,,,,,,,,,,,,,,,,,,
,,,,,,,,2023-08-16_08h42.01.988,HF_wild_card,2022.2.4,Win32,20.0020002,5ce740c8636a5b0018f55968,64d2fd46c836a06233681665,64dc7da45c5711870ec86cfd,,,,,,,,,,,,,,,,,,,,,,,,,,3,0,3,0,1,,,,,,,,,,,,,,,,,,,,,,,,,,,,,,,,,,
,,,,,,,,2023-08-16_08h42.01.988,HF_wild_card,2022.2.4,Win32,20.0020002,5ce740c8636a5b0018f55968,64d2fd46c836a06233681665,64dc7da45c5711870ec86cfd,,,,,,,decisionTrl,resources/DY.BMP,resources/DP.BMP,Door1,0.15875,-0.1275,1,0,0,1.786,optionRight,30,9875,5,0,0,0,0,1,,,,,,,,,,,,,,,,,,,,,,,,,,,,,,,,,,,,,,,
,,,,,,,,2023-08-16_08h42.01.988,HF_wild_card,2022.2.4,Win32,20.0020002,5ce740c8636a5b0018f55968,64d2fd46c836a06233681665,64dc7da45c5711870ec86cfd,,,,,,,decisionTrl,resources/DR.BMP,resources/DB.BMP,Door4,0.16,0.0125,1,0,0,1.869,optionRight,80,9955,5,1,0,1,0,1,,,,,,,,,,,,,,,,,,,,,,,,,,,,,,,,,,,,,,,
,,,,,,,,2023-08-16_08h42.01.988,HF_wild_card,2022.2.4,Win32,20.0020002,5ce740c8636a5b0018f55968,64d2fd46c836a06233681665,64dc7da45c5711870ec86cfd,,,,,,,decisionTrl,resources/DP.BMP,resources/DY.BMP,Door1,-0.15125,-0.00125,1,0,0,1.114,optionLeft,30,9985,5,2,0,2,0,1,,,,,,,,,,,,,,,,,,,,,,,,,,,,,,,,,,,,,,,
,,,,,,,,2023-08-16_08h42.01.988,HF_wild_card,2022.2.4,Win32,20.0020002,5ce740c8636a5b0018f55968,64d2fd46c836a06233681665,64dc7da45c5711870ec86cfd,,,,,,,decisionTrl,resources/DY.BMP,resources/DP.BMP,Door1,0.29875,0.00375,1,0,0,1.197,optionRight,30,10015,5,3,0,3,0,1,,,,,,,,,,,,,,,,,,,,,,,,,,,,,,,,,,,,,,,
,,,,,,,,2023-08-16_08h42.01.988,HF_wild_card,2022.2.4,Win32,20.0020002,5ce740c8636a5b0018f55968,64d2fd46c836a06233681665,64dc7da45c5711870ec86cfd,,,,,,,decisionTrl,resources/DB.BMP,resources/DR.BMP,Door4,-0.20625,-0.01,1,0,0,1.131,optionLeft,80,10095,5,4,0,4,0,1,,,,,,,,,,,,,,,,,,,,,,,,,,,,,,,,,,,,,,,
,,,,,,,,2023-08-16_08h42.01.988,HF_wild_card,2022.2.4,Win32,20.0020002,5ce740c8636a5b0018f55968,64d2fd46c836a06233681665,64dc7da45c5711870ec86cfd,,,,,,,sngl,resources/Empty.png,resources/DBN.BMP,WildCard_NonEx,0.21875,-0.01875,1,0,0,0.978,optionRight,45,10140,5,5,0,5,0,1,,,,,,,,,,,,,,,,,,,,,,,,,,,,,,,,,,,,,,,
,,,,,,,,2023-08-16_08h42.01.988,HF_wild_card,2022.2.4,Win32,20.0020002,5ce740c8636a5b0018f55968,64d2fd46c836a06233681665,64dc7da45c5711870ec86cfd,,,,,,,sngl,resources/DR.BMP,resources/Empty.png,Door3,-0.17875,0.01875,1,0,0,1.147,optionLeft,70,10210,5,6,0,6,0,1,,,,,,,,,,,,,,,,,,,,,,,,,,,,,,,,,,,,,,,
,,,,,,,,2023-08-16_08h42.01.988,HF_wild_card,2022.2.4,Win32,20.0020002,5ce740c8636a5b0018f55968,64d2fd46c836a06233681665,64dc7da45c5711870ec86cfd,,,,,,,sngl,resources/DP.BMP,resources/Empty.png,Door1,-0.155,-0.0025,1,0,0,1.142,optionLeft,30,10240,5,7,0,7,0,1,,,,,,,,,,,,,,,,,,,,,,,,,,,,,,,,,,,,,,,
,,,,,,,,2023-08-16_08h42.01.988,HF_wild_card,2022.2.4,Win32,20.0020002,5ce740c8636a5b0018f55968,64d2fd46c836a06233681665,64dc7da45c5711870ec86cfd,,,,,,,sngl,resources/Empty.png,resources/DB.BMP,Door4,0.22,-0.01,1,0,0,1.02,optionRight,60,10300,5,8,0,8,0,1,,,,,,,,,,,,,,,,,,,,,,,,,,,,,,,,,,,,,,,
,,,,,,,,2023-08-16_08h42.01.988,HF_wild_card,2022.2.4,Win32,20.0020002,5ce740c8636a5b0018f55968,64d2fd46c836a06233681665,64dc7da45c5711870ec86cfd,,,,,,,decisionTrl,resources/DB.BMP,resources/DR.BMP,Door3,0.16,0.01875,1,0,0,1.218,optionRight,70,10370,5,9,0,9,0,1,,,,,,,,,,,,,,,,,,,,,,,,,,,,,,,,,,,,,,,
,,,,,,,,2023-08-16_08h42.01.988,HF_wild_card,2022.2.4,Win32,20.0020002,5ce740c8636a5b0018f55968,64d2fd46c836a06233681665,64dc7da45c5711870ec86cfd,,,,,,,sngl,resources/Empty.png,resources/DY.BMP,Door2,0.13375,0.00125,1,0,0,1.02,optionRight,20,10390,5,10,0,10,0,1,,,,,,,,,,,,,,,,,,,,,,,,,,,,,,,,,,,,,,,
,,,,,,,,2023-08-16_08h42.01.988,HF_wild_card,2022.2.4,Win32,20.0020002,5ce740c8636a5b0018f55968,64d2fd46c836a06233681665,64dc7da45c5711870ec86cfd,,,,,,,sngl,resources/DBN.BMP,resources/Empty.png,WildCard_NonEx,-0.2025,0.01875,1,0,0,1.061,optionLeft,55,10445,5,11,0,11,0,1,,,,,,,,,,,,,,,,,,,,,,,,,,,,,,,,,,,,,,,
,,,,,,,,2023-08-16_08h42.01.988,HF_wild_card,2022.2.4,Win32,20.0020002,5ce740c8636a5b0018f55968,64d2fd46c836a06233681665,64dc7da45c5711870ec86cfd,,,,,,,decisionTrl,resources/DB.BMP,resources/DR.BMP,Door4,-0.18125,0.01375,1,0,0,2.228,optionLeft,60,10505,5,12,0,12,0,1,,,,,,,,,,,,,,,,,,,,,,,,,,,,,,,,,,,,,,,
,,,,,,,,2023-08-16_08h42.01.988,HF_wild_card,2022.2.4,Win32,20.0020002,5ce740c8636a5b0018f55968,64d2fd46c836a06233681665,64dc7da45c5711870ec86cfd,,,,,,,ctch,resources/DB.BMP,resources/DP.BMP,Door4,-0.12,0.0075,1,0,0,1.296,optionLeft,60,10565,5,13,0,13,0,1,,,,,,,,,,,,,,,,,,,,,,,,,,,,,,,,,,,,,,,
,,,,,,,,2023-08-16_08h42.01.988,HF_wild_card,2022.2.4,Win32,20.0020002,5ce740c8636a5b0018f55968,64d2fd46c836a06233681665,64dc7da45c5711870ec86cfd,,,,,,,decisionTrl,resources/DY.BMP,resources/DP.BMP,Door1,0.1425,0.01125,1,0,0,1.649,optionRight,30,10595,5,14,0,14,0,1,,,,,,,,,,,,,,,,,,,,,,,,,,,,,,,,,,,,,,,
,,,,,,,,2023-08-16_08h42.01.988,HF_wild_card,2022.2.4,Win32,20.0020002,5ce740c8636a5b0018f55968,64d2fd46c836a06233681665,64dc7da45c5711870ec86cfd,,,,,,,decisionTrl,resources/DR.BMP,resources/DBN.BMP,Door3,-0.155,0.0125,1,0,0,1.864,optionLeft,70,10665,5,15,0,15,0,1,,,,,,,,,,,,,,,,,,,,,,,,,,,,,,,,,,,,,,,
,,,,,,,,2023-08-16_08h42.01.988,HF_wild_card,2022.2.4,Win32,20.0020002,5ce740c8636a5b0018f55968,64d2fd46c836a06233681665,64dc7da45c5711870ec86cfd,,,,,,,sngl,resources/DBN.BMP,resources/Empty.png,WildCard_NonEx,-0.19875,0.03875,1,0,0,1.078,optionLeft,45,10710,5,16,0,16,0,1,,,,,,,,,,,,,,,,,,,,,,,,,,,,,,,,,,,,,,,
,,,,,,,,2023-08-16_08h42.01.988,HF_wild_card,2022.2.4,Win32,20.0020002,5ce740c8636a5b0018f55968,64d2fd46c836a06233681665,64dc7da45c5711870ec86cfd,,,,,,,decisionTrl,resources/DR.BMP,resources/DB.BMP,Door3,-0.20375,0.02125,1,0,0,1.509,optionLeft,70,10780,5,17,0,17,0,1,,,,,,,,,,,,,,,,,,,,,,,,,,,,,,,,,,,,,,,
,,,,,,,,2023-08-16_08h42.01.988,HF_wild_card,2022.2.4,Win32,20.0020002,5ce740c8636a5b0018f55968,64d2fd46c836a06233681665,64dc7da45c5711870ec86cfd,,,,,,,ctch,resources/DY.BMP,resources/DR.BMP,Door3,0.2225,-0.01625,1,0,0,1.331,optionRight,70,10850,5,18,0,18,0,1,,,,,,,,,,,,,,,,,,,,,,,,,,,,,,,,,,,,,,,
,,,,,,,,2023-08-16_08h42.01.988,HF_wild_card,2022.2.4,Win32,20.0020002,5ce740c8636a5b0018f55968,64d2fd46c836a06233681665,64dc7da45c5711870ec86cfd,,,,,,,sngl,resources/Empty.png,resources/DR.BMP,Door3,0.20875,-0.00125,1,0,0,0.942,optionRight,70,10920,5,19,0,19,0,1,,,,,,,,,,,,,,,,,,,,,,,,,,,,,,,,,,,,,,,
,,,,,,,,2023-08-16_08h42.01.988,HF_wild_card,2022.2.4,Win32,20.0020002,5ce740c8636a5b0018f55968,64d2fd46c836a06233681665,64dc7da45c5711870ec86cfd,,,,,,,sngl,resources/DB.BMP,resources/Empty.png,Door4,-0.18,0.0125,1,0,0,1.022,optionLeft,80,11000,5,20,0,20,0,1,,,,,,,,,,,,,,,,,,,,,,,,,,,,,,,,,,,,,,,
,,,,,,,,2023-08-16_08h42.01.988,HF_wild_card,2022.2.4,Win32,20.0020002,5ce740c8636a5b0018f55968,64d2fd46c836a06233681665,64dc7da45c5711870ec86cfd,,,,,,,decisionTrl,resources/DY.BMP,resources/DP.BMP,Door2,-0.28,0.02375,1,0,0,1.738,optionLeft,40,11040,5,21,0,21,0,1,,,,,,,,,,,,,,,,,,,,,,,,,,,,,,,,,,,,,,,
,,,,,,,,2023-08-16_08h42.01.988,HF_wild_card,2022.2.4,Win32,20.0020002,5ce740c8636a5b0018f55968,64d2fd46c836a06233681665,64dc7da45c5711870ec86cfd,,,,,,,decisionTrl,resources/DBN.BMP,resources/DB.BMP,Door4,0.17875,0.00875,1,0,0,1.389,optionRight,80,11120,5,22,0,22,0,1,,,,,,,,,,,,,,,,,,,,,,,,,,,,,,,,,,,,,,,
,,,,,,,,2023-08-16_08h42.01.988,HF_wild_card,2022.2.4,Win32,20.0020002,5ce740c8636a5b0018f55968,64d2fd46c836a06233681665,64dc7da45c5711870ec86cfd,,,,,,,sngl,resources/Empty.png,resources/DP.BMP,Door1,0.16,-0.005,1,0,0,1.812,optionRight,30,11150,5,23,0,23,0,1,,,,,,,,,,,,,,,,,,,,,,,,,,,,,,,,,,,,,,,
,,,,,,,,2023-08-16_08h42.01.988,HF_wild_card,2022.2.4,Win32,20.0020002,5ce740c8636a5b0018f55968,64d2fd46c836a06233681665,64dc7da45c5711870ec86cfd,,,,,,,decisionTrl,resources/DBN.BMP,resources/DP.BMP,WildCard_NonEx,-0.19,-0.00125,1,0,0,1.687,optionLeft,55,11205,5,24,0,24,0,1,,,,,,,,,,,,,,,,,,,,,,,,,,,,,,,,,,,,,,,
,,,,,,,,2023-08-16_08h42.01.988,HF_wild_card,2022.2.4,Win32,20.0020002,5ce740c8636a5b0018f55968,64d2fd46c836a06233681665,64dc7da45c5711870ec86cfd,,,,,,,decisionTrl,resources/DP.BMP,resources/DY.BMP,Door1,-0.155,0.01625,1,0,0,2.298,optionLeft,30,11235,5,25,0,25,0,1,,,,,,,,,,,,,,,,,,,,,,,,,,,,,,,,,,,,,,,
,,,,,,,,2023-08-16_08h42.01.988,HF_wild_card,2022.2.4,Win32,20.0020002,5ce740c8636a5b0018f55968,64d2fd46c836a06233681665,64dc7da45c5711870ec86cfd,,,,,,,sngl,resources/Empty.png,resources/DBN.BMP,WildCard_NonEx,0.12125,0.00375,1,0,0,0.964,optionRight,55,11290,5,26,0,26,0,1,,,,,,,,,,,,,,,,,,,,,,,,,,,,,,,,,,,,,,,
,,,,,,,,2023-08-16_08h42.01.988,HF_wild_card,2022.2.4,Win32,20.0020002,5ce740c8636a5b0018f55968,64d2fd46c836a06233681665,64dc7da45c5711870ec86cfd,,,,,,,decisionTrl,resources/DP.BMP,resources/DY.BMP,Door2,0.21625,-0.00375,1,0,0,1.931,optionRight,20,11310,5,27,0,27,0,1,,,,,,,,,,,,,,,,,,,,,,,,,,,,,,,,,,,,,,,
,,,,,,,,2023-08-16_08h42.01.988,HF_wild_card,2022.2.4,Win32,20.0020002,5ce740c8636a5b0018f55968,64d2fd46c836a06233681665,64dc7da45c5711870ec86cfd,,,,,,,decisionTrl,resources/DBN.BMP,resources/DR.BMP,Door3,0.22375,0,1,0,0,1.143,optionRight,70,11380,5,28,0,28,0,1,,,,,,,,,,,,,,,,,,,,,,,,,,,,,,,,,,,,,,,
,,,,,,,,2023-08-16_08h42.01.988,HF_wild_card,2022.2.4,Win32,20.0020002,5ce740c8636a5b0018f55968,64d2fd46c836a06233681665,64dc7da45c5711870ec86cfd,,,,,,,ctch,resources/DR.BMP,resources/DY.BMP,Door3,-0.16,0.005,1,0,0,1.451,optionLeft,70,11450,5,29,0,29,0,1,,,,,,,,,,,,,,,,,,,,,,,,,,,,,,,,,,,,,,,
,,,,,,,,2023-08-16_08h42.01.988,HF_wild_card,2022.2.4,Win32,20.0020002,5ce740c8636a5b0018f55968,64d2fd46c836a06233681665,64dc7da45c5711870ec86cfd,,,,,,,sngl,resources/DY.BMP,resources/Empty.png,Door2,-0.1825,0.00875,1,0,0,1.195,optionLeft,40,11490,5,30,0,30,0,1,,,,,,,,,,,,,,,,,,,,,,,,,,,,,,,,,,,,,,,
,,,,,,,,2023-08-16_08h42.01.988,HF_wild_card,2022.2.4,Win32,20.0020002,5ce740c8636a5b0018f55968,64d2fd46c836a06233681665,64dc7da45c5711870ec86cfd,,,,,,,ctch,resources/DB.BMP,resources/DP.BMP,Door4,-0.14875,0.02,1,0,0,1.406,optionLeft,60,11550,5,31,0,31,0,1,,,,,,,,,,,,,,,,,,,,,,,,,,,,,,,,,,,,,,,
,,,,,,,,2023-08-16_08h42.01.988,HF_wild_card,2022.2.4,Win32,20.0020002,5ce740c8636a5b0018f55968,64d2fd46c836a06233681665,64dc7da45c5711870ec86cfd,,,,,,,decisionTrl,resources/DB.BMP,resources/DR.BMP,Door3,0.18125,0.0025,1,0,0,1.157,optionRight,70,11620,5,32,0,32,0,1,,,,,,,,,,,,,,,,,,,,,,,,,,,,,,,,,,,,,,,
,,,,,,,,2023-08-16_08h42.01.988,HF_wild_card,2022.2.4,Win32,20.0020002,5ce740c8636a5b0018f55968,64d2fd46c836a06233681665,64dc7da45c5711870ec86cfd,,,,,,,decisionTrl,resources/DY.BMP,resources/DBN.BMP,WildCard_NonEx,0.1575,0.01125,1,0,0,1.761,optionRight,55,11675,5,33,0,33,0,1,,,,,,,,,,,,,,,,,,,,,,,,,,,,,,,,,,,,,,,
,,,,,,,,2023-08-16_08h42.01.988,HF_wild_card,2022.2.4,Win32,20.0020002,5ce740c8636a5b0018f55968,64d2fd46c836a06233681665,64dc7da45c5711870ec86cfd,,,,,,,decisionTrl,resources/DR.BMP,resources/DB.BMP,Door3,-0.195,-0.0225,1,0,0,1.53,optionLeft,70,11745,5,34,0,34,0,1,,,,,,,,,,,,,,,,,,,,,,,,,,,,,,,,,,,,,,,
,,,,,,,,2023-08-16_08h42.01.988,HF_wild_card,2022.2.4,Win32,20.0020002,5ce740c8636a5b0018f55968,64d2fd46c836a06233681665,64dc7da45c5711870ec86cfd,,,,,,,decisionTrl,resources/DR.BMP,resources/DB.BMP,Door3,-0.1525,0.01125,1,0,0,1.129,optionLeft,70,11815,5,35,0,35,0,1,,,,,,,,,,,,,,,,,,,,,,,,,,,,,,,,,,,,,,,
,,,,,,,,2023-08-16_08h42.01.988,HF_wild_card,2022.2.4,Win32,20.0020002,5ce740c8636a5b0018f55968,64d2fd46c836a06233681665,64dc7da45c5711870ec86cfd,,,,,,,decisionTrl,resources/DB.BMP,resources/DBN.BMP,Door4,-0.20125,0.0325,1,0,0,1.194,optionLeft,60,11875,5,36,0,36,0,1,,,,,,,,,,,,,,,,,,,,,,,,,,,,,,,,,,,,,,,
,,,,,,,,2023-08-16_08h42.01.988,HF_wild_card,2022.2.4,Win32,20.0020002,5ce740c8636a5b0018f55968,64d2fd46c836a06233681665,64dc7da45c5711870ec86cfd,,,,,,,decisionTrl,resources/DP.BMP,resources/DBN.BMP,Door1,-0.1725,0.015,1,0,0,1.207,optionLeft,30,11905,5,37,0,37,0,1,,,,,,,,,,,,,,,,,,,,,,,,,,,,,,,,,,,,,,,
,,,,,,,,2023-08-16_08h42.01.988,HF_wild_card,2022.2.4,Win32,20.0020002,5ce740c8636a5b0018f55968,64d2fd46c836a06233681665,64dc7da45c5711870ec86cfd,,,,,,,ctch,resources/DR.BMP,resources/DY.BMP,Door3,-0.18,0.005,1,0,0,1.406,optionLeft,70,11975,5,38,0,38,0,1,,,,,,,,,,,,,,,,,,,,,,,,,,,,,,,,,,,,,,,
,,,,,,,,2023-08-16_08h42.01.988,HF_wild_card,2022.2.4,Win32,20.0020002,5ce740c8636a5b0018f55968,64d2fd46c836a06233681665,64dc7da45c5711870ec86cfd,,,,,,,decisionTrl,resources/DP.BMP,resources/DY.BMP,Door2,0.1125,0.0025,1,0,0,2.499,optionRight,20,11995,5,39,0,39,0,1,,,,,,,,,,,,,,,,,,,,,,,,,,,,,,,,,,,,,,,
,,,,,,,,2023-08-16_08h42.01.988,HF_wild_card,2022.2.4,Win32,20.0020002,5ce740c8636a5b0018f55968,64d2fd46c836a06233681665,64dc7da45c5711870ec86cfd,,,,,,,decisionTrl,resources/DBN.BMP,resources/DY.BMP,WildCard_NonEx,-0.19625,0.0025,1,0,0,1.273,optionLeft,45,12040,5,40,0,40,0,1,,,,,,,,,,,,,,,,,,,,,,,,,,,,,,,,,,,,,,,
,,,,,,,,2023-08-16_08h42.01.988,HF_wild_card,2022.2.4,Win32,20.0020002,5ce740c8636a5b0018f55968,64d2fd46c836a06233681665,64dc7da45c5711870ec86cfd,,,,,,,ctch,resources/DP.BMP,resources/DB.BMP,Door4,0.2225,-0.01,1,0,0,1.209,optionRight,80,12120,5,41,0,41,0,1,,,,,,,,,,,,,,,,,,,,,,,,,,,,,,,,,,,,,,,
,,,,,,,,2023-08-16_08h42.01.988,HF_wild_card,2022.2.4,Win32,20.0020002,5ce740c8636a5b0018f55968,64d2fd46c836a06233681665,64dc7da45c5711870ec86cfd,,,,,,,ctch,resources/DP.BMP,resources/DB.BMP,Door4,0.18625,0.01125,1,0,0,1.177,optionRight,60,12180,5,42,0,42,0,1,,,,,,,,,,,,,,,,,,,,,,,,,,,,,,,,,,,,,,,
,,,,,,,,2023-08-16_08h42.01.988,HF_wild_card,2022.2.4,Win32,20.0020002,5ce740c8636a5b0018f55968,64d2fd46c836a06233681665,64dc7da45c5711870ec86cfd,,,,,,,ctch,resources/DY.BMP,resources/DR.BMP,Door3,0.21625,-0.0025,1,0,0,1.109,optionRight,70,12250,5,43,0,43,0,1,,,,,,,,,,,,,,,,,,,,,,,,,,,,,,,,,,,,,,,
,,,,,,,,2023-08-16_08h42.01.988,HF_wild_card,2022.2.4,Win32,20.0020002,5ce740c8636a5b0018f55968,64d2fd46c836a06233681665,64dc7da45c5711870ec86cfd,,,,,,,,,,,,,,,,,,,,,,,,,,4,0,4,0,1,,,,,,,,,,,,,,,,,,,,,,,,,,,,,,,,,,
,,,,,,,,2023-08-16_08h42.01.988,HF_wild_card,2022.2.4,Win32,20.0020002,5ce740c8636a5b0018f55968,64d2fd46c836a06233681665,64dc7da45c5711870ec86cfd,,,,,,,decisionTrl,resources/DR.BMP,resources/DBN.BMP,Door3,-0.19625,-0.1275,1,0,0,1.296,optionLeft,70,12320,6,0,0,0,0,1,,,,,,,,,,,,,,,,,,,,,,,,,,,,,,,,,,,,,,,
,,,,,,,,2023-08-16_08h42.01.988,HF_wild_card,2022.2.4,Win32,20.0020002,5ce740c8636a5b0018f55968,64d2fd46c836a06233681665,64dc7da45c5711870ec86cfd,,,,,,,sngl,resources/Empty.png,resources/DP.BMP,Door1,0.16625,-0.00625,1,0,0,0.982,optionRight,30,12350,6,1,0,1,0,1,,,,,,,,,,,,,,,,,,,,,,,,,,,,,,,,,,,,,,,
,,,,,,,,2023-08-16_08h42.01.988,HF_wild_card,2022.2.4,Win32,20.0020002,5ce740c8636a5b0018f55968,64d2fd46c836a06233681665,64dc7da45c5711870ec86cfd,,,,,,,decisionTrl,resources/DP.BMP,resources/DY.BMP,Door1,-0.17875,0.005,1,0,0,1.535,optionLeft,30,12380,6,2,0,2,0,1,,,,,,,,,,,,,,,,,,,,,,,,,,,,,,,,,,,,,,,
,,,,,,,,2023-08-16_08h42.01.988,HF_wild_card,2022.2.4,Win32,20.0020002,5ce740c8636a5b0018f55968,64d2fd46c836a06233681665,64dc7da45c5711870ec86cfd,,,,,,,decisionTrl,resources/DY.BMP,resources/DBN.BMP,WildCard_NonEx,0.1375,0.0075,1,0,0,1.834,optionRight,55,12435,6,3,0,3,0,1,,,,,,,,,,,,,,,,,,,,,,,,,,,,,,,,,,,,,,,
,,,,,,,,2023-08-16_08h42.01.988,HF_wild_card,2022.2.4,Win32,20.0020002,5ce740c8636a5b0018f55968,64d2fd46c836a06233681665,64dc7da45c5711870ec86cfd,,,,,,,decisionTrl,resources/DB.BMP,resources/DR.BMP,Door3,0.2025,0.00375,1,0,0,1.158,optionRight,70,12505,6,4,0,4,0,1,,,,,,,,,,,,,,,,,,,,,,,,,,,,,,,,,,,,,,,
,,,,,,,,2023-08-16_08h42.01.988,HF_wild_card,2022.2.4,Win32,20.0020002,5ce740c8636a5b0018f55968,64d2fd46c836a06233681665,64dc7da45c5711870ec86cfd,,,,,,,ctch,resources/DP.BMP,resources/DB.BMP,Door4,0.19125,0.0075,1,0,0,0.989,optionRight,80,12585,6,5,0,5,0,1,,,,,,,,,,,,,,,,,,,,,,,,,,,,,,,,,,,,,,,
,,,,,,,,2023-08-16_08h42.01.988,HF_wild_card,2022.2.4,Win32,20.0020002,5ce740c8636a5b0018f55968,64d2fd46c836a06233681665,64dc7da45c5711870ec86cfd,,,,,,,sngl,resources/DBN.BMP,resources/Empty.png,WildCard_NonEx,-0.17625,0.0325,1,0,0,1.094,optionLeft,45,12630,6,6,0,6,0,1,,,,,,,,,,,,,,,,,,,,,,,,,,,,,,,,,,,,,,,
,,,,,,,,2023-08-16_08h42.01.988,HF_wild_card,2022.2.4,Win32,20.0020002,5ce740c8636a5b0018f55968,64d2fd46c836a06233681665,64dc7da45c5711870ec86cfd,,,,,,,ctch,resources/DY.BMP,resources/DR.BMP,Door3,0.24625,-0.005,1,0,0,1.212,optionRight,70,12700,6,7,0,7,0,1,,,,,,,,,,,,,,,,,,,,,,,,,,,,,,,,,,,,,,,
,,,,,,,,2023-08-16_08h42.01.988,HF_wild_card,2022.2.4,Win32,20.0020002,5ce740c8636a5b0018f55968,64d2fd46c836a06233681665,64dc7da45c5711870ec86cfd,,,,,,,decisionTrl,resources/DB.BMP,resources/DBN.BMP,Door4,-0.16,0.005,1,0,0,1.31,optionLeft,60,12760,6,8,0,8,0,1,,,,,,,,,,,,,,,,,,,,,,,,,,,,,,,,,,,,,,,
,,,,,,,,2023-08-16_08h42.01.988,HF_wild_card,2022.2.4,Win32,20.0020002,5ce740c8636a5b0018f55968,64d2fd46c836a06233681665,64dc7da45c5711870ec86cfd,,,,,,,sngl,resources/Empty.png,resources/DY.BMP,Door2,0.12875,0.005,1,0,0,1.105,optionRight,40,12800,6,9,0,9,0,1,,,,,,,,,,,,,,,,,,,,,,,,,,,,,,,,,,,,,,,
,,,,,,,,2023-08-16_08h42.01.988,HF_wild_card,2022.2.4,Win32,20.0020002,5ce740c8636a5b0018f55968,64d2fd46c836a06233681665,64dc7da45c5711870ec86cfd,,,,,,,decisionTrl,resources/DBN.BMP,resources/DY.BMP,WildCard_NonEx,-0.14875,0.01875,1,0,0,1.56,optionLeft,45,12845,6,10,0,10,0,1,,,,,,,,,,,,,,,,,,,,,,,,,,,,,,,,,,,,,,,
,,,,,,,,2023-08-16_08h42.01.988,HF_wild_card,2022.2.4,Win32,20.0020002,5ce740c8636a5b0018f55968,64d2fd46c836a06233681665,64dc7da45c5711870ec86cfd,,,,,,,decisionTrl,resources/DP.BMP,resources/DBN.BMP,WildCard_NonEx,0.18875,-0.00125,1,0,0,1.655,optionRight,45,12890,6,11,0,11,0,1,,,,,,,,,,,,,,,,,,,,,,,,,,,,,,,,,,,,,,,
,,,,,,,,2023-08-16_08h42.01.988,HF_wild_card,2022.2.4,Win32,20.0020002,5ce740c8636a5b0018f55968,64d2fd46c836a06233681665,64dc7da45c5711870ec86cfd,,,,,,,decisionTrl,resources/DBN.BMP,resources/DP.BMP,WildCard_NonEx,-0.1775,0.025,1,0,0,1.234,optionLeft,55,12945,6,12,0,12,0,1,,,,,,,,,,,,,,,,,,,,,,,,,,,,,,,,,,,,,,,
,,,,,,,,2023-08-16_08h42.01.988,HF_wild_card,2022.2.4,Win32,20.0020002,5ce740c8636a5b0018f55968,64d2fd46c836a06233681665,64dc7da45c5711870ec86cfd,,,,,,,sngl,resources/DY.BMP,resources/Empty.png,Door2,-0.1625,0.01,1,0,0,1.057,optionLeft,20,12965,6,13,0,13,0,1,,,,,,,,,,,,,,,,,,,,,,,,,,,,,,,,,,,,,,,
,,,,,,,,2023-08-16_08h42.01.988,HF_wild_card,2022.2.4,Win32,20.0020002,5ce740c8636a5b0018f55968,64d2fd46c836a06233681665,64dc7da45c5711870ec86cfd,,,,,,,decisionTrl,resources/DB.BMP,resources/DR.BMP,Door3,0.135,0.01,1,0,0,1.595,optionRight,70,13035,6,14,0,14,0,1,,,,,,,,,,,,,,,,,,,,,,,,,,,,,,,,,,,,,,,
,,,,,,,,2023-08-16_08h42.01.988,HF_wild_card,2022.2.4,Win32,20.0020002,5ce740c8636a5b0018f55968,64d2fd46c836a06233681665,64dc7da45c5711870ec86cfd,,,,,,,decisionTrl,resources/DB.BMP,resources/DR.BMP,Door3,0.18125,0.01,1,0,0,1.052,optionRight,70,13105,6,15,0,15,0,1,,,,,,,,,,,,,,,,,,,,,,,,,,,,,,,,,,,,,,,
,,,,,,,,2023-08-16_08h42.01.988,HF_wild_card,2022.2.4,Win32,20.0020002,5ce740c8636a5b0018f55968,64d2fd46c836a06233681665,64dc7da45c5711870ec86cfd,,,,,,,decisionTrl,resources/DP.BMP,resources/DY.BMP,Door1,-0.11625,0.01,1,0,0,2.367,optionLeft,30,13135,6,16,0,16,0,1,,,,,,,,,,,,,,,,,,,,,,,,,,,,,,,,,,,,,,,
,,,,,,,,2023-08-16_08h42.01.988,HF_wild_card,2022.2.4,Win32,20.0020002,5ce740c8636a5b0018f55968,64d2fd46c836a06233681665,64dc7da45c5711870ec86cfd,,,,,,,sngl,resources/DBN.BMP,resources/Empty.png,WildCard_NonEx,-0.175,0.025,1,0,0,1.082,optionLeft,55,13190,6,17,0,17,0,1,,,,,,,,,,,,,,,,,,,,,,,,,,,,,,,,,,,,,,,
,,,,,,,,2023-08-16_08h42.01.988,HF_wild_card,2022.2.4,Win32,20.0020002,5ce740c8636a5b0018f55968,64d2fd46c836a06233681665,64dc7da45c5711870ec86cfd,,,,,,,ctch,resources/DB.BMP,resources/DP.BMP,Door4,-0.1725,-0.0025,1,0,0,1.192,optionLeft,60,13250,6,18,0,18,0,1,,,,,,,,,,,,,,,,,,,,,,,,,,,,,,,,,,,,,,,
,,,,,,,,2023-08-16_08h42.01.988,HF_wild_card,2022.2.4,Win32,20.0020002,5ce740c8636a5b0018f55968,64d2fd46c836a06233681665,64dc7da45c5711870ec86cfd,,,,,,,decisionTrl,resources/DP.BMP,resources/DY.BMP,Door1,-0.15125,0.00375,1,0,0,2.159,optionLeft,30,13280,6,19,0,19,0,1,,,,,,,,,,,,,,,,,,,,,,,,,,,,,,,,,,,,,,,
,,,,,,,,2023-08-16_08h42.01.988,HF_wild_card,2022.2.4,Win32,20.0020002,5ce740c8636a5b0018f55968,64d2fd46c836a06233681665,64dc7da45c5711870ec86cfd,,,,,,,sngl,resources/Empty.png,resources/DR.BMP,Door3,0.185,-0.00375,1,0,0,0.951,optionRight,70,13350,6,20,0,20,0,1,,,,,,,,,,,,,,,,,,,,,,,,,,,,,,,,,,,,,,,
,,,,,,,,2023-08-16_08h42.01.988,HF_wild_card,2022.2.4,Win32,20.0020002,5ce740c8636a5b0018f55968,64d2fd46c836a06233681665,64dc7da45c5711870ec86cfd,,,,,,,sngl,resources/Empty.png,resources/DBN.BMP,WildCard_NonEx,0.21375,0.01375,1,0,0,1.158,optionRight,55,13405,6,21,0,21,0,1,,,,,,,,,,,,,,,,,,,,,,,,,,,,,,,,,,,,,,,
,,,,,,,,2023-08-16_08h42.01.988,HF_wild_card,2022.2.4,Win32,20.0020002,5ce740c8636a5b0018f55968,64d2fd46c836a06233681665,64dc7da45c5711870ec86cfd,,,,,,,ctch,resources/DB.BMP,resources/DP.BMP,Door4,-0.2075,0.00625,1,0,0,1.017,optionLeft,80,13485,6,22,0,22,0,1,,,,,,,,,,,,,,,,,,,,,,,,,,,,,,,,,,,,,,,
,,,,,,,,2023-08-16_08h42.01.988,HF_wild_card,2022.2.4,Win32,20.0020002,5ce740c8636a5b0018f55968,64d2fd46c836a06233681665,64dc7da45c5711870ec86cfd,,,,,,,sngl,resources/Empty.png,resources/DBN.BMP,WildCard_NonEx,0.17625,-0.005,1,0,0,1.201,optionRight,45,13530,6,23,0,23,0,1,,,,,,,,,,,,,,,,,,,,,,,,,,,,,,,,,,,,,,,
,,,,,,,,2023-08-16_08h42.01.988,HF_wild_card,2022.2.4,Win32,20.0020002,5ce740c8636a5b0018f55968,64d2fd46c836a06233681665,64dc7da45c5711870ec86cfd,,,,,,,sngl,resources/DP.BMP,resources/Empty.png,Door1,-0.195,0.0225,1,0,0,1.135,optionLeft,30,13560,6,24,0,24,0,1,,,,,,,,,,,,,,,,,,,,,,,,,,,,,,,,,,,,,,,
,,,,,,,,2023-08-16_08h42.01.988,HF_wild_card,2022.2.4,Win32,20.0020002,5ce740c8636a5b0018f55968,64d2fd46c836a06233681665,64dc7da45c5711870ec86cfd,,,,,,,decisionTrl,resources/DP.BMP,resources/DY.BMP,Door1,-0.1175,0.0025,1,0,0,1.61,optionLeft,30,13590,6,25,0,25,0,1,,,,,,,,,,,,,,,,,,,,,,,,,,,,,,,,,,,,,,,
,,,,,,,,2023-08-16_08h42.01.988,HF_wild_card,2022.2.4,Win32,20.0020002,5ce740c8636a5b0018f55968,64d2fd46c836a06233681665,64dc7da45c5711870ec86cfd,,,,,,,decisionTrl,resources/DBN.BMP,resources/DR.BMP,Door3,0.2225,-0.00625,1,0,0,1.301,optionRight,70,13660,6,26,0,26,0,1,,,,,,,,,,,,,,,,,,,,,,,,,,,,,,,,,,,,,,,
,,,,,,,,2023-08-16_08h42.01.988,HF_wild_card,2022.2.4,Win32,20.0020002,5ce740c8636a5b0018f55968,64d2fd46c836a06233681665,64dc7da45c5711870ec86cfd,,,,,,,decisionTrl,resources/DR.BMP,resources/DB.BMP,Door3,-0.1325,0.00625,1,0,0,1.487,optionLeft,70,13730,6,27,0,27,0,1,,,,,,,,,,,,,,,,,,,,,,,,,,,,,,,,,,,,,,,
,,,,,,,,2023-08-16_08h42.01.988,HF_wild_card,2022.2.4,Win32,20.0020002,5ce740c8636a5b0018f55968,64d2fd46c836a06233681665,64dc7da45c5711870ec86cfd,,,,,,,ctch,resources/DY.BMP,resources/DR.BMP,Door3,0.14625,-0.005,1,0,0,1.407,optionRight,70,13800,6,28,0,28,0,1,,,,,,,,,,,,,,,,,,,,,,,,,,,,,,,,,,,,,,,
,,,,,,,,2023-08-16_08h42.01.988,HF_wild_card,2022.2.4,Win32,20.0020002,5ce740c8636a5b0018f55968,64d2fd46c836a06233681665,64dc7da45c5711870ec86cfd,,,,,,,decisionTrl,resources/DBN.BMP,resources/DB.BMP,Door4,0.2325,0.01,1,0,0,1.312,optionRight,60,13860,6,29,0,29,0,1,,,,,,,,,,,,,,,,,,,,,,,,,,,,,,,,,,,,,,,
,,,,,,,,2023-08-16_08h42.01.988,HF_wild_card,2022.2.4,Win32,20.0020002,5ce740c8636a5b0018f55968,64d2fd46c836a06233681665,64dc7da45c5711870ec86cfd,,,,,,,decisionTrl,resources/DY.BMP,resources/DP.BMP,Door2,-0.15375,0.00625,1,0,0,2.029,optionLeft,40,13900,6,30,0,30,0,1,,,,,,,,,,,,,,,,,,,,,,,,,,,,,,,,,,,,,,,
,,,,,,,,2023-08-16_08h42.01.988,HF_wild_card,2022.2.4,Win32,20.0020002,5ce740c8636a5b0018f55968,64d2fd46c836a06233681665,64dc7da45c5711870ec86cfd,,,,,,,decisionTrl,resources/DY.BMP,resources/DP.BMP,Door2,-0.13375,0.0125,1,0,0,1.686,optionLeft,20,13920,6,31,0,31,0,1,,,,,,,,,,,,,,,,,,,,,,,,,,,,,,,,,,,,,,,
,,,,,,,,2023-08-16_08h42.01.988,HF_wild_card,2022.2.4,Win32,20.0020002,5ce740c8636a5b0018f55968,64d2fd46c836a06233681665,64dc7da45c5711870ec86cfd,,,,,,,decisionTrl,resources/DR.BMP,resources/DB.BMP,Door3,-0.12375,0.02,1,0,0,1.154,optionLeft,70,13990,6,32,0,32,0,1,,,,,,,,,,,,,,,,,,,,,,,,,,,,,,,,,,,,,,,
,,,,,,,,2023-08-16_08h42.01.988,HF_wild_card,2022.2.4,Win32,20.0020002,5ce740c8636a5b0018f55968,64d2fd46c836a06233681665,64dc7da45c5711870ec86cfd,,,,,,,decisionTrl,resources/DY.BMP,resources/DP.BMP,Door1,0.13625,0,1,0,0,1.982,optionRight,30,14020,6,33,0,33,0,1,,,,,,,,,,,,,,,,,,,,,,,,,,,,,,,,,,,,,,,
,,,,,,,,2023-08-16_08h42.01.988,HF_wild_card,2022.2.4,Win32,20.0020002,5ce740c8636a5b0018f55968,64d2fd46c836a06233681665,64dc7da45c5711870ec86cfd,,,,,,,sngl,resources/DB.BMP,resources/Empty.png,Door4,-0.17,0.01625,1,0,0,0.982,optionLeft,60,14080,6,34,0,34,0,1,,,,,,,,,,,,,,,,,,,,,,,,,,,,,,,,,,,,,,,
,,,,,,,,2023-08-16_08h42.01.988,HF_wild_card,2022.2.4,Win32,20.0020002,5ce740c8636a5b0018f55968,64d2fd46c836a06233681665,64dc7da45c5711870ec86cfd,,,,,,,decisionTrl,resources/DY.BMP,resources/DP.BMP,Door2,-0.1575,0.005,1,0,0,1.627,optionLeft,20,14100,6,35,0,35,0,1,,,,,,,,,,,,,,,,,,,,,,,,,,,,,,,,,,,,,,,
,,,,,,,,2023-08-16_08h42.01.988,HF_wild_card,2022.2.4,Win32,20.0020002,5ce740c8636a5b0018f55968,64d2fd46c836a06233681665,64dc7da45c5711870ec86cfd,,,,,,,decisionTrl,resources/DB.BMP,resources/DR.BMP,Door3,0.18625,0.01,1,0,0,1.461,optionRight,70,14170,6,36,0,36,0,1,,,,,,,,,,,,,,,,,,,,,,,,,,,,,,,,,,,,,,,
,,,,,,,,2023-08-16_08h42.01.988,HF_wild_card,2022.2.4,Win32,20.0020002,5ce740c8636a5b0018f55968,64d2fd46c836a06233681665,64dc7da45c5711870ec86cfd,,,,,,,decisionTrl,resources/DR.BMP,resources/DB.BMP,Door3,-0.18625,0.02875,1,0,0,1.234,optionLeft,70,14240,6,37,0,37,0,1,,,,,,,,,,,,,,,,,,,,,,,,,,,,,,,,,,,,,,,
,,,,,,,,2023-08-16_08h42.01.988,HF_wild_card,2022.2.4,Win32,20.0020002,5ce740c8636a5b0018f55968,64d2fd46c836a06233681665,64dc7da45c5711870ec86cfd,,,,,,,decisionTrl,resources/DR.BMP,resources/DB.BMP,Door3,-0.10875,0.00125,1,0,0,1.34,optionLeft,70,14310,6,38,0,38,0,1,,,,,,,,,,,,,,,,,,,,,,,,,,,,,,,,,,,,,,,
,,,,,,,,2023-08-16_08h42.01.988,HF_wild_card,2022.2.4,Win32,20.0020002,5ce740c8636a5b0018f55968,64d2fd46c836a06233681665,64dc7da45c5711870ec86cfd,,,,,,,ctch,resources/DP.BMP,resources/DB.BMP,Door4,0.17125,-0.005,1,0,0,1.081,optionRight,80,14390,6,39,0,39,0,1,,,,,,,,,,,,,,,,,,,,,,,,,,,,,,,,,,,,,,,
,,,,,,,,2023-08-16_08h42.01.988,HF_wild_card,2022.2.4,Win32,20.0020002,5ce740c8636a5b0018f55968,64d2fd46c836a06233681665,64dc7da45c5711870ec86cfd,,,,,,,ctch,resources/DR.BMP,resources/DY.BMP,Door3,-0.1125,-0.00125,1,0,0,1.85,optionLeft,70,14460,6,40,0,40,0,1,,,,,,,,,,,,,,,,,,,,,,,,,,,,,,,,,,,,,,,
,,,,,,,,2023-08-16_08h42.01.988,HF_wild_card,2022.2.4,Win32,20.0020002,5ce740c8636a5b0018f55968,64d2fd46c836a06233681665,64dc7da45c5711870ec86cfd,,,,,,,sngl,resources/DR.BMP,resources/Empty.png,Door3,-0.1675,0.02875,1,0,0,1.016,optionLeft,70,14530,6,41,0,41,0,1,,,,,,,,,,,,,,,,,,,,,,,,,,,,,,,,,,,,,,,
,,,,,,,,2023-08-16_08h42.01.988,HF_wild_card,2022.2.4,Win32,20.0020002,5ce740c8636a5b0018f55968,64d2fd46c836a06233681665,64dc7da45c5711870ec86cfd,,,,,,,ctch,resources/DR.BMP,resources/DY.BMP,Door3,-0.1775,0.0125,1,0,0,1.358,optionLeft,70,14600,6,42,0,42,0,1,,,,,,,,,,,,,,,,,,,,,,,,,,,,,,,,,,,,,,,
,,,,,,,,2023-08-16_08h42.01.988,HF_wild_card,2022.2.4,Win32,20.0020002,5ce740c8636a5b0018f55968,64d2fd46c836a06233681665,64dc7da45c5711870ec86cfd,,,,,,,sngl,resources/Empty.png,resources/DB.BMP,Door4,0.18875,0,1,0,0,0.954,optionRight,80,14680,6,43,0,43,0,1,,,,,,,,,,,,,,,,,,,,,,,,,,,,,,,,,,,,,,,
,,,,,,,,2023-08-16_08h42.01.988,HF_wild_card,2022.2.4,Win32,20.0020002,5ce740c8636a5b0018f55968,64d2fd46c836a06233681665,64dc7da45c5711870ec86cfd,,,,,,,,,,,,,,,,,,,,,,,,,,5,0,5,0,1,,,,,,,,,,,,,,,,,,,,,,,,,,,,,,,,,,
,,,,,,,,2023-08-16_08h42.01.988,HF_wild_card,2022.2.4,Win32,20.0020002,5ce740c8636a5b0018f55968,64d2fd46c836a06233681665,64dc7da45c5711870ec86cfd,,,,,,,ctch,resources/DR.BMP,resources/DY.BMP,Door3,-0.1925,-0.1325,1,0,0,1.463,optionLeft,70,14750,7,0,0,0,0,1,,,,,,,,,,,,,,,,,,,,,,,,,,,,,,,,,,,,,,,
,,,,,,,,2023-08-16_08h42.01.988,HF_wild_card,2022.2.4,Win32,20.0020002,5ce740c8636a5b0018f55968,64d2fd46c836a06233681665,64dc7da45c5711870ec86cfd,,,,,,,decisionTrl,resources/DY.BMP,resources/DP.BMP,Door1,0.21875,-0.00375,1,0,0,1.762,optionRight,30,14780,7,1,0,1,0,1,,,,,,,,,,,,,,,,,,,,,,,,,,,,,,,,,,,,,,,
,,,,,,,,2023-08-16_08h42.01.988,HF_wild_card,2022.2.4,Win32,20.0020002,5ce740c8636a5b0018f55968,64d2fd46c836a06233681665,64dc7da45c5711870ec86cfd,,,,,,,decisionTrl,resources/DY.BMP,resources/DP.BMP,Door1,0.11,-0.00125,1,0,0,1.88,optionRight,30,14810,7,2,0,2,0,1,,,,,,,,,,,,,,,,,,,,,,,,,,,,,,,,,,,,,,,
,,,,,,,,2023-08-16_08h42.01.988,HF_wild_card,2022.2.4,Win32,20.0020002,5ce740c8636a5b0018f55968,64d2fd46c836a06233681665,64dc7da45c5711870ec86cfd,,,,,,,decisionTrl,resources/DB.BMP,resources/DR.BMP,Door3,0.2175,-0.0125,1,0,0,1.506,optionRight,70,14880,7,3,0,3,0,1,,,,,,,,,,,,,,,,,,,,,,,,,,,,,,,,,,,,,,,
,,,,,,,,2023-08-16_08h42.01.988,HF_wild_card,2022.2.4,Win32,20.0020002,5ce740c8636a5b0018f55968,64d2fd46c836a06233681665,64dc7da45c5711870ec86cfd,,,,,,,decisionTrl,resources/DR.BMP,resources/DB.BMP,Door3,-0.1775,0.00875,1,0,0,1.164,optionLeft,70,14950,7,4,0,4,0,1,,,,,,,,,,,,,,,,,,,,,,,,,,,,,,,,,,,,,,,
,,,,,,,,2023-08-16_08h42.01.988,HF_wild_card,2022.2.4,Win32,20.0020002,5ce740c8636a5b0018f55968,64d2fd46c836a06233681665,64dc7da45c5711870ec86cfd,,,,,,,ctch,resources/DP.BMP,resources/DB.BMP,Door4,0.255,-0.00875,1,0,0,1.05,optionRight,60,15010,7,5,0,5,0,1,,,,,,,,,,,,,,,,,,,,,,,,,,,,,,,,,,,,,,,
,,,,,,,,2023-08-16_08h42.01.988,HF_wild_card,2022.2.4,Win32,20.0020002,5ce740c8636a5b0018f55968,64d2fd46c836a06233681665,64dc7da45c5711870ec86cfd,,,,,,,decisionTrl,resources/DB.BMP,resources/DR.BMP,Door3,0.1875,0.01125,1,0,0,1.2,optionRight,70,15080,7,6,0,6,0,1,,,,,,,,,,,,,,,,,,,,,,,,,,,,,,,,,,,,,,,
,,,,,,,,2023-08-16_08h42.01.988,HF_wild_card,2022.2.4,Win32,20.0020002,5ce740c8636a5b0018f55968,64d2fd46c836a06233681665,64dc7da45c5711870ec86cfd,,,,,,,ctch,resources/DR.BMP,resources/DY.BMP,Door3,-0.2225,0.02,1,0,0,1.161,optionLeft,70,15150,7,7,0,7,0,1,,,,,,,,,,,,,,,,,,,,,,,,,,,,,,,,,,,,,,,
,,,,,,,,2023-08-16_08h42.01.988,HF_wild_card,2022.2.4,Win32,20.0020002,5ce740c8636a5b0018f55968,64d2fd46c836a06233681665,64dc7da45c5711870ec86cfd,,,,,,,decisionTrl,resources/DP.BMP,resources/DY.BMP,Door1,-0.1475,-0.00375,1,0,0,1.812,optionLeft,30,15180,7,8,0,8,0,1,,,,,,,,,,,,,,,,,,,,,,,,,,,,,,,,,,,,,,,
,,,,,,,,2023-08-16_08h42.01.988,HF_wild_card,2022.2.4,Win32,20.0020002,5ce740c8636a5b0018f55968,64d2fd46c836a06233681665,64dc7da45c5711870ec86cfd,,,,,,,ctch,resources/DY.BMP,resources/DR.BMP,Door3,0.23375,-0.01875,1,0,0,1.147,optionRight,70,15250,7,9,0,9,0,1,,,,,,,,,,,,,,,,,,,,,,,,,,,,,,,,,,,,,,,
,,,,,,,,2023-08-16_08h42.01.988,HF_wild_card,2022.2.4,Win32,20.0020002,5ce740c8636a5b0018f55968,64d2fd46c836a06233681665,64dc7da45c5711870ec86cfd,,,,,,,ctch,resources/DB.BMP,resources/DP.BMP,Door4,-0.1825,0.02,1,0,0,1.135,optionLeft,80,15330,7,10,0,10,0,1,,,,,,,,,,,,,,,,,,,,,,,,,,,,,,,,,,,,,,,
,,,,,,,,2023-08-16_08h42.01.988,HF_wild_card,2022.2.4,Win32,20.0020002,5ce740c8636a5b0018f55968,64d2fd46c836a06233681665,64dc7da45c5711870ec86cfd,,,,,,,decisionTrl,resources/DB.BMP,resources/DR.BMP,Door4,-0.1225,0.03375,1,0,0,1.296,optionLeft,60,15390,7,11,0,11,0,1,,,,,,,,,,,,,,,,,,,,,,,,,,,,,,,,,,,,,,,
,,,,,,,,2023-08-16_08h42.01.988,HF_wild_card,2022.2.4,Win32,20.0020002,5ce740c8636a5b0018f55968,64d2fd46c836a06233681665,64dc7da45c5711870ec86cfd,,,,,,,decisionTrl,resources/DR.BMP,resources/DB.BMP,Door3,-0.1125,0.01875,1,0,0,1.757,optionLeft,70,15460,7,12,0,12,0,1,,,,,,,,,,,,,,,,,,,,,,,,,,,,,,,,,,,,,,,
,,,,,,,,2023-08-16_08h42.01.988,HF_wild_card,2022.2.4,Win32,20.0020002,5ce740c8636a5b0018f55968,64d2fd46c836a06233681665,64dc7da45c5711870ec86cfd,,,,,,,decisionTrl,resources/DP.BMP,resources/DY.BMP,Door1,-0.17625,0.02125,1,0,0,1.751,optionLeft,30,15490,7,13,0,13,0,1,,,,,,,,,,,,,,,,,,,,,,,,,,,,,,,,,,,,,,,
,,,,,,,,2023-08-16_08h42.01.988,HF_wild_card,2022.2.4,Win32,20.0020002,5ce740c8636a5b0018f55968,64d2fd46c836a06233681665,64dc7da45c5711870ec86cfd,,,,,,,ctch,resources/DY.BMP,resources/DR.BMP,Door3,0.17375,0.01375,1,0,0,1.135,optionRight,70,15560,7,14,0,14,0,1,,,,,,,,,,,,,,,,,,,,,,,,,,,,,,,,,,,,,,,
,,,,,,,,2023-08-16_08h42.01.988,HF_wild_card,2022.2.4,Win32,20.0020002,5ce740c8636a5b0018f55968,64d2fd46c836a06233681665,64dc7da45c5711870ec86cfd,,,,,,,decisionTrl,resources/DR.BMP,resources/DB.BMP,Door3,-0.1475,0.02375,1,0,0,1.331,optionLeft,70,15630,7,15,0,15,0,1,,,,,,,,,,,,,,,,,,,,,,,,,,,,,,,,,,,,,,,
,,,,,,,,2023-08-16_08h42.01.988,HF_wild_card,2022.2.4,Win32,20.0020002,5ce740c8636a5b0018f55968,64d2fd46c836a06233681665,64dc7da45c5711870ec86cfd,,,,,,,decisionTrl,resources/DP.BMP,resources/DY.BMP,Door1,-0.16125,0.02625,1,0,0,1.218,optionLeft,30,15660,7,16,0,16,0,1,,,,,,,,,,,,,,,,,,,,,,,,,,,,,,,,,,,,,,,
,,,,,,,,2023-08-16_08h42.01.988,HF_wild_card,2022.2.4,Win32,20.0020002,5ce740c8636a5b0018f55968,64d2fd46c836a06233681665,64dc7da45c5711870ec86cfd,,,,,,,decisionTrl,resources/DB.BMP,resources/DR.BMP,Door3,0.1625,0.01375,1,0,0,1.029,optionRight,70,15730,7,17,0,17,0,1,,,,,,,,,,,,,,,,,,,,,,,,,,,,,,,,,,,,,,,
,,,,,,,,2023-08-16_08h42.01.988,HF_wild_card,2022.2.4,Win32,20.0020002,5ce740c8636a5b0018f55968,64d2fd46c836a06233681665,64dc7da45c5711870ec86cfd,,,,,,,decisionTrl,resources/DY.BMP,resources/DP.BMP,Door1,0.13375,-0.01,1,0,0,1.897,optionRight,30,15760,7,18,0,18,0,1,,,,,,,,,,,,,,,,,,,,,,,,,,,,,,,,,,,,,,,
,,,,,,,,2023-08-16_08h42.01.988,HF_wild_card,2022.2.4,Win32,20.0020002,5ce740c8636a5b0018f55968,64d2fd46c836a06233681665,64dc7da45c5711870ec86cfd,,,,,,,decisionTrl,resources/DY.BMP,resources/DP.BMP,Door1,0.17,0.0025,1,0,0,1.392,optionRight,30,15790,7,19,0,19,0,1,,,,,,,,,,,,,,,,,,,,,,,,,,,,,,,,,,,,,,,
,,,,,,,,2023-08-16_08h42.01.988,HF_wild_card,2022.2.4,Win32,20.0020002,5ce740c8636a5b0018f55968,64d2fd46c836a06233681665,64dc7da45c5711870ec86cfd,,,,,,,ctch,resources/DB.BMP,resources/DP.BMP,Door4,-0.15375,0.0125,1,0,0,1.216,optionLeft,80,15870,7,20,0,20,0,1,,,,,,,,,,,,,,,,,,,,,,,,,,,,,,,,,,,,,,,
,,,,,,,,2023-08-16_08h42.01.988,HF_wild_card,2022.2.4,Win32,20.0020002,5ce740c8636a5b0018f55968,64d2fd46c836a06233681665,64dc7da45c5711870ec86cfd,,,,,,,decisionTrl,resources/DB.BMP,resources/DR.BMP,Door4,-0.155,0.025,1,0,0,1.16,optionLeft,60,15930,7,21,0,21,0,1,,,,,,,,,,,,,,,,,,,,,,,,,,,,,,,,,,,,,,,
,,,,,,,,2023-08-16_08h42.01.988,HF_wild_card,2022.2.4,Win32,20.0020002,5ce740c8636a5b0018f55968,64d2fd46c836a06233681665,64dc7da45c5711870ec86cfd,,,,,,,decisionTrl,resources/DP.BMP,resources/DY.BMP,Door1,-0.13125,0.00375,1,0,0,1.668,optionLeft,30,15960,7,22,0,22,0,1,,,,,,,,,,,,,,,,,,,,,,,,,,,,,,,,,,,,,,,
,,,,,,,,2023-08-16_08h42.01.988,HF_wild_card,2022.2.4,Win32,20.0020002,5ce740c8636a5b0018f55968,64d2fd46c836a06233681665,64dc7da45c5711870ec86cfd,,,,,,,decisionTrl,resources/DP.BMP,resources/DY.BMP,Door1,-0.14625,0.03,1,0,0,1.34,optionLeft,30,15990,7,23,0,23,0,1,,,,,,,,,,,,,,,,,,,,,,,,,,,,,,,,,,,,,,,
,,,,,,,,2023-08-16_08h42.01.988,HF_wild_card,2022.2.4,Win32,20.0020002,5ce740c8636a5b0018f55968,64d2fd46c836a06233681665,64dc7da45c5711870ec86cfd,,,,,,,decisionTrl,resources/DR.BMP,resources/DB.BMP,Door4,0.15,0.00375,1,0,0,1.679,optionRight,80,16070,7,24,0,24,0,1,,,,,,,,,,,,,,,,,,,,,,,,,,,,,,,,,,,,,,,
,,,,,,,,2023-08-16_08h42.01.988,HF_wild_card,2022.2.4,Win32,20.0020002,5ce740c8636a5b0018f55968,64d2fd46c836a06233681665,64dc7da45c5711870ec86cfd,,,,,,,decisionTrl,resources/DR.BMP,resources/DB.BMP,Door3,-0.11375,0.025,1,0,0,1.195,optionLeft,70,16140,7,25,0,25,0,1,,,,,,,,,,,,,,,,,,,,,,,,,,,,,,,,,,,,,,,
,,,,,,,,2023-08-16_08h42.01.988,HF_wild_card,2022.2.4,Win32,20.0020002,5ce740c8636a5b0018f55968,64d2fd46c836a06233681665,64dc7da45c5711870ec86cfd,,,,,,,ctch,resources/DP.BMP,resources/DB.BMP,Door4,0.1525,0.00875,1,0,0,1.162,optionRight,80,16220,7,26,0,26,0,1,,,,,,,,,,,,,,,,,,,,,,,,,,,,,,,,,,,,,,,
,,,,,,,,2023-08-16_08h42.01.988,HF_wild_card,2022.2.4,Win32,20.0020002,5ce740c8636a5b0018f55968,64d2fd46c836a06233681665,64dc7da45c5711870ec86cfd,,,,,,,ctch,resources/DB.BMP,resources/DP.BMP,Door4,-0.14375,0.03125,1,0,0,1.08,optionLeft,60,16280,7,27,0,27,0,1,,,,,,,,,,,,,,,,,,,,,,,,,,,,,,,,,,,,,,,
,,,,,,,,2023-08-16_08h42.01.988,HF_wild_card,2022.2.4,Win32,20.0020002,5ce740c8636a5b0018f55968,64d2fd46c836a06233681665,64dc7da45c5711870ec86cfd,,,,,,,ctch,resources/DR.BMP,resources/DY.BMP,Door3,-0.14,0.02625,1,0,0,1.072,optionLeft,70,16350,7,28,0,28,0,1,,,,,,,,,,,,,,,,,,,,,,,,,,,,,,,,,,,,,,,
,,,,,,,,2023-08-16_08h42.01.988,HF_wild_card,2022.2.4,Win32,20.0020002,5ce740c8636a5b0018f55968,64d2fd46c836a06233681665,64dc7da45c5711870ec86cfd,,,,,,,decisionTrl,resources/DY.BMP,resources/DP.BMP,Door1,0.1675,0.01,1,0,0,1.266,optionRight,30,16380,7,29,0,29,0,1,,,,,,,,,,,,,,,,,,,,,,,,,,,,,,,,,,,,,,,
,,,,,,,,2023-08-16_08h42.01.988,HF_wild_card,2022.2.4,Win32,20.0020002,5ce740c8636a5b0018f55968,64d2fd46c836a06233681665,64dc7da45c5711870ec86cfd,,,,,,,ctch,resources/DP.BMP,resources/DB.BMP,Door4,0.23375,-0.00125,1,0,0,1.172,optionRight,60,16440,7,30,0,30,0,1,,,,,,,,,,,,,,,,,,,,,,,,,,,,,,,,,,,,,,,
,,,,,,,,2023-08-16_08h42.01.988,HF_wild_card,2022.2.4,Win32,20.0020002,5ce740c8636a5b0018f55968,64d2fd46c836a06233681665,64dc7da45c5711870ec86cfd,,,,,,,decisionTrl,resources/DY.BMP,resources/DP.BMP,Door1,0.20125,-0.00125,1,0,0,1.414,optionRight,30,16470,7,31,0,31,0,1,,,,,,,,,,,,,,,,,,,,,,,,,,,,,,,,,,,,,,,
,,,,,,,,2023-08-16_08h42.01.988,HF_wild_card,2022.2.4,Win32,20.0020002,5ce740c8636a5b0018f55968,64d2fd46c836a06233681665,64dc7da45c5711870ec86cfd,,,,,,,decisionTrl,resources/DR.BMP,resources/DB.BMP,Door4,0.185,0.01625,1,0,0,1.173,optionRight,80,16550,7,32,0,32,0,1,,,,,,,,,,,,,,,,,,,,,,,,,,,,,,,,,,,,,,,
,,,,,,,,2023-08-16_08h42.01.988,HF_wild_card,2022.2.4,Win32,20.0020002,5ce740c8636a5b0018f55968,64d2fd46c836a06233681665,64dc7da45c5711870ec86cfd,,,,,,,decisionTrl,resources/DB.BMP,resources/DR.BMP,Door4,-0.175,0.0175,1,0,0,1.256,optionLeft,60,16610,7,33,0,33,0,1,,,,,,,,,,,,,,,,,,,,,,,,,,,,,,,,,,,,,,,
,,,,,,,,2023-08-16_08h42.01.988,HF_wild_card,2022.2.4,Win32,20.0020002,5ce740c8636a5b0018f55968,64d2fd46c836a06233681665,64dc7da45c5711870ec86cfd,,,,,,,decisionTrl,resources/DP.BMP,resources/DY.BMP,Door1,-0.1575,0.015,1,0,0,1.138,optionLeft,30,16640,7,34,0,34,0,1,,,,,,,,,,,,,,,,,,,,,,,,,,,,,,,,,,,,,,,
,,,,,,,,2023-08-16_08h42.01.988,HF_wild_card,2022.2.4,Win32,20.0020002,5ce740c8636a5b0018f55968,64d2fd46c836a06233681665,64dc7da45c5711870ec86cfd,,,,,,,ctch,resources/DY.BMP,resources/DR.BMP,Door3,0.20875,-0.00625,1,0,0,1.008,optionRight,70,16710,7,35,0,35,0,1,,,,,,,,,,,,,,,,,,,,,,,,,,,,,,,,,,,,,,,
,,,,,,,,2023-08-16_08h42.01.988,HF_wild_card,2022.2.4,Win32,20.0020002,5ce740c8636a5b0018f55968,64d2fd46c836a06233681665,64dc7da45c5711870ec86cfd,,,,,,,,,,,,,,,,,,,,,,,,,,6,0,6,0,1,,,,,,,,,,,,,,,,,,,,,,,,,,,,,,,,,,
,,,,,,,,2023-08-16_08h42.01.988,HF_wild_card,2022.2.4,Win32,20.0020002,5ce740c8636a5b0018f55968,64d2fd46c836a06233681665,64dc7da45c5711870ec86cfd,,,,,,,,,,,,,,,,,,,,,,,,,,,,,,,4,,,,,,,,,,,,,,,,,,,,,,,,,,,,,,,,,
,,,,,,,,2023-08-16_08h42.01.988,HF_wild_card,2022.2.4,Win32,20.0020002,5ce740c8636a5b0018f55968,64d2fd46c836a06233681665,64dc7da45c5711870ec86cfd,,,,,,,,,,,,,,,,,,,,,,,,,,,,,,,,,,,,,,,,,,,,,,,,,,,,,,,,,,,,,,,,
,,,,,,,,2023-08-16_08h42.01.988,HF_wild_card,2022.2.4,Win32,20.0020002,5ce740c8636a5b0018f55968,64d2fd46c836a06233681665,64dc7da45c5711870ec86cfd,,,,,,,,,,,,,,,,,,,,,,,,,,,,,,,,95,WC_extreme,resources/DG.BMP,0,0,0,0,1,,,,,,,,,,,,,,,,,,,,,,,,,
,,,,,,,,2023-08-16_08h42.01.988,HF_wild_card,2022.2.4,Win32,20.0020002,5ce740c8636a5b0018f55968,64d2fd46c836a06233681665,64dc7da45c5711870ec86cfd,,,,,,,,,,,,,,,,,,,,,,,,,,,,,,,,20,Door2,resources/DY.BMP,1,0,1,0,1,,,,,,,,,,,,,,,,,,,,,,,,,
,,,,,,,,2023-08-16_08h42.01.988,HF_wild_card,2022.2.4,Win32,20.0020002,5ce740c8636a5b0018f55968,64d2fd46c836a06233681665,64dc7da45c5711870ec86cfd,,,,,,,,,,,,,,,,,,,,,,,,,,,,,,,,55,WC_nonExtreme,resources/DBN.BMP,2,0,2,0,1,,,,,,,,,,,,,,,,,,,,,,,,,
,,,,,,,,2023-08-16_08h42.01.988,HF_wild_card,2022.2.4,Win32,20.0020002,5ce740c8636a5b0018f55968,64d2fd46c836a06233681665,64dc7da45c5711870ec86cfd,,,,,,,,,,,,,,,,,,,,,,,,,,,,,,,,80,Door4,resources/DB.BMP,3,0,3,0,1,,,,,,,,,,,,,,,,,,,,,,,,,
,,,,,,,,2023-08-16_08h42.01.988,HF_wild_card,2022.2.4,Win32,20.0020002,5ce740c8636a5b0018f55968,64d2fd46c836a06233681665,64dc7da45c5711870ec86cfd,,,,,,,,,,,,,,,,,,,,,,,,,,,,,,,,30,Door1,resources/DP.BMP,4,0,4,0,1,,,,,,,,,,,,,,,,,,,,,,,,,
,,,,,,,,2023-08-16_08h42.01.988,HF_wild_card,2022.2.4,Win32,20.0020002,5ce740c8636a5b0018f55968,64d2fd46c836a06233681665,64dc7da45c5711870ec86cfd,,,,,,,,,,,,,,,,,,,,,,,,,,,,,,,,70,Door3,resources/DR.BMP,5,0,5,0,1,,,,,,,,,,,,,,,,,,,,,,,,,
,,,,,,,,2023-08-16_08h42.01.988,HF_wild_card,2022.2.4,Win32,20.0020002,5ce740c8636a5b0018f55968,64d2fd46c836a06233681665,64dc7da45c5711870ec86cfd,,,,,,,,,,,,,,,,,,,,,,,,,,,,,,,,,,,,,,,,,,,,,,,,,,,,,,,,,,,,,,,,
,,,,,,,,2023-08-16_08h42.01.988,HF_wild_card,2022.2.4,Win32,20.0020002,5ce740c8636a5b0018f55968,64d2fd46c836a06233681665,64dc7da45c5711870ec86cfd,,,,,,,,,,,,,,,,,,,,,,,,,,,,,,,,,,,,,,,,0,0,0,0,1,,,,,,,,,,,,,,,,,,,,
,,,,,,,,2023-08-16_08h42.01.988,HF_wild_card,2022.2.4,Win32,20.0020002,5ce740c8636a5b0018f55968,64d2fd46c836a06233681665,64dc7da45c5711870ec86cfd,,,,,,,,,,,,,,,,,,,,,,,,,,,,,,,,,,,,,,,,1,0,1,0,1,,,,,,,,,,,,,,,,,,,,
,,,,,,,,2023-08-16_08h42.01.988,HF_wild_card,2022.2.4,Win32,20.0020002,5ce740c8636a5b0018f55968,64d2fd46c836a06233681665,64dc7da45c5711870ec86cfd,,,,,,,,,,,,,,,,,,,,,,,,,,,,,,,,,,,,,,,,,,,,,0.2975,-0.395,1,0,0,no,0,0,0,0,1,,,,,,,,,
,,,,,,,,2023-08-16_08h42.01.988,HF_wild_card,2022.2.4,Win32,20.0020002,5ce740c8636a5b0018f55968,64d2fd46c836a06233681665,64dc7da45c5711870ec86cfd,,,,,,,,,,,,,,,,,,,,,,,,,,,,,,,,,,,,,,,,0,0,0,0,1,,,,,,,,,,,,,,,,,,,,
,,,,,,,,2023-08-16_08h42.01.988,HF_wild_card,2022.2.4,Win32,20.0020002,5ce740c8636a5b0018f55968,64d2fd46c836a06233681665,64dc7da45c5711870ec86cfd,,,,,,,,,,,,,,,,,,,,,,,,,,,,,,,,,,,,,,,,1,0,1,0,1,,,,,,,,,,,,,,,,,,,,
,,,,,,,,2023-08-16_08h42.01.988,HF_wild_card,2022.2.4,Win32,20.0020002,5ce740c8636a5b0018f55968,64d2fd46c836a06233681665,64dc7da45c5711870ec86cfd,,,,,,,,,,,,,,,,,,,,,,,,,,,,,,,,,,,,,,,,,,,,,-0.275,-0.36625,1,0,0,yes,1,0,1,0,1,25%,70%,WC_extreme,resources/DG.BMP,,,,,
,,,,,,,,2023-08-16_08h42.01.988,HF_wild_card,2022.2.4,Win32,20.0020002,5ce740c8636a5b0018f55968,64d2fd46c836a06233681665,64dc7da45c5711870ec86cfd,,,,,,,,,,,,,,,,,,,,,,,,,,,,,,,,,,,,,,,,,,,,,,,,,,,,,,,,,,,,0,0,0,0,1
,,,,,,,,2023-08-16_08h42.01.988,HF_wild_card,2022.2.4,Win32,20.0020002,5ce740c8636a5b0018f55968,64d2fd46c836a06233681665,64dc7da45c5711870ec86cfd,,,,,,,,,,,,,,,,,,,,,,,,,,,,,,,,,,,,,,,,0,0,0,0,1,,,,,,,,,,,,,,,,,,,,
,,,,,,,,2023-08-16_08h42.01.988,HF_wild_card,2022.2.4,Win32,20.0020002,5ce740c8636a5b0018f55968,64d2fd46c836a06233681665,64dc7da45c5711870ec86cfd,,,,,,,,,,,,,,,,,,,,,,,,,,,,,,,,,,,,,,,,1,0,1,0,1,,,,,,,,,,,,,,,,,,,,
,,,,,,,,2023-08-16_08h42.01.988,HF_wild_card,2022.2.4,Win32,20.0020002,5ce740c8636a5b0018f55968,64d2fd46c836a06233681665,64dc7da45c5711870ec86cfd,,,,,,,,,,,,,,,,,,,,,,,,,,,,,,,,,,,,,,,,,,,,,-0.2875,-0.39625,1,0,0,yes,0,0,0,0,1,50%,50%,Door4,resources/DB.BMP,,,,,
,,,,,,,,2023-08-16_08h42.01.988,HF_wild_card,2022.2.4,Win32,20.0020002,5ce740c8636a5b0018f55968,64d2fd46c836a06233681665,64dc7da45c5711870ec86cfd,,,,,,,,,,,,,,,,,,,,,,,,,,,,,,,,,,,,,,,,,,,,,,,,,,,,,,,,,,,,1,0,1,0,1
,,,,,,,,2023-08-16_08h42.01.988,HF_wild_card,2022.2.4,Win32,20.0020002,5ce740c8636a5b0018f55968,64d2fd46c836a06233681665,64dc7da45c5711870ec86cfd,,,,,,,,,,,,,,,,,,,,,,,,,,,,,,,,,,,,,,,,0,0,0,0,1,,,,,,,,,,,,,,,,,,,,
,,,,,,,,2023-08-16_08h42.01.988,HF_wild_card,2022.2.4,Win32,20.0020002,5ce740c8636a5b0018f55968,64d2fd46c836a06233681665,64dc7da45c5711870ec86cfd,,,,,,,,,,,,,,,,,,,,,,,,,,,,,,,,,,,,,,,,1,0,1,0,1,,,,,,,,,,,,,,,,,,,,
,,,,,,,,2023-08-16_08h42.01.988,HF_wild_card,2022.2.4,Win32,20.0020002,5ce740c8636a5b0018f55968,64d2fd46c836a06233681665,64dc7da45c5711870ec86cfd,,,,,,,,,,,,,,,,,,,,,,,,,,,,,,,,,,,,,,,,,,,,,-0.27625,-0.40375,1,0,0,yes,0,0,0,0,1,100%,0%,Door1,resources/DP.BMP,,,,,
,,,,,,,,2023-08-16_08h42.01.988,HF_wild_card,2022.2.4,Win32,20.0020002,5ce740c8636a5b0018f55968,64d2fd46c836a06233681665,64dc7da45c5711870ec86cfd,,,,,,,,,,,,,,,,,,,,,,,,,,,,,,,,,,,,,,,,,,,,,,,,,,,,,,,,,,,,2,0,2,0,1
,,,,,,,,2023-08-16_08h42.01.988,HF_wild_card,2022.2.4,Win32,20.0020002,5ce740c8636a5b0018f55968,64d2fd46c836a06233681665,64dc7da45c5711870ec86cfd,,,,,,,,,,,,,,,,,,,,,,,,,,,,,,,,,,,,,,,,0,0,0,0,1,,,,,,,,,,,,,,,,,,,,
