Condition,Low fixed image (Door1),Low risky image (Door2),High fixed image (Door3),High risky image (Door4),Extreme Wild Card,NonExtreme Wild Card,,date,expName,psychopyVersion,OS,frameRate,PROLIFIC_PID,STUDY_ID,SESSION_ID,mouse_2.x,mouse_2.y,mouse_2.leftButton,mouse_2.midButton,mouse_2.rightButton,mouse_2.clicked_name,Trial Type,Left Option Image,Right Option Image,Chosen Door,mouse.x,mouse.y,mouse.leftButton,mouse.midButton,mouse.rightButton,mouse.time,mouse.clicked_name,Feedback,Cumulative Reward,Block,trial.thisRepN,trial.thisTrialN,trial.thisN,trial.thisIndex,trial.ran,blocks.thisRepN,blocks.thisTrialN,blocks.thisN,blocks.thisIndex,blocks.ran,Money conversion,First Outcome Reported,Shown Door (First Outcome),Displayed Image (First Outcome),outcomes.thisRepN,outcomes.thisTrialN,outcomes.thisN,outcomes.thisIndex,outcomes.ran,judgments.thisRepN,judgments.thisTrialN,judgments.thisN,judgments.thisIndex,judgments.ran,freqMouse.x,freqMouse.y,freqMouse.leftButton,freqMouse.midButton,freqMouse.rightButton,freqMouse.clicked_name,FQJ for first outcome,FQJ for second outcome,Shown Door,Displayed Image,trials.thisRepN,trials.thisTrialN,trials.thisN,trials.thisIndex,trials.ran,judgBlock.thisRepN,judgBlock.thisTrialN,judgBlock.thisN,judgBlock.thisIndex,judgBlock.ran
1,resources/DG.BMP,resources/DBN.BMP,resources/DY.BMP,resources/DP.BMP,resources/DB.BMP,resources/DR.BMP,,2023-08-16_08h16.19.145,HF_wild_card,2022.2.4,Win32,59.09117769,63d7a7ee06462ef3355ea771,64d2fd46c836a06233681665,64dc7733356a092c90feb18e,,,,,,,,,,,,,,,,,,,,,,,,,,,,,,,,,,,,,,,,,,,,,,,,,,,,,,,,,,,,,,,,
,,,,,,,,2023-08-16_08h16.19.145,HF_wild_card,2022.2.4,Win32,59.09117769,63d7a7ee06462ef3355ea771,64d2fd46c836a06233681665,64dc7733356a092c90feb18e,0.024739583,-0.411458333,1,0,0,agree,,,,,,,,,,,,,,,,,,,,,,,,,,,,,,,,,,,,,,,,,,,,,,,,,,,,,,,,,,
,,,,,,,,2023-08-16_08h16.19.145,HF_wild_card,2022.2.4,Win32,59.09117769,63d7a7ee06462ef3355ea771,64d2fd46c836a06233681665,64dc7733356a092c90feb18e,,,,,,,,,,,,,,,,,,,,,,,,,,,,,,,,,,,,,,,,,,,,,,,,,,,,,,,,,,,,,,,,
,,,,,,,,2023-08-16_08h16.19.145,HF_wild_card,2022.2.4,Win32,59.09117769,63d7a7ee06462ef3355ea771,64d2fd46c836a06233681665,64dc7733356a092c90feb18e,,,,,,,decisionTrl,resources/DBN.BMP,resources/DG.BMP,Door2,-0.268229167,0.005208333,1,0,0,3.0097,optionLeft,40,40,1,0,0,0,0,1,,,,,,,,,,,,,,,,,,,,,,,,,,,,,,,,,,,,,,,
,,,,,,,,2023-08-16_08h16.19.145,HF_wild_card,2022.2.4,Win32,59.09117769,63d7a7ee06462ef3355ea771,64d2fd46c836a06233681665,64dc7733356a092c90feb18e,,,,,,,decisionTrl,resources/DY.BMP,resources/DP.BMP,Door4,0.45703125,-0.06640625,1,0,0,1.444,optionRight,60,100,1,1,0,1,0,1,,,,,,,,,,,,,,,,,,,,,,,,,,,,,,,,,,,,,,,
,,,,,,,,2023-08-16_08h16.19.145,HF_wild_card,2022.2.4,Win32,59.09117769,63d7a7ee06462ef3355ea771,64d2fd46c836a06233681665,64dc7733356a092c90feb18e,,,,,,,sngl,resources/Empty.png,resources/DY.BMP,Door3,0.352864583,-0.014322917,1,0,0,1.3806,optionRight,70,170,1,2,0,2,0,1,,,,,,,,,,,,,,,,,,,,,,,,,,,,,,,,,,,,,,,
,,,,,,,,2023-08-16_08h16.19.145,HF_wild_card,2022.2.4,Win32,59.09117769,63d7a7ee06462ef3355ea771,64d2fd46c836a06233681665,64dc7733356a092c90feb18e,,,,,,,sngl,resources/Empty.png,resources/DG.BMP,Door1,0.408854167,-0.022135417,1,0,0,0.8945,optionRight,30,200,1,3,0,3,0,1,,,,,,,,,,,,,,,,,,,,,,,,,,,,,,,,,,,,,,,
,,,,,,,,2023-08-16_08h16.19.145,HF_wild_card,2022.2.4,Win32,59.09117769,63d7a7ee06462ef3355ea771,64d2fd46c836a06233681665,64dc7733356a092c90feb18e,,,,,,,decisionTrl,resources/DR.BMP,resources/DP.BMP,WildCard_NonEx,-0.321614583,-0.020833333,1,0,0,1.379,optionLeft,45,245,1,4,0,4,0,1,,,,,,,,,,,,,,,,,,,,,,,,,,,,,,,,,,,,,,,
,,,,,,,,2023-08-16_08h16.19.145,HF_wild_card,2022.2.4,Win32,59.09117769,63d7a7ee06462ef3355ea771,64d2fd46c836a06233681665,64dc7733356a092c90feb18e,,,,,,,decisionTrl,resources/DR.BMP,resources/DBN.BMP,WildCard_NonEx,-0.41796875,-0.001302083,1,0,0,1.0291,optionLeft,45,290,1,5,0,5,0,1,,,,,,,,,,,,,,,,,,,,,,,,,,,,,,,,,,,,,,,
,,,,,,,,2023-08-16_08h16.19.145,HF_wild_card,2022.2.4,Win32,59.09117769,63d7a7ee06462ef3355ea771,64d2fd46c836a06233681665,64dc7733356a092c90feb18e,,,,,,,sngl,resources/Empty.png,resources/DR.BMP,WildCard_NonEx,0.307291667,-0.0234375,1,0,0,0.8731,optionRight,45,335,1,6,0,6,0,1,,,,,,,,,,,,,,,,,,,,,,,,,,,,,,,,,,,,,,,
,,,,,,,,2023-08-16_08h16.19.145,HF_wild_card,2022.2.4,Win32,59.09117769,63d7a7ee06462ef3355ea771,64d2fd46c836a06233681665,64dc7733356a092c90feb18e,,,,,,,sngl,resources/DP.BMP,resources/Empty.png,Door4,-0.322916667,0.002604167,1,0,0,0.8791,optionLeft,80,415,1,7,0,7,0,1,,,,,,,,,,,,,,,,,,,,,,,,,,,,,,,,,,,,,,,
,,,,,,,,2023-08-16_08h16.19.145,HF_wild_card,2022.2.4,Win32,59.09117769,63d7a7ee06462ef3355ea771,64d2fd46c836a06233681665,64dc7733356a092c90feb18e,,,,,,,ctch,resources/DY.BMP,resources/DBN.BMP,Door3,-0.328125,-0.015625,1,0,0,1.1307,optionLeft,70,485,1,8,0,8,0,1,,,,,,,,,,,,,,,,,,,,,,,,,,,,,,,,,,,,,,,
,,,,,,,,2023-08-16_08h16.19.145,HF_wild_card,2022.2.4,Win32,59.09117769,63d7a7ee06462ef3355ea771,64d2fd46c836a06233681665,64dc7733356a092c90feb18e,,,,,,,sngl,resources/Empty.png,resources/DBN.BMP,Door2,0.272135417,0.009114583,1,0,0,0.9457,optionRight,20,505,1,9,0,9,0,1,,,,,,,,,,,,,,,,,,,,,,,,,,,,,,,,,,,,,,,
,,,,,,,,2023-08-16_08h16.19.145,HF_wild_card,2022.2.4,Win32,59.09117769,63d7a7ee06462ef3355ea771,64d2fd46c836a06233681665,64dc7733356a092c90feb18e,,,,,,,decisionTrl,resources/DBN.BMP,resources/DG.BMP,Door1,0.40234375,-0.015625,1,0,0,1.0468,optionRight,30,535,1,10,0,10,0,1,,,,,,,,,,,,,,,,,,,,,,,,,,,,,,,,,,,,,,,
,,,,,,,,2023-08-16_08h16.19.145,HF_wild_card,2022.2.4,Win32,59.09117769,63d7a7ee06462ef3355ea771,64d2fd46c836a06233681665,64dc7733356a092c90feb18e,,,,,,,decisionTrl,resources/DY.BMP,resources/DR.BMP,WildCard_NonEx,0.354166667,-0.024739583,1,0,0,1.1307,optionRight,45,580,1,11,0,11,0,1,,,,,,,,,,,,,,,,,,,,,,,,,,,,,,,,,,,,,,,
,,,,,,,,2023-08-16_08h16.19.145,HF_wild_card,2022.2.4,Win32,59.09117769,63d7a7ee06462ef3355ea771,64d2fd46c836a06233681665,64dc7733356a092c90feb18e,,,,,,,ctch,resources/DP.BMP,resources/DG.BMP,Door4,-0.3515625,-0.009114583,1,0,0,0.9615,optionLeft,60,640,1,12,0,12,0,1,,,,,,,,,,,,,,,,,,,,,,,,,,,,,,,,,,,,,,,
,,,,,,,,2023-08-16_08h16.19.145,HF_wild_card,2022.2.4,Win32,59.09117769,63d7a7ee06462ef3355ea771,64d2fd46c836a06233681665,64dc7733356a092c90feb18e,,,,,,,decisionTrl,resources/DY.BMP,resources/DP.BMP,Door4,0.385416667,-0.00390625,1,0,0,0.928,optionRight,80,720,1,13,0,13,0,1,,,,,,,,,,,,,,,,,,,,,,,,,,,,,,,,,,,,,,,
,,,,,,,,2023-08-16_08h16.19.145,HF_wild_card,2022.2.4,Win32,59.09117769,63d7a7ee06462ef3355ea771,64d2fd46c836a06233681665,64dc7733356a092c90feb18e,,,,,,,decisionTrl,resources/DP.BMP,resources/DY.BMP,Door4,-0.4609375,-0.033854167,1,0,0,0.8122,optionLeft,60,780,1,14,0,14,0,1,,,,,,,,,,,,,,,,,,,,,,,,,,,,,,,,,,,,,,,
,,,,,,,,2023-08-16_08h16.19.145,HF_wild_card,2022.2.4,Win32,59.09117769,63d7a7ee06462ef3355ea771,64d2fd46c836a06233681665,64dc7733356a092c90feb18e,,,,,,,decisionTrl,resources/DG.BMP,resources/DR.BMP,WildCard_NonEx,0.40625,-0.006510417,1,0,0,0.7288,optionRight,45,825,1,15,0,15,0,1,,,,,,,,,,,,,,,,,,,,,,,,,,,,,,,,,,,,,,,
,,,,,,,,2023-08-16_08h16.19.145,HF_wild_card,2022.2.4,Win32,59.09117769,63d7a7ee06462ef3355ea771,64d2fd46c836a06233681665,64dc7733356a092c90feb18e,,,,,,,decisionTrl,resources/DY.BMP,resources/DP.BMP,Door4,0.41796875,-0.069010417,1,0,0,0.6947,optionRight,80,905,1,16,0,16,0,1,,,,,,,,,,,,,,,,,,,,,,,,,,,,,,,,,,,,,,,
,,,,,,,,2023-08-16_08h16.19.145,HF_wild_card,2022.2.4,Win32,59.09117769,63d7a7ee06462ef3355ea771,64d2fd46c836a06233681665,64dc7733356a092c90feb18e,,,,,,,sngl,resources/Empty.png,resources/DP.BMP,Door4,0.319010417,-0.037760417,1,0,0,0.8625,optionRight,60,965,1,17,0,17,0,1,,,,,,,,,,,,,,,,,,,,,,,,,,,,,,,,,,,,,,,
,,,,,,,,2023-08-16_08h16.19.145,HF_wild_card,2022.2.4,Win32,59.09117769,63d7a7ee06462ef3355ea771,64d2fd46c836a06233681665,64dc7733356a092c90feb18e,,,,,,,sngl,resources/Empty.png,resources/DR.BMP,WildCard_NonEx,0.401041667,-0.037760417,1,0,0,0.6623,optionRight,55,1020,1,18,0,18,0,1,,,,,,,,,,,,,,,,,,,,,,,,,,,,,,,,,,,,,,,
,,,,,,,,2023-08-16_08h16.19.145,HF_wild_card,2022.2.4,Win32,59.09117769,63d7a7ee06462ef3355ea771,64d2fd46c836a06233681665,64dc7733356a092c90feb18e,,,,,,,decisionTrl,resources/DY.BMP,resources/DP.BMP,Door3,-0.368489583,0.001302083,1,0,0,0.7123,optionLeft,70,1090,1,19,0,19,0,1,,,,,,,,,,,,,,,,,,,,,,,,,,,,,,,,,,,,,,,
,,,,,,,,2023-08-16_08h16.19.145,HF_wild_card,2022.2.4,Win32,59.09117769,63d7a7ee06462ef3355ea771,64d2fd46c836a06233681665,64dc7733356a092c90feb18e,,,,,,,decisionTrl,resources/DP.BMP,resources/DR.BMP,WildCard_NonEx,0.333333333,-0.02734375,1,0,0,0.862,optionRight,45,1135,1,20,0,20,0,1,,,,,,,,,,,,,,,,,,,,,,,,,,,,,,,,,,,,,,,
,,,,,,,,2023-08-16_08h16.19.145,HF_wild_card,2022.2.4,Win32,59.09117769,63d7a7ee06462ef3355ea771,64d2fd46c836a06233681665,64dc7733356a092c90feb18e,,,,,,,ctch,resources/DG.BMP,resources/DP.BMP,Door4,0.380208333,-0.029947917,1,0,0,0.6954,optionRight,80,1215,1,21,0,21,0,1,,,,,,,,,,,,,,,,,,,,,,,,,,,,,,,,,,,,,,,
,,,,,,,,2023-08-16_08h16.19.145,HF_wild_card,2022.2.4,Win32,59.09117769,63d7a7ee06462ef3355ea771,64d2fd46c836a06233681665,64dc7733356a092c90feb18e,,,,,,,decisionTrl,resources/DP.BMP,resources/DY.BMP,Door4,-0.268229167,-0.03515625,1,0,0,1.264,optionLeft,80,1295,1,22,0,22,0,1,,,,,,,,,,,,,,,,,,,,,,,,,,,,,,,,,,,,,,,
,,,,,,,,2023-08-16_08h16.19.145,HF_wild_card,2022.2.4,Win32,59.09117769,63d7a7ee06462ef3355ea771,64d2fd46c836a06233681665,64dc7733356a092c90feb18e,,,,,,,decisionTrl,resources/DR.BMP,resources/DG.BMP,WildCard_NonEx,-0.348958333,-0.006510417,1,0,0,0.8129,optionLeft,55,1350,1,23,0,23,0,1,,,,,,,,,,,,,,,,,,,,,,,,,,,,,,,,,,,,,,,
,,,,,,,,2023-08-16_08h16.19.145,HF_wild_card,2022.2.4,Win32,59.09117769,63d7a7ee06462ef3355ea771,64d2fd46c836a06233681665,64dc7733356a092c90feb18e,,,,,,,decisionTrl,resources/DG.BMP,resources/DBN.BMP,Door2,0.3671875,-0.026041667,1,0,0,1.3781,optionRight,40,1390,1,24,0,24,0,1,,,,,,,,,,,,,,,,,,,,,,,,,,,,,,,,,,,,,,,
,,,,,,,,2023-08-16_08h16.19.145,HF_wild_card,2022.2.4,Win32,59.09117769,63d7a7ee06462ef3355ea771,64d2fd46c836a06233681665,64dc7733356a092c90feb18e,,,,,,,ctch,resources/DG.BMP,resources/DP.BMP,Door4,0.4296875,-0.0546875,1,0,0,0.643,optionRight,80,1470,1,25,0,25,0,1,,,,,,,,,,,,,,,,,,,,,,,,,,,,,,,,,,,,,,,
,,,,,,,,2023-08-16_08h16.19.145,HF_wild_card,2022.2.4,Win32,59.09117769,63d7a7ee06462ef3355ea771,64d2fd46c836a06233681665,64dc7733356a092c90feb18e,,,,,,,sngl,resources/DR.BMP,resources/Empty.png,WildCard_NonEx,-0.541666667,-0.0390625,1,0,0,0.6747,optionLeft,55,1525,1,26,0,26,0,1,,,,,,,,,,,,,,,,,,,,,,,,,,,,,,,,,,,,,,,
,,,,,,,,2023-08-16_08h16.19.145,HF_wild_card,2022.2.4,Win32,59.09117769,63d7a7ee06462ef3355ea771,64d2fd46c836a06233681665,64dc7733356a092c90feb18e,,,,,,,sngl,resources/DR.BMP,resources/Empty.png,WildCard_NonEx,-0.29296875,-0.015625,1,0,0,0.6297,optionLeft,45,1570,1,27,0,27,0,1,,,,,,,,,,,,,,,,,,,,,,,,,,,,,,,,,,,,,,,
,,,,,,,,2023-08-16_08h16.19.145,HF_wild_card,2022.2.4,Win32,59.09117769,63d7a7ee06462ef3355ea771,64d2fd46c836a06233681665,64dc7733356a092c90feb18e,,,,,,,decisionTrl,resources/DBN.BMP,resources/DG.BMP,Door1,0.46484375,-0.022135417,1,0,0,0.7797,optionRight,30,1600,1,28,0,28,0,1,,,,,,,,,,,,,,,,,,,,,,,,,,,,,,,,,,,,,,,
,,,,,,,,2023-08-16_08h16.19.145,HF_wild_card,2022.2.4,Win32,59.09117769,63d7a7ee06462ef3355ea771,64d2fd46c836a06233681665,64dc7733356a092c90feb18e,,,,,,,decisionTrl,resources/DBN.BMP,resources/DR.BMP,WildCard_NonEx,0.313802083,-0.022135417,1,0,0,0.5627,optionRight,45,1645,1,29,0,29,0,1,,,,,,,,,,,,,,,,,,,,,,,,,,,,,,,,,,,,,,,
,,,,,,,,2023-08-16_08h16.19.145,HF_wild_card,2022.2.4,Win32,59.09117769,63d7a7ee06462ef3355ea771,64d2fd46c836a06233681665,64dc7733356a092c90feb18e,,,,,,,sngl,resources/DY.BMP,resources/Empty.png,Door3,-0.309895833,-0.036458333,1,0,0,0.6614,optionLeft,70,1715,1,30,0,30,0,1,,,,,,,,,,,,,,,,,,,,,,,,,,,,,,,,,,,,,,,
,,,,,,,,2023-08-16_08h16.19.145,HF_wild_card,2022.2.4,Win32,59.09117769,63d7a7ee06462ef3355ea771,64d2fd46c836a06233681665,64dc7733356a092c90feb18e,,,,,,,decisionTrl,resources/DG.BMP,resources/DBN.BMP,Door1,-0.337239583,-0.052083333,1,0,0,0.7465,optionLeft,30,1745,1,31,0,31,0,1,,,,,,,,,,,,,,,,,,,,,,,,,,,,,,,,,,,,,,,
,,,,,,,,2023-08-16_08h16.19.145,HF_wild_card,2022.2.4,Win32,59.09117769,63d7a7ee06462ef3355ea771,64d2fd46c836a06233681665,64dc7733356a092c90feb18e,,,,,,,decisionTrl,resources/DP.BMP,resources/DY.BMP,Door4,-0.328125,-0.0234375,1,0,0,0.8962,optionLeft,60,1805,1,32,0,32,0,1,,,,,,,,,,,,,,,,,,,,,,,,,,,,,,,,,,,,,,,
,,,,,,,,2023-08-16_08h16.19.145,HF_wild_card,2022.2.4,Win32,59.09117769,63d7a7ee06462ef3355ea771,64d2fd46c836a06233681665,64dc7733356a092c90feb18e,,,,,,,decisionTrl,resources/DBN.BMP,resources/DG.BMP,Door1,0.376302083,-0.02734375,1,0,0,0.678,optionRight,30,1835,1,33,0,33,0,1,,,,,,,,,,,,,,,,,,,,,,,,,,,,,,,,,,,,,,,
,,,,,,,,2023-08-16_08h16.19.145,HF_wild_card,2022.2.4,Win32,59.09117769,63d7a7ee06462ef3355ea771,64d2fd46c836a06233681665,64dc7733356a092c90feb18e,,,,,,,ctch,resources/DY.BMP,resources/DBN.BMP,Door2,0.329427083,-0.029947917,1,0,0,0.6293,optionRight,40,1875,1,34,0,34,0,1,,,,,,,,,,,,,,,,,,,,,,,,,,,,,,,,,,,,,,,
,,,,,,,,2023-08-16_08h16.19.145,HF_wild_card,2022.2.4,Win32,59.09117769,63d7a7ee06462ef3355ea771,64d2fd46c836a06233681665,64dc7733356a092c90feb18e,,,,,,,decisionTrl,resources/DP.BMP,resources/DY.BMP,Door3,0.322916667,-0.024739583,1,0,0,0.7623,optionRight,70,1945,1,35,0,35,0,1,,,,,,,,,,,,,,,,,,,,,,,,,,,,,,,,,,,,,,,
,,,,,,,,2023-08-16_08h16.19.145,HF_wild_card,2022.2.4,Win32,59.09117769,63d7a7ee06462ef3355ea771,64d2fd46c836a06233681665,64dc7733356a092c90feb18e,,,,,,,ctch,resources/DP.BMP,resources/DG.BMP,Door4,-0.33984375,-0.041666667,1,0,0,0.8619,optionLeft,80,2025,1,36,0,36,0,1,,,,,,,,,,,,,,,,,,,,,,,,,,,,,,,,,,,,,,,
,,,,,,,,2023-08-16_08h16.19.145,HF_wild_card,2022.2.4,Win32,59.09117769,63d7a7ee06462ef3355ea771,64d2fd46c836a06233681665,64dc7733356a092c90feb18e,,,,,,,ctch,resources/DBN.BMP,resources/DY.BMP,Door3,0.528645833,-0.02734375,1,0,0,0.6631,optionRight,70,2095,1,37,0,37,0,1,,,,,,,,,,,,,,,,,,,,,,,,,,,,,,,,,,,,,,,
,,,,,,,,2023-08-16_08h16.19.145,HF_wild_card,2022.2.4,Win32,59.09117769,63d7a7ee06462ef3355ea771,64d2fd46c836a06233681665,64dc7733356a092c90feb18e,,,,,,,sngl,resources/DG.BMP,resources/Empty.png,Door1,-0.399739583,-0.01953125,1,0,0,0.5964,optionLeft,30,2125,1,38,0,38,0,1,,,,,,,,,,,,,,,,,,,,,,,,,,,,,,,,,,,,,,,
,,,,,,,,2023-08-16_08h16.19.145,HF_wild_card,2022.2.4,Win32,59.09117769,63d7a7ee06462ef3355ea771,64d2fd46c836a06233681665,64dc7733356a092c90feb18e,,,,,,,sngl,resources/DBN.BMP,resources/Empty.png,Door2,-0.303385417,-0.024739583,1,0,0,0.8292,optionLeft,40,2165,1,39,0,39,0,1,,,,,,,,,,,,,,,,,,,,,,,,,,,,,,,,,,,,,,,
,,,,,,,,2023-08-16_08h16.19.145,HF_wild_card,2022.2.4,Win32,59.09117769,63d7a7ee06462ef3355ea771,64d2fd46c836a06233681665,64dc7733356a092c90feb18e,,,,,,,ctch,resources/DBN.BMP,resources/DY.BMP,Door3,0.404947917,0.006510417,1,0,0,1.0111,optionRight,70,2235,1,40,0,40,0,1,,,,,,,,,,,,,,,,,,,,,,,,,,,,,,,,,,,,,,,
,,,,,,,,2023-08-16_08h16.19.145,HF_wild_card,2022.2.4,Win32,59.09117769,63d7a7ee06462ef3355ea771,64d2fd46c836a06233681665,64dc7733356a092c90feb18e,,,,,,,decisionTrl,resources/DR.BMP,resources/DY.BMP,WildCard_NonEx,-0.333333333,-0.013020833,1,0,0,0.9128,optionLeft,45,2280,1,41,0,41,0,1,,,,,,,,,,,,,,,,,,,,,,,,,,,,,,,,,,,,,,,
,,,,,,,,2023-08-16_08h16.19.145,HF_wild_card,2022.2.4,Win32,59.09117769,63d7a7ee06462ef3355ea771,64d2fd46c836a06233681665,64dc7733356a092c90feb18e,,,,,,,decisionTrl,resources/DG.BMP,resources/DBN.BMP,Door1,-0.287760417,-0.071614583,1,0,0,0.9298,optionLeft,30,2310,1,42,0,42,0,1,,,,,,,,,,,,,,,,,,,,,,,,,,,,,,,,,,,,,,,
,,,,,,,,2023-08-16_08h16.19.145,HF_wild_card,2022.2.4,Win32,59.09117769,63d7a7ee06462ef3355ea771,64d2fd46c836a06233681665,64dc7733356a092c90feb18e,,,,,,,decisionTrl,resources/DG.BMP,resources/DBN.BMP,Door1,-0.403645833,-0.04296875,1,0,0,0.7474,optionLeft,30,2340,1,43,0,43,0,1,,,,,,,,,,,,,,,,,,,,,,,,,,,,,,,,,,,,,,,
,,,,,,,,2023-08-16_08h16.19.145,HF_wild_card,2022.2.4,Win32,59.09117769,63d7a7ee06462ef3355ea771,64d2fd46c836a06233681665,64dc7733356a092c90feb18e,,,,,,,,,,,,,,,,,,,,,,,,,,0,0,0,0,1,,,,,,,,,,,,,,,,,,,,,,,,,,,,,,,,,,
,,,,,,,,2023-08-16_08h16.19.145,HF_wild_card,2022.2.4,Win32,59.09117769,63d7a7ee06462ef3355ea771,64d2fd46c836a06233681665,64dc7733356a092c90feb18e,,,,,,,sngl,resources/DR.BMP,resources/Empty.png,WildCard_NonEx,-0.305989583,-0.02734375,1,0,0,0.9881,optionLeft,55,2395,2,0,0,0,0,1,,,,,,,,,,,,,,,,,,,,,,,,,,,,,,,,,,,,,,,
,,,,,,,,2023-08-16_08h16.19.145,HF_wild_card,2022.2.4,Win32,59.09117769,63d7a7ee06462ef3355ea771,64d2fd46c836a06233681665,64dc7733356a092c90feb18e,,,,,,,decisionTrl,resources/DG.BMP,resources/DR.BMP,WildCard_NonEx,0.283854167,-0.005208333,1,0,0,0.6451,optionRight,55,2450,2,1,0,1,0,1,,,,,,,,,,,,,,,,,,,,,,,,,,,,,,,,,,,,,,,
,,,,,,,,2023-08-16_08h16.19.145,HF_wild_card,2022.2.4,Win32,59.09117769,63d7a7ee06462ef3355ea771,64d2fd46c836a06233681665,64dc7733356a092c90feb18e,,,,,,,ctch,resources/DP.BMP,resources/DG.BMP,Door4,-0.369791667,-0.06640625,1,0,0,0.8436,optionLeft,60,2510,2,2,0,2,0,1,,,,,,,,,,,,,,,,,,,,,,,,,,,,,,,,,,,,,,,
,,,,,,,,2023-08-16_08h16.19.145,HF_wild_card,2022.2.4,Win32,59.09117769,63d7a7ee06462ef3355ea771,64d2fd46c836a06233681665,64dc7733356a092c90feb18e,,,,,,,decisionTrl,resources/DG.BMP,resources/DBN.BMP,Door1,-0.412760417,0.040364583,1,0,0,0.915,optionLeft,30,2540,2,3,0,3,0,1,,,,,,,,,,,,,,,,,,,,,,,,,,,,,,,,,,,,,,,
,,,,,,,,2023-08-16_08h16.19.145,HF_wild_card,2022.2.4,Win32,59.09117769,63d7a7ee06462ef3355ea771,64d2fd46c836a06233681665,64dc7733356a092c90feb18e,,,,,,,decisionTrl,resources/DR.BMP,resources/DG.BMP,WildCard_NonEx,-0.303385417,-0.0234375,1,0,0,0.6442,optionLeft,45,2585,2,4,0,4,0,1,,,,,,,,,,,,,,,,,,,,,,,,,,,,,,,,,,,,,,,
,,,,,,,,2023-08-16_08h16.19.145,HF_wild_card,2022.2.4,Win32,59.09117769,63d7a7ee06462ef3355ea771,64d2fd46c836a06233681665,64dc7733356a092c90feb18e,,,,,,,decisionTrl,resources/DR.BMP,resources/DBN.BMP,WildCard_NonEx,-0.326822917,0.001302083,1,0,0,0.5621,optionLeft,55,2640,2,5,0,5,0,1,,,,,,,,,,,,,,,,,,,,,,,,,,,,,,,,,,,,,,,
,,,,,,,,2023-08-16_08h16.19.145,HF_wild_card,2022.2.4,Win32,59.09117769,63d7a7ee06462ef3355ea771,64d2fd46c836a06233681665,64dc7733356a092c90feb18e,,,,,,,sngl,resources/DR.BMP,resources/Empty.png,WildCard_NonEx,-0.328125,-0.020833333,1,0,0,0.63,optionLeft,45,2685,2,6,0,6,0,1,,,,,,,,,,,,,,,,,,,,,,,,,,,,,,,,,,,,,,,
,,,,,,,,2023-08-16_08h16.19.145,HF_wild_card,2022.2.4,Win32,59.09117769,63d7a7ee06462ef3355ea771,64d2fd46c836a06233681665,64dc7733356a092c90feb18e,,,,,,,ctch,resources/DY.BMP,resources/DBN.BMP,Door3,-0.328125,-0.028645833,1,0,0,0.7457,optionLeft,70,2755,2,7,0,7,0,1,,,,,,,,,,,,,,,,,,,,,,,,,,,,,,,,,,,,,,,
,,,,,,,,2023-08-16_08h16.19.145,HF_wild_card,2022.2.4,Win32,59.09117769,63d7a7ee06462ef3355ea771,64d2fd46c836a06233681665,64dc7733356a092c90feb18e,,,,,,,decisionTrl,resources/DY.BMP,resources/DP.BMP,Door4,0.376302083,-0.052083333,1,0,0,0.7649,optionRight,80,2835,2,8,0,8,0,1,,,,,,,,,,,,,,,,,,,,,,,,,,,,,,,,,,,,,,,
,,,,,,,,2023-08-16_08h16.19.145,HF_wild_card,2022.2.4,Win32,59.09117769,63d7a7ee06462ef3355ea771,64d2fd46c836a06233681665,64dc7733356a092c90feb18e,,,,,,,decisionTrl,resources/DY.BMP,resources/DP.BMP,Door4,0.33203125,-0.010416667,1,0,0,0.7463,optionRight,80,2915,2,9,0,9,0,1,,,,,,,,,,,,,,,,,,,,,,,,,,,,,,,,,,,,,,,
,,,,,,,,2023-08-16_08h16.19.145,HF_wild_card,2022.2.4,Win32,59.09117769,63d7a7ee06462ef3355ea771,64d2fd46c836a06233681665,64dc7733356a092c90feb18e,,,,,,,sngl,resources/Empty.png,resources/DBN.BMP,Door2,0.303385417,-0.02734375,1,0,0,0.6275,optionRight,40,2955,2,10,0,10,0,1,,,,,,,,,,,,,,,,,,,,,,,,,,,,,,,,,,,,,,,
,,,,,,,,2023-08-16_08h16.19.145,HF_wild_card,2022.2.4,Win32,59.09117769,63d7a7ee06462ef3355ea771,64d2fd46c836a06233681665,64dc7733356a092c90feb18e,,,,,,,decisionTrl,resources/DBN.BMP,resources/DR.BMP,WildCard_NonEx,0.32421875,0.022135417,1,0,0,0.6643,optionRight,55,3010,2,11,0,11,0,1,,,,,,,,,,,,,,,,,,,,,,,,,,,,,,,,,,,,,,,
,,,,,,,,2023-08-16_08h16.19.145,HF_wild_card,2022.2.4,Win32,59.09117769,63d7a7ee06462ef3355ea771,64d2fd46c836a06233681665,64dc7733356a092c90feb18e,,,,,,,decisionTrl,resources/DG.BMP,resources/DBN.BMP,Door1,-0.305989583,0.006510417,1,0,0,1.0313,optionLeft,30,3040,2,12,0,12,0,1,,,,,,,,,,,,,,,,,,,,,,,,,,,,,,,,,,,,,,,
,,,,,,,,2023-08-16_08h16.19.145,HF_wild_card,2022.2.4,Win32,59.09117769,63d7a7ee06462ef3355ea771,64d2fd46c836a06233681665,64dc7733356a092c90feb18e,,,,,,,ctch,resources/DG.BMP,resources/DP.BMP,Door4,0.28125,-0.005208333,1,0,0,0.8455,optionRight,80,3120,2,13,0,13,0,1,,,,,,,,,,,,,,,,,,,,,,,,,,,,,,,,,,,,,,,
,,,,,,,,2023-08-16_08h16.19.145,HF_wild_card,2022.2.4,Win32,59.09117769,63d7a7ee06462ef3355ea771,64d2fd46c836a06233681665,64dc7733356a092c90feb18e,,,,,,,decisionTrl,resources/DBN.BMP,resources/DG.BMP,Door1,0.408854167,0.029947917,1,0,0,1.0136,optionRight,30,3150,2,14,0,14,0,1,,,,,,,,,,,,,,,,,,,,,,,,,,,,,,,,,,,,,,,
,,,,,,,,2023-08-16_08h16.19.145,HF_wild_card,2022.2.4,Win32,59.09117769,63d7a7ee06462ef3355ea771,64d2fd46c836a06233681665,64dc7733356a092c90feb18e,,,,,,,decisionTrl,resources/DP.BMP,resources/DR.BMP,WildCard_NonEx,0.329427083,-0.033854167,1,0,0,0.9308,optionRight,55,3205,2,15,0,15,0,1,,,,,,,,,,,,,,,,,,,,,,,,,,,,,,,,,,,,,,,
,,,,,,,,2023-08-16_08h16.19.145,HF_wild_card,2022.2.4,Win32,59.09117769,63d7a7ee06462ef3355ea771,64d2fd46c836a06233681665,64dc7733356a092c90feb18e,,,,,,,ctch,resources/DY.BMP,resources/DBN.BMP,Door3,-0.328125,-0.018229167,1,0,0,0.8974,optionLeft,70,3275,2,16,0,16,0,1,,,,,,,,,,,,,,,,,,,,,,,,,,,,,,,,,,,,,,,
,,,,,,,,2023-08-16_08h16.19.145,HF_wild_card,2022.2.4,Win32,59.09117769,63d7a7ee06462ef3355ea771,64d2fd46c836a06233681665,64dc7733356a092c90feb18e,,,,,,,sngl,resources/DBN.BMP,resources/Empty.png,Door2,-0.305989583,0.002604167,1,0,0,0.831,optionLeft,20,3295,2,17,0,17,0,1,,,,,,,,,,,,,,,,,,,,,,,,,,,,,,,,,,,,,,,
,,,,,,,,2023-08-16_08h16.19.145,HF_wild_card,2022.2.4,Win32,59.09117769,63d7a7ee06462ef3355ea771,64d2fd46c836a06233681665,64dc7733356a092c90feb18e,,,,,,,sngl,resources/Empty.png,resources/DY.BMP,Door3,0.372395833,-0.015625,1,0,0,0.613,optionRight,70,3365,2,18,0,18,0,1,,,,,,,,,,,,,,,,,,,,,,,,,,,,,,,,,,,,,,,
,,,,,,,,2023-08-16_08h16.19.145,HF_wild_card,2022.2.4,Win32,59.09117769,63d7a7ee06462ef3355ea771,64d2fd46c836a06233681665,64dc7733356a092c90feb18e,,,,,,,decisionTrl,resources/DP.BMP,resources/DY.BMP,Door4,-0.4140625,0.00390625,1,0,0,0.6987,optionLeft,60,3425,2,19,0,19,0,1,,,,,,,,,,,,,,,,,,,,,,,,,,,,,,,,,,,,,,,
,,,,,,,,2023-08-16_08h16.19.145,HF_wild_card,2022.2.4,Win32,59.09117769,63d7a7ee06462ef3355ea771,64d2fd46c836a06233681665,64dc7733356a092c90feb18e,,,,,,,decisionTrl,resources/DBN.BMP,resources/DG.BMP,Door1,0.334635417,0.016927083,1,0,0,1.0457,optionRight,30,3455,2,20,0,20,0,1,,,,,,,,,,,,,,,,,,,,,,,,,,,,,,,,,,,,,,,
,,,,,,,,2023-08-16_08h16.19.145,HF_wild_card,2022.2.4,Win32,59.09117769,63d7a7ee06462ef3355ea771,64d2fd46c836a06233681665,64dc7733356a092c90feb18e,,,,,,,decisionTrl,resources/DBN.BMP,resources/DG.BMP,Door1,0.29296875,-0.022135417,1,0,0,0.6819,optionRight,30,3485,2,21,0,21,0,1,,,,,,,,,,,,,,,,,,,,,,,,,,,,,,,,,,,,,,,
,,,,,,,,2023-08-16_08h16.19.145,HF_wild_card,2022.2.4,Win32,59.09117769,63d7a7ee06462ef3355ea771,64d2fd46c836a06233681665,64dc7733356a092c90feb18e,,,,,,,ctch,resources/DBN.BMP,resources/DY.BMP,Door3,0.31640625,-0.016927083,1,0,0,0.7954,optionRight,70,3555,2,22,0,22,0,1,,,,,,,,,,,,,,,,,,,,,,,,,,,,,,,,,,,,,,,
,,,,,,,,2023-08-16_08h16.19.145,HF_wild_card,2022.2.4,Win32,59.09117769,63d7a7ee06462ef3355ea771,64d2fd46c836a06233681665,64dc7733356a092c90feb18e,,,,,,,sngl,resources/Empty.png,resources/DR.BMP,WildCard_NonEx,0.440104167,-0.013020833,1,0,0,0.7266,optionRight,45,3600,2,23,0,23,0,1,,,,,,,,,,,,,,,,,,,,,,,,,,,,,,,,,,,,,,,
,,,,,,,,2023-08-16_08h16.19.145,HF_wild_card,2022.2.4,Win32,59.09117769,63d7a7ee06462ef3355ea771,64d2fd46c836a06233681665,64dc7733356a092c90feb18e,,,,,,,decisionTrl,resources/DP.BMP,resources/DY.BMP,Door4,-0.3515625,-0.046875,1,0,0,0.8808,optionLeft,80,3680,2,24,0,24,0,1,,,,,,,,,,,,,,,,,,,,,,,,,,,,,,,,,,,,,,,
,,,,,,,,2023-08-16_08h16.19.145,HF_wild_card,2022.2.4,Win32,59.09117769,63d7a7ee06462ef3355ea771,64d2fd46c836a06233681665,64dc7733356a092c90feb18e,,,,,,,sngl,resources/DG.BMP,resources/Empty.png,Door1,-0.322916667,-0.020833333,1,0,0,0.8645,optionLeft,30,3710,2,25,0,25,0,1,,,,,,,,,,,,,,,,,,,,,,,,,,,,,,,,,,,,,,,
,,,,,,,,2023-08-16_08h16.19.145,HF_wild_card,2022.2.4,Win32,59.09117769,63d7a7ee06462ef3355ea771,64d2fd46c836a06233681665,64dc7733356a092c90feb18e,,,,,,,decisionTrl,resources/DY.BMP,resources/DP.BMP,Door4,0.360677083,-0.046875,1,0,0,0.8477,optionRight,60,3770,2,26,0,26,0,1,,,,,,,,,,,,,,,,,,,,,,,,,,,,,,,,,,,,,,,
,,,,,,,,2023-08-16_08h16.19.145,HF_wild_card,2022.2.4,Win32,59.09117769,63d7a7ee06462ef3355ea771,64d2fd46c836a06233681665,64dc7733356a092c90feb18e,,,,,,,ctch,resources/DP.BMP,resources/DG.BMP,Door4,-0.325520833,-0.015625,1,0,0,0.7113,optionLeft,80,3850,2,27,0,27,0,1,,,,,,,,,,,,,,,,,,,,,,,,,,,,,,,,,,,,,,,
,,,,,,,,2023-08-16_08h16.19.145,HF_wild_card,2022.2.4,Win32,59.09117769,63d7a7ee06462ef3355ea771,64d2fd46c836a06233681665,64dc7733356a092c90feb18e,,,,,,,decisionTrl,resources/DBN.BMP,resources/DG.BMP,Door1,0.40234375,-0.00390625,1,0,0,0.8284,optionRight,30,3880,2,28,0,28,0,1,,,,,,,,,,,,,,,,,,,,,,,,,,,,,,,,,,,,,,,
,,,,,,,,2023-08-16_08h16.19.145,HF_wild_card,2022.2.4,Win32,59.09117769,63d7a7ee06462ef3355ea771,64d2fd46c836a06233681665,64dc7733356a092c90feb18e,,,,,,,decisionTrl,resources/DP.BMP,resources/DY.BMP,Door4,-0.360677083,-0.006510417,1,0,0,0.9291,optionLeft,60,3940,2,29,0,29,0,1,,,,,,,,,,,,,,,,,,,,,,,,,,,,,,,,,,,,,,,
,,,,,,,,2023-08-16_08h16.19.145,HF_wild_card,2022.2.4,Win32,59.09117769,63d7a7ee06462ef3355ea771,64d2fd46c836a06233681665,64dc7733356a092c90feb18e,,,,,,,decisionTrl,resources/DY.BMP,resources/DR.BMP,WildCard_NonEx,0.4140625,0.010416667,1,0,0,0.8118,optionRight,55,3995,2,30,0,30,0,1,,,,,,,,,,,,,,,,,,,,,,,,,,,,,,,,,,,,,,,
,,,,,,,,2023-08-16_08h16.19.145,HF_wild_card,2022.2.4,Win32,59.09117769,63d7a7ee06462ef3355ea771,64d2fd46c836a06233681665,64dc7733356a092c90feb18e,,,,,,,sngl,resources/DY.BMP,resources/Empty.png,Door3,-0.291666667,-0.002604167,1,0,0,0.8381,optionLeft,70,4065,2,31,0,31,0,1,,,,,,,,,,,,,,,,,,,,,,,,,,,,,,,,,,,,,,,
,,,,,,,,2023-08-16_08h16.19.145,HF_wild_card,2022.2.4,Win32,59.09117769,63d7a7ee06462ef3355ea771,64d2fd46c836a06233681665,64dc7733356a092c90feb18e,,,,,,,decisionTrl,resources/DG.BMP,resources/DBN.BMP,Door1,-0.294270833,0.014322917,1,0,0,0.9292,optionLeft,30,4095,2,32,0,32,0,1,,,,,,,,,,,,,,,,,,,,,,,,,,,,,,,,,,,,,,,
,,,,,,,,2023-08-16_08h16.19.145,HF_wild_card,2022.2.4,Win32,59.09117769,63d7a7ee06462ef3355ea771,64d2fd46c836a06233681665,64dc7733356a092c90feb18e,,,,,,,ctch,resources/DG.BMP,resources/DP.BMP,Door4,0.33203125,0,1,0,0,0.7965,optionRight,60,4155,2,33,0,33,0,1,,,,,,,,,,,,,,,,,,,,,,,,,,,,,,,,,,,,,,,
,,,,,,,,2023-08-16_08h16.19.145,HF_wild_card,2022.2.4,Win32,59.09117769,63d7a7ee06462ef3355ea771,64d2fd46c836a06233681665,64dc7733356a092c90feb18e,,,,,,,decisionTrl,resources/DR.BMP,resources/DP.BMP,Door4,0.361979167,0.001302083,1,0,0,1.0151,optionRight,60,4215,2,34,0,34,0,1,,,,,,,,,,,,,,,,,,,,,,,,,,,,,,,,,,,,,,,
,,,,,,,,2023-08-16_08h16.19.145,HF_wild_card,2022.2.4,Win32,59.09117769,63d7a7ee06462ef3355ea771,64d2fd46c836a06233681665,64dc7733356a092c90feb18e,,,,,,,sngl,resources/Empty.png,resources/DP.BMP,Door4,0.569010417,-0.010416667,1,0,0,0.6791,optionRight,80,4295,2,35,0,35,0,1,,,,,,,,,,,,,,,,,,,,,,,,,,,,,,,,,,,,,,,
,,,,,,,,2023-08-16_08h16.19.145,HF_wild_card,2022.2.4,Win32,59.09117769,63d7a7ee06462ef3355ea771,64d2fd46c836a06233681665,64dc7733356a092c90feb18e,,,,,,,decisionTrl,resources/DG.BMP,resources/DBN.BMP,Door1,-0.298177083,-0.013020833,1,0,0,0.8111,optionLeft,30,4325,2,36,0,36,0,1,,,,,,,,,,,,,,,,,,,,,,,,,,,,,,,,,,,,,,,
,,,,,,,,2023-08-16_08h16.19.145,HF_wild_card,2022.2.4,Win32,59.09117769,63d7a7ee06462ef3355ea771,64d2fd46c836a06233681665,64dc7733356a092c90feb18e,,,,,,,sngl,resources/Empty.png,resources/DR.BMP,WildCard_NonEx,0.46875,0.009114583,1,0,0,0.71,optionRight,55,4380,2,37,0,37,0,1,,,,,,,,,,,,,,,,,,,,,,,,,,,,,,,,,,,,,,,
,,,,,,,,2023-08-16_08h16.19.145,HF_wild_card,2022.2.4,Win32,59.09117769,63d7a7ee06462ef3355ea771,64d2fd46c836a06233681665,64dc7733356a092c90feb18e,,,,,,,ctch,resources/DBN.BMP,resources/DY.BMP,Door3,0.3125,-0.02734375,1,0,0,0.7618,optionRight,70,4450,2,38,0,38,0,1,,,,,,,,,,,,,,,,,,,,,,,,,,,,,,,,,,,,,,,
,,,,,,,,2023-08-16_08h16.19.145,HF_wild_card,2022.2.4,Win32,59.09117769,63d7a7ee06462ef3355ea771,64d2fd46c836a06233681665,64dc7733356a092c90feb18e,,,,,,,decisionTrl,resources/DY.BMP,resources/DP.BMP,Door4,0.369791667,-0.03125,1,0,0,0.7799,optionRight,60,4510,2,39,0,39,0,1,,,,,,,,,,,,,,,,,,,,,,,,,,,,,,,,,,,,,,,
,,,,,,,,2023-08-16_08h16.19.145,HF_wild_card,2022.2.4,Win32,59.09117769,63d7a7ee06462ef3355ea771,64d2fd46c836a06233681665,64dc7733356a092c90feb18e,,,,,,,decisionTrl,resources/DP.BMP,resources/DY.BMP,Door4,-0.376302083,-0.020833333,1,0,0,0.8454,optionLeft,60,4570,2,40,0,40,0,1,,,,,,,,,,,,,,,,,,,,,,,,,,,,,,,,,,,,,,,
,,,,,,,,2023-08-16_08h16.19.145,HF_wild_card,2022.2.4,Win32,59.09117769,63d7a7ee06462ef3355ea771,64d2fd46c836a06233681665,64dc7733356a092c90feb18e,,,,,,,decisionTrl,resources/DR.BMP,resources/DY.BMP,WildCard_NonEx,-0.32421875,-0.009114583,1,0,0,0.728,optionLeft,55,4625,2,41,0,41,0,1,,,,,,,,,,,,,,,,,,,,,,,,,,,,,,,,,,,,,,,
,,,,,,,,2023-08-16_08h16.19.145,HF_wild_card,2022.2.4,Win32,59.09117769,63d7a7ee06462ef3355ea771,64d2fd46c836a06233681665,64dc7733356a092c90feb18e,,,,,,,sngl,resources/Empty.png,resources/DG.BMP,Door1,0.473958333,-0.01171875,1,0,0,0.6936,optionRight,30,4655,2,42,0,42,0,1,,,,,,,,,,,,,,,,,,,,,,,,,,,,,,,,,,,,,,,
,,,,,,,,2023-08-16_08h16.19.145,HF_wild_card,2022.2.4,Win32,59.09117769,63d7a7ee06462ef3355ea771,64d2fd46c836a06233681665,64dc7733356a092c90feb18e,,,,,,,sngl,resources/DP.BMP,resources/Empty.png,Door4,-0.352864583,0.01171875,1,0,0,0.629,optionLeft,60,4715,2,43,0,43,0,1,,,,,,,,,,,,,,,,,,,,,,,,,,,,,,,,,,,,,,,
,,,,,,,,2023-08-16_08h16.19.145,HF_wild_card,2022.2.4,Win32,59.09117769,63d7a7ee06462ef3355ea771,64d2fd46c836a06233681665,64dc7733356a092c90feb18e,,,,,,,,,,,,,,,,,,,,,,,,,,1,0,1,0,1,,,,,,,,,,,,,,,,,,,,,,,,,,,,,,,,,,
,,,,,,,,2023-08-16_08h16.19.145,HF_wild_card,2022.2.4,Win32,59.09117769,63d7a7ee06462ef3355ea771,64d2fd46c836a06233681665,64dc7733356a092c90feb18e,,,,,,,ctch,resources/DBN.BMP,resources/DY.BMP,Door3,0.326822917,-0.005208333,1,0,0,0.9786,optionRight,70,4785,3,0,0,0,0,1,,,,,,,,,,,,,,,,,,,,,,,,,,,,,,,,,,,,,,,
,,,,,,,,2023-08-16_08h16.19.145,HF_wild_card,2022.2.4,Win32,59.09117769,63d7a7ee06462ef3355ea771,64d2fd46c836a06233681665,64dc7733356a092c90feb18e,,,,,,,sngl,resources/Empty.png,resources/DR.BMP,WildCard_NonEx,0.427083333,0.010416667,1,0,0,0.6263,optionRight,55,4840,3,1,0,1,0,1,,,,,,,,,,,,,,,,,,,,,,,,,,,,,,,,,,,,,,,
,,,,,,,,2023-08-16_08h16.19.145,HF_wild_card,2022.2.4,Win32,59.09117769,63d7a7ee06462ef3355ea771,64d2fd46c836a06233681665,64dc7733356a092c90feb18e,,,,,,,ctch,resources/DG.BMP,resources/DP.BMP,Door4,0.31640625,-0.001302083,1,0,0,0.9295,optionRight,60,4900,3,2,0,2,0,1,,,,,,,,,,,,,,,,,,,,,,,,,,,,,,,,,,,,,,,
,,,,,,,,2023-08-16_08h16.19.145,HF_wild_card,2022.2.4,Win32,59.09117769,63d7a7ee06462ef3355ea771,64d2fd46c836a06233681665,64dc7733356a092c90feb18e,,,,,,,sngl,resources/Empty.png,resources/DR.BMP,WildCard_NonEx,0.3125,0.005208333,1,0,0,0.6309,optionRight,45,4945,3,3,0,3,0,1,,,,,,,,,,,,,,,,,,,,,,,,,,,,,,,,,,,,,,,
,,,,,,,,2023-08-16_08h16.19.145,HF_wild_card,2022.2.4,Win32,59.09117769,63d7a7ee06462ef3355ea771,64d2fd46c836a06233681665,64dc7733356a092c90feb18e,,,,,,,sngl,resources/Empty.png,resources/DG.BMP,Door1,0.395833333,-0.01953125,1,0,0,0.6281,optionRight,30,4975,3,4,0,4,0,1,,,,,,,,,,,,,,,,,,,,,,,,,,,,,,,,,,,,,,,
,,,,,,,,2023-08-16_08h16.19.145,HF_wild_card,2022.2.4,Win32,59.09117769,63d7a7ee06462ef3355ea771,64d2fd46c836a06233681665,64dc7733356a092c90feb18e,,,,,,,ctch,resources/DBN.BMP,resources/DY.BMP,Door3,0.3515625,-0.005208333,1,0,0,0.6615,optionRight,70,5045,3,5,0,5,0,1,,,,,,,,,,,,,,,,,,,,,,,,,,,,,,,,,,,,,,,
,,,,,,,,2023-08-16_08h16.19.145,HF_wild_card,2022.2.4,Win32,59.09117769,63d7a7ee06462ef3355ea771,64d2fd46c836a06233681665,64dc7733356a092c90feb18e,,,,,,,decisionTrl,resources/DY.BMP,resources/DP.BMP,Door4,0.356770833,-0.01171875,1,0,0,0.7758,optionRight,60,5105,3,6,0,6,0,1,,,,,,,,,,,,,,,,,,,,,,,,,,,,,,,,,,,,,,,
,,,,,,,,2023-08-16_08h16.19.145,HF_wild_card,2022.2.4,Win32,59.09117769,63d7a7ee06462ef3355ea771,64d2fd46c836a06233681665,64dc7733356a092c90feb18e,,,,,,,ctch,resources/DG.BMP,resources/DP.BMP,Door4,0.279947917,-0.006510417,1,0,0,0.6958,optionRight,60,5165,3,7,0,7,0,1,,,,,,,,,,,,,,,,,,,,,,,,,,,,,,,,,,,,,,,
,,,,,,,,2023-08-16_08h16.19.145,HF_wild_card,2022.2.4,Win32,59.09117769,63d7a7ee06462ef3355ea771,64d2fd46c836a06233681665,64dc7733356a092c90feb18e,,,,,,,decisionTrl,resources/DR.BMP,resources/DY.BMP,WildCard_NonEx,-0.39453125,-0.013020833,1,0,0,0.6625,optionLeft,55,5220,3,8,0,8,0,1,,,,,,,,,,,,,,,,,,,,,,,,,,,,,,,,,,,,,,,
,,,,,,,,2023-08-16_08h16.19.145,HF_wild_card,2022.2.4,Win32,59.09117769,63d7a7ee06462ef3355ea771,64d2fd46c836a06233681665,64dc7733356a092c90feb18e,,,,,,,sngl,resources/DY.BMP,resources/Empty.png,Door3,-0.29296875,-0.00390625,1,0,0,0.7606,optionLeft,70,5290,3,9,0,9,0,1,,,,,,,,,,,,,,,,,,,,,,,,,,,,,,,,,,,,,,,
,,,,,,,,2023-08-16_08h16.19.145,HF_wild_card,2022.2.4,Win32,59.09117769,63d7a7ee06462ef3355ea771,64d2fd46c836a06233681665,64dc7733356a092c90feb18e,,,,,,,sngl,resources/Empty.png,resources/DP.BMP,Door4,0.354166667,0.005208333,1,0,0,0.8824,optionRight,60,5350,3,10,0,10,0,1,,,,,,,,,,,,,,,,,,,,,,,,,,,,,,,,,,,,,,,
,,,,,,,,2023-08-16_08h16.19.145,HF_wild_card,2022.2.4,Win32,59.09117769,63d7a7ee06462ef3355ea771,64d2fd46c836a06233681665,64dc7733356a092c90feb18e,,,,,,,ctch,resources/DY.BMP,resources/DBN.BMP,Door3,-0.32421875,-0.05859375,1,0,0,0.9128,optionLeft,70,5420,3,11,0,11,0,1,,,,,,,,,,,,,,,,,,,,,,,,,,,,,,,,,,,,,,,
,,,,,,,,2023-08-16_08h16.19.145,HF_wild_card,2022.2.4,Win32,59.09117769,63d7a7ee06462ef3355ea771,64d2fd46c836a06233681665,64dc7733356a092c90feb18e,,,,,,,decisionTrl,resources/DP.BMP,resources/DY.BMP,Door4,-0.360677083,0.037760417,1,0,0,1.0285,optionLeft,60,5480,3,12,0,12,0,1,,,,,,,,,,,,,,,,,,,,,,,,,,,,,,,,,,,,,,,
,,,,,,,,2023-08-16_08h16.19.145,HF_wild_card,2022.2.4,Win32,59.09117769,63d7a7ee06462ef3355ea771,64d2fd46c836a06233681665,64dc7733356a092c90feb18e,,,,,,,decisionTrl,resources/DG.BMP,resources/DBN.BMP,Door1,-0.29296875,-0.016927083,1,0,0,0.7791,optionLeft,30,5510,3,13,0,13,0,1,,,,,,,,,,,,,,,,,,,,,,,,,,,,,,,,,,,,,,,
,,,,,,,,2023-08-16_08h16.19.145,HF_wild_card,2022.2.4,Win32,59.09117769,63d7a7ee06462ef3355ea771,64d2fd46c836a06233681665,64dc7733356a092c90feb18e,,,,,,,ctch,resources/DP.BMP,resources/DG.BMP,Door4,-0.309895833,-0.002604167,1,0,0,0.9294,optionLeft,80,5590,3,14,0,14,0,1,,,,,,,,,,,,,,,,,,,,,,,,,,,,,,,,,,,,,,,
,,,,,,,,2023-08-16_08h16.19.145,HF_wild_card,2022.2.4,Win32,59.09117769,63d7a7ee06462ef3355ea771,64d2fd46c836a06233681665,64dc7733356a092c90feb18e,,,,,,,sngl,resources/DR.BMP,resources/Empty.png,WildCard_NonEx,-0.3828125,0.010416667,1,0,0,0.5962,optionLeft,45,5635,3,15,0,15,0,1,,,,,,,,,,,,,,,,,,,,,,,,,,,,,,,,,,,,,,,
,,,,,,,,2023-08-16_08h16.19.145,HF_wild_card,2022.2.4,Win32,59.09117769,63d7a7ee06462ef3355ea771,64d2fd46c836a06233681665,64dc7733356a092c90feb18e,,,,,,,sngl,resources/Empty.png,resources/DY.BMP,Door3,0.37890625,-0.014322917,1,0,0,0.743,optionRight,70,5705,3,16,0,16,0,1,,,,,,,,,,,,,,,,,,,,,,,,,,,,,,,,,,,,,,,
,,,,,,,,2023-08-16_08h16.19.145,HF_wild_card,2022.2.4,Win32,59.09117769,63d7a7ee06462ef3355ea771,64d2fd46c836a06233681665,64dc7733356a092c90feb18e,,,,,,,decisionTrl,resources/DG.BMP,resources/DBN.BMP,Door1,-0.44921875,0.01953125,1,0,0,0.662,optionLeft,30,5735,3,17,0,17,0,1,,,,,,,,,,,,,,,,,,,,,,,,,,,,,,,,,,,,,,,
,,,,,,,,2023-08-16_08h16.19.145,HF_wild_card,2022.2.4,Win32,59.09117769,63d7a7ee06462ef3355ea771,64d2fd46c836a06233681665,64dc7733356a092c90feb18e,,,,,,,decisionTrl,resources/DP.BMP,resources/DY.BMP,Door4,-0.315104167,0,1,0,0,0.8124,optionLeft,80,5815,3,18,0,18,0,1,,,,,,,,,,,,,,,,,,,,,,,,,,,,,,,,,,,,,,,
,,,,,,,,2023-08-16_08h16.19.145,HF_wild_card,2022.2.4,Win32,59.09117769,63d7a7ee06462ef3355ea771,64d2fd46c836a06233681665,64dc7733356a092c90feb18e,,,,,,,decisionTrl,resources/DBN.BMP,resources/DR.BMP,WildCard_NonEx,0.470052083,-0.01953125,1,0,0,0.6288,optionRight,55,5870,3,19,0,19,0,1,,,,,,,,,,,,,,,,,,,,,,,,,,,,,,,,,,,,,,,
,,,,,,,,2023-08-16_08h16.19.145,HF_wild_card,2022.2.4,Win32,59.09117769,63d7a7ee06462ef3355ea771,64d2fd46c836a06233681665,64dc7733356a092c90feb18e,,,,,,,decisionTrl,resources/DP.BMP,resources/DY.BMP,Door4,-0.295572917,0.010416667,1,0,0,1.4954,optionLeft,60,5930,3,20,0,20,0,1,,,,,,,,,,,,,,,,,,,,,,,,,,,,,,,,,,,,,,,
,,,,,,,,2023-08-16_08h16.19.145,HF_wild_card,2022.2.4,Win32,59.09117769,63d7a7ee06462ef3355ea771,64d2fd46c836a06233681665,64dc7733356a092c90feb18e,,,,,,,decisionTrl,resources/DP.BMP,resources/DY.BMP,Door4,-0.227864583,-0.006510417,1,0,0,0.6811,optionLeft,60,5990,3,21,0,21,0,1,,,,,,,,,,,,,,,,,,,,,,,,,,,,,,,,,,,,,,,
,,,,,,,,2023-08-16_08h16.19.145,HF_wild_card,2022.2.4,Win32,59.09117769,63d7a7ee06462ef3355ea771,64d2fd46c836a06233681665,64dc7733356a092c90feb18e,,,,,,,decisionTrl,resources/DG.BMP,resources/DR.BMP,WildCard_NonEx,0.450520833,-0.014322917,1,0,0,0.9475,optionRight,45,6035,3,22,0,22,0,1,,,,,,,,,,,,,,,,,,,,,,,,,,,,,,,,,,,,,,,
,,,,,,,,2023-08-16_08h16.19.145,HF_wild_card,2022.2.4,Win32,59.09117769,63d7a7ee06462ef3355ea771,64d2fd46c836a06233681665,64dc7733356a092c90feb18e,,,,,,,decisionTrl,resources/DR.BMP,resources/DG.BMP,WildCard_NonEx,-0.337239583,-0.006510417,1,0,0,0.8453,optionLeft,45,6080,3,23,0,23,0,1,,,,,,,,,,,,,,,,,,,,,,,,,,,,,,,,,,,,,,,
,,,,,,,,2023-08-16_08h16.19.145,HF_wild_card,2022.2.4,Win32,59.09117769,63d7a7ee06462ef3355ea771,64d2fd46c836a06233681665,64dc7733356a092c90feb18e,,,,,,,decisionTrl,resources/DBN.BMP,resources/DG.BMP,Door1,0.395833333,0.022135417,1,0,0,0.7624,optionRight,30,6110,3,24,0,24,0,1,,,,,,,,,,,,,,,,,,,,,,,,,,,,,,,,,,,,,,,
,,,,,,,,2023-08-16_08h16.19.145,HF_wild_card,2022.2.4,Win32,59.09117769,63d7a7ee06462ef3355ea771,64d2fd46c836a06233681665,64dc7733356a092c90feb18e,,,,,,,sngl,resources/DR.BMP,resources/Empty.png,WildCard_NonEx,-0.307291667,-0.015625,1,0,0,0.6476,optionLeft,55,6165,3,25,0,25,0,1,,,,,,,,,,,,,,,,,,,,,,,,,,,,,,,,,,,,,,,
,,,,,,,,2023-08-16_08h16.19.145,HF_wild_card,2022.2.4,Win32,59.09117769,63d7a7ee06462ef3355ea771,64d2fd46c836a06233681665,64dc7733356a092c90feb18e,,,,,,,sngl,resources/DBN.BMP,resources/Empty.png,Door2,-0.20703125,-0.014322917,1,0,0,0.8466,optionLeft,40,6205,3,26,0,26,0,1,,,,,,,,,,,,,,,,,,,,,,,,,,,,,,,,,,,,,,,
,,,,,,,,2023-08-16_08h16.19.145,HF_wild_card,2022.2.4,Win32,59.09117769,63d7a7ee06462ef3355ea771,64d2fd46c836a06233681665,64dc7733356a092c90feb18e,,,,,,,decisionTrl,resources/DBN.BMP,resources/DG.BMP,Door1,0.454427083,0.020833333,1,0,0,0.8311,optionRight,30,6235,3,27,0,27,0,1,,,,,,,,,,,,,,,,,,,,,,,,,,,,,,,,,,,,,,,
,,,,,,,,2023-08-16_08h16.19.145,HF_wild_card,2022.2.4,Win32,59.09117769,63d7a7ee06462ef3355ea771,64d2fd46c836a06233681665,64dc7733356a092c90feb18e,,,,,,,sngl,resources/DG.BMP,resources/Empty.png,Door1,-0.23828125,-0.0078125,1,0,0,0.782,optionLeft,30,6265,3,28,0,28,0,1,,,,,,,,,,,,,,,,,,,,,,,,,,,,,,,,,,,,,,,
,,,,,,,,2023-08-16_08h16.19.145,HF_wild_card,2022.2.4,Win32,59.09117769,63d7a7ee06462ef3355ea771,64d2fd46c836a06233681665,64dc7733356a092c90feb18e,,,,,,,decisionTrl,resources/DY.BMP,resources/DP.BMP,Door4,0.397135417,-0.028645833,1,0,0,0.86,optionRight,60,6325,3,29,0,29,0,1,,,,,,,,,,,,,,,,,,,,,,,,,,,,,,,,,,,,,,,
,,,,,,,,2023-08-16_08h16.19.145,HF_wild_card,2022.2.4,Win32,59.09117769,63d7a7ee06462ef3355ea771,64d2fd46c836a06233681665,64dc7733356a092c90feb18e,,,,,,,sngl,resources/DP.BMP,resources/Empty.png,Door4,-0.247395833,0.014322917,1,0,0,0.6625,optionLeft,80,6405,3,30,0,30,0,1,,,,,,,,,,,,,,,,,,,,,,,,,,,,,,,,,,,,,,,
,,,,,,,,2023-08-16_08h16.19.145,HF_wild_card,2022.2.4,Win32,59.09117769,63d7a7ee06462ef3355ea771,64d2fd46c836a06233681665,64dc7733356a092c90feb18e,,,,,,,decisionTrl,resources/DY.BMP,resources/DP.BMP,Door4,0.3984375,-0.041666667,1,0,0,0.6639,optionRight,80,6485,3,31,0,31,0,1,,,,,,,,,,,,,,,,,,,,,,,,,,,,,,,,,,,,,,,
,,,,,,,,2023-08-16_08h16.19.145,HF_wild_card,2022.2.4,Win32,59.09117769,63d7a7ee06462ef3355ea771,64d2fd46c836a06233681665,64dc7733356a092c90feb18e,,,,,,,decisionTrl,resources/DG.BMP,resources/DBN.BMP,Door1,-0.3359375,0.005208333,1,0,0,0.9294,optionLeft,30,6515,3,32,0,32,0,1,,,,,,,,,,,,,,,,,,,,,,,,,,,,,,,,,,,,,,,
,,,,,,,,2023-08-16_08h16.19.145,HF_wild_card,2022.2.4,Win32,59.09117769,63d7a7ee06462ef3355ea771,64d2fd46c836a06233681665,64dc7733356a092c90feb18e,,,,,,,decisionTrl,resources/DR.BMP,resources/DBN.BMP,WildCard_NonEx,-0.268229167,-0.006510417,1,0,0,0.7459,optionLeft,55,6570,3,33,0,33,0,1,,,,,,,,,,,,,,,,,,,,,,,,,,,,,,,,,,,,,,,
,,,,,,,,2023-08-16_08h16.19.145,HF_wild_card,2022.2.4,Win32,59.09117769,63d7a7ee06462ef3355ea771,64d2fd46c836a06233681665,64dc7733356a092c90feb18e,,,,,,,sngl,resources/Empty.png,resources/DBN.BMP,Door2,0.359375,-0.032552083,1,0,0,0.7964,optionRight,20,6590,3,34,0,34,0,1,,,,,,,,,,,,,,,,,,,,,,,,,,,,,,,,,,,,,,,
,,,,,,,,2023-08-16_08h16.19.145,HF_wild_card,2022.2.4,Win32,59.09117769,63d7a7ee06462ef3355ea771,64d2fd46c836a06233681665,64dc7733356a092c90feb18e,,,,,,,decisionTrl,resources/DP.BMP,resources/DR.BMP,WildCard_NonEx,0.30078125,-0.009114583,1,0,0,0.9135,optionRight,55,6645,3,35,0,35,0,1,,,,,,,,,,,,,,,,,,,,,,,,,,,,,,,,,,,,,,,
,,,,,,,,2023-08-16_08h16.19.145,HF_wild_card,2022.2.4,Win32,59.09117769,63d7a7ee06462ef3355ea771,64d2fd46c836a06233681665,64dc7733356a092c90feb18e,,,,,,,ctch,resources/DP.BMP,resources/DG.BMP,Door4,-0.311197917,-0.013020833,1,0,0,0.6956,optionLeft,80,6725,3,36,0,36,0,1,,,,,,,,,,,,,,,,,,,,,,,,,,,,,,,,,,,,,,,
,,,,,,,,2023-08-16_08h16.19.145,HF_wild_card,2022.2.4,Win32,59.09117769,63d7a7ee06462ef3355ea771,64d2fd46c836a06233681665,64dc7733356a092c90feb18e,,,,,,,decisionTrl,resources/DY.BMP,resources/DR.BMP,WildCard_NonEx,0.377604167,-0.028645833,1,0,0,0.7298,optionRight,55,6780,3,37,0,37,0,1,,,,,,,,,,,,,,,,,,,,,,,,,,,,,,,,,,,,,,,
,,,,,,,,2023-08-16_08h16.19.145,HF_wild_card,2022.2.4,Win32,59.09117769,63d7a7ee06462ef3355ea771,64d2fd46c836a06233681665,64dc7733356a092c90feb18e,,,,,,,decisionTrl,resources/DBN.BMP,resources/DG.BMP,Door1,0.345052083,-0.01953125,1,0,0,0.7962,optionRight,30,6810,3,38,0,38,0,1,,,,,,,,,,,,,,,,,,,,,,,,,,,,,,,,,,,,,,,
,,,,,,,,2023-08-16_08h16.19.145,HF_wild_card,2022.2.4,Win32,59.09117769,63d7a7ee06462ef3355ea771,64d2fd46c836a06233681665,64dc7733356a092c90feb18e,,,,,,,decisionTrl,resources/DR.BMP,resources/DP.BMP,WildCard_NonEx,-0.303385417,-0.0078125,1,0,0,1.0299,optionLeft,45,6855,3,39,0,39,0,1,,,,,,,,,,,,,,,,,,,,,,,,,,,,,,,,,,,,,,,
,,,,,,,,2023-08-16_08h16.19.145,HF_wild_card,2022.2.4,Win32,59.09117769,63d7a7ee06462ef3355ea771,64d2fd46c836a06233681665,64dc7733356a092c90feb18e,,,,,,,ctch,resources/DY.BMP,resources/DBN.BMP,Door3,-0.3125,0.001302083,1,0,0,0.7631,optionLeft,70,6925,3,40,0,40,0,1,,,,,,,,,,,,,,,,,,,,,,,,,,,,,,,,,,,,,,,
,,,,,,,,2023-08-16_08h16.19.145,HF_wild_card,2022.2.4,Win32,59.09117769,63d7a7ee06462ef3355ea771,64d2fd46c836a06233681665,64dc7733356a092c90feb18e,,,,,,,decisionTrl,resources/DY.BMP,resources/DP.BMP,Door4,0.365885417,-0.026041667,1,0,0,0.7959,optionRight,80,7005,3,41,0,41,0,1,,,,,,,,,,,,,,,,,,,,,,,,,,,,,,,,,,,,,,,
,,,,,,,,2023-08-16_08h16.19.145,HF_wild_card,2022.2.4,Win32,59.09117769,63d7a7ee06462ef3355ea771,64d2fd46c836a06233681665,64dc7733356a092c90feb18e,,,,,,,decisionTrl,resources/DBN.BMP,resources/DG.BMP,Door1,0.3984375,0.029947917,1,0,0,1.0629,optionRight,30,7035,3,42,0,42,0,1,,,,,,,,,,,,,,,,,,,,,,,,,,,,,,,,,,,,,,,
,,,,,,,,2023-08-16_08h16.19.145,HF_wild_card,2022.2.4,Win32,59.09117769,63d7a7ee06462ef3355ea771,64d2fd46c836a06233681665,64dc7733356a092c90feb18e,,,,,,,decisionTrl,resources/DG.BMP,resources/DBN.BMP,Door1,-0.30078125,0.044270833,1,0,0,0.7813,optionLeft,30,7065,3,43,0,43,0,1,,,,,,,,,,,,,,,,,,,,,,,,,,,,,,,,,,,,,,,
,,,,,,,,2023-08-16_08h16.19.145,HF_wild_card,2022.2.4,Win32,59.09117769,63d7a7ee06462ef3355ea771,64d2fd46c836a06233681665,64dc7733356a092c90feb18e,,,,,,,,,,,,,,,,,,,,,,,,,,2,0,2,0,1,,,,,,,,,,,,,,,,,,,,,,,,,,,,,,,,,,
,,,,,,,,2023-08-16_08h16.19.145,HF_wild_card,2022.2.4,Win32,59.09117769,63d7a7ee06462ef3355ea771,64d2fd46c836a06233681665,64dc7733356a092c90feb18e,,,,,,,decisionTrl,resources/DBN.BMP,resources/DB.BMP,WildCard_Ex,0.276041667,-0.010416667,1,0,0,1.1723,optionRight,95,7160,4,0,0,0,0,1,,,,,,,,,,,,,,,,,,,,,,,,,,,,,,,,,,,,,,,
,,,,,,,,2023-08-16_08h16.19.145,HF_wild_card,2022.2.4,Win32,59.09117769,63d7a7ee06462ef3355ea771,64d2fd46c836a06233681665,64dc7733356a092c90feb18e,,,,,,,ctch,resources/DG.BMP,resources/DP.BMP,Door4,0.377604167,-0.013020833,1,0,0,0.8114,optionRight,80,7240,4,1,0,1,0,1,,,,,,,,,,,,,,,,,,,,,,,,,,,,,,,,,,,,,,,
,,,,,,,,2023-08-16_08h16.19.145,HF_wild_card,2022.2.4,Win32,59.09117769,63d7a7ee06462ef3355ea771,64d2fd46c836a06233681665,64dc7733356a092c90feb18e,,,,,,,decisionTrl,resources/DB.BMP,resources/DY.BMP,WildCard_Ex,-0.265625,0.022135417,1,0,0,1.1264,optionLeft,95,7335,4,2,0,2,0,1,,,,,,,,,,,,,,,,,,,,,,,,,,,,,,,,,,,,,,,
,,,,,,,,2023-08-16_08h16.19.145,HF_wild_card,2022.2.4,Win32,59.09117769,63d7a7ee06462ef3355ea771,64d2fd46c836a06233681665,64dc7733356a092c90feb18e,,,,,,,decisionTrl,resources/DG.BMP,resources/DB.BMP,WildCard_Ex,0.388020833,-0.032552083,1,0,0,0.7145,optionRight,5,7340,4,3,0,3,0,1,,,,,,,,,,,,,,,,,,,,,,,,,,,,,,,,,,,,,,,
,,,,,,,,2023-08-16_08h16.19.145,HF_wild_card,2022.2.4,Win32,59.09117769,63d7a7ee06462ef3355ea771,64d2fd46c836a06233681665,64dc7733356a092c90feb18e,,,,,,,ctch,resources/DP.BMP,resources/DG.BMP,Door4,-0.283854167,-0.036458333,1,0,0,0.8292,optionLeft,60,7400,4,4,0,4,0,1,,,,,,,,,,,,,,,,,,,,,,,,,,,,,,,,,,,,,,,
,,,,,,,,2023-08-16_08h16.19.145,HF_wild_card,2022.2.4,Win32,59.09117769,63d7a7ee06462ef3355ea771,64d2fd46c836a06233681665,64dc7733356a092c90feb18e,,,,,,,decisionTrl,resources/DP.BMP,resources/DY.BMP,Door4,-0.298177083,-0.015625,1,0,0,0.9792,optionLeft,60,7460,4,5,0,5,0,1,,,,,,,,,,,,,,,,,,,,,,,,,,,,,,,,,,,,,,,
,,,,,,,,2023-08-16_08h16.19.145,HF_wild_card,2022.2.4,Win32,59.09117769,63d7a7ee06462ef3355ea771,64d2fd46c836a06233681665,64dc7733356a092c90feb18e,,,,,,,sngl,resources/DB.BMP,resources/Empty.png,WildCard_Ex,-0.350260417,-0.015625,1,0,0,0.696,optionLeft,95,7555,4,6,0,6,0,1,,,,,,,,,,,,,,,,,,,,,,,,,,,,,,,,,,,,,,,
,,,,,,,,2023-08-16_08h16.19.145,HF_wild_card,2022.2.4,Win32,59.09117769,63d7a7ee06462ef3355ea771,64d2fd46c836a06233681665,64dc7733356a092c90feb18e,,,,,,,sngl,resources/Empty.png,resources/DY.BMP,Door3,0.391927083,-0.026041667,1,0,0,0.9964,optionRight,70,7625,4,7,0,7,0,1,,,,,,,,,,,,,,,,,,,,,,,,,,,,,,,,,,,,,,,
,,,,,,,,2023-08-16_08h16.19.145,HF_wild_card,2022.2.4,Win32,59.09117769,63d7a7ee06462ef3355ea771,64d2fd46c836a06233681665,64dc7733356a092c90feb18e,,,,,,,decisionTrl,resources/DBN.BMP,resources/DG.BMP,Door1,0.40234375,0.0078125,1,0,0,0.8793,optionRight,30,7655,4,8,0,8,0,1,,,,,,,,,,,,,,,,,,,,,,,,,,,,,,,,,,,,,,,
,,,,,,,,2023-08-16_08h16.19.145,HF_wild_card,2022.2.4,Win32,59.09117769,63d7a7ee06462ef3355ea771,64d2fd46c836a06233681665,64dc7733356a092c90feb18e,,,,,,,sngl,resources/DG.BMP,resources/Empty.png,Door1,-0.263020833,-0.015625,1,0,0,1.1294,optionLeft,30,7685,4,9,0,9,0,1,,,,,,,,,,,,,,,,,,,,,,,,,,,,,,,,,,,,,,,
,,,,,,,,2023-08-16_08h16.19.145,HF_wild_card,2022.2.4,Win32,59.09117769,63d7a7ee06462ef3355ea771,64d2fd46c836a06233681665,64dc7733356a092c90feb18e,,,,,,,decisionTrl,resources/DG.BMP,resources/DBN.BMP,Door1,-0.263020833,-0.006510417,1,0,0,0.8797,optionLeft,30,7715,4,10,0,10,0,1,,,,,,,,,,,,,,,,,,,,,,,,,,,,,,,,,,,,,,,
,,,,,,,,2023-08-16_08h16.19.145,HF_wild_card,2022.2.4,Win32,59.09117769,63d7a7ee06462ef3355ea771,64d2fd46c836a06233681665,64dc7733356a092c90feb18e,,,,,,,sngl,resources/Empty.png,resources/DG.BMP,Door1,0.423177083,0.033854167,1,0,0,0.7793,optionRight,30,7745,4,11,0,11,0,1,,,,,,,,,,,,,,,,,,,,,,,,,,,,,,,,,,,,,,,
,,,,,,,,2023-08-16_08h16.19.145,HF_wild_card,2022.2.4,Win32,59.09117769,63d7a7ee06462ef3355ea771,64d2fd46c836a06233681665,64dc7733356a092c90feb18e,,,,,,,decisionTrl,resources/DB.BMP,resources/DBN.BMP,WildCard_Ex,-0.3203125,0.014322917,1,0,0,0.6303,optionLeft,95,7840,4,12,0,12,0,1,,,,,,,,,,,,,,,,,,,,,,,,,,,,,,,,,,,,,,,
,,,,,,,,2023-08-16_08h16.19.145,HF_wild_card,2022.2.4,Win32,59.09117769,63d7a7ee06462ef3355ea771,64d2fd46c836a06233681665,64dc7733356a092c90feb18e,,,,,,,ctch,resources/DP.BMP,resources/DG.BMP,Door4,-0.30859375,-0.005208333,1,0,0,0.9128,optionLeft,80,7920,4,13,0,13,0,1,,,,,,,,,,,,,,,,,,,,,,,,,,,,,,,,,,,,,,,
,,,,,,,,2023-08-16_08h16.19.145,HF_wild_card,2022.2.4,Win32,59.09117769,63d7a7ee06462ef3355ea771,64d2fd46c836a06233681665,64dc7733356a092c90feb18e,,,,,,,decisionTrl,resources/DBN.BMP,resources/DG.BMP,Door1,0.458333333,0.016927083,1,0,0,1.1104,optionRight,30,7950,4,14,0,14,0,1,,,,,,,,,,,,,,,,,,,,,,,,,,,,,,,,,,,,,,,
,,,,,,,,2023-08-16_08h16.19.145,HF_wild_card,2022.2.4,Win32,59.09117769,63d7a7ee06462ef3355ea771,64d2fd46c836a06233681665,64dc7733356a092c90feb18e,,,,,,,decisionTrl,resources/DG.BMP,resources/DBN.BMP,Door1,-0.322916667,-0.002604167,1,0,0,0.7144,optionLeft,30,7980,4,15,0,15,0,1,,,,,,,,,,,,,,,,,,,,,,,,,,,,,,,,,,,,,,,
,,,,,,,,2023-08-16_08h16.19.145,HF_wild_card,2022.2.4,Win32,59.09117769,63d7a7ee06462ef3355ea771,64d2fd46c836a06233681665,64dc7733356a092c90feb18e,,,,,,,decisionTrl,resources/DB.BMP,resources/DG.BMP,WildCard_Ex,-0.302083333,-0.028645833,1,0,0,0.7657,optionLeft,5,7985,4,16,0,16,0,1,,,,,,,,,,,,,,,,,,,,,,,,,,,,,,,,,,,,,,,
,,,,,,,,2023-08-16_08h16.19.145,HF_wild_card,2022.2.4,Win32,59.09117769,63d7a7ee06462ef3355ea771,64d2fd46c836a06233681665,64dc7733356a092c90feb18e,,,,,,,decisionTrl,resources/DP.BMP,resources/DY.BMP,Door4,-0.26953125,-0.024739583,1,0,0,0.8483,optionLeft,60,8045,4,17,0,17,0,1,,,,,,,,,,,,,,,,,,,,,,,,,,,,,,,,,,,,,,,
,,,,,,,,2023-08-16_08h16.19.145,HF_wild_card,2022.2.4,Win32,59.09117769,63d7a7ee06462ef3355ea771,64d2fd46c836a06233681665,64dc7733356a092c90feb18e,,,,,,,ctch,resources/DY.BMP,resources/DBN.BMP,Door3,-0.373697917,-0.001302083,1,0,0,1.3853,optionLeft,70,8115,4,18,0,18,0,1,,,,,,,,,,,,,,,,,,,,,,,,,,,,,,,,,,,,,,,
,,,,,,,,2023-08-16_08h16.19.145,HF_wild_card,2022.2.4,Win32,59.09117769,63d7a7ee06462ef3355ea771,64d2fd46c836a06233681665,64dc7733356a092c90feb18e,,,,,,,sngl,resources/Empty.png,resources/DB.BMP,WildCard_Ex,0.33203125,0,1,0,0,0.6621,optionRight,5,8120,4,19,0,19,0,1,,,,,,,,,,,,,,,,,,,,,,,,,,,,,,,,,,,,,,,
,,,,,,,,2023-08-16_08h16.19.145,HF_wild_card,2022.2.4,Win32,59.09117769,63d7a7ee06462ef3355ea771,64d2fd46c836a06233681665,64dc7733356a092c90feb18e,,,,,,,decisionTrl,resources/DG.BMP,resources/DBN.BMP,Door1,-0.319010417,0.01953125,1,0,0,0.6748,optionLeft,30,8150,4,20,0,20,0,1,,,,,,,,,,,,,,,,,,,,,,,,,,,,,,,,,,,,,,,
,,,,,,,,2023-08-16_08h16.19.145,HF_wild_card,2022.2.4,Win32,59.09117769,63d7a7ee06462ef3355ea771,64d2fd46c836a06233681665,64dc7733356a092c90feb18e,,,,,,,sngl,resources/DB.BMP,resources/Empty.png,WildCard_Ex,-0.298177083,0.022135417,1,0,0,0.6459,optionLeft,5,8155,4,21,0,21,0,1,,,,,,,,,,,,,,,,,,,,,,,,,,,,,,,,,,,,,,,
,,,,,,,,2023-08-16_08h16.19.145,HF_wild_card,2022.2.4,Win32,59.09117769,63d7a7ee06462ef3355ea771,64d2fd46c836a06233681665,64dc7733356a092c90feb18e,,,,,,,decisionTrl,resources/DY.BMP,resources/DB.BMP,WildCard_Ex,0.364583333,-0.013020833,1,0,0,0.6785,optionRight,5,8160,4,22,0,22,0,1,,,,,,,,,,,,,,,,,,,,,,,,,,,,,,,,,,,,,,,
,,,,,,,,2023-08-16_08h16.19.145,HF_wild_card,2022.2.4,Win32,59.09117769,63d7a7ee06462ef3355ea771,64d2fd46c836a06233681665,64dc7733356a092c90feb18e,,,,,,,ctch,resources/DG.BMP,resources/DP.BMP,Door4,0.30859375,0.00390625,1,0,0,0.6941,optionRight,80,8240,4,23,0,23,0,1,,,,,,,,,,,,,,,,,,,,,,,,,,,,,,,,,,,,,,,
,,,,,,,,2023-08-16_08h16.19.145,HF_wild_card,2022.2.4,Win32,59.09117769,63d7a7ee06462ef3355ea771,64d2fd46c836a06233681665,64dc7733356a092c90feb18e,,,,,,,sngl,resources/Empty.png,resources/DP.BMP,Door4,0.330729167,-0.00390625,1,0,0,0.6466,optionRight,80,8320,4,24,0,24,0,1,,,,,,,,,,,,,,,,,,,,,,,,,,,,,,,,,,,,,,,
,,,,,,,,2023-08-16_08h16.19.145,HF_wild_card,2022.2.4,Win32,59.09117769,63d7a7ee06462ef3355ea771,64d2fd46c836a06233681665,64dc7733356a092c90feb18e,,,,,,,sngl,resources/Empty.png,resources/DB.BMP,WildCard_Ex,0.30859375,-0.028645833,1,0,0,0.6269,optionRight,95,8415,4,25,0,25,0,1,,,,,,,,,,,,,,,,,,,,,,,,,,,,,,,,,,,,,,,
,,,,,,,,2023-08-16_08h16.19.145,HF_wild_card,2022.2.4,Win32,59.09117769,63d7a7ee06462ef3355ea771,64d2fd46c836a06233681665,64dc7733356a092c90feb18e,,,,,,,sngl,resources/DBN.BMP,resources/Empty.png,Door2,-0.403645833,0.03125,1,0,0,0.7453,optionLeft,20,8435,4,26,0,26,0,1,,,,,,,,,,,,,,,,,,,,,,,,,,,,,,,,,,,,,,,
,,,,,,,,2023-08-16_08h16.19.145,HF_wild_card,2022.2.4,Win32,59.09117769,63d7a7ee06462ef3355ea771,64d2fd46c836a06233681665,64dc7733356a092c90feb18e,,,,,,,decisionTrl,resources/DY.BMP,resources/DP.BMP,Door4,0.34375,-0.016927083,1,0,0,0.7148,optionRight,60,8495,4,27,0,27,0,1,,,,,,,,,,,,,,,,,,,,,,,,,,,,,,,,,,,,,,,
,,,,,,,,2023-08-16_08h16.19.145,HF_wild_card,2022.2.4,Win32,59.09117769,63d7a7ee06462ef3355ea771,64d2fd46c836a06233681665,64dc7733356a092c90feb18e,,,,,,,decisionTrl,resources/DG.BMP,resources/DBN.BMP,Door1,-0.264322917,-0.026041667,1,0,0,0.9304,optionLeft,30,8525,4,28,0,28,0,1,,,,,,,,,,,,,,,,,,,,,,,,,,,,,,,,,,,,,,,
,,,,,,,,2023-08-16_08h16.19.145,HF_wild_card,2022.2.4,Win32,59.09117769,63d7a7ee06462ef3355ea771,64d2fd46c836a06233681665,64dc7733356a092c90feb18e,,,,,,,ctch,resources/DY.BMP,resources/DBN.BMP,Door3,-0.342447917,0.0078125,1,0,0,0.7947,optionLeft,70,8595,4,29,0,29,0,1,,,,,,,,,,,,,,,,,,,,,,,,,,,,,,,,,,,,,,,
,,,,,,,,2023-08-16_08h16.19.145,HF_wild_card,2022.2.4,Win32,59.09117769,63d7a7ee06462ef3355ea771,64d2fd46c836a06233681665,64dc7733356a092c90feb18e,,,,,,,ctch,resources/DBN.BMP,resources/DY.BMP,Door3,0.470052083,-0.005208333,1,0,0,0.6973,optionRight,70,8665,4,30,0,30,0,1,,,,,,,,,,,,,,,,,,,,,,,,,,,,,,,,,,,,,,,
,,,,,,,,2023-08-16_08h16.19.145,HF_wild_card,2022.2.4,Win32,59.09117769,63d7a7ee06462ef3355ea771,64d2fd46c836a06233681665,64dc7733356a092c90feb18e,,,,,,,sngl,resources/DP.BMP,resources/Empty.png,Door4,-0.282552083,0.001302083,1,0,0,0.6481,optionLeft,60,8725,4,31,0,31,0,1,,,,,,,,,,,,,,,,,,,,,,,,,,,,,,,,,,,,,,,
,,,,,,,,2023-08-16_08h16.19.145,HF_wild_card,2022.2.4,Win32,59.09117769,63d7a7ee06462ef3355ea771,64d2fd46c836a06233681665,64dc7733356a092c90feb18e,,,,,,,decisionTrl,resources/DB.BMP,resources/DP.BMP,Door4,0.354166667,0.001302083,1,0,0,0.7857,optionRight,60,8785,4,32,0,32,0,1,,,,,,,,,,,,,,,,,,,,,,,,,,,,,,,,,,,,,,,
,,,,,,,,2023-08-16_08h16.19.145,HF_wild_card,2022.2.4,Win32,59.09117769,63d7a7ee06462ef3355ea771,64d2fd46c836a06233681665,64dc7733356a092c90feb18e,,,,,,,decisionTrl,resources/DBN.BMP,resources/DG.BMP,Door1,0.325520833,-0.002604167,1,0,0,0.7791,optionRight,30,8815,4,33,0,33,0,1,,,,,,,,,,,,,,,,,,,,,,,,,,,,,,,,,,,,,,,
,,,,,,,,2023-08-16_08h16.19.145,HF_wild_card,2022.2.4,Win32,59.09117769,63d7a7ee06462ef3355ea771,64d2fd46c836a06233681665,64dc7733356a092c90feb18e,,,,,,,decisionTrl,resources/DP.BMP,resources/DB.BMP,Door4,-0.345052083,-0.063802083,1,0,0,0.9123,optionLeft,60,8875,4,34,0,34,0,1,,,,,,,,,,,,,,,,,,,,,,,,,,,,,,,,,,,,,,,
,,,,,,,,2023-08-16_08h16.19.145,HF_wild_card,2022.2.4,Win32,59.09117769,63d7a7ee06462ef3355ea771,64d2fd46c836a06233681665,64dc7733356a092c90feb18e,,,,,,,decisionTrl,resources/DY.BMP,resources/DP.BMP,Door4,0.337239583,-0.009114583,1,0,0,0.7796,optionRight,60,8935,4,35,0,35,0,1,,,,,,,,,,,,,,,,,,,,,,,,,,,,,,,,,,,,,,,
,,,,,,,,2023-08-16_08h16.19.145,HF_wild_card,2022.2.4,Win32,59.09117769,63d7a7ee06462ef3355ea771,64d2fd46c836a06233681665,64dc7733356a092c90feb18e,,,,,,,sngl,resources/Empty.png,resources/DBN.BMP,Door2,0.326822917,0.014322917,1,0,0,0.7459,optionRight,40,8975,4,36,0,36,0,1,,,,,,,,,,,,,,,,,,,,,,,,,,,,,,,,,,,,,,,
,,,,,,,,2023-08-16_08h16.19.145,HF_wild_card,2022.2.4,Win32,59.09117769,63d7a7ee06462ef3355ea771,64d2fd46c836a06233681665,64dc7733356a092c90feb18e,,,,,,,decisionTrl,resources/DBN.BMP,resources/DG.BMP,Door1,0.385416667,0.014322917,1,0,0,0.6959,optionRight,30,9005,4,37,0,37,0,1,,,,,,,,,,,,,,,,,,,,,,,,,,,,,,,,,,,,,,,
,,,,,,,,2023-08-16_08h16.19.145,HF_wild_card,2022.2.4,Win32,59.09117769,63d7a7ee06462ef3355ea771,64d2fd46c836a06233681665,64dc7733356a092c90feb18e,,,,,,,ctch,resources/DBN.BMP,resources/DY.BMP,Door3,0.395833333,-0.018229167,1,0,0,0.6635,optionRight,70,9075,4,38,0,38,0,1,,,,,,,,,,,,,,,,,,,,,,,,,,,,,,,,,,,,,,,
,,,,,,,,2023-08-16_08h16.19.145,HF_wild_card,2022.2.4,Win32,59.09117769,63d7a7ee06462ef3355ea771,64d2fd46c836a06233681665,64dc7733356a092c90feb18e,,,,,,,decisionTrl,resources/DY.BMP,resources/DP.BMP,Door4,0.350260417,-0.03515625,1,0,0,0.7315,optionRight,60,9135,4,39,0,39,0,1,,,,,,,,,,,,,,,,,,,,,,,,,,,,,,,,,,,,,,,
,,,,,,,,2023-08-16_08h16.19.145,HF_wild_card,2022.2.4,Win32,59.09117769,63d7a7ee06462ef3355ea771,64d2fd46c836a06233681665,64dc7733356a092c90feb18e,,,,,,,decisionTrl,resources/DY.BMP,resources/DP.BMP,Door4,0.369791667,-0.014322917,1,0,0,0.6089,optionRight,60,9195,4,40,0,40,0,1,,,,,,,,,,,,,,,,,,,,,,,,,,,,,,,,,,,,,,,
,,,,,,,,2023-08-16_08h16.19.145,HF_wild_card,2022.2.4,Win32,59.09117769,63d7a7ee06462ef3355ea771,64d2fd46c836a06233681665,64dc7733356a092c90feb18e,,,,,,,sngl,resources/DY.BMP,resources/Empty.png,Door3,-0.278645833,-0.020833333,1,0,0,0.746,optionLeft,70,9265,4,41,0,41,0,1,,,,,,,,,,,,,,,,,,,,,,,,,,,,,,,,,,,,,,,
,,,,,,,,2023-08-16_08h16.19.145,HF_wild_card,2022.2.4,Win32,59.09117769,63d7a7ee06462ef3355ea771,64d2fd46c836a06233681665,64dc7733356a092c90feb18e,,,,,,,decisionTrl,resources/DP.BMP,resources/DY.BMP,Door4,-0.21875,-0.020833333,1,0,0,0.6482,optionLeft,80,9345,4,42,0,42,0,1,,,,,,,,,,,,,,,,,,,,,,,,,,,,,,,,,,,,,,,
,,,,,,,,2023-08-16_08h16.19.145,HF_wild_card,2022.2.4,Win32,59.09117769,63d7a7ee06462ef3355ea771,64d2fd46c836a06233681665,64dc7733356a092c90feb18e,,,,,,,decisionTrl,resources/DP.BMP,resources/DY.BMP,Door4,-0.240885417,0.00390625,1,0,0,0.6441,optionLeft,80,9425,4,43,0,43,0,1,,,,,,,,,,,,,,,,,,,,,,,,,,,,,,,,,,,,,,,
,,,,,,,,2023-08-16_08h16.19.145,HF_wild_card,2022.2.4,Win32,59.09117769,63d7a7ee06462ef3355ea771,64d2fd46c836a06233681665,64dc7733356a092c90feb18e,,,,,,,,,,,,,,,,,,,,,,,,,,3,0,3,0,1,,,,,,,,,,,,,,,,,,,,,,,,,,,,,,,,,,
,,,,,,,,2023-08-16_08h16.19.145,HF_wild_card,2022.2.4,Win32,59.09117769,63d7a7ee06462ef3355ea771,64d2fd46c836a06233681665,64dc7733356a092c90feb18e,,,,,,,ctch,resources/DG.BMP,resources/DP.BMP,Door4,0.298177083,0.018229167,1,0,0,0.9271,optionRight,80,9505,5,0,0,0,0,1,,,,,,,,,,,,,,,,,,,,,,,,,,,,,,,,,,,,,,,
,,,,,,,,2023-08-16_08h16.19.145,HF_wild_card,2022.2.4,Win32,59.09117769,63d7a7ee06462ef3355ea771,64d2fd46c836a06233681665,64dc7733356a092c90feb18e,,,,,,,sngl,resources/Empty.png,resources/DY.BMP,Door3,0.442708333,-0.015625,1,0,0,0.6465,optionRight,70,9575,5,1,0,1,0,1,,,,,,,,,,,,,,,,,,,,,,,,,,,,,,,,,,,,,,,
,,,,,,,,2023-08-16_08h16.19.145,HF_wild_card,2022.2.4,Win32,59.09117769,63d7a7ee06462ef3355ea771,64d2fd46c836a06233681665,64dc7733356a092c90feb18e,,,,,,,decisionTrl,resources/DB.BMP,resources/DY.BMP,Door3,0.322916667,-0.005208333,1,0,0,1.0286,optionRight,70,9645,5,2,0,2,0,1,,,,,,,,,,,,,,,,,,,,,,,,,,,,,,,,,,,,,,,
,,,,,,,,2023-08-16_08h16.19.145,HF_wild_card,2022.2.4,Win32,59.09117769,63d7a7ee06462ef3355ea771,64d2fd46c836a06233681665,64dc7733356a092c90feb18e,,,,,,,ctch,resources/DBN.BMP,resources/DY.BMP,Door3,0.364583333,-0.016927083,1,0,0,0.8787,optionRight,70,9715,5,3,0,3,0,1,,,,,,,,,,,,,,,,,,,,,,,,,,,,,,,,,,,,,,,
,,,,,,,,2023-08-16_08h16.19.145,HF_wild_card,2022.2.4,Win32,59.09117769,63d7a7ee06462ef3355ea771,64d2fd46c836a06233681665,64dc7733356a092c90feb18e,,,,,,,decisionTrl,resources/DG.BMP,resources/DB.BMP,WildCard_Ex,0.37109375,-0.018229167,1,0,0,0.7296,optionRight,5,9720,5,4,0,4,0,1,,,,,,,,,,,,,,,,,,,,,,,,,,,,,,,,,,,,,,,
,,,,,,,,2023-08-16_08h16.19.145,HF_wild_card,2022.2.4,Win32,59.09117769,63d7a7ee06462ef3355ea771,64d2fd46c836a06233681665,64dc7733356a092c90feb18e,,,,,,,decisionTrl,resources/DB.BMP,resources/DBN.BMP,WildCard_Ex,-0.279947917,-0.005208333,1,0,0,0.779,optionLeft,95,9815,5,5,0,5,0,1,,,,,,,,,,,,,,,,,,,,,,,,,,,,,,,,,,,,,,,
,,,,,,,,2023-08-16_08h16.19.145,HF_wild_card,2022.2.4,Win32,59.09117769,63d7a7ee06462ef3355ea771,64d2fd46c836a06233681665,64dc7733356a092c90feb18e,,,,,,,sngl,resources/DBN.BMP,resources/Empty.png,Door2,-0.20703125,0.040364583,1,0,0,0.8314,optionLeft,40,9855,5,6,0,6,0,1,,,,,,,,,,,,,,,,,,,,,,,,,,,,,,,,,,,,,,,
,,,,,,,,2023-08-16_08h16.19.145,HF_wild_card,2022.2.4,Win32,59.09117769,63d7a7ee06462ef3355ea771,64d2fd46c836a06233681665,64dc7733356a092c90feb18e,,,,,,,ctch,resources/DP.BMP,resources/DG.BMP,Door4,-0.290364583,0.044270833,1,0,0,0.8944,optionLeft,80,9935,5,7,0,7,0,1,,,,,,,,,,,,,,,,,,,,,,,,,,,,,,,,,,,,,,,
,,,,,,,,2023-08-16_08h16.19.145,HF_wild_card,2022.2.4,Win32,59.09117769,63d7a7ee06462ef3355ea771,64d2fd46c836a06233681665,64dc7733356a092c90feb18e,,,,,,,sngl,resources/Empty.png,resources/DB.BMP,WildCard_Ex,0.3984375,0.00390625,1,0,0,0.7763,optionRight,5,9940,5,8,0,8,0,1,,,,,,,,,,,,,,,,,,,,,,,,,,,,,,,,,,,,,,,
,,,,,,,,2023-08-16_08h16.19.145,HF_wild_card,2022.2.4,Win32,59.09117769,63d7a7ee06462ef3355ea771,64d2fd46c836a06233681665,64dc7733356a092c90feb18e,,,,,,,decisionTrl,resources/DBN.BMP,resources/DG.BMP,Door1,0.375,-0.009114583,1,0,0,0.8116,optionRight,30,9970,5,9,0,9,0,1,,,,,,,,,,,,,,,,,,,,,,,,,,,,,,,,,,,,,,,
,,,,,,,,2023-08-16_08h16.19.145,HF_wild_card,2022.2.4,Win32,59.09117769,63d7a7ee06462ef3355ea771,64d2fd46c836a06233681665,64dc7733356a092c90feb18e,,,,,,,decisionTrl,resources/DG.BMP,resources/DBN.BMP,Door1,-0.286458333,0.01171875,1,0,0,0.9121,optionLeft,30,10000,5,10,0,10,0,1,,,,,,,,,,,,,,,,,,,,,,,,,,,,,,,,,,,,,,,
,,,,,,,,2023-08-16_08h16.19.145,HF_wild_card,2022.2.4,Win32,59.09117769,63d7a7ee06462ef3355ea771,64d2fd46c836a06233681665,64dc7733356a092c90feb18e,,,,,,,decisionTrl,resources/DP.BMP,resources/DB.BMP,Door4,-0.286458333,-0.001302083,1,0,0,1.0964,optionLeft,60,10060,5,11,0,11,0,1,,,,,,,,,,,,,,,,,,,,,,,,,,,,,,,,,,,,,,,
,,,,,,,,2023-08-16_08h16.19.145,HF_wild_card,2022.2.4,Win32,59.09117769,63d7a7ee06462ef3355ea771,64d2fd46c836a06233681665,64dc7733356a092c90feb18e,,,,,,,sngl,resources/DP.BMP,resources/Empty.png,Door4,-0.220052083,0.041666667,1,0,0,0.7626,optionLeft,80,10140,5,12,0,12,0,1,,,,,,,,,,,,,,,,,,,,,,,,,,,,,,,,,,,,,,,
,,,,,,,,2023-08-16_08h16.19.145,HF_wild_card,2022.2.4,Win32,59.09117769,63d7a7ee06462ef3355ea771,64d2fd46c836a06233681665,64dc7733356a092c90feb18e,,,,,,,decisionTrl,resources/DBN.BMP,resources/DG.BMP,Door1,0.483072917,-0.002604167,1,0,0,0.978,optionRight,30,10170,5,13,0,13,0,1,,,,,,,,,,,,,,,,,,,,,,,,,,,,,,,,,,,,,,,
,,,,,,,,2023-08-16_08h16.19.145,HF_wild_card,2022.2.4,Win32,59.09117769,63d7a7ee06462ef3355ea771,64d2fd46c836a06233681665,64dc7733356a092c90feb18e,,,,,,,sngl,resources/Empty.png,resources/DB.BMP,WildCard_Ex,0.333333333,0.010416667,1,0,0,0.8444,optionRight,95,10265,5,14,0,14,0,1,,,,,,,,,,,,,,,,,,,,,,,,,,,,,,,,,,,,,,,
,,,,,,,,2023-08-16_08h16.19.145,HF_wild_card,2022.2.4,Win32,59.09117769,63d7a7ee06462ef3355ea771,64d2fd46c836a06233681665,64dc7733356a092c90feb18e,,,,,,,decisionTrl,resources/DBN.BMP,resources/DB.BMP,WildCard_Ex,0.313802083,-0.02734375,1,0,0,0.761,optionRight,95,10360,5,15,0,15,0,1,,,,,,,,,,,,,,,,,,,,,,,,,,,,,,,,,,,,,,,
,,,,,,,,2023-08-16_08h16.19.145,HF_wild_card,2022.2.4,Win32,59.09117769,63d7a7ee06462ef3355ea771,64d2fd46c836a06233681665,64dc7733356a092c90feb18e,,,,,,,sngl,resources/Empty.png,resources/DBN.BMP,Door2,0.26953125,-0.00390625,1,0,0,0.8617,optionRight,20,10380,5,16,0,16,0,1,,,,,,,,,,,,,,,,,,,,,,,,,,,,,,,,,,,,,,,
,,,,,,,,2023-08-16_08h16.19.145,HF_wild_card,2022.2.4,Win32,59.09117769,63d7a7ee06462ef3355ea771,64d2fd46c836a06233681665,64dc7733356a092c90feb18e,,,,,,,decisionTrl,resources/DP.BMP,resources/DY.BMP,Door4,-0.305989583,0.022135417,1,0,0,0.8784,optionLeft,60,10440,5,17,0,17,0,1,,,,,,,,,,,,,,,,,,,,,,,,,,,,,,,,,,,,,,,
,,,,,,,,2023-08-16_08h16.19.145,HF_wild_card,2022.2.4,Win32,59.09117769,63d7a7ee06462ef3355ea771,64d2fd46c836a06233681665,64dc7733356a092c90feb18e,,,,,,,sngl,resources/DG.BMP,resources/Empty.png,Door1,-0.243489583,0.00390625,1,0,0,0.6624,optionLeft,30,10470,5,18,0,18,0,1,,,,,,,,,,,,,,,,,,,,,,,,,,,,,,,,,,,,,,,
,,,,,,,,2023-08-16_08h16.19.145,HF_wild_card,2022.2.4,Win32,59.09117769,63d7a7ee06462ef3355ea771,64d2fd46c836a06233681665,64dc7733356a092c90feb18e,,,,,,,decisionTrl,resources/DB.BMP,resources/DP.BMP,Door4,0.395833333,-0.006510417,1,0,0,0.881,optionRight,80,10550,5,19,0,19,0,1,,,,,,,,,,,,,,,,,,,,,,,,,,,,,,,,,,,,,,,
,,,,,,,,2023-08-16_08h16.19.145,HF_wild_card,2022.2.4,Win32,59.09117769,63d7a7ee06462ef3355ea771,64d2fd46c836a06233681665,64dc7733356a092c90feb18e,,,,,,,ctch,resources/DY.BMP,resources/DBN.BMP,Door3,-0.321614583,0.040364583,1,0,0,0.8775,optionLeft,70,10620,5,20,0,20,0,1,,,,,,,,,,,,,,,,,,,,,,,,,,,,,,,,,,,,,,,
,,,,,,,,2023-08-16_08h16.19.145,HF_wild_card,2022.2.4,Win32,59.09117769,63d7a7ee06462ef3355ea771,64d2fd46c836a06233681665,64dc7733356a092c90feb18e,,,,,,,decisionTrl,resources/DG.BMP,resources/DBN.BMP,Door1,-0.244791667,0.010416667,1,0,0,0.8131,optionLeft,30,10650,5,21,0,21,0,1,,,,,,,,,,,,,,,,,,,,,,,,,,,,,,,,,,,,,,,
,,,,,,,,2023-08-16_08h16.19.145,HF_wild_card,2022.2.4,Win32,59.09117769,63d7a7ee06462ef3355ea771,64d2fd46c836a06233681665,64dc7733356a092c90feb18e,,,,,,,decisionTrl,resources/DP.BMP,resources/DY.BMP,Door4,-0.274739583,-0.018229167,1,0,0,0.7813,optionLeft,80,10730,5,22,0,22,0,1,,,,,,,,,,,,,,,,,,,,,,,,,,,,,,,,,,,,,,,
,,,,,,,,2023-08-16_08h16.19.145,HF_wild_card,2022.2.4,Win32,59.09117769,63d7a7ee06462ef3355ea771,64d2fd46c836a06233681665,64dc7733356a092c90feb18e,,,,,,,sngl,resources/Empty.png,resources/DG.BMP,Door1,0.368489583,0.01171875,1,0,0,0.7474,optionRight,30,10760,5,23,0,23,0,1,,,,,,,,,,,,,,,,,,,,,,,,,,,,,,,,,,,,,,,
,,,,,,,,2023-08-16_08h16.19.145,HF_wild_card,2022.2.4,Win32,59.09117769,63d7a7ee06462ef3355ea771,64d2fd46c836a06233681665,64dc7733356a092c90feb18e,,,,,,,ctch,resources/DP.BMP,resources/DG.BMP,Door4,-0.283854167,0.014322917,1,0,0,0.7289,optionLeft,60,10820,5,24,0,24,0,1,,,,,,,,,,,,,,,,,,,,,,,,,,,,,,,,,,,,,,,
,,,,,,,,2023-08-16_08h16.19.145,HF_wild_card,2022.2.4,Win32,59.09117769,63d7a7ee06462ef3355ea771,64d2fd46c836a06233681665,64dc7733356a092c90feb18e,,,,,,,ctch,resources/DBN.BMP,resources/DY.BMP,Door3,0.41015625,-0.005208333,1,0,0,0.7953,optionRight,70,10890,5,25,0,25,0,1,,,,,,,,,,,,,,,,,,,,,,,,,,,,,,,,,,,,,,,
,,,,,,,,2023-08-16_08h16.19.145,HF_wild_card,2022.2.4,Win32,59.09117769,63d7a7ee06462ef3355ea771,64d2fd46c836a06233681665,64dc7733356a092c90feb18e,,,,,,,sngl,resources/DB.BMP,resources/Empty.png,WildCard_Ex,-0.2265625,0.001302083,1,0,0,0.7304,optionLeft,5,10895,5,26,0,26,0,1,,,,,,,,,,,,,,,,,,,,,,,,,,,,,,,,,,,,,,,
,,,,,,,,2023-08-16_08h16.19.145,HF_wild_card,2022.2.4,Win32,59.09117769,63d7a7ee06462ef3355ea771,64d2fd46c836a06233681665,64dc7733356a092c90feb18e,,,,,,,ctch,resources/DG.BMP,resources/DP.BMP,Door4,0.358072917,-0.020833333,1,0,0,0.8126,optionRight,80,10975,5,27,0,27,0,1,,,,,,,,,,,,,,,,,,,,,,,,,,,,,,,,,,,,,,,
,,,,,,,,2023-08-16_08h16.19.145,HF_wild_card,2022.2.4,Win32,59.09117769,63d7a7ee06462ef3355ea771,64d2fd46c836a06233681665,64dc7733356a092c90feb18e,,,,,,,decisionTrl,resources/DY.BMP,resources/DP.BMP,Door4,0.334635417,-0.022135417,1,0,0,0.9114,optionRight,60,11035,5,28,0,28,0,1,,,,,,,,,,,,,,,,,,,,,,,,,,,,,,,,,,,,,,,
,,,,,,,,2023-08-16_08h16.19.145,HF_wild_card,2022.2.4,Win32,59.09117769,63d7a7ee06462ef3355ea771,64d2fd46c836a06233681665,64dc7733356a092c90feb18e,,,,,,,decisionTrl,resources/DBN.BMP,resources/DG.BMP,Door1,0.345052083,-0.010416667,1,0,0,0.8961,optionRight,30,11065,5,29,0,29,0,1,,,,,,,,,,,,,,,,,,,,,,,,,,,,,,,,,,,,,,,
,,,,,,,,2023-08-16_08h16.19.145,HF_wild_card,2022.2.4,Win32,59.09117769,63d7a7ee06462ef3355ea771,64d2fd46c836a06233681665,64dc7733356a092c90feb18e,,,,,,,decisionTrl,resources/DP.BMP,resources/DY.BMP,Door4,-0.384114583,-0.024739583,1,0,0,1.0314,optionLeft,60,11125,5,30,0,30,0,1,,,,,,,,,,,,,,,,,,,,,,,,,,,,,,,,,,,,,,,
,,,,,,,,2023-08-16_08h16.19.145,HF_wild_card,2022.2.4,Win32,59.09117769,63d7a7ee06462ef3355ea771,64d2fd46c836a06233681665,64dc7733356a092c90feb18e,,,,,,,decisionTrl,resources/DB.BMP,resources/DG.BMP,Door1,0.522135417,0.01171875,1,0,0,0.996,optionRight,30,11155,5,31,0,31,0,1,,,,,,,,,,,,,,,,,,,,,,,,,,,,,,,,,,,,,,,
,,,,,,,,2023-08-16_08h16.19.145,HF_wild_card,2022.2.4,Win32,59.09117769,63d7a7ee06462ef3355ea771,64d2fd46c836a06233681665,64dc7733356a092c90feb18e,,,,,,,decisionTrl,resources/DY.BMP,resources/DP.BMP,Door4,0.341145833,0.00390625,1,0,0,0.9292,optionRight,80,11235,5,32,0,32,0,1,,,,,,,,,,,,,,,,,,,,,,,,,,,,,,,,,,,,,,,
,,,,,,,,2023-08-16_08h16.19.145,HF_wild_card,2022.2.4,Win32,59.09117769,63d7a7ee06462ef3355ea771,64d2fd46c836a06233681665,64dc7733356a092c90feb18e,,,,,,,decisionTrl,resources/DBN.BMP,resources/DG.BMP,Door1,0.390625,0.02734375,1,0,0,0.9272,optionRight,30,11265,5,33,0,33,0,1,,,,,,,,,,,,,,,,,,,,,,,,,,,,,,,,,,,,,,,
,,,,,,,,2023-08-16_08h16.19.145,HF_wild_card,2022.2.4,Win32,59.09117769,63d7a7ee06462ef3355ea771,64d2fd46c836a06233681665,64dc7733356a092c90feb18e,,,,,,,sngl,resources/DB.BMP,resources/Empty.png,WildCard_Ex,-0.25390625,-0.033854167,1,0,0,0.7461,optionLeft,95,11360,5,34,0,34,0,1,,,,,,,,,,,,,,,,,,,,,,,,,,,,,,,,,,,,,,,
,,,,,,,,2023-08-16_08h16.19.145,HF_wild_card,2022.2.4,Win32,59.09117769,63d7a7ee06462ef3355ea771,64d2fd46c836a06233681665,64dc7733356a092c90feb18e,,,,,,,decisionTrl,resources/DP.BMP,resources/DY.BMP,Door4,-0.28125,0.026041667,1,0,0,0.8459,optionLeft,60,11420,5,35,0,35,0,1,,,,,,,,,,,,,,,,,,,,,,,,,,,,,,,,,,,,,,,
,,,,,,,,2023-08-16_08h16.19.145,HF_wild_card,2022.2.4,Win32,59.09117769,63d7a7ee06462ef3355ea771,64d2fd46c836a06233681665,64dc7733356a092c90feb18e,,,,,,,decisionTrl,resources/DG.BMP,resources/DBN.BMP,Door1,-0.23828125,0.0078125,1,0,0,0.9946,optionLeft,30,11450,5,36,0,36,0,1,,,,,,,,,,,,,,,,,,,,,,,,,,,,,,,,,,,,,,,
,,,,,,,,2023-08-16_08h16.19.145,HF_wild_card,2022.2.4,Win32,59.09117769,63d7a7ee06462ef3355ea771,64d2fd46c836a06233681665,64dc7733356a092c90feb18e,,,,,,,decisionTrl,resources/DY.BMP,resources/DB.BMP,Door3,-0.247395833,-0.02734375,1,0,0,1.2964,optionLeft,70,11520,5,37,0,37,0,1,,,,,,,,,,,,,,,,,,,,,,,,,,,,,,,,,,,,,,,
,,,,,,,,2023-08-16_08h16.19.145,HF_wild_card,2022.2.4,Win32,59.09117769,63d7a7ee06462ef3355ea771,64d2fd46c836a06233681665,64dc7733356a092c90feb18e,,,,,,,decisionTrl,resources/DY.BMP,resources/DP.BMP,Door4,0.319010417,-0.016927083,1,0,0,0.861,optionRight,80,11600,5,38,0,38,0,1,,,,,,,,,,,,,,,,,,,,,,,,,,,,,,,,,,,,,,,
,,,,,,,,2023-08-16_08h16.19.145,HF_wild_card,2022.2.4,Win32,59.09117769,63d7a7ee06462ef3355ea771,64d2fd46c836a06233681665,64dc7733356a092c90feb18e,,,,,,,sngl,resources/Empty.png,resources/DP.BMP,Door4,0.256510417,-0.026041667,1,0,0,1.0803,optionRight,60,11660,5,39,0,39,0,1,,,,,,,,,,,,,,,,,,,,,,,,,,,,,,,,,,,,,,,
,,,,,,,,2023-08-16_08h16.19.145,HF_wild_card,2022.2.4,Win32,59.09117769,63d7a7ee06462ef3355ea771,64d2fd46c836a06233681665,64dc7733356a092c90feb18e,,,,,,,ctch,resources/DY.BMP,resources/DBN.BMP,Door3,-0.295572917,-0.010416667,1,0,0,0.8989,optionLeft,70,11730,5,40,0,40,0,1,,,,,,,,,,,,,,,,,,,,,,,,,,,,,,,,,,,,,,,
,,,,,,,,2023-08-16_08h16.19.145,HF_wild_card,2022.2.4,Win32,59.09117769,63d7a7ee06462ef3355ea771,64d2fd46c836a06233681665,64dc7733356a092c90feb18e,,,,,,,sngl,resources/DY.BMP,resources/Empty.png,Door3,-0.251302083,-0.03515625,1,0,0,0.6797,optionLeft,70,11800,5,41,0,41,0,1,,,,,,,,,,,,,,,,,,,,,,,,,,,,,,,,,,,,,,,
,,,,,,,,2023-08-16_08h16.19.145,HF_wild_card,2022.2.4,Win32,59.09117769,63d7a7ee06462ef3355ea771,64d2fd46c836a06233681665,64dc7733356a092c90feb18e,,,,,,,decisionTrl,resources/DY.BMP,resources/DP.BMP,Door4,0.368489583,-0.00390625,1,0,0,1.0475,optionRight,60,11860,5,42,0,42,0,1,,,,,,,,,,,,,,,,,,,,,,,,,,,,,,,,,,,,,,,
,,,,,,,,2023-08-16_08h16.19.145,HF_wild_card,2022.2.4,Win32,59.09117769,63d7a7ee06462ef3355ea771,64d2fd46c836a06233681665,64dc7733356a092c90feb18e,,,,,,,decisionTrl,resources/DG.BMP,resources/DBN.BMP,Door1,-0.29296875,0.018229167,1,0,0,0.897,optionLeft,30,11890,5,43,0,43,0,1,,,,,,,,,,,,,,,,,,,,,,,,,,,,,,,,,,,,,,,
,,,,,,,,2023-08-16_08h16.19.145,HF_wild_card,2022.2.4,Win32,59.09117769,63d7a7ee06462ef3355ea771,64d2fd46c836a06233681665,64dc7733356a092c90feb18e,,,,,,,,,,,,,,,,,,,,,,,,,,4,0,4,0,1,,,,,,,,,,,,,,,,,,,,,,,,,,,,,,,,,,
,,,,,,,,2023-08-16_08h16.19.145,HF_wild_card,2022.2.4,Win32,59.09117769,63d7a7ee06462ef3355ea771,64d2fd46c836a06233681665,64dc7733356a092c90feb18e,,,,,,,decisionTrl,resources/DB.BMP,resources/DP.BMP,Door4,0.233072917,0.036458333,1,0,0,1.1944,optionRight,60,11950,6,0,0,0,0,1,,,,,,,,,,,,,,,,,,,,,,,,,,,,,,,,,,,,,,,
,,,,,,,,2023-08-16_08h16.19.145,HF_wild_card,2022.2.4,Win32,59.09117769,63d7a7ee06462ef3355ea771,64d2fd46c836a06233681665,64dc7733356a092c90feb18e,,,,,,,sngl,resources/DP.BMP,resources/Empty.png,Door4,-0.251302083,0.041666667,1,0,0,0.7794,optionLeft,60,12010,6,1,0,1,0,1,,,,,,,,,,,,,,,,,,,,,,,,,,,,,,,,,,,,,,,
,,,,,,,,2023-08-16_08h16.19.145,HF_wild_card,2022.2.4,Win32,59.09117769,63d7a7ee06462ef3355ea771,64d2fd46c836a06233681665,64dc7733356a092c90feb18e,,,,,,,ctch,resources/DG.BMP,resources/DP.BMP,Door4,0.372395833,0.0234375,1,0,0,0.8135,optionRight,60,12070,6,2,0,2,0,1,,,,,,,,,,,,,,,,,,,,,,,,,,,,,,,,,,,,,,,
,,,,,,,,2023-08-16_08h16.19.145,HF_wild_card,2022.2.4,Win32,59.09117769,63d7a7ee06462ef3355ea771,64d2fd46c836a06233681665,64dc7733356a092c90feb18e,,,,,,,decisionTrl,resources/DP.BMP,resources/DY.BMP,Door4,-0.27734375,-0.013020833,1,0,0,1.1614,optionLeft,60,12130,6,3,0,3,0,1,,,,,,,,,,,,,,,,,,,,,,,,,,,,,,,,,,,,,,,
,,,,,,,,2023-08-16_08h16.19.145,HF_wild_card,2022.2.4,Win32,59.09117769,63d7a7ee06462ef3355ea771,64d2fd46c836a06233681665,64dc7733356a092c90feb18e,,,,,,,decisionTrl,resources/DY.BMP,resources/DB.BMP,Door3,-0.298177083,0.014322917,1,0,0,0.8642,optionLeft,70,12200,6,4,0,4,0,1,,,,,,,,,,,,,,,,,,,,,,,,,,,,,,,,,,,,,,,
,,,,,,,,2023-08-16_08h16.19.145,HF_wild_card,2022.2.4,Win32,59.09117769,63d7a7ee06462ef3355ea771,64d2fd46c836a06233681665,64dc7733356a092c90feb18e,,,,,,,decisionTrl,resources/DP.BMP,resources/DY.BMP,Door4,-0.27734375,0.010416667,1,0,0,0.8894,optionLeft,80,12280,6,5,0,5,0,1,,,,,,,,,,,,,,,,,,,,,,,,,,,,,,,,,,,,,,,
,,,,,,,,2023-08-16_08h16.19.145,HF_wild_card,2022.2.4,Win32,59.09117769,63d7a7ee06462ef3355ea771,64d2fd46c836a06233681665,64dc7733356a092c90feb18e,,,,,,,sngl,resources/Empty.png,resources/DG.BMP,Door1,0.459635417,-0.001302083,1,0,0,0.7107,optionRight,30,12310,6,6,0,6,0,1,,,,,,,,,,,,,,,,,,,,,,,,,,,,,,,,,,,,,,,
,,,,,,,,2023-08-16_08h16.19.145,HF_wild_card,2022.2.4,Win32,59.09117769,63d7a7ee06462ef3355ea771,64d2fd46c836a06233681665,64dc7733356a092c90feb18e,,,,,,,decisionTrl,resources/DG.BMP,resources/DBN.BMP,Door1,-0.266927083,0.009114583,1,0,0,0.78,optionLeft,30,12340,6,7,0,7,0,1,,,,,,,,,,,,,,,,,,,,,,,,,,,,,,,,,,,,,,,
,,,,,,,,2023-08-16_08h16.19.145,HF_wild_card,2022.2.4,Win32,59.09117769,63d7a7ee06462ef3355ea771,64d2fd46c836a06233681665,64dc7733356a092c90feb18e,,,,,,,ctch,resources/DY.BMP,resources/DBN.BMP,Door3,-0.28515625,0.059895833,1,0,0,0.8797,optionLeft,70,12410,6,8,0,8,0,1,,,,,,,,,,,,,,,,,,,,,,,,,,,,,,,,,,,,,,,
,,,,,,,,2023-08-16_08h16.19.145,HF_wild_card,2022.2.4,Win32,59.09117769,63d7a7ee06462ef3355ea771,64d2fd46c836a06233681665,64dc7733356a092c90feb18e,,,,,,,sngl,resources/DB.BMP,resources/Empty.png,WildCard_Ex,-0.272135417,0.037760417,1,0,0,0.7966,optionLeft,5,12415,6,9,0,9,0,1,,,,,,,,,,,,,,,,,,,,,,,,,,,,,,,,,,,,,,,
,,,,,,,,2023-08-16_08h16.19.145,HF_wild_card,2022.2.4,Win32,59.09117769,63d7a7ee06462ef3355ea771,64d2fd46c836a06233681665,64dc7733356a092c90feb18e,,,,,,,decisionTrl,resources/DBN.BMP,resources/DG.BMP,Door1,0.342447917,0.013020833,1,0,0,0.8099,optionRight,30,12445,6,10,0,10,0,1,,,,,,,,,,,,,,,,,,,,,,,,,,,,,,,,,,,,,,,
,,,,,,,,2023-08-16_08h16.19.145,HF_wild_card,2022.2.4,Win32,59.09117769,63d7a7ee06462ef3355ea771,64d2fd46c836a06233681665,64dc7733356a092c90feb18e,,,,,,,decisionTrl,resources/DY.BMP,resources/DP.BMP,Door4,0.404947917,0.009114583,1,0,0,0.9952,optionRight,80,12525,6,11,0,11,0,1,,,,,,,,,,,,,,,,,,,,,,,,,,,,,,,,,,,,,,,
,,,,,,,,2023-08-16_08h16.19.145,HF_wild_card,2022.2.4,Win32,59.09117769,63d7a7ee06462ef3355ea771,64d2fd46c836a06233681665,64dc7733356a092c90feb18e,,,,,,,decisionTrl,resources/DG.BMP,resources/DBN.BMP,Door1,-0.236979167,-0.00390625,1,0,0,0.8625,optionLeft,30,12555,6,12,0,12,0,1,,,,,,,,,,,,,,,,,,,,,,,,,,,,,,,,,,,,,,,
,,,,,,,,2023-08-16_08h16.19.145,HF_wild_card,2022.2.4,Win32,59.09117769,63d7a7ee06462ef3355ea771,64d2fd46c836a06233681665,64dc7733356a092c90feb18e,,,,,,,sngl,resources/DY.BMP,resources/Empty.png,Door3,-0.229166667,0.018229167,1,0,0,0.629,optionLeft,70,12625,6,13,0,13,0,1,,,,,,,,,,,,,,,,,,,,,,,,,,,,,,,,,,,,,,,
,,,,,,,,2023-08-16_08h16.19.145,HF_wild_card,2022.2.4,Win32,59.09117769,63d7a7ee06462ef3355ea771,64d2fd46c836a06233681665,64dc7733356a092c90feb18e,,,,,,,ctch,resources/DY.BMP,resources/DBN.BMP,Door3,-0.2109375,-0.001302083,1,0,0,0.6782,optionLeft,70,12695,6,14,0,14,0,1,,,,,,,,,,,,,,,,,,,,,,,,,,,,,,,,,,,,,,,
,,,,,,,,2023-08-16_08h16.19.145,HF_wild_card,2022.2.4,Win32,59.09117769,63d7a7ee06462ef3355ea771,64d2fd46c836a06233681665,64dc7733356a092c90feb18e,,,,,,,ctch,resources/DBN.BMP,resources/DY.BMP,Door3,0.39453125,0.001302083,1,0,0,0.9321,optionRight,70,12765,6,15,0,15,0,1,,,,,,,,,,,,,,,,,,,,,,,,,,,,,,,,,,,,,,,
,,,,,,,,2023-08-16_08h16.19.145,HF_wild_card,2022.2.4,Win32,59.09117769,63d7a7ee06462ef3355ea771,64d2fd46c836a06233681665,64dc7733356a092c90feb18e,,,,,,,decisionTrl,resources/DG.BMP,resources/DB.BMP,WildCard_Ex,0.313802083,0.001302083,1,0,0,0.9313,optionRight,95,12860,6,16,0,16,0,1,,,,,,,,,,,,,,,,,,,,,,,,,,,,,,,,,,,,,,,
,,,,,,,,2023-08-16_08h16.19.145,HF_wild_card,2022.2.4,Win32,59.09117769,63d7a7ee06462ef3355ea771,64d2fd46c836a06233681665,64dc7733356a092c90feb18e,,,,,,,ctch,resources/DP.BMP,resources/DG.BMP,Door4,-0.244791667,-0.010416667,1,0,0,0.7289,optionLeft,80,12940,6,17,0,17,0,1,,,,,,,,,,,,,,,,,,,,,,,,,,,,,,,,,,,,,,,
,,,,,,,,2023-08-16_08h16.19.145,HF_wild_card,2022.2.4,Win32,59.09117769,63d7a7ee06462ef3355ea771,64d2fd46c836a06233681665,64dc7733356a092c90feb18e,,,,,,,sngl,resources/DBN.BMP,resources/Empty.png,Door2,-0.153645833,0.01953125,1,0,0,0.759,optionLeft,20,12960,6,18,0,18,0,1,,,,,,,,,,,,,,,,,,,,,,,,,,,,,,,,,,,,,,,
,,,,,,,,2023-08-16_08h16.19.145,HF_wild_card,2022.2.4,Win32,59.09117769,63d7a7ee06462ef3355ea771,64d2fd46c836a06233681665,64dc7733356a092c90feb18e,,,,,,,decisionTrl,resources/DY.BMP,resources/DP.BMP,Door4,0.375,0.010416667,1,0,0,0.7787,optionRight,60,13020,6,19,0,19,0,1,,,,,,,,,,,,,,,,,,,,,,,,,,,,,,,,,,,,,,,
,,,,,,,,2023-08-16_08h16.19.145,HF_wild_card,2022.2.4,Win32,59.09117769,63d7a7ee06462ef3355ea771,64d2fd46c836a06233681665,64dc7733356a092c90feb18e,,,,,,,sngl,resources/Empty.png,resources/DB.BMP,WildCard_Ex,0.4375,-0.005208333,1,0,0,0.7282,optionRight,5,13025,6,20,0,20,0,1,,,,,,,,,,,,,,,,,,,,,,,,,,,,,,,,,,,,,,,
,,,,,,,,2023-08-16_08h16.19.145,HF_wild_card,2022.2.4,Win32,59.09117769,63d7a7ee06462ef3355ea771,64d2fd46c836a06233681665,64dc7733356a092c90feb18e,,,,,,,ctch,resources/DBN.BMP,resources/DY.BMP,Door3,0.361979167,0.028645833,1,0,0,0.7812,optionRight,70,13095,6,21,0,21,0,1,,,,,,,,,,,,,,,,,,,,,,,,,,,,,,,,,,,,,,,
,,,,,,,,2023-08-16_08h16.19.145,HF_wild_card,2022.2.4,Win32,59.09117769,63d7a7ee06462ef3355ea771,64d2fd46c836a06233681665,64dc7733356a092c90feb18e,,,,,,,decisionTrl,resources/DB.BMP,resources/DBN.BMP,WildCard_Ex,-0.2734375,-0.00390625,1,0,0,1.1636,optionLeft,95,13190,6,22,0,22,0,1,,,,,,,,,,,,,,,,,,,,,,,,,,,,,,,,,,,,,,,
,,,,,,,,2023-08-16_08h16.19.145,HF_wild_card,2022.2.4,Win32,59.09117769,63d7a7ee06462ef3355ea771,64d2fd46c836a06233681665,64dc7733356a092c90feb18e,,,,,,,sngl,resources/DG.BMP,resources/Empty.png,Door1,-0.225260417,0.009114583,1,0,0,0.6788,optionLeft,30,13220,6,23,0,23,0,1,,,,,,,,,,,,,,,,,,,,,,,,,,,,,,,,,,,,,,,
,,,,,,,,2023-08-16_08h16.19.145,HF_wild_card,2022.2.4,Win32,59.09117769,63d7a7ee06462ef3355ea771,64d2fd46c836a06233681665,64dc7733356a092c90feb18e,,,,,,,decisionTrl,resources/DP.BMP,resources/DB.BMP,Door4,-0.2421875,-0.036458333,1,0,0,1.0309,optionLeft,60,13280,6,24,0,24,0,1,,,,,,,,,,,,,,,,,,,,,,,,,,,,,,,,,,,,,,,
,,,,,,,,2023-08-16_08h16.19.145,HF_wild_card,2022.2.4,Win32,59.09117769,63d7a7ee06462ef3355ea771,64d2fd46c836a06233681665,64dc7733356a092c90feb18e,,,,,,,sngl,resources/Empty.png,resources/DBN.BMP,Door2,0.442708333,0.03125,1,0,0,0.827,optionRight,40,13320,6,25,0,25,0,1,,,,,,,,,,,,,,,,,,,,,,,,,,,,,,,,,,,,,,,
,,,,,,,,2023-08-16_08h16.19.145,HF_wild_card,2022.2.4,Win32,59.09117769,63d7a7ee06462ef3355ea771,64d2fd46c836a06233681665,64dc7733356a092c90feb18e,,,,,,,decisionTrl,resources/DG.BMP,resources/DBN.BMP,Door1,-0.287760417,0.061197917,1,0,0,0.7295,optionLeft,30,13350,6,26,0,26,0,1,,,,,,,,,,,,,,,,,,,,,,,,,,,,,,,,,,,,,,,
,,,,,,,,2023-08-16_08h16.19.145,HF_wild_card,2022.2.4,Win32,59.09117769,63d7a7ee06462ef3355ea771,64d2fd46c836a06233681665,64dc7733356a092c90feb18e,,,,,,,ctch,resources/DG.BMP,resources/DP.BMP,Door4,0.35546875,-0.045572917,1,0,0,1.0484,optionRight,80,13430,6,27,0,27,0,1,,,,,,,,,,,,,,,,,,,,,,,,,,,,,,,,,,,,,,,
,,,,,,,,2023-08-16_08h16.19.145,HF_wild_card,2022.2.4,Win32,59.09117769,63d7a7ee06462ef3355ea771,64d2fd46c836a06233681665,64dc7733356a092c90feb18e,,,,,,,decisionTrl,resources/DY.BMP,resources/DP.BMP,Door4,0.352864583,-0.037760417,1,0,0,0.7609,optionRight,80,13510,6,28,0,28,0,1,,,,,,,,,,,,,,,,,,,,,,,,,,,,,,,,,,,,,,,
,,,,,,,,2023-08-16_08h16.19.145,HF_wild_card,2022.2.4,Win32,59.09117769,63d7a7ee06462ef3355ea771,64d2fd46c836a06233681665,64dc7733356a092c90feb18e,,,,,,,decisionTrl,resources/DP.BMP,resources/DY.BMP,Door4,-0.2109375,0.013020833,1,0,0,0.8957,optionLeft,80,13590,6,29,0,29,0,1,,,,,,,,,,,,,,,,,,,,,,,,,,,,,,,,,,,,,,,
,,,,,,,,2023-08-16_08h16.19.145,HF_wild_card,2022.2.4,Win32,59.09117769,63d7a7ee06462ef3355ea771,64d2fd46c836a06233681665,64dc7733356a092c90feb18e,,,,,,,sngl,resources/Empty.png,resources/DY.BMP,Door3,0.365885417,0.016927083,1,0,0,0.8142,optionRight,70,13660,6,30,0,30,0,1,,,,,,,,,,,,,,,,,,,,,,,,,,,,,,,,,,,,,,,
,,,,,,,,2023-08-16_08h16.19.145,HF_wild_card,2022.2.4,Win32,59.09117769,63d7a7ee06462ef3355ea771,64d2fd46c836a06233681665,64dc7733356a092c90feb18e,,,,,,,decisionTrl,resources/DBN.BMP,resources/DG.BMP,Door1,0.3828125,0.036458333,1,0,0,0.8629,optionRight,30,13690,6,31,0,31,0,1,,,,,,,,,,,,,,,,,,,,,,,,,,,,,,,,,,,,,,,
,,,,,,,,2023-08-16_08h16.19.145,HF_wild_card,2022.2.4,Win32,59.09117769,63d7a7ee06462ef3355ea771,64d2fd46c836a06233681665,64dc7733356a092c90feb18e,,,,,,,ctch,resources/DP.BMP,resources/DG.BMP,Door4,-0.3125,0.001302083,1,0,0,0.8296,optionLeft,60,13750,6,32,0,32,0,1,,,,,,,,,,,,,,,,,,,,,,,,,,,,,,,,,,,,,,,
,,,,,,,,2023-08-16_08h16.19.145,HF_wild_card,2022.2.4,Win32,59.09117769,63d7a7ee06462ef3355ea771,64d2fd46c836a06233681665,64dc7733356a092c90feb18e,,,,,,,decisionTrl,resources/DP.BMP,resources/DY.BMP,Door4,-0.213541667,0.013020833,1,0,0,0.832,optionLeft,80,13830,6,33,0,33,0,1,,,,,,,,,,,,,,,,,,,,,,,,,,,,,,,,,,,,,,,
,,,,,,,,2023-08-16_08h16.19.145,HF_wild_card,2022.2.4,Win32,59.09117769,63d7a7ee06462ef3355ea771,64d2fd46c836a06233681665,64dc7733356a092c90feb18e,,,,,,,decisionTrl,resources/DBN.BMP,resources/DB.BMP,WildCard_Ex,0.3984375,0.020833333,1,0,0,0.7134,optionRight,95,13925,6,34,0,34,0,1,,,,,,,,,,,,,,,,,,,,,,,,,,,,,,,,,,,,,,,
,,,,,,,,2023-08-16_08h16.19.145,HF_wild_card,2022.2.4,Win32,59.09117769,63d7a7ee06462ef3355ea771,64d2fd46c836a06233681665,64dc7733356a092c90feb18e,,,,,,,decisionTrl,resources/DG.BMP,resources/DBN.BMP,Door1,-0.239583333,0.065104167,1,0,0,0.8463,optionLeft,30,13955,6,35,0,35,0,1,,,,,,,,,,,,,,,,,,,,,,,,,,,,,,,,,,,,,,,
,,,,,,,,2023-08-16_08h16.19.145,HF_wild_card,2022.2.4,Win32,59.09117769,63d7a7ee06462ef3355ea771,64d2fd46c836a06233681665,64dc7733356a092c90feb18e,,,,,,,sngl,resources/Empty.png,resources/DB.BMP,WildCard_Ex,0.3984375,-0.005208333,1,0,0,0.8122,optionRight,95,14050,6,36,0,36,0,1,,,,,,,,,,,,,,,,,,,,,,,,,,,,,,,,,,,,,,,
,,,,,,,,2023-08-16_08h16.19.145,HF_wild_card,2022.2.4,Win32,59.09117769,63d7a7ee06462ef3355ea771,64d2fd46c836a06233681665,64dc7733356a092c90feb18e,,,,,,,sngl,resources/DB.BMP,resources/Empty.png,WildCard_Ex,-0.182291667,0.022135417,1,0,0,0.8422,optionLeft,95,14145,6,37,0,37,0,1,,,,,,,,,,,,,,,,,,,,,,,,,,,,,,,,,,,,,,,
,,,,,,,,2023-08-16_08h16.19.145,HF_wild_card,2022.2.4,Win32,59.09117769,63d7a7ee06462ef3355ea771,64d2fd46c836a06233681665,64dc7733356a092c90feb18e,,,,,,,decisionTrl,resources/DB.BMP,resources/DG.BMP,WildCard_Ex,-0.204427083,-0.0078125,1,0,0,0.8322,optionLeft,5,14150,6,38,0,38,0,1,,,,,,,,,,,,,,,,,,,,,,,,,,,,,,,,,,,,,,,
,,,,,,,,2023-08-16_08h16.19.145,HF_wild_card,2022.2.4,Win32,59.09117769,63d7a7ee06462ef3355ea771,64d2fd46c836a06233681665,64dc7733356a092c90feb18e,,,,,,,decisionTrl,resources/DBN.BMP,resources/DG.BMP,Door1,0.424479167,-0.00390625,1,0,0,0.7627,optionRight,30,14180,6,39,0,39,0,1,,,,,,,,,,,,,,,,,,,,,,,,,,,,,,,,,,,,,,,
,,,,,,,,2023-08-16_08h16.19.145,HF_wild_card,2022.2.4,Win32,59.09117769,63d7a7ee06462ef3355ea771,64d2fd46c836a06233681665,64dc7733356a092c90feb18e,,,,,,,decisionTrl,resources/DBN.BMP,resources/DG.BMP,Door1,0.38671875,-0.037760417,1,0,0,0.7974,optionRight,30,14210,6,40,0,40,0,1,,,,,,,,,,,,,,,,,,,,,,,,,,,,,,,,,,,,,,,
,,,,,,,,2023-08-16_08h16.19.145,HF_wild_card,2022.2.4,Win32,59.09117769,63d7a7ee06462ef3355ea771,64d2fd46c836a06233681665,64dc7733356a092c90feb18e,,,,,,,decisionTrl,resources/DB.BMP,resources/DY.BMP,Door3,0.4140625,-0.03515625,1,0,0,1.1122,optionRight,70,14280,6,41,0,41,0,1,,,,,,,,,,,,,,,,,,,,,,,,,,,,,,,,,,,,,,,
,,,,,,,,2023-08-16_08h16.19.145,HF_wild_card,2022.2.4,Win32,59.09117769,63d7a7ee06462ef3355ea771,64d2fd46c836a06233681665,64dc7733356a092c90feb18e,,,,,,,sngl,resources/Empty.png,resources/DP.BMP,Door4,0.3671875,-0.006510417,1,0,0,0.7794,optionRight,80,14360,6,42,0,42,0,1,,,,,,,,,,,,,,,,,,,,,,,,,,,,,,,,,,,,,,,
,,,,,,,,2023-08-16_08h16.19.145,HF_wild_card,2022.2.4,Win32,59.09117769,63d7a7ee06462ef3355ea771,64d2fd46c836a06233681665,64dc7733356a092c90feb18e,,,,,,,decisionTrl,resources/DY.BMP,resources/DP.BMP,Door4,0.41796875,-0.029947917,1,0,0,0.8485,optionRight,60,14420,6,43,0,43,0,1,,,,,,,,,,,,,,,,,,,,,,,,,,,,,,,,,,,,,,,
,,,,,,,,2023-08-16_08h16.19.145,HF_wild_card,2022.2.4,Win32,59.09117769,63d7a7ee06462ef3355ea771,64d2fd46c836a06233681665,64dc7733356a092c90feb18e,,,,,,,,,,,,,,,,,,,,,,,,,,5,0,5,0,1,,,,,,,,,,,,,,,,,,,,,,,,,,,,,,,,,,
,,,,,,,,2023-08-16_08h16.19.145,HF_wild_card,2022.2.4,Win32,59.09117769,63d7a7ee06462ef3355ea771,64d2fd46c836a06233681665,64dc7733356a092c90feb18e,,,,,,,decisionTrl,resources/DBN.BMP,resources/DG.BMP,Door1,0.321614583,-0.015625,1,0,0,1.0819,optionRight,30,14450,7,0,0,0,0,1,,,,,,,,,,,,,,,,,,,,,,,,,,,,,,,,,,,,,,,
,,,,,,,,2023-08-16_08h16.19.145,HF_wild_card,2022.2.4,Win32,59.09117769,63d7a7ee06462ef3355ea771,64d2fd46c836a06233681665,64dc7733356a092c90feb18e,,,,,,,ctch,resources/DP.BMP,resources/DG.BMP,Door4,-0.3203125,-0.01171875,1,0,0,0.9982,optionLeft,60,14510,7,1,0,1,0,1,,,,,,,,,,,,,,,,,,,,,,,,,,,,,,,,,,,,,,,
,,,,,,,,2023-08-16_08h16.19.145,HF_wild_card,2022.2.4,Win32,59.09117769,63d7a7ee06462ef3355ea771,64d2fd46c836a06233681665,64dc7733356a092c90feb18e,,,,,,,ctch,resources/DY.BMP,resources/DBN.BMP,Door3,-0.26171875,0.024739583,1,0,0,0.9806,optionLeft,70,14580,7,2,0,2,0,1,,,,,,,,,,,,,,,,,,,,,,,,,,,,,,,,,,,,,,,
,,,,,,,,2023-08-16_08h16.19.145,HF_wild_card,2022.2.4,Win32,59.09117769,63d7a7ee06462ef3355ea771,64d2fd46c836a06233681665,64dc7733356a092c90feb18e,,,,,,,decisionTrl,resources/DY.BMP,resources/DP.BMP,Door4,0.369791667,-0.002604167,1,0,0,0.831,optionRight,80,14660,7,3,0,3,0,1,,,,,,,,,,,,,,,,,,,,,,,,,,,,,,,,,,,,,,,
,,,,,,,,2023-08-16_08h16.19.145,HF_wild_card,2022.2.4,Win32,59.09117769,63d7a7ee06462ef3355ea771,64d2fd46c836a06233681665,64dc7733356a092c90feb18e,,,,,,,decisionTrl,resources/DBN.BMP,resources/DG.BMP,Door1,0.328125,-0.01171875,1,0,0,0.9634,optionRight,30,14690,7,4,0,4,0,1,,,,,,,,,,,,,,,,,,,,,,,,,,,,,,,,,,,,,,,
,,,,,,,,2023-08-16_08h16.19.145,HF_wild_card,2022.2.4,Win32,59.09117769,63d7a7ee06462ef3355ea771,64d2fd46c836a06233681665,64dc7733356a092c90feb18e,,,,,,,decisionTrl,resources/DP.BMP,resources/DY.BMP,Door4,-0.221354167,0.005208333,1,0,0,0.9135,optionLeft,60,14750,7,5,0,5,0,1,,,,,,,,,,,,,,,,,,,,,,,,,,,,,,,,,,,,,,,
,,,,,,,,2023-08-16_08h16.19.145,HF_wild_card,2022.2.4,Win32,59.09117769,63d7a7ee06462ef3355ea771,64d2fd46c836a06233681665,64dc7733356a092c90feb18e,,,,,,,ctch,resources/DY.BMP,resources/DBN.BMP,Door3,-0.244791667,0.045572917,1,0,0,0.9315,optionLeft,70,14820,7,6,0,6,0,1,,,,,,,,,,,,,,,,,,,,,,,,,,,,,,,,,,,,,,,
,,,,,,,,2023-08-16_08h16.19.145,HF_wild_card,2022.2.4,Win32,59.09117769,63d7a7ee06462ef3355ea771,64d2fd46c836a06233681665,64dc7733356a092c90feb18e,,,,,,,decisionTrl,resources/DBN.BMP,resources/DG.BMP,Door1,0.395833333,-0.018229167,1,0,0,0.7994,optionRight,30,14850,7,7,0,7,0,1,,,,,,,,,,,,,,,,,,,,,,,,,,,,,,,,,,,,,,,
,,,,,,,,2023-08-16_08h16.19.145,HF_wild_card,2022.2.4,Win32,59.09117769,63d7a7ee06462ef3355ea771,64d2fd46c836a06233681665,64dc7733356a092c90feb18e,,,,,,,ctch,resources/DP.BMP,resources/DG.BMP,Door4,-0.209635417,-0.00390625,1,0,0,0.8662,optionLeft,60,14910,7,8,0,8,0,1,,,,,,,,,,,,,,,,,,,,,,,,,,,,,,,,,,,,,,,
,,,,,,,,2023-08-16_08h16.19.145,HF_wild_card,2022.2.4,Win32,59.09117769,63d7a7ee06462ef3355ea771,64d2fd46c836a06233681665,64dc7733356a092c90feb18e,,,,,,,decisionTrl,resources/DY.BMP,resources/DP.BMP,Door4,0.346354167,-0.03515625,1,0,0,0.915,optionRight,60,14970,7,9,0,9,0,1,,,,,,,,,,,,,,,,,,,,,,,,,,,,,,,,,,,,,,,
,,,,,,,,2023-08-16_08h16.19.145,HF_wild_card,2022.2.4,Win32,59.09117769,63d7a7ee06462ef3355ea771,64d2fd46c836a06233681665,64dc7733356a092c90feb18e,,,,,,,decisionTrl,resources/DP.BMP,resources/DY.BMP,Door4,-0.197916667,0.0234375,1,0,0,0.9477,optionLeft,80,15050,7,10,0,10,0,1,,,,,,,,,,,,,,,,,,,,,,,,,,,,,,,,,,,,,,,
,,,,,,,,2023-08-16_08h16.19.145,HF_wild_card,2022.2.4,Win32,59.09117769,63d7a7ee06462ef3355ea771,64d2fd46c836a06233681665,64dc7733356a092c90feb18e,,,,,,,decisionTrl,resources/DP.BMP,resources/DY.BMP,Door4,-0.184895833,0.010416667,1,0,0,0.8827,optionLeft,60,15110,7,11,0,11,0,1,,,,,,,,,,,,,,,,,,,,,,,,,,,,,,,,,,,,,,,
,,,,,,,,2023-08-16_08h16.19.145,HF_wild_card,2022.2.4,Win32,59.09117769,63d7a7ee06462ef3355ea771,64d2fd46c836a06233681665,64dc7733356a092c90feb18e,,,,,,,decisionTrl,resources/DY.BMP,resources/DP.BMP,Door4,0.337239583,0.010416667,1,0,0,0.8657,optionRight,60,15170,7,12,0,12,0,1,,,,,,,,,,,,,,,,,,,,,,,,,,,,,,,,,,,,,,,
,,,,,,,,2023-08-16_08h16.19.145,HF_wild_card,2022.2.4,Win32,59.09117769,63d7a7ee06462ef3355ea771,64d2fd46c836a06233681665,64dc7733356a092c90feb18e,,,,,,,ctch,resources/DBN.BMP,resources/DY.BMP,Door3,0.341145833,-0.020833333,1,0,0,0.899,optionRight,70,15240,7,13,0,13,0,1,,,,,,,,,,,,,,,,,,,,,,,,,,,,,,,,,,,,,,,
,,,,,,,,2023-08-16_08h16.19.145,HF_wild_card,2022.2.4,Win32,59.09117769,63d7a7ee06462ef3355ea771,64d2fd46c836a06233681665,64dc7733356a092c90feb18e,,,,,,,ctch,resources/DP.BMP,resources/DG.BMP,Door4,-0.236979167,0.015625,1,0,0,0.964,optionLeft,80,15320,7,14,0,14,0,1,,,,,,,,,,,,,,,,,,,,,,,,,,,,,,,,,,,,,,,
,,,,,,,,2023-08-16_08h16.19.145,HF_wild_card,2022.2.4,Win32,59.09117769,63d7a7ee06462ef3355ea771,64d2fd46c836a06233681665,64dc7733356a092c90feb18e,,,,,,,ctch,resources/DY.BMP,resources/DBN.BMP,Door3,-0.23046875,0.014322917,1,0,0,0.9824,optionLeft,70,15390,7,15,0,15,0,1,,,,,,,,,,,,,,,,,,,,,,,,,,,,,,,,,,,,,,,
,,,,,,,,2023-08-16_08h16.19.145,HF_wild_card,2022.2.4,Win32,59.09117769,63d7a7ee06462ef3355ea771,64d2fd46c836a06233681665,64dc7733356a092c90feb18e,,,,,,,ctch,resources/DG.BMP,resources/DP.BMP,Door4,0.419270833,-0.028645833,1,0,0,0.8659,optionRight,60,15450,7,16,0,16,0,1,,,,,,,,,,,,,,,,,,,,,,,,,,,,,,,,,,,,,,,
,,,,,,,,2023-08-16_08h16.19.145,HF_wild_card,2022.2.4,Win32,59.09117769,63d7a7ee06462ef3355ea771,64d2fd46c836a06233681665,64dc7733356a092c90feb18e,,,,,,,ctch,resources/DG.BMP,resources/DP.BMP,Door4,0.305989583,-0.018229167,1,0,0,0.8822,optionRight,80,15530,7,17,0,17,0,1,,,,,,,,,,,,,,,,,,,,,,,,,,,,,,,,,,,,,,,
,,,,,,,,2023-08-16_08h16.19.145,HF_wild_card,2022.2.4,Win32,59.09117769,63d7a7ee06462ef3355ea771,64d2fd46c836a06233681665,64dc7733356a092c90feb18e,,,,,,,decisionTrl,resources/DBN.BMP,resources/DG.BMP,Door1,0.403645833,-0.03125,1,0,0,0.8979,optionRight,30,15560,7,18,0,18,0,1,,,,,,,,,,,,,,,,,,,,,,,,,,,,,,,,,,,,,,,
,,,,,,,,2023-08-16_08h16.19.145,HF_wild_card,2022.2.4,Win32,59.09117769,63d7a7ee06462ef3355ea771,64d2fd46c836a06233681665,64dc7733356a092c90feb18e,,,,,,,decisionTrl,resources/DG.BMP,resources/DBN.BMP,Door1,-0.266927083,0.010416667,1,0,0,0.9319,optionLeft,30,15590,7,19,0,19,0,1,,,,,,,,,,,,,,,,,,,,,,,,,,,,,,,,,,,,,,,
,,,,,,,,2023-08-16_08h16.19.145,HF_wild_card,2022.2.4,Win32,59.09117769,63d7a7ee06462ef3355ea771,64d2fd46c836a06233681665,64dc7733356a092c90feb18e,,,,,,,ctch,resources/DG.BMP,resources/DP.BMP,Door4,0.364583333,-0.03125,1,0,0,0.8487,optionRight,60,15650,7,20,0,20,0,1,,,,,,,,,,,,,,,,,,,,,,,,,,,,,,,,,,,,,,,
,,,,,,,,2023-08-16_08h16.19.145,HF_wild_card,2022.2.4,Win32,59.09117769,63d7a7ee06462ef3355ea771,64d2fd46c836a06233681665,64dc7733356a092c90feb18e,,,,,,,decisionTrl,resources/DG.BMP,resources/DBN.BMP,Door1,-0.307291667,0.020833333,1,0,0,1.082,optionLeft,30,15680,7,21,0,21,0,1,,,,,,,,,,,,,,,,,,,,,,,,,,,,,,,,,,,,,,,
,,,,,,,,2023-08-16_08h16.19.145,HF_wild_card,2022.2.4,Win32,59.09117769,63d7a7ee06462ef3355ea771,64d2fd46c836a06233681665,64dc7733356a092c90feb18e,,,,,,,ctch,resources/DBN.BMP,resources/DY.BMP,Door3,0.338541667,0.00390625,1,0,0,0.9703,optionRight,70,15750,7,22,0,22,0,1,,,,,,,,,,,,,,,,,,,,,,,,,,,,,,,,,,,,,,,
,,,,,,,,2023-08-16_08h16.19.145,HF_wild_card,2022.2.4,Win32,59.09117769,63d7a7ee06462ef3355ea771,64d2fd46c836a06233681665,64dc7733356a092c90feb18e,,,,,,,decisionTrl,resources/DG.BMP,resources/DBN.BMP,Door1,-0.23046875,0.036458333,1,0,0,0.9483,optionLeft,30,15780,7,23,0,23,0,1,,,,,,,,,,,,,,,,,,,,,,,,,,,,,,,,,,,,,,,
,,,,,,,,2023-08-16_08h16.19.145,HF_wild_card,2022.2.4,Win32,59.09117769,63d7a7ee06462ef3355ea771,64d2fd46c836a06233681665,64dc7733356a092c90feb18e,,,,,,,decisionTrl,resources/DY.BMP,resources/DP.BMP,Door4,0.333333333,-0.00390625,1,0,0,0.848,optionRight,60,15840,7,24,0,24,0,1,,,,,,,,,,,,,,,,,,,,,,,,,,,,,,,,,,,,,,,
,,,,,,,,2023-08-16_08h16.19.145,HF_wild_card,2022.2.4,Win32,59.09117769,63d7a7ee06462ef3355ea771,64d2fd46c836a06233681665,64dc7733356a092c90feb18e,,,,,,,decisionTrl,resources/DP.BMP,resources/DY.BMP,Door4,-0.255208333,-0.015625,1,0,0,0.9469,optionLeft,60,15900,7,25,0,25,0,1,,,,,,,,,,,,,,,,,,,,,,,,,,,,,,,,,,,,,,,
,,,,,,,,2023-08-16_08h16.19.145,HF_wild_card,2022.2.4,Win32,59.09117769,63d7a7ee06462ef3355ea771,64d2fd46c836a06233681665,64dc7733356a092c90feb18e,,,,,,,decisionTrl,resources/DY.BMP,resources/DP.BMP,Door4,0.423177083,0.005208333,1,0,0,0.8288,optionRight,80,15980,7,26,0,26,0,1,,,,,,,,,,,,,,,,,,,,,,,,,,,,,,,,,,,,,,,
,,,,,,,,2023-08-16_08h16.19.145,HF_wild_card,2022.2.4,Win32,59.09117769,63d7a7ee06462ef3355ea771,64d2fd46c836a06233681665,64dc7733356a092c90feb18e,,,,,,,decisionTrl,resources/DP.BMP,resources/DY.BMP,Door4,-0.229166667,0.048177083,1,0,0,0.8992,optionLeft,80,16060,7,27,0,27,0,1,,,,,,,,,,,,,,,,,,,,,,,,,,,,,,,,,,,,,,,
,,,,,,,,2023-08-16_08h16.19.145,HF_wild_card,2022.2.4,Win32,59.09117769,63d7a7ee06462ef3355ea771,64d2fd46c836a06233681665,64dc7733356a092c90feb18e,,,,,,,decisionTrl,resources/DG.BMP,resources/DBN.BMP,Door1,-0.205729167,0.010416667,1,0,0,0.897,optionLeft,30,16090,7,28,0,28,0,1,,,,,,,,,,,,,,,,,,,,,,,,,,,,,,,,,,,,,,,
,,,,,,,,2023-08-16_08h16.19.145,HF_wild_card,2022.2.4,Win32,59.09117769,63d7a7ee06462ef3355ea771,64d2fd46c836a06233681665,64dc7733356a092c90feb18e,,,,,,,decisionTrl,resources/DBN.BMP,resources/DG.BMP,Door1,0.337239583,-0.002604167,1,0,0,0.8496,optionRight,30,16120,7,29,0,29,0,1,,,,,,,,,,,,,,,,,,,,,,,,,,,,,,,,,,,,,,,
,,,,,,,,2023-08-16_08h16.19.145,HF_wild_card,2022.2.4,Win32,59.09117769,63d7a7ee06462ef3355ea771,64d2fd46c836a06233681665,64dc7733356a092c90feb18e,,,,,,,decisionTrl,resources/DG.BMP,resources/DBN.BMP,Door1,-0.173177083,-0.001302083,1,0,0,0.847,optionLeft,30,16150,7,30,0,30,0,1,,,,,,,,,,,,,,,,,,,,,,,,,,,,,,,,,,,,,,,
,,,,,,,,2023-08-16_08h16.19.145,HF_wild_card,2022.2.4,Win32,59.09117769,63d7a7ee06462ef3355ea771,64d2fd46c836a06233681665,64dc7733356a092c90feb18e,,,,,,,decisionTrl,resources/DY.BMP,resources/DP.BMP,Door4,0.321614583,-0.015625,1,0,0,1.0809,optionRight,80,16230,7,31,0,31,0,1,,,,,,,,,,,,,,,,,,,,,,,,,,,,,,,,,,,,,,,
,,,,,,,,2023-08-16_08h16.19.145,HF_wild_card,2022.2.4,Win32,59.09117769,63d7a7ee06462ef3355ea771,64d2fd46c836a06233681665,64dc7733356a092c90feb18e,,,,,,,decisionTrl,resources/DP.BMP,resources/DY.BMP,Door4,-0.178385417,0.013020833,1,0,0,0.8653,optionLeft,80,16310,7,32,0,32,0,1,,,,,,,,,,,,,,,,,,,,,,,,,,,,,,,,,,,,,,,
,,,,,,,,2023-08-16_08h16.19.145,HF_wild_card,2022.2.4,Win32,59.09117769,63d7a7ee06462ef3355ea771,64d2fd46c836a06233681665,64dc7733356a092c90feb18e,,,,,,,ctch,resources/DBN.BMP,resources/DY.BMP,Door3,0.359375,-0.0234375,1,0,0,0.8313,optionRight,70,16380,7,33,0,33,0,1,,,,,,,,,,,,,,,,,,,,,,,,,,,,,,,,,,,,,,,
,,,,,,,,2023-08-16_08h16.19.145,HF_wild_card,2022.2.4,Win32,59.09117769,63d7a7ee06462ef3355ea771,64d2fd46c836a06233681665,64dc7733356a092c90feb18e,,,,,,,decisionTrl,resources/DBN.BMP,resources/DG.BMP,Door1,0.29296875,0.002604167,1,0,0,0.8641,optionRight,30,16410,7,34,0,34,0,1,,,,,,,,,,,,,,,,,,,,,,,,,,,,,,,,,,,,,,,
,,,,,,,,2023-08-16_08h16.19.145,HF_wild_card,2022.2.4,Win32,59.09117769,63d7a7ee06462ef3355ea771,64d2fd46c836a06233681665,64dc7733356a092c90feb18e,,,,,,,decisionTrl,resources/DG.BMP,resources/DBN.BMP,Door1,-0.259114583,-0.006510417,1,0,0,1.0148,optionLeft,30,16440,7,35,0,35,0,1,,,,,,,,,,,,,,,,,,,,,,,,,,,,,,,,,,,,,,,
,,,,,,,,2023-08-16_08h16.19.145,HF_wild_card,2022.2.4,Win32,59.09117769,63d7a7ee06462ef3355ea771,64d2fd46c836a06233681665,64dc7733356a092c90feb18e,,,,,,,,,,,,,,,,,,,,,,,,,,6,0,6,0,1,,,,,,,,,,,,,,,,,,,,,,,,,,,,,,,,,,
,,,,,,,,2023-08-16_08h16.19.145,HF_wild_card,2022.2.4,Win32,59.09117769,63d7a7ee06462ef3355ea771,64d2fd46c836a06233681665,64dc7733356a092c90feb18e,,,,,,,,,,,,,,,,,,,,,,,,,,,,,,,4,,,,,,,,,,,,,,,,,,,,,,,,,,,,,,,,,
,,,,,,,,2023-08-16_08h16.19.145,HF_wild_card,2022.2.4,Win32,59.09117769,63d7a7ee06462ef3355ea771,64d2fd46c836a06233681665,64dc7733356a092c90feb18e,,,,,,,,,,,,,,,,,,,,,,,,,,,,,,,,,,,,,,,,,,,,,,,,,,,,,,,,,,,,,,,,
,,,,,,,,2023-08-16_08h16.19.145,HF_wild_card,2022.2.4,Win32,59.09117769,63d7a7ee06462ef3355ea771,64d2fd46c836a06233681665,64dc7733356a092c90feb18e,,,,,,,,,,,,,,,,,,,,,,,,,,,,,,,,30,Door3,resources/DY.BMP,0,0,0,0,1,,,,,,,,,,,,,,,,,,,,,,,,,
,,,,,,,,2023-08-16_08h16.19.145,HF_wild_card,2022.2.4,Win32,59.09117769,63d7a7ee06462ef3355ea771,64d2fd46c836a06233681665,64dc7733356a092c90feb18e,,,,,,,,,,,,,,,,,,,,,,,,,,,,,,,,95,Door4,resources/DP.BMP,1,0,1,0,1,,,,,,,,,,,,,,,,,,,,,,,,,
,,,,,,,,2023-08-16_08h16.19.145,HF_wild_card,2022.2.4,Win32,59.09117769,63d7a7ee06462ef3355ea771,64d2fd46c836a06233681665,64dc7733356a092c90feb18e,,,,,,,,,,,,,,,,,,,,,,,,,,,,,,,,05,Door2,resources/DBN.BMP,2,0,2,0,1,,,,,,,,,,,,,,,,,,,,,,,,,
,,,,,,,,2023-08-16_08h16.19.145,HF_wild_card,2022.2.4,Win32,59.09117769,63d7a7ee06462ef3355ea771,64d2fd46c836a06233681665,64dc7733356a092c90feb18e,,,,,,,,,,,,,,,,,,,,,,,,,,,,,,,,95,WC_extreme,resources/DB.BMP,3,0,3,0,1,,,,,,,,,,,,,,,,,,,,,,,,,
,,,,,,,,2023-08-16_08h16.19.145,HF_wild_card,2022.2.4,Win32,59.09117769,63d7a7ee06462ef3355ea771,64d2fd46c836a06233681665,64dc7733356a092c90feb18e,,,,,,,,,,,,,,,,,,,,,,,,,,,,,,,,95,WC_nonExtreme,resources/DR.BMP,4,0,4,0,1,,,,,,,,,,,,,,,,,,,,,,,,,
,,,,,,,,2023-08-16_08h16.19.145,HF_wild_card,2022.2.4,Win32,59.09117769,63d7a7ee06462ef3355ea771,64d2fd46c836a06233681665,64dc7733356a092c90feb18e,,,,,,,,,,,,,,,,,,,,,,,,,,,,,,,,30,Door1,resources/DG.BMP,5,0,5,0,1,,,,,,,,,,,,,,,,,,,,,,,,,
,,,,,,,,2023-08-16_08h16.19.145,HF_wild_card,2022.2.4,Win32,59.09117769,63d7a7ee06462ef3355ea771,64d2fd46c836a06233681665,64dc7733356a092c90feb18e,,,,,,,,,,,,,,,,,,,,,,,,,,,,,,,,,,,,,,,,,,,,,,,,,,,,,,,,,,,,,,,,
,,,,,,,,2023-08-16_08h16.19.145,HF_wild_card,2022.2.4,Win32,59.09117769,63d7a7ee06462ef3355ea771,64d2fd46c836a06233681665,64dc7733356a092c90feb18e,,,,,,,,,,,,,,,,,,,,,,,,,,,,,,,,,,,,,,,,0,0,0,0,1,,,,,,,,,,,,,,,,,,,,
