Condition,Low fixed image (Door1),Low risky image (Door2),High fixed image (Door3),High risky image (Door4),NonExtreme Wild Card 1,NonExtreme Wild Card 2,,date,expName,psychopyVersion,OS,frameRate,PROLIFIC_PID,STUDY_ID,SESSION_ID,mouse_2.x,mouse_2.y,mouse_2.leftButton,mouse_2.midButton,mouse_2.rightButton,mouse_2.clicked_name,Trial Type,Left Option Image,Right Option Image,Chosen Door,mouse.x,mouse.y,mouse.leftButton,mouse.midButton,mouse.rightButton,mouse.time,mouse.clicked_name,Feedback,Cumulative Reward,Block,trial.thisRepN,trial.thisTrialN,trial.thisN,trial.thisIndex,trial.ran,blocks.thisRepN,blocks.thisTrialN,blocks.thisN,blocks.thisIndex,blocks.ran,Money conversion,First Outcome Reported,Shown Door (First Outcome),Displayed Image (First Outcome),outcomes.thisRepN,outcomes.thisTrialN,outcomes.thisN,outcomes.thisIndex,outcomes.ran,judgments.thisRepN,judgments.thisTrialN,judgments.thisN,judgments.thisIndex,judgments.ran,freqMouse.x,freqMouse.y,freqMouse.leftButton,freqMouse.midButton,freqMouse.rightButton,freqMouse.clicked_name,FQJ for first outcome,FQJ for second outcome,Shown Door,Displayed Image,trials.thisRepN,trials.thisTrialN,trials.thisN,trials.thisIndex,trials.ran,judgBlock.thisRepN,judgBlock.thisTrialN,judgBlock.thisN,judgBlock.thisIndex,judgBlock.ran
2,resources/DBN.BMP,resources/DB.BMP,resources/DP.BMP,resources/DY.BMP,resources/DR.BMP,resources/DG.BMP,,2023-08-16_08h44.44.863,HF_wild_card,2022.2.4,Linux x86_64,60.03842459,59e675a6c0d35a00012951ce,64d2fd46c836a06233681665,64dc7de45038957636d3ce13,,,,,,,,,,,,,,,,,,,,,,,,,,,,,,,,,,,,,,,,,,,,,,,,,,,,,,,,,,,,,,,,
,,,,,,,,2023-08-16_08h44.44.863,HF_wild_card,2022.2.4,Linux x86_64,60.03842459,59e675a6c0d35a00012951ce,64d2fd46c836a06233681665,64dc7de45038957636d3ce13,0.005676746,-0.415903409,1,0,0,agree,,,,,,,,,,,,,,,,,,,,,,,,,,,,,,,,,,,,,,,,,,,,,,,,,,,,,,,,,,
,,,,,,,,2023-08-16_08h44.44.863,HF_wild_card,2022.2.4,Linux x86_64,60.03842459,59e675a6c0d35a00012951ce,64d2fd46c836a06233681665,64dc7de45038957636d3ce13,,,,,,,,,,,,,,,,,,,,,,,,,,,,,,,,,,,,,,,,,,,,,,,,,,,,,,,,,,,,,,,,
,,,,,,,,2023-08-16_08h44.44.863,HF_wild_card,2022.2.4,Linux x86_64,60.03842459,59e675a6c0d35a00012951ce,64d2fd46c836a06233681665,64dc7de45038957636d3ce13,,,,,,,ctch,resources/DY.BMP,resources/DBN.BMP,Door4,-0.223498742,-0.219922622,1,0,0,2.5154,optionLeft,60,60,1,0,0,0,0,1,,,,,,,,,,,,,,,,,,,,,,,,,,,,,,,,,,,,,,,
,,,,,,,,2023-08-16_08h44.44.863,HF_wild_card,2022.2.4,Linux x86_64,60.03842459,59e675a6c0d35a00012951ce,64d2fd46c836a06233681665,64dc7de45038957636d3ce13,,,,,,,sngl,resources/Empty.png,resources/DBN.BMP,Door1,0.309385379,-0.086565892,1,0,0,1.0906,optionRight,30,90,1,1,0,1,0,1,,,,,,,,,,,,,,,,,,,,,,,,,,,,,,,,,,,,,,,
,,,,,,,,2023-08-16_08h44.44.863,HF_wild_card,2022.2.4,Linux x86_64,60.03842459,59e675a6c0d35a00012951ce,64d2fd46c836a06233681665,64dc7de45038957636d3ce13,,,,,,,decisionTrl,resources/DP.BMP,resources/DG.BMP,Door3,-0.310376088,-0.051725189,1,0,0,1.5037,optionLeft,70,160,1,2,0,2,0,1,,,,,,,,,,,,,,,,,,,,,,,,,,,,,,,,,,,,,,,
,,,,,,,,2023-08-16_08h44.44.863,HF_wild_card,2022.2.4,Linux x86_64,60.03842459,59e675a6c0d35a00012951ce,64d2fd46c836a06233681665,64dc7de45038957636d3ce13,,,,,,,ctch,resources/DP.BMP,resources/DB.BMP,Door2,0.317332347,-0.123768965,1,0,0,0.8433,optionRight,20,180,1,3,0,3,0,1,,,,,,,,,,,,,,,,,,,,,,,,,,,,,,,,,,,,,,,
,,,,,,,,2023-08-16_08h44.44.863,HF_wild_card,2022.2.4,Linux x86_64,60.03842459,59e675a6c0d35a00012951ce,64d2fd46c836a06233681665,64dc7de45038957636d3ce13,,,,,,,decisionTrl,resources/DBN.BMP,resources/DB.BMP,Door1,-0.327147166,-0.051328063,1,0,0,0.7914,optionLeft,30,210,1,4,0,4,0,1,,,,,,,,,,,,,,,,,,,,,,,,,,,,,,,,,,,,,,,
,,,,,,,,2023-08-16_08h44.44.863,HF_wild_card,2022.2.4,Linux x86_64,60.03842459,59e675a6c0d35a00012951ce,64d2fd46c836a06233681665,64dc7de45038957636d3ce13,,,,,,,decisionTrl,resources/DY.BMP,resources/DP.BMP,Door3,0.651933352,-0.139714003,1,0,0,0.8273,optionRight,70,280,1,5,0,5,0,1,,,,,,,,,,,,,,,,,,,,,,,,,,,,,,,,,,,,,,,
,,,,,,,,2023-08-16_08h44.44.863,HF_wild_card,2022.2.4,Linux x86_64,60.03842459,59e675a6c0d35a00012951ce,64d2fd46c836a06233681665,64dc7de45038957636d3ce13,,,,,,,sngl,resources/DG.BMP,resources/Empty.png,WildCard_NonEx,-0.341292302,0.004507105,1,0,0,1.4215,optionLeft,45,325,1,6,0,6,0,1,,,,,,,,,,,,,,,,,,,,,,,,,,,,,,,,,,,,,,,
,,,,,,,,2023-08-16_08h44.44.863,HF_wild_card,2022.2.4,Linux x86_64,60.03842459,59e675a6c0d35a00012951ce,64d2fd46c836a06233681665,64dc7de45038957636d3ce13,,,,,,,decisionTrl,resources/DB.BMP,resources/DBN.BMP,Door2,-0.382023374,-0.052065412,1,0,0,0.9718,optionLeft,20,345,1,7,0,7,0,1,,,,,,,,,,,,,,,,,,,,,,,,,,,,,,,,,,,,,,,
,,,,,,,,2023-08-16_08h44.44.863,HF_wild_card,2022.2.4,Linux x86_64,60.03842459,59e675a6c0d35a00012951ce,64d2fd46c836a06233681665,64dc7de45038957636d3ce13,,,,,,,decisionTrl,resources/DG.BMP,resources/DBN.BMP,Door1,0.416204294,-0.062222878,1,0,0,1.0812,optionRight,30,375,1,8,0,8,0,1,,,,,,,,,,,,,,,,,,,,,,,,,,,,,,,,,,,,,,,
,,,,,,,,2023-08-16_08h44.44.863,HF_wild_card,2022.2.4,Linux x86_64,60.03842459,59e675a6c0d35a00012951ce,64d2fd46c836a06233681665,64dc7de45038957636d3ce13,,,,,,,sngl,resources/DY.BMP,resources/Empty.png,Door4,-0.332898736,-0.085917354,1,0,0,0.7983,optionLeft,80,455,1,9,0,9,0,1,,,,,,,,,,,,,,,,,,,,,,,,,,,,,,,,,,,,,,,
,,,,,,,,2023-08-16_08h44.44.863,HF_wild_card,2022.2.4,Linux x86_64,60.03842459,59e675a6c0d35a00012951ce,64d2fd46c836a06233681665,64dc7de45038957636d3ce13,,,,,,,ctch,resources/DB.BMP,resources/DP.BMP,Door3,0.337017139,-0.083204667,1,0,0,0.8876,optionRight,70,525,1,10,0,10,0,1,,,,,,,,,,,,,,,,,,,,,,,,,,,,,,,,,,,,,,,
,,,,,,,,2023-08-16_08h44.44.863,HF_wild_card,2022.2.4,Linux x86_64,60.03842459,59e675a6c0d35a00012951ce,64d2fd46c836a06233681665,64dc7de45038957636d3ce13,,,,,,,decisionTrl,resources/DG.BMP,resources/DB.BMP,Door2,0.403270801,-0.04397893,1,0,0,0.9103,optionRight,40,565,1,11,0,11,0,1,,,,,,,,,,,,,,,,,,,,,,,,,,,,,,,,,,,,,,,
,,,,,,,,2023-08-16_08h44.44.863,HF_wild_card,2022.2.4,Linux x86_64,60.03842459,59e675a6c0d35a00012951ce,64d2fd46c836a06233681665,64dc7de45038957636d3ce13,,,,,,,decisionTrl,resources/DG.BMP,resources/DP.BMP,Door3,0.275295973,-0.04332455,1,0,0,1.0909,optionRight,70,635,1,12,0,12,0,1,,,,,,,,,,,,,,,,,,,,,,,,,,,,,,,,,,,,,,,
,,,,,,,,2023-08-16_08h44.44.863,HF_wild_card,2022.2.4,Linux x86_64,60.03842459,59e675a6c0d35a00012951ce,64d2fd46c836a06233681665,64dc7de45038957636d3ce13,,,,,,,decisionTrl,resources/DBN.BMP,resources/DB.BMP,Door2,0.433303038,-0.10714678,1,0,0,0.8595,optionRight,40,675,1,13,0,13,0,1,,,,,,,,,,,,,,,,,,,,,,,,,,,,,,,,,,,,,,,
,,,,,,,,2023-08-16_08h44.44.863,HF_wild_card,2022.2.4,Linux x86_64,60.03842459,59e675a6c0d35a00012951ce,64d2fd46c836a06233681665,64dc7de45038957636d3ce13,,,,,,,decisionTrl,resources/DB.BMP,resources/DBN.BMP,Door2,-0.432200074,-0.117785414,1,0,0,0.8559,optionLeft,40,715,1,14,0,14,0,1,,,,,,,,,,,,,,,,,,,,,,,,,,,,,,,,,,,,,,,
,,,,,,,,2023-08-16_08h44.44.863,HF_wild_card,2022.2.4,Linux x86_64,60.03842459,59e675a6c0d35a00012951ce,64d2fd46c836a06233681665,64dc7de45038957636d3ce13,,,,,,,decisionTrl,resources/DP.BMP,resources/DY.BMP,Door3,-0.369765759,-0.094974399,1,0,0,0.8831,optionLeft,70,785,1,15,0,15,0,1,,,,,,,,,,,,,,,,,,,,,,,,,,,,,,,,,,,,,,,
,,,,,,,,2023-08-16_08h44.44.863,HF_wild_card,2022.2.4,Linux x86_64,60.03842459,59e675a6c0d35a00012951ce,64d2fd46c836a06233681665,64dc7de45038957636d3ce13,,,,,,,sngl,resources/DBN.BMP,resources/Empty.png,Door1,-0.391361038,-0.09863015,1,0,0,1.086,optionLeft,30,815,1,16,0,16,0,1,,,,,,,,,,,,,,,,,,,,,,,,,,,,,,,,,,,,,,,
,,,,,,,,2023-08-16_08h44.44.863,HF_wild_card,2022.2.4,Linux x86_64,60.03842459,59e675a6c0d35a00012951ce,64d2fd46c836a06233681665,64dc7de45038957636d3ce13,,,,,,,decisionTrl,resources/DP.BMP,resources/DY.BMP,Door3,-0.360831976,-0.082562129,1,0,0,0.874,optionLeft,70,885,1,17,0,17,0,1,,,,,,,,,,,,,,,,,,,,,,,,,,,,,,,,,,,,,,,
,,,,,,,,2023-08-16_08h44.44.863,HF_wild_card,2022.2.4,Linux x86_64,60.03842459,59e675a6c0d35a00012951ce,64d2fd46c836a06233681665,64dc7de45038957636d3ce13,,,,,,,decisionTrl,resources/DB.BMP,resources/DG.BMP,Door2,-0.46151801,-0.098349055,1,0,0,0.9049,optionLeft,20,905,1,18,0,18,0,1,,,,,,,,,,,,,,,,,,,,,,,,,,,,,,,,,,,,,,,
,,,,,,,,2023-08-16_08h44.44.863,HF_wild_card,2022.2.4,Linux x86_64,60.03842459,59e675a6c0d35a00012951ce,64d2fd46c836a06233681665,64dc7de45038957636d3ce13,,,,,,,sngl,resources/Empty.png,resources/DG.BMP,WildCard_NonEx,0.400476058,-0.020393292,1,0,0,0.7886,optionRight,45,950,1,19,0,19,0,1,,,,,,,,,,,,,,,,,,,,,,,,,,,,,,,,,,,,,,,
,,,,,,,,2023-08-16_08h44.44.863,HF_wild_card,2022.2.4,Linux x86_64,60.03842459,59e675a6c0d35a00012951ce,64d2fd46c836a06233681665,64dc7de45038957636d3ce13,,,,,,,decisionTrl,resources/DY.BMP,resources/DP.BMP,Door3,0.383464813,-0.101825794,1,0,0,1.1642,optionRight,70,1020,1,20,0,20,0,1,,,,,,,,,,,,,,,,,,,,,,,,,,,,,,,,,,,,,,,
,,,,,,,,2023-08-16_08h44.44.863,HF_wild_card,2022.2.4,Linux x86_64,60.03842459,59e675a6c0d35a00012951ce,64d2fd46c836a06233681665,64dc7de45038957636d3ce13,,,,,,,sngl,resources/Empty.png,resources/DB.BMP,Door2,0.313031673,-0.03332293,1,0,0,0.9733,optionRight,20,1040,1,21,0,21,0,1,,,,,,,,,,,,,,,,,,,,,,,,,,,,,,,,,,,,,,,
,,,,,,,,2023-08-16_08h44.44.863,HF_wild_card,2022.2.4,Linux x86_64,60.03842459,59e675a6c0d35a00012951ce,64d2fd46c836a06233681665,64dc7de45038957636d3ce13,,,,,,,decisionTrl,resources/DBN.BMP,resources/DG.BMP,WildCard_NonEx,0.384499868,-0.091740251,1,0,0,0.8775,optionRight,45,1085,1,22,0,22,0,1,,,,,,,,,,,,,,,,,,,,,,,,,,,,,,,,,,,,,,,
,,,,,,,,2023-08-16_08h44.44.863,HF_wild_card,2022.2.4,Linux x86_64,60.03842459,59e675a6c0d35a00012951ce,64d2fd46c836a06233681665,64dc7de45038957636d3ce13,,,,,,,decisionTrl,resources/DBN.BMP,resources/DB.BMP,Door2,0.341933171,0.018203656,1,0,0,1.3392,optionRight,40,1125,1,23,0,23,0,1,,,,,,,,,,,,,,,,,,,,,,,,,,,,,,,,,,,,,,,
,,,,,,,,2023-08-16_08h44.44.863,HF_wild_card,2022.2.4,Linux x86_64,60.03842459,59e675a6c0d35a00012951ce,64d2fd46c836a06233681665,64dc7de45038957636d3ce13,,,,,,,ctch,resources/DP.BMP,resources/DB.BMP,Door3,-0.412828565,-0.149739186,1,0,0,0.9922,optionLeft,70,1195,1,24,0,24,0,1,,,,,,,,,,,,,,,,,,,,,,,,,,,,,,,,,,,,,,,
,,,,,,,,2023-08-16_08h44.44.863,HF_wild_card,2022.2.4,Linux x86_64,60.03842459,59e675a6c0d35a00012951ce,64d2fd46c836a06233681665,64dc7de45038957636d3ce13,,,,,,,sngl,resources/DP.BMP,resources/Empty.png,Door3,-0.394628326,-0.120200117,1,0,0,0.8729,optionLeft,70,1265,1,25,0,25,0,1,,,,,,,,,,,,,,,,,,,,,,,,,,,,,,,,,,,,,,,
,,,,,,,,2023-08-16_08h44.44.863,HF_wild_card,2022.2.4,Linux x86_64,60.03842459,59e675a6c0d35a00012951ce,64d2fd46c836a06233681665,64dc7de45038957636d3ce13,,,,,,,decisionTrl,resources/DB.BMP,resources/DBN.BMP,Door2,-0.378427625,-0.054024418,1,0,0,1.2098,optionLeft,40,1305,1,26,0,26,0,1,,,,,,,,,,,,,,,,,,,,,,,,,,,,,,,,,,,,,,,
,,,,,,,,2023-08-16_08h44.44.863,HF_wild_card,2022.2.4,Linux x86_64,60.03842459,59e675a6c0d35a00012951ce,64d2fd46c836a06233681665,64dc7de45038957636d3ce13,,,,,,,decisionTrl,resources/DY.BMP,resources/DP.BMP,Door3,0.36027956,-0.057060043,1,0,0,0.9088,optionRight,70,1375,1,27,0,27,0,1,,,,,,,,,,,,,,,,,,,,,,,,,,,,,,,,,,,,,,,
,,,,,,,,2023-08-16_08h44.44.863,HF_wild_card,2022.2.4,Linux x86_64,60.03842459,59e675a6c0d35a00012951ce,64d2fd46c836a06233681665,64dc7de45038957636d3ce13,,,,,,,decisionTrl,resources/DP.BMP,resources/DY.BMP,Door3,-0.287876964,-0.05786705,1,0,0,0.9357,optionLeft,70,1445,1,28,0,28,0,1,,,,,,,,,,,,,,,,,,,,,,,,,,,,,,,,,,,,,,,
,,,,,,,,2023-08-16_08h44.44.863,HF_wild_card,2022.2.4,Linux x86_64,60.03842459,59e675a6c0d35a00012951ce,64d2fd46c836a06233681665,64dc7de45038957636d3ce13,,,,,,,decisionTrl,resources/DP.BMP,resources/DY.BMP,Door4,0.285477479,-0.04970328,1,0,0,0.9213,optionRight,80,1525,1,29,0,29,0,1,,,,,,,,,,,,,,,,,,,,,,,,,,,,,,,,,,,,,,,
,,,,,,,,2023-08-16_08h44.44.863,HF_wild_card,2022.2.4,Linux x86_64,60.03842459,59e675a6c0d35a00012951ce,64d2fd46c836a06233681665,64dc7de45038957636d3ce13,,,,,,,ctch,resources/DY.BMP,resources/DBN.BMP,Door4,-0.287684838,-0.026162585,1,0,0,0.9743,optionLeft,60,1585,1,30,0,30,0,1,,,,,,,,,,,,,,,,,,,,,,,,,,,,,,,,,,,,,,,
,,,,,,,,2023-08-16_08h44.44.863,HF_wild_card,2022.2.4,Linux x86_64,60.03842459,59e675a6c0d35a00012951ce,64d2fd46c836a06233681665,64dc7de45038957636d3ce13,,,,,,,sngl,resources/Empty.png,resources/DP.BMP,Door3,0.361382167,-0.022291104,1,0,0,0.8252,optionRight,70,1655,1,31,0,31,0,1,,,,,,,,,,,,,,,,,,,,,,,,,,,,,,,,,,,,,,,
,,,,,,,,2023-08-16_08h44.44.863,HF_wild_card,2022.2.4,Linux x86_64,60.03842459,59e675a6c0d35a00012951ce,64d2fd46c836a06233681665,64dc7de45038957636d3ce13,,,,,,,decisionTrl,resources/DG.BMP,resources/DY.BMP,Door4,0.370256503,-0.027632634,1,0,0,0.9078,optionRight,80,1735,1,32,0,32,0,1,,,,,,,,,,,,,,,,,,,,,,,,,,,,,,,,,,,,,,,
,,,,,,,,2023-08-16_08h44.44.863,HF_wild_card,2022.2.4,Linux x86_64,60.03842459,59e675a6c0d35a00012951ce,64d2fd46c836a06233681665,64dc7de45038957636d3ce13,,,,,,,ctch,resources/DBN.BMP,resources/DY.BMP,Door4,0.408210357,-0.040376623,1,0,0,0.9239,optionRight,60,1795,1,33,0,33,0,1,,,,,,,,,,,,,,,,,,,,,,,,,,,,,,,,,,,,,,,
,,,,,,,,2023-08-16_08h44.44.863,HF_wild_card,2022.2.4,Linux x86_64,60.03842459,59e675a6c0d35a00012951ce,64d2fd46c836a06233681665,64dc7de45038957636d3ce13,,,,,,,decisionTrl,resources/DBN.BMP,resources/DB.BMP,Door2,0.320413192,-0.036802808,1,0,0,1.2419,optionRight,40,1835,1,34,0,34,0,1,,,,,,,,,,,,,,,,,,,,,,,,,,,,,,,,,,,,,,,
,,,,,,,,2023-08-16_08h44.44.863,HF_wild_card,2022.2.4,Linux x86_64,60.03842459,59e675a6c0d35a00012951ce,64d2fd46c836a06233681665,64dc7de45038957636d3ce13,,,,,,,decisionTrl,resources/DY.BMP,resources/DP.BMP,Door4,-0.468894243,-0.093720635,1,0,0,1.5414,optionLeft,80,1915,1,35,0,35,0,1,,,,,,,,,,,,,,,,,,,,,,,,,,,,,,,,,,,,,,,
,,,,,,,,2023-08-16_08h44.44.863,HF_wild_card,2022.2.4,Linux x86_64,60.03842459,59e675a6c0d35a00012951ce,64d2fd46c836a06233681665,64dc7de45038957636d3ce13,,,,,,,sngl,resources/DG.BMP,resources/Empty.png,WildCard_NonEx,-0.353743712,-0.070643663,1,0,0,0.9726,optionLeft,55,1970,1,36,0,36,0,1,,,,,,,,,,,,,,,,,,,,,,,,,,,,,,,,,,,,,,,
,,,,,,,,2023-08-16_08h44.44.863,HF_wild_card,2022.2.4,Linux x86_64,60.03842459,59e675a6c0d35a00012951ce,64d2fd46c836a06233681665,64dc7de45038957636d3ce13,,,,,,,decisionTrl,resources/DY.BMP,resources/DG.BMP,WildCard_NonEx,0.351387183,-0.041926225,1,0,0,0.8907,optionRight,45,2015,1,37,0,37,0,1,,,,,,,,,,,,,,,,,,,,,,,,,,,,,,,,,,,,,,,
,,,,,,,,2023-08-16_08h44.44.863,HF_wild_card,2022.2.4,Linux x86_64,60.03842459,59e675a6c0d35a00012951ce,64d2fd46c836a06233681665,64dc7de45038957636d3ce13,,,,,,,decisionTrl,resources/DB.BMP,resources/DBN.BMP,Door2,-0.267767469,-0.063887517,1,0,0,0.7775,optionLeft,20,2035,1,38,0,38,0,1,,,,,,,,,,,,,,,,,,,,,,,,,,,,,,,,,,,,,,,
,,,,,,,,2023-08-16_08h44.44.863,HF_wild_card,2022.2.4,Linux x86_64,60.03842459,59e675a6c0d35a00012951ce,64d2fd46c836a06233681665,64dc7de45038957636d3ce13,,,,,,,ctch,resources/DBN.BMP,resources/DY.BMP,Door4,0.32038029,-0.051202575,1,0,0,0.757,optionRight,60,2095,1,39,0,39,0,1,,,,,,,,,,,,,,,,,,,,,,,,,,,,,,,,,,,,,,,
,,,,,,,,2023-08-16_08h44.44.863,HF_wild_card,2022.2.4,Linux x86_64,60.03842459,59e675a6c0d35a00012951ce,64d2fd46c836a06233681665,64dc7de45038957636d3ce13,,,,,,,sngl,resources/Empty.png,resources/DG.BMP,WildCard_NonEx,0.278980732,-0.004961848,1,0,0,0.9055,optionRight,55,2150,1,40,0,40,0,1,,,,,,,,,,,,,,,,,,,,,,,,,,,,,,,,,,,,,,,
,,,,,,,,2023-08-16_08h44.44.863,HF_wild_card,2022.2.4,Linux x86_64,60.03842459,59e675a6c0d35a00012951ce,64d2fd46c836a06233681665,64dc7de45038957636d3ce13,,,,,,,ctch,resources/DB.BMP,resources/DP.BMP,Door2,-0.261608481,-0.046361645,1,0,0,0.8081,optionLeft,40,2190,1,41,0,41,0,1,,,,,,,,,,,,,,,,,,,,,,,,,,,,,,,,,,,,,,,
,,,,,,,,2023-08-16_08h44.44.863,HF_wild_card,2022.2.4,Linux x86_64,60.03842459,59e675a6c0d35a00012951ce,64d2fd46c836a06233681665,64dc7de45038957636d3ce13,,,,,,,sngl,resources/DB.BMP,resources/Empty.png,Door2,-0.238185644,-0.034890453,1,0,0,1.8569,optionLeft,40,2230,1,42,0,42,0,1,,,,,,,,,,,,,,,,,,,,,,,,,,,,,,,,,,,,,,,
,,,,,,,,2023-08-16_08h44.44.863,HF_wild_card,2022.2.4,Linux x86_64,60.03842459,59e675a6c0d35a00012951ce,64d2fd46c836a06233681665,64dc7de45038957636d3ce13,,,,,,,sngl,resources/Empty.png,resources/DY.BMP,Door4,0.440869808,-0.004051646,1,0,0,0.6932,optionRight,60,2290,1,43,0,43,0,1,,,,,,,,,,,,,,,,,,,,,,,,,,,,,,,,,,,,,,,
,,,,,,,,2023-08-16_08h44.44.863,HF_wild_card,2022.2.4,Linux x86_64,60.03842459,59e675a6c0d35a00012951ce,64d2fd46c836a06233681665,64dc7de45038957636d3ce13,,,,,,,,,,,,,,,,,,,,,,,,,,0,0,0,0,1,,,,,,,,,,,,,,,,,,,,,,,,,,,,,,,,,,
,,,,,,,,2023-08-16_08h44.44.863,HF_wild_card,2022.2.4,Linux x86_64,60.03842459,59e675a6c0d35a00012951ce,64d2fd46c836a06233681665,64dc7de45038957636d3ce13,,,,,,,decisionTrl,resources/DBN.BMP,resources/DB.BMP,Door2,0.292387406,-0.101553837,1,0,0,1.0764,optionRight,20,2310,2,0,0,0,0,1,,,,,,,,,,,,,,,,,,,,,,,,,,,,,,,,,,,,,,,
,,,,,,,,2023-08-16_08h44.44.863,HF_wild_card,2022.2.4,Linux x86_64,60.03842459,59e675a6c0d35a00012951ce,64d2fd46c836a06233681665,64dc7de45038957636d3ce13,,,,,,,decisionTrl,resources/DB.BMP,resources/DBN.BMP,Door1,0.323218664,0.013351917,1,0,0,0.9221,optionRight,30,2340,2,1,0,1,0,1,,,,,,,,,,,,,,,,,,,,,,,,,,,,,,,,,,,,,,,
,,,,,,,,2023-08-16_08h44.44.863,HF_wild_card,2022.2.4,Linux x86_64,60.03842459,59e675a6c0d35a00012951ce,64d2fd46c836a06233681665,64dc7de45038957636d3ce13,,,,,,,decisionTrl,resources/DG.BMP,resources/DY.BMP,WildCard_NonEx,-0.459333579,-0.032089114,1,0,0,0.9036,optionLeft,55,2395,2,2,0,2,0,1,,,,,,,,,,,,,,,,,,,,,,,,,,,,,,,,,,,,,,,
,,,,,,,,2023-08-16_08h44.44.863,HF_wild_card,2022.2.4,Linux x86_64,60.03842459,59e675a6c0d35a00012951ce,64d2fd46c836a06233681665,64dc7de45038957636d3ce13,,,,,,,sngl,resources/DBN.BMP,resources/Empty.png,Door1,-0.441821059,0.001458923,1,0,0,0.9326,optionLeft,30,2425,2,3,0,3,0,1,,,,,,,,,,,,,,,,,,,,,,,,,,,,,,,,,,,,,,,
,,,,,,,,2023-08-16_08h44.44.863,HF_wild_card,2022.2.4,Linux x86_64,60.03842459,59e675a6c0d35a00012951ce,64d2fd46c836a06233681665,64dc7de45038957636d3ce13,,,,,,,decisionTrl,resources/DY.BMP,resources/DP.BMP,Door3,0.388900757,-0.068996072,1,0,0,0.7767,optionRight,70,2495,2,4,0,4,0,1,,,,,,,,,,,,,,,,,,,,,,,,,,,,,,,,,,,,,,,
,,,,,,,,2023-08-16_08h44.44.863,HF_wild_card,2022.2.4,Linux x86_64,60.03842459,59e675a6c0d35a00012951ce,64d2fd46c836a06233681665,64dc7de45038957636d3ce13,,,,,,,decisionTrl,resources/DP.BMP,resources/DY.BMP,Door3,-0.324705799,-0.044068933,1,0,0,0.8223,optionLeft,70,2565,2,5,0,5,0,1,,,,,,,,,,,,,,,,,,,,,,,,,,,,,,,,,,,,,,,
,,,,,,,,2023-08-16_08h44.44.863,HF_wild_card,2022.2.4,Linux x86_64,60.03842459,59e675a6c0d35a00012951ce,64d2fd46c836a06233681665,64dc7de45038957636d3ce13,,,,,,,decisionTrl,resources/DG.BMP,resources/DP.BMP,Door3,0.376927296,-0.080991626,1,0,0,0.7046,optionRight,70,2635,2,6,0,6,0,1,,,,,,,,,,,,,,,,,,,,,,,,,,,,,,,,,,,,,,,
,,,,,,,,2023-08-16_08h44.44.863,HF_wild_card,2022.2.4,Linux x86_64,60.03842459,59e675a6c0d35a00012951ce,64d2fd46c836a06233681665,64dc7de45038957636d3ce13,,,,,,,ctch,resources/DY.BMP,resources/DBN.BMP,Door4,-0.273904522,-0.026218295,1,0,0,0.8407,optionLeft,80,2715,2,7,0,7,0,1,,,,,,,,,,,,,,,,,,,,,,,,,,,,,,,,,,,,,,,
,,,,,,,,2023-08-16_08h44.44.863,HF_wild_card,2022.2.4,Linux x86_64,60.03842459,59e675a6c0d35a00012951ce,64d2fd46c836a06233681665,64dc7de45038957636d3ce13,,,,,,,sngl,resources/Empty.png,resources/DG.BMP,WildCard_NonEx,0.281193256,-0.044168353,1,0,0,0.642,optionRight,55,2770,2,8,0,8,0,1,,,,,,,,,,,,,,,,,,,,,,,,,,,,,,,,,,,,,,,
,,,,,,,,2023-08-16_08h44.44.863,HF_wild_card,2022.2.4,Linux x86_64,60.03842459,59e675a6c0d35a00012951ce,64d2fd46c836a06233681665,64dc7de45038957636d3ce13,,,,,,,ctch,resources/DBN.BMP,resources/DY.BMP,Door4,0.315702359,-0.033979257,1,0,0,0.9716,optionRight,80,2850,2,9,0,9,0,1,,,,,,,,,,,,,,,,,,,,,,,,,,,,,,,,,,,,,,,
,,,,,,,,2023-08-16_08h44.44.863,HF_wild_card,2022.2.4,Linux x86_64,60.03842459,59e675a6c0d35a00012951ce,64d2fd46c836a06233681665,64dc7de45038957636d3ce13,,,,,,,decisionTrl,resources/DG.BMP,resources/DB.BMP,Door2,0.359654824,-0.058692535,1,0,0,0.8267,optionRight,40,2890,2,10,0,10,0,1,,,,,,,,,,,,,,,,,,,,,,,,,,,,,,,,,,,,,,,
,,,,,,,,2023-08-16_08h44.44.863,HF_wild_card,2022.2.4,Linux x86_64,60.03842459,59e675a6c0d35a00012951ce,64d2fd46c836a06233681665,64dc7de45038957636d3ce13,,,,,,,sngl,resources/DB.BMP,resources/Empty.png,Door2,-0.510588368,-0.031281511,1,0,0,0.8387,optionLeft,20,2910,2,11,0,11,0,1,,,,,,,,,,,,,,,,,,,,,,,,,,,,,,,,,,,,,,,
,,,,,,,,2023-08-16_08h44.44.863,HF_wild_card,2022.2.4,Linux x86_64,60.03842459,59e675a6c0d35a00012951ce,64d2fd46c836a06233681665,64dc7de45038957636d3ce13,,,,,,,decisionTrl,resources/DY.BMP,resources/DG.BMP,WildCard_NonEx,0.592728456,-0.061134696,1,0,0,0.7239,optionRight,45,2955,2,12,0,12,0,1,,,,,,,,,,,,,,,,,,,,,,,,,,,,,,,,,,,,,,,
,,,,,,,,2023-08-16_08h44.44.863,HF_wild_card,2022.2.4,Linux x86_64,60.03842459,59e675a6c0d35a00012951ce,64d2fd46c836a06233681665,64dc7de45038957636d3ce13,,,,,,,decisionTrl,resources/DB.BMP,resources/DG.BMP,Door2,-0.398049553,-0.049465736,1,0,0,0.6454,optionLeft,20,2975,2,13,0,13,0,1,,,,,,,,,,,,,,,,,,,,,,,,,,,,,,,,,,,,,,,
,,,,,,,,2023-08-16_08h44.44.863,HF_wild_card,2022.2.4,Linux x86_64,60.03842459,59e675a6c0d35a00012951ce,64d2fd46c836a06233681665,64dc7de45038957636d3ce13,,,,,,,sngl,resources/Empty.png,resources/DG.BMP,WildCard_NonEx,0.376033306,-0.047183792,1,0,0,0.6432,optionRight,45,3020,2,14,0,14,0,1,,,,,,,,,,,,,,,,,,,,,,,,,,,,,,,,,,,,,,,
,,,,,,,,2023-08-16_08h44.44.863,HF_wild_card,2022.2.4,Linux x86_64,60.03842459,59e675a6c0d35a00012951ce,64d2fd46c836a06233681665,64dc7de45038957636d3ce13,,,,,,,sngl,resources/DG.BMP,resources/Empty.png,WildCard_NonEx,-0.418227116,-0.048139731,1,0,0,0.6617,optionLeft,55,3075,2,15,0,15,0,1,,,,,,,,,,,,,,,,,,,,,,,,,,,,,,,,,,,,,,,
,,,,,,,,2023-08-16_08h44.44.863,HF_wild_card,2022.2.4,Linux x86_64,60.03842459,59e675a6c0d35a00012951ce,64d2fd46c836a06233681665,64dc7de45038957636d3ce13,,,,,,,ctch,resources/DP.BMP,resources/DB.BMP,Door2,0.314441204,-0.066512744,1,0,0,0.845,optionRight,20,3095,2,16,0,16,0,1,,,,,,,,,,,,,,,,,,,,,,,,,,,,,,,,,,,,,,,
,,,,,,,,2023-08-16_08h44.44.863,HF_wild_card,2022.2.4,Linux x86_64,60.03842459,59e675a6c0d35a00012951ce,64d2fd46c836a06233681665,64dc7de45038957636d3ce13,,,,,,,decisionTrl,resources/DP.BMP,resources/DY.BMP,Door3,-0.452286641,-0.061887304,1,0,0,0.732,optionLeft,70,3165,2,17,0,17,0,1,,,,,,,,,,,,,,,,,,,,,,,,,,,,,,,,,,,,,,,
,,,,,,,,2023-08-16_08h44.44.863,HF_wild_card,2022.2.4,Linux x86_64,60.03842459,59e675a6c0d35a00012951ce,64d2fd46c836a06233681665,64dc7de45038957636d3ce13,,,,,,,decisionTrl,resources/DP.BMP,resources/DY.BMP,Door3,-0.269604762,-0.051550746,1,0,0,1.0339,optionLeft,70,3235,2,18,0,18,0,1,,,,,,,,,,,,,,,,,,,,,,,,,,,,,,,,,,,,,,,
,,,,,,,,2023-08-16_08h44.44.863,HF_wild_card,2022.2.4,Linux x86_64,60.03842459,59e675a6c0d35a00012951ce,64d2fd46c836a06233681665,64dc7de45038957636d3ce13,,,,,,,decisionTrl,resources/DY.BMP,resources/DP.BMP,Door3,0.337860187,-0.068363587,1,0,0,1.21,optionRight,70,3305,2,19,0,19,0,1,,,,,,,,,,,,,,,,,,,,,,,,,,,,,,,,,,,,,,,
,,,,,,,,2023-08-16_08h44.44.863,HF_wild_card,2022.2.4,Linux x86_64,60.03842459,59e675a6c0d35a00012951ce,64d2fd46c836a06233681665,64dc7de45038957636d3ce13,,,,,,,sngl,resources/DP.BMP,resources/Empty.png,Door3,-0.435098807,-0.092972994,1,0,0,0.7759,optionLeft,70,3375,2,20,0,20,0,1,,,,,,,,,,,,,,,,,,,,,,,,,,,,,,,,,,,,,,,
,,,,,,,,2023-08-16_08h44.44.863,HF_wild_card,2022.2.4,Linux x86_64,60.03842459,59e675a6c0d35a00012951ce,64d2fd46c836a06233681665,64dc7de45038957636d3ce13,,,,,,,decisionTrl,resources/DBN.BMP,resources/DB.BMP,Door1,-0.345511397,-0.042738159,1,0,0,1.3898,optionLeft,30,3405,2,21,0,21,0,1,,,,,,,,,,,,,,,,,,,,,,,,,,,,,,,,,,,,,,,
,,,,,,,,2023-08-16_08h44.44.863,HF_wild_card,2022.2.4,Linux x86_64,60.03842459,59e675a6c0d35a00012951ce,64d2fd46c836a06233681665,64dc7de45038957636d3ce13,,,,,,,decisionTrl,resources/DBN.BMP,resources/DG.BMP,WildCard_NonEx,0.415398121,-0.080097556,1,0,0,0.7263,optionRight,55,3460,2,22,0,22,0,1,,,,,,,,,,,,,,,,,,,,,,,,,,,,,,,,,,,,,,,
,,,,,,,,2023-08-16_08h44.44.863,HF_wild_card,2022.2.4,Linux x86_64,60.03842459,59e675a6c0d35a00012951ce,64d2fd46c836a06233681665,64dc7de45038957636d3ce13,,,,,,,ctch,resources/DB.BMP,resources/DP.BMP,Door3,0.273097912,-0.053142746,1,0,0,1.1093,optionRight,70,3530,2,23,0,23,0,1,,,,,,,,,,,,,,,,,,,,,,,,,,,,,,,,,,,,,,,
,,,,,,,,2023-08-16_08h44.44.863,HF_wild_card,2022.2.4,Linux x86_64,60.03842459,59e675a6c0d35a00012951ce,64d2fd46c836a06233681665,64dc7de45038957636d3ce13,,,,,,,ctch,resources/DP.BMP,resources/DB.BMP,Door3,-0.28516988,-0.000368913,1,0,0,0.9264,optionLeft,70,3600,2,24,0,24,0,1,,,,,,,,,,,,,,,,,,,,,,,,,,,,,,,,,,,,,,,
,,,,,,,,2023-08-16_08h44.44.863,HF_wild_card,2022.2.4,Linux x86_64,60.03842459,59e675a6c0d35a00012951ce,64d2fd46c836a06233681665,64dc7de45038957636d3ce13,,,,,,,ctch,resources/DB.BMP,resources/DP.BMP,Door3,0.399113337,0.010086974,1,0,0,1.0423,optionRight,70,3670,2,25,0,25,0,1,,,,,,,,,,,,,,,,,,,,,,,,,,,,,,,,,,,,,,,
,,,,,,,,2023-08-16_08h44.44.863,HF_wild_card,2022.2.4,Linux x86_64,60.03842459,59e675a6c0d35a00012951ce,64d2fd46c836a06233681665,64dc7de45038957636d3ce13,,,,,,,decisionTrl,resources/DBN.BMP,resources/DB.BMP,Door1,-0.435775518,-0.04811132,1,0,0,1.0603,optionLeft,30,3700,2,26,0,26,0,1,,,,,,,,,,,,,,,,,,,,,,,,,,,,,,,,,,,,,,,
,,,,,,,,2023-08-16_08h44.44.863,HF_wild_card,2022.2.4,Linux x86_64,60.03842459,59e675a6c0d35a00012951ce,64d2fd46c836a06233681665,64dc7de45038957636d3ce13,,,,,,,decisionTrl,resources/DB.BMP,resources/DBN.BMP,Door2,-0.386889815,-0.088210344,1,0,0,0.8623,optionLeft,40,3740,2,27,0,27,0,1,,,,,,,,,,,,,,,,,,,,,,,,,,,,,,,,,,,,,,,
,,,,,,,,2023-08-16_08h44.44.863,HF_wild_card,2022.2.4,Linux x86_64,60.03842459,59e675a6c0d35a00012951ce,64d2fd46c836a06233681665,64dc7de45038957636d3ce13,,,,,,,decisionTrl,resources/DG.BMP,resources/DBN.BMP,WildCard_NonEx,-0.402493517,-0.130142887,1,0,0,1.0553,optionLeft,55,3795,2,28,0,28,0,1,,,,,,,,,,,,,,,,,,,,,,,,,,,,,,,,,,,,,,,
,,,,,,,,2023-08-16_08h44.44.863,HF_wild_card,2022.2.4,Linux x86_64,60.03842459,59e675a6c0d35a00012951ce,64d2fd46c836a06233681665,64dc7de45038957636d3ce13,,,,,,,decisionTrl,resources/DY.BMP,resources/DP.BMP,Door3,0.337135553,-0.078627944,1,0,0,0.8335,optionRight,70,3865,2,29,0,29,0,1,,,,,,,,,,,,,,,,,,,,,,,,,,,,,,,,,,,,,,,
,,,,,,,,2023-08-16_08h44.44.863,HF_wild_card,2022.2.4,Linux x86_64,60.03842459,59e675a6c0d35a00012951ce,64d2fd46c836a06233681665,64dc7de45038957636d3ce13,,,,,,,sngl,resources/Empty.png,resources/DBN.BMP,Door1,0.356829087,-0.013100386,1,0,0,0.952,optionRight,30,3895,2,30,0,30,0,1,,,,,,,,,,,,,,,,,,,,,,,,,,,,,,,,,,,,,,,
,,,,,,,,2023-08-16_08h44.44.863,HF_wild_card,2022.2.4,Linux x86_64,60.03842459,59e675a6c0d35a00012951ce,64d2fd46c836a06233681665,64dc7de45038957636d3ce13,,,,,,,sngl,resources/Empty.png,resources/DP.BMP,Door3,0.334599733,-0.000913342,1,0,0,0.7725,optionRight,70,3965,2,31,0,31,0,1,,,,,,,,,,,,,,,,,,,,,,,,,,,,,,,,,,,,,,,
,,,,,,,,2023-08-16_08h44.44.863,HF_wild_card,2022.2.4,Linux x86_64,60.03842459,59e675a6c0d35a00012951ce,64d2fd46c836a06233681665,64dc7de45038957636d3ce13,,,,,,,decisionTrl,resources/DB.BMP,resources/DBN.BMP,Door2,-0.423224489,-0.027122895,1,0,0,1.0807,optionLeft,20,3985,2,32,0,32,0,1,,,,,,,,,,,,,,,,,,,,,,,,,,,,,,,,,,,,,,,
,,,,,,,,2023-08-16_08h44.44.863,HF_wild_card,2022.2.4,Linux x86_64,60.03842459,59e675a6c0d35a00012951ce,64d2fd46c836a06233681665,64dc7de45038957636d3ce13,,,,,,,sngl,resources/DG.BMP,resources/Empty.png,WildCard_NonEx,-0.290973186,-0.034691811,1,0,0,1.0217,optionLeft,45,4030,2,33,0,33,0,1,,,,,,,,,,,,,,,,,,,,,,,,,,,,,,,,,,,,,,,
,,,,,,,,2023-08-16_08h44.44.863,HF_wild_card,2022.2.4,Linux x86_64,60.03842459,59e675a6c0d35a00012951ce,64d2fd46c836a06233681665,64dc7de45038957636d3ce13,,,,,,,decisionTrl,resources/DBN.BMP,resources/DB.BMP,Door2,0.400553624,-0.09283344,1,0,0,0.8812,optionRight,40,4070,2,34,0,34,0,1,,,,,,,,,,,,,,,,,,,,,,,,,,,,,,,,,,,,,,,
,,,,,,,,2023-08-16_08h44.44.863,HF_wild_card,2022.2.4,Linux x86_64,60.03842459,59e675a6c0d35a00012951ce,64d2fd46c836a06233681665,64dc7de45038957636d3ce13,,,,,,,sngl,resources/Empty.png,resources/DB.BMP,Door2,0.228918393,-0.069244822,1,0,0,0.8817,optionRight,40,4110,2,35,0,35,0,1,,,,,,,,,,,,,,,,,,,,,,,,,,,,,,,,,,,,,,,
,,,,,,,,2023-08-16_08h44.44.863,HF_wild_card,2022.2.4,Linux x86_64,60.03842459,59e675a6c0d35a00012951ce,64d2fd46c836a06233681665,64dc7de45038957636d3ce13,,,,,,,decisionTrl,resources/DB.BMP,resources/DBN.BMP,Door2,-0.378638784,-0.077666044,1,0,0,0.7751,optionLeft,40,4150,2,36,0,36,0,1,,,,,,,,,,,,,,,,,,,,,,,,,,,,,,,,,,,,,,,
,,,,,,,,2023-08-16_08h44.44.863,HF_wild_card,2022.2.4,Linux x86_64,60.03842459,59e675a6c0d35a00012951ce,64d2fd46c836a06233681665,64dc7de45038957636d3ce13,,,,,,,sngl,resources/DY.BMP,resources/Empty.png,Door4,-0.310761094,-0.088947733,1,0,0,0.8215,optionLeft,60,4210,2,37,0,37,0,1,,,,,,,,,,,,,,,,,,,,,,,,,,,,,,,,,,,,,,,
,,,,,,,,2023-08-16_08h44.44.863,HF_wild_card,2022.2.4,Linux x86_64,60.03842459,59e675a6c0d35a00012951ce,64d2fd46c836a06233681665,64dc7de45038957636d3ce13,,,,,,,ctch,resources/DBN.BMP,resources/DY.BMP,Door4,0.342305263,-0.018774907,1,0,0,0.6893,optionRight,80,4290,2,38,0,38,0,1,,,,,,,,,,,,,,,,,,,,,,,,,,,,,,,,,,,,,,,
,,,,,,,,2023-08-16_08h44.44.863,HF_wild_card,2022.2.4,Linux x86_64,60.03842459,59e675a6c0d35a00012951ce,64d2fd46c836a06233681665,64dc7de45038957636d3ce13,,,,,,,decisionTrl,resources/DP.BMP,resources/DY.BMP,Door3,-0.26679492,-0.020745595,1,0,0,0.9781,optionLeft,70,4360,2,39,0,39,0,1,,,,,,,,,,,,,,,,,,,,,,,,,,,,,,,,,,,,,,,
,,,,,,,,2023-08-16_08h44.44.863,HF_wild_card,2022.2.4,Linux x86_64,60.03842459,59e675a6c0d35a00012951ce,64d2fd46c836a06233681665,64dc7de45038957636d3ce13,,,,,,,decisionTrl,resources/DY.BMP,resources/DP.BMP,Door3,0.434858402,-0.038742542,1,0,0,0.694,optionRight,70,4430,2,40,0,40,0,1,,,,,,,,,,,,,,,,,,,,,,,,,,,,,,,,,,,,,,,
,,,,,,,,2023-08-16_08h44.44.863,HF_wild_card,2022.2.4,Linux x86_64,60.03842459,59e675a6c0d35a00012951ce,64d2fd46c836a06233681665,64dc7de45038957636d3ce13,,,,,,,decisionTrl,resources/DP.BMP,resources/DG.BMP,Door3,-0.371534824,-0.09266146,1,0,0,0.7846,optionLeft,70,4500,2,41,0,41,0,1,,,,,,,,,,,,,,,,,,,,,,,,,,,,,,,,,,,,,,,
,,,,,,,,2023-08-16_08h44.44.863,HF_wild_card,2022.2.4,Linux x86_64,60.03842459,59e675a6c0d35a00012951ce,64d2fd46c836a06233681665,64dc7de45038957636d3ce13,,,,,,,sngl,resources/Empty.png,resources/DY.BMP,Door4,0.408523401,-0.084139148,1,0,0,0.6741,optionRight,80,4580,2,42,0,42,0,1,,,,,,,,,,,,,,,,,,,,,,,,,,,,,,,,,,,,,,,
,,,,,,,,2023-08-16_08h44.44.863,HF_wild_card,2022.2.4,Linux x86_64,60.03842459,59e675a6c0d35a00012951ce,64d2fd46c836a06233681665,64dc7de45038957636d3ce13,,,,,,,ctch,resources/DY.BMP,resources/DBN.BMP,Door4,-0.41768233,-0.176553647,1,0,0,0.8336,optionLeft,60,4640,2,43,0,43,0,1,,,,,,,,,,,,,,,,,,,,,,,,,,,,,,,,,,,,,,,
,,,,,,,,2023-08-16_08h44.44.863,HF_wild_card,2022.2.4,Linux x86_64,60.03842459,59e675a6c0d35a00012951ce,64d2fd46c836a06233681665,64dc7de45038957636d3ce13,,,,,,,,,,,,,,,,,,,,,,,,,,1,0,1,0,1,,,,,,,,,,,,,,,,,,,,,,,,,,,,,,,,,,
,,,,,,,,2023-08-16_08h44.44.863,HF_wild_card,2022.2.4,Linux x86_64,60.03842459,59e675a6c0d35a00012951ce,64d2fd46c836a06233681665,64dc7de45038957636d3ce13,,,,,,,sngl,resources/Empty.png,resources/DY.BMP,Door4,0.276803573,-0.095283469,1,0,0,0.9443,optionRight,60,4700,3,0,0,0,0,1,,,,,,,,,,,,,,,,,,,,,,,,,,,,,,,,,,,,,,,
,,,,,,,,2023-08-16_08h44.44.863,HF_wild_card,2022.2.4,Linux x86_64,60.03842459,59e675a6c0d35a00012951ce,64d2fd46c836a06233681665,64dc7de45038957636d3ce13,,,,,,,sngl,resources/Empty.png,resources/DB.BMP,Door2,0.25584507,-0.030470928,1,0,0,0.8079,optionRight,20,4720,3,1,0,1,0,1,,,,,,,,,,,,,,,,,,,,,,,,,,,,,,,,,,,,,,,
,,,,,,,,2023-08-16_08h44.44.863,HF_wild_card,2022.2.4,Linux x86_64,60.03842459,59e675a6c0d35a00012951ce,64d2fd46c836a06233681665,64dc7de45038957636d3ce13,,,,,,,ctch,resources/DBN.BMP,resources/DY.BMP,Door4,0.373233477,-0.108376582,1,0,0,0.8254,optionRight,60,4780,3,2,0,2,0,1,,,,,,,,,,,,,,,,,,,,,,,,,,,,,,,,,,,,,,,
,,,,,,,,2023-08-16_08h44.44.863,HF_wild_card,2022.2.4,Linux x86_64,60.03842459,59e675a6c0d35a00012951ce,64d2fd46c836a06233681665,64dc7de45038957636d3ce13,,,,,,,decisionTrl,resources/DP.BMP,resources/DY.BMP,Door3,-0.421615322,-0.027919412,1,0,0,0.7602,optionLeft,70,4850,3,3,0,3,0,1,,,,,,,,,,,,,,,,,,,,,,,,,,,,,,,,,,,,,,,
,,,,,,,,2023-08-16_08h44.44.863,HF_wild_card,2022.2.4,Linux x86_64,60.03842459,59e675a6c0d35a00012951ce,64d2fd46c836a06233681665,64dc7de45038957636d3ce13,,,,,,,sngl,resources/Empty.png,resources/DG.BMP,WildCard_NonEx,0.440988382,-0.025903106,1,0,0,0.7256,optionRight,45,4895,3,4,0,4,0,1,,,,,,,,,,,,,,,,,,,,,,,,,,,,,,,,,,,,,,,
,,,,,,,,2023-08-16_08h44.44.863,HF_wild_card,2022.2.4,Linux x86_64,60.03842459,59e675a6c0d35a00012951ce,64d2fd46c836a06233681665,64dc7de45038957636d3ce13,,,,,,,sngl,resources/DG.BMP,resources/Empty.png,WildCard_NonEx,-0.454371572,-0.054972013,1,0,0,0.8242,optionLeft,55,4950,3,5,0,5,0,1,,,,,,,,,,,,,,,,,,,,,,,,,,,,,,,,,,,,,,,
,,,,,,,,2023-08-16_08h44.44.863,HF_wild_card,2022.2.4,Linux x86_64,60.03842459,59e675a6c0d35a00012951ce,64d2fd46c836a06233681665,64dc7de45038957636d3ce13,,,,,,,decisionTrl,resources/DB.BMP,resources/DBN.BMP,Door2,-0.289668719,-0.043574254,1,0,0,1.0747,optionLeft,40,4990,3,6,0,6,0,1,,,,,,,,,,,,,,,,,,,,,,,,,,,,,,,,,,,,,,,
,,,,,,,,2023-08-16_08h44.44.863,HF_wild_card,2022.2.4,Linux x86_64,60.03842459,59e675a6c0d35a00012951ce,64d2fd46c836a06233681665,64dc7de45038957636d3ce13,,,,,,,decisionTrl,resources/DY.BMP,resources/DP.BMP,Door3,0.25570178,-0.059831619,1,0,0,0.9292,optionRight,70,5060,3,7,0,7,0,1,,,,,,,,,,,,,,,,,,,,,,,,,,,,,,,,,,,,,,,
,,,,,,,,2023-08-16_08h44.44.863,HF_wild_card,2022.2.4,Linux x86_64,60.03842459,59e675a6c0d35a00012951ce,64d2fd46c836a06233681665,64dc7de45038957636d3ce13,,,,,,,sngl,resources/DB.BMP,resources/Empty.png,Door2,-0.286825856,-0.020967801,1,0,0,0.8952,optionLeft,40,5100,3,8,0,8,0,1,,,,,,,,,,,,,,,,,,,,,,,,,,,,,,,,,,,,,,,
,,,,,,,,2023-08-16_08h44.44.863,HF_wild_card,2022.2.4,Linux x86_64,60.03842459,59e675a6c0d35a00012951ce,64d2fd46c836a06233681665,64dc7de45038957636d3ce13,,,,,,,decisionTrl,resources/DBN.BMP,resources/DB.BMP,Door2,0.267209291,-0.044680834,1,0,0,0.7601,optionRight,20,5120,3,9,0,9,0,1,,,,,,,,,,,,,,,,,,,,,,,,,,,,,,,,,,,,,,,
,,,,,,,,2023-08-16_08h44.44.863,HF_wild_card,2022.2.4,Linux x86_64,60.03842459,59e675a6c0d35a00012951ce,64d2fd46c836a06233681665,64dc7de45038957636d3ce13,,,,,,,sngl,resources/DBN.BMP,resources/Empty.png,Door1,-0.344380617,-0.010993083,1,0,0,0.7784,optionLeft,30,5150,3,10,0,10,0,1,,,,,,,,,,,,,,,,,,,,,,,,,,,,,,,,,,,,,,,
,,,,,,,,2023-08-16_08h44.44.863,HF_wild_card,2022.2.4,Linux x86_64,60.03842459,59e675a6c0d35a00012951ce,64d2fd46c836a06233681665,64dc7de45038957636d3ce13,,,,,,,ctch,resources/DBN.BMP,resources/DY.BMP,Door4,0.336605231,-0.054808696,1,0,0,0.8761,optionRight,80,5230,3,11,0,11,0,1,,,,,,,,,,,,,,,,,,,,,,,,,,,,,,,,,,,,,,,
,,,,,,,,2023-08-16_08h44.44.863,HF_wild_card,2022.2.4,Linux x86_64,60.03842459,59e675a6c0d35a00012951ce,64d2fd46c836a06233681665,64dc7de45038957636d3ce13,,,,,,,decisionTrl,resources/DY.BMP,resources/DP.BMP,Door3,0.405310949,-0.083087087,1,0,0,0.8034,optionRight,70,5300,3,12,0,12,0,1,,,,,,,,,,,,,,,,,,,,,,,,,,,,,,,,,,,,,,,
,,,,,,,,2023-08-16_08h44.44.863,HF_wild_card,2022.2.4,Linux x86_64,60.03842459,59e675a6c0d35a00012951ce,64d2fd46c836a06233681665,64dc7de45038957636d3ce13,,,,,,,decisionTrl,resources/DG.BMP,resources/DBN.BMP,WildCard_NonEx,-0.326322993,-0.03557837,1,0,0,1.3565,optionLeft,55,5355,3,13,0,13,0,1,,,,,,,,,,,,,,,,,,,,,,,,,,,,,,,,,,,,,,,
,,,,,,,,2023-08-16_08h44.44.863,HF_wild_card,2022.2.4,Linux x86_64,60.03842459,59e675a6c0d35a00012951ce,64d2fd46c836a06233681665,64dc7de45038957636d3ce13,,,,,,,decisionTrl,resources/DB.BMP,resources/DBN.BMP,Door2,-0.276043534,-0.015825987,1,0,0,0.7406,optionLeft,20,5375,3,14,0,14,0,1,,,,,,,,,,,,,,,,,,,,,,,,,,,,,,,,,,,,,,,
,,,,,,,,2023-08-16_08h44.44.863,HF_wild_card,2022.2.4,Linux x86_64,60.03842459,59e675a6c0d35a00012951ce,64d2fd46c836a06233681665,64dc7de45038957636d3ce13,,,,,,,sngl,resources/Empty.png,resources/DG.BMP,WildCard_NonEx,0.337540627,-0.024172902,1,0,0,0.6923,optionRight,55,5430,3,15,0,15,0,1,,,,,,,,,,,,,,,,,,,,,,,,,,,,,,,,,,,,,,,
,,,,,,,,2023-08-16_08h44.44.863,HF_wild_card,2022.2.4,Linux x86_64,60.03842459,59e675a6c0d35a00012951ce,64d2fd46c836a06233681665,64dc7de45038957636d3ce13,,,,,,,ctch,resources/DP.BMP,resources/DB.BMP,Door2,0.390937249,-0.0264738,1,0,0,0.6751,optionRight,40,5470,3,16,0,16,0,1,,,,,,,,,,,,,,,,,,,,,,,,,,,,,,,,,,,,,,,
,,,,,,,,2023-08-16_08h44.44.863,HF_wild_card,2022.2.4,Linux x86_64,60.03842459,59e675a6c0d35a00012951ce,64d2fd46c836a06233681665,64dc7de45038957636d3ce13,,,,,,,ctch,resources/DB.BMP,resources/DP.BMP,Door2,-0.393855651,-0.06126972,1,0,0,0.7447,optionLeft,40,5510,3,17,0,17,0,1,,,,,,,,,,,,,,,,,,,,,,,,,,,,,,,,,,,,,,,
,,,,,,,,2023-08-16_08h44.44.863,HF_wild_card,2022.2.4,Linux x86_64,60.03842459,59e675a6c0d35a00012951ce,64d2fd46c836a06233681665,64dc7de45038957636d3ce13,,,,,,,decisionTrl,resources/DBN.BMP,resources/DB.BMP,Door2,0.380121946,-0.029806495,1,0,0,0.6701,optionRight,20,5530,3,18,0,18,0,1,,,,,,,,,,,,,,,,,,,,,,,,,,,,,,,,,,,,,,,
,,,,,,,,2023-08-16_08h44.44.863,HF_wild_card,2022.2.4,Linux x86_64,60.03842459,59e675a6c0d35a00012951ce,64d2fd46c836a06233681665,64dc7de45038957636d3ce13,,,,,,,sngl,resources/Empty.png,resources/DBN.BMP,Door1,0.335822264,-0.039164424,1,0,0,0.9102,optionRight,30,5560,3,19,0,19,0,1,,,,,,,,,,,,,,,,,,,,,,,,,,,,,,,,,,,,,,,
,,,,,,,,2023-08-16_08h44.44.863,HF_wild_card,2022.2.4,Linux x86_64,60.03842459,59e675a6c0d35a00012951ce,64d2fd46c836a06233681665,64dc7de45038957636d3ce13,,,,,,,decisionTrl,resources/DP.BMP,resources/DY.BMP,Door4,0.339858214,-0.046632687,1,0,0,2.6863,optionRight,80,5640,3,20,0,20,0,1,,,,,,,,,,,,,,,,,,,,,,,,,,,,,,,,,,,,,,,
,,,,,,,,2023-08-16_08h44.44.863,HF_wild_card,2022.2.4,Linux x86_64,60.03842459,59e675a6c0d35a00012951ce,64d2fd46c836a06233681665,64dc7de45038957636d3ce13,,,,,,,sngl,resources/Empty.png,resources/DP.BMP,Door3,0.366263707,0.011289318,1,0,0,0.6224,optionRight,70,5710,3,21,0,21,0,1,,,,,,,,,,,,,,,,,,,,,,,,,,,,,,,,,,,,,,,
,,,,,,,,2023-08-16_08h44.44.863,HF_wild_card,2022.2.4,Linux x86_64,60.03842459,59e675a6c0d35a00012951ce,64d2fd46c836a06233681665,64dc7de45038957636d3ce13,,,,,,,decisionTrl,resources/DB.BMP,resources/DBN.BMP,Door2,-0.40447108,-0.067979256,1,0,0,1.0871,optionLeft,40,5750,3,22,0,22,0,1,,,,,,,,,,,,,,,,,,,,,,,,,,,,,,,,,,,,,,,
,,,,,,,,2023-08-16_08h44.44.863,HF_wild_card,2022.2.4,Linux x86_64,60.03842459,59e675a6c0d35a00012951ce,64d2fd46c836a06233681665,64dc7de45038957636d3ce13,,,,,,,decisionTrl,resources/DP.BMP,resources/DY.BMP,Door3,-0.304276427,-0.120351473,1,0,0,0.9254,optionLeft,70,5820,3,23,0,23,0,1,,,,,,,,,,,,,,,,,,,,,,,,,,,,,,,,,,,,,,,
,,,,,,,,2023-08-16_08h44.44.863,HF_wild_card,2022.2.4,Linux x86_64,60.03842459,59e675a6c0d35a00012951ce,64d2fd46c836a06233681665,64dc7de45038957636d3ce13,,,,,,,ctch,resources/DB.BMP,resources/DP.BMP,Door3,0.389564514,-0.002563397,1,0,0,1.1069,optionRight,70,5890,3,24,0,24,0,1,,,,,,,,,,,,,,,,,,,,,,,,,,,,,,,,,,,,,,,
,,,,,,,,2023-08-16_08h44.44.863,HF_wild_card,2022.2.4,Linux x86_64,60.03842459,59e675a6c0d35a00012951ce,64d2fd46c836a06233681665,64dc7de45038957636d3ce13,,,,,,,sngl,resources/DP.BMP,resources/Empty.png,Door3,-0.265618404,-0.042933583,1,0,0,1.9741,optionLeft,70,5960,3,25,0,25,0,1,,,,,,,,,,,,,,,,,,,,,,,,,,,,,,,,,,,,,,,
,,,,,,,,2023-08-16_08h44.44.863,HF_wild_card,2022.2.4,Linux x86_64,60.03842459,59e675a6c0d35a00012951ce,64d2fd46c836a06233681665,64dc7de45038957636d3ce13,,,,,,,decisionTrl,resources/DY.BMP,resources/DP.BMP,Door3,0.366567294,-0.003487865,1,0,0,0.6389,optionRight,70,6030,3,26,0,26,0,1,,,,,,,,,,,,,,,,,,,,,,,,,,,,,,,,,,,,,,,
,,,,,,,,2023-08-16_08h44.44.863,HF_wild_card,2022.2.4,Linux x86_64,60.03842459,59e675a6c0d35a00012951ce,64d2fd46c836a06233681665,64dc7de45038957636d3ce13,,,,,,,decisionTrl,resources/DG.BMP,resources/DP.BMP,Door3,0.324736834,-0.056587219,1,0,0,0.8434,optionRight,70,6100,3,27,0,27,0,1,,,,,,,,,,,,,,,,,,,,,,,,,,,,,,,,,,,,,,,
,,,,,,,,2023-08-16_08h44.44.863,HF_wild_card,2022.2.4,Linux x86_64,60.03842459,59e675a6c0d35a00012951ce,64d2fd46c836a06233681665,64dc7de45038957636d3ce13,,,,,,,sngl,resources/DY.BMP,resources/Empty.png,Door4,-0.350572467,-0.058164557,1,0,0,0.9251,optionLeft,80,6180,3,28,0,28,0,1,,,,,,,,,,,,,,,,,,,,,,,,,,,,,,,,,,,,,,,
,,,,,,,,2023-08-16_08h44.44.863,HF_wild_card,2022.2.4,Linux x86_64,60.03842459,59e675a6c0d35a00012951ce,64d2fd46c836a06233681665,64dc7de45038957636d3ce13,,,,,,,decisionTrl,resources/DY.BMP,resources/DP.BMP,Door3,0.38163654,-0.043076356,1,0,0,0.7765,optionRight,70,6250,3,29,0,29,0,1,,,,,,,,,,,,,,,,,,,,,,,,,,,,,,,,,,,,,,,
,,,,,,,,2023-08-16_08h44.44.863,HF_wild_card,2022.2.4,Linux x86_64,60.03842459,59e675a6c0d35a00012951ce,64d2fd46c836a06233681665,64dc7de45038957636d3ce13,,,,,,,decisionTrl,resources/DP.BMP,resources/DY.BMP,Door3,-0.28557984,-0.080807686,1,0,0,0.8759,optionLeft,70,6320,3,30,0,30,0,1,,,,,,,,,,,,,,,,,,,,,,,,,,,,,,,,,,,,,,,
,,,,,,,,2023-08-16_08h44.44.863,HF_wild_card,2022.2.4,Linux x86_64,60.03842459,59e675a6c0d35a00012951ce,64d2fd46c836a06233681665,64dc7de45038957636d3ce13,,,,,,,decisionTrl,resources/DG.BMP,resources/DY.BMP,Door4,0.454409758,-0.032376568,1,0,0,0.9596,optionRight,60,6380,3,31,0,31,0,1,,,,,,,,,,,,,,,,,,,,,,,,,,,,,,,,,,,,,,,
,,,,,,,,2023-08-16_08h44.44.863,HF_wild_card,2022.2.4,Linux x86_64,60.03842459,59e675a6c0d35a00012951ce,64d2fd46c836a06233681665,64dc7de45038957636d3ce13,,,,,,,decisionTrl,resources/DBN.BMP,resources/DB.BMP,Door2,0.306400696,-0.097771843,1,0,0,1.2595,optionRight,20,6400,3,32,0,32,0,1,,,,,,,,,,,,,,,,,,,,,,,,,,,,,,,,,,,,,,,
,,,,,,,,2023-08-16_08h44.44.863,HF_wild_card,2022.2.4,Linux x86_64,60.03842459,59e675a6c0d35a00012951ce,64d2fd46c836a06233681665,64dc7de45038957636d3ce13,,,,,,,ctch,resources/DY.BMP,resources/DBN.BMP,Door4,-0.405672471,-0.155491432,1,0,0,0.8091,optionLeft,60,6460,3,33,0,33,0,1,,,,,,,,,,,,,,,,,,,,,,,,,,,,,,,,,,,,,,,
,,,,,,,,2023-08-16_08h44.44.863,HF_wild_card,2022.2.4,Linux x86_64,60.03842459,59e675a6c0d35a00012951ce,64d2fd46c836a06233681665,64dc7de45038957636d3ce13,,,,,,,decisionTrl,resources/DBN.BMP,resources/DG.BMP,WildCard_NonEx,0.230707804,-0.05688866,1,0,0,0.8922,optionRight,45,6505,3,34,0,34,0,1,,,,,,,,,,,,,,,,,,,,,,,,,,,,,,,,,,,,,,,
,,,,,,,,2023-08-16_08h44.44.863,HF_wild_card,2022.2.4,Linux x86_64,60.03842459,59e675a6c0d35a00012951ce,64d2fd46c836a06233681665,64dc7de45038957636d3ce13,,,,,,,ctch,resources/DY.BMP,resources/DBN.BMP,Door4,-0.341066043,-0.043919365,1,0,0,0.8495,optionLeft,80,6585,3,35,0,35,0,1,,,,,,,,,,,,,,,,,,,,,,,,,,,,,,,,,,,,,,,
,,,,,,,,2023-08-16_08h44.44.863,HF_wild_card,2022.2.4,Linux x86_64,60.03842459,59e675a6c0d35a00012951ce,64d2fd46c836a06233681665,64dc7de45038957636d3ce13,,,,,,,decisionTrl,resources/DG.BMP,resources/DB.BMP,Door2,0.370870272,-0.014785926,1,0,0,0.8414,optionRight,40,6625,3,36,0,36,0,1,,,,,,,,,,,,,,,,,,,,,,,,,,,,,,,,,,,,,,,
,,,,,,,,2023-08-16_08h44.44.863,HF_wild_card,2022.2.4,Linux x86_64,60.03842459,59e675a6c0d35a00012951ce,64d2fd46c836a06233681665,64dc7de45038957636d3ce13,,,,,,,decisionTrl,resources/DB.BMP,resources/DG.BMP,Door2,-0.252207716,-0.032630324,1,0,0,1.7045,optionLeft,20,6645,3,37,0,37,0,1,,,,,,,,,,,,,,,,,,,,,,,,,,,,,,,,,,,,,,,
,,,,,,,,2023-08-16_08h44.44.863,HF_wild_card,2022.2.4,Linux x86_64,60.03842459,59e675a6c0d35a00012951ce,64d2fd46c836a06233681665,64dc7de45038957636d3ce13,,,,,,,decisionTrl,resources/DY.BMP,resources/DG.BMP,WildCard_NonEx,0.348707596,-0.045606534,1,0,0,0.7442,optionRight,55,6700,3,38,0,38,0,1,,,,,,,,,,,,,,,,,,,,,,,,,,,,,,,,,,,,,,,
,,,,,,,,2023-08-16_08h44.44.863,HF_wild_card,2022.2.4,Linux x86_64,60.03842459,59e675a6c0d35a00012951ce,64d2fd46c836a06233681665,64dc7de45038957636d3ce13,,,,,,,decisionTrl,resources/DBN.BMP,resources/DB.BMP,Door2,0.29075408,-0.046653509,1,0,0,1.9575,optionRight,20,6720,3,39,0,39,0,1,,,,,,,,,,,,,,,,,,,,,,,,,,,,,,,,,,,,,,,
,,,,,,,,2023-08-16_08h44.44.863,HF_wild_card,2022.2.4,Linux x86_64,60.03842459,59e675a6c0d35a00012951ce,64d2fd46c836a06233681665,64dc7de45038957636d3ce13,,,,,,,decisionTrl,resources/DP.BMP,resources/DG.BMP,Door3,-0.316174547,-0.048627655,1,0,0,2.2025,optionLeft,70,6790,3,40,0,40,0,1,,,,,,,,,,,,,,,,,,,,,,,,,,,,,,,,,,,,,,,
,,,,,,,,2023-08-16_08h44.44.863,HF_wild_card,2022.2.4,Linux x86_64,60.03842459,59e675a6c0d35a00012951ce,64d2fd46c836a06233681665,64dc7de45038957636d3ce13,,,,,,,sngl,resources/DG.BMP,resources/Empty.png,WildCard_NonEx,-0.211622,-0.009214044,1,0,0,2.0897,optionLeft,45,6835,3,41,0,41,0,1,,,,,,,,,,,,,,,,,,,,,,,,,,,,,,,,,,,,,,,
,,,,,,,,2023-08-16_08h44.44.863,HF_wild_card,2022.2.4,Linux x86_64,60.03842459,59e675a6c0d35a00012951ce,64d2fd46c836a06233681665,64dc7de45038957636d3ce13,,,,,,,ctch,resources/DP.BMP,resources/DB.BMP,Door2,0.385627667,-0.135202368,1,0,0,0.8842,optionRight,20,6855,3,42,0,42,0,1,,,,,,,,,,,,,,,,,,,,,,,,,,,,,,,,,,,,,,,
,,,,,,,,2023-08-16_08h44.44.863,HF_wild_card,2022.2.4,Linux x86_64,60.03842459,59e675a6c0d35a00012951ce,64d2fd46c836a06233681665,64dc7de45038957636d3ce13,,,,,,,decisionTrl,resources/DB.BMP,resources/DBN.BMP,Door2,-0.263106465,-0.092049281,1,0,0,0.9929,optionLeft,20,6875,3,43,0,43,0,1,,,,,,,,,,,,,,,,,,,,,,,,,,,,,,,,,,,,,,,
,,,,,,,,2023-08-16_08h44.44.863,HF_wild_card,2022.2.4,Linux x86_64,60.03842459,59e675a6c0d35a00012951ce,64d2fd46c836a06233681665,64dc7de45038957636d3ce13,,,,,,,,,,,,,,,,,,,,,,,,,,2,0,2,0,1,,,,,,,,,,,,,,,,,,,,,,,,,,,,,,,,,,
,,,,,,,,2023-08-16_08h44.44.863,HF_wild_card,2022.2.4,Linux x86_64,60.03842459,59e675a6c0d35a00012951ce,64d2fd46c836a06233681665,64dc7de45038957636d3ce13,,,,,,,decisionTrl,resources/DP.BMP,resources/DR.BMP,Door3,-0.434271256,-0.040315429,1,0,0,1.0498,optionLeft,70,6945,4,0,0,0,0,1,,,,,,,,,,,,,,,,,,,,,,,,,,,,,,,,,,,,,,,
,,,,,,,,2023-08-16_08h44.44.863,HF_wild_card,2022.2.4,Linux x86_64,60.03842459,59e675a6c0d35a00012951ce,64d2fd46c836a06233681665,64dc7de45038957636d3ce13,,,,,,,ctch,resources/DY.BMP,resources/DBN.BMP,Door4,-0.427627842,-0.073311249,1,0,0,0.8596,optionLeft,60,7005,4,1,0,1,0,1,,,,,,,,,,,,,,,,,,,,,,,,,,,,,,,,,,,,,,,
,,,,,,,,2023-08-16_08h44.44.863,HF_wild_card,2022.2.4,Linux x86_64,60.03842459,59e675a6c0d35a00012951ce,64d2fd46c836a06233681665,64dc7de45038957636d3ce13,,,,,,,sngl,resources/DB.BMP,resources/Empty.png,Door2,-0.390416026,-0.021374822,1,0,0,0.8312,optionLeft,20,7025,4,2,0,2,0,1,,,,,,,,,,,,,,,,,,,,,,,,,,,,,,,,,,,,,,,
,,,,,,,,2023-08-16_08h44.44.863,HF_wild_card,2022.2.4,Linux x86_64,60.03842459,59e675a6c0d35a00012951ce,64d2fd46c836a06233681665,64dc7de45038957636d3ce13,,,,,,,decisionTrl,resources/DP.BMP,resources/DY.BMP,Door3,-0.343851844,-0.078420719,1,0,0,1.2577,optionLeft,70,7095,4,3,0,3,0,1,,,,,,,,,,,,,,,,,,,,,,,,,,,,,,,,,,,,,,,
,,,,,,,,2023-08-16_08h44.44.863,HF_wild_card,2022.2.4,Linux x86_64,60.03842459,59e675a6c0d35a00012951ce,64d2fd46c836a06233681665,64dc7de45038957636d3ce13,,,,,,,ctch,resources/DB.BMP,resources/DP.BMP,Door3,0.358058929,-0.082939307,1,0,0,0.8757,optionRight,70,7165,4,4,0,4,0,1,,,,,,,,,,,,,,,,,,,,,,,,,,,,,,,,,,,,,,,
,,,,,,,,2023-08-16_08h44.44.863,HF_wild_card,2022.2.4,Linux x86_64,60.03842459,59e675a6c0d35a00012951ce,64d2fd46c836a06233681665,64dc7de45038957636d3ce13,,,,,,,decisionTrl,resources/DBN.BMP,resources/DB.BMP,Door2,0.325473468,-0.063052694,1,0,0,0.7545,optionRight,20,7185,4,5,0,5,0,1,,,,,,,,,,,,,,,,,,,,,,,,,,,,,,,,,,,,,,,
,,,,,,,,2023-08-16_08h44.44.863,HF_wild_card,2022.2.4,Linux x86_64,60.03842459,59e675a6c0d35a00012951ce,64d2fd46c836a06233681665,64dc7de45038957636d3ce13,,,,,,,decisionTrl,resources/DR.BMP,resources/DP.BMP,Door3,0.294633468,-0.045258482,1,0,0,1.1083,optionRight,70,7255,4,6,0,6,0,1,,,,,,,,,,,,,,,,,,,,,,,,,,,,,,,,,,,,,,,
,,,,,,,,2023-08-16_08h44.44.863,HF_wild_card,2022.2.4,Linux x86_64,60.03842459,59e675a6c0d35a00012951ce,64d2fd46c836a06233681665,64dc7de45038957636d3ce13,,,,,,,decisionTrl,resources/DBN.BMP,resources/DB.BMP,Door1,-0.412131429,0.085016688,1,0,0,1.1112,optionLeft,30,7285,4,7,0,7,0,1,,,,,,,,,,,,,,,,,,,,,,,,,,,,,,,,,,,,,,,
,,,,,,,,2023-08-16_08h44.44.863,HF_wild_card,2022.2.4,Linux x86_64,60.03842459,59e675a6c0d35a00012951ce,64d2fd46c836a06233681665,64dc7de45038957636d3ce13,,,,,,,decisionTrl,resources/DR.BMP,resources/DY.BMP,WildCard_Ex,-0.361351053,0.005937974,1,0,0,0.8265,optionLeft,55,7340,4,8,0,8,0,1,,,,,,,,,,,,,,,,,,,,,,,,,,,,,,,,,,,,,,,
,,,,,,,,2023-08-16_08h44.44.863,HF_wild_card,2022.2.4,Linux x86_64,60.03842459,59e675a6c0d35a00012951ce,64d2fd46c836a06233681665,64dc7de45038957636d3ce13,,,,,,,decisionTrl,resources/DR.BMP,resources/DBN.BMP,WildCard_Ex,-0.328677217,-0.017248789,1,0,0,0.8581,optionLeft,55,7395,4,9,0,9,0,1,,,,,,,,,,,,,,,,,,,,,,,,,,,,,,,,,,,,,,,
,,,,,,,,2023-08-16_08h44.44.863,HF_wild_card,2022.2.4,Linux x86_64,60.03842459,59e675a6c0d35a00012951ce,64d2fd46c836a06233681665,64dc7de45038957636d3ce13,,,,,,,ctch,resources/DP.BMP,resources/DB.BMP,Door3,-0.279024363,-0.033400337,1,0,0,1.2046,optionLeft,70,7465,4,10,0,10,0,1,,,,,,,,,,,,,,,,,,,,,,,,,,,,,,,,,,,,,,,
,,,,,,,,2023-08-16_08h44.44.863,HF_wild_card,2022.2.4,Linux x86_64,60.03842459,59e675a6c0d35a00012951ce,64d2fd46c836a06233681665,64dc7de45038957636d3ce13,,,,,,,sngl,resources/Empty.png,resources/DR.BMP,WildCard_Ex,0.409882625,-0.038550973,1,0,0,0.7008,optionRight,55,7520,4,11,0,11,0,1,,,,,,,,,,,,,,,,,,,,,,,,,,,,,,,,,,,,,,,
,,,,,,,,2023-08-16_08h44.44.863,HF_wild_card,2022.2.4,Linux x86_64,60.03842459,59e675a6c0d35a00012951ce,64d2fd46c836a06233681665,64dc7de45038957636d3ce13,,,,,,,sngl,resources/DBN.BMP,resources/Empty.png,Door1,-0.366838415,0.013409734,1,0,0,0.7097,optionLeft,30,7550,4,12,0,12,0,1,,,,,,,,,,,,,,,,,,,,,,,,,,,,,,,,,,,,,,,
,,,,,,,,2023-08-16_08h44.44.863,HF_wild_card,2022.2.4,Linux x86_64,60.03842459,59e675a6c0d35a00012951ce,64d2fd46c836a06233681665,64dc7de45038957636d3ce13,,,,,,,decisionTrl,resources/DB.BMP,resources/DR.BMP,WildCard_Ex,0.309030374,-0.043954094,1,0,0,1.103,optionRight,55,7605,4,13,0,13,0,1,,,,,,,,,,,,,,,,,,,,,,,,,,,,,,,,,,,,,,,
,,,,,,,,2023-08-16_08h44.44.863,HF_wild_card,2022.2.4,Linux x86_64,60.03842459,59e675a6c0d35a00012951ce,64d2fd46c836a06233681665,64dc7de45038957636d3ce13,,,,,,,decisionTrl,resources/DY.BMP,resources/DP.BMP,Door3,0.357045809,-0.071744998,1,0,0,0.7905,optionRight,70,7675,4,14,0,14,0,1,,,,,,,,,,,,,,,,,,,,,,,,,,,,,,,,,,,,,,,
,,,,,,,,2023-08-16_08h44.44.863,HF_wild_card,2022.2.4,Linux x86_64,60.03842459,59e675a6c0d35a00012951ce,64d2fd46c836a06233681665,64dc7de45038957636d3ce13,,,,,,,decisionTrl,resources/DP.BMP,resources/DY.BMP,Door3,-0.321976662,-0.004675349,1,0,0,1.8237,optionLeft,70,7745,4,15,0,15,0,1,,,,,,,,,,,,,,,,,,,,,,,,,,,,,,,,,,,,,,,
,,,,,,,,2023-08-16_08h44.44.863,HF_wild_card,2022.2.4,Linux x86_64,60.03842459,59e675a6c0d35a00012951ce,64d2fd46c836a06233681665,64dc7de45038957636d3ce13,,,,,,,sngl,resources/Empty.png,resources/DR.BMP,WildCard_Ex,0.319533507,-0.059291879,1,0,0,1.1482,optionRight,45,7790,4,16,0,16,0,1,,,,,,,,,,,,,,,,,,,,,,,,,,,,,,,,,,,,,,,
,,,,,,,,2023-08-16_08h44.44.863,HF_wild_card,2022.2.4,Linux x86_64,60.03842459,59e675a6c0d35a00012951ce,64d2fd46c836a06233681665,64dc7de45038957636d3ce13,,,,,,,decisionTrl,resources/DBN.BMP,resources/DB.BMP,Door1,-0.371284366,0.011186639,1,0,0,1.0492,optionLeft,30,7820,4,17,0,17,0,1,,,,,,,,,,,,,,,,,,,,,,,,,,,,,,,,,,,,,,,
,,,,,,,,2023-08-16_08h44.44.863,HF_wild_card,2022.2.4,Linux x86_64,60.03842459,59e675a6c0d35a00012951ce,64d2fd46c836a06233681665,64dc7de45038957636d3ce13,,,,,,,decisionTrl,resources/DBN.BMP,resources/DR.BMP,WildCard_Ex,0.454526583,-0.055905342,1,0,0,0.8462,optionRight,45,7865,4,18,0,18,0,1,,,,,,,,,,,,,,,,,,,,,,,,,,,,,,,,,,,,,,,
,,,,,,,,2023-08-16_08h44.44.863,HF_wild_card,2022.2.4,Linux x86_64,60.03842459,59e675a6c0d35a00012951ce,64d2fd46c836a06233681665,64dc7de45038957636d3ce13,,,,,,,decisionTrl,resources/DY.BMP,resources/DP.BMP,Door4,-0.416847626,-0.028985143,1,0,0,0.9214,optionLeft,60,7925,4,19,0,19,0,1,,,,,,,,,,,,,,,,,,,,,,,,,,,,,,,,,,,,,,,
,,,,,,,,2023-08-16_08h44.44.863,HF_wild_card,2022.2.4,Linux x86_64,60.03842459,59e675a6c0d35a00012951ce,64d2fd46c836a06233681665,64dc7de45038957636d3ce13,,,,,,,ctch,resources/DBN.BMP,resources/DY.BMP,Door4,0.290556987,-0.0620718,1,0,0,0.9422,optionRight,80,8005,4,20,0,20,0,1,,,,,,,,,,,,,,,,,,,,,,,,,,,,,,,,,,,,,,,
,,,,,,,,2023-08-16_08h44.44.863,HF_wild_card,2022.2.4,Linux x86_64,60.03842459,59e675a6c0d35a00012951ce,64d2fd46c836a06233681665,64dc7de45038957636d3ce13,,,,,,,decisionTrl,resources/DY.BMP,resources/DR.BMP,Door4,-0.446247776,-0.052077413,1,0,0,0.8928,optionLeft,60,8065,4,21,0,21,0,1,,,,,,,,,,,,,,,,,,,,,,,,,,,,,,,,,,,,,,,
,,,,,,,,2023-08-16_08h44.44.863,HF_wild_card,2022.2.4,Linux x86_64,60.03842459,59e675a6c0d35a00012951ce,64d2fd46c836a06233681665,64dc7de45038957636d3ce13,,,,,,,sngl,resources/Empty.png,resources/DP.BMP,Door3,0.317790906,-0.037550449,1,0,0,0.7388,optionRight,70,8135,4,22,0,22,0,1,,,,,,,,,,,,,,,,,,,,,,,,,,,,,,,,,,,,,,,
,,,,,,,,2023-08-16_08h44.44.863,HF_wild_card,2022.2.4,Linux x86_64,60.03842459,59e675a6c0d35a00012951ce,64d2fd46c836a06233681665,64dc7de45038957636d3ce13,,,,,,,sngl,resources/DR.BMP,resources/Empty.png,WildCard_Ex,-0.326201638,-0.014213085,1,0,0,1.1346,optionLeft,55,8190,4,23,0,23,0,1,,,,,,,,,,,,,,,,,,,,,,,,,,,,,,,,,,,,,,,
,,,,,,,,2023-08-16_08h44.44.863,HF_wild_card,2022.2.4,Linux x86_64,60.03842459,59e675a6c0d35a00012951ce,64d2fd46c836a06233681665,64dc7de45038957636d3ce13,,,,,,,ctch,resources/DY.BMP,resources/DBN.BMP,Door4,-0.284545461,-0.070155382,1,0,0,1.2057,optionLeft,80,8270,4,24,0,24,0,1,,,,,,,,,,,,,,,,,,,,,,,,,,,,,,,,,,,,,,,
,,,,,,,,2023-08-16_08h44.44.863,HF_wild_card,2022.2.4,Linux x86_64,60.03842459,59e675a6c0d35a00012951ce,64d2fd46c836a06233681665,64dc7de45038957636d3ce13,,,,,,,sngl,resources/DR.BMP,resources/Empty.png,WildCard_Ex,-0.274176121,-0.046960195,1,0,0,0.9284,optionLeft,45,8315,4,25,0,25,0,1,,,,,,,,,,,,,,,,,,,,,,,,,,,,,,,,,,,,,,,
,,,,,,,,2023-08-16_08h44.44.863,HF_wild_card,2022.2.4,Linux x86_64,60.03842459,59e675a6c0d35a00012951ce,64d2fd46c836a06233681665,64dc7de45038957636d3ce13,,,,,,,ctch,resources/DBN.BMP,resources/DY.BMP,Door4,0.397488912,-0.054279526,1,0,0,0.9079,optionRight,80,8395,4,26,0,26,0,1,,,,,,,,,,,,,,,,,,,,,,,,,,,,,,,,,,,,,,,
,,,,,,,,2023-08-16_08h44.44.863,HF_wild_card,2022.2.4,Linux x86_64,60.03842459,59e675a6c0d35a00012951ce,64d2fd46c836a06233681665,64dc7de45038957636d3ce13,,,,,,,sngl,resources/DY.BMP,resources/Empty.png,Door4,-0.468246778,-0.016551057,1,0,0,0.8817,optionLeft,60,8455,4,27,0,27,0,1,,,,,,,,,,,,,,,,,,,,,,,,,,,,,,,,,,,,,,,
,,,,,,,,2023-08-16_08h44.44.863,HF_wild_card,2022.2.4,Linux x86_64,60.03842459,59e675a6c0d35a00012951ce,64d2fd46c836a06233681665,64dc7de45038957636d3ce13,,,,,,,sngl,resources/Empty.png,resources/DB.BMP,Door2,0.356269519,-0.028494318,1,0,0,0.7904,optionRight,40,8495,4,28,0,28,0,1,,,,,,,,,,,,,,,,,,,,,,,,,,,,,,,,,,,,,,,
,,,,,,,,2023-08-16_08h44.44.863,HF_wild_card,2022.2.4,Linux x86_64,60.03842459,59e675a6c0d35a00012951ce,64d2fd46c836a06233681665,64dc7de45038957636d3ce13,,,,,,,decisionTrl,resources/DB.BMP,resources/DBN.BMP,Door2,-0.279109637,-0.062286059,1,0,0,0.7613,optionLeft,20,8515,4,29,0,29,0,1,,,,,,,,,,,,,,,,,,,,,,,,,,,,,,,,,,,,,,,
,,,,,,,,2023-08-16_08h44.44.863,HF_wild_card,2022.2.4,Linux x86_64,60.03842459,59e675a6c0d35a00012951ce,64d2fd46c836a06233681665,64dc7de45038957636d3ce13,,,,,,,decisionTrl,resources/DP.BMP,resources/DY.BMP,Door3,-0.313437382,-0.01935331,1,0,0,1.22,optionLeft,70,8585,4,30,0,30,0,1,,,,,,,,,,,,,,,,,,,,,,,,,,,,,,,,,,,,,,,
,,,,,,,,2023-08-16_08h44.44.863,HF_wild_card,2022.2.4,Linux x86_64,60.03842459,59e675a6c0d35a00012951ce,64d2fd46c836a06233681665,64dc7de45038957636d3ce13,,,,,,,ctch,resources/DP.BMP,resources/DB.BMP,Door3,-0.290219665,-0.033610384,1,0,0,1.156,optionLeft,70,8655,4,31,0,31,0,1,,,,,,,,,,,,,,,,,,,,,,,,,,,,,,,,,,,,,,,
,,,,,,,,2023-08-16_08h44.44.863,HF_wild_card,2022.2.4,Linux x86_64,60.03842459,59e675a6c0d35a00012951ce,64d2fd46c836a06233681665,64dc7de45038957636d3ce13,,,,,,,decisionTrl,resources/DY.BMP,resources/DP.BMP,Door3,0.427160978,-0.07524542,1,0,0,1.1567,optionRight,70,8725,4,32,0,32,0,1,,,,,,,,,,,,,,,,,,,,,,,,,,,,,,,,,,,,,,,
,,,,,,,,2023-08-16_08h44.44.863,HF_wild_card,2022.2.4,Linux x86_64,60.03842459,59e675a6c0d35a00012951ce,64d2fd46c836a06233681665,64dc7de45038957636d3ce13,,,,,,,decisionTrl,resources/DP.BMP,resources/DY.BMP,Door3,-0.319396973,0.0507646,1,0,0,1.2063,optionLeft,70,8795,4,33,0,33,0,1,,,,,,,,,,,,,,,,,,,,,,,,,,,,,,,,,,,,,,,
,,,,,,,,2023-08-16_08h44.44.863,HF_wild_card,2022.2.4,Linux x86_64,60.03842459,59e675a6c0d35a00012951ce,64d2fd46c836a06233681665,64dc7de45038957636d3ce13,,,,,,,decisionTrl,resources/DB.BMP,resources/DBN.BMP,Door1,0.272441149,0.005412062,1,0,0,1.4761,optionRight,30,8825,4,34,0,34,0,1,,,,,,,,,,,,,,,,,,,,,,,,,,,,,,,,,,,,,,,
,,,,,,,,2023-08-16_08h44.44.863,HF_wild_card,2022.2.4,Linux x86_64,60.03842459,59e675a6c0d35a00012951ce,64d2fd46c836a06233681665,64dc7de45038957636d3ce13,,,,,,,decisionTrl,resources/DB.BMP,resources/DBN.BMP,Door2,-0.390021245,0.025371552,1,0,0,1.1915,optionLeft,20,8845,4,35,0,35,0,1,,,,,,,,,,,,,,,,,,,,,,,,,,,,,,,,,,,,,,,
,,,,,,,,2023-08-16_08h44.44.863,HF_wild_card,2022.2.4,Linux x86_64,60.03842459,59e675a6c0d35a00012951ce,64d2fd46c836a06233681665,64dc7de45038957636d3ce13,,,,,,,decisionTrl,resources/DB.BMP,resources/DBN.BMP,Door2,-0.429241935,-0.057313482,1,0,0,1.0313,optionLeft,20,8865,4,36,0,36,0,1,,,,,,,,,,,,,,,,,,,,,,,,,,,,,,,,,,,,,,,
,,,,,,,,2023-08-16_08h44.44.863,HF_wild_card,2022.2.4,Linux x86_64,60.03842459,59e675a6c0d35a00012951ce,64d2fd46c836a06233681665,64dc7de45038957636d3ce13,,,,,,,sngl,resources/DP.BMP,resources/Empty.png,Door3,-0.317465623,-0.003199498,1,0,0,0.9787,optionLeft,70,8935,4,37,0,37,0,1,,,,,,,,,,,,,,,,,,,,,,,,,,,,,,,,,,,,,,,
,,,,,,,,2023-08-16_08h44.44.863,HF_wild_card,2022.2.4,Linux x86_64,60.03842459,59e675a6c0d35a00012951ce,64d2fd46c836a06233681665,64dc7de45038957636d3ce13,,,,,,,decisionTrl,resources/DBN.BMP,resources/DB.BMP,Door1,-0.265072703,-0.01258858,1,0,0,0.9238,optionLeft,30,8965,4,38,0,38,0,1,,,,,,,,,,,,,,,,,,,,,,,,,,,,,,,,,,,,,,,
,,,,,,,,2023-08-16_08h44.44.863,HF_wild_card,2022.2.4,Linux x86_64,60.03842459,59e675a6c0d35a00012951ce,64d2fd46c836a06233681665,64dc7de45038957636d3ce13,,,,,,,sngl,resources/Empty.png,resources/DY.BMP,Door4,0.310782353,-0.041184028,1,0,0,0.7213,optionRight,80,9045,4,39,0,39,0,1,,,,,,,,,,,,,,,,,,,,,,,,,,,,,,,,,,,,,,,
,,,,,,,,2023-08-16_08h44.44.863,HF_wild_card,2022.2.4,Linux x86_64,60.03842459,59e675a6c0d35a00012951ce,64d2fd46c836a06233681665,64dc7de45038957636d3ce13,,,,,,,ctch,resources/DB.BMP,resources/DP.BMP,Door3,0.324179649,-0.080046813,1,0,0,1.0221,optionRight,70,9115,4,40,0,40,0,1,,,,,,,,,,,,,,,,,,,,,,,,,,,,,,,,,,,,,,,
,,,,,,,,2023-08-16_08h44.44.863,HF_wild_card,2022.2.4,Linux x86_64,60.03842459,59e675a6c0d35a00012951ce,64d2fd46c836a06233681665,64dc7de45038957636d3ce13,,,,,,,decisionTrl,resources/DR.BMP,resources/DB.BMP,WildCard_Ex,-0.35388128,-0.072456678,1,0,0,1.2078,optionLeft,55,9170,4,41,0,41,0,1,,,,,,,,,,,,,,,,,,,,,,,,,,,,,,,,,,,,,,,
,,,,,,,,2023-08-16_08h44.44.863,HF_wild_card,2022.2.4,Linux x86_64,60.03842459,59e675a6c0d35a00012951ce,64d2fd46c836a06233681665,64dc7de45038957636d3ce13,,,,,,,decisionTrl,resources/DY.BMP,resources/DP.BMP,Door3,0.485508442,-0.097996871,1,0,0,1.0936,optionRight,70,9240,4,42,0,42,0,1,,,,,,,,,,,,,,,,,,,,,,,,,,,,,,,,,,,,,,,
,,,,,,,,2023-08-16_08h44.44.863,HF_wild_card,2022.2.4,Linux x86_64,60.03842459,59e675a6c0d35a00012951ce,64d2fd46c836a06233681665,64dc7de45038957636d3ce13,,,,,,,sngl,resources/Empty.png,resources/DBN.BMP,Door1,0.333831867,-0.050879399,1,0,0,0.972,optionRight,30,9270,4,43,0,43,0,1,,,,,,,,,,,,,,,,,,,,,,,,,,,,,,,,,,,,,,,
,,,,,,,,2023-08-16_08h44.44.863,HF_wild_card,2022.2.4,Linux x86_64,60.03842459,59e675a6c0d35a00012951ce,64d2fd46c836a06233681665,64dc7de45038957636d3ce13,,,,,,,,,,,,,,,,,,,,,,,,,,3,0,3,0,1,,,,,,,,,,,,,,,,,,,,,,,,,,,,,,,,,,
,,,,,,,,2023-08-16_08h44.44.863,HF_wild_card,2022.2.4,Linux x86_64,60.03842459,59e675a6c0d35a00012951ce,64d2fd46c836a06233681665,64dc7de45038957636d3ce13,,,,,,,decisionTrl,resources/DP.BMP,resources/DY.BMP,Door3,-0.39761579,0.053652922,1,0,0,1.1233,optionLeft,70,9340,5,0,0,0,0,1,,,,,,,,,,,,,,,,,,,,,,,,,,,,,,,,,,,,,,,
,,,,,,,,2023-08-16_08h44.44.863,HF_wild_card,2022.2.4,Linux x86_64,60.03842459,59e675a6c0d35a00012951ce,64d2fd46c836a06233681665,64dc7de45038957636d3ce13,,,,,,,decisionTrl,resources/DY.BMP,resources/DP.BMP,Door3,0.522027016,-0.163230618,1,0,0,0.7426,optionRight,70,9410,5,1,0,1,0,1,,,,,,,,,,,,,,,,,,,,,,,,,,,,,,,,,,,,,,,
,,,,,,,,2023-08-16_08h44.44.863,HF_wild_card,2022.2.4,Linux x86_64,60.03842459,59e675a6c0d35a00012951ce,64d2fd46c836a06233681665,64dc7de45038957636d3ce13,,,,,,,ctch,resources/DBN.BMP,resources/DY.BMP,Door4,0.375273625,-0.054708719,1,0,0,0.961,optionRight,60,9470,5,2,0,2,0,1,,,,,,,,,,,,,,,,,,,,,,,,,,,,,,,,,,,,,,,
,,,,,,,,2023-08-16_08h44.44.863,HF_wild_card,2022.2.4,Linux x86_64,60.03842459,59e675a6c0d35a00012951ce,64d2fd46c836a06233681665,64dc7de45038957636d3ce13,,,,,,,sngl,resources/Empty.png,resources/DBN.BMP,Door1,0.448403358,-0.079207222,1,0,0,0.7566,optionRight,30,9500,5,3,0,3,0,1,,,,,,,,,,,,,,,,,,,,,,,,,,,,,,,,,,,,,,,
,,,,,,,,2023-08-16_08h44.44.863,HF_wild_card,2022.2.4,Linux x86_64,60.03842459,59e675a6c0d35a00012951ce,64d2fd46c836a06233681665,64dc7de45038957636d3ce13,,,,,,,sngl,resources/Empty.png,resources/DR.BMP,WildCard_Ex,0.369031906,-0.081747214,1,0,0,0.6404,optionRight,55,9555,5,4,0,4,0,1,,,,,,,,,,,,,,,,,,,,,,,,,,,,,,,,,,,,,,,
,,,,,,,,2023-08-16_08h44.44.863,HF_wild_card,2022.2.4,Linux x86_64,60.03842459,59e675a6c0d35a00012951ce,64d2fd46c836a06233681665,64dc7de45038957636d3ce13,,,,,,,decisionTrl,resources/DR.BMP,resources/DY.BMP,WildCard_Ex,-0.422322035,-0.063911676,1,0,0,1.1974,optionLeft,45,9600,5,5,0,5,0,1,,,,,,,,,,,,,,,,,,,,,,,,,,,,,,,,,,,,,,,
,,,,,,,,2023-08-16_08h44.44.863,HF_wild_card,2022.2.4,Linux x86_64,60.03842459,59e675a6c0d35a00012951ce,64d2fd46c836a06233681665,64dc7de45038957636d3ce13,,,,,,,decisionTrl,resources/DP.BMP,resources/DY.BMP,Door4,0.276558479,-0.054948409,1,0,0,0.7445,optionRight,60,9660,5,6,0,6,0,1,,,,,,,,,,,,,,,,,,,,,,,,,,,,,,,,,,,,,,,
,,,,,,,,2023-08-16_08h44.44.863,HF_wild_card,2022.2.4,Linux x86_64,60.03842459,59e675a6c0d35a00012951ce,64d2fd46c836a06233681665,64dc7de45038957636d3ce13,,,,,,,sngl,resources/DP.BMP,resources/Empty.png,Door3,-0.434271177,-0.035381715,1,0,0,0.7421,optionLeft,70,9730,5,7,0,7,0,1,,,,,,,,,,,,,,,,,,,,,,,,,,,,,,,,,,,,,,,
,,,,,,,,2023-08-16_08h44.44.863,HF_wild_card,2022.2.4,Linux x86_64,60.03842459,59e675a6c0d35a00012951ce,64d2fd46c836a06233681665,64dc7de45038957636d3ce13,,,,,,,decisionTrl,resources/DR.BMP,resources/DB.BMP,WildCard_Ex,-0.303173343,-0.018973907,1,0,0,1.0456,optionLeft,55,9785,5,8,0,8,0,1,,,,,,,,,,,,,,,,,,,,,,,,,,,,,,,,,,,,,,,
,,,,,,,,2023-08-16_08h44.44.863,HF_wild_card,2022.2.4,Linux x86_64,60.03842459,59e675a6c0d35a00012951ce,64d2fd46c836a06233681665,64dc7de45038957636d3ce13,,,,,,,sngl,resources/Empty.png,resources/DR.BMP,WildCard_Ex,0.236234188,-0.047620813,1,0,0,0.9256,optionRight,45,9830,5,9,0,9,0,1,,,,,,,,,,,,,,,,,,,,,,,,,,,,,,,,,,,,,,,
,,,,,,,,2023-08-16_08h44.44.863,HF_wild_card,2022.2.4,Linux x86_64,60.03842459,59e675a6c0d35a00012951ce,64d2fd46c836a06233681665,64dc7de45038957636d3ce13,,,,,,,sngl,resources/DR.BMP,resources/Empty.png,WildCard_Ex,-0.320470929,-0.038577,1,0,0,0.8425,optionLeft,45,9875,5,10,0,10,0,1,,,,,,,,,,,,,,,,,,,,,,,,,,,,,,,,,,,,,,,
,,,,,,,,2023-08-16_08h44.44.863,HF_wild_card,2022.2.4,Linux x86_64,60.03842459,59e675a6c0d35a00012951ce,64d2fd46c836a06233681665,64dc7de45038957636d3ce13,,,,,,,sngl,resources/DBN.BMP,resources/Empty.png,Door1,-0.373539448,-0.130984147,1,0,0,0.9591,optionLeft,30,9905,5,11,0,11,0,1,,,,,,,,,,,,,,,,,,,,,,,,,,,,,,,,,,,,,,,
,,,,,,,,2023-08-16_08h44.44.863,HF_wild_card,2022.2.4,Linux x86_64,60.03842459,59e675a6c0d35a00012951ce,64d2fd46c836a06233681665,64dc7de45038957636d3ce13,,,,,,,decisionTrl,resources/DP.BMP,resources/DR.BMP,Door3,-0.331776182,-0.008486907,1,0,0,1.3411,optionLeft,70,9975,5,12,0,12,0,1,,,,,,,,,,,,,,,,,,,,,,,,,,,,,,,,,,,,,,,
,,,,,,,,2023-08-16_08h44.44.863,HF_wild_card,2022.2.4,Linux x86_64,60.03842459,59e675a6c0d35a00012951ce,64d2fd46c836a06233681665,64dc7de45038957636d3ce13,,,,,,,decisionTrl,resources/DB.BMP,resources/DR.BMP,WildCard_Ex,0.36737744,-0.044498483,1,0,0,1.0087,optionRight,55,10030,5,13,0,13,0,1,,,,,,,,,,,,,,,,,,,,,,,,,,,,,,,,,,,,,,,
,,,,,,,,2023-08-16_08h44.44.863,HF_wild_card,2022.2.4,Linux x86_64,60.03842459,59e675a6c0d35a00012951ce,64d2fd46c836a06233681665,64dc7de45038957636d3ce13,,,,,,,ctch,resources/DB.BMP,resources/DP.BMP,Door3,0.273200274,-0.048998833,1,0,0,1.4441,optionRight,70,10100,5,14,0,14,0,1,,,,,,,,,,,,,,,,,,,,,,,,,,,,,,,,,,,,,,,
,,,,,,,,2023-08-16_08h44.44.863,HF_wild_card,2022.2.4,Linux x86_64,60.03842459,59e675a6c0d35a00012951ce,64d2fd46c836a06233681665,64dc7de45038957636d3ce13,,,,,,,decisionTrl,resources/DBN.BMP,resources/DB.BMP,Door1,-0.231546124,-0.06655558,1,0,0,1.3911,optionLeft,30,10130,5,15,0,15,0,1,,,,,,,,,,,,,,,,,,,,,,,,,,,,,,,,,,,,,,,
,,,,,,,,2023-08-16_08h44.44.863,HF_wild_card,2022.2.4,Linux x86_64,60.03842459,59e675a6c0d35a00012951ce,64d2fd46c836a06233681665,64dc7de45038957636d3ce13,,,,,,,decisionTrl,resources/DBN.BMP,resources/DB.BMP,Door1,-0.360140165,-0.021003564,1,0,0,1.0616,optionLeft,30,10160,5,16,0,16,0,1,,,,,,,,,,,,,,,,,,,,,,,,,,,,,,,,,,,,,,,
,,,,,,,,2023-08-16_08h44.44.863,HF_wild_card,2022.2.4,Linux x86_64,60.03842459,59e675a6c0d35a00012951ce,64d2fd46c836a06233681665,64dc7de45038957636d3ce13,,,,,,,decisionTrl,resources/DBN.BMP,resources/DB.BMP,Door2,0.392372211,-0.018901904,1,0,0,0.7765,optionRight,20,10180,5,17,0,17,0,1,,,,,,,,,,,,,,,,,,,,,,,,,,,,,,,,,,,,,,,
,,,,,,,,2023-08-16_08h44.44.863,HF_wild_card,2022.2.4,Linux x86_64,60.03842459,59e675a6c0d35a00012951ce,64d2fd46c836a06233681665,64dc7de45038957636d3ce13,,,,,,,decisionTrl,resources/DY.BMP,resources/DP.BMP,Door3,0.46309344,-0.063326081,1,0,0,0.8823,optionRight,70,10250,5,18,0,18,0,1,,,,,,,,,,,,,,,,,,,,,,,,,,,,,,,,,,,,,,,
,,,,,,,,2023-08-16_08h44.44.863,HF_wild_card,2022.2.4,Linux x86_64,60.03842459,59e675a6c0d35a00012951ce,64d2fd46c836a06233681665,64dc7de45038957636d3ce13,,,,,,,sngl,resources/DY.BMP,resources/Empty.png,Door4,-0.387681484,-0.026821375,1,0,0,0.8241,optionLeft,80,10330,5,19,0,19,0,1,,,,,,,,,,,,,,,,,,,,,,,,,,,,,,,,,,,,,,,
,,,,,,,,2023-08-16_08h44.44.863,HF_wild_card,2022.2.4,Linux x86_64,60.03842459,59e675a6c0d35a00012951ce,64d2fd46c836a06233681665,64dc7de45038957636d3ce13,,,,,,,decisionTrl,resources/DY.BMP,resources/DP.BMP,Door4,-0.349432747,-0.044074615,1,0,0,0.9635,optionLeft,80,10410,5,20,0,20,0,1,,,,,,,,,,,,,,,,,,,,,,,,,,,,,,,,,,,,,,,
,,,,,,,,2023-08-16_08h44.44.863,HF_wild_card,2022.2.4,Linux x86_64,60.03842459,59e675a6c0d35a00012951ce,64d2fd46c836a06233681665,64dc7de45038957636d3ce13,,,,,,,sngl,resources/Empty.png,resources/DP.BMP,Door3,0.361008485,-0.048050364,1,0,0,0.9074,optionRight,70,10480,5,21,0,21,0,1,,,,,,,,,,,,,,,,,,,,,,,,,,,,,,,,,,,,,,,
,,,,,,,,2023-08-16_08h44.44.863,HF_wild_card,2022.2.4,Linux x86_64,60.03842459,59e675a6c0d35a00012951ce,64d2fd46c836a06233681665,64dc7de45038957636d3ce13,,,,,,,decisionTrl,resources/DB.BMP,resources/DBN.BMP,Door1,0.343568246,-0.003845374,1,0,0,1.0042,optionRight,30,10510,5,22,0,22,0,1,,,,,,,,,,,,,,,,,,,,,,,,,,,,,,,,,,,,,,,
,,,,,,,,2023-08-16_08h44.44.863,HF_wild_card,2022.2.4,Linux x86_64,60.03842459,59e675a6c0d35a00012951ce,64d2fd46c836a06233681665,64dc7de45038957636d3ce13,,,,,,,decisionTrl,resources/DP.BMP,resources/DY.BMP,Door3,-0.300857107,-0.001696984,1,0,0,1.1693,optionLeft,70,10580,5,23,0,23,0,1,,,,,,,,,,,,,,,,,,,,,,,,,,,,,,,,,,,,,,,
,,,,,,,,2023-08-16_08h44.44.863,HF_wild_card,2022.2.4,Linux x86_64,60.03842459,59e675a6c0d35a00012951ce,64d2fd46c836a06233681665,64dc7de45038957636d3ce13,,,,,,,sngl,resources/Empty.png,resources/DB.BMP,Door2,0.371390104,0.024060766,1,0,0,0.9442,optionRight,20,10600,5,24,0,24,0,1,,,,,,,,,,,,,,,,,,,,,,,,,,,,,,,,,,,,,,,
,,,,,,,,2023-08-16_08h44.44.863,HF_wild_card,2022.2.4,Linux x86_64,60.03842459,59e675a6c0d35a00012951ce,64d2fd46c836a06233681665,64dc7de45038957636d3ce13,,,,,,,ctch,resources/DB.BMP,resources/DP.BMP,Door3,0.379871925,-0.037941853,1,0,0,0.907,optionRight,70,10670,5,25,0,25,0,1,,,,,,,,,,,,,,,,,,,,,,,,,,,,,,,,,,,,,,,
,,,,,,,,2023-08-16_08h44.44.863,HF_wild_card,2022.2.4,Linux x86_64,60.03842459,59e675a6c0d35a00012951ce,64d2fd46c836a06233681665,64dc7de45038957636d3ce13,,,,,,,ctch,resources/DY.BMP,resources/DBN.BMP,Door4,-0.321503242,-0.028359572,1,0,0,1.1408,optionLeft,60,10730,5,26,0,26,0,1,,,,,,,,,,,,,,,,,,,,,,,,,,,,,,,,,,,,,,,
,,,,,,,,2023-08-16_08h44.44.863,HF_wild_card,2022.2.4,Linux x86_64,60.03842459,59e675a6c0d35a00012951ce,64d2fd46c836a06233681665,64dc7de45038957636d3ce13,,,,,,,decisionTrl,resources/DB.BMP,resources/DBN.BMP,Door1,0.290784518,0.016292771,1,0,0,1.3608,optionRight,30,10760,5,27,0,27,0,1,,,,,,,,,,,,,,,,,,,,,,,,,,,,,,,,,,,,,,,
,,,,,,,,2023-08-16_08h44.44.863,HF_wild_card,2022.2.4,Linux x86_64,60.03842459,59e675a6c0d35a00012951ce,64d2fd46c836a06233681665,64dc7de45038957636d3ce13,,,,,,,sngl,resources/DR.BMP,resources/Empty.png,WildCard_Ex,-0.397295316,-0.015091896,1,0,0,0.959,optionLeft,55,10815,5,28,0,28,0,1,,,,,,,,,,,,,,,,,,,,,,,,,,,,,,,,,,,,,,,
,,,,,,,,2023-08-16_08h44.44.863,HF_wild_card,2022.2.4,Linux x86_64,60.03842459,59e675a6c0d35a00012951ce,64d2fd46c836a06233681665,64dc7de45038957636d3ce13,,,,,,,decisionTrl,resources/DB.BMP,resources/DBN.BMP,Door1,0.351757129,0.020337462,1,0,0,1.2221,optionRight,30,10845,5,29,0,29,0,1,,,,,,,,,,,,,,,,,,,,,,,,,,,,,,,,,,,,,,,
,,,,,,,,2023-08-16_08h44.44.863,HF_wild_card,2022.2.4,Linux x86_64,60.03842459,59e675a6c0d35a00012951ce,64d2fd46c836a06233681665,64dc7de45038957636d3ce13,,,,,,,decisionTrl,resources/DBN.BMP,resources/DR.BMP,WildCard_Ex,0.353367805,-0.033509493,1,0,0,1.6684,optionRight,55,10900,5,30,0,30,0,1,,,,,,,,,,,,,,,,,,,,,,,,,,,,,,,,,,,,,,,
,,,,,,,,2023-08-16_08h44.44.863,HF_wild_card,2022.2.4,Linux x86_64,60.03842459,59e675a6c0d35a00012951ce,64d2fd46c836a06233681665,64dc7de45038957636d3ce13,,,,,,,sngl,resources/Empty.png,resources/DY.BMP,Door4,0.310561975,-0.054672917,1,0,0,0.8598,optionRight,60,10960,5,31,0,31,0,1,,,,,,,,,,,,,,,,,,,,,,,,,,,,,,,,,,,,,,,
,,,,,,,,2023-08-16_08h44.44.863,HF_wild_card,2022.2.4,Linux x86_64,60.03842459,59e675a6c0d35a00012951ce,64d2fd46c836a06233681665,64dc7de45038957636d3ce13,,,,,,,decisionTrl,resources/DB.BMP,resources/DBN.BMP,Door1,0.291472991,-0.008116126,1,0,0,0.9372,optionRight,30,10990,5,32,0,32,0,1,,,,,,,,,,,,,,,,,,,,,,,,,,,,,,,,,,,,,,,
,,,,,,,,2023-08-16_08h44.44.863,HF_wild_card,2022.2.4,Linux x86_64,60.03842459,59e675a6c0d35a00012951ce,64d2fd46c836a06233681665,64dc7de45038957636d3ce13,,,,,,,ctch,resources/DP.BMP,resources/DB.BMP,Door3,-0.347002586,9.17117E-05,1,0,0,1.0897,optionLeft,70,11060,5,33,0,33,0,1,,,,,,,,,,,,,,,,,,,,,,,,,,,,,,,,,,,,,,,
,,,,,,,,2023-08-16_08h44.44.863,HF_wild_card,2022.2.4,Linux x86_64,60.03842459,59e675a6c0d35a00012951ce,64d2fd46c836a06233681665,64dc7de45038957636d3ce13,,,,,,,sngl,resources/DB.BMP,resources/Empty.png,Door2,-0.378421346,-0.01222225,1,0,0,0.7775,optionLeft,40,11100,5,34,0,34,0,1,,,,,,,,,,,,,,,,,,,,,,,,,,,,,,,,,,,,,,,
,,,,,,,,2023-08-16_08h44.44.863,HF_wild_card,2022.2.4,Linux x86_64,60.03842459,59e675a6c0d35a00012951ce,64d2fd46c836a06233681665,64dc7de45038957636d3ce13,,,,,,,decisionTrl,resources/DY.BMP,resources/DR.BMP,Door4,-0.368293683,-0.025950313,1,0,0,0.9767,optionLeft,80,11180,5,35,0,35,0,1,,,,,,,,,,,,,,,,,,,,,,,,,,,,,,,,,,,,,,,
,,,,,,,,2023-08-16_08h44.44.863,HF_wild_card,2022.2.4,Linux x86_64,60.03842459,59e675a6c0d35a00012951ce,64d2fd46c836a06233681665,64dc7de45038957636d3ce13,,,,,,,ctch,resources/DBN.BMP,resources/DY.BMP,Door4,0.425868829,-0.013938109,1,0,0,0.8964,optionRight,60,11240,5,36,0,36,0,1,,,,,,,,,,,,,,,,,,,,,,,,,,,,,,,,,,,,,,,
,,,,,,,,2023-08-16_08h44.44.863,HF_wild_card,2022.2.4,Linux x86_64,60.03842459,59e675a6c0d35a00012951ce,64d2fd46c836a06233681665,64dc7de45038957636d3ce13,,,,,,,decisionTrl,resources/DBN.BMP,resources/DB.BMP,Door1,-0.425344467,-0.115802725,1,0,0,0.9418,optionLeft,30,11270,5,37,0,37,0,1,,,,,,,,,,,,,,,,,,,,,,,,,,,,,,,,,,,,,,,
,,,,,,,,2023-08-16_08h44.44.863,HF_wild_card,2022.2.4,Linux x86_64,60.03842459,59e675a6c0d35a00012951ce,64d2fd46c836a06233681665,64dc7de45038957636d3ce13,,,,,,,decisionTrl,resources/DR.BMP,resources/DP.BMP,Door3,0.235857964,-0.021622141,1,0,0,1.2427,optionRight,70,11340,5,38,0,38,0,1,,,,,,,,,,,,,,,,,,,,,,,,,,,,,,,,,,,,,,,
,,,,,,,,2023-08-16_08h44.44.863,HF_wild_card,2022.2.4,Linux x86_64,60.03842459,59e675a6c0d35a00012951ce,64d2fd46c836a06233681665,64dc7de45038957636d3ce13,,,,,,,ctch,resources/DY.BMP,resources/DBN.BMP,Door4,-0.317516724,0.003341118,1,0,0,0.8325,optionLeft,80,11420,5,39,0,39,0,1,,,,,,,,,,,,,,,,,,,,,,,,,,,,,,,,,,,,,,,
,,,,,,,,2023-08-16_08h44.44.863,HF_wild_card,2022.2.4,Linux x86_64,60.03842459,59e675a6c0d35a00012951ce,64d2fd46c836a06233681665,64dc7de45038957636d3ce13,,,,,,,decisionTrl,resources/DP.BMP,resources/DY.BMP,Door3,-0.310034752,-0.03330191,1,0,0,1.8294,optionLeft,70,11490,5,40,0,40,0,1,,,,,,,,,,,,,,,,,,,,,,,,,,,,,,,,,,,,,,,
,,,,,,,,2023-08-16_08h44.44.863,HF_wild_card,2022.2.4,Linux x86_64,60.03842459,59e675a6c0d35a00012951ce,64d2fd46c836a06233681665,64dc7de45038957636d3ce13,,,,,,,decisionTrl,resources/DR.BMP,resources/DBN.BMP,WildCard_Ex,-0.271211863,0.009954611,1,0,0,1.5074,optionLeft,45,11535,5,41,0,41,0,1,,,,,,,,,,,,,,,,,,,,,,,,,,,,,,,,,,,,,,,
,,,,,,,,2023-08-16_08h44.44.863,HF_wild_card,2022.2.4,Linux x86_64,60.03842459,59e675a6c0d35a00012951ce,64d2fd46c836a06233681665,64dc7de45038957636d3ce13,,,,,,,ctch,resources/DP.BMP,resources/DB.BMP,Door3,-0.380686522,-0.033147772,1,0,0,1.0375,optionLeft,70,11605,5,42,0,42,0,1,,,,,,,,,,,,,,,,,,,,,,,,,,,,,,,,,,,,,,,
,,,,,,,,2023-08-16_08h44.44.863,HF_wild_card,2022.2.4,Linux x86_64,60.03842459,59e675a6c0d35a00012951ce,64d2fd46c836a06233681665,64dc7de45038957636d3ce13,,,,,,,decisionTrl,resources/DY.BMP,resources/DP.BMP,Door3,0.379457474,-0.008619507,1,0,0,1.1599,optionRight,70,11675,5,43,0,43,0,1,,,,,,,,,,,,,,,,,,,,,,,,,,,,,,,,,,,,,,,
,,,,,,,,2023-08-16_08h44.44.863,HF_wild_card,2022.2.4,Linux x86_64,60.03842459,59e675a6c0d35a00012951ce,64d2fd46c836a06233681665,64dc7de45038957636d3ce13,,,,,,,,,,,,,,,,,,,,,,,,,,4,0,4,0,1,,,,,,,,,,,,,,,,,,,,,,,,,,,,,,,,,,
,,,,,,,,2023-08-16_08h44.44.863,HF_wild_card,2022.2.4,Linux x86_64,60.03842459,59e675a6c0d35a00012951ce,64d2fd46c836a06233681665,64dc7de45038957636d3ce13,,,,,,,sngl,resources/Empty.png,resources/DR.BMP,WildCard_Ex,0.403937022,-0.012229482,1,0,0,1.1516,optionRight,55,11730,6,0,0,0,0,1,,,,,,,,,,,,,,,,,,,,,,,,,,,,,,,,,,,,,,,
,,,,,,,,2023-08-16_08h44.44.863,HF_wild_card,2022.2.4,Linux x86_64,60.03842459,59e675a6c0d35a00012951ce,64d2fd46c836a06233681665,64dc7de45038957636d3ce13,,,,,,,decisionTrl,resources/DP.BMP,resources/DY.BMP,Door3,-0.29115057,-0.028344154,1,0,0,0.8145,optionLeft,70,11800,6,1,0,1,0,1,,,,,,,,,,,,,,,,,,,,,,,,,,,,,,,,,,,,,,,
,,,,,,,,2023-08-16_08h44.44.863,HF_wild_card,2022.2.4,Linux x86_64,60.03842459,59e675a6c0d35a00012951ce,64d2fd46c836a06233681665,64dc7de45038957636d3ce13,,,,,,,decisionTrl,resources/DY.BMP,resources/DP.BMP,Door3,0.442115148,-0.002555728,1,0,0,0.841,optionRight,70,11870,6,2,0,2,0,1,,,,,,,,,,,,,,,,,,,,,,,,,,,,,,,,,,,,,,,
,,,,,,,,2023-08-16_08h44.44.863,HF_wild_card,2022.2.4,Linux x86_64,60.03842459,59e675a6c0d35a00012951ce,64d2fd46c836a06233681665,64dc7de45038957636d3ce13,,,,,,,ctch,resources/DBN.BMP,resources/DY.BMP,Door4,0.38305227,-0.017557542,1,0,0,0.9103,optionRight,60,11930,6,3,0,3,0,1,,,,,,,,,,,,,,,,,,,,,,,,,,,,,,,,,,,,,,,
,,,,,,,,2023-08-16_08h44.44.863,HF_wild_card,2022.2.4,Linux x86_64,60.03842459,59e675a6c0d35a00012951ce,64d2fd46c836a06233681665,64dc7de45038957636d3ce13,,,,,,,decisionTrl,resources/DR.BMP,resources/DB.BMP,WildCard_Ex,-0.372732878,-0.085416834,1,0,0,1.0428,optionLeft,55,11985,6,4,0,4,0,1,,,,,,,,,,,,,,,,,,,,,,,,,,,,,,,,,,,,,,,
,,,,,,,,2023-08-16_08h44.44.863,HF_wild_card,2022.2.4,Linux x86_64,60.03842459,59e675a6c0d35a00012951ce,64d2fd46c836a06233681665,64dc7de45038957636d3ce13,,,,,,,ctch,resources/DP.BMP,resources/DB.BMP,Door3,-0.311420202,-0.039153814,1,0,0,1.3034,optionLeft,70,12055,6,5,0,5,0,1,,,,,,,,,,,,,,,,,,,,,,,,,,,,,,,,,,,,,,,
,,,,,,,,2023-08-16_08h44.44.863,HF_wild_card,2022.2.4,Linux x86_64,60.03842459,59e675a6c0d35a00012951ce,64d2fd46c836a06233681665,64dc7de45038957636d3ce13,,,,,,,decisionTrl,resources/DR.BMP,resources/DBN.BMP,WildCard_Ex,-0.354583065,-0.015075644,1,0,0,0.9748,optionLeft,45,12100,6,6,0,6,0,1,,,,,,,,,,,,,,,,,,,,,,,,,,,,,,,,,,,,,,,
,,,,,,,,2023-08-16_08h44.44.863,HF_wild_card,2022.2.4,Linux x86_64,60.03842459,59e675a6c0d35a00012951ce,64d2fd46c836a06233681665,64dc7de45038957636d3ce13,,,,,,,sngl,resources/Empty.png,resources/DR.BMP,WildCard_Ex,0.393228372,-0.029319604,1,0,0,1.6225,optionRight,45,12145,6,7,0,7,0,1,,,,,,,,,,,,,,,,,,,,,,,,,,,,,,,,,,,,,,,
,,,,,,,,2023-08-16_08h44.44.863,HF_wild_card,2022.2.4,Linux x86_64,60.03842459,59e675a6c0d35a00012951ce,64d2fd46c836a06233681665,64dc7de45038957636d3ce13,,,,,,,sngl,resources/Empty.png,resources/DB.BMP,Door2,0.432147662,-0.038214405,1,0,0,0.7356,optionRight,40,12185,6,8,0,8,0,1,,,,,,,,,,,,,,,,,,,,,,,,,,,,,,,,,,,,,,,
,,,,,,,,2023-08-16_08h44.44.863,HF_wild_card,2022.2.4,Linux x86_64,60.03842459,59e675a6c0d35a00012951ce,64d2fd46c836a06233681665,64dc7de45038957636d3ce13,,,,,,,sngl,resources/DR.BMP,resources/Empty.png,WildCard_Ex,-0.336916169,-0.027422508,1,0,0,0.7746,optionLeft,55,12240,6,9,0,9,0,1,,,,,,,,,,,,,,,,,,,,,,,,,,,,,,,,,,,,,,,
,,,,,,,,2023-08-16_08h44.44.863,HF_wild_card,2022.2.4,Linux x86_64,60.03842459,59e675a6c0d35a00012951ce,64d2fd46c836a06233681665,64dc7de45038957636d3ce13,,,,,,,decisionTrl,resources/DY.BMP,resources/DR.BMP,WildCard_Ex,0.361929417,-0.030785521,1,0,0,0.7567,optionRight,55,12295,6,10,0,10,0,1,,,,,,,,,,,,,,,,,,,,,,,,,,,,,,,,,,,,,,,
,,,,,,,,2023-08-16_08h44.44.863,HF_wild_card,2022.2.4,Linux x86_64,60.03842459,59e675a6c0d35a00012951ce,64d2fd46c836a06233681665,64dc7de45038957636d3ce13,,,,,,,decisionTrl,resources/DR.BMP,resources/DY.BMP,Door4,0.300413052,-0.040482362,1,0,0,0.9465,optionRight,60,12355,6,11,0,11,0,1,,,,,,,,,,,,,,,,,,,,,,,,,,,,,,,,,,,,,,,
,,,,,,,,2023-08-16_08h44.44.863,HF_wild_card,2022.2.4,Linux x86_64,60.03842459,59e675a6c0d35a00012951ce,64d2fd46c836a06233681665,64dc7de45038957636d3ce13,,,,,,,sngl,resources/Empty.png,resources/DP.BMP,Door3,0.328855197,-0.028765599,1,0,0,0.8765,optionRight,70,12425,6,12,0,12,0,1,,,,,,,,,,,,,,,,,,,,,,,,,,,,,,,,,,,,,,,
,,,,,,,,2023-08-16_08h44.44.863,HF_wild_card,2022.2.4,Linux x86_64,60.03842459,59e675a6c0d35a00012951ce,64d2fd46c836a06233681665,64dc7de45038957636d3ce13,,,,,,,decisionTrl,resources/DB.BMP,resources/DBN.BMP,Door1,0.414523919,-0.020556887,1,0,0,1.2902,optionRight,30,12455,6,13,0,13,0,1,,,,,,,,,,,,,,,,,,,,,,,,,,,,,,,,,,,,,,,
,,,,,,,,2023-08-16_08h44.44.863,HF_wild_card,2022.2.4,Linux x86_64,60.03842459,59e675a6c0d35a00012951ce,64d2fd46c836a06233681665,64dc7de45038957636d3ce13,,,,,,,decisionTrl,resources/DB.BMP,resources/DBN.BMP,Door2,-0.321811477,-0.029462695,1,0,0,0.7767,optionLeft,20,12475,6,14,0,14,0,1,,,,,,,,,,,,,,,,,,,,,,,,,,,,,,,,,,,,,,,
,,,,,,,,2023-08-16_08h44.44.863,HF_wild_card,2022.2.4,Linux x86_64,60.03842459,59e675a6c0d35a00012951ce,64d2fd46c836a06233681665,64dc7de45038957636d3ce13,,,,,,,decisionTrl,resources/DY.BMP,resources/DP.BMP,Door3,0.429124355,-0.103412429,1,0,0,0.9808,optionRight,70,12545,6,15,0,15,0,1,,,,,,,,,,,,,,,,,,,,,,,,,,,,,,,,,,,,,,,
,,,,,,,,2023-08-16_08h44.44.863,HF_wild_card,2022.2.4,Linux x86_64,60.03842459,59e675a6c0d35a00012951ce,64d2fd46c836a06233681665,64dc7de45038957636d3ce13,,,,,,,ctch,resources/DB.BMP,resources/DP.BMP,Door3,0.28190438,-0.062306484,1,0,0,0.8249,optionRight,70,12615,6,16,0,16,0,1,,,,,,,,,,,,,,,,,,,,,,,,,,,,,,,,,,,,,,,
,,,,,,,,2023-08-16_08h44.44.863,HF_wild_card,2022.2.4,Linux x86_64,60.03842459,59e675a6c0d35a00012951ce,64d2fd46c836a06233681665,64dc7de45038957636d3ce13,,,,,,,decisionTrl,resources/DBN.BMP,resources/DB.BMP,Door1,-0.291859587,-0.032753388,1,0,0,1.4132,optionLeft,30,12645,6,17,0,17,0,1,,,,,,,,,,,,,,,,,,,,,,,,,,,,,,,,,,,,,,,
,,,,,,,,2023-08-16_08h44.44.863,HF_wild_card,2022.2.4,Linux x86_64,60.03842459,59e675a6c0d35a00012951ce,64d2fd46c836a06233681665,64dc7de45038957636d3ce13,,,,,,,decisionTrl,resources/DBN.BMP,resources/DB.BMP,Door1,-0.302888195,0.014288664,1,0,0,1.5581,optionLeft,30,12675,6,18,0,18,0,1,,,,,,,,,,,,,,,,,,,,,,,,,,,,,,,,,,,,,,,
,,,,,,,,2023-08-16_08h44.44.863,HF_wild_card,2022.2.4,Linux x86_64,60.03842459,59e675a6c0d35a00012951ce,64d2fd46c836a06233681665,64dc7de45038957636d3ce13,,,,,,,decisionTrl,resources/DR.BMP,resources/DP.BMP,Door3,0.359271447,-0.096449693,1,0,0,0.8444,optionRight,70,12745,6,19,0,19,0,1,,,,,,,,,,,,,,,,,,,,,,,,,,,,,,,,,,,,,,,
,,,,,,,,2023-08-16_08h44.44.863,HF_wild_card,2022.2.4,Linux x86_64,60.03842459,59e675a6c0d35a00012951ce,64d2fd46c836a06233681665,64dc7de45038957636d3ce13,,,,,,,decisionTrl,resources/DP.BMP,resources/DY.BMP,Door3,-0.24186631,-0.072214603,1,0,0,2.5245,optionLeft,70,12815,6,20,0,20,0,1,,,,,,,,,,,,,,,,,,,,,,,,,,,,,,,,,,,,,,,
,,,,,,,,2023-08-16_08h44.44.863,HF_wild_card,2022.2.4,Linux x86_64,60.03842459,59e675a6c0d35a00012951ce,64d2fd46c836a06233681665,64dc7de45038957636d3ce13,,,,,,,ctch,resources/DY.BMP,resources/DBN.BMP,Door4,-0.246001959,-0.061501622,1,0,0,1.3319,optionLeft,80,12895,6,21,0,21,0,1,,,,,,,,,,,,,,,,,,,,,,,,,,,,,,,,,,,,,,,
,,,,,,,,2023-08-16_08h44.44.863,HF_wild_card,2022.2.4,Linux x86_64,60.03842459,59e675a6c0d35a00012951ce,64d2fd46c836a06233681665,64dc7de45038957636d3ce13,,,,,,,decisionTrl,resources/DBN.BMP,resources/DB.BMP,Door1,-0.402942975,-0.018431783,1,0,0,1.176,optionLeft,30,12925,6,22,0,22,0,1,,,,,,,,,,,,,,,,,,,,,,,,,,,,,,,,,,,,,,,
,,,,,,,,2023-08-16_08h44.44.863,HF_wild_card,2022.2.4,Linux x86_64,60.03842459,59e675a6c0d35a00012951ce,64d2fd46c836a06233681665,64dc7de45038957636d3ce13,,,,,,,decisionTrl,resources/DB.BMP,resources/DBN.BMP,Door1,0.387762308,-0.026734551,1,0,0,1.1599,optionRight,30,12955,6,23,0,23,0,1,,,,,,,,,,,,,,,,,,,,,,,,,,,,,,,,,,,,,,,
,,,,,,,,2023-08-16_08h44.44.863,HF_wild_card,2022.2.4,Linux x86_64,60.03842459,59e675a6c0d35a00012951ce,64d2fd46c836a06233681665,64dc7de45038957636d3ce13,,,,,,,ctch,resources/DBN.BMP,resources/DY.BMP,Door4,0.275983334,0.002375603,1,0,0,0.7899,optionRight,80,13035,6,24,0,24,0,1,,,,,,,,,,,,,,,,,,,,,,,,,,,,,,,,,,,,,,,
,,,,,,,,2023-08-16_08h44.44.863,HF_wild_card,2022.2.4,Linux x86_64,60.03842459,59e675a6c0d35a00012951ce,64d2fd46c836a06233681665,64dc7de45038957636d3ce13,,,,,,,ctch,resources/DB.BMP,resources/DP.BMP,Door3,0.484827995,0.003695448,1,0,0,0.8268,optionRight,70,13105,6,25,0,25,0,1,,,,,,,,,,,,,,,,,,,,,,,,,,,,,,,,,,,,,,,
,,,,,,,,2023-08-16_08h44.44.863,HF_wild_card,2022.2.4,Linux x86_64,60.03842459,59e675a6c0d35a00012951ce,64d2fd46c836a06233681665,64dc7de45038957636d3ce13,,,,,,,decisionTrl,resources/DY.BMP,resources/DP.BMP,Door3,0.491604487,-0.070158839,1,0,0,0.678,optionRight,70,13175,6,26,0,26,0,1,,,,,,,,,,,,,,,,,,,,,,,,,,,,,,,,,,,,,,,
,,,,,,,,2023-08-16_08h44.44.863,HF_wild_card,2022.2.4,Linux x86_64,60.03842459,59e675a6c0d35a00012951ce,64d2fd46c836a06233681665,64dc7de45038957636d3ce13,,,,,,,sngl,resources/Empty.png,resources/DY.BMP,Door4,0.246208986,-0.013459285,1,0,0,0.7653,optionRight,80,13255,6,27,0,27,0,1,,,,,,,,,,,,,,,,,,,,,,,,,,,,,,,,,,,,,,,
,,,,,,,,2023-08-16_08h44.44.863,HF_wild_card,2022.2.4,Linux x86_64,60.03842459,59e675a6c0d35a00012951ce,64d2fd46c836a06233681665,64dc7de45038957636d3ce13,,,,,,,sngl,resources/DR.BMP,resources/Empty.png,WildCard_Ex,-0.387294412,-0.000817577,1,0,0,0.9423,optionLeft,45,13300,6,28,0,28,0,1,,,,,,,,,,,,,,,,,,,,,,,,,,,,,,,,,,,,,,,
,,,,,,,,2023-08-16_08h44.44.863,HF_wild_card,2022.2.4,Linux x86_64,60.03842459,59e675a6c0d35a00012951ce,64d2fd46c836a06233681665,64dc7de45038957636d3ce13,,,,,,,sngl,resources/DP.BMP,resources/Empty.png,Door3,-0.24100395,-0.016553919,1,0,0,1.009,optionLeft,70,13370,6,29,0,29,0,1,,,,,,,,,,,,,,,,,,,,,,,,,,,,,,,,,,,,,,,
,,,,,,,,2023-08-16_08h44.44.863,HF_wild_card,2022.2.4,Linux x86_64,60.03842459,59e675a6c0d35a00012951ce,64d2fd46c836a06233681665,64dc7de45038957636d3ce13,,,,,,,ctch,resources/DY.BMP,resources/DBN.BMP,Door4,-0.428842346,-0.026067495,1,0,0,0.7576,optionLeft,80,13450,6,30,0,30,0,1,,,,,,,,,,,,,,,,,,,,,,,,,,,,,,,,,,,,,,,
,,,,,,,,2023-08-16_08h44.44.863,HF_wild_card,2022.2.4,Linux x86_64,60.03842459,59e675a6c0d35a00012951ce,64d2fd46c836a06233681665,64dc7de45038957636d3ce13,,,,,,,sngl,resources/DBN.BMP,resources/Empty.png,Door1,-0.219177405,0.021995505,1,0,0,1.054,optionLeft,30,13480,6,31,0,31,0,1,,,,,,,,,,,,,,,,,,,,,,,,,,,,,,,,,,,,,,,
,,,,,,,,2023-08-16_08h44.44.863,HF_wild_card,2022.2.4,Linux x86_64,60.03842459,59e675a6c0d35a00012951ce,64d2fd46c836a06233681665,64dc7de45038957636d3ce13,,,,,,,sngl,resources/DB.BMP,resources/Empty.png,Door2,-0.256006678,0.005189856,1,0,0,1.0422,optionLeft,20,13500,6,32,0,32,0,1,,,,,,,,,,,,,,,,,,,,,,,,,,,,,,,,,,,,,,,
,,,,,,,,2023-08-16_08h44.44.863,HF_wild_card,2022.2.4,Linux x86_64,60.03842459,59e675a6c0d35a00012951ce,64d2fd46c836a06233681665,64dc7de45038957636d3ce13,,,,,,,decisionTrl,resources/DBN.BMP,resources/DR.BMP,WildCard_Ex,0.301206112,-0.002966126,1,0,0,1.3385,optionRight,45,13545,6,33,0,33,0,1,,,,,,,,,,,,,,,,,,,,,,,,,,,,,,,,,,,,,,,
,,,,,,,,2023-08-16_08h44.44.863,HF_wild_card,2022.2.4,Linux x86_64,60.03842459,59e675a6c0d35a00012951ce,64d2fd46c836a06233681665,64dc7de45038957636d3ce13,,,,,,,sngl,resources/DY.BMP,resources/Empty.png,Door4,-0.312407017,0.002270579,1,0,0,0.8431,optionLeft,60,13605,6,34,0,34,0,1,,,,,,,,,,,,,,,,,,,,,,,,,,,,,,,,,,,,,,,
,,,,,,,,2023-08-16_08h44.44.863,HF_wild_card,2022.2.4,Linux x86_64,60.03842459,59e675a6c0d35a00012951ce,64d2fd46c836a06233681665,64dc7de45038957636d3ce13,,,,,,,ctch,resources/DP.BMP,resources/DB.BMP,Door3,-0.322584947,-0.033992012,1,0,0,1.126,optionLeft,70,13675,6,35,0,35,0,1,,,,,,,,,,,,,,,,,,,,,,,,,,,,,,,,,,,,,,,
,,,,,,,,2023-08-16_08h44.44.863,HF_wild_card,2022.2.4,Linux x86_64,60.03842459,59e675a6c0d35a00012951ce,64d2fd46c836a06233681665,64dc7de45038957636d3ce13,,,,,,,decisionTrl,resources/DBN.BMP,resources/DB.BMP,Door2,0.319921494,0.01070718,1,0,0,1.5739,optionRight,40,13715,6,36,0,36,0,1,,,,,,,,,,,,,,,,,,,,,,,,,,,,,,,,,,,,,,,
,,,,,,,,2023-08-16_08h44.44.863,HF_wild_card,2022.2.4,Linux x86_64,60.03842459,59e675a6c0d35a00012951ce,64d2fd46c836a06233681665,64dc7de45038957636d3ce13,,,,,,,sngl,resources/Empty.png,resources/DBN.BMP,Door1,0.188854853,-0.023636659,1,0,0,2.2387,optionRight,30,13745,6,37,0,37,0,1,,,,,,,,,,,,,,,,,,,,,,,,,,,,,,,,,,,,,,,
,,,,,,,,2023-08-16_08h44.44.863,HF_wild_card,2022.2.4,Linux x86_64,60.03842459,59e675a6c0d35a00012951ce,64d2fd46c836a06233681665,64dc7de45038957636d3ce13,,,,,,,decisionTrl,resources/DP.BMP,resources/DR.BMP,Door3,-0.291372021,-0.00160567,1,0,0,1.4466,optionLeft,70,13815,6,38,0,38,0,1,,,,,,,,,,,,,,,,,,,,,,,,,,,,,,,,,,,,,,,
,,,,,,,,2023-08-16_08h44.44.863,HF_wild_card,2022.2.4,Linux x86_64,60.03842459,59e675a6c0d35a00012951ce,64d2fd46c836a06233681665,64dc7de45038957636d3ce13,,,,,,,decisionTrl,resources/DB.BMP,resources/DR.BMP,WildCard_Ex,0.465620041,0.021128058,1,0,0,1.8365,optionRight,45,13860,6,39,0,39,0,1,,,,,,,,,,,,,,,,,,,,,,,,,,,,,,,,,,,,,,,
,,,,,,,,2023-08-16_08h44.44.863,HF_wild_card,2022.2.4,Linux x86_64,60.03842459,59e675a6c0d35a00012951ce,64d2fd46c836a06233681665,64dc7de45038957636d3ce13,,,,,,,decisionTrl,resources/DP.BMP,resources/DY.BMP,Door4,0.241090695,0.039431016,1,0,0,2.2109,optionRight,60,13920,6,40,0,40,0,1,,,,,,,,,,,,,,,,,,,,,,,,,,,,,,,,,,,,,,,
,,,,,,,,2023-08-16_08h44.44.863,HF_wild_card,2022.2.4,Linux x86_64,60.03842459,59e675a6c0d35a00012951ce,64d2fd46c836a06233681665,64dc7de45038957636d3ce13,,,,,,,decisionTrl,resources/DY.BMP,resources/DP.BMP,Door3,0.203212738,-0.04352502,1,0,0,1.4083,optionRight,70,13990,6,41,0,41,0,1,,,,,,,,,,,,,,,,,,,,,,,,,,,,,,,,,,,,,,,
,,,,,,,,2023-08-16_08h44.44.863,HF_wild_card,2022.2.4,Linux x86_64,60.03842459,59e675a6c0d35a00012951ce,64d2fd46c836a06233681665,64dc7de45038957636d3ce13,,,,,,,decisionTrl,resources/DB.BMP,resources/DBN.BMP,Door1,0.431824684,0.003230413,1,0,0,1.2641,optionRight,30,14020,6,42,0,42,0,1,,,,,,,,,,,,,,,,,,,,,,,,,,,,,,,,,,,,,,,
,,,,,,,,2023-08-16_08h44.44.863,HF_wild_card,2022.2.4,Linux x86_64,60.03842459,59e675a6c0d35a00012951ce,64d2fd46c836a06233681665,64dc7de45038957636d3ce13,,,,,,,decisionTrl,resources/DP.BMP,resources/DY.BMP,Door4,0.326335828,0.001497149,1,0,0,0.8586,optionRight,60,14080,6,43,0,43,0,1,,,,,,,,,,,,,,,,,,,,,,,,,,,,,,,,,,,,,,,
,,,,,,,,2023-08-16_08h44.44.863,HF_wild_card,2022.2.4,Linux x86_64,60.03842459,59e675a6c0d35a00012951ce,64d2fd46c836a06233681665,64dc7de45038957636d3ce13,,,,,,,,,,,,,,,,,,,,,,,,,,5,0,5,0,1,,,,,,,,,,,,,,,,,,,,,,,,,,,,,,,,,,
,,,,,,,,2023-08-16_08h44.44.863,HF_wild_card,2022.2.4,Linux x86_64,60.03842459,59e675a6c0d35a00012951ce,64d2fd46c836a06233681665,64dc7de45038957636d3ce13,,,,,,,ctch,resources/DP.BMP,resources/DB.BMP,Door3,-0.304808617,-0.057910562,1,0,0,1.1805,optionLeft,70,14150,7,0,0,0,0,1,,,,,,,,,,,,,,,,,,,,,,,,,,,,,,,,,,,,,,,
,,,,,,,,2023-08-16_08h44.44.863,HF_wild_card,2022.2.4,Linux x86_64,60.03842459,59e675a6c0d35a00012951ce,64d2fd46c836a06233681665,64dc7de45038957636d3ce13,,,,,,,decisionTrl,resources/DB.BMP,resources/DBN.BMP,Door1,0.276435375,-0.010473887,1,0,0,1.6266,optionRight,30,14180,7,1,0,1,0,1,,,,,,,,,,,,,,,,,,,,,,,,,,,,,,,,,,,,,,,
,,,,,,,,2023-08-16_08h44.44.863,HF_wild_card,2022.2.4,Linux x86_64,60.03842459,59e675a6c0d35a00012951ce,64d2fd46c836a06233681665,64dc7de45038957636d3ce13,,,,,,,decisionTrl,resources/DY.BMP,resources/DP.BMP,Door3,0.361142476,-0.004349232,1,0,0,1.1337,optionRight,70,14250,7,2,0,2,0,1,,,,,,,,,,,,,,,,,,,,,,,,,,,,,,,,,,,,,,,
,,,,,,,,2023-08-16_08h44.44.863,HF_wild_card,2022.2.4,Linux x86_64,60.03842459,59e675a6c0d35a00012951ce,64d2fd46c836a06233681665,64dc7de45038957636d3ce13,,,,,,,ctch,resources/DBN.BMP,resources/DY.BMP,Door4,0.444632371,-0.041165988,1,0,0,0.9658,optionRight,60,14310,7,3,0,3,0,1,,,,,,,,,,,,,,,,,,,,,,,,,,,,,,,,,,,,,,,
,,,,,,,,2023-08-16_08h44.44.863,HF_wild_card,2022.2.4,Linux x86_64,60.03842459,59e675a6c0d35a00012951ce,64d2fd46c836a06233681665,64dc7de45038957636d3ce13,,,,,,,decisionTrl,resources/DBN.BMP,resources/DB.BMP,Door1,-0.257277211,-0.014062683,1,0,0,1.0966,optionLeft,30,14340,7,4,0,4,0,1,,,,,,,,,,,,,,,,,,,,,,,,,,,,,,,,,,,,,,,
,,,,,,,,2023-08-16_08h44.44.863,HF_wild_card,2022.2.4,Linux x86_64,60.03842459,59e675a6c0d35a00012951ce,64d2fd46c836a06233681665,64dc7de45038957636d3ce13,,,,,,,decisionTrl,resources/DBN.BMP,resources/DB.BMP,Door1,-0.406709512,-0.023791512,1,0,0,0.9995,optionLeft,30,14370,7,5,0,5,0,1,,,,,,,,,,,,,,,,,,,,,,,,,,,,,,,,,,,,,,,
,,,,,,,,2023-08-16_08h44.44.863,HF_wild_card,2022.2.4,Linux x86_64,60.03842459,59e675a6c0d35a00012951ce,64d2fd46c836a06233681665,64dc7de45038957636d3ce13,,,,,,,ctch,resources/DY.BMP,resources/DBN.BMP,Door4,-0.307908853,0.003307621,1,0,0,1.204,optionLeft,80,14450,7,6,0,6,0,1,,,,,,,,,,,,,,,,,,,,,,,,,,,,,,,,,,,,,,,
,,,,,,,,2023-08-16_08h44.44.863,HF_wild_card,2022.2.4,Linux x86_64,60.03842459,59e675a6c0d35a00012951ce,64d2fd46c836a06233681665,64dc7de45038957636d3ce13,,,,,,,ctch,resources/DP.BMP,resources/DB.BMP,Door3,-0.387508233,-0.067406694,1,0,0,0.9585,optionLeft,70,14520,7,7,0,7,0,1,,,,,,,,,,,,,,,,,,,,,,,,,,,,,,,,,,,,,,,
,,,,,,,,2023-08-16_08h44.44.863,HF_wild_card,2022.2.4,Linux x86_64,60.03842459,59e675a6c0d35a00012951ce,64d2fd46c836a06233681665,64dc7de45038957636d3ce13,,,,,,,decisionTrl,resources/DP.BMP,resources/DY.BMP,Door3,-0.327230891,-0.045092622,1,0,0,1.0136,optionLeft,70,14590,7,8,0,8,0,1,,,,,,,,,,,,,,,,,,,,,,,,,,,,,,,,,,,,,,,
,,,,,,,,2023-08-16_08h44.44.863,HF_wild_card,2022.2.4,Linux x86_64,60.03842459,59e675a6c0d35a00012951ce,64d2fd46c836a06233681665,64dc7de45038957636d3ce13,,,,,,,decisionTrl,resources/DP.BMP,resources/DY.BMP,Door3,-0.266163349,-0.035674175,1,0,0,1.0305,optionLeft,70,14660,7,9,0,9,0,1,,,,,,,,,,,,,,,,,,,,,,,,,,,,,,,,,,,,,,,
,,,,,,,,2023-08-16_08h44.44.863,HF_wild_card,2022.2.4,Linux x86_64,60.03842459,59e675a6c0d35a00012951ce,64d2fd46c836a06233681665,64dc7de45038957636d3ce13,,,,,,,ctch,resources/DBN.BMP,resources/DY.BMP,Door4,0.329332511,-0.070395033,1,0,0,0.9762,optionRight,60,14720,7,10,0,10,0,1,,,,,,,,,,,,,,,,,,,,,,,,,,,,,,,,,,,,,,,
,,,,,,,,2023-08-16_08h44.44.863,HF_wild_card,2022.2.4,Linux x86_64,60.03842459,59e675a6c0d35a00012951ce,64d2fd46c836a06233681665,64dc7de45038957636d3ce13,,,,,,,decisionTrl,resources/DP.BMP,resources/DY.BMP,Door3,-0.271317442,-0.021636645,1,0,0,1.3279,optionLeft,70,14790,7,11,0,11,0,1,,,,,,,,,,,,,,,,,,,,,,,,,,,,,,,,,,,,,,,
,,,,,,,,2023-08-16_08h44.44.863,HF_wild_card,2022.2.4,Linux x86_64,60.03842459,59e675a6c0d35a00012951ce,64d2fd46c836a06233681665,64dc7de45038957636d3ce13,,,,,,,ctch,resources/DBN.BMP,resources/DY.BMP,Door4,0.386382341,-0.034515778,1,0,0,1.8124,optionRight,80,14870,7,12,0,12,0,1,,,,,,,,,,,,,,,,,,,,,,,,,,,,,,,,,,,,,,,
,,,,,,,,2023-08-16_08h44.44.863,HF_wild_card,2022.2.4,Linux x86_64,60.03842459,59e675a6c0d35a00012951ce,64d2fd46c836a06233681665,64dc7de45038957636d3ce13,,,,,,,decisionTrl,resources/DBN.BMP,resources/DB.BMP,Door1,-0.4540809,0.02177457,1,0,0,0.8961,optionLeft,30,14900,7,13,0,13,0,1,,,,,,,,,,,,,,,,,,,,,,,,,,,,,,,,,,,,,,,
,,,,,,,,2023-08-16_08h44.44.863,HF_wild_card,2022.2.4,Linux x86_64,60.03842459,59e675a6c0d35a00012951ce,64d2fd46c836a06233681665,64dc7de45038957636d3ce13,,,,,,,decisionTrl,resources/DP.BMP,resources/DY.BMP,Door3,-0.388194839,-0.027567029,1,0,0,1.027,optionLeft,70,14970,7,14,0,14,0,1,,,,,,,,,,,,,,,,,,,,,,,,,,,,,,,,,,,,,,,
,,,,,,,,2023-08-16_08h44.44.863,HF_wild_card,2022.2.4,Linux x86_64,60.03842459,59e675a6c0d35a00012951ce,64d2fd46c836a06233681665,64dc7de45038957636d3ce13,,,,,,,decisionTrl,resources/DBN.BMP,resources/DB.BMP,Door1,-0.342740178,-0.01675876,1,0,0,1.3436,optionLeft,30,15000,7,15,0,15,0,1,,,,,,,,,,,,,,,,,,,,,,,,,,,,,,,,,,,,,,,
,,,,,,,,2023-08-16_08h44.44.863,HF_wild_card,2022.2.4,Linux x86_64,60.03842459,59e675a6c0d35a00012951ce,64d2fd46c836a06233681665,64dc7de45038957636d3ce13,,,,,,,ctch,resources/DY.BMP,resources/DBN.BMP,Door4,-0.314421495,-0.021044612,1,0,0,0.779,optionLeft,80,15080,7,16,0,16,0,1,,,,,,,,,,,,,,,,,,,,,,,,,,,,,,,,,,,,,,,
,,,,,,,,2023-08-16_08h44.44.863,HF_wild_card,2022.2.4,Linux x86_64,60.03842459,59e675a6c0d35a00012951ce,64d2fd46c836a06233681665,64dc7de45038957636d3ce13,,,,,,,decisionTrl,resources/DY.BMP,resources/DP.BMP,Door3,0.295371056,-0.002196471,1,0,0,1.2624,optionRight,70,15150,7,17,0,17,0,1,,,,,,,,,,,,,,,,,,,,,,,,,,,,,,,,,,,,,,,
,,,,,,,,2023-08-16_08h44.44.863,HF_wild_card,2022.2.4,Linux x86_64,60.03842459,59e675a6c0d35a00012951ce,64d2fd46c836a06233681665,64dc7de45038957636d3ce13,,,,,,,decisionTrl,resources/DY.BMP,resources/DP.BMP,Door3,0.331841469,-0.041211883,1,0,0,0.8439,optionRight,70,15220,7,18,0,18,0,1,,,,,,,,,,,,,,,,,,,,,,,,,,,,,,,,,,,,,,,
,,,,,,,,2023-08-16_08h44.44.863,HF_wild_card,2022.2.4,Linux x86_64,60.03842459,59e675a6c0d35a00012951ce,64d2fd46c836a06233681665,64dc7de45038957636d3ce13,,,,,,,ctch,resources/DP.BMP,resources/DB.BMP,Door3,-0.320900639,-0.059765458,1,0,0,1.0307,optionLeft,70,15290,7,19,0,19,0,1,,,,,,,,,,,,,,,,,,,,,,,,,,,,,,,,,,,,,,,
,,,,,,,,2023-08-16_08h44.44.863,HF_wild_card,2022.2.4,Linux x86_64,60.03842459,59e675a6c0d35a00012951ce,64d2fd46c836a06233681665,64dc7de45038957636d3ce13,,,,,,,decisionTrl,resources/DBN.BMP,resources/DB.BMP,Door1,-0.288746039,-0.009233038,1,0,0,1.3753,optionLeft,30,15320,7,20,0,20,0,1,,,,,,,,,,,,,,,,,,,,,,,,,,,,,,,,,,,,,,,
,,,,,,,,2023-08-16_08h44.44.863,HF_wild_card,2022.2.4,Linux x86_64,60.03842459,59e675a6c0d35a00012951ce,64d2fd46c836a06233681665,64dc7de45038957636d3ce13,,,,,,,decisionTrl,resources/DB.BMP,resources/DBN.BMP,Door1,0.337099234,-0.0465885,1,0,0,0.9562,optionRight,30,15350,7,21,0,21,0,1,,,,,,,,,,,,,,,,,,,,,,,,,,,,,,,,,,,,,,,
,,,,,,,,2023-08-16_08h44.44.863,HF_wild_card,2022.2.4,Linux x86_64,60.03842459,59e675a6c0d35a00012951ce,64d2fd46c836a06233681665,64dc7de45038957636d3ce13,,,,,,,ctch,resources/DB.BMP,resources/DP.BMP,Door3,0.594594161,-0.076379299,1,0,0,0.7451,optionRight,70,15420,7,22,0,22,0,1,,,,,,,,,,,,,,,,,,,,,,,,,,,,,,,,,,,,,,,
,,,,,,,,2023-08-16_08h44.44.863,HF_wild_card,2022.2.4,Linux x86_64,60.03842459,59e675a6c0d35a00012951ce,64d2fd46c836a06233681665,64dc7de45038957636d3ce13,,,,,,,decisionTrl,resources/DB.BMP,resources/DBN.BMP,Door1,0.364237547,0.023069104,1,0,0,1.4293,optionRight,30,15450,7,23,0,23,0,1,,,,,,,,,,,,,,,,,,,,,,,,,,,,,,,,,,,,,,,
,,,,,,,,2023-08-16_08h44.44.863,HF_wild_card,2022.2.4,Linux x86_64,60.03842459,59e675a6c0d35a00012951ce,64d2fd46c836a06233681665,64dc7de45038957636d3ce13,,,,,,,decisionTrl,resources/DB.BMP,resources/DBN.BMP,Door1,0.314720233,-0.009689689,1,0,0,0.9201,optionRight,30,15480,7,24,0,24,0,1,,,,,,,,,,,,,,,,,,,,,,,,,,,,,,,,,,,,,,,
,,,,,,,,2023-08-16_08h44.44.863,HF_wild_card,2022.2.4,Linux x86_64,60.03842459,59e675a6c0d35a00012951ce,64d2fd46c836a06233681665,64dc7de45038957636d3ce13,,,,,,,decisionTrl,resources/DP.BMP,resources/DY.BMP,Door3,-0.357489069,-0.040957451,1,0,0,0.9138,optionLeft,70,15550,7,25,0,25,0,1,,,,,,,,,,,,,,,,,,,,,,,,,,,,,,,,,,,,,,,
,,,,,,,,2023-08-16_08h44.44.863,HF_wild_card,2022.2.4,Linux x86_64,60.03842459,59e675a6c0d35a00012951ce,64d2fd46c836a06233681665,64dc7de45038957636d3ce13,,,,,,,ctch,resources/DB.BMP,resources/DP.BMP,Door3,0.339846452,-0.023013075,1,0,0,1.1278,optionRight,70,15620,7,26,0,26,0,1,,,,,,,,,,,,,,,,,,,,,,,,,,,,,,,,,,,,,,,
,,,,,,,,2023-08-16_08h44.44.863,HF_wild_card,2022.2.4,Linux x86_64,60.03842459,59e675a6c0d35a00012951ce,64d2fd46c836a06233681665,64dc7de45038957636d3ce13,,,,,,,ctch,resources/DY.BMP,resources/DBN.BMP,Door1,0.405790647,-0.028182387,1,0,0,0.9448,optionRight,30,15650,7,27,0,27,0,1,,,,,,,,,,,,,,,,,,,,,,,,,,,,,,,,,,,,,,,
,,,,,,,,2023-08-16_08h44.44.863,HF_wild_card,2022.2.4,Linux x86_64,60.03842459,59e675a6c0d35a00012951ce,64d2fd46c836a06233681665,64dc7de45038957636d3ce13,,,,,,,ctch,resources/DB.BMP,resources/DP.BMP,Door3,0.341458082,0.016007384,1,0,0,0.8285,optionRight,70,15720,7,28,0,28,0,1,,,,,,,,,,,,,,,,,,,,,,,,,,,,,,,,,,,,,,,
,,,,,,,,2023-08-16_08h44.44.863,HF_wild_card,2022.2.4,Linux x86_64,60.03842459,59e675a6c0d35a00012951ce,64d2fd46c836a06233681665,64dc7de45038957636d3ce13,,,,,,,decisionTrl,resources/DB.BMP,resources/DBN.BMP,Door1,0.41263779,0.030311227,1,0,0,0.8959,optionRight,30,15750,7,29,0,29,0,1,,,,,,,,,,,,,,,,,,,,,,,,,,,,,,,,,,,,,,,
,,,,,,,,2023-08-16_08h44.44.863,HF_wild_card,2022.2.4,Linux x86_64,60.03842459,59e675a6c0d35a00012951ce,64d2fd46c836a06233681665,64dc7de45038957636d3ce13,,,,,,,decisionTrl,resources/DY.BMP,resources/DP.BMP,Door3,0.268011252,-0.074350278,1,0,0,1.5552,optionRight,70,15820,7,30,0,30,0,1,,,,,,,,,,,,,,,,,,,,,,,,,,,,,,,,,,,,,,,
,,,,,,,,2023-08-16_08h44.44.863,HF_wild_card,2022.2.4,Linux x86_64,60.03842459,59e675a6c0d35a00012951ce,64d2fd46c836a06233681665,64dc7de45038957636d3ce13,,,,,,,decisionTrl,resources/DBN.BMP,resources/DB.BMP,Door1,-0.368890921,-0.009668827,1,0,0,1.1099,optionLeft,30,15850,7,31,0,31,0,1,,,,,,,,,,,,,,,,,,,,,,,,,,,,,,,,,,,,,,,
,,,,,,,,2023-08-16_08h44.44.863,HF_wild_card,2022.2.4,Linux x86_64,60.03842459,59e675a6c0d35a00012951ce,64d2fd46c836a06233681665,64dc7de45038957636d3ce13,,,,,,,decisionTrl,resources/DY.BMP,resources/DP.BMP,Door3,0.2950236,-0.091959238,1,0,0,1.4163,optionRight,70,15920,7,32,0,32,0,1,,,,,,,,,,,,,,,,,,,,,,,,,,,,,,,,,,,,,,,
,,,,,,,,2023-08-16_08h44.44.863,HF_wild_card,2022.2.4,Linux x86_64,60.03842459,59e675a6c0d35a00012951ce,64d2fd46c836a06233681665,64dc7de45038957636d3ce13,,,,,,,decisionTrl,resources/DB.BMP,resources/DBN.BMP,Door1,0.246029218,-0.023274978,1,0,0,1.4956,optionRight,30,15950,7,33,0,33,0,1,,,,,,,,,,,,,,,,,,,,,,,,,,,,,,,,,,,,,,,
,,,,,,,,2023-08-16_08h44.44.863,HF_wild_card,2022.2.4,Linux x86_64,60.03842459,59e675a6c0d35a00012951ce,64d2fd46c836a06233681665,64dc7de45038957636d3ce13,,,,,,,decisionTrl,resources/DP.BMP,resources/DY.BMP,Door3,-0.300003052,-0.020982663,1,0,0,1.0789,optionLeft,70,16020,7,34,0,34,0,1,,,,,,,,,,,,,,,,,,,,,,,,,,,,,,,,,,,,,,,
,,,,,,,,2023-08-16_08h44.44.863,HF_wild_card,2022.2.4,Linux x86_64,60.03842459,59e675a6c0d35a00012951ce,64d2fd46c836a06233681665,64dc7de45038957636d3ce13,,,,,,,decisionTrl,resources/DY.BMP,resources/DP.BMP,Door3,0.278949102,-0.048605323,1,0,0,1.3723,optionRight,70,16090,7,35,0,35,0,1,,,,,,,,,,,,,,,,,,,,,,,,,,,,,,,,,,,,,,,
