Condition,Low fixed image (Door1),Low risky image (Door2),High fixed image (Door3),High risky image (Door4),NonExtreme Wild Card 1,NonExtreme Wild Card 2,,date,expName,psychopyVersion,OS,frameRate,PROLIFIC_PID,STUDY_ID,SESSION_ID,mouse_2.x,mouse_2.y,mouse_2.leftButton,mouse_2.midButton,mouse_2.rightButton,mouse_2.clicked_name,Trial Type,Left Option Image,Right Option Image,Chosen Door,mouse.x,mouse.y,mouse.leftButton,mouse.midButton,mouse.rightButton,mouse.time,mouse.clicked_name,Feedback,Cumulative Reward,Block,trial.thisRepN,trial.thisTrialN,trial.thisN,trial.thisIndex,trial.ran,blocks.thisRepN,blocks.thisTrialN,blocks.thisN,blocks.thisIndex,blocks.ran,Money conversion,First Outcome Reported,Shown Door (First Outcome),Displayed Image (First Outcome),outcomes.thisRepN,outcomes.thisTrialN,outcomes.thisN,outcomes.thisIndex,outcomes.ran,judgments.thisRepN,judgments.thisTrialN,judgments.thisN,judgments.thisIndex,judgments.ran,freqMouse.x,freqMouse.y,freqMouse.leftButton,freqMouse.midButton,freqMouse.rightButton,freqMouse.clicked_name,FQJ for first outcome,FQJ for second outcome,Shown Door,Displayed Image,trials.thisRepN,trials.thisTrialN,trials.thisN,trials.thisIndex,trials.ran,judgBlock.thisRepN,judgBlock.thisTrialN,judgBlock.thisN,judgBlock.thisIndex,judgBlock.ran
2,resources/DBN.BMP,resources/DB.BMP,resources/DG.BMP,resources/DY.BMP,resources/DR.BMP,resources/DP.BMP,,2023-08-16_08h47.40.701,HF_wild_card,2022.2.4,MacIntel,5.454436366,5fcfb1fe79b8060e0662270a,64d2fd46c836a06233681665,64dc7dd5fcf2642c89e295ca,,,,,,,,,,,,,,,,,,,,,,,,,,,,,,,,,,,,,,,,,,,,,,,,,,,,,,,,,,,,,,,,
,,,,,,,,2023-08-16_08h47.40.701,HF_wild_card,2022.2.4,MacIntel,5.454436366,5fcfb1fe79b8060e0662270a,64d2fd46c836a06233681665,64dc7dd5fcf2642c89e295ca,0.005494792,-0.422109375,1,0,0,agree,,,,,,,,,,,,,,,,,,,,,,,,,,,,,,,,,,,,,,,,,,,,,,,,,,,,,,,,,,
,,,,,,,,2023-08-16_08h47.40.701,HF_wild_card,2022.2.4,MacIntel,5.454436366,5fcfb1fe79b8060e0662270a,64d2fd46c836a06233681665,64dc7dd5fcf2642c89e295ca,,,,,,,,,,,,,,,,,,,,,,,,,,,,,,,,,,,,,,,,,,,,,,,,,,,,,,,,,,,,,,,,
,,,,,,,,2023-08-16_08h47.40.701,HF_wild_card,2022.2.4,MacIntel,5.454436366,5fcfb1fe79b8060e0662270a,64d2fd46c836a06233681665,64dc7dd5fcf2642c89e295ca,,,,,,,decisionTrl,resources/DP.BMP,resources/DBN.BMP,WildCard_NonEx,-0.29015191,-0.079618056,1,0,0,6.5128,optionLeft,55,55,1,0,0,0,0,1,,,,,,,,,,,,,,,,,,,,,,,,,,,,,,,,,,,,,,,
,,,,,,,,2023-08-16_08h47.40.701,HF_wild_card,2022.2.4,MacIntel,5.454436366,5fcfb1fe79b8060e0662270a,64d2fd46c836a06233681665,64dc7dd5fcf2642c89e295ca,,,,,,,decisionTrl,resources/DY.BMP,resources/DG.BMP,Door4,-0.427209201,-0.06359809,1,0,0,10.7879,optionLeft,60,115,1,1,0,1,0,1,,,,,,,,,,,,,,,,,,,,,,,,,,,,,,,,,,,,,,,
,,,,,,,,2023-08-16_08h47.40.701,HF_wild_card,2022.2.4,MacIntel,5.454436366,5fcfb1fe79b8060e0662270a,64d2fd46c836a06233681665,64dc7dd5fcf2642c89e295ca,,,,,,,decisionTrl,resources/DBN.BMP,resources/DB.BMP,Door1,-0.447951389,-0.030572917,1,0,0,3.0663,optionLeft,30,145,1,2,0,2,0,1,,,,,,,,,,,,,,,,,,,,,,,,,,,,,,,,,,,,,,,
,,,,,,,,2023-08-16_08h47.40.701,HF_wild_card,2022.2.4,MacIntel,5.454436366,5fcfb1fe79b8060e0662270a,64d2fd46c836a06233681665,64dc7dd5fcf2642c89e295ca,,,,,,,ctch,resources/DB.BMP,resources/DG.BMP,Door2,-0.412287326,-0.02421875,1,0,0,4.7439,optionLeft,40,185,1,3,0,3,0,1,,,,,,,,,,,,,,,,,,,,,,,,,,,,,,,,,,,,,,,
,,,,,,,,2023-08-16_08h47.40.701,HF_wild_card,2022.2.4,MacIntel,5.454436366,5fcfb1fe79b8060e0662270a,64d2fd46c836a06233681665,64dc7dd5fcf2642c89e295ca,,,,,,,decisionTrl,resources/DP.BMP,resources/DG.BMP,WildCard_NonEx,-0.394101563,-0.065182292,1,0,0,1.911,optionLeft,55,240,1,4,0,4,0,1,,,,,,,,,,,,,,,,,,,,,,,,,,,,,,,,,,,,,,,
,,,,,,,,2023-08-16_08h47.40.701,HF_wild_card,2022.2.4,MacIntel,5.454436366,5fcfb1fe79b8060e0662270a,64d2fd46c836a06233681665,64dc7dd5fcf2642c89e295ca,,,,,,,decisionTrl,resources/DB.BMP,resources/DBN.BMP,Door2,-0.407287326,-0.061701389,1,0,0,1.9258,optionLeft,40,280,1,5,0,5,0,1,,,,,,,,,,,,,,,,,,,,,,,,,,,,,,,,,,,,,,,
,,,,,,,,2023-08-16_08h47.40.701,HF_wild_card,2022.2.4,MacIntel,5.454436366,5fcfb1fe79b8060e0662270a,64d2fd46c836a06233681665,64dc7dd5fcf2642c89e295ca,,,,,,,sngl,resources/Empty.png,resources/DG.BMP,Door3,0.381462674,-0.034244792,1,0,0,43.4556,optionRight,70,350,1,6,0,6,0,1,,,,,,,,,,,,,,,,,,,,,,,,,,,,,,,,,,,,,,,
,,,,,,,,2023-08-16_08h47.40.701,HF_wild_card,2022.2.4,MacIntel,5.454436366,5fcfb1fe79b8060e0662270a,64d2fd46c836a06233681665,64dc7dd5fcf2642c89e295ca,,,,,,,decisionTrl,resources/DP.BMP,resources/DB.BMP,Door2,0.391332465,-0.038641493,1,0,0,4.9668,optionRight,40,390,1,7,0,7,0,1,,,,,,,,,,,,,,,,,,,,,,,,,,,,,,,,,,,,,,,
,,,,,,,,2023-08-16_08h47.40.701,HF_wild_card,2022.2.4,MacIntel,5.454436366,5fcfb1fe79b8060e0662270a,64d2fd46c836a06233681665,64dc7dd5fcf2642c89e295ca,,,,,,,sngl,resources/Empty.png,resources/DP.BMP,WildCard_NonEx,0.327994792,0.02687066,1,0,0,4.7683,optionRight,55,445,1,8,0,8,0,1,,,,,,,,,,,,,,,,,,,,,,,,,,,,,,,,,,,,,,,
,,,,,,,,2023-08-16_08h47.40.701,HF_wild_card,2022.2.4,MacIntel,5.454436366,5fcfb1fe79b8060e0662270a,64d2fd46c836a06233681665,64dc7dd5fcf2642c89e295ca,,,,,,,sngl,resources/Empty.png,resources/DP.BMP,WildCard_NonEx,0.364144965,-0.050577257,1,0,0,1.9405,optionRight,45,490,1,9,0,9,0,1,,,,,,,,,,,,,,,,,,,,,,,,,,,,,,,,,,,,,,,
,,,,,,,,2023-08-16_08h47.40.701,HF_wild_card,2022.2.4,MacIntel,5.454436366,5fcfb1fe79b8060e0662270a,64d2fd46c836a06233681665,64dc7dd5fcf2642c89e295ca,,,,,,,decisionTrl,resources/DG.BMP,resources/DY.BMP,Door4,0.40515625,-0.029622396,1,0,0,4.1669,optionRight,60,550,1,10,0,10,0,1,,,,,,,,,,,,,,,,,,,,,,,,,,,,,,,,,,,,,,,
,,,,,,,,2023-08-16_08h47.40.701,HF_wild_card,2022.2.4,MacIntel,5.454436366,5fcfb1fe79b8060e0662270a,64d2fd46c836a06233681665,64dc7dd5fcf2642c89e295ca,,,,,,,sngl,resources/DY.BMP,resources/Empty.png,Door4,-0.386553819,-0.044492188,1,0,0,1.9441,optionLeft,80,630,1,11,0,11,0,1,,,,,,,,,,,,,,,,,,,,,,,,,,,,,,,,,,,,,,,
,,,,,,,,2023-08-16_08h47.40.701,HF_wild_card,2022.2.4,MacIntel,5.454436366,5fcfb1fe79b8060e0662270a,64d2fd46c836a06233681665,64dc7dd5fcf2642c89e295ca,,,,,,,decisionTrl,resources/DY.BMP,resources/DG.BMP,Door4,-0.390789931,-0.049227431,1,0,0,12.589,optionLeft,80,710,1,12,0,12,0,1,,,,,,,,,,,,,,,,,,,,,,,,,,,,,,,,,,,,,,,
,,,,,,,,2023-08-16_08h47.40.701,HF_wild_card,2022.2.4,MacIntel,5.454436366,5fcfb1fe79b8060e0662270a,64d2fd46c836a06233681665,64dc7dd5fcf2642c89e295ca,,,,,,,sngl,resources/DG.BMP,resources/Empty.png,Door3,-0.388059896,-0.029153646,1,0,0,12.1749,optionLeft,70,780,1,13,0,13,0,1,,,,,,,,,,,,,,,,,,,,,,,,,,,,,,,,,,,,,,,
,,,,,,,,2023-08-16_08h47.40.701,HF_wild_card,2022.2.4,MacIntel,5.454436366,5fcfb1fe79b8060e0662270a,64d2fd46c836a06233681665,64dc7dd5fcf2642c89e295ca,,,,,,,decisionTrl,resources/DY.BMP,resources/DG.BMP,Door3,0.418875868,-0.03155816,1,0,0,4.8868,optionRight,70,850,1,14,0,14,0,1,,,,,,,,,,,,,,,,,,,,,,,,,,,,,,,,,,,,,,,
,,,,,,,,2023-08-16_08h47.40.701,HF_wild_card,2022.2.4,MacIntel,5.454436366,5fcfb1fe79b8060e0662270a,64d2fd46c836a06233681665,64dc7dd5fcf2642c89e295ca,,,,,,,decisionTrl,resources/DY.BMP,resources/DG.BMP,Door4,-0.39516059,-0.041189236,1,0,0,4.1973,optionLeft,80,930,1,15,0,15,0,1,,,,,,,,,,,,,,,,,,,,,,,,,,,,,,,,,,,,,,,
,,,,,,,,2023-08-16_08h47.40.701,HF_wild_card,2022.2.4,MacIntel,5.454436366,5fcfb1fe79b8060e0662270a,64d2fd46c836a06233681665,64dc7dd5fcf2642c89e295ca,,,,,,,decisionTrl,resources/DP.BMP,resources/DY.BMP,Door4,0.414596354,-0.044631076,1,0,0,2.4227,optionRight,80,1010,1,16,0,16,0,1,,,,,,,,,,,,,,,,,,,,,,,,,,,,,,,,,,,,,,,
,,,,,,,,2023-08-16_08h47.40.701,HF_wild_card,2022.2.4,MacIntel,5.454436366,5fcfb1fe79b8060e0662270a,64d2fd46c836a06233681665,64dc7dd5fcf2642c89e295ca,,,,,,,sngl,resources/Empty.png,resources/DBN.BMP,Door1,0.412743056,-0.013177083,1,0,0,14.849,optionRight,30,1040,1,17,0,17,0,1,,,,,,,,,,,,,,,,,,,,,,,,,,,,,,,,,,,,,,,
,,,,,,,,2023-08-16_08h47.40.701,HF_wild_card,2022.2.4,MacIntel,5.454436366,5fcfb1fe79b8060e0662270a,64d2fd46c836a06233681665,64dc7dd5fcf2642c89e295ca,,,,,,,sngl,resources/DB.BMP,resources/Empty.png,Door2,-0.407400174,-0.041475694,1,0,0,2.7585,optionLeft,40,1080,1,18,0,18,0,1,,,,,,,,,,,,,,,,,,,,,,,,,,,,,,,,,,,,,,,
,,,,,,,,2023-08-16_08h47.40.701,HF_wild_card,2022.2.4,MacIntel,5.454436366,5fcfb1fe79b8060e0662270a,64d2fd46c836a06233681665,64dc7dd5fcf2642c89e295ca,,,,,,,decisionTrl,resources/DG.BMP,resources/DY.BMP,Door4,0.412235243,-0.042365451,1,0,0,2.4916,optionRight,80,1160,1,19,0,19,0,1,,,,,,,,,,,,,,,,,,,,,,,,,,,,,,,,,,,,,,,
,,,,,,,,2023-08-16_08h47.40.701,HF_wild_card,2022.2.4,MacIntel,5.454436366,5fcfb1fe79b8060e0662270a,64d2fd46c836a06233681665,64dc7dd5fcf2642c89e295ca,,,,,,,sngl,resources/Empty.png,resources/DY.BMP,Door4,0.40468316,-0.041883681,1,0,0,12.9025,optionRight,60,1220,1,20,0,20,0,1,,,,,,,,,,,,,,,,,,,,,,,,,,,,,,,,,,,,,,,
,,,,,,,,2023-08-16_08h47.40.701,HF_wild_card,2022.2.4,MacIntel,5.454436366,5fcfb1fe79b8060e0662270a,64d2fd46c836a06233681665,64dc7dd5fcf2642c89e295ca,,,,,,,decisionTrl,resources/DBN.BMP,resources/DB.BMP,Door2,0.392820854,-0.040389044,1,0,0,4.9593,optionRight,20,1240,1,21,0,21,0,1,,,,,,,,,,,,,,,,,,,,,,,,,,,,,,,,,,,,,,,
,,,,,,,,2023-08-16_08h47.40.701,HF_wild_card,2022.2.4,MacIntel,5.454436366,5fcfb1fe79b8060e0662270a,64d2fd46c836a06233681665,64dc7dd5fcf2642c89e295ca,,,,,,,decisionTrl,resources/DG.BMP,resources/DY.BMP,Door4,0.394666727,-0.043036488,1,0,0,2.0286,optionRight,80,1320,1,22,0,22,0,1,,,,,,,,,,,,,,,,,,,,,,,,,,,,,,,,,,,,,,,
,,,,,,,,2023-08-16_08h47.40.701,HF_wild_card,2022.2.4,MacIntel,5.454436366,5fcfb1fe79b8060e0662270a,64d2fd46c836a06233681665,64dc7dd5fcf2642c89e295ca,,,,,,,decisionTrl,resources/DG.BMP,resources/DP.BMP,Door3,-0.391573338,-0.041986543,1,0,0,2.447,optionLeft,70,1390,1,23,0,23,0,1,,,,,,,,,,,,,,,,,,,,,,,,,,,,,,,,,,,,,,,
,,,,,,,,2023-08-16_08h47.40.701,HF_wild_card,2022.2.4,MacIntel,5.454436366,5fcfb1fe79b8060e0662270a,64d2fd46c836a06233681665,64dc7dd5fcf2642c89e295ca,,,,,,,sngl,resources/Empty.png,resources/DB.BMP,Door2,0.381717395,-0.040411624,1,0,0,2.0305,optionRight,20,1410,1,24,0,24,0,1,,,,,,,,,,,,,,,,,,,,,,,,,,,,,,,,,,,,,,,
,,,,,,,,2023-08-16_08h47.40.701,HF_wild_card,2022.2.4,MacIntel,5.454436366,5fcfb1fe79b8060e0662270a,64d2fd46c836a06233681665,64dc7dd5fcf2642c89e295ca,,,,,,,ctch,resources/DY.BMP,resources/DBN.BMP,Door4,-0.386137328,-0.04187929,1,0,0,1.8101,optionLeft,80,1490,1,25,0,25,0,1,,,,,,,,,,,,,,,,,,,,,,,,,,,,,,,,,,,,,,,
,,,,,,,,2023-08-16_08h47.40.701,HF_wild_card,2022.2.4,MacIntel,5.454436366,5fcfb1fe79b8060e0662270a,64d2fd46c836a06233681665,64dc7dd5fcf2642c89e295ca,,,,,,,decisionTrl,resources/DB.BMP,resources/DP.BMP,Door2,-0.41060784,-0.021241646,1,0,0,2.4494,optionLeft,40,1530,1,26,0,26,0,1,,,,,,,,,,,,,,,,,,,,,,,,,,,,,,,,,,,,,,,
,,,,,,,,2023-08-16_08h47.40.701,HF_wild_card,2022.2.4,MacIntel,5.454436366,5fcfb1fe79b8060e0662270a,64d2fd46c836a06233681665,64dc7dd5fcf2642c89e295ca,,,,,,,ctch,resources/DB.BMP,resources/DG.BMP,Door3,0.411398121,-0.045209763,1,0,0,3.3375,optionRight,70,1600,1,27,0,27,0,1,,,,,,,,,,,,,,,,,,,,,,,,,,,,,,,,,,,,,,,
,,,,,,,,2023-08-16_08h47.40.701,HF_wild_card,2022.2.4,MacIntel,5.454436366,5fcfb1fe79b8060e0662270a,64d2fd46c836a06233681665,64dc7dd5fcf2642c89e295ca,,,,,,,ctch,resources/DY.BMP,resources/DBN.BMP,Door4,-0.38843479,-0.038464144,1,0,0,2.0073,optionLeft,80,1680,1,28,0,28,0,1,,,,,,,,,,,,,,,,,,,,,,,,,,,,,,,,,,,,,,,
,,,,,,,,2023-08-16_08h47.40.701,HF_wild_card,2022.2.4,MacIntel,5.454436366,5fcfb1fe79b8060e0662270a,64d2fd46c836a06233681665,64dc7dd5fcf2642c89e295ca,,,,,,,decisionTrl,resources/DBN.BMP,resources/DP.BMP,WildCard_NonEx,0.399786624,-0.04905392,1,0,0,3.7277,optionRight,55,1735,1,29,0,29,0,1,,,,,,,,,,,,,,,,,,,,,,,,,,,,,,,,,,,,,,,
,,,,,,,,2023-08-16_08h47.40.701,HF_wild_card,2022.2.4,MacIntel,5.454436366,5fcfb1fe79b8060e0662270a,64d2fd46c836a06233681665,64dc7dd5fcf2642c89e295ca,,,,,,,decisionTrl,resources/DBN.BMP,resources/DB.BMP,Door2,0.380018289,-0.008551978,1,0,0,2.5052,optionRight,20,1755,1,30,0,30,0,1,,,,,,,,,,,,,,,,,,,,,,,,,,,,,,,,,,,,,,,
,,,,,,,,2023-08-16_08h47.40.701,HF_wild_card,2022.2.4,MacIntel,5.454436366,5fcfb1fe79b8060e0662270a,64d2fd46c836a06233681665,64dc7dd5fcf2642c89e295ca,,,,,,,sngl,resources/DBN.BMP,resources/Empty.png,Door1,-0.412284366,-0.002963557,1,0,0,28.1114,optionLeft,30,1785,1,31,0,31,0,1,,,,,,,,,,,,,,,,,,,,,,,,,,,,,,,,,,,,,,,
,,,,,,,,2023-08-16_08h47.40.701,HF_wild_card,2022.2.4,MacIntel,5.454436366,5fcfb1fe79b8060e0662270a,64d2fd46c836a06233681665,64dc7dd5fcf2642c89e295ca,,,,,,,ctch,resources/DG.BMP,resources/DB.BMP,Door3,-0.383772128,-0.031656431,1,0,0,2.4881,optionLeft,70,1855,1,32,0,32,0,1,,,,,,,,,,,,,,,,,,,,,,,,,,,,,,,,,,,,,,,
,,,,,,,,2023-08-16_08h47.40.701,HF_wild_card,2022.2.4,MacIntel,5.454436366,5fcfb1fe79b8060e0662270a,64d2fd46c836a06233681665,64dc7dd5fcf2642c89e295ca,,,,,,,sngl,resources/DP.BMP,resources/Empty.png,WildCard_NonEx,-0.393961118,-0.052581964,1,0,0,1.8541,optionLeft,55,1910,1,33,0,33,0,1,,,,,,,,,,,,,,,,,,,,,,,,,,,,,,,,,,,,,,,
,,,,,,,,2023-08-16_08h47.40.701,HF_wild_card,2022.2.4,MacIntel,5.454436366,5fcfb1fe79b8060e0662270a,64d2fd46c836a06233681665,64dc7dd5fcf2642c89e295ca,,,,,,,decisionTrl,resources/DBN.BMP,resources/DB.BMP,Door1,-0.398431855,0.042144599,1,0,0,8.3988,optionLeft,30,1940,1,34,0,34,0,1,,,,,,,,,,,,,,,,,,,,,,,,,,,,,,,,,,,,,,,
,,,,,,,,2023-08-16_08h47.40.701,HF_wild_card,2022.2.4,MacIntel,5.454436366,5fcfb1fe79b8060e0662270a,64d2fd46c836a06233681665,64dc7dd5fcf2642c89e295ca,,,,,,,ctch,resources/DG.BMP,resources/DB.BMP,Door3,-0.375891889,-0.030894373,1,0,0,2.4638,optionLeft,70,2010,1,35,0,35,0,1,,,,,,,,,,,,,,,,,,,,,,,,,,,,,,,,,,,,,,,
,,,,,,,,2023-08-16_08h47.40.701,HF_wild_card,2022.2.4,MacIntel,5.454436366,5fcfb1fe79b8060e0662270a,64d2fd46c836a06233681665,64dc7dd5fcf2642c89e295ca,,,,,,,decisionTrl,resources/DB.BMP,resources/DBN.BMP,Door2,-0.4099361,-0.017724892,1,0,0,5.696,optionLeft,20,2030,1,36,0,36,0,1,,,,,,,,,,,,,,,,,,,,,,,,,,,,,,,,,,,,,,,
,,,,,,,,2023-08-16_08h47.40.701,HF_wild_card,2022.2.4,MacIntel,5.454436366,5fcfb1fe79b8060e0662270a,64d2fd46c836a06233681665,64dc7dd5fcf2642c89e295ca,,,,,,,decisionTrl,resources/DG.BMP,resources/DY.BMP,Door4,0.410286082,-0.040202764,1,0,0,2.4613,optionRight,60,2090,1,37,0,37,0,1,,,,,,,,,,,,,,,,,,,,,,,,,,,,,,,,,,,,,,,
,,,,,,,,2023-08-16_08h47.40.701,HF_wild_card,2022.2.4,MacIntel,5.454436366,5fcfb1fe79b8060e0662270a,64d2fd46c836a06233681665,64dc7dd5fcf2642c89e295ca,,,,,,,decisionTrl,resources/DY.BMP,resources/DP.BMP,Door4,-0.40430252,-0.019130464,1,0,0,1.7874,optionLeft,60,2150,1,38,0,38,0,1,,,,,,,,,,,,,,,,,,,,,,,,,,,,,,,,,,,,,,,
,,,,,,,,2023-08-16_08h47.40.701,HF_wild_card,2022.2.4,MacIntel,5.454436366,5fcfb1fe79b8060e0662270a,64d2fd46c836a06233681665,64dc7dd5fcf2642c89e295ca,,,,,,,ctch,resources/DBN.BMP,resources/DY.BMP,Door4,0.044554958,0.006999639,1,0,0,0.8772,optionRight,80,2230,1,39,0,39,0,1,,,,,,,,,,,,,,,,,,,,,,,,,,,,,,,,,,,,,,,
,,,,,,,,2023-08-16_08h47.40.701,HF_wild_card,2022.2.4,MacIntel,5.454436366,5fcfb1fe79b8060e0662270a,64d2fd46c836a06233681665,64dc7dd5fcf2642c89e295ca,,,,,,,sngl,resources/DP.BMP,resources/Empty.png,WildCard_NonEx,-0.397737536,-0.072203531,1,0,0,7.6393,optionLeft,45,2275,1,40,0,40,0,1,,,,,,,,,,,,,,,,,,,,,,,,,,,,,,,,,,,,,,,
,,,,,,,,2023-08-16_08h47.40.701,HF_wild_card,2022.2.4,MacIntel,5.454436366,5fcfb1fe79b8060e0662270a,64d2fd46c836a06233681665,64dc7dd5fcf2642c89e295ca,,,,,,,decisionTrl,resources/DB.BMP,resources/DBN.BMP,Door2,-0.399933391,-0.075550939,1,0,0,1.7779,optionLeft,40,2315,1,41,0,41,0,1,,,,,,,,,,,,,,,,,,,,,,,,,,,,,,,,,,,,,,,
,,,,,,,,2023-08-16_08h47.40.701,HF_wild_card,2022.2.4,MacIntel,5.454436366,5fcfb1fe79b8060e0662270a,64d2fd46c836a06233681665,64dc7dd5fcf2642c89e295ca,,,,,,,ctch,resources/DBN.BMP,resources/DY.BMP,Door4,0.409049855,-0.092304913,1,0,0,1.7877,optionRight,60,2375,1,42,0,42,0,1,,,,,,,,,,,,,,,,,,,,,,,,,,,,,,,,,,,,,,,
,,,,,,,,2023-08-16_08h47.40.701,HF_wild_card,2022.2.4,MacIntel,5.454436366,5fcfb1fe79b8060e0662270a,64d2fd46c836a06233681665,64dc7dd5fcf2642c89e295ca,,,,,,,decisionTrl,resources/DB.BMP,resources/DBN.BMP,Door2,-0.412019057,-0.072643831,1,0,0,1.8181,optionLeft,20,2395,1,43,0,43,0,1,,,,,,,,,,,,,,,,,,,,,,,,,,,,,,,,,,,,,,,
,,,,,,,,2023-08-16_08h47.40.701,HF_wild_card,2022.2.4,MacIntel,5.454436366,5fcfb1fe79b8060e0662270a,64d2fd46c836a06233681665,64dc7dd5fcf2642c89e295ca,,,,,,,,,,,,,,,,,,,,,,,,,,0,0,0,0,1,,,,,,,,,,,,,,,,,,,,,,,,,,,,,,,,,,
,,,,,,,,2023-08-16_08h47.40.701,HF_wild_card,2022.2.4,MacIntel,5.454436366,5fcfb1fe79b8060e0662270a,64d2fd46c836a06233681665,64dc7dd5fcf2642c89e295ca,,,,,,,decisionTrl,resources/DB.BMP,resources/DBN.BMP,Door2,-0.416472859,-0.090097769,1,0,0,2.0231,optionLeft,20,2415,2,0,0,0,0,1,,,,,,,,,,,,,,,,,,,,,,,,,,,,,,,,,,,,,,,
,,,,,,,,2023-08-16_08h47.40.701,HF_wild_card,2022.2.4,MacIntel,5.454436366,5fcfb1fe79b8060e0662270a,64d2fd46c836a06233681665,64dc7dd5fcf2642c89e295ca,,,,,,,decisionTrl,resources/DY.BMP,resources/DP.BMP,Door4,-0.393678875,-0.038701228,1,0,0,4.6606,optionLeft,80,2495,2,1,0,1,0,1,,,,,,,,,,,,,,,,,,,,,,,,,,,,,,,,,,,,,,,
,,,,,,,,2023-08-16_08h47.40.701,HF_wild_card,2022.2.4,MacIntel,5.454436366,5fcfb1fe79b8060e0662270a,64d2fd46c836a06233681665,64dc7dd5fcf2642c89e295ca,,,,,,,sngl,resources/DB.BMP,resources/Empty.png,Door2,-0.405606485,-0.06814487,1,0,0,1.6218,optionLeft,20,2515,2,2,0,2,0,1,,,,,,,,,,,,,,,,,,,,,,,,,,,,,,,,,,,,,,,
,,,,,,,,2023-08-16_08h47.40.701,HF_wild_card,2022.2.4,MacIntel,5.454436366,5fcfb1fe79b8060e0662270a,64d2fd46c836a06233681665,64dc7dd5fcf2642c89e295ca,,,,,,,sngl,resources/DG.BMP,resources/Empty.png,Door3,-0.388581557,-0.015399205,1,0,0,1.8434,optionLeft,70,2585,2,3,0,3,0,1,,,,,,,,,,,,,,,,,,,,,,,,,,,,,,,,,,,,,,,
,,,,,,,,2023-08-16_08h47.40.701,HF_wild_card,2022.2.4,MacIntel,5.454436366,5fcfb1fe79b8060e0662270a,64d2fd46c836a06233681665,64dc7dd5fcf2642c89e295ca,,,,,,,decisionTrl,resources/DBN.BMP,resources/DB.BMP,Door2,0.397229498,-0.020282018,1,0,0,1.7965,optionRight,20,2605,2,4,0,4,0,1,,,,,,,,,,,,,,,,,,,,,,,,,,,,,,,,,,,,,,,
,,,,,,,,2023-08-16_08h47.40.701,HF_wild_card,2022.2.4,MacIntel,5.454436366,5fcfb1fe79b8060e0662270a,64d2fd46c836a06233681665,64dc7dd5fcf2642c89e295ca,,,,,,,decisionTrl,resources/DB.BMP,resources/DBN.BMP,Door1,0.396190842,0.005582776,1,0,0,5.3477,optionRight,30,2635,2,5,0,5,0,1,,,,,,,,,,,,,,,,,,,,,,,,,,,,,,,,,,,,,,,
,,,,,,,,2023-08-16_08h47.40.701,HF_wild_card,2022.2.4,MacIntel,5.454436366,5fcfb1fe79b8060e0662270a,64d2fd46c836a06233681665,64dc7dd5fcf2642c89e295ca,,,,,,,decisionTrl,resources/DP.BMP,resources/DBN.BMP,WildCard_NonEx,-0.391787843,-0.051667495,1,0,0,1.5562,optionLeft,45,2680,2,6,0,6,0,1,,,,,,,,,,,,,,,,,,,,,,,,,,,,,,,,,,,,,,,
,,,,,,,,2023-08-16_08h47.40.701,HF_wild_card,2022.2.4,MacIntel,5.454436366,5fcfb1fe79b8060e0662270a,64d2fd46c836a06233681665,64dc7dd5fcf2642c89e295ca,,,,,,,decisionTrl,resources/DB.BMP,resources/DBN.BMP,Door1,0.408936958,-0.006982704,1,0,0,2.9346,optionRight,30,2710,2,7,0,7,0,1,,,,,,,,,,,,,,,,,,,,,,,,,,,,,,,,,,,,,,,
,,,,,,,,2023-08-16_08h47.40.701,HF_wild_card,2022.2.4,MacIntel,5.454436366,5fcfb1fe79b8060e0662270a,64d2fd46c836a06233681665,64dc7dd5fcf2642c89e295ca,,,,,,,decisionTrl,resources/DG.BMP,resources/DY.BMP,Door4,0.412713376,-0.036753748,1,0,0,2.0034,optionRight,80,2790,2,8,0,8,0,1,,,,,,,,,,,,,,,,,,,,,,,,,,,,,,,,,,,,,,,
,,,,,,,,2023-08-16_08h47.40.701,HF_wild_card,2022.2.4,MacIntel,5.454436366,5fcfb1fe79b8060e0662270a,64d2fd46c836a06233681665,64dc7dd5fcf2642c89e295ca,,,,,,,sngl,resources/DY.BMP,resources/Empty.png,Door4,-0.394096595,-0.037668217,1,0,0,3.0381,optionLeft,60,2850,2,9,0,9,0,1,,,,,,,,,,,,,,,,,,,,,,,,,,,,,,,,,,,,,,,
,,,,,,,,2023-08-16_08h47.40.701,HF_wild_card,2022.2.4,MacIntel,5.454436366,5fcfb1fe79b8060e0662270a,64d2fd46c836a06233681665,64dc7dd5fcf2642c89e295ca,,,,,,,sngl,resources/DBN.BMP,resources/Empty.png,Door1,-0.396727104,0.008405211,1,0,0,3.4751,optionLeft,30,2880,2,10,0,10,0,1,,,,,,,,,,,,,,,,,,,,,,,,,,,,,,,,,,,,,,,
,,,,,,,,2023-08-16_08h47.40.701,HF_wild_card,2022.2.4,MacIntel,5.454436366,5fcfb1fe79b8060e0662270a,64d2fd46c836a06233681665,64dc7dd5fcf2642c89e295ca,,,,,,,ctch,resources/DG.BMP,resources/DB.BMP,Door3,-0.369682533,-0.005351337,1,0,0,2.233,optionLeft,70,2950,2,11,0,11,0,1,,,,,,,,,,,,,,,,,,,,,,,,,,,,,,,,,,,,,,,
,,,,,,,,2023-08-16_08h47.40.701,HF_wild_card,2022.2.4,MacIntel,5.454436366,5fcfb1fe79b8060e0662270a,64d2fd46c836a06233681665,64dc7dd5fcf2642c89e295ca,,,,,,,decisionTrl,resources/DY.BMP,resources/DG.BMP,Door4,-0.398804417,-0.064650695,1,0,0,3.5719,optionLeft,60,3010,2,12,0,12,0,1,,,,,,,,,,,,,,,,,,,,,,,,,,,,,,,,,,,,,,,
,,,,,,,,2023-08-16_08h47.40.701,HF_wild_card,2022.2.4,MacIntel,5.454436366,5fcfb1fe79b8060e0662270a,64d2fd46c836a06233681665,64dc7dd5fcf2642c89e295ca,,,,,,,sngl,resources/Empty.png,resources/DB.BMP,Door2,0.390687094,-0.01737491,1,0,0,4.8042,optionRight,40,3050,2,13,0,13,0,1,,,,,,,,,,,,,,,,,,,,,,,,,,,,,,,,,,,,,,,
,,,,,,,,2023-08-16_08h47.40.701,HF_wild_card,2022.2.4,MacIntel,5.454436366,5fcfb1fe79b8060e0662270a,64d2fd46c836a06233681665,64dc7dd5fcf2642c89e295ca,,,,,,,decisionTrl,resources/DG.BMP,resources/DY.BMP,Door4,0.405058932,-0.038306087,1,0,0,2.3553,optionRight,60,3110,2,14,0,14,0,1,,,,,,,,,,,,,,,,,,,,,,,,,,,,,,,,,,,,,,,
,,,,,,,,2023-08-16_08h47.40.701,HF_wild_card,2022.2.4,MacIntel,5.454436366,5fcfb1fe79b8060e0662270a,64d2fd46c836a06233681665,64dc7dd5fcf2642c89e295ca,,,,,,,decisionTrl,resources/DBN.BMP,resources/DP.BMP,WildCard_NonEx,0.003928829,0.002077312,1,0,0,0.9429,optionRight,55,3165,2,15,0,15,0,1,,,,,,,,,,,,,,,,,,,,,,,,,,,,,,,,,,,,,,,
,,,,,,,,2023-08-16_08h47.40.701,HF_wild_card,2022.2.4,MacIntel,5.454436366,5fcfb1fe79b8060e0662270a,64d2fd46c836a06233681665,64dc7dd5fcf2642c89e295ca,,,,,,,sngl,resources/DP.BMP,resources/Empty.png,WildCard_NonEx,-0.39715047,-0.047682216,1,0,0,1.8234,optionLeft,45,3210,2,16,0,16,0,1,,,,,,,,,,,,,,,,,,,,,,,,,,,,,,,,,,,,,,,
,,,,,,,,2023-08-16_08h47.40.701,HF_wild_card,2022.2.4,MacIntel,5.454436366,5fcfb1fe79b8060e0662270a,64d2fd46c836a06233681665,64dc7dd5fcf2642c89e295ca,,,,,,,decisionTrl,resources/DG.BMP,resources/DY.BMP,Door4,0.398454435,-0.02451567,1,0,0,1.7994,optionRight,80,3290,2,17,0,17,0,1,,,,,,,,,,,,,,,,,,,,,,,,,,,,,,,,,,,,,,,
,,,,,,,,2023-08-16_08h47.40.701,HF_wild_card,2022.2.4,MacIntel,5.454436366,5fcfb1fe79b8060e0662270a,64d2fd46c836a06233681665,64dc7dd5fcf2642c89e295ca,,,,,,,decisionTrl,resources/DBN.BMP,resources/DB.BMP,Door1,-0.40405979,0.001857162,1,0,0,2.3156,optionLeft,30,3320,2,18,0,18,0,1,,,,,,,,,,,,,,,,,,,,,,,,,,,,,,,,,,,,,,,
,,,,,,,,2023-08-16_08h47.40.701,HF_wild_card,2022.2.4,MacIntel,5.454436366,5fcfb1fe79b8060e0662270a,64d2fd46c836a06233681665,64dc7dd5fcf2642c89e295ca,,,,,,,decisionTrl,resources/DG.BMP,resources/DP.BMP,Door3,-0.379521541,-0.032644283,1,0,0,2.273,optionLeft,70,3390,2,19,0,19,0,1,,,,,,,,,,,,,,,,,,,,,,,,,,,,,,,,,,,,,,,
,,,,,,,,2023-08-16_08h47.40.701,HF_wild_card,2022.2.4,MacIntel,5.454436366,5fcfb1fe79b8060e0662270a,64d2fd46c836a06233681665,64dc7dd5fcf2642c89e295ca,,,,,,,decisionTrl,resources/DY.BMP,resources/DG.BMP,Door3,0.411228775,-0.038356891,1,0,0,4.2689,optionRight,70,3460,2,20,0,20,0,1,,,,,,,,,,,,,,,,,,,,,,,,,,,,,,,,,,,,,,,
,,,,,,,,2023-08-16_08h47.40.701,HF_wild_card,2022.2.4,MacIntel,5.454436366,5fcfb1fe79b8060e0662270a,64d2fd46c836a06233681665,64dc7dd5fcf2642c89e295ca,,,,,,,sngl,resources/Empty.png,resources/DG.BMP,Door3,0.40365336,-0.039485865,1,0,0,1.8366,optionRight,70,3530,2,21,0,21,0,1,,,,,,,,,,,,,,,,,,,,,,,,,,,,,,,,,,,,,,,
,,,,,,,,2023-08-16_08h47.40.701,HF_wild_card,2022.2.4,MacIntel,5.454436366,5fcfb1fe79b8060e0662270a,64d2fd46c836a06233681665,64dc7dd5fcf2642c89e295ca,,,,,,,decisionTrl,resources/DY.BMP,resources/DG.BMP,Door3,0.404725885,-0.036494084,1,0,0,2.2557,optionRight,70,3600,2,22,0,22,0,1,,,,,,,,,,,,,,,,,,,,,,,,,,,,,,,,,,,,,,,
,,,,,,,,2023-08-16_08h47.40.701,HF_wild_card,2022.2.4,MacIntel,5.454436366,5fcfb1fe79b8060e0662270a,64d2fd46c836a06233681665,64dc7dd5fcf2642c89e295ca,,,,,,,decisionTrl,resources/DP.BMP,resources/DG.BMP,Door3,0.41731959,-0.031408056,1,0,0,1.572,optionRight,70,3670,2,23,0,23,0,1,,,,,,,,,,,,,,,,,,,,,,,,,,,,,,,,,,,,,,,
,,,,,,,,2023-08-16_08h47.40.701,HF_wild_card,2022.2.4,MacIntel,5.454436366,5fcfb1fe79b8060e0662270a,64d2fd46c836a06233681665,64dc7dd5fcf2642c89e295ca,,,,,,,sngl,resources/DP.BMP,resources/Empty.png,WildCard_NonEx,-0.387401779,-0.032034637,1,0,0,2.0887,optionLeft,55,3725,2,24,0,24,0,1,,,,,,,,,,,,,,,,,,,,,,,,,,,,,,,,,,,,,,,
,,,,,,,,2023-08-16_08h47.40.701,HF_wild_card,2022.2.4,MacIntel,5.454436366,5fcfb1fe79b8060e0662270a,64d2fd46c836a06233681665,64dc7dd5fcf2642c89e295ca,,,,,,,ctch,resources/DY.BMP,resources/DBN.BMP,Door4,-0.391974124,-0.024165688,1,0,0,2.4455,optionLeft,60,3785,2,25,0,25,0,1,,,,,,,,,,,,,,,,,,,,,,,,,,,,,,,,,,,,,,,
,,,,,,,,2023-08-16_08h47.40.701,HF_wild_card,2022.2.4,MacIntel,5.454436366,5fcfb1fe79b8060e0662270a,64d2fd46c836a06233681665,64dc7dd5fcf2642c89e295ca,,,,,,,decisionTrl,resources/DBN.BMP,resources/DB.BMP,Door2,0.401976833,-0.026169617,1,0,0,2.2579,optionRight,20,3805,2,26,0,26,0,1,,,,,,,,,,,,,,,,,,,,,,,,,,,,,,,,,,,,,,,
,,,,,,,,2023-08-16_08h47.40.701,HF_wild_card,2022.2.4,MacIntel,5.454436366,5fcfb1fe79b8060e0662270a,64d2fd46c836a06233681665,64dc7dd5fcf2642c89e295ca,,,,,,,sngl,resources/Empty.png,resources/DP.BMP,WildCard_NonEx,0.402479227,-0.071475343,1,0,0,3.0554,optionRight,45,3850,2,27,0,27,0,1,,,,,,,,,,,,,,,,,,,,,,,,,,,,,,,,,,,,,,,
,,,,,,,,2023-08-16_08h47.40.701,HF_wild_card,2022.2.4,MacIntel,5.454436366,5fcfb1fe79b8060e0662270a,64d2fd46c836a06233681665,64dc7dd5fcf2642c89e295ca,,,,,,,ctch,resources/DY.BMP,resources/DBN.BMP,Door4,-0.004798139,0.005447299,1,0,0,0.6614,optionLeft,60,3910,2,28,0,28,0,1,,,,,,,,,,,,,,,,,,,,,,,,,,,,,,,,,,,,,,,
,,,,,,,,2023-08-16_08h47.40.701,HF_wild_card,2022.2.4,MacIntel,5.454436366,5fcfb1fe79b8060e0662270a,64d2fd46c836a06233681665,64dc7dd5fcf2642c89e295ca,,,,,,,decisionTrl,resources/DY.BMP,resources/DG.BMP,Door4,-0.38650989,-0.0234375,1,0,0,4.8558,optionLeft,80,3990,2,29,0,29,0,1,,,,,,,,,,,,,,,,,,,,,,,,,,,,,,,,,,,,,,,
,,,,,,,,2023-08-16_08h47.40.701,HF_wild_card,2022.2.4,MacIntel,5.454436366,5fcfb1fe79b8060e0662270a,64d2fd46c836a06233681665,64dc7dd5fcf2642c89e295ca,,,,,,,sngl,resources/Empty.png,resources/DP.BMP,WildCard_NonEx,0.398533463,-0.049313584,1,0,0,3.2392,optionRight,55,4045,2,30,0,30,0,1,,,,,,,,,,,,,,,,,,,,,,,,,,,,,,,,,,,,,,,
,,,,,,,,2023-08-16_08h47.40.701,HF_wild_card,2022.2.4,MacIntel,5.454436366,5fcfb1fe79b8060e0662270a,64d2fd46c836a06233681665,64dc7dd5fcf2642c89e295ca,,,,,,,ctch,resources/DB.BMP,resources/DG.BMP,Door3,0.415236633,-0.00867052,1,0,0,2.0306,optionRight,70,4115,2,31,0,31,0,1,,,,,,,,,,,,,,,,,,,,,,,,,,,,,,,,,,,,,,,
,,,,,,,,2023-08-16_08h47.40.701,HF_wild_card,2022.2.4,MacIntel,5.454436366,5fcfb1fe79b8060e0662270a,64d2fd46c836a06233681665,64dc7dd5fcf2642c89e295ca,,,,,,,ctch,resources/DB.BMP,resources/DG.BMP,Door3,0.413774612,-0.028303378,1,0,0,3.3484,optionRight,70,4185,2,32,0,32,0,1,,,,,,,,,,,,,,,,,,,,,,,,,,,,,,,,,,,,,,,
,,,,,,,,2023-08-16_08h47.40.701,HF_wild_card,2022.2.4,MacIntel,5.454436366,5fcfb1fe79b8060e0662270a,64d2fd46c836a06233681665,64dc7dd5fcf2642c89e295ca,,,,,,,ctch,resources/DBN.BMP,resources/DY.BMP,Door4,0.416055139,-0.03147015,1,0,0,2.2097,optionRight,60,4245,2,33,0,33,0,1,,,,,,,,,,,,,,,,,,,,,,,,,,,,,,,,,,,,,,,
,,,,,,,,2023-08-16_08h47.40.701,HF_wild_card,2022.2.4,MacIntel,5.454436366,5fcfb1fe79b8060e0662270a,64d2fd46c836a06233681665,64dc7dd5fcf2642c89e295ca,,,,,,,decisionTrl,resources/DP.BMP,resources/DB.BMP,WildCard_NonEx,-0.407994265,-0.058424404,1,0,0,2.2299,optionLeft,55,4300,2,34,0,34,0,1,,,,,,,,,,,,,,,,,,,,,,,,,,,,,,,,,,,,,,,
,,,,,,,,2023-08-16_08h47.40.701,HF_wild_card,2022.2.4,MacIntel,5.454436366,5fcfb1fe79b8060e0662270a,64d2fd46c836a06233681665,64dc7dd5fcf2642c89e295ca,,,,,,,ctch,resources/DG.BMP,resources/DB.BMP,Door3,-0.391844292,-0.05577696,1,0,0,1.7847,optionLeft,70,4370,2,35,0,35,0,1,,,,,,,,,,,,,,,,,,,,,,,,,,,,,,,,,,,,,,,
,,,,,,,,2023-08-16_08h47.40.701,HF_wild_card,2022.2.4,MacIntel,5.454436366,5fcfb1fe79b8060e0662270a,64d2fd46c836a06233681665,64dc7dd5fcf2642c89e295ca,,,,,,,ctch,resources/DBN.BMP,resources/DY.BMP,Door4,0.404725885,-0.034648212,1,0,0,1.7794,optionRight,60,4430,2,36,0,36,0,1,,,,,,,,,,,,,,,,,,,,,,,,,,,,,,,,,,,,,,,
,,,,,,,,2023-08-16_08h47.40.701,HF_wild_card,2022.2.4,MacIntel,5.454436366,5fcfb1fe79b8060e0662270a,64d2fd46c836a06233681665,64dc7dd5fcf2642c89e295ca,,,,,,,decisionTrl,resources/DB.BMP,resources/DBN.BMP,Door1,0.367672959,-0.041151102,1,0,0,2.4088,optionRight,30,4460,2,37,0,37,0,1,,,,,,,,,,,,,,,,,,,,,,,,,,,,,,,,,,,,,,,
,,,,,,,,2023-08-16_08h47.40.701,HF_wild_card,2022.2.4,MacIntel,5.454436366,5fcfb1fe79b8060e0662270a,64d2fd46c836a06233681665,64dc7dd5fcf2642c89e295ca,,,,,,,decisionTrl,resources/DB.BMP,resources/DP.BMP,WildCard_NonEx,0.386154263,-0.070956015,1,0,0,2.8992,optionRight,45,4505,2,38,0,38,0,1,,,,,,,,,,,,,,,,,,,,,,,,,,,,,,,,,,,,,,,
,,,,,,,,2023-08-16_08h47.40.701,HF_wild_card,2022.2.4,MacIntel,5.454436366,5fcfb1fe79b8060e0662270a,64d2fd46c836a06233681665,64dc7dd5fcf2642c89e295ca,,,,,,,decisionTrl,resources/DBN.BMP,resources/DB.BMP,Door2,0.389394418,-0.059542088,1,0,0,3.556,optionRight,40,4545,2,39,0,39,0,1,,,,,,,,,,,,,,,,,,,,,,,,,,,,,,,,,,,,,,,
,,,,,,,,2023-08-16_08h47.40.701,HF_wild_card,2022.2.4,MacIntel,5.454436366,5fcfb1fe79b8060e0662270a,64d2fd46c836a06233681665,64dc7dd5fcf2642c89e295ca,,,,,,,decisionTrl,resources/DP.BMP,resources/DY.BMP,Door4,0.410088512,-0.022071441,1,0,0,3.1425,optionRight,80,4625,2,40,0,40,0,1,,,,,,,,,,,,,,,,,,,,,,,,,,,,,,,,,,,,,,,
,,,,,,,,2023-08-16_08h47.40.701,HF_wild_card,2022.2.4,MacIntel,5.454436366,5fcfb1fe79b8060e0662270a,64d2fd46c836a06233681665,64dc7dd5fcf2642c89e295ca,,,,,,,decisionTrl,resources/DG.BMP,resources/DY.BMP,Door4,0.405431494,-0.030420204,1,0,0,2.0041,optionRight,80,4705,2,41,0,41,0,1,,,,,,,,,,,,,,,,,,,,,,,,,,,,,,,,,,,,,,,
,,,,,,,,2023-08-16_08h47.40.701,HF_wild_card,2022.2.4,MacIntel,5.454436366,5fcfb1fe79b8060e0662270a,64d2fd46c836a06233681665,64dc7dd5fcf2642c89e295ca,,,,,,,sngl,resources/Empty.png,resources/DBN.BMP,Door1,0.400808345,-0.010719608,1,0,0,2.6255,optionRight,30,4735,2,42,0,42,0,1,,,,,,,,,,,,,,,,,,,,,,,,,,,,,,,,,,,,,,,
,,,,,,,,2023-08-16_08h47.40.701,HF_wild_card,2022.2.4,MacIntel,5.454436366,5fcfb1fe79b8060e0662270a,64d2fd46c836a06233681665,64dc7dd5fcf2642c89e295ca,,,,,,,sngl,resources/Empty.png,resources/DY.BMP,Door4,0.411623916,-0.023815706,1,0,0,2.0478,optionRight,80,4815,2,43,0,43,0,1,,,,,,,,,,,,,,,,,,,,,,,,,,,,,,,,,,,,,,,
,,,,,,,,2023-08-16_08h47.40.701,HF_wild_card,2022.2.4,MacIntel,5.454436366,5fcfb1fe79b8060e0662270a,64d2fd46c836a06233681665,64dc7dd5fcf2642c89e295ca,,,,,,,,,,,,,,,,,,,,,,,,,,1,0,1,0,1,,,,,,,,,,,,,,,,,,,,,,,,,,,,,,,,,,
,,,,,,,,2023-08-16_08h47.40.701,HF_wild_card,2022.2.4,MacIntel,5.454436366,5fcfb1fe79b8060e0662270a,64d2fd46c836a06233681665,64dc7dd5fcf2642c89e295ca,,,,,,,sngl,resources/Empty.png,resources/DP.BMP,WildCard_NonEx,0.401688945,-0.051746523,1,0,0,2.258,optionRight,55,4870,3,0,0,0,0,1,,,,,,,,,,,,,,,,,,,,,,,,,,,,,,,,,,,,,,,
,,,,,,,,2023-08-16_08h47.40.701,HF_wild_card,2022.2.4,MacIntel,5.454436366,5fcfb1fe79b8060e0662270a,64d2fd46c836a06233681665,64dc7dd5fcf2642c89e295ca,,,,,,,decisionTrl,resources/DG.BMP,resources/DY.BMP,Door4,0.409998194,-0.035952177,1,0,0,1.7935,optionRight,60,4930,3,1,0,1,0,1,,,,,,,,,,,,,,,,,,,,,,,,,,,,,,,,,,,,,,,
,,,,,,,,2023-08-16_08h47.40.701,HF_wild_card,2022.2.4,MacIntel,5.454436366,5fcfb1fe79b8060e0662270a,64d2fd46c836a06233681665,64dc7dd5fcf2642c89e295ca,,,,,,,decisionTrl,resources/DB.BMP,resources/DBN.BMP,Door2,-0.41687929,-0.025988981,1,0,0,1.9981,optionLeft,40,4970,3,2,0,2,0,1,,,,,,,,,,,,,,,,,,,,,,,,,,,,,,,,,,,,,,,
,,,,,,,,2023-08-16_08h47.40.701,HF_wild_card,2022.2.4,MacIntel,5.454436366,5fcfb1fe79b8060e0662270a,64d2fd46c836a06233681665,64dc7dd5fcf2642c89e295ca,,,,,,,sngl,resources/DP.BMP,resources/Empty.png,WildCard_NonEx,-0.388632361,-0.051080428,1,0,0,1.6444,optionLeft,55,5025,3,3,0,3,0,1,,,,,,,,,,,,,,,,,,,,,,,,,,,,,,,,,,,,,,,
,,,,,,,,2023-08-16_08h47.40.701,HF_wild_card,2022.2.4,MacIntel,5.454436366,5fcfb1fe79b8060e0662270a,64d2fd46c836a06233681665,64dc7dd5fcf2642c89e295ca,,,,,,,decisionTrl,resources/DBN.BMP,resources/DP.BMP,WildCard_NonEx,0.401807487,-0.058283282,1,0,0,2.8796,optionRight,45,5070,3,4,0,4,0,1,,,,,,,,,,,,,,,,,,,,,,,,,,,,,,,,,,,,,,,
,,,,,,,,2023-08-16_08h47.40.701,HF_wild_card,2022.2.4,MacIntel,5.454436366,5fcfb1fe79b8060e0662270a,64d2fd46c836a06233681665,64dc7dd5fcf2642c89e295ca,,,,,,,ctch,resources/DB.BMP,resources/DG.BMP,Door3,0.416811552,-0.008207641,1,0,0,8.242,optionRight,70,5140,3,5,0,5,0,1,,,,,,,,,,,,,,,,,,,,,,,,,,,,,,,,,,,,,,,
,,,,,,,,2023-08-16_08h47.40.701,HF_wild_card,2022.2.4,MacIntel,5.454436366,5fcfb1fe79b8060e0662270a,64d2fd46c836a06233681665,64dc7dd5fcf2642c89e295ca,,,,,,,decisionTrl,resources/DBN.BMP,resources/DB.BMP,Door2,0.396755329,-0.040959176,1,0,0,2.0155,optionRight,20,5160,3,6,0,6,0,1,,,,,,,,,,,,,,,,,,,,,,,,,,,,,,,,,,,,,,,
,,,,,,,,2023-08-16_08h47.40.701,HF_wild_card,2022.2.4,MacIntel,5.454436366,5fcfb1fe79b8060e0662270a,64d2fd46c836a06233681665,64dc7dd5fcf2642c89e295ca,,,,,,,sngl,resources/Empty.png,resources/DB.BMP,Door2,0.381790779,-0.011577628,1,0,0,1.7362,optionRight,20,5180,3,7,0,7,0,1,,,,,,,,,,,,,,,,,,,,,,,,,,,,,,,,,,,,,,,
,,,,,,,,2023-08-16_08h47.40.701,HF_wild_card,2022.2.4,MacIntel,5.454436366,5fcfb1fe79b8060e0662270a,64d2fd46c836a06233681665,64dc7dd5fcf2642c89e295ca,,,,,,,decisionTrl,resources/DY.BMP,resources/DG.BMP,Door4,-0.395327177,-0.032045927,1,0,0,2.42,optionLeft,60,5240,3,8,0,8,0,1,,,,,,,,,,,,,,,,,,,,,,,,,,,,,,,,,,,,,,,
,,,,,,,,2023-08-16_08h47.40.701,HF_wild_card,2022.2.4,MacIntel,5.454436366,5fcfb1fe79b8060e0662270a,64d2fd46c836a06233681665,64dc7dd5fcf2642c89e295ca,,,,,,,sngl,resources/DG.BMP,resources/Empty.png,Door3,-0.392499097,-0.030002484,1,0,0,1.6784,optionLeft,70,5310,3,9,0,9,0,1,,,,,,,,,,,,,,,,,,,,,,,,,,,,,,,,,,,,,,,
,,,,,,,,2023-08-16_08h47.40.701,HF_wild_card,2022.2.4,MacIntel,5.454436366,5fcfb1fe79b8060e0662270a,64d2fd46c836a06233681665,64dc7dd5fcf2642c89e295ca,,,,,,,decisionTrl,resources/DP.BMP,resources/DB.BMP,WildCard_NonEx,-0.402434068,-0.056770457,1,0,0,2.0437,optionLeft,55,5365,3,10,0,10,0,1,,,,,,,,,,,,,,,,,,,,,,,,,,,,,,,,,,,,,,,
,,,,,,,,2023-08-16_08h47.40.701,HF_wild_card,2022.2.4,MacIntel,5.454436366,5fcfb1fe79b8060e0662270a,64d2fd46c836a06233681665,64dc7dd5fcf2642c89e295ca,,,,,,,decisionTrl,resources/DP.BMP,resources/DY.BMP,Door4,0.409490155,-0.026598627,1,0,0,2.0596,optionRight,60,5425,3,11,0,11,0,1,,,,,,,,,,,,,,,,,,,,,,,,,,,,,,,,,,,,,,,
,,,,,,,,2023-08-16_08h47.40.701,HF_wild_card,2022.2.4,MacIntel,5.454436366,5fcfb1fe79b8060e0662270a,64d2fd46c836a06233681665,64dc7dd5fcf2642c89e295ca,,,,,,,ctch,resources/DY.BMP,resources/DBN.BMP,Door4,-0.392126535,-0.029483156,1,0,0,1.8013,optionLeft,80,5505,3,12,0,12,0,1,,,,,,,,,,,,,,,,,,,,,,,,,,,,,,,,,,,,,,,
,,,,,,,,2023-08-16_08h47.40.701,HF_wild_card,2022.2.4,MacIntel,5.454436366,5fcfb1fe79b8060e0662270a,64d2fd46c836a06233681665,64dc7dd5fcf2642c89e295ca,,,,,,,sngl,resources/DY.BMP,resources/Empty.png,Door4,-0.38867752,-0.02256819,1,0,0,1.8464,optionLeft,80,5585,3,13,0,13,0,1,,,,,,,,,,,,,,,,,,,,,,,,,,,,,,,,,,,,,,,
,,,,,,,,2023-08-16_08h47.40.701,HF_wild_card,2022.2.4,MacIntel,5.454436366,5fcfb1fe79b8060e0662270a,64d2fd46c836a06233681665,64dc7dd5fcf2642c89e295ca,,,,,,,decisionTrl,resources/DG.BMP,resources/DP.BMP,Door3,-0.382868949,-0.048049133,1,0,0,2.4872,optionLeft,70,5655,3,14,0,14,0,1,,,,,,,,,,,,,,,,,,,,,,,,,,,,,,,,,,,,,,,
,,,,,,,,2023-08-16_08h47.40.701,HF_wild_card,2022.2.4,MacIntel,5.454436366,5fcfb1fe79b8060e0662270a,64d2fd46c836a06233681665,64dc7dd5fcf2642c89e295ca,,,,,,,sngl,resources/Empty.png,resources/DY.BMP,Door4,0.395490878,-0.025170475,1,0,0,2.0422,optionRight,60,5715,3,15,0,15,0,1,,,,,,,,,,,,,,,,,,,,,,,,,,,,,,,,,,,,,,,
,,,,,,,,2023-08-16_08h47.40.701,HF_wild_card,2022.2.4,MacIntel,5.454436366,5fcfb1fe79b8060e0662270a,64d2fd46c836a06233681665,64dc7dd5fcf2642c89e295ca,,,,,,,ctch,resources/DB.BMP,resources/DG.BMP,Door3,0.416986543,-0.027038927,1,0,0,2.2681,optionRight,70,5785,3,16,0,16,0,1,,,,,,,,,,,,,,,,,,,,,,,,,,,,,,,,,,,,,,,
,,,,,,,,2023-08-16_08h47.40.701,HF_wild_card,2022.2.4,MacIntel,5.454436366,5fcfb1fe79b8060e0662270a,64d2fd46c836a06233681665,64dc7dd5fcf2642c89e295ca,,,,,,,sngl,resources/DP.BMP,resources/Empty.png,WildCard_NonEx,-0.397923817,-0.039672146,1,0,0,1.6264,optionLeft,45,5830,3,17,0,17,0,1,,,,,,,,,,,,,,,,,,,,,,,,,,,,,,,,,,,,,,,
,,,,,,,,2023-08-16_08h47.40.701,HF_wild_card,2022.2.4,MacIntel,5.454436366,5fcfb1fe79b8060e0662270a,64d2fd46c836a06233681665,64dc7dd5fcf2642c89e295ca,,,,,,,decisionTrl,resources/DBN.BMP,resources/DB.BMP,Door2,0.39257248,-0.0225569,1,0,0,2.6856,optionRight,20,5850,3,18,0,18,0,1,,,,,,,,,,,,,,,,,,,,,,,,,,,,,,,,,,,,,,,
,,,,,,,,2023-08-16_08h47.40.701,HF_wild_card,2022.2.4,MacIntel,5.454436366,5fcfb1fe79b8060e0662270a,64d2fd46c836a06233681665,64dc7dd5fcf2642c89e295ca,,,,,,,decisionTrl,resources/DB.BMP,resources/DBN.BMP,Door1,0.401564758,-0.009997065,1,0,0,3.5663,optionRight,30,5880,3,19,0,19,0,1,,,,,,,,,,,,,,,,,,,,,,,,,,,,,,,,,,,,,,,
,,,,,,,,2023-08-16_08h47.40.701,HF_wild_card,2022.2.4,MacIntel,5.454436366,5fcfb1fe79b8060e0662270a,64d2fd46c836a06233681665,64dc7dd5fcf2642c89e295ca,,,,,,,sngl,resources/DB.BMP,resources/Empty.png,Door2,-0.410940887,-0.028348537,1,0,0,2.2542,optionLeft,40,5920,3,20,0,20,0,1,,,,,,,,,,,,,,,,,,,,,,,,,,,,,,,,,,,,,,,
,,,,,,,,2023-08-16_08h47.40.701,HF_wild_card,2022.2.4,MacIntel,5.454436366,5fcfb1fe79b8060e0662270a,64d2fd46c836a06233681665,64dc7dd5fcf2642c89e295ca,,,,,,,sngl,resources/Empty.png,resources/DG.BMP,Door3,0.401446216,-0.017510387,1,0,0,1.8341,optionRight,70,5990,3,21,0,21,0,1,,,,,,,,,,,,,,,,,,,,,,,,,,,,,,,,,,,,,,,
,,,,,,,,2023-08-16_08h47.40.701,HF_wild_card,2022.2.4,MacIntel,5.454436366,5fcfb1fe79b8060e0662270a,64d2fd46c836a06233681665,64dc7dd5fcf2642c89e295ca,,,,,,,decisionTrl,resources/DBN.BMP,resources/DB.BMP,Door1,-0.397782695,-0.009839008,1,0,0,2.2485,optionLeft,30,6020,3,22,0,22,0,1,,,,,,,,,,,,,,,,,,,,,,,,,,,,,,,,,,,,,,,
,,,,,,,,2023-08-16_08h47.40.701,HF_wild_card,2022.2.4,MacIntel,5.454436366,5fcfb1fe79b8060e0662270a,64d2fd46c836a06233681665,64dc7dd5fcf2642c89e295ca,,,,,,,ctch,resources/DBN.BMP,resources/DY.BMP,Door4,0.41690187,-0.034755464,1,0,0,1.7765,optionRight,60,6080,3,23,0,23,0,1,,,,,,,,,,,,,,,,,,,,,,,,,,,,,,,,,,,,,,,
,,,,,,,,2023-08-16_08h47.40.701,HF_wild_card,2022.2.4,MacIntel,5.454436366,5fcfb1fe79b8060e0662270a,64d2fd46c836a06233681665,64dc7dd5fcf2642c89e295ca,,,,,,,sngl,resources/DBN.BMP,resources/Empty.png,Door1,-0.398121387,0.047117729,1,0,0,4.0282,optionLeft,30,6110,3,24,0,24,0,1,,,,,,,,,,,,,,,,,,,,,,,,,,,,,,,,,,,,,,,
,,,,,,,,2023-08-16_08h47.40.701,HF_wild_card,2022.2.4,MacIntel,5.454436366,5fcfb1fe79b8060e0662270a,64d2fd46c836a06233681665,64dc7dd5fcf2642c89e295ca,,,,,,,decisionTrl,resources/DBN.BMP,resources/DB.BMP,Door1,-0.406763683,-0.022489162,1,0,0,2.9253,optionLeft,30,6140,3,25,0,25,0,1,,,,,,,,,,,,,,,,,,,,,,,,,,,,,,,,,,,,,,,
,,,,,,,,2023-08-16_08h47.40.701,HF_wild_card,2022.2.4,MacIntel,5.454436366,5fcfb1fe79b8060e0662270a,64d2fd46c836a06233681665,64dc7dd5fcf2642c89e295ca,,,,,,,decisionTrl,resources/DG.BMP,resources/DY.BMP,Door3,-0.393611136,-0.034676436,1,0,0,2.6134,optionLeft,70,6210,3,26,0,26,0,1,,,,,,,,,,,,,,,,,,,,,,,,,,,,,,,,,,,,,,,
,,,,,,,,2023-08-16_08h47.40.701,HF_wild_card,2022.2.4,MacIntel,5.454436366,5fcfb1fe79b8060e0662270a,64d2fd46c836a06233681665,64dc7dd5fcf2642c89e295ca,,,,,,,sngl,resources/Empty.png,resources/DBN.BMP,Door1,0.386741329,-0.016878161,1,0,0,2.0373,optionRight,30,6240,3,27,0,27,0,1,,,,,,,,,,,,,,,,,,,,,,,,,,,,,,,,,,,,,,,
,,,,,,,,2023-08-16_08h47.40.701,HF_wild_card,2022.2.4,MacIntel,5.454436366,5fcfb1fe79b8060e0662270a,64d2fd46c836a06233681665,64dc7dd5fcf2642c89e295ca,,,,,,,decisionTrl,resources/DP.BMP,resources/DG.BMP,Door3,0.420700867,-0.040908372,1,0,0,5.3208,optionRight,70,6310,3,28,0,28,0,1,,,,,,,,,,,,,,,,,,,,,,,,,,,,,,,,,,,,,,,
,,,,,,,,2023-08-16_08h47.40.701,HF_wild_card,2022.2.4,MacIntel,5.454436366,5fcfb1fe79b8060e0662270a,64d2fd46c836a06233681665,64dc7dd5fcf2642c89e295ca,,,,,,,decisionTrl,resources/DY.BMP,resources/DG.BMP,Door4,-0.391635432,-0.026660721,1,0,0,2.4267,optionLeft,80,6390,3,29,0,29,0,1,,,,,,,,,,,,,,,,,,,,,,,,,,,,,,,,,,,,,,,
,,,,,,,,2023-08-16_08h47.40.701,HF_wild_card,2022.2.4,MacIntel,5.454436366,5fcfb1fe79b8060e0662270a,64d2fd46c836a06233681665,64dc7dd5fcf2642c89e295ca,,,,,,,decisionTrl,resources/DB.BMP,resources/DP.BMP,WildCard_NonEx,0.40170588,-0.05535924,1,0,0,2.6795,optionRight,45,6435,3,30,0,30,0,1,,,,,,,,,,,,,,,,,,,,,,,,,,,,,,,,,,,,,,,
,,,,,,,,2023-08-16_08h47.40.701,HF_wild_card,2022.2.4,MacIntel,5.454436366,5fcfb1fe79b8060e0662270a,64d2fd46c836a06233681665,64dc7dd5fcf2642c89e295ca,,,,,,,decisionTrl,resources/DY.BMP,resources/DG.BMP,Door4,-0.400565616,-0.043324377,1,0,0,1.7788,optionLeft,80,6515,3,31,0,31,0,1,,,,,,,,,,,,,,,,,,,,,,,,,,,,,,,,,,,,,,,
,,,,,,,,2023-08-16_08h47.40.701,HF_wild_card,2022.2.4,MacIntel,5.454436366,5fcfb1fe79b8060e0662270a,64d2fd46c836a06233681665,64dc7dd5fcf2642c89e295ca,,,,,,,decisionTrl,resources/DP.BMP,resources/DBN.BMP,WildCard_NonEx,-0.392301526,-0.046033914,1,0,0,1.846,optionLeft,55,6570,3,32,0,32,0,1,,,,,,,,,,,,,,,,,,,,,,,,,,,,,,,,,,,,,,,
,,,,,,,,2023-08-16_08h47.40.701,HF_wild_card,2022.2.4,MacIntel,5.454436366,5fcfb1fe79b8060e0662270a,64d2fd46c836a06233681665,64dc7dd5fcf2642c89e295ca,,,,,,,decisionTrl,resources/DB.BMP,resources/DBN.BMP,Door1,0.431697074,-0.006124684,1,0,0,2.6959,optionRight,30,6600,3,33,0,33,0,1,,,,,,,,,,,,,,,,,,,,,,,,,,,,,,,,,,,,,,,
,,,,,,,,2023-08-16_08h47.40.701,HF_wild_card,2022.2.4,MacIntel,5.454436366,5fcfb1fe79b8060e0662270a,64d2fd46c836a06233681665,64dc7dd5fcf2642c89e295ca,,,,,,,decisionTrl,resources/DY.BMP,resources/DP.BMP,Door4,-0.391810423,-0.045277502,1,0,0,3.977,optionLeft,60,6660,3,34,0,34,0,1,,,,,,,,,,,,,,,,,,,,,,,,,,,,,,,,,,,,,,,
,,,,,,,,2023-08-16_08h47.40.701,HF_wild_card,2022.2.4,MacIntel,5.454436366,5fcfb1fe79b8060e0662270a,64d2fd46c836a06233681665,64dc7dd5fcf2642c89e295ca,,,,,,,ctch,resources/DG.BMP,resources/DB.BMP,Door3,-0.386030076,-0.043217124,1,0,0,2.0218,optionLeft,70,6730,3,35,0,35,0,1,,,,,,,,,,,,,,,,,,,,,,,,,,,,,,,,,,,,,,,
,,,,,,,,2023-08-16_08h47.40.701,HF_wild_card,2022.2.4,MacIntel,5.454436366,5fcfb1fe79b8060e0662270a,64d2fd46c836a06233681665,64dc7dd5fcf2642c89e295ca,,,,,,,ctch,resources/DG.BMP,resources/DB.BMP,Door3,-0.395632,-0.042026057,1,0,0,1.9846,optionLeft,70,6800,3,36,0,36,0,1,,,,,,,,,,,,,,,,,,,,,,,,,,,,,,,,,,,,,,,
,,,,,,,,2023-08-16_08h47.40.701,HF_wild_card,2022.2.4,MacIntel,5.454436366,5fcfb1fe79b8060e0662270a,64d2fd46c836a06233681665,64dc7dd5fcf2642c89e295ca,,,,,,,decisionTrl,resources/DG.BMP,resources/DY.BMP,Door4,0.405606485,-0.024589053,1,0,0,4.2636,optionRight,60,6860,3,37,0,37,0,1,,,,,,,,,,,,,,,,,,,,,,,,,,,,,,,,,,,,,,,
,,,,,,,,2023-08-16_08h47.40.701,HF_wild_card,2022.2.4,MacIntel,5.454436366,5fcfb1fe79b8060e0662270a,64d2fd46c836a06233681665,64dc7dd5fcf2642c89e295ca,,,,,,,ctch,resources/DY.BMP,resources/DBN.BMP,Door4,-0.397043217,-0.033457144,1,0,0,2.6957,optionLeft,80,6940,3,38,0,38,0,1,,,,,,,,,,,,,,,,,,,,,,,,,,,,,,,,,,,,,,,
,,,,,,,,2023-08-16_08h47.40.701,HF_wild_card,2022.2.4,MacIntel,5.454436366,5fcfb1fe79b8060e0662270a,64d2fd46c836a06233681665,64dc7dd5fcf2642c89e295ca,,,,,,,sngl,resources/Empty.png,resources/DP.BMP,WildCard_NonEx,0.383907605,-0.06078396,1,0,0,1.6385,optionRight,45,6985,3,39,0,39,0,1,,,,,,,,,,,,,,,,,,,,,,,,,,,,,,,,,,,,,,,
,,,,,,,,2023-08-16_08h47.40.701,HF_wild_card,2022.2.4,MacIntel,5.454436366,5fcfb1fe79b8060e0662270a,64d2fd46c836a06233681665,64dc7dd5fcf2642c89e295ca,,,,,,,decisionTrl,resources/DY.BMP,resources/DG.BMP,Door4,-0.389704886,-0.017956331,1,0,0,2.4645,optionLeft,80,7065,3,40,0,40,0,1,,,,,,,,,,,,,,,,,,,,,,,,,,,,,,,,,,,,,,,
,,,,,,,,2023-08-16_08h47.40.701,HF_wild_card,2022.2.4,MacIntel,5.454436366,5fcfb1fe79b8060e0662270a,64d2fd46c836a06233681665,64dc7dd5fcf2642c89e295ca,,,,,,,ctch,resources/DBN.BMP,resources/DY.BMP,Door4,0.413650424,-0.037160179,1,0,0,1.8233,optionRight,80,7145,3,41,0,41,0,1,,,,,,,,,,,,,,,,,,,,,,,,,,,,,,,,,,,,,,,
,,,,,,,,2023-08-16_08h47.40.701,HF_wild_card,2022.2.4,MacIntel,5.454436366,5fcfb1fe79b8060e0662270a,64d2fd46c836a06233681665,64dc7dd5fcf2642c89e295ca,,,,,,,decisionTrl,resources/DG.BMP,resources/DY.BMP,Door4,0.409134529,-0.042127664,1,0,0,1.7903,optionRight,80,7225,3,42,0,42,0,1,,,,,,,,,,,,,,,,,,,,,,,,,,,,,,,,,,,,,,,
,,,,,,,,2023-08-16_08h47.40.701,HF_wild_card,2022.2.4,MacIntel,5.454436366,5fcfb1fe79b8060e0662270a,64d2fd46c836a06233681665,64dc7dd5fcf2642c89e295ca,,,,,,,decisionTrl,resources/DB.BMP,resources/DBN.BMP,Door1,0.411968253,-0.001975704,1,0,0,2.46,optionRight,30,7255,3,43,0,43,0,1,,,,,,,,,,,,,,,,,,,,,,,,,,,,,,,,,,,,,,,
,,,,,,,,2023-08-16_08h47.40.701,HF_wild_card,2022.2.4,MacIntel,5.454436366,5fcfb1fe79b8060e0662270a,64d2fd46c836a06233681665,64dc7dd5fcf2642c89e295ca,,,,,,,,,,,,,,,,,,,,,,,,,,2,0,2,0,1,,,,,,,,,,,,,,,,,,,,,,,,,,,,,,,,,,
,,,,,,,,2023-08-16_08h47.40.701,HF_wild_card,2022.2.4,MacIntel,5.454436366,5fcfb1fe79b8060e0662270a,64d2fd46c836a06233681665,64dc7dd5fcf2642c89e295ca,,,,,,,decisionTrl,resources/DB.BMP,resources/DR.BMP,WildCard_Ex,0.358093615,-0.06792472,1,0,0,2.0122,optionRight,45,7300,4,0,0,0,0,1,,,,,,,,,,,,,,,,,,,,,,,,,,,,,,,,,,,,,,,
,,,,,,,,2023-08-16_08h47.40.701,HF_wild_card,2022.2.4,MacIntel,5.454436366,5fcfb1fe79b8060e0662270a,64d2fd46c836a06233681665,64dc7dd5fcf2642c89e295ca,,,,,,,decisionTrl,resources/DG.BMP,resources/DY.BMP,Door4,0.40972724,-0.036268289,1,0,0,1.7751,optionRight,80,7380,4,1,0,1,0,1,,,,,,,,,,,,,,,,,,,,,,,,,,,,,,,,,,,,,,,
,,,,,,,,2023-08-16_08h47.40.701,HF_wild_card,2022.2.4,MacIntel,5.454436366,5fcfb1fe79b8060e0662270a,64d2fd46c836a06233681665,64dc7dd5fcf2642c89e295ca,,,,,,,ctch,resources/DY.BMP,resources/DBN.BMP,Door4,-0.398770547,-0.013067874,1,0,0,1.5729,optionLeft,80,7460,4,2,0,2,0,1,,,,,,,,,,,,,,,,,,,,,,,,,,,,,,,,,,,,,,,
,,,,,,,,2023-08-16_08h47.40.701,HF_wild_card,2022.2.4,MacIntel,5.454436366,5fcfb1fe79b8060e0662270a,64d2fd46c836a06233681665,64dc7dd5fcf2642c89e295ca,,,,,,,decisionTrl,resources/DY.BMP,resources/DG.BMP,Door4,-0.381243226,-0.032362039,1,0,0,5.1258,optionLeft,60,7520,4,3,0,3,0,1,,,,,,,,,,,,,,,,,,,,,,,,,,,,,,,,,,,,,,,
,,,,,,,,2023-08-16_08h47.40.701,HF_wild_card,2022.2.4,MacIntel,5.454436366,5fcfb1fe79b8060e0662270a,64d2fd46c836a06233681665,64dc7dd5fcf2642c89e295ca,,,,,,,decisionTrl,resources/DG.BMP,resources/DY.BMP,Door4,0.411691655,-0.021286805,1,0,0,2.2769,optionRight,60,7580,4,4,0,4,0,1,,,,,,,,,,,,,,,,,,,,,,,,,,,,,,,,,,,,,,,
,,,,,,,,2023-08-16_08h47.40.701,HF_wild_card,2022.2.4,MacIntel,5.454436366,5fcfb1fe79b8060e0662270a,64d2fd46c836a06233681665,64dc7dd5fcf2642c89e295ca,,,,,,,decisionTrl,resources/DBN.BMP,resources/DB.BMP,Door1,-0.422580609,-0.013609781,1,0,0,2.6846,optionLeft,30,7610,4,5,0,5,0,1,,,,,,,,,,,,,,,,,,,,,,,,,,,,,,,,,,,,,,,
,,,,,,,,2023-08-16_08h47.40.701,HF_wild_card,2022.2.4,MacIntel,5.454436366,5fcfb1fe79b8060e0662270a,64d2fd46c836a06233681665,64dc7dd5fcf2642c89e295ca,,,,,,,ctch,resources/DG.BMP,resources/DB.BMP,Door3,-0.375191926,-0.015799991,1,0,0,1.7676,optionLeft,70,7680,4,6,0,6,0,1,,,,,,,,,,,,,,,,,,,,,,,,,,,,,,,,,,,,,,,
,,,,,,,,2023-08-16_08h47.40.701,HF_wild_card,2022.2.4,MacIntel,5.454436366,5fcfb1fe79b8060e0662270a,64d2fd46c836a06233681665,64dc7dd5fcf2642c89e295ca,,,,,,,sngl,resources/Empty.png,resources/DY.BMP,Door4,0.400339821,-0.023832641,1,0,0,1.4464,optionRight,80,7760,4,7,0,7,0,1,,,,,,,,,,,,,,,,,,,,,,,,,,,,,,,,,,,,,,,
,,,,,,,,2023-08-16_08h47.40.701,HF_wild_card,2022.2.4,MacIntel,5.454436366,5fcfb1fe79b8060e0662270a,64d2fd46c836a06233681665,64dc7dd5fcf2642c89e295ca,,,,,,,decisionTrl,resources/DG.BMP,resources/DY.BMP,Door4,0.417014767,-0.029257361,1,0,0,1.5555,optionRight,60,7820,4,8,0,8,0,1,,,,,,,,,,,,,,,,,,,,,,,,,,,,,,,,,,,,,,,
,,,,,,,,2023-08-16_08h47.40.701,HF_wild_card,2022.2.4,MacIntel,5.454436366,5fcfb1fe79b8060e0662270a,64d2fd46c836a06233681665,64dc7dd5fcf2642c89e295ca,,,,,,,decisionTrl,resources/DG.BMP,resources/DR.BMP,Door3,-0.388547688,-0.010922823,1,0,0,3.2902,optionLeft,70,7890,4,9,0,9,0,1,,,,,,,,,,,,,,,,,,,,,,,,,,,,,,,,,,,,,,,
,,,,,,,,2023-08-16_08h47.40.701,HF_wild_card,2022.2.4,MacIntel,5.454436366,5fcfb1fe79b8060e0662270a,64d2fd46c836a06233681665,64dc7dd5fcf2642c89e295ca,,,,,,,sngl,resources/DR.BMP,resources/Empty.png,WildCard_Ex,-0.421694364,-0.003070809,1,0,0,1.6382,optionLeft,55,7945,4,10,0,10,0,1,,,,,,,,,,,,,,,,,,,,,,,,,,,,,,,,,,,,,,,
,,,,,,,,2023-08-16_08h47.40.701,HF_wild_card,2022.2.4,MacIntel,5.454436366,5fcfb1fe79b8060e0662270a,64d2fd46c836a06233681665,64dc7dd5fcf2642c89e295ca,,,,,,,decisionTrl,resources/DBN.BMP,resources/DB.BMP,Door2,0.138203351,0.005277953,1,0,0,1.3114,optionRight,40,7985,4,11,0,11,0,1,,,,,,,,,,,,,,,,,,,,,,,,,,,,,,,,,,,,,,,
,,,,,,,,2023-08-16_08h47.40.701,HF_wild_card,2022.2.4,MacIntel,5.454436366,5fcfb1fe79b8060e0662270a,64d2fd46c836a06233681665,64dc7dd5fcf2642c89e295ca,,,,,,,ctch,resources/DB.BMP,resources/DG.BMP,Door3,0.417946171,-0.021303739,1,0,0,2.9212,optionRight,70,8055,4,12,0,12,0,1,,,,,,,,,,,,,,,,,,,,,,,,,,,,,,,,,,,,,,,
,,,,,,,,2023-08-16_08h47.40.701,HF_wild_card,2022.2.4,MacIntel,5.454436366,5fcfb1fe79b8060e0662270a,64d2fd46c836a06233681665,64dc7dd5fcf2642c89e295ca,,,,,,,ctch,resources/DG.BMP,resources/DB.BMP,Door3,-0.390037934,-0.063933797,1,0,0,8.1471,optionLeft,70,8125,4,13,0,13,0,1,,,,,,,,,,,,,,,,,,,,,,,,,,,,,,,,,,,,,,,
,,,,,,,,2023-08-16_08h47.40.701,HF_wild_card,2022.2.4,MacIntel,5.454436366,5fcfb1fe79b8060e0662270a,64d2fd46c836a06233681665,64dc7dd5fcf2642c89e295ca,,,,,,,sngl,resources/Empty.png,resources/DBN.BMP,Door1,0.405651644,0.004194138,1,0,0,1.6196,optionRight,30,8155,4,14,0,14,0,1,,,,,,,,,,,,,,,,,,,,,,,,,,,,,,,,,,,,,,,
,,,,,,,,2023-08-16_08h47.40.701,HF_wild_card,2022.2.4,MacIntel,5.454436366,5fcfb1fe79b8060e0662270a,64d2fd46c836a06233681665,64dc7dd5fcf2642c89e295ca,,,,,,,decisionTrl,resources/DY.BMP,resources/DG.BMP,Door4,-0.382665733,-0.046807262,1,0,0,1.814,optionLeft,60,8215,4,15,0,15,0,1,,,,,,,,,,,,,,,,,,,,,,,,,,,,,,,,,,,,,,,
,,,,,,,,2023-08-16_08h47.40.701,HF_wild_card,2022.2.4,MacIntel,5.454436366,5fcfb1fe79b8060e0662270a,64d2fd46c836a06233681665,64dc7dd5fcf2642c89e295ca,,,,,,,decisionTrl,resources/DB.BMP,resources/DBN.BMP,Door1,0.412967395,-0.0008806,1,0,0,2.0116,optionRight,30,8245,4,16,0,16,0,1,,,,,,,,,,,,,,,,,,,,,,,,,,,,,,,,,,,,,,,
,,,,,,,,2023-08-16_08h47.40.701,HF_wild_card,2022.2.4,MacIntel,5.454436366,5fcfb1fe79b8060e0662270a,64d2fd46c836a06233681665,64dc7dd5fcf2642c89e295ca,,,,,,,ctch,resources/DB.BMP,resources/DG.BMP,Door3,0.412284366,-0.018097453,1,0,0,3.1169,optionRight,70,8315,4,17,0,17,0,1,,,,,,,,,,,,,,,,,,,,,,,,,,,,,,,,,,,,,,,
,,,,,,,,2023-08-16_08h47.40.701,HF_wild_card,2022.2.4,MacIntel,5.454436366,5fcfb1fe79b8060e0662270a,64d2fd46c836a06233681665,64dc7dd5fcf2642c89e295ca,,,,,,,decisionTrl,resources/DY.BMP,resources/DG.BMP,Door3,0.414412482,-0.021444861,1,0,0,3.123,optionRight,70,8385,4,18,0,18,0,1,,,,,,,,,,,,,,,,,,,,,,,,,,,,,,,,,,,,,,,
,,,,,,,,2023-08-16_08h47.40.701,HF_wild_card,2022.2.4,MacIntel,5.454436366,5fcfb1fe79b8060e0662270a,64d2fd46c836a06233681665,64dc7dd5fcf2642c89e295ca,,,,,,,decisionTrl,resources/DB.BMP,resources/DBN.BMP,Door1,0.417923591,-0.030222634,1,0,0,2.9127,optionRight,30,8415,4,19,0,19,0,1,,,,,,,,,,,,,,,,,,,,,,,,,,,,,,,,,,,,,,,
,,,,,,,,2023-08-16_08h47.40.701,HF_wild_card,2022.2.4,MacIntel,5.454436366,5fcfb1fe79b8060e0662270a,64d2fd46c836a06233681665,64dc7dd5fcf2642c89e295ca,,,,,,,sngl,resources/Empty.png,resources/DB.BMP,Door2,0.400243858,-0.04579683,1,0,0,1.6437,optionRight,40,8455,4,20,0,20,0,1,,,,,,,,,,,,,,,,,,,,,,,,,,,,,,,,,,,,,,,
,,,,,,,,2023-08-16_08h47.40.701,HF_wild_card,2022.2.4,MacIntel,5.454436366,5fcfb1fe79b8060e0662270a,64d2fd46c836a06233681665,64dc7dd5fcf2642c89e295ca,,,,,,,ctch,resources/DBN.BMP,resources/DY.BMP,Door4,0.360300759,-0.026756684,1,0,0,1.6025,optionRight,60,8515,4,21,0,21,0,1,,,,,,,,,,,,,,,,,,,,,,,,,,,,,,,,,,,,,,,
,,,,,,,,2023-08-16_08h47.40.701,HF_wild_card,2022.2.4,MacIntel,5.454436366,5fcfb1fe79b8060e0662270a,64d2fd46c836a06233681665,64dc7dd5fcf2642c89e295ca,,,,,,,decisionTrl,resources/DY.BMP,resources/DG.BMP,Door3,0.361870033,-0.015433074,1,0,0,1.5574,optionRight,70,8585,4,22,0,22,0,1,,,,,,,,,,,,,,,,,,,,,,,,,,,,,,,,,,,,,,,
,,,,,,,,2023-08-16_08h47.40.701,HF_wild_card,2022.2.4,MacIntel,5.454436366,5fcfb1fe79b8060e0662270a,64d2fd46c836a06233681665,64dc7dd5fcf2642c89e295ca,,,,,,,decisionTrl,resources/DB.BMP,resources/DBN.BMP,Door1,0.430635838,-0.026084944,1,0,0,2.0216,optionRight,30,8615,4,23,0,23,0,1,,,,,,,,,,,,,,,,,,,,,,,,,,,,,,,,,,,,,,,
,,,,,,,,2023-08-16_08h47.40.701,HF_wild_card,2022.2.4,MacIntel,5.454436366,5fcfb1fe79b8060e0662270a,64d2fd46c836a06233681665,64dc7dd5fcf2642c89e295ca,,,,,,,sngl,resources/Empty.png,resources/DR.BMP,WildCard_Ex,0.387277592,-0.015399205,1,0,0,1.4304,optionRight,45,8660,4,24,0,24,0,1,,,,,,,,,,,,,,,,,,,,,,,,,,,,,,,,,,,,,,,
,,,,,,,,2023-08-16_08h47.40.701,HF_wild_card,2022.2.4,MacIntel,5.454436366,5fcfb1fe79b8060e0662270a,64d2fd46c836a06233681665,64dc7dd5fcf2642c89e295ca,,,,,,,decisionTrl,resources/DB.BMP,resources/DBN.BMP,Door2,-0.392589415,-0.032412843,1,0,0,2.4924,optionLeft,20,8680,4,25,0,25,0,1,,,,,,,,,,,,,,,,,,,,,,,,,,,,,,,,,,,,,,,
,,,,,,,,2023-08-16_08h47.40.701,HF_wild_card,2022.2.4,MacIntel,5.454436366,5fcfb1fe79b8060e0662270a,64d2fd46c836a06233681665,64dc7dd5fcf2642c89e295ca,,,,,,,decisionTrl,resources/DR.BMP,resources/DG.BMP,Door3,0.440638548,-0.036815842,1,0,0,2.0126,optionRight,70,8750,4,26,0,26,0,1,,,,,,,,,,,,,,,,,,,,,,,,,,,,,,,,,,,,,,,
,,,,,,,,2023-08-16_08h47.40.701,HF_wild_card,2022.2.4,MacIntel,5.454436366,5fcfb1fe79b8060e0662270a,64d2fd46c836a06233681665,64dc7dd5fcf2642c89e295ca,,,,,,,decisionTrl,resources/DY.BMP,resources/DR.BMP,Door4,-0.390054868,-0.044453351,1,0,0,2.017,optionLeft,60,8810,4,27,0,27,0,1,,,,,,,,,,,,,,,,,,,,,,,,,,,,,,,,,,,,,,,
,,,,,,,,2023-08-16_08h47.40.701,HF_wild_card,2022.2.4,MacIntel,5.454436366,5fcfb1fe79b8060e0662270a,64d2fd46c836a06233681665,64dc7dd5fcf2642c89e295ca,,,,,,,decisionTrl,resources/DBN.BMP,resources/DB.BMP,Door1,-0.39821735,-0.026976833,1,0,0,5.1129,optionLeft,30,8840,4,28,0,28,0,1,,,,,,,,,,,,,,,,,,,,,,,,,,,,,,,,,,,,,,,
,,,,,,,,2023-08-16_08h47.40.701,HF_wild_card,2022.2.4,MacIntel,5.454436366,5fcfb1fe79b8060e0662270a,64d2fd46c836a06233681665,64dc7dd5fcf2642c89e295ca,,,,,,,sngl,resources/Empty.png,resources/DG.BMP,Door3,0.410173185,-0.023302023,1,0,0,2.8546,optionRight,70,8910,4,29,0,29,0,1,,,,,,,,,,,,,,,,,,,,,,,,,,,,,,,,,,,,,,,
,,,,,,,,2023-08-16_08h47.40.701,HF_wild_card,2022.2.4,MacIntel,5.454436366,5fcfb1fe79b8060e0662270a,64d2fd46c836a06233681665,64dc7dd5fcf2642c89e295ca,,,,,,,sngl,resources/DY.BMP,resources/Empty.png,Door4,-0.397325461,-0.008247155,1,0,0,1.6536,optionLeft,60,8970,4,30,0,30,0,1,,,,,,,,,,,,,,,,,,,,,,,,,,,,,,,,,,,,,,,
,,,,,,,,2023-08-16_08h47.40.701,HF_wild_card,2022.2.4,MacIntel,5.454436366,5fcfb1fe79b8060e0662270a,64d2fd46c836a06233681665,64dc7dd5fcf2642c89e295ca,,,,,,,decisionTrl,resources/DBN.BMP,resources/DB.BMP,Door2,0.362982072,-0.012277592,1,0,0,2.0019,optionRight,20,8990,4,31,0,31,0,1,,,,,,,,,,,,,,,,,,,,,,,,,,,,,,,,,,,,,,,
,,,,,,,,2023-08-16_08h47.40.701,HF_wild_card,2022.2.4,MacIntel,5.454436366,5fcfb1fe79b8060e0662270a,64d2fd46c836a06233681665,64dc7dd5fcf2642c89e295ca,,,,,,,ctch,resources/DY.BMP,resources/DBN.BMP,Door4,-0.392945042,-0.018560332,1,0,0,2.0005,optionLeft,60,9050,4,32,0,32,0,1,,,,,,,,,,,,,,,,,,,,,,,,,,,,,,,,,,,,,,,
,,,,,,,,2023-08-16_08h47.40.701,HF_wild_card,2022.2.4,MacIntel,5.454436366,5fcfb1fe79b8060e0662270a,64d2fd46c836a06233681665,64dc7dd5fcf2642c89e295ca,,,,,,,ctch,resources/DBN.BMP,resources/DY.BMP,Door4,0.380639225,-0.02342621,1,0,0,1.5589,optionRight,60,9110,4,33,0,33,0,1,,,,,,,,,,,,,,,,,,,,,,,,,,,,,,,,,,,,,,,
,,,,,,,,2023-08-16_08h47.40.701,HF_wild_card,2022.2.4,MacIntel,5.454436366,5fcfb1fe79b8060e0662270a,64d2fd46c836a06233681665,64dc7dd5fcf2642c89e295ca,,,,,,,decisionTrl,resources/DR.BMP,resources/DBN.BMP,WildCard_Ex,-0.386120394,-0.019604633,1,0,0,1.7684,optionLeft,55,9165,4,34,0,34,0,1,,,,,,,,,,,,,,,,,,,,,,,,,,,,,,,,,,,,,,,
,,,,,,,,2023-08-16_08h47.40.701,HF_wild_card,2022.2.4,MacIntel,5.454436366,5fcfb1fe79b8060e0662270a,64d2fd46c836a06233681665,64dc7dd5fcf2642c89e295ca,,,,,,,sngl,resources/DG.BMP,resources/Empty.png,Door3,-0.391240291,-0.03192174,1,0,0,2.673,optionLeft,70,9235,4,35,0,35,0,1,,,,,,,,,,,,,,,,,,,,,,,,,,,,,,,,,,,,,,,
,,,,,,,,2023-08-16_08h47.40.701,HF_wild_card,2022.2.4,MacIntel,5.454436366,5fcfb1fe79b8060e0662270a,64d2fd46c836a06233681665,64dc7dd5fcf2642c89e295ca,,,,,,,decisionTrl,resources/DG.BMP,resources/DY.BMP,Door4,0.393385341,-0.018797417,1,0,0,1.5569,optionRight,80,9315,4,36,0,36,0,1,,,,,,,,,,,,,,,,,,,,,,,,,,,,,,,,,,,,,,,
,,,,,,,,2023-08-16_08h47.40.701,HF_wild_card,2022.2.4,MacIntel,5.454436366,5fcfb1fe79b8060e0662270a,64d2fd46c836a06233681665,64dc7dd5fcf2642c89e295ca,,,,,,,decisionTrl,resources/DBN.BMP,resources/DR.BMP,WildCard_Ex,0.392628929,-0.074326003,1,0,0,4.4184,optionRight,45,9360,4,37,0,37,0,1,,,,,,,,,,,,,,,,,,,,,,,,,,,,,,,,,,,,,,,
,,,,,,,,2023-08-16_08h47.40.701,HF_wild_card,2022.2.4,MacIntel,5.454436366,5fcfb1fe79b8060e0662270a,64d2fd46c836a06233681665,64dc7dd5fcf2642c89e295ca,,,,,,,decisionTrl,resources/DR.BMP,resources/DB.BMP,WildCard_Ex,-0.375022579,-0.010143831,1,0,0,1.9747,optionLeft,45,9405,4,38,0,38,0,1,,,,,,,,,,,,,,,,,,,,,,,,,,,,,,,,,,,,,,,
,,,,,,,,2023-08-16_08h47.40.701,HF_wild_card,2022.2.4,MacIntel,5.454436366,5fcfb1fe79b8060e0662270a,64d2fd46c836a06233681665,64dc7dd5fcf2642c89e295ca,,,,,,,sngl,resources/DR.BMP,resources/Empty.png,WildCard_Ex,-0.400520457,-0.036132813,1,0,0,3.0052,optionLeft,45,9450,4,39,0,39,0,1,,,,,,,,,,,,,,,,,,,,,,,,,,,,,,,,,,,,,,,
,,,,,,,,2023-08-16_08h47.40.701,HF_wild_card,2022.2.4,MacIntel,5.454436366,5fcfb1fe79b8060e0662270a,64d2fd46c836a06233681665,64dc7dd5fcf2642c89e295ca,,,,,,,sngl,resources/DB.BMP,resources/Empty.png,Door2,-0.370105898,-0.052486001,1,0,0,1.4147,optionLeft,20,9470,4,40,0,40,0,1,,,,,,,,,,,,,,,,,,,,,,,,,,,,,,,,,,,,,,,
,,,,,,,,2023-08-16_08h47.40.701,HF_wild_card,2022.2.4,MacIntel,5.454436366,5fcfb1fe79b8060e0662270a,64d2fd46c836a06233681665,64dc7dd5fcf2642c89e295ca,,,,,,,sngl,resources/Empty.png,resources/DR.BMP,WildCard_Ex,0.392809565,-0.042494581,1,0,0,2.0387,optionRight,55,9525,4,41,0,41,0,1,,,,,,,,,,,,,,,,,,,,,,,,,,,,,,,,,,,,,,,
,,,,,,,,2023-08-16_08h47.40.701,HF_wild_card,2022.2.4,MacIntel,5.454436366,5fcfb1fe79b8060e0662270a,64d2fd46c836a06233681665,64dc7dd5fcf2642c89e295ca,,,,,,,sngl,resources/DBN.BMP,resources/Empty.png,Door1,-0.388485594,-0.0123792,1,0,0,1.6358,optionLeft,30,9555,4,42,0,42,0,1,,,,,,,,,,,,,,,,,,,,,,,,,,,,,,,,,,,,,,,
,,,,,,,,2023-08-16_08h47.40.701,HF_wild_card,2022.2.4,MacIntel,5.454436366,5fcfb1fe79b8060e0662270a,64d2fd46c836a06233681665,64dc7dd5fcf2642c89e295ca,,,,,,,decisionTrl,resources/DR.BMP,resources/DY.BMP,Door4,0.444324648,-0.019412708,1,0,0,1.995,optionRight,80,9635,4,43,0,43,0,1,,,,,,,,,,,,,,,,,,,,,,,,,,,,,,,,,,,,,,,
,,,,,,,,2023-08-16_08h47.40.701,HF_wild_card,2022.2.4,MacIntel,5.454436366,5fcfb1fe79b8060e0662270a,64d2fd46c836a06233681665,64dc7dd5fcf2642c89e295ca,,,,,,,,,,,,,,,,,,,,,,,,,,3,0,3,0,1,,,,,,,,,,,,,,,,,,,,,,,,,,,,,,,,,,
,,,,,,,,2023-08-16_08h47.40.701,HF_wild_card,2022.2.4,MacIntel,5.454436366,5fcfb1fe79b8060e0662270a,64d2fd46c836a06233681665,64dc7dd5fcf2642c89e295ca,,,,,,,decisionTrl,resources/DY.BMP,resources/DG.BMP,Door4,-0.402688087,-0.061879064,1,0,0,4.0126,optionLeft,60,9695,5,0,0,0,0,1,,,,,,,,,,,,,,,,,,,,,,,,,,,,,,,,,,,,,,,
,,,,,,,,2023-08-16_08h47.40.701,HF_wild_card,2022.2.4,MacIntel,5.454436366,5fcfb1fe79b8060e0662270a,64d2fd46c836a06233681665,64dc7dd5fcf2642c89e295ca,,,,,,,ctch,resources/DBN.BMP,resources/DY.BMP,Door4,0.444493994,-0.024301165,1,0,0,1.5523,optionRight,60,9755,5,1,0,1,0,1,,,,,,,,,,,,,,,,,,,,,,,,,,,,,,,,,,,,,,,
,,,,,,,,2023-08-16_08h47.40.701,HF_wild_card,2022.2.4,MacIntel,5.454436366,5fcfb1fe79b8060e0662270a,64d2fd46c836a06233681665,64dc7dd5fcf2642c89e295ca,,,,,,,decisionTrl,resources/DY.BMP,resources/DG.BMP,Door3,0.408474079,-0.013683165,1,0,0,2.8965,optionRight,70,9825,5,2,0,2,0,1,,,,,,,,,,,,,,,,,,,,,,,,,,,,,,,,,,,,,,,
,,,,,,,,2023-08-16_08h47.40.701,HF_wild_card,2022.2.4,MacIntel,5.454436366,5fcfb1fe79b8060e0662270a,64d2fd46c836a06233681665,64dc7dd5fcf2642c89e295ca,,,,,,,decisionTrl,resources/DB.BMP,resources/DR.BMP,WildCard_Ex,0.414655211,-0.029545249,1,0,0,2.7337,optionRight,55,9880,5,3,0,3,0,1,,,,,,,,,,,,,,,,,,,,,,,,,,,,,,,,,,,,,,,
,,,,,,,,2023-08-16_08h47.40.701,HF_wild_card,2022.2.4,MacIntel,5.454436366,5fcfb1fe79b8060e0662270a,64d2fd46c836a06233681665,64dc7dd5fcf2642c89e295ca,,,,,,,decisionTrl,resources/DR.BMP,resources/DY.BMP,Door4,0.333527141,-0.058130871,1,0,0,1.7873,optionRight,80,9960,5,4,0,4,0,1,,,,,,,,,,,,,,,,,,,,,,,,,,,,,,,,,,,,,,,
,,,,,,,,2023-08-16_08h47.40.701,HF_wild_card,2022.2.4,MacIntel,5.454436366,5fcfb1fe79b8060e0662270a,64d2fd46c836a06233681665,64dc7dd5fcf2642c89e295ca,,,,,,,ctch,resources/DB.BMP,resources/DG.BMP,Door3,0.391234646,-0.035082867,1,0,0,2.6691,optionRight,70,10030,5,5,0,5,0,1,,,,,,,,,,,,,,,,,,,,,,,,,,,,,,,,,,,,,,,
,,,,,,,,2023-08-16_08h47.40.701,HF_wild_card,2022.2.4,MacIntel,5.454436366,5fcfb1fe79b8060e0662270a,64d2fd46c836a06233681665,64dc7dd5fcf2642c89e295ca,,,,,,,sngl,resources/Empty.png,resources/DR.BMP,WildCard_Ex,0.354938132,-0.038272218,1,0,0,1.4432,optionRight,45,10075,5,6,0,6,0,1,,,,,,,,,,,,,,,,,,,,,,,,,,,,,,,,,,,,,,,
,,,,,,,,2023-08-16_08h47.40.701,HF_wild_card,2022.2.4,MacIntel,5.454436366,5fcfb1fe79b8060e0662270a,64d2fd46c836a06233681665,64dc7dd5fcf2642c89e295ca,,,,,,,decisionTrl,resources/DR.BMP,resources/DBN.BMP,WildCard_Ex,-0.423653134,0.004990065,1,0,0,1.7774,optionLeft,55,10130,5,7,0,7,0,1,,,,,,,,,,,,,,,,,,,,,,,,,,,,,,,,,,,,,,,
,,,,,,,,2023-08-16_08h47.40.701,HF_wild_card,2022.2.4,MacIntel,5.454436366,5fcfb1fe79b8060e0662270a,64d2fd46c836a06233681665,64dc7dd5fcf2642c89e295ca,,,,,,,sngl,resources/DBN.BMP,resources/Empty.png,Door1,-0.36329254,-0.022449648,1,0,0,1.4188,optionLeft,30,10160,5,8,0,8,0,1,,,,,,,,,,,,,,,,,,,,,,,,,,,,,,,,,,,,,,,
,,,,,,,,2023-08-16_08h47.40.701,HF_wild_card,2022.2.4,MacIntel,5.454436366,5fcfb1fe79b8060e0662270a,64d2fd46c836a06233681665,64dc7dd5fcf2642c89e295ca,,,,,,,sngl,resources/DR.BMP,resources/Empty.png,WildCard_Ex,-0.40366465,-0.006310965,1,0,0,1.4304,optionLeft,55,10215,5,9,0,9,0,1,,,,,,,,,,,,,,,,,,,,,,,,,,,,,,,,,,,,,,,
,,,,,,,,2023-08-16_08h47.40.701,HF_wild_card,2022.2.4,MacIntel,5.454436366,5fcfb1fe79b8060e0662270a,64d2fd46c836a06233681665,64dc7dd5fcf2642c89e295ca,,,,,,,decisionTrl,resources/DBN.BMP,resources/DB.BMP,Door1,-0.413029489,-0.013705744,1,0,0,3.8001,optionLeft,30,10245,5,10,0,10,0,1,,,,,,,,,,,,,,,,,,,,,,,,,,,,,,,,,,,,,,,
,,,,,,,,2023-08-16_08h47.40.701,HF_wild_card,2022.2.4,MacIntel,5.454436366,5fcfb1fe79b8060e0662270a,64d2fd46c836a06233681665,64dc7dd5fcf2642c89e295ca,,,,,,,decisionTrl,resources/DBN.BMP,resources/DR.BMP,WildCard_Ex,0.427480356,-0.001033011,1,0,0,2.4497,optionRight,55,10300,5,11,0,11,0,1,,,,,,,,,,,,,,,,,,,,,,,,,,,,,,,,,,,,,,,
,,,,,,,,2023-08-16_08h47.40.701,HF_wild_card,2022.2.4,MacIntel,5.454436366,5fcfb1fe79b8060e0662270a,64d2fd46c836a06233681665,64dc7dd5fcf2642c89e295ca,,,,,,,decisionTrl,resources/DB.BMP,resources/DBN.BMP,Door1,0.381886741,0.013090453,1,0,0,1.79,optionRight,30,10330,5,12,0,12,0,1,,,,,,,,,,,,,,,,,,,,,,,,,,,,,,,,,,,,,,,
,,,,,,,,2023-08-16_08h47.40.701,HF_wild_card,2022.2.4,MacIntel,5.454436366,5fcfb1fe79b8060e0662270a,64d2fd46c836a06233681665,64dc7dd5fcf2642c89e295ca,,,,,,,sngl,resources/DG.BMP,resources/Empty.png,Door3,-0.376275741,-0.013254155,1,0,0,1.4293,optionLeft,70,10400,5,13,0,13,0,1,,,,,,,,,,,,,,,,,,,,,,,,,,,,,,,,,,,,,,,
,,,,,,,,2023-08-16_08h47.40.701,HF_wild_card,2022.2.4,MacIntel,5.454436366,5fcfb1fe79b8060e0662270a,64d2fd46c836a06233681665,64dc7dd5fcf2642c89e295ca,,,,,,,decisionTrl,resources/DY.BMP,resources/DG.BMP,Door3,0.431177746,0.002647444,1,0,0,1.7828,optionRight,70,10470,5,14,0,14,0,1,,,,,,,,,,,,,,,,,,,,,,,,,,,,,,,,,,,,,,,
,,,,,,,,2023-08-16_08h47.40.701,HF_wild_card,2022.2.4,MacIntel,5.454436366,5fcfb1fe79b8060e0662270a,64d2fd46c836a06233681665,64dc7dd5fcf2642c89e295ca,,,,,,,sngl,resources/DR.BMP,resources/Empty.png,WildCard_Ex,-0.38173433,-0.043775966,1,0,0,1.4199,optionLeft,45,10515,5,15,0,15,0,1,,,,,,,,,,,,,,,,,,,,,,,,,,,,,,,,,,,,,,,
,,,,,,,,2023-08-16_08h47.40.701,HF_wild_card,2022.2.4,MacIntel,5.454436366,5fcfb1fe79b8060e0662270a,64d2fd46c836a06233681665,64dc7dd5fcf2642c89e295ca,,,,,,,decisionTrl,resources/DB.BMP,resources/DBN.BMP,Door1,0.380340047,-0.016454796,1,0,0,2.0276,optionRight,30,10545,5,16,0,16,0,1,,,,,,,,,,,,,,,,,,,,,,,,,,,,,,,,,,,,,,,
,,,,,,,,2023-08-16_08h47.40.701,HF_wild_card,2022.2.4,MacIntel,5.454436366,5fcfb1fe79b8060e0662270a,64d2fd46c836a06233681665,64dc7dd5fcf2642c89e295ca,,,,,,,ctch,resources/DBN.BMP,resources/DY.BMP,Door4,0.399622923,-0.027676797,1,0,0,2.3128,optionRight,60,10605,5,17,0,17,0,1,,,,,,,,,,,,,,,,,,,,,,,,,,,,,,,,,,,,,,,
,,,,,,,,2023-08-16_08h47.40.701,HF_wild_card,2022.2.4,MacIntel,5.454436366,5fcfb1fe79b8060e0662270a,64d2fd46c836a06233681665,64dc7dd5fcf2642c89e295ca,,,,,,,decisionTrl,resources/DBN.BMP,resources/DB.BMP,Door1,-0.386492955,-0.022156115,1,0,0,1.9905,optionLeft,30,10635,5,18,0,18,0,1,,,,,,,,,,,,,,,,,,,,,,,,,,,,,,,,,,,,,,,
,,,,,,,,2023-08-16_08h47.40.701,HF_wild_card,2022.2.4,MacIntel,5.454436366,5fcfb1fe79b8060e0662270a,64d2fd46c836a06233681665,64dc7dd5fcf2642c89e295ca,,,,,,,decisionTrl,resources/DBN.BMP,resources/DB.BMP,Door1,-0.402292946,-0.00952854,1,0,0,3.995,optionLeft,30,10665,5,19,0,19,0,1,,,,,,,,,,,,,,,,,,,,,,,,,,,,,,,,,,,,,,,
,,,,,,,,2023-08-16_08h47.40.701,HF_wild_card,2022.2.4,MacIntel,5.454436366,5fcfb1fe79b8060e0662270a,64d2fd46c836a06233681665,64dc7dd5fcf2642c89e295ca,,,,,,,ctch,resources/DB.BMP,resources/DG.BMP,Door3,0.413876219,-0.016833002,1,0,0,1.791,optionRight,70,10735,5,20,0,20,0,1,,,,,,,,,,,,,,,,,,,,,,,,,,,,,,,,,,,,,,,
,,,,,,,,2023-08-16_08h47.40.701,HF_wild_card,2022.2.4,MacIntel,5.454436366,5fcfb1fe79b8060e0662270a,64d2fd46c836a06233681665,64dc7dd5fcf2642c89e295ca,,,,,,,decisionTrl,resources/DG.BMP,resources/DY.BMP,Door3,-0.003573203,-0.003494174,1,0,0,0.6518,optionLeft,70,10805,5,21,0,21,0,1,,,,,,,,,,,,,,,,,,,,,,,,,,,,,,,,,,,,,,,
,,,,,,,,2023-08-16_08h47.40.701,HF_wild_card,2022.2.4,MacIntel,5.454436366,5fcfb1fe79b8060e0662270a,64d2fd46c836a06233681665,64dc7dd5fcf2642c89e295ca,,,,,,,sngl,resources/DB.BMP,resources/Empty.png,Door2,-0.41577854,0.000327402,1,0,0,1.6472,optionLeft,40,10845,5,22,0,22,0,1,,,,,,,,,,,,,,,,,,,,,,,,,,,,,,,,,,,,,,,
,,,,,,,,2023-08-16_08h47.40.701,HF_wild_card,2022.2.4,MacIntel,5.454436366,5fcfb1fe79b8060e0662270a,64d2fd46c836a06233681665,64dc7dd5fcf2642c89e295ca,,,,,,,decisionTrl,resources/DG.BMP,resources/DY.BMP,Door4,0.405239568,-0.019644147,1,0,0,1.7833,optionRight,80,10925,5,23,0,23,0,1,,,,,,,,,,,,,,,,,,,,,,,,,,,,,,,,,,,,,,,
,,,,,,,,2023-08-16_08h47.40.701,HF_wild_card,2022.2.4,MacIntel,5.454436366,5fcfb1fe79b8060e0662270a,64d2fd46c836a06233681665,64dc7dd5fcf2642c89e295ca,,,,,,,sngl,resources/DY.BMP,resources/Empty.png,Door4,-0.393379697,-0.007654444,1,0,0,1.4378,optionLeft,80,11005,5,24,0,24,0,1,,,,,,,,,,,,,,,,,,,,,,,,,,,,,,,,,,,,,,,
,,,,,,,,2023-08-16_08h47.40.701,HF_wild_card,2022.2.4,MacIntel,5.454436366,5fcfb1fe79b8060e0662270a,64d2fd46c836a06233681665,64dc7dd5fcf2642c89e295ca,,,,,,,ctch,resources/DG.BMP,resources/DB.BMP,Door3,-0.380520683,-0.029584763,1,0,0,1.5626,optionLeft,70,11075,5,25,0,25,0,1,,,,,,,,,,,,,,,,,,,,,,,,,,,,,,,,,,,,,,,
,,,,,,,,2023-08-16_08h47.40.701,HF_wild_card,2022.2.4,MacIntel,5.454436366,5fcfb1fe79b8060e0662270a,64d2fd46c836a06233681665,64dc7dd5fcf2642c89e295ca,,,,,,,sngl,resources/Empty.png,resources/DG.BMP,Door3,0.404646857,-0.025830925,1,0,0,2.664,optionRight,70,11145,5,26,0,26,0,1,,,,,,,,,,,,,,,,,,,,,,,,,,,,,,,,,,,,,,,
,,,,,,,,2023-08-16_08h47.40.701,HF_wild_card,2022.2.4,MacIntel,5.454436366,5fcfb1fe79b8060e0662270a,64d2fd46c836a06233681665,64dc7dd5fcf2642c89e295ca,,,,,,,ctch,resources/DY.BMP,resources/DBN.BMP,Door4,-0.378821577,-0.029246071,1,0,0,1.7737,optionLeft,80,11225,5,27,0,27,0,1,,,,,,,,,,,,,,,,,,,,,,,,,,,,,,,,,,,,,,,
,,,,,,,,2023-08-16_08h47.40.701,HF_wild_card,2022.2.4,MacIntel,5.454436366,5fcfb1fe79b8060e0662270a,64d2fd46c836a06233681665,64dc7dd5fcf2642c89e295ca,,,,,,,decisionTrl,resources/DG.BMP,resources/DY.BMP,Door4,0.403472724,-0.028484014,1,0,0,4.8473,optionRight,80,11305,5,28,0,28,0,1,,,,,,,,,,,,,,,,,,,,,,,,,,,,,,,,,,,,,,,
,,,,,,,,2023-08-16_08h47.40.701,HF_wild_card,2022.2.4,MacIntel,5.454436366,5fcfb1fe79b8060e0662270a,64d2fd46c836a06233681665,64dc7dd5fcf2642c89e295ca,,,,,,,sngl,resources/Empty.png,resources/DR.BMP,WildCard_Ex,0.394627213,-0.006683526,1,0,0,2.6727,optionRight,55,11360,5,29,0,29,0,1,,,,,,,,,,,,,,,,,,,,,,,,,,,,,,,,,,,,,,,
,,,,,,,,2023-08-16_08h47.40.701,HF_wild_card,2022.2.4,MacIntel,5.454436366,5fcfb1fe79b8060e0662270a,64d2fd46c836a06233681665,64dc7dd5fcf2642c89e295ca,,,,,,,decisionTrl,resources/DBN.BMP,resources/DB.BMP,Door1,-0.394350614,-0.005396496,1,0,0,2.2249,optionLeft,30,11390,5,30,0,30,0,1,,,,,,,,,,,,,,,,,,,,,,,,,,,,,,,,,,,,,,,
,,,,,,,,2023-08-16_08h47.40.701,HF_wild_card,2022.2.4,MacIntel,5.454436366,5fcfb1fe79b8060e0662270a,64d2fd46c836a06233681665,64dc7dd5fcf2642c89e295ca,,,,,,,decisionTrl,resources/DG.BMP,resources/DR.BMP,Door3,-0.377003929,-0.028258219,1,0,0,1.559,optionLeft,70,11460,5,31,0,31,0,1,,,,,,,,,,,,,,,,,,,,,,,,,,,,,,,,,,,,,,,
,,,,,,,,2023-08-16_08h47.40.701,HF_wild_card,2022.2.4,MacIntel,5.454436366,5fcfb1fe79b8060e0662270a,64d2fd46c836a06233681665,64dc7dd5fcf2642c89e295ca,,,,,,,sngl,resources/Empty.png,resources/DB.BMP,Door2,0.39494897,0.000186281,1,0,0,1.6165,optionRight,20,11480,5,32,0,32,0,1,,,,,,,,,,,,,,,,,,,,,,,,,,,,,,,,,,,,,,,
,,,,,,,,2023-08-16_08h47.40.701,HF_wild_card,2022.2.4,MacIntel,5.454436366,5fcfb1fe79b8060e0662270a,64d2fd46c836a06233681665,64dc7dd5fcf2642c89e295ca,,,,,,,decisionTrl,resources/DR.BMP,resources/DB.BMP,WildCard_Ex,-0.40602985,0.001484601,1,0,0,2.4325,optionLeft,55,11535,5,33,0,33,0,1,,,,,,,,,,,,,,,,,,,,,,,,,,,,,,,,,,,,,,,
,,,,,,,,2023-08-16_08h47.40.701,HF_wild_card,2022.2.4,MacIntel,5.454436366,5fcfb1fe79b8060e0662270a,64d2fd46c836a06233681665,64dc7dd5fcf2642c89e295ca,,,,,,,decisionTrl,resources/DB.BMP,resources/DBN.BMP,Door1,0.411313448,-0.000299178,1,0,0,2.479,optionRight,30,11565,5,34,0,34,0,1,,,,,,,,,,,,,,,,,,,,,,,,,,,,,,,,,,,,,,,
,,,,,,,,2023-08-16_08h47.40.701,HF_wild_card,2022.2.4,MacIntel,5.454436366,5fcfb1fe79b8060e0662270a,64d2fd46c836a06233681665,64dc7dd5fcf2642c89e295ca,,,,,,,ctch,resources/DY.BMP,resources/DBN.BMP,Door4,-0.373142838,-0.031233065,1,0,0,1.5662,optionLeft,60,11625,5,35,0,35,0,1,,,,,,,,,,,,,,,,,,,,,,,,,,,,,,,,,,,,,,,
,,,,,,,,2023-08-16_08h47.40.701,HF_wild_card,2022.2.4,MacIntel,5.454436366,5fcfb1fe79b8060e0662270a,64d2fd46c836a06233681665,64dc7dd5fcf2642c89e295ca,,,,,,,decisionTrl,resources/DB.BMP,resources/DBN.BMP,Door1,0.388948474,-0.002523257,1,0,0,2.6427,optionRight,30,11655,5,36,0,36,0,1,,,,,,,,,,,,,,,,,,,,,,,,,,,,,,,,,,,,,,,
,,,,,,,,2023-08-16_08h47.40.701,HF_wild_card,2022.2.4,MacIntel,5.454436366,5fcfb1fe79b8060e0662270a,64d2fd46c836a06233681665,64dc7dd5fcf2642c89e295ca,,,,,,,decisionTrl,resources/DY.BMP,resources/DG.BMP,Door4,-0.392092666,-0.022511741,1,0,0,1.7972,optionLeft,80,11735,5,37,0,37,0,1,,,,,,,,,,,,,,,,,,,,,,,,,,,,,,,,,,,,,,,
,,,,,,,,2023-08-16_08h47.40.701,HF_wild_card,2022.2.4,MacIntel,5.454436366,5fcfb1fe79b8060e0662270a,64d2fd46c836a06233681665,64dc7dd5fcf2642c89e295ca,,,,,,,decisionTrl,resources/DY.BMP,resources/DR.BMP,Door4,-0.387277592,-0.0064916,1,0,0,2.0043,optionLeft,80,11815,5,38,0,38,0,1,,,,,,,,,,,,,,,,,,,,,,,,,,,,,,,,,,,,,,,
,,,,,,,,2023-08-16_08h47.40.701,HF_wild_card,2022.2.4,MacIntel,5.454436366,5fcfb1fe79b8060e0662270a,64d2fd46c836a06233681665,64dc7dd5fcf2642c89e295ca,,,,,,,ctch,resources/DG.BMP,resources/DB.BMP,Door3,-0.381576273,-0.023618136,1,0,0,2.2125,optionLeft,70,11885,5,39,0,39,0,1,,,,,,,,,,,,,,,,,,,,,,,,,,,,,,,,,,,,,,,
,,,,,,,,2023-08-16_08h47.40.701,HF_wild_card,2022.2.4,MacIntel,5.454436366,5fcfb1fe79b8060e0662270a,64d2fd46c836a06233681665,64dc7dd5fcf2642c89e295ca,,,,,,,decisionTrl,resources/DR.BMP,resources/DG.BMP,Door3,0.403128387,-0.043696938,1,0,0,2.2759,optionRight,70,11955,5,40,0,40,0,1,,,,,,,,,,,,,,,,,,,,,,,,,,,,,,,,,,,,,,,
,,,,,,,,2023-08-16_08h47.40.701,HF_wild_card,2022.2.4,MacIntel,5.454436366,5fcfb1fe79b8060e0662270a,64d2fd46c836a06233681665,64dc7dd5fcf2642c89e295ca,,,,,,,sngl,resources/Empty.png,resources/DBN.BMP,Door1,0.398313313,-0.012757406,1,0,0,3.1524,optionRight,30,11985,5,41,0,41,0,1,,,,,,,,,,,,,,,,,,,,,,,,,,,,,,,,,,,,,,,
,,,,,,,,2023-08-16_08h47.40.701,HF_wild_card,2022.2.4,MacIntel,5.454436366,5fcfb1fe79b8060e0662270a,64d2fd46c836a06233681665,64dc7dd5fcf2642c89e295ca,,,,,,,decisionTrl,resources/DG.BMP,resources/DY.BMP,Door3,-0.37847724,-0.017250723,1,0,0,1.5693,optionLeft,70,12055,5,42,0,42,0,1,,,,,,,,,,,,,,,,,,,,,,,,,,,,,,,,,,,,,,,
,,,,,,,,2023-08-16_08h47.40.701,HF_wild_card,2022.2.4,MacIntel,5.454436366,5fcfb1fe79b8060e0662270a,64d2fd46c836a06233681665,64dc7dd5fcf2642c89e295ca,,,,,,,sngl,resources/Empty.png,resources/DY.BMP,Door4,0.422134664,-0.021162617,1,0,0,1.4314,optionRight,60,12115,5,43,0,43,0,1,,,,,,,,,,,,,,,,,,,,,,,,,,,,,,,,,,,,,,,
,,,,,,,,2023-08-16_08h47.40.701,HF_wild_card,2022.2.4,MacIntel,5.454436366,5fcfb1fe79b8060e0662270a,64d2fd46c836a06233681665,64dc7dd5fcf2642c89e295ca,,,,,,,,,,,,,,,,,,,,,,,,,,4,0,4,0,1,,,,,,,,,,,,,,,,,,,,,,,,,,,,,,,,,,
,,,,,,,,2023-08-16_08h47.40.701,HF_wild_card,2022.2.4,MacIntel,5.454436366,5fcfb1fe79b8060e0662270a,64d2fd46c836a06233681665,64dc7dd5fcf2642c89e295ca,,,,,,,ctch,resources/DBN.BMP,resources/DY.BMP,Door4,0.442614252,-0.039587473,1,0,0,2.055,optionRight,60,12175,6,0,0,0,0,1,,,,,,,,,,,,,,,,,,,,,,,,,,,,,,,,,,,,,,,
,,,,,,,,2023-08-16_08h47.40.701,HF_wild_card,2022.2.4,MacIntel,5.454436366,5fcfb1fe79b8060e0662270a,64d2fd46c836a06233681665,64dc7dd5fcf2642c89e295ca,,,,,,,decisionTrl,resources/DR.BMP,resources/DG.BMP,Door3,0.410658643,-0.000237085,1,0,0,2.0245,optionRight,70,12245,6,1,0,1,0,1,,,,,,,,,,,,,,,,,,,,,,,,,,,,,,,,,,,,,,,
,,,,,,,,2023-08-16_08h47.40.701,HF_wild_card,2022.2.4,MacIntel,5.454436366,5fcfb1fe79b8060e0662270a,64d2fd46c836a06233681665,64dc7dd5fcf2642c89e295ca,,,,,,,sngl,resources/DR.BMP,resources/Empty.png,WildCard_Ex,-0.399696306,-0.014710531,1,0,0,1.4357,optionLeft,45,12290,6,2,0,2,0,1,,,,,,,,,,,,,,,,,,,,,,,,,,,,,,,,,,,,,,,
,,,,,,,,2023-08-16_08h47.40.701,HF_wild_card,2022.2.4,MacIntel,5.454436366,5fcfb1fe79b8060e0662270a,64d2fd46c836a06233681665,64dc7dd5fcf2642c89e295ca,,,,,,,sngl,resources/Empty.png,resources/DY.BMP,Door4,0.405290372,-0.011453441,1,0,0,3.4694,optionRight,80,12370,6,3,0,3,0,1,,,,,,,,,,,,,,,,,,,,,,,,,,,,,,,,,,,,,,,
,,,,,,,,2023-08-16_08h47.40.701,HF_wild_card,2022.2.4,MacIntel,5.454436366,5fcfb1fe79b8060e0662270a,64d2fd46c836a06233681665,64dc7dd5fcf2642c89e295ca,,,,,,,ctch,resources/DY.BMP,resources/DBN.BMP,Door4,-0.399662437,-0.024425352,1,0,0,2.0192,optionLeft,80,12450,6,4,0,4,0,1,,,,,,,,,,,,,,,,,,,,,,,,,,,,,,,,,,,,,,,
,,,,,,,,2023-08-16_08h47.40.701,HF_wild_card,2022.2.4,MacIntel,5.454436366,5fcfb1fe79b8060e0662270a,64d2fd46c836a06233681665,64dc7dd5fcf2642c89e295ca,,,,,,,sngl,resources/DY.BMP,resources/Empty.png,Door4,-0.433960667,-0.025881729,1,0,0,1.4139,optionLeft,60,12510,6,5,0,5,0,1,,,,,,,,,,,,,,,,,,,,,,,,,,,,,,,,,,,,,,,
,,,,,,,,2023-08-16_08h47.40.701,HF_wild_card,2022.2.4,MacIntel,5.454436366,5fcfb1fe79b8060e0662270a,64d2fd46c836a06233681665,64dc7dd5fcf2642c89e295ca,,,,,,,decisionTrl,resources/DY.BMP,resources/DG.BMP,Door4,-0.396292449,-0.010245439,1,0,0,1.5545,optionLeft,80,12590,6,6,0,6,0,1,,,,,,,,,,,,,,,,,,,,,,,,,,,,,,,,,,,,,,,
,,,,,,,,2023-08-16_08h47.40.701,HF_wild_card,2022.2.4,MacIntel,5.454436366,5fcfb1fe79b8060e0662270a,64d2fd46c836a06233681665,64dc7dd5fcf2642c89e295ca,,,,,,,decisionTrl,resources/DG.BMP,resources/DY.BMP,Door4,0.415693867,-0.028269509,1,0,0,1.7724,optionRight,60,12650,6,7,0,7,0,1,,,,,,,,,,,,,,,,,,,,,,,,,,,,,,,,,,,,,,,
,,,,,,,,2023-08-16_08h47.40.701,HF_wild_card,2022.2.4,MacIntel,5.454436366,5fcfb1fe79b8060e0662270a,64d2fd46c836a06233681665,64dc7dd5fcf2642c89e295ca,,,,,,,ctch,resources/DY.BMP,resources/DBN.BMP,Door4,-0.417827628,-0.022280302,1,0,0,1.3669,optionLeft,80,12730,6,8,0,8,0,1,,,,,,,,,,,,,,,,,,,,,,,,,,,,,,,,,,,,,,,
,,,,,,,,2023-08-16_08h47.40.701,HF_wild_card,2022.2.4,MacIntel,5.454436366,5fcfb1fe79b8060e0662270a,64d2fd46c836a06233681665,64dc7dd5fcf2642c89e295ca,,,,,,,sngl,resources/DR.BMP,resources/Empty.png,WildCard_Ex,-0.408801481,0.003590137,1,0,0,1.4383,optionLeft,55,12785,6,9,0,9,0,1,,,,,,,,,,,,,,,,,,,,,,,,,,,,,,,,,,,,,,,
,,,,,,,,2023-08-16_08h47.40.701,HF_wild_card,2022.2.4,MacIntel,5.454436366,5fcfb1fe79b8060e0662270a,64d2fd46c836a06233681665,64dc7dd5fcf2642c89e295ca,,,,,,,decisionTrl,resources/DG.BMP,resources/DY.BMP,Door4,0.393159547,-0.036172327,1,0,0,1.7969,optionRight,60,12845,6,10,0,10,0,1,,,,,,,,,,,,,,,,,,,,,,,,,,,,,,,,,,,,,,,
,,,,,,,,2023-08-16_08h47.40.701,HF_wild_card,2022.2.4,MacIntel,5.454436366,5fcfb1fe79b8060e0662270a,64d2fd46c836a06233681665,64dc7dd5fcf2642c89e295ca,,,,,,,ctch,resources/DB.BMP,resources/DG.BMP,Door3,0.379256232,-0.025655934,1,0,0,1.7683,optionRight,70,12915,6,11,0,11,0,1,,,,,,,,,,,,,,,,,,,,,,,,,,,,,,,,,,,,,,,
,,,,,,,,2023-08-16_08h47.40.701,HF_wild_card,2022.2.4,MacIntel,5.454436366,5fcfb1fe79b8060e0662270a,64d2fd46c836a06233681665,64dc7dd5fcf2642c89e295ca,,,,,,,decisionTrl,resources/DBN.BMP,resources/DR.BMP,WildCard_Ex,0.353927701,-0.01542743,1,0,0,1.7772,optionRight,55,12970,6,12,0,12,0,1,,,,,,,,,,,,,,,,,,,,,,,,,,,,,,,,,,,,,,,
,,,,,,,,2023-08-16_08h47.40.701,HF_wild_card,2022.2.4,MacIntel,5.454436366,5fcfb1fe79b8060e0662270a,64d2fd46c836a06233681665,64dc7dd5fcf2642c89e295ca,,,,,,,decisionTrl,resources/DR.BMP,resources/DB.BMP,WildCard_Ex,-0.390500813,-0.03842463,1,0,0,6.112,optionLeft,45,13015,6,13,0,13,0,1,,,,,,,,,,,,,,,,,,,,,,,,,,,,,,,,,,,,,,,
,,,,,,,,2023-08-16_08h47.40.701,HF_wild_card,2022.2.4,MacIntel,5.454436366,5fcfb1fe79b8060e0662270a,64d2fd46c836a06233681665,64dc7dd5fcf2642c89e295ca,,,,,,,decisionTrl,resources/DB.BMP,resources/DBN.BMP,Door2,-0.179681855,0.01542743,1,0,0,2.2671,optionLeft,20,13035,6,14,0,14,0,1,,,,,,,,,,,,,,,,,,,,,,,,,,,,,,,,,,,,,,,
,,,,,,,,2023-08-16_08h47.40.701,HF_wild_card,2022.2.4,MacIntel,5.454436366,5fcfb1fe79b8060e0662270a,64d2fd46c836a06233681665,64dc7dd5fcf2642c89e295ca,,,,,,,ctch,resources/DG.BMP,resources/DB.BMP,Door3,-0.338686552,-0.024041501,1,0,0,2.9419,optionLeft,70,13105,6,15,0,15,0,1,,,,,,,,,,,,,,,,,,,,,,,,,,,,,,,,,,,,,,,
,,,,,,,,2023-08-16_08h47.40.701,HF_wild_card,2022.2.4,MacIntel,5.454436366,5fcfb1fe79b8060e0662270a,64d2fd46c836a06233681665,64dc7dd5fcf2642c89e295ca,,,,,,,decisionTrl,resources/DG.BMP,resources/DY.BMP,Door3,-0.406233065,-0.054941519,1,0,0,1.5791,optionLeft,70,13175,6,16,0,16,0,1,,,,,,,,,,,,,,,,,,,,,,,,,,,,,,,,,,,,,,,
,,,,,,,,2023-08-16_08h47.40.701,HF_wild_card,2022.2.4,MacIntel,5.454436366,5fcfb1fe79b8060e0662270a,64d2fd46c836a06233681665,64dc7dd5fcf2642c89e295ca,,,,,,,sngl,resources/DG.BMP,resources/Empty.png,Door3,-0.331478053,-0.019328035,1,0,0,1.6231,optionLeft,70,13245,6,17,0,17,0,1,,,,,,,,,,,,,,,,,,,,,,,,,,,,,,,,,,,,,,,
,,,,,,,,2023-08-16_08h47.40.701,HF_wild_card,2022.2.4,MacIntel,5.454436366,5fcfb1fe79b8060e0662270a,64d2fd46c836a06233681665,64dc7dd5fcf2642c89e295ca,,,,,,,decisionTrl,resources/DG.BMP,resources/DY.BMP,Door4,0.435089641,-0.020564261,1,0,0,1.6028,optionRight,60,13305,6,18,0,18,0,1,,,,,,,,,,,,,,,,,,,,,,,,,,,,,,,,,,,,,,,
,,,,,,,,2023-08-16_08h47.40.701,HF_wild_card,2022.2.4,MacIntel,5.454436366,5fcfb1fe79b8060e0662270a,64d2fd46c836a06233681665,64dc7dd5fcf2642c89e295ca,,,,,,,ctch,resources/DB.BMP,resources/DG.BMP,Door3,0.370009935,-0.006327899,1,0,0,1.5668,optionRight,70,13375,6,19,0,19,0,1,,,,,,,,,,,,,,,,,,,,,,,,,,,,,,,,,,,,,,,
,,,,,,,,2023-08-16_08h47.40.701,HF_wild_card,2022.2.4,MacIntel,5.454436366,5fcfb1fe79b8060e0662270a,64d2fd46c836a06233681665,64dc7dd5fcf2642c89e295ca,,,,,,,decisionTrl,resources/DBN.BMP,resources/DB.BMP,Door1,-0.351901192,-0.040202764,1,0,0,1.7766,optionLeft,30,13405,6,20,0,20,0,1,,,,,,,,,,,,,,,,,,,,,,,,,,,,,,,,,,,,,,,
,,,,,,,,2023-08-16_08h47.40.701,HF_wild_card,2022.2.4,MacIntel,5.454436366,5fcfb1fe79b8060e0662270a,64d2fd46c836a06233681665,64dc7dd5fcf2642c89e295ca,,,,,,,sngl,resources/Empty.png,resources/DR.BMP,WildCard_Ex,0.374424223,-0.017521676,1,0,0,1.4441,optionRight,55,13460,6,21,0,21,0,1,,,,,,,,,,,,,,,,,,,,,,,,,,,,,,,,,,,,,,,
,,,,,,,,2023-08-16_08h47.40.701,HF_wild_card,2022.2.4,MacIntel,5.454436366,5fcfb1fe79b8060e0662270a,64d2fd46c836a06233681665,64dc7dd5fcf2642c89e295ca,,,,,,,decisionTrl,resources/DY.BMP,resources/DG.BMP,Door4,-0.378290959,-0.034580473,1,0,0,1.8022,optionLeft,60,13520,6,22,0,22,0,1,,,,,,,,,,,,,,,,,,,,,,,,,,,,,,,,,,,,,,,
,,,,,,,,2023-08-16_08h47.40.701,HF_wild_card,2022.2.4,MacIntel,5.454436366,5fcfb1fe79b8060e0662270a,64d2fd46c836a06233681665,64dc7dd5fcf2642c89e295ca,,,,,,,decisionTrl,resources/DY.BMP,resources/DG.BMP,Door3,0.401655076,-0.020332822,1,0,0,1.57,optionRight,70,13590,6,23,0,23,0,1,,,,,,,,,,,,,,,,,,,,,,,,,,,,,,,,,,,,,,,
,,,,,,,,2023-08-16_08h47.40.701,HF_wild_card,2022.2.4,MacIntel,5.454436366,5fcfb1fe79b8060e0662270a,64d2fd46c836a06233681665,64dc7dd5fcf2642c89e295ca,,,,,,,decisionTrl,resources/DB.BMP,resources/DBN.BMP,Door1,0.39322164,-0.030437139,1,0,0,2.0467,optionRight,30,13620,6,24,0,24,0,1,,,,,,,,,,,,,,,,,,,,,,,,,,,,,,,,,,,,,,,
,,,,,,,,2023-08-16_08h47.40.701,HF_wild_card,2022.2.4,MacIntel,5.454436366,5fcfb1fe79b8060e0662270a,64d2fd46c836a06233681665,64dc7dd5fcf2642c89e295ca,,,,,,,decisionTrl,resources/DY.BMP,resources/DG.BMP,Door3,0.375886245,0.034422417,1,0,0,2.7151,optionRight,70,13690,6,25,0,25,0,1,,,,,,,,,,,,,,,,,,,,,,,,,,,,,,,,,,,,,,,
,,,,,,,,2023-08-16_08h47.40.701,HF_wild_card,2022.2.4,MacIntel,5.454436366,5fcfb1fe79b8060e0662270a,64d2fd46c836a06233681665,64dc7dd5fcf2642c89e295ca,,,,,,,decisionTrl,resources/DBN.BMP,resources/DB.BMP,Door1,-0.401751039,-0.02625429,1,0,0,2.8716,optionLeft,30,13720,6,26,0,26,0,1,,,,,,,,,,,,,,,,,,,,,,,,,,,,,,,,,,,,,,,
,,,,,,,,2023-08-16_08h47.40.701,HF_wild_card,2022.2.4,MacIntel,5.454436366,5fcfb1fe79b8060e0662270a,64d2fd46c836a06233681665,64dc7dd5fcf2642c89e295ca,,,,,,,sngl,resources/Empty.png,resources/DB.BMP,Door2,0.365494039,-0.041105943,1,0,0,1.6441,optionRight,40,13760,6,27,0,27,0,1,,,,,,,,,,,,,,,,,,,,,,,,,,,,,,,,,,,,,,,
,,,,,,,,2023-08-16_08h47.40.701,HF_wild_card,2022.2.4,MacIntel,5.454436366,5fcfb1fe79b8060e0662270a,64d2fd46c836a06233681665,64dc7dd5fcf2642c89e295ca,,,,,,,sngl,resources/Empty.png,resources/DG.BMP,Door3,0.369247878,-0.019514315,1,0,0,1.628,optionRight,70,13830,6,28,0,28,0,1,,,,,,,,,,,,,,,,,,,,,,,,,,,,,,,,,,,,,,,
,,,,,,,,2023-08-16_08h47.40.701,HF_wild_card,2022.2.4,MacIntel,5.454436366,5fcfb1fe79b8060e0662270a,64d2fd46c836a06233681665,64dc7dd5fcf2642c89e295ca,,,,,,,sngl,resources/DBN.BMP,resources/Empty.png,Door1,-0.420909727,-0.028783192,1,0,0,1.42,optionLeft,30,13860,6,29,0,29,0,1,,,,,,,,,,,,,,,,,,,,,,,,,,,,,,,,,,,,,,,
,,,,,,,,2023-08-16_08h47.40.701,HF_wild_card,2022.2.4,MacIntel,5.454436366,5fcfb1fe79b8060e0662270a,64d2fd46c836a06233681665,64dc7dd5fcf2642c89e295ca,,,,,,,ctch,resources/DBN.BMP,resources/DY.BMP,Door4,0.391149973,-5.08038E-05,1,0,0,1.347,optionRight,80,13940,6,30,0,30,0,1,,,,,,,,,,,,,,,,,,,,,,,,,,,,,,,,,,,,,,,
,,,,,,,,2023-08-16_08h47.40.701,HF_wild_card,2022.2.4,MacIntel,5.454436366,5fcfb1fe79b8060e0662270a,64d2fd46c836a06233681665,64dc7dd5fcf2642c89e295ca,,,,,,,decisionTrl,resources/DG.BMP,resources/DR.BMP,Door3,-0.376524115,-0.013892025,1,0,0,2.7304,optionLeft,70,14010,6,31,0,31,0,1,,,,,,,,,,,,,,,,,,,,,,,,,,,,,,,,,,,,,,,
,,,,,,,,2023-08-16_08h47.40.701,HF_wild_card,2022.2.4,MacIntel,5.454436366,5fcfb1fe79b8060e0662270a,64d2fd46c836a06233681665,64dc7dd5fcf2642c89e295ca,,,,,,,decisionTrl,resources/DB.BMP,resources/DBN.BMP,Door1,0.4053694,0.028935603,1,0,0,1.8108,optionRight,30,14040,6,32,0,32,0,1,,,,,,,,,,,,,,,,,,,,,,,,,,,,,,,,,,,,,,,
,,,,,,,,2023-08-16_08h47.40.701,HF_wild_card,2022.2.4,MacIntel,5.454436366,5fcfb1fe79b8060e0662270a,64d2fd46c836a06233681665,64dc7dd5fcf2642c89e295ca,,,,,,,sngl,resources/DB.BMP,resources/Empty.png,Door2,-0.343806449,-0.006948835,1,0,0,1.4318,optionLeft,20,14060,6,33,0,33,0,1,,,,,,,,,,,,,,,,,,,,,,,,,,,,,,,,,,,,,,,
,,,,,,,,2023-08-16_08h47.40.701,HF_wild_card,2022.2.4,MacIntel,5.454436366,5fcfb1fe79b8060e0662270a,64d2fd46c836a06233681665,64dc7dd5fcf2642c89e295ca,,,,,,,decisionTrl,resources/DR.BMP,resources/DBN.BMP,WildCard_Ex,-0.446464053,-0.054190751,1,0,0,2.0093,optionLeft,45,14105,6,34,0,34,0,1,,,,,,,,,,,,,,,,,,,,,,,,,,,,,,,,,,,,,,,
,,,,,,,,2023-08-16_08h47.40.701,HF_wild_card,2022.2.4,MacIntel,5.454436366,5fcfb1fe79b8060e0662270a,64d2fd46c836a06233681665,64dc7dd5fcf2642c89e295ca,,,,,,,sngl,resources/Empty.png,resources/DR.BMP,WildCard_Ex,0.382067377,-0.032175759,1,0,0,3.2251,optionRight,45,14150,6,35,0,35,0,1,,,,,,,,,,,,,,,,,,,,,,,,,,,,,,,,,,,,,,,
,,,,,,,,2023-08-16_08h47.40.701,HF_wild_card,2022.2.4,MacIntel,5.454436366,5fcfb1fe79b8060e0662270a,64d2fd46c836a06233681665,64dc7dd5fcf2642c89e295ca,,,,,,,decisionTrl,resources/DBN.BMP,resources/DB.BMP,Door1,-0.36243452,-0.009517251,1,0,0,1.6291,optionLeft,30,14180,6,36,0,36,0,1,,,,,,,,,,,,,,,,,,,,,,,,,,,,,,,,,,,,,,,
,,,,,,,,2023-08-16_08h47.40.701,HF_wild_card,2022.2.4,MacIntel,5.454436366,5fcfb1fe79b8060e0662270a,64d2fd46c836a06233681665,64dc7dd5fcf2642c89e295ca,,,,,,,decisionTrl,resources/DY.BMP,resources/DR.BMP,Door4,-0.389947616,-0.024171333,1,0,0,1.5542,optionLeft,80,14260,6,37,0,37,0,1,,,,,,,,,,,,,,,,,,,,,,,,,,,,,,,,,,,,,,,
,,,,,,,,2023-08-16_08h47.40.701,HF_wild_card,2022.2.4,MacIntel,5.454436366,5fcfb1fe79b8060e0662270a,64d2fd46c836a06233681665,64dc7dd5fcf2642c89e295ca,,,,,,,decisionTrl,resources/DB.BMP,resources/DBN.BMP,Door1,0.429619762,-0.02691474,1,0,0,2.0033,optionRight,30,14290,6,38,0,38,0,1,,,,,,,,,,,,,,,,,,,,,,,,,,,,,,,,,,,,,,,
,,,,,,,,2023-08-16_08h47.40.701,HF_wild_card,2022.2.4,MacIntel,5.454436366,5fcfb1fe79b8060e0662270a,64d2fd46c836a06233681665,64dc7dd5fcf2642c89e295ca,,,,,,,decisionTrl,resources/DBN.BMP,resources/DB.BMP,Door1,-0.398556042,0.008224576,1,0,0,1.5759,optionLeft,30,14320,6,39,0,39,0,1,,,,,,,,,,,,,,,,,,,,,,,,,,,,,,,,,,,,,,,
,,,,,,,,2023-08-16_08h47.40.701,HF_wild_card,2022.2.4,MacIntel,5.454436366,5fcfb1fe79b8060e0662270a,64d2fd46c836a06233681665,64dc7dd5fcf2642c89e295ca,,,,,,,sngl,resources/Empty.png,resources/DBN.BMP,Door1,0.393029715,-0.02778405,1,0,0,1.4554,optionRight,30,14350,6,40,0,40,0,1,,,,,,,,,,,,,,,,,,,,,,,,,,,,,,,,,,,,,,,
,,,,,,,,2023-08-16_08h47.40.701,HF_wild_card,2022.2.4,MacIntel,5.454436366,5fcfb1fe79b8060e0662270a,64d2fd46c836a06233681665,64dc7dd5fcf2642c89e295ca,,,,,,,decisionTrl,resources/DB.BMP,resources/DR.BMP,WildCard_Ex,0.313640264,-0.03144757,1,0,0,1.8047,optionRight,55,14405,6,41,0,41,0,1,,,,,,,,,,,,,,,,,,,,,,,,,,,,,,,,,,,,,,,
,,,,,,,,2023-08-16_08h47.40.701,HF_wild_card,2022.2.4,MacIntel,5.454436366,5fcfb1fe79b8060e0662270a,64d2fd46c836a06233681665,64dc7dd5fcf2642c89e295ca,,,,,,,decisionTrl,resources/DR.BMP,resources/DY.BMP,Door4,0.421829841,-0.032661217,1,0,0,1.7811,optionRight,60,14465,6,42,0,42,0,1,,,,,,,,,,,,,,,,,,,,,,,,,,,,,,,,,,,,,,,
,,,,,,,,2023-08-16_08h47.40.701,HF_wild_card,2022.2.4,MacIntel,5.454436366,5fcfb1fe79b8060e0662270a,64d2fd46c836a06233681665,64dc7dd5fcf2642c89e295ca,,,,,,,ctch,resources/DG.BMP,resources/DB.BMP,Door3,-0.380458589,-0.033666004,1,0,0,1.5673,optionLeft,70,14535,6,43,0,43,0,1,,,,,,,,,,,,,,,,,,,,,,,,,,,,,,,,,,,,,,,
,,,,,,,,2023-08-16_08h47.40.701,HF_wild_card,2022.2.4,MacIntel,5.454436366,5fcfb1fe79b8060e0662270a,64d2fd46c836a06233681665,64dc7dd5fcf2642c89e295ca,,,,,,,,,,,,,,,,,,,,,,,,,,5,0,5,0,1,,,,,,,,,,,,,,,,,,,,,,,,,,,,,,,,,,
,,,,,,,,2023-08-16_08h47.40.701,HF_wild_card,2022.2.4,MacIntel,5.454436366,5fcfb1fe79b8060e0662270a,64d2fd46c836a06233681665,64dc7dd5fcf2642c89e295ca,,,,,,,decisionTrl,resources/DY.BMP,resources/DG.BMP,Door4,-0.36175149,-0.074749368,1,0,0,1.7739,optionLeft,80,14615,7,0,0,0,0,1,,,,,,,,,,,,,,,,,,,,,,,,,,,,,,,,,,,,,,,
,,,,,,,,2023-08-16_08h47.40.701,HF_wild_card,2022.2.4,MacIntel,5.454436366,5fcfb1fe79b8060e0662270a,64d2fd46c836a06233681665,64dc7dd5fcf2642c89e295ca,,,,,,,decisionTrl,resources/DG.BMP,resources/DY.BMP,Door4,0.415276147,-0.053298862,1,0,0,1.5785,optionRight,60,14675,7,1,0,1,0,1,,,,,,,,,,,,,,,,,,,,,,,,,,,,,,,,,,,,,,,
,,,,,,,,2023-08-16_08h47.40.701,HF_wild_card,2022.2.4,MacIntel,5.454436366,5fcfb1fe79b8060e0662270a,64d2fd46c836a06233681665,64dc7dd5fcf2642c89e295ca,,,,,,,decisionTrl,resources/DG.BMP,resources/DY.BMP,Door4,0.401226066,-0.027400199,1,0,0,2.0092,optionRight,60,14735,7,2,0,2,0,1,,,,,,,,,,,,,,,,,,,,,,,,,,,,,,,,,,,,,,,
,,,,,,,,2023-08-16_08h47.40.701,HF_wild_card,2022.2.4,MacIntel,5.454436366,5fcfb1fe79b8060e0662270a,64d2fd46c836a06233681665,64dc7dd5fcf2642c89e295ca,,,,,,,decisionTrl,resources/DY.BMP,resources/DG.BMP,Door4,-0.407796694,-0.027840499,1,0,0,2.0238,optionLeft,80,14815,7,3,0,3,0,1,,,,,,,,,,,,,,,,,,,,,,,,,,,,,,,,,,,,,,,
,,,,,,,,2023-08-16_08h47.40.701,HF_wild_card,2022.2.4,MacIntel,5.454436366,5fcfb1fe79b8060e0662270a,64d2fd46c836a06233681665,64dc7dd5fcf2642c89e295ca,,,,,,,ctch,resources/DBN.BMP,resources/DY.BMP,Door4,0.415710802,-0.020490878,1,0,0,1.8771,optionRight,60,14875,7,4,0,4,0,1,,,,,,,,,,,,,,,,,,,,,,,,,,,,,,,,,,,,,,,
,,,,,,,,2023-08-16_08h47.40.701,HF_wild_card,2022.2.4,MacIntel,5.454436366,5fcfb1fe79b8060e0662270a,64d2fd46c836a06233681665,64dc7dd5fcf2642c89e295ca,,,,,,,ctch,resources/DBN.BMP,resources/DY.BMP,Door4,0.388638006,-0.026773618,1,0,0,1.7686,optionRight,80,14955,7,5,0,5,0,1,,,,,,,,,,,,,,,,,,,,,,,,,,,,,,,,,,,,,,,
,,,,,,,,2023-08-16_08h47.40.701,HF_wild_card,2022.2.4,MacIntel,5.454436366,5fcfb1fe79b8060e0662270a,64d2fd46c836a06233681665,64dc7dd5fcf2642c89e295ca,,,,,,,decisionTrl,resources/DBN.BMP,resources/DB.BMP,Door1,-0.377771631,-0.012074377,1,0,0,1.9745,optionLeft,30,14985,7,6,0,6,0,1,,,,,,,,,,,,,,,,,,,,,,,,,,,,,,,,,,,,,,,
,,,,,,,,2023-08-16_08h47.40.701,HF_wild_card,2022.2.4,MacIntel,5.454436366,5fcfb1fe79b8060e0662270a,64d2fd46c836a06233681665,64dc7dd5fcf2642c89e295ca,,,,,,,ctch,resources/DBN.BMP,resources/DY.BMP,Door4,0.366617368,-0.030854859,1,0,0,1.7454,optionRight,80,15065,7,7,0,7,0,1,,,,,,,,,,,,,,,,,,,,,,,,,,,,,,,,,,,,,,,
,,,,,,,,2023-08-16_08h47.40.701,HF_wild_card,2022.2.4,MacIntel,5.454436366,5fcfb1fe79b8060e0662270a,64d2fd46c836a06233681665,64dc7dd5fcf2642c89e295ca,,,,,,,ctch,resources/DY.BMP,resources/DBN.BMP,Door4,-0.446921288,-0.024797914,1,0,0,1.7554,optionLeft,60,15125,7,8,0,8,0,1,,,,,,,,,,,,,,,,,,,,,,,,,,,,,,,,,,,,,,,
,,,,,,,,2023-08-16_08h47.40.701,HF_wild_card,2022.2.4,MacIntel,5.454436366,5fcfb1fe79b8060e0662270a,64d2fd46c836a06233681665,64dc7dd5fcf2642c89e295ca,,,,,,,ctch,resources/DB.BMP,resources/DG.BMP,Door3,0.386933255,-0.024272941,1,0,0,1.3059,optionRight,70,15195,7,9,0,9,0,1,,,,,,,,,,,,,,,,,,,,,,,,,,,,,,,,,,,,,,,
,,,,,,,,2023-08-16_08h47.40.701,HF_wild_card,2022.2.4,MacIntel,5.454436366,5fcfb1fe79b8060e0662270a,64d2fd46c836a06233681665,64dc7dd5fcf2642c89e295ca,,,,,,,decisionTrl,resources/DB.BMP,resources/DBN.BMP,Door1,0.408152321,0.001546694,1,0,0,1.8174,optionRight,30,15225,7,10,0,10,0,1,,,,,,,,,,,,,,,,,,,,,,,,,,,,,,,,,,,,,,,
,,,,,,,,2023-08-16_08h47.40.701,HF_wild_card,2022.2.4,MacIntel,5.454436366,5fcfb1fe79b8060e0662270a,64d2fd46c836a06233681665,64dc7dd5fcf2642c89e295ca,,,,,,,decisionTrl,resources/DY.BMP,resources/DG.BMP,Door4,-0.384901102,-0.019881232,1,0,0,2.2415,optionLeft,80,15305,7,11,0,11,0,1,,,,,,,,,,,,,,,,,,,,,,,,,,,,,,,,,,,,,,,
,,,,,,,,2023-08-16_08h47.40.701,HF_wild_card,2022.2.4,MacIntel,5.454436366,5fcfb1fe79b8060e0662270a,64d2fd46c836a06233681665,64dc7dd5fcf2642c89e295ca,,,,,,,decisionTrl,resources/DBN.BMP,resources/DB.BMP,Door1,-0.393554688,-0.004515896,1,0,0,2.9277,optionLeft,30,15335,7,12,0,12,0,1,,,,,,,,,,,,,,,,,,,,,,,,,,,,,,,,,,,,,,,
,,,,,,,,2023-08-16_08h47.40.701,HF_wild_card,2022.2.4,MacIntel,5.454436366,5fcfb1fe79b8060e0662270a,64d2fd46c836a06233681665,64dc7dd5fcf2642c89e295ca,,,,,,,ctch,resources/DY.BMP,resources/DBN.BMP,Door4,-0.373374277,-0.005323112,1,0,0,1.5679,optionLeft,80,15415,7,13,0,13,0,1,,,,,,,,,,,,,,,,,,,,,,,,,,,,,,,,,,,,,,,
,,,,,,,,2023-08-16_08h47.40.701,HF_wild_card,2022.2.4,MacIntel,5.454436366,5fcfb1fe79b8060e0662270a,64d2fd46c836a06233681665,64dc7dd5fcf2642c89e295ca,,,,,,,ctch,resources/DG.BMP,resources/DB.BMP,Door3,-0.386210712,-0.036844066,1,0,0,1.5406,optionLeft,70,15485,7,14,0,14,0,1,,,,,,,,,,,,,,,,,,,,,,,,,,,,,,,,,,,,,,,
,,,,,,,,2023-08-16_08h47.40.701,HF_wild_card,2022.2.4,MacIntel,5.454436366,5fcfb1fe79b8060e0662270a,64d2fd46c836a06233681665,64dc7dd5fcf2642c89e295ca,,,,,,,decisionTrl,resources/DBN.BMP,resources/DB.BMP,Door1,-0.318483562,-0.010437365,1,0,0,2.1993,optionLeft,30,15515,7,15,0,15,0,1,,,,,,,,,,,,,,,,,,,,,,,,,,,,,,,,,,,,,,,
,,,,,,,,2023-08-16_08h47.40.701,HF_wild_card,2022.2.4,MacIntel,5.454436366,5fcfb1fe79b8060e0662270a,64d2fd46c836a06233681665,64dc7dd5fcf2642c89e295ca,,,,,,,decisionTrl,resources/DG.BMP,resources/DY.BMP,Door4,0.362406295,-0.052378748,1,0,0,1.8487,optionRight,60,15575,7,16,0,16,0,1,,,,,,,,,,,,,,,,,,,,,,,,,,,,,,,,,,,,,,,
,,,,,,,,2023-08-16_08h47.40.701,HF_wild_card,2022.2.4,MacIntel,5.454436366,5fcfb1fe79b8060e0662270a,64d2fd46c836a06233681665,64dc7dd5fcf2642c89e295ca,,,,,,,decisionTrl,resources/DY.BMP,resources/DG.BMP,Door4,-0.385030934,-0.011679236,1,0,0,1.9937,optionLeft,80,15655,7,17,0,17,0,1,,,,,,,,,,,,,,,,,,,,,,,,,,,,,,,,,,,,,,,
,,,,,,,,2023-08-16_08h47.40.701,HF_wild_card,2022.2.4,MacIntel,5.454436366,5fcfb1fe79b8060e0662270a,64d2fd46c836a06233681665,64dc7dd5fcf2642c89e295ca,,,,,,,ctch,resources/DG.BMP,resources/DB.BMP,Door3,-0.338720421,-0.02277705,1,0,0,1.5301,optionLeft,70,15725,7,18,0,18,0,1,,,,,,,,,,,,,,,,,,,,,,,,,,,,,,,,,,,,,,,
,,,,,,,,2023-08-16_08h47.40.701,HF_wild_card,2022.2.4,MacIntel,5.454436366,5fcfb1fe79b8060e0662270a,64d2fd46c836a06233681665,64dc7dd5fcf2642c89e295ca,,,,,,,ctch,resources/DG.BMP,resources/DB.BMP,Door3,-0.375953983,-0.017487807,1,0,0,1.3251,optionLeft,70,15795,7,19,0,19,0,1,,,,,,,,,,,,,,,,,,,,,,,,,,,,,,,,,,,,,,,
,,,,,,,,2023-08-16_08h47.40.701,HF_wild_card,2022.2.4,MacIntel,5.454436366,5fcfb1fe79b8060e0662270a,64d2fd46c836a06233681665,64dc7dd5fcf2642c89e295ca,,,,,,,decisionTrl,resources/DY.BMP,resources/DG.BMP,Door4,-0.262695313,-0.012271947,1,0,0,2.246,optionLeft,60,15855,7,20,0,20,0,1,,,,,,,,,,,,,,,,,,,,,,,,,,,,,,,,,,,,,,,
,,,,,,,,2023-08-16_08h47.40.701,HF_wild_card,2022.2.4,MacIntel,5.454436366,5fcfb1fe79b8060e0662270a,64d2fd46c836a06233681665,64dc7dd5fcf2642c89e295ca,,,,,,,decisionTrl,resources/DB.BMP,resources/DBN.BMP,Door1,0.321655979,-0.017662798,1,0,0,1.5366,optionRight,30,15885,7,21,0,21,0,1,,,,,,,,,,,,,,,,,,,,,,,,,,,,,,,,,,,,,,,
,,,,,,,,2023-08-16_08h47.40.701,HF_wild_card,2022.2.4,MacIntel,5.454436366,5fcfb1fe79b8060e0662270a,64d2fd46c836a06233681665,64dc7dd5fcf2642c89e295ca,,,,,,,decisionTrl,resources/DG.BMP,resources/DY.BMP,Door4,0.334881909,-0.009065661,1,0,0,1.9853,optionRight,60,15945,7,22,0,22,0,1,,,,,,,,,,,,,,,,,,,,,,,,,,,,,,,,,,,,,,,
,,,,,,,,2023-08-16_08h47.40.701,HF_wild_card,2022.2.4,MacIntel,5.454436366,5fcfb1fe79b8060e0662270a,64d2fd46c836a06233681665,64dc7dd5fcf2642c89e295ca,,,,,,,decisionTrl,resources/DB.BMP,resources/DBN.BMP,Door1,0.34333228,-0.008591492,1,0,0,1.7597,optionRight,30,15975,7,23,0,23,0,1,,,,,,,,,,,,,,,,,,,,,,,,,,,,,,,,,,,,,,,
,,,,,,,,2023-08-16_08h47.40.701,HF_wild_card,2022.2.4,MacIntel,5.454436366,5fcfb1fe79b8060e0662270a,64d2fd46c836a06233681665,64dc7dd5fcf2642c89e295ca,,,,,,,decisionTrl,resources/DY.BMP,resources/DG.BMP,Door3,0.377274883,-0.046558887,1,0,0,1.5415,optionRight,70,16045,7,24,0,24,0,1,,,,,,,,,,,,,,,,,,,,,,,,,,,,,,,,,,,,,,,
,,,,,,,,2023-08-16_08h47.40.701,HF_wild_card,2022.2.4,MacIntel,5.454436366,5fcfb1fe79b8060e0662270a,64d2fd46c836a06233681665,64dc7dd5fcf2642c89e295ca,,,,,,,decisionTrl,resources/DG.BMP,resources/DY.BMP,Door3,-0.395005419,-0.012424359,1,0,0,1.5315,optionLeft,70,16115,7,25,0,25,0,1,,,,,,,,,,,,,,,,,,,,,,,,,,,,,,,,,,,,,,,
,,,,,,,,2023-08-16_08h47.40.701,HF_wild_card,2022.2.4,MacIntel,5.454436366,5fcfb1fe79b8060e0662270a,64d2fd46c836a06233681665,64dc7dd5fcf2642c89e295ca,,,,,,,decisionTrl,resources/DB.BMP,resources/DBN.BMP,Door1,0.389676662,-0.009206783,1,0,0,1.5357,optionRight,30,16145,7,26,0,26,0,1,,,,,,,,,,,,,,,,,,,,,,,,,,,,,,,,,,,,,,,
,,,,,,,,2023-08-16_08h47.40.701,HF_wild_card,2022.2.4,MacIntel,5.454436366,5fcfb1fe79b8060e0662270a,64d2fd46c836a06233681665,64dc7dd5fcf2642c89e295ca,,,,,,,decisionTrl,resources/DBN.BMP,resources/DB.BMP,Door1,-0.350038385,-0.027530031,1,0,0,1.9618,optionLeft,30,16175,7,27,0,27,0,1,,,,,,,,,,,,,,,,,,,,,,,,,,,,,,,,,,,,,,,
,,,,,,,,2023-08-16_08h47.40.701,HF_wild_card,2022.2.4,MacIntel,5.454436366,5fcfb1fe79b8060e0662270a,64d2fd46c836a06233681665,64dc7dd5fcf2642c89e295ca,,,,,,,decisionTrl,resources/DBN.BMP,resources/DB.BMP,Door1,-0.39650131,-0.032480582,1,0,0,2.1955,optionLeft,30,16205,7,28,0,28,0,1,,,,,,,,,,,,,,,,,,,,,,,,,,,,,,,,,,,,,,,
,,,,,,,,2023-08-16_08h47.40.701,HF_wild_card,2022.2.4,MacIntel,5.454436366,5fcfb1fe79b8060e0662270a,64d2fd46c836a06233681665,64dc7dd5fcf2642c89e295ca,,,,,,,ctch,resources/DB.BMP,resources/DG.BMP,Door3,0.422354814,-0.009664017,1,0,0,6.5683,optionRight,70,16275,7,29,0,29,0,1,,,,,,,,,,,,,,,,,,,,,,,,,,,,,,,,,,,,,,,
,,,,,,,,2023-08-16_08h47.40.701,HF_wild_card,2022.2.4,MacIntel,5.454436366,5fcfb1fe79b8060e0662270a,64d2fd46c836a06233681665,64dc7dd5fcf2642c89e295ca,,,,,,,decisionTrl,resources/DBN.BMP,resources/DB.BMP,Door1,-0.402524386,0.002161985,1,0,0,1.8011,optionLeft,30,16305,7,30,0,30,0,1,,,,,,,,,,,,,,,,,,,,,,,,,,,,,,,,,,,,,,,
,,,,,,,,2023-08-16_08h47.40.701,HF_wild_card,2022.2.4,MacIntel,5.454436366,5fcfb1fe79b8060e0662270a,64d2fd46c836a06233681665,64dc7dd5fcf2642c89e295ca,,,,,,,decisionTrl,resources/DB.BMP,resources/DBN.BMP,Door1,0.373159772,-0.011334899,1,0,0,1.579,optionRight,30,16335,7,31,0,31,0,1,,,,,,,,,,,,,,,,,,,,,,,,,,,,,,,,,,,,,,,
,,,,,,,,2023-08-16_08h47.40.701,HF_wild_card,2022.2.4,MacIntel,5.454436366,5fcfb1fe79b8060e0662270a,64d2fd46c836a06233681665,64dc7dd5fcf2642c89e295ca,,,,,,,decisionTrl,resources/DG.BMP,resources/DY.BMP,Door3,-0.386775199,-0.039096369,1,0,0,3.9505,optionLeft,70,16405,7,32,0,32,0,1,,,,,,,,,,,,,,,,,,,,,,,,,,,,,,,,,,,,,,,
,,,,,,,,2023-08-16_08h47.40.701,HF_wild_card,2022.2.4,MacIntel,5.454436366,5fcfb1fe79b8060e0662270a,64d2fd46c836a06233681665,64dc7dd5fcf2642c89e295ca,,,,,,,decisionTrl,resources/DB.BMP,resources/DBN.BMP,Door1,0.385956693,-0.002833725,1,0,0,1.9935,optionRight,30,16435,7,33,0,33,0,1,,,,,,,,,,,,,,,,,,,,,,,,,,,,,,,,,,,,,,,
,,,,,,,,2023-08-16_08h47.40.701,HF_wild_card,2022.2.4,MacIntel,5.454436366,5fcfb1fe79b8060e0662270a,64d2fd46c836a06233681665,64dc7dd5fcf2642c89e295ca,,,,,,,ctch,resources/DY.BMP,resources/DBN.BMP,Door4,-0.381807713,-0.014168624,1,0,0,1.5369,optionLeft,80,16515,7,34,0,34,0,1,,,,,,,,,,,,,,,,,,,,,,,,,,,,,,,,,,,,,,,
,,,,,,,,2023-08-16_08h47.40.701,HF_wild_card,2022.2.4,MacIntel,5.454436366,5fcfb1fe79b8060e0662270a,64d2fd46c836a06233681665,64dc7dd5fcf2642c89e295ca,,,,,,,ctch,resources/DB.BMP,resources/DG.BMP,Door3,0.407638638,-0.014981485,1,0,0,1.555,optionRight,70,16585,7,35,0,35,0,1,,,,,,,,,,,,,,,,,,,,,,,,,,,,,,,,,,,,,,,
,,,,,,,,2023-08-16_08h47.40.701,HF_wild_card,2022.2.4,MacIntel,5.454436366,5fcfb1fe79b8060e0662270a,64d2fd46c836a06233681665,64dc7dd5fcf2642c89e295ca,,,,,,,,,,,,,,,,,,,,,,,,,,6,0,6,0,1,,,,,,,,,,,,,,,,,,,,,,,,,,,,,,,,,,
,,,,,,,,2023-08-16_08h47.40.701,HF_wild_card,2022.2.4,MacIntel,5.454436366,5fcfb1fe79b8060e0662270a,64d2fd46c836a06233681665,64dc7dd5fcf2642c89e295ca,,,,,,,,,,,,,,,,,,,,,,,,,,,,,,,4,,,,,,,,,,,,,,,,,,,,,,,,,,,,,,,,,
,,,,,,,,2023-08-16_08h47.40.701,HF_wild_card,2022.2.4,MacIntel,5.454436366,5fcfb1fe79b8060e0662270a,64d2fd46c836a06233681665,64dc7dd5fcf2642c89e295ca,,,,,,,,,,,,,,,,,,,,,,,,,,,,,,,,,,,,,,,,,,,,,,,,,,,,,,,,,,,,,,,,
,,,,,,,,2023-08-16_08h47.40.701,HF_wild_card,2022.2.4,MacIntel,5.454436366,5fcfb1fe79b8060e0662270a,64d2fd46c836a06233681665,64dc7dd5fcf2642c89e295ca,,,,,,,,,,,,,,,,,,,,,,,,,,,,,,,,30,Door1,resources/DBN.BMP,0,0,0,0,1,,,,,,,,,,,,,,,,,,,,,,,,,
,,,,,,,,2023-08-16_08h47.40.701,HF_wild_card,2022.2.4,MacIntel,5.454436366,5fcfb1fe79b8060e0662270a,64d2fd46c836a06233681665,64dc7dd5fcf2642c89e295ca,,,,,,,,,,,,,,,,,,,,,,,,,,,,,,,,45,WC_extreme,resources/DR.BMP,1,0,1,0,1,,,,,,,,,,,,,,,,,,,,,,,,,
