Condition,Low fixed image (Door1),Low risky image (Door2),High fixed image (Door3),High risky image (Door4),Extreme Wild Card,NonExtreme Wild Card,,date,expName,psychopyVersion,OS,frameRate,PROLIFIC_PID,STUDY_ID,SESSION_ID,mouse_2.x,mouse_2.y,mouse_2.leftButton,mouse_2.midButton,mouse_2.rightButton,mouse_2.clicked_name,Trial Type,Left Option Image,Right Option Image,Chosen Door,mouse.x,mouse.y,mouse.leftButton,mouse.midButton,mouse.rightButton,mouse.time,mouse.clicked_name,Feedback,Cumulative Reward,Block,trial.thisRepN,trial.thisTrialN,trial.thisN,trial.thisIndex,trial.ran,blocks.thisRepN,blocks.thisTrialN,blocks.thisN,blocks.thisIndex,blocks.ran,Money conversion,First Outcome Reported,Shown Door (First Outcome),Displayed Image (First Outcome),outcomes.thisRepN,outcomes.thisTrialN,outcomes.thisN,outcomes.thisIndex,outcomes.ran,judgments.thisRepN,judgments.thisTrialN,judgments.thisN,judgments.thisIndex,judgments.ran,freqMouse.x,freqMouse.y,freqMouse.leftButton,freqMouse.midButton,freqMouse.rightButton,freqMouse.clicked_name,trials.thisRepN,trials.thisTrialN,trials.thisN,trials.thisIndex,trials.ran,FQJ for first outcome,FQJ for second outcome,Shown Door,Displayed Image,judgBlock.thisRepN,judgBlock.thisTrialN,judgBlock.thisN,judgBlock.thisIndex,judgBlock.ran
1,resources/DY.BMP,resources/DR.BMP,resources/DBN.BMP,resources/DG.BMP,resources/DP.BMP,resources/DB.BMP,,2023-08-06_08h22.42.546,HF_wild_card,2022.2.4,Win32,3.529602779,6367a6adb376bcde64f98559,64ce5acb97489d65b14ecc7a,64cf4a25dace594c82eae686,,,,,,,,,,,,,,,,,,,,,,,,,,,,,,,,,,,,,,,,,,,,,,,,,,,,,,,,,,,,,,,,
,,,,,,,,2023-08-06_08h22.42.546,HF_wild_card,2022.2.4,Win32,3.529602779,6367a6adb376bcde64f98559,64ce5acb97489d65b14ecc7a,64cf4a25dace594c82eae686,0,-0.415364583,1,0,0,agree,,,,,,,,,,,,,,,,,,,,,,,,,,,,,,,,,,,,,,,,,,,,,,,,,,,,,,,,,,
,,,,,,,,2023-08-06_08h22.42.546,HF_wild_card,2022.2.4,Win32,3.529602779,6367a6adb376bcde64f98559,64ce5acb97489d65b14ecc7a,64cf4a25dace594c82eae686,,,,,,,,,,,,,,,,,,,,,,,,,,,,,,,,,,,,,,,,,,,,,,,,,,,,,,,,,,,,,,,,
,,,,,,,,2023-08-06_08h22.42.546,HF_wild_card,2022.2.4,Win32,3.529602779,6367a6adb376bcde64f98559,64ce5acb97489d65b14ecc7a,64cf4a25dace594c82eae686,,,,,,,sngl,resources/DB.BMP,resources/Empty.png,WildCard_NonEx,-0.338541667,-0.213541667,1,0,0,11.5022,optionLeft,55,55,1,0,0,0,0,1,,,,,,,,,,,,,,,,,,,,,,,,,,,,,,,,,,,,,,,
,,,,,,,,2023-08-06_08h22.42.546,HF_wild_card,2022.2.4,Win32,3.529602779,6367a6adb376bcde64f98559,64ce5acb97489d65b14ecc7a,64cf4a25dace594c82eae686,,,,,,,ctch,resources/DR.BMP,resources/DBN.BMP,Door2,-0.40625,-0.048177083,1,0,0,9.2248,optionLeft,20,75,1,1,0,1,0,1,,,,,,,,,,,,,,,,,,,,,,,,,,,,,,,,,,,,,,,
,,,,,,,,2023-08-06_08h22.42.546,HF_wild_card,2022.2.4,Win32,3.529602779,6367a6adb376bcde64f98559,64ce5acb97489d65b14ecc7a,64cf4a25dace594c82eae686,,,,,,,ctch,resources/DY.BMP,resources/DG.BMP,Door4,0.404947917,-0.01953125,1,0,0,6.3607,optionRight,60,135,1,2,0,2,0,1,,,,,,,,,,,,,,,,,,,,,,,,,,,,,,,,,,,,,,,
,,,,,,,,2023-08-06_08h22.42.546,HF_wild_card,2022.2.4,Win32,3.529602779,6367a6adb376bcde64f98559,64ce5acb97489d65b14ecc7a,64cf4a25dace594c82eae686,,,,,,,decisionTrl,resources/DBN.BMP,resources/DG.BMP,Door4,0.40234375,-0.010416667,1,0,0,4.9006,optionRight,80,215,1,3,0,3,0,1,,,,,,,,,,,,,,,,,,,,,,,,,,,,,,,,,,,,,,,
,,,,,,,,2023-08-06_08h22.42.546,HF_wild_card,2022.2.4,Win32,3.529602779,6367a6adb376bcde64f98559,64ce5acb97489d65b14ecc7a,64cf4a25dace594c82eae686,,,,,,,sngl,resources/Empty.png,resources/DG.BMP,Door4,0.416666667,0.0078125,1,0,0,3.4993,optionRight,60,275,1,4,0,4,0,1,,,,,,,,,,,,,,,,,,,,,,,,,,,,,,,,,,,,,,,
,,,,,,,,2023-08-06_08h22.42.546,HF_wild_card,2022.2.4,Win32,3.529602779,6367a6adb376bcde64f98559,64ce5acb97489d65b14ecc7a,64cf4a25dace594c82eae686,,,,,,,sngl,resources/DR.BMP,resources/Empty.png,Door2,-0.415364583,-0.029947917,1,0,0,4.4475,optionLeft,40,315,1,5,0,5,0,1,,,,,,,,,,,,,,,,,,,,,,,,,,,,,,,,,,,,,,,
,,,,,,,,2023-08-06_08h22.42.546,HF_wild_card,2022.2.4,Win32,3.529602779,6367a6adb376bcde64f98559,64ce5acb97489d65b14ecc7a,64cf4a25dace594c82eae686,,,,,,,decisionTrl,resources/DG.BMP,resources/DBN.BMP,Door4,-0.369791667,0.001302083,1,0,0,3.5116,optionLeft,60,375,1,6,0,6,0,1,,,,,,,,,,,,,,,,,,,,,,,,,,,,,,,,,,,,,,,
,,,,,,,,2023-08-06_08h22.42.546,HF_wild_card,2022.2.4,Win32,3.529602779,6367a6adb376bcde64f98559,64ce5acb97489d65b14ecc7a,64cf4a25dace594c82eae686,,,,,,,decisionTrl,resources/DR.BMP,resources/DY.BMP,Door1,0.39453125,-0.014322917,1,0,0,5.5395,optionRight,30,405,1,7,0,7,0,1,,,,,,,,,,,,,,,,,,,,,,,,,,,,,,,,,,,,,,,
,,,,,,,,2023-08-06_08h22.42.546,HF_wild_card,2022.2.4,Win32,3.529602779,6367a6adb376bcde64f98559,64ce5acb97489d65b14ecc7a,64cf4a25dace594c82eae686,,,,,,,decisionTrl,resources/DBN.BMP,resources/DB.BMP,Door3,-0.380208333,0.006510417,1,0,0,3.9509,optionLeft,70,475,1,8,0,8,0,1,,,,,,,,,,,,,,,,,,,,,,,,,,,,,,,,,,,,,,,
,,,,,,,,2023-08-06_08h22.42.546,HF_wild_card,2022.2.4,Win32,3.529602779,6367a6adb376bcde64f98559,64ce5acb97489d65b14ecc7a,64cf4a25dace594c82eae686,,,,,,,sngl,resources/Empty.png,resources/DB.BMP,WildCard_NonEx,0.384114583,-0.018229167,1,0,0,1.5889,optionRight,45,520,1,9,0,9,0,1,,,,,,,,,,,,,,,,,,,,,,,,,,,,,,,,,,,,,,,
,,,,,,,,2023-08-06_08h22.42.546,HF_wild_card,2022.2.4,Win32,3.529602779,6367a6adb376bcde64f98559,64ce5acb97489d65b14ecc7a,64cf4a25dace594c82eae686,,,,,,,decisionTrl,resources/DY.BMP,resources/DB.BMP,Door1,-0.395833333,-0.006510417,1,0,0,5.708,optionLeft,30,550,1,10,0,10,0,1,,,,,,,,,,,,,,,,,,,,,,,,,,,,,,,,,,,,,,,
,,,,,,,,2023-08-06_08h22.42.546,HF_wild_card,2022.2.4,Win32,3.529602779,6367a6adb376bcde64f98559,64ce5acb97489d65b14ecc7a,64cf4a25dace594c82eae686,,,,,,,decisionTrl,resources/DR.BMP,resources/DY.BMP,Door2,-0.3984375,0.0078125,1,0,0,2.9872,optionLeft,40,590,1,11,0,11,0,1,,,,,,,,,,,,,,,,,,,,,,,,,,,,,,,,,,,,,,,
,,,,,,,,2023-08-06_08h22.42.546,HF_wild_card,2022.2.4,Win32,3.529602779,6367a6adb376bcde64f98559,64ce5acb97489d65b14ecc7a,64cf4a25dace594c82eae686,,,,,,,decisionTrl,resources/DB.BMP,resources/DBN.BMP,Door3,0.381510417,0.016927083,1,0,0,2.9178,optionRight,70,660,1,12,0,12,0,1,,,,,,,,,,,,,,,,,,,,,,,,,,,,,,,,,,,,,,,
,,,,,,,,2023-08-06_08h22.42.546,HF_wild_card,2022.2.4,Win32,3.529602779,6367a6adb376bcde64f98559,64ce5acb97489d65b14ecc7a,64cf4a25dace594c82eae686,,,,,,,ctch,resources/DG.BMP,resources/DY.BMP,Door4,-0.393229167,-0.001302083,1,0,0,11.9648,optionLeft,60,720,1,13,0,13,0,1,,,,,,,,,,,,,,,,,,,,,,,,,,,,,,,,,,,,,,,
,,,,,,,,2023-08-06_08h22.42.546,HF_wild_card,2022.2.4,Win32,3.529602779,6367a6adb376bcde64f98559,64ce5acb97489d65b14ecc7a,64cf4a25dace594c82eae686,,,,,,,decisionTrl,resources/DB.BMP,resources/DY.BMP,WildCard_NonEx,-0.41015625,-0.026041667,1,0,0,8.6862,optionLeft,45,765,1,14,0,14,0,1,,,,,,,,,,,,,,,,,,,,,,,,,,,,,,,,,,,,,,,
,,,,,,,,2023-08-06_08h22.42.546,HF_wild_card,2022.2.4,Win32,3.529602779,6367a6adb376bcde64f98559,64ce5acb97489d65b14ecc7a,64cf4a25dace594c82eae686,,,,,,,decisionTrl,resources/DG.BMP,resources/DBN.BMP,Door3,0.372395833,0.002604167,1,0,0,8.2073,optionRight,70,835,1,15,0,15,0,1,,,,,,,,,,,,,,,,,,,,,,,,,,,,,,,,,,,,,,,
,,,,,,,,2023-08-06_08h22.42.546,HF_wild_card,2022.2.4,Win32,3.529602779,6367a6adb376bcde64f98559,64ce5acb97489d65b14ecc7a,64cf4a25dace594c82eae686,,,,,,,sngl,resources/DY.BMP,resources/Empty.png,Door1,-0.403645833,-0.016927083,1,0,0,5.6895,optionLeft,30,865,1,16,0,16,0,1,,,,,,,,,,,,,,,,,,,,,,,,,,,,,,,,,,,,,,,
,,,,,,,,2023-08-06_08h22.42.546,HF_wild_card,2022.2.4,Win32,3.529602779,6367a6adb376bcde64f98559,64ce5acb97489d65b14ecc7a,64cf4a25dace594c82eae686,,,,,,,decisionTrl,resources/DB.BMP,resources/DG.BMP,Door4,0.403645833,-0.006510417,1,0,0,11.2147,optionRight,80,945,1,17,0,17,0,1,,,,,,,,,,,,,,,,,,,,,,,,,,,,,,,,,,,,,,,
,,,,,,,,2023-08-06_08h22.42.546,HF_wild_card,2022.2.4,Win32,3.529602779,6367a6adb376bcde64f98559,64ce5acb97489d65b14ecc7a,64cf4a25dace594c82eae686,,,,,,,decisionTrl,resources/DR.BMP,resources/DY.BMP,Door2,-0.408854167,-0.014322917,1,0,0,8.5257,optionLeft,20,965,1,18,0,18,0,1,,,,,,,,,,,,,,,,,,,,,,,,,,,,,,,,,,,,,,,
,,,,,,,,2023-08-06_08h22.42.546,HF_wild_card,2022.2.4,Win32,3.529602779,6367a6adb376bcde64f98559,64ce5acb97489d65b14ecc7a,64cf4a25dace594c82eae686,,,,,,,decisionTrl,resources/DY.BMP,resources/DR.BMP,Door1,-0.377604167,-0.028645833,1,0,0,3.8442,optionLeft,30,995,1,19,0,19,0,1,,,,,,,,,,,,,,,,,,,,,,,,,,,,,,,,,,,,,,,
,,,,,,,,2023-08-06_08h22.42.546,HF_wild_card,2022.2.4,Win32,3.529602779,6367a6adb376bcde64f98559,64ce5acb97489d65b14ecc7a,64cf4a25dace594c82eae686,,,,,,,decisionTrl,resources/DG.BMP,resources/DBN.BMP,Door3,0.375,0.013020833,1,0,0,1.6816,optionRight,70,1065,1,20,0,20,0,1,,,,,,,,,,,,,,,,,,,,,,,,,,,,,,,,,,,,,,,
,,,,,,,,2023-08-06_08h22.42.546,HF_wild_card,2022.2.4,Win32,3.529602779,6367a6adb376bcde64f98559,64ce5acb97489d65b14ecc7a,64cf4a25dace594c82eae686,,,,,,,sngl,resources/DG.BMP,resources/Empty.png,Door4,-0.37109375,0,1,0,0,9.2762,optionLeft,80,1145,1,21,0,21,0,1,,,,,,,,,,,,,,,,,,,,,,,,,,,,,,,,,,,,,,,
,,,,,,,,2023-08-06_08h22.42.546,HF_wild_card,2022.2.4,Win32,3.529602779,6367a6adb376bcde64f98559,64ce5acb97489d65b14ecc7a,64cf4a25dace594c82eae686,,,,,,,sngl,resources/Empty.png,resources/DY.BMP,Door1,0.38671875,0.005208333,1,0,0,2.0146,optionRight,30,1175,1,22,0,22,0,1,,,,,,,,,,,,,,,,,,,,,,,,,,,,,,,,,,,,,,,
,,,,,,,,2023-08-06_08h22.42.546,HF_wild_card,2022.2.4,Win32,3.529602779,6367a6adb376bcde64f98559,64ce5acb97489d65b14ecc7a,64cf4a25dace594c82eae686,,,,,,,ctch,resources/DY.BMP,resources/DG.BMP,Door4,0.404947917,-0.010416667,1,0,0,6.7128,optionRight,60,1235,1,23,0,23,0,1,,,,,,,,,,,,,,,,,,,,,,,,,,,,,,,,,,,,,,,
,,,,,,,,2023-08-06_08h22.42.546,HF_wild_card,2022.2.4,Win32,3.529602779,6367a6adb376bcde64f98559,64ce5acb97489d65b14ecc7a,64cf4a25dace594c82eae686,,,,,,,decisionTrl,resources/DR.BMP,resources/DB.BMP,WildCard_NonEx,0.376302083,0,1,0,0,5.0108,optionRight,45,1280,1,24,0,24,0,1,,,,,,,,,,,,,,,,,,,,,,,,,,,,,,,,,,,,,,,
,,,,,,,,2023-08-06_08h22.42.546,HF_wild_card,2022.2.4,Win32,3.529602779,6367a6adb376bcde64f98559,64ce5acb97489d65b14ecc7a,64cf4a25dace594c82eae686,,,,,,,sngl,resources/Empty.png,resources/DB.BMP,WildCard_NonEx,0.397135417,-0.036458333,1,0,0,1.521,optionRight,55,1335,1,25,0,25,0,1,,,,,,,,,,,,,,,,,,,,,,,,,,,,,,,,,,,,,,,
,,,,,,,,2023-08-06_08h22.42.546,HF_wild_card,2022.2.4,Win32,3.529602779,6367a6adb376bcde64f98559,64ce5acb97489d65b14ecc7a,64cf4a25dace594c82eae686,,,,,,,ctch,resources/DR.BMP,resources/DBN.BMP,Door3,0.389322917,0.03515625,1,0,0,9.0895,optionRight,70,1405,1,26,0,26,0,1,,,,,,,,,,,,,,,,,,,,,,,,,,,,,,,,,,,,,,,
,,,,,,,,2023-08-06_08h22.42.546,HF_wild_card,2022.2.4,Win32,3.529602779,6367a6adb376bcde64f98559,64ce5acb97489d65b14ecc7a,64cf4a25dace594c82eae686,,,,,,,decisionTrl,resources/DBN.BMP,resources/DG.BMP,Door3,-0.397135417,0.0078125,1,0,0,3.3304,optionLeft,70,1475,1,27,0,27,0,1,,,,,,,,,,,,,,,,,,,,,,,,,,,,,,,,,,,,,,,
,,,,,,,,2023-08-06_08h22.42.546,HF_wild_card,2022.2.4,Win32,3.529602779,6367a6adb376bcde64f98559,64ce5acb97489d65b14ecc7a,64cf4a25dace594c82eae686,,,,,,,decisionTrl,resources/DG.BMP,resources/DB.BMP,Door4,-0.37109375,-0.02734375,1,0,0,4.7508,optionLeft,60,1535,1,28,0,28,0,1,,,,,,,,,,,,,,,,,,,,,,,,,,,,,,,,,,,,,,,
,,,,,,,,2023-08-06_08h22.42.546,HF_wild_card,2022.2.4,Win32,3.529602779,6367a6adb376bcde64f98559,64ce5acb97489d65b14ecc7a,64cf4a25dace594c82eae686,,,,,,,decisionTrl,resources/DY.BMP,resources/DR.BMP,Door1,-0.397135417,-0.005208333,1,0,0,6.3653,optionLeft,30,1565,1,29,0,29,0,1,,,,,,,,,,,,,,,,,,,,,,,,,,,,,,,,,,,,,,,
,,,,,,,,2023-08-06_08h22.42.546,HF_wild_card,2022.2.4,Win32,3.529602779,6367a6adb376bcde64f98559,64ce5acb97489d65b14ecc7a,64cf4a25dace594c82eae686,,,,,,,decisionTrl,resources/DB.BMP,resources/DR.BMP,WildCard_NonEx,-0.401041667,-0.016927083,1,0,0,8.1777,optionLeft,55,1620,1,30,0,30,0,1,,,,,,,,,,,,,,,,,,,,,,,,,,,,,,,,,,,,,,,
,,,,,,,,2023-08-06_08h22.42.546,HF_wild_card,2022.2.4,Win32,3.529602779,6367a6adb376bcde64f98559,64ce5acb97489d65b14ecc7a,64cf4a25dace594c82eae686,,,,,,,decisionTrl,resources/DBN.BMP,resources/DG.BMP,Door3,-0.3828125,0.010416667,1,0,0,3.7981,optionLeft,70,1690,1,31,0,31,0,1,,,,,,,,,,,,,,,,,,,,,,,,,,,,,,,,,,,,,,,
,,,,,,,,2023-08-06_08h22.42.546,HF_wild_card,2022.2.4,Win32,3.529602779,6367a6adb376bcde64f98559,64ce5acb97489d65b14ecc7a,64cf4a25dace594c82eae686,,,,,,,decisionTrl,resources/DG.BMP,resources/DBN.BMP,Door3,0.408854167,0.002604167,1,0,0,1.7258,optionRight,70,1760,1,32,0,32,0,1,,,,,,,,,,,,,,,,,,,,,,,,,,,,,,,,,,,,,,,
,,,,,,,,2023-08-06_08h22.42.546,HF_wild_card,2022.2.4,Win32,3.529602779,6367a6adb376bcde64f98559,64ce5acb97489d65b14ecc7a,64cf4a25dace594c82eae686,,,,,,,sngl,resources/DBN.BMP,resources/Empty.png,Door3,-0.419270833,0.015625,1,0,0,1.5024,optionLeft,70,1830,1,33,0,33,0,1,,,,,,,,,,,,,,,,,,,,,,,,,,,,,,,,,,,,,,,
,,,,,,,,2023-08-06_08h22.42.546,HF_wild_card,2022.2.4,Win32,3.529602779,6367a6adb376bcde64f98559,64ce5acb97489d65b14ecc7a,64cf4a25dace594c82eae686,,,,,,,sngl,resources/Empty.png,resources/DBN.BMP,Door3,0.39453125,0.01171875,1,0,0,5.3057,optionRight,70,1900,1,34,0,34,0,1,,,,,,,,,,,,,,,,,,,,,,,,,,,,,,,,,,,,,,,
,,,,,,,,2023-08-06_08h22.42.546,HF_wild_card,2022.2.4,Win32,3.529602779,6367a6adb376bcde64f98559,64ce5acb97489d65b14ecc7a,64cf4a25dace594c82eae686,,,,,,,sngl,resources/Empty.png,resources/DR.BMP,Door2,0.397135417,-0.02734375,1,0,0,1.5419,optionRight,20,1920,1,35,0,35,0,1,,,,,,,,,,,,,,,,,,,,,,,,,,,,,,,,,,,,,,,
,,,,,,,,2023-08-06_08h22.42.546,HF_wild_card,2022.2.4,Win32,3.529602779,6367a6adb376bcde64f98559,64ce5acb97489d65b14ecc7a,64cf4a25dace594c82eae686,,,,,,,ctch,resources/DG.BMP,resources/DY.BMP,Door4,-0.390625,-0.0078125,1,0,0,10,optionLeft,80,2000,1,36,0,36,0,1,,,,,,,,,,,,,,,,,,,,,,,,,,,,,,,,,,,,,,,
,,,,,,,,2023-08-06_08h22.42.546,HF_wild_card,2022.2.4,Win32,3.529602779,6367a6adb376bcde64f98559,64ce5acb97489d65b14ecc7a,64cf4a25dace594c82eae686,,,,,,,sngl,resources/DB.BMP,resources/Empty.png,WildCard_NonEx,-0.397135417,0.005208333,1,0,0,4.6107,optionLeft,45,2045,1,37,0,37,0,1,,,,,,,,,,,,,,,,,,,,,,,,,,,,,,,,,,,,,,,
,,,,,,,,2023-08-06_08h22.42.546,HF_wild_card,2022.2.4,Win32,3.529602779,6367a6adb376bcde64f98559,64ce5acb97489d65b14ecc7a,64cf4a25dace594c82eae686,,,,,,,decisionTrl,resources/DY.BMP,resources/DR.BMP,Door1,-0.385416667,0.002604167,1,0,0,7.8436,optionLeft,30,2075,1,38,0,38,0,1,,,,,,,,,,,,,,,,,,,,,,,,,,,,,,,,,,,,,,,
,,,,,,,,2023-08-06_08h22.42.546,HF_wild_card,2022.2.4,Win32,3.529602779,6367a6adb376bcde64f98559,64ce5acb97489d65b14ecc7a,64cf4a25dace594c82eae686,,,,,,,ctch,resources/DBN.BMP,resources/DR.BMP,Door3,-0.3984375,0.009114583,1,0,0,8.0268,optionLeft,70,2145,1,39,0,39,0,1,,,,,,,,,,,,,,,,,,,,,,,,,,,,,,,,,,,,,,,
,,,,,,,,2023-08-06_08h22.42.546,HF_wild_card,2022.2.4,Win32,3.529602779,6367a6adb376bcde64f98559,64ce5acb97489d65b14ecc7a,64cf4a25dace594c82eae686,,,,,,,ctch,resources/DBN.BMP,resources/DR.BMP,Door3,-0.373697917,0.005208333,1,0,0,4.2772,optionLeft,70,2215,1,40,0,40,0,1,,,,,,,,,,,,,,,,,,,,,,,,,,,,,,,,,,,,,,,
,,,,,,,,2023-08-06_08h22.42.546,HF_wild_card,2022.2.4,Win32,3.529602779,6367a6adb376bcde64f98559,64ce5acb97489d65b14ecc7a,64cf4a25dace594c82eae686,,,,,,,decisionTrl,resources/DY.BMP,resources/DR.BMP,Door1,-0.39453125,-0.013020833,1,0,0,12.6927,optionLeft,30,2245,1,41,0,41,0,1,,,,,,,,,,,,,,,,,,,,,,,,,,,,,,,,,,,,,,,
,,,,,,,,2023-08-06_08h22.42.546,HF_wild_card,2022.2.4,Win32,3.529602779,6367a6adb376bcde64f98559,64ce5acb97489d65b14ecc7a,64cf4a25dace594c82eae686,,,,,,,decisionTrl,resources/DR.BMP,resources/DY.BMP,Door1,0.368489583,0,1,0,0,3.0149,optionRight,30,2275,1,42,0,42,0,1,,,,,,,,,,,,,,,,,,,,,,,,,,,,,,,,,,,,,,,
,,,,,,,,2023-08-06_08h22.42.546,HF_wild_card,2022.2.4,Win32,3.529602779,6367a6adb376bcde64f98559,64ce5acb97489d65b14ecc7a,64cf4a25dace594c82eae686,,,,,,,decisionTrl,resources/DBN.BMP,resources/DG.BMP,Door3,-0.428385417,0.049479167,1,0,0,2.234,optionLeft,70,2345,1,43,0,43,0,1,,,,,,,,,,,,,,,,,,,,,,,,,,,,,,,,,,,,,,,
,,,,,,,,2023-08-06_08h22.42.546,HF_wild_card,2022.2.4,Win32,3.529602779,6367a6adb376bcde64f98559,64ce5acb97489d65b14ecc7a,64cf4a25dace594c82eae686,,,,,,,,,,,,,,,,,,,,,,,,,,0,0,0,0,1,,,,,,,,,,,,,,,,,,,,,,,,,,,,,,,,,,
,,,,,,,,2023-08-06_08h22.42.546,HF_wild_card,2022.2.4,Win32,3.529602779,6367a6adb376bcde64f98559,64ce5acb97489d65b14ecc7a,64cf4a25dace594c82eae686,,,,,,,decisionTrl,resources/DG.BMP,resources/DBN.BMP,Door3,0.377604167,-0.002604167,1,0,0,7.6229,optionRight,70,2415,2,0,0,0,0,1,,,,,,,,,,,,,,,,,,,,,,,,,,,,,,,,,,,,,,,
,,,,,,,,2023-08-06_08h22.42.546,HF_wild_card,2022.2.4,Win32,3.529602779,6367a6adb376bcde64f98559,64ce5acb97489d65b14ecc7a,64cf4a25dace594c82eae686,,,,,,,decisionTrl,resources/DY.BMP,resources/DR.BMP,Door1,-0.399739583,-0.002604167,1,0,0,4.0411,optionLeft,30,2445,2,1,0,1,0,1,,,,,,,,,,,,,,,,,,,,,,,,,,,,,,,,,,,,,,,
,,,,,,,,2023-08-06_08h22.42.546,HF_wild_card,2022.2.4,Win32,3.529602779,6367a6adb376bcde64f98559,64ce5acb97489d65b14ecc7a,64cf4a25dace594c82eae686,,,,,,,decisionTrl,resources/DB.BMP,resources/DR.BMP,WildCard_NonEx,-0.397135417,0.041666667,1,0,0,15.1991,optionLeft,45,2490,2,2,0,2,0,1,,,,,,,,,,,,,,,,,,,,,,,,,,,,,,,,,,,,,,,
,,,,,,,,2023-08-06_08h22.42.546,HF_wild_card,2022.2.4,Win32,3.529602779,6367a6adb376bcde64f98559,64ce5acb97489d65b14ecc7a,64cf4a25dace594c82eae686,,,,,,,decisionTrl,resources/DR.BMP,resources/DY.BMP,Door1,0.427083333,-0.009114583,1,0,0,2.5972,optionRight,30,2520,2,3,0,3,0,1,,,,,,,,,,,,,,,,,,,,,,,,,,,,,,,,,,,,,,,
,,,,,,,,2023-08-06_08h22.42.546,HF_wild_card,2022.2.4,Win32,3.529602779,6367a6adb376bcde64f98559,64ce5acb97489d65b14ecc7a,64cf4a25dace594c82eae686,,,,,,,decisionTrl,resources/DBN.BMP,resources/DG.BMP,Door3,-0.408854167,0.014322917,1,0,0,9.5937,optionLeft,70,2590,2,4,0,4,0,1,,,,,,,,,,,,,,,,,,,,,,,,,,,,,,,,,,,,,,,
,,,,,,,,2023-08-06_08h22.42.546,HF_wild_card,2022.2.4,Win32,3.529602779,6367a6adb376bcde64f98559,64ce5acb97489d65b14ecc7a,64cf4a25dace594c82eae686,,,,,,,decisionTrl,resources/DY.BMP,resources/DR.BMP,Door1,-0.37890625,0.005208333,1,0,0,2.6472,optionLeft,30,2620,2,5,0,5,0,1,,,,,,,,,,,,,,,,,,,,,,,,,,,,,,,,,,,,,,,
,,,,,,,,2023-08-06_08h22.42.546,HF_wild_card,2022.2.4,Win32,3.529602779,6367a6adb376bcde64f98559,64ce5acb97489d65b14ecc7a,64cf4a25dace594c82eae686,,,,,,,sngl,resources/Empty.png,resources/DB.BMP,WildCard_NonEx,0.364583333,-0.032552083,1,0,0,2.281,optionRight,45,2665,2,6,0,6,0,1,,,,,,,,,,,,,,,,,,,,,,,,,,,,,,,,,,,,,,,
,,,,,,,,2023-08-06_08h22.42.546,HF_wild_card,2022.2.4,Win32,3.529602779,6367a6adb376bcde64f98559,64ce5acb97489d65b14ecc7a,64cf4a25dace594c82eae686,,,,,,,decisionTrl,resources/DR.BMP,resources/DY.BMP,Door1,0.393229167,-0.044270833,1,0,0,2.9865,optionRight,30,2695,2,7,0,7,0,1,,,,,,,,,,,,,,,,,,,,,,,,,,,,,,,,,,,,,,,
,,,,,,,,2023-08-06_08h22.42.546,HF_wild_card,2022.2.4,Win32,3.529602779,6367a6adb376bcde64f98559,64ce5acb97489d65b14ecc7a,64cf4a25dace594c82eae686,,,,,,,decisionTrl,resources/DR.BMP,resources/DY.BMP,Door1,0.45703125,-0.026041667,1,0,0,1.6612,optionRight,30,2725,2,8,0,8,0,1,,,,,,,,,,,,,,,,,,,,,,,,,,,,,,,,,,,,,,,
,,,,,,,,2023-08-06_08h22.42.546,HF_wild_card,2022.2.4,Win32,3.529602779,6367a6adb376bcde64f98559,64ce5acb97489d65b14ecc7a,64cf4a25dace594c82eae686,,,,,,,decisionTrl,resources/DBN.BMP,resources/DG.BMP,Door3,-0.360677083,-0.033854167,1,0,0,2.1208,optionLeft,70,2795,2,9,0,9,0,1,,,,,,,,,,,,,,,,,,,,,,,,,,,,,,,,,,,,,,,
,,,,,,,,2023-08-06_08h22.42.546,HF_wild_card,2022.2.4,Win32,3.529602779,6367a6adb376bcde64f98559,64ce5acb97489d65b14ecc7a,64cf4a25dace594c82eae686,,,,,,,decisionTrl,resources/DR.BMP,resources/DY.BMP,Door1,0.334635417,-0.032552083,1,0,0,1.7474,optionRight,30,2825,2,10,0,10,0,1,,,,,,,,,,,,,,,,,,,,,,,,,,,,,,,,,,,,,,,
,,,,,,,,2023-08-06_08h22.42.546,HF_wild_card,2022.2.4,Win32,3.529602779,6367a6adb376bcde64f98559,64ce5acb97489d65b14ecc7a,64cf4a25dace594c82eae686,,,,,,,sngl,resources/DBN.BMP,resources/Empty.png,Door3,-0.359375,-0.015625,1,0,0,3.1399,optionLeft,70,2895,2,11,0,11,0,1,,,,,,,,,,,,,,,,,,,,,,,,,,,,,,,,,,,,,,,
,,,,,,,,2023-08-06_08h22.42.546,HF_wild_card,2022.2.4,Win32,3.529602779,6367a6adb376bcde64f98559,64ce5acb97489d65b14ecc7a,64cf4a25dace594c82eae686,,,,,,,ctch,resources/DBN.BMP,resources/DR.BMP,Door3,-0.3828125,0.010416667,1,0,0,1.8144,optionLeft,70,2965,2,12,0,12,0,1,,,,,,,,,,,,,,,,,,,,,,,,,,,,,,,,,,,,,,,
,,,,,,,,2023-08-06_08h22.42.546,HF_wild_card,2022.2.4,Win32,3.529602779,6367a6adb376bcde64f98559,64ce5acb97489d65b14ecc7a,64cf4a25dace594c82eae686,,,,,,,decisionTrl,resources/DY.BMP,resources/DB.BMP,WildCard_NonEx,0.337239583,0.01171875,1,0,0,2.175,optionRight,45,3010,2,13,0,13,0,1,,,,,,,,,,,,,,,,,,,,,,,,,,,,,,,,,,,,,,,
,,,,,,,,2023-08-06_08h22.42.546,HF_wild_card,2022.2.4,Win32,3.529602779,6367a6adb376bcde64f98559,64ce5acb97489d65b14ecc7a,64cf4a25dace594c82eae686,,,,,,,ctch,resources/DG.BMP,resources/DY.BMP,Door4,-0.360677083,0.009114583,1,0,0,2.9862,optionLeft,60,3070,2,14,0,14,0,1,,,,,,,,,,,,,,,,,,,,,,,,,,,,,,,,,,,,,,,
,,,,,,,,2023-08-06_08h22.42.546,HF_wild_card,2022.2.4,Win32,3.529602779,6367a6adb376bcde64f98559,64ce5acb97489d65b14ecc7a,64cf4a25dace594c82eae686,,,,,,,ctch,resources/DR.BMP,resources/DBN.BMP,Door3,0.341145833,-0.0078125,1,0,0,3.6265,optionRight,70,3140,2,15,0,15,0,1,,,,,,,,,,,,,,,,,,,,,,,,,,,,,,,,,,,,,,,
,,,,,,,,2023-08-06_08h22.42.546,HF_wild_card,2022.2.4,Win32,3.529602779,6367a6adb376bcde64f98559,64ce5acb97489d65b14ecc7a,64cf4a25dace594c82eae686,,,,,,,sngl,resources/Empty.png,resources/DY.BMP,Door1,0.330729167,-0.0078125,1,0,0,2.7226,optionRight,30,3170,2,16,0,16,0,1,,,,,,,,,,,,,,,,,,,,,,,,,,,,,,,,,,,,,,,
,,,,,,,,2023-08-06_08h22.42.546,HF_wild_card,2022.2.4,Win32,3.529602779,6367a6adb376bcde64f98559,64ce5acb97489d65b14ecc7a,64cf4a25dace594c82eae686,,,,,,,ctch,resources/DY.BMP,resources/DG.BMP,Door4,0.3359375,-0.005208333,1,0,0,2.1505,optionRight,60,3230,2,17,0,17,0,1,,,,,,,,,,,,,,,,,,,,,,,,,,,,,,,,,,,,,,,
,,,,,,,,2023-08-06_08h22.42.546,HF_wild_card,2022.2.4,Win32,3.529602779,6367a6adb376bcde64f98559,64ce5acb97489d65b14ecc7a,64cf4a25dace594c82eae686,,,,,,,decisionTrl,resources/DR.BMP,resources/DB.BMP,WildCard_NonEx,0.322916667,-0.024739583,1,0,0,2.2114,optionRight,55,3285,2,18,0,18,0,1,,,,,,,,,,,,,,,,,,,,,,,,,,,,,,,,,,,,,,,
,,,,,,,,2023-08-06_08h22.42.546,HF_wild_card,2022.2.4,Win32,3.529602779,6367a6adb376bcde64f98559,64ce5acb97489d65b14ecc7a,64cf4a25dace594c82eae686,,,,,,,sngl,resources/DB.BMP,resources/Empty.png,WildCard_NonEx,-0.401041667,-0.03125,1,0,0,1.9695,optionLeft,55,3340,2,19,0,19,0,1,,,,,,,,,,,,,,,,,,,,,,,,,,,,,,,,,,,,,,,
,,,,,,,,2023-08-06_08h22.42.546,HF_wild_card,2022.2.4,Win32,3.529602779,6367a6adb376bcde64f98559,64ce5acb97489d65b14ecc7a,64cf4a25dace594c82eae686,,,,,,,decisionTrl,resources/DG.BMP,resources/DB.BMP,Door4,-0.389322917,0.01171875,1,0,0,4.745,optionLeft,60,3400,2,20,0,20,0,1,,,,,,,,,,,,,,,,,,,,,,,,,,,,,,,,,,,,,,,
,,,,,,,,2023-08-06_08h22.42.546,HF_wild_card,2022.2.4,Win32,3.529602779,6367a6adb376bcde64f98559,64ce5acb97489d65b14ecc7a,64cf4a25dace594c82eae686,,,,,,,decisionTrl,resources/DB.BMP,resources/DY.BMP,WildCard_NonEx,-0.471354167,0.009114583,1,0,0,2.2768,optionLeft,45,3445,2,21,0,21,0,1,,,,,,,,,,,,,,,,,,,,,,,,,,,,,,,,,,,,,,,
,,,,,,,,2023-08-06_08h22.42.546,HF_wild_card,2022.2.4,Win32,3.529602779,6367a6adb376bcde64f98559,64ce5acb97489d65b14ecc7a,64cf4a25dace594c82eae686,,,,,,,decisionTrl,resources/DY.BMP,resources/DR.BMP,Door1,-0.490885417,-0.010416667,1,0,0,2.2422,optionLeft,30,3475,2,22,0,22,0,1,,,,,,,,,,,,,,,,,,,,,,,,,,,,,,,,,,,,,,,
,,,,,,,,2023-08-06_08h22.42.546,HF_wild_card,2022.2.4,Win32,3.529602779,6367a6adb376bcde64f98559,64ce5acb97489d65b14ecc7a,64cf4a25dace594c82eae686,,,,,,,sngl,resources/DB.BMP,resources/Empty.png,WildCard_NonEx,-0.36328125,0.005208333,1,0,0,4.3347,optionLeft,45,3520,2,23,0,23,0,1,,,,,,,,,,,,,,,,,,,,,,,,,,,,,,,,,,,,,,,
,,,,,,,,2023-08-06_08h22.42.546,HF_wild_card,2022.2.4,Win32,3.529602779,6367a6adb376bcde64f98559,64ce5acb97489d65b14ecc7a,64cf4a25dace594c82eae686,,,,,,,decisionTrl,resources/DG.BMP,resources/DBN.BMP,Door3,0.39453125,0,1,0,0,1.7428,optionRight,70,3590,2,24,0,24,0,1,,,,,,,,,,,,,,,,,,,,,,,,,,,,,,,,,,,,,,,
,,,,,,,,2023-08-06_08h22.42.546,HF_wild_card,2022.2.4,Win32,3.529602779,6367a6adb376bcde64f98559,64ce5acb97489d65b14ecc7a,64cf4a25dace594c82eae686,,,,,,,ctch,resources/DY.BMP,resources/DG.BMP,Door4,0.43359375,0.001302083,1,0,0,1.7908,optionRight,60,3650,2,25,0,25,0,1,,,,,,,,,,,,,,,,,,,,,,,,,,,,,,,,,,,,,,,
,,,,,,,,2023-08-06_08h22.42.546,HF_wild_card,2022.2.4,Win32,3.529602779,6367a6adb376bcde64f98559,64ce5acb97489d65b14ecc7a,64cf4a25dace594c82eae686,,,,,,,ctch,resources/DR.BMP,resources/DBN.BMP,Door3,0.38671875,-0.00390625,1,0,0,1.8763,optionRight,70,3720,2,26,0,26,0,1,,,,,,,,,,,,,,,,,,,,,,,,,,,,,,,,,,,,,,,
,,,,,,,,2023-08-06_08h22.42.546,HF_wild_card,2022.2.4,Win32,3.529602779,6367a6adb376bcde64f98559,64ce5acb97489d65b14ecc7a,64cf4a25dace594c82eae686,,,,,,,decisionTrl,resources/DBN.BMP,resources/DG.BMP,Door3,-0.41015625,-0.0078125,1,0,0,1.8334,optionLeft,70,3790,2,27,0,27,0,1,,,,,,,,,,,,,,,,,,,,,,,,,,,,,,,,,,,,,,,
,,,,,,,,2023-08-06_08h22.42.546,HF_wild_card,2022.2.4,Win32,3.529602779,6367a6adb376bcde64f98559,64ce5acb97489d65b14ecc7a,64cf4a25dace594c82eae686,,,,,,,decisionTrl,resources/DG.BMP,resources/DBN.BMP,Door3,0.373697917,-0.001302083,1,0,0,2.1927,optionRight,70,3860,2,28,0,28,0,1,,,,,,,,,,,,,,,,,,,,,,,,,,,,,,,,,,,,,,,
,,,,,,,,2023-08-06_08h22.42.546,HF_wild_card,2022.2.4,Win32,3.529602779,6367a6adb376bcde64f98559,64ce5acb97489d65b14ecc7a,64cf4a25dace594c82eae686,,,,,,,decisionTrl,resources/DB.BMP,resources/DBN.BMP,Door3,0.39453125,0.009114583,1,0,0,3.6911,optionRight,70,3930,2,29,0,29,0,1,,,,,,,,,,,,,,,,,,,,,,,,,,,,,,,,,,,,,,,
,,,,,,,,2023-08-06_08h22.42.546,HF_wild_card,2022.2.4,Win32,3.529602779,6367a6adb376bcde64f98559,64ce5acb97489d65b14ecc7a,64cf4a25dace594c82eae686,,,,,,,sngl,resources/Empty.png,resources/DB.BMP,WildCard_NonEx,0.37890625,-0.02734375,1,0,0,1.6015,optionRight,55,3985,2,30,0,30,0,1,,,,,,,,,,,,,,,,,,,,,,,,,,,,,,,,,,,,,,,
,,,,,,,,2023-08-06_08h22.42.546,HF_wild_card,2022.2.4,Win32,3.529602779,6367a6adb376bcde64f98559,64ce5acb97489d65b14ecc7a,64cf4a25dace594c82eae686,,,,,,,sngl,resources/Empty.png,resources/DBN.BMP,Door3,0.384114583,0.002604167,1,0,0,1.5816,optionRight,70,4055,2,31,0,31,0,1,,,,,,,,,,,,,,,,,,,,,,,,,,,,,,,,,,,,,,,
,,,,,,,,2023-08-06_08h22.42.546,HF_wild_card,2022.2.4,Win32,3.529602779,6367a6adb376bcde64f98559,64ce5acb97489d65b14ecc7a,64cf4a25dace594c82eae686,,,,,,,sngl,resources/DG.BMP,resources/Empty.png,Door4,-0.3671875,0.005208333,1,0,0,1.5795,optionLeft,60,4115,2,32,0,32,0,1,,,,,,,,,,,,,,,,,,,,,,,,,,,,,,,,,,,,,,,
,,,,,,,,2023-08-06_08h22.42.546,HF_wild_card,2022.2.4,Win32,3.529602779,6367a6adb376bcde64f98559,64ce5acb97489d65b14ecc7a,64cf4a25dace594c82eae686,,,,,,,sngl,resources/Empty.png,resources/DR.BMP,Door2,0.408854167,-0.033854167,1,0,0,3.1255,optionRight,40,4155,2,33,0,33,0,1,,,,,,,,,,,,,,,,,,,,,,,,,,,,,,,,,,,,,,,
,,,,,,,,2023-08-06_08h22.42.546,HF_wild_card,2022.2.4,Win32,3.529602779,6367a6adb376bcde64f98559,64ce5acb97489d65b14ecc7a,64cf4a25dace594c82eae686,,,,,,,sngl,resources/DR.BMP,resources/Empty.png,Door2,-0.368489583,-0.002604167,1,0,0,2.8,optionLeft,20,4175,2,34,0,34,0,1,,,,,,,,,,,,,,,,,,,,,,,,,,,,,,,,,,,,,,,
,,,,,,,,2023-08-06_08h22.42.546,HF_wild_card,2022.2.4,Win32,3.529602779,6367a6adb376bcde64f98559,64ce5acb97489d65b14ecc7a,64cf4a25dace594c82eae686,,,,,,,decisionTrl,resources/DBN.BMP,resources/DG.BMP,Door3,-0.38671875,0.014322917,1,0,0,1.6692,optionLeft,70,4245,2,35,0,35,0,1,,,,,,,,,,,,,,,,,,,,,,,,,,,,,,,,,,,,,,,
,,,,,,,,2023-08-06_08h22.42.546,HF_wild_card,2022.2.4,Win32,3.529602779,6367a6adb376bcde64f98559,64ce5acb97489d65b14ecc7a,64cf4a25dace594c82eae686,,,,,,,decisionTrl,resources/DG.BMP,resources/DBN.BMP,Door3,0.39453125,-0.01953125,1,0,0,2.2126,optionRight,70,4315,2,36,0,36,0,1,,,,,,,,,,,,,,,,,,,,,,,,,,,,,,,,,,,,,,,
,,,,,,,,2023-08-06_08h22.42.546,HF_wild_card,2022.2.4,Win32,3.529602779,6367a6adb376bcde64f98559,64ce5acb97489d65b14ecc7a,64cf4a25dace594c82eae686,,,,,,,sngl,resources/DY.BMP,resources/Empty.png,Door1,-0.381510417,0.006510417,1,0,0,1.5769,optionLeft,30,4345,2,37,0,37,0,1,,,,,,,,,,,,,,,,,,,,,,,,,,,,,,,,,,,,,,,
,,,,,,,,2023-08-06_08h22.42.546,HF_wild_card,2022.2.4,Win32,3.529602779,6367a6adb376bcde64f98559,64ce5acb97489d65b14ecc7a,64cf4a25dace594c82eae686,,,,,,,ctch,resources/DBN.BMP,resources/DR.BMP,Door3,-0.416666667,-0.005208333,1,0,0,2.2775,optionLeft,70,4415,2,38,0,38,0,1,,,,,,,,,,,,,,,,,,,,,,,,,,,,,,,,,,,,,,,
,,,,,,,,2023-08-06_08h22.42.546,HF_wild_card,2022.2.4,Win32,3.529602779,6367a6adb376bcde64f98559,64ce5acb97489d65b14ecc7a,64cf4a25dace594c82eae686,,,,,,,ctch,resources/DG.BMP,resources/DY.BMP,Door4,-0.41796875,-0.00390625,1,0,0,3.0052,optionLeft,80,4495,2,39,0,39,0,1,,,,,,,,,,,,,,,,,,,,,,,,,,,,,,,,,,,,,,,
,,,,,,,,2023-08-06_08h22.42.546,HF_wild_card,2022.2.4,Win32,3.529602779,6367a6adb376bcde64f98559,64ce5acb97489d65b14ecc7a,64cf4a25dace594c82eae686,,,,,,,sngl,resources/Empty.png,resources/DG.BMP,Door4,0.424479167,0.0078125,1,0,0,1.6417,optionRight,80,4575,2,40,0,40,0,1,,,,,,,,,,,,,,,,,,,,,,,,,,,,,,,,,,,,,,,
,,,,,,,,2023-08-06_08h22.42.546,HF_wild_card,2022.2.4,Win32,3.529602779,6367a6adb376bcde64f98559,64ce5acb97489d65b14ecc7a,64cf4a25dace594c82eae686,,,,,,,decisionTrl,resources/DY.BMP,resources/DR.BMP,Door1,-0.395833333,0.005208333,1,0,0,4.8647,optionLeft,30,4605,2,41,0,41,0,1,,,,,,,,,,,,,,,,,,,,,,,,,,,,,,,,,,,,,,,
,,,,,,,,2023-08-06_08h22.42.546,HF_wild_card,2022.2.4,Win32,3.529602779,6367a6adb376bcde64f98559,64ce5acb97489d65b14ecc7a,64cf4a25dace594c82eae686,,,,,,,decisionTrl,resources/DBN.BMP,resources/DB.BMP,Door3,-0.401041667,0.0078125,1,0,0,1.3779,optionLeft,70,4675,2,42,0,42,0,1,,,,,,,,,,,,,,,,,,,,,,,,,,,,,,,,,,,,,,,
,,,,,,,,2023-08-06_08h22.42.546,HF_wild_card,2022.2.4,Win32,3.529602779,6367a6adb376bcde64f98559,64ce5acb97489d65b14ecc7a,64cf4a25dace594c82eae686,,,,,,,decisionTrl,resources/DB.BMP,resources/DG.BMP,Door4,0.403645833,0.001302083,1,0,0,2.1877,optionRight,60,4735,2,43,0,43,0,1,,,,,,,,,,,,,,,,,,,,,,,,,,,,,,,,,,,,,,,
,,,,,,,,2023-08-06_08h22.42.546,HF_wild_card,2022.2.4,Win32,3.529602779,6367a6adb376bcde64f98559,64ce5acb97489d65b14ecc7a,64cf4a25dace594c82eae686,,,,,,,,,,,,,,,,,,,,,,,,,,1,0,1,0,1,,,,,,,,,,,,,,,,,,,,,,,,,,,,,,,,,,
,,,,,,,,2023-08-06_08h22.42.546,HF_wild_card,2022.2.4,Win32,3.529602779,6367a6adb376bcde64f98559,64ce5acb97489d65b14ecc7a,64cf4a25dace594c82eae686,,,,,,,sngl,resources/DY.BMP,resources/Empty.png,Door1,-0.395833333,-0.03125,1,0,0,1.541,optionLeft,30,4765,3,0,0,0,0,1,,,,,,,,,,,,,,,,,,,,,,,,,,,,,,,,,,,,,,,
,,,,,,,,2023-08-06_08h22.42.546,HF_wild_card,2022.2.4,Win32,3.529602779,6367a6adb376bcde64f98559,64ce5acb97489d65b14ecc7a,64cf4a25dace594c82eae686,,,,,,,decisionTrl,resources/DB.BMP,resources/DG.BMP,Door4,0.334635417,-0.04296875,1,0,0,1.8457,optionRight,80,4845,3,1,0,1,0,1,,,,,,,,,,,,,,,,,,,,,,,,,,,,,,,,,,,,,,,
,,,,,,,,2023-08-06_08h22.42.546,HF_wild_card,2022.2.4,Win32,3.529602779,6367a6adb376bcde64f98559,64ce5acb97489d65b14ecc7a,64cf4a25dace594c82eae686,,,,,,,ctch,resources/DY.BMP,resources/DG.BMP,Door4,0.35546875,-0.0390625,1,0,0,1.6823,optionRight,60,4905,3,2,0,2,0,1,,,,,,,,,,,,,,,,,,,,,,,,,,,,,,,,,,,,,,,
,,,,,,,,2023-08-06_08h22.42.546,HF_wild_card,2022.2.4,Win32,3.529602779,6367a6adb376bcde64f98559,64ce5acb97489d65b14ecc7a,64cf4a25dace594c82eae686,,,,,,,sngl,resources/Empty.png,resources/DB.BMP,WildCard_NonEx,0.412760417,-0.037760417,1,0,0,1.8994,optionRight,45,4950,3,3,0,3,0,1,,,,,,,,,,,,,,,,,,,,,,,,,,,,,,,,,,,,,,,
,,,,,,,,2023-08-06_08h22.42.546,HF_wild_card,2022.2.4,Win32,3.529602779,6367a6adb376bcde64f98559,64ce5acb97489d65b14ecc7a,64cf4a25dace594c82eae686,,,,,,,decisionTrl,resources/DG.BMP,resources/DBN.BMP,Door3,0.401041667,0.009114583,1,0,0,2.6637,optionRight,70,5020,3,4,0,4,0,1,,,,,,,,,,,,,,,,,,,,,,,,,,,,,,,,,,,,,,,
,,,,,,,,2023-08-06_08h22.42.546,HF_wild_card,2022.2.4,Win32,3.529602779,6367a6adb376bcde64f98559,64ce5acb97489d65b14ecc7a,64cf4a25dace594c82eae686,,,,,,,sngl,resources/DBN.BMP,resources/Empty.png,Door3,-0.385416667,-0.02734375,1,0,0,1.5028,optionLeft,70,5090,3,5,0,5,0,1,,,,,,,,,,,,,,,,,,,,,,,,,,,,,,,,,,,,,,,
,,,,,,,,2023-08-06_08h22.42.546,HF_wild_card,2022.2.4,Win32,3.529602779,6367a6adb376bcde64f98559,64ce5acb97489d65b14ecc7a,64cf4a25dace594c82eae686,,,,,,,decisionTrl,resources/DB.BMP,resources/DBN.BMP,Door3,0.408854167,0.006510417,1,0,0,3.8717,optionRight,70,5160,3,6,0,6,0,1,,,,,,,,,,,,,,,,,,,,,,,,,,,,,,,,,,,,,,,
,,,,,,,,2023-08-06_08h22.42.546,HF_wild_card,2022.2.4,Win32,3.529602779,6367a6adb376bcde64f98559,64ce5acb97489d65b14ecc7a,64cf4a25dace594c82eae686,,,,,,,decisionTrl,resources/DR.BMP,resources/DB.BMP,WildCard_NonEx,0.3984375,-0.001302083,1,0,0,3.4625,optionRight,45,5205,3,7,0,7,0,1,,,,,,,,,,,,,,,,,,,,,,,,,,,,,,,,,,,,,,,
,,,,,,,,2023-08-06_08h22.42.546,HF_wild_card,2022.2.4,Win32,3.529602779,6367a6adb376bcde64f98559,64ce5acb97489d65b14ecc7a,64cf4a25dace594c82eae686,,,,,,,sngl,resources/DB.BMP,resources/Empty.png,WildCard_NonEx,-0.389322917,0.01171875,1,0,0,1.9736,optionLeft,45,5250,3,8,0,8,0,1,,,,,,,,,,,,,,,,,,,,,,,,,,,,,,,,,,,,,,,
,,,,,,,,2023-08-06_08h22.42.546,HF_wild_card,2022.2.4,Win32,3.529602779,6367a6adb376bcde64f98559,64ce5acb97489d65b14ecc7a,64cf4a25dace594c82eae686,,,,,,,sngl,resources/Empty.png,resources/DR.BMP,Door2,0.407552083,-0.028645833,1,0,0,1.9523,optionRight,20,5270,3,9,0,9,0,1,,,,,,,,,,,,,,,,,,,,,,,,,,,,,,,,,,,,,,,
,,,,,,,,2023-08-06_08h22.42.546,HF_wild_card,2022.2.4,Win32,3.529602779,6367a6adb376bcde64f98559,64ce5acb97489d65b14ecc7a,64cf4a25dace594c82eae686,,,,,,,decisionTrl,resources/DY.BMP,resources/DR.BMP,Door1,-0.403645833,0.00390625,1,0,0,1.7422,optionLeft,30,5300,3,10,0,10,0,1,,,,,,,,,,,,,,,,,,,,,,,,,,,,,,,,,,,,,,,
,,,,,,,,2023-08-06_08h22.42.546,HF_wild_card,2022.2.4,Win32,3.529602779,6367a6adb376bcde64f98559,64ce5acb97489d65b14ecc7a,64cf4a25dace594c82eae686,,,,,,,sngl,resources/DG.BMP,resources/Empty.png,Door4,-0.403645833,-0.0078125,1,0,0,2.6753,optionLeft,80,5380,3,11,0,11,0,1,,,,,,,,,,,,,,,,,,,,,,,,,,,,,,,,,,,,,,,
,,,,,,,,2023-08-06_08h22.42.546,HF_wild_card,2022.2.4,Win32,3.529602779,6367a6adb376bcde64f98559,64ce5acb97489d65b14ecc7a,64cf4a25dace594c82eae686,,,,,,,sngl,resources/Empty.png,resources/DB.BMP,WildCard_NonEx,0.385416667,-0.037760417,1,0,0,1.5222,optionRight,55,5435,3,12,0,12,0,1,,,,,,,,,,,,,,,,,,,,,,,,,,,,,,,,,,,,,,,
,,,,,,,,2023-08-06_08h22.42.546,HF_wild_card,2022.2.4,Win32,3.529602779,6367a6adb376bcde64f98559,64ce5acb97489d65b14ecc7a,64cf4a25dace594c82eae686,,,,,,,sngl,resources/DR.BMP,resources/Empty.png,Door2,-0.421875,-0.020833333,1,0,0,1.9455,optionLeft,40,5475,3,13,0,13,0,1,,,,,,,,,,,,,,,,,,,,,,,,,,,,,,,,,,,,,,,
,,,,,,,,2023-08-06_08h22.42.546,HF_wild_card,2022.2.4,Win32,3.529602779,6367a6adb376bcde64f98559,64ce5acb97489d65b14ecc7a,64cf4a25dace594c82eae686,,,,,,,ctch,resources/DG.BMP,resources/DY.BMP,Door4,-0.388020833,0.013020833,1,0,0,1.8918,optionLeft,80,5555,3,14,0,14,0,1,,,,,,,,,,,,,,,,,,,,,,,,,,,,,,,,,,,,,,,
,,,,,,,,2023-08-06_08h22.42.546,HF_wild_card,2022.2.4,Win32,3.529602779,6367a6adb376bcde64f98559,64ce5acb97489d65b14ecc7a,64cf4a25dace594c82eae686,,,,,,,ctch,resources/DBN.BMP,resources/DR.BMP,Door3,-0.395833333,0.009114583,1,0,0,1.734,optionLeft,70,5625,3,15,0,15,0,1,,,,,,,,,,,,,,,,,,,,,,,,,,,,,,,,,,,,,,,
,,,,,,,,2023-08-06_08h22.42.546,HF_wild_card,2022.2.4,Win32,3.529602779,6367a6adb376bcde64f98559,64ce5acb97489d65b14ecc7a,64cf4a25dace594c82eae686,,,,,,,decisionTrl,resources/DG.BMP,resources/DBN.BMP,Door4,-0.39453125,-0.014322917,1,0,0,2.7333,optionLeft,60,5685,3,16,0,16,0,1,,,,,,,,,,,,,,,,,,,,,,,,,,,,,,,,,,,,,,,
,,,,,,,,2023-08-06_08h22.42.546,HF_wild_card,2022.2.4,Win32,3.529602779,6367a6adb376bcde64f98559,64ce5acb97489d65b14ecc7a,64cf4a25dace594c82eae686,,,,,,,sngl,resources/Empty.png,resources/DG.BMP,Door4,0.423177083,-0.00390625,1,0,0,2.5261,optionRight,60,5745,3,17,0,17,0,1,,,,,,,,,,,,,,,,,,,,,,,,,,,,,,,,,,,,,,,
,,,,,,,,2023-08-06_08h22.42.546,HF_wild_card,2022.2.4,Win32,3.529602779,6367a6adb376bcde64f98559,64ce5acb97489d65b14ecc7a,64cf4a25dace594c82eae686,,,,,,,decisionTrl,resources/DG.BMP,resources/DB.BMP,Door4,-0.369791667,-0.001302083,1,0,0,1.7277,optionLeft,60,5805,3,18,0,18,0,1,,,,,,,,,,,,,,,,,,,,,,,,,,,,,,,,,,,,,,,
,,,,,,,,2023-08-06_08h22.42.546,HF_wild_card,2022.2.4,Win32,3.529602779,6367a6adb376bcde64f98559,64ce5acb97489d65b14ecc7a,64cf4a25dace594c82eae686,,,,,,,decisionTrl,resources/DB.BMP,resources/DY.BMP,WildCard_NonEx,-0.397135417,-0.02734375,1,0,0,4.0376,optionLeft,45,5850,3,19,0,19,0,1,,,,,,,,,,,,,,,,,,,,,,,,,,,,,,,,,,,,,,,
,,,,,,,,2023-08-06_08h22.42.546,HF_wild_card,2022.2.4,Win32,3.529602779,6367a6adb376bcde64f98559,64ce5acb97489d65b14ecc7a,64cf4a25dace594c82eae686,,,,,,,decisionTrl,resources/DR.BMP,resources/DY.BMP,Door1,0.423177083,-0.01953125,1,0,0,3.0342,optionRight,30,5880,3,20,0,20,0,1,,,,,,,,,,,,,,,,,,,,,,,,,,,,,,,,,,,,,,,
,,,,,,,,2023-08-06_08h22.42.546,HF_wild_card,2022.2.4,Win32,3.529602779,6367a6adb376bcde64f98559,64ce5acb97489d65b14ecc7a,64cf4a25dace594c82eae686,,,,,,,decisionTrl,resources/DB.BMP,resources/DR.BMP,WildCard_NonEx,-0.415364583,-0.037760417,1,0,0,2.1814,optionLeft,55,5935,3,21,0,21,0,1,,,,,,,,,,,,,,,,,,,,,,,,,,,,,,,,,,,,,,,
,,,,,,,,2023-08-06_08h22.42.546,HF_wild_card,2022.2.4,Win32,3.529602779,6367a6adb376bcde64f98559,64ce5acb97489d65b14ecc7a,64cf4a25dace594c82eae686,,,,,,,ctch,resources/DR.BMP,resources/DBN.BMP,Door3,0.3984375,0,1,0,0,1.771,optionRight,70,6005,3,22,0,22,0,1,,,,,,,,,,,,,,,,,,,,,,,,,,,,,,,,,,,,,,,
,,,,,,,,2023-08-06_08h22.42.546,HF_wild_card,2022.2.4,Win32,3.529602779,6367a6adb376bcde64f98559,64ce5acb97489d65b14ecc7a,64cf4a25dace594c82eae686,,,,,,,decisionTrl,resources/DY.BMP,resources/DR.BMP,Door1,-0.391927083,-0.013020833,1,0,0,2.5158,optionLeft,30,6035,3,23,0,23,0,1,,,,,,,,,,,,,,,,,,,,,,,,,,,,,,,,,,,,,,,
,,,,,,,,2023-08-06_08h22.42.546,HF_wild_card,2022.2.4,Win32,3.529602779,6367a6adb376bcde64f98559,64ce5acb97489d65b14ecc7a,64cf4a25dace594c82eae686,,,,,,,decisionTrl,resources/DY.BMP,resources/DR.BMP,Door1,-0.38671875,-0.020833333,1,0,0,2.953,optionLeft,30,6065,3,24,0,24,0,1,,,,,,,,,,,,,,,,,,,,,,,,,,,,,,,,,,,,,,,
,,,,,,,,2023-08-06_08h22.42.546,HF_wild_card,2022.2.4,Win32,3.529602779,6367a6adb376bcde64f98559,64ce5acb97489d65b14ecc7a,64cf4a25dace594c82eae686,,,,,,,decisionTrl,resources/DBN.BMP,resources/DG.BMP,Door4,0.3828125,0.001302083,1,0,0,3.5355,optionRight,60,6125,3,25,0,25,0,1,,,,,,,,,,,,,,,,,,,,,,,,,,,,,,,,,,,,,,,
,,,,,,,,2023-08-06_08h22.42.546,HF_wild_card,2022.2.4,Win32,3.529602779,6367a6adb376bcde64f98559,64ce5acb97489d65b14ecc7a,64cf4a25dace594c82eae686,,,,,,,decisionTrl,resources/DBN.BMP,resources/DG.BMP,Door3,-0.391927083,0.010416667,1,0,0,1.805,optionLeft,70,6195,3,26,0,26,0,1,,,,,,,,,,,,,,,,,,,,,,,,,,,,,,,,,,,,,,,
,,,,,,,,2023-08-06_08h22.42.546,HF_wild_card,2022.2.4,Win32,3.529602779,6367a6adb376bcde64f98559,64ce5acb97489d65b14ecc7a,64cf4a25dace594c82eae686,,,,,,,decisionTrl,resources/DR.BMP,resources/DY.BMP,Door1,0.420572917,-0.001302083,1,0,0,1.7893,optionRight,30,6225,3,27,0,27,0,1,,,,,,,,,,,,,,,,,,,,,,,,,,,,,,,,,,,,,,,
,,,,,,,,2023-08-06_08h22.42.546,HF_wild_card,2022.2.4,Win32,3.529602779,6367a6adb376bcde64f98559,64ce5acb97489d65b14ecc7a,64cf4a25dace594c82eae686,,,,,,,ctch,resources/DY.BMP,resources/DG.BMP,Door4,0.360677083,0.0078125,1,0,0,2.6531,optionRight,60,6285,3,28,0,28,0,1,,,,,,,,,,,,,,,,,,,,,,,,,,,,,,,,,,,,,,,
,,,,,,,,2023-08-06_08h22.42.546,HF_wild_card,2022.2.4,Win32,3.529602779,6367a6adb376bcde64f98559,64ce5acb97489d65b14ecc7a,64cf4a25dace594c82eae686,,,,,,,decisionTrl,resources/DBN.BMP,resources/DG.BMP,Door3,-0.389322917,-0.005208333,1,0,0,2.1817,optionLeft,70,6355,3,29,0,29,0,1,,,,,,,,,,,,,,,,,,,,,,,,,,,,,,,,,,,,,,,
,,,,,,,,2023-08-06_08h22.42.546,HF_wild_card,2022.2.4,Win32,3.529602779,6367a6adb376bcde64f98559,64ce5acb97489d65b14ecc7a,64cf4a25dace594c82eae686,,,,,,,decisionTrl,resources/DR.BMP,resources/DY.BMP,Door1,0.348958333,-0.014322917,1,0,0,2.6455,optionRight,30,6385,3,30,0,30,0,1,,,,,,,,,,,,,,,,,,,,,,,,,,,,,,,,,,,,,,,
,,,,,,,,2023-08-06_08h22.42.546,HF_wild_card,2022.2.4,Win32,3.529602779,6367a6adb376bcde64f98559,64ce5acb97489d65b14ecc7a,64cf4a25dace594c82eae686,,,,,,,decisionTrl,resources/DY.BMP,resources/DB.BMP,WildCard_NonEx,0.432291667,-0.03125,1,0,0,2.1479,optionRight,55,6440,3,31,0,31,0,1,,,,,,,,,,,,,,,,,,,,,,,,,,,,,,,,,,,,,,,
,,,,,,,,2023-08-06_08h22.42.546,HF_wild_card,2022.2.4,Win32,3.529602779,6367a6adb376bcde64f98559,64ce5acb97489d65b14ecc7a,64cf4a25dace594c82eae686,,,,,,,ctch,resources/DR.BMP,resources/DBN.BMP,Door3,0.37890625,-0.009114583,1,0,0,1.8205,optionRight,70,6510,3,32,0,32,0,1,,,,,,,,,,,,,,,,,,,,,,,,,,,,,,,,,,,,,,,
,,,,,,,,2023-08-06_08h22.42.546,HF_wild_card,2022.2.4,Win32,3.529602779,6367a6adb376bcde64f98559,64ce5acb97489d65b14ecc7a,64cf4a25dace594c82eae686,,,,,,,sngl,resources/DB.BMP,resources/Empty.png,WildCard_NonEx,-0.416666667,-0.028645833,1,0,0,1.6509,optionLeft,55,6565,3,33,0,33,0,1,,,,,,,,,,,,,,,,,,,,,,,,,,,,,,,,,,,,,,,
,,,,,,,,2023-08-06_08h22.42.546,HF_wild_card,2022.2.4,Win32,3.529602779,6367a6adb376bcde64f98559,64ce5acb97489d65b14ecc7a,64cf4a25dace594c82eae686,,,,,,,ctch,resources/DBN.BMP,resources/DR.BMP,Door3,-0.38671875,0.01953125,1,0,0,1.7386,optionLeft,70,6635,3,34,0,34,0,1,,,,,,,,,,,,,,,,,,,,,,,,,,,,,,,,,,,,,,,
,,,,,,,,2023-08-06_08h22.42.546,HF_wild_card,2022.2.4,Win32,3.529602779,6367a6adb376bcde64f98559,64ce5acb97489d65b14ecc7a,64cf4a25dace594c82eae686,,,,,,,decisionTrl,resources/DG.BMP,resources/DBN.BMP,Door3,0.40625,0.010416667,1,0,0,3.0791,optionRight,70,6705,3,35,0,35,0,1,,,,,,,,,,,,,,,,,,,,,,,,,,,,,,,,,,,,,,,
,,,,,,,,2023-08-06_08h22.42.546,HF_wild_card,2022.2.4,Win32,3.529602779,6367a6adb376bcde64f98559,64ce5acb97489d65b14ecc7a,64cf4a25dace594c82eae686,,,,,,,decisionTrl,resources/DBN.BMP,resources/DG.BMP,Door3,-0.384114583,0.010416667,1,0,0,1.7595,optionLeft,70,6775,3,36,0,36,0,1,,,,,,,,,,,,,,,,,,,,,,,,,,,,,,,,,,,,,,,
,,,,,,,,2023-08-06_08h22.42.546,HF_wild_card,2022.2.4,Win32,3.529602779,6367a6adb376bcde64f98559,64ce5acb97489d65b14ecc7a,64cf4a25dace594c82eae686,,,,,,,sngl,resources/Empty.png,resources/DY.BMP,Door1,0.377604167,-0.01171875,1,0,0,1.7238,optionRight,30,6805,3,37,0,37,0,1,,,,,,,,,,,,,,,,,,,,,,,,,,,,,,,,,,,,,,,
,,,,,,,,2023-08-06_08h22.42.546,HF_wild_card,2022.2.4,Win32,3.529602779,6367a6adb376bcde64f98559,64ce5acb97489d65b14ecc7a,64cf4a25dace594c82eae686,,,,,,,decisionTrl,resources/DR.BMP,resources/DY.BMP,Door1,0.377604167,-0.006510417,1,0,0,3.1345,optionRight,30,6835,3,38,0,38,0,1,,,,,,,,,,,,,,,,,,,,,,,,,,,,,,,,,,,,,,,
,,,,,,,,2023-08-06_08h22.42.546,HF_wild_card,2022.2.4,Win32,3.529602779,6367a6adb376bcde64f98559,64ce5acb97489d65b14ecc7a,64cf4a25dace594c82eae686,,,,,,,ctch,resources/DG.BMP,resources/DY.BMP,Door4,-0.38671875,-0.020833333,1,0,0,1.9107,optionLeft,60,6895,3,39,0,39,0,1,,,,,,,,,,,,,,,,,,,,,,,,,,,,,,,,,,,,,,,
,,,,,,,,2023-08-06_08h22.42.546,HF_wild_card,2022.2.4,Win32,3.529602779,6367a6adb376bcde64f98559,64ce5acb97489d65b14ecc7a,64cf4a25dace594c82eae686,,,,,,,decisionTrl,resources/DY.BMP,resources/DR.BMP,Door1,-0.4140625,-0.028645833,1,0,0,3.379,optionLeft,30,6925,3,40,0,40,0,1,,,,,,,,,,,,,,,,,,,,,,,,,,,,,,,,,,,,,,,
,,,,,,,,2023-08-06_08h22.42.546,HF_wild_card,2022.2.4,Win32,3.529602779,6367a6adb376bcde64f98559,64ce5acb97489d65b14ecc7a,64cf4a25dace594c82eae686,,,,,,,sngl,resources/Empty.png,resources/DBN.BMP,Door3,0.375,-0.006510417,1,0,0,1.5178,optionRight,70,6995,3,41,0,41,0,1,,,,,,,,,,,,,,,,,,,,,,,,,,,,,,,,,,,,,,,
,,,,,,,,2023-08-06_08h22.42.546,HF_wild_card,2022.2.4,Win32,3.529602779,6367a6adb376bcde64f98559,64ce5acb97489d65b14ecc7a,64cf4a25dace594c82eae686,,,,,,,decisionTrl,resources/DBN.BMP,resources/DB.BMP,Door3,-0.381510417,0.022135417,1,0,0,3.491,optionLeft,70,7065,3,42,0,42,0,1,,,,,,,,,,,,,,,,,,,,,,,,,,,,,,,,,,,,,,,
,,,,,,,,2023-08-06_08h22.42.546,HF_wild_card,2022.2.4,Win32,3.529602779,6367a6adb376bcde64f98559,64ce5acb97489d65b14ecc7a,64cf4a25dace594c82eae686,,,,,,,decisionTrl,resources/DG.BMP,resources/DBN.BMP,Door3,0.408854167,0.01953125,1,0,0,1.4164,optionRight,70,7135,3,43,0,43,0,1,,,,,,,,,,,,,,,,,,,,,,,,,,,,,,,,,,,,,,,
,,,,,,,,2023-08-06_08h22.42.546,HF_wild_card,2022.2.4,Win32,3.529602779,6367a6adb376bcde64f98559,64ce5acb97489d65b14ecc7a,64cf4a25dace594c82eae686,,,,,,,,,,,,,,,,,,,,,,,,,,2,0,2,0,1,,,,,,,,,,,,,,,,,,,,,,,,,,,,,,,,,,
,,,,,,,,2023-08-06_08h22.42.546,HF_wild_card,2022.2.4,Win32,3.529602779,6367a6adb376bcde64f98559,64ce5acb97489d65b14ecc7a,64cf4a25dace594c82eae686,,,,,,,decisionTrl,resources/DBN.BMP,resources/DG.BMP,Door3,-0.412760417,-0.01171875,1,0,0,2.8184,optionLeft,70,7205,4,0,0,0,0,1,,,,,,,,,,,,,,,,,,,,,,,,,,,,,,,,,,,,,,,
,,,,,,,,2023-08-06_08h22.42.546,HF_wild_card,2022.2.4,Win32,3.529602779,6367a6adb376bcde64f98559,64ce5acb97489d65b14ecc7a,64cf4a25dace594c82eae686,,,,,,,decisionTrl,resources/DG.BMP,resources/DBN.BMP,Door3,0.403645833,0.0078125,1,0,0,1.7914,optionRight,70,7275,4,1,0,1,0,1,,,,,,,,,,,,,,,,,,,,,,,,,,,,,,,,,,,,,,,
,,,,,,,,2023-08-06_08h22.42.546,HF_wild_card,2022.2.4,Win32,3.529602779,6367a6adb376bcde64f98559,64ce5acb97489d65b14ecc7a,64cf4a25dace594c82eae686,,,,,,,decisionTrl,resources/DP.BMP,resources/DY.BMP,WildCard_Ex,-0.397135417,-0.028645833,1,0,0,2.594,optionLeft,95,7370,4,2,0,2,0,1,,,,,,,,,,,,,,,,,,,,,,,,,,,,,,,,,,,,,,,
,,,,,,,,2023-08-06_08h22.42.546,HF_wild_card,2022.2.4,Win32,3.529602779,6367a6adb376bcde64f98559,64ce5acb97489d65b14ecc7a,64cf4a25dace594c82eae686,,,,,,,decisionTrl,resources/DBN.BMP,resources/DG.BMP,Door3,-0.397135417,0.024739583,1,0,0,2.6216,optionLeft,70,7440,4,3,0,3,0,1,,,,,,,,,,,,,,,,,,,,,,,,,,,,,,,,,,,,,,,
,,,,,,,,2023-08-06_08h22.42.546,HF_wild_card,2022.2.4,Win32,3.529602779,6367a6adb376bcde64f98559,64ce5acb97489d65b14ecc7a,64cf4a25dace594c82eae686,,,,,,,decisionTrl,resources/DY.BMP,resources/DR.BMP,Door1,-0.380208333,-0.018229167,1,0,0,2.2082,optionLeft,30,7470,4,4,0,4,0,1,,,,,,,,,,,,,,,,,,,,,,,,,,,,,,,,,,,,,,,
,,,,,,,,2023-08-06_08h22.42.546,HF_wild_card,2022.2.4,Win32,3.529602779,6367a6adb376bcde64f98559,64ce5acb97489d65b14ecc7a,64cf4a25dace594c82eae686,,,,,,,sngl,resources/Empty.png,resources/DP.BMP,WildCard_Ex,0.388020833,-0.055989583,1,0,0,2.7739,optionRight,95,7565,4,5,0,5,0,1,,,,,,,,,,,,,,,,,,,,,,,,,,,,,,,,,,,,,,,
,,,,,,,,2023-08-06_08h22.42.546,HF_wild_card,2022.2.4,Win32,3.529602779,6367a6adb376bcde64f98559,64ce5acb97489d65b14ecc7a,64cf4a25dace594c82eae686,,,,,,,ctch,resources/DBN.BMP,resources/DR.BMP,Door3,-0.38671875,0.01171875,1,0,0,1.697,optionLeft,70,7635,4,6,0,6,0,1,,,,,,,,,,,,,,,,,,,,,,,,,,,,,,,,,,,,,,,
,,,,,,,,2023-08-06_08h22.42.546,HF_wild_card,2022.2.4,Win32,3.529602779,6367a6adb376bcde64f98559,64ce5acb97489d65b14ecc7a,64cf4a25dace594c82eae686,,,,,,,decisionTrl,resources/DP.BMP,resources/DR.BMP,WildCard_Ex,-0.41796875,-0.015625,1,0,0,3.8279,optionLeft,5,7640,4,7,0,7,0,1,,,,,,,,,,,,,,,,,,,,,,,,,,,,,,,,,,,,,,,
,,,,,,,,2023-08-06_08h22.42.546,HF_wild_card,2022.2.4,Win32,3.529602779,6367a6adb376bcde64f98559,64ce5acb97489d65b14ecc7a,64cf4a25dace594c82eae686,,,,,,,sngl,resources/Empty.png,resources/DBN.BMP,Door3,0.368489583,-0.005208333,1,0,0,1.5429,optionRight,70,7710,4,8,0,8,0,1,,,,,,,,,,,,,,,,,,,,,,,,,,,,,,,,,,,,,,,
,,,,,,,,2023-08-06_08h22.42.546,HF_wild_card,2022.2.4,Win32,3.529602779,6367a6adb376bcde64f98559,64ce5acb97489d65b14ecc7a,64cf4a25dace594c82eae686,,,,,,,decisionTrl,resources/DG.BMP,resources/DBN.BMP,Door3,0.408854167,0.009114583,1,0,0,1.8528,optionRight,70,7780,4,9,0,9,0,1,,,,,,,,,,,,,,,,,,,,,,,,,,,,,,,,,,,,,,,
,,,,,,,,2023-08-06_08h22.42.546,HF_wild_card,2022.2.4,Win32,3.529602779,6367a6adb376bcde64f98559,64ce5acb97489d65b14ecc7a,64cf4a25dace594c82eae686,,,,,,,decisionTrl,resources/DG.BMP,resources/DBN.BMP,Door3,0.389322917,-0.001302083,1,0,0,3.9054,optionRight,70,7850,4,10,0,10,0,1,,,,,,,,,,,,,,,,,,,,,,,,,,,,,,,,,,,,,,,
,,,,,,,,2023-08-06_08h22.42.546,HF_wild_card,2022.2.4,Win32,3.529602779,6367a6adb376bcde64f98559,64ce5acb97489d65b14ecc7a,64cf4a25dace594c82eae686,,,,,,,decisionTrl,resources/DR.BMP,resources/DY.BMP,Door1,0.411458333,-0.024739583,1,0,0,1.7195,optionRight,30,7880,4,11,0,11,0,1,,,,,,,,,,,,,,,,,,,,,,,,,,,,,,,,,,,,,,,
,,,,,,,,2023-08-06_08h22.42.546,HF_wild_card,2022.2.4,Win32,3.529602779,6367a6adb376bcde64f98559,64ce5acb97489d65b14ecc7a,64cf4a25dace594c82eae686,,,,,,,decisionTrl,resources/DR.BMP,resources/DP.BMP,WildCard_Ex,0.4140625,-0.03125,1,0,0,2.5924,optionRight,5,7885,4,12,0,12,0,1,,,,,,,,,,,,,,,,,,,,,,,,,,,,,,,,,,,,,,,
,,,,,,,,2023-08-06_08h22.42.546,HF_wild_card,2022.2.4,Win32,3.529602779,6367a6adb376bcde64f98559,64ce5acb97489d65b14ecc7a,64cf4a25dace594c82eae686,,,,,,,sngl,resources/DR.BMP,resources/Empty.png,Door2,-0.41015625,-0.015625,1,0,0,1.5452,optionLeft,20,7905,4,13,0,13,0,1,,,,,,,,,,,,,,,,,,,,,,,,,,,,,,,,,,,,,,,
,,,,,,,,2023-08-06_08h22.42.546,HF_wild_card,2022.2.4,Win32,3.529602779,6367a6adb376bcde64f98559,64ce5acb97489d65b14ecc7a,64cf4a25dace594c82eae686,,,,,,,decisionTrl,resources/DY.BMP,resources/DP.BMP,WildCard_Ex,0.407552083,-0.026041667,1,0,0,4.2591,optionRight,95,8000,4,14,0,14,0,1,,,,,,,,,,,,,,,,,,,,,,,,,,,,,,,,,,,,,,,
,,,,,,,,2023-08-06_08h22.42.546,HF_wild_card,2022.2.4,Win32,3.529602779,6367a6adb376bcde64f98559,64ce5acb97489d65b14ecc7a,64cf4a25dace594c82eae686,,,,,,,decisionTrl,resources/DBN.BMP,resources/DP.BMP,WildCard_Ex,0.372395833,-0.03515625,1,0,0,3.0349,optionRight,95,8095,4,15,0,15,0,1,,,,,,,,,,,,,,,,,,,,,,,,,,,,,,,,,,,,,,,
,,,,,,,,2023-08-06_08h22.42.546,HF_wild_card,2022.2.4,Win32,3.529602779,6367a6adb376bcde64f98559,64ce5acb97489d65b14ecc7a,64cf4a25dace594c82eae686,,,,,,,sngl,resources/DY.BMP,resources/Empty.png,Door1,-0.3984375,-0.018229167,1,0,0,4.8733,optionLeft,30,8125,4,16,0,16,0,1,,,,,,,,,,,,,,,,,,,,,,,,,,,,,,,,,,,,,,,
,,,,,,,,2023-08-06_08h22.42.546,HF_wild_card,2022.2.4,Win32,3.529602779,6367a6adb376bcde64f98559,64ce5acb97489d65b14ecc7a,64cf4a25dace594c82eae686,,,,,,,sngl,resources/Empty.png,resources/DR.BMP,Door2,0.364583333,-0.01171875,1,0,0,3.0494,optionRight,40,8165,4,17,0,17,0,1,,,,,,,,,,,,,,,,,,,,,,,,,,,,,,,,,,,,,,,
,,,,,,,,2023-08-06_08h22.42.546,HF_wild_card,2022.2.4,Win32,3.529602779,6367a6adb376bcde64f98559,64ce5acb97489d65b14ecc7a,64cf4a25dace594c82eae686,,,,,,,decisionTrl,resources/DR.BMP,resources/DY.BMP,Door1,0.393229167,-0.020833333,1,0,0,3.932,optionRight,30,8195,4,18,0,18,0,1,,,,,,,,,,,,,,,,,,,,,,,,,,,,,,,,,,,,,,,
,,,,,,,,2023-08-06_08h22.42.546,HF_wild_card,2022.2.4,Win32,3.529602779,6367a6adb376bcde64f98559,64ce5acb97489d65b14ecc7a,64cf4a25dace594c82eae686,,,,,,,decisionTrl,resources/DY.BMP,resources/DR.BMP,Door2,0.397135417,-0.037760417,1,0,0,6.0614,optionRight,20,8215,4,19,0,19,0,1,,,,,,,,,,,,,,,,,,,,,,,,,,,,,,,,,,,,,,,
,,,,,,,,2023-08-06_08h22.42.546,HF_wild_card,2022.2.4,Win32,3.529602779,6367a6adb376bcde64f98559,64ce5acb97489d65b14ecc7a,64cf4a25dace594c82eae686,,,,,,,decisionTrl,resources/DY.BMP,resources/DR.BMP,Door1,-0.41015625,0.005208333,1,0,0,3.8032,optionLeft,30,8245,4,20,0,20,0,1,,,,,,,,,,,,,,,,,,,,,,,,,,,,,,,,,,,,,,,
,,,,,,,,2023-08-06_08h22.42.546,HF_wild_card,2022.2.4,Win32,3.529602779,6367a6adb376bcde64f98559,64ce5acb97489d65b14ecc7a,64cf4a25dace594c82eae686,,,,,,,decisionTrl,resources/DG.BMP,resources/DBN.BMP,Door3,0.411458333,0.005208333,1,0,0,1.7411,optionRight,70,8315,4,21,0,21,0,1,,,,,,,,,,,,,,,,,,,,,,,,,,,,,,,,,,,,,,,
,,,,,,,,2023-08-06_08h22.42.546,HF_wild_card,2022.2.4,Win32,3.529602779,6367a6adb376bcde64f98559,64ce5acb97489d65b14ecc7a,64cf4a25dace594c82eae686,,,,,,,sngl,resources/Empty.png,resources/DG.BMP,Door4,0.432291667,0.005208333,1,0,0,2.3412,optionRight,80,8395,4,22,0,22,0,1,,,,,,,,,,,,,,,,,,,,,,,,,,,,,,,,,,,,,,,
,,,,,,,,2023-08-06_08h22.42.546,HF_wild_card,2022.2.4,Win32,3.529602779,6367a6adb376bcde64f98559,64ce5acb97489d65b14ecc7a,64cf4a25dace594c82eae686,,,,,,,sngl,resources/DBN.BMP,resources/Empty.png,Door3,-0.424479167,0.010416667,1,0,0,1.6293,optionLeft,70,8465,4,23,0,23,0,1,,,,,,,,,,,,,,,,,,,,,,,,,,,,,,,,,,,,,,,
,,,,,,,,2023-08-06_08h22.42.546,HF_wild_card,2022.2.4,Win32,3.529602779,6367a6adb376bcde64f98559,64ce5acb97489d65b14ecc7a,64cf4a25dace594c82eae686,,,,,,,sngl,resources/DP.BMP,resources/Empty.png,WildCard_Ex,-0.358072917,-0.01171875,1,0,0,2.382,optionLeft,5,8470,4,24,0,24,0,1,,,,,,,,,,,,,,,,,,,,,,,,,,,,,,,,,,,,,,,
,,,,,,,,2023-08-06_08h22.42.546,HF_wild_card,2022.2.4,Win32,3.529602779,6367a6adb376bcde64f98559,64ce5acb97489d65b14ecc7a,64cf4a25dace594c82eae686,,,,,,,decisionTrl,resources/DBN.BMP,resources/DG.BMP,Door3,-0.384114583,0.01171875,1,0,0,1.7956,optionLeft,70,8540,4,25,0,25,0,1,,,,,,,,,,,,,,,,,,,,,,,,,,,,,,,,,,,,,,,
,,,,,,,,2023-08-06_08h22.42.546,HF_wild_card,2022.2.4,Win32,3.529602779,6367a6adb376bcde64f98559,64ce5acb97489d65b14ecc7a,64cf4a25dace594c82eae686,,,,,,,ctch,resources/DBN.BMP,resources/DR.BMP,Door3,-0.401041667,0.02734375,1,0,0,2.5062,optionLeft,70,8610,4,26,0,26,0,1,,,,,,,,,,,,,,,,,,,,,,,,,,,,,,,,,,,,,,,
,,,,,,,,2023-08-06_08h22.42.546,HF_wild_card,2022.2.4,Win32,3.529602779,6367a6adb376bcde64f98559,64ce5acb97489d65b14ecc7a,64cf4a25dace594c82eae686,,,,,,,ctch,resources/DR.BMP,resources/DBN.BMP,Door3,0.407552083,0.018229167,1,0,0,2.1536,optionRight,70,8680,4,27,0,27,0,1,,,,,,,,,,,,,,,,,,,,,,,,,,,,,,,,,,,,,,,
,,,,,,,,2023-08-06_08h22.42.546,HF_wild_card,2022.2.4,Win32,3.529602779,6367a6adb376bcde64f98559,64ce5acb97489d65b14ecc7a,64cf4a25dace594c82eae686,,,,,,,ctch,resources/DY.BMP,resources/DG.BMP,Door4,0.40625,-0.01171875,1,0,0,3.5035,optionRight,80,8760,4,28,0,28,0,1,,,,,,,,,,,,,,,,,,,,,,,,,,,,,,,,,,,,,,,
,,,,,,,,2023-08-06_08h22.42.546,HF_wild_card,2022.2.4,Win32,3.529602779,6367a6adb376bcde64f98559,64ce5acb97489d65b14ecc7a,64cf4a25dace594c82eae686,,,,,,,decisionTrl,resources/DY.BMP,resources/DR.BMP,Door2,0.375,-0.01171875,1,0,0,1.7297,optionRight,40,8800,4,29,0,29,0,1,,,,,,,,,,,,,,,,,,,,,,,,,,,,,,,,,,,,,,,
,,,,,,,,2023-08-06_08h22.42.546,HF_wild_card,2022.2.4,Win32,3.529602779,6367a6adb376bcde64f98559,64ce5acb97489d65b14ecc7a,64cf4a25dace594c82eae686,,,,,,,decisionTrl,resources/DG.BMP,resources/DP.BMP,WildCard_Ex,0.40234375,-0.044270833,1,0,0,2.2478,optionRight,5,8805,4,30,0,30,0,1,,,,,,,,,,,,,,,,,,,,,,,,,,,,,,,,,,,,,,,
,,,,,,,,2023-08-06_08h22.42.546,HF_wild_card,2022.2.4,Win32,3.529602779,6367a6adb376bcde64f98559,64ce5acb97489d65b14ecc7a,64cf4a25dace594c82eae686,,,,,,,decisionTrl,resources/DR.BMP,resources/DY.BMP,Door1,0.395833333,-0.033854167,1,0,0,2.6289,optionRight,30,8835,4,31,0,31,0,1,,,,,,,,,,,,,,,,,,,,,,,,,,,,,,,,,,,,,,,
,,,,,,,,2023-08-06_08h22.42.546,HF_wild_card,2022.2.4,Win32,3.529602779,6367a6adb376bcde64f98559,64ce5acb97489d65b14ecc7a,64cf4a25dace594c82eae686,,,,,,,ctch,resources/DY.BMP,resources/DG.BMP,Door4,0.3828125,-0.01171875,1,0,0,1.6847,optionRight,80,8915,4,32,0,32,0,1,,,,,,,,,,,,,,,,,,,,,,,,,,,,,,,,,,,,,,,
,,,,,,,,2023-08-06_08h22.42.546,HF_wild_card,2022.2.4,Win32,3.529602779,6367a6adb376bcde64f98559,64ce5acb97489d65b14ecc7a,64cf4a25dace594c82eae686,,,,,,,sngl,resources/Empty.png,resources/DP.BMP,WildCard_Ex,0.380208333,-0.029947917,1,0,0,1.5509,optionRight,5,8920,4,33,0,33,0,1,,,,,,,,,,,,,,,,,,,,,,,,,,,,,,,,,,,,,,,
,,,,,,,,2023-08-06_08h22.42.546,HF_wild_card,2022.2.4,Win32,3.529602779,6367a6adb376bcde64f98559,64ce5acb97489d65b14ecc7a,64cf4a25dace594c82eae686,,,,,,,decisionTrl,resources/DP.BMP,resources/DBN.BMP,WildCard_Ex,-0.38671875,-0.032552083,1,0,0,2.1719,optionLeft,5,8925,4,34,0,34,0,1,,,,,,,,,,,,,,,,,,,,,,,,,,,,,,,,,,,,,,,
,,,,,,,,2023-08-06_08h22.42.546,HF_wild_card,2022.2.4,Win32,3.529602779,6367a6adb376bcde64f98559,64ce5acb97489d65b14ecc7a,64cf4a25dace594c82eae686,,,,,,,ctch,resources/DG.BMP,resources/DY.BMP,Door4,-0.45703125,-0.0078125,1,0,0,1.7352,optionLeft,60,8985,4,35,0,35,0,1,,,,,,,,,,,,,,,,,,,,,,,,,,,,,,,,,,,,,,,
,,,,,,,,2023-08-06_08h22.42.546,HF_wild_card,2022.2.4,Win32,3.529602779,6367a6adb376bcde64f98559,64ce5acb97489d65b14ecc7a,64cf4a25dace594c82eae686,,,,,,,ctch,resources/DR.BMP,resources/DBN.BMP,Door3,0.415364583,0.009114583,1,0,0,3.0196,optionRight,70,9055,4,36,0,36,0,1,,,,,,,,,,,,,,,,,,,,,,,,,,,,,,,,,,,,,,,
,,,,,,,,2023-08-06_08h22.42.546,HF_wild_card,2022.2.4,Win32,3.529602779,6367a6adb376bcde64f98559,64ce5acb97489d65b14ecc7a,64cf4a25dace594c82eae686,,,,,,,sngl,resources/DP.BMP,resources/Empty.png,WildCard_Ex,-0.440104167,-0.020833333,1,0,0,1.9508,optionLeft,95,9150,4,37,0,37,0,1,,,,,,,,,,,,,,,,,,,,,,,,,,,,,,,,,,,,,,,
,,,,,,,,2023-08-06_08h22.42.546,HF_wild_card,2022.2.4,Win32,3.529602779,6367a6adb376bcde64f98559,64ce5acb97489d65b14ecc7a,64cf4a25dace594c82eae686,,,,,,,ctch,resources/DG.BMP,resources/DY.BMP,Door4,-0.348958333,0.03515625,1,0,0,1.6982,optionLeft,80,9230,4,38,0,38,0,1,,,,,,,,,,,,,,,,,,,,,,,,,,,,,,,,,,,,,,,
,,,,,,,,2023-08-06_08h22.42.546,HF_wild_card,2022.2.4,Win32,3.529602779,6367a6adb376bcde64f98559,64ce5acb97489d65b14ecc7a,64cf4a25dace594c82eae686,,,,,,,decisionTrl,resources/DR.BMP,resources/DY.BMP,Door1,0.350260417,-0.005208333,1,0,0,1.748,optionRight,30,9260,4,39,0,39,0,1,,,,,,,,,,,,,,,,,,,,,,,,,,,,,,,,,,,,,,,
,,,,,,,,2023-08-06_08h22.42.546,HF_wild_card,2022.2.4,Win32,3.529602779,6367a6adb376bcde64f98559,64ce5acb97489d65b14ecc7a,64cf4a25dace594c82eae686,,,,,,,sngl,resources/DG.BMP,resources/Empty.png,Door4,-0.408854167,-0.01171875,1,0,0,2.2974,optionLeft,60,9320,4,40,0,40,0,1,,,,,,,,,,,,,,,,,,,,,,,,,,,,,,,,,,,,,,,
,,,,,,,,2023-08-06_08h22.42.546,HF_wild_card,2022.2.4,Win32,3.529602779,6367a6adb376bcde64f98559,64ce5acb97489d65b14ecc7a,64cf4a25dace594c82eae686,,,,,,,sngl,resources/Empty.png,resources/DY.BMP,Door1,0.390625,0.002604167,1,0,0,2.4017,optionRight,30,9350,4,41,0,41,0,1,,,,,,,,,,,,,,,,,,,,,,,,,,,,,,,,,,,,,,,
,,,,,,,,2023-08-06_08h22.42.546,HF_wild_card,2022.2.4,Win32,3.529602779,6367a6adb376bcde64f98559,64ce5acb97489d65b14ecc7a,64cf4a25dace594c82eae686,,,,,,,decisionTrl,resources/DP.BMP,resources/DG.BMP,WildCard_Ex,-0.373697917,-0.016927083,1,0,0,3.3093,optionLeft,5,9355,4,42,0,42,0,1,,,,,,,,,,,,,,,,,,,,,,,,,,,,,,,,,,,,,,,
,,,,,,,,2023-08-06_08h22.42.546,HF_wild_card,2022.2.4,Win32,3.529602779,6367a6adb376bcde64f98559,64ce5acb97489d65b14ecc7a,64cf4a25dace594c82eae686,,,,,,,decisionTrl,resources/DBN.BMP,resources/DG.BMP,Door3,-0.37109375,0.010416667,1,0,0,2.1526,optionLeft,70,9425,4,43,0,43,0,1,,,,,,,,,,,,,,,,,,,,,,,,,,,,,,,,,,,,,,,
,,,,,,,,2023-08-06_08h22.42.546,HF_wild_card,2022.2.4,Win32,3.529602779,6367a6adb376bcde64f98559,64ce5acb97489d65b14ecc7a,64cf4a25dace594c82eae686,,,,,,,,,,,,,,,,,,,,,,,,,,3,0,3,0,1,,,,,,,,,,,,,,,,,,,,,,,,,,,,,,,,,,
,,,,,,,,2023-08-06_08h22.42.546,HF_wild_card,2022.2.4,Win32,3.529602779,6367a6adb376bcde64f98559,64ce5acb97489d65b14ecc7a,64cf4a25dace594c82eae686,,,,,,,ctch,resources/DY.BMP,resources/DG.BMP,Door4,0.376302083,0.026041667,1,0,0,3.8251,optionRight,80,9505,5,0,0,0,0,1,,,,,,,,,,,,,,,,,,,,,,,,,,,,,,,,,,,,,,,
,,,,,,,,2023-08-06_08h22.42.546,HF_wild_card,2022.2.4,Win32,3.529602779,6367a6adb376bcde64f98559,64ce5acb97489d65b14ecc7a,64cf4a25dace594c82eae686,,,,,,,sngl,resources/DG.BMP,resources/Empty.png,Door4,-0.364583333,0.016927083,1,0,0,3.2119,optionLeft,80,9585,5,1,0,1,0,1,,,,,,,,,,,,,,,,,,,,,,,,,,,,,,,,,,,,,,,
,,,,,,,,2023-08-06_08h22.42.546,HF_wild_card,2022.2.4,Win32,3.529602779,6367a6adb376bcde64f98559,64ce5acb97489d65b14ecc7a,64cf4a25dace594c82eae686,,,,,,,decisionTrl,resources/DR.BMP,resources/DY.BMP,Door2,-0.372395833,-0.005208333,1,0,0,4.168,optionLeft,40,9625,5,2,0,2,0,1,,,,,,,,,,,,,,,,,,,,,,,,,,,,,,,,,,,,,,,
,,,,,,,,2023-08-06_08h22.42.546,HF_wild_card,2022.2.4,Win32,3.529602779,6367a6adb376bcde64f98559,64ce5acb97489d65b14ecc7a,64cf4a25dace594c82eae686,,,,,,,decisionTrl,resources/DBN.BMP,resources/DG.BMP,Door3,-0.407552083,0.01953125,1,0,0,2.921,optionLeft,70,9695,5,3,0,3,0,1,,,,,,,,,,,,,,,,,,,,,,,,,,,,,,,,,,,,,,,
,,,,,,,,2023-08-06_08h22.42.546,HF_wild_card,2022.2.4,Win32,3.529602779,6367a6adb376bcde64f98559,64ce5acb97489d65b14ecc7a,64cf4a25dace594c82eae686,,,,,,,sngl,resources/Empty.png,resources/DP.BMP,WildCard_Ex,0.2890625,-0.014322917,1,0,0,1.5967,optionRight,5,9700,5,4,0,4,0,1,,,,,,,,,,,,,,,,,,,,,,,,,,,,,,,,,,,,,,,
,,,,,,,,2023-08-06_08h22.42.546,HF_wild_card,2022.2.4,Win32,3.529602779,6367a6adb376bcde64f98559,64ce5acb97489d65b14ecc7a,64cf4a25dace594c82eae686,,,,,,,sngl,resources/DP.BMP,resources/Empty.png,WildCard_Ex,-0.415364583,-0.029947917,1,0,0,1.9782,optionLeft,5,9705,5,5,0,5,0,1,,,,,,,,,,,,,,,,,,,,,,,,,,,,,,,,,,,,,,,
,,,,,,,,2023-08-06_08h22.42.546,HF_wild_card,2022.2.4,Win32,3.529602779,6367a6adb376bcde64f98559,64ce5acb97489d65b14ecc7a,64cf4a25dace594c82eae686,,,,,,,decisionTrl,resources/DP.BMP,resources/DY.BMP,WildCard_Ex,-0.369791667,0.009114583,1,0,0,2.1839,optionLeft,5,9710,5,6,0,6,0,1,,,,,,,,,,,,,,,,,,,,,,,,,,,,,,,,,,,,,,,
,,,,,,,,2023-08-06_08h22.42.546,HF_wild_card,2022.2.4,Win32,3.529602779,6367a6adb376bcde64f98559,64ce5acb97489d65b14ecc7a,64cf4a25dace594c82eae686,,,,,,,decisionTrl,resources/DP.BMP,resources/DR.BMP,WildCard_Ex,-0.358072917,-0.010416667,1,0,0,2.2561,optionLeft,5,9715,5,7,0,7,0,1,,,,,,,,,,,,,,,,,,,,,,,,,,,,,,,,,,,,,,,
,,,,,,,,2023-08-06_08h22.42.546,HF_wild_card,2022.2.4,Win32,3.529602779,6367a6adb376bcde64f98559,64ce5acb97489d65b14ecc7a,64cf4a25dace594c82eae686,,,,,,,ctch,resources/DR.BMP,resources/DBN.BMP,Door3,0.416666667,0.018229167,1,0,0,2.7513,optionRight,70,9785,5,8,0,8,0,1,,,,,,,,,,,,,,,,,,,,,,,,,,,,,,,,,,,,,,,
,,,,,,,,2023-08-06_08h22.42.546,HF_wild_card,2022.2.4,Win32,3.529602779,6367a6adb376bcde64f98559,64ce5acb97489d65b14ecc7a,64cf4a25dace594c82eae686,,,,,,,ctch,resources/DR.BMP,resources/DBN.BMP,Door3,0.3671875,0.015625,1,0,0,1.697,optionRight,70,9855,5,9,0,9,0,1,,,,,,,,,,,,,,,,,,,,,,,,,,,,,,,,,,,,,,,
,,,,,,,,2023-08-06_08h22.42.546,HF_wild_card,2022.2.4,Win32,3.529602779,6367a6adb376bcde64f98559,64ce5acb97489d65b14ecc7a,64cf4a25dace594c82eae686,,,,,,,decisionTrl,resources/DBN.BMP,resources/DG.BMP,Door3,-0.388020833,0.002604167,1,0,0,3.9957,optionLeft,70,9925,5,10,0,10,0,1,,,,,,,,,,,,,,,,,,,,,,,,,,,,,,,,,,,,,,,
,,,,,,,,2023-08-06_08h22.42.546,HF_wild_card,2022.2.4,Win32,3.529602779,6367a6adb376bcde64f98559,64ce5acb97489d65b14ecc7a,64cf4a25dace594c82eae686,,,,,,,sngl,resources/DBN.BMP,resources/Empty.png,Door3,-0.38671875,-0.006510417,1,0,0,1.2361,optionLeft,70,9995,5,11,0,11,0,1,,,,,,,,,,,,,,,,,,,,,,,,,,,,,,,,,,,,,,,
,,,,,,,,2023-08-06_08h22.42.546,HF_wild_card,2022.2.4,Win32,3.529602779,6367a6adb376bcde64f98559,64ce5acb97489d65b14ecc7a,64cf4a25dace594c82eae686,,,,,,,decisionTrl,resources/DR.BMP,resources/DY.BMP,Door1,0.3828125,-0.022135417,1,0,0,1.7005,optionRight,30,10025,5,12,0,12,0,1,,,,,,,,,,,,,,,,,,,,,,,,,,,,,,,,,,,,,,,
,,,,,,,,2023-08-06_08h22.42.546,HF_wild_card,2022.2.4,Win32,3.529602779,6367a6adb376bcde64f98559,64ce5acb97489d65b14ecc7a,64cf4a25dace594c82eae686,,,,,,,decisionTrl,resources/DBN.BMP,resources/DP.BMP,Door3,-0.37890625,0.014322917,1,0,0,2.6846,optionLeft,70,10095,5,13,0,13,0,1,,,,,,,,,,,,,,,,,,,,,,,,,,,,,,,,,,,,,,,
,,,,,,,,2023-08-06_08h22.42.546,HF_wild_card,2022.2.4,Win32,3.529602779,6367a6adb376bcde64f98559,64ce5acb97489d65b14ecc7a,64cf4a25dace594c82eae686,,,,,,,sngl,resources/DY.BMP,resources/Empty.png,Door1,-0.404947917,-0.022135417,1,0,0,2.7241,optionLeft,30,10125,5,14,0,14,0,1,,,,,,,,,,,,,,,,,,,,,,,,,,,,,,,,,,,,,,,
,,,,,,,,2023-08-06_08h22.42.546,HF_wild_card,2022.2.4,Win32,3.529602779,6367a6adb376bcde64f98559,64ce5acb97489d65b14ecc7a,64cf4a25dace594c82eae686,,,,,,,sngl,resources/Empty.png,resources/DBN.BMP,Door3,0.369791667,0.015625,1,0,0,1.2449,optionRight,70,10195,5,15,0,15,0,1,,,,,,,,,,,,,,,,,,,,,,,,,,,,,,,,,,,,,,,
,,,,,,,,2023-08-06_08h22.42.546,HF_wild_card,2022.2.4,Win32,3.529602779,6367a6adb376bcde64f98559,64ce5acb97489d65b14ecc7a,64cf4a25dace594c82eae686,,,,,,,decisionTrl,resources/DBN.BMP,resources/DG.BMP,Door3,-0.391927083,0.022135417,1,0,0,1.3359,optionLeft,70,10265,5,16,0,16,0,1,,,,,,,,,,,,,,,,,,,,,,,,,,,,,,,,,,,,,,,
,,,,,,,,2023-08-06_08h22.42.546,HF_wild_card,2022.2.4,Win32,3.529602779,6367a6adb376bcde64f98559,64ce5acb97489d65b14ecc7a,64cf4a25dace594c82eae686,,,,,,,decisionTrl,resources/DY.BMP,resources/DR.BMP,Door2,0.381510417,-0.040364583,1,0,0,2.1546,optionRight,40,10305,5,17,0,17,0,1,,,,,,,,,,,,,,,,,,,,,,,,,,,,,,,,,,,,,,,
,,,,,,,,2023-08-06_08h22.42.546,HF_wild_card,2022.2.4,Win32,3.529602779,6367a6adb376bcde64f98559,64ce5acb97489d65b14ecc7a,64cf4a25dace594c82eae686,,,,,,,decisionTrl,resources/DG.BMP,resources/DBN.BMP,Door3,0.388020833,0.002604167,1,0,0,2.932,optionRight,70,10375,5,18,0,18,0,1,,,,,,,,,,,,,,,,,,,,,,,,,,,,,,,,,,,,,,,
,,,,,,,,2023-08-06_08h22.42.546,HF_wild_card,2022.2.4,Win32,3.529602779,6367a6adb376bcde64f98559,64ce5acb97489d65b14ecc7a,64cf4a25dace594c82eae686,,,,,,,decisionTrl,resources/DR.BMP,resources/DY.BMP,Door2,-0.40625,-0.044270833,1,0,0,1.7009,optionLeft,20,10395,5,19,0,19,0,1,,,,,,,,,,,,,,,,,,,,,,,,,,,,,,,,,,,,,,,
,,,,,,,,2023-08-06_08h22.42.546,HF_wild_card,2022.2.4,Win32,3.529602779,6367a6adb376bcde64f98559,64ce5acb97489d65b14ecc7a,64cf4a25dace594c82eae686,,,,,,,ctch,resources/DY.BMP,resources/DG.BMP,Door4,0.403645833,0.002604167,1,0,0,1.7585,optionRight,80,10475,5,20,0,20,0,1,,,,,,,,,,,,,,,,,,,,,,,,,,,,,,,,,,,,,,,
,,,,,,,,2023-08-06_08h22.42.546,HF_wild_card,2022.2.4,Win32,3.529602779,6367a6adb376bcde64f98559,64ce5acb97489d65b14ecc7a,64cf4a25dace594c82eae686,,,,,,,decisionTrl,resources/DBN.BMP,resources/DG.BMP,Door4,0.377604167,-0.013020833,1,0,0,3.0308,optionRight,80,10555,5,21,0,21,0,1,,,,,,,,,,,,,,,,,,,,,,,,,,,,,,,,,,,,,,,
,,,,,,,,2023-08-06_08h22.42.546,HF_wild_card,2022.2.4,Win32,3.529602779,6367a6adb376bcde64f98559,64ce5acb97489d65b14ecc7a,64cf4a25dace594c82eae686,,,,,,,decisionTrl,resources/DY.BMP,resources/DR.BMP,Door2,0.36328125,-0.01171875,1,0,0,2.6229,optionRight,40,10595,5,22,0,22,0,1,,,,,,,,,,,,,,,,,,,,,,,,,,,,,,,,,,,,,,,
,,,,,,,,2023-08-06_08h22.42.546,HF_wild_card,2022.2.4,Win32,3.529602779,6367a6adb376bcde64f98559,64ce5acb97489d65b14ecc7a,64cf4a25dace594c82eae686,,,,,,,sngl,resources/DP.BMP,resources/Empty.png,WildCard_Ex,-0.397135417,0.006510417,1,0,0,2.3228,optionLeft,95,10690,5,23,0,23,0,1,,,,,,,,,,,,,,,,,,,,,,,,,,,,,,,,,,,,,,,
,,,,,,,,2023-08-06_08h22.42.546,HF_wild_card,2022.2.4,Win32,3.529602779,6367a6adb376bcde64f98559,64ce5acb97489d65b14ecc7a,64cf4a25dace594c82eae686,,,,,,,decisionTrl,resources/DP.BMP,resources/DG.BMP,WildCard_Ex,-0.364583333,-0.005208333,1,0,0,1.6973,optionLeft,95,10785,5,24,0,24,0,1,,,,,,,,,,,,,,,,,,,,,,,,,,,,,,,,,,,,,,,
,,,,,,,,2023-08-06_08h22.42.546,HF_wild_card,2022.2.4,Win32,3.529602779,6367a6adb376bcde64f98559,64ce5acb97489d65b14ecc7a,64cf4a25dace594c82eae686,,,,,,,ctch,resources/DG.BMP,resources/DY.BMP,Door4,-0.404947917,0.013020833,1,0,0,2.0954,optionLeft,60,10845,5,25,0,25,0,1,,,,,,,,,,,,,,,,,,,,,,,,,,,,,,,,,,,,,,,
,,,,,,,,2023-08-06_08h22.42.546,HF_wild_card,2022.2.4,Win32,3.529602779,6367a6adb376bcde64f98559,64ce5acb97489d65b14ecc7a,64cf4a25dace594c82eae686,,,,,,,decisionTrl,resources/DG.BMP,resources/DBN.BMP,Door3,0.376302083,0.024739583,1,0,0,1.883,optionRight,70,10915,5,26,0,26,0,1,,,,,,,,,,,,,,,,,,,,,,,,,,,,,,,,,,,,,,,
,,,,,,,,2023-08-06_08h22.42.546,HF_wild_card,2022.2.4,Win32,3.529602779,6367a6adb376bcde64f98559,64ce5acb97489d65b14ecc7a,64cf4a25dace594c82eae686,,,,,,,sngl,resources/Empty.png,resources/DP.BMP,WildCard_Ex,0.346354167,-0.014322917,1,0,0,1.6028,optionRight,95,11010,5,27,0,27,0,1,,,,,,,,,,,,,,,,,,,,,,,,,,,,,,,,,,,,,,,
,,,,,,,,2023-08-06_08h22.42.546,HF_wild_card,2022.2.4,Win32,3.529602779,6367a6adb376bcde64f98559,64ce5acb97489d65b14ecc7a,64cf4a25dace594c82eae686,,,,,,,decisionTrl,resources/DG.BMP,resources/DP.BMP,WildCard_Ex,0.365885417,-0.026041667,1,0,0,6.2047,optionRight,5,11015,5,28,0,28,0,1,,,,,,,,,,,,,,,,,,,,,,,,,,,,,,,,,,,,,,,
,,,,,,,,2023-08-06_08h22.42.546,HF_wild_card,2022.2.4,Win32,3.529602779,6367a6adb376bcde64f98559,64ce5acb97489d65b14ecc7a,64cf4a25dace594c82eae686,,,,,,,decisionTrl,resources/DP.BMP,resources/DBN.BMP,Door3,0.360677083,0.04296875,1,0,0,2.184,optionRight,70,11085,5,29,0,29,0,1,,,,,,,,,,,,,,,,,,,,,,,,,,,,,,,,,,,,,,,
,,,,,,,,2023-08-06_08h22.42.546,HF_wild_card,2022.2.4,Win32,3.529602779,6367a6adb376bcde64f98559,64ce5acb97489d65b14ecc7a,64cf4a25dace594c82eae686,,,,,,,sngl,resources/Empty.png,resources/DR.BMP,Door2,0.375,-0.028645833,1,0,0,1.91,optionRight,20,11105,5,30,0,30,0,1,,,,,,,,,,,,,,,,,,,,,,,,,,,,,,,,,,,,,,,
,,,,,,,,2023-08-06_08h22.42.546,HF_wild_card,2022.2.4,Win32,3.529602779,6367a6adb376bcde64f98559,64ce5acb97489d65b14ecc7a,64cf4a25dace594c82eae686,,,,,,,decisionTrl,resources/DY.BMP,resources/DP.BMP,WildCard_Ex,0.404947917,-0.0234375,1,0,0,3.1553,optionRight,95,11200,5,31,0,31,0,1,,,,,,,,,,,,,,,,,,,,,,,,,,,,,,,,,,,,,,,
,,,,,,,,2023-08-06_08h22.42.546,HF_wild_card,2022.2.4,Win32,3.529602779,6367a6adb376bcde64f98559,64ce5acb97489d65b14ecc7a,64cf4a25dace594c82eae686,,,,,,,ctch,resources/DBN.BMP,resources/DR.BMP,Door3,-0.399739583,0.010416667,1,0,0,3.1404,optionLeft,70,11270,5,32,0,32,0,1,,,,,,,,,,,,,,,,,,,,,,,,,,,,,,,,,,,,,,,
,,,,,,,,2023-08-06_08h22.42.546,HF_wild_card,2022.2.4,Win32,3.529602779,6367a6adb376bcde64f98559,64ce5acb97489d65b14ecc7a,64cf4a25dace594c82eae686,,,,,,,decisionTrl,resources/DG.BMP,resources/DBN.BMP,Door3,0.401041667,0.002604167,1,0,0,1.7534,optionRight,70,11340,5,33,0,33,0,1,,,,,,,,,,,,,,,,,,,,,,,,,,,,,,,,,,,,,,,
,,,,,,,,2023-08-06_08h22.42.546,HF_wild_card,2022.2.4,Win32,3.529602779,6367a6adb376bcde64f98559,64ce5acb97489d65b14ecc7a,64cf4a25dace594c82eae686,,,,,,,sngl,resources/Empty.png,resources/DG.BMP,Door4,0.348958333,-0.018229167,1,0,0,1.5681,optionRight,60,11400,5,34,0,34,0,1,,,,,,,,,,,,,,,,,,,,,,,,,,,,,,,,,,,,,,,
,,,,,,,,2023-08-06_08h22.42.546,HF_wild_card,2022.2.4,Win32,3.529602779,6367a6adb376bcde64f98559,64ce5acb97489d65b14ecc7a,64cf4a25dace594c82eae686,,,,,,,decisionTrl,resources/DR.BMP,resources/DP.BMP,WildCard_Ex,0.337239583,-0.029947917,1,0,0,5.1679,optionRight,95,11495,5,35,0,35,0,1,,,,,,,,,,,,,,,,,,,,,,,,,,,,,,,,,,,,,,,
,,,,,,,,2023-08-06_08h22.42.546,HF_wild_card,2022.2.4,Win32,3.529602779,6367a6adb376bcde64f98559,64ce5acb97489d65b14ecc7a,64cf4a25dace594c82eae686,,,,,,,ctch,resources/DBN.BMP,resources/DR.BMP,Door3,-0.4296875,0.006510417,1,0,0,2.5994,optionLeft,70,11565,5,36,0,36,0,1,,,,,,,,,,,,,,,,,,,,,,,,,,,,,,,,,,,,,,,
,,,,,,,,2023-08-06_08h22.42.546,HF_wild_card,2022.2.4,Win32,3.529602779,6367a6adb376bcde64f98559,64ce5acb97489d65b14ecc7a,64cf4a25dace594c82eae686,,,,,,,decisionTrl,resources/DR.BMP,resources/DY.BMP,Door2,-0.420572917,0.014322917,1,0,0,3.8902,optionLeft,20,11585,5,37,0,37,0,1,,,,,,,,,,,,,,,,,,,,,,,,,,,,,,,,,,,,,,,
,,,,,,,,2023-08-06_08h22.42.546,HF_wild_card,2022.2.4,Win32,3.529602779,6367a6adb376bcde64f98559,64ce5acb97489d65b14ecc7a,64cf4a25dace594c82eae686,,,,,,,sngl,resources/Empty.png,resources/DY.BMP,Door1,0.432291667,0.024739583,1,0,0,1.1516,optionRight,30,11615,5,38,0,38,0,1,,,,,,,,,,,,,,,,,,,,,,,,,,,,,,,,,,,,,,,
,,,,,,,,2023-08-06_08h22.42.546,HF_wild_card,2022.2.4,Win32,3.529602779,6367a6adb376bcde64f98559,64ce5acb97489d65b14ecc7a,64cf4a25dace594c82eae686,,,,,,,decisionTrl,resources/DG.BMP,resources/DBN.BMP,Door3,0.401041667,0,1,0,0,1.7089,optionRight,70,11685,5,39,0,39,0,1,,,,,,,,,,,,,,,,,,,,,,,,,,,,,,,,,,,,,,,
,,,,,,,,2023-08-06_08h22.42.546,HF_wild_card,2022.2.4,Win32,3.529602779,6367a6adb376bcde64f98559,64ce5acb97489d65b14ecc7a,64cf4a25dace594c82eae686,,,,,,,decisionTrl,resources/DY.BMP,resources/DR.BMP,Door1,-0.342447917,0.00390625,1,0,0,2.1928,optionLeft,30,11715,5,40,0,40,0,1,,,,,,,,,,,,,,,,,,,,,,,,,,,,,,,,,,,,,,,
,,,,,,,,2023-08-06_08h22.42.546,HF_wild_card,2022.2.4,Win32,3.529602779,6367a6adb376bcde64f98559,64ce5acb97489d65b14ecc7a,64cf4a25dace594c82eae686,,,,,,,decisionTrl,resources/DY.BMP,resources/DR.BMP,Door1,-0.341145833,-0.00390625,1,0,0,1.8034,optionLeft,30,11745,5,41,0,41,0,1,,,,,,,,,,,,,,,,,,,,,,,,,,,,,,,,,,,,,,,
,,,,,,,,2023-08-06_08h22.42.546,HF_wild_card,2022.2.4,Win32,3.529602779,6367a6adb376bcde64f98559,64ce5acb97489d65b14ecc7a,64cf4a25dace594c82eae686,,,,,,,ctch,resources/DG.BMP,resources/DY.BMP,Door4,-0.3671875,0.016927083,1,0,0,2.9801,optionLeft,80,11825,5,42,0,42,0,1,,,,,,,,,,,,,,,,,,,,,,,,,,,,,,,,,,,,,,,
,,,,,,,,2023-08-06_08h22.42.546,HF_wild_card,2022.2.4,Win32,3.529602779,6367a6adb376bcde64f98559,64ce5acb97489d65b14ecc7a,64cf4a25dace594c82eae686,,,,,,,sngl,resources/DR.BMP,resources/Empty.png,Door2,-0.385416667,0.006510417,1,0,0,1.9612,optionLeft,40,11865,5,43,0,43,0,1,,,,,,,,,,,,,,,,,,,,,,,,,,,,,,,,,,,,,,,
,,,,,,,,2023-08-06_08h22.42.546,HF_wild_card,2022.2.4,Win32,3.529602779,6367a6adb376bcde64f98559,64ce5acb97489d65b14ecc7a,64cf4a25dace594c82eae686,,,,,,,,,,,,,,,,,,,,,,,,,,4,0,4,0,1,,,,,,,,,,,,,,,,,,,,,,,,,,,,,,,,,,
,,,,,,,,2023-08-06_08h22.42.546,HF_wild_card,2022.2.4,Win32,3.529602779,6367a6adb376bcde64f98559,64ce5acb97489d65b14ecc7a,64cf4a25dace594c82eae686,,,,,,,sngl,resources/Empty.png,resources/DP.BMP,WildCard_Ex,0.421875,-0.022135417,1,0,0,2.7152,optionRight,95,11960,6,0,0,0,0,1,,,,,,,,,,,,,,,,,,,,,,,,,,,,,,,,,,,,,,,
,,,,,,,,2023-08-06_08h22.42.546,HF_wild_card,2022.2.4,Win32,3.529602779,6367a6adb376bcde64f98559,64ce5acb97489d65b14ecc7a,64cf4a25dace594c82eae686,,,,,,,sngl,resources/DY.BMP,resources/Empty.png,Door1,-0.3671875,0.006510417,1,0,0,1.2136,optionLeft,30,11990,6,1,0,1,0,1,,,,,,,,,,,,,,,,,,,,,,,,,,,,,,,,,,,,,,,
,,,,,,,,2023-08-06_08h22.42.546,HF_wild_card,2022.2.4,Win32,3.529602779,6367a6adb376bcde64f98559,64ce5acb97489d65b14ecc7a,64cf4a25dace594c82eae686,,,,,,,decisionTrl,resources/DG.BMP,resources/DBN.BMP,Door3,0.375,-0.005208333,1,0,0,1.8378,optionRight,70,12060,6,2,0,2,0,1,,,,,,,,,,,,,,,,,,,,,,,,,,,,,,,,,,,,,,,
,,,,,,,,2023-08-06_08h22.42.546,HF_wild_card,2022.2.4,Win32,3.529602779,6367a6adb376bcde64f98559,64ce5acb97489d65b14ecc7a,64cf4a25dace594c82eae686,,,,,,,decisionTrl,resources/DY.BMP,resources/DP.BMP,WildCard_Ex,0.338541667,-0.014322917,1,0,0,2.249,optionRight,95,12155,6,3,0,3,0,1,,,,,,,,,,,,,,,,,,,,,,,,,,,,,,,,,,,,,,,
,,,,,,,,2023-08-06_08h22.42.546,HF_wild_card,2022.2.4,Win32,3.529602779,6367a6adb376bcde64f98559,64ce5acb97489d65b14ecc7a,64cf4a25dace594c82eae686,,,,,,,decisionTrl,resources/DR.BMP,resources/DY.BMP,Door1,0.372395833,-0.00390625,1,0,0,2.5234,optionRight,30,12185,6,4,0,4,0,1,,,,,,,,,,,,,,,,,,,,,,,,,,,,,,,,,,,,,,,
,,,,,,,,2023-08-06_08h22.42.546,HF_wild_card,2022.2.4,Win32,3.529602779,6367a6adb376bcde64f98559,64ce5acb97489d65b14ecc7a,64cf4a25dace594c82eae686,,,,,,,decisionTrl,resources/DBN.BMP,resources/DG.BMP,Door3,-0.385416667,0.016927083,1,0,0,1.8141,optionLeft,70,12255,6,5,0,5,0,1,,,,,,,,,,,,,,,,,,,,,,,,,,,,,,,,,,,,,,,
,,,,,,,,2023-08-06_08h22.42.546,HF_wild_card,2022.2.4,Win32,3.529602779,6367a6adb376bcde64f98559,64ce5acb97489d65b14ecc7a,64cf4a25dace594c82eae686,,,,,,,decisionTrl,resources/DBN.BMP,resources/DP.BMP,WildCard_Ex,0.397135417,-0.009114583,1,0,0,3.9614,optionRight,5,12260,6,6,0,6,0,1,,,,,,,,,,,,,,,,,,,,,,,,,,,,,,,,,,,,,,,
,,,,,,,,2023-08-06_08h22.42.546,HF_wild_card,2022.2.4,Win32,3.529602779,6367a6adb376bcde64f98559,64ce5acb97489d65b14ecc7a,64cf4a25dace594c82eae686,,,,,,,decisionTrl,resources/DG.BMP,resources/DP.BMP,Door4,-0.41015625,-0.0234375,1,0,0,2.2809,optionLeft,60,12320,6,7,0,7,0,1,,,,,,,,,,,,,,,,,,,,,,,,,,,,,,,,,,,,,,,
,,,,,,,,2023-08-06_08h22.42.546,HF_wild_card,2022.2.4,Win32,3.529602779,6367a6adb376bcde64f98559,64ce5acb97489d65b14ecc7a,64cf4a25dace594c82eae686,,,,,,,decisionTrl,resources/DP.BMP,resources/DG.BMP,WildCard_Ex,-0.390625,-0.055989583,1,0,0,2.9851,optionLeft,5,12325,6,8,0,8,0,1,,,,,,,,,,,,,,,,,,,,,,,,,,,,,,,,,,,,,,,
,,,,,,,,2023-08-06_08h22.42.546,HF_wild_card,2022.2.4,Win32,3.529602779,6367a6adb376bcde64f98559,64ce5acb97489d65b14ecc7a,64cf4a25dace594c82eae686,,,,,,,sngl,resources/Empty.png,resources/DY.BMP,Door1,0.373697917,0.0390625,1,0,0,1.5877,optionRight,30,12355,6,9,0,9,0,1,,,,,,,,,,,,,,,,,,,,,,,,,,,,,,,,,,,,,,,
,,,,,,,,2023-08-06_08h22.42.546,HF_wild_card,2022.2.4,Win32,3.529602779,6367a6adb376bcde64f98559,64ce5acb97489d65b14ecc7a,64cf4a25dace594c82eae686,,,,,,,decisionTrl,resources/DY.BMP,resources/DR.BMP,Door1,-0.307291667,-0.010416667,1,0,0,2.3116,optionLeft,30,12385,6,10,0,10,0,1,,,,,,,,,,,,,,,,,,,,,,,,,,,,,,,,,,,,,,,
,,,,,,,,2023-08-06_08h22.42.546,HF_wild_card,2022.2.4,Win32,3.529602779,6367a6adb376bcde64f98559,64ce5acb97489d65b14ecc7a,64cf4a25dace594c82eae686,,,,,,,ctch,resources/DR.BMP,resources/DBN.BMP,Door3,0.395833333,0.002604167,1,0,0,7.3202,optionRight,70,12455,6,11,0,11,0,1,,,,,,,,,,,,,,,,,,,,,,,,,,,,,,,,,,,,,,,
,,,,,,,,2023-08-06_08h22.42.546,HF_wild_card,2022.2.4,Win32,3.529602779,6367a6adb376bcde64f98559,64ce5acb97489d65b14ecc7a,64cf4a25dace594c82eae686,,,,,,,decisionTrl,resources/DP.BMP,resources/DBN.BMP,Door3,0.381510417,0.001302083,1,0,0,2.1966,optionRight,70,12525,6,12,0,12,0,1,,,,,,,,,,,,,,,,,,,,,,,,,,,,,,,,,,,,,,,
,,,,,,,,2023-08-06_08h22.42.546,HF_wild_card,2022.2.4,Win32,3.529602779,6367a6adb376bcde64f98559,64ce5acb97489d65b14ecc7a,64cf4a25dace594c82eae686,,,,,,,sngl,resources/DP.BMP,resources/Empty.png,WildCard_Ex,-0.305989583,-0.006510417,1,0,0,1.5428,optionLeft,5,12530,6,13,0,13,0,1,,,,,,,,,,,,,,,,,,,,,,,,,,,,,,,,,,,,,,,
,,,,,,,,2023-08-06_08h22.42.546,HF_wild_card,2022.2.4,Win32,3.529602779,6367a6adb376bcde64f98559,64ce5acb97489d65b14ecc7a,64cf4a25dace594c82eae686,,,,,,,decisionTrl,resources/DR.BMP,resources/DY.BMP,Door1,0.358072917,-0.016927083,1,0,0,1.717,optionRight,30,12560,6,14,0,14,0,1,,,,,,,,,,,,,,,,,,,,,,,,,,,,,,,,,,,,,,,
,,,,,,,,2023-08-06_08h22.42.546,HF_wild_card,2022.2.4,Win32,3.529602779,6367a6adb376bcde64f98559,64ce5acb97489d65b14ecc7a,64cf4a25dace594c82eae686,,,,,,,decisionTrl,resources/DG.BMP,resources/DBN.BMP,Door3,0.416666667,0.002604167,1,0,0,1.8554,optionRight,70,12630,6,15,0,15,0,1,,,,,,,,,,,,,,,,,,,,,,,,,,,,,,,,,,,,,,,
,,,,,,,,2023-08-06_08h22.42.546,HF_wild_card,2022.2.4,Win32,3.529602779,6367a6adb376bcde64f98559,64ce5acb97489d65b14ecc7a,64cf4a25dace594c82eae686,,,,,,,decisionTrl,resources/DBN.BMP,resources/DG.BMP,Door3,-0.391927083,0.001302083,1,0,0,1.8159,optionLeft,70,12700,6,16,0,16,0,1,,,,,,,,,,,,,,,,,,,,,,,,,,,,,,,,,,,,,,,
,,,,,,,,2023-08-06_08h22.42.546,HF_wild_card,2022.2.4,Win32,3.529602779,6367a6adb376bcde64f98559,64ce5acb97489d65b14ecc7a,64cf4a25dace594c82eae686,,,,,,,decisionTrl,resources/DR.BMP,resources/DY.BMP,Door1,0.358072917,-0.014322917,1,0,0,4.8215,optionRight,30,12730,6,17,0,17,0,1,,,,,,,,,,,,,,,,,,,,,,,,,,,,,,,,,,,,,,,
,,,,,,,,2023-08-06_08h22.42.546,HF_wild_card,2022.2.4,Win32,3.529602779,6367a6adb376bcde64f98559,64ce5acb97489d65b14ecc7a,64cf4a25dace594c82eae686,,,,,,,decisionTrl,resources/DY.BMP,resources/DR.BMP,Door1,-0.42578125,0.00390625,1,0,0,2.2083,optionLeft,30,12760,6,18,0,18,0,1,,,,,,,,,,,,,,,,,,,,,,,,,,,,,,,,,,,,,,,
,,,,,,,,2023-08-06_08h22.42.546,HF_wild_card,2022.2.4,Win32,3.529602779,6367a6adb376bcde64f98559,64ce5acb97489d65b14ecc7a,64cf4a25dace594c82eae686,,,,,,,decisionTrl,resources/DP.BMP,resources/DY.BMP,WildCard_Ex,-0.361979167,-0.0078125,1,0,0,2.3338,optionLeft,5,12765,6,19,0,19,0,1,,,,,,,,,,,,,,,,,,,,,,,,,,,,,,,,,,,,,,,
,,,,,,,,2023-08-06_08h22.42.546,HF_wild_card,2022.2.4,Win32,3.529602779,6367a6adb376bcde64f98559,64ce5acb97489d65b14ecc7a,64cf4a25dace594c82eae686,,,,,,,sngl,resources/DBN.BMP,resources/Empty.png,Door3,-0.373697917,0.0078125,1,0,0,1.869,optionLeft,70,12835,6,20,0,20,0,1,,,,,,,,,,,,,,,,,,,,,,,,,,,,,,,,,,,,,,,
,,,,,,,,2023-08-06_08h22.42.546,HF_wild_card,2022.2.4,Win32,3.529602779,6367a6adb376bcde64f98559,64ce5acb97489d65b14ecc7a,64cf4a25dace594c82eae686,,,,,,,decisionTrl,resources/DY.BMP,resources/DR.BMP,Door1,-0.399739583,0.013020833,1,0,0,2.594,optionLeft,30,12865,6,21,0,21,0,1,,,,,,,,,,,,,,,,,,,,,,,,,,,,,,,,,,,,,,,
,,,,,,,,2023-08-06_08h22.42.546,HF_wild_card,2022.2.4,Win32,3.529602779,6367a6adb376bcde64f98559,64ce5acb97489d65b14ecc7a,64cf4a25dace594c82eae686,,,,,,,decisionTrl,resources/DG.BMP,resources/DBN.BMP,Door3,0.391927083,0.010416667,1,0,0,1.7766,optionRight,70,12935,6,22,0,22,0,1,,,,,,,,,,,,,,,,,,,,,,,,,,,,,,,,,,,,,,,
,,,,,,,,2023-08-06_08h22.42.546,HF_wild_card,2022.2.4,Win32,3.529602779,6367a6adb376bcde64f98559,64ce5acb97489d65b14ecc7a,64cf4a25dace594c82eae686,,,,,,,decisionTrl,resources/DR.BMP,resources/DP.BMP,WildCard_Ex,0.36328125,-0.010416667,1,0,0,2.6054,optionRight,95,13030,6,23,0,23,0,1,,,,,,,,,,,,,,,,,,,,,,,,,,,,,,,,,,,,,,,
,,,,,,,,2023-08-06_08h22.42.546,HF_wild_card,2022.2.4,Win32,3.529602779,6367a6adb376bcde64f98559,64ce5acb97489d65b14ecc7a,64cf4a25dace594c82eae686,,,,,,,sngl,resources/DP.BMP,resources/Empty.png,WildCard_Ex,-0.319010417,-0.018229167,1,0,0,2.0631,optionLeft,95,13125,6,24,0,24,0,1,,,,,,,,,,,,,,,,,,,,,,,,,,,,,,,,,,,,,,,
,,,,,,,,2023-08-06_08h22.42.546,HF_wild_card,2022.2.4,Win32,3.529602779,6367a6adb376bcde64f98559,64ce5acb97489d65b14ecc7a,64cf4a25dace594c82eae686,,,,,,,decisionTrl,resources/DP.BMP,resources/DR.BMP,WildCard_Ex,-0.305989583,-0.013020833,1,0,0,1.7048,optionLeft,5,13130,6,25,0,25,0,1,,,,,,,,,,,,,,,,,,,,,,,,,,,,,,,,,,,,,,,
,,,,,,,,2023-08-06_08h22.42.546,HF_wild_card,2022.2.4,Win32,3.529602779,6367a6adb376bcde64f98559,64ce5acb97489d65b14ecc7a,64cf4a25dace594c82eae686,,,,,,,sngl,resources/Empty.png,resources/DBN.BMP,Door3,0.377604167,0.002604167,1,0,0,1.5906,optionRight,70,13200,6,26,0,26,0,1,,,,,,,,,,,,,,,,,,,,,,,,,,,,,,,,,,,,,,,
,,,,,,,,2023-08-06_08h22.42.546,HF_wild_card,2022.2.4,Win32,3.529602779,6367a6adb376bcde64f98559,64ce5acb97489d65b14ecc7a,64cf4a25dace594c82eae686,,,,,,,ctch,resources/DY.BMP,resources/DG.BMP,Door4,0.423177083,0.009114583,1,0,0,3.9483,optionRight,60,13260,6,27,0,27,0,1,,,,,,,,,,,,,,,,,,,,,,,,,,,,,,,,,,,,,,,
,,,,,,,,2023-08-06_08h22.42.546,HF_wild_card,2022.2.4,Win32,3.529602779,6367a6adb376bcde64f98559,64ce5acb97489d65b14ecc7a,64cf4a25dace594c82eae686,,,,,,,ctch,resources/DBN.BMP,resources/DR.BMP,Door3,-0.419270833,0.00390625,1,0,0,2.1782,optionLeft,70,13330,6,28,0,28,0,1,,,,,,,,,,,,,,,,,,,,,,,,,,,,,,,,,,,,,,,
,,,,,,,,2023-08-06_08h22.42.546,HF_wild_card,2022.2.4,Win32,3.529602779,6367a6adb376bcde64f98559,64ce5acb97489d65b14ecc7a,64cf4a25dace594c82eae686,,,,,,,decisionTrl,resources/DY.BMP,resources/DR.BMP,Door1,-0.334635417,0.018229167,1,0,0,1.7705,optionLeft,30,13360,6,29,0,29,0,1,,,,,,,,,,,,,,,,,,,,,,,,,,,,,,,,,,,,,,,
,,,,,,,,2023-08-06_08h22.42.546,HF_wild_card,2022.2.4,Win32,3.529602779,6367a6adb376bcde64f98559,64ce5acb97489d65b14ecc7a,64cf4a25dace594c82eae686,,,,,,,sngl,resources/DR.BMP,resources/Empty.png,Door2,-0.385416667,0.024739583,1,0,0,1.6155,optionLeft,20,13380,6,30,0,30,0,1,,,,,,,,,,,,,,,,,,,,,,,,,,,,,,,,,,,,,,,
,,,,,,,,2023-08-06_08h22.42.546,HF_wild_card,2022.2.4,Win32,3.529602779,6367a6adb376bcde64f98559,64ce5acb97489d65b14ecc7a,64cf4a25dace594c82eae686,,,,,,,decisionTrl,resources/DBN.BMP,resources/DG.BMP,Door3,-0.33984375,0.03125,1,0,0,1.4552,optionLeft,70,13450,6,31,0,31,0,1,,,,,,,,,,,,,,,,,,,,,,,,,,,,,,,,,,,,,,,
,,,,,,,,2023-08-06_08h22.42.546,HF_wild_card,2022.2.4,Win32,3.529602779,6367a6adb376bcde64f98559,64ce5acb97489d65b14ecc7a,64cf4a25dace594c82eae686,,,,,,,sngl,resources/Empty.png,resources/DP.BMP,WildCard_Ex,0.377604167,-0.00390625,1,0,0,1.9957,optionRight,5,13455,6,32,0,32,0,1,,,,,,,,,,,,,,,,,,,,,,,,,,,,,,,,,,,,,,,
,,,,,,,,2023-08-06_08h22.42.546,HF_wild_card,2022.2.4,Win32,3.529602779,6367a6adb376bcde64f98559,64ce5acb97489d65b14ecc7a,64cf4a25dace594c82eae686,,,,,,,sngl,resources/Empty.png,resources/DG.BMP,Door4,0.364583333,-0.005208333,1,0,0,3.5337,optionRight,80,13535,6,33,0,33,0,1,,,,,,,,,,,,,,,,,,,,,,,,,,,,,,,,,,,,,,,
,,,,,,,,2023-08-06_08h22.42.546,HF_wild_card,2022.2.4,Win32,3.529602779,6367a6adb376bcde64f98559,64ce5acb97489d65b14ecc7a,64cf4a25dace594c82eae686,,,,,,,ctch,resources/DG.BMP,resources/DY.BMP,Door4,-0.303385417,0.022135417,1,0,0,2.0905,optionLeft,80,13615,6,34,0,34,0,1,,,,,,,,,,,,,,,,,,,,,,,,,,,,,,,,,,,,,,,
,,,,,,,,2023-08-06_08h22.42.546,HF_wild_card,2022.2.4,Win32,3.529602779,6367a6adb376bcde64f98559,64ce5acb97489d65b14ecc7a,64cf4a25dace594c82eae686,,,,,,,ctch,resources/DY.BMP,resources/DG.BMP,Door4,0.3984375,-0.002604167,1,0,0,2.6079,optionRight,80,13695,6,35,0,35,0,1,,,,,,,,,,,,,,,,,,,,,,,,,,,,,,,,,,,,,,,
,,,,,,,,2023-08-06_08h22.42.546,HF_wild_card,2022.2.4,Win32,3.529602779,6367a6adb376bcde64f98559,64ce5acb97489d65b14ecc7a,64cf4a25dace594c82eae686,,,,,,,decisionTrl,resources/DBN.BMP,resources/DG.BMP,Door3,-0.41796875,0.014322917,1,0,0,1.7018,optionLeft,70,13765,6,36,0,36,0,1,,,,,,,,,,,,,,,,,,,,,,,,,,,,,,,,,,,,,,,
,,,,,,,,2023-08-06_08h22.42.546,HF_wild_card,2022.2.4,Win32,3.529602779,6367a6adb376bcde64f98559,64ce5acb97489d65b14ecc7a,64cf4a25dace594c82eae686,,,,,,,sngl,resources/DG.BMP,resources/Empty.png,Door4,-0.407552083,0.020833333,1,0,0,2.7021,optionLeft,60,13825,6,37,0,37,0,1,,,,,,,,,,,,,,,,,,,,,,,,,,,,,,,,,,,,,,,
,,,,,,,,2023-08-06_08h22.42.546,HF_wild_card,2022.2.4,Win32,3.529602779,6367a6adb376bcde64f98559,64ce5acb97489d65b14ecc7a,64cf4a25dace594c82eae686,,,,,,,decisionTrl,resources/DG.BMP,resources/DBN.BMP,Door3,0.313802083,0.029947917,1,0,0,2.1241,optionRight,70,13895,6,38,0,38,0,1,,,,,,,,,,,,,,,,,,,,,,,,,,,,,,,,,,,,,,,
,,,,,,,,2023-08-06_08h22.42.546,HF_wild_card,2022.2.4,Win32,3.529602779,6367a6adb376bcde64f98559,64ce5acb97489d65b14ecc7a,64cf4a25dace594c82eae686,,,,,,,ctch,resources/DG.BMP,resources/DY.BMP,Door4,-0.415364583,0.0078125,1,0,0,2.1122,optionLeft,80,13975,6,39,0,39,0,1,,,,,,,,,,,,,,,,,,,,,,,,,,,,,,,,,,,,,,,
,,,,,,,,2023-08-06_08h22.42.546,HF_wild_card,2022.2.4,Win32,3.529602779,6367a6adb376bcde64f98559,64ce5acb97489d65b14ecc7a,64cf4a25dace594c82eae686,,,,,,,sngl,resources/Empty.png,resources/DR.BMP,Door2,0.330729167,0.009114583,1,0,0,2.7885,optionRight,40,14015,6,40,0,40,0,1,,,,,,,,,,,,,,,,,,,,,,,,,,,,,,,,,,,,,,,
,,,,,,,,2023-08-06_08h22.42.546,HF_wild_card,2022.2.4,Win32,3.529602779,6367a6adb376bcde64f98559,64ce5acb97489d65b14ecc7a,64cf4a25dace594c82eae686,,,,,,,ctch,resources/DBN.BMP,resources/DR.BMP,Door3,-0.380208333,0.0078125,1,0,0,3.9993,optionLeft,70,14085,6,41,0,41,0,1,,,,,,,,,,,,,,,,,,,,,,,,,,,,,,,,,,,,,,,
,,,,,,,,2023-08-06_08h22.42.546,HF_wild_card,2022.2.4,Win32,3.529602779,6367a6adb376bcde64f98559,64ce5acb97489d65b14ecc7a,64cf4a25dace594c82eae686,,,,,,,ctch,resources/DR.BMP,resources/DBN.BMP,Door3,0.36328125,0.01953125,1,0,0,1.2947,optionRight,70,14155,6,42,0,42,0,1,,,,,,,,,,,,,,,,,,,,,,,,,,,,,,,,,,,,,,,
,,,,,,,,2023-08-06_08h22.42.546,HF_wild_card,2022.2.4,Win32,3.529602779,6367a6adb376bcde64f98559,64ce5acb97489d65b14ecc7a,64cf4a25dace594c82eae686,,,,,,,decisionTrl,resources/DR.BMP,resources/DY.BMP,Door1,0.282552083,-0.020833333,1,0,0,2.6551,optionRight,30,14185,6,43,0,43,0,1,,,,,,,,,,,,,,,,,,,,,,,,,,,,,,,,,,,,,,,
,,,,,,,,2023-08-06_08h22.42.546,HF_wild_card,2022.2.4,Win32,3.529602779,6367a6adb376bcde64f98559,64ce5acb97489d65b14ecc7a,64cf4a25dace594c82eae686,,,,,,,,,,,,,,,,,,,,,,,,,,5,0,5,0,1,,,,,,,,,,,,,,,,,,,,,,,,,,,,,,,,,,
,,,,,,,,2023-08-06_08h22.42.546,HF_wild_card,2022.2.4,Win32,3.529602779,6367a6adb376bcde64f98559,64ce5acb97489d65b14ecc7a,64cf4a25dace594c82eae686,,,,,,,decisionTrl,resources/DR.BMP,resources/DY.BMP,Door1,0.39453125,0.013020833,1,0,0,3.0516,optionRight,30,14215,7,0,0,0,0,1,,,,,,,,,,,,,,,,,,,,,,,,,,,,,,,,,,,,,,,
,,,,,,,,2023-08-06_08h22.42.546,HF_wild_card,2022.2.4,Win32,3.529602779,6367a6adb376bcde64f98559,64ce5acb97489d65b14ecc7a,64cf4a25dace594c82eae686,,,,,,,ctch,resources/DR.BMP,resources/DBN.BMP,Door3,0.352864583,-0.016927083,1,0,0,2.1198,optionRight,70,14285,7,1,0,1,0,1,,,,,,,,,,,,,,,,,,,,,,,,,,,,,,,,,,,,,,,
,,,,,,,,2023-08-06_08h22.42.546,HF_wild_card,2022.2.4,Win32,3.529602779,6367a6adb376bcde64f98559,64ce5acb97489d65b14ecc7a,64cf4a25dace594c82eae686,,,,,,,decisionTrl,resources/DG.BMP,resources/DBN.BMP,Door3,0.3515625,-0.0078125,1,0,0,1.7989,optionRight,70,14355,7,2,0,2,0,1,,,,,,,,,,,,,,,,,,,,,,,,,,,,,,,,,,,,,,,
,,,,,,,,2023-08-06_08h22.42.546,HF_wild_card,2022.2.4,Win32,3.529602779,6367a6adb376bcde64f98559,64ce5acb97489d65b14ecc7a,64cf4a25dace594c82eae686,,,,,,,decisionTrl,resources/DY.BMP,resources/DR.BMP,Door1,-0.345052083,-0.005208333,1,0,0,3.8303,optionLeft,30,14385,7,3,0,3,0,1,,,,,,,,,,,,,,,,,,,,,,,,,,,,,,,,,,,,,,,
,,,,,,,,2023-08-06_08h22.42.546,HF_wild_card,2022.2.4,Win32,3.529602779,6367a6adb376bcde64f98559,64ce5acb97489d65b14ecc7a,64cf4a25dace594c82eae686,,,,,,,decisionTrl,resources/DG.BMP,resources/DBN.BMP,Door3,0.40625,0.001302083,1,0,0,1.7776,optionRight,70,14455,7,4,0,4,0,1,,,,,,,,,,,,,,,,,,,,,,,,,,,,,,,,,,,,,,,
,,,,,,,,2023-08-06_08h22.42.546,HF_wild_card,2022.2.4,Win32,3.529602779,6367a6adb376bcde64f98559,64ce5acb97489d65b14ecc7a,64cf4a25dace594c82eae686,,,,,,,decisionTrl,resources/DG.BMP,resources/DBN.BMP,Door3,0.36328125,0.00390625,1,0,0,1.7763,optionRight,70,14525,7,5,0,5,0,1,,,,,,,,,,,,,,,,,,,,,,,,,,,,,,,,,,,,,,,
,,,,,,,,2023-08-06_08h22.42.546,HF_wild_card,2022.2.4,Win32,3.529602779,6367a6adb376bcde64f98559,64ce5acb97489d65b14ecc7a,64cf4a25dace594c82eae686,,,,,,,decisionTrl,resources/DY.BMP,resources/DR.BMP,Door1,-0.385416667,-0.015625,1,0,0,2.0981,optionLeft,30,14555,7,6,0,6,0,1,,,,,,,,,,,,,,,,,,,,,,,,,,,,,,,,,,,,,,,
,,,,,,,,2023-08-06_08h22.42.546,HF_wild_card,2022.2.4,Win32,3.529602779,6367a6adb376bcde64f98559,64ce5acb97489d65b14ecc7a,64cf4a25dace594c82eae686,,,,,,,ctch,resources/DY.BMP,resources/DG.BMP,Door4,0.384114583,0.033854167,1,0,0,3.3895,optionRight,80,14635,7,7,0,7,0,1,,,,,,,,,,,,,,,,,,,,,,,,,,,,,,,,,,,,,,,
,,,,,,,,2023-08-06_08h22.42.546,HF_wild_card,2022.2.4,Win32,3.529602779,6367a6adb376bcde64f98559,64ce5acb97489d65b14ecc7a,64cf4a25dace594c82eae686,,,,,,,decisionTrl,resources/DBN.BMP,resources/DG.BMP,Door3,-0.419270833,-0.006510417,1,0,0,1.7501,optionLeft,70,14705,7,8,0,8,0,1,,,,,,,,,,,,,,,,,,,,,,,,,,,,,,,,,,,,,,,
,,,,,,,,2023-08-06_08h22.42.546,HF_wild_card,2022.2.4,Win32,3.529602779,6367a6adb376bcde64f98559,64ce5acb97489d65b14ecc7a,64cf4a25dace594c82eae686,,,,,,,ctch,resources/DG.BMP,resources/DY.BMP,Door4,-0.380208333,0.00390625,1,0,0,6.0703,optionLeft,80,14785,7,9,0,9,0,1,,,,,,,,,,,,,,,,,,,,,,,,,,,,,,,,,,,,,,,
,,,,,,,,2023-08-06_08h22.42.546,HF_wild_card,2022.2.4,Win32,3.529602779,6367a6adb376bcde64f98559,64ce5acb97489d65b14ecc7a,64cf4a25dace594c82eae686,,,,,,,decisionTrl,resources/DR.BMP,resources/DY.BMP,Door1,0.377604167,-0.002604167,1,0,0,2.2488,optionRight,30,14815,7,10,0,10,0,1,,,,,,,,,,,,,,,,,,,,,,,,,,,,,,,,,,,,,,,
,,,,,,,,2023-08-06_08h22.42.546,HF_wild_card,2022.2.4,Win32,3.529602779,6367a6adb376bcde64f98559,64ce5acb97489d65b14ecc7a,64cf4a25dace594c82eae686,,,,,,,ctch,resources/DR.BMP,resources/DBN.BMP,Door3,0.329427083,0.00390625,1,0,0,1.6542,optionRight,70,14885,7,11,0,11,0,1,,,,,,,,,,,,,,,,,,,,,,,,,,,,,,,,,,,,,,,
,,,,,,,,2023-08-06_08h22.42.546,HF_wild_card,2022.2.4,Win32,3.529602779,6367a6adb376bcde64f98559,64ce5acb97489d65b14ecc7a,64cf4a25dace594c82eae686,,,,,,,decisionTrl,resources/DBN.BMP,resources/DG.BMP,Door3,-0.3828125,0.010416667,1,0,0,3.7765,optionLeft,70,14955,7,12,0,12,0,1,,,,,,,,,,,,,,,,,,,,,,,,,,,,,,,,,,,,,,,
,,,,,,,,2023-08-06_08h22.42.546,HF_wild_card,2022.2.4,Win32,3.529602779,6367a6adb376bcde64f98559,64ce5acb97489d65b14ecc7a,64cf4a25dace594c82eae686,,,,,,,ctch,resources/DG.BMP,resources/DY.BMP,Door4,-0.401041667,-0.006510417,1,0,0,2.1959,optionLeft,80,15035,7,13,0,13,0,1,,,,,,,,,,,,,,,,,,,,,,,,,,,,,,,,,,,,,,,
,,,,,,,,2023-08-06_08h22.42.546,HF_wild_card,2022.2.4,Win32,3.529602779,6367a6adb376bcde64f98559,64ce5acb97489d65b14ecc7a,64cf4a25dace594c82eae686,,,,,,,ctch,resources/DY.BMP,resources/DG.BMP,Door4,0.373697917,-0.010416667,1,0,0,1.695,optionRight,80,15115,7,14,0,14,0,1,,,,,,,,,,,,,,,,,,,,,,,,,,,,,,,,,,,,,,,
,,,,,,,,2023-08-06_08h22.42.546,HF_wild_card,2022.2.4,Win32,3.529602779,6367a6adb376bcde64f98559,64ce5acb97489d65b14ecc7a,64cf4a25dace594c82eae686,,,,,,,decisionTrl,resources/DR.BMP,resources/DY.BMP,Door1,0.411458333,-0.01953125,1,0,0,2.116,optionRight,30,15145,7,15,0,15,0,1,,,,,,,,,,,,,,,,,,,,,,,,,,,,,,,,,,,,,,,
,,,,,,,,2023-08-06_08h22.42.546,HF_wild_card,2022.2.4,Win32,3.529602779,6367a6adb376bcde64f98559,64ce5acb97489d65b14ecc7a,64cf4a25dace594c82eae686,,,,,,,decisionTrl,resources/DG.BMP,resources/DBN.BMP,Door3,0.3671875,-0.01171875,1,0,0,1.7488,optionRight,70,15215,7,16,0,16,0,1,,,,,,,,,,,,,,,,,,,,,,,,,,,,,,,,,,,,,,,
,,,,,,,,2023-08-06_08h22.42.546,HF_wild_card,2022.2.4,Win32,3.529602779,6367a6adb376bcde64f98559,64ce5acb97489d65b14ecc7a,64cf4a25dace594c82eae686,,,,,,,ctch,resources/DBN.BMP,resources/DR.BMP,Door3,-0.380208333,0.009114583,1,0,0,3.498,optionLeft,70,15285,7,17,0,17,0,1,,,,,,,,,,,,,,,,,,,,,,,,,,,,,,,,,,,,,,,
,,,,,,,,2023-08-06_08h22.42.546,HF_wild_card,2022.2.4,Win32,3.529602779,6367a6adb376bcde64f98559,64ce5acb97489d65b14ecc7a,64cf4a25dace594c82eae686,,,,,,,decisionTrl,resources/DY.BMP,resources/DR.BMP,Door1,-0.384114583,0.01171875,1,0,0,4.932,optionLeft,30,15315,7,18,0,18,0,1,,,,,,,,,,,,,,,,,,,,,,,,,,,,,,,,,,,,,,,
,,,,,,,,2023-08-06_08h22.42.546,HF_wild_card,2022.2.4,Win32,3.529602779,6367a6adb376bcde64f98559,64ce5acb97489d65b14ecc7a,64cf4a25dace594c82eae686,,,,,,,decisionTrl,resources/DG.BMP,resources/DBN.BMP,Door3,0.385416667,0,1,0,0,1.7485,optionRight,70,15385,7,19,0,19,0,1,,,,,,,,,,,,,,,,,,,,,,,,,,,,,,,,,,,,,,,
,,,,,,,,2023-08-06_08h22.42.546,HF_wild_card,2022.2.4,Win32,3.529602779,6367a6adb376bcde64f98559,64ce5acb97489d65b14ecc7a,64cf4a25dace594c82eae686,,,,,,,decisionTrl,resources/DBN.BMP,resources/DG.BMP,Door3,-0.37890625,0.010416667,1,0,0,1.8685,optionLeft,70,15455,7,20,0,20,0,1,,,,,,,,,,,,,,,,,,,,,,,,,,,,,,,,,,,,,,,
,,,,,,,,2023-08-06_08h22.42.546,HF_wild_card,2022.2.4,Win32,3.529602779,6367a6adb376bcde64f98559,64ce5acb97489d65b14ecc7a,64cf4a25dace594c82eae686,,,,,,,decisionTrl,resources/DY.BMP,resources/DR.BMP,Door1,-0.408854167,-0.015625,1,0,0,1.6723,optionLeft,30,15485,7,21,0,21,0,1,,,,,,,,,,,,,,,,,,,,,,,,,,,,,,,,,,,,,,,
,,,,,,,,2023-08-06_08h22.42.546,HF_wild_card,2022.2.4,Win32,3.529602779,6367a6adb376bcde64f98559,64ce5acb97489d65b14ecc7a,64cf4a25dace594c82eae686,,,,,,,decisionTrl,resources/DG.BMP,resources/DBN.BMP,Door3,0.393229167,-0.001302083,1,0,0,1.8738,optionRight,70,15555,7,22,0,22,0,1,,,,,,,,,,,,,,,,,,,,,,,,,,,,,,,,,,,,,,,
,,,,,,,,2023-08-06_08h22.42.546,HF_wild_card,2022.2.4,Win32,3.529602779,6367a6adb376bcde64f98559,64ce5acb97489d65b14ecc7a,64cf4a25dace594c82eae686,,,,,,,decisionTrl,resources/DR.BMP,resources/DY.BMP,Door1,0.43359375,-0.010416667,1,0,0,2.147,optionRight,30,15585,7,23,0,23,0,1,,,,,,,,,,,,,,,,,,,,,,,,,,,,,,,,,,,,,,,
,,,,,,,,2023-08-06_08h22.42.546,HF_wild_card,2022.2.4,Win32,3.529602779,6367a6adb376bcde64f98559,64ce5acb97489d65b14ecc7a,64cf4a25dace594c82eae686,,,,,,,ctch,resources/DBN.BMP,resources/DR.BMP,Door3,-0.399739583,0.009114583,1,0,0,2.1726,optionLeft,70,15655,7,24,0,24,0,1,,,,,,,,,,,,,,,,,,,,,,,,,,,,,,,,,,,,,,,
,,,,,,,,2023-08-06_08h22.42.546,HF_wild_card,2022.2.4,Win32,3.529602779,6367a6adb376bcde64f98559,64ce5acb97489d65b14ecc7a,64cf4a25dace594c82eae686,,,,,,,decisionTrl,resources/DY.BMP,resources/DR.BMP,Door1,-0.372395833,0.016927083,1,0,0,1.7379,optionLeft,30,15685,7,25,0,25,0,1,,,,,,,,,,,,,,,,,,,,,,,,,,,,,,,,,,,,,,,
,,,,,,,,2023-08-06_08h22.42.546,HF_wild_card,2022.2.4,Win32,3.529602779,6367a6adb376bcde64f98559,64ce5acb97489d65b14ecc7a,64cf4a25dace594c82eae686,,,,,,,ctch,resources/DG.BMP,resources/DY.BMP,Door4,-0.37890625,-0.026041667,1,0,0,1.7467,optionLeft,60,15745,7,26,0,26,0,1,,,,,,,,,,,,,,,,,,,,,,,,,,,,,,,,,,,,,,,
,,,,,,,,2023-08-06_08h22.42.546,HF_wild_card,2022.2.4,Win32,3.529602779,6367a6adb376bcde64f98559,64ce5acb97489d65b14ecc7a,64cf4a25dace594c82eae686,,,,,,,ctch,resources/DR.BMP,resources/DBN.BMP,Door3,0.377604167,0.022135417,1,0,0,1.3092,optionRight,70,15815,7,27,0,27,0,1,,,,,,,,,,,,,,,,,,,,,,,,,,,,,,,,,,,,,,,
,,,,,,,,2023-08-06_08h22.42.546,HF_wild_card,2022.2.4,Win32,3.529602779,6367a6adb376bcde64f98559,64ce5acb97489d65b14ecc7a,64cf4a25dace594c82eae686,,,,,,,ctch,resources/DBN.BMP,resources/DR.BMP,Door3,-0.411458333,0.032552083,1,0,0,2.5763,optionLeft,70,15885,7,28,0,28,0,1,,,,,,,,,,,,,,,,,,,,,,,,,,,,,,,,,,,,,,,
,,,,,,,,2023-08-06_08h22.42.546,HF_wild_card,2022.2.4,Win32,3.529602779,6367a6adb376bcde64f98559,64ce5acb97489d65b14ecc7a,64cf4a25dace594c82eae686,,,,,,,decisionTrl,resources/DR.BMP,resources/DY.BMP,Door1,0.376302083,-0.00390625,1,0,0,1.7773,optionRight,30,15915,7,29,0,29,0,1,,,,,,,,,,,,,,,,,,,,,,,,,,,,,,,,,,,,,,,
,,,,,,,,2023-08-06_08h22.42.546,HF_wild_card,2022.2.4,Win32,3.529602779,6367a6adb376bcde64f98559,64ce5acb97489d65b14ecc7a,64cf4a25dace594c82eae686,,,,,,,decisionTrl,resources/DBN.BMP,resources/DG.BMP,Door3,-0.359375,0.00390625,1,0,0,1.7561,optionLeft,70,15985,7,30,0,30,0,1,,,,,,,,,,,,,,,,,,,,,,,,,,,,,,,,,,,,,,,
,,,,,,,,2023-08-06_08h22.42.546,HF_wild_card,2022.2.4,Win32,3.529602779,6367a6adb376bcde64f98559,64ce5acb97489d65b14ecc7a,64cf4a25dace594c82eae686,,,,,,,decisionTrl,resources/DR.BMP,resources/DY.BMP,Door1,0.38671875,-0.016927083,1,0,0,3.2862,optionRight,30,16015,7,31,0,31,0,1,,,,,,,,,,,,,,,,,,,,,,,,,,,,,,,,,,,,,,,
,,,,,,,,2023-08-06_08h22.42.546,HF_wild_card,2022.2.4,Win32,3.529602779,6367a6adb376bcde64f98559,64ce5acb97489d65b14ecc7a,64cf4a25dace594c82eae686,,,,,,,ctch,resources/DY.BMP,resources/DG.BMP,Door4,0.368489583,-0.006510417,1,0,0,2.7251,optionRight,80,16095,7,32,0,32,0,1,,,,,,,,,,,,,,,,,,,,,,,,,,,,,,,,,,,,,,,
,,,,,,,,2023-08-06_08h22.42.546,HF_wild_card,2022.2.4,Win32,3.529602779,6367a6adb376bcde64f98559,64ce5acb97489d65b14ecc7a,64cf4a25dace594c82eae686,,,,,,,decisionTrl,resources/DY.BMP,resources/DR.BMP,Door1,-0.376302083,-0.013020833,1,0,0,1.8073,optionLeft,30,16125,7,33,0,33,0,1,,,,,,,,,,,,,,,,,,,,,,,,,,,,,,,,,,,,,,,
,,,,,,,,2023-08-06_08h22.42.546,HF_wild_card,2022.2.4,Win32,3.529602779,6367a6adb376bcde64f98559,64ce5acb97489d65b14ecc7a,64cf4a25dace594c82eae686,,,,,,,decisionTrl,resources/DBN.BMP,resources/DG.BMP,Door3,-0.419270833,0.032552083,1,0,0,1.6959,optionLeft,70,16195,7,34,0,34,0,1,,,,,,,,,,,,,,,,,,,,,,,,,,,,,,,,,,,,,,,
,,,,,,,,2023-08-06_08h22.42.546,HF_wild_card,2022.2.4,Win32,3.529602779,6367a6adb376bcde64f98559,64ce5acb97489d65b14ecc7a,64cf4a25dace594c82eae686,,,,,,,decisionTrl,resources/DBN.BMP,resources/DG.BMP,Door3,-0.416666667,0.018229167,1,0,0,1.7756,optionLeft,70,16265,7,35,0,35,0,1,,,,,,,,,,,,,,,,,,,,,,,,,,,,,,,,,,,,,,,
,,,,,,,,2023-08-06_08h22.42.546,HF_wild_card,2022.2.4,Win32,3.529602779,6367a6adb376bcde64f98559,64ce5acb97489d65b14ecc7a,64cf4a25dace594c82eae686,,,,,,,,,,,,,,,,,,,,,,,,,,6,0,6,0,1,,,,,,,,,,,,,,,,,,,,,,,,,,,,,,,,,,
,,,,,,,,2023-08-06_08h22.42.546,HF_wild_card,2022.2.4,Win32,3.529602779,6367a6adb376bcde64f98559,64ce5acb97489d65b14ecc7a,64cf4a25dace594c82eae686,,,,,,,,,,,,,,,,,,,,,,,,,,,,,,,4,,,,,,,,,,,,,,,,,,,,,,,,,,,,,,,,,
,,,,,,,,2023-08-06_08h22.42.546,HF_wild_card,2022.2.4,Win32,3.529602779,6367a6adb376bcde64f98559,64ce5acb97489d65b14ecc7a,64cf4a25dace594c82eae686,,,,,,,,,,,,,,,,,,,,,,,,,,,,,,,,,,,,,,,,,,,,,,,,,,,,,,,,,,,,,,,,
,,,,,,,,2023-08-06_08h22.42.546,HF_wild_card,2022.2.4,Win32,3.529602779,6367a6adb376bcde64f98559,64ce5acb97489d65b14ecc7a,64cf4a25dace594c82eae686,,,,,,,,,,,,,,,,,,,,,,,,,,,,,,,,95,WC_extreme,resources/DP.BMP,0,0,0,0,1,,,,,,,,,,,,,,,,,,,,,,,,,
,,,,,,,,2023-08-06_08h22.42.546,HF_wild_card,2022.2.4,Win32,3.529602779,6367a6adb376bcde64f98559,64ce5acb97489d65b14ecc7a,64cf4a25dace594c82eae686,,,,,,,,,,,,,,,,,,,,,,,,,,,,,,,,30,Door1,resources/DY.BMP,1,0,1,0,1,,,,,,,,,,,,,,,,,,,,,,,,,
,,,,,,,,2023-08-06_08h22.42.546,HF_wild_card,2022.2.4,Win32,3.529602779,6367a6adb376bcde64f98559,64ce5acb97489d65b14ecc7a,64cf4a25dace594c82eae686,,,,,,,,,,,,,,,,,,,,,,,,,,,,,,,,70,Door3,resources/DBN.BMP,2,0,2,0,1,,,,,,,,,,,,,,,,,,,,,,,,,
,,,,,,,,2023-08-06_08h22.42.546,HF_wild_card,2022.2.4,Win32,3.529602779,6367a6adb376bcde64f98559,64ce5acb97489d65b14ecc7a,64cf4a25dace594c82eae686,,,,,,,,,,,,,,,,,,,,,,,,,,,,,,,,20,Door2,resources/DR.BMP,3,0,3,0,1,,,,,,,,,,,,,,,,,,,,,,,,,
,,,,,,,,2023-08-06_08h22.42.546,HF_wild_card,2022.2.4,Win32,3.529602779,6367a6adb376bcde64f98559,64ce5acb97489d65b14ecc7a,64cf4a25dace594c82eae686,,,,,,,,,,,,,,,,,,,,,,,,,,,,,,,,45,WC_nonExtreme,resources/DB.BMP,4,0,4,0,1,,,,,,,,,,,,,,,,,,,,,,,,,
,,,,,,,,2023-08-06_08h22.42.546,HF_wild_card,2022.2.4,Win32,3.529602779,6367a6adb376bcde64f98559,64ce5acb97489d65b14ecc7a,64cf4a25dace594c82eae686,,,,,,,,,,,,,,,,,,,,,,,,,,,,,,,,60,Door4,resources/DG.BMP,5,0,5,0,1,,,,,,,,,,,,,,,,,,,,,,,,,
,,,,,,,,2023-08-06_08h22.42.546,HF_wild_card,2022.2.4,Win32,3.529602779,6367a6adb376bcde64f98559,64ce5acb97489d65b14ecc7a,64cf4a25dace594c82eae686,,,,,,,,,,,,,,,,,,,,,,,,,,,,,,,,,,,,,,,,,,,,,,,,,,,,,,,,,,,,,,,,
,,,,,,,,2023-08-06_08h22.42.546,HF_wild_card,2022.2.4,Win32,3.529602779,6367a6adb376bcde64f98559,64ce5acb97489d65b14ecc7a,64cf4a25dace594c82eae686,,,,,,,,,,,,,,,,,,,,,,,,,,,,,,,,,,,,,,,,0,0,0,0,1,,,,,,,,,,,,,,,,,,,,
