Condition,Low fixed image (Door1),Low risky image (Door2),High fixed image (Door3),High risky image (Door4),Extreme Wild Card,NonExtreme Wild Card,,date,expName,psychopyVersion,OS,frameRate,PROLIFIC_PID,STUDY_ID,SESSION_ID,mouse_2.x,mouse_2.y,mouse_2.leftButton,mouse_2.midButton,mouse_2.rightButton,mouse_2.clicked_name,Trial Type,Left Option Image,Right Option Image,Chosen Door,mouse.x,mouse.y,mouse.leftButton,mouse.midButton,mouse.rightButton,mouse.time,mouse.clicked_name,Feedback,Cumulative Reward,Block,trial.thisRepN,trial.thisTrialN,trial.thisN,trial.thisIndex,trial.ran,blocks.thisRepN,blocks.thisTrialN,blocks.thisN,blocks.thisIndex,blocks.ran,Money conversion,First Outcome Reported,Shown Door (First Outcome),Displayed Image (First Outcome),outcomes.thisRepN,outcomes.thisTrialN,outcomes.thisN,outcomes.thisIndex,outcomes.ran,judgments.thisRepN,judgments.thisTrialN,judgments.thisN,judgments.thisIndex,judgments.ran,freqMouse.x,freqMouse.y,freqMouse.leftButton,freqMouse.midButton,freqMouse.rightButton,freqMouse.clicked_name,FQJ for first outcome,FQJ for second outcome,Shown Door,Displayed Image,trials.thisRepN,trials.thisTrialN,trials.thisN,trials.thisIndex,trials.ran,judgBlock.thisRepN,judgBlock.thisTrialN,judgBlock.thisN,judgBlock.thisIndex,judgBlock.ran
0,resources/DY.BMP,resources/DG.BMP,resources/DB.BMP,resources/DBN.BMP,resources/DR.BMP,resources/DP.BMP,6400e0dd862feacb579475a8,2023-08-16_08h56.42.015,HF_wild_card,2022.2.4,Win32,60.30635629,6400e0dd862feacb579475a8,64d2fd46c836a06233681665,64dc81203c4849c9fa53d2b9,,,,,,,,,,,,,,,,,,,,,,,,,,,,,,,,,,,,,,,,,,,,,,,,,,,,,,,,,,,,,,,,
,,,,,,,6400e0dd862feacb579475a8,2023-08-16_08h56.42.015,HF_wild_card,2022.2.4,Win32,60.30635629,6400e0dd862feacb579475a8,64d2fd46c836a06233681665,64dc81203c4849c9fa53d2b9,0.002604167,-0.420572917,1,0,0,agree,,,,,,,,,,,,,,,,,,,,,,,,,,,,,,,,,,,,,,,,,,,,,,,,,,,,,,,,,,
,,,,,,,6400e0dd862feacb579475a8,2023-08-16_08h56.42.015,HF_wild_card,2022.2.4,Win32,60.30635629,6400e0dd862feacb579475a8,64d2fd46c836a06233681665,64dc81203c4849c9fa53d2b9,,,,,,,,,,,,,,,,,,,,,,,,,,,,,,,,,,,,,,,,,,,,,,,,,,,,,,,,,,,,,,,,
,,,,,,,6400e0dd862feacb579475a8,2023-08-16_08h56.42.015,HF_wild_card,2022.2.4,Win32,60.30635629,6400e0dd862feacb579475a8,64d2fd46c836a06233681665,64dc81203c4849c9fa53d2b9,,,,,,,decisionTrl,resources/DBN.BMP,resources/DB.BMP,Door4,-0.34765625,-0.020833333,1,0,0,4.216,optionLeft,60,60,1,0,0,0,0,1,,,,,,,,,,,,,,,,,,,,,,,,,,,,,,,,,,,,,,,
,,,,,,,6400e0dd862feacb579475a8,2023-08-16_08h56.42.015,HF_wild_card,2022.2.4,Win32,60.30635629,6400e0dd862feacb579475a8,64d2fd46c836a06233681665,64dc81203c4849c9fa53d2b9,,,,,,,decisionTrl,resources/DB.BMP,resources/DBN.BMP,Door4,0.329427083,-0.014322917,1,0,0,5.2909,optionRight,80,140,1,1,0,1,0,1,,,,,,,,,,,,,,,,,,,,,,,,,,,,,,,,,,,,,,,
,,,,,,,6400e0dd862feacb579475a8,2023-08-16_08h56.42.015,HF_wild_card,2022.2.4,Win32,60.30635629,6400e0dd862feacb579475a8,64d2fd46c836a06233681665,64dc81203c4849c9fa53d2b9,,,,,,,decisionTrl,resources/DG.BMP,resources/DY.BMP,Door1,0.397135417,-0.041666667,1,0,0,3.4493,optionRight,30,170,1,2,0,2,0,1,,,,,,,,,,,,,,,,,,,,,,,,,,,,,,,,,,,,,,,
,,,,,,,6400e0dd862feacb579475a8,2023-08-16_08h56.42.015,HF_wild_card,2022.2.4,Win32,60.30635629,6400e0dd862feacb579475a8,64d2fd46c836a06233681665,64dc81203c4849c9fa53d2b9,,,,,,,sngl,resources/DBN.BMP,resources/Empty.png,Door4,-0.384114583,0.01953125,1,0,0,2.2554,optionLeft,80,250,1,3,0,3,0,1,,,,,,,,,,,,,,,,,,,,,,,,,,,,,,,,,,,,,,,
,,,,,,,6400e0dd862feacb579475a8,2023-08-16_08h56.42.015,HF_wild_card,2022.2.4,Win32,60.30635629,6400e0dd862feacb579475a8,64d2fd46c836a06233681665,64dc81203c4849c9fa53d2b9,,,,,,,decisionTrl,resources/DG.BMP,resources/DY.BMP,Door2,-0.358072917,-0.015625,1,0,0,3.3743,optionLeft,20,270,1,4,0,4,0,1,,,,,,,,,,,,,,,,,,,,,,,,,,,,,,,,,,,,,,,
,,,,,,,6400e0dd862feacb579475a8,2023-08-16_08h56.42.015,HF_wild_card,2022.2.4,Win32,60.30635629,6400e0dd862feacb579475a8,64d2fd46c836a06233681665,64dc81203c4849c9fa53d2b9,,,,,,,decisionTrl,resources/DY.BMP,resources/DG.BMP,Door2,0.361979167,-0.020833333,1,0,0,1.3421,optionRight,40,310,1,5,0,5,0,1,,,,,,,,,,,,,,,,,,,,,,,,,,,,,,,,,,,,,,,
,,,,,,,6400e0dd862feacb579475a8,2023-08-16_08h56.42.015,HF_wild_card,2022.2.4,Win32,60.30635629,6400e0dd862feacb579475a8,64d2fd46c836a06233681665,64dc81203c4849c9fa53d2b9,,,,,,,decisionTrl,resources/DB.BMP,resources/DBN.BMP,Door3,-0.329427083,-0.03125,1,0,0,2.4052,optionLeft,70,380,1,6,0,6,0,1,,,,,,,,,,,,,,,,,,,,,,,,,,,,,,,,,,,,,,,
,,,,,,,6400e0dd862feacb579475a8,2023-08-16_08h56.42.015,HF_wild_card,2022.2.4,Win32,60.30635629,6400e0dd862feacb579475a8,64d2fd46c836a06233681665,64dc81203c4849c9fa53d2b9,,,,,,,decisionTrl,resources/DR.BMP,resources/DB.BMP,WildCard_Ex,-0.365885417,-0.028645833,1,0,0,4.1789,optionLeft,95,475,1,7,0,7,0,1,,,,,,,,,,,,,,,,,,,,,,,,,,,,,,,,,,,,,,,
,,,,,,,6400e0dd862feacb579475a8,2023-08-16_08h56.42.015,HF_wild_card,2022.2.4,Win32,60.30635629,6400e0dd862feacb579475a8,64d2fd46c836a06233681665,64dc81203c4849c9fa53d2b9,,,,,,,decisionTrl,resources/DY.BMP,resources/DR.BMP,Door1,-0.3359375,-0.037760417,1,0,0,3.5663,optionLeft,30,505,1,8,0,8,0,1,,,,,,,,,,,,,,,,,,,,,,,,,,,,,,,,,,,,,,,
,,,,,,,6400e0dd862feacb579475a8,2023-08-16_08h56.42.015,HF_wild_card,2022.2.4,Win32,60.30635629,6400e0dd862feacb579475a8,64d2fd46c836a06233681665,64dc81203c4849c9fa53d2b9,,,,,,,sngl,resources/Empty.png,resources/DB.BMP,Door3,0.33203125,-0.01171875,1,0,0,1.1428,optionRight,70,575,1,9,0,9,0,1,,,,,,,,,,,,,,,,,,,,,,,,,,,,,,,,,,,,,,,
,,,,,,,6400e0dd862feacb579475a8,2023-08-16_08h56.42.015,HF_wild_card,2022.2.4,Win32,60.30635629,6400e0dd862feacb579475a8,64d2fd46c836a06233681665,64dc81203c4849c9fa53d2b9,,,,,,,sngl,resources/DY.BMP,resources/Empty.png,Door1,-0.38671875,0.014322917,1,0,0,1.1512,optionLeft,30,605,1,10,0,10,0,1,,,,,,,,,,,,,,,,,,,,,,,,,,,,,,,,,,,,,,,
,,,,,,,6400e0dd862feacb579475a8,2023-08-16_08h56.42.015,HF_wild_card,2022.2.4,Win32,60.30635629,6400e0dd862feacb579475a8,64d2fd46c836a06233681665,64dc81203c4849c9fa53d2b9,,,,,,,decisionTrl,resources/DB.BMP,resources/DR.BMP,WildCard_Ex,0.384114583,-0.0390625,1,0,0,1.7072,optionRight,95,700,1,11,0,11,0,1,,,,,,,,,,,,,,,,,,,,,,,,,,,,,,,,,,,,,,,
,,,,,,,6400e0dd862feacb579475a8,2023-08-16_08h56.42.015,HF_wild_card,2022.2.4,Win32,60.30635629,6400e0dd862feacb579475a8,64d2fd46c836a06233681665,64dc81203c4849c9fa53d2b9,,,,,,,decisionTrl,resources/DG.BMP,resources/DR.BMP,WildCard_Ex,0.395833333,-0.052083333,1,0,0,1.2907,optionRight,5,705,1,12,0,12,0,1,,,,,,,,,,,,,,,,,,,,,,,,,,,,,,,,,,,,,,,
,,,,,,,6400e0dd862feacb579475a8,2023-08-16_08h56.42.015,HF_wild_card,2022.2.4,Win32,60.30635629,6400e0dd862feacb579475a8,64d2fd46c836a06233681665,64dc81203c4849c9fa53d2b9,,,,,,,ctch,resources/DG.BMP,resources/DB.BMP,Door2,-0.31640625,-0.069010417,1,0,0,2.6044,optionLeft,20,725,1,13,0,13,0,1,,,,,,,,,,,,,,,,,,,,,,,,,,,,,,,,,,,,,,,
,,,,,,,6400e0dd862feacb579475a8,2023-08-16_08h56.42.015,HF_wild_card,2022.2.4,Win32,60.30635629,6400e0dd862feacb579475a8,64d2fd46c836a06233681665,64dc81203c4849c9fa53d2b9,,,,,,,decisionTrl,resources/DB.BMP,resources/DBN.BMP,Door4,0.360677083,-0.006510417,1,0,0,1.5412,optionRight,80,805,1,14,0,14,0,1,,,,,,,,,,,,,,,,,,,,,,,,,,,,,,,,,,,,,,,
,,,,,,,6400e0dd862feacb579475a8,2023-08-16_08h56.42.015,HF_wild_card,2022.2.4,Win32,60.30635629,6400e0dd862feacb579475a8,64d2fd46c836a06233681665,64dc81203c4849c9fa53d2b9,,,,,,,decisionTrl,resources/DR.BMP,resources/DG.BMP,WildCard_Ex,-0.377604167,-0.022135417,1,0,0,3.3014,optionLeft,5,810,1,15,0,15,0,1,,,,,,,,,,,,,,,,,,,,,,,,,,,,,,,,,,,,,,,
,,,,,,,6400e0dd862feacb579475a8,2023-08-16_08h56.42.015,HF_wild_card,2022.2.4,Win32,60.30635629,6400e0dd862feacb579475a8,64d2fd46c836a06233681665,64dc81203c4849c9fa53d2b9,,,,,,,sngl,resources/Empty.png,resources/DR.BMP,WildCard_Ex,0.37109375,-0.002604167,1,0,0,0.9598,optionRight,95,905,1,16,0,16,0,1,,,,,,,,,,,,,,,,,,,,,,,,,,,,,,,,,,,,,,,
,,,,,,,6400e0dd862feacb579475a8,2023-08-16_08h56.42.015,HF_wild_card,2022.2.4,Win32,60.30635629,6400e0dd862feacb579475a8,64d2fd46c836a06233681665,64dc81203c4849c9fa53d2b9,,,,,,,ctch,resources/DBN.BMP,resources/DY.BMP,Door4,-0.334635417,0.015625,1,0,0,1.6907,optionLeft,80,985,1,17,0,17,0,1,,,,,,,,,,,,,,,,,,,,,,,,,,,,,,,,,,,,,,,
,,,,,,,6400e0dd862feacb579475a8,2023-08-16_08h56.42.015,HF_wild_card,2022.2.4,Win32,60.30635629,6400e0dd862feacb579475a8,64d2fd46c836a06233681665,64dc81203c4849c9fa53d2b9,,,,,,,decisionTrl,resources/DY.BMP,resources/DG.BMP,Door1,-0.372395833,-0.033854167,1,0,0,3.6833,optionLeft,30,1015,1,18,0,18,0,1,,,,,,,,,,,,,,,,,,,,,,,,,,,,,,,,,,,,,,,
,,,,,,,6400e0dd862feacb579475a8,2023-08-16_08h56.42.015,HF_wild_card,2022.2.4,Win32,60.30635629,6400e0dd862feacb579475a8,64d2fd46c836a06233681665,64dc81203c4849c9fa53d2b9,,,,,,,ctch,resources/DB.BMP,resources/DG.BMP,Door3,-0.4140625,-0.032552083,1,0,0,2.2393,optionLeft,70,1085,1,19,0,19,0,1,,,,,,,,,,,,,,,,,,,,,,,,,,,,,,,,,,,,,,,
,,,,,,,6400e0dd862feacb579475a8,2023-08-16_08h56.42.015,HF_wild_card,2022.2.4,Win32,60.30635629,6400e0dd862feacb579475a8,64d2fd46c836a06233681665,64dc81203c4849c9fa53d2b9,,,,,,,ctch,resources/DY.BMP,resources/DBN.BMP,Door4,0.39453125,-0.029947917,1,0,0,2.0732,optionRight,60,1145,1,20,0,20,0,1,,,,,,,,,,,,,,,,,,,,,,,,,,,,,,,,,,,,,,,
,,,,,,,6400e0dd862feacb579475a8,2023-08-16_08h56.42.015,HF_wild_card,2022.2.4,Win32,60.30635629,6400e0dd862feacb579475a8,64d2fd46c836a06233681665,64dc81203c4849c9fa53d2b9,,,,,,,decisionTrl,resources/DBN.BMP,resources/DB.BMP,Door3,0.3515625,-0.049479167,1,0,0,2.7855,optionRight,70,1215,1,21,0,21,0,1,,,,,,,,,,,,,,,,,,,,,,,,,,,,,,,,,,,,,,,
,,,,,,,6400e0dd862feacb579475a8,2023-08-16_08h56.42.015,HF_wild_card,2022.2.4,Win32,60.30635629,6400e0dd862feacb579475a8,64d2fd46c836a06233681665,64dc81203c4849c9fa53d2b9,,,,,,,sngl,resources/Empty.png,resources/DY.BMP,Door1,0.3203125,0.040364583,1,0,0,1.0439,optionRight,30,1245,1,22,0,22,0,1,,,,,,,,,,,,,,,,,,,,,,,,,,,,,,,,,,,,,,,
,,,,,,,6400e0dd862feacb579475a8,2023-08-16_08h56.42.015,HF_wild_card,2022.2.4,Win32,60.30635629,6400e0dd862feacb579475a8,64d2fd46c836a06233681665,64dc81203c4849c9fa53d2b9,,,,,,,decisionTrl,resources/DR.BMP,resources/DY.BMP,WildCard_Ex,-0.37109375,-0.041666667,1,0,0,3.7829,optionLeft,5,1250,1,23,0,23,0,1,,,,,,,,,,,,,,,,,,,,,,,,,,,,,,,,,,,,,,,
,,,,,,,6400e0dd862feacb579475a8,2023-08-16_08h56.42.015,HF_wild_card,2022.2.4,Win32,60.30635629,6400e0dd862feacb579475a8,64d2fd46c836a06233681665,64dc81203c4849c9fa53d2b9,,,,,,,sngl,resources/DG.BMP,resources/Empty.png,Door2,-0.341145833,-0.029947917,1,0,0,1.0088,optionLeft,40,1290,1,24,0,24,0,1,,,,,,,,,,,,,,,,,,,,,,,,,,,,,,,,,,,,,,,
,,,,,,,6400e0dd862feacb579475a8,2023-08-16_08h56.42.015,HF_wild_card,2022.2.4,Win32,60.30635629,6400e0dd862feacb579475a8,64d2fd46c836a06233681665,64dc81203c4849c9fa53d2b9,,,,,,,sngl,resources/Empty.png,resources/DBN.BMP,Door4,0.416666667,-0.028645833,1,0,0,0.9768,optionRight,60,1350,1,25,0,25,0,1,,,,,,,,,,,,,,,,,,,,,,,,,,,,,,,,,,,,,,,
,,,,,,,6400e0dd862feacb579475a8,2023-08-16_08h56.42.015,HF_wild_card,2022.2.4,Win32,60.30635629,6400e0dd862feacb579475a8,64d2fd46c836a06233681665,64dc81203c4849c9fa53d2b9,,,,,,,decisionTrl,resources/DBN.BMP,resources/DB.BMP,Door3,0.319010417,-0.0078125,1,0,0,2.205,optionRight,70,1420,1,26,0,26,0,1,,,,,,,,,,,,,,,,,,,,,,,,,,,,,,,,,,,,,,,
,,,,,,,6400e0dd862feacb579475a8,2023-08-16_08h56.42.015,HF_wild_card,2022.2.4,Win32,60.30635629,6400e0dd862feacb579475a8,64d2fd46c836a06233681665,64dc81203c4849c9fa53d2b9,,,,,,,ctch,resources/DB.BMP,resources/DG.BMP,Door2,0.305989583,-0.033854167,1,0,0,2.023,optionRight,40,1460,1,27,0,27,0,1,,,,,,,,,,,,,,,,,,,,,,,,,,,,,,,,,,,,,,,
,,,,,,,6400e0dd862feacb579475a8,2023-08-16_08h56.42.015,HF_wild_card,2022.2.4,Win32,60.30635629,6400e0dd862feacb579475a8,64d2fd46c836a06233681665,64dc81203c4849c9fa53d2b9,,,,,,,ctch,resources/DG.BMP,resources/DB.BMP,Door3,0.291666667,-0.044270833,1,0,0,1.7733,optionRight,70,1530,1,28,0,28,0,1,,,,,,,,,,,,,,,,,,,,,,,,,,,,,,,,,,,,,,,
,,,,,,,6400e0dd862feacb579475a8,2023-08-16_08h56.42.015,HF_wild_card,2022.2.4,Win32,60.30635629,6400e0dd862feacb579475a8,64d2fd46c836a06233681665,64dc81203c4849c9fa53d2b9,,,,,,,sngl,resources/DR.BMP,resources/Empty.png,WildCard_Ex,-0.411458333,0.001302083,1,0,0,1.0934,optionLeft,95,1625,1,29,0,29,0,1,,,,,,,,,,,,,,,,,,,,,,,,,,,,,,,,,,,,,,,
,,,,,,,6400e0dd862feacb579475a8,2023-08-16_08h56.42.015,HF_wild_card,2022.2.4,Win32,60.30635629,6400e0dd862feacb579475a8,64d2fd46c836a06233681665,64dc81203c4849c9fa53d2b9,,,,,,,decisionTrl,resources/DBN.BMP,resources/DB.BMP,Door4,-0.3984375,-0.015625,1,0,0,1.9377,optionLeft,60,1685,1,30,0,30,0,1,,,,,,,,,,,,,,,,,,,,,,,,,,,,,,,,,,,,,,,
,,,,,,,6400e0dd862feacb579475a8,2023-08-16_08h56.42.015,HF_wild_card,2022.2.4,Win32,60.30635629,6400e0dd862feacb579475a8,64d2fd46c836a06233681665,64dc81203c4849c9fa53d2b9,,,,,,,sngl,resources/Empty.png,resources/DG.BMP,Door2,0.380208333,0.00390625,1,0,0,0.9759,optionRight,20,1705,1,31,0,31,0,1,,,,,,,,,,,,,,,,,,,,,,,,,,,,,,,,,,,,,,,
,,,,,,,6400e0dd862feacb579475a8,2023-08-16_08h56.42.015,HF_wild_card,2022.2.4,Win32,60.30635629,6400e0dd862feacb579475a8,64d2fd46c836a06233681665,64dc81203c4849c9fa53d2b9,,,,,,,sngl,resources/DB.BMP,resources/Empty.png,Door3,-0.373697917,-0.00390625,1,0,0,1.2193,optionLeft,70,1775,1,32,0,32,0,1,,,,,,,,,,,,,,,,,,,,,,,,,,,,,,,,,,,,,,,
,,,,,,,6400e0dd862feacb579475a8,2023-08-16_08h56.42.015,HF_wild_card,2022.2.4,Win32,60.30635629,6400e0dd862feacb579475a8,64d2fd46c836a06233681665,64dc81203c4849c9fa53d2b9,,,,,,,decisionTrl,resources/DBN.BMP,resources/DR.BMP,WildCard_Ex,0.397135417,-0.029947917,1,0,0,3.8489,optionRight,95,1870,1,33,0,33,0,1,,,,,,,,,,,,,,,,,,,,,,,,,,,,,,,,,,,,,,,
,,,,,,,6400e0dd862feacb579475a8,2023-08-16_08h56.42.015,HF_wild_card,2022.2.4,Win32,60.30635629,6400e0dd862feacb579475a8,64d2fd46c836a06233681665,64dc81203c4849c9fa53d2b9,,,,,,,ctch,resources/DBN.BMP,resources/DY.BMP,Door4,-0.360677083,-0.006510417,1,0,0,1.7974,optionLeft,80,1950,1,34,0,34,0,1,,,,,,,,,,,,,,,,,,,,,,,,,,,,,,,,,,,,,,,
,,,,,,,6400e0dd862feacb579475a8,2023-08-16_08h56.42.015,HF_wild_card,2022.2.4,Win32,60.30635629,6400e0dd862feacb579475a8,64d2fd46c836a06233681665,64dc81203c4849c9fa53d2b9,,,,,,,decisionTrl,resources/DY.BMP,resources/DG.BMP,Door2,0.361979167,-0.055989583,1,0,0,3.4822,optionRight,20,1970,1,35,0,35,0,1,,,,,,,,,,,,,,,,,,,,,,,,,,,,,,,,,,,,,,,
,,,,,,,6400e0dd862feacb579475a8,2023-08-16_08h56.42.015,HF_wild_card,2022.2.4,Win32,60.30635629,6400e0dd862feacb579475a8,64d2fd46c836a06233681665,64dc81203c4849c9fa53d2b9,,,,,,,sngl,resources/Empty.png,resources/DR.BMP,WildCard_Ex,0.30078125,-0.022135417,1,0,0,0.9769,optionRight,5,1975,1,36,0,36,0,1,,,,,,,,,,,,,,,,,,,,,,,,,,,,,,,,,,,,,,,
,,,,,,,6400e0dd862feacb579475a8,2023-08-16_08h56.42.015,HF_wild_card,2022.2.4,Win32,60.30635629,6400e0dd862feacb579475a8,64d2fd46c836a06233681665,64dc81203c4849c9fa53d2b9,,,,,,,decisionTrl,resources/DR.BMP,resources/DBN.BMP,Door4,0.361979167,-0.016927083,1,0,0,1.5077,optionRight,60,2035,1,37,0,37,0,1,,,,,,,,,,,,,,,,,,,,,,,,,,,,,,,,,,,,,,,
,,,,,,,6400e0dd862feacb579475a8,2023-08-16_08h56.42.015,HF_wild_card,2022.2.4,Win32,60.30635629,6400e0dd862feacb579475a8,64d2fd46c836a06233681665,64dc81203c4849c9fa53d2b9,,,,,,,decisionTrl,resources/DB.BMP,resources/DBN.BMP,Door3,-0.39453125,-0.055989583,1,0,0,1.8399,optionLeft,70,2105,1,38,0,38,0,1,,,,,,,,,,,,,,,,,,,,,,,,,,,,,,,,,,,,,,,
,,,,,,,6400e0dd862feacb579475a8,2023-08-16_08h56.42.015,HF_wild_card,2022.2.4,Win32,60.30635629,6400e0dd862feacb579475a8,64d2fd46c836a06233681665,64dc81203c4849c9fa53d2b9,,,,,,,ctch,resources/DY.BMP,resources/DBN.BMP,Door4,0.348958333,-0.015625,1,0,0,1.9396,optionRight,60,2165,1,39,0,39,0,1,,,,,,,,,,,,,,,,,,,,,,,,,,,,,,,,,,,,,,,
,,,,,,,6400e0dd862feacb579475a8,2023-08-16_08h56.42.015,HF_wild_card,2022.2.4,Win32,60.30635629,6400e0dd862feacb579475a8,64d2fd46c836a06233681665,64dc81203c4849c9fa53d2b9,,,,,,,sngl,resources/DR.BMP,resources/Empty.png,WildCard_Ex,-0.33203125,-0.00390625,1,0,0,1.1422,optionLeft,5,2170,1,40,0,40,0,1,,,,,,,,,,,,,,,,,,,,,,,,,,,,,,,,,,,,,,,
,,,,,,,6400e0dd862feacb579475a8,2023-08-16_08h56.42.015,HF_wild_card,2022.2.4,Win32,60.30635629,6400e0dd862feacb579475a8,64d2fd46c836a06233681665,64dc81203c4849c9fa53d2b9,,,,,,,decisionTrl,resources/DG.BMP,resources/DY.BMP,Door2,-0.29296875,-0.015625,1,0,0,2.7037,optionLeft,40,2210,1,41,0,41,0,1,,,,,,,,,,,,,,,,,,,,,,,,,,,,,,,,,,,,,,,
,,,,,,,6400e0dd862feacb579475a8,2023-08-16_08h56.42.015,HF_wild_card,2022.2.4,Win32,60.30635629,6400e0dd862feacb579475a8,64d2fd46c836a06233681665,64dc81203c4849c9fa53d2b9,,,,,,,decisionTrl,resources/DG.BMP,resources/DY.BMP,Door1,0.325520833,-0.071614583,1,0,0,2.0232,optionRight,30,2240,1,42,0,42,0,1,,,,,,,,,,,,,,,,,,,,,,,,,,,,,,,,,,,,,,,
,,,,,,,6400e0dd862feacb579475a8,2023-08-16_08h56.42.015,HF_wild_card,2022.2.4,Win32,60.30635629,6400e0dd862feacb579475a8,64d2fd46c836a06233681665,64dc81203c4849c9fa53d2b9,,,,,,,decisionTrl,resources/DY.BMP,resources/DG.BMP,Door2,0.354166667,-0.029947917,1,0,0,2.7694,optionRight,40,2280,1,43,0,43,0,1,,,,,,,,,,,,,,,,,,,,,,,,,,,,,,,,,,,,,,,
,,,,,,,6400e0dd862feacb579475a8,2023-08-16_08h56.42.015,HF_wild_card,2022.2.4,Win32,60.30635629,6400e0dd862feacb579475a8,64d2fd46c836a06233681665,64dc81203c4849c9fa53d2b9,,,,,,,,,,,,,,,,,,,,,,,,,,0,0,0,0,1,,,,,,,,,,,,,,,,,,,,,,,,,,,,,,,,,,
,,,,,,,6400e0dd862feacb579475a8,2023-08-16_08h56.42.015,HF_wild_card,2022.2.4,Win32,60.30635629,6400e0dd862feacb579475a8,64d2fd46c836a06233681665,64dc81203c4849c9fa53d2b9,,,,,,,decisionTrl,resources/DY.BMP,resources/DR.BMP,WildCard_Ex,0.313802083,0.0234375,1,0,0,1.6954,optionRight,5,2285,2,0,0,0,0,1,,,,,,,,,,,,,,,,,,,,,,,,,,,,,,,,,,,,,,,
,,,,,,,6400e0dd862feacb579475a8,2023-08-16_08h56.42.015,HF_wild_card,2022.2.4,Win32,60.30635629,6400e0dd862feacb579475a8,64d2fd46c836a06233681665,64dc81203c4849c9fa53d2b9,,,,,,,decisionTrl,resources/DBN.BMP,resources/DB.BMP,Door4,-0.385416667,-0.095052083,1,0,0,1.4839,optionLeft,80,2365,2,1,0,1,0,1,,,,,,,,,,,,,,,,,,,,,,,,,,,,,,,,,,,,,,,
,,,,,,,6400e0dd862feacb579475a8,2023-08-16_08h56.42.015,HF_wild_card,2022.2.4,Win32,60.30635629,6400e0dd862feacb579475a8,64d2fd46c836a06233681665,64dc81203c4849c9fa53d2b9,,,,,,,decisionTrl,resources/DB.BMP,resources/DBN.BMP,Door3,-0.365885417,-0.049479167,1,0,0,1.5898,optionLeft,70,2435,2,2,0,2,0,1,,,,,,,,,,,,,,,,,,,,,,,,,,,,,,,,,,,,,,,
,,,,,,,6400e0dd862feacb579475a8,2023-08-16_08h56.42.015,HF_wild_card,2022.2.4,Win32,60.30635629,6400e0dd862feacb579475a8,64d2fd46c836a06233681665,64dc81203c4849c9fa53d2b9,,,,,,,decisionTrl,resources/DY.BMP,resources/DG.BMP,Door2,0.34375,-0.0546875,1,0,0,1.6087,optionRight,20,2455,2,3,0,3,0,1,,,,,,,,,,,,,,,,,,,,,,,,,,,,,,,,,,,,,,,
,,,,,,,6400e0dd862feacb579475a8,2023-08-16_08h56.42.015,HF_wild_card,2022.2.4,Win32,60.30635629,6400e0dd862feacb579475a8,64d2fd46c836a06233681665,64dc81203c4849c9fa53d2b9,,,,,,,decisionTrl,resources/DG.BMP,resources/DY.BMP,Door2,-0.337239583,-0.016927083,1,0,0,1.3586,optionLeft,40,2495,2,4,0,4,0,1,,,,,,,,,,,,,,,,,,,,,,,,,,,,,,,,,,,,,,,
,,,,,,,6400e0dd862feacb579475a8,2023-08-16_08h56.42.015,HF_wild_card,2022.2.4,Win32,60.30635629,6400e0dd862feacb579475a8,64d2fd46c836a06233681665,64dc81203c4849c9fa53d2b9,,,,,,,sngl,resources/Empty.png,resources/DY.BMP,Door1,0.330729167,-0.013020833,1,0,0,0.9352,optionRight,30,2525,2,5,0,5,0,1,,,,,,,,,,,,,,,,,,,,,,,,,,,,,,,,,,,,,,,
,,,,,,,6400e0dd862feacb579475a8,2023-08-16_08h56.42.015,HF_wild_card,2022.2.4,Win32,60.30635629,6400e0dd862feacb579475a8,64d2fd46c836a06233681665,64dc81203c4849c9fa53d2b9,,,,,,,decisionTrl,resources/DB.BMP,resources/DBN.BMP,Door3,-0.3984375,-0.084635417,1,0,0,1.8076,optionLeft,70,2595,2,6,0,6,0,1,,,,,,,,,,,,,,,,,,,,,,,,,,,,,,,,,,,,,,,
,,,,,,,6400e0dd862feacb579475a8,2023-08-16_08h56.42.015,HF_wild_card,2022.2.4,Win32,60.30635629,6400e0dd862feacb579475a8,64d2fd46c836a06233681665,64dc81203c4849c9fa53d2b9,,,,,,,decisionTrl,resources/DG.BMP,resources/DY.BMP,Door2,-0.373697917,-0.040364583,1,0,0,1.7236,optionLeft,40,2635,2,7,0,7,0,1,,,,,,,,,,,,,,,,,,,,,,,,,,,,,,,,,,,,,,,
,,,,,,,6400e0dd862feacb579475a8,2023-08-16_08h56.42.015,HF_wild_card,2022.2.4,Win32,60.30635629,6400e0dd862feacb579475a8,64d2fd46c836a06233681665,64dc81203c4849c9fa53d2b9,,,,,,,decisionTrl,resources/DB.BMP,resources/DBN.BMP,Door4,0.380208333,-0.104166667,1,0,0,1.4249,optionRight,60,2695,2,8,0,8,0,1,,,,,,,,,,,,,,,,,,,,,,,,,,,,,,,,,,,,,,,
,,,,,,,6400e0dd862feacb579475a8,2023-08-16_08h56.42.015,HF_wild_card,2022.2.4,Win32,60.30635629,6400e0dd862feacb579475a8,64d2fd46c836a06233681665,64dc81203c4849c9fa53d2b9,,,,,,,sngl,resources/DBN.BMP,resources/Empty.png,Door4,-0.37890625,0,1,0,0,0.9608,optionLeft,60,2755,2,9,0,9,0,1,,,,,,,,,,,,,,,,,,,,,,,,,,,,,,,,,,,,,,,
,,,,,,,6400e0dd862feacb579475a8,2023-08-16_08h56.42.015,HF_wild_card,2022.2.4,Win32,60.30635629,6400e0dd862feacb579475a8,64d2fd46c836a06233681665,64dc81203c4849c9fa53d2b9,,,,,,,ctch,resources/DG.BMP,resources/DB.BMP,Door2,-0.40234375,-0.05859375,1,0,0,1.4667,optionLeft,40,2795,2,10,0,10,0,1,,,,,,,,,,,,,,,,,,,,,,,,,,,,,,,,,,,,,,,
,,,,,,,6400e0dd862feacb579475a8,2023-08-16_08h56.42.015,HF_wild_card,2022.2.4,Win32,60.30635629,6400e0dd862feacb579475a8,64d2fd46c836a06233681665,64dc81203c4849c9fa53d2b9,,,,,,,decisionTrl,resources/DY.BMP,resources/DG.BMP,Door2,0.420572917,-0.001302083,1,0,0,2.1551,optionRight,20,2815,2,11,0,11,0,1,,,,,,,,,,,,,,,,,,,,,,,,,,,,,,,,,,,,,,,
,,,,,,,6400e0dd862feacb579475a8,2023-08-16_08h56.42.015,HF_wild_card,2022.2.4,Win32,60.30635629,6400e0dd862feacb579475a8,64d2fd46c836a06233681665,64dc81203c4849c9fa53d2b9,,,,,,,decisionTrl,resources/DBN.BMP,resources/DB.BMP,Door3,0.391927083,-0.02734375,1,0,0,1.3758,optionRight,70,2885,2,12,0,12,0,1,,,,,,,,,,,,,,,,,,,,,,,,,,,,,,,,,,,,,,,
,,,,,,,6400e0dd862feacb579475a8,2023-08-16_08h56.42.015,HF_wild_card,2022.2.4,Win32,60.30635629,6400e0dd862feacb579475a8,64d2fd46c836a06233681665,64dc81203c4849c9fa53d2b9,,,,,,,decisionTrl,resources/DBN.BMP,resources/DR.BMP,Door4,-0.369791667,-0.055989583,1,0,0,2.1055,optionLeft,60,2945,2,13,0,13,0,1,,,,,,,,,,,,,,,,,,,,,,,,,,,,,,,,,,,,,,,
,,,,,,,6400e0dd862feacb579475a8,2023-08-16_08h56.42.015,HF_wild_card,2022.2.4,Win32,60.30635629,6400e0dd862feacb579475a8,64d2fd46c836a06233681665,64dc81203c4849c9fa53d2b9,,,,,,,sngl,resources/Empty.png,resources/DR.BMP,WildCard_Ex,0.373697917,0.032552083,1,0,0,0.9765,optionRight,95,3040,2,14,0,14,0,1,,,,,,,,,,,,,,,,,,,,,,,,,,,,,,,,,,,,,,,
,,,,,,,6400e0dd862feacb579475a8,2023-08-16_08h56.42.015,HF_wild_card,2022.2.4,Win32,60.30635629,6400e0dd862feacb579475a8,64d2fd46c836a06233681665,64dc81203c4849c9fa53d2b9,,,,,,,decisionTrl,resources/DBN.BMP,resources/DB.BMP,Door4,-0.27734375,-0.052083333,1,0,0,1.9563,optionLeft,60,3100,2,15,0,15,0,1,,,,,,,,,,,,,,,,,,,,,,,,,,,,,,,,,,,,,,,
,,,,,,,6400e0dd862feacb579475a8,2023-08-16_08h56.42.015,HF_wild_card,2022.2.4,Win32,60.30635629,6400e0dd862feacb579475a8,64d2fd46c836a06233681665,64dc81203c4849c9fa53d2b9,,,,,,,decisionTrl,resources/DR.BMP,resources/DB.BMP,Door3,0.328125,-0.0703125,1,0,0,1.5822,optionRight,70,3170,2,16,0,16,0,1,,,,,,,,,,,,,,,,,,,,,,,,,,,,,,,,,,,,,,,
,,,,,,,6400e0dd862feacb579475a8,2023-08-16_08h56.42.015,HF_wild_card,2022.2.4,Win32,60.30635629,6400e0dd862feacb579475a8,64d2fd46c836a06233681665,64dc81203c4849c9fa53d2b9,,,,,,,decisionTrl,resources/DR.BMP,resources/DY.BMP,WildCard_Ex,-0.459635417,-0.069010417,1,0,0,0.9448,optionLeft,95,3265,2,17,0,17,0,1,,,,,,,,,,,,,,,,,,,,,,,,,,,,,,,,,,,,,,,
,,,,,,,6400e0dd862feacb579475a8,2023-08-16_08h56.42.015,HF_wild_card,2022.2.4,Win32,60.30635629,6400e0dd862feacb579475a8,64d2fd46c836a06233681665,64dc81203c4849c9fa53d2b9,,,,,,,sngl,resources/DR.BMP,resources/Empty.png,WildCard_Ex,-0.3828125,-0.03125,1,0,0,0.9433,optionLeft,95,3360,2,18,0,18,0,1,,,,,,,,,,,,,,,,,,,,,,,,,,,,,,,,,,,,,,,
,,,,,,,6400e0dd862feacb579475a8,2023-08-16_08h56.42.015,HF_wild_card,2022.2.4,Win32,60.30635629,6400e0dd862feacb579475a8,64d2fd46c836a06233681665,64dc81203c4849c9fa53d2b9,,,,,,,decisionTrl,resources/DG.BMP,resources/DY.BMP,Door1,0.3125,-0.07421875,1,0,0,2.0142,optionRight,30,3390,2,19,0,19,0,1,,,,,,,,,,,,,,,,,,,,,,,,,,,,,,,,,,,,,,,
,,,,,,,6400e0dd862feacb579475a8,2023-08-16_08h56.42.015,HF_wild_card,2022.2.4,Win32,60.30635629,6400e0dd862feacb579475a8,64d2fd46c836a06233681665,64dc81203c4849c9fa53d2b9,,,,,,,ctch,resources/DB.BMP,resources/DG.BMP,Door3,-0.444010417,-0.072916667,1,0,0,1.4411,optionLeft,70,3460,2,20,0,20,0,1,,,,,,,,,,,,,,,,,,,,,,,,,,,,,,,,,,,,,,,
,,,,,,,6400e0dd862feacb579475a8,2023-08-16_08h56.42.015,HF_wild_card,2022.2.4,Win32,60.30635629,6400e0dd862feacb579475a8,64d2fd46c836a06233681665,64dc81203c4849c9fa53d2b9,,,,,,,sngl,resources/DG.BMP,resources/Empty.png,Door2,-0.3515625,-0.0234375,1,0,0,1.2408,optionLeft,20,3480,2,21,0,21,0,1,,,,,,,,,,,,,,,,,,,,,,,,,,,,,,,,,,,,,,,
,,,,,,,6400e0dd862feacb579475a8,2023-08-16_08h56.42.015,HF_wild_card,2022.2.4,Win32,60.30635629,6400e0dd862feacb579475a8,64d2fd46c836a06233681665,64dc81203c4849c9fa53d2b9,,,,,,,sngl,resources/Empty.png,resources/DR.BMP,WildCard_Ex,0.364583333,0.016927083,1,0,0,1.0099,optionRight,5,3485,2,22,0,22,0,1,,,,,,,,,,,,,,,,,,,,,,,,,,,,,,,,,,,,,,,
,,,,,,,6400e0dd862feacb579475a8,2023-08-16_08h56.42.015,HF_wild_card,2022.2.4,Win32,60.30635629,6400e0dd862feacb579475a8,64d2fd46c836a06233681665,64dc81203c4849c9fa53d2b9,,,,,,,decisionTrl,resources/DG.BMP,resources/DY.BMP,Door1,0.279947917,-0.0078125,1,0,0,2.7536,optionRight,30,3515,2,23,0,23,0,1,,,,,,,,,,,,,,,,,,,,,,,,,,,,,,,,,,,,,,,
,,,,,,,6400e0dd862feacb579475a8,2023-08-16_08h56.42.015,HF_wild_card,2022.2.4,Win32,60.30635629,6400e0dd862feacb579475a8,64d2fd46c836a06233681665,64dc81203c4849c9fa53d2b9,,,,,,,ctch,resources/DG.BMP,resources/DB.BMP,Door2,-0.373697917,-0.016927083,1,0,0,1.1922,optionLeft,40,3555,2,24,0,24,0,1,,,,,,,,,,,,,,,,,,,,,,,,,,,,,,,,,,,,,,,
,,,,,,,6400e0dd862feacb579475a8,2023-08-16_08h56.42.015,HF_wild_card,2022.2.4,Win32,60.30635629,6400e0dd862feacb579475a8,64d2fd46c836a06233681665,64dc81203c4849c9fa53d2b9,,,,,,,decisionTrl,resources/DB.BMP,resources/DR.BMP,WildCard_Ex,0.420572917,-0.053385417,1,0,0,1.1259,optionRight,5,3560,2,25,0,25,0,1,,,,,,,,,,,,,,,,,,,,,,,,,,,,,,,,,,,,,,,
,,,,,,,6400e0dd862feacb579475a8,2023-08-16_08h56.42.015,HF_wild_card,2022.2.4,Win32,60.30635629,6400e0dd862feacb579475a8,64d2fd46c836a06233681665,64dc81203c4849c9fa53d2b9,,,,,,,ctch,resources/DBN.BMP,resources/DY.BMP,Door1,0.348958333,-0.022135417,1,0,0,1.3755,optionRight,30,3590,2,26,0,26,0,1,,,,,,,,,,,,,,,,,,,,,,,,,,,,,,,,,,,,,,,
,,,,,,,6400e0dd862feacb579475a8,2023-08-16_08h56.42.015,HF_wild_card,2022.2.4,Win32,60.30635629,6400e0dd862feacb579475a8,64d2fd46c836a06233681665,64dc81203c4849c9fa53d2b9,,,,,,,decisionTrl,resources/DR.BMP,resources/DBN.BMP,WildCard_Ex,-0.401041667,-0.061197917,1,0,0,0.7945,optionLeft,95,3685,2,27,0,27,0,1,,,,,,,,,,,,,,,,,,,,,,,,,,,,,,,,,,,,,,,
,,,,,,,6400e0dd862feacb579475a8,2023-08-16_08h56.42.015,HF_wild_card,2022.2.4,Win32,60.30635629,6400e0dd862feacb579475a8,64d2fd46c836a06233681665,64dc81203c4849c9fa53d2b9,,,,,,,sngl,resources/Empty.png,resources/DBN.BMP,Door4,0.359375,0.033854167,1,0,0,0.9667,optionRight,80,3765,2,28,0,28,0,1,,,,,,,,,,,,,,,,,,,,,,,,,,,,,,,,,,,,,,,
,,,,,,,6400e0dd862feacb579475a8,2023-08-16_08h56.42.015,HF_wild_card,2022.2.4,Win32,60.30635629,6400e0dd862feacb579475a8,64d2fd46c836a06233681665,64dc81203c4849c9fa53d2b9,,,,,,,sngl,resources/DR.BMP,resources/Empty.png,WildCard_Ex,-0.3515625,0.018229167,1,0,0,1.5633,optionLeft,5,3770,2,29,0,29,0,1,,,,,,,,,,,,,,,,,,,,,,,,,,,,,,,,,,,,,,,
,,,,,,,6400e0dd862feacb579475a8,2023-08-16_08h56.42.015,HF_wild_card,2022.2.4,Win32,60.30635629,6400e0dd862feacb579475a8,64d2fd46c836a06233681665,64dc81203c4849c9fa53d2b9,,,,,,,decisionTrl,resources/DY.BMP,resources/DG.BMP,Door1,-0.35546875,-0.069010417,1,0,0,1.6072,optionLeft,30,3800,2,30,0,30,0,1,,,,,,,,,,,,,,,,,,,,,,,,,,,,,,,,,,,,,,,
,,,,,,,6400e0dd862feacb579475a8,2023-08-16_08h56.42.015,HF_wild_card,2022.2.4,Win32,60.30635629,6400e0dd862feacb579475a8,64d2fd46c836a06233681665,64dc81203c4849c9fa53d2b9,,,,,,,decisionTrl,resources/DY.BMP,resources/DG.BMP,Door1,-0.286458333,-0.018229167,1,0,0,1.6738,optionLeft,30,3830,2,31,0,31,0,1,,,,,,,,,,,,,,,,,,,,,,,,,,,,,,,,,,,,,,,
,,,,,,,6400e0dd862feacb579475a8,2023-08-16_08h56.42.015,HF_wild_card,2022.2.4,Win32,60.30635629,6400e0dd862feacb579475a8,64d2fd46c836a06233681665,64dc81203c4849c9fa53d2b9,,,,,,,ctch,resources/DY.BMP,resources/DBN.BMP,Door1,-0.34765625,-0.0234375,1,0,0,1.4413,optionLeft,30,3860,2,32,0,32,0,1,,,,,,,,,,,,,,,,,,,,,,,,,,,,,,,,,,,,,,,
,,,,,,,6400e0dd862feacb579475a8,2023-08-16_08h56.42.015,HF_wild_card,2022.2.4,Win32,60.30635629,6400e0dd862feacb579475a8,64d2fd46c836a06233681665,64dc81203c4849c9fa53d2b9,,,,,,,ctch,resources/DY.BMP,resources/DBN.BMP,Door1,-0.276041667,0.014322917,1,0,0,1.3592,optionLeft,30,3890,2,33,0,33,0,1,,,,,,,,,,,,,,,,,,,,,,,,,,,,,,,,,,,,,,,
,,,,,,,6400e0dd862feacb579475a8,2023-08-16_08h56.42.015,HF_wild_card,2022.2.4,Win32,60.30635629,6400e0dd862feacb579475a8,64d2fd46c836a06233681665,64dc81203c4849c9fa53d2b9,,,,,,,sngl,resources/DY.BMP,resources/Empty.png,Door1,-0.307291667,-0.006510417,1,0,0,1.027,optionLeft,30,3920,2,34,0,34,0,1,,,,,,,,,,,,,,,,,,,,,,,,,,,,,,,,,,,,,,,
,,,,,,,6400e0dd862feacb579475a8,2023-08-16_08h56.42.015,HF_wild_card,2022.2.4,Win32,60.30635629,6400e0dd862feacb579475a8,64d2fd46c836a06233681665,64dc81203c4849c9fa53d2b9,,,,,,,sngl,resources/Empty.png,resources/DG.BMP,Door2,0.334635417,-0.026041667,1,0,0,0.9274,optionRight,40,3960,2,35,0,35,0,1,,,,,,,,,,,,,,,,,,,,,,,,,,,,,,,,,,,,,,,
,,,,,,,6400e0dd862feacb579475a8,2023-08-16_08h56.42.015,HF_wild_card,2022.2.4,Win32,60.30635629,6400e0dd862feacb579475a8,64d2fd46c836a06233681665,64dc81203c4849c9fa53d2b9,,,,,,,ctch,resources/DB.BMP,resources/DG.BMP,Door3,-0.446614583,-0.037760417,1,0,0,1.5476,optionLeft,70,4030,2,36,0,36,0,1,,,,,,,,,,,,,,,,,,,,,,,,,,,,,,,,,,,,,,,
,,,,,,,6400e0dd862feacb579475a8,2023-08-16_08h56.42.015,HF_wild_card,2022.2.4,Win32,60.30635629,6400e0dd862feacb579475a8,64d2fd46c836a06233681665,64dc81203c4849c9fa53d2b9,,,,,,,sngl,resources/Empty.png,resources/DB.BMP,Door3,0.36328125,0.0078125,1,0,0,0.9433,optionRight,70,4100,2,37,0,37,0,1,,,,,,,,,,,,,,,,,,,,,,,,,,,,,,,,,,,,,,,
,,,,,,,6400e0dd862feacb579475a8,2023-08-16_08h56.42.015,HF_wild_card,2022.2.4,Win32,60.30635629,6400e0dd862feacb579475a8,64d2fd46c836a06233681665,64dc81203c4849c9fa53d2b9,,,,,,,decisionTrl,resources/DB.BMP,resources/DBN.BMP,Door4,0.388020833,0.022135417,1,0,0,1.0281,optionRight,60,4160,2,38,0,38,0,1,,,,,,,,,,,,,,,,,,,,,,,,,,,,,,,,,,,,,,,
,,,,,,,6400e0dd862feacb579475a8,2023-08-16_08h56.42.015,HF_wild_card,2022.2.4,Win32,60.30635629,6400e0dd862feacb579475a8,64d2fd46c836a06233681665,64dc81203c4849c9fa53d2b9,,,,,,,sngl,resources/DB.BMP,resources/Empty.png,Door3,-0.395833333,-0.016927083,1,0,0,1.0274,optionLeft,70,4230,2,39,0,39,0,1,,,,,,,,,,,,,,,,,,,,,,,,,,,,,,,,,,,,,,,
,,,,,,,6400e0dd862feacb579475a8,2023-08-16_08h56.42.015,HF_wild_card,2022.2.4,Win32,60.30635629,6400e0dd862feacb579475a8,64d2fd46c836a06233681665,64dc81203c4849c9fa53d2b9,,,,,,,ctch,resources/DBN.BMP,resources/DY.BMP,Door4,-0.369791667,0.02734375,1,0,0,2.2471,optionLeft,80,4310,2,40,0,40,0,1,,,,,,,,,,,,,,,,,,,,,,,,,,,,,,,,,,,,,,,
,,,,,,,6400e0dd862feacb579475a8,2023-08-16_08h56.42.015,HF_wild_card,2022.2.4,Win32,60.30635629,6400e0dd862feacb579475a8,64d2fd46c836a06233681665,64dc81203c4849c9fa53d2b9,,,,,,,decisionTrl,resources/DBN.BMP,resources/DB.BMP,Door3,0.342447917,-0.03125,1,0,0,1.4427,optionRight,70,4380,2,41,0,41,0,1,,,,,,,,,,,,,,,,,,,,,,,,,,,,,,,,,,,,,,,
,,,,,,,6400e0dd862feacb579475a8,2023-08-16_08h56.42.015,HF_wild_card,2022.2.4,Win32,60.30635629,6400e0dd862feacb579475a8,64d2fd46c836a06233681665,64dc81203c4849c9fa53d2b9,,,,,,,decisionTrl,resources/DG.BMP,resources/DR.BMP,Door2,-0.31640625,-0.044270833,1,0,0,3.4684,optionLeft,40,4420,2,42,0,42,0,1,,,,,,,,,,,,,,,,,,,,,,,,,,,,,,,,,,,,,,,
,,,,,,,6400e0dd862feacb579475a8,2023-08-16_08h56.42.015,HF_wild_card,2022.2.4,Win32,60.30635629,6400e0dd862feacb579475a8,64d2fd46c836a06233681665,64dc81203c4849c9fa53d2b9,,,,,,,decisionTrl,resources/DR.BMP,resources/DG.BMP,WildCard_Ex,-0.31640625,-0.049479167,1,0,0,1.5087,optionLeft,95,4515,2,43,0,43,0,1,,,,,,,,,,,,,,,,,,,,,,,,,,,,,,,,,,,,,,,
,,,,,,,6400e0dd862feacb579475a8,2023-08-16_08h56.42.015,HF_wild_card,2022.2.4,Win32,60.30635629,6400e0dd862feacb579475a8,64d2fd46c836a06233681665,64dc81203c4849c9fa53d2b9,,,,,,,,,,,,,,,,,,,,,,,,,,1,0,1,0,1,,,,,,,,,,,,,,,,,,,,,,,,,,,,,,,,,,
,,,,,,,6400e0dd862feacb579475a8,2023-08-16_08h56.42.015,HF_wild_card,2022.2.4,Win32,60.30635629,6400e0dd862feacb579475a8,64d2fd46c836a06233681665,64dc81203c4849c9fa53d2b9,,,,,,,decisionTrl,resources/DG.BMP,resources/DY.BMP,Door2,-0.255208333,0.088541667,1,0,0,2.2936,optionLeft,20,4535,3,0,0,0,0,1,,,,,,,,,,,,,,,,,,,,,,,,,,,,,,,,,,,,,,,
,,,,,,,6400e0dd862feacb579475a8,2023-08-16_08h56.42.015,HF_wild_card,2022.2.4,Win32,60.30635629,6400e0dd862feacb579475a8,64d2fd46c836a06233681665,64dc81203c4849c9fa53d2b9,,,,,,,decisionTrl,resources/DR.BMP,resources/DY.BMP,Door1,0.333333333,-0.06640625,1,0,0,3.3017,optionRight,30,4565,3,1,0,1,0,1,,,,,,,,,,,,,,,,,,,,,,,,,,,,,,,,,,,,,,,
,,,,,,,6400e0dd862feacb579475a8,2023-08-16_08h56.42.015,HF_wild_card,2022.2.4,Win32,60.30635629,6400e0dd862feacb579475a8,64d2fd46c836a06233681665,64dc81203c4849c9fa53d2b9,,,,,,,ctch,resources/DB.BMP,resources/DG.BMP,Door3,-0.334635417,-0.04296875,1,0,0,1.7902,optionLeft,70,4635,3,2,0,2,0,1,,,,,,,,,,,,,,,,,,,,,,,,,,,,,,,,,,,,,,,
,,,,,,,6400e0dd862feacb579475a8,2023-08-16_08h56.42.015,HF_wild_card,2022.2.4,Win32,60.30635629,6400e0dd862feacb579475a8,64d2fd46c836a06233681665,64dc81203c4849c9fa53d2b9,,,,,,,sngl,resources/Empty.png,resources/DG.BMP,Door2,0.3671875,-0.006510417,1,0,0,0.9599,optionRight,20,4655,3,3,0,3,0,1,,,,,,,,,,,,,,,,,,,,,,,,,,,,,,,,,,,,,,,
,,,,,,,6400e0dd862feacb579475a8,2023-08-16_08h56.42.015,HF_wild_card,2022.2.4,Win32,60.30635629,6400e0dd862feacb579475a8,64d2fd46c836a06233681665,64dc81203c4849c9fa53d2b9,,,,,,,decisionTrl,resources/DG.BMP,resources/DY.BMP,Door1,0.338541667,-0.028645833,1,0,0,3.0356,optionRight,30,4685,3,4,0,4,0,1,,,,,,,,,,,,,,,,,,,,,,,,,,,,,,,,,,,,,,,
,,,,,,,6400e0dd862feacb579475a8,2023-08-16_08h56.42.015,HF_wild_card,2022.2.4,Win32,60.30635629,6400e0dd862feacb579475a8,64d2fd46c836a06233681665,64dc81203c4849c9fa53d2b9,,,,,,,decisionTrl,resources/DG.BMP,resources/DY.BMP,Door1,0.309895833,-0.057291667,1,0,0,1.5243,optionRight,30,4715,3,5,0,5,0,1,,,,,,,,,,,,,,,,,,,,,,,,,,,,,,,,,,,,,,,
,,,,,,,6400e0dd862feacb579475a8,2023-08-16_08h56.42.015,HF_wild_card,2022.2.4,Win32,60.30635629,6400e0dd862feacb579475a8,64d2fd46c836a06233681665,64dc81203c4849c9fa53d2b9,,,,,,,decisionTrl,resources/DR.BMP,resources/DBN.BMP,WildCard_Ex,-0.3515625,-0.001302083,1,0,0,1.2585,optionLeft,95,4810,3,6,0,6,0,1,,,,,,,,,,,,,,,,,,,,,,,,,,,,,,,,,,,,,,,
,,,,,,,6400e0dd862feacb579475a8,2023-08-16_08h56.42.015,HF_wild_card,2022.2.4,Win32,60.30635629,6400e0dd862feacb579475a8,64d2fd46c836a06233681665,64dc81203c4849c9fa53d2b9,,,,,,,sngl,resources/DG.BMP,resources/Empty.png,Door2,-0.328125,0.03515625,1,0,0,0.994,optionLeft,40,4850,3,7,0,7,0,1,,,,,,,,,,,,,,,,,,,,,,,,,,,,,,,,,,,,,,,
,,,,,,,6400e0dd862feacb579475a8,2023-08-16_08h56.42.015,HF_wild_card,2022.2.4,Win32,60.30635629,6400e0dd862feacb579475a8,64d2fd46c836a06233681665,64dc81203c4849c9fa53d2b9,,,,,,,decisionTrl,resources/DB.BMP,resources/DBN.BMP,Door4,0.35546875,-0.037760417,1,0,0,1.9567,optionRight,60,4910,3,8,0,8,0,1,,,,,,,,,,,,,,,,,,,,,,,,,,,,,,,,,,,,,,,
,,,,,,,6400e0dd862feacb579475a8,2023-08-16_08h56.42.015,HF_wild_card,2022.2.4,Win32,60.30635629,6400e0dd862feacb579475a8,64d2fd46c836a06233681665,64dc81203c4849c9fa53d2b9,,,,,,,sngl,resources/DBN.BMP,resources/Empty.png,Door4,-0.307291667,0.0234375,1,0,0,0.8612,optionLeft,80,4990,3,9,0,9,0,1,,,,,,,,,,,,,,,,,,,,,,,,,,,,,,,,,,,,,,,
,,,,,,,6400e0dd862feacb579475a8,2023-08-16_08h56.42.015,HF_wild_card,2022.2.4,Win32,60.30635629,6400e0dd862feacb579475a8,64d2fd46c836a06233681665,64dc81203c4849c9fa53d2b9,,,,,,,decisionTrl,resources/DBN.BMP,resources/DB.BMP,Door4,-0.3515625,0.006510417,1,0,0,1.5414,optionLeft,60,5050,3,10,0,10,0,1,,,,,,,,,,,,,,,,,,,,,,,,,,,,,,,,,,,,,,,
,,,,,,,6400e0dd862feacb579475a8,2023-08-16_08h56.42.015,HF_wild_card,2022.2.4,Win32,60.30635629,6400e0dd862feacb579475a8,64d2fd46c836a06233681665,64dc81203c4849c9fa53d2b9,,,,,,,decisionTrl,resources/DR.BMP,resources/DG.BMP,Door2,0.372395833,-0.059895833,1,0,0,1.459,optionRight,20,5070,3,11,0,11,0,1,,,,,,,,,,,,,,,,,,,,,,,,,,,,,,,,,,,,,,,
,,,,,,,6400e0dd862feacb579475a8,2023-08-16_08h56.42.015,HF_wild_card,2022.2.4,Win32,60.30635629,6400e0dd862feacb579475a8,64d2fd46c836a06233681665,64dc81203c4849c9fa53d2b9,,,,,,,decisionTrl,resources/DY.BMP,resources/DG.BMP,Door2,0.248697917,-0.018229167,1,0,0,1.3713,optionRight,40,5110,3,12,0,12,0,1,,,,,,,,,,,,,,,,,,,,,,,,,,,,,,,,,,,,,,,
,,,,,,,6400e0dd862feacb579475a8,2023-08-16_08h56.42.015,HF_wild_card,2022.2.4,Win32,60.30635629,6400e0dd862feacb579475a8,64d2fd46c836a06233681665,64dc81203c4849c9fa53d2b9,,,,,,,sngl,resources/DR.BMP,resources/Empty.png,WildCard_Ex,-0.30859375,-0.024739583,1,0,0,1.0436,optionLeft,95,5205,3,13,0,13,0,1,,,,,,,,,,,,,,,,,,,,,,,,,,,,,,,,,,,,,,,
,,,,,,,6400e0dd862feacb579475a8,2023-08-16_08h56.42.015,HF_wild_card,2022.2.4,Win32,60.30635629,6400e0dd862feacb579475a8,64d2fd46c836a06233681665,64dc81203c4849c9fa53d2b9,,,,,,,ctch,resources/DG.BMP,resources/DB.BMP,Door3,0.3046875,-0.018229167,1,0,0,2.9356,optionRight,70,5275,3,14,0,14,0,1,,,,,,,,,,,,,,,,,,,,,,,,,,,,,,,,,,,,,,,
,,,,,,,6400e0dd862feacb579475a8,2023-08-16_08h56.42.015,HF_wild_card,2022.2.4,Win32,60.30635629,6400e0dd862feacb579475a8,64d2fd46c836a06233681665,64dc81203c4849c9fa53d2b9,,,,,,,decisionTrl,resources/DBN.BMP,resources/DB.BMP,Door4,-0.358072917,0.053385417,1,0,0,1.4335,optionLeft,60,5335,3,15,0,15,0,1,,,,,,,,,,,,,,,,,,,,,,,,,,,,,,,,,,,,,,,
,,,,,,,6400e0dd862feacb579475a8,2023-08-16_08h56.42.015,HF_wild_card,2022.2.4,Win32,60.30635629,6400e0dd862feacb579475a8,64d2fd46c836a06233681665,64dc81203c4849c9fa53d2b9,,,,,,,decisionTrl,resources/DG.BMP,resources/DR.BMP,WildCard_Ex,0.38671875,-0.046875,1,0,0,1.2596,optionRight,95,5430,3,16,0,16,0,1,,,,,,,,,,,,,,,,,,,,,,,,,,,,,,,,,,,,,,,
,,,,,,,6400e0dd862feacb579475a8,2023-08-16_08h56.42.015,HF_wild_card,2022.2.4,Win32,60.30635629,6400e0dd862feacb579475a8,64d2fd46c836a06233681665,64dc81203c4849c9fa53d2b9,,,,,,,decisionTrl,resources/DBN.BMP,resources/DR.BMP,Door4,-0.3125,0.0390625,1,0,0,2.9696,optionLeft,60,5490,3,17,0,17,0,1,,,,,,,,,,,,,,,,,,,,,,,,,,,,,,,,,,,,,,,
,,,,,,,6400e0dd862feacb579475a8,2023-08-16_08h56.42.015,HF_wild_card,2022.2.4,Win32,60.30635629,6400e0dd862feacb579475a8,64d2fd46c836a06233681665,64dc81203c4849c9fa53d2b9,,,,,,,decisionTrl,resources/DB.BMP,resources/DBN.BMP,Door4,0.34375,-0.018229167,1,0,0,2.3884,optionRight,60,5550,3,18,0,18,0,1,,,,,,,,,,,,,,,,,,,,,,,,,,,,,,,,,,,,,,,
,,,,,,,6400e0dd862feacb579475a8,2023-08-16_08h56.42.015,HF_wild_card,2022.2.4,Win32,60.30635629,6400e0dd862feacb579475a8,64d2fd46c836a06233681665,64dc81203c4849c9fa53d2b9,,,,,,,decisionTrl,resources/DBN.BMP,resources/DB.BMP,Door4,-0.350260417,0,1,0,0,0.9926,optionLeft,60,5610,3,19,0,19,0,1,,,,,,,,,,,,,,,,,,,,,,,,,,,,,,,,,,,,,,,
,,,,,,,6400e0dd862feacb579475a8,2023-08-16_08h56.42.015,HF_wild_card,2022.2.4,Win32,60.30635629,6400e0dd862feacb579475a8,64d2fd46c836a06233681665,64dc81203c4849c9fa53d2b9,,,,,,,ctch,resources/DB.BMP,resources/DG.BMP,Door3,-0.360677083,-0.01171875,1,0,0,1.7408,optionLeft,70,5680,3,20,0,20,0,1,,,,,,,,,,,,,,,,,,,,,,,,,,,,,,,,,,,,,,,
,,,,,,,6400e0dd862feacb579475a8,2023-08-16_08h56.42.015,HF_wild_card,2022.2.4,Win32,60.30635629,6400e0dd862feacb579475a8,64d2fd46c836a06233681665,64dc81203c4849c9fa53d2b9,,,,,,,sngl,resources/Empty.png,resources/DBN.BMP,Door4,0.354166667,-0.024739583,1,0,0,0.9106,optionRight,60,5740,3,21,0,21,0,1,,,,,,,,,,,,,,,,,,,,,,,,,,,,,,,,,,,,,,,
,,,,,,,6400e0dd862feacb579475a8,2023-08-16_08h56.42.015,HF_wild_card,2022.2.4,Win32,60.30635629,6400e0dd862feacb579475a8,64d2fd46c836a06233681665,64dc81203c4849c9fa53d2b9,,,,,,,decisionTrl,resources/DY.BMP,resources/DG.BMP,Door1,-0.369791667,0.00390625,1,0,0,1.5576,optionLeft,30,5770,3,22,0,22,0,1,,,,,,,,,,,,,,,,,,,,,,,,,,,,,,,,,,,,,,,
,,,,,,,6400e0dd862feacb579475a8,2023-08-16_08h56.42.015,HF_wild_card,2022.2.4,Win32,60.30635629,6400e0dd862feacb579475a8,64d2fd46c836a06233681665,64dc81203c4849c9fa53d2b9,,,,,,,sngl,resources/Empty.png,resources/DB.BMP,Door3,0.31640625,-0.015625,1,0,0,0.8436,optionRight,70,5840,3,23,0,23,0,1,,,,,,,,,,,,,,,,,,,,,,,,,,,,,,,,,,,,,,,
,,,,,,,6400e0dd862feacb579475a8,2023-08-16_08h56.42.015,HF_wild_card,2022.2.4,Win32,60.30635629,6400e0dd862feacb579475a8,64d2fd46c836a06233681665,64dc81203c4849c9fa53d2b9,,,,,,,decisionTrl,resources/DY.BMP,resources/DG.BMP,Door2,0.35546875,-0.041666667,1,0,0,1.5905,optionRight,40,5880,3,24,0,24,0,1,,,,,,,,,,,,,,,,,,,,,,,,,,,,,,,,,,,,,,,
,,,,,,,6400e0dd862feacb579475a8,2023-08-16_08h56.42.015,HF_wild_card,2022.2.4,Win32,60.30635629,6400e0dd862feacb579475a8,64d2fd46c836a06233681665,64dc81203c4849c9fa53d2b9,,,,,,,ctch,resources/DG.BMP,resources/DB.BMP,Door3,0.334635417,-0.028645833,1,0,0,2.8693,optionRight,70,5950,3,25,0,25,0,1,,,,,,,,,,,,,,,,,,,,,,,,,,,,,,,,,,,,,,,
,,,,,,,6400e0dd862feacb579475a8,2023-08-16_08h56.42.015,HF_wild_card,2022.2.4,Win32,60.30635629,6400e0dd862feacb579475a8,64d2fd46c836a06233681665,64dc81203c4849c9fa53d2b9,,,,,,,ctch,resources/DBN.BMP,resources/DY.BMP,Door4,-0.420572917,-0.0078125,1,0,0,1.3752,optionLeft,60,6010,3,26,0,26,0,1,,,,,,,,,,,,,,,,,,,,,,,,,,,,,,,,,,,,,,,
,,,,,,,6400e0dd862feacb579475a8,2023-08-16_08h56.42.015,HF_wild_card,2022.2.4,Win32,60.30635629,6400e0dd862feacb579475a8,64d2fd46c836a06233681665,64dc81203c4849c9fa53d2b9,,,,,,,decisionTrl,resources/DBN.BMP,resources/DB.BMP,Door4,-0.325520833,-0.0078125,1,0,0,1.8899,optionLeft,60,6070,3,27,0,27,0,1,,,,,,,,,,,,,,,,,,,,,,,,,,,,,,,,,,,,,,,
,,,,,,,6400e0dd862feacb579475a8,2023-08-16_08h56.42.015,HF_wild_card,2022.2.4,Win32,60.30635629,6400e0dd862feacb579475a8,64d2fd46c836a06233681665,64dc81203c4849c9fa53d2b9,,,,,,,decisionTrl,resources/DG.BMP,resources/DY.BMP,Door1,0.34765625,-0.029947917,1,0,0,1.5748,optionRight,30,6100,3,28,0,28,0,1,,,,,,,,,,,,,,,,,,,,,,,,,,,,,,,,,,,,,,,
,,,,,,,6400e0dd862feacb579475a8,2023-08-16_08h56.42.015,HF_wild_card,2022.2.4,Win32,60.30635629,6400e0dd862feacb579475a8,64d2fd46c836a06233681665,64dc81203c4849c9fa53d2b9,,,,,,,sngl,resources/Empty.png,resources/DR.BMP,WildCard_Ex,0.259114583,-0.061197917,1,0,0,0.8929,optionRight,5,6105,3,29,0,29,0,1,,,,,,,,,,,,,,,,,,,,,,,,,,,,,,,,,,,,,,,
,,,,,,,6400e0dd862feacb579475a8,2023-08-16_08h56.42.015,HF_wild_card,2022.2.4,Win32,60.30635629,6400e0dd862feacb579475a8,64d2fd46c836a06233681665,64dc81203c4849c9fa53d2b9,,,,,,,sngl,resources/Empty.png,resources/DR.BMP,WildCard_Ex,0.319010417,-0.02734375,1,0,0,0.9106,optionRight,95,6200,3,30,0,30,0,1,,,,,,,,,,,,,,,,,,,,,,,,,,,,,,,,,,,,,,,
,,,,,,,6400e0dd862feacb579475a8,2023-08-16_08h56.42.015,HF_wild_card,2022.2.4,Win32,60.30635629,6400e0dd862feacb579475a8,64d2fd46c836a06233681665,64dc81203c4849c9fa53d2b9,,,,,,,decisionTrl,resources/DR.BMP,resources/DB.BMP,Door3,0.278645833,-0.055989583,1,0,0,2.5549,optionRight,70,6270,3,31,0,31,0,1,,,,,,,,,,,,,,,,,,,,,,,,,,,,,,,,,,,,,,,
,,,,,,,6400e0dd862feacb579475a8,2023-08-16_08h56.42.015,HF_wild_card,2022.2.4,Win32,60.30635629,6400e0dd862feacb579475a8,64d2fd46c836a06233681665,64dc81203c4849c9fa53d2b9,,,,,,,ctch,resources/DY.BMP,resources/DBN.BMP,Door4,0.3046875,-0.041666667,1,0,0,1.4915,optionRight,60,6330,3,32,0,32,0,1,,,,,,,,,,,,,,,,,,,,,,,,,,,,,,,,,,,,,,,
,,,,,,,6400e0dd862feacb579475a8,2023-08-16_08h56.42.015,HF_wild_card,2022.2.4,Win32,60.30635629,6400e0dd862feacb579475a8,64d2fd46c836a06233681665,64dc81203c4849c9fa53d2b9,,,,,,,ctch,resources/DY.BMP,resources/DBN.BMP,Door4,0.3359375,-0.032552083,1,0,0,1.0273,optionRight,80,6410,3,33,0,33,0,1,,,,,,,,,,,,,,,,,,,,,,,,,,,,,,,,,,,,,,,
,,,,,,,6400e0dd862feacb579475a8,2023-08-16_08h56.42.015,HF_wild_card,2022.2.4,Win32,60.30635629,6400e0dd862feacb579475a8,64d2fd46c836a06233681665,64dc81203c4849c9fa53d2b9,,,,,,,sngl,resources/DR.BMP,resources/Empty.png,WildCard_Ex,-0.36328125,-0.010416667,1,0,0,1.1102,optionLeft,5,6415,3,34,0,34,0,1,,,,,,,,,,,,,,,,,,,,,,,,,,,,,,,,,,,,,,,
,,,,,,,6400e0dd862feacb579475a8,2023-08-16_08h56.42.015,HF_wild_card,2022.2.4,Win32,60.30635629,6400e0dd862feacb579475a8,64d2fd46c836a06233681665,64dc81203c4849c9fa53d2b9,,,,,,,ctch,resources/DBN.BMP,resources/DY.BMP,Door4,-0.33203125,-0.022135417,1,0,0,1.4407,optionLeft,60,6475,3,35,0,35,0,1,,,,,,,,,,,,,,,,,,,,,,,,,,,,,,,,,,,,,,,
,,,,,,,6400e0dd862feacb579475a8,2023-08-16_08h56.42.015,HF_wild_card,2022.2.4,Win32,60.30635629,6400e0dd862feacb579475a8,64d2fd46c836a06233681665,64dc81203c4849c9fa53d2b9,,,,,,,sngl,resources/DB.BMP,resources/Empty.png,Door3,-0.4296875,0.014322917,1,0,0,1.0932,optionLeft,70,6545,3,36,0,36,0,1,,,,,,,,,,,,,,,,,,,,,,,,,,,,,,,,,,,,,,,
,,,,,,,6400e0dd862feacb579475a8,2023-08-16_08h56.42.015,HF_wild_card,2022.2.4,Win32,60.30635629,6400e0dd862feacb579475a8,64d2fd46c836a06233681665,64dc81203c4849c9fa53d2b9,,,,,,,decisionTrl,resources/DY.BMP,resources/DG.BMP,Door2,0.4453125,0.032552083,1,0,0,1.3256,optionRight,20,6565,3,37,0,37,0,1,,,,,,,,,,,,,,,,,,,,,,,,,,,,,,,,,,,,,,,
,,,,,,,6400e0dd862feacb579475a8,2023-08-16_08h56.42.015,HF_wild_card,2022.2.4,Win32,60.30635629,6400e0dd862feacb579475a8,64d2fd46c836a06233681665,64dc81203c4849c9fa53d2b9,,,,,,,decisionTrl,resources/DB.BMP,resources/DBN.BMP,Door3,-0.404947917,-0.057291667,1,0,0,2.0057,optionLeft,70,6635,3,38,0,38,0,1,,,,,,,,,,,,,,,,,,,,,,,,,,,,,,,,,,,,,,,
,,,,,,,6400e0dd862feacb579475a8,2023-08-16_08h56.42.015,HF_wild_card,2022.2.4,Win32,60.30635629,6400e0dd862feacb579475a8,64d2fd46c836a06233681665,64dc81203c4849c9fa53d2b9,,,,,,,decisionTrl,resources/DB.BMP,resources/DR.BMP,WildCard_Ex,0.3515625,-0.0390625,1,0,0,1.2425,optionRight,95,6730,3,39,0,39,0,1,,,,,,,,,,,,,,,,,,,,,,,,,,,,,,,,,,,,,,,
,,,,,,,6400e0dd862feacb579475a8,2023-08-16_08h56.42.015,HF_wild_card,2022.2.4,Win32,60.30635629,6400e0dd862feacb579475a8,64d2fd46c836a06233681665,64dc81203c4849c9fa53d2b9,,,,,,,decisionTrl,resources/DY.BMP,resources/DR.BMP,Door1,-0.317708333,-0.013020833,1,0,0,1.5745,optionLeft,30,6760,3,40,0,40,0,1,,,,,,,,,,,,,,,,,,,,,,,,,,,,,,,,,,,,,,,
,,,,,,,6400e0dd862feacb579475a8,2023-08-16_08h56.42.015,HF_wild_card,2022.2.4,Win32,60.30635629,6400e0dd862feacb579475a8,64d2fd46c836a06233681665,64dc81203c4849c9fa53d2b9,,,,,,,sngl,resources/DY.BMP,resources/Empty.png,Door1,-0.30078125,-0.001302083,1,0,0,0.9603,optionLeft,30,6790,3,41,0,41,0,1,,,,,,,,,,,,,,,,,,,,,,,,,,,,,,,,,,,,,,,
,,,,,,,6400e0dd862feacb579475a8,2023-08-16_08h56.42.015,HF_wild_card,2022.2.4,Win32,60.30635629,6400e0dd862feacb579475a8,64d2fd46c836a06233681665,64dc81203c4849c9fa53d2b9,,,,,,,decisionTrl,resources/DB.BMP,resources/DBN.BMP,Door3,-0.346354167,-0.04296875,1,0,0,1.3933,optionLeft,70,6860,3,42,0,42,0,1,,,,,,,,,,,,,,,,,,,,,,,,,,,,,,,,,,,,,,,
,,,,,,,6400e0dd862feacb579475a8,2023-08-16_08h56.42.015,HF_wild_card,2022.2.4,Win32,60.30635629,6400e0dd862feacb579475a8,64d2fd46c836a06233681665,64dc81203c4849c9fa53d2b9,,,,,,,sngl,resources/Empty.png,resources/DY.BMP,Door1,0.33203125,0.001302083,1,0,0,1.06,optionRight,30,6890,3,43,0,43,0,1,,,,,,,,,,,,,,,,,,,,,,,,,,,,,,,,,,,,,,,
,,,,,,,6400e0dd862feacb579475a8,2023-08-16_08h56.42.015,HF_wild_card,2022.2.4,Win32,60.30635629,6400e0dd862feacb579475a8,64d2fd46c836a06233681665,64dc81203c4849c9fa53d2b9,,,,,,,,,,,,,,,,,,,,,,,,,,2,0,2,0,1,,,,,,,,,,,,,,,,,,,,,,,,,,,,,,,,,,
,,,,,,,6400e0dd862feacb579475a8,2023-08-16_08h56.42.015,HF_wild_card,2022.2.4,Win32,60.30635629,6400e0dd862feacb579475a8,64d2fd46c836a06233681665,64dc81203c4849c9fa53d2b9,,,,,,,decisionTrl,resources/DP.BMP,resources/DG.BMP,WildCard_NonEx,-0.376302083,-0.084635417,1,0,0,3.4564,optionLeft,55,6945,4,0,0,0,0,1,,,,,,,,,,,,,,,,,,,,,,,,,,,,,,,,,,,,,,,
,,,,,,,6400e0dd862feacb579475a8,2023-08-16_08h56.42.015,HF_wild_card,2022.2.4,Win32,60.30635629,6400e0dd862feacb579475a8,64d2fd46c836a06233681665,64dc81203c4849c9fa53d2b9,,,,,,,ctch,resources/DG.BMP,resources/DB.BMP,Door3,0.361979167,-0.03125,1,0,0,2.0132,optionRight,70,7015,4,1,0,1,0,1,,,,,,,,,,,,,,,,,,,,,,,,,,,,,,,,,,,,,,,
,,,,,,,6400e0dd862feacb579475a8,2023-08-16_08h56.42.015,HF_wild_card,2022.2.4,Win32,60.30635629,6400e0dd862feacb579475a8,64d2fd46c836a06233681665,64dc81203c4849c9fa53d2b9,,,,,,,sngl,resources/Empty.png,resources/DB.BMP,Door3,0.334635417,-0.009114583,1,0,0,0.9166,optionRight,70,7085,4,2,0,2,0,1,,,,,,,,,,,,,,,,,,,,,,,,,,,,,,,,,,,,,,,
,,,,,,,6400e0dd862feacb579475a8,2023-08-16_08h56.42.015,HF_wild_card,2022.2.4,Win32,60.30635629,6400e0dd862feacb579475a8,64d2fd46c836a06233681665,64dc81203c4849c9fa53d2b9,,,,,,,decisionTrl,resources/DP.BMP,resources/DY.BMP,WildCard_NonEx,-0.345052083,-0.02734375,1,0,0,1.2237,optionLeft,45,7130,4,3,0,3,0,1,,,,,,,,,,,,,,,,,,,,,,,,,,,,,,,,,,,,,,,
,,,,,,,6400e0dd862feacb579475a8,2023-08-16_08h56.42.015,HF_wild_card,2022.2.4,Win32,60.30635629,6400e0dd862feacb579475a8,64d2fd46c836a06233681665,64dc81203c4849c9fa53d2b9,,,,,,,ctch,resources/DG.BMP,resources/DB.BMP,Door3,0.34765625,-0.048177083,1,0,0,1.5529,optionRight,70,7200,4,4,0,4,0,1,,,,,,,,,,,,,,,,,,,,,,,,,,,,,,,,,,,,,,,
,,,,,,,6400e0dd862feacb579475a8,2023-08-16_08h56.42.015,HF_wild_card,2022.2.4,Win32,60.30635629,6400e0dd862feacb579475a8,64d2fd46c836a06233681665,64dc81203c4849c9fa53d2b9,,,,,,,decisionTrl,resources/DY.BMP,resources/DG.BMP,Door2,0.317708333,-0.029947917,1,0,0,1.6746,optionRight,20,7220,4,5,0,5,0,1,,,,,,,,,,,,,,,,,,,,,,,,,,,,,,,,,,,,,,,
,,,,,,,6400e0dd862feacb579475a8,2023-08-16_08h56.42.015,HF_wild_card,2022.2.4,Win32,60.30635629,6400e0dd862feacb579475a8,64d2fd46c836a06233681665,64dc81203c4849c9fa53d2b9,,,,,,,sngl,resources/DP.BMP,resources/Empty.png,WildCard_NonEx,-0.329427083,-0.01171875,1,0,0,1.01,optionLeft,55,7275,4,6,0,6,0,1,,,,,,,,,,,,,,,,,,,,,,,,,,,,,,,,,,,,,,,
,,,,,,,6400e0dd862feacb579475a8,2023-08-16_08h56.42.015,HF_wild_card,2022.2.4,Win32,60.30635629,6400e0dd862feacb579475a8,64d2fd46c836a06233681665,64dc81203c4849c9fa53d2b9,,,,,,,decisionTrl,resources/DB.BMP,resources/DP.BMP,Door3,-0.34375,-0.03515625,1,0,0,1.3751,optionLeft,70,7345,4,7,0,7,0,1,,,,,,,,,,,,,,,,,,,,,,,,,,,,,,,,,,,,,,,
,,,,,,,6400e0dd862feacb579475a8,2023-08-16_08h56.42.015,HF_wild_card,2022.2.4,Win32,60.30635629,6400e0dd862feacb579475a8,64d2fd46c836a06233681665,64dc81203c4849c9fa53d2b9,,,,,,,decisionTrl,resources/DG.BMP,resources/DY.BMP,Door2,-0.317708333,-0.037760417,1,0,0,1.7906,optionLeft,40,7385,4,8,0,8,0,1,,,,,,,,,,,,,,,,,,,,,,,,,,,,,,,,,,,,,,,
,,,,,,,6400e0dd862feacb579475a8,2023-08-16_08h56.42.015,HF_wild_card,2022.2.4,Win32,60.30635629,6400e0dd862feacb579475a8,64d2fd46c836a06233681665,64dc81203c4849c9fa53d2b9,,,,,,,sngl,resources/DY.BMP,resources/Empty.png,Door1,-0.259114583,-0.005208333,1,0,0,0.8944,optionLeft,30,7415,4,9,0,9,0,1,,,,,,,,,,,,,,,,,,,,,,,,,,,,,,,,,,,,,,,
,,,,,,,6400e0dd862feacb579475a8,2023-08-16_08h56.42.015,HF_wild_card,2022.2.4,Win32,60.30635629,6400e0dd862feacb579475a8,64d2fd46c836a06233681665,64dc81203c4849c9fa53d2b9,,,,,,,decisionTrl,resources/DB.BMP,resources/DBN.BMP,Door4,0.358072917,-0.013020833,1,0,0,2.0557,optionRight,60,7475,4,10,0,10,0,1,,,,,,,,,,,,,,,,,,,,,,,,,,,,,,,,,,,,,,,
,,,,,,,6400e0dd862feacb579475a8,2023-08-16_08h56.42.015,HF_wild_card,2022.2.4,Win32,60.30635629,6400e0dd862feacb579475a8,64d2fd46c836a06233681665,64dc81203c4849c9fa53d2b9,,,,,,,sngl,resources/Empty.png,resources/DP.BMP,WildCard_NonEx,0.345052083,0.006510417,1,0,0,0.9989,optionRight,45,7520,4,11,0,11,0,1,,,,,,,,,,,,,,,,,,,,,,,,,,,,,,,,,,,,,,,
,,,,,,,6400e0dd862feacb579475a8,2023-08-16_08h56.42.015,HF_wild_card,2022.2.4,Win32,60.30635629,6400e0dd862feacb579475a8,64d2fd46c836a06233681665,64dc81203c4849c9fa53d2b9,,,,,,,decisionTrl,resources/DBN.BMP,resources/DP.BMP,Door4,-0.39453125,0.03125,1,0,0,1.4249,optionLeft,80,7600,4,12,0,12,0,1,,,,,,,,,,,,,,,,,,,,,,,,,,,,,,,,,,,,,,,
,,,,,,,6400e0dd862feacb579475a8,2023-08-16_08h56.42.015,HF_wild_card,2022.2.4,Win32,60.30635629,6400e0dd862feacb579475a8,64d2fd46c836a06233681665,64dc81203c4849c9fa53d2b9,,,,,,,decisionTrl,resources/DG.BMP,resources/DY.BMP,Door1,0.305989583,-0.0390625,1,0,0,2.5273,optionRight,30,7630,4,13,0,13,0,1,,,,,,,,,,,,,,,,,,,,,,,,,,,,,,,,,,,,,,,
,,,,,,,6400e0dd862feacb579475a8,2023-08-16_08h56.42.015,HF_wild_card,2022.2.4,Win32,60.30635629,6400e0dd862feacb579475a8,64d2fd46c836a06233681665,64dc81203c4849c9fa53d2b9,,,,,,,decisionTrl,resources/DY.BMP,resources/DG.BMP,Door2,0.2734375,0.001302083,1,0,0,2.3894,optionRight,40,7670,4,14,0,14,0,1,,,,,,,,,,,,,,,,,,,,,,,,,,,,,,,,,,,,,,,
,,,,,,,6400e0dd862feacb579475a8,2023-08-16_08h56.42.015,HF_wild_card,2022.2.4,Win32,60.30635629,6400e0dd862feacb579475a8,64d2fd46c836a06233681665,64dc81203c4849c9fa53d2b9,,,,,,,sngl,resources/Empty.png,resources/DY.BMP,Door1,0.272135417,-0.024739583,1,0,0,0.9442,optionRight,30,7700,4,15,0,15,0,1,,,,,,,,,,,,,,,,,,,,,,,,,,,,,,,,,,,,,,,
,,,,,,,6400e0dd862feacb579475a8,2023-08-16_08h56.42.015,HF_wild_card,2022.2.4,Win32,60.30635629,6400e0dd862feacb579475a8,64d2fd46c836a06233681665,64dc81203c4849c9fa53d2b9,,,,,,,decisionTrl,resources/DBN.BMP,resources/DB.BMP,Door4,-0.3125,-0.014322917,1,0,0,2.0724,optionLeft,80,7780,4,16,0,16,0,1,,,,,,,,,,,,,,,,,,,,,,,,,,,,,,,,,,,,,,,
,,,,,,,6400e0dd862feacb579475a8,2023-08-16_08h56.42.015,HF_wild_card,2022.2.4,Win32,60.30635629,6400e0dd862feacb579475a8,64d2fd46c836a06233681665,64dc81203c4849c9fa53d2b9,,,,,,,decisionTrl,resources/DG.BMP,resources/DY.BMP,Door2,-0.3359375,-0.002604167,1,0,0,1.8304,optionLeft,40,7820,4,17,0,17,0,1,,,,,,,,,,,,,,,,,,,,,,,,,,,,,,,,,,,,,,,
,,,,,,,6400e0dd862feacb579475a8,2023-08-16_08h56.42.015,HF_wild_card,2022.2.4,Win32,60.30635629,6400e0dd862feacb579475a8,64d2fd46c836a06233681665,64dc81203c4849c9fa53d2b9,,,,,,,decisionTrl,resources/DB.BMP,resources/DBN.BMP,Door4,0.330729167,-0.057291667,1,0,0,2.1105,optionRight,60,7880,4,18,0,18,0,1,,,,,,,,,,,,,,,,,,,,,,,,,,,,,,,,,,,,,,,
,,,,,,,6400e0dd862feacb579475a8,2023-08-16_08h56.42.015,HF_wild_card,2022.2.4,Win32,60.30635629,6400e0dd862feacb579475a8,64d2fd46c836a06233681665,64dc81203c4849c9fa53d2b9,,,,,,,decisionTrl,resources/DBN.BMP,resources/DB.BMP,Door3,0.30078125,-0.028645833,1,0,0,2.387,optionRight,70,7950,4,19,0,19,0,1,,,,,,,,,,,,,,,,,,,,,,,,,,,,,,,,,,,,,,,
,,,,,,,6400e0dd862feacb579475a8,2023-08-16_08h56.42.015,HF_wild_card,2022.2.4,Win32,60.30635629,6400e0dd862feacb579475a8,64d2fd46c836a06233681665,64dc81203c4849c9fa53d2b9,,,,,,,decisionTrl,resources/DP.BMP,resources/DB.BMP,Door3,0.26953125,-0.03125,1,0,0,1.6443,optionRight,70,8020,4,20,0,20,0,1,,,,,,,,,,,,,,,,,,,,,,,,,,,,,,,,,,,,,,,
,,,,,,,6400e0dd862feacb579475a8,2023-08-16_08h56.42.015,HF_wild_card,2022.2.4,Win32,60.30635629,6400e0dd862feacb579475a8,64d2fd46c836a06233681665,64dc81203c4849c9fa53d2b9,,,,,,,decisionTrl,resources/DP.BMP,resources/DBN.BMP,WildCard_NonEx,-0.372395833,-0.014322917,1,0,0,1.9732,optionLeft,45,8065,4,21,0,21,0,1,,,,,,,,,,,,,,,,,,,,,,,,,,,,,,,,,,,,,,,
,,,,,,,6400e0dd862feacb579475a8,2023-08-16_08h56.42.015,HF_wild_card,2022.2.4,Win32,60.30635629,6400e0dd862feacb579475a8,64d2fd46c836a06233681665,64dc81203c4849c9fa53d2b9,,,,,,,sngl,resources/Empty.png,resources/DG.BMP,Door2,0.356770833,0.016927083,1,0,0,1.2258,optionRight,40,8105,4,22,0,22,0,1,,,,,,,,,,,,,,,,,,,,,,,,,,,,,,,,,,,,,,,
,,,,,,,6400e0dd862feacb579475a8,2023-08-16_08h56.42.015,HF_wild_card,2022.2.4,Win32,60.30635629,6400e0dd862feacb579475a8,64d2fd46c836a06233681665,64dc81203c4849c9fa53d2b9,,,,,,,ctch,resources/DBN.BMP,resources/DY.BMP,Door4,-0.377604167,0,1,0,0,1.5917,optionLeft,60,8165,4,23,0,23,0,1,,,,,,,,,,,,,,,,,,,,,,,,,,,,,,,,,,,,,,,
,,,,,,,6400e0dd862feacb579475a8,2023-08-16_08h56.42.015,HF_wild_card,2022.2.4,Win32,60.30635629,6400e0dd862feacb579475a8,64d2fd46c836a06233681665,64dc81203c4849c9fa53d2b9,,,,,,,decisionTrl,resources/DY.BMP,resources/DP.BMP,WildCard_NonEx,0.359375,-0.037760417,1,0,0,1.8408,optionRight,45,8210,4,24,0,24,0,1,,,,,,,,,,,,,,,,,,,,,,,,,,,,,,,,,,,,,,,
,,,,,,,6400e0dd862feacb579475a8,2023-08-16_08h56.42.015,HF_wild_card,2022.2.4,Win32,60.30635629,6400e0dd862feacb579475a8,64d2fd46c836a06233681665,64dc81203c4849c9fa53d2b9,,,,,,,ctch,resources/DY.BMP,resources/DBN.BMP,Door4,0.330729167,0.0078125,1,0,0,1.5246,optionRight,80,8290,4,25,0,25,0,1,,,,,,,,,,,,,,,,,,,,,,,,,,,,,,,,,,,,,,,
,,,,,,,6400e0dd862feacb579475a8,2023-08-16_08h56.42.015,HF_wild_card,2022.2.4,Win32,60.30635629,6400e0dd862feacb579475a8,64d2fd46c836a06233681665,64dc81203c4849c9fa53d2b9,,,,,,,sngl,resources/Empty.png,resources/DBN.BMP,Door4,0.317708333,-0.016927083,1,0,0,0.9266,optionRight,80,8370,4,26,0,26,0,1,,,,,,,,,,,,,,,,,,,,,,,,,,,,,,,,,,,,,,,
,,,,,,,6400e0dd862feacb579475a8,2023-08-16_08h56.42.015,HF_wild_card,2022.2.4,Win32,60.30635629,6400e0dd862feacb579475a8,64d2fd46c836a06233681665,64dc81203c4849c9fa53d2b9,,,,,,,decisionTrl,resources/DBN.BMP,resources/DB.BMP,Door3,0.325520833,-0.063802083,1,0,0,2.9856,optionRight,70,8440,4,27,0,27,0,1,,,,,,,,,,,,,,,,,,,,,,,,,,,,,,,,,,,,,,,
,,,,,,,6400e0dd862feacb579475a8,2023-08-16_08h56.42.015,HF_wild_card,2022.2.4,Win32,60.30635629,6400e0dd862feacb579475a8,64d2fd46c836a06233681665,64dc81203c4849c9fa53d2b9,,,,,,,ctch,resources/DB.BMP,resources/DG.BMP,Door3,-0.302083333,-0.020833333,1,0,0,1.958,optionLeft,70,8510,4,28,0,28,0,1,,,,,,,,,,,,,,,,,,,,,,,,,,,,,,,,,,,,,,,
,,,,,,,6400e0dd862feacb579475a8,2023-08-16_08h56.42.015,HF_wild_card,2022.2.4,Win32,60.30635629,6400e0dd862feacb579475a8,64d2fd46c836a06233681665,64dc81203c4849c9fa53d2b9,,,,,,,decisionTrl,resources/DBN.BMP,resources/DB.BMP,Door4,-0.3046875,-0.001302083,1,0,0,1.5591,optionLeft,60,8570,4,29,0,29,0,1,,,,,,,,,,,,,,,,,,,,,,,,,,,,,,,,,,,,,,,
,,,,,,,6400e0dd862feacb579475a8,2023-08-16_08h56.42.015,HF_wild_card,2022.2.4,Win32,60.30635629,6400e0dd862feacb579475a8,64d2fd46c836a06233681665,64dc81203c4849c9fa53d2b9,,,,,,,ctch,resources/DY.BMP,resources/DBN.BMP,Door4,0.3046875,-0.0078125,1,0,0,1.2255,optionRight,80,8650,4,30,0,30,0,1,,,,,,,,,,,,,,,,,,,,,,,,,,,,,,,,,,,,,,,
,,,,,,,6400e0dd862feacb579475a8,2023-08-16_08h56.42.015,HF_wild_card,2022.2.4,Win32,60.30635629,6400e0dd862feacb579475a8,64d2fd46c836a06233681665,64dc81203c4849c9fa53d2b9,,,,,,,sngl,resources/Empty.png,resources/DP.BMP,WildCard_NonEx,0.240885417,-0.016927083,1,0,0,0.9763,optionRight,55,8705,4,31,0,31,0,1,,,,,,,,,,,,,,,,,,,,,,,,,,,,,,,,,,,,,,,
,,,,,,,6400e0dd862feacb579475a8,2023-08-16_08h56.42.015,HF_wild_card,2022.2.4,Win32,60.30635629,6400e0dd862feacb579475a8,64d2fd46c836a06233681665,64dc81203c4849c9fa53d2b9,,,,,,,decisionTrl,resources/DY.BMP,resources/DG.BMP,Door2,0.334635417,0.03515625,1,0,0,2.1893,optionRight,40,8745,4,32,0,32,0,1,,,,,,,,,,,,,,,,,,,,,,,,,,,,,,,,,,,,,,,
,,,,,,,6400e0dd862feacb579475a8,2023-08-16_08h56.42.015,HF_wild_card,2022.2.4,Win32,60.30635629,6400e0dd862feacb579475a8,64d2fd46c836a06233681665,64dc81203c4849c9fa53d2b9,,,,,,,sngl,resources/DP.BMP,resources/Empty.png,WildCard_NonEx,-0.333333333,-0.029947917,1,0,0,0.9766,optionLeft,45,8790,4,33,0,33,0,1,,,,,,,,,,,,,,,,,,,,,,,,,,,,,,,,,,,,,,,
,,,,,,,6400e0dd862feacb579475a8,2023-08-16_08h56.42.015,HF_wild_card,2022.2.4,Win32,60.30635629,6400e0dd862feacb579475a8,64d2fd46c836a06233681665,64dc81203c4849c9fa53d2b9,,,,,,,decisionTrl,resources/DY.BMP,resources/DG.BMP,Door2,0.333333333,0.018229167,1,0,0,1.6078,optionRight,40,8830,4,34,0,34,0,1,,,,,,,,,,,,,,,,,,,,,,,,,,,,,,,,,,,,,,,
,,,,,,,6400e0dd862feacb579475a8,2023-08-16_08h56.42.015,HF_wild_card,2022.2.4,Win32,60.30635629,6400e0dd862feacb579475a8,64d2fd46c836a06233681665,64dc81203c4849c9fa53d2b9,,,,,,,decisionTrl,resources/DB.BMP,resources/DBN.BMP,Door3,-0.358072917,-0.032552083,1,0,0,1.5243,optionLeft,70,8900,4,35,0,35,0,1,,,,,,,,,,,,,,,,,,,,,,,,,,,,,,,,,,,,,,,
,,,,,,,6400e0dd862feacb579475a8,2023-08-16_08h56.42.015,HF_wild_card,2022.2.4,Win32,60.30635629,6400e0dd862feacb579475a8,64d2fd46c836a06233681665,64dc81203c4849c9fa53d2b9,,,,,,,ctch,resources/DBN.BMP,resources/DY.BMP,Door4,-0.346354167,-0.002604167,1,0,0,1.2927,optionLeft,80,8980,4,36,0,36,0,1,,,,,,,,,,,,,,,,,,,,,,,,,,,,,,,,,,,,,,,
,,,,,,,6400e0dd862feacb579475a8,2023-08-16_08h56.42.015,HF_wild_card,2022.2.4,Win32,60.30635629,6400e0dd862feacb579475a8,64d2fd46c836a06233681665,64dc81203c4849c9fa53d2b9,,,,,,,sngl,resources/DBN.BMP,resources/Empty.png,Door4,-0.348958333,0.002604167,1,0,0,0.911,optionLeft,60,9040,4,37,0,37,0,1,,,,,,,,,,,,,,,,,,,,,,,,,,,,,,,,,,,,,,,
,,,,,,,6400e0dd862feacb579475a8,2023-08-16_08h56.42.015,HF_wild_card,2022.2.4,Win32,60.30635629,6400e0dd862feacb579475a8,64d2fd46c836a06233681665,64dc81203c4849c9fa53d2b9,,,,,,,decisionTrl,resources/DG.BMP,resources/DY.BMP,Door2,-0.326822917,-0.03515625,1,0,0,1.5394,optionLeft,40,9080,4,38,0,38,0,1,,,,,,,,,,,,,,,,,,,,,,,,,,,,,,,,,,,,,,,
,,,,,,,6400e0dd862feacb579475a8,2023-08-16_08h56.42.015,HF_wild_card,2022.2.4,Win32,60.30635629,6400e0dd862feacb579475a8,64d2fd46c836a06233681665,64dc81203c4849c9fa53d2b9,,,,,,,ctch,resources/DB.BMP,resources/DG.BMP,Door3,-0.303385417,-0.0546875,1,0,0,1.9566,optionLeft,70,9150,4,39,0,39,0,1,,,,,,,,,,,,,,,,,,,,,,,,,,,,,,,,,,,,,,,
,,,,,,,6400e0dd862feacb579475a8,2023-08-16_08h56.42.015,HF_wild_card,2022.2.4,Win32,60.30635629,6400e0dd862feacb579475a8,64d2fd46c836a06233681665,64dc81203c4849c9fa53d2b9,,,,,,,sngl,resources/DG.BMP,resources/Empty.png,Door2,-0.350260417,0.00390625,1,0,0,1.2418,optionLeft,20,9170,4,40,0,40,0,1,,,,,,,,,,,,,,,,,,,,,,,,,,,,,,,,,,,,,,,
,,,,,,,6400e0dd862feacb579475a8,2023-08-16_08h56.42.015,HF_wild_card,2022.2.4,Win32,60.30635629,6400e0dd862feacb579475a8,64d2fd46c836a06233681665,64dc81203c4849c9fa53d2b9,,,,,,,decisionTrl,resources/DB.BMP,resources/DBN.BMP,Door4,0.393229167,-0.018229167,1,0,0,1.6071,optionRight,60,9230,4,41,0,41,0,1,,,,,,,,,,,,,,,,,,,,,,,,,,,,,,,,,,,,,,,
,,,,,,,6400e0dd862feacb579475a8,2023-08-16_08h56.42.015,HF_wild_card,2022.2.4,Win32,60.30635629,6400e0dd862feacb579475a8,64d2fd46c836a06233681665,64dc81203c4849c9fa53d2b9,,,,,,,sngl,resources/DB.BMP,resources/Empty.png,Door3,-0.283854167,0,1,0,0,0.9432,optionLeft,70,9300,4,42,0,42,0,1,,,,,,,,,,,,,,,,,,,,,,,,,,,,,,,,,,,,,,,
,,,,,,,6400e0dd862feacb579475a8,2023-08-16_08h56.42.015,HF_wild_card,2022.2.4,Win32,60.30635629,6400e0dd862feacb579475a8,64d2fd46c836a06233681665,64dc81203c4849c9fa53d2b9,,,,,,,decisionTrl,resources/DG.BMP,resources/DP.BMP,Door2,-0.309895833,-0.01171875,1,0,0,2.1551,optionLeft,20,9320,4,43,0,43,0,1,,,,,,,,,,,,,,,,,,,,,,,,,,,,,,,,,,,,,,,
,,,,,,,6400e0dd862feacb579475a8,2023-08-16_08h56.42.015,HF_wild_card,2022.2.4,Win32,60.30635629,6400e0dd862feacb579475a8,64d2fd46c836a06233681665,64dc81203c4849c9fa53d2b9,,,,,,,,,,,,,,,,,,,,,,,,,,3,0,3,0,1,,,,,,,,,,,,,,,,,,,,,,,,,,,,,,,,,,
,,,,,,,6400e0dd862feacb579475a8,2023-08-16_08h56.42.015,HF_wild_card,2022.2.4,Win32,60.30635629,6400e0dd862feacb579475a8,64d2fd46c836a06233681665,64dc81203c4849c9fa53d2b9,,,,,,,sngl,resources/Empty.png,resources/DY.BMP,Door1,0.381510417,-0.080729167,1,0,0,0.9172,optionRight,30,9350,5,0,0,0,0,1,,,,,,,,,,,,,,,,,,,,,,,,,,,,,,,,,,,,,,,
,,,,,,,6400e0dd862feacb579475a8,2023-08-16_08h56.42.015,HF_wild_card,2022.2.4,Win32,60.30635629,6400e0dd862feacb579475a8,64d2fd46c836a06233681665,64dc81203c4849c9fa53d2b9,,,,,,,decisionTrl,resources/DP.BMP,resources/DB.BMP,Door3,0.341145833,-0.0078125,1,0,0,2.1724,optionRight,70,9420,5,1,0,1,0,1,,,,,,,,,,,,,,,,,,,,,,,,,,,,,,,,,,,,,,,
,,,,,,,6400e0dd862feacb579475a8,2023-08-16_08h56.42.015,HF_wild_card,2022.2.4,Win32,60.30635629,6400e0dd862feacb579475a8,64d2fd46c836a06233681665,64dc81203c4849c9fa53d2b9,,,,,,,decisionTrl,resources/DG.BMP,resources/DY.BMP,Door2,-0.3671875,-0.0078125,1,0,0,1.3923,optionLeft,40,9460,5,2,0,2,0,1,,,,,,,,,,,,,,,,,,,,,,,,,,,,,,,,,,,,,,,
,,,,,,,6400e0dd862feacb579475a8,2023-08-16_08h56.42.015,HF_wild_card,2022.2.4,Win32,60.30635629,6400e0dd862feacb579475a8,64d2fd46c836a06233681665,64dc81203c4849c9fa53d2b9,,,,,,,decisionTrl,resources/DB.BMP,resources/DBN.BMP,Door4,0.354166667,-0.0390625,1,0,0,2.1078,optionRight,60,9520,5,3,0,3,0,1,,,,,,,,,,,,,,,,,,,,,,,,,,,,,,,,,,,,,,,
,,,,,,,6400e0dd862feacb579475a8,2023-08-16_08h56.42.015,HF_wild_card,2022.2.4,Win32,60.30635629,6400e0dd862feacb579475a8,64d2fd46c836a06233681665,64dc81203c4849c9fa53d2b9,,,,,,,decisionTrl,resources/DBN.BMP,resources/DB.BMP,Door3,0.35546875,-0.013020833,1,0,0,1.3756,optionRight,70,9590,5,4,0,4,0,1,,,,,,,,,,,,,,,,,,,,,,,,,,,,,,,,,,,,,,,
,,,,,,,6400e0dd862feacb579475a8,2023-08-16_08h56.42.015,HF_wild_card,2022.2.4,Win32,60.30635629,6400e0dd862feacb579475a8,64d2fd46c836a06233681665,64dc81203c4849c9fa53d2b9,,,,,,,ctch,resources/DB.BMP,resources/DG.BMP,Door3,-0.359375,-0.01953125,1,0,0,1.508,optionLeft,70,9660,5,5,0,5,0,1,,,,,,,,,,,,,,,,,,,,,,,,,,,,,,,,,,,,,,,
,,,,,,,6400e0dd862feacb579475a8,2023-08-16_08h56.42.015,HF_wild_card,2022.2.4,Win32,60.30635629,6400e0dd862feacb579475a8,64d2fd46c836a06233681665,64dc81203c4849c9fa53d2b9,,,,,,,ctch,resources/DBN.BMP,resources/DY.BMP,Door4,-0.34765625,0.037760417,1,0,0,1.1599,optionLeft,80,9740,5,6,0,6,0,1,,,,,,,,,,,,,,,,,,,,,,,,,,,,,,,,,,,,,,,
,,,,,,,6400e0dd862feacb579475a8,2023-08-16_08h56.42.015,HF_wild_card,2022.2.4,Win32,60.30635629,6400e0dd862feacb579475a8,64d2fd46c836a06233681665,64dc81203c4849c9fa53d2b9,,,,,,,sngl,resources/Empty.png,resources/DB.BMP,Door3,0.356770833,0.013020833,1,0,0,0.8779,optionRight,70,9810,5,7,0,7,0,1,,,,,,,,,,,,,,,,,,,,,,,,,,,,,,,,,,,,,,,
,,,,,,,6400e0dd862feacb579475a8,2023-08-16_08h56.42.015,HF_wild_card,2022.2.4,Win32,60.30635629,6400e0dd862feacb579475a8,64d2fd46c836a06233681665,64dc81203c4849c9fa53d2b9,,,,,,,sngl,resources/Empty.png,resources/DG.BMP,Door2,0.385416667,0.01953125,1,0,0,0.844,optionRight,20,9830,5,8,0,8,0,1,,,,,,,,,,,,,,,,,,,,,,,,,,,,,,,,,,,,,,,
,,,,,,,6400e0dd862feacb579475a8,2023-08-16_08h56.42.015,HF_wild_card,2022.2.4,Win32,60.30635629,6400e0dd862feacb579475a8,64d2fd46c836a06233681665,64dc81203c4849c9fa53d2b9,,,,,,,decisionTrl,resources/DBN.BMP,resources/DB.BMP,Door3,0.276041667,-0.026041667,1,0,0,1.4752,optionRight,70,9900,5,9,0,9,0,1,,,,,,,,,,,,,,,,,,,,,,,,,,,,,,,,,,,,,,,
,,,,,,,6400e0dd862feacb579475a8,2023-08-16_08h56.42.015,HF_wild_card,2022.2.4,Win32,60.30635629,6400e0dd862feacb579475a8,64d2fd46c836a06233681665,64dc81203c4849c9fa53d2b9,,,,,,,sngl,resources/DBN.BMP,resources/Empty.png,Door4,-0.346354167,0.01171875,1,0,0,0.9444,optionLeft,80,9980,5,10,0,10,0,1,,,,,,,,,,,,,,,,,,,,,,,,,,,,,,,,,,,,,,,
,,,,,,,6400e0dd862feacb579475a8,2023-08-16_08h56.42.015,HF_wild_card,2022.2.4,Win32,60.30635629,6400e0dd862feacb579475a8,64d2fd46c836a06233681665,64dc81203c4849c9fa53d2b9,,,,,,,ctch,resources/DBN.BMP,resources/DY.BMP,Door4,-0.375,0.036458333,1,0,0,1.2099,optionLeft,60,10040,5,11,0,11,0,1,,,,,,,,,,,,,,,,,,,,,,,,,,,,,,,,,,,,,,,
,,,,,,,6400e0dd862feacb579475a8,2023-08-16_08h56.42.015,HF_wild_card,2022.2.4,Win32,60.30635629,6400e0dd862feacb579475a8,64d2fd46c836a06233681665,64dc81203c4849c9fa53d2b9,,,,,,,decisionTrl,resources/DG.BMP,resources/DY.BMP,Door2,-0.330729167,0.002604167,1,0,0,1.1257,optionLeft,40,10080,5,12,0,12,0,1,,,,,,,,,,,,,,,,,,,,,,,,,,,,,,,,,,,,,,,
,,,,,,,6400e0dd862feacb579475a8,2023-08-16_08h56.42.015,HF_wild_card,2022.2.4,Win32,60.30635629,6400e0dd862feacb579475a8,64d2fd46c836a06233681665,64dc81203c4849c9fa53d2b9,,,,,,,sngl,resources/DP.BMP,resources/Empty.png,WildCard_NonEx,-0.32421875,-0.014322917,1,0,0,0.9436,optionLeft,45,10125,5,13,0,13,0,1,,,,,,,,,,,,,,,,,,,,,,,,,,,,,,,,,,,,,,,
,,,,,,,6400e0dd862feacb579475a8,2023-08-16_08h56.42.015,HF_wild_card,2022.2.4,Win32,60.30635629,6400e0dd862feacb579475a8,64d2fd46c836a06233681665,64dc81203c4849c9fa53d2b9,,,,,,,decisionTrl,resources/DY.BMP,resources/DP.BMP,WildCard_NonEx,0.328125,-0.055989583,1,0,0,1.8074,optionRight,45,10170,5,14,0,14,0,1,,,,,,,,,,,,,,,,,,,,,,,,,,,,,,,,,,,,,,,
,,,,,,,6400e0dd862feacb579475a8,2023-08-16_08h56.42.015,HF_wild_card,2022.2.4,Win32,60.30635629,6400e0dd862feacb579475a8,64d2fd46c836a06233681665,64dc81203c4849c9fa53d2b9,,,,,,,decisionTrl,resources/DY.BMP,resources/DG.BMP,Door2,0.28125,-0.00390625,1,0,0,1.309,optionRight,40,10210,5,15,0,15,0,1,,,,,,,,,,,,,,,,,,,,,,,,,,,,,,,,,,,,,,,
,,,,,,,6400e0dd862feacb579475a8,2023-08-16_08h56.42.015,HF_wild_card,2022.2.4,Win32,60.30635629,6400e0dd862feacb579475a8,64d2fd46c836a06233681665,64dc81203c4849c9fa53d2b9,,,,,,,decisionTrl,resources/DB.BMP,resources/DBN.BMP,Door3,-0.411458333,-0.059895833,1,0,0,1.2426,optionLeft,70,10280,5,16,0,16,0,1,,,,,,,,,,,,,,,,,,,,,,,,,,,,,,,,,,,,,,,
,,,,,,,6400e0dd862feacb579475a8,2023-08-16_08h56.42.015,HF_wild_card,2022.2.4,Win32,60.30635629,6400e0dd862feacb579475a8,64d2fd46c836a06233681665,64dc81203c4849c9fa53d2b9,,,,,,,ctch,resources/DG.BMP,resources/DB.BMP,Door3,0.3046875,0.01171875,1,0,0,2.0231,optionRight,70,10350,5,17,0,17,0,1,,,,,,,,,,,,,,,,,,,,,,,,,,,,,,,,,,,,,,,
,,,,,,,6400e0dd862feacb579475a8,2023-08-16_08h56.42.015,HF_wild_card,2022.2.4,Win32,60.30635629,6400e0dd862feacb579475a8,64d2fd46c836a06233681665,64dc81203c4849c9fa53d2b9,,,,,,,decisionTrl,resources/DP.BMP,resources/DY.BMP,WildCard_NonEx,-0.34375,-0.001302083,1,0,0,1.4919,optionLeft,45,10395,5,18,0,18,0,1,,,,,,,,,,,,,,,,,,,,,,,,,,,,,,,,,,,,,,,
,,,,,,,6400e0dd862feacb579475a8,2023-08-16_08h56.42.015,HF_wild_card,2022.2.4,Win32,60.30635629,6400e0dd862feacb579475a8,64d2fd46c836a06233681665,64dc81203c4849c9fa53d2b9,,,,,,,sngl,resources/Empty.png,resources/DP.BMP,WildCard_NonEx,0.30859375,-0.001302083,1,0,0,0.9104,optionRight,55,10450,5,19,0,19,0,1,,,,,,,,,,,,,,,,,,,,,,,,,,,,,,,,,,,,,,,
,,,,,,,6400e0dd862feacb579475a8,2023-08-16_08h56.42.015,HF_wild_card,2022.2.4,Win32,60.30635629,6400e0dd862feacb579475a8,64d2fd46c836a06233681665,64dc81203c4849c9fa53d2b9,,,,,,,decisionTrl,resources/DBN.BMP,resources/DP.BMP,Door4,-0.291666667,0.02734375,1,0,0,1.5667,optionLeft,60,10510,5,20,0,20,0,1,,,,,,,,,,,,,,,,,,,,,,,,,,,,,,,,,,,,,,,
,,,,,,,6400e0dd862feacb579475a8,2023-08-16_08h56.42.015,HF_wild_card,2022.2.4,Win32,60.30635629,6400e0dd862feacb579475a8,64d2fd46c836a06233681665,64dc81203c4849c9fa53d2b9,,,,,,,decisionTrl,resources/DB.BMP,resources/DBN.BMP,Door3,-0.307291667,-0.010416667,1,0,0,2.2394,optionLeft,70,10580,5,21,0,21,0,1,,,,,,,,,,,,,,,,,,,,,,,,,,,,,,,,,,,,,,,
,,,,,,,6400e0dd862feacb579475a8,2023-08-16_08h56.42.015,HF_wild_card,2022.2.4,Win32,60.30635629,6400e0dd862feacb579475a8,64d2fd46c836a06233681665,64dc81203c4849c9fa53d2b9,,,,,,,sngl,resources/Empty.png,resources/DP.BMP,WildCard_NonEx,0.3125,-0.036458333,1,0,0,0.8935,optionRight,45,10625,5,22,0,22,0,1,,,,,,,,,,,,,,,,,,,,,,,,,,,,,,,,,,,,,,,
,,,,,,,6400e0dd862feacb579475a8,2023-08-16_08h56.42.015,HF_wild_card,2022.2.4,Win32,60.30635629,6400e0dd862feacb579475a8,64d2fd46c836a06233681665,64dc81203c4849c9fa53d2b9,,,,,,,ctch,resources/DY.BMP,resources/DBN.BMP,Door4,0.26171875,0.005208333,1,0,0,1.8745,optionRight,80,10705,5,23,0,23,0,1,,,,,,,,,,,,,,,,,,,,,,,,,,,,,,,,,,,,,,,
,,,,,,,6400e0dd862feacb579475a8,2023-08-16_08h56.42.015,HF_wild_card,2022.2.4,Win32,60.30635629,6400e0dd862feacb579475a8,64d2fd46c836a06233681665,64dc81203c4849c9fa53d2b9,,,,,,,sngl,resources/DP.BMP,resources/Empty.png,WildCard_NonEx,-0.30859375,-0.005208333,1,0,0,0.9433,optionLeft,55,10760,5,24,0,24,0,1,,,,,,,,,,,,,,,,,,,,,,,,,,,,,,,,,,,,,,,
,,,,,,,6400e0dd862feacb579475a8,2023-08-16_08h56.42.015,HF_wild_card,2022.2.4,Win32,60.30635629,6400e0dd862feacb579475a8,64d2fd46c836a06233681665,64dc81203c4849c9fa53d2b9,,,,,,,decisionTrl,resources/DP.BMP,resources/DG.BMP,Door2,0.27734375,-0.015625,1,0,0,1.8897,optionRight,40,10800,5,25,0,25,0,1,,,,,,,,,,,,,,,,,,,,,,,,,,,,,,,,,,,,,,,
,,,,,,,6400e0dd862feacb579475a8,2023-08-16_08h56.42.015,HF_wild_card,2022.2.4,Win32,60.30635629,6400e0dd862feacb579475a8,64d2fd46c836a06233681665,64dc81203c4849c9fa53d2b9,,,,,,,decisionTrl,resources/DY.BMP,resources/DG.BMP,Door2,0.290364583,-0.005208333,1,0,0,1.5417,optionRight,40,10840,5,26,0,26,0,1,,,,,,,,,,,,,,,,,,,,,,,,,,,,,,,,,,,,,,,
,,,,,,,6400e0dd862feacb579475a8,2023-08-16_08h56.42.015,HF_wild_card,2022.2.4,Win32,60.30635629,6400e0dd862feacb579475a8,64d2fd46c836a06233681665,64dc81203c4849c9fa53d2b9,,,,,,,sngl,resources/DB.BMP,resources/Empty.png,Door3,-0.264322917,-0.006510417,1,0,0,1.0268,optionLeft,70,10910,5,27,0,27,0,1,,,,,,,,,,,,,,,,,,,,,,,,,,,,,,,,,,,,,,,
,,,,,,,6400e0dd862feacb579475a8,2023-08-16_08h56.42.015,HF_wild_card,2022.2.4,Win32,60.30635629,6400e0dd862feacb579475a8,64d2fd46c836a06233681665,64dc81203c4849c9fa53d2b9,,,,,,,decisionTrl,resources/DB.BMP,resources/DBN.BMP,Door3,-0.35546875,-0.028645833,1,0,0,1.4904,optionLeft,70,10980,5,28,0,28,0,1,,,,,,,,,,,,,,,,,,,,,,,,,,,,,,,,,,,,,,,
,,,,,,,6400e0dd862feacb579475a8,2023-08-16_08h56.42.015,HF_wild_card,2022.2.4,Win32,60.30635629,6400e0dd862feacb579475a8,64d2fd46c836a06233681665,64dc81203c4849c9fa53d2b9,,,,,,,ctch,resources/DY.BMP,resources/DBN.BMP,Door4,0.321614583,0.009114583,1,0,0,2.0394,optionRight,80,11060,5,29,0,29,0,1,,,,,,,,,,,,,,,,,,,,,,,,,,,,,,,,,,,,,,,
,,,,,,,6400e0dd862feacb579475a8,2023-08-16_08h56.42.015,HF_wild_card,2022.2.4,Win32,60.30635629,6400e0dd862feacb579475a8,64d2fd46c836a06233681665,64dc81203c4849c9fa53d2b9,,,,,,,ctch,resources/DG.BMP,resources/DB.BMP,Door3,0.282552083,-0.041666667,1,0,0,1.1594,optionRight,70,11130,5,30,0,30,0,1,,,,,,,,,,,,,,,,,,,,,,,,,,,,,,,,,,,,,,,
,,,,,,,6400e0dd862feacb579475a8,2023-08-16_08h56.42.015,HF_wild_card,2022.2.4,Win32,60.30635629,6400e0dd862feacb579475a8,64d2fd46c836a06233681665,64dc81203c4849c9fa53d2b9,,,,,,,sngl,resources/DG.BMP,resources/Empty.png,Door2,-0.303385417,0.037760417,1,0,0,0.9769,optionLeft,40,11170,5,31,0,31,0,1,,,,,,,,,,,,,,,,,,,,,,,,,,,,,,,,,,,,,,,
,,,,,,,6400e0dd862feacb579475a8,2023-08-16_08h56.42.015,HF_wild_card,2022.2.4,Win32,60.30635629,6400e0dd862feacb579475a8,64d2fd46c836a06233681665,64dc81203c4849c9fa53d2b9,,,,,,,decisionTrl,resources/DG.BMP,resources/DY.BMP,Door2,-0.338541667,0.005208333,1,0,0,1.0767,optionLeft,20,11190,5,32,0,32,0,1,,,,,,,,,,,,,,,,,,,,,,,,,,,,,,,,,,,,,,,
,,,,,,,6400e0dd862feacb579475a8,2023-08-16_08h56.42.015,HF_wild_card,2022.2.4,Win32,60.30635629,6400e0dd862feacb579475a8,64d2fd46c836a06233681665,64dc81203c4849c9fa53d2b9,,,,,,,decisionTrl,resources/DG.BMP,resources/DY.BMP,Door2,-0.28515625,0.013020833,1,0,0,1.4255,optionLeft,40,11230,5,33,0,33,0,1,,,,,,,,,,,,,,,,,,,,,,,,,,,,,,,,,,,,,,,
,,,,,,,6400e0dd862feacb579475a8,2023-08-16_08h56.42.015,HF_wild_card,2022.2.4,Win32,60.30635629,6400e0dd862feacb579475a8,64d2fd46c836a06233681665,64dc81203c4849c9fa53d2b9,,,,,,,sngl,resources/DY.BMP,resources/Empty.png,Door1,-0.286458333,0.001302083,1,0,0,0.9913,optionLeft,30,11260,5,34,0,34,0,1,,,,,,,,,,,,,,,,,,,,,,,,,,,,,,,,,,,,,,,
,,,,,,,6400e0dd862feacb579475a8,2023-08-16_08h56.42.015,HF_wild_card,2022.2.4,Win32,60.30635629,6400e0dd862feacb579475a8,64d2fd46c836a06233681665,64dc81203c4849c9fa53d2b9,,,,,,,decisionTrl,resources/DY.BMP,resources/DG.BMP,Door2,0.311197917,0.006510417,1,0,0,1.2096,optionRight,20,11280,5,35,0,35,0,1,,,,,,,,,,,,,,,,,,,,,,,,,,,,,,,,,,,,,,,
,,,,,,,6400e0dd862feacb579475a8,2023-08-16_08h56.42.015,HF_wild_card,2022.2.4,Win32,60.30635629,6400e0dd862feacb579475a8,64d2fd46c836a06233681665,64dc81203c4849c9fa53d2b9,,,,,,,decisionTrl,resources/DY.BMP,resources/DG.BMP,Door2,0.350260417,-0.03515625,1,0,0,2.3871,optionRight,20,11300,5,36,0,36,0,1,,,,,,,,,,,,,,,,,,,,,,,,,,,,,,,,,,,,,,,
,,,,,,,6400e0dd862feacb579475a8,2023-08-16_08h56.42.015,HF_wild_card,2022.2.4,Win32,60.30635629,6400e0dd862feacb579475a8,64d2fd46c836a06233681665,64dc81203c4849c9fa53d2b9,,,,,,,sngl,resources/Empty.png,resources/DBN.BMP,Door4,0.31640625,-0.01953125,1,0,0,0.9113,optionRight,60,11360,5,37,0,37,0,1,,,,,,,,,,,,,,,,,,,,,,,,,,,,,,,,,,,,,,,
,,,,,,,6400e0dd862feacb579475a8,2023-08-16_08h56.42.015,HF_wild_card,2022.2.4,Win32,60.30635629,6400e0dd862feacb579475a8,64d2fd46c836a06233681665,64dc81203c4849c9fa53d2b9,,,,,,,decisionTrl,resources/DBN.BMP,resources/DB.BMP,Door3,0.337239583,-0.036458333,1,0,0,1.4084,optionRight,70,11430,5,38,0,38,0,1,,,,,,,,,,,,,,,,,,,,,,,,,,,,,,,,,,,,,,,
,,,,,,,6400e0dd862feacb579475a8,2023-08-16_08h56.42.015,HF_wild_card,2022.2.4,Win32,60.30635629,6400e0dd862feacb579475a8,64d2fd46c836a06233681665,64dc81203c4849c9fa53d2b9,,,,,,,decisionTrl,resources/DP.BMP,resources/DBN.BMP,Door4,0.326822917,-0.013020833,1,0,0,1.4087,optionRight,80,11510,5,39,0,39,0,1,,,,,,,,,,,,,,,,,,,,,,,,,,,,,,,,,,,,,,,
,,,,,,,6400e0dd862feacb579475a8,2023-08-16_08h56.42.015,HF_wild_card,2022.2.4,Win32,60.30635629,6400e0dd862feacb579475a8,64d2fd46c836a06233681665,64dc81203c4849c9fa53d2b9,,,,,,,decisionTrl,resources/DG.BMP,resources/DP.BMP,Door2,-0.333333333,0.072916667,1,0,0,2.0222,optionLeft,40,11550,5,40,0,40,0,1,,,,,,,,,,,,,,,,,,,,,,,,,,,,,,,,,,,,,,,
,,,,,,,6400e0dd862feacb579475a8,2023-08-16_08h56.42.015,HF_wild_card,2022.2.4,Win32,60.30635629,6400e0dd862feacb579475a8,64d2fd46c836a06233681665,64dc81203c4849c9fa53d2b9,,,,,,,ctch,resources/DB.BMP,resources/DG.BMP,Door3,-0.33984375,-0.013020833,1,0,0,2.1398,optionLeft,70,11620,5,41,0,41,0,1,,,,,,,,,,,,,,,,,,,,,,,,,,,,,,,,,,,,,,,
,,,,,,,6400e0dd862feacb579475a8,2023-08-16_08h56.42.015,HF_wild_card,2022.2.4,Win32,60.30635629,6400e0dd862feacb579475a8,64d2fd46c836a06233681665,64dc81203c4849c9fa53d2b9,,,,,,,decisionTrl,resources/DBN.BMP,resources/DB.BMP,Door3,0.303385417,-0.0078125,1,0,0,2.2383,optionRight,70,11690,5,42,0,42,0,1,,,,,,,,,,,,,,,,,,,,,,,,,,,,,,,,,,,,,,,
,,,,,,,6400e0dd862feacb579475a8,2023-08-16_08h56.42.015,HF_wild_card,2022.2.4,Win32,60.30635629,6400e0dd862feacb579475a8,64d2fd46c836a06233681665,64dc81203c4849c9fa53d2b9,,,,,,,decisionTrl,resources/DB.BMP,resources/DP.BMP,Door3,-0.358072917,-0.018229167,1,0,0,1.2918,optionLeft,70,11760,5,43,0,43,0,1,,,,,,,,,,,,,,,,,,,,,,,,,,,,,,,,,,,,,,,
,,,,,,,6400e0dd862feacb579475a8,2023-08-16_08h56.42.015,HF_wild_card,2022.2.4,Win32,60.30635629,6400e0dd862feacb579475a8,64d2fd46c836a06233681665,64dc81203c4849c9fa53d2b9,,,,,,,,,,,,,,,,,,,,,,,,,,4,0,4,0,1,,,,,,,,,,,,,,,,,,,,,,,,,,,,,,,,,,
,,,,,,,6400e0dd862feacb579475a8,2023-08-16_08h56.42.015,HF_wild_card,2022.2.4,Win32,60.30635629,6400e0dd862feacb579475a8,64d2fd46c836a06233681665,64dc81203c4849c9fa53d2b9,,,,,,,ctch,resources/DB.BMP,resources/DG.BMP,Door3,-0.329427083,-0.013020833,1,0,0,1.3652,optionLeft,70,11830,6,0,0,0,0,1,,,,,,,,,,,,,,,,,,,,,,,,,,,,,,,,,,,,,,,
,,,,,,,6400e0dd862feacb579475a8,2023-08-16_08h56.42.015,HF_wild_card,2022.2.4,Win32,60.30635629,6400e0dd862feacb579475a8,64d2fd46c836a06233681665,64dc81203c4849c9fa53d2b9,,,,,,,ctch,resources/DBN.BMP,resources/DY.BMP,Door4,-0.278645833,0.024739583,1,0,0,1.3091,optionLeft,80,11910,6,1,0,1,0,1,,,,,,,,,,,,,,,,,,,,,,,,,,,,,,,,,,,,,,,
,,,,,,,6400e0dd862feacb579475a8,2023-08-16_08h56.42.015,HF_wild_card,2022.2.4,Win32,60.30635629,6400e0dd862feacb579475a8,64d2fd46c836a06233681665,64dc81203c4849c9fa53d2b9,,,,,,,decisionTrl,resources/DP.BMP,resources/DBN.BMP,Door4,0.395833333,0.001302083,1,0,0,1.5577,optionRight,80,11990,6,2,0,2,0,1,,,,,,,,,,,,,,,,,,,,,,,,,,,,,,,,,,,,,,,
,,,,,,,6400e0dd862feacb579475a8,2023-08-16_08h56.42.015,HF_wild_card,2022.2.4,Win32,60.30635629,6400e0dd862feacb579475a8,64d2fd46c836a06233681665,64dc81203c4849c9fa53d2b9,,,,,,,decisionTrl,resources/DY.BMP,resources/DP.BMP,WildCard_NonEx,0.438802083,0.059895833,1,0,0,2.3387,optionRight,45,12035,6,3,0,3,0,1,,,,,,,,,,,,,,,,,,,,,,,,,,,,,,,,,,,,,,,
,,,,,,,6400e0dd862feacb579475a8,2023-08-16_08h56.42.015,HF_wild_card,2022.2.4,Win32,60.30635629,6400e0dd862feacb579475a8,64d2fd46c836a06233681665,64dc81203c4849c9fa53d2b9,,,,,,,decisionTrl,resources/DG.BMP,resources/DP.BMP,Door2,-0.295572917,0.015625,1,0,0,1.3587,optionLeft,40,12075,6,4,0,4,0,1,,,,,,,,,,,,,,,,,,,,,,,,,,,,,,,,,,,,,,,
,,,,,,,6400e0dd862feacb579475a8,2023-08-16_08h56.42.015,HF_wild_card,2022.2.4,Win32,60.30635629,6400e0dd862feacb579475a8,64d2fd46c836a06233681665,64dc81203c4849c9fa53d2b9,,,,,,,ctch,resources/DG.BMP,resources/DB.BMP,Door3,0.390625,-0.028645833,1,0,0,1.2922,optionRight,70,12145,6,5,0,5,0,1,,,,,,,,,,,,,,,,,,,,,,,,,,,,,,,,,,,,,,,
,,,,,,,6400e0dd862feacb579475a8,2023-08-16_08h56.42.015,HF_wild_card,2022.2.4,Win32,60.30635629,6400e0dd862feacb579475a8,64d2fd46c836a06233681665,64dc81203c4849c9fa53d2b9,,,,,,,ctch,resources/DY.BMP,resources/DBN.BMP,Door4,0.305989583,0.153645833,1,0,0,1.1427,optionRight,80,12225,6,6,0,6,0,1,,,,,,,,,,,,,,,,,,,,,,,,,,,,,,,,,,,,,,,
,,,,,,,6400e0dd862feacb579475a8,2023-08-16_08h56.42.015,HF_wild_card,2022.2.4,Win32,60.30635629,6400e0dd862feacb579475a8,64d2fd46c836a06233681665,64dc81203c4849c9fa53d2b9,,,,,,,decisionTrl,resources/DY.BMP,resources/DG.BMP,Door2,0.2734375,0.022135417,1,0,0,1.326,optionRight,40,12265,6,7,0,7,0,1,,,,,,,,,,,,,,,,,,,,,,,,,,,,,,,,,,,,,,,
,,,,,,,6400e0dd862feacb579475a8,2023-08-16_08h56.42.015,HF_wild_card,2022.2.4,Win32,60.30635629,6400e0dd862feacb579475a8,64d2fd46c836a06233681665,64dc81203c4849c9fa53d2b9,,,,,,,decisionTrl,resources/DB.BMP,resources/DBN.BMP,Door3,-0.364583333,-0.048177083,1,0,0,1.126,optionLeft,70,12335,6,8,0,8,0,1,,,,,,,,,,,,,,,,,,,,,,,,,,,,,,,,,,,,,,,
,,,,,,,6400e0dd862feacb579475a8,2023-08-16_08h56.42.015,HF_wild_card,2022.2.4,Win32,60.30635629,6400e0dd862feacb579475a8,64d2fd46c836a06233681665,64dc81203c4849c9fa53d2b9,,,,,,,sngl,resources/DB.BMP,resources/Empty.png,Door3,-0.302083333,-0.018229167,1,0,0,1.0428,optionLeft,70,12405,6,9,0,9,0,1,,,,,,,,,,,,,,,,,,,,,,,,,,,,,,,,,,,,,,,
,,,,,,,6400e0dd862feacb579475a8,2023-08-16_08h56.42.015,HF_wild_card,2022.2.4,Win32,60.30635629,6400e0dd862feacb579475a8,64d2fd46c836a06233681665,64dc81203c4849c9fa53d2b9,,,,,,,sngl,resources/Empty.png,resources/DBN.BMP,Door4,0.350260417,0.018229167,1,0,0,0.8621,optionRight,80,12485,6,10,0,10,0,1,,,,,,,,,,,,,,,,,,,,,,,,,,,,,,,,,,,,,,,
,,,,,,,6400e0dd862feacb579475a8,2023-08-16_08h56.42.015,HF_wild_card,2022.2.4,Win32,60.30635629,6400e0dd862feacb579475a8,64d2fd46c836a06233681665,64dc81203c4849c9fa53d2b9,,,,,,,ctch,resources/DBN.BMP,resources/DY.BMP,Door4,-0.303385417,0.119791667,1,0,0,1.4246,optionLeft,80,12565,6,11,0,11,0,1,,,,,,,,,,,,,,,,,,,,,,,,,,,,,,,,,,,,,,,
,,,,,,,6400e0dd862feacb579475a8,2023-08-16_08h56.42.015,HF_wild_card,2022.2.4,Win32,60.30635629,6400e0dd862feacb579475a8,64d2fd46c836a06233681665,64dc81203c4849c9fa53d2b9,,,,,,,sngl,resources/Empty.png,resources/DP.BMP,WildCard_NonEx,0.325520833,0.010416667,1,0,0,0.8933,optionRight,45,12610,6,12,0,12,0,1,,,,,,,,,,,,,,,,,,,,,,,,,,,,,,,,,,,,,,,
,,,,,,,6400e0dd862feacb579475a8,2023-08-16_08h56.42.015,HF_wild_card,2022.2.4,Win32,60.30635629,6400e0dd862feacb579475a8,64d2fd46c836a06233681665,64dc81203c4849c9fa53d2b9,,,,,,,decisionTrl,resources/DBN.BMP,resources/DB.BMP,Door3,0.295572917,-0.010416667,1,0,0,1.3606,optionRight,70,12680,6,13,0,13,0,1,,,,,,,,,,,,,,,,,,,,,,,,,,,,,,,,,,,,,,,
,,,,,,,6400e0dd862feacb579475a8,2023-08-16_08h56.42.015,HF_wild_card,2022.2.4,Win32,60.30635629,6400e0dd862feacb579475a8,64d2fd46c836a06233681665,64dc81203c4849c9fa53d2b9,,,,,,,decisionTrl,resources/DB.BMP,resources/DP.BMP,Door3,-0.319010417,-0.022135417,1,0,0,1.2594,optionLeft,70,12750,6,14,0,14,0,1,,,,,,,,,,,,,,,,,,,,,,,,,,,,,,,,,,,,,,,
,,,,,,,6400e0dd862feacb579475a8,2023-08-16_08h56.42.015,HF_wild_card,2022.2.4,Win32,60.30635629,6400e0dd862feacb579475a8,64d2fd46c836a06233681665,64dc81203c4849c9fa53d2b9,,,,,,,decisionTrl,resources/DG.BMP,resources/DY.BMP,Door2,-0.286458333,0.09375,1,0,0,1.873,optionLeft,20,12770,6,15,0,15,0,1,,,,,,,,,,,,,,,,,,,,,,,,,,,,,,,,,,,,,,,
,,,,,,,6400e0dd862feacb579475a8,2023-08-16_08h56.42.015,HF_wild_card,2022.2.4,Win32,60.30635629,6400e0dd862feacb579475a8,64d2fd46c836a06233681665,64dc81203c4849c9fa53d2b9,,,,,,,decisionTrl,resources/DB.BMP,resources/DBN.BMP,Door3,-0.346354167,0.01171875,1,0,0,1.2757,optionLeft,70,12840,6,16,0,16,0,1,,,,,,,,,,,,,,,,,,,,,,,,,,,,,,,,,,,,,,,
,,,,,,,6400e0dd862feacb579475a8,2023-08-16_08h56.42.015,HF_wild_card,2022.2.4,Win32,60.30635629,6400e0dd862feacb579475a8,64d2fd46c836a06233681665,64dc81203c4849c9fa53d2b9,,,,,,,ctch,resources/DG.BMP,resources/DB.BMP,Door3,0.358072917,-0.01953125,1,0,0,1.2268,optionRight,70,12910,6,17,0,17,0,1,,,,,,,,,,,,,,,,,,,,,,,,,,,,,,,,,,,,,,,
,,,,,,,6400e0dd862feacb579475a8,2023-08-16_08h56.42.015,HF_wild_card,2022.2.4,Win32,60.30635629,6400e0dd862feacb579475a8,64d2fd46c836a06233681665,64dc81203c4849c9fa53d2b9,,,,,,,sngl,resources/DP.BMP,resources/Empty.png,WildCard_NonEx,-0.272135417,-0.00390625,1,0,0,1.1642,optionLeft,45,12955,6,18,0,18,0,1,,,,,,,,,,,,,,,,,,,,,,,,,,,,,,,,,,,,,,,
,,,,,,,6400e0dd862feacb579475a8,2023-08-16_08h56.42.015,HF_wild_card,2022.2.4,Win32,60.30635629,6400e0dd862feacb579475a8,64d2fd46c836a06233681665,64dc81203c4849c9fa53d2b9,,,,,,,ctch,resources/DB.BMP,resources/DG.BMP,Door3,-0.420572917,0.06640625,1,0,0,1.426,optionLeft,70,13025,6,19,0,19,0,1,,,,,,,,,,,,,,,,,,,,,,,,,,,,,,,,,,,,,,,
,,,,,,,6400e0dd862feacb579475a8,2023-08-16_08h56.42.015,HF_wild_card,2022.2.4,Win32,60.30635629,6400e0dd862feacb579475a8,64d2fd46c836a06233681665,64dc81203c4849c9fa53d2b9,,,,,,,ctch,resources/DY.BMP,resources/DBN.BMP,Door1,-0.346354167,0.092447917,1,0,0,1.9227,optionLeft,30,13055,6,20,0,20,0,1,,,,,,,,,,,,,,,,,,,,,,,,,,,,,,,,,,,,,,,
,,,,,,,6400e0dd862feacb579475a8,2023-08-16_08h56.42.015,HF_wild_card,2022.2.4,Win32,60.30635629,6400e0dd862feacb579475a8,64d2fd46c836a06233681665,64dc81203c4849c9fa53d2b9,,,,,,,decisionTrl,resources/DP.BMP,resources/DG.BMP,Door2,0.3359375,0.020833333,1,0,0,1.0431,optionRight,40,13095,6,21,0,21,0,1,,,,,,,,,,,,,,,,,,,,,,,,,,,,,,,,,,,,,,,
,,,,,,,6400e0dd862feacb579475a8,2023-08-16_08h56.42.015,HF_wild_card,2022.2.4,Win32,60.30635629,6400e0dd862feacb579475a8,64d2fd46c836a06233681665,64dc81203c4849c9fa53d2b9,,,,,,,decisionTrl,resources/DB.BMP,resources/DBN.BMP,Door3,-0.35546875,-0.005208333,1,0,0,1.5914,optionLeft,70,13165,6,22,0,22,0,1,,,,,,,,,,,,,,,,,,,,,,,,,,,,,,,,,,,,,,,
,,,,,,,6400e0dd862feacb579475a8,2023-08-16_08h56.42.015,HF_wild_card,2022.2.4,Win32,60.30635629,6400e0dd862feacb579475a8,64d2fd46c836a06233681665,64dc81203c4849c9fa53d2b9,,,,,,,decisionTrl,resources/DB.BMP,resources/DBN.BMP,Door3,-0.341145833,-0.01953125,1,0,0,1.341,optionLeft,70,13235,6,23,0,23,0,1,,,,,,,,,,,,,,,,,,,,,,,,,,,,,,,,,,,,,,,
,,,,,,,6400e0dd862feacb579475a8,2023-08-16_08h56.42.015,HF_wild_card,2022.2.4,Win32,60.30635629,6400e0dd862feacb579475a8,64d2fd46c836a06233681665,64dc81203c4849c9fa53d2b9,,,,,,,sngl,resources/DBN.BMP,resources/Empty.png,Door4,-0.33203125,0.05859375,1,0,0,0.9767,optionLeft,60,13295,6,24,0,24,0,1,,,,,,,,,,,,,,,,,,,,,,,,,,,,,,,,,,,,,,,
,,,,,,,6400e0dd862feacb579475a8,2023-08-16_08h56.42.015,HF_wild_card,2022.2.4,Win32,60.30635629,6400e0dd862feacb579475a8,64d2fd46c836a06233681665,64dc81203c4849c9fa53d2b9,,,,,,,decisionTrl,resources/DY.BMP,resources/DG.BMP,Door2,0.354166667,0.04296875,1,0,0,0.8435,optionRight,40,13335,6,25,0,25,0,1,,,,,,,,,,,,,,,,,,,,,,,,,,,,,,,,,,,,,,,
,,,,,,,6400e0dd862feacb579475a8,2023-08-16_08h56.42.015,HF_wild_card,2022.2.4,Win32,60.30635629,6400e0dd862feacb579475a8,64d2fd46c836a06233681665,64dc81203c4849c9fa53d2b9,,,,,,,sngl,resources/Empty.png,resources/DY.BMP,Door1,0.295572917,-0.002604167,1,0,0,0.9109,optionRight,30,13365,6,26,0,26,0,1,,,,,,,,,,,,,,,,,,,,,,,,,,,,,,,,,,,,,,,
,,,,,,,6400e0dd862feacb579475a8,2023-08-16_08h56.42.015,HF_wild_card,2022.2.4,Win32,60.30635629,6400e0dd862feacb579475a8,64d2fd46c836a06233681665,64dc81203c4849c9fa53d2b9,,,,,,,decisionTrl,resources/DBN.BMP,resources/DB.BMP,Door3,0.307291667,0.015625,1,0,0,1.4918,optionRight,70,13435,6,27,0,27,0,1,,,,,,,,,,,,,,,,,,,,,,,,,,,,,,,,,,,,,,,
,,,,,,,6400e0dd862feacb579475a8,2023-08-16_08h56.42.015,HF_wild_card,2022.2.4,Win32,60.30635629,6400e0dd862feacb579475a8,64d2fd46c836a06233681665,64dc81203c4849c9fa53d2b9,,,,,,,decisionTrl,resources/DG.BMP,resources/DY.BMP,Door2,-0.33984375,0.033854167,1,0,0,1.6573,optionLeft,40,13475,6,28,0,28,0,1,,,,,,,,,,,,,,,,,,,,,,,,,,,,,,,,,,,,,,,
,,,,,,,6400e0dd862feacb579475a8,2023-08-16_08h56.42.015,HF_wild_card,2022.2.4,Win32,60.30635629,6400e0dd862feacb579475a8,64d2fd46c836a06233681665,64dc81203c4849c9fa53d2b9,,,,,,,decisionTrl,resources/DBN.BMP,resources/DB.BMP,Door3,0.37109375,0.01953125,1,0,0,1.7714,optionRight,70,13545,6,29,0,29,0,1,,,,,,,,,,,,,,,,,,,,,,,,,,,,,,,,,,,,,,,
,,,,,,,6400e0dd862feacb579475a8,2023-08-16_08h56.42.015,HF_wild_card,2022.2.4,Win32,60.30635629,6400e0dd862feacb579475a8,64d2fd46c836a06233681665,64dc81203c4849c9fa53d2b9,,,,,,,decisionTrl,resources/DBN.BMP,resources/DB.BMP,Door3,0.3359375,0.001302083,1,0,0,1.1802,optionRight,70,13615,6,30,0,30,0,1,,,,,,,,,,,,,,,,,,,,,,,,,,,,,,,,,,,,,,,
,,,,,,,6400e0dd862feacb579475a8,2023-08-16_08h56.42.015,HF_wild_card,2022.2.4,Win32,60.30635629,6400e0dd862feacb579475a8,64d2fd46c836a06233681665,64dc81203c4849c9fa53d2b9,,,,,,,sngl,resources/DG.BMP,resources/Empty.png,Door2,-0.2265625,0.065104167,1,0,0,0.9435,optionLeft,20,13635,6,31,0,31,0,1,,,,,,,,,,,,,,,,,,,,,,,,,,,,,,,,,,,,,,,
,,,,,,,6400e0dd862feacb579475a8,2023-08-16_08h56.42.015,HF_wild_card,2022.2.4,Win32,60.30635629,6400e0dd862feacb579475a8,64d2fd46c836a06233681665,64dc81203c4849c9fa53d2b9,,,,,,,sngl,resources/Empty.png,resources/DB.BMP,Door3,0.21484375,-0.010416667,1,0,0,0.8433,optionRight,70,13705,6,32,0,32,0,1,,,,,,,,,,,,,,,,,,,,,,,,,,,,,,,,,,,,,,,
,,,,,,,6400e0dd862feacb579475a8,2023-08-16_08h56.42.015,HF_wild_card,2022.2.4,Win32,60.30635629,6400e0dd862feacb579475a8,64d2fd46c836a06233681665,64dc81203c4849c9fa53d2b9,,,,,,,sngl,resources/Empty.png,resources/DP.BMP,WildCard_NonEx,0.274739583,-0.0390625,1,0,0,0.9112,optionRight,55,13760,6,33,0,33,0,1,,,,,,,,,,,,,,,,,,,,,,,,,,,,,,,,,,,,,,,
,,,,,,,6400e0dd862feacb579475a8,2023-08-16_08h56.42.015,HF_wild_card,2022.2.4,Win32,60.30635629,6400e0dd862feacb579475a8,64d2fd46c836a06233681665,64dc81203c4849c9fa53d2b9,,,,,,,sngl,resources/DP.BMP,resources/Empty.png,WildCard_NonEx,-0.350260417,-0.04296875,1,0,0,0.8941,optionLeft,55,13815,6,34,0,34,0,1,,,,,,,,,,,,,,,,,,,,,,,,,,,,,,,,,,,,,,,
,,,,,,,6400e0dd862feacb579475a8,2023-08-16_08h56.42.015,HF_wild_card,2022.2.4,Win32,60.30635629,6400e0dd862feacb579475a8,64d2fd46c836a06233681665,64dc81203c4849c9fa53d2b9,,,,,,,sngl,resources/Empty.png,resources/DG.BMP,Door2,0.37890625,0.009114583,1,0,0,1.0265,optionRight,40,13855,6,35,0,35,0,1,,,,,,,,,,,,,,,,,,,,,,,,,,,,,,,,,,,,,,,
,,,,,,,6400e0dd862feacb579475a8,2023-08-16_08h56.42.015,HF_wild_card,2022.2.4,Win32,60.30635629,6400e0dd862feacb579475a8,64d2fd46c836a06233681665,64dc81203c4849c9fa53d2b9,,,,,,,decisionTrl,resources/DP.BMP,resources/DB.BMP,Door3,0.328125,0.020833333,1,0,0,1.3422,optionRight,70,13925,6,36,0,36,0,1,,,,,,,,,,,,,,,,,,,,,,,,,,,,,,,,,,,,,,,
,,,,,,,6400e0dd862feacb579475a8,2023-08-16_08h56.42.015,HF_wild_card,2022.2.4,Win32,60.30635629,6400e0dd862feacb579475a8,64d2fd46c836a06233681665,64dc81203c4849c9fa53d2b9,,,,,,,decisionTrl,resources/DG.BMP,resources/DY.BMP,Door2,-0.303385417,0.002604167,1,0,0,1.01,optionLeft,20,13945,6,37,0,37,0,1,,,,,,,,,,,,,,,,,,,,,,,,,,,,,,,,,,,,,,,
,,,,,,,6400e0dd862feacb579475a8,2023-08-16_08h56.42.015,HF_wild_card,2022.2.4,Win32,60.30635629,6400e0dd862feacb579475a8,64d2fd46c836a06233681665,64dc81203c4849c9fa53d2b9,,,,,,,sngl,resources/DY.BMP,resources/Empty.png,Door1,-0.3359375,-0.020833333,1,0,0,0.9274,optionLeft,30,13975,6,38,0,38,0,1,,,,,,,,,,,,,,,,,,,,,,,,,,,,,,,,,,,,,,,
,,,,,,,6400e0dd862feacb579475a8,2023-08-16_08h56.42.015,HF_wild_card,2022.2.4,Win32,60.30635629,6400e0dd862feacb579475a8,64d2fd46c836a06233681665,64dc81203c4849c9fa53d2b9,,,,,,,decisionTrl,resources/DY.BMP,resources/DG.BMP,Door2,0.329427083,0.052083333,1,0,0,0.9768,optionRight,40,14015,6,39,0,39,0,1,,,,,,,,,,,,,,,,,,,,,,,,,,,,,,,,,,,,,,,
,,,,,,,6400e0dd862feacb579475a8,2023-08-16_08h56.42.015,HF_wild_card,2022.2.4,Win32,60.30635629,6400e0dd862feacb579475a8,64d2fd46c836a06233681665,64dc81203c4849c9fa53d2b9,,,,,,,decisionTrl,resources/DP.BMP,resources/DY.BMP,WildCard_NonEx,-0.352864583,-0.036458333,1,0,0,0.9105,optionLeft,45,14060,6,40,0,40,0,1,,,,,,,,,,,,,,,,,,,,,,,,,,,,,,,,,,,,,,,
,,,,,,,6400e0dd862feacb579475a8,2023-08-16_08h56.42.015,HF_wild_card,2022.2.4,Win32,60.30635629,6400e0dd862feacb579475a8,64d2fd46c836a06233681665,64dc81203c4849c9fa53d2b9,,,,,,,decisionTrl,resources/DBN.BMP,resources/DP.BMP,Door4,-0.311197917,0.0078125,1,0,0,1.4926,optionLeft,80,14140,6,41,0,41,0,1,,,,,,,,,,,,,,,,,,,,,,,,,,,,,,,,,,,,,,,
,,,,,,,6400e0dd862feacb579475a8,2023-08-16_08h56.42.015,HF_wild_card,2022.2.4,Win32,60.30635629,6400e0dd862feacb579475a8,64d2fd46c836a06233681665,64dc81203c4849c9fa53d2b9,,,,,,,decisionTrl,resources/DY.BMP,resources/DG.BMP,Door2,0.385416667,0.028645833,1,0,0,1.4257,optionRight,20,14160,6,42,0,42,0,1,,,,,,,,,,,,,,,,,,,,,,,,,,,,,,,,,,,,,,,
,,,,,,,6400e0dd862feacb579475a8,2023-08-16_08h56.42.015,HF_wild_card,2022.2.4,Win32,60.30635629,6400e0dd862feacb579475a8,64d2fd46c836a06233681665,64dc81203c4849c9fa53d2b9,,,,,,,decisionTrl,resources/DG.BMP,resources/DY.BMP,Door2,-0.33203125,-0.006510417,1,0,0,1.0768,optionLeft,20,14180,6,43,0,43,0,1,,,,,,,,,,,,,,,,,,,,,,,,,,,,,,,,,,,,,,,
,,,,,,,6400e0dd862feacb579475a8,2023-08-16_08h56.42.015,HF_wild_card,2022.2.4,Win32,60.30635629,6400e0dd862feacb579475a8,64d2fd46c836a06233681665,64dc81203c4849c9fa53d2b9,,,,,,,,,,,,,,,,,,,,,,,,,,5,0,5,0,1,,,,,,,,,,,,,,,,,,,,,,,,,,,,,,,,,,
,,,,,,,6400e0dd862feacb579475a8,2023-08-16_08h56.42.015,HF_wild_card,2022.2.4,Win32,60.30635629,6400e0dd862feacb579475a8,64d2fd46c836a06233681665,64dc81203c4849c9fa53d2b9,,,,,,,decisionTrl,resources/DB.BMP,resources/DBN.BMP,Door3,-0.375,-0.140625,1,0,0,1.4804,optionLeft,70,14250,7,0,0,0,0,1,,,,,,,,,,,,,,,,,,,,,,,,,,,,,,,,,,,,,,,
,,,,,,,6400e0dd862feacb579475a8,2023-08-16_08h56.42.015,HF_wild_card,2022.2.4,Win32,60.30635629,6400e0dd862feacb579475a8,64d2fd46c836a06233681665,64dc81203c4849c9fa53d2b9,,,,,,,ctch,resources/DBN.BMP,resources/DY.BMP,Door4,-0.33984375,0.01953125,1,0,0,1.6926,optionLeft,60,14310,7,1,0,1,0,1,,,,,,,,,,,,,,,,,,,,,,,,,,,,,,,,,,,,,,,
,,,,,,,6400e0dd862feacb579475a8,2023-08-16_08h56.42.015,HF_wild_card,2022.2.4,Win32,60.30635629,6400e0dd862feacb579475a8,64d2fd46c836a06233681665,64dc81203c4849c9fa53d2b9,,,,,,,ctch,resources/DY.BMP,resources/DBN.BMP,Door4,0.358072917,0,1,0,0,1.4759,optionRight,60,14370,7,2,0,2,0,1,,,,,,,,,,,,,,,,,,,,,,,,,,,,,,,,,,,,,,,
,,,,,,,6400e0dd862feacb579475a8,2023-08-16_08h56.42.015,HF_wild_card,2022.2.4,Win32,60.30635629,6400e0dd862feacb579475a8,64d2fd46c836a06233681665,64dc81203c4849c9fa53d2b9,,,,,,,decisionTrl,resources/DBN.BMP,resources/DB.BMP,Door3,0.446614583,-0.071614583,1,0,0,1.9249,optionRight,70,14440,7,3,0,3,0,1,,,,,,,,,,,,,,,,,,,,,,,,,,,,,,,,,,,,,,,
,,,,,,,6400e0dd862feacb579475a8,2023-08-16_08h56.42.015,HF_wild_card,2022.2.4,Win32,60.30635629,6400e0dd862feacb579475a8,64d2fd46c836a06233681665,64dc81203c4849c9fa53d2b9,,,,,,,decisionTrl,resources/DBN.BMP,resources/DB.BMP,Door3,0.39453125,-0.013020833,1,0,0,1.3431,optionRight,70,14510,7,4,0,4,0,1,,,,,,,,,,,,,,,,,,,,,,,,,,,,,,,,,,,,,,,
,,,,,,,6400e0dd862feacb579475a8,2023-08-16_08h56.42.015,HF_wild_card,2022.2.4,Win32,60.30635629,6400e0dd862feacb579475a8,64d2fd46c836a06233681665,64dc81203c4849c9fa53d2b9,,,,,,,decisionTrl,resources/DG.BMP,resources/DY.BMP,Door2,-0.361979167,0.01953125,1,0,0,1.7075,optionLeft,40,14550,7,5,0,5,0,1,,,,,,,,,,,,,,,,,,,,,,,,,,,,,,,,,,,,,,,
,,,,,,,6400e0dd862feacb579475a8,2023-08-16_08h56.42.015,HF_wild_card,2022.2.4,Win32,60.30635629,6400e0dd862feacb579475a8,64d2fd46c836a06233681665,64dc81203c4849c9fa53d2b9,,,,,,,decisionTrl,resources/DB.BMP,resources/DBN.BMP,Door3,-0.354166667,-0.014322917,1,0,0,1.3268,optionLeft,70,14620,7,6,0,6,0,1,,,,,,,,,,,,,,,,,,,,,,,,,,,,,,,,,,,,,,,
,,,,,,,6400e0dd862feacb579475a8,2023-08-16_08h56.42.015,HF_wild_card,2022.2.4,Win32,60.30635629,6400e0dd862feacb579475a8,64d2fd46c836a06233681665,64dc81203c4849c9fa53d2b9,,,,,,,ctch,resources/DB.BMP,resources/DG.BMP,Door3,-0.32421875,-0.00390625,1,0,0,2.257,optionLeft,70,14690,7,7,0,7,0,1,,,,,,,,,,,,,,,,,,,,,,,,,,,,,,,,,,,,,,,
,,,,,,,6400e0dd862feacb579475a8,2023-08-16_08h56.42.015,HF_wild_card,2022.2.4,Win32,60.30635629,6400e0dd862feacb579475a8,64d2fd46c836a06233681665,64dc81203c4849c9fa53d2b9,,,,,,,decisionTrl,resources/DBN.BMP,resources/DB.BMP,Door3,0.348958333,-0.005208333,1,0,0,1.4595,optionRight,70,14760,7,8,0,8,0,1,,,,,,,,,,,,,,,,,,,,,,,,,,,,,,,,,,,,,,,
,,,,,,,6400e0dd862feacb579475a8,2023-08-16_08h56.42.015,HF_wild_card,2022.2.4,Win32,60.30635629,6400e0dd862feacb579475a8,64d2fd46c836a06233681665,64dc81203c4849c9fa53d2b9,,,,,,,ctch,resources/DBN.BMP,resources/DY.BMP,Door4,-0.350260417,0.01953125,1,0,0,1.1446,optionLeft,60,14820,7,9,0,9,0,1,,,,,,,,,,,,,,,,,,,,,,,,,,,,,,,,,,,,,,,
,,,,,,,6400e0dd862feacb579475a8,2023-08-16_08h56.42.015,HF_wild_card,2022.2.4,Win32,60.30635629,6400e0dd862feacb579475a8,64d2fd46c836a06233681665,64dc81203c4849c9fa53d2b9,,,,,,,decisionTrl,resources/DG.BMP,resources/DY.BMP,Door2,-0.322916667,0,1,0,0,1.4094,optionLeft,40,14860,7,10,0,10,0,1,,,,,,,,,,,,,,,,,,,,,,,,,,,,,,,,,,,,,,,
,,,,,,,6400e0dd862feacb579475a8,2023-08-16_08h56.42.015,HF_wild_card,2022.2.4,Win32,60.30635629,6400e0dd862feacb579475a8,64d2fd46c836a06233681665,64dc81203c4849c9fa53d2b9,,,,,,,decisionTrl,resources/DB.BMP,resources/DBN.BMP,Door3,-0.352864583,-0.029947917,1,0,0,1.6588,optionLeft,70,14930,7,11,0,11,0,1,,,,,,,,,,,,,,,,,,,,,,,,,,,,,,,,,,,,,,,
,,,,,,,6400e0dd862feacb579475a8,2023-08-16_08h56.42.015,HF_wild_card,2022.2.4,Win32,60.30635629,6400e0dd862feacb579475a8,64d2fd46c836a06233681665,64dc81203c4849c9fa53d2b9,,,,,,,ctch,resources/DBN.BMP,resources/DY.BMP,Door4,-0.346354167,0.036458333,1,0,0,1.0608,optionLeft,80,15010,7,12,0,12,0,1,,,,,,,,,,,,,,,,,,,,,,,,,,,,,,,,,,,,,,,
,,,,,,,6400e0dd862feacb579475a8,2023-08-16_08h56.42.015,HF_wild_card,2022.2.4,Win32,60.30635629,6400e0dd862feacb579475a8,64d2fd46c836a06233681665,64dc81203c4849c9fa53d2b9,,,,,,,decisionTrl,resources/DB.BMP,resources/DBN.BMP,Door3,-0.287760417,-0.018229167,1,0,0,1.243,optionLeft,70,15080,7,13,0,13,0,1,,,,,,,,,,,,,,,,,,,,,,,,,,,,,,,,,,,,,,,
,,,,,,,6400e0dd862feacb579475a8,2023-08-16_08h56.42.015,HF_wild_card,2022.2.4,Win32,60.30635629,6400e0dd862feacb579475a8,64d2fd46c836a06233681665,64dc81203c4849c9fa53d2b9,,,,,,,decisionTrl,resources/DBN.BMP,resources/DB.BMP,Door3,0.303385417,0.032552083,1,0,0,1.3092,optionRight,70,15150,7,14,0,14,0,1,,,,,,,,,,,,,,,,,,,,,,,,,,,,,,,,,,,,,,,
,,,,,,,6400e0dd862feacb579475a8,2023-08-16_08h56.42.015,HF_wild_card,2022.2.4,Win32,60.30635629,6400e0dd862feacb579475a8,64d2fd46c836a06233681665,64dc81203c4849c9fa53d2b9,,,,,,,decisionTrl,resources/DB.BMP,resources/DBN.BMP,Door3,-0.337239583,-0.015625,1,0,0,1.2105,optionLeft,70,15220,7,15,0,15,0,1,,,,,,,,,,,,,,,,,,,,,,,,,,,,,,,,,,,,,,,
,,,,,,,6400e0dd862feacb579475a8,2023-08-16_08h56.42.015,HF_wild_card,2022.2.4,Win32,60.30635629,6400e0dd862feacb579475a8,64d2fd46c836a06233681665,64dc81203c4849c9fa53d2b9,,,,,,,decisionTrl,resources/DG.BMP,resources/DY.BMP,Door2,-0.309895833,0,1,0,0,1.9744,optionLeft,40,15260,7,16,0,16,0,1,,,,,,,,,,,,,,,,,,,,,,,,,,,,,,,,,,,,,,,
,,,,,,,6400e0dd862feacb579475a8,2023-08-16_08h56.42.015,HF_wild_card,2022.2.4,Win32,60.30635629,6400e0dd862feacb579475a8,64d2fd46c836a06233681665,64dc81203c4849c9fa53d2b9,,,,,,,decisionTrl,resources/DY.BMP,resources/DG.BMP,Door2,0.385416667,-0.01953125,1,0,0,1.0776,optionRight,20,15280,7,17,0,17,0,1,,,,,,,,,,,,,,,,,,,,,,,,,,,,,,,,,,,,,,,
,,,,,,,6400e0dd862feacb579475a8,2023-08-16_08h56.42.015,HF_wild_card,2022.2.4,Win32,60.30635629,6400e0dd862feacb579475a8,64d2fd46c836a06233681665,64dc81203c4849c9fa53d2b9,,,,,,,decisionTrl,resources/DBN.BMP,resources/DB.BMP,Door3,0.356770833,-0.02734375,1,0,0,1.2606,optionRight,70,15350,7,18,0,18,0,1,,,,,,,,,,,,,,,,,,,,,,,,,,,,,,,,,,,,,,,
,,,,,,,6400e0dd862feacb579475a8,2023-08-16_08h56.42.015,HF_wild_card,2022.2.4,Win32,60.30635629,6400e0dd862feacb579475a8,64d2fd46c836a06233681665,64dc81203c4849c9fa53d2b9,,,,,,,decisionTrl,resources/DB.BMP,resources/DBN.BMP,Door3,-0.368489583,0.001302083,1,0,0,1.2097,optionLeft,70,15420,7,19,0,19,0,1,,,,,,,,,,,,,,,,,,,,,,,,,,,,,,,,,,,,,,,
,,,,,,,6400e0dd862feacb579475a8,2023-08-16_08h56.42.015,HF_wild_card,2022.2.4,Win32,60.30635629,6400e0dd862feacb579475a8,64d2fd46c836a06233681665,64dc81203c4849c9fa53d2b9,,,,,,,decisionTrl,resources/DY.BMP,resources/DG.BMP,Door2,0.3828125,-0.002604167,1,0,0,1.1445,optionRight,20,15440,7,20,0,20,0,1,,,,,,,,,,,,,,,,,,,,,,,,,,,,,,,,,,,,,,,
,,,,,,,6400e0dd862feacb579475a8,2023-08-16_08h56.42.015,HF_wild_card,2022.2.4,Win32,60.30635629,6400e0dd862feacb579475a8,64d2fd46c836a06233681665,64dc81203c4849c9fa53d2b9,,,,,,,ctch,resources/DB.BMP,resources/DG.BMP,Door3,-0.329427083,-0.014322917,1,0,0,1.9243,optionLeft,70,15510,7,21,0,21,0,1,,,,,,,,,,,,,,,,,,,,,,,,,,,,,,,,,,,,,,,
