Condition,Low fixed image (Door1),Low risky image (Door2),High fixed image (Door3),High risky image (Door4),Extreme Wild Card,NonExtreme Wild Card,,date,expName,psychopyVersion,OS,frameRate,PROLIFIC_PID,STUDY_ID,SESSION_ID,mouse_2.x,mouse_2.y,mouse_2.leftButton,mouse_2.midButton,mouse_2.rightButton,mouse_2.clicked_name,Trial Type,Left Option Image,Right Option Image,Chosen Door,mouse.x,mouse.y,mouse.leftButton,mouse.midButton,mouse.rightButton,mouse.time,mouse.clicked_name,Feedback,Cumulative Reward,Block,trial.thisRepN,trial.thisTrialN,trial.thisN,trial.thisIndex,trial.ran,blocks.thisRepN,blocks.thisTrialN,blocks.thisN,blocks.thisIndex,blocks.ran,Money conversion,First Outcome Reported,Shown Door (First Outcome),Displayed Image (First Outcome),outcomes.thisRepN,outcomes.thisTrialN,outcomes.thisN,outcomes.thisIndex,outcomes.ran,judgments.thisRepN,judgments.thisTrialN,judgments.thisN,judgments.thisIndex,judgments.ran,freqMouse.x,freqMouse.y,freqMouse.leftButton,freqMouse.midButton,freqMouse.rightButton,freqMouse.clicked_name,FQJ for first outcome,FQJ for second outcome,Shown Door,Displayed Image,trials.thisRepN,trials.thisTrialN,trials.thisN,trials.thisIndex,trials.ran,judgBlock.thisRepN,judgBlock.thisTrialN,judgBlock.thisN,judgBlock.thisIndex,judgBlock.ran
1,resources/DP.BMP,resources/DR.BMP,resources/DB.BMP,resources/DY.BMP,resources/DBN.BMP,resources/DG.BMP,,2023-08-06_08h39.12.676,HF_wild_card,2022.2.4,MacIntel,59.98080614,62c4590804317dc197ecbe8a,64ce5acb97489d65b14ecc7a,64cf4b81716b77357ff7deba,,,,,,,,,,,,,,,,,,,,,,,,,,,,,,,,,,,,,,,,,,,,,,,,,,,,,,,,,,,,,,,,
,,,,,,,,2023-08-06_08h39.12.676,HF_wild_card,2022.2.4,MacIntel,59.98080614,62c4590804317dc197ecbe8a,64ce5acb97489d65b14ecc7a,64cf4b81716b77357ff7deba,-0.005363252,-0.422138638,1,0,0,agree,,,,,,,,,,,,,,,,,,,,,,,,,,,,,,,,,,,,,,,,,,,,,,,,,,,,,,,,,,
,,,,,,,,2023-08-06_08h39.12.676,HF_wild_card,2022.2.4,MacIntel,59.98080614,62c4590804317dc197ecbe8a,64ce5acb97489d65b14ecc7a,64cf4b81716b77357ff7deba,,,,,,,,,,,,,,,,,,,,,,,,,,,,,,,,,,,,,,,,,,,,,,,,,,,,,,,,,,,,,,,,
,,,,,,,,2023-08-06_08h39.12.676,HF_wild_card,2022.2.4,MacIntel,59.98080614,62c4590804317dc197ecbe8a,64ce5acb97489d65b14ecc7a,64cf4b81716b77357ff7deba,,,,,,,sngl,resources/DY.BMP,resources/Empty.png,Door4,-0.399814977,-0.070816994,1,0,0,16.4772,optionLeft,80,80,1,0,0,0,0,1,,,,,,,,,,,,,,,,,,,,,,,,,,,,,,,,,,,,,,,
,,,,,,,,2023-08-06_08h39.12.676,HF_wild_card,2022.2.4,MacIntel,59.98080614,62c4590804317dc197ecbe8a,64ce5acb97489d65b14ecc7a,64cf4b81716b77357ff7deba,,,,,,,sngl,resources/DB.BMP,resources/Empty.png,Door3,-0.38866361,-0.081179089,1,0,0,4.601,optionLeft,70,150,1,1,0,1,0,1,,,,,,,,,,,,,,,,,,,,,,,,,,,,,,,,,,,,,,,
,,,,,,,,2023-08-06_08h39.12.676,HF_wild_card,2022.2.4,MacIntel,59.98080614,62c4590804317dc197ecbe8a,64ce5acb97489d65b14ecc7a,64cf4b81716b77357ff7deba,,,,,,,decisionTrl,resources/DY.BMP,resources/DB.BMP,Door3,0.349013646,-0.016977363,1,0,0,9.6531,optionRight,70,220,1,2,0,2,0,1,,,,,,,,,,,,,,,,,,,,,,,,,,,,,,,,,,,,,,,
,,,,,,,,2023-08-06_08h39.12.676,HF_wild_card,2022.2.4,MacIntel,59.98080614,62c4590804317dc197ecbe8a,64ce5acb97489d65b14ecc7a,64cf4b81716b77357ff7deba,,,,,,,sngl,resources/Empty.png,resources/DP.BMP,Door1,0.401299583,-0.073940648,1,0,0,3.7632,optionRight,30,250,1,3,0,3,0,1,,,,,,,,,,,,,,,,,,,,,,,,,,,,,,,,,,,,,,,
,,,,,,,,2023-08-06_08h39.12.676,HF_wild_card,2022.2.4,MacIntel,59.98080614,62c4590804317dc197ecbe8a,64ce5acb97489d65b14ecc7a,64cf4b81716b77357ff7deba,,,,,,,decisionTrl,resources/DB.BMP,resources/DY.BMP,Door4,0.402538723,-0.063375473,1,0,0,4.7165,optionRight,60,310,1,4,0,4,0,1,,,,,,,,,,,,,,,,,,,,,,,,,,,,,,,,,,,,,,,
,,,,,,,,2023-08-06_08h39.12.676,HF_wild_card,2022.2.4,MacIntel,59.98080614,62c4590804317dc197ecbe8a,64ce5acb97489d65b14ecc7a,64cf4b81716b77357ff7deba,,,,,,,ctch,resources/DR.BMP,resources/DB.BMP,Door2,-0.367965221,-0.020493666,1,0,0,4.9733,optionLeft,40,350,1,5,0,5,0,1,,,,,,,,,,,,,,,,,,,,,,,,,,,,,,,,,,,,,,,
,,,,,,,,2023-08-06_08h39.12.676,HF_wild_card,2022.2.4,MacIntel,59.98080614,62c4590804317dc197ecbe8a,64ce5acb97489d65b14ecc7a,64cf4b81716b77357ff7deba,,,,,,,decisionTrl,resources/DG.BMP,resources/DY.BMP,WildCard_NonEx,-0.341372172,-0.018495507,1,0,0,4.8421,optionLeft,45,395,1,6,0,6,0,1,,,,,,,,,,,,,,,,,,,,,,,,,,,,,,,,,,,,,,,
,,,,,,,,2023-08-06_08h39.12.676,HF_wild_card,2022.2.4,MacIntel,59.98080614,62c4590804317dc197ecbe8a,64ce5acb97489d65b14ecc7a,64cf4b81716b77357ff7deba,,,,,,,ctch,resources/DR.BMP,resources/DB.BMP,Door3,0.346585486,-0.007035044,1,0,0,7.4765,optionRight,70,465,1,7,0,7,0,1,,,,,,,,,,,,,,,,,,,,,,,,,,,,,,,,,,,,,,,
,,,,,,,,2023-08-06_08h39.12.676,HF_wild_card,2022.2.4,MacIntel,59.98080614,62c4590804317dc197ecbe8a,64ce5acb97489d65b14ecc7a,64cf4b81716b77357ff7deba,,,,,,,sngl,resources/DR.BMP,resources/Empty.png,Door2,-0.38314014,-0.028208892,1,0,0,3.14,optionLeft,40,505,1,8,0,8,0,1,,,,,,,,,,,,,,,,,,,,,,,,,,,,,,,,,,,,,,,
,,,,,,,,2023-08-06_08h39.12.676,HF_wild_card,2022.2.4,MacIntel,59.98080614,62c4590804317dc197ecbe8a,64ce5acb97489d65b14ecc7a,64cf4b81716b77357ff7deba,,,,,,,ctch,resources/DB.BMP,resources/DR.BMP,Door2,0.336316639,-0.024365743,1,0,0,7.1668,optionRight,40,545,1,9,0,9,0,1,,,,,,,,,,,,,,,,,,,,,,,,,,,,,,,,,,,,,,,
,,,,,,,,2023-08-06_08h39.12.676,HF_wild_card,2022.2.4,MacIntel,59.98080614,62c4590804317dc197ecbe8a,64ce5acb97489d65b14ecc7a,64cf4b81716b77357ff7deba,,,,,,,decisionTrl,resources/DR.BMP,resources/DP.BMP,Door1,0.369349586,-0.049461153,1,0,0,3.8668,optionRight,30,575,1,10,0,10,0,1,,,,,,,,,,,,,,,,,,,,,,,,,,,,,,,,,,,,,,,
,,,,,,,,2023-08-06_08h39.12.676,HF_wild_card,2022.2.4,MacIntel,59.98080614,62c4590804317dc197ecbe8a,64ce5acb97489d65b14ecc7a,64cf4b81716b77357ff7deba,,,,,,,sngl,resources/DG.BMP,resources/Empty.png,WildCard_NonEx,-0.355191019,-0.019531409,1,0,0,2.3119,optionLeft,45,620,1,11,0,11,0,1,,,,,,,,,,,,,,,,,,,,,,,,,,,,,,,,,,,,,,,
,,,,,,,,2023-08-06_08h39.12.676,HF_wild_card,2022.2.4,MacIntel,59.98080614,62c4590804317dc197ecbe8a,64ce5acb97489d65b14ecc7a,64cf4b81716b77357ff7deba,,,,,,,sngl,resources/DG.BMP,resources/Empty.png,WildCard_NonEx,-0.402387778,-0.05787113,1,0,0,2.3034,optionLeft,55,675,1,12,0,12,0,1,,,,,,,,,,,,,,,,,,,,,,,,,,,,,,,,,,,,,,,
,,,,,,,,2023-08-06_08h39.12.676,HF_wild_card,2022.2.4,MacIntel,59.98080614,62c4590804317dc197ecbe8a,64ce5acb97489d65b14ecc7a,64cf4b81716b77357ff7deba,,,,,,,decisionTrl,resources/DP.BMP,resources/DG.BMP,WildCard_NonEx,0.427805053,-0.032662392,1,0,0,3.9815,optionRight,55,730,1,13,0,13,0,1,,,,,,,,,,,,,,,,,,,,,,,,,,,,,,,,,,,,,,,
,,,,,,,,2023-08-06_08h39.12.676,HF_wild_card,2022.2.4,MacIntel,59.98080614,62c4590804317dc197ecbe8a,64ce5acb97489d65b14ecc7a,64cf4b81716b77357ff7deba,,,,,,,ctch,resources/DY.BMP,resources/DP.BMP,Door4,-0.358935038,-0.047317452,1,0,0,14.114,optionLeft,80,810,1,14,0,14,0,1,,,,,,,,,,,,,,,,,,,,,,,,,,,,,,,,,,,,,,,
,,,,,,,,2023-08-06_08h39.12.676,HF_wild_card,2022.2.4,MacIntel,59.98080614,62c4590804317dc197ecbe8a,64ce5acb97489d65b14ecc7a,64cf4b81716b77357ff7deba,,,,,,,ctch,resources/DP.BMP,resources/DY.BMP,Door4,0.381989691,-0.026326497,1,0,0,3.0266,optionRight,80,890,1,15,0,15,0,1,,,,,,,,,,,,,,,,,,,,,,,,,,,,,,,,,,,,,,,
,,,,,,,,2023-08-06_08h39.12.676,HF_wild_card,2022.2.4,MacIntel,59.98080614,62c4590804317dc197ecbe8a,64ce5acb97489d65b14ecc7a,64cf4b81716b77357ff7deba,,,,,,,decisionTrl,resources/DR.BMP,resources/DP.BMP,Door2,-0.352911154,-0.009418964,1,0,0,7.314,optionLeft,20,910,1,16,0,16,0,1,,,,,,,,,,,,,,,,,,,,,,,,,,,,,,,,,,,,,,,
,,,,,,,,2023-08-06_08h39.12.676,HF_wild_card,2022.2.4,MacIntel,59.98080614,62c4590804317dc197ecbe8a,64ce5acb97489d65b14ecc7a,64cf4b81716b77357ff7deba,,,,,,,sngl,resources/Empty.png,resources/DG.BMP,WildCard_NonEx,0.385782666,-0.047677411,1,0,0,1.7389,optionRight,45,955,1,17,0,17,0,1,,,,,,,,,,,,,,,,,,,,,,,,,,,,,,,,,,,,,,,
,,,,,,,,2023-08-06_08h39.12.676,HF_wild_card,2022.2.4,MacIntel,59.98080614,62c4590804317dc197ecbe8a,64ce5acb97489d65b14ecc7a,64cf4b81716b77357ff7deba,,,,,,,sngl,resources/DP.BMP,resources/Empty.png,Door1,-0.341773669,-0.052110725,1,0,0,2.6755,optionLeft,30,985,1,18,0,18,0,1,,,,,,,,,,,,,,,,,,,,,,,,,,,,,,,,,,,,,,,
,,,,,,,,2023-08-06_08h39.12.676,HF_wild_card,2022.2.4,MacIntel,59.98080614,62c4590804317dc197ecbe8a,64ce5acb97489d65b14ecc7a,64cf4b81716b77357ff7deba,,,,,,,decisionTrl,resources/DG.BMP,resources/DB.BMP,Door3,0.355960846,-0.049834728,1,0,0,4.5899,optionRight,70,1055,1,19,0,19,0,1,,,,,,,,,,,,,,,,,,,,,,,,,,,,,,,,,,,,,,,
,,,,,,,,2023-08-06_08h39.12.676,HF_wild_card,2022.2.4,MacIntel,59.98080614,62c4590804317dc197ecbe8a,64ce5acb97489d65b14ecc7a,64cf4b81716b77357ff7deba,,,,,,,decisionTrl,resources/DR.BMP,resources/DP.BMP,Door1,0.39689827,-0.080571863,1,0,0,6.7227,optionRight,30,1085,1,20,0,20,0,1,,,,,,,,,,,,,,,,,,,,,,,,,,,,,,,,,,,,,,,
,,,,,,,,2023-08-06_08h39.12.676,HF_wild_card,2022.2.4,MacIntel,59.98080614,62c4590804317dc197ecbe8a,64ce5acb97489d65b14ecc7a,64cf4b81716b77357ff7deba,,,,,,,decisionTrl,resources/DP.BMP,resources/DR.BMP,Door1,-0.355722427,-0.038568921,1,0,0,4.5887,optionLeft,30,1115,1,21,0,21,0,1,,,,,,,,,,,,,,,,,,,,,,,,,,,,,,,,,,,,,,,
,,,,,,,,2023-08-06_08h39.12.676,HF_wild_card,2022.2.4,MacIntel,59.98080614,62c4590804317dc197ecbe8a,64ce5acb97489d65b14ecc7a,64cf4b81716b77357ff7deba,,,,,,,decisionTrl,resources/DP.BMP,resources/DR.BMP,Door1,-0.380691316,-0.031732506,1,0,0,5.1221,optionLeft,30,1145,1,22,0,22,0,1,,,,,,,,,,,,,,,,,,,,,,,,,,,,,,,,,,,,,,,
,,,,,,,,2023-08-06_08h39.12.676,HF_wild_card,2022.2.4,MacIntel,59.98080614,62c4590804317dc197ecbe8a,64ce5acb97489d65b14ecc7a,64cf4b81716b77357ff7deba,,,,,,,decisionTrl,resources/DY.BMP,resources/DB.BMP,Door4,-0.305423472,-0.032665835,1,0,0,5.3125,optionLeft,60,1205,1,23,0,23,0,1,,,,,,,,,,,,,,,,,,,,,,,,,,,,,,,,,,,,,,,
,,,,,,,,2023-08-06_08h39.12.676,HF_wild_card,2022.2.4,MacIntel,59.98080614,62c4590804317dc197ecbe8a,64ce5acb97489d65b14ecc7a,64cf4b81716b77357ff7deba,,,,,,,decisionTrl,resources/DB.BMP,resources/DG.BMP,Door3,-0.327636295,-0.069604238,1,0,0,4.7138,optionLeft,70,1275,1,24,0,24,0,1,,,,,,,,,,,,,,,,,,,,,,,,,,,,,,,,,,,,,,,
,,,,,,,,2023-08-06_08h39.12.676,HF_wild_card,2022.2.4,MacIntel,59.98080614,62c4590804317dc197ecbe8a,64ce5acb97489d65b14ecc7a,64cf4b81716b77357ff7deba,,,,,,,decisionTrl,resources/DB.BMP,resources/DY.BMP,Door4,0.359994464,-0.008968141,1,0,0,4.7107,optionRight,80,1355,1,25,0,25,0,1,,,,,,,,,,,,,,,,,,,,,,,,,,,,,,,,,,,,,,,
,,,,,,,,2023-08-06_08h39.12.676,HF_wild_card,2022.2.4,MacIntel,59.98080614,62c4590804317dc197ecbe8a,64ce5acb97489d65b14ecc7a,64cf4b81716b77357ff7deba,,,,,,,sngl,resources/Empty.png,resources/DY.BMP,Door4,0.360050731,-0.039076434,1,0,0,2.3821,optionRight,60,1415,1,26,0,26,0,1,,,,,,,,,,,,,,,,,,,,,,,,,,,,,,,,,,,,,,,
,,,,,,,,2023-08-06_08h39.12.676,HF_wild_card,2022.2.4,MacIntel,59.98080614,62c4590804317dc197ecbe8a,64ce5acb97489d65b14ecc7a,64cf4b81716b77357ff7deba,,,,,,,decisionTrl,resources/DP.BMP,resources/DR.BMP,Door1,-0.335336579,-0.031138526,1,0,0,4.5551,optionLeft,30,1445,1,27,0,27,0,1,,,,,,,,,,,,,,,,,,,,,,,,,,,,,,,,,,,,,,,
,,,,,,,,2023-08-06_08h39.12.676,HF_wild_card,2022.2.4,MacIntel,59.98080614,62c4590804317dc197ecbe8a,64ce5acb97489d65b14ecc7a,64cf4b81716b77357ff7deba,,,,,,,sngl,resources/Empty.png,resources/DR.BMP,Door2,0.386142519,-0.037825161,1,0,0,3.1147,optionRight,20,1465,1,28,0,28,0,1,,,,,,,,,,,,,,,,,,,,,,,,,,,,,,,,,,,,,,,
,,,,,,,,2023-08-06_08h39.12.676,HF_wild_card,2022.2.4,MacIntel,59.98080614,62c4590804317dc197ecbe8a,64ce5acb97489d65b14ecc7a,64cf4b81716b77357ff7deba,,,,,,,decisionTrl,resources/DR.BMP,resources/DP.BMP,Door1,0.409226841,-0.084676372,1,0,0,5.3714,optionRight,30,1495,1,29,0,29,0,1,,,,,,,,,,,,,,,,,,,,,,,,,,,,,,,,,,,,,,,
,,,,,,,,2023-08-06_08h39.12.676,HF_wild_card,2022.2.4,MacIntel,59.98080614,62c4590804317dc197ecbe8a,64ce5acb97489d65b14ecc7a,64cf4b81716b77357ff7deba,,,,,,,ctch,resources/DY.BMP,resources/DP.BMP,Door4,-0.415202406,0.00027789,1,0,0,4.7269,optionLeft,60,1555,1,30,0,30,0,1,,,,,,,,,,,,,,,,,,,,,,,,,,,,,,,,,,,,,,,
,,,,,,,,2023-08-06_08h39.12.676,HF_wild_card,2022.2.4,MacIntel,59.98080614,62c4590804317dc197ecbe8a,64ce5acb97489d65b14ecc7a,64cf4b81716b77357ff7deba,,,,,,,ctch,resources/DB.BMP,resources/DR.BMP,Door3,-0.397149616,-0.012638887,1,0,0,5.5636,optionLeft,70,1625,1,31,0,31,0,1,,,,,,,,,,,,,,,,,,,,,,,,,,,,,,,,,,,,,,,
,,,,,,,,2023-08-06_08h39.12.676,HF_wild_card,2022.2.4,MacIntel,59.98080614,62c4590804317dc197ecbe8a,64ce5acb97489d65b14ecc7a,64cf4b81716b77357ff7deba,,,,,,,decisionTrl,resources/DG.BMP,resources/DR.BMP,WildCard_NonEx,-0.315127797,-0.000549952,1,0,0,4.9893,optionLeft,55,1680,1,32,0,32,0,1,,,,,,,,,,,,,,,,,,,,,,,,,,,,,,,,,,,,,,,
,,,,,,,,2023-08-06_08h39.12.676,HF_wild_card,2022.2.4,MacIntel,59.98080614,62c4590804317dc197ecbe8a,64ce5acb97489d65b14ecc7a,64cf4b81716b77357ff7deba,,,,,,,decisionTrl,resources/DR.BMP,resources/DG.BMP,WildCard_NonEx,0.309717072,-0.017593649,1,0,0,4.015,optionRight,55,1735,1,33,0,33,0,1,,,,,,,,,,,,,,,,,,,,,,,,,,,,,,,,,,,,,,,
,,,,,,,,2023-08-06_08h39.12.676,HF_wild_card,2022.2.4,MacIntel,59.98080614,62c4590804317dc197ecbe8a,64ce5acb97489d65b14ecc7a,64cf4b81716b77357ff7deba,,,,,,,sngl,resources/Empty.png,resources/DG.BMP,WildCard_NonEx,0.353068352,-0.050575839,1,0,0,1.731,optionRight,55,1790,1,34,0,34,0,1,,,,,,,,,,,,,,,,,,,,,,,,,,,,,,,,,,,,,,,
,,,,,,,,2023-08-06_08h39.12.676,HF_wild_card,2022.2.4,MacIntel,59.98080614,62c4590804317dc197ecbe8a,64ce5acb97489d65b14ecc7a,64cf4b81716b77357ff7deba,,,,,,,sngl,resources/Empty.png,resources/DB.BMP,Door3,0.348676893,-0.045267953,1,0,0,1.8755,optionRight,70,1860,1,35,0,35,0,1,,,,,,,,,,,,,,,,,,,,,,,,,,,,,,,,,,,,,,,
,,,,,,,,2023-08-06_08h39.12.676,HF_wild_card,2022.2.4,MacIntel,59.98080614,62c4590804317dc197ecbe8a,64ce5acb97489d65b14ecc7a,64cf4b81716b77357ff7deba,,,,,,,decisionTrl,resources/DB.BMP,resources/DY.BMP,Door4,0.431143443,-0.093760226,1,0,0,9.6984,optionRight,80,1940,1,36,0,36,0,1,,,,,,,,,,,,,,,,,,,,,,,,,,,,,,,,,,,,,,,
,,,,,,,,2023-08-06_08h39.12.676,HF_wild_card,2022.2.4,MacIntel,59.98080614,62c4590804317dc197ecbe8a,64ce5acb97489d65b14ecc7a,64cf4b81716b77357ff7deba,,,,,,,decisionTrl,resources/DY.BMP,resources/DB.BMP,Door4,-0.324545013,-0.003520277,1,0,0,4.8172,optionLeft,80,2020,1,37,0,37,0,1,,,,,,,,,,,,,,,,,,,,,,,,,,,,,,,,,,,,,,,
,,,,,,,,2023-08-06_08h39.12.676,HF_wild_card,2022.2.4,MacIntel,59.98080614,62c4590804317dc197ecbe8a,64ce5acb97489d65b14ecc7a,64cf4b81716b77357ff7deba,,,,,,,decisionTrl,resources/DP.BMP,resources/DR.BMP,Door1,-0.364665932,-0.002427101,1,0,0,5.6864,optionLeft,30,2050,1,38,0,38,0,1,,,,,,,,,,,,,,,,,,,,,,,,,,,,,,,,,,,,,,,
,,,,,,,,2023-08-06_08h39.12.676,HF_wild_card,2022.2.4,MacIntel,59.98080614,62c4590804317dc197ecbe8a,64ce5acb97489d65b14ecc7a,64cf4b81716b77357ff7deba,,,,,,,ctch,resources/DP.BMP,resources/DY.BMP,Door4,0.39079984,-0.016727871,1,0,0,5.6451,optionRight,80,2130,1,39,0,39,0,1,,,,,,,,,,,,,,,,,,,,,,,,,,,,,,,,,,,,,,,
,,,,,,,,2023-08-06_08h39.12.676,HF_wild_card,2022.2.4,MacIntel,59.98080614,62c4590804317dc197ecbe8a,64ce5acb97489d65b14ecc7a,64cf4b81716b77357ff7deba,,,,,,,decisionTrl,resources/DY.BMP,resources/DG.BMP,Door4,-0.4364055,-0.036212603,1,0,0,5.4187,optionLeft,80,2210,1,40,0,40,0,1,,,,,,,,,,,,,,,,,,,,,,,,,,,,,,,,,,,,,,,
,,,,,,,,2023-08-06_08h39.12.676,HF_wild_card,2022.2.4,MacIntel,59.98080614,62c4590804317dc197ecbe8a,64ce5acb97489d65b14ecc7a,64cf4b81716b77357ff7deba,,,,,,,decisionTrl,resources/DG.BMP,resources/DP.BMP,WildCard_NonEx,-0.405934705,0.006663428,1,0,0,5.0379,optionLeft,45,2255,1,41,0,41,0,1,,,,,,,,,,,,,,,,,,,,,,,,,,,,,,,,,,,,,,,
,,,,,,,,2023-08-06_08h39.12.676,HF_wild_card,2022.2.4,MacIntel,59.98080614,62c4590804317dc197ecbe8a,64ce5acb97489d65b14ecc7a,64cf4b81716b77357ff7deba,,,,,,,decisionTrl,resources/DB.BMP,resources/DY.BMP,Door4,0.389983707,-0.039882501,1,0,0,6.53,optionRight,80,2335,1,42,0,42,0,1,,,,,,,,,,,,,,,,,,,,,,,,,,,,,,,,,,,,,,,
,,,,,,,,2023-08-06_08h39.12.676,HF_wild_card,2022.2.4,MacIntel,59.98080614,62c4590804317dc197ecbe8a,64ce5acb97489d65b14ecc7a,64cf4b81716b77357ff7deba,,,,,,,decisionTrl,resources/DY.BMP,resources/DB.BMP,Door4,-0.441143142,-0.018189218,1,0,0,3.2239,optionLeft,80,2415,1,43,0,43,0,1,,,,,,,,,,,,,,,,,,,,,,,,,,,,,,,,,,,,,,,
,,,,,,,,2023-08-06_08h39.12.676,HF_wild_card,2022.2.4,MacIntel,59.98080614,62c4590804317dc197ecbe8a,64ce5acb97489d65b14ecc7a,64cf4b81716b77357ff7deba,,,,,,,,,,,,,,,,,,,,,,,,,,0,0,0,0,1,,,,,,,,,,,,,,,,,,,,,,,,,,,,,,,,,,
,,,,,,,,2023-08-06_08h39.12.676,HF_wild_card,2022.2.4,MacIntel,59.98080614,62c4590804317dc197ecbe8a,64ce5acb97489d65b14ecc7a,64cf4b81716b77357ff7deba,,,,,,,sngl,resources/DP.BMP,resources/Empty.png,Door1,-0.388554573,-0.169723246,1,0,0,8.2144,optionLeft,30,2445,2,0,0,0,0,1,,,,,,,,,,,,,,,,,,,,,,,,,,,,,,,,,,,,,,,
,,,,,,,,2023-08-06_08h39.12.676,HF_wild_card,2022.2.4,MacIntel,59.98080614,62c4590804317dc197ecbe8a,64ce5acb97489d65b14ecc7a,64cf4b81716b77357ff7deba,,,,,,,sngl,resources/Empty.png,resources/DG.BMP,WildCard_NonEx,0.417718569,-0.109738085,1,0,0,2.7506,optionRight,55,2500,2,1,0,1,0,1,,,,,,,,,,,,,,,,,,,,,,,,,,,,,,,,,,,,,,,
,,,,,,,,2023-08-06_08h39.12.676,HF_wild_card,2022.2.4,MacIntel,59.98080614,62c4590804317dc197ecbe8a,64ce5acb97489d65b14ecc7a,64cf4b81716b77357ff7deba,,,,,,,sngl,resources/DR.BMP,resources/Empty.png,Door2,-0.364133199,-0.045620018,1,0,0,1.2468,optionLeft,20,2520,2,2,0,2,0,1,,,,,,,,,,,,,,,,,,,,,,,,,,,,,,,,,,,,,,,
,,,,,,,,2023-08-06_08h39.12.676,HF_wild_card,2022.2.4,MacIntel,59.98080614,62c4590804317dc197ecbe8a,64ce5acb97489d65b14ecc7a,64cf4b81716b77357ff7deba,,,,,,,decisionTrl,resources/DG.BMP,resources/DY.BMP,Door4,0.428815206,-0.037161668,1,0,0,4.4396,optionRight,80,2600,2,3,0,3,0,1,,,,,,,,,,,,,,,,,,,,,,,,,,,,,,,,,,,,,,,
,,,,,,,,2023-08-06_08h39.12.676,HF_wild_card,2022.2.4,MacIntel,59.98080614,62c4590804317dc197ecbe8a,64ce5acb97489d65b14ecc7a,64cf4b81716b77357ff7deba,,,,,,,sngl,resources/Empty.png,resources/DR.BMP,Door2,0.31136481,-0.042080826,1,0,0,1.4437,optionRight,40,2640,2,4,0,4,0,1,,,,,,,,,,,,,,,,,,,,,,,,,,,,,,,,,,,,,,,
,,,,,,,,2023-08-06_08h39.12.676,HF_wild_card,2022.2.4,MacIntel,59.98080614,62c4590804317dc197ecbe8a,64ce5acb97489d65b14ecc7a,64cf4b81716b77357ff7deba,,,,,,,sngl,resources/DY.BMP,resources/Empty.png,Door4,-0.327966796,-0.0294137,1,0,0,2.9848,optionLeft,60,2700,2,5,0,5,0,1,,,,,,,,,,,,,,,,,,,,,,,,,,,,,,,,,,,,,,,
,,,,,,,,2023-08-06_08h39.12.676,HF_wild_card,2022.2.4,MacIntel,59.98080614,62c4590804317dc197ecbe8a,64ce5acb97489d65b14ecc7a,64cf4b81716b77357ff7deba,,,,,,,decisionTrl,resources/DP.BMP,resources/DR.BMP,Door1,-0.326139662,-0.006925212,1,0,0,4.0549,optionLeft,30,2730,2,6,0,6,0,1,,,,,,,,,,,,,,,,,,,,,,,,,,,,,,,,,,,,,,,
,,,,,,,,2023-08-06_08h39.12.676,HF_wild_card,2022.2.4,MacIntel,59.98080614,62c4590804317dc197ecbe8a,64ce5acb97489d65b14ecc7a,64cf4b81716b77357ff7deba,,,,,,,sngl,resources/Empty.png,resources/DP.BMP,Door1,0.382282363,-0.046504392,1,0,0,5.7805,optionRight,30,2760,2,7,0,7,0,1,,,,,,,,,,,,,,,,,,,,,,,,,,,,,,,,,,,,,,,
,,,,,,,,2023-08-06_08h39.12.676,HF_wild_card,2022.2.4,MacIntel,59.98080614,62c4590804317dc197ecbe8a,64ce5acb97489d65b14ecc7a,64cf4b81716b77357ff7deba,,,,,,,ctch,resources/DP.BMP,resources/DY.BMP,Door4,0.369614389,-0.040767034,1,0,0,2.448,optionRight,80,2840,2,8,0,8,0,1,,,,,,,,,,,,,,,,,,,,,,,,,,,,,,,,,,,,,,,
,,,,,,,,2023-08-06_08h39.12.676,HF_wild_card,2022.2.4,MacIntel,59.98080614,62c4590804317dc197ecbe8a,64ce5acb97489d65b14ecc7a,64cf4b81716b77357ff7deba,,,,,,,ctch,resources/DB.BMP,resources/DR.BMP,Door3,-0.483993875,-0.001862473,1,0,0,4.0924,optionLeft,70,2910,2,9,0,9,0,1,,,,,,,,,,,,,,,,,,,,,,,,,,,,,,,,,,,,,,,
,,,,,,,,2023-08-06_08h39.12.676,HF_wild_card,2022.2.4,MacIntel,59.98080614,62c4590804317dc197ecbe8a,64ce5acb97489d65b14ecc7a,64cf4b81716b77357ff7deba,,,,,,,ctch,resources/DY.BMP,resources/DP.BMP,Door4,-0.296809038,-0.00487015,1,0,0,4.5451,optionLeft,60,2970,2,10,0,10,0,1,,,,,,,,,,,,,,,,,,,,,,,,,,,,,,,,,,,,,,,
,,,,,,,,2023-08-06_08h39.12.676,HF_wild_card,2022.2.4,MacIntel,59.98080614,62c4590804317dc197ecbe8a,64ce5acb97489d65b14ecc7a,64cf4b81716b77357ff7deba,,,,,,,decisionTrl,resources/DP.BMP,resources/DG.BMP,WildCard_NonEx,0.368331061,-0.043731954,1,0,0,4.6929,optionRight,55,3025,2,11,0,11,0,1,,,,,,,,,,,,,,,,,,,,,,,,,,,,,,,,,,,,,,,
,,,,,,,,2023-08-06_08h39.12.676,HF_wild_card,2022.2.4,MacIntel,59.98080614,62c4590804317dc197ecbe8a,64ce5acb97489d65b14ecc7a,64cf4b81716b77357ff7deba,,,,,,,decisionTrl,resources/DG.BMP,resources/DP.BMP,WildCard_NonEx,-0.329406844,-0.005664772,1,0,0,3.1682,optionLeft,45,3070,2,12,0,12,0,1,,,,,,,,,,,,,,,,,,,,,,,,,,,,,,,,,,,,,,,
,,,,,,,,2023-08-06_08h39.12.676,HF_wild_card,2022.2.4,MacIntel,59.98080614,62c4590804317dc197ecbe8a,64ce5acb97489d65b14ecc7a,64cf4b81716b77357ff7deba,,,,,,,ctch,resources/DR.BMP,resources/DB.BMP,Door3,0.412846459,-0.064809375,1,0,0,3.5879,optionRight,70,3140,2,13,0,13,0,1,,,,,,,,,,,,,,,,,,,,,,,,,,,,,,,,,,,,,,,
,,,,,,,,2023-08-06_08h39.12.676,HF_wild_card,2022.2.4,MacIntel,59.98080614,62c4590804317dc197ecbe8a,64ce5acb97489d65b14ecc7a,64cf4b81716b77357ff7deba,,,,,,,decisionTrl,resources/DR.BMP,resources/DG.BMP,WildCard_NonEx,0.363937378,-0.043769519,1,0,0,4.2804,optionRight,45,3185,2,14,0,14,0,1,,,,,,,,,,,,,,,,,,,,,,,,,,,,,,,,,,,,,,,
,,,,,,,,2023-08-06_08h39.12.676,HF_wild_card,2022.2.4,MacIntel,59.98080614,62c4590804317dc197ecbe8a,64ce5acb97489d65b14ecc7a,64cf4b81716b77357ff7deba,,,,,,,decisionTrl,resources/DG.BMP,resources/DR.BMP,WildCard_NonEx,-0.345326583,-0.023530483,1,0,0,5.9806,optionLeft,45,3230,2,15,0,15,0,1,,,,,,,,,,,,,,,,,,,,,,,,,,,,,,,,,,,,,,,
,,,,,,,,2023-08-06_08h39.12.676,HF_wild_card,2022.2.4,MacIntel,59.98080614,62c4590804317dc197ecbe8a,64ce5acb97489d65b14ecc7a,64cf4b81716b77357ff7deba,,,,,,,ctch,resources/DR.BMP,resources/DB.BMP,Door3,0.350480398,-0.05055968,1,0,0,1.6,optionRight,70,3300,2,16,0,16,0,1,,,,,,,,,,,,,,,,,,,,,,,,,,,,,,,,,,,,,,,
,,,,,,,,2023-08-06_08h39.12.676,HF_wild_card,2022.2.4,MacIntel,59.98080614,62c4590804317dc197ecbe8a,64ce5acb97489d65b14ecc7a,64cf4b81716b77357ff7deba,,,,,,,decisionTrl,resources/DP.BMP,resources/DR.BMP,Door1,-0.348249753,-0.002131939,1,0,0,4.7704,optionLeft,30,3330,2,17,0,17,0,1,,,,,,,,,,,,,,,,,,,,,,,,,,,,,,,,,,,,,,,
,,,,,,,,2023-08-06_08h39.12.676,HF_wild_card,2022.2.4,MacIntel,59.98080614,62c4590804317dc197ecbe8a,64ce5acb97489d65b14ecc7a,64cf4b81716b77357ff7deba,,,,,,,decisionTrl,resources/DY.BMP,resources/DB.BMP,Door4,-0.419097053,-0.000650088,1,0,0,6.0307,optionLeft,60,3390,2,18,0,18,0,1,,,,,,,,,,,,,,,,,,,,,,,,,,,,,,,,,,,,,,,
,,,,,,,,2023-08-06_08h39.12.676,HF_wild_card,2022.2.4,MacIntel,59.98080614,62c4590804317dc197ecbe8a,64ce5acb97489d65b14ecc7a,64cf4b81716b77357ff7deba,,,,,,,decisionTrl,resources/DY.BMP,resources/DB.BMP,Door3,0.421818839,-0.041728708,1,0,0,2.9657,optionRight,70,3460,2,19,0,19,0,1,,,,,,,,,,,,,,,,,,,,,,,,,,,,,,,,,,,,,,,
,,,,,,,,2023-08-06_08h39.12.676,HF_wild_card,2022.2.4,MacIntel,59.98080614,62c4590804317dc197ecbe8a,64ce5acb97489d65b14ecc7a,64cf4b81716b77357ff7deba,,,,,,,decisionTrl,resources/DR.BMP,resources/DP.BMP,Door1,0.338517083,-0.031386428,1,0,0,4.5047,optionRight,30,3490,2,20,0,20,0,1,,,,,,,,,,,,,,,,,,,,,,,,,,,,,,,,,,,,,,,
,,,,,,,,2023-08-06_08h39.12.676,HF_wild_card,2022.2.4,MacIntel,59.98080614,62c4590804317dc197ecbe8a,64ce5acb97489d65b14ecc7a,64cf4b81716b77357ff7deba,,,,,,,decisionTrl,resources/DP.BMP,resources/DR.BMP,Door1,-0.403431998,-0.007258892,1,0,0,2.1604,optionLeft,30,3520,2,21,0,21,0,1,,,,,,,,,,,,,,,,,,,,,,,,,,,,,,,,,,,,,,,
,,,,,,,,2023-08-06_08h39.12.676,HF_wild_card,2022.2.4,MacIntel,59.98080614,62c4590804317dc197ecbe8a,64ce5acb97489d65b14ecc7a,64cf4b81716b77357ff7deba,,,,,,,sngl,resources/DG.BMP,resources/Empty.png,WildCard_NonEx,-0.281211641,0.000248008,1,0,0,1.5144,optionLeft,55,3575,2,22,0,22,0,1,,,,,,,,,,,,,,,,,,,,,,,,,,,,,,,,,,,,,,,
,,,,,,,,2023-08-06_08h39.12.676,HF_wild_card,2022.2.4,MacIntel,59.98080614,62c4590804317dc197ecbe8a,64ce5acb97489d65b14ecc7a,64cf4b81716b77357ff7deba,,,,,,,decisionTrl,resources/DY.BMP,resources/DG.BMP,Door4,-0.386523883,-0.003381358,1,0,0,2.4906,optionLeft,60,3635,2,23,0,23,0,1,,,,,,,,,,,,,,,,,,,,,,,,,,,,,,,,,,,,,,,
,,,,,,,,2023-08-06_08h39.12.676,HF_wild_card,2022.2.4,MacIntel,59.98080614,62c4590804317dc197ecbe8a,64ce5acb97489d65b14ecc7a,64cf4b81716b77357ff7deba,,,,,,,sngl,resources/DB.BMP,resources/Empty.png,Door3,-0.401490529,-0.032793734,1,0,0,1.382,optionLeft,70,3705,2,24,0,24,0,1,,,,,,,,,,,,,,,,,,,,,,,,,,,,,,,,,,,,,,,
,,,,,,,,2023-08-06_08h39.12.676,HF_wild_card,2022.2.4,MacIntel,59.98080614,62c4590804317dc197ecbe8a,64ce5acb97489d65b14ecc7a,64cf4b81716b77357ff7deba,,,,,,,sngl,resources/Empty.png,resources/DG.BMP,WildCard_NonEx,0.386255794,-0.020323753,1,0,0,2.3456,optionRight,45,3750,2,25,0,25,0,1,,,,,,,,,,,,,,,,,,,,,,,,,,,,,,,,,,,,,,,
,,,,,,,,2023-08-06_08h39.12.676,HF_wild_card,2022.2.4,MacIntel,59.98080614,62c4590804317dc197ecbe8a,64ce5acb97489d65b14ecc7a,64cf4b81716b77357ff7deba,,,,,,,decisionTrl,resources/DB.BMP,resources/DY.BMP,Door4,0.375482983,-0.033374204,1,0,0,5.8779,optionRight,60,3810,2,26,0,26,0,1,,,,,,,,,,,,,,,,,,,,,,,,,,,,,,,,,,,,,,,
,,,,,,,,2023-08-06_08h39.12.676,HF_wild_card,2022.2.4,MacIntel,59.98080614,62c4590804317dc197ecbe8a,64ce5acb97489d65b14ecc7a,64cf4b81716b77357ff7deba,,,,,,,decisionTrl,resources/DB.BMP,resources/DY.BMP,Door3,-0.423692915,-0.031724665,1,0,0,1.7709,optionLeft,70,3880,2,27,0,27,0,1,,,,,,,,,,,,,,,,,,,,,,,,,,,,,,,,,,,,,,,
,,,,,,,,2023-08-06_08h39.12.676,HF_wild_card,2022.2.4,MacIntel,59.98080614,62c4590804317dc197ecbe8a,64ce5acb97489d65b14ecc7a,64cf4b81716b77357ff7deba,,,,,,,ctch,resources/DP.BMP,resources/DY.BMP,Door4,0.358879619,-0.012414667,1,0,0,8.623,optionRight,80,3960,2,28,0,28,0,1,,,,,,,,,,,,,,,,,,,,,,,,,,,,,,,,,,,,,,,
,,,,,,,,2023-08-06_08h39.12.676,HF_wild_card,2022.2.4,MacIntel,59.98080614,62c4590804317dc197ecbe8a,64ce5acb97489d65b14ecc7a,64cf4b81716b77357ff7deba,,,,,,,decisionTrl,resources/DG.BMP,resources/DB.BMP,Door3,0.450311767,-0.031229973,1,0,0,3.4835,optionRight,70,4030,2,29,0,29,0,1,,,,,,,,,,,,,,,,,,,,,,,,,,,,,,,,,,,,,,,
,,,,,,,,2023-08-06_08h39.12.676,HF_wild_card,2022.2.4,MacIntel,59.98080614,62c4590804317dc197ecbe8a,64ce5acb97489d65b14ecc7a,64cf4b81716b77357ff7deba,,,,,,,ctch,resources/DB.BMP,resources/DR.BMP,Door3,-0.339330673,-0.029662026,1,0,0,3.6552,optionLeft,70,4100,2,30,0,30,0,1,,,,,,,,,,,,,,,,,,,,,,,,,,,,,,,,,,,,,,,
,,,,,,,,2023-08-06_08h39.12.676,HF_wild_card,2022.2.4,MacIntel,59.98080614,62c4590804317dc197ecbe8a,64ce5acb97489d65b14ecc7a,64cf4b81716b77357ff7deba,,,,,,,decisionTrl,resources/DY.BMP,resources/DB.BMP,Door4,-0.33678484,0.006226752,1,0,0,3.012,optionLeft,80,4180,2,31,0,31,0,1,,,,,,,,,,,,,,,,,,,,,,,,,,,,,,,,,,,,,,,
,,,,,,,,2023-08-06_08h39.12.676,HF_wild_card,2022.2.4,MacIntel,59.98080614,62c4590804317dc197ecbe8a,64ce5acb97489d65b14ecc7a,64cf4b81716b77357ff7deba,,,,,,,sngl,resources/Empty.png,resources/DB.BMP,Door3,0.325091786,-0.050828669,1,0,0,1.8155,optionRight,70,4250,2,32,0,32,0,1,,,,,,,,,,,,,,,,,,,,,,,,,,,,,,,,,,,,,,,
,,,,,,,,2023-08-06_08h39.12.676,HF_wild_card,2022.2.4,MacIntel,59.98080614,62c4590804317dc197ecbe8a,64ce5acb97489d65b14ecc7a,64cf4b81716b77357ff7deba,,,,,,,decisionTrl,resources/DB.BMP,resources/DG.BMP,Door3,-0.301851696,0.006630633,1,0,0,4.3407,optionLeft,70,4320,2,33,0,33,0,1,,,,,,,,,,,,,,,,,,,,,,,,,,,,,,,,,,,,,,,
,,,,,,,,2023-08-06_08h39.12.676,HF_wild_card,2022.2.4,MacIntel,59.98080614,62c4590804317dc197ecbe8a,64ce5acb97489d65b14ecc7a,64cf4b81716b77357ff7deba,,,,,,,decisionTrl,resources/DR.BMP,resources/DP.BMP,Door1,0.444940885,-0.02713675,1,0,0,5.268,optionRight,30,4350,2,34,0,34,0,1,,,,,,,,,,,,,,,,,,,,,,,,,,,,,,,,,,,,,,,
,,,,,,,,2023-08-06_08h39.12.676,HF_wild_card,2022.2.4,MacIntel,59.98080614,62c4590804317dc197ecbe8a,64ce5acb97489d65b14ecc7a,64cf4b81716b77357ff7deba,,,,,,,decisionTrl,resources/DR.BMP,resources/DP.BMP,Door1,0.345140563,-0.053764608,1,0,0,2.4805,optionRight,30,4380,2,35,0,35,0,1,,,,,,,,,,,,,,,,,,,,,,,,,,,,,,,,,,,,,,,
,,,,,,,,2023-08-06_08h39.12.676,HF_wild_card,2022.2.4,MacIntel,59.98080614,62c4590804317dc197ecbe8a,64ce5acb97489d65b14ecc7a,64cf4b81716b77357ff7deba,,,,,,,sngl,resources/DG.BMP,resources/Empty.png,WildCard_NonEx,-0.368423727,-0.021331575,1,0,0,6.0315,optionLeft,45,4425,2,36,0,36,0,1,,,,,,,,,,,,,,,,,,,,,,,,,,,,,,,,,,,,,,,
,,,,,,,,2023-08-06_08h39.12.676,HF_wild_card,2022.2.4,MacIntel,59.98080614,62c4590804317dc197ecbe8a,64ce5acb97489d65b14ecc7a,64cf4b81716b77357ff7deba,,,,,,,decisionTrl,resources/DP.BMP,resources/DR.BMP,Door1,-0.361923589,0.020420021,1,0,0,5.1252,optionLeft,30,4455,2,37,0,37,0,1,,,,,,,,,,,,,,,,,,,,,,,,,,,,,,,,,,,,,,,
,,,,,,,,2023-08-06_08h39.12.676,HF_wild_card,2022.2.4,MacIntel,59.98080614,62c4590804317dc197ecbe8a,64ce5acb97489d65b14ecc7a,64cf4b81716b77357ff7deba,,,,,,,ctch,resources/DY.BMP,resources/DP.BMP,Door4,-0.39879889,-0.007634852,1,0,0,4.823,optionLeft,80,4535,2,38,0,38,0,1,,,,,,,,,,,,,,,,,,,,,,,,,,,,,,,,,,,,,,,
,,,,,,,,2023-08-06_08h39.12.676,HF_wild_card,2022.2.4,MacIntel,59.98080614,62c4590804317dc197ecbe8a,64ce5acb97489d65b14ecc7a,64cf4b81716b77357ff7deba,,,,,,,decisionTrl,resources/DR.BMP,resources/DP.BMP,Door1,0.367570665,-0.04566235,1,0,0,1.7513,optionRight,30,4565,2,39,0,39,0,1,,,,,,,,,,,,,,,,,,,,,,,,,,,,,,,,,,,,,,,
,,,,,,,,2023-08-06_08h39.12.676,HF_wild_card,2022.2.4,MacIntel,59.98080614,62c4590804317dc197ecbe8a,64ce5acb97489d65b14ecc7a,64cf4b81716b77357ff7deba,,,,,,,decisionTrl,resources/DB.BMP,resources/DY.BMP,Door4,0.379697164,-0.039135668,1,0,0,6.284,optionRight,60,4625,2,40,0,40,0,1,,,,,,,,,,,,,,,,,,,,,,,,,,,,,,,,,,,,,,,
,,,,,,,,2023-08-06_08h39.12.676,HF_wild_card,2022.2.4,MacIntel,59.98080614,62c4590804317dc197ecbe8a,64ce5acb97489d65b14ecc7a,64cf4b81716b77357ff7deba,,,,,,,sngl,resources/Empty.png,resources/DY.BMP,Door4,0.434369723,-0.048760891,1,0,0,2.0294,optionRight,80,4705,2,41,0,41,0,1,,,,,,,,,,,,,,,,,,,,,,,,,,,,,,,,,,,,,,,
,,,,,,,,2023-08-06_08h39.12.676,HF_wild_card,2022.2.4,MacIntel,59.98080614,62c4590804317dc197ecbe8a,64ce5acb97489d65b14ecc7a,64cf4b81716b77357ff7deba,,,,,,,decisionTrl,resources/DY.BMP,resources/DB.BMP,Door3,0.33234893,-0.008928776,1,0,0,2.9682,optionRight,70,4775,2,42,0,42,0,1,,,,,,,,,,,,,,,,,,,,,,,,,,,,,,,,,,,,,,,
,,,,,,,,2023-08-06_08h39.12.676,HF_wild_card,2022.2.4,MacIntel,59.98080614,62c4590804317dc197ecbe8a,64ce5acb97489d65b14ecc7a,64cf4b81716b77357ff7deba,,,,,,,decisionTrl,resources/DB.BMP,resources/DY.BMP,Door3,-0.331833045,-0.009402752,1,0,0,6.1503,optionLeft,70,4845,2,43,0,43,0,1,,,,,,,,,,,,,,,,,,,,,,,,,,,,,,,,,,,,,,,
,,,,,,,,2023-08-06_08h39.12.676,HF_wild_card,2022.2.4,MacIntel,59.98080614,62c4590804317dc197ecbe8a,64ce5acb97489d65b14ecc7a,64cf4b81716b77357ff7deba,,,,,,,,,,,,,,,,,,,,,,,,,,1,0,1,0,1,,,,,,,,,,,,,,,,,,,,,,,,,,,,,,,,,,
,,,,,,,,2023-08-06_08h39.12.676,HF_wild_card,2022.2.4,MacIntel,59.98080614,62c4590804317dc197ecbe8a,64ce5acb97489d65b14ecc7a,64cf4b81716b77357ff7deba,,,,,,,sngl,resources/Empty.png,resources/DR.BMP,Door2,0.346557935,-0.136960347,1,0,0,8.745,optionRight,20,4865,3,0,0,0,0,1,,,,,,,,,,,,,,,,,,,,,,,,,,,,,,,,,,,,,,,
,,,,,,,,2023-08-06_08h39.12.676,HF_wild_card,2022.2.4,MacIntel,59.98080614,62c4590804317dc197ecbe8a,64ce5acb97489d65b14ecc7a,64cf4b81716b77357ff7deba,,,,,,,decisionTrl,resources/DB.BMP,resources/DG.BMP,Door3,-0.407563051,-0.012490696,1,0,0,3.8472,optionLeft,70,4935,3,1,0,1,0,1,,,,,,,,,,,,,,,,,,,,,,,,,,,,,,,,,,,,,,,
,,,,,,,,2023-08-06_08h39.12.676,HF_wild_card,2022.2.4,MacIntel,59.98080614,62c4590804317dc197ecbe8a,64ce5acb97489d65b14ecc7a,64cf4b81716b77357ff7deba,,,,,,,decisionTrl,resources/DP.BMP,resources/DR.BMP,Door2,0.350778686,-0.066838264,1,0,0,6.8202,optionRight,40,4975,3,2,0,2,0,1,,,,,,,,,,,,,,,,,,,,,,,,,,,,,,,,,,,,,,,
,,,,,,,,2023-08-06_08h39.12.676,HF_wild_card,2022.2.4,MacIntel,59.98080614,62c4590804317dc197ecbe8a,64ce5acb97489d65b14ecc7a,64cf4b81716b77357ff7deba,,,,,,,decisionTrl,resources/DY.BMP,resources/DB.BMP,Door3,0.334598011,-0.025886959,1,0,0,4.7613,optionRight,70,5045,3,3,0,3,0,1,,,,,,,,,,,,,,,,,,,,,,,,,,,,,,,,,,,,,,,
,,,,,,,,2023-08-06_08h39.12.676,HF_wild_card,2022.2.4,MacIntel,59.98080614,62c4590804317dc197ecbe8a,64ce5acb97489d65b14ecc7a,64cf4b81716b77357ff7deba,,,,,,,sngl,resources/DG.BMP,resources/Empty.png,WildCard_NonEx,-0.368017726,-0.017363654,1,0,0,1.9292,optionLeft,55,5100,3,4,0,4,0,1,,,,,,,,,,,,,,,,,,,,,,,,,,,,,,,,,,,,,,,
,,,,,,,,2023-08-06_08h39.12.676,HF_wild_card,2022.2.4,MacIntel,59.98080614,62c4590804317dc197ecbe8a,64ce5acb97489d65b14ecc7a,64cf4b81716b77357ff7deba,,,,,,,ctch,resources/DY.BMP,resources/DP.BMP,Door4,-0.390405337,-0.02681764,1,0,0,4.4778,optionLeft,80,5180,3,5,0,5,0,1,,,,,,,,,,,,,,,,,,,,,,,,,,,,,,,,,,,,,,,
,,,,,,,,2023-08-06_08h39.12.676,HF_wild_card,2022.2.4,MacIntel,59.98080614,62c4590804317dc197ecbe8a,64ce5acb97489d65b14ecc7a,64cf4b81716b77357ff7deba,,,,,,,sngl,resources/Empty.png,resources/DP.BMP,Door1,0.367851045,-0.031914446,1,0,0,1.7676,optionRight,30,5210,3,6,0,6,0,1,,,,,,,,,,,,,,,,,,,,,,,,,,,,,,,,,,,,,,,
,,,,,,,,2023-08-06_08h39.12.676,HF_wild_card,2022.2.4,MacIntel,59.98080614,62c4590804317dc197ecbe8a,64ce5acb97489d65b14ecc7a,64cf4b81716b77357ff7deba,,,,,,,decisionTrl,resources/DR.BMP,resources/DG.BMP,WildCard_NonEx,0.38430447,-0.0145998,1,0,0,6.8635,optionRight,45,5255,3,7,0,7,0,1,,,,,,,,,,,,,,,,,,,,,,,,,,,,,,,,,,,,,,,
,,,,,,,,2023-08-06_08h39.12.676,HF_wild_card,2022.2.4,MacIntel,59.98080614,62c4590804317dc197ecbe8a,64ce5acb97489d65b14ecc7a,64cf4b81716b77357ff7deba,,,,,,,decisionTrl,resources/DB.BMP,resources/DY.BMP,Door3,-0.394358317,0.006937133,1,0,0,8.5753,optionLeft,70,5325,3,8,0,8,0,1,,,,,,,,,,,,,,,,,,,,,,,,,,,,,,,,,,,,,,,
,,,,,,,,2023-08-06_08h39.12.676,HF_wild_card,2022.2.4,MacIntel,59.98080614,62c4590804317dc197ecbe8a,64ce5acb97489d65b14ecc7a,64cf4b81716b77357ff7deba,,,,,,,ctch,resources/DB.BMP,resources/DR.BMP,Door3,-0.31131596,-0.00238461,1,0,0,2.8563,optionLeft,70,5395,3,9,0,9,0,1,,,,,,,,,,,,,,,,,,,,,,,,,,,,,,,,,,,,,,,
,,,,,,,,2023-08-06_08h39.12.676,HF_wild_card,2022.2.4,MacIntel,59.98080614,62c4590804317dc197ecbe8a,64ce5acb97489d65b14ecc7a,64cf4b81716b77357ff7deba,,,,,,,decisionTrl,resources/DP.BMP,resources/DR.BMP,Door2,0.356926176,-0.055564139,1,0,0,4.4457,optionRight,20,5415,3,10,0,10,0,1,,,,,,,,,,,,,,,,,,,,,,,,,,,,,,,,,,,,,,,
,,,,,,,,2023-08-06_08h39.12.676,HF_wild_card,2022.2.4,MacIntel,59.98080614,62c4590804317dc197ecbe8a,64ce5acb97489d65b14ecc7a,64cf4b81716b77357ff7deba,,,,,,,sngl,resources/Empty.png,resources/DG.BMP,WildCard_NonEx,0.334131241,-0.029865424,1,0,0,1.0869,optionRight,45,5460,3,11,0,11,0,1,,,,,,,,,,,,,,,,,,,,,,,,,,,,,,,,,,,,,,,
,,,,,,,,2023-08-06_08h39.12.676,HF_wild_card,2022.2.4,MacIntel,59.98080614,62c4590804317dc197ecbe8a,64ce5acb97489d65b14ecc7a,64cf4b81716b77357ff7deba,,,,,,,decisionTrl,resources/DG.BMP,resources/DB.BMP,Door3,0.374302016,-0.023913278,1,0,0,3.1948,optionRight,70,5530,3,12,0,12,0,1,,,,,,,,,,,,,,,,,,,,,,,,,,,,,,,,,,,,,,,
,,,,,,,,2023-08-06_08h39.12.676,HF_wild_card,2022.2.4,MacIntel,59.98080614,62c4590804317dc197ecbe8a,64ce5acb97489d65b14ecc7a,64cf4b81716b77357ff7deba,,,,,,,decisionTrl,resources/DB.BMP,resources/DY.BMP,Door3,-0.351941109,-0.003938569,1,0,0,1.8233,optionLeft,70,5600,3,13,0,13,0,1,,,,,,,,,,,,,,,,,,,,,,,,,,,,,,,,,,,,,,,
,,,,,,,,2023-08-06_08h39.12.676,HF_wild_card,2022.2.4,MacIntel,59.98080614,62c4590804317dc197ecbe8a,64ce5acb97489d65b14ecc7a,64cf4b81716b77357ff7deba,,,,,,,decisionTrl,resources/DG.BMP,resources/DP.BMP,WildCard_NonEx,-0.326581743,-0.018280612,1,0,0,6.264,optionLeft,45,5645,3,14,0,14,0,1,,,,,,,,,,,,,,,,,,,,,,,,,,,,,,,,,,,,,,,
,,,,,,,,2023-08-06_08h39.12.676,HF_wild_card,2022.2.4,MacIntel,59.98080614,62c4590804317dc197ecbe8a,64ce5acb97489d65b14ecc7a,64cf4b81716b77357ff7deba,,,,,,,ctch,resources/DP.BMP,resources/DY.BMP,Door4,0.382867389,-0.030582216,1,0,0,4.4203,optionRight,80,5725,3,15,0,15,0,1,,,,,,,,,,,,,,,,,,,,,,,,,,,,,,,,,,,,,,,
,,,,,,,,2023-08-06_08h39.12.676,HF_wild_card,2022.2.4,MacIntel,59.98080614,62c4590804317dc197ecbe8a,64ce5acb97489d65b14ecc7a,64cf4b81716b77357ff7deba,,,,,,,decisionTrl,resources/DR.BMP,resources/DP.BMP,Door2,-0.391414695,-0.031745858,1,0,0,5.8724,optionLeft,20,5745,3,16,0,16,0,1,,,,,,,,,,,,,,,,,,,,,,,,,,,,,,,,,,,,,,,
,,,,,,,,2023-08-06_08h39.12.676,HF_wild_card,2022.2.4,MacIntel,59.98080614,62c4590804317dc197ecbe8a,64ce5acb97489d65b14ecc7a,64cf4b81716b77357ff7deba,,,,,,,decisionTrl,resources/DY.BMP,resources/DG.BMP,Door4,-0.357301924,0.004848215,1,0,0,1.8588,optionLeft,60,5805,3,17,0,17,0,1,,,,,,,,,,,,,,,,,,,,,,,,,,,,,,,,,,,,,,,
,,,,,,,,2023-08-06_08h39.12.676,HF_wild_card,2022.2.4,MacIntel,59.98080614,62c4590804317dc197ecbe8a,64ce5acb97489d65b14ecc7a,64cf4b81716b77357ff7deba,,,,,,,sngl,resources/Empty.png,resources/DB.BMP,Door3,0.257400937,-0.011331505,1,0,0,1.7689,optionRight,70,5875,3,18,0,18,0,1,,,,,,,,,,,,,,,,,,,,,,,,,,,,,,,,,,,,,,,
,,,,,,,,2023-08-06_08h39.12.676,HF_wild_card,2022.2.4,MacIntel,59.98080614,62c4590804317dc197ecbe8a,64ce5acb97489d65b14ecc7a,64cf4b81716b77357ff7deba,,,,,,,decisionTrl,resources/DP.BMP,resources/DR.BMP,Door1,-0.333870888,-0.008948644,1,0,0,6.6434,optionLeft,30,5905,3,19,0,19,0,1,,,,,,,,,,,,,,,,,,,,,,,,,,,,,,,,,,,,,,,
,,,,,,,,2023-08-06_08h39.12.676,HF_wild_card,2022.2.4,MacIntel,59.98080614,62c4590804317dc197ecbe8a,64ce5acb97489d65b14ecc7a,64cf4b81716b77357ff7deba,,,,,,,decisionTrl,resources/DP.BMP,resources/DR.BMP,Door2,0.362827725,-0.019824929,1,0,0,2.7826,optionRight,40,5945,3,20,0,20,0,1,,,,,,,,,,,,,,,,,,,,,,,,,,,,,,,,,,,,,,,
,,,,,,,,2023-08-06_08h39.12.676,HF_wild_card,2022.2.4,MacIntel,59.98080614,62c4590804317dc197ecbe8a,64ce5acb97489d65b14ecc7a,64cf4b81716b77357ff7deba,,,,,,,decisionTrl,resources/DR.BMP,resources/DP.BMP,Door1,0.380576875,-0.050033887,1,0,0,2.6331,optionRight,30,5975,3,21,0,21,0,1,,,,,,,,,,,,,,,,,,,,,,,,,,,,,,,,,,,,,,,
,,,,,,,,2023-08-06_08h39.12.676,HF_wild_card,2022.2.4,MacIntel,59.98080614,62c4590804317dc197ecbe8a,64ce5acb97489d65b14ecc7a,64cf4b81716b77357ff7deba,,,,,,,ctch,resources/DR.BMP,resources/DB.BMP,Door3,0.323648665,-0.042925252,1,0,0,2.1371,optionRight,70,6045,3,22,0,22,0,1,,,,,,,,,,,,,,,,,,,,,,,,,,,,,,,,,,,,,,,
,,,,,,,,2023-08-06_08h39.12.676,HF_wild_card,2022.2.4,MacIntel,59.98080614,62c4590804317dc197ecbe8a,64ce5acb97489d65b14ecc7a,64cf4b81716b77357ff7deba,,,,,,,sngl,resources/DP.BMP,resources/Empty.png,Door1,-0.346410275,-0.011734486,1,0,0,1.4472,optionLeft,30,6075,3,23,0,23,0,1,,,,,,,,,,,,,,,,,,,,,,,,,,,,,,,,,,,,,,,
,,,,,,,,2023-08-06_08h39.12.676,HF_wild_card,2022.2.4,MacIntel,59.98080614,62c4590804317dc197ecbe8a,64ce5acb97489d65b14ecc7a,64cf4b81716b77357ff7deba,,,,,,,decisionTrl,resources/DB.BMP,resources/DY.BMP,Door4,0.391797807,-0.060600864,1,0,0,4.1802,optionRight,60,6135,3,24,0,24,0,1,,,,,,,,,,,,,,,,,,,,,,,,,,,,,,,,,,,,,,,
,,,,,,,,2023-08-06_08h39.12.676,HF_wild_card,2022.2.4,MacIntel,59.98080614,62c4590804317dc197ecbe8a,64ce5acb97489d65b14ecc7a,64cf4b81716b77357ff7deba,,,,,,,decisionTrl,resources/DG.BMP,resources/DR.BMP,WildCard_NonEx,-0.321363873,-0.019138071,1,0,0,4.1461,optionLeft,45,6180,3,25,0,25,0,1,,,,,,,,,,,,,,,,,,,,,,,,,,,,,,,,,,,,,,,
,,,,,,,,2023-08-06_08h39.12.676,HF_wild_card,2022.2.4,MacIntel,59.98080614,62c4590804317dc197ecbe8a,64ce5acb97489d65b14ecc7a,64cf4b81716b77357ff7deba,,,,,,,decisionTrl,resources/DY.BMP,resources/DB.BMP,Door3,0.300013648,-0.024603155,1,0,0,3.9762,optionRight,70,6250,3,26,0,26,0,1,,,,,,,,,,,,,,,,,,,,,,,,,,,,,,,,,,,,,,,
,,,,,,,,2023-08-06_08h39.12.676,HF_wild_card,2022.2.4,MacIntel,59.98080614,62c4590804317dc197ecbe8a,64ce5acb97489d65b14ecc7a,64cf4b81716b77357ff7deba,,,,,,,decisionTrl,resources/DP.BMP,resources/DG.BMP,WildCard_NonEx,0.436312358,-0.050268067,1,0,0,7.7528,optionRight,45,6295,3,27,0,27,0,1,,,,,,,,,,,,,,,,,,,,,,,,,,,,,,,,,,,,,,,
,,,,,,,,2023-08-06_08h39.12.676,HF_wild_card,2022.2.4,MacIntel,59.98080614,62c4590804317dc197ecbe8a,64ce5acb97489d65b14ecc7a,64cf4b81716b77357ff7deba,,,,,,,sngl,resources/DG.BMP,resources/Empty.png,WildCard_NonEx,-0.399147193,0.008186499,1,0,0,1.4052,optionLeft,45,6340,3,28,0,28,0,1,,,,,,,,,,,,,,,,,,,,,,,,,,,,,,,,,,,,,,,
,,,,,,,,2023-08-06_08h39.12.676,HF_wild_card,2022.2.4,MacIntel,59.98080614,62c4590804317dc197ecbe8a,64ce5acb97489d65b14ecc7a,64cf4b81716b77357ff7deba,,,,,,,ctch,resources/DP.BMP,resources/DY.BMP,Door4,0.340479003,-0.039973524,1,0,0,1.8287,optionRight,80,6420,3,29,0,29,0,1,,,,,,,,,,,,,,,,,,,,,,,,,,,,,,,,,,,,,,,
,,,,,,,,2023-08-06_08h39.12.676,HF_wild_card,2022.2.4,MacIntel,59.98080614,62c4590804317dc197ecbe8a,64ce5acb97489d65b14ecc7a,64cf4b81716b77357ff7deba,,,,,,,sngl,resources/DY.BMP,resources/Empty.png,Door4,-0.289089945,-0.023581346,1,0,0,0.9974,optionLeft,80,6500,3,30,0,30,0,1,,,,,,,,,,,,,,,,,,,,,,,,,,,,,,,,,,,,,,,
,,,,,,,,2023-08-06_08h39.12.676,HF_wild_card,2022.2.4,MacIntel,59.98080614,62c4590804317dc197ecbe8a,64ce5acb97489d65b14ecc7a,64cf4b81716b77357ff7deba,,,,,,,decisionTrl,resources/DY.BMP,resources/DB.BMP,Door4,-0.318297492,-0.004997465,1,0,0,2.153,optionLeft,60,6560,3,31,0,31,0,1,,,,,,,,,,,,,,,,,,,,,,,,,,,,,,,,,,,,,,,
,,,,,,,,2023-08-06_08h39.12.676,HF_wild_card,2022.2.4,MacIntel,59.98080614,62c4590804317dc197ecbe8a,64ce5acb97489d65b14ecc7a,64cf4b81716b77357ff7deba,,,,,,,decisionTrl,resources/DB.BMP,resources/DY.BMP,Door4,0.366040442,-0.037671672,1,0,0,4.4653,optionRight,80,6640,3,32,0,32,0,1,,,,,,,,,,,,,,,,,,,,,,,,,,,,,,,,,,,,,,,
,,,,,,,,2023-08-06_08h39.12.676,HF_wild_card,2022.2.4,MacIntel,59.98080614,62c4590804317dc197ecbe8a,64ce5acb97489d65b14ecc7a,64cf4b81716b77357ff7deba,,,,,,,ctch,resources/DR.BMP,resources/DB.BMP,Door3,0.344007068,-0.020984173,1,0,0,2.1327,optionRight,70,6710,3,33,0,33,0,1,,,,,,,,,,,,,,,,,,,,,,,,,,,,,,,,,,,,,,,
,,,,,,,,2023-08-06_08h39.12.676,HF_wild_card,2022.2.4,MacIntel,59.98080614,62c4590804317dc197ecbe8a,64ce5acb97489d65b14ecc7a,64cf4b81716b77357ff7deba,,,,,,,decisionTrl,resources/DR.BMP,resources/DP.BMP,Door1,0.391909917,-0.019239902,1,0,0,5.6804,optionRight,30,6740,3,34,0,34,0,1,,,,,,,,,,,,,,,,,,,,,,,,,,,,,,,,,,,,,,,
,,,,,,,,2023-08-06_08h39.12.676,HF_wild_card,2022.2.4,MacIntel,59.98080614,62c4590804317dc197ecbe8a,64ce5acb97489d65b14ecc7a,64cf4b81716b77357ff7deba,,,,,,,ctch,resources/DB.BMP,resources/DR.BMP,Door3,-0.379840427,-0.004681587,1,0,0,1.605,optionLeft,70,6810,3,35,0,35,0,1,,,,,,,,,,,,,,,,,,,,,,,,,,,,,,,,,,,,,,,
,,,,,,,,2023-08-06_08h39.12.676,HF_wild_card,2022.2.4,MacIntel,59.98080614,62c4590804317dc197ecbe8a,64ce5acb97489d65b14ecc7a,64cf4b81716b77357ff7deba,,,,,,,sngl,resources/Empty.png,resources/DY.BMP,Door4,0.335595025,-0.031587177,1,0,0,1.1513,optionRight,60,6870,3,36,0,36,0,1,,,,,,,,,,,,,,,,,,,,,,,,,,,,,,,,,,,,,,,
,,,,,,,,2023-08-06_08h39.12.676,HF_wild_card,2022.2.4,MacIntel,59.98080614,62c4590804317dc197ecbe8a,64ce5acb97489d65b14ecc7a,64cf4b81716b77357ff7deba,,,,,,,decisionTrl,resources/DG.BMP,resources/DY.BMP,Door4,0.351376216,-0.032881631,1,0,0,1.3436,optionRight,60,6930,3,37,0,37,0,1,,,,,,,,,,,,,,,,,,,,,,,,,,,,,,,,,,,,,,,
,,,,,,,,2023-08-06_08h39.12.676,HF_wild_card,2022.2.4,MacIntel,59.98080614,62c4590804317dc197ecbe8a,64ce5acb97489d65b14ecc7a,64cf4b81716b77357ff7deba,,,,,,,decisionTrl,resources/DR.BMP,resources/DP.BMP,Door2,-0.382847892,-0.042899609,1,0,0,8.6396,optionLeft,20,6950,3,38,0,38,0,1,,,,,,,,,,,,,,,,,,,,,,,,,,,,,,,,,,,,,,,
,,,,,,,,2023-08-06_08h39.12.676,HF_wild_card,2022.2.4,MacIntel,59.98080614,62c4590804317dc197ecbe8a,64ce5acb97489d65b14ecc7a,64cf4b81716b77357ff7deba,,,,,,,ctch,resources/DY.BMP,resources/DP.BMP,Door4,-0.330735683,-0.047341135,1,0,0,3.545,optionLeft,60,7010,3,39,0,39,0,1,,,,,,,,,,,,,,,,,,,,,,,,,,,,,,,,,,,,,,,
,,,,,,,,2023-08-06_08h39.12.676,HF_wild_card,2022.2.4,MacIntel,59.98080614,62c4590804317dc197ecbe8a,64ce5acb97489d65b14ecc7a,64cf4b81716b77357ff7deba,,,,,,,sngl,resources/DB.BMP,resources/Empty.png,Door3,-0.366140895,-0.044859462,1,0,0,1.2039,optionLeft,70,7080,3,40,0,40,0,1,,,,,,,,,,,,,,,,,,,,,,,,,,,,,,,,,,,,,,,
,,,,,,,,2023-08-06_08h39.12.676,HF_wild_card,2022.2.4,MacIntel,59.98080614,62c4590804317dc197ecbe8a,64ce5acb97489d65b14ecc7a,64cf4b81716b77357ff7deba,,,,,,,sngl,resources/DR.BMP,resources/Empty.png,Door2,-0.307450136,-0.027573056,1,0,0,1.2526,optionLeft,40,7120,3,41,0,41,0,1,,,,,,,,,,,,,,,,,,,,,,,,,,,,,,,,,,,,,,,
,,,,,,,,2023-08-06_08h39.12.676,HF_wild_card,2022.2.4,MacIntel,59.98080614,62c4590804317dc197ecbe8a,64ce5acb97489d65b14ecc7a,64cf4b81716b77357ff7deba,,,,,,,decisionTrl,resources/DY.BMP,resources/DB.BMP,Door3,0.305457221,-0.027098656,1,0,0,6.2291,optionRight,70,7190,3,42,0,42,0,1,,,,,,,,,,,,,,,,,,,,,,,,,,,,,,,,,,,,,,,
,,,,,,,,2023-08-06_08h39.12.676,HF_wild_card,2022.2.4,MacIntel,59.98080614,62c4590804317dc197ecbe8a,64ce5acb97489d65b14ecc7a,64cf4b81716b77357ff7deba,,,,,,,sngl,resources/Empty.png,resources/DG.BMP,WildCard_NonEx,0.354109658,-0.059086906,1,0,0,1.6012,optionRight,55,7245,3,43,0,43,0,1,,,,,,,,,,,,,,,,,,,,,,,,,,,,,,,,,,,,,,,
,,,,,,,,2023-08-06_08h39.12.676,HF_wild_card,2022.2.4,MacIntel,59.98080614,62c4590804317dc197ecbe8a,64ce5acb97489d65b14ecc7a,64cf4b81716b77357ff7deba,,,,,,,,,,,,,,,,,,,,,,,,,,2,0,2,0,1,,,,,,,,,,,,,,,,,,,,,,,,,,,,,,,,,,
,,,,,,,,2023-08-06_08h39.12.676,HF_wild_card,2022.2.4,MacIntel,59.98080614,62c4590804317dc197ecbe8a,64ce5acb97489d65b14ecc7a,64cf4b81716b77357ff7deba,,,,,,,ctch,resources/DP.BMP,resources/DY.BMP,Door4,0.42877886,-0.104721334,1,0,0,11.1144,optionRight,80,7325,4,0,0,0,0,1,,,,,,,,,,,,,,,,,,,,,,,,,,,,,,,,,,,,,,,
,,,,,,,,2023-08-06_08h39.12.676,HF_wild_card,2022.2.4,MacIntel,59.98080614,62c4590804317dc197ecbe8a,64ce5acb97489d65b14ecc7a,64cf4b81716b77357ff7deba,,,,,,,sngl,resources/Empty.png,resources/DBN.BMP,WildCard_Ex,0.38032288,-0.070342806,1,0,0,3.4794,optionRight,95,7420,4,1,0,1,0,1,,,,,,,,,,,,,,,,,,,,,,,,,,,,,,,,,,,,,,,
,,,,,,,,2023-08-06_08h39.12.676,HF_wild_card,2022.2.4,MacIntel,59.98080614,62c4590804317dc197ecbe8a,64ce5acb97489d65b14ecc7a,64cf4b81716b77357ff7deba,,,,,,,sngl,resources/DP.BMP,resources/Empty.png,Door1,-0.372159322,-0.023947292,1,0,0,1.5578,optionLeft,30,7450,4,2,0,2,0,1,,,,,,,,,,,,,,,,,,,,,,,,,,,,,,,,,,,,,,,
,,,,,,,,2023-08-06_08h39.12.676,HF_wild_card,2022.2.4,MacIntel,59.98080614,62c4590804317dc197ecbe8a,64ce5acb97489d65b14ecc7a,64cf4b81716b77357ff7deba,,,,,,,ctch,resources/DY.BMP,resources/DP.BMP,Door4,-0.332235071,-0.004313257,1,0,0,2.0811,optionLeft,60,7510,4,3,0,3,0,1,,,,,,,,,,,,,,,,,,,,,,,,,,,,,,,,,,,,,,,
,,,,,,,,2023-08-06_08h39.12.676,HF_wild_card,2022.2.4,MacIntel,59.98080614,62c4590804317dc197ecbe8a,64ce5acb97489d65b14ecc7a,64cf4b81716b77357ff7deba,,,,,,,decisionTrl,resources/DB.BMP,resources/DY.BMP,Door4,0.341937701,-0.023276859,1,0,0,2.4896,optionRight,80,7590,4,4,0,4,0,1,,,,,,,,,,,,,,,,,,,,,,,,,,,,,,,,,,,,,,,
,,,,,,,,2023-08-06_08h39.12.676,HF_wild_card,2022.2.4,MacIntel,59.98080614,62c4590804317dc197ecbe8a,64ce5acb97489d65b14ecc7a,64cf4b81716b77357ff7deba,,,,,,,decisionTrl,resources/DY.BMP,resources/DB.BMP,Door4,-0.298579693,-0.00217104,1,0,0,5.5434,optionLeft,60,7650,4,5,0,5,0,1,,,,,,,,,,,,,,,,,,,,,,,,,,,,,,,,,,,,,,,
,,,,,,,,2023-08-06_08h39.12.676,HF_wild_card,2022.2.4,MacIntel,59.98080614,62c4590804317dc197ecbe8a,64ce5acb97489d65b14ecc7a,64cf4b81716b77357ff7deba,,,,,,,decisionTrl,resources/DBN.BMP,resources/DR.BMP,WildCard_Ex,-0.351337327,-0.000667519,1,0,0,1.7593,optionLeft,5,7655,4,6,0,6,0,1,,,,,,,,,,,,,,,,,,,,,,,,,,,,,,,,,,,,,,,
,,,,,,,,2023-08-06_08h39.12.676,HF_wild_card,2022.2.4,MacIntel,59.98080614,62c4590804317dc197ecbe8a,64ce5acb97489d65b14ecc7a,64cf4b81716b77357ff7deba,,,,,,,decisionTrl,resources/DP.BMP,resources/DR.BMP,Door1,-0.361110687,-0.012630516,1,0,0,3.1592,optionLeft,30,7685,4,7,0,7,0,1,,,,,,,,,,,,,,,,,,,,,,,,,,,,,,,,,,,,,,,
,,,,,,,,2023-08-06_08h39.12.676,HF_wild_card,2022.2.4,MacIntel,59.98080614,62c4590804317dc197ecbe8a,64ce5acb97489d65b14ecc7a,64cf4b81716b77357ff7deba,,,,,,,ctch,resources/DB.BMP,resources/DR.BMP,Door3,-0.331766129,-0.019027392,1,0,0,1.7012,optionLeft,70,7755,4,8,0,8,0,1,,,,,,,,,,,,,,,,,,,,,,,,,,,,,,,,,,,,,,,
,,,,,,,,2023-08-06_08h39.12.676,HF_wild_card,2022.2.4,MacIntel,59.98080614,62c4590804317dc197ecbe8a,64ce5acb97489d65b14ecc7a,64cf4b81716b77357ff7deba,,,,,,,decisionTrl,resources/DB.BMP,resources/DBN.BMP,Door3,-0.393454499,-0.005998982,1,0,0,6.6819,optionLeft,70,7825,4,9,0,9,0,1,,,,,,,,,,,,,,,,,,,,,,,,,,,,,,,,,,,,,,,
,,,,,,,,2023-08-06_08h39.12.676,HF_wild_card,2022.2.4,MacIntel,59.98080614,62c4590804317dc197ecbe8a,64ce5acb97489d65b14ecc7a,64cf4b81716b77357ff7deba,,,,,,,sngl,resources/Empty.png,resources/DR.BMP,Door2,0.341007339,-0.025986407,1,0,0,1.1809,optionRight,40,7865,4,10,0,10,0,1,,,,,,,,,,,,,,,,,,,,,,,,,,,,,,,,,,,,,,,
,,,,,,,,2023-08-06_08h39.12.676,HF_wild_card,2022.2.4,MacIntel,59.98080614,62c4590804317dc197ecbe8a,64ce5acb97489d65b14ecc7a,64cf4b81716b77357ff7deba,,,,,,,sngl,resources/DB.BMP,resources/Empty.png,Door3,-0.286217001,-0.015558932,1,0,0,1.4825,optionLeft,70,7935,4,11,0,11,0,1,,,,,,,,,,,,,,,,,,,,,,,,,,,,,,,,,,,,,,,
,,,,,,,,2023-08-06_08h39.12.676,HF_wild_card,2022.2.4,MacIntel,59.98080614,62c4590804317dc197ecbe8a,64ce5acb97489d65b14ecc7a,64cf4b81716b77357ff7deba,,,,,,,decisionTrl,resources/DB.BMP,resources/DY.BMP,Door3,-0.379015764,-0.034269121,1,0,0,8.2299,optionLeft,70,8005,4,12,0,12,0,1,,,,,,,,,,,,,,,,,,,,,,,,,,,,,,,,,,,,,,,
,,,,,,,,2023-08-06_08h39.12.676,HF_wild_card,2022.2.4,MacIntel,59.98080614,62c4590804317dc197ecbe8a,64ce5acb97489d65b14ecc7a,64cf4b81716b77357ff7deba,,,,,,,ctch,resources/DR.BMP,resources/DB.BMP,Door3,0.341030333,-0.037348694,1,0,0,1.8629,optionRight,70,8075,4,13,0,13,0,1,,,,,,,,,,,,,,,,,,,,,,,,,,,,,,,,,,,,,,,
,,,,,,,,2023-08-06_08h39.12.676,HF_wild_card,2022.2.4,MacIntel,59.98080614,62c4590804317dc197ecbe8a,64ce5acb97489d65b14ecc7a,64cf4b81716b77357ff7deba,,,,,,,decisionTrl,resources/DY.BMP,resources/DB.BMP,Door4,-0.316500452,-0.011369069,1,0,0,10.1351,optionLeft,60,8135,4,14,0,14,0,1,,,,,,,,,,,,,,,,,,,,,,,,,,,,,,,,,,,,,,,
,,,,,,,,2023-08-06_08h39.12.676,HF_wild_card,2022.2.4,MacIntel,59.98080614,62c4590804317dc197ecbe8a,64ce5acb97489d65b14ecc7a,64cf4b81716b77357ff7deba,,,,,,,decisionTrl,resources/DR.BMP,resources/DP.BMP,Door1,0.409223451,-0.040717602,1,0,0,5.7185,optionRight,30,8165,4,15,0,15,0,1,,,,,,,,,,,,,,,,,,,,,,,,,,,,,,,,,,,,,,,
,,,,,,,,2023-08-06_08h39.12.676,HF_wild_card,2022.2.4,MacIntel,59.98080614,62c4590804317dc197ecbe8a,64ce5acb97489d65b14ecc7a,64cf4b81716b77357ff7deba,,,,,,,ctch,resources/DY.BMP,resources/DP.BMP,Door4,-0.328777896,-0.013090928,1,0,0,1.815,optionLeft,60,8225,4,16,0,16,0,1,,,,,,,,,,,,,,,,,,,,,,,,,,,,,,,,,,,,,,,
,,,,,,,,2023-08-06_08h39.12.676,HF_wild_card,2022.2.4,MacIntel,59.98080614,62c4590804317dc197ecbe8a,64ce5acb97489d65b14ecc7a,64cf4b81716b77357ff7deba,,,,,,,decisionTrl,resources/DY.BMP,resources/DBN.BMP,Door4,-0.299262736,-0.014248689,1,0,0,2.7482,optionLeft,80,8305,4,17,0,17,0,1,,,,,,,,,,,,,,,,,,,,,,,,,,,,,,,,,,,,,,,
,,,,,,,,2023-08-06_08h39.12.676,HF_wild_card,2022.2.4,MacIntel,59.98080614,62c4590804317dc197ecbe8a,64ce5acb97489d65b14ecc7a,64cf4b81716b77357ff7deba,,,,,,,ctch,resources/DP.BMP,resources/DY.BMP,Door4,0.387704213,-0.052054935,1,0,0,1.6173,optionRight,60,8365,4,18,0,18,0,1,,,,,,,,,,,,,,,,,,,,,,,,,,,,,,,,,,,,,,,
,,,,,,,,2023-08-06_08h39.12.676,HF_wild_card,2022.2.4,MacIntel,59.98080614,62c4590804317dc197ecbe8a,64ce5acb97489d65b14ecc7a,64cf4b81716b77357ff7deba,,,,,,,decisionTrl,resources/DR.BMP,resources/DBN.BMP,WildCard_Ex,0.391312069,-0.0408535,1,0,0,3.3064,optionRight,5,8370,4,19,0,19,0,1,,,,,,,,,,,,,,,,,,,,,,,,,,,,,,,,,,,,,,,
,,,,,,,,2023-08-06_08h39.12.676,HF_wild_card,2022.2.4,MacIntel,59.98080614,62c4590804317dc197ecbe8a,64ce5acb97489d65b14ecc7a,64cf4b81716b77357ff7deba,,,,,,,decisionTrl,resources/DP.BMP,resources/DR.BMP,Door2,-0.004694674,0.004461712,1,0,0,0.1376,optionRight,40,8410,4,20,0,20,0,1,,,,,,,,,,,,,,,,,,,,,,,,,,,,,,,,,,,,,,,
,,,,,,,,2023-08-06_08h39.12.676,HF_wild_card,2022.2.4,MacIntel,59.98080614,62c4590804317dc197ecbe8a,64ce5acb97489d65b14ecc7a,64cf4b81716b77357ff7deba,,,,,,,decisionTrl,resources/DR.BMP,resources/DP.BMP,Door2,-0.334949652,0.005474408,1,0,0,2.1356,optionLeft,40,8450,4,21,0,21,0,1,,,,,,,,,,,,,,,,,,,,,,,,,,,,,,,,,,,,,,,
,,,,,,,,2023-08-06_08h39.12.676,HF_wild_card,2022.2.4,MacIntel,59.98080614,62c4590804317dc197ecbe8a,64ce5acb97489d65b14ecc7a,64cf4b81716b77357ff7deba,,,,,,,sngl,resources/DBN.BMP,resources/Empty.png,WildCard_Ex,-0.388547421,0.017849975,1,0,0,1.9684,optionLeft,95,8545,4,22,0,22,0,1,,,,,,,,,,,,,,,,,,,,,,,,,,,,,,,,,,,,,,,
,,,,,,,,2023-08-06_08h39.12.676,HF_wild_card,2022.2.4,MacIntel,59.98080614,62c4590804317dc197ecbe8a,64ce5acb97489d65b14ecc7a,64cf4b81716b77357ff7deba,,,,,,,decisionTrl,resources/DR.BMP,resources/DP.BMP,Door2,-0.386035177,-0.001760112,1,0,0,4.3185,optionLeft,20,8565,4,23,0,23,0,1,,,,,,,,,,,,,,,,,,,,,,,,,,,,,,,,,,,,,,,
,,,,,,,,2023-08-06_08h39.12.676,HF_wild_card,2022.2.4,MacIntel,59.98080614,62c4590804317dc197ecbe8a,64ce5acb97489d65b14ecc7a,64cf4b81716b77357ff7deba,,,,,,,sngl,resources/Empty.png,resources/DB.BMP,Door3,0.256224738,-0.019552178,1,0,0,1.3994,optionRight,70,8635,4,24,0,24,0,1,,,,,,,,,,,,,,,,,,,,,,,,,,,,,,,,,,,,,,,
,,,,,,,,2023-08-06_08h39.12.676,HF_wild_card,2022.2.4,MacIntel,59.98080614,62c4590804317dc197ecbe8a,64ce5acb97489d65b14ecc7a,64cf4b81716b77357ff7deba,,,,,,,decisionTrl,resources/DB.BMP,resources/DY.BMP,Door3,-0.455084827,0.002250406,1,0,0,7.2491,optionLeft,70,8705,4,25,0,25,0,1,,,,,,,,,,,,,,,,,,,,,,,,,,,,,,,,,,,,,,,
,,,,,,,,2023-08-06_08h39.12.676,HF_wild_card,2022.2.4,MacIntel,59.98080614,62c4590804317dc197ecbe8a,64ce5acb97489d65b14ecc7a,64cf4b81716b77357ff7deba,,,,,,,decisionTrl,resources/DP.BMP,resources/DR.BMP,Door1,-0.392232842,-0.020546701,1,0,0,4.3049,optionLeft,30,8735,4,26,0,26,0,1,,,,,,,,,,,,,,,,,,,,,,,,,,,,,,,,,,,,,,,
,,,,,,,,2023-08-06_08h39.12.676,HF_wild_card,2022.2.4,MacIntel,59.98080614,62c4590804317dc197ecbe8a,64ce5acb97489d65b14ecc7a,64cf4b81716b77357ff7deba,,,,,,,decisionTrl,resources/DBN.BMP,resources/DY.BMP,Door4,0.307101462,-0.039538754,1,0,0,1.9369,optionRight,60,8795,4,27,0,27,0,1,,,,,,,,,,,,,,,,,,,,,,,,,,,,,,,,,,,,,,,
,,,,,,,,2023-08-06_08h39.12.676,HF_wild_card,2022.2.4,MacIntel,59.98080614,62c4590804317dc197ecbe8a,64ce5acb97489d65b14ecc7a,64cf4b81716b77357ff7deba,,,,,,,sngl,resources/DR.BMP,resources/Empty.png,Door2,-0.3638507,-0.015380383,1,0,0,1.1683,optionLeft,20,8815,4,28,0,28,0,1,,,,,,,,,,,,,,,,,,,,,,,,,,,,,,,,,,,,,,,
,,,,,,,,2023-08-06_08h39.12.676,HF_wild_card,2022.2.4,MacIntel,59.98080614,62c4590804317dc197ecbe8a,64ce5acb97489d65b14ecc7a,64cf4b81716b77357ff7deba,,,,,,,decisionTrl,resources/DBN.BMP,resources/DP.BMP,Door1,0.349881066,-0.051049709,1,0,0,3.2991,optionRight,30,8845,4,29,0,29,0,1,,,,,,,,,,,,,,,,,,,,,,,,,,,,,,,,,,,,,,,
,,,,,,,,2023-08-06_08h39.12.676,HF_wild_card,2022.2.4,MacIntel,59.98080614,62c4590804317dc197ecbe8a,64ce5acb97489d65b14ecc7a,64cf4b81716b77357ff7deba,,,,,,,ctch,resources/DB.BMP,resources/DR.BMP,Door3,-0.306489627,0.001763715,1,0,0,2.5841,optionLeft,70,8915,4,30,0,30,0,1,,,,,,,,,,,,,,,,,,,,,,,,,,,,,,,,,,,,,,,
,,,,,,,,2023-08-06_08h39.12.676,HF_wild_card,2022.2.4,MacIntel,59.98080614,62c4590804317dc197ecbe8a,64ce5acb97489d65b14ecc7a,64cf4b81716b77357ff7deba,,,,,,,decisionTrl,resources/DP.BMP,resources/DR.BMP,Door2,0.313027064,-0.044079516,1,0,0,3.3279,optionRight,20,8935,4,31,0,31,0,1,,,,,,,,,,,,,,,,,,,,,,,,,,,,,,,,,,,,,,,
,,,,,,,,2023-08-06_08h39.12.676,HF_wild_card,2022.2.4,MacIntel,59.98080614,62c4590804317dc197ecbe8a,64ce5acb97489d65b14ecc7a,64cf4b81716b77357ff7deba,,,,,,,decisionTrl,resources/DY.BMP,resources/DB.BMP,Door4,-0.329899046,0.005263699,1,0,0,5.8153,optionLeft,80,9015,4,32,0,32,0,1,,,,,,,,,,,,,,,,,,,,,,,,,,,,,,,,,,,,,,,
,,,,,,,,2023-08-06_08h39.12.676,HF_wild_card,2022.2.4,MacIntel,59.98080614,62c4590804317dc197ecbe8a,64ce5acb97489d65b14ecc7a,64cf4b81716b77357ff7deba,,,,,,,sngl,resources/Empty.png,resources/DY.BMP,Door4,0.320627318,-0.053916666,1,0,0,1.1804,optionRight,80,9095,4,33,0,33,0,1,,,,,,,,,,,,,,,,,,,,,,,,,,,,,,,,,,,,,,,
,,,,,,,,2023-08-06_08h39.12.676,HF_wild_card,2022.2.4,MacIntel,59.98080614,62c4590804317dc197ecbe8a,64ce5acb97489d65b14ecc7a,64cf4b81716b77357ff7deba,,,,,,,decisionTrl,resources/DBN.BMP,resources/DB.BMP,Door3,0.334494909,-0.035878658,1,0,0,1.5242,optionRight,70,9165,4,34,0,34,0,1,,,,,,,,,,,,,,,,,,,,,,,,,,,,,,,,,,,,,,,
,,,,,,,,2023-08-06_08h39.12.676,HF_wild_card,2022.2.4,MacIntel,59.98080614,62c4590804317dc197ecbe8a,64ce5acb97489d65b14ecc7a,64cf4b81716b77357ff7deba,,,,,,,sngl,resources/Empty.png,resources/DP.BMP,Door1,0.375575278,-0.05467595,1,0,0,1.3809,optionRight,30,9195,4,35,0,35,0,1,,,,,,,,,,,,,,,,,,,,,,,,,,,,,,,,,,,,,,,
,,,,,,,,2023-08-06_08h39.12.676,HF_wild_card,2022.2.4,MacIntel,59.98080614,62c4590804317dc197ecbe8a,64ce5acb97489d65b14ecc7a,64cf4b81716b77357ff7deba,,,,,,,sngl,resources/Empty.png,resources/DBN.BMP,WildCard_Ex,0.401978599,-0.053452598,1,0,0,1.7201,optionRight,5,9200,4,36,0,36,0,1,,,,,,,,,,,,,,,,,,,,,,,,,,,,,,,,,,,,,,,
,,,,,,,,2023-08-06_08h39.12.676,HF_wild_card,2022.2.4,MacIntel,59.98080614,62c4590804317dc197ecbe8a,64ce5acb97489d65b14ecc7a,64cf4b81716b77357ff7deba,,,,,,,sngl,resources/DBN.BMP,resources/Empty.png,WildCard_Ex,-0.311918365,0.005674574,1,0,0,2.0019,optionLeft,5,9205,4,37,0,37,0,1,,,,,,,,,,,,,,,,,,,,,,,,,,,,,,,,,,,,,,,
,,,,,,,,2023-08-06_08h39.12.676,HF_wild_card,2022.2.4,MacIntel,59.98080614,62c4590804317dc197ecbe8a,64ce5acb97489d65b14ecc7a,64cf4b81716b77357ff7deba,,,,,,,decisionTrl,resources/DR.BMP,resources/DP.BMP,Door1,0.293609195,-0.033781211,1,0,0,2.2814,optionRight,30,9235,4,38,0,38,0,1,,,,,,,,,,,,,,,,,,,,,,,,,,,,,,,,,,,,,,,
,,,,,,,,2023-08-06_08h39.12.676,HF_wild_card,2022.2.4,MacIntel,59.98080614,62c4590804317dc197ecbe8a,64ce5acb97489d65b14ecc7a,64cf4b81716b77357ff7deba,,,,,,,decisionTrl,resources/DB.BMP,resources/DY.BMP,Door4,0.329179552,-0.041667991,1,0,0,2.1802,optionRight,80,9315,4,39,0,39,0,1,,,,,,,,,,,,,,,,,,,,,,,,,,,,,,,,,,,,,,,
,,,,,,,,2023-08-06_08h39.12.676,HF_wild_card,2022.2.4,MacIntel,59.98080614,62c4590804317dc197ecbe8a,64ce5acb97489d65b14ecc7a,64cf4b81716b77357ff7deba,,,,,,,decisionTrl,resources/DP.BMP,resources/DBN.BMP,Door1,-0.321292029,-0.018073294,1,0,0,2.8947,optionLeft,30,9345,4,40,0,40,0,1,,,,,,,,,,,,,,,,,,,,,,,,,,,,,,,,,,,,,,,
,,,,,,,,2023-08-06_08h39.12.676,HF_wild_card,2022.2.4,MacIntel,59.98080614,62c4590804317dc197ecbe8a,64ce5acb97489d65b14ecc7a,64cf4b81716b77357ff7deba,,,,,,,sngl,resources/DY.BMP,resources/Empty.png,Door4,-0.27159765,-7.17905E-05,1,0,0,1.4637,optionLeft,60,9405,4,41,0,41,0,1,,,,,,,,,,,,,,,,,,,,,,,,,,,,,,,,,,,,,,,
,,,,,,,,2023-08-06_08h39.12.676,HF_wild_card,2022.2.4,MacIntel,59.98080614,62c4590804317dc197ecbe8a,64ce5acb97489d65b14ecc7a,64cf4b81716b77357ff7deba,,,,,,,decisionTrl,resources/DY.BMP,resources/DB.BMP,Door4,-0.417866442,0.008921411,1,0,0,3.1647,optionLeft,60,9465,4,42,0,42,0,1,,,,,,,,,,,,,,,,,,,,,,,,,,,,,,,,,,,,,,,
,,,,,,,,2023-08-06_08h39.12.676,HF_wild_card,2022.2.4,MacIntel,59.98080614,62c4590804317dc197ecbe8a,64ce5acb97489d65b14ecc7a,64cf4b81716b77357ff7deba,,,,,,,ctch,resources/DR.BMP,resources/DB.BMP,Door3,0.276294814,-0.04125807,1,0,0,1.384,optionRight,70,9535,4,43,0,43,0,1,,,,,,,,,,,,,,,,,,,,,,,,,,,,,,,,,,,,,,,
,,,,,,,,2023-08-06_08h39.12.676,HF_wild_card,2022.2.4,MacIntel,59.98080614,62c4590804317dc197ecbe8a,64ce5acb97489d65b14ecc7a,64cf4b81716b77357ff7deba,,,,,,,,,,,,,,,,,,,,,,,,,,3,0,3,0,1,,,,,,,,,,,,,,,,,,,,,,,,,,,,,,,,,,
,,,,,,,,2023-08-06_08h39.12.676,HF_wild_card,2022.2.4,MacIntel,59.98080614,62c4590804317dc197ecbe8a,64ce5acb97489d65b14ecc7a,64cf4b81716b77357ff7deba,,,,,,,decisionTrl,resources/DP.BMP,resources/DR.BMP,Door1,-0.379424519,-0.108742025,1,0,0,9.2766,optionLeft,30,9565,5,0,0,0,0,1,,,,,,,,,,,,,,,,,,,,,,,,,,,,,,,,,,,,,,,
,,,,,,,,2023-08-06_08h39.12.676,HF_wild_card,2022.2.4,MacIntel,59.98080614,62c4590804317dc197ecbe8a,64ce5acb97489d65b14ecc7a,64cf4b81716b77357ff7deba,,,,,,,decisionTrl,resources/DY.BMP,resources/DB.BMP,Door3,0.27587276,-0.037050141,1,0,0,7.7664,optionRight,70,9635,5,1,0,1,0,1,,,,,,,,,,,,,,,,,,,,,,,,,,,,,,,,,,,,,,,
,,,,,,,,2023-08-06_08h39.12.676,HF_wild_card,2022.2.4,MacIntel,59.98080614,62c4590804317dc197ecbe8a,64ce5acb97489d65b14ecc7a,64cf4b81716b77357ff7deba,,,,,,,decisionTrl,resources/DY.BMP,resources/DB.BMP,Door3,0.268658744,-0.024318695,1,0,0,2.0002,optionRight,70,9705,5,2,0,2,0,1,,,,,,,,,,,,,,,,,,,,,,,,,,,,,,,,,,,,,,,
,,,,,,,,2023-08-06_08h39.12.676,HF_wild_card,2022.2.4,MacIntel,59.98080614,62c4590804317dc197ecbe8a,64ce5acb97489d65b14ecc7a,64cf4b81716b77357ff7deba,,,,,,,ctch,resources/DP.BMP,resources/DY.BMP,Door4,0.356535806,-0.028556506,1,0,0,2.1308,optionRight,80,9785,5,3,0,3,0,1,,,,,,,,,,,,,,,,,,,,,,,,,,,,,,,,,,,,,,,
,,,,,,,,2023-08-06_08h39.12.676,HF_wild_card,2022.2.4,MacIntel,59.98080614,62c4590804317dc197ecbe8a,64ce5acb97489d65b14ecc7a,64cf4b81716b77357ff7deba,,,,,,,sngl,resources/Empty.png,resources/DB.BMP,Door3,0.311314265,-0.038470692,1,0,0,1.1138,optionRight,70,9855,5,4,0,4,0,1,,,,,,,,,,,,,,,,,,,,,,,,,,,,,,,,,,,,,,,
,,,,,,,,2023-08-06_08h39.12.676,HF_wild_card,2022.2.4,MacIntel,59.98080614,62c4590804317dc197ecbe8a,64ce5acb97489d65b14ecc7a,64cf4b81716b77357ff7deba,,,,,,,decisionTrl,resources/DY.BMP,resources/DB.BMP,Door3,0.359816763,-0.039431042,1,0,0,1.9419,optionRight,70,9925,5,5,0,5,0,1,,,,,,,,,,,,,,,,,,,,,,,,,,,,,,,,,,,,,,,
,,,,,,,,2023-08-06_08h39.12.676,HF_wild_card,2022.2.4,MacIntel,59.98080614,62c4590804317dc197ecbe8a,64ce5acb97489d65b14ecc7a,64cf4b81716b77357ff7deba,,,,,,,ctch,resources/DP.BMP,resources/DY.BMP,Door4,0.342054685,-0.008230315,1,0,0,1.4792,optionRight,80,10005,5,6,0,6,0,1,,,,,,,,,,,,,,,,,,,,,,,,,,,,,,,,,,,,,,,
,,,,,,,,2023-08-06_08h39.12.676,HF_wild_card,2022.2.4,MacIntel,59.98080614,62c4590804317dc197ecbe8a,64ce5acb97489d65b14ecc7a,64cf4b81716b77357ff7deba,,,,,,,ctch,resources/DB.BMP,resources/DR.BMP,Door3,-0.333767361,-0.011798435,1,0,0,1.5852,optionLeft,70,10075,5,7,0,7,0,1,,,,,,,,,,,,,,,,,,,,,,,,,,,,,,,,,,,,,,,
,,,,,,,,2023-08-06_08h39.12.676,HF_wild_card,2022.2.4,MacIntel,59.98080614,62c4590804317dc197ecbe8a,64ce5acb97489d65b14ecc7a,64cf4b81716b77357ff7deba,,,,,,,sngl,resources/DBN.BMP,resources/Empty.png,WildCard_Ex,-0.348666297,-0.007176717,1,0,0,1.4777,optionLeft,5,10080,5,8,0,8,0,1,,,,,,,,,,,,,,,,,,,,,,,,,,,,,,,,,,,,,,,
,,,,,,,,2023-08-06_08h39.12.676,HF_wild_card,2022.2.4,MacIntel,59.98080614,62c4590804317dc197ecbe8a,64ce5acb97489d65b14ecc7a,64cf4b81716b77357ff7deba,,,,,,,decisionTrl,resources/DBN.BMP,resources/DY.BMP,Door4,0.326550378,-0.03124502,1,0,0,1.8683,optionRight,80,10160,5,9,0,9,0,1,,,,,,,,,,,,,,,,,,,,,,,,,,,,,,,,,,,,,,,
,,,,,,,,2023-08-06_08h39.12.676,HF_wild_card,2022.2.4,MacIntel,59.98080614,62c4590804317dc197ecbe8a,64ce5acb97489d65b14ecc7a,64cf4b81716b77357ff7deba,,,,,,,sngl,resources/DB.BMP,resources/Empty.png,Door3,-0.376324972,-0.019822862,1,0,0,1.1491,optionLeft,70,10230,5,10,0,10,0,1,,,,,,,,,,,,,,,,,,,,,,,,,,,,,,,,,,,,,,,
,,,,,,,,2023-08-06_08h39.12.676,HF_wild_card,2022.2.4,MacIntel,59.98080614,62c4590804317dc197ecbe8a,64ce5acb97489d65b14ecc7a,64cf4b81716b77357ff7deba,,,,,,,decisionTrl,resources/DP.BMP,resources/DR.BMP,Door1,-0.374699805,-0.026770327,1,0,0,7.0024,optionLeft,30,10260,5,11,0,11,0,1,,,,,,,,,,,,,,,,,,,,,,,,,,,,,,,,,,,,,,,
,,,,,,,,2023-08-06_08h39.12.676,HF_wild_card,2022.2.4,MacIntel,59.98080614,62c4590804317dc197ecbe8a,64ce5acb97489d65b14ecc7a,64cf4b81716b77357ff7deba,,,,,,,decisionTrl,resources/DBN.BMP,resources/DB.BMP,Door3,0.317709817,-0.043910238,1,0,0,1.8667,optionRight,70,10330,5,12,0,12,0,1,,,,,,,,,,,,,,,,,,,,,,,,,,,,,,,,,,,,,,,
,,,,,,,,2023-08-06_08h39.12.676,HF_wild_card,2022.2.4,MacIntel,59.98080614,62c4590804317dc197ecbe8a,64ce5acb97489d65b14ecc7a,64cf4b81716b77357ff7deba,,,,,,,ctch,resources/DY.BMP,resources/DP.BMP,Door4,-0.312098185,-0.022517469,1,0,0,1.6838,optionLeft,80,10410,5,13,0,13,0,1,,,,,,,,,,,,,,,,,,,,,,,,,,,,,,,,,,,,,,,
,,,,,,,,2023-08-06_08h39.12.676,HF_wild_card,2022.2.4,MacIntel,59.98080614,62c4590804317dc197ecbe8a,64ce5acb97489d65b14ecc7a,64cf4b81716b77357ff7deba,,,,,,,decisionTrl,resources/DP.BMP,resources/DBN.BMP,Door1,-0.354449696,-0.011780368,1,0,0,2.5626,optionLeft,30,10440,5,14,0,14,0,1,,,,,,,,,,,,,,,,,,,,,,,,,,,,,,,,,,,,,,,
,,,,,,,,2023-08-06_08h39.12.676,HF_wild_card,2022.2.4,MacIntel,59.98080614,62c4590804317dc197ecbe8a,64ce5acb97489d65b14ecc7a,64cf4b81716b77357ff7deba,,,,,,,ctch,resources/DB.BMP,resources/DR.BMP,Door3,-0.371110492,0.003031095,1,0,0,1.5427,optionLeft,70,10510,5,15,0,15,0,1,,,,,,,,,,,,,,,,,,,,,,,,,,,,,,,,,,,,,,,
,,,,,,,,2023-08-06_08h39.12.676,HF_wild_card,2022.2.4,MacIntel,59.98080614,62c4590804317dc197ecbe8a,64ce5acb97489d65b14ecc7a,64cf4b81716b77357ff7deba,,,,,,,decisionTrl,resources/DY.BMP,resources/DBN.BMP,Door4,-0.28752168,0.006469303,1,0,0,3.1215,optionLeft,60,10570,5,16,0,16,0,1,,,,,,,,,,,,,,,,,,,,,,,,,,,,,,,,,,,,,,,
,,,,,,,,2023-08-06_08h39.12.676,HF_wild_card,2022.2.4,MacIntel,59.98080614,62c4590804317dc197ecbe8a,64ce5acb97489d65b14ecc7a,64cf4b81716b77357ff7deba,,,,,,,sngl,resources/DR.BMP,resources/Empty.png,Door2,-0.300284757,0.00508017,1,0,0,1.3991,optionLeft,40,10610,5,17,0,17,0,1,,,,,,,,,,,,,,,,,,,,,,,,,,,,,,,,,,,,,,,
,,,,,,,,2023-08-06_08h39.12.676,HF_wild_card,2022.2.4,MacIntel,59.98080614,62c4590804317dc197ecbe8a,64ce5acb97489d65b14ecc7a,64cf4b81716b77357ff7deba,,,,,,,decisionTrl,resources/DP.BMP,resources/DR.BMP,Door2,0.327342245,0.002820916,1,0,0,2.5441,optionRight,20,10630,5,18,0,18,0,1,,,,,,,,,,,,,,,,,,,,,,,,,,,,,,,,,,,,,,,
,,,,,,,,2023-08-06_08h39.12.676,HF_wild_card,2022.2.4,MacIntel,59.98080614,62c4590804317dc197ecbe8a,64ce5acb97489d65b14ecc7a,64cf4b81716b77357ff7deba,,,,,,,decisionTrl,resources/DY.BMP,resources/DB.BMP,Door3,0.326448017,-0.025285456,1,0,0,5.081,optionRight,70,10700,5,19,0,19,0,1,,,,,,,,,,,,,,,,,,,,,,,,,,,,,,,,,,,,,,,
,,,,,,,,2023-08-06_08h39.12.676,HF_wild_card,2022.2.4,MacIntel,59.98080614,62c4590804317dc197ecbe8a,64ce5acb97489d65b14ecc7a,64cf4b81716b77357ff7deba,,,,,,,decisionTrl,resources/DB.BMP,resources/DY.BMP,Door3,-0.320875751,0.006765948,1,0,0,1.8056,optionLeft,70,10770,5,20,0,20,0,1,,,,,,,,,,,,,,,,,,,,,,,,,,,,,,,,,,,,,,,
,,,,,,,,2023-08-06_08h39.12.676,HF_wild_card,2022.2.4,MacIntel,59.98080614,62c4590804317dc197ecbe8a,64ce5acb97489d65b14ecc7a,64cf4b81716b77357ff7deba,,,,,,,sngl,resources/DP.BMP,resources/Empty.png,Door1,-0.387236171,-0.002346463,1,0,0,1.3469,optionLeft,30,10800,5,21,0,21,0,1,,,,,,,,,,,,,,,,,,,,,,,,,,,,,,,,,,,,,,,
,,,,,,,,2023-08-06_08h39.12.676,HF_wild_card,2022.2.4,MacIntel,59.98080614,62c4590804317dc197ecbe8a,64ce5acb97489d65b14ecc7a,64cf4b81716b77357ff7deba,,,,,,,sngl,resources/Empty.png,resources/DP.BMP,Door1,0.295197805,-0.018372059,1,0,0,1.3169,optionRight,30,10830,5,22,0,22,0,1,,,,,,,,,,,,,,,,,,,,,,,,,,,,,,,,,,,,,,,
,,,,,,,,2023-08-06_08h39.12.676,HF_wild_card,2022.2.4,MacIntel,59.98080614,62c4590804317dc197ecbe8a,64ce5acb97489d65b14ecc7a,64cf4b81716b77357ff7deba,,,,,,,decisionTrl,resources/DBN.BMP,resources/DP.BMP,Door1,0.401361042,-0.026665847,1,0,0,1.9146,optionRight,30,10860,5,23,0,23,0,1,,,,,,,,,,,,,,,,,,,,,,,,,,,,,,,,,,,,,,,
,,,,,,,,2023-08-06_08h39.12.676,HF_wild_card,2022.2.4,MacIntel,59.98080614,62c4590804317dc197ecbe8a,64ce5acb97489d65b14ecc7a,64cf4b81716b77357ff7deba,,,,,,,ctch,resources/DR.BMP,resources/DB.BMP,Door3,0.333035681,-0.015647093,1,0,0,1.6948,optionRight,70,10930,5,24,0,24,0,1,,,,,,,,,,,,,,,,,,,,,,,,,,,,,,,,,,,,,,,
,,,,,,,,2023-08-06_08h39.12.676,HF_wild_card,2022.2.4,MacIntel,59.98080614,62c4590804317dc197ecbe8a,64ce5acb97489d65b14ecc7a,64cf4b81716b77357ff7deba,,,,,,,decisionTrl,resources/DR.BMP,resources/DP.BMP,Door1,0.360929913,-0.025733312,1,0,0,1.9588,optionRight,30,10960,5,25,0,25,0,1,,,,,,,,,,,,,,,,,,,,,,,,,,,,,,,,,,,,,,,
,,,,,,,,2023-08-06_08h39.12.676,HF_wild_card,2022.2.4,MacIntel,59.98080614,62c4590804317dc197ecbe8a,64ce5acb97489d65b14ecc7a,64cf4b81716b77357ff7deba,,,,,,,decisionTrl,resources/DR.BMP,resources/DBN.BMP,Door2,-0.354270511,-0.000349945,1,0,0,1.6275,optionLeft,40,11000,5,26,0,26,0,1,,,,,,,,,,,,,,,,,,,,,,,,,,,,,,,,,,,,,,,
,,,,,,,,2023-08-06_08h39.12.676,HF_wild_card,2022.2.4,MacIntel,59.98080614,62c4590804317dc197ecbe8a,64ce5acb97489d65b14ecc7a,64cf4b81716b77357ff7deba,,,,,,,decisionTrl,resources/DR.BMP,resources/DP.BMP,Door1,0.370496432,-0.041361809,1,0,0,1.5336,optionRight,30,11030,5,27,0,27,0,1,,,,,,,,,,,,,,,,,,,,,,,,,,,,,,,,,,,,,,,
,,,,,,,,2023-08-06_08h39.12.676,HF_wild_card,2022.2.4,MacIntel,59.98080614,62c4590804317dc197ecbe8a,64ce5acb97489d65b14ecc7a,64cf4b81716b77357ff7deba,,,,,,,decisionTrl,resources/DB.BMP,resources/DY.BMP,Door3,-0.374586741,0.011211554,1,0,0,2.2166,optionLeft,70,11100,5,28,0,28,0,1,,,,,,,,,,,,,,,,,,,,,,,,,,,,,,,,,,,,,,,
,,,,,,,,2023-08-06_08h39.12.676,HF_wild_card,2022.2.4,MacIntel,59.98080614,62c4590804317dc197ecbe8a,64ce5acb97489d65b14ecc7a,64cf4b81716b77357ff7deba,,,,,,,decisionTrl,resources/DB.BMP,resources/DY.BMP,Door4,0.330634541,-0.016363621,1,0,0,2.6303,optionRight,80,11180,5,29,0,29,0,1,,,,,,,,,,,,,,,,,,,,,,,,,,,,,,,,,,,,,,,
,,,,,,,,2023-08-06_08h39.12.676,HF_wild_card,2022.2.4,MacIntel,59.98080614,62c4590804317dc197ecbe8a,64ce5acb97489d65b14ecc7a,64cf4b81716b77357ff7deba,,,,,,,ctch,resources/DY.BMP,resources/DP.BMP,Door4,-0.351808866,0.004645983,1,0,0,1.649,optionLeft,60,11240,5,30,0,30,0,1,,,,,,,,,,,,,,,,,,,,,,,,,,,,,,,,,,,,,,,
,,,,,,,,2023-08-06_08h39.12.676,HF_wild_card,2022.2.4,MacIntel,59.98080614,62c4590804317dc197ecbe8a,64ce5acb97489d65b14ecc7a,64cf4b81716b77357ff7deba,,,,,,,decisionTrl,resources/DP.BMP,resources/DR.BMP,Door1,-0.345162604,-0.002831035,1,0,0,2.9163,optionLeft,30,11270,5,31,0,31,0,1,,,,,,,,,,,,,,,,,,,,,,,,,,,,,,,,,,,,,,,
,,,,,,,,2023-08-06_08h39.12.676,HF_wild_card,2022.2.4,MacIntel,59.98080614,62c4590804317dc197ecbe8a,64ce5acb97489d65b14ecc7a,64cf4b81716b77357ff7deba,,,,,,,sngl,resources/DBN.BMP,resources/Empty.png,WildCard_Ex,-0.317368189,0.009161101,1,0,0,1.4918,optionLeft,95,11365,5,32,0,32,0,1,,,,,,,,,,,,,,,,,,,,,,,,,,,,,,,,,,,,,,,
,,,,,,,,2023-08-06_08h39.12.676,HF_wild_card,2022.2.4,MacIntel,59.98080614,62c4590804317dc197ecbe8a,64ce5acb97489d65b14ecc7a,64cf4b81716b77357ff7deba,,,,,,,sngl,resources/Empty.png,resources/DY.BMP,Door4,0.312450833,-0.016809622,1,0,0,1.138,optionRight,60,11425,5,33,0,33,0,1,,,,,,,,,,,,,,,,,,,,,,,,,,,,,,,,,,,,,,,
,,,,,,,,2023-08-06_08h39.12.676,HF_wild_card,2022.2.4,MacIntel,59.98080614,62c4590804317dc197ecbe8a,64ce5acb97489d65b14ecc7a,64cf4b81716b77357ff7deba,,,,,,,decisionTrl,resources/DR.BMP,resources/DP.BMP,Door1,0.35138162,-0.013901128,1,0,0,2.1137,optionRight,30,11455,5,34,0,34,0,1,,,,,,,,,,,,,,,,,,,,,,,,,,,,,,,,,,,,,,,
,,,,,,,,2023-08-06_08h39.12.676,HF_wild_card,2022.2.4,MacIntel,59.98080614,62c4590804317dc197ecbe8a,64ce5acb97489d65b14ecc7a,64cf4b81716b77357ff7deba,,,,,,,decisionTrl,resources/DB.BMP,resources/DY.BMP,Door4,0.293966611,-0.02672614,1,0,0,3.6512,optionRight,80,11535,5,35,0,35,0,1,,,,,,,,,,,,,,,,,,,,,,,,,,,,,,,,,,,,,,,
,,,,,,,,2023-08-06_08h39.12.676,HF_wild_card,2022.2.4,MacIntel,59.98080614,62c4590804317dc197ecbe8a,64ce5acb97489d65b14ecc7a,64cf4b81716b77357ff7deba,,,,,,,decisionTrl,resources/DB.BMP,resources/DBN.BMP,Door3,-0.42452134,0.001024405,1,0,0,1.5685,optionLeft,70,11605,5,36,0,36,0,1,,,,,,,,,,,,,,,,,,,,,,,,,,,,,,,,,,,,,,,
,,,,,,,,2023-08-06_08h39.12.676,HF_wild_card,2022.2.4,MacIntel,59.98080614,62c4590804317dc197ecbe8a,64ce5acb97489d65b14ecc7a,64cf4b81716b77357ff7deba,,,,,,,ctch,resources/DR.BMP,resources/DB.BMP,Door3,0.33162117,-0.01965581,1,0,0,1.6516,optionRight,70,11675,5,37,0,37,0,1,,,,,,,,,,,,,,,,,,,,,,,,,,,,,,,,,,,,,,,
,,,,,,,,2023-08-06_08h39.12.676,HF_wild_card,2022.2.4,MacIntel,59.98080614,62c4590804317dc197ecbe8a,64ce5acb97489d65b14ecc7a,64cf4b81716b77357ff7deba,,,,,,,sngl,resources/Empty.png,resources/DBN.BMP,WildCard_Ex,0.295061959,-0.027535597,1,0,0,1.5504,optionRight,5,11680,5,38,0,38,0,1,,,,,,,,,,,,,,,,,,,,,,,,,,,,,,,,,,,,,,,
,,,,,,,,2023-08-06_08h39.12.676,HF_wild_card,2022.2.4,MacIntel,59.98080614,62c4590804317dc197ecbe8a,64ce5acb97489d65b14ecc7a,64cf4b81716b77357ff7deba,,,,,,,sngl,resources/Empty.png,resources/DBN.BMP,WildCard_Ex,0.398709721,-0.018952476,1,0,0,1.1945,optionRight,95,11775,5,39,0,39,0,1,,,,,,,,,,,,,,,,,,,,,,,,,,,,,,,,,,,,,,,
,,,,,,,,2023-08-06_08h39.12.676,HF_wild_card,2022.2.4,MacIntel,59.98080614,62c4590804317dc197ecbe8a,64ce5acb97489d65b14ecc7a,64cf4b81716b77357ff7deba,,,,,,,decisionTrl,resources/DR.BMP,resources/DP.BMP,Door2,-0.379548497,0.003069719,1,0,0,4.8914,optionLeft,40,11815,5,40,0,40,0,1,,,,,,,,,,,,,,,,,,,,,,,,,,,,,,,,,,,,,,,
,,,,,,,,2023-08-06_08h39.12.676,HF_wild_card,2022.2.4,MacIntel,59.98080614,62c4590804317dc197ecbe8a,64ce5acb97489d65b14ecc7a,64cf4b81716b77357ff7deba,,,,,,,sngl,resources/DY.BMP,resources/Empty.png,Door4,-0.320525646,0.014066431,1,0,0,5.8813,optionLeft,80,11895,5,41,0,41,0,1,,,,,,,,,,,,,,,,,,,,,,,,,,,,,,,,,,,,,,,
,,,,,,,,2023-08-06_08h39.12.676,HF_wild_card,2022.2.4,MacIntel,59.98080614,62c4590804317dc197ecbe8a,64ce5acb97489d65b14ecc7a,64cf4b81716b77357ff7deba,,,,,,,sngl,resources/Empty.png,resources/DR.BMP,Door2,0.346744749,-0.029309061,1,0,0,1.5167,optionRight,20,11915,5,42,0,42,0,1,,,,,,,,,,,,,,,,,,,,,,,,,,,,,,,,,,,,,,,
,,,,,,,,2023-08-06_08h39.12.676,HF_wild_card,2022.2.4,MacIntel,59.98080614,62c4590804317dc197ecbe8a,64ce5acb97489d65b14ecc7a,64cf4b81716b77357ff7deba,,,,,,,decisionTrl,resources/DBN.BMP,resources/DR.BMP,Door2,0.354841338,-0.011449761,1,0,0,6.4913,optionRight,40,11955,5,43,0,43,0,1,,,,,,,,,,,,,,,,,,,,,,,,,,,,,,,,,,,,,,,
,,,,,,,,2023-08-06_08h39.12.676,HF_wild_card,2022.2.4,MacIntel,59.98080614,62c4590804317dc197ecbe8a,64ce5acb97489d65b14ecc7a,64cf4b81716b77357ff7deba,,,,,,,,,,,,,,,,,,,,,,,,,,4,0,4,0,1,,,,,,,,,,,,,,,,,,,,,,,,,,,,,,,,,,
,,,,,,,,2023-08-06_08h39.12.676,HF_wild_card,2022.2.4,MacIntel,59.98080614,62c4590804317dc197ecbe8a,64ce5acb97489d65b14ecc7a,64cf4b81716b77357ff7deba,,,,,,,ctch,resources/DP.BMP,resources/DY.BMP,Door4,0.36030176,-0.163610299,1,0,0,15.3381,optionRight,80,12035,6,0,0,0,0,1,,,,,,,,,,,,,,,,,,,,,,,,,,,,,,,,,,,,,,,
,,,,,,,,2023-08-06_08h39.12.676,HF_wild_card,2022.2.4,MacIntel,59.98080614,62c4590804317dc197ecbe8a,64ce5acb97489d65b14ecc7a,64cf4b81716b77357ff7deba,,,,,,,decisionTrl,resources/DR.BMP,resources/DP.BMP,Door2,-0.381969028,-0.048728095,1,0,0,7.6298,optionLeft,20,12055,6,1,0,1,0,1,,,,,,,,,,,,,,,,,,,,,,,,,,,,,,,,,,,,,,,
,,,,,,,,2023-08-06_08h39.12.676,HF_wild_card,2022.2.4,MacIntel,59.98080614,62c4590804317dc197ecbe8a,64ce5acb97489d65b14ecc7a,64cf4b81716b77357ff7deba,,,,,,,sngl,resources/Empty.png,resources/DY.BMP,Door4,0.418543286,-0.073502753,1,0,0,1.4832,optionRight,80,12135,6,2,0,2,0,1,,,,,,,,,,,,,,,,,,,,,,,,,,,,,,,,,,,,,,,
,,,,,,,,2023-08-06_08h39.12.676,HF_wild_card,2022.2.4,MacIntel,59.98080614,62c4590804317dc197ecbe8a,64ce5acb97489d65b14ecc7a,64cf4b81716b77357ff7deba,,,,,,,ctch,resources/DP.BMP,resources/DY.BMP,Door4,0.407871458,-0.026460171,1,0,0,1.8687,optionRight,60,12195,6,3,0,3,0,1,,,,,,,,,,,,,,,,,,,,,,,,,,,,,,,,,,,,,,,
,,,,,,,,2023-08-06_08h39.12.676,HF_wild_card,2022.2.4,MacIntel,59.98080614,62c4590804317dc197ecbe8a,64ce5acb97489d65b14ecc7a,64cf4b81716b77357ff7deba,,,,,,,decisionTrl,resources/DY.BMP,resources/DB.BMP,Door3,0.332675298,-0.020936701,1,0,0,4.0313,optionRight,70,12265,6,4,0,4,0,1,,,,,,,,,,,,,,,,,,,,,,,,,,,,,,,,,,,,,,,
,,,,,,,,2023-08-06_08h39.12.676,HF_wild_card,2022.2.4,MacIntel,59.98080614,62c4590804317dc197ecbe8a,64ce5acb97489d65b14ecc7a,64cf4b81716b77357ff7deba,,,,,,,sngl,resources/DBN.BMP,resources/Empty.png,WildCard_Ex,-0.299483458,0.002939701,1,0,0,1.2069,optionLeft,95,12360,6,5,0,5,0,1,,,,,,,,,,,,,,,,,,,,,,,,,,,,,,,,,,,,,,,
,,,,,,,,2023-08-06_08h39.12.676,HF_wild_card,2022.2.4,MacIntel,59.98080614,62c4590804317dc197ecbe8a,64ce5acb97489d65b14ecc7a,64cf4b81716b77357ff7deba,,,,,,,decisionTrl,resources/DY.BMP,resources/DBN.BMP,Door4,-0.348458078,-0.004697323,1,0,0,2.1494,optionLeft,60,12420,6,6,0,6,0,1,,,,,,,,,,,,,,,,,,,,,,,,,,,,,,,,,,,,,,,
,,,,,,,,2023-08-06_08h39.12.676,HF_wild_card,2022.2.4,MacIntel,59.98080614,62c4590804317dc197ecbe8a,64ce5acb97489d65b14ecc7a,64cf4b81716b77357ff7deba,,,,,,,ctch,resources/DY.BMP,resources/DP.BMP,Door4,-0.392847962,0.000728395,1,0,0,1.5132,optionLeft,60,12480,6,7,0,7,0,1,,,,,,,,,,,,,,,,,,,,,,,,,,,,,,,,,,,,,,,
,,,,,,,,2023-08-06_08h39.12.676,HF_wild_card,2022.2.4,MacIntel,59.98080614,62c4590804317dc197ecbe8a,64ce5acb97489d65b14ecc7a,64cf4b81716b77357ff7deba,,,,,,,sngl,resources/DY.BMP,resources/Empty.png,Door4,-0.360271666,0.002410995,1,0,0,0.9611,optionLeft,60,12540,6,8,0,8,0,1,,,,,,,,,,,,,,,,,,,,,,,,,,,,,,,,,,,,,,,
,,,,,,,,2023-08-06_08h39.12.676,HF_wild_card,2022.2.4,MacIntel,59.98080614,62c4590804317dc197ecbe8a,64ce5acb97489d65b14ecc7a,64cf4b81716b77357ff7deba,,,,,,,decisionTrl,resources/DR.BMP,resources/DBN.BMP,WildCard_Ex,0.317861027,0.001371755,1,0,0,3.7874,optionRight,5,12545,6,9,0,9,0,1,,,,,,,,,,,,,,,,,,,,,,,,,,,,,,,,,,,,,,,
,,,,,,,,2023-08-06_08h39.12.676,HF_wild_card,2022.2.4,MacIntel,59.98080614,62c4590804317dc197ecbe8a,64ce5acb97489d65b14ecc7a,64cf4b81716b77357ff7deba,,,,,,,decisionTrl,resources/DB.BMP,resources/DY.BMP,Door3,-0.367049217,0.002974669,1,0,0,2.5287,optionLeft,70,12615,6,10,0,10,0,1,,,,,,,,,,,,,,,,,,,,,,,,,,,,,,,,,,,,,,,
,,,,,,,,2023-08-06_08h39.12.676,HF_wild_card,2022.2.4,MacIntel,59.98080614,62c4590804317dc197ecbe8a,64ce5acb97489d65b14ecc7a,64cf4b81716b77357ff7deba,,,,,,,decisionTrl,resources/DBN.BMP,resources/DR.BMP,Door2,0.369228257,-0.034149064,1,0,0,1.8991,optionRight,40,12655,6,11,0,11,0,1,,,,,,,,,,,,,,,,,,,,,,,,,,,,,,,,,,,,,,,
,,,,,,,,2023-08-06_08h39.12.676,HF_wild_card,2022.2.4,MacIntel,59.98080614,62c4590804317dc197ecbe8a,64ce5acb97489d65b14ecc7a,64cf4b81716b77357ff7deba,,,,,,,decisionTrl,resources/DP.BMP,resources/DR.BMP,Door1,-0.460028542,-0.011250761,1,0,0,3.6338,optionLeft,30,12685,6,12,0,12,0,1,,,,,,,,,,,,,,,,,,,,,,,,,,,,,,,,,,,,,,,
,,,,,,,,2023-08-06_08h39.12.676,HF_wild_card,2022.2.4,MacIntel,59.98080614,62c4590804317dc197ecbe8a,64ce5acb97489d65b14ecc7a,64cf4b81716b77357ff7deba,,,,,,,decisionTrl,resources/DBN.BMP,resources/DY.BMP,Door4,0.366220898,-0.032146189,1,0,0,1.4784,optionRight,60,12745,6,13,0,13,0,1,,,,,,,,,,,,,,,,,,,,,,,,,,,,,,,,,,,,,,,
,,,,,,,,2023-08-06_08h39.12.676,HF_wild_card,2022.2.4,MacIntel,59.98080614,62c4590804317dc197ecbe8a,64ce5acb97489d65b14ecc7a,64cf4b81716b77357ff7deba,,,,,,,sngl,resources/Empty.png,resources/DBN.BMP,WildCard_Ex,0.381424374,-0.031596237,1,0,0,1.4336,optionRight,5,12750,6,14,0,14,0,1,,,,,,,,,,,,,,,,,,,,,,,,,,,,,,,,,,,,,,,
,,,,,,,,2023-08-06_08h39.12.676,HF_wild_card,2022.2.4,MacIntel,59.98080614,62c4590804317dc197ecbe8a,64ce5acb97489d65b14ecc7a,64cf4b81716b77357ff7deba,,,,,,,decisionTrl,resources/DP.BMP,resources/DBN.BMP,Door1,-0.356466134,-0.027352386,1,0,0,1.9758,optionLeft,30,12780,6,15,0,15,0,1,,,,,,,,,,,,,,,,,,,,,,,,,,,,,,,,,,,,,,,
,,,,,,,,2023-08-06_08h39.12.676,HF_wild_card,2022.2.4,MacIntel,59.98080614,62c4590804317dc197ecbe8a,64ce5acb97489d65b14ecc7a,64cf4b81716b77357ff7deba,,,,,,,ctch,resources/DY.BMP,resources/DP.BMP,Door4,-0.380054209,0.007901933,1,0,0,1.2984,optionLeft,80,12860,6,16,0,16,0,1,,,,,,,,,,,,,,,,,,,,,,,,,,,,,,,,,,,,,,,
,,,,,,,,2023-08-06_08h39.12.676,HF_wild_card,2022.2.4,MacIntel,59.98080614,62c4590804317dc197ecbe8a,64ce5acb97489d65b14ecc7a,64cf4b81716b77357ff7deba,,,,,,,decisionTrl,resources/DP.BMP,resources/DR.BMP,Door1,-0.370604409,0.003238413,1,0,0,2.4148,optionLeft,30,12890,6,17,0,17,0,1,,,,,,,,,,,,,,,,,,,,,,,,,,,,,,,,,,,,,,,
,,,,,,,,2023-08-06_08h39.12.676,HF_wild_card,2022.2.4,MacIntel,59.98080614,62c4590804317dc197ecbe8a,64ce5acb97489d65b14ecc7a,64cf4b81716b77357ff7deba,,,,,,,sngl,resources/DB.BMP,resources/Empty.png,Door3,-0.38173453,-0.001044538,1,0,0,1.0457,optionLeft,70,12960,6,18,0,18,0,1,,,,,,,,,,,,,,,,,,,,,,,,,,,,,,,,,,,,,,,
,,,,,,,,2023-08-06_08h39.12.676,HF_wild_card,2022.2.4,MacIntel,59.98080614,62c4590804317dc197ecbe8a,64ce5acb97489d65b14ecc7a,64cf4b81716b77357ff7deba,,,,,,,sngl,resources/Empty.png,resources/DP.BMP,Door1,0.349222925,-0.027982818,1,0,0,1.0921,optionRight,30,12990,6,19,0,19,0,1,,,,,,,,,,,,,,,,,,,,,,,,,,,,,,,,,,,,,,,
,,,,,,,,2023-08-06_08h39.12.676,HF_wild_card,2022.2.4,MacIntel,59.98080614,62c4590804317dc197ecbe8a,64ce5acb97489d65b14ecc7a,64cf4b81716b77357ff7deba,,,,,,,decisionTrl,resources/DY.BMP,resources/DB.BMP,Door3,0.361602677,-0.01572805,1,0,0,1.8333,optionRight,70,13060,6,20,0,20,0,1,,,,,,,,,,,,,,,,,,,,,,,,,,,,,,,,,,,,,,,
,,,,,,,,2023-08-06_08h39.12.676,HF_wild_card,2022.2.4,MacIntel,59.98080614,62c4590804317dc197ecbe8a,64ce5acb97489d65b14ecc7a,64cf4b81716b77357ff7deba,,,,,,,decisionTrl,resources/DB.BMP,resources/DY.BMP,Door3,-0.387534989,0.013429218,1,0,0,1.4461,optionLeft,70,13130,6,21,0,21,0,1,,,,,,,,,,,,,,,,,,,,,,,,,,,,,,,,,,,,,,,
,,,,,,,,2023-08-06_08h39.12.676,HF_wild_card,2022.2.4,MacIntel,59.98080614,62c4590804317dc197ecbe8a,64ce5acb97489d65b14ecc7a,64cf4b81716b77357ff7deba,,,,,,,sngl,resources/Empty.png,resources/DBN.BMP,WildCard_Ex,0.315795687,-0.018070009,1,0,0,0.9991,optionRight,95,13225,6,22,0,22,0,1,,,,,,,,,,,,,,,,,,,,,,,,,,,,,,,,,,,,,,,
,,,,,,,,2023-08-06_08h39.12.676,HF_wild_card,2022.2.4,MacIntel,59.98080614,62c4590804317dc197ecbe8a,64ce5acb97489d65b14ecc7a,64cf4b81716b77357ff7deba,,,,,,,decisionTrl,resources/DBN.BMP,resources/DB.BMP,Door3,0.313862165,-0.02079508,1,0,0,1.6491,optionRight,70,13295,6,23,0,23,0,1,,,,,,,,,,,,,,,,,,,,,,,,,,,,,,,,,,,,,,,
,,,,,,,,2023-08-06_08h39.12.676,HF_wild_card,2022.2.4,MacIntel,59.98080614,62c4590804317dc197ecbe8a,64ce5acb97489d65b14ecc7a,64cf4b81716b77357ff7deba,,,,,,,sngl,resources/DBN.BMP,resources/Empty.png,WildCard_Ex,-0.350233343,0.026050409,1,0,0,1.2956,optionLeft,5,13300,6,24,0,24,0,1,,,,,,,,,,,,,,,,,,,,,,,,,,,,,,,,,,,,,,,
,,,,,,,,2023-08-06_08h39.12.676,HF_wild_card,2022.2.4,MacIntel,59.98080614,62c4590804317dc197ecbe8a,64ce5acb97489d65b14ecc7a,64cf4b81716b77357ff7deba,,,,,,,sngl,resources/DR.BMP,resources/Empty.png,Door2,-0.329926703,0.008113914,1,0,0,1.0932,optionLeft,20,13320,6,25,0,25,0,1,,,,,,,,,,,,,,,,,,,,,,,,,,,,,,,,,,,,,,,
,,,,,,,,2023-08-06_08h39.12.676,HF_wild_card,2022.2.4,MacIntel,59.98080614,62c4590804317dc197ecbe8a,64ce5acb97489d65b14ecc7a,64cf4b81716b77357ff7deba,,,,,,,decisionTrl,resources/DBN.BMP,resources/DP.BMP,Door1,0.348199738,-0.034944057,1,0,0,1.5683,optionRight,30,13350,6,26,0,26,0,1,,,,,,,,,,,,,,,,,,,,,,,,,,,,,,,,,,,,,,,
,,,,,,,,2023-08-06_08h39.12.676,HF_wild_card,2022.2.4,MacIntel,59.98080614,62c4590804317dc197ecbe8a,64ce5acb97489d65b14ecc7a,64cf4b81716b77357ff7deba,,,,,,,ctch,resources/DB.BMP,resources/DR.BMP,Door3,-0.314532121,-0.009579182,1,0,0,2.5477,optionLeft,70,13420,6,27,0,27,0,1,,,,,,,,,,,,,,,,,,,,,,,,,,,,,,,,,,,,,,,
,,,,,,,,2023-08-06_08h39.12.676,HF_wild_card,2022.2.4,MacIntel,59.98080614,62c4590804317dc197ecbe8a,64ce5acb97489d65b14ecc7a,64cf4b81716b77357ff7deba,,,,,,,decisionTrl,resources/DY.BMP,resources/DB.BMP,Door3,0.352091577,-0.031288412,1,0,0,2.1685,optionRight,70,13490,6,28,0,28,0,1,,,,,,,,,,,,,,,,,,,,,,,,,,,,,,,,,,,,,,,
,,,,,,,,2023-08-06_08h39.12.676,HF_wild_card,2022.2.4,MacIntel,59.98080614,62c4590804317dc197ecbe8a,64ce5acb97489d65b14ecc7a,64cf4b81716b77357ff7deba,,,,,,,decisionTrl,resources/DP.BMP,resources/DR.BMP,Door1,-0.361607658,-0.017542574,1,0,0,2.4723,optionLeft,30,13520,6,29,0,29,0,1,,,,,,,,,,,,,,,,,,,,,,,,,,,,,,,,,,,,,,,
,,,,,,,,2023-08-06_08h39.12.676,HF_wild_card,2022.2.4,MacIntel,59.98080614,62c4590804317dc197ecbe8a,64ce5acb97489d65b14ecc7a,64cf4b81716b77357ff7deba,,,,,,,decisionTrl,resources/DB.BMP,resources/DY.BMP,Door3,-0.29935752,-0.01410585,1,0,0,2.5572,optionLeft,70,13590,6,30,0,30,0,1,,,,,,,,,,,,,,,,,,,,,,,,,,,,,,,,,,,,,,,
,,,,,,,,2023-08-06_08h39.12.676,HF_wild_card,2022.2.4,MacIntel,59.98080614,62c4590804317dc197ecbe8a,64ce5acb97489d65b14ecc7a,64cf4b81716b77357ff7deba,,,,,,,decisionTrl,resources/DB.BMP,resources/DY.BMP,Door3,-0.257271131,-0.005515893,1,0,0,1.7634,optionLeft,70,13660,6,31,0,31,0,1,,,,,,,,,,,,,,,,,,,,,,,,,,,,,,,,,,,,,,,
,,,,,,,,2023-08-06_08h39.12.676,HF_wild_card,2022.2.4,MacIntel,59.98080614,62c4590804317dc197ecbe8a,64ce5acb97489d65b14ecc7a,64cf4b81716b77357ff7deba,,,,,,,decisionTrl,resources/DP.BMP,resources/DR.BMP,Door1,-0.327445295,-0.0125103,1,0,0,4.0005,optionLeft,30,13690,6,32,0,32,0,1,,,,,,,,,,,,,,,,,,,,,,,,,,,,,,,,,,,,,,,
,,,,,,,,2023-08-06_08h39.12.676,HF_wild_card,2022.2.4,MacIntel,59.98080614,62c4590804317dc197ecbe8a,64ce5acb97489d65b14ecc7a,64cf4b81716b77357ff7deba,,,,,,,sngl,resources/Empty.png,resources/DB.BMP,Door3,0.31001642,-0.028821892,1,0,0,1.2821,optionRight,70,13760,6,33,0,33,0,1,,,,,,,,,,,,,,,,,,,,,,,,,,,,,,,,,,,,,,,
,,,,,,,,2023-08-06_08h39.12.676,HF_wild_card,2022.2.4,MacIntel,59.98080614,62c4590804317dc197ecbe8a,64ce5acb97489d65b14ecc7a,64cf4b81716b77357ff7deba,,,,,,,ctch,resources/DB.BMP,resources/DR.BMP,Door3,-0.335762342,-0.005157577,1,0,0,1.9074,optionLeft,70,13830,6,34,0,34,0,1,,,,,,,,,,,,,,,,,,,,,,,,,,,,,,,,,,,,,,,
,,,,,,,,2023-08-06_08h39.12.676,HF_wild_card,2022.2.4,MacIntel,59.98080614,62c4590804317dc197ecbe8a,64ce5acb97489d65b14ecc7a,64cf4b81716b77357ff7deba,,,,,,,decisionTrl,resources/DR.BMP,resources/DP.BMP,Door1,0.311155637,-0.010341538,1,0,0,1.9795,optionRight,30,13860,6,35,0,35,0,1,,,,,,,,,,,,,,,,,,,,,,,,,,,,,,,,,,,,,,,
,,,,,,,,2023-08-06_08h39.12.676,HF_wild_card,2022.2.4,MacIntel,59.98080614,62c4590804317dc197ecbe8a,64ce5acb97489d65b14ecc7a,64cf4b81716b77357ff7deba,,,,,,,decisionTrl,resources/DR.BMP,resources/DP.BMP,Door1,0.387631522,-0.033707619,1,0,0,2.538,optionRight,30,13890,6,36,0,36,0,1,,,,,,,,,,,,,,,,,,,,,,,,,,,,,,,,,,,,,,,
,,,,,,,,2023-08-06_08h39.12.676,HF_wild_card,2022.2.4,MacIntel,59.98080614,62c4590804317dc197ecbe8a,64ce5acb97489d65b14ecc7a,64cf4b81716b77357ff7deba,,,,,,,ctch,resources/DR.BMP,resources/DB.BMP,Door3,0.30786864,-0.025132603,1,0,0,1.4824,optionRight,70,13960,6,37,0,37,0,1,,,,,,,,,,,,,,,,,,,,,,,,,,,,,,,,,,,,,,,
,,,,,,,,2023-08-06_08h39.12.676,HF_wild_card,2022.2.4,MacIntel,59.98080614,62c4590804317dc197ecbe8a,64ce5acb97489d65b14ecc7a,64cf4b81716b77357ff7deba,,,,,,,sngl,resources/DP.BMP,resources/Empty.png,Door1,-0.380337609,0.008185705,1,0,0,1.034,optionLeft,30,13990,6,38,0,38,0,1,,,,,,,,,,,,,,,,,,,,,,,,,,,,,,,,,,,,,,,
,,,,,,,,2023-08-06_08h39.12.676,HF_wild_card,2022.2.4,MacIntel,59.98080614,62c4590804317dc197ecbe8a,64ce5acb97489d65b14ecc7a,64cf4b81716b77357ff7deba,,,,,,,ctch,resources/DR.BMP,resources/DB.BMP,Door3,0.350791083,-0.019351217,1,0,0,1.4137,optionRight,70,14060,6,39,0,39,0,1,,,,,,,,,,,,,,,,,,,,,,,,,,,,,,,,,,,,,,,
,,,,,,,,2023-08-06_08h39.12.676,HF_wild_card,2022.2.4,MacIntel,59.98080614,62c4590804317dc197ecbe8a,64ce5acb97489d65b14ecc7a,64cf4b81716b77357ff7deba,,,,,,,decisionTrl,resources/DY.BMP,resources/DB.BMP,Door4,-0.292802175,0.013279226,1,0,0,4.7261,optionLeft,60,14120,6,40,0,40,0,1,,,,,,,,,,,,,,,,,,,,,,,,,,,,,,,,,,,,,,,
,,,,,,,,2023-08-06_08h39.12.676,HF_wild_card,2022.2.4,MacIntel,59.98080614,62c4590804317dc197ecbe8a,64ce5acb97489d65b14ecc7a,64cf4b81716b77357ff7deba,,,,,,,decisionTrl,resources/DB.BMP,resources/DBN.BMP,Door3,-0.378432804,0.001826445,1,0,0,1.7609,optionLeft,70,14190,6,41,0,41,0,1,,,,,,,,,,,,,,,,,,,,,,,,,,,,,,,,,,,,,,,
,,,,,,,,2023-08-06_08h39.12.676,HF_wild_card,2022.2.4,MacIntel,59.98080614,62c4590804317dc197ecbe8a,64ce5acb97489d65b14ecc7a,64cf4b81716b77357ff7deba,,,,,,,decisionTrl,resources/DR.BMP,resources/DP.BMP,Door1,0.287630611,-0.017135779,1,0,0,1.6354,optionRight,30,14220,6,42,0,42,0,1,,,,,,,,,,,,,,,,,,,,,,,,,,,,,,,,,,,,,,,
,,,,,,,,2023-08-06_08h39.12.676,HF_wild_card,2022.2.4,MacIntel,59.98080614,62c4590804317dc197ecbe8a,64ce5acb97489d65b14ecc7a,64cf4b81716b77357ff7deba,,,,,,,sngl,resources/Empty.png,resources/DR.BMP,Door2,0.296313604,-0.022880554,1,0,0,1.1816,optionRight,40,14260,6,43,0,43,0,1,,,,,,,,,,,,,,,,,,,,,,,,,,,,,,,,,,,,,,,
,,,,,,,,2023-08-06_08h39.12.676,HF_wild_card,2022.2.4,MacIntel,59.98080614,62c4590804317dc197ecbe8a,64ce5acb97489d65b14ecc7a,64cf4b81716b77357ff7deba,,,,,,,,,,,,,,,,,,,,,,,,,,5,0,5,0,1,,,,,,,,,,,,,,,,,,,,,,,,,,,,,,,,,,
,,,,,,,,2023-08-06_08h39.12.676,HF_wild_card,2022.2.4,MacIntel,59.98080614,62c4590804317dc197ecbe8a,64ce5acb97489d65b14ecc7a,64cf4b81716b77357ff7deba,,,,,,,decisionTrl,resources/DR.BMP,resources/DP.BMP,Door1,0.383330451,-0.105203576,1,0,0,5.9245,optionRight,30,14290,7,0,0,0,0,1,,,,,,,,,,,,,,,,,,,,,,,,,,,,,,,,,,,,,,,
,,,,,,,,2023-08-06_08h39.12.676,HF_wild_card,2022.2.4,MacIntel,59.98080614,62c4590804317dc197ecbe8a,64ce5acb97489d65b14ecc7a,64cf4b81716b77357ff7deba,,,,,,,decisionTrl,resources/DB.BMP,resources/DY.BMP,Door3,-0.385996183,-0.060544968,1,0,0,2.9181,optionLeft,70,14360,7,1,0,1,0,1,,,,,,,,,,,,,,,,,,,,,,,,,,,,,,,,,,,,,,,
,,,,,,,,2023-08-06_08h39.12.676,HF_wild_card,2022.2.4,MacIntel,59.98080614,62c4590804317dc197ecbe8a,64ce5acb97489d65b14ecc7a,64cf4b81716b77357ff7deba,,,,,,,ctch,resources/DP.BMP,resources/DY.BMP,Door4,0.381418546,-0.020024512,1,0,0,2.031,optionRight,60,14420,7,2,0,2,0,1,,,,,,,,,,,,,,,,,,,,,,,,,,,,,,,,,,,,,,,
,,,,,,,,2023-08-06_08h39.12.676,HF_wild_card,2022.2.4,MacIntel,59.98080614,62c4590804317dc197ecbe8a,64ce5acb97489d65b14ecc7a,64cf4b81716b77357ff7deba,,,,,,,decisionTrl,resources/DY.BMP,resources/DB.BMP,Door3,0.334473398,-0.019272698,1,0,0,2.2616,optionRight,70,14490,7,3,0,3,0,1,,,,,,,,,,,,,,,,,,,,,,,,,,,,,,,,,,,,,,,
,,,,,,,,2023-08-06_08h39.12.676,HF_wild_card,2022.2.4,MacIntel,59.98080614,62c4590804317dc197ecbe8a,64ce5acb97489d65b14ecc7a,64cf4b81716b77357ff7deba,,,,,,,decisionTrl,resources/DB.BMP,resources/DY.BMP,Door3,-0.296391434,-0.002707058,1,0,0,1.6485,optionLeft,70,14560,7,4,0,4,0,1,,,,,,,,,,,,,,,,,,,,,,,,,,,,,,,,,,,,,,,
,,,,,,,,2023-08-06_08h39.12.676,HF_wild_card,2022.2.4,MacIntel,59.98080614,62c4590804317dc197ecbe8a,64ce5acb97489d65b14ecc7a,64cf4b81716b77357ff7deba,,,,,,,decisionTrl,resources/DR.BMP,resources/DP.BMP,Door1,0.320767085,-0.020631366,1,0,0,1.9096,optionRight,30,14590,7,5,0,5,0,1,,,,,,,,,,,,,,,,,,,,,,,,,,,,,,,,,,,,,,,
,,,,,,,,2023-08-06_08h39.12.676,HF_wild_card,2022.2.4,MacIntel,59.98080614,62c4590804317dc197ecbe8a,64ce5acb97489d65b14ecc7a,64cf4b81716b77357ff7deba,,,,,,,decisionTrl,resources/DP.BMP,resources/DR.BMP,Door1,-0.389911864,-0.004989253,1,0,0,1.7796,optionLeft,30,14620,7,6,0,6,0,1,,,,,,,,,,,,,,,,,,,,,,,,,,,,,,,,,,,,,,,
,,,,,,,,2023-08-06_08h39.12.676,HF_wild_card,2022.2.4,MacIntel,59.98080614,62c4590804317dc197ecbe8a,64ce5acb97489d65b14ecc7a,64cf4b81716b77357ff7deba,,,,,,,ctch,resources/DP.BMP,resources/DY.BMP,Door4,0.370001369,-0.017446783,1,0,0,1.4124,optionRight,80,14700,7,7,0,7,0,1,,,,,,,,,,,,,,,,,,,,,,,,,,,,,,,,,,,,,,,
,,,,,,,,2023-08-06_08h39.12.676,HF_wild_card,2022.2.4,MacIntel,59.98080614,62c4590804317dc197ecbe8a,64ce5acb97489d65b14ecc7a,64cf4b81716b77357ff7deba,,,,,,,decisionTrl,resources/DY.BMP,resources/DB.BMP,Door3,0.31591426,-0.011470318,1,0,0,1.735,optionRight,70,14770,7,8,0,8,0,1,,,,,,,,,,,,,,,,,,,,,,,,,,,,,,,,,,,,,,,
,,,,,,,,2023-08-06_08h39.12.676,HF_wild_card,2022.2.4,MacIntel,59.98080614,62c4590804317dc197ecbe8a,64ce5acb97489d65b14ecc7a,64cf4b81716b77357ff7deba,,,,,,,decisionTrl,resources/DP.BMP,resources/DR.BMP,Door1,-0.344543457,-0.011170652,1,0,0,1.6801,optionLeft,30,14800,7,9,0,9,0,1,,,,,,,,,,,,,,,,,,,,,,,,,,,,,,,,,,,,,,,
,,,,,,,,2023-08-06_08h39.12.676,HF_wild_card,2022.2.4,MacIntel,59.98080614,62c4590804317dc197ecbe8a,64ce5acb97489d65b14ecc7a,64cf4b81716b77357ff7deba,,,,,,,ctch,resources/DB.BMP,resources/DR.BMP,Door3,-0.32744111,-0.016443094,1,0,0,1.362,optionLeft,70,14870,7,10,0,10,0,1,,,,,,,,,,,,,,,,,,,,,,,,,,,,,,,,,,,,,,,
,,,,,,,,2023-08-06_08h39.12.676,HF_wild_card,2022.2.4,MacIntel,59.98080614,62c4590804317dc197ecbe8a,64ce5acb97489d65b14ecc7a,64cf4b81716b77357ff7deba,,,,,,,decisionTrl,resources/DY.BMP,resources/DB.BMP,Door3,0.352930811,-0.018470976,1,0,0,1.9661,optionRight,70,14940,7,11,0,11,0,1,,,,,,,,,,,,,,,,,,,,,,,,,,,,,,,,,,,,,,,
,,,,,,,,2023-08-06_08h39.12.676,HF_wild_card,2022.2.4,MacIntel,59.98080614,62c4590804317dc197ecbe8a,64ce5acb97489d65b14ecc7a,64cf4b81716b77357ff7deba,,,,,,,ctch,resources/DB.BMP,resources/DR.BMP,Door3,-0.295552837,-0.006164392,1,0,0,2.0346,optionLeft,70,15010,7,12,0,12,0,1,,,,,,,,,,,,,,,,,,,,,,,,,,,,,,,,,,,,,,,
,,,,,,,,2023-08-06_08h39.12.676,HF_wild_card,2022.2.4,MacIntel,59.98080614,62c4590804317dc197ecbe8a,64ce5acb97489d65b14ecc7a,64cf4b81716b77357ff7deba,,,,,,,ctch,resources/DR.BMP,resources/DB.BMP,Door3,0.383766068,-0.031100962,1,0,0,1.4156,optionRight,70,15080,7,13,0,13,0,1,,,,,,,,,,,,,,,,,,,,,,,,,,,,,,,,,,,,,,,
,,,,,,,,2023-08-06_08h39.12.676,HF_wild_card,2022.2.4,MacIntel,59.98080614,62c4590804317dc197ecbe8a,64ce5acb97489d65b14ecc7a,64cf4b81716b77357ff7deba,,,,,,,ctch,resources/DY.BMP,resources/DP.BMP,Door4,-0.359811094,-0.014876472,1,0,0,1.8296,optionLeft,60,15140,7,14,0,14,0,1,,,,,,,,,,,,,,,,,,,,,,,,,,,,,,,,,,,,,,,
,,,,,,,,2023-08-06_08h39.12.676,HF_wild_card,2022.2.4,MacIntel,59.98080614,62c4590804317dc197ecbe8a,64ce5acb97489d65b14ecc7a,64cf4b81716b77357ff7deba,,,,,,,decisionTrl,resources/DR.BMP,resources/DP.BMP,Door1,0.350965182,-0.026410792,1,0,0,2.0147,optionRight,30,15170,7,15,0,15,0,1,,,,,,,,,,,,,,,,,,,,,,,,,,,,,,,,,,,,,,,
,,,,,,,,2023-08-06_08h39.12.676,HF_wild_card,2022.2.4,MacIntel,59.98080614,62c4590804317dc197ecbe8a,64ce5acb97489d65b14ecc7a,64cf4b81716b77357ff7deba,,,,,,,decisionTrl,resources/DY.BMP,resources/DB.BMP,Door3,0.356318474,-0.007608096,1,0,0,1.4333,optionRight,70,15240,7,16,0,16,0,1,,,,,,,,,,,,,,,,,,,,,,,,,,,,,,,,,,,,,,,
,,,,,,,,2023-08-06_08h39.12.676,HF_wild_card,2022.2.4,MacIntel,59.98080614,62c4590804317dc197ecbe8a,64ce5acb97489d65b14ecc7a,64cf4b81716b77357ff7deba,,,,,,,decisionTrl,resources/DR.BMP,resources/DP.BMP,Door1,0.357226372,-0.004440255,1,0,0,1.6423,optionRight,30,15270,7,17,0,17,0,1,,,,,,,,,,,,,,,,,,,,,,,,,,,,,,,,,,,,,,,
,,,,,,,,2023-08-06_08h39.12.676,HF_wild_card,2022.2.4,MacIntel,59.98080614,62c4590804317dc197ecbe8a,64ce5acb97489d65b14ecc7a,64cf4b81716b77357ff7deba,,,,,,,decisionTrl,resources/DB.BMP,resources/DY.BMP,Door3,-0.369919353,-0.027097543,1,0,0,1.9823,optionLeft,70,15340,7,18,0,18,0,1,,,,,,,,,,,,,,,,,,,,,,,,,,,,,,,,,,,,,,,
,,,,,,,,2023-08-06_08h39.12.676,HF_wild_card,2022.2.4,MacIntel,59.98080614,62c4590804317dc197ecbe8a,64ce5acb97489d65b14ecc7a,64cf4b81716b77357ff7deba,,,,,,,ctch,resources/DR.BMP,resources/DB.BMP,Door3,0.338916673,-0.01555766,1,0,0,1.9135,optionRight,70,15410,7,19,0,19,0,1,,,,,,,,,,,,,,,,,,,,,,,,,,,,,,,,,,,,,,,
,,,,,,,,2023-08-06_08h39.12.676,HF_wild_card,2022.2.4,MacIntel,59.98080614,62c4590804317dc197ecbe8a,64ce5acb97489d65b14ecc7a,64cf4b81716b77357ff7deba,,,,,,,decisionTrl,resources/DY.BMP,resources/DB.BMP,Door3,0.405286047,-0.028437191,1,0,0,1.3154,optionRight,70,15480,7,20,0,20,0,1,,,,,,,,,,,,,,,,,,,,,,,,,,,,,,,,,,,,,,,
,,,,,,,,2023-08-06_08h39.12.676,HF_wild_card,2022.2.4,MacIntel,59.98080614,62c4590804317dc197ecbe8a,64ce5acb97489d65b14ecc7a,64cf4b81716b77357ff7deba,,,,,,,ctch,resources/DB.BMP,resources/DR.BMP,Door3,-0.313601388,-0.023237175,1,0,0,1.3145,optionLeft,70,15550,7,21,0,21,0,1,,,,,,,,,,,,,,,,,,,,,,,,,,,,,,,,,,,,,,,
,,,,,,,,2023-08-06_08h39.12.676,HF_wild_card,2022.2.4,MacIntel,59.98080614,62c4590804317dc197ecbe8a,64ce5acb97489d65b14ecc7a,64cf4b81716b77357ff7deba,,,,,,,decisionTrl,resources/DP.BMP,resources/DR.BMP,Door1,-0.305191093,-0.036986616,1,0,0,1.7949,optionLeft,30,15580,7,22,0,22,0,1,,,,,,,,,,,,,,,,,,,,,,,,,,,,,,,,,,,,,,,
,,,,,,,,2023-08-06_08h39.12.676,HF_wild_card,2022.2.4,MacIntel,59.98080614,62c4590804317dc197ecbe8a,64ce5acb97489d65b14ecc7a,64cf4b81716b77357ff7deba,,,,,,,decisionTrl,resources/DY.BMP,resources/DB.BMP,Door3,0.303892136,-0.003840499,1,0,0,1.6301,optionRight,70,15650,7,23,0,23,0,1,,,,,,,,,,,,,,,,,,,,,,,,,,,,,,,,,,,,,,,
,,,,,,,,2023-08-06_08h39.12.676,HF_wild_card,2022.2.4,MacIntel,59.98080614,62c4590804317dc197ecbe8a,64ce5acb97489d65b14ecc7a,64cf4b81716b77357ff7deba,,,,,,,ctch,resources/DP.BMP,resources/DY.BMP,Door4,0.366998461,0.002609518,1,0,0,1.319,optionRight,60,15710,7,24,0,24,0,1,,,,,,,,,,,,,,,,,,,,,,,,,,,,,,,,,,,,,,,
,,,,,,,,2023-08-06_08h39.12.676,HF_wild_card,2022.2.4,MacIntel,59.98080614,62c4590804317dc197ecbe8a,64ce5acb97489d65b14ecc7a,64cf4b81716b77357ff7deba,,,,,,,decisionTrl,resources/DP.BMP,resources/DR.BMP,Door1,-0.430799007,-0.001807425,1,0,0,2.2267,optionLeft,30,15740,7,25,0,25,0,1,,,,,,,,,,,,,,,,,,,,,,,,,,,,,,,,,,,,,,,
,,,,,,,,2023-08-06_08h39.12.676,HF_wild_card,2022.2.4,MacIntel,59.98080614,62c4590804317dc197ecbe8a,64ce5acb97489d65b14ecc7a,64cf4b81716b77357ff7deba,,,,,,,decisionTrl,resources/DR.BMP,resources/DP.BMP,Door1,0.397945828,-0.039065891,1,0,0,1.7853,optionRight,30,15770,7,26,0,26,0,1,,,,,,,,,,,,,,,,,,,,,,,,,,,,,,,,,,,,,,,
,,,,,,,,2023-08-06_08h39.12.676,HF_wild_card,2022.2.4,MacIntel,59.98080614,62c4590804317dc197ecbe8a,64ce5acb97489d65b14ecc7a,64cf4b81716b77357ff7deba,,,,,,,ctch,resources/DR.BMP,resources/DB.BMP,Door3,0.291305012,-0.011057218,1,0,0,1.5552,optionRight,70,15840,7,27,0,27,0,1,,,,,,,,,,,,,,,,,,,,,,,,,,,,,,,,,,,,,,,
,,,,,,,,2023-08-06_08h39.12.676,HF_wild_card,2022.2.4,MacIntel,59.98080614,62c4590804317dc197ecbe8a,64ce5acb97489d65b14ecc7a,64cf4b81716b77357ff7deba,,,,,,,ctch,resources/DY.BMP,resources/DP.BMP,Door4,-0.295387692,0.001951642,1,0,0,1.9059,optionLeft,60,15900,7,28,0,28,0,1,,,,,,,,,,,,,,,,,,,,,,,,,,,,,,,,,,,,,,,
,,,,,,,,2023-08-06_08h39.12.676,HF_wild_card,2022.2.4,MacIntel,59.98080614,62c4590804317dc197ecbe8a,64ce5acb97489d65b14ecc7a,64cf4b81716b77357ff7deba,,,,,,,decisionTrl,resources/DP.BMP,resources/DR.BMP,Door1,-0.37928666,0.003274494,1,0,0,1.5088,optionLeft,30,15930,7,29,0,29,0,1,,,,,,,,,,,,,,,,,,,,,,,,,,,,,,,,,,,,,,,
,,,,,,,,2023-08-06_08h39.12.676,HF_wild_card,2022.2.4,MacIntel,59.98080614,62c4590804317dc197ecbe8a,64ce5acb97489d65b14ecc7a,64cf4b81716b77357ff7deba,,,,,,,decisionTrl,resources/DR.BMP,resources/DP.BMP,Door1,0.368061278,-0.027494854,1,0,0,1.372,optionRight,30,15960,7,30,0,30,0,1,,,,,,,,,,,,,,,,,,,,,,,,,,,,,,,,,,,,,,,
,,,,,,,,2023-08-06_08h39.12.676,HF_wild_card,2022.2.4,MacIntel,59.98080614,62c4590804317dc197ecbe8a,64ce5acb97489d65b14ecc7a,64cf4b81716b77357ff7deba,,,,,,,decisionTrl,resources/DB.BMP,resources/DY.BMP,Door3,-0.373705864,-0.00751702,1,0,0,1.977,optionLeft,70,16030,7,31,0,31,0,1,,,,,,,,,,,,,,,,,,,,,,,,,,,,,,,,,,,,,,,
,,,,,,,,2023-08-06_08h39.12.676,HF_wild_card,2022.2.4,MacIntel,59.98080614,62c4590804317dc197ecbe8a,64ce5acb97489d65b14ecc7a,64cf4b81716b77357ff7deba,,,,,,,decisionTrl,resources/DB.BMP,resources/DY.BMP,Door3,-0.50671143,-0.000324673,1,0,0,2.0362,optionLeft,70,16100,7,32,0,32,0,1,,,,,,,,,,,,,,,,,,,,,,,,,,,,,,,,,,,,,,,
,,,,,,,,2023-08-06_08h39.12.676,HF_wild_card,2022.2.4,MacIntel,59.98080614,62c4590804317dc197ecbe8a,64ce5acb97489d65b14ecc7a,64cf4b81716b77357ff7deba,,,,,,,decisionTrl,resources/DP.BMP,resources/DR.BMP,Door1,-0.313493623,0.006419182,1,0,0,1.5536,optionLeft,30,16130,7,33,0,33,0,1,,,,,,,,,,,,,,,,,,,,,,,,,,,,,,,,,,,,,,,
,,,,,,,,2023-08-06_08h39.12.676,HF_wild_card,2022.2.4,MacIntel,59.98080614,62c4590804317dc197ecbe8a,64ce5acb97489d65b14ecc7a,64cf4b81716b77357ff7deba,,,,,,,ctch,resources/DY.BMP,resources/DP.BMP,Door4,-0.365559154,0.013440609,1,0,0,1.7542,optionLeft,60,16190,7,34,0,34,0,1,,,,,,,,,,,,,,,,,,,,,,,,,,,,,,,,,,,,,,,
,,,,,,,,2023-08-06_08h39.12.676,HF_wild_card,2022.2.4,MacIntel,59.98080614,62c4590804317dc197ecbe8a,64ce5acb97489d65b14ecc7a,64cf4b81716b77357ff7deba,,,,,,,decisionTrl,resources/DB.BMP,resources/DY.BMP,Door3,-0.345172352,-0.002261586,1,0,0,1.7466,optionLeft,70,16260,7,35,0,35,0,1,,,,,,,,,,,,,,,,,,,,,,,,,,,,,,,,,,,,,,,
,,,,,,,,2023-08-06_08h39.12.676,HF_wild_card,2022.2.4,MacIntel,59.98080614,62c4590804317dc197ecbe8a,64ce5acb97489d65b14ecc7a,64cf4b81716b77357ff7deba,,,,,,,,,,,,,,,,,,,,,,,,,,6,0,6,0,1,,,,,,,,,,,,,,,,,,,,,,,,,,,,,,,,,,
,,,,,,,,2023-08-06_08h39.12.676,HF_wild_card,2022.2.4,MacIntel,59.98080614,62c4590804317dc197ecbe8a,64ce5acb97489d65b14ecc7a,64cf4b81716b77357ff7deba,,,,,,,,,,,,,,,,,,,,,,,,,,,,,,,4,,,,,,,,,,,,,,,,,,,,,,,,,,,,,,,,,
,,,,,,,,2023-08-06_08h39.12.676,HF_wild_card,2022.2.4,MacIntel,59.98080614,62c4590804317dc197ecbe8a,64ce5acb97489d65b14ecc7a,64cf4b81716b77357ff7deba,,,,,,,,,,,,,,,,,,,,,,,,,,,,,,,,,,,,,,,,,,,,,,,,,,,,,,,,,,,,,,,,
,,,,,,,,2023-08-06_08h39.12.676,HF_wild_card,2022.2.4,MacIntel,59.98080614,62c4590804317dc197ecbe8a,64ce5acb97489d65b14ecc7a,64cf4b81716b77357ff7deba,,,,,,,,,,,,,,,,,,,,,,,,,,,,,,,,20,Door2,resources/DR.BMP,0,0,0,0,1,,,,,,,,,,,,,,,,,,,,,,,,,
,,,,,,,,2023-08-06_08h39.12.676,HF_wild_card,2022.2.4,MacIntel,59.98080614,62c4590804317dc197ecbe8a,64ce5acb97489d65b14ecc7a,64cf4b81716b77357ff7deba,,,,,,,,,,,,,,,,,,,,,,,,,,,,,,,,30,Door1,resources/DP.BMP,1,0,1,0,1,,,,,,,,,,,,,,,,,,,,,,,,,
,,,,,,,,2023-08-06_08h39.12.676,HF_wild_card,2022.2.4,MacIntel,59.98080614,62c4590804317dc197ecbe8a,64ce5acb97489d65b14ecc7a,64cf4b81716b77357ff7deba,,,,,,,,,,,,,,,,,,,,,,,,,,,,,,,,5,WC_extreme,resources/DBN.BMP,2,0,2,0,1,,,,,,,,,,,,,,,,,,,,,,,,,
