Condition,Low fixed image (Door1),Low risky image (Door2),High fixed image (Door3),High risky image (Door4),Extreme Wild Card,NonExtreme Wild Card,,date,expName,psychopyVersion,OS,frameRate,PROLIFIC_PID,STUDY_ID,SESSION_ID,mouse_2.x,mouse_2.y,mouse_2.leftButton,mouse_2.midButton,mouse_2.rightButton,mouse_2.clicked_name,Trial Type,Left Option Image,Right Option Image,Chosen Door,mouse.x,mouse.y,mouse.leftButton,mouse.midButton,mouse.rightButton,mouse.time,mouse.clicked_name,Feedback,Cumulative Reward,Block,trial.thisRepN,trial.thisTrialN,trial.thisN,trial.thisIndex,trial.ran,blocks.thisRepN,blocks.thisTrialN,blocks.thisN,blocks.thisIndex,blocks.ran,Money conversion,First Outcome Reported,Shown Door (First Outcome),Displayed Image (First Outcome),outcomes.thisRepN,outcomes.thisTrialN,outcomes.thisN,outcomes.thisIndex,outcomes.ran,judgments.thisRepN,judgments.thisTrialN,judgments.thisN,judgments.thisIndex,judgments.ran,freqMouse.x,freqMouse.y,freqMouse.leftButton,freqMouse.midButton,freqMouse.rightButton,freqMouse.clicked_name,trials.thisRepN,trials.thisTrialN,trials.thisN,trials.thisIndex,trials.ran,FQJ for first outcome,FQJ for second outcome,Shown Door,Displayed Image,judgBlock.thisRepN,judgBlock.thisTrialN,judgBlock.thisN,judgBlock.thisIndex,judgBlock.ran
1,resources/DR.BMP,resources/DBN.BMP,resources/DG.BMP,resources/DB.BMP,resources/DY.BMP,resources/DP.BMP,,2023-08-16_08h55.29.186,HF_wild_card,2022.2.4,Win32,60.16485169,62c5d1d54710819b63aceb4e,64d2fd46c836a06233681665,64dc80deedc9348eafb5d49b,,,,,,,,,,,,,,,,,,,,,,,,,,,,,,,,,,,,,,,,,,,,,,,,,,,,,,,,,,,,,,,,
,,,,,,,,2023-08-16_08h55.29.186,HF_wild_card,2022.2.4,Win32,60.16485169,62c5d1d54710819b63aceb4e,64d2fd46c836a06233681665,64dc80deedc9348eafb5d49b,0.013888889,-0.426851908,1,0,0,agree,,,,,,,,,,,,,,,,,,,,,,,,,,,,,,,,,,,,,,,,,,,,,,,,,,,,,,,,,,
,,,,,,,,2023-08-16_08h55.29.186,HF_wild_card,2022.2.4,Win32,60.16485169,62c5d1d54710819b63aceb4e,64d2fd46c836a06233681665,64dc80deedc9348eafb5d49b,,,,,,,,,,,,,,,,,,,,,,,,,,,,,,,,,,,,,,,,,,,,,,,,,,,,,,,,,,,,,,,,
,,,,,,,,2023-08-16_08h55.29.186,HF_wild_card,2022.2.4,Win32,60.16485169,62c5d1d54710819b63aceb4e,64d2fd46c836a06233681665,64dc80deedc9348eafb5d49b,,,,,,,ctch,resources/DB.BMP,resources/DR.BMP,Door1,0.347222222,-0.060185199,1,0,0,2.7094,optionRight,30,30,1,0,0,0,0,1,,,,,,,,,,,,,,,,,,,,,,,,,,,,,,,,,,,,,,,
,,,,,,,,2023-08-16_08h55.29.186,HF_wild_card,2022.2.4,Win32,60.16485169,62c5d1d54710819b63aceb4e,64d2fd46c836a06233681665,64dc80deedc9348eafb5d49b,,,,,,,ctch,resources/DBN.BMP,resources/DG.BMP,Door2,-0.404629601,0.00370369,1,0,0,2.7201,optionLeft,20,50,1,1,0,1,0,1,,,,,,,,,,,,,,,,,,,,,,,,,,,,,,,,,,,,,,,
,,,,,,,,2023-08-16_08h55.29.186,HF_wild_card,2022.2.4,Win32,60.16485169,62c5d1d54710819b63aceb4e,64d2fd46c836a06233681665,64dc80deedc9348eafb5d49b,,,,,,,decisionTrl,resources/DB.BMP,resources/DG.BMP,Door4,-0.276851824,-0.025,1,0,0,1.6084,optionLeft,80,130,1,2,0,2,0,1,,,,,,,,,,,,,,,,,,,,,,,,,,,,,,,,,,,,,,,
,,,,,,,,2023-08-16_08h55.29.186,HF_wild_card,2022.2.4,Win32,60.16485169,62c5d1d54710819b63aceb4e,64d2fd46c836a06233681665,64dc80deedc9348eafb5d49b,,,,,,,decisionTrl,resources/DB.BMP,resources/DG.BMP,Door3,0.286111111,-0.019444444,1,0,0,1.2942,optionRight,70,200,1,3,0,3,0,1,,,,,,,,,,,,,,,,,,,,,,,,,,,,,,,,,,,,,,,
,,,,,,,,2023-08-16_08h55.29.186,HF_wild_card,2022.2.4,Win32,60.16485169,62c5d1d54710819b63aceb4e,64d2fd46c836a06233681665,64dc80deedc9348eafb5d49b,,,,,,,decisionTrl,resources/DBN.BMP,resources/DR.BMP,Door2,-0.255555556,0.000925912,1,0,0,1.5322,optionLeft,20,220,1,4,0,4,0,1,,,,,,,,,,,,,,,,,,,,,,,,,,,,,,,,,,,,,,,
,,,,,,,,2023-08-16_08h55.29.186,HF_wild_card,2022.2.4,Win32,60.16485169,62c5d1d54710819b63aceb4e,64d2fd46c836a06233681665,64dc80deedc9348eafb5d49b,,,,,,,sngl,resources/DB.BMP,resources/Empty.png,Door4,-0.298148134,0.001851824,1,0,0,1.0241,optionLeft,80,300,1,5,0,5,0,1,,,,,,,,,,,,,,,,,,,,,,,,,,,,,,,,,,,,,,,
,,,,,,,,2023-08-16_08h55.29.186,HF_wild_card,2022.2.4,Win32,60.16485169,62c5d1d54710819b63aceb4e,64d2fd46c836a06233681665,64dc80deedc9348eafb5d49b,,,,,,,sngl,resources/DG.BMP,resources/Empty.png,Door3,-0.267592578,0.004629601,1,0,0,0.5769,optionLeft,70,370,1,6,0,6,0,1,,,,,,,,,,,,,,,,,,,,,,,,,,,,,,,,,,,,,,,
,,,,,,,,2023-08-16_08h55.29.186,HF_wild_card,2022.2.4,Win32,60.16485169,62c5d1d54710819b63aceb4e,64d2fd46c836a06233681665,64dc80deedc9348eafb5d49b,,,,,,,ctch,resources/DR.BMP,resources/DB.BMP,Door4,0.25648151,-0.004629644,1,0,0,0.6986,optionRight,60,430,1,7,0,7,0,1,,,,,,,,,,,,,,,,,,,,,,,,,,,,,,,,,,,,,,,
,,,,,,,,2023-08-16_08h55.29.186,HF_wild_card,2022.2.4,Win32,60.16485169,62c5d1d54710819b63aceb4e,64d2fd46c836a06233681665,64dc80deedc9348eafb5d49b,,,,,,,decisionTrl,resources/DG.BMP,resources/DB.BMP,Door3,-0.290740712,0.037962935,1,0,0,0.5069,optionLeft,70,500,1,8,0,8,0,1,,,,,,,,,,,,,,,,,,,,,,,,,,,,,,,,,,,,,,,
,,,,,,,,2023-08-16_08h55.29.186,HF_wild_card,2022.2.4,Win32,60.16485169,62c5d1d54710819b63aceb4e,64d2fd46c836a06233681665,64dc80deedc9348eafb5d49b,,,,,,,decisionTrl,resources/DP.BMP,resources/DB.BMP,Door4,0.215740797,0.000925912,1,0,0,1.393,optionRight,60,560,1,9,0,9,0,1,,,,,,,,,,,,,,,,,,,,,,,,,,,,,,,,,,,,,,,
,,,,,,,,2023-08-16_08h55.29.186,HF_wild_card,2022.2.4,Win32,60.16485169,62c5d1d54710819b63aceb4e,64d2fd46c836a06233681665,64dc80deedc9348eafb5d49b,,,,,,,decisionTrl,resources/DBN.BMP,resources/DR.BMP,Door2,-0.165740712,-0.002777778,1,0,0,1.2431,optionLeft,20,580,1,10,0,10,0,1,,,,,,,,,,,,,,,,,,,,,,,,,,,,,,,,,,,,,,,
,,,,,,,,2023-08-16_08h55.29.186,HF_wild_card,2022.2.4,Win32,60.16485169,62c5d1d54710819b63aceb4e,64d2fd46c836a06233681665,64dc80deedc9348eafb5d49b,,,,,,,decisionTrl,resources/DR.BMP,resources/DP.BMP,Door1,-0.302777778,-0.008333333,1,0,0,1.0233,optionLeft,30,610,1,11,0,11,0,1,,,,,,,,,,,,,,,,,,,,,,,,,,,,,,,,,,,,,,,
,,,,,,,,2023-08-16_08h55.29.186,HF_wild_card,2022.2.4,Win32,60.16485169,62c5d1d54710819b63aceb4e,64d2fd46c836a06233681665,64dc80deedc9348eafb5d49b,,,,,,,ctch,resources/DB.BMP,resources/DR.BMP,Door4,-0.331481467,-0.044444444,1,0,0,1.1104,optionLeft,60,670,1,12,0,12,0,1,,,,,,,,,,,,,,,,,,,,,,,,,,,,,,,,,,,,,,,
,,,,,,,,2023-08-16_08h55.29.186,HF_wild_card,2022.2.4,Win32,60.16485169,62c5d1d54710819b63aceb4e,64d2fd46c836a06233681665,64dc80deedc9348eafb5d49b,,,,,,,decisionTrl,resources/DB.BMP,resources/DP.BMP,Door4,-0.285185157,-0.027777778,1,0,0,0.8419,optionLeft,80,750,1,13,0,13,0,1,,,,,,,,,,,,,,,,,,,,,,,,,,,,,,,,,,,,,,,
,,,,,,,,2023-08-16_08h55.29.186,HF_wild_card,2022.2.4,Win32,60.16485169,62c5d1d54710819b63aceb4e,64d2fd46c836a06233681665,64dc80deedc9348eafb5d49b,,,,,,,decisionTrl,resources/DG.BMP,resources/DB.BMP,Door4,0.283333333,-0.003703732,1,0,0,0.6751,optionRight,80,830,1,14,0,14,0,1,,,,,,,,,,,,,,,,,,,,,,,,,,,,,,,,,,,,,,,
,,,,,,,,2023-08-16_08h55.29.186,HF_wild_card,2022.2.4,Win32,60.16485169,62c5d1d54710819b63aceb4e,64d2fd46c836a06233681665,64dc80deedc9348eafb5d49b,,,,,,,sngl,resources/Empty.png,resources/DB.BMP,Door4,0.35648151,-0.033333333,1,0,0,0.5425,optionRight,60,890,1,15,0,15,0,1,,,,,,,,,,,,,,,,,,,,,,,,,,,,,,,,,,,,,,,
,,,,,,,,2023-08-16_08h55.29.186,HF_wild_card,2022.2.4,Win32,60.16485169,62c5d1d54710819b63aceb4e,64d2fd46c836a06233681665,64dc80deedc9348eafb5d49b,,,,,,,ctch,resources/DG.BMP,resources/DBN.BMP,Door2,0.232407464,0.000925912,1,0,0,0.7241,optionRight,20,910,1,16,0,16,0,1,,,,,,,,,,,,,,,,,,,,,,,,,,,,,,,,,,,,,,,
,,,,,,,,2023-08-16_08h55.29.186,HF_wild_card,2022.2.4,Win32,60.16485169,62c5d1d54710819b63aceb4e,64d2fd46c836a06233681665,64dc80deedc9348eafb5d49b,,,,,,,sngl,resources/DP.BMP,resources/Empty.png,WildCard_NonEx,-0.281481467,0.037962935,1,0,0,0.7412,optionLeft,45,955,1,17,0,17,0,1,,,,,,,,,,,,,,,,,,,,,,,,,,,,,,,,,,,,,,,
,,,,,,,,2023-08-16_08h55.29.186,HF_wild_card,2022.2.4,Win32,60.16485169,62c5d1d54710819b63aceb4e,64d2fd46c836a06233681665,64dc80deedc9348eafb5d49b,,,,,,,decisionTrl,resources/DBN.BMP,resources/DR.BMP,Door2,-0.516666667,0.049074046,1,0,0,0.8446,optionLeft,40,995,1,18,0,18,0,1,,,,,,,,,,,,,,,,,,,,,,,,,,,,,,,,,,,,,,,
,,,,,,,,2023-08-16_08h55.29.186,HF_wild_card,2022.2.4,Win32,60.16485169,62c5d1d54710819b63aceb4e,64d2fd46c836a06233681665,64dc80deedc9348eafb5d49b,,,,,,,decisionTrl,resources/DR.BMP,resources/DBN.BMP,Door2,0.303703732,-0.012037065,1,0,0,0.5738,optionRight,20,1015,1,19,0,19,0,1,,,,,,,,,,,,,,,,,,,,,,,,,,,,,,,,,,,,,,,
,,,,,,,,2023-08-16_08h55.29.186,HF_wild_card,2022.2.4,Win32,60.16485169,62c5d1d54710819b63aceb4e,64d2fd46c836a06233681665,64dc80deedc9348eafb5d49b,,,,,,,decisionTrl,resources/DB.BMP,resources/DG.BMP,Door4,-0.172222222,-0.007407422,1,0,0,0.5729,optionLeft,60,1075,1,20,0,20,0,1,,,,,,,,,,,,,,,,,,,,,,,,,,,,,,,,,,,,,,,
,,,,,,,,2023-08-16_08h55.29.186,HF_wild_card,2022.2.4,Win32,60.16485169,62c5d1d54710819b63aceb4e,64d2fd46c836a06233681665,64dc80deedc9348eafb5d49b,,,,,,,decisionTrl,resources/DB.BMP,resources/DG.BMP,Door4,-0.352777778,0.007407379,1,0,0,0.9032,optionLeft,80,1155,1,21,0,21,0,1,,,,,,,,,,,,,,,,,,,,,,,,,,,,,,,,,,,,,,,
,,,,,,,,2023-08-16_08h55.29.186,HF_wild_card,2022.2.4,Win32,60.16485169,62c5d1d54710819b63aceb4e,64d2fd46c836a06233681665,64dc80deedc9348eafb5d49b,,,,,,,sngl,resources/Empty.png,resources/DBN.BMP,Door2,0.260185242,0.001851824,1,0,0,0.5192,optionRight,20,1175,1,22,0,22,0,1,,,,,,,,,,,,,,,,,,,,,,,,,,,,,,,,,,,,,,,
,,,,,,,,2023-08-16_08h55.29.186,HF_wild_card,2022.2.4,Win32,60.16485169,62c5d1d54710819b63aceb4e,64d2fd46c836a06233681665,64dc80deedc9348eafb5d49b,,,,,,,sngl,resources/DBN.BMP,resources/Empty.png,Door2,-0.289814801,0.011111111,1,0,0,0.4776,optionLeft,40,1215,1,23,0,23,0,1,,,,,,,,,,,,,,,,,,,,,,,,,,,,,,,,,,,,,,,
,,,,,,,,2023-08-16_08h55.29.186,HF_wild_card,2022.2.4,Win32,60.16485169,62c5d1d54710819b63aceb4e,64d2fd46c836a06233681665,64dc80deedc9348eafb5d49b,,,,,,,sngl,resources/Empty.png,resources/DP.BMP,WildCard_NonEx,-0.250925912,0,1,0,0,0.6751,optionRight,55,1270,1,24,0,24,0,1,,,,,,,,,,,,,,,,,,,,,,,,,,,,,,,,,,,,,,,
,,,,,,,,2023-08-16_08h55.29.186,HF_wild_card,2022.2.4,Win32,60.16485169,62c5d1d54710819b63aceb4e,64d2fd46c836a06233681665,64dc80deedc9348eafb5d49b,,,,,,,decisionTrl,resources/DR.BMP,resources/DBN.BMP,Door2,0.205555556,0.010185157,1,0,0,0.7778,optionRight,20,1290,1,25,0,25,0,1,,,,,,,,,,,,,,,,,,,,,,,,,,,,,,,,,,,,,,,
,,,,,,,,2023-08-16_08h55.29.186,HF_wild_card,2022.2.4,Win32,60.16485169,62c5d1d54710819b63aceb4e,64d2fd46c836a06233681665,64dc80deedc9348eafb5d49b,,,,,,,sngl,resources/DP.BMP,resources/Empty.png,WildCard_NonEx,-0.205555556,-0.011111111,1,0,0,0.5112,optionLeft,55,1345,1,26,0,26,0,1,,,,,,,,,,,,,,,,,,,,,,,,,,,,,,,,,,,,,,,
,,,,,,,,2023-08-16_08h55.29.186,HF_wild_card,2022.2.4,Win32,60.16485169,62c5d1d54710819b63aceb4e,64d2fd46c836a06233681665,64dc80deedc9348eafb5d49b,,,,,,,ctch,resources/DBN.BMP,resources/DG.BMP,Door2,-0.284259245,0.042592578,1,0,0,0.8441,optionLeft,40,1385,1,27,0,27,0,1,,,,,,,,,,,,,,,,,,,,,,,,,,,,,,,,,,,,,,,
,,,,,,,,2023-08-16_08h55.29.186,HF_wild_card,2022.2.4,Win32,60.16485169,62c5d1d54710819b63aceb4e,64d2fd46c836a06233681665,64dc80deedc9348eafb5d49b,,,,,,,decisionTrl,resources/DG.BMP,resources/DB.BMP,Door4,0.208333333,0.002777778,1,0,0,1.1255,optionRight,60,1445,1,28,0,28,0,1,,,,,,,,,,,,,,,,,,,,,,,,,,,,,,,,,,,,,,,
,,,,,,,,2023-08-16_08h55.29.186,HF_wild_card,2022.2.4,Win32,60.16485169,62c5d1d54710819b63aceb4e,64d2fd46c836a06233681665,64dc80deedc9348eafb5d49b,,,,,,,sngl,resources/Empty.png,resources/DG.BMP,Door3,0.210185242,0.011111111,1,0,0,0.5157,optionRight,70,1515,1,29,0,29,0,1,,,,,,,,,,,,,,,,,,,,,,,,,,,,,,,,,,,,,,,
,,,,,,,,2023-08-16_08h55.29.186,HF_wild_card,2022.2.4,Win32,60.16485169,62c5d1d54710819b63aceb4e,64d2fd46c836a06233681665,64dc80deedc9348eafb5d49b,,,,,,,decisionTrl,resources/DP.BMP,resources/DBN.BMP,WildCard_NonEx,-0.337962935,0.005555556,1,0,0,0.5827,optionLeft,55,1570,1,30,0,30,0,1,,,,,,,,,,,,,,,,,,,,,,,,,,,,,,,,,,,,,,,
,,,,,,,,2023-08-16_08h55.29.186,HF_wild_card,2022.2.4,Win32,60.16485169,62c5d1d54710819b63aceb4e,64d2fd46c836a06233681665,64dc80deedc9348eafb5d49b,,,,,,,decisionTrl,resources/DP.BMP,resources/DR.BMP,Door1,0.194444444,0.013888889,1,0,0,1.1399,optionRight,30,1600,1,31,0,31,0,1,,,,,,,,,,,,,,,,,,,,,,,,,,,,,,,,,,,,,,,
,,,,,,,,2023-08-16_08h55.29.186,HF_wild_card,2022.2.4,Win32,60.16485169,62c5d1d54710819b63aceb4e,64d2fd46c836a06233681665,64dc80deedc9348eafb5d49b,,,,,,,ctch,resources/DG.BMP,resources/DBN.BMP,Door2,0.400925954,0.017592578,1,0,0,0.8383,optionRight,20,1620,1,32,0,32,0,1,,,,,,,,,,,,,,,,,,,,,,,,,,,,,,,,,,,,,,,
,,,,,,,,2023-08-16_08h55.29.186,HF_wild_card,2022.2.4,Win32,60.16485169,62c5d1d54710819b63aceb4e,64d2fd46c836a06233681665,64dc80deedc9348eafb5d49b,,,,,,,sngl,resources/Empty.png,resources/DR.BMP,Door1,0.339814843,-0.010185199,1,0,0,0.5101,optionRight,30,1650,1,33,0,33,0,1,,,,,,,,,,,,,,,,,,,,,,,,,,,,,,,,,,,,,,,
,,,,,,,,2023-08-16_08h55.29.186,HF_wild_card,2022.2.4,Win32,60.16485169,62c5d1d54710819b63aceb4e,64d2fd46c836a06233681665,64dc80deedc9348eafb5d49b,,,,,,,decisionTrl,resources/DR.BMP,resources/DBN.BMP,Door1,-0.173148092,0.001851824,1,0,0,0.4267,optionLeft,30,1680,1,34,0,34,0,1,,,,,,,,,,,,,,,,,,,,,,,,,,,,,,,,,,,,,,,
,,,,,,,,2023-08-16_08h55.29.186,HF_wild_card,2022.2.4,Win32,60.16485169,62c5d1d54710819b63aceb4e,64d2fd46c836a06233681665,64dc80deedc9348eafb5d49b,,,,,,,decisionTrl,resources/DBN.BMP,resources/DP.BMP,WildCard_NonEx,0.232407464,-0.005555556,1,0,0,0.4978,optionRight,55,1735,1,35,0,35,0,1,,,,,,,,,,,,,,,,,,,,,,,,,,,,,,,,,,,,,,,
,,,,,,,,2023-08-16_08h55.29.186,HF_wild_card,2022.2.4,Win32,60.16485169,62c5d1d54710819b63aceb4e,64d2fd46c836a06233681665,64dc80deedc9348eafb5d49b,,,,,,,sngl,resources/DR.BMP,resources/Empty.png,Door1,-0.175,-0.008333333,1,0,0,0.4991,optionLeft,30,1765,1,36,0,36,0,1,,,,,,,,,,,,,,,,,,,,,,,,,,,,,,,,,,,,,,,
,,,,,,,,2023-08-16_08h55.29.186,HF_wild_card,2022.2.4,Win32,60.16485169,62c5d1d54710819b63aceb4e,64d2fd46c836a06233681665,64dc80deedc9348eafb5d49b,,,,,,,decisionTrl,resources/DG.BMP,resources/DB.BMP,Door4,0.373148176,0.001851824,1,0,0,0.4712,optionRight,60,1825,1,37,0,37,0,1,,,,,,,,,,,,,,,,,,,,,,,,,,,,,,,,,,,,,,,
,,,,,,,,2023-08-16_08h55.29.186,HF_wild_card,2022.2.4,Win32,60.16485169,62c5d1d54710819b63aceb4e,64d2fd46c836a06233681665,64dc80deedc9348eafb5d49b,,,,,,,decisionTrl,resources/DP.BMP,resources/DG.BMP,WildCard_NonEx,-0.113888889,0.009259245,1,0,0,0.443,optionLeft,55,1880,1,38,0,38,0,1,,,,,,,,,,,,,,,,,,,,,,,,,,,,,,,,,,,,,,,
,,,,,,,,2023-08-16_08h55.29.186,HF_wild_card,2022.2.4,Win32,60.16485169,62c5d1d54710819b63aceb4e,64d2fd46c836a06233681665,64dc80deedc9348eafb5d49b,,,,,,,decisionTrl,resources/DBN.BMP,resources/DR.BMP,Door1,0.191666667,-0.005555556,1,0,0,0.3709,optionRight,30,1910,1,39,0,39,0,1,,,,,,,,,,,,,,,,,,,,,,,,,,,,,,,,,,,,,,,
,,,,,,,,2023-08-16_08h55.29.186,HF_wild_card,2022.2.4,Win32,60.16485169,62c5d1d54710819b63aceb4e,64d2fd46c836a06233681665,64dc80deedc9348eafb5d49b,,,,,,,decisionTrl,resources/DG.BMP,resources/DP.BMP,WildCard_NonEx,0.128703732,-0.004629644,1,0,0,0.537,optionRight,55,1965,1,40,0,40,0,1,,,,,,,,,,,,,,,,,,,,,,,,,,,,,,,,,,,,,,,
,,,,,,,,2023-08-16_08h55.29.186,HF_wild_card,2022.2.4,Win32,60.16485169,62c5d1d54710819b63aceb4e,64d2fd46c836a06233681665,64dc80deedc9348eafb5d49b,,,,,,,sngl,resources/Empty.png,resources/DP.BMP,WildCard_NonEx,0.180555556,0.007407379,1,0,0,0.6341,optionRight,45,2010,1,41,0,41,0,1,,,,,,,,,,,,,,,,,,,,,,,,,,,,,,,,,,,,,,,
,,,,,,,,2023-08-16_08h55.29.186,HF_wild_card,2022.2.4,Win32,60.16485169,62c5d1d54710819b63aceb4e,64d2fd46c836a06233681665,64dc80deedc9348eafb5d49b,,,,,,,ctch,resources/DR.BMP,resources/DB.BMP,Door1,-0.155555556,0.004629601,1,0,0,0.4609,optionLeft,30,2040,1,42,0,42,0,1,,,,,,,,,,,,,,,,,,,,,,,,,,,,,,,,,,,,,,,
,,,,,,,,2023-08-16_08h55.29.186,HF_wild_card,2022.2.4,Win32,60.16485169,62c5d1d54710819b63aceb4e,64d2fd46c836a06233681665,64dc80deedc9348eafb5d49b,,,,,,,decisionTrl,resources/DR.BMP,resources/DBN.BMP,Door2,0.166666667,-0.00648151,1,0,0,0.4346,optionRight,40,2080,1,43,0,43,0,1,,,,,,,,,,,,,,,,,,,,,,,,,,,,,,,,,,,,,,,
,,,,,,,,2023-08-16_08h55.29.186,HF_wild_card,2022.2.4,Win32,60.16485169,62c5d1d54710819b63aceb4e,64d2fd46c836a06233681665,64dc80deedc9348eafb5d49b,,,,,,,,,,,,,,,,,,,,,,,,,,0,0,0,0,1,,,,,,,,,,,,,,,,,,,,,,,,,,,,,,,,,,
,,,,,,,,2023-08-16_08h55.29.186,HF_wild_card,2022.2.4,Win32,60.16485169,62c5d1d54710819b63aceb4e,64d2fd46c836a06233681665,64dc80deedc9348eafb5d49b,,,,,,,decisionTrl,resources/DP.BMP,resources/DR.BMP,WildCard_NonEx,-0.106481425,-0.060185199,1,0,0,0.5537,optionLeft,55,2135,2,0,0,0,0,1,,,,,,,,,,,,,,,,,,,,,,,,,,,,,,,,,,,,,,,
,,,,,,,,2023-08-16_08h55.29.186,HF_wild_card,2022.2.4,Win32,60.16485169,62c5d1d54710819b63aceb4e,64d2fd46c836a06233681665,64dc80deedc9348eafb5d49b,,,,,,,decisionTrl,resources/DBN.BMP,resources/DR.BMP,Door1,0.137037065,0.012037023,1,0,0,0.4591,optionRight,30,2165,2,1,0,1,0,1,,,,,,,,,,,,,,,,,,,,,,,,,,,,,,,,,,,,,,,
,,,,,,,,2023-08-16_08h55.29.186,HF_wild_card,2022.2.4,Win32,60.16485169,62c5d1d54710819b63aceb4e,64d2fd46c836a06233681665,64dc80deedc9348eafb5d49b,,,,,,,decisionTrl,resources/DB.BMP,resources/DG.BMP,Door4,-0.220370356,-0.010185199,1,0,0,0.4898,optionLeft,80,2245,2,2,0,2,0,1,,,,,,,,,,,,,,,,,,,,,,,,,,,,,,,,,,,,,,,
,,,,,,,,2023-08-16_08h55.29.186,HF_wild_card,2022.2.4,Win32,60.16485169,62c5d1d54710819b63aceb4e,64d2fd46c836a06233681665,64dc80deedc9348eafb5d49b,,,,,,,ctch,resources/DB.BMP,resources/DR.BMP,Door1,0.255555556,-0.004629644,1,0,0,0.5149,optionRight,30,2275,2,3,0,3,0,1,,,,,,,,,,,,,,,,,,,,,,,,,,,,,,,,,,,,,,,
,,,,,,,,2023-08-16_08h55.29.186,HF_wild_card,2022.2.4,Win32,60.16485169,62c5d1d54710819b63aceb4e,64d2fd46c836a06233681665,64dc80deedc9348eafb5d49b,,,,,,,sngl,resources/Empty.png,resources/DR.BMP,Door1,0.212037065,0.005555556,1,0,0,0.4752,optionRight,30,2305,2,4,0,4,0,1,,,,,,,,,,,,,,,,,,,,,,,,,,,,,,,,,,,,,,,
,,,,,,,,2023-08-16_08h55.29.186,HF_wild_card,2022.2.4,Win32,60.16485169,62c5d1d54710819b63aceb4e,64d2fd46c836a06233681665,64dc80deedc9348eafb5d49b,,,,,,,sngl,resources/DG.BMP,resources/Empty.png,Door3,-0.144444444,-0.012037065,1,0,0,0.4929,optionLeft,70,2375,2,5,0,5,0,1,,,,,,,,,,,,,,,,,,,,,,,,,,,,,,,,,,,,,,,
,,,,,,,,2023-08-16_08h55.29.186,HF_wild_card,2022.2.4,Win32,60.16485169,62c5d1d54710819b63aceb4e,64d2fd46c836a06233681665,64dc80deedc9348eafb5d49b,,,,,,,decisionTrl,resources/DR.BMP,resources/DBN.BMP,Door2,0.125,0.005555556,1,0,0,0.4253,optionRight,40,2415,2,6,0,6,0,1,,,,,,,,,,,,,,,,,,,,,,,,,,,,,,,,,,,,,,,
,,,,,,,,2023-08-16_08h55.29.186,HF_wild_card,2022.2.4,Win32,60.16485169,62c5d1d54710819b63aceb4e,64d2fd46c836a06233681665,64dc80deedc9348eafb5d49b,,,,,,,decisionTrl,resources/DR.BMP,resources/DBN.BMP,Door2,0.117592621,-0.003703732,1,0,0,0.6281,optionRight,40,2455,2,7,0,7,0,1,,,,,,,,,,,,,,,,,,,,,,,,,,,,,,,,,,,,,,,
,,,,,,,,2023-08-16_08h55.29.186,HF_wild_card,2022.2.4,Win32,60.16485169,62c5d1d54710819b63aceb4e,64d2fd46c836a06233681665,64dc80deedc9348eafb5d49b,,,,,,,decisionTrl,resources/DG.BMP,resources/DB.BMP,Door3,-0.157407379,0.013888889,1,0,0,0.5487,optionLeft,70,2525,2,8,0,8,0,1,,,,,,,,,,,,,,,,,,,,,,,,,,,,,,,,,,,,,,,
,,,,,,,,2023-08-16_08h55.29.186,HF_wild_card,2022.2.4,Win32,60.16485169,62c5d1d54710819b63aceb4e,64d2fd46c836a06233681665,64dc80deedc9348eafb5d49b,,,,,,,decisionTrl,resources/DBN.BMP,resources/DR.BMP,Door1,0.187037065,-0.001851866,1,0,0,0.5193,optionRight,30,2555,2,9,0,9,0,1,,,,,,,,,,,,,,,,,,,,,,,,,,,,,,,,,,,,,,,
,,,,,,,,2023-08-16_08h55.29.186,HF_wild_card,2022.2.4,Win32,60.16485169,62c5d1d54710819b63aceb4e,64d2fd46c836a06233681665,64dc80deedc9348eafb5d49b,,,,,,,ctch,resources/DR.BMP,resources/DB.BMP,Door1,-0.256481467,0.005555556,1,0,0,0.638,optionLeft,30,2585,2,10,0,10,0,1,,,,,,,,,,,,,,,,,,,,,,,,,,,,,,,,,,,,,,,
,,,,,,,,2023-08-16_08h55.29.186,HF_wild_card,2022.2.4,Win32,60.16485169,62c5d1d54710819b63aceb4e,64d2fd46c836a06233681665,64dc80deedc9348eafb5d49b,,,,,,,decisionTrl,resources/DBN.BMP,resources/DP.BMP,WildCard_NonEx,0.211111111,0.000925912,1,0,0,0.495,optionRight,45,2630,2,11,0,11,0,1,,,,,,,,,,,,,,,,,,,,,,,,,,,,,,,,,,,,,,,
,,,,,,,,2023-08-16_08h55.29.186,HF_wild_card,2022.2.4,Win32,60.16485169,62c5d1d54710819b63aceb4e,64d2fd46c836a06233681665,64dc80deedc9348eafb5d49b,,,,,,,decisionTrl,resources/DR.BMP,resources/DBN.BMP,Door1,-0.279629601,0.013888889,1,0,0,0.6091,optionLeft,30,2660,2,12,0,12,0,1,,,,,,,,,,,,,,,,,,,,,,,,,,,,,,,,,,,,,,,
,,,,,,,,2023-08-16_08h55.29.186,HF_wild_card,2022.2.4,Win32,60.16485169,62c5d1d54710819b63aceb4e,64d2fd46c836a06233681665,64dc80deedc9348eafb5d49b,,,,,,,ctch,resources/DB.BMP,resources/DR.BMP,Door1,0.158333333,-0.010185199,1,0,0,0.6157,optionRight,30,2690,2,13,0,13,0,1,,,,,,,,,,,,,,,,,,,,,,,,,,,,,,,,,,,,,,,
,,,,,,,,2023-08-16_08h55.29.186,HF_wild_card,2022.2.4,Win32,60.16485169,62c5d1d54710819b63aceb4e,64d2fd46c836a06233681665,64dc80deedc9348eafb5d49b,,,,,,,ctch,resources/DR.BMP,resources/DB.BMP,Door4,0.154629686,0.007407379,1,0,0,0.6281,optionRight,60,2750,2,14,0,14,0,1,,,,,,,,,,,,,,,,,,,,,,,,,,,,,,,,,,,,,,,
,,,,,,,,2023-08-16_08h55.29.186,HF_wild_card,2022.2.4,Win32,60.16485169,62c5d1d54710819b63aceb4e,64d2fd46c836a06233681665,64dc80deedc9348eafb5d49b,,,,,,,ctch,resources/DG.BMP,resources/DBN.BMP,Door3,-0.153703647,0.001851824,1,0,0,0.6113,optionLeft,70,2820,2,15,0,15,0,1,,,,,,,,,,,,,,,,,,,,,,,,,,,,,,,,,,,,,,,
,,,,,,,,2023-08-16_08h55.29.186,HF_wild_card,2022.2.4,Win32,60.16485169,62c5d1d54710819b63aceb4e,64d2fd46c836a06233681665,64dc80deedc9348eafb5d49b,,,,,,,ctch,resources/DBN.BMP,resources/DG.BMP,Door3,0.175925954,0.004629601,1,0,0,0.4979,optionRight,70,2890,2,16,0,16,0,1,,,,,,,,,,,,,,,,,,,,,,,,,,,,,,,,,,,,,,,
,,,,,,,,2023-08-16_08h55.29.186,HF_wild_card,2022.2.4,Win32,60.16485169,62c5d1d54710819b63aceb4e,64d2fd46c836a06233681665,64dc80deedc9348eafb5d49b,,,,,,,sngl,resources/DP.BMP,resources/Empty.png,WildCard_NonEx,-0.110185157,-0.005555556,1,0,0,0.6701,optionLeft,45,2935,2,17,0,17,0,1,,,,,,,,,,,,,,,,,,,,,,,,,,,,,,,,,,,,,,,
,,,,,,,,2023-08-16_08h55.29.186,HF_wild_card,2022.2.4,Win32,60.16485169,62c5d1d54710819b63aceb4e,64d2fd46c836a06233681665,64dc80deedc9348eafb5d49b,,,,,,,decisionTrl,resources/DP.BMP,resources/DBN.BMP,Door2,0.173148176,-0.017592621,1,0,0,0.427,optionRight,20,2955,2,18,0,18,0,1,,,,,,,,,,,,,,,,,,,,,,,,,,,,,,,,,,,,,,,
,,,,,,,,2023-08-16_08h55.29.186,HF_wild_card,2022.2.4,Win32,60.16485169,62c5d1d54710819b63aceb4e,64d2fd46c836a06233681665,64dc80deedc9348eafb5d49b,,,,,,,decisionTrl,resources/DBN.BMP,resources/DR.BMP,Door2,-0.191666667,-0.002777778,1,0,0,0.6066,optionLeft,40,2995,2,19,0,19,0,1,,,,,,,,,,,,,,,,,,,,,,,,,,,,,,,,,,,,,,,
,,,,,,,,2023-08-16_08h55.29.186,HF_wild_card,2022.2.4,Win32,60.16485169,62c5d1d54710819b63aceb4e,64d2fd46c836a06233681665,64dc80deedc9348eafb5d49b,,,,,,,ctch,resources/DG.BMP,resources/DBN.BMP,Door2,0.179629686,0,1,0,0,0.5924,optionRight,20,3015,2,20,0,20,0,1,,,,,,,,,,,,,,,,,,,,,,,,,,,,,,,,,,,,,,,
,,,,,,,,2023-08-16_08h55.29.186,HF_wild_card,2022.2.4,Win32,60.16485169,62c5d1d54710819b63aceb4e,64d2fd46c836a06233681665,64dc80deedc9348eafb5d49b,,,,,,,decisionTrl,resources/DP.BMP,resources/DG.BMP,WildCard_NonEx,-0.172222222,0.009259245,1,0,0,0.7306,optionLeft,45,3060,2,21,0,21,0,1,,,,,,,,,,,,,,,,,,,,,,,,,,,,,,,,,,,,,,,
,,,,,,,,2023-08-16_08h55.29.186,HF_wild_card,2022.2.4,Win32,60.16485169,62c5d1d54710819b63aceb4e,64d2fd46c836a06233681665,64dc80deedc9348eafb5d49b,,,,,,,decisionTrl,resources/DG.BMP,resources/DB.BMP,Door4,0.165740797,-0.005555556,1,0,0,0.561,optionRight,60,3120,2,22,0,22,0,1,,,,,,,,,,,,,,,,,,,,,,,,,,,,,,,,,,,,,,,
,,,,,,,,2023-08-16_08h55.29.186,HF_wild_card,2022.2.4,Win32,60.16485169,62c5d1d54710819b63aceb4e,64d2fd46c836a06233681665,64dc80deedc9348eafb5d49b,,,,,,,sngl,resources/Empty.png,resources/DG.BMP,Door3,0.101851908,0,1,0,0,0.6052,optionRight,70,3190,2,23,0,23,0,1,,,,,,,,,,,,,,,,,,,,,,,,,,,,,,,,,,,,,,,
,,,,,,,,2023-08-16_08h55.29.186,HF_wild_card,2022.2.4,Win32,60.16485169,62c5d1d54710819b63aceb4e,64d2fd46c836a06233681665,64dc80deedc9348eafb5d49b,,,,,,,sngl,resources/DP.BMP,resources/Empty.png,WildCard_NonEx,-0.147222222,0.007407379,1,0,0,1.0857,optionLeft,55,3245,2,24,0,24,0,1,,,,,,,,,,,,,,,,,,,,,,,,,,,,,,,,,,,,,,,
,,,,,,,,2023-08-16_08h55.29.186,HF_wild_card,2022.2.4,Win32,60.16485169,62c5d1d54710819b63aceb4e,64d2fd46c836a06233681665,64dc80deedc9348eafb5d49b,,,,,,,sngl,resources/Empty.png,resources/DB.BMP,Door4,0.167592621,0.001851824,1,0,0,0.4615,optionRight,80,3325,2,25,0,25,0,1,,,,,,,,,,,,,,,,,,,,,,,,,,,,,,,,,,,,,,,
,,,,,,,,2023-08-16_08h55.29.186,HF_wild_card,2022.2.4,Win32,60.16485169,62c5d1d54710819b63aceb4e,64d2fd46c836a06233681665,64dc80deedc9348eafb5d49b,,,,,,,sngl,resources/DB.BMP,resources/Empty.png,Door4,-0.280555556,0.025,1,0,0,0.3909,optionLeft,60,3385,2,26,0,26,0,1,,,,,,,,,,,,,,,,,,,,,,,,,,,,,,,,,,,,,,,
,,,,,,,,2023-08-16_08h55.29.186,HF_wild_card,2022.2.4,Win32,60.16485169,62c5d1d54710819b63aceb4e,64d2fd46c836a06233681665,64dc80deedc9348eafb5d49b,,,,,,,sngl,resources/DBN.BMP,resources/Empty.png,Door2,-0.159259203,0.00370369,1,0,0,0.522,optionLeft,20,3405,2,27,0,27,0,1,,,,,,,,,,,,,,,,,,,,,,,,,,,,,,,,,,,,,,,
,,,,,,,,2023-08-16_08h55.29.186,HF_wild_card,2022.2.4,Win32,60.16485169,62c5d1d54710819b63aceb4e,64d2fd46c836a06233681665,64dc80deedc9348eafb5d49b,,,,,,,decisionTrl,resources/DG.BMP,resources/DB.BMP,Door4,0.105555556,-0.010185199,1,0,0,0.4442,optionRight,80,3485,2,28,0,28,0,1,,,,,,,,,,,,,,,,,,,,,,,,,,,,,,,,,,,,,,,
,,,,,,,,2023-08-16_08h55.29.186,HF_wild_card,2022.2.4,Win32,60.16485169,62c5d1d54710819b63aceb4e,64d2fd46c836a06233681665,64dc80deedc9348eafb5d49b,,,,,,,sngl,resources/Empty.png,resources/DP.BMP,WildCard_NonEx,0.136111111,-0.002777778,1,0,0,0.526,optionRight,55,3540,2,29,0,29,0,1,,,,,,,,,,,,,,,,,,,,,,,,,,,,,,,,,,,,,,,
,,,,,,,,2023-08-16_08h55.29.186,HF_wild_card,2022.2.4,Win32,60.16485169,62c5d1d54710819b63aceb4e,64d2fd46c836a06233681665,64dc80deedc9348eafb5d49b,,,,,,,decisionTrl,resources/DG.BMP,resources/DB.BMP,Door3,-0.139814758,0.006481467,1,0,0,0.3949,optionLeft,70,3610,2,30,0,30,0,1,,,,,,,,,,,,,,,,,,,,,,,,,,,,,,,,,,,,,,,
,,,,,,,,2023-08-16_08h55.29.186,HF_wild_card,2022.2.4,Win32,60.16485169,62c5d1d54710819b63aceb4e,64d2fd46c836a06233681665,64dc80deedc9348eafb5d49b,,,,,,,decisionTrl,resources/DBN.BMP,resources/DR.BMP,Door1,0.151851908,0,1,0,0,0.5089,optionRight,30,3640,2,31,0,31,0,1,,,,,,,,,,,,,,,,,,,,,,,,,,,,,,,,,,,,,,,
,,,,,,,,2023-08-16_08h55.29.186,HF_wild_card,2022.2.4,Win32,60.16485169,62c5d1d54710819b63aceb4e,64d2fd46c836a06233681665,64dc80deedc9348eafb5d49b,,,,,,,decisionTrl,resources/DB.BMP,resources/DG.BMP,Door4,-0.121296268,0.01851849,1,0,0,0.39,optionLeft,60,3700,2,32,0,32,0,1,,,,,,,,,,,,,,,,,,,,,,,,,,,,,,,,,,,,,,,
,,,,,,,,2023-08-16_08h55.29.186,HF_wild_card,2022.2.4,Win32,60.16485169,62c5d1d54710819b63aceb4e,64d2fd46c836a06233681665,64dc80deedc9348eafb5d49b,,,,,,,sngl,resources/Empty.png,resources/DBN.BMP,Door2,0.152777778,0.027777778,1,0,0,0.6262,optionRight,40,3740,2,33,0,33,0,1,,,,,,,,,,,,,,,,,,,,,,,,,,,,,,,,,,,,,,,
,,,,,,,,2023-08-16_08h55.29.186,HF_wild_card,2022.2.4,Win32,60.16485169,62c5d1d54710819b63aceb4e,64d2fd46c836a06233681665,64dc80deedc9348eafb5d49b,,,,,,,decisionTrl,resources/DP.BMP,resources/DB.BMP,Door4,0.142592621,0.022222222,1,0,0,0.9778,optionRight,60,3800,2,34,0,34,0,1,,,,,,,,,,,,,,,,,,,,,,,,,,,,,,,,,,,,,,,
,,,,,,,,2023-08-16_08h55.29.186,HF_wild_card,2022.2.4,Win32,60.16485169,62c5d1d54710819b63aceb4e,64d2fd46c836a06233681665,64dc80deedc9348eafb5d49b,,,,,,,ctch,resources/DBN.BMP,resources/DG.BMP,Door2,-0.101851824,-0.00648151,1,0,0,0.3279,optionLeft,40,3840,2,35,0,35,0,1,,,,,,,,,,,,,,,,,,,,,,,,,,,,,,,,,,,,,,,
,,,,,,,,2023-08-16_08h55.29.186,HF_wild_card,2022.2.4,Win32,60.16485169,62c5d1d54710819b63aceb4e,64d2fd46c836a06233681665,64dc80deedc9348eafb5d49b,,,,,,,decisionTrl,resources/DB.BMP,resources/DG.BMP,Door3,0.120370399,0,1,0,0,0.2783,optionRight,70,3910,2,36,0,36,0,1,,,,,,,,,,,,,,,,,,,,,,,,,,,,,,,,,,,,,,,
,,,,,,,,2023-08-16_08h55.29.186,HF_wild_card,2022.2.4,Win32,60.16485169,62c5d1d54710819b63aceb4e,64d2fd46c836a06233681665,64dc80deedc9348eafb5d49b,,,,,,,decisionTrl,resources/DR.BMP,resources/DBN.BMP,Door1,-0.188888889,-0.010185199,1,0,0,0.3821,optionLeft,30,3940,2,37,0,37,0,1,,,,,,,,,,,,,,,,,,,,,,,,,,,,,,,,,,,,,,,
,,,,,,,,2023-08-16_08h55.29.186,HF_wild_card,2022.2.4,Win32,60.16485169,62c5d1d54710819b63aceb4e,64d2fd46c836a06233681665,64dc80deedc9348eafb5d49b,,,,,,,decisionTrl,resources/DB.BMP,resources/DG.BMP,Door3,0.158333333,0.014814801,1,0,0,0.4158,optionRight,70,4010,2,38,0,38,0,1,,,,,,,,,,,,,,,,,,,,,,,,,,,,,,,,,,,,,,,
,,,,,,,,2023-08-16_08h55.29.186,HF_wild_card,2022.2.4,Win32,60.16485169,62c5d1d54710819b63aceb4e,64d2fd46c836a06233681665,64dc80deedc9348eafb5d49b,,,,,,,decisionTrl,resources/DG.BMP,resources/DP.BMP,WildCard_NonEx,0.194444444,-0.007407422,1,0,0,0.3031,optionRight,45,4055,2,39,0,39,0,1,,,,,,,,,,,,,,,,,,,,,,,,,,,,,,,,,,,,,,,
,,,,,,,,2023-08-16_08h55.29.186,HF_wild_card,2022.2.4,Win32,60.16485169,62c5d1d54710819b63aceb4e,64d2fd46c836a06233681665,64dc80deedc9348eafb5d49b,,,,,,,sngl,resources/DR.BMP,resources/Empty.png,Door1,-0.166666667,-0.027777778,1,0,0,0.5605,optionLeft,30,4085,2,40,0,40,0,1,,,,,,,,,,,,,,,,,,,,,,,,,,,,,,,,,,,,,,,
,,,,,,,,2023-08-16_08h55.29.186,HF_wild_card,2022.2.4,Win32,60.16485169,62c5d1d54710819b63aceb4e,64d2fd46c836a06233681665,64dc80deedc9348eafb5d49b,,,,,,,decisionTrl,resources/DR.BMP,resources/DP.BMP,WildCard_NonEx,0.112037065,-0.002777778,1,0,0,0.4879,optionRight,55,4140,2,41,0,41,0,1,,,,,,,,,,,,,,,,,,,,,,,,,,,,,,,,,,,,,,,
,,,,,,,,2023-08-16_08h55.29.186,HF_wild_card,2022.2.4,Win32,60.16485169,62c5d1d54710819b63aceb4e,64d2fd46c836a06233681665,64dc80deedc9348eafb5d49b,,,,,,,decisionTrl,resources/DB.BMP,resources/DP.BMP,Door4,-0.157407379,-0.029629644,1,0,0,1.1755,optionLeft,80,4220,2,42,0,42,0,1,,,,,,,,,,,,,,,,,,,,,,,,,,,,,,,,,,,,,,,
,,,,,,,,2023-08-16_08h55.29.186,HF_wild_card,2022.2.4,Win32,60.16485169,62c5d1d54710819b63aceb4e,64d2fd46c836a06233681665,64dc80deedc9348eafb5d49b,,,,,,,sngl,resources/Empty.png,resources/DP.BMP,WildCard_NonEx,0.124074131,-0.002777778,1,0,0,0.8905,optionRight,45,4265,2,43,0,43,0,1,,,,,,,,,,,,,,,,,,,,,,,,,,,,,,,,,,,,,,,
,,,,,,,,2023-08-16_08h55.29.186,HF_wild_card,2022.2.4,Win32,60.16485169,62c5d1d54710819b63aceb4e,64d2fd46c836a06233681665,64dc80deedc9348eafb5d49b,,,,,,,,,,,,,,,,,,,,,,,,,,1,0,1,0,1,,,,,,,,,,,,,,,,,,,,,,,,,,,,,,,,,,
,,,,,,,,2023-08-16_08h55.29.186,HF_wild_card,2022.2.4,Win32,60.16485169,62c5d1d54710819b63aceb4e,64d2fd46c836a06233681665,64dc80deedc9348eafb5d49b,,,,,,,decisionTrl,resources/DG.BMP,resources/DB.BMP,Door3,-0.188888889,0.012037023,1,0,0,0.5966,optionLeft,70,4335,3,0,0,0,0,1,,,,,,,,,,,,,,,,,,,,,,,,,,,,,,,,,,,,,,,
,,,,,,,,2023-08-16_08h55.29.186,HF_wild_card,2022.2.4,Win32,60.16485169,62c5d1d54710819b63aceb4e,64d2fd46c836a06233681665,64dc80deedc9348eafb5d49b,,,,,,,decisionTrl,resources/DBN.BMP,resources/DR.BMP,Door1,0.163888889,0.035185157,1,0,0,0.3246,optionRight,30,4365,3,1,0,1,0,1,,,,,,,,,,,,,,,,,,,,,,,,,,,,,,,,,,,,,,,
,,,,,,,,2023-08-16_08h55.29.186,HF_wild_card,2022.2.4,Win32,60.16485169,62c5d1d54710819b63aceb4e,64d2fd46c836a06233681665,64dc80deedc9348eafb5d49b,,,,,,,sngl,resources/DR.BMP,resources/Empty.png,Door1,-0.144444444,0.00370369,1,0,0,0.7412,optionLeft,30,4395,3,2,0,2,0,1,,,,,,,,,,,,,,,,,,,,,,,,,,,,,,,,,,,,,,,
,,,,,,,,2023-08-16_08h55.29.186,HF_wild_card,2022.2.4,Win32,60.16485169,62c5d1d54710819b63aceb4e,64d2fd46c836a06233681665,64dc80deedc9348eafb5d49b,,,,,,,decisionTrl,resources/DR.BMP,resources/DP.BMP,WildCard_NonEx,0.110185242,0.008333333,1,0,0,0.6253,optionRight,45,4440,3,3,0,3,0,1,,,,,,,,,,,,,,,,,,,,,,,,,,,,,,,,,,,,,,,
,,,,,,,,2023-08-16_08h55.29.186,HF_wild_card,2022.2.4,Win32,60.16485169,62c5d1d54710819b63aceb4e,64d2fd46c836a06233681665,64dc80deedc9348eafb5d49b,,,,,,,ctch,resources/DR.BMP,resources/DB.BMP,Door1,-0.123148092,-0.00648151,1,0,0,0.6257,optionLeft,30,4470,3,4,0,4,0,1,,,,,,,,,,,,,,,,,,,,,,,,,,,,,,,,,,,,,,,
,,,,,,,,2023-08-16_08h55.29.186,HF_wild_card,2022.2.4,Win32,60.16485169,62c5d1d54710819b63aceb4e,64d2fd46c836a06233681665,64dc80deedc9348eafb5d49b,,,,,,,decisionTrl,resources/DB.BMP,resources/DG.BMP,Door3,0.124074131,-0.004629644,1,0,0,0.3577,optionRight,70,4540,3,5,0,5,0,1,,,,,,,,,,,,,,,,,,,,,,,,,,,,,,,,,,,,,,,
,,,,,,,,2023-08-16_08h55.29.186,HF_wild_card,2022.2.4,Win32,60.16485169,62c5d1d54710819b63aceb4e,64d2fd46c836a06233681665,64dc80deedc9348eafb5d49b,,,,,,,decisionTrl,resources/DG.BMP,resources/DB.BMP,Door4,0.126851908,0.006481467,1,0,0,0.4397,optionRight,60,4600,3,6,0,6,0,1,,,,,,,,,,,,,,,,,,,,,,,,,,,,,,,,,,,,,,,
,,,,,,,,2023-08-16_08h55.29.186,HF_wild_card,2022.2.4,Win32,60.16485169,62c5d1d54710819b63aceb4e,64d2fd46c836a06233681665,64dc80deedc9348eafb5d49b,,,,,,,ctch,resources/DB.BMP,resources/DR.BMP,Door4,-0.141666667,0.00370369,1,0,0,0.4292,optionLeft,60,4660,3,7,0,7,0,1,,,,,,,,,,,,,,,,,,,,,,,,,,,,,,,,,,,,,,,
,,,,,,,,2023-08-16_08h55.29.186,HF_wild_card,2022.2.4,Win32,60.16485169,62c5d1d54710819b63aceb4e,64d2fd46c836a06233681665,64dc80deedc9348eafb5d49b,,,,,,,sngl,resources/DG.BMP,resources/Empty.png,Door3,0.144444444,-0.001851866,1,0,0,0.3695,optionLeft,70,4730,3,8,0,8,0,1,,,,,,,,,,,,,,,,,,,,,,,,,,,,,,,,,,,,,,,
,,,,,,,,2023-08-16_08h55.29.186,HF_wild_card,2022.2.4,Win32,60.16485169,62c5d1d54710819b63aceb4e,64d2fd46c836a06233681665,64dc80deedc9348eafb5d49b,,,,,,,decisionTrl,resources/DG.BMP,resources/DP.BMP,WildCard_NonEx,0.111111111,0.000925912,1,0,0,0.4233,optionRight,55,4785,3,9,0,9,0,1,,,,,,,,,,,,,,,,,,,,,,,,,,,,,,,,,,,,,,,
,,,,,,,,2023-08-16_08h55.29.186,HF_wild_card,2022.2.4,Win32,60.16485169,62c5d1d54710819b63aceb4e,64d2fd46c836a06233681665,64dc80deedc9348eafb5d49b,,,,,,,ctch,resources/DBN.BMP,resources/DG.BMP,Door3,0.145370399,0.015740712,1,0,0,0.5778,optionRight,70,4855,3,10,0,10,0,1,,,,,,,,,,,,,,,,,,,,,,,,,,,,,,,,,,,,,,,
,,,,,,,,2023-08-16_08h55.29.186,HF_wild_card,2022.2.4,Win32,60.16485169,62c5d1d54710819b63aceb4e,64d2fd46c836a06233681665,64dc80deedc9348eafb5d49b,,,,,,,decisionTrl,resources/DR.BMP,resources/DBN.BMP,Door1,-0.125925869,0.00370369,1,0,0,0.5951,optionLeft,30,4885,3,11,0,11,0,1,,,,,,,,,,,,,,,,,,,,,,,,,,,,,,,,,,,,,,,
,,,,,,,,2023-08-16_08h55.29.186,HF_wild_card,2022.2.4,Win32,60.16485169,62c5d1d54710819b63aceb4e,64d2fd46c836a06233681665,64dc80deedc9348eafb5d49b,,,,,,,decisionTrl,resources/DR.BMP,resources/DBN.BMP,Door2,0.171296353,-0.013888889,1,0,0,0.4722,optionRight,20,4905,3,12,0,12,0,1,,,,,,,,,,,,,,,,,,,,,,,,,,,,,,,,,,,,,,,
,,,,,,,,2023-08-16_08h55.29.186,HF_wild_card,2022.2.4,Win32,60.16485169,62c5d1d54710819b63aceb4e,64d2fd46c836a06233681665,64dc80deedc9348eafb5d49b,,,,,,,sngl,resources/Empty.png,resources/DP.BMP,WildCard_NonEx,0.15,-0.000925954,1,0,0,0.5494,optionRight,45,4950,3,13,0,13,0,1,,,,,,,,,,,,,,,,,,,,,,,,,,,,,,,,,,,,,,,
,,,,,,,,2023-08-16_08h55.29.186,HF_wild_card,2022.2.4,Win32,60.16485169,62c5d1d54710819b63aceb4e,64d2fd46c836a06233681665,64dc80deedc9348eafb5d49b,,,,,,,decisionTrl,resources/DBN.BMP,resources/DR.BMP,Door2,-0.200925912,0.001851824,1,0,0,0.4557,optionLeft,40,4990,3,14,0,14,0,1,,,,,,,,,,,,,,,,,,,,,,,,,,,,,,,,,,,,,,,
,,,,,,,,2023-08-16_08h55.29.186,HF_wild_card,2022.2.4,Win32,60.16485169,62c5d1d54710819b63aceb4e,64d2fd46c836a06233681665,64dc80deedc9348eafb5d49b,,,,,,,decisionTrl,resources/DG.BMP,resources/DB.BMP,Door4,0.175925954,0.007407379,1,0,0,0.2917,optionRight,60,5050,3,15,0,15,0,1,,,,,,,,,,,,,,,,,,,,,,,,,,,,,,,,,,,,,,,
,,,,,,,,2023-08-16_08h55.29.186,HF_wild_card,2022.2.4,Win32,60.16485169,62c5d1d54710819b63aceb4e,64d2fd46c836a06233681665,64dc80deedc9348eafb5d49b,,,,,,,sngl,resources/DBN.BMP,resources/Empty.png,Door2,-0.159259203,0.008333333,1,0,0,0.331,optionLeft,40,5090,3,16,0,16,0,1,,,,,,,,,,,,,,,,,,,,,,,,,,,,,,,,,,,,,,,
,,,,,,,,2023-08-16_08h55.29.186,HF_wild_card,2022.2.4,Win32,60.16485169,62c5d1d54710819b63aceb4e,64d2fd46c836a06233681665,64dc80deedc9348eafb5d49b,,,,,,,decisionTrl,resources/DP.BMP,resources/DR.BMP,Door1,0.204629686,0.009259245,1,0,0,0.3293,optionRight,30,5120,3,17,0,17,0,1,,,,,,,,,,,,,,,,,,,,,,,,,,,,,,,,,,,,,,,
,,,,,,,,2023-08-16_08h55.29.186,HF_wild_card,2022.2.4,Win32,60.16485169,62c5d1d54710819b63aceb4e,64d2fd46c836a06233681665,64dc80deedc9348eafb5d49b,,,,,,,ctch,resources/DBN.BMP,resources/DG.BMP,Door3,0.074074131,0.012962935,1,0,0,0.6751,optionRight,70,5190,3,18,0,18,0,1,,,,,,,,,,,,,,,,,,,,,,,,,,,,,,,,,,,,,,,
,,,,,,,,2023-08-16_08h55.29.186,HF_wild_card,2022.2.4,Win32,60.16485169,62c5d1d54710819b63aceb4e,64d2fd46c836a06233681665,64dc80deedc9348eafb5d49b,,,,,,,decisionTrl,resources/DR.BMP,resources/DBN.BMP,Door1,-0.133333333,-0.001851866,1,0,0,0.3756,optionLeft,30,5220,3,19,0,19,0,1,,,,,,,,,,,,,,,,,,,,,,,,,,,,,,,,,,,,,,,
,,,,,,,,2023-08-16_08h55.29.186,HF_wild_card,2022.2.4,Win32,60.16485169,62c5d1d54710819b63aceb4e,64d2fd46c836a06233681665,64dc80deedc9348eafb5d49b,,,,,,,sngl,resources/DP.BMP,resources/Empty.png,WildCard_NonEx,-0.125,-0.008333333,1,0,0,0.3577,optionLeft,45,5265,3,20,0,20,0,1,,,,,,,,,,,,,,,,,,,,,,,,,,,,,,,,,,,,,,,
,,,,,,,,2023-08-16_08h55.29.186,HF_wild_card,2022.2.4,Win32,60.16485169,62c5d1d54710819b63aceb4e,64d2fd46c836a06233681665,64dc80deedc9348eafb5d49b,,,,,,,decisionTrl,resources/DP.BMP,resources/DB.BMP,WildCard_NonEx,-0.2,-0.00648151,1,0,0,0.3425,optionLeft,45,5310,3,21,0,21,0,1,,,,,,,,,,,,,,,,,,,,,,,,,,,,,,,,,,,,,,,
,,,,,,,,2023-08-16_08h55.29.186,HF_wild_card,2022.2.4,Win32,60.16485169,62c5d1d54710819b63aceb4e,64d2fd46c836a06233681665,64dc80deedc9348eafb5d49b,,,,,,,sngl,resources/Empty.png,resources/DG.BMP,Door3,0.161111111,0.006481467,1,0,0,0.3469,optionRight,70,5380,3,22,0,22,0,1,,,,,,,,,,,,,,,,,,,,,,,,,,,,,,,,,,,,,,,
,,,,,,,,2023-08-16_08h55.29.186,HF_wild_card,2022.2.4,Win32,60.16485169,62c5d1d54710819b63aceb4e,64d2fd46c836a06233681665,64dc80deedc9348eafb5d49b,,,,,,,decisionTrl,resources/DB.BMP,resources/DG.BMP,Door4,-0.167592536,0,1,0,0,0.5115,optionLeft,80,5460,3,23,0,23,0,1,,,,,,,,,,,,,,,,,,,,,,,,,,,,,,,,,,,,,,,
,,,,,,,,2023-08-16_08h55.29.186,HF_wild_card,2022.2.4,Win32,60.16485169,62c5d1d54710819b63aceb4e,64d2fd46c836a06233681665,64dc80deedc9348eafb5d49b,,,,,,,decisionTrl,resources/DB.BMP,resources/DG.BMP,Door3,0.150925954,0.00370369,1,0,0,0.3865,optionRight,70,5530,3,24,0,24,0,1,,,,,,,,,,,,,,,,,,,,,,,,,,,,,,,,,,,,,,,
,,,,,,,,2023-08-16_08h55.29.186,HF_wild_card,2022.2.4,Win32,60.16485169,62c5d1d54710819b63aceb4e,64d2fd46c836a06233681665,64dc80deedc9348eafb5d49b,,,,,,,decisionTrl,resources/DBN.BMP,resources/DR.BMP,Door2,-0.148148092,-0.000925954,1,0,0,0.3477,optionLeft,20,5550,3,25,0,25,0,1,,,,,,,,,,,,,,,,,,,,,,,,,,,,,,,,,,,,,,,
,,,,,,,,2023-08-16_08h55.29.186,HF_wild_card,2022.2.4,Win32,60.16485169,62c5d1d54710819b63aceb4e,64d2fd46c836a06233681665,64dc80deedc9348eafb5d49b,,,,,,,decisionTrl,resources/DBN.BMP,resources/DP.BMP,WildCard_NonEx,0.159259288,0.00370369,1,0,0,0.4095,optionRight,45,5595,3,26,0,26,0,1,,,,,,,,,,,,,,,,,,,,,,,,,,,,,,,,,,,,,,,
,,,,,,,,2023-08-16_08h55.29.186,HF_wild_card,2022.2.4,Win32,60.16485169,62c5d1d54710819b63aceb4e,64d2fd46c836a06233681665,64dc80deedc9348eafb5d49b,,,,,,,sngl,resources/Empty.png,resources/DB.BMP,Door4,-0.16851849,-0.000925954,1,0,0,0.326,optionRight,60,5655,3,27,0,27,0,1,,,,,,,,,,,,,,,,,,,,,,,,,,,,,,,,,,,,,,,
,,,,,,,,2023-08-16_08h55.29.186,HF_wild_card,2022.2.4,Win32,60.16485169,62c5d1d54710819b63aceb4e,64d2fd46c836a06233681665,64dc80deedc9348eafb5d49b,,,,,,,ctch,resources/DR.BMP,resources/DB.BMP,Door1,-0.133333333,-0.004629644,1,0,0,0.4409,optionLeft,30,5685,3,28,0,28,0,1,,,,,,,,,,,,,,,,,,,,,,,,,,,,,,,,,,,,,,,
,,,,,,,,2023-08-16_08h55.29.186,HF_wild_card,2022.2.4,Win32,60.16485169,62c5d1d54710819b63aceb4e,64d2fd46c836a06233681665,64dc80deedc9348eafb5d49b,,,,,,,decisionTrl,resources/DG.BMP,resources/DB.BMP,Door4,0.211111111,-0.001851866,1,0,0,0.3405,optionRight,80,5765,3,29,0,29,0,1,,,,,,,,,,,,,,,,,,,,,,,,,,,,,,,,,,,,,,,
,,,,,,,,2023-08-16_08h55.29.186,HF_wild_card,2022.2.4,Win32,60.16485169,62c5d1d54710819b63aceb4e,64d2fd46c836a06233681665,64dc80deedc9348eafb5d49b,,,,,,,sngl,resources/DB.BMP,resources/Empty.png,Door4,-0.082407379,-0.008333333,1,0,0,0.743,optionLeft,80,5845,3,30,0,30,0,1,,,,,,,,,,,,,,,,,,,,,,,,,,,,,,,,,,,,,,,
,,,,,,,,2023-08-16_08h55.29.186,HF_wild_card,2022.2.4,Win32,60.16485169,62c5d1d54710819b63aceb4e,64d2fd46c836a06233681665,64dc80deedc9348eafb5d49b,,,,,,,decisionTrl,resources/DBN.BMP,resources/DR.BMP,Door1,0.187963019,-0.005555556,1,0,0,0.4415,optionRight,30,5875,3,31,0,31,0,1,,,,,,,,,,,,,,,,,,,,,,,,,,,,,,,,,,,,,,,
,,,,,,,,2023-08-16_08h55.29.186,HF_wild_card,2022.2.4,Win32,60.16485169,62c5d1d54710819b63aceb4e,64d2fd46c836a06233681665,64dc80deedc9348eafb5d49b,,,,,,,sngl,resources/Empty.png,resources/DP.BMP,WildCard_NonEx,0.072222222,0.004629601,1,0,0,0.859,optionRight,55,5930,3,32,0,32,0,1,,,,,,,,,,,,,,,,,,,,,,,,,,,,,,,,,,,,,,,
,,,,,,,,2023-08-16_08h55.29.186,HF_wild_card,2022.2.4,Win32,60.16485169,62c5d1d54710819b63aceb4e,64d2fd46c836a06233681665,64dc80deedc9348eafb5d49b,,,,,,,sngl,resources/Empty.png,resources/DR.BMP,Door1,0.184259288,-0.007407422,1,0,0,0.3743,optionRight,30,5960,3,33,0,33,0,1,,,,,,,,,,,,,,,,,,,,,,,,,,,,,,,,,,,,,,,
,,,,,,,,2023-08-16_08h55.29.186,HF_wild_card,2022.2.4,Win32,60.16485169,62c5d1d54710819b63aceb4e,64d2fd46c836a06233681665,64dc80deedc9348eafb5d49b,,,,,,,ctch,resources/DG.BMP,resources/DBN.BMP,Door3,-0.092592536,-0.004629644,1,0,0,0.4592,optionLeft,70,6030,3,34,0,34,0,1,,,,,,,,,,,,,,,,,,,,,,,,,,,,,,,,,,,,,,,
,,,,,,,,2023-08-16_08h55.29.186,HF_wild_card,2022.2.4,Win32,60.16485169,62c5d1d54710819b63aceb4e,64d2fd46c836a06233681665,64dc80deedc9348eafb5d49b,,,,,,,sngl,resources/DP.BMP,resources/Empty.png,WildCard_NonEx,-0.063888889,0.00370369,1,0,0,0.6198,optionLeft,55,6085,3,35,0,35,0,1,,,,,,,,,,,,,,,,,,,,,,,,,,,,,,,,,,,,,,,
,,,,,,,,2023-08-16_08h55.29.186,HF_wild_card,2022.2.4,Win32,60.16485169,62c5d1d54710819b63aceb4e,64d2fd46c836a06233681665,64dc80deedc9348eafb5d49b,,,,,,,decisionTrl,resources/DP.BMP,resources/DG.BMP,Door3,0.122222222,-0.001851866,1,0,0,0.3711,optionRight,70,6155,3,36,0,36,0,1,,,,,,,,,,,,,,,,,,,,,,,,,,,,,,,,,,,,,,,
,,,,,,,,2023-08-16_08h55.29.186,HF_wild_card,2022.2.4,Win32,60.16485169,62c5d1d54710819b63aceb4e,64d2fd46c836a06233681665,64dc80deedc9348eafb5d49b,,,,,,,decisionTrl,resources/DP.BMP,resources/DBN.BMP,WildCard_NonEx,-0.159259203,0.002777778,1,0,0,0.3947,optionLeft,55,6210,3,37,0,37,0,1,,,,,,,,,,,,,,,,,,,,,,,,,,,,,,,,,,,,,,,
,,,,,,,,2023-08-16_08h55.29.186,HF_wild_card,2022.2.4,Win32,60.16485169,62c5d1d54710819b63aceb4e,64d2fd46c836a06233681665,64dc80deedc9348eafb5d49b,,,,,,,decisionTrl,resources/DB.BMP,resources/DG.BMP,Door3,0.128703732,0.001851824,1,0,0,0.3853,optionRight,70,6280,3,38,0,38,0,1,,,,,,,,,,,,,,,,,,,,,,,,,,,,,,,,,,,,,,,
,,,,,,,,2023-08-16_08h55.29.186,HF_wild_card,2022.2.4,Win32,60.16485169,62c5d1d54710819b63aceb4e,64d2fd46c836a06233681665,64dc80deedc9348eafb5d49b,,,,,,,decisionTrl,resources/DB.BMP,resources/DP.BMP,Door4,-0.113888889,-0.002777778,1,0,0,0.5931,optionLeft,60,6340,3,39,0,39,0,1,,,,,,,,,,,,,,,,,,,,,,,,,,,,,,,,,,,,,,,
,,,,,,,,2023-08-16_08h55.29.186,HF_wild_card,2022.2.4,Win32,60.16485169,62c5d1d54710819b63aceb4e,64d2fd46c836a06233681665,64dc80deedc9348eafb5d49b,,,,,,,sngl,resources/Empty.png,resources/DBN.BMP,Door2,0.115740797,-0.00648151,1,0,0,0.3529,optionRight,20,6360,3,40,0,40,0,1,,,,,,,,,,,,,,,,,,,,,,,,,,,,,,,,,,,,,,,
,,,,,,,,2023-08-16_08h55.29.186,HF_wild_card,2022.2.4,Win32,60.16485169,62c5d1d54710819b63aceb4e,64d2fd46c836a06233681665,64dc80deedc9348eafb5d49b,,,,,,,decisionTrl,resources/DR.BMP,resources/DBN.BMP,Door1,-0.108333333,-0.012037065,1,0,0,0.7597,optionLeft,30,6390,3,41,0,41,0,1,,,,,,,,,,,,,,,,,,,,,,,,,,,,,,,,,,,,,,,
,,,,,,,,2023-08-16_08h55.29.186,HF_wild_card,2022.2.4,Win32,60.16485169,62c5d1d54710819b63aceb4e,64d2fd46c836a06233681665,64dc80deedc9348eafb5d49b,,,,,,,ctch,resources/DB.BMP,resources/DR.BMP,Door1,0.132407464,-0.013888889,1,0,0,0.3816,optionRight,30,6420,3,42,0,42,0,1,,,,,,,,,,,,,,,,,,,,,,,,,,,,,,,,,,,,,,,
,,,,,,,,2023-08-16_08h55.29.186,HF_wild_card,2022.2.4,Win32,60.16485169,62c5d1d54710819b63aceb4e,64d2fd46c836a06233681665,64dc80deedc9348eafb5d49b,,,,,,,ctch,resources/DG.BMP,resources/DBN.BMP,Door2,0.186111111,-0.000925954,1,0,0,0.3372,optionRight,40,6460,3,43,0,43,0,1,,,,,,,,,,,,,,,,,,,,,,,,,,,,,,,,,,,,,,,
,,,,,,,,2023-08-16_08h55.29.186,HF_wild_card,2022.2.4,Win32,60.16485169,62c5d1d54710819b63aceb4e,64d2fd46c836a06233681665,64dc80deedc9348eafb5d49b,,,,,,,,,,,,,,,,,,,,,,,,,,2,0,2,0,1,,,,,,,,,,,,,,,,,,,,,,,,,,,,,,,,,,
,,,,,,,,2023-08-16_08h55.29.186,HF_wild_card,2022.2.4,Win32,60.16485169,62c5d1d54710819b63aceb4e,64d2fd46c836a06233681665,64dc80deedc9348eafb5d49b,,,,,,,ctch,resources/DG.BMP,resources/DBN.BMP,Door2,0.144444444,-0.091666667,1,0,0,1.6473,optionRight,20,6480,4,0,0,0,0,1,,,,,,,,,,,,,,,,,,,,,,,,,,,,,,,,,,,,,,,
,,,,,,,,2023-08-16_08h55.29.186,HF_wild_card,2022.2.4,Win32,60.16485169,62c5d1d54710819b63aceb4e,64d2fd46c836a06233681665,64dc80deedc9348eafb5d49b,,,,,,,decisionTrl,resources/DY.BMP,resources/DBN.BMP,WildCard_Ex,-0.140740712,-0.024074088,1,0,0,0.7577,optionLeft,5,6485,4,1,0,1,0,1,,,,,,,,,,,,,,,,,,,,,,,,,,,,,,,,,,,,,,,
,,,,,,,,2023-08-16_08h55.29.186,HF_wild_card,2022.2.4,Win32,60.16485169,62c5d1d54710819b63aceb4e,64d2fd46c836a06233681665,64dc80deedc9348eafb5d49b,,,,,,,sngl,resources/DBN.BMP,resources/Empty.png,Door2,-0.219444444,-0.024074088,1,0,0,0.5273,optionLeft,20,6505,4,2,0,2,0,1,,,,,,,,,,,,,,,,,,,,,,,,,,,,,,,,,,,,,,,
,,,,,,,,2023-08-16_08h55.29.186,HF_wild_card,2022.2.4,Win32,60.16485169,62c5d1d54710819b63aceb4e,64d2fd46c836a06233681665,64dc80deedc9348eafb5d49b,,,,,,,sngl,resources/Empty.png,resources/DG.BMP,Door3,0.107407464,-0.012037065,1,0,0,0.5642,optionRight,70,6575,4,3,0,3,0,1,,,,,,,,,,,,,,,,,,,,,,,,,,,,,,,,,,,,,,,
,,,,,,,,2023-08-16_08h55.29.186,HF_wild_card,2022.2.4,Win32,60.16485169,62c5d1d54710819b63aceb4e,64d2fd46c836a06233681665,64dc80deedc9348eafb5d49b,,,,,,,sngl,resources/Empty.png,resources/DY.BMP,WildCard_Ex,0.137037065,0.006481467,1,0,0,0.7249,optionRight,5,6580,4,4,0,4,0,1,,,,,,,,,,,,,,,,,,,,,,,,,,,,,,,,,,,,,,,
,,,,,,,,2023-08-16_08h55.29.186,HF_wild_card,2022.2.4,Win32,60.16485169,62c5d1d54710819b63aceb4e,64d2fd46c836a06233681665,64dc80deedc9348eafb5d49b,,,,,,,decisionTrl,resources/DG.BMP,resources/DB.BMP,Door3,-0.171296268,-0.00648151,1,0,0,1.2089,optionLeft,70,6650,4,5,0,5,0,1,,,,,,,,,,,,,,,,,,,,,,,,,,,,,,,,,,,,,,,
,,,,,,,,2023-08-16_08h55.29.186,HF_wild_card,2022.2.4,Win32,60.16485169,62c5d1d54710819b63aceb4e,64d2fd46c836a06233681665,64dc80deedc9348eafb5d49b,,,,,,,decisionTrl,resources/DY.BMP,resources/DG.BMP,Door3,0.162037065,0.007407379,1,0,0,0.9369,optionRight,70,6720,4,6,0,6,0,1,,,,,,,,,,,,,,,,,,,,,,,,,,,,,,,,,,,,,,,
,,,,,,,,2023-08-16_08h55.29.186,HF_wild_card,2022.2.4,Win32,60.16485169,62c5d1d54710819b63aceb4e,64d2fd46c836a06233681665,64dc80deedc9348eafb5d49b,,,,,,,decisionTrl,resources/DBN.BMP,resources/DY.BMP,Door2,-0.226851824,0.007407379,1,0,0,0.7769,optionLeft,40,6760,4,7,0,7,0,1,,,,,,,,,,,,,,,,,,,,,,,,,,,,,,,,,,,,,,,
,,,,,,,,2023-08-16_08h55.29.186,HF_wild_card,2022.2.4,Win32,60.16485169,62c5d1d54710819b63aceb4e,64d2fd46c836a06233681665,64dc80deedc9348eafb5d49b,,,,,,,decisionTrl,resources/DR.BMP,resources/DBN.BMP,Door1,-0.128703647,0.011111111,1,0,0,1.0246,optionLeft,30,6790,4,8,0,8,0,1,,,,,,,,,,,,,,,,,,,,,,,,,,,,,,,,,,,,,,,
,,,,,,,,2023-08-16_08h55.29.186,HF_wild_card,2022.2.4,Win32,60.16485169,62c5d1d54710819b63aceb4e,64d2fd46c836a06233681665,64dc80deedc9348eafb5d49b,,,,,,,decisionTrl,resources/DBN.BMP,resources/DR.BMP,Door2,-0.214814801,0.001851824,1,0,0,1.516,optionLeft,40,6830,4,9,0,9,0,1,,,,,,,,,,,,,,,,,,,,,,,,,,,,,,,,,,,,,,,
,,,,,,,,2023-08-16_08h55.29.186,HF_wild_card,2022.2.4,Win32,60.16485169,62c5d1d54710819b63aceb4e,64d2fd46c836a06233681665,64dc80deedc9348eafb5d49b,,,,,,,sngl,resources/Empty.png,resources/DR.BMP,Door1,0.243518575,-0.002777778,1,0,0,0.6942,optionRight,30,6860,4,10,0,10,0,1,,,,,,,,,,,,,,,,,,,,,,,,,,,,,,,,,,,,,,,
,,,,,,,,2023-08-16_08h55.29.186,HF_wild_card,2022.2.4,Win32,60.16485169,62c5d1d54710819b63aceb4e,64d2fd46c836a06233681665,64dc80deedc9348eafb5d49b,,,,,,,decisionTrl,resources/DB.BMP,resources/DG.BMP,Door4,-0.16851849,-0.008333333,1,0,0,0.7328,optionLeft,80,6940,4,11,0,11,0,1,,,,,,,,,,,,,,,,,,,,,,,,,,,,,,,,,,,,,,,
,,,,,,,,2023-08-16_08h55.29.186,HF_wild_card,2022.2.4,Win32,60.16485169,62c5d1d54710819b63aceb4e,64d2fd46c836a06233681665,64dc80deedc9348eafb5d49b,,,,,,,sngl,resources/Empty.png,resources/DY.BMP,WildCard_Ex,0.120370399,-0.008333333,1,0,0,1.1377,optionRight,95,7035,4,12,0,12,0,1,,,,,,,,,,,,,,,,,,,,,,,,,,,,,,,,,,,,,,,
,,,,,,,,2023-08-16_08h55.29.186,HF_wild_card,2022.2.4,Win32,60.16485169,62c5d1d54710819b63aceb4e,64d2fd46c836a06233681665,64dc80deedc9348eafb5d49b,,,,,,,decisionTrl,resources/DB.BMP,resources/DY.BMP,WildCard_Ex,0.194444444,-0.008333333,1,0,0,0.5327,optionRight,5,7040,4,13,0,13,0,1,,,,,,,,,,,,,,,,,,,,,,,,,,,,,,,,,,,,,,,
,,,,,,,,2023-08-16_08h55.29.186,HF_wild_card,2022.2.4,Win32,60.16485169,62c5d1d54710819b63aceb4e,64d2fd46c836a06233681665,64dc80deedc9348eafb5d49b,,,,,,,decisionTrl,resources/DBN.BMP,resources/DR.BMP,Door1,0.13148151,0.00370369,1,0,0,1.1946,optionRight,30,7070,4,14,0,14,0,1,,,,,,,,,,,,,,,,,,,,,,,,,,,,,,,,,,,,,,,
,,,,,,,,2023-08-16_08h55.29.186,HF_wild_card,2022.2.4,Win32,60.16485169,62c5d1d54710819b63aceb4e,64d2fd46c836a06233681665,64dc80deedc9348eafb5d49b,,,,,,,decisionTrl,resources/DY.BMP,resources/DR.BMP,Door1,0.154629686,0.013888889,1,0,0,0.8918,optionRight,30,7100,4,15,0,15,0,1,,,,,,,,,,,,,,,,,,,,,,,,,,,,,,,,,,,,,,,
,,,,,,,,2023-08-16_08h55.29.186,HF_wild_card,2022.2.4,Win32,60.16485169,62c5d1d54710819b63aceb4e,64d2fd46c836a06233681665,64dc80deedc9348eafb5d49b,,,,,,,decisionTrl,resources/DG.BMP,resources/DB.BMP,Door3,-0.117592536,-0.001851866,1,0,0,2.202,optionLeft,70,7170,4,16,0,16,0,1,,,,,,,,,,,,,,,,,,,,,,,,,,,,,,,,,,,,,,,
,,,,,,,,2023-08-16_08h55.29.186,HF_wild_card,2022.2.4,Win32,60.16485169,62c5d1d54710819b63aceb4e,64d2fd46c836a06233681665,64dc80deedc9348eafb5d49b,,,,,,,decisionTrl,resources/DB.BMP,resources/DG.BMP,Door4,-0.206481467,0.002777778,1,0,0,0.9444,optionLeft,60,7230,4,17,0,17,0,1,,,,,,,,,,,,,,,,,,,,,,,,,,,,,,,,,,,,,,,
,,,,,,,,2023-08-16_08h55.29.186,HF_wild_card,2022.2.4,Win32,60.16485169,62c5d1d54710819b63aceb4e,64d2fd46c836a06233681665,64dc80deedc9348eafb5d49b,,,,,,,ctch,resources/DR.BMP,resources/DB.BMP,Door4,0.193518575,0,1,0,0,0.8203,optionRight,60,7290,4,18,0,18,0,1,,,,,,,,,,,,,,,,,,,,,,,,,,,,,,,,,,,,,,,
,,,,,,,,2023-08-16_08h55.29.186,HF_wild_card,2022.2.4,Win32,60.16485169,62c5d1d54710819b63aceb4e,64d2fd46c836a06233681665,64dc80deedc9348eafb5d49b,,,,,,,sngl,resources/DR.BMP,resources/Empty.png,Door1,-0.113888889,-0.008333333,1,0,0,0.576,optionLeft,30,7320,4,19,0,19,0,1,,,,,,,,,,,,,,,,,,,,,,,,,,,,,,,,,,,,,,,
,,,,,,,,2023-08-16_08h55.29.186,HF_wild_card,2022.2.4,Win32,60.16485169,62c5d1d54710819b63aceb4e,64d2fd46c836a06233681665,64dc80deedc9348eafb5d49b,,,,,,,ctch,resources/DBN.BMP,resources/DG.BMP,Door2,-0.153703647,-0.003703732,1,0,0,0.761,optionLeft,20,7340,4,20,0,20,0,1,,,,,,,,,,,,,,,,,,,,,,,,,,,,,,,,,,,,,,,
,,,,,,,,2023-08-16_08h55.29.186,HF_wild_card,2022.2.4,Win32,60.16485169,62c5d1d54710819b63aceb4e,64d2fd46c836a06233681665,64dc80deedc9348eafb5d49b,,,,,,,decisionTrl,resources/DBN.BMP,resources/DR.BMP,Door2,-0.216666667,-0.005555556,1,0,0,0.8428,optionLeft,40,7380,4,21,0,21,0,1,,,,,,,,,,,,,,,,,,,,,,,,,,,,,,,,,,,,,,,
,,,,,,,,2023-08-16_08h55.29.186,HF_wild_card,2022.2.4,Win32,60.16485169,62c5d1d54710819b63aceb4e,64d2fd46c836a06233681665,64dc80deedc9348eafb5d49b,,,,,,,decisionTrl,resources/DB.BMP,resources/DG.BMP,Door3,0.13148151,-0.010185199,1,0,0,0.4812,optionRight,70,7450,4,22,0,22,0,1,,,,,,,,,,,,,,,,,,,,,,,,,,,,,,,,,,,,,,,
,,,,,,,,2023-08-16_08h55.29.186,HF_wild_card,2022.2.4,Win32,60.16485169,62c5d1d54710819b63aceb4e,64d2fd46c836a06233681665,64dc80deedc9348eafb5d49b,,,,,,,sngl,resources/DY.BMP,resources/Empty.png,WildCard_Ex,-0.153703647,-0.013888889,1,0,0,0.6766,optionLeft,5,7455,4,23,0,23,0,1,,,,,,,,,,,,,,,,,,,,,,,,,,,,,,,,,,,,,,,
,,,,,,,,2023-08-16_08h55.29.186,HF_wild_card,2022.2.4,Win32,60.16485169,62c5d1d54710819b63aceb4e,64d2fd46c836a06233681665,64dc80deedc9348eafb5d49b,,,,,,,sngl,resources/DG.BMP,resources/Empty.png,Door3,-0.115740712,-0.008333333,1,0,0,0.799,optionLeft,70,7525,4,24,0,24,0,1,,,,,,,,,,,,,,,,,,,,,,,,,,,,,,,,,,,,,,,
,,,,,,,,2023-08-16_08h55.29.186,HF_wild_card,2022.2.4,Win32,60.16485169,62c5d1d54710819b63aceb4e,64d2fd46c836a06233681665,64dc80deedc9348eafb5d49b,,,,,,,ctch,resources/DB.BMP,resources/DR.BMP,Door1,0.114814843,-0.009259288,1,0,0,0.5542,optionRight,30,7555,4,25,0,25,0,1,,,,,,,,,,,,,,,,,,,,,,,,,,,,,,,,,,,,,,,
,,,,,,,,2023-08-16_08h55.29.186,HF_wild_card,2022.2.4,Win32,60.16485169,62c5d1d54710819b63aceb4e,64d2fd46c836a06233681665,64dc80deedc9348eafb5d49b,,,,,,,ctch,resources/DB.BMP,resources/DR.BMP,Door1,0.125925954,-0.003703732,1,0,0,0.6066,optionRight,30,7585,4,26,0,26,0,1,,,,,,,,,,,,,,,,,,,,,,,,,,,,,,,,,,,,,,,
,,,,,,,,2023-08-16_08h55.29.186,HF_wild_card,2022.2.4,Win32,60.16485169,62c5d1d54710819b63aceb4e,64d2fd46c836a06233681665,64dc80deedc9348eafb5d49b,,,,,,,sngl,resources/DB.BMP,resources/Empty.png,Door4,-0.104629601,-0.008333333,1,0,0,0.3914,optionLeft,60,7645,4,27,0,27,0,1,,,,,,,,,,,,,,,,,,,,,,,,,,,,,,,,,,,,,,,
,,,,,,,,2023-08-16_08h55.29.186,HF_wild_card,2022.2.4,Win32,60.16485169,62c5d1d54710819b63aceb4e,64d2fd46c836a06233681665,64dc80deedc9348eafb5d49b,,,,,,,ctch,resources/DR.BMP,resources/DB.BMP,Door4,0.147222222,-0.002777778,1,0,0,0.5088,optionRight,60,7705,4,28,0,28,0,1,,,,,,,,,,,,,,,,,,,,,,,,,,,,,,,,,,,,,,,
,,,,,,,,2023-08-16_08h55.29.186,HF_wild_card,2022.2.4,Win32,60.16485169,62c5d1d54710819b63aceb4e,64d2fd46c836a06233681665,64dc80deedc9348eafb5d49b,,,,,,,decisionTrl,resources/DG.BMP,resources/DB.BMP,Door4,0.152777778,-0.007407422,1,0,0,0.5595,optionRight,80,7785,4,29,0,29,0,1,,,,,,,,,,,,,,,,,,,,,,,,,,,,,,,,,,,,,,,
,,,,,,,,2023-08-16_08h55.29.186,HF_wild_card,2022.2.4,Win32,60.16485169,62c5d1d54710819b63aceb4e,64d2fd46c836a06233681665,64dc80deedc9348eafb5d49b,,,,,,,decisionTrl,resources/DG.BMP,resources/DY.BMP,WildCard_Ex,0.110185242,0.000925912,1,0,0,1.1139,optionRight,95,7880,4,30,0,30,0,1,,,,,,,,,,,,,,,,,,,,,,,,,,,,,,,,,,,,,,,
,,,,,,,,2023-08-16_08h55.29.186,HF_wild_card,2022.2.4,Win32,60.16485169,62c5d1d54710819b63aceb4e,64d2fd46c836a06233681665,64dc80deedc9348eafb5d49b,,,,,,,decisionTrl,resources/DG.BMP,resources/DB.BMP,Door4,0.136111111,-0.000925954,1,0,0,0.6107,optionRight,80,7960,4,31,0,31,0,1,,,,,,,,,,,,,,,,,,,,,,,,,,,,,,,,,,,,,,,
,,,,,,,,2023-08-16_08h55.29.186,HF_wild_card,2022.2.4,Win32,60.16485169,62c5d1d54710819b63aceb4e,64d2fd46c836a06233681665,64dc80deedc9348eafb5d49b,,,,,,,decisionTrl,resources/DR.BMP,resources/DBN.BMP,Door2,0.250925954,-0.009259288,1,0,0,0.8416,optionRight,40,8000,4,32,0,32,0,1,,,,,,,,,,,,,,,,,,,,,,,,,,,,,,,,,,,,,,,
,,,,,,,,2023-08-16_08h55.29.186,HF_wild_card,2022.2.4,Win32,60.16485169,62c5d1d54710819b63aceb4e,64d2fd46c836a06233681665,64dc80deedc9348eafb5d49b,,,,,,,decisionTrl,resources/DBN.BMP,resources/DR.BMP,Door2,-0.152777778,0.006481467,1,0,0,0.7761,optionLeft,20,8020,4,33,0,33,0,1,,,,,,,,,,,,,,,,,,,,,,,,,,,,,,,,,,,,,,,
,,,,,,,,2023-08-16_08h55.29.186,HF_wild_card,2022.2.4,Win32,60.16485169,62c5d1d54710819b63aceb4e,64d2fd46c836a06233681665,64dc80deedc9348eafb5d49b,,,,,,,sngl,resources/Empty.png,resources/DBN.BMP,Door2,0.165740797,0.013888889,1,0,0,0.3414,optionRight,40,8060,4,34,0,34,0,1,,,,,,,,,,,,,,,,,,,,,,,,,,,,,,,,,,,,,,,
,,,,,,,,2023-08-16_08h55.29.186,HF_wild_card,2022.2.4,Win32,60.16485169,62c5d1d54710819b63aceb4e,64d2fd46c836a06233681665,64dc80deedc9348eafb5d49b,,,,,,,sngl,resources/DY.BMP,resources/Empty.png,WildCard_Ex,-0.121296268,0.009259245,1,0,0,0.4059,optionLeft,95,8155,4,35,0,35,0,1,,,,,,,,,,,,,,,,,,,,,,,,,,,,,,,,,,,,,,,
,,,,,,,,2023-08-16_08h55.29.186,HF_wild_card,2022.2.4,Win32,60.16485169,62c5d1d54710819b63aceb4e,64d2fd46c836a06233681665,64dc80deedc9348eafb5d49b,,,,,,,decisionTrl,resources/DR.BMP,resources/DBN.BMP,Door2,0.197222222,0.00370369,1,0,0,0.5046,optionRight,40,8195,4,36,0,36,0,1,,,,,,,,,,,,,,,,,,,,,,,,,,,,,,,,,,,,,,,
,,,,,,,,2023-08-16_08h55.29.186,HF_wild_card,2022.2.4,Win32,60.16485169,62c5d1d54710819b63aceb4e,64d2fd46c836a06233681665,64dc80deedc9348eafb5d49b,,,,,,,decisionTrl,resources/DB.BMP,resources/DG.BMP,Door4,-0.170370314,0.010185157,1,0,0,0.5762,optionLeft,60,8255,4,37,0,37,0,1,,,,,,,,,,,,,,,,,,,,,,,,,,,,,,,,,,,,,,,
,,,,,,,,2023-08-16_08h55.29.186,HF_wild_card,2022.2.4,Win32,60.16485169,62c5d1d54710819b63aceb4e,64d2fd46c836a06233681665,64dc80deedc9348eafb5d49b,,,,,,,sngl,resources/Empty.png,resources/DB.BMP,Door4,0.187963019,-0.02129631,1,0,0,0.4378,optionRight,80,8335,4,38,0,38,0,1,,,,,,,,,,,,,,,,,,,,,,,,,,,,,,,,,,,,,,,
,,,,,,,,2023-08-16_08h55.29.186,HF_wild_card,2022.2.4,Win32,60.16485169,62c5d1d54710819b63aceb4e,64d2fd46c836a06233681665,64dc80deedc9348eafb5d49b,,,,,,,decisionTrl,resources/DY.BMP,resources/DB.BMP,Door4,0.103703732,-0.012037065,1,0,0,0.4163,optionRight,60,8395,4,39,0,39,0,1,,,,,,,,,,,,,,,,,,,,,,,,,,,,,,,,,,,,,,,
,,,,,,,,2023-08-16_08h55.29.186,HF_wild_card,2022.2.4,Win32,60.16485169,62c5d1d54710819b63aceb4e,64d2fd46c836a06233681665,64dc80deedc9348eafb5d49b,,,,,,,decisionTrl,resources/DR.BMP,resources/DBN.BMP,Door2,0.132407464,-0.001851866,1,0,0,0.5099,optionRight,20,8415,4,40,0,40,0,1,,,,,,,,,,,,,,,,,,,,,,,,,,,,,,,,,,,,,,,
,,,,,,,,2023-08-16_08h55.29.186,HF_wild_card,2022.2.4,Win32,60.16485169,62c5d1d54710819b63aceb4e,64d2fd46c836a06233681665,64dc80deedc9348eafb5d49b,,,,,,,ctch,resources/DBN.BMP,resources/DG.BMP,Door2,-0.15,-0.012037065,1,0,0,0.5448,optionLeft,40,8455,4,41,0,41,0,1,,,,,,,,,,,,,,,,,,,,,,,,,,,,,,,,,,,,,,,
,,,,,,,,2023-08-16_08h55.29.186,HF_wild_card,2022.2.4,Win32,60.16485169,62c5d1d54710819b63aceb4e,64d2fd46c836a06233681665,64dc80deedc9348eafb5d49b,,,,,,,decisionTrl,resources/DR.BMP,resources/DY.BMP,WildCard_Ex,0.152777778,-0.009259288,1,0,0,0.4721,optionRight,5,8460,4,42,0,42,0,1,,,,,,,,,,,,,,,,,,,,,,,,,,,,,,,,,,,,,,,
,,,,,,,,2023-08-16_08h55.29.186,HF_wild_card,2022.2.4,Win32,60.16485169,62c5d1d54710819b63aceb4e,64d2fd46c836a06233681665,64dc80deedc9348eafb5d49b,,,,,,,ctch,resources/DG.BMP,resources/DBN.BMP,Door3,-0.132407379,-0.013888889,1,0,0,0.4277,optionLeft,70,8530,4,43,0,43,0,1,,,,,,,,,,,,,,,,,,,,,,,,,,,,,,,,,,,,,,,
,,,,,,,,2023-08-16_08h55.29.186,HF_wild_card,2022.2.4,Win32,60.16485169,62c5d1d54710819b63aceb4e,64d2fd46c836a06233681665,64dc80deedc9348eafb5d49b,,,,,,,,,,,,,,,,,,,,,,,,,,3,0,3,0,1,,,,,,,,,,,,,,,,,,,,,,,,,,,,,,,,,,
,,,,,,,,2023-08-16_08h55.29.186,HF_wild_card,2022.2.4,Win32,60.16485169,62c5d1d54710819b63aceb4e,64d2fd46c836a06233681665,64dc80deedc9348eafb5d49b,,,,,,,sngl,resources/Empty.png,resources/DG.BMP,Door3,0.122222222,-0.116666667,1,0,0,0.5631,optionRight,70,8600,5,0,0,0,0,1,,,,,,,,,,,,,,,,,,,,,,,,,,,,,,,,,,,,,,,
,,,,,,,,2023-08-16_08h55.29.186,HF_wild_card,2022.2.4,Win32,60.16485169,62c5d1d54710819b63aceb4e,64d2fd46c836a06233681665,64dc80deedc9348eafb5d49b,,,,,,,decisionTrl,resources/DG.BMP,resources/DB.BMP,Door4,0.101851908,0.00370369,1,0,0,0.5153,optionRight,60,8660,5,1,0,1,0,1,,,,,,,,,,,,,,,,,,,,,,,,,,,,,,,,,,,,,,,
,,,,,,,,2023-08-16_08h55.29.186,HF_wild_card,2022.2.4,Win32,60.16485169,62c5d1d54710819b63aceb4e,64d2fd46c836a06233681665,64dc80deedc9348eafb5d49b,,,,,,,ctch,resources/DB.BMP,resources/DR.BMP,Door4,-0.157407379,0.002777778,1,0,0,0.4196,optionLeft,60,8720,5,2,0,2,0,1,,,,,,,,,,,,,,,,,,,,,,,,,,,,,,,,,,,,,,,
,,,,,,,,2023-08-16_08h55.29.186,HF_wild_card,2022.2.4,Win32,60.16485169,62c5d1d54710819b63aceb4e,64d2fd46c836a06233681665,64dc80deedc9348eafb5d49b,,,,,,,decisionTrl,resources/DG.BMP,resources/DY.BMP,WildCard_Ex,0.346296353,-0.012962977,1,0,0,0.9444,optionRight,95,8815,5,3,0,3,0,1,,,,,,,,,,,,,,,,,,,,,,,,,,,,,,,,,,,,,,,
,,,,,,,,2023-08-16_08h55.29.186,HF_wild_card,2022.2.4,Win32,60.16485169,62c5d1d54710819b63aceb4e,64d2fd46c836a06233681665,64dc80deedc9348eafb5d49b,,,,,,,decisionTrl,resources/DBN.BMP,resources/DR.BMP,Door1,0.207407464,-0.012962977,1,0,0,1.0925,optionRight,30,8845,5,4,0,4,0,1,,,,,,,,,,,,,,,,,,,,,,,,,,,,,,,,,,,,,,,
,,,,,,,,2023-08-16_08h55.29.186,HF_wild_card,2022.2.4,Win32,60.16485169,62c5d1d54710819b63aceb4e,64d2fd46c836a06233681665,64dc80deedc9348eafb5d49b,,,,,,,decisionTrl,resources/DR.BMP,resources/DBN.BMP,Door1,-0.389814801,0.019444444,1,0,0,0.4255,optionLeft,30,8875,5,5,0,5,0,1,,,,,,,,,,,,,,,,,,,,,,,,,,,,,,,,,,,,,,,
,,,,,,,,2023-08-16_08h55.29.186,HF_wild_card,2022.2.4,Win32,60.16485169,62c5d1d54710819b63aceb4e,64d2fd46c836a06233681665,64dc80deedc9348eafb5d49b,,,,,,,decisionTrl,resources/DG.BMP,resources/DB.BMP,Door4,0.309259288,-0.024074088,1,0,0,0.3081,optionRight,80,8955,5,6,0,6,0,1,,,,,,,,,,,,,,,,,,,,,,,,,,,,,,,,,,,,,,,
,,,,,,,,2023-08-16_08h55.29.186,HF_wild_card,2022.2.4,Win32,60.16485169,62c5d1d54710819b63aceb4e,64d2fd46c836a06233681665,64dc80deedc9348eafb5d49b,,,,,,,decisionTrl,resources/DR.BMP,resources/DY.BMP,Door1,-0.39351849,0.013888889,1,0,0,0.3256,optionLeft,30,8985,5,7,0,7,0,1,,,,,,,,,,,,,,,,,,,,,,,,,,,,,,,,,,,,,,,
,,,,,,,,2023-08-16_08h55.29.186,HF_wild_card,2022.2.4,Win32,60.16485169,62c5d1d54710819b63aceb4e,64d2fd46c836a06233681665,64dc80deedc9348eafb5d49b,,,,,,,decisionTrl,resources/DR.BMP,resources/DBN.BMP,Door2,0.301851908,-0.013888889,1,0,0,0.3283,optionRight,20,9005,5,8,0,8,0,1,,,,,,,,,,,,,,,,,,,,,,,,,,,,,,,,,,,,,,,
,,,,,,,,2023-08-16_08h55.29.186,HF_wild_card,2022.2.4,Win32,60.16485169,62c5d1d54710819b63aceb4e,64d2fd46c836a06233681665,64dc80deedc9348eafb5d49b,,,,,,,ctch,resources/DR.BMP,resources/DB.BMP,Door4,0.266666667,-0.041666667,1,0,0,0.3324,optionRight,80,9085,5,9,0,9,0,1,,,,,,,,,,,,,,,,,,,,,,,,,,,,,,,,,,,,,,,
,,,,,,,,2023-08-16_08h55.29.186,HF_wild_card,2022.2.4,Win32,60.16485169,62c5d1d54710819b63aceb4e,64d2fd46c836a06233681665,64dc80deedc9348eafb5d49b,,,,,,,decisionTrl,resources/DB.BMP,resources/DG.BMP,Door4,-0.390740712,0.009259245,1,0,0,0.3117,optionLeft,60,9145,5,10,0,10,0,1,,,,,,,,,,,,,,,,,,,,,,,,,,,,,,,,,,,,,,,
,,,,,,,,2023-08-16_08h55.29.186,HF_wild_card,2022.2.4,Win32,60.16485169,62c5d1d54710819b63aceb4e,64d2fd46c836a06233681665,64dc80deedc9348eafb5d49b,,,,,,,sngl,resources/DR.BMP,resources/Empty.png,Door1,0.28148151,-0.012962977,1,0,0,0.2943,optionLeft,30,9175,5,11,0,11,0,1,,,,,,,,,,,,,,,,,,,,,,,,,,,,,,,,,,,,,,,
,,,,,,,,2023-08-16_08h55.29.186,HF_wild_card,2022.2.4,Win32,60.16485169,62c5d1d54710819b63aceb4e,64d2fd46c836a06233681665,64dc80deedc9348eafb5d49b,,,,,,,ctch,resources/DG.BMP,resources/DBN.BMP,Door3,-0.387962935,0.012037023,1,0,0,0.3745,optionLeft,70,9245,5,12,0,12,0,1,,,,,,,,,,,,,,,,,,,,,,,,,,,,,,,,,,,,,,,
,,,,,,,,2023-08-16_08h55.29.186,HF_wild_card,2022.2.4,Win32,60.16485169,62c5d1d54710819b63aceb4e,64d2fd46c836a06233681665,64dc80deedc9348eafb5d49b,,,,,,,decisionTrl,resources/DB.BMP,resources/DG.BMP,Door3,0.268518575,-0.032407422,1,0,0,0.3819,optionRight,70,9315,5,13,0,13,0,1,,,,,,,,,,,,,,,,,,,,,,,,,,,,,,,,,,,,,,,
,,,,,,,,2023-08-16_08h55.29.186,HF_wild_card,2022.2.4,Win32,60.16485169,62c5d1d54710819b63aceb4e,64d2fd46c836a06233681665,64dc80deedc9348eafb5d49b,,,,,,,sngl,resources/DY.BMP,resources/Empty.png,WildCard_Ex,-0.387037023,0.014814801,1,0,0,0.2653,optionLeft,5,9320,5,14,0,14,0,1,,,,,,,,,,,,,,,,,,,,,,,,,,,,,,,,,,,,,,,
,,,,,,,,2023-08-16_08h55.29.186,HF_wild_card,2022.2.4,Win32,60.16485169,62c5d1d54710819b63aceb4e,64d2fd46c836a06233681665,64dc80deedc9348eafb5d49b,,,,,,,ctch,resources/DBN.BMP,resources/DG.BMP,Door2,-0.386111111,0.014814801,1,0,0,0.3404,optionLeft,20,9340,5,15,0,15,0,1,,,,,,,,,,,,,,,,,,,,,,,,,,,,,,,,,,,,,,,
,,,,,,,,2023-08-16_08h55.29.186,HF_wild_card,2022.2.4,Win32,60.16485169,62c5d1d54710819b63aceb4e,64d2fd46c836a06233681665,64dc80deedc9348eafb5d49b,,,,,,,decisionTrl,resources/DY.BMP,resources/DR.BMP,Door1,0.275925954,-0.041666667,1,0,0,0.2858,optionRight,30,9370,5,16,0,16,0,1,,,,,,,,,,,,,,,,,,,,,,,,,,,,,,,,,,,,,,,
,,,,,,,,2023-08-16_08h55.29.186,HF_wild_card,2022.2.4,Win32,60.16485169,62c5d1d54710819b63aceb4e,64d2fd46c836a06233681665,64dc80deedc9348eafb5d49b,,,,,,,decisionTrl,resources/DBN.BMP,resources/DY.BMP,Door2,-0.386111111,0.014814801,1,0,0,0.2959,optionLeft,40,9410,5,17,0,17,0,1,,,,,,,,,,,,,,,,,,,,,,,,,,,,,,,,,,,,,,,
,,,,,,,,2023-08-16_08h55.29.186,HF_wild_card,2022.2.4,Win32,60.16485169,62c5d1d54710819b63aceb4e,64d2fd46c836a06233681665,64dc80deedc9348eafb5d49b,,,,,,,decisionTrl,resources/DB.BMP,resources/DG.BMP,Door3,0.268518575,-0.033333333,1,0,0,0.2738,optionRight,70,9480,5,18,0,18,0,1,,,,,,,,,,,,,,,,,,,,,,,,,,,,,,,,,,,,,,,
,,,,,,,,2023-08-16_08h55.29.186,HF_wild_card,2022.2.4,Win32,60.16485169,62c5d1d54710819b63aceb4e,64d2fd46c836a06233681665,64dc80deedc9348eafb5d49b,,,,,,,ctch,resources/DG.BMP,resources/DBN.BMP,Door3,-0.383333333,0.011111111,1,0,0,0.2672,optionLeft,70,9550,5,19,0,19,0,1,,,,,,,,,,,,,,,,,,,,,,,,,,,,,,,,,,,,,,,
,,,,,,,,2023-08-16_08h55.29.186,HF_wild_card,2022.2.4,Win32,60.16485169,62c5d1d54710819b63aceb4e,64d2fd46c836a06233681665,64dc80deedc9348eafb5d49b,,,,,,,ctch,resources/DR.BMP,resources/DB.BMP,Door4,0.257407464,-0.037962977,1,0,0,0.2093,optionRight,80,9630,5,20,0,20,0,1,,,,,,,,,,,,,,,,,,,,,,,,,,,,,,,,,,,,,,,
,,,,,,,,2023-08-16_08h55.29.186,HF_wild_card,2022.2.4,Win32,60.16485169,62c5d1d54710819b63aceb4e,64d2fd46c836a06233681665,64dc80deedc9348eafb5d49b,,,,,,,decisionTrl,resources/DY.BMP,resources/DB.BMP,Door4,0.25648151,-0.037037065,1,0,0,0.2635,optionRight,60,9690,5,21,0,21,0,1,,,,,,,,,,,,,,,,,,,,,,,,,,,,,,,,,,,,,,,
,,,,,,,,2023-08-16_08h55.29.186,HF_wild_card,2022.2.4,Win32,60.16485169,62c5d1d54710819b63aceb4e,64d2fd46c836a06233681665,64dc80deedc9348eafb5d49b,,,,,,,sngl,resources/DB.BMP,resources/Empty.png,Door4,-0.385185157,0.012037023,1,0,0,0.2521,optionLeft,80,9770,5,22,0,22,0,1,,,,,,,,,,,,,,,,,,,,,,,,,,,,,,,,,,,,,,,
,,,,,,,,2023-08-16_08h55.29.186,HF_wild_card,2022.2.4,Win32,60.16485169,62c5d1d54710819b63aceb4e,64d2fd46c836a06233681665,64dc80deedc9348eafb5d49b,,,,,,,sngl,resources/DBN.BMP,resources/Empty.png,Door2,-0.386111111,0.012037023,1,0,0,0.2782,optionLeft,40,9810,5,23,0,23,0,1,,,,,,,,,,,,,,,,,,,,,,,,,,,,,,,,,,,,,,,
,,,,,,,,2023-08-16_08h55.29.186,HF_wild_card,2022.2.4,Win32,60.16485169,62c5d1d54710819b63aceb4e,64d2fd46c836a06233681665,64dc80deedc9348eafb5d49b,,,,,,,ctch,resources/DB.BMP,resources/DR.BMP,Door4,-0.381481467,0.012037023,1,0,0,0.2028,optionLeft,60,9870,5,24,0,24,0,1,,,,,,,,,,,,,,,,,,,,,,,,,,,,,,,,,,,,,,,
,,,,,,,,2023-08-16_08h55.29.186,HF_wild_card,2022.2.4,Win32,60.16485169,62c5d1d54710819b63aceb4e,64d2fd46c836a06233681665,64dc80deedc9348eafb5d49b,,,,,,,sngl,resources/Empty.png,resources/DB.BMP,Door4,-0.375,0.001851824,1,0,0,0.2091,optionRight,60,9930,5,25,0,25,0,1,,,,,,,,,,,,,,,,,,,,,,,,,,,,,,,,,,,,,,,
,,,,,,,,2023-08-16_08h55.29.186,HF_wild_card,2022.2.4,Win32,60.16485169,62c5d1d54710819b63aceb4e,64d2fd46c836a06233681665,64dc80deedc9348eafb5d49b,,,,,,,decisionTrl,resources/DR.BMP,resources/DBN.BMP,Door1,-0.382407379,0.013888889,1,0,0,0.2742,optionLeft,30,9960,5,26,0,26,0,1,,,,,,,,,,,,,,,,,,,,,,,,,,,,,,,,,,,,,,,
,,,,,,,,2023-08-16_08h55.29.186,HF_wild_card,2022.2.4,Win32,60.16485169,62c5d1d54710819b63aceb4e,64d2fd46c836a06233681665,64dc80deedc9348eafb5d49b,,,,,,,sngl,resources/DY.BMP,resources/Empty.png,WildCard_Ex,0.255555556,-0.041666667,1,0,0,0.2922,optionLeft,95,10055,5,27,0,27,0,1,,,,,,,,,,,,,,,,,,,,,,,,,,,,,,,,,,,,,,,
,,,,,,,,2023-08-16_08h55.29.186,HF_wild_card,2022.2.4,Win32,60.16485169,62c5d1d54710819b63aceb4e,64d2fd46c836a06233681665,64dc80deedc9348eafb5d49b,,,,,,,decisionTrl,resources/DBN.BMP,resources/DR.BMP,Door2,-0.379629601,0.012962935,1,0,0,0.2945,optionLeft,20,10075,5,28,0,28,0,1,,,,,,,,,,,,,,,,,,,,,,,,,,,,,,,,,,,,,,,
,,,,,,,,2023-08-16_08h55.29.186,HF_wild_card,2022.2.4,Win32,60.16485169,62c5d1d54710819b63aceb4e,64d2fd46c836a06233681665,64dc80deedc9348eafb5d49b,,,,,,,decisionTrl,resources/DG.BMP,resources/DB.BMP,Door4,0.266666667,-0.042592621,1,0,0,0.2857,optionRight,60,10135,5,29,0,29,0,1,,,,,,,,,,,,,,,,,,,,,,,,,,,,,,,,,,,,,,,
,,,,,,,,2023-08-16_08h55.29.186,HF_wild_card,2022.2.4,Win32,60.16485169,62c5d1d54710819b63aceb4e,64d2fd46c836a06233681665,64dc80deedc9348eafb5d49b,,,,,,,decisionTrl,resources/DBN.BMP,resources/DR.BMP,Door2,-0.381481467,0.016666667,1,0,0,0.373,optionLeft,20,10155,5,30,0,30,0,1,,,,,,,,,,,,,,,,,,,,,,,,,,,,,,,,,,,,,,,
,,,,,,,,2023-08-16_08h55.29.186,HF_wild_card,2022.2.4,Win32,60.16485169,62c5d1d54710819b63aceb4e,64d2fd46c836a06233681665,64dc80deedc9348eafb5d49b,,,,,,,sngl,resources/DG.BMP,resources/Empty.png,Door3,-0.380555556,0.013888889,1,0,0,0.3709,optionLeft,70,10225,5,31,0,31,0,1,,,,,,,,,,,,,,,,,,,,,,,,,,,,,,,,,,,,,,,
,,,,,,,,2023-08-16_08h55.29.186,HF_wild_card,2022.2.4,Win32,60.16485169,62c5d1d54710819b63aceb4e,64d2fd46c836a06233681665,64dc80deedc9348eafb5d49b,,,,,,,decisionTrl,resources/DY.BMP,resources/DG.BMP,WildCard_Ex,-0.377777778,0.014814801,1,0,0,0.3789,optionLeft,5,10230,5,32,0,32,0,1,,,,,,,,,,,,,,,,,,,,,,,,,,,,,,,,,,,,,,,
,,,,,,,,2023-08-16_08h55.29.186,HF_wild_card,2022.2.4,Win32,60.16485169,62c5d1d54710819b63aceb4e,64d2fd46c836a06233681665,64dc80deedc9348eafb5d49b,,,,,,,sngl,resources/Empty.png,resources/DR.BMP,Door1,0.268518575,-0.018518533,1,0,0,0.3445,optionRight,30,10260,5,33,0,33,0,1,,,,,,,,,,,,,,,,,,,,,,,,,,,,,,,,,,,,,,,
,,,,,,,,2023-08-16_08h55.29.186,HF_wild_card,2022.2.4,Win32,60.16485169,62c5d1d54710819b63aceb4e,64d2fd46c836a06233681665,64dc80deedc9348eafb5d49b,,,,,,,decisionTrl,resources/DB.BMP,resources/DG.BMP,Door4,-0.451851824,0.024074046,1,0,0,0.2869,optionLeft,80,10340,5,34,0,34,0,1,,,,,,,,,,,,,,,,,,,,,,,,,,,,,,,,,,,,,,,
,,,,,,,,2023-08-16_08h55.29.186,HF_wild_card,2022.2.4,Win32,60.16485169,62c5d1d54710819b63aceb4e,64d2fd46c836a06233681665,64dc80deedc9348eafb5d49b,,,,,,,sngl,resources/Empty.png,resources/DBN.BMP,Door2,0.273148176,-0.036111111,1,0,0,0.3321,optionRight,20,10360,5,35,0,35,0,1,,,,,,,,,,,,,,,,,,,,,,,,,,,,,,,,,,,,,,,
,,,,,,,,2023-08-16_08h55.29.186,HF_wild_card,2022.2.4,Win32,60.16485169,62c5d1d54710819b63aceb4e,64d2fd46c836a06233681665,64dc80deedc9348eafb5d49b,,,,,,,decisionTrl,resources/DG.BMP,resources/DB.BMP,Door3,-0.379629601,0.025925912,1,0,0,0.316,optionLeft,70,10430,5,36,0,36,0,1,,,,,,,,,,,,,,,,,,,,,,,,,,,,,,,,,,,,,,,
,,,,,,,,2023-08-16_08h55.29.186,HF_wild_card,2022.2.4,Win32,60.16485169,62c5d1d54710819b63aceb4e,64d2fd46c836a06233681665,64dc80deedc9348eafb5d49b,,,,,,,decisionTrl,resources/DBN.BMP,resources/DR.BMP,Door1,0.266666667,-0.041666667,1,0,0,0.2931,optionRight,30,10460,5,37,0,37,0,1,,,,,,,,,,,,,,,,,,,,,,,,,,,,,,,,,,,,,,,
,,,,,,,,2023-08-16_08h55.29.186,HF_wild_card,2022.2.4,Win32,60.16485169,62c5d1d54710819b63aceb4e,64d2fd46c836a06233681665,64dc80deedc9348eafb5d49b,,,,,,,decisionTrl,resources/DR.BMP,resources/DBN.BMP,Door1,-0.37870369,0.021296268,1,0,0,0.1883,optionLeft,30,10490,5,38,0,38,0,1,,,,,,,,,,,,,,,,,,,,,,,,,,,,,,,,,,,,,,,
,,,,,,,,2023-08-16_08h55.29.186,HF_wild_card,2022.2.4,Win32,60.16485169,62c5d1d54710819b63aceb4e,64d2fd46c836a06233681665,64dc80deedc9348eafb5d49b,,,,,,,sngl,resources/Empty.png,resources/DY.BMP,WildCard_Ex,0.266666667,-0.041666667,1,0,0,0.2458,optionRight,5,10495,5,39,0,39,0,1,,,,,,,,,,,,,,,,,,,,,,,,,,,,,,,,,,,,,,,
,,,,,,,,2023-08-16_08h55.29.186,HF_wild_card,2022.2.4,Win32,60.16485169,62c5d1d54710819b63aceb4e,64d2fd46c836a06233681665,64dc80deedc9348eafb5d49b,,,,,,,decisionTrl,resources/DY.BMP,resources/DBN.BMP,WildCard_Ex,-0.377777778,0.025,1,0,0,0.2573,optionLeft,95,10590,5,40,0,40,0,1,,,,,,,,,,,,,,,,,,,,,,,,,,,,,,,,,,,,,,,
,,,,,,,,2023-08-16_08h55.29.186,HF_wild_card,2022.2.4,Win32,60.16485169,62c5d1d54710819b63aceb4e,64d2fd46c836a06233681665,64dc80deedc9348eafb5d49b,,,,,,,sngl,resources/Empty.png,resources/DY.BMP,WildCard_Ex,0.266666667,-0.011111111,1,0,0,0.1748,optionRight,95,10685,5,41,0,41,0,1,,,,,,,,,,,,,,,,,,,,,,,,,,,,,,,,,,,,,,,
,,,,,,,,2023-08-16_08h55.29.186,HF_wild_card,2022.2.4,Win32,60.16485169,62c5d1d54710819b63aceb4e,64d2fd46c836a06233681665,64dc80deedc9348eafb5d49b,,,,,,,decisionTrl,resources/DB.BMP,resources/DY.BMP,Door4,-0.377777778,0.025,1,0,0,0.2947,optionLeft,60,10745,5,42,0,42,0,1,,,,,,,,,,,,,,,,,,,,,,,,,,,,,,,,,,,,,,,
,,,,,,,,2023-08-16_08h55.29.186,HF_wild_card,2022.2.4,Win32,60.16485169,62c5d1d54710819b63aceb4e,64d2fd46c836a06233681665,64dc80deedc9348eafb5d49b,,,,,,,ctch,resources/DBN.BMP,resources/DG.BMP,Door3,0.239814843,-0.041666667,1,0,0,0.3576,optionRight,70,10815,5,43,0,43,0,1,,,,,,,,,,,,,,,,,,,,,,,,,,,,,,,,,,,,,,,
,,,,,,,,2023-08-16_08h55.29.186,HF_wild_card,2022.2.4,Win32,60.16485169,62c5d1d54710819b63aceb4e,64d2fd46c836a06233681665,64dc80deedc9348eafb5d49b,,,,,,,,,,,,,,,,,,,,,,,,,,4,0,4,0,1,,,,,,,,,,,,,,,,,,,,,,,,,,,,,,,,,,
,,,,,,,,2023-08-16_08h55.29.186,HF_wild_card,2022.2.4,Win32,60.16485169,62c5d1d54710819b63aceb4e,64d2fd46c836a06233681665,64dc80deedc9348eafb5d49b,,,,,,,sngl,resources/DY.BMP,resources/Empty.png,WildCard_Ex,-0.387037023,0.042592578,1,0,0,0.5481,optionLeft,5,10820,6,0,0,0,0,1,,,,,,,,,,,,,,,,,,,,,,,,,,,,,,,,,,,,,,,
,,,,,,,,2023-08-16_08h55.29.186,HF_wild_card,2022.2.4,Win32,60.16485169,62c5d1d54710819b63aceb4e,64d2fd46c836a06233681665,64dc80deedc9348eafb5d49b,,,,,,,ctch,resources/DG.BMP,resources/DBN.BMP,Door3,-0.381481467,0.036111111,1,0,0,0.4576,optionLeft,70,10890,6,1,0,1,0,1,,,,,,,,,,,,,,,,,,,,,,,,,,,,,,,,,,,,,,,
,,,,,,,,2023-08-16_08h55.29.186,HF_wild_card,2022.2.4,Win32,60.16485169,62c5d1d54710819b63aceb4e,64d2fd46c836a06233681665,64dc80deedc9348eafb5d49b,,,,,,,sngl,resources/DBN.BMP,resources/Empty.png,Door2,0.257407464,0.014814801,1,0,0,0.2449,optionLeft,20,10910,6,2,0,2,0,1,,,,,,,,,,,,,,,,,,,,,,,,,,,,,,,,,,,,,,,
,,,,,,,,2023-08-16_08h55.29.186,HF_wild_card,2022.2.4,Win32,60.16485169,62c5d1d54710819b63aceb4e,64d2fd46c836a06233681665,64dc80deedc9348eafb5d49b,,,,,,,decisionTrl,resources/DB.BMP,resources/DG.BMP,Door4,-0.379629601,0.032407379,1,0,0,0.3947,optionLeft,80,10990,6,3,0,3,0,1,,,,,,,,,,,,,,,,,,,,,,,,,,,,,,,,,,,,,,,
,,,,,,,,2023-08-16_08h55.29.186,HF_wild_card,2022.2.4,Win32,60.16485169,62c5d1d54710819b63aceb4e,64d2fd46c836a06233681665,64dc80deedc9348eafb5d49b,,,,,,,sngl,resources/Empty.png,resources/DBN.BMP,Door2,0.237963019,-0.012037065,1,0,0,0.29,optionRight,40,11030,6,4,0,4,0,1,,,,,,,,,,,,,,,,,,,,,,,,,,,,,,,,,,,,,,,
,,,,,,,,2023-08-16_08h55.29.186,HF_wild_card,2022.2.4,Win32,60.16485169,62c5d1d54710819b63aceb4e,64d2fd46c836a06233681665,64dc80deedc9348eafb5d49b,,,,,,,ctch,resources/DB.BMP,resources/DR.BMP,Door4,-0.381481467,0.036111111,1,0,0,0.1693,optionLeft,60,11090,6,5,0,5,0,1,,,,,,,,,,,,,,,,,,,,,,,,,,,,,,,,,,,,,,,
,,,,,,,,2023-08-16_08h55.29.186,HF_wild_card,2022.2.4,Win32,60.16485169,62c5d1d54710819b63aceb4e,64d2fd46c836a06233681665,64dc80deedc9348eafb5d49b,,,,,,,decisionTrl,resources/DY.BMP,resources/DG.BMP,Door3,0.262037065,0.014814801,1,0,0,0.2371,optionRight,70,11160,6,6,0,6,0,1,,,,,,,,,,,,,,,,,,,,,,,,,,,,,,,,,,,,,,,
,,,,,,,,2023-08-16_08h55.29.186,HF_wild_card,2022.2.4,Win32,60.16485169,62c5d1d54710819b63aceb4e,64d2fd46c836a06233681665,64dc80deedc9348eafb5d49b,,,,,,,ctch,resources/DG.BMP,resources/DBN.BMP,Door3,-0.381481467,0.035185157,1,0,0,0.1491,optionLeft,70,11230,6,7,0,7,0,1,,,,,,,,,,,,,,,,,,,,,,,,,,,,,,,,,,,,,,,
,,,,,,,,2023-08-16_08h55.29.186,HF_wild_card,2022.2.4,Win32,60.16485169,62c5d1d54710819b63aceb4e,64d2fd46c836a06233681665,64dc80deedc9348eafb5d49b,,,,,,,ctch,resources/DR.BMP,resources/DB.BMP,Door4,0.244444444,0.014814801,1,0,0,0.2417,optionRight,80,11310,6,8,0,8,0,1,,,,,,,,,,,,,,,,,,,,,,,,,,,,,,,,,,,,,,,
,,,,,,,,2023-08-16_08h55.29.186,HF_wild_card,2022.2.4,Win32,60.16485169,62c5d1d54710819b63aceb4e,64d2fd46c836a06233681665,64dc80deedc9348eafb5d49b,,,,,,,decisionTrl,resources/DB.BMP,resources/DY.BMP,Door4,-0.379629601,0.04351849,1,0,0,0.1073,optionLeft,80,11390,6,9,0,9,0,1,,,,,,,,,,,,,,,,,,,,,,,,,,,,,,,,,,,,,,,
,,,,,,,,2023-08-16_08h55.29.186,HF_wild_card,2022.2.4,Win32,60.16485169,62c5d1d54710819b63aceb4e,64d2fd46c836a06233681665,64dc80deedc9348eafb5d49b,,,,,,,decisionTrl,resources/DBN.BMP,resources/DR.BMP,Door2,-0.381481467,0.037962935,1,0,0,0.1165,optionLeft,40,11430,6,10,0,10,0,1,,,,,,,,,,,,,,,,,,,,,,,,,,,,,,,,,,,,,,,
,,,,,,,,2023-08-16_08h55.29.186,HF_wild_card,2022.2.4,Win32,60.16485169,62c5d1d54710819b63aceb4e,64d2fd46c836a06233681665,64dc80deedc9348eafb5d49b,,,,,,,decisionTrl,resources/DR.BMP,resources/DBN.BMP,Door1,-0.381481467,0.036111111,1,0,0,0.1434,optionLeft,30,11460,6,11,0,11,0,1,,,,,,,,,,,,,,,,,,,,,,,,,,,,,,,,,,,,,,,
,,,,,,,,2023-08-16_08h55.29.186,HF_wild_card,2022.2.4,Win32,60.16485169,62c5d1d54710819b63aceb4e,64d2fd46c836a06233681665,64dc80deedc9348eafb5d49b,,,,,,,decisionTrl,resources/DR.BMP,resources/DBN.BMP,Door1,-0.379629601,0.035185157,1,0,0,0.2456,optionLeft,30,11490,6,12,0,12,0,1,,,,,,,,,,,,,,,,,,,,,,,,,,,,,,,,,,,,,,,
,,,,,,,,2023-08-16_08h55.29.186,HF_wild_card,2022.2.4,Win32,60.16485169,62c5d1d54710819b63aceb4e,64d2fd46c836a06233681665,64dc80deedc9348eafb5d49b,,,,,,,decisionTrl,resources/DBN.BMP,resources/DY.BMP,Door2,-0.379629601,0.031481467,1,0,0,0.1156,optionLeft,20,11510,6,13,0,13,0,1,,,,,,,,,,,,,,,,,,,,,,,,,,,,,,,,,,,,,,,
,,,,,,,,2023-08-16_08h55.29.186,HF_wild_card,2022.2.4,Win32,60.16485169,62c5d1d54710819b63aceb4e,64d2fd46c836a06233681665,64dc80deedc9348eafb5d49b,,,,,,,sngl,resources/Empty.png,resources/DR.BMP,Door1,0.236111111,-0.012962977,1,0,0,0.4912,optionRight,30,11540,6,14,0,14,0,1,,,,,,,,,,,,,,,,,,,,,,,,,,,,,,,,,,,,,,,
,,,,,,,,2023-08-16_08h55.29.186,HF_wild_card,2022.2.4,Win32,60.16485169,62c5d1d54710819b63aceb4e,64d2fd46c836a06233681665,64dc80deedc9348eafb5d49b,,,,,,,sngl,resources/DG.BMP,resources/Empty.png,Door3,0.237963019,-0.003703732,1,0,0,0.2601,optionLeft,70,11610,6,15,0,15,0,1,,,,,,,,,,,,,,,,,,,,,,,,,,,,,,,,,,,,,,,
,,,,,,,,2023-08-16_08h55.29.186,HF_wild_card,2022.2.4,Win32,60.16485169,62c5d1d54710819b63aceb4e,64d2fd46c836a06233681665,64dc80deedc9348eafb5d49b,,,,,,,decisionTrl,resources/DY.BMP,resources/DBN.BMP,WildCard_Ex,-0.384259245,0.037962935,1,0,0,0.2253,optionLeft,95,11705,6,16,0,16,0,1,,,,,,,,,,,,,,,,,,,,,,,,,,,,,,,,,,,,,,,
,,,,,,,,2023-08-16_08h55.29.186,HF_wild_card,2022.2.4,Win32,60.16485169,62c5d1d54710819b63aceb4e,64d2fd46c836a06233681665,64dc80deedc9348eafb5d49b,,,,,,,ctch,resources/DBN.BMP,resources/DG.BMP,Door3,0.255555556,0.012962935,1,0,0,0.225,optionRight,70,11775,6,17,0,17,0,1,,,,,,,,,,,,,,,,,,,,,,,,,,,,,,,,,,,,,,,
,,,,,,,,2023-08-16_08h55.29.186,HF_wild_card,2022.2.4,Win32,60.16485169,62c5d1d54710819b63aceb4e,64d2fd46c836a06233681665,64dc80deedc9348eafb5d49b,,,,,,,decisionTrl,resources/DY.BMP,resources/DB.BMP,WildCard_Ex,-0.389814801,0.041666667,1,0,0,0.2567,optionLeft,95,11870,6,18,0,18,0,1,,,,,,,,,,,,,,,,,,,,,,,,,,,,,,,,,,,,,,,
,,,,,,,,2023-08-16_08h55.29.186,HF_wild_card,2022.2.4,Win32,60.16485169,62c5d1d54710819b63aceb4e,64d2fd46c836a06233681665,64dc80deedc9348eafb5d49b,,,,,,,sngl,resources/Empty.png,resources/DY.BMP,WildCard_Ex,0.245370399,0.004629601,1,0,0,0.1919,optionRight,5,11875,6,19,0,19,0,1,,,,,,,,,,,,,,,,,,,,,,,,,,,,,,,,,,,,,,,
,,,,,,,,2023-08-16_08h55.29.186,HF_wild_card,2022.2.4,Win32,60.16485169,62c5d1d54710819b63aceb4e,64d2fd46c836a06233681665,64dc80deedc9348eafb5d49b,,,,,,,decisionTrl,resources/DBN.BMP,resources/DR.BMP,Door2,-0.387037023,0.039814801,1,0,0,0.2306,optionLeft,20,11895,6,20,0,20,0,1,,,,,,,,,,,,,,,,,,,,,,,,,,,,,,,,,,,,,,,
,,,,,,,,2023-08-16_08h55.29.186,HF_wild_card,2022.2.4,Win32,60.16485169,62c5d1d54710819b63aceb4e,64d2fd46c836a06233681665,64dc80deedc9348eafb5d49b,,,,,,,decisionTrl,resources/DG.BMP,resources/DB.BMP,Door4,0.239814843,-0.012962977,1,0,0,0.4962,optionRight,60,11955,6,21,0,21,0,1,,,,,,,,,,,,,,,,,,,,,,,,,,,,,,,,,,,,,,,
,,,,,,,,2023-08-16_08h55.29.186,HF_wild_card,2022.2.4,Win32,60.16485169,62c5d1d54710819b63aceb4e,64d2fd46c836a06233681665,64dc80deedc9348eafb5d49b,,,,,,,decisionTrl,resources/DB.BMP,resources/DG.BMP,Door4,-0.387037023,0.041666667,1,0,0,0.2598,optionLeft,60,12015,6,22,0,22,0,1,,,,,,,,,,,,,,,,,,,,,,,,,,,,,,,,,,,,,,,
,,,,,,,,2023-08-16_08h55.29.186,HF_wild_card,2022.2.4,Win32,60.16485169,62c5d1d54710819b63aceb4e,64d2fd46c836a06233681665,64dc80deedc9348eafb5d49b,,,,,,,decisionTrl,resources/DY.BMP,resources/DR.BMP,WildCard_Ex,-0.386111111,0.041666667,1,0,0,0.2832,optionLeft,95,12110,6,23,0,23,0,1,,,,,,,,,,,,,,,,,,,,,,,,,,,,,,,,,,,,,,,
,,,,,,,,2023-08-16_08h55.29.186,HF_wild_card,2022.2.4,Win32,60.16485169,62c5d1d54710819b63aceb4e,64d2fd46c836a06233681665,64dc80deedc9348eafb5d49b,,,,,,,sngl,resources/DY.BMP,resources/Empty.png,WildCard_Ex,0.237963019,-0.012962977,1,0,0,0.2704,optionLeft,95,12205,6,24,0,24,0,1,,,,,,,,,,,,,,,,,,,,,,,,,,,,,,,,,,,,,,,
,,,,,,,,2023-08-16_08h55.29.186,HF_wild_card,2022.2.4,Win32,60.16485169,62c5d1d54710819b63aceb4e,64d2fd46c836a06233681665,64dc80deedc9348eafb5d49b,,,,,,,decisionTrl,resources/DR.BMP,resources/DY.BMP,WildCard_Ex,0.237963019,-0.012962977,1,0,0,0.2707,optionRight,95,12300,6,25,0,25,0,1,,,,,,,,,,,,,,,,,,,,,,,,,,,,,,,,,,,,,,,
,,,,,,,,2023-08-16_08h55.29.186,HF_wild_card,2022.2.4,Win32,60.16485169,62c5d1d54710819b63aceb4e,64d2fd46c836a06233681665,64dc80deedc9348eafb5d49b,,,,,,,ctch,resources/DB.BMP,resources/DR.BMP,Door1,0.229629686,-0.012962977,1,0,0,0.332,optionRight,30,12330,6,26,0,26,0,1,,,,,,,,,,,,,,,,,,,,,,,,,,,,,,,,,,,,,,,
,,,,,,,,2023-08-16_08h55.29.186,HF_wild_card,2022.2.4,Win32,60.16485169,62c5d1d54710819b63aceb4e,64d2fd46c836a06233681665,64dc80deedc9348eafb5d49b,,,,,,,sngl,resources/DB.BMP,resources/Empty.png,Door4,-0.387962935,0.04351849,1,0,0,0.2492,optionLeft,60,12390,6,27,0,27,0,1,,,,,,,,,,,,,,,,,,,,,,,,,,,,,,,,,,,,,,,
,,,,,,,,2023-08-16_08h55.29.186,HF_wild_card,2022.2.4,Win32,60.16485169,62c5d1d54710819b63aceb4e,64d2fd46c836a06233681665,64dc80deedc9348eafb5d49b,,,,,,,decisionTrl,resources/DR.BMP,resources/DBN.BMP,Door1,-0.388888889,0.04351849,1,0,0,0.3407,optionLeft,30,12420,6,28,0,28,0,1,,,,,,,,,,,,,,,,,,,,,,,,,,,,,,,,,,,,,,,
,,,,,,,,2023-08-16_08h55.29.186,HF_wild_card,2022.2.4,Win32,60.16485169,62c5d1d54710819b63aceb4e,64d2fd46c836a06233681665,64dc80deedc9348eafb5d49b,,,,,,,decisionTrl,resources/DG.BMP,resources/DB.BMP,Door3,-0.387037023,0.04351849,1,0,0,0.2186,optionLeft,70,12490,6,29,0,29,0,1,,,,,,,,,,,,,,,,,,,,,,,,,,,,,,,,,,,,,,,
,,,,,,,,2023-08-16_08h55.29.186,HF_wild_card,2022.2.4,Win32,60.16485169,62c5d1d54710819b63aceb4e,64d2fd46c836a06233681665,64dc80deedc9348eafb5d49b,,,,,,,ctch,resources/DBN.BMP,resources/DG.BMP,Door3,0.241666667,-0.012962977,1,0,0,0.2827,optionRight,70,12560,6,30,0,30,0,1,,,,,,,,,,,,,,,,,,,,,,,,,,,,,,,,,,,,,,,
,,,,,,,,2023-08-16_08h55.29.186,HF_wild_card,2022.2.4,Win32,60.16485169,62c5d1d54710819b63aceb4e,64d2fd46c836a06233681665,64dc80deedc9348eafb5d49b,,,,,,,sngl,resources/Empty.png,resources/DB.BMP,Door4,-0.384259245,0.040740712,1,0,0,0.2662,optionRight,80,12640,6,31,0,31,0,1,,,,,,,,,,,,,,,,,,,,,,,,,,,,,,,,,,,,,,,
,,,,,,,,2023-08-16_08h55.29.186,HF_wild_card,2022.2.4,Win32,60.16485169,62c5d1d54710819b63aceb4e,64d2fd46c836a06233681665,64dc80deedc9348eafb5d49b,,,,,,,ctch,resources/DR.BMP,resources/DB.BMP,Door1,-0.389814801,0.04351849,1,0,0,0.259,optionLeft,30,12670,6,32,0,32,0,1,,,,,,,,,,,,,,,,,,,,,,,,,,,,,,,,,,,,,,,
,,,,,,,,2023-08-16_08h55.29.186,HF_wild_card,2022.2.4,Win32,60.16485169,62c5d1d54710819b63aceb4e,64d2fd46c836a06233681665,64dc80deedc9348eafb5d49b,,,,,,,decisionTrl,resources/DG.BMP,resources/DB.BMP,Door3,-0.387962935,0.04351849,1,0,0,0.2412,optionLeft,70,12740,6,33,0,33,0,1,,,,,,,,,,,,,,,,,,,,,,,,,,,,,,,,,,,,,,,
,,,,,,,,2023-08-16_08h55.29.186,HF_wild_card,2022.2.4,Win32,60.16485169,62c5d1d54710819b63aceb4e,64d2fd46c836a06233681665,64dc80deedc9348eafb5d49b,,,,,,,decisionTrl,resources/DB.BMP,resources/DG.BMP,Door3,0.217592621,-0.020370399,1,0,0,0.312,optionRight,70,12810,6,34,0,34,0,1,,,,,,,,,,,,,,,,,,,,,,,,,,,,,,,,,,,,,,,
,,,,,,,,2023-08-16_08h55.29.186,HF_wild_card,2022.2.4,Win32,60.16485169,62c5d1d54710819b63aceb4e,64d2fd46c836a06233681665,64dc80deedc9348eafb5d49b,,,,,,,decisionTrl,resources/DBN.BMP,resources/DR.BMP,Door2,-0.387037023,0.04351849,1,0,0,0.291,optionLeft,20,12830,6,35,0,35,0,1,,,,,,,,,,,,,,,,,,,,,,,,,,,,,,,,,,,,,,,
,,,,,,,,2023-08-16_08h55.29.186,HF_wild_card,2022.2.4,Win32,60.16485169,62c5d1d54710819b63aceb4e,64d2fd46c836a06233681665,64dc80deedc9348eafb5d49b,,,,,,,decisionTrl,resources/DG.BMP,resources/DY.BMP,Door3,-0.391666667,0.04351849,1,0,0,0.296,optionLeft,70,12900,6,36,0,36,0,1,,,,,,,,,,,,,,,,,,,,,,,,,,,,,,,,,,,,,,,
,,,,,,,,2023-08-16_08h55.29.186,HF_wild_card,2022.2.4,Win32,60.16485169,62c5d1d54710819b63aceb4e,64d2fd46c836a06233681665,64dc80deedc9348eafb5d49b,,,,,,,decisionTrl,resources/DBN.BMP,resources/DR.BMP,Door1,0.236111111,-0.018518533,1,0,0,0.3607,optionRight,30,12930,6,37,0,37,0,1,,,,,,,,,,,,,,,,,,,,,,,,,,,,,,,,,,,,,,,
,,,,,,,,2023-08-16_08h55.29.186,HF_wild_card,2022.2.4,Win32,60.16485169,62c5d1d54710819b63aceb4e,64d2fd46c836a06233681665,64dc80deedc9348eafb5d49b,,,,,,,sngl,resources/Empty.png,resources/DY.BMP,WildCard_Ex,-0.399074046,0.04351849,1,0,0,0.3048,optionRight,95,13025,6,38,0,38,0,1,,,,,,,,,,,,,,,,,,,,,,,,,,,,,,,,,,,,,,,
,,,,,,,,2023-08-16_08h55.29.186,HF_wild_card,2022.2.4,Win32,60.16485169,62c5d1d54710819b63aceb4e,64d2fd46c836a06233681665,64dc80deedc9348eafb5d49b,,,,,,,sngl,resources/Empty.png,resources/DG.BMP,Door3,-0.401851824,0.04351849,1,0,0,0.3619,optionRight,70,13095,6,39,0,39,0,1,,,,,,,,,,,,,,,,,,,,,,,,,,,,,,,,,,,,,,,
,,,,,,,,2023-08-16_08h55.29.186,HF_wild_card,2022.2.4,Win32,60.16485169,62c5d1d54710819b63aceb4e,64d2fd46c836a06233681665,64dc80deedc9348eafb5d49b,,,,,,,decisionTrl,resources/DB.BMP,resources/DG.BMP,Door4,-0.40370369,0.04351849,1,0,0,0.281,optionLeft,80,13175,6,40,0,40,0,1,,,,,,,,,,,,,,,,,,,,,,,,,,,,,,,,,,,,,,,
,,,,,,,,2023-08-16_08h55.29.186,HF_wild_card,2022.2.4,Win32,60.16485169,62c5d1d54710819b63aceb4e,64d2fd46c836a06233681665,64dc80deedc9348eafb5d49b,,,,,,,decisionTrl,resources/DG.BMP,resources/DB.BMP,Door4,0.237963019,-0.018518533,1,0,0,0.2893,optionRight,80,13255,6,41,0,41,0,1,,,,,,,,,,,,,,,,,,,,,,,,,,,,,,,,,,,,,,,
,,,,,,,,2023-08-16_08h55.29.186,HF_wild_card,2022.2.4,Win32,60.16485169,62c5d1d54710819b63aceb4e,64d2fd46c836a06233681665,64dc80deedc9348eafb5d49b,,,,,,,sngl,resources/DR.BMP,resources/Empty.png,Door1,-0.404629601,0.045370356,1,0,0,0.3155,optionLeft,30,13285,6,42,0,42,0,1,,,,,,,,,,,,,,,,,,,,,,,,,,,,,,,,,,,,,,,
,,,,,,,,2023-08-16_08h55.29.186,HF_wild_card,2022.2.4,Win32,60.16485169,62c5d1d54710819b63aceb4e,64d2fd46c836a06233681665,64dc80deedc9348eafb5d49b,,,,,,,decisionTrl,resources/DR.BMP,resources/DBN.BMP,Door1,-0.40370369,0.04351849,1,0,0,0.2495,optionLeft,30,13315,6,43,0,43,0,1,,,,,,,,,,,,,,,,,,,,,,,,,,,,,,,,,,,,,,,
,,,,,,,,2023-08-16_08h55.29.186,HF_wild_card,2022.2.4,Win32,60.16485169,62c5d1d54710819b63aceb4e,64d2fd46c836a06233681665,64dc80deedc9348eafb5d49b,,,,,,,,,,,,,,,,,,,,,,,,,,5,0,5,0,1,,,,,,,,,,,,,,,,,,,,,,,,,,,,,,,,,,
,,,,,,,,2023-08-16_08h55.29.186,HF_wild_card,2022.2.4,Win32,60.16485169,62c5d1d54710819b63aceb4e,64d2fd46c836a06233681665,64dc80deedc9348eafb5d49b,,,,,,,decisionTrl,resources/DR.BMP,resources/DBN.BMP,Door1,-0.399074046,0.046296268,1,0,0,0.7986,optionLeft,30,13345,7,0,0,0,0,1,,,,,,,,,,,,,,,,,,,,,,,,,,,,,,,,,,,,,,,
,,,,,,,,2023-08-16_08h55.29.186,HF_wild_card,2022.2.4,Win32,60.16485169,62c5d1d54710819b63aceb4e,64d2fd46c836a06233681665,64dc80deedc9348eafb5d49b,,,,,,,decisionTrl,resources/DB.BMP,resources/DG.BMP,Door3,0.229629686,-0.012962977,1,0,0,0.3389,optionRight,70,13415,7,1,0,1,0,1,,,,,,,,,,,,,,,,,,,,,,,,,,,,,,,,,,,,,,,
,,,,,,,,2023-08-16_08h55.29.186,HF_wild_card,2022.2.4,Win32,60.16485169,62c5d1d54710819b63aceb4e,64d2fd46c836a06233681665,64dc80deedc9348eafb5d49b,,,,,,,decisionTrl,resources/DB.BMP,resources/DG.BMP,Door3,0.233333333,0,1,0,0,0.3363,optionRight,70,13485,7,2,0,2,0,1,,,,,,,,,,,,,,,,,,,,,,,,,,,,,,,,,,,,,,,
,,,,,,,,2023-08-16_08h55.29.186,HF_wild_card,2022.2.4,Win32,60.16485169,62c5d1d54710819b63aceb4e,64d2fd46c836a06233681665,64dc80deedc9348eafb5d49b,,,,,,,decisionTrl,resources/DBN.BMP,resources/DR.BMP,Door2,-0.408333333,0.05370369,1,0,0,0.2591,optionLeft,20,13505,7,3,0,3,0,1,,,,,,,,,,,,,,,,,,,,,,,,,,,,,,,,,,,,,,,
,,,,,,,,2023-08-16_08h55.29.186,HF_wild_card,2022.2.4,Win32,60.16485169,62c5d1d54710819b63aceb4e,64d2fd46c836a06233681665,64dc80deedc9348eafb5d49b,,,,,,,decisionTrl,resources/DBN.BMP,resources/DR.BMP,Door1,0.237963019,0.012037023,1,0,0,0.3307,optionRight,30,13535,7,4,0,4,0,1,,,,,,,,,,,,,,,,,,,,,,,,,,,,,,,,,,,,,,,
,,,,,,,,2023-08-16_08h55.29.186,HF_wild_card,2022.2.4,Win32,60.16485169,62c5d1d54710819b63aceb4e,64d2fd46c836a06233681665,64dc80deedc9348eafb5d49b,,,,,,,decisionTrl,resources/DR.BMP,resources/DBN.BMP,Door1,-0.410185157,0.056481467,1,0,0,0.316,optionLeft,30,13565,7,5,0,5,0,1,,,,,,,,,,,,,,,,,,,,,,,,,,,,,,,,,,,,,,,
,,,,,,,,2023-08-16_08h55.29.186,HF_wild_card,2022.2.4,Win32,60.16485169,62c5d1d54710819b63aceb4e,64d2fd46c836a06233681665,64dc80deedc9348eafb5d49b,,,,,,,decisionTrl,resources/DG.BMP,resources/DB.BMP,Door4,0.233333333,0.014814801,1,0,0,0.276,optionRight,60,13625,7,6,0,6,0,1,,,,,,,,,,,,,,,,,,,,,,,,,,,,,,,,,,,,,,,
,,,,,,,,2023-08-16_08h55.29.186,HF_wild_card,2022.2.4,Win32,60.16485169,62c5d1d54710819b63aceb4e,64d2fd46c836a06233681665,64dc80deedc9348eafb5d49b,,,,,,,decisionTrl,resources/DBN.BMP,resources/DR.BMP,Door1,0.236111111,-0.008333333,1,0,0,0.3892,optionRight,30,13655,7,7,0,7,0,1,,,,,,,,,,,,,,,,,,,,,,,,,,,,,,,,,,,,,,,
,,,,,,,,2023-08-16_08h55.29.186,HF_wild_card,2022.2.4,Win32,60.16485169,62c5d1d54710819b63aceb4e,64d2fd46c836a06233681665,64dc80deedc9348eafb5d49b,,,,,,,decisionTrl,resources/DBN.BMP,resources/DR.BMP,Door2,-0.407407379,0.05370369,1,0,0,0.4099,optionLeft,20,13675,7,8,0,8,0,1,,,,,,,,,,,,,,,,,,,,,,,,,,,,,,,,,,,,,,,
,,,,,,,,2023-08-16_08h55.29.186,HF_wild_card,2022.2.4,Win32,60.16485169,62c5d1d54710819b63aceb4e,64d2fd46c836a06233681665,64dc80deedc9348eafb5d49b,,,,,,,ctch,resources/DB.BMP,resources/DR.BMP,Door1,0.220370399,-0.014814843,1,0,0,0.3619,optionRight,30,13705,7,9,0,9,0,1,,,,,,,,,,,,,,,,,,,,,,,,,,,,,,,,,,,,,,,
,,,,,,,,2023-08-16_08h55.29.186,HF_wild_card,2022.2.4,Win32,60.16485169,62c5d1d54710819b63aceb4e,64d2fd46c836a06233681665,64dc80deedc9348eafb5d49b,,,,,,,decisionTrl,resources/DR.BMP,resources/DBN.BMP,Door2,0.215740797,-0.00648151,1,0,0,0.32,optionRight,40,13745,7,10,0,10,0,1,,,,,,,,,,,,,,,,,,,,,,,,,,,,,,,,,,,,,,,
,,,,,,,,2023-08-16_08h55.29.186,HF_wild_card,2022.2.4,Win32,60.16485169,62c5d1d54710819b63aceb4e,64d2fd46c836a06233681665,64dc80deedc9348eafb5d49b,,,,,,,ctch,resources/DB.BMP,resources/DR.BMP,Door4,-0.408333333,0.054629601,1,0,0,0.3952,optionLeft,80,13825,7,11,0,11,0,1,,,,,,,,,,,,,,,,,,,,,,,,,,,,,,,,,,,,,,,
,,,,,,,,2023-08-16_08h55.29.186,HF_wild_card,2022.2.4,Win32,60.16485169,62c5d1d54710819b63aceb4e,64d2fd46c836a06233681665,64dc80deedc9348eafb5d49b,,,,,,,decisionTrl,resources/DG.BMP,resources/DB.BMP,Door4,0.211111111,-0.041666667,1,0,0,0.4449,optionRight,80,13905,7,12,0,12,0,1,,,,,,,,,,,,,,,,,,,,,,,,,,,,,,,,,,,,,,,
,,,,,,,,2023-08-16_08h55.29.186,HF_wild_card,2022.2.4,Win32,60.16485169,62c5d1d54710819b63aceb4e,64d2fd46c836a06233681665,64dc80deedc9348eafb5d49b,,,,,,,ctch,resources/DG.BMP,resources/DBN.BMP,Door3,-0.405555556,0.054629601,1,0,0,0.307,optionLeft,70,13975,7,13,0,13,0,1,,,,,,,,,,,,,,,,,,,,,,,,,,,,,,,,,,,,,,,
,,,,,,,,2023-08-16_08h55.29.186,HF_wild_card,2022.2.4,Win32,60.16485169,62c5d1d54710819b63aceb4e,64d2fd46c836a06233681665,64dc80deedc9348eafb5d49b,,,,,,,ctch,resources/DBN.BMP,resources/DG.BMP,Door3,0.210185242,-0.032407422,1,0,0,0.4017,optionRight,70,14045,7,14,0,14,0,1,,,,,,,,,,,,,,,,,,,,,,,,,,,,,,,,,,,,,,,
,,,,,,,,2023-08-16_08h55.29.186,HF_wild_card,2022.2.4,Win32,60.16485169,62c5d1d54710819b63aceb4e,64d2fd46c836a06233681665,64dc80deedc9348eafb5d49b,,,,,,,decisionTrl,resources/DB.BMP,resources/DG.BMP,Door4,-0.405555556,0.051851824,1,0,0,0.3283,optionLeft,60,14105,7,15,0,15,0,1,,,,,,,,,,,,,,,,,,,,,,,,,,,,,,,,,,,,,,,
,,,,,,,,2023-08-16_08h55.29.186,HF_wild_card,2022.2.4,Win32,60.16485169,62c5d1d54710819b63aceb4e,64d2fd46c836a06233681665,64dc80deedc9348eafb5d49b,,,,,,,decisionTrl,resources/DG.BMP,resources/DB.BMP,Door4,0.225,0.014814801,1,0,0,0.325,optionRight,80,14185,7,16,0,16,0,1,,,,,,,,,,,,,,,,,,,,,,,,,,,,,,,,,,,,,,,
,,,,,,,,2023-08-16_08h55.29.186,HF_wild_card,2022.2.4,Win32,60.16485169,62c5d1d54710819b63aceb4e,64d2fd46c836a06233681665,64dc80deedc9348eafb5d49b,,,,,,,decisionTrl,resources/DG.BMP,resources/DB.BMP,Door3,-0.414814801,0.056481467,1,0,0,0.3701,optionLeft,70,14255,7,17,0,17,0,1,,,,,,,,,,,,,,,,,,,,,,,,,,,,,,,,,,,,,,,
,,,,,,,,2023-08-16_08h55.29.186,HF_wild_card,2022.2.4,Win32,60.16485169,62c5d1d54710819b63aceb4e,64d2fd46c836a06233681665,64dc80deedc9348eafb5d49b,,,,,,,ctch,resources/DR.BMP,resources/DB.BMP,Door4,0.225925954,-0.012037065,1,0,0,0.3248,optionRight,60,14315,7,18,0,18,0,1,,,,,,,,,,,,,,,,,,,,,,,,,,,,,,,,,,,,,,,
,,,,,,,,2023-08-16_08h55.29.186,HF_wild_card,2022.2.4,Win32,60.16485169,62c5d1d54710819b63aceb4e,64d2fd46c836a06233681665,64dc80deedc9348eafb5d49b,,,,,,,decisionTrl,resources/DBN.BMP,resources/DR.BMP,Door2,-0.407407379,0.052777778,1,0,0,0.3788,optionLeft,20,14335,7,19,0,19,0,1,,,,,,,,,,,,,,,,,,,,,,,,,,,,,,,,,,,,,,,
,,,,,,,,2023-08-16_08h55.29.186,HF_wild_card,2022.2.4,Win32,60.16485169,62c5d1d54710819b63aceb4e,64d2fd46c836a06233681665,64dc80deedc9348eafb5d49b,,,,,,,ctch,resources/DG.BMP,resources/DBN.BMP,Door2,0.212037065,0.010185157,1,0,0,0.3431,optionRight,20,14355,7,20,0,20,0,1,,,,,,,,,,,,,,,,,,,,,,,,,,,,,,,,,,,,,,,
,,,,,,,,2023-08-16_08h55.29.186,HF_wild_card,2022.2.4,Win32,60.16485169,62c5d1d54710819b63aceb4e,64d2fd46c836a06233681665,64dc80deedc9348eafb5d49b,,,,,,,decisionTrl,resources/DB.BMP,resources/DG.BMP,Door3,0.230555556,-0.003703732,1,0,0,0.3794,optionRight,70,14425,7,21,0,21,0,1,,,,,,,,,,,,,,,,,,,,,,,,,,,,,,,,,,,,,,,
,,,,,,,,2023-08-16_08h55.29.186,HF_wild_card,2022.2.4,Win32,60.16485169,62c5d1d54710819b63aceb4e,64d2fd46c836a06233681665,64dc80deedc9348eafb5d49b,,,,,,,decisionTrl,resources/DB.BMP,resources/DG.BMP,Door4,-0.408333333,0.051851824,1,0,0,0.2881,optionLeft,80,14505,7,22,0,22,0,1,,,,,,,,,,,,,,,,,,,,,,,,,,,,,,,,,,,,,,,
,,,,,,,,2023-08-16_08h55.29.186,HF_wild_card,2022.2.4,Win32,60.16485169,62c5d1d54710819b63aceb4e,64d2fd46c836a06233681665,64dc80deedc9348eafb5d49b,,,,,,,ctch,resources/DR.BMP,resources/DB.BMP,Door1,-0.408333333,0.05370369,1,0,0,0.3315,optionLeft,30,14535,7,23,0,23,0,1,,,,,,,,,,,,,,,,,,,,,,,,,,,,,,,,,,,,,,,
,,,,,,,,2023-08-16_08h55.29.186,HF_wild_card,2022.2.4,Win32,60.16485169,62c5d1d54710819b63aceb4e,64d2fd46c836a06233681665,64dc80deedc9348eafb5d49b,,,,,,,ctch,resources/DBN.BMP,resources/DG.BMP,Door3,0.250925954,0.037962935,1,0,0,0.6462,optionRight,70,14605,7,24,0,24,0,1,,,,,,,,,,,,,,,,,,,,,,,,,,,,,,,,,,,,,,,
,,,,,,,,2023-08-16_08h55.29.186,HF_wild_card,2022.2.4,Win32,60.16485169,62c5d1d54710819b63aceb4e,64d2fd46c836a06233681665,64dc80deedc9348eafb5d49b,,,,,,,decisionTrl,resources/DR.BMP,resources/DBN.BMP,Door1,-0.386111111,0.008333333,1,0,0,0.5724,optionLeft,30,14635,7,25,0,25,0,1,,,,,,,,,,,,,,,,,,,,,,,,,,,,,,,,,,,,,,,
,,,,,,,,2023-08-16_08h55.29.186,HF_wild_card,2022.2.4,Win32,60.16485169,62c5d1d54710819b63aceb4e,64d2fd46c836a06233681665,64dc80deedc9348eafb5d49b,,,,,,,ctch,resources/DBN.BMP,resources/DG.BMP,Door3,0.271296353,-0.00648151,1,0,0,0.306,optionRight,70,14705,7,26,0,26,0,1,,,,,,,,,,,,,,,,,,,,,,,,,,,,,,,,,,,,,,,
,,,,,,,,2023-08-16_08h55.29.186,HF_wild_card,2022.2.4,Win32,60.16485169,62c5d1d54710819b63aceb4e,64d2fd46c836a06233681665,64dc80deedc9348eafb5d49b,,,,,,,decisionTrl,resources/DB.BMP,resources/DG.BMP,Door4,-0.398148134,0.007407379,1,0,0,0.3626,optionLeft,60,14765,7,27,0,27,0,1,,,,,,,,,,,,,,,,,,,,,,,,,,,,,,,,,,,,,,,
,,,,,,,,2023-08-16_08h55.29.186,HF_wild_card,2022.2.4,Win32,60.16485169,62c5d1d54710819b63aceb4e,64d2fd46c836a06233681665,64dc80deedc9348eafb5d49b,,,,,,,ctch,resources/DB.BMP,resources/DR.BMP,Door4,-0.392592578,0.005555556,1,0,0,0.3657,optionLeft,60,14825,7,28,0,28,0,1,,,,,,,,,,,,,,,,,,,,,,,,,,,,,,,,,,,,,,,
,,,,,,,,2023-08-16_08h55.29.186,HF_wild_card,2022.2.4,Win32,60.16485169,62c5d1d54710819b63aceb4e,64d2fd46c836a06233681665,64dc80deedc9348eafb5d49b,,,,,,,ctch,resources/DR.BMP,resources/DB.BMP,Door4,0.229629686,-0.012962977,1,0,0,0.2893,optionRight,80,14905,7,29,0,29,0,1,,,,,,,,,,,,,,,,,,,,,,,,,,,,,,,,,,,,,,,
,,,,,,,,2023-08-16_08h55.29.186,HF_wild_card,2022.2.4,Win32,60.16485169,62c5d1d54710819b63aceb4e,64d2fd46c836a06233681665,64dc80deedc9348eafb5d49b,,,,,,,ctch,resources/DG.BMP,resources/DBN.BMP,Door2,0.215740797,-0.00648151,1,0,0,0.353,optionRight,40,14945,7,30,0,30,0,1,,,,,,,,,,,,,,,,,,,,,,,,,,,,,,,,,,,,,,,
,,,,,,,,2023-08-16_08h55.29.186,HF_wild_card,2022.2.4,Win32,60.16485169,62c5d1d54710819b63aceb4e,64d2fd46c836a06233681665,64dc80deedc9348eafb5d49b,,,,,,,decisionTrl,resources/DBN.BMP,resources/DR.BMP,Door2,-0.419444444,0.004629601,1,0,0,0.3292,optionLeft,20,14965,7,31,0,31,0,1,,,,,,,,,,,,,,,,,,,,,,,,,,,,,,,,,,,,,,,
,,,,,,,,2023-08-16_08h55.29.186,HF_wild_card,2022.2.4,Win32,60.16485169,62c5d1d54710819b63aceb4e,64d2fd46c836a06233681665,64dc80deedc9348eafb5d49b,,,,,,,decisionTrl,resources/DG.BMP,resources/DB.BMP,Door3,-0.414814801,0.001851824,1,0,0,0.3624,optionLeft,70,15035,7,32,0,32,0,1,,,,,,,,,,,,,,,,,,,,,,,,,,,,,,,,,,,,,,,
,,,,,,,,2023-08-16_08h55.29.186,HF_wild_card,2022.2.4,Win32,60.16485169,62c5d1d54710819b63aceb4e,64d2fd46c836a06233681665,64dc80deedc9348eafb5d49b,,,,,,,decisionTrl,resources/DG.BMP,resources/DB.BMP,Door4,0.202777778,-0.015740755,1,0,0,0.4039,optionRight,80,15115,7,33,0,33,0,1,,,,,,,,,,,,,,,,,,,,,,,,,,,,,,,,,,,,,,,
,,,,,,,,2023-08-16_08h55.29.186,HF_wild_card,2022.2.4,Win32,60.16485169,62c5d1d54710819b63aceb4e,64d2fd46c836a06233681665,64dc80deedc9348eafb5d49b,,,,,,,decisionTrl,resources/DR.BMP,resources/DBN.BMP,Door1,-0.416666667,0.006481467,1,0,0,0.394,optionLeft,30,15145,7,34,0,34,0,1,,,,,,,,,,,,,,,,,,,,,,,,,,,,,,,,,,,,,,,
,,,,,,,,2023-08-16_08h55.29.186,HF_wild_card,2022.2.4,Win32,60.16485169,62c5d1d54710819b63aceb4e,64d2fd46c836a06233681665,64dc80deedc9348eafb5d49b,,,,,,,decisionTrl,resources/DR.BMP,resources/DBN.BMP,Door2,0.211111111,-0.012962977,1,0,0,0.3766,optionRight,20,15165,7,35,0,35,0,1,,,,,,,,,,,,,,,,,,,,,,,,,,,,,,,,,,,,,,,
,,,,,,,,2023-08-16_08h55.29.186,HF_wild_card,2022.2.4,Win32,60.16485169,62c5d1d54710819b63aceb4e,64d2fd46c836a06233681665,64dc80deedc9348eafb5d49b,,,,,,,,,,,,,,,,,,,,,,,,,,6,0,6,0,1,,,,,,,,,,,,,,,,,,,,,,,,,,,,,,,,,,
,,,,,,,,2023-08-16_08h55.29.186,HF_wild_card,2022.2.4,Win32,60.16485169,62c5d1d54710819b63aceb4e,64d2fd46c836a06233681665,64dc80deedc9348eafb5d49b,,,,,,,,,,,,,,,,,,,,,,,,,,,,,,,3,,,,,,,,,,,,,,,,,,,,,,,,,,,,,,,,,
,,,,,,,,2023-08-16_08h55.29.186,HF_wild_card,2022.2.4,Win32,60.16485169,62c5d1d54710819b63aceb4e,64d2fd46c836a06233681665,64dc80deedc9348eafb5d49b,,,,,,,,,,,,,,,,,,,,,,,,,,,,,,,,,,,,,,,,,,,,,,,,,,,,,,,,,,,,,,,,
,,,,,,,,2023-08-16_08h55.29.186,HF_wild_card,2022.2.4,Win32,60.16485169,62c5d1d54710819b63aceb4e,64d2fd46c836a06233681665,64dc80deedc9348eafb5d49b,,,,,,,,,,,,,,,,,,,,,,,,,,,,,,,,40,Door1,resources/DR.BMP,0,0,0,0,1,,,,,,,,,,,,,,,,,,,,,,,,,
,,,,,,,,2023-08-16_08h55.29.186,HF_wild_card,2022.2.4,Win32,60.16485169,62c5d1d54710819b63aceb4e,64d2fd46c836a06233681665,64dc80deedc9348eafb5d49b,,,,,,,,,,,,,,,,,,,,,,,,,,,,,,,,60,Door2,resources/DBN.BMP,1,0,1,0,1,,,,,,,,,,,,,,,,,,,,,,,,,
,,,,,,,,2023-08-16_08h55.29.186,HF_wild_card,2022.2.4,Win32,60.16485169,62c5d1d54710819b63aceb4e,64d2fd46c836a06233681665,64dc80deedc9348eafb5d49b,,,,,,,,,,,,,,,,,,,,,,,,,,,,,,,,70,Door3,resources/DG.BMP,2,0,2,0,1,,,,,,,,,,,,,,,,,,,,,,,,,
,,,,,,,,2023-08-16_08h55.29.186,HF_wild_card,2022.2.4,Win32,60.16485169,62c5d1d54710819b63aceb4e,64d2fd46c836a06233681665,64dc80deedc9348eafb5d49b,,,,,,,,,,,,,,,,,,,,,,,,,,,,,,,,70,Door4,resources/DB.BMP,3,0,3,0,1,,,,,,,,,,,,,,,,,,,,,,,,,
,,,,,,,,2023-08-16_08h55.29.186,HF_wild_card,2022.2.4,Win32,60.16485169,62c5d1d54710819b63aceb4e,64d2fd46c836a06233681665,64dc80deedc9348eafb5d49b,,,,,,,,,,,,,,,,,,,,,,,,,,,,,,,,25,WC_nonExtreme,resources/DP.BMP,4,0,4,0,1,,,,,,,,,,,,,,,,,,,,,,,,,
,,,,,,,,2023-08-16_08h55.29.186,HF_wild_card,2022.2.4,Win32,60.16485169,62c5d1d54710819b63aceb4e,64d2fd46c836a06233681665,64dc80deedc9348eafb5d49b,,,,,,,,,,,,,,,,,,,,,,,,,,,,,,,,95,WC_extreme,resources/DY.BMP,5,0,5,0,1,,,,,,,,,,,,,,,,,,,,,,,,,
,,,,,,,,2023-08-16_08h55.29.186,HF_wild_card,2022.2.4,Win32,60.16485169,62c5d1d54710819b63aceb4e,64d2fd46c836a06233681665,64dc80deedc9348eafb5d49b,,,,,,,,,,,,,,,,,,,,,,,,,,,,,,,,,,,,,,,,,,,,,,,,,,,,,,,,,,,,,,,,
,,,,,,,,2023-08-16_08h55.29.186,HF_wild_card,2022.2.4,Win32,60.16485169,62c5d1d54710819b63aceb4e,64d2fd46c836a06233681665,64dc80deedc9348eafb5d49b,,,,,,,,,,,,,,,,,,,,,,,,,,,,,,,,,,,,,,,,0,0,0,0,1,,,,,,,,,,,,,,,,,,,,
