Condition,Low fixed image (Door1),Low risky image (Door2),High fixed image (Door3),High risky image (Door4),Extreme Wild Card,NonExtreme Wild Card,,date,expName,psychopyVersion,OS,frameRate,PROLIFIC_PID,STUDY_ID,SESSION_ID,mouse_2.x,mouse_2.y,mouse_2.leftButton,mouse_2.midButton,mouse_2.rightButton,mouse_2.clicked_name,Trial Type,Left Option Image,Right Option Image,Chosen Door,mouse.x,mouse.y,mouse.leftButton,mouse.midButton,mouse.rightButton,mouse.time,mouse.clicked_name,Feedback,Cumulative Reward,Block,trial.thisRepN,trial.thisTrialN,trial.thisN,trial.thisIndex,trial.ran,blocks.thisRepN,blocks.thisTrialN,blocks.thisN,blocks.thisIndex,blocks.ran,Money conversion,First Outcome Reported,Shown Door (First Outcome),Displayed Image (First Outcome),outcomes.thisRepN,outcomes.thisTrialN,outcomes.thisN,outcomes.thisIndex,outcomes.ran,judgments.thisRepN,judgments.thisTrialN,judgments.thisN,judgments.thisIndex,judgments.ran,freqMouse.x,freqMouse.y,freqMouse.leftButton,freqMouse.midButton,freqMouse.rightButton,freqMouse.clicked_name,trials.thisRepN,trials.thisTrialN,trials.thisN,trials.thisIndex,trials.ran,FQJ for first outcome,FQJ for second outcome,Shown Door,Displayed Image,judgBlock.thisRepN,judgBlock.thisTrialN,judgBlock.thisN,judgBlock.thisIndex,judgBlock.ran
1,resources/DY.BMP,resources/DB.BMP,resources/DR.BMP,resources/DBN.BMP,resources/DG.BMP,resources/DP.BMP,642ee08bca2effffc9e754e2,2023-08-16_08h49.36.689,HF_wild_card,2022.2.4,Win32,60.01680471,642ee08bca2effffc9e754e2,64d2fd46c836a06233681665,64dc7f5b0fbb9d085cd3cdd3,,,,,,,,,,,,,,,,,,,,,,,,,,,,,,,,,,,,,,,,,,,,,,,,,,,,,,,,,,,,,,,,
,,,,,,,642ee08bca2effffc9e754e2,2023-08-16_08h49.36.689,HF_wild_card,2022.2.4,Win32,60.01680471,642ee08bca2effffc9e754e2,64d2fd46c836a06233681665,64dc7f5b0fbb9d085cd3cdd3,0.001851852,-0.409259259,1,0,0,agree,,,,,,,,,,,,,,,,,,,,,,,,,,,,,,,,,,,,,,,,,,,,,,,,,,,,,,,,,,
,,,,,,,642ee08bca2effffc9e754e2,2023-08-16_08h49.36.689,HF_wild_card,2022.2.4,Win32,60.01680471,642ee08bca2effffc9e754e2,64d2fd46c836a06233681665,64dc7f5b0fbb9d085cd3cdd3,,,,,,,,,,,,,,,,,,,,,,,,,,,,,,,,,,,,,,,,,,,,,,,,,,,,,,,,,,,,,,,,
,,,,,,,642ee08bca2effffc9e754e2,2023-08-16_08h49.36.689,HF_wild_card,2022.2.4,Win32,60.01680471,642ee08bca2effffc9e754e2,64d2fd46c836a06233681665,64dc7f5b0fbb9d085cd3cdd3,,,,,,,decisionTrl,resources/DY.BMP,resources/DB.BMP,Door1,-0.24537037,-0.2,1,0,0,11.5603,optionLeft,30,30,1,0,0,0,0,1,,,,,,,,,,,,,,,,,,,,,,,,,,,,,,,,,,,,,,,
,,,,,,,642ee08bca2effffc9e754e2,2023-08-16_08h49.36.689,HF_wild_card,2022.2.4,Win32,60.01680471,642ee08bca2effffc9e754e2,64d2fd46c836a06233681665,64dc7f5b0fbb9d085cd3cdd3,,,,,,,ctch,resources/DB.BMP,resources/DR.BMP,Door2,-0.335185185,0,1,0,0,5.9712,optionLeft,40,70,1,1,0,1,0,1,,,,,,,,,,,,,,,,,,,,,,,,,,,,,,,,,,,,,,,
,,,,,,,642ee08bca2effffc9e754e2,2023-08-16_08h49.36.689,HF_wild_card,2022.2.4,Win32,60.01680471,642ee08bca2effffc9e754e2,64d2fd46c836a06233681665,64dc7f5b0fbb9d085cd3cdd3,,,,,,,decisionTrl,resources/DBN.BMP,resources/DR.BMP,Door4,-0.357407407,-0.05,1,0,0,4.617,optionLeft,60,130,1,2,0,2,0,1,,,,,,,,,,,,,,,,,,,,,,,,,,,,,,,,,,,,,,,
,,,,,,,642ee08bca2effffc9e754e2,2023-08-16_08h49.36.689,HF_wild_card,2022.2.4,Win32,60.01680471,642ee08bca2effffc9e754e2,64d2fd46c836a06233681665,64dc7f5b0fbb9d085cd3cdd3,,,,,,,decisionTrl,resources/DB.BMP,resources/DY.BMP,Door1,0.380555556,-0.075,1,0,0,7.9903,optionRight,30,160,1,3,0,3,0,1,,,,,,,,,,,,,,,,,,,,,,,,,,,,,,,,,,,,,,,
,,,,,,,642ee08bca2effffc9e754e2,2023-08-16_08h49.36.689,HF_wild_card,2022.2.4,Win32,60.01680471,642ee08bca2effffc9e754e2,64d2fd46c836a06233681665,64dc7f5b0fbb9d085cd3cdd3,,,,,,,decisionTrl,resources/DY.BMP,resources/DB.BMP,Door2,0.316666667,0.041666667,1,0,0,4.5289,optionRight,40,200,1,4,0,4,0,1,,,,,,,,,,,,,,,,,,,,,,,,,,,,,,,,,,,,,,,
,,,,,,,642ee08bca2effffc9e754e2,2023-08-16_08h49.36.689,HF_wild_card,2022.2.4,Win32,60.01680471,642ee08bca2effffc9e754e2,64d2fd46c836a06233681665,64dc7f5b0fbb9d085cd3cdd3,,,,,,,decisionTrl,resources/DBN.BMP,resources/DR.BMP,Door4,-0.369444444,0.042592593,1,0,0,5.5457,optionLeft,80,280,1,5,0,5,0,1,,,,,,,,,,,,,,,,,,,,,,,,,,,,,,,,,,,,,,,
,,,,,,,642ee08bca2effffc9e754e2,2023-08-16_08h49.36.689,HF_wild_card,2022.2.4,Win32,60.01680471,642ee08bca2effffc9e754e2,64d2fd46c836a06233681665,64dc7f5b0fbb9d085cd3cdd3,,,,,,,ctch,resources/DBN.BMP,resources/DY.BMP,Door4,-0.35,0.044444444,1,0,0,4.2666,optionLeft,60,340,1,6,0,6,0,1,,,,,,,,,,,,,,,,,,,,,,,,,,,,,,,,,,,,,,,
,,,,,,,642ee08bca2effffc9e754e2,2023-08-16_08h49.36.689,HF_wild_card,2022.2.4,Win32,60.01680471,642ee08bca2effffc9e754e2,64d2fd46c836a06233681665,64dc7f5b0fbb9d085cd3cdd3,,,,,,,decisionTrl,resources/DB.BMP,resources/DP.BMP,WildCard_NonEx,0.425,-0.090740741,1,0,0,6.0905,optionRight,55,395,1,7,0,7,0,1,,,,,,,,,,,,,,,,,,,,,,,,,,,,,,,,,,,,,,,
,,,,,,,642ee08bca2effffc9e754e2,2023-08-16_08h49.36.689,HF_wild_card,2022.2.4,Win32,60.01680471,642ee08bca2effffc9e754e2,64d2fd46c836a06233681665,64dc7f5b0fbb9d085cd3cdd3,,,,,,,decisionTrl,resources/DBN.BMP,resources/DR.BMP,Door4,-0.309259259,0.07037037,1,0,0,4.3287,optionLeft,80,475,1,8,0,8,0,1,,,,,,,,,,,,,,,,,,,,,,,,,,,,,,,,,,,,,,,
,,,,,,,642ee08bca2effffc9e754e2,2023-08-16_08h49.36.689,HF_wild_card,2022.2.4,Win32,60.01680471,642ee08bca2effffc9e754e2,64d2fd46c836a06233681665,64dc7f5b0fbb9d085cd3cdd3,,,,,,,sngl,resources/Empty.png,resources/DP.BMP,WildCard_NonEx,0.312037037,0.010185185,1,0,0,2.7652,optionRight,45,520,1,9,0,9,0,1,,,,,,,,,,,,,,,,,,,,,,,,,,,,,,,,,,,,,,,
,,,,,,,642ee08bca2effffc9e754e2,2023-08-16_08h49.36.689,HF_wild_card,2022.2.4,Win32,60.01680471,642ee08bca2effffc9e754e2,64d2fd46c836a06233681665,64dc7f5b0fbb9d085cd3cdd3,,,,,,,ctch,resources/DR.BMP,resources/DB.BMP,Door2,0.34537037,-0.037037037,1,0,0,7.1559,optionRight,40,560,1,10,0,10,0,1,,,,,,,,,,,,,,,,,,,,,,,,,,,,,,,,,,,,,,,
,,,,,,,642ee08bca2effffc9e754e2,2023-08-16_08h49.36.689,HF_wild_card,2022.2.4,Win32,60.01680471,642ee08bca2effffc9e754e2,64d2fd46c836a06233681665,64dc7f5b0fbb9d085cd3cdd3,,,,,,,decisionTrl,resources/DP.BMP,resources/DY.BMP,WildCard_NonEx,-0.296296296,-0.034259259,1,0,0,10.5479,optionLeft,45,605,1,11,0,11,0,1,,,,,,,,,,,,,,,,,,,,,,,,,,,,,,,,,,,,,,,
,,,,,,,642ee08bca2effffc9e754e2,2023-08-16_08h49.36.689,HF_wild_card,2022.2.4,Win32,60.01680471,642ee08bca2effffc9e754e2,64d2fd46c836a06233681665,64dc7f5b0fbb9d085cd3cdd3,,,,,,,decisionTrl,resources/DY.BMP,resources/DP.BMP,Door1,-0.307407407,0.003703704,1,0,0,6.6563,optionLeft,30,635,1,12,0,12,0,1,,,,,,,,,,,,,,,,,,,,,,,,,,,,,,,,,,,,,,,
,,,,,,,642ee08bca2effffc9e754e2,2023-08-16_08h49.36.689,HF_wild_card,2022.2.4,Win32,60.01680471,642ee08bca2effffc9e754e2,64d2fd46c836a06233681665,64dc7f5b0fbb9d085cd3cdd3,,,,,,,ctch,resources/DB.BMP,resources/DR.BMP,Door3,0.348148148,-0.028703704,1,0,0,6.1462,optionRight,70,705,1,13,0,13,0,1,,,,,,,,,,,,,,,,,,,,,,,,,,,,,,,,,,,,,,,
,,,,,,,642ee08bca2effffc9e754e2,2023-08-16_08h49.36.689,HF_wild_card,2022.2.4,Win32,60.01680471,642ee08bca2effffc9e754e2,64d2fd46c836a06233681665,64dc7f5b0fbb9d085cd3cdd3,,,,,,,decisionTrl,resources/DR.BMP,resources/DP.BMP,Door3,-0.02037037,0.007407407,1,0,0,0.0975,optionLeft,70,775,1,14,0,14,0,1,,,,,,,,,,,,,,,,,,,,,,,,,,,,,,,,,,,,,,,
,,,,,,,642ee08bca2effffc9e754e2,2023-08-16_08h49.36.689,HF_wild_card,2022.2.4,Win32,60.01680471,642ee08bca2effffc9e754e2,64d2fd46c836a06233681665,64dc7f5b0fbb9d085cd3cdd3,,,,,,,ctch,resources/DR.BMP,resources/DB.BMP,Door3,-0.344444444,0.002777778,1,0,0,4.7244,optionLeft,70,845,1,15,0,15,0,1,,,,,,,,,,,,,,,,,,,,,,,,,,,,,,,,,,,,,,,
,,,,,,,642ee08bca2effffc9e754e2,2023-08-16_08h49.36.689,HF_wild_card,2022.2.4,Win32,60.01680471,642ee08bca2effffc9e754e2,64d2fd46c836a06233681665,64dc7f5b0fbb9d085cd3cdd3,,,,,,,decisionTrl,resources/DY.BMP,resources/DB.BMP,Door2,0.355555556,-0.04537037,1,0,0,5.6341,optionRight,20,865,1,16,0,16,0,1,,,,,,,,,,,,,,,,,,,,,,,,,,,,,,,,,,,,,,,
,,,,,,,642ee08bca2effffc9e754e2,2023-08-16_08h49.36.689,HF_wild_card,2022.2.4,Win32,60.01680471,642ee08bca2effffc9e754e2,64d2fd46c836a06233681665,64dc7f5b0fbb9d085cd3cdd3,,,,,,,ctch,resources/DY.BMP,resources/DBN.BMP,Door4,0.381481481,0.044444444,1,0,0,4.33,optionRight,80,945,1,17,0,17,0,1,,,,,,,,,,,,,,,,,,,,,,,,,,,,,,,,,,,,,,,
,,,,,,,642ee08bca2effffc9e754e2,2023-08-16_08h49.36.689,HF_wild_card,2022.2.4,Win32,60.01680471,642ee08bca2effffc9e754e2,64d2fd46c836a06233681665,64dc7f5b0fbb9d085cd3cdd3,,,,,,,sngl,resources/DP.BMP,resources/Empty.png,WildCard_NonEx,-0.014814815,0.007407407,1,0,0,0.0629,optionLeft,45,990,1,18,0,18,0,1,,,,,,,,,,,,,,,,,,,,,,,,,,,,,,,,,,,,,,,
,,,,,,,642ee08bca2effffc9e754e2,2023-08-16_08h49.36.689,HF_wild_card,2022.2.4,Win32,60.01680471,642ee08bca2effffc9e754e2,64d2fd46c836a06233681665,64dc7f5b0fbb9d085cd3cdd3,,,,,,,ctch,resources/DBN.BMP,resources/DY.BMP,Door4,-0.352777778,0.111111111,1,0,0,4.9644,optionLeft,80,1070,1,19,0,19,0,1,,,,,,,,,,,,,,,,,,,,,,,,,,,,,,,,,,,,,,,
,,,,,,,642ee08bca2effffc9e754e2,2023-08-16_08h49.36.689,HF_wild_card,2022.2.4,Win32,60.01680471,642ee08bca2effffc9e754e2,64d2fd46c836a06233681665,64dc7f5b0fbb9d085cd3cdd3,,,,,,,decisionTrl,resources/DY.BMP,resources/DB.BMP,Door1,-0.323148148,0,1,0,0,5.024,optionLeft,30,1100,1,20,0,20,0,1,,,,,,,,,,,,,,,,,,,,,,,,,,,,,,,,,,,,,,,
,,,,,,,642ee08bca2effffc9e754e2,2023-08-16_08h49.36.689,HF_wild_card,2022.2.4,Win32,60.01680471,642ee08bca2effffc9e754e2,64d2fd46c836a06233681665,64dc7f5b0fbb9d085cd3cdd3,,,,,,,sngl,resources/Empty.png,resources/DY.BMP,Door1,0.371296296,-0.02962963,1,0,0,2.0857,optionRight,30,1130,1,21,0,21,0,1,,,,,,,,,,,,,,,,,,,,,,,,,,,,,,,,,,,,,,,
,,,,,,,642ee08bca2effffc9e754e2,2023-08-16_08h49.36.689,HF_wild_card,2022.2.4,Win32,60.01680471,642ee08bca2effffc9e754e2,64d2fd46c836a06233681665,64dc7f5b0fbb9d085cd3cdd3,,,,,,,decisionTrl,resources/DB.BMP,resources/DY.BMP,Door1,0.416666667,0.058333333,1,0,0,5.944,optionRight,30,1160,1,22,0,22,0,1,,,,,,,,,,,,,,,,,,,,,,,,,,,,,,,,,,,,,,,
,,,,,,,642ee08bca2effffc9e754e2,2023-08-16_08h49.36.689,HF_wild_card,2022.2.4,Win32,60.01680471,642ee08bca2effffc9e754e2,64d2fd46c836a06233681665,64dc7f5b0fbb9d085cd3cdd3,,,,,,,sngl,resources/DY.BMP,resources/Empty.png,Door1,-0.264814815,-0.023148148,1,0,0,1.5535,optionLeft,30,1190,1,23,0,23,0,1,,,,,,,,,,,,,,,,,,,,,,,,,,,,,,,,,,,,,,,
,,,,,,,642ee08bca2effffc9e754e2,2023-08-16_08h49.36.689,HF_wild_card,2022.2.4,Win32,60.01680471,642ee08bca2effffc9e754e2,64d2fd46c836a06233681665,64dc7f5b0fbb9d085cd3cdd3,,,,,,,decisionTrl,resources/DR.BMP,resources/DBN.BMP,Door4,0.434259259,0.061111111,1,0,0,1.7306,optionRight,60,1250,1,24,0,24,0,1,,,,,,,,,,,,,,,,,,,,,,,,,,,,,,,,,,,,,,,
,,,,,,,642ee08bca2effffc9e754e2,2023-08-16_08h49.36.689,HF_wild_card,2022.2.4,Win32,60.01680471,642ee08bca2effffc9e754e2,64d2fd46c836a06233681665,64dc7f5b0fbb9d085cd3cdd3,,,,,,,sngl,resources/DB.BMP,resources/Empty.png,Door2,-0.175,-0.015740741,1,0,0,1.5904,optionLeft,40,1290,1,25,0,25,0,1,,,,,,,,,,,,,,,,,,,,,,,,,,,,,,,,,,,,,,,
,,,,,,,642ee08bca2effffc9e754e2,2023-08-16_08h49.36.689,HF_wild_card,2022.2.4,Win32,60.01680471,642ee08bca2effffc9e754e2,64d2fd46c836a06233681665,64dc7f5b0fbb9d085cd3cdd3,,,,,,,ctch,resources/DY.BMP,resources/DBN.BMP,Door1,0.008333333,-0.001851852,1,0,0,0.0425,optionLeft,30,1320,1,26,0,26,0,1,,,,,,,,,,,,,,,,,,,,,,,,,,,,,,,,,,,,,,,
,,,,,,,642ee08bca2effffc9e754e2,2023-08-16_08h49.36.689,HF_wild_card,2022.2.4,Win32,60.01680471,642ee08bca2effffc9e754e2,64d2fd46c836a06233681665,64dc7f5b0fbb9d085cd3cdd3,,,,,,,decisionTrl,resources/DBN.BMP,resources/DR.BMP,Door4,-0.384259259,-0.00462963,1,0,0,3.0652,optionLeft,80,1400,1,27,0,27,0,1,,,,,,,,,,,,,,,,,,,,,,,,,,,,,,,,,,,,,,,
,,,,,,,642ee08bca2effffc9e754e2,2023-08-16_08h49.36.689,HF_wild_card,2022.2.4,Win32,60.01680471,642ee08bca2effffc9e754e2,64d2fd46c836a06233681665,64dc7f5b0fbb9d085cd3cdd3,,,,,,,sngl,resources/Empty.png,resources/DR.BMP,Door3,0.337962963,0.00462963,1,0,0,1.3807,optionRight,70,1470,1,28,0,28,0,1,,,,,,,,,,,,,,,,,,,,,,,,,,,,,,,,,,,,,,,
,,,,,,,642ee08bca2effffc9e754e2,2023-08-16_08h49.36.689,HF_wild_card,2022.2.4,Win32,60.01680471,642ee08bca2effffc9e754e2,64d2fd46c836a06233681665,64dc7f5b0fbb9d085cd3cdd3,,,,,,,decisionTrl,resources/DP.BMP,resources/DR.BMP,Door3,0.341666667,0.021296296,1,0,0,3.3469,optionRight,70,1540,1,29,0,29,0,1,,,,,,,,,,,,,,,,,,,,,,,,,,,,,,,,,,,,,,,
,,,,,,,642ee08bca2effffc9e754e2,2023-08-16_08h49.36.689,HF_wild_card,2022.2.4,Win32,60.01680471,642ee08bca2effffc9e754e2,64d2fd46c836a06233681665,64dc7f5b0fbb9d085cd3cdd3,,,,,,,decisionTrl,resources/DR.BMP,resources/DBN.BMP,Door4,0.374074074,0.048148148,1,0,0,2.2302,optionRight,80,1620,1,30,0,30,0,1,,,,,,,,,,,,,,,,,,,,,,,,,,,,,,,,,,,,,,,
,,,,,,,642ee08bca2effffc9e754e2,2023-08-16_08h49.36.689,HF_wild_card,2022.2.4,Win32,60.01680471,642ee08bca2effffc9e754e2,64d2fd46c836a06233681665,64dc7f5b0fbb9d085cd3cdd3,,,,,,,sngl,resources/DR.BMP,resources/Empty.png,Door3,-0.327777778,0.005555556,1,0,0,1.6578,optionLeft,70,1690,1,31,0,31,0,1,,,,,,,,,,,,,,,,,,,,,,,,,,,,,,,,,,,,,,,
,,,,,,,642ee08bca2effffc9e754e2,2023-08-16_08h49.36.689,HF_wild_card,2022.2.4,Win32,60.01680471,642ee08bca2effffc9e754e2,64d2fd46c836a06233681665,64dc7f5b0fbb9d085cd3cdd3,,,,,,,decisionTrl,resources/DP.BMP,resources/DBN.BMP,Door4,0.261111111,0.041666667,1,0,0,3.0898,optionRight,80,1770,1,32,0,32,0,1,,,,,,,,,,,,,,,,,,,,,,,,,,,,,,,,,,,,,,,
,,,,,,,642ee08bca2effffc9e754e2,2023-08-16_08h49.36.689,HF_wild_card,2022.2.4,Win32,60.01680471,642ee08bca2effffc9e754e2,64d2fd46c836a06233681665,64dc7f5b0fbb9d085cd3cdd3,,,,,,,decisionTrl,resources/DBN.BMP,resources/DP.BMP,Door4,-0.371296296,0.042592593,1,0,0,5.7259,optionLeft,80,1850,1,33,0,33,0,1,,,,,,,,,,,,,,,,,,,,,,,,,,,,,,,,,,,,,,,
,,,,,,,642ee08bca2effffc9e754e2,2023-08-16_08h49.36.689,HF_wild_card,2022.2.4,Win32,60.01680471,642ee08bca2effffc9e754e2,64d2fd46c836a06233681665,64dc7f5b0fbb9d085cd3cdd3,,,,,,,sngl,resources/DP.BMP,resources/Empty.png,WildCard_NonEx,-0.278703704,-0.008333333,1,0,0,1.4055,optionLeft,55,1905,1,34,0,34,0,1,,,,,,,,,,,,,,,,,,,,,,,,,,,,,,,,,,,,,,,
,,,,,,,642ee08bca2effffc9e754e2,2023-08-16_08h49.36.689,HF_wild_card,2022.2.4,Win32,60.01680471,642ee08bca2effffc9e754e2,64d2fd46c836a06233681665,64dc7f5b0fbb9d085cd3cdd3,,,,,,,decisionTrl,resources/DB.BMP,resources/DY.BMP,Door1,-0.002777778,0.005555556,1,0,0,0.0167,optionRight,30,1935,1,35,0,35,0,1,,,,,,,,,,,,,,,,,,,,,,,,,,,,,,,,,,,,,,,
,,,,,,,642ee08bca2effffc9e754e2,2023-08-16_08h49.36.689,HF_wild_card,2022.2.4,Win32,60.01680471,642ee08bca2effffc9e754e2,64d2fd46c836a06233681665,64dc7f5b0fbb9d085cd3cdd3,,,,,,,sngl,resources/Empty.png,resources/DB.BMP,Door2,0.268518519,0.015740741,1,0,0,1.6267,optionRight,20,1955,1,36,0,36,0,1,,,,,,,,,,,,,,,,,,,,,,,,,,,,,,,,,,,,,,,
,,,,,,,642ee08bca2effffc9e754e2,2023-08-16_08h49.36.689,HF_wild_card,2022.2.4,Win32,60.01680471,642ee08bca2effffc9e754e2,64d2fd46c836a06233681665,64dc7f5b0fbb9d085cd3cdd3,,,,,,,decisionTrl,resources/DB.BMP,resources/DY.BMP,Door2,-0.303703704,0.016666667,1,0,0,4.9241,optionLeft,20,1975,1,37,0,37,0,1,,,,,,,,,,,,,,,,,,,,,,,,,,,,,,,,,,,,,,,
,,,,,,,642ee08bca2effffc9e754e2,2023-08-16_08h49.36.689,HF_wild_card,2022.2.4,Win32,60.01680471,642ee08bca2effffc9e754e2,64d2fd46c836a06233681665,64dc7f5b0fbb9d085cd3cdd3,,,,,,,decisionTrl,resources/DP.BMP,resources/DB.BMP,WildCard_NonEx,-0.405555556,0,1,0,0,5.5074,optionLeft,45,2020,1,38,0,38,0,1,,,,,,,,,,,,,,,,,,,,,,,,,,,,,,,,,,,,,,,
,,,,,,,642ee08bca2effffc9e754e2,2023-08-16_08h49.36.689,HF_wild_card,2022.2.4,Win32,60.01680471,642ee08bca2effffc9e754e2,64d2fd46c836a06233681665,64dc7f5b0fbb9d085cd3cdd3,,,,,,,decisionTrl,resources/DR.BMP,resources/DBN.BMP,Door4,0.391666667,-0.000925926,1,0,0,5.0313,optionRight,60,2080,1,39,0,39,0,1,,,,,,,,,,,,,,,,,,,,,,,,,,,,,,,,,,,,,,,
,,,,,,,642ee08bca2effffc9e754e2,2023-08-16_08h49.36.689,HF_wild_card,2022.2.4,Win32,60.01680471,642ee08bca2effffc9e754e2,64d2fd46c836a06233681665,64dc7f5b0fbb9d085cd3cdd3,,,,,,,sngl,resources/Empty.png,resources/DBN.BMP,Door4,0.368518519,0.052777778,1,0,0,1.6042,optionRight,60,2140,1,40,0,40,0,1,,,,,,,,,,,,,,,,,,,,,,,,,,,,,,,,,,,,,,,
,,,,,,,642ee08bca2effffc9e754e2,2023-08-16_08h49.36.689,HF_wild_card,2022.2.4,Win32,60.01680471,642ee08bca2effffc9e754e2,64d2fd46c836a06233681665,64dc7f5b0fbb9d085cd3cdd3,,,,,,,decisionTrl,resources/DR.BMP,resources/DBN.BMP,Door4,-0.017592593,0.006481481,1,0,0,0.0563,optionRight,80,2220,1,41,0,41,0,1,,,,,,,,,,,,,,,,,,,,,,,,,,,,,,,,,,,,,,,
,,,,,,,642ee08bca2effffc9e754e2,2023-08-16_08h49.36.689,HF_wild_card,2022.2.4,Win32,60.01680471,642ee08bca2effffc9e754e2,64d2fd46c836a06233681665,64dc7f5b0fbb9d085cd3cdd3,,,,,,,sngl,resources/DBN.BMP,resources/Empty.png,Door4,-0.226851852,0.048148148,1,0,0,2.0136,optionLeft,80,2300,1,42,0,42,0,1,,,,,,,,,,,,,,,,,,,,,,,,,,,,,,,,,,,,,,,
,,,,,,,642ee08bca2effffc9e754e2,2023-08-16_08h49.36.689,HF_wild_card,2022.2.4,Win32,60.01680471,642ee08bca2effffc9e754e2,64d2fd46c836a06233681665,64dc7f5b0fbb9d085cd3cdd3,,,,,,,sngl,resources/Empty.png,resources/DP.BMP,WildCard_NonEx,0.316666667,-0.065740741,1,0,0,3.1135,optionRight,55,2355,1,43,0,43,0,1,,,,,,,,,,,,,,,,,,,,,,,,,,,,,,,,,,,,,,,
,,,,,,,642ee08bca2effffc9e754e2,2023-08-16_08h49.36.689,HF_wild_card,2022.2.4,Win32,60.01680471,642ee08bca2effffc9e754e2,64d2fd46c836a06233681665,64dc7f5b0fbb9d085cd3cdd3,,,,,,,,,,,,,,,,,,,,,,,,,,0,0,0,0,1,,,,,,,,,,,,,,,,,,,,,,,,,,,,,,,,,,
,,,,,,,642ee08bca2effffc9e754e2,2023-08-16_08h49.36.689,HF_wild_card,2022.2.4,Win32,60.01680471,642ee08bca2effffc9e754e2,64d2fd46c836a06233681665,64dc7f5b0fbb9d085cd3cdd3,,,,,,,decisionTrl,resources/DR.BMP,resources/DBN.BMP,Door4,0.374074074,-0.063888889,1,0,0,3.5252,optionRight,80,2435,2,0,0,0,0,1,,,,,,,,,,,,,,,,,,,,,,,,,,,,,,,,,,,,,,,
,,,,,,,642ee08bca2effffc9e754e2,2023-08-16_08h49.36.689,HF_wild_card,2022.2.4,Win32,60.01680471,642ee08bca2effffc9e754e2,64d2fd46c836a06233681665,64dc7f5b0fbb9d085cd3cdd3,,,,,,,ctch,resources/DR.BMP,resources/DB.BMP,Door3,-0.280555556,-0.007407407,1,0,0,3.7806,optionLeft,70,2505,2,1,0,1,0,1,,,,,,,,,,,,,,,,,,,,,,,,,,,,,,,,,,,,,,,
,,,,,,,642ee08bca2effffc9e754e2,2023-08-16_08h49.36.689,HF_wild_card,2022.2.4,Win32,60.01680471,642ee08bca2effffc9e754e2,64d2fd46c836a06233681665,64dc7f5b0fbb9d085cd3cdd3,,,,,,,decisionTrl,resources/DBN.BMP,resources/DP.BMP,Door4,-0.408333333,0.043518519,1,0,0,3.2956,optionLeft,80,2585,2,2,0,2,0,1,,,,,,,,,,,,,,,,,,,,,,,,,,,,,,,,,,,,,,,
,,,,,,,642ee08bca2effffc9e754e2,2023-08-16_08h49.36.689,HF_wild_card,2022.2.4,Win32,60.01680471,642ee08bca2effffc9e754e2,64d2fd46c836a06233681665,64dc7f5b0fbb9d085cd3cdd3,,,,,,,ctch,resources/DY.BMP,resources/DBN.BMP,Door4,0.42037037,0.012962963,1,0,0,2.0499,optionRight,80,2665,2,3,0,3,0,1,,,,,,,,,,,,,,,,,,,,,,,,,,,,,,,,,,,,,,,
,,,,,,,642ee08bca2effffc9e754e2,2023-08-16_08h49.36.689,HF_wild_card,2022.2.4,Win32,60.01680471,642ee08bca2effffc9e754e2,64d2fd46c836a06233681665,64dc7f5b0fbb9d085cd3cdd3,,,,,,,decisionTrl,resources/DR.BMP,resources/DBN.BMP,Door4,0.462037037,0.012962963,1,0,0,2.1802,optionRight,60,2725,2,4,0,4,0,1,,,,,,,,,,,,,,,,,,,,,,,,,,,,,,,,,,,,,,,
,,,,,,,642ee08bca2effffc9e754e2,2023-08-16_08h49.36.689,HF_wild_card,2022.2.4,Win32,60.01680471,642ee08bca2effffc9e754e2,64d2fd46c836a06233681665,64dc7f5b0fbb9d085cd3cdd3,,,,,,,sngl,resources/Empty.png,resources/DR.BMP,Door3,0.296296296,-0.061111111,1,0,0,1.83,optionRight,70,2795,2,5,0,5,0,1,,,,,,,,,,,,,,,,,,,,,,,,,,,,,,,,,,,,,,,
,,,,,,,642ee08bca2effffc9e754e2,2023-08-16_08h49.36.689,HF_wild_card,2022.2.4,Win32,60.01680471,642ee08bca2effffc9e754e2,64d2fd46c836a06233681665,64dc7f5b0fbb9d085cd3cdd3,,,,,,,sngl,resources/DR.BMP,resources/Empty.png,Door3,-0.389814815,0.00462963,1,0,0,1.7988,optionLeft,70,2865,2,6,0,6,0,1,,,,,,,,,,,,,,,,,,,,,,,,,,,,,,,,,,,,,,,
,,,,,,,642ee08bca2effffc9e754e2,2023-08-16_08h49.36.689,HF_wild_card,2022.2.4,Win32,60.01680471,642ee08bca2effffc9e754e2,64d2fd46c836a06233681665,64dc7f5b0fbb9d085cd3cdd3,,,,,,,ctch,resources/DB.BMP,resources/DR.BMP,Door3,0.314814815,-0.021296296,1,0,0,1.8626,optionRight,70,2935,2,7,0,7,0,1,,,,,,,,,,,,,,,,,,,,,,,,,,,,,,,,,,,,,,,
,,,,,,,642ee08bca2effffc9e754e2,2023-08-16_08h49.36.689,HF_wild_card,2022.2.4,Win32,60.01680471,642ee08bca2effffc9e754e2,64d2fd46c836a06233681665,64dc7f5b0fbb9d085cd3cdd3,,,,,,,sngl,resources/Empty.png,resources/DBN.BMP,Door4,0.382407407,-0.04537037,1,0,0,1.7241,optionRight,80,3015,2,8,0,8,0,1,,,,,,,,,,,,,,,,,,,,,,,,,,,,,,,,,,,,,,,
,,,,,,,642ee08bca2effffc9e754e2,2023-08-16_08h49.36.689,HF_wild_card,2022.2.4,Win32,60.01680471,642ee08bca2effffc9e754e2,64d2fd46c836a06233681665,64dc7f5b0fbb9d085cd3cdd3,,,,,,,sngl,resources/Empty.png,resources/DP.BMP,WildCard_NonEx,0.325925926,-0.067592593,1,0,0,1.5588,optionRight,55,3070,2,9,0,9,0,1,,,,,,,,,,,,,,,,,,,,,,,,,,,,,,,,,,,,,,,
,,,,,,,642ee08bca2effffc9e754e2,2023-08-16_08h49.36.689,HF_wild_card,2022.2.4,Win32,60.01680471,642ee08bca2effffc9e754e2,64d2fd46c836a06233681665,64dc7f5b0fbb9d085cd3cdd3,,,,,,,decisionTrl,resources/DBN.BMP,resources/DR.BMP,Door4,-0.338888889,0.009259259,1,0,0,1.7981,optionLeft,80,3150,2,10,0,10,0,1,,,,,,,,,,,,,,,,,,,,,,,,,,,,,,,,,,,,,,,
,,,,,,,642ee08bca2effffc9e754e2,2023-08-16_08h49.36.689,HF_wild_card,2022.2.4,Win32,60.01680471,642ee08bca2effffc9e754e2,64d2fd46c836a06233681665,64dc7f5b0fbb9d085cd3cdd3,,,,,,,sngl,resources/DY.BMP,resources/Empty.png,Door1,-0.012962963,0.012962963,1,0,0,0.0302,optionLeft,30,3180,2,11,0,11,0,1,,,,,,,,,,,,,,,,,,,,,,,,,,,,,,,,,,,,,,,
,,,,,,,642ee08bca2effffc9e754e2,2023-08-16_08h49.36.689,HF_wild_card,2022.2.4,Win32,60.01680471,642ee08bca2effffc9e754e2,64d2fd46c836a06233681665,64dc7f5b0fbb9d085cd3cdd3,,,,,,,sngl,resources/DBN.BMP,resources/Empty.png,Door4,-0.261111111,-0.025925926,1,0,0,0.8387,optionLeft,60,3240,2,12,0,12,0,1,,,,,,,,,,,,,,,,,,,,,,,,,,,,,,,,,,,,,,,
,,,,,,,642ee08bca2effffc9e754e2,2023-08-16_08h49.36.689,HF_wild_card,2022.2.4,Win32,60.01680471,642ee08bca2effffc9e754e2,64d2fd46c836a06233681665,64dc7f5b0fbb9d085cd3cdd3,,,,,,,decisionTrl,resources/DBN.BMP,resources/DR.BMP,Door3,0.346296296,-0.046296296,1,0,0,2.6637,optionRight,70,3310,2,13,0,13,0,1,,,,,,,,,,,,,,,,,,,,,,,,,,,,,,,,,,,,,,,
,,,,,,,642ee08bca2effffc9e754e2,2023-08-16_08h49.36.689,HF_wild_card,2022.2.4,Win32,60.01680471,642ee08bca2effffc9e754e2,64d2fd46c836a06233681665,64dc7f5b0fbb9d085cd3cdd3,,,,,,,sngl,resources/DP.BMP,resources/Empty.png,WildCard_NonEx,-0.253703704,-0.051851852,1,0,0,1.1965,optionLeft,45,3355,2,14,0,14,0,1,,,,,,,,,,,,,,,,,,,,,,,,,,,,,,,,,,,,,,,
,,,,,,,642ee08bca2effffc9e754e2,2023-08-16_08h49.36.689,HF_wild_card,2022.2.4,Win32,60.01680471,642ee08bca2effffc9e754e2,64d2fd46c836a06233681665,64dc7f5b0fbb9d085cd3cdd3,,,,,,,decisionTrl,resources/DP.BMP,resources/DY.BMP,WildCard_NonEx,-0.175,-0.023148148,1,0,0,3.6807,optionLeft,55,3410,2,15,0,15,0,1,,,,,,,,,,,,,,,,,,,,,,,,,,,,,,,,,,,,,,,
,,,,,,,642ee08bca2effffc9e754e2,2023-08-16_08h49.36.689,HF_wild_card,2022.2.4,Win32,60.01680471,642ee08bca2effffc9e754e2,64d2fd46c836a06233681665,64dc7f5b0fbb9d085cd3cdd3,,,,,,,decisionTrl,resources/DBN.BMP,resources/DR.BMP,Door4,-0.439814815,0.026851852,1,0,0,1.9912,optionLeft,80,3490,2,16,0,16,0,1,,,,,,,,,,,,,,,,,,,,,,,,,,,,,,,,,,,,,,,
,,,,,,,642ee08bca2effffc9e754e2,2023-08-16_08h49.36.689,HF_wild_card,2022.2.4,Win32,60.01680471,642ee08bca2effffc9e754e2,64d2fd46c836a06233681665,64dc7f5b0fbb9d085cd3cdd3,,,,,,,decisionTrl,resources/DY.BMP,resources/DB.BMP,Door1,-0.271296296,-0.012962963,1,0,0,4.8777,optionLeft,30,3520,2,17,0,17,0,1,,,,,,,,,,,,,,,,,,,,,,,,,,,,,,,,,,,,,,,
,,,,,,,642ee08bca2effffc9e754e2,2023-08-16_08h49.36.689,HF_wild_card,2022.2.4,Win32,60.01680471,642ee08bca2effffc9e754e2,64d2fd46c836a06233681665,64dc7f5b0fbb9d085cd3cdd3,,,,,,,decisionTrl,resources/DP.BMP,resources/DB.BMP,WildCard_NonEx,-0.348148148,-0.018518519,1,0,0,2.2147,optionLeft,55,3575,2,18,0,18,0,1,,,,,,,,,,,,,,,,,,,,,,,,,,,,,,,,,,,,,,,
,,,,,,,642ee08bca2effffc9e754e2,2023-08-16_08h49.36.689,HF_wild_card,2022.2.4,Win32,60.01680471,642ee08bca2effffc9e754e2,64d2fd46c836a06233681665,64dc7f5b0fbb9d085cd3cdd3,,,,,,,sngl,resources/Empty.png,resources/DP.BMP,WildCard_NonEx,0.296296296,-0.072222222,1,0,0,1.7316,optionRight,45,3620,2,19,0,19,0,1,,,,,,,,,,,,,,,,,,,,,,,,,,,,,,,,,,,,,,,
,,,,,,,642ee08bca2effffc9e754e2,2023-08-16_08h49.36.689,HF_wild_card,2022.2.4,Win32,60.01680471,642ee08bca2effffc9e754e2,64d2fd46c836a06233681665,64dc7f5b0fbb9d085cd3cdd3,,,,,,,ctch,resources/DY.BMP,resources/DBN.BMP,Door4,0.35,-0.075,1,0,0,1.3974,optionRight,60,3680,2,20,0,20,0,1,,,,,,,,,,,,,,,,,,,,,,,,,,,,,,,,,,,,,,,
,,,,,,,642ee08bca2effffc9e754e2,2023-08-16_08h49.36.689,HF_wild_card,2022.2.4,Win32,60.01680471,642ee08bca2effffc9e754e2,64d2fd46c836a06233681665,64dc7f5b0fbb9d085cd3cdd3,,,,,,,decisionTrl,resources/DY.BMP,resources/DB.BMP,Door2,0.262962963,-0.040740741,1,0,0,3.8138,optionRight,40,3720,2,21,0,21,0,1,,,,,,,,,,,,,,,,,,,,,,,,,,,,,,,,,,,,,,,
,,,,,,,642ee08bca2effffc9e754e2,2023-08-16_08h49.36.689,HF_wild_card,2022.2.4,Win32,60.01680471,642ee08bca2effffc9e754e2,64d2fd46c836a06233681665,64dc7f5b0fbb9d085cd3cdd3,,,,,,,decisionTrl,resources/DB.BMP,resources/DY.BMP,Door2,-0.272222222,-0.080555556,1,0,0,2.909,optionLeft,40,3760,2,22,0,22,0,1,,,,,,,,,,,,,,,,,,,,,,,,,,,,,,,,,,,,,,,
,,,,,,,642ee08bca2effffc9e754e2,2023-08-16_08h49.36.689,HF_wild_card,2022.2.4,Win32,60.01680471,642ee08bca2effffc9e754e2,64d2fd46c836a06233681665,64dc7f5b0fbb9d085cd3cdd3,,,,,,,decisionTrl,resources/DR.BMP,resources/DBN.BMP,Door4,0.199074074,-0.007407407,1,0,0,1.3255,optionRight,80,3840,2,23,0,23,0,1,,,,,,,,,,,,,,,,,,,,,,,,,,,,,,,,,,,,,,,
,,,,,,,642ee08bca2effffc9e754e2,2023-08-16_08h49.36.689,HF_wild_card,2022.2.4,Win32,60.01680471,642ee08bca2effffc9e754e2,64d2fd46c836a06233681665,64dc7f5b0fbb9d085cd3cdd3,,,,,,,ctch,resources/DBN.BMP,resources/DY.BMP,Door4,-0.327777778,-0.017592593,1,0,0,1.8595,optionLeft,60,3900,2,24,0,24,0,1,,,,,,,,,,,,,,,,,,,,,,,,,,,,,,,,,,,,,,,
,,,,,,,642ee08bca2effffc9e754e2,2023-08-16_08h49.36.689,HF_wild_card,2022.2.4,Win32,60.01680471,642ee08bca2effffc9e754e2,64d2fd46c836a06233681665,64dc7f5b0fbb9d085cd3cdd3,,,,,,,decisionTrl,resources/DP.BMP,resources/DR.BMP,Door3,0.161111111,-0.062962963,1,0,0,6.5802,optionRight,70,3970,2,25,0,25,0,1,,,,,,,,,,,,,,,,,,,,,,,,,,,,,,,,,,,,,,,
,,,,,,,642ee08bca2effffc9e754e2,2023-08-16_08h49.36.689,HF_wild_card,2022.2.4,Win32,60.01680471,642ee08bca2effffc9e754e2,64d2fd46c836a06233681665,64dc7f5b0fbb9d085cd3cdd3,,,,,,,decisionTrl,resources/DB.BMP,resources/DP.BMP,Door2,0.002777778,-0.010185185,1,0,0,0.0468,optionLeft,40,4010,2,26,0,26,0,1,,,,,,,,,,,,,,,,,,,,,,,,,,,,,,,,,,,,,,,
,,,,,,,642ee08bca2effffc9e754e2,2023-08-16_08h49.36.689,HF_wild_card,2022.2.4,Win32,60.01680471,642ee08bca2effffc9e754e2,64d2fd46c836a06233681665,64dc7f5b0fbb9d085cd3cdd3,,,,,,,sngl,resources/Empty.png,resources/DB.BMP,Door2,0.30462963,-0.121296296,1,0,0,1.2136,optionRight,40,4050,2,27,0,27,0,1,,,,,,,,,,,,,,,,,,,,,,,,,,,,,,,,,,,,,,,
,,,,,,,642ee08bca2effffc9e754e2,2023-08-16_08h49.36.689,HF_wild_card,2022.2.4,Win32,60.01680471,642ee08bca2effffc9e754e2,64d2fd46c836a06233681665,64dc7f5b0fbb9d085cd3cdd3,,,,,,,decisionTrl,resources/DY.BMP,resources/DB.BMP,Door1,-0.182407407,-0.035185185,1,0,0,2.0471,optionLeft,30,4080,2,28,0,28,0,1,,,,,,,,,,,,,,,,,,,,,,,,,,,,,,,,,,,,,,,
,,,,,,,642ee08bca2effffc9e754e2,2023-08-16_08h49.36.689,HF_wild_card,2022.2.4,Win32,60.01680471,642ee08bca2effffc9e754e2,64d2fd46c836a06233681665,64dc7f5b0fbb9d085cd3cdd3,,,,,,,ctch,resources/DBN.BMP,resources/DY.BMP,Door4,-0.222222222,-0.049074074,1,0,0,1.2956,optionLeft,60,4140,2,29,0,29,0,1,,,,,,,,,,,,,,,,,,,,,,,,,,,,,,,,,,,,,,,
,,,,,,,642ee08bca2effffc9e754e2,2023-08-16_08h49.36.689,HF_wild_card,2022.2.4,Win32,60.01680471,642ee08bca2effffc9e754e2,64d2fd46c836a06233681665,64dc7f5b0fbb9d085cd3cdd3,,,,,,,decisionTrl,resources/DP.BMP,resources/DBN.BMP,Door4,0.17962963,-0.07037037,1,0,0,1.3138,optionRight,60,4200,2,30,0,30,0,1,,,,,,,,,,,,,,,,,,,,,,,,,,,,,,,,,,,,,,,
,,,,,,,642ee08bca2effffc9e754e2,2023-08-16_08h49.36.689,HF_wild_card,2022.2.4,Win32,60.01680471,642ee08bca2effffc9e754e2,64d2fd46c836a06233681665,64dc7f5b0fbb9d085cd3cdd3,,,,,,,decisionTrl,resources/DR.BMP,resources/DP.BMP,Door3,-0.256481481,-0.036111111,1,0,0,3.1136,optionLeft,70,4270,2,31,0,31,0,1,,,,,,,,,,,,,,,,,,,,,,,,,,,,,,,,,,,,,,,
,,,,,,,642ee08bca2effffc9e754e2,2023-08-16_08h49.36.689,HF_wild_card,2022.2.4,Win32,60.01680471,642ee08bca2effffc9e754e2,64d2fd46c836a06233681665,64dc7f5b0fbb9d085cd3cdd3,,,,,,,sngl,resources/DB.BMP,resources/Empty.png,Door2,-0.167592593,-0.088888889,1,0,0,1.1983,optionLeft,20,4290,2,32,0,32,0,1,,,,,,,,,,,,,,,,,,,,,,,,,,,,,,,,,,,,,,,
,,,,,,,642ee08bca2effffc9e754e2,2023-08-16_08h49.36.689,HF_wild_card,2022.2.4,Win32,60.01680471,642ee08bca2effffc9e754e2,64d2fd46c836a06233681665,64dc7f5b0fbb9d085cd3cdd3,,,,,,,ctch,resources/DB.BMP,resources/DR.BMP,Door3,0.312962963,-0.047222222,1,0,0,1.4584,optionRight,70,4360,2,33,0,33,0,1,,,,,,,,,,,,,,,,,,,,,,,,,,,,,,,,,,,,,,,
,,,,,,,642ee08bca2effffc9e754e2,2023-08-16_08h49.36.689,HF_wild_card,2022.2.4,Win32,60.01680471,642ee08bca2effffc9e754e2,64d2fd46c836a06233681665,64dc7f5b0fbb9d085cd3cdd3,,,,,,,ctch,resources/DR.BMP,resources/DB.BMP,Door3,-0.287037037,-0.042592593,1,0,0,1.4875,optionLeft,70,4430,2,34,0,34,0,1,,,,,,,,,,,,,,,,,,,,,,,,,,,,,,,,,,,,,,,
,,,,,,,642ee08bca2effffc9e754e2,2023-08-16_08h49.36.689,HF_wild_card,2022.2.4,Win32,60.01680471,642ee08bca2effffc9e754e2,64d2fd46c836a06233681665,64dc7f5b0fbb9d085cd3cdd3,,,,,,,decisionTrl,resources/DB.BMP,resources/DY.BMP,Door2,-0.02037037,-0.010185185,1,0,0,0.0383,optionLeft,40,4470,2,35,0,35,0,1,,,,,,,,,,,,,,,,,,,,,,,,,,,,,,,,,,,,,,,
,,,,,,,642ee08bca2effffc9e754e2,2023-08-16_08h49.36.689,HF_wild_card,2022.2.4,Win32,60.01680471,642ee08bca2effffc9e754e2,64d2fd46c836a06233681665,64dc7f5b0fbb9d085cd3cdd3,,,,,,,decisionTrl,resources/DY.BMP,resources/DP.BMP,WildCard_NonEx,0.231481481,-0.057407407,1,0,0,1.5635,optionRight,55,4525,2,36,0,36,0,1,,,,,,,,,,,,,,,,,,,,,,,,,,,,,,,,,,,,,,,
,,,,,,,642ee08bca2effffc9e754e2,2023-08-16_08h49.36.689,HF_wild_card,2022.2.4,Win32,60.01680471,642ee08bca2effffc9e754e2,64d2fd46c836a06233681665,64dc7f5b0fbb9d085cd3cdd3,,,,,,,decisionTrl,resources/DY.BMP,resources/DB.BMP,Door1,-0.090740741,-0.007407407,1,0,0,2.0233,optionLeft,30,4555,2,37,0,37,0,1,,,,,,,,,,,,,,,,,,,,,,,,,,,,,,,,,,,,,,,
,,,,,,,642ee08bca2effffc9e754e2,2023-08-16_08h49.36.689,HF_wild_card,2022.2.4,Win32,60.01680471,642ee08bca2effffc9e754e2,64d2fd46c836a06233681665,64dc7f5b0fbb9d085cd3cdd3,,,,,,,decisionTrl,resources/DB.BMP,resources/DY.BMP,Door2,-0.203703704,-0.036111111,1,0,0,3.3314,optionLeft,20,4575,2,38,0,38,0,1,,,,,,,,,,,,,,,,,,,,,,,,,,,,,,,,,,,,,,,
,,,,,,,642ee08bca2effffc9e754e2,2023-08-16_08h49.36.689,HF_wild_card,2022.2.4,Win32,60.01680471,642ee08bca2effffc9e754e2,64d2fd46c836a06233681665,64dc7f5b0fbb9d085cd3cdd3,,,,,,,decisionTrl,resources/DBN.BMP,resources/DR.BMP,Door4,-0.241666667,-0.007407407,1,0,0,1.8735,optionLeft,60,4635,2,39,0,39,0,1,,,,,,,,,,,,,,,,,,,,,,,,,,,,,,,,,,,,,,,
,,,,,,,642ee08bca2effffc9e754e2,2023-08-16_08h49.36.689,HF_wild_card,2022.2.4,Win32,60.01680471,642ee08bca2effffc9e754e2,64d2fd46c836a06233681665,64dc7f5b0fbb9d085cd3cdd3,,,,,,,sngl,resources/Empty.png,resources/DY.BMP,Door1,0.185185185,-0.034259259,1,0,0,1.3134,optionRight,30,4665,2,40,0,40,0,1,,,,,,,,,,,,,,,,,,,,,,,,,,,,,,,,,,,,,,,
,,,,,,,642ee08bca2effffc9e754e2,2023-08-16_08h49.36.689,HF_wild_card,2022.2.4,Win32,60.01680471,642ee08bca2effffc9e754e2,64d2fd46c836a06233681665,64dc7f5b0fbb9d085cd3cdd3,,,,,,,decisionTrl,resources/DB.BMP,resources/DY.BMP,Door2,-0.19537037,-0.039814815,1,0,0,1.7294,optionLeft,20,4685,2,41,0,41,0,1,,,,,,,,,,,,,,,,,,,,,,,,,,,,,,,,,,,,,,,
,,,,,,,642ee08bca2effffc9e754e2,2023-08-16_08h49.36.689,HF_wild_card,2022.2.4,Win32,60.01680471,642ee08bca2effffc9e754e2,64d2fd46c836a06233681665,64dc7f5b0fbb9d085cd3cdd3,,,,,,,sngl,resources/DP.BMP,resources/Empty.png,WildCard_NonEx,-0.216666667,-0.05,1,0,0,1.2138,optionLeft,55,4740,2,42,0,42,0,1,,,,,,,,,,,,,,,,,,,,,,,,,,,,,,,,,,,,,,,
,,,,,,,642ee08bca2effffc9e754e2,2023-08-16_08h49.36.689,HF_wild_card,2022.2.4,Win32,60.01680471,642ee08bca2effffc9e754e2,64d2fd46c836a06233681665,64dc7f5b0fbb9d085cd3cdd3,,,,,,,decisionTrl,resources/DR.BMP,resources/DBN.BMP,Door4,0.246296296,-0.05,1,0,0,2.2971,optionRight,60,4800,2,43,0,43,0,1,,,,,,,,,,,,,,,,,,,,,,,,,,,,,,,,,,,,,,,
,,,,,,,642ee08bca2effffc9e754e2,2023-08-16_08h49.36.689,HF_wild_card,2022.2.4,Win32,60.01680471,642ee08bca2effffc9e754e2,64d2fd46c836a06233681665,64dc7f5b0fbb9d085cd3cdd3,,,,,,,,,,,,,,,,,,,,,,,,,,1,0,1,0,1,,,,,,,,,,,,,,,,,,,,,,,,,,,,,,,,,,
,,,,,,,642ee08bca2effffc9e754e2,2023-08-16_08h49.36.689,HF_wild_card,2022.2.4,Win32,60.01680471,642ee08bca2effffc9e754e2,64d2fd46c836a06233681665,64dc7f5b0fbb9d085cd3cdd3,,,,,,,decisionTrl,resources/DY.BMP,resources/DP.BMP,WildCard_NonEx,0.32962963,-0.016666667,1,0,0,3.2101,optionRight,55,4855,3,0,0,0,0,1,,,,,,,,,,,,,,,,,,,,,,,,,,,,,,,,,,,,,,,
,,,,,,,642ee08bca2effffc9e754e2,2023-08-16_08h49.36.689,HF_wild_card,2022.2.4,Win32,60.01680471,642ee08bca2effffc9e754e2,64d2fd46c836a06233681665,64dc7f5b0fbb9d085cd3cdd3,,,,,,,decisionTrl,resources/DP.BMP,resources/DR.BMP,Door3,0.29537037,-0.000925926,1,0,0,1.7637,optionRight,70,4925,3,1,0,1,0,1,,,,,,,,,,,,,,,,,,,,,,,,,,,,,,,,,,,,,,,
,,,,,,,642ee08bca2effffc9e754e2,2023-08-16_08h49.36.689,HF_wild_card,2022.2.4,Win32,60.01680471,642ee08bca2effffc9e754e2,64d2fd46c836a06233681665,64dc7f5b0fbb9d085cd3cdd3,,,,,,,decisionTrl,resources/DR.BMP,resources/DBN.BMP,Door4,0.291666667,-0.013888889,1,0,0,1.4638,optionRight,60,4985,3,2,0,2,0,1,,,,,,,,,,,,,,,,,,,,,,,,,,,,,,,,,,,,,,,
,,,,,,,642ee08bca2effffc9e754e2,2023-08-16_08h49.36.689,HF_wild_card,2022.2.4,Win32,60.01680471,642ee08bca2effffc9e754e2,64d2fd46c836a06233681665,64dc7f5b0fbb9d085cd3cdd3,,,,,,,decisionTrl,resources/DY.BMP,resources/DB.BMP,Door1,0.003703704,0.008333333,1,0,0,0.0301,optionLeft,30,5015,3,3,0,3,0,1,,,,,,,,,,,,,,,,,,,,,,,,,,,,,,,,,,,,,,,
,,,,,,,642ee08bca2effffc9e754e2,2023-08-16_08h49.36.689,HF_wild_card,2022.2.4,Win32,60.01680471,642ee08bca2effffc9e754e2,64d2fd46c836a06233681665,64dc7f5b0fbb9d085cd3cdd3,,,,,,,decisionTrl,resources/DB.BMP,resources/DP.BMP,WildCard_NonEx,0.283333333,-0.055555556,1,0,0,1.8135,optionRight,55,5070,3,4,0,4,0,1,,,,,,,,,,,,,,,,,,,,,,,,,,,,,,,,,,,,,,,
,,,,,,,642ee08bca2effffc9e754e2,2023-08-16_08h49.36.689,HF_wild_card,2022.2.4,Win32,60.01680471,642ee08bca2effffc9e754e2,64d2fd46c836a06233681665,64dc7f5b0fbb9d085cd3cdd3,,,,,,,ctch,resources/DBN.BMP,resources/DY.BMP,Door4,-0.293518519,-0.039814815,1,0,0,2.2796,optionLeft,60,5130,3,5,0,5,0,1,,,,,,,,,,,,,,,,,,,,,,,,,,,,,,,,,,,,,,,
,,,,,,,642ee08bca2effffc9e754e2,2023-08-16_08h49.36.689,HF_wild_card,2022.2.4,Win32,60.01680471,642ee08bca2effffc9e754e2,64d2fd46c836a06233681665,64dc7f5b0fbb9d085cd3cdd3,,,,,,,ctch,resources/DY.BMP,resources/DBN.BMP,Door1,-0.164814815,-0.014814815,1,0,0,1.6636,optionLeft,30,5160,3,6,0,6,0,1,,,,,,,,,,,,,,,,,,,,,,,,,,,,,,,,,,,,,,,
,,,,,,,642ee08bca2effffc9e754e2,2023-08-16_08h49.36.689,HF_wild_card,2022.2.4,Win32,60.01680471,642ee08bca2effffc9e754e2,64d2fd46c836a06233681665,64dc7f5b0fbb9d085cd3cdd3,,,,,,,decisionTrl,resources/DY.BMP,resources/DB.BMP,Door1,0.000925926,-0.000925926,1,0,0,0.0469,optionLeft,30,5190,3,7,0,7,0,1,,,,,,,,,,,,,,,,,,,,,,,,,,,,,,,,,,,,,,,
,,,,,,,642ee08bca2effffc9e754e2,2023-08-16_08h49.36.689,HF_wild_card,2022.2.4,Win32,60.01680471,642ee08bca2effffc9e754e2,64d2fd46c836a06233681665,64dc7f5b0fbb9d085cd3cdd3,,,,,,,sngl,resources/Empty.png,resources/DB.BMP,Door2,0.315740741,-0.083333333,1,0,0,1.3301,optionRight,20,5210,3,8,0,8,0,1,,,,,,,,,,,,,,,,,,,,,,,,,,,,,,,,,,,,,,,
,,,,,,,642ee08bca2effffc9e754e2,2023-08-16_08h49.36.689,HF_wild_card,2022.2.4,Win32,60.01680471,642ee08bca2effffc9e754e2,64d2fd46c836a06233681665,64dc7f5b0fbb9d085cd3cdd3,,,,,,,sngl,resources/DP.BMP,resources/Empty.png,WildCard_NonEx,-0.268518519,-0.061111111,1,0,0,0.8793,optionLeft,55,5265,3,9,0,9,0,1,,,,,,,,,,,,,,,,,,,,,,,,,,,,,,,,,,,,,,,
,,,,,,,642ee08bca2effffc9e754e2,2023-08-16_08h49.36.689,HF_wild_card,2022.2.4,Win32,60.01680471,642ee08bca2effffc9e754e2,64d2fd46c836a06233681665,64dc7f5b0fbb9d085cd3cdd3,,,,,,,ctch,resources/DBN.BMP,resources/DY.BMP,Door4,-0.311111111,-0.016666667,1,0,0,1.3969,optionLeft,60,5325,3,10,0,10,0,1,,,,,,,,,,,,,,,,,,,,,,,,,,,,,,,,,,,,,,,
,,,,,,,642ee08bca2effffc9e754e2,2023-08-16_08h49.36.689,HF_wild_card,2022.2.4,Win32,60.01680471,642ee08bca2effffc9e754e2,64d2fd46c836a06233681665,64dc7f5b0fbb9d085cd3cdd3,,,,,,,decisionTrl,resources/DP.BMP,resources/DY.BMP,WildCard_NonEx,-0.225925926,-0.012037037,1,0,0,2.7139,optionLeft,55,5380,3,11,0,11,0,1,,,,,,,,,,,,,,,,,,,,,,,,,,,,,,,,,,,,,,,
,,,,,,,642ee08bca2effffc9e754e2,2023-08-16_08h49.36.689,HF_wild_card,2022.2.4,Win32,60.01680471,642ee08bca2effffc9e754e2,64d2fd46c836a06233681665,64dc7f5b0fbb9d085cd3cdd3,,,,,,,ctch,resources/DB.BMP,resources/DR.BMP,Door3,0.235185185,-0.058333333,1,0,0,2.2127,optionRight,70,5450,3,12,0,12,0,1,,,,,,,,,,,,,,,,,,,,,,,,,,,,,,,,,,,,,,,
,,,,,,,642ee08bca2effffc9e754e2,2023-08-16_08h49.36.689,HF_wild_card,2022.2.4,Win32,60.01680471,642ee08bca2effffc9e754e2,64d2fd46c836a06233681665,64dc7f5b0fbb9d085cd3cdd3,,,,,,,decisionTrl,resources/DR.BMP,resources/DP.BMP,Door3,-0.268518519,-0.082407407,1,0,0,1.5638,optionLeft,70,5520,3,13,0,13,0,1,,,,,,,,,,,,,,,,,,,,,,,,,,,,,,,,,,,,,,,
,,,,,,,642ee08bca2effffc9e754e2,2023-08-16_08h49.36.689,HF_wild_card,2022.2.4,Win32,60.01680471,642ee08bca2effffc9e754e2,64d2fd46c836a06233681665,64dc7f5b0fbb9d085cd3cdd3,,,,,,,sngl,resources/Empty.png,resources/DBN.BMP,Door4,0.289814815,-0.075925926,1,0,0,1.0303,optionRight,60,5580,3,14,0,14,0,1,,,,,,,,,,,,,,,,,,,,,,,,,,,,,,,,,,,,,,,
,,,,,,,642ee08bca2effffc9e754e2,2023-08-16_08h49.36.689,HF_wild_card,2022.2.4,Win32,60.01680471,642ee08bca2effffc9e754e2,64d2fd46c836a06233681665,64dc7f5b0fbb9d085cd3cdd3,,,,,,,decisionTrl,resources/DBN.BMP,resources/DR.BMP,Door3,-0.00462963,0.02037037,1,0,0,0.0636,optionRight,70,5650,3,15,0,15,0,1,,,,,,,,,,,,,,,,,,,,,,,,,,,,,,,,,,,,,,,
,,,,,,,642ee08bca2effffc9e754e2,2023-08-16_08h49.36.689,HF_wild_card,2022.2.4,Win32,60.01680471,642ee08bca2effffc9e754e2,64d2fd46c836a06233681665,64dc7f5b0fbb9d085cd3cdd3,,,,,,,decisionTrl,resources/DR.BMP,resources/DBN.BMP,Door4,0.194444444,-0.075925926,1,0,0,1.0793,optionRight,80,5730,3,16,0,16,0,1,,,,,,,,,,,,,,,,,,,,,,,,,,,,,,,,,,,,,,,
,,,,,,,642ee08bca2effffc9e754e2,2023-08-16_08h49.36.689,HF_wild_card,2022.2.4,Win32,60.01680471,642ee08bca2effffc9e754e2,64d2fd46c836a06233681665,64dc7f5b0fbb9d085cd3cdd3,,,,,,,decisionTrl,resources/DB.BMP,resources/DY.BMP,Door1,0.239814815,-0.055555556,1,0,0,1.9147,optionRight,30,5760,3,17,0,17,0,1,,,,,,,,,,,,,,,,,,,,,,,,,,,,,,,,,,,,,,,
,,,,,,,642ee08bca2effffc9e754e2,2023-08-16_08h49.36.689,HF_wild_card,2022.2.4,Win32,60.01680471,642ee08bca2effffc9e754e2,64d2fd46c836a06233681665,64dc7f5b0fbb9d085cd3cdd3,,,,,,,decisionTrl,resources/DY.BMP,resources/DB.BMP,Door1,-0.003703704,0.016666667,1,0,0,0.0469,optionLeft,30,5790,3,18,0,18,0,1,,,,,,,,,,,,,,,,,,,,,,,,,,,,,,,,,,,,,,,
,,,,,,,642ee08bca2effffc9e754e2,2023-08-16_08h49.36.689,HF_wild_card,2022.2.4,Win32,60.01680471,642ee08bca2effffc9e754e2,64d2fd46c836a06233681665,64dc7f5b0fbb9d085cd3cdd3,,,,,,,sngl,resources/Empty.png,resources/DP.BMP,WildCard_NonEx,0.199074074,-0.056481481,1,0,0,0.9467,optionRight,45,5835,3,19,0,19,0,1,,,,,,,,,,,,,,,,,,,,,,,,,,,,,,,,,,,,,,,
,,,,,,,642ee08bca2effffc9e754e2,2023-08-16_08h49.36.689,HF_wild_card,2022.2.4,Win32,60.01680471,642ee08bca2effffc9e754e2,64d2fd46c836a06233681665,64dc7f5b0fbb9d085cd3cdd3,,,,,,,sngl,resources/DR.BMP,resources/Empty.png,Door3,-0.275,-0.072222222,1,0,0,0.8302,optionLeft,70,5905,3,20,0,20,0,1,,,,,,,,,,,,,,,,,,,,,,,,,,,,,,,,,,,,,,,
,,,,,,,642ee08bca2effffc9e754e2,2023-08-16_08h49.36.689,HF_wild_card,2022.2.4,Win32,60.01680471,642ee08bca2effffc9e754e2,64d2fd46c836a06233681665,64dc7f5b0fbb9d085cd3cdd3,,,,,,,decisionTrl,resources/DB.BMP,resources/DY.BMP,Door1,0.214814815,-0.008333333,1,0,0,1.6805,optionRight,30,5935,3,21,0,21,0,1,,,,,,,,,,,,,,,,,,,,,,,,,,,,,,,,,,,,,,,
,,,,,,,642ee08bca2effffc9e754e2,2023-08-16_08h49.36.689,HF_wild_card,2022.2.4,Win32,60.01680471,642ee08bca2effffc9e754e2,64d2fd46c836a06233681665,64dc7f5b0fbb9d085cd3cdd3,,,,,,,decisionTrl,resources/DBN.BMP,resources/DP.BMP,Door4,0.010185185,-0.003703704,1,0,0,0.0461,optionLeft,60,5995,3,22,0,22,0,1,,,,,,,,,,,,,,,,,,,,,,,,,,,,,,,,,,,,,,,
,,,,,,,642ee08bca2effffc9e754e2,2023-08-16_08h49.36.689,HF_wild_card,2022.2.4,Win32,60.01680471,642ee08bca2effffc9e754e2,64d2fd46c836a06233681665,64dc7f5b0fbb9d085cd3cdd3,,,,,,,ctch,resources/DB.BMP,resources/DR.BMP,Door3,0.140740741,-0.050925926,1,0,0,0.8468,optionRight,70,6065,3,23,0,23,0,1,,,,,,,,,,,,,,,,,,,,,,,,,,,,,,,,,,,,,,,
,,,,,,,642ee08bca2effffc9e754e2,2023-08-16_08h49.36.689,HF_wild_card,2022.2.4,Win32,60.01680471,642ee08bca2effffc9e754e2,64d2fd46c836a06233681665,64dc7f5b0fbb9d085cd3cdd3,,,,,,,sngl,resources/Empty.png,resources/DR.BMP,Door3,-0.012962963,-0.00462963,1,0,0,0.0638,optionRight,70,6135,3,24,0,24,0,1,,,,,,,,,,,,,,,,,,,,,,,,,,,,,,,,,,,,,,,
,,,,,,,642ee08bca2effffc9e754e2,2023-08-16_08h49.36.689,HF_wild_card,2022.2.4,Win32,60.01680471,642ee08bca2effffc9e754e2,64d2fd46c836a06233681665,64dc7f5b0fbb9d085cd3cdd3,,,,,,,decisionTrl,resources/DY.BMP,resources/DB.BMP,Door1,-0.233333333,0.009259259,1,0,0,1.9636,optionLeft,30,6165,3,25,0,25,0,1,,,,,,,,,,,,,,,,,,,,,,,,,,,,,,,,,,,,,,,
,,,,,,,642ee08bca2effffc9e754e2,2023-08-16_08h49.36.689,HF_wild_card,2022.2.4,Win32,60.01680471,642ee08bca2effffc9e754e2,64d2fd46c836a06233681665,64dc7f5b0fbb9d085cd3cdd3,,,,,,,ctch,resources/DR.BMP,resources/DB.BMP,Door3,-0.240740741,-0.009259259,1,0,0,1.4639,optionLeft,70,6235,3,26,0,26,0,1,,,,,,,,,,,,,,,,,,,,,,,,,,,,,,,,,,,,,,,
,,,,,,,642ee08bca2effffc9e754e2,2023-08-16_08h49.36.689,HF_wild_card,2022.2.4,Win32,60.01680471,642ee08bca2effffc9e754e2,64d2fd46c836a06233681665,64dc7f5b0fbb9d085cd3cdd3,,,,,,,sngl,resources/Empty.png,resources/DY.BMP,Door1,0.206481481,-0.015740741,1,0,0,1.097,optionRight,30,6265,3,27,0,27,0,1,,,,,,,,,,,,,,,,,,,,,,,,,,,,,,,,,,,,,,,
,,,,,,,642ee08bca2effffc9e754e2,2023-08-16_08h49.36.689,HF_wild_card,2022.2.4,Win32,60.01680471,642ee08bca2effffc9e754e2,64d2fd46c836a06233681665,64dc7f5b0fbb9d085cd3cdd3,,,,,,,decisionTrl,resources/DR.BMP,resources/DBN.BMP,Door4,0.206481481,0.022222222,1,0,0,3.8077,optionRight,80,6345,3,28,0,28,0,1,,,,,,,,,,,,,,,,,,,,,,,,,,,,,,,,,,,,,,,
,,,,,,,642ee08bca2effffc9e754e2,2023-08-16_08h49.36.689,HF_wild_card,2022.2.4,Win32,60.01680471,642ee08bca2effffc9e754e2,64d2fd46c836a06233681665,64dc7f5b0fbb9d085cd3cdd3,,,,,,,ctch,resources/DR.BMP,resources/DB.BMP,Door3,-0.30462963,0.001851852,1,0,0,2.1471,optionLeft,70,6415,3,29,0,29,0,1,,,,,,,,,,,,,,,,,,,,,,,,,,,,,,,,,,,,,,,
,,,,,,,642ee08bca2effffc9e754e2,2023-08-16_08h49.36.689,HF_wild_card,2022.2.4,Win32,60.01680471,642ee08bca2effffc9e754e2,64d2fd46c836a06233681665,64dc7f5b0fbb9d085cd3cdd3,,,,,,,ctch,resources/DY.BMP,resources/DBN.BMP,Door4,0.239814815,-0.056481481,1,0,0,1.3964,optionRight,60,6475,3,30,0,30,0,1,,,,,,,,,,,,,,,,,,,,,,,,,,,,,,,,,,,,,,,
,,,,,,,642ee08bca2effffc9e754e2,2023-08-16_08h49.36.689,HF_wild_card,2022.2.4,Win32,60.01680471,642ee08bca2effffc9e754e2,64d2fd46c836a06233681665,64dc7f5b0fbb9d085cd3cdd3,,,,,,,decisionTrl,resources/DP.BMP,resources/DB.BMP,WildCard_NonEx,-0.180555556,-0.049074074,1,0,0,2.3138,optionLeft,45,6520,3,31,0,31,0,1,,,,,,,,,,,,,,,,,,,,,,,,,,,,,,,,,,,,,,,
,,,,,,,642ee08bca2effffc9e754e2,2023-08-16_08h49.36.689,HF_wild_card,2022.2.4,Win32,60.01680471,642ee08bca2effffc9e754e2,64d2fd46c836a06233681665,64dc7f5b0fbb9d085cd3cdd3,,,,,,,decisionTrl,resources/DR.BMP,resources/DBN.BMP,Door4,0.299074074,0.002777778,1,0,0,1.5969,optionRight,60,6580,3,32,0,32,0,1,,,,,,,,,,,,,,,,,,,,,,,,,,,,,,,,,,,,,,,
,,,,,,,642ee08bca2effffc9e754e2,2023-08-16_08h49.36.689,HF_wild_card,2022.2.4,Win32,60.01680471,642ee08bca2effffc9e754e2,64d2fd46c836a06233681665,64dc7f5b0fbb9d085cd3cdd3,,,,,,,decisionTrl,resources/DB.BMP,resources/DY.BMP,Door1,0.097222222,0.034259259,1,0,0,3.5135,optionRight,30,6610,3,33,0,33,0,1,,,,,,,,,,,,,,,,,,,,,,,,,,,,,,,,,,,,,,,
,,,,,,,642ee08bca2effffc9e754e2,2023-08-16_08h49.36.689,HF_wild_card,2022.2.4,Win32,60.01680471,642ee08bca2effffc9e754e2,64d2fd46c836a06233681665,64dc7f5b0fbb9d085cd3cdd3,,,,,,,decisionTrl,resources/DBN.BMP,resources/DR.BMP,Door3,0.277777778,0.017592593,1,0,0,2.1458,optionRight,70,6680,3,34,0,34,0,1,,,,,,,,,,,,,,,,,,,,,,,,,,,,,,,,,,,,,,,
,,,,,,,642ee08bca2effffc9e754e2,2023-08-16_08h49.36.689,HF_wild_card,2022.2.4,Win32,60.01680471,642ee08bca2effffc9e754e2,64d2fd46c836a06233681665,64dc7f5b0fbb9d085cd3cdd3,,,,,,,decisionTrl,resources/DBN.BMP,resources/DR.BMP,Door3,0.237962963,-0.023148148,1,0,0,1.9488,optionRight,70,6750,3,35,0,35,0,1,,,,,,,,,,,,,,,,,,,,,,,,,,,,,,,,,,,,,,,
,,,,,,,642ee08bca2effffc9e754e2,2023-08-16_08h49.36.689,HF_wild_card,2022.2.4,Win32,60.01680471,642ee08bca2effffc9e754e2,64d2fd46c836a06233681665,64dc7f5b0fbb9d085cd3cdd3,,,,,,,sngl,resources/Empty.png,resources/DP.BMP,WildCard_NonEx,0.321296296,-0.047222222,1,0,0,1.0638,optionRight,55,6805,3,36,0,36,0,1,,,,,,,,,,,,,,,,,,,,,,,,,,,,,,,,,,,,,,,
,,,,,,,642ee08bca2effffc9e754e2,2023-08-16_08h49.36.689,HF_wild_card,2022.2.4,Win32,60.01680471,642ee08bca2effffc9e754e2,64d2fd46c836a06233681665,64dc7f5b0fbb9d085cd3cdd3,,,,,,,decisionTrl,resources/DB.BMP,resources/DY.BMP,Door1,0.212962963,0.100925926,1,0,0,1.9317,optionRight,30,6835,3,37,0,37,0,1,,,,,,,,,,,,,,,,,,,,,,,,,,,,,,,,,,,,,,,
,,,,,,,642ee08bca2effffc9e754e2,2023-08-16_08h49.36.689,HF_wild_card,2022.2.4,Win32,60.01680471,642ee08bca2effffc9e754e2,64d2fd46c836a06233681665,64dc7f5b0fbb9d085cd3cdd3,,,,,,,sngl,resources/DY.BMP,resources/Empty.png,Door1,-0.159259259,-0.063888889,1,0,0,1.2816,optionLeft,30,6865,3,38,0,38,0,1,,,,,,,,,,,,,,,,,,,,,,,,,,,,,,,,,,,,,,,
,,,,,,,642ee08bca2effffc9e754e2,2023-08-16_08h49.36.689,HF_wild_card,2022.2.4,Win32,60.01680471,642ee08bca2effffc9e754e2,64d2fd46c836a06233681665,64dc7f5b0fbb9d085cd3cdd3,,,,,,,sngl,resources/DBN.BMP,resources/Empty.png,Door4,0.011111111,-0.005555556,1,0,0,0.0483,optionLeft,80,6945,3,39,0,39,0,1,,,,,,,,,,,,,,,,,,,,,,,,,,,,,,,,,,,,,,,
,,,,,,,642ee08bca2effffc9e754e2,2023-08-16_08h49.36.689,HF_wild_card,2022.2.4,Win32,60.01680471,642ee08bca2effffc9e754e2,64d2fd46c836a06233681665,64dc7f5b0fbb9d085cd3cdd3,,,,,,,decisionTrl,resources/DP.BMP,resources/DBN.BMP,Door4,0.265740741,-0.032407407,1,0,0,1.8651,optionRight,80,7025,3,40,0,40,0,1,,,,,,,,,,,,,,,,,,,,,,,,,,,,,,,,,,,,,,,
,,,,,,,642ee08bca2effffc9e754e2,2023-08-16_08h49.36.689,HF_wild_card,2022.2.4,Win32,60.01680471,642ee08bca2effffc9e754e2,64d2fd46c836a06233681665,64dc7f5b0fbb9d085cd3cdd3,,,,,,,decisionTrl,resources/DBN.BMP,resources/DR.BMP,Door4,-0.194444444,0.02037037,1,0,0,2.2304,optionLeft,60,7085,3,41,0,41,0,1,,,,,,,,,,,,,,,,,,,,,,,,,,,,,,,,,,,,,,,
,,,,,,,642ee08bca2effffc9e754e2,2023-08-16_08h49.36.689,HF_wild_card,2022.2.4,Win32,60.01680471,642ee08bca2effffc9e754e2,64d2fd46c836a06233681665,64dc7f5b0fbb9d085cd3cdd3,,,,,,,sngl,resources/DB.BMP,resources/Empty.png,Door2,-0.231481481,-0.007407407,1,0,0,1.5631,optionLeft,40,7125,3,42,0,42,0,1,,,,,,,,,,,,,,,,,,,,,,,,,,,,,,,,,,,,,,,
,,,,,,,642ee08bca2effffc9e754e2,2023-08-16_08h49.36.689,HF_wild_card,2022.2.4,Win32,60.01680471,642ee08bca2effffc9e754e2,64d2fd46c836a06233681665,64dc7f5b0fbb9d085cd3cdd3,,,,,,,sngl,resources/DP.BMP,resources/Empty.png,WildCard_NonEx,-0.199074074,-0.07037037,1,0,0,0.8682,optionLeft,45,7170,3,43,0,43,0,1,,,,,,,,,,,,,,,,,,,,,,,,,,,,,,,,,,,,,,,
,,,,,,,642ee08bca2effffc9e754e2,2023-08-16_08h49.36.689,HF_wild_card,2022.2.4,Win32,60.01680471,642ee08bca2effffc9e754e2,64d2fd46c836a06233681665,64dc7f5b0fbb9d085cd3cdd3,,,,,,,,,,,,,,,,,,,,,,,,,,2,0,2,0,1,,,,,,,,,,,,,,,,,,,,,,,,,,,,,,,,,,
,,,,,,,642ee08bca2effffc9e754e2,2023-08-16_08h49.36.689,HF_wild_card,2022.2.4,Win32,60.01680471,642ee08bca2effffc9e754e2,64d2fd46c836a06233681665,64dc7f5b0fbb9d085cd3cdd3,,,,,,,decisionTrl,resources/DY.BMP,resources/DB.BMP,Door1,-0.181481481,-0.067592593,1,0,0,1.8941,optionLeft,30,7200,4,0,0,0,0,1,,,,,,,,,,,,,,,,,,,,,,,,,,,,,,,,,,,,,,,
,,,,,,,642ee08bca2effffc9e754e2,2023-08-16_08h49.36.689,HF_wild_card,2022.2.4,Win32,60.01680471,642ee08bca2effffc9e754e2,64d2fd46c836a06233681665,64dc7f5b0fbb9d085cd3cdd3,,,,,,,decisionTrl,resources/DR.BMP,resources/DBN.BMP,Door4,0.309259259,0.069444444,1,0,0,1.4417,optionRight,80,7280,4,1,0,1,0,1,,,,,,,,,,,,,,,,,,,,,,,,,,,,,,,,,,,,,,,
,,,,,,,642ee08bca2effffc9e754e2,2023-08-16_08h49.36.689,HF_wild_card,2022.2.4,Win32,60.01680471,642ee08bca2effffc9e754e2,64d2fd46c836a06233681665,64dc7f5b0fbb9d085cd3cdd3,,,,,,,ctch,resources/DY.BMP,resources/DBN.BMP,Door4,0.298148148,0.043518519,1,0,0,1.3866,optionRight,80,7360,4,2,0,2,0,1,,,,,,,,,,,,,,,,,,,,,,,,,,,,,,,,,,,,,,,
,,,,,,,642ee08bca2effffc9e754e2,2023-08-16_08h49.36.689,HF_wild_card,2022.2.4,Win32,60.01680471,642ee08bca2effffc9e754e2,64d2fd46c836a06233681665,64dc7f5b0fbb9d085cd3cdd3,,,,,,,decisionTrl,resources/DBN.BMP,resources/DR.BMP,Door3,0.222222222,0.047222222,1,0,0,2.2534,optionRight,70,7430,4,3,0,3,0,1,,,,,,,,,,,,,,,,,,,,,,,,,,,,,,,,,,,,,,,
,,,,,,,642ee08bca2effffc9e754e2,2023-08-16_08h49.36.689,HF_wild_card,2022.2.4,Win32,60.01680471,642ee08bca2effffc9e754e2,64d2fd46c836a06233681665,64dc7f5b0fbb9d085cd3cdd3,,,,,,,sngl,resources/Empty.png,resources/DG.BMP,WildCard_Ex,0.393518519,-0.023148148,1,0,0,1.4816,optionRight,95,7525,4,4,0,4,0,1,,,,,,,,,,,,,,,,,,,,,,,,,,,,,,,,,,,,,,,
,,,,,,,642ee08bca2effffc9e754e2,2023-08-16_08h49.36.689,HF_wild_card,2022.2.4,Win32,60.01680471,642ee08bca2effffc9e754e2,64d2fd46c836a06233681665,64dc7f5b0fbb9d085cd3cdd3,,,,,,,sngl,resources/Empty.png,resources/DR.BMP,Door3,0.313888889,-0.047222222,1,0,0,1.0543,optionRight,70,7595,4,5,0,5,0,1,,,,,,,,,,,,,,,,,,,,,,,,,,,,,,,,,,,,,,,
,,,,,,,642ee08bca2effffc9e754e2,2023-08-16_08h49.36.689,HF_wild_card,2022.2.4,Win32,60.01680471,642ee08bca2effffc9e754e2,64d2fd46c836a06233681665,64dc7f5b0fbb9d085cd3cdd3,,,,,,,ctch,resources/DB.BMP,resources/DR.BMP,Door3,-0.00462963,0.009259259,1,0,0,0.0403,optionRight,70,7665,4,6,0,6,0,1,,,,,,,,,,,,,,,,,,,,,,,,,,,,,,,,,,,,,,,
,,,,,,,642ee08bca2effffc9e754e2,2023-08-16_08h49.36.689,HF_wild_card,2022.2.4,Win32,60.01680471,642ee08bca2effffc9e754e2,64d2fd46c836a06233681665,64dc7f5b0fbb9d085cd3cdd3,,,,,,,decisionTrl,resources/DR.BMP,resources/DBN.BMP,Door4,0.22962963,-0.014814815,1,0,0,1.6899,optionRight,80,7745,4,7,0,7,0,1,,,,,,,,,,,,,,,,,,,,,,,,,,,,,,,,,,,,,,,
,,,,,,,642ee08bca2effffc9e754e2,2023-08-16_08h49.36.689,HF_wild_card,2022.2.4,Win32,60.01680471,642ee08bca2effffc9e754e2,64d2fd46c836a06233681665,64dc7f5b0fbb9d085cd3cdd3,,,,,,,decisionTrl,resources/DY.BMP,resources/DB.BMP,Door1,-0.299074074,0.051851852,1,0,0,1.6315,optionLeft,30,7775,4,8,0,8,0,1,,,,,,,,,,,,,,,,,,,,,,,,,,,,,,,,,,,,,,,
,,,,,,,642ee08bca2effffc9e754e2,2023-08-16_08h49.36.689,HF_wild_card,2022.2.4,Win32,60.01680471,642ee08bca2effffc9e754e2,64d2fd46c836a06233681665,64dc7f5b0fbb9d085cd3cdd3,,,,,,,sngl,resources/Empty.png,resources/DB.BMP,Door2,0.334259259,-0.041666667,1,0,0,1.0471,optionRight,40,7815,4,9,0,9,0,1,,,,,,,,,,,,,,,,,,,,,,,,,,,,,,,,,,,,,,,
,,,,,,,642ee08bca2effffc9e754e2,2023-08-16_08h49.36.689,HF_wild_card,2022.2.4,Win32,60.01680471,642ee08bca2effffc9e754e2,64d2fd46c836a06233681665,64dc7f5b0fbb9d085cd3cdd3,,,,,,,ctch,resources/DR.BMP,resources/DB.BMP,Door3,-0.275,0.056481481,1,0,0,3.0638,optionLeft,70,7885,4,10,0,10,0,1,,,,,,,,,,,,,,,,,,,,,,,,,,,,,,,,,,,,,,,
,,,,,,,642ee08bca2effffc9e754e2,2023-08-16_08h49.36.689,HF_wild_card,2022.2.4,Win32,60.01680471,642ee08bca2effffc9e754e2,64d2fd46c836a06233681665,64dc7f5b0fbb9d085cd3cdd3,,,,,,,decisionTrl,resources/DB.BMP,resources/DY.BMP,Door1,-0.010185185,-0.003703704,1,0,0,0.0558,optionRight,30,7915,4,11,0,11,0,1,,,,,,,,,,,,,,,,,,,,,,,,,,,,,,,,,,,,,,,
,,,,,,,642ee08bca2effffc9e754e2,2023-08-16_08h49.36.689,HF_wild_card,2022.2.4,Win32,60.01680471,642ee08bca2effffc9e754e2,64d2fd46c836a06233681665,64dc7f5b0fbb9d085cd3cdd3,,,,,,,decisionTrl,resources/DB.BMP,resources/DY.BMP,Door1,0.390740741,0.071296296,1,0,0,1.3976,optionRight,30,7945,4,12,0,12,0,1,,,,,,,,,,,,,,,,,,,,,,,,,,,,,,,,,,,,,,,
,,,,,,,642ee08bca2effffc9e754e2,2023-08-16_08h49.36.689,HF_wild_card,2022.2.4,Win32,60.01680471,642ee08bca2effffc9e754e2,64d2fd46c836a06233681665,64dc7f5b0fbb9d085cd3cdd3,,,,,,,decisionTrl,resources/DR.BMP,resources/DG.BMP,WildCard_Ex,0.001851852,0.002777778,1,0,0,0.0755,optionRight,5,7950,4,13,0,13,0,1,,,,,,,,,,,,,,,,,,,,,,,,,,,,,,,,,,,,,,,
,,,,,,,642ee08bca2effffc9e754e2,2023-08-16_08h49.36.689,HF_wild_card,2022.2.4,Win32,60.01680471,642ee08bca2effffc9e754e2,64d2fd46c836a06233681665,64dc7f5b0fbb9d085cd3cdd3,,,,,,,ctch,resources/DBN.BMP,resources/DY.BMP,Door4,0.007407407,0.007407407,1,0,0,0.0798,optionLeft,80,8030,4,14,0,14,0,1,,,,,,,,,,,,,,,,,,,,,,,,,,,,,,,,,,,,,,,
,,,,,,,642ee08bca2effffc9e754e2,2023-08-16_08h49.36.689,HF_wild_card,2022.2.4,Win32,60.01680471,642ee08bca2effffc9e754e2,64d2fd46c836a06233681665,64dc7f5b0fbb9d085cd3cdd3,,,,,,,decisionTrl,resources/DG.BMP,resources/DR.BMP,WildCard_Ex,-0.289814815,0.060185185,1,0,0,1.9652,optionLeft,5,8035,4,15,0,15,0,1,,,,,,,,,,,,,,,,,,,,,,,,,,,,,,,,,,,,,,,
,,,,,,,642ee08bca2effffc9e754e2,2023-08-16_08h49.36.689,HF_wild_card,2022.2.4,Win32,60.01680471,642ee08bca2effffc9e754e2,64d2fd46c836a06233681665,64dc7f5b0fbb9d085cd3cdd3,,,,,,,ctch,resources/DB.BMP,resources/DR.BMP,Door3,0.353703704,-0.019444444,1,0,0,1.8319,optionRight,70,8105,4,16,0,16,0,1,,,,,,,,,,,,,,,,,,,,,,,,,,,,,,,,,,,,,,,
,,,,,,,642ee08bca2effffc9e754e2,2023-08-16_08h49.36.689,HF_wild_card,2022.2.4,Win32,60.01680471,642ee08bca2effffc9e754e2,64d2fd46c836a06233681665,64dc7f5b0fbb9d085cd3cdd3,,,,,,,sngl,resources/Empty.png,resources/DY.BMP,Door1,0.189814815,-0.010185185,1,0,0,1.0802,optionRight,30,8135,4,17,0,17,0,1,,,,,,,,,,,,,,,,,,,,,,,,,,,,,,,,,,,,,,,
,,,,,,,642ee08bca2effffc9e754e2,2023-08-16_08h49.36.689,HF_wild_card,2022.2.4,Win32,60.01680471,642ee08bca2effffc9e754e2,64d2fd46c836a06233681665,64dc7f5b0fbb9d085cd3cdd3,,,,,,,decisionTrl,resources/DB.BMP,resources/DY.BMP,Door1,-0.002777778,-0.002777778,1,0,0,0.0391,optionRight,30,8165,4,18,0,18,0,1,,,,,,,,,,,,,,,,,,,,,,,,,,,,,,,,,,,,,,,
,,,,,,,642ee08bca2effffc9e754e2,2023-08-16_08h49.36.689,HF_wild_card,2022.2.4,Win32,60.01680471,642ee08bca2effffc9e754e2,64d2fd46c836a06233681665,64dc7f5b0fbb9d085cd3cdd3,,,,,,,sngl,resources/Empty.png,resources/DG.BMP,WildCard_Ex,0.010185185,-0.001851852,1,0,0,0.078,optionRight,5,8170,4,19,0,19,0,1,,,,,,,,,,,,,,,,,,,,,,,,,,,,,,,,,,,,,,,
,,,,,,,642ee08bca2effffc9e754e2,2023-08-16_08h49.36.689,HF_wild_card,2022.2.4,Win32,60.01680471,642ee08bca2effffc9e754e2,64d2fd46c836a06233681665,64dc7f5b0fbb9d085cd3cdd3,,,,,,,decisionTrl,resources/DY.BMP,resources/DB.BMP,Door1,-0.17037037,-0.061111111,1,0,0,2.4094,optionLeft,30,8200,4,20,0,20,0,1,,,,,,,,,,,,,,,,,,,,,,,,,,,,,,,,,,,,,,,
,,,,,,,642ee08bca2effffc9e754e2,2023-08-16_08h49.36.689,HF_wild_card,2022.2.4,Win32,60.01680471,642ee08bca2effffc9e754e2,64d2fd46c836a06233681665,64dc7f5b0fbb9d085cd3cdd3,,,,,,,sngl,resources/DR.BMP,resources/Empty.png,Door3,-0.187962963,0.057407407,1,0,0,1.2479,optionLeft,70,8270,4,21,0,21,0,1,,,,,,,,,,,,,,,,,,,,,,,,,,,,,,,,,,,,,,,
,,,,,,,642ee08bca2effffc9e754e2,2023-08-16_08h49.36.689,HF_wild_card,2022.2.4,Win32,60.01680471,642ee08bca2effffc9e754e2,64d2fd46c836a06233681665,64dc7f5b0fbb9d085cd3cdd3,,,,,,,sngl,resources/DY.BMP,resources/Empty.png,Door1,0.010185185,-0.006481481,1,0,0,0.0381,optionLeft,30,8300,4,22,0,22,0,1,,,,,,,,,,,,,,,,,,,,,,,,,,,,,,,,,,,,,,,
,,,,,,,642ee08bca2effffc9e754e2,2023-08-16_08h49.36.689,HF_wild_card,2022.2.4,Win32,60.01680471,642ee08bca2effffc9e754e2,64d2fd46c836a06233681665,64dc7f5b0fbb9d085cd3cdd3,,,,,,,decisionTrl,resources/DB.BMP,resources/DY.BMP,Door1,0.269444444,0.125925926,1,0,0,1.5804,optionRight,30,8330,4,23,0,23,0,1,,,,,,,,,,,,,,,,,,,,,,,,,,,,,,,,,,,,,,,
,,,,,,,642ee08bca2effffc9e754e2,2023-08-16_08h49.36.689,HF_wild_card,2022.2.4,Win32,60.01680471,642ee08bca2effffc9e754e2,64d2fd46c836a06233681665,64dc7f5b0fbb9d085cd3cdd3,,,,,,,sngl,resources/DB.BMP,resources/Empty.png,Door2,-0.337962963,0.021296296,1,0,0,1.4305,optionLeft,20,8350,4,24,0,24,0,1,,,,,,,,,,,,,,,,,,,,,,,,,,,,,,,,,,,,,,,
,,,,,,,642ee08bca2effffc9e754e2,2023-08-16_08h49.36.689,HF_wild_card,2022.2.4,Win32,60.01680471,642ee08bca2effffc9e754e2,64d2fd46c836a06233681665,64dc7f5b0fbb9d085cd3cdd3,,,,,,,decisionTrl,resources/DY.BMP,resources/DG.BMP,Door1,-0.364814815,0.012037037,1,0,0,1.5299,optionLeft,30,8380,4,25,0,25,0,1,,,,,,,,,,,,,,,,,,,,,,,,,,,,,,,,,,,,,,,
,,,,,,,642ee08bca2effffc9e754e2,2023-08-16_08h49.36.689,HF_wild_card,2022.2.4,Win32,60.01680471,642ee08bca2effffc9e754e2,64d2fd46c836a06233681665,64dc7f5b0fbb9d085cd3cdd3,,,,,,,ctch,resources/DY.BMP,resources/DBN.BMP,Door4,0.336111111,0.028703704,1,0,0,1.1812,optionRight,80,8460,4,26,0,26,0,1,,,,,,,,,,,,,,,,,,,,,,,,,,,,,,,,,,,,,,,
,,,,,,,642ee08bca2effffc9e754e2,2023-08-16_08h49.36.689,HF_wild_card,2022.2.4,Win32,60.01680471,642ee08bca2effffc9e754e2,64d2fd46c836a06233681665,64dc7f5b0fbb9d085cd3cdd3,,,,,,,decisionTrl,resources/DG.BMP,resources/DY.BMP,WildCard_Ex,-0.376851852,0.032407407,1,0,0,1.6596,optionLeft,5,8465,4,27,0,27,0,1,,,,,,,,,,,,,,,,,,,,,,,,,,,,,,,,,,,,,,,
,,,,,,,642ee08bca2effffc9e754e2,2023-08-16_08h49.36.689,HF_wild_card,2022.2.4,Win32,60.01680471,642ee08bca2effffc9e754e2,64d2fd46c836a06233681665,64dc7f5b0fbb9d085cd3cdd3,,,,,,,decisionTrl,resources/DBN.BMP,resources/DR.BMP,Door4,-0.203703704,0.043518519,1,0,0,1.6151,optionLeft,80,8545,4,28,0,28,0,1,,,,,,,,,,,,,,,,,,,,,,,,,,,,,,,,,,,,,,,
,,,,,,,642ee08bca2effffc9e754e2,2023-08-16_08h49.36.689,HF_wild_card,2022.2.4,Win32,60.01680471,642ee08bca2effffc9e754e2,64d2fd46c836a06233681665,64dc7f5b0fbb9d085cd3cdd3,,,,,,,ctch,resources/DBN.BMP,resources/DY.BMP,Door4,-0.366666667,0.060185185,1,0,0,1.6249,optionLeft,60,8605,4,29,0,29,0,1,,,,,,,,,,,,,,,,,,,,,,,,,,,,,,,,,,,,,,,
,,,,,,,642ee08bca2effffc9e754e2,2023-08-16_08h49.36.689,HF_wild_card,2022.2.4,Win32,60.01680471,642ee08bca2effffc9e754e2,64d2fd46c836a06233681665,64dc7f5b0fbb9d085cd3cdd3,,,,,,,decisionTrl,resources/DR.BMP,resources/DBN.BMP,Door4,0.002777778,0.00462963,1,0,0,0.0818,optionRight,60,8665,4,30,0,30,0,1,,,,,,,,,,,,,,,,,,,,,,,,,,,,,,,,,,,,,,,
,,,,,,,642ee08bca2effffc9e754e2,2023-08-16_08h49.36.689,HF_wild_card,2022.2.4,Win32,60.01680471,642ee08bca2effffc9e754e2,64d2fd46c836a06233681665,64dc7f5b0fbb9d085cd3cdd3,,,,,,,sngl,resources/DBN.BMP,resources/Empty.png,Door4,0.003703704,0.007407407,1,0,0,0.0815,optionLeft,60,8725,4,31,0,31,0,1,,,,,,,,,,,,,,,,,,,,,,,,,,,,,,,,,,,,,,,
,,,,,,,642ee08bca2effffc9e754e2,2023-08-16_08h49.36.689,HF_wild_card,2022.2.4,Win32,60.01680471,642ee08bca2effffc9e754e2,64d2fd46c836a06233681665,64dc7f5b0fbb9d085cd3cdd3,,,,,,,sngl,resources/DG.BMP,resources/Empty.png,WildCard_Ex,-0.266666667,-0.064814815,1,0,0,1.1329,optionLeft,5,8730,4,32,0,32,0,1,,,,,,,,,,,,,,,,,,,,,,,,,,,,,,,,,,,,,,,
,,,,,,,642ee08bca2effffc9e754e2,2023-08-16_08h49.36.689,HF_wild_card,2022.2.4,Win32,60.01680471,642ee08bca2effffc9e754e2,64d2fd46c836a06233681665,64dc7f5b0fbb9d085cd3cdd3,,,,,,,decisionTrl,resources/DB.BMP,resources/DG.BMP,WildCard_Ex,0.471296296,0.118518519,1,0,0,1.6316,optionRight,95,8825,4,33,0,33,0,1,,,,,,,,,,,,,,,,,,,,,,,,,,,,,,,,,,,,,,,
,,,,,,,642ee08bca2effffc9e754e2,2023-08-16_08h49.36.689,HF_wild_card,2022.2.4,Win32,60.01680471,642ee08bca2effffc9e754e2,64d2fd46c836a06233681665,64dc7f5b0fbb9d085cd3cdd3,,,,,,,ctch,resources/DR.BMP,resources/DB.BMP,Door3,-0.274074074,0.043518519,1,0,0,1.8315,optionLeft,70,8895,4,34,0,34,0,1,,,,,,,,,,,,,,,,,,,,,,,,,,,,,,,,,,,,,,,
,,,,,,,642ee08bca2effffc9e754e2,2023-08-16_08h49.36.689,HF_wild_card,2022.2.4,Win32,60.01680471,642ee08bca2effffc9e754e2,64d2fd46c836a06233681665,64dc7f5b0fbb9d085cd3cdd3,,,,,,,decisionTrl,resources/DR.BMP,resources/DBN.BMP,Door4,0.002777778,-0.009259259,1,0,0,0.04,optionRight,60,8955,4,35,0,35,0,1,,,,,,,,,,,,,,,,,,,,,,,,,,,,,,,,,,,,,,,
,,,,,,,642ee08bca2effffc9e754e2,2023-08-16_08h49.36.689,HF_wild_card,2022.2.4,Win32,60.01680471,642ee08bca2effffc9e754e2,64d2fd46c836a06233681665,64dc7f5b0fbb9d085cd3cdd3,,,,,,,decisionTrl,resources/DY.BMP,resources/DB.BMP,Door1,0.00462963,0.012037037,1,0,0,0.0382,optionLeft,30,8985,4,36,0,36,0,1,,,,,,,,,,,,,,,,,,,,,,,,,,,,,,,,,,,,,,,
,,,,,,,642ee08bca2effffc9e754e2,2023-08-16_08h49.36.689,HF_wild_card,2022.2.4,Win32,60.01680471,642ee08bca2effffc9e754e2,64d2fd46c836a06233681665,64dc7f5b0fbb9d085cd3cdd3,,,,,,,decisionTrl,resources/DBN.BMP,resources/DG.BMP,WildCard_Ex,-0.006481481,-0.002777778,1,0,0,0.0634,optionRight,95,9080,4,37,0,37,0,1,,,,,,,,,,,,,,,,,,,,,,,,,,,,,,,,,,,,,,,
,,,,,,,642ee08bca2effffc9e754e2,2023-08-16_08h49.36.689,HF_wild_card,2022.2.4,Win32,60.01680471,642ee08bca2effffc9e754e2,64d2fd46c836a06233681665,64dc7f5b0fbb9d085cd3cdd3,,,,,,,decisionTrl,resources/DBN.BMP,resources/DR.BMP,Door3,0.377777778,0.07962963,1,0,0,1.6187,optionRight,70,9150,4,38,0,38,0,1,,,,,,,,,,,,,,,,,,,,,,,,,,,,,,,,,,,,,,,
,,,,,,,642ee08bca2effffc9e754e2,2023-08-16_08h49.36.689,HF_wild_card,2022.2.4,Win32,60.01680471,642ee08bca2effffc9e754e2,64d2fd46c836a06233681665,64dc7f5b0fbb9d085cd3cdd3,,,,,,,sngl,resources/Empty.png,resources/DBN.BMP,Door4,0.341666667,0.064814815,1,0,0,0.9981,optionRight,80,9230,4,39,0,39,0,1,,,,,,,,,,,,,,,,,,,,,,,,,,,,,,,,,,,,,,,
,,,,,,,642ee08bca2effffc9e754e2,2023-08-16_08h49.36.689,HF_wild_card,2022.2.4,Win32,60.01680471,642ee08bca2effffc9e754e2,64d2fd46c836a06233681665,64dc7f5b0fbb9d085cd3cdd3,,,,,,,decisionTrl,resources/DG.BMP,resources/DBN.BMP,Door4,0.34537037,0.087037037,1,0,0,1.5467,optionRight,80,9310,4,40,0,40,0,1,,,,,,,,,,,,,,,,,,,,,,,,,,,,,,,,,,,,,,,
,,,,,,,642ee08bca2effffc9e754e2,2023-08-16_08h49.36.689,HF_wild_card,2022.2.4,Win32,60.01680471,642ee08bca2effffc9e754e2,64d2fd46c836a06233681665,64dc7f5b0fbb9d085cd3cdd3,,,,,,,sngl,resources/DG.BMP,resources/Empty.png,WildCard_Ex,0.006481481,0.013888889,1,0,0,0.037,optionLeft,95,9405,4,41,0,41,0,1,,,,,,,,,,,,,,,,,,,,,,,,,,,,,,,,,,,,,,,
,,,,,,,642ee08bca2effffc9e754e2,2023-08-16_08h49.36.689,HF_wild_card,2022.2.4,Win32,60.01680471,642ee08bca2effffc9e754e2,64d2fd46c836a06233681665,64dc7f5b0fbb9d085cd3cdd3,,,,,,,decisionTrl,resources/DG.BMP,resources/DB.BMP,WildCard_Ex,-0.311111111,0.025,1,0,0,1.6946,optionLeft,5,9410,4,42,0,42,0,1,,,,,,,,,,,,,,,,,,,,,,,,,,,,,,,,,,,,,,,
,,,,,,,642ee08bca2effffc9e754e2,2023-08-16_08h49.36.689,HF_wild_card,2022.2.4,Win32,60.01680471,642ee08bca2effffc9e754e2,64d2fd46c836a06233681665,64dc7f5b0fbb9d085cd3cdd3,,,,,,,decisionTrl,resources/DBN.BMP,resources/DR.BMP,Door3,-0.00462963,0.000925926,1,0,0,0.0373,optionRight,70,9480,4,43,0,43,0,1,,,,,,,,,,,,,,,,,,,,,,,,,,,,,,,,,,,,,,,
,,,,,,,642ee08bca2effffc9e754e2,2023-08-16_08h49.36.689,HF_wild_card,2022.2.4,Win32,60.01680471,642ee08bca2effffc9e754e2,64d2fd46c836a06233681665,64dc7f5b0fbb9d085cd3cdd3,,,,,,,,,,,,,,,,,,,,,,,,,,3,0,3,0,1,,,,,,,,,,,,,,,,,,,,,,,,,,,,,,,,,,
,,,,,,,642ee08bca2effffc9e754e2,2023-08-16_08h49.36.689,HF_wild_card,2022.2.4,Win32,60.01680471,642ee08bca2effffc9e754e2,64d2fd46c836a06233681665,64dc7f5b0fbb9d085cd3cdd3,,,,,,,decisionTrl,resources/DY.BMP,resources/DB.BMP,Door1,-0.286111111,-0.009259259,1,0,0,1.5936,optionLeft,30,9510,5,0,0,0,0,1,,,,,,,,,,,,,,,,,,,,,,,,,,,,,,,,,,,,,,,
,,,,,,,642ee08bca2effffc9e754e2,2023-08-16_08h49.36.689,HF_wild_card,2022.2.4,Win32,60.01680471,642ee08bca2effffc9e754e2,64d2fd46c836a06233681665,64dc7f5b0fbb9d085cd3cdd3,,,,,,,decisionTrl,resources/DY.BMP,resources/DB.BMP,Door2,0.363888889,0.05462963,1,0,0,2.4307,optionRight,20,9530,5,1,0,1,0,1,,,,,,,,,,,,,,,,,,,,,,,,,,,,,,,,,,,,,,,
,,,,,,,642ee08bca2effffc9e754e2,2023-08-16_08h49.36.689,HF_wild_card,2022.2.4,Win32,60.01680471,642ee08bca2effffc9e754e2,64d2fd46c836a06233681665,64dc7f5b0fbb9d085cd3cdd3,,,,,,,decisionTrl,resources/DB.BMP,resources/DY.BMP,Door1,0.427777778,0.009259259,1,0,0,1.5291,optionRight,30,9560,5,2,0,2,0,1,,,,,,,,,,,,,,,,,,,,,,,,,,,,,,,,,,,,,,,
,,,,,,,642ee08bca2effffc9e754e2,2023-08-16_08h49.36.689,HF_wild_card,2022.2.4,Win32,60.01680471,642ee08bca2effffc9e754e2,64d2fd46c836a06233681665,64dc7f5b0fbb9d085cd3cdd3,,,,,,,decisionTrl,resources/DG.BMP,resources/DY.BMP,Door1,0.311111111,-0.003703704,1,0,0,2.0807,optionRight,30,9590,5,3,0,3,0,1,,,,,,,,,,,,,,,,,,,,,,,,,,,,,,,,,,,,,,,
,,,,,,,642ee08bca2effffc9e754e2,2023-08-16_08h49.36.689,HF_wild_card,2022.2.4,Win32,60.01680471,642ee08bca2effffc9e754e2,64d2fd46c836a06233681665,64dc7f5b0fbb9d085cd3cdd3,,,,,,,ctch,resources/DR.BMP,resources/DB.BMP,Door3,-0.311111111,0.014814815,1,0,0,1.6805,optionLeft,70,9660,5,4,0,4,0,1,,,,,,,,,,,,,,,,,,,,,,,,,,,,,,,,,,,,,,,
,,,,,,,642ee08bca2effffc9e754e2,2023-08-16_08h49.36.689,HF_wild_card,2022.2.4,Win32,60.01680471,642ee08bca2effffc9e754e2,64d2fd46c836a06233681665,64dc7f5b0fbb9d085cd3cdd3,,,,,,,ctch,resources/DB.BMP,resources/DR.BMP,Door3,0.290740741,0.005555556,1,0,0,1.6631,optionRight,70,9730,5,5,0,5,0,1,,,,,,,,,,,,,,,,,,,,,,,,,,,,,,,,,,,,,,,
,,,,,,,642ee08bca2effffc9e754e2,2023-08-16_08h49.36.689,HF_wild_card,2022.2.4,Win32,60.01680471,642ee08bca2effffc9e754e2,64d2fd46c836a06233681665,64dc7f5b0fbb9d085cd3cdd3,,,,,,,sngl,resources/Empty.png,resources/DY.BMP,Door1,0.372222222,-0.061111111,1,0,0,0.8636,optionRight,30,9760,5,6,0,6,0,1,,,,,,,,,,,,,,,,,,,,,,,,,,,,,,,,,,,,,,,
,,,,,,,642ee08bca2effffc9e754e2,2023-08-16_08h49.36.689,HF_wild_card,2022.2.4,Win32,60.01680471,642ee08bca2effffc9e754e2,64d2fd46c836a06233681665,64dc7f5b0fbb9d085cd3cdd3,,,,,,,decisionTrl,resources/DB.BMP,resources/DG.BMP,WildCard_Ex,-0.00462963,0.002777778,1,0,0,0.0483,optionRight,5,9765,5,7,0,7,0,1,,,,,,,,,,,,,,,,,,,,,,,,,,,,,,,,,,,,,,,
,,,,,,,642ee08bca2effffc9e754e2,2023-08-16_08h49.36.689,HF_wild_card,2022.2.4,Win32,60.01680471,642ee08bca2effffc9e754e2,64d2fd46c836a06233681665,64dc7f5b0fbb9d085cd3cdd3,,,,,,,sngl,resources/Empty.png,resources/DBN.BMP,Door4,0.471296296,-0.016666667,1,0,0,0.9902,optionRight,60,9825,5,8,0,8,0,1,,,,,,,,,,,,,,,,,,,,,,,,,,,,,,,,,,,,,,,
,,,,,,,642ee08bca2effffc9e754e2,2023-08-16_08h49.36.689,HF_wild_card,2022.2.4,Win32,60.01680471,642ee08bca2effffc9e754e2,64d2fd46c836a06233681665,64dc7f5b0fbb9d085cd3cdd3,,,,,,,sngl,resources/DBN.BMP,resources/Empty.png,Door4,-0.333333333,-0.024074074,1,0,0,0.9909,optionLeft,80,9905,5,9,0,9,0,1,,,,,,,,,,,,,,,,,,,,,,,,,,,,,,,,,,,,,,,
,,,,,,,642ee08bca2effffc9e754e2,2023-08-16_08h49.36.689,HF_wild_card,2022.2.4,Win32,60.01680471,642ee08bca2effffc9e754e2,64d2fd46c836a06233681665,64dc7f5b0fbb9d085cd3cdd3,,,,,,,sngl,resources/Empty.png,resources/DR.BMP,Door3,0.312962963,-0.036111111,1,0,0,1.4754,optionRight,70,9975,5,10,0,10,0,1,,,,,,,,,,,,,,,,,,,,,,,,,,,,,,,,,,,,,,,
,,,,,,,642ee08bca2effffc9e754e2,2023-08-16_08h49.36.689,HF_wild_card,2022.2.4,Win32,60.01680471,642ee08bca2effffc9e754e2,64d2fd46c836a06233681665,64dc7f5b0fbb9d085cd3cdd3,,,,,,,decisionTrl,resources/DBN.BMP,resources/DR.BMP,Door4,-0.272222222,0.10462963,1,0,0,2.0636,optionLeft,60,10035,5,11,0,11,0,1,,,,,,,,,,,,,,,,,,,,,,,,,,,,,,,,,,,,,,,
,,,,,,,642ee08bca2effffc9e754e2,2023-08-16_08h49.36.689,HF_wild_card,2022.2.4,Win32,60.01680471,642ee08bca2effffc9e754e2,64d2fd46c836a06233681665,64dc7f5b0fbb9d085cd3cdd3,,,,,,,decisionTrl,resources/DG.BMP,resources/DR.BMP,WildCard_Ex,-0.237962963,0.051851852,1,0,0,1.9752,optionLeft,5,10040,5,12,0,12,0,1,,,,,,,,,,,,,,,,,,,,,,,,,,,,,,,,,,,,,,,
,,,,,,,642ee08bca2effffc9e754e2,2023-08-16_08h49.36.689,HF_wild_card,2022.2.4,Win32,60.01680471,642ee08bca2effffc9e754e2,64d2fd46c836a06233681665,64dc7f5b0fbb9d085cd3cdd3,,,,,,,decisionTrl,resources/DR.BMP,resources/DBN.BMP,Door4,0.316666667,0.010185185,1,0,0,1.071,optionRight,60,10100,5,13,0,13,0,1,,,,,,,,,,,,,,,,,,,,,,,,,,,,,,,,,,,,,,,
,,,,,,,642ee08bca2effffc9e754e2,2023-08-16_08h49.36.689,HF_wild_card,2022.2.4,Win32,60.01680471,642ee08bca2effffc9e754e2,64d2fd46c836a06233681665,64dc7f5b0fbb9d085cd3cdd3,,,,,,,decisionTrl,resources/DG.BMP,resources/DB.BMP,Door2,0.352777778,0.028703704,1,0,0,2.0209,optionRight,20,10120,5,14,0,14,0,1,,,,,,,,,,,,,,,,,,,,,,,,,,,,,,,,,,,,,,,
,,,,,,,642ee08bca2effffc9e754e2,2023-08-16_08h49.36.689,HF_wild_card,2022.2.4,Win32,60.01680471,642ee08bca2effffc9e754e2,64d2fd46c836a06233681665,64dc7f5b0fbb9d085cd3cdd3,,,,,,,decisionTrl,resources/DB.BMP,resources/DY.BMP,Door1,0.296296296,-0.002777778,1,0,0,1.7887,optionRight,30,10150,5,15,0,15,0,1,,,,,,,,,,,,,,,,,,,,,,,,,,,,,,,,,,,,,,,
,,,,,,,642ee08bca2effffc9e754e2,2023-08-16_08h49.36.689,HF_wild_card,2022.2.4,Win32,60.01680471,642ee08bca2effffc9e754e2,64d2fd46c836a06233681665,64dc7f5b0fbb9d085cd3cdd3,,,,,,,decisionTrl,resources/DR.BMP,resources/DG.BMP,WildCard_Ex,0.275925926,0.013888889,1,0,0,1.8792,optionRight,5,10155,5,16,0,16,0,1,,,,,,,,,,,,,,,,,,,,,,,,,,,,,,,,,,,,,,,
,,,,,,,642ee08bca2effffc9e754e2,2023-08-16_08h49.36.689,HF_wild_card,2022.2.4,Win32,60.01680471,642ee08bca2effffc9e754e2,64d2fd46c836a06233681665,64dc7f5b0fbb9d085cd3cdd3,,,,,,,decisionTrl,resources/DBN.BMP,resources/DR.BMP,Door4,-0.256481481,0.032407407,1,0,0,1.9971,optionLeft,80,10235,5,17,0,17,0,1,,,,,,,,,,,,,,,,,,,,,,,,,,,,,,,,,,,,,,,
,,,,,,,642ee08bca2effffc9e754e2,2023-08-16_08h49.36.689,HF_wild_card,2022.2.4,Win32,60.01680471,642ee08bca2effffc9e754e2,64d2fd46c836a06233681665,64dc7f5b0fbb9d085cd3cdd3,,,,,,,sngl,resources/DG.BMP,resources/Empty.png,WildCard_Ex,-0.366666667,-0.031481481,1,0,0,0.8633,optionLeft,5,10240,5,18,0,18,0,1,,,,,,,,,,,,,,,,,,,,,,,,,,,,,,,,,,,,,,,
,,,,,,,642ee08bca2effffc9e754e2,2023-08-16_08h49.36.689,HF_wild_card,2022.2.4,Win32,60.01680471,642ee08bca2effffc9e754e2,64d2fd46c836a06233681665,64dc7f5b0fbb9d085cd3cdd3,,,,,,,ctch,resources/DY.BMP,resources/DBN.BMP,Door4,0.292592593,-0.033333333,1,0,0,0.7803,optionRight,60,10300,5,19,0,19,0,1,,,,,,,,,,,,,,,,,,,,,,,,,,,,,,,,,,,,,,,
,,,,,,,642ee08bca2effffc9e754e2,2023-08-16_08h49.36.689,HF_wild_card,2022.2.4,Win32,60.01680471,642ee08bca2effffc9e754e2,64d2fd46c836a06233681665,64dc7f5b0fbb9d085cd3cdd3,,,,,,,decisionTrl,resources/DY.BMP,resources/DB.BMP,Door1,-0.190740741,0.043518519,1,0,0,1.6239,optionLeft,30,10330,5,20,0,20,0,1,,,,,,,,,,,,,,,,,,,,,,,,,,,,,,,,,,,,,,,
,,,,,,,642ee08bca2effffc9e754e2,2023-08-16_08h49.36.689,HF_wild_card,2022.2.4,Win32,60.01680471,642ee08bca2effffc9e754e2,64d2fd46c836a06233681665,64dc7f5b0fbb9d085cd3cdd3,,,,,,,sngl,resources/Empty.png,resources/DB.BMP,Door2,0.278703704,-0.039814815,1,0,0,0.7727,optionRight,20,10350,5,21,0,21,0,1,,,,,,,,,,,,,,,,,,,,,,,,,,,,,,,,,,,,,,,
,,,,,,,642ee08bca2effffc9e754e2,2023-08-16_08h49.36.689,HF_wild_card,2022.2.4,Win32,60.01680471,642ee08bca2effffc9e754e2,64d2fd46c836a06233681665,64dc7f5b0fbb9d085cd3cdd3,,,,,,,ctch,resources/DBN.BMP,resources/DY.BMP,Door1,0.348148148,0.059259259,1,0,0,1.8083,optionRight,30,10380,5,22,0,22,0,1,,,,,,,,,,,,,,,,,,,,,,,,,,,,,,,,,,,,,,,
,,,,,,,642ee08bca2effffc9e754e2,2023-08-16_08h49.36.689,HF_wild_card,2022.2.4,Win32,60.01680471,642ee08bca2effffc9e754e2,64d2fd46c836a06233681665,64dc7f5b0fbb9d085cd3cdd3,,,,,,,decisionTrl,resources/DR.BMP,resources/DBN.BMP,Door4,0.373148148,0.032407407,1,0,0,3.2972,optionRight,80,10460,5,23,0,23,0,1,,,,,,,,,,,,,,,,,,,,,,,,,,,,,,,,,,,,,,,
,,,,,,,642ee08bca2effffc9e754e2,2023-08-16_08h49.36.689,HF_wild_card,2022.2.4,Win32,60.01680471,642ee08bca2effffc9e754e2,64d2fd46c836a06233681665,64dc7f5b0fbb9d085cd3cdd3,,,,,,,sngl,resources/Empty.png,resources/DG.BMP,WildCard_Ex,0.265740741,-0.05,1,0,0,0.8305,optionRight,95,10555,5,24,0,24,0,1,,,,,,,,,,,,,,,,,,,,,,,,,,,,,,,,,,,,,,,
,,,,,,,642ee08bca2effffc9e754e2,2023-08-16_08h49.36.689,HF_wild_card,2022.2.4,Win32,60.01680471,642ee08bca2effffc9e754e2,64d2fd46c836a06233681665,64dc7f5b0fbb9d085cd3cdd3,,,,,,,decisionTrl,resources/DY.BMP,resources/DB.BMP,Door1,-0.410185185,-0.013888889,1,0,0,1.338,optionLeft,30,10585,5,25,0,25,0,1,,,,,,,,,,,,,,,,,,,,,,,,,,,,,,,,,,,,,,,
,,,,,,,642ee08bca2effffc9e754e2,2023-08-16_08h49.36.689,HF_wild_card,2022.2.4,Win32,60.01680471,642ee08bca2effffc9e754e2,64d2fd46c836a06233681665,64dc7f5b0fbb9d085cd3cdd3,,,,,,,decisionTrl,resources/DB.BMP,resources/DY.BMP,Door1,0.32037037,-0.012037037,1,0,0,1.1498,optionRight,30,10615,5,26,0,26,0,1,,,,,,,,,,,,,,,,,,,,,,,,,,,,,,,,,,,,,,,
,,,,,,,642ee08bca2effffc9e754e2,2023-08-16_08h49.36.689,HF_wild_card,2022.2.4,Win32,60.01680471,642ee08bca2effffc9e754e2,64d2fd46c836a06233681665,64dc7f5b0fbb9d085cd3cdd3,,,,,,,decisionTrl,resources/DR.BMP,resources/DBN.BMP,Door4,0.316666667,0.040740741,1,0,0,1.2135,optionRight,80,10695,5,27,0,27,0,1,,,,,,,,,,,,,,,,,,,,,,,,,,,,,,,,,,,,,,,
,,,,,,,642ee08bca2effffc9e754e2,2023-08-16_08h49.36.689,HF_wild_card,2022.2.4,Win32,60.01680471,642ee08bca2effffc9e754e2,64d2fd46c836a06233681665,64dc7f5b0fbb9d085cd3cdd3,,,,,,,decisionTrl,resources/DY.BMP,resources/DG.BMP,WildCard_Ex,0.341666667,0.011111111,1,0,0,0.9002,optionRight,5,10700,5,28,0,28,0,1,,,,,,,,,,,,,,,,,,,,,,,,,,,,,,,,,,,,,,,
,,,,,,,642ee08bca2effffc9e754e2,2023-08-16_08h49.36.689,HF_wild_card,2022.2.4,Win32,60.01680471,642ee08bca2effffc9e754e2,64d2fd46c836a06233681665,64dc7f5b0fbb9d085cd3cdd3,,,,,,,sngl,resources/Empty.png,resources/DG.BMP,WildCard_Ex,0.361111111,-0.02037037,1,0,0,0.9719,optionRight,5,10705,5,29,0,29,0,1,,,,,,,,,,,,,,,,,,,,,,,,,,,,,,,,,,,,,,,
,,,,,,,642ee08bca2effffc9e754e2,2023-08-16_08h49.36.689,HF_wild_card,2022.2.4,Win32,60.01680471,642ee08bca2effffc9e754e2,64d2fd46c836a06233681665,64dc7f5b0fbb9d085cd3cdd3,,,,,,,ctch,resources/DY.BMP,resources/DBN.BMP,Door1,-0.263888889,0.074074074,1,0,0,1.5334,optionLeft,30,10735,5,30,0,30,0,1,,,,,,,,,,,,,,,,,,,,,,,,,,,,,,,,,,,,,,,
,,,,,,,642ee08bca2effffc9e754e2,2023-08-16_08h49.36.689,HF_wild_card,2022.2.4,Win32,60.01680471,642ee08bca2effffc9e754e2,64d2fd46c836a06233681665,64dc7f5b0fbb9d085cd3cdd3,,,,,,,decisionTrl,resources/DBN.BMP,resources/DR.BMP,Door3,0.375925926,0.064814815,1,0,0,1.992,optionRight,70,10805,5,31,0,31,0,1,,,,,,,,,,,,,,,,,,,,,,,,,,,,,,,,,,,,,,,
,,,,,,,642ee08bca2effffc9e754e2,2023-08-16_08h49.36.689,HF_wild_card,2022.2.4,Win32,60.01680471,642ee08bca2effffc9e754e2,64d2fd46c836a06233681665,64dc7f5b0fbb9d085cd3cdd3,,,,,,,sngl,resources/DG.BMP,resources/Empty.png,WildCard_Ex,-0.340740741,-0.047222222,1,0,0,0.8066,optionLeft,95,10900,5,32,0,32,0,1,,,,,,,,,,,,,,,,,,,,,,,,,,,,,,,,,,,,,,,
,,,,,,,642ee08bca2effffc9e754e2,2023-08-16_08h49.36.689,HF_wild_card,2022.2.4,Win32,60.01680471,642ee08bca2effffc9e754e2,64d2fd46c836a06233681665,64dc7f5b0fbb9d085cd3cdd3,,,,,,,decisionTrl,resources/DB.BMP,resources/DY.BMP,Door1,0.448148148,0.112037037,1,0,0,1.5374,optionRight,30,10930,5,33,0,33,0,1,,,,,,,,,,,,,,,,,,,,,,,,,,,,,,,,,,,,,,,
,,,,,,,642ee08bca2effffc9e754e2,2023-08-16_08h49.36.689,HF_wild_card,2022.2.4,Win32,60.01680471,642ee08bca2effffc9e754e2,64d2fd46c836a06233681665,64dc7f5b0fbb9d085cd3cdd3,,,,,,,decisionTrl,resources/DR.BMP,resources/DBN.BMP,Door4,0.359259259,0.067592593,1,0,0,2.3486,optionRight,80,11010,5,34,0,34,0,1,,,,,,,,,,,,,,,,,,,,,,,,,,,,,,,,,,,,,,,
,,,,,,,642ee08bca2effffc9e754e2,2023-08-16_08h49.36.689,HF_wild_card,2022.2.4,Win32,60.01680471,642ee08bca2effffc9e754e2,64d2fd46c836a06233681665,64dc7f5b0fbb9d085cd3cdd3,,,,,,,sngl,resources/DY.BMP,resources/Empty.png,Door1,-0.187962963,-0.061111111,1,0,0,0.6874,optionLeft,30,11040,5,35,0,35,0,1,,,,,,,,,,,,,,,,,,,,,,,,,,,,,,,,,,,,,,,
,,,,,,,642ee08bca2effffc9e754e2,2023-08-16_08h49.36.689,HF_wild_card,2022.2.4,Win32,60.01680471,642ee08bca2effffc9e754e2,64d2fd46c836a06233681665,64dc7f5b0fbb9d085cd3cdd3,,,,,,,sngl,resources/DR.BMP,resources/Empty.png,Door3,-0.206481481,-0.042592593,1,0,0,0.763,optionLeft,70,11110,5,36,0,36,0,1,,,,,,,,,,,,,,,,,,,,,,,,,,,,,,,,,,,,,,,
,,,,,,,642ee08bca2effffc9e754e2,2023-08-16_08h49.36.689,HF_wild_card,2022.2.4,Win32,60.01680471,642ee08bca2effffc9e754e2,64d2fd46c836a06233681665,64dc7f5b0fbb9d085cd3cdd3,,,,,,,ctch,resources/DB.BMP,resources/DR.BMP,Door3,0.312962963,-0.035185185,1,0,0,0.7873,optionRight,70,11180,5,37,0,37,0,1,,,,,,,,,,,,,,,,,,,,,,,,,,,,,,,,,,,,,,,
,,,,,,,642ee08bca2effffc9e754e2,2023-08-16_08h49.36.689,HF_wild_card,2022.2.4,Win32,60.01680471,642ee08bca2effffc9e754e2,64d2fd46c836a06233681665,64dc7f5b0fbb9d085cd3cdd3,,,,,,,decisionTrl,resources/DBN.BMP,resources/DG.BMP,WildCard_Ex,0.291666667,0.006481481,1,0,0,2.3881,optionRight,95,11275,5,38,0,38,0,1,,,,,,,,,,,,,,,,,,,,,,,,,,,,,,,,,,,,,,,
,,,,,,,642ee08bca2effffc9e754e2,2023-08-16_08h49.36.689,HF_wild_card,2022.2.4,Win32,60.01680471,642ee08bca2effffc9e754e2,64d2fd46c836a06233681665,64dc7f5b0fbb9d085cd3cdd3,,,,,,,decisionTrl,resources/DBN.BMP,resources/DR.BMP,Door3,0.381481481,0.058333333,1,0,0,1.4393,optionRight,70,11345,5,39,0,39,0,1,,,,,,,,,,,,,,,,,,,,,,,,,,,,,,,,,,,,,,,
,,,,,,,642ee08bca2effffc9e754e2,2023-08-16_08h49.36.689,HF_wild_card,2022.2.4,Win32,60.01680471,642ee08bca2effffc9e754e2,64d2fd46c836a06233681665,64dc7f5b0fbb9d085cd3cdd3,,,,,,,ctch,resources/DR.BMP,resources/DB.BMP,Door3,-0.259259259,-0.043518519,1,0,0,1.3725,optionLeft,70,11415,5,40,0,40,0,1,,,,,,,,,,,,,,,,,,,,,,,,,,,,,,,,,,,,,,,
,,,,,,,642ee08bca2effffc9e754e2,2023-08-16_08h49.36.689,HF_wild_card,2022.2.4,Win32,60.01680471,642ee08bca2effffc9e754e2,64d2fd46c836a06233681665,64dc7f5b0fbb9d085cd3cdd3,,,,,,,ctch,resources/DBN.BMP,resources/DY.BMP,Door4,-0.269444444,-0.006481481,1,0,0,1.4311,optionLeft,60,11475,5,41,0,41,0,1,,,,,,,,,,,,,,,,,,,,,,,,,,,,,,,,,,,,,,,
,,,,,,,642ee08bca2effffc9e754e2,2023-08-16_08h49.36.689,HF_wild_card,2022.2.4,Win32,60.01680471,642ee08bca2effffc9e754e2,64d2fd46c836a06233681665,64dc7f5b0fbb9d085cd3cdd3,,,,,,,decisionTrl,resources/DG.BMP,resources/DBN.BMP,WildCard_Ex,-0.225925926,-0.006481481,1,0,0,2.5792,optionLeft,95,11570,5,42,0,42,0,1,,,,,,,,,,,,,,,,,,,,,,,,,,,,,,,,,,,,,,,
,,,,,,,642ee08bca2effffc9e754e2,2023-08-16_08h49.36.689,HF_wild_card,2022.2.4,Win32,60.01680471,642ee08bca2effffc9e754e2,64d2fd46c836a06233681665,64dc7f5b0fbb9d085cd3cdd3,,,,,,,sngl,resources/DB.BMP,resources/Empty.png,Door2,-0.290740741,-0.037962963,1,0,0,0.8804,optionLeft,40,11610,5,43,0,43,0,1,,,,,,,,,,,,,,,,,,,,,,,,,,,,,,,,,,,,,,,
,,,,,,,642ee08bca2effffc9e754e2,2023-08-16_08h49.36.689,HF_wild_card,2022.2.4,Win32,60.01680471,642ee08bca2effffc9e754e2,64d2fd46c836a06233681665,64dc7f5b0fbb9d085cd3cdd3,,,,,,,,,,,,,,,,,,,,,,,,,,4,0,4,0,1,,,,,,,,,,,,,,,,,,,,,,,,,,,,,,,,,,
,,,,,,,642ee08bca2effffc9e754e2,2023-08-16_08h49.36.689,HF_wild_card,2022.2.4,Win32,60.01680471,642ee08bca2effffc9e754e2,64d2fd46c836a06233681665,64dc7f5b0fbb9d085cd3cdd3,,,,,,,decisionTrl,resources/DY.BMP,resources/DB.BMP,Door1,-0.333333333,0.025925926,1,0,0,2.2391,optionLeft,30,11640,6,0,0,0,0,1,,,,,,,,,,,,,,,,,,,,,,,,,,,,,,,,,,,,,,,
,,,,,,,642ee08bca2effffc9e754e2,2023-08-16_08h49.36.689,HF_wild_card,2022.2.4,Win32,60.01680471,642ee08bca2effffc9e754e2,64d2fd46c836a06233681665,64dc7f5b0fbb9d085cd3cdd3,,,,,,,decisionTrl,resources/DBN.BMP,resources/DR.BMP,Door4,-0.246296296,0.077777778,1,0,0,2.6472,optionLeft,80,11720,6,1,0,1,0,1,,,,,,,,,,,,,,,,,,,,,,,,,,,,,,,,,,,,,,,
,,,,,,,642ee08bca2effffc9e754e2,2023-08-16_08h49.36.689,HF_wild_card,2022.2.4,Win32,60.01680471,642ee08bca2effffc9e754e2,64d2fd46c836a06233681665,64dc7f5b0fbb9d085cd3cdd3,,,,,,,decisionTrl,resources/DBN.BMP,resources/DR.BMP,Door4,-0.021296296,-0.005555556,1,0,0,0.0389,optionLeft,80,11800,6,2,0,2,0,1,,,,,,,,,,,,,,,,,,,,,,,,,,,,,,,,,,,,,,,
,,,,,,,642ee08bca2effffc9e754e2,2023-08-16_08h49.36.689,HF_wild_card,2022.2.4,Win32,60.01680471,642ee08bca2effffc9e754e2,64d2fd46c836a06233681665,64dc7f5b0fbb9d085cd3cdd3,,,,,,,sngl,resources/Empty.png,resources/DG.BMP,WildCard_Ex,0.413888889,0.012037037,1,0,0,1.2735,optionRight,95,11895,6,3,0,3,0,1,,,,,,,,,,,,,,,,,,,,,,,,,,,,,,,,,,,,,,,
,,,,,,,642ee08bca2effffc9e754e2,2023-08-16_08h49.36.689,HF_wild_card,2022.2.4,Win32,60.01680471,642ee08bca2effffc9e754e2,64d2fd46c836a06233681665,64dc7f5b0fbb9d085cd3cdd3,,,,,,,ctch,resources/DB.BMP,resources/DR.BMP,Door3,0.239814815,0.011111111,1,0,0,1.3037,optionRight,70,11965,6,4,0,4,0,1,,,,,,,,,,,,,,,,,,,,,,,,,,,,,,,,,,,,,,,
,,,,,,,642ee08bca2effffc9e754e2,2023-08-16_08h49.36.689,HF_wild_card,2022.2.4,Win32,60.01680471,642ee08bca2effffc9e754e2,64d2fd46c836a06233681665,64dc7f5b0fbb9d085cd3cdd3,,,,,,,decisionTrl,resources/DBN.BMP,resources/DG.BMP,WildCard_Ex,0.299074074,0.027777778,1,0,0,1.7456,optionRight,95,12060,6,5,0,5,0,1,,,,,,,,,,,,,,,,,,,,,,,,,,,,,,,,,,,,,,,
,,,,,,,642ee08bca2effffc9e754e2,2023-08-16_08h49.36.689,HF_wild_card,2022.2.4,Win32,60.01680471,642ee08bca2effffc9e754e2,64d2fd46c836a06233681665,64dc7f5b0fbb9d085cd3cdd3,,,,,,,ctch,resources/DR.BMP,resources/DB.BMP,Door3,-0.206481481,0.001851852,1,0,0,1.5471,optionLeft,70,12130,6,6,0,6,0,1,,,,,,,,,,,,,,,,,,,,,,,,,,,,,,,,,,,,,,,
,,,,,,,642ee08bca2effffc9e754e2,2023-08-16_08h49.36.689,HF_wild_card,2022.2.4,Win32,60.01680471,642ee08bca2effffc9e754e2,64d2fd46c836a06233681665,64dc7f5b0fbb9d085cd3cdd3,,,,,,,decisionTrl,resources/DG.BMP,resources/DBN.BMP,Door4,0.430555556,0.12962963,1,0,0,2.815,optionRight,80,12210,6,7,0,7,0,1,,,,,,,,,,,,,,,,,,,,,,,,,,,,,,,,,,,,,,,
,,,,,,,642ee08bca2effffc9e754e2,2023-08-16_08h49.36.689,HF_wild_card,2022.2.4,Win32,60.01680471,642ee08bca2effffc9e754e2,64d2fd46c836a06233681665,64dc7f5b0fbb9d085cd3cdd3,,,,,,,decisionTrl,resources/DY.BMP,resources/DB.BMP,Door1,-0.316666667,0.001851852,1,0,0,1.2467,optionLeft,30,12240,6,8,0,8,0,1,,,,,,,,,,,,,,,,,,,,,,,,,,,,,,,,,,,,,,,
,,,,,,,642ee08bca2effffc9e754e2,2023-08-16_08h49.36.689,HF_wild_card,2022.2.4,Win32,60.01680471,642ee08bca2effffc9e754e2,64d2fd46c836a06233681665,64dc7f5b0fbb9d085cd3cdd3,,,,,,,sngl,resources/DY.BMP,resources/Empty.png,Door1,-0.290740741,-0.075,1,0,0,0.9484,optionLeft,30,12270,6,9,0,9,0,1,,,,,,,,,,,,,,,,,,,,,,,,,,,,,,,,,,,,,,,
,,,,,,,642ee08bca2effffc9e754e2,2023-08-16_08h49.36.689,HF_wild_card,2022.2.4,Win32,60.01680471,642ee08bca2effffc9e754e2,64d2fd46c836a06233681665,64dc7f5b0fbb9d085cd3cdd3,,,,,,,decisionTrl,resources/DR.BMP,resources/DBN.BMP,Door4,0.402777778,0.081481481,1,0,0,2.3468,optionRight,80,12350,6,10,0,10,0,1,,,,,,,,,,,,,,,,,,,,,,,,,,,,,,,,,,,,,,,
,,,,,,,642ee08bca2effffc9e754e2,2023-08-16_08h49.36.689,HF_wild_card,2022.2.4,Win32,60.01680471,642ee08bca2effffc9e754e2,64d2fd46c836a06233681665,64dc7f5b0fbb9d085cd3cdd3,,,,,,,decisionTrl,resources/DBN.BMP,resources/DR.BMP,Door3,0.350925926,0.087037037,1,0,0,2.6461,optionRight,70,12420,6,11,0,11,0,1,,,,,,,,,,,,,,,,,,,,,,,,,,,,,,,,,,,,,,,
,,,,,,,642ee08bca2effffc9e754e2,2023-08-16_08h49.36.689,HF_wild_card,2022.2.4,Win32,60.01680471,642ee08bca2effffc9e754e2,64d2fd46c836a06233681665,64dc7f5b0fbb9d085cd3cdd3,,,,,,,decisionTrl,resources/DY.BMP,resources/DG.BMP,Door1,-0.210185185,-0.039814815,1,0,0,1.8804,optionLeft,30,12450,6,12,0,12,0,1,,,,,,,,,,,,,,,,,,,,,,,,,,,,,,,,,,,,,,,
,,,,,,,642ee08bca2effffc9e754e2,2023-08-16_08h49.36.689,HF_wild_card,2022.2.4,Win32,60.01680471,642ee08bca2effffc9e754e2,64d2fd46c836a06233681665,64dc7f5b0fbb9d085cd3cdd3,,,,,,,ctch,resources/DB.BMP,resources/DR.BMP,Door3,0.446296296,0.022222222,1,0,0,1.3138,optionRight,70,12520,6,13,0,13,0,1,,,,,,,,,,,,,,,,,,,,,,,,,,,,,,,,,,,,,,,
,,,,,,,642ee08bca2effffc9e754e2,2023-08-16_08h49.36.689,HF_wild_card,2022.2.4,Win32,60.01680471,642ee08bca2effffc9e754e2,64d2fd46c836a06233681665,64dc7f5b0fbb9d085cd3cdd3,,,,,,,ctch,resources/DBN.BMP,resources/DY.BMP,Door4,-0.255555556,-0.006481481,1,0,0,1.3483,optionLeft,80,12600,6,14,0,14,0,1,,,,,,,,,,,,,,,,,,,,,,,,,,,,,,,,,,,,,,,
,,,,,,,642ee08bca2effffc9e754e2,2023-08-16_08h49.36.689,HF_wild_card,2022.2.4,Win32,60.01680471,642ee08bca2effffc9e754e2,64d2fd46c836a06233681665,64dc7f5b0fbb9d085cd3cdd3,,,,,,,decisionTrl,resources/DG.BMP,resources/DB.BMP,WildCard_Ex,-0.274074074,-0.009259259,1,0,0,1.9121,optionLeft,95,12695,6,15,0,15,0,1,,,,,,,,,,,,,,,,,,,,,,,,,,,,,,,,,,,,,,,
,,,,,,,642ee08bca2effffc9e754e2,2023-08-16_08h49.36.689,HF_wild_card,2022.2.4,Win32,60.01680471,642ee08bca2effffc9e754e2,64d2fd46c836a06233681665,64dc7f5b0fbb9d085cd3cdd3,,,,,,,ctch,resources/DY.BMP,resources/DBN.BMP,Door4,0.446296296,0.087962963,1,0,0,1.6482,optionRight,60,12755,6,16,0,16,0,1,,,,,,,,,,,,,,,,,,,,,,,,,,,,,,,,,,,,,,,
,,,,,,,642ee08bca2effffc9e754e2,2023-08-16_08h49.36.689,HF_wild_card,2022.2.4,Win32,60.01680471,642ee08bca2effffc9e754e2,64d2fd46c836a06233681665,64dc7f5b0fbb9d085cd3cdd3,,,,,,,decisionTrl,resources/DR.BMP,resources/DBN.BMP,Door4,0.32037037,0.057407407,1,0,0,1.5802,optionRight,60,12815,6,17,0,17,0,1,,,,,,,,,,,,,,,,,,,,,,,,,,,,,,,,,,,,,,,
,,,,,,,642ee08bca2effffc9e754e2,2023-08-16_08h49.36.689,HF_wild_card,2022.2.4,Win32,60.01680471,642ee08bca2effffc9e754e2,64d2fd46c836a06233681665,64dc7f5b0fbb9d085cd3cdd3,,,,,,,decisionTrl,resources/DR.BMP,resources/DBN.BMP,Door3,-0.265740741,0.04537037,1,0,0,1.9643,optionLeft,70,12885,6,18,0,18,0,1,,,,,,,,,,,,,,,,,,,,,,,,,,,,,,,,,,,,,,,
,,,,,,,642ee08bca2effffc9e754e2,2023-08-16_08h49.36.689,HF_wild_card,2022.2.4,Win32,60.01680471,642ee08bca2effffc9e754e2,64d2fd46c836a06233681665,64dc7f5b0fbb9d085cd3cdd3,,,,,,,decisionTrl,resources/DG.BMP,resources/DY.BMP,WildCard_Ex,-0.322222222,0.000925926,1,0,0,1.7631,optionLeft,5,12890,6,19,0,19,0,1,,,,,,,,,,,,,,,,,,,,,,,,,,,,,,,,,,,,,,,
,,,,,,,642ee08bca2effffc9e754e2,2023-08-16_08h49.36.689,HF_wild_card,2022.2.4,Win32,60.01680471,642ee08bca2effffc9e754e2,64d2fd46c836a06233681665,64dc7f5b0fbb9d085cd3cdd3,,,,,,,decisionTrl,resources/DG.BMP,resources/DR.BMP,Door3,0.272222222,0.012962963,1,0,0,1.6459,optionRight,70,12960,6,20,0,20,0,1,,,,,,,,,,,,,,,,,,,,,,,,,,,,,,,,,,,,,,,
,,,,,,,642ee08bca2effffc9e754e2,2023-08-16_08h49.36.689,HF_wild_card,2022.2.4,Win32,60.01680471,642ee08bca2effffc9e754e2,64d2fd46c836a06233681665,64dc7f5b0fbb9d085cd3cdd3,,,,,,,decisionTrl,resources/DB.BMP,resources/DY.BMP,Door1,0.387962963,0.031481481,1,0,0,1.6305,optionRight,30,12990,6,21,0,21,0,1,,,,,,,,,,,,,,,,,,,,,,,,,,,,,,,,,,,,,,,
,,,,,,,642ee08bca2effffc9e754e2,2023-08-16_08h49.36.689,HF_wild_card,2022.2.4,Win32,60.01680471,642ee08bca2effffc9e754e2,64d2fd46c836a06233681665,64dc7f5b0fbb9d085cd3cdd3,,,,,,,sngl,resources/DG.BMP,resources/Empty.png,WildCard_Ex,-0.002777778,0.002777778,1,0,0,0.0303,optionLeft,5,12995,6,22,0,22,0,1,,,,,,,,,,,,,,,,,,,,,,,,,,,,,,,,,,,,,,,
,,,,,,,642ee08bca2effffc9e754e2,2023-08-16_08h49.36.689,HF_wild_card,2022.2.4,Win32,60.01680471,642ee08bca2effffc9e754e2,64d2fd46c836a06233681665,64dc7f5b0fbb9d085cd3cdd3,,,,,,,sngl,resources/Empty.png,resources/DBN.BMP,Door4,0.422222222,0.016666667,1,0,0,0.9471,optionRight,80,13075,6,23,0,23,0,1,,,,,,,,,,,,,,,,,,,,,,,,,,,,,,,,,,,,,,,
,,,,,,,642ee08bca2effffc9e754e2,2023-08-16_08h49.36.689,HF_wild_card,2022.2.4,Win32,60.01680471,642ee08bca2effffc9e754e2,64d2fd46c836a06233681665,64dc7f5b0fbb9d085cd3cdd3,,,,,,,decisionTrl,resources/DB.BMP,resources/DY.BMP,Door1,0.302777778,0.010185185,1,0,0,1.3637,optionRight,30,13105,6,24,0,24,0,1,,,,,,,,,,,,,,,,,,,,,,,,,,,,,,,,,,,,,,,
,,,,,,,642ee08bca2effffc9e754e2,2023-08-16_08h49.36.689,HF_wild_card,2022.2.4,Win32,60.01680471,642ee08bca2effffc9e754e2,64d2fd46c836a06233681665,64dc7f5b0fbb9d085cd3cdd3,,,,,,,ctch,resources/DBN.BMP,resources/DY.BMP,Door4,-0.013888889,-0.00462963,1,0,0,0.0305,optionLeft,80,13185,6,25,0,25,0,1,,,,,,,,,,,,,,,,,,,,,,,,,,,,,,,,,,,,,,,
,,,,,,,642ee08bca2effffc9e754e2,2023-08-16_08h49.36.689,HF_wild_card,2022.2.4,Win32,60.01680471,642ee08bca2effffc9e754e2,64d2fd46c836a06233681665,64dc7f5b0fbb9d085cd3cdd3,,,,,,,sngl,resources/DB.BMP,resources/Empty.png,Door2,-0.376851852,-0.084259259,1,0,0,0.7464,optionLeft,20,13205,6,26,0,26,0,1,,,,,,,,,,,,,,,,,,,,,,,,,,,,,,,,,,,,,,,
,,,,,,,642ee08bca2effffc9e754e2,2023-08-16_08h49.36.689,HF_wild_card,2022.2.4,Win32,60.01680471,642ee08bca2effffc9e754e2,64d2fd46c836a06233681665,64dc7f5b0fbb9d085cd3cdd3,,,,,,,ctch,resources/DR.BMP,resources/DB.BMP,Door3,-0.258333333,-0.010185185,1,0,0,1.5136,optionLeft,70,13275,6,27,0,27,0,1,,,,,,,,,,,,,,,,,,,,,,,,,,,,,,,,,,,,,,,
,,,,,,,642ee08bca2effffc9e754e2,2023-08-16_08h49.36.689,HF_wild_card,2022.2.4,Win32,60.01680471,642ee08bca2effffc9e754e2,64d2fd46c836a06233681665,64dc7f5b0fbb9d085cd3cdd3,,,,,,,ctch,resources/DY.BMP,resources/DBN.BMP,Door4,0.173148148,0.012962963,1,0,0,1.5317,optionRight,60,13335,6,28,0,28,0,1,,,,,,,,,,,,,,,,,,,,,,,,,,,,,,,,,,,,,,,
,,,,,,,642ee08bca2effffc9e754e2,2023-08-16_08h49.36.689,HF_wild_card,2022.2.4,Win32,60.01680471,642ee08bca2effffc9e754e2,64d2fd46c836a06233681665,64dc7f5b0fbb9d085cd3cdd3,,,,,,,decisionTrl,resources/DR.BMP,resources/DBN.BMP,Door3,-0.286111111,0.012962963,1,0,0,1.6807,optionLeft,70,13405,6,29,0,29,0,1,,,,,,,,,,,,,,,,,,,,,,,,,,,,,,,,,,,,,,,
,,,,,,,642ee08bca2effffc9e754e2,2023-08-16_08h49.36.689,HF_wild_card,2022.2.4,Win32,60.01680471,642ee08bca2effffc9e754e2,64d2fd46c836a06233681665,64dc7f5b0fbb9d085cd3cdd3,,,,,,,sngl,resources/Empty.png,resources/DR.BMP,Door3,0.372222222,-0.04537037,1,0,0,0.8965,optionRight,70,13475,6,30,0,30,0,1,,,,,,,,,,,,,,,,,,,,,,,,,,,,,,,,,,,,,,,
,,,,,,,642ee08bca2effffc9e754e2,2023-08-16_08h49.36.689,HF_wild_card,2022.2.4,Win32,60.01680471,642ee08bca2effffc9e754e2,64d2fd46c836a06233681665,64dc7f5b0fbb9d085cd3cdd3,,,,,,,sngl,resources/DG.BMP,resources/Empty.png,WildCard_Ex,-0.321296296,-0.044444444,1,0,0,0.7643,optionLeft,95,13570,6,31,0,31,0,1,,,,,,,,,,,,,,,,,,,,,,,,,,,,,,,,,,,,,,,
,,,,,,,642ee08bca2effffc9e754e2,2023-08-16_08h49.36.689,HF_wild_card,2022.2.4,Win32,60.01680471,642ee08bca2effffc9e754e2,64d2fd46c836a06233681665,64dc7f5b0fbb9d085cd3cdd3,,,,,,,decisionTrl,resources/DB.BMP,resources/DG.BMP,WildCard_Ex,0.4,0.039814815,1,0,0,1.2469,optionRight,95,13665,6,32,0,32,0,1,,,,,,,,,,,,,,,,,,,,,,,,,,,,,,,,,,,,,,,
,,,,,,,642ee08bca2effffc9e754e2,2023-08-16_08h49.36.689,HF_wild_card,2022.2.4,Win32,60.01680471,642ee08bca2effffc9e754e2,64d2fd46c836a06233681665,64dc7f5b0fbb9d085cd3cdd3,,,,,,,decisionTrl,resources/DB.BMP,resources/DY.BMP,Door1,0.226851852,0.006481481,1,0,0,1.6804,optionRight,30,13695,6,33,0,33,0,1,,,,,,,,,,,,,,,,,,,,,,,,,,,,,,,,,,,,,,,
,,,,,,,642ee08bca2effffc9e754e2,2023-08-16_08h49.36.689,HF_wild_card,2022.2.4,Win32,60.01680471,642ee08bca2effffc9e754e2,64d2fd46c836a06233681665,64dc7f5b0fbb9d085cd3cdd3,,,,,,,decisionTrl,resources/DR.BMP,resources/DG.BMP,WildCard_Ex,0.406481481,0.086111111,1,0,0,1.3304,optionRight,95,13790,6,34,0,34,0,1,,,,,,,,,,,,,,,,,,,,,,,,,,,,,,,,,,,,,,,
,,,,,,,642ee08bca2effffc9e754e2,2023-08-16_08h49.36.689,HF_wild_card,2022.2.4,Win32,60.01680471,642ee08bca2effffc9e754e2,64d2fd46c836a06233681665,64dc7f5b0fbb9d085cd3cdd3,,,,,,,decisionTrl,resources/DY.BMP,resources/DB.BMP,Door1,-0.256481481,-0.030555556,1,0,0,1.6972,optionLeft,30,13820,6,35,0,35,0,1,,,,,,,,,,,,,,,,,,,,,,,,,,,,,,,,,,,,,,,
,,,,,,,642ee08bca2effffc9e754e2,2023-08-16_08h49.36.689,HF_wild_card,2022.2.4,Win32,60.01680471,642ee08bca2effffc9e754e2,64d2fd46c836a06233681665,64dc7f5b0fbb9d085cd3cdd3,,,,,,,decisionTrl,resources/DB.BMP,resources/DY.BMP,Door1,0.357407407,0.044444444,1,0,0,1.3967,optionRight,30,13850,6,36,0,36,0,1,,,,,,,,,,,,,,,,,,,,,,,,,,,,,,,,,,,,,,,
,,,,,,,642ee08bca2effffc9e754e2,2023-08-16_08h49.36.689,HF_wild_card,2022.2.4,Win32,60.01680471,642ee08bca2effffc9e754e2,64d2fd46c836a06233681665,64dc7f5b0fbb9d085cd3cdd3,,,,,,,decisionTrl,resources/DBN.BMP,resources/DR.BMP,Door4,-0.281481481,0.099074074,1,0,0,2.5305,optionLeft,60,13910,6,37,0,37,0,1,,,,,,,,,,,,,,,,,,,,,,,,,,,,,,,,,,,,,,,
,,,,,,,642ee08bca2effffc9e754e2,2023-08-16_08h49.36.689,HF_wild_card,2022.2.4,Win32,60.01680471,642ee08bca2effffc9e754e2,64d2fd46c836a06233681665,64dc7f5b0fbb9d085cd3cdd3,,,,,,,sngl,resources/DBN.BMP,resources/Empty.png,Door4,-0.349074074,0.017592593,1,0,0,1.2459,optionLeft,60,13970,6,38,0,38,0,1,,,,,,,,,,,,,,,,,,,,,,,,,,,,,,,,,,,,,,,
,,,,,,,642ee08bca2effffc9e754e2,2023-08-16_08h49.36.689,HF_wild_card,2022.2.4,Win32,60.01680471,642ee08bca2effffc9e754e2,64d2fd46c836a06233681665,64dc7f5b0fbb9d085cd3cdd3,,,,,,,sngl,resources/Empty.png,resources/DG.BMP,WildCard_Ex,0.400925926,-0.043518519,1,0,0,0.874,optionRight,5,13975,6,39,0,39,0,1,,,,,,,,,,,,,,,,,,,,,,,,,,,,,,,,,,,,,,,
,,,,,,,642ee08bca2effffc9e754e2,2023-08-16_08h49.36.689,HF_wild_card,2022.2.4,Win32,60.01680471,642ee08bca2effffc9e754e2,64d2fd46c836a06233681665,64dc7f5b0fbb9d085cd3cdd3,,,,,,,sngl,resources/Empty.png,resources/DB.BMP,Door2,0.388888889,-0.005555556,1,0,0,0.8069,optionRight,40,14015,6,40,0,40,0,1,,,,,,,,,,,,,,,,,,,,,,,,,,,,,,,,,,,,,,,
,,,,,,,642ee08bca2effffc9e754e2,2023-08-16_08h49.36.689,HF_wild_card,2022.2.4,Win32,60.01680471,642ee08bca2effffc9e754e2,64d2fd46c836a06233681665,64dc7f5b0fbb9d085cd3cdd3,,,,,,,decisionTrl,resources/DY.BMP,resources/DB.BMP,Door2,0.371296296,0.012962963,1,0,0,1.564,optionRight,20,14035,6,41,0,41,0,1,,,,,,,,,,,,,,,,,,,,,,,,,,,,,,,,,,,,,,,
,,,,,,,642ee08bca2effffc9e754e2,2023-08-16_08h49.36.689,HF_wild_card,2022.2.4,Win32,60.01680471,642ee08bca2effffc9e754e2,64d2fd46c836a06233681665,64dc7f5b0fbb9d085cd3cdd3,,,,,,,sngl,resources/DR.BMP,resources/Empty.png,Door3,-0.369444444,-0.018518519,1,0,0,0.6962,optionLeft,70,14105,6,42,0,42,0,1,,,,,,,,,,,,,,,,,,,,,,,,,,,,,,,,,,,,,,,
,,,,,,,642ee08bca2effffc9e754e2,2023-08-16_08h49.36.689,HF_wild_card,2022.2.4,Win32,60.01680471,642ee08bca2effffc9e754e2,64d2fd46c836a06233681665,64dc7f5b0fbb9d085cd3cdd3,,,,,,,sngl,resources/Empty.png,resources/DY.BMP,Door1,0.30462963,-0.011111111,1,0,0,0.7971,optionRight,30,14135,6,43,0,43,0,1,,,,,,,,,,,,,,,,,,,,,,,,,,,,,,,,,,,,,,,
,,,,,,,642ee08bca2effffc9e754e2,2023-08-16_08h49.36.689,HF_wild_card,2022.2.4,Win32,60.01680471,642ee08bca2effffc9e754e2,64d2fd46c836a06233681665,64dc7f5b0fbb9d085cd3cdd3,,,,,,,,,,,,,,,,,,,,,,,,,,5,0,5,0,1,,,,,,,,,,,,,,,,,,,,,,,,,,,,,,,,,,
,,,,,,,642ee08bca2effffc9e754e2,2023-08-16_08h49.36.689,HF_wild_card,2022.2.4,Win32,60.01680471,642ee08bca2effffc9e754e2,64d2fd46c836a06233681665,64dc7f5b0fbb9d085cd3cdd3,,,,,,,ctch,resources/DY.BMP,resources/DBN.BMP,Door4,0.437037037,-0.007407407,1,0,0,1.3683,optionRight,60,14195,7,0,0,0,0,1,,,,,,,,,,,,,,,,,,,,,,,,,,,,,,,,,,,,,,,
,,,,,,,642ee08bca2effffc9e754e2,2023-08-16_08h49.36.689,HF_wild_card,2022.2.4,Win32,60.01680471,642ee08bca2effffc9e754e2,64d2fd46c836a06233681665,64dc7f5b0fbb9d085cd3cdd3,,,,,,,decisionTrl,resources/DY.BMP,resources/DB.BMP,Door1,-0.305555556,-0.088888889,1,0,0,1.3817,optionLeft,30,14225,7,1,0,1,0,1,,,,,,,,,,,,,,,,,,,,,,,,,,,,,,,,,,,,,,,
,,,,,,,642ee08bca2effffc9e754e2,2023-08-16_08h49.36.689,HF_wild_card,2022.2.4,Win32,60.01680471,642ee08bca2effffc9e754e2,64d2fd46c836a06233681665,64dc7f5b0fbb9d085cd3cdd3,,,,,,,ctch,resources/DBN.BMP,resources/DY.BMP,Door4,-0.351851852,0.008333333,1,0,0,1.3901,optionLeft,60,14285,7,2,0,2,0,1,,,,,,,,,,,,,,,,,,,,,,,,,,,,,,,,,,,,,,,
,,,,,,,642ee08bca2effffc9e754e2,2023-08-16_08h49.36.689,HF_wild_card,2022.2.4,Win32,60.01680471,642ee08bca2effffc9e754e2,64d2fd46c836a06233681665,64dc7f5b0fbb9d085cd3cdd3,,,,,,,decisionTrl,resources/DR.BMP,resources/DBN.BMP,Door3,-0.205555556,-0.005555556,1,0,0,1.5095,optionLeft,70,14355,7,3,0,3,0,1,,,,,,,,,,,,,,,,,,,,,,,,,,,,,,,,,,,,,,,
,,,,,,,642ee08bca2effffc9e754e2,2023-08-16_08h49.36.689,HF_wild_card,2022.2.4,Win32,60.01680471,642ee08bca2effffc9e754e2,64d2fd46c836a06233681665,64dc7f5b0fbb9d085cd3cdd3,,,,,,,ctch,resources/DBN.BMP,resources/DY.BMP,Door4,-0.157407407,-0.010185185,1,0,0,1.6427,optionLeft,60,14415,7,4,0,4,0,1,,,,,,,,,,,,,,,,,,,,,,,,,,,,,,,,,,,,,,,
,,,,,,,642ee08bca2effffc9e754e2,2023-08-16_08h49.36.689,HF_wild_card,2022.2.4,Win32,60.01680471,642ee08bca2effffc9e754e2,64d2fd46c836a06233681665,64dc7f5b0fbb9d085cd3cdd3,,,,,,,decisionTrl,resources/DR.BMP,resources/DBN.BMP,Door4,0.291666667,-0.024074074,1,0,0,1.1878,optionRight,60,14475,7,5,0,5,0,1,,,,,,,,,,,,,,,,,,,,,,,,,,,,,,,,,,,,,,,
,,,,,,,642ee08bca2effffc9e754e2,2023-08-16_08h49.36.689,HF_wild_card,2022.2.4,Win32,60.01680471,642ee08bca2effffc9e754e2,64d2fd46c836a06233681665,64dc7f5b0fbb9d085cd3cdd3,,,,,,,decisionTrl,resources/DB.BMP,resources/DY.BMP,Door1,0.425,-0.039814815,1,0,0,1.2274,optionRight,30,14505,7,6,0,6,0,1,,,,,,,,,,,,,,,,,,,,,,,,,,,,,,,,,,,,,,,
,,,,,,,642ee08bca2effffc9e754e2,2023-08-16_08h49.36.689,HF_wild_card,2022.2.4,Win32,60.01680471,642ee08bca2effffc9e754e2,64d2fd46c836a06233681665,64dc7f5b0fbb9d085cd3cdd3,,,,,,,decisionTrl,resources/DR.BMP,resources/DBN.BMP,Door4,0.235185185,0.02037037,1,0,0,1.4255,optionRight,80,14585,7,7,0,7,0,1,,,,,,,,,,,,,,,,,,,,,,,,,,,,,,,,,,,,,,,
,,,,,,,642ee08bca2effffc9e754e2,2023-08-16_08h49.36.689,HF_wild_card,2022.2.4,Win32,60.01680471,642ee08bca2effffc9e754e2,64d2fd46c836a06233681665,64dc7f5b0fbb9d085cd3cdd3,,,,,,,ctch,resources/DBN.BMP,resources/DY.BMP,Door4,-0.32962963,-0.064814815,1,0,0,0.9152,optionLeft,60,14645,7,8,0,8,0,1,,,,,,,,,,,,,,,,,,,,,,,,,,,,,,,,,,,,,,,
,,,,,,,642ee08bca2effffc9e754e2,2023-08-16_08h49.36.689,HF_wild_card,2022.2.4,Win32,60.01680471,642ee08bca2effffc9e754e2,64d2fd46c836a06233681665,64dc7f5b0fbb9d085cd3cdd3,,,,,,,ctch,resources/DR.BMP,resources/DB.BMP,Door3,-0.287037037,-0.006481481,1,0,0,1.3485,optionLeft,70,14715,7,9,0,9,0,1,,,,,,,,,,,,,,,,,,,,,,,,,,,,,,,,,,,,,,,
,,,,,,,642ee08bca2effffc9e754e2,2023-08-16_08h49.36.689,HF_wild_card,2022.2.4,Win32,60.01680471,642ee08bca2effffc9e754e2,64d2fd46c836a06233681665,64dc7f5b0fbb9d085cd3cdd3,,,,,,,ctch,resources/DB.BMP,resources/DR.BMP,Door3,-0.010185185,0.001851852,1,0,0,0.0483,optionRight,70,14785,7,10,0,10,0,1,,,,,,,,,,,,,,,,,,,,,,,,,,,,,,,,,,,,,,,
,,,,,,,642ee08bca2effffc9e754e2,2023-08-16_08h49.36.689,HF_wild_card,2022.2.4,Win32,60.01680471,642ee08bca2effffc9e754e2,64d2fd46c836a06233681665,64dc7f5b0fbb9d085cd3cdd3,,,,,,,decisionTrl,resources/DBN.BMP,resources/DR.BMP,Door4,-0.325925926,-0.044444444,1,0,0,0.81,optionLeft,80,14865,7,11,0,11,0,1,,,,,,,,,,,,,,,,,,,,,,,,,,,,,,,,,,,,,,,
,,,,,,,642ee08bca2effffc9e754e2,2023-08-16_08h49.36.689,HF_wild_card,2022.2.4,Win32,60.01680471,642ee08bca2effffc9e754e2,64d2fd46c836a06233681665,64dc7f5b0fbb9d085cd3cdd3,,,,,,,decisionTrl,resources/DB.BMP,resources/DY.BMP,Door1,0.013888889,-0.006481481,1,0,0,0.0395,optionRight,30,14895,7,12,0,12,0,1,,,,,,,,,,,,,,,,,,,,,,,,,,,,,,,,,,,,,,,
,,,,,,,642ee08bca2effffc9e754e2,2023-08-16_08h49.36.689,HF_wild_card,2022.2.4,Win32,60.01680471,642ee08bca2effffc9e754e2,64d2fd46c836a06233681665,64dc7f5b0fbb9d085cd3cdd3,,,,,,,ctch,resources/DY.BMP,resources/DBN.BMP,Door4,0.283333333,-0.026851852,1,0,0,0.8231,optionRight,60,14955,7,13,0,13,0,1,,,,,,,,,,,,,,,,,,,,,,,,,,,,,,,,,,,,,,,
,,,,,,,642ee08bca2effffc9e754e2,2023-08-16_08h49.36.689,HF_wild_card,2022.2.4,Win32,60.01680471,642ee08bca2effffc9e754e2,64d2fd46c836a06233681665,64dc7f5b0fbb9d085cd3cdd3,,,,,,,ctch,resources/DR.BMP,resources/DB.BMP,Door3,-0.276851852,0.012037037,1,0,0,1.4751,optionLeft,70,15025,7,14,0,14,0,1,,,,,,,,,,,,,,,,,,,,,,,,,,,,,,,,,,,,,,,
,,,,,,,642ee08bca2effffc9e754e2,2023-08-16_08h49.36.689,HF_wild_card,2022.2.4,Win32,60.01680471,642ee08bca2effffc9e754e2,64d2fd46c836a06233681665,64dc7f5b0fbb9d085cd3cdd3,,,,,,,ctch,resources/DR.BMP,resources/DB.BMP,Door3,-0.221296296,-0.092592593,1,0,0,0.763,optionLeft,70,15095,7,15,0,15,0,1,,,,,,,,,,,,,,,,,,,,,,,,,,,,,,,,,,,,,,,
,,,,,,,642ee08bca2effffc9e754e2,2023-08-16_08h49.36.689,HF_wild_card,2022.2.4,Win32,60.01680471,642ee08bca2effffc9e754e2,64d2fd46c836a06233681665,64dc7f5b0fbb9d085cd3cdd3,,,,,,,decisionTrl,resources/DY.BMP,resources/DB.BMP,Door1,-0.225,0.042592593,1,0,0,1.3723,optionLeft,30,15125,7,16,0,16,0,1,,,,,,,,,,,,,,,,,,,,,,,,,,,,,,,,,,,,,,,
,,,,,,,642ee08bca2effffc9e754e2,2023-08-16_08h49.36.689,HF_wild_card,2022.2.4,Win32,60.01680471,642ee08bca2effffc9e754e2,64d2fd46c836a06233681665,64dc7f5b0fbb9d085cd3cdd3,,,,,,,decisionTrl,resources/DB.BMP,resources/DY.BMP,Door1,0.309259259,-0.05,1,0,0,0.7918,optionRight,30,15155,7,17,0,17,0,1,,,,,,,,,,,,,,,,,,,,,,,,,,,,,,,,,,,,,,,
,,,,,,,642ee08bca2effffc9e754e2,2023-08-16_08h49.36.689,HF_wild_card,2022.2.4,Win32,60.01680471,642ee08bca2effffc9e754e2,64d2fd46c836a06233681665,64dc7f5b0fbb9d085cd3cdd3,,,,,,,decisionTrl,resources/DY.BMP,resources/DB.BMP,Door1,-0.267592593,0.014814815,1,0,0,1.1568,optionLeft,30,15185,7,18,0,18,0,1,,,,,,,,,,,,,,,,,,,,,,,,,,,,,,,,,,,,,,,
,,,,,,,642ee08bca2effffc9e754e2,2023-08-16_08h49.36.689,HF_wild_card,2022.2.4,Win32,60.01680471,642ee08bca2effffc9e754e2,64d2fd46c836a06233681665,64dc7f5b0fbb9d085cd3cdd3,,,,,,,ctch,resources/DB.BMP,resources/DR.BMP,Door3,0.012962963,-0.003703704,1,0,0,0.0417,optionRight,70,15255,7,19,0,19,0,1,,,,,,,,,,,,,,,,,,,,,,,,,,,,,,,,,,,,,,,
,,,,,,,642ee08bca2effffc9e754e2,2023-08-16_08h49.36.689,HF_wild_card,2022.2.4,Win32,60.01680471,642ee08bca2effffc9e754e2,64d2fd46c836a06233681665,64dc7f5b0fbb9d085cd3cdd3,,,,,,,decisionTrl,resources/DBN.BMP,resources/DR.BMP,Door4,-0.252777778,-0.024074074,1,0,0,0.749,optionLeft,60,15315,7,20,0,20,0,1,,,,,,,,,,,,,,,,,,,,,,,,,,,,,,,,,,,,,,,
