Condition,Low fixed image (Door1),Low risky image (Door2),High fixed image (Door3),High risky image (Door4),Extreme Wild Card,NonExtreme Wild Card,,date,expName,psychopyVersion,OS,frameRate,PROLIFIC_PID,STUDY_ID,SESSION_ID,mouse_2.x,mouse_2.y,mouse_2.leftButton,mouse_2.midButton,mouse_2.rightButton,mouse_2.clicked_name,Trial Type,Left Option Image,Right Option Image,Chosen Door,mouse.x,mouse.y,mouse.leftButton,mouse.midButton,mouse.rightButton,mouse.time,mouse.clicked_name,Feedback,Cumulative Reward,Block,trial.thisRepN,trial.thisTrialN,trial.thisN,trial.thisIndex,trial.ran,blocks.thisRepN,blocks.thisTrialN,blocks.thisN,blocks.thisIndex,blocks.ran,Money conversion,First Outcome Reported,Shown Door (First Outcome),Displayed Image (First Outcome),outcomes.thisRepN,outcomes.thisTrialN,outcomes.thisN,outcomes.thisIndex,outcomes.ran,judgments.thisRepN,judgments.thisTrialN,judgments.thisN,judgments.thisIndex,judgments.ran,freqMouse.x,freqMouse.y,freqMouse.leftButton,freqMouse.midButton,freqMouse.rightButton,freqMouse.clicked_name,FQJ for first outcome,FQJ for second outcome,Shown Door,Displayed Image,trials.thisRepN,trials.thisTrialN,trials.thisN,trials.thisIndex,trials.ran,judgBlock.thisRepN,judgBlock.thisTrialN,judgBlock.thisN,judgBlock.thisIndex,judgBlock.ran
0,resources/DG.BMP,resources/DP.BMP,resources/DB.BMP,resources/DR.BMP,resources/DBN.BMP,resources/DY.BMP,,2023-08-16_08h43.37.910,HF_wild_card,2022.2.4,Win32,2.222296299,59497c498fb2140001afda85,64d2fd46c836a06233681665,64dc7df8fbb02c379c4e5762,,,,,,,,,,,,,,,,,,,,,,,,,,,,,,,,,,,,,,,,,,,,,,,,,,,,,,,,,,,,,,,,
,,,,,,,,2023-08-16_08h43.37.910,HF_wild_card,2022.2.4,Win32,2.222296299,59497c498fb2140001afda85,64d2fd46c836a06233681665,64dc7df8fbb02c379c4e5762,0.00546875,-0.428385417,1,0,0,agree,,,,,,,,,,,,,,,,,,,,,,,,,,,,,,,,,,,,,,,,,,,,,,,,,,,,,,,,,,
,,,,,,,,2023-08-16_08h43.37.910,HF_wild_card,2022.2.4,Win32,2.222296299,59497c498fb2140001afda85,64d2fd46c836a06233681665,64dc7df8fbb02c379c4e5762,,,,,,,,,,,,,,,,,,,,,,,,,,,,,,,,,,,,,,,,,,,,,,,,,,,,,,,,,,,,,,,,
,,,,,,,,2023-08-16_08h43.37.910,HF_wild_card,2022.2.4,Win32,2.222296299,59497c498fb2140001afda85,64d2fd46c836a06233681665,64dc7df8fbb02c379c4e5762,,,,,,,decisionTrl,resources/DBN.BMP,resources/DP.BMP,WildCard_Ex,-0.2640625,-0.102864583,1,0,0,8.1356,optionLeft,95,95,1,0,0,0,0,1,,,,,,,,,,,,,,,,,,,,,,,,,,,,,,,,,,,,,,,
,,,,,,,,2023-08-16_08h43.37.910,HF_wild_card,2022.2.4,Win32,2.222296299,59497c498fb2140001afda85,64d2fd46c836a06233681665,64dc7df8fbb02c379c4e5762,,,,,,,decisionTrl,resources/DG.BMP,resources/DBN.BMP,WildCard_Ex,0.38828125,0.013020833,1,0,0,1.4783,optionRight,95,190,1,1,0,1,0,1,,,,,,,,,,,,,,,,,,,,,,,,,,,,,,,,,,,,,,,
,,,,,,,,2023-08-16_08h43.37.910,HF_wild_card,2022.2.4,Win32,2.222296299,59497c498fb2140001afda85,64d2fd46c836a06233681665,64dc7df8fbb02c379c4e5762,,,,,,,decisionTrl,resources/DBN.BMP,resources/DG.BMP,WildCard_Ex,-0.323958333,0.0078125,1,0,0,18.0328,optionLeft,5,195,1,2,0,2,0,1,,,,,,,,,,,,,,,,,,,,,,,,,,,,,,,,,,,,,,,
,,,,,,,,2023-08-16_08h43.37.910,HF_wild_card,2022.2.4,Win32,2.222296299,59497c498fb2140001afda85,64d2fd46c836a06233681665,64dc7df8fbb02c379c4e5762,,,,,,,ctch,resources/DB.BMP,resources/DP.BMP,Door2,0.252864583,-0.01171875,1,0,0,2.0318,optionRight,20,215,1,3,0,3,0,1,,,,,,,,,,,,,,,,,,,,,,,,,,,,,,,,,,,,,,,
,,,,,,,,2023-08-16_08h43.37.910,HF_wild_card,2022.2.4,Win32,2.222296299,59497c498fb2140001afda85,64d2fd46c836a06233681665,64dc7df8fbb02c379c4e5762,,,,,,,decisionTrl,resources/DB.BMP,resources/DR.BMP,Door4,0.34921875,-0.04296875,1,0,0,2.039,optionRight,60,275,1,4,0,4,0,1,,,,,,,,,,,,,,,,,,,,,,,,,,,,,,,,,,,,,,,
,,,,,,,,2023-08-16_08h43.37.910,HF_wild_card,2022.2.4,Win32,2.222296299,59497c498fb2140001afda85,64d2fd46c836a06233681665,64dc7df8fbb02c379c4e5762,,,,,,,ctch,resources/DP.BMP,resources/DB.BMP,Door3,0.299739583,-0.010416667,1,0,0,4.056,optionRight,70,345,1,5,0,5,0,1,,,,,,,,,,,,,,,,,,,,,,,,,,,,,,,,,,,,,,,
,,,,,,,,2023-08-16_08h43.37.910,HF_wild_card,2022.2.4,Win32,2.222296299,59497c498fb2140001afda85,64d2fd46c836a06233681665,64dc7df8fbb02c379c4e5762,,,,,,,decisionTrl,resources/DR.BMP,resources/DB.BMP,Door4,-0.29140625,-0.067708333,1,0,0,5.6656,optionLeft,60,405,1,6,0,6,0,1,,,,,,,,,,,,,,,,,,,,,,,,,,,,,,,,,,,,,,,
,,,,,,,,2023-08-16_08h43.37.910,HF_wild_card,2022.2.4,Win32,2.222296299,59497c498fb2140001afda85,64d2fd46c836a06233681665,64dc7df8fbb02c379c4e5762,,,,,,,sngl,resources/DB.BMP,resources/Empty.png,Door3,-0.2875,-0.08984375,1,0,0,3.9202,optionLeft,70,475,1,7,0,7,0,1,,,,,,,,,,,,,,,,,,,,,,,,,,,,,,,,,,,,,,,
,,,,,,,,2023-08-16_08h43.37.910,HF_wild_card,2022.2.4,Win32,2.222296299,59497c498fb2140001afda85,64d2fd46c836a06233681665,64dc7df8fbb02c379c4e5762,,,,,,,decisionTrl,resources/DBN.BMP,resources/DB.BMP,WildCard_Ex,-0.196354167,-0.037760417,1,0,0,5.0266,optionLeft,5,480,1,8,0,8,0,1,,,,,,,,,,,,,,,,,,,,,,,,,,,,,,,,,,,,,,,
,,,,,,,,2023-08-16_08h43.37.910,HF_wild_card,2022.2.4,Win32,2.222296299,59497c498fb2140001afda85,64d2fd46c836a06233681665,64dc7df8fbb02c379c4e5762,,,,,,,sngl,resources/Empty.png,resources/DBN.BMP,WildCard_Ex,0.196875,-0.028645833,1,0,0,1.8405,optionRight,95,575,1,9,0,9,0,1,,,,,,,,,,,,,,,,,,,,,,,,,,,,,,,,,,,,,,,
,,,,,,,,2023-08-16_08h43.37.910,HF_wild_card,2022.2.4,Win32,2.222296299,59497c498fb2140001afda85,64d2fd46c836a06233681665,64dc7df8fbb02c379c4e5762,,,,,,,decisionTrl,resources/DB.BMP,resources/DBN.BMP,Door3,-0.243229167,-0.03125,1,0,0,2.0566,optionLeft,70,645,1,10,0,10,0,1,,,,,,,,,,,,,,,,,,,,,,,,,,,,,,,,,,,,,,,
,,,,,,,,2023-08-16_08h43.37.910,HF_wild_card,2022.2.4,Win32,2.222296299,59497c498fb2140001afda85,64d2fd46c836a06233681665,64dc7df8fbb02c379c4e5762,,,,,,,decisionTrl,resources/DP.BMP,resources/DG.BMP,Door1,0.248958333,-0.063802083,1,0,0,2.1782,optionRight,30,675,1,11,0,11,0,1,,,,,,,,,,,,,,,,,,,,,,,,,,,,,,,,,,,,,,,
,,,,,,,,2023-08-16_08h43.37.910,HF_wild_card,2022.2.4,Win32,2.222296299,59497c498fb2140001afda85,64d2fd46c836a06233681665,64dc7df8fbb02c379c4e5762,,,,,,,decisionTrl,resources/DB.BMP,resources/DR.BMP,Door3,-0.284895833,-0.057291667,1,0,0,7.5482,optionLeft,70,745,1,12,0,12,0,1,,,,,,,,,,,,,,,,,,,,,,,,,,,,,,,,,,,,,,,
,,,,,,,,2023-08-16_08h43.37.910,HF_wild_card,2022.2.4,Win32,2.222296299,59497c498fb2140001afda85,64d2fd46c836a06233681665,64dc7df8fbb02c379c4e5762,,,,,,,decisionTrl,resources/DG.BMP,resources/DP.BMP,Door2,0.303645833,-0.05078125,1,0,0,2.047,optionRight,40,785,1,13,0,13,0,1,,,,,,,,,,,,,,,,,,,,,,,,,,,,,,,,,,,,,,,
,,,,,,,,2023-08-16_08h43.37.910,HF_wild_card,2022.2.4,Win32,2.222296299,59497c498fb2140001afda85,64d2fd46c836a06233681665,64dc7df8fbb02c379c4e5762,,,,,,,decisionTrl,resources/DBN.BMP,resources/DR.BMP,Door4,0.28671875,-0.0234375,1,0,0,2.1805,optionRight,60,845,1,14,0,14,0,1,,,,,,,,,,,,,,,,,,,,,,,,,,,,,,,,,,,,,,,
,,,,,,,,2023-08-16_08h43.37.910,HF_wild_card,2022.2.4,Win32,2.222296299,59497c498fb2140001afda85,64d2fd46c836a06233681665,64dc7df8fbb02c379c4e5762,,,,,,,decisionTrl,resources/DR.BMP,resources/DB.BMP,Door4,-0.274479167,-0.075520833,1,0,0,2.295,optionLeft,60,905,1,15,0,15,0,1,,,,,,,,,,,,,,,,,,,,,,,,,,,,,,,,,,,,,,,
,,,,,,,,2023-08-16_08h43.37.910,HF_wild_card,2022.2.4,Win32,2.222296299,59497c498fb2140001afda85,64d2fd46c836a06233681665,64dc7df8fbb02c379c4e5762,,,,,,,sngl,resources/DR.BMP,resources/Empty.png,Door4,-0.2171875,-0.029947917,1,0,0,5.1201,optionLeft,80,985,1,16,0,16,0,1,,,,,,,,,,,,,,,,,,,,,,,,,,,,,,,,,,,,,,,
,,,,,,,,2023-08-16_08h43.37.910,HF_wild_card,2022.2.4,Win32,2.222296299,59497c498fb2140001afda85,64d2fd46c836a06233681665,64dc7df8fbb02c379c4e5762,,,,,,,ctch,resources/DG.BMP,resources/DR.BMP,Door4,0.238541667,0.00390625,1,0,0,1.452,optionRight,80,1065,1,17,0,17,0,1,,,,,,,,,,,,,,,,,,,,,,,,,,,,,,,,,,,,,,,
,,,,,,,,2023-08-16_08h43.37.910,HF_wild_card,2022.2.4,Win32,2.222296299,59497c498fb2140001afda85,64d2fd46c836a06233681665,64dc7df8fbb02c379c4e5762,,,,,,,sngl,resources/DP.BMP,resources/Empty.png,Door2,-0.28359375,-0.06640625,1,0,0,3.7365,optionLeft,40,1105,1,18,0,18,0,1,,,,,,,,,,,,,,,,,,,,,,,,,,,,,,,,,,,,,,,
,,,,,,,,2023-08-16_08h43.37.910,HF_wild_card,2022.2.4,Win32,2.222296299,59497c498fb2140001afda85,64d2fd46c836a06233681665,64dc7df8fbb02c379c4e5762,,,,,,,sngl,resources/Empty.png,resources/DB.BMP,Door3,0.2125,-0.0546875,1,0,0,6.8187,optionRight,70,1175,1,19,0,19,0,1,,,,,,,,,,,,,,,,,,,,,,,,,,,,,,,,,,,,,,,
,,,,,,,,2023-08-16_08h43.37.910,HF_wild_card,2022.2.4,Win32,2.222296299,59497c498fb2140001afda85,64d2fd46c836a06233681665,64dc7df8fbb02c379c4e5762,,,,,,,sngl,resources/Empty.png,resources/DR.BMP,Door4,0.17734375,-0.016927083,1,0,0,1.853,optionRight,60,1235,1,20,0,20,0,1,,,,,,,,,,,,,,,,,,,,,,,,,,,,,,,,,,,,,,,
,,,,,,,,2023-08-16_08h43.37.910,HF_wild_card,2022.2.4,Win32,2.222296299,59497c498fb2140001afda85,64d2fd46c836a06233681665,64dc7df8fbb02c379c4e5762,,,,,,,sngl,resources/Empty.png,resources/DG.BMP,Door1,0.199479167,-0.053385417,1,0,0,1.945,optionRight,30,1265,1,21,0,21,0,1,,,,,,,,,,,,,,,,,,,,,,,,,,,,,,,,,,,,,,,
,,,,,,,,2023-08-16_08h43.37.910,HF_wild_card,2022.2.4,Win32,2.222296299,59497c498fb2140001afda85,64d2fd46c836a06233681665,64dc7df8fbb02c379c4e5762,,,,,,,decisionTrl,resources/DR.BMP,resources/DB.BMP,Door4,-0.2015625,-0.022135417,1,0,0,4.2461,optionLeft,80,1345,1,22,0,22,0,1,,,,,,,,,,,,,,,,,,,,,,,,,,,,,,,,,,,,,,,
,,,,,,,,2023-08-16_08h43.37.910,HF_wild_card,2022.2.4,Win32,2.222296299,59497c498fb2140001afda85,64d2fd46c836a06233681665,64dc7df8fbb02c379c4e5762,,,,,,,sngl,resources/DG.BMP,resources/Empty.png,Door1,-0.225,-0.069010417,1,0,0,3.9464,optionLeft,30,1375,1,23,0,23,0,1,,,,,,,,,,,,,,,,,,,,,,,,,,,,,,,,,,,,,,,
,,,,,,,,2023-08-16_08h43.37.910,HF_wild_card,2022.2.4,Win32,2.222296299,59497c498fb2140001afda85,64d2fd46c836a06233681665,64dc7df8fbb02c379c4e5762,,,,,,,decisionTrl,resources/DG.BMP,resources/DP.BMP,Door2,0.386979167,-0.052083333,1,0,0,2.0415,optionRight,40,1415,1,24,0,24,0,1,,,,,,,,,,,,,,,,,,,,,,,,,,,,,,,,,,,,,,,
,,,,,,,,2023-08-16_08h43.37.910,HF_wild_card,2022.2.4,Win32,2.222296299,59497c498fb2140001afda85,64d2fd46c836a06233681665,64dc7df8fbb02c379c4e5762,,,,,,,sngl,resources/DBN.BMP,resources/Empty.png,WildCard_Ex,-0.183333333,-0.02734375,1,0,0,3.1654,optionLeft,95,1510,1,25,0,25,0,1,,,,,,,,,,,,,,,,,,,,,,,,,,,,,,,,,,,,,,,
,,,,,,,,2023-08-16_08h43.37.910,HF_wild_card,2022.2.4,Win32,2.222296299,59497c498fb2140001afda85,64d2fd46c836a06233681665,64dc7df8fbb02c379c4e5762,,,,,,,ctch,resources/DR.BMP,resources/DG.BMP,Door4,-0.282291667,-0.033854167,1,0,0,5.5885,optionLeft,60,1570,1,26,0,26,0,1,,,,,,,,,,,,,,,,,,,,,,,,,,,,,,,,,,,,,,,
,,,,,,,,2023-08-16_08h43.37.910,HF_wild_card,2022.2.4,Win32,2.222296299,59497c498fb2140001afda85,64d2fd46c836a06233681665,64dc7df8fbb02c379c4e5762,,,,,,,ctch,resources/DG.BMP,resources/DR.BMP,Door4,0.2671875,-0.020833333,1,0,0,4.8529,optionRight,60,1630,1,27,0,27,0,1,,,,,,,,,,,,,,,,,,,,,,,,,,,,,,,,,,,,,,,
,,,,,,,,2023-08-16_08h43.37.910,HF_wild_card,2022.2.4,Win32,2.222296299,59497c498fb2140001afda85,64d2fd46c836a06233681665,64dc7df8fbb02c379c4e5762,,,,,,,decisionTrl,resources/DP.BMP,resources/DG.BMP,Door1,0.29453125,0,1,0,0,2.0894,optionRight,30,1660,1,28,0,28,0,1,,,,,,,,,,,,,,,,,,,,,,,,,,,,,,,,,,,,,,,
,,,,,,,,2023-08-16_08h43.37.910,HF_wild_card,2022.2.4,Win32,2.222296299,59497c498fb2140001afda85,64d2fd46c836a06233681665,64dc7df8fbb02c379c4e5762,,,,,,,sngl,resources/DBN.BMP,resources/Empty.png,WildCard_Ex,-0.269270833,0.024739583,1,0,0,11.886,optionLeft,5,1665,1,29,0,29,0,1,,,,,,,,,,,,,,,,,,,,,,,,,,,,,,,,,,,,,,,
,,,,,,,,2023-08-16_08h43.37.910,HF_wild_card,2022.2.4,Win32,2.222296299,59497c498fb2140001afda85,64d2fd46c836a06233681665,64dc7df8fbb02c379c4e5762,,,,,,,ctch,resources/DR.BMP,resources/DG.BMP,Door4,-0.176822917,-0.032552083,1,0,0,2.1148,optionLeft,80,1745,1,30,0,30,0,1,,,,,,,,,,,,,,,,,,,,,,,,,,,,,,,,,,,,,,,
,,,,,,,,2023-08-16_08h43.37.910,HF_wild_card,2022.2.4,Win32,2.222296299,59497c498fb2140001afda85,64d2fd46c836a06233681665,64dc7df8fbb02c379c4e5762,,,,,,,ctch,resources/DB.BMP,resources/DP.BMP,Door3,-0.251041667,-0.079427083,1,0,0,2.0787,optionLeft,70,1815,1,31,0,31,0,1,,,,,,,,,,,,,,,,,,,,,,,,,,,,,,,,,,,,,,,
,,,,,,,,2023-08-16_08h43.37.910,HF_wild_card,2022.2.4,Win32,2.222296299,59497c498fb2140001afda85,64d2fd46c836a06233681665,64dc7df8fbb02c379c4e5762,,,,,,,decisionTrl,resources/DP.BMP,resources/DG.BMP,Door1,0.234635417,-0.07421875,1,0,0,4.1881,optionRight,30,1845,1,32,0,32,0,1,,,,,,,,,,,,,,,,,,,,,,,,,,,,,,,,,,,,,,,
,,,,,,,,2023-08-16_08h43.37.910,HF_wild_card,2022.2.4,Win32,2.222296299,59497c498fb2140001afda85,64d2fd46c836a06233681665,64dc7df8fbb02c379c4e5762,,,,,,,decisionTrl,resources/DG.BMP,resources/DP.BMP,Door2,0.321875,-0.04296875,1,0,0,5.8842,optionRight,40,1885,1,33,0,33,0,1,,,,,,,,,,,,,,,,,,,,,,,,,,,,,,,,,,,,,,,
,,,,,,,,2023-08-16_08h43.37.910,HF_wild_card,2022.2.4,Win32,2.222296299,59497c498fb2140001afda85,64d2fd46c836a06233681665,64dc7df8fbb02c379c4e5762,,,,,,,decisionTrl,resources/DP.BMP,resources/DBN.BMP,Door2,-0.243229167,-0.096354167,1,0,0,2.095,optionLeft,40,1925,1,34,0,34,0,1,,,,,,,,,,,,,,,,,,,,,,,,,,,,,,,,,,,,,,,
,,,,,,,,2023-08-16_08h43.37.910,HF_wild_card,2022.2.4,Win32,2.222296299,59497c498fb2140001afda85,64d2fd46c836a06233681665,64dc7df8fbb02c379c4e5762,,,,,,,decisionTrl,resources/DR.BMP,resources/DBN.BMP,WildCard_Ex,0.385677083,-0.028645833,1,0,0,7.992,optionRight,95,2020,1,35,0,35,0,1,,,,,,,,,,,,,,,,,,,,,,,,,,,,,,,,,,,,,,,
,,,,,,,,2023-08-16_08h43.37.910,HF_wild_card,2022.2.4,Win32,2.222296299,59497c498fb2140001afda85,64d2fd46c836a06233681665,64dc7df8fbb02c379c4e5762,,,,,,,decisionTrl,resources/DB.BMP,resources/DR.BMP,Door4,0.338802083,-0.040364583,1,0,0,5.0647,optionRight,60,2080,1,36,0,36,0,1,,,,,,,,,,,,,,,,,,,,,,,,,,,,,,,,,,,,,,,
,,,,,,,,2023-08-16_08h43.37.910,HF_wild_card,2022.2.4,Win32,2.222296299,59497c498fb2140001afda85,64d2fd46c836a06233681665,64dc7df8fbb02c379c4e5762,,,,,,,decisionTrl,resources/DP.BMP,resources/DG.BMP,Door2,-0.187239583,-0.037760417,1,0,0,2.1735,optionLeft,40,2120,1,37,0,37,0,1,,,,,,,,,,,,,,,,,,,,,,,,,,,,,,,,,,,,,,,
,,,,,,,,2023-08-16_08h43.37.910,HF_wild_card,2022.2.4,Win32,2.222296299,59497c498fb2140001afda85,64d2fd46c836a06233681665,64dc7df8fbb02c379c4e5762,,,,,,,decisionTrl,resources/DR.BMP,resources/DB.BMP,Door4,-0.14296875,-0.01171875,1,0,0,2.1668,optionLeft,80,2200,1,38,0,38,0,1,,,,,,,,,,,,,,,,,,,,,,,,,,,,,,,,,,,,,,,
,,,,,,,,2023-08-16_08h43.37.910,HF_wild_card,2022.2.4,Win32,2.222296299,59497c498fb2140001afda85,64d2fd46c836a06233681665,64dc7df8fbb02c379c4e5762,,,,,,,decisionTrl,resources/DB.BMP,resources/DR.BMP,Door4,0.24765625,-0.0234375,1,0,0,2.0546,optionRight,80,2280,1,39,0,39,0,1,,,,,,,,,,,,,,,,,,,,,,,,,,,,,,,,,,,,,,,
,,,,,,,,2023-08-16_08h43.37.910,HF_wild_card,2022.2.4,Win32,2.222296299,59497c498fb2140001afda85,64d2fd46c836a06233681665,64dc7df8fbb02c379c4e5762,,,,,,,sngl,resources/Empty.png,resources/DP.BMP,Door2,0.170833333,-0.015625,1,0,0,1.9842,optionRight,20,2300,1,40,0,40,0,1,,,,,,,,,,,,,,,,,,,,,,,,,,,,,,,,,,,,,,,
,,,,,,,,2023-08-16_08h43.37.910,HF_wild_card,2022.2.4,Win32,2.222296299,59497c498fb2140001afda85,64d2fd46c836a06233681665,64dc7df8fbb02c379c4e5762,,,,,,,decisionTrl,resources/DG.BMP,resources/DP.BMP,Door2,0.24765625,-0.104166667,1,0,0,2.0652,optionRight,40,2340,1,41,0,41,0,1,,,,,,,,,,,,,,,,,,,,,,,,,,,,,,,,,,,,,,,
,,,,,,,,2023-08-16_08h43.37.910,HF_wild_card,2022.2.4,Win32,2.222296299,59497c498fb2140001afda85,64d2fd46c836a06233681665,64dc7df8fbb02c379c4e5762,,,,,,,sngl,resources/Empty.png,resources/DBN.BMP,WildCard_Ex,0.38046875,-0.002604167,1,0,0,8.0859,optionRight,5,2345,1,42,0,42,0,1,,,,,,,,,,,,,,,,,,,,,,,,,,,,,,,,,,,,,,,
,,,,,,,,2023-08-16_08h43.37.910,HF_wild_card,2022.2.4,Win32,2.222296299,59497c498fb2140001afda85,64d2fd46c836a06233681665,64dc7df8fbb02c379c4e5762,,,,,,,ctch,resources/DP.BMP,resources/DB.BMP,Door2,-0.286197917,-0.03125,1,0,0,6.2349,optionLeft,40,2385,1,43,0,43,0,1,,,,,,,,,,,,,,,,,,,,,,,,,,,,,,,,,,,,,,,
,,,,,,,,2023-08-16_08h43.37.910,HF_wild_card,2022.2.4,Win32,2.222296299,59497c498fb2140001afda85,64d2fd46c836a06233681665,64dc7df8fbb02c379c4e5762,,,,,,,,,,,,,,,,,,,,,,,,,,0,0,0,0,1,,,,,,,,,,,,,,,,,,,,,,,,,,,,,,,,,,
,,,,,,,,2023-08-16_08h43.37.910,HF_wild_card,2022.2.4,Win32,2.222296299,59497c498fb2140001afda85,64d2fd46c836a06233681665,64dc7df8fbb02c379c4e5762,,,,,,,sngl,resources/DP.BMP,resources/Empty.png,Door2,-0.320052083,-0.140625,1,0,0,1.8994,optionLeft,20,2405,2,0,0,0,0,1,,,,,,,,,,,,,,,,,,,,,,,,,,,,,,,,,,,,,,,
,,,,,,,,2023-08-16_08h43.37.910,HF_wild_card,2022.2.4,Win32,2.222296299,59497c498fb2140001afda85,64d2fd46c836a06233681665,64dc7df8fbb02c379c4e5762,,,,,,,sngl,resources/Empty.png,resources/DR.BMP,Door4,0.37265625,-0.002604167,1,0,0,3.7648,optionRight,80,2485,2,1,0,1,0,1,,,,,,,,,,,,,,,,,,,,,,,,,,,,,,,,,,,,,,,
,,,,,,,,2023-08-16_08h43.37.910,HF_wild_card,2022.2.4,Win32,2.222296299,59497c498fb2140001afda85,64d2fd46c836a06233681665,64dc7df8fbb02c379c4e5762,,,,,,,ctch,resources/DB.BMP,resources/DP.BMP,Door3,-0.2171875,-0.045572917,1,0,0,4.0634,optionLeft,70,2555,2,2,0,2,0,1,,,,,,,,,,,,,,,,,,,,,,,,,,,,,,,,,,,,,,,
,,,,,,,,2023-08-16_08h43.37.910,HF_wild_card,2022.2.4,Win32,2.222296299,59497c498fb2140001afda85,64d2fd46c836a06233681665,64dc7df8fbb02c379c4e5762,,,,,,,ctch,resources/DG.BMP,resources/DR.BMP,Door4,0.27890625,-0.029947917,1,0,0,3.6863,optionRight,80,2635,2,3,0,3,0,1,,,,,,,,,,,,,,,,,,,,,,,,,,,,,,,,,,,,,,,
,,,,,,,,2023-08-16_08h43.37.910,HF_wild_card,2022.2.4,Win32,2.222296299,59497c498fb2140001afda85,64d2fd46c836a06233681665,64dc7df8fbb02c379c4e5762,,,,,,,decisionTrl,resources/DR.BMP,resources/DB.BMP,Door4,-0.4671875,-0.165364583,1,0,0,6.8527,optionLeft,80,2715,2,4,0,4,0,1,,,,,,,,,,,,,,,,,,,,,,,,,,,,,,,,,,,,,,,
,,,,,,,,2023-08-16_08h43.37.910,HF_wild_card,2022.2.4,Win32,2.222296299,59497c498fb2140001afda85,64d2fd46c836a06233681665,64dc7df8fbb02c379c4e5762,,,,,,,decisionTrl,resources/DBN.BMP,resources/DG.BMP,Door1,0.295833333,-0.032552083,1,0,0,5.859,optionRight,30,2745,2,5,0,5,0,1,,,,,,,,,,,,,,,,,,,,,,,,,,,,,,,,,,,,,,,
,,,,,,,,2023-08-16_08h43.37.910,HF_wild_card,2022.2.4,Win32,2.222296299,59497c498fb2140001afda85,64d2fd46c836a06233681665,64dc7df8fbb02c379c4e5762,,,,,,,decisionTrl,resources/DB.BMP,resources/DR.BMP,Door4,0.342708333,-0.036458333,1,0,0,2.0721,optionRight,80,2825,2,6,0,6,0,1,,,,,,,,,,,,,,,,,,,,,,,,,,,,,,,,,,,,,,,
,,,,,,,,2023-08-16_08h43.37.910,HF_wild_card,2022.2.4,Win32,2.222296299,59497c498fb2140001afda85,64d2fd46c836a06233681665,64dc7df8fbb02c379c4e5762,,,,,,,decisionTrl,resources/DP.BMP,resources/DG.BMP,Door1,0.308854167,-0.079427083,1,0,0,2.0704,optionRight,30,2855,2,7,0,7,0,1,,,,,,,,,,,,,,,,,,,,,,,,,,,,,,,,,,,,,,,
,,,,,,,,2023-08-16_08h43.37.910,HF_wild_card,2022.2.4,Win32,2.222296299,59497c498fb2140001afda85,64d2fd46c836a06233681665,64dc7df8fbb02c379c4e5762,,,,,,,decisionTrl,resources/DP.BMP,resources/DG.BMP,Door2,-0.210677083,-0.072916667,1,0,0,3.6178,optionLeft,40,2895,2,8,0,8,0,1,,,,,,,,,,,,,,,,,,,,,,,,,,,,,,,,,,,,,,,
,,,,,,,,2023-08-16_08h43.37.910,HF_wild_card,2022.2.4,Win32,2.222296299,59497c498fb2140001afda85,64d2fd46c836a06233681665,64dc7df8fbb02c379c4e5762,,,,,,,decisionTrl,resources/DR.BMP,resources/DB.BMP,Door4,-0.175520833,-0.07421875,1,0,0,4.582,optionLeft,80,2975,2,9,0,9,0,1,,,,,,,,,,,,,,,,,,,,,,,,,,,,,,,,,,,,,,,
,,,,,,,,2023-08-16_08h43.37.910,HF_wild_card,2022.2.4,Win32,2.222296299,59497c498fb2140001afda85,64d2fd46c836a06233681665,64dc7df8fbb02c379c4e5762,,,,,,,decisionTrl,resources/DBN.BMP,resources/DB.BMP,Door3,0.205989583,0.016927083,1,0,0,2.0695,optionRight,70,3045,2,10,0,10,0,1,,,,,,,,,,,,,,,,,,,,,,,,,,,,,,,,,,,,,,,
,,,,,,,,2023-08-16_08h43.37.910,HF_wild_card,2022.2.4,Win32,2.222296299,59497c498fb2140001afda85,64d2fd46c836a06233681665,64dc7df8fbb02c379c4e5762,,,,,,,decisionTrl,resources/DP.BMP,resources/DBN.BMP,Door2,-0.25625,-0.088541667,1,0,0,5.7537,optionLeft,40,3085,2,11,0,11,0,1,,,,,,,,,,,,,,,,,,,,,,,,,,,,,,,,,,,,,,,
,,,,,,,,2023-08-16_08h43.37.910,HF_wild_card,2022.2.4,Win32,2.222296299,59497c498fb2140001afda85,64d2fd46c836a06233681665,64dc7df8fbb02c379c4e5762,,,,,,,decisionTrl,resources/DG.BMP,resources/DBN.BMP,WildCard_Ex,0.222916667,-0.057291667,1,0,0,2.1999,optionRight,5,3090,2,12,0,12,0,1,,,,,,,,,,,,,,,,,,,,,,,,,,,,,,,,,,,,,,,
,,,,,,,,2023-08-16_08h43.37.910,HF_wild_card,2022.2.4,Win32,2.222296299,59497c498fb2140001afda85,64d2fd46c836a06233681665,64dc7df8fbb02c379c4e5762,,,,,,,ctch,resources/DP.BMP,resources/DB.BMP,Door2,-0.29921875,-0.075520833,1,0,0,1.5096,optionLeft,20,3110,2,13,0,13,0,1,,,,,,,,,,,,,,,,,,,,,,,,,,,,,,,,,,,,,,,
,,,,,,,,2023-08-16_08h43.37.910,HF_wild_card,2022.2.4,Win32,2.222296299,59497c498fb2140001afda85,64d2fd46c836a06233681665,64dc7df8fbb02c379c4e5762,,,,,,,sngl,resources/DB.BMP,resources/Empty.png,Door3,-0.317447917,-0.02734375,1,0,0,3.2852,optionLeft,70,3180,2,14,0,14,0,1,,,,,,,,,,,,,,,,,,,,,,,,,,,,,,,,,,,,,,,
,,,,,,,,2023-08-16_08h43.37.910,HF_wild_card,2022.2.4,Win32,2.222296299,59497c498fb2140001afda85,64d2fd46c836a06233681665,64dc7df8fbb02c379c4e5762,,,,,,,sngl,resources/DBN.BMP,resources/Empty.png,WildCard_Ex,-0.211979167,-0.029947917,1,0,0,3.8982,optionLeft,95,3275,2,15,0,15,0,1,,,,,,,,,,,,,,,,,,,,,,,,,,,,,,,,,,,,,,,
,,,,,,,,2023-08-16_08h43.37.910,HF_wild_card,2022.2.4,Win32,2.222296299,59497c498fb2140001afda85,64d2fd46c836a06233681665,64dc7df8fbb02c379c4e5762,,,,,,,decisionTrl,resources/DBN.BMP,resources/DR.BMP,Door4,0.347916667,0.005208333,1,0,0,4.8339,optionRight,80,3355,2,16,0,16,0,1,,,,,,,,,,,,,,,,,,,,,,,,,,,,,,,,,,,,,,,
,,,,,,,,2023-08-16_08h43.37.910,HF_wild_card,2022.2.4,Win32,2.222296299,59497c498fb2140001afda85,64d2fd46c836a06233681665,64dc7df8fbb02c379c4e5762,,,,,,,sngl,resources/Empty.png,resources/DP.BMP,Door2,0.3609375,-0.07421875,1,0,0,1.9327,optionRight,40,3395,2,17,0,17,0,1,,,,,,,,,,,,,,,,,,,,,,,,,,,,,,,,,,,,,,,
,,,,,,,,2023-08-16_08h43.37.910,HF_wild_card,2022.2.4,Win32,2.222296299,59497c498fb2140001afda85,64d2fd46c836a06233681665,64dc7df8fbb02c379c4e5762,,,,,,,sngl,resources/Empty.png,resources/DBN.BMP,WildCard_Ex,0.32578125,-0.001302083,1,0,0,1.8391,optionRight,5,3400,2,18,0,18,0,1,,,,,,,,,,,,,,,,,,,,,,,,,,,,,,,,,,,,,,,
,,,,,,,,2023-08-16_08h43.37.910,HF_wild_card,2022.2.4,Win32,2.222296299,59497c498fb2140001afda85,64d2fd46c836a06233681665,64dc7df8fbb02c379c4e5762,,,,,,,decisionTrl,resources/DB.BMP,resources/DBN.BMP,Door3,-0.29140625,-0.033854167,1,0,0,1.3535,optionLeft,70,3470,2,19,0,19,0,1,,,,,,,,,,,,,,,,,,,,,,,,,,,,,,,,,,,,,,,
,,,,,,,,2023-08-16_08h43.37.910,HF_wild_card,2022.2.4,Win32,2.222296299,59497c498fb2140001afda85,64d2fd46c836a06233681665,64dc7df8fbb02c379c4e5762,,,,,,,decisionTrl,resources/DR.BMP,resources/DB.BMP,Door4,-0.305729167,-0.044270833,1,0,0,8.9246,optionLeft,60,3530,2,20,0,20,0,1,,,,,,,,,,,,,,,,,,,,,,,,,,,,,,,,,,,,,,,
,,,,,,,,2023-08-16_08h43.37.910,HF_wild_card,2022.2.4,Win32,2.222296299,59497c498fb2140001afda85,64d2fd46c836a06233681665,64dc7df8fbb02c379c4e5762,,,,,,,decisionTrl,resources/DG.BMP,resources/DP.BMP,Door2,0.321875,-0.02734375,1,0,0,2.0516,optionRight,20,3550,2,21,0,21,0,1,,,,,,,,,,,,,,,,,,,,,,,,,,,,,,,,,,,,,,,
,,,,,,,,2023-08-16_08h43.37.910,HF_wild_card,2022.2.4,Win32,2.222296299,59497c498fb2140001afda85,64d2fd46c836a06233681665,64dc7df8fbb02c379c4e5762,,,,,,,ctch,resources/DB.BMP,resources/DP.BMP,Door2,0.45078125,-0.065104167,1,0,0,4.0597,optionRight,40,3590,2,22,0,22,0,1,,,,,,,,,,,,,,,,,,,,,,,,,,,,,,,,,,,,,,,
,,,,,,,,2023-08-16_08h43.37.910,HF_wild_card,2022.2.4,Win32,2.222296299,59497c498fb2140001afda85,64d2fd46c836a06233681665,64dc7df8fbb02c379c4e5762,,,,,,,decisionTrl,resources/DB.BMP,resources/DR.BMP,Door4,0.230729167,0.02734375,1,0,0,2.1757,optionRight,80,3670,2,23,0,23,0,1,,,,,,,,,,,,,,,,,,,,,,,,,,,,,,,,,,,,,,,
,,,,,,,,2023-08-16_08h43.37.910,HF_wild_card,2022.2.4,Win32,2.222296299,59497c498fb2140001afda85,64d2fd46c836a06233681665,64dc7df8fbb02c379c4e5762,,,,,,,ctch,resources/DR.BMP,resources/DG.BMP,Door4,-0.2953125,-0.040364583,1,0,0,3.7042,optionLeft,60,3730,2,24,0,24,0,1,,,,,,,,,,,,,,,,,,,,,,,,,,,,,,,,,,,,,,,
,,,,,,,,2023-08-16_08h43.37.910,HF_wild_card,2022.2.4,Win32,2.222296299,59497c498fb2140001afda85,64d2fd46c836a06233681665,64dc7df8fbb02c379c4e5762,,,,,,,decisionTrl,resources/DG.BMP,resources/DP.BMP,Door2,0.389583333,-0.053385417,1,0,0,4.727,optionRight,20,3750,2,25,0,25,0,1,,,,,,,,,,,,,,,,,,,,,,,,,,,,,,,,,,,,,,,
,,,,,,,,2023-08-16_08h43.37.910,HF_wild_card,2022.2.4,Win32,2.222296299,59497c498fb2140001afda85,64d2fd46c836a06233681665,64dc7df8fbb02c379c4e5762,,,,,,,sngl,resources/DG.BMP,resources/Empty.png,Door1,-0.2640625,-0.016927083,1,0,0,3.6608,optionLeft,30,3780,2,26,0,26,0,1,,,,,,,,,,,,,,,,,,,,,,,,,,,,,,,,,,,,,,,
,,,,,,,,2023-08-16_08h43.37.910,HF_wild_card,2022.2.4,Win32,2.222296299,59497c498fb2140001afda85,64d2fd46c836a06233681665,64dc7df8fbb02c379c4e5762,,,,,,,decisionTrl,resources/DBN.BMP,resources/DP.BMP,Door2,0.39609375,-0.00390625,1,0,0,2.8331,optionRight,20,3800,2,27,0,27,0,1,,,,,,,,,,,,,,,,,,,,,,,,,,,,,,,,,,,,,,,
,,,,,,,,2023-08-16_08h43.37.910,HF_wild_card,2022.2.4,Win32,2.222296299,59497c498fb2140001afda85,64d2fd46c836a06233681665,64dc7df8fbb02c379c4e5762,,,,,,,sngl,resources/Empty.png,resources/DB.BMP,Door3,0.386979167,0.006510417,1,0,0,1.8689,optionRight,70,3870,2,28,0,28,0,1,,,,,,,,,,,,,,,,,,,,,,,,,,,,,,,,,,,,,,,
,,,,,,,,2023-08-16_08h43.37.910,HF_wild_card,2022.2.4,Win32,2.222296299,59497c498fb2140001afda85,64d2fd46c836a06233681665,64dc7df8fbb02c379c4e5762,,,,,,,decisionTrl,resources/DP.BMP,resources/DG.BMP,Door1,0.332291667,-0.045572917,1,0,0,2.1411,optionRight,30,3900,2,29,0,29,0,1,,,,,,,,,,,,,,,,,,,,,,,,,,,,,,,,,,,,,,,
,,,,,,,,2023-08-16_08h43.37.910,HF_wild_card,2022.2.4,Win32,2.222296299,59497c498fb2140001afda85,64d2fd46c836a06233681665,64dc7df8fbb02c379c4e5762,,,,,,,sngl,resources/Empty.png,resources/DBN.BMP,WildCard_Ex,0.297135417,-0.014322917,1,0,0,1.8752,optionRight,95,3995,2,30,0,30,0,1,,,,,,,,,,,,,,,,,,,,,,,,,,,,,,,,,,,,,,,
,,,,,,,,2023-08-16_08h43.37.910,HF_wild_card,2022.2.4,Win32,2.222296299,59497c498fb2140001afda85,64d2fd46c836a06233681665,64dc7df8fbb02c379c4e5762,,,,,,,decisionTrl,resources/DR.BMP,resources/DB.BMP,Door4,-0.344791667,-0.016927083,1,0,0,4.2129,optionLeft,60,4055,2,31,0,31,0,1,,,,,,,,,,,,,,,,,,,,,,,,,,,,,,,,,,,,,,,
,,,,,,,,2023-08-16_08h43.37.910,HF_wild_card,2022.2.4,Win32,2.222296299,59497c498fb2140001afda85,64d2fd46c836a06233681665,64dc7df8fbb02c379c4e5762,,,,,,,decisionTrl,resources/DG.BMP,resources/DP.BMP,Door2,0.390885417,-0.12890625,1,0,0,2.163,optionRight,40,4095,2,32,0,32,0,1,,,,,,,,,,,,,,,,,,,,,,,,,,,,,,,,,,,,,,,
,,,,,,,,2023-08-16_08h43.37.910,HF_wild_card,2022.2.4,Win32,2.222296299,59497c498fb2140001afda85,64d2fd46c836a06233681665,64dc7df8fbb02c379c4e5762,,,,,,,sngl,resources/DBN.BMP,resources/Empty.png,WildCard_Ex,-0.292708333,-0.067708333,1,0,0,1.3321,optionLeft,5,4100,2,33,0,33,0,1,,,,,,,,,,,,,,,,,,,,,,,,,,,,,,,,,,,,,,,
,,,,,,,,2023-08-16_08h43.37.910,HF_wild_card,2022.2.4,Win32,2.222296299,59497c498fb2140001afda85,64d2fd46c836a06233681665,64dc7df8fbb02c379c4e5762,,,,,,,sngl,resources/DR.BMP,resources/Empty.png,Door4,-0.43984375,0.0078125,1,0,0,2.4605,optionLeft,60,4160,2,34,0,34,0,1,,,,,,,,,,,,,,,,,,,,,,,,,,,,,,,,,,,,,,,
,,,,,,,,2023-08-16_08h43.37.910,HF_wild_card,2022.2.4,Win32,2.222296299,59497c498fb2140001afda85,64d2fd46c836a06233681665,64dc7df8fbb02c379c4e5762,,,,,,,decisionTrl,resources/DB.BMP,resources/DR.BMP,Door4,0.432552083,-0.057291667,1,0,0,2.1288,optionRight,80,4240,2,35,0,35,0,1,,,,,,,,,,,,,,,,,,,,,,,,,,,,,,,,,,,,,,,
,,,,,,,,2023-08-16_08h43.37.910,HF_wild_card,2022.2.4,Win32,2.222296299,59497c498fb2140001afda85,64d2fd46c836a06233681665,64dc7df8fbb02c379c4e5762,,,,,,,ctch,resources/DR.BMP,resources/DG.BMP,Door4,-0.251041667,-0.063802083,1,0,0,4.2412,optionLeft,80,4320,2,36,0,36,0,1,,,,,,,,,,,,,,,,,,,,,,,,,,,,,,,,,,,,,,,
,,,,,,,,2023-08-16_08h43.37.910,HF_wild_card,2022.2.4,Win32,2.222296299,59497c498fb2140001afda85,64d2fd46c836a06233681665,64dc7df8fbb02c379c4e5762,,,,,,,decisionTrl,resources/DB.BMP,resources/DR.BMP,Door4,0.4,-0.03515625,1,0,0,6.2742,optionRight,80,4400,2,37,0,37,0,1,,,,,,,,,,,,,,,,,,,,,,,,,,,,,,,,,,,,,,,
,,,,,,,,2023-08-16_08h43.37.910,HF_wild_card,2022.2.4,Win32,2.222296299,59497c498fb2140001afda85,64d2fd46c836a06233681665,64dc7df8fbb02c379c4e5762,,,,,,,decisionTrl,resources/DR.BMP,resources/DBN.BMP,Door4,-0.29140625,-0.016927083,1,0,0,4.8996,optionLeft,80,4480,2,38,0,38,0,1,,,,,,,,,,,,,,,,,,,,,,,,,,,,,,,,,,,,,,,
,,,,,,,,2023-08-16_08h43.37.910,HF_wild_card,2022.2.4,Win32,2.222296299,59497c498fb2140001afda85,64d2fd46c836a06233681665,64dc7df8fbb02c379c4e5762,,,,,,,ctch,resources/DG.BMP,resources/DR.BMP,Door4,0.3765625,-0.04296875,1,0,0,3.5478,optionRight,80,4560,2,39,0,39,0,1,,,,,,,,,,,,,,,,,,,,,,,,,,,,,,,,,,,,,,,
,,,,,,,,2023-08-16_08h43.37.910,HF_wild_card,2022.2.4,Win32,2.222296299,59497c498fb2140001afda85,64d2fd46c836a06233681665,64dc7df8fbb02c379c4e5762,,,,,,,sngl,resources/Empty.png,resources/DG.BMP,Door1,0.311458333,-0.03125,1,0,0,1.9813,optionRight,30,4590,2,40,0,40,0,1,,,,,,,,,,,,,,,,,,,,,,,,,,,,,,,,,,,,,,,
,,,,,,,,2023-08-16_08h43.37.910,HF_wild_card,2022.2.4,Win32,2.222296299,59497c498fb2140001afda85,64d2fd46c836a06233681665,64dc7df8fbb02c379c4e5762,,,,,,,ctch,resources/DP.BMP,resources/DB.BMP,Door3,0.259375,-0.059895833,1,0,0,5.4406,optionRight,70,4660,2,41,0,41,0,1,,,,,,,,,,,,,,,,,,,,,,,,,,,,,,,,,,,,,,,
,,,,,,,,2023-08-16_08h43.37.910,HF_wild_card,2022.2.4,Win32,2.222296299,59497c498fb2140001afda85,64d2fd46c836a06233681665,64dc7df8fbb02c379c4e5762,,,,,,,decisionTrl,resources/DP.BMP,resources/DG.BMP,Door2,-0.32265625,-0.0625,1,0,0,2.0577,optionLeft,20,4680,2,42,0,42,0,1,,,,,,,,,,,,,,,,,,,,,,,,,,,,,,,,,,,,,,,
,,,,,,,,2023-08-16_08h43.37.910,HF_wild_card,2022.2.4,Win32,2.222296299,59497c498fb2140001afda85,64d2fd46c836a06233681665,64dc7df8fbb02c379c4e5762,,,,,,,decisionTrl,resources/DG.BMP,resources/DP.BMP,Door2,0.355729167,-0.095052083,1,0,0,2.2832,optionRight,20,4700,2,43,0,43,0,1,,,,,,,,,,,,,,,,,,,,,,,,,,,,,,,,,,,,,,,
,,,,,,,,2023-08-16_08h43.37.910,HF_wild_card,2022.2.4,Win32,2.222296299,59497c498fb2140001afda85,64d2fd46c836a06233681665,64dc7df8fbb02c379c4e5762,,,,,,,,,,,,,,,,,,,,,,,,,,1,0,1,0,1,,,,,,,,,,,,,,,,,,,,,,,,,,,,,,,,,,
,,,,,,,,2023-08-16_08h43.37.910,HF_wild_card,2022.2.4,Win32,2.222296299,59497c498fb2140001afda85,64d2fd46c836a06233681665,64dc7df8fbb02c379c4e5762,,,,,,,decisionTrl,resources/DB.BMP,resources/DBN.BMP,Door3,-0.161197917,-0.1328125,1,0,0,2.1371,optionLeft,70,4770,3,0,0,0,0,1,,,,,,,,,,,,,,,,,,,,,,,,,,,,,,,,,,,,,,,
,,,,,,,,2023-08-16_08h43.37.910,HF_wild_card,2022.2.4,Win32,2.222296299,59497c498fb2140001afda85,64d2fd46c836a06233681665,64dc7df8fbb02c379c4e5762,,,,,,,ctch,resources/DB.BMP,resources/DP.BMP,Door3,-0.29921875,-0.05078125,1,0,0,11.6586,optionLeft,70,4840,3,1,0,1,0,1,,,,,,,,,,,,,,,,,,,,,,,,,,,,,,,,,,,,,,,
,,,,,,,,2023-08-16_08h43.37.910,HF_wild_card,2022.2.4,Win32,2.222296299,59497c498fb2140001afda85,64d2fd46c836a06233681665,64dc7df8fbb02c379c4e5762,,,,,,,decisionTrl,resources/DB.BMP,resources/DR.BMP,Door4,0.28671875,-0.0078125,1,0,0,6.7401,optionRight,60,4900,3,2,0,2,0,1,,,,,,,,,,,,,,,,,,,,,,,,,,,,,,,,,,,,,,,
,,,,,,,,2023-08-16_08h43.37.910,HF_wild_card,2022.2.4,Win32,2.222296299,59497c498fb2140001afda85,64d2fd46c836a06233681665,64dc7df8fbb02c379c4e5762,,,,,,,sngl,resources/Empty.png,resources/DP.BMP,Door2,0.328385417,-0.045572917,1,0,0,5.0172,optionRight,20,4920,3,3,0,3,0,1,,,,,,,,,,,,,,,,,,,,,,,,,,,,,,,,,,,,,,,
,,,,,,,,2023-08-16_08h43.37.910,HF_wild_card,2022.2.4,Win32,2.222296299,59497c498fb2140001afda85,64d2fd46c836a06233681665,64dc7df8fbb02c379c4e5762,,,,,,,ctch,resources/DG.BMP,resources/DR.BMP,Door1,-0.278385417,-0.044270833,1,0,0,4.3104,optionLeft,30,4950,3,4,0,4,0,1,,,,,,,,,,,,,,,,,,,,,,,,,,,,,,,,,,,,,,,
,,,,,,,,2023-08-16_08h43.37.910,HF_wild_card,2022.2.4,Win32,2.222296299,59497c498fb2140001afda85,64d2fd46c836a06233681665,64dc7df8fbb02c379c4e5762,,,,,,,sngl,resources/Empty.png,resources/DR.BMP,Door4,0.31015625,-0.014322917,1,0,0,1.8697,optionRight,60,5010,3,5,0,5,0,1,,,,,,,,,,,,,,,,,,,,,,,,,,,,,,,,,,,,,,,
,,,,,,,,2023-08-16_08h43.37.910,HF_wild_card,2022.2.4,Win32,2.222296299,59497c498fb2140001afda85,64d2fd46c836a06233681665,64dc7df8fbb02c379c4e5762,,,,,,,sngl,resources/DR.BMP,resources/Empty.png,Door4,-0.290104167,-0.018229167,1,0,0,1.8476,optionLeft,80,5090,3,6,0,6,0,1,,,,,,,,,,,,,,,,,,,,,,,,,,,,,,,,,,,,,,,
,,,,,,,,2023-08-16_08h43.37.910,HF_wild_card,2022.2.4,Win32,2.222296299,59497c498fb2140001afda85,64d2fd46c836a06233681665,64dc7df8fbb02c379c4e5762,,,,,,,decisionTrl,resources/DBN.BMP,resources/DB.BMP,Door3,0.264583333,0.002604167,1,0,0,2.151,optionRight,70,5160,3,7,0,7,0,1,,,,,,,,,,,,,,,,,,,,,,,,,,,,,,,,,,,,,,,
,,,,,,,,2023-08-16_08h43.37.910,HF_wild_card,2022.2.4,Win32,2.222296299,59497c498fb2140001afda85,64d2fd46c836a06233681665,64dc7df8fbb02c379c4e5762,,,,,,,ctch,resources/DB.BMP,resources/DP.BMP,Door2,0.276302083,-0.020833333,1,0,0,7.6071,optionRight,40,5200,3,8,0,8,0,1,,,,,,,,,,,,,,,,,,,,,,,,,,,,,,,,,,,,,,,
,,,,,,,,2023-08-16_08h43.37.910,HF_wild_card,2022.2.4,Win32,2.222296299,59497c498fb2140001afda85,64d2fd46c836a06233681665,64dc7df8fbb02c379c4e5762,,,,,,,ctch,resources/DG.BMP,resources/DR.BMP,Door1,-0.254947917,-0.055989583,1,0,0,2.0432,optionLeft,30,5230,3,9,0,9,0,1,,,,,,,,,,,,,,,,,,,,,,,,,,,,,,,,,,,,,,,
,,,,,,,,2023-08-16_08h43.37.910,HF_wild_card,2022.2.4,Win32,2.222296299,59497c498fb2140001afda85,64d2fd46c836a06233681665,64dc7df8fbb02c379c4e5762,,,,,,,decisionTrl,resources/DG.BMP,resources/DP.BMP,Door2,0.219010417,-0.014322917,1,0,0,2.1598,optionRight,40,5270,3,10,0,10,0,1,,,,,,,,,,,,,,,,,,,,,,,,,,,,,,,,,,,,,,,
,,,,,,,,2023-08-16_08h43.37.910,HF_wild_card,2022.2.4,Win32,2.222296299,59497c498fb2140001afda85,64d2fd46c836a06233681665,64dc7df8fbb02c379c4e5762,,,,,,,decisionTrl,resources/DR.BMP,resources/DB.BMP,Door4,-0.25625,-0.044270833,1,0,0,2.0325,optionLeft,60,5330,3,11,0,11,0,1,,,,,,,,,,,,,,,,,,,,,,,,,,,,,,,,,,,,,,,
,,,,,,,,2023-08-16_08h43.37.910,HF_wild_card,2022.2.4,Win32,2.222296299,59497c498fb2140001afda85,64d2fd46c836a06233681665,64dc7df8fbb02c379c4e5762,,,,,,,decisionTrl,resources/DG.BMP,resources/DP.BMP,Door2,0.213802083,-0.006510417,1,0,0,2.0248,optionRight,20,5350,3,12,0,12,0,1,,,,,,,,,,,,,,,,,,,,,,,,,,,,,,,,,,,,,,,
,,,,,,,,2023-08-16_08h43.37.910,HF_wild_card,2022.2.4,Win32,2.222296299,59497c498fb2140001afda85,64d2fd46c836a06233681665,64dc7df8fbb02c379c4e5762,,,,,,,decisionTrl,resources/DB.BMP,resources/DR.BMP,Door4,0.28671875,0.037760417,1,0,0,5.6206,optionRight,60,5410,3,13,0,13,0,1,,,,,,,,,,,,,,,,,,,,,,,,,,,,,,,,,,,,,,,
,,,,,,,,2023-08-16_08h43.37.910,HF_wild_card,2022.2.4,Win32,2.222296299,59497c498fb2140001afda85,64d2fd46c836a06233681665,64dc7df8fbb02c379c4e5762,,,,,,,sngl,resources/Empty.png,resources/DBN.BMP,WildCard_Ex,0.449479167,-0.0859375,1,0,0,2.0243,optionRight,5,5415,3,14,0,14,0,1,,,,,,,,,,,,,,,,,,,,,,,,,,,,,,,,,,,,,,,
,,,,,,,,2023-08-16_08h43.37.910,HF_wild_card,2022.2.4,Win32,2.222296299,59497c498fb2140001afda85,64d2fd46c836a06233681665,64dc7df8fbb02c379c4e5762,,,,,,,decisionTrl,resources/DB.BMP,resources/DR.BMP,Door3,-0.270572917,-0.040364583,1,0,0,2.1405,optionLeft,70,5485,3,15,0,15,0,1,,,,,,,,,,,,,,,,,,,,,,,,,,,,,,,,,,,,,,,
,,,,,,,,2023-08-16_08h43.37.910,HF_wild_card,2022.2.4,Win32,2.222296299,59497c498fb2140001afda85,64d2fd46c836a06233681665,64dc7df8fbb02c379c4e5762,,,,,,,decisionTrl,resources/DR.BMP,resources/DBN.BMP,Door4,-0.235416667,-0.020833333,1,0,0,2.0299,optionLeft,80,5565,3,16,0,16,0,1,,,,,,,,,,,,,,,,,,,,,,,,,,,,,,,,,,,,,,,
,,,,,,,,2023-08-16_08h43.37.910,HF_wild_card,2022.2.4,Win32,2.222296299,59497c498fb2140001afda85,64d2fd46c836a06233681665,64dc7df8fbb02c379c4e5762,,,,,,,decisionTrl,resources/DG.BMP,resources/DP.BMP,Door1,-0.226302083,-0.052083333,1,0,0,2.6648,optionLeft,30,5595,3,17,0,17,0,1,,,,,,,,,,,,,,,,,,,,,,,,,,,,,,,,,,,,,,,
,,,,,,,,2023-08-16_08h43.37.910,HF_wild_card,2022.2.4,Win32,2.222296299,59497c498fb2140001afda85,64d2fd46c836a06233681665,64dc7df8fbb02c379c4e5762,,,,,,,decisionTrl,resources/DR.BMP,resources/DB.BMP,Door3,0.20859375,-0.0078125,1,0,0,2.1347,optionRight,70,5665,3,18,0,18,0,1,,,,,,,,,,,,,,,,,,,,,,,,,,,,,,,,,,,,,,,
,,,,,,,,2023-08-16_08h43.37.910,HF_wild_card,2022.2.4,Win32,2.222296299,59497c498fb2140001afda85,64d2fd46c836a06233681665,64dc7df8fbb02c379c4e5762,,,,,,,decisionTrl,resources/DP.BMP,resources/DG.BMP,Door2,-0.294010417,-0.083333333,1,0,0,2.0378,optionLeft,20,5685,3,19,0,19,0,1,,,,,,,,,,,,,,,,,,,,,,,,,,,,,,,,,,,,,,,
,,,,,,,,2023-08-16_08h43.37.910,HF_wild_card,2022.2.4,Win32,2.222296299,59497c498fb2140001afda85,64d2fd46c836a06233681665,64dc7df8fbb02c379c4e5762,,,,,,,decisionTrl,resources/DP.BMP,resources/DBN.BMP,Door2,-0.3109375,-0.087239583,1,0,0,13.5549,optionLeft,40,5725,3,20,0,20,0,1,,,,,,,,,,,,,,,,,,,,,,,,,,,,,,,,,,,,,,,
,,,,,,,,2023-08-16_08h43.37.910,HF_wild_card,2022.2.4,Win32,2.222296299,59497c498fb2140001afda85,64d2fd46c836a06233681665,64dc7df8fbb02c379c4e5762,,,,,,,sngl,resources/DP.BMP,resources/Empty.png,Door2,-0.238020833,-0.044270833,1,0,0,1.946,optionLeft,40,5765,3,21,0,21,0,1,,,,,,,,,,,,,,,,,,,,,,,,,,,,,,,,,,,,,,,
,,,,,,,,2023-08-16_08h43.37.910,HF_wild_card,2022.2.4,Win32,2.222296299,59497c498fb2140001afda85,64d2fd46c836a06233681665,64dc7df8fbb02c379c4e5762,,,,,,,ctch,resources/DR.BMP,resources/DG.BMP,Door4,-0.258854167,-0.053385417,1,0,0,4.158,optionLeft,60,5825,3,22,0,22,0,1,,,,,,,,,,,,,,,,,,,,,,,,,,,,,,,,,,,,,,,
,,,,,,,,2023-08-16_08h43.37.910,HF_wild_card,2022.2.4,Win32,2.222296299,59497c498fb2140001afda85,64d2fd46c836a06233681665,64dc7df8fbb02c379c4e5762,,,,,,,decisionTrl,resources/DBN.BMP,resources/DP.BMP,Door2,0.350520833,-0.015625,1,0,0,2.0509,optionRight,40,5865,3,23,0,23,0,1,,,,,,,,,,,,,,,,,,,,,,,,,,,,,,,,,,,,,,,
,,,,,,,,2023-08-16_08h43.37.910,HF_wild_card,2022.2.4,Win32,2.222296299,59497c498fb2140001afda85,64d2fd46c836a06233681665,64dc7df8fbb02c379c4e5762,,,,,,,ctch,resources/DP.BMP,resources/DB.BMP,Door2,-0.249739583,-0.057291667,1,0,0,2.0408,optionLeft,40,5905,3,24,0,24,0,1,,,,,,,,,,,,,,,,,,,,,,,,,,,,,,,,,,,,,,,
,,,,,,,,2023-08-16_08h43.37.910,HF_wild_card,2022.2.4,Win32,2.222296299,59497c498fb2140001afda85,64d2fd46c836a06233681665,64dc7df8fbb02c379c4e5762,,,,,,,decisionTrl,resources/DBN.BMP,resources/DR.BMP,Door4,0.3375,0.015625,1,0,0,3.5627,optionRight,80,5985,3,25,0,25,0,1,,,,,,,,,,,,,,,,,,,,,,,,,,,,,,,,,,,,,,,
,,,,,,,,2023-08-16_08h43.37.910,HF_wild_card,2022.2.4,Win32,2.222296299,59497c498fb2140001afda85,64d2fd46c836a06233681665,64dc7df8fbb02c379c4e5762,,,,,,,decisionTrl,resources/DP.BMP,resources/DG.BMP,Door2,-0.270572917,-0.041666667,1,0,0,3.0788,optionLeft,20,6005,3,26,0,26,0,1,,,,,,,,,,,,,,,,,,,,,,,,,,,,,,,,,,,,,,,
,,,,,,,,2023-08-16_08h43.37.910,HF_wild_card,2022.2.4,Win32,2.222296299,59497c498fb2140001afda85,64d2fd46c836a06233681665,64dc7df8fbb02c379c4e5762,,,,,,,sngl,resources/Empty.png,resources/DB.BMP,Door3,0.3609375,0.092447917,1,0,0,2.4812,optionRight,70,6075,3,27,0,27,0,1,,,,,,,,,,,,,,,,,,,,,,,,,,,,,,,,,,,,,,,
,,,,,,,,2023-08-16_08h43.37.910,HF_wild_card,2022.2.4,Win32,2.222296299,59497c498fb2140001afda85,64d2fd46c836a06233681665,64dc7df8fbb02c379c4e5762,,,,,,,ctch,resources/DP.BMP,resources/DB.BMP,Door2,-0.25234375,-0.032552083,1,0,0,2.7748,optionLeft,20,6095,3,28,0,28,0,1,,,,,,,,,,,,,,,,,,,,,,,,,,,,,,,,,,,,,,,
,,,,,,,,2023-08-16_08h43.37.910,HF_wild_card,2022.2.4,Win32,2.222296299,59497c498fb2140001afda85,64d2fd46c836a06233681665,64dc7df8fbb02c379c4e5762,,,,,,,sngl,resources/DBN.BMP,resources/Empty.png,WildCard_Ex,-0.3109375,-0.053385417,1,0,0,2.7686,optionLeft,5,6100,3,29,0,29,0,1,,,,,,,,,,,,,,,,,,,,,,,,,,,,,,,,,,,,,,,
,,,,,,,,2023-08-16_08h43.37.910,HF_wild_card,2022.2.4,Win32,2.222296299,59497c498fb2140001afda85,64d2fd46c836a06233681665,64dc7df8fbb02c379c4e5762,,,,,,,sngl,resources/Empty.png,resources/DBN.BMP,WildCard_Ex,0.355729167,-0.001302083,1,0,0,2.0142,optionRight,95,6195,3,30,0,30,0,1,,,,,,,,,,,,,,,,,,,,,,,,,,,,,,,,,,,,,,,
,,,,,,,,2023-08-16_08h43.37.910,HF_wild_card,2022.2.4,Win32,2.222296299,59497c498fb2140001afda85,64d2fd46c836a06233681665,64dc7df8fbb02c379c4e5762,,,,,,,decisionTrl,resources/DBN.BMP,resources/DG.BMP,Door1,0.362239583,-0.180989583,1,0,0,2.7457,optionRight,30,6225,3,31,0,31,0,1,,,,,,,,,,,,,,,,,,,,,,,,,,,,,,,,,,,,,,,
,,,,,,,,2023-08-16_08h43.37.910,HF_wild_card,2022.2.4,Win32,2.222296299,59497c498fb2140001afda85,64d2fd46c836a06233681665,64dc7df8fbb02c379c4e5762,,,,,,,sngl,resources/Empty.png,resources/DG.BMP,Door1,0.28671875,0.0390625,1,0,0,1.9506,optionRight,30,6255,3,32,0,32,0,1,,,,,,,,,,,,,,,,,,,,,,,,,,,,,,,,,,,,,,,
,,,,,,,,2023-08-16_08h43.37.910,HF_wild_card,2022.2.4,Win32,2.222296299,59497c498fb2140001afda85,64d2fd46c836a06233681665,64dc7df8fbb02c379c4e5762,,,,,,,decisionTrl,resources/DP.BMP,resources/DG.BMP,Door2,-0.365625,0.026041667,1,0,0,7.2425,optionLeft,20,6275,3,33,0,33,0,1,,,,,,,,,,,,,,,,,,,,,,,,,,,,,,,,,,,,,,,
,,,,,,,,2023-08-16_08h43.37.910,HF_wild_card,2022.2.4,Win32,2.222296299,59497c498fb2140001afda85,64d2fd46c836a06233681665,64dc7df8fbb02c379c4e5762,,,,,,,sngl,resources/DG.BMP,resources/Empty.png,Door1,-0.304427083,0.00390625,1,0,0,3.9329,optionLeft,30,6305,3,34,0,34,0,1,,,,,,,,,,,,,,,,,,,,,,,,,,,,,,,,,,,,,,,
,,,,,,,,2023-08-16_08h43.37.910,HF_wild_card,2022.2.4,Win32,2.222296299,59497c498fb2140001afda85,64d2fd46c836a06233681665,64dc7df8fbb02c379c4e5762,,,,,,,ctch,resources/DR.BMP,resources/DG.BMP,Door4,-0.402083333,-0.08203125,1,0,0,2.8468,optionLeft,60,6365,3,35,0,35,0,1,,,,,,,,,,,,,,,,,,,,,,,,,,,,,,,,,,,,,,,
,,,,,,,,2023-08-16_08h43.37.910,HF_wild_card,2022.2.4,Win32,2.222296299,59497c498fb2140001afda85,64d2fd46c836a06233681665,64dc7df8fbb02c379c4e5762,,,,,,,sngl,resources/DBN.BMP,resources/Empty.png,WildCard_Ex,-0.2484375,0.015625,1,0,0,2.0504,optionLeft,95,6460,3,36,0,36,0,1,,,,,,,,,,,,,,,,,,,,,,,,,,,,,,,,,,,,,,,
,,,,,,,,2023-08-16_08h43.37.910,HF_wild_card,2022.2.4,Win32,2.222296299,59497c498fb2140001afda85,64d2fd46c836a06233681665,64dc7df8fbb02c379c4e5762,,,,,,,decisionTrl,resources/DR.BMP,resources/DB.BMP,Door4,-0.262760417,-0.04296875,1,0,0,2.8517,optionLeft,60,6520,3,37,0,37,0,1,,,,,,,,,,,,,,,,,,,,,,,,,,,,,,,,,,,,,,,
,,,,,,,,2023-08-16_08h43.37.910,HF_wild_card,2022.2.4,Win32,2.222296299,59497c498fb2140001afda85,64d2fd46c836a06233681665,64dc7df8fbb02c379c4e5762,,,,,,,sngl,resources/DB.BMP,resources/Empty.png,Door3,-0.29921875,0.013020833,1,0,0,2.5161,optionLeft,70,6590,3,38,0,38,0,1,,,,,,,,,,,,,,,,,,,,,,,,,,,,,,,,,,,,,,,
,,,,,,,,2023-08-16_08h43.37.910,HF_wild_card,2022.2.4,Win32,2.222296299,59497c498fb2140001afda85,64d2fd46c836a06233681665,64dc7df8fbb02c379c4e5762,,,,,,,decisionTrl,resources/DR.BMP,resources/DB.BMP,Door3,0.268489583,0.01953125,1,0,0,2.7704,optionRight,70,6660,3,39,0,39,0,1,,,,,,,,,,,,,,,,,,,,,,,,,,,,,,,,,,,,,,,
,,,,,,,,2023-08-16_08h43.37.910,HF_wild_card,2022.2.4,Win32,2.222296299,59497c498fb2140001afda85,64d2fd46c836a06233681665,64dc7df8fbb02c379c4e5762,,,,,,,decisionTrl,resources/DG.BMP,resources/DBN.BMP,Door1,-0.251041667,0.01953125,1,0,0,2.1545,optionLeft,30,6690,3,40,0,40,0,1,,,,,,,,,,,,,,,,,,,,,,,,,,,,,,,,,,,,,,,
,,,,,,,,2023-08-16_08h43.37.910,HF_wild_card,2022.2.4,Win32,2.222296299,59497c498fb2140001afda85,64d2fd46c836a06233681665,64dc7df8fbb02c379c4e5762,,,,,,,decisionTrl,resources/DB.BMP,resources/DR.BMP,Door4,0.289322917,0.001302083,1,0,0,2.0535,optionRight,60,6750,3,41,0,41,0,1,,,,,,,,,,,,,,,,,,,,,,,,,,,,,,,,,,,,,,,
,,,,,,,,2023-08-16_08h43.37.910,HF_wild_card,2022.2.4,Win32,2.222296299,59497c498fb2140001afda85,64d2fd46c836a06233681665,64dc7df8fbb02c379c4e5762,,,,,,,decisionTrl,resources/DP.BMP,resources/DG.BMP,Door1,0.4390625,0.002604167,1,0,0,2.1419,optionRight,30,6780,3,42,0,42,0,1,,,,,,,,,,,,,,,,,,,,,,,,,,,,,,,,,,,,,,,
,,,,,,,,2023-08-16_08h43.37.910,HF_wild_card,2022.2.4,Win32,2.222296299,59497c498fb2140001afda85,64d2fd46c836a06233681665,64dc7df8fbb02c379c4e5762,,,,,,,decisionTrl,resources/DG.BMP,resources/DP.BMP,Door1,-0.2484375,-0.075520833,1,0,0,3.6003,optionLeft,30,6810,3,43,0,43,0,1,,,,,,,,,,,,,,,,,,,,,,,,,,,,,,,,,,,,,,,
,,,,,,,,2023-08-16_08h43.37.910,HF_wild_card,2022.2.4,Win32,2.222296299,59497c498fb2140001afda85,64d2fd46c836a06233681665,64dc7df8fbb02c379c4e5762,,,,,,,,,,,,,,,,,,,,,,,,,,2,0,2,0,1,,,,,,,,,,,,,,,,,,,,,,,,,,,,,,,,,,
,,,,,,,,2023-08-16_08h43.37.910,HF_wild_card,2022.2.4,Win32,2.222296299,59497c498fb2140001afda85,64d2fd46c836a06233681665,64dc7df8fbb02c379c4e5762,,,,,,,sngl,resources/Empty.png,resources/DP.BMP,Door2,0.308854167,-0.063802083,1,0,0,1.8666,optionRight,40,6850,4,0,0,0,0,1,,,,,,,,,,,,,,,,,,,,,,,,,,,,,,,,,,,,,,,
,,,,,,,,2023-08-16_08h43.37.910,HF_wild_card,2022.2.4,Win32,2.222296299,59497c498fb2140001afda85,64d2fd46c836a06233681665,64dc7df8fbb02c379c4e5762,,,,,,,decisionTrl,resources/DR.BMP,resources/DB.BMP,Door4,-0.294010417,-0.122395833,1,0,0,3.5712,optionLeft,80,6930,4,1,0,1,0,1,,,,,,,,,,,,,,,,,,,,,,,,,,,,,,,,,,,,,,,
,,,,,,,,2023-08-16_08h43.37.910,HF_wild_card,2022.2.4,Win32,2.222296299,59497c498fb2140001afda85,64d2fd46c836a06233681665,64dc7df8fbb02c379c4e5762,,,,,,,sngl,resources/Empty.png,resources/DY.BMP,WildCard_NonEx,0.3609375,-0.01171875,1,0,0,3.3813,optionRight,55,6985,4,2,0,2,0,1,,,,,,,,,,,,,,,,,,,,,,,,,,,,,,,,,,,,,,,
,,,,,,,,2023-08-16_08h43.37.910,HF_wild_card,2022.2.4,Win32,2.222296299,59497c498fb2140001afda85,64d2fd46c836a06233681665,64dc7df8fbb02c379c4e5762,,,,,,,decisionTrl,resources/DP.BMP,resources/DG.BMP,Door2,-0.2640625,-0.0234375,1,0,0,2.1831,optionLeft,40,7025,4,3,0,3,0,1,,,,,,,,,,,,,,,,,,,,,,,,,,,,,,,,,,,,,,,
,,,,,,,,2023-08-16_08h43.37.910,HF_wild_card,2022.2.4,Win32,2.222296299,59497c498fb2140001afda85,64d2fd46c836a06233681665,64dc7df8fbb02c379c4e5762,,,,,,,ctch,resources/DP.BMP,resources/DB.BMP,Door3,0.332291667,-0.024739583,1,0,0,2.1546,optionRight,70,7095,4,4,0,4,0,1,,,,,,,,,,,,,,,,,,,,,,,,,,,,,,,,,,,,,,,
,,,,,,,,2023-08-16_08h43.37.910,HF_wild_card,2022.2.4,Win32,2.222296299,59497c498fb2140001afda85,64d2fd46c836a06233681665,64dc7df8fbb02c379c4e5762,,,,,,,sngl,resources/DY.BMP,resources/Empty.png,WildCard_NonEx,-0.231510417,-0.037760417,1,0,0,2.5689,optionLeft,55,7150,4,5,0,5,0,1,,,,,,,,,,,,,,,,,,,,,,,,,,,,,,,,,,,,,,,
,,,,,,,,2023-08-16_08h43.37.910,HF_wild_card,2022.2.4,Win32,2.222296299,59497c498fb2140001afda85,64d2fd46c836a06233681665,64dc7df8fbb02c379c4e5762,,,,,,,decisionTrl,resources/DB.BMP,resources/DR.BMP,Door4,0.245052083,0.00390625,1,0,0,5.4971,optionRight,80,7230,4,6,0,6,0,1,,,,,,,,,,,,,,,,,,,,,,,,,,,,,,,,,,,,,,,
,,,,,,,,2023-08-16_08h43.37.910,HF_wild_card,2022.2.4,Win32,2.222296299,59497c498fb2140001afda85,64d2fd46c836a06233681665,64dc7df8fbb02c379c4e5762,,,,,,,decisionTrl,resources/DB.BMP,resources/DR.BMP,Door3,-0.254947917,-0.044270833,1,0,0,3.4449,optionLeft,70,7300,4,7,0,7,0,1,,,,,,,,,,,,,,,,,,,,,,,,,,,,,,,,,,,,,,,
,,,,,,,,2023-08-16_08h43.37.910,HF_wild_card,2022.2.4,Win32,2.222296299,59497c498fb2140001afda85,64d2fd46c836a06233681665,64dc7df8fbb02c379c4e5762,,,,,,,decisionTrl,resources/DG.BMP,resources/DP.BMP,Door2,0.449479167,-0.022135417,1,0,0,2.747,optionRight,20,7320,4,8,0,8,0,1,,,,,,,,,,,,,,,,,,,,,,,,,,,,,,,,,,,,,,,
,,,,,,,,2023-08-16_08h43.37.910,HF_wild_card,2022.2.4,Win32,2.222296299,59497c498fb2140001afda85,64d2fd46c836a06233681665,64dc7df8fbb02c379c4e5762,,,,,,,sngl,resources/Empty.png,resources/DG.BMP,Door1,0.277604167,0.0390625,1,0,0,1.8662,optionRight,30,7350,4,9,0,9,0,1,,,,,,,,,,,,,,,,,,,,,,,,,,,,,,,,,,,,,,,
,,,,,,,,2023-08-16_08h43.37.910,HF_wild_card,2022.2.4,Win32,2.222296299,59497c498fb2140001afda85,64d2fd46c836a06233681665,64dc7df8fbb02c379c4e5762,,,,,,,ctch,resources/DB.BMP,resources/DP.BMP,Door3,-0.282291667,-0.024739583,1,0,0,2.0648,optionLeft,70,7420,4,10,0,10,0,1,,,,,,,,,,,,,,,,,,,,,,,,,,,,,,,,,,,,,,,
,,,,,,,,2023-08-16_08h43.37.910,HF_wild_card,2022.2.4,Win32,2.222296299,59497c498fb2140001afda85,64d2fd46c836a06233681665,64dc7df8fbb02c379c4e5762,,,,,,,sngl,resources/Empty.png,resources/DY.BMP,WildCard_NonEx,0.293229167,0.013020833,1,0,0,5.0214,optionRight,45,7465,4,11,0,11,0,1,,,,,,,,,,,,,,,,,,,,,,,,,,,,,,,,,,,,,,,
,,,,,,,,2023-08-16_08h43.37.910,HF_wild_card,2022.2.4,Win32,2.222296299,59497c498fb2140001afda85,64d2fd46c836a06233681665,64dc7df8fbb02c379c4e5762,,,,,,,decisionTrl,resources/DY.BMP,resources/DB.BMP,WildCard_NonEx,-0.2640625,-0.01953125,1,0,0,2.0272,optionLeft,45,7510,4,12,0,12,0,1,,,,,,,,,,,,,,,,,,,,,,,,,,,,,,,,,,,,,,,
,,,,,,,,2023-08-16_08h43.37.910,HF_wild_card,2022.2.4,Win32,2.222296299,59497c498fb2140001afda85,64d2fd46c836a06233681665,64dc7df8fbb02c379c4e5762,,,,,,,decisionTrl,resources/DR.BMP,resources/DY.BMP,WildCard_NonEx,0.269791667,-0.049479167,1,0,0,2.1627,optionRight,55,7565,4,13,0,13,0,1,,,,,,,,,,,,,,,,,,,,,,,,,,,,,,,,,,,,,,,
,,,,,,,,2023-08-16_08h43.37.910,HF_wild_card,2022.2.4,Win32,2.222296299,59497c498fb2140001afda85,64d2fd46c836a06233681665,64dc7df8fbb02c379c4e5762,,,,,,,sngl,resources/DB.BMP,resources/Empty.png,Door3,-0.231510417,-0.005208333,1,0,0,1.95,optionLeft,70,7635,4,14,0,14,0,1,,,,,,,,,,,,,,,,,,,,,,,,,,,,,,,,,,,,,,,
,,,,,,,,2023-08-16_08h43.37.910,HF_wild_card,2022.2.4,Win32,2.222296299,59497c498fb2140001afda85,64d2fd46c836a06233681665,64dc7df8fbb02c379c4e5762,,,,,,,decisionTrl,resources/DP.BMP,resources/DG.BMP,Door1,0.363541667,0.076822917,1,0,0,2.9074,optionRight,30,7665,4,15,0,15,0,1,,,,,,,,,,,,,,,,,,,,,,,,,,,,,,,,,,,,,,,
,,,,,,,,2023-08-16_08h43.37.910,HF_wild_card,2022.2.4,Win32,2.222296299,59497c498fb2140001afda85,64d2fd46c836a06233681665,64dc7df8fbb02c379c4e5762,,,,,,,decisionTrl,resources/DY.BMP,resources/DR.BMP,WildCard_NonEx,-0.2328125,-0.03125,1,0,0,2.1838,optionLeft,45,7710,4,16,0,16,0,1,,,,,,,,,,,,,,,,,,,,,,,,,,,,,,,,,,,,,,,
,,,,,,,,2023-08-16_08h43.37.910,HF_wild_card,2022.2.4,Win32,2.222296299,59497c498fb2140001afda85,64d2fd46c836a06233681665,64dc7df8fbb02c379c4e5762,,,,,,,decisionTrl,resources/DP.BMP,resources/DG.BMP,Door2,-0.22109375,-0.069010417,1,0,0,2.0763,optionLeft,40,7750,4,17,0,17,0,1,,,,,,,,,,,,,,,,,,,,,,,,,,,,,,,,,,,,,,,
,,,,,,,,2023-08-16_08h43.37.910,HF_wild_card,2022.2.4,Win32,2.222296299,59497c498fb2140001afda85,64d2fd46c836a06233681665,64dc7df8fbb02c379c4e5762,,,,,,,ctch,resources/DG.BMP,resources/DR.BMP,Door1,-0.297916667,0,1,0,0,4.3231,optionLeft,30,7780,4,18,0,18,0,1,,,,,,,,,,,,,,,,,,,,,,,,,,,,,,,,,,,,,,,
,,,,,,,,2023-08-16_08h43.37.910,HF_wild_card,2022.2.4,Win32,2.222296299,59497c498fb2140001afda85,64d2fd46c836a06233681665,64dc7df8fbb02c379c4e5762,,,,,,,sngl,resources/DP.BMP,resources/Empty.png,Door2,-0.277083333,-0.048177083,1,0,0,3.294,optionLeft,20,7800,4,19,0,19,0,1,,,,,,,,,,,,,,,,,,,,,,,,,,,,,,,,,,,,,,,
,,,,,,,,2023-08-16_08h43.37.910,HF_wild_card,2022.2.4,Win32,2.222296299,59497c498fb2140001afda85,64d2fd46c836a06233681665,64dc7df8fbb02c379c4e5762,,,,,,,decisionTrl,resources/DG.BMP,resources/DP.BMP,Door2,0.199479167,-0.055989583,1,0,0,3.5251,optionRight,40,7840,4,20,0,20,0,1,,,,,,,,,,,,,,,,,,,,,,,,,,,,,,,,,,,,,,,
,,,,,,,,2023-08-16_08h43.37.910,HF_wild_card,2022.2.4,Win32,2.222296299,59497c498fb2140001afda85,64d2fd46c836a06233681665,64dc7df8fbb02c379c4e5762,,,,,,,sngl,resources/DR.BMP,resources/Empty.png,Door4,-0.001041667,-0.00390625,1,0,0,1.3183,optionLeft,60,7900,4,21,0,21,0,1,,,,,,,,,,,,,,,,,,,,,,,,,,,,,,,,,,,,,,,
,,,,,,,,2023-08-16_08h43.37.910,HF_wild_card,2022.2.4,Win32,2.222296299,59497c498fb2140001afda85,64d2fd46c836a06233681665,64dc7df8fbb02c379c4e5762,,,,,,,ctch,resources/DB.BMP,resources/DP.BMP,Door2,0.24375,-0.048177083,1,0,0,3.3892,optionRight,20,7920,4,22,0,22,0,1,,,,,,,,,,,,,,,,,,,,,,,,,,,,,,,,,,,,,,,
,,,,,,,,2023-08-16_08h43.37.910,HF_wild_card,2022.2.4,Win32,2.222296299,59497c498fb2140001afda85,64d2fd46c836a06233681665,64dc7df8fbb02c379c4e5762,,,,,,,sngl,resources/Empty.png,resources/DR.BMP,Door4,0.27890625,-0.0625,1,0,0,1.891,optionRight,80,8000,4,23,0,23,0,1,,,,,,,,,,,,,,,,,,,,,,,,,,,,,,,,,,,,,,,
,,,,,,,,2023-08-16_08h43.37.910,HF_wild_card,2022.2.4,Win32,2.222296299,59497c498fb2140001afda85,64d2fd46c836a06233681665,64dc7df8fbb02c379c4e5762,,,,,,,decisionTrl,resources/DR.BMP,resources/DB.BMP,Door4,-0.290104167,-0.029947917,1,0,0,1.3773,optionLeft,80,8080,4,24,0,24,0,1,,,,,,,,,,,,,,,,,,,,,,,,,,,,,,,,,,,,,,,
,,,,,,,,2023-08-16_08h43.37.910,HF_wild_card,2022.2.4,Win32,2.222296299,59497c498fb2140001afda85,64d2fd46c836a06233681665,64dc7df8fbb02c379c4e5762,,,,,,,ctch,resources/DR.BMP,resources/DG.BMP,Door4,-0.296614583,0,1,0,0,2.1472,optionLeft,80,8160,4,25,0,25,0,1,,,,,,,,,,,,,,,,,,,,,,,,,,,,,,,,,,,,,,,
,,,,,,,,2023-08-16_08h43.37.910,HF_wild_card,2022.2.4,Win32,2.222296299,59497c498fb2140001afda85,64d2fd46c836a06233681665,64dc7df8fbb02c379c4e5762,,,,,,,ctch,resources/DR.BMP,resources/DG.BMP,Door4,-0.225,-0.010416667,1,0,0,2.0367,optionLeft,80,8240,4,26,0,26,0,1,,,,,,,,,,,,,,,,,,,,,,,,,,,,,,,,,,,,,,,
,,,,,,,,2023-08-16_08h43.37.910,HF_wild_card,2022.2.4,Win32,2.222296299,59497c498fb2140001afda85,64d2fd46c836a06233681665,64dc7df8fbb02c379c4e5762,,,,,,,decisionTrl,resources/DB.BMP,resources/DY.BMP,Door3,-0.191145833,0.005208333,1,0,0,2.0741,optionLeft,70,8310,4,27,0,27,0,1,,,,,,,,,,,,,,,,,,,,,,,,,,,,,,,,,,,,,,,
,,,,,,,,2023-08-16_08h43.37.910,HF_wild_card,2022.2.4,Win32,2.222296299,59497c498fb2140001afda85,64d2fd46c836a06233681665,64dc7df8fbb02c379c4e5762,,,,,,,ctch,resources/DP.BMP,resources/DB.BMP,Door2,-0.270572917,-0.036458333,1,0,0,2.119,optionLeft,40,8350,4,28,0,28,0,1,,,,,,,,,,,,,,,,,,,,,,,,,,,,,,,,,,,,,,,
,,,,,,,,2023-08-16_08h43.37.910,HF_wild_card,2022.2.4,Win32,2.222296299,59497c498fb2140001afda85,64d2fd46c836a06233681665,64dc7df8fbb02c379c4e5762,,,,,,,decisionTrl,resources/DP.BMP,resources/DG.BMP,Door2,-0.240625,-0.095052083,1,0,0,2.0784,optionLeft,40,8390,4,29,0,29,0,1,,,,,,,,,,,,,,,,,,,,,,,,,,,,,,,,,,,,,,,
,,,,,,,,2023-08-16_08h43.37.910,HF_wild_card,2022.2.4,Win32,2.222296299,59497c498fb2140001afda85,64d2fd46c836a06233681665,64dc7df8fbb02c379c4e5762,,,,,,,decisionTrl,resources/DP.BMP,resources/DY.BMP,Door2,-0.284895833,-0.1015625,1,0,0,2.1902,optionLeft,20,8410,4,30,0,30,0,1,,,,,,,,,,,,,,,,,,,,,,,,,,,,,,,,,,,,,,,
,,,,,,,,2023-08-16_08h43.37.910,HF_wild_card,2022.2.4,Win32,2.222296299,59497c498fb2140001afda85,64d2fd46c836a06233681665,64dc7df8fbb02c379c4e5762,,,,,,,decisionTrl,resources/DG.BMP,resources/DP.BMP,Door2,0.229427083,-0.014322917,1,0,0,2.0584,optionRight,40,8450,4,31,0,31,0,1,,,,,,,,,,,,,,,,,,,,,,,,,,,,,,,,,,,,,,,
,,,,,,,,2023-08-16_08h43.37.910,HF_wild_card,2022.2.4,Win32,2.222296299,59497c498fb2140001afda85,64d2fd46c836a06233681665,64dc7df8fbb02c379c4e5762,,,,,,,sngl,resources/Empty.png,resources/DB.BMP,Door3,-0.007552083,0.006510417,1,0,0,1.3378,optionRight,70,8520,4,32,0,32,0,1,,,,,,,,,,,,,,,,,,,,,,,,,,,,,,,,,,,,,,,
,,,,,,,,2023-08-16_08h43.37.910,HF_wild_card,2022.2.4,Win32,2.222296299,59497c498fb2140001afda85,64d2fd46c836a06233681665,64dc7df8fbb02c379c4e5762,,,,,,,decisionTrl,resources/DY.BMP,resources/DG.BMP,WildCard_NonEx,-0.317447917,-0.046875,1,0,0,3.5127,optionLeft,45,8565,4,33,0,33,0,1,,,,,,,,,,,,,,,,,,,,,,,,,,,,,,,,,,,,,,,
,,,,,,,,2023-08-16_08h43.37.910,HF_wild_card,2022.2.4,Win32,2.222296299,59497c498fb2140001afda85,64d2fd46c836a06233681665,64dc7df8fbb02c379c4e5762,,,,,,,decisionTrl,resources/DR.BMP,resources/DB.BMP,Door3,0.241145833,0.01171875,1,0,0,2.0509,optionRight,70,8635,4,34,0,34,0,1,,,,,,,,,,,,,,,,,,,,,,,,,,,,,,,,,,,,,,,
,,,,,,,,2023-08-16_08h43.37.910,HF_wild_card,2022.2.4,Win32,2.222296299,59497c498fb2140001afda85,64d2fd46c836a06233681665,64dc7df8fbb02c379c4e5762,,,,,,,decisionTrl,resources/DY.BMP,resources/DP.BMP,WildCard_NonEx,-0.169010417,0.005208333,1,0,0,4.0948,optionLeft,55,8690,4,35,0,35,0,1,,,,,,,,,,,,,,,,,,,,,,,,,,,,,,,,,,,,,,,
,,,,,,,,2023-08-16_08h43.37.910,HF_wild_card,2022.2.4,Win32,2.222296299,59497c498fb2140001afda85,64d2fd46c836a06233681665,64dc7df8fbb02c379c4e5762,,,,,,,decisionTrl,resources/DR.BMP,resources/DB.BMP,Door4,-0.273177083,-0.006510417,1,0,0,2.0741,optionLeft,60,8750,4,36,0,36,0,1,,,,,,,,,,,,,,,,,,,,,,,,,,,,,,,,,,,,,,,
,,,,,,,,2023-08-16_08h43.37.910,HF_wild_card,2022.2.4,Win32,2.222296299,59497c498fb2140001afda85,64d2fd46c836a06233681665,64dc7df8fbb02c379c4e5762,,,,,,,decisionTrl,resources/DB.BMP,resources/DR.BMP,Door3,-0.204166667,-0.015625,1,0,0,2.8388,optionLeft,70,8820,4,37,0,37,0,1,,,,,,,,,,,,,,,,,,,,,,,,,,,,,,,,,,,,,,,
,,,,,,,,2023-08-16_08h43.37.910,HF_wild_card,2022.2.4,Win32,2.222296299,59497c498fb2140001afda85,64d2fd46c836a06233681665,64dc7df8fbb02c379c4e5762,,,,,,,decisionTrl,resources/DG.BMP,resources/DP.BMP,Door1,-0.325260417,-0.049479167,1,0,0,5.4497,optionLeft,30,8850,4,38,0,38,0,1,,,,,,,,,,,,,,,,,,,,,,,,,,,,,,,,,,,,,,,
,,,,,,,,2023-08-16_08h43.37.910,HF_wild_card,2022.2.4,Win32,2.222296299,59497c498fb2140001afda85,64d2fd46c836a06233681665,64dc7df8fbb02c379c4e5762,,,,,,,sngl,resources/DY.BMP,resources/Empty.png,WildCard_NonEx,-0.266666667,0.0078125,1,0,0,1.8607,optionLeft,45,8895,4,39,0,39,0,1,,,,,,,,,,,,,,,,,,,,,,,,,,,,,,,,,,,,,,,
,,,,,,,,2023-08-16_08h43.37.910,HF_wild_card,2022.2.4,Win32,2.222296299,59497c498fb2140001afda85,64d2fd46c836a06233681665,64dc7df8fbb02c379c4e5762,,,,,,,decisionTrl,resources/DG.BMP,resources/DY.BMP,WildCard_NonEx,0.3765625,-0.065104167,1,0,0,2.0433,optionRight,45,8940,4,40,0,40,0,1,,,,,,,,,,,,,,,,,,,,,,,,,,,,,,,,,,,,,,,
,,,,,,,,2023-08-16_08h43.37.910,HF_wild_card,2022.2.4,Win32,2.222296299,59497c498fb2140001afda85,64d2fd46c836a06233681665,64dc7df8fbb02c379c4e5762,,,,,,,ctch,resources/DG.BMP,resources/DR.BMP,Door4,0.258072917,-0.014322917,1,0,0,2.0225,optionRight,60,9000,4,41,0,41,0,1,,,,,,,,,,,,,,,,,,,,,,,,,,,,,,,,,,,,,,,
,,,,,,,,2023-08-16_08h43.37.910,HF_wild_card,2022.2.4,Win32,2.222296299,59497c498fb2140001afda85,64d2fd46c836a06233681665,64dc7df8fbb02c379c4e5762,,,,,,,sngl,resources/DG.BMP,resources/Empty.png,Door1,-0.226302083,0.005208333,1,0,0,3.8717,optionLeft,30,9030,4,42,0,42,0,1,,,,,,,,,,,,,,,,,,,,,,,,,,,,,,,,,,,,,,,
,,,,,,,,2023-08-16_08h43.37.910,HF_wild_card,2022.2.4,Win32,2.222296299,59497c498fb2140001afda85,64d2fd46c836a06233681665,64dc7df8fbb02c379c4e5762,,,,,,,decisionTrl,resources/DB.BMP,resources/DR.BMP,Door4,0.26328125,-0.0390625,1,0,0,4.7601,optionRight,80,9110,4,43,0,43,0,1,,,,,,,,,,,,,,,,,,,,,,,,,,,,,,,,,,,,,,,
,,,,,,,,2023-08-16_08h43.37.910,HF_wild_card,2022.2.4,Win32,2.222296299,59497c498fb2140001afda85,64d2fd46c836a06233681665,64dc7df8fbb02c379c4e5762,,,,,,,,,,,,,,,,,,,,,,,,,,3,0,3,0,1,,,,,,,,,,,,,,,,,,,,,,,,,,,,,,,,,,
,,,,,,,,2023-08-16_08h43.37.910,HF_wild_card,2022.2.4,Win32,2.222296299,59497c498fb2140001afda85,64d2fd46c836a06233681665,64dc7df8fbb02c379c4e5762,,,,,,,decisionTrl,resources/DY.BMP,resources/DP.BMP,WildCard_NonEx,-0.178125,-0.006510417,1,0,0,6.3742,optionLeft,55,9165,5,0,0,0,0,1,,,,,,,,,,,,,,,,,,,,,,,,,,,,,,,,,,,,,,,
,,,,,,,,2023-08-16_08h43.37.910,HF_wild_card,2022.2.4,Win32,2.222296299,59497c498fb2140001afda85,64d2fd46c836a06233681665,64dc7df8fbb02c379c4e5762,,,,,,,decisionTrl,resources/DG.BMP,resources/DP.BMP,Door2,0.268489583,-0.055989583,1,0,0,2.0286,optionRight,40,9205,5,1,0,1,0,1,,,,,,,,,,,,,,,,,,,,,,,,,,,,,,,,,,,,,,,
,,,,,,,,2023-08-16_08h43.37.910,HF_wild_card,2022.2.4,Win32,2.222296299,59497c498fb2140001afda85,64d2fd46c836a06233681665,64dc7df8fbb02c379c4e5762,,,,,,,sngl,resources/Empty.png,resources/DY.BMP,WildCard_NonEx,0.1265625,0.014322917,1,0,0,1.8333,optionRight,45,9250,5,2,0,2,0,1,,,,,,,,,,,,,,,,,,,,,,,,,,,,,,,,,,,,,,,
,,,,,,,,2023-08-16_08h43.37.910,HF_wild_card,2022.2.4,Win32,2.222296299,59497c498fb2140001afda85,64d2fd46c836a06233681665,64dc7df8fbb02c379c4e5762,,,,,,,decisionTrl,resources/DG.BMP,resources/DP.BMP,Door2,0.366145833,-0.096354167,1,0,0,2.0396,optionRight,40,9290,5,3,0,3,0,1,,,,,,,,,,,,,,,,,,,,,,,,,,,,,,,,,,,,,,,
,,,,,,,,2023-08-16_08h43.37.910,HF_wild_card,2022.2.4,Win32,2.222296299,59497c498fb2140001afda85,64d2fd46c836a06233681665,64dc7df8fbb02c379c4e5762,,,,,,,decisionTrl,resources/DB.BMP,resources/DR.BMP,Door4,0.272395833,-0.009114583,1,0,0,2.0669,optionRight,60,9350,5,4,0,4,0,1,,,,,,,,,,,,,,,,,,,,,,,,,,,,,,,,,,,,,,,
,,,,,,,,2023-08-16_08h43.37.910,HF_wild_card,2022.2.4,Win32,2.222296299,59497c498fb2140001afda85,64d2fd46c836a06233681665,64dc7df8fbb02c379c4e5762,,,,,,,sngl,resources/Empty.png,resources/DB.BMP,Door3,0.275,-0.049479167,1,0,0,2.6076,optionRight,70,9420,5,5,0,5,0,1,,,,,,,,,,,,,,,,,,,,,,,,,,,,,,,,,,,,,,,
,,,,,,,,2023-08-16_08h43.37.910,HF_wild_card,2022.2.4,Win32,2.222296299,59497c498fb2140001afda85,64d2fd46c836a06233681665,64dc7df8fbb02c379c4e5762,,,,,,,decisionTrl,resources/DY.BMP,resources/DR.BMP,WildCard_NonEx,-0.321354167,-0.016927083,1,0,0,2.7607,optionLeft,45,9465,5,6,0,6,0,1,,,,,,,,,,,,,,,,,,,,,,,,,,,,,,,,,,,,,,,
,,,,,,,,2023-08-16_08h43.37.910,HF_wild_card,2022.2.4,Win32,2.222296299,59497c498fb2140001afda85,64d2fd46c836a06233681665,64dc7df8fbb02c379c4e5762,,,,,,,decisionTrl,resources/DR.BMP,resources/DY.BMP,WildCard_NonEx,0.209895833,-0.033854167,1,0,0,2.2653,optionRight,45,9510,5,7,0,7,0,1,,,,,,,,,,,,,,,,,,,,,,,,,,,,,,,,,,,,,,,
,,,,,,,,2023-08-16_08h43.37.910,HF_wild_card,2022.2.4,Win32,2.222296299,59497c498fb2140001afda85,64d2fd46c836a06233681665,64dc7df8fbb02c379c4e5762,,,,,,,decisionTrl,resources/DY.BMP,resources/DB.BMP,Door3,0.268489583,-0.10546875,1,0,0,2.7725,optionRight,70,9580,5,8,0,8,0,1,,,,,,,,,,,,,,,,,,,,,,,,,,,,,,,,,,,,,,,
,,,,,,,,2023-08-16_08h43.37.910,HF_wild_card,2022.2.4,Win32,2.222296299,59497c498fb2140001afda85,64d2fd46c836a06233681665,64dc7df8fbb02c379c4e5762,,,,,,,ctch,resources/DB.BMP,resources/DP.BMP,Door3,-0.144270833,-0.063802083,1,0,0,4.8179,optionLeft,70,9650,5,9,0,9,0,1,,,,,,,,,,,,,,,,,,,,,,,,,,,,,,,,,,,,,,,
,,,,,,,,2023-08-16_08h43.37.910,HF_wild_card,2022.2.4,Win32,2.222296299,59497c498fb2140001afda85,64d2fd46c836a06233681665,64dc7df8fbb02c379c4e5762,,,,,,,decisionTrl,resources/DP.BMP,resources/DG.BMP,Door2,-0.145572917,-0.145833333,1,0,0,2.0906,optionLeft,20,9670,5,10,0,10,0,1,,,,,,,,,,,,,,,,,,,,,,,,,,,,,,,,,,,,,,,
,,,,,,,,2023-08-16_08h43.37.910,HF_wild_card,2022.2.4,Win32,2.222296299,59497c498fb2140001afda85,64d2fd46c836a06233681665,64dc7df8fbb02c379c4e5762,,,,,,,sngl,resources/Empty.png,resources/DR.BMP,Door4,0.3296875,-0.0625,1,0,0,2.5681,optionRight,60,9730,5,11,0,11,0,1,,,,,,,,,,,,,,,,,,,,,,,,,,,,,,,,,,,,,,,
,,,,,,,,2023-08-16_08h43.37.910,HF_wild_card,2022.2.4,Win32,2.222296299,59497c498fb2140001afda85,64d2fd46c836a06233681665,64dc7df8fbb02c379c4e5762,,,,,,,ctch,resources/DG.BMP,resources/DR.BMP,Door4,0.245052083,-0.057291667,1,0,0,2.8644,optionRight,80,9810,5,12,0,12,0,1,,,,,,,,,,,,,,,,,,,,,,,,,,,,,,,,,,,,,,,
,,,,,,,,2023-08-16_08h43.37.910,HF_wild_card,2022.2.4,Win32,2.222296299,59497c498fb2140001afda85,64d2fd46c836a06233681665,64dc7df8fbb02c379c4e5762,,,,,,,decisionTrl,resources/DP.BMP,resources/DG.BMP,Door2,-0.26796875,-0.026041667,1,0,0,2.15,optionLeft,40,9850,5,13,0,13,0,1,,,,,,,,,,,,,,,,,,,,,,,,,,,,,,,,,,,,,,,
,,,,,,,,2023-08-16_08h43.37.910,HF_wild_card,2022.2.4,Win32,2.222296299,59497c498fb2140001afda85,64d2fd46c836a06233681665,64dc7df8fbb02c379c4e5762,,,,,,,ctch,resources/DR.BMP,resources/DG.BMP,Door4,-0.292708333,-0.0546875,1,0,0,2.0731,optionLeft,60,9910,5,14,0,14,0,1,,,,,,,,,,,,,,,,,,,,,,,,,,,,,,,,,,,,,,,
,,,,,,,,2023-08-16_08h43.37.910,HF_wild_card,2022.2.4,Win32,2.222296299,59497c498fb2140001afda85,64d2fd46c836a06233681665,64dc7df8fbb02c379c4e5762,,,,,,,sngl,resources/DY.BMP,resources/Empty.png,WildCard_NonEx,0.002864583,0.010416667,1,0,0,1.3291,optionLeft,45,9955,5,15,0,15,0,1,,,,,,,,,,,,,,,,,,,,,,,,,,,,,,,,,,,,,,,
,,,,,,,,2023-08-16_08h43.37.910,HF_wild_card,2022.2.4,Win32,2.222296299,59497c498fb2140001afda85,64d2fd46c836a06233681665,64dc7df8fbb02c379c4e5762,,,,,,,sngl,resources/DG.BMP,resources/Empty.png,Door1,-0.25234375,0.049479167,1,0,0,3.1042,optionLeft,30,9985,5,16,0,16,0,1,,,,,,,,,,,,,,,,,,,,,,,,,,,,,,,,,,,,,,,
,,,,,,,,2023-08-16_08h43.37.910,HF_wild_card,2022.2.4,Win32,2.222296299,59497c498fb2140001afda85,64d2fd46c836a06233681665,64dc7df8fbb02c379c4e5762,,,,,,,decisionTrl,resources/DG.BMP,resources/DP.BMP,Door2,0.415625,0.026041667,1,0,0,2.0563,optionRight,40,10025,5,17,0,17,0,1,,,,,,,,,,,,,,,,,,,,,,,,,,,,,,,,,,,,,,,
,,,,,,,,2023-08-16_08h43.37.910,HF_wild_card,2022.2.4,Win32,2.222296299,59497c498fb2140001afda85,64d2fd46c836a06233681665,64dc7df8fbb02c379c4e5762,,,,,,,decisionTrl,resources/DR.BMP,resources/DB.BMP,Door4,-0.26015625,0.033854167,1,0,0,3.6208,optionLeft,60,10085,5,18,0,18,0,1,,,,,,,,,,,,,,,,,,,,,,,,,,,,,,,,,,,,,,,
,,,,,,,,2023-08-16_08h43.37.910,HF_wild_card,2022.2.4,Win32,2.222296299,59497c498fb2140001afda85,64d2fd46c836a06233681665,64dc7df8fbb02c379c4e5762,,,,,,,decisionTrl,resources/DB.BMP,resources/DY.BMP,WildCard_NonEx,-0.007552083,0.00390625,1,0,0,1.3825,optionRight,55,10140,5,19,0,19,0,1,,,,,,,,,,,,,,,,,,,,,,,,,,,,,,,,,,,,,,,
,,,,,,,,2023-08-16_08h43.37.910,HF_wild_card,2022.2.4,Win32,2.222296299,59497c498fb2140001afda85,64d2fd46c836a06233681665,64dc7df8fbb02c379c4e5762,,,,,,,sngl,resources/DP.BMP,resources/Empty.png,Door2,-0.11953125,-0.005208333,1,0,0,4.5847,optionLeft,40,10180,5,20,0,20,0,1,,,,,,,,,,,,,,,,,,,,,,,,,,,,,,,,,,,,,,,
,,,,,,,,2023-08-16_08h43.37.910,HF_wild_card,2022.2.4,Win32,2.222296299,59497c498fb2140001afda85,64d2fd46c836a06233681665,64dc7df8fbb02c379c4e5762,,,,,,,decisionTrl,resources/DB.BMP,resources/DR.BMP,Door4,0.272395833,-0.0546875,1,0,0,2.8587,optionRight,80,10260,5,21,0,21,0,1,,,,,,,,,,,,,,,,,,,,,,,,,,,,,,,,,,,,,,,
,,,,,,,,2023-08-16_08h43.37.910,HF_wild_card,2022.2.4,Win32,2.222296299,59497c498fb2140001afda85,64d2fd46c836a06233681665,64dc7df8fbb02c379c4e5762,,,,,,,decisionTrl,resources/DR.BMP,resources/DB.BMP,Door4,-0.269270833,-0.005208333,1,0,0,2.0525,optionLeft,60,10320,5,22,0,22,0,1,,,,,,,,,,,,,,,,,,,,,,,,,,,,,,,,,,,,,,,
,,,,,,,,2023-08-16_08h43.37.910,HF_wild_card,2022.2.4,Win32,2.222296299,59497c498fb2140001afda85,64d2fd46c836a06233681665,64dc7df8fbb02c379c4e5762,,,,,,,ctch,resources/DB.BMP,resources/DP.BMP,Door2,0.222916667,0.029947917,1,0,0,2.0707,optionRight,20,10340,5,23,0,23,0,1,,,,,,,,,,,,,,,,,,,,,,,,,,,,,,,,,,,,,,,
,,,,,,,,2023-08-16_08h43.37.910,HF_wild_card,2022.2.4,Win32,2.222296299,59497c498fb2140001afda85,64d2fd46c836a06233681665,64dc7df8fbb02c379c4e5762,,,,,,,sngl,resources/DB.BMP,resources/Empty.png,Door3,-0.321354167,-0.07421875,1,0,0,1.9643,optionLeft,70,10410,5,24,0,24,0,1,,,,,,,,,,,,,,,,,,,,,,,,,,,,,,,,,,,,,,,
,,,,,,,,2023-08-16_08h43.37.910,HF_wild_card,2022.2.4,Win32,2.222296299,59497c498fb2140001afda85,64d2fd46c836a06233681665,64dc7df8fbb02c379c4e5762,,,,,,,decisionTrl,resources/DP.BMP,resources/DG.BMP,Door1,0.165625,0.0078125,1,0,0,2.0585,optionRight,30,10440,5,25,0,25,0,1,,,,,,,,,,,,,,,,,,,,,,,,,,,,,,,,,,,,,,,
,,,,,,,,2023-08-16_08h43.37.910,HF_wild_card,2022.2.4,Win32,2.222296299,59497c498fb2140001afda85,64d2fd46c836a06233681665,64dc7df8fbb02c379c4e5762,,,,,,,decisionTrl,resources/DG.BMP,resources/DP.BMP,Door2,0.24765625,-0.095052083,1,0,0,4.892,optionRight,40,10480,5,26,0,26,0,1,,,,,,,,,,,,,,,,,,,,,,,,,,,,,,,,,,,,,,,
,,,,,,,,2023-08-16_08h43.37.910,HF_wild_card,2022.2.4,Win32,2.222296299,59497c498fb2140001afda85,64d2fd46c836a06233681665,64dc7df8fbb02c379c4e5762,,,,,,,decisionTrl,resources/DP.BMP,resources/DG.BMP,Door2,-0.269270833,-0.05078125,1,0,0,1.3987,optionLeft,20,10500,5,27,0,27,0,1,,,,,,,,,,,,,,,,,,,,,,,,,,,,,,,,,,,,,,,
,,,,,,,,2023-08-16_08h43.37.910,HF_wild_card,2022.2.4,Win32,2.222296299,59497c498fb2140001afda85,64d2fd46c836a06233681665,64dc7df8fbb02c379c4e5762,,,,,,,decisionTrl,resources/DY.BMP,resources/DG.BMP,WildCard_NonEx,-0.136458333,-0.005208333,1,0,0,1.4006,optionLeft,45,10545,5,28,0,28,0,1,,,,,,,,,,,,,,,,,,,,,,,,,,,,,,,,,,,,,,,
,,,,,,,,2023-08-16_08h43.37.910,HF_wild_card,2022.2.4,Win32,2.222296299,59497c498fb2140001afda85,64d2fd46c836a06233681665,64dc7df8fbb02c379c4e5762,,,,,,,sngl,resources/DY.BMP,resources/Empty.png,WildCard_NonEx,-0.171614583,-0.010416667,1,0,0,1.9784,optionLeft,55,10600,5,29,0,29,0,1,,,,,,,,,,,,,,,,,,,,,,,,,,,,,,,,,,,,,,,
,,,,,,,,2023-08-16_08h43.37.910,HF_wild_card,2022.2.4,Win32,2.222296299,59497c498fb2140001afda85,64d2fd46c836a06233681665,64dc7df8fbb02c379c4e5762,,,,,,,sngl,resources/Empty.png,resources/DG.BMP,Door1,0.25546875,-0.096354167,1,0,0,3.8161,optionRight,30,10630,5,30,0,30,0,1,,,,,,,,,,,,,,,,,,,,,,,,,,,,,,,,,,,,,,,
,,,,,,,,2023-08-16_08h43.37.910,HF_wild_card,2022.2.4,Win32,2.222296299,59497c498fb2140001afda85,64d2fd46c836a06233681665,64dc7df8fbb02c379c4e5762,,,,,,,decisionTrl,resources/DR.BMP,resources/DB.BMP,Door4,-0.202864583,-0.045572917,1,0,0,2.0558,optionLeft,80,10710,5,31,0,31,0,1,,,,,,,,,,,,,,,,,,,,,,,,,,,,,,,,,,,,,,,
,,,,,,,,2023-08-16_08h43.37.910,HF_wild_card,2022.2.4,Win32,2.222296299,59497c498fb2140001afda85,64d2fd46c836a06233681665,64dc7df8fbb02c379c4e5762,,,,,,,decisionTrl,resources/DB.BMP,resources/DR.BMP,Door4,0.24765625,-0.041666667,1,0,0,2.1565,optionRight,80,10790,5,32,0,32,0,1,,,,,,,,,,,,,,,,,,,,,,,,,,,,,,,,,,,,,,,
,,,,,,,,2023-08-16_08h43.37.910,HF_wild_card,2022.2.4,Win32,2.222296299,59497c498fb2140001afda85,64d2fd46c836a06233681665,64dc7df8fbb02c379c4e5762,,,,,,,decisionTrl,resources/DG.BMP,resources/DY.BMP,WildCard_NonEx,0.006770833,-0.0078125,1,0,0,2.0772,optionRight,55,10845,5,33,0,33,0,1,,,,,,,,,,,,,,,,,,,,,,,,,,,,,,,,,,,,,,,
,,,,,,,,2023-08-16_08h43.37.910,HF_wild_card,2022.2.4,Win32,2.222296299,59497c498fb2140001afda85,64d2fd46c836a06233681665,64dc7df8fbb02c379c4e5762,,,,,,,ctch,resources/DR.BMP,resources/DG.BMP,Door4,-0.35390625,-0.001302083,1,0,0,2.0559,optionLeft,80,10925,5,34,0,34,0,1,,,,,,,,,,,,,,,,,,,,,,,,,,,,,,,,,,,,,,,
,,,,,,,,2023-08-16_08h43.37.910,HF_wild_card,2022.2.4,Win32,2.222296299,59497c498fb2140001afda85,64d2fd46c836a06233681665,64dc7df8fbb02c379c4e5762,,,,,,,ctch,resources/DG.BMP,resources/DR.BMP,Door4,0.316666667,-0.055989583,1,0,0,2.17,optionRight,60,10985,5,35,0,35,0,1,,,,,,,,,,,,,,,,,,,,,,,,,,,,,,,,,,,,,,,
,,,,,,,,2023-08-16_08h43.37.910,HF_wild_card,2022.2.4,Win32,2.222296299,59497c498fb2140001afda85,64d2fd46c836a06233681665,64dc7df8fbb02c379c4e5762,,,,,,,decisionTrl,resources/DB.BMP,resources/DR.BMP,Door3,-0.288802083,-0.015625,1,0,0,5.5035,optionLeft,70,11055,5,36,0,36,0,1,,,,,,,,,,,,,,,,,,,,,,,,,,,,,,,,,,,,,,,
,,,,,,,,2023-08-16_08h43.37.910,HF_wild_card,2022.2.4,Win32,2.222296299,59497c498fb2140001afda85,64d2fd46c836a06233681665,64dc7df8fbb02c379c4e5762,,,,,,,decisionTrl,resources/DP.BMP,resources/DY.BMP,WildCard_NonEx,0.237239583,-0.079427083,1,0,0,2.0596,optionRight,55,11110,5,37,0,37,0,1,,,,,,,,,,,,,,,,,,,,,,,,,,,,,,,,,,,,,,,
,,,,,,,,2023-08-16_08h43.37.910,HF_wild_card,2022.2.4,Win32,2.222296299,59497c498fb2140001afda85,64d2fd46c836a06233681665,64dc7df8fbb02c379c4e5762,,,,,,,decisionTrl,resources/DR.BMP,resources/DB.BMP,Door4,-0.253645833,-0.014322917,1,0,0,4.2362,optionLeft,60,11170,5,38,0,38,0,1,,,,,,,,,,,,,,,,,,,,,,,,,,,,,,,,,,,,,,,
,,,,,,,,2023-08-16_08h43.37.910,HF_wild_card,2022.2.4,Win32,2.222296299,59497c498fb2140001afda85,64d2fd46c836a06233681665,64dc7df8fbb02c379c4e5762,,,,,,,sngl,resources/DR.BMP,resources/Empty.png,Door4,-0.215885417,-0.0234375,1,0,0,1.8539,optionLeft,80,11250,5,39,0,39,0,1,,,,,,,,,,,,,,,,,,,,,,,,,,,,,,,,,,,,,,,
,,,,,,,,2023-08-16_08h43.37.910,HF_wild_card,2022.2.4,Win32,2.222296299,59497c498fb2140001afda85,64d2fd46c836a06233681665,64dc7df8fbb02c379c4e5762,,,,,,,ctch,resources/DP.BMP,resources/DB.BMP,Door3,0.273697917,0.015625,1,0,0,3.5266,optionRight,70,11320,5,40,0,40,0,1,,,,,,,,,,,,,,,,,,,,,,,,,,,,,,,,,,,,,,,
,,,,,,,,2023-08-16_08h43.37.910,HF_wild_card,2022.2.4,Win32,2.222296299,59497c498fb2140001afda85,64d2fd46c836a06233681665,64dc7df8fbb02c379c4e5762,,,,,,,sngl,resources/Empty.png,resources/DY.BMP,WildCard_NonEx,0.00546875,0.001302083,1,0,0,1.2427,optionRight,55,11375,5,41,0,41,0,1,,,,,,,,,,,,,,,,,,,,,,,,,,,,,,,,,,,,,,,
,,,,,,,,2023-08-16_08h43.37.910,HF_wild_card,2022.2.4,Win32,2.222296299,59497c498fb2140001afda85,64d2fd46c836a06233681665,64dc7df8fbb02c379c4e5762,,,,,,,ctch,resources/DP.BMP,resources/DB.BMP,Door2,-0.222395833,-0.028645833,1,0,0,3.4709,optionLeft,20,11395,5,42,0,42,0,1,,,,,,,,,,,,,,,,,,,,,,,,,,,,,,,,,,,,,,,
,,,,,,,,2023-08-16_08h43.37.910,HF_wild_card,2022.2.4,Win32,2.222296299,59497c498fb2140001afda85,64d2fd46c836a06233681665,64dc7df8fbb02c379c4e5762,,,,,,,sngl,resources/Empty.png,resources/DP.BMP,Door2,0.015885417,0.024739583,1,0,0,1.2629,optionRight,20,11415,5,43,0,43,0,1,,,,,,,,,,,,,,,,,,,,,,,,,,,,,,,,,,,,,,,
,,,,,,,,2023-08-16_08h43.37.910,HF_wild_card,2022.2.4,Win32,2.222296299,59497c498fb2140001afda85,64d2fd46c836a06233681665,64dc7df8fbb02c379c4e5762,,,,,,,,,,,,,,,,,,,,,,,,,,4,0,4,0,1,,,,,,,,,,,,,,,,,,,,,,,,,,,,,,,,,,
,,,,,,,,2023-08-16_08h43.37.910,HF_wild_card,2022.2.4,Win32,2.222296299,59497c498fb2140001afda85,64d2fd46c836a06233681665,64dc7df8fbb02c379c4e5762,,,,,,,decisionTrl,resources/DG.BMP,resources/DP.BMP,Door2,0.11875,-0.100260417,1,0,0,2.2783,optionRight,40,11455,6,0,0,0,0,1,,,,,,,,,,,,,,,,,,,,,,,,,,,,,,,,,,,,,,,
,,,,,,,,2023-08-16_08h43.37.910,HF_wild_card,2022.2.4,Win32,2.222296299,59497c498fb2140001afda85,64d2fd46c836a06233681665,64dc7df8fbb02c379c4e5762,,,,,,,ctch,resources/DG.BMP,resources/DR.BMP,Door4,0.215104167,-0.0078125,1,0,0,2.0402,optionRight,80,11535,6,1,0,1,0,1,,,,,,,,,,,,,,,,,,,,,,,,,,,,,,,,,,,,,,,
,,,,,,,,2023-08-16_08h43.37.910,HF_wild_card,2022.2.4,Win32,2.222296299,59497c498fb2140001afda85,64d2fd46c836a06233681665,64dc7df8fbb02c379c4e5762,,,,,,,decisionTrl,resources/DP.BMP,resources/DG.BMP,Door2,-0.352604167,-0.046875,1,0,0,3.5442,optionLeft,20,11555,6,2,0,2,0,1,,,,,,,,,,,,,,,,,,,,,,,,,,,,,,,,,,,,,,,
,,,,,,,,2023-08-16_08h43.37.910,HF_wild_card,2022.2.4,Win32,2.222296299,59497c498fb2140001afda85,64d2fd46c836a06233681665,64dc7df8fbb02c379c4e5762,,,,,,,decisionTrl,resources/DB.BMP,resources/DR.BMP,Door3,-0.148177083,-0.018229167,1,0,0,8.2273,optionLeft,70,11625,6,3,0,3,0,1,,,,,,,,,,,,,,,,,,,,,,,,,,,,,,,,,,,,,,,
,,,,,,,,2023-08-16_08h43.37.910,HF_wild_card,2022.2.4,Win32,2.222296299,59497c498fb2140001afda85,64d2fd46c836a06233681665,64dc7df8fbb02c379c4e5762,,,,,,,sngl,resources/Empty.png,resources/DY.BMP,WildCard_NonEx,0.2359375,-0.01171875,1,0,0,3.7193,optionRight,55,11680,6,4,0,4,0,1,,,,,,,,,,,,,,,,,,,,,,,,,,,,,,,,,,,,,,,
,,,,,,,,2023-08-16_08h43.37.910,HF_wild_card,2022.2.4,Win32,2.222296299,59497c498fb2140001afda85,64d2fd46c836a06233681665,64dc7df8fbb02c379c4e5762,,,,,,,decisionTrl,resources/DB.BMP,resources/DR.BMP,Door3,-0.309635417,-0.013020833,1,0,0,4.7712,optionLeft,70,11750,6,5,0,5,0,1,,,,,,,,,,,,,,,,,,,,,,,,,,,,,,,,,,,,,,,
,,,,,,,,2023-08-16_08h43.37.910,HF_wild_card,2022.2.4,Win32,2.222296299,59497c498fb2140001afda85,64d2fd46c836a06233681665,64dc7df8fbb02c379c4e5762,,,,,,,decisionTrl,resources/DR.BMP,resources/DY.BMP,WildCard_NonEx,0.30234375,-0.029947917,1,0,0,2.7588,optionRight,55,11805,6,6,0,6,0,1,,,,,,,,,,,,,,,,,,,,,,,,,,,,,,,,,,,,,,,
,,,,,,,,2023-08-16_08h43.37.910,HF_wild_card,2022.2.4,Win32,2.222296299,59497c498fb2140001afda85,64d2fd46c836a06233681665,64dc7df8fbb02c379c4e5762,,,,,,,decisionTrl,resources/DR.BMP,resources/DB.BMP,Door4,-0.352604167,-0.015625,1,0,0,2.0519,optionLeft,80,11885,6,7,0,7,0,1,,,,,,,,,,,,,,,,,,,,,,,,,,,,,,,,,,,,,,,
,,,,,,,,2023-08-16_08h43.37.910,HF_wild_card,2022.2.4,Win32,2.222296299,59497c498fb2140001afda85,64d2fd46c836a06233681665,64dc7df8fbb02c379c4e5762,,,,,,,decisionTrl,resources/DY.BMP,resources/DP.BMP,Door2,0.269791667,-0.05859375,1,0,0,2.0444,optionRight,20,11905,6,8,0,8,0,1,,,,,,,,,,,,,,,,,,,,,,,,,,,,,,,,,,,,,,,
,,,,,,,,2023-08-16_08h43.37.910,HF_wild_card,2022.2.4,Win32,2.222296299,59497c498fb2140001afda85,64d2fd46c836a06233681665,64dc7df8fbb02c379c4e5762,,,,,,,decisionTrl,resources/DR.BMP,resources/DB.BMP,Door3,0.307552083,-0.040364583,1,0,0,2.1796,optionRight,70,11975,6,9,0,9,0,1,,,,,,,,,,,,,,,,,,,,,,,,,,,,,,,,,,,,,,,
,,,,,,,,2023-08-16_08h43.37.910,HF_wild_card,2022.2.4,Win32,2.222296299,59497c498fb2140001afda85,64d2fd46c836a06233681665,64dc7df8fbb02c379c4e5762,,,,,,,ctch,resources/DB.BMP,resources/DP.BMP,Door3,-0.214583333,-0.05859375,1,0,0,4.3322,optionLeft,70,12045,6,10,0,10,0,1,,,,,,,,,,,,,,,,,,,,,,,,,,,,,,,,,,,,,,,
,,,,,,,,2023-08-16_08h43.37.910,HF_wild_card,2022.2.4,Win32,2.222296299,59497c498fb2140001afda85,64d2fd46c836a06233681665,64dc7df8fbb02c379c4e5762,,,,,,,decisionTrl,resources/DY.BMP,resources/DG.BMP,WildCard_NonEx,-0.204166667,-0.045572917,1,0,0,2.1578,optionLeft,55,12100,6,11,0,11,0,1,,,,,,,,,,,,,,,,,,,,,,,,,,,,,,,,,,,,,,,
,,,,,,,,2023-08-16_08h43.37.910,HF_wild_card,2022.2.4,Win32,2.222296299,59497c498fb2140001afda85,64d2fd46c836a06233681665,64dc7df8fbb02c379c4e5762,,,,,,,sngl,resources/DY.BMP,resources/Empty.png,WildCard_NonEx,-0.008854167,0,1,0,0,1.8757,optionLeft,45,12145,6,12,0,12,0,1,,,,,,,,,,,,,,,,,,,,,,,,,,,,,,,,,,,,,,,
,,,,,,,,2023-08-16_08h43.37.910,HF_wild_card,2022.2.4,Win32,2.222296299,59497c498fb2140001afda85,64d2fd46c836a06233681665,64dc7df8fbb02c379c4e5762,,,,,,,decisionTrl,resources/DG.BMP,resources/DP.BMP,Door2,0.27109375,-0.091145833,1,0,0,3.5427,optionRight,40,12185,6,13,0,13,0,1,,,,,,,,,,,,,,,,,,,,,,,,,,,,,,,,,,,,,,,
,,,,,,,,2023-08-16_08h43.37.910,HF_wild_card,2022.2.4,Win32,2.222296299,59497c498fb2140001afda85,64d2fd46c836a06233681665,64dc7df8fbb02c379c4e5762,,,,,,,decisionTrl,resources/DG.BMP,resources/DY.BMP,WildCard_NonEx,0.256770833,-0.071614583,1,0,0,4.1999,optionRight,55,12240,6,14,0,14,0,1,,,,,,,,,,,,,,,,,,,,,,,,,,,,,,,,,,,,,,,
,,,,,,,,2023-08-16_08h43.37.910,HF_wild_card,2022.2.4,Win32,2.222296299,59497c498fb2140001afda85,64d2fd46c836a06233681665,64dc7df8fbb02c379c4e5762,,,,,,,decisionTrl,resources/DY.BMP,resources/DR.BMP,Door4,0.265885417,-0.087239583,1,0,0,3.6333,optionRight,80,12320,6,15,0,15,0,1,,,,,,,,,,,,,,,,,,,,,,,,,,,,,,,,,,,,,,,
,,,,,,,,2023-08-16_08h43.37.910,HF_wild_card,2022.2.4,Win32,2.222296299,59497c498fb2140001afda85,64d2fd46c836a06233681665,64dc7df8fbb02c379c4e5762,,,,,,,decisionTrl,resources/DR.BMP,resources/DB.BMP,Door4,-0.261458333,-0.014322917,1,0,0,2.1723,optionLeft,80,12400,6,16,0,16,0,1,,,,,,,,,,,,,,,,,,,,,,,,,,,,,,,,,,,,,,,
,,,,,,,,2023-08-16_08h43.37.910,HF_wild_card,2022.2.4,Win32,2.222296299,59497c498fb2140001afda85,64d2fd46c836a06233681665,64dc7df8fbb02c379c4e5762,,,,,,,sngl,resources/DG.BMP,resources/Empty.png,Door1,-0.00625,-0.013020833,1,0,0,1.2438,optionLeft,30,12430,6,17,0,17,0,1,,,,,,,,,,,,,,,,,,,,,,,,,,,,,,,,,,,,,,,
,,,,,,,,2023-08-16_08h43.37.910,HF_wild_card,2022.2.4,Win32,2.222296299,59497c498fb2140001afda85,64d2fd46c836a06233681665,64dc7df8fbb02c379c4e5762,,,,,,,sngl,resources/Empty.png,resources/DY.BMP,WildCard_NonEx,0.293229167,-0.083333333,1,0,0,1.8704,optionRight,45,12475,6,18,0,18,0,1,,,,,,,,,,,,,,,,,,,,,,,,,,,,,,,,,,,,,,,
,,,,,,,,2023-08-16_08h43.37.910,HF_wild_card,2022.2.4,Win32,2.222296299,59497c498fb2140001afda85,64d2fd46c836a06233681665,64dc7df8fbb02c379c4e5762,,,,,,,sngl,resources/DB.BMP,resources/Empty.png,Door3,-0.3109375,-0.013020833,1,0,0,2.6351,optionLeft,70,12545,6,19,0,19,0,1,,,,,,,,,,,,,,,,,,,,,,,,,,,,,,,,,,,,,,,
,,,,,,,,2023-08-16_08h43.37.910,HF_wild_card,2022.2.4,Win32,2.222296299,59497c498fb2140001afda85,64d2fd46c836a06233681665,64dc7df8fbb02c379c4e5762,,,,,,,ctch,resources/DR.BMP,resources/DG.BMP,Door4,-0.29140625,-0.002604167,1,0,0,2.7727,optionLeft,60,12605,6,20,0,20,0,1,,,,,,,,,,,,,,,,,,,,,,,,,,,,,,,,,,,,,,,
,,,,,,,,2023-08-16_08h43.37.910,HF_wild_card,2022.2.4,Win32,2.222296299,59497c498fb2140001afda85,64d2fd46c836a06233681665,64dc7df8fbb02c379c4e5762,,,,,,,decisionTrl,resources/DY.BMP,resources/DB.BMP,WildCard_NonEx,-0.308333333,-0.102864583,1,0,0,3.5523,optionLeft,55,12660,6,21,0,21,0,1,,,,,,,,,,,,,,,,,,,,,,,,,,,,,,,,,,,,,,,
,,,,,,,,2023-08-16_08h43.37.910,HF_wild_card,2022.2.4,Win32,2.222296299,59497c498fb2140001afda85,64d2fd46c836a06233681665,64dc7df8fbb02c379c4e5762,,,,,,,sngl,resources/Empty.png,resources/DB.BMP,Door3,-0.01796875,0.010416667,1,0,0,1.2391,optionRight,70,12730,6,22,0,22,0,1,,,,,,,,,,,,,,,,,,,,,,,,,,,,,,,,,,,,,,,
,,,,,,,,2023-08-16_08h43.37.910,HF_wild_card,2022.2.4,Win32,2.222296299,59497c498fb2140001afda85,64d2fd46c836a06233681665,64dc7df8fbb02c379c4e5762,,,,,,,decisionTrl,resources/DP.BMP,resources/DG.BMP,Door2,-0.01796875,0.002604167,1,0,0,1.3684,optionLeft,20,12750,6,23,0,23,0,1,,,,,,,,,,,,,,,,,,,,,,,,,,,,,,,,,,,,,,,
,,,,,,,,2023-08-16_08h43.37.910,HF_wild_card,2022.2.4,Win32,2.222296299,59497c498fb2140001afda85,64d2fd46c836a06233681665,64dc7df8fbb02c379c4e5762,,,,,,,decisionTrl,resources/DB.BMP,resources/DY.BMP,Door3,-0.2171875,-0.05078125,1,0,0,2.8289,optionLeft,70,12820,6,24,0,24,0,1,,,,,,,,,,,,,,,,,,,,,,,,,,,,,,,,,,,,,,,
,,,,,,,,2023-08-16_08h43.37.910,HF_wild_card,2022.2.4,Win32,2.222296299,59497c498fb2140001afda85,64d2fd46c836a06233681665,64dc7df8fbb02c379c4e5762,,,,,,,ctch,resources/DB.BMP,resources/DP.BMP,Door2,0.202083333,-0.0703125,1,0,0,2.0647,optionRight,20,12840,6,25,0,25,0,1,,,,,,,,,,,,,,,,,,,,,,,,,,,,,,,,,,,,,,,
,,,,,,,,2023-08-16_08h43.37.910,HF_wild_card,2022.2.4,Win32,2.222296299,59497c498fb2140001afda85,64d2fd46c836a06233681665,64dc7df8fbb02c379c4e5762,,,,,,,ctch,resources/DG.BMP,resources/DR.BMP,Door4,0.418229167,-0.184895833,1,0,0,2.8484,optionRight,80,12920,6,26,0,26,0,1,,,,,,,,,,,,,,,,,,,,,,,,,,,,,,,,,,,,,,,
,,,,,,,,2023-08-16_08h43.37.910,HF_wild_card,2022.2.4,Win32,2.222296299,59497c498fb2140001afda85,64d2fd46c836a06233681665,64dc7df8fbb02c379c4e5762,,,,,,,sngl,resources/DR.BMP,resources/Empty.png,Door4,-0.261458333,-0.024739583,1,0,0,1.9021,optionLeft,60,12980,6,27,0,27,0,1,,,,,,,,,,,,,,,,,,,,,,,,,,,,,,,,,,,,,,,
,,,,,,,,2023-08-16_08h43.37.910,HF_wild_card,2022.2.4,Win32,2.222296299,59497c498fb2140001afda85,64d2fd46c836a06233681665,64dc7df8fbb02c379c4e5762,,,,,,,sngl,resources/Empty.png,resources/DG.BMP,Door1,0.23203125,-0.01171875,1,0,0,4.4253,optionRight,30,13010,6,28,0,28,0,1,,,,,,,,,,,,,,,,,,,,,,,,,,,,,,,,,,,,,,,
,,,,,,,,2023-08-16_08h43.37.910,HF_wild_card,2022.2.4,Win32,2.222296299,59497c498fb2140001afda85,64d2fd46c836a06233681665,64dc7df8fbb02c379c4e5762,,,,,,,decisionTrl,resources/DG.BMP,resources/DP.BMP,Door2,0.143489583,-0.0390625,1,0,0,2.7199,optionRight,40,13050,6,29,0,29,0,1,,,,,,,,,,,,,,,,,,,,,,,,,,,,,,,,,,,,,,,
,,,,,,,,2023-08-16_08h43.37.910,HF_wild_card,2022.2.4,Win32,2.222296299,59497c498fb2140001afda85,64d2fd46c836a06233681665,64dc7df8fbb02c379c4e5762,,,,,,,sngl,resources/Empty.png,resources/DP.BMP,Door2,0.213802083,-0.075520833,1,0,0,1.963,optionRight,40,13090,6,30,0,30,0,1,,,,,,,,,,,,,,,,,,,,,,,,,,,,,,,,,,,,,,,
,,,,,,,,2023-08-16_08h43.37.910,HF_wild_card,2022.2.4,Win32,2.222296299,59497c498fb2140001afda85,64d2fd46c836a06233681665,64dc7df8fbb02c379c4e5762,,,,,,,sngl,resources/DY.BMP,resources/Empty.png,WildCard_NonEx,-0.278385417,-0.028645833,1,0,0,2.5965,optionLeft,55,13145,6,31,0,31,0,1,,,,,,,,,,,,,,,,,,,,,,,,,,,,,,,,,,,,,,,
,,,,,,,,2023-08-16_08h43.37.910,HF_wild_card,2022.2.4,Win32,2.222296299,59497c498fb2140001afda85,64d2fd46c836a06233681665,64dc7df8fbb02c379c4e5762,,,,,,,sngl,resources/DP.BMP,resources/Empty.png,Door2,-0.265364583,-0.018229167,1,0,0,1.8764,optionLeft,20,13165,6,32,0,32,0,1,,,,,,,,,,,,,,,,,,,,,,,,,,,,,,,,,,,,,,,
,,,,,,,,2023-08-16_08h43.37.910,HF_wild_card,2022.2.4,Win32,2.222296299,59497c498fb2140001afda85,64d2fd46c836a06233681665,64dc7df8fbb02c379c4e5762,,,,,,,decisionTrl,resources/DG.BMP,resources/DP.BMP,Door2,0.30625,-0.049479167,1,0,0,2.1572,optionRight,20,13185,6,33,0,33,0,1,,,,,,,,,,,,,,,,,,,,,,,,,,,,,,,,,,,,,,,
,,,,,,,,2023-08-16_08h43.37.910,HF_wild_card,2022.2.4,Win32,2.222296299,59497c498fb2140001afda85,64d2fd46c836a06233681665,64dc7df8fbb02c379c4e5762,,,,,,,decisionTrl,resources/DP.BMP,resources/DG.BMP,Door1,0.237239583,-0.063802083,1,0,0,2.757,optionRight,30,13215,6,34,0,34,0,1,,,,,,,,,,,,,,,,,,,,,,,,,,,,,,,,,,,,,,,
,,,,,,,,2023-08-16_08h43.37.910,HF_wild_card,2022.2.4,Win32,2.222296299,59497c498fb2140001afda85,64d2fd46c836a06233681665,64dc7df8fbb02c379c4e5762,,,,,,,decisionTrl,resources/DP.BMP,resources/DY.BMP,WildCard_NonEx,0.205989583,-0.067708333,1,0,0,2.0456,optionRight,45,13260,6,35,0,35,0,1,,,,,,,,,,,,,,,,,,,,,,,,,,,,,,,,,,,,,,,
,,,,,,,,2023-08-16_08h43.37.910,HF_wild_card,2022.2.4,Win32,2.222296299,59497c498fb2140001afda85,64d2fd46c836a06233681665,64dc7df8fbb02c379c4e5762,,,,,,,decisionTrl,resources/DR.BMP,resources/DB.BMP,Door4,-0.313541667,-0.0625,1,0,0,2.0725,optionLeft,80,13340,6,36,0,36,0,1,,,,,,,,,,,,,,,,,,,,,,,,,,,,,,,,,,,,,,,
,,,,,,,,2023-08-16_08h43.37.910,HF_wild_card,2022.2.4,Win32,2.222296299,59497c498fb2140001afda85,64d2fd46c836a06233681665,64dc7df8fbb02c379c4e5762,,,,,,,ctch,resources/DP.BMP,resources/DB.BMP,Door3,0.245052083,-0.033854167,1,0,0,3.6567,optionRight,70,13410,6,37,0,37,0,1,,,,,,,,,,,,,,,,,,,,,,,,,,,,,,,,,,,,,,,
,,,,,,,,2023-08-16_08h43.37.910,HF_wild_card,2022.2.4,Win32,2.222296299,59497c498fb2140001afda85,64d2fd46c836a06233681665,64dc7df8fbb02c379c4e5762,,,,,,,ctch,resources/DR.BMP,resources/DG.BMP,Door4,-0.262760417,-0.045572917,1,0,0,2.2668,optionLeft,60,13470,6,38,0,38,0,1,,,,,,,,,,,,,,,,,,,,,,,,,,,,,,,,,,,,,,,
,,,,,,,,2023-08-16_08h43.37.910,HF_wild_card,2022.2.4,Win32,2.222296299,59497c498fb2140001afda85,64d2fd46c836a06233681665,64dc7df8fbb02c379c4e5762,,,,,,,decisionTrl,resources/DB.BMP,resources/DR.BMP,Door4,0.23203125,-0.010416667,1,0,0,2.0397,optionRight,60,13530,6,39,0,39,0,1,,,,,,,,,,,,,,,,,,,,,,,,,,,,,,,,,,,,,,,
,,,,,,,,2023-08-16_08h43.37.910,HF_wild_card,2022.2.4,Win32,2.222296299,59497c498fb2140001afda85,64d2fd46c836a06233681665,64dc7df8fbb02c379c4e5762,,,,,,,sngl,resources/Empty.png,resources/DR.BMP,Door4,0.000260417,-0.009114583,1,0,0,1.2654,optionRight,80,13610,6,40,0,40,0,1,,,,,,,,,,,,,,,,,,,,,,,,,,,,,,,,,,,,,,,
,,,,,,,,2023-08-16_08h43.37.910,HF_wild_card,2022.2.4,Win32,2.222296299,59497c498fb2140001afda85,64d2fd46c836a06233681665,64dc7df8fbb02c379c4e5762,,,,,,,decisionTrl,resources/DB.BMP,resources/DR.BMP,Door3,-0.209375,-0.033854167,1,0,0,2.7641,optionLeft,70,13680,6,41,0,41,0,1,,,,,,,,,,,,,,,,,,,,,,,,,,,,,,,,,,,,,,,
,,,,,,,,2023-08-16_08h43.37.910,HF_wild_card,2022.2.4,Win32,2.222296299,59497c498fb2140001afda85,64d2fd46c836a06233681665,64dc7df8fbb02c379c4e5762,,,,,,,ctch,resources/DP.BMP,resources/DB.BMP,Door2,-0.176822917,-0.032552083,1,0,0,2.7618,optionLeft,20,13700,6,42,0,42,0,1,,,,,,,,,,,,,,,,,,,,,,,,,,,,,,,,,,,,,,,
,,,,,,,,2023-08-16_08h43.37.910,HF_wild_card,2022.2.4,Win32,2.222296299,59497c498fb2140001afda85,64d2fd46c836a06233681665,64dc7df8fbb02c379c4e5762,,,,,,,decisionTrl,resources/DP.BMP,resources/DG.BMP,Door1,0.045833333,0.0078125,1,0,0,1.3686,optionRight,30,13730,6,43,0,43,0,1,,,,,,,,,,,,,,,,,,,,,,,,,,,,,,,,,,,,,,,
,,,,,,,,2023-08-16_08h43.37.910,HF_wild_card,2022.2.4,Win32,2.222296299,59497c498fb2140001afda85,64d2fd46c836a06233681665,64dc7df8fbb02c379c4e5762,,,,,,,,,,,,,,,,,,,,,,,,,,5,0,5,0,1,,,,,,,,,,,,,,,,,,,,,,,,,,,,,,,,,,
,,,,,,,,2023-08-16_08h43.37.910,HF_wild_card,2022.2.4,Win32,2.222296299,59497c498fb2140001afda85,64d2fd46c836a06233681665,64dc7df8fbb02c379c4e5762,,,,,,,decisionTrl,resources/DR.BMP,resources/DB.BMP,Door3,0.31015625,0.00390625,1,0,0,2.7204,optionRight,70,13800,7,0,0,0,0,1,,,,,,,,,,,,,,,,,,,,,,,,,,,,,,,,,,,,,,,
,,,,,,,,2023-08-16_08h43.37.910,HF_wild_card,2022.2.4,Win32,2.222296299,59497c498fb2140001afda85,64d2fd46c836a06233681665,64dc7df8fbb02c379c4e5762,,,,,,,decisionTrl,resources/DP.BMP,resources/DG.BMP,Door2,-0.149479167,-0.069010417,1,0,0,3.5081,optionLeft,20,13820,7,1,0,1,0,1,,,,,,,,,,,,,,,,,,,,,,,,,,,,,,,,,,,,,,,
,,,,,,,,2023-08-16_08h43.37.910,HF_wild_card,2022.2.4,Win32,2.222296299,59497c498fb2140001afda85,64d2fd46c836a06233681665,64dc7df8fbb02c379c4e5762,,,,,,,decisionTrl,resources/DR.BMP,resources/DB.BMP,Door4,-0.245833333,-0.061197917,1,0,0,2.8377,optionLeft,80,13900,7,2,0,2,0,1,,,,,,,,,,,,,,,,,,,,,,,,,,,,,,,,,,,,,,,
,,,,,,,,2023-08-16_08h43.37.910,HF_wild_card,2022.2.4,Win32,2.222296299,59497c498fb2140001afda85,64d2fd46c836a06233681665,64dc7df8fbb02c379c4e5762,,,,,,,decisionTrl,resources/DR.BMP,resources/DB.BMP,Door3,0.29453125,-0.016927083,1,0,0,2.069,optionRight,70,13970,7,3,0,3,0,1,,,,,,,,,,,,,,,,,,,,,,,,,,,,,,,,,,,,,,,
,,,,,,,,2023-08-16_08h43.37.910,HF_wild_card,2022.2.4,Win32,2.222296299,59497c498fb2140001afda85,64d2fd46c836a06233681665,64dc7df8fbb02c379c4e5762,,,,,,,ctch,resources/DP.BMP,resources/DB.BMP,Door2,-0.235416667,-0.07421875,1,0,0,2.1606,optionLeft,20,13990,7,4,0,4,0,1,,,,,,,,,,,,,,,,,,,,,,,,,,,,,,,,,,,,,,,
,,,,,,,,2023-08-16_08h43.37.910,HF_wild_card,2022.2.4,Win32,2.222296299,59497c498fb2140001afda85,64d2fd46c836a06233681665,64dc7df8fbb02c379c4e5762,,,,,,,decisionTrl,resources/DP.BMP,resources/DG.BMP,Door1,0.38046875,0.01171875,1,0,0,2.7557,optionRight,30,14020,7,5,0,5,0,1,,,,,,,,,,,,,,,,,,,,,,,,,,,,,,,,,,,,,,,
,,,,,,,,2023-08-16_08h43.37.910,HF_wild_card,2022.2.4,Win32,2.222296299,59497c498fb2140001afda85,64d2fd46c836a06233681665,64dc7df8fbb02c379c4e5762,,,,,,,decisionTrl,resources/DB.BMP,resources/DR.BMP,Door4,0.156510417,0.015625,1,0,0,2.7306,optionRight,60,14080,7,6,0,6,0,1,,,,,,,,,,,,,,,,,,,,,,,,,,,,,,,,,,,,,,,
,,,,,,,,2023-08-16_08h43.37.910,HF_wild_card,2022.2.4,Win32,2.222296299,59497c498fb2140001afda85,64d2fd46c836a06233681665,64dc7df8fbb02c379c4e5762,,,,,,,decisionTrl,resources/DG.BMP,resources/DP.BMP,Door1,-0.262760417,-0.0859375,1,0,0,2.8156,optionLeft,30,14110,7,7,0,7,0,1,,,,,,,,,,,,,,,,,,,,,,,,,,,,,,,,,,,,,,,
,,,,,,,,2023-08-16_08h43.37.910,HF_wild_card,2022.2.4,Win32,2.222296299,59497c498fb2140001afda85,64d2fd46c836a06233681665,64dc7df8fbb02c379c4e5762,,,,,,,decisionTrl,resources/DB.BMP,resources/DR.BMP,Door4,0.320572917,-0.006510417,1,0,0,2.168,optionRight,80,14190,7,8,0,8,0,1,,,,,,,,,,,,,,,,,,,,,,,,,,,,,,,,,,,,,,,
,,,,,,,,2023-08-16_08h43.37.910,HF_wild_card,2022.2.4,Win32,2.222296299,59497c498fb2140001afda85,64d2fd46c836a06233681665,64dc7df8fbb02c379c4e5762,,,,,,,ctch,resources/DG.BMP,resources/DR.BMP,Door4,0.398697917,-0.063802083,1,0,0,2.0573,optionRight,80,14270,7,9,0,9,0,1,,,,,,,,,,,,,,,,,,,,,,,,,,,,,,,,,,,,,,,
,,,,,,,,2023-08-16_08h43.37.910,HF_wild_card,2022.2.4,Win32,2.222296299,59497c498fb2140001afda85,64d2fd46c836a06233681665,64dc7df8fbb02c379c4e5762,,,,,,,decisionTrl,resources/DB.BMP,resources/DR.BMP,Door4,0.2203125,0.01171875,1,0,0,2.8101,optionRight,60,14330,7,10,0,10,0,1,,,,,,,,,,,,,,,,,,,,,,,,,,,,,,,,,,,,,,,
,,,,,,,,2023-08-16_08h43.37.910,HF_wild_card,2022.2.4,Win32,2.222296299,59497c498fb2140001afda85,64d2fd46c836a06233681665,64dc7df8fbb02c379c4e5762,,,,,,,ctch,resources/DP.BMP,resources/DB.BMP,Door3,0.330989583,0.122395833,1,0,0,3.4021,optionRight,70,14400,7,11,0,11,0,1,,,,,,,,,,,,,,,,,,,,,,,,,,,,,,,,,,,,,,,
,,,,,,,,2023-08-16_08h43.37.910,HF_wild_card,2022.2.4,Win32,2.222296299,59497c498fb2140001afda85,64d2fd46c836a06233681665,64dc7df8fbb02c379c4e5762,,,,,,,decisionTrl,resources/DG.BMP,resources/DP.BMP,Door2,0.252864583,-0.026041667,1,0,0,2.7093,optionRight,20,14420,7,12,0,12,0,1,,,,,,,,,,,,,,,,,,,,,,,,,,,,,,,,,,,,,,,
,,,,,,,,2023-08-16_08h43.37.910,HF_wild_card,2022.2.4,Win32,2.222296299,59497c498fb2140001afda85,64d2fd46c836a06233681665,64dc7df8fbb02c379c4e5762,,,,,,,ctch,resources/DB.BMP,resources/DP.BMP,Door3,-0.265364583,-0.069010417,1,0,0,5.5098,optionLeft,70,14490,7,13,0,13,0,1,,,,,,,,,,,,,,,,,,,,,,,,,,,,,,,,,,,,,,,
,,,,,,,,2023-08-16_08h43.37.910,HF_wild_card,2022.2.4,Win32,2.222296299,59497c498fb2140001afda85,64d2fd46c836a06233681665,64dc7df8fbb02c379c4e5762,,,,,,,decisionTrl,resources/DG.BMP,resources/DP.BMP,Door2,0.30234375,-0.08203125,1,0,0,6.2748,optionRight,20,14510,7,14,0,14,0,1,,,,,,,,,,,,,,,,,,,,,,,,,,,,,,,,,,,,,,,
,,,,,,,,2023-08-16_08h43.37.910,HF_wild_card,2022.2.4,Win32,2.222296299,59497c498fb2140001afda85,64d2fd46c836a06233681665,64dc7df8fbb02c379c4e5762,,,,,,,decisionTrl,resources/DP.BMP,resources/DG.BMP,Door2,-0.196354167,-0.028645833,1,0,0,2.601,optionLeft,40,14550,7,15,0,15,0,1,,,,,,,,,,,,,,,,,,,,,,,,,,,,,,,,,,,,,,,
,,,,,,,,2023-08-16_08h43.37.910,HF_wild_card,2022.2.4,Win32,2.222296299,59497c498fb2140001afda85,64d2fd46c836a06233681665,64dc7df8fbb02c379c4e5762,,,,,,,decisionTrl,resources/DR.BMP,resources/DB.BMP,Door4,-0.254947917,-0.024739583,1,0,0,2.0225,optionLeft,60,14610,7,16,0,16,0,1,,,,,,,,,,,,,,,,,,,,,,,,,,,,,,,,,,,,,,,
,,,,,,,,2023-08-16_08h43.37.910,HF_wild_card,2022.2.4,Win32,2.222296299,59497c498fb2140001afda85,64d2fd46c836a06233681665,64dc7df8fbb02c379c4e5762,,,,,,,decisionTrl,resources/DB.BMP,resources/DR.BMP,Door4,0.23984375,-0.041666667,1,0,0,2.1441,optionRight,60,14670,7,17,0,17,0,1,,,,,,,,,,,,,,,,,,,,,,,,,,,,,,,,,,,,,,,
,,,,,,,,2023-08-16_08h43.37.910,HF_wild_card,2022.2.4,Win32,2.222296299,59497c498fb2140001afda85,64d2fd46c836a06233681665,64dc7df8fbb02c379c4e5762,,,,,,,ctch,resources/DG.BMP,resources/DR.BMP,Door4,0.268489583,-0.0546875,1,0,0,2.8641,optionRight,60,14730,7,18,0,18,0,1,,,,,,,,,,,,,,,,,,,,,,,,,,,,,,,,,,,,,,,
,,,,,,,,2023-08-16_08h43.37.910,HF_wild_card,2022.2.4,Win32,2.222296299,59497c498fb2140001afda85,64d2fd46c836a06233681665,64dc7df8fbb02c379c4e5762,,,,,,,ctch,resources/DR.BMP,resources/DG.BMP,Door1,0.41953125,-0.06640625,1,0,0,2.0606,optionRight,30,14760,7,19,0,19,0,1,,,,,,,,,,,,,,,,,,,,,,,,,,,,,,,,,,,,,,,
,,,,,,,,2023-08-16_08h43.37.910,HF_wild_card,2022.2.4,Win32,2.222296299,59497c498fb2140001afda85,64d2fd46c836a06233681665,64dc7df8fbb02c379c4e5762,,,,,,,decisionTrl,resources/DB.BMP,resources/DR.BMP,Door3,-0.284895833,-0.0390625,1,0,0,2.2202,optionLeft,70,14830,7,20,0,20,0,1,,,,,,,,,,,,,,,,,,,,,,,,,,,,,,,,,,,,,,,
,,,,,,,,2023-08-16_08h43.37.910,HF_wild_card,2022.2.4,Win32,2.222296299,59497c498fb2140001afda85,64d2fd46c836a06233681665,64dc7df8fbb02c379c4e5762,,,,,,,decisionTrl,resources/DG.BMP,resources/DP.BMP,Door2,0.260677083,-0.009114583,1,0,0,2.1741,optionRight,20,14850,7,21,0,21,0,1,,,,,,,,,,,,,,,,,,,,,,,,,,,,,,,,,,,,,,,
,,,,,,,,2023-08-16_08h43.37.910,HF_wild_card,2022.2.4,Win32,2.222296299,59497c498fb2140001afda85,64d2fd46c836a06233681665,64dc7df8fbb02c379c4e5762,,,,,,,decisionTrl,resources/DG.BMP,resources/DP.BMP,Door2,0.260677083,-0.03125,1,0,0,3.5801,optionRight,20,14870,7,22,0,22,0,1,,,,,,,,,,,,,,,,,,,,,,,,,,,,,,,,,,,,,,,
,,,,,,,,2023-08-16_08h43.37.910,HF_wild_card,2022.2.4,Win32,2.222296299,59497c498fb2140001afda85,64d2fd46c836a06233681665,64dc7df8fbb02c379c4e5762,,,,,,,decisionTrl,resources/DG.BMP,resources/DP.BMP,Door2,0.27890625,-0.046875,1,0,0,2.9703,optionRight,40,14910,7,23,0,23,0,1,,,,,,,,,,,,,,,,,,,,,,,,,,,,,,,,,,,,,,,
,,,,,,,,2023-08-16_08h43.37.910,HF_wild_card,2022.2.4,Win32,2.222296299,59497c498fb2140001afda85,64d2fd46c836a06233681665,64dc7df8fbb02c379c4e5762,,,,,,,ctch,resources/DB.BMP,resources/DP.BMP,Door3,-0.22109375,-0.022135417,1,0,0,2.2863,optionLeft,70,14980,7,24,0,24,0,1,,,,,,,,,,,,,,,,,,,,,,,,,,,,,,,,,,,,,,,
,,,,,,,,2023-08-16_08h43.37.910,HF_wild_card,2022.2.4,Win32,2.222296299,59497c498fb2140001afda85,64d2fd46c836a06233681665,64dc7df8fbb02c379c4e5762,,,,,,,decisionTrl,resources/DP.BMP,resources/DG.BMP,Door2,-0.106510417,-0.045572917,1,0,0,2.0987,optionLeft,20,15000,7,25,0,25,0,1,,,,,,,,,,,,,,,,,,,,,,,,,,,,,,,,,,,,,,,
,,,,,,,,2023-08-16_08h43.37.910,HF_wild_card,2022.2.4,Win32,2.222296299,59497c498fb2140001afda85,64d2fd46c836a06233681665,64dc7df8fbb02c379c4e5762,,,,,,,decisionTrl,resources/DP.BMP,resources/DG.BMP,Door1,0.260677083,-0.055989583,1,0,0,3.0218,optionRight,30,15030,7,26,0,26,0,1,,,,,,,,,,,,,,,,,,,,,,,,,,,,,,,,,,,,,,,
,,,,,,,,2023-08-16_08h43.37.910,HF_wild_card,2022.2.4,Win32,2.222296299,59497c498fb2140001afda85,64d2fd46c836a06233681665,64dc7df8fbb02c379c4e5762,,,,,,,decisionTrl,resources/DR.BMP,resources/DB.BMP,Door4,-0.271875,-0.114583333,1,0,0,3.7003,optionLeft,60,15090,7,27,0,27,0,1,,,,,,,,,,,,,,,,,,,,,,,,,,,,,,,,,,,,,,,
,,,,,,,,2023-08-16_08h43.37.910,HF_wild_card,2022.2.4,Win32,2.222296299,59497c498fb2140001afda85,64d2fd46c836a06233681665,64dc7df8fbb02c379c4e5762,,,,,,,ctch,resources/DB.BMP,resources/DP.BMP,Door3,-0.145572917,-0.0234375,1,0,0,2.7621,optionLeft,70,15160,7,28,0,28,0,1,,,,,,,,,,,,,,,,,,,,,,,,,,,,,,,,,,,,,,,
,,,,,,,,2023-08-16_08h43.37.910,HF_wild_card,2022.2.4,Win32,2.222296299,59497c498fb2140001afda85,64d2fd46c836a06233681665,64dc7df8fbb02c379c4e5762,,,,,,,decisionTrl,resources/DB.BMP,resources/DR.BMP,Door4,0.16171875,-0.001302083,1,0,0,1.375,optionRight,60,15220,7,29,0,29,0,1,,,,,,,,,,,,,,,,,,,,,,,,,,,,,,,,,,,,,,,
,,,,,,,,2023-08-16_08h43.37.910,HF_wild_card,2022.2.4,Win32,2.222296299,59497c498fb2140001afda85,64d2fd46c836a06233681665,64dc7df8fbb02c379c4e5762,,,,,,,ctch,resources/DR.BMP,resources/DG.BMP,Door4,-0.149479167,-0.03515625,1,0,0,4.8003,optionLeft,80,15300,7,30,0,30,0,1,,,,,,,,,,,,,,,,,,,,,,,,,,,,,,,,,,,,,,,
,,,,,,,,2023-08-16_08h43.37.910,HF_wild_card,2022.2.4,Win32,2.222296299,59497c498fb2140001afda85,64d2fd46c836a06233681665,64dc7df8fbb02c379c4e5762,,,,,,,decisionTrl,resources/DP.BMP,resources/DG.BMP,Door2,-0.308333333,0.00390625,1,0,0,4.9888,optionLeft,20,15320,7,31,0,31,0,1,,,,,,,,,,,,,,,,,,,,,,,,,,,,,,,,,,,,,,,
,,,,,,,,2023-08-16_08h43.37.910,HF_wild_card,2022.2.4,Win32,2.222296299,59497c498fb2140001afda85,64d2fd46c836a06233681665,64dc7df8fbb02c379c4e5762,,,,,,,ctch,resources/DP.BMP,resources/DB.BMP,Door3,0.28671875,0.0234375,1,0,0,2.8546,optionRight,70,15390,7,32,0,32,0,1,,,,,,,,,,,,,,,,,,,,,,,,,,,,,,,,,,,,,,,
,,,,,,,,2023-08-16_08h43.37.910,HF_wild_card,2022.2.4,Win32,2.222296299,59497c498fb2140001afda85,64d2fd46c836a06233681665,64dc7df8fbb02c379c4e5762,,,,,,,ctch,resources/DR.BMP,resources/DG.BMP,Door4,-0.21328125,0.005208333,1,0,0,2.7335,optionLeft,60,15450,7,33,0,33,0,1,,,,,,,,,,,,,,,,,,,,,,,,,,,,,,,,,,,,,,,
,,,,,,,,2023-08-16_08h43.37.910,HF_wild_card,2022.2.4,Win32,2.222296299,59497c498fb2140001afda85,64d2fd46c836a06233681665,64dc7df8fbb02c379c4e5762,,,,,,,ctch,resources/DG.BMP,resources/DR.BMP,Door4,0.221614583,0.032552083,1,0,0,2.7479,optionRight,60,15510,7,34,0,34,0,1,,,,,,,,,,,,,,,,,,,,,,,,,,,,,,,,,,,,,,,
,,,,,,,,2023-08-16_08h43.37.910,HF_wild_card,2022.2.4,Win32,2.222296299,59497c498fb2140001afda85,64d2fd46c836a06233681665,64dc7df8fbb02c379c4e5762,,,,,,,decisionTrl,resources/DR.BMP,resources/DB.BMP,Door3,0.284114583,0.006510417,1,0,0,2.0617,optionRight,70,15580,7,35,0,35,0,1,,,,,,,,,,,,,,,,,,,,,,,,,,,,,,,,,,,,,,,
,,,,,,,,2023-08-16_08h43.37.910,HF_wild_card,2022.2.4,Win32,2.222296299,59497c498fb2140001afda85,64d2fd46c836a06233681665,64dc7df8fbb02c379c4e5762,,,,,,,,,,,,,,,,,,,,,,,,,,6,0,6,0,1,,,,,,,,,,,,,,,,,,,,,,,,,,,,,,,,,,
,,,,,,,,2023-08-16_08h43.37.910,HF_wild_card,2022.2.4,Win32,2.222296299,59497c498fb2140001afda85,64d2fd46c836a06233681665,64dc7df8fbb02c379c4e5762,,,,,,,,,,,,,,,,,,,,,,,,,,,,,,,3,,,,,,,,,,,,,,,,,,,,,,,,,,,,,,,,,
,,,,,,,,2023-08-16_08h43.37.910,HF_wild_card,2022.2.4,Win32,2.222296299,59497c498fb2140001afda85,64d2fd46c836a06233681665,64dc7df8fbb02c379c4e5762,,,,,,,,,,,,,,,,,,,,,,,,,,,,,,,,,,,,,,,,,,,,,,,,,,,,,,,,,,,,,,,,
,,,,,,,,2023-08-16_08h43.37.910,HF_wild_card,2022.2.4,Win32,2.222296299,59497c498fb2140001afda85,64d2fd46c836a06233681665,64dc7df8fbb02c379c4e5762,,,,,,,,,,,,,,,,,,,,,,,,,,,,,,,,70,Door3,resources/DB.BMP,0,0,0,0,1,,,,,,,,,,,,,,,,,,,,,,,,,
,,,,,,,,2023-08-16_08h43.37.910,HF_wild_card,2022.2.4,Win32,2.222296299,59497c498fb2140001afda85,64d2fd46c836a06233681665,64dc7df8fbb02c379c4e5762,,,,,,,,,,,,,,,,,,,,,,,,,,,,,,,,30,WC_extreme,resources/DBN.BMP,1,0,1,0,1,,,,,,,,,,,,,,,,,,,,,,,,,
,,,,,,,,2023-08-16_08h43.37.910,HF_wild_card,2022.2.4,Win32,2.222296299,59497c498fb2140001afda85,64d2fd46c836a06233681665,64dc7df8fbb02c379c4e5762,,,,,,,,,,,,,,,,,,,,,,,,,,,,,,,,60,Door4,resources/DR.BMP,2,0,2,0,1,,,,,,,,,,,,,,,,,,,,,,,,,
,,,,,,,,2023-08-16_08h43.37.910,HF_wild_card,2022.2.4,Win32,2.222296299,59497c498fb2140001afda85,64d2fd46c836a06233681665,64dc7df8fbb02c379c4e5762,,,,,,,,,,,,,,,,,,,,,,,,,,,,,,,,20,Door1,resources/DG.BMP,3,0,3,0,1,,,,,,,,,,,,,,,,,,,,,,,,,
,,,,,,,,2023-08-16_08h43.37.910,HF_wild_card,2022.2.4,Win32,2.222296299,59497c498fb2140001afda85,64d2fd46c836a06233681665,64dc7df8fbb02c379c4e5762,,,,,,,,,,,,,,,,,,,,,,,,,,,,,,,,40,Door2,resources/DP.BMP,4,0,4,0,1,,,,,,,,,,,,,,,,,,,,,,,,,
,,,,,,,,2023-08-16_08h43.37.910,HF_wild_card,2022.2.4,Win32,2.222296299,59497c498fb2140001afda85,64d2fd46c836a06233681665,64dc7df8fbb02c379c4e5762,,,,,,,,,,,,,,,,,,,,,,,,,,,,,,,,60,WC_nonExtreme,resources/DY.BMP,5,0,5,0,1,,,,,,,,,,,,,,,,,,,,,,,,,
,,,,,,,,2023-08-16_08h43.37.910,HF_wild_card,2022.2.4,Win32,2.222296299,59497c498fb2140001afda85,64d2fd46c836a06233681665,64dc7df8fbb02c379c4e5762,,,,,,,,,,,,,,,,,,,,,,,,,,,,,,,,,,,,,,,,,,,,,,,,,,,,,,,,,,,,,,,,
,,,,,,,,2023-08-16_08h43.37.910,HF_wild_card,2022.2.4,Win32,2.222296299,59497c498fb2140001afda85,64d2fd46c836a06233681665,64dc7df8fbb02c379c4e5762,,,,,,,,,,,,,,,,,,,,,,,,,,,,,,,,,,,,,,,,0,0,0,0,1,,,,,,,,,,,,,,,,,,,,
,,,,,,,,2023-08-16_08h43.37.910,HF_wild_card,2022.2.4,Win32,2.222296299,59497c498fb2140001afda85,64d2fd46c836a06233681665,64dc7df8fbb02c379c4e5762,,,,,,,,,,,,,,,,,,,,,,,,,,,,,,,,,,,,,,,,1,0,1,0,1,,,,,,,,,,,,,,,,,,,,
