Condition,Low fixed image (Door1),Low risky image (Door2),High fixed image (Door3),High risky image (Door4),Extreme Wild Card,NonExtreme Wild Card,,date,expName,psychopyVersion,OS,frameRate,PROLIFIC_PID,STUDY_ID,SESSION_ID,mouse_2.x,mouse_2.y,mouse_2.leftButton,mouse_2.midButton,mouse_2.rightButton,mouse_2.clicked_name,Trial Type,Left Option Image,Right Option Image,Chosen Door,mouse.x,mouse.y,mouse.leftButton,mouse.midButton,mouse.rightButton,mouse.time,mouse.clicked_name,Feedback,Cumulative Reward,Block,trial.thisRepN,trial.thisTrialN,trial.thisN,trial.thisIndex,trial.ran,blocks.thisRepN,blocks.thisTrialN,blocks.thisN,blocks.thisIndex,blocks.ran,Money conversion,First Outcome Reported,Shown Door (First Outcome),Displayed Image (First Outcome),outcomes.thisRepN,outcomes.thisTrialN,outcomes.thisN,outcomes.thisIndex,outcomes.ran,judgments.thisRepN,judgments.thisTrialN,judgments.thisN,judgments.thisIndex,judgments.ran,freqMouse.x,freqMouse.y,freqMouse.leftButton,freqMouse.midButton,freqMouse.rightButton,freqMouse.clicked_name,FQJ for first outcome,FQJ for second outcome,Shown Door,Displayed Image,trials.thisRepN,trials.thisTrialN,trials.thisN,trials.thisIndex,trials.ran,judgBlock.thisRepN,judgBlock.thisTrialN,judgBlock.thisN,judgBlock.thisIndex,judgBlock.ran
1,resources/DB.BMP,resources/DP.BMP,resources/DR.BMP,resources/DY.BMP,resources/DBN.BMP,resources/DG.BMP,,2023-08-16_08h57.58.808,HF_wild_card,2022.2.4,Linux armv8l,59.74429442,5e692a511f156a1e4aa18f70,64d2fd46c836a06233681665,64dc7c2e1a8da31a47b5d480,,,,,,,,,,,,,,,,,,,,,,,,,,,,,,,,,,,,,,,,,,,,,,,,,,,,,,,,,,,,,,,,
,,,,,,,,2023-08-16_08h57.58.808,HF_wild_card,2022.2.4,Linux armv8l,59.74429442,5e692a511f156a1e4aa18f70,64d2fd46c836a06233681665,64dc7c2e1a8da31a47b5d480,0.002038193,-0.431363831,1,0,0,agree,,,,,,,,,,,,,,,,,,,,,,,,,,,,,,,,,,,,,,,,,,,,,,,,,,,,,,,,,,
,,,,,,,,2023-08-16_08h57.58.808,HF_wild_card,2022.2.4,Linux armv8l,59.74429442,5e692a511f156a1e4aa18f70,64d2fd46c836a06233681665,64dc7c2e1a8da31a47b5d480,,,,,,,,,,,,,,,,,,,,,,,,,,,,,,,,,,,,,,,,,,,,,,,,,,,,,,,,,,,,,,,,
,,,,,,,,2023-08-16_08h57.58.808,HF_wild_card,2022.2.4,Linux armv8l,59.74429442,5e692a511f156a1e4aa18f70,64d2fd46c836a06233681665,64dc7c2e1a8da31a47b5d480,,,,,,,decisionTrl,resources/DY.BMP,resources/DG.BMP,Door4,-0.361911697,-0.119888268,1,0,0,1.366,optionLeft,60,60,1,0,0,0,0,1,,,,,,,,,,,,,,,,,,,,,,,,,,,,,,,,,,,,,,,
,,,,,,,,2023-08-16_08h57.58.808,HF_wild_card,2022.2.4,Linux armv8l,59.74429442,5e692a511f156a1e4aa18f70,64d2fd46c836a06233681665,64dc7c2e1a8da31a47b5d480,,,,,,,decisionTrl,resources/DG.BMP,resources/DR.BMP,WildCard_NonEx,-0.138757935,-0.048399925,1,0,0,0.9731,optionLeft,45,105,1,1,0,1,0,1,,,,,,,,,,,,,,,,,,,,,,,,,,,,,,,,,,,,,,,
,,,,,,,,2023-08-16_08h57.58.808,HF_wild_card,2022.2.4,Linux armv8l,59.74429442,5e692a511f156a1e4aa18f70,64d2fd46c836a06233681665,64dc7c2e1a8da31a47b5d480,,,,,,,decisionTrl,resources/DG.BMP,resources/DY.BMP,Door4,0.137274704,-0.025484848,1,0,0,0.9115,optionRight,80,185,1,2,0,2,0,1,,,,,,,,,,,,,,,,,,,,,,,,,,,,,,,,,,,,,,,
,,,,,,,,2023-08-16_08h57.58.808,HF_wild_card,2022.2.4,Linux armv8l,59.74429442,5e692a511f156a1e4aa18f70,64d2fd46c836a06233681665,64dc7c2e1a8da31a47b5d480,,,,,,,decisionTrl,resources/DP.BMP,resources/DB.BMP,Door2,-0.236509094,-0.050475273,1,0,0,0.9138,optionLeft,40,225,1,3,0,3,0,1,,,,,,,,,,,,,,,,,,,,,,,,,,,,,,,,,,,,,,,
,,,,,,,,2023-08-16_08h57.58.808,HF_wild_card,2022.2.4,Linux armv8l,59.74429442,5e692a511f156a1e4aa18f70,64d2fd46c836a06233681665,64dc7c2e1a8da31a47b5d480,,,,,,,sngl,resources/Empty.png,resources/DR.BMP,Door3,0.15050705,-0.064801254,1,0,0,0.7733,optionRight,70,295,1,4,0,4,0,1,,,,,,,,,,,,,,,,,,,,,,,,,,,,,,,,,,,,,,,
,,,,,,,,2023-08-16_08h57.58.808,HF_wild_card,2022.2.4,Linux armv8l,59.74429442,5e692a511f156a1e4aa18f70,64d2fd46c836a06233681665,64dc7c2e1a8da31a47b5d480,,,,,,,ctch,resources/DP.BMP,resources/DR.BMP,Door3,0.145168915,-0.084352417,1,0,0,1.2613,optionRight,70,365,1,5,0,5,0,1,,,,,,,,,,,,,,,,,,,,,,,,,,,,,,,,,,,,,,,
,,,,,,,,2023-08-16_08h57.58.808,HF_wild_card,2022.2.4,Linux armv8l,59.74429442,5e692a511f156a1e4aa18f70,64d2fd46c836a06233681665,64dc7c2e1a8da31a47b5d480,,,,,,,sngl,resources/Empty.png,resources/DB.BMP,Door1,0.242992401,-0.113496819,1,0,0,0.7572,optionRight,30,395,1,6,0,6,0,1,,,,,,,,,,,,,,,,,,,,,,,,,,,,,,,,,,,,,,,
,,,,,,,,2023-08-16_08h57.58.808,HF_wild_card,2022.2.4,Linux armv8l,59.74429442,5e692a511f156a1e4aa18f70,64d2fd46c836a06233681665,64dc7c2e1a8da31a47b5d480,,,,,,,ctch,resources/DR.BMP,resources/DP.BMP,Door2,0.345879745,-0.191702271,1,0,0,0.7933,optionRight,40,435,1,7,0,7,0,1,,,,,,,,,,,,,,,,,,,,,,,,,,,,,,,,,,,,,,,
,,,,,,,,2023-08-16_08h57.58.808,HF_wild_card,2022.2.4,Linux armv8l,59.74429442,5e692a511f156a1e4aa18f70,64d2fd46c836a06233681665,64dc7c2e1a8da31a47b5d480,,,,,,,decisionTrl,resources/DB.BMP,resources/DP.BMP,Door1,-0.561385841,0.14058548,1,0,0,1.5088,optionLeft,30,465,1,8,0,8,0,1,,,,,,,,,,,,,,,,,,,,,,,,,,,,,,,,,,,,,,,
,,,,,,,,2023-08-16_08h57.58.808,HF_wild_card,2022.2.4,Linux armv8l,59.74429442,5e692a511f156a1e4aa18f70,64d2fd46c836a06233681665,64dc7c2e1a8da31a47b5d480,,,,,,,decisionTrl,resources/DP.BMP,resources/DB.BMP,Door1,0.478922577,-0.078302269,1,0,0,5.8451,optionRight,30,495,1,9,0,9,0,1,,,,,,,,,,,,,,,,,,,,,,,,,,,,,,,,,,,,,,,
,,,,,,,,2023-08-16_08h57.58.808,HF_wild_card,2022.2.4,Linux armv8l,59.74429442,5e692a511f156a1e4aa18f70,64d2fd46c836a06233681665,64dc7c2e1a8da31a47b5d480,,,,,,,decisionTrl,resources/DY.BMP,resources/DR.BMP,Door4,-0.162652054,-0.068714561,1,0,0,0.8593,optionLeft,80,575,1,10,0,10,0,1,,,,,,,,,,,,,,,,,,,,,,,,,,,,,,,,,,,,,,,
,,,,,,,,2023-08-16_08h57.58.808,HF_wild_card,2022.2.4,Linux armv8l,59.74429442,5e692a511f156a1e4aa18f70,64d2fd46c836a06233681665,64dc7c2e1a8da31a47b5d480,,,,,,,ctch,resources/DR.BMP,resources/DP.BMP,Door3,-0.299812317,-0.065611572,1,0,0,1.446,optionLeft,70,645,1,11,0,11,0,1,,,,,,,,,,,,,,,,,,,,,,,,,,,,,,,,,,,,,,,
,,,,,,,,2023-08-16_08h57.58.808,HF_wild_card,2022.2.4,Linux armv8l,59.74429442,5e692a511f156a1e4aa18f70,64d2fd46c836a06233681665,64dc7c2e1a8da31a47b5d480,,,,,,,decisionTrl,resources/DR.BMP,resources/DY.BMP,Door3,-0.412182388,-0.014624748,1,0,0,0.7283,optionLeft,70,715,1,12,0,12,0,1,,,,,,,,,,,,,,,,,,,,,,,,,,,,,,,,,,,,,,,
,,,,,,,,2023-08-16_08h57.58.808,HF_wild_card,2022.2.4,Linux armv8l,59.74429442,5e692a511f156a1e4aa18f70,64d2fd46c836a06233681665,64dc7c2e1a8da31a47b5d480,,,,,,,decisionTrl,resources/DG.BMP,resources/DP.BMP,WildCard_NonEx,-0.371437721,0.001687508,1,0,0,1.3007,optionLeft,45,760,1,13,0,13,0,1,,,,,,,,,,,,,,,,,,,,,,,,,,,,,,,,,,,,,,,
,,,,,,,,2023-08-16_08h57.58.808,HF_wild_card,2022.2.4,Linux armv8l,59.74429442,5e692a511f156a1e4aa18f70,64d2fd46c836a06233681665,64dc7c2e1a8da31a47b5d480,,,,,,,sngl,resources/DR.BMP,resources/Empty.png,Door3,-0.188436165,0.003937988,1,0,0,0.8255,optionLeft,70,830,1,14,0,14,0,1,,,,,,,,,,,,,,,,,,,,,,,,,,,,,,,,,,,,,,,
,,,,,,,,2023-08-16_08h57.58.808,HF_wild_card,2022.2.4,Linux armv8l,59.74429442,5e692a511f156a1e4aa18f70,64d2fd46c836a06233681665,64dc7c2e1a8da31a47b5d480,,,,,,,sngl,resources/Empty.png,resources/DY.BMP,Door4,0.311420288,-0.06661541,1,0,0,0.7266,optionRight,60,890,1,15,0,15,0,1,,,,,,,,,,,,,,,,,,,,,,,,,,,,,,,,,,,,,,,
,,,,,,,,2023-08-16_08h57.58.808,HF_wild_card,2022.2.4,Linux armv8l,59.74429442,5e692a511f156a1e4aa18f70,64d2fd46c836a06233681665,64dc7c2e1a8da31a47b5d480,,,,,,,decisionTrl,resources/DP.BMP,resources/DB.BMP,Door2,-0.131459656,-0.047367668,1,0,0,1.3124,optionLeft,20,910,1,16,0,16,0,1,,,,,,,,,,,,,,,,,,,,,,,,,,,,,,,,,,,,,,,
,,,,,,,,2023-08-16_08h57.58.808,HF_wild_card,2022.2.4,Linux armv8l,59.74429442,5e692a511f156a1e4aa18f70,64d2fd46c836a06233681665,64dc7c2e1a8da31a47b5d480,,,,,,,decisionTrl,resources/DP.BMP,resources/DB.BMP,Door1,0.322278061,-0.073145103,1,0,0,0.7135,optionRight,30,940,1,17,0,17,0,1,,,,,,,,,,,,,,,,,,,,,,,,,,,,,,,,,,,,,,,
,,,,,,,,2023-08-16_08h57.58.808,HF_wild_card,2022.2.4,Linux armv8l,59.74429442,5e692a511f156a1e4aa18f70,64d2fd46c836a06233681665,64dc7c2e1a8da31a47b5d480,,,,,,,sngl,resources/DG.BMP,resources/Empty.png,WildCard_NonEx,-0.225317879,0.020554237,1,0,0,0.7761,optionLeft,55,995,1,18,0,18,0,1,,,,,,,,,,,,,,,,,,,,,,,,,,,,,,,,,,,,,,,
,,,,,,,,2023-08-16_08h57.58.808,HF_wild_card,2022.2.4,Linux armv8l,59.74429442,5e692a511f156a1e4aa18f70,64d2fd46c836a06233681665,64dc7c2e1a8da31a47b5d480,,,,,,,decisionTrl,resources/DR.BMP,resources/DY.BMP,Door4,0.239178772,0.009319038,1,0,0,2.3138,optionRight,80,1075,1,19,0,19,0,1,,,,,,,,,,,,,,,,,,,,,,,,,,,,,,,,,,,,,,,
,,,,,,,,2023-08-16_08h57.58.808,HF_wild_card,2022.2.4,Linux armv8l,59.74429442,5e692a511f156a1e4aa18f70,64d2fd46c836a06233681665,64dc7c2e1a8da31a47b5d480,,,,,,,decisionTrl,resources/DR.BMP,resources/DY.BMP,Door3,-0.158142853,-0.02855648,1,0,0,1.4252,optionLeft,70,1145,1,20,0,20,0,1,,,,,,,,,,,,,,,,,,,,,,,,,,,,,,,,,,,,,,,
,,,,,,,,2023-08-16_08h57.58.808,HF_wild_card,2022.2.4,Linux armv8l,59.74429442,5e692a511f156a1e4aa18f70,64d2fd46c836a06233681665,64dc7c2e1a8da31a47b5d480,,,,,,,decisionTrl,resources/DR.BMP,resources/DY.BMP,Door4,0.294796448,-0.038449669,1,0,0,2.6853,optionRight,60,1205,1,21,0,21,0,1,,,,,,,,,,,,,,,,,,,,,,,,,,,,,,,,,,,,,,,
,,,,,,,,2023-08-16_08h57.58.808,HF_wild_card,2022.2.4,Linux armv8l,59.74429442,5e692a511f156a1e4aa18f70,64d2fd46c836a06233681665,64dc7c2e1a8da31a47b5d480,,,,,,,sngl,resources/DB.BMP,resources/Empty.png,Door1,-0.182503242,-0.018243217,1,0,0,0.8729,optionLeft,30,1235,1,22,0,22,0,1,,,,,,,,,,,,,,,,,,,,,,,,,,,,,,,,,,,,,,,
,,,,,,,,2023-08-16_08h57.58.808,HF_wild_card,2022.2.4,Linux armv8l,59.74429442,5e692a511f156a1e4aa18f70,64d2fd46c836a06233681665,64dc7c2e1a8da31a47b5d480,,,,,,,decisionTrl,resources/DB.BMP,resources/DG.BMP,WildCard_NonEx,0.249027557,-0.039947128,1,0,0,1.0622,optionRight,45,1280,1,23,0,23,0,1,,,,,,,,,,,,,,,,,,,,,,,,,,,,,,,,,,,,,,,
,,,,,,,,2023-08-16_08h57.58.808,HF_wild_card,2022.2.4,Linux armv8l,59.74429442,5e692a511f156a1e4aa18f70,64d2fd46c836a06233681665,64dc7c2e1a8da31a47b5d480,,,,,,,decisionTrl,resources/DY.BMP,resources/DR.BMP,Door4,-0.312570038,0.001777725,1,0,0,0.9219,optionLeft,60,1340,1,24,0,24,0,1,,,,,,,,,,,,,,,,,,,,,,,,,,,,,,,,,,,,,,,
,,,,,,,,2023-08-16_08h57.58.808,HF_wild_card,2022.2.4,Linux armv8l,59.74429442,5e692a511f156a1e4aa18f70,64d2fd46c836a06233681665,64dc7c2e1a8da31a47b5d480,,,,,,,sngl,resources/Empty.png,resources/DG.BMP,WildCard_NonEx,0.209544296,-0.003068047,1,0,0,0.7965,optionRight,55,1395,1,25,0,25,0,1,,,,,,,,,,,,,,,,,,,,,,,,,,,,,,,,,,,,,,,
,,,,,,,,2023-08-16_08h57.58.808,HF_wild_card,2022.2.4,Linux armv8l,59.74429442,5e692a511f156a1e4aa18f70,64d2fd46c836a06233681665,64dc7c2e1a8da31a47b5d480,,,,,,,sngl,resources/DG.BMP,resources/Empty.png,WildCard_NonEx,-0.118238983,-0.051260796,1,0,0,0.7432,optionLeft,45,1440,1,26,0,26,0,1,,,,,,,,,,,,,,,,,,,,,,,,,,,,,,,,,,,,,,,
,,,,,,,,2023-08-16_08h57.58.808,HF_wild_card,2022.2.4,Linux armv8l,59.74429442,5e692a511f156a1e4aa18f70,64d2fd46c836a06233681665,64dc7c2e1a8da31a47b5d480,,,,,,,decisionTrl,resources/DR.BMP,resources/DG.BMP,WildCard_NonEx,0.234894028,-0.028047905,1,0,0,0.6778,optionRight,45,1485,1,27,0,27,0,1,,,,,,,,,,,,,,,,,,,,,,,,,,,,,,,,,,,,,,,
,,,,,,,,2023-08-16_08h57.58.808,HF_wild_card,2022.2.4,Linux armv8l,59.74429442,5e692a511f156a1e4aa18f70,64d2fd46c836a06233681665,64dc7c2e1a8da31a47b5d480,,,,,,,sngl,resources/DY.BMP,resources/Empty.png,Door4,-0.201081276,-0.01142437,1,0,0,0.6422,optionLeft,80,1565,1,28,0,28,0,1,,,,,,,,,,,,,,,,,,,,,,,,,,,,,,,,,,,,,,,
,,,,,,,,2023-08-16_08h57.58.808,HF_wild_card,2022.2.4,Linux armv8l,59.74429442,5e692a511f156a1e4aa18f70,64d2fd46c836a06233681665,64dc7c2e1a8da31a47b5d480,,,,,,,ctch,resources/DB.BMP,resources/DY.BMP,Door4,0.324292908,-0.020120201,1,0,0,0.7284,optionRight,60,1625,1,29,0,29,0,1,,,,,,,,,,,,,,,,,,,,,,,,,,,,,,,,,,,,,,,
,,,,,,,,2023-08-16_08h57.58.808,HF_wild_card,2022.2.4,Linux armv8l,59.74429442,5e692a511f156a1e4aa18f70,64d2fd46c836a06233681665,64dc7c2e1a8da31a47b5d480,,,,,,,decisionTrl,resources/DB.BMP,resources/DP.BMP,Door2,0.231946716,-0.063298454,1,0,0,1.1094,optionRight,40,1665,1,30,0,30,0,1,,,,,,,,,,,,,,,,,,,,,,,,,,,,,,,,,,,,,,,
,,,,,,,,2023-08-16_08h57.58.808,HF_wild_card,2022.2.4,Linux armv8l,59.74429442,5e692a511f156a1e4aa18f70,64d2fd46c836a06233681665,64dc7c2e1a8da31a47b5d480,,,,,,,ctch,resources/DB.BMP,resources/DY.BMP,Door4,0.30821167,-0.064755821,1,0,0,0.8951,optionRight,60,1725,1,31,0,31,0,1,,,,,,,,,,,,,,,,,,,,,,,,,,,,,,,,,,,,,,,
,,,,,,,,2023-08-16_08h57.58.808,HF_wild_card,2022.2.4,Linux armv8l,59.74429442,5e692a511f156a1e4aa18f70,64d2fd46c836a06233681665,64dc7c2e1a8da31a47b5d480,,,,,,,decisionTrl,resources/DG.BMP,resources/DB.BMP,WildCard_NonEx,-0.106133728,-0.035633659,1,0,0,0.9957,optionLeft,45,1770,1,32,0,32,0,1,,,,,,,,,,,,,,,,,,,,,,,,,,,,,,,,,,,,,,,
,,,,,,,,2023-08-16_08h57.58.808,HF_wild_card,2022.2.4,Linux armv8l,59.74429442,5e692a511f156a1e4aa18f70,64d2fd46c836a06233681665,64dc7c2e1a8da31a47b5d480,,,,,,,ctch,resources/DY.BMP,resources/DB.BMP,Door1,0.369202271,-0.056532745,1,0,0,0.644,optionRight,30,1800,1,33,0,33,0,1,,,,,,,,,,,,,,,,,,,,,,,,,,,,,,,,,,,,,,,
,,,,,,,,2023-08-16_08h57.58.808,HF_wild_card,2022.2.4,Linux armv8l,59.74429442,5e692a511f156a1e4aa18f70,64d2fd46c836a06233681665,64dc7c2e1a8da31a47b5d480,,,,,,,decisionTrl,resources/DB.BMP,resources/DP.BMP,Door2,0.233275986,-0.046688385,1,0,0,0.8941,optionRight,40,1840,1,34,0,34,0,1,,,,,,,,,,,,,,,,,,,,,,,,,,,,,,,,,,,,,,,
,,,,,,,,2023-08-16_08h57.58.808,HF_wild_card,2022.2.4,Linux armv8l,59.74429442,5e692a511f156a1e4aa18f70,64d2fd46c836a06233681665,64dc7c2e1a8da31a47b5d480,,,,,,,decisionTrl,resources/DB.BMP,resources/DP.BMP,Door1,-0.147353821,-0.012367783,1,0,0,0.7415,optionLeft,30,1870,1,35,0,35,0,1,,,,,,,,,,,,,,,,,,,,,,,,,,,,,,,,,,,,,,,
,,,,,,,,2023-08-16_08h57.58.808,HF_wild_card,2022.2.4,Linux armv8l,59.74429442,5e692a511f156a1e4aa18f70,64d2fd46c836a06233681665,64dc7c2e1a8da31a47b5d480,,,,,,,ctch,resources/DP.BMP,resources/DR.BMP,Door2,-0.210762062,-0.034048119,1,0,0,1.1957,optionLeft,40,1910,1,36,0,36,0,1,,,,,,,,,,,,,,,,,,,,,,,,,,,,,,,,,,,,,,,
,,,,,,,,2023-08-16_08h57.58.808,HF_wild_card,2022.2.4,Linux armv8l,59.74429442,5e692a511f156a1e4aa18f70,64d2fd46c836a06233681665,64dc7c2e1a8da31a47b5d480,,,,,,,sngl,resources/Empty.png,resources/DG.BMP,WildCard_NonEx,0.215432358,-0.042291107,1,0,0,0.7272,optionRight,45,1955,1,37,0,37,0,1,,,,,,,,,,,,,,,,,,,,,,,,,,,,,,,,,,,,,,,
,,,,,,,,2023-08-16_08h57.58.808,HF_wild_card,2022.2.4,Linux armv8l,59.74429442,5e692a511f156a1e4aa18f70,64d2fd46c836a06233681665,64dc7c2e1a8da31a47b5d480,,,,,,,decisionTrl,resources/DY.BMP,resources/DR.BMP,Door3,0.175990524,-0.081579399,1,0,0,0.7435,optionRight,70,2025,1,38,0,38,0,1,,,,,,,,,,,,,,,,,,,,,,,,,,,,,,,,,,,,,,,
,,,,,,,,2023-08-16_08h57.58.808,HF_wild_card,2022.2.4,Linux armv8l,59.74429442,5e692a511f156a1e4aa18f70,64d2fd46c836a06233681665,64dc7c2e1a8da31a47b5d480,,,,,,,sngl,resources/DP.BMP,resources/Empty.png,Door2,-0.153132172,-0.025414047,1,0,0,0.8626,optionLeft,40,2065,1,39,0,39,0,1,,,,,,,,,,,,,,,,,,,,,,,,,,,,,,,,,,,,,,,
,,,,,,,,2023-08-16_08h57.58.808,HF_wild_card,2022.2.4,Linux armv8l,59.74429442,5e692a511f156a1e4aa18f70,64d2fd46c836a06233681665,64dc7c2e1a8da31a47b5d480,,,,,,,decisionTrl,resources/DP.BMP,resources/DG.BMP,WildCard_NonEx,0.295015717,-0.027902031,1,0,0,1.0622,optionRight,55,2120,1,40,0,40,0,1,,,,,,,,,,,,,,,,,,,,,,,,,,,,,,,,,,,,,,,
,,,,,,,,2023-08-16_08h57.58.808,HF_wild_card,2022.2.4,Linux armv8l,59.74429442,5e692a511f156a1e4aa18f70,64d2fd46c836a06233681665,64dc7c2e1a8da31a47b5d480,,,,,,,decisionTrl,resources/DY.BMP,resources/DR.BMP,Door4,-0.16424057,-0.041504517,1,0,0,1.0483,optionLeft,60,2180,1,41,0,41,0,1,,,,,,,,,,,,,,,,,,,,,,,,,,,,,,,,,,,,,,,
,,,,,,,,2023-08-16_08h57.58.808,HF_wild_card,2022.2.4,Linux armv8l,59.74429442,5e692a511f156a1e4aa18f70,64d2fd46c836a06233681665,64dc7c2e1a8da31a47b5d480,,,,,,,sngl,resources/Empty.png,resources/DP.BMP,Door2,0.169166489,-0.04045311,1,0,0,0.6603,optionRight,20,2200,1,42,0,42,0,1,,,,,,,,,,,,,,,,,,,,,,,,,,,,,,,,,,,,,,,
,,,,,,,,2023-08-16_08h57.58.808,HF_wild_card,2022.2.4,Linux armv8l,59.74429442,5e692a511f156a1e4aa18f70,64d2fd46c836a06233681665,64dc7c2e1a8da31a47b5d480,,,,,,,ctch,resources/DY.BMP,resources/DB.BMP,Door4,-0.14559906,-0.040905609,1,0,0,0.8416,optionLeft,80,2280,1,43,0,43,0,1,,,,,,,,,,,,,,,,,,,,,,,,,,,,,,,,,,,,,,,
,,,,,,,,2023-08-16_08h57.58.808,HF_wild_card,2022.2.4,Linux armv8l,59.74429442,5e692a511f156a1e4aa18f70,64d2fd46c836a06233681665,64dc7c2e1a8da31a47b5d480,,,,,,,,,,,,,,,,,,,,,,,,,,0,0,0,0,1,,,,,,,,,,,,,,,,,,,,,,,,,,,,,,,,,,
,,,,,,,,2023-08-16_08h57.58.808,HF_wild_card,2022.2.4,Linux armv8l,59.74429442,5e692a511f156a1e4aa18f70,64d2fd46c836a06233681665,64dc7c2e1a8da31a47b5d480,,,,,,,ctch,resources/DR.BMP,resources/DP.BMP,Door2,0.350221176,-0.227417831,1,0,0,1.0363,optionRight,20,2300,2,0,0,0,0,1,,,,,,,,,,,,,,,,,,,,,,,,,,,,,,,,,,,,,,,
,,,,,,,,2023-08-16_08h57.58.808,HF_wild_card,2022.2.4,Linux armv8l,59.74429442,5e692a511f156a1e4aa18f70,64d2fd46c836a06233681665,64dc7c2e1a8da31a47b5d480,,,,,,,sngl,resources/Empty.png,resources/DP.BMP,Door2,0.172312622,-0.036468964,1,0,0,0.7616,optionRight,40,2340,2,1,0,1,0,1,,,,,,,,,,,,,,,,,,,,,,,,,,,,,,,,,,,,,,,
,,,,,,,,2023-08-16_08h57.58.808,HF_wild_card,2022.2.4,Linux armv8l,59.74429442,5e692a511f156a1e4aa18f70,64d2fd46c836a06233681665,64dc7c2e1a8da31a47b5d480,,,,,,,decisionTrl,resources/DP.BMP,resources/DB.BMP,Door1,0.446867905,-0.116277275,1,0,0,1.5995,optionRight,30,2370,2,2,0,2,0,1,,,,,,,,,,,,,,,,,,,,,,,,,,,,,,,,,,,,,,,
,,,,,,,,2023-08-16_08h57.58.808,HF_wild_card,2022.2.4,Linux armv8l,59.74429442,5e692a511f156a1e4aa18f70,64d2fd46c836a06233681665,64dc7c2e1a8da31a47b5d480,,,,,,,sngl,resources/DB.BMP,resources/Empty.png,Door1,-0.184839478,-0.033575974,1,0,0,0.9601,optionLeft,30,2400,2,3,0,3,0,1,,,,,,,,,,,,,,,,,,,,,,,,,,,,,,,,,,,,,,,
,,,,,,,,2023-08-16_08h57.58.808,HF_wild_card,2022.2.4,Linux armv8l,59.74429442,5e692a511f156a1e4aa18f70,64d2fd46c836a06233681665,64dc7c2e1a8da31a47b5d480,,,,,,,ctch,resources/DR.BMP,resources/DP.BMP,Door3,-0.110787201,-0.034509811,1,0,0,1.0277,optionLeft,70,2470,2,4,0,4,0,1,,,,,,,,,,,,,,,,,,,,,,,,,,,,,,,,,,,,,,,
,,,,,,,,2023-08-16_08h57.58.808,HF_wild_card,2022.2.4,Linux armv8l,59.74429442,5e692a511f156a1e4aa18f70,64d2fd46c836a06233681665,64dc7c2e1a8da31a47b5d480,,,,,,,decisionTrl,resources/DR.BMP,resources/DY.BMP,Door3,-0.116958923,-0.01813427,1,0,0,0.9783,optionLeft,70,2540,2,5,0,5,0,1,,,,,,,,,,,,,,,,,,,,,,,,,,,,,,,,,,,,,,,
,,,,,,,,2023-08-16_08h57.58.808,HF_wild_card,2022.2.4,Linux armv8l,59.74429442,5e692a511f156a1e4aa18f70,64d2fd46c836a06233681665,64dc7c2e1a8da31a47b5d480,,,,,,,ctch,resources/DP.BMP,resources/DR.BMP,Door3,0.25088562,-0.11877037,1,0,0,1.5296,optionRight,70,2610,2,6,0,6,0,1,,,,,,,,,,,,,,,,,,,,,,,,,,,,,,,,,,,,,,,
,,,,,,,,2023-08-16_08h57.58.808,HF_wild_card,2022.2.4,Linux armv8l,59.74429442,5e692a511f156a1e4aa18f70,64d2fd46c836a06233681665,64dc7c2e1a8da31a47b5d480,,,,,,,decisionTrl,resources/DB.BMP,resources/DP.BMP,Door1,-0.167569275,-0.018192711,1,0,0,1.0259,optionLeft,30,2640,2,7,0,7,0,1,,,,,,,,,,,,,,,,,,,,,,,,,,,,,,,,,,,,,,,
,,,,,,,,2023-08-16_08h57.58.808,HF_wild_card,2022.2.4,Linux armv8l,59.74429442,5e692a511f156a1e4aa18f70,64d2fd46c836a06233681665,64dc7c2e1a8da31a47b5d480,,,,,,,sngl,resources/Empty.png,resources/DG.BMP,WildCard_NonEx,0.201016159,-0.027504578,1,0,0,0.7767,optionRight,55,2695,2,8,0,8,0,1,,,,,,,,,,,,,,,,,,,,,,,,,,,,,,,,,,,,,,,
,,,,,,,,2023-08-16_08h57.58.808,HF_wild_card,2022.2.4,Linux armv8l,59.74429442,5e692a511f156a1e4aa18f70,64d2fd46c836a06233681665,64dc7c2e1a8da31a47b5d480,,,,,,,decisionTrl,resources/DY.BMP,resources/DR.BMP,Door3,0.159709091,-0.027012787,1,0,0,1.2301,optionRight,70,2765,2,9,0,9,0,1,,,,,,,,,,,,,,,,,,,,,,,,,,,,,,,,,,,,,,,
,,,,,,,,2023-08-16_08h57.58.808,HF_wild_card,2022.2.4,Linux armv8l,59.74429442,5e692a511f156a1e4aa18f70,64d2fd46c836a06233681665,64dc7c2e1a8da31a47b5d480,,,,,,,decisionTrl,resources/DP.BMP,resources/DG.BMP,WildCard_NonEx,0.213080444,-0.048791962,1,0,0,1.007,optionRight,45,2810,2,10,0,10,0,1,,,,,,,,,,,,,,,,,,,,,,,,,,,,,,,,,,,,,,,
,,,,,,,,2023-08-16_08h57.58.808,HF_wild_card,2022.2.4,Linux armv8l,59.74429442,5e692a511f156a1e4aa18f70,64d2fd46c836a06233681665,64dc7c2e1a8da31a47b5d480,,,,,,,decisionTrl,resources/DR.BMP,resources/DG.BMP,Door3,-0.125418777,-0.01234127,1,0,0,1.2097,optionLeft,70,2880,2,11,0,11,0,1,,,,,,,,,,,,,,,,,,,,,,,,,,,,,,,,,,,,,,,
,,,,,,,,2023-08-16_08h57.58.808,HF_wild_card,2022.2.4,Linux armv8l,59.74429442,5e692a511f156a1e4aa18f70,64d2fd46c836a06233681665,64dc7c2e1a8da31a47b5d480,,,,,,,ctch,resources/DB.BMP,resources/DY.BMP,Door4,0.241447144,-0.050103149,1,0,0,1.027,optionRight,80,2960,2,12,0,12,0,1,,,,,,,,,,,,,,,,,,,,,,,,,,,,,,,,,,,,,,,
,,,,,,,,2023-08-16_08h57.58.808,HF_wild_card,2022.2.4,Linux armv8l,59.74429442,5e692a511f156a1e4aa18f70,64d2fd46c836a06233681665,64dc7c2e1a8da31a47b5d480,,,,,,,ctch,resources/DY.BMP,resources/DB.BMP,Door4,-0.25831459,-0.042238464,1,0,0,0.7239,optionLeft,80,3040,2,13,0,13,0,1,,,,,,,,,,,,,,,,,,,,,,,,,,,,,,,,,,,,,,,
,,,,,,,,2023-08-16_08h57.58.808,HF_wild_card,2022.2.4,Linux armv8l,59.74429442,5e692a511f156a1e4aa18f70,64d2fd46c836a06233681665,64dc7c2e1a8da31a47b5d480,,,,,,,decisionTrl,resources/DG.BMP,resources/DY.BMP,Door4,0.181074448,-0.04402298,1,0,0,0.697,optionRight,60,3100,2,14,0,14,0,1,,,,,,,,,,,,,,,,,,,,,,,,,,,,,,,,,,,,,,,
,,,,,,,,2023-08-16_08h57.58.808,HF_wild_card,2022.2.4,Linux armv8l,59.74429442,5e692a511f156a1e4aa18f70,64d2fd46c836a06233681665,64dc7c2e1a8da31a47b5d480,,,,,,,sngl,resources/Empty.png,resources/DY.BMP,Door4,0.178512268,-0.037091331,1,0,0,1.2468,optionRight,80,3180,2,15,0,15,0,1,,,,,,,,,,,,,,,,,,,,,,,,,,,,,,,,,,,,,,,
,,,,,,,,2023-08-16_08h57.58.808,HF_wild_card,2022.2.4,Linux armv8l,59.74429442,5e692a511f156a1e4aa18f70,64d2fd46c836a06233681665,64dc7c2e1a8da31a47b5d480,,,,,,,decisionTrl,resources/DY.BMP,resources/DR.BMP,Door4,-0.273496437,-0.01951519,1,0,0,0.8438,optionLeft,80,3260,2,16,0,16,0,1,,,,,,,,,,,,,,,,,,,,,,,,,,,,,,,,,,,,,,,
,,,,,,,,2023-08-16_08h57.58.808,HF_wild_card,2022.2.4,Linux armv8l,59.74429442,5e692a511f156a1e4aa18f70,64d2fd46c836a06233681665,64dc7c2e1a8da31a47b5d480,,,,,,,sngl,resources/DG.BMP,resources/Empty.png,WildCard_NonEx,-0.177049561,-0.003803635,1,0,0,0.829,optionLeft,55,3315,2,17,0,17,0,1,,,,,,,,,,,,,,,,,,,,,,,,,,,,,,,,,,,,,,,
,,,,,,,,2023-08-16_08h57.58.808,HF_wild_card,2022.2.4,Linux armv8l,59.74429442,5e692a511f156a1e4aa18f70,64d2fd46c836a06233681665,64dc7c2e1a8da31a47b5d480,,,,,,,ctch,resources/DB.BMP,resources/DY.BMP,Door4,0.132663498,-0.021498108,1,0,0,0.7102,optionRight,60,3375,2,18,0,18,0,1,,,,,,,,,,,,,,,,,,,,,,,,,,,,,,,,,,,,,,,
,,,,,,,,2023-08-16_08h57.58.808,HF_wild_card,2022.2.4,Linux armv8l,59.74429442,5e692a511f156a1e4aa18f70,64d2fd46c836a06233681665,64dc7c2e1a8da31a47b5d480,,,,,,,ctch,resources/DY.BMP,resources/DB.BMP,Door1,0.07094635,-0.019733238,1,0,0,0.8444,optionRight,30,3405,2,19,0,19,0,1,,,,,,,,,,,,,,,,,,,,,,,,,,,,,,,,,,,,,,,
,,,,,,,,2023-08-16_08h57.58.808,HF_wild_card,2022.2.4,Linux armv8l,59.74429442,5e692a511f156a1e4aa18f70,64d2fd46c836a06233681665,64dc7c2e1a8da31a47b5d480,,,,,,,decisionTrl,resources/DR.BMP,resources/DY.BMP,Door4,0.198871994,-0.015921593,1,0,0,1.1111,optionRight,60,3465,2,20,0,20,0,1,,,,,,,,,,,,,,,,,,,,,,,,,,,,,,,,,,,,,,,
,,,,,,,,2023-08-16_08h57.58.808,HF_wild_card,2022.2.4,Linux armv8l,59.74429442,5e692a511f156a1e4aa18f70,64d2fd46c836a06233681665,64dc7c2e1a8da31a47b5d480,,,,,,,decisionTrl,resources/DP.BMP,resources/DB.BMP,Door2,-0.106731415,-0.021885643,1,0,0,0.9612,optionLeft,20,3485,2,21,0,21,0,1,,,,,,,,,,,,,,,,,,,,,,,,,,,,,,,,,,,,,,,
,,,,,,,,2023-08-16_08h57.58.808,HF_wild_card,2022.2.4,Linux armv8l,59.74429442,5e692a511f156a1e4aa18f70,64d2fd46c836a06233681665,64dc7c2e1a8da31a47b5d480,,,,,,,decisionTrl,resources/DR.BMP,resources/DY.BMP,Door4,0.148952484,-0.035431976,1,0,0,0.9745,optionRight,60,3545,2,22,0,22,0,1,,,,,,,,,,,,,,,,,,,,,,,,,,,,,,,,,,,,,,,
,,,,,,,,2023-08-16_08h57.58.808,HF_wild_card,2022.2.4,Linux armv8l,59.74429442,5e692a511f156a1e4aa18f70,64d2fd46c836a06233681665,64dc7c2e1a8da31a47b5d480,,,,,,,sngl,resources/Empty.png,resources/DR.BMP,Door3,0.150637054,-0.01973877,1,0,0,0.725,optionRight,70,3615,2,23,0,23,0,1,,,,,,,,,,,,,,,,,,,,,,,,,,,,,,,,,,,,,,,
,,,,,,,,2023-08-16_08h57.58.808,HF_wild_card,2022.2.4,Linux armv8l,59.74429442,5e692a511f156a1e4aa18f70,64d2fd46c836a06233681665,64dc7c2e1a8da31a47b5d480,,,,,,,decisionTrl,resources/DY.BMP,resources/DR.BMP,Door3,0.177276459,-0.055055389,1,0,0,0.7621,optionRight,70,3685,2,24,0,24,0,1,,,,,,,,,,,,,,,,,,,,,,,,,,,,,,,,,,,,,,,
,,,,,,,,2023-08-16_08h57.58.808,HF_wild_card,2022.2.4,Linux armv8l,59.74429442,5e692a511f156a1e4aa18f70,64d2fd46c836a06233681665,64dc7c2e1a8da31a47b5d480,,,,,,,decisionTrl,resources/DB.BMP,resources/DP.BMP,Door1,-0.33839283,-0.023760185,1,0,0,1.4099,optionLeft,30,3715,2,25,0,25,0,1,,,,,,,,,,,,,,,,,,,,,,,,,,,,,,,,,,,,,,,
,,,,,,,,2023-08-16_08h57.58.808,HF_wild_card,2022.2.4,Linux armv8l,59.74429442,5e692a511f156a1e4aa18f70,64d2fd46c836a06233681665,64dc7c2e1a8da31a47b5d480,,,,,,,decisionTrl,resources/DB.BMP,resources/DG.BMP,Door1,-0.185692787,-0.032033005,1,0,0,1.3799,optionLeft,30,3745,2,26,0,26,0,1,,,,,,,,,,,,,,,,,,,,,,,,,,,,,,,,,,,,,,,
,,,,,,,,2023-08-16_08h57.58.808,HF_wild_card,2022.2.4,Linux armv8l,59.74429442,5e692a511f156a1e4aa18f70,64d2fd46c836a06233681665,64dc7c2e1a8da31a47b5d480,,,,,,,decisionTrl,resources/DY.BMP,resources/DR.BMP,Door4,-0.253136787,-0.015072594,1,0,0,1.0445,optionLeft,80,3825,2,27,0,27,0,1,,,,,,,,,,,,,,,,,,,,,,,,,,,,,,,,,,,,,,,
,,,,,,,,2023-08-16_08h57.58.808,HF_wild_card,2022.2.4,Linux armv8l,59.74429442,5e692a511f156a1e4aa18f70,64d2fd46c836a06233681665,64dc7c2e1a8da31a47b5d480,,,,,,,decisionTrl,resources/DB.BMP,resources/DP.BMP,Door2,0.106371307,-0.047633629,1,0,0,0.7608,optionRight,20,3845,2,28,0,28,0,1,,,,,,,,,,,,,,,,,,,,,,,,,,,,,,,,,,,,,,,
,,,,,,,,2023-08-16_08h57.58.808,HF_wild_card,2022.2.4,Linux armv8l,59.74429442,5e692a511f156a1e4aa18f70,64d2fd46c836a06233681665,64dc7c2e1a8da31a47b5d480,,,,,,,sngl,resources/Empty.png,resources/DB.BMP,Door1,0.10682724,-0.02229351,1,0,0,0.7437,optionRight,30,3875,2,29,0,29,0,1,,,,,,,,,,,,,,,,,,,,,,,,,,,,,,,,,,,,,,,
,,,,,,,,2023-08-16_08h57.58.808,HF_wild_card,2022.2.4,Linux armv8l,59.74429442,5e692a511f156a1e4aa18f70,64d2fd46c836a06233681665,64dc7c2e1a8da31a47b5d480,,,,,,,sngl,resources/DP.BMP,resources/Empty.png,Door2,-0.153204193,-0.023866882,1,0,0,0.9486,optionLeft,20,3895,2,30,0,30,0,1,,,,,,,,,,,,,,,,,,,,,,,,,,,,,,,,,,,,,,,
,,,,,,,,2023-08-16_08h57.58.808,HF_wild_card,2022.2.4,Linux armv8l,59.74429442,5e692a511f156a1e4aa18f70,64d2fd46c836a06233681665,64dc7c2e1a8da31a47b5d480,,,,,,,decisionTrl,resources/DP.BMP,resources/DB.BMP,Door1,0.153862228,-0.017214279,1,0,0,1.3392,optionRight,30,3925,2,31,0,31,0,1,,,,,,,,,,,,,,,,,,,,,,,,,,,,,,,,,,,,,,,
,,,,,,,,2023-08-16_08h57.58.808,HF_wild_card,2022.2.4,Linux armv8l,59.74429442,5e692a511f156a1e4aa18f70,64d2fd46c836a06233681665,64dc7c2e1a8da31a47b5d480,,,,,,,decisionTrl,resources/DR.BMP,resources/DY.BMP,Door3,-0.118090668,-0.025151024,1,0,0,1.3204,optionLeft,70,3995,2,32,0,32,0,1,,,,,,,,,,,,,,,,,,,,,,,,,,,,,,,,,,,,,,,
,,,,,,,,2023-08-16_08h57.58.808,HF_wild_card,2022.2.4,Linux armv8l,59.74429442,5e692a511f156a1e4aa18f70,64d2fd46c836a06233681665,64dc7c2e1a8da31a47b5d480,,,,,,,decisionTrl,resources/DG.BMP,resources/DR.BMP,Door3,0.30115715,-0.054159164,1,0,0,0.8071,optionRight,70,4065,2,33,0,33,0,1,,,,,,,,,,,,,,,,,,,,,,,,,,,,,,,,,,,,,,,
,,,,,,,,2023-08-16_08h57.58.808,HF_wild_card,2022.2.4,Linux armv8l,59.74429442,5e692a511f156a1e4aa18f70,64d2fd46c836a06233681665,64dc7c2e1a8da31a47b5d480,,,,,,,sngl,resources/DY.BMP,resources/Empty.png,Door4,-0.242476997,-0.001207504,1,0,0,0.8435,optionLeft,60,4125,2,34,0,34,0,1,,,,,,,,,,,,,,,,,,,,,,,,,,,,,,,,,,,,,,,
,,,,,,,,2023-08-16_08h57.58.808,HF_wild_card,2022.2.4,Linux armv8l,59.74429442,5e692a511f156a1e4aa18f70,64d2fd46c836a06233681665,64dc7c2e1a8da31a47b5d480,,,,,,,decisionTrl,resources/DY.BMP,resources/DG.BMP,Door4,-0.132022552,-0.003940239,1,0,0,1.4457,optionLeft,80,4205,2,35,0,35,0,1,,,,,,,,,,,,,,,,,,,,,,,,,,,,,,,,,,,,,,,
,,,,,,,,2023-08-16_08h57.58.808,HF_wild_card,2022.2.4,Linux armv8l,59.74429442,5e692a511f156a1e4aa18f70,64d2fd46c836a06233681665,64dc7c2e1a8da31a47b5d480,,,,,,,decisionTrl,resources/DG.BMP,resources/DB.BMP,Door1,0.190476532,-0.040315666,1,0,0,0.878,optionRight,30,4235,2,36,0,36,0,1,,,,,,,,,,,,,,,,,,,,,,,,,,,,,,,,,,,,,,,
,,,,,,,,2023-08-16_08h57.58.808,HF_wild_card,2022.2.4,Linux armv8l,59.74429442,5e692a511f156a1e4aa18f70,64d2fd46c836a06233681665,64dc7c2e1a8da31a47b5d480,,,,,,,sngl,resources/DG.BMP,resources/Empty.png,WildCard_NonEx,-0.147267609,-0.006628838,1,0,0,0.711,optionLeft,45,4280,2,37,0,37,0,1,,,,,,,,,,,,,,,,,,,,,,,,,,,,,,,,,,,,,,,
,,,,,,,,2023-08-16_08h57.58.808,HF_wild_card,2022.2.4,Linux armv8l,59.74429442,5e692a511f156a1e4aa18f70,64d2fd46c836a06233681665,64dc7c2e1a8da31a47b5d480,,,,,,,decisionTrl,resources/DP.BMP,resources/DB.BMP,Door2,-0.172397346,-0.027820892,1,0,0,1.0748,optionLeft,20,4300,2,38,0,38,0,1,,,,,,,,,,,,,,,,,,,,,,,,,,,,,,,,,,,,,,,
,,,,,,,,2023-08-16_08h57.58.808,HF_wild_card,2022.2.4,Linux armv8l,59.74429442,5e692a511f156a1e4aa18f70,64d2fd46c836a06233681665,64dc7c2e1a8da31a47b5d480,,,,,,,decisionTrl,resources/DG.BMP,resources/DP.BMP,WildCard_NonEx,-0.233419876,-0.018425751,1,0,0,1.1632,optionLeft,55,4355,2,39,0,39,0,1,,,,,,,,,,,,,,,,,,,,,,,,,,,,,,,,,,,,,,,
,,,,,,,,2023-08-16_08h57.58.808,HF_wild_card,2022.2.4,Linux armv8l,59.74429442,5e692a511f156a1e4aa18f70,64d2fd46c836a06233681665,64dc7c2e1a8da31a47b5d480,,,,,,,ctch,resources/DP.BMP,resources/DR.BMP,Door3,0.27904892,-0.02383049,1,0,0,1.0115,optionRight,70,4425,2,40,0,40,0,1,,,,,,,,,,,,,,,,,,,,,,,,,,,,,,,,,,,,,,,
,,,,,,,,2023-08-16_08h57.58.808,HF_wild_card,2022.2.4,Linux armv8l,59.74429442,5e692a511f156a1e4aa18f70,64d2fd46c836a06233681665,64dc7c2e1a8da31a47b5d480,,,,,,,sngl,resources/Empty.png,resources/DG.BMP,WildCard_NonEx,0.117292938,-0.028884201,1,0,0,0.8773,optionRight,45,4470,2,41,0,41,0,1,,,,,,,,,,,,,,,,,,,,,,,,,,,,,,,,,,,,,,,
,,,,,,,,2023-08-16_08h57.58.808,HF_wild_card,2022.2.4,Linux armv8l,59.74429442,5e692a511f156a1e4aa18f70,64d2fd46c836a06233681665,64dc7c2e1a8da31a47b5d480,,,,,,,decisionTrl,resources/DB.BMP,resources/DP.BMP,Door2,0.246137085,-0.036900482,1,0,0,1.012,optionRight,20,4490,2,42,0,42,0,1,,,,,,,,,,,,,,,,,,,,,,,,,,,,,,,,,,,,,,,
,,,,,,,,2023-08-16_08h57.58.808,HF_wild_card,2022.2.4,Linux armv8l,59.74429442,5e692a511f156a1e4aa18f70,64d2fd46c836a06233681665,64dc7c2e1a8da31a47b5d480,,,,,,,sngl,resources/DR.BMP,resources/Empty.png,Door3,-0.156729507,-0.016862297,1,0,0,0.7947,optionLeft,70,4560,2,43,0,43,0,1,,,,,,,,,,,,,,,,,,,,,,,,,,,,,,,,,,,,,,,
,,,,,,,,2023-08-16_08h57.58.808,HF_wild_card,2022.2.4,Linux armv8l,59.74429442,5e692a511f156a1e4aa18f70,64d2fd46c836a06233681665,64dc7c2e1a8da31a47b5d480,,,,,,,,,,,,,,,,,,,,,,,,,,1,0,1,0,1,,,,,,,,,,,,,,,,,,,,,,,,,,,,,,,,,,
,,,,,,,,2023-08-16_08h57.58.808,HF_wild_card,2022.2.4,Linux armv8l,59.74429442,5e692a511f156a1e4aa18f70,64d2fd46c836a06233681665,64dc7c2e1a8da31a47b5d480,,,,,,,ctch,resources/DR.BMP,resources/DP.BMP,Door3,-0.261598206,-0.119021568,1,0,0,1.468,optionLeft,70,4630,3,0,0,0,0,1,,,,,,,,,,,,,,,,,,,,,,,,,,,,,,,,,,,,,,,
,,,,,,,,2023-08-16_08h57.58.808,HF_wild_card,2022.2.4,Linux armv8l,59.74429442,5e692a511f156a1e4aa18f70,64d2fd46c836a06233681665,64dc7c2e1a8da31a47b5d480,,,,,,,sngl,resources/DP.BMP,resources/Empty.png,Door2,-0.301671753,-0.039941559,1,0,0,0.7579,optionLeft,40,4670,3,1,0,1,0,1,,,,,,,,,,,,,,,,,,,,,,,,,,,,,,,,,,,,,,,
,,,,,,,,2023-08-16_08h57.58.808,HF_wild_card,2022.2.4,Linux armv8l,59.74429442,5e692a511f156a1e4aa18f70,64d2fd46c836a06233681665,64dc7c2e1a8da31a47b5d480,,,,,,,decisionTrl,resources/DB.BMP,resources/DP.BMP,Door1,-0.10960144,-0.061881828,1,0,0,1.2269,optionLeft,30,4700,3,2,0,2,0,1,,,,,,,,,,,,,,,,,,,,,,,,,,,,,,,,,,,,,,,
,,,,,,,,2023-08-16_08h57.58.808,HF_wild_card,2022.2.4,Linux armv8l,59.74429442,5e692a511f156a1e4aa18f70,64d2fd46c836a06233681665,64dc7c2e1a8da31a47b5d480,,,,,,,decisionTrl,resources/DG.BMP,resources/DP.BMP,WildCard_NonEx,-0.226368561,-0.023684349,1,0,0,1.143,optionLeft,55,4755,3,3,0,3,0,1,,,,,,,,,,,,,,,,,,,,,,,,,,,,,,,,,,,,,,,
,,,,,,,,2023-08-16_08h57.58.808,HF_wild_card,2022.2.4,Linux armv8l,59.74429442,5e692a511f156a1e4aa18f70,64d2fd46c836a06233681665,64dc7c2e1a8da31a47b5d480,,,,,,,sngl,resources/DG.BMP,resources/Empty.png,WildCard_NonEx,-0.115046692,-0.016593742,1,0,0,0.8923,optionLeft,45,4800,3,4,0,4,0,1,,,,,,,,,,,,,,,,,,,,,,,,,,,,,,,,,,,,,,,
,,,,,,,,2023-08-16_08h57.58.808,HF_wild_card,2022.2.4,Linux armv8l,59.74429442,5e692a511f156a1e4aa18f70,64d2fd46c836a06233681665,64dc7c2e1a8da31a47b5d480,,,,,,,ctch,resources/DB.BMP,resources/DY.BMP,Door4,0.24301445,-0.032169037,1,0,0,0.7929,optionRight,80,4880,3,5,0,5,0,1,,,,,,,,,,,,,,,,,,,,,,,,,,,,,,,,,,,,,,,
,,,,,,,,2023-08-16_08h57.58.808,HF_wild_card,2022.2.4,Linux armv8l,59.74429442,5e692a511f156a1e4aa18f70,64d2fd46c836a06233681665,64dc7c2e1a8da31a47b5d480,,,,,,,decisionTrl,resources/DY.BMP,resources/DR.BMP,Door4,-0.132017365,-0.048511467,1,0,0,1.1633,optionLeft,80,4960,3,6,0,6,0,1,,,,,,,,,,,,,,,,,,,,,,,,,,,,,,,,,,,,,,,
,,,,,,,,2023-08-16_08h57.58.808,HF_wild_card,2022.2.4,Linux armv8l,59.74429442,5e692a511f156a1e4aa18f70,64d2fd46c836a06233681665,64dc7c2e1a8da31a47b5d480,,,,,,,ctch,resources/DP.BMP,resources/DR.BMP,Door3,0.217527313,-0.049170074,1,0,0,1.2138,optionRight,70,5030,3,7,0,7,0,1,,,,,,,,,,,,,,,,,,,,,,,,,,,,,,,,,,,,,,,
,,,,,,,,2023-08-16_08h57.58.808,HF_wild_card,2022.2.4,Linux armv8l,59.74429442,5e692a511f156a1e4aa18f70,64d2fd46c836a06233681665,64dc7c2e1a8da31a47b5d480,,,,,,,decisionTrl,resources/DY.BMP,resources/DR.BMP,Door3,0.235404053,-0.082723503,1,0,0,0.9269,optionRight,70,5100,3,8,0,8,0,1,,,,,,,,,,,,,,,,,,,,,,,,,,,,,,,,,,,,,,,
,,,,,,,,2023-08-16_08h57.58.808,HF_wild_card,2022.2.4,Linux armv8l,59.74429442,5e692a511f156a1e4aa18f70,64d2fd46c836a06233681665,64dc7c2e1a8da31a47b5d480,,,,,,,sngl,resources/DB.BMP,resources/Empty.png,Door1,-0.226766129,-0.04362072,1,0,0,0.8758,optionLeft,30,5130,3,9,0,9,0,1,,,,,,,,,,,,,,,,,,,,,,,,,,,,,,,,,,,,,,,
,,,,,,,,2023-08-16_08h57.58.808,HF_wild_card,2022.2.4,Linux armv8l,59.74429442,5e692a511f156a1e4aa18f70,64d2fd46c836a06233681665,64dc7c2e1a8da31a47b5d480,,,,,,,sngl,resources/Empty.png,resources/DB.BMP,Door1,0.12186882,-0.012594833,1,0,0,1.3809,optionRight,30,5160,3,10,0,10,0,1,,,,,,,,,,,,,,,,,,,,,,,,,,,,,,,,,,,,,,,
,,,,,,,,2023-08-16_08h57.58.808,HF_wild_card,2022.2.4,Linux armv8l,59.74429442,5e692a511f156a1e4aa18f70,64d2fd46c836a06233681665,64dc7c2e1a8da31a47b5d480,,,,,,,decisionTrl,resources/DP.BMP,resources/DB.BMP,Door2,-0.183426971,-0.058535271,1,0,0,1.2269,optionLeft,20,5180,3,11,0,11,0,1,,,,,,,,,,,,,,,,,,,,,,,,,,,,,,,,,,,,,,,
,,,,,,,,2023-08-16_08h57.58.808,HF_wild_card,2022.2.4,Linux armv8l,59.74429442,5e692a511f156a1e4aa18f70,64d2fd46c836a06233681665,64dc7c2e1a8da31a47b5d480,,,,,,,decisionTrl,resources/DB.BMP,resources/DP.BMP,Door1,-0.192343025,-0.031473808,1,0,0,1.1628,optionLeft,30,5210,3,12,0,12,0,1,,,,,,,,,,,,,,,,,,,,,,,,,,,,,,,,,,,,,,,
,,,,,,,,2023-08-16_08h57.58.808,HF_wild_card,2022.2.4,Linux armv8l,59.74429442,5e692a511f156a1e4aa18f70,64d2fd46c836a06233681665,64dc7c2e1a8da31a47b5d480,,,,,,,decisionTrl,resources/DY.BMP,resources/DG.BMP,Door4,-0.140609283,-0.029929123,1,0,0,1.2793,optionLeft,80,5290,3,13,0,13,0,1,,,,,,,,,,,,,,,,,,,,,,,,,,,,,,,,,,,,,,,
,,,,,,,,2023-08-16_08h57.58.808,HF_wild_card,2022.2.4,Linux armv8l,59.74429442,5e692a511f156a1e4aa18f70,64d2fd46c836a06233681665,64dc7c2e1a8da31a47b5d480,,,,,,,decisionTrl,resources/DY.BMP,resources/DR.BMP,Door4,-0.156302643,-0.024007492,1,0,0,1.0486,optionLeft,80,5370,3,14,0,14,0,1,,,,,,,,,,,,,,,,,,,,,,,,,,,,,,,,,,,,,,,
,,,,,,,,2023-08-16_08h57.58.808,HF_wild_card,2022.2.4,Linux armv8l,59.74429442,5e692a511f156a1e4aa18f70,64d2fd46c836a06233681665,64dc7c2e1a8da31a47b5d480,,,,,,,decisionTrl,resources/DP.BMP,resources/DB.BMP,Door1,0.130769272,-0.040066452,1,0,0,1.648,optionRight,30,5400,3,15,0,15,0,1,,,,,,,,,,,,,,,,,,,,,,,,,,,,,,,,,,,,,,,
,,,,,,,,2023-08-16_08h57.58.808,HF_wild_card,2022.2.4,Linux armv8l,59.74429442,5e692a511f156a1e4aa18f70,64d2fd46c836a06233681665,64dc7c2e1a8da31a47b5d480,,,,,,,sngl,resources/Empty.png,resources/DG.BMP,WildCard_NonEx,0.138921738,-0.02425045,1,0,0,0.7941,optionRight,55,5455,3,16,0,16,0,1,,,,,,,,,,,,,,,,,,,,,,,,,,,,,,,,,,,,,,,
,,,,,,,,2023-08-16_08h57.58.808,HF_wild_card,2022.2.4,Linux armv8l,59.74429442,5e692a511f156a1e4aa18f70,64d2fd46c836a06233681665,64dc7c2e1a8da31a47b5d480,,,,,,,ctch,resources/DR.BMP,resources/DP.BMP,Door3,-0.169804764,-0.017098846,1,0,0,1.6815,optionLeft,70,5525,3,17,0,17,0,1,,,,,,,,,,,,,,,,,,,,,,,,,,,,,,,,,,,,,,,
,,,,,,,,2023-08-16_08h57.58.808,HF_wild_card,2022.2.4,Linux armv8l,59.74429442,5e692a511f156a1e4aa18f70,64d2fd46c836a06233681665,64dc7c2e1a8da31a47b5d480,,,,,,,decisionTrl,resources/DG.BMP,resources/DY.BMP,Door4,0.234952393,-0.0291679,1,0,0,2.3163,optionRight,60,5585,3,18,0,18,0,1,,,,,,,,,,,,,,,,,,,,,,,,,,,,,,,,,,,,,,,
,,,,,,,,2023-08-16_08h57.58.808,HF_wild_card,2022.2.4,Linux armv8l,59.74429442,5e692a511f156a1e4aa18f70,64d2fd46c836a06233681665,64dc7c2e1a8da31a47b5d480,,,,,,,decisionTrl,resources/DP.BMP,resources/DG.BMP,WildCard_NonEx,0.218206711,-0.015875549,1,0,0,2.3173,optionRight,55,5640,3,19,0,19,0,1,,,,,,,,,,,,,,,,,,,,,,,,,,,,,,,,,,,,,,,
,,,,,,,,2023-08-16_08h57.58.808,HF_wild_card,2022.2.4,Linux armv8l,59.74429442,5e692a511f156a1e4aa18f70,64d2fd46c836a06233681665,64dc7c2e1a8da31a47b5d480,,,,,,,decisionTrl,resources/DR.BMP,resources/DY.BMP,Door4,0.136701355,-0.005737762,1,0,0,1.2104,optionRight,60,5700,3,20,0,20,0,1,,,,,,,,,,,,,,,,,,,,,,,,,,,,,,,,,,,,,,,
,,,,,,,,2023-08-16_08h57.58.808,HF_wild_card,2022.2.4,Linux armv8l,59.74429442,5e692a511f156a1e4aa18f70,64d2fd46c836a06233681665,64dc7c2e1a8da31a47b5d480,,,,,,,sngl,resources/DG.BMP,resources/Empty.png,WildCard_NonEx,-0.161012726,0.009955521,1,0,0,1.0266,optionLeft,55,5755,3,21,0,21,0,1,,,,,,,,,,,,,,,,,,,,,,,,,,,,,,,,,,,,,,,
,,,,,,,,2023-08-16_08h57.58.808,HF_wild_card,2022.2.4,Linux armv8l,59.74429442,5e692a511f156a1e4aa18f70,64d2fd46c836a06233681665,64dc7c2e1a8da31a47b5d480,,,,,,,ctch,resources/DB.BMP,resources/DY.BMP,Door4,0.166395874,-0.00713726,1,0,0,1.1621,optionRight,60,5815,3,22,0,22,0,1,,,,,,,,,,,,,,,,,,,,,,,,,,,,,,,,,,,,,,,
,,,,,,,,2023-08-16_08h57.58.808,HF_wild_card,2022.2.4,Linux armv8l,59.74429442,5e692a511f156a1e4aa18f70,64d2fd46c836a06233681665,64dc7c2e1a8da31a47b5d480,,,,,,,decisionTrl,resources/DB.BMP,resources/DP.BMP,Door1,-0.133419342,-0.011517792,1,0,0,1.3301,optionLeft,30,5845,3,23,0,23,0,1,,,,,,,,,,,,,,,,,,,,,,,,,,,,,,,,,,,,,,,
,,,,,,,,2023-08-16_08h57.58.808,HF_wild_card,2022.2.4,Linux armv8l,59.74429442,5e692a511f156a1e4aa18f70,64d2fd46c836a06233681665,64dc7c2e1a8da31a47b5d480,,,,,,,decisionTrl,resources/DY.BMP,resources/DR.BMP,Door3,0.340348129,-0.048900719,1,0,0,1.3648,optionRight,70,5915,3,24,0,24,0,1,,,,,,,,,,,,,,,,,,,,,,,,,,,,,,,,,,,,,,,
,,,,,,,,2023-08-16_08h57.58.808,HF_wild_card,2022.2.4,Linux armv8l,59.74429442,5e692a511f156a1e4aa18f70,64d2fd46c836a06233681665,64dc7c2e1a8da31a47b5d480,,,,,,,decisionTrl,resources/DR.BMP,resources/DY.BMP,Door3,-0.179527969,-0.031392326,1,0,0,1.3144,optionLeft,70,5985,3,25,0,25,0,1,,,,,,,,,,,,,,,,,,,,,,,,,,,,,,,,,,,,,,,
,,,,,,,,2023-08-16_08h57.58.808,HF_wild_card,2022.2.4,Linux armv8l,59.74429442,5e692a511f156a1e4aa18f70,64d2fd46c836a06233681665,64dc7c2e1a8da31a47b5d480,,,,,,,decisionTrl,resources/DR.BMP,resources/DY.BMP,Door4,0.139768906,-0.031721497,1,0,0,1.0119,optionRight,80,6065,3,26,0,26,0,1,,,,,,,,,,,,,,,,,,,,,,,,,,,,,,,,,,,,,,,
,,,,,,,,2023-08-16_08h57.58.808,HF_wild_card,2022.2.4,Linux armv8l,59.74429442,5e692a511f156a1e4aa18f70,64d2fd46c836a06233681665,64dc7c2e1a8da31a47b5d480,,,,,,,decisionTrl,resources/DB.BMP,resources/DP.BMP,Door1,-0.14223526,-0.01673584,1,0,0,1.2467,optionLeft,30,6095,3,27,0,27,0,1,,,,,,,,,,,,,,,,,,,,,,,,,,,,,,,,,,,,,,,
,,,,,,,,2023-08-16_08h57.58.808,HF_wild_card,2022.2.4,Linux armv8l,59.74429442,5e692a511f156a1e4aa18f70,64d2fd46c836a06233681665,64dc7c2e1a8da31a47b5d480,,,,,,,decisionTrl,resources/DG.BMP,resources/DR.BMP,WildCard_NonEx,-0.189347878,-0.006976585,1,0,0,1.0457,optionLeft,45,6140,3,28,0,28,0,1,,,,,,,,,,,,,,,,,,,,,,,,,,,,,,,,,,,,,,,
,,,,,,,,2023-08-16_08h57.58.808,HF_wild_card,2022.2.4,Linux armv8l,59.74429442,5e692a511f156a1e4aa18f70,64d2fd46c836a06233681665,64dc7c2e1a8da31a47b5d480,,,,,,,ctch,resources/DY.BMP,resources/DB.BMP,Door4,-0.106475372,-0.024277191,1,0,0,1.213,optionLeft,80,6220,3,29,0,29,0,1,,,,,,,,,,,,,,,,,,,,,,,,,,,,,,,,,,,,,,,
,,,,,,,,2023-08-16_08h57.58.808,HF_wild_card,2022.2.4,Linux armv8l,59.74429442,5e692a511f156a1e4aa18f70,64d2fd46c836a06233681665,64dc7c2e1a8da31a47b5d480,,,,,,,decisionTrl,resources/DP.BMP,resources/DB.BMP,Door1,0.129472885,-0.017297516,1,0,0,1.0126,optionRight,30,6250,3,30,0,30,0,1,,,,,,,,,,,,,,,,,,,,,,,,,,,,,,,,,,,,,,,
,,,,,,,,2023-08-16_08h57.58.808,HF_wild_card,2022.2.4,Linux armv8l,59.74429442,5e692a511f156a1e4aa18f70,64d2fd46c836a06233681665,64dc7c2e1a8da31a47b5d480,,,,,,,decisionTrl,resources/DB.BMP,resources/DG.BMP,WildCard_NonEx,0.16146019,-0.006198578,1,0,0,1.5991,optionRight,55,6305,3,31,0,31,0,1,,,,,,,,,,,,,,,,,,,,,,,,,,,,,,,,,,,,,,,
,,,,,,,,2023-08-16_08h57.58.808,HF_wild_card,2022.2.4,Linux armv8l,59.74429442,5e692a511f156a1e4aa18f70,64d2fd46c836a06233681665,64dc7c2e1a8da31a47b5d480,,,,,,,sngl,resources/Empty.png,resources/DG.BMP,WildCard_NonEx,0.243342133,-0.019412651,1,0,0,0.7992,optionRight,45,6350,3,32,0,32,0,1,,,,,,,,,,,,,,,,,,,,,,,,,,,,,,,,,,,,,,,
,,,,,,,,2023-08-16_08h57.58.808,HF_wild_card,2022.2.4,Linux armv8l,59.74429442,5e692a511f156a1e4aa18f70,64d2fd46c836a06233681665,64dc7c2e1a8da31a47b5d480,,,,,,,decisionTrl,resources/DR.BMP,resources/DY.BMP,Door3,-0.113432159,-0.03940258,1,0,0,1.1957,optionLeft,70,6420,3,33,0,33,0,1,,,,,,,,,,,,,,,,,,,,,,,,,,,,,,,,,,,,,,,
,,,,,,,,2023-08-16_08h57.58.808,HF_wild_card,2022.2.4,Linux armv8l,59.74429442,5e692a511f156a1e4aa18f70,64d2fd46c836a06233681665,64dc7c2e1a8da31a47b5d480,,,,,,,ctch,resources/DP.BMP,resources/DR.BMP,Door3,0.238191833,-0.035014305,1,0,0,1.649,optionRight,70,6490,3,34,0,34,0,1,,,,,,,,,,,,,,,,,,,,,,,,,,,,,,,,,,,,,,,
,,,,,,,,2023-08-16_08h57.58.808,HF_wild_card,2022.2.4,Linux armv8l,59.74429442,5e692a511f156a1e4aa18f70,64d2fd46c836a06233681665,64dc7c2e1a8da31a47b5d480,,,,,,,decisionTrl,resources/DR.BMP,resources/DG.BMP,Door3,-0.183641396,-0.003328362,1,0,0,0.8123,optionLeft,70,6560,3,35,0,35,0,1,,,,,,,,,,,,,,,,,,,,,,,,,,,,,,,,,,,,,,,
,,,,,,,,2023-08-16_08h57.58.808,HF_wild_card,2022.2.4,Linux armv8l,59.74429442,5e692a511f156a1e4aa18f70,64d2fd46c836a06233681665,64dc7c2e1a8da31a47b5d480,,,,,,,sngl,resources/Empty.png,resources/DR.BMP,Door3,0.287480774,-0.035566025,1,0,0,0.792,optionRight,70,6630,3,36,0,36,0,1,,,,,,,,,,,,,,,,,,,,,,,,,,,,,,,,,,,,,,,
,,,,,,,,2023-08-16_08h57.58.808,HF_wild_card,2022.2.4,Linux armv8l,59.74429442,5e692a511f156a1e4aa18f70,64d2fd46c836a06233681665,64dc7c2e1a8da31a47b5d480,,,,,,,decisionTrl,resources/DP.BMP,resources/DB.BMP,Door1,0.122225189,-0.028287354,1,0,0,1.23,optionRight,30,6660,3,37,0,37,0,1,,,,,,,,,,,,,,,,,,,,,,,,,,,,,,,,,,,,,,,
,,,,,,,,2023-08-16_08h57.58.808,HF_wild_card,2022.2.4,Linux armv8l,59.74429442,5e692a511f156a1e4aa18f70,64d2fd46c836a06233681665,64dc7c2e1a8da31a47b5d480,,,,,,,decisionTrl,resources/DG.BMP,resources/DB.BMP,WildCard_NonEx,-0.146386795,-0.043610535,1,0,0,1.2104,optionLeft,55,6715,3,38,0,38,0,1,,,,,,,,,,,,,,,,,,,,,,,,,,,,,,,,,,,,,,,
,,,,,,,,2023-08-16_08h57.58.808,HF_wild_card,2022.2.4,Linux armv8l,59.74429442,5e692a511f156a1e4aa18f70,64d2fd46c836a06233681665,64dc7c2e1a8da31a47b5d480,,,,,,,sngl,resources/Empty.png,resources/DP.BMP,Door2,0.141191101,-0.046707878,1,0,0,0.9936,optionRight,20,6735,3,39,0,39,0,1,,,,,,,,,,,,,,,,,,,,,,,,,,,,,,,,,,,,,,,
,,,,,,,,2023-08-16_08h57.58.808,HF_wild_card,2022.2.4,Linux armv8l,59.74429442,5e692a511f156a1e4aa18f70,64d2fd46c836a06233681665,64dc7c2e1a8da31a47b5d480,,,,,,,sngl,resources/DY.BMP,resources/Empty.png,Door4,-0.184547806,-0.017576218,1,0,0,0.832,optionLeft,80,6815,3,40,0,40,0,1,,,,,,,,,,,,,,,,,,,,,,,,,,,,,,,,,,,,,,,
,,,,,,,,2023-08-16_08h57.58.808,HF_wild_card,2022.2.4,Linux armv8l,59.74429442,5e692a511f156a1e4aa18f70,64d2fd46c836a06233681665,64dc7c2e1a8da31a47b5d480,,,,,,,sngl,resources/DR.BMP,resources/Empty.png,Door3,-0.12705574,-0.022341537,1,0,0,0.9621,optionLeft,70,6885,3,41,0,41,0,1,,,,,,,,,,,,,,,,,,,,,,,,,,,,,,,,,,,,,,,
,,,,,,,,2023-08-16_08h57.58.808,HF_wild_card,2022.2.4,Linux armv8l,59.74429442,5e692a511f156a1e4aa18f70,64d2fd46c836a06233681665,64dc7c2e1a8da31a47b5d480,,,,,,,sngl,resources/Empty.png,resources/DY.BMP,Door4,0.146202011,-0.022140503,1,0,0,1.0944,optionRight,60,6945,3,42,0,42,0,1,,,,,,,,,,,,,,,,,,,,,,,,,,,,,,,,,,,,,,,
,,,,,,,,2023-08-16_08h57.58.808,HF_wild_card,2022.2.4,Linux armv8l,59.74429442,5e692a511f156a1e4aa18f70,64d2fd46c836a06233681665,64dc7c2e1a8da31a47b5d480,,,,,,,ctch,resources/DY.BMP,resources/DB.BMP,Door4,-0.120432739,-0.025900688,1,0,0,0.7777,optionLeft,80,7025,3,43,0,43,0,1,,,,,,,,,,,,,,,,,,,,,,,,,,,,,,,,,,,,,,,
,,,,,,,,2023-08-16_08h57.58.808,HF_wild_card,2022.2.4,Linux armv8l,59.74429442,5e692a511f156a1e4aa18f70,64d2fd46c836a06233681665,64dc7c2e1a8da31a47b5d480,,,,,,,,,,,,,,,,,,,,,,,,,,2,0,2,0,1,,,,,,,,,,,,,,,,,,,,,,,,,,,,,,,,,,
,,,,,,,,2023-08-16_08h57.58.808,HF_wild_card,2022.2.4,Linux armv8l,59.74429442,5e692a511f156a1e4aa18f70,64d2fd46c836a06233681665,64dc7c2e1a8da31a47b5d480,,,,,,,ctch,resources/DR.BMP,resources/DP.BMP,Door3,-0.247939186,-0.172307281,1,0,0,1.6817,optionLeft,70,7095,4,0,0,0,0,1,,,,,,,,,,,,,,,,,,,,,,,,,,,,,,,,,,,,,,,
,,,,,,,,2023-08-16_08h57.58.808,HF_wild_card,2022.2.4,Linux armv8l,59.74429442,5e692a511f156a1e4aa18f70,64d2fd46c836a06233681665,64dc7c2e1a8da31a47b5d480,,,,,,,decisionTrl,resources/DBN.BMP,resources/DY.BMP,WildCard_Ex,-0.165755768,-0.05742485,1,0,0,1.0126,optionLeft,95,7190,4,1,0,1,0,1,,,,,,,,,,,,,,,,,,,,,,,,,,,,,,,,,,,,,,,
,,,,,,,,2023-08-16_08h57.58.808,HF_wild_card,2022.2.4,Linux armv8l,59.74429442,5e692a511f156a1e4aa18f70,64d2fd46c836a06233681665,64dc7c2e1a8da31a47b5d480,,,,,,,decisionTrl,resources/DB.BMP,resources/DP.BMP,Door1,-0.157710342,-0.064896965,1,0,0,1.2612,optionLeft,30,7220,4,2,0,2,0,1,,,,,,,,,,,,,,,,,,,,,,,,,,,,,,,,,,,,,,,
,,,,,,,,2023-08-16_08h57.58.808,HF_wild_card,2022.2.4,Linux armv8l,59.74429442,5e692a511f156a1e4aa18f70,64d2fd46c836a06233681665,64dc7c2e1a8da31a47b5d480,,,,,,,decisionTrl,resources/DR.BMP,resources/DBN.BMP,WildCard_Ex,0.113697815,-0.014411926,1,0,0,1.3644,optionRight,5,7225,4,3,0,3,0,1,,,,,,,,,,,,,,,,,,,,,,,,,,,,,,,,,,,,,,,
,,,,,,,,2023-08-16_08h57.58.808,HF_wild_card,2022.2.4,Linux armv8l,59.74429442,5e692a511f156a1e4aa18f70,64d2fd46c836a06233681665,64dc7c2e1a8da31a47b5d480,,,,,,,decisionTrl,resources/DB.BMP,resources/DP.BMP,Door1,-0.111033173,-0.030495148,1,0,0,1.2119,optionLeft,30,7255,4,4,0,4,0,1,,,,,,,,,,,,,,,,,,,,,,,,,,,,,,,,,,,,,,,
,,,,,,,,2023-08-16_08h57.58.808,HF_wild_card,2022.2.4,Linux armv8l,59.74429442,5e692a511f156a1e4aa18f70,64d2fd46c836a06233681665,64dc7c2e1a8da31a47b5d480,,,,,,,sngl,resources/Empty.png,resources/DBN.BMP,WildCard_Ex,0.246664886,-0.035047112,1,0,0,0.7771,optionRight,5,7260,4,5,0,5,0,1,,,,,,,,,,,,,,,,,,,,,,,,,,,,,,,,,,,,,,,
,,,,,,,,2023-08-16_08h57.58.808,HF_wild_card,2022.2.4,Linux armv8l,59.74429442,5e692a511f156a1e4aa18f70,64d2fd46c836a06233681665,64dc7c2e1a8da31a47b5d480,,,,,,,decisionTrl,resources/DY.BMP,resources/DR.BMP,Door4,-0.150225677,-0.029283257,1,0,0,0.9609,optionLeft,80,7340,4,6,0,6,0,1,,,,,,,,,,,,,,,,,,,,,,,,,,,,,,,,,,,,,,,
,,,,,,,,2023-08-16_08h57.58.808,HF_wild_card,2022.2.4,Linux armv8l,59.74429442,5e692a511f156a1e4aa18f70,64d2fd46c836a06233681665,64dc7c2e1a8da31a47b5d480,,,,,,,decisionTrl,resources/DP.BMP,resources/DB.BMP,Door2,-0.216184769,-0.011370659,1,0,0,1.8477,optionLeft,40,7380,4,7,0,7,0,1,,,,,,,,,,,,,,,,,,,,,,,,,,,,,,,,,,,,,,,
,,,,,,,,2023-08-16_08h57.58.808,HF_wild_card,2022.2.4,Linux armv8l,59.74429442,5e692a511f156a1e4aa18f70,64d2fd46c836a06233681665,64dc7c2e1a8da31a47b5d480,,,,,,,decisionTrl,resources/DBN.BMP,resources/DB.BMP,WildCard_Ex,-0.147127991,-0.029988251,1,0,0,0.9625,optionLeft,5,7385,4,8,0,8,0,1,,,,,,,,,,,,,,,,,,,,,,,,,,,,,,,,,,,,,,,
,,,,,,,,2023-08-16_08h57.58.808,HF_wild_card,2022.2.4,Linux armv8l,59.74429442,5e692a511f156a1e4aa18f70,64d2fd46c836a06233681665,64dc7c2e1a8da31a47b5d480,,,,,,,ctch,resources/DP.BMP,resources/DR.BMP,Door2,-0.152123718,-0.017320099,1,0,0,0.9294,optionLeft,40,7425,4,9,0,9,0,1,,,,,,,,,,,,,,,,,,,,,,,,,,,,,,,,,,,,,,,
,,,,,,,,2023-08-16_08h57.58.808,HF_wild_card,2022.2.4,Linux armv8l,59.74429442,5e692a511f156a1e4aa18f70,64d2fd46c836a06233681665,64dc7c2e1a8da31a47b5d480,,,,,,,decisionTrl,resources/DB.BMP,resources/DP.BMP,Door2,0.180241928,-0.043900566,1,0,0,1.6994,optionRight,20,7445,4,10,0,10,0,1,,,,,,,,,,,,,,,,,,,,,,,,,,,,,,,,,,,,,,,
,,,,,,,,2023-08-16_08h57.58.808,HF_wild_card,2022.2.4,Linux armv8l,59.74429442,5e692a511f156a1e4aa18f70,64d2fd46c836a06233681665,64dc7c2e1a8da31a47b5d480,,,,,,,decisionTrl,resources/DBN.BMP,resources/DR.BMP,WildCard_Ex,-0.223067207,-0.042790947,1,0,0,0.846,optionLeft,95,7540,4,11,0,11,0,1,,,,,,,,,,,,,,,,,,,,,,,,,,,,,,,,,,,,,,,
,,,,,,,,2023-08-16_08h57.58.808,HF_wild_card,2022.2.4,Linux armv8l,59.74429442,5e692a511f156a1e4aa18f70,64d2fd46c836a06233681665,64dc7c2e1a8da31a47b5d480,,,,,,,ctch,resources/DP.BMP,resources/DR.BMP,Door3,0.270767136,-0.058209686,1,0,0,1.1971,optionRight,70,7610,4,12,0,12,0,1,,,,,,,,,,,,,,,,,,,,,,,,,,,,,,,,,,,,,,,
,,,,,,,,2023-08-16_08h57.58.808,HF_wild_card,2022.2.4,Linux armv8l,59.74429442,5e692a511f156a1e4aa18f70,64d2fd46c836a06233681665,64dc7c2e1a8da31a47b5d480,,,,,,,decisionTrl,resources/DB.BMP,resources/DP.BMP,Door1,-0.152151947,-0.021932487,1,0,0,1.2612,optionLeft,30,7640,4,13,0,13,0,1,,,,,,,,,,,,,,,,,,,,,,,,,,,,,,,,,,,,,,,
,,,,,,,,2023-08-16_08h57.58.808,HF_wild_card,2022.2.4,Linux armv8l,59.74429442,5e692a511f156a1e4aa18f70,64d2fd46c836a06233681665,64dc7c2e1a8da31a47b5d480,,,,,,,decisionTrl,resources/DP.BMP,resources/DBN.BMP,WildCard_Ex,0.173923645,-0.032881737,1,0,0,0.8639,optionRight,95,7735,4,14,0,14,0,1,,,,,,,,,,,,,,,,,,,,,,,,,,,,,,,,,,,,,,,
,,,,,,,,2023-08-16_08h57.58.808,HF_wild_card,2022.2.4,Linux armv8l,59.74429442,5e692a511f156a1e4aa18f70,64d2fd46c836a06233681665,64dc7c2e1a8da31a47b5d480,,,,,,,sngl,resources/DBN.BMP,resources/Empty.png,WildCard_Ex,-0.12263504,-0.023741379,1,0,0,0.9638,optionLeft,5,7740,4,15,0,15,0,1,,,,,,,,,,,,,,,,,,,,,,,,,,,,,,,,,,,,,,,
,,,,,,,,2023-08-16_08h57.58.808,HF_wild_card,2022.2.4,Linux armv8l,59.74429442,5e692a511f156a1e4aa18f70,64d2fd46c836a06233681665,64dc7c2e1a8da31a47b5d480,,,,,,,decisionTrl,resources/DR.BMP,resources/DY.BMP,Door3,-0.151081696,0.027950287,1,0,0,1.9831,optionLeft,70,7810,4,16,0,16,0,1,,,,,,,,,,,,,,,,,,,,,,,,,,,,,,,,,,,,,,,
,,,,,,,,2023-08-16_08h57.58.808,HF_wild_card,2022.2.4,Linux armv8l,59.74429442,5e692a511f156a1e4aa18f70,64d2fd46c836a06233681665,64dc7c2e1a8da31a47b5d480,,,,,,,sngl,resources/DB.BMP,resources/Empty.png,Door1,-0.331108704,-0.008078156,1,0,0,1.1947,optionLeft,30,7840,4,17,0,17,0,1,,,,,,,,,,,,,,,,,,,,,,,,,,,,,,,,,,,,,,,
,,,,,,,,2023-08-16_08h57.58.808,HF_wild_card,2022.2.4,Linux armv8l,59.74429442,5e692a511f156a1e4aa18f70,64d2fd46c836a06233681665,64dc7c2e1a8da31a47b5d480,,,,,,,decisionTrl,resources/DR.BMP,resources/DY.BMP,Door4,0.223591156,0.015407257,1,0,0,0.8298,optionRight,60,7900,4,18,0,18,0,1,,,,,,,,,,,,,,,,,,,,,,,,,,,,,,,,,,,,,,,
,,,,,,,,2023-08-16_08h57.58.808,HF_wild_card,2022.2.4,Linux armv8l,59.74429442,5e692a511f156a1e4aa18f70,64d2fd46c836a06233681665,64dc7c2e1a8da31a47b5d480,,,,,,,decisionTrl,resources/DP.BMP,resources/DB.BMP,Door2,-0.11878067,-0.021757317,1,0,0,1.179,optionLeft,40,7940,4,19,0,19,0,1,,,,,,,,,,,,,,,,,,,,,,,,,,,,,,,,,,,,,,,
,,,,,,,,2023-08-16_08h57.58.808,HF_wild_card,2022.2.4,Linux armv8l,59.74429442,5e692a511f156a1e4aa18f70,64d2fd46c836a06233681665,64dc7c2e1a8da31a47b5d480,,,,,,,ctch,resources/DB.BMP,resources/DY.BMP,Door4,0.322087326,-0.048736801,1,0,0,1.0771,optionRight,60,8000,4,20,0,20,0,1,,,,,,,,,,,,,,,,,,,,,,,,,,,,,,,,,,,,,,,
,,,,,,,,2023-08-16_08h57.58.808,HF_wild_card,2022.2.4,Linux armv8l,59.74429442,5e692a511f156a1e4aa18f70,64d2fd46c836a06233681665,64dc7c2e1a8da31a47b5d480,,,,,,,decisionTrl,resources/DY.BMP,resources/DR.BMP,Door3,0.433952255,-0.083913193,1,0,0,1.4314,optionRight,70,8070,4,21,0,21,0,1,,,,,,,,,,,,,,,,,,,,,,,,,,,,,,,,,,,,,,,
,,,,,,,,2023-08-16_08h57.58.808,HF_wild_card,2022.2.4,Linux armv8l,59.74429442,5e692a511f156a1e4aa18f70,64d2fd46c836a06233681665,64dc7c2e1a8da31a47b5d480,,,,,,,ctch,resources/DY.BMP,resources/DB.BMP,Door4,-0.108268585,-0.035037537,1,0,0,1.1289,optionLeft,80,8150,4,22,0,22,0,1,,,,,,,,,,,,,,,,,,,,,,,,,,,,,,,,,,,,,,,
,,,,,,,,2023-08-16_08h57.58.808,HF_wild_card,2022.2.4,Linux armv8l,59.74429442,5e692a511f156a1e4aa18f70,64d2fd46c836a06233681665,64dc7c2e1a8da31a47b5d480,,,,,,,sngl,resources/Empty.png,resources/DP.BMP,Door2,0.254299774,-0.076236191,1,0,0,0.9417,optionRight,40,8190,4,23,0,23,0,1,,,,,,,,,,,,,,,,,,,,,,,,,,,,,,,,,,,,,,,
,,,,,,,,2023-08-16_08h57.58.808,HF_wild_card,2022.2.4,Linux armv8l,59.74429442,5e692a511f156a1e4aa18f70,64d2fd46c836a06233681665,64dc7c2e1a8da31a47b5d480,,,,,,,sngl,resources/Empty.png,resources/DB.BMP,Door1,0.128297577,-0.001670799,1,0,0,2.0309,optionRight,30,8220,4,24,0,24,0,1,,,,,,,,,,,,,,,,,,,,,,,,,,,,,,,,,,,,,,,
,,,,,,,,2023-08-16_08h57.58.808,HF_wild_card,2022.2.4,Linux armv8l,59.74429442,5e692a511f156a1e4aa18f70,64d2fd46c836a06233681665,64dc7c2e1a8da31a47b5d480,,,,,,,decisionTrl,resources/DY.BMP,resources/DR.BMP,Door3,0.292868042,-0.073026352,1,0,0,1.6288,optionRight,70,8290,4,25,0,25,0,1,,,,,,,,,,,,,,,,,,,,,,,,,,,,,,,,,,,,,,,
,,,,,,,,2023-08-16_08h57.58.808,HF_wild_card,2022.2.4,Linux armv8l,59.74429442,5e692a511f156a1e4aa18f70,64d2fd46c836a06233681665,64dc7c2e1a8da31a47b5d480,,,,,,,decisionTrl,resources/DY.BMP,resources/DR.BMP,Door4,-0.146024933,-0.029644585,1,0,0,0.7449,optionLeft,80,8370,4,26,0,26,0,1,,,,,,,,,,,,,,,,,,,,,,,,,,,,,,,,,,,,,,,
,,,,,,,,2023-08-16_08h57.58.808,HF_wild_card,2022.2.4,Linux armv8l,59.74429442,5e692a511f156a1e4aa18f70,64d2fd46c836a06233681665,64dc7c2e1a8da31a47b5d480,,,,,,,ctch,resources/DR.BMP,resources/DP.BMP,Door3,-0.107503815,-0.028087006,1,0,0,1.4652,optionLeft,70,8440,4,27,0,27,0,1,,,,,,,,,,,,,,,,,,,,,,,,,,,,,,,,,,,,,,,
,,,,,,,,2023-08-16_08h57.58.808,HF_wild_card,2022.2.4,Linux armv8l,59.74429442,5e692a511f156a1e4aa18f70,64d2fd46c836a06233681665,64dc7c2e1a8da31a47b5d480,,,,,,,decisionTrl,resources/DB.BMP,resources/DBN.BMP,WildCard_Ex,0.182220383,-0.06050869,1,0,0,0.8447,optionRight,95,8535,4,28,0,28,0,1,,,,,,,,,,,,,,,,,,,,,,,,,,,,,,,,,,,,,,,
,,,,,,,,2023-08-16_08h57.58.808,HF_wild_card,2022.2.4,Linux armv8l,59.74429442,5e692a511f156a1e4aa18f70,64d2fd46c836a06233681665,64dc7c2e1a8da31a47b5d480,,,,,,,sngl,resources/Empty.png,resources/DR.BMP,Door3,0.152721863,-0.038618736,1,0,0,0.9296,optionRight,70,8605,4,29,0,29,0,1,,,,,,,,,,,,,,,,,,,,,,,,,,,,,,,,,,,,,,,
,,,,,,,,2023-08-16_08h57.58.808,HF_wild_card,2022.2.4,Linux armv8l,59.74429442,5e692a511f156a1e4aa18f70,64d2fd46c836a06233681665,64dc7c2e1a8da31a47b5d480,,,,,,,sngl,resources/DY.BMP,resources/Empty.png,Door4,-0.163339996,-0.034772758,1,0,0,0.8133,optionLeft,60,8665,4,30,0,30,0,1,,,,,,,,,,,,,,,,,,,,,,,,,,,,,,,,,,,,,,,
,,,,,,,,2023-08-16_08h57.58.808,HF_wild_card,2022.2.4,Linux armv8l,59.74429442,5e692a511f156a1e4aa18f70,64d2fd46c836a06233681665,64dc7c2e1a8da31a47b5d480,,,,,,,decisionTrl,resources/DBN.BMP,resources/DP.BMP,WildCard_Ex,-0.116174469,-0.02121273,1,0,0,1.4661,optionLeft,5,8670,4,31,0,31,0,1,,,,,,,,,,,,,,,,,,,,,,,,,,,,,,,,,,,,,,,
,,,,,,,,2023-08-16_08h57.58.808,HF_wild_card,2022.2.4,Linux armv8l,59.74429442,5e692a511f156a1e4aa18f70,64d2fd46c836a06233681665,64dc7c2e1a8da31a47b5d480,,,,,,,decisionTrl,resources/DR.BMP,resources/DY.BMP,Door3,-0.158276825,-0.024992523,1,0,0,1.6677,optionLeft,70,8740,4,32,0,32,0,1,,,,,,,,,,,,,,,,,,,,,,,,,,,,,,,,,,,,,,,
,,,,,,,,2023-08-16_08h57.58.808,HF_wild_card,2022.2.4,Linux armv8l,59.74429442,5e692a511f156a1e4aa18f70,64d2fd46c836a06233681665,64dc7c2e1a8da31a47b5d480,,,,,,,ctch,resources/DY.BMP,resources/DB.BMP,Door4,-0.143117752,-0.026976891,1,0,0,1.6451,optionLeft,60,8800,4,33,0,33,0,1,,,,,,,,,,,,,,,,,,,,,,,,,,,,,,,,,,,,,,,
,,,,,,,,2023-08-16_08h57.58.808,HF_wild_card,2022.2.4,Linux armv8l,59.74429442,5e692a511f156a1e4aa18f70,64d2fd46c836a06233681665,64dc7c2e1a8da31a47b5d480,,,,,,,sngl,resources/Empty.png,resources/DBN.BMP,WildCard_Ex,0.121779404,-0.031824303,1,0,0,0.7604,optionRight,95,8895,4,34,0,34,0,1,,,,,,,,,,,,,,,,,,,,,,,,,,,,,,,,,,,,,,,
,,,,,,,,2023-08-16_08h57.58.808,HF_wild_card,2022.2.4,Linux armv8l,59.74429442,5e692a511f156a1e4aa18f70,64d2fd46c836a06233681665,64dc7c2e1a8da31a47b5d480,,,,,,,sngl,resources/Empty.png,resources/DY.BMP,Door4,0.181077271,-0.075015526,1,0,0,0.7277,optionRight,80,8975,4,35,0,35,0,1,,,,,,,,,,,,,,,,,,,,,,,,,,,,,,,,,,,,,,,
,,,,,,,,2023-08-16_08h57.58.808,HF_wild_card,2022.2.4,Linux armv8l,59.74429442,5e692a511f156a1e4aa18f70,64d2fd46c836a06233681665,64dc7c2e1a8da31a47b5d480,,,,,,,sngl,resources/DP.BMP,resources/Empty.png,Door2,-0.13004364,-0.050379753,1,0,0,1.0436,optionLeft,20,8995,4,36,0,36,0,1,,,,,,,,,,,,,,,,,,,,,,,,,,,,,,,,,,,,,,,
,,,,,,,,2023-08-16_08h57.58.808,HF_wild_card,2022.2.4,Linux armv8l,59.74429442,5e692a511f156a1e4aa18f70,64d2fd46c836a06233681665,64dc7c2e1a8da31a47b5d480,,,,,,,decisionTrl,resources/DY.BMP,resources/DBN.BMP,WildCard_Ex,0.141231308,-0.061654778,1,0,0,1.4468,optionRight,5,9000,4,37,0,37,0,1,,,,,,,,,,,,,,,,,,,,,,,,,,,,,,,,,,,,,,,
,,,,,,,,2023-08-16_08h57.58.808,HF_wild_card,2022.2.4,Linux armv8l,59.74429442,5e692a511f156a1e4aa18f70,64d2fd46c836a06233681665,64dc7c2e1a8da31a47b5d480,,,,,,,decisionTrl,resources/DR.BMP,resources/DY.BMP,Door4,0.132758408,-0.042128105,1,0,0,1.0134,optionRight,80,9080,4,38,0,38,0,1,,,,,,,,,,,,,,,,,,,,,,,,,,,,,,,,,,,,,,,
,,,,,,,,2023-08-16_08h57.58.808,HF_wild_card,2022.2.4,Linux armv8l,59.74429442,5e692a511f156a1e4aa18f70,64d2fd46c836a06233681665,64dc7c2e1a8da31a47b5d480,,,,,,,decisionTrl,resources/DP.BMP,resources/DB.BMP,Door1,0.221543198,-0.070202332,1,0,0,2.0642,optionRight,30,9110,4,39,0,39,0,1,,,,,,,,,,,,,,,,,,,,,,,,,,,,,,,,,,,,,,,
,,,,,,,,2023-08-16_08h57.58.808,HF_wild_card,2022.2.4,Linux armv8l,59.74429442,5e692a511f156a1e4aa18f70,64d2fd46c836a06233681665,64dc7c2e1a8da31a47b5d480,,,,,,,sngl,resources/DBN.BMP,resources/Empty.png,WildCard_Ex,-0.284614143,0.002993927,1,0,0,0.8335,optionLeft,95,9205,4,40,0,40,0,1,,,,,,,,,,,,,,,,,,,,,,,,,,,,,,,,,,,,,,,
,,,,,,,,2023-08-16_08h57.58.808,HF_wild_card,2022.2.4,Linux armv8l,59.74429442,5e692a511f156a1e4aa18f70,64d2fd46c836a06233681665,64dc7c2e1a8da31a47b5d480,,,,,,,decisionTrl,resources/DP.BMP,resources/DB.BMP,Door2,-0.137428741,-0.03265564,1,0,0,1.4461,optionLeft,40,9245,4,41,0,41,0,1,,,,,,,,,,,,,,,,,,,,,,,,,,,,,,,,,,,,,,,
,,,,,,,,2023-08-16_08h57.58.808,HF_wild_card,2022.2.4,Linux armv8l,59.74429442,5e692a511f156a1e4aa18f70,64d2fd46c836a06233681665,64dc7c2e1a8da31a47b5d480,,,,,,,ctch,resources/DB.BMP,resources/DY.BMP,Door4,0.170202484,-0.044268303,1,0,0,1.1132,optionRight,60,9305,4,42,0,42,0,1,,,,,,,,,,,,,,,,,,,,,,,,,,,,,,,,,,,,,,,
,,,,,,,,2023-08-16_08h57.58.808,HF_wild_card,2022.2.4,Linux armv8l,59.74429442,5e692a511f156a1e4aa18f70,64d2fd46c836a06233681665,64dc7c2e1a8da31a47b5d480,,,,,,,sngl,resources/DR.BMP,resources/Empty.png,Door3,-0.193476906,-0.038055992,1,0,0,0.8092,optionLeft,70,9375,4,43,0,43,0,1,,,,,,,,,,,,,,,,,,,,,,,,,,,,,,,,,,,,,,,
,,,,,,,,2023-08-16_08h57.58.808,HF_wild_card,2022.2.4,Linux armv8l,59.74429442,5e692a511f156a1e4aa18f70,64d2fd46c836a06233681665,64dc7c2e1a8da31a47b5d480,,,,,,,,,,,,,,,,,,,,,,,,,,3,0,3,0,1,,,,,,,,,,,,,,,,,,,,,,,,,,,,,,,,,,
,,,,,,,,2023-08-16_08h57.58.808,HF_wild_card,2022.2.4,Linux armv8l,59.74429442,5e692a511f156a1e4aa18f70,64d2fd46c836a06233681665,64dc7c2e1a8da31a47b5d480,,,,,,,sngl,resources/Empty.png,resources/DB.BMP,Door1,0.224622726,-0.177270126,1,0,0,0.9494,optionRight,30,9405,5,0,0,0,0,1,,,,,,,,,,,,,,,,,,,,,,,,,,,,,,,,,,,,,,,
,,,,,,,,2023-08-16_08h57.58.808,HF_wild_card,2022.2.4,Linux armv8l,59.74429442,5e692a511f156a1e4aa18f70,64d2fd46c836a06233681665,64dc7c2e1a8da31a47b5d480,,,,,,,sngl,resources/DY.BMP,resources/Empty.png,Door4,-0.237002716,-0.006960068,1,0,0,0.7789,optionLeft,80,9485,5,1,0,1,0,1,,,,,,,,,,,,,,,,,,,,,,,,,,,,,,,,,,,,,,,
,,,,,,,,2023-08-16_08h57.58.808,HF_wild_card,2022.2.4,Linux armv8l,59.74429442,5e692a511f156a1e4aa18f70,64d2fd46c836a06233681665,64dc7c2e1a8da31a47b5d480,,,,,,,decisionTrl,resources/DP.BMP,resources/DB.BMP,Door1,0.18937645,-0.081148376,1,0,0,1.1982,optionRight,30,9515,5,2,0,2,0,1,,,,,,,,,,,,,,,,,,,,,,,,,,,,,,,,,,,,,,,
,,,,,,,,2023-08-16_08h57.58.808,HF_wild_card,2022.2.4,Linux armv8l,59.74429442,5e692a511f156a1e4aa18f70,64d2fd46c836a06233681665,64dc7c2e1a8da31a47b5d480,,,,,,,decisionTrl,resources/DP.BMP,resources/DB.BMP,Door2,-0.128730621,-0.025337219,1,0,0,0.9798,optionLeft,40,9555,5,3,0,3,0,1,,,,,,,,,,,,,,,,,,,,,,,,,,,,,,,,,,,,,,,
,,,,,,,,2023-08-16_08h57.58.808,HF_wild_card,2022.2.4,Linux armv8l,59.74429442,5e692a511f156a1e4aa18f70,64d2fd46c836a06233681665,64dc7c2e1a8da31a47b5d480,,,,,,,sngl,resources/Empty.png,resources/DP.BMP,Door2,0.264784775,-0.036732178,1,0,0,0.7807,optionRight,20,9575,5,4,0,4,0,1,,,,,,,,,,,,,,,,,,,,,,,,,,,,,,,,,,,,,,,
,,,,,,,,2023-08-16_08h57.58.808,HF_wild_card,2022.2.4,Linux armv8l,59.74429442,5e692a511f156a1e4aa18f70,64d2fd46c836a06233681665,64dc7c2e1a8da31a47b5d480,,,,,,,sngl,resources/DBN.BMP,resources/Empty.png,WildCard_Ex,-0.170810623,-0.008086853,1,0,0,0.7256,optionLeft,5,9580,5,5,0,5,0,1,,,,,,,,,,,,,,,,,,,,,,,,,,,,,,,,,,,,,,,
,,,,,,,,2023-08-16_08h57.58.808,HF_wild_card,2022.2.4,Linux armv8l,59.74429442,5e692a511f156a1e4aa18f70,64d2fd46c836a06233681665,64dc7c2e1a8da31a47b5d480,,,,,,,decisionTrl,resources/DR.BMP,resources/DY.BMP,Door3,-0.105969849,-0.033233032,1,0,0,0.9917,optionLeft,70,9650,5,6,0,6,0,1,,,,,,,,,,,,,,,,,,,,,,,,,,,,,,,,,,,,,,,
,,,,,,,,2023-08-16_08h57.58.808,HF_wild_card,2022.2.4,Linux armv8l,59.74429442,5e692a511f156a1e4aa18f70,64d2fd46c836a06233681665,64dc7c2e1a8da31a47b5d480,,,,,,,decisionTrl,resources/DB.BMP,resources/DP.BMP,Door2,0.147081146,-0.039424896,1,0,0,1.7613,optionRight,40,9690,5,7,0,7,0,1,,,,,,,,,,,,,,,,,,,,,,,,,,,,,,,,,,,,,,,
,,,,,,,,2023-08-16_08h57.58.808,HF_wild_card,2022.2.4,Linux armv8l,59.74429442,5e692a511f156a1e4aa18f70,64d2fd46c836a06233681665,64dc7c2e1a8da31a47b5d480,,,,,,,decisionTrl,resources/DBN.BMP,resources/DY.BMP,WildCard_Ex,-0.119382706,-0.005762024,1,0,0,1.5144,optionLeft,5,9695,5,8,0,8,0,1,,,,,,,,,,,,,,,,,,,,,,,,,,,,,,,,,,,,,,,
,,,,,,,,2023-08-16_08h57.58.808,HF_wild_card,2022.2.4,Linux armv8l,59.74429442,5e692a511f156a1e4aa18f70,64d2fd46c836a06233681665,64dc7c2e1a8da31a47b5d480,,,,,,,ctch,resources/DY.BMP,resources/DB.BMP,Door4,-0.137048492,-0.011400909,1,0,0,0.8787,optionLeft,80,9775,5,9,0,9,0,1,,,,,,,,,,,,,,,,,,,,,,,,,,,,,,,,,,,,,,,
,,,,,,,,2023-08-16_08h57.58.808,HF_wild_card,2022.2.4,Linux armv8l,59.74429442,5e692a511f156a1e4aa18f70,64d2fd46c836a06233681665,64dc7c2e1a8da31a47b5d480,,,,,,,decisionTrl,resources/DP.BMP,resources/DB.BMP,Door2,-0.113858337,-0.017780876,1,0,0,1.4785,optionLeft,20,9795,5,10,0,10,0,1,,,,,,,,,,,,,,,,,,,,,,,,,,,,,,,,,,,,,,,
,,,,,,,,2023-08-16_08h57.58.808,HF_wild_card,2022.2.4,Linux armv8l,59.74429442,5e692a511f156a1e4aa18f70,64d2fd46c836a06233681665,64dc7c2e1a8da31a47b5d480,,,,,,,sngl,resources/DR.BMP,resources/Empty.png,Door3,-0.223895721,-0.029810715,1,0,0,0.9951,optionLeft,70,9865,5,11,0,11,0,1,,,,,,,,,,,,,,,,,,,,,,,,,,,,,,,,,,,,,,,
,,,,,,,,2023-08-16_08h57.58.808,HF_wild_card,2022.2.4,Linux armv8l,59.74429442,5e692a511f156a1e4aa18f70,64d2fd46c836a06233681665,64dc7c2e1a8da31a47b5d480,,,,,,,decisionTrl,resources/DY.BMP,resources/DR.BMP,Door3,0.174456024,-0.030694389,1,0,0,0.8105,optionRight,70,9935,5,12,0,12,0,1,,,,,,,,,,,,,,,,,,,,,,,,,,,,,,,,,,,,,,,
,,,,,,,,2023-08-16_08h57.58.808,HF_wild_card,2022.2.4,Linux armv8l,59.74429442,5e692a511f156a1e4aa18f70,64d2fd46c836a06233681665,64dc7c2e1a8da31a47b5d480,,,,,,,sngl,resources/Empty.png,resources/DY.BMP,Door4,0.220120773,-0.050727463,1,0,0,0.8781,optionRight,60,9995,5,13,0,13,0,1,,,,,,,,,,,,,,,,,,,,,,,,,,,,,,,,,,,,,,,
,,,,,,,,2023-08-16_08h57.58.808,HF_wild_card,2022.2.4,Linux armv8l,59.74429442,5e692a511f156a1e4aa18f70,64d2fd46c836a06233681665,64dc7c2e1a8da31a47b5d480,,,,,,,sngl,resources/DBN.BMP,resources/Empty.png,WildCard_Ex,-0.191918831,-0.000593414,1,0,0,1.0435,optionLeft,95,10090,5,14,0,14,0,1,,,,,,,,,,,,,,,,,,,,,,,,,,,,,,,,,,,,,,,
,,,,,,,,2023-08-16_08h57.58.808,HF_wild_card,2022.2.4,Linux armv8l,59.74429442,5e692a511f156a1e4aa18f70,64d2fd46c836a06233681665,64dc7c2e1a8da31a47b5d480,,,,,,,decisionTrl,resources/DBN.BMP,resources/DR.BMP,WildCard_Ex,-0.116099396,-0.01696228,1,0,0,3.1412,optionLeft,95,10185,5,15,0,15,0,1,,,,,,,,,,,,,,,,,,,,,,,,,,,,,,,,,,,,,,,
,,,,,,,,2023-08-16_08h57.58.808,HF_wild_card,2022.2.4,Linux armv8l,59.74429442,5e692a511f156a1e4aa18f70,64d2fd46c836a06233681665,64dc7c2e1a8da31a47b5d480,,,,,,,decisionTrl,resources/DB.BMP,resources/DP.BMP,Door2,0.395090561,-0.04588253,1,0,0,1.4141,optionRight,20,10205,5,16,0,16,0,1,,,,,,,,,,,,,,,,,,,,,,,,,,,,,,,,,,,,,,,
,,,,,,,,2023-08-16_08h57.58.808,HF_wild_card,2022.2.4,Linux armv8l,59.74429442,5e692a511f156a1e4aa18f70,64d2fd46c836a06233681665,64dc7c2e1a8da31a47b5d480,,,,,,,ctch,resources/DR.BMP,resources/DP.BMP,Door3,-0.118490677,-0.035265808,1,0,0,0.9454,optionLeft,70,10275,5,17,0,17,0,1,,,,,,,,,,,,,,,,,,,,,,,,,,,,,,,,,,,,,,,
,,,,,,,,2023-08-16_08h57.58.808,HF_wild_card,2022.2.4,Linux armv8l,59.74429442,5e692a511f156a1e4aa18f70,64d2fd46c836a06233681665,64dc7c2e1a8da31a47b5d480,,,,,,,ctch,resources/DP.BMP,resources/DR.BMP,Door3,0.453817139,-0.101521454,1,0,0,1.7642,optionRight,70,10345,5,18,0,18,0,1,,,,,,,,,,,,,,,,,,,,,,,,,,,,,,,,,,,,,,,
,,,,,,,,2023-08-16_08h57.58.808,HF_wild_card,2022.2.4,Linux armv8l,59.74429442,5e692a511f156a1e4aa18f70,64d2fd46c836a06233681665,64dc7c2e1a8da31a47b5d480,,,,,,,decisionTrl,resources/DR.BMP,resources/DY.BMP,Door3,-0.145038605,-0.025327301,1,0,0,0.7949,optionLeft,70,10415,5,19,0,19,0,1,,,,,,,,,,,,,,,,,,,,,,,,,,,,,,,,,,,,,,,
,,,,,,,,2023-08-16_08h57.58.808,HF_wild_card,2022.2.4,Linux armv8l,59.74429442,5e692a511f156a1e4aa18f70,64d2fd46c836a06233681665,64dc7c2e1a8da31a47b5d480,,,,,,,decisionTrl,resources/DR.BMP,resources/DY.BMP,Door4,0.179928513,-0.036009827,1,0,0,1.2103,optionRight,60,10475,5,20,0,20,0,1,,,,,,,,,,,,,,,,,,,,,,,,,,,,,,,,,,,,,,,
,,,,,,,,2023-08-16_08h57.58.808,HF_wild_card,2022.2.4,Linux armv8l,59.74429442,5e692a511f156a1e4aa18f70,64d2fd46c836a06233681665,64dc7c2e1a8da31a47b5d480,,,,,,,ctch,resources/DP.BMP,resources/DR.BMP,Door3,0.18289856,-0.050024223,1,0,0,0.861,optionRight,70,10545,5,21,0,21,0,1,,,,,,,,,,,,,,,,,,,,,,,,,,,,,,,,,,,,,,,
,,,,,,,,2023-08-16_08h57.58.808,HF_wild_card,2022.2.4,Linux armv8l,59.74429442,5e692a511f156a1e4aa18f70,64d2fd46c836a06233681665,64dc7c2e1a8da31a47b5d480,,,,,,,ctch,resources/DB.BMP,resources/DY.BMP,Door4,0.231305161,-0.057712517,1,0,0,0.9129,optionRight,80,10625,5,22,0,22,0,1,,,,,,,,,,,,,,,,,,,,,,,,,,,,,,,,,,,,,,,
,,,,,,,,2023-08-16_08h57.58.808,HF_wild_card,2022.2.4,Linux armv8l,59.74429442,5e692a511f156a1e4aa18f70,64d2fd46c836a06233681665,64dc7c2e1a8da31a47b5d480,,,,,,,sngl,resources/Empty.png,resources/DBN.BMP,WildCard_Ex,0.209827118,-0.042917099,1,0,0,0.796,optionRight,5,10630,5,23,0,23,0,1,,,,,,,,,,,,,,,,,,,,,,,,,,,,,,,,,,,,,,,
,,,,,,,,2023-08-16_08h57.58.808,HF_wild_card,2022.2.4,Linux armv8l,59.74429442,5e692a511f156a1e4aa18f70,64d2fd46c836a06233681665,64dc7c2e1a8da31a47b5d480,,,,,,,sngl,resources/DP.BMP,resources/Empty.png,Door2,-0.172583046,-0.014746971,1,0,0,0.8349,optionLeft,40,10670,5,24,0,24,0,1,,,,,,,,,,,,,,,,,,,,,,,,,,,,,,,,,,,,,,,
,,,,,,,,2023-08-16_08h57.58.808,HF_wild_card,2022.2.4,Linux armv8l,59.74429442,5e692a511f156a1e4aa18f70,64d2fd46c836a06233681665,64dc7c2e1a8da31a47b5d480,,,,,,,ctch,resources/DB.BMP,resources/DY.BMP,Door4,0.166023788,-0.032557335,1,0,0,0.6773,optionRight,80,10750,5,25,0,25,0,1,,,,,,,,,,,,,,,,,,,,,,,,,,,,,,,,,,,,,,,
,,,,,,,,2023-08-16_08h57.58.808,HF_wild_card,2022.2.4,Linux armv8l,59.74429442,5e692a511f156a1e4aa18f70,64d2fd46c836a06233681665,64dc7c2e1a8da31a47b5d480,,,,,,,sngl,resources/Empty.png,resources/DBN.BMP,WildCard_Ex,0.183500595,-0.050949554,1,0,0,0.8275,optionRight,95,10845,5,26,0,26,0,1,,,,,,,,,,,,,,,,,,,,,,,,,,,,,,,,,,,,,,,
,,,,,,,,2023-08-16_08h57.58.808,HF_wild_card,2022.2.4,Linux armv8l,59.74429442,5e692a511f156a1e4aa18f70,64d2fd46c836a06233681665,64dc7c2e1a8da31a47b5d480,,,,,,,decisionTrl,resources/DBN.BMP,resources/DB.BMP,WildCard_Ex,-0.131180801,-0.067905235,1,0,0,1.0125,optionLeft,5,10850,5,27,0,27,0,1,,,,,,,,,,,,,,,,,,,,,,,,,,,,,,,,,,,,,,,
,,,,,,,,2023-08-16_08h57.58.808,HF_wild_card,2022.2.4,Linux armv8l,59.74429442,5e692a511f156a1e4aa18f70,64d2fd46c836a06233681665,64dc7c2e1a8da31a47b5d480,,,,,,,sngl,resources/DB.BMP,resources/Empty.png,Door1,-0.146229248,-0.02597641,1,0,0,5.3789,optionLeft,30,10880,5,28,0,28,0,1,,,,,,,,,,,,,,,,,,,,,,,,,,,,,,,,,,,,,,,
,,,,,,,,2023-08-16_08h57.58.808,HF_wild_card,2022.2.4,Linux armv8l,59.74429442,5e692a511f156a1e4aa18f70,64d2fd46c836a06233681665,64dc7c2e1a8da31a47b5d480,,,,,,,decisionTrl,resources/DB.BMP,resources/DP.BMP,Door2,0.12172287,-0.047190857,1,0,0,4.1226,optionRight,40,10920,5,29,0,29,0,1,,,,,,,,,,,,,,,,,,,,,,,,,,,,,,,,,,,,,,,
,,,,,,,,2023-08-16_08h57.58.808,HF_wild_card,2022.2.4,Linux armv8l,59.74429442,5e692a511f156a1e4aa18f70,64d2fd46c836a06233681665,64dc7c2e1a8da31a47b5d480,,,,,,,decisionTrl,resources/DBN.BMP,resources/DP.BMP,WildCard_Ex,-0.192553711,-0.036594963,1,0,0,0.8374,optionLeft,5,10925,5,30,0,30,0,1,,,,,,,,,,,,,,,,,,,,,,,,,,,,,,,,,,,,,,,
,,,,,,,,2023-08-16_08h57.58.808,HF_wild_card,2022.2.4,Linux armv8l,59.74429442,5e692a511f156a1e4aa18f70,64d2fd46c836a06233681665,64dc7c2e1a8da31a47b5d480,,,,,,,decisionTrl,resources/DP.BMP,resources/DB.BMP,Door2,-0.162482491,-0.121986504,1,0,0,1.1967,optionLeft,20,10945,5,31,0,31,0,1,,,,,,,,,,,,,,,,,,,,,,,,,,,,,,,,,,,,,,,
,,,,,,,,2023-08-16_08h57.58.808,HF_wild_card,2022.2.4,Linux armv8l,59.74429442,5e692a511f156a1e4aa18f70,64d2fd46c836a06233681665,64dc7c2e1a8da31a47b5d480,,,,,,,decisionTrl,resources/DR.BMP,resources/DBN.BMP,WildCard_Ex,0.333176498,-0.056950188,1,0,0,2.301,optionRight,95,11040,5,32,0,32,0,1,,,,,,,,,,,,,,,,,,,,,,,,,,,,,,,,,,,,,,,
,,,,,,,,2023-08-16_08h57.58.808,HF_wild_card,2022.2.4,Linux armv8l,59.74429442,5e692a511f156a1e4aa18f70,64d2fd46c836a06233681665,64dc7c2e1a8da31a47b5d480,,,,,,,decisionTrl,resources/DB.BMP,resources/DBN.BMP,WildCard_Ex,0.210708008,-0.080585861,1,0,0,0.7424,optionRight,95,11135,5,33,0,33,0,1,,,,,,,,,,,,,,,,,,,,,,,,,,,,,,,,,,,,,,,
,,,,,,,,2023-08-16_08h57.58.808,HF_wild_card,2022.2.4,Linux armv8l,59.74429442,5e692a511f156a1e4aa18f70,64d2fd46c836a06233681665,64dc7c2e1a8da31a47b5d480,,,,,,,decisionTrl,resources/DB.BMP,resources/DP.BMP,Door1,-0.129950714,-0.058692856,1,0,0,1.213,optionLeft,30,11165,5,34,0,34,0,1,,,,,,,,,,,,,,,,,,,,,,,,,,,,,,,,,,,,,,,
,,,,,,,,2023-08-16_08h57.58.808,HF_wild_card,2022.2.4,Linux armv8l,59.74429442,5e692a511f156a1e4aa18f70,64d2fd46c836a06233681665,64dc7c2e1a8da31a47b5d480,,,,,,,ctch,resources/DY.BMP,resources/DB.BMP,Door4,-0.174105377,-0.013656616,1,0,0,0.878,optionLeft,80,11245,5,35,0,35,0,1,,,,,,,,,,,,,,,,,,,,,,,,,,,,,,,,,,,,,,,
,,,,,,,,2023-08-16_08h57.58.808,HF_wild_card,2022.2.4,Linux armv8l,59.74429442,5e692a511f156a1e4aa18f70,64d2fd46c836a06233681665,64dc7c2e1a8da31a47b5d480,,,,,,,decisionTrl,resources/DP.BMP,resources/DBN.BMP,WildCard_Ex,0.273625412,-0.084134636,1,0,0,0.7957,optionRight,5,11250,5,36,0,36,0,1,,,,,,,,,,,,,,,,,,,,,,,,,,,,,,,,,,,,,,,
,,,,,,,,2023-08-16_08h57.58.808,HF_wild_card,2022.2.4,Linux armv8l,59.74429442,5e692a511f156a1e4aa18f70,64d2fd46c836a06233681665,64dc7c2e1a8da31a47b5d480,,,,,,,decisionTrl,resources/DY.BMP,resources/DR.BMP,Door3,0.156137314,-0.045307579,1,0,0,0.9954,optionRight,70,11320,5,37,0,37,0,1,,,,,,,,,,,,,,,,,,,,,,,,,,,,,,,,,,,,,,,
,,,,,,,,2023-08-16_08h57.58.808,HF_wild_card,2022.2.4,Linux armv8l,59.74429442,5e692a511f156a1e4aa18f70,64d2fd46c836a06233681665,64dc7c2e1a8da31a47b5d480,,,,,,,decisionTrl,resources/DY.BMP,resources/DR.BMP,Door4,-0.237393799,-0.028656006,1,0,0,0.8303,optionLeft,60,11380,5,38,0,38,0,1,,,,,,,,,,,,,,,,,,,,,,,,,,,,,,,,,,,,,,,
,,,,,,,,2023-08-16_08h57.58.808,HF_wild_card,2022.2.4,Linux armv8l,59.74429442,5e692a511f156a1e4aa18f70,64d2fd46c836a06233681665,64dc7c2e1a8da31a47b5d480,,,,,,,decisionTrl,resources/DR.BMP,resources/DY.BMP,Door4,0.329744873,-0.102022095,1,0,0,1.5832,optionRight,80,11460,5,39,0,39,0,1,,,,,,,,,,,,,,,,,,,,,,,,,,,,,,,,,,,,,,,
,,,,,,,,2023-08-16_08h57.58.808,HF_wild_card,2022.2.4,Linux armv8l,59.74429442,5e692a511f156a1e4aa18f70,64d2fd46c836a06233681665,64dc7c2e1a8da31a47b5d480,,,,,,,ctch,resources/DR.BMP,resources/DP.BMP,Door3,-0.189434853,-0.070492821,1,0,0,1.3973,optionLeft,70,11530,5,40,0,40,0,1,,,,,,,,,,,,,,,,,,,,,,,,,,,,,,,,,,,,,,,
,,,,,,,,2023-08-16_08h57.58.808,HF_wild_card,2022.2.4,Linux armv8l,59.74429442,5e692a511f156a1e4aa18f70,64d2fd46c836a06233681665,64dc7c2e1a8da31a47b5d480,,,,,,,sngl,resources/Empty.png,resources/DR.BMP,Door3,0.202464218,-0.080783348,1,0,0,0.8284,optionRight,70,11600,5,41,0,41,0,1,,,,,,,,,,,,,,,,,,,,,,,,,,,,,,,,,,,,,,,
,,,,,,,,2023-08-16_08h57.58.808,HF_wild_card,2022.2.4,Linux armv8l,59.74429442,5e692a511f156a1e4aa18f70,64d2fd46c836a06233681665,64dc7c2e1a8da31a47b5d480,,,,,,,decisionTrl,resources/DY.BMP,resources/DBN.BMP,WildCard_Ex,0.214685974,-0.047890854,1,0,0,1.4502,optionRight,95,11695,5,42,0,42,0,1,,,,,,,,,,,,,,,,,,,,,,,,,,,,,,,,,,,,,,,
,,,,,,,,2023-08-16_08h57.58.808,HF_wild_card,2022.2.4,Linux armv8l,59.74429442,5e692a511f156a1e4aa18f70,64d2fd46c836a06233681665,64dc7c2e1a8da31a47b5d480,,,,,,,decisionTrl,resources/DY.BMP,resources/DR.BMP,Door4,-0.101456146,-0.037327843,1,0,0,0.8957,optionLeft,80,11775,5,43,0,43,0,1,,,,,,,,,,,,,,,,,,,,,,,,,,,,,,,,,,,,,,,
,,,,,,,,2023-08-16_08h57.58.808,HF_wild_card,2022.2.4,Linux armv8l,59.74429442,5e692a511f156a1e4aa18f70,64d2fd46c836a06233681665,64dc7c2e1a8da31a47b5d480,,,,,,,,,,,,,,,,,,,,,,,,,,4,0,4,0,1,,,,,,,,,,,,,,,,,,,,,,,,,,,,,,,,,,
,,,,,,,,2023-08-16_08h57.58.808,HF_wild_card,2022.2.4,Linux armv8l,59.74429442,5e692a511f156a1e4aa18f70,64d2fd46c836a06233681665,64dc7c2e1a8da31a47b5d480,,,,,,,sngl,resources/Empty.png,resources/DP.BMP,Door2,0.245094452,-0.209945831,1,0,0,1.386,optionRight,40,11815,6,0,0,0,0,1,,,,,,,,,,,,,,,,,,,,,,,,,,,,,,,,,,,,,,,
,,,,,,,,2023-08-16_08h57.58.808,HF_wild_card,2022.2.4,Linux armv8l,59.74429442,5e692a511f156a1e4aa18f70,64d2fd46c836a06233681665,64dc7c2e1a8da31a47b5d480,,,,,,,sngl,resources/DB.BMP,resources/Empty.png,Door1,-0.171216774,0.011064644,1,0,0,0.7108,optionLeft,30,11845,6,1,0,1,0,1,,,,,,,,,,,,,,,,,,,,,,,,,,,,,,,,,,,,,,,
,,,,,,,,2023-08-16_08h57.58.808,HF_wild_card,2022.2.4,Linux armv8l,59.74429442,5e692a511f156a1e4aa18f70,64d2fd46c836a06233681665,64dc7c2e1a8da31a47b5d480,,,,,,,ctch,resources/DB.BMP,resources/DY.BMP,Door4,0.200639496,-0.056726341,1,0,0,1.0115,optionRight,60,11905,6,2,0,2,0,1,,,,,,,,,,,,,,,,,,,,,,,,,,,,,,,,,,,,,,,
,,,,,,,,2023-08-16_08h57.58.808,HF_wild_card,2022.2.4,Linux armv8l,59.74429442,5e692a511f156a1e4aa18f70,64d2fd46c836a06233681665,64dc7c2e1a8da31a47b5d480,,,,,,,decisionTrl,resources/DY.BMP,resources/DR.BMP,Door3,0.156862411,-0.070190239,1,0,0,1.0923,optionRight,70,11975,6,3,0,3,0,1,,,,,,,,,,,,,,,,,,,,,,,,,,,,,,,,,,,,,,,
,,,,,,,,2023-08-16_08h57.58.808,HF_wild_card,2022.2.4,Linux armv8l,59.74429442,5e692a511f156a1e4aa18f70,64d2fd46c836a06233681665,64dc7c2e1a8da31a47b5d480,,,,,,,ctch,resources/DR.BMP,resources/DP.BMP,Door3,-0.268090591,-0.010251579,1,0,0,1.0958,optionLeft,70,12045,6,4,0,4,0,1,,,,,,,,,,,,,,,,,,,,,,,,,,,,,,,,,,,,,,,
,,,,,,,,2023-08-16_08h57.58.808,HF_wild_card,2022.2.4,Linux armv8l,59.74429442,5e692a511f156a1e4aa18f70,64d2fd46c836a06233681665,64dc7c2e1a8da31a47b5d480,,,,,,,decisionTrl,resources/DB.BMP,resources/DP.BMP,Door2,0.238825531,-0.091645622,1,0,0,1.196,optionRight,20,12065,6,5,0,5,0,1,,,,,,,,,,,,,,,,,,,,,,,,,,,,,,,,,,,,,,,
,,,,,,,,2023-08-16_08h57.58.808,HF_wild_card,2022.2.4,Linux armv8l,59.74429442,5e692a511f156a1e4aa18f70,64d2fd46c836a06233681665,64dc7c2e1a8da31a47b5d480,,,,,,,sngl,resources/Empty.png,resources/DY.BMP,Door4,0.158864975,-0.061447144,1,0,0,1.0877,optionRight,80,12145,6,6,0,6,0,1,,,,,,,,,,,,,,,,,,,,,,,,,,,,,,,,,,,,,,,
,,,,,,,,2023-08-16_08h57.58.808,HF_wild_card,2022.2.4,Linux armv8l,59.74429442,5e692a511f156a1e4aa18f70,64d2fd46c836a06233681665,64dc7c2e1a8da31a47b5d480,,,,,,,decisionTrl,resources/DY.BMP,resources/DR.BMP,Door4,-0.133024139,-0.003882446,1,0,0,0.9108,optionLeft,80,12225,6,7,0,7,0,1,,,,,,,,,,,,,,,,,,,,,,,,,,,,,,,,,,,,,,,
,,,,,,,,2023-08-16_08h57.58.808,HF_wild_card,2022.2.4,Linux armv8l,59.74429442,5e692a511f156a1e4aa18f70,64d2fd46c836a06233681665,64dc7c2e1a8da31a47b5d480,,,,,,,decisionTrl,resources/DR.BMP,resources/DY.BMP,Door4,0.22156662,-0.064694786,1,0,0,0.9918,optionRight,60,12285,6,8,0,8,0,1,,,,,,,,,,,,,,,,,,,,,,,,,,,,,,,,,,,,,,,
,,,,,,,,2023-08-16_08h57.58.808,HF_wild_card,2022.2.4,Linux armv8l,59.74429442,5e692a511f156a1e4aa18f70,64d2fd46c836a06233681665,64dc7c2e1a8da31a47b5d480,,,,,,,decisionTrl,resources/DBN.BMP,resources/DP.BMP,WildCard_Ex,-0.132228241,-0.028906555,1,0,0,1.0256,optionLeft,5,12290,6,9,0,9,0,1,,,,,,,,,,,,,,,,,,,,,,,,,,,,,,,,,,,,,,,
,,,,,,,,2023-08-16_08h57.58.808,HF_wild_card,2022.2.4,Linux armv8l,59.74429442,5e692a511f156a1e4aa18f70,64d2fd46c836a06233681665,64dc7c2e1a8da31a47b5d480,,,,,,,decisionTrl,resources/DP.BMP,resources/DB.BMP,Door2,-0.130110321,-0.019781342,1,0,0,0.9118,optionLeft,40,12330,6,10,0,10,0,1,,,,,,,,,,,,,,,,,,,,,,,,,,,,,,,,,,,,,,,
,,,,,,,,2023-08-16_08h57.58.808,HF_wild_card,2022.2.4,Linux armv8l,59.74429442,5e692a511f156a1e4aa18f70,64d2fd46c836a06233681665,64dc7c2e1a8da31a47b5d480,,,,,,,sngl,resources/DBN.BMP,resources/Empty.png,WildCard_Ex,-0.127557831,-0.022088547,1,0,0,0.8933,optionLeft,95,12425,6,11,0,11,0,1,,,,,,,,,,,,,,,,,,,,,,,,,,,,,,,,,,,,,,,
,,,,,,,,2023-08-16_08h57.58.808,HF_wild_card,2022.2.4,Linux armv8l,59.74429442,5e692a511f156a1e4aa18f70,64d2fd46c836a06233681665,64dc7c2e1a8da31a47b5d480,,,,,,,sngl,resources/Empty.png,resources/DBN.BMP,WildCard_Ex,0.160234909,-0.069762993,1,0,0,0.7972,optionRight,5,12430,6,12,0,12,0,1,,,,,,,,,,,,,,,,,,,,,,,,,,,,,,,,,,,,,,,
,,,,,,,,2023-08-16_08h57.58.808,HF_wild_card,2022.2.4,Linux armv8l,59.74429442,5e692a511f156a1e4aa18f70,64d2fd46c836a06233681665,64dc7c2e1a8da31a47b5d480,,,,,,,decisionTrl,resources/DB.BMP,resources/DP.BMP,Door2,0.277431259,-0.072992554,1,0,0,1.0265,optionRight,20,12450,6,13,0,13,0,1,,,,,,,,,,,,,,,,,,,,,,,,,,,,,,,,,,,,,,,
,,,,,,,,2023-08-16_08h57.58.808,HF_wild_card,2022.2.4,Linux armv8l,59.74429442,5e692a511f156a1e4aa18f70,64d2fd46c836a06233681665,64dc7c2e1a8da31a47b5d480,,,,,,,decisionTrl,resources/DB.BMP,resources/DBN.BMP,WildCard_Ex,0.180830917,-0.078114586,1,0,0,1.026,optionRight,5,12455,6,14,0,14,0,1,,,,,,,,,,,,,,,,,,,,,,,,,,,,,,,,,,,,,,,
,,,,,,,,2023-08-16_08h57.58.808,HF_wild_card,2022.2.4,Linux armv8l,59.74429442,5e692a511f156a1e4aa18f70,64d2fd46c836a06233681665,64dc7c2e1a8da31a47b5d480,,,,,,,ctch,resources/DP.BMP,resources/DR.BMP,Door3,0.340345688,-0.065497246,1,0,0,1.0284,optionRight,70,12525,6,15,0,15,0,1,,,,,,,,,,,,,,,,,,,,,,,,,,,,,,,,,,,,,,,
,,,,,,,,2023-08-16_08h57.58.808,HF_wild_card,2022.2.4,Linux armv8l,59.74429442,5e692a511f156a1e4aa18f70,64d2fd46c836a06233681665,64dc7c2e1a8da31a47b5d480,,,,,,,decisionTrl,resources/DY.BMP,resources/DR.BMP,Door4,-0.127978516,-0.052195702,1,0,0,1.1461,optionLeft,80,12605,6,16,0,16,0,1,,,,,,,,,,,,,,,,,,,,,,,,,,,,,,,,,,,,,,,
,,,,,,,,2023-08-16_08h57.58.808,HF_wild_card,2022.2.4,Linux armv8l,59.74429442,5e692a511f156a1e4aa18f70,64d2fd46c836a06233681665,64dc7c2e1a8da31a47b5d480,,,,,,,ctch,resources/DP.BMP,resources/DR.BMP,Door3,0.13477829,-0.079767418,1,0,0,1.0294,optionRight,70,12675,6,17,0,17,0,1,,,,,,,,,,,,,,,,,,,,,,,,,,,,,,,,,,,,,,,
,,,,,,,,2023-08-16_08h57.58.808,HF_wild_card,2022.2.4,Linux armv8l,59.74429442,5e692a511f156a1e4aa18f70,64d2fd46c836a06233681665,64dc7c2e1a8da31a47b5d480,,,,,,,decisionTrl,resources/DR.BMP,resources/DBN.BMP,WildCard_Ex,0.347776718,-0.102051353,1,0,0,2.4024,optionRight,95,12770,6,18,0,18,0,1,,,,,,,,,,,,,,,,,,,,,,,,,,,,,,,,,,,,,,,
,,,,,,,,2023-08-16_08h57.58.808,HF_wild_card,2022.2.4,Linux armv8l,59.74429442,5e692a511f156a1e4aa18f70,64d2fd46c836a06233681665,64dc7c2e1a8da31a47b5d480,,,,,,,sngl,resources/Empty.png,resources/DB.BMP,Door1,0.145023651,-0.081669769,1,0,0,0.7784,optionRight,30,12800,6,19,0,19,0,1,,,,,,,,,,,,,,,,,,,,,,,,,,,,,,,,,,,,,,,
,,,,,,,,2023-08-16_08h57.58.808,HF_wild_card,2022.2.4,Linux armv8l,59.74429442,5e692a511f156a1e4aa18f70,64d2fd46c836a06233681665,64dc7c2e1a8da31a47b5d480,,,,,,,sngl,resources/DY.BMP,resources/Empty.png,Door4,-0.273338623,-0.047549248,1,0,0,1.3465,optionLeft,60,12860,6,20,0,20,0,1,,,,,,,,,,,,,,,,,,,,,,,,,,,,,,,,,,,,,,,
,,,,,,,,2023-08-16_08h57.58.808,HF_wild_card,2022.2.4,Linux armv8l,59.74429442,5e692a511f156a1e4aa18f70,64d2fd46c836a06233681665,64dc7c2e1a8da31a47b5d480,,,,,,,ctch,resources/DY.BMP,resources/DB.BMP,Door4,-0.272786751,-0.052351189,1,0,0,1.0465,optionLeft,80,12940,6,21,0,21,0,1,,,,,,,,,,,,,,,,,,,,,,,,,,,,,,,,,,,,,,,
,,,,,,,,2023-08-16_08h57.58.808,HF_wild_card,2022.2.4,Linux armv8l,59.74429442,5e692a511f156a1e4aa18f70,64d2fd46c836a06233681665,64dc7c2e1a8da31a47b5d480,,,,,,,ctch,resources/DY.BMP,resources/DB.BMP,Door4,-0.145883179,-0.006061211,1,0,0,0.9461,optionLeft,80,13020,6,22,0,22,0,1,,,,,,,,,,,,,,,,,,,,,,,,,,,,,,,,,,,,,,,
,,,,,,,,2023-08-16_08h57.58.808,HF_wild_card,2022.2.4,Linux armv8l,59.74429442,5e692a511f156a1e4aa18f70,64d2fd46c836a06233681665,64dc7c2e1a8da31a47b5d480,,,,,,,decisionTrl,resources/DBN.BMP,resources/DY.BMP,WildCard_Ex,-0.172641373,-0.009321098,1,0,0,0.9437,optionLeft,5,13025,6,23,0,23,0,1,,,,,,,,,,,,,,,,,,,,,,,,,,,,,,,,,,,,,,,
,,,,,,,,2023-08-16_08h57.58.808,HF_wild_card,2022.2.4,Linux armv8l,59.74429442,5e692a511f156a1e4aa18f70,64d2fd46c836a06233681665,64dc7c2e1a8da31a47b5d480,,,,,,,decisionTrl,resources/DP.BMP,resources/DBN.BMP,WildCard_Ex,0.161248016,-0.040238953,1,0,0,0.9087,optionRight,95,13120,6,24,0,24,0,1,,,,,,,,,,,,,,,,,,,,,,,,,,,,,,,,,,,,,,,
,,,,,,,,2023-08-16_08h57.58.808,HF_wild_card,2022.2.4,Linux armv8l,59.74429442,5e692a511f156a1e4aa18f70,64d2fd46c836a06233681665,64dc7c2e1a8da31a47b5d480,,,,,,,ctch,resources/DR.BMP,resources/DP.BMP,Door3,-0.116319656,-0.024849091,1,0,0,1.3628,optionLeft,70,13190,6,25,0,25,0,1,,,,,,,,,,,,,,,,,,,,,,,,,,,,,,,,,,,,,,,
,,,,,,,,2023-08-16_08h57.58.808,HF_wild_card,2022.2.4,Linux armv8l,59.74429442,5e692a511f156a1e4aa18f70,64d2fd46c836a06233681665,64dc7c2e1a8da31a47b5d480,,,,,,,decisionTrl,resources/DP.BMP,resources/DB.BMP,Door1,0.156457748,-0.057448997,1,0,0,1.3126,optionRight,30,13220,6,26,0,26,0,1,,,,,,,,,,,,,,,,,,,,,,,,,,,,,,,,,,,,,,,
,,,,,,,,2023-08-16_08h57.58.808,HF_wild_card,2022.2.4,Linux armv8l,59.74429442,5e692a511f156a1e4aa18f70,64d2fd46c836a06233681665,64dc7c2e1a8da31a47b5d480,,,,,,,sngl,resources/DBN.BMP,resources/Empty.png,WildCard_Ex,-0.19238987,-0.014972534,1,0,0,0.7645,optionLeft,5,13225,6,27,0,27,0,1,,,,,,,,,,,,,,,,,,,,,,,,,,,,,,,,,,,,,,,
,,,,,,,,2023-08-16_08h57.58.808,HF_wild_card,2022.2.4,Linux armv8l,59.74429442,5e692a511f156a1e4aa18f70,64d2fd46c836a06233681665,64dc7c2e1a8da31a47b5d480,,,,,,,decisionTrl,resources/DB.BMP,resources/DP.BMP,Door2,0.131040268,-0.069115715,1,0,0,0.943,optionRight,40,13265,6,28,0,28,0,1,,,,,,,,,,,,,,,,,,,,,,,,,,,,,,,,,,,,,,,
,,,,,,,,2023-08-16_08h57.58.808,HF_wild_card,2022.2.4,Linux armv8l,59.74429442,5e692a511f156a1e4aa18f70,64d2fd46c836a06233681665,64dc7c2e1a8da31a47b5d480,,,,,,,decisionTrl,resources/DBN.BMP,resources/DB.BMP,WildCard_Ex,-0.130273285,0.002288399,1,0,0,0.9096,optionLeft,95,13360,6,29,0,29,0,1,,,,,,,,,,,,,,,,,,,,,,,,,,,,,,,,,,,,,,,
,,,,,,,,2023-08-16_08h57.58.808,HF_wild_card,2022.2.4,Linux armv8l,59.74429442,5e692a511f156a1e4aa18f70,64d2fd46c836a06233681665,64dc7c2e1a8da31a47b5d480,,,,,,,decisionTrl,resources/DR.BMP,resources/DY.BMP,Door3,-0.197279091,-0.057119408,1,0,0,0.9285,optionLeft,70,13430,6,30,0,30,0,1,,,,,,,,,,,,,,,,,,,,,,,,,,,,,,,,,,,,,,,
,,,,,,,,2023-08-16_08h57.58.808,HF_wild_card,2022.2.4,Linux armv8l,59.74429442,5e692a511f156a1e4aa18f70,64d2fd46c836a06233681665,64dc7c2e1a8da31a47b5d480,,,,,,,decisionTrl,resources/DP.BMP,resources/DB.BMP,Door1,0.363798523,-0.06060482,1,0,0,1.4477,optionRight,30,13460,6,31,0,31,0,1,,,,,,,,,,,,,,,,,,,,,,,,,,,,,,,,,,,,,,,
,,,,,,,,2023-08-16_08h57.58.808,HF_wild_card,2022.2.4,Linux armv8l,59.74429442,5e692a511f156a1e4aa18f70,64d2fd46c836a06233681665,64dc7c2e1a8da31a47b5d480,,,,,,,decisionTrl,resources/DB.BMP,resources/DP.BMP,Door2,0.28095665,-0.056760674,1,0,0,1.078,optionRight,40,13500,6,32,0,32,0,1,,,,,,,,,,,,,,,,,,,,,,,,,,,,,,,,,,,,,,,
,,,,,,,,2023-08-16_08h57.58.808,HF_wild_card,2022.2.4,Linux armv8l,59.74429442,5e692a511f156a1e4aa18f70,64d2fd46c836a06233681665,64dc7c2e1a8da31a47b5d480,,,,,,,sngl,resources/Empty.png,resources/DBN.BMP,WildCard_Ex,0.319092636,-0.043837128,1,0,0,0.6395,optionRight,95,13595,6,33,0,33,0,1,,,,,,,,,,,,,,,,,,,,,,,,,,,,,,,,,,,,,,,
,,,,,,,,2023-08-16_08h57.58.808,HF_wild_card,2022.2.4,Linux armv8l,59.74429442,5e692a511f156a1e4aa18f70,64d2fd46c836a06233681665,64dc7c2e1a8da31a47b5d480,,,,,,,sngl,resources/DR.BMP,resources/Empty.png,Door3,-0.223722229,0.004127045,1,0,0,0.7598,optionLeft,70,13665,6,34,0,34,0,1,,,,,,,,,,,,,,,,,,,,,,,,,,,,,,,,,,,,,,,
,,,,,,,,2023-08-16_08h57.58.808,HF_wild_card,2022.2.4,Linux armv8l,59.74429442,5e692a511f156a1e4aa18f70,64d2fd46c836a06233681665,64dc7c2e1a8da31a47b5d480,,,,,,,decisionTrl,resources/DBN.BMP,resources/DR.BMP,WildCard_Ex,-0.164148712,-0.023814812,1,0,0,0.9612,optionLeft,5,13670,6,35,0,35,0,1,,,,,,,,,,,,,,,,,,,,,,,,,,,,,,,,,,,,,,,
,,,,,,,,2023-08-16_08h57.58.808,HF_wild_card,2022.2.4,Linux armv8l,59.74429442,5e692a511f156a1e4aa18f70,64d2fd46c836a06233681665,64dc7c2e1a8da31a47b5d480,,,,,,,sngl,resources/DP.BMP,resources/Empty.png,Door2,-0.13224411,-0.008875122,1,0,0,0.8426,optionLeft,20,13690,6,36,0,36,0,1,,,,,,,,,,,,,,,,,,,,,,,,,,,,,,,,,,,,,,,
,,,,,,,,2023-08-16_08h57.58.808,HF_wild_card,2022.2.4,Linux armv8l,59.74429442,5e692a511f156a1e4aa18f70,64d2fd46c836a06233681665,64dc7c2e1a8da31a47b5d480,,,,,,,sngl,resources/Empty.png,resources/DR.BMP,Door3,0.208443222,-0.067227783,1,0,0,0.6476,optionRight,70,13760,6,37,0,37,0,1,,,,,,,,,,,,,,,,,,,,,,,,,,,,,,,,,,,,,,,
,,,,,,,,2023-08-16_08h57.58.808,HF_wild_card,2022.2.4,Linux armv8l,59.74429442,5e692a511f156a1e4aa18f70,64d2fd46c836a06233681665,64dc7c2e1a8da31a47b5d480,,,,,,,ctch,resources/DB.BMP,resources/DY.BMP,Door4,0.298367538,-0.103203278,1,0,0,0.9946,optionRight,60,13820,6,38,0,38,0,1,,,,,,,,,,,,,,,,,,,,,,,,,,,,,,,,,,,,,,,
,,,,,,,,2023-08-16_08h57.58.808,HF_wild_card,2022.2.4,Linux armv8l,59.74429442,5e692a511f156a1e4aa18f70,64d2fd46c836a06233681665,64dc7c2e1a8da31a47b5d480,,,,,,,decisionTrl,resources/DY.BMP,resources/DBN.BMP,WildCard_Ex,0.268451157,-0.085215454,1,0,0,0.8624,optionRight,95,13915,6,39,0,39,0,1,,,,,,,,,,,,,,,,,,,,,,,,,,,,,,,,,,,,,,,
,,,,,,,,2023-08-16_08h57.58.808,HF_wild_card,2022.2.4,Linux armv8l,59.74429442,5e692a511f156a1e4aa18f70,64d2fd46c836a06233681665,64dc7c2e1a8da31a47b5d480,,,,,,,decisionTrl,resources/DR.BMP,resources/DY.BMP,Door4,0.161664734,-0.071073418,1,0,0,0.9614,optionRight,80,13995,6,40,0,40,0,1,,,,,,,,,,,,,,,,,,,,,,,,,,,,,,,,,,,,,,,
,,,,,,,,2023-08-16_08h57.58.808,HF_wild_card,2022.2.4,Linux armv8l,59.74429442,5e692a511f156a1e4aa18f70,64d2fd46c836a06233681665,64dc7c2e1a8da31a47b5d480,,,,,,,decisionTrl,resources/DR.BMP,resources/DY.BMP,Door3,-0.169208717,0.010188599,1,0,0,0.7469,optionLeft,70,14065,6,41,0,41,0,1,,,,,,,,,,,,,,,,,,,,,,,,,,,,,,,,,,,,,,,
,,,,,,,,2023-08-16_08h57.58.808,HF_wild_card,2022.2.4,Linux armv8l,59.74429442,5e692a511f156a1e4aa18f70,64d2fd46c836a06233681665,64dc7c2e1a8da31a47b5d480,,,,,,,decisionTrl,resources/DY.BMP,resources/DR.BMP,Door4,-0.140573273,-0.005863457,1,0,0,1.5296,optionLeft,80,14145,6,42,0,42,0,1,,,,,,,,,,,,,,,,,,,,,,,,,,,,,,,,,,,,,,,
,,,,,,,,2023-08-16_08h57.58.808,HF_wild_card,2022.2.4,Linux armv8l,59.74429442,5e692a511f156a1e4aa18f70,64d2fd46c836a06233681665,64dc7c2e1a8da31a47b5d480,,,,,,,decisionTrl,resources/DP.BMP,resources/DB.BMP,Door1,0.170369263,-0.06436142,1,0,0,1.7811,optionRight,30,14175,6,43,0,43,0,1,,,,,,,,,,,,,,,,,,,,,,,,,,,,,,,,,,,,,,,
,,,,,,,,2023-08-16_08h57.58.808,HF_wild_card,2022.2.4,Linux armv8l,59.74429442,5e692a511f156a1e4aa18f70,64d2fd46c836a06233681665,64dc7c2e1a8da31a47b5d480,,,,,,,,,,,,,,,,,,,,,,,,,,5,0,5,0,1,,,,,,,,,,,,,,,,,,,,,,,,,,,,,,,,,,
,,,,,,,,2023-08-16_08h57.58.808,HF_wild_card,2022.2.4,Linux armv8l,59.74429442,5e692a511f156a1e4aa18f70,64d2fd46c836a06233681665,64dc7c2e1a8da31a47b5d480,,,,,,,decisionTrl,resources/DY.BMP,resources/DR.BMP,Door3,0.247553329,-0.121439781,1,0,0,2.5618,optionRight,70,14245,7,0,0,0,0,1,,,,,,,,,,,,,,,,,,,,,,,,,,,,,,,,,,,,,,,
,,,,,,,,2023-08-16_08h57.58.808,HF_wild_card,2022.2.4,Linux armv8l,59.74429442,5e692a511f156a1e4aa18f70,64d2fd46c836a06233681665,64dc7c2e1a8da31a47b5d480,,,,,,,decisionTrl,resources/DB.BMP,resources/DP.BMP,Door1,-0.136435089,-0.085883408,1,0,0,1.2972,optionLeft,30,14275,7,1,0,1,0,1,,,,,,,,,,,,,,,,,,,,,,,,,,,,,,,,,,,,,,,
,,,,,,,,2023-08-16_08h57.58.808,HF_wild_card,2022.2.4,Linux armv8l,59.74429442,5e692a511f156a1e4aa18f70,64d2fd46c836a06233681665,64dc7c2e1a8da31a47b5d480,,,,,,,decisionTrl,resources/DB.BMP,resources/DP.BMP,Door1,-0.2011269,-0.018444633,1,0,0,2.4049,optionLeft,30,14305,7,2,0,2,0,1,,,,,,,,,,,,,,,,,,,,,,,,,,,,,,,,,,,,,,,
,,,,,,,,2023-08-16_08h57.58.808,HF_wild_card,2022.2.4,Linux armv8l,59.74429442,5e692a511f156a1e4aa18f70,64d2fd46c836a06233681665,64dc7c2e1a8da31a47b5d480,,,,,,,ctch,resources/DY.BMP,resources/DB.BMP,Door4,-0.118404388,0.004529305,1,0,0,1.4169,optionLeft,80,14385,7,3,0,3,0,1,,,,,,,,,,,,,,,,,,,,,,,,,,,,,,,,,,,,,,,
,,,,,,,,2023-08-16_08h57.58.808,HF_wild_card,2022.2.4,Linux armv8l,59.74429442,5e692a511f156a1e4aa18f70,64d2fd46c836a06233681665,64dc7c2e1a8da31a47b5d480,,,,,,,decisionTrl,resources/DY.BMP,resources/DR.BMP,Door3,0.117754211,-0.044788475,1,0,0,1.5186,optionRight,70,14455,7,4,0,4,0,1,,,,,,,,,,,,,,,,,,,,,,,,,,,,,,,,,,,,,,,
,,,,,,,,2023-08-16_08h57.58.808,HF_wild_card,2022.2.4,Linux armv8l,59.74429442,5e692a511f156a1e4aa18f70,64d2fd46c836a06233681665,64dc7c2e1a8da31a47b5d480,,,,,,,ctch,resources/DY.BMP,resources/DB.BMP,Door4,-0.123350067,-0.057103386,1,0,0,1.3021,optionLeft,60,14515,7,5,0,5,0,1,,,,,,,,,,,,,,,,,,,,,,,,,,,,,,,,,,,,,,,
,,,,,,,,2023-08-16_08h57.58.808,HF_wild_card,2022.2.4,Linux armv8l,59.74429442,5e692a511f156a1e4aa18f70,64d2fd46c836a06233681665,64dc7c2e1a8da31a47b5d480,,,,,,,decisionTrl,resources/DY.BMP,resources/DR.BMP,Door3,0.197770615,-0.067387085,1,0,0,1.6858,optionRight,70,14585,7,6,0,6,0,1,,,,,,,,,,,,,,,,,,,,,,,,,,,,,,,,,,,,,,,
,,,,,,,,2023-08-16_08h57.58.808,HF_wild_card,2022.2.4,Linux armv8l,59.74429442,5e692a511f156a1e4aa18f70,64d2fd46c836a06233681665,64dc7c2e1a8da31a47b5d480,,,,,,,ctch,resources/DB.BMP,resources/DY.BMP,Door4,0.131370468,-0.055757599,1,0,0,0.8827,optionRight,60,14645,7,7,0,7,0,1,,,,,,,,,,,,,,,,,,,,,,,,,,,,,,,,,,,,,,,
,,,,,,,,2023-08-16_08h57.58.808,HF_wild_card,2022.2.4,Linux armv8l,59.74429442,5e692a511f156a1e4aa18f70,64d2fd46c836a06233681665,64dc7c2e1a8da31a47b5d480,,,,,,,ctch,resources/DP.BMP,resources/DR.BMP,Door3,0.095647888,-0.078016167,1,0,0,1.2664,optionRight,70,14715,7,8,0,8,0,1,,,,,,,,,,,,,,,,,,,,,,,,,,,,,,,,,,,,,,,
,,,,,,,,2023-08-16_08h57.58.808,HF_wild_card,2022.2.4,Linux armv8l,59.74429442,5e692a511f156a1e4aa18f70,64d2fd46c836a06233681665,64dc7c2e1a8da31a47b5d480,,,,,,,decisionTrl,resources/DB.BMP,resources/DP.BMP,Door1,-0.170892334,-0.04461319,1,0,0,1.8175,optionLeft,30,14745,7,9,0,9,0,1,,,,,,,,,,,,,,,,,,,,,,,,,,,,,,,,,,,,,,,
,,,,,,,,2023-08-16_08h57.58.808,HF_wild_card,2022.2.4,Linux armv8l,59.74429442,5e692a511f156a1e4aa18f70,64d2fd46c836a06233681665,64dc7c2e1a8da31a47b5d480,,,,,,,decisionTrl,resources/DY.BMP,resources/DR.BMP,Door4,-0.096507721,-0.04259819,1,0,0,1.5528,optionLeft,60,14805,7,10,0,10,0,1,,,,,,,,,,,,,,,,,,,,,,,,,,,,,,,,,,,,,,,
,,,,,,,,2023-08-16_08h57.58.808,HF_wild_card,2022.2.4,Linux armv8l,59.74429442,5e692a511f156a1e4aa18f70,64d2fd46c836a06233681665,64dc7c2e1a8da31a47b5d480,,,,,,,decisionTrl,resources/DR.BMP,resources/DY.BMP,Door3,-0.162937508,-0.036308098,1,0,0,1.2339,optionLeft,70,14875,7,11,0,11,0,1,,,,,,,,,,,,,,,,,,,,,,,,,,,,,,,,,,,,,,,
,,,,,,,,2023-08-16_08h57.58.808,HF_wild_card,2022.2.4,Linux armv8l,59.74429442,5e692a511f156a1e4aa18f70,64d2fd46c836a06233681665,64dc7c2e1a8da31a47b5d480,,,,,,,ctch,resources/DP.BMP,resources/DR.BMP,Door3,0.120125351,-0.045344162,1,0,0,1.1306,optionRight,70,14945,7,12,0,12,0,1,,,,,,,,,,,,,,,,,,,,,,,,,,,,,,,,,,,,,,,
,,,,,,,,2023-08-16_08h57.58.808,HF_wild_card,2022.2.4,Linux armv8l,59.74429442,5e692a511f156a1e4aa18f70,64d2fd46c836a06233681665,64dc7c2e1a8da31a47b5d480,,,,,,,decisionTrl,resources/DP.BMP,resources/DB.BMP,Door1,0.204401779,-0.070805664,1,0,0,2.2539,optionRight,30,14975,7,13,0,13,0,1,,,,,,,,,,,,,,,,,,,,,,,,,,,,,,,,,,,,,,,
,,,,,,,,2023-08-16_08h57.58.808,HF_wild_card,2022.2.4,Linux armv8l,59.74429442,5e692a511f156a1e4aa18f70,64d2fd46c836a06233681665,64dc7c2e1a8da31a47b5d480,,,,,,,decisionTrl,resources/DB.BMP,resources/DP.BMP,Door1,-0.12018692,-0.051301804,1,0,0,1.7205,optionLeft,30,15005,7,14,0,14,0,1,,,,,,,,,,,,,,,,,,,,,,,,,,,,,,,,,,,,,,,
,,,,,,,,2023-08-16_08h57.58.808,HF_wild_card,2022.2.4,Linux armv8l,59.74429442,5e692a511f156a1e4aa18f70,64d2fd46c836a06233681665,64dc7c2e1a8da31a47b5d480,,,,,,,ctch,resources/DR.BMP,resources/DP.BMP,Door3,-0.170421753,-0.026405602,1,0,0,0.8647,optionLeft,70,15075,7,15,0,15,0,1,,,,,,,,,,,,,,,,,,,,,,,,,,,,,,,,,,,,,,,
,,,,,,,,2023-08-16_08h57.58.808,HF_wild_card,2022.2.4,Linux armv8l,59.74429442,5e692a511f156a1e4aa18f70,64d2fd46c836a06233681665,64dc7c2e1a8da31a47b5d480,,,,,,,ctch,resources/DY.BMP,resources/DB.BMP,Door4,-0.113388138,-0.032745323,1,0,0,0.8993,optionLeft,60,15135,7,16,0,16,0,1,,,,,,,,,,,,,,,,,,,,,,,,,,,,,,,,,,,,,,,
,,,,,,,,2023-08-16_08h57.58.808,HF_wild_card,2022.2.4,Linux armv8l,59.74429442,5e692a511f156a1e4aa18f70,64d2fd46c836a06233681665,64dc7c2e1a8da31a47b5d480,,,,,,,decisionTrl,resources/DR.BMP,resources/DY.BMP,Door4,0.295370712,-0.076329956,1,0,0,1.4857,optionRight,60,15195,7,17,0,17,0,1,,,,,,,,,,,,,,,,,,,,,,,,,,,,,,,,,,,,,,,
,,,,,,,,2023-08-16_08h57.58.808,HF_wild_card,2022.2.4,Linux armv8l,59.74429442,5e692a511f156a1e4aa18f70,64d2fd46c836a06233681665,64dc7c2e1a8da31a47b5d480,,,,,,,decisionTrl,resources/DP.BMP,resources/DB.BMP,Door1,0.291272812,-0.091958847,1,0,0,1.3174,optionRight,30,15225,7,18,0,18,0,1,,,,,,,,,,,,,,,,,,,,,,,,,,,,,,,,,,,,,,,
,,,,,,,,2023-08-16_08h57.58.808,HF_wild_card,2022.2.4,Linux armv8l,59.74429442,5e692a511f156a1e4aa18f70,64d2fd46c836a06233681665,64dc7c2e1a8da31a47b5d480,,,,,,,ctch,resources/DP.BMP,resources/DR.BMP,Door3,0.27181633,-0.078773766,1,0,0,0.9829,optionRight,70,15295,7,19,0,19,0,1,,,,,,,,,,,,,,,,,,,,,,,,,,,,,,,,,,,,,,,
,,,,,,,,2023-08-16_08h57.58.808,HF_wild_card,2022.2.4,Linux armv8l,59.74429442,5e692a511f156a1e4aa18f70,64d2fd46c836a06233681665,64dc7c2e1a8da31a47b5d480,,,,,,,decisionTrl,resources/DR.BMP,resources/DY.BMP,Door3,-0.131167755,-0.030359726,1,0,0,1.0813,optionLeft,70,15365,7,20,0,20,0,1,,,,,,,,,,,,,,,,,,,,,,,,,,,,,,,,,,,,,,,
,,,,,,,,2023-08-16_08h57.58.808,HF_wild_card,2022.2.4,Linux armv8l,59.74429442,5e692a511f156a1e4aa18f70,64d2fd46c836a06233681665,64dc7c2e1a8da31a47b5d480,,,,,,,decisionTrl,resources/DP.BMP,resources/DB.BMP,Door1,0.151424866,-0.071805382,1,0,0,1.2025,optionRight,30,15395,7,21,0,21,0,1,,,,,,,,,,,,,,,,,,,,,,,,,,,,,,,,,,,,,,,
,,,,,,,,2023-08-16_08h57.58.808,HF_wild_card,2022.2.4,Linux armv8l,59.74429442,5e692a511f156a1e4aa18f70,64d2fd46c836a06233681665,64dc7c2e1a8da31a47b5d480,,,,,,,ctch,resources/DR.BMP,resources/DP.BMP,Door3,-0.340920601,-0.022143669,1,0,0,1.1976,optionLeft,70,15465,7,22,0,22,0,1,,,,,,,,,,,,,,,,,,,,,,,,,,,,,,,,,,,,,,,
,,,,,,,,2023-08-16_08h57.58.808,HF_wild_card,2022.2.4,Linux armv8l,59.74429442,5e692a511f156a1e4aa18f70,64d2fd46c836a06233681665,64dc7c2e1a8da31a47b5d480,,,,,,,ctch,resources/DB.BMP,resources/DY.BMP,Door4,0.163103638,-0.036030693,1,0,0,0.7992,optionRight,80,15545,7,23,0,23,0,1,,,,,,,,,,,,,,,,,,,,,,,,,,,,,,,,,,,,,,,
,,,,,,,,2023-08-16_08h57.58.808,HF_wild_card,2022.2.4,Linux armv8l,59.74429442,5e692a511f156a1e4aa18f70,64d2fd46c836a06233681665,64dc7c2e1a8da31a47b5d480,,,,,,,decisionTrl,resources/DP.BMP,resources/DB.BMP,Door1,0.280424118,-0.070060654,1,0,0,1.4554,optionRight,30,15575,7,24,0,24,0,1,,,,,,,,,,,,,,,,,,,,,,,,,,,,,,,,,,,,,,,
,,,,,,,,2023-08-16_08h57.58.808,HF_wild_card,2022.2.4,Linux armv8l,59.74429442,5e692a511f156a1e4aa18f70,64d2fd46c836a06233681665,64dc7c2e1a8da31a47b5d480,,,,,,,decisionTrl,resources/DB.BMP,resources/DP.BMP,Door2,0.143411484,-0.077606621,1,0,0,1.6006,optionRight,40,15615,7,25,0,25,0,1,,,,,,,,,,,,,,,,,,,,,,,,,,,,,,,,,,,,,,,
,,,,,,,,2023-08-16_08h57.58.808,HF_wild_card,2022.2.4,Linux armv8l,59.74429442,5e692a511f156a1e4aa18f70,64d2fd46c836a06233681665,64dc7c2e1a8da31a47b5d480,,,,,,,decisionTrl,resources/DY.BMP,resources/DR.BMP,Door4,-0.121891632,-0.031883507,1,0,0,1.1998,optionLeft,60,15675,7,26,0,26,0,1,,,,,,,,,,,,,,,,,,,,,,,,,,,,,,,,,,,,,,,
,,,,,,,,2023-08-16_08h57.58.808,HF_wild_card,2022.2.4,Linux armv8l,59.74429442,5e692a511f156a1e4aa18f70,64d2fd46c836a06233681665,64dc7c2e1a8da31a47b5d480,,,,,,,decisionTrl,resources/DY.BMP,resources/DR.BMP,Door3,0.169484177,-0.058747978,1,0,0,1.8215,optionRight,70,15745,7,27,0,27,0,1,,,,,,,,,,,,,,,,,,,,,,,,,,,,,,,,,,,,,,,
,,,,,,,,2023-08-16_08h57.58.808,HF_wild_card,2022.2.4,Linux armv8l,59.74429442,5e692a511f156a1e4aa18f70,64d2fd46c836a06233681665,64dc7c2e1a8da31a47b5d480,,,,,,,decisionTrl,resources/DR.BMP,resources/DY.BMP,Door4,0.116965561,-0.027946281,1,0,0,1.6014,optionRight,60,15805,7,28,0,28,0,1,,,,,,,,,,,,,,,,,,,,,,,,,,,,,,,,,,,,,,,
,,,,,,,,2023-08-16_08h57.58.808,HF_wild_card,2022.2.4,Linux armv8l,59.74429442,5e692a511f156a1e4aa18f70,64d2fd46c836a06233681665,64dc7c2e1a8da31a47b5d480,,,,,,,decisionTrl,resources/DP.BMP,resources/DB.BMP,Door2,-0.163363113,-0.03643631,1,0,0,1.2068,optionLeft,40,15845,7,29,0,29,0,1,,,,,,,,,,,,,,,,,,,,,,,,,,,,,,,,,,,,,,,
,,,,,,,,2023-08-16_08h57.58.808,HF_wild_card,2022.2.4,Linux armv8l,59.74429442,5e692a511f156a1e4aa18f70,64d2fd46c836a06233681665,64dc7c2e1a8da31a47b5d480,,,,,,,decisionTrl,resources/DB.BMP,resources/DP.BMP,Door2,0.206343918,-0.112010765,1,0,0,1.2487,optionRight,20,15865,7,30,0,30,0,1,,,,,,,,,,,,,,,,,,,,,,,,,,,,,,,,,,,,,,,
,,,,,,,,2023-08-16_08h57.58.808,HF_wild_card,2022.2.4,Linux armv8l,59.74429442,5e692a511f156a1e4aa18f70,64d2fd46c836a06233681665,64dc7c2e1a8da31a47b5d480,,,,,,,decisionTrl,resources/DP.BMP,resources/DB.BMP,Door2,-0.130591507,-0.063902817,1,0,0,0.9119,optionLeft,40,15905,7,31,0,31,0,1,,,,,,,,,,,,,,,,,,,,,,,,,,,,,,,,,,,,,,,
,,,,,,,,2023-08-16_08h57.58.808,HF_wild_card,2022.2.4,Linux armv8l,59.74429442,5e692a511f156a1e4aa18f70,64d2fd46c836a06233681665,64dc7c2e1a8da31a47b5d480,,,,,,,decisionTrl,resources/DR.BMP,resources/DY.BMP,Door3,-0.233767471,-0.090519257,1,0,0,1.652,optionLeft,70,15975,7,32,0,32,0,1,,,,,,,,,,,,,,,,,,,,,,,,,,,,,,,,,,,,,,,
,,,,,,,,2023-08-16_08h57.58.808,HF_wild_card,2022.2.4,Linux armv8l,59.74429442,5e692a511f156a1e4aa18f70,64d2fd46c836a06233681665,64dc7c2e1a8da31a47b5d480,,,,,,,ctch,resources/DB.BMP,resources/DY.BMP,Door4,0.310236816,-0.062771111,1,0,0,0.7155,optionRight,60,16035,7,33,0,33,0,1,,,,,,,,,,,,,,,,,,,,,,,,,,,,,,,,,,,,,,,
,,,,,,,,2023-08-16_08h57.58.808,HF_wild_card,2022.2.4,Linux armv8l,59.74429442,5e692a511f156a1e4aa18f70,64d2fd46c836a06233681665,64dc7c2e1a8da31a47b5d480,,,,,,,ctch,resources/DR.BMP,resources/DP.BMP,Door3,-0.132484741,-0.009626923,1,0,0,1.3164,optionLeft,70,16105,7,34,0,34,0,1,,,,,,,,,,,,,,,,,,,,,,,,,,,,,,,,,,,,,,,
,,,,,,,,2023-08-16_08h57.58.808,HF_wild_card,2022.2.4,Linux armv8l,59.74429442,5e692a511f156a1e4aa18f70,64d2fd46c836a06233681665,64dc7c2e1a8da31a47b5d480,,,,,,,decisionTrl,resources/DR.BMP,resources/DY.BMP,Door4,0.388181381,-0.084057579,1,0,0,1.3841,optionRight,80,16185,7,35,0,35,0,1,,,,,,,,,,,,,,,,,,,,,,,,,,,,,,,,,,,,,,,
