Condition,Low fixed image (Door1),Low risky image (Door2),High fixed image (Door3),High risky image (Door4),Extreme Wild Card,NonExtreme Wild Card,,date,expName,psychopyVersion,OS,frameRate,PROLIFIC_PID,STUDY_ID,SESSION_ID,mouse_2.x,mouse_2.y,mouse_2.leftButton,mouse_2.midButton,mouse_2.rightButton,mouse_2.clicked_name,Trial Type,Left Option Image,Right Option Image,Chosen Door,mouse.x,mouse.y,mouse.leftButton,mouse.midButton,mouse.rightButton,mouse.time,mouse.clicked_name,Feedback,Cumulative Reward,Block,trial.thisRepN,trial.thisTrialN,trial.thisN,trial.thisIndex,trial.ran,blocks.thisRepN,blocks.thisTrialN,blocks.thisN,blocks.thisIndex,blocks.ran,Money conversion,First Outcome Reported,Shown Door (First Outcome),Displayed Image (First Outcome),outcomes.thisRepN,outcomes.thisTrialN,outcomes.thisN,outcomes.thisIndex,outcomes.ran,judgments.thisRepN,judgments.thisTrialN,judgments.thisN,judgments.thisIndex,judgments.ran,freqMouse.x,freqMouse.y,freqMouse.leftButton,freqMouse.midButton,freqMouse.rightButton,freqMouse.clicked_name,FQJ for first outcome,FQJ for second outcome,Shown Door,Displayed Image,trials.thisRepN,trials.thisTrialN,trials.thisN,trials.thisIndex,trials.ran,judgBlock.thisRepN,judgBlock.thisTrialN,judgBlock.thisN,judgBlock.thisIndex,judgBlock.ran
0,resources/DY.BMP,resources/DBN.BMP,resources/DR.BMP,resources/DB.BMP,resources/DP.BMP,resources/DG.BMP,63cd461c5f597e27b2a054fb,2023-08-06_08h31.26.604,HF_wild_card,2022.2.4,Win32,40.10748807,63cd461c5f597e27b2a054fb,64ce5acb97489d65b14ecc7a,64cf4bde44452db73c4ecc11,,,,,,,,,,,,,,,,,,,,,,,,,,,,,,,,,,,,,,,,,,,,,,,,,,,,,,,,,,,,,,,,
,,,,,,,63cd461c5f597e27b2a054fb,2023-08-06_08h31.26.604,HF_wild_card,2022.2.4,Win32,40.10748807,63cd461c5f597e27b2a054fb,64ce5acb97489d65b14ecc7a,64cf4bde44452db73c4ecc11,-0.013020833,-0.42578125,1,0,0,agree,,,,,,,,,,,,,,,,,,,,,,,,,,,,,,,,,,,,,,,,,,,,,,,,,,,,,,,,,,
,,,,,,,63cd461c5f597e27b2a054fb,2023-08-06_08h31.26.604,HF_wild_card,2022.2.4,Win32,40.10748807,63cd461c5f597e27b2a054fb,64ce5acb97489d65b14ecc7a,64cf4bde44452db73c4ecc11,,,,,,,,,,,,,,,,,,,,,,,,,,,,,,,,,,,,,,,,,,,,,,,,,,,,,,,,,,,,,,,,
,,,,,,,63cd461c5f597e27b2a054fb,2023-08-06_08h31.26.604,HF_wild_card,2022.2.4,Win32,40.10748807,63cd461c5f597e27b2a054fb,64ce5acb97489d65b14ecc7a,64cf4bde44452db73c4ecc11,,,,,,,sngl,resources/DB.BMP,resources/Empty.png,Door4,-0.41796875,-0.01953125,1,0,0,2.8813,optionLeft,80,80,1,0,0,0,0,1,,,,,,,,,,,,,,,,,,,,,,,,,,,,,,,,,,,,,,,
,,,,,,,63cd461c5f597e27b2a054fb,2023-08-06_08h31.26.604,HF_wild_card,2022.2.4,Win32,40.10748807,63cd461c5f597e27b2a054fb,64ce5acb97489d65b14ecc7a,64cf4bde44452db73c4ecc11,,,,,,,decisionTrl,resources/DR.BMP,resources/DP.BMP,WildCard_Ex,0.37890625,-0.114583333,1,0,0,1.5354,optionRight,5,85,1,1,0,1,0,1,,,,,,,,,,,,,,,,,,,,,,,,,,,,,,,,,,,,,,,
,,,,,,,63cd461c5f597e27b2a054fb,2023-08-06_08h31.26.604,HF_wild_card,2022.2.4,Win32,40.10748807,63cd461c5f597e27b2a054fb,64ce5acb97489d65b14ecc7a,64cf4bde44452db73c4ecc11,,,,,,,decisionTrl,resources/DR.BMP,resources/DB.BMP,Door4,-0.002604167,-0.014322917,1,0,0,1.5187,optionRight,80,165,1,2,0,2,0,1,,,,,,,,,,,,,,,,,,,,,,,,,,,,,,,,,,,,,,,
,,,,,,,63cd461c5f597e27b2a054fb,2023-08-06_08h31.26.604,HF_wild_card,2022.2.4,Win32,40.10748807,63cd461c5f597e27b2a054fb,64ce5acb97489d65b14ecc7a,64cf4bde44452db73c4ecc11,,,,,,,decisionTrl,resources/DB.BMP,resources/DR.BMP,Door3,0.356770833,-0.036458333,1,0,0,1.9277,optionRight,70,235,1,3,0,3,0,1,,,,,,,,,,,,,,,,,,,,,,,,,,,,,,,,,,,,,,,
,,,,,,,63cd461c5f597e27b2a054fb,2023-08-06_08h31.26.604,HF_wild_card,2022.2.4,Win32,40.10748807,63cd461c5f597e27b2a054fb,64ce5acb97489d65b14ecc7a,64cf4bde44452db73c4ecc11,,,,,,,ctch,resources/DB.BMP,resources/DY.BMP,Door1,0.35546875,-0.059895833,1,0,0,1.7612,optionRight,30,265,1,4,0,4,0,1,,,,,,,,,,,,,,,,,,,,,,,,,,,,,,,,,,,,,,,
,,,,,,,63cd461c5f597e27b2a054fb,2023-08-06_08h31.26.604,HF_wild_card,2022.2.4,Win32,40.10748807,63cd461c5f597e27b2a054fb,64ce5acb97489d65b14ecc7a,64cf4bde44452db73c4ecc11,,,,,,,decisionTrl,resources/DB.BMP,resources/DR.BMP,Door4,-0.427083333,-0.069010417,1,0,0,2.0057,optionLeft,80,345,1,5,0,5,0,1,,,,,,,,,,,,,,,,,,,,,,,,,,,,,,,,,,,,,,,
,,,,,,,63cd461c5f597e27b2a054fb,2023-08-06_08h31.26.604,HF_wild_card,2022.2.4,Win32,40.10748807,63cd461c5f597e27b2a054fb,64ce5acb97489d65b14ecc7a,64cf4bde44452db73c4ecc11,,,,,,,sngl,resources/Empty.png,resources/DP.BMP,WildCard_Ex,0.29296875,-0.061197917,1,0,0,1.9595,optionRight,95,440,1,6,0,6,0,1,,,,,,,,,,,,,,,,,,,,,,,,,,,,,,,,,,,,,,,
,,,,,,,63cd461c5f597e27b2a054fb,2023-08-06_08h31.26.604,HF_wild_card,2022.2.4,Win32,40.10748807,63cd461c5f597e27b2a054fb,64ce5acb97489d65b14ecc7a,64cf4bde44452db73c4ecc11,,,,,,,decisionTrl,resources/DBN.BMP,resources/DY.BMP,Door2,-0.311197917,-0.020833333,1,0,0,2.5875,optionLeft,40,480,1,7,0,7,0,1,,,,,,,,,,,,,,,,,,,,,,,,,,,,,,,,,,,,,,,
,,,,,,,63cd461c5f597e27b2a054fb,2023-08-06_08h31.26.604,HF_wild_card,2022.2.4,Win32,40.10748807,63cd461c5f597e27b2a054fb,64ce5acb97489d65b14ecc7a,64cf4bde44452db73c4ecc11,,,,,,,sngl,resources/Empty.png,resources/DB.BMP,Door4,0.411458333,-0.048177083,1,0,0,1.0657,optionRight,60,540,1,8,0,8,0,1,,,,,,,,,,,,,,,,,,,,,,,,,,,,,,,,,,,,,,,
,,,,,,,63cd461c5f597e27b2a054fb,2023-08-06_08h31.26.604,HF_wild_card,2022.2.4,Win32,40.10748807,63cd461c5f597e27b2a054fb,64ce5acb97489d65b14ecc7a,64cf4bde44452db73c4ecc11,,,,,,,decisionTrl,resources/DB.BMP,resources/DR.BMP,Door4,-0.01171875,0.006510417,1,0,0,1.3423,optionLeft,80,620,1,9,0,9,0,1,,,,,,,,,,,,,,,,,,,,,,,,,,,,,,,,,,,,,,,
,,,,,,,63cd461c5f597e27b2a054fb,2023-08-06_08h31.26.604,HF_wild_card,2022.2.4,Win32,40.10748807,63cd461c5f597e27b2a054fb,64ce5acb97489d65b14ecc7a,64cf4bde44452db73c4ecc11,,,,,,,ctch,resources/DB.BMP,resources/DY.BMP,Door4,-0.404947917,-0.04296875,1,0,0,1.9642,optionLeft,80,700,1,10,0,10,0,1,,,,,,,,,,,,,,,,,,,,,,,,,,,,,,,,,,,,,,,
,,,,,,,63cd461c5f597e27b2a054fb,2023-08-06_08h31.26.604,HF_wild_card,2022.2.4,Win32,40.10748807,63cd461c5f597e27b2a054fb,64ce5acb97489d65b14ecc7a,64cf4bde44452db73c4ecc11,,,,,,,decisionTrl,resources/DBN.BMP,resources/DY.BMP,Door2,-0.393229167,0.0234375,1,0,0,1.3878,optionLeft,40,740,1,11,0,11,0,1,,,,,,,,,,,,,,,,,,,,,,,,,,,,,,,,,,,,,,,
,,,,,,,63cd461c5f597e27b2a054fb,2023-08-06_08h31.26.604,HF_wild_card,2022.2.4,Win32,40.10748807,63cd461c5f597e27b2a054fb,64ce5acb97489d65b14ecc7a,64cf4bde44452db73c4ecc11,,,,,,,decisionTrl,resources/DB.BMP,resources/DR.BMP,Door4,-0.403645833,-0.03125,1,0,0,1.7106,optionLeft,80,820,1,12,0,12,0,1,,,,,,,,,,,,,,,,,,,,,,,,,,,,,,,,,,,,,,,
,,,,,,,63cd461c5f597e27b2a054fb,2023-08-06_08h31.26.604,HF_wild_card,2022.2.4,Win32,40.10748807,63cd461c5f597e27b2a054fb,64ce5acb97489d65b14ecc7a,64cf4bde44452db73c4ecc11,,,,,,,decisionTrl,resources/DBN.BMP,resources/DP.BMP,WildCard_Ex,0.404947917,-0.0703125,1,0,0,2.1871,optionRight,95,915,1,13,0,13,0,1,,,,,,,,,,,,,,,,,,,,,,,,,,,,,,,,,,,,,,,
,,,,,,,63cd461c5f597e27b2a054fb,2023-08-06_08h31.26.604,HF_wild_card,2022.2.4,Win32,40.10748807,63cd461c5f597e27b2a054fb,64ce5acb97489d65b14ecc7a,64cf4bde44452db73c4ecc11,,,,,,,decisionTrl,resources/DY.BMP,resources/DBN.BMP,Door1,-0.377604167,-0.05078125,1,0,0,2.8836,optionLeft,30,945,1,14,0,14,0,1,,,,,,,,,,,,,,,,,,,,,,,,,,,,,,,,,,,,,,,
,,,,,,,63cd461c5f597e27b2a054fb,2023-08-06_08h31.26.604,HF_wild_card,2022.2.4,Win32,40.10748807,63cd461c5f597e27b2a054fb,64ce5acb97489d65b14ecc7a,64cf4bde44452db73c4ecc11,,,,,,,ctch,resources/DR.BMP,resources/DBN.BMP,Door2,0.3359375,0.0078125,1,0,0,3.8129,optionRight,20,965,1,15,0,15,0,1,,,,,,,,,,,,,,,,,,,,,,,,,,,,,,,,,,,,,,,
,,,,,,,63cd461c5f597e27b2a054fb,2023-08-06_08h31.26.604,HF_wild_card,2022.2.4,Win32,40.10748807,63cd461c5f597e27b2a054fb,64ce5acb97489d65b14ecc7a,64cf4bde44452db73c4ecc11,,,,,,,decisionTrl,resources/DR.BMP,resources/DB.BMP,Door4,0.384114583,-0.04296875,1,0,0,2.0161,optionRight,60,1025,1,16,0,16,0,1,,,,,,,,,,,,,,,,,,,,,,,,,,,,,,,,,,,,,,,
,,,,,,,63cd461c5f597e27b2a054fb,2023-08-06_08h31.26.604,HF_wild_card,2022.2.4,Win32,40.10748807,63cd461c5f597e27b2a054fb,64ce5acb97489d65b14ecc7a,64cf4bde44452db73c4ecc11,,,,,,,decisionTrl,resources/DP.BMP,resources/DBN.BMP,WildCard_Ex,-0.391927083,-0.0625,1,0,0,2.1658,optionLeft,5,1030,1,17,0,17,0,1,,,,,,,,,,,,,,,,,,,,,,,,,,,,,,,,,,,,,,,
,,,,,,,63cd461c5f597e27b2a054fb,2023-08-06_08h31.26.604,HF_wild_card,2022.2.4,Win32,40.10748807,63cd461c5f597e27b2a054fb,64ce5acb97489d65b14ecc7a,64cf4bde44452db73c4ecc11,,,,,,,decisionTrl,resources/DR.BMP,resources/DB.BMP,Door4,0.399739583,-0.026041667,1,0,0,2.4616,optionRight,80,1110,1,18,0,18,0,1,,,,,,,,,,,,,,,,,,,,,,,,,,,,,,,,,,,,,,,
,,,,,,,63cd461c5f597e27b2a054fb,2023-08-06_08h31.26.604,HF_wild_card,2022.2.4,Win32,40.10748807,63cd461c5f597e27b2a054fb,64ce5acb97489d65b14ecc7a,64cf4bde44452db73c4ecc11,,,,,,,ctch,resources/DY.BMP,resources/DB.BMP,Door4,0.37890625,-0.022135417,1,0,0,1.6369,optionRight,60,1170,1,19,0,19,0,1,,,,,,,,,,,,,,,,,,,,,,,,,,,,,,,,,,,,,,,
,,,,,,,63cd461c5f597e27b2a054fb,2023-08-06_08h31.26.604,HF_wild_card,2022.2.4,Win32,40.10748807,63cd461c5f597e27b2a054fb,64ce5acb97489d65b14ecc7a,64cf4bde44452db73c4ecc11,,,,,,,sngl,resources/DP.BMP,resources/Empty.png,WildCard_Ex,-0.37890625,-0.071614583,1,0,0,1.2387,optionLeft,5,1175,1,20,0,20,0,1,,,,,,,,,,,,,,,,,,,,,,,,,,,,,,,,,,,,,,,
,,,,,,,63cd461c5f597e27b2a054fb,2023-08-06_08h31.26.604,HF_wild_card,2022.2.4,Win32,40.10748807,63cd461c5f597e27b2a054fb,64ce5acb97489d65b14ecc7a,64cf4bde44452db73c4ecc11,,,,,,,decisionTrl,resources/DP.BMP,resources/DB.BMP,Door4,0.34765625,-0.026041667,1,0,0,1.6191,optionRight,80,1255,1,21,0,21,0,1,,,,,,,,,,,,,,,,,,,,,,,,,,,,,,,,,,,,,,,
,,,,,,,63cd461c5f597e27b2a054fb,2023-08-06_08h31.26.604,HF_wild_card,2022.2.4,Win32,40.10748807,63cd461c5f597e27b2a054fb,64ce5acb97489d65b14ecc7a,64cf4bde44452db73c4ecc11,,,,,,,decisionTrl,resources/DY.BMP,resources/DBN.BMP,Door1,-0.397135417,-0.05078125,1,0,0,2.4912,optionLeft,30,1285,1,22,0,22,0,1,,,,,,,,,,,,,,,,,,,,,,,,,,,,,,,,,,,,,,,
,,,,,,,63cd461c5f597e27b2a054fb,2023-08-06_08h31.26.604,HF_wild_card,2022.2.4,Win32,40.10748807,63cd461c5f597e27b2a054fb,64ce5acb97489d65b14ecc7a,64cf4bde44452db73c4ecc11,,,,,,,decisionTrl,resources/DY.BMP,resources/DP.BMP,Door1,-0.395833333,-0.0546875,1,0,0,2.6142,optionLeft,30,1315,1,23,0,23,0,1,,,,,,,,,,,,,,,,,,,,,,,,,,,,,,,,,,,,,,,
,,,,,,,63cd461c5f597e27b2a054fb,2023-08-06_08h31.26.604,HF_wild_card,2022.2.4,Win32,40.10748807,63cd461c5f597e27b2a054fb,64ce5acb97489d65b14ecc7a,64cf4bde44452db73c4ecc11,,,,,,,decisionTrl,resources/DB.BMP,resources/DP.BMP,Door4,-0.393229167,-0.045572917,1,0,0,2.0463,optionLeft,80,1395,1,24,0,24,0,1,,,,,,,,,,,,,,,,,,,,,,,,,,,,,,,,,,,,,,,
,,,,,,,63cd461c5f597e27b2a054fb,2023-08-06_08h31.26.604,HF_wild_card,2022.2.4,Win32,40.10748807,63cd461c5f597e27b2a054fb,64ce5acb97489d65b14ecc7a,64cf4bde44452db73c4ecc11,,,,,,,decisionTrl,resources/DP.BMP,resources/DR.BMP,Door3,0.416666667,-0.02734375,1,0,0,1.7116,optionRight,70,1465,1,25,0,25,0,1,,,,,,,,,,,,,,,,,,,,,,,,,,,,,,,,,,,,,,,
,,,,,,,63cd461c5f597e27b2a054fb,2023-08-06_08h31.26.604,HF_wild_card,2022.2.4,Win32,40.10748807,63cd461c5f597e27b2a054fb,64ce5acb97489d65b14ecc7a,64cf4bde44452db73c4ecc11,,,,,,,decisionTrl,resources/DP.BMP,resources/DY.BMP,Door1,0.364583333,-0.044270833,1,0,0,2.3114,optionRight,30,1495,1,26,0,26,0,1,,,,,,,,,,,,,,,,,,,,,,,,,,,,,,,,,,,,,,,
,,,,,,,63cd461c5f597e27b2a054fb,2023-08-06_08h31.26.604,HF_wild_card,2022.2.4,Win32,40.10748807,63cd461c5f597e27b2a054fb,64ce5acb97489d65b14ecc7a,64cf4bde44452db73c4ecc11,,,,,,,ctch,resources/DBN.BMP,resources/DR.BMP,Door3,0.33203125,-0.046875,1,0,0,1.5866,optionRight,70,1565,1,27,0,27,0,1,,,,,,,,,,,,,,,,,,,,,,,,,,,,,,,,,,,,,,,
,,,,,,,63cd461c5f597e27b2a054fb,2023-08-06_08h31.26.604,HF_wild_card,2022.2.4,Win32,40.10748807,63cd461c5f597e27b2a054fb,64ce5acb97489d65b14ecc7a,64cf4bde44452db73c4ecc11,,,,,,,sngl,resources/Empty.png,resources/DY.BMP,Door1,0.3828125,-0.046875,1,0,0,2.1156,optionRight,30,1595,1,28,0,28,0,1,,,,,,,,,,,,,,,,,,,,,,,,,,,,,,,,,,,,,,,
,,,,,,,63cd461c5f597e27b2a054fb,2023-08-06_08h31.26.604,HF_wild_card,2022.2.4,Win32,40.10748807,63cd461c5f597e27b2a054fb,64ce5acb97489d65b14ecc7a,64cf4bde44452db73c4ecc11,,,,,,,sngl,resources/DR.BMP,resources/Empty.png,Door3,-0.412760417,-0.032552083,1,0,0,1.2872,optionLeft,70,1665,1,29,0,29,0,1,,,,,,,,,,,,,,,,,,,,,,,,,,,,,,,,,,,,,,,
,,,,,,,63cd461c5f597e27b2a054fb,2023-08-06_08h31.26.604,HF_wild_card,2022.2.4,Win32,40.10748807,63cd461c5f597e27b2a054fb,64ce5acb97489d65b14ecc7a,64cf4bde44452db73c4ecc11,,,,,,,sngl,resources/Empty.png,resources/DP.BMP,WildCard_Ex,0.389322917,-0.071614583,1,0,0,1.3242,optionRight,5,1670,1,30,0,30,0,1,,,,,,,,,,,,,,,,,,,,,,,,,,,,,,,,,,,,,,,
,,,,,,,63cd461c5f597e27b2a054fb,2023-08-06_08h31.26.604,HF_wild_card,2022.2.4,Win32,40.10748807,63cd461c5f597e27b2a054fb,64ce5acb97489d65b14ecc7a,64cf4bde44452db73c4ecc11,,,,,,,ctch,resources/DY.BMP,resources/DB.BMP,Door4,0.369791667,-0.014322917,1,0,0,2.7098,optionRight,60,1730,1,31,0,31,0,1,,,,,,,,,,,,,,,,,,,,,,,,,,,,,,,,,,,,,,,
,,,,,,,63cd461c5f597e27b2a054fb,2023-08-06_08h31.26.604,HF_wild_card,2022.2.4,Win32,40.10748807,63cd461c5f597e27b2a054fb,64ce5acb97489d65b14ecc7a,64cf4bde44452db73c4ecc11,,,,,,,sngl,resources/DP.BMP,resources/Empty.png,WildCard_Ex,-0.369791667,-0.037760417,1,0,0,1.2385,optionLeft,95,1825,1,32,0,32,0,1,,,,,,,,,,,,,,,,,,,,,,,,,,,,,,,,,,,,,,,
,,,,,,,63cd461c5f597e27b2a054fb,2023-08-06_08h31.26.604,HF_wild_card,2022.2.4,Win32,40.10748807,63cd461c5f597e27b2a054fb,64ce5acb97489d65b14ecc7a,64cf4bde44452db73c4ecc11,,,,,,,ctch,resources/DBN.BMP,resources/DR.BMP,Door3,0.430989583,-0.029947917,1,0,0,1.8059,optionRight,70,1895,1,33,0,33,0,1,,,,,,,,,,,,,,,,,,,,,,,,,,,,,,,,,,,,,,,
,,,,,,,63cd461c5f597e27b2a054fb,2023-08-06_08h31.26.604,HF_wild_card,2022.2.4,Win32,40.10748807,63cd461c5f597e27b2a054fb,64ce5acb97489d65b14ecc7a,64cf4bde44452db73c4ecc11,,,,,,,ctch,resources/DR.BMP,resources/DBN.BMP,Door3,-0.420572917,-0.0546875,1,0,0,1.2846,optionLeft,70,1965,1,34,0,34,0,1,,,,,,,,,,,,,,,,,,,,,,,,,,,,,,,,,,,,,,,
,,,,,,,63cd461c5f597e27b2a054fb,2023-08-06_08h31.26.604,HF_wild_card,2022.2.4,Win32,40.10748807,63cd461c5f597e27b2a054fb,64ce5acb97489d65b14ecc7a,64cf4bde44452db73c4ecc11,,,,,,,decisionTrl,resources/DBN.BMP,resources/DY.BMP,Door1,0.40625,-0.045572917,1,0,0,2.7098,optionRight,30,1995,1,35,0,35,0,1,,,,,,,,,,,,,,,,,,,,,,,,,,,,,,,,,,,,,,,
,,,,,,,63cd461c5f597e27b2a054fb,2023-08-06_08h31.26.604,HF_wild_card,2022.2.4,Win32,40.10748807,63cd461c5f597e27b2a054fb,64ce5acb97489d65b14ecc7a,64cf4bde44452db73c4ecc11,,,,,,,sngl,resources/Empty.png,resources/DBN.BMP,Door2,0.337239583,0.010416667,1,0,0,1.2632,optionRight,20,2015,1,36,0,36,0,1,,,,,,,,,,,,,,,,,,,,,,,,,,,,,,,,,,,,,,,
,,,,,,,63cd461c5f597e27b2a054fb,2023-08-06_08h31.26.604,HF_wild_card,2022.2.4,Win32,40.10748807,63cd461c5f597e27b2a054fb,64ce5acb97489d65b14ecc7a,64cf4bde44452db73c4ecc11,,,,,,,sngl,resources/DY.BMP,resources/Empty.png,Door1,-0.384114583,-0.037760417,1,0,0,1.1977,optionLeft,30,2045,1,37,0,37,0,1,,,,,,,,,,,,,,,,,,,,,,,,,,,,,,,,,,,,,,,
,,,,,,,63cd461c5f597e27b2a054fb,2023-08-06_08h31.26.604,HF_wild_card,2022.2.4,Win32,40.10748807,63cd461c5f597e27b2a054fb,64ce5acb97489d65b14ecc7a,64cf4bde44452db73c4ecc11,,,,,,,sngl,resources/DBN.BMP,resources/Empty.png,Door2,-0.404947917,0,1,0,0,1.2394,optionLeft,40,2085,1,38,0,38,0,1,,,,,,,,,,,,,,,,,,,,,,,,,,,,,,,,,,,,,,,
,,,,,,,63cd461c5f597e27b2a054fb,2023-08-06_08h31.26.604,HF_wild_card,2022.2.4,Win32,40.10748807,63cd461c5f597e27b2a054fb,64ce5acb97489d65b14ecc7a,64cf4bde44452db73c4ecc11,,,,,,,decisionTrl,resources/DR.BMP,resources/DB.BMP,Door4,0.33203125,-0.032552083,1,0,0,2.3834,optionRight,60,2145,1,39,0,39,0,1,,,,,,,,,,,,,,,,,,,,,,,,,,,,,,,,,,,,,,,
,,,,,,,63cd461c5f597e27b2a054fb,2023-08-06_08h31.26.604,HF_wild_card,2022.2.4,Win32,40.10748807,63cd461c5f597e27b2a054fb,64ce5acb97489d65b14ecc7a,64cf4bde44452db73c4ecc11,,,,,,,decisionTrl,resources/DBN.BMP,resources/DY.BMP,Door1,0.350260417,-0.049479167,1,0,0,2.911,optionRight,30,2175,1,40,0,40,0,1,,,,,,,,,,,,,,,,,,,,,,,,,,,,,,,,,,,,,,,
,,,,,,,63cd461c5f597e27b2a054fb,2023-08-06_08h31.26.604,HF_wild_card,2022.2.4,Win32,40.10748807,63cd461c5f597e27b2a054fb,64ce5acb97489d65b14ecc7a,64cf4bde44452db73c4ecc11,,,,,,,decisionTrl,resources/DY.BMP,resources/DBN.BMP,Door2,0.322916667,-0.005208333,1,0,0,2.434,optionRight,40,2215,1,41,0,41,0,1,,,,,,,,,,,,,,,,,,,,,,,,,,,,,,,,,,,,,,,
,,,,,,,63cd461c5f597e27b2a054fb,2023-08-06_08h31.26.604,HF_wild_card,2022.2.4,Win32,40.10748807,63cd461c5f597e27b2a054fb,64ce5acb97489d65b14ecc7a,64cf4bde44452db73c4ecc11,,,,,,,sngl,resources/Empty.png,resources/DR.BMP,Door3,0.291666667,-0.04296875,1,0,0,1.1648,optionRight,70,2285,1,42,0,42,0,1,,,,,,,,,,,,,,,,,,,,,,,,,,,,,,,,,,,,,,,
,,,,,,,63cd461c5f597e27b2a054fb,2023-08-06_08h31.26.604,HF_wild_card,2022.2.4,Win32,40.10748807,63cd461c5f597e27b2a054fb,64ce5acb97489d65b14ecc7a,64cf4bde44452db73c4ecc11,,,,,,,decisionTrl,resources/DY.BMP,resources/DBN.BMP,Door1,-0.37890625,-0.033854167,1,0,0,1.7165,optionLeft,30,2315,1,43,0,43,0,1,,,,,,,,,,,,,,,,,,,,,,,,,,,,,,,,,,,,,,,
,,,,,,,63cd461c5f597e27b2a054fb,2023-08-06_08h31.26.604,HF_wild_card,2022.2.4,Win32,40.10748807,63cd461c5f597e27b2a054fb,64ce5acb97489d65b14ecc7a,64cf4bde44452db73c4ecc11,,,,,,,,,,,,,,,,,,,,,,,,,,0,0,0,0,1,,,,,,,,,,,,,,,,,,,,,,,,,,,,,,,,,,
,,,,,,,63cd461c5f597e27b2a054fb,2023-08-06_08h31.26.604,HF_wild_card,2022.2.4,Win32,40.10748807,63cd461c5f597e27b2a054fb,64ce5acb97489d65b14ecc7a,64cf4bde44452db73c4ecc11,,,,,,,ctch,resources/DB.BMP,resources/DY.BMP,Door4,-0.397135417,-0.03515625,1,0,0,2.3278,optionLeft,80,2395,2,0,0,0,0,1,,,,,,,,,,,,,,,,,,,,,,,,,,,,,,,,,,,,,,,
,,,,,,,63cd461c5f597e27b2a054fb,2023-08-06_08h31.26.604,HF_wild_card,2022.2.4,Win32,40.10748807,63cd461c5f597e27b2a054fb,64ce5acb97489d65b14ecc7a,64cf4bde44452db73c4ecc11,,,,,,,sngl,resources/DB.BMP,resources/Empty.png,Door4,-0.40625,-0.037760417,1,0,0,1.2664,optionLeft,60,2455,2,1,0,1,0,1,,,,,,,,,,,,,,,,,,,,,,,,,,,,,,,,,,,,,,,
,,,,,,,63cd461c5f597e27b2a054fb,2023-08-06_08h31.26.604,HF_wild_card,2022.2.4,Win32,40.10748807,63cd461c5f597e27b2a054fb,64ce5acb97489d65b14ecc7a,64cf4bde44452db73c4ecc11,,,,,,,decisionTrl,resources/DBN.BMP,resources/DY.BMP,Door1,0.401041667,-0.06640625,1,0,0,1.3913,optionRight,30,2485,2,2,0,2,0,1,,,,,,,,,,,,,,,,,,,,,,,,,,,,,,,,,,,,,,,
,,,,,,,63cd461c5f597e27b2a054fb,2023-08-06_08h31.26.604,HF_wild_card,2022.2.4,Win32,40.10748807,63cd461c5f597e27b2a054fb,64ce5acb97489d65b14ecc7a,64cf4bde44452db73c4ecc11,,,,,,,decisionTrl,resources/DP.BMP,resources/DB.BMP,Door4,0.3359375,-0.0546875,1,0,0,2.1884,optionRight,80,2565,2,3,0,3,0,1,,,,,,,,,,,,,,,,,,,,,,,,,,,,,,,,,,,,,,,
,,,,,,,63cd461c5f597e27b2a054fb,2023-08-06_08h31.26.604,HF_wild_card,2022.2.4,Win32,40.10748807,63cd461c5f597e27b2a054fb,64ce5acb97489d65b14ecc7a,64cf4bde44452db73c4ecc11,,,,,,,sngl,resources/Empty.png,resources/DR.BMP,Door3,0.34375,-0.049479167,1,0,0,1.3117,optionRight,70,2635,2,4,0,4,0,1,,,,,,,,,,,,,,,,,,,,,,,,,,,,,,,,,,,,,,,
,,,,,,,63cd461c5f597e27b2a054fb,2023-08-06_08h31.26.604,HF_wild_card,2022.2.4,Win32,40.10748807,63cd461c5f597e27b2a054fb,64ce5acb97489d65b14ecc7a,64cf4bde44452db73c4ecc11,,,,,,,decisionTrl,resources/DR.BMP,resources/DB.BMP,Door3,-0.421875,-0.045572917,1,0,0,1.1632,optionLeft,70,2705,2,5,0,5,0,1,,,,,,,,,,,,,,,,,,,,,,,,,,,,,,,,,,,,,,,
,,,,,,,63cd461c5f597e27b2a054fb,2023-08-06_08h31.26.604,HF_wild_card,2022.2.4,Win32,40.10748807,63cd461c5f597e27b2a054fb,64ce5acb97489d65b14ecc7a,64cf4bde44452db73c4ecc11,,,,,,,decisionTrl,resources/DB.BMP,resources/DR.BMP,Door4,-0.358072917,-0.029947917,1,0,0,2.0652,optionLeft,80,2785,2,6,0,6,0,1,,,,,,,,,,,,,,,,,,,,,,,,,,,,,,,,,,,,,,,
,,,,,,,63cd461c5f597e27b2a054fb,2023-08-06_08h31.26.604,HF_wild_card,2022.2.4,Win32,40.10748807,63cd461c5f597e27b2a054fb,64ce5acb97489d65b14ecc7a,64cf4bde44452db73c4ecc11,,,,,,,decisionTrl,resources/DP.BMP,resources/DR.BMP,Door3,0.3828125,-0.052083333,1,0,0,1.4111,optionRight,70,2855,2,7,0,7,0,1,,,,,,,,,,,,,,,,,,,,,,,,,,,,,,,,,,,,,,,
,,,,,,,63cd461c5f597e27b2a054fb,2023-08-06_08h31.26.604,HF_wild_card,2022.2.4,Win32,40.10748807,63cd461c5f597e27b2a054fb,64ce5acb97489d65b14ecc7a,64cf4bde44452db73c4ecc11,,,,,,,decisionTrl,resources/DY.BMP,resources/DBN.BMP,Door1,-0.369791667,-0.037760417,1,0,0,1.5637,optionLeft,30,2885,2,8,0,8,0,1,,,,,,,,,,,,,,,,,,,,,,,,,,,,,,,,,,,,,,,
,,,,,,,63cd461c5f597e27b2a054fb,2023-08-06_08h31.26.604,HF_wild_card,2022.2.4,Win32,40.10748807,63cd461c5f597e27b2a054fb,64ce5acb97489d65b14ecc7a,64cf4bde44452db73c4ecc11,,,,,,,decisionTrl,resources/DY.BMP,resources/DBN.BMP,Door2,0.380208333,-0.022135417,1,0,0,1.3153,optionRight,40,2925,2,9,0,9,0,1,,,,,,,,,,,,,,,,,,,,,,,,,,,,,,,,,,,,,,,
,,,,,,,63cd461c5f597e27b2a054fb,2023-08-06_08h31.26.604,HF_wild_card,2022.2.4,Win32,40.10748807,63cd461c5f597e27b2a054fb,64ce5acb97489d65b14ecc7a,64cf4bde44452db73c4ecc11,,,,,,,sngl,resources/DY.BMP,resources/Empty.png,Door1,-0.3359375,-0.029947917,1,0,0,1.1913,optionLeft,30,2955,2,10,0,10,0,1,,,,,,,,,,,,,,,,,,,,,,,,,,,,,,,,,,,,,,,
,,,,,,,63cd461c5f597e27b2a054fb,2023-08-06_08h31.26.604,HF_wild_card,2022.2.4,Win32,40.10748807,63cd461c5f597e27b2a054fb,64ce5acb97489d65b14ecc7a,64cf4bde44452db73c4ecc11,,,,,,,decisionTrl,resources/DR.BMP,resources/DB.BMP,Door4,0.401041667,-0.033854167,1,0,0,1.6933,optionRight,60,3015,2,11,0,11,0,1,,,,,,,,,,,,,,,,,,,,,,,,,,,,,,,,,,,,,,,
,,,,,,,63cd461c5f597e27b2a054fb,2023-08-06_08h31.26.604,HF_wild_card,2022.2.4,Win32,40.10748807,63cd461c5f597e27b2a054fb,64ce5acb97489d65b14ecc7a,64cf4bde44452db73c4ecc11,,,,,,,decisionTrl,resources/DP.BMP,resources/DBN.BMP,Door2,0.364583333,-0.010416667,1,0,0,3.2628,optionRight,20,3035,2,12,0,12,0,1,,,,,,,,,,,,,,,,,,,,,,,,,,,,,,,,,,,,,,,
,,,,,,,63cd461c5f597e27b2a054fb,2023-08-06_08h31.26.604,HF_wild_card,2022.2.4,Win32,40.10748807,63cd461c5f597e27b2a054fb,64ce5acb97489d65b14ecc7a,64cf4bde44452db73c4ecc11,,,,,,,sngl,resources/Empty.png,resources/DP.BMP,WildCard_Ex,0.348958333,-0.05859375,1,0,0,1.2133,optionRight,95,3130,2,13,0,13,0,1,,,,,,,,,,,,,,,,,,,,,,,,,,,,,,,,,,,,,,,
,,,,,,,63cd461c5f597e27b2a054fb,2023-08-06_08h31.26.604,HF_wild_card,2022.2.4,Win32,40.10748807,63cd461c5f597e27b2a054fb,64ce5acb97489d65b14ecc7a,64cf4bde44452db73c4ecc11,,,,,,,sngl,resources/Empty.png,resources/DY.BMP,Door1,0.334635417,-0.03515625,1,0,0,1.3381,optionRight,30,3160,2,14,0,14,0,1,,,,,,,,,,,,,,,,,,,,,,,,,,,,,,,,,,,,,,,
,,,,,,,63cd461c5f597e27b2a054fb,2023-08-06_08h31.26.604,HF_wild_card,2022.2.4,Win32,40.10748807,63cd461c5f597e27b2a054fb,64ce5acb97489d65b14ecc7a,64cf4bde44452db73c4ecc11,,,,,,,sngl,resources/Empty.png,resources/DBN.BMP,Door2,0.33203125,-0.009114583,1,0,0,1.2151,optionRight,40,3200,2,15,0,15,0,1,,,,,,,,,,,,,,,,,,,,,,,,,,,,,,,,,,,,,,,
,,,,,,,63cd461c5f597e27b2a054fb,2023-08-06_08h31.26.604,HF_wild_card,2022.2.4,Win32,40.10748807,63cd461c5f597e27b2a054fb,64ce5acb97489d65b14ecc7a,64cf4bde44452db73c4ecc11,,,,,,,ctch,resources/DY.BMP,resources/DB.BMP,Door4,0.376302083,-0.009114583,1,0,0,1.7906,optionRight,80,3280,2,16,0,16,0,1,,,,,,,,,,,,,,,,,,,,,,,,,,,,,,,,,,,,,,,
,,,,,,,63cd461c5f597e27b2a054fb,2023-08-06_08h31.26.604,HF_wild_card,2022.2.4,Win32,40.10748807,63cd461c5f597e27b2a054fb,64ce5acb97489d65b14ecc7a,64cf4bde44452db73c4ecc11,,,,,,,decisionTrl,resources/DY.BMP,resources/DP.BMP,WildCard_Ex,0.404947917,-0.061197917,1,0,0,2.366,optionRight,5,3285,2,17,0,17,0,1,,,,,,,,,,,,,,,,,,,,,,,,,,,,,,,,,,,,,,,
,,,,,,,63cd461c5f597e27b2a054fb,2023-08-06_08h31.26.604,HF_wild_card,2022.2.4,Win32,40.10748807,63cd461c5f597e27b2a054fb,64ce5acb97489d65b14ecc7a,64cf4bde44452db73c4ecc11,,,,,,,sngl,resources/DBN.BMP,resources/Empty.png,Door2,-0.34375,-0.002604167,1,0,0,1.016,optionLeft,20,3305,2,18,0,18,0,1,,,,,,,,,,,,,,,,,,,,,,,,,,,,,,,,,,,,,,,
,,,,,,,63cd461c5f597e27b2a054fb,2023-08-06_08h31.26.604,HF_wild_card,2022.2.4,Win32,40.10748807,63cd461c5f597e27b2a054fb,64ce5acb97489d65b14ecc7a,64cf4bde44452db73c4ecc11,,,,,,,sngl,resources/Empty.png,resources/DB.BMP,Door4,0.338541667,-0.026041667,1,0,0,1.1883,optionRight,80,3385,2,19,0,19,0,1,,,,,,,,,,,,,,,,,,,,,,,,,,,,,,,,,,,,,,,
,,,,,,,63cd461c5f597e27b2a054fb,2023-08-06_08h31.26.604,HF_wild_card,2022.2.4,Win32,40.10748807,63cd461c5f597e27b2a054fb,64ce5acb97489d65b14ecc7a,64cf4bde44452db73c4ecc11,,,,,,,sngl,resources/Empty.png,resources/DP.BMP,WildCard_Ex,0.373697917,-0.048177083,1,0,0,1.0906,optionRight,5,3390,2,20,0,20,0,1,,,,,,,,,,,,,,,,,,,,,,,,,,,,,,,,,,,,,,,
,,,,,,,63cd461c5f597e27b2a054fb,2023-08-06_08h31.26.604,HF_wild_card,2022.2.4,Win32,40.10748807,63cd461c5f597e27b2a054fb,64ce5acb97489d65b14ecc7a,64cf4bde44452db73c4ecc11,,,,,,,decisionTrl,resources/DB.BMP,resources/DP.BMP,Door4,-0.380208333,-0.041666667,1,0,0,1.267,optionLeft,60,3450,2,21,0,21,0,1,,,,,,,,,,,,,,,,,,,,,,,,,,,,,,,,,,,,,,,
,,,,,,,63cd461c5f597e27b2a054fb,2023-08-06_08h31.26.604,HF_wild_card,2022.2.4,Win32,40.10748807,63cd461c5f597e27b2a054fb,64ce5acb97489d65b14ecc7a,64cf4bde44452db73c4ecc11,,,,,,,decisionTrl,resources/DBN.BMP,resources/DY.BMP,Door1,0.36328125,-0.04296875,1,0,0,2.1152,optionRight,30,3480,2,22,0,22,0,1,,,,,,,,,,,,,,,,,,,,,,,,,,,,,,,,,,,,,,,
,,,,,,,63cd461c5f597e27b2a054fb,2023-08-06_08h31.26.604,HF_wild_card,2022.2.4,Win32,40.10748807,63cd461c5f597e27b2a054fb,64ce5acb97489d65b14ecc7a,64cf4bde44452db73c4ecc11,,,,,,,sngl,resources/DP.BMP,resources/Empty.png,WildCard_Ex,-0.388020833,-0.067708333,1,0,0,1.1685,optionLeft,5,3485,2,23,0,23,0,1,,,,,,,,,,,,,,,,,,,,,,,,,,,,,,,,,,,,,,,
,,,,,,,63cd461c5f597e27b2a054fb,2023-08-06_08h31.26.604,HF_wild_card,2022.2.4,Win32,40.10748807,63cd461c5f597e27b2a054fb,64ce5acb97489d65b14ecc7a,64cf4bde44452db73c4ecc11,,,,,,,sngl,resources/DR.BMP,resources/Empty.png,Door3,-0.368489583,-0.052083333,1,0,0,1.4162,optionLeft,70,3555,2,24,0,24,0,1,,,,,,,,,,,,,,,,,,,,,,,,,,,,,,,,,,,,,,,
,,,,,,,63cd461c5f597e27b2a054fb,2023-08-06_08h31.26.604,HF_wild_card,2022.2.4,Win32,40.10748807,63cd461c5f597e27b2a054fb,64ce5acb97489d65b14ecc7a,64cf4bde44452db73c4ecc11,,,,,,,ctch,resources/DY.BMP,resources/DB.BMP,Door4,0.376302083,-0.040364583,1,0,0,1.5422,optionRight,80,3635,2,25,0,25,0,1,,,,,,,,,,,,,,,,,,,,,,,,,,,,,,,,,,,,,,,
,,,,,,,63cd461c5f597e27b2a054fb,2023-08-06_08h31.26.604,HF_wild_card,2022.2.4,Win32,40.10748807,63cd461c5f597e27b2a054fb,64ce5acb97489d65b14ecc7a,64cf4bde44452db73c4ecc11,,,,,,,ctch,resources/DR.BMP,resources/DBN.BMP,Door3,-0.384114583,-0.028645833,1,0,0,1.3669,optionLeft,70,3705,2,26,0,26,0,1,,,,,,,,,,,,,,,,,,,,,,,,,,,,,,,,,,,,,,,
,,,,,,,63cd461c5f597e27b2a054fb,2023-08-06_08h31.26.604,HF_wild_card,2022.2.4,Win32,40.10748807,63cd461c5f597e27b2a054fb,64ce5acb97489d65b14ecc7a,64cf4bde44452db73c4ecc11,,,,,,,decisionTrl,resources/DBN.BMP,resources/DY.BMP,Door1,0.404947917,-0.041666667,1,0,0,1.3893,optionRight,30,3735,2,27,0,27,0,1,,,,,,,,,,,,,,,,,,,,,,,,,,,,,,,,,,,,,,,
,,,,,,,63cd461c5f597e27b2a054fb,2023-08-06_08h31.26.604,HF_wild_card,2022.2.4,Win32,40.10748807,63cd461c5f597e27b2a054fb,64ce5acb97489d65b14ecc7a,64cf4bde44452db73c4ecc11,,,,,,,decisionTrl,resources/DB.BMP,resources/DR.BMP,Door4,-0.3671875,-0.015625,1,0,0,1.59,optionLeft,60,3795,2,28,0,28,0,1,,,,,,,,,,,,,,,,,,,,,,,,,,,,,,,,,,,,,,,
,,,,,,,63cd461c5f597e27b2a054fb,2023-08-06_08h31.26.604,HF_wild_card,2022.2.4,Win32,40.10748807,63cd461c5f597e27b2a054fb,64ce5acb97489d65b14ecc7a,64cf4bde44452db73c4ecc11,,,,,,,decisionTrl,resources/DR.BMP,resources/DB.BMP,Door4,0.337239583,-0.041666667,1,0,0,1.8876,optionRight,60,3855,2,29,0,29,0,1,,,,,,,,,,,,,,,,,,,,,,,,,,,,,,,,,,,,,,,
,,,,,,,63cd461c5f597e27b2a054fb,2023-08-06_08h31.26.604,HF_wild_card,2022.2.4,Win32,40.10748807,63cd461c5f597e27b2a054fb,64ce5acb97489d65b14ecc7a,64cf4bde44452db73c4ecc11,,,,,,,ctch,resources/DB.BMP,resources/DY.BMP,Door4,-0.40625,-0.045572917,1,0,0,1.5179,optionLeft,80,3935,2,30,0,30,0,1,,,,,,,,,,,,,,,,,,,,,,,,,,,,,,,,,,,,,,,
,,,,,,,63cd461c5f597e27b2a054fb,2023-08-06_08h31.26.604,HF_wild_card,2022.2.4,Win32,40.10748807,63cd461c5f597e27b2a054fb,64ce5acb97489d65b14ecc7a,64cf4bde44452db73c4ecc11,,,,,,,sngl,resources/DP.BMP,resources/Empty.png,WildCard_Ex,-0.36328125,-0.053385417,1,0,0,2.1206,optionLeft,95,4030,2,31,0,31,0,1,,,,,,,,,,,,,,,,,,,,,,,,,,,,,,,,,,,,,,,
,,,,,,,63cd461c5f597e27b2a054fb,2023-08-06_08h31.26.604,HF_wild_card,2022.2.4,Win32,40.10748807,63cd461c5f597e27b2a054fb,64ce5acb97489d65b14ecc7a,64cf4bde44452db73c4ecc11,,,,,,,decisionTrl,resources/DR.BMP,resources/DB.BMP,Door4,0.407552083,-0.018229167,1,0,0,1.7128,optionRight,60,4090,2,32,0,32,0,1,,,,,,,,,,,,,,,,,,,,,,,,,,,,,,,,,,,,,,,
,,,,,,,63cd461c5f597e27b2a054fb,2023-08-06_08h31.26.604,HF_wild_card,2022.2.4,Win32,40.10748807,63cd461c5f597e27b2a054fb,64ce5acb97489d65b14ecc7a,64cf4bde44452db73c4ecc11,,,,,,,decisionTrl,resources/DY.BMP,resources/DBN.BMP,Door1,-0.358072917,-0.052083333,1,0,0,3.3381,optionLeft,30,4120,2,33,0,33,0,1,,,,,,,,,,,,,,,,,,,,,,,,,,,,,,,,,,,,,,,
,,,,,,,63cd461c5f597e27b2a054fb,2023-08-06_08h31.26.604,HF_wild_card,2022.2.4,Win32,40.10748807,63cd461c5f597e27b2a054fb,64ce5acb97489d65b14ecc7a,64cf4bde44452db73c4ecc11,,,,,,,decisionTrl,resources/DP.BMP,resources/DY.BMP,WildCard_Ex,-0.364583333,-0.0703125,1,0,0,2.4905,optionLeft,5,4125,2,34,0,34,0,1,,,,,,,,,,,,,,,,,,,,,,,,,,,,,,,,,,,,,,,
,,,,,,,63cd461c5f597e27b2a054fb,2023-08-06_08h31.26.604,HF_wild_card,2022.2.4,Win32,40.10748807,63cd461c5f597e27b2a054fb,64ce5acb97489d65b14ecc7a,64cf4bde44452db73c4ecc11,,,,,,,decisionTrl,resources/DBN.BMP,resources/DP.BMP,WildCard_Ex,0.4296875,-0.045572917,1,0,0,1.1851,optionRight,95,4220,2,35,0,35,0,1,,,,,,,,,,,,,,,,,,,,,,,,,,,,,,,,,,,,,,,
,,,,,,,63cd461c5f597e27b2a054fb,2023-08-06_08h31.26.604,HF_wild_card,2022.2.4,Win32,40.10748807,63cd461c5f597e27b2a054fb,64ce5acb97489d65b14ecc7a,64cf4bde44452db73c4ecc11,,,,,,,ctch,resources/DBN.BMP,resources/DR.BMP,Door3,0.328125,-0.069010417,1,0,0,2.0414,optionRight,70,4290,2,36,0,36,0,1,,,,,,,,,,,,,,,,,,,,,,,,,,,,,,,,,,,,,,,
,,,,,,,63cd461c5f597e27b2a054fb,2023-08-06_08h31.26.604,HF_wild_card,2022.2.4,Win32,40.10748807,63cd461c5f597e27b2a054fb,64ce5acb97489d65b14ecc7a,64cf4bde44452db73c4ecc11,,,,,,,decisionTrl,resources/DY.BMP,resources/DBN.BMP,Door1,-0.404947917,0.001302083,1,0,0,1.8409,optionLeft,30,4320,2,37,0,37,0,1,,,,,,,,,,,,,,,,,,,,,,,,,,,,,,,,,,,,,,,
,,,,,,,63cd461c5f597e27b2a054fb,2023-08-06_08h31.26.604,HF_wild_card,2022.2.4,Win32,40.10748807,63cd461c5f597e27b2a054fb,64ce5acb97489d65b14ecc7a,64cf4bde44452db73c4ecc11,,,,,,,decisionTrl,resources/DB.BMP,resources/DR.BMP,Door4,-0.404947917,-0.026041667,1,0,0,2.2635,optionLeft,60,4380,2,38,0,38,0,1,,,,,,,,,,,,,,,,,,,,,,,,,,,,,,,,,,,,,,,
,,,,,,,63cd461c5f597e27b2a054fb,2023-08-06_08h31.26.604,HF_wild_card,2022.2.4,Win32,40.10748807,63cd461c5f597e27b2a054fb,64ce5acb97489d65b14ecc7a,64cf4bde44452db73c4ecc11,,,,,,,decisionTrl,resources/DB.BMP,resources/DR.BMP,Door3,0.34375,-0.03125,1,0,0,1.3901,optionRight,70,4450,2,39,0,39,0,1,,,,,,,,,,,,,,,,,,,,,,,,,,,,,,,,,,,,,,,
,,,,,,,63cd461c5f597e27b2a054fb,2023-08-06_08h31.26.604,HF_wild_card,2022.2.4,Win32,40.10748807,63cd461c5f597e27b2a054fb,64ce5acb97489d65b14ecc7a,64cf4bde44452db73c4ecc11,,,,,,,decisionTrl,resources/DR.BMP,resources/DP.BMP,WildCard_Ex,0.365885417,-0.063802083,1,0,0,1.714,optionRight,95,4545,2,40,0,40,0,1,,,,,,,,,,,,,,,,,,,,,,,,,,,,,,,,,,,,,,,
,,,,,,,63cd461c5f597e27b2a054fb,2023-08-06_08h31.26.604,HF_wild_card,2022.2.4,Win32,40.10748807,63cd461c5f597e27b2a054fb,64ce5acb97489d65b14ecc7a,64cf4bde44452db73c4ecc11,,,,,,,decisionTrl,resources/DBN.BMP,resources/DY.BMP,Door1,0.442708333,-0.01953125,1,0,0,2.0611,optionRight,30,4575,2,41,0,41,0,1,,,,,,,,,,,,,,,,,,,,,,,,,,,,,,,,,,,,,,,
,,,,,,,63cd461c5f597e27b2a054fb,2023-08-06_08h31.26.604,HF_wild_card,2022.2.4,Win32,40.10748807,63cd461c5f597e27b2a054fb,64ce5acb97489d65b14ecc7a,64cf4bde44452db73c4ecc11,,,,,,,ctch,resources/DBN.BMP,resources/DR.BMP,Door3,0.303385417,-0.040364583,1,0,0,2.0374,optionRight,70,4645,2,42,0,42,0,1,,,,,,,,,,,,,,,,,,,,,,,,,,,,,,,,,,,,,,,
,,,,,,,63cd461c5f597e27b2a054fb,2023-08-06_08h31.26.604,HF_wild_card,2022.2.4,Win32,40.10748807,63cd461c5f597e27b2a054fb,64ce5acb97489d65b14ecc7a,64cf4bde44452db73c4ecc11,,,,,,,ctch,resources/DR.BMP,resources/DBN.BMP,Door3,-0.4140625,0,1,0,0,1.3679,optionLeft,70,4715,2,43,0,43,0,1,,,,,,,,,,,,,,,,,,,,,,,,,,,,,,,,,,,,,,,
,,,,,,,63cd461c5f597e27b2a054fb,2023-08-06_08h31.26.604,HF_wild_card,2022.2.4,Win32,40.10748807,63cd461c5f597e27b2a054fb,64ce5acb97489d65b14ecc7a,64cf4bde44452db73c4ecc11,,,,,,,,,,,,,,,,,,,,,,,,,,1,0,1,0,1,,,,,,,,,,,,,,,,,,,,,,,,,,,,,,,,,,
,,,,,,,63cd461c5f597e27b2a054fb,2023-08-06_08h31.26.604,HF_wild_card,2022.2.4,Win32,40.10748807,63cd461c5f597e27b2a054fb,64ce5acb97489d65b14ecc7a,64cf4bde44452db73c4ecc11,,,,,,,decisionTrl,resources/DY.BMP,resources/DBN.BMP,Door1,-0.393229167,-0.022135417,1,0,0,1.6339,optionLeft,30,4745,3,0,0,0,0,1,,,,,,,,,,,,,,,,,,,,,,,,,,,,,,,,,,,,,,,
,,,,,,,63cd461c5f597e27b2a054fb,2023-08-06_08h31.26.604,HF_wild_card,2022.2.4,Win32,40.10748807,63cd461c5f597e27b2a054fb,64ce5acb97489d65b14ecc7a,64cf4bde44452db73c4ecc11,,,,,,,sngl,resources/Empty.png,resources/DBN.BMP,Door2,0.309895833,0.001302083,1,0,0,1.6873,optionRight,20,4765,3,1,0,1,0,1,,,,,,,,,,,,,,,,,,,,,,,,,,,,,,,,,,,,,,,
,,,,,,,63cd461c5f597e27b2a054fb,2023-08-06_08h31.26.604,HF_wild_card,2022.2.4,Win32,40.10748807,63cd461c5f597e27b2a054fb,64ce5acb97489d65b14ecc7a,64cf4bde44452db73c4ecc11,,,,,,,ctch,resources/DR.BMP,resources/DBN.BMP,Door3,-0.37109375,-0.03515625,1,0,0,1.3402,optionLeft,70,4835,3,2,0,2,0,1,,,,,,,,,,,,,,,,,,,,,,,,,,,,,,,,,,,,,,,
,,,,,,,63cd461c5f597e27b2a054fb,2023-08-06_08h31.26.604,HF_wild_card,2022.2.4,Win32,40.10748807,63cd461c5f597e27b2a054fb,64ce5acb97489d65b14ecc7a,64cf4bde44452db73c4ecc11,,,,,,,sngl,resources/DP.BMP,resources/Empty.png,WildCard_Ex,-0.28125,-0.033854167,1,0,0,2.0378,optionLeft,95,4930,3,3,0,3,0,1,,,,,,,,,,,,,,,,,,,,,,,,,,,,,,,,,,,,,,,
,,,,,,,63cd461c5f597e27b2a054fb,2023-08-06_08h31.26.604,HF_wild_card,2022.2.4,Win32,40.10748807,63cd461c5f597e27b2a054fb,64ce5acb97489d65b14ecc7a,64cf4bde44452db73c4ecc11,,,,,,,sngl,resources/Empty.png,resources/DP.BMP,WildCard_Ex,0.305989583,-0.041666667,1,0,0,1.3397,optionRight,5,4935,3,4,0,4,0,1,,,,,,,,,,,,,,,,,,,,,,,,,,,,,,,,,,,,,,,
,,,,,,,63cd461c5f597e27b2a054fb,2023-08-06_08h31.26.604,HF_wild_card,2022.2.4,Win32,40.10748807,63cd461c5f597e27b2a054fb,64ce5acb97489d65b14ecc7a,64cf4bde44452db73c4ecc11,,,,,,,decisionTrl,resources/DR.BMP,resources/DB.BMP,Door4,0.375,-0.03125,1,0,0,3.7888,optionRight,80,5015,3,5,0,5,0,1,,,,,,,,,,,,,,,,,,,,,,,,,,,,,,,,,,,,,,,
,,,,,,,63cd461c5f597e27b2a054fb,2023-08-06_08h31.26.604,HF_wild_card,2022.2.4,Win32,40.10748807,63cd461c5f597e27b2a054fb,64ce5acb97489d65b14ecc7a,64cf4bde44452db73c4ecc11,,,,,,,ctch,resources/DBN.BMP,resources/DR.BMP,Door3,0.39453125,-0.065104167,1,0,0,1.3123,optionRight,70,5085,3,6,0,6,0,1,,,,,,,,,,,,,,,,,,,,,,,,,,,,,,,,,,,,,,,
,,,,,,,63cd461c5f597e27b2a054fb,2023-08-06_08h31.26.604,HF_wild_card,2022.2.4,Win32,40.10748807,63cd461c5f597e27b2a054fb,64ce5acb97489d65b14ecc7a,64cf4bde44452db73c4ecc11,,,,,,,decisionTrl,resources/DB.BMP,resources/DP.BMP,WildCard_Ex,0.338541667,-0.059895833,1,0,0,2.0882,optionRight,95,5180,3,7,0,7,0,1,,,,,,,,,,,,,,,,,,,,,,,,,,,,,,,,,,,,,,,
,,,,,,,63cd461c5f597e27b2a054fb,2023-08-06_08h31.26.604,HF_wild_card,2022.2.4,Win32,40.10748807,63cd461c5f597e27b2a054fb,64ce5acb97489d65b14ecc7a,64cf4bde44452db73c4ecc11,,,,,,,sngl,resources/DY.BMP,resources/Empty.png,Door1,-0.348958333,-0.020833333,1,0,0,1.3158,optionLeft,30,5210,3,8,0,8,0,1,,,,,,,,,,,,,,,,,,,,,,,,,,,,,,,,,,,,,,,
,,,,,,,63cd461c5f597e27b2a054fb,2023-08-06_08h31.26.604,HF_wild_card,2022.2.4,Win32,40.10748807,63cd461c5f597e27b2a054fb,64ce5acb97489d65b14ecc7a,64cf4bde44452db73c4ecc11,,,,,,,decisionTrl,resources/DBN.BMP,resources/DY.BMP,Door1,0.365885417,-0.015625,1,0,0,1.332,optionRight,30,5240,3,9,0,9,0,1,,,,,,,,,,,,,,,,,,,,,,,,,,,,,,,,,,,,,,,
,,,,,,,63cd461c5f597e27b2a054fb,2023-08-06_08h31.26.604,HF_wild_card,2022.2.4,Win32,40.10748807,63cd461c5f597e27b2a054fb,64ce5acb97489d65b14ecc7a,64cf4bde44452db73c4ecc11,,,,,,,ctch,resources/DY.BMP,resources/DB.BMP,Door4,0.372395833,-0.069010417,1,0,0,1.5161,optionRight,80,5320,3,10,0,10,0,1,,,,,,,,,,,,,,,,,,,,,,,,,,,,,,,,,,,,,,,
,,,,,,,63cd461c5f597e27b2a054fb,2023-08-06_08h31.26.604,HF_wild_card,2022.2.4,Win32,40.10748807,63cd461c5f597e27b2a054fb,64ce5acb97489d65b14ecc7a,64cf4bde44452db73c4ecc11,,,,,,,decisionTrl,resources/DBN.BMP,resources/DP.BMP,WildCard_Ex,0.38671875,-0.055989583,1,0,0,1.1896,optionRight,5,5325,3,11,0,11,0,1,,,,,,,,,,,,,,,,,,,,,,,,,,,,,,,,,,,,,,,
,,,,,,,63cd461c5f597e27b2a054fb,2023-08-06_08h31.26.604,HF_wild_card,2022.2.4,Win32,40.10748807,63cd461c5f597e27b2a054fb,64ce5acb97489d65b14ecc7a,64cf4bde44452db73c4ecc11,,,,,,,decisionTrl,resources/DY.BMP,resources/DBN.BMP,Door1,-0.352864583,-0.057291667,1,0,0,1.6385,optionLeft,30,5355,3,12,0,12,0,1,,,,,,,,,,,,,,,,,,,,,,,,,,,,,,,,,,,,,,,
,,,,,,,63cd461c5f597e27b2a054fb,2023-08-06_08h31.26.604,HF_wild_card,2022.2.4,Win32,40.10748807,63cd461c5f597e27b2a054fb,64ce5acb97489d65b14ecc7a,64cf4bde44452db73c4ecc11,,,,,,,decisionTrl,resources/DB.BMP,resources/DR.BMP,Door3,0.3125,-0.028645833,1,0,0,3.1154,optionRight,70,5425,3,13,0,13,0,1,,,,,,,,,,,,,,,,,,,,,,,,,,,,,,,,,,,,,,,
,,,,,,,63cd461c5f597e27b2a054fb,2023-08-06_08h31.26.604,HF_wild_card,2022.2.4,Win32,40.10748807,63cd461c5f597e27b2a054fb,64ce5acb97489d65b14ecc7a,64cf4bde44452db73c4ecc11,,,,,,,sngl,resources/Empty.png,resources/DR.BMP,Door3,0.309895833,-0.015625,1,0,0,1.0184,optionRight,70,5495,3,14,0,14,0,1,,,,,,,,,,,,,,,,,,,,,,,,,,,,,,,,,,,,,,,
,,,,,,,63cd461c5f597e27b2a054fb,2023-08-06_08h31.26.604,HF_wild_card,2022.2.4,Win32,40.10748807,63cd461c5f597e27b2a054fb,64ce5acb97489d65b14ecc7a,64cf4bde44452db73c4ecc11,,,,,,,sngl,resources/DB.BMP,resources/Empty.png,Door4,-0.3515625,-0.016927083,1,0,0,1.0673,optionLeft,80,5575,3,15,0,15,0,1,,,,,,,,,,,,,,,,,,,,,,,,,,,,,,,,,,,,,,,
,,,,,,,63cd461c5f597e27b2a054fb,2023-08-06_08h31.26.604,HF_wild_card,2022.2.4,Win32,40.10748807,63cd461c5f597e27b2a054fb,64ce5acb97489d65b14ecc7a,64cf4bde44452db73c4ecc11,,,,,,,sngl,resources/DBN.BMP,resources/Empty.png,Door2,-0.243489583,-0.001302083,1,0,0,2.4105,optionLeft,40,5615,3,16,0,16,0,1,,,,,,,,,,,,,,,,,,,,,,,,,,,,,,,,,,,,,,,
,,,,,,,63cd461c5f597e27b2a054fb,2023-08-06_08h31.26.604,HF_wild_card,2022.2.4,Win32,40.10748807,63cd461c5f597e27b2a054fb,64ce5acb97489d65b14ecc7a,64cf4bde44452db73c4ecc11,,,,,,,decisionTrl,resources/DP.BMP,resources/DR.BMP,WildCard_Ex,-0.403645833,-0.079427083,1,0,0,2.1636,optionLeft,95,5710,3,17,0,17,0,1,,,,,,,,,,,,,,,,,,,,,,,,,,,,,,,,,,,,,,,
,,,,,,,63cd461c5f597e27b2a054fb,2023-08-06_08h31.26.604,HF_wild_card,2022.2.4,Win32,40.10748807,63cd461c5f597e27b2a054fb,64ce5acb97489d65b14ecc7a,64cf4bde44452db73c4ecc11,,,,,,,ctch,resources/DBN.BMP,resources/DR.BMP,Door3,0.26171875,-0.053385417,1,0,0,3.6377,optionRight,70,5780,3,18,0,18,0,1,,,,,,,,,,,,,,,,,,,,,,,,,,,,,,,,,,,,,,,
,,,,,,,63cd461c5f597e27b2a054fb,2023-08-06_08h31.26.604,HF_wild_card,2022.2.4,Win32,40.10748807,63cd461c5f597e27b2a054fb,64ce5acb97489d65b14ecc7a,64cf4bde44452db73c4ecc11,,,,,,,decisionTrl,resources/DBN.BMP,resources/DY.BMP,Door1,0.356770833,-0.026041667,1,0,0,1.6903,optionRight,30,5810,3,19,0,19,0,1,,,,,,,,,,,,,,,,,,,,,,,,,,,,,,,,,,,,,,,
,,,,,,,63cd461c5f597e27b2a054fb,2023-08-06_08h31.26.604,HF_wild_card,2022.2.4,Win32,40.10748807,63cd461c5f597e27b2a054fb,64ce5acb97489d65b14ecc7a,64cf4bde44452db73c4ecc11,,,,,,,ctch,resources/DR.BMP,resources/DBN.BMP,Door3,-0.412760417,-0.037760417,1,0,0,1.5408,optionLeft,70,5880,3,20,0,20,0,1,,,,,,,,,,,,,,,,,,,,,,,,,,,,,,,,,,,,,,,
,,,,,,,63cd461c5f597e27b2a054fb,2023-08-06_08h31.26.604,HF_wild_card,2022.2.4,Win32,40.10748807,63cd461c5f597e27b2a054fb,64ce5acb97489d65b14ecc7a,64cf4bde44452db73c4ecc11,,,,,,,decisionTrl,resources/DBN.BMP,resources/DY.BMP,Door1,0.39453125,-0.01953125,1,0,0,1.2413,optionRight,30,5910,3,21,0,21,0,1,,,,,,,,,,,,,,,,,,,,,,,,,,,,,,,,,,,,,,,
,,,,,,,63cd461c5f597e27b2a054fb,2023-08-06_08h31.26.604,HF_wild_card,2022.2.4,Win32,40.10748807,63cd461c5f597e27b2a054fb,64ce5acb97489d65b14ecc7a,64cf4bde44452db73c4ecc11,,,,,,,sngl,resources/DR.BMP,resources/Empty.png,Door3,-0.350260417,-0.048177083,1,0,0,1.2647,optionLeft,70,5980,3,22,0,22,0,1,,,,,,,,,,,,,,,,,,,,,,,,,,,,,,,,,,,,,,,
,,,,,,,63cd461c5f597e27b2a054fb,2023-08-06_08h31.26.604,HF_wild_card,2022.2.4,Win32,40.10748807,63cd461c5f597e27b2a054fb,64ce5acb97489d65b14ecc7a,64cf4bde44452db73c4ecc11,,,,,,,decisionTrl,resources/DY.BMP,resources/DP.BMP,Door1,-0.263020833,-0.020833333,1,0,0,2.4148,optionLeft,30,6010,3,23,0,23,0,1,,,,,,,,,,,,,,,,,,,,,,,,,,,,,,,,,,,,,,,
,,,,,,,63cd461c5f597e27b2a054fb,2023-08-06_08h31.26.604,HF_wild_card,2022.2.4,Win32,40.10748807,63cd461c5f597e27b2a054fb,64ce5acb97489d65b14ecc7a,64cf4bde44452db73c4ecc11,,,,,,,decisionTrl,resources/DBN.BMP,resources/DY.BMP,Door2,-0.385416667,-0.018229167,1,0,0,3.9368,optionLeft,20,6030,3,24,0,24,0,1,,,,,,,,,,,,,,,,,,,,,,,,,,,,,,,,,,,,,,,
,,,,,,,63cd461c5f597e27b2a054fb,2023-08-06_08h31.26.604,HF_wild_card,2022.2.4,Win32,40.10748807,63cd461c5f597e27b2a054fb,64ce5acb97489d65b14ecc7a,64cf4bde44452db73c4ecc11,,,,,,,sngl,resources/Empty.png,resources/DP.BMP,WildCard_Ex,0.322916667,-0.092447917,1,0,0,1.9911,optionRight,95,6125,3,25,0,25,0,1,,,,,,,,,,,,,,,,,,,,,,,,,,,,,,,,,,,,,,,
,,,,,,,63cd461c5f597e27b2a054fb,2023-08-06_08h31.26.604,HF_wild_card,2022.2.4,Win32,40.10748807,63cd461c5f597e27b2a054fb,64ce5acb97489d65b14ecc7a,64cf4bde44452db73c4ecc11,,,,,,,decisionTrl,resources/DB.BMP,resources/DR.BMP,Door4,-0.399739583,-0.036458333,1,0,0,4.558,optionLeft,80,6205,3,26,0,26,0,1,,,,,,,,,,,,,,,,,,,,,,,,,,,,,,,,,,,,,,,
,,,,,,,63cd461c5f597e27b2a054fb,2023-08-06_08h31.26.604,HF_wild_card,2022.2.4,Win32,40.10748807,63cd461c5f597e27b2a054fb,64ce5acb97489d65b14ecc7a,64cf4bde44452db73c4ecc11,,,,,,,decisionTrl,resources/DR.BMP,resources/DB.BMP,Door3,-0.326822917,-0.0390625,1,0,0,1.9388,optionLeft,70,6275,3,27,0,27,0,1,,,,,,,,,,,,,,,,,,,,,,,,,,,,,,,,,,,,,,,
,,,,,,,63cd461c5f597e27b2a054fb,2023-08-06_08h31.26.604,HF_wild_card,2022.2.4,Win32,40.10748807,63cd461c5f597e27b2a054fb,64ce5acb97489d65b14ecc7a,64cf4bde44452db73c4ecc11,,,,,,,ctch,resources/DB.BMP,resources/DY.BMP,Door4,-0.352864583,-0.022135417,1,0,0,1.3156,optionLeft,60,6335,3,28,0,28,0,1,,,,,,,,,,,,,,,,,,,,,,,,,,,,,,,,,,,,,,,
,,,,,,,63cd461c5f597e27b2a054fb,2023-08-06_08h31.26.604,HF_wild_card,2022.2.4,Win32,40.10748807,63cd461c5f597e27b2a054fb,64ce5acb97489d65b14ecc7a,64cf4bde44452db73c4ecc11,,,,,,,sngl,resources/DP.BMP,resources/Empty.png,WildCard_Ex,-0.325520833,-0.05078125,1,0,0,1.6436,optionLeft,5,6340,3,29,0,29,0,1,,,,,,,,,,,,,,,,,,,,,,,,,,,,,,,,,,,,,,,
,,,,,,,63cd461c5f597e27b2a054fb,2023-08-06_08h31.26.604,HF_wild_card,2022.2.4,Win32,40.10748807,63cd461c5f597e27b2a054fb,64ce5acb97489d65b14ecc7a,64cf4bde44452db73c4ecc11,,,,,,,decisionTrl,resources/DR.BMP,resources/DB.BMP,Door4,0.430989583,-0.0234375,1,0,0,1.293,optionRight,60,6400,3,30,0,30,0,1,,,,,,,,,,,,,,,,,,,,,,,,,,,,,,,,,,,,,,,
,,,,,,,63cd461c5f597e27b2a054fb,2023-08-06_08h31.26.604,HF_wild_card,2022.2.4,Win32,40.10748807,63cd461c5f597e27b2a054fb,64ce5acb97489d65b14ecc7a,64cf4bde44452db73c4ecc11,,,,,,,decisionTrl,resources/DP.BMP,resources/DY.BMP,Door1,0.326822917,-0.029947917,1,0,0,2.4377,optionRight,30,6430,3,31,0,31,0,1,,,,,,,,,,,,,,,,,,,,,,,,,,,,,,,,,,,,,,,
,,,,,,,63cd461c5f597e27b2a054fb,2023-08-06_08h31.26.604,HF_wild_card,2022.2.4,Win32,40.10748807,63cd461c5f597e27b2a054fb,64ce5acb97489d65b14ecc7a,64cf4bde44452db73c4ecc11,,,,,,,decisionTrl,resources/DB.BMP,resources/DR.BMP,Door3,0.3046875,-0.02734375,1,0,0,5.2309,optionRight,70,6500,3,32,0,32,0,1,,,,,,,,,,,,,,,,,,,,,,,,,,,,,,,,,,,,,,,
,,,,,,,63cd461c5f597e27b2a054fb,2023-08-06_08h31.26.604,HF_wild_card,2022.2.4,Win32,40.10748807,63cd461c5f597e27b2a054fb,64ce5acb97489d65b14ecc7a,64cf4bde44452db73c4ecc11,,,,,,,decisionTrl,resources/DR.BMP,resources/DB.BMP,Door4,0.315104167,-0.049479167,1,0,0,2.2141,optionRight,60,6560,3,33,0,33,0,1,,,,,,,,,,,,,,,,,,,,,,,,,,,,,,,,,,,,,,,
,,,,,,,63cd461c5f597e27b2a054fb,2023-08-06_08h31.26.604,HF_wild_card,2022.2.4,Win32,40.10748807,63cd461c5f597e27b2a054fb,64ce5acb97489d65b14ecc7a,64cf4bde44452db73c4ecc11,,,,,,,decisionTrl,resources/DY.BMP,resources/DBN.BMP,Door1,-0.298177083,-0.029947917,1,0,0,3.817,optionLeft,30,6590,3,34,0,34,0,1,,,,,,,,,,,,,,,,,,,,,,,,,,,,,,,,,,,,,,,
,,,,,,,63cd461c5f597e27b2a054fb,2023-08-06_08h31.26.604,HF_wild_card,2022.2.4,Win32,40.10748807,63cd461c5f597e27b2a054fb,64ce5acb97489d65b14ecc7a,64cf4bde44452db73c4ecc11,,,,,,,decisionTrl,resources/DB.BMP,resources/DR.BMP,Door4,-0.40625,-0.079427083,1,0,0,1.2659,optionLeft,80,6670,3,35,0,35,0,1,,,,,,,,,,,,,,,,,,,,,,,,,,,,,,,,,,,,,,,
,,,,,,,63cd461c5f597e27b2a054fb,2023-08-06_08h31.26.604,HF_wild_card,2022.2.4,Win32,40.10748807,63cd461c5f597e27b2a054fb,64ce5acb97489d65b14ecc7a,64cf4bde44452db73c4ecc11,,,,,,,sngl,resources/Empty.png,resources/DY.BMP,Door1,0.200520833,-0.014322917,1,0,0,1.2222,optionRight,30,6700,3,36,0,36,0,1,,,,,,,,,,,,,,,,,,,,,,,,,,,,,,,,,,,,,,,
,,,,,,,63cd461c5f597e27b2a054fb,2023-08-06_08h31.26.604,HF_wild_card,2022.2.4,Win32,40.10748807,63cd461c5f597e27b2a054fb,64ce5acb97489d65b14ecc7a,64cf4bde44452db73c4ecc11,,,,,,,decisionTrl,resources/DR.BMP,resources/DP.BMP,Door3,-0.32421875,-0.063802083,1,0,0,3.6168,optionLeft,70,6770,3,37,0,37,0,1,,,,,,,,,,,,,,,,,,,,,,,,,,,,,,,,,,,,,,,
,,,,,,,63cd461c5f597e27b2a054fb,2023-08-06_08h31.26.604,HF_wild_card,2022.2.4,Win32,40.10748807,63cd461c5f597e27b2a054fb,64ce5acb97489d65b14ecc7a,64cf4bde44452db73c4ecc11,,,,,,,ctch,resources/DB.BMP,resources/DY.BMP,Door4,-0.350260417,-0.041666667,1,0,0,2.5115,optionLeft,80,6850,3,38,0,38,0,1,,,,,,,,,,,,,,,,,,,,,,,,,,,,,,,,,,,,,,,
,,,,,,,63cd461c5f597e27b2a054fb,2023-08-06_08h31.26.604,HF_wild_card,2022.2.4,Win32,40.10748807,63cd461c5f597e27b2a054fb,64ce5acb97489d65b14ecc7a,64cf4bde44452db73c4ecc11,,,,,,,decisionTrl,resources/DP.BMP,resources/DB.BMP,WildCard_Ex,-0.376302083,-0.040364583,1,0,0,1.1995,optionLeft,5,6855,3,39,0,39,0,1,,,,,,,,,,,,,,,,,,,,,,,,,,,,,,,,,,,,,,,
,,,,,,,63cd461c5f597e27b2a054fb,2023-08-06_08h31.26.604,HF_wild_card,2022.2.4,Win32,40.10748807,63cd461c5f597e27b2a054fb,64ce5acb97489d65b14ecc7a,64cf4bde44452db73c4ecc11,,,,,,,decisionTrl,resources/DP.BMP,resources/DBN.BMP,Door2,0.333333333,-0.0078125,1,0,0,1.6181,optionRight,40,6895,3,40,0,40,0,1,,,,,,,,,,,,,,,,,,,,,,,,,,,,,,,,,,,,,,,
,,,,,,,63cd461c5f597e27b2a054fb,2023-08-06_08h31.26.604,HF_wild_card,2022.2.4,Win32,40.10748807,63cd461c5f597e27b2a054fb,64ce5acb97489d65b14ecc7a,64cf4bde44452db73c4ecc11,,,,,,,decisionTrl,resources/DY.BMP,resources/DBN.BMP,Door2,0.305989583,0.006510417,1,0,0,1.5174,optionRight,20,6915,3,41,0,41,0,1,,,,,,,,,,,,,,,,,,,,,,,,,,,,,,,,,,,,,,,
,,,,,,,63cd461c5f597e27b2a054fb,2023-08-06_08h31.26.604,HF_wild_card,2022.2.4,Win32,40.10748807,63cd461c5f597e27b2a054fb,64ce5acb97489d65b14ecc7a,64cf4bde44452db73c4ecc11,,,,,,,sngl,resources/Empty.png,resources/DB.BMP,Door4,0.3203125,-0.03125,1,0,0,1.9323,optionRight,60,6975,3,42,0,42,0,1,,,,,,,,,,,,,,,,,,,,,,,,,,,,,,,,,,,,,,,
,,,,,,,63cd461c5f597e27b2a054fb,2023-08-06_08h31.26.604,HF_wild_card,2022.2.4,Win32,40.10748807,63cd461c5f597e27b2a054fb,64ce5acb97489d65b14ecc7a,64cf4bde44452db73c4ecc11,,,,,,,ctch,resources/DY.BMP,resources/DB.BMP,Door4,0.322916667,0.006510417,1,0,0,2.5133,optionRight,80,7055,3,43,0,43,0,1,,,,,,,,,,,,,,,,,,,,,,,,,,,,,,,,,,,,,,,
,,,,,,,63cd461c5f597e27b2a054fb,2023-08-06_08h31.26.604,HF_wild_card,2022.2.4,Win32,40.10748807,63cd461c5f597e27b2a054fb,64ce5acb97489d65b14ecc7a,64cf4bde44452db73c4ecc11,,,,,,,,,,,,,,,,,,,,,,,,,,2,0,2,0,1,,,,,,,,,,,,,,,,,,,,,,,,,,,,,,,,,,
,,,,,,,63cd461c5f597e27b2a054fb,2023-08-06_08h31.26.604,HF_wild_card,2022.2.4,Win32,40.10748807,63cd461c5f597e27b2a054fb,64ce5acb97489d65b14ecc7a,64cf4bde44452db73c4ecc11,,,,,,,ctch,resources/DY.BMP,resources/DB.BMP,Door4,0.328125,-0.036458333,1,0,0,1.0673,optionRight,80,7135,4,0,0,0,0,1,,,,,,,,,,,,,,,,,,,,,,,,,,,,,,,,,,,,,,,
,,,,,,,63cd461c5f597e27b2a054fb,2023-08-06_08h31.26.604,HF_wild_card,2022.2.4,Win32,40.10748807,63cd461c5f597e27b2a054fb,64ce5acb97489d65b14ecc7a,64cf4bde44452db73c4ecc11,,,,,,,decisionTrl,resources/DBN.BMP,resources/DG.BMP,WildCard_NonEx,0.427083333,-0.033854167,1,0,0,2.69,optionRight,55,7190,4,1,0,1,0,1,,,,,,,,,,,,,,,,,,,,,,,,,,,,,,,,,,,,,,,
,,,,,,,63cd461c5f597e27b2a054fb,2023-08-06_08h31.26.604,HF_wild_card,2022.2.4,Win32,40.10748807,63cd461c5f597e27b2a054fb,64ce5acb97489d65b14ecc7a,64cf4bde44452db73c4ecc11,,,,,,,sngl,resources/DG.BMP,resources/Empty.png,WildCard_NonEx,-0.33203125,-0.041666667,1,0,0,1.4153,optionLeft,45,7235,4,2,0,2,0,1,,,,,,,,,,,,,,,,,,,,,,,,,,,,,,,,,,,,,,,
,,,,,,,63cd461c5f597e27b2a054fb,2023-08-06_08h31.26.604,HF_wild_card,2022.2.4,Win32,40.10748807,63cd461c5f597e27b2a054fb,64ce5acb97489d65b14ecc7a,64cf4bde44452db73c4ecc11,,,,,,,decisionTrl,resources/DY.BMP,resources/DBN.BMP,Door1,-0.309895833,-0.020833333,1,0,0,3.0848,optionLeft,30,7265,4,3,0,3,0,1,,,,,,,,,,,,,,,,,,,,,,,,,,,,,,,,,,,,,,,
,,,,,,,63cd461c5f597e27b2a054fb,2023-08-06_08h31.26.604,HF_wild_card,2022.2.4,Win32,40.10748807,63cd461c5f597e27b2a054fb,64ce5acb97489d65b14ecc7a,64cf4bde44452db73c4ecc11,,,,,,,decisionTrl,resources/DR.BMP,resources/DG.BMP,Door3,-0.244791667,-0.022135417,1,0,0,1.7145,optionLeft,70,7335,4,4,0,4,0,1,,,,,,,,,,,,,,,,,,,,,,,,,,,,,,,,,,,,,,,
,,,,,,,63cd461c5f597e27b2a054fb,2023-08-06_08h31.26.604,HF_wild_card,2022.2.4,Win32,40.10748807,63cd461c5f597e27b2a054fb,64ce5acb97489d65b14ecc7a,64cf4bde44452db73c4ecc11,,,,,,,ctch,resources/DR.BMP,resources/DBN.BMP,Door3,-0.381510417,-0.057291667,1,0,0,1.2176,optionLeft,70,7405,4,5,0,5,0,1,,,,,,,,,,,,,,,,,,,,,,,,,,,,,,,,,,,,,,,
,,,,,,,63cd461c5f597e27b2a054fb,2023-08-06_08h31.26.604,HF_wild_card,2022.2.4,Win32,40.10748807,63cd461c5f597e27b2a054fb,64ce5acb97489d65b14ecc7a,64cf4bde44452db73c4ecc11,,,,,,,ctch,resources/DB.BMP,resources/DY.BMP,Door4,-0.416666667,-0.029947917,1,0,0,1.59,optionLeft,80,7485,4,6,0,6,0,1,,,,,,,,,,,,,,,,,,,,,,,,,,,,,,,,,,,,,,,
,,,,,,,63cd461c5f597e27b2a054fb,2023-08-06_08h31.26.604,HF_wild_card,2022.2.4,Win32,40.10748807,63cd461c5f597e27b2a054fb,64ce5acb97489d65b14ecc7a,64cf4bde44452db73c4ecc11,,,,,,,decisionTrl,resources/DY.BMP,resources/DBN.BMP,Door1,-0.311197917,-0.0625,1,0,0,3.113,optionLeft,30,7515,4,7,0,7,0,1,,,,,,,,,,,,,,,,,,,,,,,,,,,,,,,,,,,,,,,
,,,,,,,63cd461c5f597e27b2a054fb,2023-08-06_08h31.26.604,HF_wild_card,2022.2.4,Win32,40.10748807,63cd461c5f597e27b2a054fb,64ce5acb97489d65b14ecc7a,64cf4bde44452db73c4ecc11,,,,,,,decisionTrl,resources/DR.BMP,resources/DB.BMP,Door3,-0.326822917,-0.01171875,1,0,0,3.3345,optionLeft,70,7585,4,8,0,8,0,1,,,,,,,,,,,,,,,,,,,,,,,,,,,,,,,,,,,,,,,
,,,,,,,63cd461c5f597e27b2a054fb,2023-08-06_08h31.26.604,HF_wild_card,2022.2.4,Win32,40.10748807,63cd461c5f597e27b2a054fb,64ce5acb97489d65b14ecc7a,64cf4bde44452db73c4ecc11,,,,,,,decisionTrl,resources/DG.BMP,resources/DB.BMP,Door4,0.2421875,-0.053385417,1,0,0,1.916,optionRight,80,7665,4,9,0,9,0,1,,,,,,,,,,,,,,,,,,,,,,,,,,,,,,,,,,,,,,,
,,,,,,,63cd461c5f597e27b2a054fb,2023-08-06_08h31.26.604,HF_wild_card,2022.2.4,Win32,40.10748807,63cd461c5f597e27b2a054fb,64ce5acb97489d65b14ecc7a,64cf4bde44452db73c4ecc11,,,,,,,decisionTrl,resources/DB.BMP,resources/DR.BMP,Door3,0.307291667,-0.05078125,1,0,0,1.4434,optionRight,70,7735,4,10,0,10,0,1,,,,,,,,,,,,,,,,,,,,,,,,,,,,,,,,,,,,,,,
,,,,,,,63cd461c5f597e27b2a054fb,2023-08-06_08h31.26.604,HF_wild_card,2022.2.4,Win32,40.10748807,63cd461c5f597e27b2a054fb,64ce5acb97489d65b14ecc7a,64cf4bde44452db73c4ecc11,,,,,,,decisionTrl,resources/DB.BMP,resources/DG.BMP,Door4,-0.345052083,-0.0234375,1,0,0,1.664,optionLeft,60,7795,4,11,0,11,0,1,,,,,,,,,,,,,,,,,,,,,,,,,,,,,,,,,,,,,,,
,,,,,,,63cd461c5f597e27b2a054fb,2023-08-06_08h31.26.604,HF_wild_card,2022.2.4,Win32,40.10748807,63cd461c5f597e27b2a054fb,64ce5acb97489d65b14ecc7a,64cf4bde44452db73c4ecc11,,,,,,,ctch,resources/DR.BMP,resources/DBN.BMP,Door3,-0.34765625,-0.02734375,1,0,0,1.5643,optionLeft,70,7865,4,12,0,12,0,1,,,,,,,,,,,,,,,,,,,,,,,,,,,,,,,,,,,,,,,
,,,,,,,63cd461c5f597e27b2a054fb,2023-08-06_08h31.26.604,HF_wild_card,2022.2.4,Win32,40.10748807,63cd461c5f597e27b2a054fb,64ce5acb97489d65b14ecc7a,64cf4bde44452db73c4ecc11,,,,,,,decisionTrl,resources/DG.BMP,resources/DBN.BMP,WildCard_NonEx,-0.377604167,-0.045572917,1,0,0,1.3145,optionLeft,55,7920,4,13,0,13,0,1,,,,,,,,,,,,,,,,,,,,,,,,,,,,,,,,,,,,,,,
,,,,,,,63cd461c5f597e27b2a054fb,2023-08-06_08h31.26.604,HF_wild_card,2022.2.4,Win32,40.10748807,63cd461c5f597e27b2a054fb,64ce5acb97489d65b14ecc7a,64cf4bde44452db73c4ecc11,,,,,,,ctch,resources/DY.BMP,resources/DB.BMP,Door4,0.311197917,-0.03125,1,0,0,1.4638,optionRight,60,7980,4,14,0,14,0,1,,,,,,,,,,,,,,,,,,,,,,,,,,,,,,,,,,,,,,,
,,,,,,,63cd461c5f597e27b2a054fb,2023-08-06_08h31.26.604,HF_wild_card,2022.2.4,Win32,40.10748807,63cd461c5f597e27b2a054fb,64ce5acb97489d65b14ecc7a,64cf4bde44452db73c4ecc11,,,,,,,decisionTrl,resources/DG.BMP,resources/DR.BMP,Door3,0.424479167,0.029947917,1,0,0,2.671,optionRight,70,8050,4,15,0,15,0,1,,,,,,,,,,,,,,,,,,,,,,,,,,,,,,,,,,,,,,,
,,,,,,,63cd461c5f597e27b2a054fb,2023-08-06_08h31.26.604,HF_wild_card,2022.2.4,Win32,40.10748807,63cd461c5f597e27b2a054fb,64ce5acb97489d65b14ecc7a,64cf4bde44452db73c4ecc11,,,,,,,sngl,resources/DB.BMP,resources/Empty.png,Door4,-0.299479167,-0.02734375,1,0,0,0.9743,optionLeft,60,8110,4,16,0,16,0,1,,,,,,,,,,,,,,,,,,,,,,,,,,,,,,,,,,,,,,,
,,,,,,,63cd461c5f597e27b2a054fb,2023-08-06_08h31.26.604,HF_wild_card,2022.2.4,Win32,40.10748807,63cd461c5f597e27b2a054fb,64ce5acb97489d65b14ecc7a,64cf4bde44452db73c4ecc11,,,,,,,decisionTrl,resources/DY.BMP,resources/DBN.BMP,Door1,-0.2890625,-0.057291667,1,0,0,3.2362,optionLeft,30,8140,4,17,0,17,0,1,,,,,,,,,,,,,,,,,,,,,,,,,,,,,,,,,,,,,,,
,,,,,,,63cd461c5f597e27b2a054fb,2023-08-06_08h31.26.604,HF_wild_card,2022.2.4,Win32,40.10748807,63cd461c5f597e27b2a054fb,64ce5acb97489d65b14ecc7a,64cf4bde44452db73c4ecc11,,,,,,,sngl,resources/DR.BMP,resources/Empty.png,Door3,-0.313802083,-0.029947917,1,0,0,1.0183,optionLeft,70,8210,4,18,0,18,0,1,,,,,,,,,,,,,,,,,,,,,,,,,,,,,,,,,,,,,,,
,,,,,,,63cd461c5f597e27b2a054fb,2023-08-06_08h31.26.604,HF_wild_card,2022.2.4,Win32,40.10748807,63cd461c5f597e27b2a054fb,64ce5acb97489d65b14ecc7a,64cf4bde44452db73c4ecc11,,,,,,,sngl,resources/DY.BMP,resources/Empty.png,Door1,-0.302083333,-0.01171875,1,0,0,0.9411,optionLeft,30,8240,4,19,0,19,0,1,,,,,,,,,,,,,,,,,,,,,,,,,,,,,,,,,,,,,,,
,,,,,,,63cd461c5f597e27b2a054fb,2023-08-06_08h31.26.604,HF_wild_card,2022.2.4,Win32,40.10748807,63cd461c5f597e27b2a054fb,64ce5acb97489d65b14ecc7a,64cf4bde44452db73c4ecc11,,,,,,,decisionTrl,resources/DBN.BMP,resources/DY.BMP,Door1,0.329427083,-0.0078125,1,0,0,2.8822,optionRight,30,8270,4,20,0,20,0,1,,,,,,,,,,,,,,,,,,,,,,,,,,,,,,,,,,,,,,,
,,,,,,,63cd461c5f597e27b2a054fb,2023-08-06_08h31.26.604,HF_wild_card,2022.2.4,Win32,40.10748807,63cd461c5f597e27b2a054fb,64ce5acb97489d65b14ecc7a,64cf4bde44452db73c4ecc11,,,,,,,sngl,resources/Empty.png,resources/DG.BMP,WildCard_NonEx,0.2890625,-0.014322917,1,0,0,1.0909,optionRight,55,8325,4,21,0,21,0,1,,,,,,,,,,,,,,,,,,,,,,,,,,,,,,,,,,,,,,,
,,,,,,,63cd461c5f597e27b2a054fb,2023-08-06_08h31.26.604,HF_wild_card,2022.2.4,Win32,40.10748807,63cd461c5f597e27b2a054fb,64ce5acb97489d65b14ecc7a,64cf4bde44452db73c4ecc11,,,,,,,ctch,resources/DBN.BMP,resources/DR.BMP,Door3,0.315104167,-0.040364583,1,0,0,2.8387,optionRight,70,8395,4,22,0,22,0,1,,,,,,,,,,,,,,,,,,,,,,,,,,,,,,,,,,,,,,,
,,,,,,,63cd461c5f597e27b2a054fb,2023-08-06_08h31.26.604,HF_wild_card,2022.2.4,Win32,40.10748807,63cd461c5f597e27b2a054fb,64ce5acb97489d65b14ecc7a,64cf4bde44452db73c4ecc11,,,,,,,decisionTrl,resources/DR.BMP,resources/DB.BMP,Door4,0.298177083,-0.032552083,1,0,0,1.7147,optionRight,60,8455,4,23,0,23,0,1,,,,,,,,,,,,,,,,,,,,,,,,,,,,,,,,,,,,,,,
,,,,,,,63cd461c5f597e27b2a054fb,2023-08-06_08h31.26.604,HF_wild_card,2022.2.4,Win32,40.10748807,63cd461c5f597e27b2a054fb,64ce5acb97489d65b14ecc7a,64cf4bde44452db73c4ecc11,,,,,,,sngl,resources/Empty.png,resources/DBN.BMP,Door2,0.329427083,-0.01171875,1,0,0,2.1154,optionRight,40,8495,4,24,0,24,0,1,,,,,,,,,,,,,,,,,,,,,,,,,,,,,,,,,,,,,,,
,,,,,,,63cd461c5f597e27b2a054fb,2023-08-06_08h31.26.604,HF_wild_card,2022.2.4,Win32,40.10748807,63cd461c5f597e27b2a054fb,64ce5acb97489d65b14ecc7a,64cf4bde44452db73c4ecc11,,,,,,,sngl,resources/Empty.png,resources/DY.BMP,Door1,0.313802083,-0.03125,1,0,0,5.3927,optionRight,30,8525,4,25,0,25,0,1,,,,,,,,,,,,,,,,,,,,,,,,,,,,,,,,,,,,,,,
,,,,,,,63cd461c5f597e27b2a054fb,2023-08-06_08h31.26.604,HF_wild_card,2022.2.4,Win32,40.10748807,63cd461c5f597e27b2a054fb,64ce5acb97489d65b14ecc7a,64cf4bde44452db73c4ecc11,,,,,,,decisionTrl,resources/DR.BMP,resources/DB.BMP,Door4,0.305989583,-0.037760417,1,0,0,2.0645,optionRight,60,8585,4,26,0,26,0,1,,,,,,,,,,,,,,,,,,,,,,,,,,,,,,,,,,,,,,,
,,,,,,,63cd461c5f597e27b2a054fb,2023-08-06_08h31.26.604,HF_wild_card,2022.2.4,Win32,40.10748807,63cd461c5f597e27b2a054fb,64ce5acb97489d65b14ecc7a,64cf4bde44452db73c4ecc11,,,,,,,sngl,resources/Empty.png,resources/DB.BMP,Door4,0.244791667,-0.029947917,1,0,0,1.1178,optionRight,80,8665,4,27,0,27,0,1,,,,,,,,,,,,,,,,,,,,,,,,,,,,,,,,,,,,,,,
,,,,,,,63cd461c5f597e27b2a054fb,2023-08-06_08h31.26.604,HF_wild_card,2022.2.4,Win32,40.10748807,63cd461c5f597e27b2a054fb,64ce5acb97489d65b14ecc7a,64cf4bde44452db73c4ecc11,,,,,,,decisionTrl,resources/DY.BMP,resources/DG.BMP,WildCard_NonEx,0.395833333,-0.014322917,1,0,0,2.8202,optionRight,55,8720,4,28,0,28,0,1,,,,,,,,,,,,,,,,,,,,,,,,,,,,,,,,,,,,,,,
,,,,,,,63cd461c5f597e27b2a054fb,2023-08-06_08h31.26.604,HF_wild_card,2022.2.4,Win32,40.10748807,63cd461c5f597e27b2a054fb,64ce5acb97489d65b14ecc7a,64cf4bde44452db73c4ecc11,,,,,,,decisionTrl,resources/DB.BMP,resources/DR.BMP,Door3,0.305989583,-0.002604167,1,0,0,2.3377,optionRight,70,8790,4,29,0,29,0,1,,,,,,,,,,,,,,,,,,,,,,,,,,,,,,,,,,,,,,,
,,,,,,,63cd461c5f597e27b2a054fb,2023-08-06_08h31.26.604,HF_wild_card,2022.2.4,Win32,40.10748807,63cd461c5f597e27b2a054fb,64ce5acb97489d65b14ecc7a,64cf4bde44452db73c4ecc11,,,,,,,ctch,resources/DBN.BMP,resources/DR.BMP,Door3,0.346354167,-0.045572917,1,0,0,0.99,optionRight,70,8860,4,30,0,30,0,1,,,,,,,,,,,,,,,,,,,,,,,,,,,,,,,,,,,,,,,
,,,,,,,63cd461c5f597e27b2a054fb,2023-08-06_08h31.26.604,HF_wild_card,2022.2.4,Win32,40.10748807,63cd461c5f597e27b2a054fb,64ce5acb97489d65b14ecc7a,64cf4bde44452db73c4ecc11,,,,,,,sngl,resources/Empty.png,resources/DR.BMP,Door3,0.221354167,-0.016927083,1,0,0,0.8429,optionRight,70,8930,4,31,0,31,0,1,,,,,,,,,,,,,,,,,,,,,,,,,,,,,,,,,,,,,,,
,,,,,,,63cd461c5f597e27b2a054fb,2023-08-06_08h31.26.604,HF_wild_card,2022.2.4,Win32,40.10748807,63cd461c5f597e27b2a054fb,64ce5acb97489d65b14ecc7a,64cf4bde44452db73c4ecc11,,,,,,,decisionTrl,resources/DG.BMP,resources/DY.BMP,WildCard_NonEx,-0.34765625,-0.03125,1,0,0,2.0406,optionLeft,55,8985,4,32,0,32,0,1,,,,,,,,,,,,,,,,,,,,,,,,,,,,,,,,,,,,,,,
,,,,,,,63cd461c5f597e27b2a054fb,2023-08-06_08h31.26.604,HF_wild_card,2022.2.4,Win32,40.10748807,63cd461c5f597e27b2a054fb,64ce5acb97489d65b14ecc7a,64cf4bde44452db73c4ecc11,,,,,,,decisionTrl,resources/DBN.BMP,resources/DY.BMP,Door1,0.325520833,-0.022135417,1,0,0,1.6491,optionRight,30,9015,4,33,0,33,0,1,,,,,,,,,,,,,,,,,,,,,,,,,,,,,,,,,,,,,,,
,,,,,,,63cd461c5f597e27b2a054fb,2023-08-06_08h31.26.604,HF_wild_card,2022.2.4,Win32,40.10748807,63cd461c5f597e27b2a054fb,64ce5acb97489d65b14ecc7a,64cf4bde44452db73c4ecc11,,,,,,,decisionTrl,resources/DB.BMP,resources/DR.BMP,Door3,0.272135417,-0.005208333,1,0,0,4.6592,optionRight,70,9085,4,34,0,34,0,1,,,,,,,,,,,,,,,,,,,,,,,,,,,,,,,,,,,,,,,
,,,,,,,63cd461c5f597e27b2a054fb,2023-08-06_08h31.26.604,HF_wild_card,2022.2.4,Win32,40.10748807,63cd461c5f597e27b2a054fb,64ce5acb97489d65b14ecc7a,64cf4bde44452db73c4ecc11,,,,,,,decisionTrl,resources/DBN.BMP,resources/DY.BMP,Door1,0.411458333,-0.033854167,1,0,0,4.0616,optionRight,30,9115,4,35,0,35,0,1,,,,,,,,,,,,,,,,,,,,,,,,,,,,,,,,,,,,,,,
,,,,,,,63cd461c5f597e27b2a054fb,2023-08-06_08h31.26.604,HF_wild_card,2022.2.4,Win32,40.10748807,63cd461c5f597e27b2a054fb,64ce5acb97489d65b14ecc7a,64cf4bde44452db73c4ecc11,,,,,,,sngl,resources/Empty.png,resources/DG.BMP,WildCard_NonEx,0.229166667,-0.01171875,1,0,0,1.0232,optionRight,45,9160,4,36,0,36,0,1,,,,,,,,,,,,,,,,,,,,,,,,,,,,,,,,,,,,,,,
,,,,,,,63cd461c5f597e27b2a054fb,2023-08-06_08h31.26.604,HF_wild_card,2022.2.4,Win32,40.10748807,63cd461c5f597e27b2a054fb,64ce5acb97489d65b14ecc7a,64cf4bde44452db73c4ecc11,,,,,,,decisionTrl,resources/DB.BMP,resources/DR.BMP,Door3,0.298177083,-0.046875,1,0,0,1.918,optionRight,70,9230,4,37,0,37,0,1,,,,,,,,,,,,,,,,,,,,,,,,,,,,,,,,,,,,,,,
,,,,,,,63cd461c5f597e27b2a054fb,2023-08-06_08h31.26.604,HF_wild_card,2022.2.4,Win32,40.10748807,63cd461c5f597e27b2a054fb,64ce5acb97489d65b14ecc7a,64cf4bde44452db73c4ecc11,,,,,,,decisionTrl,resources/DBN.BMP,resources/DY.BMP,Door1,0.2578125,-0.037760417,1,0,0,2.2161,optionRight,30,9260,4,38,0,38,0,1,,,,,,,,,,,,,,,,,,,,,,,,,,,,,,,,,,,,,,,
,,,,,,,63cd461c5f597e27b2a054fb,2023-08-06_08h31.26.604,HF_wild_card,2022.2.4,Win32,40.10748807,63cd461c5f597e27b2a054fb,64ce5acb97489d65b14ecc7a,64cf4bde44452db73c4ecc11,,,,,,,sngl,resources/DBN.BMP,resources/Empty.png,Door2,-0.303385417,0.00390625,1,0,0,1.0001,optionLeft,20,9280,4,39,0,39,0,1,,,,,,,,,,,,,,,,,,,,,,,,,,,,,,,,,,,,,,,
,,,,,,,63cd461c5f597e27b2a054fb,2023-08-06_08h31.26.604,HF_wild_card,2022.2.4,Win32,40.10748807,63cd461c5f597e27b2a054fb,64ce5acb97489d65b14ecc7a,64cf4bde44452db73c4ecc11,,,,,,,sngl,resources/DG.BMP,resources/Empty.png,WildCard_NonEx,-0.321614583,-0.02734375,1,0,0,1.1336,optionLeft,55,9335,4,40,0,40,0,1,,,,,,,,,,,,,,,,,,,,,,,,,,,,,,,,,,,,,,,
,,,,,,,63cd461c5f597e27b2a054fb,2023-08-06_08h31.26.604,HF_wild_card,2022.2.4,Win32,40.10748807,63cd461c5f597e27b2a054fb,64ce5acb97489d65b14ecc7a,64cf4bde44452db73c4ecc11,,,,,,,decisionTrl,resources/DY.BMP,resources/DBN.BMP,Door1,-0.373697917,-0.046875,1,0,0,2.5603,optionLeft,30,9365,4,41,0,41,0,1,,,,,,,,,,,,,,,,,,,,,,,,,,,,,,,,,,,,,,,
,,,,,,,63cd461c5f597e27b2a054fb,2023-08-06_08h31.26.604,HF_wild_card,2022.2.4,Win32,40.10748807,63cd461c5f597e27b2a054fb,64ce5acb97489d65b14ecc7a,64cf4bde44452db73c4ecc11,,,,,,,decisionTrl,resources/DR.BMP,resources/DB.BMP,Door3,-0.333333333,-0.028645833,1,0,0,3.06,optionLeft,70,9435,4,42,0,42,0,1,,,,,,,,,,,,,,,,,,,,,,,,,,,,,,,,,,,,,,,
,,,,,,,63cd461c5f597e27b2a054fb,2023-08-06_08h31.26.604,HF_wild_card,2022.2.4,Win32,40.10748807,63cd461c5f597e27b2a054fb,64ce5acb97489d65b14ecc7a,64cf4bde44452db73c4ecc11,,,,,,,ctch,resources/DB.BMP,resources/DY.BMP,Door4,-0.359375,-0.024739583,1,0,0,1.8605,optionLeft,80,9515,4,43,0,43,0,1,,,,,,,,,,,,,,,,,,,,,,,,,,,,,,,,,,,,,,,
,,,,,,,63cd461c5f597e27b2a054fb,2023-08-06_08h31.26.604,HF_wild_card,2022.2.4,Win32,40.10748807,63cd461c5f597e27b2a054fb,64ce5acb97489d65b14ecc7a,64cf4bde44452db73c4ecc11,,,,,,,,,,,,,,,,,,,,,,,,,,3,0,3,0,1,,,,,,,,,,,,,,,,,,,,,,,,,,,,,,,,,,
,,,,,,,63cd461c5f597e27b2a054fb,2023-08-06_08h31.26.604,HF_wild_card,2022.2.4,Win32,40.10748807,63cd461c5f597e27b2a054fb,64ce5acb97489d65b14ecc7a,64cf4bde44452db73c4ecc11,,,,,,,decisionTrl,resources/DB.BMP,resources/DG.BMP,Door4,-0.442708333,0.015625,1,0,0,1.2213,optionLeft,80,9595,5,0,0,0,0,1,,,,,,,,,,,,,,,,,,,,,,,,,,,,,,,,,,,,,,,
,,,,,,,63cd461c5f597e27b2a054fb,2023-08-06_08h31.26.604,HF_wild_card,2022.2.4,Win32,40.10748807,63cd461c5f597e27b2a054fb,64ce5acb97489d65b14ecc7a,64cf4bde44452db73c4ecc11,,,,,,,ctch,resources/DY.BMP,resources/DB.BMP,Door4,0.385416667,-0.02734375,1,0,0,2.6385,optionRight,80,9675,5,1,0,1,0,1,,,,,,,,,,,,,,,,,,,,,,,,,,,,,,,,,,,,,,,
,,,,,,,63cd461c5f597e27b2a054fb,2023-08-06_08h31.26.604,HF_wild_card,2022.2.4,Win32,40.10748807,63cd461c5f597e27b2a054fb,64ce5acb97489d65b14ecc7a,64cf4bde44452db73c4ecc11,,,,,,,sngl,resources/Empty.png,resources/DY.BMP,Door1,0.309895833,-0.044270833,1,0,0,2.3617,optionRight,30,9705,5,2,0,2,0,1,,,,,,,,,,,,,,,,,,,,,,,,,,,,,,,,,,,,,,,
,,,,,,,63cd461c5f597e27b2a054fb,2023-08-06_08h31.26.604,HF_wild_card,2022.2.4,Win32,40.10748807,63cd461c5f597e27b2a054fb,64ce5acb97489d65b14ecc7a,64cf4bde44452db73c4ecc11,,,,,,,decisionTrl,resources/DG.BMP,resources/DBN.BMP,WildCard_NonEx,-0.330729167,-0.03125,1,0,0,1.4673,optionLeft,55,9760,5,3,0,3,0,1,,,,,,,,,,,,,,,,,,,,,,,,,,,,,,,,,,,,,,,
,,,,,,,63cd461c5f597e27b2a054fb,2023-08-06_08h31.26.604,HF_wild_card,2022.2.4,Win32,40.10748807,63cd461c5f597e27b2a054fb,64ce5acb97489d65b14ecc7a,64cf4bde44452db73c4ecc11,,,,,,,sngl,resources/Empty.png,resources/DG.BMP,WildCard_NonEx,0.31640625,-0.0234375,1,0,0,1.0152,optionRight,55,9815,5,4,0,4,0,1,,,,,,,,,,,,,,,,,,,,,,,,,,,,,,,,,,,,,,,
,,,,,,,63cd461c5f597e27b2a054fb,2023-08-06_08h31.26.604,HF_wild_card,2022.2.4,Win32,40.10748807,63cd461c5f597e27b2a054fb,64ce5acb97489d65b14ecc7a,64cf4bde44452db73c4ecc11,,,,,,,ctch,resources/DBN.BMP,resources/DR.BMP,Door3,0.37109375,-0.02734375,1,0,0,1.4852,optionRight,70,9885,5,5,0,5,0,1,,,,,,,,,,,,,,,,,,,,,,,,,,,,,,,,,,,,,,,
,,,,,,,63cd461c5f597e27b2a054fb,2023-08-06_08h31.26.604,HF_wild_card,2022.2.4,Win32,40.10748807,63cd461c5f597e27b2a054fb,64ce5acb97489d65b14ecc7a,64cf4bde44452db73c4ecc11,,,,,,,decisionTrl,resources/DR.BMP,resources/DB.BMP,Door4,0.390625,-0.049479167,1,0,0,4.0081,optionRight,80,9965,5,6,0,6,0,1,,,,,,,,,,,,,,,,,,,,,,,,,,,,,,,,,,,,,,,
,,,,,,,63cd461c5f597e27b2a054fb,2023-08-06_08h31.26.604,HF_wild_card,2022.2.4,Win32,40.10748807,63cd461c5f597e27b2a054fb,64ce5acb97489d65b14ecc7a,64cf4bde44452db73c4ecc11,,,,,,,decisionTrl,resources/DB.BMP,resources/DR.BMP,Door3,0.282552083,-0.05078125,1,0,0,1.8699,optionRight,70,10035,5,7,0,7,0,1,,,,,,,,,,,,,,,,,,,,,,,,,,,,,,,,,,,,,,,
,,,,,,,63cd461c5f597e27b2a054fb,2023-08-06_08h31.26.604,HF_wild_card,2022.2.4,Win32,40.10748807,63cd461c5f597e27b2a054fb,64ce5acb97489d65b14ecc7a,64cf4bde44452db73c4ecc11,,,,,,,sngl,resources/DB.BMP,resources/Empty.png,Door4,-0.352864583,-0.026041667,1,0,0,1.1256,optionLeft,80,10115,5,8,0,8,0,1,,,,,,,,,,,,,,,,,,,,,,,,,,,,,,,,,,,,,,,
,,,,,,,63cd461c5f597e27b2a054fb,2023-08-06_08h31.26.604,HF_wild_card,2022.2.4,Win32,40.10748807,63cd461c5f597e27b2a054fb,64ce5acb97489d65b14ecc7a,64cf4bde44452db73c4ecc11,,,,,,,decisionTrl,resources/DG.BMP,resources/DY.BMP,WildCard_NonEx,-0.325520833,-0.053385417,1,0,0,1.4961,optionLeft,55,10170,5,9,0,9,0,1,,,,,,,,,,,,,,,,,,,,,,,,,,,,,,,,,,,,,,,
,,,,,,,63cd461c5f597e27b2a054fb,2023-08-06_08h31.26.604,HF_wild_card,2022.2.4,Win32,40.10748807,63cd461c5f597e27b2a054fb,64ce5acb97489d65b14ecc7a,64cf4bde44452db73c4ecc11,,,,,,,ctch,resources/DR.BMP,resources/DBN.BMP,Door3,-0.390625,-0.084635417,1,0,0,1.2193,optionLeft,70,10240,5,10,0,10,0,1,,,,,,,,,,,,,,,,,,,,,,,,,,,,,,,,,,,,,,,
,,,,,,,63cd461c5f597e27b2a054fb,2023-08-06_08h31.26.604,HF_wild_card,2022.2.4,Win32,40.10748807,63cd461c5f597e27b2a054fb,64ce5acb97489d65b14ecc7a,64cf4bde44452db73c4ecc11,,,,,,,decisionTrl,resources/DY.BMP,resources/DBN.BMP,Door1,-0.264322917,-0.0390625,1,0,0,1.2927,optionLeft,30,10270,5,11,0,11,0,1,,,,,,,,,,,,,,,,,,,,,,,,,,,,,,,,,,,,,,,
,,,,,,,63cd461c5f597e27b2a054fb,2023-08-06_08h31.26.604,HF_wild_card,2022.2.4,Win32,40.10748807,63cd461c5f597e27b2a054fb,64ce5acb97489d65b14ecc7a,64cf4bde44452db73c4ecc11,,,,,,,sngl,resources/Empty.png,resources/DBN.BMP,Door2,0.295572917,-0.002604167,1,0,0,1.4892,optionRight,20,10290,5,12,0,12,0,1,,,,,,,,,,,,,,,,,,,,,,,,,,,,,,,,,,,,,,,
,,,,,,,63cd461c5f597e27b2a054fb,2023-08-06_08h31.26.604,HF_wild_card,2022.2.4,Win32,40.10748807,63cd461c5f597e27b2a054fb,64ce5acb97489d65b14ecc7a,64cf4bde44452db73c4ecc11,,,,,,,decisionTrl,resources/DR.BMP,resources/DB.BMP,Door3,-0.38671875,-0.024739583,1,0,0,2.5918,optionLeft,70,10360,5,13,0,13,0,1,,,,,,,,,,,,,,,,,,,,,,,,,,,,,,,,,,,,,,,
,,,,,,,63cd461c5f597e27b2a054fb,2023-08-06_08h31.26.604,HF_wild_card,2022.2.4,Win32,40.10748807,63cd461c5f597e27b2a054fb,64ce5acb97489d65b14ecc7a,64cf4bde44452db73c4ecc11,,,,,,,decisionTrl,resources/DR.BMP,resources/DG.BMP,Door3,-0.360677083,-0.05078125,1,0,0,3.6132,optionLeft,70,10430,5,14,0,14,0,1,,,,,,,,,,,,,,,,,,,,,,,,,,,,,,,,,,,,,,,
,,,,,,,63cd461c5f597e27b2a054fb,2023-08-06_08h31.26.604,HF_wild_card,2022.2.4,Win32,40.10748807,63cd461c5f597e27b2a054fb,64ce5acb97489d65b14ecc7a,64cf4bde44452db73c4ecc11,,,,,,,ctch,resources/DB.BMP,resources/DY.BMP,Door4,-0.389322917,-0.0234375,1,0,0,1.314,optionLeft,60,10490,5,15,0,15,0,1,,,,,,,,,,,,,,,,,,,,,,,,,,,,,,,,,,,,,,,
,,,,,,,63cd461c5f597e27b2a054fb,2023-08-06_08h31.26.604,HF_wild_card,2022.2.4,Win32,40.10748807,63cd461c5f597e27b2a054fb,64ce5acb97489d65b14ecc7a,64cf4bde44452db73c4ecc11,,,,,,,ctch,resources/DB.BMP,resources/DY.BMP,Door4,-0.354166667,-0.048177083,1,0,0,1.2693,optionLeft,80,10570,5,16,0,16,0,1,,,,,,,,,,,,,,,,,,,,,,,,,,,,,,,,,,,,,,,
,,,,,,,63cd461c5f597e27b2a054fb,2023-08-06_08h31.26.604,HF_wild_card,2022.2.4,Win32,40.10748807,63cd461c5f597e27b2a054fb,64ce5acb97489d65b14ecc7a,64cf4bde44452db73c4ecc11,,,,,,,decisionTrl,resources/DY.BMP,resources/DBN.BMP,Door1,-0.299479167,-0.0390625,1,0,0,2.1176,optionLeft,30,10600,5,17,0,17,0,1,,,,,,,,,,,,,,,,,,,,,,,,,,,,,,,,,,,,,,,
,,,,,,,63cd461c5f597e27b2a054fb,2023-08-06_08h31.26.604,HF_wild_card,2022.2.4,Win32,40.10748807,63cd461c5f597e27b2a054fb,64ce5acb97489d65b14ecc7a,64cf4bde44452db73c4ecc11,,,,,,,sngl,resources/Empty.png,resources/DR.BMP,Door3,0.391927083,-0.00390625,1,0,0,0.9979,optionRight,70,10670,5,18,0,18,0,1,,,,,,,,,,,,,,,,,,,,,,,,,,,,,,,,,,,,,,,
,,,,,,,63cd461c5f597e27b2a054fb,2023-08-06_08h31.26.604,HF_wild_card,2022.2.4,Win32,40.10748807,63cd461c5f597e27b2a054fb,64ce5acb97489d65b14ecc7a,64cf4bde44452db73c4ecc11,,,,,,,sngl,resources/DY.BMP,resources/Empty.png,Door1,-0.2890625,-0.022135417,1,0,0,1.197,optionLeft,30,10700,5,19,0,19,0,1,,,,,,,,,,,,,,,,,,,,,,,,,,,,,,,,,,,,,,,
,,,,,,,63cd461c5f597e27b2a054fb,2023-08-06_08h31.26.604,HF_wild_card,2022.2.4,Win32,40.10748807,63cd461c5f597e27b2a054fb,64ce5acb97489d65b14ecc7a,64cf4bde44452db73c4ecc11,,,,,,,decisionTrl,resources/DB.BMP,resources/DR.BMP,Door4,-0.34765625,0.006510417,1,0,0,2.3093,optionLeft,80,10780,5,20,0,20,0,1,,,,,,,,,,,,,,,,,,,,,,,,,,,,,,,,,,,,,,,
,,,,,,,63cd461c5f597e27b2a054fb,2023-08-06_08h31.26.604,HF_wild_card,2022.2.4,Win32,40.10748807,63cd461c5f597e27b2a054fb,64ce5acb97489d65b14ecc7a,64cf4bde44452db73c4ecc11,,,,,,,ctch,resources/DR.BMP,resources/DBN.BMP,Door3,-0.309895833,-0.084635417,1,0,0,3.0851,optionLeft,70,10850,5,21,0,21,0,1,,,,,,,,,,,,,,,,,,,,,,,,,,,,,,,,,,,,,,,
,,,,,,,63cd461c5f597e27b2a054fb,2023-08-06_08h31.26.604,HF_wild_card,2022.2.4,Win32,40.10748807,63cd461c5f597e27b2a054fb,64ce5acb97489d65b14ecc7a,64cf4bde44452db73c4ecc11,,,,,,,decisionTrl,resources/DG.BMP,resources/DB.BMP,Door4,0.358072917,-0.03515625,1,0,0,1.883,optionRight,80,10930,5,22,0,22,0,1,,,,,,,,,,,,,,,,,,,,,,,,,,,,,,,,,,,,,,,
,,,,,,,63cd461c5f597e27b2a054fb,2023-08-06_08h31.26.604,HF_wild_card,2022.2.4,Win32,40.10748807,63cd461c5f597e27b2a054fb,64ce5acb97489d65b14ecc7a,64cf4bde44452db73c4ecc11,,,,,,,decisionTrl,resources/DB.BMP,resources/DR.BMP,Door3,0.296875,-0.040364583,1,0,0,2.4317,optionRight,70,11000,5,23,0,23,0,1,,,,,,,,,,,,,,,,,,,,,,,,,,,,,,,,,,,,,,,
,,,,,,,63cd461c5f597e27b2a054fb,2023-08-06_08h31.26.604,HF_wild_card,2022.2.4,Win32,40.10748807,63cd461c5f597e27b2a054fb,64ce5acb97489d65b14ecc7a,64cf4bde44452db73c4ecc11,,,,,,,decisionTrl,resources/DBN.BMP,resources/DG.BMP,WildCard_NonEx,0.35546875,-0.049479167,1,0,0,1.4551,optionRight,55,11055,5,24,0,24,0,1,,,,,,,,,,,,,,,,,,,,,,,,,,,,,,,,,,,,,,,
,,,,,,,63cd461c5f597e27b2a054fb,2023-08-06_08h31.26.604,HF_wild_card,2022.2.4,Win32,40.10748807,63cd461c5f597e27b2a054fb,64ce5acb97489d65b14ecc7a,64cf4bde44452db73c4ecc11,,,,,,,ctch,resources/DBN.BMP,resources/DR.BMP,Door3,0.359375,-0.048177083,1,0,0,1.1689,optionRight,70,11125,5,25,0,25,0,1,,,,,,,,,,,,,,,,,,,,,,,,,,,,,,,,,,,,,,,
,,,,,,,63cd461c5f597e27b2a054fb,2023-08-06_08h31.26.604,HF_wild_card,2022.2.4,Win32,40.10748807,63cd461c5f597e27b2a054fb,64ce5acb97489d65b14ecc7a,64cf4bde44452db73c4ecc11,,,,,,,decisionTrl,resources/DY.BMP,resources/DBN.BMP,Door1,-0.380208333,-0.05859375,1,0,0,1.6145,optionLeft,30,11155,5,26,0,26,0,1,,,,,,,,,,,,,,,,,,,,,,,,,,,,,,,,,,,,,,,
,,,,,,,63cd461c5f597e27b2a054fb,2023-08-06_08h31.26.604,HF_wild_card,2022.2.4,Win32,40.10748807,63cd461c5f597e27b2a054fb,64ce5acb97489d65b14ecc7a,64cf4bde44452db73c4ecc11,,,,,,,sngl,resources/DG.BMP,resources/Empty.png,WildCard_NonEx,-0.302083333,-0.0390625,1,0,0,1.0893,optionLeft,55,11210,5,27,0,27,0,1,,,,,,,,,,,,,,,,,,,,,,,,,,,,,,,,,,,,,,,
,,,,,,,63cd461c5f597e27b2a054fb,2023-08-06_08h31.26.604,HF_wild_card,2022.2.4,Win32,40.10748807,63cd461c5f597e27b2a054fb,64ce5acb97489d65b14ecc7a,64cf4bde44452db73c4ecc11,,,,,,,decisionTrl,resources/DG.BMP,resources/DR.BMP,Door3,0.34765625,-0.018229167,1,0,0,1.6052,optionRight,70,11280,5,28,0,28,0,1,,,,,,,,,,,,,,,,,,,,,,,,,,,,,,,,,,,,,,,
,,,,,,,63cd461c5f597e27b2a054fb,2023-08-06_08h31.26.604,HF_wild_card,2022.2.4,Win32,40.10748807,63cd461c5f597e27b2a054fb,64ce5acb97489d65b14ecc7a,64cf4bde44452db73c4ecc11,,,,,,,decisionTrl,resources/DBN.BMP,resources/DY.BMP,Door1,0.388020833,-0.055989583,1,0,0,1.2419,optionRight,30,11310,5,29,0,29,0,1,,,,,,,,,,,,,,,,,,,,,,,,,,,,,,,,,,,,,,,
,,,,,,,63cd461c5f597e27b2a054fb,2023-08-06_08h31.26.604,HF_wild_card,2022.2.4,Win32,40.10748807,63cd461c5f597e27b2a054fb,64ce5acb97489d65b14ecc7a,64cf4bde44452db73c4ecc11,,,,,,,sngl,resources/DG.BMP,resources/Empty.png,WildCard_NonEx,-0.313802083,-0.02734375,1,0,0,1.2229,optionLeft,45,11355,5,30,0,30,0,1,,,,,,,,,,,,,,,,,,,,,,,,,,,,,,,,,,,,,,,
,,,,,,,63cd461c5f597e27b2a054fb,2023-08-06_08h31.26.604,HF_wild_card,2022.2.4,Win32,40.10748807,63cd461c5f597e27b2a054fb,64ce5acb97489d65b14ecc7a,64cf4bde44452db73c4ecc11,,,,,,,sngl,resources/DBN.BMP,resources/Empty.png,Door2,-0.298177083,-0.015625,1,0,0,1.0928,optionLeft,40,11395,5,31,0,31,0,1,,,,,,,,,,,,,,,,,,,,,,,,,,,,,,,,,,,,,,,
,,,,,,,63cd461c5f597e27b2a054fb,2023-08-06_08h31.26.604,HF_wild_card,2022.2.4,Win32,40.10748807,63cd461c5f597e27b2a054fb,64ce5acb97489d65b14ecc7a,64cf4bde44452db73c4ecc11,,,,,,,decisionTrl,resources/DY.BMP,resources/DG.BMP,WildCard_NonEx,0.361979167,-0.01171875,1,0,0,1.6928,optionRight,55,11450,5,32,0,32,0,1,,,,,,,,,,,,,,,,,,,,,,,,,,,,,,,,,,,,,,,
,,,,,,,63cd461c5f597e27b2a054fb,2023-08-06_08h31.26.604,HF_wild_card,2022.2.4,Win32,40.10748807,63cd461c5f597e27b2a054fb,64ce5acb97489d65b14ecc7a,64cf4bde44452db73c4ecc11,,,,,,,sngl,resources/Empty.png,resources/DB.BMP,Door4,0.29296875,-0.0390625,1,0,0,1.1502,optionRight,60,11510,5,33,0,33,0,1,,,,,,,,,,,,,,,,,,,,,,,,,,,,,,,,,,,,,,,
,,,,,,,63cd461c5f597e27b2a054fb,2023-08-06_08h31.26.604,HF_wild_card,2022.2.4,Win32,40.10748807,63cd461c5f597e27b2a054fb,64ce5acb97489d65b14ecc7a,64cf4bde44452db73c4ecc11,,,,,,,decisionTrl,resources/DR.BMP,resources/DB.BMP,Door3,-0.30078125,-0.018229167,1,0,0,2.0902,optionLeft,70,11580,5,34,0,34,0,1,,,,,,,,,,,,,,,,,,,,,,,,,,,,,,,,,,,,,,,
,,,,,,,63cd461c5f597e27b2a054fb,2023-08-06_08h31.26.604,HF_wild_card,2022.2.4,Win32,40.10748807,63cd461c5f597e27b2a054fb,64ce5acb97489d65b14ecc7a,64cf4bde44452db73c4ecc11,,,,,,,decisionTrl,resources/DY.BMP,resources/DBN.BMP,Door1,-0.3125,-0.088541667,1,0,0,3.0549,optionLeft,30,11610,5,35,0,35,0,1,,,,,,,,,,,,,,,,,,,,,,,,,,,,,,,,,,,,,,,
,,,,,,,63cd461c5f597e27b2a054fb,2023-08-06_08h31.26.604,HF_wild_card,2022.2.4,Win32,40.10748807,63cd461c5f597e27b2a054fb,64ce5acb97489d65b14ecc7a,64cf4bde44452db73c4ecc11,,,,,,,sngl,resources/Empty.png,resources/DG.BMP,WildCard_NonEx,0.2890625,-0.024739583,1,0,0,0.9641,optionRight,45,11655,5,36,0,36,0,1,,,,,,,,,,,,,,,,,,,,,,,,,,,,,,,,,,,,,,,
,,,,,,,63cd461c5f597e27b2a054fb,2023-08-06_08h31.26.604,HF_wild_card,2022.2.4,Win32,40.10748807,63cd461c5f597e27b2a054fb,64ce5acb97489d65b14ecc7a,64cf4bde44452db73c4ecc11,,,,,,,decisionTrl,resources/DBN.BMP,resources/DY.BMP,Door1,0.294270833,-0.010416667,1,0,0,2.3708,optionRight,30,11685,5,37,0,37,0,1,,,,,,,,,,,,,,,,,,,,,,,,,,,,,,,,,,,,,,,
,,,,,,,63cd461c5f597e27b2a054fb,2023-08-06_08h31.26.604,HF_wild_card,2022.2.4,Win32,40.10748807,63cd461c5f597e27b2a054fb,64ce5acb97489d65b14ecc7a,64cf4bde44452db73c4ecc11,,,,,,,decisionTrl,resources/DBN.BMP,resources/DY.BMP,Door1,0.302083333,-0.040364583,1,0,0,1.3211,optionRight,30,11715,5,38,0,38,0,1,,,,,,,,,,,,,,,,,,,,,,,,,,,,,,,,,,,,,,,
,,,,,,,63cd461c5f597e27b2a054fb,2023-08-06_08h31.26.604,HF_wild_card,2022.2.4,Win32,40.10748807,63cd461c5f597e27b2a054fb,64ce5acb97489d65b14ecc7a,64cf4bde44452db73c4ecc11,,,,,,,decisionTrl,resources/DR.BMP,resources/DB.BMP,Door3,-0.40234375,-0.052083333,1,0,0,1.9698,optionLeft,70,11785,5,39,0,39,0,1,,,,,,,,,,,,,,,,,,,,,,,,,,,,,,,,,,,,,,,
,,,,,,,63cd461c5f597e27b2a054fb,2023-08-06_08h31.26.604,HF_wild_card,2022.2.4,Win32,40.10748807,63cd461c5f597e27b2a054fb,64ce5acb97489d65b14ecc7a,64cf4bde44452db73c4ecc11,,,,,,,decisionTrl,resources/DBN.BMP,resources/DY.BMP,Door1,0.361979167,-0.009114583,1,0,0,2.1632,optionRight,30,11815,5,40,0,40,0,1,,,,,,,,,,,,,,,,,,,,,,,,,,,,,,,,,,,,,,,
,,,,,,,63cd461c5f597e27b2a054fb,2023-08-06_08h31.26.604,HF_wild_card,2022.2.4,Win32,40.10748807,63cd461c5f597e27b2a054fb,64ce5acb97489d65b14ecc7a,64cf4bde44452db73c4ecc11,,,,,,,decisionTrl,resources/DB.BMP,resources/DR.BMP,Door4,-0.34765625,-0.0546875,1,0,0,1.1407,optionLeft,80,11895,5,41,0,41,0,1,,,,,,,,,,,,,,,,,,,,,,,,,,,,,,,,,,,,,,,
,,,,,,,63cd461c5f597e27b2a054fb,2023-08-06_08h31.26.604,HF_wild_card,2022.2.4,Win32,40.10748807,63cd461c5f597e27b2a054fb,64ce5acb97489d65b14ecc7a,64cf4bde44452db73c4ecc11,,,,,,,sngl,resources/DR.BMP,resources/Empty.png,Door3,-0.311197917,-0.03515625,1,0,0,1.0947,optionLeft,70,11965,5,42,0,42,0,1,,,,,,,,,,,,,,,,,,,,,,,,,,,,,,,,,,,,,,,
,,,,,,,63cd461c5f597e27b2a054fb,2023-08-06_08h31.26.604,HF_wild_card,2022.2.4,Win32,40.10748807,63cd461c5f597e27b2a054fb,64ce5acb97489d65b14ecc7a,64cf4bde44452db73c4ecc11,,,,,,,ctch,resources/DY.BMP,resources/DB.BMP,Door4,0.341145833,0.010416667,1,0,0,1.617,optionRight,60,12025,5,43,0,43,0,1,,,,,,,,,,,,,,,,,,,,,,,,,,,,,,,,,,,,,,,
,,,,,,,63cd461c5f597e27b2a054fb,2023-08-06_08h31.26.604,HF_wild_card,2022.2.4,Win32,40.10748807,63cd461c5f597e27b2a054fb,64ce5acb97489d65b14ecc7a,64cf4bde44452db73c4ecc11,,,,,,,,,,,,,,,,,,,,,,,,,,4,0,4,0,1,,,,,,,,,,,,,,,,,,,,,,,,,,,,,,,,,,
,,,,,,,63cd461c5f597e27b2a054fb,2023-08-06_08h31.26.604,HF_wild_card,2022.2.4,Win32,40.10748807,63cd461c5f597e27b2a054fb,64ce5acb97489d65b14ecc7a,64cf4bde44452db73c4ecc11,,,,,,,decisionTrl,resources/DR.BMP,resources/DB.BMP,Door4,0.286458333,-0.045572917,1,0,0,3.2428,optionRight,80,12105,6,0,0,0,0,1,,,,,,,,,,,,,,,,,,,,,,,,,,,,,,,,,,,,,,,
,,,,,,,63cd461c5f597e27b2a054fb,2023-08-06_08h31.26.604,HF_wild_card,2022.2.4,Win32,40.10748807,63cd461c5f597e27b2a054fb,64ce5acb97489d65b14ecc7a,64cf4bde44452db73c4ecc11,,,,,,,sngl,resources/Empty.png,resources/DR.BMP,Door3,0.251302083,-0.037760417,1,0,0,0.9187,optionRight,70,12175,6,1,0,1,0,1,,,,,,,,,,,,,,,,,,,,,,,,,,,,,,,,,,,,,,,
,,,,,,,63cd461c5f597e27b2a054fb,2023-08-06_08h31.26.604,HF_wild_card,2022.2.4,Win32,40.10748807,63cd461c5f597e27b2a054fb,64ce5acb97489d65b14ecc7a,64cf4bde44452db73c4ecc11,,,,,,,sngl,resources/DB.BMP,resources/Empty.png,Door4,-0.37109375,-0.03125,1,0,0,1.0895,optionLeft,60,12235,6,2,0,2,0,1,,,,,,,,,,,,,,,,,,,,,,,,,,,,,,,,,,,,,,,
,,,,,,,63cd461c5f597e27b2a054fb,2023-08-06_08h31.26.604,HF_wild_card,2022.2.4,Win32,40.10748807,63cd461c5f597e27b2a054fb,64ce5acb97489d65b14ecc7a,64cf4bde44452db73c4ecc11,,,,,,,decisionTrl,resources/DY.BMP,resources/DBN.BMP,Door2,0.32421875,-0.009114583,1,0,0,2.2308,optionRight,20,12255,6,3,0,3,0,1,,,,,,,,,,,,,,,,,,,,,,,,,,,,,,,,,,,,,,,
,,,,,,,63cd461c5f597e27b2a054fb,2023-08-06_08h31.26.604,HF_wild_card,2022.2.4,Win32,40.10748807,63cd461c5f597e27b2a054fb,64ce5acb97489d65b14ecc7a,64cf4bde44452db73c4ecc11,,,,,,,decisionTrl,resources/DBN.BMP,resources/DY.BMP,Door2,-0.438802083,-0.045572917,1,0,0,1.0853,optionLeft,40,12295,6,4,0,4,0,1,,,,,,,,,,,,,,,,,,,,,,,,,,,,,,,,,,,,,,,
,,,,,,,63cd461c5f597e27b2a054fb,2023-08-06_08h31.26.604,HF_wild_card,2022.2.4,Win32,40.10748807,63cd461c5f597e27b2a054fb,64ce5acb97489d65b14ecc7a,64cf4bde44452db73c4ecc11,,,,,,,decisionTrl,resources/DR.BMP,resources/DG.BMP,Door3,-0.440104167,-0.083333333,1,0,0,1.5417,optionLeft,70,12365,6,5,0,5,0,1,,,,,,,,,,,,,,,,,,,,,,,,,,,,,,,,,,,,,,,
,,,,,,,63cd461c5f597e27b2a054fb,2023-08-06_08h31.26.604,HF_wild_card,2022.2.4,Win32,40.10748807,63cd461c5f597e27b2a054fb,64ce5acb97489d65b14ecc7a,64cf4bde44452db73c4ecc11,,,,,,,sngl,resources/Empty.png,resources/DG.BMP,WildCard_NonEx,0.296875,-0.041666667,1,0,0,1.0686,optionRight,45,12410,6,6,0,6,0,1,,,,,,,,,,,,,,,,,,,,,,,,,,,,,,,,,,,,,,,
,,,,,,,63cd461c5f597e27b2a054fb,2023-08-06_08h31.26.604,HF_wild_card,2022.2.4,Win32,40.10748807,63cd461c5f597e27b2a054fb,64ce5acb97489d65b14ecc7a,64cf4bde44452db73c4ecc11,,,,,,,sngl,resources/Empty.png,resources/DB.BMP,Door4,0.229166667,-0.032552083,1,0,0,1.1412,optionRight,80,12490,6,7,0,7,0,1,,,,,,,,,,,,,,,,,,,,,,,,,,,,,,,,,,,,,,,
,,,,,,,63cd461c5f597e27b2a054fb,2023-08-06_08h31.26.604,HF_wild_card,2022.2.4,Win32,40.10748807,63cd461c5f597e27b2a054fb,64ce5acb97489d65b14ecc7a,64cf4bde44452db73c4ecc11,,,,,,,ctch,resources/DR.BMP,resources/DBN.BMP,Door3,-0.372395833,-0.029947917,1,0,0,1.1653,optionLeft,70,12560,6,8,0,8,0,1,,,,,,,,,,,,,,,,,,,,,,,,,,,,,,,,,,,,,,,
,,,,,,,63cd461c5f597e27b2a054fb,2023-08-06_08h31.26.604,HF_wild_card,2022.2.4,Win32,40.10748807,63cd461c5f597e27b2a054fb,64ce5acb97489d65b14ecc7a,64cf4bde44452db73c4ecc11,,,,,,,ctch,resources/DY.BMP,resources/DB.BMP,Door4,0.244791667,-0.037760417,1,0,0,1.4918,optionRight,80,12640,6,9,0,9,0,1,,,,,,,,,,,,,,,,,,,,,,,,,,,,,,,,,,,,,,,
,,,,,,,63cd461c5f597e27b2a054fb,2023-08-06_08h31.26.604,HF_wild_card,2022.2.4,Win32,40.10748807,63cd461c5f597e27b2a054fb,64ce5acb97489d65b14ecc7a,64cf4bde44452db73c4ecc11,,,,,,,decisionTrl,resources/DB.BMP,resources/DG.BMP,Door4,-0.38671875,-0.0390625,1,0,0,1.8683,optionLeft,80,12720,6,10,0,10,0,1,,,,,,,,,,,,,,,,,,,,,,,,,,,,,,,,,,,,,,,
,,,,,,,63cd461c5f597e27b2a054fb,2023-08-06_08h31.26.604,HF_wild_card,2022.2.4,Win32,40.10748807,63cd461c5f597e27b2a054fb,64ce5acb97489d65b14ecc7a,64cf4bde44452db73c4ecc11,,,,,,,ctch,resources/DB.BMP,resources/DY.BMP,Door4,-0.329427083,-0.0625,1,0,0,1.3455,optionLeft,80,12800,6,11,0,11,0,1,,,,,,,,,,,,,,,,,,,,,,,,,,,,,,,,,,,,,,,
,,,,,,,63cd461c5f597e27b2a054fb,2023-08-06_08h31.26.604,HF_wild_card,2022.2.4,Win32,40.10748807,63cd461c5f597e27b2a054fb,64ce5acb97489d65b14ecc7a,64cf4bde44452db73c4ecc11,,,,,,,decisionTrl,resources/DY.BMP,resources/DG.BMP,WildCard_NonEx,0.377604167,-0.018229167,1,0,0,1.8854,optionRight,45,12845,6,12,0,12,0,1,,,,,,,,,,,,,,,,,,,,,,,,,,,,,,,,,,,,,,,
,,,,,,,63cd461c5f597e27b2a054fb,2023-08-06_08h31.26.604,HF_wild_card,2022.2.4,Win32,40.10748807,63cd461c5f597e27b2a054fb,64ce5acb97489d65b14ecc7a,64cf4bde44452db73c4ecc11,,,,,,,decisionTrl,resources/DG.BMP,resources/DR.BMP,Door3,0.294270833,-0.036458333,1,0,0,1.3422,optionRight,70,12915,6,13,0,13,0,1,,,,,,,,,,,,,,,,,,,,,,,,,,,,,,,,,,,,,,,
,,,,,,,63cd461c5f597e27b2a054fb,2023-08-06_08h31.26.604,HF_wild_card,2022.2.4,Win32,40.10748807,63cd461c5f597e27b2a054fb,64ce5acb97489d65b14ecc7a,64cf4bde44452db73c4ecc11,,,,,,,sngl,resources/DY.BMP,resources/Empty.png,Door1,-0.295572917,-0.010416667,1,0,0,0.9675,optionLeft,30,12945,6,14,0,14,0,1,,,,,,,,,,,,,,,,,,,,,,,,,,,,,,,,,,,,,,,
,,,,,,,63cd461c5f597e27b2a054fb,2023-08-06_08h31.26.604,HF_wild_card,2022.2.4,Win32,40.10748807,63cd461c5f597e27b2a054fb,64ce5acb97489d65b14ecc7a,64cf4bde44452db73c4ecc11,,,,,,,decisionTrl,resources/DY.BMP,resources/DBN.BMP,Door1,-0.216145833,-0.033854167,1,0,0,2.3157,optionLeft,30,12975,6,15,0,15,0,1,,,,,,,,,,,,,,,,,,,,,,,,,,,,,,,,,,,,,,,
,,,,,,,63cd461c5f597e27b2a054fb,2023-08-06_08h31.26.604,HF_wild_card,2022.2.4,Win32,40.10748807,63cd461c5f597e27b2a054fb,64ce5acb97489d65b14ecc7a,64cf4bde44452db73c4ecc11,,,,,,,sngl,resources/Empty.png,resources/DBN.BMP,Door2,0.3203125,-0.009114583,1,0,0,0.917,optionRight,40,13015,6,16,0,16,0,1,,,,,,,,,,,,,,,,,,,,,,,,,,,,,,,,,,,,,,,
,,,,,,,63cd461c5f597e27b2a054fb,2023-08-06_08h31.26.604,HF_wild_card,2022.2.4,Win32,40.10748807,63cd461c5f597e27b2a054fb,64ce5acb97489d65b14ecc7a,64cf4bde44452db73c4ecc11,,,,,,,decisionTrl,resources/DB.BMP,resources/DR.BMP,Door4,-0.34765625,-0.016927083,1,0,0,1.4893,optionLeft,60,13075,6,17,0,17,0,1,,,,,,,,,,,,,,,,,,,,,,,,,,,,,,,,,,,,,,,
,,,,,,,63cd461c5f597e27b2a054fb,2023-08-06_08h31.26.604,HF_wild_card,2022.2.4,Win32,40.10748807,63cd461c5f597e27b2a054fb,64ce5acb97489d65b14ecc7a,64cf4bde44452db73c4ecc11,,,,,,,sngl,resources/Empty.png,resources/DY.BMP,Door1,0.234375,-0.08984375,1,0,0,1.2667,optionRight,30,13105,6,18,0,18,0,1,,,,,,,,,,,,,,,,,,,,,,,,,,,,,,,,,,,,,,,
,,,,,,,63cd461c5f597e27b2a054fb,2023-08-06_08h31.26.604,HF_wild_card,2022.2.4,Win32,40.10748807,63cd461c5f597e27b2a054fb,64ce5acb97489d65b14ecc7a,64cf4bde44452db73c4ecc11,,,,,,,decisionTrl,resources/DB.BMP,resources/DR.BMP,Door3,0.350260417,-0.033854167,1,0,0,1.0903,optionRight,70,13175,6,19,0,19,0,1,,,,,,,,,,,,,,,,,,,,,,,,,,,,,,,,,,,,,,,
,,,,,,,63cd461c5f597e27b2a054fb,2023-08-06_08h31.26.604,HF_wild_card,2022.2.4,Win32,40.10748807,63cd461c5f597e27b2a054fb,64ce5acb97489d65b14ecc7a,64cf4bde44452db73c4ecc11,,,,,,,sngl,resources/DBN.BMP,resources/Empty.png,Door2,-0.305989583,-0.0234375,1,0,0,1.6582,optionLeft,20,13195,6,20,0,20,0,1,,,,,,,,,,,,,,,,,,,,,,,,,,,,,,,,,,,,,,,
,,,,,,,63cd461c5f597e27b2a054fb,2023-08-06_08h31.26.604,HF_wild_card,2022.2.4,Win32,40.10748807,63cd461c5f597e27b2a054fb,64ce5acb97489d65b14ecc7a,64cf4bde44452db73c4ecc11,,,,,,,sngl,resources/DG.BMP,resources/Empty.png,WildCard_NonEx,-0.302083333,-0.063802083,1,0,0,0.8653,optionLeft,55,13250,6,21,0,21,0,1,,,,,,,,,,,,,,,,,,,,,,,,,,,,,,,,,,,,,,,
,,,,,,,63cd461c5f597e27b2a054fb,2023-08-06_08h31.26.604,HF_wild_card,2022.2.4,Win32,40.10748807,63cd461c5f597e27b2a054fb,64ce5acb97489d65b14ecc7a,64cf4bde44452db73c4ecc11,,,,,,,decisionTrl,resources/DBN.BMP,resources/DG.BMP,WildCard_NonEx,0.399739583,-0.016927083,1,0,0,1.0447,optionRight,45,13295,6,22,0,22,0,1,,,,,,,,,,,,,,,,,,,,,,,,,,,,,,,,,,,,,,,
,,,,,,,63cd461c5f597e27b2a054fb,2023-08-06_08h31.26.604,HF_wild_card,2022.2.4,Win32,40.10748807,63cd461c5f597e27b2a054fb,64ce5acb97489d65b14ecc7a,64cf4bde44452db73c4ecc11,,,,,,,decisionTrl,resources/DG.BMP,resources/DB.BMP,Door4,0.341145833,-0.0078125,1,0,0,1.4392,optionRight,80,13375,6,23,0,23,0,1,,,,,,,,,,,,,,,,,,,,,,,,,,,,,,,,,,,,,,,
,,,,,,,63cd461c5f597e27b2a054fb,2023-08-06_08h31.26.604,HF_wild_card,2022.2.4,Win32,40.10748807,63cd461c5f597e27b2a054fb,64ce5acb97489d65b14ecc7a,64cf4bde44452db73c4ecc11,,,,,,,ctch,resources/DB.BMP,resources/DY.BMP,Door4,-0.404947917,0.013020833,1,0,0,1.8389,optionLeft,80,13455,6,24,0,24,0,1,,,,,,,,,,,,,,,,,,,,,,,,,,,,,,,,,,,,,,,
,,,,,,,63cd461c5f597e27b2a054fb,2023-08-06_08h31.26.604,HF_wild_card,2022.2.4,Win32,40.10748807,63cd461c5f597e27b2a054fb,64ce5acb97489d65b14ecc7a,64cf4bde44452db73c4ecc11,,,,,,,decisionTrl,resources/DY.BMP,resources/DBN.BMP,Door1,-0.296875,-0.08984375,1,0,0,2.614,optionLeft,30,13485,6,25,0,25,0,1,,,,,,,,,,,,,,,,,,,,,,,,,,,,,,,,,,,,,,,
,,,,,,,63cd461c5f597e27b2a054fb,2023-08-06_08h31.26.604,HF_wild_card,2022.2.4,Win32,40.10748807,63cd461c5f597e27b2a054fb,64ce5acb97489d65b14ecc7a,64cf4bde44452db73c4ecc11,,,,,,,sngl,resources/DG.BMP,resources/Empty.png,WildCard_NonEx,-0.33203125,-0.0703125,1,0,0,1.4336,optionLeft,45,13530,6,26,0,26,0,1,,,,,,,,,,,,,,,,,,,,,,,,,,,,,,,,,,,,,,,
,,,,,,,63cd461c5f597e27b2a054fb,2023-08-06_08h31.26.604,HF_wild_card,2022.2.4,Win32,40.10748807,63cd461c5f597e27b2a054fb,64ce5acb97489d65b14ecc7a,64cf4bde44452db73c4ecc11,,,,,,,ctch,resources/DBN.BMP,resources/DR.BMP,Door3,0.36328125,-0.049479167,1,0,0,1.1688,optionRight,70,13600,6,27,0,27,0,1,,,,,,,,,,,,,,,,,,,,,,,,,,,,,,,,,,,,,,,
,,,,,,,63cd461c5f597e27b2a054fb,2023-08-06_08h31.26.604,HF_wild_card,2022.2.4,Win32,40.10748807,63cd461c5f597e27b2a054fb,64ce5acb97489d65b14ecc7a,64cf4bde44452db73c4ecc11,,,,,,,decisionTrl,resources/DR.BMP,resources/DB.BMP,Door3,-0.333333333,-0.029947917,1,0,0,2.7139,optionLeft,70,13670,6,28,0,28,0,1,,,,,,,,,,,,,,,,,,,,,,,,,,,,,,,,,,,,,,,
,,,,,,,63cd461c5f597e27b2a054fb,2023-08-06_08h31.26.604,HF_wild_card,2022.2.4,Win32,40.10748807,63cd461c5f597e27b2a054fb,64ce5acb97489d65b14ecc7a,64cf4bde44452db73c4ecc11,,,,,,,decisionTrl,resources/DBN.BMP,resources/DY.BMP,Door1,0.36328125,-0.032552083,1,0,0,2.0636,optionRight,30,13700,6,29,0,29,0,1,,,,,,,,,,,,,,,,,,,,,,,,,,,,,,,,,,,,,,,
,,,,,,,63cd461c5f597e27b2a054fb,2023-08-06_08h31.26.604,HF_wild_card,2022.2.4,Win32,40.10748807,63cd461c5f597e27b2a054fb,64ce5acb97489d65b14ecc7a,64cf4bde44452db73c4ecc11,,,,,,,decisionTrl,resources/DB.BMP,resources/DR.BMP,Door4,-0.37109375,-0.059895833,1,0,0,1.144,optionLeft,80,13780,6,30,0,30,0,1,,,,,,,,,,,,,,,,,,,,,,,,,,,,,,,,,,,,,,,
,,,,,,,63cd461c5f597e27b2a054fb,2023-08-06_08h31.26.604,HF_wild_card,2022.2.4,Win32,40.10748807,63cd461c5f597e27b2a054fb,64ce5acb97489d65b14ecc7a,64cf4bde44452db73c4ecc11,,,,,,,ctch,resources/DBN.BMP,resources/DR.BMP,Door3,0.29296875,-0.040364583,1,0,0,1.271,optionRight,70,13850,6,31,0,31,0,1,,,,,,,,,,,,,,,,,,,,,,,,,,,,,,,,,,,,,,,
,,,,,,,63cd461c5f597e27b2a054fb,2023-08-06_08h31.26.604,HF_wild_card,2022.2.4,Win32,40.10748807,63cd461c5f597e27b2a054fb,64ce5acb97489d65b14ecc7a,64cf4bde44452db73c4ecc11,,,,,,,sngl,resources/DR.BMP,resources/Empty.png,Door3,-0.317708333,-0.044270833,1,0,0,0.9431,optionLeft,70,13920,6,32,0,32,0,1,,,,,,,,,,,,,,,,,,,,,,,,,,,,,,,,,,,,,,,
,,,,,,,63cd461c5f597e27b2a054fb,2023-08-06_08h31.26.604,HF_wild_card,2022.2.4,Win32,40.10748807,63cd461c5f597e27b2a054fb,64ce5acb97489d65b14ecc7a,64cf4bde44452db73c4ecc11,,,,,,,sngl,resources/Empty.png,resources/DG.BMP,WildCard_NonEx,0.256510417,-0.005208333,1,0,0,0.9172,optionRight,55,13975,6,33,0,33,0,1,,,,,,,,,,,,,,,,,,,,,,,,,,,,,,,,,,,,,,,
,,,,,,,63cd461c5f597e27b2a054fb,2023-08-06_08h31.26.604,HF_wild_card,2022.2.4,Win32,40.10748807,63cd461c5f597e27b2a054fb,64ce5acb97489d65b14ecc7a,64cf4bde44452db73c4ecc11,,,,,,,decisionTrl,resources/DBN.BMP,resources/DY.BMP,Door1,0.30078125,-0.002604167,1,0,0,2.0052,optionRight,30,14005,6,34,0,34,0,1,,,,,,,,,,,,,,,,,,,,,,,,,,,,,,,,,,,,,,,
,,,,,,,63cd461c5f597e27b2a054fb,2023-08-06_08h31.26.604,HF_wild_card,2022.2.4,Win32,40.10748807,63cd461c5f597e27b2a054fb,64ce5acb97489d65b14ecc7a,64cf4bde44452db73c4ecc11,,,,,,,decisionTrl,resources/DR.BMP,resources/DB.BMP,Door3,-0.385416667,-0.03125,1,0,0,2.6829,optionLeft,70,14075,6,35,0,35,0,1,,,,,,,,,,,,,,,,,,,,,,,,,,,,,,,,,,,,,,,
,,,,,,,63cd461c5f597e27b2a054fb,2023-08-06_08h31.26.604,HF_wild_card,2022.2.4,Win32,40.10748807,63cd461c5f597e27b2a054fb,64ce5acb97489d65b14ecc7a,64cf4bde44452db73c4ecc11,,,,,,,decisionTrl,resources/DG.BMP,resources/DY.BMP,WildCard_NonEx,-0.356770833,-0.07421875,1,0,0,1.1164,optionLeft,55,14130,6,36,0,36,0,1,,,,,,,,,,,,,,,,,,,,,,,,,,,,,,,,,,,,,,,
,,,,,,,63cd461c5f597e27b2a054fb,2023-08-06_08h31.26.604,HF_wild_card,2022.2.4,Win32,40.10748807,63cd461c5f597e27b2a054fb,64ce5acb97489d65b14ecc7a,64cf4bde44452db73c4ecc11,,,,,,,decisionTrl,resources/DG.BMP,resources/DBN.BMP,WildCard_NonEx,-0.298177083,-0.0234375,1,0,0,1.0179,optionLeft,55,14185,6,37,0,37,0,1,,,,,,,,,,,,,,,,,,,,,,,,,,,,,,,,,,,,,,,
,,,,,,,63cd461c5f597e27b2a054fb,2023-08-06_08h31.26.604,HF_wild_card,2022.2.4,Win32,40.10748807,63cd461c5f597e27b2a054fb,64ce5acb97489d65b14ecc7a,64cf4bde44452db73c4ecc11,,,,,,,decisionTrl,resources/DB.BMP,resources/DR.BMP,Door4,-0.432291667,-0.044270833,1,0,0,1.0932,optionLeft,60,14245,6,38,0,38,0,1,,,,,,,,,,,,,,,,,,,,,,,,,,,,,,,,,,,,,,,
,,,,,,,63cd461c5f597e27b2a054fb,2023-08-06_08h31.26.604,HF_wild_card,2022.2.4,Win32,40.10748807,63cd461c5f597e27b2a054fb,64ce5acb97489d65b14ecc7a,64cf4bde44452db73c4ecc11,,,,,,,ctch,resources/DY.BMP,resources/DB.BMP,Door4,0.330729167,-0.037760417,1,0,0,0.9183,optionRight,60,14305,6,39,0,39,0,1,,,,,,,,,,,,,,,,,,,,,,,,,,,,,,,,,,,,,,,
,,,,,,,63cd461c5f597e27b2a054fb,2023-08-06_08h31.26.604,HF_wild_card,2022.2.4,Win32,40.10748807,63cd461c5f597e27b2a054fb,64ce5acb97489d65b14ecc7a,64cf4bde44452db73c4ecc11,,,,,,,decisionTrl,resources/DBN.BMP,resources/DY.BMP,Door2,-0.3359375,-0.005208333,1,0,0,3.8649,optionLeft,40,14345,6,40,0,40,0,1,,,,,,,,,,,,,,,,,,,,,,,,,,,,,,,,,,,,,,,
,,,,,,,63cd461c5f597e27b2a054fb,2023-08-06_08h31.26.604,HF_wild_card,2022.2.4,Win32,40.10748807,63cd461c5f597e27b2a054fb,64ce5acb97489d65b14ecc7a,64cf4bde44452db73c4ecc11,,,,,,,ctch,resources/DR.BMP,resources/DBN.BMP,Door3,-0.291666667,-0.065104167,1,0,0,1.2148,optionLeft,70,14415,6,41,0,41,0,1,,,,,,,,,,,,,,,,,,,,,,,,,,,,,,,,,,,,,,,
,,,,,,,63cd461c5f597e27b2a054fb,2023-08-06_08h31.26.604,HF_wild_card,2022.2.4,Win32,40.10748807,63cd461c5f597e27b2a054fb,64ce5acb97489d65b14ecc7a,64cf4bde44452db73c4ecc11,,,,,,,decisionTrl,resources/DY.BMP,resources/DBN.BMP,Door1,-0.290364583,-0.015625,1,0,0,3.8861,optionLeft,30,14445,6,42,0,42,0,1,,,,,,,,,,,,,,,,,,,,,,,,,,,,,,,,,,,,,,,
,,,,,,,63cd461c5f597e27b2a054fb,2023-08-06_08h31.26.604,HF_wild_card,2022.2.4,Win32,40.10748807,63cd461c5f597e27b2a054fb,64ce5acb97489d65b14ecc7a,64cf4bde44452db73c4ecc11,,,,,,,decisionTrl,resources/DR.BMP,resources/DB.BMP,Door3,-0.368489583,-0.033854167,1,0,0,2.2375,optionLeft,70,14515,6,43,0,43,0,1,,,,,,,,,,,,,,,,,,,,,,,,,,,,,,,,,,,,,,,
,,,,,,,63cd461c5f597e27b2a054fb,2023-08-06_08h31.26.604,HF_wild_card,2022.2.4,Win32,40.10748807,63cd461c5f597e27b2a054fb,64ce5acb97489d65b14ecc7a,64cf4bde44452db73c4ecc11,,,,,,,,,,,,,,,,,,,,,,,,,,5,0,5,0,1,,,,,,,,,,,,,,,,,,,,,,,,,,,,,,,,,,
,,,,,,,63cd461c5f597e27b2a054fb,2023-08-06_08h31.26.604,HF_wild_card,2022.2.4,Win32,40.10748807,63cd461c5f597e27b2a054fb,64ce5acb97489d65b14ecc7a,64cf4bde44452db73c4ecc11,,,,,,,ctch,resources/DR.BMP,resources/DBN.BMP,Door3,-0.350260417,-0.110677083,1,0,0,1.6656,optionLeft,70,14585,7,0,0,0,0,1,,,,,,,,,,,,,,,,,,,,,,,,,,,,,,,,,,,,,,,
,,,,,,,63cd461c5f597e27b2a054fb,2023-08-06_08h31.26.604,HF_wild_card,2022.2.4,Win32,40.10748807,63cd461c5f597e27b2a054fb,64ce5acb97489d65b14ecc7a,64cf4bde44452db73c4ecc11,,,,,,,decisionTrl,resources/DBN.BMP,resources/DY.BMP,Door2,-0.354166667,-0.053385417,1,0,0,2.5961,optionLeft,40,14625,7,1,0,1,0,1,,,,,,,,,,,,,,,,,,,,,,,,,,,,,,,,,,,,,,,
,,,,,,,63cd461c5f597e27b2a054fb,2023-08-06_08h31.26.604,HF_wild_card,2022.2.4,Win32,40.10748807,63cd461c5f597e27b2a054fb,64ce5acb97489d65b14ecc7a,64cf4bde44452db73c4ecc11,,,,,,,decisionTrl,resources/DBN.BMP,resources/DY.BMP,Door2,-0.34375,-0.059895833,1,0,0,1.4441,optionLeft,20,14645,7,2,0,2,0,1,,,,,,,,,,,,,,,,,,,,,,,,,,,,,,,,,,,,,,,
,,,,,,,63cd461c5f597e27b2a054fb,2023-08-06_08h31.26.604,HF_wild_card,2022.2.4,Win32,40.10748807,63cd461c5f597e27b2a054fb,64ce5acb97489d65b14ecc7a,64cf4bde44452db73c4ecc11,,,,,,,ctch,resources/DBN.BMP,resources/DR.BMP,Door3,0.365885417,-0.037760417,1,0,0,1.1641,optionRight,70,14715,7,3,0,3,0,1,,,,,,,,,,,,,,,,,,,,,,,,,,,,,,,,,,,,,,,
,,,,,,,63cd461c5f597e27b2a054fb,2023-08-06_08h31.26.604,HF_wild_card,2022.2.4,Win32,40.10748807,63cd461c5f597e27b2a054fb,64ce5acb97489d65b14ecc7a,64cf4bde44452db73c4ecc11,,,,,,,decisionTrl,resources/DR.BMP,resources/DB.BMP,Door3,-0.3671875,-0.05078125,1,0,0,1.964,optionLeft,70,14785,7,4,0,4,0,1,,,,,,,,,,,,,,,,,,,,,,,,,,,,,,,,,,,,,,,
,,,,,,,63cd461c5f597e27b2a054fb,2023-08-06_08h31.26.604,HF_wild_card,2022.2.4,Win32,40.10748807,63cd461c5f597e27b2a054fb,64ce5acb97489d65b14ecc7a,64cf4bde44452db73c4ecc11,,,,,,,decisionTrl,resources/DY.BMP,resources/DBN.BMP,Door1,-0.3046875,-0.05859375,1,0,0,2.1149,optionLeft,30,14815,7,5,0,5,0,1,,,,,,,,,,,,,,,,,,,,,,,,,,,,,,,,,,,,,,,
,,,,,,,63cd461c5f597e27b2a054fb,2023-08-06_08h31.26.604,HF_wild_card,2022.2.4,Win32,40.10748807,63cd461c5f597e27b2a054fb,64ce5acb97489d65b14ecc7a,64cf4bde44452db73c4ecc11,,,,,,,decisionTrl,resources/DBN.BMP,resources/DY.BMP,Door2,-0.376302083,-0.0390625,1,0,0,1.6406,optionLeft,40,14855,7,6,0,6,0,1,,,,,,,,,,,,,,,,,,,,,,,,,,,,,,,,,,,,,,,
,,,,,,,63cd461c5f597e27b2a054fb,2023-08-06_08h31.26.604,HF_wild_card,2022.2.4,Win32,40.10748807,63cd461c5f597e27b2a054fb,64ce5acb97489d65b14ecc7a,64cf4bde44452db73c4ecc11,,,,,,,decisionTrl,resources/DB.BMP,resources/DR.BMP,Door4,-0.373697917,-0.061197917,1,0,0,1.3187,optionLeft,60,14915,7,7,0,7,0,1,,,,,,,,,,,,,,,,,,,,,,,,,,,,,,,,,,,,,,,
,,,,,,,63cd461c5f597e27b2a054fb,2023-08-06_08h31.26.604,HF_wild_card,2022.2.4,Win32,40.10748807,63cd461c5f597e27b2a054fb,64ce5acb97489d65b14ecc7a,64cf4bde44452db73c4ecc11,,,,,,,decisionTrl,resources/DB.BMP,resources/DR.BMP,Door4,-0.381510417,-0.044270833,1,0,0,1.246,optionLeft,80,14995,7,8,0,8,0,1,,,,,,,,,,,,,,,,,,,,,,,,,,,,,,,,,,,,,,,
,,,,,,,63cd461c5f597e27b2a054fb,2023-08-06_08h31.26.604,HF_wild_card,2022.2.4,Win32,40.10748807,63cd461c5f597e27b2a054fb,64ce5acb97489d65b14ecc7a,64cf4bde44452db73c4ecc11,,,,,,,ctch,resources/DR.BMP,resources/DBN.BMP,Door3,-0.368489583,-0.045572917,1,0,0,1.2639,optionLeft,70,15065,7,9,0,9,0,1,,,,,,,,,,,,,,,,,,,,,,,,,,,,,,,,,,,,,,,
,,,,,,,63cd461c5f597e27b2a054fb,2023-08-06_08h31.26.604,HF_wild_card,2022.2.4,Win32,40.10748807,63cd461c5f597e27b2a054fb,64ce5acb97489d65b14ecc7a,64cf4bde44452db73c4ecc11,,,,,,,ctch,resources/DB.BMP,resources/DY.BMP,Door4,-0.37109375,-0.0390625,1,0,0,1.567,optionLeft,80,15145,7,10,0,10,0,1,,,,,,,,,,,,,,,,,,,,,,,,,,,,,,,,,,,,,,,
,,,,,,,63cd461c5f597e27b2a054fb,2023-08-06_08h31.26.604,HF_wild_card,2022.2.4,Win32,40.10748807,63cd461c5f597e27b2a054fb,64ce5acb97489d65b14ecc7a,64cf4bde44452db73c4ecc11,,,,,,,decisionTrl,resources/DY.BMP,resources/DBN.BMP,Door1,-0.350260417,-0.053385417,1,0,0,1.1926,optionLeft,30,15175,7,11,0,11,0,1,,,,,,,,,,,,,,,,,,,,,,,,,,,,,,,,,,,,,,,
,,,,,,,63cd461c5f597e27b2a054fb,2023-08-06_08h31.26.604,HF_wild_card,2022.2.4,Win32,40.10748807,63cd461c5f597e27b2a054fb,64ce5acb97489d65b14ecc7a,64cf4bde44452db73c4ecc11,,,,,,,decisionTrl,resources/DBN.BMP,resources/DY.BMP,Door2,-0.317708333,-0.083333333,1,0,0,1.642,optionLeft,20,15195,7,12,0,12,0,1,,,,,,,,,,,,,,,,,,,,,,,,,,,,,,,,,,,,,,,
,,,,,,,63cd461c5f597e27b2a054fb,2023-08-06_08h31.26.604,HF_wild_card,2022.2.4,Win32,40.10748807,63cd461c5f597e27b2a054fb,64ce5acb97489d65b14ecc7a,64cf4bde44452db73c4ecc11,,,,,,,ctch,resources/DY.BMP,resources/DB.BMP,Door4,0.333333333,-0.026041667,1,0,0,1.447,optionRight,80,15275,7,13,0,13,0,1,,,,,,,,,,,,,,,,,,,,,,,,,,,,,,,,,,,,,,,
,,,,,,,63cd461c5f597e27b2a054fb,2023-08-06_08h31.26.604,HF_wild_card,2022.2.4,Win32,40.10748807,63cd461c5f597e27b2a054fb,64ce5acb97489d65b14ecc7a,64cf4bde44452db73c4ecc11,,,,,,,decisionTrl,resources/DB.BMP,resources/DR.BMP,Door3,0.287760417,-0.03125,1,0,0,1.5714,optionRight,70,15345,7,14,0,14,0,1,,,,,,,,,,,,,,,,,,,,,,,,,,,,,,,,,,,,,,,
,,,,,,,63cd461c5f597e27b2a054fb,2023-08-06_08h31.26.604,HF_wild_card,2022.2.4,Win32,40.10748807,63cd461c5f597e27b2a054fb,64ce5acb97489d65b14ecc7a,64cf4bde44452db73c4ecc11,,,,,,,decisionTrl,resources/DR.BMP,resources/DB.BMP,Door3,-0.348958333,-0.024739583,1,0,0,1.8653,optionLeft,70,15415,7,15,0,15,0,1,,,,,,,,,,,,,,,,,,,,,,,,,,,,,,,,,,,,,,,
,,,,,,,63cd461c5f597e27b2a054fb,2023-08-06_08h31.26.604,HF_wild_card,2022.2.4,Win32,40.10748807,63cd461c5f597e27b2a054fb,64ce5acb97489d65b14ecc7a,64cf4bde44452db73c4ecc11,,,,,,,decisionTrl,resources/DB.BMP,resources/DR.BMP,Door3,0.322916667,-0.055989583,1,0,0,1.6172,optionRight,70,15485,7,16,0,16,0,1,,,,,,,,,,,,,,,,,,,,,,,,,,,,,,,,,,,,,,,
,,,,,,,63cd461c5f597e27b2a054fb,2023-08-06_08h31.26.604,HF_wild_card,2022.2.4,Win32,40.10748807,63cd461c5f597e27b2a054fb,64ce5acb97489d65b14ecc7a,64cf4bde44452db73c4ecc11,,,,,,,decisionTrl,resources/DR.BMP,resources/DB.BMP,Door3,-0.3828125,-0.048177083,1,0,0,1.7419,optionLeft,70,15555,7,17,0,17,0,1,,,,,,,,,,,,,,,,,,,,,,,,,,,,,,,,,,,,,,,
,,,,,,,63cd461c5f597e27b2a054fb,2023-08-06_08h31.26.604,HF_wild_card,2022.2.4,Win32,40.10748807,63cd461c5f597e27b2a054fb,64ce5acb97489d65b14ecc7a,64cf4bde44452db73c4ecc11,,,,,,,ctch,resources/DR.BMP,resources/DBN.BMP,Door3,-0.350260417,-0.024739583,1,0,0,1.2435,optionLeft,70,15625,7,18,0,18,0,1,,,,,,,,,,,,,,,,,,,,,,,,,,,,,,,,,,,,,,,
,,,,,,,63cd461c5f597e27b2a054fb,2023-08-06_08h31.26.604,HF_wild_card,2022.2.4,Win32,40.10748807,63cd461c5f597e27b2a054fb,64ce5acb97489d65b14ecc7a,64cf4bde44452db73c4ecc11,,,,,,,decisionTrl,resources/DBN.BMP,resources/DY.BMP,Door1,0.295572917,-0.049479167,1,0,0,1.9915,optionRight,30,15655,7,19,0,19,0,1,,,,,,,,,,,,,,,,,,,,,,,,,,,,,,,,,,,,,,,
,,,,,,,63cd461c5f597e27b2a054fb,2023-08-06_08h31.26.604,HF_wild_card,2022.2.4,Win32,40.10748807,63cd461c5f597e27b2a054fb,64ce5acb97489d65b14ecc7a,64cf4bde44452db73c4ecc11,,,,,,,decisionTrl,resources/DY.BMP,resources/DBN.BMP,Door1,-0.298177083,-0.022135417,1,0,0,2.0985,optionLeft,30,15685,7,20,0,20,0,1,,,,,,,,,,,,,,,,,,,,,,,,,,,,,,,,,,,,,,,
