Condition,Low fixed image (Door1),Low risky image (Door2),High fixed image (Door3),High risky image (Door4),Extreme Wild Card,NonExtreme Wild Card,,date,expName,psychopyVersion,OS,frameRate,PROLIFIC_PID,STUDY_ID,SESSION_ID,mouse_2.x,mouse_2.y,mouse_2.leftButton,mouse_2.midButton,mouse_2.rightButton,mouse_2.clicked_name,Trial Type,Left Option Image,Right Option Image,Chosen Door,mouse.x,mouse.y,mouse.leftButton,mouse.midButton,mouse.rightButton,mouse.time,mouse.clicked_name,Feedback,Cumulative Reward,Block,trial.thisRepN,trial.thisTrialN,trial.thisN,trial.thisIndex,trial.ran,blocks.thisRepN,blocks.thisTrialN,blocks.thisN,blocks.thisIndex,blocks.ran,Money conversion,First Outcome Reported,Shown Door (First Outcome),Displayed Image (First Outcome),outcomes.thisRepN,outcomes.thisTrialN,outcomes.thisN,outcomes.thisIndex,outcomes.ran,judgments.thisRepN,judgments.thisTrialN,judgments.thisN,judgments.thisIndex,judgments.ran,freqMouse.x,freqMouse.y,freqMouse.leftButton,freqMouse.midButton,freqMouse.rightButton,freqMouse.clicked_name,trials.thisRepN,trials.thisTrialN,trials.thisN,trials.thisIndex,trials.ran,FQJ for first outcome,FQJ for second outcome,Shown Door,Displayed Image,judgBlock.thisRepN,judgBlock.thisTrialN,judgBlock.thisN,judgBlock.thisIndex,judgBlock.ran
1,resources/DR.BMP,resources/DP.BMP,resources/DY.BMP,resources/DG.BMP,resources/DBN.BMP,resources/DB.BMP,,2023-08-16_08h32.43.198,HF_wild_card,2022.2.4,Win32,59.99160118,607c25220ce5e062f6eff874,64d2fd46c836a06233681665,64dc7b93c0c09417f2c49369,,,,,,,,,,,,,,,,,,,,,,,,,,,,,,,,,,,,,,,,,,,,,,,,,,,,,,,,,,,,,,,,
,,,,,,,,2023-08-16_08h32.43.198,HF_wild_card,2022.2.4,Win32,59.99160118,607c25220ce5e062f6eff874,64d2fd46c836a06233681665,64dc7b93c0c09417f2c49369,0.021296296,-0.427777778,1,0,0,agree,,,,,,,,,,,,,,,,,,,,,,,,,,,,,,,,,,,,,,,,,,,,,,,,,,,,,,,,,,
,,,,,,,,2023-08-16_08h32.43.198,HF_wild_card,2022.2.4,Win32,59.99160118,607c25220ce5e062f6eff874,64d2fd46c836a06233681665,64dc7b93c0c09417f2c49369,,,,,,,,,,,,,,,,,,,,,,,,,,,,,,,,,,,,,,,,,,,,,,,,,,,,,,,,,,,,,,,,
,,,,,,,,2023-08-16_08h32.43.198,HF_wild_card,2022.2.4,Win32,59.99160118,607c25220ce5e062f6eff874,64d2fd46c836a06233681665,64dc7b93c0c09417f2c49369,,,,,,,decisionTrl,resources/DP.BMP,resources/DR.BMP,Door1,0.409259259,-0.073148148,1,0,0,5.1792,optionRight,30,30,1,0,0,0,0,1,,,,,,,,,,,,,,,,,,,,,,,,,,,,,,,,,,,,,,,
,,,,,,,,2023-08-16_08h32.43.198,HF_wild_card,2022.2.4,Win32,59.99160118,607c25220ce5e062f6eff874,64d2fd46c836a06233681665,64dc7b93c0c09417f2c49369,,,,,,,decisionTrl,resources/DP.BMP,resources/DR.BMP,Door1,0.337037037,-0.050925926,1,0,0,1.1647,optionRight,30,60,1,1,0,1,0,1,,,,,,,,,,,,,,,,,,,,,,,,,,,,,,,,,,,,,,,
,,,,,,,,2023-08-16_08h32.43.198,HF_wild_card,2022.2.4,Win32,59.99160118,607c25220ce5e062f6eff874,64d2fd46c836a06233681665,64dc7b93c0c09417f2c49369,,,,,,,decisionTrl,resources/DG.BMP,resources/DB.BMP,Door4,-0.264814815,-0.006481481,1,0,0,1.7813,optionLeft,80,140,1,2,0,2,0,1,,,,,,,,,,,,,,,,,,,,,,,,,,,,,,,,,,,,,,,
,,,,,,,,2023-08-16_08h32.43.198,HF_wild_card,2022.2.4,Win32,59.99160118,607c25220ce5e062f6eff874,64d2fd46c836a06233681665,64dc7b93c0c09417f2c49369,,,,,,,decisionTrl,resources/DP.BMP,resources/DR.BMP,Door1,0.239814815,-0.041666667,1,0,0,1.1988,optionRight,30,170,1,3,0,3,0,1,,,,,,,,,,,,,,,,,,,,,,,,,,,,,,,,,,,,,,,
,,,,,,,,2023-08-16_08h32.43.198,HF_wild_card,2022.2.4,Win32,59.99160118,607c25220ce5e062f6eff874,64d2fd46c836a06233681665,64dc7b93c0c09417f2c49369,,,,,,,ctch,resources/DY.BMP,resources/DP.BMP,Door2,0.39537037,-0.042592593,1,0,0,0.665,optionRight,20,190,1,4,0,4,0,1,,,,,,,,,,,,,,,,,,,,,,,,,,,,,,,,,,,,,,,
,,,,,,,,2023-08-16_08h32.43.198,HF_wild_card,2022.2.4,Win32,59.99160118,607c25220ce5e062f6eff874,64d2fd46c836a06233681665,64dc7b93c0c09417f2c49369,,,,,,,ctch,resources/DG.BMP,resources/DR.BMP,Door4,-0.237962963,-0.00462963,1,0,0,0.8819,optionLeft,60,250,1,5,0,5,0,1,,,,,,,,,,,,,,,,,,,,,,,,,,,,,,,,,,,,,,,
,,,,,,,,2023-08-16_08h32.43.198,HF_wild_card,2022.2.4,Win32,59.99160118,607c25220ce5e062f6eff874,64d2fd46c836a06233681665,64dc7b93c0c09417f2c49369,,,,,,,sngl,resources/Empty.png,resources/DB.BMP,WildCard_NonEx,0.456481481,0.014814815,1,0,0,1.0487,optionRight,55,305,1,6,0,6,0,1,,,,,,,,,,,,,,,,,,,,,,,,,,,,,,,,,,,,,,,
,,,,,,,,2023-08-16_08h32.43.198,HF_wild_card,2022.2.4,Win32,59.99160118,607c25220ce5e062f6eff874,64d2fd46c836a06233681665,64dc7b93c0c09417f2c49369,,,,,,,sngl,resources/DB.BMP,resources/Empty.png,WildCard_NonEx,-0.350925926,-0.00462963,1,0,0,0.8322,optionLeft,45,350,1,7,0,7,0,1,,,,,,,,,,,,,,,,,,,,,,,,,,,,,,,,,,,,,,,
,,,,,,,,2023-08-16_08h32.43.198,HF_wild_card,2022.2.4,Win32,59.99160118,607c25220ce5e062f6eff874,64d2fd46c836a06233681665,64dc7b93c0c09417f2c49369,,,,,,,decisionTrl,resources/DG.BMP,resources/DY.BMP,Door3,0.435185185,-0.032407407,1,0,0,1.1818,optionRight,70,420,1,8,0,8,0,1,,,,,,,,,,,,,,,,,,,,,,,,,,,,,,,,,,,,,,,
,,,,,,,,2023-08-16_08h32.43.198,HF_wild_card,2022.2.4,Win32,59.99160118,607c25220ce5e062f6eff874,64d2fd46c836a06233681665,64dc7b93c0c09417f2c49369,,,,,,,decisionTrl,resources/DG.BMP,resources/DY.BMP,Door4,-0.291666667,-0.009259259,1,0,0,1.1496,optionLeft,80,500,1,9,0,9,0,1,,,,,,,,,,,,,,,,,,,,,,,,,,,,,,,,,,,,,,,
,,,,,,,,2023-08-16_08h32.43.198,HF_wild_card,2022.2.4,Win32,59.99160118,607c25220ce5e062f6eff874,64d2fd46c836a06233681665,64dc7b93c0c09417f2c49369,,,,,,,decisionTrl,resources/DG.BMP,resources/DY.BMP,Door4,-0.338888889,-0.012037037,1,0,0,0.5824,optionLeft,60,560,1,10,0,10,0,1,,,,,,,,,,,,,,,,,,,,,,,,,,,,,,,,,,,,,,,
,,,,,,,,2023-08-16_08h32.43.198,HF_wild_card,2022.2.4,Win32,59.99160118,607c25220ce5e062f6eff874,64d2fd46c836a06233681665,64dc7b93c0c09417f2c49369,,,,,,,ctch,resources/DP.BMP,resources/DY.BMP,Door3,0.274074074,-0.008333333,1,0,0,0.7642,optionRight,70,630,1,11,0,11,0,1,,,,,,,,,,,,,,,,,,,,,,,,,,,,,,,,,,,,,,,
,,,,,,,,2023-08-16_08h32.43.198,HF_wild_card,2022.2.4,Win32,59.99160118,607c25220ce5e062f6eff874,64d2fd46c836a06233681665,64dc7b93c0c09417f2c49369,,,,,,,decisionTrl,resources/DR.BMP,resources/DP.BMP,Door2,0.29537037,-0.02962963,1,0,0,1.9023,optionRight,20,650,1,12,0,12,0,1,,,,,,,,,,,,,,,,,,,,,,,,,,,,,,,,,,,,,,,
,,,,,,,,2023-08-16_08h32.43.198,HF_wild_card,2022.2.4,Win32,59.99160118,607c25220ce5e062f6eff874,64d2fd46c836a06233681665,64dc7b93c0c09417f2c49369,,,,,,,sngl,resources/Empty.png,resources/DY.BMP,Door3,0.260185185,-0.002777778,1,0,0,0.5157,optionRight,70,720,1,13,0,13,0,1,,,,,,,,,,,,,,,,,,,,,,,,,,,,,,,,,,,,,,,
,,,,,,,,2023-08-16_08h32.43.198,HF_wild_card,2022.2.4,Win32,59.99160118,607c25220ce5e062f6eff874,64d2fd46c836a06233681665,64dc7b93c0c09417f2c49369,,,,,,,decisionTrl,resources/DR.BMP,resources/DP.BMP,Door2,0.271296296,0.049074074,1,0,0,1.3781,optionRight,20,740,1,14,0,14,0,1,,,,,,,,,,,,,,,,,,,,,,,,,,,,,,,,,,,,,,,
,,,,,,,,2023-08-16_08h32.43.198,HF_wild_card,2022.2.4,Win32,59.99160118,607c25220ce5e062f6eff874,64d2fd46c836a06233681665,64dc7b93c0c09417f2c49369,,,,,,,decisionTrl,resources/DG.BMP,resources/DY.BMP,Door4,-0.325,0.055555556,1,0,0,0.6324,optionLeft,60,800,1,15,0,15,0,1,,,,,,,,,,,,,,,,,,,,,,,,,,,,,,,,,,,,,,,
,,,,,,,,2023-08-16_08h32.43.198,HF_wild_card,2022.2.4,Win32,59.99160118,607c25220ce5e062f6eff874,64d2fd46c836a06233681665,64dc7b93c0c09417f2c49369,,,,,,,decisionTrl,resources/DR.BMP,resources/DP.BMP,Door1,-0.198148148,0.001851852,1,0,0,1.0978,optionLeft,30,830,1,16,0,16,0,1,,,,,,,,,,,,,,,,,,,,,,,,,,,,,,,,,,,,,,,
,,,,,,,,2023-08-16_08h32.43.198,HF_wild_card,2022.2.4,Win32,59.99160118,607c25220ce5e062f6eff874,64d2fd46c836a06233681665,64dc7b93c0c09417f2c49369,,,,,,,ctch,resources/DP.BMP,resources/DY.BMP,Door3,0.309259259,0.006481481,1,0,0,0.9111,optionRight,70,900,1,17,0,17,0,1,,,,,,,,,,,,,,,,,,,,,,,,,,,,,,,,,,,,,,,
,,,,,,,,2023-08-16_08h32.43.198,HF_wild_card,2022.2.4,Win32,59.99160118,607c25220ce5e062f6eff874,64d2fd46c836a06233681665,64dc7b93c0c09417f2c49369,,,,,,,ctch,resources/DR.BMP,resources/DG.BMP,Door4,0.460185185,0.02037037,1,0,0,0.9813,optionRight,80,980,1,18,0,18,0,1,,,,,,,,,,,,,,,,,,,,,,,,,,,,,,,,,,,,,,,
,,,,,,,,2023-08-16_08h32.43.198,HF_wild_card,2022.2.4,Win32,59.99160118,607c25220ce5e062f6eff874,64d2fd46c836a06233681665,64dc7b93c0c09417f2c49369,,,,,,,decisionTrl,resources/DP.BMP,resources/DR.BMP,Door2,-0.309259259,-0.05462963,1,0,0,0.9989,optionLeft,20,1000,1,19,0,19,0,1,,,,,,,,,,,,,,,,,,,,,,,,,,,,,,,,,,,,,,,
,,,,,,,,2023-08-16_08h32.43.198,HF_wild_card,2022.2.4,Win32,59.99160118,607c25220ce5e062f6eff874,64d2fd46c836a06233681665,64dc7b93c0c09417f2c49369,,,,,,,decisionTrl,resources/DB.BMP,resources/DY.BMP,WildCard_NonEx,-0.408333333,0.071296296,1,0,0,0.8151,optionLeft,45,1045,1,20,0,20,0,1,,,,,,,,,,,,,,,,,,,,,,,,,,,,,,,,,,,,,,,
,,,,,,,,2023-08-16_08h32.43.198,HF_wild_card,2022.2.4,Win32,59.99160118,607c25220ce5e062f6eff874,64d2fd46c836a06233681665,64dc7b93c0c09417f2c49369,,,,,,,sngl,resources/DP.BMP,resources/Empty.png,Door2,-0.42962963,0.019444444,1,0,0,0.6776,optionLeft,40,1085,1,21,0,21,0,1,,,,,,,,,,,,,,,,,,,,,,,,,,,,,,,,,,,,,,,
,,,,,,,,2023-08-16_08h32.43.198,HF_wild_card,2022.2.4,Win32,59.99160118,607c25220ce5e062f6eff874,64d2fd46c836a06233681665,64dc7b93c0c09417f2c49369,,,,,,,sngl,resources/DY.BMP,resources/Empty.png,Door3,-0.264814815,-0.008333333,1,0,0,0.4982,optionLeft,70,1155,1,22,0,22,0,1,,,,,,,,,,,,,,,,,,,,,,,,,,,,,,,,,,,,,,,
,,,,,,,,2023-08-16_08h32.43.198,HF_wild_card,2022.2.4,Win32,59.99160118,607c25220ce5e062f6eff874,64d2fd46c836a06233681665,64dc7b93c0c09417f2c49369,,,,,,,decisionTrl,resources/DY.BMP,resources/DG.BMP,Door3,-0.262962963,-0.05,1,0,0,0.7655,optionLeft,70,1225,1,23,0,23,0,1,,,,,,,,,,,,,,,,,,,,,,,,,,,,,,,,,,,,,,,
,,,,,,,,2023-08-16_08h32.43.198,HF_wild_card,2022.2.4,Win32,59.99160118,607c25220ce5e062f6eff874,64d2fd46c836a06233681665,64dc7b93c0c09417f2c49369,,,,,,,decisionTrl,resources/DB.BMP,resources/DG.BMP,Door4,0.382407407,-0.006481481,1,0,0,0.8528,optionRight,60,1285,1,24,0,24,0,1,,,,,,,,,,,,,,,,,,,,,,,,,,,,,,,,,,,,,,,
,,,,,,,,2023-08-16_08h32.43.198,HF_wild_card,2022.2.4,Win32,59.99160118,607c25220ce5e062f6eff874,64d2fd46c836a06233681665,64dc7b93c0c09417f2c49369,,,,,,,decisionTrl,resources/DY.BMP,resources/DG.BMP,Door4,0.407407407,0.023148148,1,0,0,0.9115,optionRight,60,1345,1,25,0,25,0,1,,,,,,,,,,,,,,,,,,,,,,,,,,,,,,,,,,,,,,,
,,,,,,,,2023-08-16_08h32.43.198,HF_wild_card,2022.2.4,Win32,59.99160118,607c25220ce5e062f6eff874,64d2fd46c836a06233681665,64dc7b93c0c09417f2c49369,,,,,,,decisionTrl,resources/DR.BMP,resources/DB.BMP,WildCard_NonEx,0.411111111,-0.025,1,0,0,0.6484,optionRight,55,1400,1,26,0,26,0,1,,,,,,,,,,,,,,,,,,,,,,,,,,,,,,,,,,,,,,,
,,,,,,,,2023-08-16_08h32.43.198,HF_wild_card,2022.2.4,Win32,59.99160118,607c25220ce5e062f6eff874,64d2fd46c836a06233681665,64dc7b93c0c09417f2c49369,,,,,,,decisionTrl,resources/DY.BMP,resources/DG.BMP,Door3,-0.286111111,-0.035185185,1,0,0,0.6285,optionLeft,70,1470,1,27,0,27,0,1,,,,,,,,,,,,,,,,,,,,,,,,,,,,,,,,,,,,,,,
,,,,,,,,2023-08-16_08h32.43.198,HF_wild_card,2022.2.4,Win32,59.99160118,607c25220ce5e062f6eff874,64d2fd46c836a06233681665,64dc7b93c0c09417f2c49369,,,,,,,ctch,resources/DY.BMP,resources/DP.BMP,Door2,0.356481481,-0.02962963,1,0,0,0.5683,optionRight,20,1490,1,28,0,28,0,1,,,,,,,,,,,,,,,,,,,,,,,,,,,,,,,,,,,,,,,
,,,,,,,,2023-08-16_08h32.43.198,HF_wild_card,2022.2.4,Win32,59.99160118,607c25220ce5e062f6eff874,64d2fd46c836a06233681665,64dc7b93c0c09417f2c49369,,,,,,,ctch,resources/DR.BMP,resources/DG.BMP,Door4,0.307407407,0,1,0,0,0.6678,optionRight,80,1570,1,29,0,29,0,1,,,,,,,,,,,,,,,,,,,,,,,,,,,,,,,,,,,,,,,
,,,,,,,,2023-08-16_08h32.43.198,HF_wild_card,2022.2.4,Win32,59.99160118,607c25220ce5e062f6eff874,64d2fd46c836a06233681665,64dc7b93c0c09417f2c49369,,,,,,,decisionTrl,resources/DR.BMP,resources/DP.BMP,Door2,0.312962963,-0.038888889,1,0,0,0.8904,optionRight,40,1610,1,30,0,30,0,1,,,,,,,,,,,,,,,,,,,,,,,,,,,,,,,,,,,,,,,
,,,,,,,,2023-08-16_08h32.43.198,HF_wild_card,2022.2.4,Win32,59.99160118,607c25220ce5e062f6eff874,64d2fd46c836a06233681665,64dc7b93c0c09417f2c49369,,,,,,,sngl,resources/Empty.png,resources/DR.BMP,Door1,0.425,0.006481481,1,0,0,0.469,optionRight,30,1640,1,31,0,31,0,1,,,,,,,,,,,,,,,,,,,,,,,,,,,,,,,,,,,,,,,
,,,,,,,,2023-08-16_08h32.43.198,HF_wild_card,2022.2.4,Win32,59.99160118,607c25220ce5e062f6eff874,64d2fd46c836a06233681665,64dc7b93c0c09417f2c49369,,,,,,,sngl,resources/Empty.png,resources/DG.BMP,Door4,0.297222222,-0.017592593,1,0,0,0.4834,optionRight,60,1700,1,32,0,32,0,1,,,,,,,,,,,,,,,,,,,,,,,,,,,,,,,,,,,,,,,
,,,,,,,,2023-08-16_08h32.43.198,HF_wild_card,2022.2.4,Win32,59.99160118,607c25220ce5e062f6eff874,64d2fd46c836a06233681665,64dc7b93c0c09417f2c49369,,,,,,,ctch,resources/DG.BMP,resources/DR.BMP,Door4,-0.386111111,-0.012037037,1,0,0,0.5673,optionLeft,60,1760,1,33,0,33,0,1,,,,,,,,,,,,,,,,,,,,,,,,,,,,,,,,,,,,,,,
,,,,,,,,2023-08-16_08h32.43.198,HF_wild_card,2022.2.4,Win32,59.99160118,607c25220ce5e062f6eff874,64d2fd46c836a06233681665,64dc7b93c0c09417f2c49369,,,,,,,decisionTrl,resources/DY.BMP,resources/DG.BMP,Door4,0.397222222,-0.006481481,1,0,0,0.5119,optionRight,60,1820,1,34,0,34,0,1,,,,,,,,,,,,,,,,,,,,,,,,,,,,,,,,,,,,,,,
,,,,,,,,2023-08-16_08h32.43.198,HF_wild_card,2022.2.4,Win32,59.99160118,607c25220ce5e062f6eff874,64d2fd46c836a06233681665,64dc7b93c0c09417f2c49369,,,,,,,decisionTrl,resources/DP.BMP,resources/DB.BMP,WildCard_NonEx,0.372222222,-0.018518519,1,0,0,0.8786,optionRight,45,1865,1,35,0,35,0,1,,,,,,,,,,,,,,,,,,,,,,,,,,,,,,,,,,,,,,,
,,,,,,,,2023-08-16_08h32.43.198,HF_wild_card,2022.2.4,Win32,59.99160118,607c25220ce5e062f6eff874,64d2fd46c836a06233681665,64dc7b93c0c09417f2c49369,,,,,,,decisionTrl,resources/DY.BMP,resources/DB.BMP,Door3,-0.293518519,0.02962963,1,0,0,1.6071,optionLeft,70,1935,1,36,0,36,0,1,,,,,,,,,,,,,,,,,,,,,,,,,,,,,,,,,,,,,,,
,,,,,,,,2023-08-16_08h32.43.198,HF_wild_card,2022.2.4,Win32,59.99160118,607c25220ce5e062f6eff874,64d2fd46c836a06233681665,64dc7b93c0c09417f2c49369,,,,,,,decisionTrl,resources/DB.BMP,resources/DP.BMP,WildCard_NonEx,-0.326851852,-0.022222222,1,0,0,3.7807,optionLeft,55,1990,1,37,0,37,0,1,,,,,,,,,,,,,,,,,,,,,,,,,,,,,,,,,,,,,,,
,,,,,,,,2023-08-16_08h32.43.198,HF_wild_card,2022.2.4,Win32,59.99160118,607c25220ce5e062f6eff874,64d2fd46c836a06233681665,64dc7b93c0c09417f2c49369,,,,,,,sngl,resources/Empty.png,resources/DP.BMP,Door2,0.32962963,0.015740741,1,0,0,0.6324,optionRight,20,2010,1,38,0,38,0,1,,,,,,,,,,,,,,,,,,,,,,,,,,,,,,,,,,,,,,,
,,,,,,,,2023-08-16_08h32.43.198,HF_wild_card,2022.2.4,Win32,59.99160118,607c25220ce5e062f6eff874,64d2fd46c836a06233681665,64dc7b93c0c09417f2c49369,,,,,,,decisionTrl,resources/DB.BMP,resources/DR.BMP,WildCard_NonEx,-0.264814815,0.007407407,1,0,0,0.5821,optionLeft,45,2055,1,39,0,39,0,1,,,,,,,,,,,,,,,,,,,,,,,,,,,,,,,,,,,,,,,
,,,,,,,,2023-08-16_08h32.43.198,HF_wild_card,2022.2.4,Win32,59.99160118,607c25220ce5e062f6eff874,64d2fd46c836a06233681665,64dc7b93c0c09417f2c49369,,,,,,,sngl,resources/DB.BMP,resources/Empty.png,WildCard_NonEx,-0.376851852,-0.02037037,1,0,0,0.4947,optionLeft,55,2110,1,40,0,40,0,1,,,,,,,,,,,,,,,,,,,,,,,,,,,,,,,,,,,,,,,
,,,,,,,,2023-08-16_08h32.43.198,HF_wild_card,2022.2.4,Win32,59.99160118,607c25220ce5e062f6eff874,64d2fd46c836a06233681665,64dc7b93c0c09417f2c49369,,,,,,,sngl,resources/DR.BMP,resources/Empty.png,Door1,-0.234259259,0.032407407,1,0,0,0.8785,optionLeft,30,2140,1,41,0,41,0,1,,,,,,,,,,,,,,,,,,,,,,,,,,,,,,,,,,,,,,,
,,,,,,,,2023-08-16_08h32.43.198,HF_wild_card,2022.2.4,Win32,59.99160118,607c25220ce5e062f6eff874,64d2fd46c836a06233681665,64dc7b93c0c09417f2c49369,,,,,,,sngl,resources/Empty.png,resources/DB.BMP,WildCard_NonEx,0.556481481,0.027777778,1,0,0,0.4145,optionRight,45,2185,1,42,0,42,0,1,,,,,,,,,,,,,,,,,,,,,,,,,,,,,,,,,,,,,,,
,,,,,,,,2023-08-16_08h32.43.198,HF_wild_card,2022.2.4,Win32,59.99160118,607c25220ce5e062f6eff874,64d2fd46c836a06233681665,64dc7b93c0c09417f2c49369,,,,,,,sngl,resources/DG.BMP,resources/Empty.png,Door4,-0.365740741,0.007407407,1,0,0,0.5655,optionLeft,80,2265,1,43,0,43,0,1,,,,,,,,,,,,,,,,,,,,,,,,,,,,,,,,,,,,,,,
,,,,,,,,2023-08-16_08h32.43.198,HF_wild_card,2022.2.4,Win32,59.99160118,607c25220ce5e062f6eff874,64d2fd46c836a06233681665,64dc7b93c0c09417f2c49369,,,,,,,,,,,,,,,,,,,,,,,,,,0,0,0,0,1,,,,,,,,,,,,,,,,,,,,,,,,,,,,,,,,,,
,,,,,,,,2023-08-16_08h32.43.198,HF_wild_card,2022.2.4,Win32,59.99160118,607c25220ce5e062f6eff874,64d2fd46c836a06233681665,64dc7b93c0c09417f2c49369,,,,,,,sngl,resources/Empty.png,resources/DB.BMP,WildCard_NonEx,0.361111111,-0.058333333,1,0,0,0.6737,optionRight,55,2320,2,0,0,0,0,1,,,,,,,,,,,,,,,,,,,,,,,,,,,,,,,,,,,,,,,
,,,,,,,,2023-08-16_08h32.43.198,HF_wild_card,2022.2.4,Win32,59.99160118,607c25220ce5e062f6eff874,64d2fd46c836a06233681665,64dc7b93c0c09417f2c49369,,,,,,,ctch,resources/DG.BMP,resources/DR.BMP,Door4,-0.217592593,-0.019444444,1,0,0,0.4451,optionLeft,60,2380,2,1,0,1,0,1,,,,,,,,,,,,,,,,,,,,,,,,,,,,,,,,,,,,,,,
,,,,,,,,2023-08-16_08h32.43.198,HF_wild_card,2022.2.4,Win32,59.99160118,607c25220ce5e062f6eff874,64d2fd46c836a06233681665,64dc7b93c0c09417f2c49369,,,,,,,sngl,resources/DG.BMP,resources/Empty.png,Door4,-0.315740741,-0.013888889,1,0,0,0.4489,optionLeft,60,2440,2,2,0,2,0,1,,,,,,,,,,,,,,,,,,,,,,,,,,,,,,,,,,,,,,,
,,,,,,,,2023-08-16_08h32.43.198,HF_wild_card,2022.2.4,Win32,59.99160118,607c25220ce5e062f6eff874,64d2fd46c836a06233681665,64dc7b93c0c09417f2c49369,,,,,,,decisionTrl,resources/DB.BMP,resources/DR.BMP,WildCard_NonEx,-0.307407407,-0.019444444,1,0,0,1.0025,optionLeft,55,2495,2,3,0,3,0,1,,,,,,,,,,,,,,,,,,,,,,,,,,,,,,,,,,,,,,,
,,,,,,,,2023-08-16_08h32.43.198,HF_wild_card,2022.2.4,Win32,59.99160118,607c25220ce5e062f6eff874,64d2fd46c836a06233681665,64dc7b93c0c09417f2c49369,,,,,,,decisionTrl,resources/DR.BMP,resources/DP.BMP,Door2,0.301851852,0.026851852,1,0,0,1.0448,optionRight,20,2515,2,4,0,4,0,1,,,,,,,,,,,,,,,,,,,,,,,,,,,,,,,,,,,,,,,
,,,,,,,,2023-08-16_08h32.43.198,HF_wild_card,2022.2.4,Win32,59.99160118,607c25220ce5e062f6eff874,64d2fd46c836a06233681665,64dc7b93c0c09417f2c49369,,,,,,,ctch,resources/DP.BMP,resources/DY.BMP,Door3,0.300925926,-0.000925926,1,0,0,0.999,optionRight,70,2585,2,5,0,5,0,1,,,,,,,,,,,,,,,,,,,,,,,,,,,,,,,,,,,,,,,
,,,,,,,,2023-08-16_08h32.43.198,HF_wild_card,2022.2.4,Win32,59.99160118,607c25220ce5e062f6eff874,64d2fd46c836a06233681665,64dc7b93c0c09417f2c49369,,,,,,,decisionTrl,resources/DP.BMP,resources/DR.BMP,Door1,0.318518519,-0.010185185,1,0,0,1.2308,optionRight,30,2615,2,6,0,6,0,1,,,,,,,,,,,,,,,,,,,,,,,,,,,,,,,,,,,,,,,
,,,,,,,,2023-08-16_08h32.43.198,HF_wild_card,2022.2.4,Win32,59.99160118,607c25220ce5e062f6eff874,64d2fd46c836a06233681665,64dc7b93c0c09417f2c49369,,,,,,,decisionTrl,resources/DG.BMP,resources/DB.BMP,WildCard_NonEx,0.293518519,-0.00462963,1,0,0,1.445,optionRight,45,2660,2,7,0,7,0,1,,,,,,,,,,,,,,,,,,,,,,,,,,,,,,,,,,,,,,,
,,,,,,,,2023-08-16_08h32.43.198,HF_wild_card,2022.2.4,Win32,59.99160118,607c25220ce5e062f6eff874,64d2fd46c836a06233681665,64dc7b93c0c09417f2c49369,,,,,,,ctch,resources/DY.BMP,resources/DP.BMP,Door3,-0.209259259,-0.019444444,1,0,0,1.0989,optionLeft,70,2730,2,8,0,8,0,1,,,,,,,,,,,,,,,,,,,,,,,,,,,,,,,,,,,,,,,
,,,,,,,,2023-08-16_08h32.43.198,HF_wild_card,2022.2.4,Win32,59.99160118,607c25220ce5e062f6eff874,64d2fd46c836a06233681665,64dc7b93c0c09417f2c49369,,,,,,,sngl,resources/DP.BMP,resources/Empty.png,Door2,-0.205555556,-0.023148148,1,0,0,0.5524,optionLeft,20,2750,2,9,0,9,0,1,,,,,,,,,,,,,,,,,,,,,,,,,,,,,,,,,,,,,,,
,,,,,,,,2023-08-16_08h32.43.198,HF_wild_card,2022.2.4,Win32,59.99160118,607c25220ce5e062f6eff874,64d2fd46c836a06233681665,64dc7b93c0c09417f2c49369,,,,,,,sngl,resources/Empty.png,resources/DR.BMP,Door1,0.360185185,0.018518519,1,0,0,0.4449,optionRight,30,2780,2,10,0,10,0,1,,,,,,,,,,,,,,,,,,,,,,,,,,,,,,,,,,,,,,,
,,,,,,,,2023-08-16_08h32.43.198,HF_wild_card,2022.2.4,Win32,59.99160118,607c25220ce5e062f6eff874,64d2fd46c836a06233681665,64dc7b93c0c09417f2c49369,,,,,,,ctch,resources/DR.BMP,resources/DG.BMP,Door4,0.505555556,0.018518519,1,0,0,0.7623,optionRight,80,2860,2,11,0,11,0,1,,,,,,,,,,,,,,,,,,,,,,,,,,,,,,,,,,,,,,,
,,,,,,,,2023-08-16_08h32.43.198,HF_wild_card,2022.2.4,Win32,59.99160118,607c25220ce5e062f6eff874,64d2fd46c836a06233681665,64dc7b93c0c09417f2c49369,,,,,,,decisionTrl,resources/DG.BMP,resources/DY.BMP,Door4,-0.27962963,-0.000925926,1,0,0,0.7989,optionLeft,60,2920,2,12,0,12,0,1,,,,,,,,,,,,,,,,,,,,,,,,,,,,,,,,,,,,,,,
,,,,,,,,2023-08-16_08h32.43.198,HF_wild_card,2022.2.4,Win32,59.99160118,607c25220ce5e062f6eff874,64d2fd46c836a06233681665,64dc7b93c0c09417f2c49369,,,,,,,ctch,resources/DG.BMP,resources/DR.BMP,Door4,-0.272222222,-0.02962963,1,0,0,0.8619,optionLeft,60,2980,2,13,0,13,0,1,,,,,,,,,,,,,,,,,,,,,,,,,,,,,,,,,,,,,,,
,,,,,,,,2023-08-16_08h32.43.198,HF_wild_card,2022.2.4,Win32,59.99160118,607c25220ce5e062f6eff874,64d2fd46c836a06233681665,64dc7b93c0c09417f2c49369,,,,,,,decisionTrl,resources/DG.BMP,resources/DY.BMP,Door3,0.327777778,-0.011111111,1,0,0,1.1991,optionRight,70,3050,2,14,0,14,0,1,,,,,,,,,,,,,,,,,,,,,,,,,,,,,,,,,,,,,,,
,,,,,,,,2023-08-16_08h32.43.198,HF_wild_card,2022.2.4,Win32,59.99160118,607c25220ce5e062f6eff874,64d2fd46c836a06233681665,64dc7b93c0c09417f2c49369,,,,,,,ctch,resources/DP.BMP,resources/DY.BMP,Door3,0.299074074,0.006481481,1,0,0,2.7195,optionRight,70,3120,2,15,0,15,0,1,,,,,,,,,,,,,,,,,,,,,,,,,,,,,,,,,,,,,,,
,,,,,,,,2023-08-16_08h32.43.198,HF_wild_card,2022.2.4,Win32,59.99160118,607c25220ce5e062f6eff874,64d2fd46c836a06233681665,64dc7b93c0c09417f2c49369,,,,,,,sngl,resources/Empty.png,resources/DY.BMP,Door3,0.317592593,0.016666667,1,0,0,0.6347,optionRight,70,3190,2,16,0,16,0,1,,,,,,,,,,,,,,,,,,,,,,,,,,,,,,,,,,,,,,,
,,,,,,,,2023-08-16_08h32.43.198,HF_wild_card,2022.2.4,Win32,59.99160118,607c25220ce5e062f6eff874,64d2fd46c836a06233681665,64dc7b93c0c09417f2c49369,,,,,,,decisionTrl,resources/DR.BMP,resources/DP.BMP,Door2,0.392592593,-0.086111111,1,0,0,11.4462,optionRight,40,3230,2,17,0,17,0,1,,,,,,,,,,,,,,,,,,,,,,,,,,,,,,,,,,,,,,,
,,,,,,,,2023-08-16_08h32.43.198,HF_wild_card,2022.2.4,Win32,59.99160118,607c25220ce5e062f6eff874,64d2fd46c836a06233681665,64dc7b93c0c09417f2c49369,,,,,,,decisionTrl,resources/DR.BMP,resources/DP.BMP,Door2,0.287962963,0.003703704,1,0,0,1.0618,optionRight,40,3270,2,18,0,18,0,1,,,,,,,,,,,,,,,,,,,,,,,,,,,,,,,,,,,,,,,
,,,,,,,,2023-08-16_08h32.43.198,HF_wild_card,2022.2.4,Win32,59.99160118,607c25220ce5e062f6eff874,64d2fd46c836a06233681665,64dc7b93c0c09417f2c49369,,,,,,,decisionTrl,resources/DP.BMP,resources/DR.BMP,Door2,-0.378703704,-0.006481481,1,0,0,0.795,optionLeft,20,3290,2,19,0,19,0,1,,,,,,,,,,,,,,,,,,,,,,,,,,,,,,,,,,,,,,,
,,,,,,,,2023-08-16_08h32.43.198,HF_wild_card,2022.2.4,Win32,59.99160118,607c25220ce5e062f6eff874,64d2fd46c836a06233681665,64dc7b93c0c09417f2c49369,,,,,,,sngl,resources/Empty.png,resources/DB.BMP,WildCard_NonEx,0.462037037,-0.006481481,1,0,0,0.4492,optionRight,45,3335,2,20,0,20,0,1,,,,,,,,,,,,,,,,,,,,,,,,,,,,,,,,,,,,,,,
,,,,,,,,2023-08-16_08h32.43.198,HF_wild_card,2022.2.4,Win32,59.99160118,607c25220ce5e062f6eff874,64d2fd46c836a06233681665,64dc7b93c0c09417f2c49369,,,,,,,decisionTrl,resources/DY.BMP,resources/DG.BMP,Door4,0.466666667,-0.013888889,1,0,0,0.9189,optionRight,60,3395,2,21,0,21,0,1,,,,,,,,,,,,,,,,,,,,,,,,,,,,,,,,,,,,,,,
,,,,,,,,2023-08-16_08h32.43.198,HF_wild_card,2022.2.4,Win32,59.99160118,607c25220ce5e062f6eff874,64d2fd46c836a06233681665,64dc7b93c0c09417f2c49369,,,,,,,decisionTrl,resources/DP.BMP,resources/DB.BMP,WildCard_NonEx,0.297222222,-0.012962963,1,0,0,1.0489,optionRight,45,3440,2,22,0,22,0,1,,,,,,,,,,,,,,,,,,,,,,,,,,,,,,,,,,,,,,,
,,,,,,,,2023-08-16_08h32.43.198,HF_wild_card,2022.2.4,Win32,59.99160118,607c25220ce5e062f6eff874,64d2fd46c836a06233681665,64dc7b93c0c09417f2c49369,,,,,,,decisionTrl,resources/DG.BMP,resources/DY.BMP,Door3,0.313888889,-0.036111111,1,0,0,1.3522,optionRight,70,3510,2,23,0,23,0,1,,,,,,,,,,,,,,,,,,,,,,,,,,,,,,,,,,,,,,,
,,,,,,,,2023-08-16_08h32.43.198,HF_wild_card,2022.2.4,Win32,59.99160118,607c25220ce5e062f6eff874,64d2fd46c836a06233681665,64dc7b93c0c09417f2c49369,,,,,,,sngl,resources/DB.BMP,resources/Empty.png,WildCard_NonEx,-0.337037037,-0.012962963,1,0,0,0.6131,optionLeft,45,3555,2,24,0,24,0,1,,,,,,,,,,,,,,,,,,,,,,,,,,,,,,,,,,,,,,,
,,,,,,,,2023-08-16_08h32.43.198,HF_wild_card,2022.2.4,Win32,59.99160118,607c25220ce5e062f6eff874,64d2fd46c836a06233681665,64dc7b93c0c09417f2c49369,,,,,,,decisionTrl,resources/DR.BMP,resources/DP.BMP,Door2,0.222222222,-0.001851852,1,0,0,0.8117,optionRight,40,3595,2,25,0,25,0,1,,,,,,,,,,,,,,,,,,,,,,,,,,,,,,,,,,,,,,,
,,,,,,,,2023-08-16_08h32.43.198,HF_wild_card,2022.2.4,Win32,59.99160118,607c25220ce5e062f6eff874,64d2fd46c836a06233681665,64dc7b93c0c09417f2c49369,,,,,,,decisionTrl,resources/DP.BMP,resources/DR.BMP,Door2,-0.298148148,-0.001851852,1,0,0,0.8524,optionLeft,40,3635,2,26,0,26,0,1,,,,,,,,,,,,,,,,,,,,,,,,,,,,,,,,,,,,,,,
,,,,,,,,2023-08-16_08h32.43.198,HF_wild_card,2022.2.4,Win32,59.99160118,607c25220ce5e062f6eff874,64d2fd46c836a06233681665,64dc7b93c0c09417f2c49369,,,,,,,sngl,resources/DR.BMP,resources/Empty.png,Door1,-0.325925926,-0.002777778,1,0,0,0.6158,optionLeft,30,3665,2,27,0,27,0,1,,,,,,,,,,,,,,,,,,,,,,,,,,,,,,,,,,,,,,,
,,,,,,,,2023-08-16_08h32.43.198,HF_wild_card,2022.2.4,Win32,59.99160118,607c25220ce5e062f6eff874,64d2fd46c836a06233681665,64dc7b93c0c09417f2c49369,,,,,,,decisionTrl,resources/DG.BMP,resources/DY.BMP,Door4,-0.271296296,0.00462963,1,0,0,0.9648,optionLeft,80,3745,2,28,0,28,0,1,,,,,,,,,,,,,,,,,,,,,,,,,,,,,,,,,,,,,,,
,,,,,,,,2023-08-16_08h32.43.198,HF_wild_card,2022.2.4,Win32,59.99160118,607c25220ce5e062f6eff874,64d2fd46c836a06233681665,64dc7b93c0c09417f2c49369,,,,,,,decisionTrl,resources/DY.BMP,resources/DG.BMP,Door4,0.393518519,0.010185185,1,0,0,0.6856,optionRight,80,3825,2,29,0,29,0,1,,,,,,,,,,,,,,,,,,,,,,,,,,,,,,,,,,,,,,,
,,,,,,,,2023-08-16_08h32.43.198,HF_wild_card,2022.2.4,Win32,59.99160118,607c25220ce5e062f6eff874,64d2fd46c836a06233681665,64dc7b93c0c09417f2c49369,,,,,,,decisionTrl,resources/DR.BMP,resources/DB.BMP,WildCard_NonEx,0.380555556,-0.005555556,1,0,0,0.829,optionRight,45,3870,2,30,0,30,0,1,,,,,,,,,,,,,,,,,,,,,,,,,,,,,,,,,,,,,,,
,,,,,,,,2023-08-16_08h32.43.198,HF_wild_card,2022.2.4,Win32,59.99160118,607c25220ce5e062f6eff874,64d2fd46c836a06233681665,64dc7b93c0c09417f2c49369,,,,,,,ctch,resources/DY.BMP,resources/DP.BMP,Door2,0.35,-0.018518519,1,0,0,1.4452,optionRight,40,3910,2,31,0,31,0,1,,,,,,,,,,,,,,,,,,,,,,,,,,,,,,,,,,,,,,,
,,,,,,,,2023-08-16_08h32.43.198,HF_wild_card,2022.2.4,Win32,59.99160118,607c25220ce5e062f6eff874,64d2fd46c836a06233681665,64dc7b93c0c09417f2c49369,,,,,,,sngl,resources/Empty.png,resources/DG.BMP,Door4,0.382407407,-0.012962963,1,0,0,0.5011,optionRight,80,3990,2,32,0,32,0,1,,,,,,,,,,,,,,,,,,,,,,,,,,,,,,,,,,,,,,,
,,,,,,,,2023-08-16_08h32.43.198,HF_wild_card,2022.2.4,Win32,59.99160118,607c25220ce5e062f6eff874,64d2fd46c836a06233681665,64dc7b93c0c09417f2c49369,,,,,,,decisionTrl,resources/DY.BMP,resources/DG.BMP,Door4,0.359259259,-0.017592593,1,0,0,1.399,optionRight,60,4050,2,33,0,33,0,1,,,,,,,,,,,,,,,,,,,,,,,,,,,,,,,,,,,,,,,
,,,,,,,,2023-08-16_08h32.43.198,HF_wild_card,2022.2.4,Win32,59.99160118,607c25220ce5e062f6eff874,64d2fd46c836a06233681665,64dc7b93c0c09417f2c49369,,,,,,,decisionTrl,resources/DP.BMP,resources/DR.BMP,Door2,-0.385185185,0,1,0,0,1.2489,optionLeft,40,4090,2,34,0,34,0,1,,,,,,,,,,,,,,,,,,,,,,,,,,,,,,,,,,,,,,,
,,,,,,,,2023-08-16_08h32.43.198,HF_wild_card,2022.2.4,Win32,59.99160118,607c25220ce5e062f6eff874,64d2fd46c836a06233681665,64dc7b93c0c09417f2c49369,,,,,,,decisionTrl,resources/DB.BMP,resources/DY.BMP,WildCard_NonEx,-0.458333333,-0.006481481,1,0,0,1.0154,optionLeft,55,4145,2,35,0,35,0,1,,,,,,,,,,,,,,,,,,,,,,,,,,,,,,,,,,,,,,,
,,,,,,,,2023-08-16_08h32.43.198,HF_wild_card,2022.2.4,Win32,59.99160118,607c25220ce5e062f6eff874,64d2fd46c836a06233681665,64dc7b93c0c09417f2c49369,,,,,,,sngl,resources/Empty.png,resources/DP.BMP,Door2,0.342592593,-0.025925926,1,0,0,0.5822,optionRight,40,4185,2,36,0,36,0,1,,,,,,,,,,,,,,,,,,,,,,,,,,,,,,,,,,,,,,,
,,,,,,,,2023-08-16_08h32.43.198,HF_wild_card,2022.2.4,Win32,59.99160118,607c25220ce5e062f6eff874,64d2fd46c836a06233681665,64dc7b93c0c09417f2c49369,,,,,,,sngl,resources/DB.BMP,resources/Empty.png,WildCard_NonEx,-0.338888889,-0.00462963,1,0,0,0.7282,optionLeft,55,4240,2,37,0,37,0,1,,,,,,,,,,,,,,,,,,,,,,,,,,,,,,,,,,,,,,,
,,,,,,,,2023-08-16_08h32.43.198,HF_wild_card,2022.2.4,Win32,59.99160118,607c25220ce5e062f6eff874,64d2fd46c836a06233681665,64dc7b93c0c09417f2c49369,,,,,,,decisionTrl,resources/DY.BMP,resources/DB.BMP,WildCard_NonEx,0.226851852,-0.006481481,1,0,0,0.5487,optionRight,55,4295,2,38,0,38,0,1,,,,,,,,,,,,,,,,,,,,,,,,,,,,,,,,,,,,,,,
,,,,,,,,2023-08-16_08h32.43.198,HF_wild_card,2022.2.4,Win32,59.99160118,607c25220ce5e062f6eff874,64d2fd46c836a06233681665,64dc7b93c0c09417f2c49369,,,,,,,sngl,resources/DY.BMP,resources/Empty.png,Door3,-0.3,-0.008333333,1,0,0,0.5988,optionLeft,70,4365,2,39,0,39,0,1,,,,,,,,,,,,,,,,,,,,,,,,,,,,,,,,,,,,,,,
,,,,,,,,2023-08-16_08h32.43.198,HF_wild_card,2022.2.4,Win32,59.99160118,607c25220ce5e062f6eff874,64d2fd46c836a06233681665,64dc7b93c0c09417f2c49369,,,,,,,decisionTrl,resources/DB.BMP,resources/DP.BMP,WildCard_NonEx,-0.540740741,-0.006481481,1,0,0,0.9658,optionLeft,55,4420,2,40,0,40,0,1,,,,,,,,,,,,,,,,,,,,,,,,,,,,,,,,,,,,,,,
,,,,,,,,2023-08-16_08h32.43.198,HF_wild_card,2022.2.4,Win32,59.99160118,607c25220ce5e062f6eff874,64d2fd46c836a06233681665,64dc7b93c0c09417f2c49369,,,,,,,decisionTrl,resources/DY.BMP,resources/DG.BMP,Door4,0.456481481,-0.078703704,1,0,0,0.6985,optionRight,80,4500,2,41,0,41,0,1,,,,,,,,,,,,,,,,,,,,,,,,,,,,,,,,,,,,,,,
,,,,,,,,2023-08-16_08h32.43.198,HF_wild_card,2022.2.4,Win32,59.99160118,607c25220ce5e062f6eff874,64d2fd46c836a06233681665,64dc7b93c0c09417f2c49369,,,,,,,ctch,resources/DR.BMP,resources/DG.BMP,Door4,0.389814815,-0.011111111,1,0,0,0.6958,optionRight,80,4580,2,42,0,42,0,1,,,,,,,,,,,,,,,,,,,,,,,,,,,,,,,,,,,,,,,
,,,,,,,,2023-08-16_08h32.43.198,HF_wild_card,2022.2.4,Win32,59.99160118,607c25220ce5e062f6eff874,64d2fd46c836a06233681665,64dc7b93c0c09417f2c49369,,,,,,,decisionTrl,resources/DB.BMP,resources/DG.BMP,WildCard_NonEx,-0.355555556,-0.010185185,1,0,0,0.6987,optionLeft,55,4635,2,43,0,43,0,1,,,,,,,,,,,,,,,,,,,,,,,,,,,,,,,,,,,,,,,
,,,,,,,,2023-08-16_08h32.43.198,HF_wild_card,2022.2.4,Win32,59.99160118,607c25220ce5e062f6eff874,64d2fd46c836a06233681665,64dc7b93c0c09417f2c49369,,,,,,,,,,,,,,,,,,,,,,,,,,1,0,1,0,1,,,,,,,,,,,,,,,,,,,,,,,,,,,,,,,,,,
,,,,,,,,2023-08-16_08h32.43.198,HF_wild_card,2022.2.4,Win32,59.99160118,607c25220ce5e062f6eff874,64d2fd46c836a06233681665,64dc7b93c0c09417f2c49369,,,,,,,decisionTrl,resources/DG.BMP,resources/DB.BMP,WildCard_NonEx,0.42962963,-0.106481481,1,0,0,0.9931,optionRight,55,4690,3,0,0,0,0,1,,,,,,,,,,,,,,,,,,,,,,,,,,,,,,,,,,,,,,,
,,,,,,,,2023-08-16_08h32.43.198,HF_wild_card,2022.2.4,Win32,59.99160118,607c25220ce5e062f6eff874,64d2fd46c836a06233681665,64dc7b93c0c09417f2c49369,,,,,,,ctch,resources/DG.BMP,resources/DR.BMP,Door4,-0.326851852,-0.015740741,1,0,0,0.615,optionLeft,80,4770,3,1,0,1,0,1,,,,,,,,,,,,,,,,,,,,,,,,,,,,,,,,,,,,,,,
,,,,,,,,2023-08-16_08h32.43.198,HF_wild_card,2022.2.4,Win32,59.99160118,607c25220ce5e062f6eff874,64d2fd46c836a06233681665,64dc7b93c0c09417f2c49369,,,,,,,decisionTrl,resources/DP.BMP,resources/DR.BMP,Door2,-0.310185185,0.012037037,1,0,0,0.6818,optionLeft,40,4810,3,2,0,2,0,1,,,,,,,,,,,,,,,,,,,,,,,,,,,,,,,,,,,,,,,
,,,,,,,,2023-08-16_08h32.43.198,HF_wild_card,2022.2.4,Win32,59.99160118,607c25220ce5e062f6eff874,64d2fd46c836a06233681665,64dc7b93c0c09417f2c49369,,,,,,,decisionTrl,resources/DR.BMP,resources/DP.BMP,Door2,0.403703704,0.006481481,1,0,0,0.6162,optionRight,40,4850,3,3,0,3,0,1,,,,,,,,,,,,,,,,,,,,,,,,,,,,,,,,,,,,,,,
,,,,,,,,2023-08-16_08h32.43.198,HF_wild_card,2022.2.4,Win32,59.99160118,607c25220ce5e062f6eff874,64d2fd46c836a06233681665,64dc7b93c0c09417f2c49369,,,,,,,sngl,resources/DG.BMP,resources/Empty.png,Door4,-0.377777778,-0.034259259,1,0,0,4.5107,optionLeft,80,4930,3,4,0,4,0,1,,,,,,,,,,,,,,,,,,,,,,,,,,,,,,,,,,,,,,,
,,,,,,,,2023-08-16_08h32.43.198,HF_wild_card,2022.2.4,Win32,59.99160118,607c25220ce5e062f6eff874,64d2fd46c836a06233681665,64dc7b93c0c09417f2c49369,,,,,,,sngl,resources/DY.BMP,resources/Empty.png,Door3,-0.331481481,-0.005555556,1,0,0,6.9275,optionLeft,70,5000,3,5,0,5,0,1,,,,,,,,,,,,,,,,,,,,,,,,,,,,,,,,,,,,,,,
,,,,,,,,2023-08-16_08h32.43.198,HF_wild_card,2022.2.4,Win32,59.99160118,607c25220ce5e062f6eff874,64d2fd46c836a06233681665,64dc7b93c0c09417f2c49369,,,,,,,decisionTrl,resources/DP.BMP,resources/DR.BMP,Door2,-0.292592593,-0.007407407,1,0,0,1.2486,optionLeft,40,5040,3,6,0,6,0,1,,,,,,,,,,,,,,,,,,,,,,,,,,,,,,,,,,,,,,,
,,,,,,,,2023-08-16_08h32.43.198,HF_wild_card,2022.2.4,Win32,59.99160118,607c25220ce5e062f6eff874,64d2fd46c836a06233681665,64dc7b93c0c09417f2c49369,,,,,,,decisionTrl,resources/DY.BMP,resources/DB.BMP,WildCard_NonEx,0.359259259,-0.089814815,1,0,0,0.9602,optionRight,45,5085,3,7,0,7,0,1,,,,,,,,,,,,,,,,,,,,,,,,,,,,,,,,,,,,,,,
,,,,,,,,2023-08-16_08h32.43.198,HF_wild_card,2022.2.4,Win32,59.99160118,607c25220ce5e062f6eff874,64d2fd46c836a06233681665,64dc7b93c0c09417f2c49369,,,,,,,decisionTrl,resources/DP.BMP,resources/DR.BMP,Door2,-0.366666667,-0.017592593,1,0,0,0.6821,optionLeft,20,5105,3,8,0,8,0,1,,,,,,,,,,,,,,,,,,,,,,,,,,,,,,,,,,,,,,,
,,,,,,,,2023-08-16_08h32.43.198,HF_wild_card,2022.2.4,Win32,59.99160118,607c25220ce5e062f6eff874,64d2fd46c836a06233681665,64dc7b93c0c09417f2c49369,,,,,,,decisionTrl,resources/DG.BMP,resources/DY.BMP,Door4,-0.357407407,-0.058333333,1,0,0,0.9852,optionLeft,80,5185,3,9,0,9,0,1,,,,,,,,,,,,,,,,,,,,,,,,,,,,,,,,,,,,,,,
,,,,,,,,2023-08-16_08h32.43.198,HF_wild_card,2022.2.4,Win32,59.99160118,607c25220ce5e062f6eff874,64d2fd46c836a06233681665,64dc7b93c0c09417f2c49369,,,,,,,decisionTrl,resources/DB.BMP,resources/DR.BMP,WildCard_NonEx,-0.287037037,0.031481481,1,0,0,0.6743,optionLeft,55,5240,3,10,0,10,0,1,,,,,,,,,,,,,,,,,,,,,,,,,,,,,,,,,,,,,,,
,,,,,,,,2023-08-16_08h32.43.198,HF_wild_card,2022.2.4,Win32,59.99160118,607c25220ce5e062f6eff874,64d2fd46c836a06233681665,64dc7b93c0c09417f2c49369,,,,,,,sngl,resources/Empty.png,resources/DB.BMP,WildCard_NonEx,0.318518519,-0.012037037,1,0,0,0.4605,optionRight,45,5285,3,11,0,11,0,1,,,,,,,,,,,,,,,,,,,,,,,,,,,,,,,,,,,,,,,
,,,,,,,,2023-08-16_08h32.43.198,HF_wild_card,2022.2.4,Win32,59.99160118,607c25220ce5e062f6eff874,64d2fd46c836a06233681665,64dc7b93c0c09417f2c49369,,,,,,,ctch,resources/DP.BMP,resources/DY.BMP,Door2,-0.394444444,-0.042592593,1,0,0,0.7771,optionLeft,40,5325,3,12,0,12,0,1,,,,,,,,,,,,,,,,,,,,,,,,,,,,,,,,,,,,,,,
,,,,,,,,2023-08-16_08h32.43.198,HF_wild_card,2022.2.4,Win32,59.99160118,607c25220ce5e062f6eff874,64d2fd46c836a06233681665,64dc7b93c0c09417f2c49369,,,,,,,sngl,resources/DR.BMP,resources/Empty.png,Door1,-0.377777778,0.002777778,1,0,0,0.5601,optionLeft,30,5355,3,13,0,13,0,1,,,,,,,,,,,,,,,,,,,,,,,,,,,,,,,,,,,,,,,
,,,,,,,,2023-08-16_08h32.43.198,HF_wild_card,2022.2.4,Win32,59.99160118,607c25220ce5e062f6eff874,64d2fd46c836a06233681665,64dc7b93c0c09417f2c49369,,,,,,,sngl,resources/Empty.png,resources/DY.BMP,Door3,0.343518519,-0.011111111,1,0,0,0.6441,optionRight,70,5425,3,14,0,14,0,1,,,,,,,,,,,,,,,,,,,,,,,,,,,,,,,,,,,,,,,
,,,,,,,,2023-08-16_08h32.43.198,HF_wild_card,2022.2.4,Win32,59.99160118,607c25220ce5e062f6eff874,64d2fd46c836a06233681665,64dc7b93c0c09417f2c49369,,,,,,,decisionTrl,resources/DR.BMP,resources/DP.BMP,Door2,0.366666667,-0.002777778,1,0,0,0.7271,optionRight,40,5465,3,15,0,15,0,1,,,,,,,,,,,,,,,,,,,,,,,,,,,,,,,,,,,,,,,
,,,,,,,,2023-08-16_08h32.43.198,HF_wild_card,2022.2.4,Win32,59.99160118,607c25220ce5e062f6eff874,64d2fd46c836a06233681665,64dc7b93c0c09417f2c49369,,,,,,,sngl,resources/DP.BMP,resources/Empty.png,Door2,-0.313888889,-0.038888889,1,0,0,0.5989,optionLeft,40,5505,3,16,0,16,0,1,,,,,,,,,,,,,,,,,,,,,,,,,,,,,,,,,,,,,,,
,,,,,,,,2023-08-16_08h32.43.198,HF_wild_card,2022.2.4,Win32,59.99160118,607c25220ce5e062f6eff874,64d2fd46c836a06233681665,64dc7b93c0c09417f2c49369,,,,,,,ctch,resources/DP.BMP,resources/DY.BMP,Door2,-0.364814815,-0.030555556,1,0,0,0.6321,optionLeft,40,5545,3,17,0,17,0,1,,,,,,,,,,,,,,,,,,,,,,,,,,,,,,,,,,,,,,,
,,,,,,,,2023-08-16_08h32.43.198,HF_wild_card,2022.2.4,Win32,59.99160118,607c25220ce5e062f6eff874,64d2fd46c836a06233681665,64dc7b93c0c09417f2c49369,,,,,,,decisionTrl,resources/DG.BMP,resources/DY.BMP,Door4,-0.380555556,-0.048148148,1,0,0,0.8656,optionLeft,60,5605,3,18,0,18,0,1,,,,,,,,,,,,,,,,,,,,,,,,,,,,,,,,,,,,,,,
,,,,,,,,2023-08-16_08h32.43.198,HF_wild_card,2022.2.4,Win32,59.99160118,607c25220ce5e062f6eff874,64d2fd46c836a06233681665,64dc7b93c0c09417f2c49369,,,,,,,decisionTrl,resources/DY.BMP,resources/DG.BMP,Door4,0.373148148,0.02037037,1,0,0,0.6737,optionRight,80,5685,3,19,0,19,0,1,,,,,,,,,,,,,,,,,,,,,,,,,,,,,,,,,,,,,,,
,,,,,,,,2023-08-16_08h32.43.198,HF_wild_card,2022.2.4,Win32,59.99160118,607c25220ce5e062f6eff874,64d2fd46c836a06233681665,64dc7b93c0c09417f2c49369,,,,,,,decisionTrl,resources/DG.BMP,resources/DY.BMP,Door4,-0.422222222,0.018518519,1,0,0,0.6607,optionLeft,80,5765,3,20,0,20,0,1,,,,,,,,,,,,,,,,,,,,,,,,,,,,,,,,,,,,,,,
,,,,,,,,2023-08-16_08h32.43.198,HF_wild_card,2022.2.4,Win32,59.99160118,607c25220ce5e062f6eff874,64d2fd46c836a06233681665,64dc7b93c0c09417f2c49369,,,,,,,sngl,resources/DB.BMP,resources/Empty.png,WildCard_NonEx,-0.306481481,-0.027777778,1,0,0,1.5459,optionLeft,55,5820,3,21,0,21,0,1,,,,,,,,,,,,,,,,,,,,,,,,,,,,,,,,,,,,,,,
,,,,,,,,2023-08-16_08h32.43.198,HF_wild_card,2022.2.4,Win32,59.99160118,607c25220ce5e062f6eff874,64d2fd46c836a06233681665,64dc7b93c0c09417f2c49369,,,,,,,decisionTrl,resources/DY.BMP,resources/DG.BMP,Door4,0.286111111,-0.037037037,1,0,0,2.999,optionRight,80,5900,3,22,0,22,0,1,,,,,,,,,,,,,,,,,,,,,,,,,,,,,,,,,,,,,,,
,,,,,,,,2023-08-16_08h32.43.198,HF_wild_card,2022.2.4,Win32,59.99160118,607c25220ce5e062f6eff874,64d2fd46c836a06233681665,64dc7b93c0c09417f2c49369,,,,,,,decisionTrl,resources/DB.BMP,resources/DG.BMP,WildCard_NonEx,-0.277777778,-0.016666667,1,0,0,0.5937,optionLeft,55,5955,3,23,0,23,0,1,,,,,,,,,,,,,,,,,,,,,,,,,,,,,,,,,,,,,,,
,,,,,,,,2023-08-16_08h32.43.198,HF_wild_card,2022.2.4,Win32,59.99160118,607c25220ce5e062f6eff874,64d2fd46c836a06233681665,64dc7b93c0c09417f2c49369,,,,,,,sngl,resources/DB.BMP,resources/Empty.png,WildCard_NonEx,-0.356481481,-0.035185185,1,0,0,0.5313,optionLeft,45,6000,3,24,0,24,0,1,,,,,,,,,,,,,,,,,,,,,,,,,,,,,,,,,,,,,,,
,,,,,,,,2023-08-16_08h32.43.198,HF_wild_card,2022.2.4,Win32,59.99160118,607c25220ce5e062f6eff874,64d2fd46c836a06233681665,64dc7b93c0c09417f2c49369,,,,,,,decisionTrl,resources/DP.BMP,resources/DR.BMP,Door2,-0.308333333,-0.001851852,1,0,0,0.7281,optionLeft,40,6040,3,25,0,25,0,1,,,,,,,,,,,,,,,,,,,,,,,,,,,,,,,,,,,,,,,
,,,,,,,,2023-08-16_08h32.43.198,HF_wild_card,2022.2.4,Win32,59.99160118,607c25220ce5e062f6eff874,64d2fd46c836a06233681665,64dc7b93c0c09417f2c49369,,,,,,,ctch,resources/DY.BMP,resources/DP.BMP,Door2,0.366666667,-0.015740741,1,0,0,0.6106,optionRight,20,6060,3,26,0,26,0,1,,,,,,,,,,,,,,,,,,,,,,,,,,,,,,,,,,,,,,,
,,,,,,,,2023-08-16_08h32.43.198,HF_wild_card,2022.2.4,Win32,59.99160118,607c25220ce5e062f6eff874,64d2fd46c836a06233681665,64dc7b93c0c09417f2c49369,,,,,,,decisionTrl,resources/DR.BMP,resources/DB.BMP,WildCard_NonEx,0.348148148,0,1,0,0,0.7156,optionRight,55,6115,3,27,0,27,0,1,,,,,,,,,,,,,,,,,,,,,,,,,,,,,,,,,,,,,,,
,,,,,,,,2023-08-16_08h32.43.198,HF_wild_card,2022.2.4,Win32,59.99160118,607c25220ce5e062f6eff874,64d2fd46c836a06233681665,64dc7b93c0c09417f2c49369,,,,,,,decisionTrl,resources/DG.BMP,resources/DY.BMP,Door4,-0.481481481,0.010185185,1,0,0,0.8903,optionLeft,80,6195,3,28,0,28,0,1,,,,,,,,,,,,,,,,,,,,,,,,,,,,,,,,,,,,,,,
,,,,,,,,2023-08-16_08h32.43.198,HF_wild_card,2022.2.4,Win32,59.99160118,607c25220ce5e062f6eff874,64d2fd46c836a06233681665,64dc7b93c0c09417f2c49369,,,,,,,decisionTrl,resources/DR.BMP,resources/DP.BMP,Door2,0.403703704,-0.025925926,1,0,0,0.6614,optionRight,40,6235,3,29,0,29,0,1,,,,,,,,,,,,,,,,,,,,,,,,,,,,,,,,,,,,,,,
,,,,,,,,2023-08-16_08h32.43.198,HF_wild_card,2022.2.4,Win32,59.99160118,607c25220ce5e062f6eff874,64d2fd46c836a06233681665,64dc7b93c0c09417f2c49369,,,,,,,ctch,resources/DY.BMP,resources/DP.BMP,Door3,-0.394444444,-0.011111111,1,0,0,0.7948,optionLeft,70,6305,3,30,0,30,0,1,,,,,,,,,,,,,,,,,,,,,,,,,,,,,,,,,,,,,,,
,,,,,,,,2023-08-16_08h32.43.198,HF_wild_card,2022.2.4,Win32,59.99160118,607c25220ce5e062f6eff874,64d2fd46c836a06233681665,64dc7b93c0c09417f2c49369,,,,,,,decisionTrl,resources/DY.BMP,resources/DG.BMP,Door4,0.297222222,0.000925926,1,0,0,0.7106,optionRight,80,6385,3,31,0,31,0,1,,,,,,,,,,,,,,,,,,,,,,,,,,,,,,,,,,,,,,,
,,,,,,,,2023-08-16_08h32.43.198,HF_wild_card,2022.2.4,Win32,59.99160118,607c25220ce5e062f6eff874,64d2fd46c836a06233681665,64dc7b93c0c09417f2c49369,,,,,,,ctch,resources/DG.BMP,resources/DR.BMP,Door4,-0.282407407,-0.019444444,1,0,0,0.6111,optionLeft,80,6465,3,32,0,32,0,1,,,,,,,,,,,,,,,,,,,,,,,,,,,,,,,,,,,,,,,
,,,,,,,,2023-08-16_08h32.43.198,HF_wild_card,2022.2.4,Win32,59.99160118,607c25220ce5e062f6eff874,64d2fd46c836a06233681665,64dc7b93c0c09417f2c49369,,,,,,,decisionTrl,resources/DP.BMP,resources/DB.BMP,WildCard_NonEx,0.297222222,-0.005555556,1,0,0,0.5568,optionRight,45,6510,3,33,0,33,0,1,,,,,,,,,,,,,,,,,,,,,,,,,,,,,,,,,,,,,,,
,,,,,,,,2023-08-16_08h32.43.198,HF_wild_card,2022.2.4,Win32,59.99160118,607c25220ce5e062f6eff874,64d2fd46c836a06233681665,64dc7b93c0c09417f2c49369,,,,,,,decisionTrl,resources/DB.BMP,resources/DY.BMP,WildCard_NonEx,-0.268518519,-0.005555556,1,0,0,0.6273,optionLeft,45,6555,3,34,0,34,0,1,,,,,,,,,,,,,,,,,,,,,,,,,,,,,,,,,,,,,,,
,,,,,,,,2023-08-16_08h32.43.198,HF_wild_card,2022.2.4,Win32,59.99160118,607c25220ce5e062f6eff874,64d2fd46c836a06233681665,64dc7b93c0c09417f2c49369,,,,,,,sngl,resources/Empty.png,resources/DR.BMP,Door1,0.436111111,-0.000925926,1,0,0,0.4111,optionRight,30,6585,3,35,0,35,0,1,,,,,,,,,,,,,,,,,,,,,,,,,,,,,,,,,,,,,,,
,,,,,,,,2023-08-16_08h32.43.198,HF_wild_card,2022.2.4,Win32,59.99160118,607c25220ce5e062f6eff874,64d2fd46c836a06233681665,64dc7b93c0c09417f2c49369,,,,,,,decisionTrl,resources/DB.BMP,resources/DP.BMP,WildCard_NonEx,-0.277777778,-0.060185185,1,0,0,0.6155,optionLeft,45,6630,3,36,0,36,0,1,,,,,,,,,,,,,,,,,,,,,,,,,,,,,,,,,,,,,,,
,,,,,,,,2023-08-16_08h32.43.198,HF_wild_card,2022.2.4,Win32,59.99160118,607c25220ce5e062f6eff874,64d2fd46c836a06233681665,64dc7b93c0c09417f2c49369,,,,,,,ctch,resources/DR.BMP,resources/DG.BMP,Door4,0.327777778,-0.037962963,1,0,0,0.5106,optionRight,60,6690,3,37,0,37,0,1,,,,,,,,,,,,,,,,,,,,,,,,,,,,,,,,,,,,,,,
,,,,,,,,2023-08-16_08h32.43.198,HF_wild_card,2022.2.4,Win32,59.99160118,607c25220ce5e062f6eff874,64d2fd46c836a06233681665,64dc7b93c0c09417f2c49369,,,,,,,decisionTrl,resources/DR.BMP,resources/DP.BMP,Door2,0.349074074,-0.013888889,1,0,0,0.7194,optionRight,40,6730,3,38,0,38,0,1,,,,,,,,,,,,,,,,,,,,,,,,,,,,,,,,,,,,,,,
,,,,,,,,2023-08-16_08h32.43.198,HF_wild_card,2022.2.4,Win32,59.99160118,607c25220ce5e062f6eff874,64d2fd46c836a06233681665,64dc7b93c0c09417f2c49369,,,,,,,sngl,resources/Empty.png,resources/DB.BMP,WildCard_NonEx,0.419444444,-0.012037037,1,0,0,0.3992,optionRight,55,6785,3,39,0,39,0,1,,,,,,,,,,,,,,,,,,,,,,,,,,,,,,,,,,,,,,,
,,,,,,,,2023-08-16_08h32.43.198,HF_wild_card,2022.2.4,Win32,59.99160118,607c25220ce5e062f6eff874,64d2fd46c836a06233681665,64dc7b93c0c09417f2c49369,,,,,,,sngl,resources/Empty.png,resources/DG.BMP,Door4,0.612962963,0.025925926,1,0,0,2.1311,optionRight,60,6845,3,40,0,40,0,1,,,,,,,,,,,,,,,,,,,,,,,,,,,,,,,,,,,,,,,
,,,,,,,,2023-08-16_08h32.43.198,HF_wild_card,2022.2.4,Win32,59.99160118,607c25220ce5e062f6eff874,64d2fd46c836a06233681665,64dc7b93c0c09417f2c49369,,,,,,,sngl,resources/Empty.png,resources/DP.BMP,Door2,0.325,0,1,0,0,0.444,optionRight,20,6865,3,41,0,41,0,1,,,,,,,,,,,,,,,,,,,,,,,,,,,,,,,,,,,,,,,
,,,,,,,,2023-08-16_08h32.43.198,HF_wild_card,2022.2.4,Win32,59.99160118,607c25220ce5e062f6eff874,64d2fd46c836a06233681665,64dc7b93c0c09417f2c49369,,,,,,,decisionTrl,resources/DY.BMP,resources/DG.BMP,Door4,0.266666667,0.014814815,1,0,0,0.5444,optionRight,60,6925,3,42,0,42,0,1,,,,,,,,,,,,,,,,,,,,,,,,,,,,,,,,,,,,,,,
,,,,,,,,2023-08-16_08h32.43.198,HF_wild_card,2022.2.4,Win32,59.99160118,607c25220ce5e062f6eff874,64d2fd46c836a06233681665,64dc7b93c0c09417f2c49369,,,,,,,ctch,resources/DR.BMP,resources/DG.BMP,Door4,0.368518519,-0.014814815,1,0,0,0.8282,optionRight,80,7005,3,43,0,43,0,1,,,,,,,,,,,,,,,,,,,,,,,,,,,,,,,,,,,,,,,
,,,,,,,,2023-08-16_08h32.43.198,HF_wild_card,2022.2.4,Win32,59.99160118,607c25220ce5e062f6eff874,64d2fd46c836a06233681665,64dc7b93c0c09417f2c49369,,,,,,,,,,,,,,,,,,,,,,,,,,2,0,2,0,1,,,,,,,,,,,,,,,,,,,,,,,,,,,,,,,,,,
,,,,,,,,2023-08-16_08h32.43.198,HF_wild_card,2022.2.4,Win32,59.99160118,607c25220ce5e062f6eff874,64d2fd46c836a06233681665,64dc7b93c0c09417f2c49369,,,,,,,ctch,resources/DR.BMP,resources/DG.BMP,Door4,0.402777778,-0.025,1,0,0,0.8261,optionRight,80,7085,4,0,0,0,0,1,,,,,,,,,,,,,,,,,,,,,,,,,,,,,,,,,,,,,,,
,,,,,,,,2023-08-16_08h32.43.198,HF_wild_card,2022.2.4,Win32,59.99160118,607c25220ce5e062f6eff874,64d2fd46c836a06233681665,64dc7b93c0c09417f2c49369,,,,,,,decisionTrl,resources/DG.BMP,resources/DY.BMP,Door4,-0.362962963,-0.02962963,1,0,0,1.2324,optionLeft,80,7165,4,1,0,1,0,1,,,,,,,,,,,,,,,,,,,,,,,,,,,,,,,,,,,,,,,
,,,,,,,,2023-08-16_08h32.43.198,HF_wild_card,2022.2.4,Win32,59.99160118,607c25220ce5e062f6eff874,64d2fd46c836a06233681665,64dc7b93c0c09417f2c49369,,,,,,,decisionTrl,resources/DR.BMP,resources/DP.BMP,Door2,0.39537037,0.018518519,1,0,0,0.4284,optionRight,20,7185,4,2,0,2,0,1,,,,,,,,,,,,,,,,,,,,,,,,,,,,,,,,,,,,,,,
,,,,,,,,2023-08-16_08h32.43.198,HF_wild_card,2022.2.4,Win32,59.99160118,607c25220ce5e062f6eff874,64d2fd46c836a06233681665,64dc7b93c0c09417f2c49369,,,,,,,decisionTrl,resources/DY.BMP,resources/DG.BMP,Door4,0.311111111,0.001851852,1,0,0,0.8597,optionRight,80,7265,4,3,0,3,0,1,,,,,,,,,,,,,,,,,,,,,,,,,,,,,,,,,,,,,,,
,,,,,,,,2023-08-16_08h32.43.198,HF_wild_card,2022.2.4,Win32,59.99160118,607c25220ce5e062f6eff874,64d2fd46c836a06233681665,64dc7b93c0c09417f2c49369,,,,,,,ctch,resources/DY.BMP,resources/DP.BMP,Door3,-0.324074074,-0.015740741,1,0,0,0.6607,optionLeft,70,7335,4,4,0,4,0,1,,,,,,,,,,,,,,,,,,,,,,,,,,,,,,,,,,,,,,,
,,,,,,,,2023-08-16_08h32.43.198,HF_wild_card,2022.2.4,Win32,59.99160118,607c25220ce5e062f6eff874,64d2fd46c836a06233681665,64dc7b93c0c09417f2c49369,,,,,,,decisionTrl,resources/DP.BMP,resources/DR.BMP,Door1,0.448148148,-0.04537037,1,0,0,0.9607,optionRight,30,7365,4,5,0,5,0,1,,,,,,,,,,,,,,,,,,,,,,,,,,,,,,,,,,,,,,,
,,,,,,,,2023-08-16_08h32.43.198,HF_wild_card,2022.2.4,Win32,59.99160118,607c25220ce5e062f6eff874,64d2fd46c836a06233681665,64dc7b93c0c09417f2c49369,,,,,,,decisionTrl,resources/DR.BMP,resources/DP.BMP,Door2,0.306481481,-0.012037037,1,0,0,1.3153,optionRight,40,7405,4,6,0,6,0,1,,,,,,,,,,,,,,,,,,,,,,,,,,,,,,,,,,,,,,,
,,,,,,,,2023-08-16_08h32.43.198,HF_wild_card,2022.2.4,Win32,59.99160118,607c25220ce5e062f6eff874,64d2fd46c836a06233681665,64dc7b93c0c09417f2c49369,,,,,,,decisionTrl,resources/DY.BMP,resources/DBN.BMP,WildCard_Ex,0.355555556,0.015740741,1,0,0,1.232,optionRight,5,7410,4,7,0,7,0,1,,,,,,,,,,,,,,,,,,,,,,,,,,,,,,,,,,,,,,,
,,,,,,,,2023-08-16_08h32.43.198,HF_wild_card,2022.2.4,Win32,59.99160118,607c25220ce5e062f6eff874,64d2fd46c836a06233681665,64dc7b93c0c09417f2c49369,,,,,,,sngl,resources/DBN.BMP,resources/Empty.png,WildCard_Ex,-0.294444444,-0.002777778,1,0,0,0.7167,optionLeft,5,7415,4,8,0,8,0,1,,,,,,,,,,,,,,,,,,,,,,,,,,,,,,,,,,,,,,,
,,,,,,,,2023-08-16_08h32.43.198,HF_wild_card,2022.2.4,Win32,59.99160118,607c25220ce5e062f6eff874,64d2fd46c836a06233681665,64dc7b93c0c09417f2c49369,,,,,,,ctch,resources/DP.BMP,resources/DY.BMP,Door2,-0.302777778,-0.019444444,1,0,0,1.2818,optionLeft,20,7435,4,9,0,9,0,1,,,,,,,,,,,,,,,,,,,,,,,,,,,,,,,,,,,,,,,
,,,,,,,,2023-08-16_08h32.43.198,HF_wild_card,2022.2.4,Win32,59.99160118,607c25220ce5e062f6eff874,64d2fd46c836a06233681665,64dc7b93c0c09417f2c49369,,,,,,,sngl,resources/DP.BMP,resources/Empty.png,Door2,-0.282407407,-0.011111111,1,0,0,0.4618,optionLeft,20,7455,4,10,0,10,0,1,,,,,,,,,,,,,,,,,,,,,,,,,,,,,,,,,,,,,,,
,,,,,,,,2023-08-16_08h32.43.198,HF_wild_card,2022.2.4,Win32,59.99160118,607c25220ce5e062f6eff874,64d2fd46c836a06233681665,64dc7b93c0c09417f2c49369,,,,,,,decisionTrl,resources/DG.BMP,resources/DY.BMP,Door4,-0.374074074,0.000925926,1,0,0,0.7655,optionLeft,60,7515,4,11,0,11,0,1,,,,,,,,,,,,,,,,,,,,,,,,,,,,,,,,,,,,,,,
,,,,,,,,2023-08-16_08h32.43.198,HF_wild_card,2022.2.4,Win32,59.99160118,607c25220ce5e062f6eff874,64d2fd46c836a06233681665,64dc7b93c0c09417f2c49369,,,,,,,decisionTrl,resources/DBN.BMP,resources/DY.BMP,Door3,0.396296296,-0.003703704,1,0,0,0.7989,optionRight,70,7585,4,12,0,12,0,1,,,,,,,,,,,,,,,,,,,,,,,,,,,,,,,,,,,,,,,
,,,,,,,,2023-08-16_08h32.43.198,HF_wild_card,2022.2.4,Win32,59.99160118,607c25220ce5e062f6eff874,64d2fd46c836a06233681665,64dc7b93c0c09417f2c49369,,,,,,,decisionTrl,resources/DY.BMP,resources/DG.BMP,Door3,-0.272222222,-0.014814815,1,0,0,0.9325,optionLeft,70,7655,4,13,0,13,0,1,,,,,,,,,,,,,,,,,,,,,,,,,,,,,,,,,,,,,,,
,,,,,,,,2023-08-16_08h32.43.198,HF_wild_card,2022.2.4,Win32,59.99160118,607c25220ce5e062f6eff874,64d2fd46c836a06233681665,64dc7b93c0c09417f2c49369,,,,,,,decisionTrl,resources/DG.BMP,resources/DY.BMP,Door3,0.377777778,-0.010185185,1,0,0,1.1328,optionRight,70,7725,4,14,0,14,0,1,,,,,,,,,,,,,,,,,,,,,,,,,,,,,,,,,,,,,,,
,,,,,,,,2023-08-16_08h32.43.198,HF_wild_card,2022.2.4,Win32,59.99160118,607c25220ce5e062f6eff874,64d2fd46c836a06233681665,64dc7b93c0c09417f2c49369,,,,,,,ctch,resources/DY.BMP,resources/DP.BMP,Door3,-0.250925926,-0.008333333,1,0,0,0.6486,optionLeft,70,7795,4,15,0,15,0,1,,,,,,,,,,,,,,,,,,,,,,,,,,,,,,,,,,,,,,,
,,,,,,,,2023-08-16_08h32.43.198,HF_wild_card,2022.2.4,Win32,59.99160118,607c25220ce5e062f6eff874,64d2fd46c836a06233681665,64dc7b93c0c09417f2c49369,,,,,,,decisionTrl,resources/DR.BMP,resources/DP.BMP,Door2,0.339814815,-0.047222222,1,0,0,0.695,optionRight,20,7815,4,16,0,16,0,1,,,,,,,,,,,,,,,,,,,,,,,,,,,,,,,,,,,,,,,
,,,,,,,,2023-08-16_08h32.43.198,HF_wild_card,2022.2.4,Win32,59.99160118,607c25220ce5e062f6eff874,64d2fd46c836a06233681665,64dc7b93c0c09417f2c49369,,,,,,,sngl,resources/Empty.png,resources/DG.BMP,Door4,0.249074074,-0.007407407,1,0,0,0.3944,optionRight,80,7895,4,17,0,17,0,1,,,,,,,,,,,,,,,,,,,,,,,,,,,,,,,,,,,,,,,
,,,,,,,,2023-08-16_08h32.43.198,HF_wild_card,2022.2.4,Win32,59.99160118,607c25220ce5e062f6eff874,64d2fd46c836a06233681665,64dc7b93c0c09417f2c49369,,,,,,,decisionTrl,resources/DBN.BMP,resources/DG.BMP,Door4,0.30462963,-0.039814815,1,0,0,0.6928,optionRight,80,7975,4,18,0,18,0,1,,,,,,,,,,,,,,,,,,,,,,,,,,,,,,,,,,,,,,,
,,,,,,,,2023-08-16_08h32.43.198,HF_wild_card,2022.2.4,Win32,59.99160118,607c25220ce5e062f6eff874,64d2fd46c836a06233681665,64dc7b93c0c09417f2c49369,,,,,,,decisionTrl,resources/DR.BMP,resources/DBN.BMP,Door1,-0.363888889,-0.002777778,1,0,0,0.8258,optionLeft,30,8005,4,19,0,19,0,1,,,,,,,,,,,,,,,,,,,,,,,,,,,,,,,,,,,,,,,
,,,,,,,,2023-08-16_08h32.43.198,HF_wild_card,2022.2.4,Win32,59.99160118,607c25220ce5e062f6eff874,64d2fd46c836a06233681665,64dc7b93c0c09417f2c49369,,,,,,,decisionTrl,resources/DG.BMP,resources/DBN.BMP,Door4,-0.314814815,-0.017592593,1,0,0,0.6806,optionLeft,80,8085,4,20,0,20,0,1,,,,,,,,,,,,,,,,,,,,,,,,,,,,,,,,,,,,,,,
,,,,,,,,2023-08-16_08h32.43.198,HF_wild_card,2022.2.4,Win32,59.99160118,607c25220ce5e062f6eff874,64d2fd46c836a06233681665,64dc7b93c0c09417f2c49369,,,,,,,sngl,resources/Empty.png,resources/DBN.BMP,WildCard_Ex,0.314814815,-0.00462963,1,0,0,0.6821,optionRight,5,8090,4,21,0,21,0,1,,,,,,,,,,,,,,,,,,,,,,,,,,,,,,,,,,,,,,,
,,,,,,,,2023-08-16_08h32.43.198,HF_wild_card,2022.2.4,Win32,59.99160118,607c25220ce5e062f6eff874,64d2fd46c836a06233681665,64dc7b93c0c09417f2c49369,,,,,,,decisionTrl,resources/DP.BMP,resources/DR.BMP,Door1,0.27037037,-0.007407407,1,0,0,1.0651,optionRight,30,8120,4,22,0,22,0,1,,,,,,,,,,,,,,,,,,,,,,,,,,,,,,,,,,,,,,,
,,,,,,,,2023-08-16_08h32.43.198,HF_wild_card,2022.2.4,Win32,59.99160118,607c25220ce5e062f6eff874,64d2fd46c836a06233681665,64dc7b93c0c09417f2c49369,,,,,,,sngl,resources/DG.BMP,resources/Empty.png,Door4,-0.296296296,-0.011111111,1,0,0,0.4625,optionLeft,60,8180,4,23,0,23,0,1,,,,,,,,,,,,,,,,,,,,,,,,,,,,,,,,,,,,,,,
,,,,,,,,2023-08-16_08h32.43.198,HF_wild_card,2022.2.4,Win32,59.99160118,607c25220ce5e062f6eff874,64d2fd46c836a06233681665,64dc7b93c0c09417f2c49369,,,,,,,sngl,resources/DBN.BMP,resources/Empty.png,WildCard_Ex,-0.405555556,-0.012962963,1,0,0,0.7446,optionLeft,95,8275,4,24,0,24,0,1,,,,,,,,,,,,,,,,,,,,,,,,,,,,,,,,,,,,,,,
,,,,,,,,2023-08-16_08h32.43.198,HF_wild_card,2022.2.4,Win32,59.99160118,607c25220ce5e062f6eff874,64d2fd46c836a06233681665,64dc7b93c0c09417f2c49369,,,,,,,sngl,resources/Empty.png,resources/DBN.BMP,WildCard_Ex,0.32037037,0.012962963,1,0,0,0.3988,optionRight,95,8370,4,25,0,25,0,1,,,,,,,,,,,,,,,,,,,,,,,,,,,,,,,,,,,,,,,
,,,,,,,,2023-08-16_08h32.43.198,HF_wild_card,2022.2.4,Win32,59.99160118,607c25220ce5e062f6eff874,64d2fd46c836a06233681665,64dc7b93c0c09417f2c49369,,,,,,,sngl,resources/DR.BMP,resources/Empty.png,Door1,-0.453703704,0.006481481,1,0,0,0.4361,optionLeft,30,8400,4,26,0,26,0,1,,,,,,,,,,,,,,,,,,,,,,,,,,,,,,,,,,,,,,,
,,,,,,,,2023-08-16_08h32.43.198,HF_wild_card,2022.2.4,Win32,59.99160118,607c25220ce5e062f6eff874,64d2fd46c836a06233681665,64dc7b93c0c09417f2c49369,,,,,,,decisionTrl,resources/DP.BMP,resources/DR.BMP,Door2,-0.366666667,-0.012037037,1,0,0,0.8656,optionLeft,40,8440,4,27,0,27,0,1,,,,,,,,,,,,,,,,,,,,,,,,,,,,,,,,,,,,,,,
,,,,,,,,2023-08-16_08h32.43.198,HF_wild_card,2022.2.4,Win32,59.99160118,607c25220ce5e062f6eff874,64d2fd46c836a06233681665,64dc7b93c0c09417f2c49369,,,,,,,sngl,resources/DY.BMP,resources/Empty.png,Door3,-0.357407407,-0.001851852,1,0,0,0.5162,optionLeft,70,8510,4,28,0,28,0,1,,,,,,,,,,,,,,,,,,,,,,,,,,,,,,,,,,,,,,,
,,,,,,,,2023-08-16_08h32.43.198,HF_wild_card,2022.2.4,Win32,59.99160118,607c25220ce5e062f6eff874,64d2fd46c836a06233681665,64dc7b93c0c09417f2c49369,,,,,,,sngl,resources/Empty.png,resources/DP.BMP,Door2,0.392592593,-0.005555556,1,0,0,0.3988,optionRight,40,8550,4,29,0,29,0,1,,,,,,,,,,,,,,,,,,,,,,,,,,,,,,,,,,,,,,,
,,,,,,,,2023-08-16_08h32.43.198,HF_wild_card,2022.2.4,Win32,59.99160118,607c25220ce5e062f6eff874,64d2fd46c836a06233681665,64dc7b93c0c09417f2c49369,,,,,,,decisionTrl,resources/DBN.BMP,resources/DP.BMP,Door2,0.313888889,0.001851852,1,0,0,1.3466,optionRight,40,8590,4,30,0,30,0,1,,,,,,,,,,,,,,,,,,,,,,,,,,,,,,,,,,,,,,,
,,,,,,,,2023-08-16_08h32.43.198,HF_wild_card,2022.2.4,Win32,59.99160118,607c25220ce5e062f6eff874,64d2fd46c836a06233681665,64dc7b93c0c09417f2c49369,,,,,,,decisionTrl,resources/DP.BMP,resources/DBN.BMP,WildCard_Ex,0.522222222,0.000925926,1,0,0,1.8454,optionRight,95,8685,4,31,0,31,0,1,,,,,,,,,,,,,,,,,,,,,,,,,,,,,,,,,,,,,,,
,,,,,,,,2023-08-16_08h32.43.198,HF_wild_card,2022.2.4,Win32,59.99160118,607c25220ce5e062f6eff874,64d2fd46c836a06233681665,64dc7b93c0c09417f2c49369,,,,,,,decisionTrl,resources/DY.BMP,resources/DG.BMP,Door4,0.281481481,-0.001851852,1,0,0,0.7275,optionRight,80,8765,4,32,0,32,0,1,,,,,,,,,,,,,,,,,,,,,,,,,,,,,,,,,,,,,,,
,,,,,,,,2023-08-16_08h32.43.198,HF_wild_card,2022.2.4,Win32,59.99160118,607c25220ce5e062f6eff874,64d2fd46c836a06233681665,64dc7b93c0c09417f2c49369,,,,,,,sngl,resources/Empty.png,resources/DY.BMP,Door3,0.340740741,0.015740741,1,0,0,0.4116,optionRight,70,8835,4,33,0,33,0,1,,,,,,,,,,,,,,,,,,,,,,,,,,,,,,,,,,,,,,,
,,,,,,,,2023-08-16_08h32.43.198,HF_wild_card,2022.2.4,Win32,59.99160118,607c25220ce5e062f6eff874,64d2fd46c836a06233681665,64dc7b93c0c09417f2c49369,,,,,,,ctch,resources/DP.BMP,resources/DY.BMP,Door3,0.310185185,0.000925926,1,0,0,0.774,optionRight,70,8905,4,34,0,34,0,1,,,,,,,,,,,,,,,,,,,,,,,,,,,,,,,,,,,,,,,
,,,,,,,,2023-08-16_08h32.43.198,HF_wild_card,2022.2.4,Win32,59.99160118,607c25220ce5e062f6eff874,64d2fd46c836a06233681665,64dc7b93c0c09417f2c49369,,,,,,,ctch,resources/DG.BMP,resources/DR.BMP,Door1,0.314814815,0.022222222,1,0,0,0.5817,optionRight,30,8935,4,35,0,35,0,1,,,,,,,,,,,,,,,,,,,,,,,,,,,,,,,,,,,,,,,
,,,,,,,,2023-08-16_08h32.43.198,HF_wild_card,2022.2.4,Win32,59.99160118,607c25220ce5e062f6eff874,64d2fd46c836a06233681665,64dc7b93c0c09417f2c49369,,,,,,,decisionTrl,resources/DY.BMP,resources/DG.BMP,Door4,0.298148148,0.008333333,1,0,0,0.8114,optionRight,80,9015,4,36,0,36,0,1,,,,,,,,,,,,,,,,,,,,,,,,,,,,,,,,,,,,,,,
,,,,,,,,2023-08-16_08h32.43.198,HF_wild_card,2022.2.4,Win32,59.99160118,607c25220ce5e062f6eff874,64d2fd46c836a06233681665,64dc7b93c0c09417f2c49369,,,,,,,decisionTrl,resources/DR.BMP,resources/DP.BMP,Door2,0.501851852,-0.013888889,1,0,0,0.6651,optionRight,40,9055,4,37,0,37,0,1,,,,,,,,,,,,,,,,,,,,,,,,,,,,,,,,,,,,,,,
,,,,,,,,2023-08-16_08h32.43.198,HF_wild_card,2022.2.4,Win32,59.99160118,607c25220ce5e062f6eff874,64d2fd46c836a06233681665,64dc7b93c0c09417f2c49369,,,,,,,ctch,resources/DR.BMP,resources/DG.BMP,Door1,-0.3,-0.003703704,1,0,0,0.6114,optionLeft,30,9085,4,38,0,38,0,1,,,,,,,,,,,,,,,,,,,,,,,,,,,,,,,,,,,,,,,
,,,,,,,,2023-08-16_08h32.43.198,HF_wild_card,2022.2.4,Win32,59.99160118,607c25220ce5e062f6eff874,64d2fd46c836a06233681665,64dc7b93c0c09417f2c49369,,,,,,,decisionTrl,resources/DP.BMP,resources/DR.BMP,Door1,0.435185185,0.003703704,1,0,0,0.6158,optionRight,30,9115,4,39,0,39,0,1,,,,,,,,,,,,,,,,,,,,,,,,,,,,,,,,,,,,,,,
,,,,,,,,2023-08-16_08h32.43.198,HF_wild_card,2022.2.4,Win32,59.99160118,607c25220ce5e062f6eff874,64d2fd46c836a06233681665,64dc7b93c0c09417f2c49369,,,,,,,sngl,resources/Empty.png,resources/DR.BMP,Door1,0.498148148,0.009259259,1,0,0,0.5243,optionRight,30,9145,4,40,0,40,0,1,,,,,,,,,,,,,,,,,,,,,,,,,,,,,,,,,,,,,,,
,,,,,,,,2023-08-16_08h32.43.198,HF_wild_card,2022.2.4,Win32,59.99160118,607c25220ce5e062f6eff874,64d2fd46c836a06233681665,64dc7b93c0c09417f2c49369,,,,,,,decisionTrl,resources/DBN.BMP,resources/DR.BMP,WildCard_Ex,-0.231481481,0.010185185,1,0,0,0.6767,optionLeft,5,9150,4,41,0,41,0,1,,,,,,,,,,,,,,,,,,,,,,,,,,,,,,,,,,,,,,,
,,,,,,,,2023-08-16_08h32.43.198,HF_wild_card,2022.2.4,Win32,59.99160118,607c25220ce5e062f6eff874,64d2fd46c836a06233681665,64dc7b93c0c09417f2c49369,,,,,,,ctch,resources/DG.BMP,resources/DR.BMP,Door1,0.350925926,-0.016666667,1,0,0,0.478,optionRight,30,9180,4,42,0,42,0,1,,,,,,,,,,,,,,,,,,,,,,,,,,,,,,,,,,,,,,,
,,,,,,,,2023-08-16_08h32.43.198,HF_wild_card,2022.2.4,Win32,59.99160118,607c25220ce5e062f6eff874,64d2fd46c836a06233681665,64dc7b93c0c09417f2c49369,,,,,,,decisionTrl,resources/DG.BMP,resources/DY.BMP,Door3,0.415740741,0.002777778,1,0,0,0.6778,optionRight,70,9250,4,43,0,43,0,1,,,,,,,,,,,,,,,,,,,,,,,,,,,,,,,,,,,,,,,
,,,,,,,,2023-08-16_08h32.43.198,HF_wild_card,2022.2.4,Win32,59.99160118,607c25220ce5e062f6eff874,64d2fd46c836a06233681665,64dc7b93c0c09417f2c49369,,,,,,,,,,,,,,,,,,,,,,,,,,3,0,3,0,1,,,,,,,,,,,,,,,,,,,,,,,,,,,,,,,,,,
,,,,,,,,2023-08-16_08h32.43.198,HF_wild_card,2022.2.4,Win32,59.99160118,607c25220ce5e062f6eff874,64d2fd46c836a06233681665,64dc7b93c0c09417f2c49369,,,,,,,decisionTrl,resources/DG.BMP,resources/DY.BMP,Door3,0.362962963,-0.121296296,1,0,0,2.7305,optionRight,70,9320,5,0,0,0,0,1,,,,,,,,,,,,,,,,,,,,,,,,,,,,,,,,,,,,,,,
,,,,,,,,2023-08-16_08h32.43.198,HF_wild_card,2022.2.4,Win32,59.99160118,607c25220ce5e062f6eff874,64d2fd46c836a06233681665,64dc7b93c0c09417f2c49369,,,,,,,decisionTrl,resources/DR.BMP,resources/DBN.BMP,Door1,-0.405555556,-0.051851852,1,0,0,1.0939,optionLeft,30,9350,5,1,0,1,0,1,,,,,,,,,,,,,,,,,,,,,,,,,,,,,,,,,,,,,,,
,,,,,,,,2023-08-16_08h32.43.198,HF_wild_card,2022.2.4,Win32,59.99160118,607c25220ce5e062f6eff874,64d2fd46c836a06233681665,64dc7b93c0c09417f2c49369,,,,,,,ctch,resources/DG.BMP,resources/DR.BMP,Door1,0.381481481,-0.05,1,0,0,0.5321,optionRight,30,9380,5,2,0,2,0,1,,,,,,,,,,,,,,,,,,,,,,,,,,,,,,,,,,,,,,,
,,,,,,,,2023-08-16_08h32.43.198,HF_wild_card,2022.2.4,Win32,59.99160118,607c25220ce5e062f6eff874,64d2fd46c836a06233681665,64dc7b93c0c09417f2c49369,,,,,,,sngl,resources/DP.BMP,resources/Empty.png,Door2,-0.366666667,-0.008333333,1,0,0,0.3656,optionLeft,40,9420,5,3,0,3,0,1,,,,,,,,,,,,,,,,,,,,,,,,,,,,,,,,,,,,,,,
,,,,,,,,2023-08-16_08h32.43.198,HF_wild_card,2022.2.4,Win32,59.99160118,607c25220ce5e062f6eff874,64d2fd46c836a06233681665,64dc7b93c0c09417f2c49369,,,,,,,decisionTrl,resources/DP.BMP,resources/DR.BMP,Door1,0.472222222,-0.024074074,1,0,0,0.4159,optionRight,30,9450,5,4,0,4,0,1,,,,,,,,,,,,,,,,,,,,,,,,,,,,,,,,,,,,,,,
,,,,,,,,2023-08-16_08h32.43.198,HF_wild_card,2022.2.4,Win32,59.99160118,607c25220ce5e062f6eff874,64d2fd46c836a06233681665,64dc7b93c0c09417f2c49369,,,,,,,decisionTrl,resources/DG.BMP,resources/DY.BMP,Door4,-0.409259259,-0.071296296,1,0,0,1.2974,optionLeft,80,9530,5,5,0,5,0,1,,,,,,,,,,,,,,,,,,,,,,,,,,,,,,,,,,,,,,,
,,,,,,,,2023-08-16_08h32.43.198,HF_wild_card,2022.2.4,Win32,59.99160118,607c25220ce5e062f6eff874,64d2fd46c836a06233681665,64dc7b93c0c09417f2c49369,,,,,,,sngl,resources/Empty.png,resources/DG.BMP,Door4,0.335185185,-0.024074074,1,0,0,0.3946,optionRight,60,9590,5,6,0,6,0,1,,,,,,,,,,,,,,,,,,,,,,,,,,,,,,,,,,,,,,,
,,,,,,,,2023-08-16_08h32.43.198,HF_wild_card,2022.2.4,Win32,59.99160118,607c25220ce5e062f6eff874,64d2fd46c836a06233681665,64dc7b93c0c09417f2c49369,,,,,,,decisionTrl,resources/DG.BMP,resources/DY.BMP,Door4,-0.293518519,-0.021296296,1,0,0,0.5637,optionLeft,80,9670,5,7,0,7,0,1,,,,,,,,,,,,,,,,,,,,,,,,,,,,,,,,,,,,,,,
,,,,,,,,2023-08-16_08h32.43.198,HF_wild_card,2022.2.4,Win32,59.99160118,607c25220ce5e062f6eff874,64d2fd46c836a06233681665,64dc7b93c0c09417f2c49369,,,,,,,decisionTrl,resources/DP.BMP,resources/DR.BMP,Door1,0.341666667,0.000925926,1,0,0,0.4654,optionRight,30,9700,5,8,0,8,0,1,,,,,,,,,,,,,,,,,,,,,,,,,,,,,,,,,,,,,,,
,,,,,,,,2023-08-16_08h32.43.198,HF_wild_card,2022.2.4,Win32,59.99160118,607c25220ce5e062f6eff874,64d2fd46c836a06233681665,64dc7b93c0c09417f2c49369,,,,,,,decisionTrl,resources/DBN.BMP,resources/DY.BMP,WildCard_Ex,-0.247222222,-0.026851852,1,0,0,0.4656,optionLeft,5,9705,5,9,0,9,0,1,,,,,,,,,,,,,,,,,,,,,,,,,,,,,,,,,,,,,,,
,,,,,,,,2023-08-16_08h32.43.198,HF_wild_card,2022.2.4,Win32,59.99160118,607c25220ce5e062f6eff874,64d2fd46c836a06233681665,64dc7b93c0c09417f2c49369,,,,,,,decisionTrl,resources/DY.BMP,resources/DG.BMP,Door4,0.435185185,-0.006481481,1,0,0,0.3439,optionRight,80,9785,5,10,0,10,0,1,,,,,,,,,,,,,,,,,,,,,,,,,,,,,,,,,,,,,,,
,,,,,,,,2023-08-16_08h32.43.198,HF_wild_card,2022.2.4,Win32,59.99160118,607c25220ce5e062f6eff874,64d2fd46c836a06233681665,64dc7b93c0c09417f2c49369,,,,,,,decisionTrl,resources/DY.BMP,resources/DBN.BMP,Door3,-0.358333333,0.041666667,1,0,0,0.8442,optionLeft,70,9855,5,11,0,11,0,1,,,,,,,,,,,,,,,,,,,,,,,,,,,,,,,,,,,,,,,
,,,,,,,,2023-08-16_08h32.43.198,HF_wild_card,2022.2.4,Win32,59.99160118,607c25220ce5e062f6eff874,64d2fd46c836a06233681665,64dc7b93c0c09417f2c49369,,,,,,,decisionTrl,resources/DBN.BMP,resources/DR.BMP,Door1,0.388888889,-0.011111111,1,0,0,0.7937,optionRight,30,9885,5,12,0,12,0,1,,,,,,,,,,,,,,,,,,,,,,,,,,,,,,,,,,,,,,,
,,,,,,,,2023-08-16_08h32.43.198,HF_wild_card,2022.2.4,Win32,59.99160118,607c25220ce5e062f6eff874,64d2fd46c836a06233681665,64dc7b93c0c09417f2c49369,,,,,,,ctch,resources/DG.BMP,resources/DR.BMP,Door4,-0.27962963,-0.021296296,1,0,0,0.5605,optionLeft,60,9945,5,13,0,13,0,1,,,,,,,,,,,,,,,,,,,,,,,,,,,,,,,,,,,,,,,
,,,,,,,,2023-08-16_08h32.43.198,HF_wild_card,2022.2.4,Win32,59.99160118,607c25220ce5e062f6eff874,64d2fd46c836a06233681665,64dc7b93c0c09417f2c49369,,,,,,,sngl,resources/Empty.png,resources/DP.BMP,Door2,0.437962963,-0.059259259,1,0,0,0.7156,optionRight,20,9965,5,14,0,14,0,1,,,,,,,,,,,,,,,,,,,,,,,,,,,,,,,,,,,,,,,
,,,,,,,,2023-08-16_08h32.43.198,HF_wild_card,2022.2.4,Win32,59.99160118,607c25220ce5e062f6eff874,64d2fd46c836a06233681665,64dc7b93c0c09417f2c49369,,,,,,,ctch,resources/DY.BMP,resources/DP.BMP,Door2,0.383333333,-0.064814815,1,0,0,0.5328,optionRight,20,9985,5,15,0,15,0,1,,,,,,,,,,,,,,,,,,,,,,,,,,,,,,,,,,,,,,,
,,,,,,,,2023-08-16_08h32.43.198,HF_wild_card,2022.2.4,Win32,59.99160118,607c25220ce5e062f6eff874,64d2fd46c836a06233681665,64dc7b93c0c09417f2c49369,,,,,,,decisionTrl,resources/DR.BMP,resources/DP.BMP,Door2,0.234259259,-0.051851852,1,0,0,0.6447,optionRight,40,10025,5,16,0,16,0,1,,,,,,,,,,,,,,,,,,,,,,,,,,,,,,,,,,,,,,,
,,,,,,,,2023-08-16_08h32.43.198,HF_wild_card,2022.2.4,Win32,59.99160118,607c25220ce5e062f6eff874,64d2fd46c836a06233681665,64dc7b93c0c09417f2c49369,,,,,,,decisionTrl,resources/DR.BMP,resources/DP.BMP,Door2,0.307407407,-0.001851852,1,0,0,0.494,optionRight,20,10045,5,17,0,17,0,1,,,,,,,,,,,,,,,,,,,,,,,,,,,,,,,,,,,,,,,
,,,,,,,,2023-08-16_08h32.43.198,HF_wild_card,2022.2.4,Win32,59.99160118,607c25220ce5e062f6eff874,64d2fd46c836a06233681665,64dc7b93c0c09417f2c49369,,,,,,,sngl,resources/DR.BMP,resources/Empty.png,Door1,-0.209259259,-0.021296296,1,0,0,0.443,optionLeft,30,10075,5,18,0,18,0,1,,,,,,,,,,,,,,,,,,,,,,,,,,,,,,,,,,,,,,,
,,,,,,,,2023-08-16_08h32.43.198,HF_wild_card,2022.2.4,Win32,59.99160118,607c25220ce5e062f6eff874,64d2fd46c836a06233681665,64dc7b93c0c09417f2c49369,,,,,,,decisionTrl,resources/DP.BMP,resources/DR.BMP,Door1,0.37037037,-0.044444444,1,0,0,0.4324,optionRight,30,10105,5,19,0,19,0,1,,,,,,,,,,,,,,,,,,,,,,,,,,,,,,,,,,,,,,,
,,,,,,,,2023-08-16_08h32.43.198,HF_wild_card,2022.2.4,Win32,59.99160118,607c25220ce5e062f6eff874,64d2fd46c836a06233681665,64dc7b93c0c09417f2c49369,,,,,,,sngl,resources/DG.BMP,resources/Empty.png,Door4,-0.238888889,-0.012037037,1,0,0,0.4107,optionLeft,80,10185,5,20,0,20,0,1,,,,,,,,,,,,,,,,,,,,,,,,,,,,,,,,,,,,,,,
,,,,,,,,2023-08-16_08h32.43.198,HF_wild_card,2022.2.4,Win32,59.99160118,607c25220ce5e062f6eff874,64d2fd46c836a06233681665,64dc7b93c0c09417f2c49369,,,,,,,ctch,resources/DY.BMP,resources/DP.BMP,Door2,0.333333333,-0.00462963,1,0,0,0.4154,optionRight,40,10225,5,21,0,21,0,1,,,,,,,,,,,,,,,,,,,,,,,,,,,,,,,,,,,,,,,
,,,,,,,,2023-08-16_08h32.43.198,HF_wild_card,2022.2.4,Win32,59.99160118,607c25220ce5e062f6eff874,64d2fd46c836a06233681665,64dc7b93c0c09417f2c49369,,,,,,,decisionTrl,resources/DG.BMP,resources/DBN.BMP,Door4,-0.293518519,0.009259259,1,0,0,0.8265,optionLeft,80,10305,5,22,0,22,0,1,,,,,,,,,,,,,,,,,,,,,,,,,,,,,,,,,,,,,,,
,,,,,,,,2023-08-16_08h32.43.198,HF_wild_card,2022.2.4,Win32,59.99160118,607c25220ce5e062f6eff874,64d2fd46c836a06233681665,64dc7b93c0c09417f2c49369,,,,,,,sngl,resources/Empty.png,resources/DBN.BMP,WildCard_Ex,0.314814815,-0.007407407,1,0,0,0.4358,optionRight,95,10400,5,23,0,23,0,1,,,,,,,,,,,,,,,,,,,,,,,,,,,,,,,,,,,,,,,
,,,,,,,,2023-08-16_08h32.43.198,HF_wild_card,2022.2.4,Win32,59.99160118,607c25220ce5e062f6eff874,64d2fd46c836a06233681665,64dc7b93c0c09417f2c49369,,,,,,,sngl,resources/DY.BMP,resources/Empty.png,Door3,-0.498148148,0.036111111,1,0,0,0.9144,optionLeft,70,10470,5,24,0,24,0,1,,,,,,,,,,,,,,,,,,,,,,,,,,,,,,,,,,,,,,,
,,,,,,,,2023-08-16_08h32.43.198,HF_wild_card,2022.2.4,Win32,59.99160118,607c25220ce5e062f6eff874,64d2fd46c836a06233681665,64dc7b93c0c09417f2c49369,,,,,,,sngl,resources/Empty.png,resources/DBN.BMP,WildCard_Ex,0.27962963,0.002777778,1,0,0,0.6984,optionRight,5,10475,5,25,0,25,0,1,,,,,,,,,,,,,,,,,,,,,,,,,,,,,,,,,,,,,,,
,,,,,,,,2023-08-16_08h32.43.198,HF_wild_card,2022.2.4,Win32,59.99160118,607c25220ce5e062f6eff874,64d2fd46c836a06233681665,64dc7b93c0c09417f2c49369,,,,,,,decisionTrl,resources/DR.BMP,resources/DP.BMP,Door1,-0.27962963,-0.010185185,1,0,0,0.5656,optionLeft,30,10505,5,26,0,26,0,1,,,,,,,,,,,,,,,,,,,,,,,,,,,,,,,,,,,,,,,
,,,,,,,,2023-08-16_08h32.43.198,HF_wild_card,2022.2.4,Win32,59.99160118,607c25220ce5e062f6eff874,64d2fd46c836a06233681665,64dc7b93c0c09417f2c49369,,,,,,,sngl,resources/Empty.png,resources/DR.BMP,Door1,0.212962963,0.002777778,1,0,0,0.3823,optionRight,30,10535,5,27,0,27,0,1,,,,,,,,,,,,,,,,,,,,,,,,,,,,,,,,,,,,,,,
,,,,,,,,2023-08-16_08h32.43.198,HF_wild_card,2022.2.4,Win32,59.99160118,607c25220ce5e062f6eff874,64d2fd46c836a06233681665,64dc7b93c0c09417f2c49369,,,,,,,decisionTrl,resources/DG.BMP,resources/DY.BMP,Door3,0.442592593,0.013888889,1,0,0,0.8786,optionRight,70,10605,5,28,0,28,0,1,,,,,,,,,,,,,,,,,,,,,,,,,,,,,,,,,,,,,,,
,,,,,,,,2023-08-16_08h32.43.198,HF_wild_card,2022.2.4,Win32,59.99160118,607c25220ce5e062f6eff874,64d2fd46c836a06233681665,64dc7b93c0c09417f2c49369,,,,,,,decisionTrl,resources/DBN.BMP,resources/DP.BMP,Door2,0.396296296,0.014814815,1,0,0,0.7113,optionRight,20,10625,5,29,0,29,0,1,,,,,,,,,,,,,,,,,,,,,,,,,,,,,,,,,,,,,,,
,,,,,,,,2023-08-16_08h32.43.198,HF_wild_card,2022.2.4,Win32,59.99160118,607c25220ce5e062f6eff874,64d2fd46c836a06233681665,64dc7b93c0c09417f2c49369,,,,,,,sngl,resources/DBN.BMP,resources/Empty.png,WildCard_Ex,-0.224074074,0.033333333,1,0,0,0.3943,optionLeft,95,10720,5,30,0,30,0,1,,,,,,,,,,,,,,,,,,,,,,,,,,,,,,,,,,,,,,,
,,,,,,,,2023-08-16_08h32.43.198,HF_wild_card,2022.2.4,Win32,59.99160118,607c25220ce5e062f6eff874,64d2fd46c836a06233681665,64dc7b93c0c09417f2c49369,,,,,,,ctch,resources/DP.BMP,resources/DY.BMP,Door3,0.510185185,0.005555556,1,0,0,0.4441,optionRight,70,10790,5,31,0,31,0,1,,,,,,,,,,,,,,,,,,,,,,,,,,,,,,,,,,,,,,,
,,,,,,,,2023-08-16_08h32.43.198,HF_wild_card,2022.2.4,Win32,59.99160118,607c25220ce5e062f6eff874,64d2fd46c836a06233681665,64dc7b93c0c09417f2c49369,,,,,,,sngl,resources/DBN.BMP,resources/Empty.png,WildCard_Ex,-0.167592593,-0.007407407,1,0,0,0.5276,optionLeft,5,10795,5,32,0,32,0,1,,,,,,,,,,,,,,,,,,,,,,,,,,,,,,,,,,,,,,,
,,,,,,,,2023-08-16_08h32.43.198,HF_wild_card,2022.2.4,Win32,59.99160118,607c25220ce5e062f6eff874,64d2fd46c836a06233681665,64dc7b93c0c09417f2c49369,,,,,,,decisionTrl,resources/DY.BMP,resources/DG.BMP,Door4,0.34537037,-0.009259259,1,0,0,0.6816,optionRight,60,10855,5,33,0,33,0,1,,,,,,,,,,,,,,,,,,,,,,,,,,,,,,,,,,,,,,,
,,,,,,,,2023-08-16_08h32.43.198,HF_wild_card,2022.2.4,Win32,59.99160118,607c25220ce5e062f6eff874,64d2fd46c836a06233681665,64dc7b93c0c09417f2c49369,,,,,,,decisionTrl,resources/DY.BMP,resources/DG.BMP,Door3,-0.34537037,-0.009259259,1,0,0,0.5485,optionLeft,70,10925,5,34,0,34,0,1,,,,,,,,,,,,,,,,,,,,,,,,,,,,,,,,,,,,,,,
,,,,,,,,2023-08-16_08h32.43.198,HF_wild_card,2022.2.4,Win32,59.99160118,607c25220ce5e062f6eff874,64d2fd46c836a06233681665,64dc7b93c0c09417f2c49369,,,,,,,decisionTrl,resources/DP.BMP,resources/DR.BMP,Door1,0.491666667,-0.062037037,1,0,0,0.7022,optionRight,30,10955,5,35,0,35,0,1,,,,,,,,,,,,,,,,,,,,,,,,,,,,,,,,,,,,,,,
,,,,,,,,2023-08-16_08h32.43.198,HF_wild_card,2022.2.4,Win32,59.99160118,607c25220ce5e062f6eff874,64d2fd46c836a06233681665,64dc7b93c0c09417f2c49369,,,,,,,decisionTrl,resources/DBN.BMP,resources/DG.BMP,WildCard_Ex,-0.259259259,-0.076851852,1,0,0,0.5489,optionLeft,5,10960,5,36,0,36,0,1,,,,,,,,,,,,,,,,,,,,,,,,,,,,,,,,,,,,,,,
,,,,,,,,2023-08-16_08h32.43.198,HF_wild_card,2022.2.4,Win32,59.99160118,607c25220ce5e062f6eff874,64d2fd46c836a06233681665,64dc7b93c0c09417f2c49369,,,,,,,decisionTrl,resources/DY.BMP,resources/DG.BMP,Door4,0.421296296,-0.023148148,1,0,0,0.4488,optionRight,60,11020,5,37,0,37,0,1,,,,,,,,,,,,,,,,,,,,,,,,,,,,,,,,,,,,,,,
,,,,,,,,2023-08-16_08h32.43.198,HF_wild_card,2022.2.4,Win32,59.99160118,607c25220ce5e062f6eff874,64d2fd46c836a06233681665,64dc7b93c0c09417f2c49369,,,,,,,decisionTrl,resources/DP.BMP,resources/DBN.BMP,Door2,-0.221296296,-0.012037037,1,0,0,0.7657,optionLeft,20,11040,5,38,0,38,0,1,,,,,,,,,,,,,,,,,,,,,,,,,,,,,,,,,,,,,,,
,,,,,,,,2023-08-16_08h32.43.198,HF_wild_card,2022.2.4,Win32,59.99160118,607c25220ce5e062f6eff874,64d2fd46c836a06233681665,64dc7b93c0c09417f2c49369,,,,,,,ctch,resources/DP.BMP,resources/DY.BMP,Door2,-0.293518519,-0.034259259,1,0,0,0.5231,optionLeft,20,11060,5,39,0,39,0,1,,,,,,,,,,,,,,,,,,,,,,,,,,,,,,,,,,,,,,,
,,,,,,,,2023-08-16_08h32.43.198,HF_wild_card,2022.2.4,Win32,59.99160118,607c25220ce5e062f6eff874,64d2fd46c836a06233681665,64dc7b93c0c09417f2c49369,,,,,,,ctch,resources/DR.BMP,resources/DG.BMP,Door4,0.263888889,0.030555556,1,0,0,1.6575,optionRight,60,11120,5,40,0,40,0,1,,,,,,,,,,,,,,,,,,,,,,,,,,,,,,,,,,,,,,,
,,,,,,,,2023-08-16_08h32.43.198,HF_wild_card,2022.2.4,Win32,59.99160118,607c25220ce5e062f6eff874,64d2fd46c836a06233681665,64dc7b93c0c09417f2c49369,,,,,,,decisionTrl,resources/DR.BMP,resources/DP.BMP,Door2,0.362037037,-0.058333333,1,0,0,0.4953,optionRight,40,11160,5,41,0,41,0,1,,,,,,,,,,,,,,,,,,,,,,,,,,,,,,,,,,,,,,,
,,,,,,,,2023-08-16_08h32.43.198,HF_wild_card,2022.2.4,Win32,59.99160118,607c25220ce5e062f6eff874,64d2fd46c836a06233681665,64dc7b93c0c09417f2c49369,,,,,,,sngl,resources/Empty.png,resources/DY.BMP,Door3,0.32962963,0.033333333,1,0,0,0.398,optionRight,70,11230,5,42,0,42,0,1,,,,,,,,,,,,,,,,,,,,,,,,,,,,,,,,,,,,,,,
,,,,,,,,2023-08-16_08h32.43.198,HF_wild_card,2022.2.4,Win32,59.99160118,607c25220ce5e062f6eff874,64d2fd46c836a06233681665,64dc7b93c0c09417f2c49369,,,,,,,ctch,resources/DR.BMP,resources/DG.BMP,Door4,0.372222222,0.012962963,1,0,0,0.7992,optionRight,80,11310,5,43,0,43,0,1,,,,,,,,,,,,,,,,,,,,,,,,,,,,,,,,,,,,,,,
,,,,,,,,2023-08-16_08h32.43.198,HF_wild_card,2022.2.4,Win32,59.99160118,607c25220ce5e062f6eff874,64d2fd46c836a06233681665,64dc7b93c0c09417f2c49369,,,,,,,,,,,,,,,,,,,,,,,,,,4,0,4,0,1,,,,,,,,,,,,,,,,,,,,,,,,,,,,,,,,,,
,,,,,,,,2023-08-16_08h32.43.198,HF_wild_card,2022.2.4,Win32,59.99160118,607c25220ce5e062f6eff874,64d2fd46c836a06233681665,64dc7b93c0c09417f2c49369,,,,,,,decisionTrl,resources/DY.BMP,resources/DG.BMP,Door4,0.490740741,-0.12962963,1,0,0,2.5939,optionRight,60,11370,6,0,0,0,0,1,,,,,,,,,,,,,,,,,,,,,,,,,,,,,,,,,,,,,,,
,,,,,,,,2023-08-16_08h32.43.198,HF_wild_card,2022.2.4,Win32,59.99160118,607c25220ce5e062f6eff874,64d2fd46c836a06233681665,64dc7b93c0c09417f2c49369,,,,,,,decisionTrl,resources/DG.BMP,resources/DY.BMP,Door4,-0.337037037,-0.031481481,1,0,0,0.4783,optionLeft,60,11430,6,1,0,1,0,1,,,,,,,,,,,,,,,,,,,,,,,,,,,,,,,,,,,,,,,
,,,,,,,,2023-08-16_08h32.43.198,HF_wild_card,2022.2.4,Win32,59.99160118,607c25220ce5e062f6eff874,64d2fd46c836a06233681665,64dc7b93c0c09417f2c49369,,,,,,,ctch,resources/DY.BMP,resources/DP.BMP,Door2,0.322222222,-0.003703704,1,0,0,0.5286,optionRight,40,11470,6,2,0,2,0,1,,,,,,,,,,,,,,,,,,,,,,,,,,,,,,,,,,,,,,,
,,,,,,,,2023-08-16_08h32.43.198,HF_wild_card,2022.2.4,Win32,59.99160118,607c25220ce5e062f6eff874,64d2fd46c836a06233681665,64dc7b93c0c09417f2c49369,,,,,,,ctch,resources/DP.BMP,resources/DY.BMP,Door2,-0.373148148,-0.030555556,1,0,0,0.6783,optionLeft,20,11490,6,3,0,3,0,1,,,,,,,,,,,,,,,,,,,,,,,,,,,,,,,,,,,,,,,
,,,,,,,,2023-08-16_08h32.43.198,HF_wild_card,2022.2.4,Win32,59.99160118,607c25220ce5e062f6eff874,64d2fd46c836a06233681665,64dc7b93c0c09417f2c49369,,,,,,,decisionTrl,resources/DY.BMP,resources/DG.BMP,Door4,0.425,-0.001851852,1,0,0,0.5657,optionRight,60,11550,6,4,0,4,0,1,,,,,,,,,,,,,,,,,,,,,,,,,,,,,,,,,,,,,,,
,,,,,,,,2023-08-16_08h32.43.198,HF_wild_card,2022.2.4,Win32,59.99160118,607c25220ce5e062f6eff874,64d2fd46c836a06233681665,64dc7b93c0c09417f2c49369,,,,,,,sngl,resources/DP.BMP,resources/Empty.png,Door2,-0.456481481,0,1,0,0,0.4858,optionLeft,20,11570,6,5,0,5,0,1,,,,,,,,,,,,,,,,,,,,,,,,,,,,,,,,,,,,,,,
,,,,,,,,2023-08-16_08h32.43.198,HF_wild_card,2022.2.4,Win32,59.99160118,607c25220ce5e062f6eff874,64d2fd46c836a06233681665,64dc7b93c0c09417f2c49369,,,,,,,decisionTrl,resources/DP.BMP,resources/DR.BMP,Door2,-0.412037037,-0.001851852,1,0,0,0.8156,optionLeft,40,11610,6,6,0,6,0,1,,,,,,,,,,,,,,,,,,,,,,,,,,,,,,,,,,,,,,,
,,,,,,,,2023-08-16_08h32.43.198,HF_wild_card,2022.2.4,Win32,59.99160118,607c25220ce5e062f6eff874,64d2fd46c836a06233681665,64dc7b93c0c09417f2c49369,,,,,,,decisionTrl,resources/DP.BMP,resources/DR.BMP,Door2,-0.275925926,-0.026851852,1,0,0,0.9486,optionLeft,40,11650,6,7,0,7,0,1,,,,,,,,,,,,,,,,,,,,,,,,,,,,,,,,,,,,,,,
,,,,,,,,2023-08-16_08h32.43.198,HF_wild_card,2022.2.4,Win32,59.99160118,607c25220ce5e062f6eff874,64d2fd46c836a06233681665,64dc7b93c0c09417f2c49369,,,,,,,decisionTrl,resources/DG.BMP,resources/DY.BMP,Door4,-0.391666667,-0.019444444,1,0,0,0.6334,optionLeft,80,11730,6,8,0,8,0,1,,,,,,,,,,,,,,,,,,,,,,,,,,,,,,,,,,,,,,,
,,,,,,,,2023-08-16_08h32.43.198,HF_wild_card,2022.2.4,Win32,59.99160118,607c25220ce5e062f6eff874,64d2fd46c836a06233681665,64dc7b93c0c09417f2c49369,,,,,,,sngl,resources/DBN.BMP,resources/Empty.png,WildCard_Ex,-0.206481481,-0.005555556,1,0,0,0.5773,optionLeft,5,11735,6,9,0,9,0,1,,,,,,,,,,,,,,,,,,,,,,,,,,,,,,,,,,,,,,,
,,,,,,,,2023-08-16_08h32.43.198,HF_wild_card,2022.2.4,Win32,59.99160118,607c25220ce5e062f6eff874,64d2fd46c836a06233681665,64dc7b93c0c09417f2c49369,,,,,,,sngl,resources/DG.BMP,resources/Empty.png,Door4,-0.285185185,-0.05462963,1,0,0,0.5991,optionLeft,60,11795,6,10,0,10,0,1,,,,,,,,,,,,,,,,,,,,,,,,,,,,,,,,,,,,,,,
,,,,,,,,2023-08-16_08h32.43.198,HF_wild_card,2022.2.4,Win32,59.99160118,607c25220ce5e062f6eff874,64d2fd46c836a06233681665,64dc7b93c0c09417f2c49369,,,,,,,decisionTrl,resources/DR.BMP,resources/DBN.BMP,Door1,-0.302777778,-0.074074074,1,0,0,0.9525,optionLeft,30,11825,6,11,0,11,0,1,,,,,,,,,,,,,,,,,,,,,,,,,,,,,,,,,,,,,,,
,,,,,,,,2023-08-16_08h32.43.198,HF_wild_card,2022.2.4,Win32,59.99160118,607c25220ce5e062f6eff874,64d2fd46c836a06233681665,64dc7b93c0c09417f2c49369,,,,,,,ctch,resources/DR.BMP,resources/DG.BMP,Door4,0.487962963,-0.011111111,1,0,0,0.5133,optionRight,80,11905,6,12,0,12,0,1,,,,,,,,,,,,,,,,,,,,,,,,,,,,,,,,,,,,,,,
,,,,,,,,2023-08-16_08h32.43.198,HF_wild_card,2022.2.4,Win32,59.99160118,607c25220ce5e062f6eff874,64d2fd46c836a06233681665,64dc7b93c0c09417f2c49369,,,,,,,ctch,resources/DY.BMP,resources/DP.BMP,Door2,0.359259259,-0.069444444,1,0,0,0.9604,optionRight,40,11945,6,13,0,13,0,1,,,,,,,,,,,,,,,,,,,,,,,,,,,,,,,,,,,,,,,
,,,,,,,,2023-08-16_08h32.43.198,HF_wild_card,2022.2.4,Win32,59.99160118,607c25220ce5e062f6eff874,64d2fd46c836a06233681665,64dc7b93c0c09417f2c49369,,,,,,,sngl,resources/Empty.png,resources/DBN.BMP,WildCard_Ex,0.299074074,-0.011111111,1,0,0,0.3994,optionRight,95,12040,6,14,0,14,0,1,,,,,,,,,,,,,,,,,,,,,,,,,,,,,,,,,,,,,,,
,,,,,,,,2023-08-16_08h32.43.198,HF_wild_card,2022.2.4,Win32,59.99160118,607c25220ce5e062f6eff874,64d2fd46c836a06233681665,64dc7b93c0c09417f2c49369,,,,,,,sngl,resources/Empty.png,resources/DP.BMP,Door2,0.352777778,0.007407407,1,0,0,0.4489,optionRight,40,12080,6,15,0,15,0,1,,,,,,,,,,,,,,,,,,,,,,,,,,,,,,,,,,,,,,,
,,,,,,,,2023-08-16_08h32.43.198,HF_wild_card,2022.2.4,Win32,59.99160118,607c25220ce5e062f6eff874,64d2fd46c836a06233681665,64dc7b93c0c09417f2c49369,,,,,,,sngl,resources/DBN.BMP,resources/Empty.png,WildCard_Ex,-0.315740741,-0.046296296,1,0,0,0.5661,optionLeft,95,12175,6,16,0,16,0,1,,,,,,,,,,,,,,,,,,,,,,,,,,,,,,,,,,,,,,,
,,,,,,,,2023-08-16_08h32.43.198,HF_wild_card,2022.2.4,Win32,59.99160118,607c25220ce5e062f6eff874,64d2fd46c836a06233681665,64dc7b93c0c09417f2c49369,,,,,,,sngl,resources/Empty.png,resources/DG.BMP,Door4,0.325925926,-0.056481481,1,0,0,1.3772,optionRight,80,12255,6,17,0,17,0,1,,,,,,,,,,,,,,,,,,,,,,,,,,,,,,,,,,,,,,,
,,,,,,,,2023-08-16_08h32.43.198,HF_wild_card,2022.2.4,Win32,59.99160118,607c25220ce5e062f6eff874,64d2fd46c836a06233681665,64dc7b93c0c09417f2c49369,,,,,,,decisionTrl,resources/DR.BMP,resources/DP.BMP,Door2,0.386111111,-0.039814815,1,0,0,0.6333,optionRight,40,12295,6,18,0,18,0,1,,,,,,,,,,,,,,,,,,,,,,,,,,,,,,,,,,,,,,,
,,,,,,,,2023-08-16_08h32.43.198,HF_wild_card,2022.2.4,Win32,59.99160118,607c25220ce5e062f6eff874,64d2fd46c836a06233681665,64dc7b93c0c09417f2c49369,,,,,,,ctch,resources/DG.BMP,resources/DR.BMP,Door4,-0.413888889,0.000925926,1,0,0,0.7436,optionLeft,80,12375,6,19,0,19,0,1,,,,,,,,,,,,,,,,,,,,,,,,,,,,,,,,,,,,,,,
,,,,,,,,2023-08-16_08h32.43.198,HF_wild_card,2022.2.4,Win32,59.99160118,607c25220ce5e062f6eff874,64d2fd46c836a06233681665,64dc7b93c0c09417f2c49369,,,,,,,decisionTrl,resources/DG.BMP,resources/DBN.BMP,Door4,-0.302777778,0.00462963,1,0,0,0.7945,optionLeft,80,12455,6,20,0,20,0,1,,,,,,,,,,,,,,,,,,,,,,,,,,,,,,,,,,,,,,,
,,,,,,,,2023-08-16_08h32.43.198,HF_wild_card,2022.2.4,Win32,59.99160118,607c25220ce5e062f6eff874,64d2fd46c836a06233681665,64dc7b93c0c09417f2c49369,,,,,,,ctch,resources/DG.BMP,resources/DR.BMP,Door4,-0.360185185,0.026851852,1,0,0,1.6114,optionLeft,60,12515,6,21,0,21,0,1,,,,,,,,,,,,,,,,,,,,,,,,,,,,,,,,,,,,,,,
,,,,,,,,2023-08-16_08h32.43.198,HF_wild_card,2022.2.4,Win32,59.99160118,607c25220ce5e062f6eff874,64d2fd46c836a06233681665,64dc7b93c0c09417f2c49369,,,,,,,decisionTrl,resources/DBN.BMP,resources/DP.BMP,Door2,0.303703704,-0.00462963,1,0,0,0.5489,optionRight,20,12535,6,22,0,22,0,1,,,,,,,,,,,,,,,,,,,,,,,,,,,,,,,,,,,,,,,
,,,,,,,,2023-08-16_08h32.43.198,HF_wild_card,2022.2.4,Win32,59.99160118,607c25220ce5e062f6eff874,64d2fd46c836a06233681665,64dc7b93c0c09417f2c49369,,,,,,,decisionTrl,resources/DP.BMP,resources/DR.BMP,Door2,-0.289814815,-0.046296296,1,0,0,0.5784,optionLeft,40,12575,6,23,0,23,0,1,,,,,,,,,,,,,,,,,,,,,,,,,,,,,,,,,,,,,,,
,,,,,,,,2023-08-16_08h32.43.198,HF_wild_card,2022.2.4,Win32,59.99160118,607c25220ce5e062f6eff874,64d2fd46c836a06233681665,64dc7b93c0c09417f2c49369,,,,,,,ctch,resources/DR.BMP,resources/DG.BMP,Door4,0.338888889,0.000925926,1,0,0,0.3774,optionRight,80,12655,6,24,0,24,0,1,,,,,,,,,,,,,,,,,,,,,,,,,,,,,,,,,,,,,,,
,,,,,,,,2023-08-16_08h32.43.198,HF_wild_card,2022.2.4,Win32,59.99160118,607c25220ce5e062f6eff874,64d2fd46c836a06233681665,64dc7b93c0c09417f2c49369,,,,,,,decisionTrl,resources/DR.BMP,resources/DP.BMP,Door1,-0.287962963,-0.021296296,1,0,0,4.1612,optionLeft,30,12685,6,25,0,25,0,1,,,,,,,,,,,,,,,,,,,,,,,,,,,,,,,,,,,,,,,
,,,,,,,,2023-08-16_08h32.43.198,HF_wild_card,2022.2.4,Win32,59.99160118,607c25220ce5e062f6eff874,64d2fd46c836a06233681665,64dc7b93c0c09417f2c49369,,,,,,,decisionTrl,resources/DY.BMP,resources/DG.BMP,Door4,0.522222222,-0.008333333,1,0,0,0.511,optionRight,80,12765,6,26,0,26,0,1,,,,,,,,,,,,,,,,,,,,,,,,,,,,,,,,,,,,,,,
,,,,,,,,2023-08-16_08h32.43.198,HF_wild_card,2022.2.4,Win32,59.99160118,607c25220ce5e062f6eff874,64d2fd46c836a06233681665,64dc7b93c0c09417f2c49369,,,,,,,sngl,resources/DR.BMP,resources/Empty.png,Door1,-0.181481481,-0.022222222,1,0,0,0.4451,optionLeft,30,12795,6,27,0,27,0,1,,,,,,,,,,,,,,,,,,,,,,,,,,,,,,,,,,,,,,,
,,,,,,,,2023-08-16_08h32.43.198,HF_wild_card,2022.2.4,Win32,59.99160118,607c25220ce5e062f6eff874,64d2fd46c836a06233681665,64dc7b93c0c09417f2c49369,,,,,,,decisionTrl,resources/DP.BMP,resources/DBN.BMP,Door2,-0.262037037,-0.006481481,1,0,0,0.7243,optionLeft,40,12835,6,28,0,28,0,1,,,,,,,,,,,,,,,,,,,,,,,,,,,,,,,,,,,,,,,
,,,,,,,,2023-08-16_08h32.43.198,HF_wild_card,2022.2.4,Win32,59.99160118,607c25220ce5e062f6eff874,64d2fd46c836a06233681665,64dc7b93c0c09417f2c49369,,,,,,,decisionTrl,resources/DG.BMP,resources/DY.BMP,Door4,-0.291666667,-0.011111111,1,0,0,0.5407,optionLeft,60,12895,6,29,0,29,0,1,,,,,,,,,,,,,,,,,,,,,,,,,,,,,,,,,,,,,,,
,,,,,,,,2023-08-16_08h32.43.198,HF_wild_card,2022.2.4,Win32,59.99160118,607c25220ce5e062f6eff874,64d2fd46c836a06233681665,64dc7b93c0c09417f2c49369,,,,,,,sngl,resources/Empty.png,resources/DBN.BMP,WildCard_Ex,0.35462963,-0.009259259,1,0,0,0.5404,optionRight,5,12900,6,30,0,30,0,1,,,,,,,,,,,,,,,,,,,,,,,,,,,,,,,,,,,,,,,
,,,,,,,,2023-08-16_08h32.43.198,HF_wild_card,2022.2.4,Win32,59.99160118,607c25220ce5e062f6eff874,64d2fd46c836a06233681665,64dc7b93c0c09417f2c49369,,,,,,,sngl,resources/DY.BMP,resources/Empty.png,Door3,-0.325925926,-0.040740741,1,0,0,0.3444,optionLeft,70,12970,6,31,0,31,0,1,,,,,,,,,,,,,,,,,,,,,,,,,,,,,,,,,,,,,,,
,,,,,,,,2023-08-16_08h32.43.198,HF_wild_card,2022.2.4,Win32,59.99160118,607c25220ce5e062f6eff874,64d2fd46c836a06233681665,64dc7b93c0c09417f2c49369,,,,,,,ctch,resources/DP.BMP,resources/DY.BMP,Door3,0.489814815,0.001851852,1,0,0,0.4607,optionRight,70,13040,6,32,0,32,0,1,,,,,,,,,,,,,,,,,,,,,,,,,,,,,,,,,,,,,,,
,,,,,,,,2023-08-16_08h32.43.198,HF_wild_card,2022.2.4,Win32,59.99160118,607c25220ce5e062f6eff874,64d2fd46c836a06233681665,64dc7b93c0c09417f2c49369,,,,,,,decisionTrl,resources/DBN.BMP,resources/DR.BMP,Door1,0.462037037,0.009259259,1,0,0,0.4689,optionRight,30,13070,6,33,0,33,0,1,,,,,,,,,,,,,,,,,,,,,,,,,,,,,,,,,,,,,,,
,,,,,,,,2023-08-16_08h32.43.198,HF_wild_card,2022.2.4,Win32,59.99160118,607c25220ce5e062f6eff874,64d2fd46c836a06233681665,64dc7b93c0c09417f2c49369,,,,,,,decisionTrl,resources/DY.BMP,resources/DBN.BMP,Door3,-0.400925926,-0.003703704,1,0,0,0.5953,optionLeft,70,13140,6,34,0,34,0,1,,,,,,,,,,,,,,,,,,,,,,,,,,,,,,,,,,,,,,,
,,,,,,,,2023-08-16_08h32.43.198,HF_wild_card,2022.2.4,Win32,59.99160118,607c25220ce5e062f6eff874,64d2fd46c836a06233681665,64dc7b93c0c09417f2c49369,,,,,,,decisionTrl,resources/DBN.BMP,resources/DG.BMP,Door4,0.394444444,-0.046296296,1,0,0,0.4658,optionRight,80,13220,6,35,0,35,0,1,,,,,,,,,,,,,,,,,,,,,,,,,,,,,,,,,,,,,,,
,,,,,,,,2023-08-16_08h32.43.198,HF_wild_card,2022.2.4,Win32,59.99160118,607c25220ce5e062f6eff874,64d2fd46c836a06233681665,64dc7b93c0c09417f2c49369,,,,,,,decisionTrl,resources/DBN.BMP,resources/DY.BMP,Door3,0.456481481,-0.062962963,1,0,0,0.4858,optionRight,70,13290,6,36,0,36,0,1,,,,,,,,,,,,,,,,,,,,,,,,,,,,,,,,,,,,,,,
,,,,,,,,2023-08-16_08h32.43.198,HF_wild_card,2022.2.4,Win32,59.99160118,607c25220ce5e062f6eff874,64d2fd46c836a06233681665,64dc7b93c0c09417f2c49369,,,,,,,sngl,resources/Empty.png,resources/DY.BMP,Door3,0.491666667,-0.051851852,1,0,0,0.3995,optionRight,70,13360,6,37,0,37,0,1,,,,,,,,,,,,,,,,,,,,,,,,,,,,,,,,,,,,,,,
,,,,,,,,2023-08-16_08h32.43.198,HF_wild_card,2022.2.4,Win32,59.99160118,607c25220ce5e062f6eff874,64d2fd46c836a06233681665,64dc7b93c0c09417f2c49369,,,,,,,decisionTrl,resources/DY.BMP,resources/DG.BMP,Door3,-0.35462963,0.002777778,1,0,0,0.682,optionLeft,70,13430,6,38,0,38,0,1,,,,,,,,,,,,,,,,,,,,,,,,,,,,,,,,,,,,,,,
,,,,,,,,2023-08-16_08h32.43.198,HF_wild_card,2022.2.4,Win32,59.99160118,607c25220ce5e062f6eff874,64d2fd46c836a06233681665,64dc7b93c0c09417f2c49369,,,,,,,decisionTrl,resources/DR.BMP,resources/DP.BMP,Door2,0.461111111,-0.005555556,1,0,0,0.4689,optionRight,20,13450,6,39,0,39,0,1,,,,,,,,,,,,,,,,,,,,,,,,,,,,,,,,,,,,,,,
,,,,,,,,2023-08-16_08h32.43.198,HF_wild_card,2022.2.4,Win32,59.99160118,607c25220ce5e062f6eff874,64d2fd46c836a06233681665,64dc7b93c0c09417f2c49369,,,,,,,decisionTrl,resources/DG.BMP,resources/DY.BMP,Door4,-0.290740741,0.006481481,1,0,0,0.3989,optionLeft,80,13530,6,40,0,40,0,1,,,,,,,,,,,,,,,,,,,,,,,,,,,,,,,,,,,,,,,
,,,,,,,,2023-08-16_08h32.43.198,HF_wild_card,2022.2.4,Win32,59.99160118,607c25220ce5e062f6eff874,64d2fd46c836a06233681665,64dc7b93c0c09417f2c49369,,,,,,,decisionTrl,resources/DR.BMP,resources/DP.BMP,Door2,0.378703704,-0.030555556,1,0,0,0.6642,optionRight,40,13570,6,41,0,41,0,1,,,,,,,,,,,,,,,,,,,,,,,,,,,,,,,,,,,,,,,
,,,,,,,,2023-08-16_08h32.43.198,HF_wild_card,2022.2.4,Win32,59.99160118,607c25220ce5e062f6eff874,64d2fd46c836a06233681665,64dc7b93c0c09417f2c49369,,,,,,,decisionTrl,resources/DP.BMP,resources/DR.BMP,Door1,0.337962963,-0.018518519,1,0,0,0.4287,optionRight,30,13600,6,42,0,42,0,1,,,,,,,,,,,,,,,,,,,,,,,,,,,,,,,,,,,,,,,
,,,,,,,,2023-08-16_08h32.43.198,HF_wild_card,2022.2.4,Win32,59.99160118,607c25220ce5e062f6eff874,64d2fd46c836a06233681665,64dc7b93c0c09417f2c49369,,,,,,,sngl,resources/Empty.png,resources/DR.BMP,Door1,0.157407407,0.013888889,1,0,0,0.3613,optionRight,30,13630,6,43,0,43,0,1,,,,,,,,,,,,,,,,,,,,,,,,,,,,,,,,,,,,,,,
,,,,,,,,2023-08-16_08h32.43.198,HF_wild_card,2022.2.4,Win32,59.99160118,607c25220ce5e062f6eff874,64d2fd46c836a06233681665,64dc7b93c0c09417f2c49369,,,,,,,,,,,,,,,,,,,,,,,,,,5,0,5,0,1,,,,,,,,,,,,,,,,,,,,,,,,,,,,,,,,,,
,,,,,,,,2023-08-16_08h32.43.198,HF_wild_card,2022.2.4,Win32,59.99160118,607c25220ce5e062f6eff874,64d2fd46c836a06233681665,64dc7b93c0c09417f2c49369,,,,,,,ctch,resources/DR.BMP,resources/DG.BMP,Door4,0.308333333,-0.085185185,1,0,0,0.7595,optionRight,60,13690,7,0,0,0,0,1,,,,,,,,,,,,,,,,,,,,,,,,,,,,,,,,,,,,,,,
,,,,,,,,2023-08-16_08h32.43.198,HF_wild_card,2022.2.4,Win32,59.99160118,607c25220ce5e062f6eff874,64d2fd46c836a06233681665,64dc7b93c0c09417f2c49369,,,,,,,decisionTrl,resources/DP.BMP,resources/DR.BMP,Door2,-0.491666667,-0.067592593,1,0,0,0.6487,optionLeft,20,13710,7,1,0,1,0,1,,,,,,,,,,,,,,,,,,,,,,,,,,,,,,,,,,,,,,,
,,,,,,,,2023-08-16_08h32.43.198,HF_wild_card,2022.2.4,Win32,59.99160118,607c25220ce5e062f6eff874,64d2fd46c836a06233681665,64dc7b93c0c09417f2c49369,,,,,,,ctch,resources/DP.BMP,resources/DY.BMP,Door3,0.488888889,-0.047222222,1,0,0,1.5498,optionRight,70,13780,7,2,0,2,0,1,,,,,,,,,,,,,,,,,,,,,,,,,,,,,,,,,,,,,,,
,,,,,,,,2023-08-16_08h32.43.198,HF_wild_card,2022.2.4,Win32,59.99160118,607c25220ce5e062f6eff874,64d2fd46c836a06233681665,64dc7b93c0c09417f2c49369,,,,,,,decisionTrl,resources/DG.BMP,resources/DY.BMP,Door3,0.477777778,-0.047222222,1,0,0,1.0464,optionRight,70,13850,7,3,0,3,0,1,,,,,,,,,,,,,,,,,,,,,,,,,,,,,,,,,,,,,,,
,,,,,,,,2023-08-16_08h32.43.198,HF_wild_card,2022.2.4,Win32,59.99160118,607c25220ce5e062f6eff874,64d2fd46c836a06233681665,64dc7b93c0c09417f2c49369,,,,,,,decisionTrl,resources/DG.BMP,resources/DY.BMP,Door3,0.346296296,-0.044444444,1,0,0,0.9792,optionRight,70,13920,7,4,0,4,0,1,,,,,,,,,,,,,,,,,,,,,,,,,,,,,,,,,,,,,,,
,,,,,,,,2023-08-16_08h32.43.198,HF_wild_card,2022.2.4,Win32,59.99160118,607c25220ce5e062f6eff874,64d2fd46c836a06233681665,64dc7b93c0c09417f2c49369,,,,,,,ctch,resources/DR.BMP,resources/DG.BMP,Door4,0.42962963,0,1,0,0,1.2319,optionRight,80,14000,7,5,0,5,0,1,,,,,,,,,,,,,,,,,,,,,,,,,,,,,,,,,,,,,,,
,,,,,,,,2023-08-16_08h32.43.198,HF_wild_card,2022.2.4,Win32,59.99160118,607c25220ce5e062f6eff874,64d2fd46c836a06233681665,64dc7b93c0c09417f2c49369,,,,,,,decisionTrl,resources/DY.BMP,resources/DG.BMP,Door4,0.412037037,-0.000925926,1,0,0,1.4834,optionRight,80,14080,7,6,0,6,0,1,,,,,,,,,,,,,,,,,,,,,,,,,,,,,,,,,,,,,,,
,,,,,,,,2023-08-16_08h32.43.198,HF_wild_card,2022.2.4,Win32,59.99160118,607c25220ce5e062f6eff874,64d2fd46c836a06233681665,64dc7b93c0c09417f2c49369,,,,,,,ctch,resources/DP.BMP,resources/DY.BMP,Door2,-0.328703704,-0.006481481,1,0,0,0.9161,optionLeft,40,14120,7,7,0,7,0,1,,,,,,,,,,,,,,,,,,,,,,,,,,,,,,,,,,,,,,,
,,,,,,,,2023-08-16_08h32.43.198,HF_wild_card,2022.2.4,Win32,59.99160118,607c25220ce5e062f6eff874,64d2fd46c836a06233681665,64dc7b93c0c09417f2c49369,,,,,,,decisionTrl,resources/DY.BMP,resources/DG.BMP,Door4,0.294444444,0.00462963,1,0,0,0.7325,optionRight,60,14180,7,8,0,8,0,1,,,,,,,,,,,,,,,,,,,,,,,,,,,,,,,,,,,,,,,
,,,,,,,,2023-08-16_08h32.43.198,HF_wild_card,2022.2.4,Win32,59.99160118,607c25220ce5e062f6eff874,64d2fd46c836a06233681665,64dc7b93c0c09417f2c49369,,,,,,,ctch,resources/DY.BMP,resources/DP.BMP,Door2,0.444444444,-0.026851852,1,0,0,0.8619,optionRight,40,14220,7,9,0,9,0,1,,,,,,,,,,,,,,,,,,,,,,,,,,,,,,,,,,,,,,,
,,,,,,,,2023-08-16_08h32.43.198,HF_wild_card,2022.2.4,Win32,59.99160118,607c25220ce5e062f6eff874,64d2fd46c836a06233681665,64dc7b93c0c09417f2c49369,,,,,,,decisionTrl,resources/DR.BMP,resources/DP.BMP,Door2,0.32962963,-0.078703704,1,0,0,0.8667,optionRight,40,14260,7,10,0,10,0,1,,,,,,,,,,,,,,,,,,,,,,,,,,,,,,,,,,,,,,,
,,,,,,,,2023-08-16_08h32.43.198,HF_wild_card,2022.2.4,Win32,59.99160118,607c25220ce5e062f6eff874,64d2fd46c836a06233681665,64dc7b93c0c09417f2c49369,,,,,,,ctch,resources/DG.BMP,resources/DR.BMP,Door1,0.407407407,-0.021296296,1,0,0,0.5673,optionRight,30,14290,7,11,0,11,0,1,,,,,,,,,,,,,,,,,,,,,,,,,,,,,,,,,,,,,,,
,,,,,,,,2023-08-16_08h32.43.198,HF_wild_card,2022.2.4,Win32,59.99160118,607c25220ce5e062f6eff874,64d2fd46c836a06233681665,64dc7b93c0c09417f2c49369,,,,,,,decisionTrl,resources/DY.BMP,resources/DG.BMP,Door4,0.284259259,-0.003703704,1,0,0,0.7668,optionRight,80,14370,7,12,0,12,0,1,,,,,,,,,,,,,,,,,,,,,,,,,,,,,,,,,,,,,,,
,,,,,,,,2023-08-16_08h32.43.198,HF_wild_card,2022.2.4,Win32,59.99160118,607c25220ce5e062f6eff874,64d2fd46c836a06233681665,64dc7b93c0c09417f2c49369,,,,,,,decisionTrl,resources/DY.BMP,resources/DG.BMP,Door4,0.398148148,0.025,1,0,0,0.6785,optionRight,60,14430,7,13,0,13,0,1,,,,,,,,,,,,,,,,,,,,,,,,,,,,,,,,,,,,,,,
,,,,,,,,2023-08-16_08h32.43.198,HF_wild_card,2022.2.4,Win32,59.99160118,607c25220ce5e062f6eff874,64d2fd46c836a06233681665,64dc7b93c0c09417f2c49369,,,,,,,decisionTrl,resources/DP.BMP,resources/DR.BMP,Door2,-0.393518519,-0.039814815,1,0,0,0.545,optionLeft,20,14450,7,14,0,14,0,1,,,,,,,,,,,,,,,,,,,,,,,,,,,,,,,,,,,,,,,
,,,,,,,,2023-08-16_08h32.43.198,HF_wild_card,2022.2.4,Win32,59.99160118,607c25220ce5e062f6eff874,64d2fd46c836a06233681665,64dc7b93c0c09417f2c49369,,,,,,,ctch,resources/DY.BMP,resources/DP.BMP,Door2,0.396296296,-0.02037037,1,0,0,0.8273,optionRight,20,14470,7,15,0,15,0,1,,,,,,,,,,,,,,,,,,,,,,,,,,,,,,,,,,,,,,,
,,,,,,,,2023-08-16_08h32.43.198,HF_wild_card,2022.2.4,Win32,59.99160118,607c25220ce5e062f6eff874,64d2fd46c836a06233681665,64dc7b93c0c09417f2c49369,,,,,,,ctch,resources/DG.BMP,resources/DR.BMP,Door4,-0.221296296,-0.007407407,1,0,0,0.6158,optionLeft,80,14550,7,16,0,16,0,1,,,,,,,,,,,,,,,,,,,,,,,,,,,,,,,,,,,,,,,
,,,,,,,,2023-08-16_08h32.43.198,HF_wild_card,2022.2.4,Win32,59.99160118,607c25220ce5e062f6eff874,64d2fd46c836a06233681665,64dc7b93c0c09417f2c49369,,,,,,,decisionTrl,resources/DP.BMP,resources/DR.BMP,Door2,-0.272222222,-0.048148148,1,0,0,0.5827,optionLeft,40,14590,7,17,0,17,0,1,,,,,,,,,,,,,,,,,,,,,,,,,,,,,,,,,,,,,,,
,,,,,,,,2023-08-16_08h32.43.198,HF_wild_card,2022.2.4,Win32,59.99160118,607c25220ce5e062f6eff874,64d2fd46c836a06233681665,64dc7b93c0c09417f2c49369,,,,,,,decisionTrl,resources/DP.BMP,resources/DR.BMP,Door2,-0.366666667,-0.034259259,1,0,0,0.6996,optionLeft,20,14610,7,18,0,18,0,1,,,,,,,,,,,,,,,,,,,,,,,,,,,,,,,,,,,,,,,
,,,,,,,,2023-08-16_08h32.43.198,HF_wild_card,2022.2.4,Win32,59.99160118,607c25220ce5e062f6eff874,64d2fd46c836a06233681665,64dc7b93c0c09417f2c49369,,,,,,,decisionTrl,resources/DR.BMP,resources/DP.BMP,Door2,0.334259259,-0.006481481,1,0,0,0.4122,optionRight,40,14650,7,19,0,19,0,1,,,,,,,,,,,,,,,,,,,,,,,,,,,,,,,,,,,,,,,
,,,,,,,,2023-08-16_08h32.43.198,HF_wild_card,2022.2.4,Win32,59.99160118,607c25220ce5e062f6eff874,64d2fd46c836a06233681665,64dc7b93c0c09417f2c49369,,,,,,,ctch,resources/DG.BMP,resources/DR.BMP,Door4,-0.397222222,-0.009259259,1,0,0,0.7108,optionLeft,80,14730,7,20,0,20,0,1,,,,,,,,,,,,,,,,,,,,,,,,,,,,,,,,,,,,,,,
,,,,,,,,2023-08-16_08h32.43.198,HF_wild_card,2022.2.4,Win32,59.99160118,607c25220ce5e062f6eff874,64d2fd46c836a06233681665,64dc7b93c0c09417f2c49369,,,,,,,decisionTrl,resources/DG.BMP,resources/DY.BMP,Door4,-0.265740741,-0.009259259,1,0,0,0.6446,optionLeft,80,14810,7,21,0,21,0,1,,,,,,,,,,,,,,,,,,,,,,,,,,,,,,,,,,,,,,,
,,,,,,,,2023-08-16_08h32.43.198,HF_wild_card,2022.2.4,Win32,59.99160118,607c25220ce5e062f6eff874,64d2fd46c836a06233681665,64dc7b93c0c09417f2c49369,,,,,,,decisionTrl,resources/DP.BMP,resources/DR.BMP,Door2,-0.462962963,-0.015740741,1,0,0,0.4988,optionLeft,40,14850,7,22,0,22,0,1,,,,,,,,,,,,,,,,,,,,,,,,,,,,,,,,,,,,,,,
,,,,,,,,2023-08-16_08h32.43.198,HF_wild_card,2022.2.4,Win32,59.99160118,607c25220ce5e062f6eff874,64d2fd46c836a06233681665,64dc7b93c0c09417f2c49369,,,,,,,decisionTrl,resources/DR.BMP,resources/DP.BMP,Door2,0.312962963,-0.002777778,1,0,0,0.4826,optionRight,40,14890,7,23,0,23,0,1,,,,,,,,,,,,,,,,,,,,,,,,,,,,,,,,,,,,,,,
,,,,,,,,2023-08-16_08h32.43.198,HF_wild_card,2022.2.4,Win32,59.99160118,607c25220ce5e062f6eff874,64d2fd46c836a06233681665,64dc7b93c0c09417f2c49369,,,,,,,decisionTrl,resources/DR.BMP,resources/DP.BMP,Door2,0.386111111,-0.036111111,1,0,0,0.4996,optionRight,40,14930,7,24,0,24,0,1,,,,,,,,,,,,,,,,,,,,,,,,,,,,,,,,,,,,,,,
,,,,,,,,2023-08-16_08h32.43.198,HF_wild_card,2022.2.4,Win32,59.99160118,607c25220ce5e062f6eff874,64d2fd46c836a06233681665,64dc7b93c0c09417f2c49369,,,,,,,decisionTrl,resources/DG.BMP,resources/DY.BMP,Door4,-0.421296296,-0.000925926,1,0,0,0.516,optionLeft,60,14990,7,25,0,25,0,1,,,,,,,,,,,,,,,,,,,,,,,,,,,,,,,,,,,,,,,
,,,,,,,,2023-08-16_08h32.43.198,HF_wild_card,2022.2.4,Win32,59.99160118,607c25220ce5e062f6eff874,64d2fd46c836a06233681665,64dc7b93c0c09417f2c49369,,,,,,,decisionTrl,resources/DY.BMP,resources/DG.BMP,Door4,0.312962963,-0.05,1,0,0,0.4661,optionRight,80,15070,7,26,0,26,0,1,,,,,,,,,,,,,,,,,,,,,,,,,,,,,,,,,,,,,,,
,,,,,,,,2023-08-16_08h32.43.198,HF_wild_card,2022.2.4,Win32,59.99160118,607c25220ce5e062f6eff874,64d2fd46c836a06233681665,64dc7b93c0c09417f2c49369,,,,,,,ctch,resources/DP.BMP,resources/DY.BMP,Door2,-0.371296296,-0.038888889,1,0,0,1.0291,optionLeft,40,15110,7,27,0,27,0,1,,,,,,,,,,,,,,,,,,,,,,,,,,,,,,,,,,,,,,,
,,,,,,,,2023-08-16_08h32.43.198,HF_wild_card,2022.2.4,Win32,59.99160118,607c25220ce5e062f6eff874,64d2fd46c836a06233681665,64dc7b93c0c09417f2c49369,,,,,,,decisionTrl,resources/DP.BMP,resources/DR.BMP,Door2,-0.376851852,-0.005555556,1,0,0,0.4822,optionLeft,40,15150,7,28,0,28,0,1,,,,,,,,,,,,,,,,,,,,,,,,,,,,,,,,,,,,,,,
,,,,,,,,2023-08-16_08h32.43.198,HF_wild_card,2022.2.4,Win32,59.99160118,607c25220ce5e062f6eff874,64d2fd46c836a06233681665,64dc7b93c0c09417f2c49369,,,,,,,decisionTrl,resources/DR.BMP,resources/DP.BMP,Door2,0.363888889,-0.033333333,1,0,0,0.6161,optionRight,40,15190,7,29,0,29,0,1,,,,,,,,,,,,,,,,,,,,,,,,,,,,,,,,,,,,,,,
,,,,,,,,2023-08-16_08h32.43.198,HF_wild_card,2022.2.4,Win32,59.99160118,607c25220ce5e062f6eff874,64d2fd46c836a06233681665,64dc7b93c0c09417f2c49369,,,,,,,ctch,resources/DR.BMP,resources/DG.BMP,Door4,0.219444444,-0.025925926,1,0,0,0.6324,optionRight,80,15270,7,30,0,30,0,1,,,,,,,,,,,,,,,,,,,,,,,,,,,,,,,,,,,,,,,
,,,,,,,,2023-08-16_08h32.43.198,HF_wild_card,2022.2.4,Win32,59.99160118,607c25220ce5e062f6eff874,64d2fd46c836a06233681665,64dc7b93c0c09417f2c49369,,,,,,,decisionTrl,resources/DY.BMP,resources/DG.BMP,Door4,0.249074074,-0.044444444,1,0,0,0.5329,optionRight,60,15330,7,31,0,31,0,1,,,,,,,,,,,,,,,,,,,,,,,,,,,,,,,,,,,,,,,
,,,,,,,,2023-08-16_08h32.43.198,HF_wild_card,2022.2.4,Win32,59.99160118,607c25220ce5e062f6eff874,64d2fd46c836a06233681665,64dc7b93c0c09417f2c49369,,,,,,,decisionTrl,resources/DR.BMP,resources/DP.BMP,Door2,0.302777778,-0.048148148,1,0,0,0.5994,optionRight,20,15350,7,32,0,32,0,1,,,,,,,,,,,,,,,,,,,,,,,,,,,,,,,,,,,,,,,
,,,,,,,,2023-08-16_08h32.43.198,HF_wild_card,2022.2.4,Win32,59.99160118,607c25220ce5e062f6eff874,64d2fd46c836a06233681665,64dc7b93c0c09417f2c49369,,,,,,,decisionTrl,resources/DG.BMP,resources/DY.BMP,Door4,-0.348148148,-0.019444444,1,0,0,0.8329,optionLeft,80,15430,7,33,0,33,0,1,,,,,,,,,,,,,,,,,,,,,,,,,,,,,,,,,,,,,,,
,,,,,,,,2023-08-16_08h32.43.198,HF_wild_card,2022.2.4,Win32,59.99160118,607c25220ce5e062f6eff874,64d2fd46c836a06233681665,64dc7b93c0c09417f2c49369,,,,,,,ctch,resources/DY.BMP,resources/DP.BMP,Door2,0.289814815,-0.015740741,1,0,0,0.6105,optionRight,40,15470,7,34,0,34,0,1,,,,,,,,,,,,,,,,,,,,,,,,,,,,,,,,,,,,,,,
,,,,,,,,2023-08-16_08h32.43.198,HF_wild_card,2022.2.4,Win32,59.99160118,607c25220ce5e062f6eff874,64d2fd46c836a06233681665,64dc7b93c0c09417f2c49369,,,,,,,decisionTrl,resources/DG.BMP,resources/DY.BMP,Door4,-0.303703704,-0.005555556,1,0,0,0.6662,optionLeft,80,15550,7,35,0,35,0,1,,,,,,,,,,,,,,,,,,,,,,,,,,,,,,,,,,,,,,,
,,,,,,,,2023-08-16_08h32.43.198,HF_wild_card,2022.2.4,Win32,59.99160118,607c25220ce5e062f6eff874,64d2fd46c836a06233681665,64dc7b93c0c09417f2c49369,,,,,,,,,,,,,,,,,,,,,,,,,,6,0,6,0,1,,,,,,,,,,,,,,,,,,,,,,,,,,,,,,,,,,
,,,,,,,,2023-08-16_08h32.43.198,HF_wild_card,2022.2.4,Win32,59.99160118,607c25220ce5e062f6eff874,64d2fd46c836a06233681665,64dc7b93c0c09417f2c49369,,,,,,,,,,,,,,,,,,,,,,,,,,,,,,,3,,,,,,,,,,,,,,,,,,,,,,,,,,,,,,,,,
,,,,,,,,2023-08-16_08h32.43.198,HF_wild_card,2022.2.4,Win32,59.99160118,607c25220ce5e062f6eff874,64d2fd46c836a06233681665,64dc7b93c0c09417f2c49369,,,,,,,,,,,,,,,,,,,,,,,,,,,,,,,,,,,,,,,,,,,,,,,,,,,,,,,,,,,,,,,,
,,,,,,,,2023-08-16_08h32.43.198,HF_wild_card,2022.2.4,Win32,59.99160118,607c25220ce5e062f6eff874,64d2fd46c836a06233681665,64dc7b93c0c09417f2c49369,,,,,,,,,,,,,,,,,,,,,,,,,,,,,,,,40,Door2,resources/DP.BMP,0,0,0,0,1,,,,,,,,,,,,,,,,,,,,,,,,,
,,,,,,,,2023-08-16_08h32.43.198,HF_wild_card,2022.2.4,Win32,59.99160118,607c25220ce5e062f6eff874,64d2fd46c836a06233681665,64dc7b93c0c09417f2c49369,,,,,,,,,,,,,,,,,,,,,,,,,,,,,,,,70,Door3,resources/DY.BMP,1,0,1,0,1,,,,,,,,,,,,,,,,,,,,,,,,,
,,,,,,,,2023-08-16_08h32.43.198,HF_wild_card,2022.2.4,Win32,59.99160118,607c25220ce5e062f6eff874,64d2fd46c836a06233681665,64dc7b93c0c09417f2c49369,,,,,,,,,,,,,,,,,,,,,,,,,,,,,,,,5,WC_extreme,resources/DBN.BMP,2,0,2,0,1,,,,,,,,,,,,,,,,,,,,,,,,,
,,,,,,,,2023-08-16_08h32.43.198,HF_wild_card,2022.2.4,Win32,59.99160118,607c25220ce5e062f6eff874,64d2fd46c836a06233681665,64dc7b93c0c09417f2c49369,,,,,,,,,,,,,,,,,,,,,,,,,,,,,,,,40,WC_nonExtreme,resources/DB.BMP,3,0,3,0,1,,,,,,,,,,,,,,,,,,,,,,,,,
,,,,,,,,2023-08-16_08h32.43.198,HF_wild_card,2022.2.4,Win32,59.99160118,607c25220ce5e062f6eff874,64d2fd46c836a06233681665,64dc7b93c0c09417f2c49369,,,,,,,,,,,,,,,,,,,,,,,,,,,,,,,,20,Door1,resources/DR.BMP,4,0,4,0,1,,,,,,,,,,,,,,,,,,,,,,,,,
,,,,,,,,2023-08-16_08h32.43.198,HF_wild_card,2022.2.4,Win32,59.99160118,607c25220ce5e062f6eff874,64d2fd46c836a06233681665,64dc7b93c0c09417f2c49369,,,,,,,,,,,,,,,,,,,,,,,,,,,,,,,,40,Door4,resources/DG.BMP,5,0,5,0,1,,,,,,,,,,,,,,,,,,,,,,,,,
,,,,,,,,2023-08-16_08h32.43.198,HF_wild_card,2022.2.4,Win32,59.99160118,607c25220ce5e062f6eff874,64d2fd46c836a06233681665,64dc7b93c0c09417f2c49369,,,,,,,,,,,,,,,,,,,,,,,,,,,,,,,,,,,,,,,,,,,,,,,,,,,,,,,,,,,,,,,,
