Condition,Low fixed image (Door1),Low risky image (Door2),High fixed image (Door3),High risky image (Door4),Extreme Wild Card,NonExtreme Wild Card,,date,expName,psychopyVersion,OS,frameRate,PROLIFIC_PID,STUDY_ID,SESSION_ID,mouse_2.x,mouse_2.y,mouse_2.leftButton,mouse_2.midButton,mouse_2.rightButton,mouse_2.clicked_name,Trial Type,Left Option Image,Right Option Image,Chosen Door,mouse.x,mouse.y,mouse.leftButton,mouse.midButton,mouse.rightButton,mouse.time,mouse.clicked_name,Feedback,Cumulative Reward,Block,trial.thisRepN,trial.thisTrialN,trial.thisN,trial.thisIndex,trial.ran,blocks.thisRepN,blocks.thisTrialN,blocks.thisN,blocks.thisIndex,blocks.ran,Money conversion,First Outcome Reported,Shown Door (First Outcome),Displayed Image (First Outcome),outcomes.thisRepN,outcomes.thisTrialN,outcomes.thisN,outcomes.thisIndex,outcomes.ran,judgments.thisRepN,judgments.thisTrialN,judgments.thisN,judgments.thisIndex,judgments.ran,freqMouse.x,freqMouse.y,freqMouse.leftButton,freqMouse.midButton,freqMouse.rightButton,freqMouse.clicked_name,FQJ for first outcome,FQJ for second outcome,Shown Door,Displayed Image,trials.thisRepN,trials.thisTrialN,trials.thisN,trials.thisIndex,trials.ran,judgBlock.thisRepN,judgBlock.thisTrialN,judgBlock.thisN,judgBlock.thisIndex,judgBlock.ran
0,resources/DR.BMP,resources/DY.BMP,resources/DB.BMP,resources/DBN.BMP,resources/DG.BMP,resources/DP.BMP,,2023-08-16_08h33.57.593,HF_wild_card,2022.2.4,Win32,60.06006006,5e5ed3c0287d5020d299f783,64d2fd46c836a06233681665,64dc7bdbac1e705236e6c160,,,,,,,,,,,,,,,,,,,,,,,,,,,,,,,,,,,,,,,,,,,,,,,,,,,,,,,,,,,,,,,,
,,,,,,,,2023-08-16_08h33.57.593,HF_wild_card,2022.2.4,Win32,60.06006006,5e5ed3c0287d5020d299f783,64d2fd46c836a06233681665,64dc7bdbac1e705236e6c160,0.003333333,-0.427777778,1,0,0,agree,,,,,,,,,,,,,,,,,,,,,,,,,,,,,,,,,,,,,,,,,,,,,,,,,,,,,,,,,,
,,,,,,,,2023-08-16_08h33.57.593,HF_wild_card,2022.2.4,Win32,60.06006006,5e5ed3c0287d5020d299f783,64d2fd46c836a06233681665,64dc7bdbac1e705236e6c160,,,,,,,,,,,,,,,,,,,,,,,,,,,,,,,,,,,,,,,,,,,,,,,,,,,,,,,,,,,,,,,,
,,,,,,,,2023-08-16_08h33.57.593,HF_wild_card,2022.2.4,Win32,60.06006006,5e5ed3c0287d5020d299f783,64d2fd46c836a06233681665,64dc7bdbac1e705236e6c160,,,,,,,decisionTrl,resources/DB.BMP,resources/DBN.BMP,Door3,-0.168888889,-0.161111111,1,0,0,2.3214,optionLeft,70,70,1,0,0,0,0,1,,,,,,,,,,,,,,,,,,,,,,,,,,,,,,,,,,,,,,,
,,,,,,,,2023-08-16_08h33.57.593,HF_wild_card,2022.2.4,Win32,60.06006006,5e5ed3c0287d5020d299f783,64d2fd46c836a06233681665,64dc7bdbac1e705236e6c160,,,,,,,decisionTrl,resources/DB.BMP,resources/DBN.BMP,Door4,0.242222222,0.022222222,1,0,0,3.0297,optionRight,80,150,1,1,0,1,0,1,,,,,,,,,,,,,,,,,,,,,,,,,,,,,,,,,,,,,,,
,,,,,,,,2023-08-16_08h33.57.593,HF_wild_card,2022.2.4,Win32,60.06006006,5e5ed3c0287d5020d299f783,64d2fd46c836a06233681665,64dc7bdbac1e705236e6c160,,,,,,,ctch,resources/DR.BMP,resources/DBN.BMP,Door1,-0.256666667,-0.035555556,1,0,0,1.2969,optionLeft,30,180,1,2,0,2,0,1,,,,,,,,,,,,,,,,,,,,,,,,,,,,,,,,,,,,,,,
,,,,,,,,2023-08-16_08h33.57.593,HF_wild_card,2022.2.4,Win32,60.06006006,5e5ed3c0287d5020d299f783,64d2fd46c836a06233681665,64dc7bdbac1e705236e6c160,,,,,,,decisionTrl,resources/DBN.BMP,resources/DB.BMP,Door4,-0.187777778,0.022222222,1,0,0,1.9474,optionLeft,60,240,1,3,0,3,0,1,,,,,,,,,,,,,,,,,,,,,,,,,,,,,,,,,,,,,,,
,,,,,,,,2023-08-16_08h33.57.593,HF_wild_card,2022.2.4,Win32,60.06006006,5e5ed3c0287d5020d299f783,64d2fd46c836a06233681665,64dc7bdbac1e705236e6c160,,,,,,,ctch,resources/DY.BMP,resources/DB.BMP,Door2,-0.188888889,-0.008888889,1,0,0,1.0809,optionLeft,20,260,1,4,0,4,0,1,,,,,,,,,,,,,,,,,,,,,,,,,,,,,,,,,,,,,,,
,,,,,,,,2023-08-16_08h33.57.593,HF_wild_card,2022.2.4,Win32,60.06006006,5e5ed3c0287d5020d299f783,64d2fd46c836a06233681665,64dc7bdbac1e705236e6c160,,,,,,,decisionTrl,resources/DB.BMP,resources/DBN.BMP,Door4,0.193333333,0.01,1,0,0,1.2641,optionRight,80,340,1,5,0,5,0,1,,,,,,,,,,,,,,,,,,,,,,,,,,,,,,,,,,,,,,,
,,,,,,,,2023-08-16_08h33.57.593,HF_wild_card,2022.2.4,Win32,60.06006006,5e5ed3c0287d5020d299f783,64d2fd46c836a06233681665,64dc7bdbac1e705236e6c160,,,,,,,sngl,resources/Empty.png,resources/DY.BMP,Door2,0.421111111,-0.008888889,1,0,0,0.9578,optionRight,20,360,1,6,0,6,0,1,,,,,,,,,,,,,,,,,,,,,,,,,,,,,,,,,,,,,,,
,,,,,,,,2023-08-16_08h33.57.593,HF_wild_card,2022.2.4,Win32,60.06006006,5e5ed3c0287d5020d299f783,64d2fd46c836a06233681665,64dc7bdbac1e705236e6c160,,,,,,,decisionTrl,resources/DG.BMP,resources/DY.BMP,WildCard_Ex,-0.392222222,0.058888889,1,0,0,1.2633,optionLeft,95,455,1,7,0,7,0,1,,,,,,,,,,,,,,,,,,,,,,,,,,,,,,,,,,,,,,,
,,,,,,,,2023-08-16_08h33.57.593,HF_wild_card,2022.2.4,Win32,60.06006006,5e5ed3c0287d5020d299f783,64d2fd46c836a06233681665,64dc7bdbac1e705236e6c160,,,,,,,decisionTrl,resources/DY.BMP,resources/DR.BMP,Door1,0.291111111,0.045555556,1,0,0,1.1472,optionRight,30,485,1,8,0,8,0,1,,,,,,,,,,,,,,,,,,,,,,,,,,,,,,,,,,,,,,,
,,,,,,,,2023-08-16_08h33.57.593,HF_wild_card,2022.2.4,Win32,60.06006006,5e5ed3c0287d5020d299f783,64d2fd46c836a06233681665,64dc7bdbac1e705236e6c160,,,,,,,sngl,resources/Empty.png,resources/DG.BMP,WildCard_Ex,0.3,-0.012222222,1,0,0,0.9247,optionRight,95,580,1,9,0,9,0,1,,,,,,,,,,,,,,,,,,,,,,,,,,,,,,,,,,,,,,,
,,,,,,,,2023-08-16_08h33.57.593,HF_wild_card,2022.2.4,Win32,60.06006006,5e5ed3c0287d5020d299f783,64d2fd46c836a06233681665,64dc7bdbac1e705236e6c160,,,,,,,sngl,resources/DB.BMP,resources/Empty.png,Door3,-0.208888889,-0.002222222,1,0,0,1.3469,optionLeft,70,650,1,10,0,10,0,1,,,,,,,,,,,,,,,,,,,,,,,,,,,,,,,,,,,,,,,
,,,,,,,,2023-08-16_08h33.57.593,HF_wild_card,2022.2.4,Win32,60.06006006,5e5ed3c0287d5020d299f783,64d2fd46c836a06233681665,64dc7bdbac1e705236e6c160,,,,,,,decisionTrl,resources/DR.BMP,resources/DY.BMP,Door2,0.364444444,-0.046666667,1,0,0,1.537,optionRight,20,670,1,11,0,11,0,1,,,,,,,,,,,,,,,,,,,,,,,,,,,,,,,,,,,,,,,
,,,,,,,,2023-08-16_08h33.57.593,HF_wild_card,2022.2.4,Win32,60.06006006,5e5ed3c0287d5020d299f783,64d2fd46c836a06233681665,64dc7bdbac1e705236e6c160,,,,,,,sngl,resources/DBN.BMP,resources/Empty.png,Door4,-0.233333333,0.014444444,1,0,0,0.8468,optionLeft,80,750,1,12,0,12,0,1,,,,,,,,,,,,,,,,,,,,,,,,,,,,,,,,,,,,,,,
,,,,,,,,2023-08-16_08h33.57.593,HF_wild_card,2022.2.4,Win32,60.06006006,5e5ed3c0287d5020d299f783,64d2fd46c836a06233681665,64dc7bdbac1e705236e6c160,,,,,,,decisionTrl,resources/DG.BMP,resources/DBN.BMP,WildCard_Ex,-0.182222222,0.014444444,1,0,0,1.0133,optionLeft,95,845,1,13,0,13,0,1,,,,,,,,,,,,,,,,,,,,,,,,,,,,,,,,,,,,,,,
,,,,,,,,2023-08-16_08h33.57.593,HF_wild_card,2022.2.4,Win32,60.06006006,5e5ed3c0287d5020d299f783,64d2fd46c836a06233681665,64dc7bdbac1e705236e6c160,,,,,,,decisionTrl,resources/DR.BMP,resources/DY.BMP,Door2,0.254444444,0.005555556,1,0,0,1.0298,optionRight,20,865,1,14,0,14,0,1,,,,,,,,,,,,,,,,,,,,,,,,,,,,,,,,,,,,,,,
,,,,,,,,2023-08-16_08h33.57.593,HF_wild_card,2022.2.4,Win32,60.06006006,5e5ed3c0287d5020d299f783,64d2fd46c836a06233681665,64dc7bdbac1e705236e6c160,,,,,,,sngl,resources/Empty.png,resources/DG.BMP,WildCard_Ex,0.293333333,0.008888889,1,0,0,0.7803,optionRight,5,870,1,15,0,15,0,1,,,,,,,,,,,,,,,,,,,,,,,,,,,,,,,,,,,,,,,
,,,,,,,,2023-08-16_08h33.57.593,HF_wild_card,2022.2.4,Win32,60.06006006,5e5ed3c0287d5020d299f783,64d2fd46c836a06233681665,64dc7bdbac1e705236e6c160,,,,,,,ctch,resources/DBN.BMP,resources/DR.BMP,Door4,-0.474444444,0.057777778,1,0,0,1.3968,optionLeft,80,950,1,16,0,16,0,1,,,,,,,,,,,,,,,,,,,,,,,,,,,,,,,,,,,,,,,
,,,,,,,,2023-08-16_08h33.57.593,HF_wild_card,2022.2.4,Win32,60.06006006,5e5ed3c0287d5020d299f783,64d2fd46c836a06233681665,64dc7bdbac1e705236e6c160,,,,,,,decisionTrl,resources/DR.BMP,resources/DY.BMP,Door1,-0.204444444,0.015555556,1,0,0,0.9965,optionLeft,30,980,1,17,0,17,0,1,,,,,,,,,,,,,,,,,,,,,,,,,,,,,,,,,,,,,,,
,,,,,,,,2023-08-16_08h33.57.593,HF_wild_card,2022.2.4,Win32,60.06006006,5e5ed3c0287d5020d299f783,64d2fd46c836a06233681665,64dc7bdbac1e705236e6c160,,,,,,,decisionTrl,resources/DG.BMP,resources/DB.BMP,WildCard_Ex,-0.288888889,0.032222222,1,0,0,1.147,optionLeft,5,985,1,18,0,18,0,1,,,,,,,,,,,,,,,,,,,,,,,,,,,,,,,,,,,,,,,
,,,,,,,,2023-08-16_08h33.57.593,HF_wild_card,2022.2.4,Win32,60.06006006,5e5ed3c0287d5020d299f783,64d2fd46c836a06233681665,64dc7bdbac1e705236e6c160,,,,,,,sngl,resources/Empty.png,resources/DR.BMP,Door1,0.364444444,0.023333333,1,0,0,0.6803,optionRight,30,1015,1,19,0,19,0,1,,,,,,,,,,,,,,,,,,,,,,,,,,,,,,,,,,,,,,,
,,,,,,,,2023-08-16_08h33.57.593,HF_wild_card,2022.2.4,Win32,60.06006006,5e5ed3c0287d5020d299f783,64d2fd46c836a06233681665,64dc7bdbac1e705236e6c160,,,,,,,decisionTrl,resources/DB.BMP,resources/DG.BMP,WildCard_Ex,0.374444444,0.018888889,1,0,0,1.6635,optionRight,95,1110,1,20,0,20,0,1,,,,,,,,,,,,,,,,,,,,,,,,,,,,,,,,,,,,,,,
,,,,,,,,2023-08-16_08h33.57.593,HF_wild_card,2022.2.4,Win32,60.06006006,5e5ed3c0287d5020d299f783,64d2fd46c836a06233681665,64dc7bdbac1e705236e6c160,,,,,,,decisionTrl,resources/DB.BMP,resources/DBN.BMP,Door3,-0.392222222,0.088888889,1,0,0,1.8298,optionLeft,70,1180,1,21,0,21,0,1,,,,,,,,,,,,,,,,,,,,,,,,,,,,,,,,,,,,,,,
,,,,,,,,2023-08-16_08h33.57.593,HF_wild_card,2022.2.4,Win32,60.06006006,5e5ed3c0287d5020d299f783,64d2fd46c836a06233681665,64dc7bdbac1e705236e6c160,,,,,,,sngl,resources/Empty.png,resources/DBN.BMP,Door4,0.291111111,0.055555556,1,0,0,0.7968,optionRight,60,1240,1,22,0,22,0,1,,,,,,,,,,,,,,,,,,,,,,,,,,,,,,,,,,,,,,,
,,,,,,,,2023-08-16_08h33.57.593,HF_wild_card,2022.2.4,Win32,60.06006006,5e5ed3c0287d5020d299f783,64d2fd46c836a06233681665,64dc7bdbac1e705236e6c160,,,,,,,ctch,resources/DB.BMP,resources/DY.BMP,Door3,-0.257777778,0.041111111,1,0,0,1.0818,optionLeft,70,1310,1,23,0,23,0,1,,,,,,,,,,,,,,,,,,,,,,,,,,,,,,,,,,,,,,,
,,,,,,,,2023-08-16_08h33.57.593,HF_wild_card,2022.2.4,Win32,60.06006006,5e5ed3c0287d5020d299f783,64d2fd46c836a06233681665,64dc7bdbac1e705236e6c160,,,,,,,sngl,resources/DR.BMP,resources/Empty.png,Door1,-0.238888889,-0.007777778,1,0,0,0.7969,optionLeft,30,1340,1,24,0,24,0,1,,,,,,,,,,,,,,,,,,,,,,,,,,,,,,,,,,,,,,,
,,,,,,,,2023-08-16_08h33.57.593,HF_wild_card,2022.2.4,Win32,60.06006006,5e5ed3c0287d5020d299f783,64d2fd46c836a06233681665,64dc7bdbac1e705236e6c160,,,,,,,decisionTrl,resources/DR.BMP,resources/DY.BMP,Door1,-0.403333333,0.025555556,1,0,0,1.1462,optionLeft,30,1370,1,25,0,25,0,1,,,,,,,,,,,,,,,,,,,,,,,,,,,,,,,,,,,,,,,
,,,,,,,,2023-08-16_08h33.57.593,HF_wild_card,2022.2.4,Win32,60.06006006,5e5ed3c0287d5020d299f783,64d2fd46c836a06233681665,64dc7bdbac1e705236e6c160,,,,,,,decisionTrl,resources/DR.BMP,resources/DG.BMP,WildCard_Ex,0.258888889,-0.005555556,1,0,0,0.7643,optionRight,5,1375,1,26,0,26,0,1,,,,,,,,,,,,,,,,,,,,,,,,,,,,,,,,,,,,,,,
,,,,,,,,2023-08-16_08h33.57.593,HF_wild_card,2022.2.4,Win32,60.06006006,5e5ed3c0287d5020d299f783,64d2fd46c836a06233681665,64dc7bdbac1e705236e6c160,,,,,,,ctch,resources/DBN.BMP,resources/DR.BMP,Door4,-0.212222222,0.004444444,1,0,0,0.8311,optionLeft,80,1455,1,27,0,27,0,1,,,,,,,,,,,,,,,,,,,,,,,,,,,,,,,,,,,,,,,
,,,,,,,,2023-08-16_08h33.57.593,HF_wild_card,2022.2.4,Win32,60.06006006,5e5ed3c0287d5020d299f783,64d2fd46c836a06233681665,64dc7bdbac1e705236e6c160,,,,,,,decisionTrl,resources/DY.BMP,resources/DG.BMP,Door2,-0.274444444,0.044444444,1,0,0,0.9479,optionLeft,40,1495,1,28,0,28,0,1,,,,,,,,,,,,,,,,,,,,,,,,,,,,,,,,,,,,,,,
,,,,,,,,2023-08-16_08h33.57.593,HF_wild_card,2022.2.4,Win32,60.06006006,5e5ed3c0287d5020d299f783,64d2fd46c836a06233681665,64dc7bdbac1e705236e6c160,,,,,,,decisionTrl,resources/DY.BMP,resources/DR.BMP,Door2,-0.25,0.024444444,1,0,0,0.6145,optionLeft,20,1515,1,29,0,29,0,1,,,,,,,,,,,,,,,,,,,,,,,,,,,,,,,,,,,,,,,
,,,,,,,,2023-08-16_08h33.57.593,HF_wild_card,2022.2.4,Win32,60.06006006,5e5ed3c0287d5020d299f783,64d2fd46c836a06233681665,64dc7bdbac1e705236e6c160,,,,,,,decisionTrl,resources/DBN.BMP,resources/DB.BMP,Door3,0.281111111,0.005555556,1,0,0,1.1305,optionRight,70,1585,1,30,0,30,0,1,,,,,,,,,,,,,,,,,,,,,,,,,,,,,,,,,,,,,,,
,,,,,,,,2023-08-16_08h33.57.593,HF_wild_card,2022.2.4,Win32,60.06006006,5e5ed3c0287d5020d299f783,64d2fd46c836a06233681665,64dc7bdbac1e705236e6c160,,,,,,,sngl,resources/Empty.png,resources/DB.BMP,Door3,0.44,0.007777778,1,0,0,1.398,optionRight,70,1655,1,31,0,31,0,1,,,,,,,,,,,,,,,,,,,,,,,,,,,,,,,,,,,,,,,
,,,,,,,,2023-08-16_08h33.57.593,HF_wild_card,2022.2.4,Win32,60.06006006,5e5ed3c0287d5020d299f783,64d2fd46c836a06233681665,64dc7bdbac1e705236e6c160,,,,,,,sngl,resources/DG.BMP,resources/Empty.png,WildCard_Ex,-0.19,0.011111111,1,0,0,0.7648,optionLeft,95,1750,1,32,0,32,0,1,,,,,,,,,,,,,,,,,,,,,,,,,,,,,,,,,,,,,,,
,,,,,,,,2023-08-16_08h33.57.593,HF_wild_card,2022.2.4,Win32,60.06006006,5e5ed3c0287d5020d299f783,64d2fd46c836a06233681665,64dc7bdbac1e705236e6c160,,,,,,,decisionTrl,resources/DBN.BMP,resources/DB.BMP,Door4,-0.222222222,0.026666667,1,0,0,0.848,optionLeft,80,1830,1,33,0,33,0,1,,,,,,,,,,,,,,,,,,,,,,,,,,,,,,,,,,,,,,,
,,,,,,,,2023-08-16_08h33.57.593,HF_wild_card,2022.2.4,Win32,60.06006006,5e5ed3c0287d5020d299f783,64d2fd46c836a06233681665,64dc7bdbac1e705236e6c160,,,,,,,sngl,resources/DG.BMP,resources/Empty.png,WildCard_Ex,-0.35,0.07,1,0,0,0.6479,optionLeft,5,1835,1,34,0,34,0,1,,,,,,,,,,,,,,,,,,,,,,,,,,,,,,,,,,,,,,,
,,,,,,,,2023-08-16_08h33.57.593,HF_wild_card,2022.2.4,Win32,60.06006006,5e5ed3c0287d5020d299f783,64d2fd46c836a06233681665,64dc7bdbac1e705236e6c160,,,,,,,decisionTrl,resources/DBN.BMP,resources/DG.BMP,Door4,-0.24,0,1,0,0,1.0807,optionLeft,60,1895,1,35,0,35,0,1,,,,,,,,,,,,,,,,,,,,,,,,,,,,,,,,,,,,,,,
,,,,,,,,2023-08-16_08h33.57.593,HF_wild_card,2022.2.4,Win32,60.06006006,5e5ed3c0287d5020d299f783,64d2fd46c836a06233681665,64dc7bdbac1e705236e6c160,,,,,,,ctch,resources/DB.BMP,resources/DY.BMP,Door2,0.334444444,-0.012222222,1,0,0,0.8828,optionRight,20,1915,1,36,0,36,0,1,,,,,,,,,,,,,,,,,,,,,,,,,,,,,,,,,,,,,,,
,,,,,,,,2023-08-16_08h33.57.593,HF_wild_card,2022.2.4,Win32,60.06006006,5e5ed3c0287d5020d299f783,64d2fd46c836a06233681665,64dc7bdbac1e705236e6c160,,,,,,,ctch,resources/DR.BMP,resources/DBN.BMP,Door4,0.316666667,-0.003333333,1,0,0,1.0313,optionRight,60,1975,1,37,0,37,0,1,,,,,,,,,,,,,,,,,,,,,,,,,,,,,,,,,,,,,,,
,,,,,,,,2023-08-16_08h33.57.593,HF_wild_card,2022.2.4,Win32,60.06006006,5e5ed3c0287d5020d299f783,64d2fd46c836a06233681665,64dc7bdbac1e705236e6c160,,,,,,,decisionTrl,resources/DY.BMP,resources/DR.BMP,Door1,0.16,-0.007777778,1,0,0,0.8812,optionRight,30,2005,1,38,0,38,0,1,,,,,,,,,,,,,,,,,,,,,,,,,,,,,,,,,,,,,,,
,,,,,,,,2023-08-16_08h33.57.593,HF_wild_card,2022.2.4,Win32,60.06006006,5e5ed3c0287d5020d299f783,64d2fd46c836a06233681665,64dc7bdbac1e705236e6c160,,,,,,,decisionTrl,resources/DBN.BMP,resources/DB.BMP,Door4,-0.272222222,0.007777778,1,0,0,1.3141,optionLeft,80,2085,1,39,0,39,0,1,,,,,,,,,,,,,,,,,,,,,,,,,,,,,,,,,,,,,,,
,,,,,,,,2023-08-16_08h33.57.593,HF_wild_card,2022.2.4,Win32,60.06006006,5e5ed3c0287d5020d299f783,64d2fd46c836a06233681665,64dc7bdbac1e705236e6c160,,,,,,,ctch,resources/DY.BMP,resources/DB.BMP,Door3,0.281111111,-0.007777778,1,0,0,0.9481,optionRight,70,2155,1,40,0,40,0,1,,,,,,,,,,,,,,,,,,,,,,,,,,,,,,,,,,,,,,,
,,,,,,,,2023-08-16_08h33.57.593,HF_wild_card,2022.2.4,Win32,60.06006006,5e5ed3c0287d5020d299f783,64d2fd46c836a06233681665,64dc7bdbac1e705236e6c160,,,,,,,decisionTrl,resources/DG.BMP,resources/DR.BMP,Door1,0.48,-0.022222222,1,0,0,1.3805,optionRight,30,2185,1,41,0,41,0,1,,,,,,,,,,,,,,,,,,,,,,,,,,,,,,,,,,,,,,,
,,,,,,,,2023-08-16_08h33.57.593,HF_wild_card,2022.2.4,Win32,60.06006006,5e5ed3c0287d5020d299f783,64d2fd46c836a06233681665,64dc7bdbac1e705236e6c160,,,,,,,decisionTrl,resources/DY.BMP,resources/DR.BMP,Door1,0.211111111,-0.008888889,1,0,0,0.8317,optionRight,30,2215,1,42,0,42,0,1,,,,,,,,,,,,,,,,,,,,,,,,,,,,,,,,,,,,,,,
,,,,,,,,2023-08-16_08h33.57.593,HF_wild_card,2022.2.4,Win32,60.06006006,5e5ed3c0287d5020d299f783,64d2fd46c836a06233681665,64dc7bdbac1e705236e6c160,,,,,,,sngl,resources/DY.BMP,resources/Empty.png,Door2,-0.153333333,-0.006666667,1,0,0,0.6477,optionLeft,40,2255,1,43,0,43,0,1,,,,,,,,,,,,,,,,,,,,,,,,,,,,,,,,,,,,,,,
,,,,,,,,2023-08-16_08h33.57.593,HF_wild_card,2022.2.4,Win32,60.06006006,5e5ed3c0287d5020d299f783,64d2fd46c836a06233681665,64dc7bdbac1e705236e6c160,,,,,,,,,,,,,,,,,,,,,,,,,,0,0,0,0,1,,,,,,,,,,,,,,,,,,,,,,,,,,,,,,,,,,
,,,,,,,,2023-08-16_08h33.57.593,HF_wild_card,2022.2.4,Win32,60.06006006,5e5ed3c0287d5020d299f783,64d2fd46c836a06233681665,64dc7bdbac1e705236e6c160,,,,,,,decisionTrl,resources/DR.BMP,resources/DY.BMP,Door1,-0.444444444,0.144444444,1,0,0,1.7401,optionLeft,30,2285,2,0,0,0,0,1,,,,,,,,,,,,,,,,,,,,,,,,,,,,,,,,,,,,,,,
,,,,,,,,2023-08-16_08h33.57.593,HF_wild_card,2022.2.4,Win32,60.06006006,5e5ed3c0287d5020d299f783,64d2fd46c836a06233681665,64dc7bdbac1e705236e6c160,,,,,,,decisionTrl,resources/DBN.BMP,resources/DB.BMP,Door3,0.198888889,0.015555556,1,0,0,0.6148,optionRight,70,2355,2,1,0,1,0,1,,,,,,,,,,,,,,,,,,,,,,,,,,,,,,,,,,,,,,,
,,,,,,,,2023-08-16_08h33.57.593,HF_wild_card,2022.2.4,Win32,60.06006006,5e5ed3c0287d5020d299f783,64d2fd46c836a06233681665,64dc7bdbac1e705236e6c160,,,,,,,decisionTrl,resources/DY.BMP,resources/DR.BMP,Door1,0.331111111,0.077777778,1,0,0,0.915,optionRight,30,2385,2,2,0,2,0,1,,,,,,,,,,,,,,,,,,,,,,,,,,,,,,,,,,,,,,,
,,,,,,,,2023-08-16_08h33.57.593,HF_wild_card,2022.2.4,Win32,60.06006006,5e5ed3c0287d5020d299f783,64d2fd46c836a06233681665,64dc7bdbac1e705236e6c160,,,,,,,decisionTrl,resources/DY.BMP,resources/DR.BMP,Door1,0.345555556,0.01,1,0,0,0.6819,optionRight,30,2415,2,3,0,3,0,1,,,,,,,,,,,,,,,,,,,,,,,,,,,,,,,,,,,,,,,
,,,,,,,,2023-08-16_08h33.57.593,HF_wild_card,2022.2.4,Win32,60.06006006,5e5ed3c0287d5020d299f783,64d2fd46c836a06233681665,64dc7bdbac1e705236e6c160,,,,,,,sngl,resources/DG.BMP,resources/Empty.png,WildCard_Ex,-0.33,0.028888889,1,0,0,0.5473,optionLeft,95,2510,2,4,0,4,0,1,,,,,,,,,,,,,,,,,,,,,,,,,,,,,,,,,,,,,,,
,,,,,,,,2023-08-16_08h33.57.593,HF_wild_card,2022.2.4,Win32,60.06006006,5e5ed3c0287d5020d299f783,64d2fd46c836a06233681665,64dc7bdbac1e705236e6c160,,,,,,,decisionTrl,resources/DG.BMP,resources/DB.BMP,WildCard_Ex,-0.148888889,-0.008888889,1,0,0,0.9631,optionLeft,5,2515,2,5,0,5,0,1,,,,,,,,,,,,,,,,,,,,,,,,,,,,,,,,,,,,,,,
,,,,,,,,2023-08-16_08h33.57.593,HF_wild_card,2022.2.4,Win32,60.06006006,5e5ed3c0287d5020d299f783,64d2fd46c836a06233681665,64dc7bdbac1e705236e6c160,,,,,,,decisionTrl,resources/DG.BMP,resources/DR.BMP,Door1,0.216666667,-0.003333333,1,0,0,0.7804,optionRight,30,2545,2,6,0,6,0,1,,,,,,,,,,,,,,,,,,,,,,,,,,,,,,,,,,,,,,,
,,,,,,,,2023-08-16_08h33.57.593,HF_wild_card,2022.2.4,Win32,60.06006006,5e5ed3c0287d5020d299f783,64d2fd46c836a06233681665,64dc7bdbac1e705236e6c160,,,,,,,sngl,resources/DY.BMP,resources/Empty.png,Door2,-0.283333333,-0.005555556,1,0,0,0.6488,optionLeft,20,2565,2,7,0,7,0,1,,,,,,,,,,,,,,,,,,,,,,,,,,,,,,,,,,,,,,,
,,,,,,,,2023-08-16_08h33.57.593,HF_wild_card,2022.2.4,Win32,60.06006006,5e5ed3c0287d5020d299f783,64d2fd46c836a06233681665,64dc7bdbac1e705236e6c160,,,,,,,sngl,resources/DG.BMP,resources/Empty.png,WildCard_Ex,-0.33,-0.014444444,1,0,0,0.681,optionLeft,5,2570,2,8,0,8,0,1,,,,,,,,,,,,,,,,,,,,,,,,,,,,,,,,,,,,,,,
,,,,,,,,2023-08-16_08h33.57.593,HF_wild_card,2022.2.4,Win32,60.06006006,5e5ed3c0287d5020d299f783,64d2fd46c836a06233681665,64dc7bdbac1e705236e6c160,,,,,,,sngl,resources/Empty.png,resources/DB.BMP,Door3,0.33,-0.041111111,1,0,0,0.6647,optionRight,70,2640,2,9,0,9,0,1,,,,,,,,,,,,,,,,,,,,,,,,,,,,,,,,,,,,,,,
,,,,,,,,2023-08-16_08h33.57.593,HF_wild_card,2022.2.4,Win32,60.06006006,5e5ed3c0287d5020d299f783,64d2fd46c836a06233681665,64dc7bdbac1e705236e6c160,,,,,,,ctch,resources/DB.BMP,resources/DY.BMP,Door3,-0.32,-0.011111111,1,0,0,0.9817,optionLeft,70,2710,2,10,0,10,0,1,,,,,,,,,,,,,,,,,,,,,,,,,,,,,,,,,,,,,,,
,,,,,,,,2023-08-16_08h33.57.593,HF_wild_card,2022.2.4,Win32,60.06006006,5e5ed3c0287d5020d299f783,64d2fd46c836a06233681665,64dc7bdbac1e705236e6c160,,,,,,,decisionTrl,resources/DG.BMP,resources/DY.BMP,Door2,0.285555556,-0.066666667,1,0,0,2.8649,optionRight,40,2750,2,11,0,11,0,1,,,,,,,,,,,,,,,,,,,,,,,,,,,,,,,,,,,,,,,
,,,,,,,,2023-08-16_08h33.57.593,HF_wild_card,2022.2.4,Win32,60.06006006,5e5ed3c0287d5020d299f783,64d2fd46c836a06233681665,64dc7bdbac1e705236e6c160,,,,,,,sngl,resources/DR.BMP,resources/Empty.png,Door1,-0.206666667,-0.011111111,1,0,0,0.5985,optionLeft,30,2780,2,12,0,12,0,1,,,,,,,,,,,,,,,,,,,,,,,,,,,,,,,,,,,,,,,
,,,,,,,,2023-08-16_08h33.57.593,HF_wild_card,2022.2.4,Win32,60.06006006,5e5ed3c0287d5020d299f783,64d2fd46c836a06233681665,64dc7bdbac1e705236e6c160,,,,,,,ctch,resources/DR.BMP,resources/DBN.BMP,Door4,0.281111111,0.002222222,1,0,0,0.761,optionRight,80,2860,2,13,0,13,0,1,,,,,,,,,,,,,,,,,,,,,,,,,,,,,,,,,,,,,,,
,,,,,,,,2023-08-16_08h33.57.593,HF_wild_card,2022.2.4,Win32,60.06006006,5e5ed3c0287d5020d299f783,64d2fd46c836a06233681665,64dc7bdbac1e705236e6c160,,,,,,,sngl,resources/DB.BMP,resources/Empty.png,Door3,-0.26,-0.036666667,1,0,0,0.5817,optionLeft,70,2930,2,14,0,14,0,1,,,,,,,,,,,,,,,,,,,,,,,,,,,,,,,,,,,,,,,
,,,,,,,,2023-08-16_08h33.57.593,HF_wild_card,2022.2.4,Win32,60.06006006,5e5ed3c0287d5020d299f783,64d2fd46c836a06233681665,64dc7bdbac1e705236e6c160,,,,,,,decisionTrl,resources/DR.BMP,resources/DY.BMP,Door2,0.442222222,-0.078888889,1,0,0,0.7981,optionRight,20,2950,2,15,0,15,0,1,,,,,,,,,,,,,,,,,,,,,,,,,,,,,,,,,,,,,,,
,,,,,,,,2023-08-16_08h33.57.593,HF_wild_card,2022.2.4,Win32,60.06006006,5e5ed3c0287d5020d299f783,64d2fd46c836a06233681665,64dc7bdbac1e705236e6c160,,,,,,,decisionTrl,resources/DY.BMP,resources/DR.BMP,Door2,-0.397777778,-0.013333333,1,0,0,0.5979,optionLeft,40,2990,2,16,0,16,0,1,,,,,,,,,,,,,,,,,,,,,,,,,,,,,,,,,,,,,,,
,,,,,,,,2023-08-16_08h33.57.593,HF_wild_card,2022.2.4,Win32,60.06006006,5e5ed3c0287d5020d299f783,64d2fd46c836a06233681665,64dc7bdbac1e705236e6c160,,,,,,,sngl,resources/Empty.png,resources/DG.BMP,WildCard_Ex,0.186666667,0.01,1,0,0,0.5822,optionRight,95,3085,2,17,0,17,0,1,,,,,,,,,,,,,,,,,,,,,,,,,,,,,,,,,,,,,,,
,,,,,,,,2023-08-16_08h33.57.593,HF_wild_card,2022.2.4,Win32,60.06006006,5e5ed3c0287d5020d299f783,64d2fd46c836a06233681665,64dc7bdbac1e705236e6c160,,,,,,,ctch,resources/DY.BMP,resources/DB.BMP,Door3,0.382222222,-0.018888889,1,0,0,0.8645,optionRight,70,3155,2,18,0,18,0,1,,,,,,,,,,,,,,,,,,,,,,,,,,,,,,,,,,,,,,,
,,,,,,,,2023-08-16_08h33.57.593,HF_wild_card,2022.2.4,Win32,60.06006006,5e5ed3c0287d5020d299f783,64d2fd46c836a06233681665,64dc7bdbac1e705236e6c160,,,,,,,decisionTrl,resources/DB.BMP,resources/DBN.BMP,Door4,0.378888889,-0.017777778,1,0,0,0.7476,optionRight,80,3235,2,19,0,19,0,1,,,,,,,,,,,,,,,,,,,,,,,,,,,,,,,,,,,,,,,
,,,,,,,,2023-08-16_08h33.57.593,HF_wild_card,2022.2.4,Win32,60.06006006,5e5ed3c0287d5020d299f783,64d2fd46c836a06233681665,64dc7bdbac1e705236e6c160,,,,,,,decisionTrl,resources/DB.BMP,resources/DBN.BMP,Door4,0.478888889,-0.003333333,1,0,0,0.5817,optionRight,60,3295,2,20,0,20,0,1,,,,,,,,,,,,,,,,,,,,,,,,,,,,,,,,,,,,,,,
,,,,,,,,2023-08-16_08h33.57.593,HF_wild_card,2022.2.4,Win32,60.06006006,5e5ed3c0287d5020d299f783,64d2fd46c836a06233681665,64dc7bdbac1e705236e6c160,,,,,,,sngl,resources/Empty.png,resources/DG.BMP,WildCard_Ex,0.353333333,-0.025555556,1,0,0,0.6826,optionRight,5,3300,2,21,0,21,0,1,,,,,,,,,,,,,,,,,,,,,,,,,,,,,,,,,,,,,,,
,,,,,,,,2023-08-16_08h33.57.593,HF_wild_card,2022.2.4,Win32,60.06006006,5e5ed3c0287d5020d299f783,64d2fd46c836a06233681665,64dc7bdbac1e705236e6c160,,,,,,,decisionTrl,resources/DB.BMP,resources/DBN.BMP,Door4,0.317777778,-0.054444444,1,0,0,0.6981,optionRight,60,3360,2,22,0,22,0,1,,,,,,,,,,,,,,,,,,,,,,,,,,,,,,,,,,,,,,,
,,,,,,,,2023-08-16_08h33.57.593,HF_wild_card,2022.2.4,Win32,60.06006006,5e5ed3c0287d5020d299f783,64d2fd46c836a06233681665,64dc7bdbac1e705236e6c160,,,,,,,ctch,resources/DY.BMP,resources/DB.BMP,Door3,0.573333333,-0.044444444,1,0,0,0.7651,optionRight,70,3430,2,23,0,23,0,1,,,,,,,,,,,,,,,,,,,,,,,,,,,,,,,,,,,,,,,
,,,,,,,,2023-08-16_08h33.57.593,HF_wild_card,2022.2.4,Win32,60.06006006,5e5ed3c0287d5020d299f783,64d2fd46c836a06233681665,64dc7bdbac1e705236e6c160,,,,,,,decisionTrl,resources/DR.BMP,resources/DG.BMP,WildCard_Ex,0.35,-0.012222222,1,0,0,0.5148,optionRight,5,3435,2,24,0,24,0,1,,,,,,,,,,,,,,,,,,,,,,,,,,,,,,,,,,,,,,,
,,,,,,,,2023-08-16_08h33.57.593,HF_wild_card,2022.2.4,Win32,60.06006006,5e5ed3c0287d5020d299f783,64d2fd46c836a06233681665,64dc7bdbac1e705236e6c160,,,,,,,ctch,resources/DR.BMP,resources/DBN.BMP,Door1,-0.188888889,-0.013333333,1,0,0,0.7313,optionLeft,30,3465,2,25,0,25,0,1,,,,,,,,,,,,,,,,,,,,,,,,,,,,,,,,,,,,,,,
,,,,,,,,2023-08-16_08h33.57.593,HF_wild_card,2022.2.4,Win32,60.06006006,5e5ed3c0287d5020d299f783,64d2fd46c836a06233681665,64dc7bdbac1e705236e6c160,,,,,,,ctch,resources/DB.BMP,resources/DY.BMP,Door2,0.336666667,-0.002222222,1,0,0,0.7983,optionRight,40,3505,2,26,0,26,0,1,,,,,,,,,,,,,,,,,,,,,,,,,,,,,,,,,,,,,,,
,,,,,,,,2023-08-16_08h33.57.593,HF_wild_card,2022.2.4,Win32,60.06006006,5e5ed3c0287d5020d299f783,64d2fd46c836a06233681665,64dc7bdbac1e705236e6c160,,,,,,,decisionTrl,resources/DB.BMP,resources/DBN.BMP,Door3,-0.22,-0.028888889,1,0,0,0.9317,optionLeft,70,3575,2,27,0,27,0,1,,,,,,,,,,,,,,,,,,,,,,,,,,,,,,,,,,,,,,,
,,,,,,,,2023-08-16_08h33.57.593,HF_wild_card,2022.2.4,Win32,60.06006006,5e5ed3c0287d5020d299f783,64d2fd46c836a06233681665,64dc7bdbac1e705236e6c160,,,,,,,decisionTrl,resources/DR.BMP,resources/DY.BMP,Door2,0.445555556,-0.03,1,0,0,0.7818,optionRight,20,3595,2,28,0,28,0,1,,,,,,,,,,,,,,,,,,,,,,,,,,,,,,,,,,,,,,,
,,,,,,,,2023-08-16_08h33.57.593,HF_wild_card,2022.2.4,Win32,60.06006006,5e5ed3c0287d5020d299f783,64d2fd46c836a06233681665,64dc7bdbac1e705236e6c160,,,,,,,decisionTrl,resources/DY.BMP,resources/DR.BMP,Door2,-0.245555556,-0.016666667,1,0,0,0.7473,optionLeft,40,3635,2,29,0,29,0,1,,,,,,,,,,,,,,,,,,,,,,,,,,,,,,,,,,,,,,,
,,,,,,,,2023-08-16_08h33.57.593,HF_wild_card,2022.2.4,Win32,60.06006006,5e5ed3c0287d5020d299f783,64d2fd46c836a06233681665,64dc7bdbac1e705236e6c160,,,,,,,sngl,resources/Empty.png,resources/DY.BMP,Door2,0.371111111,-0.012222222,1,0,0,0.6306,optionRight,40,3675,2,30,0,30,0,1,,,,,,,,,,,,,,,,,,,,,,,,,,,,,,,,,,,,,,,
,,,,,,,,2023-08-16_08h33.57.593,HF_wild_card,2022.2.4,Win32,60.06006006,5e5ed3c0287d5020d299f783,64d2fd46c836a06233681665,64dc7bdbac1e705236e6c160,,,,,,,decisionTrl,resources/DBN.BMP,resources/DB.BMP,Door4,-0.127777778,-0.008888889,1,0,0,1.9651,optionLeft,60,3735,2,31,0,31,0,1,,,,,,,,,,,,,,,,,,,,,,,,,,,,,,,,,,,,,,,
,,,,,,,,2023-08-16_08h33.57.593,HF_wild_card,2022.2.4,Win32,60.06006006,5e5ed3c0287d5020d299f783,64d2fd46c836a06233681665,64dc7bdbac1e705236e6c160,,,,,,,ctch,resources/DBN.BMP,resources/DR.BMP,Door1,0.317777778,-0.014444444,1,0,0,0.949,optionRight,30,3765,2,32,0,32,0,1,,,,,,,,,,,,,,,,,,,,,,,,,,,,,,,,,,,,,,,
,,,,,,,,2023-08-16_08h33.57.593,HF_wild_card,2022.2.4,Win32,60.06006006,5e5ed3c0287d5020d299f783,64d2fd46c836a06233681665,64dc7bdbac1e705236e6c160,,,,,,,decisionTrl,resources/DG.BMP,resources/DBN.BMP,Door4,0.346666667,-0.014444444,1,0,0,0.764,optionRight,80,3845,2,33,0,33,0,1,,,,,,,,,,,,,,,,,,,,,,,,,,,,,,,,,,,,,,,
,,,,,,,,2023-08-16_08h33.57.593,HF_wild_card,2022.2.4,Win32,60.06006006,5e5ed3c0287d5020d299f783,64d2fd46c836a06233681665,64dc7bdbac1e705236e6c160,,,,,,,decisionTrl,resources/DB.BMP,resources/DG.BMP,Door3,-0.204444444,-0.012222222,1,0,0,0.916,optionLeft,70,3915,2,34,0,34,0,1,,,,,,,,,,,,,,,,,,,,,,,,,,,,,,,,,,,,,,,
,,,,,,,,2023-08-16_08h33.57.593,HF_wild_card,2022.2.4,Win32,60.06006006,5e5ed3c0287d5020d299f783,64d2fd46c836a06233681665,64dc7bdbac1e705236e6c160,,,,,,,decisionTrl,resources/DBN.BMP,resources/DB.BMP,Door4,-0.244444444,0.014444444,1,0,0,1.0147,optionLeft,80,3995,2,35,0,35,0,1,,,,,,,,,,,,,,,,,,,,,,,,,,,,,,,,,,,,,,,
,,,,,,,,2023-08-16_08h33.57.593,HF_wild_card,2022.2.4,Win32,60.06006006,5e5ed3c0287d5020d299f783,64d2fd46c836a06233681665,64dc7bdbac1e705236e6c160,,,,,,,sngl,resources/Empty.png,resources/DR.BMP,Door1,0.411111111,-0.021111111,1,0,0,0.6473,optionRight,30,4025,2,36,0,36,0,1,,,,,,,,,,,,,,,,,,,,,,,,,,,,,,,,,,,,,,,
,,,,,,,,2023-08-16_08h33.57.593,HF_wild_card,2022.2.4,Win32,60.06006006,5e5ed3c0287d5020d299f783,64d2fd46c836a06233681665,64dc7bdbac1e705236e6c160,,,,,,,decisionTrl,resources/DY.BMP,resources/DG.BMP,WildCard_Ex,0.385555556,-0.01,1,0,0,0.7477,optionRight,5,4030,2,37,0,37,0,1,,,,,,,,,,,,,,,,,,,,,,,,,,,,,,,,,,,,,,,
,,,,,,,,2023-08-16_08h33.57.593,HF_wild_card,2022.2.4,Win32,60.06006006,5e5ed3c0287d5020d299f783,64d2fd46c836a06233681665,64dc7bdbac1e705236e6c160,,,,,,,ctch,resources/DBN.BMP,resources/DR.BMP,Door4,-0.12,-0.032222222,1,0,0,0.7131,optionLeft,60,4090,2,38,0,38,0,1,,,,,,,,,,,,,,,,,,,,,,,,,,,,,,,,,,,,,,,
,,,,,,,,2023-08-16_08h33.57.593,HF_wild_card,2022.2.4,Win32,60.06006006,5e5ed3c0287d5020d299f783,64d2fd46c836a06233681665,64dc7bdbac1e705236e6c160,,,,,,,sngl,resources/DBN.BMP,resources/Empty.png,Door4,-0.422222222,0.02,1,0,0,0.8157,optionLeft,60,4150,2,39,0,39,0,1,,,,,,,,,,,,,,,,,,,,,,,,,,,,,,,,,,,,,,,
,,,,,,,,2023-08-16_08h33.57.593,HF_wild_card,2022.2.4,Win32,60.06006006,5e5ed3c0287d5020d299f783,64d2fd46c836a06233681665,64dc7bdbac1e705236e6c160,,,,,,,decisionTrl,resources/DBN.BMP,resources/DG.BMP,Door4,-0.521111111,-0.018888889,1,0,0,0.9152,optionLeft,80,4230,2,40,0,40,0,1,,,,,,,,,,,,,,,,,,,,,,,,,,,,,,,,,,,,,,,
,,,,,,,,2023-08-16_08h33.57.593,HF_wild_card,2022.2.4,Win32,60.06006006,5e5ed3c0287d5020d299f783,64d2fd46c836a06233681665,64dc7bdbac1e705236e6c160,,,,,,,decisionTrl,resources/DR.BMP,resources/DY.BMP,Door1,-0.227777778,-0.006666667,1,0,0,1.1481,optionLeft,30,4260,2,41,0,41,0,1,,,,,,,,,,,,,,,,,,,,,,,,,,,,,,,,,,,,,,,
,,,,,,,,2023-08-16_08h33.57.593,HF_wild_card,2022.2.4,Win32,60.06006006,5e5ed3c0287d5020d299f783,64d2fd46c836a06233681665,64dc7bdbac1e705236e6c160,,,,,,,decisionTrl,resources/DBN.BMP,resources/DB.BMP,Door4,-0.227777778,-0.01,1,0,0,0.7979,optionLeft,80,4340,2,42,0,42,0,1,,,,,,,,,,,,,,,,,,,,,,,,,,,,,,,,,,,,,,,
,,,,,,,,2023-08-16_08h33.57.593,HF_wild_card,2022.2.4,Win32,60.06006006,5e5ed3c0287d5020d299f783,64d2fd46c836a06233681665,64dc7bdbac1e705236e6c160,,,,,,,sngl,resources/Empty.png,resources/DBN.BMP,Door4,0.285555556,-0.018888889,1,0,0,0.6815,optionRight,80,4420,2,43,0,43,0,1,,,,,,,,,,,,,,,,,,,,,,,,,,,,,,,,,,,,,,,
,,,,,,,,2023-08-16_08h33.57.593,HF_wild_card,2022.2.4,Win32,60.06006006,5e5ed3c0287d5020d299f783,64d2fd46c836a06233681665,64dc7bdbac1e705236e6c160,,,,,,,,,,,,,,,,,,,,,,,,,,1,0,1,0,1,,,,,,,,,,,,,,,,,,,,,,,,,,,,,,,,,,
,,,,,,,,2023-08-16_08h33.57.593,HF_wild_card,2022.2.4,Win32,60.06006006,5e5ed3c0287d5020d299f783,64d2fd46c836a06233681665,64dc7bdbac1e705236e6c160,,,,,,,decisionTrl,resources/DG.BMP,resources/DB.BMP,Door3,0.3,-0.013333333,1,0,0,0.9729,optionRight,70,4490,3,0,0,0,0,1,,,,,,,,,,,,,,,,,,,,,,,,,,,,,,,,,,,,,,,
,,,,,,,,2023-08-16_08h33.57.593,HF_wild_card,2022.2.4,Win32,60.06006006,5e5ed3c0287d5020d299f783,64d2fd46c836a06233681665,64dc7bdbac1e705236e6c160,,,,,,,sngl,resources/DB.BMP,resources/Empty.png,Door3,-0.355555556,-0.081111111,1,0,0,0.6818,optionLeft,70,4560,3,1,0,1,0,1,,,,,,,,,,,,,,,,,,,,,,,,,,,,,,,,,,,,,,,
,,,,,,,,2023-08-16_08h33.57.593,HF_wild_card,2022.2.4,Win32,60.06006006,5e5ed3c0287d5020d299f783,64d2fd46c836a06233681665,64dc7bdbac1e705236e6c160,,,,,,,decisionTrl,resources/DY.BMP,resources/DG.BMP,WildCard_Ex,0.294444444,-0.005555556,1,0,0,0.7152,optionRight,95,4655,3,2,0,2,0,1,,,,,,,,,,,,,,,,,,,,,,,,,,,,,,,,,,,,,,,
,,,,,,,,2023-08-16_08h33.57.593,HF_wild_card,2022.2.4,Win32,60.06006006,5e5ed3c0287d5020d299f783,64d2fd46c836a06233681665,64dc7bdbac1e705236e6c160,,,,,,,decisionTrl,resources/DBN.BMP,resources/DB.BMP,Door3,0.401111111,-0.011111111,1,0,0,0.5984,optionRight,70,4725,3,3,0,3,0,1,,,,,,,,,,,,,,,,,,,,,,,,,,,,,,,,,,,,,,,
,,,,,,,,2023-08-16_08h33.57.593,HF_wild_card,2022.2.4,Win32,60.06006006,5e5ed3c0287d5020d299f783,64d2fd46c836a06233681665,64dc7bdbac1e705236e6c160,,,,,,,decisionTrl,resources/DY.BMP,resources/DR.BMP,Door1,0.494444444,-0.054444444,1,0,0,0.8482,optionRight,30,4755,3,4,0,4,0,1,,,,,,,,,,,,,,,,,,,,,,,,,,,,,,,,,,,,,,,
,,,,,,,,2023-08-16_08h33.57.593,HF_wild_card,2022.2.4,Win32,60.06006006,5e5ed3c0287d5020d299f783,64d2fd46c836a06233681665,64dc7bdbac1e705236e6c160,,,,,,,ctch,resources/DY.BMP,resources/DB.BMP,Door3,0.404444444,-0.038888889,1,0,0,0.5981,optionRight,70,4825,3,5,0,5,0,1,,,,,,,,,,,,,,,,,,,,,,,,,,,,,,,,,,,,,,,
,,,,,,,,2023-08-16_08h33.57.593,HF_wild_card,2022.2.4,Win32,60.06006006,5e5ed3c0287d5020d299f783,64d2fd46c836a06233681665,64dc7bdbac1e705236e6c160,,,,,,,decisionTrl,resources/DR.BMP,resources/DY.BMP,Door1,-0.134444444,-0.005555556,1,0,0,0.8823,optionLeft,30,4855,3,6,0,6,0,1,,,,,,,,,,,,,,,,,,,,,,,,,,,,,,,,,,,,,,,
,,,,,,,,2023-08-16_08h33.57.593,HF_wild_card,2022.2.4,Win32,60.06006006,5e5ed3c0287d5020d299f783,64d2fd46c836a06233681665,64dc7bdbac1e705236e6c160,,,,,,,decisionTrl,resources/DG.BMP,resources/DY.BMP,WildCard_Ex,-0.198888889,-0.007777778,1,0,0,0.6145,optionLeft,5,4860,3,7,0,7,0,1,,,,,,,,,,,,,,,,,,,,,,,,,,,,,,,,,,,,,,,
,,,,,,,,2023-08-16_08h33.57.593,HF_wild_card,2022.2.4,Win32,60.06006006,5e5ed3c0287d5020d299f783,64d2fd46c836a06233681665,64dc7bdbac1e705236e6c160,,,,,,,sngl,resources/Empty.png,resources/DG.BMP,WildCard_Ex,0.41,0.002222222,1,0,0,0.5312,optionRight,5,4865,3,8,0,8,0,1,,,,,,,,,,,,,,,,,,,,,,,,,,,,,,,,,,,,,,,
,,,,,,,,2023-08-16_08h33.57.593,HF_wild_card,2022.2.4,Win32,60.06006006,5e5ed3c0287d5020d299f783,64d2fd46c836a06233681665,64dc7bdbac1e705236e6c160,,,,,,,decisionTrl,resources/DB.BMP,resources/DBN.BMP,Door4,0.485555556,-0.057777778,1,0,0,0.8476,optionRight,60,4925,3,9,0,9,0,1,,,,,,,,,,,,,,,,,,,,,,,,,,,,,,,,,,,,,,,
,,,,,,,,2023-08-16_08h33.57.593,HF_wild_card,2022.2.4,Win32,60.06006006,5e5ed3c0287d5020d299f783,64d2fd46c836a06233681665,64dc7bdbac1e705236e6c160,,,,,,,decisionTrl,resources/DY.BMP,resources/DR.BMP,Door1,0.305555556,-0.014444444,1,0,0,0.7649,optionRight,30,4955,3,10,0,10,0,1,,,,,,,,,,,,,,,,,,,,,,,,,,,,,,,,,,,,,,,
,,,,,,,,2023-08-16_08h33.57.593,HF_wild_card,2022.2.4,Win32,60.06006006,5e5ed3c0287d5020d299f783,64d2fd46c836a06233681665,64dc7bdbac1e705236e6c160,,,,,,,sngl,resources/Empty.png,resources/DY.BMP,Door2,0.378888889,-0.014444444,1,0,0,0.5978,optionRight,20,4975,3,11,0,11,0,1,,,,,,,,,,,,,,,,,,,,,,,,,,,,,,,,,,,,,,,
,,,,,,,,2023-08-16_08h33.57.593,HF_wild_card,2022.2.4,Win32,60.06006006,5e5ed3c0287d5020d299f783,64d2fd46c836a06233681665,64dc7bdbac1e705236e6c160,,,,,,,ctch,resources/DY.BMP,resources/DB.BMP,Door3,0.303333333,0.02,1,0,0,0.7162,optionRight,70,5045,3,12,0,12,0,1,,,,,,,,,,,,,,,,,,,,,,,,,,,,,,,,,,,,,,,
,,,,,,,,2023-08-16_08h33.57.593,HF_wild_card,2022.2.4,Win32,60.06006006,5e5ed3c0287d5020d299f783,64d2fd46c836a06233681665,64dc7bdbac1e705236e6c160,,,,,,,decisionTrl,resources/DG.BMP,resources/DBN.BMP,Door4,0.456666667,-0.001111111,1,0,0,0.6482,optionRight,60,5105,3,13,0,13,0,1,,,,,,,,,,,,,,,,,,,,,,,,,,,,,,,,,,,,,,,
,,,,,,,,2023-08-16_08h33.57.593,HF_wild_card,2022.2.4,Win32,60.06006006,5e5ed3c0287d5020d299f783,64d2fd46c836a06233681665,64dc7bdbac1e705236e6c160,,,,,,,ctch,resources/DB.BMP,resources/DY.BMP,Door2,0.264444444,-0.005555556,1,0,0,0.7148,optionRight,20,5125,3,14,0,14,0,1,,,,,,,,,,,,,,,,,,,,,,,,,,,,,,,,,,,,,,,
,,,,,,,,2023-08-16_08h33.57.593,HF_wild_card,2022.2.4,Win32,60.06006006,5e5ed3c0287d5020d299f783,64d2fd46c836a06233681665,64dc7bdbac1e705236e6c160,,,,,,,decisionTrl,resources/DR.BMP,resources/DY.BMP,Door1,-0.294444444,-0.041111111,1,0,0,0.9988,optionLeft,30,5155,3,15,0,15,0,1,,,,,,,,,,,,,,,,,,,,,,,,,,,,,,,,,,,,,,,
,,,,,,,,2023-08-16_08h33.57.593,HF_wild_card,2022.2.4,Win32,60.06006006,5e5ed3c0287d5020d299f783,64d2fd46c836a06233681665,64dc7bdbac1e705236e6c160,,,,,,,sngl,resources/Empty.png,resources/DG.BMP,WildCard_Ex,0.218888889,-0.014444444,1,0,0,0.6479,optionRight,95,5250,3,16,0,16,0,1,,,,,,,,,,,,,,,,,,,,,,,,,,,,,,,,,,,,,,,
,,,,,,,,2023-08-16_08h33.57.593,HF_wild_card,2022.2.4,Win32,60.06006006,5e5ed3c0287d5020d299f783,64d2fd46c836a06233681665,64dc7bdbac1e705236e6c160,,,,,,,sngl,resources/DBN.BMP,resources/Empty.png,Door4,-0.182222222,-0.006666667,1,0,0,0.647,optionLeft,80,5330,3,17,0,17,0,1,,,,,,,,,,,,,,,,,,,,,,,,,,,,,,,,,,,,,,,
,,,,,,,,2023-08-16_08h33.57.593,HF_wild_card,2022.2.4,Win32,60.06006006,5e5ed3c0287d5020d299f783,64d2fd46c836a06233681665,64dc7bdbac1e705236e6c160,,,,,,,decisionTrl,resources/DBN.BMP,resources/DG.BMP,Door4,-0.308888889,-0.055555556,1,0,0,0.9317,optionLeft,60,5390,3,18,0,18,0,1,,,,,,,,,,,,,,,,,,,,,,,,,,,,,,,,,,,,,,,
,,,,,,,,2023-08-16_08h33.57.593,HF_wild_card,2022.2.4,Win32,60.06006006,5e5ed3c0287d5020d299f783,64d2fd46c836a06233681665,64dc7bdbac1e705236e6c160,,,,,,,ctch,resources/DBN.BMP,resources/DR.BMP,Door4,-0.31,-0.008888889,1,0,0,0.6642,optionLeft,80,5470,3,19,0,19,0,1,,,,,,,,,,,,,,,,,,,,,,,,,,,,,,,,,,,,,,,
,,,,,,,,2023-08-16_08h33.57.593,HF_wild_card,2022.2.4,Win32,60.06006006,5e5ed3c0287d5020d299f783,64d2fd46c836a06233681665,64dc7bdbac1e705236e6c160,,,,,,,decisionTrl,resources/DB.BMP,resources/DBN.BMP,Door4,0.282222222,-0.053333333,1,0,0,0.5812,optionRight,80,5550,3,20,0,20,0,1,,,,,,,,,,,,,,,,,,,,,,,,,,,,,,,,,,,,,,,
,,,,,,,,2023-08-16_08h33.57.593,HF_wild_card,2022.2.4,Win32,60.06006006,5e5ed3c0287d5020d299f783,64d2fd46c836a06233681665,64dc7bdbac1e705236e6c160,,,,,,,decisionTrl,resources/DB.BMP,resources/DBN.BMP,Door4,0.222222222,-0.033333333,1,0,0,0.564,optionRight,80,5630,3,21,0,21,0,1,,,,,,,,,,,,,,,,,,,,,,,,,,,,,,,,,,,,,,,
,,,,,,,,2023-08-16_08h33.57.593,HF_wild_card,2022.2.4,Win32,60.06006006,5e5ed3c0287d5020d299f783,64d2fd46c836a06233681665,64dc7bdbac1e705236e6c160,,,,,,,decisionTrl,resources/DY.BMP,resources/DR.BMP,Door1,0.326666667,-0.066666667,1,0,0,1.1605,optionRight,30,5660,3,22,0,22,0,1,,,,,,,,,,,,,,,,,,,,,,,,,,,,,,,,,,,,,,,
,,,,,,,,2023-08-16_08h33.57.593,HF_wild_card,2022.2.4,Win32,60.06006006,5e5ed3c0287d5020d299f783,64d2fd46c836a06233681665,64dc7bdbac1e705236e6c160,,,,,,,ctch,resources/DBN.BMP,resources/DR.BMP,Door4,-0.237777778,-0.006666667,1,0,0,0.8319,optionLeft,80,5740,3,23,0,23,0,1,,,,,,,,,,,,,,,,,,,,,,,,,,,,,,,,,,,,,,,
,,,,,,,,2023-08-16_08h33.57.593,HF_wild_card,2022.2.4,Win32,60.06006006,5e5ed3c0287d5020d299f783,64d2fd46c836a06233681665,64dc7bdbac1e705236e6c160,,,,,,,sngl,resources/Empty.png,resources/DR.BMP,Door1,0.511111111,-0.046666667,1,0,0,1.1808,optionRight,30,5770,3,24,0,24,0,1,,,,,,,,,,,,,,,,,,,,,,,,,,,,,,,,,,,,,,,
,,,,,,,,2023-08-16_08h33.57.593,HF_wild_card,2022.2.4,Win32,60.06006006,5e5ed3c0287d5020d299f783,64d2fd46c836a06233681665,64dc7bdbac1e705236e6c160,,,,,,,decisionTrl,resources/DY.BMP,resources/DR.BMP,Door1,0.37,-0.003333333,1,0,0,1.6143,optionRight,30,5800,3,25,0,25,0,1,,,,,,,,,,,,,,,,,,,,,,,,,,,,,,,,,,,,,,,
,,,,,,,,2023-08-16_08h33.57.593,HF_wild_card,2022.2.4,Win32,60.06006006,5e5ed3c0287d5020d299f783,64d2fd46c836a06233681665,64dc7bdbac1e705236e6c160,,,,,,,sngl,resources/Empty.png,resources/DBN.BMP,Door4,0.241111111,0.005555556,1,0,0,0.6311,optionRight,60,5860,3,26,0,26,0,1,,,,,,,,,,,,,,,,,,,,,,,,,,,,,,,,,,,,,,,
,,,,,,,,2023-08-16_08h33.57.593,HF_wild_card,2022.2.4,Win32,60.06006006,5e5ed3c0287d5020d299f783,64d2fd46c836a06233681665,64dc7bdbac1e705236e6c160,,,,,,,decisionTrl,resources/DG.BMP,resources/DR.BMP,Door1,0.323333333,-0.016666667,1,0,0,0.965,optionRight,30,5890,3,27,0,27,0,1,,,,,,,,,,,,,,,,,,,,,,,,,,,,,,,,,,,,,,,
,,,,,,,,2023-08-16_08h33.57.593,HF_wild_card,2022.2.4,Win32,60.06006006,5e5ed3c0287d5020d299f783,64d2fd46c836a06233681665,64dc7bdbac1e705236e6c160,,,,,,,decisionTrl,resources/DBN.BMP,resources/DB.BMP,Door4,-0.273333333,-0.042222222,1,0,0,0.6483,optionLeft,60,5950,3,28,0,28,0,1,,,,,,,,,,,,,,,,,,,,,,,,,,,,,,,,,,,,,,,
,,,,,,,,2023-08-16_08h33.57.593,HF_wild_card,2022.2.4,Win32,60.06006006,5e5ed3c0287d5020d299f783,64d2fd46c836a06233681665,64dc7bdbac1e705236e6c160,,,,,,,sngl,resources/DG.BMP,resources/Empty.png,WildCard_Ex,-0.206666667,-0.032222222,1,0,0,0.7149,optionLeft,5,5955,3,29,0,29,0,1,,,,,,,,,,,,,,,,,,,,,,,,,,,,,,,,,,,,,,,
,,,,,,,,2023-08-16_08h33.57.593,HF_wild_card,2022.2.4,Win32,60.06006006,5e5ed3c0287d5020d299f783,64d2fd46c836a06233681665,64dc7bdbac1e705236e6c160,,,,,,,sngl,resources/DY.BMP,resources/Empty.png,Door2,-0.302222222,-0.037777778,1,0,0,0.5984,optionLeft,40,5995,3,30,0,30,0,1,,,,,,,,,,,,,,,,,,,,,,,,,,,,,,,,,,,,,,,
,,,,,,,,2023-08-16_08h33.57.593,HF_wild_card,2022.2.4,Win32,60.06006006,5e5ed3c0287d5020d299f783,64d2fd46c836a06233681665,64dc7bdbac1e705236e6c160,,,,,,,decisionTrl,resources/DR.BMP,resources/DY.BMP,Door2,0.408888889,-0.022222222,1,0,0,0.9479,optionRight,20,6015,3,31,0,31,0,1,,,,,,,,,,,,,,,,,,,,,,,,,,,,,,,,,,,,,,,
,,,,,,,,2023-08-16_08h33.57.593,HF_wild_card,2022.2.4,Win32,60.06006006,5e5ed3c0287d5020d299f783,64d2fd46c836a06233681665,64dc7bdbac1e705236e6c160,,,,,,,decisionTrl,resources/DBN.BMP,resources/DB.BMP,Door4,-0.204444444,-0.027777778,1,0,0,0.6649,optionLeft,60,6075,3,32,0,32,0,1,,,,,,,,,,,,,,,,,,,,,,,,,,,,,,,,,,,,,,,
,,,,,,,,2023-08-16_08h33.57.593,HF_wild_card,2022.2.4,Win32,60.06006006,5e5ed3c0287d5020d299f783,64d2fd46c836a06233681665,64dc7bdbac1e705236e6c160,,,,,,,decisionTrl,resources/DR.BMP,resources/DG.BMP,WildCard_Ex,0.516666667,-0.095555556,1,0,0,0.7649,optionRight,5,6080,3,33,0,33,0,1,,,,,,,,,,,,,,,,,,,,,,,,,,,,,,,,,,,,,,,
,,,,,,,,2023-08-16_08h33.57.593,HF_wild_card,2022.2.4,Win32,60.06006006,5e5ed3c0287d5020d299f783,64d2fd46c836a06233681665,64dc7bdbac1e705236e6c160,,,,,,,sngl,resources/Empty.png,resources/DB.BMP,Door3,0.402222222,-0.023333333,1,0,0,0.8479,optionRight,70,6150,3,34,0,34,0,1,,,,,,,,,,,,,,,,,,,,,,,,,,,,,,,,,,,,,,,
,,,,,,,,2023-08-16_08h33.57.593,HF_wild_card,2022.2.4,Win32,60.06006006,5e5ed3c0287d5020d299f783,64d2fd46c836a06233681665,64dc7bdbac1e705236e6c160,,,,,,,decisionTrl,resources/DB.BMP,resources/DG.BMP,Door3,-0.326666667,-0.024444444,1,0,0,0.6647,optionLeft,70,6220,3,35,0,35,0,1,,,,,,,,,,,,,,,,,,,,,,,,,,,,,,,,,,,,,,,
,,,,,,,,2023-08-16_08h33.57.593,HF_wild_card,2022.2.4,Win32,60.06006006,5e5ed3c0287d5020d299f783,64d2fd46c836a06233681665,64dc7bdbac1e705236e6c160,,,,,,,ctch,resources/DB.BMP,resources/DY.BMP,Door3,-0.252222222,-0.012222222,1,0,0,0.6777,optionLeft,70,6290,3,36,0,36,0,1,,,,,,,,,,,,,,,,,,,,,,,,,,,,,,,,,,,,,,,
,,,,,,,,2023-08-16_08h33.57.593,HF_wild_card,2022.2.4,Win32,60.06006006,5e5ed3c0287d5020d299f783,64d2fd46c836a06233681665,64dc7bdbac1e705236e6c160,,,,,,,sngl,resources/DG.BMP,resources/Empty.png,WildCard_Ex,-0.324444444,0.012222222,1,0,0,0.5817,optionLeft,95,6385,3,37,0,37,0,1,,,,,,,,,,,,,,,,,,,,,,,,,,,,,,,,,,,,,,,
,,,,,,,,2023-08-16_08h33.57.593,HF_wild_card,2022.2.4,Win32,60.06006006,5e5ed3c0287d5020d299f783,64d2fd46c836a06233681665,64dc7bdbac1e705236e6c160,,,,,,,decisionTrl,resources/DBN.BMP,resources/DB.BMP,Door4,-0.182222222,-0.043333333,1,0,0,0.6649,optionLeft,60,6445,3,38,0,38,0,1,,,,,,,,,,,,,,,,,,,,,,,,,,,,,,,,,,,,,,,
,,,,,,,,2023-08-16_08h33.57.593,HF_wild_card,2022.2.4,Win32,60.06006006,5e5ed3c0287d5020d299f783,64d2fd46c836a06233681665,64dc7bdbac1e705236e6c160,,,,,,,decisionTrl,resources/DB.BMP,resources/DBN.BMP,Door4,0.438888889,-0.082222222,1,0,0,0.7477,optionRight,60,6505,3,39,0,39,0,1,,,,,,,,,,,,,,,,,,,,,,,,,,,,,,,,,,,,,,,
,,,,,,,,2023-08-16_08h33.57.593,HF_wild_card,2022.2.4,Win32,60.06006006,5e5ed3c0287d5020d299f783,64d2fd46c836a06233681665,64dc7bdbac1e705236e6c160,,,,,,,ctch,resources/DR.BMP,resources/DBN.BMP,Door4,0.266666667,0.01,1,0,0,0.581,optionRight,60,6565,3,40,0,40,0,1,,,,,,,,,,,,,,,,,,,,,,,,,,,,,,,,,,,,,,,
,,,,,,,,2023-08-16_08h33.57.593,HF_wild_card,2022.2.4,Win32,60.06006006,5e5ed3c0287d5020d299f783,64d2fd46c836a06233681665,64dc7bdbac1e705236e6c160,,,,,,,sngl,resources/DR.BMP,resources/Empty.png,Door1,-0.22,-0.028888889,1,0,0,0.5818,optionLeft,30,6595,3,41,0,41,0,1,,,,,,,,,,,,,,,,,,,,,,,,,,,,,,,,,,,,,,,
,,,,,,,,2023-08-16_08h33.57.593,HF_wild_card,2022.2.4,Win32,60.06006006,5e5ed3c0287d5020d299f783,64d2fd46c836a06233681665,64dc7bdbac1e705236e6c160,,,,,,,ctch,resources/DR.BMP,resources/DBN.BMP,Door4,0.313333333,-0.025555556,1,0,0,0.7311,optionRight,80,6675,3,42,0,42,0,1,,,,,,,,,,,,,,,,,,,,,,,,,,,,,,,,,,,,,,,
,,,,,,,,2023-08-16_08h33.57.593,HF_wild_card,2022.2.4,Win32,60.06006006,5e5ed3c0287d5020d299f783,64d2fd46c836a06233681665,64dc7bdbac1e705236e6c160,,,,,,,decisionTrl,resources/DR.BMP,resources/DY.BMP,Door1,-0.261111111,-0.035555556,1,0,0,0.8811,optionLeft,30,6705,3,43,0,43,0,1,,,,,,,,,,,,,,,,,,,,,,,,,,,,,,,,,,,,,,,
,,,,,,,,2023-08-16_08h33.57.593,HF_wild_card,2022.2.4,Win32,60.06006006,5e5ed3c0287d5020d299f783,64d2fd46c836a06233681665,64dc7bdbac1e705236e6c160,,,,,,,,,,,,,,,,,,,,,,,,,,2,0,2,0,1,,,,,,,,,,,,,,,,,,,,,,,,,,,,,,,,,,
,,,,,,,,2023-08-16_08h33.57.593,HF_wild_card,2022.2.4,Win32,60.06006006,5e5ed3c0287d5020d299f783,64d2fd46c836a06233681665,64dc7bdbac1e705236e6c160,,,,,,,ctch,resources/DBN.BMP,resources/DR.BMP,Door4,-0.222222222,-0.058888889,1,0,0,3.0411,optionLeft,80,6785,4,0,0,0,0,1,,,,,,,,,,,,,,,,,,,,,,,,,,,,,,,,,,,,,,,
,,,,,,,,2023-08-16_08h33.57.593,HF_wild_card,2022.2.4,Win32,60.06006006,5e5ed3c0287d5020d299f783,64d2fd46c836a06233681665,64dc7bdbac1e705236e6c160,,,,,,,decisionTrl,resources/DR.BMP,resources/DY.BMP,Door2,0.338888889,0.054444444,1,0,0,1.3908,optionRight,40,6825,4,1,0,1,0,1,,,,,,,,,,,,,,,,,,,,,,,,,,,,,,,,,,,,,,,
,,,,,,,,2023-08-16_08h33.57.593,HF_wild_card,2022.2.4,Win32,60.06006006,5e5ed3c0287d5020d299f783,64d2fd46c836a06233681665,64dc7bdbac1e705236e6c160,,,,,,,sngl,resources/DP.BMP,resources/Empty.png,WildCard_NonEx,-0.271111111,0.001111111,1,0,0,0.6646,optionLeft,55,6880,4,2,0,2,0,1,,,,,,,,,,,,,,,,,,,,,,,,,,,,,,,,,,,,,,,
,,,,,,,,2023-08-16_08h33.57.593,HF_wild_card,2022.2.4,Win32,60.06006006,5e5ed3c0287d5020d299f783,64d2fd46c836a06233681665,64dc7bdbac1e705236e6c160,,,,,,,ctch,resources/DY.BMP,resources/DB.BMP,Door3,0.278888889,-0.004444444,1,0,0,0.7818,optionRight,70,6950,4,3,0,3,0,1,,,,,,,,,,,,,,,,,,,,,,,,,,,,,,,,,,,,,,,
,,,,,,,,2023-08-16_08h33.57.593,HF_wild_card,2022.2.4,Win32,60.06006006,5e5ed3c0287d5020d299f783,64d2fd46c836a06233681665,64dc7bdbac1e705236e6c160,,,,,,,decisionTrl,resources/DY.BMP,resources/DP.BMP,WildCard_NonEx,0.216666667,0.02,1,0,0,0.697,optionRight,45,6995,4,4,0,4,0,1,,,,,,,,,,,,,,,,,,,,,,,,,,,,,,,,,,,,,,,
,,,,,,,,2023-08-16_08h33.57.593,HF_wild_card,2022.2.4,Win32,60.06006006,5e5ed3c0287d5020d299f783,64d2fd46c836a06233681665,64dc7bdbac1e705236e6c160,,,,,,,ctch,resources/DBN.BMP,resources/DR.BMP,Door4,-0.205555556,-0.021111111,1,0,0,2.2085,optionLeft,60,7055,4,5,0,5,0,1,,,,,,,,,,,,,,,,,,,,,,,,,,,,,,,,,,,,,,,
,,,,,,,,2023-08-16_08h33.57.593,HF_wild_card,2022.2.4,Win32,60.06006006,5e5ed3c0287d5020d299f783,64d2fd46c836a06233681665,64dc7bdbac1e705236e6c160,,,,,,,decisionTrl,resources/DBN.BMP,resources/DB.BMP,Door4,-0.29,-0.011111111,1,0,0,0.8138,optionLeft,60,7115,4,6,0,6,0,1,,,,,,,,,,,,,,,,,,,,,,,,,,,,,,,,,,,,,,,
,,,,,,,,2023-08-16_08h33.57.593,HF_wild_card,2022.2.4,Win32,60.06006006,5e5ed3c0287d5020d299f783,64d2fd46c836a06233681665,64dc7bdbac1e705236e6c160,,,,,,,decisionTrl,resources/DB.BMP,resources/DP.BMP,WildCard_NonEx,0.273333333,-0.031111111,1,0,0,0.9315,optionRight,45,7160,4,7,0,7,0,1,,,,,,,,,,,,,,,,,,,,,,,,,,,,,,,,,,,,,,,
,,,,,,,,2023-08-16_08h33.57.593,HF_wild_card,2022.2.4,Win32,60.06006006,5e5ed3c0287d5020d299f783,64d2fd46c836a06233681665,64dc7bdbac1e705236e6c160,,,,,,,ctch,resources/DY.BMP,resources/DB.BMP,Door2,-0.347777778,-0.026666667,1,0,0,0.698,optionLeft,20,7180,4,8,0,8,0,1,,,,,,,,,,,,,,,,,,,,,,,,,,,,,,,,,,,,,,,
,,,,,,,,2023-08-16_08h33.57.593,HF_wild_card,2022.2.4,Win32,60.06006006,5e5ed3c0287d5020d299f783,64d2fd46c836a06233681665,64dc7bdbac1e705236e6c160,,,,,,,decisionTrl,resources/DBN.BMP,resources/DP.BMP,WildCard_NonEx,0.385555556,-0.007777778,1,0,0,0.7318,optionRight,55,7235,4,9,0,9,0,1,,,,,,,,,,,,,,,,,,,,,,,,,,,,,,,,,,,,,,,
,,,,,,,,2023-08-16_08h33.57.593,HF_wild_card,2022.2.4,Win32,60.06006006,5e5ed3c0287d5020d299f783,64d2fd46c836a06233681665,64dc7bdbac1e705236e6c160,,,,,,,decisionTrl,resources/DB.BMP,resources/DBN.BMP,Door4,0.487777778,-0.032222222,1,0,0,0.6977,optionRight,60,7295,4,10,0,10,0,1,,,,,,,,,,,,,,,,,,,,,,,,,,,,,,,,,,,,,,,
,,,,,,,,2023-08-16_08h33.57.593,HF_wild_card,2022.2.4,Win32,60.06006006,5e5ed3c0287d5020d299f783,64d2fd46c836a06233681665,64dc7bdbac1e705236e6c160,,,,,,,sngl,resources/Empty.png,resources/DB.BMP,Door3,0.218888889,-0.004444444,1,0,0,0.6314,optionRight,70,7365,4,11,0,11,0,1,,,,,,,,,,,,,,,,,,,,,,,,,,,,,,,,,,,,,,,
,,,,,,,,2023-08-16_08h33.57.593,HF_wild_card,2022.2.4,Win32,60.06006006,5e5ed3c0287d5020d299f783,64d2fd46c836a06233681665,64dc7bdbac1e705236e6c160,,,,,,,decisionTrl,resources/DP.BMP,resources/DBN.BMP,Door4,0.387777778,0.016666667,1,0,0,0.6482,optionRight,60,7425,4,12,0,12,0,1,,,,,,,,,,,,,,,,,,,,,,,,,,,,,,,,,,,,,,,
,,,,,,,,2023-08-16_08h33.57.593,HF_wild_card,2022.2.4,Win32,60.06006006,5e5ed3c0287d5020d299f783,64d2fd46c836a06233681665,64dc7bdbac1e705236e6c160,,,,,,,decisionTrl,resources/DBN.BMP,resources/DB.BMP,Door4,-0.317777778,-0.025555556,1,0,0,0.8301,optionLeft,60,7485,4,13,0,13,0,1,,,,,,,,,,,,,,,,,,,,,,,,,,,,,,,,,,,,,,,
,,,,,,,,2023-08-16_08h33.57.593,HF_wild_card,2022.2.4,Win32,60.06006006,5e5ed3c0287d5020d299f783,64d2fd46c836a06233681665,64dc7bdbac1e705236e6c160,,,,,,,sngl,resources/DB.BMP,resources/Empty.png,Door3,-0.222222222,-0.024444444,1,0,0,0.5308,optionLeft,70,7555,4,14,0,14,0,1,,,,,,,,,,,,,,,,,,,,,,,,,,,,,,,,,,,,,,,
,,,,,,,,2023-08-16_08h33.57.593,HF_wild_card,2022.2.4,Win32,60.06006006,5e5ed3c0287d5020d299f783,64d2fd46c836a06233681665,64dc7bdbac1e705236e6c160,,,,,,,decisionTrl,resources/DR.BMP,resources/DP.BMP,WildCard_NonEx,0.576666667,-0.093333333,1,0,0,0.7468,optionRight,55,7610,4,15,0,15,0,1,,,,,,,,,,,,,,,,,,,,,,,,,,,,,,,,,,,,,,,
,,,,,,,,2023-08-16_08h33.57.593,HF_wild_card,2022.2.4,Win32,60.06006006,5e5ed3c0287d5020d299f783,64d2fd46c836a06233681665,64dc7bdbac1e705236e6c160,,,,,,,sngl,resources/Empty.png,resources/DP.BMP,WildCard_NonEx,0.314444444,0.061111111,1,0,0,0.6152,optionRight,45,7655,4,16,0,16,0,1,,,,,,,,,,,,,,,,,,,,,,,,,,,,,,,,,,,,,,,
,,,,,,,,2023-08-16_08h33.57.593,HF_wild_card,2022.2.4,Win32,60.06006006,5e5ed3c0287d5020d299f783,64d2fd46c836a06233681665,64dc7bdbac1e705236e6c160,,,,,,,sngl,resources/DP.BMP,resources/Empty.png,WildCard_NonEx,-0.365555556,-0.037777778,1,0,0,0.5316,optionLeft,45,7700,4,17,0,17,0,1,,,,,,,,,,,,,,,,,,,,,,,,,,,,,,,,,,,,,,,
,,,,,,,,2023-08-16_08h33.57.593,HF_wild_card,2022.2.4,Win32,60.06006006,5e5ed3c0287d5020d299f783,64d2fd46c836a06233681665,64dc7bdbac1e705236e6c160,,,,,,,sngl,resources/DR.BMP,resources/Empty.png,Door1,-0.17,-0.011111111,1,0,0,0.5817,optionLeft,30,7730,4,18,0,18,0,1,,,,,,,,,,,,,,,,,,,,,,,,,,,,,,,,,,,,,,,
,,,,,,,,2023-08-16_08h33.57.593,HF_wild_card,2022.2.4,Win32,60.06006006,5e5ed3c0287d5020d299f783,64d2fd46c836a06233681665,64dc7bdbac1e705236e6c160,,,,,,,decisionTrl,resources/DY.BMP,resources/DR.BMP,Door1,0.206666667,0.01,1,0,0,0.7972,optionRight,30,7760,4,19,0,19,0,1,,,,,,,,,,,,,,,,,,,,,,,,,,,,,,,,,,,,,,,
,,,,,,,,2023-08-16_08h33.57.593,HF_wild_card,2022.2.4,Win32,60.06006006,5e5ed3c0287d5020d299f783,64d2fd46c836a06233681665,64dc7bdbac1e705236e6c160,,,,,,,ctch,resources/DB.BMP,resources/DY.BMP,Door3,-0.44,0.003333333,1,0,0,0.5413,optionLeft,70,7830,4,20,0,20,0,1,,,,,,,,,,,,,,,,,,,,,,,,,,,,,,,,,,,,,,,
,,,,,,,,2023-08-16_08h33.57.593,HF_wild_card,2022.2.4,Win32,60.06006006,5e5ed3c0287d5020d299f783,64d2fd46c836a06233681665,64dc7bdbac1e705236e6c160,,,,,,,decisionTrl,resources/DR.BMP,resources/DY.BMP,Door1,-0.311111111,-0.016666667,1,0,0,0.5648,optionLeft,30,7860,4,21,0,21,0,1,,,,,,,,,,,,,,,,,,,,,,,,,,,,,,,,,,,,,,,
,,,,,,,,2023-08-16_08h33.57.593,HF_wild_card,2022.2.4,Win32,60.06006006,5e5ed3c0287d5020d299f783,64d2fd46c836a06233681665,64dc7bdbac1e705236e6c160,,,,,,,decisionTrl,resources/DBN.BMP,resources/DB.BMP,Door4,-0.364444444,-0.017777778,1,0,0,0.8143,optionLeft,80,7940,4,22,0,22,0,1,,,,,,,,,,,,,,,,,,,,,,,,,,,,,,,,,,,,,,,
,,,,,,,,2023-08-16_08h33.57.593,HF_wild_card,2022.2.4,Win32,60.06006006,5e5ed3c0287d5020d299f783,64d2fd46c836a06233681665,64dc7bdbac1e705236e6c160,,,,,,,decisionTrl,resources/DP.BMP,resources/DR.BMP,WildCard_NonEx,-0.275555556,0.013333333,1,0,0,0.6776,optionLeft,45,7985,4,23,0,23,0,1,,,,,,,,,,,,,,,,,,,,,,,,,,,,,,,,,,,,,,,
,,,,,,,,2023-08-16_08h33.57.593,HF_wild_card,2022.2.4,Win32,60.06006006,5e5ed3c0287d5020d299f783,64d2fd46c836a06233681665,64dc7bdbac1e705236e6c160,,,,,,,decisionTrl,resources/DY.BMP,resources/DR.BMP,Door1,0.394444444,0.006666667,1,0,0,0.6981,optionRight,30,8015,4,24,0,24,0,1,,,,,,,,,,,,,,,,,,,,,,,,,,,,,,,,,,,,,,,
,,,,,,,,2023-08-16_08h33.57.593,HF_wild_card,2022.2.4,Win32,60.06006006,5e5ed3c0287d5020d299f783,64d2fd46c836a06233681665,64dc7bdbac1e705236e6c160,,,,,,,decisionTrl,resources/DP.BMP,resources/DB.BMP,WildCard_NonEx,-0.288888889,-0.04,1,0,0,0.6315,optionLeft,45,8060,4,25,0,25,0,1,,,,,,,,,,,,,,,,,,,,,,,,,,,,,,,,,,,,,,,
,,,,,,,,2023-08-16_08h33.57.593,HF_wild_card,2022.2.4,Win32,60.06006006,5e5ed3c0287d5020d299f783,64d2fd46c836a06233681665,64dc7bdbac1e705236e6c160,,,,,,,decisionTrl,resources/DB.BMP,resources/DBN.BMP,Door4,0.372222222,-0.018888889,1,0,0,0.6316,optionRight,80,8140,4,26,0,26,0,1,,,,,,,,,,,,,,,,,,,,,,,,,,,,,,,,,,,,,,,
,,,,,,,,2023-08-16_08h33.57.593,HF_wild_card,2022.2.4,Win32,60.06006006,5e5ed3c0287d5020d299f783,64d2fd46c836a06233681665,64dc7bdbac1e705236e6c160,,,,,,,decisionTrl,resources/DR.BMP,resources/DY.BMP,Door1,-0.205555556,-0.067777778,1,0,0,1.3983,optionLeft,30,8170,4,27,0,27,0,1,,,,,,,,,,,,,,,,,,,,,,,,,,,,,,,,,,,,,,,
,,,,,,,,2023-08-16_08h33.57.593,HF_wild_card,2022.2.4,Win32,60.06006006,5e5ed3c0287d5020d299f783,64d2fd46c836a06233681665,64dc7bdbac1e705236e6c160,,,,,,,decisionTrl,resources/DB.BMP,resources/DBN.BMP,Door4,0.231111111,-0.006666667,1,0,0,0.715,optionRight,80,8250,4,28,0,28,0,1,,,,,,,,,,,,,,,,,,,,,,,,,,,,,,,,,,,,,,,
,,,,,,,,2023-08-16_08h33.57.593,HF_wild_card,2022.2.4,Win32,60.06006006,5e5ed3c0287d5020d299f783,64d2fd46c836a06233681665,64dc7bdbac1e705236e6c160,,,,,,,sngl,resources/DY.BMP,resources/Empty.png,Door2,-0.254444444,-0.005555556,1,0,0,0.698,optionLeft,20,8270,4,29,0,29,0,1,,,,,,,,,,,,,,,,,,,,,,,,,,,,,,,,,,,,,,,
,,,,,,,,2023-08-16_08h33.57.593,HF_wild_card,2022.2.4,Win32,60.06006006,5e5ed3c0287d5020d299f783,64d2fd46c836a06233681665,64dc7bdbac1e705236e6c160,,,,,,,decisionTrl,resources/DY.BMP,resources/DR.BMP,Door2,-0.165555556,0.056666667,1,0,0,2.4816,optionLeft,40,8310,4,30,0,30,0,1,,,,,,,,,,,,,,,,,,,,,,,,,,,,,,,,,,,,,,,
,,,,,,,,2023-08-16_08h33.57.593,HF_wild_card,2022.2.4,Win32,60.06006006,5e5ed3c0287d5020d299f783,64d2fd46c836a06233681665,64dc7bdbac1e705236e6c160,,,,,,,sngl,resources/Empty.png,resources/DR.BMP,Door1,0.198888889,0.035555556,1,0,0,0.6303,optionRight,30,8340,4,31,0,31,0,1,,,,,,,,,,,,,,,,,,,,,,,,,,,,,,,,,,,,,,,
,,,,,,,,2023-08-16_08h33.57.593,HF_wild_card,2022.2.4,Win32,60.06006006,5e5ed3c0287d5020d299f783,64d2fd46c836a06233681665,64dc7bdbac1e705236e6c160,,,,,,,decisionTrl,resources/DY.BMP,resources/DR.BMP,Door2,-0.324444444,0.064444444,1,0,0,0.5484,optionLeft,40,8380,4,32,0,32,0,1,,,,,,,,,,,,,,,,,,,,,,,,,,,,,,,,,,,,,,,
,,,,,,,,2023-08-16_08h33.57.593,HF_wild_card,2022.2.4,Win32,60.06006006,5e5ed3c0287d5020d299f783,64d2fd46c836a06233681665,64dc7bdbac1e705236e6c160,,,,,,,sngl,resources/Empty.png,resources/DBN.BMP,Door4,0.368888889,0.036666667,1,0,0,0.5972,optionRight,80,8460,4,33,0,33,0,1,,,,,,,,,,,,,,,,,,,,,,,,,,,,,,,,,,,,,,,
,,,,,,,,2023-08-16_08h33.57.593,HF_wild_card,2022.2.4,Win32,60.06006006,5e5ed3c0287d5020d299f783,64d2fd46c836a06233681665,64dc7bdbac1e705236e6c160,,,,,,,sngl,resources/Empty.png,resources/DY.BMP,Door2,0.326666667,0.006666667,1,0,0,0.8315,optionRight,40,8500,4,34,0,34,0,1,,,,,,,,,,,,,,,,,,,,,,,,,,,,,,,,,,,,,,,
,,,,,,,,2023-08-16_08h33.57.593,HF_wild_card,2022.2.4,Win32,60.06006006,5e5ed3c0287d5020d299f783,64d2fd46c836a06233681665,64dc7bdbac1e705236e6c160,,,,,,,decisionTrl,resources/DB.BMP,resources/DBN.BMP,Door4,0.283333333,-0.01,1,0,0,0.8311,optionRight,60,8560,4,35,0,35,0,1,,,,,,,,,,,,,,,,,,,,,,,,,,,,,,,,,,,,,,,
,,,,,,,,2023-08-16_08h33.57.593,HF_wild_card,2022.2.4,Win32,60.06006006,5e5ed3c0287d5020d299f783,64d2fd46c836a06233681665,64dc7bdbac1e705236e6c160,,,,,,,ctch,resources/DR.BMP,resources/DBN.BMP,Door4,0.441111111,0.095555556,1,0,0,1.0747,optionRight,80,8640,4,36,0,36,0,1,,,,,,,,,,,,,,,,,,,,,,,,,,,,,,,,,,,,,,,
,,,,,,,,2023-08-16_08h33.57.593,HF_wild_card,2022.2.4,Win32,60.06006006,5e5ed3c0287d5020d299f783,64d2fd46c836a06233681665,64dc7bdbac1e705236e6c160,,,,,,,decisionTrl,resources/DP.BMP,resources/DY.BMP,WildCard_NonEx,-0.307777778,0.044444444,1,0,0,2.2641,optionLeft,55,8695,4,37,0,37,0,1,,,,,,,,,,,,,,,,,,,,,,,,,,,,,,,,,,,,,,,
,,,,,,,,2023-08-16_08h33.57.593,HF_wild_card,2022.2.4,Win32,60.06006006,5e5ed3c0287d5020d299f783,64d2fd46c836a06233681665,64dc7bdbac1e705236e6c160,,,,,,,decisionTrl,resources/DBN.BMP,resources/DB.BMP,Door4,-0.48,0.011111111,1,0,0,1.3747,optionLeft,60,8755,4,38,0,38,0,1,,,,,,,,,,,,,,,,,,,,,,,,,,,,,,,,,,,,,,,
,,,,,,,,2023-08-16_08h33.57.593,HF_wild_card,2022.2.4,Win32,60.06006006,5e5ed3c0287d5020d299f783,64d2fd46c836a06233681665,64dc7bdbac1e705236e6c160,,,,,,,ctch,resources/DB.BMP,resources/DY.BMP,Door3,-0.333333333,-0.057777778,1,0,0,1.1463,optionLeft,70,8825,4,39,0,39,0,1,,,,,,,,,,,,,,,,,,,,,,,,,,,,,,,,,,,,,,,
,,,,,,,,2023-08-16_08h33.57.593,HF_wild_card,2022.2.4,Win32,60.06006006,5e5ed3c0287d5020d299f783,64d2fd46c836a06233681665,64dc7bdbac1e705236e6c160,,,,,,,sngl,resources/Empty.png,resources/DP.BMP,WildCard_NonEx,0.505555556,0.072222222,1,0,0,0.7919,optionRight,55,8880,4,40,0,40,0,1,,,,,,,,,,,,,,,,,,,,,,,,,,,,,,,,,,,,,,,
,,,,,,,,2023-08-16_08h33.57.593,HF_wild_card,2022.2.4,Win32,60.06006006,5e5ed3c0287d5020d299f783,64d2fd46c836a06233681665,64dc7bdbac1e705236e6c160,,,,,,,ctch,resources/DR.BMP,resources/DBN.BMP,Door4,0.423333333,-0.034444444,1,0,0,0.6807,optionRight,80,8960,4,41,0,41,0,1,,,,,,,,,,,,,,,,,,,,,,,,,,,,,,,,,,,,,,,
,,,,,,,,2023-08-16_08h33.57.593,HF_wild_card,2022.2.4,Win32,60.06006006,5e5ed3c0287d5020d299f783,64d2fd46c836a06233681665,64dc7bdbac1e705236e6c160,,,,,,,decisionTrl,resources/DR.BMP,resources/DY.BMP,Door2,0.366666667,0.001111111,1,0,0,1.1991,optionRight,40,9000,4,42,0,42,0,1,,,,,,,,,,,,,,,,,,,,,,,,,,,,,,,,,,,,,,,
,,,,,,,,2023-08-16_08h33.57.593,HF_wild_card,2022.2.4,Win32,60.06006006,5e5ed3c0287d5020d299f783,64d2fd46c836a06233681665,64dc7bdbac1e705236e6c160,,,,,,,sngl,resources/DBN.BMP,resources/Empty.png,Door4,-0.341111111,0.033333333,1,0,0,0.5817,optionLeft,60,9060,4,43,0,43,0,1,,,,,,,,,,,,,,,,,,,,,,,,,,,,,,,,,,,,,,,
,,,,,,,,2023-08-16_08h33.57.593,HF_wild_card,2022.2.4,Win32,60.06006006,5e5ed3c0287d5020d299f783,64d2fd46c836a06233681665,64dc7bdbac1e705236e6c160,,,,,,,,,,,,,,,,,,,,,,,,,,3,0,3,0,1,,,,,,,,,,,,,,,,,,,,,,,,,,,,,,,,,,
,,,,,,,,2023-08-16_08h33.57.593,HF_wild_card,2022.2.4,Win32,60.06006006,5e5ed3c0287d5020d299f783,64d2fd46c836a06233681665,64dc7bdbac1e705236e6c160,,,,,,,sngl,resources/Empty.png,resources/DP.BMP,WildCard_NonEx,0.296666667,-0.036666667,1,0,0,0.5401,optionRight,55,9115,5,0,0,0,0,1,,,,,,,,,,,,,,,,,,,,,,,,,,,,,,,,,,,,,,,
,,,,,,,,2023-08-16_08h33.57.593,HF_wild_card,2022.2.4,Win32,60.06006006,5e5ed3c0287d5020d299f783,64d2fd46c836a06233681665,64dc7bdbac1e705236e6c160,,,,,,,sngl,resources/DY.BMP,resources/Empty.png,Door2,-0.261111111,-0.012222222,1,0,0,0.6322,optionLeft,40,9155,5,1,0,1,0,1,,,,,,,,,,,,,,,,,,,,,,,,,,,,,,,,,,,,,,,
,,,,,,,,2023-08-16_08h33.57.593,HF_wild_card,2022.2.4,Win32,60.06006006,5e5ed3c0287d5020d299f783,64d2fd46c836a06233681665,64dc7bdbac1e705236e6c160,,,,,,,decisionTrl,resources/DR.BMP,resources/DY.BMP,Door2,0.342222222,0.033333333,1,0,0,0.7983,optionRight,20,9175,5,2,0,2,0,1,,,,,,,,,,,,,,,,,,,,,,,,,,,,,,,,,,,,,,,
,,,,,,,,2023-08-16_08h33.57.593,HF_wild_card,2022.2.4,Win32,60.06006006,5e5ed3c0287d5020d299f783,64d2fd46c836a06233681665,64dc7bdbac1e705236e6c160,,,,,,,decisionTrl,resources/DP.BMP,resources/DB.BMP,WildCard_NonEx,-0.23,0.017777778,1,0,0,0.4974,optionLeft,55,9230,5,3,0,3,0,1,,,,,,,,,,,,,,,,,,,,,,,,,,,,,,,,,,,,,,,
,,,,,,,,2023-08-16_08h33.57.593,HF_wild_card,2022.2.4,Win32,60.06006006,5e5ed3c0287d5020d299f783,64d2fd46c836a06233681665,64dc7bdbac1e705236e6c160,,,,,,,decisionTrl,resources/DR.BMP,resources/DY.BMP,Door1,-0.31,-0.004444444,1,0,0,0.548,optionLeft,30,9260,5,4,0,4,0,1,,,,,,,,,,,,,,,,,,,,,,,,,,,,,,,,,,,,,,,
,,,,,,,,2023-08-16_08h33.57.593,HF_wild_card,2022.2.4,Win32,60.06006006,5e5ed3c0287d5020d299f783,64d2fd46c836a06233681665,64dc7bdbac1e705236e6c160,,,,,,,decisionTrl,resources/DB.BMP,resources/DBN.BMP,Door3,-0.235555556,0.031111111,1,0,0,0.6973,optionLeft,70,9330,5,5,0,5,0,1,,,,,,,,,,,,,,,,,,,,,,,,,,,,,,,,,,,,,,,
,,,,,,,,2023-08-16_08h33.57.593,HF_wild_card,2022.2.4,Win32,60.06006006,5e5ed3c0287d5020d299f783,64d2fd46c836a06233681665,64dc7bdbac1e705236e6c160,,,,,,,sngl,resources/Empty.png,resources/DP.BMP,WildCard_NonEx,0.467777778,0.026666667,1,0,0,0.4982,optionRight,45,9375,5,6,0,6,0,1,,,,,,,,,,,,,,,,,,,,,,,,,,,,,,,,,,,,,,,
,,,,,,,,2023-08-16_08h33.57.593,HF_wild_card,2022.2.4,Win32,60.06006006,5e5ed3c0287d5020d299f783,64d2fd46c836a06233681665,64dc7bdbac1e705236e6c160,,,,,,,decisionTrl,resources/DP.BMP,resources/DR.BMP,WildCard_NonEx,-0.216666667,-0.012222222,1,0,0,0.5278,optionLeft,45,9420,5,7,0,7,0,1,,,,,,,,,,,,,,,,,,,,,,,,,,,,,,,,,,,,,,,
,,,,,,,,2023-08-16_08h33.57.593,HF_wild_card,2022.2.4,Win32,60.06006006,5e5ed3c0287d5020d299f783,64d2fd46c836a06233681665,64dc7bdbac1e705236e6c160,,,,,,,decisionTrl,resources/DY.BMP,resources/DR.BMP,Door2,-0.233333333,0.014444444,1,0,0,0.8146,optionLeft,40,9460,5,8,0,8,0,1,,,,,,,,,,,,,,,,,,,,,,,,,,,,,,,,,,,,,,,
,,,,,,,,2023-08-16_08h33.57.593,HF_wild_card,2022.2.4,Win32,60.06006006,5e5ed3c0287d5020d299f783,64d2fd46c836a06233681665,64dc7bdbac1e705236e6c160,,,,,,,decisionTrl,resources/DP.BMP,resources/DBN.BMP,WildCard_NonEx,-0.237777778,0.006666667,1,0,0,0.6148,optionLeft,55,9515,5,9,0,9,0,1,,,,,,,,,,,,,,,,,,,,,,,,,,,,,,,,,,,,,,,
,,,,,,,,2023-08-16_08h33.57.593,HF_wild_card,2022.2.4,Win32,60.06006006,5e5ed3c0287d5020d299f783,64d2fd46c836a06233681665,64dc7bdbac1e705236e6c160,,,,,,,sngl,resources/Empty.png,resources/DY.BMP,Door2,0.461111111,-0.003333333,1,0,0,0.4986,optionRight,20,9535,5,10,0,10,0,1,,,,,,,,,,,,,,,,,,,,,,,,,,,,,,,,,,,,,,,
,,,,,,,,2023-08-16_08h33.57.593,HF_wild_card,2022.2.4,Win32,60.06006006,5e5ed3c0287d5020d299f783,64d2fd46c836a06233681665,64dc7bdbac1e705236e6c160,,,,,,,sngl,resources/Empty.png,resources/DB.BMP,Door3,0.306666667,0.04,1,0,0,0.5979,optionRight,70,9605,5,11,0,11,0,1,,,,,,,,,,,,,,,,,,,,,,,,,,,,,,,,,,,,,,,
,,,,,,,,2023-08-16_08h33.57.593,HF_wild_card,2022.2.4,Win32,60.06006006,5e5ed3c0287d5020d299f783,64d2fd46c836a06233681665,64dc7bdbac1e705236e6c160,,,,,,,sngl,resources/Empty.png,resources/DR.BMP,Door1,0.256666667,0.016666667,1,0,0,0.4644,optionRight,30,9635,5,12,0,12,0,1,,,,,,,,,,,,,,,,,,,,,,,,,,,,,,,,,,,,,,,
,,,,,,,,2023-08-16_08h33.57.593,HF_wild_card,2022.2.4,Win32,60.06006006,5e5ed3c0287d5020d299f783,64d2fd46c836a06233681665,64dc7bdbac1e705236e6c160,,,,,,,sngl,resources/DBN.BMP,resources/Empty.png,Door4,-0.202222222,0.031111111,1,0,0,1.5278,optionLeft,80,9715,5,13,0,13,0,1,,,,,,,,,,,,,,,,,,,,,,,,,,,,,,,,,,,,,,,
,,,,,,,,2023-08-16_08h33.57.593,HF_wild_card,2022.2.4,Win32,60.06006006,5e5ed3c0287d5020d299f783,64d2fd46c836a06233681665,64dc7bdbac1e705236e6c160,,,,,,,sngl,resources/DR.BMP,resources/Empty.png,Door1,-0.253333333,0.011111111,1,0,0,0.5652,optionLeft,30,9745,5,14,0,14,0,1,,,,,,,,,,,,,,,,,,,,,,,,,,,,,,,,,,,,,,,
,,,,,,,,2023-08-16_08h33.57.593,HF_wild_card,2022.2.4,Win32,60.06006006,5e5ed3c0287d5020d299f783,64d2fd46c836a06233681665,64dc7bdbac1e705236e6c160,,,,,,,decisionTrl,resources/DP.BMP,resources/DY.BMP,WildCard_NonEx,-0.262222222,0.022222222,1,0,0,0.465,optionLeft,55,9800,5,15,0,15,0,1,,,,,,,,,,,,,,,,,,,,,,,,,,,,,,,,,,,,,,,
,,,,,,,,2023-08-16_08h33.57.593,HF_wild_card,2022.2.4,Win32,60.06006006,5e5ed3c0287d5020d299f783,64d2fd46c836a06233681665,64dc7bdbac1e705236e6c160,,,,,,,ctch,resources/DR.BMP,resources/DBN.BMP,Door1,-0.182222222,-0.002222222,1,0,0,0.5816,optionLeft,30,9830,5,16,0,16,0,1,,,,,,,,,,,,,,,,,,,,,,,,,,,,,,,,,,,,,,,
,,,,,,,,2023-08-16_08h33.57.593,HF_wild_card,2022.2.4,Win32,60.06006006,5e5ed3c0287d5020d299f783,64d2fd46c836a06233681665,64dc7bdbac1e705236e6c160,,,,,,,ctch,resources/DY.BMP,resources/DB.BMP,Door3,0.341111111,0.024444444,1,0,0,0.6985,optionRight,70,9900,5,17,0,17,0,1,,,,,,,,,,,,,,,,,,,,,,,,,,,,,,,,,,,,,,,
,,,,,,,,2023-08-16_08h33.57.593,HF_wild_card,2022.2.4,Win32,60.06006006,5e5ed3c0287d5020d299f783,64d2fd46c836a06233681665,64dc7bdbac1e705236e6c160,,,,,,,sngl,resources/DB.BMP,resources/Empty.png,Door3,-0.25,0.003333333,1,0,0,0.6312,optionLeft,70,9970,5,18,0,18,0,1,,,,,,,,,,,,,,,,,,,,,,,,,,,,,,,,,,,,,,,
,,,,,,,,2023-08-16_08h33.57.593,HF_wild_card,2022.2.4,Win32,60.06006006,5e5ed3c0287d5020d299f783,64d2fd46c836a06233681665,64dc7bdbac1e705236e6c160,,,,,,,ctch,resources/DBN.BMP,resources/DR.BMP,Door4,-0.218888889,-0.001111111,1,0,0,0.7794,optionLeft,80,10050,5,19,0,19,0,1,,,,,,,,,,,,,,,,,,,,,,,,,,,,,,,,,,,,,,,
,,,,,,,,2023-08-16_08h33.57.593,HF_wild_card,2022.2.4,Win32,60.06006006,5e5ed3c0287d5020d299f783,64d2fd46c836a06233681665,64dc7bdbac1e705236e6c160,,,,,,,decisionTrl,resources/DR.BMP,resources/DY.BMP,Door1,-0.276666667,-0.018888889,1,0,0,0.5317,optionLeft,30,10080,5,20,0,20,0,1,,,,,,,,,,,,,,,,,,,,,,,,,,,,,,,,,,,,,,,
,,,,,,,,2023-08-16_08h33.57.593,HF_wild_card,2022.2.4,Win32,60.06006006,5e5ed3c0287d5020d299f783,64d2fd46c836a06233681665,64dc7bdbac1e705236e6c160,,,,,,,sngl,resources/DP.BMP,resources/Empty.png,WildCard_NonEx,-0.275555556,0.048888889,1,0,0,0.4974,optionLeft,45,10125,5,21,0,21,0,1,,,,,,,,,,,,,,,,,,,,,,,,,,,,,,,,,,,,,,,
,,,,,,,,2023-08-16_08h33.57.593,HF_wild_card,2022.2.4,Win32,60.06006006,5e5ed3c0287d5020d299f783,64d2fd46c836a06233681665,64dc7bdbac1e705236e6c160,,,,,,,decisionTrl,resources/DBN.BMP,resources/DB.BMP,Door4,-0.322222222,0.044444444,1,0,0,0.5485,optionLeft,60,10185,5,22,0,22,0,1,,,,,,,,,,,,,,,,,,,,,,,,,,,,,,,,,,,,,,,
,,,,,,,,2023-08-16_08h33.57.593,HF_wild_card,2022.2.4,Win32,60.06006006,5e5ed3c0287d5020d299f783,64d2fd46c836a06233681665,64dc7bdbac1e705236e6c160,,,,,,,ctch,resources/DY.BMP,resources/DB.BMP,Door3,0.397777778,-0.002222222,1,0,0,0.765,optionRight,70,10255,5,23,0,23,0,1,,,,,,,,,,,,,,,,,,,,,,,,,,,,,,,,,,,,,,,
,,,,,,,,2023-08-16_08h33.57.593,HF_wild_card,2022.2.4,Win32,60.06006006,5e5ed3c0287d5020d299f783,64d2fd46c836a06233681665,64dc7bdbac1e705236e6c160,,,,,,,decisionTrl,resources/DR.BMP,resources/DY.BMP,Door2,0.406666667,0.013333333,1,0,0,0.5815,optionRight,20,10275,5,24,0,24,0,1,,,,,,,,,,,,,,,,,,,,,,,,,,,,,,,,,,,,,,,
,,,,,,,,2023-08-16_08h33.57.593,HF_wild_card,2022.2.4,Win32,60.06006006,5e5ed3c0287d5020d299f783,64d2fd46c836a06233681665,64dc7bdbac1e705236e6c160,,,,,,,ctch,resources/DB.BMP,resources/DY.BMP,Door3,-0.274444444,-0.008888889,1,0,0,0.5483,optionLeft,70,10345,5,25,0,25,0,1,,,,,,,,,,,,,,,,,,,,,,,,,,,,,,,,,,,,,,,
,,,,,,,,2023-08-16_08h33.57.593,HF_wild_card,2022.2.4,Win32,60.06006006,5e5ed3c0287d5020d299f783,64d2fd46c836a06233681665,64dc7bdbac1e705236e6c160,,,,,,,decisionTrl,resources/DB.BMP,resources/DBN.BMP,Door3,-0.316666667,0.048888889,1,0,0,0.5316,optionLeft,70,10415,5,26,0,26,0,1,,,,,,,,,,,,,,,,,,,,,,,,,,,,,,,,,,,,,,,
,,,,,,,,2023-08-16_08h33.57.593,HF_wild_card,2022.2.4,Win32,60.06006006,5e5ed3c0287d5020d299f783,64d2fd46c836a06233681665,64dc7bdbac1e705236e6c160,,,,,,,decisionTrl,resources/DY.BMP,resources/DP.BMP,WildCard_NonEx,0.553333333,-0.011111111,1,0,0,0.7982,optionRight,55,10470,5,27,0,27,0,1,,,,,,,,,,,,,,,,,,,,,,,,,,,,,,,,,,,,,,,
,,,,,,,,2023-08-16_08h33.57.593,HF_wild_card,2022.2.4,Win32,60.06006006,5e5ed3c0287d5020d299f783,64d2fd46c836a06233681665,64dc7bdbac1e705236e6c160,,,,,,,decisionTrl,resources/DB.BMP,resources/DBN.BMP,Door4,0.303333333,0.023333333,1,0,0,0.6645,optionRight,80,10550,5,28,0,28,0,1,,,,,,,,,,,,,,,,,,,,,,,,,,,,,,,,,,,,,,,
,,,,,,,,2023-08-16_08h33.57.593,HF_wild_card,2022.2.4,Win32,60.06006006,5e5ed3c0287d5020d299f783,64d2fd46c836a06233681665,64dc7bdbac1e705236e6c160,,,,,,,decisionTrl,resources/DY.BMP,resources/DR.BMP,Door1,0.342222222,0.021111111,1,0,0,0.6473,optionRight,30,10580,5,29,0,29,0,1,,,,,,,,,,,,,,,,,,,,,,,,,,,,,,,,,,,,,,,
,,,,,,,,2023-08-16_08h33.57.593,HF_wild_card,2022.2.4,Win32,60.06006006,5e5ed3c0287d5020d299f783,64d2fd46c836a06233681665,64dc7bdbac1e705236e6c160,,,,,,,decisionTrl,resources/DBN.BMP,resources/DB.BMP,Door4,-0.153333333,0.008888889,1,0,0,1.0317,optionLeft,60,10640,5,30,0,30,0,1,,,,,,,,,,,,,,,,,,,,,,,,,,,,,,,,,,,,,,,
,,,,,,,,2023-08-16_08h33.57.593,HF_wild_card,2022.2.4,Win32,60.06006006,5e5ed3c0287d5020d299f783,64d2fd46c836a06233681665,64dc7bdbac1e705236e6c160,,,,,,,decisionTrl,resources/DB.BMP,resources/DBN.BMP,Door4,0.431111111,0.011111111,1,0,0,0.5471,optionRight,80,10720,5,31,0,31,0,1,,,,,,,,,,,,,,,,,,,,,,,,,,,,,,,,,,,,,,,
,,,,,,,,2023-08-16_08h33.57.593,HF_wild_card,2022.2.4,Win32,60.06006006,5e5ed3c0287d5020d299f783,64d2fd46c836a06233681665,64dc7bdbac1e705236e6c160,,,,,,,sngl,resources/Empty.png,resources/DBN.BMP,Door4,0.362222222,0.022222222,1,0,0,0.466,optionRight,60,10780,5,32,0,32,0,1,,,,,,,,,,,,,,,,,,,,,,,,,,,,,,,,,,,,,,,
,,,,,,,,2023-08-16_08h33.57.593,HF_wild_card,2022.2.4,Win32,60.06006006,5e5ed3c0287d5020d299f783,64d2fd46c836a06233681665,64dc7bdbac1e705236e6c160,,,,,,,decisionTrl,resources/DY.BMP,resources/DR.BMP,Door1,0.483333333,0.02,1,0,0,1.3482,optionRight,30,10810,5,33,0,33,0,1,,,,,,,,,,,,,,,,,,,,,,,,,,,,,,,,,,,,,,,
,,,,,,,,2023-08-16_08h33.57.593,HF_wild_card,2022.2.4,Win32,60.06006006,5e5ed3c0287d5020d299f783,64d2fd46c836a06233681665,64dc7bdbac1e705236e6c160,,,,,,,decisionTrl,resources/DY.BMP,resources/DR.BMP,Door2,-0.201111111,0.025555556,1,0,0,0.465,optionLeft,20,10830,5,34,0,34,0,1,,,,,,,,,,,,,,,,,,,,,,,,,,,,,,,,,,,,,,,
,,,,,,,,2023-08-16_08h33.57.593,HF_wild_card,2022.2.4,Win32,60.06006006,5e5ed3c0287d5020d299f783,64d2fd46c836a06233681665,64dc7bdbac1e705236e6c160,,,,,,,decisionTrl,resources/DB.BMP,resources/DP.BMP,WildCard_NonEx,0.287777778,0.02,1,0,0,0.532,optionRight,45,10875,5,35,0,35,0,1,,,,,,,,,,,,,,,,,,,,,,,,,,,,,,,,,,,,,,,
,,,,,,,,2023-08-16_08h33.57.593,HF_wild_card,2022.2.4,Win32,60.06006006,5e5ed3c0287d5020d299f783,64d2fd46c836a06233681665,64dc7bdbac1e705236e6c160,,,,,,,ctch,resources/DR.BMP,resources/DBN.BMP,Door4,0.393333333,0.043333333,1,0,0,0.4817,optionRight,60,10935,5,36,0,36,0,1,,,,,,,,,,,,,,,,,,,,,,,,,,,,,,,,,,,,,,,
,,,,,,,,2023-08-16_08h33.57.593,HF_wild_card,2022.2.4,Win32,60.06006006,5e5ed3c0287d5020d299f783,64d2fd46c836a06233681665,64dc7bdbac1e705236e6c160,,,,,,,ctch,resources/DBN.BMP,resources/DR.BMP,Door1,0.368888889,0.014444444,1,0,0,0.916,optionRight,30,10965,5,37,0,37,0,1,,,,,,,,,,,,,,,,,,,,,,,,,,,,,,,,,,,,,,,
,,,,,,,,2023-08-16_08h33.57.593,HF_wild_card,2022.2.4,Win32,60.06006006,5e5ed3c0287d5020d299f783,64d2fd46c836a06233681665,64dc7bdbac1e705236e6c160,,,,,,,decisionTrl,resources/DBN.BMP,resources/DP.BMP,Door4,-0.235555556,0.004444444,1,0,0,0.515,optionLeft,60,11025,5,38,0,38,0,1,,,,,,,,,,,,,,,,,,,,,,,,,,,,,,,,,,,,,,,
,,,,,,,,2023-08-16_08h33.57.593,HF_wild_card,2022.2.4,Win32,60.06006006,5e5ed3c0287d5020d299f783,64d2fd46c836a06233681665,64dc7bdbac1e705236e6c160,,,,,,,decisionTrl,resources/DBN.BMP,resources/DB.BMP,Door4,-0.383333333,0.097777778,1,0,0,0.5155,optionLeft,80,11105,5,39,0,39,0,1,,,,,,,,,,,,,,,,,,,,,,,,,,,,,,,,,,,,,,,
,,,,,,,,2023-08-16_08h33.57.593,HF_wild_card,2022.2.4,Win32,60.06006006,5e5ed3c0287d5020d299f783,64d2fd46c836a06233681665,64dc7bdbac1e705236e6c160,,,,,,,ctch,resources/DB.BMP,resources/DY.BMP,Door2,0.431111111,0.012222222,1,0,0,0.7144,optionRight,40,11145,5,40,0,40,0,1,,,,,,,,,,,,,,,,,,,,,,,,,,,,,,,,,,,,,,,
,,,,,,,,2023-08-16_08h33.57.593,HF_wild_card,2022.2.4,Win32,60.06006006,5e5ed3c0287d5020d299f783,64d2fd46c836a06233681665,64dc7bdbac1e705236e6c160,,,,,,,decisionTrl,resources/DBN.BMP,resources/DB.BMP,Door4,-0.177777778,0.024444444,1,0,0,0.4658,optionLeft,60,11205,5,41,0,41,0,1,,,,,,,,,,,,,,,,,,,,,,,,,,,,,,,,,,,,,,,
,,,,,,,,2023-08-16_08h33.57.593,HF_wild_card,2022.2.4,Win32,60.06006006,5e5ed3c0287d5020d299f783,64d2fd46c836a06233681665,64dc7bdbac1e705236e6c160,,,,,,,decisionTrl,resources/DR.BMP,resources/DP.BMP,Door1,-0.212222222,0.051111111,1,0,0,0.7148,optionLeft,30,11235,5,42,0,42,0,1,,,,,,,,,,,,,,,,,,,,,,,,,,,,,,,,,,,,,,,
,,,,,,,,2023-08-16_08h33.57.593,HF_wild_card,2022.2.4,Win32,60.06006006,5e5ed3c0287d5020d299f783,64d2fd46c836a06233681665,64dc7bdbac1e705236e6c160,,,,,,,sngl,resources/DP.BMP,resources/Empty.png,WildCard_NonEx,-0.306666667,0.053333333,1,0,0,0.564,optionLeft,55,11290,5,43,0,43,0,1,,,,,,,,,,,,,,,,,,,,,,,,,,,,,,,,,,,,,,,
,,,,,,,,2023-08-16_08h33.57.593,HF_wild_card,2022.2.4,Win32,60.06006006,5e5ed3c0287d5020d299f783,64d2fd46c836a06233681665,64dc7bdbac1e705236e6c160,,,,,,,,,,,,,,,,,,,,,,,,,,4,0,4,0,1,,,,,,,,,,,,,,,,,,,,,,,,,,,,,,,,,,
,,,,,,,,2023-08-16_08h33.57.593,HF_wild_card,2022.2.4,Win32,60.06006006,5e5ed3c0287d5020d299f783,64d2fd46c836a06233681665,64dc7bdbac1e705236e6c160,,,,,,,sngl,resources/Empty.png,resources/DP.BMP,WildCard_NonEx,0.377777778,-0.025555556,1,0,0,0.6744,optionRight,45,11335,6,0,0,0,0,1,,,,,,,,,,,,,,,,,,,,,,,,,,,,,,,,,,,,,,,
,,,,,,,,2023-08-16_08h33.57.593,HF_wild_card,2022.2.4,Win32,60.06006006,5e5ed3c0287d5020d299f783,64d2fd46c836a06233681665,64dc7bdbac1e705236e6c160,,,,,,,decisionTrl,resources/DR.BMP,resources/DY.BMP,Door2,0.333333333,0.014444444,1,0,0,0.7484,optionRight,40,11375,6,1,0,1,0,1,,,,,,,,,,,,,,,,,,,,,,,,,,,,,,,,,,,,,,,
,,,,,,,,2023-08-16_08h33.57.593,HF_wild_card,2022.2.4,Win32,60.06006006,5e5ed3c0287d5020d299f783,64d2fd46c836a06233681665,64dc7bdbac1e705236e6c160,,,,,,,ctch,resources/DB.BMP,resources/DY.BMP,Door3,-0.381111111,-0.065555556,1,0,0,1.4983,optionLeft,70,11445,6,2,0,2,0,1,,,,,,,,,,,,,,,,,,,,,,,,,,,,,,,,,,,,,,,
,,,,,,,,2023-08-16_08h33.57.593,HF_wild_card,2022.2.4,Win32,60.06006006,5e5ed3c0287d5020d299f783,64d2fd46c836a06233681665,64dc7bdbac1e705236e6c160,,,,,,,ctch,resources/DY.BMP,resources/DB.BMP,Door2,-0.245555556,0.008888889,1,0,0,0.6149,optionLeft,20,11465,6,3,0,3,0,1,,,,,,,,,,,,,,,,,,,,,,,,,,,,,,,,,,,,,,,
,,,,,,,,2023-08-16_08h33.57.593,HF_wild_card,2022.2.4,Win32,60.06006006,5e5ed3c0287d5020d299f783,64d2fd46c836a06233681665,64dc7bdbac1e705236e6c160,,,,,,,decisionTrl,resources/DY.BMP,resources/DR.BMP,Door1,0.281111111,0.011111111,1,0,0,0.4818,optionRight,30,11495,6,4,0,4,0,1,,,,,,,,,,,,,,,,,,,,,,,,,,,,,,,,,,,,,,,
,,,,,,,,2023-08-16_08h33.57.593,HF_wild_card,2022.2.4,Win32,60.06006006,5e5ed3c0287d5020d299f783,64d2fd46c836a06233681665,64dc7bdbac1e705236e6c160,,,,,,,ctch,resources/DBN.BMP,resources/DR.BMP,Door4,-0.202222222,-0.036666667,1,0,0,1.5769,optionLeft,60,11555,6,5,0,5,0,1,,,,,,,,,,,,,,,,,,,,,,,,,,,,,,,,,,,,,,,
,,,,,,,,2023-08-16_08h33.57.593,HF_wild_card,2022.2.4,Win32,60.06006006,5e5ed3c0287d5020d299f783,64d2fd46c836a06233681665,64dc7bdbac1e705236e6c160,,,,,,,decisionTrl,resources/DB.BMP,resources/DBN.BMP,Door4,0.397777778,0.125555556,1,0,0,0.7582,optionRight,80,11635,6,6,0,6,0,1,,,,,,,,,,,,,,,,,,,,,,,,,,,,,,,,,,,,,,,
,,,,,,,,2023-08-16_08h33.57.593,HF_wild_card,2022.2.4,Win32,60.06006006,5e5ed3c0287d5020d299f783,64d2fd46c836a06233681665,64dc7bdbac1e705236e6c160,,,,,,,ctch,resources/DY.BMP,resources/DB.BMP,Door2,-0.233333333,0.011111111,1,0,0,0.615,optionLeft,40,11675,6,7,0,7,0,1,,,,,,,,,,,,,,,,,,,,,,,,,,,,,,,,,,,,,,,
,,,,,,,,2023-08-16_08h33.57.593,HF_wild_card,2022.2.4,Win32,60.06006006,5e5ed3c0287d5020d299f783,64d2fd46c836a06233681665,64dc7bdbac1e705236e6c160,,,,,,,decisionTrl,resources/DY.BMP,resources/DR.BMP,Door1,0.37,0.011111111,1,0,0,0.8649,optionRight,30,11705,6,8,0,8,0,1,,,,,,,,,,,,,,,,,,,,,,,,,,,,,,,,,,,,,,,
,,,,,,,,2023-08-16_08h33.57.593,HF_wild_card,2022.2.4,Win32,60.06006006,5e5ed3c0287d5020d299f783,64d2fd46c836a06233681665,64dc7bdbac1e705236e6c160,,,,,,,decisionTrl,resources/DP.BMP,resources/DBN.BMP,WildCard_NonEx,-0.248888889,-0.003333333,1,0,0,0.4989,optionLeft,45,11750,6,9,0,9,0,1,,,,,,,,,,,,,,,,,,,,,,,,,,,,,,,,,,,,,,,
,,,,,,,,2023-08-16_08h33.57.593,HF_wild_card,2022.2.4,Win32,60.06006006,5e5ed3c0287d5020d299f783,64d2fd46c836a06233681665,64dc7bdbac1e705236e6c160,,,,,,,decisionTrl,resources/DY.BMP,resources/DP.BMP,WildCard_NonEx,0.37,0.001111111,1,0,0,0.3974,optionRight,55,11805,6,10,0,10,0,1,,,,,,,,,,,,,,,,,,,,,,,,,,,,,,,,,,,,,,,
,,,,,,,,2023-08-16_08h33.57.593,HF_wild_card,2022.2.4,Win32,60.06006006,5e5ed3c0287d5020d299f783,64d2fd46c836a06233681665,64dc7bdbac1e705236e6c160,,,,,,,decisionTrl,resources/DR.BMP,resources/DY.BMP,Door2,0.51,-0.027777778,1,0,0,0.8316,optionRight,40,11845,6,11,0,11,0,1,,,,,,,,,,,,,,,,,,,,,,,,,,,,,,,,,,,,,,,
,,,,,,,,2023-08-16_08h33.57.593,HF_wild_card,2022.2.4,Win32,60.06006006,5e5ed3c0287d5020d299f783,64d2fd46c836a06233681665,64dc7bdbac1e705236e6c160,,,,,,,sngl,resources/DR.BMP,resources/Empty.png,Door1,-0.186666667,0.017777778,1,0,0,0.5318,optionLeft,30,11875,6,12,0,12,0,1,,,,,,,,,,,,,,,,,,,,,,,,,,,,,,,,,,,,,,,
,,,,,,,,2023-08-16_08h33.57.593,HF_wild_card,2022.2.4,Win32,60.06006006,5e5ed3c0287d5020d299f783,64d2fd46c836a06233681665,64dc7bdbac1e705236e6c160,,,,,,,decisionTrl,resources/DBN.BMP,resources/DB.BMP,Door4,-0.222222222,0.032222222,1,0,0,0.5472,optionLeft,60,11935,6,13,0,13,0,1,,,,,,,,,,,,,,,,,,,,,,,,,,,,,,,,,,,,,,,
,,,,,,,,2023-08-16_08h33.57.593,HF_wild_card,2022.2.4,Win32,60.06006006,5e5ed3c0287d5020d299f783,64d2fd46c836a06233681665,64dc7bdbac1e705236e6c160,,,,,,,decisionTrl,resources/DR.BMP,resources/DP.BMP,WildCard_NonEx,0.363333333,-0.01,1,0,0,0.6649,optionRight,45,11980,6,14,0,14,0,1,,,,,,,,,,,,,,,,,,,,,,,,,,,,,,,,,,,,,,,
,,,,,,,,2023-08-16_08h33.57.593,HF_wild_card,2022.2.4,Win32,60.06006006,5e5ed3c0287d5020d299f783,64d2fd46c836a06233681665,64dc7bdbac1e705236e6c160,,,,,,,sngl,resources/Empty.png,resources/DY.BMP,Door2,0.29,0.124444444,1,0,0,1.3303,optionRight,40,12020,6,15,0,15,0,1,,,,,,,,,,,,,,,,,,,,,,,,,,,,,,,,,,,,,,,
,,,,,,,,2023-08-16_08h33.57.593,HF_wild_card,2022.2.4,Win32,60.06006006,5e5ed3c0287d5020d299f783,64d2fd46c836a06233681665,64dc7bdbac1e705236e6c160,,,,,,,sngl,resources/Empty.png,resources/DP.BMP,WildCard_NonEx,0.142222222,0.085555556,1,0,0,0.5649,optionRight,55,12075,6,16,0,16,0,1,,,,,,,,,,,,,,,,,,,,,,,,,,,,,,,,,,,,,,,
,,,,,,,,2023-08-16_08h33.57.593,HF_wild_card,2022.2.4,Win32,60.06006006,5e5ed3c0287d5020d299f783,64d2fd46c836a06233681665,64dc7bdbac1e705236e6c160,,,,,,,decisionTrl,resources/DB.BMP,resources/DP.BMP,WildCard_NonEx,0.375555556,-0.023333333,1,0,0,0.6483,optionRight,55,12130,6,17,0,17,0,1,,,,,,,,,,,,,,,,,,,,,,,,,,,,,,,,,,,,,,,
,,,,,,,,2023-08-16_08h33.57.593,HF_wild_card,2022.2.4,Win32,60.06006006,5e5ed3c0287d5020d299f783,64d2fd46c836a06233681665,64dc7bdbac1e705236e6c160,,,,,,,decisionTrl,resources/DB.BMP,resources/DBN.BMP,Door4,0.247777778,-0.024444444,1,0,0,0.6256,optionRight,60,12190,6,18,0,18,0,1,,,,,,,,,,,,,,,,,,,,,,,,,,,,,,,,,,,,,,,
,,,,,,,,2023-08-16_08h33.57.593,HF_wild_card,2022.2.4,Win32,60.06006006,5e5ed3c0287d5020d299f783,64d2fd46c836a06233681665,64dc7bdbac1e705236e6c160,,,,,,,decisionTrl,resources/DY.BMP,resources/DR.BMP,Door1,0.226666667,0.01,1,0,0,0.6467,optionRight,30,12220,6,19,0,19,0,1,,,,,,,,,,,,,,,,,,,,,,,,,,,,,,,,,,,,,,,
,,,,,,,,2023-08-16_08h33.57.593,HF_wild_card,2022.2.4,Win32,60.06006006,5e5ed3c0287d5020d299f783,64d2fd46c836a06233681665,64dc7bdbac1e705236e6c160,,,,,,,decisionTrl,resources/DP.BMP,resources/DY.BMP,WildCard_NonEx,-0.213333333,-0.026666667,1,0,0,0.8478,optionLeft,45,12265,6,20,0,20,0,1,,,,,,,,,,,,,,,,,,,,,,,,,,,,,,,,,,,,,,,
,,,,,,,,2023-08-16_08h33.57.593,HF_wild_card,2022.2.4,Win32,60.06006006,5e5ed3c0287d5020d299f783,64d2fd46c836a06233681665,64dc7bdbac1e705236e6c160,,,,,,,sngl,resources/Empty.png,resources/DR.BMP,Door1,0.261111111,-0.015555556,1,0,0,0.5312,optionRight,30,12295,6,21,0,21,0,1,,,,,,,,,,,,,,,,,,,,,,,,,,,,,,,,,,,,,,,
,,,,,,,,2023-08-16_08h33.57.593,HF_wild_card,2022.2.4,Win32,60.06006006,5e5ed3c0287d5020d299f783,64d2fd46c836a06233681665,64dc7bdbac1e705236e6c160,,,,,,,decisionTrl,resources/DY.BMP,resources/DR.BMP,Door2,-0.303333333,0.033333333,1,0,0,0.5151,optionLeft,20,12315,6,22,0,22,0,1,,,,,,,,,,,,,,,,,,,,,,,,,,,,,,,,,,,,,,,
,,,,,,,,2023-08-16_08h33.57.593,HF_wild_card,2022.2.4,Win32,60.06006006,5e5ed3c0287d5020d299f783,64d2fd46c836a06233681665,64dc7bdbac1e705236e6c160,,,,,,,decisionTrl,resources/DBN.BMP,resources/DP.BMP,WildCard_NonEx,0.311111111,0.002222222,1,0,0,0.5136,optionRight,45,12360,6,23,0,23,0,1,,,,,,,,,,,,,,,,,,,,,,,,,,,,,,,,,,,,,,,
,,,,,,,,2023-08-16_08h33.57.593,HF_wild_card,2022.2.4,Win32,60.06006006,5e5ed3c0287d5020d299f783,64d2fd46c836a06233681665,64dc7bdbac1e705236e6c160,,,,,,,decisionTrl,resources/DP.BMP,resources/DB.BMP,WildCard_NonEx,-0.275555556,0.03,1,0,0,0.5318,optionLeft,45,12405,6,24,0,24,0,1,,,,,,,,,,,,,,,,,,,,,,,,,,,,,,,,,,,,,,,
,,,,,,,,2023-08-16_08h33.57.593,HF_wild_card,2022.2.4,Win32,60.06006006,5e5ed3c0287d5020d299f783,64d2fd46c836a06233681665,64dc7bdbac1e705236e6c160,,,,,,,sngl,resources/Empty.png,resources/DB.BMP,Door3,0.346666667,-0.024444444,1,0,0,0.5151,optionRight,70,12475,6,25,0,25,0,1,,,,,,,,,,,,,,,,,,,,,,,,,,,,,,,,,,,,,,,
,,,,,,,,2023-08-16_08h33.57.593,HF_wild_card,2022.2.4,Win32,60.06006006,5e5ed3c0287d5020d299f783,64d2fd46c836a06233681665,64dc7bdbac1e705236e6c160,,,,,,,ctch,resources/DR.BMP,resources/DBN.BMP,Door4,0.203333333,-0.003333333,1,0,0,0.665,optionRight,60,12535,6,26,0,26,0,1,,,,,,,,,,,,,,,,,,,,,,,,,,,,,,,,,,,,,,,
,,,,,,,,2023-08-16_08h33.57.593,HF_wild_card,2022.2.4,Win32,60.06006006,5e5ed3c0287d5020d299f783,64d2fd46c836a06233681665,64dc7bdbac1e705236e6c160,,,,,,,decisionTrl,resources/DB.BMP,resources/DBN.BMP,Door4,0.204444444,-0.006666667,1,0,0,0.6816,optionRight,60,12595,6,27,0,27,0,1,,,,,,,,,,,,,,,,,,,,,,,,,,,,,,,,,,,,,,,
,,,,,,,,2023-08-16_08h33.57.593,HF_wild_card,2022.2.4,Win32,60.06006006,5e5ed3c0287d5020d299f783,64d2fd46c836a06233681665,64dc7bdbac1e705236e6c160,,,,,,,ctch,resources/DR.BMP,resources/DBN.BMP,Door4,0.343333333,0.023333333,1,0,0,0.6477,optionRight,80,12675,6,28,0,28,0,1,,,,,,,,,,,,,,,,,,,,,,,,,,,,,,,,,,,,,,,
,,,,,,,,2023-08-16_08h33.57.593,HF_wild_card,2022.2.4,Win32,60.06006006,5e5ed3c0287d5020d299f783,64d2fd46c836a06233681665,64dc7bdbac1e705236e6c160,,,,,,,decisionTrl,resources/DBN.BMP,resources/DB.BMP,Door3,0.3,-0.034444444,1,0,0,0.7804,optionRight,70,12745,6,29,0,29,0,1,,,,,,,,,,,,,,,,,,,,,,,,,,,,,,,,,,,,,,,
,,,,,,,,2023-08-16_08h33.57.593,HF_wild_card,2022.2.4,Win32,60.06006006,5e5ed3c0287d5020d299f783,64d2fd46c836a06233681665,64dc7bdbac1e705236e6c160,,,,,,,decisionTrl,resources/DB.BMP,resources/DBN.BMP,Door4,0.318888889,-0.047777778,1,0,0,0.4321,optionRight,80,12825,6,30,0,30,0,1,,,,,,,,,,,,,,,,,,,,,,,,,,,,,,,,,,,,,,,
,,,,,,,,2023-08-16_08h33.57.593,HF_wild_card,2022.2.4,Win32,60.06006006,5e5ed3c0287d5020d299f783,64d2fd46c836a06233681665,64dc7bdbac1e705236e6c160,,,,,,,decisionTrl,resources/DP.BMP,resources/DR.BMP,Door1,0.384444444,-0.041111111,1,0,0,0.4982,optionRight,30,12855,6,31,0,31,0,1,,,,,,,,,,,,,,,,,,,,,,,,,,,,,,,,,,,,,,,
,,,,,,,,2023-08-16_08h33.57.593,HF_wild_card,2022.2.4,Win32,60.06006006,5e5ed3c0287d5020d299f783,64d2fd46c836a06233681665,64dc7bdbac1e705236e6c160,,,,,,,ctch,resources/DBN.BMP,resources/DR.BMP,Door4,-0.191111111,-0.005555556,1,0,0,0.6651,optionLeft,80,12935,6,32,0,32,0,1,,,,,,,,,,,,,,,,,,,,,,,,,,,,,,,,,,,,,,,
,,,,,,,,2023-08-16_08h33.57.593,HF_wild_card,2022.2.4,Win32,60.06006006,5e5ed3c0287d5020d299f783,64d2fd46c836a06233681665,64dc7bdbac1e705236e6c160,,,,,,,decisionTrl,resources/DR.BMP,resources/DY.BMP,Door1,-0.197777778,0.012222222,1,0,0,1.1638,optionLeft,30,12965,6,33,0,33,0,1,,,,,,,,,,,,,,,,,,,,,,,,,,,,,,,,,,,,,,,
,,,,,,,,2023-08-16_08h33.57.593,HF_wild_card,2022.2.4,Win32,60.06006006,5e5ed3c0287d5020d299f783,64d2fd46c836a06233681665,64dc7bdbac1e705236e6c160,,,,,,,decisionTrl,resources/DR.BMP,resources/DY.BMP,Door2,0.32,-0.002222222,1,0,0,0.3979,optionRight,20,12985,6,34,0,34,0,1,,,,,,,,,,,,,,,,,,,,,,,,,,,,,,,,,,,,,,,
,,,,,,,,2023-08-16_08h33.57.593,HF_wild_card,2022.2.4,Win32,60.06006006,5e5ed3c0287d5020d299f783,64d2fd46c836a06233681665,64dc7bdbac1e705236e6c160,,,,,,,decisionTrl,resources/DBN.BMP,resources/DB.BMP,Door4,-0.212222222,0.017777778,1,0,0,0.465,optionLeft,80,13065,6,35,0,35,0,1,,,,,,,,,,,,,,,,,,,,,,,,,,,,,,,,,,,,,,,
,,,,,,,,2023-08-16_08h33.57.593,HF_wild_card,2022.2.4,Win32,60.06006006,5e5ed3c0287d5020d299f783,64d2fd46c836a06233681665,64dc7bdbac1e705236e6c160,,,,,,,sngl,resources/DY.BMP,resources/Empty.png,Door2,-0.393333333,0.075555556,1,0,0,0.4814,optionLeft,20,13085,6,36,0,36,0,1,,,,,,,,,,,,,,,,,,,,,,,,,,,,,,,,,,,,,,,
,,,,,,,,2023-08-16_08h33.57.593,HF_wild_card,2022.2.4,Win32,60.06006006,5e5ed3c0287d5020d299f783,64d2fd46c836a06233681665,64dc7bdbac1e705236e6c160,,,,,,,sngl,resources/DP.BMP,resources/Empty.png,WildCard_NonEx,-0.264444444,0.041111111,1,0,0,0.4485,optionLeft,55,13140,6,37,0,37,0,1,,,,,,,,,,,,,,,,,,,,,,,,,,,,,,,,,,,,,,,
,,,,,,,,2023-08-16_08h33.57.593,HF_wild_card,2022.2.4,Win32,60.06006006,5e5ed3c0287d5020d299f783,64d2fd46c836a06233681665,64dc7bdbac1e705236e6c160,,,,,,,sngl,resources/Empty.png,resources/DBN.BMP,Door4,0.461111111,-0.007777778,1,0,0,0.4648,optionRight,80,13220,6,38,0,38,0,1,,,,,,,,,,,,,,,,,,,,,,,,,,,,,,,,,,,,,,,
,,,,,,,,2023-08-16_08h33.57.593,HF_wild_card,2022.2.4,Win32,60.06006006,5e5ed3c0287d5020d299f783,64d2fd46c836a06233681665,64dc7bdbac1e705236e6c160,,,,,,,sngl,resources/DP.BMP,resources/Empty.png,WildCard_NonEx,-0.294444444,0.024444444,1,0,0,0.4805,optionLeft,45,13265,6,39,0,39,0,1,,,,,,,,,,,,,,,,,,,,,,,,,,,,,,,,,,,,,,,
,,,,,,,,2023-08-16_08h33.57.593,HF_wild_card,2022.2.4,Win32,60.06006006,5e5ed3c0287d5020d299f783,64d2fd46c836a06233681665,64dc7bdbac1e705236e6c160,,,,,,,ctch,resources/DB.BMP,resources/DY.BMP,Door3,-0.322222222,0.066666667,1,0,0,0.5808,optionLeft,70,13335,6,40,0,40,0,1,,,,,,,,,,,,,,,,,,,,,,,,,,,,,,,,,,,,,,,
,,,,,,,,2023-08-16_08h33.57.593,HF_wild_card,2022.2.4,Win32,60.06006006,5e5ed3c0287d5020d299f783,64d2fd46c836a06233681665,64dc7bdbac1e705236e6c160,,,,,,,sngl,resources/DB.BMP,resources/Empty.png,Door3,-0.228888889,0.033333333,1,0,0,0.4484,optionLeft,70,13405,6,41,0,41,0,1,,,,,,,,,,,,,,,,,,,,,,,,,,,,,,,,,,,,,,,
,,,,,,,,2023-08-16_08h33.57.593,HF_wild_card,2022.2.4,Win32,60.06006006,5e5ed3c0287d5020d299f783,64d2fd46c836a06233681665,64dc7bdbac1e705236e6c160,,,,,,,sngl,resources/DBN.BMP,resources/Empty.png,Door4,-0.261111111,-0.002222222,1,0,0,0.4986,optionLeft,60,13465,6,42,0,42,0,1,,,,,,,,,,,,,,,,,,,,,,,,,,,,,,,,,,,,,,,
,,,,,,,,2023-08-16_08h33.57.593,HF_wild_card,2022.2.4,Win32,60.06006006,5e5ed3c0287d5020d299f783,64d2fd46c836a06233681665,64dc7bdbac1e705236e6c160,,,,,,,decisionTrl,resources/DBN.BMP,resources/DB.BMP,Door4,-0.185555556,0.028888889,1,0,0,0.5644,optionLeft,60,13525,6,43,0,43,0,1,,,,,,,,,,,,,,,,,,,,,,,,,,,,,,,,,,,,,,,
,,,,,,,,2023-08-16_08h33.57.593,HF_wild_card,2022.2.4,Win32,60.06006006,5e5ed3c0287d5020d299f783,64d2fd46c836a06233681665,64dc7bdbac1e705236e6c160,,,,,,,,,,,,,,,,,,,,,,,,,,5,0,5,0,1,,,,,,,,,,,,,,,,,,,,,,,,,,,,,,,,,,
,,,,,,,,2023-08-16_08h33.57.593,HF_wild_card,2022.2.4,Win32,60.06006006,5e5ed3c0287d5020d299f783,64d2fd46c836a06233681665,64dc7bdbac1e705236e6c160,,,,,,,decisionTrl,resources/DR.BMP,resources/DY.BMP,Door1,-0.441111111,-0.022222222,1,0,0,0.804,optionLeft,30,13555,7,0,0,0,0,1,,,,,,,,,,,,,,,,,,,,,,,,,,,,,,,,,,,,,,,
,,,,,,,,2023-08-16_08h33.57.593,HF_wild_card,2022.2.4,Win32,60.06006006,5e5ed3c0287d5020d299f783,64d2fd46c836a06233681665,64dc7bdbac1e705236e6c160,,,,,,,decisionTrl,resources/DY.BMP,resources/DR.BMP,Door1,0.371111111,-0.028888889,1,0,0,0.9162,optionRight,30,13585,7,1,0,1,0,1,,,,,,,,,,,,,,,,,,,,,,,,,,,,,,,,,,,,,,,
,,,,,,,,2023-08-16_08h33.57.593,HF_wild_card,2022.2.4,Win32,60.06006006,5e5ed3c0287d5020d299f783,64d2fd46c836a06233681665,64dc7bdbac1e705236e6c160,,,,,,,decisionTrl,resources/DB.BMP,resources/DBN.BMP,Door4,0.501111111,-0.028888889,1,0,0,0.6826,optionRight,60,13645,7,2,0,2,0,1,,,,,,,,,,,,,,,,,,,,,,,,,,,,,,,,,,,,,,,
,,,,,,,,2023-08-16_08h33.57.593,HF_wild_card,2022.2.4,Win32,60.06006006,5e5ed3c0287d5020d299f783,64d2fd46c836a06233681665,64dc7bdbac1e705236e6c160,,,,,,,decisionTrl,resources/DR.BMP,resources/DY.BMP,Door1,-0.427777778,-0.044444444,1,0,0,0.4827,optionLeft,30,13675,7,3,0,3,0,1,,,,,,,,,,,,,,,,,,,,,,,,,,,,,,,,,,,,,,,
,,,,,,,,2023-08-16_08h33.57.593,HF_wild_card,2022.2.4,Win32,60.06006006,5e5ed3c0287d5020d299f783,64d2fd46c836a06233681665,64dc7bdbac1e705236e6c160,,,,,,,ctch,resources/DBN.BMP,resources/DR.BMP,Door1,0.407777778,-0.007777778,1,0,0,0.3991,optionRight,30,13705,7,4,0,4,0,1,,,,,,,,,,,,,,,,,,,,,,,,,,,,,,,,,,,,,,,
,,,,,,,,2023-08-16_08h33.57.593,HF_wild_card,2022.2.4,Win32,60.06006006,5e5ed3c0287d5020d299f783,64d2fd46c836a06233681665,64dc7bdbac1e705236e6c160,,,,,,,decisionTrl,resources/DB.BMP,resources/DBN.BMP,Door3,-0.228888889,0.014444444,1,0,0,0.6158,optionLeft,70,13775,7,5,0,5,0,1,,,,,,,,,,,,,,,,,,,,,,,,,,,,,,,,,,,,,,,
,,,,,,,,2023-08-16_08h33.57.593,HF_wild_card,2022.2.4,Win32,60.06006006,5e5ed3c0287d5020d299f783,64d2fd46c836a06233681665,64dc7bdbac1e705236e6c160,,,,,,,ctch,resources/DB.BMP,resources/DY.BMP,Door2,0.213333333,0.006666667,1,0,0,0.4325,optionRight,40,13815,7,6,0,6,0,1,,,,,,,,,,,,,,,,,,,,,,,,,,,,,,,,,,,,,,,
,,,,,,,,2023-08-16_08h33.57.593,HF_wild_card,2022.2.4,Win32,60.06006006,5e5ed3c0287d5020d299f783,64d2fd46c836a06233681665,64dc7bdbac1e705236e6c160,,,,,,,decisionTrl,resources/DBN.BMP,resources/DB.BMP,Door4,-0.28,0.014444444,1,0,0,0.4672,optionLeft,80,13895,7,7,0,7,0,1,,,,,,,,,,,,,,,,,,,,,,,,,,,,,,,,,,,,,,,
,,,,,,,,2023-08-16_08h33.57.593,HF_wild_card,2022.2.4,Win32,60.06006006,5e5ed3c0287d5020d299f783,64d2fd46c836a06233681665,64dc7bdbac1e705236e6c160,,,,,,,decisionTrl,resources/DY.BMP,resources/DR.BMP,Door2,-0.282222222,0.04,1,0,0,0.4494,optionLeft,20,13915,7,8,0,8,0,1,,,,,,,,,,,,,,,,,,,,,,,,,,,,,,,,,,,,,,,
,,,,,,,,2023-08-16_08h33.57.593,HF_wild_card,2022.2.4,Win32,60.06006006,5e5ed3c0287d5020d299f783,64d2fd46c836a06233681665,64dc7bdbac1e705236e6c160,,,,,,,decisionTrl,resources/DY.BMP,resources/DR.BMP,Door1,0.356666667,-0.001111111,1,0,0,0.4498,optionRight,30,13945,7,9,0,9,0,1,,,,,,,,,,,,,,,,,,,,,,,,,,,,,,,,,,,,,,,
,,,,,,,,2023-08-16_08h33.57.593,HF_wild_card,2022.2.4,Win32,60.06006006,5e5ed3c0287d5020d299f783,64d2fd46c836a06233681665,64dc7bdbac1e705236e6c160,,,,,,,ctch,resources/DY.BMP,resources/DB.BMP,Door3,0.388888889,-0.005555556,1,0,0,0.6826,optionRight,70,14015,7,10,0,10,0,1,,,,,,,,,,,,,,,,,,,,,,,,,,,,,,,,,,,,,,,
,,,,,,,,2023-08-16_08h33.57.593,HF_wild_card,2022.2.4,Win32,60.06006006,5e5ed3c0287d5020d299f783,64d2fd46c836a06233681665,64dc7bdbac1e705236e6c160,,,,,,,decisionTrl,resources/DY.BMP,resources/DR.BMP,Door1,0.371111111,-0.003333333,1,0,0,0.516,optionRight,30,14045,7,11,0,11,0,1,,,,,,,,,,,,,,,,,,,,,,,,,,,,,,,,,,,,,,,
,,,,,,,,2023-08-16_08h33.57.593,HF_wild_card,2022.2.4,Win32,60.06006006,5e5ed3c0287d5020d299f783,64d2fd46c836a06233681665,64dc7bdbac1e705236e6c160,,,,,,,decisionTrl,resources/DR.BMP,resources/DY.BMP,Door2,0.263333333,-0.01,1,0,0,0.5825,optionRight,20,14065,7,12,0,12,0,1,,,,,,,,,,,,,,,,,,,,,,,,,,,,,,,,,,,,,,,
,,,,,,,,2023-08-16_08h33.57.593,HF_wild_card,2022.2.4,Win32,60.06006006,5e5ed3c0287d5020d299f783,64d2fd46c836a06233681665,64dc7bdbac1e705236e6c160,,,,,,,decisionTrl,resources/DBN.BMP,resources/DB.BMP,Door4,-0.308888889,0.015555556,1,0,0,0.599,optionLeft,80,14145,7,13,0,13,0,1,,,,,,,,,,,,,,,,,,,,,,,,,,,,,,,,,,,,,,,
,,,,,,,,2023-08-16_08h33.57.593,HF_wild_card,2022.2.4,Win32,60.06006006,5e5ed3c0287d5020d299f783,64d2fd46c836a06233681665,64dc7bdbac1e705236e6c160,,,,,,,ctch,resources/DY.BMP,resources/DB.BMP,Door3,0.313333333,-0.06,1,0,0,0.7493,optionRight,70,14215,7,14,0,14,0,1,,,,,,,,,,,,,,,,,,,,,,,,,,,,,,,,,,,,,,,
,,,,,,,,2023-08-16_08h33.57.593,HF_wild_card,2022.2.4,Win32,60.06006006,5e5ed3c0287d5020d299f783,64d2fd46c836a06233681665,64dc7bdbac1e705236e6c160,,,,,,,ctch,resources/DB.BMP,resources/DY.BMP,Door3,-0.355555556,-0.032222222,1,0,0,0.9157,optionLeft,70,14285,7,15,0,15,0,1,,,,,,,,,,,,,,,,,,,,,,,,,,,,,,,,,,,,,,,
,,,,,,,,2023-08-16_08h33.57.593,HF_wild_card,2022.2.4,Win32,60.06006006,5e5ed3c0287d5020d299f783,64d2fd46c836a06233681665,64dc7bdbac1e705236e6c160,,,,,,,decisionTrl,resources/DBN.BMP,resources/DB.BMP,Door4,-0.231111111,-0.013333333,1,0,0,0.5824,optionLeft,80,14365,7,16,0,16,0,1,,,,,,,,,,,,,,,,,,,,,,,,,,,,,,,,,,,,,,,
,,,,,,,,2023-08-16_08h33.57.593,HF_wild_card,2022.2.4,Win32,60.06006006,5e5ed3c0287d5020d299f783,64d2fd46c836a06233681665,64dc7bdbac1e705236e6c160,,,,,,,decisionTrl,resources/DR.BMP,resources/DY.BMP,Door1,-0.28,-0.055555556,1,0,0,0.8986,optionLeft,30,14395,7,17,0,17,0,1,,,,,,,,,,,,,,,,,,,,,,,,,,,,,,,,,,,,,,,
,,,,,,,,2023-08-16_08h33.57.593,HF_wild_card,2022.2.4,Win32,60.06006006,5e5ed3c0287d5020d299f783,64d2fd46c836a06233681665,64dc7bdbac1e705236e6c160,,,,,,,decisionTrl,resources/DY.BMP,resources/DR.BMP,Door1,0.287777778,-0.028888889,1,0,0,0.9153,optionRight,30,14425,7,18,0,18,0,1,,,,,,,,,,,,,,,,,,,,,,,,,,,,,,,,,,,,,,,
,,,,,,,,2023-08-16_08h33.57.593,HF_wild_card,2022.2.4,Win32,60.06006006,5e5ed3c0287d5020d299f783,64d2fd46c836a06233681665,64dc7bdbac1e705236e6c160,,,,,,,ctch,resources/DR.BMP,resources/DBN.BMP,Door4,0.35,-0.063333333,1,0,0,0.5654,optionRight,60,14485,7,19,0,19,0,1,,,,,,,,,,,,,,,,,,,,,,,,,,,,,,,,,,,,,,,
,,,,,,,,2023-08-16_08h33.57.593,HF_wild_card,2022.2.4,Win32,60.06006006,5e5ed3c0287d5020d299f783,64d2fd46c836a06233681665,64dc7bdbac1e705236e6c160,,,,,,,decisionTrl,resources/DBN.BMP,resources/DB.BMP,Door4,-0.156666667,-0.04,1,0,0,0.7492,optionLeft,80,14565,7,20,0,20,0,1,,,,,,,,,,,,,,,,,,,,,,,,,,,,,,,,,,,,,,,
,,,,,,,,2023-08-16_08h33.57.593,HF_wild_card,2022.2.4,Win32,60.06006006,5e5ed3c0287d5020d299f783,64d2fd46c836a06233681665,64dc7bdbac1e705236e6c160,,,,,,,decisionTrl,resources/DB.BMP,resources/DBN.BMP,Door4,0.291111111,-0.04,1,0,0,0.6087,optionRight,80,14645,7,21,0,21,0,1,,,,,,,,,,,,,,,,,,,,,,,,,,,,,,,,,,,,,,,
,,,,,,,,2023-08-16_08h33.57.593,HF_wild_card,2022.2.4,Win32,60.06006006,5e5ed3c0287d5020d299f783,64d2fd46c836a06233681665,64dc7bdbac1e705236e6c160,,,,,,,decisionTrl,resources/DBN.BMP,resources/DB.BMP,Door4,-0.303333333,0.002222222,1,0,0,0.5166,optionLeft,60,14705,7,22,0,22,0,1,,,,,,,,,,,,,,,,,,,,,,,,,,,,,,,,,,,,,,,
,,,,,,,,2023-08-16_08h33.57.593,HF_wild_card,2022.2.4,Win32,60.06006006,5e5ed3c0287d5020d299f783,64d2fd46c836a06233681665,64dc7bdbac1e705236e6c160,,,,,,,ctch,resources/DBN.BMP,resources/DR.BMP,Door4,-0.274444444,-0.032222222,1,0,0,0.6141,optionLeft,80,14785,7,23,0,23,0,1,,,,,,,,,,,,,,,,,,,,,,,,,,,,,,,,,,,,,,,
,,,,,,,,2023-08-16_08h33.57.593,HF_wild_card,2022.2.4,Win32,60.06006006,5e5ed3c0287d5020d299f783,64d2fd46c836a06233681665,64dc7bdbac1e705236e6c160,,,,,,,decisionTrl,resources/DR.BMP,resources/DY.BMP,Door1,-0.041111111,-0.056666667,1,0,0,1.1157,optionLeft,30,14815,7,24,0,24,0,1,,,,,,,,,,,,,,,,,,,,,,,,,,,,,,,,,,,,,,,
,,,,,,,,2023-08-16_08h33.57.593,HF_wild_card,2022.2.4,Win32,60.06006006,5e5ed3c0287d5020d299f783,64d2fd46c836a06233681665,64dc7bdbac1e705236e6c160,,,,,,,ctch,resources/DY.BMP,resources/DB.BMP,Door3,0.265555556,-0.01,1,0,0,0.6488,optionRight,70,14885,7,25,0,25,0,1,,,,,,,,,,,,,,,,,,,,,,,,,,,,,,,,,,,,,,,
,,,,,,,,2023-08-16_08h33.57.593,HF_wild_card,2022.2.4,Win32,60.06006006,5e5ed3c0287d5020d299f783,64d2fd46c836a06233681665,64dc7bdbac1e705236e6c160,,,,,,,ctch,resources/DR.BMP,resources/DBN.BMP,Door4,0.28,-0.027777778,1,0,0,0.599,optionRight,60,14945,7,26,0,26,0,1,,,,,,,,,,,,,,,,,,,,,,,,,,,,,,,,,,,,,,,
,,,,,,,,2023-08-16_08h33.57.593,HF_wild_card,2022.2.4,Win32,60.06006006,5e5ed3c0287d5020d299f783,64d2fd46c836a06233681665,64dc7bdbac1e705236e6c160,,,,,,,ctch,resources/DB.BMP,resources/DY.BMP,Door3,-0.314444444,-0.017777778,1,0,0,0.7821,optionLeft,70,15015,7,27,0,27,0,1,,,,,,,,,,,,,,,,,,,,,,,,,,,,,,,,,,,,,,,
,,,,,,,,2023-08-16_08h33.57.593,HF_wild_card,2022.2.4,Win32,60.06006006,5e5ed3c0287d5020d299f783,64d2fd46c836a06233681665,64dc7bdbac1e705236e6c160,,,,,,,decisionTrl,resources/DB.BMP,resources/DBN.BMP,Door4,0.224444444,-0.008888889,1,0,0,0.6161,optionRight,60,15075,7,28,0,28,0,1,,,,,,,,,,,,,,,,,,,,,,,,,,,,,,,,,,,,,,,
,,,,,,,,2023-08-16_08h33.57.593,HF_wild_card,2022.2.4,Win32,60.06006006,5e5ed3c0287d5020d299f783,64d2fd46c836a06233681665,64dc7bdbac1e705236e6c160,,,,,,,decisionTrl,resources/DBN.BMP,resources/DB.BMP,Door4,-0.313333333,0.003333333,1,0,0,0.6157,optionLeft,80,15155,7,29,0,29,0,1,,,,,,,,,,,,,,,,,,,,,,,,,,,,,,,,,,,,,,,
,,,,,,,,2023-08-16_08h33.57.593,HF_wild_card,2022.2.4,Win32,60.06006006,5e5ed3c0287d5020d299f783,64d2fd46c836a06233681665,64dc7bdbac1e705236e6c160,,,,,,,decisionTrl,resources/DR.BMP,resources/DY.BMP,Door1,-0.244444444,-0.031111111,1,0,0,1.2979,optionLeft,30,15185,7,30,0,30,0,1,,,,,,,,,,,,,,,,,,,,,,,,,,,,,,,,,,,,,,,
,,,,,,,,2023-08-16_08h33.57.593,HF_wild_card,2022.2.4,Win32,60.06006006,5e5ed3c0287d5020d299f783,64d2fd46c836a06233681665,64dc7bdbac1e705236e6c160,,,,,,,decisionTrl,resources/DB.BMP,resources/DBN.BMP,Door4,0.22,-0.03,1,0,0,0.6156,optionRight,60,15245,7,31,0,31,0,1,,,,,,,,,,,,,,,,,,,,,,,,,,,,,,,,,,,,,,,
,,,,,,,,2023-08-16_08h33.57.593,HF_wild_card,2022.2.4,Win32,60.06006006,5e5ed3c0287d5020d299f783,64d2fd46c836a06233681665,64dc7bdbac1e705236e6c160,,,,,,,ctch,resources/DR.BMP,resources/DBN.BMP,Door4,0.306666667,-0.028888889,1,0,0,0.5659,optionRight,80,15325,7,32,0,32,0,1,,,,,,,,,,,,,,,,,,,,,,,,,,,,,,,,,,,,,,,
,,,,,,,,2023-08-16_08h33.57.593,HF_wild_card,2022.2.4,Win32,60.06006006,5e5ed3c0287d5020d299f783,64d2fd46c836a06233681665,64dc7bdbac1e705236e6c160,,,,,,,decisionTrl,resources/DY.BMP,resources/DR.BMP,Door1,0.336666667,-0.093333333,1,0,0,1.1654,optionRight,30,15355,7,33,0,33,0,1,,,,,,,,,,,,,,,,,,,,,,,,,,,,,,,,,,,,,,,
,,,,,,,,2023-08-16_08h33.57.593,HF_wild_card,2022.2.4,Win32,60.06006006,5e5ed3c0287d5020d299f783,64d2fd46c836a06233681665,64dc7bdbac1e705236e6c160,,,,,,,decisionTrl,resources/DB.BMP,resources/DBN.BMP,Door4,0.335555556,-0.015555556,1,0,0,0.5491,optionRight,80,15435,7,34,0,34,0,1,,,,,,,,,,,,,,,,,,,,,,,,,,,,,,,,,,,,,,,
,,,,,,,,2023-08-16_08h33.57.593,HF_wild_card,2022.2.4,Win32,60.06006006,5e5ed3c0287d5020d299f783,64d2fd46c836a06233681665,64dc7bdbac1e705236e6c160,,,,,,,ctch,resources/DBN.BMP,resources/DR.BMP,Door4,-0.311111111,-0.018888889,1,0,0,0.9649,optionLeft,80,15515,7,35,0,35,0,1,,,,,,,,,,,,,,,,,,,,,,,,,,,,,,,,,,,,,,,
,,,,,,,,2023-08-16_08h33.57.593,HF_wild_card,2022.2.4,Win32,60.06006006,5e5ed3c0287d5020d299f783,64d2fd46c836a06233681665,64dc7bdbac1e705236e6c160,,,,,,,,,,,,,,,,,,,,,,,,,,6,0,6,0,1,,,,,,,,,,,,,,,,,,,,,,,,,,,,,,,,,,
,,,,,,,,2023-08-16_08h33.57.593,HF_wild_card,2022.2.4,Win32,60.06006006,5e5ed3c0287d5020d299f783,64d2fd46c836a06233681665,64dc7bdbac1e705236e6c160,,,,,,,,,,,,,,,,,,,,,,,,,,,,,,,3,,,,,,,,,,,,,,,,,,,,,,,,,,,,,,,,,
,,,,,,,,2023-08-16_08h33.57.593,HF_wild_card,2022.2.4,Win32,60.06006006,5e5ed3c0287d5020d299f783,64d2fd46c836a06233681665,64dc7bdbac1e705236e6c160,,,,,,,,,,,,,,,,,,,,,,,,,,,,,,,,,,,,,,,,,,,,,,,,,,,,,,,,,,,,,,,,
,,,,,,,,2023-08-16_08h33.57.593,HF_wild_card,2022.2.4,Win32,60.06006006,5e5ed3c0287d5020d299f783,64d2fd46c836a06233681665,64dc7bdbac1e705236e6c160,,,,,,,,,,,,,,,,,,,,,,,,,,,,,,,,55,Door4,resources/DBN.BMP,0,0,0,0,1,,,,,,,,,,,,,,,,,,,,,,,,,
,,,,,,,,2023-08-16_08h33.57.593,HF_wild_card,2022.2.4,Win32,60.06006006,5e5ed3c0287d5020d299f783,64d2fd46c836a06233681665,64dc7bdbac1e705236e6c160,,,,,,,,,,,,,,,,,,,,,,,,,,,,,,,,20,WC_extreme,resources/DG.BMP,1,0,1,0,1,,,,,,,,,,,,,,,,,,,,,,,,,
,,,,,,,,2023-08-16_08h33.57.593,HF_wild_card,2022.2.4,Win32,60.06006006,5e5ed3c0287d5020d299f783,64d2fd46c836a06233681665,64dc7bdbac1e705236e6c160,,,,,,,,,,,,,,,,,,,,,,,,,,,,,,,,5,Door2,resources/DY.BMP,2,0,2,0,1,,,,,,,,,,,,,,,,,,,,,,,,,
,,,,,,,,2023-08-16_08h33.57.593,HF_wild_card,2022.2.4,Win32,60.06006006,5e5ed3c0287d5020d299f783,64d2fd46c836a06233681665,64dc7bdbac1e705236e6c160,,,,,,,,,,,,,,,,,,,,,,,,,,,,,,,,55,WC_nonExtreme,resources/DP.BMP,3,0,3,0,1,,,,,,,,,,,,,,,,,,,,,,,,,
,,,,,,,,2023-08-16_08h33.57.593,HF_wild_card,2022.2.4,Win32,60.06006006,5e5ed3c0287d5020d299f783,64d2fd46c836a06233681665,64dc7bdbac1e705236e6c160,,,,,,,,,,,,,,,,,,,,,,,,,,,,,,,,20,Door3,resources/DB.BMP,4,0,4,0,1,,,,,,,,,,,,,,,,,,,,,,,,,
,,,,,,,,2023-08-16_08h33.57.593,HF_wild_card,2022.2.4,Win32,60.06006006,5e5ed3c0287d5020d299f783,64d2fd46c836a06233681665,64dc7bdbac1e705236e6c160,,,,,,,,,,,,,,,,,,,,,,,,,,,,,,,,77,Door1,resources/DR.BMP,5,0,5,0,1,,,,,,,,,,,,,,,,,,,,,,,,,
,,,,,,,,2023-08-16_08h33.57.593,HF_wild_card,2022.2.4,Win32,60.06006006,5e5ed3c0287d5020d299f783,64d2fd46c836a06233681665,64dc7bdbac1e705236e6c160,,,,,,,,,,,,,,,,,,,,,,,,,,,,,,,,,,,,,,,,,,,,,,,,,,,,,,,,,,,,,,,,
,,,,,,,,2023-08-16_08h33.57.593,HF_wild_card,2022.2.4,Win32,60.06006006,5e5ed3c0287d5020d299f783,64d2fd46c836a06233681665,64dc7bdbac1e705236e6c160,,,,,,,,,,,,,,,,,,,,,,,,,,,,,,,,,,,,,,,,0,0,0,0,1,,,,,,,,,,,,,,,,,,,,
,,,,,,,,2023-08-16_08h33.57.593,HF_wild_card,2022.2.4,Win32,60.06006006,5e5ed3c0287d5020d299f783,64d2fd46c836a06233681665,64dc7bdbac1e705236e6c160,,,,,,,,,,,,,,,,,,,,,,,,,,,,,,,,,,,,,,,,1,0,1,0,1,,,,,,,,,,,,,,,,,,,,
