Condition,Low fixed image (Door1),Low risky image (Door2),High fixed image (Door3),High risky image (Door4),NonExtreme Wild Card 1,NonExtreme Wild Card 2,,date,expName,psychopyVersion,OS,frameRate,PROLIFIC_PID,STUDY_ID,SESSION_ID,mouse_2.x,mouse_2.y,mouse_2.leftButton,mouse_2.midButton,mouse_2.rightButton,mouse_2.clicked_name,Trial Type,Left Option Image,Right Option Image,Chosen Door,mouse.x,mouse.y,mouse.leftButton,mouse.midButton,mouse.rightButton,mouse.time,mouse.clicked_name,Feedback,Cumulative Reward,Block,trial.thisRepN,trial.thisTrialN,trial.thisN,trial.thisIndex,trial.ran,blocks.thisRepN,blocks.thisTrialN,blocks.thisN,blocks.thisIndex,blocks.ran,Money conversion,First Outcome Reported,Shown Door (First Outcome),Displayed Image (First Outcome),outcomes.thisRepN,outcomes.thisTrialN,outcomes.thisN,outcomes.thisIndex,outcomes.ran,judgments.thisRepN,judgments.thisTrialN,judgments.thisN,judgments.thisIndex,judgments.ran,freqMouse.x,freqMouse.y,freqMouse.leftButton,freqMouse.midButton,freqMouse.rightButton,freqMouse.clicked_name,FQJ for first outcome,FQJ for second outcome,Shown Door,Displayed Image,trials.thisRepN,trials.thisTrialN,trials.thisN,trials.thisIndex,trials.ran,judgBlock.thisRepN,judgBlock.thisTrialN,judgBlock.thisN,judgBlock.thisIndex,judgBlock.ran
2,resources/DY.BMP,resources/DBN.BMP,resources/DP.BMP,resources/DB.BMP,resources/DG.BMP,resources/DR.BMP,,2023-08-16_08h31.06.641,HF_wild_card,2022.2.4,Win32,60.03842459,63d53d150a864eb06120bb88,64d2fd46c836a06233681665,64dc7b2c2f00dfc201b5d4c0,,,,,,,,,,,,,,,,,,,,,,,,,,,,,,,,,,,,,,,,,,,,,,,,,,,,,,,,,,,,,,,,
,,,,,,,,2023-08-16_08h31.06.641,HF_wild_card,2022.2.4,Win32,60.03842459,63d53d150a864eb06120bb88,64d2fd46c836a06233681665,64dc7b2c2f00dfc201b5d4c0,-0.005555556,-0.413888889,1,0,0,agree,,,,,,,,,,,,,,,,,,,,,,,,,,,,,,,,,,,,,,,,,,,,,,,,,,,,,,,,,,
,,,,,,,,2023-08-16_08h31.06.641,HF_wild_card,2022.2.4,Win32,60.03842459,63d53d150a864eb06120bb88,64d2fd46c836a06233681665,64dc7b2c2f00dfc201b5d4c0,,,,,,,,,,,,,,,,,,,,,,,,,,,,,,,,,,,,,,,,,,,,,,,,,,,,,,,,,,,,,,,,
,,,,,,,,2023-08-16_08h31.06.641,HF_wild_card,2022.2.4,Win32,60.03842459,63d53d150a864eb06120bb88,64d2fd46c836a06233681665,64dc7b2c2f00dfc201b5d4c0,,,,,,,sngl,resources/Empty.png,resources/DR.BMP,WildCard_NonEx,0.426851852,0.075925926,1,0,0,1.5121,optionRight,55,55,1,0,0,0,0,1,,,,,,,,,,,,,,,,,,,,,,,,,,,,,,,,,,,,,,,
,,,,,,,,2023-08-16_08h31.06.641,HF_wild_card,2022.2.4,Win32,60.03842459,63d53d150a864eb06120bb88,64d2fd46c836a06233681665,64dc7b2c2f00dfc201b5d4c0,,,,,,,ctch,resources/DB.BMP,resources/DY.BMP,Door1,0.403703704,-0.003703704,1,0,0,1.8152,optionRight,30,85,1,1,0,1,0,1,,,,,,,,,,,,,,,,,,,,,,,,,,,,,,,,,,,,,,,
,,,,,,,,2023-08-16_08h31.06.641,HF_wild_card,2022.2.4,Win32,60.03842459,63d53d150a864eb06120bb88,64d2fd46c836a06233681665,64dc7b2c2f00dfc201b5d4c0,,,,,,,decisionTrl,resources/DB.BMP,resources/DP.BMP,Door4,-0.400925926,-0.021296296,1,0,0,1.3989,optionLeft,60,145,1,2,0,2,0,1,,,,,,,,,,,,,,,,,,,,,,,,,,,,,,,,,,,,,,,
,,,,,,,,2023-08-16_08h31.06.641,HF_wild_card,2022.2.4,Win32,60.03842459,63d53d150a864eb06120bb88,64d2fd46c836a06233681665,64dc7b2c2f00dfc201b5d4c0,,,,,,,sngl,resources/Empty.png,resources/DBN.BMP,Door2,0.496296296,-0.015740741,1,0,0,1.4821,optionRight,20,165,1,3,0,3,0,1,,,,,,,,,,,,,,,,,,,,,,,,,,,,,,,,,,,,,,,
,,,,,,,,2023-08-16_08h31.06.641,HF_wild_card,2022.2.4,Win32,60.03842459,63d53d150a864eb06120bb88,64d2fd46c836a06233681665,64dc7b2c2f00dfc201b5d4c0,,,,,,,decisionTrl,resources/DR.BMP,resources/DB.BMP,Door4,0.408333333,-0.00462963,1,0,0,1.2485,optionRight,60,225,1,4,0,4,0,1,,,,,,,,,,,,,,,,,,,,,,,,,,,,,,,,,,,,,,,
,,,,,,,,2023-08-16_08h31.06.641,HF_wild_card,2022.2.4,Win32,60.03842459,63d53d150a864eb06120bb88,64d2fd46c836a06233681665,64dc7b2c2f00dfc201b5d4c0,,,,,,,decisionTrl,resources/DY.BMP,resources/DBN.BMP,Door1,-0.413888889,-0.022222222,1,0,0,0.7989,optionLeft,30,255,1,5,0,5,0,1,,,,,,,,,,,,,,,,,,,,,,,,,,,,,,,,,,,,,,,
,,,,,,,,2023-08-16_08h31.06.641,HF_wild_card,2022.2.4,Win32,60.03842459,63d53d150a864eb06120bb88,64d2fd46c836a06233681665,64dc7b2c2f00dfc201b5d4c0,,,,,,,ctch,resources/DB.BMP,resources/DY.BMP,Door4,-0.47037037,0.011111111,1,0,0,0.949,optionLeft,60,315,1,6,0,6,0,1,,,,,,,,,,,,,,,,,,,,,,,,,,,,,,,,,,,,,,,
,,,,,,,,2023-08-16_08h31.06.641,HF_wild_card,2022.2.4,Win32,60.03842459,63d53d150a864eb06120bb88,64d2fd46c836a06233681665,64dc7b2c2f00dfc201b5d4c0,,,,,,,decisionTrl,resources/DR.BMP,resources/DBN.BMP,Door2,0.297222222,0.027777778,1,0,0,0.8618,optionRight,40,355,1,7,0,7,0,1,,,,,,,,,,,,,,,,,,,,,,,,,,,,,,,,,,,,,,,
,,,,,,,,2023-08-16_08h31.06.641,HF_wild_card,2022.2.4,Win32,60.03842459,63d53d150a864eb06120bb88,64d2fd46c836a06233681665,64dc7b2c2f00dfc201b5d4c0,,,,,,,sngl,resources/DBN.BMP,resources/Empty.png,Door2,-0.301851852,-0.023148148,1,0,0,1.0356,optionLeft,40,395,1,8,0,8,0,1,,,,,,,,,,,,,,,,,,,,,,,,,,,,,,,,,,,,,,,
,,,,,,,,2023-08-16_08h31.06.641,HF_wild_card,2022.2.4,Win32,60.03842459,63d53d150a864eb06120bb88,64d2fd46c836a06233681665,64dc7b2c2f00dfc201b5d4c0,,,,,,,decisionTrl,resources/DR.BMP,resources/DP.BMP,WildCard_NonEx,-0.325,-0.023148148,1,0,0,0.7788,optionLeft,45,440,1,9,0,9,0,1,,,,,,,,,,,,,,,,,,,,,,,,,,,,,,,,,,,,,,,
,,,,,,,,2023-08-16_08h31.06.641,HF_wild_card,2022.2.4,Win32,60.03842459,63d53d150a864eb06120bb88,64d2fd46c836a06233681665,64dc7b2c2f00dfc201b5d4c0,,,,,,,decisionTrl,resources/DP.BMP,resources/DB.BMP,Door3,-0.303703704,-0.024074074,1,0,0,0.9528,optionLeft,70,510,1,10,0,10,0,1,,,,,,,,,,,,,,,,,,,,,,,,,,,,,,,,,,,,,,,
,,,,,,,,2023-08-16_08h31.06.641,HF_wild_card,2022.2.4,Win32,60.03842459,63d53d150a864eb06120bb88,64d2fd46c836a06233681665,64dc7b2c2f00dfc201b5d4c0,,,,,,,ctch,resources/DP.BMP,resources/DBN.BMP,Door2,0.405555556,0.015740741,1,0,0,0.6323,optionRight,40,550,1,11,0,11,0,1,,,,,,,,,,,,,,,,,,,,,,,,,,,,,,,,,,,,,,,
,,,,,,,,2023-08-16_08h31.06.641,HF_wild_card,2022.2.4,Win32,60.03842459,63d53d150a864eb06120bb88,64d2fd46c836a06233681665,64dc7b2c2f00dfc201b5d4c0,,,,,,,ctch,resources/DP.BMP,resources/DBN.BMP,Door3,-0.175,0.009259259,1,0,0,1.4621,optionLeft,70,620,1,12,0,12,0,1,,,,,,,,,,,,,,,,,,,,,,,,,,,,,,,,,,,,,,,
,,,,,,,,2023-08-16_08h31.06.641,HF_wild_card,2022.2.4,Win32,60.03842459,63d53d150a864eb06120bb88,64d2fd46c836a06233681665,64dc7b2c2f00dfc201b5d4c0,,,,,,,sngl,resources/Empty.png,resources/DP.BMP,Door3,0.416666667,0.024074074,1,0,0,0.5453,optionRight,70,690,1,13,0,13,0,1,,,,,,,,,,,,,,,,,,,,,,,,,,,,,,,,,,,,,,,
,,,,,,,,2023-08-16_08h31.06.641,HF_wild_card,2022.2.4,Win32,60.03842459,63d53d150a864eb06120bb88,64d2fd46c836a06233681665,64dc7b2c2f00dfc201b5d4c0,,,,,,,ctch,resources/DY.BMP,resources/DB.BMP,Door4,0.474074074,-0.008333333,1,0,0,1.4994,optionRight,80,770,1,14,0,14,0,1,,,,,,,,,,,,,,,,,,,,,,,,,,,,,,,,,,,,,,,
,,,,,,,,2023-08-16_08h31.06.641,HF_wild_card,2022.2.4,Win32,60.03842459,63d53d150a864eb06120bb88,64d2fd46c836a06233681665,64dc7b2c2f00dfc201b5d4c0,,,,,,,decisionTrl,resources/DBN.BMP,resources/DY.BMP,Door2,-0.392592593,-0.012037037,1,0,0,1.3988,optionLeft,20,790,1,15,0,15,0,1,,,,,,,,,,,,,,,,,,,,,,,,,,,,,,,,,,,,,,,
,,,,,,,,2023-08-16_08h31.06.641,HF_wild_card,2022.2.4,Win32,60.03842459,63d53d150a864eb06120bb88,64d2fd46c836a06233681665,64dc7b2c2f00dfc201b5d4c0,,,,,,,sngl,resources/DP.BMP,resources/Empty.png,Door3,-0.443518519,0.008333333,1,0,0,0.3991,optionLeft,70,860,1,16,0,16,0,1,,,,,,,,,,,,,,,,,,,,,,,,,,,,,,,,,,,,,,,
,,,,,,,,2023-08-16_08h31.06.641,HF_wild_card,2022.2.4,Win32,60.03842459,63d53d150a864eb06120bb88,64d2fd46c836a06233681665,64dc7b2c2f00dfc201b5d4c0,,,,,,,decisionTrl,resources/DB.BMP,resources/DP.BMP,Door4,-0.346296296,-0.021296296,1,0,0,0.6956,optionLeft,80,940,1,17,0,17,0,1,,,,,,,,,,,,,,,,,,,,,,,,,,,,,,,,,,,,,,,
,,,,,,,,2023-08-16_08h31.06.641,HF_wild_card,2022.2.4,Win32,60.03842459,63d53d150a864eb06120bb88,64d2fd46c836a06233681665,64dc7b2c2f00dfc201b5d4c0,,,,,,,decisionTrl,resources/DY.BMP,resources/DBN.BMP,Door1,-0.35462963,-0.003703704,1,0,0,0.7693,optionLeft,30,970,1,18,0,18,0,1,,,,,,,,,,,,,,,,,,,,,,,,,,,,,,,,,,,,,,,
,,,,,,,,2023-08-16_08h31.06.641,HF_wild_card,2022.2.4,Win32,60.03842459,63d53d150a864eb06120bb88,64d2fd46c836a06233681665,64dc7b2c2f00dfc201b5d4c0,,,,,,,decisionTrl,resources/DP.BMP,resources/DB.BMP,Door4,0.416666667,0.010185185,1,0,0,0.412,optionRight,60,1030,1,19,0,19,0,1,,,,,,,,,,,,,,,,,,,,,,,,,,,,,,,,,,,,,,,
,,,,,,,,2023-08-16_08h31.06.641,HF_wild_card,2022.2.4,Win32,60.03842459,63d53d150a864eb06120bb88,64d2fd46c836a06233681665,64dc7b2c2f00dfc201b5d4c0,,,,,,,decisionTrl,resources/DP.BMP,resources/DB.BMP,Door3,-0.236111111,-0.049074074,1,0,0,1.3459,optionLeft,70,1100,1,20,0,20,0,1,,,,,,,,,,,,,,,,,,,,,,,,,,,,,,,,,,,,,,,
,,,,,,,,2023-08-16_08h31.06.641,HF_wild_card,2022.2.4,Win32,60.03842459,63d53d150a864eb06120bb88,64d2fd46c836a06233681665,64dc7b2c2f00dfc201b5d4c0,,,,,,,decisionTrl,resources/DBN.BMP,resources/DY.BMP,Door2,-0.417592593,-0.017592593,1,0,0,0.7287,optionLeft,20,1120,1,21,0,21,0,1,,,,,,,,,,,,,,,,,,,,,,,,,,,,,,,,,,,,,,,
,,,,,,,,2023-08-16_08h31.06.641,HF_wild_card,2022.2.4,Win32,60.03842459,63d53d150a864eb06120bb88,64d2fd46c836a06233681665,64dc7b2c2f00dfc201b5d4c0,,,,,,,sngl,resources/DY.BMP,resources/Empty.png,Door1,-0.577777778,-0.051851852,1,0,0,1.1955,optionLeft,30,1150,1,22,0,22,0,1,,,,,,,,,,,,,,,,,,,,,,,,,,,,,,,,,,,,,,,
,,,,,,,,2023-08-16_08h31.06.641,HF_wild_card,2022.2.4,Win32,60.03842459,63d53d150a864eb06120bb88,64d2fd46c836a06233681665,64dc7b2c2f00dfc201b5d4c0,,,,,,,sngl,resources/DR.BMP,resources/Empty.png,WildCard_NonEx,-0.358333333,-0.043518519,1,0,0,0.6027,optionLeft,45,1195,1,23,0,23,0,1,,,,,,,,,,,,,,,,,,,,,,,,,,,,,,,,,,,,,,,
,,,,,,,,2023-08-16_08h31.06.641,HF_wild_card,2022.2.4,Win32,60.03842459,63d53d150a864eb06120bb88,64d2fd46c836a06233681665,64dc7b2c2f00dfc201b5d4c0,,,,,,,sngl,resources/Empty.png,resources/DB.BMP,Door4,-0.410185185,-0.044444444,1,0,0,0.5618,optionRight,60,1255,1,24,0,24,0,1,,,,,,,,,,,,,,,,,,,,,,,,,,,,,,,,,,,,,,,
,,,,,,,,2023-08-16_08h31.06.641,HF_wild_card,2022.2.4,Win32,60.03842459,63d53d150a864eb06120bb88,64d2fd46c836a06233681665,64dc7b2c2f00dfc201b5d4c0,,,,,,,decisionTrl,resources/DY.BMP,resources/DBN.BMP,Door1,-0.448148148,-0.07037037,1,0,0,1.516,optionLeft,30,1285,1,25,0,25,0,1,,,,,,,,,,,,,,,,,,,,,,,,,,,,,,,,,,,,,,,
,,,,,,,,2023-08-16_08h31.06.641,HF_wild_card,2022.2.4,Win32,60.03842459,63d53d150a864eb06120bb88,64d2fd46c836a06233681665,64dc7b2c2f00dfc201b5d4c0,,,,,,,sngl,resources/DR.BMP,resources/Empty.png,WildCard_NonEx,-0.358333333,-0.083333333,1,0,0,0.5325,optionLeft,55,1340,1,26,0,26,0,1,,,,,,,,,,,,,,,,,,,,,,,,,,,,,,,,,,,,,,,
,,,,,,,,2023-08-16_08h31.06.641,HF_wild_card,2022.2.4,Win32,60.03842459,63d53d150a864eb06120bb88,64d2fd46c836a06233681665,64dc7b2c2f00dfc201b5d4c0,,,,,,,ctch,resources/DBN.BMP,resources/DP.BMP,Door3,0.319444444,-0.025925926,1,0,0,0.3789,optionRight,70,1410,1,27,0,27,0,1,,,,,,,,,,,,,,,,,,,,,,,,,,,,,,,,,,,,,,,
,,,,,,,,2023-08-16_08h31.06.641,HF_wild_card,2022.2.4,Win32,60.03842459,63d53d150a864eb06120bb88,64d2fd46c836a06233681665,64dc7b2c2f00dfc201b5d4c0,,,,,,,decisionTrl,resources/DP.BMP,resources/DR.BMP,Door3,-0.336111111,-0.039814815,1,0,0,0.3863,optionLeft,70,1480,1,28,0,28,0,1,,,,,,,,,,,,,,,,,,,,,,,,,,,,,,,,,,,,,,,
,,,,,,,,2023-08-16_08h31.06.641,HF_wild_card,2022.2.4,Win32,60.03842459,63d53d150a864eb06120bb88,64d2fd46c836a06233681665,64dc7b2c2f00dfc201b5d4c0,,,,,,,decisionTrl,resources/DR.BMP,resources/DY.BMP,Door1,0.262962963,-0.026851852,1,0,0,0.8029,optionRight,30,1510,1,29,0,29,0,1,,,,,,,,,,,,,,,,,,,,,,,,,,,,,,,,,,,,,,,
,,,,,,,,2023-08-16_08h31.06.641,HF_wild_card,2022.2.4,Win32,60.03842459,63d53d150a864eb06120bb88,64d2fd46c836a06233681665,64dc7b2c2f00dfc201b5d4c0,,,,,,,decisionTrl,resources/DB.BMP,resources/DP.BMP,Door4,-0.487037037,-0.034259259,1,0,0,0.6363,optionLeft,80,1590,1,30,0,30,0,1,,,,,,,,,,,,,,,,,,,,,,,,,,,,,,,,,,,,,,,
,,,,,,,,2023-08-16_08h31.06.641,HF_wild_card,2022.2.4,Win32,60.03842459,63d53d150a864eb06120bb88,64d2fd46c836a06233681665,64dc7b2c2f00dfc201b5d4c0,,,,,,,sngl,resources/Empty.png,resources/DR.BMP,WildCard_NonEx,0.32962963,0.05,1,0,0,0.5622,optionRight,45,1635,1,31,0,31,0,1,,,,,,,,,,,,,,,,,,,,,,,,,,,,,,,,,,,,,,,
,,,,,,,,2023-08-16_08h31.06.641,HF_wild_card,2022.2.4,Win32,60.03842459,63d53d150a864eb06120bb88,64d2fd46c836a06233681665,64dc7b2c2f00dfc201b5d4c0,,,,,,,decisionTrl,resources/DBN.BMP,resources/DY.BMP,Door2,-0.15462963,-0.024074074,1,0,0,1.3662,optionLeft,20,1655,1,32,0,32,0,1,,,,,,,,,,,,,,,,,,,,,,,,,,,,,,,,,,,,,,,
,,,,,,,,2023-08-16_08h31.06.641,HF_wild_card,2022.2.4,Win32,60.03842459,63d53d150a864eb06120bb88,64d2fd46c836a06233681665,64dc7b2c2f00dfc201b5d4c0,,,,,,,decisionTrl,resources/DB.BMP,resources/DR.BMP,Door4,-0.549074074,0.005555556,1,0,0,0.5621,optionLeft,80,1735,1,33,0,33,0,1,,,,,,,,,,,,,,,,,,,,,,,,,,,,,,,,,,,,,,,
,,,,,,,,2023-08-16_08h31.06.641,HF_wild_card,2022.2.4,Win32,60.03842459,63d53d150a864eb06120bb88,64d2fd46c836a06233681665,64dc7b2c2f00dfc201b5d4c0,,,,,,,ctch,resources/DBN.BMP,resources/DP.BMP,Door3,0.368518519,0.024074074,1,0,0,1.1455,optionRight,70,1805,1,34,0,34,0,1,,,,,,,,,,,,,,,,,,,,,,,,,,,,,,,,,,,,,,,
,,,,,,,,2023-08-16_08h31.06.641,HF_wild_card,2022.2.4,Win32,60.03842459,63d53d150a864eb06120bb88,64d2fd46c836a06233681665,64dc7b2c2f00dfc201b5d4c0,,,,,,,sngl,resources/DB.BMP,resources/Empty.png,Door4,-0.309259259,-0.013888889,1,0,0,0.586,optionLeft,80,1885,1,35,0,35,0,1,,,,,,,,,,,,,,,,,,,,,,,,,,,,,,,,,,,,,,,
,,,,,,,,2023-08-16_08h31.06.641,HF_wild_card,2022.2.4,Win32,60.03842459,63d53d150a864eb06120bb88,64d2fd46c836a06233681665,64dc7b2c2f00dfc201b5d4c0,,,,,,,decisionTrl,resources/DBN.BMP,resources/DY.BMP,Door1,0.477777778,-0.021296296,1,0,0,2.1823,optionRight,30,1915,1,36,0,36,0,1,,,,,,,,,,,,,,,,,,,,,,,,,,,,,,,,,,,,,,,
,,,,,,,,2023-08-16_08h31.06.641,HF_wild_card,2022.2.4,Win32,60.03842459,63d53d150a864eb06120bb88,64d2fd46c836a06233681665,64dc7b2c2f00dfc201b5d4c0,,,,,,,sngl,resources/Empty.png,resources/DY.BMP,Door1,0.491666667,0.001851852,1,0,0,0.4624,optionRight,30,1945,1,37,0,37,0,1,,,,,,,,,,,,,,,,,,,,,,,,,,,,,,,,,,,,,,,
,,,,,,,,2023-08-16_08h31.06.641,HF_wild_card,2022.2.4,Win32,60.03842459,63d53d150a864eb06120bb88,64d2fd46c836a06233681665,64dc7b2c2f00dfc201b5d4c0,,,,,,,ctch,resources/DY.BMP,resources/DB.BMP,Door4,0.288888889,0.006481481,1,0,0,0.6995,optionRight,80,2025,1,38,0,38,0,1,,,,,,,,,,,,,,,,,,,,,,,,,,,,,,,,,,,,,,,
,,,,,,,,2023-08-16_08h31.06.641,HF_wild_card,2022.2.4,Win32,60.03842459,63d53d150a864eb06120bb88,64d2fd46c836a06233681665,64dc7b2c2f00dfc201b5d4c0,,,,,,,decisionTrl,resources/DBN.BMP,resources/DR.BMP,Door2,-0.300925926,-0.003703704,1,0,0,0.699,optionLeft,20,2045,1,39,0,39,0,1,,,,,,,,,,,,,,,,,,,,,,,,,,,,,,,,,,,,,,,
,,,,,,,,2023-08-16_08h31.06.641,HF_wild_card,2022.2.4,Win32,60.03842459,63d53d150a864eb06120bb88,64d2fd46c836a06233681665,64dc7b2c2f00dfc201b5d4c0,,,,,,,decisionTrl,resources/DP.BMP,resources/DB.BMP,Door4,0.390740741,0.019444444,1,0,0,0.6029,optionRight,80,2125,1,40,0,40,0,1,,,,,,,,,,,,,,,,,,,,,,,,,,,,,,,,,,,,,,,
,,,,,,,,2023-08-16_08h31.06.641,HF_wild_card,2022.2.4,Win32,60.03842459,63d53d150a864eb06120bb88,64d2fd46c836a06233681665,64dc7b2c2f00dfc201b5d4c0,,,,,,,decisionTrl,resources/DY.BMP,resources/DBN.BMP,Door2,0.399074074,-0.001851852,1,0,0,1.1828,optionRight,40,2165,1,41,0,41,0,1,,,,,,,,,,,,,,,,,,,,,,,,,,,,,,,,,,,,,,,
,,,,,,,,2023-08-16_08h31.06.641,HF_wild_card,2022.2.4,Win32,60.03842459,63d53d150a864eb06120bb88,64d2fd46c836a06233681665,64dc7b2c2f00dfc201b5d4c0,,,,,,,decisionTrl,resources/DB.BMP,resources/DP.BMP,Door4,-0.39537037,-0.011111111,1,0,0,0.6325,optionLeft,60,2225,1,42,0,42,0,1,,,,,,,,,,,,,,,,,,,,,,,,,,,,,,,,,,,,,,,
,,,,,,,,2023-08-16_08h31.06.641,HF_wild_card,2022.2.4,Win32,60.03842459,63d53d150a864eb06120bb88,64d2fd46c836a06233681665,64dc7b2c2f00dfc201b5d4c0,,,,,,,decisionTrl,resources/DY.BMP,resources/DR.BMP,WildCard_NonEx,0.272222222,0.04537037,1,0,0,1.1496,optionRight,55,2280,1,43,0,43,0,1,,,,,,,,,,,,,,,,,,,,,,,,,,,,,,,,,,,,,,,
,,,,,,,,2023-08-16_08h31.06.641,HF_wild_card,2022.2.4,Win32,60.03842459,63d53d150a864eb06120bb88,64d2fd46c836a06233681665,64dc7b2c2f00dfc201b5d4c0,,,,,,,,,,,,,,,,,,,,,,,,,,0,0,0,0,1,,,,,,,,,,,,,,,,,,,,,,,,,,,,,,,,,,
,,,,,,,,2023-08-16_08h31.06.641,HF_wild_card,2022.2.4,Win32,60.03842459,63d53d150a864eb06120bb88,64d2fd46c836a06233681665,64dc7b2c2f00dfc201b5d4c0,,,,,,,sngl,resources/Empty.png,resources/DB.BMP,Door4,0.24537037,-0.050925926,1,0,0,0.5462,optionRight,80,2360,2,0,0,0,0,1,,,,,,,,,,,,,,,,,,,,,,,,,,,,,,,,,,,,,,,
,,,,,,,,2023-08-16_08h31.06.641,HF_wild_card,2022.2.4,Win32,60.03842459,63d53d150a864eb06120bb88,64d2fd46c836a06233681665,64dc7b2c2f00dfc201b5d4c0,,,,,,,sngl,resources/DBN.BMP,resources/Empty.png,Door2,-0.276851852,-0.022222222,1,0,0,0.4361,optionLeft,20,2380,2,1,0,1,0,1,,,,,,,,,,,,,,,,,,,,,,,,,,,,,,,,,,,,,,,
,,,,,,,,2023-08-16_08h31.06.641,HF_wild_card,2022.2.4,Win32,60.03842459,63d53d150a864eb06120bb88,64d2fd46c836a06233681665,64dc7b2c2f00dfc201b5d4c0,,,,,,,sngl,resources/DR.BMP,resources/Empty.png,WildCard_NonEx,-0.240740741,-0.021296296,1,0,0,0.4658,optionLeft,55,2435,2,2,0,2,0,1,,,,,,,,,,,,,,,,,,,,,,,,,,,,,,,,,,,,,,,
,,,,,,,,2023-08-16_08h31.06.641,HF_wild_card,2022.2.4,Win32,60.03842459,63d53d150a864eb06120bb88,64d2fd46c836a06233681665,64dc7b2c2f00dfc201b5d4c0,,,,,,,decisionTrl,resources/DBN.BMP,resources/DR.BMP,WildCard_NonEx,0.282407407,0.009259259,1,0,0,0.4448,optionRight,45,2480,2,3,0,3,0,1,,,,,,,,,,,,,,,,,,,,,,,,,,,,,,,,,,,,,,,
,,,,,,,,2023-08-16_08h31.06.641,HF_wild_card,2022.2.4,Win32,60.03842459,63d53d150a864eb06120bb88,64d2fd46c836a06233681665,64dc7b2c2f00dfc201b5d4c0,,,,,,,decisionTrl,resources/DP.BMP,resources/DB.BMP,Door4,0.312962963,-0.001851852,1,0,0,0.6461,optionRight,80,2560,2,4,0,4,0,1,,,,,,,,,,,,,,,,,,,,,,,,,,,,,,,,,,,,,,,
,,,,,,,,2023-08-16_08h31.06.641,HF_wild_card,2022.2.4,Win32,60.03842459,63d53d150a864eb06120bb88,64d2fd46c836a06233681665,64dc7b2c2f00dfc201b5d4c0,,,,,,,decisionTrl,resources/DB.BMP,resources/DP.BMP,Door4,-0.274074074,-0.008333333,1,0,0,0.4986,optionLeft,80,2640,2,5,0,5,0,1,,,,,,,,,,,,,,,,,,,,,,,,,,,,,,,,,,,,,,,
,,,,,,,,2023-08-16_08h31.06.641,HF_wild_card,2022.2.4,Win32,60.03842459,63d53d150a864eb06120bb88,64d2fd46c836a06233681665,64dc7b2c2f00dfc201b5d4c0,,,,,,,sngl,resources/Empty.png,resources/DR.BMP,WildCard_NonEx,0.323148148,-0.00462963,1,0,0,0.4789,optionRight,55,2695,2,6,0,6,0,1,,,,,,,,,,,,,,,,,,,,,,,,,,,,,,,,,,,,,,,
,,,,,,,,2023-08-16_08h31.06.641,HF_wild_card,2022.2.4,Win32,60.03842459,63d53d150a864eb06120bb88,64d2fd46c836a06233681665,64dc7b2c2f00dfc201b5d4c0,,,,,,,decisionTrl,resources/DB.BMP,resources/DR.BMP,Door4,-0.166666667,-0.000925926,1,0,0,0.4666,optionLeft,80,2775,2,7,0,7,0,1,,,,,,,,,,,,,,,,,,,,,,,,,,,,,,,,,,,,,,,
,,,,,,,,2023-08-16_08h31.06.641,HF_wild_card,2022.2.4,Win32,60.03842459,63d53d150a864eb06120bb88,64d2fd46c836a06233681665,64dc7b2c2f00dfc201b5d4c0,,,,,,,ctch,resources/DB.BMP,resources/DY.BMP,Door4,-0.249074074,-0.008333333,1,0,0,0.5293,optionLeft,60,2835,2,8,0,8,0,1,,,,,,,,,,,,,,,,,,,,,,,,,,,,,,,,,,,,,,,
,,,,,,,,2023-08-16_08h31.06.641,HF_wild_card,2022.2.4,Win32,60.03842459,63d53d150a864eb06120bb88,64d2fd46c836a06233681665,64dc7b2c2f00dfc201b5d4c0,,,,,,,ctch,resources/DY.BMP,resources/DB.BMP,Door4,0.291666667,0.025,1,0,0,0.4456,optionRight,80,2915,2,9,0,9,0,1,,,,,,,,,,,,,,,,,,,,,,,,,,,,,,,,,,,,,,,
,,,,,,,,2023-08-16_08h31.06.641,HF_wild_card,2022.2.4,Win32,60.03842459,63d53d150a864eb06120bb88,64d2fd46c836a06233681665,64dc7b2c2f00dfc201b5d4c0,,,,,,,decisionTrl,resources/DBN.BMP,resources/DY.BMP,Door2,-0.256481481,-0.003703704,1,0,0,1.6528,optionLeft,40,2955,2,10,0,10,0,1,,,,,,,,,,,,,,,,,,,,,,,,,,,,,,,,,,,,,,,
,,,,,,,,2023-08-16_08h31.06.641,HF_wild_card,2022.2.4,Win32,60.03842459,63d53d150a864eb06120bb88,64d2fd46c836a06233681665,64dc7b2c2f00dfc201b5d4c0,,,,,,,decisionTrl,resources/DBN.BMP,resources/DY.BMP,Door2,-0.403703704,0.007407407,1,0,0,0.9329,optionLeft,40,2995,2,11,0,11,0,1,,,,,,,,,,,,,,,,,,,,,,,,,,,,,,,,,,,,,,,
,,,,,,,,2023-08-16_08h31.06.641,HF_wild_card,2022.2.4,Win32,60.03842459,63d53d150a864eb06120bb88,64d2fd46c836a06233681665,64dc7b2c2f00dfc201b5d4c0,,,,,,,decisionTrl,resources/DP.BMP,resources/DB.BMP,Door4,0.392592593,0.003703704,1,0,0,0.6327,optionRight,60,3055,2,12,0,12,0,1,,,,,,,,,,,,,,,,,,,,,,,,,,,,,,,,,,,,,,,
,,,,,,,,2023-08-16_08h31.06.641,HF_wild_card,2022.2.4,Win32,60.03842459,63d53d150a864eb06120bb88,64d2fd46c836a06233681665,64dc7b2c2f00dfc201b5d4c0,,,,,,,decisionTrl,resources/DY.BMP,resources/DBN.BMP,Door1,-0.272222222,0.00462963,1,0,0,0.8125,optionLeft,30,3085,2,13,0,13,0,1,,,,,,,,,,,,,,,,,,,,,,,,,,,,,,,,,,,,,,,
,,,,,,,,2023-08-16_08h31.06.641,HF_wild_card,2022.2.4,Win32,60.03842459,63d53d150a864eb06120bb88,64d2fd46c836a06233681665,64dc7b2c2f00dfc201b5d4c0,,,,,,,decisionTrl,resources/DR.BMP,resources/DP.BMP,Door3,0.431481481,0.002777778,1,0,0,0.9956,optionRight,70,3155,2,14,0,14,0,1,,,,,,,,,,,,,,,,,,,,,,,,,,,,,,,,,,,,,,,
,,,,,,,,2023-08-16_08h31.06.641,HF_wild_card,2022.2.4,Win32,60.03842459,63d53d150a864eb06120bb88,64d2fd46c836a06233681665,64dc7b2c2f00dfc201b5d4c0,,,,,,,sngl,resources/Empty.png,resources/DR.BMP,WildCard_NonEx,0.412037037,-0.002777778,1,0,0,0.6157,optionRight,45,3200,2,15,0,15,0,1,,,,,,,,,,,,,,,,,,,,,,,,,,,,,,,,,,,,,,,
,,,,,,,,2023-08-16_08h31.06.641,HF_wild_card,2022.2.4,Win32,60.03842459,63d53d150a864eb06120bb88,64d2fd46c836a06233681665,64dc7b2c2f00dfc201b5d4c0,,,,,,,sngl,resources/Empty.png,resources/DBN.BMP,Door2,0.468518519,0.000925926,1,0,0,0.5158,optionRight,40,3240,2,16,0,16,0,1,,,,,,,,,,,,,,,,,,,,,,,,,,,,,,,,,,,,,,,
,,,,,,,,2023-08-16_08h31.06.641,HF_wild_card,2022.2.4,Win32,60.03842459,63d53d150a864eb06120bb88,64d2fd46c836a06233681665,64dc7b2c2f00dfc201b5d4c0,,,,,,,decisionTrl,resources/DBN.BMP,resources/DY.BMP,Door1,0.371296296,-0.003703704,1,0,0,2.1197,optionRight,30,3270,2,17,0,17,0,1,,,,,,,,,,,,,,,,,,,,,,,,,,,,,,,,,,,,,,,
,,,,,,,,2023-08-16_08h31.06.641,HF_wild_card,2022.2.4,Win32,60.03842459,63d53d150a864eb06120bb88,64d2fd46c836a06233681665,64dc7b2c2f00dfc201b5d4c0,,,,,,,sngl,resources/Empty.png,resources/DP.BMP,Door3,0.592592593,-0.05462963,1,0,0,0.5824,optionRight,70,3340,2,18,0,18,0,1,,,,,,,,,,,,,,,,,,,,,,,,,,,,,,,,,,,,,,,
,,,,,,,,2023-08-16_08h31.06.641,HF_wild_card,2022.2.4,Win32,60.03842459,63d53d150a864eb06120bb88,64d2fd46c836a06233681665,64dc7b2c2f00dfc201b5d4c0,,,,,,,decisionTrl,resources/DY.BMP,resources/DBN.BMP,Door1,-0.273148148,-0.062037037,1,0,0,2.7155,optionLeft,30,3370,2,19,0,19,0,1,,,,,,,,,,,,,,,,,,,,,,,,,,,,,,,,,,,,,,,
,,,,,,,,2023-08-16_08h31.06.641,HF_wild_card,2022.2.4,Win32,60.03842459,63d53d150a864eb06120bb88,64d2fd46c836a06233681665,64dc7b2c2f00dfc201b5d4c0,,,,,,,decisionTrl,resources/DP.BMP,resources/DR.BMP,Door3,-0.396296296,-0.018518519,1,0,0,1.3791,optionLeft,70,3440,2,20,0,20,0,1,,,,,,,,,,,,,,,,,,,,,,,,,,,,,,,,,,,,,,,
,,,,,,,,2023-08-16_08h31.06.641,HF_wild_card,2022.2.4,Win32,60.03842459,63d53d150a864eb06120bb88,64d2fd46c836a06233681665,64dc7b2c2f00dfc201b5d4c0,,,,,,,ctch,resources/DBN.BMP,resources/DP.BMP,Door3,0.262962963,-0.003703704,1,0,0,1.0324,optionRight,70,3510,2,21,0,21,0,1,,,,,,,,,,,,,,,,,,,,,,,,,,,,,,,,,,,,,,,
,,,,,,,,2023-08-16_08h31.06.641,HF_wild_card,2022.2.4,Win32,60.03842459,63d53d150a864eb06120bb88,64d2fd46c836a06233681665,64dc7b2c2f00dfc201b5d4c0,,,,,,,sngl,resources/DR.BMP,resources/Empty.png,WildCard_NonEx,-0.363888889,-0.001851852,1,0,0,0.5659,optionLeft,45,3555,2,22,0,22,0,1,,,,,,,,,,,,,,,,,,,,,,,,,,,,,,,,,,,,,,,
,,,,,,,,2023-08-16_08h31.06.641,HF_wild_card,2022.2.4,Win32,60.03842459,63d53d150a864eb06120bb88,64d2fd46c836a06233681665,64dc7b2c2f00dfc201b5d4c0,,,,,,,sngl,resources/Empty.png,resources/DY.BMP,Door1,0.351851852,0.005555556,1,0,0,0.5122,optionRight,30,3585,2,23,0,23,0,1,,,,,,,,,,,,,,,,,,,,,,,,,,,,,,,,,,,,,,,
,,,,,,,,2023-08-16_08h31.06.641,HF_wild_card,2022.2.4,Win32,60.03842459,63d53d150a864eb06120bb88,64d2fd46c836a06233681665,64dc7b2c2f00dfc201b5d4c0,,,,,,,decisionTrl,resources/DY.BMP,resources/DBN.BMP,Door2,0.312962963,0.012962963,1,0,0,1.2623,optionRight,20,3605,2,24,0,24,0,1,,,,,,,,,,,,,,,,,,,,,,,,,,,,,,,,,,,,,,,
,,,,,,,,2023-08-16_08h31.06.641,HF_wild_card,2022.2.4,Win32,60.03842459,63d53d150a864eb06120bb88,64d2fd46c836a06233681665,64dc7b2c2f00dfc201b5d4c0,,,,,,,sngl,resources/DY.BMP,resources/Empty.png,Door1,-0.624074074,0.010185185,1,0,0,0.5122,optionLeft,30,3635,2,25,0,25,0,1,,,,,,,,,,,,,,,,,,,,,,,,,,,,,,,,,,,,,,,
,,,,,,,,2023-08-16_08h31.06.641,HF_wild_card,2022.2.4,Win32,60.03842459,63d53d150a864eb06120bb88,64d2fd46c836a06233681665,64dc7b2c2f00dfc201b5d4c0,,,,,,,decisionTrl,resources/DR.BMP,resources/DBN.BMP,WildCard_NonEx,-0.291666667,0.007407407,1,0,0,0.952,optionLeft,55,3690,2,26,0,26,0,1,,,,,,,,,,,,,,,,,,,,,,,,,,,,,,,,,,,,,,,
,,,,,,,,2023-08-16_08h31.06.641,HF_wild_card,2022.2.4,Win32,60.03842459,63d53d150a864eb06120bb88,64d2fd46c836a06233681665,64dc7b2c2f00dfc201b5d4c0,,,,,,,decisionTrl,resources/DB.BMP,resources/DP.BMP,Door4,-0.388888889,-0.005555556,1,0,0,0.6623,optionLeft,60,3750,2,27,0,27,0,1,,,,,,,,,,,,,,,,,,,,,,,,,,,,,,,,,,,,,,,
,,,,,,,,2023-08-16_08h31.06.641,HF_wild_card,2022.2.4,Win32,60.03842459,63d53d150a864eb06120bb88,64d2fd46c836a06233681665,64dc7b2c2f00dfc201b5d4c0,,,,,,,decisionTrl,resources/DP.BMP,resources/DB.BMP,Door3,-0.369444444,0.002777778,1,0,0,1.0696,optionLeft,70,3820,2,28,0,28,0,1,,,,,,,,,,,,,,,,,,,,,,,,,,,,,,,,,,,,,,,
,,,,,,,,2023-08-16_08h31.06.641,HF_wild_card,2022.2.4,Win32,60.03842459,63d53d150a864eb06120bb88,64d2fd46c836a06233681665,64dc7b2c2f00dfc201b5d4c0,,,,,,,decisionTrl,resources/DB.BMP,resources/DP.BMP,Door3,0.508333333,0.002777778,1,0,0,0.6529,optionRight,70,3890,2,29,0,29,0,1,,,,,,,,,,,,,,,,,,,,,,,,,,,,,,,,,,,,,,,
,,,,,,,,2023-08-16_08h31.06.641,HF_wild_card,2022.2.4,Win32,60.03842459,63d53d150a864eb06120bb88,64d2fd46c836a06233681665,64dc7b2c2f00dfc201b5d4c0,,,,,,,ctch,resources/DBN.BMP,resources/DP.BMP,Door3,0.373148148,0.016666667,1,0,0,0.6288,optionRight,70,3960,2,30,0,30,0,1,,,,,,,,,,,,,,,,,,,,,,,,,,,,,,,,,,,,,,,
,,,,,,,,2023-08-16_08h31.06.641,HF_wild_card,2022.2.4,Win32,60.03842459,63d53d150a864eb06120bb88,64d2fd46c836a06233681665,64dc7b2c2f00dfc201b5d4c0,,,,,,,ctch,resources/DB.BMP,resources/DY.BMP,Door4,-0.408333333,0.017592593,1,0,0,1.4458,optionLeft,60,4020,2,31,0,31,0,1,,,,,,,,,,,,,,,,,,,,,,,,,,,,,,,,,,,,,,,
,,,,,,,,2023-08-16_08h31.06.641,HF_wild_card,2022.2.4,Win32,60.03842459,63d53d150a864eb06120bb88,64d2fd46c836a06233681665,64dc7b2c2f00dfc201b5d4c0,,,,,,,decisionTrl,resources/DP.BMP,resources/DB.BMP,Door3,-0.346296296,-0.014814815,1,0,0,0.7158,optionLeft,70,4090,2,32,0,32,0,1,,,,,,,,,,,,,,,,,,,,,,,,,,,,,,,,,,,,,,,
,,,,,,,,2023-08-16_08h31.06.641,HF_wild_card,2022.2.4,Win32,60.03842459,63d53d150a864eb06120bb88,64d2fd46c836a06233681665,64dc7b2c2f00dfc201b5d4c0,,,,,,,sngl,resources/DP.BMP,resources/Empty.png,Door3,-0.331481481,0,1,0,0,0.4956,optionLeft,70,4160,2,33,0,33,0,1,,,,,,,,,,,,,,,,,,,,,,,,,,,,,,,,,,,,,,,
,,,,,,,,2023-08-16_08h31.06.641,HF_wild_card,2022.2.4,Win32,60.03842459,63d53d150a864eb06120bb88,64d2fd46c836a06233681665,64dc7b2c2f00dfc201b5d4c0,,,,,,,decisionTrl,resources/DBN.BMP,resources/DY.BMP,Door1,0.364814815,0.05,1,0,0,0.7364,optionRight,30,4190,2,34,0,34,0,1,,,,,,,,,,,,,,,,,,,,,,,,,,,,,,,,,,,,,,,
,,,,,,,,2023-08-16_08h31.06.641,HF_wild_card,2022.2.4,Win32,60.03842459,63d53d150a864eb06120bb88,64d2fd46c836a06233681665,64dc7b2c2f00dfc201b5d4c0,,,,,,,ctch,resources/DY.BMP,resources/DB.BMP,Door4,0.467592593,0.038888889,1,0,0,1.2463,optionRight,60,4250,2,35,0,35,0,1,,,,,,,,,,,,,,,,,,,,,,,,,,,,,,,,,,,,,,,
,,,,,,,,2023-08-16_08h31.06.641,HF_wild_card,2022.2.4,Win32,60.03842459,63d53d150a864eb06120bb88,64d2fd46c836a06233681665,64dc7b2c2f00dfc201b5d4c0,,,,,,,decisionTrl,resources/DR.BMP,resources/DB.BMP,Door4,0.501851852,-0.00462963,1,0,0,1.0198,optionRight,80,4330,2,36,0,36,0,1,,,,,,,,,,,,,,,,,,,,,,,,,,,,,,,,,,,,,,,
,,,,,,,,2023-08-16_08h31.06.641,HF_wild_card,2022.2.4,Win32,60.03842459,63d53d150a864eb06120bb88,64d2fd46c836a06233681665,64dc7b2c2f00dfc201b5d4c0,,,,,,,ctch,resources/DP.BMP,resources/DBN.BMP,Door3,-0.275,-0.002777778,1,0,0,0.6824,optionLeft,70,4400,2,37,0,37,0,1,,,,,,,,,,,,,,,,,,,,,,,,,,,,,,,,,,,,,,,
,,,,,,,,2023-08-16_08h31.06.641,HF_wild_card,2022.2.4,Win32,60.03842459,63d53d150a864eb06120bb88,64d2fd46c836a06233681665,64dc7b2c2f00dfc201b5d4c0,,,,,,,decisionTrl,resources/DY.BMP,resources/DR.BMP,Door1,-0.225925926,0.008333333,1,0,0,0.666,optionLeft,30,4430,2,38,0,38,0,1,,,,,,,,,,,,,,,,,,,,,,,,,,,,,,,,,,,,,,,
,,,,,,,,2023-08-16_08h31.06.641,HF_wild_card,2022.2.4,Win32,60.03842459,63d53d150a864eb06120bb88,64d2fd46c836a06233681665,64dc7b2c2f00dfc201b5d4c0,,,,,,,decisionTrl,resources/DY.BMP,resources/DBN.BMP,Door2,0.355555556,0.035185185,1,0,0,1.4323,optionRight,40,4470,2,39,0,39,0,1,,,,,,,,,,,,,,,,,,,,,,,,,,,,,,,,,,,,,,,
,,,,,,,,2023-08-16_08h31.06.641,HF_wild_card,2022.2.4,Win32,60.03842459,63d53d150a864eb06120bb88,64d2fd46c836a06233681665,64dc7b2c2f00dfc201b5d4c0,,,,,,,ctch,resources/DP.BMP,resources/DBN.BMP,Door3,-0.380555556,-0.014814815,1,0,0,0.6948,optionLeft,70,4540,2,40,0,40,0,1,,,,,,,,,,,,,,,,,,,,,,,,,,,,,,,,,,,,,,,
,,,,,,,,2023-08-16_08h31.06.641,HF_wild_card,2022.2.4,Win32,60.03842459,63d53d150a864eb06120bb88,64d2fd46c836a06233681665,64dc7b2c2f00dfc201b5d4c0,,,,,,,sngl,resources/DB.BMP,resources/Empty.png,Door4,-0.499074074,0.008333333,1,0,0,0.516,optionLeft,60,4600,2,41,0,41,0,1,,,,,,,,,,,,,,,,,,,,,,,,,,,,,,,,,,,,,,,
,,,,,,,,2023-08-16_08h31.06.641,HF_wild_card,2022.2.4,Win32,60.03842459,63d53d150a864eb06120bb88,64d2fd46c836a06233681665,64dc7b2c2f00dfc201b5d4c0,,,,,,,decisionTrl,resources/DB.BMP,resources/DP.BMP,Door3,0.353703704,-0.009259259,1,0,0,1.801,optionRight,70,4670,2,42,0,42,0,1,,,,,,,,,,,,,,,,,,,,,,,,,,,,,,,,,,,,,,,
,,,,,,,,2023-08-16_08h31.06.641,HF_wild_card,2022.2.4,Win32,60.03842459,63d53d150a864eb06120bb88,64d2fd46c836a06233681665,64dc7b2c2f00dfc201b5d4c0,,,,,,,decisionTrl,resources/DR.BMP,resources/DY.BMP,WildCard_NonEx,-0.391666667,-0.021296296,1,0,0,1.1824,optionLeft,45,4715,2,43,0,43,0,1,,,,,,,,,,,,,,,,,,,,,,,,,,,,,,,,,,,,,,,
,,,,,,,,2023-08-16_08h31.06.641,HF_wild_card,2022.2.4,Win32,60.03842459,63d53d150a864eb06120bb88,64d2fd46c836a06233681665,64dc7b2c2f00dfc201b5d4c0,,,,,,,,,,,,,,,,,,,,,,,,,,1,0,1,0,1,,,,,,,,,,,,,,,,,,,,,,,,,,,,,,,,,,
,,,,,,,,2023-08-16_08h31.06.641,HF_wild_card,2022.2.4,Win32,60.03842459,63d53d150a864eb06120bb88,64d2fd46c836a06233681665,64dc7b2c2f00dfc201b5d4c0,,,,,,,decisionTrl,resources/DY.BMP,resources/DBN.BMP,Door1,-0.383333333,0.015740741,1,0,0,0.5479,optionLeft,30,4745,3,0,0,0,0,1,,,,,,,,,,,,,,,,,,,,,,,,,,,,,,,,,,,,,,,
,,,,,,,,2023-08-16_08h31.06.641,HF_wild_card,2022.2.4,Win32,60.03842459,63d53d150a864eb06120bb88,64d2fd46c836a06233681665,64dc7b2c2f00dfc201b5d4c0,,,,,,,decisionTrl,resources/DP.BMP,resources/DB.BMP,Door3,-0.580555556,-0.00462963,1,0,0,0.8331,optionLeft,70,4815,3,1,0,1,0,1,,,,,,,,,,,,,,,,,,,,,,,,,,,,,,,,,,,,,,,
,,,,,,,,2023-08-16_08h31.06.641,HF_wild_card,2022.2.4,Win32,60.03842459,63d53d150a864eb06120bb88,64d2fd46c836a06233681665,64dc7b2c2f00dfc201b5d4c0,,,,,,,decisionTrl,resources/DBN.BMP,resources/DY.BMP,Door1,0.328703704,0.010185185,1,0,0,0.7158,optionRight,30,4845,3,2,0,2,0,1,,,,,,,,,,,,,,,,,,,,,,,,,,,,,,,,,,,,,,,
,,,,,,,,2023-08-16_08h31.06.641,HF_wild_card,2022.2.4,Win32,60.03842459,63d53d150a864eb06120bb88,64d2fd46c836a06233681665,64dc7b2c2f00dfc201b5d4c0,,,,,,,decisionTrl,resources/DBN.BMP,resources/DY.BMP,Door1,0.382407407,0.001851852,1,0,0,0.583,optionRight,30,4875,3,3,0,3,0,1,,,,,,,,,,,,,,,,,,,,,,,,,,,,,,,,,,,,,,,
,,,,,,,,2023-08-16_08h31.06.641,HF_wild_card,2022.2.4,Win32,60.03842459,63d53d150a864eb06120bb88,64d2fd46c836a06233681665,64dc7b2c2f00dfc201b5d4c0,,,,,,,sngl,resources/Empty.png,resources/DP.BMP,Door3,0.316666667,0.013888889,1,0,0,0.5157,optionRight,70,4945,3,4,0,4,0,1,,,,,,,,,,,,,,,,,,,,,,,,,,,,,,,,,,,,,,,
,,,,,,,,2023-08-16_08h31.06.641,HF_wild_card,2022.2.4,Win32,60.03842459,63d53d150a864eb06120bb88,64d2fd46c836a06233681665,64dc7b2c2f00dfc201b5d4c0,,,,,,,decisionTrl,resources/DB.BMP,resources/DP.BMP,Door3,0.509259259,-0.02037037,1,0,0,0.9661,optionRight,70,5015,3,5,0,5,0,1,,,,,,,,,,,,,,,,,,,,,,,,,,,,,,,,,,,,,,,
,,,,,,,,2023-08-16_08h31.06.641,HF_wild_card,2022.2.4,Win32,60.03842459,63d53d150a864eb06120bb88,64d2fd46c836a06233681665,64dc7b2c2f00dfc201b5d4c0,,,,,,,decisionTrl,resources/DB.BMP,resources/DP.BMP,Door3,0.35462963,-0.010185185,1,0,0,0.6198,optionRight,70,5085,3,6,0,6,0,1,,,,,,,,,,,,,,,,,,,,,,,,,,,,,,,,,,,,,,,
,,,,,,,,2023-08-16_08h31.06.641,HF_wild_card,2022.2.4,Win32,60.03842459,63d53d150a864eb06120bb88,64d2fd46c836a06233681665,64dc7b2c2f00dfc201b5d4c0,,,,,,,decisionTrl,resources/DP.BMP,resources/DR.BMP,Door3,-0.447222222,-0.025,1,0,0,0.7123,optionLeft,70,5155,3,7,0,7,0,1,,,,,,,,,,,,,,,,,,,,,,,,,,,,,,,,,,,,,,,
,,,,,,,,2023-08-16_08h31.06.641,HF_wild_card,2022.2.4,Win32,60.03842459,63d53d150a864eb06120bb88,64d2fd46c836a06233681665,64dc7b2c2f00dfc201b5d4c0,,,,,,,ctch,resources/DB.BMP,resources/DY.BMP,Door4,-0.459259259,-0.025,1,0,0,1.8529,optionLeft,80,5235,3,8,0,8,0,1,,,,,,,,,,,,,,,,,,,,,,,,,,,,,,,,,,,,,,,
,,,,,,,,2023-08-16_08h31.06.641,HF_wild_card,2022.2.4,Win32,60.03842459,63d53d150a864eb06120bb88,64d2fd46c836a06233681665,64dc7b2c2f00dfc201b5d4c0,,,,,,,decisionTrl,resources/DP.BMP,resources/DB.BMP,Door3,-0.262037037,-0.006481481,1,0,0,0.7492,optionLeft,70,5305,3,9,0,9,0,1,,,,,,,,,,,,,,,,,,,,,,,,,,,,,,,,,,,,,,,
,,,,,,,,2023-08-16_08h31.06.641,HF_wild_card,2022.2.4,Win32,60.03842459,63d53d150a864eb06120bb88,64d2fd46c836a06233681665,64dc7b2c2f00dfc201b5d4c0,,,,,,,sngl,resources/DY.BMP,resources/Empty.png,Door1,-0.37962963,-0.016666667,1,0,0,0.5359,optionLeft,30,5335,3,10,0,10,0,1,,,,,,,,,,,,,,,,,,,,,,,,,,,,,,,,,,,,,,,
,,,,,,,,2023-08-16_08h31.06.641,HF_wild_card,2022.2.4,Win32,60.03842459,63d53d150a864eb06120bb88,64d2fd46c836a06233681665,64dc7b2c2f00dfc201b5d4c0,,,,,,,ctch,resources/DBN.BMP,resources/DP.BMP,Door3,0.3,-0.00462963,1,0,0,0.6454,optionRight,70,5405,3,11,0,11,0,1,,,,,,,,,,,,,,,,,,,,,,,,,,,,,,,,,,,,,,,
,,,,,,,,2023-08-16_08h31.06.641,HF_wild_card,2022.2.4,Win32,60.03842459,63d53d150a864eb06120bb88,64d2fd46c836a06233681665,64dc7b2c2f00dfc201b5d4c0,,,,,,,decisionTrl,resources/DB.BMP,resources/DP.BMP,Door3,0.378703704,-0.009259259,1,0,0,0.8157,optionRight,70,5475,3,12,0,12,0,1,,,,,,,,,,,,,,,,,,,,,,,,,,,,,,,,,,,,,,,
,,,,,,,,2023-08-16_08h31.06.641,HF_wild_card,2022.2.4,Win32,60.03842459,63d53d150a864eb06120bb88,64d2fd46c836a06233681665,64dc7b2c2f00dfc201b5d4c0,,,,,,,decisionTrl,resources/DY.BMP,resources/DBN.BMP,Door1,-0.400925926,0.007407407,1,0,0,1.0118,optionLeft,30,5505,3,13,0,13,0,1,,,,,,,,,,,,,,,,,,,,,,,,,,,,,,,,,,,,,,,
,,,,,,,,2023-08-16_08h31.06.641,HF_wild_card,2022.2.4,Win32,60.03842459,63d53d150a864eb06120bb88,64d2fd46c836a06233681665,64dc7b2c2f00dfc201b5d4c0,,,,,,,sngl,resources/Empty.png,resources/DY.BMP,Door1,0.332407407,0.00462963,1,0,0,0.5361,optionRight,30,5535,3,14,0,14,0,1,,,,,,,,,,,,,,,,,,,,,,,,,,,,,,,,,,,,,,,
,,,,,,,,2023-08-16_08h31.06.641,HF_wild_card,2022.2.4,Win32,60.03842459,63d53d150a864eb06120bb88,64d2fd46c836a06233681665,64dc7b2c2f00dfc201b5d4c0,,,,,,,decisionTrl,resources/DR.BMP,resources/DY.BMP,WildCard_NonEx,-0.318518519,-0.023148148,1,0,0,1.5624,optionLeft,45,5580,3,15,0,15,0,1,,,,,,,,,,,,,,,,,,,,,,,,,,,,,,,,,,,,,,,
,,,,,,,,2023-08-16_08h31.06.641,HF_wild_card,2022.2.4,Win32,60.03842459,63d53d150a864eb06120bb88,64d2fd46c836a06233681665,64dc7b2c2f00dfc201b5d4c0,,,,,,,ctch,resources/DP.BMP,resources/DBN.BMP,Door3,-0.367592593,-0.026851852,1,0,0,0.7027,optionLeft,70,5650,3,16,0,16,0,1,,,,,,,,,,,,,,,,,,,,,,,,,,,,,,,,,,,,,,,
,,,,,,,,2023-08-16_08h31.06.641,HF_wild_card,2022.2.4,Win32,60.03842459,63d53d150a864eb06120bb88,64d2fd46c836a06233681665,64dc7b2c2f00dfc201b5d4c0,,,,,,,decisionTrl,resources/DB.BMP,resources/DP.BMP,Door3,0.336111111,-0.011111111,1,0,0,0.9156,optionRight,70,5720,3,17,0,17,0,1,,,,,,,,,,,,,,,,,,,,,,,,,,,,,,,,,,,,,,,
,,,,,,,,2023-08-16_08h31.06.641,HF_wild_card,2022.2.4,Win32,60.03842459,63d53d150a864eb06120bb88,64d2fd46c836a06233681665,64dc7b2c2f00dfc201b5d4c0,,,,,,,decisionTrl,resources/DY.BMP,resources/DBN.BMP,Door1,-0.313888889,-0.002777778,1,0,0,0.6494,optionLeft,30,5750,3,18,0,18,0,1,,,,,,,,,,,,,,,,,,,,,,,,,,,,,,,,,,,,,,,
,,,,,,,,2023-08-16_08h31.06.641,HF_wild_card,2022.2.4,Win32,60.03842459,63d53d150a864eb06120bb88,64d2fd46c836a06233681665,64dc7b2c2f00dfc201b5d4c0,,,,,,,sngl,resources/DR.BMP,resources/Empty.png,WildCard_NonEx,-0.397222222,-0.012962963,1,0,0,0.5657,optionLeft,55,5805,3,19,0,19,0,1,,,,,,,,,,,,,,,,,,,,,,,,,,,,,,,,,,,,,,,
,,,,,,,,2023-08-16_08h31.06.641,HF_wild_card,2022.2.4,Win32,60.03842459,63d53d150a864eb06120bb88,64d2fd46c836a06233681665,64dc7b2c2f00dfc201b5d4c0,,,,,,,sngl,resources/Empty.png,resources/DB.BMP,Door4,0.45,0.019444444,1,0,0,0.4859,optionRight,60,5865,3,20,0,20,0,1,,,,,,,,,,,,,,,,,,,,,,,,,,,,,,,,,,,,,,,
,,,,,,,,2023-08-16_08h31.06.641,HF_wild_card,2022.2.4,Win32,60.03842459,63d53d150a864eb06120bb88,64d2fd46c836a06233681665,64dc7b2c2f00dfc201b5d4c0,,,,,,,sngl,resources/DB.BMP,resources/Empty.png,Door4,-0.303703704,0.006481481,1,0,0,0.4623,optionLeft,80,5945,3,21,0,21,0,1,,,,,,,,,,,,,,,,,,,,,,,,,,,,,,,,,,,,,,,
,,,,,,,,2023-08-16_08h31.06.641,HF_wild_card,2022.2.4,Win32,60.03842459,63d53d150a864eb06120bb88,64d2fd46c836a06233681665,64dc7b2c2f00dfc201b5d4c0,,,,,,,sngl,resources/Empty.png,resources/DBN.BMP,Door2,0.340740741,0.010185185,1,0,0,1.1023,optionRight,20,5965,3,22,0,22,0,1,,,,,,,,,,,,,,,,,,,,,,,,,,,,,,,,,,,,,,,
,,,,,,,,2023-08-16_08h31.06.641,HF_wild_card,2022.2.4,Win32,60.03842459,63d53d150a864eb06120bb88,64d2fd46c836a06233681665,64dc7b2c2f00dfc201b5d4c0,,,,,,,ctch,resources/DBN.BMP,resources/DP.BMP,Door3,0.367592593,0.000925926,1,0,0,0.5988,optionRight,70,6035,3,23,0,23,0,1,,,,,,,,,,,,,,,,,,,,,,,,,,,,,,,,,,,,,,,
,,,,,,,,2023-08-16_08h31.06.641,HF_wild_card,2022.2.4,Win32,60.03842459,63d53d150a864eb06120bb88,64d2fd46c836a06233681665,64dc7b2c2f00dfc201b5d4c0,,,,,,,decisionTrl,resources/DR.BMP,resources/DB.BMP,Door4,0.419444444,0.006481481,1,0,0,0.5606,optionRight,60,6095,3,24,0,24,0,1,,,,,,,,,,,,,,,,,,,,,,,,,,,,,,,,,,,,,,,
,,,,,,,,2023-08-16_08h31.06.641,HF_wild_card,2022.2.4,Win32,60.03842459,63d53d150a864eb06120bb88,64d2fd46c836a06233681665,64dc7b2c2f00dfc201b5d4c0,,,,,,,decisionTrl,resources/DY.BMP,resources/DR.BMP,WildCard_NonEx,0.572222222,0.02037037,1,0,0,1.3695,optionRight,55,6150,3,25,0,25,0,1,,,,,,,,,,,,,,,,,,,,,,,,,,,,,,,,,,,,,,,
,,,,,,,,2023-08-16_08h31.06.641,HF_wild_card,2022.2.4,Win32,60.03842459,63d53d150a864eb06120bb88,64d2fd46c836a06233681665,64dc7b2c2f00dfc201b5d4c0,,,,,,,decisionTrl,resources/DY.BMP,resources/DBN.BMP,Door1,-0.261111111,-0.010185185,1,0,0,0.6956,optionLeft,30,6180,3,26,0,26,0,1,,,,,,,,,,,,,,,,,,,,,,,,,,,,,,,,,,,,,,,
,,,,,,,,2023-08-16_08h31.06.641,HF_wild_card,2022.2.4,Win32,60.03842459,63d53d150a864eb06120bb88,64d2fd46c836a06233681665,64dc7b2c2f00dfc201b5d4c0,,,,,,,sngl,resources/Empty.png,resources/DR.BMP,WildCard_NonEx,0.519444444,-0.012037037,1,0,0,0.4823,optionRight,45,6225,3,27,0,27,0,1,,,,,,,,,,,,,,,,,,,,,,,,,,,,,,,,,,,,,,,
,,,,,,,,2023-08-16_08h31.06.641,HF_wild_card,2022.2.4,Win32,60.03842459,63d53d150a864eb06120bb88,64d2fd46c836a06233681665,64dc7b2c2f00dfc201b5d4c0,,,,,,,decisionTrl,resources/DP.BMP,resources/DB.BMP,Door3,-0.42037037,-0.017592593,1,0,0,0.9989,optionLeft,70,6295,3,28,0,28,0,1,,,,,,,,,,,,,,,,,,,,,,,,,,,,,,,,,,,,,,,
,,,,,,,,2023-08-16_08h31.06.641,HF_wild_card,2022.2.4,Win32,60.03842459,63d53d150a864eb06120bb88,64d2fd46c836a06233681665,64dc7b2c2f00dfc201b5d4c0,,,,,,,decisionTrl,resources/DBN.BMP,resources/DY.BMP,Door1,0.343518519,0.002777778,1,0,0,0.6122,optionRight,30,6325,3,29,0,29,0,1,,,,,,,,,,,,,,,,,,,,,,,,,,,,,,,,,,,,,,,
,,,,,,,,2023-08-16_08h31.06.641,HF_wild_card,2022.2.4,Win32,60.03842459,63d53d150a864eb06120bb88,64d2fd46c836a06233681665,64dc7b2c2f00dfc201b5d4c0,,,,,,,ctch,resources/DP.BMP,resources/DBN.BMP,Door3,-0.35,-0.016666667,1,0,0,0.499,optionLeft,70,6395,3,30,0,30,0,1,,,,,,,,,,,,,,,,,,,,,,,,,,,,,,,,,,,,,,,
,,,,,,,,2023-08-16_08h31.06.641,HF_wild_card,2022.2.4,Win32,60.03842459,63d53d150a864eb06120bb88,64d2fd46c836a06233681665,64dc7b2c2f00dfc201b5d4c0,,,,,,,sngl,resources/DBN.BMP,resources/Empty.png,Door2,-0.347222222,-0.010185185,1,0,0,0.5784,optionLeft,40,6435,3,31,0,31,0,1,,,,,,,,,,,,,,,,,,,,,,,,,,,,,,,,,,,,,,,
,,,,,,,,2023-08-16_08h31.06.641,HF_wild_card,2022.2.4,Win32,60.03842459,63d53d150a864eb06120bb88,64d2fd46c836a06233681665,64dc7b2c2f00dfc201b5d4c0,,,,,,,ctch,resources/DY.BMP,resources/DB.BMP,Door4,0.591666667,0.000925926,1,0,0,1.4956,optionRight,80,6515,3,32,0,32,0,1,,,,,,,,,,,,,,,,,,,,,,,,,,,,,,,,,,,,,,,
,,,,,,,,2023-08-16_08h31.06.641,HF_wild_card,2022.2.4,Win32,60.03842459,63d53d150a864eb06120bb88,64d2fd46c836a06233681665,64dc7b2c2f00dfc201b5d4c0,,,,,,,sngl,resources/DR.BMP,resources/Empty.png,WildCard_NonEx,-0.439814815,-0.007407407,1,0,0,0.4788,optionLeft,45,6560,3,33,0,33,0,1,,,,,,,,,,,,,,,,,,,,,,,,,,,,,,,,,,,,,,,
,,,,,,,,2023-08-16_08h31.06.641,HF_wild_card,2022.2.4,Win32,60.03842459,63d53d150a864eb06120bb88,64d2fd46c836a06233681665,64dc7b2c2f00dfc201b5d4c0,,,,,,,sngl,resources/DP.BMP,resources/Empty.png,Door3,-0.52037037,0.003703704,1,0,0,0.5325,optionLeft,70,6630,3,34,0,34,0,1,,,,,,,,,,,,,,,,,,,,,,,,,,,,,,,,,,,,,,,
,,,,,,,,2023-08-16_08h31.06.641,HF_wild_card,2022.2.4,Win32,60.03842459,63d53d150a864eb06120bb88,64d2fd46c836a06233681665,64dc7b2c2f00dfc201b5d4c0,,,,,,,ctch,resources/DB.BMP,resources/DY.BMP,Door4,-0.337962963,-0.010185185,1,0,0,0.7956,optionLeft,60,6690,3,35,0,35,0,1,,,,,,,,,,,,,,,,,,,,,,,,,,,,,,,,,,,,,,,
,,,,,,,,2023-08-16_08h31.06.641,HF_wild_card,2022.2.4,Win32,60.03842459,63d53d150a864eb06120bb88,64d2fd46c836a06233681665,64dc7b2c2f00dfc201b5d4c0,,,,,,,decisionTrl,resources/DB.BMP,resources/DR.BMP,Door4,-0.377777778,-0.014814815,1,0,0,0.4953,optionLeft,80,6770,3,36,0,36,0,1,,,,,,,,,,,,,,,,,,,,,,,,,,,,,,,,,,,,,,,
,,,,,,,,2023-08-16_08h31.06.641,HF_wild_card,2022.2.4,Win32,60.03842459,63d53d150a864eb06120bb88,64d2fd46c836a06233681665,64dc7b2c2f00dfc201b5d4c0,,,,,,,ctch,resources/DY.BMP,resources/DB.BMP,Door4,0.363888889,0.005555556,1,0,0,0.5121,optionRight,80,6850,3,37,0,37,0,1,,,,,,,,,,,,,,,,,,,,,,,,,,,,,,,,,,,,,,,
,,,,,,,,2023-08-16_08h31.06.641,HF_wild_card,2022.2.4,Win32,60.03842459,63d53d150a864eb06120bb88,64d2fd46c836a06233681665,64dc7b2c2f00dfc201b5d4c0,,,,,,,decisionTrl,resources/DP.BMP,resources/DB.BMP,Door4,0.228703704,-0.003703704,1,0,0,0.6654,optionRight,60,6910,3,38,0,38,0,1,,,,,,,,,,,,,,,,,,,,,,,,,,,,,,,,,,,,,,,
,,,,,,,,2023-08-16_08h31.06.641,HF_wild_card,2022.2.4,Win32,60.03842459,63d53d150a864eb06120bb88,64d2fd46c836a06233681665,64dc7b2c2f00dfc201b5d4c0,,,,,,,sngl,resources/Empty.png,resources/DR.BMP,WildCard_NonEx,0.353703704,-0.025,1,0,0,0.632,optionRight,55,6965,3,39,0,39,0,1,,,,,,,,,,,,,,,,,,,,,,,,,,,,,,,,,,,,,,,
,,,,,,,,2023-08-16_08h31.06.641,HF_wild_card,2022.2.4,Win32,60.03842459,63d53d150a864eb06120bb88,64d2fd46c836a06233681665,64dc7b2c2f00dfc201b5d4c0,,,,,,,decisionTrl,resources/DBN.BMP,resources/DY.BMP,Door1,0.403703704,-0.003703704,1,0,0,0.6791,optionRight,30,6995,3,40,0,40,0,1,,,,,,,,,,,,,,,,,,,,,,,,,,,,,,,,,,,,,,,
,,,,,,,,2023-08-16_08h31.06.641,HF_wild_card,2022.2.4,Win32,60.03842459,63d53d150a864eb06120bb88,64d2fd46c836a06233681665,64dc7b2c2f00dfc201b5d4c0,,,,,,,decisionTrl,resources/DBN.BMP,resources/DR.BMP,WildCard_NonEx,0.248148148,0.012962963,1,0,0,0.6653,optionRight,55,7050,3,41,0,41,0,1,,,,,,,,,,,,,,,,,,,,,,,,,,,,,,,,,,,,,,,
,,,,,,,,2023-08-16_08h31.06.641,HF_wild_card,2022.2.4,Win32,60.03842459,63d53d150a864eb06120bb88,64d2fd46c836a06233681665,64dc7b2c2f00dfc201b5d4c0,,,,,,,decisionTrl,resources/DR.BMP,resources/DBN.BMP,WildCard_NonEx,-0.378703704,0.008333333,1,0,0,0.5333,optionLeft,45,7095,3,42,0,42,0,1,,,,,,,,,,,,,,,,,,,,,,,,,,,,,,,,,,,,,,,
,,,,,,,,2023-08-16_08h31.06.641,HF_wild_card,2022.2.4,Win32,60.03842459,63d53d150a864eb06120bb88,64d2fd46c836a06233681665,64dc7b2c2f00dfc201b5d4c0,,,,,,,decisionTrl,resources/DR.BMP,resources/DP.BMP,Door3,0.432407407,0.013888889,1,0,0,0.5485,optionRight,70,7165,3,43,0,43,0,1,,,,,,,,,,,,,,,,,,,,,,,,,,,,,,,,,,,,,,,
,,,,,,,,2023-08-16_08h31.06.641,HF_wild_card,2022.2.4,Win32,60.03842459,63d53d150a864eb06120bb88,64d2fd46c836a06233681665,64dc7b2c2f00dfc201b5d4c0,,,,,,,,,,,,,,,,,,,,,,,,,,2,0,2,0,1,,,,,,,,,,,,,,,,,,,,,,,,,,,,,,,,,,
,,,,,,,,2023-08-16_08h31.06.641,HF_wild_card,2022.2.4,Win32,60.03842459,63d53d150a864eb06120bb88,64d2fd46c836a06233681665,64dc7b2c2f00dfc201b5d4c0,,,,,,,sngl,resources/DB.BMP,resources/Empty.png,Door4,-0.587962963,0.065740741,1,0,0,0.5184,optionLeft,60,7225,4,0,0,0,0,1,,,,,,,,,,,,,,,,,,,,,,,,,,,,,,,,,,,,,,,
,,,,,,,,2023-08-16_08h31.06.641,HF_wild_card,2022.2.4,Win32,60.03842459,63d53d150a864eb06120bb88,64d2fd46c836a06233681665,64dc7b2c2f00dfc201b5d4c0,,,,,,,decisionTrl,resources/DB.BMP,resources/DP.BMP,Door3,0.39537037,0.001851852,1,0,0,1.253,optionRight,70,7295,4,1,0,1,0,1,,,,,,,,,,,,,,,,,,,,,,,,,,,,,,,,,,,,,,,
,,,,,,,,2023-08-16_08h31.06.641,HF_wild_card,2022.2.4,Win32,60.03842459,63d53d150a864eb06120bb88,64d2fd46c836a06233681665,64dc7b2c2f00dfc201b5d4c0,,,,,,,decisionTrl,resources/DP.BMP,resources/DB.BMP,Door3,-0.507407407,0.012962963,1,0,0,0.579,optionLeft,70,7365,4,2,0,2,0,1,,,,,,,,,,,,,,,,,,,,,,,,,,,,,,,,,,,,,,,
,,,,,,,,2023-08-16_08h31.06.641,HF_wild_card,2022.2.4,Win32,60.03842459,63d53d150a864eb06120bb88,64d2fd46c836a06233681665,64dc7b2c2f00dfc201b5d4c0,,,,,,,sngl,resources/DY.BMP,resources/Empty.png,Door1,-0.516666667,0,1,0,0,0.5025,optionLeft,30,7395,4,3,0,3,0,1,,,,,,,,,,,,,,,,,,,,,,,,,,,,,,,,,,,,,,,
,,,,,,,,2023-08-16_08h31.06.641,HF_wild_card,2022.2.4,Win32,60.03842459,63d53d150a864eb06120bb88,64d2fd46c836a06233681665,64dc7b2c2f00dfc201b5d4c0,,,,,,,decisionTrl,resources/DY.BMP,resources/DBN.BMP,Door1,-0.449074074,0.00462963,1,0,0,0.5363,optionLeft,30,7425,4,4,0,4,0,1,,,,,,,,,,,,,,,,,,,,,,,,,,,,,,,,,,,,,,,
,,,,,,,,2023-08-16_08h31.06.641,HF_wild_card,2022.2.4,Win32,60.03842459,63d53d150a864eb06120bb88,64d2fd46c836a06233681665,64dc7b2c2f00dfc201b5d4c0,,,,,,,sngl,resources/Empty.png,resources/DP.BMP,Door3,0.463888889,-0.006481481,1,0,0,0.5304,optionRight,70,7495,4,5,0,5,0,1,,,,,,,,,,,,,,,,,,,,,,,,,,,,,,,,,,,,,,,
,,,,,,,,2023-08-16_08h31.06.641,HF_wild_card,2022.2.4,Win32,60.03842459,63d53d150a864eb06120bb88,64d2fd46c836a06233681665,64dc7b2c2f00dfc201b5d4c0,,,,,,,ctch,resources/DP.BMP,resources/DBN.BMP,Door3,-0.309259259,0,1,0,0,0.4986,optionLeft,70,7565,4,6,0,6,0,1,,,,,,,,,,,,,,,,,,,,,,,,,,,,,,,,,,,,,,,
,,,,,,,,2023-08-16_08h31.06.641,HF_wild_card,2022.2.4,Win32,60.03842459,63d53d150a864eb06120bb88,64d2fd46c836a06233681665,64dc7b2c2f00dfc201b5d4c0,,,,,,,ctch,resources/DB.BMP,resources/DY.BMP,Door4,-0.349074074,0.002777778,1,0,0,0.5161,optionLeft,60,7625,4,7,0,7,0,1,,,,,,,,,,,,,,,,,,,,,,,,,,,,,,,,,,,,,,,
,,,,,,,,2023-08-16_08h31.06.641,HF_wild_card,2022.2.4,Win32,60.03842459,63d53d150a864eb06120bb88,64d2fd46c836a06233681665,64dc7b2c2f00dfc201b5d4c0,,,,,,,sngl,resources/Empty.png,resources/DG.BMP,WildCard_Ex,0.307407407,0.032407407,1,0,0,0.469,optionRight,55,7680,4,8,0,8,0,1,,,,,,,,,,,,,,,,,,,,,,,,,,,,,,,,,,,,,,,
,,,,,,,,2023-08-16_08h31.06.641,HF_wild_card,2022.2.4,Win32,60.03842459,63d53d150a864eb06120bb88,64d2fd46c836a06233681665,64dc7b2c2f00dfc201b5d4c0,,,,,,,decisionTrl,resources/DG.BMP,resources/DP.BMP,WildCard_Ex,-0.311111111,-0.010185185,1,0,0,1.9957,optionLeft,45,7725,4,9,0,9,0,1,,,,,,,,,,,,,,,,,,,,,,,,,,,,,,,,,,,,,,,
,,,,,,,,2023-08-16_08h31.06.641,HF_wild_card,2022.2.4,Win32,60.03842459,63d53d150a864eb06120bb88,64d2fd46c836a06233681665,64dc7b2c2f00dfc201b5d4c0,,,,,,,decisionTrl,resources/DBN.BMP,resources/DY.BMP,Door1,0.353703704,-0.001851852,1,0,0,0.5984,optionRight,30,7755,4,10,0,10,0,1,,,,,,,,,,,,,,,,,,,,,,,,,,,,,,,,,,,,,,,
,,,,,,,,2023-08-16_08h31.06.641,HF_wild_card,2022.2.4,Win32,60.03842459,63d53d150a864eb06120bb88,64d2fd46c836a06233681665,64dc7b2c2f00dfc201b5d4c0,,,,,,,sngl,resources/Empty.png,resources/DBN.BMP,Door2,0.274074074,0.003703704,1,0,0,0.4791,optionRight,40,7795,4,11,0,11,0,1,,,,,,,,,,,,,,,,,,,,,,,,,,,,,,,,,,,,,,,
,,,,,,,,2023-08-16_08h31.06.641,HF_wild_card,2022.2.4,Win32,60.03842459,63d53d150a864eb06120bb88,64d2fd46c836a06233681665,64dc7b2c2f00dfc201b5d4c0,,,,,,,decisionTrl,resources/DY.BMP,resources/DBN.BMP,Door1,-0.406481481,-0.007407407,1,0,0,0.7325,optionLeft,30,7825,4,12,0,12,0,1,,,,,,,,,,,,,,,,,,,,,,,,,,,,,,,,,,,,,,,
,,,,,,,,2023-08-16_08h31.06.641,HF_wild_card,2022.2.4,Win32,60.03842459,63d53d150a864eb06120bb88,64d2fd46c836a06233681665,64dc7b2c2f00dfc201b5d4c0,,,,,,,sngl,resources/Empty.png,resources/DB.BMP,Door4,0.428703704,0.00462963,1,0,0,0.4956,optionRight,80,7905,4,13,0,13,0,1,,,,,,,,,,,,,,,,,,,,,,,,,,,,,,,,,,,,,,,
,,,,,,,,2023-08-16_08h31.06.641,HF_wild_card,2022.2.4,Win32,60.03842459,63d53d150a864eb06120bb88,64d2fd46c836a06233681665,64dc7b2c2f00dfc201b5d4c0,,,,,,,decisionTrl,resources/DB.BMP,resources/DP.BMP,Door3,0.421296296,-0.006481481,1,0,0,1.1657,optionRight,70,7975,4,14,0,14,0,1,,,,,,,,,,,,,,,,,,,,,,,,,,,,,,,,,,,,,,,
,,,,,,,,2023-08-16_08h31.06.641,HF_wild_card,2022.2.4,Win32,60.03842459,63d53d150a864eb06120bb88,64d2fd46c836a06233681665,64dc7b2c2f00dfc201b5d4c0,,,,,,,decisionTrl,resources/DBN.BMP,resources/DY.BMP,Door1,0.448148148,-0.000925926,1,0,0,0.7363,optionRight,30,8005,4,15,0,15,0,1,,,,,,,,,,,,,,,,,,,,,,,,,,,,,,,,,,,,,,,
,,,,,,,,2023-08-16_08h31.06.641,HF_wild_card,2022.2.4,Win32,60.03842459,63d53d150a864eb06120bb88,64d2fd46c836a06233681665,64dc7b2c2f00dfc201b5d4c0,,,,,,,decisionTrl,resources/DG.BMP,resources/DB.BMP,Door4,0.37037037,-0.018518519,1,0,0,1.599,optionRight,60,8065,4,16,0,16,0,1,,,,,,,,,,,,,,,,,,,,,,,,,,,,,,,,,,,,,,,
,,,,,,,,2023-08-16_08h31.06.641,HF_wild_card,2022.2.4,Win32,60.03842459,63d53d150a864eb06120bb88,64d2fd46c836a06233681665,64dc7b2c2f00dfc201b5d4c0,,,,,,,decisionTrl,resources/DBN.BMP,resources/DG.BMP,WildCard_Ex,0.491666667,-0.019444444,1,0,0,0.632,optionRight,55,8120,4,17,0,17,0,1,,,,,,,,,,,,,,,,,,,,,,,,,,,,,,,,,,,,,,,
,,,,,,,,2023-08-16_08h31.06.641,HF_wild_card,2022.2.4,Win32,60.03842459,63d53d150a864eb06120bb88,64d2fd46c836a06233681665,64dc7b2c2f00dfc201b5d4c0,,,,,,,decisionTrl,resources/DG.BMP,resources/DBN.BMP,WildCard_Ex,-0.60462963,-0.033333333,1,0,0,1.153,optionLeft,45,8165,4,18,0,18,0,1,,,,,,,,,,,,,,,,,,,,,,,,,,,,,,,,,,,,,,,
,,,,,,,,2023-08-16_08h31.06.641,HF_wild_card,2022.2.4,Win32,60.03842459,63d53d150a864eb06120bb88,64d2fd46c836a06233681665,64dc7b2c2f00dfc201b5d4c0,,,,,,,ctch,resources/DBN.BMP,resources/DP.BMP,Door3,0.499074074,0.00462963,1,0,0,0.532,optionRight,70,8235,4,19,0,19,0,1,,,,,,,,,,,,,,,,,,,,,,,,,,,,,,,,,,,,,,,
,,,,,,,,2023-08-16_08h31.06.641,HF_wild_card,2022.2.4,Win32,60.03842459,63d53d150a864eb06120bb88,64d2fd46c836a06233681665,64dc7b2c2f00dfc201b5d4c0,,,,,,,sngl,resources/DG.BMP,resources/Empty.png,WildCard_Ex,-0.412962963,-0.032407407,1,0,0,0.5158,optionLeft,55,8290,4,20,0,20,0,1,,,,,,,,,,,,,,,,,,,,,,,,,,,,,,,,,,,,,,,
,,,,,,,,2023-08-16_08h31.06.641,HF_wild_card,2022.2.4,Win32,60.03842459,63d53d150a864eb06120bb88,64d2fd46c836a06233681665,64dc7b2c2f00dfc201b5d4c0,,,,,,,ctch,resources/DP.BMP,resources/DBN.BMP,Door3,-0.386111111,-0.022222222,1,0,0,0.6198,optionLeft,70,8360,4,21,0,21,0,1,,,,,,,,,,,,,,,,,,,,,,,,,,,,,,,,,,,,,,,
,,,,,,,,2023-08-16_08h31.06.641,HF_wild_card,2022.2.4,Win32,60.03842459,63d53d150a864eb06120bb88,64d2fd46c836a06233681665,64dc7b2c2f00dfc201b5d4c0,,,,,,,ctch,resources/DBN.BMP,resources/DP.BMP,Door3,0.383333333,-0.003703704,1,0,0,0.5124,optionRight,70,8430,4,22,0,22,0,1,,,,,,,,,,,,,,,,,,,,,,,,,,,,,,,,,,,,,,,
,,,,,,,,2023-08-16_08h31.06.641,HF_wild_card,2022.2.4,Win32,60.03842459,63d53d150a864eb06120bb88,64d2fd46c836a06233681665,64dc7b2c2f00dfc201b5d4c0,,,,,,,decisionTrl,resources/DBN.BMP,resources/DY.BMP,Door1,0.318518519,0.008333333,1,0,0,0.6298,optionRight,30,8460,4,23,0,23,0,1,,,,,,,,,,,,,,,,,,,,,,,,,,,,,,,,,,,,,,,
,,,,,,,,2023-08-16_08h31.06.641,HF_wild_card,2022.2.4,Win32,60.03842459,63d53d150a864eb06120bb88,64d2fd46c836a06233681665,64dc7b2c2f00dfc201b5d4c0,,,,,,,decisionTrl,resources/DP.BMP,resources/DB.BMP,Door3,-0.262962963,-0.00462963,1,0,0,0.549,optionLeft,70,8530,4,24,0,24,0,1,,,,,,,,,,,,,,,,,,,,,,,,,,,,,,,,,,,,,,,
,,,,,,,,2023-08-16_08h31.06.641,HF_wild_card,2022.2.4,Win32,60.03842459,63d53d150a864eb06120bb88,64d2fd46c836a06233681665,64dc7b2c2f00dfc201b5d4c0,,,,,,,decisionTrl,resources/DP.BMP,resources/DG.BMP,Door3,-0.311111111,0.003703704,1,0,0,0.5324,optionLeft,70,8600,4,25,0,25,0,1,,,,,,,,,,,,,,,,,,,,,,,,,,,,,,,,,,,,,,,
,,,,,,,,2023-08-16_08h31.06.641,HF_wild_card,2022.2.4,Win32,60.03842459,63d53d150a864eb06120bb88,64d2fd46c836a06233681665,64dc7b2c2f00dfc201b5d4c0,,,,,,,decisionTrl,resources/DY.BMP,resources/DBN.BMP,Door1,-0.347222222,0.00462963,1,0,0,0.5828,optionLeft,30,8630,4,26,0,26,0,1,,,,,,,,,,,,,,,,,,,,,,,,,,,,,,,,,,,,,,,
,,,,,,,,2023-08-16_08h31.06.641,HF_wild_card,2022.2.4,Win32,60.03842459,63d53d150a864eb06120bb88,64d2fd46c836a06233681665,64dc7b2c2f00dfc201b5d4c0,,,,,,,ctch,resources/DY.BMP,resources/DB.BMP,Door4,0.364814815,0.026851852,1,0,0,1.403,optionRight,80,8710,4,27,0,27,0,1,,,,,,,,,,,,,,,,,,,,,,,,,,,,,,,,,,,,,,,
,,,,,,,,2023-08-16_08h31.06.641,HF_wild_card,2022.2.4,Win32,60.03842459,63d53d150a864eb06120bb88,64d2fd46c836a06233681665,64dc7b2c2f00dfc201b5d4c0,,,,,,,decisionTrl,resources/DB.BMP,resources/DP.BMP,Door3,0.211111111,-0.00462963,1,0,0,0.8955,optionRight,70,8780,4,28,0,28,0,1,,,,,,,,,,,,,,,,,,,,,,,,,,,,,,,,,,,,,,,
,,,,,,,,2023-08-16_08h31.06.641,HF_wild_card,2022.2.4,Win32,60.03842459,63d53d150a864eb06120bb88,64d2fd46c836a06233681665,64dc7b2c2f00dfc201b5d4c0,,,,,,,decisionTrl,resources/DB.BMP,resources/DG.BMP,Door4,-0.284259259,-0.008333333,1,0,0,1.2863,optionLeft,80,8860,4,29,0,29,0,1,,,,,,,,,,,,,,,,,,,,,,,,,,,,,,,,,,,,,,,
,,,,,,,,2023-08-16_08h31.06.641,HF_wild_card,2022.2.4,Win32,60.03842459,63d53d150a864eb06120bb88,64d2fd46c836a06233681665,64dc7b2c2f00dfc201b5d4c0,,,,,,,sngl,resources/Empty.png,resources/DG.BMP,WildCard_Ex,0.387037037,0.023148148,1,0,0,0.4788,optionRight,45,8905,4,30,0,30,0,1,,,,,,,,,,,,,,,,,,,,,,,,,,,,,,,,,,,,,,,
,,,,,,,,2023-08-16_08h31.06.641,HF_wild_card,2022.2.4,Win32,60.03842459,63d53d150a864eb06120bb88,64d2fd46c836a06233681665,64dc7b2c2f00dfc201b5d4c0,,,,,,,decisionTrl,resources/DP.BMP,resources/DB.BMP,Door3,-0.376851852,0.003703704,1,0,0,0.8486,optionLeft,70,8975,4,31,0,31,0,1,,,,,,,,,,,,,,,,,,,,,,,,,,,,,,,,,,,,,,,
,,,,,,,,2023-08-16_08h31.06.641,HF_wild_card,2022.2.4,Win32,60.03842459,63d53d150a864eb06120bb88,64d2fd46c836a06233681665,64dc7b2c2f00dfc201b5d4c0,,,,,,,ctch,resources/DB.BMP,resources/DY.BMP,Door4,-0.437037037,-0.049074074,1,0,0,0.6456,optionLeft,80,9055,4,32,0,32,0,1,,,,,,,,,,,,,,,,,,,,,,,,,,,,,,,,,,,,,,,
,,,,,,,,2023-08-16_08h31.06.641,HF_wild_card,2022.2.4,Win32,60.03842459,63d53d150a864eb06120bb88,64d2fd46c836a06233681665,64dc7b2c2f00dfc201b5d4c0,,,,,,,decisionTrl,resources/DY.BMP,resources/DG.BMP,Door1,-0.330555556,-0.005555556,1,0,0,1.1697,optionLeft,30,9085,4,33,0,33,0,1,,,,,,,,,,,,,,,,,,,,,,,,,,,,,,,,,,,,,,,
,,,,,,,,2023-08-16_08h31.06.641,HF_wild_card,2022.2.4,Win32,60.03842459,63d53d150a864eb06120bb88,64d2fd46c836a06233681665,64dc7b2c2f00dfc201b5d4c0,,,,,,,ctch,resources/DY.BMP,resources/DB.BMP,Door4,0.407407407,-0.005555556,1,0,0,0.5494,optionRight,60,9145,4,34,0,34,0,1,,,,,,,,,,,,,,,,,,,,,,,,,,,,,,,,,,,,,,,
,,,,,,,,2023-08-16_08h31.06.641,HF_wild_card,2022.2.4,Win32,60.03842459,63d53d150a864eb06120bb88,64d2fd46c836a06233681665,64dc7b2c2f00dfc201b5d4c0,,,,,,,decisionTrl,resources/DP.BMP,resources/DB.BMP,Door3,-0.371296296,-0.002777778,1,0,0,0.6199,optionLeft,70,9215,4,35,0,35,0,1,,,,,,,,,,,,,,,,,,,,,,,,,,,,,,,,,,,,,,,
,,,,,,,,2023-08-16_08h31.06.641,HF_wild_card,2022.2.4,Win32,60.03842459,63d53d150a864eb06120bb88,64d2fd46c836a06233681665,64dc7b2c2f00dfc201b5d4c0,,,,,,,sngl,resources/DP.BMP,resources/Empty.png,Door3,-0.414814815,-0.006481481,1,0,0,0.4997,optionLeft,70,9285,4,36,0,36,0,1,,,,,,,,,,,,,,,,,,,,,,,,,,,,,,,,,,,,,,,
,,,,,,,,2023-08-16_08h31.06.641,HF_wild_card,2022.2.4,Win32,60.03842459,63d53d150a864eb06120bb88,64d2fd46c836a06233681665,64dc7b2c2f00dfc201b5d4c0,,,,,,,decisionTrl,resources/DY.BMP,resources/DBN.BMP,Door1,-0.398148148,0.012962963,1,0,0,1.1652,optionLeft,30,9315,4,37,0,37,0,1,,,,,,,,,,,,,,,,,,,,,,,,,,,,,,,,,,,,,,,
,,,,,,,,2023-08-16_08h31.06.641,HF_wild_card,2022.2.4,Win32,60.03842459,63d53d150a864eb06120bb88,64d2fd46c836a06233681665,64dc7b2c2f00dfc201b5d4c0,,,,,,,decisionTrl,resources/DBN.BMP,resources/DY.BMP,Door1,0.374074074,0.008333333,1,0,0,0.6458,optionRight,30,9345,4,38,0,38,0,1,,,,,,,,,,,,,,,,,,,,,,,,,,,,,,,,,,,,,,,
,,,,,,,,2023-08-16_08h31.06.641,HF_wild_card,2022.2.4,Win32,60.03842459,63d53d150a864eb06120bb88,64d2fd46c836a06233681665,64dc7b2c2f00dfc201b5d4c0,,,,,,,sngl,resources/DG.BMP,resources/Empty.png,WildCard_Ex,-0.215740741,0.009259259,1,0,0,0.6526,optionLeft,45,9390,4,39,0,39,0,1,,,,,,,,,,,,,,,,,,,,,,,,,,,,,,,,,,,,,,,
,,,,,,,,2023-08-16_08h31.06.641,HF_wild_card,2022.2.4,Win32,60.03842459,63d53d150a864eb06120bb88,64d2fd46c836a06233681665,64dc7b2c2f00dfc201b5d4c0,,,,,,,sngl,resources/DBN.BMP,resources/Empty.png,Door2,-0.513888889,0.010185185,1,0,0,0.913,optionLeft,20,9410,4,40,0,40,0,1,,,,,,,,,,,,,,,,,,,,,,,,,,,,,,,,,,,,,,,
,,,,,,,,2023-08-16_08h31.06.641,HF_wild_card,2022.2.4,Win32,60.03842459,63d53d150a864eb06120bb88,64d2fd46c836a06233681665,64dc7b2c2f00dfc201b5d4c0,,,,,,,decisionTrl,resources/DG.BMP,resources/DY.BMP,WildCard_Ex,-0.322222222,0.006481481,1,0,0,0.7968,optionLeft,45,9455,4,41,0,41,0,1,,,,,,,,,,,,,,,,,,,,,,,,,,,,,,,,,,,,,,,
,,,,,,,,2023-08-16_08h31.06.641,HF_wild_card,2022.2.4,Win32,60.03842459,63d53d150a864eb06120bb88,64d2fd46c836a06233681665,64dc7b2c2f00dfc201b5d4c0,,,,,,,sngl,resources/Empty.png,resources/DY.BMP,Door1,0.336111111,0.008333333,1,0,0,0.4624,optionRight,30,9485,4,42,0,42,0,1,,,,,,,,,,,,,,,,,,,,,,,,,,,,,,,,,,,,,,,
,,,,,,,,2023-08-16_08h31.06.641,HF_wild_card,2022.2.4,Win32,60.03842459,63d53d150a864eb06120bb88,64d2fd46c836a06233681665,64dc7b2c2f00dfc201b5d4c0,,,,,,,decisionTrl,resources/DB.BMP,resources/DP.BMP,Door3,0.369444444,0.003703704,1,0,0,0.6329,optionRight,70,9555,4,43,0,43,0,1,,,,,,,,,,,,,,,,,,,,,,,,,,,,,,,,,,,,,,,
,,,,,,,,2023-08-16_08h31.06.641,HF_wild_card,2022.2.4,Win32,60.03842459,63d53d150a864eb06120bb88,64d2fd46c836a06233681665,64dc7b2c2f00dfc201b5d4c0,,,,,,,,,,,,,,,,,,,,,,,,,,3,0,3,0,1,,,,,,,,,,,,,,,,,,,,,,,,,,,,,,,,,,
,,,,,,,,2023-08-16_08h31.06.641,HF_wild_card,2022.2.4,Win32,60.03842459,63d53d150a864eb06120bb88,64d2fd46c836a06233681665,64dc7b2c2f00dfc201b5d4c0,,,,,,,decisionTrl,resources/DBN.BMP,resources/DG.BMP,WildCard_Ex,0.634259259,-0.033333333,1,0,0,0.7485,optionRight,55,9610,5,0,0,0,0,1,,,,,,,,,,,,,,,,,,,,,,,,,,,,,,,,,,,,,,,
,,,,,,,,2023-08-16_08h31.06.641,HF_wild_card,2022.2.4,Win32,60.03842459,63d53d150a864eb06120bb88,64d2fd46c836a06233681665,64dc7b2c2f00dfc201b5d4c0,,,,,,,ctch,resources/DB.BMP,resources/DY.BMP,Door4,-0.376851852,-0.006481481,1,0,0,0.7123,optionLeft,60,9670,5,1,0,1,0,1,,,,,,,,,,,,,,,,,,,,,,,,,,,,,,,,,,,,,,,
,,,,,,,,2023-08-16_08h31.06.641,HF_wild_card,2022.2.4,Win32,60.03842459,63d53d150a864eb06120bb88,64d2fd46c836a06233681665,64dc7b2c2f00dfc201b5d4c0,,,,,,,decisionTrl,resources/DG.BMP,resources/DBN.BMP,WildCard_Ex,-0.237962963,-0.032407407,1,0,0,0.5998,optionLeft,55,9725,5,2,0,2,0,1,,,,,,,,,,,,,,,,,,,,,,,,,,,,,,,,,,,,,,,
,,,,,,,,2023-08-16_08h31.06.641,HF_wild_card,2022.2.4,Win32,60.03842459,63d53d150a864eb06120bb88,64d2fd46c836a06233681665,64dc7b2c2f00dfc201b5d4c0,,,,,,,decisionTrl,resources/DP.BMP,resources/DB.BMP,Door3,-0.37962963,-0.022222222,1,0,0,0.5658,optionLeft,70,9795,5,3,0,3,0,1,,,,,,,,,,,,,,,,,,,,,,,,,,,,,,,,,,,,,,,
,,,,,,,,2023-08-16_08h31.06.641,HF_wild_card,2022.2.4,Win32,60.03842459,63d53d150a864eb06120bb88,64d2fd46c836a06233681665,64dc7b2c2f00dfc201b5d4c0,,,,,,,decisionTrl,resources/DP.BMP,resources/DB.BMP,Door3,-0.325925926,-0.014814815,1,0,0,0.5325,optionLeft,70,9865,5,4,0,4,0,1,,,,,,,,,,,,,,,,,,,,,,,,,,,,,,,,,,,,,,,
,,,,,,,,2023-08-16_08h31.06.641,HF_wild_card,2022.2.4,Win32,60.03842459,63d53d150a864eb06120bb88,64d2fd46c836a06233681665,64dc7b2c2f00dfc201b5d4c0,,,,,,,sngl,resources/DG.BMP,resources/Empty.png,WildCard_Ex,-0.350925926,0.017592593,1,0,0,0.4822,optionLeft,45,9910,5,5,0,5,0,1,,,,,,,,,,,,,,,,,,,,,,,,,,,,,,,,,,,,,,,
,,,,,,,,2023-08-16_08h31.06.641,HF_wild_card,2022.2.4,Win32,60.03842459,63d53d150a864eb06120bb88,64d2fd46c836a06233681665,64dc7b2c2f00dfc201b5d4c0,,,,,,,sngl,resources/Empty.png,resources/DG.BMP,WildCard_Ex,0.337962963,0.001851852,1,0,0,0.4772,optionRight,55,9965,5,6,0,6,0,1,,,,,,,,,,,,,,,,,,,,,,,,,,,,,,,,,,,,,,,
,,,,,,,,2023-08-16_08h31.06.641,HF_wild_card,2022.2.4,Win32,60.03842459,63d53d150a864eb06120bb88,64d2fd46c836a06233681665,64dc7b2c2f00dfc201b5d4c0,,,,,,,sngl,resources/Empty.png,resources/DB.BMP,Door4,0.473148148,-0.007407407,1,0,0,0.5029,optionRight,60,10025,5,7,0,7,0,1,,,,,,,,,,,,,,,,,,,,,,,,,,,,,,,,,,,,,,,
,,,,,,,,2023-08-16_08h31.06.641,HF_wild_card,2022.2.4,Win32,60.03842459,63d53d150a864eb06120bb88,64d2fd46c836a06233681665,64dc7b2c2f00dfc201b5d4c0,,,,,,,decisionTrl,resources/DP.BMP,resources/DG.BMP,Door3,-0.296296296,0.014814815,1,0,0,0.679,optionLeft,70,10095,5,8,0,8,0,1,,,,,,,,,,,,,,,,,,,,,,,,,,,,,,,,,,,,,,,
,,,,,,,,2023-08-16_08h31.06.641,HF_wild_card,2022.2.4,Win32,60.03842459,63d53d150a864eb06120bb88,64d2fd46c836a06233681665,64dc7b2c2f00dfc201b5d4c0,,,,,,,ctch,resources/DY.BMP,resources/DB.BMP,Door4,0.408333333,-0.001851852,1,0,0,0.5654,optionRight,80,10175,5,9,0,9,0,1,,,,,,,,,,,,,,,,,,,,,,,,,,,,,,,,,,,,,,,
,,,,,,,,2023-08-16_08h31.06.641,HF_wild_card,2022.2.4,Win32,60.03842459,63d53d150a864eb06120bb88,64d2fd46c836a06233681665,64dc7b2c2f00dfc201b5d4c0,,,,,,,sngl,resources/DP.BMP,resources/Empty.png,Door3,-0.390740741,0.003703704,1,0,0,0.4497,optionLeft,70,10245,5,10,0,10,0,1,,,,,,,,,,,,,,,,,,,,,,,,,,,,,,,,,,,,,,,
,,,,,,,,2023-08-16_08h31.06.641,HF_wild_card,2022.2.4,Win32,60.03842459,63d53d150a864eb06120bb88,64d2fd46c836a06233681665,64dc7b2c2f00dfc201b5d4c0,,,,,,,sngl,resources/DG.BMP,resources/Empty.png,WildCard_Ex,-0.430555556,0,1,0,0,0.5189,optionLeft,55,10300,5,11,0,11,0,1,,,,,,,,,,,,,,,,,,,,,,,,,,,,,,,,,,,,,,,
,,,,,,,,2023-08-16_08h31.06.641,HF_wild_card,2022.2.4,Win32,60.03842459,63d53d150a864eb06120bb88,64d2fd46c836a06233681665,64dc7b2c2f00dfc201b5d4c0,,,,,,,decisionTrl,resources/DY.BMP,resources/DBN.BMP,Door1,-0.344444444,-0.002777778,1,0,0,0.6292,optionLeft,30,10330,5,12,0,12,0,1,,,,,,,,,,,,,,,,,,,,,,,,,,,,,,,,,,,,,,,
,,,,,,,,2023-08-16_08h31.06.641,HF_wild_card,2022.2.4,Win32,60.03842459,63d53d150a864eb06120bb88,64d2fd46c836a06233681665,64dc7b2c2f00dfc201b5d4c0,,,,,,,sngl,resources/Empty.png,resources/DP.BMP,Door3,0.342592593,-0.011111111,1,0,0,0.4473,optionRight,70,10400,5,13,0,13,0,1,,,,,,,,,,,,,,,,,,,,,,,,,,,,,,,,,,,,,,,
,,,,,,,,2023-08-16_08h31.06.641,HF_wild_card,2022.2.4,Win32,60.03842459,63d53d150a864eb06120bb88,64d2fd46c836a06233681665,64dc7b2c2f00dfc201b5d4c0,,,,,,,decisionTrl,resources/DG.BMP,resources/DY.BMP,WildCard_Ex,-0.308333333,-0.011111111,1,0,0,0.499,optionLeft,55,10455,5,14,0,14,0,1,,,,,,,,,,,,,,,,,,,,,,,,,,,,,,,,,,,,,,,
,,,,,,,,2023-08-16_08h31.06.641,HF_wild_card,2022.2.4,Win32,60.03842459,63d53d150a864eb06120bb88,64d2fd46c836a06233681665,64dc7b2c2f00dfc201b5d4c0,,,,,,,decisionTrl,resources/DBN.BMP,resources/DY.BMP,Door1,0.251851852,-0.021296296,1,0,0,1.3489,optionRight,30,10485,5,15,0,15,0,1,,,,,,,,,,,,,,,,,,,,,,,,,,,,,,,,,,,,,,,
,,,,,,,,2023-08-16_08h31.06.641,HF_wild_card,2022.2.4,Win32,60.03842459,63d53d150a864eb06120bb88,64d2fd46c836a06233681665,64dc7b2c2f00dfc201b5d4c0,,,,,,,decisionTrl,resources/DBN.BMP,resources/DY.BMP,Door1,0.497222222,-0.003703704,1,0,0,0.5107,optionRight,30,10515,5,16,0,16,0,1,,,,,,,,,,,,,,,,,,,,,,,,,,,,,,,,,,,,,,,
,,,,,,,,2023-08-16_08h31.06.641,HF_wild_card,2022.2.4,Win32,60.03842459,63d53d150a864eb06120bb88,64d2fd46c836a06233681665,64dc7b2c2f00dfc201b5d4c0,,,,,,,decisionTrl,resources/DP.BMP,resources/DB.BMP,Door3,-0.372222222,0.001851852,1,0,0,0.4996,optionLeft,70,10585,5,17,0,17,0,1,,,,,,,,,,,,,,,,,,,,,,,,,,,,,,,,,,,,,,,
,,,,,,,,2023-08-16_08h31.06.641,HF_wild_card,2022.2.4,Win32,60.03842459,63d53d150a864eb06120bb88,64d2fd46c836a06233681665,64dc7b2c2f00dfc201b5d4c0,,,,,,,decisionTrl,resources/DBN.BMP,resources/DY.BMP,Door1,0.347222222,0.005555556,1,0,0,0.499,optionRight,30,10615,5,18,0,18,0,1,,,,,,,,,,,,,,,,,,,,,,,,,,,,,,,,,,,,,,,
,,,,,,,,2023-08-16_08h31.06.641,HF_wild_card,2022.2.4,Win32,60.03842459,63d53d150a864eb06120bb88,64d2fd46c836a06233681665,64dc7b2c2f00dfc201b5d4c0,,,,,,,ctch,resources/DY.BMP,resources/DB.BMP,Door1,-0.273148148,0.009259259,1,0,0,0.5028,optionLeft,30,10645,5,19,0,19,0,1,,,,,,,,,,,,,,,,,,,,,,,,,,,,,,,,,,,,,,,
,,,,,,,,2023-08-16_08h31.06.641,HF_wild_card,2022.2.4,Win32,60.03842459,63d53d150a864eb06120bb88,64d2fd46c836a06233681665,64dc7b2c2f00dfc201b5d4c0,,,,,,,sngl,resources/DB.BMP,resources/Empty.png,Door4,-0.313888889,-0.003703704,1,0,0,0.4659,optionLeft,80,10725,5,20,0,20,0,1,,,,,,,,,,,,,,,,,,,,,,,,,,,,,,,,,,,,,,,
,,,,,,,,2023-08-16_08h31.06.641,HF_wild_card,2022.2.4,Win32,60.03842459,63d53d150a864eb06120bb88,64d2fd46c836a06233681665,64dc7b2c2f00dfc201b5d4c0,,,,,,,ctch,resources/DP.BMP,resources/DBN.BMP,Door3,-0.269444444,-0.006481481,1,0,0,0.5296,optionLeft,70,10795,5,21,0,21,0,1,,,,,,,,,,,,,,,,,,,,,,,,,,,,,,,,,,,,,,,
,,,,,,,,2023-08-16_08h31.06.641,HF_wild_card,2022.2.4,Win32,60.03842459,63d53d150a864eb06120bb88,64d2fd46c836a06233681665,64dc7b2c2f00dfc201b5d4c0,,,,,,,ctch,resources/DBN.BMP,resources/DP.BMP,Door3,0.386111111,0.010185185,1,0,0,0.5128,optionRight,70,10865,5,22,0,22,0,1,,,,,,,,,,,,,,,,,,,,,,,,,,,,,,,,,,,,,,,
,,,,,,,,2023-08-16_08h31.06.641,HF_wild_card,2022.2.4,Win32,60.03842459,63d53d150a864eb06120bb88,64d2fd46c836a06233681665,64dc7b2c2f00dfc201b5d4c0,,,,,,,decisionTrl,resources/DY.BMP,resources/DBN.BMP,Door1,-0.350925926,-0.007407407,1,0,0,0.5317,optionLeft,30,10895,5,23,0,23,0,1,,,,,,,,,,,,,,,,,,,,,,,,,,,,,,,,,,,,,,,
,,,,,,,,2023-08-16_08h31.06.641,HF_wild_card,2022.2.4,Win32,60.03842459,63d53d150a864eb06120bb88,64d2fd46c836a06233681665,64dc7b2c2f00dfc201b5d4c0,,,,,,,decisionTrl,resources/DG.BMP,resources/DB.BMP,Door4,0.331481481,-0.008333333,1,0,0,1.0958,optionRight,60,10955,5,24,0,24,0,1,,,,,,,,,,,,,,,,,,,,,,,,,,,,,,,,,,,,,,,
,,,,,,,,2023-08-16_08h31.06.641,HF_wild_card,2022.2.4,Win32,60.03842459,63d53d150a864eb06120bb88,64d2fd46c836a06233681665,64dc7b2c2f00dfc201b5d4c0,,,,,,,ctch,resources/DP.BMP,resources/DBN.BMP,Door3,-0.282407407,-0.006481481,1,0,0,0.4495,optionLeft,70,11025,5,25,0,25,0,1,,,,,,,,,,,,,,,,,,,,,,,,,,,,,,,,,,,,,,,
,,,,,,,,2023-08-16_08h31.06.641,HF_wild_card,2022.2.4,Win32,60.03842459,63d53d150a864eb06120bb88,64d2fd46c836a06233681665,64dc7b2c2f00dfc201b5d4c0,,,,,,,decisionTrl,resources/DB.BMP,resources/DP.BMP,Door3,0.451851852,-0.013888889,1,0,0,0.5029,optionRight,70,11095,5,26,0,26,0,1,,,,,,,,,,,,,,,,,,,,,,,,,,,,,,,,,,,,,,,
,,,,,,,,2023-08-16_08h31.06.641,HF_wild_card,2022.2.4,Win32,60.03842459,63d53d150a864eb06120bb88,64d2fd46c836a06233681665,64dc7b2c2f00dfc201b5d4c0,,,,,,,decisionTrl,resources/DY.BMP,resources/DBN.BMP,Door1,-0.549074074,0.017592593,1,0,0,0.6325,optionLeft,30,11125,5,27,0,27,0,1,,,,,,,,,,,,,,,,,,,,,,,,,,,,,,,,,,,,,,,
,,,,,,,,2023-08-16_08h31.06.641,HF_wild_card,2022.2.4,Win32,60.03842459,63d53d150a864eb06120bb88,64d2fd46c836a06233681665,64dc7b2c2f00dfc201b5d4c0,,,,,,,decisionTrl,resources/DB.BMP,resources/DP.BMP,Door3,0.453703704,0.022222222,1,0,0,1.3789,optionRight,70,11195,5,28,0,28,0,1,,,,,,,,,,,,,,,,,,,,,,,,,,,,,,,,,,,,,,,
,,,,,,,,2023-08-16_08h31.06.641,HF_wild_card,2022.2.4,Win32,60.03842459,63d53d150a864eb06120bb88,64d2fd46c836a06233681665,64dc7b2c2f00dfc201b5d4c0,,,,,,,decisionTrl,resources/DY.BMP,resources/DG.BMP,WildCard_Ex,0.412962963,0.012962963,1,0,0,1.1824,optionRight,45,11240,5,29,0,29,0,1,,,,,,,,,,,,,,,,,,,,,,,,,,,,,,,,,,,,,,,
,,,,,,,,2023-08-16_08h31.06.641,HF_wild_card,2022.2.4,Win32,60.03842459,63d53d150a864eb06120bb88,64d2fd46c836a06233681665,64dc7b2c2f00dfc201b5d4c0,,,,,,,sngl,resources/Empty.png,resources/DY.BMP,Door1,0.422222222,0.000925926,1,0,0,0.4656,optionRight,30,11270,5,30,0,30,0,1,,,,,,,,,,,,,,,,,,,,,,,,,,,,,,,,,,,,,,,
,,,,,,,,2023-08-16_08h31.06.641,HF_wild_card,2022.2.4,Win32,60.03842459,63d53d150a864eb06120bb88,64d2fd46c836a06233681665,64dc7b2c2f00dfc201b5d4c0,,,,,,,decisionTrl,resources/DB.BMP,resources/DP.BMP,Door4,-0.482407407,0.011111111,1,0,0,0.9455,optionLeft,80,11350,5,31,0,31,0,1,,,,,,,,,,,,,,,,,,,,,,,,,,,,,,,,,,,,,,,
,,,,,,,,2023-08-16_08h31.06.641,HF_wild_card,2022.2.4,Win32,60.03842459,63d53d150a864eb06120bb88,64d2fd46c836a06233681665,64dc7b2c2f00dfc201b5d4c0,,,,,,,sngl,resources/DBN.BMP,resources/Empty.png,Door2,-0.251851852,0.028703704,1,0,0,0.7661,optionLeft,40,11390,5,32,0,32,0,1,,,,,,,,,,,,,,,,,,,,,,,,,,,,,,,,,,,,,,,
,,,,,,,,2023-08-16_08h31.06.641,HF_wild_card,2022.2.4,Win32,60.03842459,63d53d150a864eb06120bb88,64d2fd46c836a06233681665,64dc7b2c2f00dfc201b5d4c0,,,,,,,ctch,resources/DB.BMP,resources/DY.BMP,Door4,-0.298148148,-0.003703704,1,0,0,0.6363,optionLeft,80,11470,5,33,0,33,0,1,,,,,,,,,,,,,,,,,,,,,,,,,,,,,,,,,,,,,,,
,,,,,,,,2023-08-16_08h31.06.641,HF_wild_card,2022.2.4,Win32,60.03842459,63d53d150a864eb06120bb88,64d2fd46c836a06233681665,64dc7b2c2f00dfc201b5d4c0,,,,,,,decisionTrl,resources/DY.BMP,resources/DBN.BMP,Door1,-0.428703704,0.013888889,1,0,0,0.6454,optionLeft,30,11500,5,34,0,34,0,1,,,,,,,,,,,,,,,,,,,,,,,,,,,,,,,,,,,,,,,
,,,,,,,,2023-08-16_08h31.06.641,HF_wild_card,2022.2.4,Win32,60.03842459,63d53d150a864eb06120bb88,64d2fd46c836a06233681665,64dc7b2c2f00dfc201b5d4c0,,,,,,,decisionTrl,resources/DP.BMP,resources/DB.BMP,Door4,0.290740741,0.009259259,1,0,0,1.3201,optionRight,60,11560,5,35,0,35,0,1,,,,,,,,,,,,,,,,,,,,,,,,,,,,,,,,,,,,,,,
,,,,,,,,2023-08-16_08h31.06.641,HF_wild_card,2022.2.4,Win32,60.03842459,63d53d150a864eb06120bb88,64d2fd46c836a06233681665,64dc7b2c2f00dfc201b5d4c0,,,,,,,sngl,resources/Empty.png,resources/DG.BMP,WildCard_Ex,0.412962963,-0.02037037,1,0,0,0.5458,optionRight,45,11605,5,36,0,36,0,1,,,,,,,,,,,,,,,,,,,,,,,,,,,,,,,,,,,,,,,
,,,,,,,,2023-08-16_08h31.06.641,HF_wild_card,2022.2.4,Win32,60.03842459,63d53d150a864eb06120bb88,64d2fd46c836a06233681665,64dc7b2c2f00dfc201b5d4c0,,,,,,,sngl,resources/Empty.png,resources/DBN.BMP,Door2,0.399074074,-0.016666667,1,0,0,0.5195,optionRight,20,11625,5,37,0,37,0,1,,,,,,,,,,,,,,,,,,,,,,,,,,,,,,,,,,,,,,,
,,,,,,,,2023-08-16_08h31.06.641,HF_wild_card,2022.2.4,Win32,60.03842459,63d53d150a864eb06120bb88,64d2fd46c836a06233681665,64dc7b2c2f00dfc201b5d4c0,,,,,,,decisionTrl,resources/DBN.BMP,resources/DY.BMP,Door1,0.508333333,-0.038888889,1,0,0,0.7697,optionRight,30,11655,5,38,0,38,0,1,,,,,,,,,,,,,,,,,,,,,,,,,,,,,,,,,,,,,,,
,,,,,,,,2023-08-16_08h31.06.641,HF_wild_card,2022.2.4,Win32,60.03842459,63d53d150a864eb06120bb88,64d2fd46c836a06233681665,64dc7b2c2f00dfc201b5d4c0,,,,,,,decisionTrl,resources/DG.BMP,resources/DP.BMP,Door3,0.492592593,-0.037037037,1,0,0,1.2158,optionRight,70,11725,5,39,0,39,0,1,,,,,,,,,,,,,,,,,,,,,,,,,,,,,,,,,,,,,,,
,,,,,,,,2023-08-16_08h31.06.641,HF_wild_card,2022.2.4,Win32,60.03842459,63d53d150a864eb06120bb88,64d2fd46c836a06233681665,64dc7b2c2f00dfc201b5d4c0,,,,,,,ctch,resources/DBN.BMP,resources/DP.BMP,Door3,0.424074074,-0.013888889,1,0,0,0.7441,optionRight,70,11795,5,40,0,40,0,1,,,,,,,,,,,,,,,,,,,,,,,,,,,,,,,,,,,,,,,
,,,,,,,,2023-08-16_08h31.06.641,HF_wild_card,2022.2.4,Win32,60.03842459,63d53d150a864eb06120bb88,64d2fd46c836a06233681665,64dc7b2c2f00dfc201b5d4c0,,,,,,,decisionTrl,resources/DB.BMP,resources/DG.BMP,Door4,-0.353703704,-0.001851852,1,0,0,0.6163,optionLeft,80,11875,5,41,0,41,0,1,,,,,,,,,,,,,,,,,,,,,,,,,,,,,,,,,,,,,,,
,,,,,,,,2023-08-16_08h31.06.641,HF_wild_card,2022.2.4,Win32,60.03842459,63d53d150a864eb06120bb88,64d2fd46c836a06233681665,64dc7b2c2f00dfc201b5d4c0,,,,,,,sngl,resources/DY.BMP,resources/Empty.png,Door1,-0.426851852,-0.006481481,1,0,0,0.5161,optionLeft,30,11905,5,42,0,42,0,1,,,,,,,,,,,,,,,,,,,,,,,,,,,,,,,,,,,,,,,
,,,,,,,,2023-08-16_08h31.06.641,HF_wild_card,2022.2.4,Win32,60.03842459,63d53d150a864eb06120bb88,64d2fd46c836a06233681665,64dc7b2c2f00dfc201b5d4c0,,,,,,,decisionTrl,resources/DB.BMP,resources/DP.BMP,Door3,0.25462963,-0.025925926,1,0,0,1.6363,optionRight,70,11975,5,43,0,43,0,1,,,,,,,,,,,,,,,,,,,,,,,,,,,,,,,,,,,,,,,
,,,,,,,,2023-08-16_08h31.06.641,HF_wild_card,2022.2.4,Win32,60.03842459,63d53d150a864eb06120bb88,64d2fd46c836a06233681665,64dc7b2c2f00dfc201b5d4c0,,,,,,,,,,,,,,,,,,,,,,,,,,4,0,4,0,1,,,,,,,,,,,,,,,,,,,,,,,,,,,,,,,,,,
,,,,,,,,2023-08-16_08h31.06.641,HF_wild_card,2022.2.4,Win32,60.03842459,63d53d150a864eb06120bb88,64d2fd46c836a06233681665,64dc7b2c2f00dfc201b5d4c0,,,,,,,sngl,resources/DP.BMP,resources/Empty.png,Door3,0.099074074,-0.302777778,1,0,0,0.2117,optionLeft,70,12045,6,0,0,0,0,1,,,,,,,,,,,,,,,,,,,,,,,,,,,,,,,,,,,,,,,
,,,,,,,,2023-08-16_08h31.06.641,HF_wild_card,2022.2.4,Win32,60.03842459,63d53d150a864eb06120bb88,64d2fd46c836a06233681665,64dc7b2c2f00dfc201b5d4c0,,,,,,,decisionTrl,resources/DG.BMP,resources/DBN.BMP,WildCard_Ex,-0.231481481,-0.000925926,1,0,0,0.503,optionLeft,45,12090,6,1,0,1,0,1,,,,,,,,,,,,,,,,,,,,,,,,,,,,,,,,,,,,,,,
,,,,,,,,2023-08-16_08h31.06.641,HF_wild_card,2022.2.4,Win32,60.03842459,63d53d150a864eb06120bb88,64d2fd46c836a06233681665,64dc7b2c2f00dfc201b5d4c0,,,,,,,sngl,resources/DG.BMP,resources/Empty.png,WildCard_Ex,-0.35,0.011111111,1,0,0,0.4655,optionLeft,55,12145,6,2,0,2,0,1,,,,,,,,,,,,,,,,,,,,,,,,,,,,,,,,,,,,,,,
,,,,,,,,2023-08-16_08h31.06.641,HF_wild_card,2022.2.4,Win32,60.03842459,63d53d150a864eb06120bb88,64d2fd46c836a06233681665,64dc7b2c2f00dfc201b5d4c0,,,,,,,decisionTrl,resources/DP.BMP,resources/DB.BMP,Door4,0.488888889,-0.027777778,1,0,0,0.629,optionRight,80,12225,6,3,0,3,0,1,,,,,,,,,,,,,,,,,,,,,,,,,,,,,,,,,,,,,,,
,,,,,,,,2023-08-16_08h31.06.641,HF_wild_card,2022.2.4,Win32,60.03842459,63d53d150a864eb06120bb88,64d2fd46c836a06233681665,64dc7b2c2f00dfc201b5d4c0,,,,,,,ctch,resources/DBN.BMP,resources/DP.BMP,Door3,0.375925926,-0.010185185,1,0,0,0.6362,optionRight,70,12295,6,4,0,4,0,1,,,,,,,,,,,,,,,,,,,,,,,,,,,,,,,,,,,,,,,
,,,,,,,,2023-08-16_08h31.06.641,HF_wild_card,2022.2.4,Win32,60.03842459,63d53d150a864eb06120bb88,64d2fd46c836a06233681665,64dc7b2c2f00dfc201b5d4c0,,,,,,,decisionTrl,resources/DBN.BMP,resources/DY.BMP,Door1,0.563888889,-0.018518519,1,0,0,0.5489,optionRight,30,12325,6,5,0,5,0,1,,,,,,,,,,,,,,,,,,,,,,,,,,,,,,,,,,,,,,,
,,,,,,,,2023-08-16_08h31.06.641,HF_wild_card,2022.2.4,Win32,60.03842459,63d53d150a864eb06120bb88,64d2fd46c836a06233681665,64dc7b2c2f00dfc201b5d4c0,,,,,,,decisionTrl,resources/DBN.BMP,resources/DY.BMP,Door1,0.15462963,0.011111111,1,0,0,1.4199,optionRight,30,12355,6,6,0,6,0,1,,,,,,,,,,,,,,,,,,,,,,,,,,,,,,,,,,,,,,,
,,,,,,,,2023-08-16_08h31.06.641,HF_wild_card,2022.2.4,Win32,60.03842459,63d53d150a864eb06120bb88,64d2fd46c836a06233681665,64dc7b2c2f00dfc201b5d4c0,,,,,,,decisionTrl,resources/DY.BMP,resources/DBN.BMP,Door1,-0.301851852,0.006481481,1,0,0,0.683,optionLeft,30,12385,6,7,0,7,0,1,,,,,,,,,,,,,,,,,,,,,,,,,,,,,,,,,,,,,,,
,,,,,,,,2023-08-16_08h31.06.641,HF_wild_card,2022.2.4,Win32,60.03842459,63d53d150a864eb06120bb88,64d2fd46c836a06233681665,64dc7b2c2f00dfc201b5d4c0,,,,,,,ctch,resources/DP.BMP,resources/DBN.BMP,Door3,-0.377777778,-0.027777778,1,0,0,0.536,optionLeft,70,12455,6,8,0,8,0,1,,,,,,,,,,,,,,,,,,,,,,,,,,,,,,,,,,,,,,,
,,,,,,,,2023-08-16_08h31.06.641,HF_wild_card,2022.2.4,Win32,60.03842459,63d53d150a864eb06120bb88,64d2fd46c836a06233681665,64dc7b2c2f00dfc201b5d4c0,,,,,,,ctch,resources/DB.BMP,resources/DY.BMP,Door4,-0.246296296,-0.015740741,1,0,0,0.5457,optionLeft,60,12515,6,9,0,9,0,1,,,,,,,,,,,,,,,,,,,,,,,,,,,,,,,,,,,,,,,
,,,,,,,,2023-08-16_08h31.06.641,HF_wild_card,2022.2.4,Win32,60.03842459,63d53d150a864eb06120bb88,64d2fd46c836a06233681665,64dc7b2c2f00dfc201b5d4c0,,,,,,,sngl,resources/Empty.png,resources/DG.BMP,WildCard_Ex,0.786111111,-0.036111111,1,0,0,2.9658,optionRight,55,12570,6,10,0,10,0,1,,,,,,,,,,,,,,,,,,,,,,,,,,,,,,,,,,,,,,,
,,,,,,,,2023-08-16_08h31.06.641,HF_wild_card,2022.2.4,Win32,60.03842459,63d53d150a864eb06120bb88,64d2fd46c836a06233681665,64dc7b2c2f00dfc201b5d4c0,,,,,,,ctch,resources/DY.BMP,resources/DB.BMP,Door4,0.226851852,-0.000925926,1,0,0,0.5696,optionRight,80,12650,6,11,0,11,0,1,,,,,,,,,,,,,,,,,,,,,,,,,,,,,,,,,,,,,,,
,,,,,,,,2023-08-16_08h31.06.641,HF_wild_card,2022.2.4,Win32,60.03842459,63d53d150a864eb06120bb88,64d2fd46c836a06233681665,64dc7b2c2f00dfc201b5d4c0,,,,,,,decisionTrl,resources/DB.BMP,resources/DP.BMP,Door4,-0.375,0.013888889,1,0,0,1.2825,optionLeft,80,12730,6,12,0,12,0,1,,,,,,,,,,,,,,,,,,,,,,,,,,,,,,,,,,,,,,,
,,,,,,,,2023-08-16_08h31.06.641,HF_wild_card,2022.2.4,Win32,60.03842459,63d53d150a864eb06120bb88,64d2fd46c836a06233681665,64dc7b2c2f00dfc201b5d4c0,,,,,,,ctch,resources/DBN.BMP,resources/DP.BMP,Door3,0.309259259,0.002777778,1,0,0,0.5492,optionRight,70,12800,6,13,0,13,0,1,,,,,,,,,,,,,,,,,,,,,,,,,,,,,,,,,,,,,,,
,,,,,,,,2023-08-16_08h31.06.641,HF_wild_card,2022.2.4,Win32,60.03842459,63d53d150a864eb06120bb88,64d2fd46c836a06233681665,64dc7b2c2f00dfc201b5d4c0,,,,,,,sngl,resources/DB.BMP,resources/Empty.png,Door4,-0.309259259,-0.011111111,1,0,0,0.5026,optionLeft,60,12860,6,14,0,14,0,1,,,,,,,,,,,,,,,,,,,,,,,,,,,,,,,,,,,,,,,
,,,,,,,,2023-08-16_08h31.06.641,HF_wild_card,2022.2.4,Win32,60.03842459,63d53d150a864eb06120bb88,64d2fd46c836a06233681665,64dc7b2c2f00dfc201b5d4c0,,,,,,,sngl,resources/Empty.png,resources/DY.BMP,Door1,0.447222222,0.039814815,1,0,0,0.4992,optionRight,30,12890,6,15,0,15,0,1,,,,,,,,,,,,,,,,,,,,,,,,,,,,,,,,,,,,,,,
,,,,,,,,2023-08-16_08h31.06.641,HF_wild_card,2022.2.4,Win32,60.03842459,63d53d150a864eb06120bb88,64d2fd46c836a06233681665,64dc7b2c2f00dfc201b5d4c0,,,,,,,decisionTrl,resources/DY.BMP,resources/DBN.BMP,Door1,-0.326851852,-0.009259259,1,0,0,0.4695,optionLeft,30,12920,6,16,0,16,0,1,,,,,,,,,,,,,,,,,,,,,,,,,,,,,,,,,,,,,,,
,,,,,,,,2023-08-16_08h31.06.641,HF_wild_card,2022.2.4,Win32,60.03842459,63d53d150a864eb06120bb88,64d2fd46c836a06233681665,64dc7b2c2f00dfc201b5d4c0,,,,,,,sngl,resources/DG.BMP,resources/Empty.png,WildCard_Ex,-0.324074074,-0.006481481,1,0,0,0.4491,optionLeft,45,12965,6,17,0,17,0,1,,,,,,,,,,,,,,,,,,,,,,,,,,,,,,,,,,,,,,,
,,,,,,,,2023-08-16_08h31.06.641,HF_wild_card,2022.2.4,Win32,60.03842459,63d53d150a864eb06120bb88,64d2fd46c836a06233681665,64dc7b2c2f00dfc201b5d4c0,,,,,,,decisionTrl,resources/DY.BMP,resources/DG.BMP,WildCard_Ex,0.262037037,0.014814815,1,0,0,0.4863,optionRight,45,13010,6,18,0,18,0,1,,,,,,,,,,,,,,,,,,,,,,,,,,,,,,,,,,,,,,,
,,,,,,,,2023-08-16_08h31.06.641,HF_wild_card,2022.2.4,Win32,60.03842459,63d53d150a864eb06120bb88,64d2fd46c836a06233681665,64dc7b2c2f00dfc201b5d4c0,,,,,,,decisionTrl,resources/DB.BMP,resources/DP.BMP,Door4,-0.248148148,-0.027777778,1,0,0,1.1824,optionLeft,80,13090,6,19,0,19,0,1,,,,,,,,,,,,,,,,,,,,,,,,,,,,,,,,,,,,,,,
,,,,,,,,2023-08-16_08h31.06.641,HF_wild_card,2022.2.4,Win32,60.03842459,63d53d150a864eb06120bb88,64d2fd46c836a06233681665,64dc7b2c2f00dfc201b5d4c0,,,,,,,sngl,resources/Empty.png,resources/DP.BMP,Door3,0.32962963,-0.010185185,1,0,0,0.4696,optionRight,70,13160,6,20,0,20,0,1,,,,,,,,,,,,,,,,,,,,,,,,,,,,,,,,,,,,,,,
,,,,,,,,2023-08-16_08h31.06.641,HF_wild_card,2022.2.4,Win32,60.03842459,63d53d150a864eb06120bb88,64d2fd46c836a06233681665,64dc7b2c2f00dfc201b5d4c0,,,,,,,decisionTrl,resources/DP.BMP,resources/DB.BMP,Door3,-0.282407407,0.001851852,1,0,0,1.0491,optionLeft,70,13230,6,21,0,21,0,1,,,,,,,,,,,,,,,,,,,,,,,,,,,,,,,,,,,,,,,
,,,,,,,,2023-08-16_08h31.06.641,HF_wild_card,2022.2.4,Win32,60.03842459,63d53d150a864eb06120bb88,64d2fd46c836a06233681665,64dc7b2c2f00dfc201b5d4c0,,,,,,,decisionTrl,resources/DY.BMP,resources/DBN.BMP,Door1,-0.262962963,-0.025925926,1,0,0,0.5315,optionLeft,30,13260,6,22,0,22,0,1,,,,,,,,,,,,,,,,,,,,,,,,,,,,,,,,,,,,,,,
,,,,,,,,2023-08-16_08h31.06.641,HF_wild_card,2022.2.4,Win32,60.03842459,63d53d150a864eb06120bb88,64d2fd46c836a06233681665,64dc7b2c2f00dfc201b5d4c0,,,,,,,decisionTrl,resources/DB.BMP,resources/DP.BMP,Door4,-0.37962963,-0.005555556,1,0,0,2.0323,optionLeft,80,13340,6,23,0,23,0,1,,,,,,,,,,,,,,,,,,,,,,,,,,,,,,,,,,,,,,,
,,,,,,,,2023-08-16_08h31.06.641,HF_wild_card,2022.2.4,Win32,60.03842459,63d53d150a864eb06120bb88,64d2fd46c836a06233681665,64dc7b2c2f00dfc201b5d4c0,,,,,,,decisionTrl,resources/DP.BMP,resources/DB.BMP,Door3,-0.29537037,-0.001851852,1,0,0,1.9824,optionLeft,70,13410,6,24,0,24,0,1,,,,,,,,,,,,,,,,,,,,,,,,,,,,,,,,,,,,,,,
,,,,,,,,2023-08-16_08h31.06.641,HF_wild_card,2022.2.4,Win32,60.03842459,63d53d150a864eb06120bb88,64d2fd46c836a06233681665,64dc7b2c2f00dfc201b5d4c0,,,,,,,sngl,resources/Empty.png,resources/DG.BMP,WildCard_Ex,0.483333333,0.012962963,1,0,0,0.4326,optionRight,45,13455,6,25,0,25,0,1,,,,,,,,,,,,,,,,,,,,,,,,,,,,,,,,,,,,,,,
,,,,,,,,2023-08-16_08h31.06.641,HF_wild_card,2022.2.4,Win32,60.03842459,63d53d150a864eb06120bb88,64d2fd46c836a06233681665,64dc7b2c2f00dfc201b5d4c0,,,,,,,ctch,resources/DY.BMP,resources/DB.BMP,Door4,0.391666667,-0.012962963,1,0,0,0.6529,optionRight,80,13535,6,26,0,26,0,1,,,,,,,,,,,,,,,,,,,,,,,,,,,,,,,,,,,,,,,
,,,,,,,,2023-08-16_08h31.06.641,HF_wild_card,2022.2.4,Win32,60.03842459,63d53d150a864eb06120bb88,64d2fd46c836a06233681665,64dc7b2c2f00dfc201b5d4c0,,,,,,,decisionTrl,resources/DG.BMP,resources/DY.BMP,WildCard_Ex,-0.17962963,-0.008333333,1,0,0,0.8326,optionLeft,45,13580,6,27,0,27,0,1,,,,,,,,,,,,,,,,,,,,,,,,,,,,,,,,,,,,,,,
,,,,,,,,2023-08-16_08h31.06.641,HF_wild_card,2022.2.4,Win32,60.03842459,63d53d150a864eb06120bb88,64d2fd46c836a06233681665,64dc7b2c2f00dfc201b5d4c0,,,,,,,decisionTrl,resources/DY.BMP,resources/DBN.BMP,Door1,-0.24537037,-0.012962963,1,0,0,0.5995,optionLeft,30,13610,6,28,0,28,0,1,,,,,,,,,,,,,,,,,,,,,,,,,,,,,,,,,,,,,,,
,,,,,,,,2023-08-16_08h31.06.641,HF_wild_card,2022.2.4,Win32,60.03842459,63d53d150a864eb06120bb88,64d2fd46c836a06233681665,64dc7b2c2f00dfc201b5d4c0,,,,,,,sngl,resources/DBN.BMP,resources/Empty.png,Door2,-0.451851852,0.025,1,0,0,0.4961,optionLeft,20,13630,6,29,0,29,0,1,,,,,,,,,,,,,,,,,,,,,,,,,,,,,,,,,,,,,,,
,,,,,,,,2023-08-16_08h31.06.641,HF_wild_card,2022.2.4,Win32,60.03842459,63d53d150a864eb06120bb88,64d2fd46c836a06233681665,64dc7b2c2f00dfc201b5d4c0,,,,,,,decisionTrl,resources/DG.BMP,resources/DP.BMP,Door3,0.337037037,0.014814815,1,0,0,1.049,optionRight,70,13700,6,30,0,30,0,1,,,,,,,,,,,,,,,,,,,,,,,,,,,,,,,,,,,,,,,
,,,,,,,,2023-08-16_08h31.06.641,HF_wild_card,2022.2.4,Win32,60.03842459,63d53d150a864eb06120bb88,64d2fd46c836a06233681665,64dc7b2c2f00dfc201b5d4c0,,,,,,,ctch,resources/DB.BMP,resources/DY.BMP,Door4,-0.303703704,0.015740741,1,0,0,0.5794,optionLeft,60,13760,6,31,0,31,0,1,,,,,,,,,,,,,,,,,,,,,,,,,,,,,,,,,,,,,,,
,,,,,,,,2023-08-16_08h31.06.641,HF_wild_card,2022.2.4,Win32,60.03842459,63d53d150a864eb06120bb88,64d2fd46c836a06233681665,64dc7b2c2f00dfc201b5d4c0,,,,,,,sngl,resources/DY.BMP,resources/Empty.png,Door1,-0.306481481,-0.013888889,1,0,0,0.6489,optionLeft,30,13790,6,32,0,32,0,1,,,,,,,,,,,,,,,,,,,,,,,,,,,,,,,,,,,,,,,
,,,,,,,,2023-08-16_08h31.06.641,HF_wild_card,2022.2.4,Win32,60.03842459,63d53d150a864eb06120bb88,64d2fd46c836a06233681665,64dc7b2c2f00dfc201b5d4c0,,,,,,,sngl,resources/Empty.png,resources/DB.BMP,Door4,0.387962963,0.002777778,1,0,0,0.4658,optionRight,80,13870,6,33,0,33,0,1,,,,,,,,,,,,,,,,,,,,,,,,,,,,,,,,,,,,,,,
,,,,,,,,2023-08-16_08h31.06.641,HF_wild_card,2022.2.4,Win32,60.03842459,63d53d150a864eb06120bb88,64d2fd46c836a06233681665,64dc7b2c2f00dfc201b5d4c0,,,,,,,decisionTrl,resources/DBN.BMP,resources/DY.BMP,Door1,0.352777778,0.008333333,1,0,0,0.5623,optionRight,30,13900,6,34,0,34,0,1,,,,,,,,,,,,,,,,,,,,,,,,,,,,,,,,,,,,,,,
,,,,,,,,2023-08-16_08h31.06.641,HF_wild_card,2022.2.4,Win32,60.03842459,63d53d150a864eb06120bb88,64d2fd46c836a06233681665,64dc7b2c2f00dfc201b5d4c0,,,,,,,decisionTrl,resources/DP.BMP,resources/DB.BMP,Door3,-0.303703704,0.002777778,1,0,0,0.803,optionLeft,70,13970,6,35,0,35,0,1,,,,,,,,,,,,,,,,,,,,,,,,,,,,,,,,,,,,,,,
,,,,,,,,2023-08-16_08h31.06.641,HF_wild_card,2022.2.4,Win32,60.03842459,63d53d150a864eb06120bb88,64d2fd46c836a06233681665,64dc7b2c2f00dfc201b5d4c0,,,,,,,decisionTrl,resources/DBN.BMP,resources/DG.BMP,WildCard_Ex,0.428703704,0.007407407,1,0,0,0.5197,optionRight,45,14015,6,36,0,36,0,1,,,,,,,,,,,,,,,,,,,,,,,,,,,,,,,,,,,,,,,
,,,,,,,,2023-08-16_08h31.06.641,HF_wild_card,2022.2.4,Win32,60.03842459,63d53d150a864eb06120bb88,64d2fd46c836a06233681665,64dc7b2c2f00dfc201b5d4c0,,,,,,,decisionTrl,resources/DP.BMP,resources/DG.BMP,Door3,-0.394444444,-0.002777778,1,0,0,0.6489,optionLeft,70,14085,6,37,0,37,0,1,,,,,,,,,,,,,,,,,,,,,,,,,,,,,,,,,,,,,,,
,,,,,,,,2023-08-16_08h31.06.641,HF_wild_card,2022.2.4,Win32,60.03842459,63d53d150a864eb06120bb88,64d2fd46c836a06233681665,64dc7b2c2f00dfc201b5d4c0,,,,,,,decisionTrl,resources/DG.BMP,resources/DB.BMP,WildCard_Ex,-0.396296296,-0.003703704,1,0,0,0.9995,optionLeft,55,14140,6,38,0,38,0,1,,,,,,,,,,,,,,,,,,,,,,,,,,,,,,,,,,,,,,,
,,,,,,,,2023-08-16_08h31.06.641,HF_wild_card,2022.2.4,Win32,60.03842459,63d53d150a864eb06120bb88,64d2fd46c836a06233681665,64dc7b2c2f00dfc201b5d4c0,,,,,,,decisionTrl,resources/DB.BMP,resources/DP.BMP,Door3,0.298148148,0.00462963,1,0,0,0.7359,optionRight,70,14210,6,39,0,39,0,1,,,,,,,,,,,,,,,,,,,,,,,,,,,,,,,,,,,,,,,
,,,,,,,,2023-08-16_08h31.06.641,HF_wild_card,2022.2.4,Win32,60.03842459,63d53d150a864eb06120bb88,64d2fd46c836a06233681665,64dc7b2c2f00dfc201b5d4c0,,,,,,,decisionTrl,resources/DB.BMP,resources/DG.BMP,Door4,-0.275,-0.000925926,1,0,0,0.5323,optionLeft,80,14290,6,40,0,40,0,1,,,,,,,,,,,,,,,,,,,,,,,,,,,,,,,,,,,,,,,
,,,,,,,,2023-08-16_08h31.06.641,HF_wild_card,2022.2.4,Win32,60.03842459,63d53d150a864eb06120bb88,64d2fd46c836a06233681665,64dc7b2c2f00dfc201b5d4c0,,,,,,,ctch,resources/DP.BMP,resources/DBN.BMP,Door3,-0.314814815,0.00462963,1,0,0,0.5195,optionLeft,70,14360,6,41,0,41,0,1,,,,,,,,,,,,,,,,,,,,,,,,,,,,,,,,,,,,,,,
,,,,,,,,2023-08-16_08h31.06.641,HF_wild_card,2022.2.4,Win32,60.03842459,63d53d150a864eb06120bb88,64d2fd46c836a06233681665,64dc7b2c2f00dfc201b5d4c0,,,,,,,decisionTrl,resources/DBN.BMP,resources/DY.BMP,Door1,0.375925926,0.009259259,1,0,0,0.6529,optionRight,30,14390,6,42,0,42,0,1,,,,,,,,,,,,,,,,,,,,,,,,,,,,,,,,,,,,,,,
,,,,,,,,2023-08-16_08h31.06.641,HF_wild_card,2022.2.4,Win32,60.03842459,63d53d150a864eb06120bb88,64d2fd46c836a06233681665,64dc7b2c2f00dfc201b5d4c0,,,,,,,sngl,resources/Empty.png,resources/DBN.BMP,Door2,0.400925926,-0.002777778,1,0,0,0.5991,optionRight,40,14430,6,43,0,43,0,1,,,,,,,,,,,,,,,,,,,,,,,,,,,,,,,,,,,,,,,
,,,,,,,,2023-08-16_08h31.06.641,HF_wild_card,2022.2.4,Win32,60.03842459,63d53d150a864eb06120bb88,64d2fd46c836a06233681665,64dc7b2c2f00dfc201b5d4c0,,,,,,,,,,,,,,,,,,,,,,,,,,5,0,5,0,1,,,,,,,,,,,,,,,,,,,,,,,,,,,,,,,,,,
,,,,,,,,2023-08-16_08h31.06.641,HF_wild_card,2022.2.4,Win32,60.03842459,63d53d150a864eb06120bb88,64d2fd46c836a06233681665,64dc7b2c2f00dfc201b5d4c0,,,,,,,decisionTrl,resources/DB.BMP,resources/DP.BMP,Door4,-0.435185185,-0.038888889,1,0,0,1.1595,optionLeft,80,14510,7,0,0,0,0,1,,,,,,,,,,,,,,,,,,,,,,,,,,,,,,,,,,,,,,,
,,,,,,,,2023-08-16_08h31.06.641,HF_wild_card,2022.2.4,Win32,60.03842459,63d53d150a864eb06120bb88,64d2fd46c836a06233681665,64dc7b2c2f00dfc201b5d4c0,,,,,,,decisionTrl,resources/DP.BMP,resources/DB.BMP,Door3,-0.335185185,-0.012962963,1,0,0,2.8289,optionLeft,70,14580,7,1,0,1,0,1,,,,,,,,,,,,,,,,,,,,,,,,,,,,,,,,,,,,,,,
,,,,,,,,2023-08-16_08h31.06.641,HF_wild_card,2022.2.4,Win32,60.03842459,63d53d150a864eb06120bb88,64d2fd46c836a06233681665,64dc7b2c2f00dfc201b5d4c0,,,,,,,decisionTrl,resources/DY.BMP,resources/DBN.BMP,Door1,-0.511111111,0.006481481,1,0,0,0.6329,optionLeft,30,14610,7,2,0,2,0,1,,,,,,,,,,,,,,,,,,,,,,,,,,,,,,,,,,,,,,,
,,,,,,,,2023-08-16_08h31.06.641,HF_wild_card,2022.2.4,Win32,60.03842459,63d53d150a864eb06120bb88,64d2fd46c836a06233681665,64dc7b2c2f00dfc201b5d4c0,,,,,,,decisionTrl,resources/DBN.BMP,resources/DY.BMP,Door1,0.319444444,0.013888889,1,0,0,0.4794,optionRight,30,14640,7,3,0,3,0,1,,,,,,,,,,,,,,,,,,,,,,,,,,,,,,,,,,,,,,,
,,,,,,,,2023-08-16_08h31.06.641,HF_wild_card,2022.2.4,Win32,60.03842459,63d53d150a864eb06120bb88,64d2fd46c836a06233681665,64dc7b2c2f00dfc201b5d4c0,,,,,,,decisionTrl,resources/DB.BMP,resources/DP.BMP,Door4,-0.32037037,-0.000925926,1,0,0,2.0628,optionLeft,60,14700,7,4,0,4,0,1,,,,,,,,,,,,,,,,,,,,,,,,,,,,,,,,,,,,,,,
,,,,,,,,2023-08-16_08h31.06.641,HF_wild_card,2022.2.4,Win32,60.03842459,63d53d150a864eb06120bb88,64d2fd46c836a06233681665,64dc7b2c2f00dfc201b5d4c0,,,,,,,decisionTrl,resources/DP.BMP,resources/DB.BMP,Door3,-0.257407407,0.00462963,1,0,0,1.2995,optionLeft,70,14770,7,5,0,5,0,1,,,,,,,,,,,,,,,,,,,,,,,,,,,,,,,,,,,,,,,
,,,,,,,,2023-08-16_08h31.06.641,HF_wild_card,2022.2.4,Win32,60.03842459,63d53d150a864eb06120bb88,64d2fd46c836a06233681665,64dc7b2c2f00dfc201b5d4c0,,,,,,,decisionTrl,resources/DBN.BMP,resources/DY.BMP,Door1,0.390740741,0.001851852,1,0,0,0.599,optionRight,30,14800,7,6,0,6,0,1,,,,,,,,,,,,,,,,,,,,,,,,,,,,,,,,,,,,,,,
,,,,,,,,2023-08-16_08h31.06.641,HF_wild_card,2022.2.4,Win32,60.03842459,63d53d150a864eb06120bb88,64d2fd46c836a06233681665,64dc7b2c2f00dfc201b5d4c0,,,,,,,ctch,resources/DB.BMP,resources/DY.BMP,Door4,-0.369444444,0.002777778,1,0,0,0.6824,optionLeft,60,14860,7,7,0,7,0,1,,,,,,,,,,,,,,,,,,,,,,,,,,,,,,,,,,,,,,,
,,,,,,,,2023-08-16_08h31.06.641,HF_wild_card,2022.2.4,Win32,60.03842459,63d53d150a864eb06120bb88,64d2fd46c836a06233681665,64dc7b2c2f00dfc201b5d4c0,,,,,,,decisionTrl,resources/DBN.BMP,resources/DY.BMP,Door1,0.50462963,-0.025,1,0,0,0.5962,optionRight,30,14890,7,8,0,8,0,1,,,,,,,,,,,,,,,,,,,,,,,,,,,,,,,,,,,,,,,
,,,,,,,,2023-08-16_08h31.06.641,HF_wild_card,2022.2.4,Win32,60.03842459,63d53d150a864eb06120bb88,64d2fd46c836a06233681665,64dc7b2c2f00dfc201b5d4c0,,,,,,,ctch,resources/DB.BMP,resources/DY.BMP,Door4,-0.394444444,-0.011111111,1,0,0,0.6461,optionLeft,80,14970,7,9,0,9,0,1,,,,,,,,,,,,,,,,,,,,,,,,,,,,,,,,,,,,,,,
,,,,,,,,2023-08-16_08h31.06.641,HF_wild_card,2022.2.4,Win32,60.03842459,63d53d150a864eb06120bb88,64d2fd46c836a06233681665,64dc7b2c2f00dfc201b5d4c0,,,,,,,decisionTrl,resources/DP.BMP,resources/DB.BMP,Door3,-0.318518519,-0.005555556,1,0,0,1.1294,optionLeft,70,15040,7,10,0,10,0,1,,,,,,,,,,,,,,,,,,,,,,,,,,,,,,,,,,,,,,,
,,,,,,,,2023-08-16_08h31.06.641,HF_wild_card,2022.2.4,Win32,60.03842459,63d53d150a864eb06120bb88,64d2fd46c836a06233681665,64dc7b2c2f00dfc201b5d4c0,,,,,,,decisionTrl,resources/DB.BMP,resources/DP.BMP,Door3,0.633333333,-0.053703704,1,0,0,0.5035,optionRight,70,15110,7,11,0,11,0,1,,,,,,,,,,,,,,,,,,,,,,,,,,,,,,,,,,,,,,,
,,,,,,,,2023-08-16_08h31.06.641,HF_wild_card,2022.2.4,Win32,60.03842459,63d53d150a864eb06120bb88,64d2fd46c836a06233681665,64dc7b2c2f00dfc201b5d4c0,,,,,,,decisionTrl,resources/DY.BMP,resources/DBN.BMP,Door1,-0.294444444,-0.019444444,1,0,0,0.5329,optionLeft,30,15140,7,12,0,12,0,1,,,,,,,,,,,,,,,,,,,,,,,,,,,,,,,,,,,,,,,
,,,,,,,,2023-08-16_08h31.06.641,HF_wild_card,2022.2.4,Win32,60.03842459,63d53d150a864eb06120bb88,64d2fd46c836a06233681665,64dc7b2c2f00dfc201b5d4c0,,,,,,,decisionTrl,resources/DB.BMP,resources/DP.BMP,Door4,-0.353703704,-0.000925926,1,0,0,1.0661,optionLeft,60,15200,7,13,0,13,0,1,,,,,,,,,,,,,,,,,,,,,,,,,,,,,,,,,,,,,,,
,,,,,,,,2023-08-16_08h31.06.641,HF_wild_card,2022.2.4,Win32,60.03842459,63d53d150a864eb06120bb88,64d2fd46c836a06233681665,64dc7b2c2f00dfc201b5d4c0,,,,,,,decisionTrl,resources/DY.BMP,resources/DBN.BMP,Door1,-0.351851852,-0.006481481,1,0,0,0.5337,optionLeft,30,15230,7,14,0,14,0,1,,,,,,,,,,,,,,,,,,,,,,,,,,,,,,,,,,,,,,,
,,,,,,,,2023-08-16_08h31.06.641,HF_wild_card,2022.2.4,Win32,60.03842459,63d53d150a864eb06120bb88,64d2fd46c836a06233681665,64dc7b2c2f00dfc201b5d4c0,,,,,,,decisionTrl,resources/DP.BMP,resources/DB.BMP,Door4,0.398148148,-0.028703704,1,0,0,1.82,optionRight,60,15290,7,15,0,15,0,1,,,,,,,,,,,,,,,,,,,,,,,,,,,,,,,,,,,,,,,
,,,,,,,,2023-08-16_08h31.06.641,HF_wild_card,2022.2.4,Win32,60.03842459,63d53d150a864eb06120bb88,64d2fd46c836a06233681665,64dc7b2c2f00dfc201b5d4c0,,,,,,,decisionTrl,resources/DBN.BMP,resources/DY.BMP,Door1,0.344444444,0.00462963,1,0,0,0.7296,optionRight,30,15320,7,16,0,16,0,1,,,,,,,,,,,,,,,,,,,,,,,,,,,,,,,,,,,,,,,
,,,,,,,,2023-08-16_08h31.06.641,HF_wild_card,2022.2.4,Win32,60.03842459,63d53d150a864eb06120bb88,64d2fd46c836a06233681665,64dc7b2c2f00dfc201b5d4c0,,,,,,,ctch,resources/DP.BMP,resources/DBN.BMP,Door3,-0.468518519,-0.012962963,1,0,0,0.4959,optionLeft,70,15390,7,17,0,17,0,1,,,,,,,,,,,,,,,,,,,,,,,,,,,,,,,,,,,,,,,
,,,,,,,,2023-08-16_08h31.06.641,HF_wild_card,2022.2.4,Win32,60.03842459,63d53d150a864eb06120bb88,64d2fd46c836a06233681665,64dc7b2c2f00dfc201b5d4c0,,,,,,,ctch,resources/DP.BMP,resources/DBN.BMP,Door3,-0.336111111,0.000925926,1,0,0,0.5,optionLeft,70,15460,7,18,0,18,0,1,,,,,,,,,,,,,,,,,,,,,,,,,,,,,,,,,,,,,,,
,,,,,,,,2023-08-16_08h31.06.641,HF_wild_card,2022.2.4,Win32,60.03842459,63d53d150a864eb06120bb88,64d2fd46c836a06233681665,64dc7b2c2f00dfc201b5d4c0,,,,,,,ctch,resources/DB.BMP,resources/DY.BMP,Door4,-0.221296296,0.018518519,1,0,0,1.0133,optionLeft,60,15520,7,19,0,19,0,1,,,,,,,,,,,,,,,,,,,,,,,,,,,,,,,,,,,,,,,
,,,,,,,,2023-08-16_08h31.06.641,HF_wild_card,2022.2.4,Win32,60.03842459,63d53d150a864eb06120bb88,64d2fd46c836a06233681665,64dc7b2c2f00dfc201b5d4c0,,,,,,,decisionTrl,resources/DB.BMP,resources/DP.BMP,Door4,-0.255555556,-0.00462963,1,0,0,0.8995,optionLeft,80,15600,7,20,0,20,0,1,,,,,,,,,,,,,,,,,,,,,,,,,,,,,,,,,,,,,,,
,,,,,,,,2023-08-16_08h31.06.641,HF_wild_card,2022.2.4,Win32,60.03842459,63d53d150a864eb06120bb88,64d2fd46c836a06233681665,64dc7b2c2f00dfc201b5d4c0,,,,,,,decisionTrl,resources/DB.BMP,resources/DP.BMP,Door4,-0.384259259,-0.003703704,1,0,0,0.5537,optionLeft,80,15680,7,21,0,21,0,1,,,,,,,,,,,,,,,,,,,,,,,,,,,,,,,,,,,,,,,
,,,,,,,,2023-08-16_08h31.06.641,HF_wild_card,2022.2.4,Win32,60.03842459,63d53d150a864eb06120bb88,64d2fd46c836a06233681665,64dc7b2c2f00dfc201b5d4c0,,,,,,,ctch,resources/DY.BMP,resources/DB.BMP,Door4,0.223148148,0.021296296,1,0,0,0.6131,optionRight,60,15740,7,22,0,22,0,1,,,,,,,,,,,,,,,,,,,,,,,,,,,,,,,,,,,,,,,
,,,,,,,,2023-08-16_08h31.06.641,HF_wild_card,2022.2.4,Win32,60.03842459,63d53d150a864eb06120bb88,64d2fd46c836a06233681665,64dc7b2c2f00dfc201b5d4c0,,,,,,,decisionTrl,resources/DY.BMP,resources/DBN.BMP,Door1,-0.498148148,0.02962963,1,0,0,0.5329,optionLeft,30,15770,7,23,0,23,0,1,,,,,,,,,,,,,,,,,,,,,,,,,,,,,,,,,,,,,,,
,,,,,,,,2023-08-16_08h31.06.641,HF_wild_card,2022.2.4,Win32,60.03842459,63d53d150a864eb06120bb88,64d2fd46c836a06233681665,64dc7b2c2f00dfc201b5d4c0,,,,,,,decisionTrl,resources/DBN.BMP,resources/DY.BMP,Door1,0.417592593,-0.007407407,1,0,0,0.6995,optionRight,30,15800,7,24,0,24,0,1,,,,,,,,,,,,,,,,,,,,,,,,,,,,,,,,,,,,,,,
,,,,,,,,2023-08-16_08h31.06.641,HF_wild_card,2022.2.4,Win32,60.03842459,63d53d150a864eb06120bb88,64d2fd46c836a06233681665,64dc7b2c2f00dfc201b5d4c0,,,,,,,decisionTrl,resources/DBN.BMP,resources/DY.BMP,Door1,0.430555556,-0.015740741,1,0,0,0.5531,optionRight,30,15830,7,25,0,25,0,1,,,,,,,,,,,,,,,,,,,,,,,,,,,,,,,,,,,,,,,
,,,,,,,,2023-08-16_08h31.06.641,HF_wild_card,2022.2.4,Win32,60.03842459,63d53d150a864eb06120bb88,64d2fd46c836a06233681665,64dc7b2c2f00dfc201b5d4c0,,,,,,,ctch,resources/DBN.BMP,resources/DP.BMP,Door3,0.225,-0.010185185,1,0,0,0.5997,optionRight,70,15900,7,26,0,26,0,1,,,,,,,,,,,,,,,,,,,,,,,,,,,,,,,,,,,,,,,
,,,,,,,,2023-08-16_08h31.06.641,HF_wild_card,2022.2.4,Win32,60.03842459,63d53d150a864eb06120bb88,64d2fd46c836a06233681665,64dc7b2c2f00dfc201b5d4c0,,,,,,,ctch,resources/DP.BMP,resources/DBN.BMP,Door3,-0.383333333,-0.016666667,1,0,0,0.5152,optionLeft,70,15970,7,27,0,27,0,1,,,,,,,,,,,,,,,,,,,,,,,,,,,,,,,,,,,,,,,
,,,,,,,,2023-08-16_08h31.06.641,HF_wild_card,2022.2.4,Win32,60.03842459,63d53d150a864eb06120bb88,64d2fd46c836a06233681665,64dc7b2c2f00dfc201b5d4c0,,,,,,,decisionTrl,resources/DY.BMP,resources/DBN.BMP,Door1,-0.380555556,0,1,0,0,0.5461,optionLeft,30,16000,7,28,0,28,0,1,,,,,,,,,,,,,,,,,,,,,,,,,,,,,,,,,,,,,,,
,,,,,,,,2023-08-16_08h31.06.641,HF_wild_card,2022.2.4,Win32,60.03842459,63d53d150a864eb06120bb88,64d2fd46c836a06233681665,64dc7b2c2f00dfc201b5d4c0,,,,,,,decisionTrl,resources/DY.BMP,resources/DBN.BMP,Door1,-0.527777778,0.025925926,1,0,0,0.4959,optionLeft,30,16030,7,29,0,29,0,1,,,,,,,,,,,,,,,,,,,,,,,,,,,,,,,,,,,,,,,
,,,,,,,,2023-08-16_08h31.06.641,HF_wild_card,2022.2.4,Win32,60.03842459,63d53d150a864eb06120bb88,64d2fd46c836a06233681665,64dc7b2c2f00dfc201b5d4c0,,,,,,,ctch,resources/DBN.BMP,resources/DP.BMP,Door3,0.386111111,0.014814815,1,0,0,0.5368,optionRight,70,16100,7,30,0,30,0,1,,,,,,,,,,,,,,,,,,,,,,,,,,,,,,,,,,,,,,,
,,,,,,,,2023-08-16_08h31.06.641,HF_wild_card,2022.2.4,Win32,60.03842459,63d53d150a864eb06120bb88,64d2fd46c836a06233681665,64dc7b2c2f00dfc201b5d4c0,,,,,,,ctch,resources/DY.BMP,resources/DB.BMP,Door4,0.310185185,-0.016666667,1,0,0,0.8629,optionRight,80,16180,7,31,0,31,0,1,,,,,,,,,,,,,,,,,,,,,,,,,,,,,,,,,,,,,,,
,,,,,,,,2023-08-16_08h31.06.641,HF_wild_card,2022.2.4,Win32,60.03842459,63d53d150a864eb06120bb88,64d2fd46c836a06233681665,64dc7b2c2f00dfc201b5d4c0,,,,,,,ctch,resources/DBN.BMP,resources/DP.BMP,Door3,0.350925926,-0.016666667,1,0,0,0.5514,optionRight,70,16250,7,32,0,32,0,1,,,,,,,,,,,,,,,,,,,,,,,,,,,,,,,,,,,,,,,
,,,,,,,,2023-08-16_08h31.06.641,HF_wild_card,2022.2.4,Win32,60.03842459,63d53d150a864eb06120bb88,64d2fd46c836a06233681665,64dc7b2c2f00dfc201b5d4c0,,,,,,,decisionTrl,resources/DP.BMP,resources/DB.BMP,Door3,-0.343518519,0.010185185,1,0,0,0.4961,optionLeft,70,16320,7,33,0,33,0,1,,,,,,,,,,,,,,,,,,,,,,,,,,,,,,,,,,,,,,,
,,,,,,,,2023-08-16_08h31.06.641,HF_wild_card,2022.2.4,Win32,60.03842459,63d53d150a864eb06120bb88,64d2fd46c836a06233681665,64dc7b2c2f00dfc201b5d4c0,,,,,,,decisionTrl,resources/DP.BMP,resources/DB.BMP,Door3,-0.339814815,0.028703704,1,0,0,1.3998,optionLeft,70,16390,7,34,0,34,0,1,,,,,,,,,,,,,,,,,,,,,,,,,,,,,,,,,,,,,,,
,,,,,,,,2023-08-16_08h31.06.641,HF_wild_card,2022.2.4,Win32,60.03842459,63d53d150a864eb06120bb88,64d2fd46c836a06233681665,64dc7b2c2f00dfc201b5d4c0,,,,,,,ctch,resources/DY.BMP,resources/DB.BMP,Door4,0.47037037,-0.04537037,1,0,0,0.5667,optionRight,60,16450,7,35,0,35,0,1,,,,,,,,,,,,,,,,,,,,,,,,,,,,,,,,,,,,,,,
,,,,,,,,2023-08-16_08h31.06.641,HF_wild_card,2022.2.4,Win32,60.03842459,63d53d150a864eb06120bb88,64d2fd46c836a06233681665,64dc7b2c2f00dfc201b5d4c0,,,,,,,,,,,,,,,,,,,,,,,,,,6,0,6,0,1,,,,,,,,,,,,,,,,,,,,,,,,,,,,,,,,,,
,,,,,,,,2023-08-16_08h31.06.641,HF_wild_card,2022.2.4,Win32,60.03842459,63d53d150a864eb06120bb88,64d2fd46c836a06233681665,64dc7b2c2f00dfc201b5d4c0,,,,,,,,,,,,,,,,,,,,,,,,,,,,,,,4,,,,,,,,,,,,,,,,,,,,,,,,,,,,,,,,,
,,,,,,,,2023-08-16_08h31.06.641,HF_wild_card,2022.2.4,Win32,60.03842459,63d53d150a864eb06120bb88,64d2fd46c836a06233681665,64dc7b2c2f00dfc201b5d4c0,,,,,,,,,,,,,,,,,,,,,,,,,,,,,,,,,,,,,,,,,,,,,,,,,,,,,,,,,,,,,,,,
,,,,,,,,2023-08-16_08h31.06.641,HF_wild_card,2022.2.4,Win32,60.03842459,63d53d150a864eb06120bb88,64d2fd46c836a06233681665,64dc7b2c2f00dfc201b5d4c0,,,,,,,,,,,,,,,,,,,,,,,,,,,,,,,,70,Door3,resources/DP.BMP,0,0,0,0,1,,,,,,,,,,,,,,,,,,,,,,,,,
,,,,,,,,2023-08-16_08h31.06.641,HF_wild_card,2022.2.4,Win32,60.03842459,63d53d150a864eb06120bb88,64d2fd46c836a06233681665,64dc7b2c2f00dfc201b5d4c0,,,,,,,,,,,,,,,,,,,,,,,,,,,,,,,,45,WC_nonExtreme,resources/DR.BMP,1,0,1,0,1,,,,,,,,,,,,,,,,,,,,,,,,,
,,,,,,,,2023-08-16_08h31.06.641,HF_wild_card,2022.2.4,Win32,60.03842459,63d53d150a864eb06120bb88,64d2fd46c836a06233681665,64dc7b2c2f00dfc201b5d4c0,,,,,,,,,,,,,,,,,,,,,,,,,,,,,,,,80,Door4,resources/DB.BMP,2,0,2,0,1,,,,,,,,,,,,,,,,,,,,,,,,,
,,,,,,,,2023-08-16_08h31.06.641,HF_wild_card,2022.2.4,Win32,60.03842459,63d53d150a864eb06120bb88,64d2fd46c836a06233681665,64dc7b2c2f00dfc201b5d4c0,,,,,,,,,,,,,,,,,,,,,,,,,,,,,,,,30,Door1,resources/DY.BMP,3,0,3,0,1,,,,,,,,,,,,,,,,,,,,,,,,,
,,,,,,,,2023-08-16_08h31.06.641,HF_wild_card,2022.2.4,Win32,60.03842459,63d53d150a864eb06120bb88,64d2fd46c836a06233681665,64dc7b2c2f00dfc201b5d4c0,,,,,,,,,,,,,,,,,,,,,,,,,,,,,,,,20,Door2,resources/DBN.BMP,4,0,4,0,1,,,,,,,,,,,,,,,,,,,,,,,,,
,,,,,,,,2023-08-16_08h31.06.641,HF_wild_card,2022.2.4,Win32,60.03842459,63d53d150a864eb06120bb88,64d2fd46c836a06233681665,64dc7b2c2f00dfc201b5d4c0,,,,,,,,,,,,,,,,,,,,,,,,,,,,,,,,35,WC_extreme,resources/DG.BMP,5,0,5,0,1,,,,,,,,,,,,,,,,,,,,,,,,,
,,,,,,,,2023-08-16_08h31.06.641,HF_wild_card,2022.2.4,Win32,60.03842459,63d53d150a864eb06120bb88,64d2fd46c836a06233681665,64dc7b2c2f00dfc201b5d4c0,,,,,,,,,,,,,,,,,,,,,,,,,,,,,,,,,,,,,,,,,,,,,,,,,,,,,,,,,,,,,,,,
,,,,,,,,2023-08-16_08h31.06.641,HF_wild_card,2022.2.4,Win32,60.03842459,63d53d150a864eb06120bb88,64d2fd46c836a06233681665,64dc7b2c2f00dfc201b5d4c0,,,,,,,,,,,,,,,,,,,,,,,,,,,,,,,,,,,,,,,,0,0,0,0,1,,,,,,,,,,,,,,,,,,,,
