Condition,Low fixed image (Door1),Low risky image (Door2),High fixed image (Door3),High risky image (Door4),NonExtreme Wild Card 1,NonExtreme Wild Card 2,,date,expName,psychopyVersion,OS,frameRate,PROLIFIC_PID,STUDY_ID,SESSION_ID,mouse_2.x,mouse_2.y,mouse_2.leftButton,mouse_2.midButton,mouse_2.rightButton,mouse_2.clicked_name,Trial Type,Left Option Image,Right Option Image,Chosen Door,mouse.x,mouse.y,mouse.leftButton,mouse.midButton,mouse.rightButton,mouse.time,mouse.clicked_name,Feedback,Cumulative Reward,Block,trial.thisRepN,trial.thisTrialN,trial.thisN,trial.thisIndex,trial.ran,blocks.thisRepN,blocks.thisTrialN,blocks.thisN,blocks.thisIndex,blocks.ran,Money conversion,First Outcome Reported,Shown Door (First Outcome),Displayed Image (First Outcome),outcomes.thisRepN,outcomes.thisTrialN,outcomes.thisN,outcomes.thisIndex,outcomes.ran,judgments.thisRepN,judgments.thisTrialN,judgments.thisN,judgments.thisIndex,judgments.ran,freqMouse.x,freqMouse.y,freqMouse.leftButton,freqMouse.midButton,freqMouse.rightButton,freqMouse.clicked_name,trials.thisRepN,trials.thisTrialN,trials.thisN,trials.thisIndex,trials.ran,FQJ for first outcome,FQJ for second outcome,Shown Door,Displayed Image,judgBlock.thisRepN,judgBlock.thisTrialN,judgBlock.thisN,judgBlock.thisIndex,judgBlock.ran
2,resources/DG.BMP,resources/DB.BMP,resources/DP.BMP,resources/DR.BMP,resources/DY.BMP,resources/DBN.BMP,,2023-08-06_08h07.04.743,HF_wild_card,2022.2.4,Win32,60.06006006,5ccfc9a51aa04800169be694,64ce5acb97489d65b14ecc7a,64cf466aeaf0773358abe779,,,,,,,,,,,,,,,,,,,,,,,,,,,,,,,,,,,,,,,,,,,,,,,,,,,,,,,,,,,,,,,,
,,,,,,,,2023-08-06_08h07.04.743,HF_wild_card,2022.2.4,Win32,60.06006006,5ccfc9a51aa04800169be694,64ce5acb97489d65b14ecc7a,64cf466aeaf0773358abe779,-0.003703718,-0.416666667,1,0,0,agree,,,,,,,,,,,,,,,,,,,,,,,,,,,,,,,,,,,,,,,,,,,,,,,,,,,,,,,,,,
,,,,,,,,2023-08-06_08h07.04.743,HF_wild_card,2022.2.4,Win32,60.06006006,5ccfc9a51aa04800169be694,64ce5acb97489d65b14ecc7a,64cf466aeaf0773358abe779,,,,,,,,,,,,,,,,,,,,,,,,,,,,,,,,,,,,,,,,,,,,,,,,,,,,,,,,,,,,,,,,
,,,,,,,,2023-08-06_08h07.04.743,HF_wild_card,2022.2.4,Win32,60.06006006,5ccfc9a51aa04800169be694,64ce5acb97489d65b14ecc7a,64cf466aeaf0773358abe779,,,,,,,sngl,resources/Empty.png,resources/DBN.BMP,WildCard_NonEx,0.374074159,-0.041666667,1,0,0,5.9533,optionRight,45,45,1,0,0,0,0,1,,,,,,,,,,,,,,,,,,,,,,,,,,,,,,,,,,,,,,,
,,,,,,,,2023-08-06_08h07.04.743,HF_wild_card,2022.2.4,Win32,60.06006006,5ccfc9a51aa04800169be694,64ce5acb97489d65b14ecc7a,64cf466aeaf0773358abe779,,,,,,,ctch,resources/DB.BMP,resources/DP.BMP,Door2,-0.381481489,-0.055555556,1,0,0,4.1446,optionLeft,20,65,1,1,0,1,0,1,,,,,,,,,,,,,,,,,,,,,,,,,,,,,,,,,,,,,,,
,,,,,,,,2023-08-06_08h07.04.743,HF_wild_card,2022.2.4,Win32,60.06006006,5ccfc9a51aa04800169be694,64ce5acb97489d65b14ecc7a,64cf466aeaf0773358abe779,,,,,,,decisionTrl,resources/DR.BMP,resources/DP.BMP,Door3,0.345370399,-0.042592614,1,0,0,5.2542,optionRight,70,135,1,2,0,2,0,1,,,,,,,,,,,,,,,,,,,,,,,,,,,,,,,,,,,,,,,
,,,,,,,,2023-08-06_08h07.04.743,HF_wild_card,2022.2.4,Win32,60.06006006,5ccfc9a51aa04800169be694,64ce5acb97489d65b14ecc7a,64cf466aeaf0773358abe779,,,,,,,ctch,resources/DG.BMP,resources/DR.BMP,Door4,0.325925898,-0.048148155,1,0,0,3.3364,optionRight,80,215,1,3,0,3,0,1,,,,,,,,,,,,,,,,,,,,,,,,,,,,,,,,,,,,,,,
,,,,,,,,2023-08-06_08h07.04.743,HF_wild_card,2022.2.4,Win32,60.06006006,5ccfc9a51aa04800169be694,64ce5acb97489d65b14ecc7a,64cf466aeaf0773358abe779,,,,,,,decisionTrl,resources/DB.BMP,resources/DG.BMP,Door2,-0.419444437,-0.019444466,1,0,0,2.3067,optionLeft,20,235,1,4,0,4,0,1,,,,,,,,,,,,,,,,,,,,,,,,,,,,,,,,,,,,,,,
,,,,,,,,2023-08-06_08h07.04.743,HF_wild_card,2022.2.4,Win32,60.06006006,5ccfc9a51aa04800169be694,64ce5acb97489d65b14ecc7a,64cf466aeaf0773358abe779,,,,,,,decisionTrl,resources/DB.BMP,resources/DG.BMP,Door2,-0.359259252,-0.030555548,1,0,0,3.0607,optionLeft,40,275,1,5,0,5,0,1,,,,,,,,,,,,,,,,,,,,,,,,,,,,,,,,,,,,,,,
,,,,,,,,2023-08-06_08h07.04.743,HF_wild_card,2022.2.4,Win32,60.06006006,5ccfc9a51aa04800169be694,64ce5acb97489d65b14ecc7a,64cf466aeaf0773358abe779,,,,,,,ctch,resources/DB.BMP,resources/DP.BMP,Door2,-0.354629623,-0.055555556,1,0,0,2.7275,optionLeft,20,295,1,6,0,6,0,1,,,,,,,,,,,,,,,,,,,,,,,,,,,,,,,,,,,,,,,
,,,,,,,,2023-08-06_08h07.04.743,HF_wild_card,2022.2.4,Win32,60.06006006,5ccfc9a51aa04800169be694,64ce5acb97489d65b14ecc7a,64cf466aeaf0773358abe779,,,,,,,sngl,resources/DG.BMP,resources/Empty.png,Door1,-0.413888896,0.037037037,1,0,0,2.4291,optionLeft,30,325,1,7,0,7,0,1,,,,,,,,,,,,,,,,,,,,,,,,,,,,,,,,,,,,,,,
,,,,,,,,2023-08-06_08h07.04.743,HF_wild_card,2022.2.4,Win32,60.06006006,5ccfc9a51aa04800169be694,64ce5acb97489d65b14ecc7a,64cf466aeaf0773358abe779,,,,,,,decisionTrl,resources/DG.BMP,resources/DBN.BMP,WildCard_NonEx,0.424074102,0.034259266,1,0,0,2.7778,optionRight,45,370,1,8,0,8,0,1,,,,,,,,,,,,,,,,,,,,,,,,,,,,,,,,,,,,,,,
,,,,,,,,2023-08-06_08h07.04.743,HF_wild_card,2022.2.4,Win32,60.06006006,5ccfc9a51aa04800169be694,64ce5acb97489d65b14ecc7a,64cf466aeaf0773358abe779,,,,,,,ctch,resources/DG.BMP,resources/DR.BMP,Door4,0.361111111,-0.00462963,1,0,0,2.2483,optionRight,60,430,1,9,0,9,0,1,,,,,,,,,,,,,,,,,,,,,,,,,,,,,,,,,,,,,,,
,,,,,,,,2023-08-06_08h07.04.743,HF_wild_card,2022.2.4,Win32,60.06006006,5ccfc9a51aa04800169be694,64ce5acb97489d65b14ecc7a,64cf466aeaf0773358abe779,,,,,,,decisionTrl,resources/DR.BMP,resources/DP.BMP,Door3,0.385185242,-0.008333347,1,0,0,2.8088,optionRight,70,500,1,10,0,10,0,1,,,,,,,,,,,,,,,,,,,,,,,,,,,,,,,,,,,,,,,
,,,,,,,,2023-08-06_08h07.04.743,HF_wild_card,2022.2.4,Win32,60.06006006,5ccfc9a51aa04800169be694,64ce5acb97489d65b14ecc7a,64cf466aeaf0773358abe779,,,,,,,decisionTrl,resources/DG.BMP,resources/DB.BMP,Door2,0.425000085,-0.006481489,1,0,0,1.7063,optionRight,20,520,1,11,0,11,0,1,,,,,,,,,,,,,,,,,,,,,,,,,,,,,,,,,,,,,,,
,,,,,,,,2023-08-06_08h07.04.743,HF_wild_card,2022.2.4,Win32,60.06006006,5ccfc9a51aa04800169be694,64ce5acb97489d65b14ecc7a,64cf466aeaf0773358abe779,,,,,,,sngl,resources/Empty.png,resources/DBN.BMP,WildCard_NonEx,0.440740797,0.050925926,1,0,0,1.666,optionRight,55,575,1,12,0,12,0,1,,,,,,,,,,,,,,,,,,,,,,,,,,,,,,,,,,,,,,,
,,,,,,,,2023-08-06_08h07.04.743,HF_wild_card,2022.2.4,Win32,60.06006006,5ccfc9a51aa04800169be694,64ce5acb97489d65b14ecc7a,64cf466aeaf0773358abe779,,,,,,,sngl,resources/Empty.png,resources/DP.BMP,Door3,0.397222307,0.030555548,1,0,0,2.3118,optionRight,70,645,1,13,0,13,0,1,,,,,,,,,,,,,,,,,,,,,,,,,,,,,,,,,,,,,,,
,,,,,,,,2023-08-06_08h07.04.743,HF_wild_card,2022.2.4,Win32,60.06006006,5ccfc9a51aa04800169be694,64ce5acb97489d65b14ecc7a,64cf466aeaf0773358abe779,,,,,,,ctch,resources/DR.BMP,resources/DG.BMP,Door4,-0.39444443,-0.065740762,1,0,0,2.1415,optionLeft,80,725,1,14,0,14,0,1,,,,,,,,,,,,,,,,,,,,,,,,,,,,,,,,,,,,,,,
,,,,,,,,2023-08-06_08h07.04.743,HF_wild_card,2022.2.4,Win32,60.06006006,5ccfc9a51aa04800169be694,64ce5acb97489d65b14ecc7a,64cf466aeaf0773358abe779,,,,,,,decisionTrl,resources/DBN.BMP,resources/DP.BMP,WildCard_NonEx,-0.376851859,0.01203703,1,0,0,1.7942,optionLeft,55,780,1,15,0,15,0,1,,,,,,,,,,,,,,,,,,,,,,,,,,,,,,,,,,,,,,,
,,,,,,,,2023-08-06_08h07.04.743,HF_wild_card,2022.2.4,Win32,60.06006006,5ccfc9a51aa04800169be694,64ce5acb97489d65b14ecc7a,64cf466aeaf0773358abe779,,,,,,,decisionTrl,resources/DG.BMP,resources/DB.BMP,Door2,0.347222222,0.014814801,1,0,0,1.568,optionRight,20,800,1,16,0,16,0,1,,,,,,,,,,,,,,,,,,,,,,,,,,,,,,,,,,,,,,,
,,,,,,,,2023-08-06_08h07.04.743,HF_wild_card,2022.2.4,Win32,60.06006006,5ccfc9a51aa04800169be694,64ce5acb97489d65b14ecc7a,64cf466aeaf0773358abe779,,,,,,,decisionTrl,resources/DBN.BMP,resources/DG.BMP,WildCard_NonEx,-0.361111111,0.021296289,1,0,0,3.294,optionLeft,55,855,1,17,0,17,0,1,,,,,,,,,,,,,,,,,,,,,,,,,,,,,,,,,,,,,,,
,,,,,,,,2023-08-06_08h07.04.743,HF_wild_card,2022.2.4,Win32,60.06006006,5ccfc9a51aa04800169be694,64ce5acb97489d65b14ecc7a,64cf466aeaf0773358abe779,,,,,,,sngl,resources/DP.BMP,resources/Empty.png,Door3,-0.364814794,-0.018518519,1,0,0,1.5964,optionLeft,70,925,1,18,0,18,0,1,,,,,,,,,,,,,,,,,,,,,,,,,,,,,,,,,,,,,,,
,,,,,,,,2023-08-06_08h07.04.743,HF_wild_card,2022.2.4,Win32,60.06006006,5ccfc9a51aa04800169be694,64ce5acb97489d65b14ecc7a,64cf466aeaf0773358abe779,,,,,,,decisionTrl,resources/DP.BMP,resources/DR.BMP,Door3,-0.396296289,0.011111118,1,0,0,3.8765,optionLeft,70,995,1,19,0,19,0,1,,,,,,,,,,,,,,,,,,,,,,,,,,,,,,,,,,,,,,,
,,,,,,,,2023-08-06_08h07.04.743,HF_wild_card,2022.2.4,Win32,60.06006006,5ccfc9a51aa04800169be694,64ce5acb97489d65b14ecc7a,64cf466aeaf0773358abe779,,,,,,,decisionTrl,resources/DB.BMP,resources/DG.BMP,Door1,0.439814815,-0.000925947,1,0,0,1.572,optionRight,30,1025,1,20,0,20,0,1,,,,,,,,,,,,,,,,,,,,,,,,,,,,,,,,,,,,,,,
,,,,,,,,2023-08-06_08h07.04.743,HF_wild_card,2022.2.4,Win32,60.06006006,5ccfc9a51aa04800169be694,64ce5acb97489d65b14ecc7a,64cf466aeaf0773358abe779,,,,,,,ctch,resources/DP.BMP,resources/DB.BMP,Door2,0.377777806,0,1,0,0,2.4423,optionRight,40,1065,1,21,0,21,0,1,,,,,,,,,,,,,,,,,,,,,,,,,,,,,,,,,,,,,,,
,,,,,,,,2023-08-06_08h07.04.743,HF_wild_card,2022.2.4,Win32,60.06006006,5ccfc9a51aa04800169be694,64ce5acb97489d65b14ecc7a,64cf466aeaf0773358abe779,,,,,,,decisionTrl,resources/DR.BMP,resources/DP.BMP,Door3,0.37037037,0.002777771,1,0,0,2.1786,optionRight,70,1135,1,22,0,22,0,1,,,,,,,,,,,,,,,,,,,,,,,,,,,,,,,,,,,,,,,
,,,,,,,,2023-08-06_08h07.04.743,HF_wild_card,2022.2.4,Win32,60.06006006,5ccfc9a51aa04800169be694,64ce5acb97489d65b14ecc7a,64cf466aeaf0773358abe779,,,,,,,decisionTrl,resources/DP.BMP,resources/DBN.BMP,WildCard_NonEx,0.372222194,0.02407406,1,0,0,1.6486,optionRight,55,1190,1,23,0,23,0,1,,,,,,,,,,,,,,,,,,,,,,,,,,,,,,,,,,,,,,,
,,,,,,,,2023-08-06_08h07.04.743,HF_wild_card,2022.2.4,Win32,60.06006006,5ccfc9a51aa04800169be694,64ce5acb97489d65b14ecc7a,64cf466aeaf0773358abe779,,,,,,,decisionTrl,resources/DB.BMP,resources/DBN.BMP,Door2,-0.41574072,-0.025000007,1,0,0,2.8439,optionLeft,20,1210,1,24,0,24,0,1,,,,,,,,,,,,,,,,,,,,,,,,,,,,,,,,,,,,,,,
,,,,,,,,2023-08-06_08h07.04.743,HF_wild_card,2022.2.4,Win32,60.06006006,5ccfc9a51aa04800169be694,64ce5acb97489d65b14ecc7a,64cf466aeaf0773358abe779,,,,,,,sngl,resources/Empty.png,resources/DG.BMP,Door1,0.41851849,0.012962942,1,0,0,1.8519,optionRight,30,1240,1,25,0,25,0,1,,,,,,,,,,,,,,,,,,,,,,,,,,,,,,,,,,,,,,,
,,,,,,,,2023-08-06_08h07.04.743,HF_wild_card,2022.2.4,Win32,60.06006006,5ccfc9a51aa04800169be694,64ce5acb97489d65b14ecc7a,64cf466aeaf0773358abe779,,,,,,,sngl,resources/DBN.BMP,resources/Empty.png,WildCard_NonEx,-0.383333312,0.035185178,1,0,0,1.5255,optionLeft,45,1285,1,26,0,26,0,1,,,,,,,,,,,,,,,,,,,,,,,,,,,,,,,,,,,,,,,
,,,,,,,,2023-08-06_08h07.04.743,HF_wild_card,2022.2.4,Win32,60.06006006,5ccfc9a51aa04800169be694,64ce5acb97489d65b14ecc7a,64cf466aeaf0773358abe779,,,,,,,ctch,resources/DR.BMP,resources/DG.BMP,Door4,-0.417592578,-0.010185206,1,0,0,2.6235,optionLeft,60,1345,1,27,0,27,0,1,,,,,,,,,,,,,,,,,,,,,,,,,,,,,,,,,,,,,,,
,,,,,,,,2023-08-06_08h07.04.743,HF_wild_card,2022.2.4,Win32,60.06006006,5ccfc9a51aa04800169be694,64ce5acb97489d65b14ecc7a,64cf466aeaf0773358abe779,,,,,,,ctch,resources/DP.BMP,resources/DB.BMP,Door3,-0.351851852,-0.018518519,1,0,0,2.613,optionLeft,70,1415,1,28,0,28,0,1,,,,,,,,,,,,,,,,,,,,,,,,,,,,,,,,,,,,,,,
,,,,,,,,2023-08-06_08h07.04.743,HF_wild_card,2022.2.4,Win32,60.06006006,5ccfc9a51aa04800169be694,64ce5acb97489d65b14ecc7a,64cf466aeaf0773358abe779,,,,,,,decisionTrl,resources/DP.BMP,resources/DR.BMP,Door3,-0.359259252,-0.042592614,1,0,0,2.1779,optionLeft,70,1485,1,29,0,29,0,1,,,,,,,,,,,,,,,,,,,,,,,,,,,,,,,,,,,,,,,
,,,,,,,,2023-08-06_08h07.04.743,HF_wild_card,2022.2.4,Win32,60.06006006,5ccfc9a51aa04800169be694,64ce5acb97489d65b14ecc7a,64cf466aeaf0773358abe779,,,,,,,decisionTrl,resources/DG.BMP,resources/DB.BMP,Door1,-0.280555513,-0.024074095,1,0,0,3.2442,optionLeft,30,1515,1,30,0,30,0,1,,,,,,,,,,,,,,,,,,,,,,,,,,,,,,,,,,,,,,,
,,,,,,,,2023-08-06_08h07.04.743,HF_wild_card,2022.2.4,Win32,60.06006006,5ccfc9a51aa04800169be694,64ce5acb97489d65b14ecc7a,64cf466aeaf0773358abe779,,,,,,,decisionTrl,resources/DR.BMP,resources/DBN.BMP,Door4,-0.313888868,-0.034259266,1,0,0,3.2612,optionLeft,80,1595,1,31,0,31,0,1,,,,,,,,,,,,,,,,,,,,,,,,,,,,,,,,,,,,,,,
,,,,,,,,2023-08-06_08h07.04.743,HF_wild_card,2022.2.4,Win32,60.06006006,5ccfc9a51aa04800169be694,64ce5acb97489d65b14ecc7a,64cf466aeaf0773358abe779,,,,,,,decisionTrl,resources/DG.BMP,resources/DB.BMP,Door2,0.377777806,0.051851838,1,0,0,2.4458,optionRight,20,1615,1,32,0,32,0,1,,,,,,,,,,,,,,,,,,,,,,,,,,,,,,,,,,,,,,,
,,,,,,,,2023-08-06_08h07.04.743,HF_wild_card,2022.2.4,Win32,60.06006006,5ccfc9a51aa04800169be694,64ce5acb97489d65b14ecc7a,64cf466aeaf0773358abe779,,,,,,,decisionTrl,resources/DP.BMP,resources/DR.BMP,Door3,-0.363888882,-0.040740755,1,0,0,2.2127,optionLeft,70,1685,1,33,0,33,0,1,,,,,,,,,,,,,,,,,,,,,,,,,,,,,,,,,,,,,,,
,,,,,,,,2023-08-06_08h07.04.743,HF_wild_card,2022.2.4,Win32,60.06006006,5ccfc9a51aa04800169be694,64ce5acb97489d65b14ecc7a,64cf466aeaf0773358abe779,,,,,,,decisionTrl,resources/DP.BMP,resources/DR.BMP,Door3,-0.473148134,0.008333312,1,0,0,2.3613,optionLeft,70,1755,1,34,0,34,0,1,,,,,,,,,,,,,,,,,,,,,,,,,,,,,,,,,,,,,,,
,,,,,,,,2023-08-06_08h07.04.743,HF_wild_card,2022.2.4,Win32,60.06006006,5ccfc9a51aa04800169be694,64ce5acb97489d65b14ecc7a,64cf466aeaf0773358abe779,,,,,,,sngl,resources/Empty.png,resources/DR.BMP,Door4,0.333333333,-0.009259259,1,0,0,1.5451,optionRight,60,1815,1,35,0,35,0,1,,,,,,,,,,,,,,,,,,,,,,,,,,,,,,,,,,,,,,,
,,,,,,,,2023-08-06_08h07.04.743,HF_wild_card,2022.2.4,Win32,60.06006006,5ccfc9a51aa04800169be694,64ce5acb97489d65b14ecc7a,64cf466aeaf0773358abe779,,,,,,,sngl,resources/DB.BMP,resources/Empty.png,Door2,-0.380555541,0.017592571,1,0,0,1.6105,optionLeft,40,1855,1,36,0,36,0,1,,,,,,,,,,,,,,,,,,,,,,,,,,,,,,,,,,,,,,,
,,,,,,,,2023-08-06_08h07.04.743,HF_wild_card,2022.2.4,Win32,60.06006006,5ccfc9a51aa04800169be694,64ce5acb97489d65b14ecc7a,64cf466aeaf0773358abe779,,,,,,,sngl,resources/DBN.BMP,resources/Empty.png,WildCard_NonEx,-0.463888875,0.011111118,1,0,0,1.4294,optionLeft,55,1910,1,37,0,37,0,1,,,,,,,,,,,,,,,,,,,,,,,,,,,,,,,,,,,,,,,
,,,,,,,,2023-08-06_08h07.04.743,HF_wild_card,2022.2.4,Win32,60.06006006,5ccfc9a51aa04800169be694,64ce5acb97489d65b14ecc7a,64cf466aeaf0773358abe779,,,,,,,decisionTrl,resources/DBN.BMP,resources/DB.BMP,WildCard_NonEx,-0.325925933,-0.013888889,1,0,0,2.4381,optionLeft,45,1955,1,38,0,38,0,1,,,,,,,,,,,,,,,,,,,,,,,,,,,,,,,,,,,,,,,
,,,,,,,,2023-08-06_08h07.04.743,HF_wild_card,2022.2.4,Win32,60.06006006,5ccfc9a51aa04800169be694,64ce5acb97489d65b14ecc7a,64cf466aeaf0773358abe779,,,,,,,sngl,resources/Empty.png,resources/DB.BMP,Door2,0.32222225,0.0074074,1,0,0,1.7301,optionRight,20,1975,1,39,0,39,0,1,,,,,,,,,,,,,,,,,,,,,,,,,,,,,,,,,,,,,,,
,,,,,,,,2023-08-06_08h07.04.743,HF_wild_card,2022.2.4,Win32,60.06006006,5ccfc9a51aa04800169be694,64ce5acb97489d65b14ecc7a,64cf466aeaf0773358abe779,,,,,,,decisionTrl,resources/DR.BMP,resources/DP.BMP,Door3,0.383333418,0.02407406,1,0,0,2.2121,optionRight,70,2045,1,40,0,40,0,1,,,,,,,,,,,,,,,,,,,,,,,,,,,,,,,,,,,,,,,
,,,,,,,,2023-08-06_08h07.04.743,HF_wild_card,2022.2.4,Win32,60.06006006,5ccfc9a51aa04800169be694,64ce5acb97489d65b14ecc7a,64cf466aeaf0773358abe779,,,,,,,sngl,resources/DR.BMP,resources/Empty.png,Door4,-0.355555534,0.002777771,1,0,0,1.3814,optionLeft,80,2125,1,41,0,41,0,1,,,,,,,,,,,,,,,,,,,,,,,,,,,,,,,,,,,,,,,
,,,,,,,,2023-08-06_08h07.04.743,HF_wild_card,2022.2.4,Win32,60.06006006,5ccfc9a51aa04800169be694,64ce5acb97489d65b14ecc7a,64cf466aeaf0773358abe779,,,,,,,decisionTrl,resources/DBN.BMP,resources/DR.BMP,Door4,0.32222225,-0.024074095,1,0,0,2.0952,optionRight,60,2185,1,42,0,42,0,1,,,,,,,,,,,,,,,,,,,,,,,,,,,,,,,,,,,,,,,
,,,,,,,,2023-08-06_08h07.04.743,HF_wild_card,2022.2.4,Win32,60.06006006,5ccfc9a51aa04800169be694,64ce5acb97489d65b14ecc7a,64cf466aeaf0773358abe779,,,,,,,decisionTrl,resources/DB.BMP,resources/DG.BMP,Door2,-0.326851845,-0.072222215,1,0,0,2.3297,optionLeft,20,2205,1,43,0,43,0,1,,,,,,,,,,,,,,,,,,,,,,,,,,,,,,,,,,,,,,,
,,,,,,,,2023-08-06_08h07.04.743,HF_wild_card,2022.2.4,Win32,60.06006006,5ccfc9a51aa04800169be694,64ce5acb97489d65b14ecc7a,64cf466aeaf0773358abe779,,,,,,,,,,,,,,,,,,,,,,,,,,0,0,0,0,1,,,,,,,,,,,,,,,,,,,,,,,,,,,,,,,,,,
,,,,,,,,2023-08-06_08h07.04.743,HF_wild_card,2022.2.4,Win32,60.06006006,5ccfc9a51aa04800169be694,64ce5acb97489d65b14ecc7a,64cf466aeaf0773358abe779,,,,,,,decisionTrl,resources/DG.BMP,resources/DB.BMP,Door2,0.345370399,-0.057407414,1,0,0,1.9197,optionRight,20,2225,2,0,0,0,0,1,,,,,,,,,,,,,,,,,,,,,,,,,,,,,,,,,,,,,,,
,,,,,,,,2023-08-06_08h07.04.743,HF_wild_card,2022.2.4,Win32,60.06006006,5ccfc9a51aa04800169be694,64ce5acb97489d65b14ecc7a,64cf466aeaf0773358abe779,,,,,,,sngl,resources/Empty.png,resources/DBN.BMP,WildCard_NonEx,0.283333319,0.038888896,1,0,0,1.3626,optionRight,45,2270,2,1,0,1,0,1,,,,,,,,,,,,,,,,,,,,,,,,,,,,,,,,,,,,,,,
,,,,,,,,2023-08-06_08h07.04.743,HF_wild_card,2022.2.4,Win32,60.06006006,5ccfc9a51aa04800169be694,64ce5acb97489d65b14ecc7a,64cf466aeaf0773358abe779,,,,,,,decisionTrl,resources/DP.BMP,resources/DR.BMP,Door3,-0.3675926,-0.061111132,1,0,0,1.3463,optionLeft,70,2340,2,2,0,2,0,1,,,,,,,,,,,,,,,,,,,,,,,,,,,,,,,,,,,,,,,
,,,,,,,,2023-08-06_08h07.04.743,HF_wild_card,2022.2.4,Win32,60.06006006,5ccfc9a51aa04800169be694,64ce5acb97489d65b14ecc7a,64cf466aeaf0773358abe779,,,,,,,decisionTrl,resources/DG.BMP,resources/DBN.BMP,WildCard_NonEx,0.359259288,0.073148127,1,0,0,2.0425,optionRight,45,2385,2,3,0,3,0,1,,,,,,,,,,,,,,,,,,,,,,,,,,,,,,,,,,,,,,,
,,,,,,,,2023-08-06_08h07.04.743,HF_wild_card,2022.2.4,Win32,60.06006006,5ccfc9a51aa04800169be694,64ce5acb97489d65b14ecc7a,64cf466aeaf0773358abe779,,,,,,,decisionTrl,resources/DBN.BMP,resources/DR.BMP,WildCard_NonEx,-0.369444423,0,1,0,0,2.9603,optionLeft,45,2430,2,4,0,4,0,1,,,,,,,,,,,,,,,,,,,,,,,,,,,,,,,,,,,,,,,
,,,,,,,,2023-08-06_08h07.04.743,HF_wild_card,2022.2.4,Win32,60.06006006,5ccfc9a51aa04800169be694,64ce5acb97489d65b14ecc7a,64cf466aeaf0773358abe779,,,,,,,sngl,resources/Empty.png,resources/DG.BMP,Door1,0.374074159,0.032407407,1,0,0,1.3446,optionRight,30,2460,2,5,0,5,0,1,,,,,,,,,,,,,,,,,,,,,,,,,,,,,,,,,,,,,,,
,,,,,,,,2023-08-06_08h07.04.743,HF_wild_card,2022.2.4,Win32,60.06006006,5ccfc9a51aa04800169be694,64ce5acb97489d65b14ecc7a,64cf466aeaf0773358abe779,,,,,,,ctch,resources/DR.BMP,resources/DG.BMP,Door4,-0.323148127,-0.014814836,1,0,0,1.681,optionLeft,60,2520,2,6,0,6,0,1,,,,,,,,,,,,,,,,,,,,,,,,,,,,,,,,,,,,,,,
,,,,,,,,2023-08-06_08h07.04.743,HF_wild_card,2022.2.4,Win32,60.06006006,5ccfc9a51aa04800169be694,64ce5acb97489d65b14ecc7a,64cf466aeaf0773358abe779,,,,,,,sngl,resources/DP.BMP,resources/Empty.png,Door3,-0.380555541,-0.006481489,1,0,0,1.2771,optionLeft,70,2590,2,7,0,7,0,1,,,,,,,,,,,,,,,,,,,,,,,,,,,,,,,,,,,,,,,
,,,,,,,,2023-08-06_08h07.04.743,HF_wild_card,2022.2.4,Win32,60.06006006,5ccfc9a51aa04800169be694,64ce5acb97489d65b14ecc7a,64cf466aeaf0773358abe779,,,,,,,ctch,resources/DG.BMP,resources/DR.BMP,Door4,0.27870369,-0.005555577,1,0,0,3.0133,optionRight,80,2670,2,8,0,8,0,1,,,,,,,,,,,,,,,,,,,,,,,,,,,,,,,,,,,,,,,
,,,,,,,,2023-08-06_08h07.04.743,HF_wild_card,2022.2.4,Win32,60.06006006,5ccfc9a51aa04800169be694,64ce5acb97489d65b14ecc7a,64cf466aeaf0773358abe779,,,,,,,sngl,resources/Empty.png,resources/DB.BMP,Door2,0.346296381,0.042592578,1,0,0,1.3293,optionRight,40,2710,2,9,0,9,0,1,,,,,,,,,,,,,,,,,,,,,,,,,,,,,,,,,,,,,,,
,,,,,,,,2023-08-06_08h07.04.743,HF_wild_card,2022.2.4,Win32,60.06006006,5ccfc9a51aa04800169be694,64ce5acb97489d65b14ecc7a,64cf466aeaf0773358abe779,,,,,,,decisionTrl,resources/DBN.BMP,resources/DP.BMP,Door3,0.381481453,0.068518497,1,0,0,2.2468,optionRight,70,2780,2,10,0,10,0,1,,,,,,,,,,,,,,,,,,,,,,,,,,,,,,,,,,,,,,,
,,,,,,,,2023-08-06_08h07.04.743,HF_wild_card,2022.2.4,Win32,60.06006006,5ccfc9a51aa04800169be694,64ce5acb97489d65b14ecc7a,64cf466aeaf0773358abe779,,,,,,,decisionTrl,resources/DP.BMP,resources/DR.BMP,Door3,-0.361111111,-0.018518519,1,0,0,1.8295,optionLeft,70,2850,2,11,0,11,0,1,,,,,,,,,,,,,,,,,,,,,,,,,,,,,,,,,,,,,,,
,,,,,,,,2023-08-06_08h07.04.743,HF_wild_card,2022.2.4,Win32,60.06006006,5ccfc9a51aa04800169be694,64ce5acb97489d65b14ecc7a,64cf466aeaf0773358abe779,,,,,,,sngl,resources/DB.BMP,resources/Empty.png,Door2,-0.350925905,-0.006481489,1,0,0,1.1972,optionLeft,20,2870,2,12,0,12,0,1,,,,,,,,,,,,,,,,,,,,,,,,,,,,,,,,,,,,,,,
,,,,,,,,2023-08-06_08h07.04.743,HF_wild_card,2022.2.4,Win32,60.06006006,5ccfc9a51aa04800169be694,64ce5acb97489d65b14ecc7a,64cf466aeaf0773358abe779,,,,,,,decisionTrl,resources/DP.BMP,resources/DR.BMP,Door3,-0.373148141,0.043518526,1,0,0,2.4786,optionLeft,70,2940,2,13,0,13,0,1,,,,,,,,,,,,,,,,,,,,,,,,,,,,,,,,,,,,,,,
,,,,,,,,2023-08-06_08h07.04.743,HF_wild_card,2022.2.4,Win32,60.06006006,5ccfc9a51aa04800169be694,64ce5acb97489d65b14ecc7a,64cf466aeaf0773358abe779,,,,,,,ctch,resources/DB.BMP,resources/DP.BMP,Door3,0.380555612,0.029629637,1,0,0,1.747,optionRight,70,3010,2,14,0,14,0,1,,,,,,,,,,,,,,,,,,,,,,,,,,,,,,,,,,,,,,,
,,,,,,,,2023-08-06_08h07.04.743,HF_wild_card,2022.2.4,Win32,60.06006006,5ccfc9a51aa04800169be694,64ce5acb97489d65b14ecc7a,64cf466aeaf0773358abe779,,,,,,,decisionTrl,resources/DB.BMP,resources/DG.BMP,Door2,-0.307407414,-0.009259259,1,0,0,2.1056,optionLeft,20,3030,2,15,0,15,0,1,,,,,,,,,,,,,,,,,,,,,,,,,,,,,,,,,,,,,,,
,,,,,,,,2023-08-06_08h07.04.743,HF_wild_card,2022.2.4,Win32,60.06006006,5ccfc9a51aa04800169be694,64ce5acb97489d65b14ecc7a,64cf466aeaf0773358abe779,,,,,,,decisionTrl,resources/DR.BMP,resources/DP.BMP,Door3,0.426851908,0.046296296,1,0,0,2.1782,optionRight,70,3100,2,16,0,16,0,1,,,,,,,,,,,,,,,,,,,,,,,,,,,,,,,,,,,,,,,
,,,,,,,,2023-08-06_08h07.04.743,HF_wild_card,2022.2.4,Win32,60.06006006,5ccfc9a51aa04800169be694,64ce5acb97489d65b14ecc7a,64cf466aeaf0773358abe779,,,,,,,decisionTrl,resources/DG.BMP,resources/DB.BMP,Door1,-0.352777764,-0.013888889,1,0,0,1.8447,optionLeft,30,3130,2,17,0,17,0,1,,,,,,,,,,,,,,,,,,,,,,,,,,,,,,,,,,,,,,,
,,,,,,,,2023-08-06_08h07.04.743,HF_wild_card,2022.2.4,Win32,60.06006006,5ccfc9a51aa04800169be694,64ce5acb97489d65b14ecc7a,64cf466aeaf0773358abe779,,,,,,,ctch,resources/DP.BMP,resources/DB.BMP,Door3,-0.39166666,-0.025925919,1,0,0,1.5946,optionLeft,70,3200,2,18,0,18,0,1,,,,,,,,,,,,,,,,,,,,,,,,,,,,,,,,,,,,,,,
,,,,,,,,2023-08-06_08h07.04.743,HF_wild_card,2022.2.4,Win32,60.06006006,5ccfc9a51aa04800169be694,64ce5acb97489d65b14ecc7a,64cf466aeaf0773358abe779,,,,,,,sngl,resources/Empty.png,resources/DR.BMP,Door4,0.315740797,0.013888889,1,0,0,1.3462,optionRight,80,3280,2,19,0,19,0,1,,,,,,,,,,,,,,,,,,,,,,,,,,,,,,,,,,,,,,,
,,,,,,,,2023-08-06_08h07.04.743,HF_wild_card,2022.2.4,Win32,60.06006006,5ccfc9a51aa04800169be694,64ce5acb97489d65b14ecc7a,64cf466aeaf0773358abe779,,,,,,,decisionTrl,resources/DP.BMP,resources/DR.BMP,Door4,0.309259344,0.018518519,1,0,0,1.609,optionRight,80,3360,2,20,0,20,0,1,,,,,,,,,,,,,,,,,,,,,,,,,,,,,,,,,,,,,,,
,,,,,,,,2023-08-06_08h07.04.743,HF_wild_card,2022.2.4,Win32,60.06006006,5ccfc9a51aa04800169be694,64ce5acb97489d65b14ecc7a,64cf466aeaf0773358abe779,,,,,,,decisionTrl,resources/DG.BMP,resources/DB.BMP,Door2,0.237963005,0.01666666,1,0,0,2.1797,optionRight,20,3380,2,21,0,21,0,1,,,,,,,,,,,,,,,,,,,,,,,,,,,,,,,,,,,,,,,
,,,,,,,,2023-08-06_08h07.04.743,HF_wild_card,2022.2.4,Win32,60.06006006,5ccfc9a51aa04800169be694,64ce5acb97489d65b14ecc7a,64cf466aeaf0773358abe779,,,,,,,ctch,resources/DR.BMP,resources/DG.BMP,Door4,-0.339814822,-0.0074074,1,0,0,1.78,optionLeft,60,3440,2,22,0,22,0,1,,,,,,,,,,,,,,,,,,,,,,,,,,,,,,,,,,,,,,,
,,,,,,,,2023-08-06_08h07.04.743,HF_wild_card,2022.2.4,Win32,60.06006006,5ccfc9a51aa04800169be694,64ce5acb97489d65b14ecc7a,64cf466aeaf0773358abe779,,,,,,,decisionTrl,resources/DB.BMP,resources/DG.BMP,Door1,0.284259302,0.050925926,1,0,0,3.1954,optionRight,30,3470,2,23,0,23,0,1,,,,,,,,,,,,,,,,,,,,,,,,,,,,,,,,,,,,,,,
,,,,,,,,2023-08-06_08h07.04.743,HF_wild_card,2022.2.4,Win32,60.06006006,5ccfc9a51aa04800169be694,64ce5acb97489d65b14ecc7a,64cf466aeaf0773358abe779,,,,,,,ctch,resources/DB.BMP,resources/DP.BMP,Door3,0.337962963,0.057407414,1,0,0,1.5456,optionRight,70,3540,2,24,0,24,0,1,,,,,,,,,,,,,,,,,,,,,,,,,,,,,,,,,,,,,,,
,,,,,,,,2023-08-06_08h07.04.743,HF_wild_card,2022.2.4,Win32,60.06006006,5ccfc9a51aa04800169be694,64ce5acb97489d65b14ecc7a,64cf466aeaf0773358abe779,,,,,,,decisionTrl,resources/DB.BMP,resources/DBN.BMP,WildCard_NonEx,0.263888889,0.027777778,1,0,0,1.8422,optionRight,45,3585,2,25,0,25,0,1,,,,,,,,,,,,,,,,,,,,,,,,,,,,,,,,,,,,,,,
,,,,,,,,2023-08-06_08h07.04.743,HF_wild_card,2022.2.4,Win32,60.06006006,5ccfc9a51aa04800169be694,64ce5acb97489d65b14ecc7a,64cf466aeaf0773358abe779,,,,,,,decisionTrl,resources/DBN.BMP,resources/DB.BMP,WildCard_NonEx,-0.357407393,-0.027777778,1,0,0,1.5629,optionLeft,55,3640,2,26,0,26,0,1,,,,,,,,,,,,,,,,,,,,,,,,,,,,,,,,,,,,,,,
,,,,,,,,2023-08-06_08h07.04.743,HF_wild_card,2022.2.4,Win32,60.06006006,5ccfc9a51aa04800169be694,64ce5acb97489d65b14ecc7a,64cf466aeaf0773358abe779,,,,,,,decisionTrl,resources/DR.BMP,resources/DP.BMP,Door3,0.330555527,0.011111118,1,0,0,1.863,optionRight,70,3710,2,27,0,27,0,1,,,,,,,,,,,,,,,,,,,,,,,,,,,,,,,,,,,,,,,
,,,,,,,,2023-08-06_08h07.04.743,HF_wild_card,2022.2.4,Win32,60.06006006,5ccfc9a51aa04800169be694,64ce5acb97489d65b14ecc7a,64cf466aeaf0773358abe779,,,,,,,decisionTrl,resources/DB.BMP,resources/DG.BMP,Door2,-0.287037037,-0.025000007,1,0,0,2.0609,optionLeft,20,3730,2,28,0,28,0,1,,,,,,,,,,,,,,,,,,,,,,,,,,,,,,,,,,,,,,,
,,,,,,,,2023-08-06_08h07.04.743,HF_wild_card,2022.2.4,Win32,60.06006006,5ccfc9a51aa04800169be694,64ce5acb97489d65b14ecc7a,64cf466aeaf0773358abe779,,,,,,,decisionTrl,resources/DR.BMP,resources/DBN.BMP,Door4,-0.375925912,-0.030555548,1,0,0,1.9617,optionLeft,60,3790,2,29,0,29,0,1,,,,,,,,,,,,,,,,,,,,,,,,,,,,,,,,,,,,,,,
,,,,,,,,2023-08-06_08h07.04.743,HF_wild_card,2022.2.4,Win32,60.06006006,5ccfc9a51aa04800169be694,64ce5acb97489d65b14ecc7a,64cf466aeaf0773358abe779,,,,,,,sngl,resources/Empty.png,resources/DBN.BMP,WildCard_NonEx,0.386111083,0.076851845,1,0,0,1.2964,optionRight,55,3845,2,30,0,30,0,1,,,,,,,,,,,,,,,,,,,,,,,,,,,,,,,,,,,,,,,
,,,,,,,,2023-08-06_08h07.04.743,HF_wild_card,2022.2.4,Win32,60.06006006,5ccfc9a51aa04800169be694,64ce5acb97489d65b14ecc7a,64cf466aeaf0773358abe779,,,,,,,decisionTrl,resources/DB.BMP,resources/DG.BMP,Door1,0.339814787,0.051851838,1,0,0,1.8166,optionRight,30,3875,2,31,0,31,0,1,,,,,,,,,,,,,,,,,,,,,,,,,,,,,,,,,,,,,,,
,,,,,,,,2023-08-06_08h07.04.743,HF_wild_card,2022.2.4,Win32,60.06006006,5ccfc9a51aa04800169be694,64ce5acb97489d65b14ecc7a,64cf466aeaf0773358abe779,,,,,,,sngl,resources/DG.BMP,resources/Empty.png,Door1,-0.337037016,0.032407407,1,0,0,1.2292,optionLeft,30,3905,2,32,0,32,0,1,,,,,,,,,,,,,,,,,,,,,,,,,,,,,,,,,,,,,,,
,,,,,,,,2023-08-06_08h07.04.743,HF_wild_card,2022.2.4,Win32,60.06006006,5ccfc9a51aa04800169be694,64ce5acb97489d65b14ecc7a,64cf466aeaf0773358abe779,,,,,,,sngl,resources/Empty.png,resources/DP.BMP,Door3,0.32222225,0.020370377,1,0,0,1.4398,optionRight,70,3975,2,33,0,33,0,1,,,,,,,,,,,,,,,,,,,,,,,,,,,,,,,,,,,,,,,
,,,,,,,,2023-08-06_08h07.04.743,HF_wild_card,2022.2.4,Win32,60.06006006,5ccfc9a51aa04800169be694,64ce5acb97489d65b14ecc7a,64cf466aeaf0773358abe779,,,,,,,decisionTrl,resources/DP.BMP,resources/DBN.BMP,Door3,-0.381481489,-0.018518519,1,0,0,2.3962,optionLeft,70,4045,2,34,0,34,0,1,,,,,,,,,,,,,,,,,,,,,,,,,,,,,,,,,,,,,,,
,,,,,,,,2023-08-06_08h07.04.743,HF_wild_card,2022.2.4,Win32,60.06006006,5ccfc9a51aa04800169be694,64ce5acb97489d65b14ecc7a,64cf466aeaf0773358abe779,,,,,,,sngl,resources/DBN.BMP,resources/Empty.png,WildCard_NonEx,-0.41111109,0.005555541,1,0,0,1.2134,optionLeft,45,4090,2,35,0,35,0,1,,,,,,,,,,,,,,,,,,,,,,,,,,,,,,,,,,,,,,,
,,,,,,,,2023-08-06_08h07.04.743,HF_wild_card,2022.2.4,Win32,60.06006006,5ccfc9a51aa04800169be694,64ce5acb97489d65b14ecc7a,64cf466aeaf0773358abe779,,,,,,,sngl,resources/DR.BMP,resources/Empty.png,Door4,-0.440740727,-0.012962977,1,0,0,1.2096,optionLeft,60,4150,2,36,0,36,0,1,,,,,,,,,,,,,,,,,,,,,,,,,,,,,,,,,,,,,,,
,,,,,,,,2023-08-06_08h07.04.743,HF_wild_card,2022.2.4,Win32,60.06006006,5ccfc9a51aa04800169be694,64ce5acb97489d65b14ecc7a,64cf466aeaf0773358abe779,,,,,,,decisionTrl,resources/DBN.BMP,resources/DG.BMP,WildCard_NonEx,-0.325925933,0.00462963,1,0,0,2.4259,optionLeft,45,4195,2,37,0,37,0,1,,,,,,,,,,,,,,,,,,,,,,,,,,,,,,,,,,,,,,,
,,,,,,,,2023-08-06_08h07.04.743,HF_wild_card,2022.2.4,Win32,60.06006006,5ccfc9a51aa04800169be694,64ce5acb97489d65b14ecc7a,64cf466aeaf0773358abe779,,,,,,,decisionTrl,resources/DR.BMP,resources/DP.BMP,Door3,0.389814871,0.074999986,1,0,0,1.7449,optionRight,70,4265,2,38,0,38,0,1,,,,,,,,,,,,,,,,,,,,,,,,,,,,,,,,,,,,,,,
,,,,,,,,2023-08-06_08h07.04.743,HF_wild_card,2022.2.4,Win32,60.06006006,5ccfc9a51aa04800169be694,64ce5acb97489d65b14ecc7a,64cf466aeaf0773358abe779,,,,,,,ctch,resources/DP.BMP,resources/DB.BMP,Door3,-0.417592578,0.006481489,1,0,0,1.3945,optionLeft,70,4335,2,39,0,39,0,1,,,,,,,,,,,,,,,,,,,,,,,,,,,,,,,,,,,,,,,
,,,,,,,,2023-08-06_08h07.04.743,HF_wild_card,2022.2.4,Win32,60.06006006,5ccfc9a51aa04800169be694,64ce5acb97489d65b14ecc7a,64cf466aeaf0773358abe779,,,,,,,sngl,resources/DBN.BMP,resources/Empty.png,WildCard_NonEx,-0.375,0.021296289,1,0,0,1.1891,optionLeft,55,4390,2,40,0,40,0,1,,,,,,,,,,,,,,,,,,,,,,,,,,,,,,,,,,,,,,,
,,,,,,,,2023-08-06_08h07.04.743,HF_wild_card,2022.2.4,Win32,60.06006006,5ccfc9a51aa04800169be694,64ce5acb97489d65b14ecc7a,64cf466aeaf0773358abe779,,,,,,,ctch,resources/DG.BMP,resources/DR.BMP,Door4,0.349074046,0.043518526,1,0,0,2.0426,optionRight,80,4470,2,41,0,41,0,1,,,,,,,,,,,,,,,,,,,,,,,,,,,,,,,,,,,,,,,
,,,,,,,,2023-08-06_08h07.04.743,HF_wild_card,2022.2.4,Win32,60.06006006,5ccfc9a51aa04800169be694,64ce5acb97489d65b14ecc7a,64cf466aeaf0773358abe779,,,,,,,decisionTrl,resources/DG.BMP,resources/DB.BMP,Door2,0.248148176,0.034259266,1,0,0,2.4287,optionRight,40,4510,2,42,0,42,0,1,,,,,,,,,,,,,,,,,,,,,,,,,,,,,,,,,,,,,,,
,,,,,,,,2023-08-06_08h07.04.743,HF_wild_card,2022.2.4,Win32,60.06006006,5ccfc9a51aa04800169be694,64ce5acb97489d65b14ecc7a,64cf466aeaf0773358abe779,,,,,,,decisionTrl,resources/DR.BMP,resources/DP.BMP,Door3,0.407407407,0.025925919,1,0,0,2.913,optionRight,70,4580,2,43,0,43,0,1,,,,,,,,,,,,,,,,,,,,,,,,,,,,,,,,,,,,,,,
,,,,,,,,2023-08-06_08h07.04.743,HF_wild_card,2022.2.4,Win32,60.06006006,5ccfc9a51aa04800169be694,64ce5acb97489d65b14ecc7a,64cf466aeaf0773358abe779,,,,,,,,,,,,,,,,,,,,,,,,,,1,0,1,0,1,,,,,,,,,,,,,,,,,,,,,,,,,,,,,,,,,,
,,,,,,,,2023-08-06_08h07.04.743,HF_wild_card,2022.2.4,Win32,60.06006006,5ccfc9a51aa04800169be694,64ce5acb97489d65b14ecc7a,64cf466aeaf0773358abe779,,,,,,,ctch,resources/DG.BMP,resources/DR.BMP,Door4,0.431481538,-0.008333347,1,0,0,1.6523,optionRight,80,4660,3,0,0,0,0,1,,,,,,,,,,,,,,,,,,,,,,,,,,,,,,,,,,,,,,,
,,,,,,,,2023-08-06_08h07.04.743,HF_wild_card,2022.2.4,Win32,60.06006006,5ccfc9a51aa04800169be694,64ce5acb97489d65b14ecc7a,64cf466aeaf0773358abe779,,,,,,,sngl,resources/DB.BMP,resources/Empty.png,Door2,-0.308333326,-0.035185178,1,0,0,1.3311,optionLeft,40,4700,3,1,0,1,0,1,,,,,,,,,,,,,,,,,,,,,,,,,,,,,,,,,,,,,,,
,,,,,,,,2023-08-06_08h07.04.743,HF_wild_card,2022.2.4,Win32,60.06006006,5ccfc9a51aa04800169be694,64ce5acb97489d65b14ecc7a,64cf466aeaf0773358abe779,,,,,,,sngl,resources/DR.BMP,resources/Empty.png,Door4,-0.365740741,-0.025925919,1,0,0,1.1603,optionLeft,80,4780,3,2,0,2,0,1,,,,,,,,,,,,,,,,,,,,,,,,,,,,,,,,,,,,,,,
,,,,,,,,2023-08-06_08h07.04.743,HF_wild_card,2022.2.4,Win32,60.06006006,5ccfc9a51aa04800169be694,64ce5acb97489d65b14ecc7a,64cf466aeaf0773358abe779,,,,,,,ctch,resources/DG.BMP,resources/DR.BMP,Door4,0.334259316,0.045370349,1,0,0,1.9941,optionRight,60,4840,3,3,0,3,0,1,,,,,,,,,,,,,,,,,,,,,,,,,,,,,,,,,,,,,,,
,,,,,,,,2023-08-06_08h07.04.743,HF_wild_card,2022.2.4,Win32,60.06006006,5ccfc9a51aa04800169be694,64ce5acb97489d65b14ecc7a,64cf466aeaf0773358abe779,,,,,,,sngl,resources/Empty.png,resources/DBN.BMP,WildCard_NonEx,0.295370384,0.059259238,1,0,0,1.2788,optionRight,55,4895,3,4,0,4,0,1,,,,,,,,,,,,,,,,,,,,,,,,,,,,,,,,,,,,,,,
,,,,,,,,2023-08-06_08h07.04.743,HF_wild_card,2022.2.4,Win32,60.06006006,5ccfc9a51aa04800169be694,64ce5acb97489d65b14ecc7a,64cf466aeaf0773358abe779,,,,,,,decisionTrl,resources/DB.BMP,resources/DG.BMP,Door1,0.337962963,0.041666667,1,0,0,2.228,optionRight,30,4925,3,5,0,5,0,1,,,,,,,,,,,,,,,,,,,,,,,,,,,,,,,,,,,,,,,
,,,,,,,,2023-08-06_08h07.04.743,HF_wild_card,2022.2.4,Win32,60.06006006,5ccfc9a51aa04800169be694,64ce5acb97489d65b14ecc7a,64cf466aeaf0773358abe779,,,,,,,sngl,resources/Empty.png,resources/DB.BMP,Door2,0.299074102,0.049999979,1,0,0,1.4103,optionRight,20,4945,3,6,0,6,0,1,,,,,,,,,,,,,,,,,,,,,,,,,,,,,,,,,,,,,,,
,,,,,,,,2023-08-06_08h07.04.743,HF_wild_card,2022.2.4,Win32,60.06006006,5ccfc9a51aa04800169be694,64ce5acb97489d65b14ecc7a,64cf466aeaf0773358abe779,,,,,,,decisionTrl,resources/DP.BMP,resources/DR.BMP,Door3,-0.337037016,-0.001851859,1,0,0,1.512,optionLeft,70,5015,3,7,0,7,0,1,,,,,,,,,,,,,,,,,,,,,,,,,,,,,,,,,,,,,,,
,,,,,,,,2023-08-06_08h07.04.743,HF_wild_card,2022.2.4,Win32,60.06006006,5ccfc9a51aa04800169be694,64ce5acb97489d65b14ecc7a,64cf466aeaf0773358abe779,,,,,,,decisionTrl,resources/DG.BMP,resources/DB.BMP,Door2,0.233333376,0.049999979,1,0,0,2.2813,optionRight,40,5055,3,8,0,8,0,1,,,,,,,,,,,,,,,,,,,,,,,,,,,,,,,,,,,,,,,
,,,,,,,,2023-08-06_08h07.04.743,HF_wild_card,2022.2.4,Win32,60.06006006,5ccfc9a51aa04800169be694,64ce5acb97489d65b14ecc7a,64cf466aeaf0773358abe779,,,,,,,decisionTrl,resources/DB.BMP,resources/DG.BMP,Door1,0.313888974,0.056481467,1,0,0,1.9602,optionRight,30,5085,3,9,0,9,0,1,,,,,,,,,,,,,,,,,,,,,,,,,,,,,,,,,,,,,,,
,,,,,,,,2023-08-06_08h07.04.743,HF_wild_card,2022.2.4,Win32,60.06006006,5ccfc9a51aa04800169be694,64ce5acb97489d65b14ecc7a,64cf466aeaf0773358abe779,,,,,,,ctch,resources/DB.BMP,resources/DP.BMP,Door3,0.315740797,0.033333319,1,0,0,1.4814,optionRight,70,5155,3,10,0,10,0,1,,,,,,,,,,,,,,,,,,,,,,,,,,,,,,,,,,,,,,,
,,,,,,,,2023-08-06_08h07.04.743,HF_wild_card,2022.2.4,Win32,60.06006006,5ccfc9a51aa04800169be694,64ce5acb97489d65b14ecc7a,64cf466aeaf0773358abe779,,,,,,,decisionTrl,resources/DP.BMP,resources/DR.BMP,Door3,-0.298148155,-0.022222236,1,0,0,1.461,optionLeft,70,5225,3,11,0,11,0,1,,,,,,,,,,,,,,,,,,,,,,,,,,,,,,,,,,,,,,,
,,,,,,,,2023-08-06_08h07.04.743,HF_wild_card,2022.2.4,Win32,60.06006006,5ccfc9a51aa04800169be694,64ce5acb97489d65b14ecc7a,64cf466aeaf0773358abe779,,,,,,,sngl,resources/Empty.png,resources/DP.BMP,Door3,0.388888889,0.02407406,1,0,0,1.1605,optionRight,70,5295,3,12,0,12,0,1,,,,,,,,,,,,,,,,,,,,,,,,,,,,,,,,,,,,,,,
,,,,,,,,2023-08-06_08h07.04.743,HF_wild_card,2022.2.4,Win32,60.06006006,5ccfc9a51aa04800169be694,64ce5acb97489d65b14ecc7a,64cf466aeaf0773358abe779,,,,,,,ctch,resources/DR.BMP,resources/DG.BMP,Door4,-0.331481474,-0.015740748,1,0,0,1.6475,optionLeft,80,5375,3,13,0,13,0,1,,,,,,,,,,,,,,,,,,,,,,,,,,,,,,,,,,,,,,,
,,,,,,,,2023-08-06_08h07.04.743,HF_wild_card,2022.2.4,Win32,60.06006006,5ccfc9a51aa04800169be694,64ce5acb97489d65b14ecc7a,64cf466aeaf0773358abe779,,,,,,,decisionTrl,resources/DG.BMP,resources/DBN.BMP,WildCard_NonEx,0.330555527,0.033333319,1,0,0,1.8107,optionRight,45,5420,3,14,0,14,0,1,,,,,,,,,,,,,,,,,,,,,,,,,,,,,,,,,,,,,,,
,,,,,,,,2023-08-06_08h07.04.743,HF_wild_card,2022.2.4,Win32,60.06006006,5ccfc9a51aa04800169be694,64ce5acb97489d65b14ecc7a,64cf466aeaf0773358abe779,,,,,,,decisionTrl,resources/DG.BMP,resources/DB.BMP,Door1,-0.291666667,0.015740748,1,0,0,2.8427,optionLeft,30,5450,3,15,0,15,0,1,,,,,,,,,,,,,,,,,,,,,,,,,,,,,,,,,,,,,,,
,,,,,,,,2023-08-06_08h07.04.743,HF_wild_card,2022.2.4,Win32,60.06006006,5ccfc9a51aa04800169be694,64ce5acb97489d65b14ecc7a,64cf466aeaf0773358abe779,,,,,,,decisionTrl,resources/DR.BMP,resources/DBN.BMP,Door4,-0.332407386,0.001851859,1,0,0,2.362,optionLeft,60,5510,3,16,0,16,0,1,,,,,,,,,,,,,,,,,,,,,,,,,,,,,,,,,,,,,,,
,,,,,,,,2023-08-06_08h07.04.743,HF_wild_card,2022.2.4,Win32,60.06006006,5ccfc9a51aa04800169be694,64ce5acb97489d65b14ecc7a,64cf466aeaf0773358abe779,,,,,,,sngl,resources/DG.BMP,resources/Empty.png,Door1,-0.375925912,0.01203703,1,0,0,1.713,optionLeft,30,5540,3,17,0,17,0,1,,,,,,,,,,,,,,,,,,,,,,,,,,,,,,,,,,,,,,,
,,,,,,,,2023-08-06_08h07.04.743,HF_wild_card,2022.2.4,Win32,60.06006006,5ccfc9a51aa04800169be694,64ce5acb97489d65b14ecc7a,64cf466aeaf0773358abe779,,,,,,,decisionTrl,resources/DB.BMP,resources/DG.BMP,Door2,-0.307407414,-0.051851873,1,0,0,2.0958,optionLeft,40,5580,3,18,0,18,0,1,,,,,,,,,,,,,,,,,,,,,,,,,,,,,,,,,,,,,,,
,,,,,,,,2023-08-06_08h07.04.743,HF_wild_card,2022.2.4,Win32,60.06006006,5ccfc9a51aa04800169be694,64ce5acb97489d65b14ecc7a,64cf466aeaf0773358abe779,,,,,,,sngl,resources/Empty.png,resources/DR.BMP,Door4,0.362037094,0.009259259,1,0,0,1.1536,optionRight,60,5640,3,19,0,19,0,1,,,,,,,,,,,,,,,,,,,,,,,,,,,,,,,,,,,,,,,
,,,,,,,,2023-08-06_08h07.04.743,HF_wild_card,2022.2.4,Win32,60.06006006,5ccfc9a51aa04800169be694,64ce5acb97489d65b14ecc7a,64cf466aeaf0773358abe779,,,,,,,sngl,resources/Empty.png,resources/DG.BMP,Door1,0.349074046,-0.009259259,1,0,0,1.1603,optionRight,30,5670,3,20,0,20,0,1,,,,,,,,,,,,,,,,,,,,,,,,,,,,,,,,,,,,,,,
,,,,,,,,2023-08-06_08h07.04.743,HF_wild_card,2022.2.4,Win32,60.06006006,5ccfc9a51aa04800169be694,64ce5acb97489d65b14ecc7a,64cf466aeaf0773358abe779,,,,,,,ctch,resources/DP.BMP,resources/DB.BMP,Door3,-0.366666653,-0.044444437,1,0,0,1.5906,optionLeft,70,5740,3,21,0,21,0,1,,,,,,,,,,,,,,,,,,,,,,,,,,,,,,,,,,,,,,,
,,,,,,,,2023-08-06_08h07.04.743,HF_wild_card,2022.2.4,Win32,60.06006006,5ccfc9a51aa04800169be694,64ce5acb97489d65b14ecc7a,64cf466aeaf0773358abe779,,,,,,,decisionTrl,resources/DBN.BMP,resources/DP.BMP,Door3,0.362962935,0.025925919,1,0,0,1.8102,optionRight,70,5810,3,22,0,22,0,1,,,,,,,,,,,,,,,,,,,,,,,,,,,,,,,,,,,,,,,
,,,,,,,,2023-08-06_08h07.04.743,HF_wild_card,2022.2.4,Win32,60.06006006,5ccfc9a51aa04800169be694,64ce5acb97489d65b14ecc7a,64cf466aeaf0773358abe779,,,,,,,decisionTrl,resources/DB.BMP,resources/DG.BMP,Door1,0.309259344,-0.010185206,1,0,0,2.1024,optionRight,30,5840,3,23,0,23,0,1,,,,,,,,,,,,,,,,,,,,,,,,,,,,,,,,,,,,,,,
,,,,,,,,2023-08-06_08h07.04.743,HF_wild_card,2022.2.4,Win32,60.06006006,5ccfc9a51aa04800169be694,64ce5acb97489d65b14ecc7a,64cf466aeaf0773358abe779,,,,,,,decisionTrl,resources/DP.BMP,resources/DR.BMP,Door3,-0.337037016,-0.029629637,1,0,0,1.3964,optionLeft,70,5910,3,24,0,24,0,1,,,,,,,,,,,,,,,,,,,,,,,,,,,,,,,,,,,,,,,
,,,,,,,,2023-08-06_08h07.04.743,HF_wild_card,2022.2.4,Win32,60.06006006,5ccfc9a51aa04800169be694,64ce5acb97489d65b14ecc7a,64cf466aeaf0773358abe779,,,,,,,ctch,resources/DP.BMP,resources/DB.BMP,Door3,-0.355555534,-0.026851866,1,0,0,1.4291,optionLeft,70,5980,3,25,0,25,0,1,,,,,,,,,,,,,,,,,,,,,,,,,,,,,,,,,,,,,,,
,,,,,,,,2023-08-06_08h07.04.743,HF_wild_card,2022.2.4,Win32,60.06006006,5ccfc9a51aa04800169be694,64ce5acb97489d65b14ecc7a,64cf466aeaf0773358abe779,,,,,,,ctch,resources/DR.BMP,resources/DG.BMP,Door4,-0.354629623,0.006481489,1,0,0,1.6889,optionLeft,60,6040,3,26,0,26,0,1,,,,,,,,,,,,,,,,,,,,,,,,,,,,,,,,,,,,,,,
,,,,,,,,2023-08-06_08h07.04.743,HF_wild_card,2022.2.4,Win32,60.06006006,5ccfc9a51aa04800169be694,64ce5acb97489d65b14ecc7a,64cf466aeaf0773358abe779,,,,,,,decisionTrl,resources/DR.BMP,resources/DP.BMP,Door3,0.399074131,-0.003703718,1,0,0,1.73,optionRight,70,6110,3,27,0,27,0,1,,,,,,,,,,,,,,,,,,,,,,,,,,,,,,,,,,,,,,,
,,,,,,,,2023-08-06_08h07.04.743,HF_wild_card,2022.2.4,Win32,60.06006006,5ccfc9a51aa04800169be694,64ce5acb97489d65b14ecc7a,64cf466aeaf0773358abe779,,,,,,,decisionTrl,resources/DG.BMP,resources/DB.BMP,Door2,0.294444473,0.04074072,1,0,0,2.0605,optionRight,20,6130,3,28,0,28,0,1,,,,,,,,,,,,,,,,,,,,,,,,,,,,,,,,,,,,,,,
,,,,,,,,2023-08-06_08h07.04.743,HF_wild_card,2022.2.4,Win32,60.06006006,5ccfc9a51aa04800169be694,64ce5acb97489d65b14ecc7a,64cf466aeaf0773358abe779,,,,,,,decisionTrl,resources/DBN.BMP,resources/DR.BMP,Door4,0.301851908,0.023148148,1,0,0,1.9591,optionRight,80,6210,3,29,0,29,0,1,,,,,,,,,,,,,,,,,,,,,,,,,,,,,,,,,,,,,,,
,,,,,,,,2023-08-06_08h07.04.743,HF_wild_card,2022.2.4,Win32,60.06006006,5ccfc9a51aa04800169be694,64ce5acb97489d65b14ecc7a,64cf466aeaf0773358abe779,,,,,,,decisionTrl,resources/DR.BMP,resources/DP.BMP,Door4,-0.306481467,0.008333312,1,0,0,2.1966,optionLeft,80,6290,3,30,0,30,0,1,,,,,,,,,,,,,,,,,,,,,,,,,,,,,,,,,,,,,,,
,,,,,,,,2023-08-06_08h07.04.743,HF_wild_card,2022.2.4,Win32,60.06006006,5ccfc9a51aa04800169be694,64ce5acb97489d65b14ecc7a,64cf466aeaf0773358abe779,,,,,,,sngl,resources/Empty.png,resources/DBN.BMP,WildCard_NonEx,0.275000042,0.061111097,1,0,0,1.3623,optionRight,45,6335,3,31,0,31,0,1,,,,,,,,,,,,,,,,,,,,,,,,,,,,,,,,,,,,,,,
,,,,,,,,2023-08-06_08h07.04.743,HF_wild_card,2022.2.4,Win32,60.06006006,5ccfc9a51aa04800169be694,64ce5acb97489d65b14ecc7a,64cf466aeaf0773358abe779,,,,,,,decisionTrl,resources/DG.BMP,resources/DB.BMP,Door1,-0.319444444,-0.031481496,1,0,0,2.1621,optionLeft,30,6365,3,32,0,32,0,1,,,,,,,,,,,,,,,,,,,,,,,,,,,,,,,,,,,,,,,
,,,,,,,,2023-08-06_08h07.04.743,HF_wild_card,2022.2.4,Win32,60.06006006,5ccfc9a51aa04800169be694,64ce5acb97489d65b14ecc7a,64cf466aeaf0773358abe779,,,,,,,sngl,resources/DP.BMP,resources/Empty.png,Door3,-0.41574072,-0.045370384,1,0,0,3.8288,optionLeft,70,6435,3,33,0,33,0,1,,,,,,,,,,,,,,,,,,,,,,,,,,,,,,,,,,,,,,,
,,,,,,,,2023-08-06_08h07.04.743,HF_wild_card,2022.2.4,Win32,60.06006006,5ccfc9a51aa04800169be694,64ce5acb97489d65b14ecc7a,64cf466aeaf0773358abe779,,,,,,,decisionTrl,resources/DP.BMP,resources/DR.BMP,Door3,-0.337037016,-0.051851873,1,0,0,2.0111,optionLeft,70,6505,3,34,0,34,0,1,,,,,,,,,,,,,,,,,,,,,,,,,,,,,,,,,,,,,,,
,,,,,,,,2023-08-06_08h07.04.743,HF_wild_card,2022.2.4,Win32,60.06006006,5ccfc9a51aa04800169be694,64ce5acb97489d65b14ecc7a,64cf466aeaf0773358abe779,,,,,,,decisionTrl,resources/DBN.BMP,resources/DB.BMP,WildCard_NonEx,-0.297222208,0.001851859,1,0,0,2.0129,optionLeft,45,6550,3,35,0,35,0,1,,,,,,,,,,,,,,,,,,,,,,,,,,,,,,,,,,,,,,,
,,,,,,,,2023-08-06_08h07.04.743,HF_wild_card,2022.2.4,Win32,60.06006006,5ccfc9a51aa04800169be694,64ce5acb97489d65b14ecc7a,64cf466aeaf0773358abe779,,,,,,,sngl,resources/DBN.BMP,resources/Empty.png,WildCard_NonEx,-0.360185164,-0.017592607,1,0,0,1.2627,optionLeft,45,6595,3,36,0,36,0,1,,,,,,,,,,,,,,,,,,,,,,,,,,,,,,,,,,,,,,,
,,,,,,,,2023-08-06_08h07.04.743,HF_wild_card,2022.2.4,Win32,60.06006006,5ccfc9a51aa04800169be694,64ce5acb97489d65b14ecc7a,64cf466aeaf0773358abe779,,,,,,,decisionTrl,resources/DB.BMP,resources/DBN.BMP,WildCard_NonEx,0.440740797,0.054629608,1,0,0,2.3906,optionRight,45,6640,3,37,0,37,0,1,,,,,,,,,,,,,,,,,,,,,,,,,,,,,,,,,,,,,,,
,,,,,,,,2023-08-06_08h07.04.743,HF_wild_card,2022.2.4,Win32,60.06006006,5ccfc9a51aa04800169be694,64ce5acb97489d65b14ecc7a,64cf466aeaf0773358abe779,,,,,,,sngl,resources/DBN.BMP,resources/Empty.png,WildCard_NonEx,-0.308333326,-0.034259266,1,0,0,1.1423,optionLeft,55,6695,3,38,0,38,0,1,,,,,,,,,,,,,,,,,,,,,,,,,,,,,,,,,,,,,,,
,,,,,,,,2023-08-06_08h07.04.743,HF_wild_card,2022.2.4,Win32,60.06006006,5ccfc9a51aa04800169be694,64ce5acb97489d65b14ecc7a,64cf466aeaf0773358abe779,,,,,,,ctch,resources/DB.BMP,resources/DP.BMP,Door3,0.346296381,0.001851859,1,0,0,1.492,optionRight,70,6765,3,39,0,39,0,1,,,,,,,,,,,,,,,,,,,,,,,,,,,,,,,,,,,,,,,
,,,,,,,,2023-08-06_08h07.04.743,HF_wild_card,2022.2.4,Win32,60.06006006,5ccfc9a51aa04800169be694,64ce5acb97489d65b14ecc7a,64cf466aeaf0773358abe779,,,,,,,decisionTrl,resources/DP.BMP,resources/DBN.BMP,Door3,-0.328703704,-0.034259266,1,0,0,1.7137,optionLeft,70,6835,3,40,0,40,0,1,,,,,,,,,,,,,,,,,,,,,,,,,,,,,,,,,,,,,,,
,,,,,,,,2023-08-06_08h07.04.743,HF_wild_card,2022.2.4,Win32,60.06006006,5ccfc9a51aa04800169be694,64ce5acb97489d65b14ecc7a,64cf466aeaf0773358abe779,,,,,,,decisionTrl,resources/DR.BMP,resources/DP.BMP,Door4,-0.389814801,-0.095370399,1,0,0,1.9917,optionLeft,60,6895,3,41,0,41,0,1,,,,,,,,,,,,,,,,,,,,,,,,,,,,,,,,,,,,,,,
,,,,,,,,2023-08-06_08h07.04.743,HF_wild_card,2022.2.4,Win32,60.06006006,5ccfc9a51aa04800169be694,64ce5acb97489d65b14ecc7a,64cf466aeaf0773358abe779,,,,,,,decisionTrl,resources/DR.BMP,resources/DP.BMP,Door3,0.429629714,0.04074072,1,0,0,1.1306,optionRight,70,6965,3,42,0,42,0,1,,,,,,,,,,,,,,,,,,,,,,,,,,,,,,,,,,,,,,,
,,,,,,,,2023-08-06_08h07.04.743,HF_wild_card,2022.2.4,Win32,60.06006006,5ccfc9a51aa04800169be694,64ce5acb97489d65b14ecc7a,64cf466aeaf0773358abe779,,,,,,,decisionTrl,resources/DBN.BMP,resources/DG.BMP,WildCard_NonEx,-0.312037044,-0.029629637,1,0,0,1.6452,optionLeft,45,7010,3,43,0,43,0,1,,,,,,,,,,,,,,,,,,,,,,,,,,,,,,,,,,,,,,,
,,,,,,,,2023-08-06_08h07.04.743,HF_wild_card,2022.2.4,Win32,60.06006006,5ccfc9a51aa04800169be694,64ce5acb97489d65b14ecc7a,64cf466aeaf0773358abe779,,,,,,,,,,,,,,,,,,,,,,,,,,2,0,2,0,1,,,,,,,,,,,,,,,,,,,,,,,,,,,,,,,,,,
,,,,,,,,2023-08-06_08h07.04.743,HF_wild_card,2022.2.4,Win32,60.06006006,5ccfc9a51aa04800169be694,64ce5acb97489d65b14ecc7a,64cf466aeaf0773358abe779,,,,,,,decisionTrl,resources/DB.BMP,resources/DG.BMP,Door2,-0.267592607,-0.113888917,1,0,0,1.8469,optionLeft,20,7030,4,0,0,0,0,1,,,,,,,,,,,,,,,,,,,,,,,,,,,,,,,,,,,,,,,
,,,,,,,,2023-08-06_08h07.04.743,HF_wild_card,2022.2.4,Win32,60.06006006,5ccfc9a51aa04800169be694,64ce5acb97489d65b14ecc7a,64cf466aeaf0773358abe779,,,,,,,sngl,resources/DY.BMP,resources/Empty.png,WildCard_Ex,-0.352777764,-0.068518533,1,0,0,1.5452,optionLeft,55,7085,4,1,0,1,0,1,,,,,,,,,,,,,,,,,,,,,,,,,,,,,,,,,,,,,,,
,,,,,,,,2023-08-06_08h07.04.743,HF_wild_card,2022.2.4,Win32,60.06006006,5ccfc9a51aa04800169be694,64ce5acb97489d65b14ecc7a,64cf466aeaf0773358abe779,,,,,,,sngl,resources/DY.BMP,resources/Empty.png,WildCard_Ex,-0.410185178,-0.050000014,1,0,0,1.2463,optionLeft,45,7130,4,2,0,2,0,1,,,,,,,,,,,,,,,,,,,,,,,,,,,,,,,,,,,,,,,
,,,,,,,,2023-08-06_08h07.04.743,HF_wild_card,2022.2.4,Win32,60.06006006,5ccfc9a51aa04800169be694,64ce5acb97489d65b14ecc7a,64cf466aeaf0773358abe779,,,,,,,decisionTrl,resources/DP.BMP,resources/DR.BMP,Door4,0.44722225,0.045370349,1,0,0,3.5346,optionRight,80,7210,4,3,0,3,0,1,,,,,,,,,,,,,,,,,,,,,,,,,,,,,,,,,,,,,,,
,,,,,,,,2023-08-06_08h07.04.743,HF_wild_card,2022.2.4,Win32,60.06006006,5ccfc9a51aa04800169be694,64ce5acb97489d65b14ecc7a,64cf466aeaf0773358abe779,,,,,,,decisionTrl,resources/DR.BMP,resources/DP.BMP,Door4,-0.310185185,-0.023148148,1,0,0,1.3551,optionLeft,60,7270,4,4,0,4,0,1,,,,,,,,,,,,,,,,,,,,,,,,,,,,,,,,,,,,,,,
,,,,,,,,2023-08-06_08h07.04.743,HF_wild_card,2022.2.4,Win32,60.06006006,5ccfc9a51aa04800169be694,64ce5acb97489d65b14ecc7a,64cf466aeaf0773358abe779,,,,,,,sngl,resources/DG.BMP,resources/Empty.png,Door1,-0.37037037,-0.01203703,1,0,0,1.2034,optionLeft,30,7300,4,5,0,5,0,1,,,,,,,,,,,,,,,,,,,,,,,,,,,,,,,,,,,,,,,
,,,,,,,,2023-08-06_08h07.04.743,HF_wild_card,2022.2.4,Win32,60.06006006,5ccfc9a51aa04800169be694,64ce5acb97489d65b14ecc7a,64cf466aeaf0773358abe779,,,,,,,decisionTrl,resources/DB.BMP,resources/DY.BMP,WildCard_Ex,0.351851852,0.026851831,1,0,0,1.8307,optionRight,45,7345,4,6,0,6,0,1,,,,,,,,,,,,,,,,,,,,,,,,,,,,,,,,,,,,,,,
,,,,,,,,2023-08-06_08h07.04.743,HF_wild_card,2022.2.4,Win32,60.06006006,5ccfc9a51aa04800169be694,64ce5acb97489d65b14ecc7a,64cf466aeaf0773358abe779,,,,,,,ctch,resources/DP.BMP,resources/DB.BMP,Door3,-0.307407414,-0.022222236,1,0,0,1.6796,optionLeft,70,7415,4,7,0,7,0,1,,,,,,,,,,,,,,,,,,,,,,,,,,,,,,,,,,,,,,,
,,,,,,,,2023-08-06_08h07.04.743,HF_wild_card,2022.2.4,Win32,60.06006006,5ccfc9a51aa04800169be694,64ce5acb97489d65b14ecc7a,64cf466aeaf0773358abe779,,,,,,,ctch,resources/DR.BMP,resources/DG.BMP,Door4,-0.472222222,-0.039814808,1,0,0,1.6111,optionLeft,60,7475,4,8,0,8,0,1,,,,,,,,,,,,,,,,,,,,,,,,,,,,,,,,,,,,,,,
,,,,,,,,2023-08-06_08h07.04.743,HF_wild_card,2022.2.4,Win32,60.06006006,5ccfc9a51aa04800169be694,64ce5acb97489d65b14ecc7a,64cf466aeaf0773358abe779,,,,,,,sngl,resources/Empty.png,resources/DP.BMP,Door3,0.359259288,0.010185171,1,0,0,1.1638,optionRight,70,7545,4,9,0,9,0,1,,,,,,,,,,,,,,,,,,,,,,,,,,,,,,,,,,,,,,,
,,,,,,,,2023-08-06_08h07.04.743,HF_wild_card,2022.2.4,Win32,60.06006006,5ccfc9a51aa04800169be694,64ce5acb97489d65b14ecc7a,64cf466aeaf0773358abe779,,,,,,,decisionTrl,resources/DG.BMP,resources/DB.BMP,Door1,-0.283333319,-0.025925919,1,0,0,2.7072,optionLeft,30,7575,4,10,0,10,0,1,,,,,,,,,,,,,,,,,,,,,,,,,,,,,,,,,,,,,,,
,,,,,,,,2023-08-06_08h07.04.743,HF_wild_card,2022.2.4,Win32,60.06006006,5ccfc9a51aa04800169be694,64ce5acb97489d65b14ecc7a,64cf466aeaf0773358abe779,,,,,,,decisionTrl,resources/DG.BMP,resources/DB.BMP,Door1,-0.287037037,-0.025000007,1,0,0,1.4797,optionLeft,30,7605,4,11,0,11,0,1,,,,,,,,,,,,,,,,,,,,,,,,,,,,,,,,,,,,,,,
,,,,,,,,2023-08-06_08h07.04.743,HF_wild_card,2022.2.4,Win32,60.06006006,5ccfc9a51aa04800169be694,64ce5acb97489d65b14ecc7a,64cf466aeaf0773358abe779,,,,,,,decisionTrl,resources/DG.BMP,resources/DB.BMP,Door2,0.300000085,0.029629637,1,0,0,1.1287,optionRight,40,7645,4,12,0,12,0,1,,,,,,,,,,,,,,,,,,,,,,,,,,,,,,,,,,,,,,,
,,,,,,,,2023-08-06_08h07.04.743,HF_wild_card,2022.2.4,Win32,60.06006006,5ccfc9a51aa04800169be694,64ce5acb97489d65b14ecc7a,64cf466aeaf0773358abe779,,,,,,,sngl,resources/DR.BMP,resources/Empty.png,Door4,-0.301851838,-0.021296289,1,0,0,1.151,optionLeft,60,7705,4,13,0,13,0,1,,,,,,,,,,,,,,,,,,,,,,,,,,,,,,,,,,,,,,,
,,,,,,,,2023-08-06_08h07.04.743,HF_wild_card,2022.2.4,Win32,60.06006006,5ccfc9a51aa04800169be694,64ce5acb97489d65b14ecc7a,64cf466aeaf0773358abe779,,,,,,,ctch,resources/DB.BMP,resources/DP.BMP,Door3,0.37037037,0.008333312,1,0,0,1.4459,optionRight,70,7775,4,14,0,14,0,1,,,,,,,,,,,,,,,,,,,,,,,,,,,,,,,,,,,,,,,
,,,,,,,,2023-08-06_08h07.04.743,HF_wild_card,2022.2.4,Win32,60.06006006,5ccfc9a51aa04800169be694,64ce5acb97489d65b14ecc7a,64cf466aeaf0773358abe779,,,,,,,sngl,resources/Empty.png,resources/DY.BMP,WildCard_Ex,0.366666723,0.046296296,1,0,0,1.1464,optionRight,55,7830,4,15,0,15,0,1,,,,,,,,,,,,,,,,,,,,,,,,,,,,,,,,,,,,,,,
,,,,,,,,2023-08-06_08h07.04.743,HF_wild_card,2022.2.4,Win32,60.06006006,5ccfc9a51aa04800169be694,64ce5acb97489d65b14ecc7a,64cf466aeaf0773358abe779,,,,,,,decisionTrl,resources/DB.BMP,resources/DG.BMP,Door1,0.36018527,0.063888868,1,0,0,3.1075,optionRight,30,7860,4,16,0,16,0,1,,,,,,,,,,,,,,,,,,,,,,,,,,,,,,,,,,,,,,,
,,,,,,,,2023-08-06_08h07.04.743,HF_wild_card,2022.2.4,Win32,60.06006006,5ccfc9a51aa04800169be694,64ce5acb97489d65b14ecc7a,64cf466aeaf0773358abe779,,,,,,,ctch,resources/DR.BMP,resources/DG.BMP,Door4,-0.343518504,-0.011111118,1,0,0,1.6622,optionLeft,60,7920,4,17,0,17,0,1,,,,,,,,,,,,,,,,,,,,,,,,,,,,,,,,,,,,,,,
,,,,,,,,2023-08-06_08h07.04.743,HF_wild_card,2022.2.4,Win32,60.06006006,5ccfc9a51aa04800169be694,64ce5acb97489d65b14ecc7a,64cf466aeaf0773358abe779,,,,,,,decisionTrl,resources/DY.BMP,resources/DG.BMP,WildCard_Ex,-0.283333319,-0.013888889,1,0,0,1.4964,optionLeft,55,7975,4,18,0,18,0,1,,,,,,,,,,,,,,,,,,,,,,,,,,,,,,,,,,,,,,,
,,,,,,,,2023-08-06_08h07.04.743,HF_wild_card,2022.2.4,Win32,60.06006006,5ccfc9a51aa04800169be694,64ce5acb97489d65b14ecc7a,64cf466aeaf0773358abe779,,,,,,,sngl,resources/Empty.png,resources/DG.BMP,Door1,0.309259344,0.032407407,1,0,0,1.4021,optionRight,30,8005,4,19,0,19,0,1,,,,,,,,,,,,,,,,,,,,,,,,,,,,,,,,,,,,,,,
,,,,,,,,2023-08-06_08h07.04.743,HF_wild_card,2022.2.4,Win32,60.06006006,5ccfc9a51aa04800169be694,64ce5acb97489d65b14ecc7a,64cf466aeaf0773358abe779,,,,,,,ctch,resources/DP.BMP,resources/DB.BMP,Door3,-0.340740734,-0.044444437,1,0,0,1.3527,optionLeft,70,8075,4,20,0,20,0,1,,,,,,,,,,,,,,,,,,,,,,,,,,,,,,,,,,,,,,,
,,,,,,,,2023-08-06_08h07.04.743,HF_wild_card,2022.2.4,Win32,60.06006006,5ccfc9a51aa04800169be694,64ce5acb97489d65b14ecc7a,64cf466aeaf0773358abe779,,,,,,,decisionTrl,resources/DB.BMP,resources/DG.BMP,Door2,-0.257407365,-0.013888889,1,0,0,2.1058,optionLeft,20,8095,4,21,0,21,0,1,,,,,,,,,,,,,,,,,,,,,,,,,,,,,,,,,,,,,,,
,,,,,,,,2023-08-06_08h07.04.743,HF_wild_card,2022.2.4,Win32,60.06006006,5ccfc9a51aa04800169be694,64ce5acb97489d65b14ecc7a,64cf466aeaf0773358abe779,,,,,,,decisionTrl,resources/DP.BMP,resources/DR.BMP,Door4,0.29814812,0.01203703,1,0,0,2.2278,optionRight,80,8175,4,22,0,22,0,1,,,,,,,,,,,,,,,,,,,,,,,,,,,,,,,,,,,,,,,
,,,,,,,,2023-08-06_08h07.04.743,HF_wild_card,2022.2.4,Win32,60.06006006,5ccfc9a51aa04800169be694,64ce5acb97489d65b14ecc7a,64cf466aeaf0773358abe779,,,,,,,decisionTrl,resources/DR.BMP,resources/DP.BMP,Door3,0.29814812,0.050925926,1,0,0,2.9833,optionRight,70,8245,4,23,0,23,0,1,,,,,,,,,,,,,,,,,,,,,,,,,,,,,,,,,,,,,,,
,,,,,,,,2023-08-06_08h07.04.743,HF_wild_card,2022.2.4,Win32,60.06006006,5ccfc9a51aa04800169be694,64ce5acb97489d65b14ecc7a,64cf466aeaf0773358abe779,,,,,,,sngl,resources/Empty.png,resources/DB.BMP,Door2,0.352777834,0.052777785,1,0,0,1.3394,optionRight,40,8285,4,24,0,24,0,1,,,,,,,,,,,,,,,,,,,,,,,,,,,,,,,,,,,,,,,
,,,,,,,,2023-08-06_08h07.04.743,HF_wild_card,2022.2.4,Win32,60.06006006,5ccfc9a51aa04800169be694,64ce5acb97489d65b14ecc7a,64cf466aeaf0773358abe779,,,,,,,ctch,resources/DB.BMP,resources/DP.BMP,Door3,0.384259259,0.027777778,1,0,0,1.6463,optionRight,70,8355,4,25,0,25,0,1,,,,,,,,,,,,,,,,,,,,,,,,,,,,,,,,,,,,,,,
,,,,,,,,2023-08-06_08h07.04.743,HF_wild_card,2022.2.4,Win32,60.06006006,5ccfc9a51aa04800169be694,64ce5acb97489d65b14ecc7a,64cf466aeaf0773358abe779,,,,,,,ctch,resources/DG.BMP,resources/DR.BMP,Door4,0.373148176,0.053703697,1,0,0,1.7569,optionRight,80,8435,4,26,0,26,0,1,,,,,,,,,,,,,,,,,,,,,,,,,,,,,,,,,,,,,,,
,,,,,,,,2023-08-06_08h07.04.743,HF_wild_card,2022.2.4,Win32,60.06006006,5ccfc9a51aa04800169be694,64ce5acb97489d65b14ecc7a,64cf466aeaf0773358abe779,,,,,,,decisionTrl,resources/DG.BMP,resources/DY.BMP,WildCard_Ex,0.330555527,0.050925926,1,0,0,1.6949,optionRight,45,8480,4,27,0,27,0,1,,,,,,,,,,,,,,,,,,,,,,,,,,,,,,,,,,,,,,,
,,,,,,,,2023-08-06_08h07.04.743,HF_wild_card,2022.2.4,Win32,60.06006006,5ccfc9a51aa04800169be694,64ce5acb97489d65b14ecc7a,64cf466aeaf0773358abe779,,,,,,,decisionTrl,resources/DY.BMP,resources/DP.BMP,Door3,0.294444473,0.02407406,1,0,0,2.2783,optionRight,70,8550,4,28,0,28,0,1,,,,,,,,,,,,,,,,,,,,,,,,,,,,,,,,,,,,,,,
,,,,,,,,2023-08-06_08h07.04.743,HF_wild_card,2022.2.4,Win32,60.06006006,5ccfc9a51aa04800169be694,64ce5acb97489d65b14ecc7a,64cf466aeaf0773358abe779,,,,,,,decisionTrl,resources/DP.BMP,resources/DY.BMP,Door3,-0.332407386,-0.035185178,1,0,0,2.3628,optionLeft,70,8620,4,29,0,29,0,1,,,,,,,,,,,,,,,,,,,,,,,,,,,,,,,,,,,,,,,
,,,,,,,,2023-08-06_08h07.04.743,HF_wild_card,2022.2.4,Win32,60.06006006,5ccfc9a51aa04800169be694,64ce5acb97489d65b14ecc7a,64cf466aeaf0773358abe779,,,,,,,decisionTrl,resources/DR.BMP,resources/DP.BMP,Door3,0.390740712,0.066666674,1,0,0,1.512,optionRight,70,8690,4,30,0,30,0,1,,,,,,,,,,,,,,,,,,,,,,,,,,,,,,,,,,,,,,,
,,,,,,,,2023-08-06_08h07.04.743,HF_wild_card,2022.2.4,Win32,60.06006006,5ccfc9a51aa04800169be694,64ce5acb97489d65b14ecc7a,64cf466aeaf0773358abe779,,,,,,,sngl,resources/DP.BMP,resources/Empty.png,Door3,-0.433333326,-0.025925919,1,0,0,1.5232,optionLeft,70,8760,4,31,0,31,0,1,,,,,,,,,,,,,,,,,,,,,,,,,,,,,,,,,,,,,,,
,,,,,,,,2023-08-06_08h07.04.743,HF_wild_card,2022.2.4,Win32,60.06006006,5ccfc9a51aa04800169be694,64ce5acb97489d65b14ecc7a,64cf466aeaf0773358abe779,,,,,,,sngl,resources/Empty.png,resources/DY.BMP,WildCard_Ex,0.349074046,0.050925926,1,0,0,1.2288,optionRight,45,8805,4,32,0,32,0,1,,,,,,,,,,,,,,,,,,,,,,,,,,,,,,,,,,,,,,,
,,,,,,,,2023-08-06_08h07.04.743,HF_wild_card,2022.2.4,Win32,60.06006006,5ccfc9a51aa04800169be694,64ce5acb97489d65b14ecc7a,64cf466aeaf0773358abe779,,,,,,,sngl,resources/DB.BMP,resources/Empty.png,Door2,-0.395370377,-0.037962984,1,0,0,2.3125,optionLeft,20,8825,4,33,0,33,0,1,,,,,,,,,,,,,,,,,,,,,,,,,,,,,,,,,,,,,,,
,,,,,,,,2023-08-06_08h07.04.743,HF_wild_card,2022.2.4,Win32,60.06006006,5ccfc9a51aa04800169be694,64ce5acb97489d65b14ecc7a,64cf466aeaf0773358abe779,,,,,,,decisionTrl,resources/DG.BMP,resources/DB.BMP,Door1,-0.352777764,-0.003703718,1,0,0,1.6461,optionLeft,30,8855,4,34,0,34,0,1,,,,,,,,,,,,,,,,,,,,,,,,,,,,,,,,,,,,,,,
,,,,,,,,2023-08-06_08h07.04.743,HF_wild_card,2022.2.4,Win32,60.06006006,5ccfc9a51aa04800169be694,64ce5acb97489d65b14ecc7a,64cf466aeaf0773358abe779,,,,,,,decisionTrl,resources/DP.BMP,resources/DR.BMP,Door4,0.303703732,0.054629608,1,0,0,2.0234,optionRight,60,8915,4,35,0,35,0,1,,,,,,,,,,,,,,,,,,,,,,,,,,,,,,,,,,,,,,,
,,,,,,,,2023-08-06_08h07.04.743,HF_wild_card,2022.2.4,Win32,60.06006006,5ccfc9a51aa04800169be694,64ce5acb97489d65b14ecc7a,64cf466aeaf0773358abe779,,,,,,,decisionTrl,resources/DB.BMP,resources/DG.BMP,Door1,0.353703675,0.03148146,1,0,0,1.7295,optionRight,30,8945,4,36,0,36,0,1,,,,,,,,,,,,,,,,,,,,,,,,,,,,,,,,,,,,,,,
,,,,,,,,2023-08-06_08h07.04.743,HF_wild_card,2022.2.4,Win32,60.06006006,5ccfc9a51aa04800169be694,64ce5acb97489d65b14ecc7a,64cf466aeaf0773358abe779,,,,,,,decisionTrl,resources/DY.BMP,resources/DR.BMP,Door4,0.27870369,0.013888889,1,0,0,1.8799,optionRight,80,9025,4,37,0,37,0,1,,,,,,,,,,,,,,,,,,,,,,,,,,,,,,,,,,,,,,,
,,,,,,,,2023-08-06_08h07.04.743,HF_wild_card,2022.2.4,Win32,60.06006006,5ccfc9a51aa04800169be694,64ce5acb97489d65b14ecc7a,64cf466aeaf0773358abe779,,,,,,,decisionTrl,resources/DP.BMP,resources/DR.BMP,Door4,0.281481496,0.018518519,1,0,0,2.4442,optionRight,60,9085,4,38,0,38,0,1,,,,,,,,,,,,,,,,,,,,,,,,,,,,,,,,,,,,,,,
,,,,,,,,2023-08-06_08h07.04.743,HF_wild_card,2022.2.4,Win32,60.06006006,5ccfc9a51aa04800169be694,64ce5acb97489d65b14ecc7a,64cf466aeaf0773358abe779,,,,,,,decisionTrl,resources/DY.BMP,resources/DB.BMP,WildCard_Ex,-0.357407393,-0.025000007,1,0,0,1.746,optionLeft,55,9140,4,39,0,39,0,1,,,,,,,,,,,,,,,,,,,,,,,,,,,,,,,,,,,,,,,
,,,,,,,,2023-08-06_08h07.04.743,HF_wild_card,2022.2.4,Win32,60.06006006,5ccfc9a51aa04800169be694,64ce5acb97489d65b14ecc7a,64cf466aeaf0773358abe779,,,,,,,decisionTrl,resources/DR.BMP,resources/DY.BMP,Door4,-0.362037023,-0.045370384,1,0,0,1.7305,optionLeft,80,9220,4,40,0,40,0,1,,,,,,,,,,,,,,,,,,,,,,,,,,,,,,,,,,,,,,,
,,,,,,,,2023-08-06_08h07.04.743,HF_wild_card,2022.2.4,Win32,60.06006006,5ccfc9a51aa04800169be694,64ce5acb97489d65b14ecc7a,64cf466aeaf0773358abe779,,,,,,,decisionTrl,resources/DR.BMP,resources/DP.BMP,Door3,0.36018527,0.020370377,1,0,0,2.2782,optionRight,70,9290,4,41,0,41,0,1,,,,,,,,,,,,,,,,,,,,,,,,,,,,,,,,,,,,,,,
,,,,,,,,2023-08-06_08h07.04.743,HF_wild_card,2022.2.4,Win32,60.06006006,5ccfc9a51aa04800169be694,64ce5acb97489d65b14ecc7a,64cf466aeaf0773358abe779,,,,,,,sngl,resources/Empty.png,resources/DR.BMP,Door4,0.339814787,0.03611109,1,0,0,1.2298,optionRight,80,9370,4,42,0,42,0,1,,,,,,,,,,,,,,,,,,,,,,,,,,,,,,,,,,,,,,,
,,,,,,,,2023-08-06_08h07.04.743,HF_wild_card,2022.2.4,Win32,60.06006006,5ccfc9a51aa04800169be694,64ce5acb97489d65b14ecc7a,64cf466aeaf0773358abe779,,,,,,,ctch,resources/DG.BMP,resources/DR.BMP,Door4,0.36018527,0.010185171,1,0,0,1.8303,optionRight,60,9430,4,43,0,43,0,1,,,,,,,,,,,,,,,,,,,,,,,,,,,,,,,,,,,,,,,
,,,,,,,,2023-08-06_08h07.04.743,HF_wild_card,2022.2.4,Win32,60.06006006,5ccfc9a51aa04800169be694,64ce5acb97489d65b14ecc7a,64cf466aeaf0773358abe779,,,,,,,,,,,,,,,,,,,,,,,,,,3,0,3,0,1,,,,,,,,,,,,,,,,,,,,,,,,,,,,,,,,,,
,,,,,,,,2023-08-06_08h07.04.743,HF_wild_card,2022.2.4,Win32,60.06006006,5ccfc9a51aa04800169be694,64ce5acb97489d65b14ecc7a,64cf466aeaf0773358abe779,,,,,,,sngl,resources/DY.BMP,resources/Empty.png,WildCard_Ex,-0.474074081,-0.089814822,1,0,0,1.5531,optionLeft,55,9485,5,0,0,0,0,1,,,,,,,,,,,,,,,,,,,,,,,,,,,,,,,,,,,,,,,
,,,,,,,,2023-08-06_08h07.04.743,HF_wild_card,2022.2.4,Win32,60.06006006,5ccfc9a51aa04800169be694,64ce5acb97489d65b14ecc7a,64cf466aeaf0773358abe779,,,,,,,decisionTrl,resources/DY.BMP,resources/DR.BMP,Door4,0.286111125,0.01203703,1,0,0,1.7294,optionRight,60,9545,5,1,0,1,0,1,,,,,,,,,,,,,,,,,,,,,,,,,,,,,,,,,,,,,,,
,,,,,,,,2023-08-06_08h07.04.743,HF_wild_card,2022.2.4,Win32,60.06006006,5ccfc9a51aa04800169be694,64ce5acb97489d65b14ecc7a,64cf466aeaf0773358abe779,,,,,,,ctch,resources/DG.BMP,resources/DR.BMP,Door4,0.329629686,0.014814801,1,0,0,1.5605,optionRight,60,9605,5,2,0,2,0,1,,,,,,,,,,,,,,,,,,,,,,,,,,,,,,,,,,,,,,,
,,,,,,,,2023-08-06_08h07.04.743,HF_wild_card,2022.2.4,Win32,60.06006006,5ccfc9a51aa04800169be694,64ce5acb97489d65b14ecc7a,64cf466aeaf0773358abe779,,,,,,,decisionTrl,resources/DB.BMP,resources/DY.BMP,WildCard_Ex,0.323148233,0.037962949,1,0,0,1.4634,optionRight,55,9660,5,3,0,3,0,1,,,,,,,,,,,,,,,,,,,,,,,,,,,,,,,,,,,,,,,
,,,,,,,,2023-08-06_08h07.04.743,HF_wild_card,2022.2.4,Win32,60.06006006,5ccfc9a51aa04800169be694,64ce5acb97489d65b14ecc7a,64cf466aeaf0773358abe779,,,,,,,ctch,resources/DP.BMP,resources/DB.BMP,Door3,-0.37037037,-0.050000014,1,0,0,1.3464,optionLeft,70,9730,5,4,0,4,0,1,,,,,,,,,,,,,,,,,,,,,,,,,,,,,,,,,,,,,,,
,,,,,,,,2023-08-06_08h07.04.743,HF_wild_card,2022.2.4,Win32,60.06006006,5ccfc9a51aa04800169be694,64ce5acb97489d65b14ecc7a,64cf466aeaf0773358abe779,,,,,,,decisionTrl,resources/DR.BMP,resources/DP.BMP,Door4,-0.334259245,-0.014814836,1,0,0,2.1615,optionLeft,60,9790,5,5,0,5,0,1,,,,,,,,,,,,,,,,,,,,,,,,,,,,,,,,,,,,,,,
,,,,,,,,2023-08-06_08h07.04.743,HF_wild_card,2022.2.4,Win32,60.06006006,5ccfc9a51aa04800169be694,64ce5acb97489d65b14ecc7a,64cf466aeaf0773358abe779,,,,,,,sngl,resources/Empty.png,resources/DP.BMP,Door3,0.387963048,0.026851831,1,0,0,1.1306,optionRight,70,9860,5,6,0,6,0,1,,,,,,,,,,,,,,,,,,,,,,,,,,,,,,,,,,,,,,,
,,,,,,,,2023-08-06_08h07.04.743,HF_wild_card,2022.2.4,Win32,60.06006006,5ccfc9a51aa04800169be694,64ce5acb97489d65b14ecc7a,64cf466aeaf0773358abe779,,,,,,,sngl,resources/Empty.png,resources/DB.BMP,Door2,0.357407464,0.018518519,1,0,0,1.4972,optionRight,20,9880,5,7,0,7,0,1,,,,,,,,,,,,,,,,,,,,,,,,,,,,,,,,,,,,,,,
,,,,,,,,2023-08-06_08h07.04.743,HF_wild_card,2022.2.4,Win32,60.06006006,5ccfc9a51aa04800169be694,64ce5acb97489d65b14ecc7a,64cf466aeaf0773358abe779,,,,,,,decisionTrl,resources/DB.BMP,resources/DG.BMP,Door1,0.329629686,0.011111118,1,0,0,1.9123,optionRight,30,9910,5,8,0,8,0,1,,,,,,,,,,,,,,,,,,,,,,,,,,,,,,,,,,,,,,,
,,,,,,,,2023-08-06_08h07.04.743,HF_wild_card,2022.2.4,Win32,60.06006006,5ccfc9a51aa04800169be694,64ce5acb97489d65b14ecc7a,64cf466aeaf0773358abe779,,,,,,,decisionTrl,resources/DB.BMP,resources/DG.BMP,Door2,-0.262962977,-0.039814808,1,0,0,2.4305,optionLeft,40,9950,5,9,0,9,0,1,,,,,,,,,,,,,,,,,,,,,,,,,,,,,,,,,,,,,,,
,,,,,,,,2023-08-06_08h07.04.743,HF_wild_card,2022.2.4,Win32,60.06006006,5ccfc9a51aa04800169be694,64ce5acb97489d65b14ecc7a,64cf466aeaf0773358abe779,,,,,,,ctch,resources/DR.BMP,resources/DG.BMP,Door4,-0.385185171,-0.027777778,1,0,0,1.4285,optionLeft,80,10030,5,10,0,10,0,1,,,,,,,,,,,,,,,,,,,,,,,,,,,,,,,,,,,,,,,
,,,,,,,,2023-08-06_08h07.04.743,HF_wild_card,2022.2.4,Win32,60.06006006,5ccfc9a51aa04800169be694,64ce5acb97489d65b14ecc7a,64cf466aeaf0773358abe779,,,,,,,decisionTrl,resources/DR.BMP,resources/DP.BMP,Door3,0.338888945,0.071296303,1,0,0,3.0687,optionRight,70,10100,5,11,0,11,0,1,,,,,,,,,,,,,,,,,,,,,,,,,,,,,,,,,,,,,,,
,,,,,,,,2023-08-06_08h07.04.743,HF_wild_card,2022.2.4,Win32,60.06006006,5ccfc9a51aa04800169be694,64ce5acb97489d65b14ecc7a,64cf466aeaf0773358abe779,,,,,,,sngl,resources/Empty.png,resources/DY.BMP,WildCard_Ex,0.343518575,0.034259266,1,0,0,1.2455,optionRight,55,10155,5,12,0,12,0,1,,,,,,,,,,,,,,,,,,,,,,,,,,,,,,,,,,,,,,,
,,,,,,,,2023-08-06_08h07.04.743,HF_wild_card,2022.2.4,Win32,60.06006006,5ccfc9a51aa04800169be694,64ce5acb97489d65b14ecc7a,64cf466aeaf0773358abe779,,,,,,,sngl,resources/DG.BMP,resources/Empty.png,Door1,-0.266666624,-0.028703725,1,0,0,1.1544,optionLeft,30,10185,5,13,0,13,0,1,,,,,,,,,,,,,,,,,,,,,,,,,,,,,,,,,,,,,,,
,,,,,,,,2023-08-06_08h07.04.743,HF_wild_card,2022.2.4,Win32,60.06006006,5ccfc9a51aa04800169be694,64ce5acb97489d65b14ecc7a,64cf466aeaf0773358abe779,,,,,,,decisionTrl,resources/DG.BMP,resources/DB.BMP,Door2,0.314814815,0.003703683,1,0,0,2.9299,optionRight,20,10205,5,14,0,14,0,1,,,,,,,,,,,,,,,,,,,,,,,,,,,,,,,,,,,,,,,
,,,,,,,,2023-08-06_08h07.04.743,HF_wild_card,2022.2.4,Win32,60.06006006,5ccfc9a51aa04800169be694,64ce5acb97489d65b14ecc7a,64cf466aeaf0773358abe779,,,,,,,decisionTrl,resources/DY.BMP,resources/DP.BMP,Door3,0.371296353,0.041666667,1,0,0,1.811,optionRight,70,10275,5,15,0,15,0,1,,,,,,,,,,,,,,,,,,,,,,,,,,,,,,,,,,,,,,,
,,,,,,,,2023-08-06_08h07.04.743,HF_wild_card,2022.2.4,Win32,60.06006006,5ccfc9a51aa04800169be694,64ce5acb97489d65b14ecc7a,64cf466aeaf0773358abe779,,,,,,,decisionTrl,resources/DP.BMP,resources/DR.BMP,Door4,0.405555584,0.085185192,1,0,0,1.7463,optionRight,80,10355,5,16,0,16,0,1,,,,,,,,,,,,,,,,,,,,,,,,,,,,,,,,,,,,,,,
,,,,,,,,2023-08-06_08h07.04.743,HF_wild_card,2022.2.4,Win32,60.06006006,5ccfc9a51aa04800169be694,64ce5acb97489d65b14ecc7a,64cf466aeaf0773358abe779,,,,,,,sngl,resources/Empty.png,resources/DR.BMP,Door4,0.380555612,0.057407414,1,0,0,1.1963,optionRight,60,10415,5,17,0,17,0,1,,,,,,,,,,,,,,,,,,,,,,,,,,,,,,,,,,,,,,,
,,,,,,,,2023-08-06_08h07.04.743,HF_wild_card,2022.2.4,Win32,60.06006006,5ccfc9a51aa04800169be694,64ce5acb97489d65b14ecc7a,64cf466aeaf0773358abe779,,,,,,,ctch,resources/DR.BMP,resources/DG.BMP,Door4,-0.378703683,-0.01203703,1,0,0,1.826,optionLeft,80,10495,5,18,0,18,0,1,,,,,,,,,,,,,,,,,,,,,,,,,,,,,,,,,,,,,,,
,,,,,,,,2023-08-06_08h07.04.743,HF_wild_card,2022.2.4,Win32,60.06006006,5ccfc9a51aa04800169be694,64ce5acb97489d65b14ecc7a,64cf466aeaf0773358abe779,,,,,,,ctch,resources/DB.BMP,resources/DP.BMP,Door3,0.351851852,0.022222201,1,0,0,1.5942,optionRight,70,10565,5,19,0,19,0,1,,,,,,,,,,,,,,,,,,,,,,,,,,,,,,,,,,,,,,,
,,,,,,,,2023-08-06_08h07.04.743,HF_wild_card,2022.2.4,Win32,60.06006006,5ccfc9a51aa04800169be694,64ce5acb97489d65b14ecc7a,64cf466aeaf0773358abe779,,,,,,,sngl,resources/DB.BMP,resources/Empty.png,Door2,-0.333333333,-0.055555556,1,0,0,1.1724,optionLeft,40,10605,5,20,0,20,0,1,,,,,,,,,,,,,,,,,,,,,,,,,,,,,,,,,,,,,,,
,,,,,,,,2023-08-06_08h07.04.743,HF_wild_card,2022.2.4,Win32,60.06006006,5ccfc9a51aa04800169be694,64ce5acb97489d65b14ecc7a,64cf466aeaf0773358abe779,,,,,,,decisionTrl,resources/DB.BMP,resources/DG.BMP,Door1,0.288888931,0.032407407,1,0,0,2.7295,optionRight,30,10635,5,21,0,21,0,1,,,,,,,,,,,,,,,,,,,,,,,,,,,,,,,,,,,,,,,
,,,,,,,,2023-08-06_08h07.04.743,HF_wild_card,2022.2.4,Win32,60.06006006,5ccfc9a51aa04800169be694,64ce5acb97489d65b14ecc7a,64cf466aeaf0773358abe779,,,,,,,sngl,resources/Empty.png,resources/DY.BMP,WildCard_Ex,0.375925982,0.04074072,1,0,0,1.2139,optionRight,45,10680,5,22,0,22,0,1,,,,,,,,,,,,,,,,,,,,,,,,,,,,,,,,,,,,,,,
,,,,,,,,2023-08-06_08h07.04.743,HF_wild_card,2022.2.4,Win32,60.06006006,5ccfc9a51aa04800169be694,64ce5acb97489d65b14ecc7a,64cf466aeaf0773358abe779,,,,,,,ctch,resources/DB.BMP,resources/DP.BMP,Door3,0.419444473,0.064814815,1,0,0,1.4424,optionRight,70,10750,5,23,0,23,0,1,,,,,,,,,,,,,,,,,,,,,,,,,,,,,,,,,,,,,,,
,,,,,,,,2023-08-06_08h07.04.743,HF_wild_card,2022.2.4,Win32,60.06006006,5ccfc9a51aa04800169be694,64ce5acb97489d65b14ecc7a,64cf466aeaf0773358abe779,,,,,,,decisionTrl,resources/DR.BMP,resources/DP.BMP,Door4,-0.343518504,0.005555541,1,0,0,1.9026,optionLeft,60,10810,5,24,0,24,0,1,,,,,,,,,,,,,,,,,,,,,,,,,,,,,,,,,,,,,,,
,,,,,,,,2023-08-06_08h07.04.743,HF_wild_card,2022.2.4,Win32,60.06006006,5ccfc9a51aa04800169be694,64ce5acb97489d65b14ecc7a,64cf466aeaf0773358abe779,,,,,,,decisionTrl,resources/DY.BMP,resources/DG.BMP,WildCard_Ex,-0.366666653,-0.033333355,1,0,0,1.4049,optionLeft,45,10855,5,25,0,25,0,1,,,,,,,,,,,,,,,,,,,,,,,,,,,,,,,,,,,,,,,
,,,,,,,,2023-08-06_08h07.04.743,HF_wild_card,2022.2.4,Win32,60.06006006,5ccfc9a51aa04800169be694,64ce5acb97489d65b14ecc7a,64cf466aeaf0773358abe779,,,,,,,decisionTrl,resources/DG.BMP,resources/DY.BMP,WildCard_Ex,0.29814812,-0.010185206,1,0,0,1.4948,optionRight,55,10910,5,26,0,26,0,1,,,,,,,,,,,,,,,,,,,,,,,,,,,,,,,,,,,,,,,
,,,,,,,,2023-08-06_08h07.04.743,HF_wild_card,2022.2.4,Win32,60.06006006,5ccfc9a51aa04800169be694,64ce5acb97489d65b14ecc7a,64cf466aeaf0773358abe779,,,,,,,decisionTrl,resources/DP.BMP,resources/DY.BMP,Door3,-0.444444444,-0.087037051,1,0,0,1.473,optionLeft,70,10980,5,27,0,27,0,1,,,,,,,,,,,,,,,,,,,,,,,,,,,,,,,,,,,,,,,
,,,,,,,,2023-08-06_08h07.04.743,HF_wild_card,2022.2.4,Win32,60.06006006,5ccfc9a51aa04800169be694,64ce5acb97489d65b14ecc7a,64cf466aeaf0773358abe779,,,,,,,decisionTrl,resources/DG.BMP,resources/DB.BMP,Door2,0.362962935,0.02870369,1,0,0,2.2447,optionRight,20,11000,5,28,0,28,0,1,,,,,,,,,,,,,,,,,,,,,,,,,,,,,,,,,,,,,,,
,,,,,,,,2023-08-06_08h07.04.743,HF_wild_card,2022.2.4,Win32,60.06006006,5ccfc9a51aa04800169be694,64ce5acb97489d65b14ecc7a,64cf466aeaf0773358abe779,,,,,,,sngl,resources/Empty.png,resources/DG.BMP,Door1,0.375925982,0.023148148,1,0,0,1.2619,optionRight,30,11030,5,29,0,29,0,1,,,,,,,,,,,,,,,,,,,,,,,,,,,,,,,,,,,,,,,
,,,,,,,,2023-08-06_08h07.04.743,HF_wild_card,2022.2.4,Win32,60.06006006,5ccfc9a51aa04800169be694,64ce5acb97489d65b14ecc7a,64cf466aeaf0773358abe779,,,,,,,decisionTrl,resources/DR.BMP,resources/DP.BMP,Door3,0.339814787,0.029629637,1,0,0,2.8053,optionRight,70,11100,5,30,0,30,0,1,,,,,,,,,,,,,,,,,,,,,,,,,,,,,,,,,,,,,,,
,,,,,,,,2023-08-06_08h07.04.743,HF_wild_card,2022.2.4,Win32,60.06006006,5ccfc9a51aa04800169be694,64ce5acb97489d65b14ecc7a,64cf466aeaf0773358abe779,,,,,,,sngl,resources/DR.BMP,resources/Empty.png,Door4,-0.298148155,-0.029629637,1,0,0,1.1304,optionLeft,80,11180,5,31,0,31,0,1,,,,,,,,,,,,,,,,,,,,,,,,,,,,,,,,,,,,,,,
,,,,,,,,2023-08-06_08h07.04.743,HF_wild_card,2022.2.4,Win32,60.06006006,5ccfc9a51aa04800169be694,64ce5acb97489d65b14ecc7a,64cf466aeaf0773358abe779,,,,,,,decisionTrl,resources/DG.BMP,resources/DB.BMP,Door1,-0.384259259,-0.011111118,1,0,0,2.0404,optionLeft,30,11210,5,32,0,32,0,1,,,,,,,,,,,,,,,,,,,,,,,,,,,,,,,,,,,,,,,
,,,,,,,,2023-08-06_08h07.04.743,HF_wild_card,2022.2.4,Win32,60.06006006,5ccfc9a51aa04800169be694,64ce5acb97489d65b14ecc7a,64cf466aeaf0773358abe779,,,,,,,decisionTrl,resources/DP.BMP,resources/DR.BMP,Door4,0.357407464,0.045370349,1,0,0,2.7272,optionRight,60,11270,5,33,0,33,0,1,,,,,,,,,,,,,,,,,,,,,,,,,,,,,,,,,,,,,,,
,,,,,,,,2023-08-06_08h07.04.743,HF_wild_card,2022.2.4,Win32,60.06006006,5ccfc9a51aa04800169be694,64ce5acb97489d65b14ecc7a,64cf466aeaf0773358abe779,,,,,,,decisionTrl,resources/DP.BMP,resources/DR.BMP,Door3,-0.344444452,-0.008333347,1,0,0,1.4707,optionLeft,70,11340,5,34,0,34,0,1,,,,,,,,,,,,,,,,,,,,,,,,,,,,,,,,,,,,,,,
,,,,,,,,2023-08-06_08h07.04.743,HF_wild_card,2022.2.4,Win32,60.06006006,5ccfc9a51aa04800169be694,64ce5acb97489d65b14ecc7a,64cf466aeaf0773358abe779,,,,,,,decisionTrl,resources/DB.BMP,resources/DG.BMP,Door2,-0.299074067,-0.00462963,1,0,0,1.997,optionLeft,20,11360,5,35,0,35,0,1,,,,,,,,,,,,,,,,,,,,,,,,,,,,,,,,,,,,,,,
,,,,,,,,2023-08-06_08h07.04.743,HF_wild_card,2022.2.4,Win32,60.06006006,5ccfc9a51aa04800169be694,64ce5acb97489d65b14ecc7a,64cf466aeaf0773358abe779,,,,,,,decisionTrl,resources/DY.BMP,resources/DB.BMP,WildCard_Ex,-0.368518511,-0.032407407,1,0,0,1.39,optionLeft,45,11405,5,36,0,36,0,1,,,,,,,,,,,,,,,,,,,,,,,,,,,,,,,,,,,,,,,
,,,,,,,,2023-08-06_08h07.04.743,HF_wild_card,2022.2.4,Win32,60.06006006,5ccfc9a51aa04800169be694,64ce5acb97489d65b14ecc7a,64cf466aeaf0773358abe779,,,,,,,decisionTrl,resources/DP.BMP,resources/DR.BMP,Door4,0.314814815,0.030555548,1,0,0,2.3626,optionRight,60,11465,5,37,0,37,0,1,,,,,,,,,,,,,,,,,,,,,,,,,,,,,,,,,,,,,,,
,,,,,,,,2023-08-06_08h07.04.743,HF_wild_card,2022.2.4,Win32,60.06006006,5ccfc9a51aa04800169be694,64ce5acb97489d65b14ecc7a,64cf466aeaf0773358abe779,,,,,,,decisionTrl,resources/DG.BMP,resources/DB.BMP,Door2,0.315740797,0.022222201,1,0,0,2.7126,optionRight,20,11485,5,38,0,38,0,1,,,,,,,,,,,,,,,,,,,,,,,,,,,,,,,,,,,,,,,
,,,,,,,,2023-08-06_08h07.04.743,HF_wild_card,2022.2.4,Win32,60.06006006,5ccfc9a51aa04800169be694,64ce5acb97489d65b14ecc7a,64cf466aeaf0773358abe779,,,,,,,ctch,resources/DP.BMP,resources/DB.BMP,Door3,-0.364814794,-0.029629637,1,0,0,1.3628,optionLeft,70,11555,5,39,0,39,0,1,,,,,,,,,,,,,,,,,,,,,,,,,,,,,,,,,,,,,,,
,,,,,,,,2023-08-06_08h07.04.743,HF_wild_card,2022.2.4,Win32,60.06006006,5ccfc9a51aa04800169be694,64ce5acb97489d65b14ecc7a,64cf466aeaf0773358abe779,,,,,,,sngl,resources/DY.BMP,resources/Empty.png,WildCard_Ex,-0.400925919,-0.011111118,1,0,0,1.129,optionLeft,45,11600,5,40,0,40,0,1,,,,,,,,,,,,,,,,,,,,,,,,,,,,,,,,,,,,,,,
,,,,,,,,2023-08-06_08h07.04.743,HF_wild_card,2022.2.4,Win32,60.06006006,5ccfc9a51aa04800169be694,64ce5acb97489d65b14ecc7a,64cf466aeaf0773358abe779,,,,,,,sngl,resources/DP.BMP,resources/Empty.png,Door3,-0.352777764,-0.038888896,1,0,0,1.097,optionLeft,70,11670,5,41,0,41,0,1,,,,,,,,,,,,,,,,,,,,,,,,,,,,,,,,,,,,,,,
,,,,,,,,2023-08-06_08h07.04.743,HF_wild_card,2022.2.4,Win32,60.06006006,5ccfc9a51aa04800169be694,64ce5acb97489d65b14ecc7a,64cf466aeaf0773358abe779,,,,,,,ctch,resources/DG.BMP,resources/DR.BMP,Door4,0.327777863,0.011111118,1,0,0,1.7625,optionRight,80,11750,5,42,0,42,0,1,,,,,,,,,,,,,,,,,,,,,,,,,,,,,,,,,,,,,,,
,,,,,,,,2023-08-06_08h07.04.743,HF_wild_card,2022.2.4,Win32,60.06006006,5ccfc9a51aa04800169be694,64ce5acb97489d65b14ecc7a,64cf466aeaf0773358abe779,,,,,,,decisionTrl,resources/DR.BMP,resources/DY.BMP,Door4,-0.378703683,-0.046296296,1,0,0,1.686,optionLeft,60,11810,5,43,0,43,0,1,,,,,,,,,,,,,,,,,,,,,,,,,,,,,,,,,,,,,,,
,,,,,,,,2023-08-06_08h07.04.743,HF_wild_card,2022.2.4,Win32,60.06006006,5ccfc9a51aa04800169be694,64ce5acb97489d65b14ecc7a,64cf466aeaf0773358abe779,,,,,,,,,,,,,,,,,,,,,,,,,,4,0,4,0,1,,,,,,,,,,,,,,,,,,,,,,,,,,,,,,,,,,
,,,,,,,,2023-08-06_08h07.04.743,HF_wild_card,2022.2.4,Win32,60.06006006,5ccfc9a51aa04800169be694,64ce5acb97489d65b14ecc7a,64cf466aeaf0773358abe779,,,,,,,decisionTrl,resources/DG.BMP,resources/DY.BMP,WildCard_Ex,0.386111083,-0.130555541,1,0,0,1.6584,optionRight,45,11855,6,0,0,0,0,1,,,,,,,,,,,,,,,,,,,,,,,,,,,,,,,,,,,,,,,
,,,,,,,,2023-08-06_08h07.04.743,HF_wild_card,2022.2.4,Win32,60.06006006,5ccfc9a51aa04800169be694,64ce5acb97489d65b14ecc7a,64cf466aeaf0773358abe779,,,,,,,decisionTrl,resources/DY.BMP,resources/DB.BMP,WildCard_Ex,-0.407407407,-0.040740755,1,0,0,1.247,optionLeft,55,11910,6,1,0,1,0,1,,,,,,,,,,,,,,,,,,,,,,,,,,,,,,,,,,,,,,,
,,,,,,,,2023-08-06_08h07.04.743,HF_wild_card,2022.2.4,Win32,60.06006006,5ccfc9a51aa04800169be694,64ce5acb97489d65b14ecc7a,64cf466aeaf0773358abe779,,,,,,,ctch,resources/DB.BMP,resources/DP.BMP,Door3,0.367592564,0.008333312,1,0,0,1.3631,optionRight,70,11980,6,2,0,2,0,1,,,,,,,,,,,,,,,,,,,,,,,,,,,,,,,,,,,,,,,
,,,,,,,,2023-08-06_08h07.04.743,HF_wild_card,2022.2.4,Win32,60.06006006,5ccfc9a51aa04800169be694,64ce5acb97489d65b14ecc7a,64cf466aeaf0773358abe779,,,,,,,ctch,resources/DG.BMP,resources/DR.BMP,Door4,0.314814815,0.021296289,1,0,0,1.8108,optionRight,80,12060,6,3,0,3,0,1,,,,,,,,,,,,,,,,,,,,,,,,,,,,,,,,,,,,,,,
,,,,,,,,2023-08-06_08h07.04.743,HF_wild_card,2022.2.4,Win32,60.06006006,5ccfc9a51aa04800169be694,64ce5acb97489d65b14ecc7a,64cf466aeaf0773358abe779,,,,,,,decisionTrl,resources/DY.BMP,resources/DG.BMP,WildCard_Ex,-0.365740741,-0.001851859,1,0,0,1.33,optionLeft,55,12115,6,4,0,4,0,1,,,,,,,,,,,,,,,,,,,,,,,,,,,,,,,,,,,,,,,
,,,,,,,,2023-08-06_08h07.04.743,HF_wild_card,2022.2.4,Win32,60.06006006,5ccfc9a51aa04800169be694,64ce5acb97489d65b14ecc7a,64cf466aeaf0773358abe779,,,,,,,ctch,resources/DP.BMP,resources/DB.BMP,Door3,-0.482407393,-0.026851866,1,0,0,1.4112,optionLeft,70,12185,6,5,0,5,0,1,,,,,,,,,,,,,,,,,,,,,,,,,,,,,,,,,,,,,,,
,,,,,,,,2023-08-06_08h07.04.743,HF_wild_card,2022.2.4,Win32,60.06006006,5ccfc9a51aa04800169be694,64ce5acb97489d65b14ecc7a,64cf466aeaf0773358abe779,,,,,,,decisionTrl,resources/DP.BMP,resources/DR.BMP,Door4,0.287962949,0.012962942,1,0,0,1.8274,optionRight,60,12245,6,6,0,6,0,1,,,,,,,,,,,,,,,,,,,,,,,,,,,,,,,,,,,,,,,
,,,,,,,,2023-08-06_08h07.04.743,HF_wild_card,2022.2.4,Win32,60.06006006,5ccfc9a51aa04800169be694,64ce5acb97489d65b14ecc7a,64cf466aeaf0773358abe779,,,,,,,sngl,resources/DY.BMP,resources/Empty.png,WildCard_Ex,-0.418518526,-0.041666667,1,0,0,1.0952,optionLeft,45,12290,6,7,0,7,0,1,,,,,,,,,,,,,,,,,,,,,,,,,,,,,,,,,,,,,,,
,,,,,,,,2023-08-06_08h07.04.743,HF_wild_card,2022.2.4,Win32,60.06006006,5ccfc9a51aa04800169be694,64ce5acb97489d65b14ecc7a,64cf466aeaf0773358abe779,,,,,,,sngl,resources/DY.BMP,resources/Empty.png,WildCard_Ex,-0.401851831,-0.038888896,1,0,0,1.1107,optionLeft,55,12345,6,8,0,8,0,1,,,,,,,,,,,,,,,,,,,,,,,,,,,,,,,,,,,,,,,
,,,,,,,,2023-08-06_08h07.04.743,HF_wild_card,2022.2.4,Win32,60.06006006,5ccfc9a51aa04800169be694,64ce5acb97489d65b14ecc7a,64cf466aeaf0773358abe779,,,,,,,decisionTrl,resources/DB.BMP,resources/DY.BMP,WildCard_Ex,0.40370376,0.034259266,1,0,0,1.3105,optionRight,55,12400,6,9,0,9,0,1,,,,,,,,,,,,,,,,,,,,,,,,,,,,,,,,,,,,,,,
,,,,,,,,2023-08-06_08h07.04.743,HF_wild_card,2022.2.4,Win32,60.06006006,5ccfc9a51aa04800169be694,64ce5acb97489d65b14ecc7a,64cf466aeaf0773358abe779,,,,,,,decisionTrl,resources/DR.BMP,resources/DP.BMP,Door3,0.312962991,0.038888896,1,0,0,1.9635,optionRight,70,12470,6,10,0,10,0,1,,,,,,,,,,,,,,,,,,,,,,,,,,,,,,,,,,,,,,,
,,,,,,,,2023-08-06_08h07.04.743,HF_wild_card,2022.2.4,Win32,60.06006006,5ccfc9a51aa04800169be694,64ce5acb97489d65b14ecc7a,64cf466aeaf0773358abe779,,,,,,,decisionTrl,resources/DB.BMP,resources/DG.BMP,Door1,0.354629658,0.03148146,1,0,0,2.1286,optionRight,30,12500,6,11,0,11,0,1,,,,,,,,,,,,,,,,,,,,,,,,,,,,,,,,,,,,,,,
,,,,,,,,2023-08-06_08h07.04.743,HF_wild_card,2022.2.4,Win32,60.06006006,5ccfc9a51aa04800169be694,64ce5acb97489d65b14ecc7a,64cf466aeaf0773358abe779,,,,,,,sngl,resources/Empty.png,resources/DP.BMP,Door3,0.333333333,0.005555541,1,0,0,1.1786,optionRight,70,12570,6,12,0,12,0,1,,,,,,,,,,,,,,,,,,,,,,,,,,,,,,,,,,,,,,,
,,,,,,,,2023-08-06_08h07.04.743,HF_wild_card,2022.2.4,Win32,60.06006006,5ccfc9a51aa04800169be694,64ce5acb97489d65b14ecc7a,64cf466aeaf0773358abe779,,,,,,,decisionTrl,resources/DP.BMP,resources/DY.BMP,Door3,-0.376851859,-0.01203703,1,0,0,1.5622,optionLeft,70,12640,6,13,0,13,0,1,,,,,,,,,,,,,,,,,,,,,,,,,,,,,,,,,,,,,,,
,,,,,,,,2023-08-06_08h07.04.743,HF_wild_card,2022.2.4,Win32,60.06006006,5ccfc9a51aa04800169be694,64ce5acb97489d65b14ecc7a,64cf466aeaf0773358abe779,,,,,,,ctch,resources/DR.BMP,resources/DG.BMP,Door4,-0.350925905,-0.002777771,1,0,0,1.6425,optionLeft,80,12720,6,14,0,14,0,1,,,,,,,,,,,,,,,,,,,,,,,,,,,,,,,,,,,,,,,
,,,,,,,,2023-08-06_08h07.04.743,HF_wild_card,2022.2.4,Win32,60.06006006,5ccfc9a51aa04800169be694,64ce5acb97489d65b14ecc7a,64cf466aeaf0773358abe779,,,,,,,sngl,resources/Empty.png,resources/DR.BMP,Door4,0.335185157,0.048148155,1,0,0,1.2445,optionRight,80,12800,6,15,0,15,0,1,,,,,,,,,,,,,,,,,,,,,,,,,,,,,,,,,,,,,,,
,,,,,,,,2023-08-06_08h07.04.743,HF_wild_card,2022.2.4,Win32,60.06006006,5ccfc9a51aa04800169be694,64ce5acb97489d65b14ecc7a,64cf466aeaf0773358abe779,,,,,,,ctch,resources/DB.BMP,resources/DP.BMP,Door3,0.336111139,0.022222201,1,0,0,1.3611,optionRight,70,12870,6,16,0,16,0,1,,,,,,,,,,,,,,,,,,,,,,,,,,,,,,,,,,,,,,,
,,,,,,,,2023-08-06_08h07.04.743,HF_wild_card,2022.2.4,Win32,60.06006006,5ccfc9a51aa04800169be694,64ce5acb97489d65b14ecc7a,64cf466aeaf0773358abe779,,,,,,,decisionTrl,resources/DP.BMP,resources/DR.BMP,Door3,-0.432407414,-0.053703697,1,0,0,1.8776,optionLeft,70,12940,6,17,0,17,0,1,,,,,,,,,,,,,,,,,,,,,,,,,,,,,,,,,,,,,,,
,,,,,,,,2023-08-06_08h07.04.743,HF_wild_card,2022.2.4,Win32,60.06006006,5ccfc9a51aa04800169be694,64ce5acb97489d65b14ecc7a,64cf466aeaf0773358abe779,,,,,,,decisionTrl,resources/DG.BMP,resources/DB.BMP,Door1,-0.384259259,0.013888889,1,0,0,3.3597,optionLeft,30,12970,6,18,0,18,0,1,,,,,,,,,,,,,,,,,,,,,,,,,,,,,,,,,,,,,,,
,,,,,,,,2023-08-06_08h07.04.743,HF_wild_card,2022.2.4,Win32,60.06006006,5ccfc9a51aa04800169be694,64ce5acb97489d65b14ecc7a,64cf466aeaf0773358abe779,,,,,,,decisionTrl,resources/DR.BMP,resources/DY.BMP,Door4,-0.439814815,-0.041666667,1,0,0,1.6601,optionLeft,80,13050,6,19,0,19,0,1,,,,,,,,,,,,,,,,,,,,,,,,,,,,,,,,,,,,,,,
,,,,,,,,2023-08-06_08h07.04.743,HF_wild_card,2022.2.4,Win32,60.06006006,5ccfc9a51aa04800169be694,64ce5acb97489d65b14ecc7a,64cf466aeaf0773358abe779,,,,,,,sngl,resources/DB.BMP,resources/Empty.png,Door2,-0.330555563,-0.005555577,1,0,0,1.6462,optionLeft,20,13070,6,20,0,20,0,1,,,,,,,,,,,,,,,,,,,,,,,,,,,,,,,,,,,,,,,
,,,,,,,,2023-08-06_08h07.04.743,HF_wild_card,2022.2.4,Win32,60.06006006,5ccfc9a51aa04800169be694,64ce5acb97489d65b14ecc7a,64cf466aeaf0773358abe779,,,,,,,decisionTrl,resources/DR.BMP,resources/DP.BMP,Door3,0.35555564,0.042592578,1,0,0,2.0441,optionRight,70,13140,6,21,0,21,0,1,,,,,,,,,,,,,,,,,,,,,,,,,,,,,,,,,,,,,,,
,,,,,,,,2023-08-06_08h07.04.743,HF_wild_card,2022.2.4,Win32,60.06006006,5ccfc9a51aa04800169be694,64ce5acb97489d65b14ecc7a,64cf466aeaf0773358abe779,,,,,,,decisionTrl,resources/DR.BMP,resources/DP.BMP,Door3,0.288888931,0.062037044,1,0,0,1.8458,optionRight,70,13210,6,22,0,22,0,1,,,,,,,,,,,,,,,,,,,,,,,,,,,,,,,,,,,,,,,
,,,,,,,,2023-08-06_08h07.04.743,HF_wild_card,2022.2.4,Win32,60.06006006,5ccfc9a51aa04800169be694,64ce5acb97489d65b14ecc7a,64cf466aeaf0773358abe779,,,,,,,sngl,resources/DR.BMP,resources/Empty.png,Door4,-0.318518497,-0.025000007,1,0,0,1.1803,optionLeft,60,13270,6,23,0,23,0,1,,,,,,,,,,,,,,,,,,,,,,,,,,,,,,,,,,,,,,,
,,,,,,,,2023-08-06_08h07.04.743,HF_wild_card,2022.2.4,Win32,60.06006006,5ccfc9a51aa04800169be694,64ce5acb97489d65b14ecc7a,64cf466aeaf0773358abe779,,,,,,,decisionTrl,resources/DR.BMP,resources/DP.BMP,Door3,0.314814815,0.0074074,1,0,0,1.9118,optionRight,70,13340,6,24,0,24,0,1,,,,,,,,,,,,,,,,,,,,,,,,,,,,,,,,,,,,,,,
,,,,,,,,2023-08-06_08h07.04.743,HF_wild_card,2022.2.4,Win32,60.06006006,5ccfc9a51aa04800169be694,64ce5acb97489d65b14ecc7a,64cf466aeaf0773358abe779,,,,,,,decisionTrl,resources/DG.BMP,resources/DB.BMP,Door2,0.299074102,0.010185171,1,0,0,2.2104,optionRight,40,13380,6,25,0,25,0,1,,,,,,,,,,,,,,,,,,,,,,,,,,,,,,,,,,,,,,,
,,,,,,,,2023-08-06_08h07.04.743,HF_wild_card,2022.2.4,Win32,60.06006006,5ccfc9a51aa04800169be694,64ce5acb97489d65b14ecc7a,64cf466aeaf0773358abe779,,,,,,,ctch,resources/DP.BMP,resources/DB.BMP,Door3,-0.338888875,-0.024074095,1,0,0,1.397,optionLeft,70,13450,6,26,0,26,0,1,,,,,,,,,,,,,,,,,,,,,,,,,,,,,,,,,,,,,,,
,,,,,,,,2023-08-06_08h07.04.743,HF_wild_card,2022.2.4,Win32,60.06006006,5ccfc9a51aa04800169be694,64ce5acb97489d65b14ecc7a,64cf466aeaf0773358abe779,,,,,,,decisionTrl,resources/DB.BMP,resources/DG.BMP,Door1,0.321296268,0.035185178,1,0,0,2.461,optionRight,30,13480,6,27,0,27,0,1,,,,,,,,,,,,,,,,,,,,,,,,,,,,,,,,,,,,,,,
,,,,,,,,2023-08-06_08h07.04.743,HF_wild_card,2022.2.4,Win32,60.06006006,5ccfc9a51aa04800169be694,64ce5acb97489d65b14ecc7a,64cf466aeaf0773358abe779,,,,,,,sngl,resources/Empty.png,resources/DY.BMP,WildCard_Ex,0.375925982,0.026851831,1,0,0,1.2602,optionRight,55,13535,6,28,0,28,0,1,,,,,,,,,,,,,,,,,,,,,,,,,,,,,,,,,,,,,,,
,,,,,,,,2023-08-06_08h07.04.743,HF_wild_card,2022.2.4,Win32,60.06006006,5ccfc9a51aa04800169be694,64ce5acb97489d65b14ecc7a,64cf466aeaf0773358abe779,,,,,,,ctch,resources/DR.BMP,resources/DG.BMP,Door4,-0.39907406,-0.019444466,1,0,0,1.6109,optionLeft,80,13615,6,29,0,29,0,1,,,,,,,,,,,,,,,,,,,,,,,,,,,,,,,,,,,,,,,
,,,,,,,,2023-08-06_08h07.04.743,HF_wild_card,2022.2.4,Win32,60.06006006,5ccfc9a51aa04800169be694,64ce5acb97489d65b14ecc7a,64cf466aeaf0773358abe779,,,,,,,decisionTrl,resources/DP.BMP,resources/DR.BMP,Door3,-0.397222201,-0.000925947,1,0,0,3.3111,optionLeft,70,13685,6,30,0,30,0,1,,,,,,,,,,,,,,,,,,,,,,,,,,,,,,,,,,,,,,,
,,,,,,,,2023-08-06_08h07.04.743,HF_wild_card,2022.2.4,Win32,60.06006006,5ccfc9a51aa04800169be694,64ce5acb97489d65b14ecc7a,64cf466aeaf0773358abe779,,,,,,,sngl,resources/DP.BMP,resources/Empty.png,Door3,-0.35833334,-0.051851873,1,0,0,1.2112,optionLeft,70,13755,6,31,0,31,0,1,,,,,,,,,,,,,,,,,,,,,,,,,,,,,,,,,,,,,,,
,,,,,,,,2023-08-06_08h07.04.743,HF_wild_card,2022.2.4,Win32,60.06006006,5ccfc9a51aa04800169be694,64ce5acb97489d65b14ecc7a,64cf466aeaf0773358abe779,,,,,,,decisionTrl,resources/DY.BMP,resources/DR.BMP,Door4,0.319444444,0.002777771,1,0,0,1.9111,optionRight,80,13835,6,32,0,32,0,1,,,,,,,,,,,,,,,,,,,,,,,,,,,,,,,,,,,,,,,
,,,,,,,,2023-08-06_08h07.04.743,HF_wild_card,2022.2.4,Win32,60.06006006,5ccfc9a51aa04800169be694,64ce5acb97489d65b14ecc7a,64cf466aeaf0773358abe779,,,,,,,decisionTrl,resources/DG.BMP,resources/DB.BMP,Door2,0.363888917,0.025000007,1,0,0,3.2113,optionRight,20,13855,6,33,0,33,0,1,,,,,,,,,,,,,,,,,,,,,,,,,,,,,,,,,,,,,,,
,,,,,,,,2023-08-06_08h07.04.743,HF_wild_card,2022.2.4,Win32,60.06006006,5ccfc9a51aa04800169be694,64ce5acb97489d65b14ecc7a,64cf466aeaf0773358abe779,,,,,,,decisionTrl,resources/DB.BMP,resources/DG.BMP,Door2,-0.444444444,-0.054629644,1,0,0,1.8769,optionLeft,40,13895,6,34,0,34,0,1,,,,,,,,,,,,,,,,,,,,,,,,,,,,,,,,,,,,,,,
,,,,,,,,2023-08-06_08h07.04.743,HF_wild_card,2022.2.4,Win32,60.06006006,5ccfc9a51aa04800169be694,64ce5acb97489d65b14ecc7a,64cf466aeaf0773358abe779,,,,,,,decisionTrl,resources/DG.BMP,resources/DB.BMP,Door1,-0.339814822,-0.047222243,1,0,0,1.9945,optionLeft,30,13925,6,35,0,35,0,1,,,,,,,,,,,,,,,,,,,,,,,,,,,,,,,,,,,,,,,
,,,,,,,,2023-08-06_08h07.04.743,HF_wild_card,2022.2.4,Win32,60.06006006,5ccfc9a51aa04800169be694,64ce5acb97489d65b14ecc7a,64cf466aeaf0773358abe779,,,,,,,sngl,resources/DG.BMP,resources/Empty.png,Door1,-0.288888861,-0.031481496,1,0,0,1.1779,optionLeft,30,13955,6,36,0,36,0,1,,,,,,,,,,,,,,,,,,,,,,,,,,,,,,,,,,,,,,,
,,,,,,,,2023-08-06_08h07.04.743,HF_wild_card,2022.2.4,Win32,60.06006006,5ccfc9a51aa04800169be694,64ce5acb97489d65b14ecc7a,64cf466aeaf0773358abe779,,,,,,,ctch,resources/DG.BMP,resources/DR.BMP,Door4,0.388888889,0.03611109,1,0,0,1.4629,optionRight,80,14035,6,37,0,37,0,1,,,,,,,,,,,,,,,,,,,,,,,,,,,,,,,,,,,,,,,
,,,,,,,,2023-08-06_08h07.04.743,HF_wild_card,2022.2.4,Win32,60.06006006,5ccfc9a51aa04800169be694,64ce5acb97489d65b14ecc7a,64cf466aeaf0773358abe779,,,,,,,sngl,resources/Empty.png,resources/DG.BMP,Door1,0.366666723,0.013888889,1,0,0,1.2136,optionRight,30,14065,6,38,0,38,0,1,,,,,,,,,,,,,,,,,,,,,,,,,,,,,,,,,,,,,,,
,,,,,,,,2023-08-06_08h07.04.743,HF_wild_card,2022.2.4,Win32,60.06006006,5ccfc9a51aa04800169be694,64ce5acb97489d65b14ecc7a,64cf466aeaf0773358abe779,,,,,,,sngl,resources/Empty.png,resources/DY.BMP,WildCard_Ex,0.381481453,0.025925919,1,0,0,1.1797,optionRight,45,14110,6,39,0,39,0,1,,,,,,,,,,,,,,,,,,,,,,,,,,,,,,,,,,,,,,,
,,,,,,,,2023-08-06_08h07.04.743,HF_wild_card,2022.2.4,Win32,60.06006006,5ccfc9a51aa04800169be694,64ce5acb97489d65b14ecc7a,64cf466aeaf0773358abe779,,,,,,,decisionTrl,resources/DY.BMP,resources/DP.BMP,Door3,0.384259259,0.047222208,1,0,0,1.4976,optionRight,70,14180,6,40,0,40,0,1,,,,,,,,,,,,,,,,,,,,,,,,,,,,,,,,,,,,,,,
,,,,,,,,2023-08-06_08h07.04.743,HF_wild_card,2022.2.4,Win32,60.06006006,5ccfc9a51aa04800169be694,64ce5acb97489d65b14ecc7a,64cf466aeaf0773358abe779,,,,,,,decisionTrl,resources/DB.BMP,resources/DG.BMP,Door1,0.30277775,0.02870369,1,0,0,4.5101,optionRight,30,14210,6,41,0,41,0,1,,,,,,,,,,,,,,,,,,,,,,,,,,,,,,,,,,,,,,,
,,,,,,,,2023-08-06_08h07.04.743,HF_wild_card,2022.2.4,Win32,60.06006006,5ccfc9a51aa04800169be694,64ce5acb97489d65b14ecc7a,64cf466aeaf0773358abe779,,,,,,,sngl,resources/Empty.png,resources/DB.BMP,Door2,0.375,0.069444444,1,0,0,1.1439,optionRight,40,14250,6,42,0,42,0,1,,,,,,,,,,,,,,,,,,,,,,,,,,,,,,,,,,,,,,,
,,,,,,,,2023-08-06_08h07.04.743,HF_wild_card,2022.2.4,Win32,60.06006006,5ccfc9a51aa04800169be694,64ce5acb97489d65b14ecc7a,64cf466aeaf0773358abe779,,,,,,,decisionTrl,resources/DP.BMP,resources/DR.BMP,Door3,-0.305555556,-0.020370377,1,0,0,2.896,optionLeft,70,14320,6,43,0,43,0,1,,,,,,,,,,,,,,,,,,,,,,,,,,,,,,,,,,,,,,,
,,,,,,,,2023-08-06_08h07.04.743,HF_wild_card,2022.2.4,Win32,60.06006006,5ccfc9a51aa04800169be694,64ce5acb97489d65b14ecc7a,64cf466aeaf0773358abe779,,,,,,,,,,,,,,,,,,,,,,,,,,5,0,5,0,1,,,,,,,,,,,,,,,,,,,,,,,,,,,,,,,,,,
,,,,,,,,2023-08-06_08h07.04.743,HF_wild_card,2022.2.4,Win32,60.06006006,5ccfc9a51aa04800169be694,64ce5acb97489d65b14ecc7a,64cf466aeaf0773358abe779,,,,,,,decisionTrl,resources/DG.BMP,resources/DB.BMP,Door1,-0.263888889,-0.133333347,1,0,0,1.587,optionLeft,30,14350,7,0,0,0,0,1,,,,,,,,,,,,,,,,,,,,,,,,,,,,,,,,,,,,,,,
,,,,,,,,2023-08-06_08h07.04.743,HF_wild_card,2022.2.4,Win32,60.06006006,5ccfc9a51aa04800169be694,64ce5acb97489d65b14ecc7a,64cf466aeaf0773358abe779,,,,,,,decisionTrl,resources/DR.BMP,resources/DP.BMP,Door3,0.33148151,0.009259259,1,0,0,2.6472,optionRight,70,14420,7,1,0,1,0,1,,,,,,,,,,,,,,,,,,,,,,,,,,,,,,,,,,,,,,,
,,,,,,,,2023-08-06_08h07.04.743,HF_wild_card,2022.2.4,Win32,60.06006006,5ccfc9a51aa04800169be694,64ce5acb97489d65b14ecc7a,64cf466aeaf0773358abe779,,,,,,,ctch,resources/DP.BMP,resources/DB.BMP,Door3,-0.349074081,-0.042592614,1,0,0,1.4438,optionLeft,70,14490,7,2,0,2,0,1,,,,,,,,,,,,,,,,,,,,,,,,,,,,,,,,,,,,,,,
,,,,,,,,2023-08-06_08h07.04.743,HF_wild_card,2022.2.4,Win32,60.06006006,5ccfc9a51aa04800169be694,64ce5acb97489d65b14ecc7a,64cf466aeaf0773358abe779,,,,,,,decisionTrl,resources/DB.BMP,resources/DG.BMP,Door1,0.330555527,0.008333312,1,0,0,2.0656,optionRight,30,14520,7,3,0,3,0,1,,,,,,,,,,,,,,,,,,,,,,,,,,,,,,,,,,,,,,,
,,,,,,,,2023-08-06_08h07.04.743,HF_wild_card,2022.2.4,Win32,60.06006006,5ccfc9a51aa04800169be694,64ce5acb97489d65b14ecc7a,64cf466aeaf0773358abe779,,,,,,,ctch,resources/DG.BMP,resources/DR.BMP,Door4,0.346296381,0.022222201,1,0,0,1.6299,optionRight,80,14600,7,4,0,4,0,1,,,,,,,,,,,,,,,,,,,,,,,,,,,,,,,,,,,,,,,
,,,,,,,,2023-08-06_08h07.04.743,HF_wild_card,2022.2.4,Win32,60.06006006,5ccfc9a51aa04800169be694,64ce5acb97489d65b14ecc7a,64cf466aeaf0773358abe779,,,,,,,ctch,resources/DB.BMP,resources/DP.BMP,Door3,0.391666695,0.01666666,1,0,0,1.2826,optionRight,70,14670,7,5,0,5,0,1,,,,,,,,,,,,,,,,,,,,,,,,,,,,,,,,,,,,,,,
,,,,,,,,2023-08-06_08h07.04.743,HF_wild_card,2022.2.4,Win32,60.06006006,5ccfc9a51aa04800169be694,64ce5acb97489d65b14ecc7a,64cf466aeaf0773358abe779,,,,,,,decisionTrl,resources/DB.BMP,resources/DG.BMP,Door1,0.390740712,0.046296296,1,0,0,1.5145,optionRight,30,14700,7,6,0,6,0,1,,,,,,,,,,,,,,,,,,,,,,,,,,,,,,,,,,,,,,,
,,,,,,,,2023-08-06_08h07.04.743,HF_wild_card,2022.2.4,Win32,60.06006006,5ccfc9a51aa04800169be694,64ce5acb97489d65b14ecc7a,64cf466aeaf0773358abe779,,,,,,,ctch,resources/DG.BMP,resources/DR.BMP,Door4,0.369444529,0.017592571,1,0,0,1.3146,optionRight,80,14780,7,7,0,7,0,1,,,,,,,,,,,,,,,,,,,,,,,,,,,,,,,,,,,,,,,
,,,,,,,,2023-08-06_08h07.04.743,HF_wild_card,2022.2.4,Win32,60.06006006,5ccfc9a51aa04800169be694,64ce5acb97489d65b14ecc7a,64cf466aeaf0773358abe779,,,,,,,decisionTrl,resources/DP.BMP,resources/DR.BMP,Door3,-0.433333326,-0.024074095,1,0,0,1.464,optionLeft,70,14850,7,8,0,8,0,1,,,,,,,,,,,,,,,,,,,,,,,,,,,,,,,,,,,,,,,
,,,,,,,,2023-08-06_08h07.04.743,HF_wild_card,2022.2.4,Win32,60.06006006,5ccfc9a51aa04800169be694,64ce5acb97489d65b14ecc7a,64cf466aeaf0773358abe779,,,,,,,ctch,resources/DP.BMP,resources/DB.BMP,Door3,-0.407407407,0.002777771,1,0,0,1.414,optionLeft,70,14920,7,9,0,9,0,1,,,,,,,,,,,,,,,,,,,,,,,,,,,,,,,,,,,,,,,
,,,,,,,,2023-08-06_08h07.04.743,HF_wild_card,2022.2.4,Win32,60.06006006,5ccfc9a51aa04800169be694,64ce5acb97489d65b14ecc7a,64cf466aeaf0773358abe779,,,,,,,decisionTrl,resources/DG.BMP,resources/DB.BMP,Door2,0.293518561,0.01666666,1,0,0,2.3315,optionRight,20,14940,7,10,0,10,0,1,,,,,,,,,,,,,,,,,,,,,,,,,,,,,,,,,,,,,,,
,,,,,,,,2023-08-06_08h07.04.743,HF_wild_card,2022.2.4,Win32,60.06006006,5ccfc9a51aa04800169be694,64ce5acb97489d65b14ecc7a,64cf466aeaf0773358abe779,,,,,,,decisionTrl,resources/DB.BMP,resources/DG.BMP,Door2,-0.326851845,-0.020370377,1,0,0,1.596,optionLeft,20,14960,7,11,0,11,0,1,,,,,,,,,,,,,,,,,,,,,,,,,,,,,,,,,,,,,,,
,,,,,,,,2023-08-06_08h07.04.743,HF_wild_card,2022.2.4,Win32,60.06006006,5ccfc9a51aa04800169be694,64ce5acb97489d65b14ecc7a,64cf466aeaf0773358abe779,,,,,,,decisionTrl,resources/DB.BMP,resources/DG.BMP,Door1,0.327777863,0.038888896,1,0,0,1.6658,optionRight,30,14990,7,12,0,12,0,1,,,,,,,,,,,,,,,,,,,,,,,,,,,,,,,,,,,,,,,
,,,,,,,,2023-08-06_08h07.04.743,HF_wild_card,2022.2.4,Win32,60.06006006,5ccfc9a51aa04800169be694,64ce5acb97489d65b14ecc7a,64cf466aeaf0773358abe779,,,,,,,decisionTrl,resources/DG.BMP,resources/DB.BMP,Door1,-0.335185192,-0.012962977,1,0,0,2.0477,optionLeft,30,15020,7,13,0,13,0,1,,,,,,,,,,,,,,,,,,,,,,,,,,,,,,,,,,,,,,,
,,,,,,,,2023-08-06_08h07.04.743,HF_wild_card,2022.2.4,Win32,60.06006006,5ccfc9a51aa04800169be694,64ce5acb97489d65b14ecc7a,64cf466aeaf0773358abe779,,,,,,,decisionTrl,resources/DP.BMP,resources/DR.BMP,Door4,0.402777778,0.062037044,1,0,0,2.5799,optionRight,80,15100,7,14,0,14,0,1,,,,,,,,,,,,,,,,,,,,,,,,,,,,,,,,,,,,,,,
,,,,,,,,2023-08-06_08h07.04.743,HF_wild_card,2022.2.4,Win32,60.06006006,5ccfc9a51aa04800169be694,64ce5acb97489d65b14ecc7a,64cf466aeaf0773358abe779,,,,,,,decisionTrl,resources/DB.BMP,resources/DG.BMP,Door1,0.323148233,0.050925926,1,0,0,2.1963,optionRight,30,15130,7,15,0,15,0,1,,,,,,,,,,,,,,,,,,,,,,,,,,,,,,,,,,,,,,,
,,,,,,,,2023-08-06_08h07.04.743,HF_wild_card,2022.2.4,Win32,60.06006006,5ccfc9a51aa04800169be694,64ce5acb97489d65b14ecc7a,64cf466aeaf0773358abe779,,,,,,,decisionTrl,resources/DR.BMP,resources/DP.BMP,Door3,0.327777863,0.055555556,1,0,0,2.0141,optionRight,70,15200,7,16,0,16,0,1,,,,,,,,,,,,,,,,,,,,,,,,,,,,,,,,,,,,,,,
,,,,,,,,2023-08-06_08h07.04.743,HF_wild_card,2022.2.4,Win32,60.06006006,5ccfc9a51aa04800169be694,64ce5acb97489d65b14ecc7a,64cf466aeaf0773358abe779,,,,,,,ctch,resources/DB.BMP,resources/DP.BMP,Door3,0.345370399,0.057407414,1,0,0,1.366,optionRight,70,15270,7,17,0,17,0,1,,,,,,,,,,,,,,,,,,,,,,,,,,,,,,,,,,,,,,,
,,,,,,,,2023-08-06_08h07.04.743,HF_wild_card,2022.2.4,Win32,60.06006006,5ccfc9a51aa04800169be694,64ce5acb97489d65b14ecc7a,64cf466aeaf0773358abe779,,,,,,,decisionTrl,resources/DP.BMP,resources/DR.BMP,Door4,0.372222194,0.02870369,1,0,0,2.1933,optionRight,80,15350,7,18,0,18,0,1,,,,,,,,,,,,,,,,,,,,,,,,,,,,,,,,,,,,,,,
,,,,,,,,2023-08-06_08h07.04.743,HF_wild_card,2022.2.4,Win32,60.06006006,5ccfc9a51aa04800169be694,64ce5acb97489d65b14ecc7a,64cf466aeaf0773358abe779,,,,,,,ctch,resources/DR.BMP,resources/DG.BMP,Door4,-0.361111111,0.01203703,1,0,0,1.5285,optionLeft,80,15430,7,19,0,19,0,1,,,,,,,,,,,,,,,,,,,,,,,,,,,,,,,,,,,,,,,
,,,,,,,,2023-08-06_08h07.04.743,HF_wild_card,2022.2.4,Win32,60.06006006,5ccfc9a51aa04800169be694,64ce5acb97489d65b14ecc7a,64cf466aeaf0773358abe779,,,,,,,ctch,resources/DG.BMP,resources/DR.BMP,Door4,0.387963048,0.058333326,1,0,0,1.5808,optionRight,80,15510,7,20,0,20,0,1,,,,,,,,,,,,,,,,,,,,,,,,,,,,,,,,,,,,,,,
,,,,,,,,2023-08-06_08h07.04.743,HF_wild_card,2022.2.4,Win32,60.06006006,5ccfc9a51aa04800169be694,64ce5acb97489d65b14ecc7a,64cf466aeaf0773358abe779,,,,,,,ctch,resources/DP.BMP,resources/DB.BMP,Door3,-0.380555541,-0.006481489,1,0,0,1.4132,optionLeft,70,15580,7,21,0,21,0,1,,,,,,,,,,,,,,,,,,,,,,,,,,,,,,,,,,,,,,,
,,,,,,,,2023-08-06_08h07.04.743,HF_wild_card,2022.2.4,Win32,60.06006006,5ccfc9a51aa04800169be694,64ce5acb97489d65b14ecc7a,64cf466aeaf0773358abe779,,,,,,,decisionTrl,resources/DP.BMP,resources/DR.BMP,Door4,0.323148233,0.045370349,1,0,0,2.0982,optionRight,60,15640,7,22,0,22,0,1,,,,,,,,,,,,,,,,,,,,,,,,,,,,,,,,,,,,,,,
,,,,,,,,2023-08-06_08h07.04.743,HF_wild_card,2022.2.4,Win32,60.06006006,5ccfc9a51aa04800169be694,64ce5acb97489d65b14ecc7a,64cf466aeaf0773358abe779,,,,,,,decisionTrl,resources/DG.BMP,resources/DB.BMP,Door1,-0.373148141,-0.029629637,1,0,0,1.9313,optionLeft,30,15670,7,23,0,23,0,1,,,,,,,,,,,,,,,,,,,,,,,,,,,,,,,,,,,,,,,
,,,,,,,,2023-08-06_08h07.04.743,HF_wild_card,2022.2.4,Win32,60.06006006,5ccfc9a51aa04800169be694,64ce5acb97489d65b14ecc7a,64cf466aeaf0773358abe779,,,,,,,decisionTrl,resources/DG.BMP,resources/DB.BMP,Door2,0.284259302,-0.001851859,1,0,0,1.4489,optionRight,20,15690,7,24,0,24,0,1,,,,,,,,,,,,,,,,,,,,,,,,,,,,,,,,,,,,,,,
,,,,,,,,2023-08-06_08h07.04.743,HF_wild_card,2022.2.4,Win32,60.06006006,5ccfc9a51aa04800169be694,64ce5acb97489d65b14ecc7a,64cf466aeaf0773358abe779,,,,,,,ctch,resources/DB.BMP,resources/DP.BMP,Door3,0.356481481,0.064814815,1,0,0,1.4489,optionRight,70,15760,7,25,0,25,0,1,,,,,,,,,,,,,,,,,,,,,,,,,,,,,,,,,,,,,,,
,,,,,,,,2023-08-06_08h07.04.743,HF_wild_card,2022.2.4,Win32,60.06006006,5ccfc9a51aa04800169be694,64ce5acb97489d65b14ecc7a,64cf466aeaf0773358abe779,,,,,,,decisionTrl,resources/DR.BMP,resources/DP.BMP,Door4,-0.323148127,0.01666666,1,0,0,1.9806,optionLeft,60,15820,7,26,0,26,0,1,,,,,,,,,,,,,,,,,,,,,,,,,,,,,,,,,,,,,,,
,,,,,,,,2023-08-06_08h07.04.743,HF_wild_card,2022.2.4,Win32,60.06006006,5ccfc9a51aa04800169be694,64ce5acb97489d65b14ecc7a,64cf466aeaf0773358abe779,,,,,,,ctch,resources/DR.BMP,resources/DG.BMP,Door4,-0.342592593,0.026851831,1,0,0,1.3814,optionLeft,60,15880,7,27,0,27,0,1,,,,,,,,,,,,,,,,,,,,,,,,,,,,,,,,,,,,,,,
,,,,,,,,2023-08-06_08h07.04.743,HF_wild_card,2022.2.4,Win32,60.06006006,5ccfc9a51aa04800169be694,64ce5acb97489d65b14ecc7a,64cf466aeaf0773358abe779,,,,,,,ctch,resources/DR.BMP,resources/DG.BMP,Door4,-0.333333333,0.009259259,1,0,0,1.3307,optionLeft,80,15960,7,28,0,28,0,1,,,,,,,,,,,,,,,,,,,,,,,,,,,,,,,,,,,,,,,
,,,,,,,,2023-08-06_08h07.04.743,HF_wild_card,2022.2.4,Win32,60.06006006,5ccfc9a51aa04800169be694,64ce5acb97489d65b14ecc7a,64cf466aeaf0773358abe779,,,,,,,decisionTrl,resources/DB.BMP,resources/DG.BMP,Door2,-0.336111104,-0.011111118,1,0,0,2.7967,optionLeft,20,15980,7,29,0,29,0,1,,,,,,,,,,,,,,,,,,,,,,,,,,,,,,,,,,,,,,,
,,,,,,,,2023-08-06_08h07.04.743,HF_wild_card,2022.2.4,Win32,60.06006006,5ccfc9a51aa04800169be694,64ce5acb97489d65b14ecc7a,64cf466aeaf0773358abe779,,,,,,,decisionTrl,resources/DG.BMP,resources/DB.BMP,Door1,-0.333333333,0.052777785,1,0,0,1.947,optionLeft,30,16010,7,30,0,30,0,1,,,,,,,,,,,,,,,,,,,,,,,,,,,,,,,,,,,,,,,
,,,,,,,,2023-08-06_08h07.04.743,HF_wild_card,2022.2.4,Win32,60.06006006,5ccfc9a51aa04800169be694,64ce5acb97489d65b14ecc7a,64cf466aeaf0773358abe779,,,,,,,decisionTrl,resources/DP.BMP,resources/DR.BMP,Door3,-0.324074074,0.037037037,1,0,0,2.3796,optionLeft,70,16080,7,31,0,31,0,1,,,,,,,,,,,,,,,,,,,,,,,,,,,,,,,,,,,,,,,
,,,,,,,,2023-08-06_08h07.04.743,HF_wild_card,2022.2.4,Win32,60.06006006,5ccfc9a51aa04800169be694,64ce5acb97489d65b14ecc7a,64cf466aeaf0773358abe779,,,,,,,decisionTrl,resources/DR.BMP,resources/DP.BMP,Door4,-0.361111111,0.041666667,1,0,0,2.7474,optionLeft,60,16140,7,32,0,32,0,1,,,,,,,,,,,,,,,,,,,,,,,,,,,,,,,,,,,,,,,
,,,,,,,,2023-08-06_08h07.04.743,HF_wild_card,2022.2.4,Win32,60.06006006,5ccfc9a51aa04800169be694,64ce5acb97489d65b14ecc7a,64cf466aeaf0773358abe779,,,,,,,decisionTrl,resources/DR.BMP,resources/DP.BMP,Door3,0.334259316,0.073148127,1,0,0,1.366,optionRight,70,16210,7,33,0,33,0,1,,,,,,,,,,,,,,,,,,,,,,,,,,,,,,,,,,,,,,,
,,,,,,,,2023-08-06_08h07.04.743,HF_wild_card,2022.2.4,Win32,60.06006006,5ccfc9a51aa04800169be694,64ce5acb97489d65b14ecc7a,64cf466aeaf0773358abe779,,,,,,,decisionTrl,resources/DP.BMP,resources/DR.BMP,Door4,0.353703675,0.089814822,1,0,0,2.1946,optionRight,80,16290,7,34,0,34,0,1,,,,,,,,,,,,,,,,,,,,,,,,,,,,,,,,,,,,,,,
,,,,,,,,2023-08-06_08h07.04.743,HF_wild_card,2022.2.4,Win32,60.06006006,5ccfc9a51aa04800169be694,64ce5acb97489d65b14ecc7a,64cf466aeaf0773358abe779,,,,,,,decisionTrl,resources/DR.BMP,resources/DP.BMP,Door3,0.334259316,0.062962956,1,0,0,3.7295,optionRight,70,16360,7,35,0,35,0,1,,,,,,,,,,,,,,,,,,,,,,,,,,,,,,,,,,,,,,,
,,,,,,,,2023-08-06_08h07.04.743,HF_wild_card,2022.2.4,Win32,60.06006006,5ccfc9a51aa04800169be694,64ce5acb97489d65b14ecc7a,64cf466aeaf0773358abe779,,,,,,,,,,,,,,,,,,,,,,,,,,6,0,6,0,1,,,,,,,,,,,,,,,,,,,,,,,,,,,,,,,,,,
,,,,,,,,2023-08-06_08h07.04.743,HF_wild_card,2022.2.4,Win32,60.06006006,5ccfc9a51aa04800169be694,64ce5acb97489d65b14ecc7a,64cf466aeaf0773358abe779,,,,,,,,,,,,,,,,,,,,,,,,,,,,,,,4,,,,,,,,,,,,,,,,,,,,,,,,,,,,,,,,,
,,,,,,,,2023-08-06_08h07.04.743,HF_wild_card,2022.2.4,Win32,60.06006006,5ccfc9a51aa04800169be694,64ce5acb97489d65b14ecc7a,64cf466aeaf0773358abe779,,,,,,,,,,,,,,,,,,,,,,,,,,,,,,,,,,,,,,,,,,,,,,,,,,,,,,,,,,,,,,,,
,,,,,,,,2023-08-06_08h07.04.743,HF_wild_card,2022.2.4,Win32,60.06006006,5ccfc9a51aa04800169be694,64ce5acb97489d65b14ecc7a,64cf466aeaf0773358abe779,,,,,,,,,,,,,,,,,,,,,,,,,,,,,,,,30,Door1,resources/DG.BMP,0,0,0,0,1,,,,,,,,,,,,,,,,,,,,,,,,,
,,,,,,,,2023-08-06_08h07.04.743,HF_wild_card,2022.2.4,Win32,60.06006006,5ccfc9a51aa04800169be694,64ce5acb97489d65b14ecc7a,64cf466aeaf0773358abe779,,,,,,,,,,,,,,,,,,,,,,,,,,,,,,,,45,WC_nonExtreme,resources/DBN.BMP,1,0,1,0,1,,,,,,,,,,,,,,,,,,,,,,,,,
,,,,,,,,2023-08-06_08h07.04.743,HF_wild_card,2022.2.4,Win32,60.06006006,5ccfc9a51aa04800169be694,64ce5acb97489d65b14ecc7a,64cf466aeaf0773358abe779,,,,,,,,,,,,,,,,,,,,,,,,,,,,,,,,55,WC_extreme,resources/DY.BMP,2,0,2,0,1,,,,,,,,,,,,,,,,,,,,,,,,,
,,,,,,,,2023-08-06_08h07.04.743,HF_wild_card,2022.2.4,Win32,60.06006006,5ccfc9a51aa04800169be694,64ce5acb97489d65b14ecc7a,64cf466aeaf0773358abe779,,,,,,,,,,,,,,,,,,,,,,,,,,,,,,,,80,Door4,resources/DR.BMP,3,0,3,0,1,,,,,,,,,,,,,,,,,,,,,,,,,
,,,,,,,,2023-08-06_08h07.04.743,HF_wild_card,2022.2.4,Win32,60.06006006,5ccfc9a51aa04800169be694,64ce5acb97489d65b14ecc7a,64cf466aeaf0773358abe779,,,,,,,,,,,,,,,,,,,,,,,,,,,,,,,,70,Door3,resources/DP.BMP,4,0,4,0,1,,,,,,,,,,,,,,,,,,,,,,,,,
,,,,,,,,2023-08-06_08h07.04.743,HF_wild_card,2022.2.4,Win32,60.06006006,5ccfc9a51aa04800169be694,64ce5acb97489d65b14ecc7a,64cf466aeaf0773358abe779,,,,,,,,,,,,,,,,,,,,,,,,,,,,,,,,20,Door2,resources/DB.BMP,5,0,5,0,1,,,,,,,,,,,,,,,,,,,,,,,,,
,,,,,,,,2023-08-06_08h07.04.743,HF_wild_card,2022.2.4,Win32,60.06006006,5ccfc9a51aa04800169be694,64ce5acb97489d65b14ecc7a,64cf466aeaf0773358abe779,,,,,,,,,,,,,,,,,,,,,,,,,,,,,,,,,,,,,,,,,,,,,,,,,,,,,,,,,,,,,,,,
