Condition,Low fixed image (Door1),Low risky image (Door2),High fixed image (Door3),High risky image (Door4),Extreme Wild Card,NonExtreme Wild Card,,date,expName,psychopyVersion,OS,frameRate,PROLIFIC_PID,STUDY_ID,SESSION_ID,mouse_2.x,mouse_2.y,mouse_2.leftButton,mouse_2.midButton,mouse_2.rightButton,mouse_2.clicked_name,Trial Type,Left Option Image,Right Option Image,Chosen Door,mouse.x,mouse.y,mouse.leftButton,mouse.midButton,mouse.rightButton,mouse.time,mouse.clicked_name,Feedback,Cumulative Reward,Block,trial.thisRepN,trial.thisTrialN,trial.thisN,trial.thisIndex,trial.ran,blocks.thisRepN,blocks.thisTrialN,blocks.thisN,blocks.thisIndex,blocks.ran,Money conversion,First Outcome Reported,Shown Door (First Outcome),Displayed Image (First Outcome),outcomes.thisRepN,outcomes.thisTrialN,outcomes.thisN,outcomes.thisIndex,outcomes.ran,judgments.thisRepN,judgments.thisTrialN,judgments.thisN,judgments.thisIndex,judgments.ran,freqMouse.x,freqMouse.y,freqMouse.leftButton,freqMouse.midButton,freqMouse.rightButton,freqMouse.clicked_name,FQJ for first outcome,FQJ for second outcome,Shown Door,Displayed Image,trials.thisRepN,trials.thisTrialN,trials.thisN,trials.thisIndex,trials.ran,judgBlock.thisRepN,judgBlock.thisTrialN,judgBlock.thisN,judgBlock.thisIndex,judgBlock.ran
0,resources/DR.BMP,resources/DG.BMP,resources/DB.BMP,resources/DY.BMP,resources/DBN.BMP,resources/DP.BMP,5ae1e99638df950001454b0e,2023-08-16_08h47.24.975,HF_wild_card,2022.2.4,Win32,59.95563283,5ae1e99638df950001454b0e,64d2fd46c836a06233681665,64dc7ea2eb61e76232e2ecd0,,,,,,,,,,,,,,,,,,,,,,,,,,,,,,,,,,,,,,,,,,,,,,,,,,,,,,,,,,,,,,,,
,,,,,,,5ae1e99638df950001454b0e,2023-08-16_08h47.24.975,HF_wild_card,2022.2.4,Win32,59.95563283,5ae1e99638df950001454b0e,64d2fd46c836a06233681665,64dc7ea2eb61e76232e2ecd0,-0.013020833,-0.416666667,1,0,0,agree,,,,,,,,,,,,,,,,,,,,,,,,,,,,,,,,,,,,,,,,,,,,,,,,,,,,,,,,,,
,,,,,,,5ae1e99638df950001454b0e,2023-08-16_08h47.24.975,HF_wild_card,2022.2.4,Win32,59.95563283,5ae1e99638df950001454b0e,64d2fd46c836a06233681665,64dc7ea2eb61e76232e2ecd0,,,,,,,,,,,,,,,,,,,,,,,,,,,,,,,,,,,,,,,,,,,,,,,,,,,,,,,,,,,,,,,,
,,,,,,,5ae1e99638df950001454b0e,2023-08-16_08h47.24.975,HF_wild_card,2022.2.4,Win32,59.95563283,5ae1e99638df950001454b0e,64d2fd46c836a06233681665,64dc7ea2eb61e76232e2ecd0,,,,,,,ctch,resources/DR.BMP,resources/DY.BMP,Door4,0.365885417,-0.130208333,1,0,0,2.0899,optionRight,60,60,1,0,0,0,0,1,,,,,,,,,,,,,,,,,,,,,,,,,,,,,,,,,,,,,,,
,,,,,,,5ae1e99638df950001454b0e,2023-08-16_08h47.24.975,HF_wild_card,2022.2.4,Win32,59.95563283,5ae1e99638df950001454b0e,64d2fd46c836a06233681665,64dc7ea2eb61e76232e2ecd0,,,,,,,decisionTrl,resources/DB.BMP,resources/DBN.BMP,Door3,-0.194010417,-0.03125,1,0,0,1.0231,optionLeft,70,130,1,1,0,1,0,1,,,,,,,,,,,,,,,,,,,,,,,,,,,,,,,,,,,,,,,
,,,,,,,5ae1e99638df950001454b0e,2023-08-16_08h47.24.975,HF_wild_card,2022.2.4,Win32,59.95563283,5ae1e99638df950001454b0e,64d2fd46c836a06233681665,64dc7ea2eb61e76232e2ecd0,,,,,,,decisionTrl,resources/DR.BMP,resources/DG.BMP,Door2,0.145833333,0.013020833,1,0,0,1.0369,optionRight,40,170,1,2,0,2,0,1,,,,,,,,,,,,,,,,,,,,,,,,,,,,,,,,,,,,,,,
,,,,,,,5ae1e99638df950001454b0e,2023-08-16_08h47.24.975,HF_wild_card,2022.2.4,Win32,59.95563283,5ae1e99638df950001454b0e,64d2fd46c836a06233681665,64dc7ea2eb61e76232e2ecd0,,,,,,,ctch,resources/DR.BMP,resources/DY.BMP,Door1,-0.2265625,-0.036458333,1,0,0,0.6983,optionLeft,30,200,1,3,0,3,0,1,,,,,,,,,,,,,,,,,,,,,,,,,,,,,,,,,,,,,,,
,,,,,,,5ae1e99638df950001454b0e,2023-08-16_08h47.24.975,HF_wild_card,2022.2.4,Win32,59.95563283,5ae1e99638df950001454b0e,64d2fd46c836a06233681665,64dc7ea2eb61e76232e2ecd0,,,,,,,sngl,resources/Empty.png,resources/DBN.BMP,WildCard_Ex,-0.165364583,-0.0390625,1,0,0,0.6494,optionRight,5,205,1,4,0,4,0,1,,,,,,,,,,,,,,,,,,,,,,,,,,,,,,,,,,,,,,,
,,,,,,,5ae1e99638df950001454b0e,2023-08-16_08h47.24.975,HF_wild_card,2022.2.4,Win32,59.95563283,5ae1e99638df950001454b0e,64d2fd46c836a06233681665,64dc7ea2eb61e76232e2ecd0,,,,,,,decisionTrl,resources/DB.BMP,resources/DY.BMP,Door3,-0.173177083,-0.0234375,1,0,0,0.7686,optionLeft,70,275,1,5,0,5,0,1,,,,,,,,,,,,,,,,,,,,,,,,,,,,,,,,,,,,,,,
,,,,,,,5ae1e99638df950001454b0e,2023-08-16_08h47.24.975,HF_wild_card,2022.2.4,Win32,59.95563283,5ae1e99638df950001454b0e,64d2fd46c836a06233681665,64dc7ea2eb61e76232e2ecd0,,,,,,,sngl,resources/Empty.png,resources/DY.BMP,Door4,0.375,0.02734375,1,0,0,0.8251,optionRight,60,335,1,6,0,6,0,1,,,,,,,,,,,,,,,,,,,,,,,,,,,,,,,,,,,,,,,
,,,,,,,5ae1e99638df950001454b0e,2023-08-16_08h47.24.975,HF_wild_card,2022.2.4,Win32,59.95563283,5ae1e99638df950001454b0e,64d2fd46c836a06233681665,64dc7ea2eb61e76232e2ecd0,,,,,,,ctch,resources/DG.BMP,resources/DB.BMP,Door2,-0.154947917,0.009114583,1,0,0,0.6582,optionLeft,40,375,1,7,0,7,0,1,,,,,,,,,,,,,,,,,,,,,,,,,,,,,,,,,,,,,,,
,,,,,,,5ae1e99638df950001454b0e,2023-08-16_08h47.24.975,HF_wild_card,2022.2.4,Win32,59.95563283,5ae1e99638df950001454b0e,64d2fd46c836a06233681665,64dc7ea2eb61e76232e2ecd0,,,,,,,decisionTrl,resources/DY.BMP,resources/DB.BMP,Door4,-0.036458333,0.01953125,1,0,0,2.2284,optionLeft,80,455,1,8,0,8,0,1,,,,,,,,,,,,,,,,,,,,,,,,,,,,,,,,,,,,,,,
,,,,,,,5ae1e99638df950001454b0e,2023-08-16_08h47.24.975,HF_wild_card,2022.2.4,Win32,59.95563283,5ae1e99638df950001454b0e,64d2fd46c836a06233681665,64dc7ea2eb61e76232e2ecd0,,,,,,,decisionTrl,resources/DY.BMP,resources/DB.BMP,Door4,-0.15625,-0.010416667,1,0,0,0.768,optionLeft,60,515,1,9,0,9,0,1,,,,,,,,,,,,,,,,,,,,,,,,,,,,,,,,,,,,,,,
,,,,,,,5ae1e99638df950001454b0e,2023-08-16_08h47.24.975,HF_wild_card,2022.2.4,Win32,59.95563283,5ae1e99638df950001454b0e,64d2fd46c836a06233681665,64dc7ea2eb61e76232e2ecd0,,,,,,,sngl,resources/Empty.png,resources/DBN.BMP,WildCard_Ex,0.221354167,-0.14453125,1,0,0,2.8724,optionRight,95,610,1,10,0,10,0,1,,,,,,,,,,,,,,,,,,,,,,,,,,,,,,,,,,,,,,,
,,,,,,,5ae1e99638df950001454b0e,2023-08-16_08h47.24.975,HF_wild_card,2022.2.4,Win32,59.95563283,5ae1e99638df950001454b0e,64d2fd46c836a06233681665,64dc7ea2eb61e76232e2ecd0,,,,,,,sngl,resources/DBN.BMP,resources/Empty.png,WildCard_Ex,-0.1875,-0.010416667,1,0,0,2.2322,optionLeft,5,615,1,11,0,11,0,1,,,,,,,,,,,,,,,,,,,,,,,,,,,,,,,,,,,,,,,
,,,,,,,5ae1e99638df950001454b0e,2023-08-16_08h47.24.975,HF_wild_card,2022.2.4,Win32,59.95563283,5ae1e99638df950001454b0e,64d2fd46c836a06233681665,64dc7ea2eb61e76232e2ecd0,,,,,,,ctch,resources/DG.BMP,resources/DB.BMP,Door2,-0.130208333,-0.026041667,1,0,0,0.9171,optionLeft,20,635,1,12,0,12,0,1,,,,,,,,,,,,,,,,,,,,,,,,,,,,,,,,,,,,,,,
,,,,,,,5ae1e99638df950001454b0e,2023-08-16_08h47.24.975,HF_wild_card,2022.2.4,Win32,59.95563283,5ae1e99638df950001454b0e,64d2fd46c836a06233681665,64dc7ea2eb61e76232e2ecd0,,,,,,,ctch,resources/DB.BMP,resources/DG.BMP,Door3,-0.11328125,-0.015625,1,0,0,1.0067,optionLeft,70,705,1,13,0,13,0,1,,,,,,,,,,,,,,,,,,,,,,,,,,,,,,,,,,,,,,,
,,,,,,,5ae1e99638df950001454b0e,2023-08-16_08h47.24.975,HF_wild_card,2022.2.4,Win32,59.95563283,5ae1e99638df950001454b0e,64d2fd46c836a06233681665,64dc7ea2eb61e76232e2ecd0,,,,,,,decisionTrl,resources/DY.BMP,resources/DBN.BMP,WildCard_Ex,0.236979167,-0.01953125,1,0,0,0.6371,optionRight,5,710,1,14,0,14,0,1,,,,,,,,,,,,,,,,,,,,,,,,,,,,,,,,,,,,,,,
,,,,,,,5ae1e99638df950001454b0e,2023-08-16_08h47.24.975,HF_wild_card,2022.2.4,Win32,59.95563283,5ae1e99638df950001454b0e,64d2fd46c836a06233681665,64dc7ea2eb61e76232e2ecd0,,,,,,,decisionTrl,resources/DBN.BMP,resources/DR.BMP,WildCard_Ex,-0.149739583,-0.026041667,1,0,0,0.4684,optionLeft,95,805,1,15,0,15,0,1,,,,,,,,,,,,,,,,,,,,,,,,,,,,,,,,,,,,,,,
,,,,,,,5ae1e99638df950001454b0e,2023-08-16_08h47.24.975,HF_wild_card,2022.2.4,Win32,59.95563283,5ae1e99638df950001454b0e,64d2fd46c836a06233681665,64dc7ea2eb61e76232e2ecd0,,,,,,,sngl,resources/DR.BMP,resources/Empty.png,Door1,-0.059895833,-0.00390625,1,0,0,0.3206,optionLeft,30,835,1,16,0,16,0,1,,,,,,,,,,,,,,,,,,,,,,,,,,,,,,,,,,,,,,,
,,,,,,,5ae1e99638df950001454b0e,2023-08-16_08h47.24.975,HF_wild_card,2022.2.4,Win32,59.95563283,5ae1e99638df950001454b0e,64d2fd46c836a06233681665,64dc7ea2eb61e76232e2ecd0,,,,,,,sngl,resources/Empty.png,resources/DR.BMP,Door1,0.166666667,0.009114583,1,0,0,0.6163,optionRight,30,865,1,17,0,17,0,1,,,,,,,,,,,,,,,,,,,,,,,,,,,,,,,,,,,,,,,
,,,,,,,5ae1e99638df950001454b0e,2023-08-16_08h47.24.975,HF_wild_card,2022.2.4,Win32,59.95563283,5ae1e99638df950001454b0e,64d2fd46c836a06233681665,64dc7ea2eb61e76232e2ecd0,,,,,,,decisionTrl,resources/DBN.BMP,resources/DY.BMP,WildCard_Ex,-0.182291667,-0.024739583,1,0,0,0.7243,optionLeft,95,960,1,18,0,18,0,1,,,,,,,,,,,,,,,,,,,,,,,,,,,,,,,,,,,,,,,
,,,,,,,5ae1e99638df950001454b0e,2023-08-16_08h47.24.975,HF_wild_card,2022.2.4,Win32,59.95563283,5ae1e99638df950001454b0e,64d2fd46c836a06233681665,64dc7ea2eb61e76232e2ecd0,,,,,,,sngl,resources/Empty.png,resources/DG.BMP,Door2,0.1796875,-0.0078125,1,0,0,0.5718,optionRight,20,980,1,19,0,19,0,1,,,,,,,,,,,,,,,,,,,,,,,,,,,,,,,,,,,,,,,
,,,,,,,5ae1e99638df950001454b0e,2023-08-16_08h47.24.975,HF_wild_card,2022.2.4,Win32,59.95563283,5ae1e99638df950001454b0e,64d2fd46c836a06233681665,64dc7ea2eb61e76232e2ecd0,,,,,,,decisionTrl,resources/DR.BMP,resources/DBN.BMP,Door1,-0.154947917,-0.010416667,1,0,0,0.4308,optionLeft,30,1010,1,20,0,20,0,1,,,,,,,,,,,,,,,,,,,,,,,,,,,,,,,,,,,,,,,
,,,,,,,5ae1e99638df950001454b0e,2023-08-16_08h47.24.975,HF_wild_card,2022.2.4,Win32,59.95563283,5ae1e99638df950001454b0e,64d2fd46c836a06233681665,64dc7ea2eb61e76232e2ecd0,,,,,,,decisionTrl,resources/DG.BMP,resources/DR.BMP,Door1,0.14453125,-0.024739583,1,0,0,0.3438,optionRight,30,1040,1,21,0,21,0,1,,,,,,,,,,,,,,,,,,,,,,,,,,,,,,,,,,,,,,,
,,,,,,,5ae1e99638df950001454b0e,2023-08-16_08h47.24.975,HF_wild_card,2022.2.4,Win32,59.95563283,5ae1e99638df950001454b0e,64d2fd46c836a06233681665,64dc7ea2eb61e76232e2ecd0,,,,,,,sngl,resources/DBN.BMP,resources/Empty.png,WildCard_Ex,-0.247395833,-0.048177083,1,0,0,0.6726,optionLeft,95,1135,1,22,0,22,0,1,,,,,,,,,,,,,,,,,,,,,,,,,,,,,,,,,,,,,,,
,,,,,,,5ae1e99638df950001454b0e,2023-08-16_08h47.24.975,HF_wild_card,2022.2.4,Win32,59.95563283,5ae1e99638df950001454b0e,64d2fd46c836a06233681665,64dc7ea2eb61e76232e2ecd0,,,,,,,ctch,resources/DB.BMP,resources/DG.BMP,Door2,0.184895833,-0.009114583,1,0,0,0.5379,optionRight,40,1175,1,23,0,23,0,1,,,,,,,,,,,,,,,,,,,,,,,,,,,,,,,,,,,,,,,
,,,,,,,5ae1e99638df950001454b0e,2023-08-16_08h47.24.975,HF_wild_card,2022.2.4,Win32,59.95563283,5ae1e99638df950001454b0e,64d2fd46c836a06233681665,64dc7ea2eb61e76232e2ecd0,,,,,,,decisionTrl,resources/DBN.BMP,resources/DG.BMP,WildCard_Ex,-0.234375,-0.03125,1,0,0,0.4617,optionLeft,95,1270,1,24,0,24,0,1,,,,,,,,,,,,,,,,,,,,,,,,,,,,,,,,,,,,,,,
,,,,,,,5ae1e99638df950001454b0e,2023-08-16_08h47.24.975,HF_wild_card,2022.2.4,Win32,59.95563283,5ae1e99638df950001454b0e,64d2fd46c836a06233681665,64dc7ea2eb61e76232e2ecd0,,,,,,,ctch,resources/DY.BMP,resources/DR.BMP,Door4,-0.123697917,-0.006510417,1,0,0,0.352,optionLeft,80,1350,1,25,0,25,0,1,,,,,,,,,,,,,,,,,,,,,,,,,,,,,,,,,,,,,,,
,,,,,,,5ae1e99638df950001454b0e,2023-08-16_08h47.24.975,HF_wild_card,2022.2.4,Win32,59.95563283,5ae1e99638df950001454b0e,64d2fd46c836a06233681665,64dc7ea2eb61e76232e2ecd0,,,,,,,decisionTrl,resources/DR.BMP,resources/DG.BMP,Door1,-0.17578125,0,1,0,0,0.3433,optionLeft,30,1380,1,26,0,26,0,1,,,,,,,,,,,,,,,,,,,,,,,,,,,,,,,,,,,,,,,
,,,,,,,5ae1e99638df950001454b0e,2023-08-16_08h47.24.975,HF_wild_card,2022.2.4,Win32,59.95563283,5ae1e99638df950001454b0e,64d2fd46c836a06233681665,64dc7ea2eb61e76232e2ecd0,,,,,,,decisionTrl,resources/DB.BMP,resources/DY.BMP,Door3,-0.171875,0,1,0,0,0.3922,optionLeft,70,1450,1,27,0,27,0,1,,,,,,,,,,,,,,,,,,,,,,,,,,,,,,,,,,,,,,,
,,,,,,,5ae1e99638df950001454b0e,2023-08-16_08h47.24.975,HF_wild_card,2022.2.4,Win32,59.95563283,5ae1e99638df950001454b0e,64d2fd46c836a06233681665,64dc7ea2eb61e76232e2ecd0,,,,,,,sngl,resources/DB.BMP,resources/Empty.png,Door3,-0.203125,0.006510417,1,0,0,0.4698,optionLeft,70,1520,1,28,0,28,0,1,,,,,,,,,,,,,,,,,,,,,,,,,,,,,,,,,,,,,,,
,,,,,,,5ae1e99638df950001454b0e,2023-08-16_08h47.24.975,HF_wild_card,2022.2.4,Win32,59.95563283,5ae1e99638df950001454b0e,64d2fd46c836a06233681665,64dc7ea2eb61e76232e2ecd0,,,,,,,decisionTrl,resources/DG.BMP,resources/DBN.BMP,Door2,-0.173177083,-0.01953125,1,0,0,0.4504,optionLeft,40,1560,1,29,0,29,0,1,,,,,,,,,,,,,,,,,,,,,,,,,,,,,,,,,,,,,,,
,,,,,,,5ae1e99638df950001454b0e,2023-08-16_08h47.24.975,HF_wild_card,2022.2.4,Win32,59.95563283,5ae1e99638df950001454b0e,64d2fd46c836a06233681665,64dc7ea2eb61e76232e2ecd0,,,,,,,decisionTrl,resources/DG.BMP,resources/DR.BMP,Door2,-0.08984375,-0.0078125,1,0,0,0.3686,optionLeft,40,1600,1,30,0,30,0,1,,,,,,,,,,,,,,,,,,,,,,,,,,,,,,,,,,,,,,,
,,,,,,,5ae1e99638df950001454b0e,2023-08-16_08h47.24.975,HF_wild_card,2022.2.4,Win32,59.95563283,5ae1e99638df950001454b0e,64d2fd46c836a06233681665,64dc7ea2eb61e76232e2ecd0,,,,,,,decisionTrl,resources/DG.BMP,resources/DR.BMP,Door2,-0.178385417,-0.01953125,1,0,0,0.4182,optionLeft,40,1640,1,31,0,31,0,1,,,,,,,,,,,,,,,,,,,,,,,,,,,,,,,,,,,,,,,
,,,,,,,5ae1e99638df950001454b0e,2023-08-16_08h47.24.975,HF_wild_card,2022.2.4,Win32,59.95563283,5ae1e99638df950001454b0e,64d2fd46c836a06233681665,64dc7ea2eb61e76232e2ecd0,,,,,,,decisionTrl,resources/DBN.BMP,resources/DB.BMP,WildCard_Ex,-0.125,-0.015625,1,0,0,0.4639,optionLeft,95,1735,1,32,0,32,0,1,,,,,,,,,,,,,,,,,,,,,,,,,,,,,,,,,,,,,,,
,,,,,,,5ae1e99638df950001454b0e,2023-08-16_08h47.24.975,HF_wild_card,2022.2.4,Win32,59.95563283,5ae1e99638df950001454b0e,64d2fd46c836a06233681665,64dc7ea2eb61e76232e2ecd0,,,,,,,decisionTrl,resources/DY.BMP,resources/DB.BMP,Door3,0.204427083,-0.001302083,1,0,0,0.3759,optionRight,70,1805,1,33,0,33,0,1,,,,,,,,,,,,,,,,,,,,,,,,,,,,,,,,,,,,,,,
,,,,,,,5ae1e99638df950001454b0e,2023-08-16_08h47.24.975,HF_wild_card,2022.2.4,Win32,59.95563283,5ae1e99638df950001454b0e,64d2fd46c836a06233681665,64dc7ea2eb61e76232e2ecd0,,,,,,,decisionTrl,resources/DG.BMP,resources/DR.BMP,Door1,0.171875,-0.0078125,1,0,0,0.3693,optionRight,30,1835,1,34,0,34,0,1,,,,,,,,,,,,,,,,,,,,,,,,,,,,,,,,,,,,,,,
,,,,,,,5ae1e99638df950001454b0e,2023-08-16_08h47.24.975,HF_wild_card,2022.2.4,Win32,59.95563283,5ae1e99638df950001454b0e,64d2fd46c836a06233681665,64dc7ea2eb61e76232e2ecd0,,,,,,,decisionTrl,resources/DB.BMP,resources/DY.BMP,Door4,0.192708333,-0.009114583,1,0,0,0.4233,optionRight,60,1895,1,35,0,35,0,1,,,,,,,,,,,,,,,,,,,,,,,,,,,,,,,,,,,,,,,
,,,,,,,5ae1e99638df950001454b0e,2023-08-16_08h47.24.975,HF_wild_card,2022.2.4,Win32,59.95563283,5ae1e99638df950001454b0e,64d2fd46c836a06233681665,64dc7ea2eb61e76232e2ecd0,,,,,,,decisionTrl,resources/DB.BMP,resources/DY.BMP,Door4,0.174479167,-0.0234375,1,0,0,0.4942,optionRight,60,1955,1,36,0,36,0,1,,,,,,,,,,,,,,,,,,,,,,,,,,,,,,,,,,,,,,,
,,,,,,,5ae1e99638df950001454b0e,2023-08-16_08h47.24.975,HF_wild_card,2022.2.4,Win32,59.95563283,5ae1e99638df950001454b0e,64d2fd46c836a06233681665,64dc7ea2eb61e76232e2ecd0,,,,,,,sngl,resources/Empty.png,resources/DB.BMP,Door3,0.161458333,-0.015625,1,0,0,0.3859,optionRight,70,2025,1,37,0,37,0,1,,,,,,,,,,,,,,,,,,,,,,,,,,,,,,,,,,,,,,,
,,,,,,,5ae1e99638df950001454b0e,2023-08-16_08h47.24.975,HF_wild_card,2022.2.4,Win32,59.95563283,5ae1e99638df950001454b0e,64d2fd46c836a06233681665,64dc7ea2eb61e76232e2ecd0,,,,,,,ctch,resources/DY.BMP,resources/DR.BMP,Door4,-0.147135417,0.001302083,1,0,0,0.5516,optionLeft,80,2105,1,38,0,38,0,1,,,,,,,,,,,,,,,,,,,,,,,,,,,,,,,,,,,,,,,
,,,,,,,5ae1e99638df950001454b0e,2023-08-16_08h47.24.975,HF_wild_card,2022.2.4,Win32,59.95563283,5ae1e99638df950001454b0e,64d2fd46c836a06233681665,64dc7ea2eb61e76232e2ecd0,,,,,,,decisionTrl,resources/DY.BMP,resources/DB.BMP,Door4,-0.171875,0.024739583,1,0,0,0.3948,optionLeft,60,2165,1,39,0,39,0,1,,,,,,,,,,,,,,,,,,,,,,,,,,,,,,,,,,,,,,,
,,,,,,,5ae1e99638df950001454b0e,2023-08-16_08h47.24.975,HF_wild_card,2022.2.4,Win32,59.95563283,5ae1e99638df950001454b0e,64d2fd46c836a06233681665,64dc7ea2eb61e76232e2ecd0,,,,,,,decisionTrl,resources/DR.BMP,resources/DG.BMP,Door1,-0.16015625,0.00390625,1,0,0,0.4553,optionLeft,30,2195,1,40,0,40,0,1,,,,,,,,,,,,,,,,,,,,,,,,,,,,,,,,,,,,,,,
,,,,,,,5ae1e99638df950001454b0e,2023-08-16_08h47.24.975,HF_wild_card,2022.2.4,Win32,59.95563283,5ae1e99638df950001454b0e,64d2fd46c836a06233681665,64dc7ea2eb61e76232e2ecd0,,,,,,,decisionTrl,resources/DR.BMP,resources/DG.BMP,Door1,-0.1640625,0.00390625,1,0,0,0.4184,optionLeft,30,2225,1,41,0,41,0,1,,,,,,,,,,,,,,,,,,,,,,,,,,,,,,,,,,,,,,,
,,,,,,,5ae1e99638df950001454b0e,2023-08-16_08h47.24.975,HF_wild_card,2022.2.4,Win32,59.95563283,5ae1e99638df950001454b0e,64d2fd46c836a06233681665,64dc7ea2eb61e76232e2ecd0,,,,,,,sngl,resources/DG.BMP,resources/Empty.png,Door2,0.21875,-0.040364583,1,0,0,0.3672,optionLeft,40,2265,1,42,0,42,0,1,,,,,,,,,,,,,,,,,,,,,,,,,,,,,,,,,,,,,,,
,,,,,,,5ae1e99638df950001454b0e,2023-08-16_08h47.24.975,HF_wild_card,2022.2.4,Win32,59.95563283,5ae1e99638df950001454b0e,64d2fd46c836a06233681665,64dc7ea2eb61e76232e2ecd0,,,,,,,sngl,resources/DY.BMP,resources/Empty.png,Door4,-0.076822917,-0.03515625,1,0,0,0.6142,optionLeft,80,2345,1,43,0,43,0,1,,,,,,,,,,,,,,,,,,,,,,,,,,,,,,,,,,,,,,,
,,,,,,,5ae1e99638df950001454b0e,2023-08-16_08h47.24.975,HF_wild_card,2022.2.4,Win32,59.95563283,5ae1e99638df950001454b0e,64d2fd46c836a06233681665,64dc7ea2eb61e76232e2ecd0,,,,,,,,,,,,,,,,,,,,,,,,,,0,0,0,0,1,,,,,,,,,,,,,,,,,,,,,,,,,,,,,,,,,,
,,,,,,,5ae1e99638df950001454b0e,2023-08-16_08h47.24.975,HF_wild_card,2022.2.4,Win32,59.95563283,5ae1e99638df950001454b0e,64d2fd46c836a06233681665,64dc7ea2eb61e76232e2ecd0,,,,,,,sngl,resources/Empty.png,resources/DY.BMP,Door4,0.243489583,-0.115885417,1,0,0,0.8159,optionRight,80,2425,2,0,0,0,0,1,,,,,,,,,,,,,,,,,,,,,,,,,,,,,,,,,,,,,,,
,,,,,,,5ae1e99638df950001454b0e,2023-08-16_08h47.24.975,HF_wild_card,2022.2.4,Win32,59.95563283,5ae1e99638df950001454b0e,64d2fd46c836a06233681665,64dc7ea2eb61e76232e2ecd0,,,,,,,ctch,resources/DY.BMP,resources/DR.BMP,Door4,-0.079427083,0.1015625,1,0,0,9.2454,optionLeft,80,2505,2,1,0,1,0,1,,,,,,,,,,,,,,,,,,,,,,,,,,,,,,,,,,,,,,,
,,,,,,,5ae1e99638df950001454b0e,2023-08-16_08h47.24.975,HF_wild_card,2022.2.4,Win32,59.95563283,5ae1e99638df950001454b0e,64d2fd46c836a06233681665,64dc7ea2eb61e76232e2ecd0,,,,,,,decisionTrl,resources/DY.BMP,resources/DBN.BMP,WildCard_Ex,0.247395833,-0.059895833,1,0,0,1.723,optionRight,95,2600,2,2,0,2,0,1,,,,,,,,,,,,,,,,,,,,,,,,,,,,,,,,,,,,,,,
,,,,,,,5ae1e99638df950001454b0e,2023-08-16_08h47.24.975,HF_wild_card,2022.2.4,Win32,59.95563283,5ae1e99638df950001454b0e,64d2fd46c836a06233681665,64dc7ea2eb61e76232e2ecd0,,,,,,,decisionTrl,resources/DR.BMP,resources/DG.BMP,Door1,-0.25,-0.036458333,1,0,0,0.4592,optionLeft,30,2630,2,3,0,3,0,1,,,,,,,,,,,,,,,,,,,,,,,,,,,,,,,,,,,,,,,
,,,,,,,5ae1e99638df950001454b0e,2023-08-16_08h47.24.975,HF_wild_card,2022.2.4,Win32,59.95563283,5ae1e99638df950001454b0e,64d2fd46c836a06233681665,64dc7ea2eb61e76232e2ecd0,,,,,,,sngl,resources/Empty.png,resources/DG.BMP,Door2,0.111979167,-0.005208333,1,0,0,0.3679,optionRight,40,2670,2,4,0,4,0,1,,,,,,,,,,,,,,,,,,,,,,,,,,,,,,,,,,,,,,,
,,,,,,,5ae1e99638df950001454b0e,2023-08-16_08h47.24.975,HF_wild_card,2022.2.4,Win32,59.95563283,5ae1e99638df950001454b0e,64d2fd46c836a06233681665,64dc7ea2eb61e76232e2ecd0,,,,,,,decisionTrl,resources/DBN.BMP,resources/DR.BMP,Door1,0.217447917,0.001302083,1,0,0,0.4171,optionRight,30,2700,2,5,0,5,0,1,,,,,,,,,,,,,,,,,,,,,,,,,,,,,,,,,,,,,,,
,,,,,,,5ae1e99638df950001454b0e,2023-08-16_08h47.24.975,HF_wild_card,2022.2.4,Win32,59.95563283,5ae1e99638df950001454b0e,64d2fd46c836a06233681665,64dc7ea2eb61e76232e2ecd0,,,,,,,decisionTrl,resources/DBN.BMP,resources/DB.BMP,WildCard_Ex,-0.33203125,-0.03125,1,0,0,0.351,optionLeft,5,2705,2,6,0,6,0,1,,,,,,,,,,,,,,,,,,,,,,,,,,,,,,,,,,,,,,,
,,,,,,,5ae1e99638df950001454b0e,2023-08-16_08h47.24.975,HF_wild_card,2022.2.4,Win32,59.95563283,5ae1e99638df950001454b0e,64d2fd46c836a06233681665,64dc7ea2eb61e76232e2ecd0,,,,,,,ctch,resources/DY.BMP,resources/DR.BMP,Door4,-0.2890625,-0.057291667,1,0,0,0.3133,optionLeft,80,2785,2,7,0,7,0,1,,,,,,,,,,,,,,,,,,,,,,,,,,,,,,,,,,,,,,,
,,,,,,,5ae1e99638df950001454b0e,2023-08-16_08h47.24.975,HF_wild_card,2022.2.4,Win32,59.95563283,5ae1e99638df950001454b0e,64d2fd46c836a06233681665,64dc7ea2eb61e76232e2ecd0,,,,,,,decisionTrl,resources/DG.BMP,resources/DR.BMP,Door2,-0.264322917,-0.03125,1,0,0,0.4259,optionLeft,20,2805,2,8,0,8,0,1,,,,,,,,,,,,,,,,,,,,,,,,,,,,,,,,,,,,,,,
,,,,,,,5ae1e99638df950001454b0e,2023-08-16_08h47.24.975,HF_wild_card,2022.2.4,Win32,59.95563283,5ae1e99638df950001454b0e,64d2fd46c836a06233681665,64dc7ea2eb61e76232e2ecd0,,,,,,,decisionTrl,resources/DB.BMP,resources/DBN.BMP,Door3,-0.278645833,-0.036458333,1,0,0,0.3374,optionLeft,70,2875,2,9,0,9,0,1,,,,,,,,,,,,,,,,,,,,,,,,,,,,,,,,,,,,,,,
,,,,,,,5ae1e99638df950001454b0e,2023-08-16_08h47.24.975,HF_wild_card,2022.2.4,Win32,59.95563283,5ae1e99638df950001454b0e,64d2fd46c836a06233681665,64dc7ea2eb61e76232e2ecd0,,,,,,,sngl,resources/DG.BMP,resources/Empty.png,Door2,-0.278645833,-0.002604167,1,0,0,0.4515,optionLeft,20,2895,2,10,0,10,0,1,,,,,,,,,,,,,,,,,,,,,,,,,,,,,,,,,,,,,,,
,,,,,,,5ae1e99638df950001454b0e,2023-08-16_08h47.24.975,HF_wild_card,2022.2.4,Win32,59.95563283,5ae1e99638df950001454b0e,64d2fd46c836a06233681665,64dc7ea2eb61e76232e2ecd0,,,,,,,decisionTrl,resources/DY.BMP,resources/DB.BMP,Door3,0.21875,-0.036458333,1,0,0,0.4393,optionRight,70,2965,2,11,0,11,0,1,,,,,,,,,,,,,,,,,,,,,,,,,,,,,,,,,,,,,,,
,,,,,,,5ae1e99638df950001454b0e,2023-08-16_08h47.24.975,HF_wild_card,2022.2.4,Win32,59.95563283,5ae1e99638df950001454b0e,64d2fd46c836a06233681665,64dc7ea2eb61e76232e2ecd0,,,,,,,sngl,resources/DBN.BMP,resources/Empty.png,WildCard_Ex,-0.157552083,-0.01171875,1,0,0,0.3985,optionLeft,95,3060,2,12,0,12,0,1,,,,,,,,,,,,,,,,,,,,,,,,,,,,,,,,,,,,,,,
,,,,,,,5ae1e99638df950001454b0e,2023-08-16_08h47.24.975,HF_wild_card,2022.2.4,Win32,59.95563283,5ae1e99638df950001454b0e,64d2fd46c836a06233681665,64dc7ea2eb61e76232e2ecd0,,,,,,,decisionTrl,resources/DG.BMP,resources/DR.BMP,Door2,-0.243489583,-0.00390625,1,0,0,0.3508,optionLeft,40,3100,2,13,0,13,0,1,,,,,,,,,,,,,,,,,,,,,,,,,,,,,,,,,,,,,,,
,,,,,,,5ae1e99638df950001454b0e,2023-08-16_08h47.24.975,HF_wild_card,2022.2.4,Win32,59.95563283,5ae1e99638df950001454b0e,64d2fd46c836a06233681665,64dc7ea2eb61e76232e2ecd0,,,,,,,decisionTrl,resources/DB.BMP,resources/DY.BMP,Door3,-0.177083333,-0.018229167,1,0,0,0.4426,optionLeft,70,3170,2,14,0,14,0,1,,,,,,,,,,,,,,,,,,,,,,,,,,,,,,,,,,,,,,,
,,,,,,,5ae1e99638df950001454b0e,2023-08-16_08h47.24.975,HF_wild_card,2022.2.4,Win32,59.95563283,5ae1e99638df950001454b0e,64d2fd46c836a06233681665,64dc7ea2eb61e76232e2ecd0,,,,,,,decisionTrl,resources/DR.BMP,resources/DG.BMP,Door1,-0.229166667,-0.00390625,1,0,0,0.5257,optionLeft,30,3200,2,15,0,15,0,1,,,,,,,,,,,,,,,,,,,,,,,,,,,,,,,,,,,,,,,
,,,,,,,5ae1e99638df950001454b0e,2023-08-16_08h47.24.975,HF_wild_card,2022.2.4,Win32,59.95563283,5ae1e99638df950001454b0e,64d2fd46c836a06233681665,64dc7ea2eb61e76232e2ecd0,,,,,,,decisionTrl,resources/DB.BMP,resources/DY.BMP,Door4,0.15625,-0.0234375,1,0,0,0.3535,optionRight,60,3260,2,16,0,16,0,1,,,,,,,,,,,,,,,,,,,,,,,,,,,,,,,,,,,,,,,
,,,,,,,5ae1e99638df950001454b0e,2023-08-16_08h47.24.975,HF_wild_card,2022.2.4,Win32,59.95563283,5ae1e99638df950001454b0e,64d2fd46c836a06233681665,64dc7ea2eb61e76232e2ecd0,,,,,,,decisionTrl,resources/DBN.BMP,resources/DY.BMP,Door4,0.18359375,-0.040364583,1,0,0,0.3885,optionRight,60,3320,2,17,0,17,0,1,,,,,,,,,,,,,,,,,,,,,,,,,,,,,,,,,,,,,,,
,,,,,,,5ae1e99638df950001454b0e,2023-08-16_08h47.24.975,HF_wild_card,2022.2.4,Win32,59.95563283,5ae1e99638df950001454b0e,64d2fd46c836a06233681665,64dc7ea2eb61e76232e2ecd0,,,,,,,decisionTrl,resources/DY.BMP,resources/DB.BMP,Door4,-0.153645833,-0.0234375,1,0,0,0.3472,optionLeft,60,3380,2,18,0,18,0,1,,,,,,,,,,,,,,,,,,,,,,,,,,,,,,,,,,,,,,,
,,,,,,,5ae1e99638df950001454b0e,2023-08-16_08h47.24.975,HF_wild_card,2022.2.4,Win32,59.95563283,5ae1e99638df950001454b0e,64d2fd46c836a06233681665,64dc7ea2eb61e76232e2ecd0,,,,,,,decisionTrl,resources/DY.BMP,resources/DB.BMP,Door4,-0.154947917,-0.00390625,1,0,0,0.4295,optionLeft,80,3460,2,19,0,19,0,1,,,,,,,,,,,,,,,,,,,,,,,,,,,,,,,,,,,,,,,
,,,,,,,5ae1e99638df950001454b0e,2023-08-16_08h47.24.975,HF_wild_card,2022.2.4,Win32,59.95563283,5ae1e99638df950001454b0e,64d2fd46c836a06233681665,64dc7ea2eb61e76232e2ecd0,,,,,,,decisionTrl,resources/DG.BMP,resources/DR.BMP,Door2,-0.256510417,-0.020833333,1,0,0,0.4514,optionLeft,20,3480,2,20,0,20,0,1,,,,,,,,,,,,,,,,,,,,,,,,,,,,,,,,,,,,,,,
,,,,,,,5ae1e99638df950001454b0e,2023-08-16_08h47.24.975,HF_wild_card,2022.2.4,Win32,59.95563283,5ae1e99638df950001454b0e,64d2fd46c836a06233681665,64dc7ea2eb61e76232e2ecd0,,,,,,,decisionTrl,resources/DB.BMP,resources/DY.BMP,Door3,-0.1640625,-0.036458333,1,0,0,0.4833,optionLeft,70,3550,2,21,0,21,0,1,,,,,,,,,,,,,,,,,,,,,,,,,,,,,,,,,,,,,,,
,,,,,,,5ae1e99638df950001454b0e,2023-08-16_08h47.24.975,HF_wild_card,2022.2.4,Win32,59.95563283,5ae1e99638df950001454b0e,64d2fd46c836a06233681665,64dc7ea2eb61e76232e2ecd0,,,,,,,sngl,resources/DR.BMP,resources/Empty.png,Door1,0.346354167,-0.0625,1,0,0,0.6568,optionLeft,30,3580,2,22,0,22,0,1,,,,,,,,,,,,,,,,,,,,,,,,,,,,,,,,,,,,,,,
,,,,,,,5ae1e99638df950001454b0e,2023-08-16_08h47.24.975,HF_wild_card,2022.2.4,Win32,59.95563283,5ae1e99638df950001454b0e,64d2fd46c836a06233681665,64dc7ea2eb61e76232e2ecd0,,,,,,,decisionTrl,resources/DG.BMP,resources/DBN.BMP,WildCard_Ex,0.3125,-0.03125,1,0,0,0.4221,optionRight,5,3585,2,23,0,23,0,1,,,,,,,,,,,,,,,,,,,,,,,,,,,,,,,,,,,,,,,
,,,,,,,5ae1e99638df950001454b0e,2023-08-16_08h47.24.975,HF_wild_card,2022.2.4,Win32,59.95563283,5ae1e99638df950001454b0e,64d2fd46c836a06233681665,64dc7ea2eb61e76232e2ecd0,,,,,,,sngl,resources/Empty.png,resources/DR.BMP,Door1,-0.15625,-0.016927083,1,0,0,0.4091,optionRight,30,3615,2,24,0,24,0,1,,,,,,,,,,,,,,,,,,,,,,,,,,,,,,,,,,,,,,,
,,,,,,,5ae1e99638df950001454b0e,2023-08-16_08h47.24.975,HF_wild_card,2022.2.4,Win32,59.95563283,5ae1e99638df950001454b0e,64d2fd46c836a06233681665,64dc7ea2eb61e76232e2ecd0,,,,,,,sngl,resources/Empty.png,resources/DB.BMP,Door3,-0.138020833,-0.01171875,1,0,0,0.3537,optionRight,70,3685,2,25,0,25,0,1,,,,,,,,,,,,,,,,,,,,,,,,,,,,,,,,,,,,,,,
,,,,,,,5ae1e99638df950001454b0e,2023-08-16_08h47.24.975,HF_wild_card,2022.2.4,Win32,59.95563283,5ae1e99638df950001454b0e,64d2fd46c836a06233681665,64dc7ea2eb61e76232e2ecd0,,,,,,,ctch,resources/DR.BMP,resources/DY.BMP,Door1,-0.053385417,-0.001302083,1,0,0,25.0302,optionLeft,30,3715,2,26,0,26,0,1,,,,,,,,,,,,,,,,,,,,,,,,,,,,,,,,,,,,,,,
,,,,,,,5ae1e99638df950001454b0e,2023-08-16_08h47.24.975,HF_wild_card,2022.2.4,Win32,59.95563283,5ae1e99638df950001454b0e,64d2fd46c836a06233681665,64dc7ea2eb61e76232e2ecd0,,,,,,,decisionTrl,resources/DR.BMP,resources/DBN.BMP,WildCard_Ex,0.2890625,0.010416667,1,0,0,0.4079,optionRight,95,3810,2,27,0,27,0,1,,,,,,,,,,,,,,,,,,,,,,,,,,,,,,,,,,,,,,,
,,,,,,,5ae1e99638df950001454b0e,2023-08-16_08h47.24.975,HF_wild_card,2022.2.4,Win32,59.95563283,5ae1e99638df950001454b0e,64d2fd46c836a06233681665,64dc7ea2eb61e76232e2ecd0,,,,,,,sngl,resources/DY.BMP,resources/Empty.png,Door4,-0.1484375,0.002604167,1,0,0,0.4124,optionLeft,60,3870,2,28,0,28,0,1,,,,,,,,,,,,,,,,,,,,,,,,,,,,,,,,,,,,,,,
,,,,,,,5ae1e99638df950001454b0e,2023-08-16_08h47.24.975,HF_wild_card,2022.2.4,Win32,59.95563283,5ae1e99638df950001454b0e,64d2fd46c836a06233681665,64dc7ea2eb61e76232e2ecd0,,,,,,,decisionTrl,resources/DY.BMP,resources/DB.BMP,Door3,0.298177083,-0.013020833,1,0,0,0.4472,optionRight,70,3940,2,29,0,29,0,1,,,,,,,,,,,,,,,,,,,,,,,,,,,,,,,,,,,,,,,
,,,,,,,5ae1e99638df950001454b0e,2023-08-16_08h47.24.975,HF_wild_card,2022.2.4,Win32,59.95563283,5ae1e99638df950001454b0e,64d2fd46c836a06233681665,64dc7ea2eb61e76232e2ecd0,,,,,,,ctch,resources/DB.BMP,resources/DG.BMP,Door3,-0.236979167,0.002604167,1,0,0,0.4207,optionLeft,70,4010,2,30,0,30,0,1,,,,,,,,,,,,,,,,,,,,,,,,,,,,,,,,,,,,,,,
,,,,,,,5ae1e99638df950001454b0e,2023-08-16_08h47.24.975,HF_wild_card,2022.2.4,Win32,59.95563283,5ae1e99638df950001454b0e,64d2fd46c836a06233681665,64dc7ea2eb61e76232e2ecd0,,,,,,,sngl,resources/Empty.png,resources/DBN.BMP,WildCard_Ex,0.158854167,0.016927083,1,0,0,0.5099,optionRight,95,4105,2,31,0,31,0,1,,,,,,,,,,,,,,,,,,,,,,,,,,,,,,,,,,,,,,,
,,,,,,,5ae1e99638df950001454b0e,2023-08-16_08h47.24.975,HF_wild_card,2022.2.4,Win32,59.95563283,5ae1e99638df950001454b0e,64d2fd46c836a06233681665,64dc7ea2eb61e76232e2ecd0,,,,,,,decisionTrl,resources/DG.BMP,resources/DR.BMP,Door2,-0.15625,-0.01171875,1,0,0,0.3335,optionLeft,20,4125,2,32,0,32,0,1,,,,,,,,,,,,,,,,,,,,,,,,,,,,,,,,,,,,,,,
,,,,,,,5ae1e99638df950001454b0e,2023-08-16_08h47.24.975,HF_wild_card,2022.2.4,Win32,59.95563283,5ae1e99638df950001454b0e,64d2fd46c836a06233681665,64dc7ea2eb61e76232e2ecd0,,,,,,,ctch,resources/DG.BMP,resources/DB.BMP,Door3,0.243489583,-0.0390625,1,0,0,0.4288,optionRight,70,4195,2,33,0,33,0,1,,,,,,,,,,,,,,,,,,,,,,,,,,,,,,,,,,,,,,,
,,,,,,,5ae1e99638df950001454b0e,2023-08-16_08h47.24.975,HF_wild_card,2022.2.4,Win32,59.95563283,5ae1e99638df950001454b0e,64d2fd46c836a06233681665,64dc7ea2eb61e76232e2ecd0,,,,,,,decisionTrl,resources/DR.BMP,resources/DG.BMP,Door2,0.24609375,-0.029947917,1,0,0,0.4266,optionRight,20,4215,2,34,0,34,0,1,,,,,,,,,,,,,,,,,,,,,,,,,,,,,,,,,,,,,,,
,,,,,,,5ae1e99638df950001454b0e,2023-08-16_08h47.24.975,HF_wild_card,2022.2.4,Win32,59.95563283,5ae1e99638df950001454b0e,64d2fd46c836a06233681665,64dc7ea2eb61e76232e2ecd0,,,,,,,decisionTrl,resources/DB.BMP,resources/DY.BMP,Door3,-0.134114583,-0.02734375,1,0,0,0.4635,optionLeft,70,4285,2,35,0,35,0,1,,,,,,,,,,,,,,,,,,,,,,,,,,,,,,,,,,,,,,,
,,,,,,,5ae1e99638df950001454b0e,2023-08-16_08h47.24.975,HF_wild_card,2022.2.4,Win32,59.95563283,5ae1e99638df950001454b0e,64d2fd46c836a06233681665,64dc7ea2eb61e76232e2ecd0,,,,,,,decisionTrl,resources/DR.BMP,resources/DG.BMP,Door2,0.21484375,-0.04296875,1,0,0,0.36,optionRight,40,4325,2,36,0,36,0,1,,,,,,,,,,,,,,,,,,,,,,,,,,,,,,,,,,,,,,,
,,,,,,,5ae1e99638df950001454b0e,2023-08-16_08h47.24.975,HF_wild_card,2022.2.4,Win32,59.95563283,5ae1e99638df950001454b0e,64d2fd46c836a06233681665,64dc7ea2eb61e76232e2ecd0,,,,,,,ctch,resources/DG.BMP,resources/DB.BMP,Door2,-0.208333333,-0.00390625,1,0,0,0.4095,optionLeft,40,4365,2,37,0,37,0,1,,,,,,,,,,,,,,,,,,,,,,,,,,,,,,,,,,,,,,,
,,,,,,,5ae1e99638df950001454b0e,2023-08-16_08h47.24.975,HF_wild_card,2022.2.4,Win32,59.95563283,5ae1e99638df950001454b0e,64d2fd46c836a06233681665,64dc7ea2eb61e76232e2ecd0,,,,,,,ctch,resources/DR.BMP,resources/DY.BMP,Door4,0.209635417,-0.055989583,1,0,0,0.3874,optionRight,60,4425,2,38,0,38,0,1,,,,,,,,,,,,,,,,,,,,,,,,,,,,,,,,,,,,,,,
,,,,,,,5ae1e99638df950001454b0e,2023-08-16_08h47.24.975,HF_wild_card,2022.2.4,Win32,59.95563283,5ae1e99638df950001454b0e,64d2fd46c836a06233681665,64dc7ea2eb61e76232e2ecd0,,,,,,,sngl,resources/DB.BMP,resources/Empty.png,Door3,-0.151041667,0.009114583,1,0,0,0.4416,optionLeft,70,4495,2,39,0,39,0,1,,,,,,,,,,,,,,,,,,,,,,,,,,,,,,,,,,,,,,,
,,,,,,,5ae1e99638df950001454b0e,2023-08-16_08h47.24.975,HF_wild_card,2022.2.4,Win32,59.95563283,5ae1e99638df950001454b0e,64d2fd46c836a06233681665,64dc7ea2eb61e76232e2ecd0,,,,,,,sngl,resources/DBN.BMP,resources/Empty.png,WildCard_Ex,0.135416667,-0.010416667,1,0,0,0.5962,optionLeft,5,4500,2,40,0,40,0,1,,,,,,,,,,,,,,,,,,,,,,,,,,,,,,,,,,,,,,,
,,,,,,,5ae1e99638df950001454b0e,2023-08-16_08h47.24.975,HF_wild_card,2022.2.4,Win32,59.95563283,5ae1e99638df950001454b0e,64d2fd46c836a06233681665,64dc7ea2eb61e76232e2ecd0,,,,,,,ctch,resources/DB.BMP,resources/DG.BMP,Door2,0.234375,0,1,0,0,0.45,optionRight,40,4540,2,41,0,41,0,1,,,,,,,,,,,,,,,,,,,,,,,,,,,,,,,,,,,,,,,
,,,,,,,5ae1e99638df950001454b0e,2023-08-16_08h47.24.975,HF_wild_card,2022.2.4,Win32,59.95563283,5ae1e99638df950001454b0e,64d2fd46c836a06233681665,64dc7ea2eb61e76232e2ecd0,,,,,,,decisionTrl,resources/DBN.BMP,resources/DG.BMP,WildCard_Ex,-0.247395833,0.067708333,1,0,0,1.5564,optionLeft,95,4635,2,42,0,42,0,1,,,,,,,,,,,,,,,,,,,,,,,,,,,,,,,,,,,,,,,
,,,,,,,5ae1e99638df950001454b0e,2023-08-16_08h47.24.975,HF_wild_card,2022.2.4,Win32,59.95563283,5ae1e99638df950001454b0e,64d2fd46c836a06233681665,64dc7ea2eb61e76232e2ecd0,,,,,,,sngl,resources/Empty.png,resources/DBN.BMP,WildCard_Ex,-0.201822917,0.028645833,1,0,0,0.3003,optionRight,5,4640,2,43,0,43,0,1,,,,,,,,,,,,,,,,,,,,,,,,,,,,,,,,,,,,,,,
,,,,,,,5ae1e99638df950001454b0e,2023-08-16_08h47.24.975,HF_wild_card,2022.2.4,Win32,59.95563283,5ae1e99638df950001454b0e,64d2fd46c836a06233681665,64dc7ea2eb61e76232e2ecd0,,,,,,,,,,,,,,,,,,,,,,,,,,1,0,1,0,1,,,,,,,,,,,,,,,,,,,,,,,,,,,,,,,,,,
,,,,,,,5ae1e99638df950001454b0e,2023-08-16_08h47.24.975,HF_wild_card,2022.2.4,Win32,59.95563283,5ae1e99638df950001454b0e,64d2fd46c836a06233681665,64dc7ea2eb61e76232e2ecd0,,,,,,,ctch,resources/DY.BMP,resources/DR.BMP,Door4,-0.1328125,-0.001302083,1,0,0,0.8482,optionLeft,80,4720,3,0,0,0,0,1,,,,,,,,,,,,,,,,,,,,,,,,,,,,,,,,,,,,,,,
,,,,,,,5ae1e99638df950001454b0e,2023-08-16_08h47.24.975,HF_wild_card,2022.2.4,Win32,59.95563283,5ae1e99638df950001454b0e,64d2fd46c836a06233681665,64dc7ea2eb61e76232e2ecd0,,,,,,,decisionTrl,resources/DB.BMP,resources/DY.BMP,Door4,0.16796875,0.009114583,1,0,0,0.4122,optionRight,60,4780,3,1,0,1,0,1,,,,,,,,,,,,,,,,,,,,,,,,,,,,,,,,,,,,,,,
,,,,,,,5ae1e99638df950001454b0e,2023-08-16_08h47.24.975,HF_wild_card,2022.2.4,Win32,59.95563283,5ae1e99638df950001454b0e,64d2fd46c836a06233681665,64dc7ea2eb61e76232e2ecd0,,,,,,,decisionTrl,resources/DB.BMP,resources/DY.BMP,Door3,-0.178385417,-0.022135417,1,0,0,0.4515,optionLeft,70,4850,3,2,0,2,0,1,,,,,,,,,,,,,,,,,,,,,,,,,,,,,,,,,,,,,,,
,,,,,,,5ae1e99638df950001454b0e,2023-08-16_08h47.24.975,HF_wild_card,2022.2.4,Win32,59.95563283,5ae1e99638df950001454b0e,64d2fd46c836a06233681665,64dc7ea2eb61e76232e2ecd0,,,,,,,decisionTrl,resources/DG.BMP,resources/DR.BMP,Door2,-0.149739583,-0.002604167,1,0,0,0.4036,optionLeft,40,4890,3,3,0,3,0,1,,,,,,,,,,,,,,,,,,,,,,,,,,,,,,,,,,,,,,,
,,,,,,,5ae1e99638df950001454b0e,2023-08-16_08h47.24.975,HF_wild_card,2022.2.4,Win32,59.95563283,5ae1e99638df950001454b0e,64d2fd46c836a06233681665,64dc7ea2eb61e76232e2ecd0,,,,,,,decisionTrl,resources/DR.BMP,resources/DBN.BMP,WildCard_Ex,0.303385417,-0.0859375,1,0,0,0.366,optionRight,5,4895,3,4,0,4,0,1,,,,,,,,,,,,,,,,,,,,,,,,,,,,,,,,,,,,,,,
,,,,,,,5ae1e99638df950001454b0e,2023-08-16_08h47.24.975,HF_wild_card,2022.2.4,Win32,59.95563283,5ae1e99638df950001454b0e,64d2fd46c836a06233681665,64dc7ea2eb61e76232e2ecd0,,,,,,,decisionTrl,resources/DR.BMP,resources/DG.BMP,Door1,-0.170572917,-0.013020833,1,0,0,0.3604,optionLeft,30,4925,3,5,0,5,0,1,,,,,,,,,,,,,,,,,,,,,,,,,,,,,,,,,,,,,,,
,,,,,,,5ae1e99638df950001454b0e,2023-08-16_08h47.24.975,HF_wild_card,2022.2.4,Win32,59.95563283,5ae1e99638df950001454b0e,64d2fd46c836a06233681665,64dc7ea2eb61e76232e2ecd0,,,,,,,sngl,resources/DG.BMP,resources/Empty.png,Door2,-0.190104167,-0.014322917,1,0,0,0.3568,optionLeft,40,4965,3,6,0,6,0,1,,,,,,,,,,,,,,,,,,,,,,,,,,,,,,,,,,,,,,,
,,,,,,,5ae1e99638df950001454b0e,2023-08-16_08h47.24.975,HF_wild_card,2022.2.4,Win32,59.95563283,5ae1e99638df950001454b0e,64d2fd46c836a06233681665,64dc7ea2eb61e76232e2ecd0,,,,,,,ctch,resources/DB.BMP,resources/DG.BMP,Door3,-0.138020833,-0.010416667,1,0,0,0.3604,optionLeft,70,5035,3,7,0,7,0,1,,,,,,,,,,,,,,,,,,,,,,,,,,,,,,,,,,,,,,,
,,,,,,,5ae1e99638df950001454b0e,2023-08-16_08h47.24.975,HF_wild_card,2022.2.4,Win32,59.95563283,5ae1e99638df950001454b0e,64d2fd46c836a06233681665,64dc7ea2eb61e76232e2ecd0,,,,,,,sngl,resources/DB.BMP,resources/Empty.png,Door3,-0.169270833,-0.005208333,1,0,0,0.3593,optionLeft,70,5105,3,8,0,8,0,1,,,,,,,,,,,,,,,,,,,,,,,,,,,,,,,,,,,,,,,
,,,,,,,5ae1e99638df950001454b0e,2023-08-16_08h47.24.975,HF_wild_card,2022.2.4,Win32,59.95563283,5ae1e99638df950001454b0e,64d2fd46c836a06233681665,64dc7ea2eb61e76232e2ecd0,,,,,,,decisionTrl,resources/DY.BMP,resources/DB.BMP,Door4,-0.24609375,0.022135417,1,0,0,0.3319,optionLeft,60,5165,3,9,0,9,0,1,,,,,,,,,,,,,,,,,,,,,,,,,,,,,,,,,,,,,,,
,,,,,,,5ae1e99638df950001454b0e,2023-08-16_08h47.24.975,HF_wild_card,2022.2.4,Win32,59.95563283,5ae1e99638df950001454b0e,64d2fd46c836a06233681665,64dc7ea2eb61e76232e2ecd0,,,,,,,decisionTrl,resources/DY.BMP,resources/DB.BMP,Door4,-0.259114583,0.009114583,1,0,0,0.3741,optionLeft,60,5225,3,10,0,10,0,1,,,,,,,,,,,,,,,,,,,,,,,,,,,,,,,,,,,,,,,
,,,,,,,5ae1e99638df950001454b0e,2023-08-16_08h47.24.975,HF_wild_card,2022.2.4,Win32,59.95563283,5ae1e99638df950001454b0e,64d2fd46c836a06233681665,64dc7ea2eb61e76232e2ecd0,,,,,,,sngl,resources/DY.BMP,resources/Empty.png,Door4,0.315104167,-0.04296875,1,0,0,0.3587,optionLeft,80,5305,3,11,0,11,0,1,,,,,,,,,,,,,,,,,,,,,,,,,,,,,,,,,,,,,,,
,,,,,,,5ae1e99638df950001454b0e,2023-08-16_08h47.24.975,HF_wild_card,2022.2.4,Win32,59.95563283,5ae1e99638df950001454b0e,64d2fd46c836a06233681665,64dc7ea2eb61e76232e2ecd0,,,,,,,ctch,resources/DG.BMP,resources/DB.BMP,Door2,-0.212239583,0.00390625,1,0,0,0.3573,optionLeft,40,5345,3,12,0,12,0,1,,,,,,,,,,,,,,,,,,,,,,,,,,,,,,,,,,,,,,,
,,,,,,,5ae1e99638df950001454b0e,2023-08-16_08h47.24.975,HF_wild_card,2022.2.4,Win32,59.95563283,5ae1e99638df950001454b0e,64d2fd46c836a06233681665,64dc7ea2eb61e76232e2ecd0,,,,,,,decisionTrl,resources/DB.BMP,resources/DY.BMP,Door4,0.170572917,0.002604167,1,0,0,0.6337,optionRight,80,5425,3,13,0,13,0,1,,,,,,,,,,,,,,,,,,,,,,,,,,,,,,,,,,,,,,,
,,,,,,,5ae1e99638df950001454b0e,2023-08-16_08h47.24.975,HF_wild_card,2022.2.4,Win32,59.95563283,5ae1e99638df950001454b0e,64d2fd46c836a06233681665,64dc7ea2eb61e76232e2ecd0,,,,,,,decisionTrl,resources/DB.BMP,resources/DY.BMP,Door3,-0.201822917,-0.015625,1,0,0,0.4408,optionLeft,70,5495,3,14,0,14,0,1,,,,,,,,,,,,,,,,,,,,,,,,,,,,,,,,,,,,,,,
,,,,,,,5ae1e99638df950001454b0e,2023-08-16_08h47.24.975,HF_wild_card,2022.2.4,Win32,59.95563283,5ae1e99638df950001454b0e,64d2fd46c836a06233681665,64dc7ea2eb61e76232e2ecd0,,,,,,,sngl,resources/Empty.png,resources/DB.BMP,Door3,0.041666667,0.013020833,1,0,0,0.3971,optionRight,70,5565,3,15,0,15,0,1,,,,,,,,,,,,,,,,,,,,,,,,,,,,,,,,,,,,,,,
,,,,,,,5ae1e99638df950001454b0e,2023-08-16_08h47.24.975,HF_wild_card,2022.2.4,Win32,59.95563283,5ae1e99638df950001454b0e,64d2fd46c836a06233681665,64dc7ea2eb61e76232e2ecd0,,,,,,,sngl,resources/DBN.BMP,resources/Empty.png,WildCard_Ex,-0.171875,-0.024739583,1,0,0,0.4164,optionLeft,5,5570,3,16,0,16,0,1,,,,,,,,,,,,,,,,,,,,,,,,,,,,,,,,,,,,,,,
,,,,,,,5ae1e99638df950001454b0e,2023-08-16_08h47.24.975,HF_wild_card,2022.2.4,Win32,59.95563283,5ae1e99638df950001454b0e,64d2fd46c836a06233681665,64dc7ea2eb61e76232e2ecd0,,,,,,,decisionTrl,resources/DBN.BMP,resources/DG.BMP,Door2,0.240885417,-0.029947917,1,0,0,0.3536,optionRight,40,5610,3,17,0,17,0,1,,,,,,,,,,,,,,,,,,,,,,,,,,,,,,,,,,,,,,,
,,,,,,,5ae1e99638df950001454b0e,2023-08-16_08h47.24.975,HF_wild_card,2022.2.4,Win32,59.95563283,5ae1e99638df950001454b0e,64d2fd46c836a06233681665,64dc7ea2eb61e76232e2ecd0,,,,,,,decisionTrl,resources/DG.BMP,resources/DR.BMP,Door1,0.244791667,-0.045572917,1,0,0,0.321,optionRight,30,5640,3,18,0,18,0,1,,,,,,,,,,,,,,,,,,,,,,,,,,,,,,,,,,,,,,,
,,,,,,,5ae1e99638df950001454b0e,2023-08-16_08h47.24.975,HF_wild_card,2022.2.4,Win32,59.95563283,5ae1e99638df950001454b0e,64d2fd46c836a06233681665,64dc7ea2eb61e76232e2ecd0,,,,,,,decisionTrl,resources/DB.BMP,resources/DBN.BMP,Door3,-0.186197917,0.009114583,1,0,0,0.3287,optionLeft,70,5710,3,19,0,19,0,1,,,,,,,,,,,,,,,,,,,,,,,,,,,,,,,,,,,,,,,
,,,,,,,5ae1e99638df950001454b0e,2023-08-16_08h47.24.975,HF_wild_card,2022.2.4,Win32,59.95563283,5ae1e99638df950001454b0e,64d2fd46c836a06233681665,64dc7ea2eb61e76232e2ecd0,,,,,,,sngl,resources/Empty.png,resources/DY.BMP,Door4,-0.203125,-0.013020833,1,0,0,0.3256,optionRight,60,5770,3,20,0,20,0,1,,,,,,,,,,,,,,,,,,,,,,,,,,,,,,,,,,,,,,,
,,,,,,,5ae1e99638df950001454b0e,2023-08-16_08h47.24.975,HF_wild_card,2022.2.4,Win32,59.95563283,5ae1e99638df950001454b0e,64d2fd46c836a06233681665,64dc7ea2eb61e76232e2ecd0,,,,,,,decisionTrl,resources/DY.BMP,resources/DBN.BMP,Door4,-0.1484375,-0.020833333,1,0,0,0.3636,optionLeft,60,5830,3,21,0,21,0,1,,,,,,,,,,,,,,,,,,,,,,,,,,,,,,,,,,,,,,,
,,,,,,,5ae1e99638df950001454b0e,2023-08-16_08h47.24.975,HF_wild_card,2022.2.4,Win32,59.95563283,5ae1e99638df950001454b0e,64d2fd46c836a06233681665,64dc7ea2eb61e76232e2ecd0,,,,,,,sngl,resources/DR.BMP,resources/Empty.png,Door1,-0.1796875,-0.018229167,1,0,0,0.4074,optionLeft,30,5860,3,22,0,22,0,1,,,,,,,,,,,,,,,,,,,,,,,,,,,,,,,,,,,,,,,
,,,,,,,5ae1e99638df950001454b0e,2023-08-16_08h47.24.975,HF_wild_card,2022.2.4,Win32,59.95563283,5ae1e99638df950001454b0e,64d2fd46c836a06233681665,64dc7ea2eb61e76232e2ecd0,,,,,,,ctch,resources/DR.BMP,resources/DY.BMP,Door1,-0.1796875,-0.029947917,1,0,0,0.475,optionLeft,30,5890,3,23,0,23,0,1,,,,,,,,,,,,,,,,,,,,,,,,,,,,,,,,,,,,,,,
,,,,,,,5ae1e99638df950001454b0e,2023-08-16_08h47.24.975,HF_wild_card,2022.2.4,Win32,59.95563283,5ae1e99638df950001454b0e,64d2fd46c836a06233681665,64dc7ea2eb61e76232e2ecd0,,,,,,,decisionTrl,resources/DY.BMP,resources/DB.BMP,Door3,0.239583333,-0.024739583,1,0,0,0.3803,optionRight,70,5960,3,24,0,24,0,1,,,,,,,,,,,,,,,,,,,,,,,,,,,,,,,,,,,,,,,
,,,,,,,5ae1e99638df950001454b0e,2023-08-16_08h47.24.975,HF_wild_card,2022.2.4,Win32,59.95563283,5ae1e99638df950001454b0e,64d2fd46c836a06233681665,64dc7ea2eb61e76232e2ecd0,,,,,,,ctch,resources/DR.BMP,resources/DY.BMP,Door4,0.236979167,-0.013020833,1,0,0,0.544,optionRight,60,6020,3,25,0,25,0,1,,,,,,,,,,,,,,,,,,,,,,,,,,,,,,,,,,,,,,,
,,,,,,,5ae1e99638df950001454b0e,2023-08-16_08h47.24.975,HF_wild_card,2022.2.4,Win32,59.95563283,5ae1e99638df950001454b0e,64d2fd46c836a06233681665,64dc7ea2eb61e76232e2ecd0,,,,,,,sngl,resources/Empty.png,resources/DBN.BMP,WildCard_Ex,-0.1484375,0.001302083,1,0,0,0.4425,optionRight,95,6115,3,26,0,26,0,1,,,,,,,,,,,,,,,,,,,,,,,,,,,,,,,,,,,,,,,
,,,,,,,5ae1e99638df950001454b0e,2023-08-16_08h47.24.975,HF_wild_card,2022.2.4,Win32,59.95563283,5ae1e99638df950001454b0e,64d2fd46c836a06233681665,64dc7ea2eb61e76232e2ecd0,,,,,,,decisionTrl,resources/DR.BMP,resources/DG.BMP,Door1,-0.151041667,-0.006510417,1,0,0,0.4675,optionLeft,30,6145,3,27,0,27,0,1,,,,,,,,,,,,,,,,,,,,,,,,,,,,,,,,,,,,,,,
,,,,,,,5ae1e99638df950001454b0e,2023-08-16_08h47.24.975,HF_wild_card,2022.2.4,Win32,59.95563283,5ae1e99638df950001454b0e,64d2fd46c836a06233681665,64dc7ea2eb61e76232e2ecd0,,,,,,,ctch,resources/DG.BMP,resources/DB.BMP,Door2,-0.165364583,0.013020833,1,0,0,0.3677,optionLeft,20,6165,3,28,0,28,0,1,,,,,,,,,,,,,,,,,,,,,,,,,,,,,,,,,,,,,,,
,,,,,,,5ae1e99638df950001454b0e,2023-08-16_08h47.24.975,HF_wild_card,2022.2.4,Win32,59.95563283,5ae1e99638df950001454b0e,64d2fd46c836a06233681665,64dc7ea2eb61e76232e2ecd0,,,,,,,sngl,resources/Empty.png,resources/DBN.BMP,WildCard_Ex,0.338541667,-0.0078125,1,0,0,0.3666,optionRight,5,6170,3,29,0,29,0,1,,,,,,,,,,,,,,,,,,,,,,,,,,,,,,,,,,,,,,,
,,,,,,,5ae1e99638df950001454b0e,2023-08-16_08h47.24.975,HF_wild_card,2022.2.4,Win32,59.95563283,5ae1e99638df950001454b0e,64d2fd46c836a06233681665,64dc7ea2eb61e76232e2ecd0,,,,,,,sngl,resources/DBN.BMP,resources/Empty.png,WildCard_Ex,-0.169270833,-0.002604167,1,0,0,0.3383,optionLeft,95,6265,3,30,0,30,0,1,,,,,,,,,,,,,,,,,,,,,,,,,,,,,,,,,,,,,,,
,,,,,,,5ae1e99638df950001454b0e,2023-08-16_08h47.24.975,HF_wild_card,2022.2.4,Win32,59.95563283,5ae1e99638df950001454b0e,64d2fd46c836a06233681665,64dc7ea2eb61e76232e2ecd0,,,,,,,decisionTrl,resources/DBN.BMP,resources/DR.BMP,WildCard_Ex,-0.298177083,-0.041666667,1,0,0,0.3916,optionLeft,95,6360,3,31,0,31,0,1,,,,,,,,,,,,,,,,,,,,,,,,,,,,,,,,,,,,,,,
,,,,,,,5ae1e99638df950001454b0e,2023-08-16_08h47.24.975,HF_wild_card,2022.2.4,Win32,59.95563283,5ae1e99638df950001454b0e,64d2fd46c836a06233681665,64dc7ea2eb61e76232e2ecd0,,,,,,,decisionTrl,resources/DR.BMP,resources/DG.BMP,Door1,-0.15234375,0.020833333,1,0,0,0.4114,optionLeft,30,6390,3,32,0,32,0,1,,,,,,,,,,,,,,,,,,,,,,,,,,,,,,,,,,,,,,,
,,,,,,,5ae1e99638df950001454b0e,2023-08-16_08h47.24.975,HF_wild_card,2022.2.4,Win32,59.95563283,5ae1e99638df950001454b0e,64d2fd46c836a06233681665,64dc7ea2eb61e76232e2ecd0,,,,,,,sngl,resources/Empty.png,resources/DG.BMP,Door2,0.126302083,0.046875,1,0,0,0.486,optionRight,20,6410,3,33,0,33,0,1,,,,,,,,,,,,,,,,,,,,,,,,,,,,,,,,,,,,,,,
,,,,,,,5ae1e99638df950001454b0e,2023-08-16_08h47.24.975,HF_wild_card,2022.2.4,Win32,59.95563283,5ae1e99638df950001454b0e,64d2fd46c836a06233681665,64dc7ea2eb61e76232e2ecd0,,,,,,,decisionTrl,resources/DG.BMP,resources/DR.BMP,Door2,-0.19921875,0.01171875,1,0,0,0.3916,optionLeft,20,6430,3,34,0,34,0,1,,,,,,,,,,,,,,,,,,,,,,,,,,,,,,,,,,,,,,,
,,,,,,,5ae1e99638df950001454b0e,2023-08-16_08h47.24.975,HF_wild_card,2022.2.4,Win32,59.95563283,5ae1e99638df950001454b0e,64d2fd46c836a06233681665,64dc7ea2eb61e76232e2ecd0,,,,,,,decisionTrl,resources/DY.BMP,resources/DB.BMP,Door3,0.05859375,-0.005208333,1,0,0,0.3021,optionRight,70,6500,3,35,0,35,0,1,,,,,,,,,,,,,,,,,,,,,,,,,,,,,,,,,,,,,,,
,,,,,,,5ae1e99638df950001454b0e,2023-08-16_08h47.24.975,HF_wild_card,2022.2.4,Win32,59.95563283,5ae1e99638df950001454b0e,64d2fd46c836a06233681665,64dc7ea2eb61e76232e2ecd0,,,,,,,decisionTrl,resources/DR.BMP,resources/DG.BMP,Door2,0.1484375,-0.015625,1,0,0,0.5009,optionRight,40,6540,3,36,0,36,0,1,,,,,,,,,,,,,,,,,,,,,,,,,,,,,,,,,,,,,,,
,,,,,,,5ae1e99638df950001454b0e,2023-08-16_08h47.24.975,HF_wild_card,2022.2.4,Win32,59.95563283,5ae1e99638df950001454b0e,64d2fd46c836a06233681665,64dc7ea2eb61e76232e2ecd0,,,,,,,ctch,resources/DB.BMP,resources/DG.BMP,Door2,0.236979167,-0.026041667,1,0,0,0.3453,optionRight,20,6560,3,37,0,37,0,1,,,,,,,,,,,,,,,,,,,,,,,,,,,,,,,,,,,,,,,
,,,,,,,5ae1e99638df950001454b0e,2023-08-16_08h47.24.975,HF_wild_card,2022.2.4,Win32,59.95563283,5ae1e99638df950001454b0e,64d2fd46c836a06233681665,64dc7ea2eb61e76232e2ecd0,,,,,,,sngl,resources/Empty.png,resources/DR.BMP,Door1,0.294270833,0.0078125,1,0,0,0.6863,optionRight,30,6590,3,38,0,38,0,1,,,,,,,,,,,,,,,,,,,,,,,,,,,,,,,,,,,,,,,
,,,,,,,5ae1e99638df950001454b0e,2023-08-16_08h47.24.975,HF_wild_card,2022.2.4,Win32,59.95563283,5ae1e99638df950001454b0e,64d2fd46c836a06233681665,64dc7ea2eb61e76232e2ecd0,,,,,,,decisionTrl,resources/DG.BMP,resources/DR.BMP,Door1,0.313802083,-0.010416667,1,0,0,0.3625,optionRight,30,6620,3,39,0,39,0,1,,,,,,,,,,,,,,,,,,,,,,,,,,,,,,,,,,,,,,,
,,,,,,,5ae1e99638df950001454b0e,2023-08-16_08h47.24.975,HF_wild_card,2022.2.4,Win32,59.95563283,5ae1e99638df950001454b0e,64d2fd46c836a06233681665,64dc7ea2eb61e76232e2ecd0,,,,,,,decisionTrl,resources/DBN.BMP,resources/DB.BMP,WildCard_Ex,-0.139322917,0.0078125,1,0,0,0.4093,optionLeft,5,6625,3,40,0,40,0,1,,,,,,,,,,,,,,,,,,,,,,,,,,,,,,,,,,,,,,,
,,,,,,,5ae1e99638df950001454b0e,2023-08-16_08h47.24.975,HF_wild_card,2022.2.4,Win32,59.95563283,5ae1e99638df950001454b0e,64d2fd46c836a06233681665,64dc7ea2eb61e76232e2ecd0,,,,,,,decisionTrl,resources/DG.BMP,resources/DBN.BMP,WildCard_Ex,0.2734375,-0.041666667,1,0,0,0.4204,optionRight,95,6720,3,41,0,41,0,1,,,,,,,,,,,,,,,,,,,,,,,,,,,,,,,,,,,,,,,
,,,,,,,5ae1e99638df950001454b0e,2023-08-16_08h47.24.975,HF_wild_card,2022.2.4,Win32,59.95563283,5ae1e99638df950001454b0e,64d2fd46c836a06233681665,64dc7ea2eb61e76232e2ecd0,,,,,,,decisionTrl,resources/DBN.BMP,resources/DY.BMP,Door4,0.15625,-0.01953125,1,0,0,0.4022,optionRight,60,6780,3,42,0,42,0,1,,,,,,,,,,,,,,,,,,,,,,,,,,,,,,,,,,,,,,,
,,,,,,,5ae1e99638df950001454b0e,2023-08-16_08h47.24.975,HF_wild_card,2022.2.4,Win32,59.95563283,5ae1e99638df950001454b0e,64d2fd46c836a06233681665,64dc7ea2eb61e76232e2ecd0,,,,,,,ctch,resources/DY.BMP,resources/DR.BMP,Door4,-0.104166667,-0.016927083,1,0,0,0.3485,optionLeft,60,6840,3,43,0,43,0,1,,,,,,,,,,,,,,,,,,,,,,,,,,,,,,,,,,,,,,,
,,,,,,,5ae1e99638df950001454b0e,2023-08-16_08h47.24.975,HF_wild_card,2022.2.4,Win32,59.95563283,5ae1e99638df950001454b0e,64d2fd46c836a06233681665,64dc7ea2eb61e76232e2ecd0,,,,,,,,,,,,,,,,,,,,,,,,,,2,0,2,0,1,,,,,,,,,,,,,,,,,,,,,,,,,,,,,,,,,,
,,,,,,,5ae1e99638df950001454b0e,2023-08-16_08h47.24.975,HF_wild_card,2022.2.4,Win32,59.95563283,5ae1e99638df950001454b0e,64d2fd46c836a06233681665,64dc7ea2eb61e76232e2ecd0,,,,,,,sngl,resources/Empty.png,resources/DP.BMP,WildCard_NonEx,0.412760417,-0.044270833,1,0,0,1.1031,optionRight,55,6895,4,0,0,0,0,1,,,,,,,,,,,,,,,,,,,,,,,,,,,,,,,,,,,,,,,
,,,,,,,5ae1e99638df950001454b0e,2023-08-16_08h47.24.975,HF_wild_card,2022.2.4,Win32,59.95563283,5ae1e99638df950001454b0e,64d2fd46c836a06233681665,64dc7ea2eb61e76232e2ecd0,,,,,,,decisionTrl,resources/DP.BMP,resources/DG.BMP,WildCard_NonEx,-0.169270833,-0.010416667,1,0,0,0.4171,optionLeft,55,6950,4,1,0,1,0,1,,,,,,,,,,,,,,,,,,,,,,,,,,,,,,,,,,,,,,,
,,,,,,,5ae1e99638df950001454b0e,2023-08-16_08h47.24.975,HF_wild_card,2022.2.4,Win32,59.95563283,5ae1e99638df950001454b0e,64d2fd46c836a06233681665,64dc7ea2eb61e76232e2ecd0,,,,,,,decisionTrl,resources/DB.BMP,resources/DP.BMP,WildCard_NonEx,0.177083333,0.01953125,1,0,0,0.6447,optionRight,45,6995,4,2,0,2,0,1,,,,,,,,,,,,,,,,,,,,,,,,,,,,,,,,,,,,,,,
,,,,,,,5ae1e99638df950001454b0e,2023-08-16_08h47.24.975,HF_wild_card,2022.2.4,Win32,59.95563283,5ae1e99638df950001454b0e,64d2fd46c836a06233681665,64dc7ea2eb61e76232e2ecd0,,,,,,,decisionTrl,resources/DP.BMP,resources/DR.BMP,WildCard_NonEx,-0.201822917,-0.018229167,1,0,0,0.548,optionLeft,45,7040,4,3,0,3,0,1,,,,,,,,,,,,,,,,,,,,,,,,,,,,,,,,,,,,,,,
,,,,,,,5ae1e99638df950001454b0e,2023-08-16_08h47.24.975,HF_wild_card,2022.2.4,Win32,59.95563283,5ae1e99638df950001454b0e,64d2fd46c836a06233681665,64dc7ea2eb61e76232e2ecd0,,,,,,,sngl,resources/DY.BMP,resources/Empty.png,Door4,-0.240885417,-0.00390625,1,0,0,0.5928,optionLeft,60,7100,4,4,0,4,0,1,,,,,,,,,,,,,,,,,,,,,,,,,,,,,,,,,,,,,,,
,,,,,,,5ae1e99638df950001454b0e,2023-08-16_08h47.24.975,HF_wild_card,2022.2.4,Win32,59.95563283,5ae1e99638df950001454b0e,64d2fd46c836a06233681665,64dc7ea2eb61e76232e2ecd0,,,,,,,decisionTrl,resources/DG.BMP,resources/DR.BMP,Door1,0.217447917,-0.005208333,1,0,0,0.508,optionRight,30,7130,4,5,0,5,0,1,,,,,,,,,,,,,,,,,,,,,,,,,,,,,,,,,,,,,,,
,,,,,,,5ae1e99638df950001454b0e,2023-08-16_08h47.24.975,HF_wild_card,2022.2.4,Win32,59.95563283,5ae1e99638df950001454b0e,64d2fd46c836a06233681665,64dc7ea2eb61e76232e2ecd0,,,,,,,sngl,resources/DR.BMP,resources/Empty.png,Door1,-0.157552083,0,1,0,0,0.4052,optionLeft,30,7160,4,6,0,6,0,1,,,,,,,,,,,,,,,,,,,,,,,,,,,,,,,,,,,,,,,
,,,,,,,5ae1e99638df950001454b0e,2023-08-16_08h47.24.975,HF_wild_card,2022.2.4,Win32,59.95563283,5ae1e99638df950001454b0e,64d2fd46c836a06233681665,64dc7ea2eb61e76232e2ecd0,,,,,,,ctch,resources/DR.BMP,resources/DY.BMP,Door4,0.088541667,-0.001302083,1,0,0,0.3651,optionRight,60,7220,4,7,0,7,0,1,,,,,,,,,,,,,,,,,,,,,,,,,,,,,,,,,,,,,,,
,,,,,,,5ae1e99638df950001454b0e,2023-08-16_08h47.24.975,HF_wild_card,2022.2.4,Win32,59.95563283,5ae1e99638df950001454b0e,64d2fd46c836a06233681665,64dc7ea2eb61e76232e2ecd0,,,,,,,sngl,resources/Empty.png,resources/DB.BMP,Door3,-0.244791667,-0.0078125,1,0,0,0.3869,optionRight,70,7290,4,8,0,8,0,1,,,,,,,,,,,,,,,,,,,,,,,,,,,,,,,,,,,,,,,
,,,,,,,5ae1e99638df950001454b0e,2023-08-16_08h47.24.975,HF_wild_card,2022.2.4,Win32,59.95563283,5ae1e99638df950001454b0e,64d2fd46c836a06233681665,64dc7ea2eb61e76232e2ecd0,,,,,,,decisionTrl,resources/DG.BMP,resources/DP.BMP,WildCard_NonEx,0.313802083,0.020833333,1,0,0,0.3978,optionRight,55,7345,4,9,0,9,0,1,,,,,,,,,,,,,,,,,,,,,,,,,,,,,,,,,,,,,,,
,,,,,,,5ae1e99638df950001454b0e,2023-08-16_08h47.24.975,HF_wild_card,2022.2.4,Win32,59.95563283,5ae1e99638df950001454b0e,64d2fd46c836a06233681665,64dc7ea2eb61e76232e2ecd0,,,,,,,ctch,resources/DR.BMP,resources/DY.BMP,Door1,0.020833333,0.0078125,1,0,0,0.3039,optionLeft,30,7375,4,10,0,10,0,1,,,,,,,,,,,,,,,,,,,,,,,,,,,,,,,,,,,,,,,
,,,,,,,5ae1e99638df950001454b0e,2023-08-16_08h47.24.975,HF_wild_card,2022.2.4,Win32,59.95563283,5ae1e99638df950001454b0e,64d2fd46c836a06233681665,64dc7ea2eb61e76232e2ecd0,,,,,,,decisionTrl,resources/DB.BMP,resources/DY.BMP,Door4,0.329427083,-0.006510417,1,0,0,0.4658,optionRight,60,7435,4,11,0,11,0,1,,,,,,,,,,,,,,,,,,,,,,,,,,,,,,,,,,,,,,,
,,,,,,,5ae1e99638df950001454b0e,2023-08-16_08h47.24.975,HF_wild_card,2022.2.4,Win32,59.95563283,5ae1e99638df950001454b0e,64d2fd46c836a06233681665,64dc7ea2eb61e76232e2ecd0,,,,,,,decisionTrl,resources/DP.BMP,resources/DB.BMP,Door3,0.28125,0.006510417,1,0,0,0.4488,optionRight,70,7505,4,12,0,12,0,1,,,,,,,,,,,,,,,,,,,,,,,,,,,,,,,,,,,,,,,
,,,,,,,5ae1e99638df950001454b0e,2023-08-16_08h47.24.975,HF_wild_card,2022.2.4,Win32,59.95563283,5ae1e99638df950001454b0e,64d2fd46c836a06233681665,64dc7ea2eb61e76232e2ecd0,,,,,,,sngl,resources/Empty.png,resources/DR.BMP,Door1,0.3125,-0.016927083,1,0,0,0.3711,optionRight,30,7535,4,13,0,13,0,1,,,,,,,,,,,,,,,,,,,,,,,,,,,,,,,,,,,,,,,
,,,,,,,5ae1e99638df950001454b0e,2023-08-16_08h47.24.975,HF_wild_card,2022.2.4,Win32,59.95563283,5ae1e99638df950001454b0e,64d2fd46c836a06233681665,64dc7ea2eb61e76232e2ecd0,,,,,,,decisionTrl,resources/DY.BMP,resources/DP.BMP,WildCard_NonEx,0.19921875,0.01953125,1,0,0,0.3348,optionRight,45,7580,4,14,0,14,0,1,,,,,,,,,,,,,,,,,,,,,,,,,,,,,,,,,,,,,,,
,,,,,,,5ae1e99638df950001454b0e,2023-08-16_08h47.24.975,HF_wild_card,2022.2.4,Win32,59.95563283,5ae1e99638df950001454b0e,64d2fd46c836a06233681665,64dc7ea2eb61e76232e2ecd0,,,,,,,sngl,resources/DP.BMP,resources/Empty.png,WildCard_NonEx,0.217447917,-0.006510417,1,0,0,0.3787,optionLeft,55,7635,4,15,0,15,0,1,,,,,,,,,,,,,,,,,,,,,,,,,,,,,,,,,,,,,,,
,,,,,,,5ae1e99638df950001454b0e,2023-08-16_08h47.24.975,HF_wild_card,2022.2.4,Win32,59.95563283,5ae1e99638df950001454b0e,64d2fd46c836a06233681665,64dc7ea2eb61e76232e2ecd0,,,,,,,decisionTrl,resources/DR.BMP,resources/DG.BMP,Door1,-0.201822917,-0.015625,1,0,0,0.4106,optionLeft,30,7665,4,16,0,16,0,1,,,,,,,,,,,,,,,,,,,,,,,,,,,,,,,,,,,,,,,
,,,,,,,5ae1e99638df950001454b0e,2023-08-16_08h47.24.975,HF_wild_card,2022.2.4,Win32,59.95563283,5ae1e99638df950001454b0e,64d2fd46c836a06233681665,64dc7ea2eb61e76232e2ecd0,,,,,,,decisionTrl,resources/DR.BMP,resources/DG.BMP,Door1,-0.19921875,0.009114583,1,0,0,0.5235,optionLeft,30,7695,4,17,0,17,0,1,,,,,,,,,,,,,,,,,,,,,,,,,,,,,,,,,,,,,,,
,,,,,,,5ae1e99638df950001454b0e,2023-08-16_08h47.24.975,HF_wild_card,2022.2.4,Win32,59.95563283,5ae1e99638df950001454b0e,64d2fd46c836a06233681665,64dc7ea2eb61e76232e2ecd0,,,,,,,decisionTrl,resources/DG.BMP,resources/DR.BMP,Door2,-0.157552083,0,1,0,0,0.3795,optionLeft,20,7715,4,18,0,18,0,1,,,,,,,,,,,,,,,,,,,,,,,,,,,,,,,,,,,,,,,
,,,,,,,5ae1e99638df950001454b0e,2023-08-16_08h47.24.975,HF_wild_card,2022.2.4,Win32,59.95563283,5ae1e99638df950001454b0e,64d2fd46c836a06233681665,64dc7ea2eb61e76232e2ecd0,,,,,,,ctch,resources/DB.BMP,resources/DG.BMP,Door3,-0.088541667,0.001302083,1,0,0,0.3708,optionLeft,70,7785,4,19,0,19,0,1,,,,,,,,,,,,,,,,,,,,,,,,,,,,,,,,,,,,,,,
,,,,,,,5ae1e99638df950001454b0e,2023-08-16_08h47.24.975,HF_wild_card,2022.2.4,Win32,59.95563283,5ae1e99638df950001454b0e,64d2fd46c836a06233681665,64dc7ea2eb61e76232e2ecd0,,,,,,,decisionTrl,resources/DY.BMP,resources/DB.BMP,Door4,-0.161458333,0.002604167,1,0,0,0.4585,optionLeft,80,7865,4,20,0,20,0,1,,,,,,,,,,,,,,,,,,,,,,,,,,,,,,,,,,,,,,,
,,,,,,,5ae1e99638df950001454b0e,2023-08-16_08h47.24.975,HF_wild_card,2022.2.4,Win32,59.95563283,5ae1e99638df950001454b0e,64d2fd46c836a06233681665,64dc7ea2eb61e76232e2ecd0,,,,,,,sngl,resources/Empty.png,resources/DG.BMP,Door2,0.216145833,-0.022135417,1,0,0,0.6864,optionRight,40,7905,4,21,0,21,0,1,,,,,,,,,,,,,,,,,,,,,,,,,,,,,,,,,,,,,,,
,,,,,,,5ae1e99638df950001454b0e,2023-08-16_08h47.24.975,HF_wild_card,2022.2.4,Win32,59.95563283,5ae1e99638df950001454b0e,64d2fd46c836a06233681665,64dc7ea2eb61e76232e2ecd0,,,,,,,sngl,resources/DB.BMP,resources/Empty.png,Door3,-0.197916667,0.010416667,1,0,0,0.4423,optionLeft,70,7975,4,22,0,22,0,1,,,,,,,,,,,,,,,,,,,,,,,,,,,,,,,,,,,,,,,
,,,,,,,5ae1e99638df950001454b0e,2023-08-16_08h47.24.975,HF_wild_card,2022.2.4,Win32,59.95563283,5ae1e99638df950001454b0e,64d2fd46c836a06233681665,64dc7ea2eb61e76232e2ecd0,,,,,,,sngl,resources/DG.BMP,resources/Empty.png,Door2,-0.260416667,0.02734375,1,0,0,0.4895,optionLeft,20,7995,4,23,0,23,0,1,,,,,,,,,,,,,,,,,,,,,,,,,,,,,,,,,,,,,,,
,,,,,,,5ae1e99638df950001454b0e,2023-08-16_08h47.24.975,HF_wild_card,2022.2.4,Win32,59.95563283,5ae1e99638df950001454b0e,64d2fd46c836a06233681665,64dc7ea2eb61e76232e2ecd0,,,,,,,decisionTrl,resources/DY.BMP,resources/DB.BMP,Door4,-0.326822917,0,1,0,0,0.5086,optionLeft,60,8055,4,24,0,24,0,1,,,,,,,,,,,,,,,,,,,,,,,,,,,,,,,,,,,,,,,
,,,,,,,5ae1e99638df950001454b0e,2023-08-16_08h47.24.975,HF_wild_card,2022.2.4,Win32,59.95563283,5ae1e99638df950001454b0e,64d2fd46c836a06233681665,64dc7ea2eb61e76232e2ecd0,,,,,,,decisionTrl,resources/DB.BMP,resources/DY.BMP,Door4,0.213541667,-0.006510417,1,0,0,0.3708,optionRight,60,8115,4,25,0,25,0,1,,,,,,,,,,,,,,,,,,,,,,,,,,,,,,,,,,,,,,,
,,,,,,,5ae1e99638df950001454b0e,2023-08-16_08h47.24.975,HF_wild_card,2022.2.4,Win32,59.95563283,5ae1e99638df950001454b0e,64d2fd46c836a06233681665,64dc7ea2eb61e76232e2ecd0,,,,,,,decisionTrl,resources/DR.BMP,resources/DG.BMP,Door2,0.174479167,-0.0234375,1,0,0,0.3511,optionRight,40,8155,4,26,0,26,0,1,,,,,,,,,,,,,,,,,,,,,,,,,,,,,,,,,,,,,,,
,,,,,,,5ae1e99638df950001454b0e,2023-08-16_08h47.24.975,HF_wild_card,2022.2.4,Win32,59.95563283,5ae1e99638df950001454b0e,64d2fd46c836a06233681665,64dc7ea2eb61e76232e2ecd0,,,,,,,ctch,resources/DG.BMP,resources/DB.BMP,Door2,-0.157552083,0.01953125,1,0,0,0.4076,optionLeft,40,8195,4,27,0,27,0,1,,,,,,,,,,,,,,,,,,,,,,,,,,,,,,,,,,,,,,,
,,,,,,,5ae1e99638df950001454b0e,2023-08-16_08h47.24.975,HF_wild_card,2022.2.4,Win32,59.95563283,5ae1e99638df950001454b0e,64d2fd46c836a06233681665,64dc7ea2eb61e76232e2ecd0,,,,,,,decisionTrl,resources/DR.BMP,resources/DP.BMP,Door1,-0.11328125,0.015625,1,0,0,0.5004,optionLeft,30,8225,4,28,0,28,0,1,,,,,,,,,,,,,,,,,,,,,,,,,,,,,,,,,,,,,,,
,,,,,,,5ae1e99638df950001454b0e,2023-08-16_08h47.24.975,HF_wild_card,2022.2.4,Win32,59.95563283,5ae1e99638df950001454b0e,64d2fd46c836a06233681665,64dc7ea2eb61e76232e2ecd0,,,,,,,sngl,resources/Empty.png,resources/DY.BMP,Door4,0.296875,0.0078125,1,0,0,0.415,optionRight,80,8305,4,29,0,29,0,1,,,,,,,,,,,,,,,,,,,,,,,,,,,,,,,,,,,,,,,
,,,,,,,5ae1e99638df950001454b0e,2023-08-16_08h47.24.975,HF_wild_card,2022.2.4,Win32,59.95563283,5ae1e99638df950001454b0e,64d2fd46c836a06233681665,64dc7ea2eb61e76232e2ecd0,,,,,,,ctch,resources/DB.BMP,resources/DG.BMP,Door3,-0.212239583,0.02734375,1,0,0,0.3431,optionLeft,70,8375,4,30,0,30,0,1,,,,,,,,,,,,,,,,,,,,,,,,,,,,,,,,,,,,,,,
,,,,,,,5ae1e99638df950001454b0e,2023-08-16_08h47.24.975,HF_wild_card,2022.2.4,Win32,59.95563283,5ae1e99638df950001454b0e,64d2fd46c836a06233681665,64dc7ea2eb61e76232e2ecd0,,,,,,,decisionTrl,resources/DY.BMP,resources/DB.BMP,Door3,0.20703125,0.013020833,1,0,0,0.3834,optionRight,70,8445,4,31,0,31,0,1,,,,,,,,,,,,,,,,,,,,,,,,,,,,,,,,,,,,,,,
,,,,,,,5ae1e99638df950001454b0e,2023-08-16_08h47.24.975,HF_wild_card,2022.2.4,Win32,59.95563283,5ae1e99638df950001454b0e,64d2fd46c836a06233681665,64dc7ea2eb61e76232e2ecd0,,,,,,,sngl,resources/Empty.png,resources/DP.BMP,WildCard_NonEx,0.135416667,0.009114583,1,0,0,0.6704,optionRight,45,8490,4,32,0,32,0,1,,,,,,,,,,,,,,,,,,,,,,,,,,,,,,,,,,,,,,,
,,,,,,,5ae1e99638df950001454b0e,2023-08-16_08h47.24.975,HF_wild_card,2022.2.4,Win32,59.95563283,5ae1e99638df950001454b0e,64d2fd46c836a06233681665,64dc7ea2eb61e76232e2ecd0,,,,,,,ctch,resources/DY.BMP,resources/DR.BMP,Door4,-0.184895833,-0.005208333,1,0,0,0.5708,optionLeft,60,8550,4,33,0,33,0,1,,,,,,,,,,,,,,,,,,,,,,,,,,,,,,,,,,,,,,,
,,,,,,,5ae1e99638df950001454b0e,2023-08-16_08h47.24.975,HF_wild_card,2022.2.4,Win32,59.95563283,5ae1e99638df950001454b0e,64d2fd46c836a06233681665,64dc7ea2eb61e76232e2ecd0,,,,,,,decisionTrl,resources/DB.BMP,resources/DY.BMP,Door3,-0.162760417,0.024739583,1,0,0,0.3832,optionLeft,70,8620,4,34,0,34,0,1,,,,,,,,,,,,,,,,,,,,,,,,,,,,,,,,,,,,,,,
,,,,,,,5ae1e99638df950001454b0e,2023-08-16_08h47.24.975,HF_wild_card,2022.2.4,Win32,59.95563283,5ae1e99638df950001454b0e,64d2fd46c836a06233681665,64dc7ea2eb61e76232e2ecd0,,,,,,,decisionTrl,resources/DR.BMP,resources/DG.BMP,Door2,0.184895833,0.026041667,1,0,0,0.375,optionRight,40,8660,4,35,0,35,0,1,,,,,,,,,,,,,,,,,,,,,,,,,,,,,,,,,,,,,,,
,,,,,,,5ae1e99638df950001454b0e,2023-08-16_08h47.24.975,HF_wild_card,2022.2.4,Win32,59.95563283,5ae1e99638df950001454b0e,64d2fd46c836a06233681665,64dc7ea2eb61e76232e2ecd0,,,,,,,ctch,resources/DG.BMP,resources/DB.BMP,Door2,-0.1328125,-0.002604167,1,0,0,0.4791,optionLeft,40,8700,4,36,0,36,0,1,,,,,,,,,,,,,,,,,,,,,,,,,,,,,,,,,,,,,,,
,,,,,,,5ae1e99638df950001454b0e,2023-08-16_08h47.24.975,HF_wild_card,2022.2.4,Win32,59.95563283,5ae1e99638df950001454b0e,64d2fd46c836a06233681665,64dc7ea2eb61e76232e2ecd0,,,,,,,decisionTrl,resources/DY.BMP,resources/DB.BMP,Door3,0.22265625,-0.03515625,1,0,0,0.4918,optionRight,70,8770,4,37,0,37,0,1,,,,,,,,,,,,,,,,,,,,,,,,,,,,,,,,,,,,,,,
,,,,,,,5ae1e99638df950001454b0e,2023-08-16_08h47.24.975,HF_wild_card,2022.2.4,Win32,59.95563283,5ae1e99638df950001454b0e,64d2fd46c836a06233681665,64dc7ea2eb61e76232e2ecd0,,,,,,,sngl,resources/DP.BMP,resources/Empty.png,WildCard_NonEx,-0.16015625,-0.016927083,1,0,0,0.4132,optionLeft,45,8815,4,38,0,38,0,1,,,,,,,,,,,,,,,,,,,,,,,,,,,,,,,,,,,,,,,
,,,,,,,5ae1e99638df950001454b0e,2023-08-16_08h47.24.975,HF_wild_card,2022.2.4,Win32,59.95563283,5ae1e99638df950001454b0e,64d2fd46c836a06233681665,64dc7ea2eb61e76232e2ecd0,,,,,,,decisionTrl,resources/DG.BMP,resources/DR.BMP,Door2,-0.205729167,-0.02734375,1,0,0,0.5904,optionLeft,20,8835,4,39,0,39,0,1,,,,,,,,,,,,,,,,,,,,,,,,,,,,,,,,,,,,,,,
,,,,,,,5ae1e99638df950001454b0e,2023-08-16_08h47.24.975,HF_wild_card,2022.2.4,Win32,59.95563283,5ae1e99638df950001454b0e,64d2fd46c836a06233681665,64dc7ea2eb61e76232e2ecd0,,,,,,,decisionTrl,resources/DG.BMP,resources/DR.BMP,Door2,-0.154947917,0.03515625,1,0,0,0.3601,optionLeft,40,8875,4,40,0,40,0,1,,,,,,,,,,,,,,,,,,,,,,,,,,,,,,,,,,,,,,,
,,,,,,,5ae1e99638df950001454b0e,2023-08-16_08h47.24.975,HF_wild_card,2022.2.4,Win32,59.95563283,5ae1e99638df950001454b0e,64d2fd46c836a06233681665,64dc7ea2eb61e76232e2ecd0,,,,,,,decisionTrl,resources/DP.BMP,resources/DY.BMP,WildCard_NonEx,-0.110677083,0.006510417,1,0,0,0.3412,optionLeft,55,8930,4,41,0,41,0,1,,,,,,,,,,,,,,,,,,,,,,,,,,,,,,,,,,,,,,,
,,,,,,,5ae1e99638df950001454b0e,2023-08-16_08h47.24.975,HF_wild_card,2022.2.4,Win32,59.95563283,5ae1e99638df950001454b0e,64d2fd46c836a06233681665,64dc7ea2eb61e76232e2ecd0,,,,,,,decisionTrl,resources/DB.BMP,resources/DY.BMP,Door3,-0.196614583,0.001302083,1,0,0,0.3745,optionLeft,70,9000,4,42,0,42,0,1,,,,,,,,,,,,,,,,,,,,,,,,,,,,,,,,,,,,,,,
,,,,,,,5ae1e99638df950001454b0e,2023-08-16_08h47.24.975,HF_wild_card,2022.2.4,Win32,59.95563283,5ae1e99638df950001454b0e,64d2fd46c836a06233681665,64dc7ea2eb61e76232e2ecd0,,,,,,,ctch,resources/DY.BMP,resources/DR.BMP,Door1,0.248697917,-0.018229167,1,0,0,0.292,optionRight,30,9030,4,43,0,43,0,1,,,,,,,,,,,,,,,,,,,,,,,,,,,,,,,,,,,,,,,
,,,,,,,5ae1e99638df950001454b0e,2023-08-16_08h47.24.975,HF_wild_card,2022.2.4,Win32,59.95563283,5ae1e99638df950001454b0e,64d2fd46c836a06233681665,64dc7ea2eb61e76232e2ecd0,,,,,,,,,,,,,,,,,,,,,,,,,,3,0,3,0,1,,,,,,,,,,,,,,,,,,,,,,,,,,,,,,,,,,
,,,,,,,5ae1e99638df950001454b0e,2023-08-16_08h47.24.975,HF_wild_card,2022.2.4,Win32,59.95563283,5ae1e99638df950001454b0e,64d2fd46c836a06233681665,64dc7ea2eb61e76232e2ecd0,,,,,,,sngl,resources/DP.BMP,resources/Empty.png,WildCard_NonEx,-0.115885417,-0.12890625,1,0,0,0.5811,optionLeft,55,9085,5,0,0,0,0,1,,,,,,,,,,,,,,,,,,,,,,,,,,,,,,,,,,,,,,,
,,,,,,,5ae1e99638df950001454b0e,2023-08-16_08h47.24.975,HF_wild_card,2022.2.4,Win32,59.95563283,5ae1e99638df950001454b0e,64d2fd46c836a06233681665,64dc7ea2eb61e76232e2ecd0,,,,,,,decisionTrl,resources/DR.BMP,resources/DP.BMP,WildCard_NonEx,0.15625,-0.032552083,1,0,0,0.3784,optionRight,45,9130,5,1,0,1,0,1,,,,,,,,,,,,,,,,,,,,,,,,,,,,,,,,,,,,,,,
,,,,,,,5ae1e99638df950001454b0e,2023-08-16_08h47.24.975,HF_wild_card,2022.2.4,Win32,59.95563283,5ae1e99638df950001454b0e,64d2fd46c836a06233681665,64dc7ea2eb61e76232e2ecd0,,,,,,,sngl,resources/Empty.png,resources/DB.BMP,Door3,0.109375,-0.006510417,1,0,0,0.6308,optionRight,70,9200,5,2,0,2,0,1,,,,,,,,,,,,,,,,,,,,,,,,,,,,,,,,,,,,,,,
,,,,,,,5ae1e99638df950001454b0e,2023-08-16_08h47.24.975,HF_wild_card,2022.2.4,Win32,59.95563283,5ae1e99638df950001454b0e,64d2fd46c836a06233681665,64dc7ea2eb61e76232e2ecd0,,,,,,,sngl,resources/Empty.png,resources/DR.BMP,Door1,-0.0859375,-0.00390625,1,0,0,0.3928,optionRight,30,9230,5,3,0,3,0,1,,,,,,,,,,,,,,,,,,,,,,,,,,,,,,,,,,,,,,,
,,,,,,,5ae1e99638df950001454b0e,2023-08-16_08h47.24.975,HF_wild_card,2022.2.4,Win32,59.95563283,5ae1e99638df950001454b0e,64d2fd46c836a06233681665,64dc7ea2eb61e76232e2ecd0,,,,,,,sngl,resources/DP.BMP,resources/Empty.png,WildCard_NonEx,-0.12109375,-0.016927083,1,0,0,0.3611,optionLeft,45,9275,5,4,0,4,0,1,,,,,,,,,,,,,,,,,,,,,,,,,,,,,,,,,,,,,,,
,,,,,,,5ae1e99638df950001454b0e,2023-08-16_08h47.24.975,HF_wild_card,2022.2.4,Win32,59.95563283,5ae1e99638df950001454b0e,64d2fd46c836a06233681665,64dc7ea2eb61e76232e2ecd0,,,,,,,decisionTrl,resources/DR.BMP,resources/DG.BMP,Door1,-0.162760417,-0.01171875,1,0,0,0.3333,optionLeft,30,9305,5,5,0,5,0,1,,,,,,,,,,,,,,,,,,,,,,,,,,,,,,,,,,,,,,,
,,,,,,,5ae1e99638df950001454b0e,2023-08-16_08h47.24.975,HF_wild_card,2022.2.4,Win32,59.95563283,5ae1e99638df950001454b0e,64d2fd46c836a06233681665,64dc7ea2eb61e76232e2ecd0,,,,,,,decisionTrl,resources/DY.BMP,resources/DP.BMP,Door4,-0.165364583,-0.005208333,1,0,0,0.6476,optionLeft,60,9365,5,6,0,6,0,1,,,,,,,,,,,,,,,,,,,,,,,,,,,,,,,,,,,,,,,
,,,,,,,5ae1e99638df950001454b0e,2023-08-16_08h47.24.975,HF_wild_card,2022.2.4,Win32,59.95563283,5ae1e99638df950001454b0e,64d2fd46c836a06233681665,64dc7ea2eb61e76232e2ecd0,,,,,,,ctch,resources/DY.BMP,resources/DR.BMP,Door1,0.190104167,-0.016927083,1,0,0,0.3833,optionRight,30,9395,5,7,0,7,0,1,,,,,,,,,,,,,,,,,,,,,,,,,,,,,,,,,,,,,,,
,,,,,,,5ae1e99638df950001454b0e,2023-08-16_08h47.24.975,HF_wild_card,2022.2.4,Win32,59.95563283,5ae1e99638df950001454b0e,64d2fd46c836a06233681665,64dc7ea2eb61e76232e2ecd0,,,,,,,sngl,resources/Empty.png,resources/DP.BMP,WildCard_NonEx,0.197916667,-0.00390625,1,0,0,0.5937,optionRight,55,9450,5,8,0,8,0,1,,,,,,,,,,,,,,,,,,,,,,,,,,,,,,,,,,,,,,,
,,,,,,,5ae1e99638df950001454b0e,2023-08-16_08h47.24.975,HF_wild_card,2022.2.4,Win32,59.95563283,5ae1e99638df950001454b0e,64d2fd46c836a06233681665,64dc7ea2eb61e76232e2ecd0,,,,,,,decisionTrl,resources/DG.BMP,resources/DR.BMP,Door2,-0.15625,-0.013020833,1,0,0,0.4108,optionLeft,20,9470,5,9,0,9,0,1,,,,,,,,,,,,,,,,,,,,,,,,,,,,,,,,,,,,,,,
,,,,,,,5ae1e99638df950001454b0e,2023-08-16_08h47.24.975,HF_wild_card,2022.2.4,Win32,59.95563283,5ae1e99638df950001454b0e,64d2fd46c836a06233681665,64dc7ea2eb61e76232e2ecd0,,,,,,,ctch,resources/DG.BMP,resources/DB.BMP,Door3,0.16796875,-0.010416667,1,0,0,0.4334,optionRight,70,9540,5,10,0,10,0,1,,,,,,,,,,,,,,,,,,,,,,,,,,,,,,,,,,,,,,,
,,,,,,,5ae1e99638df950001454b0e,2023-08-16_08h47.24.975,HF_wild_card,2022.2.4,Win32,59.95563283,5ae1e99638df950001454b0e,64d2fd46c836a06233681665,64dc7ea2eb61e76232e2ecd0,,,,,,,ctch,resources/DR.BMP,resources/DY.BMP,Door4,0.141927083,-0.032552083,1,0,0,0.3949,optionRight,60,9600,5,11,0,11,0,1,,,,,,,,,,,,,,,,,,,,,,,,,,,,,,,,,,,,,,,
,,,,,,,5ae1e99638df950001454b0e,2023-08-16_08h47.24.975,HF_wild_card,2022.2.4,Win32,59.95563283,5ae1e99638df950001454b0e,64d2fd46c836a06233681665,64dc7ea2eb61e76232e2ecd0,,,,,,,decisionTrl,resources/DY.BMP,resources/DB.BMP,Door3,0.166666667,0.010416667,1,0,0,0.3872,optionRight,70,9670,5,12,0,12,0,1,,,,,,,,,,,,,,,,,,,,,,,,,,,,,,,,,,,,,,,
,,,,,,,5ae1e99638df950001454b0e,2023-08-16_08h47.24.975,HF_wild_card,2022.2.4,Win32,59.95563283,5ae1e99638df950001454b0e,64d2fd46c836a06233681665,64dc7ea2eb61e76232e2ecd0,,,,,,,sngl,resources/DB.BMP,resources/Empty.png,Door3,0.220052083,-0.010416667,1,0,0,0.4085,optionLeft,70,9740,5,13,0,13,0,1,,,,,,,,,,,,,,,,,,,,,,,,,,,,,,,,,,,,,,,
,,,,,,,5ae1e99638df950001454b0e,2023-08-16_08h47.24.975,HF_wild_card,2022.2.4,Win32,59.95563283,5ae1e99638df950001454b0e,64d2fd46c836a06233681665,64dc7ea2eb61e76232e2ecd0,,,,,,,decisionTrl,resources/DB.BMP,resources/DY.BMP,Door4,0.145833333,-0.002604167,1,0,0,0.3635,optionRight,80,9820,5,14,0,14,0,1,,,,,,,,,,,,,,,,,,,,,,,,,,,,,,,,,,,,,,,
,,,,,,,5ae1e99638df950001454b0e,2023-08-16_08h47.24.975,HF_wild_card,2022.2.4,Win32,59.95563283,5ae1e99638df950001454b0e,64d2fd46c836a06233681665,64dc7ea2eb61e76232e2ecd0,,,,,,,decisionTrl,resources/DP.BMP,resources/DB.BMP,WildCard_NonEx,-0.265625,-0.029947917,1,0,0,0.4795,optionLeft,55,9875,5,15,0,15,0,1,,,,,,,,,,,,,,,,,,,,,,,,,,,,,,,,,,,,,,,
,,,,,,,5ae1e99638df950001454b0e,2023-08-16_08h47.24.975,HF_wild_card,2022.2.4,Win32,59.95563283,5ae1e99638df950001454b0e,64d2fd46c836a06233681665,64dc7ea2eb61e76232e2ecd0,,,,,,,decisionTrl,resources/DR.BMP,resources/DG.BMP,Door2,0.208333333,0.033854167,1,0,0,0.4777,optionRight,40,9915,5,16,0,16,0,1,,,,,,,,,,,,,,,,,,,,,,,,,,,,,,,,,,,,,,,
,,,,,,,5ae1e99638df950001454b0e,2023-08-16_08h47.24.975,HF_wild_card,2022.2.4,Win32,59.95563283,5ae1e99638df950001454b0e,64d2fd46c836a06233681665,64dc7ea2eb61e76232e2ecd0,,,,,,,sngl,resources/Empty.png,resources/DG.BMP,Door2,0.32421875,-0.018229167,1,0,0,0.6593,optionRight,20,9935,5,17,0,17,0,1,,,,,,,,,,,,,,,,,,,,,,,,,,,,,,,,,,,,,,,
,,,,,,,5ae1e99638df950001454b0e,2023-08-16_08h47.24.975,HF_wild_card,2022.2.4,Win32,59.95563283,5ae1e99638df950001454b0e,64d2fd46c836a06233681665,64dc7ea2eb61e76232e2ecd0,,,,,,,decisionTrl,resources/DB.BMP,resources/DY.BMP,Door3,-0.24609375,-0.053385417,1,0,0,0.3703,optionLeft,70,10005,5,18,0,18,0,1,,,,,,,,,,,,,,,,,,,,,,,,,,,,,,,,,,,,,,,
,,,,,,,5ae1e99638df950001454b0e,2023-08-16_08h47.24.975,HF_wild_card,2022.2.4,Win32,59.95563283,5ae1e99638df950001454b0e,64d2fd46c836a06233681665,64dc7ea2eb61e76232e2ecd0,,,,,,,decisionTrl,resources/DY.BMP,resources/DB.BMP,Door4,-0.24609375,-0.016927083,1,0,0,0.3689,optionLeft,80,10085,5,19,0,19,0,1,,,,,,,,,,,,,,,,,,,,,,,,,,,,,,,,,,,,,,,
,,,,,,,5ae1e99638df950001454b0e,2023-08-16_08h47.24.975,HF_wild_card,2022.2.4,Win32,59.95563283,5ae1e99638df950001454b0e,64d2fd46c836a06233681665,64dc7ea2eb61e76232e2ecd0,,,,,,,decisionTrl,resources/DG.BMP,resources/DR.BMP,Door2,-0.208333333,-0.022135417,1,0,0,0.3517,optionLeft,40,10125,5,20,0,20,0,1,,,,,,,,,,,,,,,,,,,,,,,,,,,,,,,,,,,,,,,
,,,,,,,5ae1e99638df950001454b0e,2023-08-16_08h47.24.975,HF_wild_card,2022.2.4,Win32,59.95563283,5ae1e99638df950001454b0e,64d2fd46c836a06233681665,64dc7ea2eb61e76232e2ecd0,,,,,,,sngl,resources/Empty.png,resources/DP.BMP,WildCard_NonEx,0.157552083,0.014322917,1,0,0,0.36,optionRight,45,10170,5,21,0,21,0,1,,,,,,,,,,,,,,,,,,,,,,,,,,,,,,,,,,,,,,,
,,,,,,,5ae1e99638df950001454b0e,2023-08-16_08h47.24.975,HF_wild_card,2022.2.4,Win32,59.95563283,5ae1e99638df950001454b0e,64d2fd46c836a06233681665,64dc7ea2eb61e76232e2ecd0,,,,,,,decisionTrl,resources/DY.BMP,resources/DB.BMP,Door4,0.01953125,0.006510417,1,0,0,0.162,optionLeft,60,10230,5,22,0,22,0,1,,,,,,,,,,,,,,,,,,,,,,,,,,,,,,,,,,,,,,,
,,,,,,,5ae1e99638df950001454b0e,2023-08-16_08h47.24.975,HF_wild_card,2022.2.4,Win32,59.95563283,5ae1e99638df950001454b0e,64d2fd46c836a06233681665,64dc7ea2eb61e76232e2ecd0,,,,,,,ctch,resources/DB.BMP,resources/DG.BMP,Door3,-0.1875,0.016927083,1,0,0,0.4318,optionLeft,70,10300,5,23,0,23,0,1,,,,,,,,,,,,,,,,,,,,,,,,,,,,,,,,,,,,,,,
,,,,,,,5ae1e99638df950001454b0e,2023-08-16_08h47.24.975,HF_wild_card,2022.2.4,Win32,59.95563283,5ae1e99638df950001454b0e,64d2fd46c836a06233681665,64dc7ea2eb61e76232e2ecd0,,,,,,,ctch,resources/DG.BMP,resources/DB.BMP,Door2,-0.135416667,-0.010416667,1,0,0,0.3936,optionLeft,20,10320,5,24,0,24,0,1,,,,,,,,,,,,,,,,,,,,,,,,,,,,,,,,,,,,,,,
,,,,,,,5ae1e99638df950001454b0e,2023-08-16_08h47.24.975,HF_wild_card,2022.2.4,Win32,59.95563283,5ae1e99638df950001454b0e,64d2fd46c836a06233681665,64dc7ea2eb61e76232e2ecd0,,,,,,,decisionTrl,resources/DR.BMP,resources/DG.BMP,Door1,-0.201822917,-0.0078125,1,0,0,0.5486,optionLeft,30,10350,5,25,0,25,0,1,,,,,,,,,,,,,,,,,,,,,,,,,,,,,,,,,,,,,,,
,,,,,,,5ae1e99638df950001454b0e,2023-08-16_08h47.24.975,HF_wild_card,2022.2.4,Win32,59.95563283,5ae1e99638df950001454b0e,64d2fd46c836a06233681665,64dc7ea2eb61e76232e2ecd0,,,,,,,ctch,resources/DB.BMP,resources/DG.BMP,Door2,0.330729167,-0.016927083,1,0,0,1.078,optionRight,40,10390,5,26,0,26,0,1,,,,,,,,,,,,,,,,,,,,,,,,,,,,,,,,,,,,,,,
,,,,,,,5ae1e99638df950001454b0e,2023-08-16_08h47.24.975,HF_wild_card,2022.2.4,Win32,59.95563283,5ae1e99638df950001454b0e,64d2fd46c836a06233681665,64dc7ea2eb61e76232e2ecd0,,,,,,,decisionTrl,resources/DB.BMP,resources/DY.BMP,Door3,-0.20703125,-0.040364583,1,0,0,0.4601,optionLeft,70,10460,5,27,0,27,0,1,,,,,,,,,,,,,,,,,,,,,,,,,,,,,,,,,,,,,,,
,,,,,,,5ae1e99638df950001454b0e,2023-08-16_08h47.24.975,HF_wild_card,2022.2.4,Win32,59.95563283,5ae1e99638df950001454b0e,64d2fd46c836a06233681665,64dc7ea2eb61e76232e2ecd0,,,,,,,decisionTrl,resources/DG.BMP,resources/DP.BMP,WildCard_NonEx,0.119791667,0.016927083,1,0,0,0.6318,optionRight,45,10505,5,28,0,28,0,1,,,,,,,,,,,,,,,,,,,,,,,,,,,,,,,,,,,,,,,
,,,,,,,5ae1e99638df950001454b0e,2023-08-16_08h47.24.975,HF_wild_card,2022.2.4,Win32,59.95563283,5ae1e99638df950001454b0e,64d2fd46c836a06233681665,64dc7ea2eb61e76232e2ecd0,,,,,,,ctch,resources/DY.BMP,resources/DR.BMP,Door4,-0.291666667,-0.001302083,1,0,0,0.4633,optionLeft,60,10565,5,29,0,29,0,1,,,,,,,,,,,,,,,,,,,,,,,,,,,,,,,,,,,,,,,
,,,,,,,5ae1e99638df950001454b0e,2023-08-16_08h47.24.975,HF_wild_card,2022.2.4,Win32,59.95563283,5ae1e99638df950001454b0e,64d2fd46c836a06233681665,64dc7ea2eb61e76232e2ecd0,,,,,,,decisionTrl,resources/DB.BMP,resources/DY.BMP,Door3,-0.248697917,-0.018229167,1,0,0,0.3968,optionLeft,70,10635,5,30,0,30,0,1,,,,,,,,,,,,,,,,,,,,,,,,,,,,,,,,,,,,,,,
,,,,,,,5ae1e99638df950001454b0e,2023-08-16_08h47.24.975,HF_wild_card,2022.2.4,Win32,59.95563283,5ae1e99638df950001454b0e,64d2fd46c836a06233681665,64dc7ea2eb61e76232e2ecd0,,,,,,,decisionTrl,resources/DP.BMP,resources/DG.BMP,Door2,0.141927083,0.001302083,1,0,0,0.377,optionRight,20,10655,5,31,0,31,0,1,,,,,,,,,,,,,,,,,,,,,,,,,,,,,,,,,,,,,,,
,,,,,,,5ae1e99638df950001454b0e,2023-08-16_08h47.24.975,HF_wild_card,2022.2.4,Win32,59.95563283,5ae1e99638df950001454b0e,64d2fd46c836a06233681665,64dc7ea2eb61e76232e2ecd0,,,,,,,sngl,resources/DG.BMP,resources/Empty.png,Door2,-0.188802083,0.014322917,1,0,0,0.829,optionLeft,40,10695,5,32,0,32,0,1,,,,,,,,,,,,,,,,,,,,,,,,,,,,,,,,,,,,,,,
,,,,,,,5ae1e99638df950001454b0e,2023-08-16_08h47.24.975,HF_wild_card,2022.2.4,Win32,59.95563283,5ae1e99638df950001454b0e,64d2fd46c836a06233681665,64dc7ea2eb61e76232e2ecd0,,,,,,,decisionTrl,resources/DY.BMP,resources/DB.BMP,Door3,0.274739583,-0.0234375,1,0,0,0.7349,optionRight,70,10765,5,33,0,33,0,1,,,,,,,,,,,,,,,,,,,,,,,,,,,,,,,,,,,,,,,
,,,,,,,5ae1e99638df950001454b0e,2023-08-16_08h47.24.975,HF_wild_card,2022.2.4,Win32,59.95563283,5ae1e99638df950001454b0e,64d2fd46c836a06233681665,64dc7ea2eb61e76232e2ecd0,,,,,,,decisionTrl,resources/DP.BMP,resources/DY.BMP,WildCard_NonEx,-0.326822917,-0.0859375,1,0,0,0.686,optionLeft,45,10810,5,34,0,34,0,1,,,,,,,,,,,,,,,,,,,,,,,,,,,,,,,,,,,,,,,
,,,,,,,5ae1e99638df950001454b0e,2023-08-16_08h47.24.975,HF_wild_card,2022.2.4,Win32,59.95563283,5ae1e99638df950001454b0e,64d2fd46c836a06233681665,64dc7ea2eb61e76232e2ecd0,,,,,,,decisionTrl,resources/DP.BMP,resources/DR.BMP,Door1,0.149739583,0.013020833,1,0,0,1.071,optionRight,30,10840,5,35,0,35,0,1,,,,,,,,,,,,,,,,,,,,,,,,,,,,,,,,,,,,,,,
,,,,,,,5ae1e99638df950001454b0e,2023-08-16_08h47.24.975,HF_wild_card,2022.2.4,Win32,59.95563283,5ae1e99638df950001454b0e,64d2fd46c836a06233681665,64dc7ea2eb61e76232e2ecd0,,,,,,,decisionTrl,resources/DG.BMP,resources/DR.BMP,Door2,-0.173177083,0.009114583,1,0,0,0.5462,optionLeft,40,10880,5,36,0,36,0,1,,,,,,,,,,,,,,,,,,,,,,,,,,,,,,,,,,,,,,,
,,,,,,,5ae1e99638df950001454b0e,2023-08-16_08h47.24.975,HF_wild_card,2022.2.4,Win32,59.95563283,5ae1e99638df950001454b0e,64d2fd46c836a06233681665,64dc7ea2eb61e76232e2ecd0,,,,,,,decisionTrl,resources/DB.BMP,resources/DP.BMP,Door3,-0.28125,0.002604167,1,0,0,0.663,optionLeft,70,10950,5,37,0,37,0,1,,,,,,,,,,,,,,,,,,,,,,,,,,,,,,,,,,,,,,,
,,,,,,,5ae1e99638df950001454b0e,2023-08-16_08h47.24.975,HF_wild_card,2022.2.4,Win32,59.95563283,5ae1e99638df950001454b0e,64d2fd46c836a06233681665,64dc7ea2eb61e76232e2ecd0,,,,,,,decisionTrl,resources/DR.BMP,resources/DG.BMP,Door2,0.329427083,0.001302083,1,0,0,0.6424,optionRight,40,10990,5,38,0,38,0,1,,,,,,,,,,,,,,,,,,,,,,,,,,,,,,,,,,,,,,,
,,,,,,,5ae1e99638df950001454b0e,2023-08-16_08h47.24.975,HF_wild_card,2022.2.4,Win32,59.95563283,5ae1e99638df950001454b0e,64d2fd46c836a06233681665,64dc7ea2eb61e76232e2ecd0,,,,,,,sngl,resources/DR.BMP,resources/Empty.png,Door1,-0.25390625,-0.020833333,1,0,0,0.7955,optionLeft,30,11020,5,39,0,39,0,1,,,,,,,,,,,,,,,,,,,,,,,,,,,,,,,,,,,,,,,
,,,,,,,5ae1e99638df950001454b0e,2023-08-16_08h47.24.975,HF_wild_card,2022.2.4,Win32,59.95563283,5ae1e99638df950001454b0e,64d2fd46c836a06233681665,64dc7ea2eb61e76232e2ecd0,,,,,,,sngl,resources/DY.BMP,resources/Empty.png,Door4,-0.35546875,-0.01171875,1,0,0,0.7399,optionLeft,80,11100,5,40,0,40,0,1,,,,,,,,,,,,,,,,,,,,,,,,,,,,,,,,,,,,,,,
,,,,,,,5ae1e99638df950001454b0e,2023-08-16_08h47.24.975,HF_wild_card,2022.2.4,Win32,59.95563283,5ae1e99638df950001454b0e,64d2fd46c836a06233681665,64dc7ea2eb61e76232e2ecd0,,,,,,,decisionTrl,resources/DG.BMP,resources/DR.BMP,Door2,-0.41015625,-0.002604167,1,0,0,0.5822,optionLeft,40,11140,5,41,0,41,0,1,,,,,,,,,,,,,,,,,,,,,,,,,,,,,,,,,,,,,,,
,,,,,,,5ae1e99638df950001454b0e,2023-08-16_08h47.24.975,HF_wild_card,2022.2.4,Win32,59.95563283,5ae1e99638df950001454b0e,64d2fd46c836a06233681665,64dc7ea2eb61e76232e2ecd0,,,,,,,sngl,resources/Empty.png,resources/DY.BMP,Door4,0.493489583,0.13671875,1,0,0,1.2829,optionRight,60,11200,5,42,0,42,0,1,,,,,,,,,,,,,,,,,,,,,,,,,,,,,,,,,,,,,,,
,,,,,,,5ae1e99638df950001454b0e,2023-08-16_08h47.24.975,HF_wild_card,2022.2.4,Win32,59.95563283,5ae1e99638df950001454b0e,64d2fd46c836a06233681665,64dc7ea2eb61e76232e2ecd0,,,,,,,ctch,resources/DR.BMP,resources/DY.BMP,Door1,-0.274739583,-0.016927083,1,0,0,0.4171,optionLeft,30,11230,5,43,0,43,0,1,,,,,,,,,,,,,,,,,,,,,,,,,,,,,,,,,,,,,,,
,,,,,,,5ae1e99638df950001454b0e,2023-08-16_08h47.24.975,HF_wild_card,2022.2.4,Win32,59.95563283,5ae1e99638df950001454b0e,64d2fd46c836a06233681665,64dc7ea2eb61e76232e2ecd0,,,,,,,,,,,,,,,,,,,,,,,,,,4,0,4,0,1,,,,,,,,,,,,,,,,,,,,,,,,,,,,,,,,,,
,,,,,,,5ae1e99638df950001454b0e,2023-08-16_08h47.24.975,HF_wild_card,2022.2.4,Win32,59.95563283,5ae1e99638df950001454b0e,64d2fd46c836a06233681665,64dc7ea2eb61e76232e2ecd0,,,,,,,decisionTrl,resources/DY.BMP,resources/DB.BMP,Door4,-0.2265625,-0.123697917,1,0,0,0.4413,optionLeft,80,11310,6,0,0,0,0,1,,,,,,,,,,,,,,,,,,,,,,,,,,,,,,,,,,,,,,,
,,,,,,,5ae1e99638df950001454b0e,2023-08-16_08h47.24.975,HF_wild_card,2022.2.4,Win32,59.95563283,5ae1e99638df950001454b0e,64d2fd46c836a06233681665,64dc7ea2eb61e76232e2ecd0,,,,,,,ctch,resources/DB.BMP,resources/DG.BMP,Door2,0.282552083,-0.075520833,1,0,0,0.5742,optionRight,40,11350,6,1,0,1,0,1,,,,,,,,,,,,,,,,,,,,,,,,,,,,,,,,,,,,,,,
,,,,,,,5ae1e99638df950001454b0e,2023-08-16_08h47.24.975,HF_wild_card,2022.2.4,Win32,59.95563283,5ae1e99638df950001454b0e,64d2fd46c836a06233681665,64dc7ea2eb61e76232e2ecd0,,,,,,,ctch,resources/DG.BMP,resources/DB.BMP,Door2,-0.223958333,-0.037760417,1,0,0,0.5651,optionLeft,40,11390,6,2,0,2,0,1,,,,,,,,,,,,,,,,,,,,,,,,,,,,,,,,,,,,,,,
,,,,,,,5ae1e99638df950001454b0e,2023-08-16_08h47.24.975,HF_wild_card,2022.2.4,Win32,59.95563283,5ae1e99638df950001454b0e,64d2fd46c836a06233681665,64dc7ea2eb61e76232e2ecd0,,,,,,,decisionTrl,resources/DG.BMP,resources/DR.BMP,Door1,0.001302083,0.01953125,1,0,0,0.3921,optionRight,30,11420,6,3,0,3,0,1,,,,,,,,,,,,,,,,,,,,,,,,,,,,,,,,,,,,,,,
,,,,,,,5ae1e99638df950001454b0e,2023-08-16_08h47.24.975,HF_wild_card,2022.2.4,Win32,59.95563283,5ae1e99638df950001454b0e,64d2fd46c836a06233681665,64dc7ea2eb61e76232e2ecd0,,,,,,,ctch,resources/DG.BMP,resources/DB.BMP,Door2,-0.19140625,-0.016927083,1,0,0,0.4124,optionLeft,20,11440,6,4,0,4,0,1,,,,,,,,,,,,,,,,,,,,,,,,,,,,,,,,,,,,,,,
,,,,,,,5ae1e99638df950001454b0e,2023-08-16_08h47.24.975,HF_wild_card,2022.2.4,Win32,59.95563283,5ae1e99638df950001454b0e,64d2fd46c836a06233681665,64dc7ea2eb61e76232e2ecd0,,,,,,,decisionTrl,resources/DY.BMP,resources/DB.BMP,Door4,-0.16796875,-0.001302083,1,0,0,2.5258,optionLeft,60,11500,6,5,0,5,0,1,,,,,,,,,,,,,,,,,,,,,,,,,,,,,,,,,,,,,,,
,,,,,,,5ae1e99638df950001454b0e,2023-08-16_08h47.24.975,HF_wild_card,2022.2.4,Win32,59.95563283,5ae1e99638df950001454b0e,64d2fd46c836a06233681665,64dc7ea2eb61e76232e2ecd0,,,,,,,sngl,resources/Empty.png,resources/DP.BMP,WildCard_NonEx,0.30859375,0.010416667,1,0,0,0.5171,optionRight,55,11555,6,6,0,6,0,1,,,,,,,,,,,,,,,,,,,,,,,,,,,,,,,,,,,,,,,
,,,,,,,5ae1e99638df950001454b0e,2023-08-16_08h47.24.975,HF_wild_card,2022.2.4,Win32,59.95563283,5ae1e99638df950001454b0e,64d2fd46c836a06233681665,64dc7ea2eb61e76232e2ecd0,,,,,,,decisionTrl,resources/DR.BMP,resources/DG.BMP,Door1,-0.196614583,-0.045572917,1,0,0,0.4589,optionLeft,30,11585,6,7,0,7,0,1,,,,,,,,,,,,,,,,,,,,,,,,,,,,,,,,,,,,,,,
,,,,,,,5ae1e99638df950001454b0e,2023-08-16_08h47.24.975,HF_wild_card,2022.2.4,Win32,59.95563283,5ae1e99638df950001454b0e,64d2fd46c836a06233681665,64dc7ea2eb61e76232e2ecd0,,,,,,,sngl,resources/Empty.png,resources/DG.BMP,Door2,0.221354167,0.01953125,1,0,0,0.4279,optionRight,40,11625,6,8,0,8,0,1,,,,,,,,,,,,,,,,,,,,,,,,,,,,,,,,,,,,,,,
,,,,,,,5ae1e99638df950001454b0e,2023-08-16_08h47.24.975,HF_wild_card,2022.2.4,Win32,59.95563283,5ae1e99638df950001454b0e,64d2fd46c836a06233681665,64dc7ea2eb61e76232e2ecd0,,,,,,,sngl,resources/DP.BMP,resources/Empty.png,WildCard_NonEx,-0.106770833,0.016927083,1,0,0,0.4418,optionLeft,55,11680,6,9,0,9,0,1,,,,,,,,,,,,,,,,,,,,,,,,,,,,,,,,,,,,,,,
,,,,,,,5ae1e99638df950001454b0e,2023-08-16_08h47.24.975,HF_wild_card,2022.2.4,Win32,59.95563283,5ae1e99638df950001454b0e,64d2fd46c836a06233681665,64dc7ea2eb61e76232e2ecd0,,,,,,,decisionTrl,resources/DG.BMP,resources/DR.BMP,Door2,-0.154947917,0.006510417,1,0,0,0.5599,optionLeft,40,11720,6,10,0,10,0,1,,,,,,,,,,,,,,,,,,,,,,,,,,,,,,,,,,,,,,,
,,,,,,,5ae1e99638df950001454b0e,2023-08-16_08h47.24.975,HF_wild_card,2022.2.4,Win32,59.95563283,5ae1e99638df950001454b0e,64d2fd46c836a06233681665,64dc7ea2eb61e76232e2ecd0,,,,,,,sngl,resources/Empty.png,resources/DR.BMP,Door1,0.151041667,0.0234375,1,0,0,0.8322,optionRight,30,11750,6,11,0,11,0,1,,,,,,,,,,,,,,,,,,,,,,,,,,,,,,,,,,,,,,,
,,,,,,,5ae1e99638df950001454b0e,2023-08-16_08h47.24.975,HF_wild_card,2022.2.4,Win32,59.95563283,5ae1e99638df950001454b0e,64d2fd46c836a06233681665,64dc7ea2eb61e76232e2ecd0,,,,,,,decisionTrl,resources/DG.BMP,resources/DR.BMP,Door2,-0.141927083,-0.01953125,1,0,0,0.5912,optionLeft,20,11770,6,12,0,12,0,1,,,,,,,,,,,,,,,,,,,,,,,,,,,,,,,,,,,,,,,
,,,,,,,5ae1e99638df950001454b0e,2023-08-16_08h47.24.975,HF_wild_card,2022.2.4,Win32,59.95563283,5ae1e99638df950001454b0e,64d2fd46c836a06233681665,64dc7ea2eb61e76232e2ecd0,,,,,,,ctch,resources/DY.BMP,resources/DR.BMP,Door1,0.15234375,-0.010416667,1,0,0,0.7571,optionRight,30,11800,6,13,0,13,0,1,,,,,,,,,,,,,,,,,,,,,,,,,,,,,,,,,,,,,,,
,,,,,,,5ae1e99638df950001454b0e,2023-08-16_08h47.24.975,HF_wild_card,2022.2.4,Win32,59.95563283,5ae1e99638df950001454b0e,64d2fd46c836a06233681665,64dc7ea2eb61e76232e2ecd0,,,,,,,sngl,resources/DP.BMP,resources/Empty.png,WildCard_NonEx,-0.140625,-0.01953125,1,0,0,0.6616,optionLeft,45,11845,6,14,0,14,0,1,,,,,,,,,,,,,,,,,,,,,,,,,,,,,,,,,,,,,,,
,,,,,,,5ae1e99638df950001454b0e,2023-08-16_08h47.24.975,HF_wild_card,2022.2.4,Win32,59.95563283,5ae1e99638df950001454b0e,64d2fd46c836a06233681665,64dc7ea2eb61e76232e2ecd0,,,,,,,decisionTrl,resources/DP.BMP,resources/DB.BMP,Door3,0.1328125,-0.010416667,1,0,0,0.6265,optionRight,70,11915,6,15,0,15,0,1,,,,,,,,,,,,,,,,,,,,,,,,,,,,,,,,,,,,,,,
,,,,,,,5ae1e99638df950001454b0e,2023-08-16_08h47.24.975,HF_wild_card,2022.2.4,Win32,59.95563283,5ae1e99638df950001454b0e,64d2fd46c836a06233681665,64dc7ea2eb61e76232e2ecd0,,,,,,,decisionTrl,resources/DG.BMP,resources/DP.BMP,Door2,-0.194010417,-0.018229167,1,0,0,0.7585,optionLeft,40,11955,6,16,0,16,0,1,,,,,,,,,,,,,,,,,,,,,,,,,,,,,,,,,,,,,,,
,,,,,,,5ae1e99638df950001454b0e,2023-08-16_08h47.24.975,HF_wild_card,2022.2.4,Win32,59.95563283,5ae1e99638df950001454b0e,64d2fd46c836a06233681665,64dc7ea2eb61e76232e2ecd0,,,,,,,decisionTrl,resources/DB.BMP,resources/DP.BMP,WildCard_NonEx,0.221354167,0.048177083,1,0,0,0.792,optionRight,55,12010,6,17,0,17,0,1,,,,,,,,,,,,,,,,,,,,,,,,,,,,,,,,,,,,,,,
,,,,,,,5ae1e99638df950001454b0e,2023-08-16_08h47.24.975,HF_wild_card,2022.2.4,Win32,59.95563283,5ae1e99638df950001454b0e,64d2fd46c836a06233681665,64dc7ea2eb61e76232e2ecd0,,,,,,,decisionTrl,resources/DY.BMP,resources/DB.BMP,Door4,-0.188802083,-0.015625,1,0,0,0.9449,optionLeft,80,12090,6,18,0,18,0,1,,,,,,,,,,,,,,,,,,,,,,,,,,,,,,,,,,,,,,,
,,,,,,,5ae1e99638df950001454b0e,2023-08-16_08h47.24.975,HF_wild_card,2022.2.4,Win32,59.95563283,5ae1e99638df950001454b0e,64d2fd46c836a06233681665,64dc7ea2eb61e76232e2ecd0,,,,,,,sngl,resources/DG.BMP,resources/Empty.png,Door2,-0.143229167,0.02734375,1,0,0,0.6342,optionLeft,20,12110,6,19,0,19,0,1,,,,,,,,,,,,,,,,,,,,,,,,,,,,,,,,,,,,,,,
,,,,,,,5ae1e99638df950001454b0e,2023-08-16_08h47.24.975,HF_wild_card,2022.2.4,Win32,59.95563283,5ae1e99638df950001454b0e,64d2fd46c836a06233681665,64dc7ea2eb61e76232e2ecd0,,,,,,,decisionTrl,resources/DP.BMP,resources/DR.BMP,Door1,0.157552083,0.057291667,1,0,0,0.4971,optionRight,30,12140,6,20,0,20,0,1,,,,,,,,,,,,,,,,,,,,,,,,,,,,,,,,,,,,,,,
,,,,,,,5ae1e99638df950001454b0e,2023-08-16_08h47.24.975,HF_wild_card,2022.2.4,Win32,59.95563283,5ae1e99638df950001454b0e,64d2fd46c836a06233681665,64dc7ea2eb61e76232e2ecd0,,,,,,,decisionTrl,resources/DR.BMP,resources/DP.BMP,Door1,-0.12890625,0.002604167,1,0,0,5.5087,optionLeft,30,12170,6,21,0,21,0,1,,,,,,,,,,,,,,,,,,,,,,,,,,,,,,,,,,,,,,,
,,,,,,,5ae1e99638df950001454b0e,2023-08-16_08h47.24.975,HF_wild_card,2022.2.4,Win32,59.95563283,5ae1e99638df950001454b0e,64d2fd46c836a06233681665,64dc7ea2eb61e76232e2ecd0,,,,,,,decisionTrl,resources/DR.BMP,resources/DG.BMP,Door2,0.127604167,0.045572917,1,0,0,1.0088,optionRight,40,12210,6,22,0,22,0,1,,,,,,,,,,,,,,,,,,,,,,,,,,,,,,,,,,,,,,,
,,,,,,,5ae1e99638df950001454b0e,2023-08-16_08h47.24.975,HF_wild_card,2022.2.4,Win32,59.95563283,5ae1e99638df950001454b0e,64d2fd46c836a06233681665,64dc7ea2eb61e76232e2ecd0,,,,,,,decisionTrl,resources/DG.BMP,resources/DR.BMP,Door1,0.161458333,0.010416667,1,0,0,0.7343,optionRight,30,12240,6,23,0,23,0,1,,,,,,,,,,,,,,,,,,,,,,,,,,,,,,,,,,,,,,,
,,,,,,,5ae1e99638df950001454b0e,2023-08-16_08h47.24.975,HF_wild_card,2022.2.4,Win32,59.95563283,5ae1e99638df950001454b0e,64d2fd46c836a06233681665,64dc7ea2eb61e76232e2ecd0,,,,,,,decisionTrl,resources/DB.BMP,resources/DY.BMP,Door3,-0.208333333,-0.03125,1,0,0,0.7129,optionLeft,70,12310,6,24,0,24,0,1,,,,,,,,,,,,,,,,,,,,,,,,,,,,,,,,,,,,,,,
,,,,,,,5ae1e99638df950001454b0e,2023-08-16_08h47.24.975,HF_wild_card,2022.2.4,Win32,59.95563283,5ae1e99638df950001454b0e,64d2fd46c836a06233681665,64dc7ea2eb61e76232e2ecd0,,,,,,,decisionTrl,resources/DB.BMP,resources/DY.BMP,Door3,-0.209635417,-0.05078125,1,0,0,0.6093,optionLeft,70,12380,6,25,0,25,0,1,,,,,,,,,,,,,,,,,,,,,,,,,,,,,,,,,,,,,,,
,,,,,,,5ae1e99638df950001454b0e,2023-08-16_08h47.24.975,HF_wild_card,2022.2.4,Win32,59.95563283,5ae1e99638df950001454b0e,64d2fd46c836a06233681665,64dc7ea2eb61e76232e2ecd0,,,,,,,decisionTrl,resources/DB.BMP,resources/DY.BMP,Door4,0.239583333,0.03125,1,0,0,0.6259,optionRight,80,12460,6,26,0,26,0,1,,,,,,,,,,,,,,,,,,,,,,,,,,,,,,,,,,,,,,,
,,,,,,,5ae1e99638df950001454b0e,2023-08-16_08h47.24.975,HF_wild_card,2022.2.4,Win32,59.95563283,5ae1e99638df950001454b0e,64d2fd46c836a06233681665,64dc7ea2eb61e76232e2ecd0,,,,,,,ctch,resources/DR.BMP,resources/DY.BMP,Door1,-0.095052083,-0.026041667,1,0,0,0.6629,optionLeft,30,12490,6,27,0,27,0,1,,,,,,,,,,,,,,,,,,,,,,,,,,,,,,,,,,,,,,,
,,,,,,,5ae1e99638df950001454b0e,2023-08-16_08h47.24.975,HF_wild_card,2022.2.4,Win32,59.95563283,5ae1e99638df950001454b0e,64d2fd46c836a06233681665,64dc7ea2eb61e76232e2ecd0,,,,,,,sngl,resources/DR.BMP,resources/Empty.png,Door1,-0.171875,-0.041666667,1,0,0,0.6533,optionLeft,30,12520,6,28,0,28,0,1,,,,,,,,,,,,,,,,,,,,,,,,,,,,,,,,,,,,,,,
,,,,,,,5ae1e99638df950001454b0e,2023-08-16_08h47.24.975,HF_wild_card,2022.2.4,Win32,59.95563283,5ae1e99638df950001454b0e,64d2fd46c836a06233681665,64dc7ea2eb61e76232e2ecd0,,,,,,,sngl,resources/Empty.png,resources/DY.BMP,Door4,0.138020833,0.024739583,1,0,0,1.9768,optionRight,80,12600,6,29,0,29,0,1,,,,,,,,,,,,,,,,,,,,,,,,,,,,,,,,,,,,,,,
,,,,,,,5ae1e99638df950001454b0e,2023-08-16_08h47.24.975,HF_wild_card,2022.2.4,Win32,59.95563283,5ae1e99638df950001454b0e,64d2fd46c836a06233681665,64dc7ea2eb61e76232e2ecd0,,,,,,,decisionTrl,resources/DY.BMP,resources/DP.BMP,WildCard_NonEx,0.127604167,0.026041667,1,0,0,4.7152,optionRight,45,12645,6,30,0,30,0,1,,,,,,,,,,,,,,,,,,,,,,,,,,,,,,,,,,,,,,,
,,,,,,,5ae1e99638df950001454b0e,2023-08-16_08h47.24.975,HF_wild_card,2022.2.4,Win32,59.95563283,5ae1e99638df950001454b0e,64d2fd46c836a06233681665,64dc7ea2eb61e76232e2ecd0,,,,,,,decisionTrl,resources/DR.BMP,resources/DG.BMP,Door1,-0.1640625,-0.037760417,1,0,0,0.4828,optionLeft,30,12675,6,31,0,31,0,1,,,,,,,,,,,,,,,,,,,,,,,,,,,,,,,,,,,,,,,
,,,,,,,5ae1e99638df950001454b0e,2023-08-16_08h47.24.975,HF_wild_card,2022.2.4,Win32,59.95563283,5ae1e99638df950001454b0e,64d2fd46c836a06233681665,64dc7ea2eb61e76232e2ecd0,,,,,,,sngl,resources/Empty.png,resources/DP.BMP,WildCard_NonEx,0.174479167,-0.009114583,1,0,0,0.4245,optionRight,45,12720,6,32,0,32,0,1,,,,,,,,,,,,,,,,,,,,,,,,,,,,,,,,,,,,,,,
,,,,,,,5ae1e99638df950001454b0e,2023-08-16_08h47.24.975,HF_wild_card,2022.2.4,Win32,59.95563283,5ae1e99638df950001454b0e,64d2fd46c836a06233681665,64dc7ea2eb61e76232e2ecd0,,,,,,,decisionTrl,resources/DY.BMP,resources/DB.BMP,Door3,0.17578125,-0.002604167,1,0,0,0.5775,optionRight,70,12790,6,33,0,33,0,1,,,,,,,,,,,,,,,,,,,,,,,,,,,,,,,,,,,,,,,
,,,,,,,5ae1e99638df950001454b0e,2023-08-16_08h47.24.975,HF_wild_card,2022.2.4,Win32,59.95563283,5ae1e99638df950001454b0e,64d2fd46c836a06233681665,64dc7ea2eb61e76232e2ecd0,,,,,,,sngl,resources/DB.BMP,resources/Empty.png,Door3,-0.1015625,-0.00390625,1,0,0,0.6607,optionLeft,70,12860,6,34,0,34,0,1,,,,,,,,,,,,,,,,,,,,,,,,,,,,,,,,,,,,,,,
,,,,,,,5ae1e99638df950001454b0e,2023-08-16_08h47.24.975,HF_wild_card,2022.2.4,Win32,59.95563283,5ae1e99638df950001454b0e,64d2fd46c836a06233681665,64dc7ea2eb61e76232e2ecd0,,,,,,,sngl,resources/Empty.png,resources/DB.BMP,Door3,0.08984375,0.022135417,1,0,0,0.7759,optionRight,70,12930,6,35,0,35,0,1,,,,,,,,,,,,,,,,,,,,,,,,,,,,,,,,,,,,,,,
,,,,,,,5ae1e99638df950001454b0e,2023-08-16_08h47.24.975,HF_wild_card,2022.2.4,Win32,59.95563283,5ae1e99638df950001454b0e,64d2fd46c836a06233681665,64dc7ea2eb61e76232e2ecd0,,,,,,,ctch,resources/DY.BMP,resources/DR.BMP,Door4,-0.104166667,-0.01953125,1,0,0,0.6917,optionLeft,80,13010,6,36,0,36,0,1,,,,,,,,,,,,,,,,,,,,,,,,,,,,,,,,,,,,,,,
,,,,,,,5ae1e99638df950001454b0e,2023-08-16_08h47.24.975,HF_wild_card,2022.2.4,Win32,59.95563283,5ae1e99638df950001454b0e,64d2fd46c836a06233681665,64dc7ea2eb61e76232e2ecd0,,,,,,,ctch,resources/DB.BMP,resources/DG.BMP,Door2,0.151041667,0.028645833,1,0,0,0.8832,optionRight,40,13050,6,37,0,37,0,1,,,,,,,,,,,,,,,,,,,,,,,,,,,,,,,,,,,,,,,
,,,,,,,5ae1e99638df950001454b0e,2023-08-16_08h47.24.975,HF_wild_card,2022.2.4,Win32,59.95563283,5ae1e99638df950001454b0e,64d2fd46c836a06233681665,64dc7ea2eb61e76232e2ecd0,,,,,,,decisionTrl,resources/DB.BMP,resources/DY.BMP,Door3,-0.143229167,-0.015625,1,0,0,0.9945,optionLeft,70,13120,6,38,0,38,0,1,,,,,,,,,,,,,,,,,,,,,,,,,,,,,,,,,,,,,,,
,,,,,,,5ae1e99638df950001454b0e,2023-08-16_08h47.24.975,HF_wild_card,2022.2.4,Win32,59.95563283,5ae1e99638df950001454b0e,64d2fd46c836a06233681665,64dc7ea2eb61e76232e2ecd0,,,,,,,decisionTrl,resources/DP.BMP,resources/DY.BMP,WildCard_NonEx,-0.1640625,-0.03515625,1,0,0,0.6591,optionLeft,45,13165,6,39,0,39,0,1,,,,,,,,,,,,,,,,,,,,,,,,,,,,,,,,,,,,,,,
,,,,,,,5ae1e99638df950001454b0e,2023-08-16_08h47.24.975,HF_wild_card,2022.2.4,Win32,59.95563283,5ae1e99638df950001454b0e,64d2fd46c836a06233681665,64dc7ea2eb61e76232e2ecd0,,,,,,,decisionTrl,resources/DR.BMP,resources/DG.BMP,Door1,-0.182291667,-0.015625,1,0,0,0.9788,optionLeft,30,13195,6,40,0,40,0,1,,,,,,,,,,,,,,,,,,,,,,,,,,,,,,,,,,,,,,,
,,,,,,,5ae1e99638df950001454b0e,2023-08-16_08h47.24.975,HF_wild_card,2022.2.4,Win32,59.95563283,5ae1e99638df950001454b0e,64d2fd46c836a06233681665,64dc7ea2eb61e76232e2ecd0,,,,,,,ctch,resources/DR.BMP,resources/DY.BMP,Door1,-0.15234375,0.001302083,1,0,0,0.9233,optionLeft,30,13225,6,41,0,41,0,1,,,,,,,,,,,,,,,,,,,,,,,,,,,,,,,,,,,,,,,
,,,,,,,5ae1e99638df950001454b0e,2023-08-16_08h47.24.975,HF_wild_card,2022.2.4,Win32,59.95563283,5ae1e99638df950001454b0e,64d2fd46c836a06233681665,64dc7ea2eb61e76232e2ecd0,,,,,,,sngl,resources/DY.BMP,resources/Empty.png,Door4,-0.119791667,-0.02734375,1,0,0,0.6143,optionLeft,60,13285,6,42,0,42,0,1,,,,,,,,,,,,,,,,,,,,,,,,,,,,,,,,,,,,,,,
,,,,,,,5ae1e99638df950001454b0e,2023-08-16_08h47.24.975,HF_wild_card,2022.2.4,Win32,59.95563283,5ae1e99638df950001454b0e,64d2fd46c836a06233681665,64dc7ea2eb61e76232e2ecd0,,,,,,,decisionTrl,resources/DP.BMP,resources/DG.BMP,WildCard_NonEx,-0.143229167,-0.01171875,1,0,0,0.8578,optionLeft,45,13330,6,43,0,43,0,1,,,,,,,,,,,,,,,,,,,,,,,,,,,,,,,,,,,,,,,
,,,,,,,5ae1e99638df950001454b0e,2023-08-16_08h47.24.975,HF_wild_card,2022.2.4,Win32,59.95563283,5ae1e99638df950001454b0e,64d2fd46c836a06233681665,64dc7ea2eb61e76232e2ecd0,,,,,,,,,,,,,,,,,,,,,,,,,,5,0,5,0,1,,,,,,,,,,,,,,,,,,,,,,,,,,,,,,,,,,
,,,,,,,5ae1e99638df950001454b0e,2023-08-16_08h47.24.975,HF_wild_card,2022.2.4,Win32,59.95563283,5ae1e99638df950001454b0e,64d2fd46c836a06233681665,64dc7ea2eb61e76232e2ecd0,,,,,,,ctch,resources/DB.BMP,resources/DG.BMP,Door3,-0.158854167,-0.059895833,1,0,0,0.5464,optionLeft,70,13400,7,0,0,0,0,1,,,,,,,,,,,,,,,,,,,,,,,,,,,,,,,,,,,,,,,
,,,,,,,5ae1e99638df950001454b0e,2023-08-16_08h47.24.975,HF_wild_card,2022.2.4,Win32,59.95563283,5ae1e99638df950001454b0e,64d2fd46c836a06233681665,64dc7ea2eb61e76232e2ecd0,,,,,,,decisionTrl,resources/DB.BMP,resources/DY.BMP,Door4,0.12109375,-0.024739583,1,0,0,0.4473,optionRight,60,13460,7,1,0,1,0,1,,,,,,,,,,,,,,,,,,,,,,,,,,,,,,,,,,,,,,,
,,,,,,,5ae1e99638df950001454b0e,2023-08-16_08h47.24.975,HF_wild_card,2022.2.4,Win32,59.95563283,5ae1e99638df950001454b0e,64d2fd46c836a06233681665,64dc7ea2eb61e76232e2ecd0,,,,,,,ctch,resources/DG.BMP,resources/DB.BMP,Door2,-0.139322917,-0.033854167,1,0,0,0.4929,optionLeft,40,13500,7,2,0,2,0,1,,,,,,,,,,,,,,,,,,,,,,,,,,,,,,,,,,,,,,,
,,,,,,,5ae1e99638df950001454b0e,2023-08-16_08h47.24.975,HF_wild_card,2022.2.4,Win32,59.95563283,5ae1e99638df950001454b0e,64d2fd46c836a06233681665,64dc7ea2eb61e76232e2ecd0,,,,,,,decisionTrl,resources/DB.BMP,resources/DY.BMP,Door3,-0.143229167,0.015625,1,0,0,0.713,optionLeft,70,13570,7,3,0,3,0,1,,,,,,,,,,,,,,,,,,,,,,,,,,,,,,,,,,,,,,,
,,,,,,,5ae1e99638df950001454b0e,2023-08-16_08h47.24.975,HF_wild_card,2022.2.4,Win32,59.95563283,5ae1e99638df950001454b0e,64d2fd46c836a06233681665,64dc7ea2eb61e76232e2ecd0,,,,,,,ctch,resources/DB.BMP,resources/DG.BMP,Door3,-0.221354167,-0.00390625,1,0,0,0.3947,optionLeft,70,13640,7,4,0,4,0,1,,,,,,,,,,,,,,,,,,,,,,,,,,,,,,,,,,,,,,,
,,,,,,,5ae1e99638df950001454b0e,2023-08-16_08h47.24.975,HF_wild_card,2022.2.4,Win32,59.95563283,5ae1e99638df950001454b0e,64d2fd46c836a06233681665,64dc7ea2eb61e76232e2ecd0,,,,,,,decisionTrl,resources/DG.BMP,resources/DR.BMP,Door2,-0.24609375,-0.0234375,1,0,0,0.4455,optionLeft,40,13680,7,5,0,5,0,1,,,,,,,,,,,,,,,,,,,,,,,,,,,,,,,,,,,,,,,
,,,,,,,5ae1e99638df950001454b0e,2023-08-16_08h47.24.975,HF_wild_card,2022.2.4,Win32,59.95563283,5ae1e99638df950001454b0e,64d2fd46c836a06233681665,64dc7ea2eb61e76232e2ecd0,,,,,,,decisionTrl,resources/DG.BMP,resources/DR.BMP,Door2,-0.135416667,-0.013020833,1,0,0,0.4297,optionLeft,40,13720,7,6,0,6,0,1,,,,,,,,,,,,,,,,,,,,,,,,,,,,,,,,,,,,,,,
,,,,,,,5ae1e99638df950001454b0e,2023-08-16_08h47.24.975,HF_wild_card,2022.2.4,Win32,59.95563283,5ae1e99638df950001454b0e,64d2fd46c836a06233681665,64dc7ea2eb61e76232e2ecd0,,,,,,,decisionTrl,resources/DR.BMP,resources/DG.BMP,Door1,-0.286458333,-0.046875,1,0,0,0.4609,optionLeft,30,13750,7,7,0,7,0,1,,,,,,,,,,,,,,,,,,,,,,,,,,,,,,,,,,,,,,,
,,,,,,,5ae1e99638df950001454b0e,2023-08-16_08h47.24.975,HF_wild_card,2022.2.4,Win32,59.95563283,5ae1e99638df950001454b0e,64d2fd46c836a06233681665,64dc7ea2eb61e76232e2ecd0,,,,,,,ctch,resources/DY.BMP,resources/DR.BMP,Door4,-0.272135417,-0.022135417,1,0,0,0.5119,optionLeft,60,13810,7,8,0,8,0,1,,,,,,,,,,,,,,,,,,,,,,,,,,,,,,,,,,,,,,,
,,,,,,,5ae1e99638df950001454b0e,2023-08-16_08h47.24.975,HF_wild_card,2022.2.4,Win32,59.95563283,5ae1e99638df950001454b0e,64d2fd46c836a06233681665,64dc7ea2eb61e76232e2ecd0,,,,,,,decisionTrl,resources/DB.BMP,resources/DY.BMP,Door3,-0.259114583,-0.044270833,1,0,0,0.4782,optionLeft,70,13880,7,9,0,9,0,1,,,,,,,,,,,,,,,,,,,,,,,,,,,,,,,,,,,,,,,
,,,,,,,5ae1e99638df950001454b0e,2023-08-16_08h47.24.975,HF_wild_card,2022.2.4,Win32,59.95563283,5ae1e99638df950001454b0e,64d2fd46c836a06233681665,64dc7ea2eb61e76232e2ecd0,,,,,,,ctch,resources/DR.BMP,resources/DY.BMP,Door1,-0.1796875,0.026041667,1,0,0,0.656,optionLeft,30,13910,7,10,0,10,0,1,,,,,,,,,,,,,,,,,,,,,,,,,,,,,,,,,,,,,,,
,,,,,,,5ae1e99638df950001454b0e,2023-08-16_08h47.24.975,HF_wild_card,2022.2.4,Win32,59.95563283,5ae1e99638df950001454b0e,64d2fd46c836a06233681665,64dc7ea2eb61e76232e2ecd0,,,,,,,ctch,resources/DB.BMP,resources/DG.BMP,Door3,-0.270833333,0.016927083,1,0,0,0.6771,optionLeft,70,13980,7,11,0,11,0,1,,,,,,,,,,,,,,,,,,,,,,,,,,,,,,,,,,,,,,,
,,,,,,,5ae1e99638df950001454b0e,2023-08-16_08h47.24.975,HF_wild_card,2022.2.4,Win32,59.95563283,5ae1e99638df950001454b0e,64d2fd46c836a06233681665,64dc7ea2eb61e76232e2ecd0,,,,,,,decisionTrl,resources/DB.BMP,resources/DY.BMP,Door3,-0.16015625,-0.002604167,1,0,0,0.6951,optionLeft,70,14050,7,12,0,12,0,1,,,,,,,,,,,,,,,,,,,,,,,,,,,,,,,,,,,,,,,
,,,,,,,5ae1e99638df950001454b0e,2023-08-16_08h47.24.975,HF_wild_card,2022.2.4,Win32,59.95563283,5ae1e99638df950001454b0e,64d2fd46c836a06233681665,64dc7ea2eb61e76232e2ecd0,,,,,,,decisionTrl,resources/DY.BMP,resources/DB.BMP,Door4,-0.15234375,-0.009114583,1,0,0,0.6599,optionLeft,80,14130,7,13,0,13,0,1,,,,,,,,,,,,,,,,,,,,,,,,,,,,,,,,,,,,,,,
,,,,,,,5ae1e99638df950001454b0e,2023-08-16_08h47.24.975,HF_wild_card,2022.2.4,Win32,59.95563283,5ae1e99638df950001454b0e,64d2fd46c836a06233681665,64dc7ea2eb61e76232e2ecd0,,,,,,,decisionTrl,resources/DY.BMP,resources/DB.BMP,Door4,-0.209635417,-0.052083333,1,0,0,0.6569,optionLeft,80,14210,7,14,0,14,0,1,,,,,,,,,,,,,,,,,,,,,,,,,,,,,,,,,,,,,,,
,,,,,,,5ae1e99638df950001454b0e,2023-08-16_08h47.24.975,HF_wild_card,2022.2.4,Win32,59.95563283,5ae1e99638df950001454b0e,64d2fd46c836a06233681665,64dc7ea2eb61e76232e2ecd0,,,,,,,ctch,resources/DY.BMP,resources/DR.BMP,Door1,0.13671875,0.001302083,1,0,0,0.5629,optionRight,30,14240,7,15,0,15,0,1,,,,,,,,,,,,,,,,,,,,,,,,,,,,,,,,,,,,,,,
,,,,,,,5ae1e99638df950001454b0e,2023-08-16_08h47.24.975,HF_wild_card,2022.2.4,Win32,59.95563283,5ae1e99638df950001454b0e,64d2fd46c836a06233681665,64dc7ea2eb61e76232e2ecd0,,,,,,,decisionTrl,resources/DB.BMP,resources/DY.BMP,Door4,0.147135417,0.020833333,1,0,0,0.5617,optionRight,60,14300,7,16,0,16,0,1,,,,,,,,,,,,,,,,,,,,,,,,,,,,,,,,,,,,,,,
,,,,,,,5ae1e99638df950001454b0e,2023-08-16_08h47.24.975,HF_wild_card,2022.2.4,Win32,59.95563283,5ae1e99638df950001454b0e,64d2fd46c836a06233681665,64dc7ea2eb61e76232e2ecd0,,,,,,,decisionTrl,resources/DR.BMP,resources/DG.BMP,Door1,-0.127604167,0.001302083,1,0,0,0.6446,optionLeft,30,14330,7,17,0,17,0,1,,,,,,,,,,,,,,,,,,,,,,,,,,,,,,,,,,,,,,,
,,,,,,,5ae1e99638df950001454b0e,2023-08-16_08h47.24.975,HF_wild_card,2022.2.4,Win32,59.95563283,5ae1e99638df950001454b0e,64d2fd46c836a06233681665,64dc7ea2eb61e76232e2ecd0,,,,,,,decisionTrl,resources/DB.BMP,resources/DY.BMP,Door4,0.208333333,0.022135417,1,0,0,0.7285,optionRight,80,14410,7,18,0,18,0,1,,,,,,,,,,,,,,,,,,,,,,,,,,,,,,,,,,,,,,,
,,,,,,,5ae1e99638df950001454b0e,2023-08-16_08h47.24.975,HF_wild_card,2022.2.4,Win32,59.95563283,5ae1e99638df950001454b0e,64d2fd46c836a06233681665,64dc7ea2eb61e76232e2ecd0,,,,,,,decisionTrl,resources/DY.BMP,resources/DB.BMP,Door4,-0.1171875,0.018229167,1,0,0,0.612,optionLeft,60,14470,7,19,0,19,0,1,,,,,,,,,,,,,,,,,,,,,,,,,,,,,,,,,,,,,,,
,,,,,,,5ae1e99638df950001454b0e,2023-08-16_08h47.24.975,HF_wild_card,2022.2.4,Win32,59.95563283,5ae1e99638df950001454b0e,64d2fd46c836a06233681665,64dc7ea2eb61e76232e2ecd0,,,,,,,decisionTrl,resources/DR.BMP,resources/DG.BMP,Door2,0.171875,0.0234375,1,0,0,0.6431,optionRight,20,14490,7,20,0,20,0,1,,,,,,,,,,,,,,,,,,,,,,,,,,,,,,,,,,,,,,,
,,,,,,,5ae1e99638df950001454b0e,2023-08-16_08h47.24.975,HF_wild_card,2022.2.4,Win32,59.95563283,5ae1e99638df950001454b0e,64d2fd46c836a06233681665,64dc7ea2eb61e76232e2ecd0,,,,,,,ctch,resources/DY.BMP,resources/DR.BMP,Door4,-0.13671875,0.026041667,1,0,0,0.678,optionLeft,80,14570,7,21,0,21,0,1,,,,,,,,,,,,,,,,,,,,,,,,,,,,,,,,,,,,,,,
