Condition,Low fixed image (Door1),Low risky image (Door2),High fixed image (Door3),High risky image (Door4),Extreme Wild Card,NonExtreme Wild Card,,date,expName,psychopyVersion,OS,frameRate,PROLIFIC_PID,STUDY_ID,SESSION_ID,mouse_2.x,mouse_2.y,mouse_2.leftButton,mouse_2.midButton,mouse_2.rightButton,mouse_2.clicked_name,Trial Type,Left Option Image,Right Option Image,Chosen Door,mouse.x,mouse.y,mouse.leftButton,mouse.midButton,mouse.rightButton,mouse.time,mouse.clicked_name,Feedback,Cumulative Reward,Block,trial.thisRepN,trial.thisTrialN,trial.thisN,trial.thisIndex,trial.ran,blocks.thisRepN,blocks.thisTrialN,blocks.thisN,blocks.thisIndex,blocks.ran,Money conversion,First Outcome Reported,Shown Door (First Outcome),Displayed Image (First Outcome),outcomes.thisRepN,outcomes.thisTrialN,outcomes.thisN,outcomes.thisIndex,outcomes.ran,judgments.thisRepN,judgments.thisTrialN,judgments.thisN,judgments.thisIndex,judgments.ran,freqMouse.x,freqMouse.y,freqMouse.leftButton,freqMouse.midButton,freqMouse.rightButton,freqMouse.clicked_name,FQJ for first outcome,FQJ for second outcome,Shown Door,Displayed Image,trials.thisRepN,trials.thisTrialN,trials.thisN,trials.thisIndex,trials.ran,judgBlock.thisRepN,judgBlock.thisTrialN,judgBlock.thisN,judgBlock.thisIndex,judgBlock.ran
1,resources/DP.BMP,resources/DB.BMP,resources/DG.BMP,resources/DBN.BMP,resources/DY.BMP,resources/DR.BMP,5e865fdcef7ca60d3266f76a,2023-08-16_09h06.28.155,HF_wild_card,2022.2.4,MacIntel,62.5,5e865fdcef7ca60d3266f76a,64d2fd46c836a06233681665,64dc7ecad5690df31c4e572c,,,,,,,,,,,,,,,,,,,,,,,,,,,,,,,,,,,,,,,,,,,,,,,,,,,,,,,,,,,,,,,,
,,,,,,,5e865fdcef7ca60d3266f76a,2023-08-16_09h06.28.155,HF_wild_card,2022.2.4,MacIntel,62.5,5e865fdcef7ca60d3266f76a,64d2fd46c836a06233681665,64dc7ecad5690df31c4e572c,0.022222222,-0.424444444,1,0,0,agree,,,,,,,,,,,,,,,,,,,,,,,,,,,,,,,,,,,,,,,,,,,,,,,,,,,,,,,,,,
,,,,,,,5e865fdcef7ca60d3266f76a,2023-08-16_09h06.28.155,HF_wild_card,2022.2.4,MacIntel,62.5,5e865fdcef7ca60d3266f76a,64d2fd46c836a06233681665,64dc7ecad5690df31c4e572c,,,,,,,,,,,,,,,,,,,,,,,,,,,,,,,,,,,,,,,,,,,,,,,,,,,,,,,,,,,,,,,,
,,,,,,,5e865fdcef7ca60d3266f76a,2023-08-16_09h06.28.155,HF_wild_card,2022.2.4,MacIntel,62.5,5e865fdcef7ca60d3266f76a,64d2fd46c836a06233681665,64dc7ecad5690df31c4e572c,,,,,,,decisionTrl,resources/DG.BMP,resources/DBN.BMP,Door3,-0.16,-0.211111111,1,0,0,0.89,optionLeft,70,70,1,0,0,0,0,1,,,,,,,,,,,,,,,,,,,,,,,,,,,,,,,,,,,,,,,
,,,,,,,5e865fdcef7ca60d3266f76a,2023-08-16_09h06.28.155,HF_wild_card,2022.2.4,MacIntel,62.5,5e865fdcef7ca60d3266f76a,64d2fd46c836a06233681665,64dc7ecad5690df31c4e572c,,,,,,,ctch,resources/DB.BMP,resources/DG.BMP,Door3,0.061111111,-0.083333333,1,0,0,1.363,optionRight,70,140,1,1,0,1,0,1,,,,,,,,,,,,,,,,,,,,,,,,,,,,,,,,,,,,,,,
,,,,,,,5e865fdcef7ca60d3266f76a,2023-08-16_09h06.28.155,HF_wild_card,2022.2.4,MacIntel,62.5,5e865fdcef7ca60d3266f76a,64d2fd46c836a06233681665,64dc7ecad5690df31c4e572c,,,,,,,decisionTrl,resources/DG.BMP,resources/DR.BMP,Door3,-0.16,-0.002222222,1,0,0,1.162,optionLeft,70,210,1,2,0,2,0,1,,,,,,,,,,,,,,,,,,,,,,,,,,,,,,,,,,,,,,,
,,,,,,,5e865fdcef7ca60d3266f76a,2023-08-16_09h06.28.155,HF_wild_card,2022.2.4,MacIntel,62.5,5e865fdcef7ca60d3266f76a,64d2fd46c836a06233681665,64dc7ecad5690df31c4e572c,,,,,,,sngl,resources/DR.BMP,resources/Empty.png,WildCard_NonEx,-0.185555556,-0.056666667,1,0,0,0.631,optionLeft,45,255,1,3,0,3,0,1,,,,,,,,,,,,,,,,,,,,,,,,,,,,,,,,,,,,,,,
,,,,,,,5e865fdcef7ca60d3266f76a,2023-08-16_09h06.28.155,HF_wild_card,2022.2.4,MacIntel,62.5,5e865fdcef7ca60d3266f76a,64d2fd46c836a06233681665,64dc7ecad5690df31c4e572c,,,,,,,decisionTrl,resources/DP.BMP,resources/DB.BMP,Door2,0.023333333,-0.104444444,1,0,0,2.765,optionRight,40,295,1,4,0,4,0,1,,,,,,,,,,,,,,,,,,,,,,,,,,,,,,,,,,,,,,,
,,,,,,,5e865fdcef7ca60d3266f76a,2023-08-16_09h06.28.155,HF_wild_card,2022.2.4,MacIntel,62.5,5e865fdcef7ca60d3266f76a,64d2fd46c836a06233681665,64dc7ecad5690df31c4e572c,,,,,,,decisionTrl,resources/DP.BMP,resources/DR.BMP,Door1,-0.121111111,-0.031111111,1,0,0,0.831,optionLeft,30,325,1,5,0,5,0,1,,,,,,,,,,,,,,,,,,,,,,,,,,,,,,,,,,,,,,,
,,,,,,,5e865fdcef7ca60d3266f76a,2023-08-16_09h06.28.155,HF_wild_card,2022.2.4,MacIntel,62.5,5e865fdcef7ca60d3266f76a,64d2fd46c836a06233681665,64dc7ecad5690df31c4e572c,,,,,,,ctch,resources/DBN.BMP,resources/DP.BMP,Door1,0.245555556,-0.058888889,1,0,0,0.994,optionRight,30,355,1,6,0,6,0,1,,,,,,,,,,,,,,,,,,,,,,,,,,,,,,,,,,,,,,,
,,,,,,,5e865fdcef7ca60d3266f76a,2023-08-16_09h06.28.155,HF_wild_card,2022.2.4,MacIntel,62.5,5e865fdcef7ca60d3266f76a,64d2fd46c836a06233681665,64dc7ecad5690df31c4e572c,,,,,,,decisionTrl,resources/DG.BMP,resources/DBN.BMP,Door4,0.214444444,-0.013333333,1,0,0,0.779,optionRight,60,415,1,7,0,7,0,1,,,,,,,,,,,,,,,,,,,,,,,,,,,,,,,,,,,,,,,
,,,,,,,5e865fdcef7ca60d3266f76a,2023-08-16_09h06.28.155,HF_wild_card,2022.2.4,MacIntel,62.5,5e865fdcef7ca60d3266f76a,64d2fd46c836a06233681665,64dc7ecad5690df31c4e572c,,,,,,,ctch,resources/DB.BMP,resources/DG.BMP,Door3,0.154444444,-0.044444444,1,0,0,2.01,optionRight,70,485,1,8,0,8,0,1,,,,,,,,,,,,,,,,,,,,,,,,,,,,,,,,,,,,,,,
,,,,,,,5e865fdcef7ca60d3266f76a,2023-08-16_09h06.28.155,HF_wild_card,2022.2.4,MacIntel,62.5,5e865fdcef7ca60d3266f76a,64d2fd46c836a06233681665,64dc7ecad5690df31c4e572c,,,,,,,decisionTrl,resources/DG.BMP,resources/DBN.BMP,Door3,-0.177777778,-0.04,1,0,0,0.68,optionLeft,70,555,1,9,0,9,0,1,,,,,,,,,,,,,,,,,,,,,,,,,,,,,,,,,,,,,,,
,,,,,,,5e865fdcef7ca60d3266f76a,2023-08-16_09h06.28.155,HF_wild_card,2022.2.4,MacIntel,62.5,5e865fdcef7ca60d3266f76a,64d2fd46c836a06233681665,64dc7ecad5690df31c4e572c,,,,,,,decisionTrl,resources/DP.BMP,resources/DB.BMP,Door1,-0.178888889,-0.032222222,1,0,0,2.496,optionLeft,30,585,1,10,0,10,0,1,,,,,,,,,,,,,,,,,,,,,,,,,,,,,,,,,,,,,,,
,,,,,,,5e865fdcef7ca60d3266f76a,2023-08-16_09h06.28.155,HF_wild_card,2022.2.4,MacIntel,62.5,5e865fdcef7ca60d3266f76a,64d2fd46c836a06233681665,64dc7ecad5690df31c4e572c,,,,,,,decisionTrl,resources/DB.BMP,resources/DP.BMP,Door1,0.232222222,-0.037777778,1,0,0,1.329,optionRight,30,615,1,11,0,11,0,1,,,,,,,,,,,,,,,,,,,,,,,,,,,,,,,,,,,,,,,
,,,,,,,5e865fdcef7ca60d3266f76a,2023-08-16_09h06.28.155,HF_wild_card,2022.2.4,MacIntel,62.5,5e865fdcef7ca60d3266f76a,64d2fd46c836a06233681665,64dc7ecad5690df31c4e572c,,,,,,,ctch,resources/DP.BMP,resources/DBN.BMP,Door4,0.165555556,-0.042222222,1,0,0,0.931,optionRight,60,675,1,12,0,12,0,1,,,,,,,,,,,,,,,,,,,,,,,,,,,,,,,,,,,,,,,
,,,,,,,5e865fdcef7ca60d3266f76a,2023-08-16_09h06.28.155,HF_wild_card,2022.2.4,MacIntel,62.5,5e865fdcef7ca60d3266f76a,64d2fd46c836a06233681665,64dc7ecad5690df31c4e572c,,,,,,,ctch,resources/DG.BMP,resources/DB.BMP,Door2,0.167777778,-0.064444444,1,0,0,2.047,optionRight,20,695,1,13,0,13,0,1,,,,,,,,,,,,,,,,,,,,,,,,,,,,,,,,,,,,,,,
,,,,,,,5e865fdcef7ca60d3266f76a,2023-08-16_09h06.28.155,HF_wild_card,2022.2.4,MacIntel,62.5,5e865fdcef7ca60d3266f76a,64d2fd46c836a06233681665,64dc7ecad5690df31c4e572c,,,,,,,sngl,resources/Empty.png,resources/DR.BMP,WildCard_NonEx,0.166666667,-0.043333333,1,0,0,0.713,optionRight,45,740,1,14,0,14,0,1,,,,,,,,,,,,,,,,,,,,,,,,,,,,,,,,,,,,,,,
,,,,,,,5e865fdcef7ca60d3266f76a,2023-08-16_09h06.28.155,HF_wild_card,2022.2.4,MacIntel,62.5,5e865fdcef7ca60d3266f76a,64d2fd46c836a06233681665,64dc7ecad5690df31c4e572c,,,,,,,sngl,resources/Empty.png,resources/DBN.BMP,Door4,0.224444444,-0.023333333,1,0,0,0.613,optionRight,60,800,1,15,0,15,0,1,,,,,,,,,,,,,,,,,,,,,,,,,,,,,,,,,,,,,,,
,,,,,,,5e865fdcef7ca60d3266f76a,2023-08-16_09h06.28.155,HF_wild_card,2022.2.4,MacIntel,62.5,5e865fdcef7ca60d3266f76a,64d2fd46c836a06233681665,64dc7ecad5690df31c4e572c,,,,,,,decisionTrl,resources/DR.BMP,resources/DB.BMP,WildCard_NonEx,-0.152222222,-0.051111111,1,0,0,1.846,optionLeft,55,855,1,16,0,16,0,1,,,,,,,,,,,,,,,,,,,,,,,,,,,,,,,,,,,,,,,
,,,,,,,5e865fdcef7ca60d3266f76a,2023-08-16_09h06.28.155,HF_wild_card,2022.2.4,MacIntel,62.5,5e865fdcef7ca60d3266f76a,64d2fd46c836a06233681665,64dc7ecad5690df31c4e572c,,,,,,,decisionTrl,resources/DBN.BMP,resources/DR.BMP,Door4,-0.151111111,-0.031111111,1,0,0,0.847,optionLeft,60,915,1,17,0,17,0,1,,,,,,,,,,,,,,,,,,,,,,,,,,,,,,,,,,,,,,,
,,,,,,,5e865fdcef7ca60d3266f76a,2023-08-16_09h06.28.155,HF_wild_card,2022.2.4,MacIntel,62.5,5e865fdcef7ca60d3266f76a,64d2fd46c836a06233681665,64dc7ecad5690df31c4e572c,,,,,,,decisionTrl,resources/DP.BMP,resources/DB.BMP,Door1,-0.147777778,-0.061111111,1,0,0,1.314,optionLeft,30,945,1,18,0,18,0,1,,,,,,,,,,,,,,,,,,,,,,,,,,,,,,,,,,,,,,,
,,,,,,,5e865fdcef7ca60d3266f76a,2023-08-16_09h06.28.155,HF_wild_card,2022.2.4,MacIntel,62.5,5e865fdcef7ca60d3266f76a,64d2fd46c836a06233681665,64dc7ecad5690df31c4e572c,,,,,,,sngl,resources/DB.BMP,resources/Empty.png,Door2,-0.22,-0.031111111,1,0,0,0.614,optionLeft,40,985,1,19,0,19,0,1,,,,,,,,,,,,,,,,,,,,,,,,,,,,,,,,,,,,,,,
,,,,,,,5e865fdcef7ca60d3266f76a,2023-08-16_09h06.28.155,HF_wild_card,2022.2.4,MacIntel,62.5,5e865fdcef7ca60d3266f76a,64d2fd46c836a06233681665,64dc7ecad5690df31c4e572c,,,,,,,decisionTrl,resources/DBN.BMP,resources/DG.BMP,Door3,0.438888889,-0.05,1,0,0,2.447,optionRight,70,1055,1,20,0,20,0,1,,,,,,,,,,,,,,,,,,,,,,,,,,,,,,,,,,,,,,,
,,,,,,,5e865fdcef7ca60d3266f76a,2023-08-16_09h06.28.155,HF_wild_card,2022.2.4,MacIntel,62.5,5e865fdcef7ca60d3266f76a,64d2fd46c836a06233681665,64dc7ecad5690df31c4e572c,,,,,,,sngl,resources/Empty.png,resources/DP.BMP,Door1,0.214444444,-0.055555556,1,0,0,0.677,optionRight,30,1085,1,21,0,21,0,1,,,,,,,,,,,,,,,,,,,,,,,,,,,,,,,,,,,,,,,
,,,,,,,5e865fdcef7ca60d3266f76a,2023-08-16_09h06.28.155,HF_wild_card,2022.2.4,MacIntel,62.5,5e865fdcef7ca60d3266f76a,64d2fd46c836a06233681665,64dc7ecad5690df31c4e572c,,,,,,,decisionTrl,resources/DBN.BMP,resources/DG.BMP,Door4,-0.226666667,-0.068888889,1,0,0,1.395,optionLeft,60,1145,1,22,0,22,0,1,,,,,,,,,,,,,,,,,,,,,,,,,,,,,,,,,,,,,,,
,,,,,,,5e865fdcef7ca60d3266f76a,2023-08-16_09h06.28.155,HF_wild_card,2022.2.4,MacIntel,62.5,5e865fdcef7ca60d3266f76a,64d2fd46c836a06233681665,64dc7ecad5690df31c4e572c,,,,,,,decisionTrl,resources/DB.BMP,resources/DP.BMP,Door1,0.196666667,-0.116666667,1,0,0,2.53,optionRight,30,1175,1,23,0,23,0,1,,,,,,,,,,,,,,,,,,,,,,,,,,,,,,,,,,,,,,,
,,,,,,,5e865fdcef7ca60d3266f76a,2023-08-16_09h06.28.155,HF_wild_card,2022.2.4,MacIntel,62.5,5e865fdcef7ca60d3266f76a,64d2fd46c836a06233681665,64dc7ecad5690df31c4e572c,,,,,,,sngl,resources/DBN.BMP,resources/Empty.png,Door4,-0.158888889,-0.027777778,1,0,0,0.646,optionLeft,80,1255,1,24,0,24,0,1,,,,,,,,,,,,,,,,,,,,,,,,,,,,,,,,,,,,,,,
,,,,,,,5e865fdcef7ca60d3266f76a,2023-08-16_09h06.28.155,HF_wild_card,2022.2.4,MacIntel,62.5,5e865fdcef7ca60d3266f76a,64d2fd46c836a06233681665,64dc7ecad5690df31c4e572c,,,,,,,decisionTrl,resources/DBN.BMP,resources/DG.BMP,Door4,-0.114444444,-0.058888889,1,0,0,1.08,optionLeft,60,1315,1,25,0,25,0,1,,,,,,,,,,,,,,,,,,,,,,,,,,,,,,,,,,,,,,,
,,,,,,,5e865fdcef7ca60d3266f76a,2023-08-16_09h06.28.155,HF_wild_card,2022.2.4,MacIntel,62.5,5e865fdcef7ca60d3266f76a,64d2fd46c836a06233681665,64dc7ecad5690df31c4e572c,,,,,,,sngl,resources/Empty.png,resources/DR.BMP,WildCard_NonEx,0.211111111,-0.015555556,1,0,0,0.646,optionRight,55,1370,1,26,0,26,0,1,,,,,,,,,,,,,,,,,,,,,,,,,,,,,,,,,,,,,,,
,,,,,,,5e865fdcef7ca60d3266f76a,2023-08-16_09h06.28.155,HF_wild_card,2022.2.4,MacIntel,62.5,5e865fdcef7ca60d3266f76a,64d2fd46c836a06233681665,64dc7ecad5690df31c4e572c,,,,,,,decisionTrl,resources/DR.BMP,resources/DG.BMP,Door3,0.247777778,-0.051111111,1,0,0,1.946,optionRight,70,1440,1,27,0,27,0,1,,,,,,,,,,,,,,,,,,,,,,,,,,,,,,,,,,,,,,,
,,,,,,,5e865fdcef7ca60d3266f76a,2023-08-16_09h06.28.155,HF_wild_card,2022.2.4,MacIntel,62.5,5e865fdcef7ca60d3266f76a,64d2fd46c836a06233681665,64dc7ecad5690df31c4e572c,,,,,,,sngl,resources/DR.BMP,resources/Empty.png,WildCard_NonEx,-0.206666667,-0.051111111,1,0,0,0.648,optionLeft,55,1495,1,28,0,28,0,1,,,,,,,,,,,,,,,,,,,,,,,,,,,,,,,,,,,,,,,
,,,,,,,5e865fdcef7ca60d3266f76a,2023-08-16_09h06.28.155,HF_wild_card,2022.2.4,MacIntel,62.5,5e865fdcef7ca60d3266f76a,64d2fd46c836a06233681665,64dc7ecad5690df31c4e572c,,,,,,,decisionTrl,resources/DG.BMP,resources/DBN.BMP,Door4,0.29,-0.131111111,1,0,0,2.53,optionRight,80,1575,1,29,0,29,0,1,,,,,,,,,,,,,,,,,,,,,,,,,,,,,,,,,,,,,,,
,,,,,,,5e865fdcef7ca60d3266f76a,2023-08-16_09h06.28.155,HF_wild_card,2022.2.4,MacIntel,62.5,5e865fdcef7ca60d3266f76a,64d2fd46c836a06233681665,64dc7ecad5690df31c4e572c,,,,,,,ctch,resources/DP.BMP,resources/DBN.BMP,Door4,0.202222222,-0.063333333,1,0,0,1.646,optionRight,60,1635,1,30,0,30,0,1,,,,,,,,,,,,,,,,,,,,,,,,,,,,,,,,,,,,,,,
,,,,,,,5e865fdcef7ca60d3266f76a,2023-08-16_09h06.28.155,HF_wild_card,2022.2.4,MacIntel,62.5,5e865fdcef7ca60d3266f76a,64d2fd46c836a06233681665,64dc7ecad5690df31c4e572c,,,,,,,decisionTrl,resources/DB.BMP,resources/DP.BMP,Door1,0.171111111,-0.077777778,1,0,0,1.348,optionRight,30,1665,1,31,0,31,0,1,,,,,,,,,,,,,,,,,,,,,,,,,,,,,,,,,,,,,,,
,,,,,,,5e865fdcef7ca60d3266f76a,2023-08-16_09h06.28.155,HF_wild_card,2022.2.4,MacIntel,62.5,5e865fdcef7ca60d3266f76a,64d2fd46c836a06233681665,64dc7ecad5690df31c4e572c,,,,,,,sngl,resources/Empty.png,resources/DB.BMP,Door2,0.202222222,-0.003333333,1,0,0,0.578,optionRight,20,1685,1,32,0,32,0,1,,,,,,,,,,,,,,,,,,,,,,,,,,,,,,,,,,,,,,,
,,,,,,,5e865fdcef7ca60d3266f76a,2023-08-16_09h06.28.155,HF_wild_card,2022.2.4,MacIntel,62.5,5e865fdcef7ca60d3266f76a,64d2fd46c836a06233681665,64dc7ecad5690df31c4e572c,,,,,,,decisionTrl,resources/DR.BMP,resources/DP.BMP,WildCard_NonEx,-0.231111111,-0.093333333,1,0,0,2.099,optionLeft,55,1740,1,33,0,33,0,1,,,,,,,,,,,,,,,,,,,,,,,,,,,,,,,,,,,,,,,
,,,,,,,5e865fdcef7ca60d3266f76a,2023-08-16_09h06.28.155,HF_wild_card,2022.2.4,MacIntel,62.5,5e865fdcef7ca60d3266f76a,64d2fd46c836a06233681665,64dc7ecad5690df31c4e572c,,,,,,,decisionTrl,resources/DR.BMP,resources/DBN.BMP,Door4,0.352222222,-0.012222222,1,0,0,0.93,optionRight,60,1800,1,34,0,34,0,1,,,,,,,,,,,,,,,,,,,,,,,,,,,,,,,,,,,,,,,
,,,,,,,5e865fdcef7ca60d3266f76a,2023-08-16_09h06.28.155,HF_wild_card,2022.2.4,MacIntel,62.5,5e865fdcef7ca60d3266f76a,64d2fd46c836a06233681665,64dc7ecad5690df31c4e572c,,,,,,,ctch,resources/DBN.BMP,resources/DP.BMP,Door4,-0.155555556,-0.042222222,1,0,0,0.645,optionLeft,60,1860,1,35,0,35,0,1,,,,,,,,,,,,,,,,,,,,,,,,,,,,,,,,,,,,,,,
,,,,,,,5e865fdcef7ca60d3266f76a,2023-08-16_09h06.28.155,HF_wild_card,2022.2.4,MacIntel,62.5,5e865fdcef7ca60d3266f76a,64d2fd46c836a06233681665,64dc7ecad5690df31c4e572c,,,,,,,sngl,resources/DG.BMP,resources/Empty.png,Door3,-0.185555556,-0.022222222,1,0,0,0.664,optionLeft,70,1930,1,36,0,36,0,1,,,,,,,,,,,,,,,,,,,,,,,,,,,,,,,,,,,,,,,
,,,,,,,5e865fdcef7ca60d3266f76a,2023-08-16_09h06.28.155,HF_wild_card,2022.2.4,MacIntel,62.5,5e865fdcef7ca60d3266f76a,64d2fd46c836a06233681665,64dc7ecad5690df31c4e572c,,,,,,,sngl,resources/Empty.png,resources/DG.BMP,Door3,0.28,-0.038888889,1,0,0,0.513,optionRight,70,2000,1,37,0,37,0,1,,,,,,,,,,,,,,,,,,,,,,,,,,,,,,,,,,,,,,,
,,,,,,,5e865fdcef7ca60d3266f76a,2023-08-16_09h06.28.155,HF_wild_card,2022.2.4,MacIntel,62.5,5e865fdcef7ca60d3266f76a,64d2fd46c836a06233681665,64dc7ecad5690df31c4e572c,,,,,,,sngl,resources/DP.BMP,resources/Empty.png,Door1,-0.21,-0.032222222,1,0,0,0.48,optionLeft,30,2030,1,38,0,38,0,1,,,,,,,,,,,,,,,,,,,,,,,,,,,,,,,,,,,,,,,
,,,,,,,5e865fdcef7ca60d3266f76a,2023-08-16_09h06.28.155,HF_wild_card,2022.2.4,MacIntel,62.5,5e865fdcef7ca60d3266f76a,64d2fd46c836a06233681665,64dc7ecad5690df31c4e572c,,,,,,,ctch,resources/DG.BMP,resources/DB.BMP,Door3,-0.207777778,-0.055555556,1,0,0,3.197,optionLeft,70,2100,1,39,0,39,0,1,,,,,,,,,,,,,,,,,,,,,,,,,,,,,,,,,,,,,,,
,,,,,,,5e865fdcef7ca60d3266f76a,2023-08-16_09h06.28.155,HF_wild_card,2022.2.4,MacIntel,62.5,5e865fdcef7ca60d3266f76a,64d2fd46c836a06233681665,64dc7ecad5690df31c4e572c,,,,,,,decisionTrl,resources/DBN.BMP,resources/DG.BMP,Door4,-0.287777778,-0.086666667,1,0,0,1.515,optionLeft,80,2180,1,40,0,40,0,1,,,,,,,,,,,,,,,,,,,,,,,,,,,,,,,,,,,,,,,
,,,,,,,5e865fdcef7ca60d3266f76a,2023-08-16_09h06.28.155,HF_wild_card,2022.2.4,MacIntel,62.5,5e865fdcef7ca60d3266f76a,64d2fd46c836a06233681665,64dc7ecad5690df31c4e572c,,,,,,,decisionTrl,resources/DB.BMP,resources/DP.BMP,Door1,0.095555556,-0.101111111,1,0,0,1.863,optionRight,30,2210,1,41,0,41,0,1,,,,,,,,,,,,,,,,,,,,,,,,,,,,,,,,,,,,,,,
,,,,,,,5e865fdcef7ca60d3266f76a,2023-08-16_09h06.28.155,HF_wild_card,2022.2.4,MacIntel,62.5,5e865fdcef7ca60d3266f76a,64d2fd46c836a06233681665,64dc7ecad5690df31c4e572c,,,,,,,decisionTrl,resources/DB.BMP,resources/DR.BMP,WildCard_NonEx,0.232222222,-0.094444444,1,0,0,1.231,optionRight,55,2265,1,42,0,42,0,1,,,,,,,,,,,,,,,,,,,,,,,,,,,,,,,,,,,,,,,
,,,,,,,5e865fdcef7ca60d3266f76a,2023-08-16_09h06.28.155,HF_wild_card,2022.2.4,MacIntel,62.5,5e865fdcef7ca60d3266f76a,64d2fd46c836a06233681665,64dc7ecad5690df31c4e572c,,,,,,,decisionTrl,resources/DP.BMP,resources/DB.BMP,Door1,-0.128888889,-0.105555556,1,0,0,1.297,optionLeft,30,2295,1,43,0,43,0,1,,,,,,,,,,,,,,,,,,,,,,,,,,,,,,,,,,,,,,,
,,,,,,,5e865fdcef7ca60d3266f76a,2023-08-16_09h06.28.155,HF_wild_card,2022.2.4,MacIntel,62.5,5e865fdcef7ca60d3266f76a,64d2fd46c836a06233681665,64dc7ecad5690df31c4e572c,,,,,,,,,,,,,,,,,,,,,,,,,,0,0,0,0,1,,,,,,,,,,,,,,,,,,,,,,,,,,,,,,,,,,
,,,,,,,5e865fdcef7ca60d3266f76a,2023-08-16_09h06.28.155,HF_wild_card,2022.2.4,MacIntel,62.5,5e865fdcef7ca60d3266f76a,64d2fd46c836a06233681665,64dc7ecad5690df31c4e572c,,,,,,,sngl,resources/Empty.png,resources/DR.BMP,WildCard_NonEx,0.18,-0.105555556,1,0,0,6.592,optionRight,45,2340,2,0,0,0,0,1,,,,,,,,,,,,,,,,,,,,,,,,,,,,,,,,,,,,,,,
,,,,,,,5e865fdcef7ca60d3266f76a,2023-08-16_09h06.28.155,HF_wild_card,2022.2.4,MacIntel,62.5,5e865fdcef7ca60d3266f76a,64d2fd46c836a06233681665,64dc7ecad5690df31c4e572c,,,,,,,sngl,resources/Empty.png,resources/DR.BMP,WildCard_NonEx,0.166666667,-0.036666667,1,0,0,0.627,optionRight,55,2395,2,1,0,1,0,1,,,,,,,,,,,,,,,,,,,,,,,,,,,,,,,,,,,,,,,
,,,,,,,5e865fdcef7ca60d3266f76a,2023-08-16_09h06.28.155,HF_wild_card,2022.2.4,MacIntel,62.5,5e865fdcef7ca60d3266f76a,64d2fd46c836a06233681665,64dc7ecad5690df31c4e572c,,,,,,,ctch,resources/DG.BMP,resources/DB.BMP,Door3,-0.198888889,-0.062222222,1,0,0,1.064,optionLeft,70,2465,2,2,0,2,0,1,,,,,,,,,,,,,,,,,,,,,,,,,,,,,,,,,,,,,,,
,,,,,,,5e865fdcef7ca60d3266f76a,2023-08-16_09h06.28.155,HF_wild_card,2022.2.4,MacIntel,62.5,5e865fdcef7ca60d3266f76a,64d2fd46c836a06233681665,64dc7ecad5690df31c4e572c,,,,,,,decisionTrl,resources/DBN.BMP,resources/DG.BMP,Door4,-0.354444444,-0.086666667,1,0,0,0.844,optionLeft,80,2545,2,3,0,3,0,1,,,,,,,,,,,,,,,,,,,,,,,,,,,,,,,,,,,,,,,
,,,,,,,5e865fdcef7ca60d3266f76a,2023-08-16_09h06.28.155,HF_wild_card,2022.2.4,MacIntel,62.5,5e865fdcef7ca60d3266f76a,64d2fd46c836a06233681665,64dc7ecad5690df31c4e572c,,,,,,,decisionTrl,resources/DB.BMP,resources/DP.BMP,Door1,0.162222222,-0.038888889,1,0,0,1.662,optionRight,30,2575,2,4,0,4,0,1,,,,,,,,,,,,,,,,,,,,,,,,,,,,,,,,,,,,,,,
,,,,,,,5e865fdcef7ca60d3266f76a,2023-08-16_09h06.28.155,HF_wild_card,2022.2.4,MacIntel,62.5,5e865fdcef7ca60d3266f76a,64d2fd46c836a06233681665,64dc7ecad5690df31c4e572c,,,,,,,decisionTrl,resources/DG.BMP,resources/DBN.BMP,Door4,0.152222222,-0.086666667,1,0,0,0.912,optionRight,80,2655,2,5,0,5,0,1,,,,,,,,,,,,,,,,,,,,,,,,,,,,,,,,,,,,,,,
,,,,,,,5e865fdcef7ca60d3266f76a,2023-08-16_09h06.28.155,HF_wild_card,2022.2.4,MacIntel,62.5,5e865fdcef7ca60d3266f76a,64d2fd46c836a06233681665,64dc7ecad5690df31c4e572c,,,,,,,decisionTrl,resources/DB.BMP,resources/DP.BMP,Door1,0.162222222,-0.091111111,1,0,0,2.179,optionRight,30,2685,2,6,0,6,0,1,,,,,,,,,,,,,,,,,,,,,,,,,,,,,,,,,,,,,,,
,,,,,,,5e865fdcef7ca60d3266f76a,2023-08-16_09h06.28.155,HF_wild_card,2022.2.4,MacIntel,62.5,5e865fdcef7ca60d3266f76a,64d2fd46c836a06233681665,64dc7ecad5690df31c4e572c,,,,,,,decisionTrl,resources/DBN.BMP,resources/DG.BMP,Door4,-0.214444444,-0.063333333,1,0,0,2.564,optionLeft,60,2745,2,7,0,7,0,1,,,,,,,,,,,,,,,,,,,,,,,,,,,,,,,,,,,,,,,
,,,,,,,5e865fdcef7ca60d3266f76a,2023-08-16_09h06.28.155,HF_wild_card,2022.2.4,MacIntel,62.5,5e865fdcef7ca60d3266f76a,64d2fd46c836a06233681665,64dc7ecad5690df31c4e572c,,,,,,,decisionTrl,resources/DBN.BMP,resources/DG.BMP,Door4,-0.22,-0.048888889,1,0,0,1.012,optionLeft,80,2825,2,8,0,8,0,1,,,,,,,,,,,,,,,,,,,,,,,,,,,,,,,,,,,,,,,
,,,,,,,5e865fdcef7ca60d3266f76a,2023-08-16_09h06.28.155,HF_wild_card,2022.2.4,MacIntel,62.5,5e865fdcef7ca60d3266f76a,64d2fd46c836a06233681665,64dc7ecad5690df31c4e572c,,,,,,,decisionTrl,resources/DR.BMP,resources/DP.BMP,WildCard_NonEx,-0.297777778,-0.131111111,1,0,0,2.047,optionLeft,45,2870,2,9,0,9,0,1,,,,,,,,,,,,,,,,,,,,,,,,,,,,,,,,,,,,,,,
,,,,,,,5e865fdcef7ca60d3266f76a,2023-08-16_09h06.28.155,HF_wild_card,2022.2.4,MacIntel,62.5,5e865fdcef7ca60d3266f76a,64d2fd46c836a06233681665,64dc7ecad5690df31c4e572c,,,,,,,decisionTrl,resources/DP.BMP,resources/DR.BMP,WildCard_NonEx,0.163333333,-0.143333333,1,0,0,1.098,optionRight,55,2925,2,10,0,10,0,1,,,,,,,,,,,,,,,,,,,,,,,,,,,,,,,,,,,,,,,
,,,,,,,5e865fdcef7ca60d3266f76a,2023-08-16_09h06.28.155,HF_wild_card,2022.2.4,MacIntel,62.5,5e865fdcef7ca60d3266f76a,64d2fd46c836a06233681665,64dc7ecad5690df31c4e572c,,,,,,,decisionTrl,resources/DP.BMP,resources/DB.BMP,Door1,-0.244444444,-0.05,1,0,0,1.064,optionLeft,30,2955,2,11,0,11,0,1,,,,,,,,,,,,,,,,,,,,,,,,,,,,,,,,,,,,,,,
,,,,,,,5e865fdcef7ca60d3266f76a,2023-08-16_09h06.28.155,HF_wild_card,2022.2.4,MacIntel,62.5,5e865fdcef7ca60d3266f76a,64d2fd46c836a06233681665,64dc7ecad5690df31c4e572c,,,,,,,sngl,resources/DG.BMP,resources/Empty.png,Door3,-0.173333333,-0.043333333,1,0,0,0.595,optionLeft,70,3025,2,12,0,12,0,1,,,,,,,,,,,,,,,,,,,,,,,,,,,,,,,,,,,,,,,
,,,,,,,5e865fdcef7ca60d3266f76a,2023-08-16_09h06.28.155,HF_wild_card,2022.2.4,MacIntel,62.5,5e865fdcef7ca60d3266f76a,64d2fd46c836a06233681665,64dc7ecad5690df31c4e572c,,,,,,,decisionTrl,resources/DR.BMP,resources/DG.BMP,Door3,0.166666667,-0.036666667,1,0,0,0.796,optionRight,70,3095,2,13,0,13,0,1,,,,,,,,,,,,,,,,,,,,,,,,,,,,,,,,,,,,,,,
,,,,,,,5e865fdcef7ca60d3266f76a,2023-08-16_09h06.28.155,HF_wild_card,2022.2.4,MacIntel,62.5,5e865fdcef7ca60d3266f76a,64d2fd46c836a06233681665,64dc7ecad5690df31c4e572c,,,,,,,decisionTrl,resources/DB.BMP,resources/DP.BMP,Door1,0.192222222,-0.068888889,1,0,0,1.597,optionRight,30,3125,2,14,0,14,0,1,,,,,,,,,,,,,,,,,,,,,,,,,,,,,,,,,,,,,,,
,,,,,,,5e865fdcef7ca60d3266f76a,2023-08-16_09h06.28.155,HF_wild_card,2022.2.4,MacIntel,62.5,5e865fdcef7ca60d3266f76a,64d2fd46c836a06233681665,64dc7ecad5690df31c4e572c,,,,,,,sngl,resources/Empty.png,resources/DG.BMP,Door3,0.171111111,-0.047777778,1,0,0,0.581,optionRight,70,3195,2,15,0,15,0,1,,,,,,,,,,,,,,,,,,,,,,,,,,,,,,,,,,,,,,,
,,,,,,,5e865fdcef7ca60d3266f76a,2023-08-16_09h06.28.155,HF_wild_card,2022.2.4,MacIntel,62.5,5e865fdcef7ca60d3266f76a,64d2fd46c836a06233681665,64dc7ecad5690df31c4e572c,,,,,,,ctch,resources/DBN.BMP,resources/DP.BMP,Door4,-0.151111111,-0.044444444,1,0,0,1.195,optionLeft,60,3255,2,16,0,16,0,1,,,,,,,,,,,,,,,,,,,,,,,,,,,,,,,,,,,,,,,
,,,,,,,5e865fdcef7ca60d3266f76a,2023-08-16_09h06.28.155,HF_wild_card,2022.2.4,MacIntel,62.5,5e865fdcef7ca60d3266f76a,64d2fd46c836a06233681665,64dc7ecad5690df31c4e572c,,,,,,,decisionTrl,resources/DBN.BMP,resources/DG.BMP,Door4,-0.116666667,-0.073333333,1,0,0,0.996,optionLeft,60,3315,2,17,0,17,0,1,,,,,,,,,,,,,,,,,,,,,,,,,,,,,,,,,,,,,,,
,,,,,,,5e865fdcef7ca60d3266f76a,2023-08-16_09h06.28.155,HF_wild_card,2022.2.4,MacIntel,62.5,5e865fdcef7ca60d3266f76a,64d2fd46c836a06233681665,64dc7ecad5690df31c4e572c,,,,,,,decisionTrl,resources/DB.BMP,resources/DP.BMP,Door1,0.192222222,-0.053333333,1,0,0,1.382,optionRight,30,3345,2,18,0,18,0,1,,,,,,,,,,,,,,,,,,,,,,,,,,,,,,,,,,,,,,,
,,,,,,,5e865fdcef7ca60d3266f76a,2023-08-16_09h06.28.155,HF_wild_card,2022.2.4,MacIntel,62.5,5e865fdcef7ca60d3266f76a,64d2fd46c836a06233681665,64dc7ecad5690df31c4e572c,,,,,,,decisionTrl,resources/DR.BMP,resources/DB.BMP,WildCard_NonEx,-0.157777778,-0.104444444,1,0,0,0.779,optionLeft,45,3390,2,19,0,19,0,1,,,,,,,,,,,,,,,,,,,,,,,,,,,,,,,,,,,,,,,
,,,,,,,5e865fdcef7ca60d3266f76a,2023-08-16_09h06.28.155,HF_wild_card,2022.2.4,MacIntel,62.5,5e865fdcef7ca60d3266f76a,64d2fd46c836a06233681665,64dc7ecad5690df31c4e572c,,,,,,,decisionTrl,resources/DG.BMP,resources/DBN.BMP,Door4,0.172222222,-0.008888889,1,0,0,1.18,optionRight,80,3470,2,20,0,20,0,1,,,,,,,,,,,,,,,,,,,,,,,,,,,,,,,,,,,,,,,
,,,,,,,5e865fdcef7ca60d3266f76a,2023-08-16_09h06.28.155,HF_wild_card,2022.2.4,MacIntel,62.5,5e865fdcef7ca60d3266f76a,64d2fd46c836a06233681665,64dc7ecad5690df31c4e572c,,,,,,,ctch,resources/DP.BMP,resources/DBN.BMP,Door4,0.091111111,-0.03,1,0,0,0.762,optionRight,60,3530,2,21,0,21,0,1,,,,,,,,,,,,,,,,,,,,,,,,,,,,,,,,,,,,,,,
,,,,,,,5e865fdcef7ca60d3266f76a,2023-08-16_09h06.28.155,HF_wild_card,2022.2.4,MacIntel,62.5,5e865fdcef7ca60d3266f76a,64d2fd46c836a06233681665,64dc7ecad5690df31c4e572c,,,,,,,decisionTrl,resources/DP.BMP,resources/DB.BMP,Door1,-0.228888889,-0.108888889,1,0,0,4.531,optionLeft,30,3560,2,22,0,22,0,1,,,,,,,,,,,,,,,,,,,,,,,,,,,,,,,,,,,,,,,
,,,,,,,5e865fdcef7ca60d3266f76a,2023-08-16_09h06.28.155,HF_wild_card,2022.2.4,MacIntel,62.5,5e865fdcef7ca60d3266f76a,64d2fd46c836a06233681665,64dc7ecad5690df31c4e572c,,,,,,,sngl,resources/Empty.png,resources/DBN.BMP,Door4,0.152222222,-0.045555556,1,0,0,0.548,optionRight,80,3640,2,23,0,23,0,1,,,,,,,,,,,,,,,,,,,,,,,,,,,,,,,,,,,,,,,
,,,,,,,5e865fdcef7ca60d3266f76a,2023-08-16_09h06.28.155,HF_wild_card,2022.2.4,MacIntel,62.5,5e865fdcef7ca60d3266f76a,64d2fd46c836a06233681665,64dc7ecad5690df31c4e572c,,,,,,,decisionTrl,resources/DBN.BMP,resources/DR.BMP,Door4,-0.171111111,-0.047777778,1,0,0,0.598,optionLeft,60,3700,2,24,0,24,0,1,,,,,,,,,,,,,,,,,,,,,,,,,,,,,,,,,,,,,,,
,,,,,,,5e865fdcef7ca60d3266f76a,2023-08-16_09h06.28.155,HF_wild_card,2022.2.4,MacIntel,62.5,5e865fdcef7ca60d3266f76a,64d2fd46c836a06233681665,64dc7ecad5690df31c4e572c,,,,,,,ctch,resources/DB.BMP,resources/DG.BMP,Door3,0.181111111,-0.041111111,1,0,0,0.63,optionRight,70,3770,2,25,0,25,0,1,,,,,,,,,,,,,,,,,,,,,,,,,,,,,,,,,,,,,,,
,,,,,,,5e865fdcef7ca60d3266f76a,2023-08-16_09h06.28.155,HF_wild_card,2022.2.4,MacIntel,62.5,5e865fdcef7ca60d3266f76a,64d2fd46c836a06233681665,64dc7ecad5690df31c4e572c,,,,,,,ctch,resources/DG.BMP,resources/DB.BMP,Door3,-0.144444444,-0.036666667,1,0,0,0.581,optionLeft,70,3840,2,26,0,26,0,1,,,,,,,,,,,,,,,,,,,,,,,,,,,,,,,,,,,,,,,
,,,,,,,5e865fdcef7ca60d3266f76a,2023-08-16_09h06.28.155,HF_wild_card,2022.2.4,MacIntel,62.5,5e865fdcef7ca60d3266f76a,64d2fd46c836a06233681665,64dc7ecad5690df31c4e572c,,,,,,,sngl,resources/DR.BMP,resources/Empty.png,WildCard_NonEx,-0.121111111,-0.022222222,1,0,0,0.53,optionLeft,55,3895,2,27,0,27,0,1,,,,,,,,,,,,,,,,,,,,,,,,,,,,,,,,,,,,,,,
,,,,,,,5e865fdcef7ca60d3266f76a,2023-08-16_09h06.28.155,HF_wild_card,2022.2.4,MacIntel,62.5,5e865fdcef7ca60d3266f76a,64d2fd46c836a06233681665,64dc7ecad5690df31c4e572c,,,,,,,decisionTrl,resources/DB.BMP,resources/DR.BMP,WildCard_NonEx,0.181111111,-0.038888889,1,0,0,0.679,optionRight,55,3950,2,28,0,28,0,1,,,,,,,,,,,,,,,,,,,,,,,,,,,,,,,,,,,,,,,
,,,,,,,5e865fdcef7ca60d3266f76a,2023-08-16_09h06.28.155,HF_wild_card,2022.2.4,MacIntel,62.5,5e865fdcef7ca60d3266f76a,64d2fd46c836a06233681665,64dc7ecad5690df31c4e572c,,,,,,,decisionTrl,resources/DP.BMP,resources/DB.BMP,Door1,-0.255555556,0.004444444,1,0,0,3.516,optionLeft,30,3980,2,29,0,29,0,1,,,,,,,,,,,,,,,,,,,,,,,,,,,,,,,,,,,,,,,
,,,,,,,5e865fdcef7ca60d3266f76a,2023-08-16_09h06.28.155,HF_wild_card,2022.2.4,MacIntel,62.5,5e865fdcef7ca60d3266f76a,64d2fd46c836a06233681665,64dc7ecad5690df31c4e572c,,,,,,,ctch,resources/DBN.BMP,resources/DP.BMP,Door4,-0.136666667,-0.084444444,1,0,0,1.18,optionLeft,60,4040,2,30,0,30,0,1,,,,,,,,,,,,,,,,,,,,,,,,,,,,,,,,,,,,,,,
,,,,,,,5e865fdcef7ca60d3266f76a,2023-08-16_09h06.28.155,HF_wild_card,2022.2.4,MacIntel,62.5,5e865fdcef7ca60d3266f76a,64d2fd46c836a06233681665,64dc7ecad5690df31c4e572c,,,,,,,ctch,resources/DP.BMP,resources/DBN.BMP,Door4,0.144444444,-0.084444444,1,0,0,0.864,optionRight,80,4120,2,31,0,31,0,1,,,,,,,,,,,,,,,,,,,,,,,,,,,,,,,,,,,,,,,
,,,,,,,5e865fdcef7ca60d3266f76a,2023-08-16_09h06.28.155,HF_wild_card,2022.2.4,MacIntel,62.5,5e865fdcef7ca60d3266f76a,64d2fd46c836a06233681665,64dc7ecad5690df31c4e572c,,,,,,,decisionTrl,resources/DP.BMP,resources/DB.BMP,Door1,-0.225555556,-0.037777778,1,0,0,1.029,optionLeft,30,4150,2,32,0,32,0,1,,,,,,,,,,,,,,,,,,,,,,,,,,,,,,,,,,,,,,,
,,,,,,,5e865fdcef7ca60d3266f76a,2023-08-16_09h06.28.155,HF_wild_card,2022.2.4,MacIntel,62.5,5e865fdcef7ca60d3266f76a,64d2fd46c836a06233681665,64dc7ecad5690df31c4e572c,,,,,,,ctch,resources/DB.BMP,resources/DG.BMP,Door3,0.15,-0.06,1,0,0,0.762,optionRight,70,4220,2,33,0,33,0,1,,,,,,,,,,,,,,,,,,,,,,,,,,,,,,,,,,,,,,,
,,,,,,,5e865fdcef7ca60d3266f76a,2023-08-16_09h06.28.155,HF_wild_card,2022.2.4,MacIntel,62.5,5e865fdcef7ca60d3266f76a,64d2fd46c836a06233681665,64dc7ecad5690df31c4e572c,,,,,,,sngl,resources/DR.BMP,resources/Empty.png,WildCard_NonEx,-0.205555556,-0.038888889,1,0,0,0.547,optionLeft,45,4265,2,34,0,34,0,1,,,,,,,,,,,,,,,,,,,,,,,,,,,,,,,,,,,,,,,
,,,,,,,5e865fdcef7ca60d3266f76a,2023-08-16_09h06.28.155,HF_wild_card,2022.2.4,MacIntel,62.5,5e865fdcef7ca60d3266f76a,64d2fd46c836a06233681665,64dc7ecad5690df31c4e572c,,,,,,,sngl,resources/DP.BMP,resources/Empty.png,Door1,-0.196666667,-0.061111111,1,0,0,0.532,optionLeft,30,4295,2,35,0,35,0,1,,,,,,,,,,,,,,,,,,,,,,,,,,,,,,,,,,,,,,,
,,,,,,,5e865fdcef7ca60d3266f76a,2023-08-16_09h06.28.155,HF_wild_card,2022.2.4,MacIntel,62.5,5e865fdcef7ca60d3266f76a,64d2fd46c836a06233681665,64dc7ecad5690df31c4e572c,,,,,,,decisionTrl,resources/DG.BMP,resources/DBN.BMP,Door3,-0.26,-0.042222222,1,0,0,1.549,optionLeft,70,4365,2,36,0,36,0,1,,,,,,,,,,,,,,,,,,,,,,,,,,,,,,,,,,,,,,,
,,,,,,,5e865fdcef7ca60d3266f76a,2023-08-16_09h06.28.155,HF_wild_card,2022.2.4,MacIntel,62.5,5e865fdcef7ca60d3266f76a,64d2fd46c836a06233681665,64dc7ecad5690df31c4e572c,,,,,,,decisionTrl,resources/DG.BMP,resources/DR.BMP,Door3,-0.201111111,-0.043333333,1,0,0,0.847,optionLeft,70,4435,2,37,0,37,0,1,,,,,,,,,,,,,,,,,,,,,,,,,,,,,,,,,,,,,,,
,,,,,,,5e865fdcef7ca60d3266f76a,2023-08-16_09h06.28.155,HF_wild_card,2022.2.4,MacIntel,62.5,5e865fdcef7ca60d3266f76a,64d2fd46c836a06233681665,64dc7ecad5690df31c4e572c,,,,,,,decisionTrl,resources/DG.BMP,resources/DBN.BMP,Door4,0.188888889,-0.064444444,1,0,0,1.045,optionRight,80,4515,2,38,0,38,0,1,,,,,,,,,,,,,,,,,,,,,,,,,,,,,,,,,,,,,,,
,,,,,,,5e865fdcef7ca60d3266f76a,2023-08-16_09h06.28.155,HF_wild_card,2022.2.4,MacIntel,62.5,5e865fdcef7ca60d3266f76a,64d2fd46c836a06233681665,64dc7ecad5690df31c4e572c,,,,,,,sngl,resources/DBN.BMP,resources/Empty.png,Door4,-0.18,-0.048888889,1,0,0,0.529,optionLeft,60,4575,2,39,0,39,0,1,,,,,,,,,,,,,,,,,,,,,,,,,,,,,,,,,,,,,,,
,,,,,,,5e865fdcef7ca60d3266f76a,2023-08-16_09h06.28.155,HF_wild_card,2022.2.4,MacIntel,62.5,5e865fdcef7ca60d3266f76a,64d2fd46c836a06233681665,64dc7ecad5690df31c4e572c,,,,,,,sngl,resources/DB.BMP,resources/Empty.png,Door2,-0.163333333,-0.037777778,1,0,0,0.629,optionLeft,20,4595,2,40,0,40,0,1,,,,,,,,,,,,,,,,,,,,,,,,,,,,,,,,,,,,,,,
,,,,,,,5e865fdcef7ca60d3266f76a,2023-08-16_09h06.28.155,HF_wild_card,2022.2.4,MacIntel,62.5,5e865fdcef7ca60d3266f76a,64d2fd46c836a06233681665,64dc7ecad5690df31c4e572c,,,,,,,sngl,resources/Empty.png,resources/DB.BMP,Door2,0.182222222,-0.07,1,0,0,0.529,optionRight,40,4635,2,41,0,41,0,1,,,,,,,,,,,,,,,,,,,,,,,,,,,,,,,,,,,,,,,
,,,,,,,5e865fdcef7ca60d3266f76a,2023-08-16_09h06.28.155,HF_wild_card,2022.2.4,MacIntel,62.5,5e865fdcef7ca60d3266f76a,64d2fd46c836a06233681665,64dc7ecad5690df31c4e572c,,,,,,,decisionTrl,resources/DR.BMP,resources/DBN.BMP,Door4,0.146666667,-0.061111111,1,0,0,0.713,optionRight,80,4715,2,42,0,42,0,1,,,,,,,,,,,,,,,,,,,,,,,,,,,,,,,,,,,,,,,
,,,,,,,5e865fdcef7ca60d3266f76a,2023-08-16_09h06.28.155,HF_wild_card,2022.2.4,MacIntel,62.5,5e865fdcef7ca60d3266f76a,64d2fd46c836a06233681665,64dc7ecad5690df31c4e572c,,,,,,,sngl,resources/Empty.png,resources/DP.BMP,Door1,0.22,-0.111111111,1,0,0,0.596,optionRight,30,4745,2,43,0,43,0,1,,,,,,,,,,,,,,,,,,,,,,,,,,,,,,,,,,,,,,,
,,,,,,,5e865fdcef7ca60d3266f76a,2023-08-16_09h06.28.155,HF_wild_card,2022.2.4,MacIntel,62.5,5e865fdcef7ca60d3266f76a,64d2fd46c836a06233681665,64dc7ecad5690df31c4e572c,,,,,,,,,,,,,,,,,,,,,,,,,,1,0,1,0,1,,,,,,,,,,,,,,,,,,,,,,,,,,,,,,,,,,
,,,,,,,5e865fdcef7ca60d3266f76a,2023-08-16_09h06.28.155,HF_wild_card,2022.2.4,MacIntel,62.5,5e865fdcef7ca60d3266f76a,64d2fd46c836a06233681665,64dc7ecad5690df31c4e572c,,,,,,,sngl,resources/Empty.png,resources/DBN.BMP,Door4,0.126666667,-0.153333333,1,0,0,0.63,optionRight,60,4805,3,0,0,0,0,1,,,,,,,,,,,,,,,,,,,,,,,,,,,,,,,,,,,,,,,
,,,,,,,5e865fdcef7ca60d3266f76a,2023-08-16_09h06.28.155,HF_wild_card,2022.2.4,MacIntel,62.5,5e865fdcef7ca60d3266f76a,64d2fd46c836a06233681665,64dc7ecad5690df31c4e572c,,,,,,,decisionTrl,resources/DR.BMP,resources/DB.BMP,WildCard_NonEx,-0.241111111,-0.16,1,0,0,1.765,optionLeft,55,4860,3,1,0,1,0,1,,,,,,,,,,,,,,,,,,,,,,,,,,,,,,,,,,,,,,,
,,,,,,,5e865fdcef7ca60d3266f76a,2023-08-16_09h06.28.155,HF_wild_card,2022.2.4,MacIntel,62.5,5e865fdcef7ca60d3266f76a,64d2fd46c836a06233681665,64dc7ecad5690df31c4e572c,,,,,,,ctch,resources/DB.BMP,resources/DG.BMP,Door3,0.206666667,-0.092222222,1,0,0,1.012,optionRight,70,4930,3,2,0,2,0,1,,,,,,,,,,,,,,,,,,,,,,,,,,,,,,,,,,,,,,,
,,,,,,,5e865fdcef7ca60d3266f76a,2023-08-16_09h06.28.155,HF_wild_card,2022.2.4,MacIntel,62.5,5e865fdcef7ca60d3266f76a,64d2fd46c836a06233681665,64dc7ecad5690df31c4e572c,,,,,,,sngl,resources/DG.BMP,resources/Empty.png,Door3,-0.152222222,-0.014444444,1,0,0,0.499,optionLeft,70,5000,3,3,0,3,0,1,,,,,,,,,,,,,,,,,,,,,,,,,,,,,,,,,,,,,,,
,,,,,,,5e865fdcef7ca60d3266f76a,2023-08-16_09h06.28.155,HF_wild_card,2022.2.4,MacIntel,62.5,5e865fdcef7ca60d3266f76a,64d2fd46c836a06233681665,64dc7ecad5690df31c4e572c,,,,,,,sngl,resources/Empty.png,resources/DG.BMP,Door3,0.262222222,-0.07,1,0,0,0.478,optionRight,70,5070,3,4,0,4,0,1,,,,,,,,,,,,,,,,,,,,,,,,,,,,,,,,,,,,,,,
,,,,,,,5e865fdcef7ca60d3266f76a,2023-08-16_09h06.28.155,HF_wild_card,2022.2.4,MacIntel,62.5,5e865fdcef7ca60d3266f76a,64d2fd46c836a06233681665,64dc7ecad5690df31c4e572c,,,,,,,decisionTrl,resources/DG.BMP,resources/DBN.BMP,Door4,0.32,-0.022222222,1,0,0,1.049,optionRight,80,5150,3,5,0,5,0,1,,,,,,,,,,,,,,,,,,,,,,,,,,,,,,,,,,,,,,,
,,,,,,,5e865fdcef7ca60d3266f76a,2023-08-16_09h06.28.155,HF_wild_card,2022.2.4,MacIntel,62.5,5e865fdcef7ca60d3266f76a,64d2fd46c836a06233681665,64dc7ecad5690df31c4e572c,,,,,,,ctch,resources/DB.BMP,resources/DG.BMP,Door3,0.215555556,-0.028888889,1,0,0,0.628,optionRight,70,5220,3,6,0,6,0,1,,,,,,,,,,,,,,,,,,,,,,,,,,,,,,,,,,,,,,,
,,,,,,,5e865fdcef7ca60d3266f76a,2023-08-16_09h06.28.155,HF_wild_card,2022.2.4,MacIntel,62.5,5e865fdcef7ca60d3266f76a,64d2fd46c836a06233681665,64dc7ecad5690df31c4e572c,,,,,,,sngl,resources/Empty.png,resources/DR.BMP,WildCard_NonEx,0.144444444,-0.017777778,1,0,0,0.463,optionRight,45,5265,3,7,0,7,0,1,,,,,,,,,,,,,,,,,,,,,,,,,,,,,,,,,,,,,,,
,,,,,,,5e865fdcef7ca60d3266f76a,2023-08-16_09h06.28.155,HF_wild_card,2022.2.4,MacIntel,62.5,5e865fdcef7ca60d3266f76a,64d2fd46c836a06233681665,64dc7ecad5690df31c4e572c,,,,,,,decisionTrl,resources/DB.BMP,resources/DR.BMP,WildCard_NonEx,0.216666667,-0.094444444,1,0,0,0.945,optionRight,55,5320,3,8,0,8,0,1,,,,,,,,,,,,,,,,,,,,,,,,,,,,,,,,,,,,,,,
,,,,,,,5e865fdcef7ca60d3266f76a,2023-08-16_09h06.28.155,HF_wild_card,2022.2.4,MacIntel,62.5,5e865fdcef7ca60d3266f76a,64d2fd46c836a06233681665,64dc7ecad5690df31c4e572c,,,,,,,decisionTrl,resources/DP.BMP,resources/DB.BMP,Door1,-0.327777778,-0.073333333,1,0,0,0.88,optionLeft,30,5350,3,9,0,9,0,1,,,,,,,,,,,,,,,,,,,,,,,,,,,,,,,,,,,,,,,
,,,,,,,5e865fdcef7ca60d3266f76a,2023-08-16_09h06.28.155,HF_wild_card,2022.2.4,MacIntel,62.5,5e865fdcef7ca60d3266f76a,64d2fd46c836a06233681665,64dc7ecad5690df31c4e572c,,,,,,,ctch,resources/DP.BMP,resources/DBN.BMP,Door4,0.193333333,-0.085555556,1,0,0,0.595,optionRight,80,5430,3,10,0,10,0,1,,,,,,,,,,,,,,,,,,,,,,,,,,,,,,,,,,,,,,,
,,,,,,,5e865fdcef7ca60d3266f76a,2023-08-16_09h06.28.155,HF_wild_card,2022.2.4,MacIntel,62.5,5e865fdcef7ca60d3266f76a,64d2fd46c836a06233681665,64dc7ecad5690df31c4e572c,,,,,,,ctch,resources/DBN.BMP,resources/DP.BMP,Door4,-0.214444444,-0.011111111,1,0,0,0.53,optionLeft,80,5510,3,11,0,11,0,1,,,,,,,,,,,,,,,,,,,,,,,,,,,,,,,,,,,,,,,
,,,,,,,5e865fdcef7ca60d3266f76a,2023-08-16_09h06.28.155,HF_wild_card,2022.2.4,MacIntel,62.5,5e865fdcef7ca60d3266f76a,64d2fd46c836a06233681665,64dc7ecad5690df31c4e572c,,,,,,,decisionTrl,resources/DP.BMP,resources/DB.BMP,Door1,-0.251111111,-0.062222222,1,0,0,1.012,optionLeft,30,5540,3,12,0,12,0,1,,,,,,,,,,,,,,,,,,,,,,,,,,,,,,,,,,,,,,,
,,,,,,,5e865fdcef7ca60d3266f76a,2023-08-16_09h06.28.155,HF_wild_card,2022.2.4,MacIntel,62.5,5e865fdcef7ca60d3266f76a,64d2fd46c836a06233681665,64dc7ecad5690df31c4e572c,,,,,,,decisionTrl,resources/DB.BMP,resources/DP.BMP,Door1,0.21,-0.07,1,0,0,0.777,optionRight,30,5570,3,13,0,13,0,1,,,,,,,,,,,,,,,,,,,,,,,,,,,,,,,,,,,,,,,
,,,,,,,5e865fdcef7ca60d3266f76a,2023-08-16_09h06.28.155,HF_wild_card,2022.2.4,MacIntel,62.5,5e865fdcef7ca60d3266f76a,64d2fd46c836a06233681665,64dc7ecad5690df31c4e572c,,,,,,,decisionTrl,resources/DP.BMP,resources/DB.BMP,Door2,0.111111111,-0.085555556,1,0,0,0.949,optionRight,40,5610,3,14,0,14,0,1,,,,,,,,,,,,,,,,,,,,,,,,,,,,,,,,,,,,,,,
,,,,,,,5e865fdcef7ca60d3266f76a,2023-08-16_09h06.28.155,HF_wild_card,2022.2.4,MacIntel,62.5,5e865fdcef7ca60d3266f76a,64d2fd46c836a06233681665,64dc7ecad5690df31c4e572c,,,,,,,sngl,resources/Empty.png,resources/DR.BMP,WildCard_NonEx,0.137777778,-0.083333333,1,0,0,0.58,optionRight,55,5665,3,15,0,15,0,1,,,,,,,,,,,,,,,,,,,,,,,,,,,,,,,,,,,,,,,
,,,,,,,5e865fdcef7ca60d3266f76a,2023-08-16_09h06.28.155,HF_wild_card,2022.2.4,MacIntel,62.5,5e865fdcef7ca60d3266f76a,64d2fd46c836a06233681665,64dc7ecad5690df31c4e572c,,,,,,,sngl,resources/Empty.png,resources/DP.BMP,Door1,0.121111111,-0.06,1,0,0,0.462,optionRight,30,5695,3,16,0,16,0,1,,,,,,,,,,,,,,,,,,,,,,,,,,,,,,,,,,,,,,,
,,,,,,,5e865fdcef7ca60d3266f76a,2023-08-16_09h06.28.155,HF_wild_card,2022.2.4,MacIntel,62.5,5e865fdcef7ca60d3266f76a,64d2fd46c836a06233681665,64dc7ecad5690df31c4e572c,,,,,,,sngl,resources/DR.BMP,resources/Empty.png,WildCard_NonEx,-0.161111111,-0.04,1,0,0,0.462,optionLeft,55,5750,3,17,0,17,0,1,,,,,,,,,,,,,,,,,,,,,,,,,,,,,,,,,,,,,,,
,,,,,,,5e865fdcef7ca60d3266f76a,2023-08-16_09h06.28.155,HF_wild_card,2022.2.4,MacIntel,62.5,5e865fdcef7ca60d3266f76a,64d2fd46c836a06233681665,64dc7ecad5690df31c4e572c,,,,,,,decisionTrl,resources/DP.BMP,resources/DB.BMP,Door2,0.16,-0.052222222,1,0,0,1.38,optionRight,20,5770,3,18,0,18,0,1,,,,,,,,,,,,,,,,,,,,,,,,,,,,,,,,,,,,,,,
,,,,,,,5e865fdcef7ca60d3266f76a,2023-08-16_09h06.28.155,HF_wild_card,2022.2.4,MacIntel,62.5,5e865fdcef7ca60d3266f76a,64d2fd46c836a06233681665,64dc7ecad5690df31c4e572c,,,,,,,decisionTrl,resources/DB.BMP,resources/DP.BMP,Door1,0.12,-0.048888889,1,0,0,0.812,optionRight,30,5800,3,19,0,19,0,1,,,,,,,,,,,,,,,,,,,,,,,,,,,,,,,,,,,,,,,
,,,,,,,5e865fdcef7ca60d3266f76a,2023-08-16_09h06.28.155,HF_wild_card,2022.2.4,MacIntel,62.5,5e865fdcef7ca60d3266f76a,64d2fd46c836a06233681665,64dc7ecad5690df31c4e572c,,,,,,,sngl,resources/DR.BMP,resources/Empty.png,WildCard_NonEx,-0.195555556,-0.007777778,1,0,0,0.549,optionLeft,45,5845,3,20,0,20,0,1,,,,,,,,,,,,,,,,,,,,,,,,,,,,,,,,,,,,,,,
,,,,,,,5e865fdcef7ca60d3266f76a,2023-08-16_09h06.28.155,HF_wild_card,2022.2.4,MacIntel,62.5,5e865fdcef7ca60d3266f76a,64d2fd46c836a06233681665,64dc7ecad5690df31c4e572c,,,,,,,decisionTrl,resources/DG.BMP,resources/DBN.BMP,Door4,0.191111111,-0.042222222,1,0,0,2.732,optionRight,80,5925,3,21,0,21,0,1,,,,,,,,,,,,,,,,,,,,,,,,,,,,,,,,,,,,,,,
,,,,,,,5e865fdcef7ca60d3266f76a,2023-08-16_09h06.28.155,HF_wild_card,2022.2.4,MacIntel,62.5,5e865fdcef7ca60d3266f76a,64d2fd46c836a06233681665,64dc7ecad5690df31c4e572c,,,,,,,decisionTrl,resources/DBN.BMP,resources/DG.BMP,Door3,0.245555556,-0.128888889,1,0,0,1.215,optionRight,70,5995,3,22,0,22,0,1,,,,,,,,,,,,,,,,,,,,,,,,,,,,,,,,,,,,,,,
,,,,,,,5e865fdcef7ca60d3266f76a,2023-08-16_09h06.28.155,HF_wild_card,2022.2.4,MacIntel,62.5,5e865fdcef7ca60d3266f76a,64d2fd46c836a06233681665,64dc7ecad5690df31c4e572c,,,,,,,decisionTrl,resources/DB.BMP,resources/DP.BMP,Door1,0.261111111,-0.143333333,1,0,0,3.032,optionRight,30,6025,3,23,0,23,0,1,,,,,,,,,,,,,,,,,,,,,,,,,,,,,,,,,,,,,,,
,,,,,,,5e865fdcef7ca60d3266f76a,2023-08-16_09h06.28.155,HF_wild_card,2022.2.4,MacIntel,62.5,5e865fdcef7ca60d3266f76a,64d2fd46c836a06233681665,64dc7ecad5690df31c4e572c,,,,,,,decisionTrl,resources/DR.BMP,resources/DP.BMP,WildCard_NonEx,-0.14,-0.048888889,1,0,0,0.762,optionLeft,55,6080,3,24,0,24,0,1,,,,,,,,,,,,,,,,,,,,,,,,,,,,,,,,,,,,,,,
,,,,,,,5e865fdcef7ca60d3266f76a,2023-08-16_09h06.28.155,HF_wild_card,2022.2.4,MacIntel,62.5,5e865fdcef7ca60d3266f76a,64d2fd46c836a06233681665,64dc7ecad5690df31c4e572c,,,,,,,ctch,resources/DBN.BMP,resources/DP.BMP,Door4,-0.175555556,-0.06,1,0,0,0.546,optionLeft,60,6140,3,25,0,25,0,1,,,,,,,,,,,,,,,,,,,,,,,,,,,,,,,,,,,,,,,
,,,,,,,5e865fdcef7ca60d3266f76a,2023-08-16_09h06.28.155,HF_wild_card,2022.2.4,MacIntel,62.5,5e865fdcef7ca60d3266f76a,64d2fd46c836a06233681665,64dc7ecad5690df31c4e572c,,,,,,,decisionTrl,resources/DP.BMP,resources/DR.BMP,WildCard_NonEx,0.343333333,-0.098888889,1,0,0,1.245,optionRight,45,6185,3,26,0,26,0,1,,,,,,,,,,,,,,,,,,,,,,,,,,,,,,,,,,,,,,,
,,,,,,,5e865fdcef7ca60d3266f76a,2023-08-16_09h06.28.155,HF_wild_card,2022.2.4,MacIntel,62.5,5e865fdcef7ca60d3266f76a,64d2fd46c836a06233681665,64dc7ecad5690df31c4e572c,,,,,,,decisionTrl,resources/DG.BMP,resources/DBN.BMP,Door4,0.217777778,-0.093333333,1,0,0,0.662,optionRight,80,6265,3,27,0,27,0,1,,,,,,,,,,,,,,,,,,,,,,,,,,,,,,,,,,,,,,,
,,,,,,,5e865fdcef7ca60d3266f76a,2023-08-16_09h06.28.155,HF_wild_card,2022.2.4,MacIntel,62.5,5e865fdcef7ca60d3266f76a,64d2fd46c836a06233681665,64dc7ecad5690df31c4e572c,,,,,,,sngl,resources/DB.BMP,resources/Empty.png,Door2,-0.127777778,-0.03,1,0,0,0.596,optionLeft,40,6305,3,28,0,28,0,1,,,,,,,,,,,,,,,,,,,,,,,,,,,,,,,,,,,,,,,
,,,,,,,5e865fdcef7ca60d3266f76a,2023-08-16_09h06.28.155,HF_wild_card,2022.2.4,MacIntel,62.5,5e865fdcef7ca60d3266f76a,64d2fd46c836a06233681665,64dc7ecad5690df31c4e572c,,,,,,,decisionTrl,resources/DG.BMP,resources/DBN.BMP,Door4,0.213333333,-0.074444444,1,0,0,0.83,optionRight,80,6385,3,29,0,29,0,1,,,,,,,,,,,,,,,,,,,,,,,,,,,,,,,,,,,,,,,
,,,,,,,5e865fdcef7ca60d3266f76a,2023-08-16_09h06.28.155,HF_wild_card,2022.2.4,MacIntel,62.5,5e865fdcef7ca60d3266f76a,64d2fd46c836a06233681665,64dc7ecad5690df31c4e572c,,,,,,,decisionTrl,resources/DBN.BMP,resources/DR.BMP,Door4,-0.298888889,-0.07,1,0,0,0.963,optionLeft,80,6465,3,30,0,30,0,1,,,,,,,,,,,,,,,,,,,,,,,,,,,,,,,,,,,,,,,
,,,,,,,5e865fdcef7ca60d3266f76a,2023-08-16_09h06.28.155,HF_wild_card,2022.2.4,MacIntel,62.5,5e865fdcef7ca60d3266f76a,64d2fd46c836a06233681665,64dc7ecad5690df31c4e572c,,,,,,,ctch,resources/DG.BMP,resources/DB.BMP,Door3,-0.144444444,-0.048888889,1,0,0,0.727,optionLeft,70,6535,3,31,0,31,0,1,,,,,,,,,,,,,,,,,,,,,,,,,,,,,,,,,,,,,,,
,,,,,,,5e865fdcef7ca60d3266f76a,2023-08-16_09h06.28.155,HF_wild_card,2022.2.4,MacIntel,62.5,5e865fdcef7ca60d3266f76a,64d2fd46c836a06233681665,64dc7ecad5690df31c4e572c,,,,,,,decisionTrl,resources/DR.BMP,resources/DG.BMP,Door3,0.16,-0.015555556,1,0,0,0.947,optionRight,70,6605,3,32,0,32,0,1,,,,,,,,,,,,,,,,,,,,,,,,,,,,,,,,,,,,,,,
,,,,,,,5e865fdcef7ca60d3266f76a,2023-08-16_09h06.28.155,HF_wild_card,2022.2.4,MacIntel,62.5,5e865fdcef7ca60d3266f76a,64d2fd46c836a06233681665,64dc7ecad5690df31c4e572c,,,,,,,decisionTrl,resources/DBN.BMP,resources/DG.BMP,Door3,0.126666667,-0.052222222,1,0,0,0.578,optionRight,70,6675,3,33,0,33,0,1,,,,,,,,,,,,,,,,,,,,,,,,,,,,,,,,,,,,,,,
,,,,,,,5e865fdcef7ca60d3266f76a,2023-08-16_09h06.28.155,HF_wild_card,2022.2.4,MacIntel,62.5,5e865fdcef7ca60d3266f76a,64d2fd46c836a06233681665,64dc7ecad5690df31c4e572c,,,,,,,sngl,resources/DBN.BMP,resources/Empty.png,Door4,-0.148888889,-0.026666667,1,0,0,0.463,optionLeft,80,6755,3,34,0,34,0,1,,,,,,,,,,,,,,,,,,,,,,,,,,,,,,,,,,,,,,,
,,,,,,,5e865fdcef7ca60d3266f76a,2023-08-16_09h06.28.155,HF_wild_card,2022.2.4,MacIntel,62.5,5e865fdcef7ca60d3266f76a,64d2fd46c836a06233681665,64dc7ecad5690df31c4e572c,,,,,,,ctch,resources/DG.BMP,resources/DB.BMP,Door3,-0.155555556,-0.062222222,1,0,0,0.678,optionLeft,70,6825,3,35,0,35,0,1,,,,,,,,,,,,,,,,,,,,,,,,,,,,,,,,,,,,,,,
,,,,,,,5e865fdcef7ca60d3266f76a,2023-08-16_09h06.28.155,HF_wild_card,2022.2.4,MacIntel,62.5,5e865fdcef7ca60d3266f76a,64d2fd46c836a06233681665,64dc7ecad5690df31c4e572c,,,,,,,decisionTrl,resources/DBN.BMP,resources/DG.BMP,Door4,-0.143333333,-0.072222222,1,0,0,0.846,optionLeft,80,6905,3,36,0,36,0,1,,,,,,,,,,,,,,,,,,,,,,,,,,,,,,,,,,,,,,,
,,,,,,,5e865fdcef7ca60d3266f76a,2023-08-16_09h06.28.155,HF_wild_card,2022.2.4,MacIntel,62.5,5e865fdcef7ca60d3266f76a,64d2fd46c836a06233681665,64dc7ecad5690df31c4e572c,,,,,,,ctch,resources/DP.BMP,resources/DBN.BMP,Door4,0.192222222,-0.066666667,1,0,0,1.215,optionRight,80,6985,3,37,0,37,0,1,,,,,,,,,,,,,,,,,,,,,,,,,,,,,,,,,,,,,,,
,,,,,,,5e865fdcef7ca60d3266f76a,2023-08-16_09h06.28.155,HF_wild_card,2022.2.4,MacIntel,62.5,5e865fdcef7ca60d3266f76a,64d2fd46c836a06233681665,64dc7ecad5690df31c4e572c,,,,,,,decisionTrl,resources/DBN.BMP,resources/DG.BMP,Door4,-0.151111111,-0.012222222,1,0,0,0.912,optionLeft,60,7045,3,38,0,38,0,1,,,,,,,,,,,,,,,,,,,,,,,,,,,,,,,,,,,,,,,
,,,,,,,5e865fdcef7ca60d3266f76a,2023-08-16_09h06.28.155,HF_wild_card,2022.2.4,MacIntel,62.5,5e865fdcef7ca60d3266f76a,64d2fd46c836a06233681665,64dc7ecad5690df31c4e572c,,,,,,,decisionTrl,resources/DB.BMP,resources/DP.BMP,Door1,0.158888889,-0.11,1,0,0,2.195,optionRight,30,7075,3,39,0,39,0,1,,,,,,,,,,,,,,,,,,,,,,,,,,,,,,,,,,,,,,,
,,,,,,,5e865fdcef7ca60d3266f76a,2023-08-16_09h06.28.155,HF_wild_card,2022.2.4,MacIntel,62.5,5e865fdcef7ca60d3266f76a,64d2fd46c836a06233681665,64dc7ecad5690df31c4e572c,,,,,,,decisionTrl,resources/DR.BMP,resources/DBN.BMP,Door4,0.144444444,-0.033333333,1,0,0,0.712,optionRight,80,7155,3,40,0,40,0,1,,,,,,,,,,,,,,,,,,,,,,,,,,,,,,,,,,,,,,,
,,,,,,,5e865fdcef7ca60d3266f76a,2023-08-16_09h06.28.155,HF_wild_card,2022.2.4,MacIntel,62.5,5e865fdcef7ca60d3266f76a,64d2fd46c836a06233681665,64dc7ecad5690df31c4e572c,,,,,,,sngl,resources/DP.BMP,resources/Empty.png,Door1,-0.164444444,-0.003333333,1,0,0,0.595,optionLeft,30,7185,3,41,0,41,0,1,,,,,,,,,,,,,,,,,,,,,,,,,,,,,,,,,,,,,,,
,,,,,,,5e865fdcef7ca60d3266f76a,2023-08-16_09h06.28.155,HF_wild_card,2022.2.4,MacIntel,62.5,5e865fdcef7ca60d3266f76a,64d2fd46c836a06233681665,64dc7ecad5690df31c4e572c,,,,,,,decisionTrl,resources/DG.BMP,resources/DR.BMP,Door3,-0.188888889,-0.002222222,1,0,0,1.384,optionLeft,70,7255,3,42,0,42,0,1,,,,,,,,,,,,,,,,,,,,,,,,,,,,,,,,,,,,,,,
,,,,,,,5e865fdcef7ca60d3266f76a,2023-08-16_09h06.28.155,HF_wild_card,2022.2.4,MacIntel,62.5,5e865fdcef7ca60d3266f76a,64d2fd46c836a06233681665,64dc7ecad5690df31c4e572c,,,,,,,sngl,resources/Empty.png,resources/DB.BMP,Door2,0.173333333,-0.074444444,1,0,0,0.596,optionRight,20,7275,3,43,0,43,0,1,,,,,,,,,,,,,,,,,,,,,,,,,,,,,,,,,,,,,,,
,,,,,,,5e865fdcef7ca60d3266f76a,2023-08-16_09h06.28.155,HF_wild_card,2022.2.4,MacIntel,62.5,5e865fdcef7ca60d3266f76a,64d2fd46c836a06233681665,64dc7ecad5690df31c4e572c,,,,,,,,,,,,,,,,,,,,,,,,,,2,0,2,0,1,,,,,,,,,,,,,,,,,,,,,,,,,,,,,,,,,,
,,,,,,,5e865fdcef7ca60d3266f76a,2023-08-16_09h06.28.155,HF_wild_card,2022.2.4,MacIntel,62.5,5e865fdcef7ca60d3266f76a,64d2fd46c836a06233681665,64dc7ecad5690df31c4e572c,,,,,,,decisionTrl,resources/DB.BMP,resources/DY.BMP,WildCard_Ex,0.144444444,-0.213333333,1,0,0,6.795,optionRight,5,7280,4,0,0,0,0,1,,,,,,,,,,,,,,,,,,,,,,,,,,,,,,,,,,,,,,,
,,,,,,,5e865fdcef7ca60d3266f76a,2023-08-16_09h06.28.155,HF_wild_card,2022.2.4,MacIntel,62.5,5e865fdcef7ca60d3266f76a,64d2fd46c836a06233681665,64dc7ecad5690df31c4e572c,,,,,,,sngl,resources/Empty.png,resources/DY.BMP,WildCard_Ex,0.078888889,-0.041111111,1,0,0,0.763,optionRight,95,7375,4,1,0,1,0,1,,,,,,,,,,,,,,,,,,,,,,,,,,,,,,,,,,,,,,,
,,,,,,,5e865fdcef7ca60d3266f76a,2023-08-16_09h06.28.155,HF_wild_card,2022.2.4,MacIntel,62.5,5e865fdcef7ca60d3266f76a,64d2fd46c836a06233681665,64dc7ecad5690df31c4e572c,,,,,,,decisionTrl,resources/DBN.BMP,resources/DY.BMP,Door4,-0.166666667,-0.024444444,1,0,0,2.614,optionLeft,80,7455,4,2,0,2,0,1,,,,,,,,,,,,,,,,,,,,,,,,,,,,,,,,,,,,,,,
,,,,,,,5e865fdcef7ca60d3266f76a,2023-08-16_09h06.28.155,HF_wild_card,2022.2.4,MacIntel,62.5,5e865fdcef7ca60d3266f76a,64d2fd46c836a06233681665,64dc7ecad5690df31c4e572c,,,,,,,decisionTrl,resources/DP.BMP,resources/DB.BMP,Door1,-0.163333333,-0.07,1,0,0,5.38,optionLeft,30,7485,4,3,0,3,0,1,,,,,,,,,,,,,,,,,,,,,,,,,,,,,,,,,,,,,,,
,,,,,,,5e865fdcef7ca60d3266f76a,2023-08-16_09h06.28.155,HF_wild_card,2022.2.4,MacIntel,62.5,5e865fdcef7ca60d3266f76a,64d2fd46c836a06233681665,64dc7ecad5690df31c4e572c,,,,,,,decisionTrl,resources/DP.BMP,resources/DY.BMP,WildCard_Ex,0.175555556,-0.08,1,0,0,0.913,optionRight,5,7490,4,4,0,4,0,1,,,,,,,,,,,,,,,,,,,,,,,,,,,,,,,,,,,,,,,
,,,,,,,5e865fdcef7ca60d3266f76a,2023-08-16_09h06.28.155,HF_wild_card,2022.2.4,MacIntel,62.5,5e865fdcef7ca60d3266f76a,64d2fd46c836a06233681665,64dc7ecad5690df31c4e572c,,,,,,,ctch,resources/DBN.BMP,resources/DP.BMP,Door4,-0.217777778,-0.021111111,1,0,0,1.03,optionLeft,60,7550,4,5,0,5,0,1,,,,,,,,,,,,,,,,,,,,,,,,,,,,,,,,,,,,,,,
,,,,,,,5e865fdcef7ca60d3266f76a,2023-08-16_09h06.28.155,HF_wild_card,2022.2.4,MacIntel,62.5,5e865fdcef7ca60d3266f76a,64d2fd46c836a06233681665,64dc7ecad5690df31c4e572c,,,,,,,ctch,resources/DB.BMP,resources/DG.BMP,Door3,0.116666667,-0.094444444,1,0,0,2.245,optionRight,70,7620,4,6,0,6,0,1,,,,,,,,,,,,,,,,,,,,,,,,,,,,,,,,,,,,,,,
,,,,,,,5e865fdcef7ca60d3266f76a,2023-08-16_09h06.28.155,HF_wild_card,2022.2.4,MacIntel,62.5,5e865fdcef7ca60d3266f76a,64d2fd46c836a06233681665,64dc7ecad5690df31c4e572c,,,,,,,sngl,resources/Empty.png,resources/DBN.BMP,Door4,0.183333333,-0.074444444,1,0,0,0.628,optionRight,80,7700,4,7,0,7,0,1,,,,,,,,,,,,,,,,,,,,,,,,,,,,,,,,,,,,,,,
,,,,,,,5e865fdcef7ca60d3266f76a,2023-08-16_09h06.28.155,HF_wild_card,2022.2.4,MacIntel,62.5,5e865fdcef7ca60d3266f76a,64d2fd46c836a06233681665,64dc7ecad5690df31c4e572c,,,,,,,ctch,resources/DP.BMP,resources/DBN.BMP,Door4,0.3,-0.112222222,1,0,0,0.909,optionRight,60,7760,4,8,0,8,0,1,,,,,,,,,,,,,,,,,,,,,,,,,,,,,,,,,,,,,,,
,,,,,,,5e865fdcef7ca60d3266f76a,2023-08-16_09h06.28.155,HF_wild_card,2022.2.4,MacIntel,62.5,5e865fdcef7ca60d3266f76a,64d2fd46c836a06233681665,64dc7ecad5690df31c4e572c,,,,,,,decisionTrl,resources/DG.BMP,resources/DY.BMP,WildCard_Ex,0.128888889,-0.085555556,1,0,0,1.495,optionRight,95,7855,4,9,0,9,0,1,,,,,,,,,,,,,,,,,,,,,,,,,,,,,,,,,,,,,,,
,,,,,,,5e865fdcef7ca60d3266f76a,2023-08-16_09h06.28.155,HF_wild_card,2022.2.4,MacIntel,62.5,5e865fdcef7ca60d3266f76a,64d2fd46c836a06233681665,64dc7ecad5690df31c4e572c,,,,,,,decisionTrl,resources/DG.BMP,resources/DBN.BMP,Door4,0.227777778,-0.091111111,1,0,0,1.646,optionRight,80,7935,4,10,0,10,0,1,,,,,,,,,,,,,,,,,,,,,,,,,,,,,,,,,,,,,,,
,,,,,,,5e865fdcef7ca60d3266f76a,2023-08-16_09h06.28.155,HF_wild_card,2022.2.4,MacIntel,62.5,5e865fdcef7ca60d3266f76a,64d2fd46c836a06233681665,64dc7ecad5690df31c4e572c,,,,,,,decisionTrl,resources/DY.BMP,resources/DG.BMP,WildCard_Ex,-0.171111111,-0.03,1,0,0,2.279,optionLeft,5,7940,4,11,0,11,0,1,,,,,,,,,,,,,,,,,,,,,,,,,,,,,,,,,,,,,,,
,,,,,,,5e865fdcef7ca60d3266f76a,2023-08-16_09h06.28.155,HF_wild_card,2022.2.4,MacIntel,62.5,5e865fdcef7ca60d3266f76a,64d2fd46c836a06233681665,64dc7ecad5690df31c4e572c,,,,,,,sngl,resources/DY.BMP,resources/Empty.png,WildCard_Ex,-0.147777778,-0.034444444,1,0,0,0.579,optionLeft,95,8035,4,12,0,12,0,1,,,,,,,,,,,,,,,,,,,,,,,,,,,,,,,,,,,,,,,
,,,,,,,5e865fdcef7ca60d3266f76a,2023-08-16_09h06.28.155,HF_wild_card,2022.2.4,MacIntel,62.5,5e865fdcef7ca60d3266f76a,64d2fd46c836a06233681665,64dc7ecad5690df31c4e572c,,,,,,,sngl,resources/Empty.png,resources/DG.BMP,Door3,0.181111111,-0.082222222,1,0,0,0.509,optionRight,70,8105,4,13,0,13,0,1,,,,,,,,,,,,,,,,,,,,,,,,,,,,,,,,,,,,,,,
,,,,,,,5e865fdcef7ca60d3266f76a,2023-08-16_09h06.28.155,HF_wild_card,2022.2.4,MacIntel,62.5,5e865fdcef7ca60d3266f76a,64d2fd46c836a06233681665,64dc7ecad5690df31c4e572c,,,,,,,sngl,resources/Empty.png,resources/DB.BMP,Door2,0.157777778,-0.092222222,1,0,0,0.515,optionRight,40,8145,4,14,0,14,0,1,,,,,,,,,,,,,,,,,,,,,,,,,,,,,,,,,,,,,,,
,,,,,,,5e865fdcef7ca60d3266f76a,2023-08-16_09h06.28.155,HF_wild_card,2022.2.4,MacIntel,62.5,5e865fdcef7ca60d3266f76a,64d2fd46c836a06233681665,64dc7ecad5690df31c4e572c,,,,,,,decisionTrl,resources/DBN.BMP,resources/DG.BMP,Door4,-0.192222222,-0.036666667,1,0,0,0.865,optionLeft,60,8205,4,15,0,15,0,1,,,,,,,,,,,,,,,,,,,,,,,,,,,,,,,,,,,,,,,
,,,,,,,5e865fdcef7ca60d3266f76a,2023-08-16_09h06.28.155,HF_wild_card,2022.2.4,MacIntel,62.5,5e865fdcef7ca60d3266f76a,64d2fd46c836a06233681665,64dc7ecad5690df31c4e572c,,,,,,,decisionTrl,resources/DBN.BMP,resources/DG.BMP,Door4,-0.115555556,-0.058888889,1,0,0,0.829,optionLeft,80,8285,4,16,0,16,0,1,,,,,,,,,,,,,,,,,,,,,,,,,,,,,,,,,,,,,,,
,,,,,,,5e865fdcef7ca60d3266f76a,2023-08-16_09h06.28.155,HF_wild_card,2022.2.4,MacIntel,62.5,5e865fdcef7ca60d3266f76a,64d2fd46c836a06233681665,64dc7ecad5690df31c4e572c,,,,,,,decisionTrl,resources/DP.BMP,resources/DB.BMP,Door1,-0.174444444,-0.133333333,1,0,0,5.112,optionLeft,30,8315,4,17,0,17,0,1,,,,,,,,,,,,,,,,,,,,,,,,,,,,,,,,,,,,,,,
,,,,,,,5e865fdcef7ca60d3266f76a,2023-08-16_09h06.28.155,HF_wild_card,2022.2.4,MacIntel,62.5,5e865fdcef7ca60d3266f76a,64d2fd46c836a06233681665,64dc7ecad5690df31c4e572c,,,,,,,decisionTrl,resources/DBN.BMP,resources/DG.BMP,Door3,0.111111111,-0.072222222,1,0,0,0.997,optionRight,70,8385,4,18,0,18,0,1,,,,,,,,,,,,,,,,,,,,,,,,,,,,,,,,,,,,,,,
,,,,,,,5e865fdcef7ca60d3266f76a,2023-08-16_09h06.28.155,HF_wild_card,2022.2.4,MacIntel,62.5,5e865fdcef7ca60d3266f76a,64d2fd46c836a06233681665,64dc7ecad5690df31c4e572c,,,,,,,decisionTrl,resources/DP.BMP,resources/DB.BMP,Door1,-0.235555556,-0.076666667,1,0,0,1.095,optionLeft,30,8415,4,19,0,19,0,1,,,,,,,,,,,,,,,,,,,,,,,,,,,,,,,,,,,,,,,
,,,,,,,5e865fdcef7ca60d3266f76a,2023-08-16_09h06.28.155,HF_wild_card,2022.2.4,MacIntel,62.5,5e865fdcef7ca60d3266f76a,64d2fd46c836a06233681665,64dc7ecad5690df31c4e572c,,,,,,,decisionTrl,resources/DY.BMP,resources/DP.BMP,WildCard_Ex,-0.134444444,-0.072222222,1,0,0,2.662,optionLeft,95,8510,4,20,0,20,0,1,,,,,,,,,,,,,,,,,,,,,,,,,,,,,,,,,,,,,,,
,,,,,,,5e865fdcef7ca60d3266f76a,2023-08-16_09h06.28.155,HF_wild_card,2022.2.4,MacIntel,62.5,5e865fdcef7ca60d3266f76a,64d2fd46c836a06233681665,64dc7ecad5690df31c4e572c,,,,,,,decisionTrl,resources/DB.BMP,resources/DP.BMP,Door1,0.254444444,-0.11,1,0,0,2.065,optionRight,30,8540,4,21,0,21,0,1,,,,,,,,,,,,,,,,,,,,,,,,,,,,,,,,,,,,,,,
,,,,,,,5e865fdcef7ca60d3266f76a,2023-08-16_09h06.28.155,HF_wild_card,2022.2.4,MacIntel,62.5,5e865fdcef7ca60d3266f76a,64d2fd46c836a06233681665,64dc7ecad5690df31c4e572c,,,,,,,sngl,resources/DP.BMP,resources/Empty.png,Door1,-0.254444444,-0.052222222,1,0,0,0.562,optionLeft,30,8570,4,22,0,22,0,1,,,,,,,,,,,,,,,,,,,,,,,,,,,,,,,,,,,,,,,
,,,,,,,5e865fdcef7ca60d3266f76a,2023-08-16_09h06.28.155,HF_wild_card,2022.2.4,MacIntel,62.5,5e865fdcef7ca60d3266f76a,64d2fd46c836a06233681665,64dc7ecad5690df31c4e572c,,,,,,,decisionTrl,resources/DB.BMP,resources/DP.BMP,Door1,0.155555556,-0.115555556,1,0,0,1.012,optionRight,30,8600,4,23,0,23,0,1,,,,,,,,,,,,,,,,,,,,,,,,,,,,,,,,,,,,,,,
,,,,,,,5e865fdcef7ca60d3266f76a,2023-08-16_09h06.28.155,HF_wild_card,2022.2.4,MacIntel,62.5,5e865fdcef7ca60d3266f76a,64d2fd46c836a06233681665,64dc7ecad5690df31c4e572c,,,,,,,decisionTrl,resources/DB.BMP,resources/DP.BMP,Door1,0.141111111,-0.105555556,1,0,0,0.612,optionRight,30,8630,4,24,0,24,0,1,,,,,,,,,,,,,,,,,,,,,,,,,,,,,,,,,,,,,,,
,,,,,,,5e865fdcef7ca60d3266f76a,2023-08-16_09h06.28.155,HF_wild_card,2022.2.4,MacIntel,62.5,5e865fdcef7ca60d3266f76a,64d2fd46c836a06233681665,64dc7ecad5690df31c4e572c,,,,,,,sngl,resources/Empty.png,resources/DY.BMP,WildCard_Ex,0.18,-0.093333333,1,0,0,0.595,optionRight,5,8635,4,25,0,25,0,1,,,,,,,,,,,,,,,,,,,,,,,,,,,,,,,,,,,,,,,
,,,,,,,5e865fdcef7ca60d3266f76a,2023-08-16_09h06.28.155,HF_wild_card,2022.2.4,MacIntel,62.5,5e865fdcef7ca60d3266f76a,64d2fd46c836a06233681665,64dc7ecad5690df31c4e572c,,,,,,,decisionTrl,resources/DY.BMP,resources/DBN.BMP,WildCard_Ex,-0.21,-0.053333333,1,0,0,0.73,optionLeft,5,8640,4,26,0,26,0,1,,,,,,,,,,,,,,,,,,,,,,,,,,,,,,,,,,,,,,,
,,,,,,,5e865fdcef7ca60d3266f76a,2023-08-16_09h06.28.155,HF_wild_card,2022.2.4,MacIntel,62.5,5e865fdcef7ca60d3266f76a,64d2fd46c836a06233681665,64dc7ecad5690df31c4e572c,,,,,,,sngl,resources/DY.BMP,resources/Empty.png,WildCard_Ex,-0.157777778,-0.045555556,1,0,0,0.546,optionLeft,5,8645,4,27,0,27,0,1,,,,,,,,,,,,,,,,,,,,,,,,,,,,,,,,,,,,,,,
,,,,,,,5e865fdcef7ca60d3266f76a,2023-08-16_09h06.28.155,HF_wild_card,2022.2.4,MacIntel,62.5,5e865fdcef7ca60d3266f76a,64d2fd46c836a06233681665,64dc7ecad5690df31c4e572c,,,,,,,decisionTrl,resources/DB.BMP,resources/DP.BMP,Door1,0.295555556,-0.057777778,1,0,0,1.131,optionRight,30,8675,4,28,0,28,0,1,,,,,,,,,,,,,,,,,,,,,,,,,,,,,,,,,,,,,,,
,,,,,,,5e865fdcef7ca60d3266f76a,2023-08-16_09h06.28.155,HF_wild_card,2022.2.4,MacIntel,62.5,5e865fdcef7ca60d3266f76a,64d2fd46c836a06233681665,64dc7ecad5690df31c4e572c,,,,,,,sngl,resources/Empty.png,resources/DP.BMP,Door1,0.227777778,-0.071111111,1,0,0,0.563,optionRight,30,8705,4,29,0,29,0,1,,,,,,,,,,,,,,,,,,,,,,,,,,,,,,,,,,,,,,,
,,,,,,,5e865fdcef7ca60d3266f76a,2023-08-16_09h06.28.155,HF_wild_card,2022.2.4,MacIntel,62.5,5e865fdcef7ca60d3266f76a,64d2fd46c836a06233681665,64dc7ecad5690df31c4e572c,,,,,,,sngl,resources/DB.BMP,resources/Empty.png,Door2,-0.112222222,-0.045555556,1,0,0,0.628,optionLeft,20,8725,4,30,0,30,0,1,,,,,,,,,,,,,,,,,,,,,,,,,,,,,,,,,,,,,,,
,,,,,,,5e865fdcef7ca60d3266f76a,2023-08-16_09h06.28.155,HF_wild_card,2022.2.4,MacIntel,62.5,5e865fdcef7ca60d3266f76a,64d2fd46c836a06233681665,64dc7ecad5690df31c4e572c,,,,,,,decisionTrl,resources/DG.BMP,resources/DBN.BMP,Door4,0.25,-0.091111111,1,0,0,4.18,optionRight,60,8785,4,31,0,31,0,1,,,,,,,,,,,,,,,,,,,,,,,,,,,,,,,,,,,,,,,
,,,,,,,5e865fdcef7ca60d3266f76a,2023-08-16_09h06.28.155,HF_wild_card,2022.2.4,MacIntel,62.5,5e865fdcef7ca60d3266f76a,64d2fd46c836a06233681665,64dc7ecad5690df31c4e572c,,,,,,,sngl,resources/DG.BMP,resources/Empty.png,Door3,-0.163333333,-0.024444444,1,0,0,0.512,optionLeft,70,8855,4,32,0,32,0,1,,,,,,,,,,,,,,,,,,,,,,,,,,,,,,,,,,,,,,,
,,,,,,,5e865fdcef7ca60d3266f76a,2023-08-16_09h06.28.155,HF_wild_card,2022.2.4,MacIntel,62.5,5e865fdcef7ca60d3266f76a,64d2fd46c836a06233681665,64dc7ecad5690df31c4e572c,,,,,,,decisionTrl,resources/DBN.BMP,resources/DG.BMP,Door4,-0.22,-0.035555556,1,0,0,1.528,optionLeft,60,8915,4,33,0,33,0,1,,,,,,,,,,,,,,,,,,,,,,,,,,,,,,,,,,,,,,,
,,,,,,,5e865fdcef7ca60d3266f76a,2023-08-16_09h06.28.155,HF_wild_card,2022.2.4,MacIntel,62.5,5e865fdcef7ca60d3266f76a,64d2fd46c836a06233681665,64dc7ecad5690df31c4e572c,,,,,,,decisionTrl,resources/DY.BMP,resources/DB.BMP,WildCard_Ex,-0.258888889,-0.037777778,1,0,0,0.632,optionLeft,95,9010,4,34,0,34,0,1,,,,,,,,,,,,,,,,,,,,,,,,,,,,,,,,,,,,,,,
,,,,,,,5e865fdcef7ca60d3266f76a,2023-08-16_09h06.28.155,HF_wild_card,2022.2.4,MacIntel,62.5,5e865fdcef7ca60d3266f76a,64d2fd46c836a06233681665,64dc7ecad5690df31c4e572c,,,,,,,ctch,resources/DB.BMP,resources/DG.BMP,Door3,0.274444444,-0.078888889,1,0,0,2.179,optionRight,70,9080,4,35,0,35,0,1,,,,,,,,,,,,,,,,,,,,,,,,,,,,,,,,,,,,,,,
,,,,,,,5e865fdcef7ca60d3266f76a,2023-08-16_09h06.28.155,HF_wild_card,2022.2.4,MacIntel,62.5,5e865fdcef7ca60d3266f76a,64d2fd46c836a06233681665,64dc7ecad5690df31c4e572c,,,,,,,ctch,resources/DG.BMP,resources/DB.BMP,Door3,-0.19,-0.061111111,1,0,0,0.927,optionLeft,70,9150,4,36,0,36,0,1,,,,,,,,,,,,,,,,,,,,,,,,,,,,,,,,,,,,,,,
,,,,,,,5e865fdcef7ca60d3266f76a,2023-08-16_09h06.28.155,HF_wild_card,2022.2.4,MacIntel,62.5,5e865fdcef7ca60d3266f76a,64d2fd46c836a06233681665,64dc7ecad5690df31c4e572c,,,,,,,decisionTrl,resources/DG.BMP,resources/DBN.BMP,Door4,0.174444444,-0.036666667,1,0,0,0.979,optionRight,60,9210,4,37,0,37,0,1,,,,,,,,,,,,,,,,,,,,,,,,,,,,,,,,,,,,,,,
,,,,,,,5e865fdcef7ca60d3266f76a,2023-08-16_09h06.28.155,HF_wild_card,2022.2.4,MacIntel,62.5,5e865fdcef7ca60d3266f76a,64d2fd46c836a06233681665,64dc7ecad5690df31c4e572c,,,,,,,ctch,resources/DG.BMP,resources/DB.BMP,Door3,-0.196666667,-0.018888889,1,0,0,0.73,optionLeft,70,9280,4,38,0,38,0,1,,,,,,,,,,,,,,,,,,,,,,,,,,,,,,,,,,,,,,,
,,,,,,,5e865fdcef7ca60d3266f76a,2023-08-16_09h06.28.155,HF_wild_card,2022.2.4,MacIntel,62.5,5e865fdcef7ca60d3266f76a,64d2fd46c836a06233681665,64dc7ecad5690df31c4e572c,,,,,,,ctch,resources/DBN.BMP,resources/DP.BMP,Door4,-0.16,-0.043333333,1,0,0,0.813,optionLeft,80,9360,4,39,0,39,0,1,,,,,,,,,,,,,,,,,,,,,,,,,,,,,,,,,,,,,,,
,,,,,,,5e865fdcef7ca60d3266f76a,2023-08-16_09h06.28.155,HF_wild_card,2022.2.4,MacIntel,62.5,5e865fdcef7ca60d3266f76a,64d2fd46c836a06233681665,64dc7ecad5690df31c4e572c,,,,,,,decisionTrl,resources/DG.BMP,resources/DBN.BMP,Door3,-0.126666667,-0.062222222,1,0,0,1.662,optionLeft,70,9430,4,40,0,40,0,1,,,,,,,,,,,,,,,,,,,,,,,,,,,,,,,,,,,,,,,
,,,,,,,5e865fdcef7ca60d3266f76a,2023-08-16_09h06.28.155,HF_wild_card,2022.2.4,MacIntel,62.5,5e865fdcef7ca60d3266f76a,64d2fd46c836a06233681665,64dc7ecad5690df31c4e572c,,,,,,,sngl,resources/DBN.BMP,resources/Empty.png,Door4,-0.177777778,-0.047777778,1,0,0,0.579,optionLeft,60,9490,4,41,0,41,0,1,,,,,,,,,,,,,,,,,,,,,,,,,,,,,,,,,,,,,,,
,,,,,,,5e865fdcef7ca60d3266f76a,2023-08-16_09h06.28.155,HF_wild_card,2022.2.4,MacIntel,62.5,5e865fdcef7ca60d3266f76a,64d2fd46c836a06233681665,64dc7ecad5690df31c4e572c,,,,,,,decisionTrl,resources/DP.BMP,resources/DB.BMP,Door1,-0.167777778,-0.087777778,1,0,0,1.115,optionLeft,30,9520,4,42,0,42,0,1,,,,,,,,,,,,,,,,,,,,,,,,,,,,,,,,,,,,,,,
,,,,,,,5e865fdcef7ca60d3266f76a,2023-08-16_09h06.28.155,HF_wild_card,2022.2.4,MacIntel,62.5,5e865fdcef7ca60d3266f76a,64d2fd46c836a06233681665,64dc7ecad5690df31c4e572c,,,,,,,ctch,resources/DP.BMP,resources/DBN.BMP,Door4,0.253333333,-0.051111111,1,0,0,0.715,optionRight,60,9580,4,43,0,43,0,1,,,,,,,,,,,,,,,,,,,,,,,,,,,,,,,,,,,,,,,
,,,,,,,5e865fdcef7ca60d3266f76a,2023-08-16_09h06.28.155,HF_wild_card,2022.2.4,MacIntel,62.5,5e865fdcef7ca60d3266f76a,64d2fd46c836a06233681665,64dc7ecad5690df31c4e572c,,,,,,,,,,,,,,,,,,,,,,,,,,3,0,3,0,1,,,,,,,,,,,,,,,,,,,,,,,,,,,,,,,,,,
,,,,,,,5e865fdcef7ca60d3266f76a,2023-08-16_09h06.28.155,HF_wild_card,2022.2.4,MacIntel,62.5,5e865fdcef7ca60d3266f76a,64d2fd46c836a06233681665,64dc7ecad5690df31c4e572c,,,,,,,decisionTrl,resources/DG.BMP,resources/DBN.BMP,Door4,0.115555556,-0.206666667,1,0,0,1.045,optionRight,80,9660,5,0,0,0,0,1,,,,,,,,,,,,,,,,,,,,,,,,,,,,,,,,,,,,,,,
,,,,,,,5e865fdcef7ca60d3266f76a,2023-08-16_09h06.28.155,HF_wild_card,2022.2.4,MacIntel,62.5,5e865fdcef7ca60d3266f76a,64d2fd46c836a06233681665,64dc7ecad5690df31c4e572c,,,,,,,sngl,resources/Empty.png,resources/DP.BMP,Door1,0.228888889,-0.064444444,1,0,0,0.496,optionRight,30,9690,5,1,0,1,0,1,,,,,,,,,,,,,,,,,,,,,,,,,,,,,,,,,,,,,,,
,,,,,,,5e865fdcef7ca60d3266f76a,2023-08-16_09h06.28.155,HF_wild_card,2022.2.4,MacIntel,62.5,5e865fdcef7ca60d3266f76a,64d2fd46c836a06233681665,64dc7ecad5690df31c4e572c,,,,,,,ctch,resources/DBN.BMP,resources/DP.BMP,Door4,-0.216666667,-0.015555556,1,0,0,0.562,optionLeft,80,9770,5,2,0,2,0,1,,,,,,,,,,,,,,,,,,,,,,,,,,,,,,,,,,,,,,,
,,,,,,,5e865fdcef7ca60d3266f76a,2023-08-16_09h06.28.155,HF_wild_card,2022.2.4,MacIntel,62.5,5e865fdcef7ca60d3266f76a,64d2fd46c836a06233681665,64dc7ecad5690df31c4e572c,,,,,,,decisionTrl,resources/DG.BMP,resources/DBN.BMP,Door4,0.234444444,-0.061111111,1,0,0,0.496,optionRight,60,9830,5,3,0,3,0,1,,,,,,,,,,,,,,,,,,,,,,,,,,,,,,,,,,,,,,,
,,,,,,,5e865fdcef7ca60d3266f76a,2023-08-16_09h06.28.155,HF_wild_card,2022.2.4,MacIntel,62.5,5e865fdcef7ca60d3266f76a,64d2fd46c836a06233681665,64dc7ecad5690df31c4e572c,,,,,,,ctch,resources/DB.BMP,resources/DG.BMP,Door3,0.144444444,-0.058888889,1,0,0,0.497,optionRight,70,9900,5,4,0,4,0,1,,,,,,,,,,,,,,,,,,,,,,,,,,,,,,,,,,,,,,,
,,,,,,,5e865fdcef7ca60d3266f76a,2023-08-16_09h06.28.155,HF_wild_card,2022.2.4,MacIntel,62.5,5e865fdcef7ca60d3266f76a,64d2fd46c836a06233681665,64dc7ecad5690df31c4e572c,,,,,,,decisionTrl,resources/DP.BMP,resources/DB.BMP,Door1,-0.235555556,-0.085555556,1,0,0,3.964,optionLeft,30,9930,5,5,0,5,0,1,,,,,,,,,,,,,,,,,,,,,,,,,,,,,,,,,,,,,,,
,,,,,,,5e865fdcef7ca60d3266f76a,2023-08-16_09h06.28.155,HF_wild_card,2022.2.4,MacIntel,62.5,5e865fdcef7ca60d3266f76a,64d2fd46c836a06233681665,64dc7ecad5690df31c4e572c,,,,,,,decisionTrl,resources/DP.BMP,resources/DY.BMP,WildCard_Ex,0.233333333,-0.15,1,0,0,1.063,optionRight,95,10025,5,6,0,6,0,1,,,,,,,,,,,,,,,,,,,,,,,,,,,,,,,,,,,,,,,
,,,,,,,5e865fdcef7ca60d3266f76a,2023-08-16_09h06.28.155,HF_wild_card,2022.2.4,MacIntel,62.5,5e865fdcef7ca60d3266f76a,64d2fd46c836a06233681665,64dc7ecad5690df31c4e572c,,,,,,,sngl,resources/DG.BMP,resources/Empty.png,Door3,-0.233333333,-0.044444444,1,0,0,0.528,optionLeft,70,10095,5,7,0,7,0,1,,,,,,,,,,,,,,,,,,,,,,,,,,,,,,,,,,,,,,,
,,,,,,,5e865fdcef7ca60d3266f76a,2023-08-16_09h06.28.155,HF_wild_card,2022.2.4,MacIntel,62.5,5e865fdcef7ca60d3266f76a,64d2fd46c836a06233681665,64dc7ecad5690df31c4e572c,,,,,,,decisionTrl,resources/DB.BMP,resources/DP.BMP,Door1,0.105555556,-0.055555556,1,0,0,0.896,optionRight,30,10125,5,8,0,8,0,1,,,,,,,,,,,,,,,,,,,,,,,,,,,,,,,,,,,,,,,
,,,,,,,5e865fdcef7ca60d3266f76a,2023-08-16_09h06.28.155,HF_wild_card,2022.2.4,MacIntel,62.5,5e865fdcef7ca60d3266f76a,64d2fd46c836a06233681665,64dc7ecad5690df31c4e572c,,,,,,,ctch,resources/DG.BMP,resources/DB.BMP,Door3,-0.2,-0.12,1,0,0,0.628,optionLeft,70,10195,5,9,0,9,0,1,,,,,,,,,,,,,,,,,,,,,,,,,,,,,,,,,,,,,,,
,,,,,,,5e865fdcef7ca60d3266f76a,2023-08-16_09h06.28.155,HF_wild_card,2022.2.4,MacIntel,62.5,5e865fdcef7ca60d3266f76a,64d2fd46c836a06233681665,64dc7ecad5690df31c4e572c,,,,,,,sngl,resources/DY.BMP,resources/Empty.png,WildCard_Ex,-0.154444444,-0.008888889,1,0,0,0.83,optionLeft,95,10290,5,10,0,10,0,1,,,,,,,,,,,,,,,,,,,,,,,,,,,,,,,,,,,,,,,
,,,,,,,5e865fdcef7ca60d3266f76a,2023-08-16_09h06.28.155,HF_wild_card,2022.2.4,MacIntel,62.5,5e865fdcef7ca60d3266f76a,64d2fd46c836a06233681665,64dc7ecad5690df31c4e572c,,,,,,,decisionTrl,resources/DG.BMP,resources/DY.BMP,WildCard_Ex,0.185555556,-0.081111111,1,0,0,2.077,optionRight,95,10385,5,11,0,11,0,1,,,,,,,,,,,,,,,,,,,,,,,,,,,,,,,,,,,,,,,
,,,,,,,5e865fdcef7ca60d3266f76a,2023-08-16_09h06.28.155,HF_wild_card,2022.2.4,MacIntel,62.5,5e865fdcef7ca60d3266f76a,64d2fd46c836a06233681665,64dc7ecad5690df31c4e572c,,,,,,,decisionTrl,resources/DB.BMP,resources/DY.BMP,WildCard_Ex,0.171111111,-0.073333333,1,0,0,1.096,optionRight,95,10480,5,12,0,12,0,1,,,,,,,,,,,,,,,,,,,,,,,,,,,,,,,,,,,,,,,
,,,,,,,5e865fdcef7ca60d3266f76a,2023-08-16_09h06.28.155,HF_wild_card,2022.2.4,MacIntel,62.5,5e865fdcef7ca60d3266f76a,64d2fd46c836a06233681665,64dc7ecad5690df31c4e572c,,,,,,,decisionTrl,resources/DBN.BMP,resources/DY.BMP,Door4,-0.158888889,-0.044444444,1,0,0,2.297,optionLeft,60,10540,5,13,0,13,0,1,,,,,,,,,,,,,,,,,,,,,,,,,,,,,,,,,,,,,,,
,,,,,,,5e865fdcef7ca60d3266f76a,2023-08-16_09h06.28.155,HF_wild_card,2022.2.4,MacIntel,62.5,5e865fdcef7ca60d3266f76a,64d2fd46c836a06233681665,64dc7ecad5690df31c4e572c,,,,,,,decisionTrl,resources/DBN.BMP,resources/DG.BMP,Door3,0.192222222,-0.1,1,0,0,1.331,optionRight,70,10610,5,14,0,14,0,1,,,,,,,,,,,,,,,,,,,,,,,,,,,,,,,,,,,,,,,
,,,,,,,5e865fdcef7ca60d3266f76a,2023-08-16_09h06.28.155,HF_wild_card,2022.2.4,MacIntel,62.5,5e865fdcef7ca60d3266f76a,64d2fd46c836a06233681665,64dc7ecad5690df31c4e572c,,,,,,,decisionTrl,resources/DBN.BMP,resources/DG.BMP,Door4,-0.222222222,-0.041111111,1,0,0,1.094,optionLeft,60,10670,5,15,0,15,0,1,,,,,,,,,,,,,,,,,,,,,,,,,,,,,,,,,,,,,,,
,,,,,,,5e865fdcef7ca60d3266f76a,2023-08-16_09h06.28.155,HF_wild_card,2022.2.4,MacIntel,62.5,5e865fdcef7ca60d3266f76a,64d2fd46c836a06233681665,64dc7ecad5690df31c4e572c,,,,,,,decisionTrl,resources/DG.BMP,resources/DBN.BMP,Door3,-0.145555556,-0.037777778,1,0,0,1.196,optionLeft,70,10740,5,16,0,16,0,1,,,,,,,,,,,,,,,,,,,,,,,,,,,,,,,,,,,,,,,
,,,,,,,5e865fdcef7ca60d3266f76a,2023-08-16_09h06.28.155,HF_wild_card,2022.2.4,MacIntel,62.5,5e865fdcef7ca60d3266f76a,64d2fd46c836a06233681665,64dc7ecad5690df31c4e572c,,,,,,,decisionTrl,resources/DY.BMP,resources/DBN.BMP,WildCard_Ex,-0.14,-0.033333333,1,0,0,0.777,optionLeft,5,10745,5,17,0,17,0,1,,,,,,,,,,,,,,,,,,,,,,,,,,,,,,,,,,,,,,,
,,,,,,,5e865fdcef7ca60d3266f76a,2023-08-16_09h06.28.155,HF_wild_card,2022.2.4,MacIntel,62.5,5e865fdcef7ca60d3266f76a,64d2fd46c836a06233681665,64dc7ecad5690df31c4e572c,,,,,,,ctch,resources/DP.BMP,resources/DBN.BMP,Door4,0.132222222,-0.044444444,1,0,0,0.529,optionRight,80,10825,5,18,0,18,0,1,,,,,,,,,,,,,,,,,,,,,,,,,,,,,,,,,,,,,,,
,,,,,,,5e865fdcef7ca60d3266f76a,2023-08-16_09h06.28.155,HF_wild_card,2022.2.4,MacIntel,62.5,5e865fdcef7ca60d3266f76a,64d2fd46c836a06233681665,64dc7ecad5690df31c4e572c,,,,,,,ctch,resources/DP.BMP,resources/DBN.BMP,Door4,0.196666667,-0.066666667,1,0,0,0.563,optionRight,60,10885,5,19,0,19,0,1,,,,,,,,,,,,,,,,,,,,,,,,,,,,,,,,,,,,,,,
,,,,,,,5e865fdcef7ca60d3266f76a,2023-08-16_09h06.28.155,HF_wild_card,2022.2.4,MacIntel,62.5,5e865fdcef7ca60d3266f76a,64d2fd46c836a06233681665,64dc7ecad5690df31c4e572c,,,,,,,sngl,resources/Empty.png,resources/DG.BMP,Door3,0.162222222,-0.054444444,1,0,0,0.527,optionRight,70,10955,5,20,0,20,0,1,,,,,,,,,,,,,,,,,,,,,,,,,,,,,,,,,,,,,,,
,,,,,,,5e865fdcef7ca60d3266f76a,2023-08-16_09h06.28.155,HF_wild_card,2022.2.4,MacIntel,62.5,5e865fdcef7ca60d3266f76a,64d2fd46c836a06233681665,64dc7ecad5690df31c4e572c,,,,,,,decisionTrl,resources/DP.BMP,resources/DB.BMP,Door1,-0.158888889,-0.054444444,1,0,0,1.097,optionLeft,30,10985,5,21,0,21,0,1,,,,,,,,,,,,,,,,,,,,,,,,,,,,,,,,,,,,,,,
,,,,,,,5e865fdcef7ca60d3266f76a,2023-08-16_09h06.28.155,HF_wild_card,2022.2.4,MacIntel,62.5,5e865fdcef7ca60d3266f76a,64d2fd46c836a06233681665,64dc7ecad5690df31c4e572c,,,,,,,sngl,resources/DP.BMP,resources/Empty.png,Door1,-0.141111111,-0.056666667,1,0,0,0.513,optionLeft,30,11015,5,22,0,22,0,1,,,,,,,,,,,,,,,,,,,,,,,,,,,,,,,,,,,,,,,
,,,,,,,5e865fdcef7ca60d3266f76a,2023-08-16_09h06.28.155,HF_wild_card,2022.2.4,MacIntel,62.5,5e865fdcef7ca60d3266f76a,64d2fd46c836a06233681665,64dc7ecad5690df31c4e572c,,,,,,,decisionTrl,resources/DP.BMP,resources/DB.BMP,Door1,-0.14,-0.037777778,1,0,0,0.814,optionLeft,30,11045,5,23,0,23,0,1,,,,,,,,,,,,,,,,,,,,,,,,,,,,,,,,,,,,,,,
,,,,,,,5e865fdcef7ca60d3266f76a,2023-08-16_09h06.28.155,HF_wild_card,2022.2.4,MacIntel,62.5,5e865fdcef7ca60d3266f76a,64d2fd46c836a06233681665,64dc7ecad5690df31c4e572c,,,,,,,decisionTrl,resources/DY.BMP,resources/DG.BMP,WildCard_Ex,-0.133333333,-0.045555556,1,0,0,0.849,optionLeft,5,11050,5,24,0,24,0,1,,,,,,,,,,,,,,,,,,,,,,,,,,,,,,,,,,,,,,,
,,,,,,,5e865fdcef7ca60d3266f76a,2023-08-16_09h06.28.155,HF_wild_card,2022.2.4,MacIntel,62.5,5e865fdcef7ca60d3266f76a,64d2fd46c836a06233681665,64dc7ecad5690df31c4e572c,,,,,,,decisionTrl,resources/DB.BMP,resources/DP.BMP,Door1,0.18,-0.057777778,1,0,0,1.181,optionRight,30,11080,5,25,0,25,0,1,,,,,,,,,,,,,,,,,,,,,,,,,,,,,,,,,,,,,,,
,,,,,,,5e865fdcef7ca60d3266f76a,2023-08-16_09h06.28.155,HF_wild_card,2022.2.4,MacIntel,62.5,5e865fdcef7ca60d3266f76a,64d2fd46c836a06233681665,64dc7ecad5690df31c4e572c,,,,,,,sngl,resources/DY.BMP,resources/Empty.png,WildCard_Ex,-0.174444444,-0.045555556,1,0,0,0.476,optionLeft,5,11085,5,26,0,26,0,1,,,,,,,,,,,,,,,,,,,,,,,,,,,,,,,,,,,,,,,
,,,,,,,5e865fdcef7ca60d3266f76a,2023-08-16_09h06.28.155,HF_wild_card,2022.2.4,MacIntel,62.5,5e865fdcef7ca60d3266f76a,64d2fd46c836a06233681665,64dc7ecad5690df31c4e572c,,,,,,,ctch,resources/DBN.BMP,resources/DP.BMP,Door1,0.23,-0.042222222,1,0,0,0.628,optionRight,30,11115,5,27,0,27,0,1,,,,,,,,,,,,,,,,,,,,,,,,,,,,,,,,,,,,,,,
,,,,,,,5e865fdcef7ca60d3266f76a,2023-08-16_09h06.28.155,HF_wild_card,2022.2.4,MacIntel,62.5,5e865fdcef7ca60d3266f76a,64d2fd46c836a06233681665,64dc7ecad5690df31c4e572c,,,,,,,decisionTrl,resources/DY.BMP,resources/DP.BMP,WildCard_Ex,-0.115555556,-0.042222222,1,0,0,0.711,optionLeft,5,11120,5,28,0,28,0,1,,,,,,,,,,,,,,,,,,,,,,,,,,,,,,,,,,,,,,,
,,,,,,,5e865fdcef7ca60d3266f76a,2023-08-16_09h06.28.155,HF_wild_card,2022.2.4,MacIntel,62.5,5e865fdcef7ca60d3266f76a,64d2fd46c836a06233681665,64dc7ecad5690df31c4e572c,,,,,,,decisionTrl,resources/DP.BMP,resources/DB.BMP,Door1,-0.175555556,-0.065555556,1,0,0,0.999,optionLeft,30,11150,5,29,0,29,0,1,,,,,,,,,,,,,,,,,,,,,,,,,,,,,,,,,,,,,,,
,,,,,,,5e865fdcef7ca60d3266f76a,2023-08-16_09h06.28.155,HF_wild_card,2022.2.4,MacIntel,62.5,5e865fdcef7ca60d3266f76a,64d2fd46c836a06233681665,64dc7ecad5690df31c4e572c,,,,,,,ctch,resources/DB.BMP,resources/DG.BMP,Door3,0.155555556,-0.036666667,1,0,0,0.778,optionRight,70,11220,5,30,0,30,0,1,,,,,,,,,,,,,,,,,,,,,,,,,,,,,,,,,,,,,,,
,,,,,,,5e865fdcef7ca60d3266f76a,2023-08-16_09h06.28.155,HF_wild_card,2022.2.4,MacIntel,62.5,5e865fdcef7ca60d3266f76a,64d2fd46c836a06233681665,64dc7ecad5690df31c4e572c,,,,,,,sngl,resources/Empty.png,resources/DY.BMP,WildCard_Ex,0.088888889,-0.03,1,0,0,0.513,optionRight,5,11225,5,31,0,31,0,1,,,,,,,,,,,,,,,,,,,,,,,,,,,,,,,,,,,,,,,
,,,,,,,5e865fdcef7ca60d3266f76a,2023-08-16_09h06.28.155,HF_wild_card,2022.2.4,MacIntel,62.5,5e865fdcef7ca60d3266f76a,64d2fd46c836a06233681665,64dc7ecad5690df31c4e572c,,,,,,,decisionTrl,resources/DBN.BMP,resources/DG.BMP,Door3,0.133333333,-0.04,1,0,0,0.896,optionRight,70,11295,5,32,0,32,0,1,,,,,,,,,,,,,,,,,,,,,,,,,,,,,,,,,,,,,,,
,,,,,,,5e865fdcef7ca60d3266f76a,2023-08-16_09h06.28.155,HF_wild_card,2022.2.4,MacIntel,62.5,5e865fdcef7ca60d3266f76a,64d2fd46c836a06233681665,64dc7ecad5690df31c4e572c,,,,,,,decisionTrl,resources/DG.BMP,resources/DBN.BMP,Door4,0.163333333,-0.062222222,1,0,0,1.63,optionRight,60,11355,5,33,0,33,0,1,,,,,,,,,,,,,,,,,,,,,,,,,,,,,,,,,,,,,,,
,,,,,,,5e865fdcef7ca60d3266f76a,2023-08-16_09h06.28.155,HF_wild_card,2022.2.4,MacIntel,62.5,5e865fdcef7ca60d3266f76a,64d2fd46c836a06233681665,64dc7ecad5690df31c4e572c,,,,,,,sngl,resources/DBN.BMP,resources/Empty.png,Door4,-0.176666667,-0.045555556,1,0,0,0.514,optionLeft,80,11435,5,34,0,34,0,1,,,,,,,,,,,,,,,,,,,,,,,,,,,,,,,,,,,,,,,
,,,,,,,5e865fdcef7ca60d3266f76a,2023-08-16_09h06.28.155,HF_wild_card,2022.2.4,MacIntel,62.5,5e865fdcef7ca60d3266f76a,64d2fd46c836a06233681665,64dc7ecad5690df31c4e572c,,,,,,,decisionTrl,resources/DY.BMP,resources/DB.BMP,WildCard_Ex,-0.168888889,-0.077777778,1,0,0,0.846,optionLeft,95,11530,5,35,0,35,0,1,,,,,,,,,,,,,,,,,,,,,,,,,,,,,,,,,,,,,,,
,,,,,,,5e865fdcef7ca60d3266f76a,2023-08-16_09h06.28.155,HF_wild_card,2022.2.4,MacIntel,62.5,5e865fdcef7ca60d3266f76a,64d2fd46c836a06233681665,64dc7ecad5690df31c4e572c,,,,,,,sngl,resources/DB.BMP,resources/Empty.png,Door2,-0.168888889,-0.051111111,1,0,0,0.545,optionLeft,40,11570,5,36,0,36,0,1,,,,,,,,,,,,,,,,,,,,,,,,,,,,,,,,,,,,,,,
,,,,,,,5e865fdcef7ca60d3266f76a,2023-08-16_09h06.28.155,HF_wild_card,2022.2.4,MacIntel,62.5,5e865fdcef7ca60d3266f76a,64d2fd46c836a06233681665,64dc7ecad5690df31c4e572c,,,,,,,decisionTrl,resources/DB.BMP,resources/DP.BMP,Door1,0.283333333,-0.037777778,1,0,0,1.396,optionRight,30,11600,5,37,0,37,0,1,,,,,,,,,,,,,,,,,,,,,,,,,,,,,,,,,,,,,,,
,,,,,,,5e865fdcef7ca60d3266f76a,2023-08-16_09h06.28.155,HF_wild_card,2022.2.4,MacIntel,62.5,5e865fdcef7ca60d3266f76a,64d2fd46c836a06233681665,64dc7ecad5690df31c4e572c,,,,,,,ctch,resources/DG.BMP,resources/DB.BMP,Door3,-0.17,-0.026666667,1,0,0,1.012,optionLeft,70,11670,5,38,0,38,0,1,,,,,,,,,,,,,,,,,,,,,,,,,,,,,,,,,,,,,,,
,,,,,,,5e865fdcef7ca60d3266f76a,2023-08-16_09h06.28.155,HF_wild_card,2022.2.4,MacIntel,62.5,5e865fdcef7ca60d3266f76a,64d2fd46c836a06233681665,64dc7ecad5690df31c4e572c,,,,,,,decisionTrl,resources/DBN.BMP,resources/DG.BMP,Door3,0.167777778,-0.072222222,1,0,0,0.712,optionRight,70,11740,5,39,0,39,0,1,,,,,,,,,,,,,,,,,,,,,,,,,,,,,,,,,,,,,,,
,,,,,,,5e865fdcef7ca60d3266f76a,2023-08-16_09h06.28.155,HF_wild_card,2022.2.4,MacIntel,62.5,5e865fdcef7ca60d3266f76a,64d2fd46c836a06233681665,64dc7ecad5690df31c4e572c,,,,,,,decisionTrl,resources/DB.BMP,resources/DP.BMP,Door1,0.132222222,-0.045555556,1,0,0,0.844,optionRight,30,11770,5,40,0,40,0,1,,,,,,,,,,,,,,,,,,,,,,,,,,,,,,,,,,,,,,,
,,,,,,,5e865fdcef7ca60d3266f76a,2023-08-16_09h06.28.155,HF_wild_card,2022.2.4,MacIntel,62.5,5e865fdcef7ca60d3266f76a,64d2fd46c836a06233681665,64dc7ecad5690df31c4e572c,,,,,,,sngl,resources/Empty.png,resources/DB.BMP,Door2,0.201111111,-0.065555556,1,0,0,0.579,optionRight,20,11790,5,41,0,41,0,1,,,,,,,,,,,,,,,,,,,,,,,,,,,,,,,,,,,,,,,
,,,,,,,5e865fdcef7ca60d3266f76a,2023-08-16_09h06.28.155,HF_wild_card,2022.2.4,MacIntel,62.5,5e865fdcef7ca60d3266f76a,64d2fd46c836a06233681665,64dc7ecad5690df31c4e572c,,,,,,,sngl,resources/Empty.png,resources/DY.BMP,WildCard_Ex,0.161111111,-0.058888889,1,0,0,0.697,optionRight,95,11885,5,42,0,42,0,1,,,,,,,,,,,,,,,,,,,,,,,,,,,,,,,,,,,,,,,
,,,,,,,5e865fdcef7ca60d3266f76a,2023-08-16_09h06.28.155,HF_wild_card,2022.2.4,MacIntel,62.5,5e865fdcef7ca60d3266f76a,64d2fd46c836a06233681665,64dc7ecad5690df31c4e572c,,,,,,,sngl,resources/Empty.png,resources/DBN.BMP,Door4,0.151111111,-0.023333333,1,0,0,0.579,optionRight,60,11945,5,43,0,43,0,1,,,,,,,,,,,,,,,,,,,,,,,,,,,,,,,,,,,,,,,
,,,,,,,5e865fdcef7ca60d3266f76a,2023-08-16_09h06.28.155,HF_wild_card,2022.2.4,MacIntel,62.5,5e865fdcef7ca60d3266f76a,64d2fd46c836a06233681665,64dc7ecad5690df31c4e572c,,,,,,,,,,,,,,,,,,,,,,,,,,4,0,4,0,1,,,,,,,,,,,,,,,,,,,,,,,,,,,,,,,,,,
,,,,,,,5e865fdcef7ca60d3266f76a,2023-08-16_09h06.28.155,HF_wild_card,2022.2.4,MacIntel,62.5,5e865fdcef7ca60d3266f76a,64d2fd46c836a06233681665,64dc7ecad5690df31c4e572c,,,,,,,ctch,resources/DB.BMP,resources/DG.BMP,Door3,0.097777778,-0.187777778,1,0,0,1.36,optionRight,70,12015,6,0,0,0,0,1,,,,,,,,,,,,,,,,,,,,,,,,,,,,,,,,,,,,,,,
,,,,,,,5e865fdcef7ca60d3266f76a,2023-08-16_09h06.28.155,HF_wild_card,2022.2.4,MacIntel,62.5,5e865fdcef7ca60d3266f76a,64d2fd46c836a06233681665,64dc7ecad5690df31c4e572c,,,,,,,sngl,resources/DY.BMP,resources/Empty.png,WildCard_Ex,-0.116666667,-0.015555556,1,0,0,0.549,optionLeft,5,12020,6,1,0,1,0,1,,,,,,,,,,,,,,,,,,,,,,,,,,,,,,,,,,,,,,,
,,,,,,,5e865fdcef7ca60d3266f76a,2023-08-16_09h06.28.155,HF_wild_card,2022.2.4,MacIntel,62.5,5e865fdcef7ca60d3266f76a,64d2fd46c836a06233681665,64dc7ecad5690df31c4e572c,,,,,,,sngl,resources/DP.BMP,resources/Empty.png,Door1,-0.127777778,-0.024444444,1,0,0,0.479,optionLeft,30,12050,6,2,0,2,0,1,,,,,,,,,,,,,,,,,,,,,,,,,,,,,,,,,,,,,,,
,,,,,,,5e865fdcef7ca60d3266f76a,2023-08-16_09h06.28.155,HF_wild_card,2022.2.4,MacIntel,62.5,5e865fdcef7ca60d3266f76a,64d2fd46c836a06233681665,64dc7ecad5690df31c4e572c,,,,,,,ctch,resources/DG.BMP,resources/DB.BMP,Door3,-0.158888889,-0.008888889,1,0,0,0.912,optionLeft,70,12120,6,3,0,3,0,1,,,,,,,,,,,,,,,,,,,,,,,,,,,,,,,,,,,,,,,
,,,,,,,5e865fdcef7ca60d3266f76a,2023-08-16_09h06.28.155,HF_wild_card,2022.2.4,MacIntel,62.5,5e865fdcef7ca60d3266f76a,64d2fd46c836a06233681665,64dc7ecad5690df31c4e572c,,,,,,,ctch,resources/DP.BMP,resources/DBN.BMP,Door4,0.195555556,-0.03,1,0,0,0.928,optionRight,60,12180,6,4,0,4,0,1,,,,,,,,,,,,,,,,,,,,,,,,,,,,,,,,,,,,,,,
,,,,,,,5e865fdcef7ca60d3266f76a,2023-08-16_09h06.28.155,HF_wild_card,2022.2.4,MacIntel,62.5,5e865fdcef7ca60d3266f76a,64d2fd46c836a06233681665,64dc7ecad5690df31c4e572c,,,,,,,ctch,resources/DP.BMP,resources/DBN.BMP,Door4,0.198888889,-0.087777778,1,0,0,0.746,optionRight,80,12260,6,5,0,5,0,1,,,,,,,,,,,,,,,,,,,,,,,,,,,,,,,,,,,,,,,
,,,,,,,5e865fdcef7ca60d3266f76a,2023-08-16_09h06.28.155,HF_wild_card,2022.2.4,MacIntel,62.5,5e865fdcef7ca60d3266f76a,64d2fd46c836a06233681665,64dc7ecad5690df31c4e572c,,,,,,,decisionTrl,resources/DB.BMP,resources/DY.BMP,WildCard_Ex,0.195555556,-0.084444444,1,0,0,0.778,optionRight,95,12355,6,6,0,6,0,1,,,,,,,,,,,,,,,,,,,,,,,,,,,,,,,,,,,,,,,
,,,,,,,5e865fdcef7ca60d3266f76a,2023-08-16_09h06.28.155,HF_wild_card,2022.2.4,MacIntel,62.5,5e865fdcef7ca60d3266f76a,64d2fd46c836a06233681665,64dc7ecad5690df31c4e572c,,,,,,,sngl,resources/Empty.png,resources/DG.BMP,Door3,0.147777778,-0.062222222,1,0,0,0.712,optionRight,70,12425,6,7,0,7,0,1,,,,,,,,,,,,,,,,,,,,,,,,,,,,,,,,,,,,,,,
,,,,,,,5e865fdcef7ca60d3266f76a,2023-08-16_09h06.28.155,HF_wild_card,2022.2.4,MacIntel,62.5,5e865fdcef7ca60d3266f76a,64d2fd46c836a06233681665,64dc7ecad5690df31c4e572c,,,,,,,decisionTrl,resources/DP.BMP,resources/DB.BMP,Door1,-0.217777778,-0.047777778,1,0,0,1.047,optionLeft,30,12455,6,8,0,8,0,1,,,,,,,,,,,,,,,,,,,,,,,,,,,,,,,,,,,,,,,
,,,,,,,5e865fdcef7ca60d3266f76a,2023-08-16_09h06.28.155,HF_wild_card,2022.2.4,MacIntel,62.5,5e865fdcef7ca60d3266f76a,64d2fd46c836a06233681665,64dc7ecad5690df31c4e572c,,,,,,,sngl,resources/Empty.png,resources/DBN.BMP,Door4,0.162222222,-0.072222222,1,0,0,0.548,optionRight,80,12535,6,9,0,9,0,1,,,,,,,,,,,,,,,,,,,,,,,,,,,,,,,,,,,,,,,
,,,,,,,5e865fdcef7ca60d3266f76a,2023-08-16_09h06.28.155,HF_wild_card,2022.2.4,MacIntel,62.5,5e865fdcef7ca60d3266f76a,64d2fd46c836a06233681665,64dc7ecad5690df31c4e572c,,,,,,,sngl,resources/Empty.png,resources/DB.BMP,Door2,0.214444444,-0.096666667,1,0,0,0.527,optionRight,40,12575,6,10,0,10,0,1,,,,,,,,,,,,,,,,,,,,,,,,,,,,,,,,,,,,,,,
,,,,,,,5e865fdcef7ca60d3266f76a,2023-08-16_09h06.28.155,HF_wild_card,2022.2.4,MacIntel,62.5,5e865fdcef7ca60d3266f76a,64d2fd46c836a06233681665,64dc7ecad5690df31c4e572c,,,,,,,decisionTrl,resources/DBN.BMP,resources/DG.BMP,Door3,0.195555556,-0.094444444,1,0,0,1.18,optionRight,70,12645,6,11,0,11,0,1,,,,,,,,,,,,,,,,,,,,,,,,,,,,,,,,,,,,,,,
,,,,,,,5e865fdcef7ca60d3266f76a,2023-08-16_09h06.28.155,HF_wild_card,2022.2.4,MacIntel,62.5,5e865fdcef7ca60d3266f76a,64d2fd46c836a06233681665,64dc7ecad5690df31c4e572c,,,,,,,decisionTrl,resources/DY.BMP,resources/DB.BMP,WildCard_Ex,-0.201111111,-0.064444444,1,0,0,0.579,optionLeft,5,12650,6,12,0,12,0,1,,,,,,,,,,,,,,,,,,,,,,,,,,,,,,,,,,,,,,,
,,,,,,,5e865fdcef7ca60d3266f76a,2023-08-16_09h06.28.155,HF_wild_card,2022.2.4,MacIntel,62.5,5e865fdcef7ca60d3266f76a,64d2fd46c836a06233681665,64dc7ecad5690df31c4e572c,,,,,,,decisionTrl,resources/DP.BMP,resources/DB.BMP,Door2,0.145555556,-0.051111111,1,0,0,0.647,optionRight,20,12670,6,13,0,13,0,1,,,,,,,,,,,,,,,,,,,,,,,,,,,,,,,,,,,,,,,
,,,,,,,5e865fdcef7ca60d3266f76a,2023-08-16_09h06.28.155,HF_wild_card,2022.2.4,MacIntel,62.5,5e865fdcef7ca60d3266f76a,64d2fd46c836a06233681665,64dc7ecad5690df31c4e572c,,,,,,,sngl,resources/DG.BMP,resources/Empty.png,Door3,-0.187777778,-0.026666667,1,0,0,0.448,optionLeft,70,12740,6,14,0,14,0,1,,,,,,,,,,,,,,,,,,,,,,,,,,,,,,,,,,,,,,,
,,,,,,,5e865fdcef7ca60d3266f76a,2023-08-16_09h06.28.155,HF_wild_card,2022.2.4,MacIntel,62.5,5e865fdcef7ca60d3266f76a,64d2fd46c836a06233681665,64dc7ecad5690df31c4e572c,,,,,,,decisionTrl,resources/DG.BMP,resources/DBN.BMP,Door4,0.207777778,-0.048888889,1,0,0,0.647,optionRight,80,12820,6,15,0,15,0,1,,,,,,,,,,,,,,,,,,,,,,,,,,,,,,,,,,,,,,,
,,,,,,,5e865fdcef7ca60d3266f76a,2023-08-16_09h06.28.155,HF_wild_card,2022.2.4,MacIntel,62.5,5e865fdcef7ca60d3266f76a,64d2fd46c836a06233681665,64dc7ecad5690df31c4e572c,,,,,,,decisionTrl,resources/DP.BMP,resources/DY.BMP,WildCard_Ex,0.172222222,-0.062222222,1,0,0,0.929,optionRight,5,12825,6,16,0,16,0,1,,,,,,,,,,,,,,,,,,,,,,,,,,,,,,,,,,,,,,,
,,,,,,,5e865fdcef7ca60d3266f76a,2023-08-16_09h06.28.155,HF_wild_card,2022.2.4,MacIntel,62.5,5e865fdcef7ca60d3266f76a,64d2fd46c836a06233681665,64dc7ecad5690df31c4e572c,,,,,,,decisionTrl,resources/DY.BMP,resources/DG.BMP,WildCard_Ex,-0.227777778,0,1,0,0,0.528,optionLeft,95,12920,6,17,0,17,0,1,,,,,,,,,,,,,,,,,,,,,,,,,,,,,,,,,,,,,,,
,,,,,,,5e865fdcef7ca60d3266f76a,2023-08-16_09h06.28.155,HF_wild_card,2022.2.4,MacIntel,62.5,5e865fdcef7ca60d3266f76a,64d2fd46c836a06233681665,64dc7ecad5690df31c4e572c,,,,,,,decisionTrl,resources/DBN.BMP,resources/DG.BMP,Door3,0.176666667,-0.076666667,1,0,0,0.614,optionRight,70,12990,6,18,0,18,0,1,,,,,,,,,,,,,,,,,,,,,,,,,,,,,,,,,,,,,,,
,,,,,,,5e865fdcef7ca60d3266f76a,2023-08-16_09h06.28.155,HF_wild_card,2022.2.4,MacIntel,62.5,5e865fdcef7ca60d3266f76a,64d2fd46c836a06233681665,64dc7ecad5690df31c4e572c,,,,,,,sngl,resources/DBN.BMP,resources/Empty.png,Door4,-0.135555556,-0.04,1,0,0,0.579,optionLeft,60,13050,6,19,0,19,0,1,,,,,,,,,,,,,,,,,,,,,,,,,,,,,,,,,,,,,,,
,,,,,,,5e865fdcef7ca60d3266f76a,2023-08-16_09h06.28.155,HF_wild_card,2022.2.4,MacIntel,62.5,5e865fdcef7ca60d3266f76a,64d2fd46c836a06233681665,64dc7ecad5690df31c4e572c,,,,,,,ctch,resources/DB.BMP,resources/DG.BMP,Door3,0.194444444,-0.068888889,1,0,0,0.779,optionRight,70,13120,6,20,0,20,0,1,,,,,,,,,,,,,,,,,,,,,,,,,,,,,,,,,,,,,,,
,,,,,,,5e865fdcef7ca60d3266f76a,2023-08-16_09h06.28.155,HF_wild_card,2022.2.4,MacIntel,62.5,5e865fdcef7ca60d3266f76a,64d2fd46c836a06233681665,64dc7ecad5690df31c4e572c,,,,,,,sngl,resources/Empty.png,resources/DP.BMP,Door1,0.138888889,-0.081111111,1,0,0,0.597,optionRight,30,13150,6,21,0,21,0,1,,,,,,,,,,,,,,,,,,,,,,,,,,,,,,,,,,,,,,,
,,,,,,,5e865fdcef7ca60d3266f76a,2023-08-16_09h06.28.155,HF_wild_card,2022.2.4,MacIntel,62.5,5e865fdcef7ca60d3266f76a,64d2fd46c836a06233681665,64dc7ecad5690df31c4e572c,,,,,,,decisionTrl,resources/DBN.BMP,resources/DG.BMP,Door4,-0.158888889,-0.027777778,1,0,0,0.897,optionLeft,60,13210,6,22,0,22,0,1,,,,,,,,,,,,,,,,,,,,,,,,,,,,,,,,,,,,,,,
,,,,,,,5e865fdcef7ca60d3266f76a,2023-08-16_09h06.28.155,HF_wild_card,2022.2.4,MacIntel,62.5,5e865fdcef7ca60d3266f76a,64d2fd46c836a06233681665,64dc7ecad5690df31c4e572c,,,,,,,decisionTrl,resources/DG.BMP,resources/DBN.BMP,Door3,-0.171111111,-0.071111111,1,0,0,0.846,optionLeft,70,13280,6,23,0,23,0,1,,,,,,,,,,,,,,,,,,,,,,,,,,,,,,,,,,,,,,,
,,,,,,,5e865fdcef7ca60d3266f76a,2023-08-16_09h06.28.155,HF_wild_card,2022.2.4,MacIntel,62.5,5e865fdcef7ca60d3266f76a,64d2fd46c836a06233681665,64dc7ecad5690df31c4e572c,,,,,,,decisionTrl,resources/DY.BMP,resources/DP.BMP,WildCard_Ex,-0.127777778,-0.035555556,1,0,0,0.813,optionLeft,5,13285,6,24,0,24,0,1,,,,,,,,,,,,,,,,,,,,,,,,,,,,,,,,,,,,,,,
,,,,,,,5e865fdcef7ca60d3266f76a,2023-08-16_09h06.28.155,HF_wild_card,2022.2.4,MacIntel,62.5,5e865fdcef7ca60d3266f76a,64d2fd46c836a06233681665,64dc7ecad5690df31c4e572c,,,,,,,sngl,resources/Empty.png,resources/DY.BMP,WildCard_Ex,0.116666667,-0.035555556,1,0,0,0.611,optionRight,95,13380,6,25,0,25,0,1,,,,,,,,,,,,,,,,,,,,,,,,,,,,,,,,,,,,,,,
,,,,,,,5e865fdcef7ca60d3266f76a,2023-08-16_09h06.28.155,HF_wild_card,2022.2.4,MacIntel,62.5,5e865fdcef7ca60d3266f76a,64d2fd46c836a06233681665,64dc7ecad5690df31c4e572c,,,,,,,decisionTrl,resources/DB.BMP,resources/DP.BMP,Door1,0.196666667,-0.102222222,1,0,0,1.697,optionRight,30,13410,6,26,0,26,0,1,,,,,,,,,,,,,,,,,,,,,,,,,,,,,,,,,,,,,,,
,,,,,,,5e865fdcef7ca60d3266f76a,2023-08-16_09h06.28.155,HF_wild_card,2022.2.4,MacIntel,62.5,5e865fdcef7ca60d3266f76a,64d2fd46c836a06233681665,64dc7ecad5690df31c4e572c,,,,,,,sngl,resources/DB.BMP,resources/Empty.png,Door2,-0.154444444,-0.067777778,1,0,0,0.528,optionLeft,20,13430,6,27,0,27,0,1,,,,,,,,,,,,,,,,,,,,,,,,,,,,,,,,,,,,,,,
,,,,,,,5e865fdcef7ca60d3266f76a,2023-08-16_09h06.28.155,HF_wild_card,2022.2.4,MacIntel,62.5,5e865fdcef7ca60d3266f76a,64d2fd46c836a06233681665,64dc7ecad5690df31c4e572c,,,,,,,decisionTrl,resources/DB.BMP,resources/DP.BMP,Door1,0.127777778,-0.071111111,1,0,0,1.362,optionRight,30,13460,6,28,0,28,0,1,,,,,,,,,,,,,,,,,,,,,,,,,,,,,,,,,,,,,,,
,,,,,,,5e865fdcef7ca60d3266f76a,2023-08-16_09h06.28.155,HF_wild_card,2022.2.4,MacIntel,62.5,5e865fdcef7ca60d3266f76a,64d2fd46c836a06233681665,64dc7ecad5690df31c4e572c,,,,,,,decisionTrl,resources/DP.BMP,resources/DB.BMP,Door1,-0.15,-0.117777778,1,0,0,1.682,optionLeft,30,13490,6,29,0,29,0,1,,,,,,,,,,,,,,,,,,,,,,,,,,,,,,,,,,,,,,,
,,,,,,,5e865fdcef7ca60d3266f76a,2023-08-16_09h06.28.155,HF_wild_card,2022.2.4,MacIntel,62.5,5e865fdcef7ca60d3266f76a,64d2fd46c836a06233681665,64dc7ecad5690df31c4e572c,,,,,,,ctch,resources/DBN.BMP,resources/DP.BMP,Door4,-0.128888889,-0.077777778,1,0,0,0.661,optionLeft,60,13550,6,30,0,30,0,1,,,,,,,,,,,,,,,,,,,,,,,,,,,,,,,,,,,,,,,
,,,,,,,5e865fdcef7ca60d3266f76a,2023-08-16_09h06.28.155,HF_wild_card,2022.2.4,MacIntel,62.5,5e865fdcef7ca60d3266f76a,64d2fd46c836a06233681665,64dc7ecad5690df31c4e572c,,,,,,,ctch,resources/DG.BMP,resources/DB.BMP,Door3,-0.191111111,-0.078888889,1,0,0,0.612,optionLeft,70,13620,6,31,0,31,0,1,,,,,,,,,,,,,,,,,,,,,,,,,,,,,,,,,,,,,,,
,,,,,,,5e865fdcef7ca60d3266f76a,2023-08-16_09h06.28.155,HF_wild_card,2022.2.4,MacIntel,62.5,5e865fdcef7ca60d3266f76a,64d2fd46c836a06233681665,64dc7ecad5690df31c4e572c,,,,,,,decisionTrl,resources/DB.BMP,resources/DP.BMP,Door1,0.158888889,-0.07,1,0,0,1.312,optionRight,30,13650,6,32,0,32,0,1,,,,,,,,,,,,,,,,,,,,,,,,,,,,,,,,,,,,,,,
,,,,,,,5e865fdcef7ca60d3266f76a,2023-08-16_09h06.28.155,HF_wild_card,2022.2.4,MacIntel,62.5,5e865fdcef7ca60d3266f76a,64d2fd46c836a06233681665,64dc7ecad5690df31c4e572c,,,,,,,decisionTrl,resources/DG.BMP,resources/DBN.BMP,Door3,-0.188888889,-0.086666667,1,0,0,1.298,optionLeft,70,13720,6,33,0,33,0,1,,,,,,,,,,,,,,,,,,,,,,,,,,,,,,,,,,,,,,,
,,,,,,,5e865fdcef7ca60d3266f76a,2023-08-16_09h06.28.155,HF_wild_card,2022.2.4,MacIntel,62.5,5e865fdcef7ca60d3266f76a,64d2fd46c836a06233681665,64dc7ecad5690df31c4e572c,,,,,,,ctch,resources/DBN.BMP,resources/DP.BMP,Door4,-0.183333333,-0.096666667,1,0,0,0.699,optionLeft,80,13800,6,34,0,34,0,1,,,,,,,,,,,,,,,,,,,,,,,,,,,,,,,,,,,,,,,
,,,,,,,5e865fdcef7ca60d3266f76a,2023-08-16_09h06.28.155,HF_wild_card,2022.2.4,MacIntel,62.5,5e865fdcef7ca60d3266f76a,64d2fd46c836a06233681665,64dc7ecad5690df31c4e572c,,,,,,,sngl,resources/DY.BMP,resources/Empty.png,WildCard_Ex,-0.234444444,-0.072222222,1,0,0,0.746,optionLeft,95,13895,6,35,0,35,0,1,,,,,,,,,,,,,,,,,,,,,,,,,,,,,,,,,,,,,,,
,,,,,,,5e865fdcef7ca60d3266f76a,2023-08-16_09h06.28.155,HF_wild_card,2022.2.4,MacIntel,62.5,5e865fdcef7ca60d3266f76a,64d2fd46c836a06233681665,64dc7ecad5690df31c4e572c,,,,,,,decisionTrl,resources/DBN.BMP,resources/DY.BMP,Door4,-0.178888889,-0.138888889,1,0,0,2.799,optionLeft,80,13975,6,36,0,36,0,1,,,,,,,,,,,,,,,,,,,,,,,,,,,,,,,,,,,,,,,
,,,,,,,5e865fdcef7ca60d3266f76a,2023-08-16_09h06.28.155,HF_wild_card,2022.2.4,MacIntel,62.5,5e865fdcef7ca60d3266f76a,64d2fd46c836a06233681665,64dc7ecad5690df31c4e572c,,,,,,,decisionTrl,resources/DBN.BMP,resources/DG.BMP,Door3,0.11,-0.077777778,1,0,0,1.661,optionRight,70,14045,6,37,0,37,0,1,,,,,,,,,,,,,,,,,,,,,,,,,,,,,,,,,,,,,,,
,,,,,,,5e865fdcef7ca60d3266f76a,2023-08-16_09h06.28.155,HF_wild_card,2022.2.4,MacIntel,62.5,5e865fdcef7ca60d3266f76a,64d2fd46c836a06233681665,64dc7ecad5690df31c4e572c,,,,,,,sngl,resources/Empty.png,resources/DY.BMP,WildCard_Ex,0.123333333,-0.042222222,1,0,0,0.699,optionRight,5,14050,6,38,0,38,0,1,,,,,,,,,,,,,,,,,,,,,,,,,,,,,,,,,,,,,,,
,,,,,,,5e865fdcef7ca60d3266f76a,2023-08-16_09h06.28.155,HF_wild_card,2022.2.4,MacIntel,62.5,5e865fdcef7ca60d3266f76a,64d2fd46c836a06233681665,64dc7ecad5690df31c4e572c,,,,,,,decisionTrl,resources/DB.BMP,resources/DP.BMP,Door1,0.18,-0.117777778,1,0,0,1.364,optionRight,30,14080,6,39,0,39,0,1,,,,,,,,,,,,,,,,,,,,,,,,,,,,,,,,,,,,,,,
,,,,,,,5e865fdcef7ca60d3266f76a,2023-08-16_09h06.28.155,HF_wild_card,2022.2.4,MacIntel,62.5,5e865fdcef7ca60d3266f76a,64d2fd46c836a06233681665,64dc7ecad5690df31c4e572c,,,,,,,decisionTrl,resources/DG.BMP,resources/DY.BMP,WildCard_Ex,0.181111111,-0.046666667,1,0,0,1.214,optionRight,95,14175,6,40,0,40,0,1,,,,,,,,,,,,,,,,,,,,,,,,,,,,,,,,,,,,,,,
,,,,,,,5e865fdcef7ca60d3266f76a,2023-08-16_09h06.28.155,HF_wild_card,2022.2.4,MacIntel,62.5,5e865fdcef7ca60d3266f76a,64d2fd46c836a06233681665,64dc7ecad5690df31c4e572c,,,,,,,decisionTrl,resources/DG.BMP,resources/DBN.BMP,Door4,0.14,-0.095555556,1,0,0,0.995,optionRight,60,14235,6,41,0,41,0,1,,,,,,,,,,,,,,,,,,,,,,,,,,,,,,,,,,,,,,,
,,,,,,,5e865fdcef7ca60d3266f76a,2023-08-16_09h06.28.155,HF_wild_card,2022.2.4,MacIntel,62.5,5e865fdcef7ca60d3266f76a,64d2fd46c836a06233681665,64dc7ecad5690df31c4e572c,,,,,,,decisionTrl,resources/DP.BMP,resources/DB.BMP,Door1,-0.234444444,-0.056666667,1,0,0,0.861,optionLeft,30,14265,6,42,0,42,0,1,,,,,,,,,,,,,,,,,,,,,,,,,,,,,,,,,,,,,,,
,,,,,,,5e865fdcef7ca60d3266f76a,2023-08-16_09h06.28.155,HF_wild_card,2022.2.4,MacIntel,62.5,5e865fdcef7ca60d3266f76a,64d2fd46c836a06233681665,64dc7ecad5690df31c4e572c,,,,,,,decisionTrl,resources/DY.BMP,resources/DBN.BMP,WildCard_Ex,-0.164444444,-0.034444444,1,0,0,3.263,optionLeft,5,14270,6,43,0,43,0,1,,,,,,,,,,,,,,,,,,,,,,,,,,,,,,,,,,,,,,,
,,,,,,,5e865fdcef7ca60d3266f76a,2023-08-16_09h06.28.155,HF_wild_card,2022.2.4,MacIntel,62.5,5e865fdcef7ca60d3266f76a,64d2fd46c836a06233681665,64dc7ecad5690df31c4e572c,,,,,,,,,,,,,,,,,,,,,,,,,,5,0,5,0,1,,,,,,,,,,,,,,,,,,,,,,,,,,,,,,,,,,
,,,,,,,5e865fdcef7ca60d3266f76a,2023-08-16_09h06.28.155,HF_wild_card,2022.2.4,MacIntel,62.5,5e865fdcef7ca60d3266f76a,64d2fd46c836a06233681665,64dc7ecad5690df31c4e572c,,,,,,,decisionTrl,resources/DB.BMP,resources/DP.BMP,Door1,0.207777778,0.042222222,1,0,0,0.924,optionRight,30,14300,7,0,0,0,0,1,,,,,,,,,,,,,,,,,,,,,,,,,,,,,,,,,,,,,,,
,,,,,,,5e865fdcef7ca60d3266f76a,2023-08-16_09h06.28.155,HF_wild_card,2022.2.4,MacIntel,62.5,5e865fdcef7ca60d3266f76a,64d2fd46c836a06233681665,64dc7ecad5690df31c4e572c,,,,,,,decisionTrl,resources/DP.BMP,resources/DB.BMP,Door1,-0.302222222,-0.101111111,1,0,0,0.88,optionLeft,30,14330,7,1,0,1,0,1,,,,,,,,,,,,,,,,,,,,,,,,,,,,,,,,,,,,,,,
,,,,,,,5e865fdcef7ca60d3266f76a,2023-08-16_09h06.28.155,HF_wild_card,2022.2.4,MacIntel,62.5,5e865fdcef7ca60d3266f76a,64d2fd46c836a06233681665,64dc7ecad5690df31c4e572c,,,,,,,decisionTrl,resources/DBN.BMP,resources/DG.BMP,Door4,-0.168888889,-0.085555556,1,0,0,0.815,optionLeft,80,14410,7,2,0,2,0,1,,,,,,,,,,,,,,,,,,,,,,,,,,,,,,,,,,,,,,,
,,,,,,,5e865fdcef7ca60d3266f76a,2023-08-16_09h06.28.155,HF_wild_card,2022.2.4,MacIntel,62.5,5e865fdcef7ca60d3266f76a,64d2fd46c836a06233681665,64dc7ecad5690df31c4e572c,,,,,,,decisionTrl,resources/DB.BMP,resources/DP.BMP,Door1,0.3,-0.057777778,1,0,0,1.379,optionRight,30,14440,7,3,0,3,0,1,,,,,,,,,,,,,,,,,,,,,,,,,,,,,,,,,,,,,,,
,,,,,,,5e865fdcef7ca60d3266f76a,2023-08-16_09h06.28.155,HF_wild_card,2022.2.4,MacIntel,62.5,5e865fdcef7ca60d3266f76a,64d2fd46c836a06233681665,64dc7ecad5690df31c4e572c,,,,,,,decisionTrl,resources/DP.BMP,resources/DB.BMP,Door1,-0.272222222,-0.076666667,1,0,0,1.463,optionLeft,30,14470,7,4,0,4,0,1,,,,,,,,,,,,,,,,,,,,,,,,,,,,,,,,,,,,,,,
,,,,,,,5e865fdcef7ca60d3266f76a,2023-08-16_09h06.28.155,HF_wild_card,2022.2.4,MacIntel,62.5,5e865fdcef7ca60d3266f76a,64d2fd46c836a06233681665,64dc7ecad5690df31c4e572c,,,,,,,decisionTrl,resources/DBN.BMP,resources/DG.BMP,Door3,0.155555556,-0.04,1,0,0,1.265,optionRight,70,14540,7,5,0,5,0,1,,,,,,,,,,,,,,,,,,,,,,,,,,,,,,,,,,,,,,,
,,,,,,,5e865fdcef7ca60d3266f76a,2023-08-16_09h06.28.155,HF_wild_card,2022.2.4,MacIntel,62.5,5e865fdcef7ca60d3266f76a,64d2fd46c836a06233681665,64dc7ecad5690df31c4e572c,,,,,,,decisionTrl,resources/DB.BMP,resources/DP.BMP,Door1,0.164444444,-0.075555556,1,0,0,2.749,optionRight,30,14570,7,6,0,6,0,1,,,,,,,,,,,,,,,,,,,,,,,,,,,,,,,,,,,,,,,
,,,,,,,5e865fdcef7ca60d3266f76a,2023-08-16_09h06.28.155,HF_wild_card,2022.2.4,MacIntel,62.5,5e865fdcef7ca60d3266f76a,64d2fd46c836a06233681665,64dc7ecad5690df31c4e572c,,,,,,,ctch,resources/DBN.BMP,resources/DP.BMP,Door4,-0.122222222,-0.02,1,0,0,0.93,optionLeft,60,14630,7,7,0,7,0,1,,,,,,,,,,,,,,,,,,,,,,,,,,,,,,,,,,,,,,,
,,,,,,,5e865fdcef7ca60d3266f76a,2023-08-16_09h06.28.155,HF_wild_card,2022.2.4,MacIntel,62.5,5e865fdcef7ca60d3266f76a,64d2fd46c836a06233681665,64dc7ecad5690df31c4e572c,,,,,,,decisionTrl,resources/DG.BMP,resources/DBN.BMP,Door3,-0.275555556,-0.034444444,1,0,0,1.232,optionLeft,70,14700,7,8,0,8,0,1,,,,,,,,,,,,,,,,,,,,,,,,,,,,,,,,,,,,,,,
,,,,,,,5e865fdcef7ca60d3266f76a,2023-08-16_09h06.28.155,HF_wild_card,2022.2.4,MacIntel,62.5,5e865fdcef7ca60d3266f76a,64d2fd46c836a06233681665,64dc7ecad5690df31c4e572c,,,,,,,decisionTrl,resources/DBN.BMP,resources/DG.BMP,Door3,0.22,-0.066666667,1,0,0,0.764,optionRight,70,14770,7,9,0,9,0,1,,,,,,,,,,,,,,,,,,,,,,,,,,,,,,,,,,,,,,,
,,,,,,,5e865fdcef7ca60d3266f76a,2023-08-16_09h06.28.155,HF_wild_card,2022.2.4,MacIntel,62.5,5e865fdcef7ca60d3266f76a,64d2fd46c836a06233681665,64dc7ecad5690df31c4e572c,,,,,,,ctch,resources/DBN.BMP,resources/DP.BMP,Door4,-0.15,-0.067777778,1,0,0,0.798,optionLeft,80,14850,7,10,0,10,0,1,,,,,,,,,,,,,,,,,,,,,,,,,,,,,,,,,,,,,,,
,,,,,,,5e865fdcef7ca60d3266f76a,2023-08-16_09h06.28.155,HF_wild_card,2022.2.4,MacIntel,62.5,5e865fdcef7ca60d3266f76a,64d2fd46c836a06233681665,64dc7ecad5690df31c4e572c,,,,,,,decisionTrl,resources/DB.BMP,resources/DP.BMP,Door1,0.206666667,-0.045555556,1,0,0,0.614,optionRight,30,14880,7,11,0,11,0,1,,,,,,,,,,,,,,,,,,,,,,,,,,,,,,,,,,,,,,,
,,,,,,,5e865fdcef7ca60d3266f76a,2023-08-16_09h06.28.155,HF_wild_card,2022.2.4,MacIntel,62.5,5e865fdcef7ca60d3266f76a,64d2fd46c836a06233681665,64dc7ecad5690df31c4e572c,,,,,,,ctch,resources/DBN.BMP,resources/DP.BMP,Door4,-0.203333333,-0.057777778,1,0,0,0.548,optionLeft,80,14960,7,12,0,12,0,1,,,,,,,,,,,,,,,,,,,,,,,,,,,,,,,,,,,,,,,
,,,,,,,5e865fdcef7ca60d3266f76a,2023-08-16_09h06.28.155,HF_wild_card,2022.2.4,MacIntel,62.5,5e865fdcef7ca60d3266f76a,64d2fd46c836a06233681665,64dc7ecad5690df31c4e572c,,,,,,,decisionTrl,resources/DP.BMP,resources/DB.BMP,Door1,-0.148888889,-0.083333333,1,0,0,0.681,optionLeft,30,14990,7,13,0,13,0,1,,,,,,,,,,,,,,,,,,,,,,,,,,,,,,,,,,,,,,,
,,,,,,,5e865fdcef7ca60d3266f76a,2023-08-16_09h06.28.155,HF_wild_card,2022.2.4,MacIntel,62.5,5e865fdcef7ca60d3266f76a,64d2fd46c836a06233681665,64dc7ecad5690df31c4e572c,,,,,,,decisionTrl,resources/DG.BMP,resources/DBN.BMP,Door3,-0.252222222,-0.112222222,1,0,0,1.532,optionLeft,70,15060,7,14,0,14,0,1,,,,,,,,,,,,,,,,,,,,,,,,,,,,,,,,,,,,,,,
,,,,,,,5e865fdcef7ca60d3266f76a,2023-08-16_09h06.28.155,HF_wild_card,2022.2.4,MacIntel,62.5,5e865fdcef7ca60d3266f76a,64d2fd46c836a06233681665,64dc7ecad5690df31c4e572c,,,,,,,decisionTrl,resources/DBN.BMP,resources/DG.BMP,Door3,0.171111111,-0.061111111,1,0,0,1.015,optionRight,70,15130,7,15,0,15,0,1,,,,,,,,,,,,,,,,,,,,,,,,,,,,,,,,,,,,,,,
,,,,,,,5e865fdcef7ca60d3266f76a,2023-08-16_09h06.28.155,HF_wild_card,2022.2.4,MacIntel,62.5,5e865fdcef7ca60d3266f76a,64d2fd46c836a06233681665,64dc7ecad5690df31c4e572c,,,,,,,decisionTrl,resources/DB.BMP,resources/DP.BMP,Door1,0.182222222,-0.023333333,1,0,0,0.85,optionRight,30,15160,7,16,0,16,0,1,,,,,,,,,,,,,,,,,,,,,,,,,,,,,,,,,,,,,,,
,,,,,,,5e865fdcef7ca60d3266f76a,2023-08-16_09h06.28.155,HF_wild_card,2022.2.4,MacIntel,62.5,5e865fdcef7ca60d3266f76a,64d2fd46c836a06233681665,64dc7ecad5690df31c4e572c,,,,,,,ctch,resources/DG.BMP,resources/DB.BMP,Door3,-0.153333333,-0.066666667,1,0,0,0.598,optionLeft,70,15230,7,17,0,17,0,1,,,,,,,,,,,,,,,,,,,,,,,,,,,,,,,,,,,,,,,
,,,,,,,5e865fdcef7ca60d3266f76a,2023-08-16_09h06.28.155,HF_wild_card,2022.2.4,MacIntel,62.5,5e865fdcef7ca60d3266f76a,64d2fd46c836a06233681665,64dc7ecad5690df31c4e572c,,,,,,,ctch,resources/DP.BMP,resources/DBN.BMP,Door4,0.214444444,0.034444444,1,0,0,0.68,optionRight,60,15290,7,18,0,18,0,1,,,,,,,,,,,,,,,,,,,,,,,,,,,,,,,,,,,,,,,
,,,,,,,5e865fdcef7ca60d3266f76a,2023-08-16_09h06.28.155,HF_wild_card,2022.2.4,MacIntel,62.5,5e865fdcef7ca60d3266f76a,64d2fd46c836a06233681665,64dc7ecad5690df31c4e572c,,,,,,,decisionTrl,resources/DP.BMP,resources/DB.BMP,Door1,-0.138888889,-0.02,1,0,0,0.915,optionLeft,30,15320,7,19,0,19,0,1,,,,,,,,,,,,,,,,,,,,,,,,,,,,,,,,,,,,,,,
,,,,,,,5e865fdcef7ca60d3266f76a,2023-08-16_09h06.28.155,HF_wild_card,2022.2.4,MacIntel,62.5,5e865fdcef7ca60d3266f76a,64d2fd46c836a06233681665,64dc7ecad5690df31c4e572c,,,,,,,decisionTrl,resources/DG.BMP,resources/DBN.BMP,Door3,-0.116666667,-0.042222222,1,0,0,0.882,optionLeft,70,15390,7,20,0,20,0,1,,,,,,,,,,,,,,,,,,,,,,,,,,,,,,,,,,,,,,,
,,,,,,,5e865fdcef7ca60d3266f76a,2023-08-16_09h06.28.155,HF_wild_card,2022.2.4,MacIntel,62.5,5e865fdcef7ca60d3266f76a,64d2fd46c836a06233681665,64dc7ecad5690df31c4e572c,,,,,,,decisionTrl,resources/DG.BMP,resources/DBN.BMP,Door3,-0.178888889,-0.044444444,1,0,0,0.866,optionLeft,70,15460,7,21,0,21,0,1,,,,,,,,,,,,,,,,,,,,,,,,,,,,,,,,,,,,,,,
,,,,,,,5e865fdcef7ca60d3266f76a,2023-08-16_09h06.28.155,HF_wild_card,2022.2.4,MacIntel,62.5,5e865fdcef7ca60d3266f76a,64d2fd46c836a06233681665,64dc7ecad5690df31c4e572c,,,,,,,decisionTrl,resources/DG.BMP,resources/DBN.BMP,Door3,-0.15,-0.04,1,0,0,0.515,optionLeft,70,15530,7,22,0,22,0,1,,,,,,,,,,,,,,,,,,,,,,,,,,,,,,,,,,,,,,,
,,,,,,,5e865fdcef7ca60d3266f76a,2023-08-16_09h06.28.155,HF_wild_card,2022.2.4,MacIntel,62.5,5e865fdcef7ca60d3266f76a,64d2fd46c836a06233681665,64dc7ecad5690df31c4e572c,,,,,,,decisionTrl,resources/DBN.BMP,resources/DG.BMP,Door3,0.281111111,-0.062222222,1,0,0,0.598,optionRight,70,15600,7,23,0,23,0,1,,,,,,,,,,,,,,,,,,,,,,,,,,,,,,,,,,,,,,,
,,,,,,,5e865fdcef7ca60d3266f76a,2023-08-16_09h06.28.155,HF_wild_card,2022.2.4,MacIntel,62.5,5e865fdcef7ca60d3266f76a,64d2fd46c836a06233681665,64dc7ecad5690df31c4e572c,,,,,,,ctch,resources/DB.BMP,resources/DG.BMP,Door3,0.125555556,-0.043333333,1,0,0,0.564,optionRight,70,15670,7,24,0,24,0,1,,,,,,,,,,,,,,,,,,,,,,,,,,,,,,,,,,,,,,,
,,,,,,,5e865fdcef7ca60d3266f76a,2023-08-16_09h06.28.155,HF_wild_card,2022.2.4,MacIntel,62.5,5e865fdcef7ca60d3266f76a,64d2fd46c836a06233681665,64dc7ecad5690df31c4e572c,,,,,,,ctch,resources/DP.BMP,resources/DBN.BMP,Door4,0.201111111,-0.061111111,1,0,0,0.614,optionRight,80,15750,7,25,0,25,0,1,,,,,,,,,,,,,,,,,,,,,,,,,,,,,,,,,,,,,,,
