Condition,Low fixed image (Door1),Low risky image (Door2),High fixed image (Door3),High risky image (Door4),Extreme Wild Card,NonExtreme Wild Card,,date,expName,psychopyVersion,OS,frameRate,PROLIFIC_PID,STUDY_ID,SESSION_ID,mouse_2.x,mouse_2.y,mouse_2.leftButton,mouse_2.midButton,mouse_2.rightButton,mouse_2.clicked_name,Trial Type,Left Option Image,Right Option Image,Chosen Door,mouse.x,mouse.y,mouse.leftButton,mouse.midButton,mouse.rightButton,mouse.time,mouse.clicked_name,Feedback,Cumulative Reward,Block,trial.thisRepN,trial.thisTrialN,trial.thisN,trial.thisIndex,trial.ran,blocks.thisRepN,blocks.thisTrialN,blocks.thisN,blocks.thisIndex,blocks.ran,Money conversion,First Outcome Reported,Shown Door (First Outcome),Displayed Image (First Outcome),outcomes.thisRepN,outcomes.thisTrialN,outcomes.thisN,outcomes.thisIndex,outcomes.ran,judgments.thisRepN,judgments.thisTrialN,judgments.thisN,judgments.thisIndex,judgments.ran,freqMouse.x,freqMouse.y,freqMouse.leftButton,freqMouse.midButton,freqMouse.rightButton,freqMouse.clicked_name,trials.thisRepN,trials.thisTrialN,trials.thisN,trials.thisIndex,trials.ran,FQJ for first outcome,FQJ for second outcome,Shown Door,Displayed Image,judgBlock.thisRepN,judgBlock.thisTrialN,judgBlock.thisN,judgBlock.thisIndex,judgBlock.ran
0,resources/DG.BMP,resources/DB.BMP,resources/DY.BMP,resources/DR.BMP,resources/DBN.BMP,resources/DP.BMP,,2023-08-16_08h46.48.194,HF_wild_card,2022.2.4,Win32,60.0240096,6266d1937cec5e7a57883e76,64d2fd46c836a06233681665,64dc7e79a21d25c05cb512ad,,,,,,,,,,,,,,,,,,,,,,,,,,,,,,,,,,,,,,,,,,,,,,,,,,,,,,,,,,,,,,,,
,,,,,,,,2023-08-16_08h46.48.194,HF_wild_card,2022.2.4,Win32,60.0240096,6266d1937cec5e7a57883e76,64d2fd46c836a06233681665,64dc7e79a21d25c05cb512ad,0.023611111,-0.425,1,0,0,agree,,,,,,,,,,,,,,,,,,,,,,,,,,,,,,,,,,,,,,,,,,,,,,,,,,,,,,,,,,
,,,,,,,,2023-08-16_08h46.48.194,HF_wild_card,2022.2.4,Win32,60.0240096,6266d1937cec5e7a57883e76,64d2fd46c836a06233681665,64dc7e79a21d25c05cb512ad,,,,,,,,,,,,,,,,,,,,,,,,,,,,,,,,,,,,,,,,,,,,,,,,,,,,,,,,,,,,,,,,
,,,,,,,,2023-08-16_08h46.48.194,HF_wild_card,2022.2.4,Win32,60.0240096,6266d1937cec5e7a57883e76,64d2fd46c836a06233681665,64dc7e79a21d25c05cb512ad,,,,,,,decisionTrl,resources/DB.BMP,resources/DG.BMP,Door2,-0.238888889,-0.088888889,1,0,0,1.506,optionLeft,20,20,1,0,0,0,0,1,,,,,,,,,,,,,,,,,,,,,,,,,,,,,,,,,,,,,,,
,,,,,,,,2023-08-16_08h46.48.194,HF_wild_card,2022.2.4,Win32,60.0240096,6266d1937cec5e7a57883e76,64d2fd46c836a06233681665,64dc7e79a21d25c05cb512ad,,,,,,,decisionTrl,resources/DR.BMP,resources/DY.BMP,Door3,0.331944444,0.066666667,1,0,0,0.629,optionRight,70,90,1,1,0,1,0,1,,,,,,,,,,,,,,,,,,,,,,,,,,,,,,,,,,,,,,,
,,,,,,,,2023-08-16_08h46.48.194,HF_wild_card,2022.2.4,Win32,60.0240096,6266d1937cec5e7a57883e76,64d2fd46c836a06233681665,64dc7e79a21d25c05cb512ad,,,,,,,decisionTrl,resources/DR.BMP,resources/DY.BMP,Door4,-0.305555556,0.006944444,1,0,0,0.447,optionLeft,60,150,1,2,0,2,0,1,,,,,,,,,,,,,,,,,,,,,,,,,,,,,,,,,,,,,,,
,,,,,,,,2023-08-16_08h46.48.194,HF_wild_card,2022.2.4,Win32,60.0240096,6266d1937cec5e7a57883e76,64d2fd46c836a06233681665,64dc7e79a21d25c05cb512ad,,,,,,,sngl,resources/DR.BMP,resources/Empty.png,Door4,-0.241666667,0.018055556,1,0,0,0.497,optionLeft,80,230,1,3,0,3,0,1,,,,,,,,,,,,,,,,,,,,,,,,,,,,,,,,,,,,,,,
,,,,,,,,2023-08-16_08h46.48.194,HF_wild_card,2022.2.4,Win32,60.0240096,6266d1937cec5e7a57883e76,64d2fd46c836a06233681665,64dc7e79a21d25c05cb512ad,,,,,,,sngl,resources/DB.BMP,resources/Empty.png,Door2,-0.247222222,0.065277778,1,0,0,1.579,optionLeft,40,270,1,4,0,4,0,1,,,,,,,,,,,,,,,,,,,,,,,,,,,,,,,,,,,,,,,
,,,,,,,,2023-08-16_08h46.48.194,HF_wild_card,2022.2.4,Win32,60.0240096,6266d1937cec5e7a57883e76,64d2fd46c836a06233681665,64dc7e79a21d25c05cb512ad,,,,,,,sngl,resources/Empty.png,resources/DR.BMP,Door4,-0.3,-0.013888889,1,0,0,0.73,optionRight,60,330,1,5,0,5,0,1,,,,,,,,,,,,,,,,,,,,,,,,,,,,,,,,,,,,,,,
,,,,,,,,2023-08-16_08h46.48.194,HF_wild_card,2022.2.4,Win32,60.0240096,6266d1937cec5e7a57883e76,64d2fd46c836a06233681665,64dc7e79a21d25c05cb512ad,,,,,,,sngl,resources/DBN.BMP,resources/Empty.png,WildCard_Ex,-0.261111111,0.002777778,1,0,0,0.46,optionLeft,95,425,1,6,0,6,0,1,,,,,,,,,,,,,,,,,,,,,,,,,,,,,,,,,,,,,,,
,,,,,,,,2023-08-16_08h46.48.194,HF_wild_card,2022.2.4,Win32,60.0240096,6266d1937cec5e7a57883e76,64d2fd46c836a06233681665,64dc7e79a21d25c05cb512ad,,,,,,,decisionTrl,resources/DY.BMP,resources/DBN.BMP,Door3,-0.101388889,-0.019444444,1,0,0,1.478,optionLeft,70,495,1,7,0,7,0,1,,,,,,,,,,,,,,,,,,,,,,,,,,,,,,,,,,,,,,,
,,,,,,,,2023-08-16_08h46.48.194,HF_wild_card,2022.2.4,Win32,60.0240096,6266d1937cec5e7a57883e76,64d2fd46c836a06233681665,64dc7e79a21d25c05cb512ad,,,,,,,decisionTrl,resources/DBN.BMP,resources/DG.BMP,Door1,0.358333333,-0.031944444,1,0,0,0.663,optionRight,30,525,1,8,0,8,0,1,,,,,,,,,,,,,,,,,,,,,,,,,,,,,,,,,,,,,,,
,,,,,,,,2023-08-16_08h46.48.194,HF_wild_card,2022.2.4,Win32,60.0240096,6266d1937cec5e7a57883e76,64d2fd46c836a06233681665,64dc7e79a21d25c05cb512ad,,,,,,,decisionTrl,resources/DY.BMP,resources/DR.BMP,Door4,0.347222222,0.013888889,1,0,0,2.563,optionRight,60,585,1,9,0,9,0,1,,,,,,,,,,,,,,,,,,,,,,,,,,,,,,,,,,,,,,,
,,,,,,,,2023-08-16_08h46.48.194,HF_wild_card,2022.2.4,Win32,60.0240096,6266d1937cec5e7a57883e76,64d2fd46c836a06233681665,64dc7e79a21d25c05cb512ad,,,,,,,decisionTrl,resources/DB.BMP,resources/DG.BMP,Door2,-0.384722222,-0.045833333,1,0,0,0.413,optionLeft,40,625,1,10,0,10,0,1,,,,,,,,,,,,,,,,,,,,,,,,,,,,,,,,,,,,,,,
,,,,,,,,2023-08-16_08h46.48.194,HF_wild_card,2022.2.4,Win32,60.0240096,6266d1937cec5e7a57883e76,64d2fd46c836a06233681665,64dc7e79a21d25c05cb512ad,,,,,,,decisionTrl,resources/DB.BMP,resources/DG.BMP,Door1,0.333333333,-0.102777778,1,0,0,0.464,optionRight,30,655,1,11,0,11,0,1,,,,,,,,,,,,,,,,,,,,,,,,,,,,,,,,,,,,,,,
,,,,,,,,2023-08-16_08h46.48.194,HF_wild_card,2022.2.4,Win32,60.0240096,6266d1937cec5e7a57883e76,64d2fd46c836a06233681665,64dc7e79a21d25c05cb512ad,,,,,,,sngl,resources/Empty.png,resources/DG.BMP,Door1,0.2875,-0.056944444,1,0,0,0.58,optionRight,30,685,1,12,0,12,0,1,,,,,,,,,,,,,,,,,,,,,,,,,,,,,,,,,,,,,,,
,,,,,,,,2023-08-16_08h46.48.194,HF_wild_card,2022.2.4,Win32,60.0240096,6266d1937cec5e7a57883e76,64d2fd46c836a06233681665,64dc7e79a21d25c05cb512ad,,,,,,,sngl,resources/DG.BMP,resources/Empty.png,Door1,-0.197222222,-0.058333333,1,0,0,0.481,optionLeft,30,715,1,13,0,13,0,1,,,,,,,,,,,,,,,,,,,,,,,,,,,,,,,,,,,,,,,
,,,,,,,,2023-08-16_08h46.48.194,HF_wild_card,2022.2.4,Win32,60.0240096,6266d1937cec5e7a57883e76,64d2fd46c836a06233681665,64dc7e79a21d25c05cb512ad,,,,,,,ctch,resources/DG.BMP,resources/DR.BMP,Door4,0.254166667,0.025,1,0,0,0.747,optionRight,60,775,1,14,0,14,0,1,,,,,,,,,,,,,,,,,,,,,,,,,,,,,,,,,,,,,,,
,,,,,,,,2023-08-16_08h46.48.194,HF_wild_card,2022.2.4,Win32,60.0240096,6266d1937cec5e7a57883e76,64d2fd46c836a06233681665,64dc7e79a21d25c05cb512ad,,,,,,,decisionTrl,resources/DG.BMP,resources/DBN.BMP,WildCard_Ex,0.277777778,0.015277778,1,0,0,1.014,optionRight,95,870,1,15,0,15,0,1,,,,,,,,,,,,,,,,,,,,,,,,,,,,,,,,,,,,,,,
,,,,,,,,2023-08-16_08h46.48.194,HF_wild_card,2022.2.4,Win32,60.0240096,6266d1937cec5e7a57883e76,64d2fd46c836a06233681665,64dc7e79a21d25c05cb512ad,,,,,,,decisionTrl,resources/DBN.BMP,resources/DR.BMP,Door4,0.163888889,0.004166667,1,0,0,0.897,optionRight,80,950,1,16,0,16,0,1,,,,,,,,,,,,,,,,,,,,,,,,,,,,,,,,,,,,,,,
,,,,,,,,2023-08-16_08h46.48.194,HF_wild_card,2022.2.4,Win32,60.0240096,6266d1937cec5e7a57883e76,64d2fd46c836a06233681665,64dc7e79a21d25c05cb512ad,,,,,,,ctch,resources/DR.BMP,resources/DG.BMP,Door4,-0.368121442,0.035104364,1,0,0,2.514,optionLeft,80,1030,1,17,0,17,0,1,,,,,,,,,,,,,,,,,,,,,,,,,,,,,,,,,,,,,,,
,,,,,,,,2023-08-16_08h46.48.194,HF_wild_card,2022.2.4,Win32,60.0240096,6266d1937cec5e7a57883e76,64d2fd46c836a06233681665,64dc7e79a21d25c05cb512ad,,,,,,,decisionTrl,resources/DR.BMP,resources/DY.BMP,Door3,-0.043643264,-0.000948767,1,0,0,0.58,optionRight,70,1100,1,18,0,18,0,1,,,,,,,,,,,,,,,,,,,,,,,,,,,,,,,,,,,,,,,
,,,,,,,,2023-08-16_08h46.48.194,HF_wild_card,2022.2.4,Win32,60.0240096,6266d1937cec5e7a57883e76,64d2fd46c836a06233681665,64dc7e79a21d25c05cb512ad,,,,,,,decisionTrl,resources/DBN.BMP,resources/DY.BMP,Door3,0.24857685,0.037001898,1,0,0,0.995,optionRight,70,1170,1,19,0,19,0,1,,,,,,,,,,,,,,,,,,,,,,,,,,,,,,,,,,,,,,,
,,,,,,,,2023-08-16_08h46.48.194,HF_wild_card,2022.2.4,Win32,60.0240096,6266d1937cec5e7a57883e76,64d2fd46c836a06233681665,64dc7e79a21d25c05cb512ad,,,,,,,ctch,resources/DG.BMP,resources/DR.BMP,Door4,0.567362429,0.052182163,1,0,0,0.811,optionRight,60,1230,1,20,0,20,0,1,,,,,,,,,,,,,,,,,,,,,,,,,,,,,,,,,,,,,,,
,,,,,,,,2023-08-16_08h46.48.194,HF_wild_card,2022.2.4,Win32,60.0240096,6266d1937cec5e7a57883e76,64d2fd46c836a06233681665,64dc7e79a21d25c05cb512ad,,,,,,,decisionTrl,resources/DBN.BMP,resources/DB.BMP,WildCard_Ex,-0.288425047,-0.010436433,1,0,0,0.529,optionLeft,95,1325,1,21,0,21,0,1,,,,,,,,,,,,,,,,,,,,,,,,,,,,,,,,,,,,,,,
,,,,,,,,2023-08-16_08h46.48.194,HF_wild_card,2022.2.4,Win32,60.0240096,6266d1937cec5e7a57883e76,64d2fd46c836a06233681665,64dc7e79a21d25c05cb512ad,,,,,,,ctch,resources/DY.BMP,resources/DB.BMP,Door2,0.212523719,-0.0028463,1,0,0,0.864,optionRight,20,1345,1,22,0,22,0,1,,,,,,,,,,,,,,,,,,,,,,,,,,,,,,,,,,,,,,,
,,,,,,,,2023-08-16_08h46.48.194,HF_wild_card,2022.2.4,Win32,60.0240096,6266d1937cec5e7a57883e76,64d2fd46c836a06233681665,64dc7e79a21d25c05cb512ad,,,,,,,sngl,resources/DY.BMP,resources/Empty.png,Door3,-0.261859583,-0.004743833,1,0,0,0.463,optionLeft,70,1415,1,23,0,23,0,1,,,,,,,,,,,,,,,,,,,,,,,,,,,,,,,,,,,,,,,
,,,,,,,,2023-08-16_08h46.48.194,HF_wild_card,2022.2.4,Win32,60.0240096,6266d1937cec5e7a57883e76,64d2fd46c836a06233681665,64dc7e79a21d25c05cb512ad,,,,,,,sngl,resources/Empty.png,resources/DBN.BMP,WildCard_Ex,0.377609108,0.082542694,1,0,0,0.592,optionRight,95,1510,1,24,0,24,0,1,,,,,,,,,,,,,,,,,,,,,,,,,,,,,,,,,,,,,,,
,,,,,,,,2023-08-16_08h46.48.194,HF_wild_card,2022.2.4,Win32,60.0240096,6266d1937cec5e7a57883e76,64d2fd46c836a06233681665,64dc7e79a21d25c05cb512ad,,,,,,,sngl,resources/DBN.BMP,resources/Empty.png,WildCard_Ex,-0.267552182,0.008538899,1,0,0,0.379,optionLeft,5,1515,1,25,0,25,0,1,,,,,,,,,,,,,,,,,,,,,,,,,,,,,,,,,,,,,,,
,,,,,,,,2023-08-16_08h46.48.194,HF_wild_card,2022.2.4,Win32,60.0240096,6266d1937cec5e7a57883e76,64d2fd46c836a06233681665,64dc7e79a21d25c05cb512ad,,,,,,,decisionTrl,resources/DY.BMP,resources/DR.BMP,Door3,-0.273244782,0.029411765,1,0,0,0.594,optionLeft,70,1585,1,26,0,26,0,1,,,,,,,,,,,,,,,,,,,,,,,,,,,,,,,,,,,,,,,
,,,,,,,,2023-08-16_08h46.48.194,HF_wild_card,2022.2.4,Win32,60.0240096,6266d1937cec5e7a57883e76,64d2fd46c836a06233681665,64dc7e79a21d25c05cb512ad,,,,,,,decisionTrl,resources/DG.BMP,resources/DB.BMP,Door2,0.185958254,0.033206831,1,0,0,0.43,optionRight,20,1605,1,27,0,27,0,1,,,,,,,,,,,,,,,,,,,,,,,,,,,,,,,,,,,,,,,
,,,,,,,,2023-08-16_08h46.48.194,HF_wild_card,2022.2.4,Win32,60.0240096,6266d1937cec5e7a57883e76,64d2fd46c836a06233681665,64dc7e79a21d25c05cb512ad,,,,,,,decisionTrl,resources/DY.BMP,resources/DR.BMP,Door3,-0.172675522,-0.010436433,1,0,0,0.397,optionLeft,70,1675,1,28,0,28,0,1,,,,,,,,,,,,,,,,,,,,,,,,,,,,,,,,,,,,,,,
,,,,,,,,2023-08-16_08h46.48.194,HF_wild_card,2022.2.4,Win32,60.0240096,6266d1937cec5e7a57883e76,64d2fd46c836a06233681665,64dc7e79a21d25c05cb512ad,,,,,,,ctch,resources/DB.BMP,resources/DY.BMP,Door2,-0.151802657,-0.006641366,1,0,0,0.414,optionLeft,20,1695,1,29,0,29,0,1,,,,,,,,,,,,,,,,,,,,,,,,,,,,,,,,,,,,,,,
,,,,,,,,2023-08-16_08h46.48.194,HF_wild_card,2022.2.4,Win32,60.0240096,6266d1937cec5e7a57883e76,64d2fd46c836a06233681665,64dc7e79a21d25c05cb512ad,,,,,,,sngl,resources/Empty.png,resources/DBN.BMP,WildCard_Ex,0.521821632,-0.000948767,1,0,0,0.443,optionRight,5,1700,1,30,0,30,0,1,,,,,,,,,,,,,,,,,,,,,,,,,,,,,,,,,,,,,,,
,,,,,,,,2023-08-16_08h46.48.194,HF_wild_card,2022.2.4,Win32,60.0240096,6266d1937cec5e7a57883e76,64d2fd46c836a06233681665,64dc7e79a21d25c05cb512ad,,,,,,,decisionTrl,resources/DR.BMP,resources/DY.BMP,Door3,0.15370019,-0.067362429,1,0,0,1.145,optionRight,70,1770,1,31,0,31,0,1,,,,,,,,,,,,,,,,,,,,,,,,,,,,,,,,,,,,,,,
,,,,,,,,2023-08-16_08h46.48.194,HF_wild_card,2022.2.4,Win32,60.0240096,6266d1937cec5e7a57883e76,64d2fd46c836a06233681665,64dc7e79a21d25c05cb512ad,,,,,,,ctch,resources/DY.BMP,resources/DB.BMP,Door3,-0.203036053,0.037001898,1,0,0,0.747,optionLeft,70,1840,1,32,0,32,0,1,,,,,,,,,,,,,,,,,,,,,,,,,,,,,,,,,,,,,,,
,,,,,,,,2023-08-16_08h46.48.194,HF_wild_card,2022.2.4,Win32,60.0240096,6266d1937cec5e7a57883e76,64d2fd46c836a06233681665,64dc7e79a21d25c05cb512ad,,,,,,,ctch,resources/DB.BMP,resources/DY.BMP,Door3,0.267552182,-0.019924099,1,0,0,0.93,optionRight,70,1910,1,33,0,33,0,1,,,,,,,,,,,,,,,,,,,,,,,,,,,,,,,,,,,,,,,
,,,,,,,,2023-08-16_08h46.48.194,HF_wild_card,2022.2.4,Win32,60.0240096,6266d1937cec5e7a57883e76,64d2fd46c836a06233681665,64dc7e79a21d25c05cb512ad,,,,,,,decisionTrl,resources/DB.BMP,resources/DG.BMP,Door2,-0.24288425,0.052182163,1,0,0,0.447,optionLeft,40,1950,1,34,0,34,0,1,,,,,,,,,,,,,,,,,,,,,,,,,,,,,,,,,,,,,,,
,,,,,,,,2023-08-16_08h46.48.194,HF_wild_card,2022.2.4,Win32,60.0240096,6266d1937cec5e7a57883e76,64d2fd46c836a06233681665,64dc7e79a21d25c05cb512ad,,,,,,,decisionTrl,resources/DB.BMP,resources/DBN.BMP,WildCard_Ex,0.258064516,0.006641366,1,0,0,0.564,optionRight,5,1955,1,35,0,35,0,1,,,,,,,,,,,,,,,,,,,,,,,,,,,,,,,,,,,,,,,
,,,,,,,,2023-08-16_08h46.48.194,HF_wild_card,2022.2.4,Win32,60.0240096,6266d1937cec5e7a57883e76,64d2fd46c836a06233681665,64dc7e79a21d25c05cb512ad,,,,,,,decisionTrl,resources/DG.BMP,resources/DB.BMP,Door1,-0.347248577,-0.000948767,1,0,0,0.398,optionLeft,30,1985,1,36,0,36,0,1,,,,,,,,,,,,,,,,,,,,,,,,,,,,,,,,,,,,,,,
,,,,,,,,2023-08-16_08h46.48.194,HF_wild_card,2022.2.4,Win32,60.0240096,6266d1937cec5e7a57883e76,64d2fd46c836a06233681665,64dc7e79a21d25c05cb512ad,,,,,,,decisionTrl,resources/DG.BMP,resources/DB.BMP,Door2,0.237191651,0.010436433,1,0,0,0.414,optionRight,20,2005,1,37,0,37,0,1,,,,,,,,,,,,,,,,,,,,,,,,,,,,,,,,,,,,,,,
,,,,,,,,2023-08-16_08h46.48.194,HF_wild_card,2022.2.4,Win32,60.0240096,6266d1937cec5e7a57883e76,64d2fd46c836a06233681665,64dc7e79a21d25c05cb512ad,,,,,,,sngl,resources/Empty.png,resources/DY.BMP,Door3,0.229601518,0.008538899,1,0,0,0.513,optionRight,70,2075,1,38,0,38,0,1,,,,,,,,,,,,,,,,,,,,,,,,,,,,,,,,,,,,,,,
,,,,,,,,2023-08-16_08h46.48.194,HF_wild_card,2022.2.4,Win32,60.0240096,6266d1937cec5e7a57883e76,64d2fd46c836a06233681665,64dc7e79a21d25c05cb512ad,,,,,,,decisionTrl,resources/DG.BMP,resources/DB.BMP,Door2,0.261859583,-0.073055028,1,0,0,0.831,optionRight,40,2115,1,39,0,39,0,1,,,,,,,,,,,,,,,,,,,,,,,,,,,,,,,,,,,,,,,
,,,,,,,,2023-08-16_08h46.48.194,HF_wild_card,2022.2.4,Win32,60.0240096,6266d1937cec5e7a57883e76,64d2fd46c836a06233681665,64dc7e79a21d25c05cb512ad,,,,,,,decisionTrl,resources/DR.BMP,resources/DBN.BMP,Door4,-0.438330171,0.131878558,1,0,0,0.445,optionLeft,60,2175,1,40,0,40,0,1,,,,,,,,,,,,,,,,,,,,,,,,,,,,,,,,,,,,,,,
,,,,,,,,2023-08-16_08h46.48.194,HF_wild_card,2022.2.4,Win32,60.0240096,6266d1937cec5e7a57883e76,64d2fd46c836a06233681665,64dc7e79a21d25c05cb512ad,,,,,,,sngl,resources/Empty.png,resources/DB.BMP,Door2,0.332068311,-0.046489564,1,0,0,0.511,optionRight,20,2195,1,41,0,41,0,1,,,,,,,,,,,,,,,,,,,,,,,,,,,,,,,,,,,,,,,
,,,,,,,,2023-08-16_08h46.48.194,HF_wild_card,2022.2.4,Win32,60.0240096,6266d1937cec5e7a57883e76,64d2fd46c836a06233681665,64dc7e79a21d25c05cb512ad,,,,,,,ctch,resources/DR.BMP,resources/DG.BMP,Door4,-0.182163188,-0.010436433,1,0,0,0.511,optionLeft,60,2255,1,42,0,42,0,1,,,,,,,,,,,,,,,,,,,,,,,,,,,,,,,,,,,,,,,
,,,,,,,,2023-08-16_08h46.48.194,HF_wild_card,2022.2.4,Win32,60.0240096,6266d1937cec5e7a57883e76,64d2fd46c836a06233681665,64dc7e79a21d25c05cb512ad,,,,,,,decisionTrl,resources/DY.BMP,resources/DR.BMP,Door4,0.184060721,-0.018026565,1,0,0,0.546,optionRight,60,2315,1,43,0,43,0,1,,,,,,,,,,,,,,,,,,,,,,,,,,,,,,,,,,,,,,,
,,,,,,,,2023-08-16_08h46.48.194,HF_wild_card,2022.2.4,Win32,60.0240096,6266d1937cec5e7a57883e76,64d2fd46c836a06233681665,64dc7e79a21d25c05cb512ad,,,,,,,,,,,,,,,,,,,,,,,,,,0,0,0,0,1,,,,,,,,,,,,,,,,,,,,,,,,,,,,,,,,,,
,,,,,,,,2023-08-16_08h46.48.194,HF_wild_card,2022.2.4,Win32,60.0240096,6266d1937cec5e7a57883e76,64d2fd46c836a06233681665,64dc7e79a21d25c05cb512ad,,,,,,,sngl,resources/Empty.png,resources/DBN.BMP,WildCard_Ex,0.313092979,-0.084440228,1,0,0,0.604,optionRight,5,2320,2,0,0,0,0,1,,,,,,,,,,,,,,,,,,,,,,,,,,,,,,,,,,,,,,,
,,,,,,,,2023-08-16_08h46.48.194,HF_wild_card,2022.2.4,Win32,60.0240096,6266d1937cec5e7a57883e76,64d2fd46c836a06233681665,64dc7e79a21d25c05cb512ad,,,,,,,decisionTrl,resources/DY.BMP,resources/DR.BMP,Door3,-0.212523719,-0.065464896,1,0,0,0.444,optionLeft,70,2390,2,1,0,1,0,1,,,,,,,,,,,,,,,,,,,,,,,,,,,,,,,,,,,,,,,
,,,,,,,,2023-08-16_08h46.48.194,HF_wild_card,2022.2.4,Win32,60.0240096,6266d1937cec5e7a57883e76,64d2fd46c836a06233681665,64dc7e79a21d25c05cb512ad,,,,,,,decisionTrl,resources/DR.BMP,resources/DY.BMP,Door3,0.210626186,0.116698292,1,0,0,0.812,optionRight,70,2460,2,2,0,2,0,1,,,,,,,,,,,,,,,,,,,,,,,,,,,,,,,,,,,,,,,
,,,,,,,,2023-08-16_08h46.48.194,HF_wild_card,2022.2.4,Win32,60.0240096,6266d1937cec5e7a57883e76,64d2fd46c836a06233681665,64dc7e79a21d25c05cb512ad,,,,,,,sngl,resources/Empty.png,resources/DG.BMP,Door1,0.297912713,-0.004743833,1,0,0,0.529,optionRight,30,2490,2,3,0,3,0,1,,,,,,,,,,,,,,,,,,,,,,,,,,,,,,,,,,,,,,,
,,,,,,,,2023-08-16_08h46.48.194,HF_wild_card,2022.2.4,Win32,60.0240096,6266d1937cec5e7a57883e76,64d2fd46c836a06233681665,64dc7e79a21d25c05cb512ad,,,,,,,decisionTrl,resources/DY.BMP,resources/DR.BMP,Door3,-0.267552182,-0.018026565,1,0,0,0.563,optionLeft,70,2560,2,4,0,4,0,1,,,,,,,,,,,,,,,,,,,,,,,,,,,,,,,,,,,,,,,
,,,,,,,,2023-08-16_08h46.48.194,HF_wild_card,2022.2.4,Win32,60.0240096,6266d1937cec5e7a57883e76,64d2fd46c836a06233681665,64dc7e79a21d25c05cb512ad,,,,,,,ctch,resources/DY.BMP,resources/DB.BMP,Door2,0.273244782,0.029411765,1,0,0,0.448,optionRight,20,2580,2,5,0,5,0,1,,,,,,,,,,,,,,,,,,,,,,,,,,,,,,,,,,,,,,,
,,,,,,,,2023-08-16_08h46.48.194,HF_wild_card,2022.2.4,Win32,60.0240096,6266d1937cec5e7a57883e76,64d2fd46c836a06233681665,64dc7e79a21d25c05cb512ad,,,,,,,ctch,resources/DR.BMP,resources/DG.BMP,Door4,-0.278937381,0.004743833,1,0,0,0.611,optionLeft,80,2660,2,6,0,6,0,1,,,,,,,,,,,,,,,,,,,,,,,,,,,,,,,,,,,,,,,
,,,,,,,,2023-08-16_08h46.48.194,HF_wild_card,2022.2.4,Win32,60.0240096,6266d1937cec5e7a57883e76,64d2fd46c836a06233681665,64dc7e79a21d25c05cb512ad,,,,,,,ctch,resources/DG.BMP,resources/DR.BMP,Door4,0.29601518,0.010436433,1,0,0,0.545,optionRight,80,2740,2,7,0,7,0,1,,,,,,,,,,,,,,,,,,,,,,,,,,,,,,,,,,,,,,,
,,,,,,,,2023-08-16_08h46.48.194,HF_wild_card,2022.2.4,Win32,60.0240096,6266d1937cec5e7a57883e76,64d2fd46c836a06233681665,64dc7e79a21d25c05cb512ad,,,,,,,ctch,resources/DG.BMP,resources/DR.BMP,Door1,-0.182163188,0.082542694,1,0,0,0.713,optionLeft,30,2770,2,8,0,8,0,1,,,,,,,,,,,,,,,,,,,,,,,,,,,,,,,,,,,,,,,
,,,,,,,,2023-08-16_08h46.48.194,HF_wild_card,2022.2.4,Win32,60.0240096,6266d1937cec5e7a57883e76,64d2fd46c836a06233681665,64dc7e79a21d25c05cb512ad,,,,,,,ctch,resources/DB.BMP,resources/DY.BMP,Door3,0.339658444,-0.012333966,1,0,0,0.464,optionRight,70,2840,2,9,0,9,0,1,,,,,,,,,,,,,,,,,,,,,,,,,,,,,,,,,,,,,,,
,,,,,,,,2023-08-16_08h46.48.194,HF_wild_card,2022.2.4,Win32,60.0240096,6266d1937cec5e7a57883e76,64d2fd46c836a06233681665,64dc7e79a21d25c05cb512ad,,,,,,,decisionTrl,resources/DBN.BMP,resources/DB.BMP,WildCard_Ex,-0.278937381,0.012333966,1,0,0,0.447,optionLeft,95,2935,2,10,0,10,0,1,,,,,,,,,,,,,,,,,,,,,,,,,,,,,,,,,,,,,,,
,,,,,,,,2023-08-16_08h46.48.194,HF_wild_card,2022.2.4,Win32,60.0240096,6266d1937cec5e7a57883e76,64d2fd46c836a06233681665,64dc7e79a21d25c05cb512ad,,,,,,,decisionTrl,resources/DBN.BMP,resources/DY.BMP,Door3,0.554079696,-0.038899431,1,0,0,2.097,optionRight,70,3005,2,11,0,11,0,1,,,,,,,,,,,,,,,,,,,,,,,,,,,,,,,,,,,,,,,
,,,,,,,,2023-08-16_08h46.48.194,HF_wild_card,2022.2.4,Win32,60.0240096,6266d1937cec5e7a57883e76,64d2fd46c836a06233681665,64dc7e79a21d25c05cb512ad,,,,,,,decisionTrl,resources/DG.BMP,resources/DBN.BMP,Door1,-0.191650854,-0.04459203,1,0,0,1.281,optionLeft,30,3035,2,12,0,12,0,1,,,,,,,,,,,,,,,,,,,,,,,,,,,,,,,,,,,,,,,
,,,,,,,,2023-08-16_08h46.48.194,HF_wild_card,2022.2.4,Win32,60.0240096,6266d1937cec5e7a57883e76,64d2fd46c836a06233681665,64dc7e79a21d25c05cb512ad,,,,,,,decisionTrl,resources/DR.BMP,resources/DBN.BMP,Door4,-0.235294118,0.014231499,1,0,0,0.426,optionLeft,80,3115,2,13,0,13,0,1,,,,,,,,,,,,,,,,,,,,,,,,,,,,,,,,,,,,,,,
,,,,,,,,2023-08-16_08h46.48.194,HF_wild_card,2022.2.4,Win32,60.0240096,6266d1937cec5e7a57883e76,64d2fd46c836a06233681665,64dc7e79a21d25c05cb512ad,,,,,,,decisionTrl,resources/DR.BMP,resources/DY.BMP,Door3,0.250474383,-0.069259962,1,0,0,0.429,optionRight,70,3185,2,14,0,14,0,1,,,,,,,,,,,,,,,,,,,,,,,,,,,,,,,,,,,,,,,
,,,,,,,,2023-08-16_08h46.48.194,HF_wild_card,2022.2.4,Win32,60.0240096,6266d1937cec5e7a57883e76,64d2fd46c836a06233681665,64dc7e79a21d25c05cb512ad,,,,,,,decisionTrl,resources/DB.BMP,resources/DBN.BMP,Door2,-0.227703985,0.021821632,1,0,0,0.394,optionLeft,20,3205,2,15,0,15,0,1,,,,,,,,,,,,,,,,,,,,,,,,,,,,,,,,,,,,,,,
,,,,,,,,2023-08-16_08h46.48.194,HF_wild_card,2022.2.4,Win32,60.0240096,6266d1937cec5e7a57883e76,64d2fd46c836a06233681665,64dc7e79a21d25c05cb512ad,,,,,,,decisionTrl,resources/DB.BMP,resources/DG.BMP,Door1,0.199240987,-0.014231499,1,0,0,0.329,optionRight,30,3235,2,16,0,16,0,1,,,,,,,,,,,,,,,,,,,,,,,,,,,,,,,,,,,,,,,
,,,,,,,,2023-08-16_08h46.48.194,HF_wild_card,2022.2.4,Win32,60.0240096,6266d1937cec5e7a57883e76,64d2fd46c836a06233681665,64dc7e79a21d25c05cb512ad,,,,,,,sngl,resources/DB.BMP,resources/Empty.png,Door2,-0.352941176,0.023719165,1,0,0,0.414,optionLeft,20,3255,2,17,0,17,0,1,,,,,,,,,,,,,,,,,,,,,,,,,,,,,,,,,,,,,,,
,,,,,,,,2023-08-16_08h46.48.194,HF_wild_card,2022.2.4,Win32,60.0240096,6266d1937cec5e7a57883e76,64d2fd46c836a06233681665,64dc7e79a21d25c05cb512ad,,,,,,,decisionTrl,resources/DR.BMP,resources/DY.BMP,Door3,0.176470588,0.046489564,1,0,0,0.396,optionRight,70,3325,2,18,0,18,0,1,,,,,,,,,,,,,,,,,,,,,,,,,,,,,,,,,,,,,,,
,,,,,,,,2023-08-16_08h46.48.194,HF_wild_card,2022.2.4,Win32,60.0240096,6266d1937cec5e7a57883e76,64d2fd46c836a06233681665,64dc7e79a21d25c05cb512ad,,,,,,,sngl,resources/Empty.png,resources/DB.BMP,Door2,0.29601518,-0.035104364,1,0,0,0.48,optionRight,40,3365,2,19,0,19,0,1,,,,,,,,,,,,,,,,,,,,,,,,,,,,,,,,,,,,,,,
,,,,,,,,2023-08-16_08h46.48.194,HF_wild_card,2022.2.4,Win32,60.0240096,6266d1937cec5e7a57883e76,64d2fd46c836a06233681665,64dc7e79a21d25c05cb512ad,,,,,,,decisionTrl,resources/DY.BMP,resources/DR.BMP,Door3,-0.19544592,-0.080645161,1,0,0,1.612,optionLeft,70,3435,2,20,0,20,0,1,,,,,,,,,,,,,,,,,,,,,,,,,,,,,,,,,,,,,,,
,,,,,,,,2023-08-16_08h46.48.194,HF_wild_card,2022.2.4,Win32,60.0240096,6266d1937cec5e7a57883e76,64d2fd46c836a06233681665,64dc7e79a21d25c05cb512ad,,,,,,,sngl,resources/DBN.BMP,resources/Empty.png,WildCard_Ex,-0.282732448,-0.019924099,1,0,0,0.563,optionLeft,5,3440,2,21,0,21,0,1,,,,,,,,,,,,,,,,,,,,,,,,,,,,,,,,,,,,,,,
,,,,,,,,2023-08-16_08h46.48.194,HF_wild_card,2022.2.4,Win32,60.0240096,6266d1937cec5e7a57883e76,64d2fd46c836a06233681665,64dc7e79a21d25c05cb512ad,,,,,,,decisionTrl,resources/DB.BMP,resources/DG.BMP,Door1,0.239089184,-0.04459203,1,0,0,0.496,optionRight,30,3470,2,22,0,22,0,1,,,,,,,,,,,,,,,,,,,,,,,,,,,,,,,,,,,,,,,
,,,,,,,,2023-08-16_08h46.48.194,HF_wild_card,2022.2.4,Win32,60.0240096,6266d1937cec5e7a57883e76,64d2fd46c836a06233681665,64dc7e79a21d25c05cb512ad,,,,,,,decisionTrl,resources/DB.BMP,resources/DG.BMP,Door2,-0.430740038,0.090132827,1,0,0,0.516,optionLeft,20,3490,2,23,0,23,0,1,,,,,,,,,,,,,,,,,,,,,,,,,,,,,,,,,,,,,,,
,,,,,,,,2023-08-16_08h46.48.194,HF_wild_card,2022.2.4,Win32,60.0240096,6266d1937cec5e7a57883e76,64d2fd46c836a06233681665,64dc7e79a21d25c05cb512ad,,,,,,,ctch,resources/DB.BMP,resources/DY.BMP,Door3,0.24857685,-0.006641366,1,0,0,0.377,optionRight,70,3560,2,24,0,24,0,1,,,,,,,,,,,,,,,,,,,,,,,,,,,,,,,,,,,,,,,
,,,,,,,,2023-08-16_08h46.48.194,HF_wild_card,2022.2.4,Win32,60.0240096,6266d1937cec5e7a57883e76,64d2fd46c836a06233681665,64dc7e79a21d25c05cb512ad,,,,,,,sngl,resources/Empty.png,resources/DY.BMP,Door3,0.267552182,-0.014231499,1,0,0,0.646,optionRight,70,3630,2,25,0,25,0,1,,,,,,,,,,,,,,,,,,,,,,,,,,,,,,,,,,,,,,,
,,,,,,,,2023-08-16_08h46.48.194,HF_wild_card,2022.2.4,Win32,60.0240096,6266d1937cec5e7a57883e76,64d2fd46c836a06233681665,64dc7e79a21d25c05cb512ad,,,,,,,sngl,resources/DY.BMP,resources/Empty.png,Door3,-0.320683112,0.012333966,1,0,0,0.46,optionLeft,70,3700,2,26,0,26,0,1,,,,,,,,,,,,,,,,,,,,,,,,,,,,,,,,,,,,,,,
,,,,,,,,2023-08-16_08h46.48.194,HF_wild_card,2022.2.4,Win32,60.0240096,6266d1937cec5e7a57883e76,64d2fd46c836a06233681665,64dc7e79a21d25c05cb512ad,,,,,,,sngl,resources/Empty.png,resources/DR.BMP,Door4,0.282732448,0.014231499,1,0,0,0.459,optionRight,80,3780,2,27,0,27,0,1,,,,,,,,,,,,,,,,,,,,,,,,,,,,,,,,,,,,,,,
,,,,,,,,2023-08-16_08h46.48.194,HF_wild_card,2022.2.4,Win32,60.0240096,6266d1937cec5e7a57883e76,64d2fd46c836a06233681665,64dc7e79a21d25c05cb512ad,,,,,,,decisionTrl,resources/DY.BMP,resources/DBN.BMP,Door3,-0.252371917,0.019924099,1,0,0,0.592,optionLeft,70,3850,2,28,0,28,0,1,,,,,,,,,,,,,,,,,,,,,,,,,,,,,,,,,,,,,,,
,,,,,,,,2023-08-16_08h46.48.194,HF_wild_card,2022.2.4,Win32,60.0240096,6266d1937cec5e7a57883e76,64d2fd46c836a06233681665,64dc7e79a21d25c05cb512ad,,,,,,,decisionTrl,resources/DY.BMP,resources/DR.BMP,Door4,0.311195446,0.012333966,1,0,0,1.045,optionRight,80,3930,2,29,0,29,0,1,,,,,,,,,,,,,,,,,,,,,,,,,,,,,,,,,,,,,,,
,,,,,,,,2023-08-16_08h46.48.194,HF_wild_card,2022.2.4,Win32,60.0240096,6266d1937cec5e7a57883e76,64d2fd46c836a06233681665,64dc7e79a21d25c05cb512ad,,,,,,,sngl,resources/Empty.png,resources/DBN.BMP,WildCard_Ex,0.191650854,0.046489564,1,0,0,0.876,optionRight,95,4025,2,30,0,30,0,1,,,,,,,,,,,,,,,,,,,,,,,,,,,,,,,,,,,,,,,
,,,,,,,,2023-08-16_08h46.48.194,HF_wild_card,2022.2.4,Win32,60.0240096,6266d1937cec5e7a57883e76,64d2fd46c836a06233681665,64dc7e79a21d25c05cb512ad,,,,,,,decisionTrl,resources/DG.BMP,resources/DB.BMP,Door2,0.184060721,0.023719165,1,0,0,0.894,optionRight,20,4045,2,31,0,31,0,1,,,,,,,,,,,,,,,,,,,,,,,,,,,,,,,,,,,,,,,
,,,,,,,,2023-08-16_08h46.48.194,HF_wild_card,2022.2.4,Win32,60.0240096,6266d1937cec5e7a57883e76,64d2fd46c836a06233681665,64dc7e79a21d25c05cb512ad,,,,,,,sngl,resources/DG.BMP,resources/Empty.png,Door1,-0.252371917,-0.014231499,1,0,0,0.776,optionLeft,30,4075,2,32,0,32,0,1,,,,,,,,,,,,,,,,,,,,,,,,,,,,,,,,,,,,,,,
,,,,,,,,2023-08-16_08h46.48.194,HF_wild_card,2022.2.4,Win32,60.0240096,6266d1937cec5e7a57883e76,64d2fd46c836a06233681665,64dc7e79a21d25c05cb512ad,,,,,,,sngl,resources/DBN.BMP,resources/Empty.png,WildCard_Ex,-0.261859583,-0.014231499,1,0,0,0.396,optionLeft,95,4170,2,33,0,33,0,1,,,,,,,,,,,,,,,,,,,,,,,,,,,,,,,,,,,,,,,
,,,,,,,,2023-08-16_08h46.48.194,HF_wild_card,2022.2.4,Win32,60.0240096,6266d1937cec5e7a57883e76,64d2fd46c836a06233681665,64dc7e79a21d25c05cb512ad,,,,,,,decisionTrl,resources/DBN.BMP,resources/DG.BMP,Door1,0.168880455,0.035104364,1,0,0,0.696,optionRight,30,4200,2,34,0,34,0,1,,,,,,,,,,,,,,,,,,,,,,,,,,,,,,,,,,,,,,,
,,,,,,,,2023-08-16_08h46.48.194,HF_wild_card,2022.2.4,Win32,60.0240096,6266d1937cec5e7a57883e76,64d2fd46c836a06233681665,64dc7e79a21d25c05cb512ad,,,,,,,decisionTrl,resources/DR.BMP,resources/DY.BMP,Door4,-0.284629981,0.006641366,1,0,0,0.313,optionLeft,80,4280,2,35,0,35,0,1,,,,,,,,,,,,,,,,,,,,,,,,,,,,,,,,,,,,,,,
,,,,,,,,2023-08-16_08h46.48.194,HF_wild_card,2022.2.4,Win32,60.0240096,6266d1937cec5e7a57883e76,64d2fd46c836a06233681665,64dc7e79a21d25c05cb512ad,,,,,,,decisionTrl,resources/DBN.BMP,resources/DR.BMP,WildCard_Ex,-0.303605313,0.006641366,1,0,0,0.393,optionLeft,5,4285,2,36,0,36,0,1,,,,,,,,,,,,,,,,,,,,,,,,,,,,,,,,,,,,,,,
,,,,,,,,2023-08-16_08h46.48.194,HF_wild_card,2022.2.4,Win32,60.0240096,6266d1937cec5e7a57883e76,64d2fd46c836a06233681665,64dc7e79a21d25c05cb512ad,,,,,,,ctch,resources/DY.BMP,resources/DB.BMP,Door2,0.19544592,0.008538899,1,0,0,0.311,optionRight,40,4325,2,37,0,37,0,1,,,,,,,,,,,,,,,,,,,,,,,,,,,,,,,,,,,,,,,
,,,,,,,,2023-08-16_08h46.48.194,HF_wild_card,2022.2.4,Win32,60.0240096,6266d1937cec5e7a57883e76,64d2fd46c836a06233681665,64dc7e79a21d25c05cb512ad,,,,,,,decisionTrl,resources/DG.BMP,resources/DB.BMP,Door1,-0.165085389,0.004743833,1,0,0,0.41,optionLeft,30,4355,2,38,0,38,0,1,,,,,,,,,,,,,,,,,,,,,,,,,,,,,,,,,,,,,,,
,,,,,,,,2023-08-16_08h46.48.194,HF_wild_card,2022.2.4,Win32,60.0240096,6266d1937cec5e7a57883e76,64d2fd46c836a06233681665,64dc7e79a21d25c05cb512ad,,,,,,,decisionTrl,resources/DB.BMP,resources/DG.BMP,Door1,0.244781784,0.04459203,1,0,0,0.413,optionRight,30,4385,2,39,0,39,0,1,,,,,,,,,,,,,,,,,,,,,,,,,,,,,,,,,,,,,,,
,,,,,,,,2023-08-16_08h46.48.194,HF_wild_card,2022.2.4,Win32,60.0240096,6266d1937cec5e7a57883e76,64d2fd46c836a06233681665,64dc7e79a21d25c05cb512ad,,,,,,,sngl,resources/DR.BMP,resources/Empty.png,Door4,-0.430740038,0.033206831,1,0,0,0.613,optionLeft,60,4445,2,40,0,40,0,1,,,,,,,,,,,,,,,,,,,,,,,,,,,,,,,,,,,,,,,
,,,,,,,,2023-08-16_08h46.48.194,HF_wild_card,2022.2.4,Win32,60.0240096,6266d1937cec5e7a57883e76,64d2fd46c836a06233681665,64dc7e79a21d25c05cb512ad,,,,,,,decisionTrl,resources/DG.BMP,resources/DB.BMP,Door1,-0.275142315,-0.016129032,1,0,0,0.426,optionLeft,30,4475,2,41,0,41,0,1,,,,,,,,,,,,,,,,,,,,,,,,,,,,,,,,,,,,,,,
,,,,,,,,2023-08-16_08h46.48.194,HF_wild_card,2022.2.4,Win32,60.0240096,6266d1937cec5e7a57883e76,64d2fd46c836a06233681665,64dc7e79a21d25c05cb512ad,,,,,,,ctch,resources/DR.BMP,resources/DG.BMP,Door1,0.108159393,0.016129032,1,0,0,0.328,optionRight,30,4505,2,42,0,42,0,1,,,,,,,,,,,,,,,,,,,,,,,,,,,,,,,,,,,,,,,
,,,,,,,,2023-08-16_08h46.48.194,HF_wild_card,2022.2.4,Win32,60.0240096,6266d1937cec5e7a57883e76,64d2fd46c836a06233681665,64dc7e79a21d25c05cb512ad,,,,,,,decisionTrl,resources/DG.BMP,resources/DB.BMP,Door1,-0.609108159,-0.031309298,1,0,0,4.58,optionLeft,30,4535,2,43,0,43,0,1,,,,,,,,,,,,,,,,,,,,,,,,,,,,,,,,,,,,,,,
,,,,,,,,2023-08-16_08h46.48.194,HF_wild_card,2022.2.4,Win32,60.0240096,6266d1937cec5e7a57883e76,64d2fd46c836a06233681665,64dc7e79a21d25c05cb512ad,,,,,,,,,,,,,,,,,,,,,,,,,,1,0,1,0,1,,,,,,,,,,,,,,,,,,,,,,,,,,,,,,,,,,
,,,,,,,,2023-08-16_08h46.48.194,HF_wild_card,2022.2.4,Win32,60.0240096,6266d1937cec5e7a57883e76,64d2fd46c836a06233681665,64dc7e79a21d25c05cb512ad,,,,,,,ctch,resources/DY.BMP,resources/DB.BMP,Door2,0.265654649,-0.054079696,1,0,0,0.924,optionRight,20,4555,3,0,0,0,0,1,,,,,,,,,,,,,,,,,,,,,,,,,,,,,,,,,,,,,,,
,,,,,,,,2023-08-16_08h46.48.194,HF_wild_card,2022.2.4,Win32,60.0240096,6266d1937cec5e7a57883e76,64d2fd46c836a06233681665,64dc7e79a21d25c05cb512ad,,,,,,,ctch,resources/DR.BMP,resources/DG.BMP,Door4,-0.246679317,-0.000948767,1,0,0,0.328,optionLeft,80,4635,3,1,0,1,0,1,,,,,,,,,,,,,,,,,,,,,,,,,,,,,,,,,,,,,,,
,,,,,,,,2023-08-16_08h46.48.194,HF_wild_card,2022.2.4,Win32,60.0240096,6266d1937cec5e7a57883e76,64d2fd46c836a06233681665,64dc7e79a21d25c05cb512ad,,,,,,,sngl,resources/Empty.png,resources/DR.BMP,Door4,0.104364326,-0.006641366,1,0,0,1.129,optionRight,60,4695,3,2,0,2,0,1,,,,,,,,,,,,,,,,,,,,,,,,,,,,,,,,,,,,,,,
,,,,,,,,2023-08-16_08h46.48.194,HF_wild_card,2022.2.4,Win32,60.0240096,6266d1937cec5e7a57883e76,64d2fd46c836a06233681665,64dc7e79a21d25c05cb512ad,,,,,,,ctch,resources/DY.BMP,resources/DB.BMP,Door3,-0.316888046,-0.027514231,1,0,0,0.462,optionLeft,70,4765,3,3,0,3,0,1,,,,,,,,,,,,,,,,,,,,,,,,,,,,,,,,,,,,,,,
,,,,,,,,2023-08-16_08h46.48.194,HF_wild_card,2022.2.4,Win32,60.0240096,6266d1937cec5e7a57883e76,64d2fd46c836a06233681665,64dc7e79a21d25c05cb512ad,,,,,,,decisionTrl,resources/DY.BMP,resources/DR.BMP,Door4,0.20683112,0.037001898,1,0,0,1.012,optionRight,60,4825,3,4,0,4,0,1,,,,,,,,,,,,,,,,,,,,,,,,,,,,,,,,,,,,,,,
,,,,,,,,2023-08-16_08h46.48.194,HF_wild_card,2022.2.4,Win32,60.0240096,6266d1937cec5e7a57883e76,64d2fd46c836a06233681665,64dc7e79a21d25c05cb512ad,,,,,,,decisionTrl,resources/DB.BMP,resources/DBN.BMP,Door2,-0.35483871,0.004743833,1,0,0,0.562,optionLeft,20,4845,3,5,0,5,0,1,,,,,,,,,,,,,,,,,,,,,,,,,,,,,,,,,,,,,,,
,,,,,,,,2023-08-16_08h46.48.194,HF_wild_card,2022.2.4,Win32,60.0240096,6266d1937cec5e7a57883e76,64d2fd46c836a06233681665,64dc7e79a21d25c05cb512ad,,,,,,,decisionTrl,resources/DBN.BMP,resources/DR.BMP,Door4,0.184060721,0.037001898,1,0,0,0.379,optionRight,60,4905,3,6,0,6,0,1,,,,,,,,,,,,,,,,,,,,,,,,,,,,,,,,,,,,,,,
,,,,,,,,2023-08-16_08h46.48.194,HF_wild_card,2022.2.4,Win32,60.0240096,6266d1937cec5e7a57883e76,64d2fd46c836a06233681665,64dc7e79a21d25c05cb512ad,,,,,,,decisionTrl,resources/DR.BMP,resources/DY.BMP,Door4,-0.231499051,0.031309298,1,0,0,0.947,optionLeft,60,4965,3,7,0,7,0,1,,,,,,,,,,,,,,,,,,,,,,,,,,,,,,,,,,,,,,,
,,,,,,,,2023-08-16_08h46.48.194,HF_wild_card,2022.2.4,Win32,60.0240096,6266d1937cec5e7a57883e76,64d2fd46c836a06233681665,64dc7e79a21d25c05cb512ad,,,,,,,sngl,resources/DR.BMP,resources/Empty.png,Door4,-0.377609108,-0.010436433,1,0,0,2.765,optionLeft,80,5045,3,8,0,8,0,1,,,,,,,,,,,,,,,,,,,,,,,,,,,,,,,,,,,,,,,
,,,,,,,,2023-08-16_08h46.48.194,HF_wild_card,2022.2.4,Win32,60.0240096,6266d1937cec5e7a57883e76,64d2fd46c836a06233681665,64dc7e79a21d25c05cb512ad,,,,,,,decisionTrl,resources/DB.BMP,resources/DG.BMP,Door2,-0.34914611,0.008538899,1,0,0,0.893,optionLeft,40,5085,3,9,0,9,0,1,,,,,,,,,,,,,,,,,,,,,,,,,,,,,,,,,,,,,,,
,,,,,,,,2023-08-16_08h46.48.194,HF_wild_card,2022.2.4,Win32,60.0240096,6266d1937cec5e7a57883e76,64d2fd46c836a06233681665,64dc7e79a21d25c05cb512ad,,,,,,,decisionTrl,resources/DB.BMP,resources/DG.BMP,Door2,-0.24857685,-0.048387097,1,0,0,0.878,optionLeft,40,5125,3,10,0,10,0,1,,,,,,,,,,,,,,,,,,,,,,,,,,,,,,,,,,,,,,,
,,,,,,,,2023-08-16_08h46.48.194,HF_wild_card,2022.2.4,Win32,60.0240096,6266d1937cec5e7a57883e76,64d2fd46c836a06233681665,64dc7e79a21d25c05cb512ad,,,,,,,sngl,resources/Empty.png,resources/DG.BMP,Door1,0.275142315,0.018026565,1,0,0,0.909,optionRight,30,5155,3,11,0,11,0,1,,,,,,,,,,,,,,,,,,,,,,,,,,,,,,,,,,,,,,,
,,,,,,,,2023-08-16_08h46.48.194,HF_wild_card,2022.2.4,Win32,60.0240096,6266d1937cec5e7a57883e76,64d2fd46c836a06233681665,64dc7e79a21d25c05cb512ad,,,,,,,decisionTrl,resources/DG.BMP,resources/DB.BMP,Door1,-0.29601518,-0.054079696,1,0,0,1.112,optionLeft,30,5185,3,12,0,12,0,1,,,,,,,,,,,,,,,,,,,,,,,,,,,,,,,,,,,,,,,
,,,,,,,,2023-08-16_08h46.48.194,HF_wild_card,2022.2.4,Win32,60.0240096,6266d1937cec5e7a57883e76,64d2fd46c836a06233681665,64dc7e79a21d25c05cb512ad,,,,,,,decisionTrl,resources/DBN.BMP,resources/DG.BMP,Door1,0.178368121,0.006641366,1,0,0,0.38,optionRight,30,5215,3,13,0,13,0,1,,,,,,,,,,,,,,,,,,,,,,,,,,,,,,,,,,,,,,,
,,,,,,,,2023-08-16_08h46.48.194,HF_wild_card,2022.2.4,Win32,60.0240096,6266d1937cec5e7a57883e76,64d2fd46c836a06233681665,64dc7e79a21d25c05cb512ad,,,,,,,sngl,resources/DB.BMP,resources/Empty.png,Door2,-0.387096774,0.04459203,1,0,0,0.38,optionLeft,40,5255,3,14,0,14,0,1,,,,,,,,,,,,,,,,,,,,,,,,,,,,,,,,,,,,,,,
,,,,,,,,2023-08-16_08h46.48.194,HF_wild_card,2022.2.4,Win32,60.0240096,6266d1937cec5e7a57883e76,64d2fd46c836a06233681665,64dc7e79a21d25c05cb512ad,,,,,,,ctch,resources/DG.BMP,resources/DR.BMP,Door4,0.244781784,0.000948767,1,0,0,0.628,optionRight,60,5315,3,15,0,15,0,1,,,,,,,,,,,,,,,,,,,,,,,,,,,,,,,,,,,,,,,
,,,,,,,,2023-08-16_08h46.48.194,HF_wild_card,2022.2.4,Win32,60.0240096,6266d1937cec5e7a57883e76,64d2fd46c836a06233681665,64dc7e79a21d25c05cb512ad,,,,,,,sngl,resources/Empty.png,resources/DBN.BMP,WildCard_Ex,0.250474383,-0.0028463,1,0,0,0.46,optionRight,95,5410,3,16,0,16,0,1,,,,,,,,,,,,,,,,,,,,,,,,,,,,,,,,,,,,,,,
,,,,,,,,2023-08-16_08h46.48.194,HF_wild_card,2022.2.4,Win32,60.0240096,6266d1937cec5e7a57883e76,64d2fd46c836a06233681665,64dc7e79a21d25c05cb512ad,,,,,,,decisionTrl,resources/DG.BMP,resources/DB.BMP,Door1,-0.265654649,0.016129032,1,0,0,0.444,optionLeft,30,5440,3,17,0,17,0,1,,,,,,,,,,,,,,,,,,,,,,,,,,,,,,,,,,,,,,,
,,,,,,,,2023-08-16_08h46.48.194,HF_wild_card,2022.2.4,Win32,60.0240096,6266d1937cec5e7a57883e76,64d2fd46c836a06233681665,64dc7e79a21d25c05cb512ad,,,,,,,ctch,resources/DR.BMP,resources/DG.BMP,Door4,-0.259962049,0.010436433,1,0,0,10.677,optionLeft,60,5500,3,18,0,18,0,1,,,,,,,,,,,,,,,,,,,,,,,,,,,,,,,,,,,,,,,
,,,,,,,,2023-08-16_08h46.48.194,HF_wild_card,2022.2.4,Win32,60.0240096,6266d1937cec5e7a57883e76,64d2fd46c836a06233681665,64dc7e79a21d25c05cb512ad,,,,,,,decisionTrl,resources/DR.BMP,resources/DBN.BMP,WildCard_Ex,0.096774194,0.018026565,1,0,0,0.76,optionRight,95,5595,3,19,0,19,0,1,,,,,,,,,,,,,,,,,,,,,,,,,,,,,,,,,,,,,,,
,,,,,,,,2023-08-16_08h46.48.194,HF_wild_card,2022.2.4,Win32,60.0240096,6266d1937cec5e7a57883e76,64d2fd46c836a06233681665,64dc7e79a21d25c05cb512ad,,,,,,,sngl,resources/DG.BMP,resources/Empty.png,Door1,-0.305502846,0.018026565,1,0,0,0.361,optionLeft,30,5625,3,20,0,20,0,1,,,,,,,,,,,,,,,,,,,,,,,,,,,,,,,,,,,,,,,
,,,,,,,,2023-08-16_08h46.48.194,HF_wild_card,2022.2.4,Win32,60.0240096,6266d1937cec5e7a57883e76,64d2fd46c836a06233681665,64dc7e79a21d25c05cb512ad,,,,,,,decisionTrl,resources/DR.BMP,resources/DY.BMP,Door3,0.19544592,-0.0028463,1,0,0,0.314,optionRight,70,5695,3,21,0,21,0,1,,,,,,,,,,,,,,,,,,,,,,,,,,,,,,,,,,,,,,,
,,,,,,,,2023-08-16_08h46.48.194,HF_wild_card,2022.2.4,Win32,60.0240096,6266d1937cec5e7a57883e76,64d2fd46c836a06233681665,64dc7e79a21d25c05cb512ad,,,,,,,decisionTrl,resources/DY.BMP,resources/DR.BMP,Door3,-0.176470588,-0.0028463,1,0,0,0.447,optionLeft,70,5765,3,22,0,22,0,1,,,,,,,,,,,,,,,,,,,,,,,,,,,,,,,,,,,,,,,
,,,,,,,,2023-08-16_08h46.48.194,HF_wild_card,2022.2.4,Win32,60.0240096,6266d1937cec5e7a57883e76,64d2fd46c836a06233681665,64dc7e79a21d25c05cb512ad,,,,,,,sngl,resources/Empty.png,resources/DY.BMP,Door3,0.166982922,-0.008538899,1,0,0,0.614,optionRight,70,5835,3,23,0,23,0,1,,,,,,,,,,,,,,,,,,,,,,,,,,,,,,,,,,,,,,,
,,,,,,,,2023-08-16_08h46.48.194,HF_wild_card,2022.2.4,Win32,60.0240096,6266d1937cec5e7a57883e76,64d2fd46c836a06233681665,64dc7e79a21d25c05cb512ad,,,,,,,ctch,resources/DB.BMP,resources/DY.BMP,Door2,-0.512333966,-0.023719165,1,0,0,0.547,optionLeft,40,5875,3,24,0,24,0,1,,,,,,,,,,,,,,,,,,,,,,,,,,,,,,,,,,,,,,,
,,,,,,,,2023-08-16_08h46.48.194,HF_wild_card,2022.2.4,Win32,60.0240096,6266d1937cec5e7a57883e76,64d2fd46c836a06233681665,64dc7e79a21d25c05cb512ad,,,,,,,decisionTrl,resources/DG.BMP,resources/DBN.BMP,Door1,-0.313092979,0.018026565,1,0,0,0.447,optionLeft,30,5905,3,25,0,25,0,1,,,,,,,,,,,,,,,,,,,,,,,,,,,,,,,,,,,,,,,
,,,,,,,,2023-08-16_08h46.48.194,HF_wild_card,2022.2.4,Win32,60.0240096,6266d1937cec5e7a57883e76,64d2fd46c836a06233681665,64dc7e79a21d25c05cb512ad,,,,,,,decisionTrl,resources/DY.BMP,resources/DBN.BMP,Door3,-0.430740038,0.029411765,1,0,0,0.397,optionLeft,70,5975,3,26,0,26,0,1,,,,,,,,,,,,,,,,,,,,,,,,,,,,,,,,,,,,,,,
,,,,,,,,2023-08-16_08h46.48.194,HF_wild_card,2022.2.4,Win32,60.0240096,6266d1937cec5e7a57883e76,64d2fd46c836a06233681665,64dc7e79a21d25c05cb512ad,,,,,,,sngl,resources/DBN.BMP,resources/Empty.png,WildCard_Ex,-0.45540797,0.067362429,1,0,0,0.297,optionLeft,95,6070,3,27,0,27,0,1,,,,,,,,,,,,,,,,,,,,,,,,,,,,,,,,,,,,,,,
,,,,,,,,2023-08-16_08h46.48.194,HF_wild_card,2022.2.4,Win32,60.0240096,6266d1937cec5e7a57883e76,64d2fd46c836a06233681665,64dc7e79a21d25c05cb512ad,,,,,,,decisionTrl,resources/DR.BMP,resources/DY.BMP,Door4,-0.231499051,0.033206831,1,0,0,0.33,optionLeft,60,6130,3,28,0,28,0,1,,,,,,,,,,,,,,,,,,,,,,,,,,,,,,,,,,,,,,,
,,,,,,,,2023-08-16_08h46.48.194,HF_wild_card,2022.2.4,Win32,60.0240096,6266d1937cec5e7a57883e76,64d2fd46c836a06233681665,64dc7e79a21d25c05cb512ad,,,,,,,decisionTrl,resources/DY.BMP,resources/DR.BMP,Door3,-0.375711575,0.112903226,1,0,0,0.296,optionLeft,70,6200,3,29,0,29,0,1,,,,,,,,,,,,,,,,,,,,,,,,,,,,,,,,,,,,,,,
,,,,,,,,2023-08-16_08h46.48.194,HF_wild_card,2022.2.4,Win32,60.0240096,6266d1937cec5e7a57883e76,64d2fd46c836a06233681665,64dc7e79a21d25c05cb512ad,,,,,,,decisionTrl,resources/DB.BMP,resources/DG.BMP,Door2,-0.335863378,-0.027514231,1,0,0,0.513,optionLeft,20,6220,3,30,0,30,0,1,,,,,,,,,,,,,,,,,,,,,,,,,,,,,,,,,,,,,,,
,,,,,,,,2023-08-16_08h46.48.194,HF_wild_card,2022.2.4,Win32,60.0240096,6266d1937cec5e7a57883e76,64d2fd46c836a06233681665,64dc7e79a21d25c05cb512ad,,,,,,,decisionTrl,resources/DG.BMP,resources/DB.BMP,Door1,-0.30740038,0.016129032,1,0,0,0.347,optionLeft,30,6250,3,31,0,31,0,1,,,,,,,,,,,,,,,,,,,,,,,,,,,,,,,,,,,,,,,
,,,,,,,,2023-08-16_08h46.48.194,HF_wild_card,2022.2.4,Win32,60.0240096,6266d1937cec5e7a57883e76,64d2fd46c836a06233681665,64dc7e79a21d25c05cb512ad,,,,,,,decisionTrl,resources/DBN.BMP,resources/DY.BMP,Door3,0.144212524,0.006641366,1,0,0,0.397,optionRight,70,6320,3,32,0,32,0,1,,,,,,,,,,,,,,,,,,,,,,,,,,,,,,,,,,,,,,,
,,,,,,,,2023-08-16_08h46.48.194,HF_wild_card,2022.2.4,Win32,60.0240096,6266d1937cec5e7a57883e76,64d2fd46c836a06233681665,64dc7e79a21d25c05cb512ad,,,,,,,sngl,resources/DY.BMP,resources/Empty.png,Door3,-0.161290323,-0.029411765,1,0,0,0.758,optionLeft,70,6390,3,33,0,33,0,1,,,,,,,,,,,,,,,,,,,,,,,,,,,,,,,,,,,,,,,
,,,,,,,,2023-08-16_08h46.48.194,HF_wild_card,2022.2.4,Win32,60.0240096,6266d1937cec5e7a57883e76,64d2fd46c836a06233681665,64dc7e79a21d25c05cb512ad,,,,,,,decisionTrl,resources/DR.BMP,resources/DY.BMP,Door3,0.185958254,0.004743833,1,0,0,0.607,optionRight,70,6460,3,34,0,34,0,1,,,,,,,,,,,,,,,,,,,,,,,,,,,,,,,,,,,,,,,
,,,,,,,,2023-08-16_08h46.48.194,HF_wild_card,2022.2.4,Win32,60.0240096,6266d1937cec5e7a57883e76,64d2fd46c836a06233681665,64dc7e79a21d25c05cb512ad,,,,,,,sngl,resources/DBN.BMP,resources/Empty.png,WildCard_Ex,-0.364326376,-0.109108159,1,0,0,0.497,optionLeft,5,6465,3,35,0,35,0,1,,,,,,,,,,,,,,,,,,,,,,,,,,,,,,,,,,,,,,,
,,,,,,,,2023-08-16_08h46.48.194,HF_wild_card,2022.2.4,Win32,60.0240096,6266d1937cec5e7a57883e76,64d2fd46c836a06233681665,64dc7e79a21d25c05cb512ad,,,,,,,sngl,resources/Empty.png,resources/DB.BMP,Door2,0.328273245,0.016129032,1,0,0,0.447,optionRight,20,6485,3,36,0,36,0,1,,,,,,,,,,,,,,,,,,,,,,,,,,,,,,,,,,,,,,,
,,,,,,,,2023-08-16_08h46.48.194,HF_wild_card,2022.2.4,Win32,60.0240096,6266d1937cec5e7a57883e76,64d2fd46c836a06233681665,64dc7e79a21d25c05cb512ad,,,,,,,ctch,resources/DB.BMP,resources/DY.BMP,Door2,-0.180265655,-0.018026565,1,0,0,0.327,optionLeft,20,6505,3,37,0,37,0,1,,,,,,,,,,,,,,,,,,,,,,,,,,,,,,,,,,,,,,,
,,,,,,,,2023-08-16_08h46.48.194,HF_wild_card,2022.2.4,Win32,60.0240096,6266d1937cec5e7a57883e76,64d2fd46c836a06233681665,64dc7e79a21d25c05cb512ad,,,,,,,sngl,resources/Empty.png,resources/DBN.BMP,WildCard_Ex,0.44402277,-0.027514231,1,0,0,0.612,optionRight,5,6510,3,38,0,38,0,1,,,,,,,,,,,,,,,,,,,,,,,,,,,,,,,,,,,,,,,
,,,,,,,,2023-08-16_08h46.48.194,HF_wild_card,2022.2.4,Win32,60.0240096,6266d1937cec5e7a57883e76,64d2fd46c836a06233681665,64dc7e79a21d25c05cb512ad,,,,,,,decisionTrl,resources/DG.BMP,resources/DB.BMP,Door1,-0.297912713,-0.033206831,1,0,0,0.543,optionLeft,30,6540,3,39,0,39,0,1,,,,,,,,,,,,,,,,,,,,,,,,,,,,,,,,,,,,,,,
,,,,,,,,2023-08-16_08h46.48.194,HF_wild_card,2022.2.4,Win32,60.0240096,6266d1937cec5e7a57883e76,64d2fd46c836a06233681665,64dc7e79a21d25c05cb512ad,,,,,,,decisionTrl,resources/DB.BMP,resources/DG.BMP,Door1,0.476280835,-0.027514231,1,0,0,0.33,optionRight,30,6570,3,40,0,40,0,1,,,,,,,,,,,,,,,,,,,,,,,,,,,,,,,,,,,,,,,
,,,,,,,,2023-08-16_08h46.48.194,HF_wild_card,2022.2.4,Win32,60.0240096,6266d1937cec5e7a57883e76,64d2fd46c836a06233681665,64dc7e79a21d25c05cb512ad,,,,,,,decisionTrl,resources/DY.BMP,resources/DR.BMP,Door3,-0.163187856,-0.008538899,1,0,0,0.312,optionLeft,70,6640,3,41,0,41,0,1,,,,,,,,,,,,,,,,,,,,,,,,,,,,,,,,,,,,,,,
,,,,,,,,2023-08-16_08h46.48.194,HF_wild_card,2022.2.4,Win32,60.0240096,6266d1937cec5e7a57883e76,64d2fd46c836a06233681665,64dc7e79a21d25c05cb512ad,,,,,,,decisionTrl,resources/DBN.BMP,resources/DB.BMP,WildCard_Ex,-0.40227704,0.021821632,1,0,0,0.88,optionLeft,95,6735,3,42,0,42,0,1,,,,,,,,,,,,,,,,,,,,,,,,,,,,,,,,,,,,,,,
,,,,,,,,2023-08-16_08h46.48.194,HF_wild_card,2022.2.4,Win32,60.0240096,6266d1937cec5e7a57883e76,64d2fd46c836a06233681665,64dc7e79a21d25c05cb512ad,,,,,,,ctch,resources/DG.BMP,resources/DR.BMP,Door1,-0.409867173,0.122390892,1,0,0,0.347,optionLeft,30,6765,3,43,0,43,0,1,,,,,,,,,,,,,,,,,,,,,,,,,,,,,,,,,,,,,,,
,,,,,,,,2023-08-16_08h46.48.194,HF_wild_card,2022.2.4,Win32,60.0240096,6266d1937cec5e7a57883e76,64d2fd46c836a06233681665,64dc7e79a21d25c05cb512ad,,,,,,,,,,,,,,,,,,,,,,,,,,2,0,2,0,1,,,,,,,,,,,,,,,,,,,,,,,,,,,,,,,,,,
,,,,,,,,2023-08-16_08h46.48.194,HF_wild_card,2022.2.4,Win32,60.0240096,6266d1937cec5e7a57883e76,64d2fd46c836a06233681665,64dc7e79a21d25c05cb512ad,,,,,,,sngl,resources/DP.BMP,resources/Empty.png,WildCard_NonEx,-0.277039848,-0.040796964,1,0,0,0.557,optionLeft,55,6820,4,0,0,0,0,1,,,,,,,,,,,,,,,,,,,,,,,,,,,,,,,,,,,,,,,
,,,,,,,,2023-08-16_08h46.48.194,HF_wild_card,2022.2.4,Win32,60.0240096,6266d1937cec5e7a57883e76,64d2fd46c836a06233681665,64dc7e79a21d25c05cb512ad,,,,,,,sngl,resources/DR.BMP,resources/Empty.png,Door4,-0.235294118,0.040796964,1,0,0,0.412,optionLeft,60,6880,4,1,0,1,0,1,,,,,,,,,,,,,,,,,,,,,,,,,,,,,,,,,,,,,,,
,,,,,,,,2023-08-16_08h46.48.194,HF_wild_card,2022.2.4,Win32,60.0240096,6266d1937cec5e7a57883e76,64d2fd46c836a06233681665,64dc7e79a21d25c05cb512ad,,,,,,,decisionTrl,resources/DY.BMP,resources/DR.BMP,Door4,0.267552182,0.04459203,1,0,0,0.63,optionRight,80,6960,4,2,0,2,0,1,,,,,,,,,,,,,,,,,,,,,,,,,,,,,,,,,,,,,,,
,,,,,,,,2023-08-16_08h46.48.194,HF_wild_card,2022.2.4,Win32,60.0240096,6266d1937cec5e7a57883e76,64d2fd46c836a06233681665,64dc7e79a21d25c05cb512ad,,,,,,,ctch,resources/DY.BMP,resources/DB.BMP,Door2,0.261859583,0.046489564,1,0,0,0.415,optionRight,40,7000,4,3,0,3,0,1,,,,,,,,,,,,,,,,,,,,,,,,,,,,,,,,,,,,,,,
,,,,,,,,2023-08-16_08h46.48.194,HF_wild_card,2022.2.4,Win32,60.0240096,6266d1937cec5e7a57883e76,64d2fd46c836a06233681665,64dc7e79a21d25c05cb512ad,,,,,,,sngl,resources/Empty.png,resources/DG.BMP,Door1,0.263757116,0.014231499,1,0,0,0.396,optionRight,30,7030,4,4,0,4,0,1,,,,,,,,,,,,,,,,,,,,,,,,,,,,,,,,,,,,,,,
,,,,,,,,2023-08-16_08h46.48.194,HF_wild_card,2022.2.4,Win32,60.0240096,6266d1937cec5e7a57883e76,64d2fd46c836a06233681665,64dc7e79a21d25c05cb512ad,,,,,,,decisionTrl,resources/DB.BMP,resources/DP.BMP,Door2,-0.292220114,-0.004743833,1,0,0,0.363,optionLeft,20,7050,4,5,0,5,0,1,,,,,,,,,,,,,,,,,,,,,,,,,,,,,,,,,,,,,,,
,,,,,,,,2023-08-16_08h46.48.194,HF_wild_card,2022.2.4,Win32,60.0240096,6266d1937cec5e7a57883e76,64d2fd46c836a06233681665,64dc7e79a21d25c05cb512ad,,,,,,,ctch,resources/DG.BMP,resources/DR.BMP,Door4,0.282732448,0.025616698,1,0,0,0.514,optionRight,60,7110,4,6,0,6,0,1,,,,,,,,,,,,,,,,,,,,,,,,,,,,,,,,,,,,,,,
,,,,,,,,2023-08-16_08h46.48.194,HF_wild_card,2022.2.4,Win32,60.0240096,6266d1937cec5e7a57883e76,64d2fd46c836a06233681665,64dc7e79a21d25c05cb512ad,,,,,,,decisionTrl,resources/DP.BMP,resources/DG.BMP,WildCard_NonEx,-0.244781784,0.008538899,1,0,0,0.508,optionLeft,45,7155,4,7,0,7,0,1,,,,,,,,,,,,,,,,,,,,,,,,,,,,,,,,,,,,,,,
,,,,,,,,2023-08-16_08h46.48.194,HF_wild_card,2022.2.4,Win32,60.0240096,6266d1937cec5e7a57883e76,64d2fd46c836a06233681665,64dc7e79a21d25c05cb512ad,,,,,,,decisionTrl,resources/DY.BMP,resources/DR.BMP,Door4,0.25426945,0.029411765,1,0,0,0.379,optionRight,60,7215,4,8,0,8,0,1,,,,,,,,,,,,,,,,,,,,,,,,,,,,,,,,,,,,,,,
,,,,,,,,2023-08-16_08h46.48.194,HF_wild_card,2022.2.4,Win32,60.0240096,6266d1937cec5e7a57883e76,64d2fd46c836a06233681665,64dc7e79a21d25c05cb512ad,,,,,,,decisionTrl,resources/DB.BMP,resources/DG.BMP,Door2,-0.538899431,0.019924099,1,0,0,0.362,optionLeft,40,7255,4,9,0,9,0,1,,,,,,,,,,,,,,,,,,,,,,,,,,,,,,,,,,,,,,,
,,,,,,,,2023-08-16_08h46.48.194,HF_wild_card,2022.2.4,Win32,60.0240096,6266d1937cec5e7a57883e76,64d2fd46c836a06233681665,64dc7e79a21d25c05cb512ad,,,,,,,sngl,resources/Empty.png,resources/DP.BMP,WildCard_NonEx,0.165085389,-0.000948767,1,0,0,0.377,optionRight,55,7310,4,10,0,10,0,1,,,,,,,,,,,,,,,,,,,,,,,,,,,,,,,,,,,,,,,
,,,,,,,,2023-08-16_08h46.48.194,HF_wild_card,2022.2.4,Win32,60.0240096,6266d1937cec5e7a57883e76,64d2fd46c836a06233681665,64dc7e79a21d25c05cb512ad,,,,,,,decisionTrl,resources/DY.BMP,resources/DR.BMP,Door3,-0.077798861,0.006641366,1,0,0,0.512,optionLeft,70,7380,4,11,0,11,0,1,,,,,,,,,,,,,,,,,,,,,,,,,,,,,,,,,,,,,,,
,,,,,,,,2023-08-16_08h46.48.194,HF_wild_card,2022.2.4,Win32,60.0240096,6266d1937cec5e7a57883e76,64d2fd46c836a06233681665,64dc7e79a21d25c05cb512ad,,,,,,,ctch,resources/DR.BMP,resources/DG.BMP,Door1,0.237191651,0.042694497,1,0,0,0.43,optionRight,30,7410,4,12,0,12,0,1,,,,,,,,,,,,,,,,,,,,,,,,,,,,,,,,,,,,,,,
,,,,,,,,2023-08-16_08h46.48.194,HF_wild_card,2022.2.4,Win32,60.0240096,6266d1937cec5e7a57883e76,64d2fd46c836a06233681665,64dc7e79a21d25c05cb512ad,,,,,,,sngl,resources/DG.BMP,resources/Empty.png,Door1,-0.294117647,0.006641366,1,0,0,0.33,optionLeft,30,7440,4,13,0,13,0,1,,,,,,,,,,,,,,,,,,,,,,,,,,,,,,,,,,,,,,,
,,,,,,,,2023-08-16_08h46.48.194,HF_wild_card,2022.2.4,Win32,60.0240096,6266d1937cec5e7a57883e76,64d2fd46c836a06233681665,64dc7e79a21d25c05cb512ad,,,,,,,sngl,resources/DB.BMP,resources/Empty.png,Door2,0.136622391,0.008538899,1,0,0,0.33,optionLeft,20,7460,4,14,0,14,0,1,,,,,,,,,,,,,,,,,,,,,,,,,,,,,,,,,,,,,,,
,,,,,,,,2023-08-16_08h46.48.194,HF_wild_card,2022.2.4,Win32,60.0240096,6266d1937cec5e7a57883e76,64d2fd46c836a06233681665,64dc7e79a21d25c05cb512ad,,,,,,,decisionTrl,resources/DG.BMP,resources/DB.BMP,Door1,-0.286527514,0.033206831,1,0,0,0.362,optionLeft,30,7490,4,15,0,15,0,1,,,,,,,,,,,,,,,,,,,,,,,,,,,,,,,,,,,,,,,
,,,,,,,,2023-08-16_08h46.48.194,HF_wild_card,2022.2.4,Win32,60.0240096,6266d1937cec5e7a57883e76,64d2fd46c836a06233681665,64dc7e79a21d25c05cb512ad,,,,,,,ctch,resources/DB.BMP,resources/DY.BMP,Door3,0.303605313,0.000948767,1,0,0,0.846,optionRight,70,7560,4,16,0,16,0,1,,,,,,,,,,,,,,,,,,,,,,,,,,,,,,,,,,,,,,,
,,,,,,,,2023-08-16_08h46.48.194,HF_wild_card,2022.2.4,Win32,60.0240096,6266d1937cec5e7a57883e76,64d2fd46c836a06233681665,64dc7e79a21d25c05cb512ad,,,,,,,ctch,resources/DY.BMP,resources/DB.BMP,Door3,-0.204933586,0.018026565,1,0,0,0.595,optionLeft,70,7630,4,17,0,17,0,1,,,,,,,,,,,,,,,,,,,,,,,,,,,,,,,,,,,,,,,
,,,,,,,,2023-08-16_08h46.48.194,HF_wild_card,2022.2.4,Win32,60.0240096,6266d1937cec5e7a57883e76,64d2fd46c836a06233681665,64dc7e79a21d25c05cb512ad,,,,,,,decisionTrl,resources/DY.BMP,resources/DR.BMP,Door3,-0.218216319,0.018026565,1,0,0,0.43,optionLeft,70,7700,4,18,0,18,0,1,,,,,,,,,,,,,,,,,,,,,,,,,,,,,,,,,,,,,,,
,,,,,,,,2023-08-16_08h46.48.194,HF_wild_card,2022.2.4,Win32,60.0240096,6266d1937cec5e7a57883e76,64d2fd46c836a06233681665,64dc7e79a21d25c05cb512ad,,,,,,,ctch,resources/DR.BMP,resources/DG.BMP,Door4,-0.277039848,-0.0028463,1,0,0,0.414,optionLeft,60,7760,4,19,0,19,0,1,,,,,,,,,,,,,,,,,,,,,,,,,,,,,,,,,,,,,,,
,,,,,,,,2023-08-16_08h46.48.194,HF_wild_card,2022.2.4,Win32,60.0240096,6266d1937cec5e7a57883e76,64d2fd46c836a06233681665,64dc7e79a21d25c05cb512ad,,,,,,,decisionTrl,resources/DP.BMP,resources/DR.BMP,Door4,0.258064516,0.031309298,1,0,0,0.91,optionRight,60,7820,4,20,0,20,0,1,,,,,,,,,,,,,,,,,,,,,,,,,,,,,,,,,,,,,,,
,,,,,,,,2023-08-16_08h46.48.194,HF_wild_card,2022.2.4,Win32,60.0240096,6266d1937cec5e7a57883e76,64d2fd46c836a06233681665,64dc7e79a21d25c05cb512ad,,,,,,,decisionTrl,resources/DG.BMP,resources/DB.BMP,Door1,-0.523719165,0.019924099,1,0,0,10.178,optionLeft,30,7850,4,21,0,21,0,1,,,,,,,,,,,,,,,,,,,,,,,,,,,,,,,,,,,,,,,
,,,,,,,,2023-08-16_08h46.48.194,HF_wild_card,2022.2.4,Win32,60.0240096,6266d1937cec5e7a57883e76,64d2fd46c836a06233681665,64dc7e79a21d25c05cb512ad,,,,,,,decisionTrl,resources/DG.BMP,resources/DP.BMP,Door1,-0.233396584,-0.037001898,1,0,0,0.708,optionLeft,30,7880,4,22,0,22,0,1,,,,,,,,,,,,,,,,,,,,,,,,,,,,,,,,,,,,,,,
,,,,,,,,2023-08-16_08h46.48.194,HF_wild_card,2022.2.4,Win32,60.0240096,6266d1937cec5e7a57883e76,64d2fd46c836a06233681665,64dc7e79a21d25c05cb512ad,,,,,,,decisionTrl,resources/DG.BMP,resources/DB.BMP,Door2,0.271347249,0.042694497,1,0,0,0.662,optionRight,20,7900,4,23,0,23,0,1,,,,,,,,,,,,,,,,,,,,,,,,,,,,,,,,,,,,,,,
,,,,,,,,2023-08-16_08h46.48.194,HF_wild_card,2022.2.4,Win32,60.0240096,6266d1937cec5e7a57883e76,64d2fd46c836a06233681665,64dc7e79a21d25c05cb512ad,,,,,,,decisionTrl,resources/DB.BMP,resources/DG.BMP,Door2,-0.259962049,0.004743833,1,0,0,0.412,optionLeft,20,7920,4,24,0,24,0,1,,,,,,,,,,,,,,,,,,,,,,,,,,,,,,,,,,,,,,,
,,,,,,,,2023-08-16_08h46.48.194,HF_wild_card,2022.2.4,Win32,60.0240096,6266d1937cec5e7a57883e76,64d2fd46c836a06233681665,64dc7e79a21d25c05cb512ad,,,,,,,sngl,resources/Empty.png,resources/DP.BMP,WildCard_NonEx,0.373814042,-0.0028463,1,0,0,0.447,optionRight,45,7965,4,25,0,25,0,1,,,,,,,,,,,,,,,,,,,,,,,,,,,,,,,,,,,,,,,
,,,,,,,,2023-08-16_08h46.48.194,HF_wild_card,2022.2.4,Win32,60.0240096,6266d1937cec5e7a57883e76,64d2fd46c836a06233681665,64dc7e79a21d25c05cb512ad,,,,,,,decisionTrl,resources/DR.BMP,resources/DP.BMP,Door4,-0.263757116,-0.05597723,1,0,0,0.994,optionLeft,60,8025,4,26,0,26,0,1,,,,,,,,,,,,,,,,,,,,,,,,,,,,,,,,,,,,,,,
,,,,,,,,2023-08-16_08h46.48.194,HF_wild_card,2022.2.4,Win32,60.0240096,6266d1937cec5e7a57883e76,64d2fd46c836a06233681665,64dc7e79a21d25c05cb512ad,,,,,,,ctch,resources/DG.BMP,resources/DR.BMP,Door4,0.314990512,-0.086337761,1,0,0,0.978,optionRight,80,8105,4,27,0,27,0,1,,,,,,,,,,,,,,,,,,,,,,,,,,,,,,,,,,,,,,,
,,,,,,,,2023-08-16_08h46.48.194,HF_wild_card,2022.2.4,Win32,60.0240096,6266d1937cec5e7a57883e76,64d2fd46c836a06233681665,64dc7e79a21d25c05cb512ad,,,,,,,sngl,resources/DY.BMP,resources/Empty.png,Door3,-0.267552182,-0.014231499,1,0,0,0.312,optionLeft,70,8175,4,28,0,28,0,1,,,,,,,,,,,,,,,,,,,,,,,,,,,,,,,,,,,,,,,
,,,,,,,,2023-08-16_08h46.48.194,HF_wild_card,2022.2.4,Win32,60.0240096,6266d1937cec5e7a57883e76,64d2fd46c836a06233681665,64dc7e79a21d25c05cb512ad,,,,,,,decisionTrl,resources/DR.BMP,resources/DY.BMP,Door4,-0.269449715,-0.038899431,1,0,0,0.363,optionLeft,60,8235,4,29,0,29,0,1,,,,,,,,,,,,,,,,,,,,,,,,,,,,,,,,,,,,,,,
,,,,,,,,2023-08-16_08h46.48.194,HF_wild_card,2022.2.4,Win32,60.0240096,6266d1937cec5e7a57883e76,64d2fd46c836a06233681665,64dc7e79a21d25c05cb512ad,,,,,,,decisionTrl,resources/DB.BMP,resources/DG.BMP,Door2,-0.305502846,0.038899431,1,0,0,0.343,optionLeft,40,8275,4,30,0,30,0,1,,,,,,,,,,,,,,,,,,,,,,,,,,,,,,,,,,,,,,,
,,,,,,,,2023-08-16_08h46.48.194,HF_wild_card,2022.2.4,Win32,60.0240096,6266d1937cec5e7a57883e76,64d2fd46c836a06233681665,64dc7e79a21d25c05cb512ad,,,,,,,decisionTrl,resources/DR.BMP,resources/DY.BMP,Door4,-0.267552182,0.010436433,1,0,0,0.329,optionLeft,60,8335,4,31,0,31,0,1,,,,,,,,,,,,,,,,,,,,,,,,,,,,,,,,,,,,,,,
,,,,,,,,2023-08-16_08h46.48.194,HF_wild_card,2022.2.4,Win32,60.0240096,6266d1937cec5e7a57883e76,64d2fd46c836a06233681665,64dc7e79a21d25c05cb512ad,,,,,,,decisionTrl,resources/DR.BMP,resources/DY.BMP,Door3,0.398481973,0.05028463,1,0,0,0.363,optionRight,70,8405,4,32,0,32,0,1,,,,,,,,,,,,,,,,,,,,,,,,,,,,,,,,,,,,,,,
,,,,,,,,2023-08-16_08h46.48.194,HF_wild_card,2022.2.4,Win32,60.0240096,6266d1937cec5e7a57883e76,64d2fd46c836a06233681665,64dc7e79a21d25c05cb512ad,,,,,,,decisionTrl,resources/DR.BMP,resources/DY.BMP,Door3,0.462998102,0.019924099,1,0,0,0.297,optionRight,70,8475,4,33,0,33,0,1,,,,,,,,,,,,,,,,,,,,,,,,,,,,,,,,,,,,,,,
,,,,,,,,2023-08-16_08h46.48.194,HF_wild_card,2022.2.4,Win32,60.0240096,6266d1937cec5e7a57883e76,64d2fd46c836a06233681665,64dc7e79a21d25c05cb512ad,,,,,,,sngl,resources/DP.BMP,resources/Empty.png,WildCard_NonEx,0.265654649,-0.0028463,1,0,0,0.263,optionLeft,45,8520,4,34,0,34,0,1,,,,,,,,,,,,,,,,,,,,,,,,,,,,,,,,,,,,,,,
,,,,,,,,2023-08-16_08h46.48.194,HF_wild_card,2022.2.4,Win32,60.0240096,6266d1937cec5e7a57883e76,64d2fd46c836a06233681665,64dc7e79a21d25c05cb512ad,,,,,,,sngl,resources/Empty.png,resources/DB.BMP,Door2,0.216318786,0.033206831,1,0,0,0.514,optionRight,40,8560,4,35,0,35,0,1,,,,,,,,,,,,,,,,,,,,,,,,,,,,,,,,,,,,,,,
,,,,,,,,2023-08-16_08h46.48.194,HF_wild_card,2022.2.4,Win32,60.0240096,6266d1937cec5e7a57883e76,64d2fd46c836a06233681665,64dc7e79a21d25c05cb512ad,,,,,,,decisionTrl,resources/DY.BMP,resources/DP.BMP,Door3,-0.258064516,0.021821632,1,0,0,0.48,optionLeft,70,8630,4,36,0,36,0,1,,,,,,,,,,,,,,,,,,,,,,,,,,,,,,,,,,,,,,,
,,,,,,,,2023-08-16_08h46.48.194,HF_wild_card,2022.2.4,Win32,60.0240096,6266d1937cec5e7a57883e76,64d2fd46c836a06233681665,64dc7e79a21d25c05cb512ad,,,,,,,decisionTrl,resources/DP.BMP,resources/DB.BMP,Door2,0.305502846,-0.021821632,1,0,0,1.881,optionRight,20,8650,4,37,0,37,0,1,,,,,,,,,,,,,,,,,,,,,,,,,,,,,,,,,,,,,,,
,,,,,,,,2023-08-16_08h46.48.194,HF_wild_card,2022.2.4,Win32,60.0240096,6266d1937cec5e7a57883e76,64d2fd46c836a06233681665,64dc7e79a21d25c05cb512ad,,,,,,,sngl,resources/Empty.png,resources/DY.BMP,Door3,0.314990512,0.027514231,1,0,0,0.546,optionRight,70,8720,4,38,0,38,0,1,,,,,,,,,,,,,,,,,,,,,,,,,,,,,,,,,,,,,,,
,,,,,,,,2023-08-16_08h46.48.194,HF_wild_card,2022.2.4,Win32,60.0240096,6266d1937cec5e7a57883e76,64d2fd46c836a06233681665,64dc7e79a21d25c05cb512ad,,,,,,,decisionTrl,resources/DP.BMP,resources/DY.BMP,Door3,0.30740038,0.0028463,1,0,0,0.747,optionRight,70,8790,4,39,0,39,0,1,,,,,,,,,,,,,,,,,,,,,,,,,,,,,,,,,,,,,,,
,,,,,,,,2023-08-16_08h46.48.194,HF_wild_card,2022.2.4,Win32,60.0240096,6266d1937cec5e7a57883e76,64d2fd46c836a06233681665,64dc7e79a21d25c05cb512ad,,,,,,,sngl,resources/Empty.png,resources/DR.BMP,Door4,0.180265655,0.010436433,1,0,0,0.464,optionRight,80,8870,4,40,0,40,0,1,,,,,,,,,,,,,,,,,,,,,,,,,,,,,,,,,,,,,,,
,,,,,,,,2023-08-16_08h46.48.194,HF_wild_card,2022.2.4,Win32,60.0240096,6266d1937cec5e7a57883e76,64d2fd46c836a06233681665,64dc7e79a21d25c05cb512ad,,,,,,,decisionTrl,resources/DB.BMP,resources/DG.BMP,Door1,-0.055028463,-0.021821632,1,0,0,1.664,optionRight,30,8900,4,41,0,41,0,1,,,,,,,,,,,,,,,,,,,,,,,,,,,,,,,,,,,,,,,
,,,,,,,,2023-08-16_08h46.48.194,HF_wild_card,2022.2.4,Win32,60.0240096,6266d1937cec5e7a57883e76,64d2fd46c836a06233681665,64dc7e79a21d25c05cb512ad,,,,,,,ctch,resources/DB.BMP,resources/DY.BMP,Door3,0.180265655,0.006641366,1,0,0,0.431,optionRight,70,8970,4,42,0,42,0,1,,,,,,,,,,,,,,,,,,,,,,,,,,,,,,,,,,,,,,,
,,,,,,,,2023-08-16_08h46.48.194,HF_wild_card,2022.2.4,Win32,60.0240096,6266d1937cec5e7a57883e76,64d2fd46c836a06233681665,64dc7e79a21d25c05cb512ad,,,,,,,decisionTrl,resources/DG.BMP,resources/DB.BMP,Door1,-0.172675522,-0.004743833,1,0,0,0.997,optionLeft,30,9000,4,43,0,43,0,1,,,,,,,,,,,,,,,,,,,,,,,,,,,,,,,,,,,,,,,
,,,,,,,,2023-08-16_08h46.48.194,HF_wild_card,2022.2.4,Win32,60.0240096,6266d1937cec5e7a57883e76,64d2fd46c836a06233681665,64dc7e79a21d25c05cb512ad,,,,,,,,,,,,,,,,,,,,,,,,,,3,0,3,0,1,,,,,,,,,,,,,,,,,,,,,,,,,,,,,,,,,,
,,,,,,,,2023-08-16_08h46.48.194,HF_wild_card,2022.2.4,Win32,60.0240096,6266d1937cec5e7a57883e76,64d2fd46c836a06233681665,64dc7e79a21d25c05cb512ad,,,,,,,ctch,resources/DG.BMP,resources/DR.BMP,Door4,0.168880455,-0.073055028,1,0,0,1.094,optionRight,80,9080,5,0,0,0,0,1,,,,,,,,,,,,,,,,,,,,,,,,,,,,,,,,,,,,,,,
,,,,,,,,2023-08-16_08h46.48.194,HF_wild_card,2022.2.4,Win32,60.0240096,6266d1937cec5e7a57883e76,64d2fd46c836a06233681665,64dc7e79a21d25c05cb512ad,,,,,,,sngl,resources/DP.BMP,resources/Empty.png,WildCard_NonEx,-0.210626186,-0.006641366,1,0,0,0.48,optionLeft,45,9125,5,1,0,1,0,1,,,,,,,,,,,,,,,,,,,,,,,,,,,,,,,,,,,,,,,
,,,,,,,,2023-08-16_08h46.48.194,HF_wild_card,2022.2.4,Win32,60.0240096,6266d1937cec5e7a57883e76,64d2fd46c836a06233681665,64dc7e79a21d25c05cb512ad,,,,,,,decisionTrl,resources/DG.BMP,resources/DP.BMP,WildCard_NonEx,0.155597723,-0.006641366,1,0,0,0.997,optionRight,55,9180,5,2,0,2,0,1,,,,,,,,,,,,,,,,,,,,,,,,,,,,,,,,,,,,,,,
,,,,,,,,2023-08-16_08h46.48.194,HF_wild_card,2022.2.4,Win32,60.0240096,6266d1937cec5e7a57883e76,64d2fd46c836a06233681665,64dc7e79a21d25c05cb512ad,,,,,,,ctch,resources/DR.BMP,resources/DG.BMP,Door4,-0.155597723,0.000948767,1,0,0,0.497,optionLeft,60,9240,5,3,0,3,0,1,,,,,,,,,,,,,,,,,,,,,,,,,,,,,,,,,,,,,,,
,,,,,,,,2023-08-16_08h46.48.194,HF_wild_card,2022.2.4,Win32,60.0240096,6266d1937cec5e7a57883e76,64d2fd46c836a06233681665,64dc7e79a21d25c05cb512ad,,,,,,,sngl,resources/DG.BMP,resources/Empty.png,Door1,-0.273244782,0.008538899,1,0,0,0.414,optionLeft,30,9270,5,4,0,4,0,1,,,,,,,,,,,,,,,,,,,,,,,,,,,,,,,,,,,,,,,
,,,,,,,,2023-08-16_08h46.48.194,HF_wild_card,2022.2.4,Win32,60.0240096,6266d1937cec5e7a57883e76,64d2fd46c836a06233681665,64dc7e79a21d25c05cb512ad,,,,,,,decisionTrl,resources/DB.BMP,resources/DG.BMP,Door1,0.182163188,-0.018026565,1,0,0,0.981,optionRight,30,9300,5,5,0,5,0,1,,,,,,,,,,,,,,,,,,,,,,,,,,,,,,,,,,,,,,,
,,,,,,,,2023-08-16_08h46.48.194,HF_wild_card,2022.2.4,Win32,60.0240096,6266d1937cec5e7a57883e76,64d2fd46c836a06233681665,64dc7e79a21d25c05cb512ad,,,,,,,decisionTrl,resources/DR.BMP,resources/DY.BMP,Door3,0.222011385,-0.035104364,1,0,0,5.198,optionRight,70,9370,5,6,0,6,0,1,,,,,,,,,,,,,,,,,,,,,,,,,,,,,,,,,,,,,,,
,,,,,,,,2023-08-16_08h46.48.194,HF_wild_card,2022.2.4,Win32,60.0240096,6266d1937cec5e7a57883e76,64d2fd46c836a06233681665,64dc7e79a21d25c05cb512ad,,,,,,,decisionTrl,resources/DY.BMP,resources/DR.BMP,Door3,-0.316888046,-0.021821632,1,0,0,0.543,optionLeft,70,9440,5,7,0,7,0,1,,,,,,,,,,,,,,,,,,,,,,,,,,,,,,,,,,,,,,,
,,,,,,,,2023-08-16_08h46.48.194,HF_wild_card,2022.2.4,Win32,60.0240096,6266d1937cec5e7a57883e76,64d2fd46c836a06233681665,64dc7e79a21d25c05cb512ad,,,,,,,decisionTrl,resources/DY.BMP,resources/DR.BMP,Door3,-0.400379507,0.012333966,1,0,0,0.329,optionLeft,70,9510,5,8,0,8,0,1,,,,,,,,,,,,,,,,,,,,,,,,,,,,,,,,,,,,,,,
,,,,,,,,2023-08-16_08h46.48.194,HF_wild_card,2022.2.4,Win32,60.0240096,6266d1937cec5e7a57883e76,64d2fd46c836a06233681665,64dc7e79a21d25c05cb512ad,,,,,,,sngl,resources/Empty.png,resources/DR.BMP,Door4,0.438330171,0.008538899,1,0,0,0.561,optionRight,60,9570,5,9,0,9,0,1,,,,,,,,,,,,,,,,,,,,,,,,,,,,,,,,,,,,,,,
,,,,,,,,2023-08-16_08h46.48.194,HF_wild_card,2022.2.4,Win32,60.0240096,6266d1937cec5e7a57883e76,64d2fd46c836a06233681665,64dc7e79a21d25c05cb512ad,,,,,,,decisionTrl,resources/DY.BMP,resources/DR.BMP,Door3,-0.34345351,0.008538899,1,0,0,0.397,optionLeft,70,9640,5,10,0,10,0,1,,,,,,,,,,,,,,,,,,,,,,,,,,,,,,,,,,,,,,,
,,,,,,,,2023-08-16_08h46.48.194,HF_wild_card,2022.2.4,Win32,60.0240096,6266d1937cec5e7a57883e76,64d2fd46c836a06233681665,64dc7e79a21d25c05cb512ad,,,,,,,ctch,resources/DY.BMP,resources/DB.BMP,Door3,-0.271347249,-0.029411765,1,0,0,0.381,optionLeft,70,9710,5,11,0,11,0,1,,,,,,,,,,,,,,,,,,,,,,,,,,,,,,,,,,,,,,,
,,,,,,,,2023-08-16_08h46.48.194,HF_wild_card,2022.2.4,Win32,60.0240096,6266d1937cec5e7a57883e76,64d2fd46c836a06233681665,64dc7e79a21d25c05cb512ad,,,,,,,sngl,resources/Empty.png,resources/DP.BMP,WildCard_NonEx,0.170777989,-0.025616698,1,0,0,0.499,optionRight,45,9755,5,12,0,12,0,1,,,,,,,,,,,,,,,,,,,,,,,,,,,,,,,,,,,,,,,
,,,,,,,,2023-08-16_08h46.48.194,HF_wild_card,2022.2.4,Win32,60.0240096,6266d1937cec5e7a57883e76,64d2fd46c836a06233681665,64dc7e79a21d25c05cb512ad,,,,,,,ctch,resources/DR.BMP,resources/DG.BMP,Door4,-0.305502846,-0.027514231,1,0,0,2.496,optionLeft,80,9835,5,13,0,13,0,1,,,,,,,,,,,,,,,,,,,,,,,,,,,,,,,,,,,,,,,
,,,,,,,,2023-08-16_08h46.48.194,HF_wild_card,2022.2.4,Win32,60.0240096,6266d1937cec5e7a57883e76,64d2fd46c836a06233681665,64dc7e79a21d25c05cb512ad,,,,,,,sngl,resources/DR.BMP,resources/Empty.png,Door4,-0.25426945,-0.048387097,1,0,0,0.414,optionLeft,80,9915,5,14,0,14,0,1,,,,,,,,,,,,,,,,,,,,,,,,,,,,,,,,,,,,,,,
,,,,,,,,2023-08-16_08h46.48.194,HF_wild_card,2022.2.4,Win32,60.0240096,6266d1937cec5e7a57883e76,64d2fd46c836a06233681665,64dc7e79a21d25c05cb512ad,,,,,,,decisionTrl,resources/DB.BMP,resources/DG.BMP,Door2,-0.144212524,-0.004743833,1,0,0,0.53,optionLeft,40,9955,5,15,0,15,0,1,,,,,,,,,,,,,,,,,,,,,,,,,,,,,,,,,,,,,,,
,,,,,,,,2023-08-16_08h46.48.194,HF_wild_card,2022.2.4,Win32,60.0240096,6266d1937cec5e7a57883e76,64d2fd46c836a06233681665,64dc7e79a21d25c05cb512ad,,,,,,,decisionTrl,resources/DR.BMP,resources/DY.BMP,Door3,0.159392789,0.004743833,1,0,0,0.91,optionRight,70,10025,5,16,0,16,0,1,,,,,,,,,,,,,,,,,,,,,,,,,,,,,,,,,,,,,,,
,,,,,,,,2023-08-16_08h46.48.194,HF_wild_card,2022.2.4,Win32,60.0240096,6266d1937cec5e7a57883e76,64d2fd46c836a06233681665,64dc7e79a21d25c05cb512ad,,,,,,,sngl,resources/Empty.png,resources/DG.BMP,Door1,0.204933586,0.023719165,1,0,0,0.444,optionRight,30,10055,5,17,0,17,0,1,,,,,,,,,,,,,,,,,,,,,,,,,,,,,,,,,,,,,,,
,,,,,,,,2023-08-16_08h46.48.194,HF_wild_card,2022.2.4,Win32,60.0240096,6266d1937cec5e7a57883e76,64d2fd46c836a06233681665,64dc7e79a21d25c05cb512ad,,,,,,,decisionTrl,resources/DP.BMP,resources/DB.BMP,Door2,0.404174573,-0.0028463,1,0,0,1.41,optionRight,20,10075,5,18,0,18,0,1,,,,,,,,,,,,,,,,,,,,,,,,,,,,,,,,,,,,,,,
,,,,,,,,2023-08-16_08h46.48.194,HF_wild_card,2022.2.4,Win32,60.0240096,6266d1937cec5e7a57883e76,64d2fd46c836a06233681665,64dc7e79a21d25c05cb512ad,,,,,,,decisionTrl,resources/DB.BMP,resources/DG.BMP,Door2,-0.337760911,-0.033206831,1,0,0,0.377,optionLeft,20,10095,5,19,0,19,0,1,,,,,,,,,,,,,,,,,,,,,,,,,,,,,,,,,,,,,,,
,,,,,,,,2023-08-16_08h46.48.194,HF_wild_card,2022.2.4,Win32,60.0240096,6266d1937cec5e7a57883e76,64d2fd46c836a06233681665,64dc7e79a21d25c05cb512ad,,,,,,,ctch,resources/DB.BMP,resources/DY.BMP,Door3,0.30740038,-0.004743833,1,0,0,0.93,optionRight,70,10165,5,20,0,20,0,1,,,,,,,,,,,,,,,,,,,,,,,,,,,,,,,,,,,,,,,
,,,,,,,,2023-08-16_08h46.48.194,HF_wild_card,2022.2.4,Win32,60.0240096,6266d1937cec5e7a57883e76,64d2fd46c836a06233681665,64dc7e79a21d25c05cb512ad,,,,,,,sngl,resources/Empty.png,resources/DP.BMP,WildCard_NonEx,0.24857685,-0.04459203,1,0,0,0.813,optionRight,55,10220,5,21,0,21,0,1,,,,,,,,,,,,,,,,,,,,,,,,,,,,,,,,,,,,,,,
,,,,,,,,2023-08-16_08h46.48.194,HF_wild_card,2022.2.4,Win32,60.0240096,6266d1937cec5e7a57883e76,64d2fd46c836a06233681665,64dc7e79a21d25c05cb512ad,,,,,,,decisionTrl,resources/DG.BMP,resources/DB.BMP,Door1,-0.182163188,-0.067362429,1,0,0,0.446,optionLeft,30,10250,5,22,0,22,0,1,,,,,,,,,,,,,,,,,,,,,,,,,,,,,,,,,,,,,,,
,,,,,,,,2023-08-16_08h46.48.194,HF_wild_card,2022.2.4,Win32,60.0240096,6266d1937cec5e7a57883e76,64d2fd46c836a06233681665,64dc7e79a21d25c05cb512ad,,,,,,,sngl,resources/Empty.png,resources/DB.BMP,Door2,0.218216319,-0.006641366,1,0,0,0.347,optionRight,20,10270,5,23,0,23,0,1,,,,,,,,,,,,,,,,,,,,,,,,,,,,,,,,,,,,,,,
,,,,,,,,2023-08-16_08h46.48.194,HF_wild_card,2022.2.4,Win32,60.0240096,6266d1937cec5e7a57883e76,64d2fd46c836a06233681665,64dc7e79a21d25c05cb512ad,,,,,,,decisionTrl,resources/DR.BMP,resources/DP.BMP,WildCard_NonEx,0.163187856,-0.029411765,1,0,0,0.644,optionRight,45,10315,5,24,0,24,0,1,,,,,,,,,,,,,,,,,,,,,,,,,,,,,,,,,,,,,,,
,,,,,,,,2023-08-16_08h46.48.194,HF_wild_card,2022.2.4,Win32,60.0240096,6266d1937cec5e7a57883e76,64d2fd46c836a06233681665,64dc7e79a21d25c05cb512ad,,,,,,,ctch,resources/DB.BMP,resources/DY.BMP,Door3,0.377609108,0.033206831,1,0,0,1.46,optionRight,70,10385,5,25,0,25,0,1,,,,,,,,,,,,,,,,,,,,,,,,,,,,,,,,,,,,,,,
,,,,,,,,2023-08-16_08h46.48.194,HF_wild_card,2022.2.4,Win32,60.0240096,6266d1937cec5e7a57883e76,64d2fd46c836a06233681665,64dc7e79a21d25c05cb512ad,,,,,,,decisionTrl,resources/DG.BMP,resources/DB.BMP,Door1,-0.250474383,-0.040796964,1,0,0,2.444,optionLeft,30,10415,5,26,0,26,0,1,,,,,,,,,,,,,,,,,,,,,,,,,,,,,,,,,,,,,,,
,,,,,,,,2023-08-16_08h46.48.194,HF_wild_card,2022.2.4,Win32,60.0240096,6266d1937cec5e7a57883e76,64d2fd46c836a06233681665,64dc7e79a21d25c05cb512ad,,,,,,,sngl,resources/DP.BMP,resources/Empty.png,WildCard_NonEx,-0.161290323,-0.033206831,1,0,0,1.026,optionLeft,55,10470,5,27,0,27,0,1,,,,,,,,,,,,,,,,,,,,,,,,,,,,,,,,,,,,,,,
,,,,,,,,2023-08-16_08h46.48.194,HF_wild_card,2022.2.4,Win32,60.0240096,6266d1937cec5e7a57883e76,64d2fd46c836a06233681665,64dc7e79a21d25c05cb512ad,,,,,,,decisionTrl,resources/DY.BMP,resources/DR.BMP,Door3,-0.303605313,0.006641366,1,0,0,0.409,optionLeft,70,10540,5,28,0,28,0,1,,,,,,,,,,,,,,,,,,,,,,,,,,,,,,,,,,,,,,,
,,,,,,,,2023-08-16_08h46.48.194,HF_wild_card,2022.2.4,Win32,60.0240096,6266d1937cec5e7a57883e76,64d2fd46c836a06233681665,64dc7e79a21d25c05cb512ad,,,,,,,decisionTrl,resources/DP.BMP,resources/DR.BMP,Door4,0.208728653,-0.052182163,1,0,0,0.796,optionRight,60,10600,5,29,0,29,0,1,,,,,,,,,,,,,,,,,,,,,,,,,,,,,,,,,,,,,,,
,,,,,,,,2023-08-16_08h46.48.194,HF_wild_card,2022.2.4,Win32,60.0240096,6266d1937cec5e7a57883e76,64d2fd46c836a06233681665,64dc7e79a21d25c05cb512ad,,,,,,,sngl,resources/DY.BMP,resources/Empty.png,Door3,-0.24288425,0.0028463,1,0,0,0.914,optionLeft,70,10670,5,30,0,30,0,1,,,,,,,,,,,,,,,,,,,,,,,,,,,,,,,,,,,,,,,
,,,,,,,,2023-08-16_08h46.48.194,HF_wild_card,2022.2.4,Win32,60.0240096,6266d1937cec5e7a57883e76,64d2fd46c836a06233681665,64dc7e79a21d25c05cb512ad,,,,,,,decisionTrl,resources/DB.BMP,resources/DG.BMP,Door2,-0.269449715,0.004743833,1,0,0,0.379,optionLeft,20,10690,5,31,0,31,0,1,,,,,,,,,,,,,,,,,,,,,,,,,,,,,,,,,,,,,,,
,,,,,,,,2023-08-16_08h46.48.194,HF_wild_card,2022.2.4,Win32,60.0240096,6266d1937cec5e7a57883e76,64d2fd46c836a06233681665,64dc7e79a21d25c05cb512ad,,,,,,,decisionTrl,resources/DP.BMP,resources/DY.BMP,Door3,0.235294118,0.033206831,1,0,0,0.58,optionRight,70,10760,5,32,0,32,0,1,,,,,,,,,,,,,,,,,,,,,,,,,,,,,,,,,,,,,,,
,,,,,,,,2023-08-16_08h46.48.194,HF_wild_card,2022.2.4,Win32,60.0240096,6266d1937cec5e7a57883e76,64d2fd46c836a06233681665,64dc7e79a21d25c05cb512ad,,,,,,,sngl,resources/DB.BMP,resources/Empty.png,Door2,-0.231499051,-0.012333966,1,0,0,0.931,optionLeft,40,10800,5,33,0,33,0,1,,,,,,,,,,,,,,,,,,,,,,,,,,,,,,,,,,,,,,,
,,,,,,,,2023-08-16_08h46.48.194,HF_wild_card,2022.2.4,Win32,60.0240096,6266d1937cec5e7a57883e76,64d2fd46c836a06233681665,64dc7e79a21d25c05cb512ad,,,,,,,ctch,resources/DY.BMP,resources/DB.BMP,Door3,-0.290322581,-0.016129032,1,0,0,0.609,optionLeft,70,10870,5,34,0,34,0,1,,,,,,,,,,,,,,,,,,,,,,,,,,,,,,,,,,,,,,,
,,,,,,,,2023-08-16_08h46.48.194,HF_wild_card,2022.2.4,Win32,60.0240096,6266d1937cec5e7a57883e76,64d2fd46c836a06233681665,64dc7e79a21d25c05cb512ad,,,,,,,decisionTrl,resources/DR.BMP,resources/DY.BMP,Door4,-0.240986717,-0.027514231,1,0,0,0.796,optionLeft,80,10950,5,35,0,35,0,1,,,,,,,,,,,,,,,,,,,,,,,,,,,,,,,,,,,,,,,
,,,,,,,,2023-08-16_08h46.48.194,HF_wild_card,2022.2.4,Win32,60.0240096,6266d1937cec5e7a57883e76,64d2fd46c836a06233681665,64dc7e79a21d25c05cb512ad,,,,,,,decisionTrl,resources/DG.BMP,resources/DB.BMP,Door1,-0.125237192,-0.016129032,1,0,0,1.696,optionLeft,30,10980,5,36,0,36,0,1,,,,,,,,,,,,,,,,,,,,,,,,,,,,,,,,,,,,,,,
,,,,,,,,2023-08-16_08h46.48.194,HF_wild_card,2022.2.4,Win32,60.0240096,6266d1937cec5e7a57883e76,64d2fd46c836a06233681665,64dc7e79a21d25c05cb512ad,,,,,,,sngl,resources/Empty.png,resources/DY.BMP,Door3,0.222011385,0.012333966,1,0,0,0.462,optionRight,70,11050,5,37,0,37,0,1,,,,,,,,,,,,,,,,,,,,,,,,,,,,,,,,,,,,,,,
,,,,,,,,2023-08-16_08h46.48.194,HF_wild_card,2022.2.4,Win32,60.0240096,6266d1937cec5e7a57883e76,64d2fd46c836a06233681665,64dc7e79a21d25c05cb512ad,,,,,,,ctch,resources/DG.BMP,resources/DR.BMP,Door4,0.140417457,0.078747628,1,0,0,4.311,optionRight,60,11110,5,38,0,38,0,1,,,,,,,,,,,,,,,,,,,,,,,,,,,,,,,,,,,,,,,
,,,,,,,,2023-08-16_08h46.48.194,HF_wild_card,2022.2.4,Win32,60.0240096,6266d1937cec5e7a57883e76,64d2fd46c836a06233681665,64dc7e79a21d25c05cb512ad,,,,,,,decisionTrl,resources/DR.BMP,resources/DY.BMP,Door3,0.212523719,-0.021821632,1,0,0,0.681,optionRight,70,11180,5,39,0,39,0,1,,,,,,,,,,,,,,,,,,,,,,,,,,,,,,,,,,,,,,,
,,,,,,,,2023-08-16_08h46.48.194,HF_wild_card,2022.2.4,Win32,60.0240096,6266d1937cec5e7a57883e76,64d2fd46c836a06233681665,64dc7e79a21d25c05cb512ad,,,,,,,decisionTrl,resources/DY.BMP,resources/DP.BMP,Door3,-0.210626186,0.029411765,1,0,0,0.614,optionLeft,70,11250,5,40,0,40,0,1,,,,,,,,,,,,,,,,,,,,,,,,,,,,,,,,,,,,,,,
,,,,,,,,2023-08-16_08h46.48.194,HF_wild_card,2022.2.4,Win32,60.0240096,6266d1937cec5e7a57883e76,64d2fd46c836a06233681665,64dc7e79a21d25c05cb512ad,,,,,,,decisionTrl,resources/DP.BMP,resources/DG.BMP,Door1,0.330170778,-0.107210626,1,0,0,20.9,optionRight,30,11280,5,41,0,41,0,1,,,,,,,,,,,,,,,,,,,,,,,,,,,,,,,,,,,,,,,
,,,,,,,,2023-08-16_08h46.48.194,HF_wild_card,2022.2.4,Win32,60.0240096,6266d1937cec5e7a57883e76,64d2fd46c836a06233681665,64dc7e79a21d25c05cb512ad,,,,,,,decisionTrl,resources/DB.BMP,resources/DP.BMP,WildCard_NonEx,0.335863378,-0.010436433,1,0,0,93.212,optionRight,45,11325,5,42,0,42,0,1,,,,,,,,,,,,,,,,,,,,,,,,,,,,,,,,,,,,,,,
,,,,,,,,2023-08-16_08h46.48.194,HF_wild_card,2022.2.4,Win32,60.0240096,6266d1937cec5e7a57883e76,64d2fd46c836a06233681665,64dc7e79a21d25c05cb512ad,,,,,,,decisionTrl,resources/DG.BMP,resources/DB.BMP,Door2,0.267552182,-0.116698292,1,0,0,0.942,optionRight,20,11345,5,43,0,43,0,1,,,,,,,,,,,,,,,,,,,,,,,,,,,,,,,,,,,,,,,
,,,,,,,,2023-08-16_08h46.48.194,HF_wild_card,2022.2.4,Win32,60.0240096,6266d1937cec5e7a57883e76,64d2fd46c836a06233681665,64dc7e79a21d25c05cb512ad,,,,,,,,,,,,,,,,,,,,,,,,,,4,0,4,0,1,,,,,,,,,,,,,,,,,,,,,,,,,,,,,,,,,,
,,,,,,,,2023-08-16_08h46.48.194,HF_wild_card,2022.2.4,Win32,60.0240096,6266d1937cec5e7a57883e76,64d2fd46c836a06233681665,64dc7e79a21d25c05cb512ad,,,,,,,decisionTrl,resources/DB.BMP,resources/DG.BMP,Door2,-0.371916509,-0.090132827,1,0,0,1.907,optionLeft,20,11365,6,0,0,0,0,1,,,,,,,,,,,,,,,,,,,,,,,,,,,,,,,,,,,,,,,
,,,,,,,,2023-08-16_08h46.48.194,HF_wild_card,2022.2.4,Win32,60.0240096,6266d1937cec5e7a57883e76,64d2fd46c836a06233681665,64dc7e79a21d25c05cb512ad,,,,,,,ctch,resources/DR.BMP,resources/DG.BMP,Door4,-0.214421252,-0.037001898,1,0,0,0.695,optionLeft,80,11445,6,1,0,1,0,1,,,,,,,,,,,,,,,,,,,,,,,,,,,,,,,,,,,,,,,
,,,,,,,,2023-08-16_08h46.48.194,HF_wild_card,2022.2.4,Win32,60.0240096,6266d1937cec5e7a57883e76,64d2fd46c836a06233681665,64dc7e79a21d25c05cb512ad,,,,,,,decisionTrl,resources/DB.BMP,resources/DG.BMP,Door1,0.523719165,-0.000948767,1,0,0,0.962,optionRight,30,11475,6,2,0,2,0,1,,,,,,,,,,,,,,,,,,,,,,,,,,,,,,,,,,,,,,,
,,,,,,,,2023-08-16_08h46.48.194,HF_wild_card,2022.2.4,Win32,60.0240096,6266d1937cec5e7a57883e76,64d2fd46c836a06233681665,64dc7e79a21d25c05cb512ad,,,,,,,sngl,resources/DP.BMP,resources/Empty.png,WildCard_NonEx,-0.290322581,0.093927894,1,0,0,0.396,optionLeft,55,11530,6,3,0,3,0,1,,,,,,,,,,,,,,,,,,,,,,,,,,,,,,,,,,,,,,,
,,,,,,,,2023-08-16_08h46.48.194,HF_wild_card,2022.2.4,Win32,60.0240096,6266d1937cec5e7a57883e76,64d2fd46c836a06233681665,64dc7e79a21d25c05cb512ad,,,,,,,ctch,resources/DB.BMP,resources/DY.BMP,Door2,-0.440227704,0.040796964,1,0,0,0.428,optionLeft,20,11550,6,4,0,4,0,1,,,,,,,,,,,,,,,,,,,,,,,,,,,,,,,,,,,,,,,
,,,,,,,,2023-08-16_08h46.48.194,HF_wild_card,2022.2.4,Win32,60.0240096,6266d1937cec5e7a57883e76,64d2fd46c836a06233681665,64dc7e79a21d25c05cb512ad,,,,,,,sngl,resources/Empty.png,resources/DG.BMP,Door1,0.413662239,-0.078747628,1,0,0,0.379,optionRight,30,11580,6,5,0,5,0,1,,,,,,,,,,,,,,,,,,,,,,,,,,,,,,,,,,,,,,,
,,,,,,,,2023-08-16_08h46.48.194,HF_wild_card,2022.2.4,Win32,60.0240096,6266d1937cec5e7a57883e76,64d2fd46c836a06233681665,64dc7e79a21d25c05cb512ad,,,,,,,ctch,resources/DY.BMP,resources/DB.BMP,Door3,-0.500948767,-0.15085389,1,0,0,0.444,optionLeft,70,11650,6,6,0,6,0,1,,,,,,,,,,,,,,,,,,,,,,,,,,,,,,,,,,,,,,,
,,,,,,,,2023-08-16_08h46.48.194,HF_wild_card,2022.2.4,Win32,60.0240096,6266d1937cec5e7a57883e76,64d2fd46c836a06233681665,64dc7e79a21d25c05cb512ad,,,,,,,decisionTrl,resources/DP.BMP,resources/DR.BMP,Door4,0.485768501,0.008538899,1,0,0,56.311,optionRight,80,11730,6,7,0,7,0,1,,,,,,,,,,,,,,,,,,,,,,,,,,,,,,,,,,,,,,,
,,,,,,,,2023-08-16_08h46.48.194,HF_wild_card,2022.2.4,Win32,60.0240096,6266d1937cec5e7a57883e76,64d2fd46c836a06233681665,64dc7e79a21d25c05cb512ad,,,,,,,sngl,resources/Empty.png,resources/DY.BMP,Door3,0.275142315,0.008538899,1,0,0,0.56,optionRight,70,11800,6,8,0,8,0,1,,,,,,,,,,,,,,,,,,,,,,,,,,,,,,,,,,,,,,,
,,,,,,,,2023-08-16_08h46.48.194,HF_wild_card,2022.2.4,Win32,60.0240096,6266d1937cec5e7a57883e76,64d2fd46c836a06233681665,64dc7e79a21d25c05cb512ad,,,,,,,sngl,resources/Empty.png,resources/DB.BMP,Door2,0.24857685,0.016129032,1,0,0,0.432,optionRight,40,11840,6,9,0,9,0,1,,,,,,,,,,,,,,,,,,,,,,,,,,,,,,,,,,,,,,,
,,,,,,,,2023-08-16_08h46.48.194,HF_wild_card,2022.2.4,Win32,60.0240096,6266d1937cec5e7a57883e76,64d2fd46c836a06233681665,64dc7e79a21d25c05cb512ad,,,,,,,sngl,resources/DP.BMP,resources/Empty.png,WildCard_NonEx,-0.29601518,0.063567362,1,0,0,0.795,optionLeft,45,11885,6,10,0,10,0,1,,,,,,,,,,,,,,,,,,,,,,,,,,,,,,,,,,,,,,,
,,,,,,,,2023-08-16_08h46.48.194,HF_wild_card,2022.2.4,Win32,60.0240096,6266d1937cec5e7a57883e76,64d2fd46c836a06233681665,64dc7e79a21d25c05cb512ad,,,,,,,decisionTrl,resources/DG.BMP,resources/DB.BMP,Door2,0.256166983,0.0028463,1,0,0,0.462,optionRight,20,11905,6,11,0,11,0,1,,,,,,,,,,,,,,,,,,,,,,,,,,,,,,,,,,,,,,,
,,,,,,,,2023-08-16_08h46.48.194,HF_wild_card,2022.2.4,Win32,60.0240096,6266d1937cec5e7a57883e76,64d2fd46c836a06233681665,64dc7e79a21d25c05cb512ad,,,,,,,ctch,resources/DR.BMP,resources/DG.BMP,Door4,-0.132827324,-0.0028463,1,0,0,0.431,optionLeft,80,11985,6,12,0,12,0,1,,,,,,,,,,,,,,,,,,,,,,,,,,,,,,,,,,,,,,,
,,,,,,,,2023-08-16_08h46.48.194,HF_wild_card,2022.2.4,Win32,60.0240096,6266d1937cec5e7a57883e76,64d2fd46c836a06233681665,64dc7e79a21d25c05cb512ad,,,,,,,sngl,resources/DR.BMP,resources/Empty.png,Door4,-0.259962049,0.0028463,1,0,0,0.481,optionLeft,60,12045,6,13,0,13,0,1,,,,,,,,,,,,,,,,,,,,,,,,,,,,,,,,,,,,,,,
,,,,,,,,2023-08-16_08h46.48.194,HF_wild_card,2022.2.4,Win32,60.0240096,6266d1937cec5e7a57883e76,64d2fd46c836a06233681665,64dc7e79a21d25c05cb512ad,,,,,,,decisionTrl,resources/DY.BMP,resources/DR.BMP,Door3,-0.406072106,0.038899431,1,0,0,0.497,optionLeft,70,12115,6,14,0,14,0,1,,,,,,,,,,,,,,,,,,,,,,,,,,,,,,,,,,,,,,,
,,,,,,,,2023-08-16_08h46.48.194,HF_wild_card,2022.2.4,Win32,60.0240096,6266d1937cec5e7a57883e76,64d2fd46c836a06233681665,64dc7e79a21d25c05cb512ad,,,,,,,ctch,resources/DB.BMP,resources/DY.BMP,Door3,0.220113852,0.023719165,1,0,0,0.397,optionRight,70,12185,6,15,0,15,0,1,,,,,,,,,,,,,,,,,,,,,,,,,,,,,,,,,,,,,,,
,,,,,,,,2023-08-16_08h46.48.194,HF_wild_card,2022.2.4,Win32,60.0240096,6266d1937cec5e7a57883e76,64d2fd46c836a06233681665,64dc7e79a21d25c05cb512ad,,,,,,,sngl,resources/Empty.png,resources/DR.BMP,Door4,0.263757116,0.05597723,1,0,0,0.781,optionRight,80,12265,6,16,0,16,0,1,,,,,,,,,,,,,,,,,,,,,,,,,,,,,,,,,,,,,,,
,,,,,,,,2023-08-16_08h46.48.194,HF_wild_card,2022.2.4,Win32,60.0240096,6266d1937cec5e7a57883e76,64d2fd46c836a06233681665,64dc7e79a21d25c05cb512ad,,,,,,,sngl,resources/DY.BMP,resources/Empty.png,Door3,-0.214421252,0.067362429,1,0,0,0.466,optionLeft,70,12335,6,17,0,17,0,1,,,,,,,,,,,,,,,,,,,,,,,,,,,,,,,,,,,,,,,
,,,,,,,,2023-08-16_08h46.48.194,HF_wild_card,2022.2.4,Win32,60.0240096,6266d1937cec5e7a57883e76,64d2fd46c836a06233681665,64dc7e79a21d25c05cb512ad,,,,,,,decisionTrl,resources/DR.BMP,resources/DY.BMP,Door4,-0.316888046,0.0028463,1,0,0,0.545,optionLeft,80,12415,6,18,0,18,0,1,,,,,,,,,,,,,,,,,,,,,,,,,,,,,,,,,,,,,,,
,,,,,,,,2023-08-16_08h46.48.194,HF_wild_card,2022.2.4,Win32,60.0240096,6266d1937cec5e7a57883e76,64d2fd46c836a06233681665,64dc7e79a21d25c05cb512ad,,,,,,,decisionTrl,resources/DY.BMP,resources/DR.BMP,Door4,0.185958254,-0.076850095,1,0,0,0.579,optionRight,80,12495,6,19,0,19,0,1,,,,,,,,,,,,,,,,,,,,,,,,,,,,,,,,,,,,,,,
,,,,,,,,2023-08-16_08h46.48.194,HF_wild_card,2022.2.4,Win32,60.0240096,6266d1937cec5e7a57883e76,64d2fd46c836a06233681665,64dc7e79a21d25c05cb512ad,,,,,,,decisionTrl,resources/DB.BMP,resources/DG.BMP,Door1,0.123339658,-0.008538899,1,0,0,1.397,optionRight,30,12525,6,20,0,20,0,1,,,,,,,,,,,,,,,,,,,,,,,,,,,,,,,,,,,,,,,
,,,,,,,,2023-08-16_08h46.48.194,HF_wild_card,2022.2.4,Win32,60.0240096,6266d1937cec5e7a57883e76,64d2fd46c836a06233681665,64dc7e79a21d25c05cb512ad,,,,,,,decisionTrl,resources/DP.BMP,resources/DB.BMP,Door2,0.013282732,-0.008538899,1,0,0,1.012,optionRight,20,12545,6,21,0,21,0,1,,,,,,,,,,,,,,,,,,,,,,,,,,,,,,,,,,,,,,,
,,,,,,,,2023-08-16_08h46.48.194,HF_wild_card,2022.2.4,Win32,60.0240096,6266d1937cec5e7a57883e76,64d2fd46c836a06233681665,64dc7e79a21d25c05cb512ad,,,,,,,decisionTrl,resources/DG.BMP,resources/DB.BMP,Door2,0.261859583,-0.061669829,1,0,0,0.546,optionRight,20,12565,6,22,0,22,0,1,,,,,,,,,,,,,,,,,,,,,,,,,,,,,,,,,,,,,,,
,,,,,,,,2023-08-16_08h46.48.194,HF_wild_card,2022.2.4,Win32,60.0240096,6266d1937cec5e7a57883e76,64d2fd46c836a06233681665,64dc7e79a21d25c05cb512ad,,,,,,,decisionTrl,resources/DG.BMP,resources/DB.BMP,Door1,-0.292220114,0.067362429,1,0,0,0.396,optionLeft,30,12595,6,23,0,23,0,1,,,,,,,,,,,,,,,,,,,,,,,,,,,,,,,,,,,,,,,
,,,,,,,,2023-08-16_08h46.48.194,HF_wild_card,2022.2.4,Win32,60.0240096,6266d1937cec5e7a57883e76,64d2fd46c836a06233681665,64dc7e79a21d25c05cb512ad,,,,,,,ctch,resources/DY.BMP,resources/DB.BMP,Door3,-0.578747628,0.006641366,1,0,0,1.644,optionLeft,70,12665,6,24,0,24,0,1,,,,,,,,,,,,,,,,,,,,,,,,,,,,,,,,,,,,,,,
,,,,,,,,2023-08-16_08h46.48.194,HF_wild_card,2022.2.4,Win32,60.0240096,6266d1937cec5e7a57883e76,64d2fd46c836a06233681665,64dc7e79a21d25c05cb512ad,,,,,,,sngl,resources/DB.BMP,resources/Empty.png,Door2,-0.265654649,0.042694497,1,0,0,0.461,optionLeft,20,12685,6,25,0,25,0,1,,,,,,,,,,,,,,,,,,,,,,,,,,,,,,,,,,,,,,,
,,,,,,,,2023-08-16_08h46.48.194,HF_wild_card,2022.2.4,Win32,60.0240096,6266d1937cec5e7a57883e76,64d2fd46c836a06233681665,64dc7e79a21d25c05cb512ad,,,,,,,decisionTrl,resources/DR.BMP,resources/DP.BMP,Door4,-0.39658444,0.086337761,1,0,0,0.945,optionLeft,60,12745,6,26,0,26,0,1,,,,,,,,,,,,,,,,,,,,,,,,,,,,,,,,,,,,,,,
,,,,,,,,2023-08-16_08h46.48.194,HF_wild_card,2022.2.4,Win32,60.0240096,6266d1937cec5e7a57883e76,64d2fd46c836a06233681665,64dc7e79a21d25c05cb512ad,,,,,,,decisionTrl,resources/DB.BMP,resources/DP.BMP,WildCard_NonEx,0.227703985,-0.023719165,1,0,0,0.996,optionRight,55,12800,6,27,0,27,0,1,,,,,,,,,,,,,,,,,,,,,,,,,,,,,,,,,,,,,,,
,,,,,,,,2023-08-16_08h46.48.194,HF_wild_card,2022.2.4,Win32,60.0240096,6266d1937cec5e7a57883e76,64d2fd46c836a06233681665,64dc7e79a21d25c05cb512ad,,,,,,,decisionTrl,resources/DG.BMP,resources/DP.BMP,Door1,-0.203036053,0.008538899,1,0,0,1.364,optionLeft,30,12830,6,28,0,28,0,1,,,,,,,,,,,,,,,,,,,,,,,,,,,,,,,,,,,,,,,
,,,,,,,,2023-08-16_08h46.48.194,HF_wild_card,2022.2.4,Win32,60.0240096,6266d1937cec5e7a57883e76,64d2fd46c836a06233681665,64dc7e79a21d25c05cb512ad,,,,,,,decisionTrl,resources/DB.BMP,resources/DG.BMP,Door2,-0.278937381,-0.048387097,1,0,0,0.91,optionLeft,40,12870,6,29,0,29,0,1,,,,,,,,,,,,,,,,,,,,,,,,,,,,,,,,,,,,,,,
,,,,,,,,2023-08-16_08h46.48.194,HF_wild_card,2022.2.4,Win32,60.0240096,6266d1937cec5e7a57883e76,64d2fd46c836a06233681665,64dc7e79a21d25c05cb512ad,,,,,,,decisionTrl,resources/DP.BMP,resources/DY.BMP,Door3,0.265654649,0.019924099,1,0,0,0.594,optionRight,70,12940,6,30,0,30,0,1,,,,,,,,,,,,,,,,,,,,,,,,,,,,,,,,,,,,,,,
,,,,,,,,2023-08-16_08h46.48.194,HF_wild_card,2022.2.4,Win32,60.0240096,6266d1937cec5e7a57883e76,64d2fd46c836a06233681665,64dc7e79a21d25c05cb512ad,,,,,,,sngl,resources/DG.BMP,resources/Empty.png,Door1,-0.29601518,-0.033206831,1,0,0,0.512,optionLeft,30,12970,6,31,0,31,0,1,,,,,,,,,,,,,,,,,,,,,,,,,,,,,,,,,,,,,,,
,,,,,,,,2023-08-16_08h46.48.194,HF_wild_card,2022.2.4,Win32,60.0240096,6266d1937cec5e7a57883e76,64d2fd46c836a06233681665,64dc7e79a21d25c05cb512ad,,,,,,,ctch,resources/DG.BMP,resources/DR.BMP,Door4,0.258064516,-0.014231499,1,0,0,0.497,optionRight,80,13050,6,32,0,32,0,1,,,,,,,,,,,,,,,,,,,,,,,,,,,,,,,,,,,,,,,
,,,,,,,,2023-08-16_08h46.48.194,HF_wild_card,2022.2.4,Win32,60.0240096,6266d1937cec5e7a57883e76,64d2fd46c836a06233681665,64dc7e79a21d25c05cb512ad,,,,,,,decisionTrl,resources/DY.BMP,resources/DP.BMP,Door3,-0.25426945,0.061669829,1,0,0,1.197,optionLeft,70,13120,6,33,0,33,0,1,,,,,,,,,,,,,,,,,,,,,,,,,,,,,,,,,,,,,,,
,,,,,,,,2023-08-16_08h46.48.194,HF_wild_card,2022.2.4,Win32,60.0240096,6266d1937cec5e7a57883e76,64d2fd46c836a06233681665,64dc7e79a21d25c05cb512ad,,,,,,,ctch,resources/DG.BMP,resources/DR.BMP,Door4,0.246679317,-0.012333966,1,0,0,0.581,optionRight,80,13200,6,34,0,34,0,1,,,,,,,,,,,,,,,,,,,,,,,,,,,,,,,,,,,,,,,
,,,,,,,,2023-08-16_08h46.48.194,HF_wild_card,2022.2.4,Win32,60.0240096,6266d1937cec5e7a57883e76,64d2fd46c836a06233681665,64dc7e79a21d25c05cb512ad,,,,,,,sngl,resources/Empty.png,resources/DP.BMP,WildCard_NonEx,0.235294118,-0.004743833,1,0,0,1.213,optionRight,45,13245,6,35,0,35,0,1,,,,,,,,,,,,,,,,,,,,,,,,,,,,,,,,,,,,,,,
,,,,,,,,2023-08-16_08h46.48.194,HF_wild_card,2022.2.4,Win32,60.0240096,6266d1937cec5e7a57883e76,64d2fd46c836a06233681665,64dc7e79a21d25c05cb512ad,,,,,,,decisionTrl,resources/DY.BMP,resources/DR.BMP,Door4,0.256166983,0.018026565,1,0,0,1.263,optionRight,60,13305,6,36,0,36,0,1,,,,,,,,,,,,,,,,,,,,,,,,,,,,,,,,,,,,,,,
,,,,,,,,2023-08-16_08h46.48.194,HF_wild_card,2022.2.4,Win32,60.0240096,6266d1937cec5e7a57883e76,64d2fd46c836a06233681665,64dc7e79a21d25c05cb512ad,,,,,,,decisionTrl,resources/DG.BMP,resources/DB.BMP,Door2,0.35483871,0.05028463,1,0,0,0.994,optionRight,20,13325,6,37,0,37,0,1,,,,,,,,,,,,,,,,,,,,,,,,,,,,,,,,,,,,,,,
,,,,,,,,2023-08-16_08h46.48.194,HF_wild_card,2022.2.4,Win32,60.0240096,6266d1937cec5e7a57883e76,64d2fd46c836a06233681665,64dc7e79a21d25c05cb512ad,,,,,,,sngl,resources/Empty.png,resources/DP.BMP,WildCard_NonEx,0.326375712,0.006641366,1,0,0,0.478,optionRight,55,13380,6,38,0,38,0,1,,,,,,,,,,,,,,,,,,,,,,,,,,,,,,,,,,,,,,,
,,,,,,,,2023-08-16_08h46.48.194,HF_wild_card,2022.2.4,Win32,60.0240096,6266d1937cec5e7a57883e76,64d2fd46c836a06233681665,64dc7e79a21d25c05cb512ad,,,,,,,decisionTrl,resources/DR.BMP,resources/DY.BMP,Door4,-0.227703985,-0.004743833,1,0,0,0.413,optionLeft,60,13440,6,39,0,39,0,1,,,,,,,,,,,,,,,,,,,,,,,,,,,,,,,,,,,,,,,
,,,,,,,,2023-08-16_08h46.48.194,HF_wild_card,2022.2.4,Win32,60.0240096,6266d1937cec5e7a57883e76,64d2fd46c836a06233681665,64dc7e79a21d25c05cb512ad,,,,,,,decisionTrl,resources/DR.BMP,resources/DY.BMP,Door3,0.345351044,-0.095825427,1,0,0,0.514,optionRight,70,13510,6,40,0,40,0,1,,,,,,,,,,,,,,,,,,,,,,,,,,,,,,,,,,,,,,,
,,,,,,,,2023-08-16_08h46.48.194,HF_wild_card,2022.2.4,Win32,60.0240096,6266d1937cec5e7a57883e76,64d2fd46c836a06233681665,64dc7e79a21d25c05cb512ad,,,,,,,decisionTrl,resources/DR.BMP,resources/DY.BMP,Door4,-0.388994307,0.038899431,1,0,0,1.13,optionLeft,60,13570,6,41,0,41,0,1,,,,,,,,,,,,,,,,,,,,,,,,,,,,,,,,,,,,,,,
,,,,,,,,2023-08-16_08h46.48.194,HF_wild_card,2022.2.4,Win32,60.0240096,6266d1937cec5e7a57883e76,64d2fd46c836a06233681665,64dc7e79a21d25c05cb512ad,,,,,,,decisionTrl,resources/DY.BMP,resources/DR.BMP,Door4,0.144212524,-0.025616698,1,0,0,1.215,optionRight,60,13630,6,42,0,42,0,1,,,,,,,,,,,,,,,,,,,,,,,,,,,,,,,,,,,,,,,
,,,,,,,,2023-08-16_08h46.48.194,HF_wild_card,2022.2.4,Win32,60.0240096,6266d1937cec5e7a57883e76,64d2fd46c836a06233681665,64dc7e79a21d25c05cb512ad,,,,,,,decisionTrl,resources/DP.BMP,resources/DG.BMP,WildCard_NonEx,-0.383301708,0.006641366,1,0,0,0.897,optionLeft,45,13675,6,43,0,43,0,1,,,,,,,,,,,,,,,,,,,,,,,,,,,,,,,,,,,,,,,
,,,,,,,,2023-08-16_08h46.48.194,HF_wild_card,2022.2.4,Win32,60.0240096,6266d1937cec5e7a57883e76,64d2fd46c836a06233681665,64dc7e79a21d25c05cb512ad,,,,,,,,,,,,,,,,,,,,,,,,,,5,0,5,0,1,,,,,,,,,,,,,,,,,,,,,,,,,,,,,,,,,,
,,,,,,,,2023-08-16_08h46.48.194,HF_wild_card,2022.2.4,Win32,60.0240096,6266d1937cec5e7a57883e76,64d2fd46c836a06233681665,64dc7e79a21d25c05cb512ad,,,,,,,decisionTrl,resources/DB.BMP,resources/DG.BMP,Door2,-0.174573055,-0.052182163,1,0,0,1.421,optionLeft,20,13695,7,0,0,0,0,1,,,,,,,,,,,,,,,,,,,,,,,,,,,,,,,,,,,,,,,
,,,,,,,,2023-08-16_08h46.48.194,HF_wild_card,2022.2.4,Win32,60.0240096,6266d1937cec5e7a57883e76,64d2fd46c836a06233681665,64dc7e79a21d25c05cb512ad,,,,,,,ctch,resources/DG.BMP,resources/DR.BMP,Door4,0.189753321,-0.035104364,1,0,0,0.613,optionRight,80,13775,7,1,0,1,0,1,,,,,,,,,,,,,,,,,,,,,,,,,,,,,,,,,,,,,,,
,,,,,,,,2023-08-16_08h46.48.194,HF_wild_card,2022.2.4,Win32,60.0240096,6266d1937cec5e7a57883e76,64d2fd46c836a06233681665,64dc7e79a21d25c05cb512ad,,,,,,,ctch,resources/DY.BMP,resources/DB.BMP,Door3,-0.322580645,-0.004743833,1,0,0,0.565,optionLeft,70,13845,7,2,0,2,0,1,,,,,,,,,,,,,,,,,,,,,,,,,,,,,,,,,,,,,,,
,,,,,,,,2023-08-16_08h46.48.194,HF_wild_card,2022.2.4,Win32,60.0240096,6266d1937cec5e7a57883e76,64d2fd46c836a06233681665,64dc7e79a21d25c05cb512ad,,,,,,,ctch,resources/DG.BMP,resources/DR.BMP,Door4,0.259962049,-0.054079696,1,0,0,0.697,optionRight,60,13905,7,3,0,3,0,1,,,,,,,,,,,,,,,,,,,,,,,,,,,,,,,,,,,,,,,
,,,,,,,,2023-08-16_08h46.48.194,HF_wild_card,2022.2.4,Win32,60.0240096,6266d1937cec5e7a57883e76,64d2fd46c836a06233681665,64dc7e79a21d25c05cb512ad,,,,,,,decisionTrl,resources/DG.BMP,resources/DB.BMP,Door2,0.24857685,0.05597723,1,0,0,0.647,optionRight,20,13925,7,4,0,4,0,1,,,,,,,,,,,,,,,,,,,,,,,,,,,,,,,,,,,,,,,
,,,,,,,,2023-08-16_08h46.48.194,HF_wild_card,2022.2.4,Win32,60.0240096,6266d1937cec5e7a57883e76,64d2fd46c836a06233681665,64dc7e79a21d25c05cb512ad,,,,,,,ctch,resources/DG.BMP,resources/DR.BMP,Door4,0.267552182,-0.05028463,1,0,0,0.598,optionRight,60,13985,7,5,0,5,0,1,,,,,,,,,,,,,,,,,,,,,,,,,,,,,,,,,,,,,,,
,,,,,,,,2023-08-16_08h46.48.194,HF_wild_card,2022.2.4,Win32,60.0240096,6266d1937cec5e7a57883e76,64d2fd46c836a06233681665,64dc7e79a21d25c05cb512ad,,,,,,,decisionTrl,resources/DY.BMP,resources/DR.BMP,Door3,-0.299810247,-0.031309298,1,0,0,0.882,optionLeft,70,14055,7,6,0,6,0,1,,,,,,,,,,,,,,,,,,,,,,,,,,,,,,,,,,,,,,,
,,,,,,,,2023-08-16_08h46.48.194,HF_wild_card,2022.2.4,Win32,60.0240096,6266d1937cec5e7a57883e76,64d2fd46c836a06233681665,64dc7e79a21d25c05cb512ad,,,,,,,decisionTrl,resources/DR.BMP,resources/DY.BMP,Door3,0.216318786,-0.033206831,1,0,0,0.664,optionRight,70,14125,7,7,0,7,0,1,,,,,,,,,,,,,,,,,,,,,,,,,,,,,,,,,,,,,,,
,,,,,,,,2023-08-16_08h46.48.194,HF_wild_card,2022.2.4,Win32,60.0240096,6266d1937cec5e7a57883e76,64d2fd46c836a06233681665,64dc7e79a21d25c05cb512ad,,,,,,,decisionTrl,resources/DY.BMP,resources/DR.BMP,Door4,0.149905123,-0.0028463,1,0,0,0.749,optionRight,80,14205,7,8,0,8,0,1,,,,,,,,,,,,,,,,,,,,,,,,,,,,,,,,,,,,,,,
,,,,,,,,2023-08-16_08h46.48.194,HF_wild_card,2022.2.4,Win32,60.0240096,6266d1937cec5e7a57883e76,64d2fd46c836a06233681665,64dc7e79a21d25c05cb512ad,,,,,,,ctch,resources/DR.BMP,resources/DG.BMP,Door4,-0.273244782,0.004743833,1,0,0,0.647,optionLeft,60,14265,7,9,0,9,0,1,,,,,,,,,,,,,,,,,,,,,,,,,,,,,,,,,,,,,,,
,,,,,,,,2023-08-16_08h46.48.194,HF_wild_card,2022.2.4,Win32,60.0240096,6266d1937cec5e7a57883e76,64d2fd46c836a06233681665,64dc7e79a21d25c05cb512ad,,,,,,,decisionTrl,resources/DR.BMP,resources/DY.BMP,Door4,-0.269449715,0.037001898,1,0,0,0.715,optionLeft,80,14345,7,10,0,10,0,1,,,,,,,,,,,,,,,,,,,,,,,,,,,,,,,,,,,,,,,
,,,,,,,,2023-08-16_08h46.48.194,HF_wild_card,2022.2.4,Win32,60.0240096,6266d1937cec5e7a57883e76,64d2fd46c836a06233681665,64dc7e79a21d25c05cb512ad,,,,,,,decisionTrl,resources/DR.BMP,resources/DY.BMP,Door4,-0.426944972,-0.073055028,1,0,0,1.05,optionLeft,80,14425,7,11,0,11,0,1,,,,,,,,,,,,,,,,,,,,,,,,,,,,,,,,,,,,,,,
,,,,,,,,2023-08-16_08h46.48.194,HF_wild_card,2022.2.4,Win32,60.0240096,6266d1937cec5e7a57883e76,64d2fd46c836a06233681665,64dc7e79a21d25c05cb512ad,,,,,,,ctch,resources/DB.BMP,resources/DY.BMP,Door3,0.208728653,-0.012333966,1,0,0,0.764,optionRight,70,14495,7,12,0,12,0,1,,,,,,,,,,,,,,,,,,,,,,,,,,,,,,,,,,,,,,,
,,,,,,,,2023-08-16_08h46.48.194,HF_wild_card,2022.2.4,Win32,60.0240096,6266d1937cec5e7a57883e76,64d2fd46c836a06233681665,64dc7e79a21d25c05cb512ad,,,,,,,decisionTrl,resources/DR.BMP,resources/DY.BMP,Door4,-0.472485769,-0.061669829,1,0,0,1.581,optionLeft,60,14555,7,13,0,13,0,1,,,,,,,,,,,,,,,,,,,,,,,,,,,,,,,,,,,,,,,
,,,,,,,,2023-08-16_08h46.48.194,HF_wild_card,2022.2.4,Win32,60.0240096,6266d1937cec5e7a57883e76,64d2fd46c836a06233681665,64dc7e79a21d25c05cb512ad,,,,,,,decisionTrl,resources/DB.BMP,resources/DG.BMP,Door1,0.178368121,-0.021821632,1,0,0,0.864,optionRight,30,14585,7,14,0,14,0,1,,,,,,,,,,,,,,,,,,,,,,,,,,,,,,,,,,,,,,,
,,,,,,,,2023-08-16_08h46.48.194,HF_wild_card,2022.2.4,Win32,60.0240096,6266d1937cec5e7a57883e76,64d2fd46c836a06233681665,64dc7e79a21d25c05cb512ad,,,,,,,decisionTrl,resources/DY.BMP,resources/DR.BMP,Door4,0.326375712,-0.029411765,1,0,0,1.047,optionRight,80,14665,7,15,0,15,0,1,,,,,,,,,,,,,,,,,,,,,,,,,,,,,,,,,,,,,,,
,,,,,,,,2023-08-16_08h46.48.194,HF_wild_card,2022.2.4,Win32,60.0240096,6266d1937cec5e7a57883e76,64d2fd46c836a06233681665,64dc7e79a21d25c05cb512ad,,,,,,,decisionTrl,resources/DB.BMP,resources/DG.BMP,Door2,-0.187855787,0.035104364,1,0,0,1.148,optionLeft,40,14705,7,16,0,16,0,1,,,,,,,,,,,,,,,,,,,,,,,,,,,,,,,,,,,,,,,
,,,,,,,,2023-08-16_08h46.48.194,HF_wild_card,2022.2.4,Win32,60.0240096,6266d1937cec5e7a57883e76,64d2fd46c836a06233681665,64dc7e79a21d25c05cb512ad,,,,,,,decisionTrl,resources/DG.BMP,resources/DB.BMP,Door1,-0.288425047,-0.037001898,1,0,0,0.898,optionLeft,30,14735,7,17,0,17,0,1,,,,,,,,,,,,,,,,,,,,,,,,,,,,,,,,,,,,,,,
,,,,,,,,2023-08-16_08h46.48.194,HF_wild_card,2022.2.4,Win32,60.0240096,6266d1937cec5e7a57883e76,64d2fd46c836a06233681665,64dc7e79a21d25c05cb512ad,,,,,,,decisionTrl,resources/DB.BMP,resources/DG.BMP,Door1,0.258064516,0.035104364,1,0,0,1.669,optionRight,30,14765,7,18,0,18,0,1,,,,,,,,,,,,,,,,,,,,,,,,,,,,,,,,,,,,,,,
,,,,,,,,2023-08-16_08h46.48.194,HF_wild_card,2022.2.4,Win32,60.0240096,6266d1937cec5e7a57883e76,64d2fd46c836a06233681665,64dc7e79a21d25c05cb512ad,,,,,,,ctch,resources/DB.BMP,resources/DY.BMP,Door3,0.35483871,-0.010436433,1,0,0,0.699,optionRight,70,14835,7,19,0,19,0,1,,,,,,,,,,,,,,,,,,,,,,,,,,,,,,,,,,,,,,,
,,,,,,,,2023-08-16_08h46.48.194,HF_wild_card,2022.2.4,Win32,60.0240096,6266d1937cec5e7a57883e76,64d2fd46c836a06233681665,64dc7e79a21d25c05cb512ad,,,,,,,ctch,resources/DY.BMP,resources/DB.BMP,Door3,-0.185958254,0.004743833,1,0,0,0.649,optionLeft,70,14905,7,20,0,20,0,1,,,,,,,,,,,,,,,,,,,,,,,,,,,,,,,,,,,,,,,
,,,,,,,,2023-08-16_08h46.48.194,HF_wild_card,2022.2.4,Win32,60.0240096,6266d1937cec5e7a57883e76,64d2fd46c836a06233681665,64dc7e79a21d25c05cb512ad,,,,,,,decisionTrl,resources/DY.BMP,resources/DR.BMP,Door3,-0.009487666,0.010436433,1,0,0,1.08,optionLeft,70,14975,7,21,0,21,0,1,,,,,,,,,,,,,,,,,,,,,,,,,,,,,,,,,,,,,,,
,,,,,,,,2023-08-16_08h46.48.194,HF_wild_card,2022.2.4,Win32,60.0240096,6266d1937cec5e7a57883e76,64d2fd46c836a06233681665,64dc7e79a21d25c05cb512ad,,,,,,,ctch,resources/DY.BMP,resources/DB.BMP,Door3,-0.25426945,0.016129032,1,0,0,0.981,optionLeft,70,15045,7,22,0,22,0,1,,,,,,,,,,,,,,,,,,,,,,,,,,,,,,,,,,,,,,,
,,,,,,,,2023-08-16_08h46.48.194,HF_wild_card,2022.2.4,Win32,60.0240096,6266d1937cec5e7a57883e76,64d2fd46c836a06233681665,64dc7e79a21d25c05cb512ad,,,,,,,ctch,resources/DR.BMP,resources/DG.BMP,Door4,-0.25426945,0.027514231,1,0,0,0.53,optionLeft,80,15125,7,23,0,23,0,1,,,,,,,,,,,,,,,,,,,,,,,,,,,,,,,,,,,,,,,
,,,,,,,,2023-08-16_08h46.48.194,HF_wild_card,2022.2.4,Win32,60.0240096,6266d1937cec5e7a57883e76,64d2fd46c836a06233681665,64dc7e79a21d25c05cb512ad,,,,,,,decisionTrl,resources/DB.BMP,resources/DG.BMP,Door2,-0.368121442,0.004743833,1,0,0,1.031,optionLeft,20,15145,7,24,0,24,0,1,,,,,,,,,,,,,,,,,,,,,,,,,,,,,,,,,,,,,,,
,,,,,,,,2023-08-16_08h46.48.194,HF_wild_card,2022.2.4,Win32,60.0240096,6266d1937cec5e7a57883e76,64d2fd46c836a06233681665,64dc7e79a21d25c05cb512ad,,,,,,,decisionTrl,resources/DB.BMP,resources/DG.BMP,Door2,-0.290322581,0.021821632,1,0,0,0.982,optionLeft,20,15165,7,25,0,25,0,1,,,,,,,,,,,,,,,,,,,,,,,,,,,,,,,,,,,,,,,
,,,,,,,,2023-08-16_08h46.48.194,HF_wild_card,2022.2.4,Win32,60.0240096,6266d1937cec5e7a57883e76,64d2fd46c836a06233681665,64dc7e79a21d25c05cb512ad,,,,,,,ctch,resources/DR.BMP,resources/DG.BMP,Door4,-0.246679317,0.037001898,1,0,0,0.563,optionLeft,80,15245,7,26,0,26,0,1,,,,,,,,,,,,,,,,,,,,,,,,,,,,,,,,,,,,,,,
,,,,,,,,2023-08-16_08h46.48.194,HF_wild_card,2022.2.4,Win32,60.0240096,6266d1937cec5e7a57883e76,64d2fd46c836a06233681665,64dc7e79a21d25c05cb512ad,,,,,,,ctch,resources/DB.BMP,resources/DY.BMP,Door3,0.284629981,-0.052182163,1,0,0,0.581,optionRight,70,15315,7,27,0,27,0,1,,,,,,,,,,,,,,,,,,,,,,,,,,,,,,,,,,,,,,,
,,,,,,,,2023-08-16_08h46.48.194,HF_wild_card,2022.2.4,Win32,60.0240096,6266d1937cec5e7a57883e76,64d2fd46c836a06233681665,64dc7e79a21d25c05cb512ad,,,,,,,decisionTrl,resources/DR.BMP,resources/DY.BMP,Door4,-0.20113852,-0.019924099,1,0,0,0.715,optionLeft,60,15375,7,28,0,28,0,1,,,,,,,,,,,,,,,,,,,,,,,,,,,,,,,,,,,,,,,
,,,,,,,,2023-08-16_08h46.48.194,HF_wild_card,2022.2.4,Win32,60.0240096,6266d1937cec5e7a57883e76,64d2fd46c836a06233681665,64dc7e79a21d25c05cb512ad,,,,,,,decisionTrl,resources/DG.BMP,resources/DB.BMP,Door2,0.457305503,-0.052182163,1,0,0,0.764,optionRight,40,15415,7,29,0,29,0,1,,,,,,,,,,,,,,,,,,,,,,,,,,,,,,,,,,,,,,,
,,,,,,,,2023-08-16_08h46.48.194,HF_wild_card,2022.2.4,Win32,60.0240096,6266d1937cec5e7a57883e76,64d2fd46c836a06233681665,64dc7e79a21d25c05cb512ad,,,,,,,decisionTrl,resources/DG.BMP,resources/DB.BMP,Door2,0.366223909,0.016129032,1,0,0,1.233,optionRight,20,15435,7,30,0,30,0,1,,,,,,,,,,,,,,,,,,,,,,,,,,,,,,,,,,,,,,,
,,,,,,,,2023-08-16_08h46.48.194,HF_wild_card,2022.2.4,Win32,60.0240096,6266d1937cec5e7a57883e76,64d2fd46c836a06233681665,64dc7e79a21d25c05cb512ad,,,,,,,decisionTrl,resources/DR.BMP,resources/DY.BMP,Door4,-0.233396584,0.019924099,1,0,0,1.08,optionLeft,60,15495,7,31,0,31,0,1,,,,,,,,,,,,,,,,,,,,,,,,,,,,,,,,,,,,,,,
,,,,,,,,2023-08-16_08h46.48.194,HF_wild_card,2022.2.4,Win32,60.0240096,6266d1937cec5e7a57883e76,64d2fd46c836a06233681665,64dc7e79a21d25c05cb512ad,,,,,,,decisionTrl,resources/DG.BMP,resources/DB.BMP,Door2,0.288425047,-0.118595825,1,0,0,1.446,optionRight,20,15515,7,32,0,32,0,1,,,,,,,,,,,,,,,,,,,,,,,,,,,,,,,,,,,,,,,
,,,,,,,,2023-08-16_08h46.48.194,HF_wild_card,2022.2.4,Win32,60.0240096,6266d1937cec5e7a57883e76,64d2fd46c836a06233681665,64dc7e79a21d25c05cb512ad,,,,,,,decisionTrl,resources/DY.BMP,resources/DR.BMP,Door3,-0.20113852,-0.059772296,1,0,0,0.865,optionLeft,70,15585,7,33,0,33,0,1,,,,,,,,,,,,,,,,,,,,,,,,,,,,,,,,,,,,,,,
,,,,,,,,2023-08-16_08h46.48.194,HF_wild_card,2022.2.4,Win32,60.0240096,6266d1937cec5e7a57883e76,64d2fd46c836a06233681665,64dc7e79a21d25c05cb512ad,,,,,,,decisionTrl,resources/DY.BMP,resources/DR.BMP,Door3,-0.227703985,0.018026565,1,0,0,0.714,optionLeft,70,15655,7,34,0,34,0,1,,,,,,,,,,,,,,,,,,,,,,,,,,,,,,,,,,,,,,,
,,,,,,,,2023-08-16_08h46.48.194,HF_wild_card,2022.2.4,Win32,60.0240096,6266d1937cec5e7a57883e76,64d2fd46c836a06233681665,64dc7e79a21d25c05cb512ad,,,,,,,decisionTrl,resources/DG.BMP,resources/DB.BMP,Door1,-0.182163188,-0.029411765,1,0,0,1.129,optionLeft,30,15685,7,35,0,35,0,1,,,,,,,,,,,,,,,,,,,,,,,,,,,,,,,,,,,,,,,
,,,,,,,,2023-08-16_08h46.48.194,HF_wild_card,2022.2.4,Win32,60.0240096,6266d1937cec5e7a57883e76,64d2fd46c836a06233681665,64dc7e79a21d25c05cb512ad,,,,,,,,,,,,,,,,,,,,,,,,,,6,0,6,0,1,,,,,,,,,,,,,,,,,,,,,,,,,,,,,,,,,,
,,,,,,,,2023-08-16_08h46.48.194,HF_wild_card,2022.2.4,Win32,60.0240096,6266d1937cec5e7a57883e76,64d2fd46c836a06233681665,64dc7e79a21d25c05cb512ad,,,,,,,,,,,,,,,,,,,,,,,,,,,,,,,3,,,,,,,,,,,,,,,,,,,,,,,,,,,,,,,,,
,,,,,,,,2023-08-16_08h46.48.194,HF_wild_card,2022.2.4,Win32,60.0240096,6266d1937cec5e7a57883e76,64d2fd46c836a06233681665,64dc7e79a21d25c05cb512ad,,,,,,,,,,,,,,,,,,,,,,,,,,,,,,,,,,,,,,,,,,,,,,,,,,,,,,,,,,,,,,,,
,,,,,,,,2023-08-16_08h46.48.194,HF_wild_card,2022.2.4,Win32,60.0240096,6266d1937cec5e7a57883e76,64d2fd46c836a06233681665,64dc7e79a21d25c05cb512ad,,,,,,,,,,,,,,,,,,,,,,,,,,,,,,,,0,WC_extreme,resources/DBN.BMP,0,0,0,0,1,,,,,,,,,,,,,,,,,,,,,,,,,
,,,,,,,,2023-08-16_08h46.48.194,HF_wild_card,2022.2.4,Win32,60.0240096,6266d1937cec5e7a57883e76,64d2fd46c836a06233681665,64dc7e79a21d25c05cb512ad,,,,,,,,,,,,,,,,,,,,,,,,,,,,,,,,80,Door4,resources/DR.BMP,1,0,1,0,1,,,,,,,,,,,,,,,,,,,,,,,,,
,,,,,,,,2023-08-16_08h46.48.194,HF_wild_card,2022.2.4,Win32,60.0240096,6266d1937cec5e7a57883e76,64d2fd46c836a06233681665,64dc7e79a21d25c05cb512ad,,,,,,,,,,,,,,,,,,,,,,,,,,,,,,,,35,WC_nonExtreme,resources/DP.BMP,2,0,2,0,1,,,,,,,,,,,,,,,,,,,,,,,,,
,,,,,,,,2023-08-16_08h46.48.194,HF_wild_card,2022.2.4,Win32,60.0240096,6266d1937cec5e7a57883e76,64d2fd46c836a06233681665,64dc7e79a21d25c05cb512ad,,,,,,,,,,,,,,,,,,,,,,,,,,,,,,,,20,Door2,resources/DB.BMP,3,0,3,0,1,,,,,,,,,,,,,,,,,,,,,,,,,
,,,,,,,,2023-08-16_08h46.48.194,HF_wild_card,2022.2.4,Win32,60.0240096,6266d1937cec5e7a57883e76,64d2fd46c836a06233681665,64dc7e79a21d25c05cb512ad,,,,,,,,,,,,,,,,,,,,,,,,,,,,,,,,40,Door1,resources/DG.BMP,4,0,4,0,1,,,,,,,,,,,,,,,,,,,,,,,,,
,,,,,,,,2023-08-16_08h46.48.194,HF_wild_card,2022.2.4,Win32,60.0240096,6266d1937cec5e7a57883e76,64d2fd46c836a06233681665,64dc7e79a21d25c05cb512ad,,,,,,,,,,,,,,,,,,,,,,,,,,,,,,,,70,Door3,resources/DY.BMP,5,0,5,0,1,,,,,,,,,,,,,,,,,,,,,,,,,
,,,,,,,,2023-08-16_08h46.48.194,HF_wild_card,2022.2.4,Win32,60.0240096,6266d1937cec5e7a57883e76,64d2fd46c836a06233681665,64dc7e79a21d25c05cb512ad,,,,,,,,,,,,,,,,,,,,,,,,,,,,,,,,,,,,,,,,,,,,,,,,,,,,,,,,,,,,,,,,
,,,,,,,,2023-08-16_08h46.48.194,HF_wild_card,2022.2.4,Win32,60.0240096,6266d1937cec5e7a57883e76,64d2fd46c836a06233681665,64dc7e79a21d25c05cb512ad,,,,,,,,,,,,,,,,,,,,,,,,,,,,,,,,,,,,,,,,0,0,0,0,1,,,,,,,,,,,,,,,,,,,,
,,,,,,,,2023-08-16_08h46.48.194,HF_wild_card,2022.2.4,Win32,60.0240096,6266d1937cec5e7a57883e76,64d2fd46c836a06233681665,64dc7e79a21d25c05cb512ad,,,,,,,,,,,,,,,,,,,,,,,,,,,,,,,,,,,,,,,,1,0,1,0,1,,,,,,,,,,,,,,,,,,,,
,,,,,,,,2023-08-16_08h46.48.194,HF_wild_card,2022.2.4,Win32,60.0240096,6266d1937cec5e7a57883e76,64d2fd46c836a06233681665,64dc7e79a21d25c05cb512ad,,,,,,,,,,,,,,,,,,,,,,,,,,,,,,,,,,,,,,,,,,,,,0.280834915,-0.424098672,1,0,0,no,0,0,0,0,1,,,,,,,,,
,,,,,,,,2023-08-16_08h46.48.194,HF_wild_card,2022.2.4,Win32,60.0240096,6266d1937cec5e7a57883e76,64d2fd46c836a06233681665,64dc7e79a21d25c05cb512ad,,,,,,,,,,,,,,,,,,,,,,,,,,,,,,,,,,,,,,,,0,0,0,0,1,,,,,,,,,,,,,,,,,,,,
