Condition,Low fixed image (Door1),Low risky image (Door2),High fixed image (Door3),High risky image (Door4),NonExtreme Wild Card 1,NonExtreme Wild Card 2,,date,expName,psychopyVersion,OS,frameRate,PROLIFIC_PID,STUDY_ID,SESSION_ID,mouse_2.x,mouse_2.y,mouse_2.leftButton,mouse_2.midButton,mouse_2.rightButton,mouse_2.clicked_name,Trial Type,Left Option Image,Right Option Image,Chosen Door,mouse.x,mouse.y,mouse.leftButton,mouse.midButton,mouse.rightButton,mouse.time,mouse.clicked_name,Feedback,Cumulative Reward,Block,trial.thisRepN,trial.thisTrialN,trial.thisN,trial.thisIndex,trial.ran,blocks.thisRepN,blocks.thisTrialN,blocks.thisN,blocks.thisIndex,blocks.ran,Money conversion,First Outcome Reported,Shown Door (First Outcome),Displayed Image (First Outcome),outcomes.thisRepN,outcomes.thisTrialN,outcomes.thisN,outcomes.thisIndex,outcomes.ran,judgments.thisRepN,judgments.thisTrialN,judgments.thisN,judgments.thisIndex,judgments.ran,freqMouse.x,freqMouse.y,freqMouse.leftButton,freqMouse.midButton,freqMouse.rightButton,freqMouse.clicked_name,FQJ for first outcome,FQJ for second outcome,Shown Door,Displayed Image,trials.thisRepN,trials.thisTrialN,trials.thisN,trials.thisIndex,trials.ran,judgBlock.thisRepN,judgBlock.thisTrialN,judgBlock.thisN,judgBlock.thisIndex,judgBlock.ran
2,resources/DR.BMP,resources/DBN.BMP,resources/DB.BMP,resources/DG.BMP,resources/DY.BMP,resources/DP.BMP,,2023-08-16_08h48.23.456,HF_wild_card,2022.2.4,Win32,59.97001499,614778280f3a996d2b520388,64d2fd46c836a06233681665,64dc7f339a22856ba1be896b,,,,,,,,,,,,,,,,,,,,,,,,,,,,,,,,,,,,,,,,,,,,,,,,,,,,,,,,,,,,,,,,
,,,,,,,,2023-08-16_08h48.23.456,HF_wild_card,2022.2.4,Win32,59.97001499,614778280f3a996d2b520388,64d2fd46c836a06233681665,64dc7f339a22856ba1be896b,0.010833359,-0.415,1,0,0,agree,,,,,,,,,,,,,,,,,,,,,,,,,,,,,,,,,,,,,,,,,,,,,,,,,,,,,,,,,,
,,,,,,,,2023-08-16_08h48.23.456,HF_wild_card,2022.2.4,Win32,59.97001499,614778280f3a996d2b520388,64d2fd46c836a06233681665,64dc7f339a22856ba1be896b,,,,,,,,,,,,,,,,,,,,,,,,,,,,,,,,,,,,,,,,,,,,,,,,,,,,,,,,,,,,,,,,
,,,,,,,,2023-08-16_08h48.23.456,HF_wild_card,2022.2.4,Win32,59.97001499,614778280f3a996d2b520388,64d2fd46c836a06233681665,64dc7f339a22856ba1be896b,,,,,,,sngl,resources/Empty.png,resources/DG.BMP,Door4,0.411666718,-0.028333359,1,0,0,4.6914,optionRight,60,60,1,0,0,0,0,1,,,,,,,,,,,,,,,,,,,,,,,,,,,,,,,,,,,,,,,
,,,,,,,,2023-08-16_08h48.23.456,HF_wild_card,2022.2.4,Win32,59.97001499,614778280f3a996d2b520388,64d2fd46c836a06233681665,64dc7f339a22856ba1be896b,,,,,,,decisionTrl,resources/DR.BMP,resources/DBN.BMP,Door2,0.3025,-0.0525,1,0,0,3.8303,optionRight,40,100,1,1,0,1,0,1,,,,,,,,,,,,,,,,,,,,,,,,,,,,,,,,,,,,,,,
,,,,,,,,2023-08-16_08h48.23.456,HF_wild_card,2022.2.4,Win32,59.97001499,614778280f3a996d2b520388,64d2fd46c836a06233681665,64dc7f339a22856ba1be896b,,,,,,,sngl,resources/DR.BMP,resources/Empty.png,Door1,-0.258333321,-0.030833359,1,0,0,1.4652,optionLeft,30,130,1,2,0,2,0,1,,,,,,,,,,,,,,,,,,,,,,,,,,,,,,,,,,,,,,,
,,,,,,,,2023-08-16_08h48.23.456,HF_wild_card,2022.2.4,Win32,59.97001499,614778280f3a996d2b520388,64d2fd46c836a06233681665,64dc7f339a22856ba1be896b,,,,,,,sngl,resources/DP.BMP,resources/Empty.png,WildCard_NonEx,-0.261666641,-0.0375,1,0,0,1.3653,optionLeft,55,185,1,3,0,3,0,1,,,,,,,,,,,,,,,,,,,,,,,,,,,,,,,,,,,,,,,
,,,,,,,,2023-08-16_08h48.23.456,HF_wild_card,2022.2.4,Win32,59.97001499,614778280f3a996d2b520388,64d2fd46c836a06233681665,64dc7f339a22856ba1be896b,,,,,,,decisionTrl,resources/DR.BMP,resources/DBN.BMP,Door1,-0.265,-0.039166679,1,0,0,1.8487,optionLeft,30,215,1,4,0,4,0,1,,,,,,,,,,,,,,,,,,,,,,,,,,,,,,,,,,,,,,,
,,,,,,,,2023-08-16_08h48.23.456,HF_wild_card,2022.2.4,Win32,59.97001499,614778280f3a996d2b520388,64d2fd46c836a06233681665,64dc7f339a22856ba1be896b,,,,,,,decisionTrl,resources/DBN.BMP,resources/DR.BMP,Door2,-0.2775,-0.011666679,1,0,0,1.5489,optionLeft,40,255,1,5,0,5,0,1,,,,,,,,,,,,,,,,,,,,,,,,,,,,,,,,,,,,,,,
,,,,,,,,2023-08-16_08h48.23.456,HF_wild_card,2022.2.4,Win32,59.97001499,614778280f3a996d2b520388,64d2fd46c836a06233681665,64dc7f339a22856ba1be896b,,,,,,,decisionTrl,resources/DR.BMP,resources/DBN.BMP,Door1,-0.264166641,-0.005833359,1,0,0,1.332,optionLeft,30,285,1,6,0,6,0,1,,,,,,,,,,,,,,,,,,,,,,,,,,,,,,,,,,,,,,,
,,,,,,,,2023-08-16_08h48.23.456,HF_wild_card,2022.2.4,Win32,59.97001499,614778280f3a996d2b520388,64d2fd46c836a06233681665,64dc7f339a22856ba1be896b,,,,,,,ctch,resources/DG.BMP,resources/DR.BMP,Door4,-0.345833321,-0.026666679,1,0,0,0.9828,optionLeft,80,365,1,7,0,7,0,1,,,,,,,,,,,,,,,,,,,,,,,,,,,,,,,,,,,,,,,
,,,,,,,,2023-08-16_08h48.23.456,HF_wild_card,2022.2.4,Win32,59.97001499,614778280f3a996d2b520388,64d2fd46c836a06233681665,64dc7f339a22856ba1be896b,,,,,,,decisionTrl,resources/DR.BMP,resources/DBN.BMP,Door2,0.39,-0.055,1,0,0,1.681,optionRight,20,385,1,8,0,8,0,1,,,,,,,,,,,,,,,,,,,,,,,,,,,,,,,,,,,,,,,
,,,,,,,,2023-08-16_08h48.23.456,HF_wild_card,2022.2.4,Win32,59.97001499,614778280f3a996d2b520388,64d2fd46c836a06233681665,64dc7f339a22856ba1be896b,,,,,,,decisionTrl,resources/DB.BMP,resources/DG.BMP,Door3,-0.316666641,-0.005,1,0,0,0.8288,optionLeft,70,455,1,9,0,9,0,1,,,,,,,,,,,,,,,,,,,,,,,,,,,,,,,,,,,,,,,
,,,,,,,,2023-08-16_08h48.23.456,HF_wild_card,2022.2.4,Win32,59.97001499,614778280f3a996d2b520388,64d2fd46c836a06233681665,64dc7f339a22856ba1be896b,,,,,,,sngl,resources/Empty.png,resources/DB.BMP,Door3,0.303333359,-0.031666679,1,0,0,0.8834,optionRight,70,525,1,10,0,10,0,1,,,,,,,,,,,,,,,,,,,,,,,,,,,,,,,,,,,,,,,
,,,,,,,,2023-08-16_08h48.23.456,HF_wild_card,2022.2.4,Win32,59.97001499,614778280f3a996d2b520388,64d2fd46c836a06233681665,64dc7f339a22856ba1be896b,,,,,,,sngl,resources/DB.BMP,resources/Empty.png,Door3,-0.241666641,-0.081666679,1,0,0,1.4321,optionLeft,70,595,1,11,0,11,0,1,,,,,,,,,,,,,,,,,,,,,,,,,,,,,,,,,,,,,,,
,,,,,,,,2023-08-16_08h48.23.456,HF_wild_card,2022.2.4,Win32,59.97001499,614778280f3a996d2b520388,64d2fd46c836a06233681665,64dc7f339a22856ba1be896b,,,,,,,ctch,resources/DB.BMP,resources/DBN.BMP,Door3,-0.230833321,-0.005833359,1,0,0,1.2648,optionLeft,70,665,1,12,0,12,0,1,,,,,,,,,,,,,,,,,,,,,,,,,,,,,,,,,,,,,,,
,,,,,,,,2023-08-16_08h48.23.456,HF_wild_card,2022.2.4,Win32,59.97001499,614778280f3a996d2b520388,64d2fd46c836a06233681665,64dc7f339a22856ba1be896b,,,,,,,decisionTrl,resources/DBN.BMP,resources/DP.BMP,WildCard_NonEx,0.474166718,-0.0725,1,0,0,0.8972,optionRight,45,710,1,13,0,13,0,1,,,,,,,,,,,,,,,,,,,,,,,,,,,,,,,,,,,,,,,
,,,,,,,,2023-08-16_08h48.23.456,HF_wild_card,2022.2.4,Win32,59.97001499,614778280f3a996d2b520388,64d2fd46c836a06233681665,64dc7f339a22856ba1be896b,,,,,,,sngl,resources/DBN.BMP,resources/Empty.png,Door2,-0.420833321,-0.023333359,1,0,0,0.8973,optionLeft,40,750,1,14,0,14,0,1,,,,,,,,,,,,,,,,,,,,,,,,,,,,,,,,,,,,,,,
,,,,,,,,2023-08-16_08h48.23.456,HF_wild_card,2022.2.4,Win32,59.97001499,614778280f3a996d2b520388,64d2fd46c836a06233681665,64dc7f339a22856ba1be896b,,,,,,,ctch,resources/DBN.BMP,resources/DB.BMP,Door3,0.274166718,-0.025833359,1,0,0,0.8795,optionRight,70,820,1,15,0,15,0,1,,,,,,,,,,,,,,,,,,,,,,,,,,,,,,,,,,,,,,,
,,,,,,,,2023-08-16_08h48.23.456,HF_wild_card,2022.2.4,Win32,59.97001499,614778280f3a996d2b520388,64d2fd46c836a06233681665,64dc7f339a22856ba1be896b,,,,,,,ctch,resources/DR.BMP,resources/DG.BMP,Door4,0.3375,-0.095,1,0,0,1.0988,optionRight,80,900,1,16,0,16,0,1,,,,,,,,,,,,,,,,,,,,,,,,,,,,,,,,,,,,,,,
,,,,,,,,2023-08-16_08h48.23.456,HF_wild_card,2022.2.4,Win32,59.97001499,614778280f3a996d2b520388,64d2fd46c836a06233681665,64dc7f339a22856ba1be896b,,,,,,,decisionTrl,resources/DP.BMP,resources/DB.BMP,WildCard_NonEx,-0.311666641,-0.034166679,1,0,0,0.9656,optionLeft,55,955,1,17,0,17,0,1,,,,,,,,,,,,,,,,,,,,,,,,,,,,,,,,,,,,,,,
,,,,,,,,2023-08-16_08h48.23.456,HF_wild_card,2022.2.4,Win32,59.97001499,614778280f3a996d2b520388,64d2fd46c836a06233681665,64dc7f339a22856ba1be896b,,,,,,,decisionTrl,resources/DBN.BMP,resources/DR.BMP,Door2,-0.224166641,-0.035,1,0,0,1.2828,optionLeft,20,975,1,18,0,18,0,1,,,,,,,,,,,,,,,,,,,,,,,,,,,,,,,,,,,,,,,
,,,,,,,,2023-08-16_08h48.23.456,HF_wild_card,2022.2.4,Win32,59.97001499,614778280f3a996d2b520388,64d2fd46c836a06233681665,64dc7f339a22856ba1be896b,,,,,,,decisionTrl,resources/DG.BMP,resources/DB.BMP,Door3,0.354166718,-0.121666679,1,0,0,1.3157,optionRight,70,1045,1,19,0,19,0,1,,,,,,,,,,,,,,,,,,,,,,,,,,,,,,,,,,,,,,,
,,,,,,,,2023-08-16_08h48.23.456,HF_wild_card,2022.2.4,Win32,59.97001499,614778280f3a996d2b520388,64d2fd46c836a06233681665,64dc7f339a22856ba1be896b,,,,,,,decisionTrl,resources/DG.BMP,resources/DB.BMP,Door4,-0.274166641,0,1,0,0,0.6323,optionLeft,80,1125,1,20,0,20,0,1,,,,,,,,,,,,,,,,,,,,,,,,,,,,,,,,,,,,,,,
,,,,,,,,2023-08-16_08h48.23.456,HF_wild_card,2022.2.4,Win32,59.97001499,614778280f3a996d2b520388,64d2fd46c836a06233681665,64dc7f339a22856ba1be896b,,,,,,,decisionTrl,resources/DG.BMP,resources/DP.BMP,Door4,-0.255,-0.003333359,1,0,0,0.7812,optionLeft,80,1205,1,21,0,21,0,1,,,,,,,,,,,,,,,,,,,,,,,,,,,,,,,,,,,,,,,
,,,,,,,,2023-08-16_08h48.23.456,HF_wild_card,2022.2.4,Win32,59.97001499,614778280f3a996d2b520388,64d2fd46c836a06233681665,64dc7f339a22856ba1be896b,,,,,,,ctch,resources/DBN.BMP,resources/DB.BMP,Door3,0.523333435,-0.073333359,1,0,0,0.9321,optionRight,70,1275,1,22,0,22,0,1,,,,,,,,,,,,,,,,,,,,,,,,,,,,,,,,,,,,,,,
,,,,,,,,2023-08-16_08h48.23.456,HF_wild_card,2022.2.4,Win32,59.97001499,614778280f3a996d2b520388,64d2fd46c836a06233681665,64dc7f339a22856ba1be896b,,,,,,,ctch,resources/DB.BMP,resources/DBN.BMP,Door3,-0.271666641,-0.0425,1,0,0,0.799,optionLeft,70,1345,1,23,0,23,0,1,,,,,,,,,,,,,,,,,,,,,,,,,,,,,,,,,,,,,,,
,,,,,,,,2023-08-16_08h48.23.456,HF_wild_card,2022.2.4,Win32,59.97001499,614778280f3a996d2b520388,64d2fd46c836a06233681665,64dc7f339a22856ba1be896b,,,,,,,sngl,resources/Empty.png,resources/DR.BMP,Door1,0.339166718,-0.081666679,1,0,0,1.1981,optionRight,30,1375,1,24,0,24,0,1,,,,,,,,,,,,,,,,,,,,,,,,,,,,,,,,,,,,,,,
,,,,,,,,2023-08-16_08h48.23.456,HF_wild_card,2022.2.4,Win32,59.97001499,614778280f3a996d2b520388,64d2fd46c836a06233681665,64dc7f339a22856ba1be896b,,,,,,,ctch,resources/DG.BMP,resources/DR.BMP,Door4,-0.2575,-0.009166679,1,0,0,0.6654,optionLeft,80,1455,1,25,0,25,0,1,,,,,,,,,,,,,,,,,,,,,,,,,,,,,,,,,,,,,,,
,,,,,,,,2023-08-16_08h48.23.456,HF_wild_card,2022.2.4,Win32,59.97001499,614778280f3a996d2b520388,64d2fd46c836a06233681665,64dc7f339a22856ba1be896b,,,,,,,decisionTrl,resources/DP.BMP,resources/DBN.BMP,WildCard_NonEx,-0.26,-0.018333359,1,0,0,1.1319,optionLeft,45,1500,1,26,0,26,0,1,,,,,,,,,,,,,,,,,,,,,,,,,,,,,,,,,,,,,,,
,,,,,,,,2023-08-16_08h48.23.456,HF_wild_card,2022.2.4,Win32,59.97001499,614778280f3a996d2b520388,64d2fd46c836a06233681665,64dc7f339a22856ba1be896b,,,,,,,decisionTrl,resources/DB.BMP,resources/DP.BMP,Door3,-0.249166641,-0.019166679,1,0,0,0.7151,optionLeft,70,1570,1,27,0,27,0,1,,,,,,,,,,,,,,,,,,,,,,,,,,,,,,,,,,,,,,,
,,,,,,,,2023-08-16_08h48.23.456,HF_wild_card,2022.2.4,Win32,59.97001499,614778280f3a996d2b520388,64d2fd46c836a06233681665,64dc7f339a22856ba1be896b,,,,,,,decisionTrl,resources/DR.BMP,resources/DP.BMP,WildCard_NonEx,0.308333359,-0.123333359,1,0,0,0.8826,optionRight,55,1625,1,28,0,28,0,1,,,,,,,,,,,,,,,,,,,,,,,,,,,,,,,,,,,,,,,
,,,,,,,,2023-08-16_08h48.23.456,HF_wild_card,2022.2.4,Win32,59.97001499,614778280f3a996d2b520388,64d2fd46c836a06233681665,64dc7f339a22856ba1be896b,,,,,,,decisionTrl,resources/DG.BMP,resources/DB.BMP,Door4,-0.24,0.001666641,1,0,0,0.6649,optionLeft,80,1705,1,29,0,29,0,1,,,,,,,,,,,,,,,,,,,,,,,,,,,,,,,,,,,,,,,
,,,,,,,,2023-08-16_08h48.23.456,HF_wild_card,2022.2.4,Win32,59.97001499,614778280f3a996d2b520388,64d2fd46c836a06233681665,64dc7f339a22856ba1be896b,,,,,,,decisionTrl,resources/DBN.BMP,resources/DR.BMP,Door1,0.305833359,-0.0425,1,0,0,1.4658,optionRight,30,1735,1,30,0,30,0,1,,,,,,,,,,,,,,,,,,,,,,,,,,,,,,,,,,,,,,,
,,,,,,,,2023-08-16_08h48.23.456,HF_wild_card,2022.2.4,Win32,59.97001499,614778280f3a996d2b520388,64d2fd46c836a06233681665,64dc7f339a22856ba1be896b,,,,,,,decisionTrl,resources/DB.BMP,resources/DG.BMP,Door4,0.369166718,-0.086666679,1,0,0,1.7648,optionRight,80,1815,1,31,0,31,0,1,,,,,,,,,,,,,,,,,,,,,,,,,,,,,,,,,,,,,,,
,,,,,,,,2023-08-16_08h48.23.456,HF_wild_card,2022.2.4,Win32,59.97001499,614778280f3a996d2b520388,64d2fd46c836a06233681665,64dc7f339a22856ba1be896b,,,,,,,decisionTrl,resources/DP.BMP,resources/DR.BMP,WildCard_NonEx,-0.116666641,-0.003333359,1,0,0,0.7486,optionLeft,55,1870,1,32,0,32,0,1,,,,,,,,,,,,,,,,,,,,,,,,,,,,,,,,,,,,,,,
,,,,,,,,2023-08-16_08h48.23.456,HF_wild_card,2022.2.4,Win32,59.97001499,614778280f3a996d2b520388,64d2fd46c836a06233681665,64dc7f339a22856ba1be896b,,,,,,,decisionTrl,resources/DB.BMP,resources/DG.BMP,Door4,0.209166718,-0.009166679,1,0,0,0.715,optionRight,80,1950,1,33,0,33,0,1,,,,,,,,,,,,,,,,,,,,,,,,,,,,,,,,,,,,,,,
,,,,,,,,2023-08-16_08h48.23.456,HF_wild_card,2022.2.4,Win32,59.97001499,614778280f3a996d2b520388,64d2fd46c836a06233681665,64dc7f339a22856ba1be896b,,,,,,,sngl,resources/Empty.png,resources/DP.BMP,WildCard_NonEx,0.2,-0.043333359,1,0,0,0.7649,optionRight,55,2005,1,34,0,34,0,1,,,,,,,,,,,,,,,,,,,,,,,,,,,,,,,,,,,,,,,
,,,,,,,,2023-08-16_08h48.23.456,HF_wild_card,2022.2.4,Win32,59.97001499,614778280f3a996d2b520388,64d2fd46c836a06233681665,64dc7f339a22856ba1be896b,,,,,,,sngl,resources/DP.BMP,resources/Empty.png,WildCard_NonEx,-0.179166641,-0.015,1,0,0,0.7495,optionLeft,45,2050,1,35,0,35,0,1,,,,,,,,,,,,,,,,,,,,,,,,,,,,,,,,,,,,,,,
,,,,,,,,2023-08-16_08h48.23.456,HF_wild_card,2022.2.4,Win32,59.97001499,614778280f3a996d2b520388,64d2fd46c836a06233681665,64dc7f339a22856ba1be896b,,,,,,,sngl,resources/Empty.png,resources/DBN.BMP,Door2,0.24,-0.0325,1,0,0,0.6489,optionRight,20,2070,1,36,0,36,0,1,,,,,,,,,,,,,,,,,,,,,,,,,,,,,,,,,,,,,,,
,,,,,,,,2023-08-16_08h48.23.456,HF_wild_card,2022.2.4,Win32,59.97001499,614778280f3a996d2b520388,64d2fd46c836a06233681665,64dc7f339a22856ba1be896b,,,,,,,decisionTrl,resources/DG.BMP,resources/DB.BMP,Door4,-0.143333282,-0.014166679,1,0,0,0.6155,optionLeft,80,2150,1,37,0,37,0,1,,,,,,,,,,,,,,,,,,,,,,,,,,,,,,,,,,,,,,,
,,,,,,,,2023-08-16_08h48.23.456,HF_wild_card,2022.2.4,Win32,59.97001499,614778280f3a996d2b520388,64d2fd46c836a06233681665,64dc7f339a22856ba1be896b,,,,,,,ctch,resources/DR.BMP,resources/DG.BMP,Door4,0.2075,-0.050833359,1,0,0,1.2479,optionRight,60,2210,1,38,0,38,0,1,,,,,,,,,,,,,,,,,,,,,,,,,,,,,,,,,,,,,,,
,,,,,,,,2023-08-16_08h48.23.456,HF_wild_card,2022.2.4,Win32,59.97001499,614778280f3a996d2b520388,64d2fd46c836a06233681665,64dc7f339a22856ba1be896b,,,,,,,sngl,resources/DG.BMP,resources/Empty.png,Door4,-0.24,0.013333321,1,0,0,0.5985,optionLeft,80,2290,1,39,0,39,0,1,,,,,,,,,,,,,,,,,,,,,,,,,,,,,,,,,,,,,,,
,,,,,,,,2023-08-16_08h48.23.456,HF_wild_card,2022.2.4,Win32,59.97001499,614778280f3a996d2b520388,64d2fd46c836a06233681665,64dc7f339a22856ba1be896b,,,,,,,sngl,resources/Empty.png,resources/DP.BMP,WildCard_NonEx,0.513333435,-0.05,1,0,0,0.565,optionRight,45,2335,1,40,0,40,0,1,,,,,,,,,,,,,,,,,,,,,,,,,,,,,,,,,,,,,,,
,,,,,,,,2023-08-16_08h48.23.456,HF_wild_card,2022.2.4,Win32,59.97001499,614778280f3a996d2b520388,64d2fd46c836a06233681665,64dc7f339a22856ba1be896b,,,,,,,decisionTrl,resources/DP.BMP,resources/DG.BMP,Door4,0.3225,-0.085833359,1,0,0,0.7308,optionRight,80,2415,1,41,0,41,0,1,,,,,,,,,,,,,,,,,,,,,,,,,,,,,,,,,,,,,,,
,,,,,,,,2023-08-16_08h48.23.456,HF_wild_card,2022.2.4,Win32,59.97001499,614778280f3a996d2b520388,64d2fd46c836a06233681665,64dc7f339a22856ba1be896b,,,,,,,decisionTrl,resources/DBN.BMP,resources/DR.BMP,Door1,0.238333359,-0.058333359,1,0,0,0.7651,optionRight,30,2445,1,42,0,42,0,1,,,,,,,,,,,,,,,,,,,,,,,,,,,,,,,,,,,,,,,
,,,,,,,,2023-08-16_08h48.23.456,HF_wild_card,2022.2.4,Win32,59.97001499,614778280f3a996d2b520388,64d2fd46c836a06233681665,64dc7f339a22856ba1be896b,,,,,,,decisionTrl,resources/DB.BMP,resources/DG.BMP,Door4,0.313333359,-0.069166679,1,0,0,0.814,optionRight,80,2525,1,43,0,43,0,1,,,,,,,,,,,,,,,,,,,,,,,,,,,,,,,,,,,,,,,
,,,,,,,,2023-08-16_08h48.23.456,HF_wild_card,2022.2.4,Win32,59.97001499,614778280f3a996d2b520388,64d2fd46c836a06233681665,64dc7f339a22856ba1be896b,,,,,,,,,,,,,,,,,,,,,,,,,,0,0,0,0,1,,,,,,,,,,,,,,,,,,,,,,,,,,,,,,,,,,
,,,,,,,,2023-08-16_08h48.23.456,HF_wild_card,2022.2.4,Win32,59.97001499,614778280f3a996d2b520388,64d2fd46c836a06233681665,64dc7f339a22856ba1be896b,,,,,,,decisionTrl,resources/DBN.BMP,resources/DP.BMP,WildCard_NonEx,0.266666718,-0.225,1,0,0,1.1094,optionRight,55,2580,2,0,0,0,0,1,,,,,,,,,,,,,,,,,,,,,,,,,,,,,,,,,,,,,,,
,,,,,,,,2023-08-16_08h48.23.456,HF_wild_card,2022.2.4,Win32,59.97001499,614778280f3a996d2b520388,64d2fd46c836a06233681665,64dc7f339a22856ba1be896b,,,,,,,sngl,resources/Empty.png,resources/DR.BMP,Door1,0.1375,-0.015833359,1,0,0,0.9819,optionRight,30,2610,2,1,0,1,0,1,,,,,,,,,,,,,,,,,,,,,,,,,,,,,,,,,,,,,,,
,,,,,,,,2023-08-16_08h48.23.456,HF_wild_card,2022.2.4,Win32,59.97001499,614778280f3a996d2b520388,64d2fd46c836a06233681665,64dc7f339a22856ba1be896b,,,,,,,sngl,resources/Empty.png,resources/DBN.BMP,Door2,0.325,-0.155833359,1,0,0,2.2821,optionRight,40,2650,2,2,0,2,0,1,,,,,,,,,,,,,,,,,,,,,,,,,,,,,,,,,,,,,,,
,,,,,,,,2023-08-16_08h48.23.456,HF_wild_card,2022.2.4,Win32,59.97001499,614778280f3a996d2b520388,64d2fd46c836a06233681665,64dc7f339a22856ba1be896b,,,,,,,decisionTrl,resources/DB.BMP,resources/DG.BMP,Door4,0.336666718,-0.073333359,1,0,0,2.0809,optionRight,80,2730,2,3,0,3,0,1,,,,,,,,,,,,,,,,,,,,,,,,,,,,,,,,,,,,,,,
,,,,,,,,2023-08-16_08h48.23.456,HF_wild_card,2022.2.4,Win32,59.97001499,614778280f3a996d2b520388,64d2fd46c836a06233681665,64dc7f339a22856ba1be896b,,,,,,,decisionTrl,resources/DR.BMP,resources/DBN.BMP,Door1,-0.51,0.0425,1,0,0,0.881,optionLeft,30,2760,2,4,0,4,0,1,,,,,,,,,,,,,,,,,,,,,,,,,,,,,,,,,,,,,,,
,,,,,,,,2023-08-16_08h48.23.456,HF_wild_card,2022.2.4,Win32,59.97001499,614778280f3a996d2b520388,64d2fd46c836a06233681665,64dc7f339a22856ba1be896b,,,,,,,ctch,resources/DR.BMP,resources/DG.BMP,Door4,0.276666718,-0.0825,1,0,0,0.5783,optionRight,60,2820,2,5,0,5,0,1,,,,,,,,,,,,,,,,,,,,,,,,,,,,,,,,,,,,,,,
,,,,,,,,2023-08-16_08h48.23.456,HF_wild_card,2022.2.4,Win32,59.97001499,614778280f3a996d2b520388,64d2fd46c836a06233681665,64dc7f339a22856ba1be896b,,,,,,,decisionTrl,resources/DB.BMP,resources/DG.BMP,Door3,-0.3,-0.013333359,1,0,0,0.5797,optionLeft,70,2890,2,6,0,6,0,1,,,,,,,,,,,,,,,,,,,,,,,,,,,,,,,,,,,,,,,
,,,,,,,,2023-08-16_08h48.23.456,HF_wild_card,2022.2.4,Win32,59.97001499,614778280f3a996d2b520388,64d2fd46c836a06233681665,64dc7f339a22856ba1be896b,,,,,,,decisionTrl,resources/DG.BMP,resources/DB.BMP,Door4,-0.1525,-0.009166679,1,0,0,0.5986,optionLeft,80,2970,2,7,0,7,0,1,,,,,,,,,,,,,,,,,,,,,,,,,,,,,,,,,,,,,,,
,,,,,,,,2023-08-16_08h48.23.456,HF_wild_card,2022.2.4,Win32,59.97001499,614778280f3a996d2b520388,64d2fd46c836a06233681665,64dc7f339a22856ba1be896b,,,,,,,decisionTrl,resources/DBN.BMP,resources/DR.BMP,Door1,0.208333359,-0.039166679,1,0,0,0.7819,optionRight,30,3000,2,8,0,8,0,1,,,,,,,,,,,,,,,,,,,,,,,,,,,,,,,,,,,,,,,
,,,,,,,,2023-08-16_08h48.23.456,HF_wild_card,2022.2.4,Win32,59.97001499,614778280f3a996d2b520388,64d2fd46c836a06233681665,64dc7f339a22856ba1be896b,,,,,,,decisionTrl,resources/DR.BMP,resources/DP.BMP,WildCard_NonEx,0.319166718,-0.054166679,1,0,0,1.3312,optionRight,45,3045,2,9,0,9,0,1,,,,,,,,,,,,,,,,,,,,,,,,,,,,,,,,,,,,,,,
,,,,,,,,2023-08-16_08h48.23.456,HF_wild_card,2022.2.4,Win32,59.97001499,614778280f3a996d2b520388,64d2fd46c836a06233681665,64dc7f339a22856ba1be896b,,,,,,,decisionTrl,resources/DB.BMP,resources/DG.BMP,Door4,0.209166718,-0.075833359,1,0,0,1.7145,optionRight,80,3125,2,10,0,10,0,1,,,,,,,,,,,,,,,,,,,,,,,,,,,,,,,,,,,,,,,
,,,,,,,,2023-08-16_08h48.23.456,HF_wild_card,2022.2.4,Win32,59.97001499,614778280f3a996d2b520388,64d2fd46c836a06233681665,64dc7f339a22856ba1be896b,,,,,,,sngl,resources/DR.BMP,resources/Empty.png,Door1,-0.284166641,-0.03,1,0,0,0.8493,optionLeft,30,3155,2,11,0,11,0,1,,,,,,,,,,,,,,,,,,,,,,,,,,,,,,,,,,,,,,,
,,,,,,,,2023-08-16_08h48.23.456,HF_wild_card,2022.2.4,Win32,59.97001499,614778280f3a996d2b520388,64d2fd46c836a06233681665,64dc7f339a22856ba1be896b,,,,,,,ctch,resources/DBN.BMP,resources/DB.BMP,Door3,0.305,-0.088333359,1,0,0,0.5985,optionRight,70,3225,2,12,0,12,0,1,,,,,,,,,,,,,,,,,,,,,,,,,,,,,,,,,,,,,,,
,,,,,,,,2023-08-16_08h48.23.456,HF_wild_card,2022.2.4,Win32,59.97001499,614778280f3a996d2b520388,64d2fd46c836a06233681665,64dc7f339a22856ba1be896b,,,,,,,decisionTrl,resources/DB.BMP,resources/DG.BMP,Door4,0.3025,-0.099166679,1,0,0,0.7824,optionRight,60,3285,2,13,0,13,0,1,,,,,,,,,,,,,,,,,,,,,,,,,,,,,,,,,,,,,,,
,,,,,,,,2023-08-16_08h48.23.456,HF_wild_card,2022.2.4,Win32,59.97001499,614778280f3a996d2b520388,64d2fd46c836a06233681665,64dc7f339a22856ba1be896b,,,,,,,sngl,resources/DP.BMP,resources/Empty.png,WildCard_NonEx,-0.395,0,1,0,0,0.6153,optionLeft,45,3330,2,14,0,14,0,1,,,,,,,,,,,,,,,,,,,,,,,,,,,,,,,,,,,,,,,
,,,,,,,,2023-08-16_08h48.23.456,HF_wild_card,2022.2.4,Win32,59.97001499,614778280f3a996d2b520388,64d2fd46c836a06233681665,64dc7f339a22856ba1be896b,,,,,,,decisionTrl,resources/DR.BMP,resources/DBN.BMP,Door1,-0.179166641,-0.005,1,0,0,0.7479,optionLeft,30,3360,2,15,0,15,0,1,,,,,,,,,,,,,,,,,,,,,,,,,,,,,,,,,,,,,,,
,,,,,,,,2023-08-16_08h48.23.456,HF_wild_card,2022.2.4,Win32,59.97001499,614778280f3a996d2b520388,64d2fd46c836a06233681665,64dc7f339a22856ba1be896b,,,,,,,sngl,resources/Empty.png,resources/DP.BMP,WildCard_NonEx,0.3,-0.05,1,0,0,0.582,optionRight,45,3405,2,16,0,16,0,1,,,,,,,,,,,,,,,,,,,,,,,,,,,,,,,,,,,,,,,
,,,,,,,,2023-08-16_08h48.23.456,HF_wild_card,2022.2.4,Win32,59.97001499,614778280f3a996d2b520388,64d2fd46c836a06233681665,64dc7f339a22856ba1be896b,,,,,,,ctch,resources/DG.BMP,resources/DR.BMP,Door4,-0.59416666,-0.004166679,1,0,0,0.6281,optionLeft,60,3465,2,17,0,17,0,1,,,,,,,,,,,,,,,,,,,,,,,,,,,,,,,,,,,,,,,
,,,,,,,,2023-08-16_08h48.23.456,HF_wild_card,2022.2.4,Win32,59.97001499,614778280f3a996d2b520388,64d2fd46c836a06233681665,64dc7f339a22856ba1be896b,,,,,,,decisionTrl,resources/DBN.BMP,resources/DR.BMP,Door1,0.146666718,-0.0625,1,0,0,0.7636,optionRight,30,3495,2,18,0,18,0,1,,,,,,,,,,,,,,,,,,,,,,,,,,,,,,,,,,,,,,,
,,,,,,,,2023-08-16_08h48.23.456,HF_wild_card,2022.2.4,Win32,59.97001499,614778280f3a996d2b520388,64d2fd46c836a06233681665,64dc7f339a22856ba1be896b,,,,,,,sngl,resources/DP.BMP,resources/Empty.png,WildCard_NonEx,-0.224166641,-0.010833359,1,0,0,0.598,optionLeft,55,3550,2,19,0,19,0,1,,,,,,,,,,,,,,,,,,,,,,,,,,,,,,,,,,,,,,,
,,,,,,,,2023-08-16_08h48.23.456,HF_wild_card,2022.2.4,Win32,59.97001499,614778280f3a996d2b520388,64d2fd46c836a06233681665,64dc7f339a22856ba1be896b,,,,,,,decisionTrl,resources/DG.BMP,resources/DB.BMP,Door4,-0.129166641,-0.020833359,1,0,0,1.1492,optionLeft,80,3630,2,20,0,20,0,1,,,,,,,,,,,,,,,,,,,,,,,,,,,,,,,,,,,,,,,
,,,,,,,,2023-08-16_08h48.23.456,HF_wild_card,2022.2.4,Win32,59.97001499,614778280f3a996d2b520388,64d2fd46c836a06233681665,64dc7f339a22856ba1be896b,,,,,,,decisionTrl,resources/DP.BMP,resources/DG.BMP,Door4,0.314166718,-0.111666679,1,0,0,1.0792,optionRight,60,3690,2,21,0,21,0,1,,,,,,,,,,,,,,,,,,,,,,,,,,,,,,,,,,,,,,,
,,,,,,,,2023-08-16_08h48.23.456,HF_wild_card,2022.2.4,Win32,59.97001499,614778280f3a996d2b520388,64d2fd46c836a06233681665,64dc7f339a22856ba1be896b,,,,,,,sngl,resources/DB.BMP,resources/Empty.png,Door3,-0.3025,0.0075,1,0,0,0.513,optionLeft,70,3760,2,22,0,22,0,1,,,,,,,,,,,,,,,,,,,,,,,,,,,,,,,,,,,,,,,
,,,,,,,,2023-08-16_08h48.23.456,HF_wild_card,2022.2.4,Win32,59.97001499,614778280f3a996d2b520388,64d2fd46c836a06233681665,64dc7f339a22856ba1be896b,,,,,,,sngl,resources/DG.BMP,resources/Empty.png,Door4,-0.198333321,-0.0475,1,0,0,0.8318,optionLeft,60,3820,2,23,0,23,0,1,,,,,,,,,,,,,,,,,,,,,,,,,,,,,,,,,,,,,,,
,,,,,,,,2023-08-16_08h48.23.456,HF_wild_card,2022.2.4,Win32,59.97001499,614778280f3a996d2b520388,64d2fd46c836a06233681665,64dc7f339a22856ba1be896b,,,,,,,decisionTrl,resources/DG.BMP,resources/DB.BMP,Door3,0.346666718,-0.0975,1,0,0,0.5988,optionRight,70,3890,2,24,0,24,0,1,,,,,,,,,,,,,,,,,,,,,,,,,,,,,,,,,,,,,,,
,,,,,,,,2023-08-16_08h48.23.456,HF_wild_card,2022.2.4,Win32,59.97001499,614778280f3a996d2b520388,64d2fd46c836a06233681665,64dc7f339a22856ba1be896b,,,,,,,decisionTrl,resources/DR.BMP,resources/DBN.BMP,Door1,-0.273333321,-0.0425,1,0,0,0.883,optionLeft,30,3920,2,25,0,25,0,1,,,,,,,,,,,,,,,,,,,,,,,,,,,,,,,,,,,,,,,
,,,,,,,,2023-08-16_08h48.23.456,HF_wild_card,2022.2.4,Win32,59.97001499,614778280f3a996d2b520388,64d2fd46c836a06233681665,64dc7f339a22856ba1be896b,,,,,,,decisionTrl,resources/DBN.BMP,resources/DR.BMP,Door1,0.284166718,-0.103333359,1,0,0,0.7975,optionRight,30,3950,2,26,0,26,0,1,,,,,,,,,,,,,,,,,,,,,,,,,,,,,,,,,,,,,,,
,,,,,,,,2023-08-16_08h48.23.456,HF_wild_card,2022.2.4,Win32,59.97001499,614778280f3a996d2b520388,64d2fd46c836a06233681665,64dc7f339a22856ba1be896b,,,,,,,decisionTrl,resources/DBN.BMP,resources/DR.BMP,Door1,0.183333359,-0.0925,1,0,0,0.9495,optionRight,30,3980,2,27,0,27,0,1,,,,,,,,,,,,,,,,,,,,,,,,,,,,,,,,,,,,,,,
,,,,,,,,2023-08-16_08h48.23.456,HF_wild_card,2022.2.4,Win32,59.97001499,614778280f3a996d2b520388,64d2fd46c836a06233681665,64dc7f339a22856ba1be896b,,,,,,,sngl,resources/DBN.BMP,resources/Empty.png,Door2,-0.284166641,-0.05,1,0,0,0.7149,optionLeft,20,4000,2,28,0,28,0,1,,,,,,,,,,,,,,,,,,,,,,,,,,,,,,,,,,,,,,,
,,,,,,,,2023-08-16_08h48.23.456,HF_wild_card,2022.2.4,Win32,59.97001499,614778280f3a996d2b520388,64d2fd46c836a06233681665,64dc7f339a22856ba1be896b,,,,,,,ctch,resources/DR.BMP,resources/DG.BMP,Door4,0.311666718,-0.069166679,1,0,0,0.6878,optionRight,60,4060,2,29,0,29,0,1,,,,,,,,,,,,,,,,,,,,,,,,,,,,,,,,,,,,,,,
,,,,,,,,2023-08-16_08h48.23.456,HF_wild_card,2022.2.4,Win32,59.97001499,614778280f3a996d2b520388,64d2fd46c836a06233681665,64dc7f339a22856ba1be896b,,,,,,,decisionTrl,resources/DP.BMP,resources/DB.BMP,Door3,0.3825,-0.110833359,1,0,0,2.0627,optionRight,70,4130,2,30,0,30,0,1,,,,,,,,,,,,,,,,,,,,,,,,,,,,,,,,,,,,,,,
,,,,,,,,2023-08-16_08h48.23.456,HF_wild_card,2022.2.4,Win32,59.97001499,614778280f3a996d2b520388,64d2fd46c836a06233681665,64dc7f339a22856ba1be896b,,,,,,,decisionTrl,resources/DG.BMP,resources/DP.BMP,Door4,-0.290833321,-0.053333359,1,0,0,1.4136,optionLeft,80,4210,2,31,0,31,0,1,,,,,,,,,,,,,,,,,,,,,,,,,,,,,,,,,,,,,,,
,,,,,,,,2023-08-16_08h48.23.456,HF_wild_card,2022.2.4,Win32,59.97001499,614778280f3a996d2b520388,64d2fd46c836a06233681665,64dc7f339a22856ba1be896b,,,,,,,ctch,resources/DB.BMP,resources/DBN.BMP,Door3,-0.175833321,-0.009166679,1,0,0,0.7203,optionLeft,70,4280,2,32,0,32,0,1,,,,,,,,,,,,,,,,,,,,,,,,,,,,,,,,,,,,,,,
,,,,,,,,2023-08-16_08h48.23.456,HF_wild_card,2022.2.4,Win32,59.97001499,614778280f3a996d2b520388,64d2fd46c836a06233681665,64dc7f339a22856ba1be896b,,,,,,,decisionTrl,resources/DP.BMP,resources/DBN.BMP,WildCard_NonEx,-0.210833321,-0.064166679,1,0,0,0.9194,optionLeft,45,4325,2,33,0,33,0,1,,,,,,,,,,,,,,,,,,,,,,,,,,,,,,,,,,,,,,,
,,,,,,,,2023-08-16_08h48.23.456,HF_wild_card,2022.2.4,Win32,59.97001499,614778280f3a996d2b520388,64d2fd46c836a06233681665,64dc7f339a22856ba1be896b,,,,,,,sngl,resources/Empty.png,resources/DG.BMP,Door4,0.349166718,-0.038333359,1,0,0,0.5853,optionRight,80,4405,2,34,0,34,0,1,,,,,,,,,,,,,,,,,,,,,,,,,,,,,,,,,,,,,,,
,,,,,,,,2023-08-16_08h48.23.456,HF_wild_card,2022.2.4,Win32,59.97001499,614778280f3a996d2b520388,64d2fd46c836a06233681665,64dc7f339a22856ba1be896b,,,,,,,sngl,resources/Empty.png,resources/DB.BMP,Door3,0.3125,-0.029166679,1,0,0,0.5812,optionRight,70,4475,2,35,0,35,0,1,,,,,,,,,,,,,,,,,,,,,,,,,,,,,,,,,,,,,,,
,,,,,,,,2023-08-16_08h48.23.456,HF_wild_card,2022.2.4,Win32,59.97001499,614778280f3a996d2b520388,64d2fd46c836a06233681665,64dc7f339a22856ba1be896b,,,,,,,decisionTrl,resources/DR.BMP,resources/DBN.BMP,Door1,-0.241666641,-0.0275,1,0,0,0.7217,optionLeft,30,4505,2,36,0,36,0,1,,,,,,,,,,,,,,,,,,,,,,,,,,,,,,,,,,,,,,,
,,,,,,,,2023-08-16_08h48.23.456,HF_wild_card,2022.2.4,Win32,59.97001499,614778280f3a996d2b520388,64d2fd46c836a06233681665,64dc7f339a22856ba1be896b,,,,,,,decisionTrl,resources/DB.BMP,resources/DP.BMP,Door3,-0.105,-0.014166679,1,0,0,1.147,optionLeft,70,4575,2,37,0,37,0,1,,,,,,,,,,,,,,,,,,,,,,,,,,,,,,,,,,,,,,,
,,,,,,,,2023-08-16_08h48.23.456,HF_wild_card,2022.2.4,Win32,59.97001499,614778280f3a996d2b520388,64d2fd46c836a06233681665,64dc7f339a22856ba1be896b,,,,,,,ctch,resources/DBN.BMP,resources/DB.BMP,Door3,0.344166718,-0.101666679,1,0,0,0.8994,optionRight,70,4645,2,38,0,38,0,1,,,,,,,,,,,,,,,,,,,,,,,,,,,,,,,,,,,,,,,
,,,,,,,,2023-08-16_08h48.23.456,HF_wild_card,2022.2.4,Win32,59.97001499,614778280f3a996d2b520388,64d2fd46c836a06233681665,64dc7f339a22856ba1be896b,,,,,,,decisionTrl,resources/DG.BMP,resources/DB.BMP,Door4,-0.198333321,-0.016666679,1,0,0,0.6482,optionLeft,80,4725,2,39,0,39,0,1,,,,,,,,,,,,,,,,,,,,,,,,,,,,,,,,,,,,,,,
,,,,,,,,2023-08-16_08h48.23.456,HF_wild_card,2022.2.4,Win32,59.97001499,614778280f3a996d2b520388,64d2fd46c836a06233681665,64dc7f339a22856ba1be896b,,,,,,,decisionTrl,resources/DP.BMP,resources/DR.BMP,WildCard_NonEx,-0.228333321,-0.026666679,1,0,0,1.2811,optionLeft,55,4780,2,40,0,40,0,1,,,,,,,,,,,,,,,,,,,,,,,,,,,,,,,,,,,,,,,
,,,,,,,,2023-08-16_08h48.23.456,HF_wild_card,2022.2.4,Win32,59.97001499,614778280f3a996d2b520388,64d2fd46c836a06233681665,64dc7f339a22856ba1be896b,,,,,,,ctch,resources/DB.BMP,resources/DBN.BMP,Door3,-0.256666641,-0.020833359,1,0,0,0.7642,optionLeft,70,4850,2,41,0,41,0,1,,,,,,,,,,,,,,,,,,,,,,,,,,,,,,,,,,,,,,,
,,,,,,,,2023-08-16_08h48.23.456,HF_wild_card,2022.2.4,Win32,59.97001499,614778280f3a996d2b520388,64d2fd46c836a06233681665,64dc7f339a22856ba1be896b,,,,,,,ctch,resources/DG.BMP,resources/DR.BMP,Door4,-0.264166641,-0.009166679,1,0,0,0.615,optionLeft,60,4910,2,42,0,42,0,1,,,,,,,,,,,,,,,,,,,,,,,,,,,,,,,,,,,,,,,
,,,,,,,,2023-08-16_08h48.23.456,HF_wild_card,2022.2.4,Win32,59.97001499,614778280f3a996d2b520388,64d2fd46c836a06233681665,64dc7f339a22856ba1be896b,,,,,,,sngl,resources/Empty.png,resources/DP.BMP,WildCard_NonEx,0.441666718,-0.060833359,1,0,0,0.643,optionRight,55,4965,2,43,0,43,0,1,,,,,,,,,,,,,,,,,,,,,,,,,,,,,,,,,,,,,,,
,,,,,,,,2023-08-16_08h48.23.456,HF_wild_card,2022.2.4,Win32,59.97001499,614778280f3a996d2b520388,64d2fd46c836a06233681665,64dc7f339a22856ba1be896b,,,,,,,,,,,,,,,,,,,,,,,,,,1,0,1,0,1,,,,,,,,,,,,,,,,,,,,,,,,,,,,,,,,,,
,,,,,,,,2023-08-16_08h48.23.456,HF_wild_card,2022.2.4,Win32,59.97001499,614778280f3a996d2b520388,64d2fd46c836a06233681665,64dc7f339a22856ba1be896b,,,,,,,decisionTrl,resources/DB.BMP,resources/DG.BMP,Door4,0.319166718,-0.0675,1,0,0,0.7713,optionRight,80,5045,3,0,0,0,0,1,,,,,,,,,,,,,,,,,,,,,,,,,,,,,,,,,,,,,,,
,,,,,,,,2023-08-16_08h48.23.456,HF_wild_card,2022.2.4,Win32,59.97001499,614778280f3a996d2b520388,64d2fd46c836a06233681665,64dc7f339a22856ba1be896b,,,,,,,decisionTrl,resources/DR.BMP,resources/DP.BMP,WildCard_NonEx,0.27,-0.158333359,1,0,0,0.9201,optionRight,45,5090,3,1,0,1,0,1,,,,,,,,,,,,,,,,,,,,,,,,,,,,,,,,,,,,,,,
,,,,,,,,2023-08-16_08h48.23.456,HF_wild_card,2022.2.4,Win32,59.97001499,614778280f3a996d2b520388,64d2fd46c836a06233681665,64dc7f339a22856ba1be896b,,,,,,,ctch,resources/DR.BMP,resources/DG.BMP,Door4,0.338333359,-0.12,1,0,0,0.754,optionRight,80,5170,3,2,0,2,0,1,,,,,,,,,,,,,,,,,,,,,,,,,,,,,,,,,,,,,,,
,,,,,,,,2023-08-16_08h48.23.456,HF_wild_card,2022.2.4,Win32,59.97001499,614778280f3a996d2b520388,64d2fd46c836a06233681665,64dc7f339a22856ba1be896b,,,,,,,decisionTrl,resources/DB.BMP,resources/DG.BMP,Door4,0.371666718,-0.123333359,1,0,0,0.5984,optionRight,60,5230,3,3,0,3,0,1,,,,,,,,,,,,,,,,,,,,,,,,,,,,,,,,,,,,,,,
,,,,,,,,2023-08-16_08h48.23.456,HF_wild_card,2022.2.4,Win32,59.97001499,614778280f3a996d2b520388,64d2fd46c836a06233681665,64dc7f339a22856ba1be896b,,,,,,,sngl,resources/DB.BMP,resources/Empty.png,Door3,-0.2725,-0.023333359,1,0,0,0.5424,optionLeft,70,5300,3,4,0,4,0,1,,,,,,,,,,,,,,,,,,,,,,,,,,,,,,,,,,,,,,,
,,,,,,,,2023-08-16_08h48.23.456,HF_wild_card,2022.2.4,Win32,59.97001499,614778280f3a996d2b520388,64d2fd46c836a06233681665,64dc7f339a22856ba1be896b,,,,,,,decisionTrl,resources/DR.BMP,resources/DBN.BMP,Door1,-0.110833282,-0.025833359,1,0,0,0.7596,optionLeft,30,5330,3,5,0,5,0,1,,,,,,,,,,,,,,,,,,,,,,,,,,,,,,,,,,,,,,,
,,,,,,,,2023-08-16_08h48.23.456,HF_wild_card,2022.2.4,Win32,59.97001499,614778280f3a996d2b520388,64d2fd46c836a06233681665,64dc7f339a22856ba1be896b,,,,,,,sngl,resources/DP.BMP,resources/Empty.png,WildCard_NonEx,-0.160833321,-0.013333359,1,0,0,0.564,optionLeft,45,5375,3,6,0,6,0,1,,,,,,,,,,,,,,,,,,,,,,,,,,,,,,,,,,,,,,,
,,,,,,,,2023-08-16_08h48.23.456,HF_wild_card,2022.2.4,Win32,59.97001499,614778280f3a996d2b520388,64d2fd46c836a06233681665,64dc7f339a22856ba1be896b,,,,,,,ctch,resources/DR.BMP,resources/DG.BMP,Door4,0.329166718,-0.046666679,1,0,0,0.7503,optionRight,80,5455,3,7,0,7,0,1,,,,,,,,,,,,,,,,,,,,,,,,,,,,,,,,,,,,,,,
,,,,,,,,2023-08-16_08h48.23.456,HF_wild_card,2022.2.4,Win32,59.97001499,614778280f3a996d2b520388,64d2fd46c836a06233681665,64dc7f339a22856ba1be896b,,,,,,,decisionTrl,resources/DG.BMP,resources/DP.BMP,Door4,-0.445833321,-0.014166679,1,0,0,0.7651,optionLeft,80,5535,3,8,0,8,0,1,,,,,,,,,,,,,,,,,,,,,,,,,,,,,,,,,,,,,,,
,,,,,,,,2023-08-16_08h48.23.456,HF_wild_card,2022.2.4,Win32,59.97001499,614778280f3a996d2b520388,64d2fd46c836a06233681665,64dc7f339a22856ba1be896b,,,,,,,decisionTrl,resources/DG.BMP,resources/DB.BMP,Door4,-0.155833282,0,1,0,0,0.6658,optionLeft,80,5615,3,9,0,9,0,1,,,,,,,,,,,,,,,,,,,,,,,,,,,,,,,,,,,,,,,
,,,,,,,,2023-08-16_08h48.23.456,HF_wild_card,2022.2.4,Win32,59.97001499,614778280f3a996d2b520388,64d2fd46c836a06233681665,64dc7f339a22856ba1be896b,,,,,,,decisionTrl,resources/DP.BMP,resources/DB.BMP,Door3,0.3925,-0.105,1,0,0,1.3347,optionRight,70,5685,3,10,0,10,0,1,,,,,,,,,,,,,,,,,,,,,,,,,,,,,,,,,,,,,,,
,,,,,,,,2023-08-16_08h48.23.456,HF_wild_card,2022.2.4,Win32,59.97001499,614778280f3a996d2b520388,64d2fd46c836a06233681665,64dc7f339a22856ba1be896b,,,,,,,decisionTrl,resources/DB.BMP,resources/DP.BMP,Door3,-0.201666641,-0.026666679,1,0,0,0.6822,optionLeft,70,5755,3,11,0,11,0,1,,,,,,,,,,,,,,,,,,,,,,,,,,,,,,,,,,,,,,,
,,,,,,,,2023-08-16_08h48.23.456,HF_wild_card,2022.2.4,Win32,59.97001499,614778280f3a996d2b520388,64d2fd46c836a06233681665,64dc7f339a22856ba1be896b,,,,,,,sngl,resources/Empty.png,resources/DBN.BMP,Door2,0.215,-0.1,1,0,0,0.7986,optionRight,20,5775,3,12,0,12,0,1,,,,,,,,,,,,,,,,,,,,,,,,,,,,,,,,,,,,,,,
,,,,,,,,2023-08-16_08h48.23.456,HF_wild_card,2022.2.4,Win32,59.97001499,614778280f3a996d2b520388,64d2fd46c836a06233681665,64dc7f339a22856ba1be896b,,,,,,,decisionTrl,resources/DBN.BMP,resources/DR.BMP,Door1,0.319166718,-0.150833359,1,0,0,0.7987,optionRight,30,5805,3,13,0,13,0,1,,,,,,,,,,,,,,,,,,,,,,,,,,,,,,,,,,,,,,,
,,,,,,,,2023-08-16_08h48.23.456,HF_wild_card,2022.2.4,Win32,59.97001499,614778280f3a996d2b520388,64d2fd46c836a06233681665,64dc7f339a22856ba1be896b,,,,,,,sngl,resources/DP.BMP,resources/Empty.png,WildCard_NonEx,-0.255833321,-0.025833359,1,0,0,0.5432,optionLeft,55,5860,3,14,0,14,0,1,,,,,,,,,,,,,,,,,,,,,,,,,,,,,,,,,,,,,,,
,,,,,,,,2023-08-16_08h48.23.456,HF_wild_card,2022.2.4,Win32,59.97001499,614778280f3a996d2b520388,64d2fd46c836a06233681665,64dc7f339a22856ba1be896b,,,,,,,sngl,resources/Empty.png,resources/DP.BMP,WildCard_NonEx,0.2575,-0.07,1,0,0,0.6879,optionRight,45,5905,3,15,0,15,0,1,,,,,,,,,,,,,,,,,,,,,,,,,,,,,,,,,,,,,,,
,,,,,,,,2023-08-16_08h48.23.456,HF_wild_card,2022.2.4,Win32,59.97001499,614778280f3a996d2b520388,64d2fd46c836a06233681665,64dc7f339a22856ba1be896b,,,,,,,decisionTrl,resources/DP.BMP,resources/DR.BMP,WildCard_NonEx,-0.134166641,-0.0075,1,0,0,0.8321,optionLeft,45,5950,3,16,0,16,0,1,,,,,,,,,,,,,,,,,,,,,,,,,,,,,,,,,,,,,,,
,,,,,,,,2023-08-16_08h48.23.456,HF_wild_card,2022.2.4,Win32,59.97001499,614778280f3a996d2b520388,64d2fd46c836a06233681665,64dc7f339a22856ba1be896b,,,,,,,ctch,resources/DG.BMP,resources/DR.BMP,Door1,0.3,-0.056666679,1,0,0,0.5644,optionRight,30,5980,3,17,0,17,0,1,,,,,,,,,,,,,,,,,,,,,,,,,,,,,,,,,,,,,,,
,,,,,,,,2023-08-16_08h48.23.456,HF_wild_card,2022.2.4,Win32,59.97001499,614778280f3a996d2b520388,64d2fd46c836a06233681665,64dc7f339a22856ba1be896b,,,,,,,sngl,resources/Empty.png,resources/DB.BMP,Door3,0.343333359,-0.164166718,1,0,0,0.5874,optionRight,70,6050,3,18,0,18,0,1,,,,,,,,,,,,,,,,,,,,,,,,,,,,,,,,,,,,,,,
,,,,,,,,2023-08-16_08h48.23.456,HF_wild_card,2022.2.4,Win32,59.97001499,614778280f3a996d2b520388,64d2fd46c836a06233681665,64dc7f339a22856ba1be896b,,,,,,,sngl,resources/DR.BMP,resources/Empty.png,Door1,-0.268333321,-0.026666679,1,0,0,0.5813,optionLeft,30,6080,3,19,0,19,0,1,,,,,,,,,,,,,,,,,,,,,,,,,,,,,,,,,,,,,,,
,,,,,,,,2023-08-16_08h48.23.456,HF_wild_card,2022.2.4,Win32,59.97001499,614778280f3a996d2b520388,64d2fd46c836a06233681665,64dc7f339a22856ba1be896b,,,,,,,decisionTrl,resources/DR.BMP,resources/DBN.BMP,Door1,-0.295833321,-0.035,1,0,0,0.7655,optionLeft,30,6110,3,20,0,20,0,1,,,,,,,,,,,,,,,,,,,,,,,,,,,,,,,,,,,,,,,
,,,,,,,,2023-08-16_08h48.23.456,HF_wild_card,2022.2.4,Win32,59.97001499,614778280f3a996d2b520388,64d2fd46c836a06233681665,64dc7f339a22856ba1be896b,,,,,,,sngl,resources/Empty.png,resources/DP.BMP,WildCard_NonEx,0.283333359,-0.070833359,1,0,0,0.6962,optionRight,55,6165,3,21,0,21,0,1,,,,,,,,,,,,,,,,,,,,,,,,,,,,,,,,,,,,,,,
,,,,,,,,2023-08-16_08h48.23.456,HF_wild_card,2022.2.4,Win32,59.97001499,614778280f3a996d2b520388,64d2fd46c836a06233681665,64dc7f339a22856ba1be896b,,,,,,,ctch,resources/DG.BMP,resources/DR.BMP,Door4,-0.199166641,-0.015,1,0,0,0.6982,optionLeft,60,6225,3,22,0,22,0,1,,,,,,,,,,,,,,,,,,,,,,,,,,,,,,,,,,,,,,,
,,,,,,,,2023-08-16_08h48.23.456,HF_wild_card,2022.2.4,Win32,59.97001499,614778280f3a996d2b520388,64d2fd46c836a06233681665,64dc7f339a22856ba1be896b,,,,,,,decisionTrl,resources/DR.BMP,resources/DBN.BMP,Door1,-0.255,-0.018333359,1,0,0,0.7435,optionLeft,30,6255,3,23,0,23,0,1,,,,,,,,,,,,,,,,,,,,,,,,,,,,,,,,,,,,,,,
,,,,,,,,2023-08-16_08h48.23.456,HF_wild_card,2022.2.4,Win32,59.97001499,614778280f3a996d2b520388,64d2fd46c836a06233681665,64dc7f339a22856ba1be896b,,,,,,,decisionTrl,resources/DP.BMP,resources/DBN.BMP,WildCard_NonEx,-0.239166641,-0.008333359,1,0,0,0.6643,optionLeft,45,6300,3,24,0,24,0,1,,,,,,,,,,,,,,,,,,,,,,,,,,,,,,,,,,,,,,,
,,,,,,,,2023-08-16_08h48.23.456,HF_wild_card,2022.2.4,Win32,59.97001499,614778280f3a996d2b520388,64d2fd46c836a06233681665,64dc7f339a22856ba1be896b,,,,,,,decisionTrl,resources/DG.BMP,resources/DB.BMP,Door4,-0.281666641,-0.005833359,1,0,0,0.6305,optionLeft,80,6380,3,25,0,25,0,1,,,,,,,,,,,,,,,,,,,,,,,,,,,,,,,,,,,,,,,
,,,,,,,,2023-08-16_08h48.23.456,HF_wild_card,2022.2.4,Win32,59.97001499,614778280f3a996d2b520388,64d2fd46c836a06233681665,64dc7f339a22856ba1be896b,,,,,,,decisionTrl,resources/DB.BMP,resources/DG.BMP,Door4,0.324166718,-0.103333359,1,0,0,0.6784,optionRight,60,6440,3,26,0,26,0,1,,,,,,,,,,,,,,,,,,,,,,,,,,,,,,,,,,,,,,,
,,,,,,,,2023-08-16_08h48.23.456,HF_wild_card,2022.2.4,Win32,59.97001499,614778280f3a996d2b520388,64d2fd46c836a06233681665,64dc7f339a22856ba1be896b,,,,,,,decisionTrl,resources/DBN.BMP,resources/DR.BMP,Door1,0.345833359,-0.106666679,1,0,0,0.7323,optionRight,30,6470,3,27,0,27,0,1,,,,,,,,,,,,,,,,,,,,,,,,,,,,,,,,,,,,,,,
,,,,,,,,2023-08-16_08h48.23.456,HF_wild_card,2022.2.4,Win32,59.97001499,614778280f3a996d2b520388,64d2fd46c836a06233681665,64dc7f339a22856ba1be896b,,,,,,,sngl,resources/Empty.png,resources/DR.BMP,Door1,0.294166718,-0.090833359,1,0,0,0.698,optionRight,30,6500,3,28,0,28,0,1,,,,,,,,,,,,,,,,,,,,,,,,,,,,,,,,,,,,,,,
,,,,,,,,2023-08-16_08h48.23.456,HF_wild_card,2022.2.4,Win32,59.97001499,614778280f3a996d2b520388,64d2fd46c836a06233681665,64dc7f339a22856ba1be896b,,,,,,,ctch,resources/DBN.BMP,resources/DB.BMP,Door3,0.2425,-0.1225,1,0,0,0.8319,optionRight,70,6570,3,29,0,29,0,1,,,,,,,,,,,,,,,,,,,,,,,,,,,,,,,,,,,,,,,
,,,,,,,,2023-08-16_08h48.23.456,HF_wild_card,2022.2.4,Win32,59.97001499,614778280f3a996d2b520388,64d2fd46c836a06233681665,64dc7f339a22856ba1be896b,,,,,,,decisionTrl,resources/DB.BMP,resources/DG.BMP,Door4,0.293333359,-0.11,1,0,0,1.2481,optionRight,60,6630,3,30,0,30,0,1,,,,,,,,,,,,,,,,,,,,,,,,,,,,,,,,,,,,,,,
,,,,,,,,2023-08-16_08h48.23.456,HF_wild_card,2022.2.4,Win32,59.97001499,614778280f3a996d2b520388,64d2fd46c836a06233681665,64dc7f339a22856ba1be896b,,,,,,,decisionTrl,resources/DBN.BMP,resources/DP.BMP,WildCard_NonEx,0.301666718,-0.101666679,1,0,0,0.6947,optionRight,45,6675,3,31,0,31,0,1,,,,,,,,,,,,,,,,,,,,,,,,,,,,,,,,,,,,,,,
,,,,,,,,2023-08-16_08h48.23.456,HF_wild_card,2022.2.4,Win32,59.97001499,614778280f3a996d2b520388,64d2fd46c836a06233681665,64dc7f339a22856ba1be896b,,,,,,,decisionTrl,resources/DP.BMP,resources/DG.BMP,Door4,0.275,-0.09,1,0,0,0.8202,optionRight,60,6735,3,32,0,32,0,1,,,,,,,,,,,,,,,,,,,,,,,,,,,,,,,,,,,,,,,
,,,,,,,,2023-08-16_08h48.23.456,HF_wild_card,2022.2.4,Win32,59.97001499,614778280f3a996d2b520388,64d2fd46c836a06233681665,64dc7f339a22856ba1be896b,,,,,,,sngl,resources/Empty.png,resources/DG.BMP,Door4,0.424166718,-0.105,1,0,0,0.6318,optionRight,60,6795,3,33,0,33,0,1,,,,,,,,,,,,,,,,,,,,,,,,,,,,,,,,,,,,,,,
,,,,,,,,2023-08-16_08h48.23.456,HF_wild_card,2022.2.4,Win32,59.97001499,614778280f3a996d2b520388,64d2fd46c836a06233681665,64dc7f339a22856ba1be896b,,,,,,,decisionTrl,resources/DR.BMP,resources/DBN.BMP,Door1,-0.255,-0.015833359,1,0,0,0.9823,optionLeft,30,6825,3,34,0,34,0,1,,,,,,,,,,,,,,,,,,,,,,,,,,,,,,,,,,,,,,,
,,,,,,,,2023-08-16_08h48.23.456,HF_wild_card,2022.2.4,Win32,59.97001499,614778280f3a996d2b520388,64d2fd46c836a06233681665,64dc7f339a22856ba1be896b,,,,,,,sngl,resources/DBN.BMP,resources/Empty.png,Door2,-0.5775,0.01,1,0,0,0.6323,optionLeft,40,6865,3,35,0,35,0,1,,,,,,,,,,,,,,,,,,,,,,,,,,,,,,,,,,,,,,,
,,,,,,,,2023-08-16_08h48.23.456,HF_wild_card,2022.2.4,Win32,59.97001499,614778280f3a996d2b520388,64d2fd46c836a06233681665,64dc7f339a22856ba1be896b,,,,,,,decisionTrl,resources/DBN.BMP,resources/DR.BMP,Door1,0.243333359,-0.1075,1,0,0,0.7479,optionRight,30,6895,3,36,0,36,0,1,,,,,,,,,,,,,,,,,,,,,,,,,,,,,,,,,,,,,,,
,,,,,,,,2023-08-16_08h48.23.456,HF_wild_card,2022.2.4,Win32,59.97001499,614778280f3a996d2b520388,64d2fd46c836a06233681665,64dc7f339a22856ba1be896b,,,,,,,sngl,resources/DG.BMP,resources/Empty.png,Door4,-0.27,-0.020833359,1,0,0,0.6618,optionLeft,80,6975,3,37,0,37,0,1,,,,,,,,,,,,,,,,,,,,,,,,,,,,,,,,,,,,,,,
,,,,,,,,2023-08-16_08h48.23.456,HF_wild_card,2022.2.4,Win32,59.97001499,614778280f3a996d2b520388,64d2fd46c836a06233681665,64dc7f339a22856ba1be896b,,,,,,,ctch,resources/DB.BMP,resources/DBN.BMP,Door3,-0.195,-0.064166679,1,0,0,0.629,optionLeft,70,7045,3,38,0,38,0,1,,,,,,,,,,,,,,,,,,,,,,,,,,,,,,,,,,,,,,,
,,,,,,,,2023-08-16_08h48.23.456,HF_wild_card,2022.2.4,Win32,59.97001499,614778280f3a996d2b520388,64d2fd46c836a06233681665,64dc7f339a22856ba1be896b,,,,,,,decisionTrl,resources/DBN.BMP,resources/DR.BMP,Door1,0.376666718,-0.186666718,1,0,0,0.6985,optionRight,30,7075,3,39,0,39,0,1,,,,,,,,,,,,,,,,,,,,,,,,,,,,,,,,,,,,,,,
,,,,,,,,2023-08-16_08h48.23.456,HF_wild_card,2022.2.4,Win32,59.97001499,614778280f3a996d2b520388,64d2fd46c836a06233681665,64dc7f339a22856ba1be896b,,,,,,,decisionTrl,resources/DG.BMP,resources/DB.BMP,Door4,-0.181666641,-0.020833359,1,0,0,0.9307,optionLeft,60,7135,3,40,0,40,0,1,,,,,,,,,,,,,,,,,,,,,,,,,,,,,,,,,,,,,,,
,,,,,,,,2023-08-16_08h48.23.456,HF_wild_card,2022.2.4,Win32,59.97001499,614778280f3a996d2b520388,64d2fd46c836a06233681665,64dc7f339a22856ba1be896b,,,,,,,ctch,resources/DBN.BMP,resources/DB.BMP,Door3,0.378333359,-0.1075,1,0,0,1.3983,optionRight,70,7205,3,41,0,41,0,1,,,,,,,,,,,,,,,,,,,,,,,,,,,,,,,,,,,,,,,
,,,,,,,,2023-08-16_08h48.23.456,HF_wild_card,2022.2.4,Win32,59.97001499,614778280f3a996d2b520388,64d2fd46c836a06233681665,64dc7f339a22856ba1be896b,,,,,,,ctch,resources/DB.BMP,resources/DBN.BMP,Door3,-0.174166641,-0.029166679,1,0,0,1.4932,optionLeft,70,7275,3,42,0,42,0,1,,,,,,,,,,,,,,,,,,,,,,,,,,,,,,,,,,,,,,,
,,,,,,,,2023-08-16_08h48.23.456,HF_wild_card,2022.2.4,Win32,59.97001499,614778280f3a996d2b520388,64d2fd46c836a06233681665,64dc7f339a22856ba1be896b,,,,,,,decisionTrl,resources/DG.BMP,resources/DB.BMP,Door4,-0.1625,-0.018333359,1,0,0,0.7149,optionLeft,80,7355,3,43,0,43,0,1,,,,,,,,,,,,,,,,,,,,,,,,,,,,,,,,,,,,,,,
,,,,,,,,2023-08-16_08h48.23.456,HF_wild_card,2022.2.4,Win32,59.97001499,614778280f3a996d2b520388,64d2fd46c836a06233681665,64dc7f339a22856ba1be896b,,,,,,,,,,,,,,,,,,,,,,,,,,2,0,2,0,1,,,,,,,,,,,,,,,,,,,,,,,,,,,,,,,,,,
,,,,,,,,2023-08-16_08h48.23.456,HF_wild_card,2022.2.4,Win32,59.97001499,614778280f3a996d2b520388,64d2fd46c836a06233681665,64dc7f339a22856ba1be896b,,,,,,,decisionTrl,resources/DY.BMP,resources/DR.BMP,WildCard_Ex,-0.51166666,-0.03,1,0,0,1.2687,optionLeft,55,7410,4,0,0,0,0,1,,,,,,,,,,,,,,,,,,,,,,,,,,,,,,,,,,,,,,,
,,,,,,,,2023-08-16_08h48.23.456,HF_wild_card,2022.2.4,Win32,59.97001499,614778280f3a996d2b520388,64d2fd46c836a06233681665,64dc7f339a22856ba1be896b,,,,,,,sngl,resources/DR.BMP,resources/Empty.png,Door1,-0.2825,-0.009166679,1,0,0,0.5977,optionLeft,30,7440,4,1,0,1,0,1,,,,,,,,,,,,,,,,,,,,,,,,,,,,,,,,,,,,,,,
,,,,,,,,2023-08-16_08h48.23.456,HF_wild_card,2022.2.4,Win32,59.97001499,614778280f3a996d2b520388,64d2fd46c836a06233681665,64dc7f339a22856ba1be896b,,,,,,,decisionTrl,resources/DG.BMP,resources/DB.BMP,Door4,-0.285833321,-0.015833359,1,0,0,0.7982,optionLeft,60,7500,4,2,0,2,0,1,,,,,,,,,,,,,,,,,,,,,,,,,,,,,,,,,,,,,,,
,,,,,,,,2023-08-16_08h48.23.456,HF_wild_card,2022.2.4,Win32,59.97001499,614778280f3a996d2b520388,64d2fd46c836a06233681665,64dc7f339a22856ba1be896b,,,,,,,decisionTrl,resources/DR.BMP,resources/DBN.BMP,Door1,-0.240833321,-0.01,1,0,0,0.8806,optionLeft,30,7530,4,3,0,3,0,1,,,,,,,,,,,,,,,,,,,,,,,,,,,,,,,,,,,,,,,
,,,,,,,,2023-08-16_08h48.23.456,HF_wild_card,2022.2.4,Win32,59.97001499,614778280f3a996d2b520388,64d2fd46c836a06233681665,64dc7f339a22856ba1be896b,,,,,,,decisionTrl,resources/DB.BMP,resources/DG.BMP,Door4,0.290833359,-0.076666679,1,0,0,1.715,optionRight,60,7590,4,4,0,4,0,1,,,,,,,,,,,,,,,,,,,,,,,,,,,,,,,,,,,,,,,
,,,,,,,,2023-08-16_08h48.23.456,HF_wild_card,2022.2.4,Win32,59.97001499,614778280f3a996d2b520388,64d2fd46c836a06233681665,64dc7f339a22856ba1be896b,,,,,,,sngl,resources/Empty.png,resources/DR.BMP,Door1,0.3425,-0.08,1,0,0,0.5245,optionRight,30,7620,4,5,0,5,0,1,,,,,,,,,,,,,,,,,,,,,,,,,,,,,,,,,,,,,,,
,,,,,,,,2023-08-16_08h48.23.456,HF_wild_card,2022.2.4,Win32,59.97001499,614778280f3a996d2b520388,64d2fd46c836a06233681665,64dc7f339a22856ba1be896b,,,,,,,decisionTrl,resources/DR.BMP,resources/DY.BMP,WildCard_Ex,0.331666718,-0.0525,1,0,0,0.8628,optionRight,45,7665,4,6,0,6,0,1,,,,,,,,,,,,,,,,,,,,,,,,,,,,,,,,,,,,,,,
,,,,,,,,2023-08-16_08h48.23.456,HF_wild_card,2022.2.4,Win32,59.97001499,614778280f3a996d2b520388,64d2fd46c836a06233681665,64dc7f339a22856ba1be896b,,,,,,,ctch,resources/DR.BMP,resources/DG.BMP,Door4,0.229166718,-0.065,1,0,0,0.9477,optionRight,80,7745,4,7,0,7,0,1,,,,,,,,,,,,,,,,,,,,,,,,,,,,,,,,,,,,,,,
,,,,,,,,2023-08-16_08h48.23.456,HF_wild_card,2022.2.4,Win32,59.97001499,614778280f3a996d2b520388,64d2fd46c836a06233681665,64dc7f339a22856ba1be896b,,,,,,,decisionTrl,resources/DR.BMP,resources/DBN.BMP,Door1,-0.360833321,0.01,1,0,0,0.6944,optionLeft,30,7775,4,8,0,8,0,1,,,,,,,,,,,,,,,,,,,,,,,,,,,,,,,,,,,,,,,
,,,,,,,,2023-08-16_08h48.23.456,HF_wild_card,2022.2.4,Win32,59.97001499,614778280f3a996d2b520388,64d2fd46c836a06233681665,64dc7f339a22856ba1be896b,,,,,,,decisionTrl,resources/DY.BMP,resources/DG.BMP,WildCard_Ex,-0.251666641,-0.0075,1,0,0,1.0114,optionLeft,55,7830,4,9,0,9,0,1,,,,,,,,,,,,,,,,,,,,,,,,,,,,,,,,,,,,,,,
,,,,,,,,2023-08-16_08h48.23.456,HF_wild_card,2022.2.4,Win32,59.97001499,614778280f3a996d2b520388,64d2fd46c836a06233681665,64dc7f339a22856ba1be896b,,,,,,,ctch,resources/DBN.BMP,resources/DB.BMP,Door3,0.375833359,-0.095,1,0,0,0.6701,optionRight,70,7900,4,10,0,10,0,1,,,,,,,,,,,,,,,,,,,,,,,,,,,,,,,,,,,,,,,
,,,,,,,,2023-08-16_08h48.23.456,HF_wild_card,2022.2.4,Win32,59.97001499,614778280f3a996d2b520388,64d2fd46c836a06233681665,64dc7f339a22856ba1be896b,,,,,,,sngl,resources/DY.BMP,resources/Empty.png,WildCard_Ex,-0.2075,-0.086666679,1,0,0,0.634,optionLeft,55,7955,4,11,0,11,0,1,,,,,,,,,,,,,,,,,,,,,,,,,,,,,,,,,,,,,,,
,,,,,,,,2023-08-16_08h48.23.456,HF_wild_card,2022.2.4,Win32,59.97001499,614778280f3a996d2b520388,64d2fd46c836a06233681665,64dc7f339a22856ba1be896b,,,,,,,ctch,resources/DBN.BMP,resources/DB.BMP,Door3,0.345833359,-0.071666679,1,0,0,0.5984,optionRight,70,8025,4,12,0,12,0,1,,,,,,,,,,,,,,,,,,,,,,,,,,,,,,,,,,,,,,,
,,,,,,,,2023-08-16_08h48.23.456,HF_wild_card,2022.2.4,Win32,59.97001499,614778280f3a996d2b520388,64d2fd46c836a06233681665,64dc7f339a22856ba1be896b,,,,,,,decisionTrl,resources/DG.BMP,resources/DB.BMP,Door4,-0.254166641,-0.023333359,1,0,0,0.7942,optionLeft,80,8105,4,13,0,13,0,1,,,,,,,,,,,,,,,,,,,,,,,,,,,,,,,,,,,,,,,
,,,,,,,,2023-08-16_08h48.23.456,HF_wild_card,2022.2.4,Win32,59.97001499,614778280f3a996d2b520388,64d2fd46c836a06233681665,64dc7f339a22856ba1be896b,,,,,,,sngl,resources/Empty.png,resources/DB.BMP,Door3,0.46,-0.1,1,0,0,0.6157,optionRight,70,8175,4,14,0,14,0,1,,,,,,,,,,,,,,,,,,,,,,,,,,,,,,,,,,,,,,,
,,,,,,,,2023-08-16_08h48.23.456,HF_wild_card,2022.2.4,Win32,59.97001499,614778280f3a996d2b520388,64d2fd46c836a06233681665,64dc7f339a22856ba1be896b,,,,,,,decisionTrl,resources/DG.BMP,resources/DB.BMP,Door4,-0.263333321,-0.043333359,1,0,0,0.7816,optionLeft,80,8255,4,15,0,15,0,1,,,,,,,,,,,,,,,,,,,,,,,,,,,,,,,,,,,,,,,
,,,,,,,,2023-08-16_08h48.23.456,HF_wild_card,2022.2.4,Win32,59.97001499,614778280f3a996d2b520388,64d2fd46c836a06233681665,64dc7f339a22856ba1be896b,,,,,,,decisionTrl,resources/DB.BMP,resources/DG.BMP,Door4,0.23,-0.08,1,0,0,0.7816,optionRight,60,8315,4,16,0,16,0,1,,,,,,,,,,,,,,,,,,,,,,,,,,,,,,,,,,,,,,,
,,,,,,,,2023-08-16_08h48.23.456,HF_wild_card,2022.2.4,Win32,59.97001499,614778280f3a996d2b520388,64d2fd46c836a06233681665,64dc7f339a22856ba1be896b,,,,,,,ctch,resources/DB.BMP,resources/DBN.BMP,Door3,-0.505,-0.061666679,1,0,0,0.6478,optionLeft,70,8385,4,17,0,17,0,1,,,,,,,,,,,,,,,,,,,,,,,,,,,,,,,,,,,,,,,
,,,,,,,,2023-08-16_08h48.23.456,HF_wild_card,2022.2.4,Win32,59.97001499,614778280f3a996d2b520388,64d2fd46c836a06233681665,64dc7f339a22856ba1be896b,,,,,,,sngl,resources/Empty.png,resources/DBN.BMP,Door2,0.209166718,-0.070833359,1,0,0,0.5828,optionRight,40,8425,4,18,0,18,0,1,,,,,,,,,,,,,,,,,,,,,,,,,,,,,,,,,,,,,,,
,,,,,,,,2023-08-16_08h48.23.456,HF_wild_card,2022.2.4,Win32,59.97001499,614778280f3a996d2b520388,64d2fd46c836a06233681665,64dc7f339a22856ba1be896b,,,,,,,decisionTrl,resources/DB.BMP,resources/DG.BMP,Door4,0.351666718,-0.038333359,1,0,0,1.5706,optionRight,80,8505,4,19,0,19,0,1,,,,,,,,,,,,,,,,,,,,,,,,,,,,,,,,,,,,,,,
,,,,,,,,2023-08-16_08h48.23.456,HF_wild_card,2022.2.4,Win32,59.97001499,614778280f3a996d2b520388,64d2fd46c836a06233681665,64dc7f339a22856ba1be896b,,,,,,,sngl,resources/Empty.png,resources/DG.BMP,Door4,0.3825,-0.043333359,1,0,0,0.5806,optionRight,80,8585,4,20,0,20,0,1,,,,,,,,,,,,,,,,,,,,,,,,,,,,,,,,,,,,,,,
,,,,,,,,2023-08-16_08h48.23.456,HF_wild_card,2022.2.4,Win32,59.97001499,614778280f3a996d2b520388,64d2fd46c836a06233681665,64dc7f339a22856ba1be896b,,,,,,,sngl,resources/Empty.png,resources/DY.BMP,WildCard_Ex,0.4925,-0.08,1,0,0,0.5937,optionRight,55,8640,4,21,0,21,0,1,,,,,,,,,,,,,,,,,,,,,,,,,,,,,,,,,,,,,,,
,,,,,,,,2023-08-16_08h48.23.456,HF_wild_card,2022.2.4,Win32,59.97001499,614778280f3a996d2b520388,64d2fd46c836a06233681665,64dc7f339a22856ba1be896b,,,,,,,decisionTrl,resources/DY.BMP,resources/DB.BMP,Door3,0.279166718,-0.076666679,1,0,0,1.6649,optionRight,70,8710,4,22,0,22,0,1,,,,,,,,,,,,,,,,,,,,,,,,,,,,,,,,,,,,,,,
,,,,,,,,2023-08-16_08h48.23.456,HF_wild_card,2022.2.4,Win32,59.97001499,614778280f3a996d2b520388,64d2fd46c836a06233681665,64dc7f339a22856ba1be896b,,,,,,,decisionTrl,resources/DG.BMP,resources/DY.BMP,Door4,-0.2225,0.01,1,0,0,2.5812,optionLeft,80,8790,4,23,0,23,0,1,,,,,,,,,,,,,,,,,,,,,,,,,,,,,,,,,,,,,,,
,,,,,,,,2023-08-16_08h48.23.456,HF_wild_card,2022.2.4,Win32,59.97001499,614778280f3a996d2b520388,64d2fd46c836a06233681665,64dc7f339a22856ba1be896b,,,,,,,decisionTrl,resources/DY.BMP,resources/DBN.BMP,WildCard_Ex,-0.175,-0.024166679,1,0,0,1.2317,optionLeft,55,8845,4,24,0,24,0,1,,,,,,,,,,,,,,,,,,,,,,,,,,,,,,,,,,,,,,,
,,,,,,,,2023-08-16_08h48.23.456,HF_wild_card,2022.2.4,Win32,59.97001499,614778280f3a996d2b520388,64d2fd46c836a06233681665,64dc7f339a22856ba1be896b,,,,,,,ctch,resources/DG.BMP,resources/DR.BMP,Door4,-0.223333321,-0.023333359,1,0,0,0.9984,optionLeft,80,8925,4,25,0,25,0,1,,,,,,,,,,,,,,,,,,,,,,,,,,,,,,,,,,,,,,,
,,,,,,,,2023-08-16_08h48.23.456,HF_wild_card,2022.2.4,Win32,59.97001499,614778280f3a996d2b520388,64d2fd46c836a06233681665,64dc7f339a22856ba1be896b,,,,,,,decisionTrl,resources/DR.BMP,resources/DBN.BMP,Door1,-0.218333321,0.0025,1,0,0,1.0987,optionLeft,30,8955,4,26,0,26,0,1,,,,,,,,,,,,,,,,,,,,,,,,,,,,,,,,,,,,,,,
,,,,,,,,2023-08-16_08h48.23.456,HF_wild_card,2022.2.4,Win32,59.97001499,614778280f3a996d2b520388,64d2fd46c836a06233681665,64dc7f339a22856ba1be896b,,,,,,,sngl,resources/DY.BMP,resources/Empty.png,WildCard_Ex,-0.304166641,-0.020833359,1,0,0,0.5476,optionLeft,45,9000,4,27,0,27,0,1,,,,,,,,,,,,,,,,,,,,,,,,,,,,,,,,,,,,,,,
,,,,,,,,2023-08-16_08h48.23.456,HF_wild_card,2022.2.4,Win32,59.97001499,614778280f3a996d2b520388,64d2fd46c836a06233681665,64dc7f339a22856ba1be896b,,,,,,,sngl,resources/DG.BMP,resources/Empty.png,Door4,-0.269166641,-0.0025,1,0,0,0.6306,optionLeft,60,9060,4,28,0,28,0,1,,,,,,,,,,,,,,,,,,,,,,,,,,,,,,,,,,,,,,,
,,,,,,,,2023-08-16_08h48.23.456,HF_wild_card,2022.2.4,Win32,59.97001499,614778280f3a996d2b520388,64d2fd46c836a06233681665,64dc7f339a22856ba1be896b,,,,,,,decisionTrl,resources/DB.BMP,resources/DG.BMP,Door3,-0.409166641,-0.066666679,1,0,0,0.8647,optionLeft,70,9130,4,29,0,29,0,1,,,,,,,,,,,,,,,,,,,,,,,,,,,,,,,,,,,,,,,
,,,,,,,,2023-08-16_08h48.23.456,HF_wild_card,2022.2.4,Win32,59.97001499,614778280f3a996d2b520388,64d2fd46c836a06233681665,64dc7f339a22856ba1be896b,,,,,,,decisionTrl,resources/DB.BMP,resources/DY.BMP,WildCard_Ex,0.295833359,-0.111666679,1,0,0,0.6191,optionRight,55,9185,4,30,0,30,0,1,,,,,,,,,,,,,,,,,,,,,,,,,,,,,,,,,,,,,,,
,,,,,,,,2023-08-16_08h48.23.456,HF_wild_card,2022.2.4,Win32,59.97001499,614778280f3a996d2b520388,64d2fd46c836a06233681665,64dc7f339a22856ba1be896b,,,,,,,decisionTrl,resources/DR.BMP,resources/DBN.BMP,Door1,-0.2275,-0.028333359,1,0,0,0.7658,optionLeft,30,9215,4,31,0,31,0,1,,,,,,,,,,,,,,,,,,,,,,,,,,,,,,,,,,,,,,,
,,,,,,,,2023-08-16_08h48.23.456,HF_wild_card,2022.2.4,Win32,59.97001499,614778280f3a996d2b520388,64d2fd46c836a06233681665,64dc7f339a22856ba1be896b,,,,,,,sngl,resources/DB.BMP,resources/Empty.png,Door3,-0.333333321,-0.003333359,1,0,0,0.5431,optionLeft,70,9285,4,32,0,32,0,1,,,,,,,,,,,,,,,,,,,,,,,,,,,,,,,,,,,,,,,
,,,,,,,,2023-08-16_08h48.23.456,HF_wild_card,2022.2.4,Win32,59.97001499,614778280f3a996d2b520388,64d2fd46c836a06233681665,64dc7f339a22856ba1be896b,,,,,,,sngl,resources/DBN.BMP,resources/Empty.png,Door2,-0.330833321,-0.053333359,1,0,0,0.58,optionLeft,20,9305,4,33,0,33,0,1,,,,,,,,,,,,,,,,,,,,,,,,,,,,,,,,,,,,,,,
,,,,,,,,2023-08-16_08h48.23.456,HF_wild_card,2022.2.4,Win32,59.97001499,614778280f3a996d2b520388,64d2fd46c836a06233681665,64dc7f339a22856ba1be896b,,,,,,,ctch,resources/DR.BMP,resources/DG.BMP,Door4,0.239166718,-0.089166679,1,0,0,0.8476,optionRight,80,9385,4,34,0,34,0,1,,,,,,,,,,,,,,,,,,,,,,,,,,,,,,,,,,,,,,,
,,,,,,,,2023-08-16_08h48.23.456,HF_wild_card,2022.2.4,Win32,59.97001499,614778280f3a996d2b520388,64d2fd46c836a06233681665,64dc7f339a22856ba1be896b,,,,,,,decisionTrl,resources/DBN.BMP,resources/DR.BMP,Door1,0.289166718,-0.0275,1,0,0,1.331,optionRight,30,9415,4,35,0,35,0,1,,,,,,,,,,,,,,,,,,,,,,,,,,,,,,,,,,,,,,,
,,,,,,,,2023-08-16_08h48.23.456,HF_wild_card,2022.2.4,Win32,59.97001499,614778280f3a996d2b520388,64d2fd46c836a06233681665,64dc7f339a22856ba1be896b,,,,,,,decisionTrl,resources/DBN.BMP,resources/DY.BMP,WildCard_Ex,0.460833359,-0.106666679,1,0,0,0.7611,optionRight,45,9460,4,36,0,36,0,1,,,,,,,,,,,,,,,,,,,,,,,,,,,,,,,,,,,,,,,
,,,,,,,,2023-08-16_08h48.23.456,HF_wild_card,2022.2.4,Win32,59.97001499,614778280f3a996d2b520388,64d2fd46c836a06233681665,64dc7f339a22856ba1be896b,,,,,,,sngl,resources/Empty.png,resources/DY.BMP,WildCard_Ex,0.198333359,-0.045833359,1,0,0,1.0147,optionRight,45,9505,4,37,0,37,0,1,,,,,,,,,,,,,,,,,,,,,,,,,,,,,,,,,,,,,,,
,,,,,,,,2023-08-16_08h48.23.456,HF_wild_card,2022.2.4,Win32,59.97001499,614778280f3a996d2b520388,64d2fd46c836a06233681665,64dc7f339a22856ba1be896b,,,,,,,ctch,resources/DB.BMP,resources/DBN.BMP,Door3,-0.340833321,-0.1025,1,0,0,0.6147,optionLeft,70,9575,4,38,0,38,0,1,,,,,,,,,,,,,,,,,,,,,,,,,,,,,,,,,,,,,,,
,,,,,,,,2023-08-16_08h48.23.456,HF_wild_card,2022.2.4,Win32,59.97001499,614778280f3a996d2b520388,64d2fd46c836a06233681665,64dc7f339a22856ba1be896b,,,,,,,decisionTrl,resources/DBN.BMP,resources/DR.BMP,Door1,0.235,-0.1275,1,0,0,0.6643,optionRight,30,9605,4,39,0,39,0,1,,,,,,,,,,,,,,,,,,,,,,,,,,,,,,,,,,,,,,,
,,,,,,,,2023-08-16_08h48.23.456,HF_wild_card,2022.2.4,Win32,59.97001499,614778280f3a996d2b520388,64d2fd46c836a06233681665,64dc7f339a22856ba1be896b,,,,,,,decisionTrl,resources/DBN.BMP,resources/DR.BMP,Door1,0.100833359,-0.091666679,1,0,0,0.9322,optionRight,30,9635,4,40,0,40,0,1,,,,,,,,,,,,,,,,,,,,,,,,,,,,,,,,,,,,,,,
,,,,,,,,2023-08-16_08h48.23.456,HF_wild_card,2022.2.4,Win32,59.97001499,614778280f3a996d2b520388,64d2fd46c836a06233681665,64dc7f339a22856ba1be896b,,,,,,,ctch,resources/DG.BMP,resources/DR.BMP,Door4,-0.35,-0.130833359,1,0,0,0.565,optionLeft,60,9695,4,41,0,41,0,1,,,,,,,,,,,,,,,,,,,,,,,,,,,,,,,,,,,,,,,
,,,,,,,,2023-08-16_08h48.23.456,HF_wild_card,2022.2.4,Win32,59.97001499,614778280f3a996d2b520388,64d2fd46c836a06233681665,64dc7f339a22856ba1be896b,,,,,,,decisionTrl,resources/DG.BMP,resources/DB.BMP,Door4,-0.256666641,-0.050833359,1,0,0,1.045,optionLeft,60,9755,4,42,0,42,0,1,,,,,,,,,,,,,,,,,,,,,,,,,,,,,,,,,,,,,,,
,,,,,,,,2023-08-16_08h48.23.456,HF_wild_card,2022.2.4,Win32,59.97001499,614778280f3a996d2b520388,64d2fd46c836a06233681665,64dc7f339a22856ba1be896b,,,,,,,decisionTrl,resources/DBN.BMP,resources/DR.BMP,Door1,0.383333359,-0.185833359,1,0,0,0.6648,optionRight,30,9785,4,43,0,43,0,1,,,,,,,,,,,,,,,,,,,,,,,,,,,,,,,,,,,,,,,
,,,,,,,,2023-08-16_08h48.23.456,HF_wild_card,2022.2.4,Win32,59.97001499,614778280f3a996d2b520388,64d2fd46c836a06233681665,64dc7f339a22856ba1be896b,,,,,,,,,,,,,,,,,,,,,,,,,,3,0,3,0,1,,,,,,,,,,,,,,,,,,,,,,,,,,,,,,,,,,
,,,,,,,,2023-08-16_08h48.23.456,HF_wild_card,2022.2.4,Win32,59.97001499,614778280f3a996d2b520388,64d2fd46c836a06233681665,64dc7f339a22856ba1be896b,,,,,,,decisionTrl,resources/DG.BMP,resources/DB.BMP,Door3,0.308333359,-0.140833359,1,0,0,1.6426,optionRight,70,9855,5,0,0,0,0,1,,,,,,,,,,,,,,,,,,,,,,,,,,,,,,,,,,,,,,,
,,,,,,,,2023-08-16_08h48.23.456,HF_wild_card,2022.2.4,Win32,59.97001499,614778280f3a996d2b520388,64d2fd46c836a06233681665,64dc7f339a22856ba1be896b,,,,,,,sngl,resources/DB.BMP,resources/Empty.png,Door3,-0.285,-0.026666679,1,0,0,0.5501,optionLeft,70,9925,5,1,0,1,0,1,,,,,,,,,,,,,,,,,,,,,,,,,,,,,,,,,,,,,,,
,,,,,,,,2023-08-16_08h48.23.456,HF_wild_card,2022.2.4,Win32,59.97001499,614778280f3a996d2b520388,64d2fd46c836a06233681665,64dc7f339a22856ba1be896b,,,,,,,sngl,resources/Empty.png,resources/DBN.BMP,Door2,0.285833359,-0.070833359,1,0,0,0.6816,optionRight,20,9945,5,2,0,2,0,1,,,,,,,,,,,,,,,,,,,,,,,,,,,,,,,,,,,,,,,
,,,,,,,,2023-08-16_08h48.23.456,HF_wild_card,2022.2.4,Win32,59.97001499,614778280f3a996d2b520388,64d2fd46c836a06233681665,64dc7f339a22856ba1be896b,,,,,,,ctch,resources/DR.BMP,resources/DG.BMP,Door4,0.354166718,-0.048333359,1,0,0,0.7977,optionRight,60,10005,5,3,0,3,0,1,,,,,,,,,,,,,,,,,,,,,,,,,,,,,,,,,,,,,,,
,,,,,,,,2023-08-16_08h48.23.456,HF_wild_card,2022.2.4,Win32,59.97001499,614778280f3a996d2b520388,64d2fd46c836a06233681665,64dc7f339a22856ba1be896b,,,,,,,decisionTrl,resources/DBN.BMP,resources/DR.BMP,Door1,0.274166718,-0.060833359,1,0,0,0.7369,optionRight,30,10035,5,4,0,4,0,1,,,,,,,,,,,,,,,,,,,,,,,,,,,,,,,,,,,,,,,
,,,,,,,,2023-08-16_08h48.23.456,HF_wild_card,2022.2.4,Win32,59.97001499,614778280f3a996d2b520388,64d2fd46c836a06233681665,64dc7f339a22856ba1be896b,,,,,,,ctch,resources/DB.BMP,resources/DBN.BMP,Door3,-0.239166641,-0.030833359,1,0,0,0.6953,optionLeft,70,10105,5,5,0,5,0,1,,,,,,,,,,,,,,,,,,,,,,,,,,,,,,,,,,,,,,,
,,,,,,,,2023-08-16_08h48.23.456,HF_wild_card,2022.2.4,Win32,59.97001499,614778280f3a996d2b520388,64d2fd46c836a06233681665,64dc7f339a22856ba1be896b,,,,,,,decisionTrl,resources/DY.BMP,resources/DG.BMP,Door4,0.3125,-0.0725,1,0,0,0.7146,optionRight,60,10165,5,6,0,6,0,1,,,,,,,,,,,,,,,,,,,,,,,,,,,,,,,,,,,,,,,
,,,,,,,,2023-08-16_08h48.23.456,HF_wild_card,2022.2.4,Win32,59.97001499,614778280f3a996d2b520388,64d2fd46c836a06233681665,64dc7f339a22856ba1be896b,,,,,,,decisionTrl,resources/DG.BMP,resources/DB.BMP,Door4,-0.239166641,-0.004166679,1,0,0,0.6636,optionLeft,80,10245,5,7,0,7,0,1,,,,,,,,,,,,,,,,,,,,,,,,,,,,,,,,,,,,,,,
,,,,,,,,2023-08-16_08h48.23.456,HF_wild_card,2022.2.4,Win32,59.97001499,614778280f3a996d2b520388,64d2fd46c836a06233681665,64dc7f339a22856ba1be896b,,,,,,,sngl,resources/Empty.png,resources/DG.BMP,Door4,0.4075,-0.066666679,1,0,0,0.6313,optionRight,60,10305,5,8,0,8,0,1,,,,,,,,,,,,,,,,,,,,,,,,,,,,,,,,,,,,,,,
,,,,,,,,2023-08-16_08h48.23.456,HF_wild_card,2022.2.4,Win32,59.97001499,614778280f3a996d2b520388,64d2fd46c836a06233681665,64dc7f339a22856ba1be896b,,,,,,,decisionTrl,resources/DB.BMP,resources/DG.BMP,Door3,-0.1875,-0.020833359,1,0,0,0.9484,optionLeft,70,10375,5,9,0,9,0,1,,,,,,,,,,,,,,,,,,,,,,,,,,,,,,,,,,,,,,,
,,,,,,,,2023-08-16_08h48.23.456,HF_wild_card,2022.2.4,Win32,59.97001499,614778280f3a996d2b520388,64d2fd46c836a06233681665,64dc7f339a22856ba1be896b,,,,,,,decisionTrl,resources/DG.BMP,resources/DB.BMP,Door4,-0.2,-0.008333359,1,0,0,0.7154,optionLeft,60,10435,5,10,0,10,0,1,,,,,,,,,,,,,,,,,,,,,,,,,,,,,,,,,,,,,,,
,,,,,,,,2023-08-16_08h48.23.456,HF_wild_card,2022.2.4,Win32,59.97001499,614778280f3a996d2b520388,64d2fd46c836a06233681665,64dc7f339a22856ba1be896b,,,,,,,decisionTrl,resources/DR.BMP,resources/DBN.BMP,Door1,-0.239166641,-0.025833359,1,0,0,0.7491,optionLeft,30,10465,5,11,0,11,0,1,,,,,,,,,,,,,,,,,,,,,,,,,,,,,,,,,,,,,,,
,,,,,,,,2023-08-16_08h48.23.456,HF_wild_card,2022.2.4,Win32,59.97001499,614778280f3a996d2b520388,64d2fd46c836a06233681665,64dc7f339a22856ba1be896b,,,,,,,decisionTrl,resources/DR.BMP,resources/DBN.BMP,Door2,0.216666718,-0.103333359,1,0,0,0.5815,optionRight,20,10485,5,12,0,12,0,1,,,,,,,,,,,,,,,,,,,,,,,,,,,,,,,,,,,,,,,
,,,,,,,,2023-08-16_08h48.23.456,HF_wild_card,2022.2.4,Win32,59.97001499,614778280f3a996d2b520388,64d2fd46c836a06233681665,64dc7f339a22856ba1be896b,,,,,,,sngl,resources/Empty.png,resources/DR.BMP,Door1,0.665833435,-0.1275,1,0,0,0.5813,optionRight,30,10515,5,13,0,13,0,1,,,,,,,,,,,,,,,,,,,,,,,,,,,,,,,,,,,,,,,
,,,,,,,,2023-08-16_08h48.23.456,HF_wild_card,2022.2.4,Win32,59.97001499,614778280f3a996d2b520388,64d2fd46c836a06233681665,64dc7f339a22856ba1be896b,,,,,,,sngl,resources/DY.BMP,resources/Empty.png,WildCard_Ex,-0.3,-0.0075,1,0,0,0.4812,optionLeft,55,10570,5,14,0,14,0,1,,,,,,,,,,,,,,,,,,,,,,,,,,,,,,,,,,,,,,,
,,,,,,,,2023-08-16_08h48.23.456,HF_wild_card,2022.2.4,Win32,59.97001499,614778280f3a996d2b520388,64d2fd46c836a06233681665,64dc7f339a22856ba1be896b,,,,,,,decisionTrl,resources/DB.BMP,resources/DG.BMP,Door4,0.255,-0.035833359,1,0,0,1.4345,optionRight,60,10630,5,15,0,15,0,1,,,,,,,,,,,,,,,,,,,,,,,,,,,,,,,,,,,,,,,
,,,,,,,,2023-08-16_08h48.23.456,HF_wild_card,2022.2.4,Win32,59.97001499,614778280f3a996d2b520388,64d2fd46c836a06233681665,64dc7f339a22856ba1be896b,,,,,,,ctch,resources/DG.BMP,resources/DR.BMP,Door4,-0.133333282,-0.029166679,1,0,0,1.6435,optionLeft,80,10710,5,16,0,16,0,1,,,,,,,,,,,,,,,,,,,,,,,,,,,,,,,,,,,,,,,
,,,,,,,,2023-08-16_08h48.23.456,HF_wild_card,2022.2.4,Win32,59.97001499,614778280f3a996d2b520388,64d2fd46c836a06233681665,64dc7f339a22856ba1be896b,,,,,,,sngl,resources/Empty.png,resources/DY.BMP,WildCard_Ex,0.256666718,-0.100833359,1,0,0,0.7156,optionRight,45,10755,5,17,0,17,0,1,,,,,,,,,,,,,,,,,,,,,,,,,,,,,,,,,,,,,,,
,,,,,,,,2023-08-16_08h48.23.456,HF_wild_card,2022.2.4,Win32,59.97001499,614778280f3a996d2b520388,64d2fd46c836a06233681665,64dc7f339a22856ba1be896b,,,,,,,ctch,resources/DBN.BMP,resources/DB.BMP,Door3,0.1625,-0.130833359,1,0,0,0.8378,optionRight,70,10825,5,18,0,18,0,1,,,,,,,,,,,,,,,,,,,,,,,,,,,,,,,,,,,,,,,
,,,,,,,,2023-08-16_08h48.23.456,HF_wild_card,2022.2.4,Win32,59.97001499,614778280f3a996d2b520388,64d2fd46c836a06233681665,64dc7f339a22856ba1be896b,,,,,,,sngl,resources/DBN.BMP,resources/Empty.png,Door2,-0.090833282,-0.0275,1,0,0,0.6979,optionLeft,40,10865,5,19,0,19,0,1,,,,,,,,,,,,,,,,,,,,,,,,,,,,,,,,,,,,,,,
,,,,,,,,2023-08-16_08h48.23.456,HF_wild_card,2022.2.4,Win32,59.97001499,614778280f3a996d2b520388,64d2fd46c836a06233681665,64dc7f339a22856ba1be896b,,,,,,,decisionTrl,resources/DG.BMP,resources/DY.BMP,Door4,-0.181666641,-0.0525,1,0,0,1.6122,optionLeft,80,10945,5,20,0,20,0,1,,,,,,,,,,,,,,,,,,,,,,,,,,,,,,,,,,,,,,,
,,,,,,,,2023-08-16_08h48.23.456,HF_wild_card,2022.2.4,Win32,59.97001499,614778280f3a996d2b520388,64d2fd46c836a06233681665,64dc7f339a22856ba1be896b,,,,,,,decisionTrl,resources/DBN.BMP,resources/DR.BMP,Door1,0.2325,-0.11,1,0,0,0.7628,optionRight,30,10975,5,21,0,21,0,1,,,,,,,,,,,,,,,,,,,,,,,,,,,,,,,,,,,,,,,
,,,,,,,,2023-08-16_08h48.23.456,HF_wild_card,2022.2.4,Win32,59.97001499,614778280f3a996d2b520388,64d2fd46c836a06233681665,64dc7f339a22856ba1be896b,,,,,,,decisionTrl,resources/DBN.BMP,resources/DR.BMP,Door1,0.2975,-0.1175,1,0,0,0.8153,optionRight,30,11005,5,22,0,22,0,1,,,,,,,,,,,,,,,,,,,,,,,,,,,,,,,,,,,,,,,
,,,,,,,,2023-08-16_08h48.23.456,HF_wild_card,2022.2.4,Win32,59.97001499,614778280f3a996d2b520388,64d2fd46c836a06233681665,64dc7f339a22856ba1be896b,,,,,,,ctch,resources/DR.BMP,resources/DG.BMP,Door4,0.2375,-0.08,1,0,0,0.9877,optionRight,80,11085,5,23,0,23,0,1,,,,,,,,,,,,,,,,,,,,,,,,,,,,,,,,,,,,,,,
,,,,,,,,2023-08-16_08h48.23.456,HF_wild_card,2022.2.4,Win32,59.97001499,614778280f3a996d2b520388,64d2fd46c836a06233681665,64dc7f339a22856ba1be896b,,,,,,,decisionTrl,resources/DR.BMP,resources/DY.BMP,WildCard_Ex,0.414166718,-0.155,1,0,0,0.5812,optionRight,45,11130,5,24,0,24,0,1,,,,,,,,,,,,,,,,,,,,,,,,,,,,,,,,,,,,,,,
,,,,,,,,2023-08-16_08h48.23.456,HF_wild_card,2022.2.4,Win32,59.97001499,614778280f3a996d2b520388,64d2fd46c836a06233681665,64dc7f339a22856ba1be896b,,,,,,,decisionTrl,resources/DB.BMP,resources/DY.BMP,Door3,-0.423333321,-0.0225,1,0,0,0.8208,optionLeft,70,11200,5,25,0,25,0,1,,,,,,,,,,,,,,,,,,,,,,,,,,,,,,,,,,,,,,,
,,,,,,,,2023-08-16_08h48.23.456,HF_wild_card,2022.2.4,Win32,59.97001499,614778280f3a996d2b520388,64d2fd46c836a06233681665,64dc7f339a22856ba1be896b,,,,,,,sngl,resources/DY.BMP,resources/Empty.png,WildCard_Ex,-0.435833321,-0.015,1,0,0,0.6148,optionLeft,45,11245,5,26,0,26,0,1,,,,,,,,,,,,,,,,,,,,,,,,,,,,,,,,,,,,,,,
,,,,,,,,2023-08-16_08h48.23.456,HF_wild_card,2022.2.4,Win32,59.97001499,614778280f3a996d2b520388,64d2fd46c836a06233681665,64dc7f339a22856ba1be896b,,,,,,,sngl,resources/Empty.png,resources/DY.BMP,WildCard_Ex,0.365833359,-0.186666718,1,0,0,0.5822,optionRight,55,11300,5,27,0,27,0,1,,,,,,,,,,,,,,,,,,,,,,,,,,,,,,,,,,,,,,,
,,,,,,,,2023-08-16_08h48.23.456,HF_wild_card,2022.2.4,Win32,59.97001499,614778280f3a996d2b520388,64d2fd46c836a06233681665,64dc7f339a22856ba1be896b,,,,,,,decisionTrl,resources/DY.BMP,resources/DR.BMP,Door1,0.33,-0.045,1,0,0,1.3812,optionRight,30,11330,5,28,0,28,0,1,,,,,,,,,,,,,,,,,,,,,,,,,,,,,,,,,,,,,,,
,,,,,,,,2023-08-16_08h48.23.456,HF_wild_card,2022.2.4,Win32,59.97001499,614778280f3a996d2b520388,64d2fd46c836a06233681665,64dc7f339a22856ba1be896b,,,,,,,decisionTrl,resources/DB.BMP,resources/DG.BMP,Door4,0.3625,-0.045833359,1,0,0,1.5265,optionRight,80,11410,5,29,0,29,0,1,,,,,,,,,,,,,,,,,,,,,,,,,,,,,,,,,,,,,,,
,,,,,,,,2023-08-16_08h48.23.456,HF_wild_card,2022.2.4,Win32,59.97001499,614778280f3a996d2b520388,64d2fd46c836a06233681665,64dc7f339a22856ba1be896b,,,,,,,sngl,resources/DR.BMP,resources/Empty.png,Door1,-0.226666641,-0.041666679,1,0,0,0.8263,optionLeft,30,11440,5,30,0,30,0,1,,,,,,,,,,,,,,,,,,,,,,,,,,,,,,,,,,,,,,,
,,,,,,,,2023-08-16_08h48.23.456,HF_wild_card,2022.2.4,Win32,59.97001499,614778280f3a996d2b520388,64d2fd46c836a06233681665,64dc7f339a22856ba1be896b,,,,,,,decisionTrl,resources/DG.BMP,resources/DB.BMP,Door4,-0.260833321,-0.065833359,1,0,0,0.947,optionLeft,80,11520,5,31,0,31,0,1,,,,,,,,,,,,,,,,,,,,,,,,,,,,,,,,,,,,,,,
,,,,,,,,2023-08-16_08h48.23.456,HF_wild_card,2022.2.4,Win32,59.97001499,614778280f3a996d2b520388,64d2fd46c836a06233681665,64dc7f339a22856ba1be896b,,,,,,,sngl,resources/Empty.png,resources/DB.BMP,Door3,0.295833359,-0.055,1,0,0,0.5278,optionRight,70,11590,5,32,0,32,0,1,,,,,,,,,,,,,,,,,,,,,,,,,,,,,,,,,,,,,,,
,,,,,,,,2023-08-16_08h48.23.456,HF_wild_card,2022.2.4,Win32,59.97001499,614778280f3a996d2b520388,64d2fd46c836a06233681665,64dc7f339a22856ba1be896b,,,,,,,ctch,resources/DBN.BMP,resources/DB.BMP,Door3,0.36,-0.1225,1,0,0,2.4147,optionRight,70,11660,5,33,0,33,0,1,,,,,,,,,,,,,,,,,,,,,,,,,,,,,,,,,,,,,,,
,,,,,,,,2023-08-16_08h48.23.456,HF_wild_card,2022.2.4,Win32,59.97001499,614778280f3a996d2b520388,64d2fd46c836a06233681665,64dc7f339a22856ba1be896b,,,,,,,ctch,resources/DG.BMP,resources/DR.BMP,Door4,-0.355833321,-0.054166679,1,0,0,1.1457,optionLeft,60,11720,5,34,0,34,0,1,,,,,,,,,,,,,,,,,,,,,,,,,,,,,,,,,,,,,,,
,,,,,,,,2023-08-16_08h48.23.456,HF_wild_card,2022.2.4,Win32,59.97001499,614778280f3a996d2b520388,64d2fd46c836a06233681665,64dc7f339a22856ba1be896b,,,,,,,ctch,resources/DB.BMP,resources/DBN.BMP,Door3,-0.493333321,-0.04,1,0,0,0.7651,optionLeft,70,11790,5,35,0,35,0,1,,,,,,,,,,,,,,,,,,,,,,,,,,,,,,,,,,,,,,,
,,,,,,,,2023-08-16_08h48.23.456,HF_wild_card,2022.2.4,Win32,59.97001499,614778280f3a996d2b520388,64d2fd46c836a06233681665,64dc7f339a22856ba1be896b,,,,,,,decisionTrl,resources/DBN.BMP,resources/DY.BMP,WildCard_Ex,0.325,-0.213333359,1,0,0,0.8653,optionRight,55,11845,5,36,0,36,0,1,,,,,,,,,,,,,,,,,,,,,,,,,,,,,,,,,,,,,,,
,,,,,,,,2023-08-16_08h48.23.456,HF_wild_card,2022.2.4,Win32,59.97001499,614778280f3a996d2b520388,64d2fd46c836a06233681665,64dc7f339a22856ba1be896b,,,,,,,decisionTrl,resources/DR.BMP,resources/DBN.BMP,Door1,-0.205833321,-0.038333359,1,0,0,0.6303,optionLeft,30,11875,5,37,0,37,0,1,,,,,,,,,,,,,,,,,,,,,,,,,,,,,,,,,,,,,,,
,,,,,,,,2023-08-16_08h48.23.456,HF_wild_card,2022.2.4,Win32,59.97001499,614778280f3a996d2b520388,64d2fd46c836a06233681665,64dc7f339a22856ba1be896b,,,,,,,decisionTrl,resources/DY.BMP,resources/DBN.BMP,WildCard_Ex,-0.200833321,0.0125,1,0,0,0.7649,optionLeft,45,11920,5,38,0,38,0,1,,,,,,,,,,,,,,,,,,,,,,,,,,,,,,,,,,,,,,,
,,,,,,,,2023-08-16_08h48.23.456,HF_wild_card,2022.2.4,Win32,59.97001499,614778280f3a996d2b520388,64d2fd46c836a06233681665,64dc7f339a22856ba1be896b,,,,,,,sngl,resources/DG.BMP,resources/Empty.png,Door4,-0.2025,0.0025,1,0,0,0.593,optionLeft,80,12000,5,39,0,39,0,1,,,,,,,,,,,,,,,,,,,,,,,,,,,,,,,,,,,,,,,
,,,,,,,,2023-08-16_08h48.23.456,HF_wild_card,2022.2.4,Win32,59.97001499,614778280f3a996d2b520388,64d2fd46c836a06233681665,64dc7f339a22856ba1be896b,,,,,,,decisionTrl,resources/DBN.BMP,resources/DR.BMP,Door1,0.28,-0.1075,1,0,0,0.8488,optionRight,30,12030,5,40,0,40,0,1,,,,,,,,,,,,,,,,,,,,,,,,,,,,,,,,,,,,,,,
,,,,,,,,2023-08-16_08h48.23.456,HF_wild_card,2022.2.4,Win32,59.97001499,614778280f3a996d2b520388,64d2fd46c836a06233681665,64dc7f339a22856ba1be896b,,,,,,,decisionTrl,resources/DR.BMP,resources/DBN.BMP,Door1,-0.183333321,-0.045833359,1,0,0,0.5937,optionLeft,30,12060,5,41,0,41,0,1,,,,,,,,,,,,,,,,,,,,,,,,,,,,,,,,,,,,,,,
,,,,,,,,2023-08-16_08h48.23.456,HF_wild_card,2022.2.4,Win32,59.97001499,614778280f3a996d2b520388,64d2fd46c836a06233681665,64dc7f339a22856ba1be896b,,,,,,,decisionTrl,resources/DB.BMP,resources/DG.BMP,Door3,-0.28,-0.1075,1,0,0,1.0108,optionLeft,70,12130,5,42,0,42,0,1,,,,,,,,,,,,,,,,,,,,,,,,,,,,,,,,,,,,,,,
,,,,,,,,2023-08-16_08h48.23.456,HF_wild_card,2022.2.4,Win32,59.97001499,614778280f3a996d2b520388,64d2fd46c836a06233681665,64dc7f339a22856ba1be896b,,,,,,,decisionTrl,resources/DY.BMP,resources/DB.BMP,Door3,0.346666718,-0.1375,1,0,0,0.8816,optionRight,70,12200,5,43,0,43,0,1,,,,,,,,,,,,,,,,,,,,,,,,,,,,,,,,,,,,,,,
,,,,,,,,2023-08-16_08h48.23.456,HF_wild_card,2022.2.4,Win32,59.97001499,614778280f3a996d2b520388,64d2fd46c836a06233681665,64dc7f339a22856ba1be896b,,,,,,,,,,,,,,,,,,,,,,,,,,4,0,4,0,1,,,,,,,,,,,,,,,,,,,,,,,,,,,,,,,,,,
,,,,,,,,2023-08-16_08h48.23.456,HF_wild_card,2022.2.4,Win32,59.97001499,614778280f3a996d2b520388,64d2fd46c836a06233681665,64dc7f339a22856ba1be896b,,,,,,,decisionTrl,resources/DB.BMP,resources/DY.BMP,Door3,-0.245833321,-0.178333359,1,0,0,1.1928,optionLeft,70,12270,6,0,0,0,0,1,,,,,,,,,,,,,,,,,,,,,,,,,,,,,,,,,,,,,,,
,,,,,,,,2023-08-16_08h48.23.456,HF_wild_card,2022.2.4,Win32,59.97001499,614778280f3a996d2b520388,64d2fd46c836a06233681665,64dc7f339a22856ba1be896b,,,,,,,decisionTrl,resources/DR.BMP,resources/DBN.BMP,Door1,-0.290833321,0.003333321,1,0,0,0.638,optionLeft,30,12300,6,1,0,1,0,1,,,,,,,,,,,,,,,,,,,,,,,,,,,,,,,,,,,,,,,
,,,,,,,,2023-08-16_08h48.23.456,HF_wild_card,2022.2.4,Win32,59.97001499,614778280f3a996d2b520388,64d2fd46c836a06233681665,64dc7f339a22856ba1be896b,,,,,,,sngl,resources/DG.BMP,resources/Empty.png,Door4,-0.14,-0.011666679,1,0,0,0.5971,optionLeft,60,12360,6,2,0,2,0,1,,,,,,,,,,,,,,,,,,,,,,,,,,,,,,,,,,,,,,,
,,,,,,,,2023-08-16_08h48.23.456,HF_wild_card,2022.2.4,Win32,59.97001499,614778280f3a996d2b520388,64d2fd46c836a06233681665,64dc7f339a22856ba1be896b,,,,,,,decisionTrl,resources/DG.BMP,resources/DB.BMP,Door4,-0.270833321,-0.015833359,1,0,0,0.8988,optionLeft,80,12440,6,3,0,3,0,1,,,,,,,,,,,,,,,,,,,,,,,,,,,,,,,,,,,,,,,
,,,,,,,,2023-08-16_08h48.23.456,HF_wild_card,2022.2.4,Win32,59.97001499,614778280f3a996d2b520388,64d2fd46c836a06233681665,64dc7f339a22856ba1be896b,,,,,,,sngl,resources/DY.BMP,resources/Empty.png,WildCard_Ex,-0.355833321,0.003333321,1,0,0,0.5654,optionLeft,45,12485,6,4,0,4,0,1,,,,,,,,,,,,,,,,,,,,,,,,,,,,,,,,,,,,,,,
,,,,,,,,2023-08-16_08h48.23.456,HF_wild_card,2022.2.4,Win32,59.97001499,614778280f3a996d2b520388,64d2fd46c836a06233681665,64dc7f339a22856ba1be896b,,,,,,,decisionTrl,resources/DG.BMP,resources/DB.BMP,Door4,-0.160833321,-0.008333359,1,0,0,0.8896,optionLeft,80,12565,6,5,0,5,0,1,,,,,,,,,,,,,,,,,,,,,,,,,,,,,,,,,,,,,,,
,,,,,,,,2023-08-16_08h48.23.456,HF_wild_card,2022.2.4,Win32,59.97001499,614778280f3a996d2b520388,64d2fd46c836a06233681665,64dc7f339a22856ba1be896b,,,,,,,sngl,resources/Empty.png,resources/DB.BMP,Door3,0.310833359,-0.0875,1,0,0,0.615,optionRight,70,12635,6,6,0,6,0,1,,,,,,,,,,,,,,,,,,,,,,,,,,,,,,,,,,,,,,,
,,,,,,,,2023-08-16_08h48.23.456,HF_wild_card,2022.2.4,Win32,59.97001499,614778280f3a996d2b520388,64d2fd46c836a06233681665,64dc7f339a22856ba1be896b,,,,,,,decisionTrl,resources/DR.BMP,resources/DBN.BMP,Door1,-0.285,-0.025833359,1,0,0,0.6478,optionLeft,30,12665,6,7,0,7,0,1,,,,,,,,,,,,,,,,,,,,,,,,,,,,,,,,,,,,,,,
,,,,,,,,2023-08-16_08h48.23.456,HF_wild_card,2022.2.4,Win32,59.97001499,614778280f3a996d2b520388,64d2fd46c836a06233681665,64dc7f339a22856ba1be896b,,,,,,,ctch,resources/DB.BMP,resources/DBN.BMP,Door3,-0.196666641,-0.005833359,1,0,0,0.7153,optionLeft,70,12735,6,8,0,8,0,1,,,,,,,,,,,,,,,,,,,,,,,,,,,,,,,,,,,,,,,
,,,,,,,,2023-08-16_08h48.23.456,HF_wild_card,2022.2.4,Win32,59.97001499,614778280f3a996d2b520388,64d2fd46c836a06233681665,64dc7f339a22856ba1be896b,,,,,,,sngl,resources/Empty.png,resources/DY.BMP,WildCard_Ex,0.386666718,-0.109166679,1,0,0,0.7022,optionRight,45,12780,6,9,0,9,0,1,,,,,,,,,,,,,,,,,,,,,,,,,,,,,,,,,,,,,,,
,,,,,,,,2023-08-16_08h48.23.456,HF_wild_card,2022.2.4,Win32,59.97001499,614778280f3a996d2b520388,64d2fd46c836a06233681665,64dc7f339a22856ba1be896b,,,,,,,decisionTrl,resources/DR.BMP,resources/DBN.BMP,Door1,-0.376666641,-0.011666679,1,0,0,0.5097,optionLeft,30,12810,6,10,0,10,0,1,,,,,,,,,,,,,,,,,,,,,,,,,,,,,,,,,,,,,,,
,,,,,,,,2023-08-16_08h48.23.456,HF_wild_card,2022.2.4,Win32,59.97001499,614778280f3a996d2b520388,64d2fd46c836a06233681665,64dc7f339a22856ba1be896b,,,,,,,decisionTrl,resources/DG.BMP,resources/DB.BMP,Door4,-0.2,-0.025,1,0,0,0.831,optionLeft,80,12890,6,11,0,11,0,1,,,,,,,,,,,,,,,,,,,,,,,,,,,,,,,,,,,,,,,
,,,,,,,,2023-08-16_08h48.23.456,HF_wild_card,2022.2.4,Win32,59.97001499,614778280f3a996d2b520388,64d2fd46c836a06233681665,64dc7f339a22856ba1be896b,,,,,,,ctch,resources/DB.BMP,resources/DBN.BMP,Door3,-0.230833321,-0.003333359,1,0,0,0.6312,optionLeft,70,12960,6,12,0,12,0,1,,,,,,,,,,,,,,,,,,,,,,,,,,,,,,,,,,,,,,,
,,,,,,,,2023-08-16_08h48.23.456,HF_wild_card,2022.2.4,Win32,59.97001499,614778280f3a996d2b520388,64d2fd46c836a06233681665,64dc7f339a22856ba1be896b,,,,,,,decisionTrl,resources/DG.BMP,resources/DB.BMP,Door4,-0.198333321,-0.080833359,1,0,0,0.7768,optionLeft,60,13020,6,13,0,13,0,1,,,,,,,,,,,,,,,,,,,,,,,,,,,,,,,,,,,,,,,
,,,,,,,,2023-08-16_08h48.23.456,HF_wild_card,2022.2.4,Win32,59.97001499,614778280f3a996d2b520388,64d2fd46c836a06233681665,64dc7f339a22856ba1be896b,,,,,,,decisionTrl,resources/DBN.BMP,resources/DR.BMP,Door1,0.3125,-0.144166718,1,0,0,0.6044,optionRight,30,13050,6,14,0,14,0,1,,,,,,,,,,,,,,,,,,,,,,,,,,,,,,,,,,,,,,,
,,,,,,,,2023-08-16_08h48.23.456,HF_wild_card,2022.2.4,Win32,59.97001499,614778280f3a996d2b520388,64d2fd46c836a06233681665,64dc7f339a22856ba1be896b,,,,,,,ctch,resources/DG.BMP,resources/DR.BMP,Door4,-0.234166641,-0.013333359,1,0,0,0.6385,optionLeft,60,13110,6,15,0,15,0,1,,,,,,,,,,,,,,,,,,,,,,,,,,,,,,,,,,,,,,,
,,,,,,,,2023-08-16_08h48.23.456,HF_wild_card,2022.2.4,Win32,59.97001499,614778280f3a996d2b520388,64d2fd46c836a06233681665,64dc7f339a22856ba1be896b,,,,,,,sngl,resources/Empty.png,resources/DG.BMP,Door4,0.419166718,-0.111666679,1,0,0,0.5305,optionRight,80,13190,6,16,0,16,0,1,,,,,,,,,,,,,,,,,,,,,,,,,,,,,,,,,,,,,,,
,,,,,,,,2023-08-16_08h48.23.456,HF_wild_card,2022.2.4,Win32,59.97001499,614778280f3a996d2b520388,64d2fd46c836a06233681665,64dc7f339a22856ba1be896b,,,,,,,decisionTrl,resources/DG.BMP,resources/DY.BMP,Door4,-0.201666641,-0.033333359,1,0,0,0.6812,optionLeft,80,13270,6,17,0,17,0,1,,,,,,,,,,,,,,,,,,,,,,,,,,,,,,,,,,,,,,,
,,,,,,,,2023-08-16_08h48.23.456,HF_wild_card,2022.2.4,Win32,59.97001499,614778280f3a996d2b520388,64d2fd46c836a06233681665,64dc7f339a22856ba1be896b,,,,,,,decisionTrl,resources/DB.BMP,resources/DG.BMP,Door3,-0.275,-0.111666679,1,0,0,0.8483,optionLeft,70,13340,6,18,0,18,0,1,,,,,,,,,,,,,,,,,,,,,,,,,,,,,,,,,,,,,,,
,,,,,,,,2023-08-16_08h48.23.456,HF_wild_card,2022.2.4,Win32,59.97001499,614778280f3a996d2b520388,64d2fd46c836a06233681665,64dc7f339a22856ba1be896b,,,,,,,decisionTrl,resources/DY.BMP,resources/DB.BMP,Door3,0.346666718,-0.135,1,0,0,0.8536,optionRight,70,13410,6,19,0,19,0,1,,,,,,,,,,,,,,,,,,,,,,,,,,,,,,,,,,,,,,,
,,,,,,,,2023-08-16_08h48.23.456,HF_wild_card,2022.2.4,Win32,59.97001499,614778280f3a996d2b520388,64d2fd46c836a06233681665,64dc7f339a22856ba1be896b,,,,,,,sngl,resources/Empty.png,resources/DR.BMP,Door1,0.4125,-0.131666679,1,0,0,0.8375,optionRight,30,13440,6,20,0,20,0,1,,,,,,,,,,,,,,,,,,,,,,,,,,,,,,,,,,,,,,,
,,,,,,,,2023-08-16_08h48.23.456,HF_wild_card,2022.2.4,Win32,59.97001499,614778280f3a996d2b520388,64d2fd46c836a06233681665,64dc7f339a22856ba1be896b,,,,,,,decisionTrl,resources/DB.BMP,resources/DG.BMP,Door3,-0.271666641,-0.063333359,1,0,0,0.6982,optionLeft,70,13510,6,21,0,21,0,1,,,,,,,,,,,,,,,,,,,,,,,,,,,,,,,,,,,,,,,
,,,,,,,,2023-08-16_08h48.23.456,HF_wild_card,2022.2.4,Win32,59.97001499,614778280f3a996d2b520388,64d2fd46c836a06233681665,64dc7f339a22856ba1be896b,,,,,,,sngl,resources/DR.BMP,resources/Empty.png,Door1,-0.4375,-0.024166679,1,0,0,0.5976,optionLeft,30,13540,6,22,0,22,0,1,,,,,,,,,,,,,,,,,,,,,,,,,,,,,,,,,,,,,,,
,,,,,,,,2023-08-16_08h48.23.456,HF_wild_card,2022.2.4,Win32,59.97001499,614778280f3a996d2b520388,64d2fd46c836a06233681665,64dc7f339a22856ba1be896b,,,,,,,ctch,resources/DG.BMP,resources/DR.BMP,Door4,-0.230833321,-0.065,1,0,0,0.6781,optionLeft,60,13600,6,23,0,23,0,1,,,,,,,,,,,,,,,,,,,,,,,,,,,,,,,,,,,,,,,
,,,,,,,,2023-08-16_08h48.23.456,HF_wild_card,2022.2.4,Win32,59.97001499,614778280f3a996d2b520388,64d2fd46c836a06233681665,64dc7f339a22856ba1be896b,,,,,,,decisionTrl,resources/DR.BMP,resources/DY.BMP,WildCard_Ex,0.213333359,-0.036666679,1,0,0,0.8984,optionRight,45,13645,6,24,0,24,0,1,,,,,,,,,,,,,,,,,,,,,,,,,,,,,,,,,,,,,,,
,,,,,,,,2023-08-16_08h48.23.456,HF_wild_card,2022.2.4,Win32,59.97001499,614778280f3a996d2b520388,64d2fd46c836a06233681665,64dc7f339a22856ba1be896b,,,,,,,sngl,resources/DY.BMP,resources/Empty.png,WildCard_Ex,-0.165833321,-0.001666679,1,0,0,0.6816,optionLeft,55,13700,6,25,0,25,0,1,,,,,,,,,,,,,,,,,,,,,,,,,,,,,,,,,,,,,,,
,,,,,,,,2023-08-16_08h48.23.456,HF_wild_card,2022.2.4,Win32,59.97001499,614778280f3a996d2b520388,64d2fd46c836a06233681665,64dc7f339a22856ba1be896b,,,,,,,decisionTrl,resources/DY.BMP,resources/DR.BMP,Door1,0.276666718,-0.049166679,1,0,0,2.3152,optionRight,30,13730,6,26,0,26,0,1,,,,,,,,,,,,,,,,,,,,,,,,,,,,,,,,,,,,,,,
,,,,,,,,2023-08-16_08h48.23.456,HF_wild_card,2022.2.4,Win32,59.97001499,614778280f3a996d2b520388,64d2fd46c836a06233681665,64dc7f339a22856ba1be896b,,,,,,,ctch,resources/DBN.BMP,resources/DB.BMP,Door3,0.313333359,-0.134166679,1,0,0,0.7914,optionRight,70,13800,6,27,0,27,0,1,,,,,,,,,,,,,,,,,,,,,,,,,,,,,,,,,,,,,,,
,,,,,,,,2023-08-16_08h48.23.456,HF_wild_card,2022.2.4,Win32,59.97001499,614778280f3a996d2b520388,64d2fd46c836a06233681665,64dc7f339a22856ba1be896b,,,,,,,decisionTrl,resources/DBN.BMP,resources/DR.BMP,Door1,0.331666718,-0.104166679,1,0,0,0.7295,optionRight,30,13830,6,28,0,28,0,1,,,,,,,,,,,,,,,,,,,,,,,,,,,,,,,,,,,,,,,
,,,,,,,,2023-08-16_08h48.23.456,HF_wild_card,2022.2.4,Win32,59.97001499,614778280f3a996d2b520388,64d2fd46c836a06233681665,64dc7f339a22856ba1be896b,,,,,,,ctch,resources/DR.BMP,resources/DG.BMP,Door4,0.458333359,-0.12,1,0,0,0.6034,optionRight,60,13890,6,29,0,29,0,1,,,,,,,,,,,,,,,,,,,,,,,,,,,,,,,,,,,,,,,
,,,,,,,,2023-08-16_08h48.23.456,HF_wild_card,2022.2.4,Win32,59.97001499,614778280f3a996d2b520388,64d2fd46c836a06233681665,64dc7f339a22856ba1be896b,,,,,,,decisionTrl,resources/DBN.BMP,resources/DR.BMP,Door1,0.3525,-0.1125,1,0,0,0.7761,optionRight,30,13920,6,30,0,30,0,1,,,,,,,,,,,,,,,,,,,,,,,,,,,,,,,,,,,,,,,
,,,,,,,,2023-08-16_08h48.23.456,HF_wild_card,2022.2.4,Win32,59.97001499,614778280f3a996d2b520388,64d2fd46c836a06233681665,64dc7f339a22856ba1be896b,,,,,,,ctch,resources/DR.BMP,resources/DG.BMP,Door4,0.3375,-0.1025,1,0,0,0.7135,optionRight,60,13980,6,31,0,31,0,1,,,,,,,,,,,,,,,,,,,,,,,,,,,,,,,,,,,,,,,
,,,,,,,,2023-08-16_08h48.23.456,HF_wild_card,2022.2.4,Win32,59.97001499,614778280f3a996d2b520388,64d2fd46c836a06233681665,64dc7f339a22856ba1be896b,,,,,,,sngl,resources/DBN.BMP,resources/Empty.png,Door2,-0.180833321,-0.020833359,1,0,0,0.8096,optionLeft,20,14000,6,32,0,32,0,1,,,,,,,,,,,,,,,,,,,,,,,,,,,,,,,,,,,,,,,
,,,,,,,,2023-08-16_08h48.23.456,HF_wild_card,2022.2.4,Win32,59.97001499,614778280f3a996d2b520388,64d2fd46c836a06233681665,64dc7f339a22856ba1be896b,,,,,,,decisionTrl,resources/DB.BMP,resources/DG.BMP,Door4,0.313333359,-0.0825,1,0,0,1.4532,optionRight,60,14060,6,33,0,33,0,1,,,,,,,,,,,,,,,,,,,,,,,,,,,,,,,,,,,,,,,
,,,,,,,,2023-08-16_08h48.23.456,HF_wild_card,2022.2.4,Win32,59.97001499,614778280f3a996d2b520388,64d2fd46c836a06233681665,64dc7f339a22856ba1be896b,,,,,,,sngl,resources/Empty.png,resources/DY.BMP,WildCard_Ex,0.443333359,-0.130833359,1,0,0,0.5981,optionRight,55,14115,6,34,0,34,0,1,,,,,,,,,,,,,,,,,,,,,,,,,,,,,,,,,,,,,,,
,,,,,,,,2023-08-16_08h48.23.456,HF_wild_card,2022.2.4,Win32,59.97001499,614778280f3a996d2b520388,64d2fd46c836a06233681665,64dc7f339a22856ba1be896b,,,,,,,sngl,resources/Empty.png,resources/DBN.BMP,Door2,0.373333359,-0.06,1,0,0,0.7656,optionRight,40,14155,6,35,0,35,0,1,,,,,,,,,,,,,,,,,,,,,,,,,,,,,,,,,,,,,,,
,,,,,,,,2023-08-16_08h48.23.456,HF_wild_card,2022.2.4,Win32,59.97001499,614778280f3a996d2b520388,64d2fd46c836a06233681665,64dc7f339a22856ba1be896b,,,,,,,decisionTrl,resources/DB.BMP,resources/DG.BMP,Door4,0.261666718,-0.086666679,1,0,0,1.2487,optionRight,80,14235,6,36,0,36,0,1,,,,,,,,,,,,,,,,,,,,,,,,,,,,,,,,,,,,,,,
,,,,,,,,2023-08-16_08h48.23.456,HF_wild_card,2022.2.4,Win32,59.97001499,614778280f3a996d2b520388,64d2fd46c836a06233681665,64dc7f339a22856ba1be896b,,,,,,,decisionTrl,resources/DY.BMP,resources/DG.BMP,Door4,0.325,-0.0175,1,0,0,0.5825,optionRight,60,14295,6,37,0,37,0,1,,,,,,,,,,,,,,,,,,,,,,,,,,,,,,,,,,,,,,,
,,,,,,,,2023-08-16_08h48.23.456,HF_wild_card,2022.2.4,Win32,59.97001499,614778280f3a996d2b520388,64d2fd46c836a06233681665,64dc7f339a22856ba1be896b,,,,,,,decisionTrl,resources/DY.BMP,resources/DBN.BMP,WildCard_Ex,-0.184166641,-0.0775,1,0,0,0.7828,optionLeft,55,14350,6,38,0,38,0,1,,,,,,,,,,,,,,,,,,,,,,,,,,,,,,,,,,,,,,,
,,,,,,,,2023-08-16_08h48.23.456,HF_wild_card,2022.2.4,Win32,59.97001499,614778280f3a996d2b520388,64d2fd46c836a06233681665,64dc7f339a22856ba1be896b,,,,,,,decisionTrl,resources/DBN.BMP,resources/DY.BMP,WildCard_Ex,0.265,-0.113333359,1,0,0,0.7141,optionRight,55,14405,6,39,0,39,0,1,,,,,,,,,,,,,,,,,,,,,,,,,,,,,,,,,,,,,,,
,,,,,,,,2023-08-16_08h48.23.456,HF_wild_card,2022.2.4,Win32,59.97001499,614778280f3a996d2b520388,64d2fd46c836a06233681665,64dc7f339a22856ba1be896b,,,,,,,decisionTrl,resources/DR.BMP,resources/DBN.BMP,Door1,-0.2825,-0.009166679,1,0,0,0.5758,optionLeft,30,14435,6,40,0,40,0,1,,,,,,,,,,,,,,,,,,,,,,,,,,,,,,,,,,,,,,,
,,,,,,,,2023-08-16_08h48.23.456,HF_wild_card,2022.2.4,Win32,59.97001499,614778280f3a996d2b520388,64d2fd46c836a06233681665,64dc7f339a22856ba1be896b,,,,,,,sngl,resources/DB.BMP,resources/Empty.png,Door3,-0.19,-0.0525,1,0,0,0.5764,optionLeft,70,14505,6,41,0,41,0,1,,,,,,,,,,,,,,,,,,,,,,,,,,,,,,,,,,,,,,,
,,,,,,,,2023-08-16_08h48.23.456,HF_wild_card,2022.2.4,Win32,59.97001499,614778280f3a996d2b520388,64d2fd46c836a06233681665,64dc7f339a22856ba1be896b,,,,,,,ctch,resources/DBN.BMP,resources/DB.BMP,Door3,0.306666718,-0.13,1,0,0,0.6153,optionRight,70,14575,6,42,0,42,0,1,,,,,,,,,,,,,,,,,,,,,,,,,,,,,,,,,,,,,,,
,,,,,,,,2023-08-16_08h48.23.456,HF_wild_card,2022.2.4,Win32,59.97001499,614778280f3a996d2b520388,64d2fd46c836a06233681665,64dc7f339a22856ba1be896b,,,,,,,decisionTrl,resources/DBN.BMP,resources/DR.BMP,Door1,0.380833359,-0.190833359,1,0,0,0.7139,optionRight,30,14605,6,43,0,43,0,1,,,,,,,,,,,,,,,,,,,,,,,,,,,,,,,,,,,,,,,
,,,,,,,,2023-08-16_08h48.23.456,HF_wild_card,2022.2.4,Win32,59.97001499,614778280f3a996d2b520388,64d2fd46c836a06233681665,64dc7f339a22856ba1be896b,,,,,,,,,,,,,,,,,,,,,,,,,,5,0,5,0,1,,,,,,,,,,,,,,,,,,,,,,,,,,,,,,,,,,
,,,,,,,,2023-08-16_08h48.23.456,HF_wild_card,2022.2.4,Win32,59.97001499,614778280f3a996d2b520388,64d2fd46c836a06233681665,64dc7f339a22856ba1be896b,,,,,,,decisionTrl,resources/DG.BMP,resources/DB.BMP,Door4,-0.480833321,-0.074166679,1,0,0,1.274,optionLeft,60,14665,7,0,0,0,0,1,,,,,,,,,,,,,,,,,,,,,,,,,,,,,,,,,,,,,,,
,,,,,,,,2023-08-16_08h48.23.456,HF_wild_card,2022.2.4,Win32,59.97001499,614778280f3a996d2b520388,64d2fd46c836a06233681665,64dc7f339a22856ba1be896b,,,,,,,ctch,resources/DR.BMP,resources/DG.BMP,Door4,0.219166718,-0.0825,1,0,0,0.7777,optionRight,60,14725,7,1,0,1,0,1,,,,,,,,,,,,,,,,,,,,,,,,,,,,,,,,,,,,,,,
,,,,,,,,2023-08-16_08h48.23.456,HF_wild_card,2022.2.4,Win32,59.97001499,614778280f3a996d2b520388,64d2fd46c836a06233681665,64dc7f339a22856ba1be896b,,,,,,,decisionTrl,resources/DG.BMP,resources/DB.BMP,Door4,-0.23,-0.018333359,1,0,0,0.6539,optionLeft,80,14805,7,2,0,2,0,1,,,,,,,,,,,,,,,,,,,,,,,,,,,,,,,,,,,,,,,
,,,,,,,,2023-08-16_08h48.23.456,HF_wild_card,2022.2.4,Win32,59.97001499,614778280f3a996d2b520388,64d2fd46c836a06233681665,64dc7f339a22856ba1be896b,,,,,,,decisionTrl,resources/DBN.BMP,resources/DR.BMP,Door1,0.3025,-0.079166679,1,0,0,0.811,optionRight,30,14835,7,3,0,3,0,1,,,,,,,,,,,,,,,,,,,,,,,,,,,,,,,,,,,,,,,
,,,,,,,,2023-08-16_08h48.23.456,HF_wild_card,2022.2.4,Win32,59.97001499,614778280f3a996d2b520388,64d2fd46c836a06233681665,64dc7f339a22856ba1be896b,,,,,,,decisionTrl,resources/DR.BMP,resources/DBN.BMP,Door1,-0.283333321,-0.0175,1,0,0,1.0272,optionLeft,30,14865,7,4,0,4,0,1,,,,,,,,,,,,,,,,,,,,,,,,,,,,,,,,,,,,,,,
,,,,,,,,2023-08-16_08h48.23.456,HF_wild_card,2022.2.4,Win32,59.97001499,614778280f3a996d2b520388,64d2fd46c836a06233681665,64dc7f339a22856ba1be896b,,,,,,,decisionTrl,resources/DB.BMP,resources/DG.BMP,Door4,0.304166718,-0.1175,1,0,0,1.0638,optionRight,60,14925,7,5,0,5,0,1,,,,,,,,,,,,,,,,,,,,,,,,,,,,,,,,,,,,,,,
,,,,,,,,2023-08-16_08h48.23.456,HF_wild_card,2022.2.4,Win32,59.97001499,614778280f3a996d2b520388,64d2fd46c836a06233681665,64dc7f339a22856ba1be896b,,,,,,,decisionTrl,resources/DR.BMP,resources/DBN.BMP,Door1,-0.225,-0.013333359,1,0,0,0.9934,optionLeft,30,14955,7,6,0,6,0,1,,,,,,,,,,,,,,,,,,,,,,,,,,,,,,,,,,,,,,,
,,,,,,,,2023-08-16_08h48.23.456,HF_wild_card,2022.2.4,Win32,59.97001499,614778280f3a996d2b520388,64d2fd46c836a06233681665,64dc7f339a22856ba1be896b,,,,,,,decisionTrl,resources/DG.BMP,resources/DB.BMP,Door4,-0.359166641,-0.033333359,1,0,0,0.8598,optionLeft,60,15015,7,7,0,7,0,1,,,,,,,,,,,,,,,,,,,,,,,,,,,,,,,,,,,,,,,
,,,,,,,,2023-08-16_08h48.23.456,HF_wild_card,2022.2.4,Win32,59.97001499,614778280f3a996d2b520388,64d2fd46c836a06233681665,64dc7f339a22856ba1be896b,,,,,,,ctch,resources/DB.BMP,resources/DBN.BMP,Door3,-0.245833321,-0.009166679,1,0,0,0.8652,optionLeft,70,15085,7,8,0,8,0,1,,,,,,,,,,,,,,,,,,,,,,,,,,,,,,,,,,,,,,,
,,,,,,,,2023-08-16_08h48.23.456,HF_wild_card,2022.2.4,Win32,59.97001499,614778280f3a996d2b520388,64d2fd46c836a06233681665,64dc7f339a22856ba1be896b,,,,,,,decisionTrl,resources/DG.BMP,resources/DB.BMP,Door4,-0.273333321,-0.059166679,1,0,0,0.8985,optionLeft,60,15145,7,9,0,9,0,1,,,,,,,,,,,,,,,,,,,,,,,,,,,,,,,,,,,,,,,
,,,,,,,,2023-08-16_08h48.23.456,HF_wild_card,2022.2.4,Win32,59.97001499,614778280f3a996d2b520388,64d2fd46c836a06233681665,64dc7f339a22856ba1be896b,,,,,,,decisionTrl,resources/DR.BMP,resources/DBN.BMP,Door1,-0.57416666,-0.010833359,1,0,0,0.6383,optionLeft,30,15175,7,10,0,10,0,1,,,,,,,,,,,,,,,,,,,,,,,,,,,,,,,,,,,,,,,
,,,,,,,,2023-08-16_08h48.23.456,HF_wild_card,2022.2.4,Win32,59.97001499,614778280f3a996d2b520388,64d2fd46c836a06233681665,64dc7f339a22856ba1be896b,,,,,,,decisionTrl,resources/DBN.BMP,resources/DR.BMP,Door1,0.2725,-0.09,1,0,0,0.6322,optionRight,30,15205,7,11,0,11,0,1,,,,,,,,,,,,,,,,,,,,,,,,,,,,,,,,,,,,,,,
,,,,,,,,2023-08-16_08h48.23.456,HF_wild_card,2022.2.4,Win32,59.97001499,614778280f3a996d2b520388,64d2fd46c836a06233681665,64dc7f339a22856ba1be896b,,,,,,,decisionTrl,resources/DG.BMP,resources/DB.BMP,Door4,-0.248333321,-0.036666679,1,0,0,0.7975,optionLeft,80,15285,7,12,0,12,0,1,,,,,,,,,,,,,,,,,,,,,,,,,,,,,,,,,,,,,,,
,,,,,,,,2023-08-16_08h48.23.456,HF_wild_card,2022.2.4,Win32,59.97001499,614778280f3a996d2b520388,64d2fd46c836a06233681665,64dc7f339a22856ba1be896b,,,,,,,ctch,resources/DB.BMP,resources/DBN.BMP,Door3,-0.155833282,0.001666641,1,0,0,0.5983,optionLeft,70,15355,7,13,0,13,0,1,,,,,,,,,,,,,,,,,,,,,,,,,,,,,,,,,,,,,,,
,,,,,,,,2023-08-16_08h48.23.456,HF_wild_card,2022.2.4,Win32,59.97001499,614778280f3a996d2b520388,64d2fd46c836a06233681665,64dc7f339a22856ba1be896b,,,,,,,decisionTrl,resources/DBN.BMP,resources/DR.BMP,Door1,0.335833359,-0.0525,1,0,0,0.6826,optionRight,30,15385,7,14,0,14,0,1,,,,,,,,,,,,,,,,,,,,,,,,,,,,,,,,,,,,,,,
,,,,,,,,2023-08-16_08h48.23.456,HF_wild_card,2022.2.4,Win32,59.97001499,614778280f3a996d2b520388,64d2fd46c836a06233681665,64dc7f339a22856ba1be896b,,,,,,,decisionTrl,resources/DB.BMP,resources/DG.BMP,Door4,0.36,-0.131666679,1,0,0,0.8877,optionRight,80,15465,7,15,0,15,0,1,,,,,,,,,,,,,,,,,,,,,,,,,,,,,,,,,,,,,,,
,,,,,,,,2023-08-16_08h48.23.456,HF_wild_card,2022.2.4,Win32,59.97001499,614778280f3a996d2b520388,64d2fd46c836a06233681665,64dc7f339a22856ba1be896b,,,,,,,decisionTrl,resources/DR.BMP,resources/DBN.BMP,Door1,-0.190833321,-0.008333359,1,0,0,0.6319,optionLeft,30,15495,7,16,0,16,0,1,,,,,,,,,,,,,,,,,,,,,,,,,,,,,,,,,,,,,,,
,,,,,,,,2023-08-16_08h48.23.456,HF_wild_card,2022.2.4,Win32,59.97001499,614778280f3a996d2b520388,64d2fd46c836a06233681665,64dc7f339a22856ba1be896b,,,,,,,decisionTrl,resources/DB.BMP,resources/DG.BMP,Door4,0.318333359,-0.088333359,1,0,0,1.199,optionRight,80,15575,7,17,0,17,0,1,,,,,,,,,,,,,,,,,,,,,,,,,,,,,,,,,,,,,,,
,,,,,,,,2023-08-16_08h48.23.456,HF_wild_card,2022.2.4,Win32,59.97001499,614778280f3a996d2b520388,64d2fd46c836a06233681665,64dc7f339a22856ba1be896b,,,,,,,decisionTrl,resources/DB.BMP,resources/DG.BMP,Door4,0.280833359,-0.106666679,1,0,0,1.1478,optionRight,80,15655,7,18,0,18,0,1,,,,,,,,,,,,,,,,,,,,,,,,,,,,,,,,,,,,,,,
,,,,,,,,2023-08-16_08h48.23.456,HF_wild_card,2022.2.4,Win32,59.97001499,614778280f3a996d2b520388,64d2fd46c836a06233681665,64dc7f339a22856ba1be896b,,,,,,,ctch,resources/DB.BMP,resources/DBN.BMP,Door3,-0.245833321,-0.035833359,1,0,0,0.4971,optionLeft,70,15725,7,19,0,19,0,1,,,,,,,,,,,,,,,,,,,,,,,,,,,,,,,,,,,,,,,
,,,,,,,,2023-08-16_08h48.23.456,HF_wild_card,2022.2.4,Win32,59.97001499,614778280f3a996d2b520388,64d2fd46c836a06233681665,64dc7f339a22856ba1be896b,,,,,,,decisionTrl,resources/DBN.BMP,resources/DR.BMP,Door1,0.333333359,-0.151666718,1,0,0,0.5647,optionRight,30,15755,7,20,0,20,0,1,,,,,,,,,,,,,,,,,,,,,,,,,,,,,,,,,,,,,,,
,,,,,,,,2023-08-16_08h48.23.456,HF_wild_card,2022.2.4,Win32,59.97001499,614778280f3a996d2b520388,64d2fd46c836a06233681665,64dc7f339a22856ba1be896b,,,,,,,ctch,resources/DBN.BMP,resources/DB.BMP,Door3,0.336666718,-0.168333359,1,0,0,0.6376,optionRight,70,15825,7,21,0,21,0,1,,,,,,,,,,,,,,,,,,,,,,,,,,,,,,,,,,,,,,,
,,,,,,,,2023-08-16_08h48.23.456,HF_wild_card,2022.2.4,Win32,59.97001499,614778280f3a996d2b520388,64d2fd46c836a06233681665,64dc7f339a22856ba1be896b,,,,,,,decisionTrl,resources/DG.BMP,resources/DB.BMP,Door4,-0.315833321,-0.09,1,0,0,0.9831,optionLeft,60,15885,7,22,0,22,0,1,,,,,,,,,,,,,,,,,,,,,,,,,,,,,,,,,,,,,,,
,,,,,,,,2023-08-16_08h48.23.456,HF_wild_card,2022.2.4,Win32,59.97001499,614778280f3a996d2b520388,64d2fd46c836a06233681665,64dc7f339a22856ba1be896b,,,,,,,decisionTrl,resources/DR.BMP,resources/DBN.BMP,Door1,-0.1325,-0.040833359,1,0,0,0.6328,optionLeft,30,15915,7,23,0,23,0,1,,,,,,,,,,,,,,,,,,,,,,,,,,,,,,,,,,,,,,,
,,,,,,,,2023-08-16_08h48.23.456,HF_wild_card,2022.2.4,Win32,59.97001499,614778280f3a996d2b520388,64d2fd46c836a06233681665,64dc7f339a22856ba1be896b,,,,,,,ctch,resources/DG.BMP,resources/DR.BMP,Door4,-0.313333321,-0.040833359,1,0,0,0.6465,optionLeft,60,15975,7,24,0,24,0,1,,,,,,,,,,,,,,,,,,,,,,,,,,,,,,,,,,,,,,,
,,,,,,,,2023-08-16_08h48.23.456,HF_wild_card,2022.2.4,Win32,59.97001499,614778280f3a996d2b520388,64d2fd46c836a06233681665,64dc7f339a22856ba1be896b,,,,,,,decisionTrl,resources/DBN.BMP,resources/DR.BMP,Door1,0.220833359,-0.098333359,1,0,0,0.6305,optionRight,30,16005,7,25,0,25,0,1,,,,,,,,,,,,,,,,,,,,,,,,,,,,,,,,,,,,,,,
,,,,,,,,2023-08-16_08h48.23.456,HF_wild_card,2022.2.4,Win32,59.97001499,614778280f3a996d2b520388,64d2fd46c836a06233681665,64dc7f339a22856ba1be896b,,,,,,,decisionTrl,resources/DB.BMP,resources/DG.BMP,Door4,0.210833359,-0.084166679,1,0,0,0.9502,optionRight,80,16085,7,26,0,26,0,1,,,,,,,,,,,,,,,,,,,,,,,,,,,,,,,,,,,,,,,
,,,,,,,,2023-08-16_08h48.23.456,HF_wild_card,2022.2.4,Win32,59.97001499,614778280f3a996d2b520388,64d2fd46c836a06233681665,64dc7f339a22856ba1be896b,,,,,,,ctch,resources/DBN.BMP,resources/DB.BMP,Door3,0.205,-0.106666679,1,0,0,0.7095,optionRight,70,16155,7,27,0,27,0,1,,,,,,,,,,,,,,,,,,,,,,,,,,,,,,,,,,,,,,,
,,,,,,,,2023-08-16_08h48.23.456,HF_wild_card,2022.2.4,Win32,59.97001499,614778280f3a996d2b520388,64d2fd46c836a06233681665,64dc7f339a22856ba1be896b,,,,,,,ctch,resources/DR.BMP,resources/DG.BMP,Door4,0.326666718,-0.078333359,1,0,0,0.5492,optionRight,60,16215,7,28,0,28,0,1,,,,,,,,,,,,,,,,,,,,,,,,,,,,,,,,,,,,,,,
,,,,,,,,2023-08-16_08h48.23.456,HF_wild_card,2022.2.4,Win32,59.97001499,614778280f3a996d2b520388,64d2fd46c836a06233681665,64dc7f339a22856ba1be896b,,,,,,,decisionTrl,resources/DBN.BMP,resources/DR.BMP,Door1,0.515,-0.103333359,1,0,0,0.5172,optionRight,30,16245,7,29,0,29,0,1,,,,,,,,,,,,,,,,,,,,,,,,,,,,,,,,,,,,,,,
,,,,,,,,2023-08-16_08h48.23.456,HF_wild_card,2022.2.4,Win32,59.97001499,614778280f3a996d2b520388,64d2fd46c836a06233681665,64dc7f339a22856ba1be896b,,,,,,,ctch,resources/DBN.BMP,resources/DB.BMP,Door3,0.234166718,-0.083333359,1,0,0,0.5998,optionRight,70,16315,7,30,0,30,0,1,,,,,,,,,,,,,,,,,,,,,,,,,,,,,,,,,,,,,,,
,,,,,,,,2023-08-16_08h48.23.456,HF_wild_card,2022.2.4,Win32,59.97001499,614778280f3a996d2b520388,64d2fd46c836a06233681665,64dc7f339a22856ba1be896b,,,,,,,ctch,resources/DG.BMP,resources/DR.BMP,Door4,-0.178333321,-0.035833359,1,0,0,0.9556,optionLeft,60,16375,7,31,0,31,0,1,,,,,,,,,,,,,,,,,,,,,,,,,,,,,,,,,,,,,,,
,,,,,,,,2023-08-16_08h48.23.456,HF_wild_card,2022.2.4,Win32,59.97001499,614778280f3a996d2b520388,64d2fd46c836a06233681665,64dc7f339a22856ba1be896b,,,,,,,decisionTrl,resources/DB.BMP,resources/DG.BMP,Door4,0.2825,-0.075833359,1,0,0,0.6825,optionRight,60,16435,7,32,0,32,0,1,,,,,,,,,,,,,,,,,,,,,,,,,,,,,,,,,,,,,,,
,,,,,,,,2023-08-16_08h48.23.456,HF_wild_card,2022.2.4,Win32,59.97001499,614778280f3a996d2b520388,64d2fd46c836a06233681665,64dc7f339a22856ba1be896b,,,,,,,ctch,resources/DR.BMP,resources/DG.BMP,Door4,0.29,-0.105,1,0,0,0.5751,optionRight,80,16515,7,33,0,33,0,1,,,,,,,,,,,,,,,,,,,,,,,,,,,,,,,,,,,,,,,
,,,,,,,,2023-08-16_08h48.23.456,HF_wild_card,2022.2.4,Win32,59.97001499,614778280f3a996d2b520388,64d2fd46c836a06233681665,64dc7f339a22856ba1be896b,,,,,,,ctch,resources/DG.BMP,resources/DR.BMP,Door4,-0.263333321,-0.0275,1,0,0,0.6491,optionLeft,80,16595,7,34,0,34,0,1,,,,,,,,,,,,,,,,,,,,,,,,,,,,,,,,,,,,,,,
,,,,,,,,2023-08-16_08h48.23.456,HF_wild_card,2022.2.4,Win32,59.97001499,614778280f3a996d2b520388,64d2fd46c836a06233681665,64dc7f339a22856ba1be896b,,,,,,,decisionTrl,resources/DR.BMP,resources/DBN.BMP,Door1,-0.25,-0.013333359,1,0,0,0.7258,optionLeft,30,16625,7,35,0,35,0,1,,,,,,,,,,,,,,,,,,,,,,,,,,,,,,,,,,,,,,,
,,,,,,,,2023-08-16_08h48.23.456,HF_wild_card,2022.2.4,Win32,59.97001499,614778280f3a996d2b520388,64d2fd46c836a06233681665,64dc7f339a22856ba1be896b,,,,,,,,,,,,,,,,,,,,,,,,,,6,0,6,0,1,,,,,,,,,,,,,,,,,,,,,,,,,,,,,,,,,,
,,,,,,,,2023-08-16_08h48.23.456,HF_wild_card,2022.2.4,Win32,59.97001499,614778280f3a996d2b520388,64d2fd46c836a06233681665,64dc7f339a22856ba1be896b,,,,,,,,,,,,,,,,,,,,,,,,,,,,,,,4,,,,,,,,,,,,,,,,,,,,,,,,,,,,,,,,,
,,,,,,,,2023-08-16_08h48.23.456,HF_wild_card,2022.2.4,Win32,59.97001499,614778280f3a996d2b520388,64d2fd46c836a06233681665,64dc7f339a22856ba1be896b,,,,,,,,,,,,,,,,,,,,,,,,,,,,,,,,,,,,,,,,,,,,,,,,,,,,,,,,,,,,,,,,
,,,,,,,,2023-08-16_08h48.23.456,HF_wild_card,2022.2.4,Win32,59.97001499,614778280f3a996d2b520388,64d2fd46c836a06233681665,64dc7f339a22856ba1be896b,,,,,,,,,,,,,,,,,,,,,,,,,,,,,,,,70,Door3,resources/DB.BMP,0,0,0,0,1,,,,,,,,,,,,,,,,,,,,,,,,,
,,,,,,,,2023-08-16_08h48.23.456,HF_wild_card,2022.2.4,Win32,59.97001499,614778280f3a996d2b520388,64d2fd46c836a06233681665,64dc7f339a22856ba1be896b,,,,,,,,,,,,,,,,,,,,,,,,,,,,,,,,20,Door2,resources/DBN.BMP,1,0,1,0,1,,,,,,,,,,,,,,,,,,,,,,,,,
,,,,,,,,2023-08-16_08h48.23.456,HF_wild_card,2022.2.4,Win32,59.97001499,614778280f3a996d2b520388,64d2fd46c836a06233681665,64dc7f339a22856ba1be896b,,,,,,,,,,,,,,,,,,,,,,,,,,,,,,,,45,Door1,resources/DR.BMP,2,0,2,0,1,,,,,,,,,,,,,,,,,,,,,,,,,
,,,,,,,,2023-08-16_08h48.23.456,HF_wild_card,2022.2.4,Win32,59.97001499,614778280f3a996d2b520388,64d2fd46c836a06233681665,64dc7f339a22856ba1be896b,,,,,,,,,,,,,,,,,,,,,,,,,,,,,,,,55,WC_extreme,resources/DY.BMP,3,0,3,0,1,,,,,,,,,,,,,,,,,,,,,,,,,
,,,,,,,,2023-08-16_08h48.23.456,HF_wild_card,2022.2.4,Win32,59.97001499,614778280f3a996d2b520388,64d2fd46c836a06233681665,64dc7f339a22856ba1be896b,,,,,,,,,,,,,,,,,,,,,,,,,,,,,,,,40,WC_nonExtreme,resources/DP.BMP,4,0,4,0,1,,,,,,,,,,,,,,,,,,,,,,,,,
,,,,,,,,2023-08-16_08h48.23.456,HF_wild_card,2022.2.4,Win32,59.97001499,614778280f3a996d2b520388,64d2fd46c836a06233681665,64dc7f339a22856ba1be896b,,,,,,,,,,,,,,,,,,,,,,,,,,,,,,,,80,Door4,resources/DG.BMP,5,0,5,0,1,,,,,,,,,,,,,,,,,,,,,,,,,
,,,,,,,,2023-08-16_08h48.23.456,HF_wild_card,2022.2.4,Win32,59.97001499,614778280f3a996d2b520388,64d2fd46c836a06233681665,64dc7f339a22856ba1be896b,,,,,,,,,,,,,,,,,,,,,,,,,,,,,,,,,,,,,,,,,,,,,,,,,,,,,,,,,,,,,,,,
,,,,,,,,2023-08-16_08h48.23.456,HF_wild_card,2022.2.4,Win32,59.97001499,614778280f3a996d2b520388,64d2fd46c836a06233681665,64dc7f339a22856ba1be896b,,,,,,,,,,,,,,,,,,,,,,,,,,,,,,,,,,,,,,,,0,0,0,0,1,,,,,,,,,,,,,,,,,,,,
,,,,,,,,2023-08-16_08h48.23.456,HF_wild_card,2022.2.4,Win32,59.97001499,614778280f3a996d2b520388,64d2fd46c836a06233681665,64dc7f339a22856ba1be896b,,,,,,,,,,,,,,,,,,,,,,,,,,,,,,,,,,,,,,,,1,0,1,0,1,,,,,,,,,,,,,,,,,,,,
,,,,,,,,2023-08-16_08h48.23.456,HF_wild_card,2022.2.4,Win32,59.97001499,614778280f3a996d2b520388,64d2fd46c836a06233681665,64dc7f339a22856ba1be896b,,,,,,,,,,,,,,,,,,,,,,,,,,,,,,,,,,,,,,,,,,,,,-0.239166641,-0.39,1,0,0,yes,50%,50%,Door4,resources/DG.BMP,0,0,0,0,1,,,,,
,,,,,,,,2023-08-16_08h48.23.456,HF_wild_card,2022.2.4,Win32,59.97001499,614778280f3a996d2b520388,64d2fd46c836a06233681665,64dc7f339a22856ba1be896b,,,,,,,,,,,,,,,,,,,,,,,,,,,,,,,,,,,,,,,,,,,,,,,,,,,,,,,,,,,,0,0,0,0,1
