Condition,Low fixed image (Door1),Low risky image (Door2),High fixed image (Door3),High risky image (Door4),NonExtreme Wild Card 1,NonExtreme Wild Card 2,,date,expName,psychopyVersion,OS,frameRate,PROLIFIC_PID,STUDY_ID,SESSION_ID,mouse_2.x,mouse_2.y,mouse_2.leftButton,mouse_2.midButton,mouse_2.rightButton,mouse_2.clicked_name,Trial Type,Left Option Image,Right Option Image,Chosen Door,mouse.x,mouse.y,mouse.leftButton,mouse.midButton,mouse.rightButton,mouse.time,mouse.clicked_name,Feedback,Cumulative Reward,Block,trial.thisRepN,trial.thisTrialN,trial.thisN,trial.thisIndex,trial.ran,blocks.thisRepN,blocks.thisTrialN,blocks.thisN,blocks.thisIndex,blocks.ran,Money conversion,First Outcome Reported,Shown Door (First Outcome),Displayed Image (First Outcome),outcomes.thisRepN,outcomes.thisTrialN,outcomes.thisN,outcomes.thisIndex,outcomes.ran,judgments.thisRepN,judgments.thisTrialN,judgments.thisN,judgments.thisIndex,judgments.ran,freqMouse.x,freqMouse.y,freqMouse.leftButton,freqMouse.midButton,freqMouse.rightButton,freqMouse.clicked_name,FQJ for first outcome,FQJ for second outcome,Shown Door,Displayed Image,trials.thisRepN,trials.thisTrialN,trials.thisN,trials.thisIndex,trials.ran,judgBlock.thisRepN,judgBlock.thisTrialN,judgBlock.thisN,judgBlock.thisIndex,judgBlock.ran
2,resources/DB.BMP,resources/DG.BMP,resources/DR.BMP,resources/DY.BMP,resources/DP.BMP,resources/DBN.BMP,UNITED KINGDOM,2023-08-16_08h42.29.801,HF_wild_card,2022.2.4,MacIntel,60.0024001,63ebc2bce05579ac6b13affc,64d2fd46c836a06233681665,64dc7d55ad403bec63a1d43f,,,,,,,,,,,,,,,,,,,,,,,,,,,,,,,,,,,,,,,,,,,,,,,,,,,,,,,,,,,,,,,,
,,,,,,,UNITED KINGDOM,2023-08-16_08h42.29.801,HF_wild_card,2022.2.4,MacIntel,60.0024001,63ebc2bce05579ac6b13affc,64d2fd46c836a06233681665,64dc7d55ad403bec63a1d43f,-0.004073368,-0.423284567,1,0,0,agree,,,,,,,,,,,,,,,,,,,,,,,,,,,,,,,,,,,,,,,,,,,,,,,,,,,,,,,,,,
,,,,,,,UNITED KINGDOM,2023-08-16_08h42.29.801,HF_wild_card,2022.2.4,MacIntel,60.0024001,63ebc2bce05579ac6b13affc,64d2fd46c836a06233681665,64dc7d55ad403bec63a1d43f,,,,,,,,,,,,,,,,,,,,,,,,,,,,,,,,,,,,,,,,,,,,,,,,,,,,,,,,,,,,,,,,
,,,,,,,UNITED KINGDOM,2023-08-16_08h42.29.801,HF_wild_card,2022.2.4,MacIntel,60.0024001,63ebc2bce05579ac6b13affc,64d2fd46c836a06233681665,64dc7d55ad403bec63a1d43f,,,,,,,sngl,resources/Empty.png,resources/DG.BMP,Door2,0.418277787,0.005155337,1,0,0,5.9292,optionRight,20,20,1,0,0,0,0,1,,,,,,,,,,,,,,,,,,,,,,,,,,,,,,,,,,,,,,,
,,,,,,,UNITED KINGDOM,2023-08-16_08h42.29.801,HF_wild_card,2022.2.4,MacIntel,60.0024001,63ebc2bce05579ac6b13affc,64d2fd46c836a06233681665,64dc7d55ad403bec63a1d43f,,,,,,,ctch,resources/DR.BMP,resources/DG.BMP,Door3,-0.433250266,0.003257353,1,0,0,5.0479,optionLeft,70,90,1,1,0,1,0,1,,,,,,,,,,,,,,,,,,,,,,,,,,,,,,,,,,,,,,,
,,,,,,,UNITED KINGDOM,2023-08-16_08h42.29.801,HF_wild_card,2022.2.4,MacIntel,60.0024001,63ebc2bce05579ac6b13affc,64d2fd46c836a06233681665,64dc7d55ad403bec63a1d43f,,,,,,,decisionTrl,resources/DG.BMP,resources/DBN.BMP,WildCard_NonEx,0.347421729,0.012607452,1,0,0,3.3351,optionRight,55,145,1,2,0,2,0,1,,,,,,,,,,,,,,,,,,,,,,,,,,,,,,,,,,,,,,,
,,,,,,,UNITED KINGDOM,2023-08-16_08h42.29.801,HF_wild_card,2022.2.4,MacIntel,60.0024001,63ebc2bce05579ac6b13affc,64d2fd46c836a06233681665,64dc7d55ad403bec63a1d43f,,,,,,,decisionTrl,resources/DR.BMP,resources/DY.BMP,Door4,0.399900041,-0.023458771,1,0,0,3.118,optionRight,60,205,1,3,0,3,0,1,,,,,,,,,,,,,,,,,,,,,,,,,,,,,,,,,,,,,,,
,,,,,,,UNITED KINGDOM,2023-08-16_08h42.29.801,HF_wild_card,2022.2.4,MacIntel,60.0024001,63ebc2bce05579ac6b13affc,64d2fd46c836a06233681665,64dc7d55ad403bec63a1d43f,,,,,,,decisionTrl,resources/DBN.BMP,resources/DR.BMP,WildCard_NonEx,-0.352104839,0.085423985,1,0,0,1.9698,optionLeft,45,250,1,4,0,4,0,1,,,,,,,,,,,,,,,,,,,,,,,,,,,,,,,,,,,,,,,
,,,,,,,UNITED KINGDOM,2023-08-16_08h42.29.801,HF_wild_card,2022.2.4,MacIntel,60.0024001,63ebc2bce05579ac6b13affc,64d2fd46c836a06233681665,64dc7d55ad403bec63a1d43f,,,,,,,sngl,resources/DBN.BMP,resources/Empty.png,WildCard_NonEx,-0.301702739,-0.005447337,1,0,0,1.9882,optionLeft,45,295,1,5,0,5,0,1,,,,,,,,,,,,,,,,,,,,,,,,,,,,,,,,,,,,,,,
,,,,,,,UNITED KINGDOM,2023-08-16_08h42.29.801,HF_wild_card,2022.2.4,MacIntel,60.0024001,63ebc2bce05579ac6b13affc,64d2fd46c836a06233681665,64dc7d55ad403bec63a1d43f,,,,,,,sngl,resources/Empty.png,resources/DR.BMP,Door3,0.400184284,0.009216207,1,0,0,2.9199,optionRight,70,365,1,6,0,6,0,1,,,,,,,,,,,,,,,,,,,,,,,,,,,,,,,,,,,,,,,
,,,,,,,UNITED KINGDOM,2023-08-16_08h42.29.801,HF_wild_card,2022.2.4,MacIntel,60.0024001,63ebc2bce05579ac6b13affc,64d2fd46c836a06233681665,64dc7d55ad403bec63a1d43f,,,,,,,decisionTrl,resources/DBN.BMP,resources/DY.BMP,Door4,0.322772196,0.010237445,1,0,0,5.801,optionRight,80,445,1,7,0,7,0,1,,,,,,,,,,,,,,,,,,,,,,,,,,,,,,,,,,,,,,,
,,,,,,,UNITED KINGDOM,2023-08-16_08h42.29.801,HF_wild_card,2022.2.4,MacIntel,60.0024001,63ebc2bce05579ac6b13affc,64d2fd46c836a06233681665,64dc7d55ad403bec63a1d43f,,,,,,,decisionTrl,resources/DB.BMP,resources/DG.BMP,Door1,-0.300243111,-0.070368387,1,0,0,3.6511,optionLeft,30,475,1,8,0,8,0,1,,,,,,,,,,,,,,,,,,,,,,,,,,,,,,,,,,,,,,,
,,,,,,,UNITED KINGDOM,2023-08-16_08h42.29.801,HF_wild_card,2022.2.4,MacIntel,60.0024001,63ebc2bce05579ac6b13affc,64d2fd46c836a06233681665,64dc7d55ad403bec63a1d43f,,,,,,,decisionTrl,resources/DB.BMP,resources/DBN.BMP,WildCard_NonEx,0.397308383,0.105819855,1,0,0,4.354,optionRight,55,530,1,9,0,9,0,1,,,,,,,,,,,,,,,,,,,,,,,,,,,,,,,,,,,,,,,
,,,,,,,UNITED KINGDOM,2023-08-16_08h42.29.801,HF_wild_card,2022.2.4,MacIntel,60.0024001,63ebc2bce05579ac6b13affc,64d2fd46c836a06233681665,64dc7d55ad403bec63a1d43f,,,,,,,ctch,resources/DY.BMP,resources/DB.BMP,Door4,-0.458405523,0.012072801,1,0,0,3.9025,optionLeft,60,590,1,10,0,10,0,1,,,,,,,,,,,,,,,,,,,,,,,,,,,,,,,,,,,,,,,
,,,,,,,UNITED KINGDOM,2023-08-16_08h42.29.801,HF_wild_card,2022.2.4,MacIntel,60.0024001,63ebc2bce05579ac6b13affc,64d2fd46c836a06233681665,64dc7d55ad403bec63a1d43f,,,,,,,ctch,resources/DB.BMP,resources/DY.BMP,Door4,0.345860963,0.048259435,1,0,0,6.821,optionRight,80,670,1,11,0,11,0,1,,,,,,,,,,,,,,,,,,,,,,,,,,,,,,,,,,,,,,,
,,,,,,,UNITED KINGDOM,2023-08-16_08h42.29.801,HF_wild_card,2022.2.4,MacIntel,60.0024001,63ebc2bce05579ac6b13affc,64d2fd46c836a06233681665,64dc7d55ad403bec63a1d43f,,,,,,,decisionTrl,resources/DY.BMP,resources/DR.BMP,Door4,-0.344397406,0.023079994,1,0,0,11.2876,optionLeft,60,730,1,12,0,12,0,1,,,,,,,,,,,,,,,,,,,,,,,,,,,,,,,,,,,,,,,
,,,,,,,UNITED KINGDOM,2023-08-16_08h42.29.801,HF_wild_card,2022.2.4,MacIntel,60.0024001,63ebc2bce05579ac6b13affc,64d2fd46c836a06233681665,64dc7d55ad403bec63a1d43f,,,,,,,decisionTrl,resources/DBN.BMP,resources/DB.BMP,WildCard_NonEx,-0.266840826,0.034178773,1,0,0,4.9673,optionLeft,45,775,1,13,0,13,0,1,,,,,,,,,,,,,,,,,,,,,,,,,,,,,,,,,,,,,,,
,,,,,,,UNITED KINGDOM,2023-08-16_08h42.29.801,HF_wild_card,2022.2.4,MacIntel,60.0024001,63ebc2bce05579ac6b13affc,64d2fd46c836a06233681665,64dc7d55ad403bec63a1d43f,,,,,,,sngl,resources/DBN.BMP,resources/Empty.png,WildCard_NonEx,-0.194342305,-0.002947165,1,0,0,1.7366,optionLeft,55,830,1,14,0,14,0,1,,,,,,,,,,,,,,,,,,,,,,,,,,,,,,,,,,,,,,,
,,,,,,,UNITED KINGDOM,2023-08-16_08h42.29.801,HF_wild_card,2022.2.4,MacIntel,60.0024001,63ebc2bce05579ac6b13affc,64d2fd46c836a06233681665,64dc7d55ad403bec63a1d43f,,,,,,,ctch,resources/DR.BMP,resources/DG.BMP,Door3,-0.284780013,-0.042823783,1,0,0,1.936,optionLeft,70,900,1,15,0,15,0,1,,,,,,,,,,,,,,,,,,,,,,,,,,,,,,,,,,,,,,,
,,,,,,,UNITED KINGDOM,2023-08-16_08h42.29.801,HF_wild_card,2022.2.4,MacIntel,60.0024001,63ebc2bce05579ac6b13affc,64d2fd46c836a06233681665,64dc7d55ad403bec63a1d43f,,,,,,,sngl,resources/DY.BMP,resources/Empty.png,Door4,-0.412194391,-0.071124721,1,0,0,2.8019,optionLeft,80,980,1,16,0,16,0,1,,,,,,,,,,,,,,,,,,,,,,,,,,,,,,,,,,,,,,,
,,,,,,,UNITED KINGDOM,2023-08-16_08h42.29.801,HF_wild_card,2022.2.4,MacIntel,60.0024001,63ebc2bce05579ac6b13affc,64d2fd46c836a06233681665,64dc7d55ad403bec63a1d43f,,,,,,,sngl,resources/DG.BMP,resources/Empty.png,Door2,-0.321621741,-0.048175706,1,0,0,4.0357,optionLeft,40,1020,1,17,0,17,0,1,,,,,,,,,,,,,,,,,,,,,,,,,,,,,,,,,,,,,,,
,,,,,,,UNITED KINGDOM,2023-08-16_08h42.29.801,HF_wild_card,2022.2.4,MacIntel,60.0024001,63ebc2bce05579ac6b13affc,64d2fd46c836a06233681665,64dc7d55ad403bec63a1d43f,,,,,,,sngl,resources/Empty.png,resources/DBN.BMP,WildCard_NonEx,0.329482541,-0.033584476,1,0,0,3.6346,optionRight,45,1065,1,18,0,18,0,1,,,,,,,,,,,,,,,,,,,,,,,,,,,,,,,,,,,,,,,
,,,,,,,UNITED KINGDOM,2023-08-16_08h42.29.801,HF_wild_card,2022.2.4,MacIntel,60.0024001,63ebc2bce05579ac6b13affc,64d2fd46c836a06233681665,64dc7d55ad403bec63a1d43f,,,,,,,sngl,resources/DR.BMP,resources/Empty.png,Door3,-0.329873613,0.02177458,1,0,0,7.123,optionLeft,70,1135,1,19,0,19,0,1,,,,,,,,,,,,,,,,,,,,,,,,,,,,,,,,,,,,,,,
,,,,,,,UNITED KINGDOM,2023-08-16_08h42.29.801,HF_wild_card,2022.2.4,MacIntel,60.0024001,63ebc2bce05579ac6b13affc,64d2fd46c836a06233681665,64dc7d55ad403bec63a1d43f,,,,,,,decisionTrl,resources/DG.BMP,resources/DB.BMP,Door2,-0.276952068,0.01517506,1,0,0,13.0542,optionLeft,20,1155,1,20,0,20,0,1,,,,,,,,,,,,,,,,,,,,,,,,,,,,,,,,,,,,,,,
,,,,,,,UNITED KINGDOM,2023-08-16_08h42.29.801,HF_wild_card,2022.2.4,MacIntel,60.0024001,63ebc2bce05579ac6b13affc,64d2fd46c836a06233681665,64dc7d55ad403bec63a1d43f,,,,,,,decisionTrl,resources/DB.BMP,resources/DG.BMP,Door1,-0.375781331,0.032097752,1,0,0,5.437,optionLeft,30,1185,1,21,0,21,0,1,,,,,,,,,,,,,,,,,,,,,,,,,,,,,,,,,,,,,,,
,,,,,,,UNITED KINGDOM,2023-08-16_08h42.29.801,HF_wild_card,2022.2.4,MacIntel,60.0024001,63ebc2bce05579ac6b13affc,64d2fd46c836a06233681665,64dc7d55ad403bec63a1d43f,,,,,,,decisionTrl,resources/DY.BMP,resources/DR.BMP,Door4,-0.310821669,-0.075985247,1,0,0,13.9887,optionLeft,80,1265,1,22,0,22,0,1,,,,,,,,,,,,,,,,,,,,,,,,,,,,,,,,,,,,,,,
,,,,,,,UNITED KINGDOM,2023-08-16_08h42.29.801,HF_wild_card,2022.2.4,MacIntel,60.0024001,63ebc2bce05579ac6b13affc,64d2fd46c836a06233681665,64dc7d55ad403bec63a1d43f,,,,,,,decisionTrl,resources/DG.BMP,resources/DB.BMP,Door2,-0.416505701,0.025763204,1,0,0,10.2369,optionLeft,20,1285,1,23,0,23,0,1,,,,,,,,,,,,,,,,,,,,,,,,,,,,,,,,,,,,,,,
,,,,,,,UNITED KINGDOM,2023-08-16_08h42.29.801,HF_wild_card,2022.2.4,MacIntel,60.0024001,63ebc2bce05579ac6b13affc,64d2fd46c836a06233681665,64dc7d55ad403bec63a1d43f,,,,,,,decisionTrl,resources/DY.BMP,resources/DR.BMP,Door3,0.41632683,-0.007634272,1,0,0,5.7179,optionRight,70,1355,1,24,0,24,0,1,,,,,,,,,,,,,,,,,,,,,,,,,,,,,,,,,,,,,,,
,,,,,,,UNITED KINGDOM,2023-08-16_08h42.29.801,HF_wild_card,2022.2.4,MacIntel,60.0024001,63ebc2bce05579ac6b13affc,64d2fd46c836a06233681665,64dc7d55ad403bec63a1d43f,,,,,,,decisionTrl,resources/DR.BMP,resources/DY.BMP,Door4,0.486999444,-0.005052268,1,0,0,9.5195,optionRight,80,1435,1,25,0,25,0,1,,,,,,,,,,,,,,,,,,,,,,,,,,,,,,,,,,,,,,,
,,,,,,,UNITED KINGDOM,2023-08-16_08h42.29.801,HF_wild_card,2022.2.4,MacIntel,60.0024001,63ebc2bce05579ac6b13affc,64d2fd46c836a06233681665,64dc7d55ad403bec63a1d43f,,,,,,,sngl,resources/Empty.png,resources/DY.BMP,Door4,0.404837859,0.017829311,1,0,0,2.1192,optionRight,60,1495,1,26,0,26,0,1,,,,,,,,,,,,,,,,,,,,,,,,,,,,,,,,,,,,,,,
,,,,,,,UNITED KINGDOM,2023-08-16_08h42.29.801,HF_wild_card,2022.2.4,MacIntel,60.0024001,63ebc2bce05579ac6b13affc,64d2fd46c836a06233681665,64dc7d55ad403bec63a1d43f,,,,,,,decisionTrl,resources/DY.BMP,resources/DBN.BMP,Door4,-0.410720334,0.040918009,1,0,0,3.5874,optionLeft,80,1575,1,27,0,27,0,1,,,,,,,,,,,,,,,,,,,,,,,,,,,,,,,,,,,,,,,
,,,,,,,UNITED KINGDOM,2023-08-16_08h42.29.801,HF_wild_card,2022.2.4,MacIntel,60.0024001,63ebc2bce05579ac6b13affc,64d2fd46c836a06233681665,64dc7d55ad403bec63a1d43f,,,,,,,decisionTrl,resources/DBN.BMP,resources/DG.BMP,WildCard_NonEx,-0.430316616,0.09037122,1,0,0,10.7886,optionLeft,55,1630,1,28,0,28,0,1,,,,,,,,,,,,,,,,,,,,,,,,,,,,,,,,,,,,,,,
,,,,,,,UNITED KINGDOM,2023-08-16_08h42.29.801,HF_wild_card,2022.2.4,MacIntel,60.0024001,63ebc2bce05579ac6b13affc,64d2fd46c836a06233681665,64dc7d55ad403bec63a1d43f,,,,,,,ctch,resources/DY.BMP,resources/DB.BMP,Door4,-0.428828097,-0.00949371,1,0,0,3.884,optionLeft,80,1710,1,29,0,29,0,1,,,,,,,,,,,,,,,,,,,,,,,,,,,,,,,,,,,,,,,
,,,,,,,UNITED KINGDOM,2023-08-16_08h42.29.801,HF_wild_card,2022.2.4,MacIntel,60.0024001,63ebc2bce05579ac6b13affc,64d2fd46c836a06233681665,64dc7d55ad403bec63a1d43f,,,,,,,ctch,resources/DG.BMP,resources/DR.BMP,Door3,0.399215986,0.014958287,1,0,0,9.7541,optionRight,70,1780,1,30,0,30,0,1,,,,,,,,,,,,,,,,,,,,,,,,,,,,,,,,,,,,,,,
,,,,,,,UNITED KINGDOM,2023-08-16_08h42.29.801,HF_wild_card,2022.2.4,MacIntel,60.0024001,63ebc2bce05579ac6b13affc,64d2fd46c836a06233681665,64dc7d55ad403bec63a1d43f,,,,,,,sngl,resources/Empty.png,resources/DBN.BMP,WildCard_NonEx,0.598810973,0.002818998,1,0,0,1.6006,optionRight,55,1835,1,31,0,31,0,1,,,,,,,,,,,,,,,,,,,,,,,,,,,,,,,,,,,,,,,
,,,,,,,UNITED KINGDOM,2023-08-16_08h42.29.801,HF_wild_card,2022.2.4,MacIntel,60.0024001,63ebc2bce05579ac6b13affc,64d2fd46c836a06233681665,64dc7d55ad403bec63a1d43f,,,,,,,decisionTrl,resources/DB.BMP,resources/DG.BMP,Door2,0.310787087,0.030917592,1,0,0,11.3391,optionRight,20,1855,1,32,0,32,0,1,,,,,,,,,,,,,,,,,,,,,,,,,,,,,,,,,,,,,,,
,,,,,,,UNITED KINGDOM,2023-08-16_08h42.29.801,HF_wild_card,2022.2.4,MacIntel,60.0024001,63ebc2bce05579ac6b13affc,64d2fd46c836a06233681665,64dc7d55ad403bec63a1d43f,,,,,,,ctch,resources/DB.BMP,resources/DY.BMP,Door4,0.471049826,-0.000885416,1,0,0,7.9682,optionRight,60,1915,1,33,0,33,0,1,,,,,,,,,,,,,,,,,,,,,,,,,,,,,,,,,,,,,,,
,,,,,,,UNITED KINGDOM,2023-08-16_08h42.29.801,HF_wild_card,2022.2.4,MacIntel,60.0024001,63ebc2bce05579ac6b13affc,64d2fd46c836a06233681665,64dc7d55ad403bec63a1d43f,,,,,,,decisionTrl,resources/DR.BMP,resources/DBN.BMP,Door3,-0.358844075,0.059069194,1,0,0,11.7724,optionLeft,70,1985,1,34,0,34,0,1,,,,,,,,,,,,,,,,,,,,,,,,,,,,,,,,,,,,,,,
,,,,,,,UNITED KINGDOM,2023-08-16_08h42.29.801,HF_wild_card,2022.2.4,MacIntel,60.0024001,63ebc2bce05579ac6b13affc,64d2fd46c836a06233681665,64dc7d55ad403bec63a1d43f,,,,,,,decisionTrl,resources/DG.BMP,resources/DB.BMP,Door1,0.427083378,-0.020655117,1,0,0,5.3651,optionRight,30,2015,1,35,0,35,0,1,,,,,,,,,,,,,,,,,,,,,,,,,,,,,,,,,,,,,,,
,,,,,,,UNITED KINGDOM,2023-08-16_08h42.29.801,HF_wild_card,2022.2.4,MacIntel,60.0024001,63ebc2bce05579ac6b13affc,64d2fd46c836a06233681665,64dc7d55ad403bec63a1d43f,,,,,,,sngl,resources/DB.BMP,resources/Empty.png,Door1,-0.323481214,-0.003674574,1,0,0,1.1816,optionLeft,30,2045,1,36,0,36,0,1,,,,,,,,,,,,,,,,,,,,,,,,,,,,,,,,,,,,,,,
,,,,,,,UNITED KINGDOM,2023-08-16_08h42.29.801,HF_wild_card,2022.2.4,MacIntel,60.0024001,63ebc2bce05579ac6b13affc,64d2fd46c836a06233681665,64dc7d55ad403bec63a1d43f,,,,,,,decisionTrl,resources/DG.BMP,resources/DB.BMP,Door1,0.456453685,-0.032100733,1,0,0,6.7983,optionRight,30,2075,1,37,0,37,0,1,,,,,,,,,,,,,,,,,,,,,,,,,,,,,,,,,,,,,,,
,,,,,,,UNITED KINGDOM,2023-08-16_08h42.29.801,HF_wild_card,2022.2.4,MacIntel,60.0024001,63ebc2bce05579ac6b13affc,64d2fd46c836a06233681665,64dc7d55ad403bec63a1d43f,,,,,,,ctch,resources/DG.BMP,resources/DR.BMP,Door3,0.358795132,-0.083500023,1,0,0,2.0025,optionRight,70,2145,1,38,0,38,0,1,,,,,,,,,,,,,,,,,,,,,,,,,,,,,,,,,,,,,,,
,,,,,,,UNITED KINGDOM,2023-08-16_08h42.29.801,HF_wild_card,2022.2.4,MacIntel,60.0024001,63ebc2bce05579ac6b13affc,64d2fd46c836a06233681665,64dc7d55ad403bec63a1d43f,,,,,,,sngl,resources/Empty.png,resources/DB.BMP,Door1,0.403792336,-0.051229801,1,0,0,1.0491,optionRight,30,2175,1,39,0,39,0,1,,,,,,,,,,,,,,,,,,,,,,,,,,,,,,,,,,,,,,,
,,,,,,,UNITED KINGDOM,2023-08-16_08h42.29.801,HF_wild_card,2022.2.4,MacIntel,60.0024001,63ebc2bce05579ac6b13affc,64d2fd46c836a06233681665,64dc7d55ad403bec63a1d43f,,,,,,,decisionTrl,resources/DR.BMP,resources/DY.BMP,Door4,0.460471303,-0.078384179,1,0,0,6.2468,optionRight,60,2235,1,40,0,40,0,1,,,,,,,,,,,,,,,,,,,,,,,,,,,,,,,,,,,,,,,
,,,,,,,UNITED KINGDOM,2023-08-16_08h42.29.801,HF_wild_card,2022.2.4,MacIntel,60.0024001,63ebc2bce05579ac6b13affc,64d2fd46c836a06233681665,64dc7d55ad403bec63a1d43f,,,,,,,decisionTrl,resources/DY.BMP,resources/DR.BMP,Door4,-0.368406239,-0.013241479,1,0,0,7.8856,optionLeft,60,2295,1,41,0,41,0,1,,,,,,,,,,,,,,,,,,,,,,,,,,,,,,,,,,,,,,,
,,,,,,,UNITED KINGDOM,2023-08-16_08h42.29.801,HF_wild_card,2022.2.4,MacIntel,60.0024001,63ebc2bce05579ac6b13affc,64d2fd46c836a06233681665,64dc7d55ad403bec63a1d43f,,,,,,,decisionTrl,resources/DR.BMP,resources/DY.BMP,Door4,0.351058638,0.007279713,1,0,0,10.7228,optionRight,60,2355,1,42,0,42,0,1,,,,,,,,,,,,,,,,,,,,,,,,,,,,,,,,,,,,,,,
,,,,,,,UNITED KINGDOM,2023-08-16_08h42.29.801,HF_wild_card,2022.2.4,MacIntel,60.0024001,63ebc2bce05579ac6b13affc,64d2fd46c836a06233681665,64dc7d55ad403bec63a1d43f,,,,,,,decisionTrl,resources/DB.BMP,resources/DG.BMP,Door1,-0.346357949,-0.056234853,1,0,0,11.2565,optionLeft,30,2385,1,43,0,43,0,1,,,,,,,,,,,,,,,,,,,,,,,,,,,,,,,,,,,,,,,
,,,,,,,UNITED KINGDOM,2023-08-16_08h42.29.801,HF_wild_card,2022.2.4,MacIntel,60.0024001,63ebc2bce05579ac6b13affc,64d2fd46c836a06233681665,64dc7d55ad403bec63a1d43f,,,,,,,,,,,,,,,,,,,,,,,,,,0,0,0,0,1,,,,,,,,,,,,,,,,,,,,,,,,,,,,,,,,,,
,,,,,,,UNITED KINGDOM,2023-08-16_08h42.29.801,HF_wild_card,2022.2.4,MacIntel,60.0024001,63ebc2bce05579ac6b13affc,64d2fd46c836a06233681665,64dc7d55ad403bec63a1d43f,,,,,,,decisionTrl,resources/DB.BMP,resources/DG.BMP,Door1,-0.319998348,-0.079145324,1,0,0,12.5371,optionLeft,30,2415,2,0,0,0,0,1,,,,,,,,,,,,,,,,,,,,,,,,,,,,,,,,,,,,,,,
,,,,,,,UNITED KINGDOM,2023-08-16_08h42.29.801,HF_wild_card,2022.2.4,MacIntel,60.0024001,63ebc2bce05579ac6b13affc,64d2fd46c836a06233681665,64dc7d55ad403bec63a1d43f,,,,,,,decisionTrl,resources/DBN.BMP,resources/DG.BMP,WildCard_NonEx,-0.279423281,-0.024528139,1,0,0,3.9377,optionLeft,55,2470,2,1,0,1,0,1,,,,,,,,,,,,,,,,,,,,,,,,,,,,,,,,,,,,,,,
,,,,,,,UNITED KINGDOM,2023-08-16_08h42.29.801,HF_wild_card,2022.2.4,MacIntel,60.0024001,63ebc2bce05579ac6b13affc,64d2fd46c836a06233681665,64dc7d55ad403bec63a1d43f,,,,,,,decisionTrl,resources/DR.BMP,resources/DY.BMP,Door3,-0.431944819,0.013084352,1,0,0,3.8193,optionLeft,70,2540,2,2,0,2,0,1,,,,,,,,,,,,,,,,,,,,,,,,,,,,,,,,,,,,,,,
,,,,,,,UNITED KINGDOM,2023-08-16_08h42.29.801,HF_wild_card,2022.2.4,MacIntel,60.0024001,63ebc2bce05579ac6b13affc,64d2fd46c836a06233681665,64dc7d55ad403bec63a1d43f,,,,,,,ctch,resources/DB.BMP,resources/DY.BMP,Door4,0.412583701,9.48382E-07,1,0,0,2.5199,optionRight,80,2620,2,3,0,3,0,1,,,,,,,,,,,,,,,,,,,,,,,,,,,,,,,,,,,,,,,
,,,,,,,UNITED KINGDOM,2023-08-16_08h42.29.801,HF_wild_card,2022.2.4,MacIntel,60.0024001,63ebc2bce05579ac6b13affc,64d2fd46c836a06233681665,64dc7d55ad403bec63a1d43f,,,,,,,decisionTrl,resources/DY.BMP,resources/DR.BMP,Door3,0.387813725,0.010521655,1,0,0,3.5679,optionRight,70,2690,2,4,0,4,0,1,,,,,,,,,,,,,,,,,,,,,,,,,,,,,,,,,,,,,,,
,,,,,,,UNITED KINGDOM,2023-08-16_08h42.29.801,HF_wild_card,2022.2.4,MacIntel,60.0024001,63ebc2bce05579ac6b13affc,64d2fd46c836a06233681665,64dc7d55ad403bec63a1d43f,,,,,,,ctch,resources/DB.BMP,resources/DY.BMP,Door4,0.319164145,0.022482716,1,0,0,6.23,optionRight,60,2750,2,5,0,5,0,1,,,,,,,,,,,,,,,,,,,,,,,,,,,,,,,,,,,,,,,
,,,,,,,UNITED KINGDOM,2023-08-16_08h42.29.801,HF_wild_card,2022.2.4,MacIntel,60.0024001,63ebc2bce05579ac6b13affc,64d2fd46c836a06233681665,64dc7d55ad403bec63a1d43f,,,,,,,decisionTrl,resources/DB.BMP,resources/DG.BMP,Door1,-0.014762718,0.005309483,1,0,0,6.2011,optionLeft,30,2780,2,6,0,6,0,1,,,,,,,,,,,,,,,,,,,,,,,,,,,,,,,,,,,,,,,
,,,,,,,UNITED KINGDOM,2023-08-16_08h42.29.801,HF_wild_card,2022.2.4,MacIntel,60.0024001,63ebc2bce05579ac6b13affc,64d2fd46c836a06233681665,64dc7d55ad403bec63a1d43f,,,,,,,sngl,resources/Empty.png,resources/DB.BMP,Door1,0.359040763,-0.101275411,1,0,0,2.2986,optionRight,30,2810,2,7,0,7,0,1,,,,,,,,,,,,,,,,,,,,,,,,,,,,,,,,,,,,,,,
,,,,,,,UNITED KINGDOM,2023-08-16_08h42.29.801,HF_wild_card,2022.2.4,MacIntel,60.0024001,63ebc2bce05579ac6b13affc,64d2fd46c836a06233681665,64dc7d55ad403bec63a1d43f,,,,,,,sngl,resources/Empty.png,resources/DG.BMP,Door2,0.42923187,0.008763388,1,0,0,1.4501,optionRight,40,2850,2,8,0,8,0,1,,,,,,,,,,,,,,,,,,,,,,,,,,,,,,,,,,,,,,,
,,,,,,,UNITED KINGDOM,2023-08-16_08h42.29.801,HF_wild_card,2022.2.4,MacIntel,60.0024001,63ebc2bce05579ac6b13affc,64d2fd46c836a06233681665,64dc7d55ad403bec63a1d43f,,,,,,,ctch,resources/DY.BMP,resources/DB.BMP,Door4,-0.345495734,-0.005302776,1,0,0,1.5138,optionLeft,60,2910,2,9,0,9,0,1,,,,,,,,,,,,,,,,,,,,,,,,,,,,,,,,,,,,,,,
,,,,,,,UNITED KINGDOM,2023-08-16_08h42.29.801,HF_wild_card,2022.2.4,MacIntel,60.0024001,63ebc2bce05579ac6b13affc,64d2fd46c836a06233681665,64dc7d55ad403bec63a1d43f,,,,,,,decisionTrl,resources/DR.BMP,resources/DY.BMP,Door3,-0.37592579,0.048042661,1,0,0,2.4204,optionLeft,70,2980,2,10,0,10,0,1,,,,,,,,,,,,,,,,,,,,,,,,,,,,,,,,,,,,,,,
,,,,,,,UNITED KINGDOM,2023-08-16_08h42.29.801,HF_wild_card,2022.2.4,MacIntel,60.0024001,63ebc2bce05579ac6b13affc,64d2fd46c836a06233681665,64dc7d55ad403bec63a1d43f,,,,,,,decisionTrl,resources/DG.BMP,resources/DB.BMP,Door1,0.379354835,0.003825773,1,0,0,2.9812,optionRight,30,3010,2,11,0,11,0,1,,,,,,,,,,,,,,,,,,,,,,,,,,,,,,,,,,,,,,,
,,,,,,,UNITED KINGDOM,2023-08-16_08h42.29.801,HF_wild_card,2022.2.4,MacIntel,60.0024001,63ebc2bce05579ac6b13affc,64d2fd46c836a06233681665,64dc7d55ad403bec63a1d43f,,,,,,,sngl,resources/DR.BMP,resources/Empty.png,Door3,-0.37615225,-0.034740554,1,0,0,1.1021,optionLeft,70,3080,2,12,0,12,0,1,,,,,,,,,,,,,,,,,,,,,,,,,,,,,,,,,,,,,,,
,,,,,,,UNITED KINGDOM,2023-08-16_08h42.29.801,HF_wild_card,2022.2.4,MacIntel,60.0024001,63ebc2bce05579ac6b13affc,64d2fd46c836a06233681665,64dc7d55ad403bec63a1d43f,,,,,,,decisionTrl,resources/DB.BMP,resources/DBN.BMP,WildCard_NonEx,0.34549001,0.018869821,1,0,0,2.8974,optionRight,45,3125,2,13,0,13,0,1,,,,,,,,,,,,,,,,,,,,,,,,,,,,,,,,,,,,,,,
,,,,,,,UNITED KINGDOM,2023-08-16_08h42.29.801,HF_wild_card,2022.2.4,MacIntel,60.0024001,63ebc2bce05579ac6b13affc,64d2fd46c836a06233681665,64dc7d55ad403bec63a1d43f,,,,,,,sngl,resources/Empty.png,resources/DR.BMP,Door3,0.212242135,-0.037799458,1,0,0,0.9698,optionRight,70,3195,2,14,0,14,0,1,,,,,,,,,,,,,,,,,,,,,,,,,,,,,,,,,,,,,,,
,,,,,,,UNITED KINGDOM,2023-08-16_08h42.29.801,HF_wild_card,2022.2.4,MacIntel,60.0024001,63ebc2bce05579ac6b13affc,64d2fd46c836a06233681665,64dc7d55ad403bec63a1d43f,,,,,,,ctch,resources/DY.BMP,resources/DB.BMP,Door4,-0.356242799,-0.005586986,1,0,0,1.884,optionLeft,60,3255,2,15,0,15,0,1,,,,,,,,,,,,,,,,,,,,,,,,,,,,,,,,,,,,,,,
,,,,,,,UNITED KINGDOM,2023-08-16_08h42.29.801,HF_wild_card,2022.2.4,MacIntel,60.0024001,63ebc2bce05579ac6b13affc,64d2fd46c836a06233681665,64dc7d55ad403bec63a1d43f,,,,,,,decisionTrl,resources/DBN.BMP,resources/DB.BMP,WildCard_NonEx,-0.379350804,-0.024325863,1,0,0,8.3884,optionLeft,45,3300,2,16,0,16,0,1,,,,,,,,,,,,,,,,,,,,,,,,,,,,,,,,,,,,,,,
,,,,,,,UNITED KINGDOM,2023-08-16_08h42.29.801,HF_wild_card,2022.2.4,MacIntel,60.0024001,63ebc2bce05579ac6b13affc,64d2fd46c836a06233681665,64dc7d55ad403bec63a1d43f,,,,,,,decisionTrl,resources/DG.BMP,resources/DB.BMP,Door1,0.33976246,0.019505711,1,0,0,1.7649,optionRight,30,3330,2,17,0,17,0,1,,,,,,,,,,,,,,,,,,,,,,,,,,,,,,,,,,,,,,,
,,,,,,,UNITED KINGDOM,2023-08-16_08h42.29.801,HF_wild_card,2022.2.4,MacIntel,60.0024001,63ebc2bce05579ac6b13affc,64d2fd46c836a06233681665,64dc7d55ad403bec63a1d43f,,,,,,,ctch,resources/DR.BMP,resources/DG.BMP,Door3,-0.409328109,-0.01117973,1,0,0,1.6981,optionLeft,70,3400,2,18,0,18,0,1,,,,,,,,,,,,,,,,,,,,,,,,,,,,,,,,,,,,,,,
,,,,,,,UNITED KINGDOM,2023-08-16_08h42.29.801,HF_wild_card,2022.2.4,MacIntel,60.0024001,63ebc2bce05579ac6b13affc,64d2fd46c836a06233681665,64dc7d55ad403bec63a1d43f,,,,,,,sngl,resources/Empty.png,resources/DBN.BMP,WildCard_NonEx,0.43111075,0.020459513,1,0,0,1.346,optionRight,45,3445,2,19,0,19,0,1,,,,,,,,,,,,,,,,,,,,,,,,,,,,,,,,,,,,,,,
,,,,,,,UNITED KINGDOM,2023-08-16_08h42.29.801,HF_wild_card,2022.2.4,MacIntel,60.0024001,63ebc2bce05579ac6b13affc,64d2fd46c836a06233681665,64dc7d55ad403bec63a1d43f,,,,,,,ctch,resources/DR.BMP,resources/DG.BMP,Door3,-0.389625846,-0.046446297,1,0,0,1.2137,optionLeft,70,3515,2,20,0,20,0,1,,,,,,,,,,,,,,,,,,,,,,,,,,,,,,,,,,,,,,,
,,,,,,,UNITED KINGDOM,2023-08-16_08h42.29.801,HF_wild_card,2022.2.4,MacIntel,60.0024001,63ebc2bce05579ac6b13affc,64d2fd46c836a06233681665,64dc7d55ad403bec63a1d43f,,,,,,,decisionTrl,resources/DBN.BMP,resources/DR.BMP,Door3,0.459214019,0.003724635,1,0,0,1.7168,optionRight,70,3585,2,21,0,21,0,1,,,,,,,,,,,,,,,,,,,,,,,,,,,,,,,,,,,,,,,
,,,,,,,UNITED KINGDOM,2023-08-16_08h42.29.801,HF_wild_card,2022.2.4,MacIntel,60.0024001,63ebc2bce05579ac6b13affc,64d2fd46c836a06233681665,64dc7d55ad403bec63a1d43f,,,,,,,sngl,resources/Empty.png,resources/DY.BMP,Door4,0.369802325,0.015502625,1,0,0,0.801,optionRight,80,3665,2,22,0,22,0,1,,,,,,,,,,,,,,,,,,,,,,,,,,,,,,,,,,,,,,,
,,,,,,,UNITED KINGDOM,2023-08-16_08h42.29.801,HF_wild_card,2022.2.4,MacIntel,60.0024001,63ebc2bce05579ac6b13affc,64d2fd46c836a06233681665,64dc7d55ad403bec63a1d43f,,,,,,,decisionTrl,resources/DBN.BMP,resources/DY.BMP,Door4,0.355832522,0.007978196,1,0,0,1.1482,optionRight,80,3745,2,23,0,23,0,1,,,,,,,,,,,,,,,,,,,,,,,,,,,,,,,,,,,,,,,
,,,,,,,UNITED KINGDOM,2023-08-16_08h42.29.801,HF_wild_card,2022.2.4,MacIntel,60.0024001,63ebc2bce05579ac6b13affc,64d2fd46c836a06233681665,64dc7d55ad403bec63a1d43f,,,,,,,decisionTrl,resources/DR.BMP,resources/DY.BMP,Door3,-0.405142019,-0.070903139,1,0,0,2.6309,optionLeft,70,3815,2,24,0,24,0,1,,,,,,,,,,,,,,,,,,,,,,,,,,,,,,,,,,,,,,,
,,,,,,,UNITED KINGDOM,2023-08-16_08h42.29.801,HF_wild_card,2022.2.4,MacIntel,60.0024001,63ebc2bce05579ac6b13affc,64d2fd46c836a06233681665,64dc7d55ad403bec63a1d43f,,,,,,,decisionTrl,resources/DB.BMP,resources/DG.BMP,Door1,-0.371383244,-0.060170435,1,0,0,1.6998,optionLeft,30,3845,2,25,0,25,0,1,,,,,,,,,,,,,,,,,,,,,,,,,,,,,,,,,,,,,,,
,,,,,,,UNITED KINGDOM,2023-08-16_08h42.29.801,HF_wild_card,2022.2.4,MacIntel,60.0024001,63ebc2bce05579ac6b13affc,64d2fd46c836a06233681665,64dc7d55ad403bec63a1d43f,,,,,,,sngl,resources/DBN.BMP,resources/Empty.png,WildCard_NonEx,-0.310094226,-0.059895845,1,0,0,0.9139,optionLeft,55,3900,2,26,0,26,0,1,,,,,,,,,,,,,,,,,,,,,,,,,,,,,,,,,,,,,,,
,,,,,,,UNITED KINGDOM,2023-08-16_08h42.29.801,HF_wild_card,2022.2.4,MacIntel,60.0024001,63ebc2bce05579ac6b13affc,64d2fd46c836a06233681665,64dc7d55ad403bec63a1d43f,,,,,,,sngl,resources/DG.BMP,resources/Empty.png,Door2,-0.306139337,-0.008077471,1,0,0,0.8806,optionLeft,20,3920,2,27,0,27,0,1,,,,,,,,,,,,,,,,,,,,,,,,,,,,,,,,,,,,,,,
,,,,,,,UNITED KINGDOM,2023-08-16_08h42.29.801,HF_wild_card,2022.2.4,MacIntel,60.0024001,63ebc2bce05579ac6b13affc,64d2fd46c836a06233681665,64dc7d55ad403bec63a1d43f,,,,,,,ctch,resources/DG.BMP,resources/DR.BMP,Door3,0.371093344,-0.00684427,1,0,0,1.582,optionRight,70,3990,2,28,0,28,0,1,,,,,,,,,,,,,,,,,,,,,,,,,,,,,,,,,,,,,,,
,,,,,,,UNITED KINGDOM,2023-08-16_08h42.29.801,HF_wild_card,2022.2.4,MacIntel,60.0024001,63ebc2bce05579ac6b13affc,64d2fd46c836a06233681665,64dc7d55ad403bec63a1d43f,,,,,,,sngl,resources/DBN.BMP,resources/Empty.png,WildCard_NonEx,-0.307555577,-0.034432296,1,0,0,1.9314,optionLeft,45,4035,2,29,0,29,0,1,,,,,,,,,,,,,,,,,,,,,,,,,,,,,,,,,,,,,,,
,,,,,,,UNITED KINGDOM,2023-08-16_08h42.29.801,HF_wild_card,2022.2.4,MacIntel,60.0024001,63ebc2bce05579ac6b13affc,64d2fd46c836a06233681665,64dc7d55ad403bec63a1d43f,,,,,,,decisionTrl,resources/DR.BMP,resources/DBN.BMP,Door3,-0.355505771,-0.017283144,1,0,0,2.1967,optionLeft,70,4105,2,30,0,30,0,1,,,,,,,,,,,,,,,,,,,,,,,,,,,,,,,,,,,,,,,
,,,,,,,UNITED KINGDOM,2023-08-16_08h42.29.801,HF_wild_card,2022.2.4,MacIntel,60.0024001,63ebc2bce05579ac6b13affc,64d2fd46c836a06233681665,64dc7d55ad403bec63a1d43f,,,,,,,decisionTrl,resources/DY.BMP,resources/DR.BMP,Door3,0.369074916,-0.049606408,1,0,0,3.1404,optionRight,70,4175,2,31,0,31,0,1,,,,,,,,,,,,,,,,,,,,,,,,,,,,,,,,,,,,,,,
,,,,,,,UNITED KINGDOM,2023-08-16_08h42.29.801,HF_wild_card,2022.2.4,MacIntel,60.0024001,63ebc2bce05579ac6b13affc,64d2fd46c836a06233681665,64dc7d55ad403bec63a1d43f,,,,,,,sngl,resources/DB.BMP,resources/Empty.png,Door1,-0.332436345,-0.064423996,1,0,0,0.9024,optionLeft,30,4205,2,32,0,32,0,1,,,,,,,,,,,,,,,,,,,,,,,,,,,,,,,,,,,,,,,
,,,,,,,UNITED KINGDOM,2023-08-16_08h42.29.801,HF_wild_card,2022.2.4,MacIntel,60.0024001,63ebc2bce05579ac6b13affc,64d2fd46c836a06233681665,64dc7d55ad403bec63a1d43f,,,,,,,sngl,resources/DY.BMP,resources/Empty.png,Door4,-0.36703332,-0.051258659,1,0,0,0.8164,optionLeft,60,4265,2,33,0,33,0,1,,,,,,,,,,,,,,,,,,,,,,,,,,,,,,,,,,,,,,,
,,,,,,,UNITED KINGDOM,2023-08-16_08h42.29.801,HF_wild_card,2022.2.4,MacIntel,60.0024001,63ebc2bce05579ac6b13affc,64d2fd46c836a06233681665,64dc7d55ad403bec63a1d43f,,,,,,,decisionTrl,resources/DY.BMP,resources/DR.BMP,Door3,0.333880595,-0.054134559,1,0,0,1.4987,optionRight,70,4335,2,34,0,34,0,1,,,,,,,,,,,,,,,,,,,,,,,,,,,,,,,,,,,,,,,
,,,,,,,UNITED KINGDOM,2023-08-16_08h42.29.801,HF_wild_card,2022.2.4,MacIntel,60.0024001,63ebc2bce05579ac6b13affc,64d2fd46c836a06233681665,64dc7d55ad403bec63a1d43f,,,,,,,decisionTrl,resources/DY.BMP,resources/DR.BMP,Door3,0.431500942,0.027805646,1,0,0,1.1145,optionRight,70,4405,2,35,0,35,0,1,,,,,,,,,,,,,,,,,,,,,,,,,,,,,,,,,,,,,,,
,,,,,,,UNITED KINGDOM,2023-08-16_08h42.29.801,HF_wild_card,2022.2.4,MacIntel,60.0024001,63ebc2bce05579ac6b13affc,64d2fd46c836a06233681665,64dc7d55ad403bec63a1d43f,,,,,,,sngl,resources/Empty.png,resources/DBN.BMP,WildCard_NonEx,0.386142134,-0.036074961,1,0,0,0.7146,optionRight,55,4460,2,36,0,36,0,1,,,,,,,,,,,,,,,,,,,,,,,,,,,,,,,,,,,,,,,
,,,,,,,UNITED KINGDOM,2023-08-16_08h42.29.801,HF_wild_card,2022.2.4,MacIntel,60.0024001,63ebc2bce05579ac6b13affc,64d2fd46c836a06233681665,64dc7d55ad403bec63a1d43f,,,,,,,decisionTrl,resources/DR.BMP,resources/DY.BMP,Door3,-0.309126029,-0.034408214,1,0,0,1.7999,optionLeft,70,4530,2,37,0,37,0,1,,,,,,,,,,,,,,,,,,,,,,,,,,,,,,,,,,,,,,,
,,,,,,,UNITED KINGDOM,2023-08-16_08h42.29.801,HF_wild_card,2022.2.4,MacIntel,60.0024001,63ebc2bce05579ac6b13affc,64d2fd46c836a06233681665,64dc7d55ad403bec63a1d43f,,,,,,,decisionTrl,resources/DG.BMP,resources/DBN.BMP,WildCard_NonEx,0.314380642,0.004302674,1,0,0,1.5669,optionRight,55,4585,2,38,0,38,0,1,,,,,,,,,,,,,,,,,,,,,,,,,,,,,,,,,,,,,,,
,,,,,,,UNITED KINGDOM,2023-08-16_08h42.29.801,HF_wild_card,2022.2.4,MacIntel,60.0024001,63ebc2bce05579ac6b13affc,64d2fd46c836a06233681665,64dc7d55ad403bec63a1d43f,,,,,,,decisionTrl,resources/DG.BMP,resources/DB.BMP,Door1,0.328943047,-0.006666042,1,0,0,1.9321,optionRight,30,4615,2,39,0,39,0,1,,,,,,,,,,,,,,,,,,,,,,,,,,,,,,,,,,,,,,,
,,,,,,,UNITED KINGDOM,2023-08-16_08h42.29.801,HF_wild_card,2022.2.4,MacIntel,60.0024001,63ebc2bce05579ac6b13affc,64d2fd46c836a06233681665,64dc7d55ad403bec63a1d43f,,,,,,,ctch,resources/DG.BMP,resources/DR.BMP,Door3,0.411152999,-0.0285842,1,0,0,0.916,optionRight,70,4685,2,40,0,40,0,1,,,,,,,,,,,,,,,,,,,,,,,,,,,,,,,,,,,,,,,
,,,,,,,UNITED KINGDOM,2023-08-16_08h42.29.801,HF_wild_card,2022.2.4,MacIntel,60.0024001,63ebc2bce05579ac6b13affc,64d2fd46c836a06233681665,64dc7d55ad403bec63a1d43f,,,,,,,decisionTrl,resources/DB.BMP,resources/DG.BMP,Door1,-0.451613347,-0.086886492,1,0,0,1.2157,optionLeft,30,4715,2,41,0,41,0,1,,,,,,,,,,,,,,,,,,,,,,,,,,,,,,,,,,,,,,,
,,,,,,,UNITED KINGDOM,2023-08-16_08h42.29.801,HF_wild_card,2022.2.4,MacIntel,60.0024001,63ebc2bce05579ac6b13affc,64d2fd46c836a06233681665,64dc7d55ad403bec63a1d43f,,,,,,,decisionTrl,resources/DG.BMP,resources/DB.BMP,Door1,0.359093737,-0.042091564,1,0,0,0.8473,optionRight,30,4745,2,42,0,42,0,1,,,,,,,,,,,,,,,,,,,,,,,,,,,,,,,,,,,,,,,
,,,,,,,UNITED KINGDOM,2023-08-16_08h42.29.801,HF_wild_card,2022.2.4,MacIntel,60.0024001,63ebc2bce05579ac6b13affc,64d2fd46c836a06233681665,64dc7d55ad403bec63a1d43f,,,,,,,decisionTrl,resources/DY.BMP,resources/DBN.BMP,Door4,-0.354518302,-0.073181627,1,0,0,4.5994,optionLeft,80,4825,2,43,0,43,0,1,,,,,,,,,,,,,,,,,,,,,,,,,,,,,,,,,,,,,,,
,,,,,,,UNITED KINGDOM,2023-08-16_08h42.29.801,HF_wild_card,2022.2.4,MacIntel,60.0024001,63ebc2bce05579ac6b13affc,64d2fd46c836a06233681665,64dc7d55ad403bec63a1d43f,,,,,,,,,,,,,,,,,,,,,,,,,,1,0,1,0,1,,,,,,,,,,,,,,,,,,,,,,,,,,,,,,,,,,
,,,,,,,UNITED KINGDOM,2023-08-16_08h42.29.801,HF_wild_card,2022.2.4,MacIntel,60.0024001,63ebc2bce05579ac6b13affc,64d2fd46c836a06233681665,64dc7d55ad403bec63a1d43f,,,,,,,decisionTrl,resources/DG.BMP,resources/DB.BMP,Door1,0.478135866,-0.035270428,1,0,0,3.3014,optionRight,30,4855,3,0,0,0,0,1,,,,,,,,,,,,,,,,,,,,,,,,,,,,,,,,,,,,,,,
,,,,,,,UNITED KINGDOM,2023-08-16_08h42.29.801,HF_wild_card,2022.2.4,MacIntel,60.0024001,63ebc2bce05579ac6b13affc,64d2fd46c836a06233681665,64dc7d55ad403bec63a1d43f,,,,,,,decisionTrl,resources/DR.BMP,resources/DBN.BMP,Door3,-0.361642852,-0.06261279,1,0,0,1.1345,optionLeft,70,4925,3,1,0,1,0,1,,,,,,,,,,,,,,,,,,,,,,,,,,,,,,,,,,,,,,,
,,,,,,,UNITED KINGDOM,2023-08-16_08h42.29.801,HF_wild_card,2022.2.4,MacIntel,60.0024001,63ebc2bce05579ac6b13affc,64d2fd46c836a06233681665,64dc7d55ad403bec63a1d43f,,,,,,,ctch,resources/DB.BMP,resources/DY.BMP,Door4,0.423340386,0.027622642,1,0,0,1.0817,optionRight,60,4985,3,2,0,2,0,1,,,,,,,,,,,,,,,,,,,,,,,,,,,,,,,,,,,,,,,
,,,,,,,UNITED KINGDOM,2023-08-16_08h42.29.801,HF_wild_card,2022.2.4,MacIntel,60.0024001,63ebc2bce05579ac6b13affc,64d2fd46c836a06233681665,64dc7d55ad403bec63a1d43f,,,,,,,decisionTrl,resources/DY.BMP,resources/DR.BMP,Door3,0.371343852,0.000656077,1,0,0,1.6834,optionRight,70,5055,3,3,0,3,0,1,,,,,,,,,,,,,,,,,,,,,,,,,,,,,,,,,,,,,,,
,,,,,,,UNITED KINGDOM,2023-08-16_08h42.29.801,HF_wild_card,2022.2.4,MacIntel,60.0024001,63ebc2bce05579ac6b13affc,64d2fd46c836a06233681665,64dc7d55ad403bec63a1d43f,,,,,,,ctch,resources/DG.BMP,resources/DR.BMP,Door3,0.398849911,-0.026936725,1,0,0,0.7317,optionRight,70,5125,3,4,0,4,0,1,,,,,,,,,,,,,,,,,,,,,,,,,,,,,,,,,,,,,,,
,,,,,,,UNITED KINGDOM,2023-08-16_08h42.29.801,HF_wild_card,2022.2.4,MacIntel,60.0024001,63ebc2bce05579ac6b13affc,64d2fd46c836a06233681665,64dc7d55ad403bec63a1d43f,,,,,,,decisionTrl,resources/DR.BMP,resources/DY.BMP,Door3,-0.330629914,-0.06204437,1,0,0,1.9624,optionLeft,70,5195,3,5,0,5,0,1,,,,,,,,,,,,,,,,,,,,,,,,,,,,,,,,,,,,,,,
,,,,,,,UNITED KINGDOM,2023-08-16_08h42.29.801,HF_wild_card,2022.2.4,MacIntel,60.0024001,63ebc2bce05579ac6b13affc,64d2fd46c836a06233681665,64dc7d55ad403bec63a1d43f,,,,,,,decisionTrl,resources/DR.BMP,resources/DY.BMP,Door3,-0.341858757,-0.042963466,1,0,0,1.3984,optionLeft,70,5265,3,6,0,6,0,1,,,,,,,,,,,,,,,,,,,,,,,,,,,,,,,,,,,,,,,
,,,,,,,UNITED KINGDOM,2023-08-16_08h42.29.801,HF_wild_card,2022.2.4,MacIntel,60.0024001,63ebc2bce05579ac6b13affc,64d2fd46c836a06233681665,64dc7d55ad403bec63a1d43f,,,,,,,sngl,resources/DR.BMP,resources/Empty.png,Door3,-0.322536998,0.015680853,1,0,0,1.9486,optionLeft,70,5335,3,7,0,7,0,1,,,,,,,,,,,,,,,,,,,,,,,,,,,,,,,,,,,,,,,
,,,,,,,UNITED KINGDOM,2023-08-16_08h42.29.801,HF_wild_card,2022.2.4,MacIntel,60.0024001,63ebc2bce05579ac6b13affc,64d2fd46c836a06233681665,64dc7d55ad403bec63a1d43f,,,,,,,sngl,resources/DBN.BMP,resources/Empty.png,WildCard_NonEx,-0.369856145,-0.02022638,1,0,0,1.1977,optionLeft,45,5380,3,8,0,8,0,1,,,,,,,,,,,,,,,,,,,,,,,,,,,,,,,,,,,,,,,
,,,,,,,UNITED KINGDOM,2023-08-16_08h42.29.801,HF_wild_card,2022.2.4,MacIntel,60.0024001,63ebc2bce05579ac6b13affc,64d2fd46c836a06233681665,64dc7d55ad403bec63a1d43f,,,,,,,sngl,resources/DG.BMP,resources/Empty.png,Door2,-0.379851855,-0.010240426,1,0,0,1.1342,optionLeft,40,5420,3,9,0,9,0,1,,,,,,,,,,,,,,,,,,,,,,,,,,,,,,,,,,,,,,,
,,,,,,,UNITED KINGDOM,2023-08-16_08h42.29.801,HF_wild_card,2022.2.4,MacIntel,60.0024001,63ebc2bce05579ac6b13affc,64d2fd46c836a06233681665,64dc7d55ad403bec63a1d43f,,,,,,,sngl,resources/DY.BMP,resources/Empty.png,Door4,-0.279736382,-0.013954425,1,0,0,1.2509,optionLeft,80,5500,3,10,0,10,0,1,,,,,,,,,,,,,,,,,,,,,,,,,,,,,,,,,,,,,,,
,,,,,,,UNITED KINGDOM,2023-08-16_08h42.29.801,HF_wild_card,2022.2.4,MacIntel,60.0024001,63ebc2bce05579ac6b13affc,64d2fd46c836a06233681665,64dc7d55ad403bec63a1d43f,,,,,,,ctch,resources/DG.BMP,resources/DR.BMP,Door3,0.406538173,0.037492996,1,0,0,1.7313,optionRight,70,5570,3,11,0,11,0,1,,,,,,,,,,,,,,,,,,,,,,,,,,,,,,,,,,,,,,,
,,,,,,,UNITED KINGDOM,2023-08-16_08h42.29.801,HF_wild_card,2022.2.4,MacIntel,60.0024001,63ebc2bce05579ac6b13affc,64d2fd46c836a06233681665,64dc7d55ad403bec63a1d43f,,,,,,,sngl,resources/Empty.png,resources/DR.BMP,Door3,0.443403949,0.016374527,1,0,0,0.8648,optionRight,70,5640,3,12,0,12,0,1,,,,,,,,,,,,,,,,,,,,,,,,,,,,,,,,,,,,,,,
,,,,,,,UNITED KINGDOM,2023-08-16_08h42.29.801,HF_wild_card,2022.2.4,MacIntel,60.0024001,63ebc2bce05579ac6b13affc,64d2fd46c836a06233681665,64dc7d55ad403bec63a1d43f,,,,,,,decisionTrl,resources/DR.BMP,resources/DY.BMP,Door3,-0.350399614,-0.046928008,1,0,0,2.1492,optionLeft,70,5710,3,13,0,13,0,1,,,,,,,,,,,,,,,,,,,,,,,,,,,,,,,,,,,,,,,
,,,,,,,UNITED KINGDOM,2023-08-16_08h42.29.801,HF_wild_card,2022.2.4,MacIntel,60.0024001,63ebc2bce05579ac6b13affc,64d2fd46c836a06233681665,64dc7d55ad403bec63a1d43f,,,,,,,sngl,resources/DBN.BMP,resources/Empty.png,WildCard_NonEx,-0.389635533,-0.017061494,1,0,0,0.9139,optionLeft,55,5765,3,14,0,14,0,1,,,,,,,,,,,,,,,,,,,,,,,,,,,,,,,,,,,,,,,
,,,,,,,UNITED KINGDOM,2023-08-16_08h42.29.801,HF_wild_card,2022.2.4,MacIntel,60.0024001,63ebc2bce05579ac6b13affc,64d2fd46c836a06233681665,64dc7d55ad403bec63a1d43f,,,,,,,decisionTrl,resources/DG.BMP,resources/DB.BMP,Door1,0.472490148,-0.008429118,1,0,0,1.4297,optionRight,30,5795,3,15,0,15,0,1,,,,,,,,,,,,,,,,,,,,,,,,,,,,,,,,,,,,,,,
,,,,,,,UNITED KINGDOM,2023-08-16_08h42.29.801,HF_wild_card,2022.2.4,MacIntel,60.0024001,63ebc2bce05579ac6b13affc,64d2fd46c836a06233681665,64dc7d55ad403bec63a1d43f,,,,,,,decisionTrl,resources/DG.BMP,resources/DB.BMP,Door1,0.378150525,-0.018472991,1,0,0,1.7669,optionRight,30,5825,3,16,0,16,0,1,,,,,,,,,,,,,,,,,,,,,,,,,,,,,,,,,,,,,,,
,,,,,,,UNITED KINGDOM,2023-08-16_08h42.29.801,HF_wild_card,2022.2.4,MacIntel,60.0024001,63ebc2bce05579ac6b13affc,64d2fd46c836a06233681665,64dc7d55ad403bec63a1d43f,,,,,,,decisionTrl,resources/DB.BMP,resources/DG.BMP,Door1,-0.405835693,-0.049322198,1,0,0,2.198,optionLeft,30,5855,3,17,0,17,0,1,,,,,,,,,,,,,,,,,,,,,,,,,,,,,,,,,,,,,,,
,,,,,,,UNITED KINGDOM,2023-08-16_08h42.29.801,HF_wild_card,2022.2.4,MacIntel,60.0024001,63ebc2bce05579ac6b13affc,64d2fd46c836a06233681665,64dc7d55ad403bec63a1d43f,,,,,,,sngl,resources/Empty.png,resources/DG.BMP,Door2,0.339805815,0.035628747,1,0,0,1.0991,optionRight,20,5875,3,18,0,18,0,1,,,,,,,,,,,,,,,,,,,,,,,,,,,,,,,,,,,,,,,
,,,,,,,UNITED KINGDOM,2023-08-16_08h42.29.801,HF_wild_card,2022.2.4,MacIntel,60.0024001,63ebc2bce05579ac6b13affc,64d2fd46c836a06233681665,64dc7d55ad403bec63a1d43f,,,,,,,decisionTrl,resources/DB.BMP,resources/DG.BMP,Door1,-0.34368446,-0.051306823,1,0,0,2.2819,optionLeft,30,5905,3,19,0,19,0,1,,,,,,,,,,,,,,,,,,,,,,,,,,,,,,,,,,,,,,,
,,,,,,,UNITED KINGDOM,2023-08-16_08h42.29.801,HF_wild_card,2022.2.4,MacIntel,60.0024001,63ebc2bce05579ac6b13affc,64d2fd46c836a06233681665,64dc7d55ad403bec63a1d43f,,,,,,,decisionTrl,resources/DBN.BMP,resources/DG.BMP,WildCard_NonEx,-0.305590224,-0.042915302,1,0,0,2.2462,optionLeft,55,5960,3,20,0,20,0,1,,,,,,,,,,,,,,,,,,,,,,,,,,,,,,,,,,,,,,,
,,,,,,,UNITED KINGDOM,2023-08-16_08h42.29.801,HF_wild_card,2022.2.4,MacIntel,60.0024001,63ebc2bce05579ac6b13affc,64d2fd46c836a06233681665,64dc7d55ad403bec63a1d43f,,,,,,,decisionTrl,resources/DB.BMP,resources/DG.BMP,Door1,-0.372072108,-0.052289584,1,0,0,1.8327,optionLeft,30,5990,3,21,0,21,0,1,,,,,,,,,,,,,,,,,,,,,,,,,,,,,,,,,,,,,,,
,,,,,,,UNITED KINGDOM,2023-08-16_08h42.29.801,HF_wild_card,2022.2.4,MacIntel,60.0024001,63ebc2bce05579ac6b13affc,64d2fd46c836a06233681665,64dc7d55ad403bec63a1d43f,,,,,,,ctch,resources/DY.BMP,resources/DB.BMP,Door4,-0.351695443,-0.063450922,1,0,0,1.6631,optionLeft,60,6050,3,22,0,22,0,1,,,,,,,,,,,,,,,,,,,,,,,,,,,,,,,,,,,,,,,
,,,,,,,UNITED KINGDOM,2023-08-16_08h42.29.801,HF_wild_card,2022.2.4,MacIntel,60.0024001,63ebc2bce05579ac6b13affc,64d2fd46c836a06233681665,64dc7d55ad403bec63a1d43f,,,,,,,decisionTrl,resources/DG.BMP,resources/DB.BMP,Door1,0.303156676,-0.002243872,1,0,0,1.0629,optionRight,30,6080,3,23,0,23,0,1,,,,,,,,,,,,,,,,,,,,,,,,,,,,,,,,,,,,,,,
,,,,,,,UNITED KINGDOM,2023-08-16_08h42.29.801,HF_wild_card,2022.2.4,MacIntel,60.0024001,63ebc2bce05579ac6b13affc,64d2fd46c836a06233681665,64dc7d55ad403bec63a1d43f,,,,,,,sngl,resources/Empty.png,resources/DBN.BMP,WildCard_NonEx,0.481613854,0.011422482,1,0,0,0.8336,optionRight,55,6135,3,24,0,24,0,1,,,,,,,,,,,,,,,,,,,,,,,,,,,,,,,,,,,,,,,
,,,,,,,UNITED KINGDOM,2023-08-16_08h42.29.801,HF_wild_card,2022.2.4,MacIntel,60.0024001,63ebc2bce05579ac6b13affc,64d2fd46c836a06233681665,64dc7d55ad403bec63a1d43f,,,,,,,sngl,resources/Empty.png,resources/DBN.BMP,WildCard_NonEx,0.362191153,-0.023627312,1,0,0,0.8464,optionRight,45,6180,3,25,0,25,0,1,,,,,,,,,,,,,,,,,,,,,,,,,,,,,,,,,,,,,,,
,,,,,,,UNITED KINGDOM,2023-08-16_08h42.29.801,HF_wild_card,2022.2.4,MacIntel,60.0024001,63ebc2bce05579ac6b13affc,64d2fd46c836a06233681665,64dc7d55ad403bec63a1d43f,,,,,,,ctch,resources/DR.BMP,resources/DG.BMP,Door3,-0.386003331,-0.065165902,1,0,0,7.555,optionLeft,70,6250,3,26,0,26,0,1,,,,,,,,,,,,,,,,,,,,,,,,,,,,,,,,,,,,,,,
,,,,,,,UNITED KINGDOM,2023-08-16_08h42.29.801,HF_wild_card,2022.2.4,MacIntel,60.0024001,63ebc2bce05579ac6b13affc,64d2fd46c836a06233681665,64dc7d55ad403bec63a1d43f,,,,,,,decisionTrl,resources/DB.BMP,resources/DG.BMP,Door2,0.387948666,0.041650262,1,0,0,12.4038,optionRight,40,6290,3,27,0,27,0,1,,,,,,,,,,,,,,,,,,,,,,,,,,,,,,,,,,,,,,,
,,,,,,,UNITED KINGDOM,2023-08-16_08h42.29.801,HF_wild_card,2022.2.4,MacIntel,60.0024001,63ebc2bce05579ac6b13affc,64d2fd46c836a06233681665,64dc7d55ad403bec63a1d43f,,,,,,,sngl,resources/Empty.png,resources/DB.BMP,Door1,0.36848719,-0.014681868,1,0,0,1.0165,optionRight,30,6320,3,28,0,28,0,1,,,,,,,,,,,,,,,,,,,,,,,,,,,,,,,,,,,,,,,
,,,,,,,UNITED KINGDOM,2023-08-16_08h42.29.801,HF_wild_card,2022.2.4,MacIntel,60.0024001,63ebc2bce05579ac6b13affc,64d2fd46c836a06233681665,64dc7d55ad403bec63a1d43f,,,,,,,decisionTrl,resources/DY.BMP,resources/DR.BMP,Door4,-0.365838664,-0.037125057,1,0,0,4.7676,optionLeft,80,6400,3,29,0,29,0,1,,,,,,,,,,,,,,,,,,,,,,,,,,,,,,,,,,,,,,,
,,,,,,,UNITED KINGDOM,2023-08-16_08h42.29.801,HF_wild_card,2022.2.4,MacIntel,60.0024001,63ebc2bce05579ac6b13affc,64d2fd46c836a06233681665,64dc7d55ad403bec63a1d43f,,,,,,,decisionTrl,resources/DBN.BMP,resources/DR.BMP,Door3,0.352908525,-0.002330581,1,0,0,3.0373,optionRight,70,6470,3,30,0,30,0,1,,,,,,,,,,,,,,,,,,,,,,,,,,,,,,,,,,,,,,,
,,,,,,,UNITED KINGDOM,2023-08-16_08h42.29.801,HF_wild_card,2022.2.4,MacIntel,60.0024001,63ebc2bce05579ac6b13affc,64d2fd46c836a06233681665,64dc7d55ad403bec63a1d43f,,,,,,,decisionTrl,resources/DBN.BMP,resources/DB.BMP,WildCard_NonEx,-0.384355856,0.005434669,1,0,0,1.9148,optionLeft,45,6515,3,31,0,31,0,1,,,,,,,,,,,,,,,,,,,,,,,,,,,,,,,,,,,,,,,
,,,,,,,UNITED KINGDOM,2023-08-16_08h42.29.801,HF_wild_card,2022.2.4,MacIntel,60.0024001,63ebc2bce05579ac6b13affc,64d2fd46c836a06233681665,64dc7d55ad403bec63a1d43f,,,,,,,decisionTrl,resources/DBN.BMP,resources/DY.BMP,Door4,0.396956805,-0.007234461,1,0,0,2.8189,optionRight,80,6595,3,32,0,32,0,1,,,,,,,,,,,,,,,,,,,,,,,,,,,,,,,,,,,,,,,
,,,,,,,UNITED KINGDOM,2023-08-16_08h42.29.801,HF_wild_card,2022.2.4,MacIntel,60.0024001,63ebc2bce05579ac6b13affc,64d2fd46c836a06233681665,64dc7d55ad403bec63a1d43f,,,,,,,ctch,resources/DB.BMP,resources/DY.BMP,Door4,0.378795967,0.001007724,1,0,0,1.2284,optionRight,80,6675,3,33,0,33,0,1,,,,,,,,,,,,,,,,,,,,,,,,,,,,,,,,,,,,,,,
,,,,,,,UNITED KINGDOM,2023-08-16_08h42.29.801,HF_wild_card,2022.2.4,MacIntel,60.0024001,63ebc2bce05579ac6b13affc,64d2fd46c836a06233681665,64dc7d55ad403bec63a1d43f,,,,,,,decisionTrl,resources/DY.BMP,resources/DR.BMP,Door3,0.453462218,0.023648481,1,0,0,5.2059,optionRight,70,6745,3,34,0,34,0,1,,,,,,,,,,,,,,,,,,,,,,,,,,,,,,,,,,,,,,,
,,,,,,,UNITED KINGDOM,2023-08-16_08h42.29.801,HF_wild_card,2022.2.4,MacIntel,60.0024001,63ebc2bce05579ac6b13affc,64d2fd46c836a06233681665,64dc7d55ad403bec63a1d43f,,,,,,,ctch,resources/DY.BMP,resources/DB.BMP,Door4,-0.337947155,-0.01399297,1,0,0,1.6694,optionLeft,60,6805,3,35,0,35,0,1,,,,,,,,,,,,,,,,,,,,,,,,,,,,,,,,,,,,,,,
,,,,,,,UNITED KINGDOM,2023-08-16_08h42.29.801,HF_wild_card,2022.2.4,MacIntel,60.0024001,63ebc2bce05579ac6b13affc,64d2fd46c836a06233681665,64dc7d55ad403bec63a1d43f,,,,,,,decisionTrl,resources/DY.BMP,resources/DR.BMP,Door4,-0.355505771,0.023282372,1,0,0,2.3681,optionLeft,80,6885,3,36,0,36,0,1,,,,,,,,,,,,,,,,,,,,,,,,,,,,,,,,,,,,,,,
,,,,,,,UNITED KINGDOM,2023-08-16_08h42.29.801,HF_wild_card,2022.2.4,MacIntel,60.0024001,63ebc2bce05579ac6b13affc,64d2fd46c836a06233681665,64dc7d55ad403bec63a1d43f,,,,,,,decisionTrl,resources/DB.BMP,resources/DBN.BMP,WildCard_NonEx,0.320546615,0.009331808,1,0,0,1.2815,optionRight,45,6930,3,37,0,37,0,1,,,,,,,,,,,,,,,,,,,,,,,,,,,,,,,,,,,,,,,
,,,,,,,UNITED KINGDOM,2023-08-16_08h42.29.801,HF_wild_card,2022.2.4,MacIntel,60.0024001,63ebc2bce05579ac6b13affc,64d2fd46c836a06233681665,64dc7d55ad403bec63a1d43f,,,,,,,ctch,resources/DR.BMP,resources/DG.BMP,Door3,-0.333496128,-0.047265259,1,0,0,1.9871,optionLeft,70,7000,3,38,0,38,0,1,,,,,,,,,,,,,,,,,,,,,,,,,,,,,,,,,,,,,,,
,,,,,,,UNITED KINGDOM,2023-08-16_08h42.29.801,HF_wild_card,2022.2.4,MacIntel,60.0024001,63ebc2bce05579ac6b13affc,64d2fd46c836a06233681665,64dc7d55ad403bec63a1d43f,,,,,,,decisionTrl,resources/DY.BMP,resources/DBN.BMP,Door4,-0.372173212,-0.05683213,1,0,0,1.3648,optionLeft,60,7060,3,39,0,39,0,1,,,,,,,,,,,,,,,,,,,,,,,,,,,,,,,,,,,,,,,
,,,,,,,UNITED KINGDOM,2023-08-16_08h42.29.801,HF_wild_card,2022.2.4,MacIntel,60.0024001,63ebc2bce05579ac6b13affc,64d2fd46c836a06233681665,64dc7d55ad403bec63a1d43f,,,,,,,sngl,resources/Empty.png,resources/DY.BMP,Door4,0.379773884,-0.021016416,1,0,0,0.8705,optionRight,60,7120,3,40,0,40,0,1,,,,,,,,,,,,,,,,,,,,,,,,,,,,,,,,,,,,,,,
,,,,,,,UNITED KINGDOM,2023-08-16_08h42.29.801,HF_wild_card,2022.2.4,MacIntel,60.0024001,63ebc2bce05579ac6b13affc,64d2fd46c836a06233681665,64dc7d55ad403bec63a1d43f,,,,,,,decisionTrl,resources/DG.BMP,resources/DBN.BMP,WildCard_NonEx,0.43166447,0.026177443,1,0,0,1.0653,optionRight,55,7175,3,41,0,41,0,1,,,,,,,,,,,,,,,,,,,,,,,,,,,,,,,,,,,,,,,
,,,,,,,UNITED KINGDOM,2023-08-16_08h42.29.801,HF_wild_card,2022.2.4,MacIntel,60.0024001,63ebc2bce05579ac6b13affc,64d2fd46c836a06233681665,64dc7d55ad403bec63a1d43f,,,,,,,sngl,resources/DB.BMP,resources/Empty.png,Door1,-0.35069341,-0.009402191,1,0,0,0.8692,optionLeft,30,7205,3,42,0,42,0,1,,,,,,,,,,,,,,,,,,,,,,,,,,,,,,,,,,,,,,,
,,,,,,,UNITED KINGDOM,2023-08-16_08h42.29.801,HF_wild_card,2022.2.4,MacIntel,60.0024001,63ebc2bce05579ac6b13affc,64d2fd46c836a06233681665,64dc7d55ad403bec63a1d43f,,,,,,,decisionTrl,resources/DR.BMP,resources/DY.BMP,Door3,-0.350731988,-0.024980992,1,0,0,1.263,optionLeft,70,7275,3,43,0,43,0,1,,,,,,,,,,,,,,,,,,,,,,,,,,,,,,,,,,,,,,,
,,,,,,,UNITED KINGDOM,2023-08-16_08h42.29.801,HF_wild_card,2022.2.4,MacIntel,60.0024001,63ebc2bce05579ac6b13affc,64d2fd46c836a06233681665,64dc7d55ad403bec63a1d43f,,,,,,,,,,,,,,,,,,,,,,,,,,2,0,2,0,1,,,,,,,,,,,,,,,,,,,,,,,,,,,,,,,,,,
,,,,,,,UNITED KINGDOM,2023-08-16_08h42.29.801,HF_wild_card,2022.2.4,MacIntel,60.0024001,63ebc2bce05579ac6b13affc,64d2fd46c836a06233681665,64dc7d55ad403bec63a1d43f,,,,,,,ctch,resources/DY.BMP,resources/DB.BMP,Door4,-0.424511908,-0.078750322,1,0,0,1.6343,optionLeft,80,7355,4,0,0,0,0,1,,,,,,,,,,,,,,,,,,,,,,,,,,,,,,,,,,,,,,,
,,,,,,,UNITED KINGDOM,2023-08-16_08h42.29.801,HF_wild_card,2022.2.4,MacIntel,60.0024001,63ebc2bce05579ac6b13affc,64d2fd46c836a06233681665,64dc7d55ad403bec63a1d43f,,,,,,,decisionTrl,resources/DY.BMP,resources/DP.BMP,WildCard_Ex,0.402202712,-0.006993606,1,0,0,2.2704,optionRight,55,7410,4,1,0,1,0,1,,,,,,,,,,,,,,,,,,,,,,,,,,,,,,,,,,,,,,,
,,,,,,,UNITED KINGDOM,2023-08-16_08h42.29.801,HF_wild_card,2022.2.4,MacIntel,60.0024001,63ebc2bce05579ac6b13affc,64d2fd46c836a06233681665,64dc7d55ad403bec63a1d43f,,,,,,,sngl,resources/Empty.png,resources/DP.BMP,WildCard_Ex,0.367942954,-0.04429784,1,0,0,0.8521,optionRight,45,7455,4,2,0,2,0,1,,,,,,,,,,,,,,,,,,,,,,,,,,,,,,,,,,,,,,,
,,,,,,,UNITED KINGDOM,2023-08-16_08h42.29.801,HF_wild_card,2022.2.4,MacIntel,60.0024001,63ebc2bce05579ac6b13affc,64d2fd46c836a06233681665,64dc7d55ad403bec63a1d43f,,,,,,,decisionTrl,resources/DP.BMP,resources/DR.BMP,Door3,0.416394029,-0.032235606,1,0,0,1.8683,optionRight,70,7525,4,3,0,3,0,1,,,,,,,,,,,,,,,,,,,,,,,,,,,,,,,,,,,,,,,
,,,,,,,UNITED KINGDOM,2023-08-16_08h42.29.801,HF_wild_card,2022.2.4,MacIntel,60.0024001,63ebc2bce05579ac6b13affc,64d2fd46c836a06233681665,64dc7d55ad403bec63a1d43f,,,,,,,decisionTrl,resources/DG.BMP,resources/DP.BMP,WildCard_Ex,0.336332569,0.011104537,1,0,0,2.535,optionRight,45,7570,4,4,0,4,0,1,,,,,,,,,,,,,,,,,,,,,,,,,,,,,,,,,,,,,,,
,,,,,,,UNITED KINGDOM,2023-08-16_08h42.29.801,HF_wild_card,2022.2.4,MacIntel,60.0024001,63ebc2bce05579ac6b13affc,64d2fd46c836a06233681665,64dc7d55ad403bec63a1d43f,,,,,,,sngl,resources/DG.BMP,resources/Empty.png,Door2,-0.437388226,-0.015365855,1,0,0,0.8708,optionLeft,20,7590,4,5,0,5,0,1,,,,,,,,,,,,,,,,,,,,,,,,,,,,,,,,,,,,,,,
,,,,,,,UNITED KINGDOM,2023-08-16_08h42.29.801,HF_wild_card,2022.2.4,MacIntel,60.0024001,63ebc2bce05579ac6b13affc,64d2fd46c836a06233681665,64dc7d55ad403bec63a1d43f,,,,,,,ctch,resources/DB.BMP,resources/DY.BMP,Door4,0.38743803,0.013744358,1,0,0,1.4676,optionRight,80,7670,4,6,0,6,0,1,,,,,,,,,,,,,,,,,,,,,,,,,,,,,,,,,,,,,,,
,,,,,,,UNITED KINGDOM,2023-08-16_08h42.29.801,HF_wild_card,2022.2.4,MacIntel,60.0024001,63ebc2bce05579ac6b13affc,64d2fd46c836a06233681665,64dc7d55ad403bec63a1d43f,,,,,,,sngl,resources/Empty.png,resources/DR.BMP,Door3,0.460933706,-0.001121462,1,0,0,0.8637,optionRight,70,7740,4,7,0,7,0,1,,,,,,,,,,,,,,,,,,,,,,,,,,,,,,,,,,,,,,,
,,,,,,,UNITED KINGDOM,2023-08-16_08h42.29.801,HF_wild_card,2022.2.4,MacIntel,60.0024001,63ebc2bce05579ac6b13affc,64d2fd46c836a06233681665,64dc7d55ad403bec63a1d43f,,,,,,,decisionTrl,resources/DB.BMP,resources/DG.BMP,Door1,-0.358824803,-0.029538001,1,0,0,3.2473,optionLeft,30,7770,4,8,0,8,0,1,,,,,,,,,,,,,,,,,,,,,,,,,,,,,,,,,,,,,,,
,,,,,,,UNITED KINGDOM,2023-08-16_08h42.29.801,HF_wild_card,2022.2.4,MacIntel,60.0024001,63ebc2bce05579ac6b13affc,64d2fd46c836a06233681665,64dc7d55ad403bec63a1d43f,,,,,,,sngl,resources/DB.BMP,resources/Empty.png,Door1,-0.3725779,-0.046961777,1,0,0,0.782,optionLeft,30,7800,4,9,0,9,0,1,,,,,,,,,,,,,,,,,,,,,,,,,,,,,,,,,,,,,,,
,,,,,,,UNITED KINGDOM,2023-08-16_08h42.29.801,HF_wild_card,2022.2.4,MacIntel,60.0024001,63ebc2bce05579ac6b13affc,64d2fd46c836a06233681665,64dc7d55ad403bec63a1d43f,,,,,,,decisionTrl,resources/DB.BMP,resources/DG.BMP,Door2,0.49788145,-0.020717744,1,0,0,1.8973,optionRight,40,7840,4,10,0,10,0,1,,,,,,,,,,,,,,,,,,,,,,,,,,,,,,,,,,,,,,,
,,,,,,,UNITED KINGDOM,2023-08-16_08h42.29.801,HF_wild_card,2022.2.4,MacIntel,60.0024001,63ebc2bce05579ac6b13affc,64d2fd46c836a06233681665,64dc7d55ad403bec63a1d43f,,,,,,,sngl,resources/Empty.png,resources/DP.BMP,WildCard_Ex,0.416162895,0.013681731,1,0,0,0.9647,optionRight,55,7895,4,11,0,11,0,1,,,,,,,,,,,,,,,,,,,,,,,,,,,,,,,,,,,,,,,
,,,,,,,UNITED KINGDOM,2023-08-16_08h42.29.801,HF_wild_card,2022.2.4,MacIntel,60.0024001,63ebc2bce05579ac6b13affc,64d2fd46c836a06233681665,64dc7d55ad403bec63a1d43f,,,,,,,decisionTrl,resources/DR.BMP,resources/DY.BMP,Door3,-0.358217838,-0.026483906,1,0,0,3.9501,optionLeft,70,7965,4,12,0,12,0,1,,,,,,,,,,,,,,,,,,,,,,,,,,,,,,,,,,,,,,,
,,,,,,,UNITED KINGDOM,2023-08-16_08h42.29.801,HF_wild_card,2022.2.4,MacIntel,60.0024001,63ebc2bce05579ac6b13affc,64d2fd46c836a06233681665,64dc7d55ad403bec63a1d43f,,,,,,,ctch,resources/DR.BMP,resources/DG.BMP,Door3,-0.419391255,-0.052477397,1,0,0,1.3146,optionLeft,70,8035,4,13,0,13,0,1,,,,,,,,,,,,,,,,,,,,,,,,,,,,,,,,,,,,,,,
,,,,,,,UNITED KINGDOM,2023-08-16_08h42.29.801,HF_wild_card,2022.2.4,MacIntel,60.0024001,63ebc2bce05579ac6b13affc,64d2fd46c836a06233681665,64dc7d55ad403bec63a1d43f,,,,,,,decisionTrl,resources/DY.BMP,resources/DR.BMP,Door4,-0.330003677,-0.037250345,1,0,0,4.2836,optionLeft,60,8095,4,14,0,14,0,1,,,,,,,,,,,,,,,,,,,,,,,,,,,,,,,,,,,,,,,
,,,,,,,UNITED KINGDOM,2023-08-16_08h42.29.801,HF_wild_card,2022.2.4,MacIntel,60.0024001,63ebc2bce05579ac6b13affc,64d2fd46c836a06233681665,64dc7d55ad403bec63a1d43f,,,,,,,decisionTrl,resources/DG.BMP,resources/DB.BMP,Door1,0.441814325,-0.003125393,1,0,0,1.9382,optionRight,30,8125,4,15,0,15,0,1,,,,,,,,,,,,,,,,,,,,,,,,,,,,,,,,,,,,,,,
,,,,,,,UNITED KINGDOM,2023-08-16_08h42.29.801,HF_wild_card,2022.2.4,MacIntel,60.0024001,63ebc2bce05579ac6b13affc,64d2fd46c836a06233681665,64dc7d55ad403bec63a1d43f,,,,,,,decisionTrl,resources/DR.BMP,resources/DY.BMP,Door3,-0.414559622,-0.033020866,1,0,0,2.3818,optionLeft,70,8195,4,16,0,16,0,1,,,,,,,,,,,,,,,,,,,,,,,,,,,,,,,,,,,,,,,
,,,,,,,UNITED KINGDOM,2023-08-16_08h42.29.801,HF_wild_card,2022.2.4,MacIntel,60.0024001,63ebc2bce05579ac6b13affc,64d2fd46c836a06233681665,64dc7d55ad403bec63a1d43f,,,,,,,sngl,resources/Empty.png,resources/DB.BMP,Door1,0.377471213,0.001325669,1,0,0,0.7304,optionRight,30,8225,4,17,0,17,0,1,,,,,,,,,,,,,,,,,,,,,,,,,,,,,,,,,,,,,,,
,,,,,,,UNITED KINGDOM,2023-08-16_08h42.29.801,HF_wild_card,2022.2.4,MacIntel,60.0024001,63ebc2bce05579ac6b13affc,64d2fd46c836a06233681665,64dc7d55ad403bec63a1d43f,,,,,,,decisionTrl,resources/DP.BMP,resources/DG.BMP,WildCard_Ex,-0.443453062,-0.024990577,1,0,0,2.8156,optionLeft,45,8270,4,18,0,18,0,1,,,,,,,,,,,,,,,,,,,,,,,,,,,,,,,,,,,,,,,
,,,,,,,UNITED KINGDOM,2023-08-16_08h42.29.801,HF_wild_card,2022.2.4,MacIntel,60.0024001,63ebc2bce05579ac6b13affc,64d2fd46c836a06233681665,64dc7d55ad403bec63a1d43f,,,,,,,decisionTrl,resources/DY.BMP,resources/DR.BMP,Door3,0.347624005,-0.002046405,1,0,0,1.7161,optionRight,70,8340,4,19,0,19,0,1,,,,,,,,,,,,,,,,,,,,,,,,,,,,,,,,,,,,,,,
,,,,,,,UNITED KINGDOM,2023-08-16_08h42.29.801,HF_wild_card,2022.2.4,MacIntel,60.0024001,63ebc2bce05579ac6b13affc,64d2fd46c836a06233681665,64dc7d55ad403bec63a1d43f,,,,,,,decisionTrl,resources/DY.BMP,resources/DR.BMP,Door3,0.354989546,-0.01070283,1,0,0,1.5478,optionRight,70,8410,4,20,0,20,0,1,,,,,,,,,,,,,,,,,,,,,,,,,,,,,,,,,,,,,,,
,,,,,,,UNITED KINGDOM,2023-08-16_08h42.29.801,HF_wild_card,2022.2.4,MacIntel,60.0024001,63ebc2bce05579ac6b13affc,64d2fd46c836a06233681665,64dc7d55ad403bec63a1d43f,,,,,,,decisionTrl,resources/DP.BMP,resources/DB.BMP,WildCard_Ex,-0.362437732,-0.026373115,1,0,0,1.8166,optionLeft,55,8465,4,21,0,21,0,1,,,,,,,,,,,,,,,,,,,,,,,,,,,,,,,,,,,,,,,
,,,,,,,UNITED KINGDOM,2023-08-16_08h42.29.801,HF_wild_card,2022.2.4,MacIntel,60.0024001,63ebc2bce05579ac6b13affc,64d2fd46c836a06233681665,64dc7d55ad403bec63a1d43f,,,,,,,ctch,resources/DR.BMP,resources/DG.BMP,Door3,-0.353342918,-0.041542451,1,0,0,1.6981,optionLeft,70,8535,4,22,0,22,0,1,,,,,,,,,,,,,,,,,,,,,,,,,,,,,,,,,,,,,,,
,,,,,,,UNITED KINGDOM,2023-08-16_08h42.29.801,HF_wild_card,2022.2.4,MacIntel,60.0024001,63ebc2bce05579ac6b13affc,64d2fd46c836a06233681665,64dc7d55ad403bec63a1d43f,,,,,,,decisionTrl,resources/DG.BMP,resources/DB.BMP,Door1,0.289360292,-0.028921451,1,0,0,1.4649,optionRight,30,8565,4,23,0,23,0,1,,,,,,,,,,,,,,,,,,,,,,,,,,,,,,,,,,,,,,,
,,,,,,,UNITED KINGDOM,2023-08-16_08h42.29.801,HF_wild_card,2022.2.4,MacIntel,60.0024001,63ebc2bce05579ac6b13affc,64d2fd46c836a06233681665,64dc7d55ad403bec63a1d43f,,,,,,,decisionTrl,resources/DB.BMP,resources/DG.BMP,Door1,-0.351363001,-0.034268463,1,0,0,1.3503,optionLeft,30,8595,4,24,0,24,0,1,,,,,,,,,,,,,,,,,,,,,,,,,,,,,,,,,,,,,,,
,,,,,,,UNITED KINGDOM,2023-08-16_08h42.29.801,HF_wild_card,2022.2.4,MacIntel,60.0024001,63ebc2bce05579ac6b13affc,64d2fd46c836a06233681665,64dc7d55ad403bec63a1d43f,,,,,,,sngl,resources/Empty.png,resources/DG.BMP,Door2,0.399158406,0.017000764,1,0,0,1.0147,optionRight,40,8635,4,25,0,25,0,1,,,,,,,,,,,,,,,,,,,,,,,,,,,,,,,,,,,,,,,
,,,,,,,UNITED KINGDOM,2023-08-16_08h42.29.801,HF_wild_card,2022.2.4,MacIntel,60.0024001,63ebc2bce05579ac6b13affc,64d2fd46c836a06233681665,64dc7d55ad403bec63a1d43f,,,,,,,decisionTrl,resources/DB.BMP,resources/DG.BMP,Door1,-0.371272452,-0.018858305,1,0,0,0.914,optionLeft,30,8665,4,26,0,26,0,1,,,,,,,,,,,,,,,,,,,,,,,,,,,,,,,,,,,,,,,
,,,,,,,UNITED KINGDOM,2023-08-16_08h42.29.801,HF_wild_card,2022.2.4,MacIntel,60.0024001,63ebc2bce05579ac6b13affc,64d2fd46c836a06233681665,64dc7d55ad403bec63a1d43f,,,,,,,decisionTrl,resources/DY.BMP,resources/DR.BMP,Door4,-0.339647672,-0.016459407,1,0,0,2.3175,optionLeft,80,8745,4,27,0,27,0,1,,,,,,,,,,,,,,,,,,,,,,,,,,,,,,,,,,,,,,,
,,,,,,,UNITED KINGDOM,2023-08-16_08h42.29.801,HF_wild_card,2022.2.4,MacIntel,60.0024001,63ebc2bce05579ac6b13affc,64d2fd46c836a06233681665,64dc7d55ad403bec63a1d43f,,,,,,,ctch,resources/DG.BMP,resources/DR.BMP,Door3,0.385304035,-0.000909498,1,0,0,1.3343,optionRight,70,8815,4,28,0,28,0,1,,,,,,,,,,,,,,,,,,,,,,,,,,,,,,,,,,,,,,,
,,,,,,,UNITED KINGDOM,2023-08-16_08h42.29.801,HF_wild_card,2022.2.4,MacIntel,60.0024001,63ebc2bce05579ac6b13affc,64d2fd46c836a06233681665,64dc7d55ad403bec63a1d43f,,,,,,,sngl,resources/DY.BMP,resources/Empty.png,Door4,-0.431925546,-0.023015538,1,0,0,0.8643,optionLeft,60,8875,4,29,0,29,0,1,,,,,,,,,,,,,,,,,,,,,,,,,,,,,,,,,,,,,,,
,,,,,,,UNITED KINGDOM,2023-08-16_08h42.29.801,HF_wild_card,2022.2.4,MacIntel,60.0024001,63ebc2bce05579ac6b13affc,64d2fd46c836a06233681665,64dc7d55ad403bec63a1d43f,,,,,,,sngl,resources/Empty.png,resources/DY.BMP,Door4,0.387433153,0.011658528,1,0,0,0.6492,optionRight,80,8955,4,30,0,30,0,1,,,,,,,,,,,,,,,,,,,,,,,,,,,,,,,,,,,,,,,
,,,,,,,UNITED KINGDOM,2023-08-16_08h42.29.801,HF_wild_card,2022.2.4,MacIntel,60.0024001,63ebc2bce05579ac6b13affc,64d2fd46c836a06233681665,64dc7d55ad403bec63a1d43f,,,,,,,ctch,resources/DB.BMP,resources/DY.BMP,Door4,0.340605436,0.012568974,1,0,0,1.2809,optionRight,60,9015,4,31,0,31,0,1,,,,,,,,,,,,,,,,,,,,,,,,,,,,,,,,,,,,,,,
,,,,,,,UNITED KINGDOM,2023-08-16_08h42.29.801,HF_wild_card,2022.2.4,MacIntel,60.0024001,63ebc2bce05579ac6b13affc,64d2fd46c836a06233681665,64dc7d55ad403bec63a1d43f,,,,,,,decisionTrl,resources/DB.BMP,resources/DP.BMP,WildCard_Ex,0.350658827,0.001778487,1,0,0,1.9148,optionRight,55,9070,4,32,0,32,0,1,,,,,,,,,,,,,,,,,,,,,,,,,,,,,,,,,,,,,,,
,,,,,,,UNITED KINGDOM,2023-08-16_08h42.29.801,HF_wild_card,2022.2.4,MacIntel,60.0024001,63ebc2bce05579ac6b13affc,64d2fd46c836a06233681665,64dc7d55ad403bec63a1d43f,,,,,,,ctch,resources/DG.BMP,resources/DR.BMP,Door3,0.35672373,0.003170644,1,0,0,1.0153,optionRight,70,9140,4,33,0,33,0,1,,,,,,,,,,,,,,,,,,,,,,,,,,,,,,,,,,,,,,,
,,,,,,,UNITED KINGDOM,2023-08-16_08h42.29.801,HF_wild_card,2022.2.4,MacIntel,60.0024001,63ebc2bce05579ac6b13affc,64d2fd46c836a06233681665,64dc7d55ad403bec63a1d43f,,,,,,,decisionTrl,resources/DR.BMP,resources/DP.BMP,Door3,-0.344455224,-0.016064338,1,0,0,1.6829,optionLeft,70,9210,4,34,0,34,0,1,,,,,,,,,,,,,,,,,,,,,,,,,,,,,,,,,,,,,,,
,,,,,,,UNITED KINGDOM,2023-08-16_08h42.29.801,HF_wild_card,2022.2.4,MacIntel,60.0024001,63ebc2bce05579ac6b13affc,64d2fd46c836a06233681665,64dc7d55ad403bec63a1d43f,,,,,,,decisionTrl,resources/DR.BMP,resources/DY.BMP,Door3,-0.300508116,-0.019614606,1,0,0,1.7652,optionLeft,70,9280,4,35,0,35,0,1,,,,,,,,,,,,,,,,,,,,,,,,,,,,,,,,,,,,,,,
,,,,,,,UNITED KINGDOM,2023-08-16_08h42.29.801,HF_wild_card,2022.2.4,MacIntel,60.0024001,63ebc2bce05579ac6b13affc,64d2fd46c836a06233681665,64dc7d55ad403bec63a1d43f,,,,,,,decisionTrl,resources/DP.BMP,resources/DY.BMP,Door4,0.352850674,0.001055854,1,0,0,1.6331,optionRight,60,9340,4,36,0,36,0,1,,,,,,,,,,,,,,,,,,,,,,,,,,,,,,,,,,,,,,,
,,,,,,,UNITED KINGDOM,2023-08-16_08h42.29.801,HF_wild_card,2022.2.4,MacIntel,60.0024001,63ebc2bce05579ac6b13affc,64d2fd46c836a06233681665,64dc7d55ad403bec63a1d43f,,,,,,,decisionTrl,resources/DG.BMP,resources/DB.BMP,Door1,0.3670951,-0.016459407,1,0,0,1.28,optionRight,30,9370,4,37,0,37,0,1,,,,,,,,,,,,,,,,,,,,,,,,,,,,,,,,,,,,,,,
,,,,,,,UNITED KINGDOM,2023-08-16_08h42.29.801,HF_wild_card,2022.2.4,MacIntel,60.0024001,63ebc2bce05579ac6b13affc,64d2fd46c836a06233681665,64dc7d55ad403bec63a1d43f,,,,,,,sngl,resources/DR.BMP,resources/Empty.png,Door3,-0.350163569,-0.031681649,1,0,0,0.8798,optionLeft,70,9440,4,38,0,38,0,1,,,,,,,,,,,,,,,,,,,,,,,,,,,,,,,,,,,,,,,
,,,,,,,UNITED KINGDOM,2023-08-16_08h42.29.801,HF_wild_card,2022.2.4,MacIntel,60.0024001,63ebc2bce05579ac6b13affc,64d2fd46c836a06233681665,64dc7d55ad403bec63a1d43f,,,,,,,ctch,resources/DY.BMP,resources/DB.BMP,Door4,-0.313321739,-0.010789539,1,0,0,6.5174,optionLeft,60,9500,4,39,0,39,0,1,,,,,,,,,,,,,,,,,,,,,,,,,,,,,,,,,,,,,,,
,,,,,,,UNITED KINGDOM,2023-08-16_08h42.29.801,HF_wild_card,2022.2.4,MacIntel,60.0024001,63ebc2bce05579ac6b13affc,64d2fd46c836a06233681665,64dc7d55ad403bec63a1d43f,,,,,,,sngl,resources/DP.BMP,resources/Empty.png,WildCard_Ex,-0.400464497,-0.035347518,1,0,0,0.8849,optionLeft,55,9555,4,40,0,40,0,1,,,,,,,,,,,,,,,,,,,,,,,,,,,,,,,,,,,,,,,
,,,,,,,UNITED KINGDOM,2023-08-16_08h42.29.801,HF_wild_card,2022.2.4,MacIntel,60.0024001,63ebc2bce05579ac6b13affc,64d2fd46c836a06233681665,64dc7d55ad403bec63a1d43f,,,,,,,decisionTrl,resources/DR.BMP,resources/DY.BMP,Door4,0.337984921,0.004018464,1,0,0,2.5319,optionRight,80,9635,4,41,0,41,0,1,,,,,,,,,,,,,,,,,,,,,,,,,,,,,,,,,,,,,,,
,,,,,,,UNITED KINGDOM,2023-08-16_08h42.29.801,HF_wild_card,2022.2.4,MacIntel,60.0024001,63ebc2bce05579ac6b13affc,64d2fd46c836a06233681665,64dc7d55ad403bec63a1d43f,,,,,,,sngl,resources/DP.BMP,resources/Empty.png,WildCard_Ex,-0.417922008,-0.060613668,1,0,0,0.8988,optionLeft,45,9680,4,42,0,42,0,1,,,,,,,,,,,,,,,,,,,,,,,,,,,,,,,,,,,,,,,
,,,,,,,UNITED KINGDOM,2023-08-16_08h42.29.801,HF_wild_card,2022.2.4,MacIntel,60.0024001,63ebc2bce05579ac6b13affc,64d2fd46c836a06233681665,64dc7d55ad403bec63a1d43f,,,,,,,decisionTrl,resources/DG.BMP,resources/DB.BMP,Door1,0.41180806,-8.57608E-05,1,0,0,1.5977,optionRight,30,9710,4,43,0,43,0,1,,,,,,,,,,,,,,,,,,,,,,,,,,,,,,,,,,,,,,,
,,,,,,,UNITED KINGDOM,2023-08-16_08h42.29.801,HF_wild_card,2022.2.4,MacIntel,60.0024001,63ebc2bce05579ac6b13affc,64d2fd46c836a06233681665,64dc7d55ad403bec63a1d43f,,,,,,,,,,,,,,,,,,,,,,,,,,3,0,3,0,1,,,,,,,,,,,,,,,,,,,,,,,,,,,,,,,,,,
,,,,,,,UNITED KINGDOM,2023-08-16_08h42.29.801,HF_wild_card,2022.2.4,MacIntel,60.0024001,63ebc2bce05579ac6b13affc,64d2fd46c836a06233681665,64dc7d55ad403bec63a1d43f,,,,,,,ctch,resources/DB.BMP,resources/DY.BMP,Door4,0.352686875,-0.048055228,1,0,0,2.1172,optionRight,80,9790,5,0,0,0,0,1,,,,,,,,,,,,,,,,,,,,,,,,,,,,,,,,,,,,,,,
,,,,,,,UNITED KINGDOM,2023-08-16_08h42.29.801,HF_wild_card,2022.2.4,MacIntel,60.0024001,63ebc2bce05579ac6b13affc,64d2fd46c836a06233681665,64dc7d55ad403bec63a1d43f,,,,,,,sngl,resources/DB.BMP,resources/Empty.png,Door1,-0.40014181,-0.002874918,1,0,0,3.4494,optionLeft,30,9820,5,1,0,1,0,1,,,,,,,,,,,,,,,,,,,,,,,,,,,,,,,,,,,,,,,
,,,,,,,UNITED KINGDOM,2023-08-16_08h42.29.801,HF_wild_card,2022.2.4,MacIntel,60.0024001,63ebc2bce05579ac6b13affc,64d2fd46c836a06233681665,64dc7d55ad403bec63a1d43f,,,,,,,decisionTrl,resources/DR.BMP,resources/DY.BMP,Door3,-0.40118713,-0.03069899,1,0,0,1.3135,optionLeft,70,9890,5,2,0,2,0,1,,,,,,,,,,,,,,,,,,,,,,,,,,,,,,,,,,,,,,,
,,,,,,,UNITED KINGDOM,2023-08-16_08h42.29.801,HF_wild_card,2022.2.4,MacIntel,60.0024001,63ebc2bce05579ac6b13affc,64d2fd46c836a06233681665,64dc7d55ad403bec63a1d43f,,,,,,,decisionTrl,resources/DG.BMP,resources/DB.BMP,Door1,0.420137022,0.028913661,1,0,0,1.2819,optionRight,30,9920,5,3,0,3,0,1,,,,,,,,,,,,,,,,,,,,,,,,,,,,,,,,,,,,,,,
,,,,,,,UNITED KINGDOM,2023-08-16_08h42.29.801,HF_wild_card,2022.2.4,MacIntel,60.0024001,63ebc2bce05579ac6b13affc,64d2fd46c836a06233681665,64dc7d55ad403bec63a1d43f,,,,,,,decisionTrl,resources/DB.BMP,resources/DG.BMP,Door1,-0.432662574,-0.036070084,1,0,0,1.4166,optionLeft,30,9950,5,4,0,4,0,1,,,,,,,,,,,,,,,,,,,,,,,,,,,,,,,,,,,,,,,
,,,,,,,UNITED KINGDOM,2023-08-16_08h42.29.801,HF_wild_card,2022.2.4,MacIntel,60.0024001,63ebc2bce05579ac6b13affc,64d2fd46c836a06233681665,64dc7d55ad403bec63a1d43f,,,,,,,decisionTrl,resources/DY.BMP,resources/DP.BMP,Door4,-0.387058338,-0.028141068,1,0,0,2.5002,optionLeft,80,10030,5,5,0,5,0,1,,,,,,,,,,,,,,,,,,,,,,,,,,,,,,,,,,,,,,,
,,,,,,,UNITED KINGDOM,2023-08-16_08h42.29.801,HF_wild_card,2022.2.4,MacIntel,60.0024001,63ebc2bce05579ac6b13affc,64d2fd46c836a06233681665,64dc7d55ad403bec63a1d43f,,,,,,,decisionTrl,resources/DG.BMP,resources/DB.BMP,Door1,0.342267272,0.016658736,1,0,0,1.1822,optionRight,30,10060,5,6,0,6,0,1,,,,,,,,,,,,,,,,,,,,,,,,,,,,,,,,,,,,,,,
,,,,,,,UNITED KINGDOM,2023-08-16_08h42.29.801,HF_wild_card,2022.2.4,MacIntel,60.0024001,63ebc2bce05579ac6b13affc,64d2fd46c836a06233681665,64dc7d55ad403bec63a1d43f,,,,,,,sngl,resources/DY.BMP,resources/Empty.png,Door4,-0.356445177,-0.002113808,1,0,0,0.9646,optionLeft,80,10140,5,7,0,7,0,1,,,,,,,,,,,,,,,,,,,,,,,,,,,,,,,,,,,,,,,
,,,,,,,UNITED KINGDOM,2023-08-16_08h42.29.801,HF_wild_card,2022.2.4,MacIntel,60.0024001,63ebc2bce05579ac6b13affc,64d2fd46c836a06233681665,64dc7d55ad403bec63a1d43f,,,,,,,decisionTrl,resources/DY.BMP,resources/DR.BMP,Door3,0.392804382,0.02843676,1,0,0,1.0672,optionRight,70,10210,5,8,0,8,0,1,,,,,,,,,,,,,,,,,,,,,,,,,,,,,,,,,,,,,,,
,,,,,,,UNITED KINGDOM,2023-08-16_08h42.29.801,HF_wild_card,2022.2.4,MacIntel,60.0024001,63ebc2bce05579ac6b13affc,64d2fd46c836a06233681665,64dc7d55ad403bec63a1d43f,,,,,,,sngl,resources/Empty.png,resources/DP.BMP,WildCard_Ex,0.419674618,0.023499145,1,0,0,0.7305,optionRight,45,10255,5,9,0,9,0,1,,,,,,,,,,,,,,,,,,,,,,,,,,,,,,,,,,,,,,,
,,,,,,,UNITED KINGDOM,2023-08-16_08h42.29.801,HF_wild_card,2022.2.4,MacIntel,60.0024001,63ebc2bce05579ac6b13affc,64d2fd46c836a06233681665,64dc7d55ad403bec63a1d43f,,,,,,,sngl,resources/DP.BMP,resources/Empty.png,WildCard_Ex,-0.286369637,-0.024402885,1,0,0,0.8636,optionLeft,55,10310,5,10,0,10,0,1,,,,,,,,,,,,,,,,,,,,,,,,,,,,,,,,,,,,,,,
,,,,,,,UNITED KINGDOM,2023-08-16_08h42.29.801,HF_wild_card,2022.2.4,MacIntel,60.0024001,63ebc2bce05579ac6b13affc,64d2fd46c836a06233681665,64dc7d55ad403bec63a1d43f,,,,,,,decisionTrl,resources/DY.BMP,resources/DR.BMP,Door3,0.292130109,0.030464774,1,0,0,2.0147,optionRight,70,10380,5,11,0,11,0,1,,,,,,,,,,,,,,,,,,,,,,,,,,,,,,,,,,,,,,,
,,,,,,,UNITED KINGDOM,2023-08-16_08h42.29.801,HF_wild_card,2022.2.4,MacIntel,60.0024001,63ebc2bce05579ac6b13affc,64d2fd46c836a06233681665,64dc7d55ad403bec63a1d43f,,,,,,,sngl,resources/DR.BMP,resources/Empty.png,Door3,-0.345066998,-0.026349033,1,0,0,0.8642,optionLeft,70,10450,5,12,0,12,0,1,,,,,,,,,,,,,,,,,,,,,,,,,,,,,,,,,,,,,,,
,,,,,,,UNITED KINGDOM,2023-08-16_08h42.29.801,HF_wild_card,2022.2.4,MacIntel,60.0024001,63ebc2bce05579ac6b13affc,64d2fd46c836a06233681665,64dc7d55ad403bec63a1d43f,,,,,,,decisionTrl,resources/DY.BMP,resources/DR.BMP,Door4,-0.3065151,-0.010303053,1,0,0,0.9646,optionLeft,60,10510,5,13,0,13,0,1,,,,,,,,,,,,,,,,,,,,,,,,,,,,,,,,,,,,,,,
,,,,,,,UNITED KINGDOM,2023-08-16_08h42.29.801,HF_wild_card,2022.2.4,MacIntel,60.0024001,63ebc2bce05579ac6b13affc,64d2fd46c836a06233681665,64dc7d55ad403bec63a1d43f,,,,,,,decisionTrl,resources/DP.BMP,resources/DR.BMP,Door3,0.345528623,0.050046559,1,0,0,1.2153,optionRight,70,10580,5,14,0,14,0,1,,,,,,,,,,,,,,,,,,,,,,,,,,,,,,,,,,,,,,,
,,,,,,,UNITED KINGDOM,2023-08-16_08h42.29.801,HF_wild_card,2022.2.4,MacIntel,60.0024001,63ebc2bce05579ac6b13affc,64d2fd46c836a06233681665,64dc7d55ad403bec63a1d43f,,,,,,,ctch,resources/DR.BMP,resources/DG.BMP,Door3,-0.354730265,-0.020563598,1,0,0,2.2513,optionLeft,70,10650,5,15,0,15,0,1,,,,,,,,,,,,,,,,,,,,,,,,,,,,,,,,,,,,,,,
,,,,,,,UNITED KINGDOM,2023-08-16_08h42.29.801,HF_wild_card,2022.2.4,MacIntel,60.0024001,63ebc2bce05579ac6b13affc,64d2fd46c836a06233681665,64dc7d55ad403bec63a1d43f,,,,,,,ctch,resources/DG.BMP,resources/DR.BMP,Door3,0.329627102,0.022309298,1,0,0,0.7314,optionRight,70,10720,5,16,0,16,0,1,,,,,,,,,,,,,,,,,,,,,,,,,,,,,,,,,,,,,,,
,,,,,,,UNITED KINGDOM,2023-08-16_08h42.29.801,HF_wild_card,2022.2.4,MacIntel,60.0024001,63ebc2bce05579ac6b13affc,64d2fd46c836a06233681665,64dc7d55ad403bec63a1d43f,,,,,,,decisionTrl,resources/DR.BMP,resources/DY.BMP,Door3,-0.335943258,0.003637926,1,0,0,2.897,optionLeft,70,10790,5,17,0,17,0,1,,,,,,,,,,,,,,,,,,,,,,,,,,,,,,,,,,,,,,,
,,,,,,,UNITED KINGDOM,2023-08-16_08h42.29.801,HF_wild_card,2022.2.4,MacIntel,60.0024001,63ebc2bce05579ac6b13affc,64d2fd46c836a06233681665,64dc7d55ad403bec63a1d43f,,,,,,,decisionTrl,resources/DR.BMP,resources/DP.BMP,Door3,-0.404698853,-0.014267594,1,0,0,1.2971,optionLeft,70,10860,5,18,0,18,0,1,,,,,,,,,,,,,,,,,,,,,,,,,,,,,,,,,,,,,,,
,,,,,,,UNITED KINGDOM,2023-08-16_08h42.29.801,HF_wild_card,2022.2.4,MacIntel,60.0024001,63ebc2bce05579ac6b13affc,64d2fd46c836a06233681665,64dc7d55ad403bec63a1d43f,,,,,,,decisionTrl,resources/DP.BMP,resources/DB.BMP,WildCard_Ex,-0.418581947,-0.016565389,1,0,0,3.1322,optionLeft,55,10915,5,19,0,19,0,1,,,,,,,,,,,,,,,,,,,,,,,,,,,,,,,,,,,,,,,
,,,,,,,UNITED KINGDOM,2023-08-16_08h42.29.801,HF_wild_card,2022.2.4,MacIntel,60.0024001,63ebc2bce05579ac6b13affc,64d2fd46c836a06233681665,64dc7d55ad403bec63a1d43f,,,,,,,ctch,resources/DG.BMP,resources/DR.BMP,Door3,0.3701684,0.028658343,1,0,0,1.0487,optionRight,70,10985,5,20,0,20,0,1,,,,,,,,,,,,,,,,,,,,,,,,,,,,,,,,,,,,,,,
,,,,,,,UNITED KINGDOM,2023-08-16_08h42.29.801,HF_wild_card,2022.2.4,MacIntel,60.0024001,63ebc2bce05579ac6b13affc,64d2fd46c836a06233681665,64dc7d55ad403bec63a1d43f,,,,,,,decisionTrl,resources/DB.BMP,resources/DP.BMP,WildCard_Ex,0.47334762,0.016692472,1,0,0,1.4157,optionRight,45,11030,5,21,0,21,0,1,,,,,,,,,,,,,,,,,,,,,,,,,,,,,,,,,,,,,,,
,,,,,,,UNITED KINGDOM,2023-08-16_08h42.29.801,HF_wild_card,2022.2.4,MacIntel,60.0024001,63ebc2bce05579ac6b13affc,64d2fd46c836a06233681665,64dc7d55ad403bec63a1d43f,,,,,,,sngl,resources/Empty.png,resources/DY.BMP,Door4,0.354748657,0.014760787,1,0,0,0.7805,optionRight,60,11090,5,22,0,22,0,1,,,,,,,,,,,,,,,,,,,,,,,,,,,,,,,,,,,,,,,
,,,,,,,UNITED KINGDOM,2023-08-16_08h42.29.801,HF_wild_card,2022.2.4,MacIntel,60.0024001,63ebc2bce05579ac6b13affc,64d2fd46c836a06233681665,64dc7d55ad403bec63a1d43f,,,,,,,decisionTrl,resources/DB.BMP,resources/DG.BMP,Door1,-0.341473375,-0.016791747,1,0,0,1.398,optionLeft,30,11120,5,23,0,23,0,1,,,,,,,,,,,,,,,,,,,,,,,,,,,,,,,,,,,,,,,
,,,,,,,UNITED KINGDOM,2023-08-16_08h42.29.801,HF_wild_card,2022.2.4,MacIntel,60.0024001,63ebc2bce05579ac6b13affc,64d2fd46c836a06233681665,64dc7d55ad403bec63a1d43f,,,,,,,decisionTrl,resources/DP.BMP,resources/DG.BMP,WildCard_Ex,-0.401972323,-0.056625044,1,0,0,1.3821,optionLeft,45,11165,5,24,0,24,0,1,,,,,,,,,,,,,,,,,,,,,,,,,,,,,,,,,,,,,,,
,,,,,,,UNITED KINGDOM,2023-08-16_08h42.29.801,HF_wild_card,2022.2.4,MacIntel,60.0024001,63ebc2bce05579ac6b13affc,64d2fd46c836a06233681665,64dc7d55ad403bec63a1d43f,,,,,,,decisionTrl,resources/DR.BMP,resources/DY.BMP,Door4,0.295906837,0.022140689,1,0,0,1.2317,optionRight,60,11225,5,25,0,25,0,1,,,,,,,,,,,,,,,,,,,,,,,,,,,,,,,,,,,,,,,
,,,,,,,UNITED KINGDOM,2023-08-16_08h42.29.801,HF_wild_card,2022.2.4,MacIntel,60.0024001,63ebc2bce05579ac6b13affc,64d2fd46c836a06233681665,64dc7d55ad403bec63a1d43f,,,,,,,sngl,resources/DP.BMP,resources/Empty.png,WildCard_Ex,-0.346362826,-0.026883785,1,0,0,1.0818,optionLeft,45,11270,5,26,0,26,0,1,,,,,,,,,,,,,,,,,,,,,,,,,,,,,,,,,,,,,,,
,,,,,,,UNITED KINGDOM,2023-08-16_08h42.29.801,HF_wild_card,2022.2.4,MacIntel,60.0024001,63ebc2bce05579ac6b13affc,64d2fd46c836a06233681665,64dc7d55ad403bec63a1d43f,,,,,,,decisionTrl,resources/DB.BMP,resources/DG.BMP,Door1,-0.396919107,-0.010813621,1,0,0,1.2307,optionLeft,30,11300,5,27,0,27,0,1,,,,,,,,,,,,,,,,,,,,,,,,,,,,,,,,,,,,,,,
,,,,,,,UNITED KINGDOM,2023-08-16_08h42.29.801,HF_wild_card,2022.2.4,MacIntel,60.0024001,63ebc2bce05579ac6b13affc,64d2fd46c836a06233681665,64dc7d55ad403bec63a1d43f,,,,,,,decisionTrl,resources/DG.BMP,resources/DB.BMP,Door1,0.34997965,0.004635082,1,0,0,1.3304,optionRight,30,11330,5,28,0,28,0,1,,,,,,,,,,,,,,,,,,,,,,,,,,,,,,,,,,,,,,,
,,,,,,,UNITED KINGDOM,2023-08-16_08h42.29.801,HF_wild_card,2022.2.4,MacIntel,60.0024001,63ebc2bce05579ac6b13affc,64d2fd46c836a06233681665,64dc7d55ad403bec63a1d43f,,,,,,,decisionTrl,resources/DB.BMP,resources/DG.BMP,Door1,-0.310310999,-0.015057563,1,0,0,7.0841,optionLeft,30,11360,5,29,0,29,0,1,,,,,,,,,,,,,,,,,,,,,,,,,,,,,,,,,,,,,,,
,,,,,,,UNITED KINGDOM,2023-08-16_08h42.29.801,HF_wild_card,2022.2.4,MacIntel,60.0024001,63ebc2bce05579ac6b13affc,64d2fd46c836a06233681665,64dc7d55ad403bec63a1d43f,,,,,,,sngl,resources/Empty.png,resources/DG.BMP,Door2,0.265476646,-0.002412514,1,0,0,0.9845,optionRight,20,11380,5,30,0,30,0,1,,,,,,,,,,,,,,,,,,,,,,,,,,,,,,,,,,,,,,,
,,,,,,,UNITED KINGDOM,2023-08-16_08h42.29.801,HF_wild_card,2022.2.4,MacIntel,60.0024001,63ebc2bce05579ac6b13affc,64d2fd46c836a06233681665,64dc7d55ad403bec63a1d43f,,,,,,,decisionTrl,resources/DG.BMP,resources/DB.BMP,Door1,0.438967418,0.078386076,1,0,0,29.7367,optionRight,30,11410,5,31,0,31,0,1,,,,,,,,,,,,,,,,,,,,,,,,,,,,,,,,,,,,,,,
,,,,,,,UNITED KINGDOM,2023-08-16_08h42.29.801,HF_wild_card,2022.2.4,MacIntel,60.0024001,63ebc2bce05579ac6b13affc,64d2fd46c836a06233681665,64dc7d55ad403bec63a1d43f,,,,,,,decisionTrl,resources/DR.BMP,resources/DY.BMP,Door4,0.310228219,0.015329206,1,0,0,2.2807,optionRight,60,11470,5,32,0,32,0,1,,,,,,,,,,,,,,,,,,,,,,,,,,,,,,,,,,,,,,,
,,,,,,,UNITED KINGDOM,2023-08-16_08h42.29.801,HF_wild_card,2022.2.4,MacIntel,60.0024001,63ebc2bce05579ac6b13affc,64d2fd46c836a06233681665,64dc7d55ad403bec63a1d43f,,,,,,,decisionTrl,resources/DP.BMP,resources/DY.BMP,Door4,0.472533502,-0.039471016,1,0,0,3.0533,optionRight,60,11530,5,33,0,33,0,1,,,,,,,,,,,,,,,,,,,,,,,,,,,,,,,,,,,,,,,
,,,,,,,UNITED KINGDOM,2023-08-16_08h42.29.801,HF_wild_card,2022.2.4,MacIntel,60.0024001,63ebc2bce05579ac6b13affc,64d2fd46c836a06233681665,64dc7d55ad403bec63a1d43f,,,,,,,sngl,resources/Empty.png,resources/DR.BMP,Door3,0.381310534,0.01630709,1,0,0,7.5187,optionRight,70,11600,5,34,0,34,0,1,,,,,,,,,,,,,,,,,,,,,,,,,,,,,,,,,,,,,,,
,,,,,,,UNITED KINGDOM,2023-08-16_08h42.29.801,HF_wild_card,2022.2.4,MacIntel,60.0024001,63ebc2bce05579ac6b13affc,64d2fd46c836a06233681665,64dc7d55ad403bec63a1d43f,,,,,,,ctch,resources/DR.BMP,resources/DG.BMP,Door3,-0.428066986,0.019187766,1,0,0,1.152,optionLeft,70,11670,5,35,0,35,0,1,,,,,,,,,,,,,,,,,,,,,,,,,,,,,,,,,,,,,,,
,,,,,,,UNITED KINGDOM,2023-08-16_08h42.29.801,HF_wild_card,2022.2.4,MacIntel,60.0024001,63ebc2bce05579ac6b13affc,64d2fd46c836a06233681665,64dc7d55ad403bec63a1d43f,,,,,,,sngl,resources/Empty.png,resources/DP.BMP,WildCard_Ex,0.367803135,-0.002725582,1,0,0,1.0156,optionRight,55,11725,5,36,0,36,0,1,,,,,,,,,,,,,,,,,,,,,,,,,,,,,,,,,,,,,,,
,,,,,,,UNITED KINGDOM,2023-08-16_08h42.29.801,HF_wild_card,2022.2.4,MacIntel,60.0024001,63ebc2bce05579ac6b13affc,64d2fd46c836a06233681665,64dc7d55ad403bec63a1d43f,,,,,,,decisionTrl,resources/DY.BMP,resources/DR.BMP,Door3,0.402814418,0.005121602,1,0,0,1.6503,optionRight,70,11795,5,37,0,37,0,1,,,,,,,,,,,,,,,,,,,,,,,,,,,,,,,,,,,,,,,
,,,,,,,UNITED KINGDOM,2023-08-16_08h42.29.801,HF_wild_card,2022.2.4,MacIntel,60.0024001,63ebc2bce05579ac6b13affc,64d2fd46c836a06233681665,64dc7d55ad403bec63a1d43f,,,,,,,decisionTrl,resources/DG.BMP,resources/DP.BMP,WildCard_Ex,0.40287227,-0.062111807,1,0,0,2.4986,optionRight,45,11840,5,38,0,38,0,1,,,,,,,,,,,,,,,,,,,,,,,,,,,,,,,,,,,,,,,
,,,,,,,UNITED KINGDOM,2023-08-16_08h42.29.801,HF_wild_card,2022.2.4,MacIntel,60.0024001,63ebc2bce05579ac6b13affc,64d2fd46c836a06233681665,64dc7d55ad403bec63a1d43f,,,,,,,sngl,resources/DG.BMP,resources/Empty.png,Door2,-0.406972565,-0.001372004,1,0,0,2.2676,optionLeft,40,11880,5,39,0,39,0,1,,,,,,,,,,,,,,,,,,,,,,,,,,,,,,,,,,,,,,,
,,,,,,,UNITED KINGDOM,2023-08-16_08h42.29.801,HF_wild_card,2022.2.4,MacIntel,60.0024001,63ebc2bce05579ac6b13affc,64d2fd46c836a06233681665,64dc7d55ad403bec63a1d43f,,,,,,,ctch,resources/DB.BMP,resources/DY.BMP,Door4,0.359893359,-0.00067833,1,0,0,2.7316,optionRight,80,11960,5,40,0,40,0,1,,,,,,,,,,,,,,,,,,,,,,,,,,,,,,,,,,,,,,,
,,,,,,,UNITED KINGDOM,2023-08-16_08h42.29.801,HF_wild_card,2022.2.4,MacIntel,60.0024001,63ebc2bce05579ac6b13affc,64d2fd46c836a06233681665,64dc7d55ad403bec63a1d43f,,,,,,,ctch,resources/DY.BMP,resources/DB.BMP,Door4,-0.319319171,-0.009643047,1,0,0,1.2478,optionLeft,80,12040,5,41,0,41,0,1,,,,,,,,,,,,,,,,,,,,,,,,,,,,,,,,,,,,,,,
,,,,,,,UNITED KINGDOM,2023-08-16_08h42.29.801,HF_wild_card,2022.2.4,MacIntel,60.0024001,63ebc2bce05579ac6b13affc,64d2fd46c836a06233681665,64dc7d55ad403bec63a1d43f,,,,,,,ctch,resources/DY.BMP,resources/DB.BMP,Door4,-0.345278961,-0.013135497,1,0,0,0.9651,optionLeft,60,12100,5,42,0,42,0,1,,,,,,,,,,,,,,,,,,,,,,,,,,,,,,,,,,,,,,,
,,,,,,,UNITED KINGDOM,2023-08-16_08h42.29.801,HF_wild_card,2022.2.4,MacIntel,60.0024001,63ebc2bce05579ac6b13affc,64d2fd46c836a06233681665,64dc7d55ad403bec63a1d43f,,,,,,,sngl,resources/Empty.png,resources/DB.BMP,Door1,0.50848409,0.013349357,1,0,0,1.0135,optionRight,30,12130,5,43,0,43,0,1,,,,,,,,,,,,,,,,,,,,,,,,,,,,,,,,,,,,,,,
,,,,,,,UNITED KINGDOM,2023-08-16_08h42.29.801,HF_wild_card,2022.2.4,MacIntel,60.0024001,63ebc2bce05579ac6b13affc,64d2fd46c836a06233681665,64dc7d55ad403bec63a1d43f,,,,,,,,,,,,,,,,,,,,,,,,,,4,0,4,0,1,,,,,,,,,,,,,,,,,,,,,,,,,,,,,,,,,,
,,,,,,,UNITED KINGDOM,2023-08-16_08h42.29.801,HF_wild_card,2022.2.4,MacIntel,60.0024001,63ebc2bce05579ac6b13affc,64d2fd46c836a06233681665,64dc7d55ad403bec63a1d43f,,,,,,,sngl,resources/DP.BMP,resources/Empty.png,WildCard_Ex,-0.361426079,-0.101622248,1,0,0,1.0666,optionLeft,55,12185,6,0,0,0,0,1,,,,,,,,,,,,,,,,,,,,,,,,,,,,,,,,,,,,,,,
,,,,,,,UNITED KINGDOM,2023-08-16_08h42.29.801,HF_wild_card,2022.2.4,MacIntel,60.0024001,63ebc2bce05579ac6b13affc,64d2fd46c836a06233681665,64dc7d55ad403bec63a1d43f,,,,,,,ctch,resources/DR.BMP,resources/DG.BMP,Door3,-0.388069957,-0.072642133,1,0,0,1.0634,optionLeft,70,12255,6,1,0,1,0,1,,,,,,,,,,,,,,,,,,,,,,,,,,,,,,,,,,,,,,,
,,,,,,,UNITED KINGDOM,2023-08-16_08h42.29.801,HF_wild_card,2022.2.4,MacIntel,60.0024001,63ebc2bce05579ac6b13affc,64d2fd46c836a06233681665,64dc7d55ad403bec63a1d43f,,,,,,,decisionTrl,resources/DB.BMP,resources/DG.BMP,Door1,-0.378199502,-0.080590455,1,0,0,1.5299,optionLeft,30,12285,6,2,0,2,0,1,,,,,,,,,,,,,,,,,,,,,,,,,,,,,,,,,,,,,,,
,,,,,,,UNITED KINGDOM,2023-08-16_08h42.29.801,HF_wild_card,2022.2.4,MacIntel,60.0024001,63ebc2bce05579ac6b13affc,64d2fd46c836a06233681665,64dc7d55ad403bec63a1d43f,,,,,,,decisionTrl,resources/DY.BMP,resources/DR.BMP,Door3,0.380212308,-0.015047977,1,0,0,1.5146,optionRight,70,12355,6,3,0,3,0,1,,,,,,,,,,,,,,,,,,,,,,,,,,,,,,,,,,,,,,,
,,,,,,,UNITED KINGDOM,2023-08-16_08h42.29.801,HF_wild_card,2022.2.4,MacIntel,60.0024001,63ebc2bce05579ac6b13affc,64d2fd46c836a06233681665,64dc7d55ad403bec63a1d43f,,,,,,,decisionTrl,resources/DG.BMP,resources/DB.BMP,Door1,0.396094455,-0.028776891,1,0,0,1.5636,optionRight,30,12385,6,4,0,4,0,1,,,,,,,,,,,,,,,,,,,,,,,,,,,,,,,,,,,,,,,
,,,,,,,UNITED KINGDOM,2023-08-16_08h42.29.801,HF_wild_card,2022.2.4,MacIntel,60.0024001,63ebc2bce05579ac6b13affc,64d2fd46c836a06233681665,64dc7d55ad403bec63a1d43f,,,,,,,decisionTrl,resources/DR.BMP,resources/DY.BMP,Door3,-0.409968843,0.0212591,1,0,0,1.8483,optionLeft,70,12455,6,5,0,5,0,1,,,,,,,,,,,,,,,,,,,,,,,,,,,,,,,,,,,,,,,
,,,,,,,UNITED KINGDOM,2023-08-16_08h42.29.801,HF_wild_card,2022.2.4,MacIntel,60.0024001,63ebc2bce05579ac6b13affc,64d2fd46c836a06233681665,64dc7d55ad403bec63a1d43f,,,,,,,decisionTrl,resources/DP.BMP,resources/DG.BMP,WildCard_Ex,-0.348732867,-0.017345771,1,0,0,1.4491,optionLeft,55,12510,6,6,0,6,0,1,,,,,,,,,,,,,,,,,,,,,,,,,,,,,,,,,,,,,,,
,,,,,,,UNITED KINGDOM,2023-08-16_08h42.29.801,HF_wild_card,2022.2.4,MacIntel,60.0024001,63ebc2bce05579ac6b13affc,64d2fd46c836a06233681665,64dc7d55ad403bec63a1d43f,,,,,,,decisionTrl,resources/DP.BMP,resources/DR.BMP,Door3,0.347378374,0.020416158,1,0,0,1.1331,optionRight,70,12580,6,7,0,7,0,1,,,,,,,,,,,,,,,,,,,,,,,,,,,,,,,,,,,,,,,
,,,,,,,UNITED KINGDOM,2023-08-16_08h42.29.801,HF_wild_card,2022.2.4,MacIntel,60.0024001,63ebc2bce05579ac6b13affc,64d2fd46c836a06233681665,64dc7d55ad403bec63a1d43f,,,,,,,sngl,resources/Empty.png,resources/DP.BMP,WildCard_Ex,0.29137872,-0.007740254,1,0,0,0.7845,optionRight,55,12635,6,8,0,8,0,1,,,,,,,,,,,,,,,,,,,,,,,,,,,,,,,,,,,,,,,
,,,,,,,UNITED KINGDOM,2023-08-16_08h42.29.801,HF_wild_card,2022.2.4,MacIntel,60.0024001,63ebc2bce05579ac6b13affc,64d2fd46c836a06233681665,64dc7d55ad403bec63a1d43f,,,,,,,sngl,resources/Empty.png,resources/DR.BMP,Door3,0.365621044,-0.005957905,1,0,0,0.6982,optionRight,70,12705,6,9,0,9,0,1,,,,,,,,,,,,,,,,,,,,,,,,,,,,,,,,,,,,,,,
,,,,,,,UNITED KINGDOM,2023-08-16_08h42.29.801,HF_wild_card,2022.2.4,MacIntel,60.0024001,63ebc2bce05579ac6b13affc,64d2fd46c836a06233681665,64dc7d55ad403bec63a1d43f,,,,,,,sngl,resources/DB.BMP,resources/Empty.png,Door1,-0.321313483,0.009510002,1,0,0,0.9652,optionLeft,30,12735,6,10,0,10,0,1,,,,,,,,,,,,,,,,,,,,,,,,,,,,,,,,,,,,,,,
,,,,,,,UNITED KINGDOM,2023-08-16_08h42.29.801,HF_wild_card,2022.2.4,MacIntel,60.0024001,63ebc2bce05579ac6b13affc,64d2fd46c836a06233681665,64dc7d55ad403bec63a1d43f,,,,,,,sngl,resources/DR.BMP,resources/Empty.png,Door3,-0.366031355,0.01658168,1,0,0,0.8147,optionLeft,70,12805,6,11,0,11,0,1,,,,,,,,,,,,,,,,,,,,,,,,,,,,,,,,,,,,,,,
,,,,,,,UNITED KINGDOM,2023-08-16_08h42.29.801,HF_wild_card,2022.2.4,MacIntel,60.0024001,63ebc2bce05579ac6b13affc,64d2fd46c836a06233681665,64dc7d55ad403bec63a1d43f,,,,,,,decisionTrl,resources/DY.BMP,resources/DR.BMP,Door3,0.34718084,0.024534846,1,0,0,1.2147,optionRight,70,12875,6,12,0,12,0,1,,,,,,,,,,,,,,,,,,,,,,,,,,,,,,,,,,,,,,,
,,,,,,,UNITED KINGDOM,2023-08-16_08h42.29.801,HF_wild_card,2022.2.4,MacIntel,60.0024001,63ebc2bce05579ac6b13affc,64d2fd46c836a06233681665,64dc7d55ad403bec63a1d43f,,,,,,,sngl,resources/DY.BMP,resources/Empty.png,Door4,-0.354768742,0.018392921,1,0,0,0.783,optionLeft,60,12935,6,13,0,13,0,1,,,,,,,,,,,,,,,,,,,,,,,,,,,,,,,,,,,,,,,
,,,,,,,UNITED KINGDOM,2023-08-16_08h42.29.801,HF_wild_card,2022.2.4,MacIntel,60.0024001,63ebc2bce05579ac6b13affc,64d2fd46c836a06233681665,64dc7d55ad403bec63a1d43f,,,,,,,sngl,resources/Empty.png,resources/DP.BMP,WildCard_Ex,0.287659843,0.001783297,1,0,0,0.6654,optionRight,45,12980,6,14,0,14,0,1,,,,,,,,,,,,,,,,,,,,,,,,,,,,,,,,,,,,,,,
,,,,,,,UNITED KINGDOM,2023-08-16_08h42.29.801,HF_wild_card,2022.2.4,MacIntel,60.0024001,63ebc2bce05579ac6b13affc,64d2fd46c836a06233681665,64dc7d55ad403bec63a1d43f,,,,,,,decisionTrl,resources/DB.BMP,resources/DG.BMP,Door1,-0.420687016,-0.014185695,1,0,0,1.8984,optionLeft,30,13010,6,15,0,15,0,1,,,,,,,,,,,,,,,,,,,,,,,,,,,,,,,,,,,,,,,
,,,,,,,UNITED KINGDOM,2023-08-16_08h42.29.801,HF_wild_card,2022.2.4,MacIntel,60.0024001,63ebc2bce05579ac6b13affc,64d2fd46c836a06233681665,64dc7d55ad403bec63a1d43f,,,,,,,decisionTrl,resources/DG.BMP,resources/DP.BMP,WildCard_Ex,0.369219476,0.019722484,1,0,0,1.0477,optionRight,55,13065,6,16,0,16,0,1,,,,,,,,,,,,,,,,,,,,,,,,,,,,,,,,,,,,,,,
,,,,,,,UNITED KINGDOM,2023-08-16_08h42.29.801,HF_wild_card,2022.2.4,MacIntel,60.0024001,63ebc2bce05579ac6b13affc,64d2fd46c836a06233681665,64dc7d55ad403bec63a1d43f,,,,,,,sngl,resources/Empty.png,resources/DB.BMP,Door1,0.366777122,0.044381602,1,0,0,0.7813,optionRight,30,13095,6,17,0,17,0,1,,,,,,,,,,,,,,,,,,,,,,,,,,,,,,,,,,,,,,,
,,,,,,,UNITED KINGDOM,2023-08-16_08h42.29.801,HF_wild_card,2022.2.4,MacIntel,60.0024001,63ebc2bce05579ac6b13affc,64d2fd46c836a06233681665,64dc7d55ad403bec63a1d43f,,,,,,,sngl,resources/DP.BMP,resources/Empty.png,WildCard_Ex,-0.388315622,0.026105231,1,0,0,0.7482,optionLeft,45,13140,6,18,0,18,0,1,,,,,,,,,,,,,,,,,,,,,,,,,,,,,,,,,,,,,,,
,,,,,,,UNITED KINGDOM,2023-08-16_08h42.29.801,HF_wild_card,2022.2.4,MacIntel,60.0024001,63ebc2bce05579ac6b13affc,64d2fd46c836a06233681665,64dc7d55ad403bec63a1d43f,,,,,,,decisionTrl,resources/DB.BMP,resources/DG.BMP,Door1,-0.339734381,0.016297471,1,0,0,2.0481,optionLeft,30,13170,6,19,0,19,0,1,,,,,,,,,,,,,,,,,,,,,,,,,,,,,,,,,,,,,,,
,,,,,,,UNITED KINGDOM,2023-08-16_08h42.29.801,HF_wild_card,2022.2.4,MacIntel,60.0024001,63ebc2bce05579ac6b13affc,64d2fd46c836a06233681665,64dc7d55ad403bec63a1d43f,,,,,,,decisionTrl,resources/DY.BMP,resources/DP.BMP,Door4,-0.316216912,0.00746275,1,0,0,1.0314,optionLeft,60,13230,6,20,0,20,0,1,,,,,,,,,,,,,,,,,,,,,,,,,,,,,,,,,,,,,,,
,,,,,,,UNITED KINGDOM,2023-08-16_08h42.29.801,HF_wild_card,2022.2.4,MacIntel,60.0024001,63ebc2bce05579ac6b13affc,64d2fd46c836a06233681665,64dc7d55ad403bec63a1d43f,,,,,,,decisionTrl,resources/DP.BMP,resources/DY.BMP,Door4,0.412203129,0.018253238,1,0,0,0.9316,optionRight,60,13290,6,21,0,21,0,1,,,,,,,,,,,,,,,,,,,,,,,,,,,,,,,,,,,,,,,
,,,,,,,UNITED KINGDOM,2023-08-16_08h42.29.801,HF_wild_card,2022.2.4,MacIntel,60.0024001,63ebc2bce05579ac6b13affc,64d2fd46c836a06233681665,64dc7d55ad403bec63a1d43f,,,,,,,ctch,resources/DY.BMP,resources/DB.BMP,Door4,-0.371787898,0.002785262,1,0,0,1.0821,optionLeft,80,13370,6,22,0,22,0,1,,,,,,,,,,,,,,,,,,,,,,,,,,,,,,,,,,,,,,,
,,,,,,,UNITED KINGDOM,2023-08-16_08h42.29.801,HF_wild_card,2022.2.4,MacIntel,60.0024001,63ebc2bce05579ac6b13affc,64d2fd46c836a06233681665,64dc7d55ad403bec63a1d43f,,,,,,,ctch,resources/DB.BMP,resources/DY.BMP,Door4,0.427367622,-0.006656388,1,0,0,0.7508,optionRight,60,13430,6,23,0,23,0,1,,,,,,,,,,,,,,,,,,,,,,,,,,,,,,,,,,,,,,,
,,,,,,,UNITED KINGDOM,2023-08-16_08h42.29.801,HF_wild_card,2022.2.4,MacIntel,60.0024001,63ebc2bce05579ac6b13affc,64d2fd46c836a06233681665,64dc7d55ad403bec63a1d43f,,,,,,,decisionTrl,resources/DR.BMP,resources/DY.BMP,Door3,-0.34444557,0.014457305,1,0,0,1.2479,optionLeft,70,13500,6,24,0,24,0,1,,,,,,,,,,,,,,,,,,,,,,,,,,,,,,,,,,,,,,,
,,,,,,,UNITED KINGDOM,2023-08-16_08h42.29.801,HF_wild_card,2022.2.4,MacIntel,60.0024001,63ebc2bce05579ac6b13affc,64d2fd46c836a06233681665,64dc7d55ad403bec63a1d43f,,,,,,,decisionTrl,resources/DR.BMP,resources/DY.BMP,Door3,-0.342937812,0.030276858,1,0,0,1.0327,optionLeft,70,13570,6,25,0,25,0,1,,,,,,,,,,,,,,,,,,,,,,,,,,,,,,,,,,,,,,,
,,,,,,,UNITED KINGDOM,2023-08-16_08h42.29.801,HF_wild_card,2022.2.4,MacIntel,60.0024001,63ebc2bce05579ac6b13affc,64d2fd46c836a06233681665,64dc7d55ad403bec63a1d43f,,,,,,,sngl,resources/Empty.png,resources/DY.BMP,Door4,0.555755243,0.043148401,1,0,0,0.9482,optionRight,80,13650,6,26,0,26,0,1,,,,,,,,,,,,,,,,,,,,,,,,,,,,,,,,,,,,,,,
,,,,,,,UNITED KINGDOM,2023-08-16_08h42.29.801,HF_wild_card,2022.2.4,MacIntel,60.0024001,63ebc2bce05579ac6b13affc,64d2fd46c836a06233681665,64dc7d55ad403bec63a1d43f,,,,,,,decisionTrl,resources/DG.BMP,resources/DB.BMP,Door1,0.302188378,0.016610572,1,0,0,1.132,optionRight,30,13680,6,27,0,27,0,1,,,,,,,,,,,,,,,,,,,,,,,,,,,,,,,,,,,,,,,
,,,,,,,UNITED KINGDOM,2023-08-16_08h42.29.801,HF_wild_card,2022.2.4,MacIntel,60.0024001,63ebc2bce05579ac6b13affc,64d2fd46c836a06233681665,64dc7d55ad403bec63a1d43f,,,,,,,ctch,resources/DG.BMP,resources/DR.BMP,Door3,0.412872687,0.011518811,1,0,0,0.9653,optionRight,70,13750,6,28,0,28,0,1,,,,,,,,,,,,,,,,,,,,,,,,,,,,,,,,,,,,,,,
,,,,,,,UNITED KINGDOM,2023-08-16_08h42.29.801,HF_wild_card,2022.2.4,MacIntel,60.0024001,63ebc2bce05579ac6b13affc,64d2fd46c836a06233681665,64dc7d55ad403bec63a1d43f,,,,,,,decisionTrl,resources/DR.BMP,resources/DY.BMP,Door3,-0.357028059,0.03559027,1,0,0,1.5653,optionLeft,70,13820,6,29,0,29,0,1,,,,,,,,,,,,,,,,,,,,,,,,,,,,,,,,,,,,,,,
,,,,,,,UNITED KINGDOM,2023-08-16_08h42.29.801,HF_wild_card,2022.2.4,MacIntel,60.0024001,63ebc2bce05579ac6b13affc,64d2fd46c836a06233681665,64dc7d55ad403bec63a1d43f,,,,,,,decisionTrl,resources/DB.BMP,resources/DG.BMP,Door1,-0.407492821,0.000179176,1,0,0,1.3978,optionLeft,30,13850,6,30,0,30,0,1,,,,,,,,,,,,,,,,,,,,,,,,,,,,,,,,,,,,,,,
,,,,,,,UNITED KINGDOM,2023-08-16_08h42.29.801,HF_wild_card,2022.2.4,MacIntel,60.0024001,63ebc2bce05579ac6b13affc,64d2fd46c836a06233681665,64dc7d55ad403bec63a1d43f,,,,,,,ctch,resources/DR.BMP,resources/DG.BMP,Door3,-0.3464977,0.012135428,1,0,0,1.1146,optionLeft,70,13920,6,31,0,31,0,1,,,,,,,,,,,,,,,,,,,,,,,,,,,,,,,,,,,,,,,
,,,,,,,UNITED KINGDOM,2023-08-16_08h42.29.801,HF_wild_card,2022.2.4,MacIntel,60.0024001,63ebc2bce05579ac6b13affc,64d2fd46c836a06233681665,64dc7d55ad403bec63a1d43f,,,,,,,decisionTrl,resources/DY.BMP,resources/DR.BMP,Door3,0.396089713,0.014731827,1,0,0,1.6151,optionRight,70,13990,6,32,0,32,0,1,,,,,,,,,,,,,,,,,,,,,,,,,,,,,,,,,,,,,,,
,,,,,,,UNITED KINGDOM,2023-08-16_08h42.29.801,HF_wild_card,2022.2.4,MacIntel,60.0024001,63ebc2bce05579ac6b13affc,64d2fd46c836a06233681665,64dc7d55ad403bec63a1d43f,,,,,,,sngl,resources/Empty.png,resources/DG.BMP,Door2,0.432777329,0.031298164,1,0,0,0.9311,optionRight,40,14030,6,33,0,33,0,1,,,,,,,,,,,,,,,,,,,,,,,,,,,,,,,,,,,,,,,
,,,,,,,UNITED KINGDOM,2023-08-16_08h42.29.801,HF_wild_card,2022.2.4,MacIntel,60.0024001,63ebc2bce05579ac6b13affc,64d2fd46c836a06233681665,64dc7d55ad403bec63a1d43f,,,,,,,sngl,resources/DG.BMP,resources/Empty.png,Door2,-0.271783251,0.02928458,1,0,0,0.6807,optionLeft,20,14050,6,34,0,34,0,1,,,,,,,,,,,,,,,,,,,,,,,,,,,,,,,,,,,,,,,
,,,,,,,UNITED KINGDOM,2023-08-16_08h42.29.801,HF_wild_card,2022.2.4,MacIntel,60.0024001,63ebc2bce05579ac6b13affc,64d2fd46c836a06233681665,64dc7d55ad403bec63a1d43f,,,,,,,decisionTrl,resources/DG.BMP,resources/DB.BMP,Door1,0.361714252,0.02590773,1,0,0,0.8996,optionRight,30,14080,6,35,0,35,0,1,,,,,,,,,,,,,,,,,,,,,,,,,,,,,,,,,,,,,,,
,,,,,,,UNITED KINGDOM,2023-08-16_08h42.29.801,HF_wild_card,2022.2.4,MacIntel,60.0024001,63ebc2bce05579ac6b13affc,64d2fd46c836a06233681665,64dc7d55ad403bec63a1d43f,,,,,,,decisionTrl,resources/DG.BMP,resources/DB.BMP,Door1,0.337483905,0.034853242,1,0,0,0.8155,optionRight,30,14110,6,36,0,36,0,1,,,,,,,,,,,,,,,,,,,,,,,,,,,,,,,,,,,,,,,
,,,,,,,UNITED KINGDOM,2023-08-16_08h42.29.801,HF_wild_card,2022.2.4,MacIntel,60.0024001,63ebc2bce05579ac6b13affc,64d2fd46c836a06233681665,64dc7d55ad403bec63a1d43f,,,,,,,ctch,resources/DB.BMP,resources/DY.BMP,Door4,0.356863413,0.019500834,1,0,0,0.7466,optionRight,60,14170,6,37,0,37,0,1,,,,,,,,,,,,,,,,,,,,,,,,,,,,,,,,,,,,,,,
,,,,,,,UNITED KINGDOM,2023-08-16_08h42.29.801,HF_wild_card,2022.2.4,MacIntel,60.0024001,63ebc2bce05579ac6b13affc,64d2fd46c836a06233681665,64dc7d55ad403bec63a1d43f,,,,,,,decisionTrl,resources/DY.BMP,resources/DR.BMP,Door3,0.367702065,0.064319911,1,0,0,1.1323,optionRight,70,14240,6,38,0,38,0,1,,,,,,,,,,,,,,,,,,,,,,,,,,,,,,,,,,,,,,,
,,,,,,,UNITED KINGDOM,2023-08-16_08h42.29.801,HF_wild_card,2022.2.4,MacIntel,60.0024001,63ebc2bce05579ac6b13affc,64d2fd46c836a06233681665,64dc7d55ad403bec63a1d43f,,,,,,,decisionTrl,resources/DP.BMP,resources/DB.BMP,WildCard_Ex,-0.336781458,0.035277135,1,0,0,1.2995,optionLeft,45,14285,6,39,0,39,0,1,,,,,,,,,,,,,,,,,,,,,,,,,,,,,,,,,,,,,,,
,,,,,,,UNITED KINGDOM,2023-08-16_08h42.29.801,HF_wild_card,2022.2.4,MacIntel,60.0024001,63ebc2bce05579ac6b13affc,64d2fd46c836a06233681665,64dc7d55ad403bec63a1d43f,,,,,,,ctch,resources/DG.BMP,resources/DR.BMP,Door3,0.375168677,0.058635648,1,0,0,0.8313,optionRight,70,14355,6,40,0,40,0,1,,,,,,,,,,,,,,,,,,,,,,,,,,,,,,,,,,,,,,,
,,,,,,,UNITED KINGDOM,2023-08-16_08h42.29.801,HF_wild_card,2022.2.4,MacIntel,60.0024001,63ebc2bce05579ac6b13affc,64d2fd46c836a06233681665,64dc7d55ad403bec63a1d43f,,,,,,,ctch,resources/DY.BMP,resources/DB.BMP,Door4,-0.319059044,-0.009474438,1,0,0,1.064,optionLeft,80,14435,6,41,0,41,0,1,,,,,,,,,,,,,,,,,,,,,,,,,,,,,,,,,,,,,,,
,,,,,,,UNITED KINGDOM,2023-08-16_08h42.29.801,HF_wild_card,2022.2.4,MacIntel,60.0024001,63ebc2bce05579ac6b13affc,64d2fd46c836a06233681665,64dc7d55ad403bec63a1d43f,,,,,,,decisionTrl,resources/DB.BMP,resources/DP.BMP,WildCard_Ex,0.335870165,0.014558409,1,0,0,1.1321,optionRight,45,14480,6,42,0,42,0,1,,,,,,,,,,,,,,,,,,,,,,,,,,,,,,,,,,,,,,,
,,,,,,,UNITED KINGDOM,2023-08-16_08h42.29.801,HF_wild_card,2022.2.4,MacIntel,60.0024001,63ebc2bce05579ac6b13affc,64d2fd46c836a06233681665,64dc7d55ad403bec63a1d43f,,,,,,,decisionTrl,resources/DR.BMP,resources/DP.BMP,Door3,-0.345413835,-0.023492438,1,0,0,1.6488,optionLeft,70,14550,6,43,0,43,0,1,,,,,,,,,,,,,,,,,,,,,,,,,,,,,,,,,,,,,,,
,,,,,,,UNITED KINGDOM,2023-08-16_08h42.29.801,HF_wild_card,2022.2.4,MacIntel,60.0024001,63ebc2bce05579ac6b13affc,64d2fd46c836a06233681665,64dc7d55ad403bec63a1d43f,,,,,,,,,,,,,,,,,,,,,,,,,,5,0,5,0,1,,,,,,,,,,,,,,,,,,,,,,,,,,,,,,,,,,
,,,,,,,UNITED KINGDOM,2023-08-16_08h42.29.801,HF_wild_card,2022.2.4,MacIntel,60.0024001,63ebc2bce05579ac6b13affc,64d2fd46c836a06233681665,64dc7d55ad403bec63a1d43f,,,,,,,decisionTrl,resources/DG.BMP,resources/DB.BMP,Door1,0.43013744,-0.117687568,1,0,0,8.4841,optionRight,30,14580,7,0,0,0,0,1,,,,,,,,,,,,,,,,,,,,,,,,,,,,,,,,,,,,,,,
,,,,,,,UNITED KINGDOM,2023-08-16_08h42.29.801,HF_wild_card,2022.2.4,MacIntel,60.0024001,63ebc2bce05579ac6b13affc,64d2fd46c836a06233681665,64dc7d55ad403bec63a1d43f,,,,,,,decisionTrl,resources/DY.BMP,resources/DR.BMP,Door3,0.401634225,-0.066206412,1,0,0,3.2168,optionRight,70,14650,7,1,0,1,0,1,,,,,,,,,,,,,,,,,,,,,,,,,,,,,,,,,,,,,,,
,,,,,,,UNITED KINGDOM,2023-08-16_08h42.29.801,HF_wild_card,2022.2.4,MacIntel,60.0024001,63ebc2bce05579ac6b13affc,64d2fd46c836a06233681665,64dc7d55ad403bec63a1d43f,,,,,,,decisionTrl,resources/DY.BMP,resources/DR.BMP,Door3,0.367061365,-0.024056048,1,0,0,1.0003,optionRight,70,14720,7,2,0,2,0,1,,,,,,,,,,,,,,,,,,,,,,,,,,,,,,,,,,,,,,,
,,,,,,,UNITED KINGDOM,2023-08-16_08h42.29.801,HF_wild_card,2022.2.4,MacIntel,60.0024001,63ebc2bce05579ac6b13affc,64d2fd46c836a06233681665,64dc7d55ad403bec63a1d43f,,,,,,,decisionTrl,resources/DG.BMP,resources/DB.BMP,Door1,0.361680517,0.006773886,1,0,0,1.3341,optionRight,30,14750,7,3,0,3,0,1,,,,,,,,,,,,,,,,,,,,,,,,,,,,,,,,,,,,,,,
,,,,,,,UNITED KINGDOM,2023-08-16_08h42.29.801,HF_wild_card,2022.2.4,MacIntel,60.0024001,63ebc2bce05579ac6b13affc,64d2fd46c836a06233681665,64dc7d55ad403bec63a1d43f,,,,,,,ctch,resources/DB.BMP,resources/DY.BMP,Door4,0.45253741,0.030026418,1,0,0,0.9313,optionRight,60,14810,7,4,0,4,0,1,,,,,,,,,,,,,,,,,,,,,,,,,,,,,,,,,,,,,,,
,,,,,,,UNITED KINGDOM,2023-08-16_08h42.29.801,HF_wild_card,2022.2.4,MacIntel,60.0024001,63ebc2bce05579ac6b13affc,64d2fd46c836a06233681665,64dc7d55ad403bec63a1d43f,,,,,,,decisionTrl,resources/DB.BMP,resources/DG.BMP,Door1,-0.358762244,-0.052568916,1,0,0,1.1856,optionLeft,30,14840,7,5,0,5,0,1,,,,,,,,,,,,,,,,,,,,,,,,,,,,,,,,,,,,,,,
,,,,,,,UNITED KINGDOM,2023-08-16_08h42.29.801,HF_wild_card,2022.2.4,MacIntel,60.0024001,63ebc2bce05579ac6b13affc,64d2fd46c836a06233681665,64dc7d55ad403bec63a1d43f,,,,,,,decisionTrl,resources/DB.BMP,resources/DG.BMP,Door1,-0.433086433,-0.050839609,1,0,0,0.8837,optionLeft,30,14870,7,6,0,6,0,1,,,,,,,,,,,,,,,,,,,,,,,,,,,,,,,,,,,,,,,
,,,,,,,UNITED KINGDOM,2023-08-16_08h42.29.801,HF_wild_card,2022.2.4,MacIntel,60.0024001,63ebc2bce05579ac6b13affc,64d2fd46c836a06233681665,64dc7d55ad403bec63a1d43f,,,,,,,ctch,resources/DR.BMP,resources/DG.BMP,Door3,-0.397429675,-0.089699731,1,0,0,1.1029,optionLeft,70,14940,7,7,0,7,0,1,,,,,,,,,,,,,,,,,,,,,,,,,,,,,,,,,,,,,,,
,,,,,,,UNITED KINGDOM,2023-08-16_08h42.29.801,HF_wild_card,2022.2.4,MacIntel,60.0024001,63ebc2bce05579ac6b13affc,64d2fd46c836a06233681665,64dc7d55ad403bec63a1d43f,,,,,,,decisionTrl,resources/DB.BMP,resources/DG.BMP,Door1,-0.326458185,-0.033887958,1,0,0,1.3311,optionLeft,30,14970,7,8,0,8,0,1,,,,,,,,,,,,,,,,,,,,,,,,,,,,,,,,,,,,,,,
,,,,,,,UNITED KINGDOM,2023-08-16_08h42.29.801,HF_wild_card,2022.2.4,MacIntel,60.0024001,63ebc2bce05579ac6b13affc,64d2fd46c836a06233681665,64dc7d55ad403bec63a1d43f,,,,,,,ctch,resources/DR.BMP,resources/DG.BMP,Door3,-0.375964369,-0.027090871,1,0,0,1.6654,optionLeft,70,15040,7,9,0,9,0,1,,,,,,,,,,,,,,,,,,,,,,,,,,,,,,,,,,,,,,,
,,,,,,,UNITED KINGDOM,2023-08-16_08h42.29.801,HF_wild_card,2022.2.4,MacIntel,60.0024001,63ebc2bce05579ac6b13affc,64d2fd46c836a06233681665,64dc7d55ad403bec63a1d43f,,,,,,,ctch,resources/DY.BMP,resources/DB.BMP,Door4,-0.373045181,-0.028950309,1,0,0,1.134,optionLeft,80,15120,7,10,0,10,0,1,,,,,,,,,,,,,,,,,,,,,,,,,,,,,,,,,,,,,,,
,,,,,,,UNITED KINGDOM,2023-08-16_08h42.29.801,HF_wild_card,2022.2.4,MacIntel,60.0024001,63ebc2bce05579ac6b13affc,64d2fd46c836a06233681665,64dc7d55ad403bec63a1d43f,,,,,,,decisionTrl,resources/DR.BMP,resources/DY.BMP,Door3,-0.381234325,-0.02114648,1,0,0,1.249,optionLeft,70,15190,7,11,0,11,0,1,,,,,,,,,,,,,,,,,,,,,,,,,,,,,,,,,,,,,,,
,,,,,,,UNITED KINGDOM,2023-08-16_08h42.29.801,HF_wild_card,2022.2.4,MacIntel,60.0024001,63ebc2bce05579ac6b13affc,64d2fd46c836a06233681665,64dc7d55ad403bec63a1d43f,,,,,,,decisionTrl,resources/DB.BMP,resources/DG.BMP,Door1,-0.365352144,-0.015202123,1,0,0,1.3491,optionLeft,30,15220,7,12,0,12,0,1,,,,,,,,,,,,,,,,,,,,,,,,,,,,,,,,,,,,,,,
,,,,,,,UNITED KINGDOM,2023-08-16_08h42.29.801,HF_wild_card,2022.2.4,MacIntel,60.0024001,63ebc2bce05579ac6b13affc,64d2fd46c836a06233681665,64dc7d55ad403bec63a1d43f,,,,,,,decisionTrl,resources/DB.BMP,resources/DG.BMP,Door1,-0.363617959,-0.002735201,1,0,0,0.7843,optionLeft,30,15250,7,13,0,13,0,1,,,,,,,,,,,,,,,,,,,,,,,,,,,,,,,,,,,,,,,
,,,,,,,UNITED KINGDOM,2023-08-16_08h42.29.801,HF_wild_card,2022.2.4,MacIntel,60.0024001,63ebc2bce05579ac6b13affc,64d2fd46c836a06233681665,64dc7d55ad403bec63a1d43f,,,,,,,decisionTrl,resources/DY.BMP,resources/DR.BMP,Door3,0.316509895,0.01412974,1,0,0,1.9161,optionRight,70,15320,7,14,0,14,0,1,,,,,,,,,,,,,,,,,,,,,,,,,,,,,,,,,,,,,,,
,,,,,,,UNITED KINGDOM,2023-08-16_08h42.29.801,HF_wild_card,2022.2.4,MacIntel,60.0024001,63ebc2bce05579ac6b13affc,64d2fd46c836a06233681665,64dc7d55ad403bec63a1d43f,,,,,,,decisionTrl,resources/DR.BMP,resources/DY.BMP,Door3,-0.320648668,-0.00768728,1,0,0,1.1666,optionLeft,70,15390,7,15,0,15,0,1,,,,,,,,,,,,,,,,,,,,,,,,,,,,,,,,,,,,,,,
,,,,,,,UNITED KINGDOM,2023-08-16_08h42.29.801,HF_wild_card,2022.2.4,MacIntel,60.0024001,63ebc2bce05579ac6b13affc,64d2fd46c836a06233681665,64dc7d55ad403bec63a1d43f,,,,,,,decisionTrl,resources/DR.BMP,resources/DY.BMP,Door3,-0.343934968,-0.032674029,1,0,0,0.9329,optionLeft,70,15460,7,16,0,16,0,1,,,,,,,,,,,,,,,,,,,,,,,,,,,,,,,,,,,,,,,
,,,,,,,UNITED KINGDOM,2023-08-16_08h42.29.801,HF_wild_card,2022.2.4,MacIntel,60.0024001,63ebc2bce05579ac6b13affc,64d2fd46c836a06233681665,64dc7d55ad403bec63a1d43f,,,,,,,ctch,resources/DY.BMP,resources/DB.BMP,Door4,-0.361946335,-0.021324708,1,0,0,1.1004,optionLeft,80,15540,7,17,0,17,0,1,,,,,,,,,,,,,,,,,,,,,,,,,,,,,,,,,,,,,,,
,,,,,,,UNITED KINGDOM,2023-08-16_08h42.29.801,HF_wild_card,2022.2.4,MacIntel,60.0024001,63ebc2bce05579ac6b13affc,64d2fd46c836a06233681665,64dc7d55ad403bec63a1d43f,,,,,,,ctch,resources/DB.BMP,resources/DY.BMP,Door4,0.363173947,0.019553876,1,0,0,0.9999,optionRight,60,15600,7,18,0,18,0,1,,,,,,,,,,,,,,,,,,,,,,,,,,,,,,,,,,,,,,,
,,,,,,,UNITED KINGDOM,2023-08-16_08h42.29.801,HF_wild_card,2022.2.4,MacIntel,60.0024001,63ebc2bce05579ac6b13affc,64d2fd46c836a06233681665,64dc7d55ad403bec63a1d43f,,,,,,,decisionTrl,resources/DG.BMP,resources/DB.BMP,Door1,0.43870729,0.035489098,1,0,0,1.0658,optionRight,30,15630,7,19,0,19,0,1,,,,,,,,,,,,,,,,,,,,,,,,,,,,,,,,,,,,,,,
,,,,,,,UNITED KINGDOM,2023-08-16_08h42.29.801,HF_wild_card,2022.2.4,MacIntel,60.0024001,63ebc2bce05579ac6b13affc,64d2fd46c836a06233681665,64dc7d55ad403bec63a1d43f,,,,,,,decisionTrl,resources/DY.BMP,resources/DR.BMP,Door3,0.368535422,0.026972323,1,0,0,1.0324,optionRight,70,15700,7,20,0,20,0,1,,,,,,,,,,,,,,,,,,,,,,,,,,,,,,,,,,,,,,,
,,,,,,,UNITED KINGDOM,2023-08-16_08h42.29.801,HF_wild_card,2022.2.4,MacIntel,60.0024001,63ebc2bce05579ac6b13affc,64d2fd46c836a06233681665,64dc7d55ad403bec63a1d43f,,,,,,,decisionTrl,resources/DR.BMP,resources/DY.BMP,Door3,-0.314930737,0.003816154,1,0,0,1.0327,optionLeft,70,15770,7,21,0,21,0,1,,,,,,,,,,,,,,,,,,,,,,,,,,,,,,,,,,,,,,,
,,,,,,,UNITED KINGDOM,2023-08-16_08h42.29.801,HF_wild_card,2022.2.4,MacIntel,60.0024001,63ebc2bce05579ac6b13affc,64d2fd46c836a06233681665,64dc7d55ad403bec63a1d43f,,,,,,,ctch,resources/DG.BMP,resources/DR.BMP,Door3,0.405088097,0.02849932,1,0,0,0.8495,optionRight,70,15840,7,22,0,22,0,1,,,,,,,,,,,,,,,,,,,,,,,,,,,,,,,,,,,,,,,
,,,,,,,UNITED KINGDOM,2023-08-16_08h42.29.801,HF_wild_card,2022.2.4,MacIntel,60.0024001,63ebc2bce05579ac6b13affc,64d2fd46c836a06233681665,64dc7d55ad403bec63a1d43f,,,,,,,ctch,resources/DB.BMP,resources/DY.BMP,Door4,0.369166502,0.030797114,1,0,0,0.8985,optionRight,80,15920,7,23,0,23,0,1,,,,,,,,,,,,,,,,,,,,,,,,,,,,,,,,,,,,,,,
,,,,,,,UNITED KINGDOM,2023-08-16_08h42.29.801,HF_wild_card,2022.2.4,MacIntel,60.0024001,63ebc2bce05579ac6b13affc,64d2fd46c836a06233681665,64dc7d55ad403bec63a1d43f,,,,,,,ctch,resources/DG.BMP,resources/DR.BMP,Door3,0.36894011,0.015570062,1,0,0,0.901,optionRight,70,15990,7,24,0,24,0,1,,,,,,,,,,,,,,,,,,,,,,,,,,,,,,,,,,,,,,,
,,,,,,,UNITED KINGDOM,2023-08-16_08h42.29.801,HF_wild_card,2022.2.4,MacIntel,60.0024001,63ebc2bce05579ac6b13affc,64d2fd46c836a06233681665,64dc7d55ad403bec63a1d43f,,,,,,,decisionTrl,resources/DG.BMP,resources/DB.BMP,Door1,0.366324337,0.011788592,1,0,0,0.7162,optionRight,30,16020,7,25,0,25,0,1,,,,,,,,,,,,,,,,,,,,,,,,,,,,,,,,,,,,,,,
,,,,,,,UNITED KINGDOM,2023-08-16_08h42.29.801,HF_wild_card,2022.2.4,MacIntel,60.0024001,63ebc2bce05579ac6b13affc,64d2fd46c836a06233681665,64dc7d55ad403bec63a1d43f,,,,,,,decisionTrl,resources/DY.BMP,resources/DR.BMP,Door3,0.427579518,0.031245156,1,0,0,0.8322,optionRight,70,16090,7,26,0,26,0,1,,,,,,,,,,,,,,,,,,,,,,,,,,,,,,,,,,,,,,,
,,,,,,,UNITED KINGDOM,2023-08-16_08h42.29.801,HF_wild_card,2022.2.4,MacIntel,60.0024001,63ebc2bce05579ac6b13affc,64d2fd46c836a06233681665,64dc7d55ad403bec63a1d43f,,,,,,,decisionTrl,resources/DR.BMP,resources/DY.BMP,Door3,-0.327175941,-0.014513225,1,0,0,1.2004,optionLeft,70,16160,7,27,0,27,0,1,,,,,,,,,,,,,,,,,,,,,,,,,,,,,,,,,,,,,,,
