Condition,Low fixed image (Door1),Low risky image (Door2),High fixed image (Door3),High risky image (Door4),Extreme Wild Card,NonExtreme Wild Card,,date,expName,psychopyVersion,OS,frameRate,PROLIFIC_PID,STUDY_ID,SESSION_ID,mouse_2.x,mouse_2.y,mouse_2.leftButton,mouse_2.midButton,mouse_2.rightButton,mouse_2.clicked_name,Trial Type,Left Option Image,Right Option Image,Chosen Door,mouse.x,mouse.y,mouse.leftButton,mouse.midButton,mouse.rightButton,mouse.time,mouse.clicked_name,Feedback,Cumulative Reward,Block,trial.thisRepN,trial.thisTrialN,trial.thisN,trial.thisIndex,trial.ran,blocks.thisRepN,blocks.thisTrialN,blocks.thisN,blocks.thisIndex,blocks.ran,Money conversion,First Outcome Reported,Shown Door (First Outcome),Displayed Image (First Outcome),outcomes.thisRepN,outcomes.thisTrialN,outcomes.thisN,outcomes.thisIndex,outcomes.ran,judgments.thisRepN,judgments.thisTrialN,judgments.thisN,judgments.thisIndex,judgments.ran,freqMouse.x,freqMouse.y,freqMouse.leftButton,freqMouse.midButton,freqMouse.rightButton,freqMouse.clicked_name,FQJ for first outcome,FQJ for second outcome,Shown Door,Displayed Image,trials.thisRepN,trials.thisTrialN,trials.thisN,trials.thisIndex,trials.ran,judgBlock.thisRepN,judgBlock.thisTrialN,judgBlock.thisN,judgBlock.thisIndex,judgBlock.ran
1,resources/DG.BMP,resources/DR.BMP,resources/DBN.BMP,resources/DB.BMP,resources/DP.BMP,resources/DY.BMP,,2023-08-16_08h50.30.168,HF_wild_card,2022.2.4,Win32,59.93407252,63d3fb730f03adf8b4a28a37,64d2fd46c836a06233681665,64dc7f2670a266150a1270ca,,,,,,,,,,,,,,,,,,,,,,,,,,,,,,,,,,,,,,,,,,,,,,,,,,,,,,,,,,,,,,,,
,,,,,,,,2023-08-16_08h50.30.168,HF_wild_card,2022.2.4,Win32,59.93407252,63d3fb730f03adf8b4a28a37,64d2fd46c836a06233681665,64dc7f2670a266150a1270ca,0.016666667,-0.422222222,1,0,0,agree,,,,,,,,,,,,,,,,,,,,,,,,,,,,,,,,,,,,,,,,,,,,,,,,,,,,,,,,,,
,,,,,,,,2023-08-16_08h50.30.168,HF_wild_card,2022.2.4,Win32,59.93407252,63d3fb730f03adf8b4a28a37,64d2fd46c836a06233681665,64dc7f2670a266150a1270ca,,,,,,,,,,,,,,,,,,,,,,,,,,,,,,,,,,,,,,,,,,,,,,,,,,,,,,,,,,,,,,,,
,,,,,,,,2023-08-16_08h50.30.168,HF_wild_card,2022.2.4,Win32,59.93407252,63d3fb730f03adf8b4a28a37,64d2fd46c836a06233681665,64dc7f2670a266150a1270ca,,,,,,,decisionTrl,resources/DY.BMP,resources/DG.BMP,WildCard_NonEx,-0.406022845,-0.037902388,1,0,0,2.4051,optionLeft,55,55,1,0,0,0,0,1,,,,,,,,,,,,,,,,,,,,,,,,,,,,,,,,,,,,,,,
,,,,,,,,2023-08-16_08h50.30.168,HF_wild_card,2022.2.4,Win32,59.93407252,63d3fb730f03adf8b4a28a37,64d2fd46c836a06233681665,64dc7f2670a266150a1270ca,,,,,,,decisionTrl,resources/DY.BMP,resources/DBN.BMP,WildCard_NonEx,-0.317757009,-0.015057113,1,0,0,2.0972,optionLeft,55,110,1,1,0,1,0,1,,,,,,,,,,,,,,,,,,,,,,,,,,,,,,,,,,,,,,,
,,,,,,,,2023-08-16_08h50.30.168,HF_wild_card,2022.2.4,Win32,59.93407252,63d3fb730f03adf8b4a28a37,64d2fd46c836a06233681665,64dc7f2670a266150a1270ca,,,,,,,sngl,resources/Empty.png,resources/DB.BMP,Door4,0.302180685,-0.016095535,1,0,0,0.9805,optionRight,60,170,1,2,0,2,0,1,,,,,,,,,,,,,,,,,,,,,,,,,,,,,,,,,,,,,,,
,,,,,,,,2023-08-16_08h50.30.168,HF_wild_card,2022.2.4,Win32,59.93407252,63d3fb730f03adf8b4a28a37,64d2fd46c836a06233681665,64dc7f2670a266150a1270ca,,,,,,,ctch,resources/DG.BMP,resources/DB.BMP,Door1,-0.306334372,0.002596054,1,0,0,2.6306,optionLeft,30,200,1,3,0,3,0,1,,,,,,,,,,,,,,,,,,,,,,,,,,,,,,,,,,,,,,,
,,,,,,,,2023-08-16_08h50.30.168,HF_wild_card,2022.2.4,Win32,59.93407252,63d3fb730f03adf8b4a28a37,64d2fd46c836a06233681665,64dc7f2670a266150a1270ca,,,,,,,decisionTrl,resources/DB.BMP,resources/DBN.BMP,Door4,-0.340602285,-0.018172378,1,0,0,0.965,optionLeft,80,280,1,4,0,4,0,1,,,,,,,,,,,,,,,,,,,,,,,,,,,,,,,,,,,,,,,
,,,,,,,,2023-08-16_08h50.30.168,HF_wild_card,2022.2.4,Win32,59.93407252,63d3fb730f03adf8b4a28a37,64d2fd46c836a06233681665,64dc7f2670a266150a1270ca,,,,,,,decisionTrl,resources/DBN.BMP,resources/DY.BMP,WildCard_NonEx,0.381100727,-0.039979232,1,0,0,0.8796,optionRight,45,325,1,5,0,5,0,1,,,,,,,,,,,,,,,,,,,,,,,,,,,,,,,,,,,,,,,
,,,,,,,,2023-08-16_08h50.30.168,HF_wild_card,2022.2.4,Win32,59.93407252,63d3fb730f03adf8b4a28a37,64d2fd46c836a06233681665,64dc7f2670a266150a1270ca,,,,,,,ctch,resources/DR.BMP,resources/DBN.BMP,Door2,-0.35721703,-0.037902388,1,0,0,1.4975,optionLeft,20,345,1,6,0,6,0,1,,,,,,,,,,,,,,,,,,,,,,,,,,,,,,,,,,,,,,,
,,,,,,,,2023-08-16_08h50.30.168,HF_wild_card,2022.2.4,Win32,59.93407252,63d3fb730f03adf8b4a28a37,64d2fd46c836a06233681665,64dc7f2670a266150a1270ca,,,,,,,sngl,resources/DY.BMP,resources/Empty.png,WildCard_NonEx,-0.352024922,-0.087746625,1,0,0,0.7144,optionLeft,55,400,1,7,0,7,0,1,,,,,,,,,,,,,,,,,,,,,,,,,,,,,,,,,,,,,,,
,,,,,,,,2023-08-16_08h50.30.168,HF_wild_card,2022.2.4,Win32,59.93407252,63d3fb730f03adf8b4a28a37,64d2fd46c836a06233681665,64dc7f2670a266150a1270ca,,,,,,,decisionTrl,resources/DG.BMP,resources/DR.BMP,Door2,0.473520249,-0.043094496,1,0,0,1.6477,optionRight,40,440,1,8,0,8,0,1,,,,,,,,,,,,,,,,,,,,,,,,,,,,,,,,,,,,,,,
,,,,,,,,2023-08-16_08h50.30.168,HF_wild_card,2022.2.4,Win32,59.93407252,63d3fb730f03adf8b4a28a37,64d2fd46c836a06233681665,64dc7f2670a266150a1270ca,,,,,,,sngl,resources/Empty.png,resources/DR.BMP,Door2,0.385254413,-0.051401869,1,0,0,0.7473,optionRight,20,460,1,9,0,9,0,1,,,,,,,,,,,,,,,,,,,,,,,,,,,,,,,,,,,,,,,
,,,,,,,,2023-08-16_08h50.30.168,HF_wild_card,2022.2.4,Win32,59.93407252,63d3fb730f03adf8b4a28a37,64d2fd46c836a06233681665,64dc7f2670a266150a1270ca,,,,,,,decisionTrl,resources/DG.BMP,resources/DY.BMP,Door1,-0.31152648,0.002596054,1,0,0,4.3643,optionLeft,30,490,1,10,0,10,0,1,,,,,,,,,,,,,,,,,,,,,,,,,,,,,,,,,,,,,,,
,,,,,,,,2023-08-16_08h50.30.168,HF_wild_card,2022.2.4,Win32,59.93407252,63d3fb730f03adf8b4a28a37,64d2fd46c836a06233681665,64dc7f2670a266150a1270ca,,,,,,,decisionTrl,resources/DR.BMP,resources/DG.BMP,Door2,-0.377985462,0.010903427,1,0,0,1.0635,optionLeft,20,510,1,11,0,11,0,1,,,,,,,,,,,,,,,,,,,,,,,,,,,,,,,,,,,,,,,
,,,,,,,,2023-08-16_08h50.30.168,HF_wild_card,2022.2.4,Win32,59.93407252,63d3fb730f03adf8b4a28a37,64d2fd46c836a06233681665,64dc7f2670a266150a1270ca,,,,,,,sngl,resources/Empty.png,resources/DY.BMP,WildCard_NonEx,0.3894081,-0.030633437,1,0,0,0.6477,optionRight,45,555,1,12,0,12,0,1,,,,,,,,,,,,,,,,,,,,,,,,,,,,,,,,,,,,,,,
,,,,,,,,2023-08-16_08h50.30.168,HF_wild_card,2022.2.4,Win32,59.93407252,63d3fb730f03adf8b4a28a37,64d2fd46c836a06233681665,64dc7f2670a266150a1270ca,,,,,,,decisionTrl,resources/DG.BMP,resources/DR.BMP,Door2,0.398753894,-0.059709242,1,0,0,1.3622,optionRight,40,595,1,13,0,13,0,1,,,,,,,,,,,,,,,,,,,,,,,,,,,,,,,,,,,,,,,
,,,,,,,,2023-08-16_08h50.30.168,HF_wild_card,2022.2.4,Win32,59.93407252,63d3fb730f03adf8b4a28a37,64d2fd46c836a06233681665,64dc7f2670a266150a1270ca,,,,,,,ctch,resources/DR.BMP,resources/DBN.BMP,Door3,0.394600208,0.010903427,1,0,0,1.031,optionRight,70,665,1,14,0,14,0,1,,,,,,,,,,,,,,,,,,,,,,,,,,,,,,,,,,,,,,,
,,,,,,,,2023-08-16_08h50.30.168,HF_wild_card,2022.2.4,Win32,59.93407252,63d3fb730f03adf8b4a28a37,64d2fd46c836a06233681665,64dc7f2670a266150a1270ca,,,,,,,decisionTrl,resources/DR.BMP,resources/DY.BMP,WildCard_NonEx,0.443406023,-0.054517134,1,0,0,1.2975,optionRight,55,720,1,15,0,15,0,1,,,,,,,,,,,,,,,,,,,,,,,,,,,,,,,,,,,,,,,
,,,,,,,,2023-08-16_08h50.30.168,HF_wild_card,2022.2.4,Win32,59.93407252,63d3fb730f03adf8b4a28a37,64d2fd46c836a06233681665,64dc7f2670a266150a1270ca,,,,,,,decisionTrl,resources/DB.BMP,resources/DY.BMP,WildCard_NonEx,0.425752856,-0.066978193,1,0,0,1.248,optionRight,55,775,1,16,0,16,0,1,,,,,,,,,,,,,,,,,,,,,,,,,,,,,,,,,,,,,,,
,,,,,,,,2023-08-16_08h50.30.168,HF_wild_card,2022.2.4,Win32,59.93407252,63d3fb730f03adf8b4a28a37,64d2fd46c836a06233681665,64dc7f2670a266150a1270ca,,,,,,,decisionTrl,resources/DB.BMP,resources/DBN.BMP,Door3,0.438213915,-0.017133956,1,0,0,0.898,optionRight,70,845,1,17,0,17,0,1,,,,,,,,,,,,,,,,,,,,,,,,,,,,,,,,,,,,,,,
,,,,,,,,2023-08-16_08h50.30.168,HF_wild_card,2022.2.4,Win32,59.93407252,63d3fb730f03adf8b4a28a37,64d2fd46c836a06233681665,64dc7f2670a266150a1270ca,,,,,,,decisionTrl,resources/DB.BMP,resources/DBN.BMP,Door3,0.388369678,-0.023364486,1,0,0,0.6156,optionRight,70,915,1,18,0,18,0,1,,,,,,,,,,,,,,,,,,,,,,,,,,,,,,,,,,,,,,,
,,,,,,,,2023-08-16_08h50.30.168,HF_wild_card,2022.2.4,Win32,59.93407252,63d3fb730f03adf8b4a28a37,64d2fd46c836a06233681665,64dc7f2670a266150a1270ca,,,,,,,ctch,resources/DBN.BMP,resources/DR.BMP,Door3,-0.301142264,0.007788162,1,0,0,0.5685,optionLeft,70,985,1,19,0,19,0,1,,,,,,,,,,,,,,,,,,,,,,,,,,,,,,,,,,,,,,,
,,,,,,,,2023-08-16_08h50.30.168,HF_wild_card,2022.2.4,Win32,59.93407252,63d3fb730f03adf8b4a28a37,64d2fd46c836a06233681665,64dc7f2670a266150a1270ca,,,,,,,sngl,resources/Empty.png,resources/DG.BMP,Door1,0.416407061,-0.017133956,1,0,0,0.6691,optionRight,30,1015,1,20,0,20,0,1,,,,,,,,,,,,,,,,,,,,,,,,,,,,,,,,,,,,,,,
,,,,,,,,2023-08-16_08h50.30.168,HF_wild_card,2022.2.4,Win32,59.93407252,63d3fb730f03adf8b4a28a37,64d2fd46c836a06233681665,64dc7f2670a266150a1270ca,,,,,,,decisionTrl,resources/DG.BMP,resources/DR.BMP,Door2,0.33125649,-0.030633437,1,0,0,1.301,optionRight,20,1035,1,21,0,21,0,1,,,,,,,,,,,,,,,,,,,,,,,,,,,,,,,,,,,,,,,
,,,,,,,,2023-08-16_08h50.30.168,HF_wild_card,2022.2.4,Win32,59.93407252,63d3fb730f03adf8b4a28a37,64d2fd46c836a06233681665,64dc7f2670a266150a1270ca,,,,,,,decisionTrl,resources/DG.BMP,resources/DR.BMP,Door1,-0.313603323,-0.029595016,1,0,0,1.2483,optionLeft,30,1065,1,22,0,22,0,1,,,,,,,,,,,,,,,,,,,,,,,,,,,,,,,,,,,,,,,
,,,,,,,,2023-08-16_08h50.30.168,HF_wild_card,2022.2.4,Win32,59.93407252,63d3fb730f03adf8b4a28a37,64d2fd46c836a06233681665,64dc7f2670a266150a1270ca,,,,,,,decisionTrl,resources/DBN.BMP,resources/DB.BMP,Door3,-0.384215992,-0.014018692,1,0,0,0.7027,optionLeft,70,1135,1,23,0,23,0,1,,,,,,,,,,,,,,,,,,,,,,,,,,,,,,,,,,,,,,,
,,,,,,,,2023-08-16_08h50.30.168,HF_wild_card,2022.2.4,Win32,59.93407252,63d3fb730f03adf8b4a28a37,64d2fd46c836a06233681665,64dc7f2670a266150a1270ca,,,,,,,decisionTrl,resources/DR.BMP,resources/DG.BMP,Door2,-0.371754933,-0.043094496,1,0,0,94.996,optionLeft,40,1175,1,24,0,24,0,1,,,,,,,,,,,,,,,,,,,,,,,,,,,,,,,,,,,,,,,
,,,,,,,,2023-08-16_08h50.30.168,HF_wild_card,2022.2.4,Win32,59.93407252,63d3fb730f03adf8b4a28a37,64d2fd46c836a06233681665,64dc7f2670a266150a1270ca,,,,,,,decisionTrl,resources/DR.BMP,resources/DG.BMP,Door2,-0.362409138,-0.035825545,1,0,0,0.9348,optionLeft,20,1195,1,25,0,25,0,1,,,,,,,,,,,,,,,,,,,,,,,,,,,,,,,,,,,,,,,
,,,,,,,,2023-08-16_08h50.30.168,HF_wild_card,2022.2.4,Win32,59.93407252,63d3fb730f03adf8b4a28a37,64d2fd46c836a06233681665,64dc7f2670a266150a1270ca,,,,,,,decisionTrl,resources/DY.BMP,resources/DR.BMP,WildCard_NonEx,-0.364485981,-0.054517134,1,0,0,0.7513,optionLeft,45,1240,1,26,0,26,0,1,,,,,,,,,,,,,,,,,,,,,,,,,,,,,,,,,,,,,,,
,,,,,,,,2023-08-16_08h50.30.168,HF_wild_card,2022.2.4,Win32,59.93407252,63d3fb730f03adf8b4a28a37,64d2fd46c836a06233681665,64dc7f2670a266150a1270ca,,,,,,,decisionTrl,resources/DBN.BMP,resources/DB.BMP,Door3,-0.374870197,-0.018172378,1,0,0,0.728,optionLeft,70,1310,1,27,0,27,0,1,,,,,,,,,,,,,,,,,,,,,,,,,,,,,,,,,,,,,,,
,,,,,,,,2023-08-16_08h50.30.168,HF_wild_card,2022.2.4,Win32,59.93407252,63d3fb730f03adf8b4a28a37,64d2fd46c836a06233681665,64dc7f2670a266150a1270ca,,,,,,,ctch,resources/DB.BMP,resources/DG.BMP,Door4,-0.399792316,-0.052440291,1,0,0,2.3652,optionLeft,80,1390,1,28,0,28,0,1,,,,,,,,,,,,,,,,,,,,,,,,,,,,,,,,,,,,,,,
,,,,,,,,2023-08-16_08h50.30.168,HF_wild_card,2022.2.4,Win32,59.93407252,63d3fb730f03adf8b4a28a37,64d2fd46c836a06233681665,64dc7f2670a266150a1270ca,,,,,,,decisionTrl,resources/DY.BMP,resources/DB.BMP,Door4,0.390446521,-0.04517134,1,0,0,0.7967,optionRight,80,1470,1,29,0,29,0,1,,,,,,,,,,,,,,,,,,,,,,,,,,,,,,,,,,,,,,,
,,,,,,,,2023-08-16_08h50.30.168,HF_wild_card,2022.2.4,Win32,59.93407252,63d3fb730f03adf8b4a28a37,64d2fd46c836a06233681665,64dc7f2670a266150a1270ca,,,,,,,sngl,resources/Empty.png,resources/DY.BMP,WildCard_NonEx,0.430944964,-0.063862928,1,0,0,0.8798,optionRight,55,1525,1,30,0,30,0,1,,,,,,,,,,,,,,,,,,,,,,,,,,,,,,,,,,,,,,,
,,,,,,,,2023-08-16_08h50.30.168,HF_wild_card,2022.2.4,Win32,59.93407252,63d3fb730f03adf8b4a28a37,64d2fd46c836a06233681665,64dc7f2670a266150a1270ca,,,,,,,decisionTrl,resources/DBN.BMP,resources/DB.BMP,Door4,0.388369678,-0.042056075,1,0,0,2.131,optionRight,80,1605,1,31,0,31,0,1,,,,,,,,,,,,,,,,,,,,,,,,,,,,,,,,,,,,,,,
,,,,,,,,2023-08-16_08h50.30.168,HF_wild_card,2022.2.4,Win32,59.93407252,63d3fb730f03adf8b4a28a37,64d2fd46c836a06233681665,64dc7f2670a266150a1270ca,,,,,,,decisionTrl,resources/DBN.BMP,resources/DB.BMP,Door4,0.425752856,-0.047248183,1,0,0,1.5481,optionRight,60,1665,1,32,0,32,0,1,,,,,,,,,,,,,,,,,,,,,,,,,,,,,,,,,,,,,,,
,,,,,,,,2023-08-16_08h50.30.168,HF_wild_card,2022.2.4,Win32,59.93407252,63d3fb730f03adf8b4a28a37,64d2fd46c836a06233681665,64dc7f2670a266150a1270ca,,,,,,,ctch,resources/DG.BMP,resources/DB.BMP,Door4,0.398753894,-0.052440291,1,0,0,0.9161,optionRight,60,1725,1,33,0,33,0,1,,,,,,,,,,,,,,,,,,,,,,,,,,,,,,,,,,,,,,,
,,,,,,,,2023-08-16_08h50.30.168,HF_wild_card,2022.2.4,Win32,59.93407252,63d3fb730f03adf8b4a28a37,64d2fd46c836a06233681665,64dc7f2670a266150a1270ca,,,,,,,decisionTrl,resources/DB.BMP,resources/DBN.BMP,Door3,0.387331256,-0.009865005,1,0,0,0.6635,optionRight,70,1795,1,34,0,34,0,1,,,,,,,,,,,,,,,,,,,,,,,,,,,,,,,,,,,,,,,
,,,,,,,,2023-08-16_08h50.30.168,HF_wild_card,2022.2.4,Win32,59.93407252,63d3fb730f03adf8b4a28a37,64d2fd46c836a06233681665,64dc7f2670a266150a1270ca,,,,,,,ctch,resources/DBN.BMP,resources/DR.BMP,Door3,-0.40290758,-0.010903427,1,0,0,0.9624,optionLeft,70,1865,1,35,0,35,0,1,,,,,,,,,,,,,,,,,,,,,,,,,,,,,,,,,,,,,,,
,,,,,,,,2023-08-16_08h50.30.168,HF_wild_card,2022.2.4,Win32,59.93407252,63d3fb730f03adf8b4a28a37,64d2fd46c836a06233681665,64dc7f2670a266150a1270ca,,,,,,,sngl,resources/DR.BMP,resources/Empty.png,Door2,-0.393561786,-0.053478712,1,0,0,1.0482,optionLeft,40,1905,1,36,0,36,0,1,,,,,,,,,,,,,,,,,,,,,,,,,,,,,,,,,,,,,,,
,,,,,,,,2023-08-16_08h50.30.168,HF_wild_card,2022.2.4,Win32,59.93407252,63d3fb730f03adf8b4a28a37,64d2fd46c836a06233681665,64dc7f2670a266150a1270ca,,,,,,,ctch,resources/DB.BMP,resources/DG.BMP,Door4,-0.413291796,-0.065939772,1,0,0,1.1943,optionLeft,80,1985,1,37,0,37,0,1,,,,,,,,,,,,,,,,,,,,,,,,,,,,,,,,,,,,,,,
,,,,,,,,2023-08-16_08h50.30.168,HF_wild_card,2022.2.4,Win32,59.93407252,63d3fb730f03adf8b4a28a37,64d2fd46c836a06233681665,64dc7f2670a266150a1270ca,,,,,,,sngl,resources/DY.BMP,resources/Empty.png,WildCard_NonEx,-0.372793354,-0.050363448,1,0,0,0.7943,optionLeft,45,2030,1,38,0,38,0,1,,,,,,,,,,,,,,,,,,,,,,,,,,,,,,,,,,,,,,,
,,,,,,,,2023-08-16_08h50.30.168,HF_wild_card,2022.2.4,Win32,59.93407252,63d3fb730f03adf8b4a28a37,64d2fd46c836a06233681665,64dc7f2670a266150a1270ca,,,,,,,sngl,resources/DG.BMP,resources/Empty.png,Door1,-0.361370717,-0.050363448,1,0,0,0.7309,optionLeft,30,2060,1,39,0,39,0,1,,,,,,,,,,,,,,,,,,,,,,,,,,,,,,,,,,,,,,,
,,,,,,,,2023-08-16_08h50.30.168,HF_wild_card,2022.2.4,Win32,59.93407252,63d3fb730f03adf8b4a28a37,64d2fd46c836a06233681665,64dc7f2670a266150a1270ca,,,,,,,sngl,resources/DB.BMP,resources/Empty.png,Door4,-0.372793354,-0.060747664,1,0,0,0.5793,optionLeft,80,2140,1,40,0,40,0,1,,,,,,,,,,,,,,,,,,,,,,,,,,,,,,,,,,,,,,,
,,,,,,,,2023-08-16_08h50.30.168,HF_wild_card,2022.2.4,Win32,59.93407252,63d3fb730f03adf8b4a28a37,64d2fd46c836a06233681665,64dc7f2670a266150a1270ca,,,,,,,sngl,resources/DBN.BMP,resources/Empty.png,Door3,-0.37694704,-0.044132918,1,0,0,0.6454,optionLeft,70,2210,1,41,0,41,0,1,,,,,,,,,,,,,,,,,,,,,,,,,,,,,,,,,,,,,,,
,,,,,,,,2023-08-16_08h50.30.168,HF_wild_card,2022.2.4,Win32,59.93407252,63d3fb730f03adf8b4a28a37,64d2fd46c836a06233681665,64dc7f2670a266150a1270ca,,,,,,,decisionTrl,resources/DR.BMP,resources/DG.BMP,Door2,-0.463136033,-0.057632399,1,0,0,1.0624,optionLeft,20,2230,1,42,0,42,0,1,,,,,,,,,,,,,,,,,,,,,,,,,,,,,,,,,,,,,,,
,,,,,,,,2023-08-16_08h50.30.168,HF_wild_card,2022.2.4,Win32,59.93407252,63d3fb730f03adf8b4a28a37,64d2fd46c836a06233681665,64dc7f2670a266150a1270ca,,,,,,,sngl,resources/Empty.png,resources/DBN.BMP,Door3,0.372793354,-0.018172378,1,0,0,0.8617,optionRight,70,2300,1,43,0,43,0,1,,,,,,,,,,,,,,,,,,,,,,,,,,,,,,,,,,,,,,,
,,,,,,,,2023-08-16_08h50.30.168,HF_wild_card,2022.2.4,Win32,59.93407252,63d3fb730f03adf8b4a28a37,64d2fd46c836a06233681665,64dc7f2670a266150a1270ca,,,,,,,,,,,,,,,,,,,,,,,,,,0,0,0,0,1,,,,,,,,,,,,,,,,,,,,,,,,,,,,,,,,,,
,,,,,,,,2023-08-16_08h50.30.168,HF_wild_card,2022.2.4,Win32,59.93407252,63d3fb730f03adf8b4a28a37,64d2fd46c836a06233681665,64dc7f2670a266150a1270ca,,,,,,,ctch,resources/DG.BMP,resources/DB.BMP,Door1,-0.336448598,-0.016095535,1,0,0,2.5265,optionLeft,30,2330,2,0,0,0,0,1,,,,,,,,,,,,,,,,,,,,,,,,,,,,,,,,,,,,,,,
,,,,,,,,2023-08-16_08h50.30.168,HF_wild_card,2022.2.4,Win32,59.93407252,63d3fb730f03adf8b4a28a37,64d2fd46c836a06233681665,64dc7f2670a266150a1270ca,,,,,,,sngl,resources/DG.BMP,resources/Empty.png,Door1,-0.356178609,-0.028556594,1,0,0,0.8448,optionLeft,30,2360,2,1,0,1,0,1,,,,,,,,,,,,,,,,,,,,,,,,,,,,,,,,,,,,,,,
,,,,,,,,2023-08-16_08h50.30.168,HF_wild_card,2022.2.4,Win32,59.93407252,63d3fb730f03adf8b4a28a37,64d2fd46c836a06233681665,64dc7f2670a266150a1270ca,,,,,,,decisionTrl,resources/DB.BMP,resources/DBN.BMP,Door3,0.422637591,0.000519211,1,0,0,0.9449,optionRight,70,2430,2,2,0,2,0,1,,,,,,,,,,,,,,,,,,,,,,,,,,,,,,,,,,,,,,,
,,,,,,,,2023-08-16_08h50.30.168,HF_wild_card,2022.2.4,Win32,59.93407252,63d3fb730f03adf8b4a28a37,64d2fd46c836a06233681665,64dc7f2670a266150a1270ca,,,,,,,decisionTrl,resources/DG.BMP,resources/DR.BMP,Door2,0.372793354,-0.070093458,1,0,0,1.0468,optionRight,40,2470,2,3,0,3,0,1,,,,,,,,,,,,,,,,,,,,,,,,,,,,,,,,,,,,,,,
,,,,,,,,2023-08-16_08h50.30.168,HF_wild_card,2022.2.4,Win32,59.93407252,63d3fb730f03adf8b4a28a37,64d2fd46c836a06233681665,64dc7f2670a266150a1270ca,,,,,,,sngl,resources/DY.BMP,resources/Empty.png,WildCard_NonEx,-0.321910696,-0.063862928,1,0,0,0.7138,optionLeft,45,2515,2,4,0,4,0,1,,,,,,,,,,,,,,,,,,,,,,,,,,,,,,,,,,,,,,,
,,,,,,,,2023-08-16_08h50.30.168,HF_wild_card,2022.2.4,Win32,59.93407252,63d3fb730f03adf8b4a28a37,64d2fd46c836a06233681665,64dc7f2670a266150a1270ca,,,,,,,decisionTrl,resources/DG.BMP,resources/DR.BMP,Door2,0.413291796,-0.06490135,1,0,0,1.9978,optionRight,20,2535,2,5,0,5,0,1,,,,,,,,,,,,,,,,,,,,,,,,,,,,,,,,,,,,,,,
,,,,,,,,2023-08-16_08h50.30.168,HF_wild_card,2022.2.4,Win32,59.93407252,63d3fb730f03adf8b4a28a37,64d2fd46c836a06233681665,64dc7f2670a266150a1270ca,,,,,,,decisionTrl,resources/DB.BMP,resources/DY.BMP,WildCard_NonEx,0.407061267,-0.070093458,1,0,0,2.2013,optionRight,55,2590,2,6,0,6,0,1,,,,,,,,,,,,,,,,,,,,,,,,,,,,,,,,,,,,,,,
,,,,,,,,2023-08-16_08h50.30.168,HF_wild_card,2022.2.4,Win32,59.93407252,63d3fb730f03adf8b4a28a37,64d2fd46c836a06233681665,64dc7f2670a266150a1270ca,,,,,,,sngl,resources/Empty.png,resources/DY.BMP,WildCard_NonEx,0.45482866,-0.052440291,1,0,0,0.731,optionRight,55,2645,2,7,0,7,0,1,,,,,,,,,,,,,,,,,,,,,,,,,,,,,,,,,,,,,,,
,,,,,,,,2023-08-16_08h50.30.168,HF_wild_card,2022.2.4,Win32,59.93407252,63d3fb730f03adf8b4a28a37,64d2fd46c836a06233681665,64dc7f2670a266150a1270ca,,,,,,,decisionTrl,resources/DY.BMP,resources/DB.BMP,WildCard_NonEx,-0.361370717,-0.091900312,1,0,0,0.7292,optionLeft,55,2700,2,8,0,8,0,1,,,,,,,,,,,,,,,,,,,,,,,,,,,,,,,,,,,,,,,
,,,,,,,,2023-08-16_08h50.30.168,HF_wild_card,2022.2.4,Win32,59.93407252,63d3fb730f03adf8b4a28a37,64d2fd46c836a06233681665,64dc7f2670a266150a1270ca,,,,,,,decisionTrl,resources/DG.BMP,resources/DR.BMP,Door1,-0.398753894,-0.061786085,1,0,0,1.1142,optionLeft,30,2730,2,9,0,9,0,1,,,,,,,,,,,,,,,,,,,,,,,,,,,,,,,,,,,,,,,
,,,,,,,,2023-08-16_08h50.30.168,HF_wild_card,2022.2.4,Win32,59.93407252,63d3fb730f03adf8b4a28a37,64d2fd46c836a06233681665,64dc7f2670a266150a1270ca,,,,,,,sngl,resources/DR.BMP,resources/Empty.png,Door2,-0.46728972,-0.095015576,1,0,0,0.5978,optionLeft,20,2750,2,10,0,10,0,1,,,,,,,,,,,,,,,,,,,,,,,,,,,,,,,,,,,,,,,
,,,,,,,,2023-08-16_08h50.30.168,HF_wild_card,2022.2.4,Win32,59.93407252,63d3fb730f03adf8b4a28a37,64d2fd46c836a06233681665,64dc7f2670a266150a1270ca,,,,,,,decisionTrl,resources/DR.BMP,resources/DY.BMP,WildCard_NonEx,0.433021807,-0.072170301,1,0,0,1.2123,optionRight,45,2795,2,11,0,11,0,1,,,,,,,,,,,,,,,,,,,,,,,,,,,,,,,,,,,,,,,
,,,,,,,,2023-08-16_08h50.30.168,HF_wild_card,2022.2.4,Win32,59.93407252,63d3fb730f03adf8b4a28a37,64d2fd46c836a06233681665,64dc7f2670a266150a1270ca,,,,,,,decisionTrl,resources/DY.BMP,resources/DG.BMP,WildCard_NonEx,-0.386292835,-0.046209761,1,0,0,1.012,optionLeft,55,2850,2,12,0,12,0,1,,,,,,,,,,,,,,,,,,,,,,,,,,,,,,,,,,,,,,,
,,,,,,,,2023-08-16_08h50.30.168,HF_wild_card,2022.2.4,Win32,59.93407252,63d3fb730f03adf8b4a28a37,64d2fd46c836a06233681665,64dc7f2670a266150a1270ca,,,,,,,decisionTrl,resources/DB.BMP,resources/DBN.BMP,Door3,0.417445483,-0.015057113,1,0,0,1.2654,optionRight,70,2920,2,13,0,13,0,1,,,,,,,,,,,,,,,,,,,,,,,,,,,,,,,,,,,,,,,
,,,,,,,,2023-08-16_08h50.30.168,HF_wild_card,2022.2.4,Win32,59.93407252,63d3fb730f03adf8b4a28a37,64d2fd46c836a06233681665,64dc7f2670a266150a1270ca,,,,,,,decisionTrl,resources/DY.BMP,resources/DR.BMP,WildCard_NonEx,-0.367601246,-0.054517134,1,0,0,1.2954,optionLeft,55,2975,2,14,0,14,0,1,,,,,,,,,,,,,,,,,,,,,,,,,,,,,,,,,,,,,,,
,,,,,,,,2023-08-16_08h50.30.168,HF_wild_card,2022.2.4,Win32,59.93407252,63d3fb730f03adf8b4a28a37,64d2fd46c836a06233681665,64dc7f2670a266150a1270ca,,,,,,,decisionTrl,resources/DBN.BMP,resources/DB.BMP,Door3,-0.385254413,-0.001557632,1,0,0,0.9462,optionLeft,70,3045,2,15,0,15,0,1,,,,,,,,,,,,,,,,,,,,,,,,,,,,,,,,,,,,,,,
,,,,,,,,2023-08-16_08h50.30.168,HF_wild_card,2022.2.4,Win32,59.93407252,63d3fb730f03adf8b4a28a37,64d2fd46c836a06233681665,64dc7f2670a266150a1270ca,,,,,,,ctch,resources/DG.BMP,resources/DB.BMP,Door4,0.375908619,-0.04517134,1,0,0,1.8116,optionRight,80,3125,2,16,0,16,0,1,,,,,,,,,,,,,,,,,,,,,,,,,,,,,,,,,,,,,,,
,,,,,,,,2023-08-16_08h50.30.168,HF_wild_card,2022.2.4,Win32,59.93407252,63d3fb730f03adf8b4a28a37,64d2fd46c836a06233681665,64dc7f2670a266150a1270ca,,,,,,,sngl,resources/DY.BMP,resources/Empty.png,WildCard_NonEx,-0.372793354,-0.055555556,1,0,0,0.6621,optionLeft,55,3180,2,17,0,17,0,1,,,,,,,,,,,,,,,,,,,,,,,,,,,,,,,,,,,,,,,
,,,,,,,,2023-08-16_08h50.30.168,HF_wild_card,2022.2.4,Win32,59.93407252,63d3fb730f03adf8b4a28a37,64d2fd46c836a06233681665,64dc7f2670a266150a1270ca,,,,,,,sngl,resources/Empty.png,resources/DB.BMP,Door4,0.400830737,-0.052440291,1,0,0,0.7476,optionRight,80,3260,2,18,0,18,0,1,,,,,,,,,,,,,,,,,,,,,,,,,,,,,,,,,,,,,,,
,,,,,,,,2023-08-16_08h50.30.168,HF_wild_card,2022.2.4,Win32,59.93407252,63d3fb730f03adf8b4a28a37,64d2fd46c836a06233681665,64dc7f2670a266150a1270ca,,,,,,,decisionTrl,resources/DBN.BMP,resources/DB.BMP,Door4,0.364485981,-0.049325026,1,0,0,0.8815,optionRight,80,3340,2,19,0,19,0,1,,,,,,,,,,,,,,,,,,,,,,,,,,,,,,,,,,,,,,,
,,,,,,,,2023-08-16_08h50.30.168,HF_wild_card,2022.2.4,Win32,59.93407252,63d3fb730f03adf8b4a28a37,64d2fd46c836a06233681665,64dc7f2670a266150a1270ca,,,,,,,ctch,resources/DR.BMP,resources/DBN.BMP,Door3,0.399792316,-0.023364486,1,0,0,1.9642,optionRight,70,3410,2,20,0,20,0,1,,,,,,,,,,,,,,,,,,,,,,,,,,,,,,,,,,,,,,,
,,,,,,,,2023-08-16_08h50.30.168,HF_wild_card,2022.2.4,Win32,59.93407252,63d3fb730f03adf8b4a28a37,64d2fd46c836a06233681665,64dc7f2670a266150a1270ca,,,,,,,sngl,resources/Empty.png,resources/DY.BMP,WildCard_NonEx,0.375908619,-0.057632399,1,0,0,0.8012,optionRight,45,3455,2,21,0,21,0,1,,,,,,,,,,,,,,,,,,,,,,,,,,,,,,,,,,,,,,,
,,,,,,,,2023-08-16_08h50.30.168,HF_wild_card,2022.2.4,Win32,59.93407252,63d3fb730f03adf8b4a28a37,64d2fd46c836a06233681665,64dc7f2670a266150a1270ca,,,,,,,decisionTrl,resources/DG.BMP,resources/DR.BMP,Door1,-0.382139148,-0.049325026,1,0,0,2.0809,optionLeft,30,3485,2,22,0,22,0,1,,,,,,,,,,,,,,,,,,,,,,,,,,,,,,,,,,,,,,,
,,,,,,,,2023-08-16_08h50.30.168,HF_wild_card,2022.2.4,Win32,59.93407252,63d3fb730f03adf8b4a28a37,64d2fd46c836a06233681665,64dc7f2670a266150a1270ca,,,,,,,sngl,resources/DBN.BMP,resources/Empty.png,Door3,-0.37694704,-0.046209761,1,0,0,0.7975,optionLeft,70,3555,2,23,0,23,0,1,,,,,,,,,,,,,,,,,,,,,,,,,,,,,,,,,,,,,,,
,,,,,,,,2023-08-16_08h50.30.168,HF_wild_card,2022.2.4,Win32,59.93407252,63d3fb730f03adf8b4a28a37,64d2fd46c836a06233681665,64dc7f2670a266150a1270ca,,,,,,,sngl,resources/Empty.png,resources/DG.BMP,Door1,0.367601246,-0.033748702,1,0,0,0.7335,optionRight,30,3585,2,24,0,24,0,1,,,,,,,,,,,,,,,,,,,,,,,,,,,,,,,,,,,,,,,
,,,,,,,,2023-08-16_08h50.30.168,HF_wild_card,2022.2.4,Win32,59.93407252,63d3fb730f03adf8b4a28a37,64d2fd46c836a06233681665,64dc7f2670a266150a1270ca,,,,,,,decisionTrl,resources/DY.BMP,resources/DBN.BMP,Door3,0.403946002,-0.014018692,1,0,0,0.6458,optionRight,70,3655,2,25,0,25,0,1,,,,,,,,,,,,,,,,,,,,,,,,,,,,,,,,,,,,,,,
,,,,,,,,2023-08-16_08h50.30.168,HF_wild_card,2022.2.4,Win32,59.93407252,63d3fb730f03adf8b4a28a37,64d2fd46c836a06233681665,64dc7f2670a266150a1270ca,,,,,,,ctch,resources/DBN.BMP,resources/DR.BMP,Door3,-0.334371755,0.0192108,1,0,0,0.7985,optionLeft,70,3725,2,26,0,26,0,1,,,,,,,,,,,,,,,,,,,,,,,,,,,,,,,,,,,,,,,
,,,,,,,,2023-08-16_08h50.30.168,HF_wild_card,2022.2.4,Win32,59.93407252,63d3fb730f03adf8b4a28a37,64d2fd46c836a06233681665,64dc7f2670a266150a1270ca,,,,,,,decisionTrl,resources/DB.BMP,resources/DBN.BMP,Door4,-0.393561786,-0.05867082,1,0,0,0.6304,optionLeft,80,3805,2,27,0,27,0,1,,,,,,,,,,,,,,,,,,,,,,,,,,,,,,,,,,,,,,,
,,,,,,,,2023-08-16_08h50.30.168,HF_wild_card,2022.2.4,Win32,59.93407252,63d3fb730f03adf8b4a28a37,64d2fd46c836a06233681665,64dc7f2670a266150a1270ca,,,,,,,sngl,resources/DB.BMP,resources/Empty.png,Door4,-0.382139148,-0.050363448,1,0,0,0.6147,optionLeft,60,3865,2,28,0,28,0,1,,,,,,,,,,,,,,,,,,,,,,,,,,,,,,,,,,,,,,,
,,,,,,,,2023-08-16_08h50.30.168,HF_wild_card,2022.2.4,Win32,59.93407252,63d3fb730f03adf8b4a28a37,64d2fd46c836a06233681665,64dc7f2670a266150a1270ca,,,,,,,ctch,resources/DB.BMP,resources/DG.BMP,Door4,-0.388369678,-0.063862928,1,0,0,0.6645,optionLeft,80,3945,2,29,0,29,0,1,,,,,,,,,,,,,,,,,,,,,,,,,,,,,,,,,,,,,,,
,,,,,,,,2023-08-16_08h50.30.168,HF_wild_card,2022.2.4,Win32,59.93407252,63d3fb730f03adf8b4a28a37,64d2fd46c836a06233681665,64dc7f2670a266150a1270ca,,,,,,,sngl,resources/Empty.png,resources/DBN.BMP,Door3,0.396677051,-0.027518172,1,0,0,0.7682,optionRight,70,4015,2,30,0,30,0,1,,,,,,,,,,,,,,,,,,,,,,,,,,,,,,,,,,,,,,,
,,,,,,,,2023-08-16_08h50.30.168,HF_wild_card,2022.2.4,Win32,59.93407252,63d3fb730f03adf8b4a28a37,64d2fd46c836a06233681665,64dc7f2670a266150a1270ca,,,,,,,decisionTrl,resources/DR.BMP,resources/DG.BMP,Door1,0.41536864,-0.03894081,1,0,0,2.9488,optionRight,30,4045,2,31,0,31,0,1,,,,,,,,,,,,,,,,,,,,,,,,,,,,,,,,,,,,,,,
,,,,,,,,2023-08-16_08h50.30.168,HF_wild_card,2022.2.4,Win32,59.93407252,63d3fb730f03adf8b4a28a37,64d2fd46c836a06233681665,64dc7f2670a266150a1270ca,,,,,,,decisionTrl,resources/DBN.BMP,resources/DB.BMP,Door3,-0.368639668,-0.016095535,1,0,0,1.0982,optionLeft,70,4115,2,32,0,32,0,1,,,,,,,,,,,,,,,,,,,,,,,,,,,,,,,,,,,,,,,
,,,,,,,,2023-08-16_08h50.30.168,HF_wild_card,2022.2.4,Win32,59.93407252,63d3fb730f03adf8b4a28a37,64d2fd46c836a06233681665,64dc7f2670a266150a1270ca,,,,,,,ctch,resources/DR.BMP,resources/DBN.BMP,Door3,0.404984424,-0.004672897,1,0,0,0.6482,optionRight,70,4185,2,33,0,33,0,1,,,,,,,,,,,,,,,,,,,,,,,,,,,,,,,,,,,,,,,
,,,,,,,,2023-08-16_08h50.30.168,HF_wild_card,2022.2.4,Win32,59.93407252,63d3fb730f03adf8b4a28a37,64d2fd46c836a06233681665,64dc7f2670a266150a1270ca,,,,,,,ctch,resources/DB.BMP,resources/DG.BMP,Door4,-0.338525441,-0.054517134,1,0,0,0.6308,optionLeft,80,4265,2,34,0,34,0,1,,,,,,,,,,,,,,,,,,,,,,,,,,,,,,,,,,,,,,,
,,,,,,,,2023-08-16_08h50.30.168,HF_wild_card,2022.2.4,Win32,59.93407252,63d3fb730f03adf8b4a28a37,64d2fd46c836a06233681665,64dc7f2670a266150a1270ca,,,,,,,sngl,resources/Empty.png,resources/DR.BMP,Door2,0.366562825,-0.049325026,1,0,0,0.7428,optionRight,40,4305,2,35,0,35,0,1,,,,,,,,,,,,,,,,,,,,,,,,,,,,,,,,,,,,,,,
,,,,,,,,2023-08-16_08h50.30.168,HF_wild_card,2022.2.4,Win32,59.93407252,63d3fb730f03adf8b4a28a37,64d2fd46c836a06233681665,64dc7f2670a266150a1270ca,,,,,,,decisionTrl,resources/DR.BMP,resources/DG.BMP,Door2,-0.400830737,-0.062824507,1,0,0,1.9313,optionLeft,40,4345,2,36,0,36,0,1,,,,,,,,,,,,,,,,,,,,,,,,,,,,,,,,,,,,,,,
,,,,,,,,2023-08-16_08h50.30.168,HF_wild_card,2022.2.4,Win32,59.93407252,63d3fb730f03adf8b4a28a37,64d2fd46c836a06233681665,64dc7f2670a266150a1270ca,,,,,,,decisionTrl,resources/DBN.BMP,resources/DB.BMP,Door4,0.374870197,-0.03894081,1,0,0,1.3012,optionRight,60,4405,2,37,0,37,0,1,,,,,,,,,,,,,,,,,,,,,,,,,,,,,,,,,,,,,,,
,,,,,,,,2023-08-16_08h50.30.168,HF_wild_card,2022.2.4,Win32,59.93407252,63d3fb730f03adf8b4a28a37,64d2fd46c836a06233681665,64dc7f2670a266150a1270ca,,,,,,,ctch,resources/DBN.BMP,resources/DR.BMP,Door3,-0.395638629,-0.015057113,1,0,0,0.8176,optionLeft,70,4475,2,38,0,38,0,1,,,,,,,,,,,,,,,,,,,,,,,,,,,,,,,,,,,,,,,
,,,,,,,,2023-08-16_08h50.30.168,HF_wild_card,2022.2.4,Win32,59.93407252,63d3fb730f03adf8b4a28a37,64d2fd46c836a06233681665,64dc7f2670a266150a1270ca,,,,,,,decisionTrl,resources/DR.BMP,resources/DG.BMP,Door2,-0.377985462,-0.053478712,1,0,0,1.4093,optionLeft,40,4515,2,39,0,39,0,1,,,,,,,,,,,,,,,,,,,,,,,,,,,,,,,,,,,,,,,
,,,,,,,,2023-08-16_08h50.30.168,HF_wild_card,2022.2.4,Win32,59.93407252,63d3fb730f03adf8b4a28a37,64d2fd46c836a06233681665,64dc7f2670a266150a1270ca,,,,,,,decisionTrl,resources/DG.BMP,resources/DY.BMP,WildCard_NonEx,0.401869159,-0.037902388,1,0,0,2.602,optionRight,45,4560,2,40,0,40,0,1,,,,,,,,,,,,,,,,,,,,,,,,,,,,,,,,,,,,,,,
,,,,,,,,2023-08-16_08h50.30.168,HF_wild_card,2022.2.4,Win32,59.93407252,63d3fb730f03adf8b4a28a37,64d2fd46c836a06233681665,64dc7f2670a266150a1270ca,,,,,,,decisionTrl,resources/DR.BMP,resources/DG.BMP,Door1,0.41536864,-0.03271028,1,0,0,1.3645,optionRight,30,4590,2,41,0,41,0,1,,,,,,,,,,,,,,,,,,,,,,,,,,,,,,,,,,,,,,,
,,,,,,,,2023-08-16_08h50.30.168,HF_wild_card,2022.2.4,Win32,59.93407252,63d3fb730f03adf8b4a28a37,64d2fd46c836a06233681665,64dc7f2670a266150a1270ca,,,,,,,decisionTrl,resources/DBN.BMP,resources/DY.BMP,Door3,-0.394600208,-0.014018692,1,0,0,0.898,optionLeft,70,4660,2,42,0,42,0,1,,,,,,,,,,,,,,,,,,,,,,,,,,,,,,,,,,,,,,,
,,,,,,,,2023-08-16_08h50.30.168,HF_wild_card,2022.2.4,Win32,59.93407252,63d3fb730f03adf8b4a28a37,64d2fd46c836a06233681665,64dc7f2670a266150a1270ca,,,,,,,decisionTrl,resources/DB.BMP,resources/DBN.BMP,Door4,-0.394600208,-0.066978193,1,0,0,0.8819,optionLeft,60,4720,2,43,0,43,0,1,,,,,,,,,,,,,,,,,,,,,,,,,,,,,,,,,,,,,,,
,,,,,,,,2023-08-16_08h50.30.168,HF_wild_card,2022.2.4,Win32,59.93407252,63d3fb730f03adf8b4a28a37,64d2fd46c836a06233681665,64dc7f2670a266150a1270ca,,,,,,,,,,,,,,,,,,,,,,,,,,1,0,1,0,1,,,,,,,,,,,,,,,,,,,,,,,,,,,,,,,,,,
,,,,,,,,2023-08-16_08h50.30.168,HF_wild_card,2022.2.4,Win32,59.93407252,63d3fb730f03adf8b4a28a37,64d2fd46c836a06233681665,64dc7f2670a266150a1270ca,,,,,,,sngl,resources/DY.BMP,resources/Empty.png,WildCard_NonEx,-0.377985462,-0.024402908,1,0,0,0.722,optionLeft,45,4765,3,0,0,0,0,1,,,,,,,,,,,,,,,,,,,,,,,,,,,,,,,,,,,,,,,
,,,,,,,,2023-08-16_08h50.30.168,HF_wild_card,2022.2.4,Win32,59.93407252,63d3fb730f03adf8b4a28a37,64d2fd46c836a06233681665,64dc7f2670a266150a1270ca,,,,,,,decisionTrl,resources/DR.BMP,resources/DY.BMP,WildCard_NonEx,0.3894081,-0.06490135,1,0,0,0.868,optionRight,45,4810,3,1,0,1,0,1,,,,,,,,,,,,,,,,,,,,,,,,,,,,,,,,,,,,,,,
,,,,,,,,2023-08-16_08h50.30.168,HF_wild_card,2022.2.4,Win32,59.93407252,63d3fb730f03adf8b4a28a37,64d2fd46c836a06233681665,64dc7f2670a266150a1270ca,,,,,,,sngl,resources/DR.BMP,resources/Empty.png,Door2,-0.360332295,-0.020249221,1,0,0,0.6637,optionLeft,40,4850,3,2,0,2,0,1,,,,,,,,,,,,,,,,,,,,,,,,,,,,,,,,,,,,,,,
,,,,,,,,2023-08-16_08h50.30.168,HF_wild_card,2022.2.4,Win32,59.93407252,63d3fb730f03adf8b4a28a37,64d2fd46c836a06233681665,64dc7f2670a266150a1270ca,,,,,,,decisionTrl,resources/DBN.BMP,resources/DB.BMP,Door3,-0.322949117,0.020249221,1,0,0,0.6821,optionLeft,70,4920,3,3,0,3,0,1,,,,,,,,,,,,,,,,,,,,,,,,,,,,,,,,,,,,,,,
,,,,,,,,2023-08-16_08h50.30.168,HF_wild_card,2022.2.4,Win32,59.93407252,63d3fb730f03adf8b4a28a37,64d2fd46c836a06233681665,64dc7f2670a266150a1270ca,,,,,,,sngl,resources/DB.BMP,resources/Empty.png,Door4,-0.334371755,-0.068016615,1,0,0,0.578,optionLeft,80,5000,3,4,0,4,0,1,,,,,,,,,,,,,,,,,,,,,,,,,,,,,,,,,,,,,,,
,,,,,,,,2023-08-16_08h50.30.168,HF_wild_card,2022.2.4,Win32,59.93407252,63d3fb730f03adf8b4a28a37,64d2fd46c836a06233681665,64dc7f2670a266150a1270ca,,,,,,,sngl,resources/DG.BMP,resources/Empty.png,Door1,-0.345794393,-0.055555556,1,0,0,0.6148,optionLeft,30,5030,3,5,0,5,0,1,,,,,,,,,,,,,,,,,,,,,,,,,,,,,,,,,,,,,,,
,,,,,,,,2023-08-16_08h50.30.168,HF_wild_card,2022.2.4,Win32,59.93407252,63d3fb730f03adf8b4a28a37,64d2fd46c836a06233681665,64dc7f2670a266150a1270ca,,,,,,,decisionTrl,resources/DY.BMP,resources/DG.BMP,WildCard_NonEx,-0.377985462,-0.048286604,1,0,0,1.2978,optionLeft,45,5075,3,6,0,6,0,1,,,,,,,,,,,,,,,,,,,,,,,,,,,,,,,,,,,,,,,
,,,,,,,,2023-08-16_08h50.30.168,HF_wild_card,2022.2.4,Win32,59.93407252,63d3fb730f03adf8b4a28a37,64d2fd46c836a06233681665,64dc7f2670a266150a1270ca,,,,,,,decisionTrl,resources/DB.BMP,resources/DBN.BMP,Door3,0.386292835,0.007788162,1,0,0,1.4147,optionRight,70,5145,3,7,0,7,0,1,,,,,,,,,,,,,,,,,,,,,,,,,,,,,,,,,,,,,,,
,,,,,,,,2023-08-16_08h50.30.168,HF_wild_card,2022.2.4,Win32,59.93407252,63d3fb730f03adf8b4a28a37,64d2fd46c836a06233681665,64dc7f2670a266150a1270ca,,,,,,,ctch,resources/DR.BMP,resources/DBN.BMP,Door3,0.437175493,-0.026479751,1,0,0,0.8669,optionRight,70,5215,3,8,0,8,0,1,,,,,,,,,,,,,,,,,,,,,,,,,,,,,,,,,,,,,,,
,,,,,,,,2023-08-16_08h50.30.168,HF_wild_card,2022.2.4,Win32,59.93407252,63d3fb730f03adf8b4a28a37,64d2fd46c836a06233681665,64dc7f2670a266150a1270ca,,,,,,,sngl,resources/DY.BMP,resources/Empty.png,WildCard_NonEx,-0.388369678,-0.052440291,1,0,0,0.678,optionLeft,55,5270,3,9,0,9,0,1,,,,,,,,,,,,,,,,,,,,,,,,,,,,,,,,,,,,,,,
,,,,,,,,2023-08-16_08h50.30.168,HF_wild_card,2022.2.4,Win32,59.93407252,63d3fb730f03adf8b4a28a37,64d2fd46c836a06233681665,64dc7f2670a266150a1270ca,,,,,,,decisionTrl,resources/DG.BMP,resources/DR.BMP,Door1,-0.36344756,-0.033748702,1,0,0,1.8504,optionLeft,30,5300,3,10,0,10,0,1,,,,,,,,,,,,,,,,,,,,,,,,,,,,,,,,,,,,,,,
,,,,,,,,2023-08-16_08h50.30.168,HF_wild_card,2022.2.4,Win32,59.93407252,63d3fb730f03adf8b4a28a37,64d2fd46c836a06233681665,64dc7f2670a266150a1270ca,,,,,,,decisionTrl,resources/DB.BMP,resources/DBN.BMP,Door4,-0.41536864,-0.039979232,1,0,0,1.4779,optionLeft,60,5360,3,11,0,11,0,1,,,,,,,,,,,,,,,,,,,,,,,,,,,,,,,,,,,,,,,
,,,,,,,,2023-08-16_08h50.30.168,HF_wild_card,2022.2.4,Win32,59.93407252,63d3fb730f03adf8b4a28a37,64d2fd46c836a06233681665,64dc7f2670a266150a1270ca,,,,,,,ctch,resources/DBN.BMP,resources/DR.BMP,Door3,-0.403946002,-0.03271028,1,0,0,0.865,optionLeft,70,5430,3,12,0,12,0,1,,,,,,,,,,,,,,,,,,,,,,,,,,,,,,,,,,,,,,,
,,,,,,,,2023-08-16_08h50.30.168,HF_wild_card,2022.2.4,Win32,59.93407252,63d3fb730f03adf8b4a28a37,64d2fd46c836a06233681665,64dc7f2670a266150a1270ca,,,,,,,decisionTrl,resources/DBN.BMP,resources/DB.BMP,Door4,0.3894081,-0.039979232,1,0,0,1.2311,optionRight,60,5490,3,13,0,13,0,1,,,,,,,,,,,,,,,,,,,,,,,,,,,,,,,,,,,,,,,
,,,,,,,,2023-08-16_08h50.30.168,HF_wild_card,2022.2.4,Win32,59.93407252,63d3fb730f03adf8b4a28a37,64d2fd46c836a06233681665,64dc7f2670a266150a1270ca,,,,,,,ctch,resources/DBN.BMP,resources/DR.BMP,Door3,-0.366562825,-0.030633437,1,0,0,0.9655,optionLeft,70,5560,3,14,0,14,0,1,,,,,,,,,,,,,,,,,,,,,,,,,,,,,,,,,,,,,,,
,,,,,,,,2023-08-16_08h50.30.168,HF_wild_card,2022.2.4,Win32,59.93407252,63d3fb730f03adf8b4a28a37,64d2fd46c836a06233681665,64dc7f2670a266150a1270ca,,,,,,,sngl,resources/DBN.BMP,resources/Empty.png,Door3,-0.408099688,-0.028556594,1,0,0,0.7143,optionLeft,70,5630,3,15,0,15,0,1,,,,,,,,,,,,,,,,,,,,,,,,,,,,,,,,,,,,,,,
,,,,,,,,2023-08-16_08h50.30.168,HF_wild_card,2022.2.4,Win32,59.93407252,63d3fb730f03adf8b4a28a37,64d2fd46c836a06233681665,64dc7f2670a266150a1270ca,,,,,,,decisionTrl,resources/DG.BMP,resources/DY.BMP,Door1,-0.447559709,-0.039979232,1,0,0,1.2985,optionLeft,30,5660,3,16,0,16,0,1,,,,,,,,,,,,,,,,,,,,,,,,,,,,,,,,,,,,,,,
,,,,,,,,2023-08-16_08h50.30.168,HF_wild_card,2022.2.4,Win32,59.93407252,63d3fb730f03adf8b4a28a37,64d2fd46c836a06233681665,64dc7f2670a266150a1270ca,,,,,,,decisionTrl,resources/DB.BMP,resources/DY.BMP,Door4,-0.38317757,-0.050363448,1,0,0,0.7809,optionLeft,80,5740,3,17,0,17,0,1,,,,,,,,,,,,,,,,,,,,,,,,,,,,,,,,,,,,,,,
,,,,,,,,2023-08-16_08h50.30.168,HF_wild_card,2022.2.4,Win32,59.93407252,63d3fb730f03adf8b4a28a37,64d2fd46c836a06233681665,64dc7f2670a266150a1270ca,,,,,,,decisionTrl,resources/DB.BMP,resources/DBN.BMP,Door4,-0.387331256,-0.024402908,1,0,0,1.2642,optionLeft,80,5820,3,18,0,18,0,1,,,,,,,,,,,,,,,,,,,,,,,,,,,,,,,,,,,,,,,
,,,,,,,,2023-08-16_08h50.30.168,HF_wild_card,2022.2.4,Win32,59.93407252,63d3fb730f03adf8b4a28a37,64d2fd46c836a06233681665,64dc7f2670a266150a1270ca,,,,,,,decisionTrl,resources/DR.BMP,resources/DG.BMP,Door2,-0.460020768,-0.082554517,1,0,0,1.845,optionLeft,40,5860,3,19,0,19,0,1,,,,,,,,,,,,,,,,,,,,,,,,,,,,,,,,,,,,,,,
,,,,,,,,2023-08-16_08h50.30.168,HF_wild_card,2022.2.4,Win32,59.93407252,63d3fb730f03adf8b4a28a37,64d2fd46c836a06233681665,64dc7f2670a266150a1270ca,,,,,,,decisionTrl,resources/DG.BMP,resources/DR.BMP,Door2,0.33125649,-0.016095535,1,0,0,0.8649,optionRight,40,5900,3,20,0,20,0,1,,,,,,,,,,,,,,,,,,,,,,,,,,,,,,,,,,,,,,,
,,,,,,,,2023-08-16_08h50.30.168,HF_wild_card,2022.2.4,Win32,59.93407252,63d3fb730f03adf8b4a28a37,64d2fd46c836a06233681665,64dc7f2670a266150a1270ca,,,,,,,ctch,resources/DB.BMP,resources/DG.BMP,Door4,-0.395638629,-0.043094496,1,0,0,0.8134,optionLeft,60,5960,3,21,0,21,0,1,,,,,,,,,,,,,,,,,,,,,,,,,,,,,,,,,,,,,,,
,,,,,,,,2023-08-16_08h50.30.168,HF_wild_card,2022.2.4,Win32,59.93407252,63d3fb730f03adf8b4a28a37,64d2fd46c836a06233681665,64dc7f2670a266150a1270ca,,,,,,,decisionTrl,resources/DBN.BMP,resources/DY.BMP,Door3,-0.401869159,0.000519211,1,0,0,0.8158,optionLeft,70,6030,3,22,0,22,0,1,,,,,,,,,,,,,,,,,,,,,,,,,,,,,,,,,,,,,,,
,,,,,,,,2023-08-16_08h50.30.168,HF_wild_card,2022.2.4,Win32,59.93407252,63d3fb730f03adf8b4a28a37,64d2fd46c836a06233681665,64dc7f2670a266150a1270ca,,,,,,,decisionTrl,resources/DY.BMP,resources/DB.BMP,Door4,0.284527518,-0.042056075,1,0,0,0.6314,optionRight,80,6110,3,23,0,23,0,1,,,,,,,,,,,,,,,,,,,,,,,,,,,,,,,,,,,,,,,
,,,,,,,,2023-08-16_08h50.30.168,HF_wild_card,2022.2.4,Win32,59.93407252,63d3fb730f03adf8b4a28a37,64d2fd46c836a06233681665,64dc7f2670a266150a1270ca,,,,,,,decisionTrl,resources/DG.BMP,resources/DR.BMP,Door2,0.453790239,-0.055555556,1,0,0,0.8654,optionRight,20,6130,3,24,0,24,0,1,,,,,,,,,,,,,,,,,,,,,,,,,,,,,,,,,,,,,,,
,,,,,,,,2023-08-16_08h50.30.168,HF_wild_card,2022.2.4,Win32,59.93407252,63d3fb730f03adf8b4a28a37,64d2fd46c836a06233681665,64dc7f2670a266150a1270ca,,,,,,,ctch,resources/DG.BMP,resources/DB.BMP,Door4,0.406022845,-0.029595016,1,0,0,1.1136,optionRight,80,6210,3,25,0,25,0,1,,,,,,,,,,,,,,,,,,,,,,,,,,,,,,,,,,,,,,,
,,,,,,,,2023-08-16_08h50.30.168,HF_wild_card,2022.2.4,Win32,59.93407252,63d3fb730f03adf8b4a28a37,64d2fd46c836a06233681665,64dc7f2670a266150a1270ca,,,,,,,decisionTrl,resources/DBN.BMP,resources/DB.BMP,Door4,0.394600208,-0.027518172,1,0,0,1.429,optionRight,60,6270,3,26,0,26,0,1,,,,,,,,,,,,,,,,,,,,,,,,,,,,,,,,,,,,,,,
,,,,,,,,2023-08-16_08h50.30.168,HF_wild_card,2022.2.4,Win32,59.93407252,63d3fb730f03adf8b4a28a37,64d2fd46c836a06233681665,64dc7f2670a266150a1270ca,,,,,,,ctch,resources/DB.BMP,resources/DG.BMP,Door4,-0.350986501,-0.043094496,1,0,0,0.7855,optionLeft,60,6330,3,27,0,27,0,1,,,,,,,,,,,,,,,,,,,,,,,,,,,,,,,,,,,,,,,
,,,,,,,,2023-08-16_08h50.30.168,HF_wild_card,2022.2.4,Win32,59.93407252,63d3fb730f03adf8b4a28a37,64d2fd46c836a06233681665,64dc7f2670a266150a1270ca,,,,,,,decisionTrl,resources/DY.BMP,resources/DBN.BMP,Door3,0.381100727,-0.025441329,1,0,0,1.3689,optionRight,70,6400,3,28,0,28,0,1,,,,,,,,,,,,,,,,,,,,,,,,,,,,,,,,,,,,,,,
,,,,,,,,2023-08-16_08h50.30.168,HF_wild_card,2022.2.4,Win32,59.93407252,63d3fb730f03adf8b4a28a37,64d2fd46c836a06233681665,64dc7f2670a266150a1270ca,,,,,,,sngl,resources/Empty.png,resources/DR.BMP,Door2,0.37694704,-0.050363448,1,0,0,1.3305,optionRight,20,6420,3,29,0,29,0,1,,,,,,,,,,,,,,,,,,,,,,,,,,,,,,,,,,,,,,,
,,,,,,,,2023-08-16_08h50.30.168,HF_wild_card,2022.2.4,Win32,59.93407252,63d3fb730f03adf8b4a28a37,64d2fd46c836a06233681665,64dc7f2670a266150a1270ca,,,,,,,sngl,resources/Empty.png,resources/DG.BMP,Door1,0.462097612,-0.053478712,1,0,0,0.811,optionRight,30,6450,3,30,0,30,0,1,,,,,,,,,,,,,,,,,,,,,,,,,,,,,,,,,,,,,,,
,,,,,,,,2023-08-16_08h50.30.168,HF_wild_card,2022.2.4,Win32,59.93407252,63d3fb730f03adf8b4a28a37,64d2fd46c836a06233681665,64dc7f2670a266150a1270ca,,,,,,,decisionTrl,resources/DR.BMP,resources/DG.BMP,Door1,0.46105919,-0.037902388,1,0,0,1.2681,optionRight,30,6480,3,31,0,31,0,1,,,,,,,,,,,,,,,,,,,,,,,,,,,,,,,,,,,,,,,
,,,,,,,,2023-08-16_08h50.30.168,HF_wild_card,2022.2.4,Win32,59.93407252,63d3fb730f03adf8b4a28a37,64d2fd46c836a06233681665,64dc7f2670a266150a1270ca,,,,,,,sngl,resources/Empty.png,resources/DY.BMP,WildCard_NonEx,0.397715472,-0.028556594,1,0,0,0.6332,optionRight,55,6535,3,32,0,32,0,1,,,,,,,,,,,,,,,,,,,,,,,,,,,,,,,,,,,,,,,
,,,,,,,,2023-08-16_08h50.30.168,HF_wild_card,2022.2.4,Win32,59.93407252,63d3fb730f03adf8b4a28a37,64d2fd46c836a06233681665,64dc7f2670a266150a1270ca,,,,,,,decisionTrl,resources/DBN.BMP,resources/DB.BMP,Door4,0.391484943,-0.050363448,1,0,0,1.8317,optionRight,80,6615,3,33,0,33,0,1,,,,,,,,,,,,,,,,,,,,,,,,,,,,,,,,,,,,,,,
,,,,,,,,2023-08-16_08h50.30.168,HF_wild_card,2022.2.4,Win32,59.93407252,63d3fb730f03adf8b4a28a37,64d2fd46c836a06233681665,64dc7f2670a266150a1270ca,,,,,,,decisionTrl,resources/DG.BMP,resources/DR.BMP,Door1,-0.366562825,-0.016095535,1,0,0,1.8618,optionLeft,30,6645,3,34,0,34,0,1,,,,,,,,,,,,,,,,,,,,,,,,,,,,,,,,,,,,,,,
,,,,,,,,2023-08-16_08h50.30.168,HF_wild_card,2022.2.4,Win32,59.93407252,63d3fb730f03adf8b4a28a37,64d2fd46c836a06233681665,64dc7f2670a266150a1270ca,,,,,,,ctch,resources/DG.BMP,resources/DB.BMP,Door4,0.390446521,-0.047248183,1,0,0,1.3624,optionRight,60,6705,3,35,0,35,0,1,,,,,,,,,,,,,,,,,,,,,,,,,,,,,,,,,,,,,,,
,,,,,,,,2023-08-16_08h50.30.168,HF_wild_card,2022.2.4,Win32,59.93407252,63d3fb730f03adf8b4a28a37,64d2fd46c836a06233681665,64dc7f2670a266150a1270ca,,,,,,,sngl,resources/Empty.png,resources/DB.BMP,Door4,0.397715472,-0.022326064,1,0,0,0.7517,optionRight,60,6765,3,36,0,36,0,1,,,,,,,,,,,,,,,,,,,,,,,,,,,,,,,,,,,,,,,
,,,,,,,,2023-08-16_08h50.30.168,HF_wild_card,2022.2.4,Win32,59.93407252,63d3fb730f03adf8b4a28a37,64d2fd46c836a06233681665,64dc7f2670a266150a1270ca,,,,,,,sngl,resources/Empty.png,resources/DBN.BMP,Door3,0.391484943,-0.016095535,1,0,0,0.7452,optionRight,70,6835,3,37,0,37,0,1,,,,,,,,,,,,,,,,,,,,,,,,,,,,,,,,,,,,,,,
,,,,,,,,2023-08-16_08h50.30.168,HF_wild_card,2022.2.4,Win32,59.93407252,63d3fb730f03adf8b4a28a37,64d2fd46c836a06233681665,64dc7f2670a266150a1270ca,,,,,,,decisionTrl,resources/DY.BMP,resources/DR.BMP,WildCard_NonEx,-0.361370717,-0.010903427,1,0,0,1.2487,optionLeft,45,6880,3,38,0,38,0,1,,,,,,,,,,,,,,,,,,,,,,,,,,,,,,,,,,,,,,,
,,,,,,,,2023-08-16_08h50.30.168,HF_wild_card,2022.2.4,Win32,59.93407252,63d3fb730f03adf8b4a28a37,64d2fd46c836a06233681665,64dc7f2670a266150a1270ca,,,,,,,decisionTrl,resources/DR.BMP,resources/DG.BMP,Door1,0.417445483,-0.028556594,1,0,0,1.3353,optionRight,30,6910,3,39,0,39,0,1,,,,,,,,,,,,,,,,,,,,,,,,,,,,,,,,,,,,,,,
,,,,,,,,2023-08-16_08h50.30.168,HF_wild_card,2022.2.4,Win32,59.93407252,63d3fb730f03adf8b4a28a37,64d2fd46c836a06233681665,64dc7f2670a266150a1270ca,,,,,,,decisionTrl,resources/DR.BMP,resources/DG.BMP,Door1,0.476635514,-0.03894081,1,0,0,0.703,optionRight,30,6940,3,40,0,40,0,1,,,,,,,,,,,,,,,,,,,,,,,,,,,,,,,,,,,,,,,
,,,,,,,,2023-08-16_08h50.30.168,HF_wild_card,2022.2.4,Win32,59.93407252,63d3fb730f03adf8b4a28a37,64d2fd46c836a06233681665,64dc7f2670a266150a1270ca,,,,,,,decisionTrl,resources/DB.BMP,resources/DBN.BMP,Door4,-0.408099688,-0.039979232,1,0,0,1.7313,optionLeft,80,7020,3,41,0,41,0,1,,,,,,,,,,,,,,,,,,,,,,,,,,,,,,,,,,,,,,,
,,,,,,,,2023-08-16_08h50.30.168,HF_wild_card,2022.2.4,Win32,59.93407252,63d3fb730f03adf8b4a28a37,64d2fd46c836a06233681665,64dc7f2670a266150a1270ca,,,,,,,sngl,resources/Empty.png,resources/DY.BMP,WildCard_NonEx,0.386292835,-0.049325026,1,0,0,0.8843,optionRight,45,7065,3,42,0,42,0,1,,,,,,,,,,,,,,,,,,,,,,,,,,,,,,,,,,,,,,,
,,,,,,,,2023-08-16_08h50.30.168,HF_wild_card,2022.2.4,Win32,59.93407252,63d3fb730f03adf8b4a28a37,64d2fd46c836a06233681665,64dc7f2670a266150a1270ca,,,,,,,ctch,resources/DR.BMP,resources/DBN.BMP,Door3,0.483904465,-0.022326064,1,0,0,1.2301,optionRight,70,7135,3,43,0,43,0,1,,,,,,,,,,,,,,,,,,,,,,,,,,,,,,,,,,,,,,,
,,,,,,,,2023-08-16_08h50.30.168,HF_wild_card,2022.2.4,Win32,59.93407252,63d3fb730f03adf8b4a28a37,64d2fd46c836a06233681665,64dc7f2670a266150a1270ca,,,,,,,,,,,,,,,,,,,,,,,,,,2,0,2,0,1,,,,,,,,,,,,,,,,,,,,,,,,,,,,,,,,,,
,,,,,,,,2023-08-16_08h50.30.168,HF_wild_card,2022.2.4,Win32,59.93407252,63d3fb730f03adf8b4a28a37,64d2fd46c836a06233681665,64dc7f2670a266150a1270ca,,,,,,,sngl,resources/DR.BMP,resources/Empty.png,Door2,-0.390446521,-0.0192108,1,0,0,0.7112,optionLeft,20,7155,4,0,0,0,0,1,,,,,,,,,,,,,,,,,,,,,,,,,,,,,,,,,,,,,,,
,,,,,,,,2023-08-16_08h50.30.168,HF_wild_card,2022.2.4,Win32,59.93407252,63d3fb730f03adf8b4a28a37,64d2fd46c836a06233681665,64dc7f2670a266150a1270ca,,,,,,,ctch,resources/DB.BMP,resources/DG.BMP,Door4,-0.373831776,-0.027518172,1,0,0,2.0978,optionLeft,60,7215,4,1,0,1,0,1,,,,,,,,,,,,,,,,,,,,,,,,,,,,,,,,,,,,,,,
,,,,,,,,2023-08-16_08h50.30.168,HF_wild_card,2022.2.4,Win32,59.93407252,63d3fb730f03adf8b4a28a37,64d2fd46c836a06233681665,64dc7f2670a266150a1270ca,,,,,,,sngl,resources/Empty.png,resources/DP.BMP,WildCard_Ex,0.406022845,-0.054517134,1,0,0,1.5789,optionRight,95,7310,4,2,0,2,0,1,,,,,,,,,,,,,,,,,,,,,,,,,,,,,,,,,,,,,,,
,,,,,,,,2023-08-16_08h50.30.168,HF_wild_card,2022.2.4,Win32,59.93407252,63d3fb730f03adf8b4a28a37,64d2fd46c836a06233681665,64dc7f2670a266150a1270ca,,,,,,,decisionTrl,resources/DB.BMP,resources/DBN.BMP,Door4,-0.419522326,-0.037902388,1,0,0,2.6183,optionLeft,80,7390,4,3,0,3,0,1,,,,,,,,,,,,,,,,,,,,,,,,,,,,,,,,,,,,,,,
,,,,,,,,2023-08-16_08h50.30.168,HF_wild_card,2022.2.4,Win32,59.93407252,63d3fb730f03adf8b4a28a37,64d2fd46c836a06233681665,64dc7f2670a266150a1270ca,,,,,,,ctch,resources/DG.BMP,resources/DB.BMP,Door4,0.356178609,-0.029595016,1,0,0,0.9177,optionRight,80,7470,4,4,0,4,0,1,,,,,,,,,,,,,,,,,,,,,,,,,,,,,,,,,,,,,,,
,,,,,,,,2023-08-16_08h50.30.168,HF_wild_card,2022.2.4,Win32,59.93407252,63d3fb730f03adf8b4a28a37,64d2fd46c836a06233681665,64dc7f2670a266150a1270ca,,,,,,,sngl,resources/DBN.BMP,resources/Empty.png,Door3,-0.353063344,-0.001557632,1,0,0,0.5992,optionLeft,70,7540,4,5,0,5,0,1,,,,,,,,,,,,,,,,,,,,,,,,,,,,,,,,,,,,,,,
,,,,,,,,2023-08-16_08h50.30.168,HF_wild_card,2022.2.4,Win32,59.93407252,63d3fb730f03adf8b4a28a37,64d2fd46c836a06233681665,64dc7f2670a266150a1270ca,,,,,,,ctch,resources/DR.BMP,resources/DBN.BMP,Door3,0.371754933,-0.021287643,1,0,0,0.7678,optionRight,70,7610,4,6,0,6,0,1,,,,,,,,,,,,,,,,,,,,,,,,,,,,,,,,,,,,,,,
,,,,,,,,2023-08-16_08h50.30.168,HF_wild_card,2022.2.4,Win32,59.93407252,63d3fb730f03adf8b4a28a37,64d2fd46c836a06233681665,64dc7f2670a266150a1270ca,,,,,,,sngl,resources/DG.BMP,resources/Empty.png,Door1,-0.364485981,-0.017133956,1,0,0,0.7115,optionLeft,30,7640,4,7,0,7,0,1,,,,,,,,,,,,,,,,,,,,,,,,,,,,,,,,,,,,,,,
,,,,,,,,2023-08-16_08h50.30.168,HF_wild_card,2022.2.4,Win32,59.93407252,63d3fb730f03adf8b4a28a37,64d2fd46c836a06233681665,64dc7f2670a266150a1270ca,,,,,,,decisionTrl,resources/DP.BMP,resources/DBN.BMP,WildCard_Ex,-0.403946002,-0.030633437,1,0,0,0.7124,optionLeft,5,7645,4,8,0,8,0,1,,,,,,,,,,,,,,,,,,,,,,,,,,,,,,,,,,,,,,,
,,,,,,,,2023-08-16_08h50.30.168,HF_wild_card,2022.2.4,Win32,59.93407252,63d3fb730f03adf8b4a28a37,64d2fd46c836a06233681665,64dc7f2670a266150a1270ca,,,,,,,decisionTrl,resources/DG.BMP,resources/DP.BMP,WildCard_Ex,0.399792316,-0.04517134,1,0,0,0.6494,optionRight,5,7650,4,9,0,9,0,1,,,,,,,,,,,,,,,,,,,,,,,,,,,,,,,,,,,,,,,
,,,,,,,,2023-08-16_08h50.30.168,HF_wild_card,2022.2.4,Win32,59.93407252,63d3fb730f03adf8b4a28a37,64d2fd46c836a06233681665,64dc7f2670a266150a1270ca,,,,,,,sngl,resources/Empty.png,resources/DBN.BMP,Door3,0.433021807,-0.00674974,1,0,0,0.6468,optionRight,70,7720,4,10,0,10,0,1,,,,,,,,,,,,,,,,,,,,,,,,,,,,,,,,,,,,,,,
,,,,,,,,2023-08-16_08h50.30.168,HF_wild_card,2022.2.4,Win32,59.93407252,63d3fb730f03adf8b4a28a37,64d2fd46c836a06233681665,64dc7f2670a266150a1270ca,,,,,,,decisionTrl,resources/DBN.BMP,resources/DB.BMP,Door3,-0.362409138,-0.00674974,1,0,0,1.0573,optionLeft,70,7790,4,11,0,11,0,1,,,,,,,,,,,,,,,,,,,,,,,,,,,,,,,,,,,,,,,
,,,,,,,,2023-08-16_08h50.30.168,HF_wild_card,2022.2.4,Win32,59.93407252,63d3fb730f03adf8b4a28a37,64d2fd46c836a06233681665,64dc7f2670a266150a1270ca,,,,,,,ctch,resources/DBN.BMP,resources/DR.BMP,Door3,-0.364485981,0.010903427,1,0,0,1.2316,optionLeft,70,7860,4,12,0,12,0,1,,,,,,,,,,,,,,,,,,,,,,,,,,,,,,,,,,,,,,,
,,,,,,,,2023-08-16_08h50.30.168,HF_wild_card,2022.2.4,Win32,59.93407252,63d3fb730f03adf8b4a28a37,64d2fd46c836a06233681665,64dc7f2670a266150a1270ca,,,,,,,decisionTrl,resources/DBN.BMP,resources/DB.BMP,Door4,0.37694704,-0.030633437,1,0,0,1.8007,optionRight,80,7940,4,13,0,13,0,1,,,,,,,,,,,,,,,,,,,,,,,,,,,,,,,,,,,,,,,
,,,,,,,,2023-08-16_08h50.30.168,HF_wild_card,2022.2.4,Win32,59.93407252,63d3fb730f03adf8b4a28a37,64d2fd46c836a06233681665,64dc7f2670a266150a1270ca,,,,,,,ctch,resources/DR.BMP,resources/DBN.BMP,Door3,0.40290758,0.009865005,1,0,0,1.0288,optionRight,70,8010,4,14,0,14,0,1,,,,,,,,,,,,,,,,,,,,,,,,,,,,,,,,,,,,,,,
,,,,,,,,2023-08-16_08h50.30.168,HF_wild_card,2022.2.4,Win32,59.93407252,63d3fb730f03adf8b4a28a37,64d2fd46c836a06233681665,64dc7f2670a266150a1270ca,,,,,,,decisionTrl,resources/DP.BMP,resources/DR.BMP,WildCard_Ex,-0.365524403,-0.04517134,1,0,0,0.9512,optionLeft,95,8105,4,15,0,15,0,1,,,,,,,,,,,,,,,,,,,,,,,,,,,,,,,,,,,,,,,
,,,,,,,,2023-08-16_08h50.30.168,HF_wild_card,2022.2.4,Win32,59.93407252,63d3fb730f03adf8b4a28a37,64d2fd46c836a06233681665,64dc7f2670a266150a1270ca,,,,,,,decisionTrl,resources/DG.BMP,resources/DR.BMP,Door1,-0.395638629,-0.044132918,1,0,0,3.3479,optionLeft,30,8135,4,16,0,16,0,1,,,,,,,,,,,,,,,,,,,,,,,,,,,,,,,,,,,,,,,
,,,,,,,,2023-08-16_08h50.30.168,HF_wild_card,2022.2.4,Win32,59.93407252,63d3fb730f03adf8b4a28a37,64d2fd46c836a06233681665,64dc7f2670a266150a1270ca,,,,,,,decisionTrl,resources/DG.BMP,resources/DR.BMP,Door1,-0.371754933,-0.047248183,1,0,0,0.6151,optionLeft,30,8165,4,17,0,17,0,1,,,,,,,,,,,,,,,,,,,,,,,,,,,,,,,,,,,,,,,
,,,,,,,,2023-08-16_08h50.30.168,HF_wild_card,2022.2.4,Win32,59.93407252,63d3fb730f03adf8b4a28a37,64d2fd46c836a06233681665,64dc7f2670a266150a1270ca,,,,,,,decisionTrl,resources/DB.BMP,resources/DBN.BMP,Door4,-0.327102804,-0.020249221,1,0,0,1.0491,optionLeft,60,8225,4,18,0,18,0,1,,,,,,,,,,,,,,,,,,,,,,,,,,,,,,,,,,,,,,,
,,,,,,,,2023-08-16_08h50.30.168,HF_wild_card,2022.2.4,Win32,59.93407252,63d3fb730f03adf8b4a28a37,64d2fd46c836a06233681665,64dc7f2670a266150a1270ca,,,,,,,sngl,resources/DP.BMP,resources/Empty.png,WildCard_Ex,-0.41536864,-0.052440291,1,0,0,0.5842,optionLeft,95,8320,4,19,0,19,0,1,,,,,,,,,,,,,,,,,,,,,,,,,,,,,,,,,,,,,,,
,,,,,,,,2023-08-16_08h50.30.168,HF_wild_card,2022.2.4,Win32,59.93407252,63d3fb730f03adf8b4a28a37,64d2fd46c836a06233681665,64dc7f2670a266150a1270ca,,,,,,,sngl,resources/Empty.png,resources/DP.BMP,WildCard_Ex,0.399792316,-0.048286604,1,0,0,0.8019,optionRight,5,8325,4,20,0,20,0,1,,,,,,,,,,,,,,,,,,,,,,,,,,,,,,,,,,,,,,,
,,,,,,,,2023-08-16_08h50.30.168,HF_wild_card,2022.2.4,Win32,59.93407252,63d3fb730f03adf8b4a28a37,64d2fd46c836a06233681665,64dc7f2670a266150a1270ca,,,,,,,decisionTrl,resources/DR.BMP,resources/DG.BMP,Door1,0.396677051,-0.044132918,1,0,0,1.1321,optionRight,30,8355,4,21,0,21,0,1,,,,,,,,,,,,,,,,,,,,,,,,,,,,,,,,,,,,,,,
,,,,,,,,2023-08-16_08h50.30.168,HF_wild_card,2022.2.4,Win32,59.93407252,63d3fb730f03adf8b4a28a37,64d2fd46c836a06233681665,64dc7f2670a266150a1270ca,,,,,,,sngl,resources/DB.BMP,resources/Empty.png,Door4,-0.298026999,-0.014018692,1,0,0,0.5955,optionLeft,60,8415,4,22,0,22,0,1,,,,,,,,,,,,,,,,,,,,,,,,,,,,,,,,,,,,,,,
,,,,,,,,2023-08-16_08h50.30.168,HF_wild_card,2022.2.4,Win32,59.93407252,63d3fb730f03adf8b4a28a37,64d2fd46c836a06233681665,64dc7f2670a266150a1270ca,,,,,,,decisionTrl,resources/DB.BMP,resources/DBN.BMP,Door4,-0.395638629,-0.036863967,1,0,0,2.0663,optionLeft,80,8495,4,23,0,23,0,1,,,,,,,,,,,,,,,,,,,,,,,,,,,,,,,,,,,,,,,
,,,,,,,,2023-08-16_08h50.30.168,HF_wild_card,2022.2.4,Win32,59.93407252,63d3fb730f03adf8b4a28a37,64d2fd46c836a06233681665,64dc7f2670a266150a1270ca,,,,,,,decisionTrl,resources/DBN.BMP,resources/DB.BMP,Door4,0.349948079,-0.034787124,1,0,0,1.4488,optionRight,60,8555,4,24,0,24,0,1,,,,,,,,,,,,,,,,,,,,,,,,,,,,,,,,,,,,,,,
,,,,,,,,2023-08-16_08h50.30.168,HF_wild_card,2022.2.4,Win32,59.93407252,63d3fb730f03adf8b4a28a37,64d2fd46c836a06233681665,64dc7f2670a266150a1270ca,,,,,,,decisionTrl,resources/DP.BMP,resources/DG.BMP,WildCard_Ex,-0.359293873,-0.053478712,1,0,0,0.8982,optionLeft,5,8560,4,25,0,25,0,1,,,,,,,,,,,,,,,,,,,,,,,,,,,,,,,,,,,,,,,
,,,,,,,,2023-08-16_08h50.30.168,HF_wild_card,2022.2.4,Win32,59.93407252,63d3fb730f03adf8b4a28a37,64d2fd46c836a06233681665,64dc7f2670a266150a1270ca,,,,,,,sngl,resources/DP.BMP,resources/Empty.png,WildCard_Ex,-0.344755971,-0.016095535,1,0,0,0.4843,optionLeft,5,8565,4,26,0,26,0,1,,,,,,,,,,,,,,,,,,,,,,,,,,,,,,,,,,,,,,,
,,,,,,,,2023-08-16_08h50.30.168,HF_wild_card,2022.2.4,Win32,59.93407252,63d3fb730f03adf8b4a28a37,64d2fd46c836a06233681665,64dc7f2670a266150a1270ca,,,,,,,decisionTrl,resources/DR.BMP,resources/DP.BMP,WildCard_Ex,0.349948079,-0.051401869,1,0,0,0.6312,optionRight,5,8570,4,27,0,27,0,1,,,,,,,,,,,,,,,,,,,,,,,,,,,,,,,,,,,,,,,
,,,,,,,,2023-08-16_08h50.30.168,HF_wild_card,2022.2.4,Win32,59.93407252,63d3fb730f03adf8b4a28a37,64d2fd46c836a06233681665,64dc7f2670a266150a1270ca,,,,,,,decisionTrl,resources/DB.BMP,resources/DBN.BMP,Door3,0.398753894,-0.002596054,1,0,0,0.7644,optionRight,70,8640,4,28,0,28,0,1,,,,,,,,,,,,,,,,,,,,,,,,,,,,,,,,,,,,,,,
,,,,,,,,2023-08-16_08h50.30.168,HF_wild_card,2022.2.4,Win32,59.93407252,63d3fb730f03adf8b4a28a37,64d2fd46c836a06233681665,64dc7f2670a266150a1270ca,,,,,,,ctch,resources/DG.BMP,resources/DB.BMP,Door4,0.439252336,-0.034787124,1,0,0,0.8152,optionRight,60,8700,4,29,0,29,0,1,,,,,,,,,,,,,,,,,,,,,,,,,,,,,,,,,,,,,,,
,,,,,,,,2023-08-16_08h50.30.168,HF_wild_card,2022.2.4,Win32,59.93407252,63d3fb730f03adf8b4a28a37,64d2fd46c836a06233681665,64dc7f2670a266150a1270ca,,,,,,,decisionTrl,resources/DG.BMP,resources/DR.BMP,Door1,-0.344755971,-0.020249221,1,0,0,0.9974,optionLeft,30,8730,4,30,0,30,0,1,,,,,,,,,,,,,,,,,,,,,,,,,,,,,,,,,,,,,,,
,,,,,,,,2023-08-16_08h50.30.168,HF_wild_card,2022.2.4,Win32,59.93407252,63d3fb730f03adf8b4a28a37,64d2fd46c836a06233681665,64dc7f2670a266150a1270ca,,,,,,,decisionTrl,resources/DR.BMP,resources/DG.BMP,Door1,0.375908619,-0.033748702,1,0,0,1.0491,optionRight,30,8760,4,31,0,31,0,1,,,,,,,,,,,,,,,,,,,,,,,,,,,,,,,,,,,,,,,
,,,,,,,,2023-08-16_08h50.30.168,HF_wild_card,2022.2.4,Win32,59.93407252,63d3fb730f03adf8b4a28a37,64d2fd46c836a06233681665,64dc7f2670a266150a1270ca,,,,,,,sngl,resources/Empty.png,resources/DB.BMP,Door4,0.483904465,-0.031671859,1,0,0,0.6185,optionRight,80,8840,4,32,0,32,0,1,,,,,,,,,,,,,,,,,,,,,,,,,,,,,,,,,,,,,,,
,,,,,,,,2023-08-16_08h50.30.168,HF_wild_card,2022.2.4,Win32,59.93407252,63d3fb730f03adf8b4a28a37,64d2fd46c836a06233681665,64dc7f2670a266150a1270ca,,,,,,,decisionTrl,resources/DB.BMP,resources/DP.BMP,WildCard_Ex,0.400830737,-0.03271028,1,0,0,0.7465,optionRight,5,8845,4,33,0,33,0,1,,,,,,,,,,,,,,,,,,,,,,,,,,,,,,,,,,,,,,,
,,,,,,,,2023-08-16_08h50.30.168,HF_wild_card,2022.2.4,Win32,59.93407252,63d3fb730f03adf8b4a28a37,64d2fd46c836a06233681665,64dc7f2670a266150a1270ca,,,,,,,sngl,resources/Empty.png,resources/DR.BMP,Door2,0.400830737,-0.029595016,1,0,0,0.5845,optionRight,40,8885,4,34,0,34,0,1,,,,,,,,,,,,,,,,,,,,,,,,,,,,,,,,,,,,,,,
,,,,,,,,2023-08-16_08h50.30.168,HF_wild_card,2022.2.4,Win32,59.93407252,63d3fb730f03adf8b4a28a37,64d2fd46c836a06233681665,64dc7f2670a266150a1270ca,,,,,,,decisionTrl,resources/DG.BMP,resources/DR.BMP,Door1,-0.416407061,-0.030633437,1,0,0,2.3457,optionLeft,30,8915,4,35,0,35,0,1,,,,,,,,,,,,,,,,,,,,,,,,,,,,,,,,,,,,,,,
,,,,,,,,2023-08-16_08h50.30.168,HF_wild_card,2022.2.4,Win32,59.93407252,63d3fb730f03adf8b4a28a37,64d2fd46c836a06233681665,64dc7f2670a266150a1270ca,,,,,,,ctch,resources/DB.BMP,resources/DG.BMP,Door4,-0.385254413,-0.041017653,1,0,0,2.6289,optionLeft,60,8975,4,36,0,36,0,1,,,,,,,,,,,,,,,,,,,,,,,,,,,,,,,,,,,,,,,
,,,,,,,,2023-08-16_08h50.30.168,HF_wild_card,2022.2.4,Win32,59.93407252,63d3fb730f03adf8b4a28a37,64d2fd46c836a06233681665,64dc7f2670a266150a1270ca,,,,,,,decisionTrl,resources/DBN.BMP,resources/DP.BMP,Door3,-0.400830737,-0.037902388,1,0,0,2.6609,optionLeft,70,9045,4,37,0,37,0,1,,,,,,,,,,,,,,,,,,,,,,,,,,,,,,,,,,,,,,,
,,,,,,,,2023-08-16_08h50.30.168,HF_wild_card,2022.2.4,Win32,59.93407252,63d3fb730f03adf8b4a28a37,64d2fd46c836a06233681665,64dc7f2670a266150a1270ca,,,,,,,decisionTrl,resources/DP.BMP,resources/DB.BMP,Door4,0.394600208,-0.049325026,1,0,0,1.4178,optionRight,80,9125,4,38,0,38,0,1,,,,,,,,,,,,,,,,,,,,,,,,,,,,,,,,,,,,,,,
,,,,,,,,2023-08-16_08h50.30.168,HF_wild_card,2022.2.4,Win32,59.93407252,63d3fb730f03adf8b4a28a37,64d2fd46c836a06233681665,64dc7f2670a266150a1270ca,,,,,,,ctch,resources/DBN.BMP,resources/DR.BMP,Door3,-0.358255452,-0.023364486,1,0,0,1.1983,optionLeft,70,9195,4,39,0,39,0,1,,,,,,,,,,,,,,,,,,,,,,,,,,,,,,,,,,,,,,,
,,,,,,,,2023-08-16_08h50.30.168,HF_wild_card,2022.2.4,Win32,59.93407252,63d3fb730f03adf8b4a28a37,64d2fd46c836a06233681665,64dc7f2670a266150a1270ca,,,,,,,sngl,resources/Empty.png,resources/DG.BMP,Door1,0.379023884,-0.035825545,1,0,0,0.7781,optionRight,30,9225,4,40,0,40,0,1,,,,,,,,,,,,,,,,,,,,,,,,,,,,,,,,,,,,,,,
,,,,,,,,2023-08-16_08h50.30.168,HF_wild_card,2022.2.4,Win32,59.93407252,63d3fb730f03adf8b4a28a37,64d2fd46c836a06233681665,64dc7f2670a266150a1270ca,,,,,,,decisionTrl,resources/DBN.BMP,resources/DB.BMP,Door3,-0.349948079,-0.016095535,1,0,0,1.2483,optionLeft,70,9295,4,41,0,41,0,1,,,,,,,,,,,,,,,,,,,,,,,,,,,,,,,,,,,,,,,
,,,,,,,,2023-08-16_08h50.30.168,HF_wild_card,2022.2.4,Win32,59.93407252,63d3fb730f03adf8b4a28a37,64d2fd46c836a06233681665,64dc7f2670a266150a1270ca,,,,,,,decisionTrl,resources/DR.BMP,resources/DG.BMP,Door1,0.430944964,-0.057632399,1,0,0,1.1624,optionRight,30,9325,4,42,0,42,0,1,,,,,,,,,,,,,,,,,,,,,,,,,,,,,,,,,,,,,,,
,,,,,,,,2023-08-16_08h50.30.168,HF_wild_card,2022.2.4,Win32,59.93407252,63d3fb730f03adf8b4a28a37,64d2fd46c836a06233681665,64dc7f2670a266150a1270ca,,,,,,,decisionTrl,resources/DR.BMP,resources/DG.BMP,Door1,0.443406023,-0.008826584,1,0,0,0.9817,optionRight,30,9355,4,43,0,43,0,1,,,,,,,,,,,,,,,,,,,,,,,,,,,,,,,,,,,,,,,
,,,,,,,,2023-08-16_08h50.30.168,HF_wild_card,2022.2.4,Win32,59.93407252,63d3fb730f03adf8b4a28a37,64d2fd46c836a06233681665,64dc7f2670a266150a1270ca,,,,,,,,,,,,,,,,,,,,,,,,,,3,0,3,0,1,,,,,,,,,,,,,,,,,,,,,,,,,,,,,,,,,,
,,,,,,,,2023-08-16_08h50.30.168,HF_wild_card,2022.2.4,Win32,59.93407252,63d3fb730f03adf8b4a28a37,64d2fd46c836a06233681665,64dc7f2670a266150a1270ca,,,,,,,decisionTrl,resources/DBN.BMP,resources/DB.BMP,Door4,0.381100727,-0.041017653,1,0,0,1.9459,optionRight,60,9415,5,0,0,0,0,1,,,,,,,,,,,,,,,,,,,,,,,,,,,,,,,,,,,,,,,
,,,,,,,,2023-08-16_08h50.30.168,HF_wild_card,2022.2.4,Win32,59.93407252,63d3fb730f03adf8b4a28a37,64d2fd46c836a06233681665,64dc7f2670a266150a1270ca,,,,,,,decisionTrl,resources/DR.BMP,resources/DG.BMP,Door1,0.40290758,-0.036863967,1,0,0,1.4986,optionRight,30,9445,5,1,0,1,0,1,,,,,,,,,,,,,,,,,,,,,,,,,,,,,,,,,,,,,,,
,,,,,,,,2023-08-16_08h50.30.168,HF_wild_card,2022.2.4,Win32,59.93407252,63d3fb730f03adf8b4a28a37,64d2fd46c836a06233681665,64dc7f2670a266150a1270ca,,,,,,,decisionTrl,resources/DG.BMP,resources/DR.BMP,Door1,-0.341640706,-0.054517134,1,0,0,0.6822,optionLeft,30,9475,5,2,0,2,0,1,,,,,,,,,,,,,,,,,,,,,,,,,,,,,,,,,,,,,,,
,,,,,,,,2023-08-16_08h50.30.168,HF_wild_card,2022.2.4,Win32,59.93407252,63d3fb730f03adf8b4a28a37,64d2fd46c836a06233681665,64dc7f2670a266150a1270ca,,,,,,,sngl,resources/Empty.png,resources/DB.BMP,Door4,0.316718588,-0.033748702,1,0,0,0.5994,optionRight,60,9535,5,3,0,3,0,1,,,,,,,,,,,,,,,,,,,,,,,,,,,,,,,,,,,,,,,
,,,,,,,,2023-08-16_08h50.30.168,HF_wild_card,2022.2.4,Win32,59.93407252,63d3fb730f03adf8b4a28a37,64d2fd46c836a06233681665,64dc7f2670a266150a1270ca,,,,,,,decisionTrl,resources/DP.BMP,resources/DG.BMP,WildCard_Ex,-0.413291796,-0.074247144,1,0,0,1.4447,optionLeft,95,9630,5,4,0,4,0,1,,,,,,,,,,,,,,,,,,,,,,,,,,,,,,,,,,,,,,,
,,,,,,,,2023-08-16_08h50.30.168,HF_wild_card,2022.2.4,Win32,59.93407252,63d3fb730f03adf8b4a28a37,64d2fd46c836a06233681665,64dc7f2670a266150a1270ca,,,,,,,ctch,resources/DB.BMP,resources/DG.BMP,Door4,-0.354101765,-0.05867082,1,0,0,1.0175,optionLeft,60,9690,5,5,0,5,0,1,,,,,,,,,,,,,,,,,,,,,,,,,,,,,,,,,,,,,,,
,,,,,,,,2023-08-16_08h50.30.168,HF_wild_card,2022.2.4,Win32,59.93407252,63d3fb730f03adf8b4a28a37,64d2fd46c836a06233681665,64dc7f2670a266150a1270ca,,,,,,,decisionTrl,resources/DP.BMP,resources/DR.BMP,WildCard_Ex,-0.362409138,-0.070093458,1,0,0,1.3653,optionLeft,5,9695,5,6,0,6,0,1,,,,,,,,,,,,,,,,,,,,,,,,,,,,,,,,,,,,,,,
,,,,,,,,2023-08-16_08h50.30.168,HF_wild_card,2022.2.4,Win32,59.93407252,63d3fb730f03adf8b4a28a37,64d2fd46c836a06233681665,64dc7f2670a266150a1270ca,,,,,,,decisionTrl,resources/DB.BMP,resources/DBN.BMP,Door3,0.360332295,-0.023364486,1,0,0,1.2645,optionRight,70,9765,5,7,0,7,0,1,,,,,,,,,,,,,,,,,,,,,,,,,,,,,,,,,,,,,,,
,,,,,,,,2023-08-16_08h50.30.168,HF_wild_card,2022.2.4,Win32,59.93407252,63d3fb730f03adf8b4a28a37,64d2fd46c836a06233681665,64dc7f2670a266150a1270ca,,,,,,,decisionTrl,resources/DBN.BMP,resources/DP.BMP,Door3,-0.321910696,-0.023364486,1,0,0,1.534,optionLeft,70,9835,5,8,0,8,0,1,,,,,,,,,,,,,,,,,,,,,,,,,,,,,,,,,,,,,,,
,,,,,,,,2023-08-16_08h50.30.168,HF_wild_card,2022.2.4,Win32,59.93407252,63d3fb730f03adf8b4a28a37,64d2fd46c836a06233681665,64dc7f2670a266150a1270ca,,,,,,,ctch,resources/DG.BMP,resources/DB.BMP,Door4,0.40290758,-0.027518172,1,0,0,0.8475,optionRight,80,9915,5,9,0,9,0,1,,,,,,,,,,,,,,,,,,,,,,,,,,,,,,,,,,,,,,,
,,,,,,,,2023-08-16_08h50.30.168,HF_wild_card,2022.2.4,Win32,59.93407252,63d3fb730f03adf8b4a28a37,64d2fd46c836a06233681665,64dc7f2670a266150a1270ca,,,,,,,decisionTrl,resources/DP.BMP,resources/DBN.BMP,Door3,0.424714434,-0.007788162,1,0,0,1.2648,optionRight,70,9985,5,10,0,10,0,1,,,,,,,,,,,,,,,,,,,,,,,,,,,,,,,,,,,,,,,
,,,,,,,,2023-08-16_08h50.30.168,HF_wild_card,2022.2.4,Win32,59.93407252,63d3fb730f03adf8b4a28a37,64d2fd46c836a06233681665,64dc7f2670a266150a1270ca,,,,,,,decisionTrl,resources/DB.BMP,resources/DBN.BMP,Door3,0.380062305,-0.005711319,1,0,0,1.2127,optionRight,70,10055,5,11,0,11,0,1,,,,,,,,,,,,,,,,,,,,,,,,,,,,,,,,,,,,,,,
,,,,,,,,2023-08-16_08h50.30.168,HF_wild_card,2022.2.4,Win32,59.93407252,63d3fb730f03adf8b4a28a37,64d2fd46c836a06233681665,64dc7f2670a266150a1270ca,,,,,,,decisionTrl,resources/DBN.BMP,resources/DB.BMP,Door3,-0.37694704,-0.002596054,1,0,0,1.4313,optionLeft,70,10125,5,12,0,12,0,1,,,,,,,,,,,,,,,,,,,,,,,,,,,,,,,,,,,,,,,
,,,,,,,,2023-08-16_08h50.30.168,HF_wild_card,2022.2.4,Win32,59.93407252,63d3fb730f03adf8b4a28a37,64d2fd46c836a06233681665,64dc7f2670a266150a1270ca,,,,,,,ctch,resources/DG.BMP,resources/DB.BMP,Door4,0.401869159,-0.025441329,1,0,0,1.0899,optionRight,80,10205,5,13,0,13,0,1,,,,,,,,,,,,,,,,,,,,,,,,,,,,,,,,,,,,,,,
,,,,,,,,2023-08-16_08h50.30.168,HF_wild_card,2022.2.4,Win32,59.93407252,63d3fb730f03adf8b4a28a37,64d2fd46c836a06233681665,64dc7f2670a266150a1270ca,,,,,,,decisionTrl,resources/DR.BMP,resources/DG.BMP,Door1,0.463136033,-0.039979232,1,0,0,1.031,optionRight,30,10235,5,14,0,14,0,1,,,,,,,,,,,,,,,,,,,,,,,,,,,,,,,,,,,,,,,
,,,,,,,,2023-08-16_08h50.30.168,HF_wild_card,2022.2.4,Win32,59.93407252,63d3fb730f03adf8b4a28a37,64d2fd46c836a06233681665,64dc7f2670a266150a1270ca,,,,,,,sngl,resources/Empty.png,resources/DP.BMP,WildCard_Ex,0.412253375,-0.04517134,1,0,0,0.7198,optionRight,5,10240,5,15,0,15,0,1,,,,,,,,,,,,,,,,,,,,,,,,,,,,,,,,,,,,,,,
,,,,,,,,2023-08-16_08h50.30.168,HF_wild_card,2022.2.4,Win32,59.93407252,63d3fb730f03adf8b4a28a37,64d2fd46c836a06233681665,64dc7f2670a266150a1270ca,,,,,,,sngl,resources/DB.BMP,resources/Empty.png,Door4,-0.403946002,-0.005711319,1,0,0,0.6148,optionLeft,80,10320,5,16,0,16,0,1,,,,,,,,,,,,,,,,,,,,,,,,,,,,,,,,,,,,,,,
,,,,,,,,2023-08-16_08h50.30.168,HF_wild_card,2022.2.4,Win32,59.93407252,63d3fb730f03adf8b4a28a37,64d2fd46c836a06233681665,64dc7f2670a266150a1270ca,,,,,,,ctch,resources/DR.BMP,resources/DBN.BMP,Door3,0.394600208,-0.037902388,1,0,0,0.8156,optionRight,70,10390,5,17,0,17,0,1,,,,,,,,,,,,,,,,,,,,,,,,,,,,,,,,,,,,,,,
,,,,,,,,2023-08-16_08h50.30.168,HF_wild_card,2022.2.4,Win32,59.93407252,63d3fb730f03adf8b4a28a37,64d2fd46c836a06233681665,64dc7f2670a266150a1270ca,,,,,,,decisionTrl,resources/DR.BMP,resources/DG.BMP,Door1,0.438213915,-0.059709242,1,0,0,0.7485,optionRight,30,10420,5,18,0,18,0,1,,,,,,,,,,,,,,,,,,,,,,,,,,,,,,,,,,,,,,,
,,,,,,,,2023-08-16_08h50.30.168,HF_wild_card,2022.2.4,Win32,59.93407252,63d3fb730f03adf8b4a28a37,64d2fd46c836a06233681665,64dc7f2670a266150a1270ca,,,,,,,decisionTrl,resources/DBN.BMP,resources/DB.BMP,Door3,-0.355140187,-0.008826584,1,0,0,1.6319,optionLeft,70,10490,5,19,0,19,0,1,,,,,,,,,,,,,,,,,,,,,,,,,,,,,,,,,,,,,,,
,,,,,,,,2023-08-16_08h50.30.168,HF_wild_card,2022.2.4,Win32,59.93407252,63d3fb730f03adf8b4a28a37,64d2fd46c836a06233681665,64dc7f2670a266150a1270ca,,,,,,,sngl,resources/DBN.BMP,resources/Empty.png,Door3,-0.391484943,-0.016095535,1,0,0,0.615,optionLeft,70,10560,5,20,0,20,0,1,,,,,,,,,,,,,,,,,,,,,,,,,,,,,,,,,,,,,,,
,,,,,,,,2023-08-16_08h50.30.168,HF_wild_card,2022.2.4,Win32,59.93407252,63d3fb730f03adf8b4a28a37,64d2fd46c836a06233681665,64dc7f2670a266150a1270ca,,,,,,,sngl,resources/Empty.png,resources/DP.BMP,WildCard_Ex,0.384215992,-0.057632399,1,0,0,0.7617,optionRight,95,10655,5,21,0,21,0,1,,,,,,,,,,,,,,,,,,,,,,,,,,,,,,,,,,,,,,,
,,,,,,,,2023-08-16_08h50.30.168,HF_wild_card,2022.2.4,Win32,59.93407252,63d3fb730f03adf8b4a28a37,64d2fd46c836a06233681665,64dc7f2670a266150a1270ca,,,,,,,decisionTrl,resources/DBN.BMP,resources/DB.BMP,Door3,-0.386292835,-0.002596054,1,0,0,0.8014,optionLeft,70,10725,5,22,0,22,0,1,,,,,,,,,,,,,,,,,,,,,,,,,,,,,,,,,,,,,,,
,,,,,,,,2023-08-16_08h50.30.168,HF_wild_card,2022.2.4,Win32,59.93407252,63d3fb730f03adf8b4a28a37,64d2fd46c836a06233681665,64dc7f2670a266150a1270ca,,,,,,,sngl,resources/DP.BMP,resources/Empty.png,WildCard_Ex,-0.4807892,-0.063862928,1,0,0,0.634,optionLeft,5,10730,5,23,0,23,0,1,,,,,,,,,,,,,,,,,,,,,,,,,,,,,,,,,,,,,,,
,,,,,,,,2023-08-16_08h50.30.168,HF_wild_card,2022.2.4,Win32,59.93407252,63d3fb730f03adf8b4a28a37,64d2fd46c836a06233681665,64dc7f2670a266150a1270ca,,,,,,,decisionTrl,resources/DR.BMP,resources/DP.BMP,WildCard_Ex,0.339563863,-0.03894081,1,0,0,0.7314,optionRight,5,10735,5,24,0,24,0,1,,,,,,,,,,,,,,,,,,,,,,,,,,,,,,,,,,,,,,,
,,,,,,,,2023-08-16_08h50.30.168,HF_wild_card,2022.2.4,Win32,59.93407252,63d3fb730f03adf8b4a28a37,64d2fd46c836a06233681665,64dc7f2670a266150a1270ca,,,,,,,sngl,resources/DR.BMP,resources/Empty.png,Door2,-0.362409138,-0.056593977,1,0,0,0.584,optionLeft,40,10775,5,25,0,25,0,1,,,,,,,,,,,,,,,,,,,,,,,,,,,,,,,,,,,,,,,
,,,,,,,,2023-08-16_08h50.30.168,HF_wild_card,2022.2.4,Win32,59.93407252,63d3fb730f03adf8b4a28a37,64d2fd46c836a06233681665,64dc7f2670a266150a1270ca,,,,,,,sngl,resources/Empty.png,resources/DBN.BMP,Door3,0.460020768,-0.016095535,1,0,0,0.5156,optionRight,70,10845,5,26,0,26,0,1,,,,,,,,,,,,,,,,,,,,,,,,,,,,,,,,,,,,,,,
,,,,,,,,2023-08-16_08h50.30.168,HF_wild_card,2022.2.4,Win32,59.93407252,63d3fb730f03adf8b4a28a37,64d2fd46c836a06233681665,64dc7f2670a266150a1270ca,,,,,,,sngl,resources/Empty.png,resources/DG.BMP,Door1,0.385254413,-0.030633437,1,0,0,0.5684,optionRight,30,10875,5,27,0,27,0,1,,,,,,,,,,,,,,,,,,,,,,,,,,,,,,,,,,,,,,,
,,,,,,,,2023-08-16_08h50.30.168,HF_wild_card,2022.2.4,Win32,59.93407252,63d3fb730f03adf8b4a28a37,64d2fd46c836a06233681665,64dc7f2670a266150a1270ca,,,,,,,decisionTrl,resources/DP.BMP,resources/DB.BMP,Door4,0.404984424,-0.052440291,1,0,0,1.4017,optionRight,60,10935,5,28,0,28,0,1,,,,,,,,,,,,,,,,,,,,,,,,,,,,,,,,,,,,,,,
,,,,,,,,2023-08-16_08h50.30.168,HF_wild_card,2022.2.4,Win32,59.93407252,63d3fb730f03adf8b4a28a37,64d2fd46c836a06233681665,64dc7f2670a266150a1270ca,,,,,,,sngl,resources/Empty.png,resources/DR.BMP,Door2,0.352024922,-0.056593977,1,0,0,0.5802,optionRight,20,10955,5,29,0,29,0,1,,,,,,,,,,,,,,,,,,,,,,,,,,,,,,,,,,,,,,,
,,,,,,,,2023-08-16_08h50.30.168,HF_wild_card,2022.2.4,Win32,59.93407252,63d3fb730f03adf8b4a28a37,64d2fd46c836a06233681665,64dc7f2670a266150a1270ca,,,,,,,decisionTrl,resources/DG.BMP,resources/DP.BMP,WildCard_Ex,0.393561786,-0.043094496,1,0,0,1.5951,optionRight,5,10960,5,30,0,30,0,1,,,,,,,,,,,,,,,,,,,,,,,,,,,,,,,,,,,,,,,
,,,,,,,,2023-08-16_08h50.30.168,HF_wild_card,2022.2.4,Win32,59.93407252,63d3fb730f03adf8b4a28a37,64d2fd46c836a06233681665,64dc7f2670a266150a1270ca,,,,,,,sngl,resources/DP.BMP,resources/Empty.png,WildCard_Ex,-0.382139148,0.004672897,1,0,0,0.5487,optionLeft,95,11055,5,31,0,31,0,1,,,,,,,,,,,,,,,,,,,,,,,,,,,,,,,,,,,,,,,
,,,,,,,,2023-08-16_08h50.30.168,HF_wild_card,2022.2.4,Win32,59.93407252,63d3fb730f03adf8b4a28a37,64d2fd46c836a06233681665,64dc7f2670a266150a1270ca,,,,,,,decisionTrl,resources/DG.BMP,resources/DR.BMP,Door1,-0.335410177,-0.024402908,1,0,0,1.6684,optionLeft,30,11085,5,32,0,32,0,1,,,,,,,,,,,,,,,,,,,,,,,,,,,,,,,,,,,,,,,
,,,,,,,,2023-08-16_08h50.30.168,HF_wild_card,2022.2.4,Win32,59.93407252,63d3fb730f03adf8b4a28a37,64d2fd46c836a06233681665,64dc7f2670a266150a1270ca,,,,,,,ctch,resources/DBN.BMP,resources/DR.BMP,Door3,-0.354101765,-0.028556594,1,0,0,0.8294,optionLeft,70,11155,5,33,0,33,0,1,,,,,,,,,,,,,,,,,,,,,,,,,,,,,,,,,,,,,,,
,,,,,,,,2023-08-16_08h50.30.168,HF_wild_card,2022.2.4,Win32,59.93407252,63d3fb730f03adf8b4a28a37,64d2fd46c836a06233681665,64dc7f2670a266150a1270ca,,,,,,,decisionTrl,resources/DG.BMP,resources/DR.BMP,Door1,-0.342679128,-0.021287643,1,0,0,1.2467,optionLeft,30,11185,5,34,0,34,0,1,,,,,,,,,,,,,,,,,,,,,,,,,,,,,,,,,,,,,,,
,,,,,,,,2023-08-16_08h50.30.168,HF_wild_card,2022.2.4,Win32,59.93407252,63d3fb730f03adf8b4a28a37,64d2fd46c836a06233681665,64dc7f2670a266150a1270ca,,,,,,,sngl,resources/DG.BMP,resources/Empty.png,Door1,-0.308411215,-0.01298027,1,0,0,0.5456,optionLeft,30,11215,5,35,0,35,0,1,,,,,,,,,,,,,,,,,,,,,,,,,,,,,,,,,,,,,,,
,,,,,,,,2023-08-16_08h50.30.168,HF_wild_card,2022.2.4,Win32,59.93407252,63d3fb730f03adf8b4a28a37,64d2fd46c836a06233681665,64dc7f2670a266150a1270ca,,,,,,,ctch,resources/DB.BMP,resources/DG.BMP,Door4,-0.373831776,-0.046209761,1,0,0,0.9277,optionLeft,80,11295,5,36,0,36,0,1,,,,,,,,,,,,,,,,,,,,,,,,,,,,,,,,,,,,,,,
,,,,,,,,2023-08-16_08h50.30.168,HF_wild_card,2022.2.4,Win32,59.93407252,63d3fb730f03adf8b4a28a37,64d2fd46c836a06233681665,64dc7f2670a266150a1270ca,,,,,,,ctch,resources/DR.BMP,resources/DBN.BMP,Door3,0.340602285,-0.0192108,1,0,0,0.9176,optionRight,70,11365,5,37,0,37,0,1,,,,,,,,,,,,,,,,,,,,,,,,,,,,,,,,,,,,,,,
,,,,,,,,2023-08-16_08h50.30.168,HF_wild_card,2022.2.4,Win32,59.93407252,63d3fb730f03adf8b4a28a37,64d2fd46c836a06233681665,64dc7f2670a266150a1270ca,,,,,,,decisionTrl,resources/DB.BMP,resources/DBN.BMP,Door3,0.380062305,0.003634476,1,0,0,1.0311,optionRight,70,11435,5,38,0,38,0,1,,,,,,,,,,,,,,,,,,,,,,,,,,,,,,,,,,,,,,,
,,,,,,,,2023-08-16_08h50.30.168,HF_wild_card,2022.2.4,Win32,59.93407252,63d3fb730f03adf8b4a28a37,64d2fd46c836a06233681665,64dc7f2670a266150a1270ca,,,,,,,decisionTrl,resources/DR.BMP,resources/DG.BMP,Door1,0.408099688,-0.018172378,1,0,0,0.8165,optionRight,30,11465,5,39,0,39,0,1,,,,,,,,,,,,,,,,,,,,,,,,,,,,,,,,,,,,,,,
,,,,,,,,2023-08-16_08h50.30.168,HF_wild_card,2022.2.4,Win32,59.93407252,63d3fb730f03adf8b4a28a37,64d2fd46c836a06233681665,64dc7f2670a266150a1270ca,,,,,,,decisionTrl,resources/DG.BMP,resources/DR.BMP,Door1,-0.439252336,-0.043094496,1,0,0,0.6683,optionLeft,30,11495,5,40,0,40,0,1,,,,,,,,,,,,,,,,,,,,,,,,,,,,,,,,,,,,,,,
,,,,,,,,2023-08-16_08h50.30.168,HF_wild_card,2022.2.4,Win32,59.93407252,63d3fb730f03adf8b4a28a37,64d2fd46c836a06233681665,64dc7f2670a266150a1270ca,,,,,,,decisionTrl,resources/DB.BMP,resources/DBN.BMP,Door3,0.437175493,-0.031671859,1,0,0,0.9805,optionRight,70,11565,5,41,0,41,0,1,,,,,,,,,,,,,,,,,,,,,,,,,,,,,,,,,,,,,,,
,,,,,,,,2023-08-16_08h50.30.168,HF_wild_card,2022.2.4,Win32,59.93407252,63d3fb730f03adf8b4a28a37,64d2fd46c836a06233681665,64dc7f2670a266150a1270ca,,,,,,,decisionTrl,resources/DB.BMP,resources/DP.BMP,Door4,-0.381100727,-0.048286604,1,0,0,1.5683,optionLeft,60,11625,5,42,0,42,0,1,,,,,,,,,,,,,,,,,,,,,,,,,,,,,,,,,,,,,,,
,,,,,,,,2023-08-16_08h50.30.168,HF_wild_card,2022.2.4,Win32,59.93407252,63d3fb730f03adf8b4a28a37,64d2fd46c836a06233681665,64dc7f2670a266150a1270ca,,,,,,,ctch,resources/DBN.BMP,resources/DR.BMP,Door3,-0.40913811,-0.031671859,1,0,0,0.6276,optionLeft,70,11695,5,43,0,43,0,1,,,,,,,,,,,,,,,,,,,,,,,,,,,,,,,,,,,,,,,
,,,,,,,,2023-08-16_08h50.30.168,HF_wild_card,2022.2.4,Win32,59.93407252,63d3fb730f03adf8b4a28a37,64d2fd46c836a06233681665,64dc7f2670a266150a1270ca,,,,,,,,,,,,,,,,,,,,,,,,,,4,0,4,0,1,,,,,,,,,,,,,,,,,,,,,,,,,,,,,,,,,,
,,,,,,,,2023-08-16_08h50.30.168,HF_wild_card,2022.2.4,Win32,59.93407252,63d3fb730f03adf8b4a28a37,64d2fd46c836a06233681665,64dc7f2670a266150a1270ca,,,,,,,sngl,resources/Empty.png,resources/DP.BMP,WildCard_Ex,0.418483904,-0.076323988,1,0,0,0.5915,optionRight,95,11790,6,0,0,0,0,1,,,,,,,,,,,,,,,,,,,,,,,,,,,,,,,,,,,,,,,
,,,,,,,,2023-08-16_08h50.30.168,HF_wild_card,2022.2.4,Win32,59.93407252,63d3fb730f03adf8b4a28a37,64d2fd46c836a06233681665,64dc7f2670a266150a1270ca,,,,,,,decisionTrl,resources/DBN.BMP,resources/DB.BMP,Door3,-0.374870197,-0.007788162,1,0,0,1.9304,optionLeft,70,11860,6,1,0,1,0,1,,,,,,,,,,,,,,,,,,,,,,,,,,,,,,,,,,,,,,,
,,,,,,,,2023-08-16_08h50.30.168,HF_wild_card,2022.2.4,Win32,59.93407252,63d3fb730f03adf8b4a28a37,64d2fd46c836a06233681665,64dc7f2670a266150a1270ca,,,,,,,decisionTrl,resources/DP.BMP,resources/DBN.BMP,Door3,0.330218069,-0.014018692,1,0,0,1.0486,optionRight,70,11930,6,2,0,2,0,1,,,,,,,,,,,,,,,,,,,,,,,,,,,,,,,,,,,,,,,
,,,,,,,,2023-08-16_08h50.30.168,HF_wild_card,2022.2.4,Win32,59.93407252,63d3fb730f03adf8b4a28a37,64d2fd46c836a06233681665,64dc7f2670a266150a1270ca,,,,,,,sngl,resources/Empty.png,resources/DG.BMP,Door1,0.396677051,-0.034787124,1,0,0,0.564,optionRight,30,11960,6,3,0,3,0,1,,,,,,,,,,,,,,,,,,,,,,,,,,,,,,,,,,,,,,,
,,,,,,,,2023-08-16_08h50.30.168,HF_wild_card,2022.2.4,Win32,59.93407252,63d3fb730f03adf8b4a28a37,64d2fd46c836a06233681665,64dc7f2670a266150a1270ca,,,,,,,sngl,resources/Empty.png,resources/DB.BMP,Door4,0.380062305,-0.022326064,1,0,0,0.5186,optionRight,80,12040,6,4,0,4,0,1,,,,,,,,,,,,,,,,,,,,,,,,,,,,,,,,,,,,,,,
,,,,,,,,2023-08-16_08h50.30.168,HF_wild_card,2022.2.4,Win32,59.93407252,63d3fb730f03adf8b4a28a37,64d2fd46c836a06233681665,64dc7f2670a266150a1270ca,,,,,,,decisionTrl,resources/DBN.BMP,resources/DB.BMP,Door3,-0.440290758,-0.023364486,1,0,0,1.0489,optionLeft,70,12110,6,5,0,5,0,1,,,,,,,,,,,,,,,,,,,,,,,,,,,,,,,,,,,,,,,
,,,,,,,,2023-08-16_08h50.30.168,HF_wild_card,2022.2.4,Win32,59.93407252,63d3fb730f03adf8b4a28a37,64d2fd46c836a06233681665,64dc7f2670a266150a1270ca,,,,,,,decisionTrl,resources/DB.BMP,resources/DBN.BMP,Door3,0.40913811,-0.017133956,1,0,0,0.9314,optionRight,70,12180,6,6,0,6,0,1,,,,,,,,,,,,,,,,,,,,,,,,,,,,,,,,,,,,,,,
,,,,,,,,2023-08-16_08h50.30.168,HF_wild_card,2022.2.4,Win32,59.93407252,63d3fb730f03adf8b4a28a37,64d2fd46c836a06233681665,64dc7f2670a266150a1270ca,,,,,,,sngl,resources/DP.BMP,resources/Empty.png,WildCard_Ex,-0.318795431,-0.0192108,1,0,0,0.5822,optionLeft,95,12275,6,7,0,7,0,1,,,,,,,,,,,,,,,,,,,,,,,,,,,,,,,,,,,,,,,
,,,,,,,,2023-08-16_08h50.30.168,HF_wild_card,2022.2.4,Win32,59.93407252,63d3fb730f03adf8b4a28a37,64d2fd46c836a06233681665,64dc7f2670a266150a1270ca,,,,,,,decisionTrl,resources/DG.BMP,resources/DR.BMP,Door1,-0.329179647,-0.021287643,1,0,0,1.096,optionLeft,30,12305,6,8,0,8,0,1,,,,,,,,,,,,,,,,,,,,,,,,,,,,,,,,,,,,,,,
,,,,,,,,2023-08-16_08h50.30.168,HF_wild_card,2022.2.4,Win32,59.93407252,63d3fb730f03adf8b4a28a37,64d2fd46c836a06233681665,64dc7f2670a266150a1270ca,,,,,,,ctch,resources/DR.BMP,resources/DBN.BMP,Door3,0.354101765,-0.010903427,1,0,0,0.7784,optionRight,70,12375,6,9,0,9,0,1,,,,,,,,,,,,,,,,,,,,,,,,,,,,,,,,,,,,,,,
,,,,,,,,2023-08-16_08h50.30.168,HF_wild_card,2022.2.4,Win32,59.93407252,63d3fb730f03adf8b4a28a37,64d2fd46c836a06233681665,64dc7f2670a266150a1270ca,,,,,,,decisionTrl,resources/DR.BMP,resources/DG.BMP,Door2,-0.420560748,-0.055555556,1,0,0,0.7341,optionLeft,20,12395,6,10,0,10,0,1,,,,,,,,,,,,,,,,,,,,,,,,,,,,,,,,,,,,,,,
,,,,,,,,2023-08-16_08h50.30.168,HF_wild_card,2022.2.4,Win32,59.93407252,63d3fb730f03adf8b4a28a37,64d2fd46c836a06233681665,64dc7f2670a266150a1270ca,,,,,,,decisionTrl,resources/DG.BMP,resources/DR.BMP,Door1,-0.380062305,-0.043094496,1,0,0,0.6802,optionLeft,30,12425,6,11,0,11,0,1,,,,,,,,,,,,,,,,,,,,,,,,,,,,,,,,,,,,,,,
,,,,,,,,2023-08-16_08h50.30.168,HF_wild_card,2022.2.4,Win32,59.93407252,63d3fb730f03adf8b4a28a37,64d2fd46c836a06233681665,64dc7f2670a266150a1270ca,,,,,,,decisionTrl,resources/DB.BMP,resources/DP.BMP,Door4,-0.379023884,-0.048286604,1,0,0,1.1651,optionLeft,80,12505,6,12,0,12,0,1,,,,,,,,,,,,,,,,,,,,,,,,,,,,,,,,,,,,,,,
,,,,,,,,2023-08-16_08h50.30.168,HF_wild_card,2022.2.4,Win32,59.93407252,63d3fb730f03adf8b4a28a37,64d2fd46c836a06233681665,64dc7f2670a266150a1270ca,,,,,,,ctch,resources/DBN.BMP,resources/DR.BMP,Door3,-0.412253375,-0.041017653,1,0,0,0.7283,optionLeft,70,12575,6,13,0,13,0,1,,,,,,,,,,,,,,,,,,,,,,,,,,,,,,,,,,,,,,,
,,,,,,,,2023-08-16_08h50.30.168,HF_wild_card,2022.2.4,Win32,59.93407252,63d3fb730f03adf8b4a28a37,64d2fd46c836a06233681665,64dc7f2670a266150a1270ca,,,,,,,ctch,resources/DBN.BMP,resources/DR.BMP,Door3,-0.427829699,-0.052440291,1,0,0,0.5954,optionLeft,70,12645,6,14,0,14,0,1,,,,,,,,,,,,,,,,,,,,,,,,,,,,,,,,,,,,,,,
,,,,,,,,2023-08-16_08h50.30.168,HF_wild_card,2022.2.4,Win32,59.93407252,63d3fb730f03adf8b4a28a37,64d2fd46c836a06233681665,64dc7f2670a266150a1270ca,,,,,,,decisionTrl,resources/DP.BMP,resources/DB.BMP,Door4,0.345794393,-0.047248183,1,0,0,1.0675,optionRight,80,12725,6,15,0,15,0,1,,,,,,,,,,,,,,,,,,,,,,,,,,,,,,,,,,,,,,,
,,,,,,,,2023-08-16_08h50.30.168,HF_wild_card,2022.2.4,Win32,59.93407252,63d3fb730f03adf8b4a28a37,64d2fd46c836a06233681665,64dc7f2670a266150a1270ca,,,,,,,decisionTrl,resources/DP.BMP,resources/DR.BMP,WildCard_Ex,-0.301142264,-0.050363448,1,0,0,0.9509,optionLeft,95,12820,6,16,0,16,0,1,,,,,,,,,,,,,,,,,,,,,,,,,,,,,,,,,,,,,,,
,,,,,,,,2023-08-16_08h50.30.168,HF_wild_card,2022.2.4,Win32,59.93407252,63d3fb730f03adf8b4a28a37,64d2fd46c836a06233681665,64dc7f2670a266150a1270ca,,,,,,,decisionTrl,resources/DP.BMP,resources/DG.BMP,WildCard_Ex,-0.341640706,-0.048286604,1,0,0,0.732,optionLeft,95,12915,6,17,0,17,0,1,,,,,,,,,,,,,,,,,,,,,,,,,,,,,,,,,,,,,,,
,,,,,,,,2023-08-16_08h50.30.168,HF_wild_card,2022.2.4,Win32,59.93407252,63d3fb730f03adf8b4a28a37,64d2fd46c836a06233681665,64dc7f2670a266150a1270ca,,,,,,,sngl,resources/Empty.png,resources/DP.BMP,WildCard_Ex,0.491173416,-0.077362409,1,0,0,0.6809,optionRight,5,12920,6,18,0,18,0,1,,,,,,,,,,,,,,,,,,,,,,,,,,,,,,,,,,,,,,,
,,,,,,,,2023-08-16_08h50.30.168,HF_wild_card,2022.2.4,Win32,59.93407252,63d3fb730f03adf8b4a28a37,64d2fd46c836a06233681665,64dc7f2670a266150a1270ca,,,,,,,decisionTrl,resources/DBN.BMP,resources/DB.BMP,Door4,0.417445483,-0.026479751,1,0,0,0.8807,optionRight,80,13000,6,19,0,19,0,1,,,,,,,,,,,,,,,,,,,,,,,,,,,,,,,,,,,,,,,
,,,,,,,,2023-08-16_08h50.30.168,HF_wild_card,2022.2.4,Win32,59.93407252,63d3fb730f03adf8b4a28a37,64d2fd46c836a06233681665,64dc7f2670a266150a1270ca,,,,,,,decisionTrl,resources/DR.BMP,resources/DP.BMP,WildCard_Ex,0.372793354,-0.079439252,1,0,0,0.6817,optionRight,95,13095,6,20,0,20,0,1,,,,,,,,,,,,,,,,,,,,,,,,,,,,,,,,,,,,,,,
,,,,,,,,2023-08-16_08h50.30.168,HF_wild_card,2022.2.4,Win32,59.93407252,63d3fb730f03adf8b4a28a37,64d2fd46c836a06233681665,64dc7f2670a266150a1270ca,,,,,,,decisionTrl,resources/DB.BMP,resources/DBN.BMP,Door3,0.344755971,-0.020249221,1,0,0,0.6984,optionRight,70,13165,6,21,0,21,0,1,,,,,,,,,,,,,,,,,,,,,,,,,,,,,,,,,,,,,,,
,,,,,,,,2023-08-16_08h50.30.168,HF_wild_card,2022.2.4,Win32,59.93407252,63d3fb730f03adf8b4a28a37,64d2fd46c836a06233681665,64dc7f2670a266150a1270ca,,,,,,,decisionTrl,resources/DG.BMP,resources/DP.BMP,WildCard_Ex,0.406022845,-0.049325026,1,0,0,1.116,optionRight,95,13260,6,22,0,22,0,1,,,,,,,,,,,,,,,,,,,,,,,,,,,,,,,,,,,,,,,
,,,,,,,,2023-08-16_08h50.30.168,HF_wild_card,2022.2.4,Win32,59.93407252,63d3fb730f03adf8b4a28a37,64d2fd46c836a06233681665,64dc7f2670a266150a1270ca,,,,,,,decisionTrl,resources/DR.BMP,resources/DG.BMP,Door1,0.433021807,-0.018172378,1,0,0,1.0481,optionRight,30,13290,6,23,0,23,0,1,,,,,,,,,,,,,,,,,,,,,,,,,,,,,,,,,,,,,,,
,,,,,,,,2023-08-16_08h50.30.168,HF_wild_card,2022.2.4,Win32,59.93407252,63d3fb730f03adf8b4a28a37,64d2fd46c836a06233681665,64dc7f2670a266150a1270ca,,,,,,,decisionTrl,resources/DBN.BMP,resources/DB.BMP,Door3,-0.382139148,-0.018172378,1,0,0,1.1986,optionLeft,70,13360,6,24,0,24,0,1,,,,,,,,,,,,,,,,,,,,,,,,,,,,,,,,,,,,,,,
,,,,,,,,2023-08-16_08h50.30.168,HF_wild_card,2022.2.4,Win32,59.93407252,63d3fb730f03adf8b4a28a37,64d2fd46c836a06233681665,64dc7f2670a266150a1270ca,,,,,,,decisionTrl,resources/DG.BMP,resources/DR.BMP,Door1,-0.372793354,0.01298027,1,0,0,1.101,optionLeft,30,13390,6,25,0,25,0,1,,,,,,,,,,,,,,,,,,,,,,,,,,,,,,,,,,,,,,,
,,,,,,,,2023-08-16_08h50.30.168,HF_wild_card,2022.2.4,Win32,59.93407252,63d3fb730f03adf8b4a28a37,64d2fd46c836a06233681665,64dc7f2670a266150a1270ca,,,,,,,ctch,resources/DG.BMP,resources/DB.BMP,Door4,0.382139148,-0.046209761,1,0,0,0.8952,optionRight,80,13470,6,26,0,26,0,1,,,,,,,,,,,,,,,,,,,,,,,,,,,,,,,,,,,,,,,
,,,,,,,,2023-08-16_08h50.30.168,HF_wild_card,2022.2.4,Win32,59.93407252,63d3fb730f03adf8b4a28a37,64d2fd46c836a06233681665,64dc7f2670a266150a1270ca,,,,,,,sngl,resources/Empty.png,resources/DR.BMP,Door2,0.286604361,-0.0192108,1,0,0,0.6839,optionRight,40,13510,6,27,0,27,0,1,,,,,,,,,,,,,,,,,,,,,,,,,,,,,,,,,,,,,,,
,,,,,,,,2023-08-16_08h50.30.168,HF_wild_card,2022.2.4,Win32,59.93407252,63d3fb730f03adf8b4a28a37,64d2fd46c836a06233681665,64dc7f2670a266150a1270ca,,,,,,,ctch,resources/DB.BMP,resources/DG.BMP,Door4,-0.321910696,-0.04517134,1,0,0,0.9285,optionLeft,60,13570,6,28,0,28,0,1,,,,,,,,,,,,,,,,,,,,,,,,,,,,,,,,,,,,,,,
,,,,,,,,2023-08-16_08h50.30.168,HF_wild_card,2022.2.4,Win32,59.93407252,63d3fb730f03adf8b4a28a37,64d2fd46c836a06233681665,64dc7f2670a266150a1270ca,,,,,,,decisionTrl,resources/DB.BMP,resources/DBN.BMP,Door3,0.418483904,0.002596054,1,0,0,0.6333,optionRight,70,13640,6,29,0,29,0,1,,,,,,,,,,,,,,,,,,,,,,,,,,,,,,,,,,,,,,,
,,,,,,,,2023-08-16_08h50.30.168,HF_wild_card,2022.2.4,Win32,59.93407252,63d3fb730f03adf8b4a28a37,64d2fd46c836a06233681665,64dc7f2670a266150a1270ca,,,,,,,sngl,resources/DR.BMP,resources/Empty.png,Door2,-0.265835929,-0.00674974,1,0,0,0.585,optionLeft,20,13660,6,30,0,30,0,1,,,,,,,,,,,,,,,,,,,,,,,,,,,,,,,,,,,,,,,
,,,,,,,,2023-08-16_08h50.30.168,HF_wild_card,2022.2.4,Win32,59.93407252,63d3fb730f03adf8b4a28a37,64d2fd46c836a06233681665,64dc7f2670a266150a1270ca,,,,,,,decisionTrl,resources/DG.BMP,resources/DR.BMP,Door1,-0.419522326,-0.046209761,1,0,0,1.0286,optionLeft,30,13690,6,31,0,31,0,1,,,,,,,,,,,,,,,,,,,,,,,,,,,,,,,,,,,,,,,
,,,,,,,,2023-08-16_08h50.30.168,HF_wild_card,2022.2.4,Win32,59.93407252,63d3fb730f03adf8b4a28a37,64d2fd46c836a06233681665,64dc7f2670a266150a1270ca,,,,,,,sngl,resources/DP.BMP,resources/Empty.png,WildCard_Ex,-0.395638629,-0.028556594,1,0,0,0.552,optionLeft,5,13695,6,32,0,32,0,1,,,,,,,,,,,,,,,,,,,,,,,,,,,,,,,,,,,,,,,
,,,,,,,,2023-08-16_08h50.30.168,HF_wild_card,2022.2.4,Win32,59.93407252,63d3fb730f03adf8b4a28a37,64d2fd46c836a06233681665,64dc7f2670a266150a1270ca,,,,,,,decisionTrl,resources/DR.BMP,resources/DG.BMP,Door1,0.524402908,-0.027518172,1,0,0,0.8025,optionRight,30,13725,6,33,0,33,0,1,,,,,,,,,,,,,,,,,,,,,,,,,,,,,,,,,,,,,,,
,,,,,,,,2023-08-16_08h50.30.168,HF_wild_card,2022.2.4,Win32,59.93407252,63d3fb730f03adf8b4a28a37,64d2fd46c836a06233681665,64dc7f2670a266150a1270ca,,,,,,,ctch,resources/DR.BMP,resources/DBN.BMP,Door3,0.394600208,-0.005711319,1,0,0,0.6517,optionRight,70,13795,6,34,0,34,0,1,,,,,,,,,,,,,,,,,,,,,,,,,,,,,,,,,,,,,,,
,,,,,,,,2023-08-16_08h50.30.168,HF_wild_card,2022.2.4,Win32,59.93407252,63d3fb730f03adf8b4a28a37,64d2fd46c836a06233681665,64dc7f2670a266150a1270ca,,,,,,,ctch,resources/DB.BMP,resources/DG.BMP,Door4,-0.339563863,-0.03271028,1,0,0,0.9104,optionLeft,80,13875,6,35,0,35,0,1,,,,,,,,,,,,,,,,,,,,,,,,,,,,,,,,,,,,,,,
,,,,,,,,2023-08-16_08h50.30.168,HF_wild_card,2022.2.4,Win32,59.93407252,63d3fb730f03adf8b4a28a37,64d2fd46c836a06233681665,64dc7f2670a266150a1270ca,,,,,,,sngl,resources/DB.BMP,resources/Empty.png,Door4,-0.426791277,-0.010903427,1,0,0,0.5681,optionLeft,60,13935,6,36,0,36,0,1,,,,,,,,,,,,,,,,,,,,,,,,,,,,,,,,,,,,,,,
,,,,,,,,2023-08-16_08h50.30.168,HF_wild_card,2022.2.4,Win32,59.93407252,63d3fb730f03adf8b4a28a37,64d2fd46c836a06233681665,64dc7f2670a266150a1270ca,,,,,,,decisionTrl,resources/DB.BMP,resources/DBN.BMP,Door3,0.398753894,-0.003634476,1,0,0,0.7341,optionRight,70,14005,6,37,0,37,0,1,,,,,,,,,,,,,,,,,,,,,,,,,,,,,,,,,,,,,,,
,,,,,,,,2023-08-16_08h50.30.168,HF_wild_card,2022.2.4,Win32,59.93407252,63d3fb730f03adf8b4a28a37,64d2fd46c836a06233681665,64dc7f2670a266150a1270ca,,,,,,,decisionTrl,resources/DR.BMP,resources/DG.BMP,Door1,0.31152648,-0.001557632,1,0,0,0.945,optionRight,30,14035,6,38,0,38,0,1,,,,,,,,,,,,,,,,,,,,,,,,,,,,,,,,,,,,,,,
,,,,,,,,2023-08-16_08h50.30.168,HF_wild_card,2022.2.4,Win32,59.93407252,63d3fb730f03adf8b4a28a37,64d2fd46c836a06233681665,64dc7f2670a266150a1270ca,,,,,,,sngl,resources/Empty.png,resources/DBN.BMP,Door3,0.460020768,-0.014018692,1,0,0,0.4509,optionRight,70,14105,6,39,0,39,0,1,,,,,,,,,,,,,,,,,,,,,,,,,,,,,,,,,,,,,,,
,,,,,,,,2023-08-16_08h50.30.168,HF_wild_card,2022.2.4,Win32,59.93407252,63d3fb730f03adf8b4a28a37,64d2fd46c836a06233681665,64dc7f2670a266150a1270ca,,,,,,,ctch,resources/DG.BMP,resources/DB.BMP,Door4,0.330218069,0.008826584,1,0,0,0.7981,optionRight,80,14185,6,40,0,40,0,1,,,,,,,,,,,,,,,,,,,,,,,,,,,,,,,,,,,,,,,
,,,,,,,,2023-08-16_08h50.30.168,HF_wild_card,2022.2.4,Win32,59.93407252,63d3fb730f03adf8b4a28a37,64d2fd46c836a06233681665,64dc7f2670a266150a1270ca,,,,,,,sngl,resources/DG.BMP,resources/Empty.png,Door1,-0.385254413,-0.001557632,1,0,0,0.5486,optionLeft,30,14215,6,41,0,41,0,1,,,,,,,,,,,,,,,,,,,,,,,,,,,,,,,,,,,,,,,
,,,,,,,,2023-08-16_08h50.30.168,HF_wild_card,2022.2.4,Win32,59.93407252,63d3fb730f03adf8b4a28a37,64d2fd46c836a06233681665,64dc7f2670a266150a1270ca,,,,,,,sngl,resources/DBN.BMP,resources/Empty.png,Door3,-0.298026999,-0.0192108,1,0,0,0.5315,optionLeft,70,14285,6,42,0,42,0,1,,,,,,,,,,,,,,,,,,,,,,,,,,,,,,,,,,,,,,,
,,,,,,,,2023-08-16_08h50.30.168,HF_wild_card,2022.2.4,Win32,59.93407252,63d3fb730f03adf8b4a28a37,64d2fd46c836a06233681665,64dc7f2670a266150a1270ca,,,,,,,decisionTrl,resources/DBN.BMP,resources/DP.BMP,Door3,-0.366562825,-0.01298027,1,0,0,1.4121,optionLeft,70,14355,6,43,0,43,0,1,,,,,,,,,,,,,,,,,,,,,,,,,,,,,,,,,,,,,,,
,,,,,,,,2023-08-16_08h50.30.168,HF_wild_card,2022.2.4,Win32,59.93407252,63d3fb730f03adf8b4a28a37,64d2fd46c836a06233681665,64dc7f2670a266150a1270ca,,,,,,,,,,,,,,,,,,,,,,,,,,5,0,5,0,1,,,,,,,,,,,,,,,,,,,,,,,,,,,,,,,,,,
,,,,,,,,2023-08-16_08h50.30.168,HF_wild_card,2022.2.4,Win32,59.93407252,63d3fb730f03adf8b4a28a37,64d2fd46c836a06233681665,64dc7f2670a266150a1270ca,,,,,,,decisionTrl,resources/DBN.BMP,resources/DB.BMP,Door3,-0.392523364,-0.003634476,1,0,0,1.5578,optionLeft,70,14425,7,0,0,0,0,1,,,,,,,,,,,,,,,,,,,,,,,,,,,,,,,,,,,,,,,
,,,,,,,,2023-08-16_08h50.30.168,HF_wild_card,2022.2.4,Win32,59.93407252,63d3fb730f03adf8b4a28a37,64d2fd46c836a06233681665,64dc7f2670a266150a1270ca,,,,,,,decisionTrl,resources/DBN.BMP,resources/DB.BMP,Door3,-0.33748702,0.004672897,1,0,0,0.9123,optionLeft,70,14495,7,1,0,1,0,1,,,,,,,,,,,,,,,,,,,,,,,,,,,,,,,,,,,,,,,
,,,,,,,,2023-08-16_08h50.30.168,HF_wild_card,2022.2.4,Win32,59.93407252,63d3fb730f03adf8b4a28a37,64d2fd46c836a06233681665,64dc7f2670a266150a1270ca,,,,,,,ctch,resources/DB.BMP,resources/DG.BMP,Door4,-0.439252336,-0.044132918,1,0,0,1.7649,optionLeft,60,14555,7,2,0,2,0,1,,,,,,,,,,,,,,,,,,,,,,,,,,,,,,,,,,,,,,,
,,,,,,,,2023-08-16_08h50.30.168,HF_wild_card,2022.2.4,Win32,59.93407252,63d3fb730f03adf8b4a28a37,64d2fd46c836a06233681665,64dc7f2670a266150a1270ca,,,,,,,decisionTrl,resources/DG.BMP,resources/DR.BMP,Door1,-0.364485981,-0.018172378,1,0,0,1.2314,optionLeft,30,14585,7,3,0,3,0,1,,,,,,,,,,,,,,,,,,,,,,,,,,,,,,,,,,,,,,,
,,,,,,,,2023-08-16_08h50.30.168,HF_wild_card,2022.2.4,Win32,59.93407252,63d3fb730f03adf8b4a28a37,64d2fd46c836a06233681665,64dc7f2670a266150a1270ca,,,,,,,decisionTrl,resources/DG.BMP,resources/DR.BMP,Door1,-0.332294912,-0.022326064,1,0,0,0.766,optionLeft,30,14615,7,4,0,4,0,1,,,,,,,,,,,,,,,,,,,,,,,,,,,,,,,,,,,,,,,
,,,,,,,,2023-08-16_08h50.30.168,HF_wild_card,2022.2.4,Win32,59.93407252,63d3fb730f03adf8b4a28a37,64d2fd46c836a06233681665,64dc7f2670a266150a1270ca,,,,,,,decisionTrl,resources/DB.BMP,resources/DBN.BMP,Door3,0.391484943,-0.00674974,1,0,0,1.1144,optionRight,70,14685,7,5,0,5,0,1,,,,,,,,,,,,,,,,,,,,,,,,,,,,,,,,,,,,,,,
,,,,,,,,2023-08-16_08h50.30.168,HF_wild_card,2022.2.4,Win32,59.93407252,63d3fb730f03adf8b4a28a37,64d2fd46c836a06233681665,64dc7f2670a266150a1270ca,,,,,,,decisionTrl,resources/DR.BMP,resources/DG.BMP,Door1,0.413291796,-0.008826584,1,0,0,1.2682,optionRight,30,14715,7,6,0,6,0,1,,,,,,,,,,,,,,,,,,,,,,,,,,,,,,,,,,,,,,,
,,,,,,,,2023-08-16_08h50.30.168,HF_wild_card,2022.2.4,Win32,59.93407252,63d3fb730f03adf8b4a28a37,64d2fd46c836a06233681665,64dc7f2670a266150a1270ca,,,,,,,ctch,resources/DG.BMP,resources/DB.BMP,Door4,0.370716511,-0.033748702,1,0,0,1.1461,optionRight,80,14795,7,7,0,7,0,1,,,,,,,,,,,,,,,,,,,,,,,,,,,,,,,,,,,,,,,
,,,,,,,,2023-08-16_08h50.30.168,HF_wild_card,2022.2.4,Win32,59.93407252,63d3fb730f03adf8b4a28a37,64d2fd46c836a06233681665,64dc7f2670a266150a1270ca,,,,,,,decisionTrl,resources/DG.BMP,resources/DR.BMP,Door1,-0.326064382,-0.01298027,1,0,0,0.9522,optionLeft,30,14825,7,8,0,8,0,1,,,,,,,,,,,,,,,,,,,,,,,,,,,,,,,,,,,,,,,
,,,,,,,,2023-08-16_08h50.30.168,HF_wild_card,2022.2.4,Win32,59.93407252,63d3fb730f03adf8b4a28a37,64d2fd46c836a06233681665,64dc7f2670a266150a1270ca,,,,,,,decisionTrl,resources/DBN.BMP,resources/DB.BMP,Door3,-0.424714434,-0.00674974,1,0,0,0.9457,optionLeft,70,14895,7,9,0,9,0,1,,,,,,,,,,,,,,,,,,,,,,,,,,,,,,,,,,,,,,,
,,,,,,,,2023-08-16_08h50.30.168,HF_wild_card,2022.2.4,Win32,59.93407252,63d3fb730f03adf8b4a28a37,64d2fd46c836a06233681665,64dc7f2670a266150a1270ca,,,,,,,decisionTrl,resources/DB.BMP,resources/DBN.BMP,Door3,0.394600208,0.008826584,1,0,0,0.9284,optionRight,70,14965,7,10,0,10,0,1,,,,,,,,,,,,,,,,,,,,,,,,,,,,,,,,,,,,,,,
,,,,,,,,2023-08-16_08h50.30.168,HF_wild_card,2022.2.4,Win32,59.93407252,63d3fb730f03adf8b4a28a37,64d2fd46c836a06233681665,64dc7f2670a266150a1270ca,,,,,,,decisionTrl,resources/DR.BMP,resources/DG.BMP,Door1,0.399792316,-0.007788162,1,0,0,0.8678,optionRight,30,14995,7,11,0,11,0,1,,,,,,,,,,,,,,,,,,,,,,,,,,,,,,,,,,,,,,,
,,,,,,,,2023-08-16_08h50.30.168,HF_wild_card,2022.2.4,Win32,59.93407252,63d3fb730f03adf8b4a28a37,64d2fd46c836a06233681665,64dc7f2670a266150a1270ca,,,,,,,ctch,resources/DB.BMP,resources/DG.BMP,Door4,-0.38317757,-0.011941848,1,0,0,0.8986,optionLeft,80,15075,7,12,0,12,0,1,,,,,,,,,,,,,,,,,,,,,,,,,,,,,,,,,,,,,,,
,,,,,,,,2023-08-16_08h50.30.168,HF_wild_card,2022.2.4,Win32,59.93407252,63d3fb730f03adf8b4a28a37,64d2fd46c836a06233681665,64dc7f2670a266150a1270ca,,,,,,,ctch,resources/DBN.BMP,resources/DR.BMP,Door3,-0.334371755,0.008826584,1,0,0,0.983,optionLeft,70,15145,7,13,0,13,0,1,,,,,,,,,,,,,,,,,,,,,,,,,,,,,,,,,,,,,,,
,,,,,,,,2023-08-16_08h50.30.168,HF_wild_card,2022.2.4,Win32,59.93407252,63d3fb730f03adf8b4a28a37,64d2fd46c836a06233681665,64dc7f2670a266150a1270ca,,,,,,,decisionTrl,resources/DBN.BMP,resources/DB.BMP,Door3,-0.382139148,0.01298027,1,0,0,1.1013,optionLeft,70,15215,7,14,0,14,0,1,,,,,,,,,,,,,,,,,,,,,,,,,,,,,,,,,,,,,,,
,,,,,,,,2023-08-16_08h50.30.168,HF_wild_card,2022.2.4,Win32,59.93407252,63d3fb730f03adf8b4a28a37,64d2fd46c836a06233681665,64dc7f2670a266150a1270ca,,,,,,,decisionTrl,resources/DG.BMP,resources/DR.BMP,Door1,-0.360332295,0.00674974,1,0,0,0.8986,optionLeft,30,15245,7,15,0,15,0,1,,,,,,,,,,,,,,,,,,,,,,,,,,,,,,,,,,,,,,,
,,,,,,,,2023-08-16_08h50.30.168,HF_wild_card,2022.2.4,Win32,59.93407252,63d3fb730f03adf8b4a28a37,64d2fd46c836a06233681665,64dc7f2670a266150a1270ca,,,,,,,decisionTrl,resources/DB.BMP,resources/DBN.BMP,Door3,0.414330218,-0.008826584,1,0,0,1.0998,optionRight,70,15315,7,16,0,16,0,1,,,,,,,,,,,,,,,,,,,,,,,,,,,,,,,,,,,,,,,
,,,,,,,,2023-08-16_08h50.30.168,HF_wild_card,2022.2.4,Win32,59.93407252,63d3fb730f03adf8b4a28a37,64d2fd46c836a06233681665,64dc7f2670a266150a1270ca,,,,,,,ctch,resources/DB.BMP,resources/DG.BMP,Door4,-0.408099688,-0.063862928,1,0,0,0.7782,optionLeft,80,15395,7,17,0,17,0,1,,,,,,,,,,,,,,,,,,,,,,,,,,,,,,,,,,,,,,,
,,,,,,,,2023-08-16_08h50.30.168,HF_wild_card,2022.2.4,Win32,59.93407252,63d3fb730f03adf8b4a28a37,64d2fd46c836a06233681665,64dc7f2670a266150a1270ca,,,,,,,ctch,resources/DR.BMP,resources/DBN.BMP,Door3,0.362409138,-0.008826584,1,0,0,0.663,optionRight,70,15465,7,18,0,18,0,1,,,,,,,,,,,,,,,,,,,,,,,,,,,,,,,,,,,,,,,
,,,,,,,,2023-08-16_08h50.30.168,HF_wild_card,2022.2.4,Win32,59.93407252,63d3fb730f03adf8b4a28a37,64d2fd46c836a06233681665,64dc7f2670a266150a1270ca,,,,,,,decisionTrl,resources/DG.BMP,resources/DR.BMP,Door1,-0.40913811,-0.024402908,1,0,0,0.78,optionLeft,30,15495,7,19,0,19,0,1,,,,,,,,,,,,,,,,,,,,,,,,,,,,,,,,,,,,,,,
,,,,,,,,2023-08-16_08h50.30.168,HF_wild_card,2022.2.4,Win32,59.93407252,63d3fb730f03adf8b4a28a37,64d2fd46c836a06233681665,64dc7f2670a266150a1270ca,,,,,,,ctch,resources/DG.BMP,resources/DB.BMP,Door1,-0.391484943,-0.027518172,1,0,0,0.7998,optionLeft,30,15525,7,20,0,20,0,1,,,,,,,,,,,,,,,,,,,,,,,,,,,,,,,,,,,,,,,
,,,,,,,,2023-08-16_08h50.30.168,HF_wild_card,2022.2.4,Win32,59.93407252,63d3fb730f03adf8b4a28a37,64d2fd46c836a06233681665,64dc7f2670a266150a1270ca,,,,,,,decisionTrl,resources/DR.BMP,resources/DG.BMP,Door1,0.41536864,-0.023364486,1,0,0,0.752,optionRight,30,15555,7,21,0,21,0,1,,,,,,,,,,,,,,,,,,,,,,,,,,,,,,,,,,,,,,,
,,,,,,,,2023-08-16_08h50.30.168,HF_wild_card,2022.2.4,Win32,59.93407252,63d3fb730f03adf8b4a28a37,64d2fd46c836a06233681665,64dc7f2670a266150a1270ca,,,,,,,decisionTrl,resources/DB.BMP,resources/DBN.BMP,Door3,0.358255452,-0.001557632,1,0,0,0.9184,optionRight,70,15625,7,22,0,22,0,1,,,,,,,,,,,,,,,,,,,,,,,,,,,,,,,,,,,,,,,
,,,,,,,,2023-08-16_08h50.30.168,HF_wild_card,2022.2.4,Win32,59.93407252,63d3fb730f03adf8b4a28a37,64d2fd46c836a06233681665,64dc7f2670a266150a1270ca,,,,,,,ctch,resources/DBN.BMP,resources/DR.BMP,Door3,-0.323987539,-0.010903427,1,0,0,0.6991,optionLeft,70,15695,7,23,0,23,0,1,,,,,,,,,,,,,,,,,,,,,,,,,,,,,,,,,,,,,,,
,,,,,,,,2023-08-16_08h50.30.168,HF_wild_card,2022.2.4,Win32,59.93407252,63d3fb730f03adf8b4a28a37,64d2fd46c836a06233681665,64dc7f2670a266150a1270ca,,,,,,,decisionTrl,resources/DR.BMP,resources/DG.BMP,Door1,0.38317757,0.002596054,1,0,0,0.7482,optionRight,30,15725,7,24,0,24,0,1,,,,,,,,,,,,,,,,,,,,,,,,,,,,,,,,,,,,,,,
,,,,,,,,2023-08-16_08h50.30.168,HF_wild_card,2022.2.4,Win32,59.93407252,63d3fb730f03adf8b4a28a37,64d2fd46c836a06233681665,64dc7f2670a266150a1270ca,,,,,,,decisionTrl,resources/DBN.BMP,resources/DB.BMP,Door3,-0.433021807,-0.009865005,1,0,0,0.8664,optionLeft,70,15795,7,25,0,25,0,1,,,,,,,,,,,,,,,,,,,,,,,,,,,,,,,,,,,,,,,
,,,,,,,,2023-08-16_08h50.30.168,HF_wild_card,2022.2.4,Win32,59.93407252,63d3fb730f03adf8b4a28a37,64d2fd46c836a06233681665,64dc7f2670a266150a1270ca,,,,,,,decisionTrl,resources/DG.BMP,resources/DR.BMP,Door1,-0.332294912,-0.017133956,1,0,0,0.8127,optionLeft,30,15825,7,26,0,26,0,1,,,,,,,,,,,,,,,,,,,,,,,,,,,,,,,,,,,,,,,
,,,,,,,,2023-08-16_08h50.30.168,HF_wild_card,2022.2.4,Win32,59.93407252,63d3fb730f03adf8b4a28a37,64d2fd46c836a06233681665,64dc7f2670a266150a1270ca,,,,,,,decisionTrl,resources/DB.BMP,resources/DBN.BMP,Door3,0.434060228,0.00674974,1,0,0,0.8489,optionRight,70,15895,7,27,0,27,0,1,,,,,,,,,,,,,,,,,,,,,,,,,,,,,,,,,,,,,,,
,,,,,,,,2023-08-16_08h50.30.168,HF_wild_card,2022.2.4,Win32,59.93407252,63d3fb730f03adf8b4a28a37,64d2fd46c836a06233681665,64dc7f2670a266150a1270ca,,,,,,,ctch,resources/DR.BMP,resources/DBN.BMP,Door3,0.413291796,-0.01298027,1,0,0,0.8447,optionRight,70,15965,7,28,0,28,0,1,,,,,,,,,,,,,,,,,,,,,,,,,,,,,,,,,,,,,,,
,,,,,,,,2023-08-16_08h50.30.168,HF_wild_card,2022.2.4,Win32,59.93407252,63d3fb730f03adf8b4a28a37,64d2fd46c836a06233681665,64dc7f2670a266150a1270ca,,,,,,,ctch,resources/DBN.BMP,resources/DR.BMP,Door3,-0.326064382,-0.015057113,1,0,0,0.6842,optionLeft,70,16035,7,29,0,29,0,1,,,,,,,,,,,,,,,,,,,,,,,,,,,,,,,,,,,,,,,
,,,,,,,,2023-08-16_08h50.30.168,HF_wild_card,2022.2.4,Win32,59.93407252,63d3fb730f03adf8b4a28a37,64d2fd46c836a06233681665,64dc7f2670a266150a1270ca,,,,,,,ctch,resources/DG.BMP,resources/DB.BMP,Door4,0.400830737,-0.000519211,1,0,0,1.1628,optionRight,80,16115,7,30,0,30,0,1,,,,,,,,,,,,,,,,,,,,,,,,,,,,,,,,,,,,,,,
,,,,,,,,2023-08-16_08h50.30.168,HF_wild_card,2022.2.4,Win32,59.93407252,63d3fb730f03adf8b4a28a37,64d2fd46c836a06233681665,64dc7f2670a266150a1270ca,,,,,,,decisionTrl,resources/DBN.BMP,resources/DB.BMP,Door3,-0.300103842,0.001557632,1,0,0,0.9685,optionLeft,70,16185,7,31,0,31,0,1,,,,,,,,,,,,,,,,,,,,,,,,,,,,,,,,,,,,,,,
,,,,,,,,2023-08-16_08h50.30.168,HF_wild_card,2022.2.4,Win32,59.93407252,63d3fb730f03adf8b4a28a37,64d2fd46c836a06233681665,64dc7f2670a266150a1270ca,,,,,,,decisionTrl,resources/DR.BMP,resources/DG.BMP,Door1,0.375908619,-0.001557632,1,0,0,0.7167,optionRight,30,16215,7,32,0,32,0,1,,,,,,,,,,,,,,,,,,,,,,,,,,,,,,,,,,,,,,,
,,,,,,,,2023-08-16_08h50.30.168,HF_wild_card,2022.2.4,Win32,59.93407252,63d3fb730f03adf8b4a28a37,64d2fd46c836a06233681665,64dc7f2670a266150a1270ca,,,,,,,ctch,resources/DR.BMP,resources/DBN.BMP,Door3,0.396677051,-0.01298027,1,0,0,0.6486,optionRight,70,16285,7,33,0,33,0,1,,,,,,,,,,,,,,,,,,,,,,,,,,,,,,,,,,,,,,,
,,,,,,,,2023-08-16_08h50.30.168,HF_wild_card,2022.2.4,Win32,59.93407252,63d3fb730f03adf8b4a28a37,64d2fd46c836a06233681665,64dc7f2670a266150a1270ca,,,,,,,decisionTrl,resources/DR.BMP,resources/DG.BMP,Door1,0.394600208,-0.011941848,1,0,0,0.9795,optionRight,30,16315,7,34,0,34,0,1,,,,,,,,,,,,,,,,,,,,,,,,,,,,,,,,,,,,,,,
,,,,,,,,2023-08-16_08h50.30.168,HF_wild_card,2022.2.4,Win32,59.93407252,63d3fb730f03adf8b4a28a37,64d2fd46c836a06233681665,64dc7f2670a266150a1270ca,,,,,,,decisionTrl,resources/DB.BMP,resources/DBN.BMP,Door3,0.416407061,0.014018692,1,0,0,0.9862,optionRight,70,16385,7,35,0,35,0,1,,,,,,,,,,,,,,,,,,,,,,,,,,,,,,,,,,,,,,,
,,,,,,,,2023-08-16_08h50.30.168,HF_wild_card,2022.2.4,Win32,59.93407252,63d3fb730f03adf8b4a28a37,64d2fd46c836a06233681665,64dc7f2670a266150a1270ca,,,,,,,,,,,,,,,,,,,,,,,,,,6,0,6,0,1,,,,,,,,,,,,,,,,,,,,,,,,,,,,,,,,,,
,,,,,,,,2023-08-16_08h50.30.168,HF_wild_card,2022.2.4,Win32,59.93407252,63d3fb730f03adf8b4a28a37,64d2fd46c836a06233681665,64dc7f2670a266150a1270ca,,,,,,,,,,,,,,,,,,,,,,,,,,,,,,,4,,,,,,,,,,,,,,,,,,,,,,,,,,,,,,,,,
,,,,,,,,2023-08-16_08h50.30.168,HF_wild_card,2022.2.4,Win32,59.93407252,63d3fb730f03adf8b4a28a37,64d2fd46c836a06233681665,64dc7f2670a266150a1270ca,,,,,,,,,,,,,,,,,,,,,,,,,,,,,,,,,,,,,,,,,,,,,,,,,,,,,,,,,,,,,,,,
,,,,,,,,2023-08-16_08h50.30.168,HF_wild_card,2022.2.4,Win32,59.93407252,63d3fb730f03adf8b4a28a37,64d2fd46c836a06233681665,64dc7f2670a266150a1270ca,,,,,,,,,,,,,,,,,,,,,,,,,,,,,,,,30,Door1,resources/DG.BMP,0,0,0,0,1,,,,,,,,,,,,,,,,,,,,,,,,,
,,,,,,,,2023-08-16_08h50.30.168,HF_wild_card,2022.2.4,Win32,59.93407252,63d3fb730f03adf8b4a28a37,64d2fd46c836a06233681665,64dc7f2670a266150a1270ca,,,,,,,,,,,,,,,,,,,,,,,,,,,,,,,,70,Door3,resources/DBN.BMP,1,0,1,0,1,,,,,,,,,,,,,,,,,,,,,,,,,
,,,,,,,,2023-08-16_08h50.30.168,HF_wild_card,2022.2.4,Win32,59.93407252,63d3fb730f03adf8b4a28a37,64d2fd46c836a06233681665,64dc7f2670a266150a1270ca,,,,,,,,,,,,,,,,,,,,,,,,,,,,,,,,80,Door4,resources/DB.BMP,2,0,2,0,1,,,,,,,,,,,,,,,,,,,,,,,,,
,,,,,,,,2023-08-16_08h50.30.168,HF_wild_card,2022.2.4,Win32,59.93407252,63d3fb730f03adf8b4a28a37,64d2fd46c836a06233681665,64dc7f2670a266150a1270ca,,,,,,,,,,,,,,,,,,,,,,,,,,,,,,,,20,WC_nonExtreme,resources/DY.BMP,3,0,3,0,1,,,,,,,,,,,,,,,,,,,,,,,,,
,,,,,,,,2023-08-16_08h50.30.168,HF_wild_card,2022.2.4,Win32,59.93407252,63d3fb730f03adf8b4a28a37,64d2fd46c836a06233681665,64dc7f2670a266150a1270ca,,,,,,,,,,,,,,,,,,,,,,,,,,,,,,,,95,WC_extreme,resources/DP.BMP,4,0,4,0,1,,,,,,,,,,,,,,,,,,,,,,,,,
,,,,,,,,2023-08-16_08h50.30.168,HF_wild_card,2022.2.4,Win32,59.93407252,63d3fb730f03adf8b4a28a37,64d2fd46c836a06233681665,64dc7f2670a266150a1270ca,,,,,,,,,,,,,,,,,,,,,,,,,,,,,,,,20,Door2,resources/DR.BMP,5,0,5,0,1,,,,,,,,,,,,,,,,,,,,,,,,,
