Condition,Low fixed image (Door1),Low risky image (Door2),High fixed image (Door3),High risky image (Door4),NonExtreme Wild Card 1,NonExtreme Wild Card 2,,date,expName,psychopyVersion,OS,frameRate,PROLIFIC_PID,STUDY_ID,SESSION_ID,mouse_2.x,mouse_2.y,mouse_2.leftButton,mouse_2.midButton,mouse_2.rightButton,mouse_2.clicked_name,Trial Type,Left Option Image,Right Option Image,Chosen Door,mouse.x,mouse.y,mouse.leftButton,mouse.midButton,mouse.rightButton,mouse.time,mouse.clicked_name,Feedback,Cumulative Reward,Block,trial.thisRepN,trial.thisTrialN,trial.thisN,trial.thisIndex,trial.ran,blocks.thisRepN,blocks.thisTrialN,blocks.thisN,blocks.thisIndex,blocks.ran,Money conversion,First Outcome Reported,Shown Door (First Outcome),Displayed Image (First Outcome),outcomes.thisRepN,outcomes.thisTrialN,outcomes.thisN,outcomes.thisIndex,outcomes.ran,judgments.thisRepN,judgments.thisTrialN,judgments.thisN,judgments.thisIndex,judgments.ran,freqMouse.x,freqMouse.y,freqMouse.leftButton,freqMouse.midButton,freqMouse.rightButton,freqMouse.clicked_name,FQJ for first outcome,FQJ for second outcome,Shown Door,Displayed Image,trials.thisRepN,trials.thisTrialN,trials.thisN,trials.thisIndex,trials.ran,judgBlock.thisRepN,judgBlock.thisTrialN,judgBlock.thisN,judgBlock.thisIndex,judgBlock.ran
2,resources/DBN.BMP,resources/DP.BMP,resources/DB.BMP,resources/DY.BMP,resources/DR.BMP,resources/DG.BMP,,2023-08-24_08h13.25.427,HF_wild_card,2022.2.4,Win32,12.00465781,5a5e03dd8e62590001762542,64e63663dbcaf322d2eec8da,64e702f43b67dfb0b5513012,,,,,,,,,,,,,,,,,,,,,,,,,,,,,,,,,,,,,,,,,,,,,,,,,,,,,,,,,,,,,,,,
,,,,,,,,2023-08-24_08h13.25.427,HF_wild_card,2022.2.4,Win32,12.00465781,5a5e03dd8e62590001762542,64e63663dbcaf322d2eec8da,64e702f43b67dfb0b5513012,-0.004629601,-0.417592621,1,0,0,agree,,,,,,,,,,,,,,,,,,,,,,,,,,,,,,,,,,,,,,,,,,,,,,,,,,,,,,,,,,
,,,,,,,,2023-08-24_08h13.25.427,HF_wild_card,2022.2.4,Win32,12.00465781,5a5e03dd8e62590001762542,64e63663dbcaf322d2eec8da,64e702f43b67dfb0b5513012,,,,,,,,,,,,,,,,,,,,,,,,,,,,,,,,,,,,,,,,,,,,,,,,,,,,,,,,,,,,,,,,
,,,,,,,,2023-08-24_08h13.25.427,HF_wild_card,2022.2.4,Win32,12.00465781,5a5e03dd8e62590001762542,64e63663dbcaf322d2eec8da,64e702f43b67dfb0b5513012,,,,,,,decisionTrl,resources/DP.BMP,resources/DBN.BMP,Door2,-0.340740712,-0.184259288,1,0,0,12.8389,optionLeft,40,40,1,0,0,0,0,1,,,,,,,,,,,,,,,,,,,,,,,,,,,,,,,,,,,,,,,
,,,,,,,,2023-08-24_08h13.25.427,HF_wild_card,2022.2.4,Win32,12.00465781,5a5e03dd8e62590001762542,64e63663dbcaf322d2eec8da,64e702f43b67dfb0b5513012,,,,,,,decisionTrl,resources/DP.BMP,resources/DG.BMP,Door2,-0.339814801,-0.092592621,1,0,0,3.7106,optionLeft,40,80,1,1,0,1,0,1,,,,,,,,,,,,,,,,,,,,,,,,,,,,,,,,,,,,,,,
,,,,,,,,2023-08-24_08h13.25.427,HF_wild_card,2022.2.4,Win32,12.00465781,5a5e03dd8e62590001762542,64e63663dbcaf322d2eec8da,64e702f43b67dfb0b5513012,,,,,,,sngl,resources/DBN.BMP,resources/Empty.png,Door1,-0.377777778,-0.068518533,1,0,0,2.9036,optionLeft,30,110,1,2,0,2,0,1,,,,,,,,,,,,,,,,,,,,,,,,,,,,,,,,,,,,,,,
,,,,,,,,2023-08-24_08h13.25.427,HF_wild_card,2022.2.4,Win32,12.00465781,5a5e03dd8e62590001762542,64e63663dbcaf322d2eec8da,64e702f43b67dfb0b5513012,,,,,,,sngl,resources/DG.BMP,resources/Empty.png,WildCard_NonEx,-0.416666667,-0.058333333,1,0,0,1.7713,optionLeft,55,165,1,3,0,3,0,1,,,,,,,,,,,,,,,,,,,,,,,,,,,,,,,,,,,,,,,
,,,,,,,,2023-08-24_08h13.25.427,HF_wild_card,2022.2.4,Win32,12.00465781,5a5e03dd8e62590001762542,64e63663dbcaf322d2eec8da,64e702f43b67dfb0b5513012,,,,,,,ctch,resources/DBN.BMP,resources/DY.BMP,Door1,-0.287962935,-0.095370399,1,0,0,4.876,optionLeft,30,195,1,4,0,4,0,1,,,,,,,,,,,,,,,,,,,,,,,,,,,,,,,,,,,,,,,
,,,,,,,,2023-08-24_08h13.25.427,HF_wild_card,2022.2.4,Win32,12.00465781,5a5e03dd8e62590001762542,64e63663dbcaf322d2eec8da,64e702f43b67dfb0b5513012,,,,,,,sngl,resources/DY.BMP,resources/Empty.png,Door4,-0.352777778,-0.055555556,1,0,0,1.7349,optionLeft,80,275,1,5,0,5,0,1,,,,,,,,,,,,,,,,,,,,,,,,,,,,,,,,,,,,,,,
,,,,,,,,2023-08-24_08h13.25.427,HF_wild_card,2022.2.4,Win32,12.00465781,5a5e03dd8e62590001762542,64e63663dbcaf322d2eec8da,64e702f43b67dfb0b5513012,,,,,,,decisionTrl,resources/DY.BMP,resources/DB.BMP,Door3,0.439814843,-0.103703732,1,0,0,2.8599,optionRight,70,345,1,6,0,6,0,1,,,,,,,,,,,,,,,,,,,,,,,,,,,,,,,,,,,,,,,
,,,,,,,,2023-08-24_08h13.25.427,HF_wild_card,2022.2.4,Win32,12.00465781,5a5e03dd8e62590001762542,64e63663dbcaf322d2eec8da,64e702f43b67dfb0b5513012,,,,,,,sngl,resources/DG.BMP,resources/Empty.png,WildCard_NonEx,-0.363888889,-0.072222222,1,0,0,1.4872,optionLeft,45,390,1,7,0,7,0,1,,,,,,,,,,,,,,,,,,,,,,,,,,,,,,,,,,,,,,,
,,,,,,,,2023-08-24_08h13.25.427,HF_wild_card,2022.2.4,Win32,12.00465781,5a5e03dd8e62590001762542,64e63663dbcaf322d2eec8da,64e702f43b67dfb0b5513012,,,,,,,sngl,resources/Empty.png,resources/DP.BMP,Door2,0.378703732,-0.052777778,1,0,0,1.1694,optionRight,20,410,1,8,0,8,0,1,,,,,,,,,,,,,,,,,,,,,,,,,,,,,,,,,,,,,,,
,,,,,,,,2023-08-24_08h13.25.427,HF_wild_card,2022.2.4,Win32,12.00465781,5a5e03dd8e62590001762542,64e63663dbcaf322d2eec8da,64e702f43b67dfb0b5513012,,,,,,,ctch,resources/DP.BMP,resources/DB.BMP,Door3,0.366666667,-0.013888889,1,0,0,1.4268,optionRight,70,480,1,9,0,9,0,1,,,,,,,,,,,,,,,,,,,,,,,,,,,,,,,,,,,,,,,
,,,,,,,,2023-08-24_08h13.25.427,HF_wild_card,2022.2.4,Win32,12.00465781,5a5e03dd8e62590001762542,64e63663dbcaf322d2eec8da,64e702f43b67dfb0b5513012,,,,,,,ctch,resources/DB.BMP,resources/DP.BMP,Door3,-0.348148134,-0.055555556,1,0,0,3.062,optionLeft,70,550,1,10,0,10,0,1,,,,,,,,,,,,,,,,,,,,,,,,,,,,,,,,,,,,,,,
,,,,,,,,2023-08-24_08h13.25.427,HF_wild_card,2022.2.4,Win32,12.00465781,5a5e03dd8e62590001762542,64e63663dbcaf322d2eec8da,64e702f43b67dfb0b5513012,,,,,,,decisionTrl,resources/DY.BMP,resources/DB.BMP,Door4,-0.339814801,-0.048148176,1,0,0,1.3806,optionLeft,80,630,1,11,0,11,0,1,,,,,,,,,,,,,,,,,,,,,,,,,,,,,,,,,,,,,,,
,,,,,,,,2023-08-24_08h13.25.427,HF_wild_card,2022.2.4,Win32,12.00465781,5a5e03dd8e62590001762542,64e63663dbcaf322d2eec8da,64e702f43b67dfb0b5513012,,,,,,,ctch,resources/DB.BMP,resources/DP.BMP,Door3,-0.288888889,-0.072222222,1,0,0,1.9045,optionLeft,70,700,1,12,0,12,0,1,,,,,,,,,,,,,,,,,,,,,,,,,,,,,,,,,,,,,,,
,,,,,,,,2023-08-24_08h13.25.427,HF_wild_card,2022.2.4,Win32,12.00465781,5a5e03dd8e62590001762542,64e63663dbcaf322d2eec8da,64e702f43b67dfb0b5513012,,,,,,,ctch,resources/DY.BMP,resources/DBN.BMP,Door4,-0.300925912,-0.054629644,1,0,0,1.8655,optionLeft,60,760,1,13,0,13,0,1,,,,,,,,,,,,,,,,,,,,,,,,,,,,,,,,,,,,,,,
,,,,,,,,2023-08-24_08h13.25.427,HF_wild_card,2022.2.4,Win32,12.00465781,5a5e03dd8e62590001762542,64e63663dbcaf322d2eec8da,64e702f43b67dfb0b5513012,,,,,,,decisionTrl,resources/DY.BMP,resources/DB.BMP,Door4,-0.275,-0.016666667,1,0,0,2.2133,optionLeft,80,840,1,14,0,14,0,1,,,,,,,,,,,,,,,,,,,,,,,,,,,,,,,,,,,,,,,
,,,,,,,,2023-08-24_08h13.25.427,HF_wild_card,2022.2.4,Win32,12.00465781,5a5e03dd8e62590001762542,64e63663dbcaf322d2eec8da,64e702f43b67dfb0b5513012,,,,,,,decisionTrl,resources/DB.BMP,resources/DY.BMP,Door4,0.362037065,-0.017592621,1,0,0,2.1226,optionRight,60,900,1,15,0,15,0,1,,,,,,,,,,,,,,,,,,,,,,,,,,,,,,,,,,,,,,,
,,,,,,,,2023-08-24_08h13.25.427,HF_wild_card,2022.2.4,Win32,12.00465781,5a5e03dd8e62590001762542,64e63663dbcaf322d2eec8da,64e702f43b67dfb0b5513012,,,,,,,decisionTrl,resources/DBN.BMP,resources/DP.BMP,Door2,0.302777778,-0.032407422,1,0,0,1.9119,optionRight,20,920,1,16,0,16,0,1,,,,,,,,,,,,,,,,,,,,,,,,,,,,,,,,,,,,,,,
,,,,,,,,2023-08-24_08h13.25.427,HF_wild_card,2022.2.4,Win32,12.00465781,5a5e03dd8e62590001762542,64e63663dbcaf322d2eec8da,64e702f43b67dfb0b5513012,,,,,,,ctch,resources/DY.BMP,resources/DBN.BMP,Door4,-0.347222222,-0.060185199,1,0,0,1.623,optionLeft,60,980,1,17,0,17,0,1,,,,,,,,,,,,,,,,,,,,,,,,,,,,,,,,,,,,,,,
,,,,,,,,2023-08-24_08h13.25.427,HF_wild_card,2022.2.4,Win32,12.00465781,5a5e03dd8e62590001762542,64e63663dbcaf322d2eec8da,64e702f43b67dfb0b5513012,,,,,,,ctch,resources/DP.BMP,resources/DB.BMP,Door3,0.323148176,-0.014814843,1,0,0,1.6303,optionRight,70,1050,1,18,0,18,0,1,,,,,,,,,,,,,,,,,,,,,,,,,,,,,,,,,,,,,,,
,,,,,,,,2023-08-24_08h13.25.427,HF_wild_card,2022.2.4,Win32,12.00465781,5a5e03dd8e62590001762542,64e63663dbcaf322d2eec8da,64e702f43b67dfb0b5513012,,,,,,,decisionTrl,resources/DG.BMP,resources/DB.BMP,WildCard_NonEx,-0.469444444,-0.062962977,1,0,0,10.681,optionLeft,45,1095,1,19,0,19,0,1,,,,,,,,,,,,,,,,,,,,,,,,,,,,,,,,,,,,,,,
,,,,,,,,2023-08-24_08h13.25.427,HF_wild_card,2022.2.4,Win32,12.00465781,5a5e03dd8e62590001762542,64e63663dbcaf322d2eec8da,64e702f43b67dfb0b5513012,,,,,,,sngl,resources/Empty.png,resources/DG.BMP,WildCard_NonEx,0.434259288,-0.03148151,1,0,0,1.2177,optionRight,45,1140,1,20,0,20,0,1,,,,,,,,,,,,,,,,,,,,,,,,,,,,,,,,,,,,,,,
,,,,,,,,2023-08-24_08h13.25.427,HF_wild_card,2022.2.4,Win32,12.00465781,5a5e03dd8e62590001762542,64e63663dbcaf322d2eec8da,64e702f43b67dfb0b5513012,,,,,,,sngl,resources/DB.BMP,resources/Empty.png,Door3,-0.331481467,-0.077777778,1,0,0,1.1693,optionLeft,70,1210,1,21,0,21,0,1,,,,,,,,,,,,,,,,,,,,,,,,,,,,,,,,,,,,,,,
,,,,,,,,2023-08-24_08h13.25.427,HF_wild_card,2022.2.4,Win32,12.00465781,5a5e03dd8e62590001762542,64e63663dbcaf322d2eec8da,64e702f43b67dfb0b5513012,,,,,,,decisionTrl,resources/DBN.BMP,resources/DP.BMP,Door2,0.429629686,-0.025,1,0,0,1.4479,optionRight,20,1230,1,22,0,22,0,1,,,,,,,,,,,,,,,,,,,,,,,,,,,,,,,,,,,,,,,
,,,,,,,,2023-08-24_08h13.25.427,HF_wild_card,2022.2.4,Win32,12.00465781,5a5e03dd8e62590001762542,64e63663dbcaf322d2eec8da,64e702f43b67dfb0b5513012,,,,,,,decisionTrl,resources/DP.BMP,resources/DBN.BMP,Door1,0.447222222,0.042592578,1,0,0,3.1825,optionRight,30,1260,1,23,0,23,0,1,,,,,,,,,,,,,,,,,,,,,,,,,,,,,,,,,,,,,,,
,,,,,,,,2023-08-24_08h13.25.427,HF_wild_card,2022.2.4,Win32,12.00465781,5a5e03dd8e62590001762542,64e63663dbcaf322d2eec8da,64e702f43b67dfb0b5513012,,,,,,,decisionTrl,resources/DP.BMP,resources/DBN.BMP,Door2,-0.429629601,-0.067592621,1,0,0,2.2773,optionLeft,20,1280,1,24,0,24,0,1,,,,,,,,,,,,,,,,,,,,,,,,,,,,,,,,,,,,,,,
,,,,,,,,2023-08-24_08h13.25.427,HF_wild_card,2022.2.4,Win32,12.00465781,5a5e03dd8e62590001762542,64e63663dbcaf322d2eec8da,64e702f43b67dfb0b5513012,,,,,,,decisionTrl,resources/DB.BMP,resources/DY.BMP,Door4,0.370370399,-0.072222222,1,0,0,1.4514,optionRight,60,1340,1,25,0,25,0,1,,,,,,,,,,,,,,,,,,,,,,,,,,,,,,,,,,,,,,,
,,,,,,,,2023-08-24_08h13.25.427,HF_wild_card,2022.2.4,Win32,12.00465781,5a5e03dd8e62590001762542,64e63663dbcaf322d2eec8da,64e702f43b67dfb0b5513012,,,,,,,decisionTrl,resources/DB.BMP,resources/DY.BMP,Door3,-0.321296268,-0.060185199,1,0,0,2.6509,optionLeft,70,1410,1,26,0,26,0,1,,,,,,,,,,,,,,,,,,,,,,,,,,,,,,,,,,,,,,,
,,,,,,,,2023-08-24_08h13.25.427,HF_wild_card,2022.2.4,Win32,12.00465781,5a5e03dd8e62590001762542,64e63663dbcaf322d2eec8da,64e702f43b67dfb0b5513012,,,,,,,decisionTrl,resources/DG.BMP,resources/DY.BMP,Door4,0.320370399,-0.037962977,1,0,0,1.5007,optionRight,60,1470,1,27,0,27,0,1,,,,,,,,,,,,,,,,,,,,,,,,,,,,,,,,,,,,,,,
,,,,,,,,2023-08-24_08h13.25.427,HF_wild_card,2022.2.4,Win32,12.00465781,5a5e03dd8e62590001762542,64e63663dbcaf322d2eec8da,64e702f43b67dfb0b5513012,,,,,,,decisionTrl,resources/DBN.BMP,resources/DG.BMP,WildCard_NonEx,0.243518575,-0.054629644,1,0,0,1.6576,optionRight,55,1525,1,28,0,28,0,1,,,,,,,,,,,,,,,,,,,,,,,,,,,,,,,,,,,,,,,
,,,,,,,,2023-08-24_08h13.25.427,HF_wild_card,2022.2.4,Win32,12.00465781,5a5e03dd8e62590001762542,64e63663dbcaf322d2eec8da,64e702f43b67dfb0b5513012,,,,,,,sngl,resources/Empty.png,resources/DG.BMP,WildCard_NonEx,0.290740797,-0.026851866,1,0,0,1.2716,optionRight,55,1580,1,29,0,29,0,1,,,,,,,,,,,,,,,,,,,,,,,,,,,,,,,,,,,,,,,
,,,,,,,,2023-08-24_08h13.25.427,HF_wild_card,2022.2.4,Win32,12.00465781,5a5e03dd8e62590001762542,64e63663dbcaf322d2eec8da,64e702f43b67dfb0b5513012,,,,,,,sngl,resources/Empty.png,resources/DY.BMP,Door4,0.362963019,-0.058333333,1,0,0,1.097,optionRight,60,1640,1,30,0,30,0,1,,,,,,,,,,,,,,,,,,,,,,,,,,,,,,,,,,,,,,,
,,,,,,,,2023-08-24_08h13.25.427,HF_wild_card,2022.2.4,Win32,12.00465781,5a5e03dd8e62590001762542,64e63663dbcaf322d2eec8da,64e702f43b67dfb0b5513012,,,,,,,decisionTrl,resources/DBN.BMP,resources/DP.BMP,Door1,-0.372222222,-0.064814843,1,0,0,2.2004,optionLeft,30,1670,1,31,0,31,0,1,,,,,,,,,,,,,,,,,,,,,,,,,,,,,,,,,,,,,,,
,,,,,,,,2023-08-24_08h13.25.427,HF_wild_card,2022.2.4,Win32,12.00465781,5a5e03dd8e62590001762542,64e63663dbcaf322d2eec8da,64e702f43b67dfb0b5513012,,,,,,,sngl,resources/Empty.png,resources/DBN.BMP,Door1,0.450925954,-0.061111111,1,0,0,1.3388,optionRight,30,1700,1,32,0,32,0,1,,,,,,,,,,,,,,,,,,,,,,,,,,,,,,,,,,,,,,,
,,,,,,,,2023-08-24_08h13.25.427,HF_wild_card,2022.2.4,Win32,12.00465781,5a5e03dd8e62590001762542,64e63663dbcaf322d2eec8da,64e702f43b67dfb0b5513012,,,,,,,decisionTrl,resources/DB.BMP,resources/DY.BMP,Door4,0.316666667,-0.070370399,1,0,0,1.4359,optionRight,60,1760,1,33,0,33,0,1,,,,,,,,,,,,,,,,,,,,,,,,,,,,,,,,,,,,,,,
,,,,,,,,2023-08-24_08h13.25.427,HF_wild_card,2022.2.4,Win32,12.00465781,5a5e03dd8e62590001762542,64e63663dbcaf322d2eec8da,64e702f43b67dfb0b5513012,,,,,,,ctch,resources/DBN.BMP,resources/DY.BMP,Door4,0.340740797,-0.05648151,1,0,0,1.5324,optionRight,60,1820,1,34,0,34,0,1,,,,,,,,,,,,,,,,,,,,,,,,,,,,,,,,,,,,,,,
,,,,,,,,2023-08-24_08h13.25.427,HF_wild_card,2022.2.4,Win32,12.00465781,5a5e03dd8e62590001762542,64e63663dbcaf322d2eec8da,64e702f43b67dfb0b5513012,,,,,,,decisionTrl,resources/DP.BMP,resources/DBN.BMP,Door1,0.358333333,0.067592578,1,0,0,3.9727,optionRight,30,1850,1,35,0,35,0,1,,,,,,,,,,,,,,,,,,,,,,,,,,,,,,,,,,,,,,,
,,,,,,,,2023-08-24_08h13.25.427,HF_wild_card,2022.2.4,Win32,12.00465781,5a5e03dd8e62590001762542,64e63663dbcaf322d2eec8da,64e702f43b67dfb0b5513012,,,,,,,decisionTrl,resources/DY.BMP,resources/DG.BMP,Door4,-0.288888889,-0.058333333,1,0,0,1.7112,optionLeft,80,1930,1,36,0,36,0,1,,,,,,,,,,,,,,,,,,,,,,,,,,,,,,,,,,,,,,,
,,,,,,,,2023-08-24_08h13.25.427,HF_wild_card,2022.2.4,Win32,12.00465781,5a5e03dd8e62590001762542,64e63663dbcaf322d2eec8da,64e702f43b67dfb0b5513012,,,,,,,sngl,resources/DP.BMP,resources/Empty.png,Door2,-0.37870369,-0.063888889,1,0,0,1.4436,optionLeft,40,1970,1,37,0,37,0,1,,,,,,,,,,,,,,,,,,,,,,,,,,,,,,,,,,,,,,,
,,,,,,,,2023-08-24_08h13.25.427,HF_wild_card,2022.2.4,Win32,12.00465781,5a5e03dd8e62590001762542,64e63663dbcaf322d2eec8da,64e702f43b67dfb0b5513012,,,,,,,decisionTrl,resources/DB.BMP,resources/DG.BMP,Door3,-0.3,-0.05648151,1,0,0,2.5167,optionLeft,70,2040,1,38,0,38,0,1,,,,,,,,,,,,,,,,,,,,,,,,,,,,,,,,,,,,,,,
,,,,,,,,2023-08-24_08h13.25.427,HF_wild_card,2022.2.4,Win32,12.00465781,5a5e03dd8e62590001762542,64e63663dbcaf322d2eec8da,64e702f43b67dfb0b5513012,,,,,,,decisionTrl,resources/DG.BMP,resources/DBN.BMP,WildCard_NonEx,-0.306481467,-0.061111111,1,0,0,1.5184,optionLeft,45,2085,1,39,0,39,0,1,,,,,,,,,,,,,,,,,,,,,,,,,,,,,,,,,,,,,,,
,,,,,,,,2023-08-24_08h13.25.427,HF_wild_card,2022.2.4,Win32,12.00465781,5a5e03dd8e62590001762542,64e63663dbcaf322d2eec8da,64e702f43b67dfb0b5513012,,,,,,,decisionTrl,resources/DBN.BMP,resources/DP.BMP,Door2,0.367592621,-0.064814843,1,0,0,2.5031,optionRight,20,2105,1,40,0,40,0,1,,,,,,,,,,,,,,,,,,,,,,,,,,,,,,,,,,,,,,,
,,,,,,,,2023-08-24_08h13.25.427,HF_wild_card,2022.2.4,Win32,12.00465781,5a5e03dd8e62590001762542,64e63663dbcaf322d2eec8da,64e702f43b67dfb0b5513012,,,,,,,decisionTrl,resources/DG.BMP,resources/DP.BMP,WildCard_NonEx,-0.302777778,-0.048148176,1,0,0,2.9162,optionLeft,55,2160,1,41,0,41,0,1,,,,,,,,,,,,,,,,,,,,,,,,,,,,,,,,,,,,,,,
,,,,,,,,2023-08-24_08h13.25.427,HF_wild_card,2022.2.4,Win32,12.00465781,5a5e03dd8e62590001762542,64e63663dbcaf322d2eec8da,64e702f43b67dfb0b5513012,,,,,,,sngl,resources/Empty.png,resources/DB.BMP,Door3,0.313888889,-0.033333333,1,0,0,2.3712,optionRight,70,2230,1,42,0,42,0,1,,,,,,,,,,,,,,,,,,,,,,,,,,,,,,,,,,,,,,,
,,,,,,,,2023-08-24_08h13.25.427,HF_wild_card,2022.2.4,Win32,12.00465781,5a5e03dd8e62590001762542,64e63663dbcaf322d2eec8da,64e702f43b67dfb0b5513012,,,,,,,decisionTrl,resources/DY.BMP,resources/DB.BMP,Door4,-0.338888889,-0.079629644,1,0,0,1.8476,optionLeft,60,2290,1,43,0,43,0,1,,,,,,,,,,,,,,,,,,,,,,,,,,,,,,,,,,,,,,,
,,,,,,,,2023-08-24_08h13.25.427,HF_wild_card,2022.2.4,Win32,12.00465781,5a5e03dd8e62590001762542,64e63663dbcaf322d2eec8da,64e702f43b67dfb0b5513012,,,,,,,,,,,,,,,,,,,,,,,,,,0,0,0,0,1,,,,,,,,,,,,,,,,,,,,,,,,,,,,,,,,,,
,,,,,,,,2023-08-24_08h13.25.427,HF_wild_card,2022.2.4,Win32,12.00465781,5a5e03dd8e62590001762542,64e63663dbcaf322d2eec8da,64e702f43b67dfb0b5513012,,,,,,,decisionTrl,resources/DB.BMP,resources/DY.BMP,Door3,-0.324074046,-0.1,1,0,0,1.9586,optionLeft,70,2360,2,0,0,0,0,1,,,,,,,,,,,,,,,,,,,,,,,,,,,,,,,,,,,,,,,
,,,,,,,,2023-08-24_08h13.25.427,HF_wild_card,2022.2.4,Win32,12.00465781,5a5e03dd8e62590001762542,64e63663dbcaf322d2eec8da,64e702f43b67dfb0b5513012,,,,,,,decisionTrl,resources/DY.BMP,resources/DB.BMP,Door3,0.322222222,-0.032407422,1,0,0,2.2411,optionRight,70,2430,2,1,0,1,0,1,,,,,,,,,,,,,,,,,,,,,,,,,,,,,,,,,,,,,,,
,,,,,,,,2023-08-24_08h13.25.427,HF_wild_card,2022.2.4,Win32,12.00465781,5a5e03dd8e62590001762542,64e63663dbcaf322d2eec8da,64e702f43b67dfb0b5513012,,,,,,,ctch,resources/DB.BMP,resources/DP.BMP,Door3,-0.37870369,-0.115740755,1,0,0,4.9651,optionLeft,70,2500,2,2,0,2,0,1,,,,,,,,,,,,,,,,,,,,,,,,,,,,,,,,,,,,,,,
,,,,,,,,2023-08-24_08h13.25.427,HF_wild_card,2022.2.4,Win32,12.00465781,5a5e03dd8e62590001762542,64e63663dbcaf322d2eec8da,64e702f43b67dfb0b5513012,,,,,,,sngl,resources/Empty.png,resources/DP.BMP,Door2,0.328703732,-0.070370399,1,0,0,2.3879,optionRight,40,2540,2,3,0,3,0,1,,,,,,,,,,,,,,,,,,,,,,,,,,,,,,,,,,,,,,,
,,,,,,,,2023-08-24_08h13.25.427,HF_wild_card,2022.2.4,Win32,12.00465781,5a5e03dd8e62590001762542,64e63663dbcaf322d2eec8da,64e702f43b67dfb0b5513012,,,,,,,decisionTrl,resources/DB.BMP,resources/DG.BMP,Door3,-0.326851824,-0.076851866,1,0,0,3.1785,optionLeft,70,2610,2,4,0,4,0,1,,,,,,,,,,,,,,,,,,,,,,,,,,,,,,,,,,,,,,,
,,,,,,,,2023-08-24_08h13.25.427,HF_wild_card,2022.2.4,Win32,12.00465781,5a5e03dd8e62590001762542,64e63663dbcaf322d2eec8da,64e702f43b67dfb0b5513012,,,,,,,decisionTrl,resources/DBN.BMP,resources/DP.BMP,Door1,-0.297222222,-0.05648151,1,0,0,2.1284,optionLeft,30,2640,2,5,0,5,0,1,,,,,,,,,,,,,,,,,,,,,,,,,,,,,,,,,,,,,,,
,,,,,,,,2023-08-24_08h13.25.427,HF_wild_card,2022.2.4,Win32,12.00465781,5a5e03dd8e62590001762542,64e63663dbcaf322d2eec8da,64e702f43b67dfb0b5513012,,,,,,,decisionTrl,resources/DY.BMP,resources/DB.BMP,Door4,-0.294444444,-0.051851866,1,0,0,1.9807,optionLeft,60,2700,2,6,0,6,0,1,,,,,,,,,,,,,,,,,,,,,,,,,,,,,,,,,,,,,,,
,,,,,,,,2023-08-24_08h13.25.427,HF_wild_card,2022.2.4,Win32,12.00465781,5a5e03dd8e62590001762542,64e63663dbcaf322d2eec8da,64e702f43b67dfb0b5513012,,,,,,,ctch,resources/DB.BMP,resources/DP.BMP,Door3,-0.291666667,-0.073148176,1,0,0,1.5474,optionLeft,70,2770,2,7,0,7,0,1,,,,,,,,,,,,,,,,,,,,,,,,,,,,,,,,,,,,,,,
,,,,,,,,2023-08-24_08h13.25.427,HF_wild_card,2022.2.4,Win32,12.00465781,5a5e03dd8e62590001762542,64e63663dbcaf322d2eec8da,64e702f43b67dfb0b5513012,,,,,,,decisionTrl,resources/DP.BMP,resources/DBN.BMP,Door1,0.337963019,0.01851849,1,0,0,2.2452,optionRight,30,2800,2,8,0,8,0,1,,,,,,,,,,,,,,,,,,,,,,,,,,,,,,,,,,,,,,,
,,,,,,,,2023-08-24_08h13.25.427,HF_wild_card,2022.2.4,Win32,12.00465781,5a5e03dd8e62590001762542,64e63663dbcaf322d2eec8da,64e702f43b67dfb0b5513012,,,,,,,sngl,resources/Empty.png,resources/DG.BMP,WildCard_NonEx,0.337037065,-0.030555556,1,0,0,2.5334,optionRight,45,2845,2,9,0,9,0,1,,,,,,,,,,,,,,,,,,,,,,,,,,,,,,,,,,,,,,,
,,,,,,,,2023-08-24_08h13.25.427,HF_wild_card,2022.2.4,Win32,12.00465781,5a5e03dd8e62590001762542,64e63663dbcaf322d2eec8da,64e702f43b67dfb0b5513012,,,,,,,ctch,resources/DP.BMP,resources/DB.BMP,Door3,0.345370399,-0.037037065,1,0,0,2.5232,optionRight,70,2915,2,10,0,10,0,1,,,,,,,,,,,,,,,,,,,,,,,,,,,,,,,,,,,,,,,
,,,,,,,,2023-08-24_08h13.25.427,HF_wild_card,2022.2.4,Win32,12.00465781,5a5e03dd8e62590001762542,64e63663dbcaf322d2eec8da,64e702f43b67dfb0b5513012,,,,,,,sngl,resources/DY.BMP,resources/Empty.png,Door4,-0.313888889,-0.012037065,1,0,0,2.34,optionLeft,60,2975,2,11,0,11,0,1,,,,,,,,,,,,,,,,,,,,,,,,,,,,,,,,,,,,,,,
,,,,,,,,2023-08-24_08h13.25.427,HF_wild_card,2022.2.4,Win32,12.00465781,5a5e03dd8e62590001762542,64e63663dbcaf322d2eec8da,64e702f43b67dfb0b5513012,,,,,,,decisionTrl,resources/DBN.BMP,resources/DG.BMP,WildCard_NonEx,0.336111111,-0.050925954,1,0,0,3.6503,optionRight,45,3020,2,12,0,12,0,1,,,,,,,,,,,,,,,,,,,,,,,,,,,,,,,,,,,,,,,
,,,,,,,,2023-08-24_08h13.25.427,HF_wild_card,2022.2.4,Win32,12.00465781,5a5e03dd8e62590001762542,64e63663dbcaf322d2eec8da,64e702f43b67dfb0b5513012,,,,,,,ctch,resources/DP.BMP,resources/DB.BMP,Door3,0.245370399,-0.028703732,1,0,0,1.9424,optionRight,70,3090,2,13,0,13,0,1,,,,,,,,,,,,,,,,,,,,,,,,,,,,,,,,,,,,,,,
,,,,,,,,2023-08-24_08h13.25.427,HF_wild_card,2022.2.4,Win32,12.00465781,5a5e03dd8e62590001762542,64e63663dbcaf322d2eec8da,64e702f43b67dfb0b5513012,,,,,,,decisionTrl,resources/DY.BMP,resources/DB.BMP,Door3,0.262963019,-0.013888889,1,0,0,2.5173,optionRight,70,3160,2,14,0,14,0,1,,,,,,,,,,,,,,,,,,,,,,,,,,,,,,,,,,,,,,,
,,,,,,,,2023-08-24_08h13.25.427,HF_wild_card,2022.2.4,Win32,12.00465781,5a5e03dd8e62590001762542,64e63663dbcaf322d2eec8da,64e702f43b67dfb0b5513012,,,,,,,decisionTrl,resources/DB.BMP,resources/DY.BMP,Door4,0.324074131,0.052777778,1,0,0,1.8432,optionRight,60,3220,2,15,0,15,0,1,,,,,,,,,,,,,,,,,,,,,,,,,,,,,,,,,,,,,,,
,,,,,,,,2023-08-24_08h13.25.427,HF_wild_card,2022.2.4,Win32,12.00465781,5a5e03dd8e62590001762542,64e63663dbcaf322d2eec8da,64e702f43b67dfb0b5513012,,,,,,,decisionTrl,resources/DP.BMP,resources/DBN.BMP,Door1,0.352777778,0.05370369,1,0,0,2.5319,optionRight,30,3250,2,16,0,16,0,1,,,,,,,,,,,,,,,,,,,,,,,,,,,,,,,,,,,,,,,
,,,,,,,,2023-08-24_08h13.25.427,HF_wild_card,2022.2.4,Win32,12.00465781,5a5e03dd8e62590001762542,64e63663dbcaf322d2eec8da,64e702f43b67dfb0b5513012,,,,,,,sngl,resources/DG.BMP,resources/Empty.png,WildCard_NonEx,-0.321296268,-0.017592621,1,0,0,1.4746,optionLeft,45,3295,2,17,0,17,0,1,,,,,,,,,,,,,,,,,,,,,,,,,,,,,,,,,,,,,,,
,,,,,,,,2023-08-24_08h13.25.427,HF_wild_card,2022.2.4,Win32,12.00465781,5a5e03dd8e62590001762542,64e63663dbcaf322d2eec8da,64e702f43b67dfb0b5513012,,,,,,,decisionTrl,resources/DG.BMP,resources/DB.BMP,Door3,0.259259288,-0.015740755,1,0,0,2.3953,optionRight,70,3365,2,18,0,18,0,1,,,,,,,,,,,,,,,,,,,,,,,,,,,,,,,,,,,,,,,
,,,,,,,,2023-08-24_08h13.25.427,HF_wild_card,2022.2.4,Win32,12.00465781,5a5e03dd8e62590001762542,64e63663dbcaf322d2eec8da,64e702f43b67dfb0b5513012,,,,,,,decisionTrl,resources/DP.BMP,resources/DG.BMP,WildCard_NonEx,0.325925954,0.015740712,1,0,0,1.8116,optionRight,45,3410,2,19,0,19,0,1,,,,,,,,,,,,,,,,,,,,,,,,,,,,,,,,,,,,,,,
,,,,,,,,2023-08-24_08h13.25.427,HF_wild_card,2022.2.4,Win32,12.00465781,5a5e03dd8e62590001762542,64e63663dbcaf322d2eec8da,64e702f43b67dfb0b5513012,,,,,,,sngl,resources/Empty.png,resources/DBN.BMP,Door1,0.346296353,-0.007407422,1,0,0,1.3366,optionRight,30,3440,2,20,0,20,0,1,,,,,,,,,,,,,,,,,,,,,,,,,,,,,,,,,,,,,,,
,,,,,,,,2023-08-24_08h13.25.427,HF_wild_card,2022.2.4,Win32,12.00465781,5a5e03dd8e62590001762542,64e63663dbcaf322d2eec8da,64e702f43b67dfb0b5513012,,,,,,,decisionTrl,resources/DY.BMP,resources/DB.BMP,Door3,0.412963019,0.031481467,1,0,0,4.6461,optionRight,70,3510,2,21,0,21,0,1,,,,,,,,,,,,,,,,,,,,,,,,,,,,,,,,,,,,,,,
,,,,,,,,2023-08-24_08h13.25.427,HF_wild_card,2022.2.4,Win32,12.00465781,5a5e03dd8e62590001762542,64e63663dbcaf322d2eec8da,64e702f43b67dfb0b5513012,,,,,,,decisionTrl,resources/DBN.BMP,resources/DP.BMP,Door2,0.321296353,-0.086111111,1,0,0,4.2353,optionRight,20,3530,2,22,0,22,0,1,,,,,,,,,,,,,,,,,,,,,,,,,,,,,,,,,,,,,,,
,,,,,,,,2023-08-24_08h13.25.427,HF_wild_card,2022.2.4,Win32,12.00465781,5a5e03dd8e62590001762542,64e63663dbcaf322d2eec8da,64e702f43b67dfb0b5513012,,,,,,,ctch,resources/DBN.BMP,resources/DY.BMP,Door4,0.313888889,0.05,1,0,0,1.9501,optionRight,80,3610,2,23,0,23,0,1,,,,,,,,,,,,,,,,,,,,,,,,,,,,,,,,,,,,,,,
,,,,,,,,2023-08-24_08h13.25.427,HF_wild_card,2022.2.4,Win32,12.00465781,5a5e03dd8e62590001762542,64e63663dbcaf322d2eec8da,64e702f43b67dfb0b5513012,,,,,,,sngl,resources/DBN.BMP,resources/Empty.png,Door1,-0.310185157,-0.051851866,1,0,0,1.3002,optionLeft,30,3640,2,24,0,24,0,1,,,,,,,,,,,,,,,,,,,,,,,,,,,,,,,,,,,,,,,
,,,,,,,,2023-08-24_08h13.25.427,HF_wild_card,2022.2.4,Win32,12.00465781,5a5e03dd8e62590001762542,64e63663dbcaf322d2eec8da,64e702f43b67dfb0b5513012,,,,,,,decisionTrl,resources/DG.BMP,resources/DY.BMP,WildCard_NonEx,-0.297222222,-0.028703732,1,0,0,3.1014,optionLeft,55,3695,2,25,0,25,0,1,,,,,,,,,,,,,,,,,,,,,,,,,,,,,,,,,,,,,,,
,,,,,,,,2023-08-24_08h13.25.427,HF_wild_card,2022.2.4,Win32,12.00465781,5a5e03dd8e62590001762542,64e63663dbcaf322d2eec8da,64e702f43b67dfb0b5513012,,,,,,,sngl,resources/Empty.png,resources/DG.BMP,WildCard_NonEx,0.287037065,-0.033333333,1,0,0,1.2433,optionRight,55,3750,2,26,0,26,0,1,,,,,,,,,,,,,,,,,,,,,,,,,,,,,,,,,,,,,,,
,,,,,,,,2023-08-24_08h13.25.427,HF_wild_card,2022.2.4,Win32,12.00465781,5a5e03dd8e62590001762542,64e63663dbcaf322d2eec8da,64e702f43b67dfb0b5513012,,,,,,,ctch,resources/DBN.BMP,resources/DY.BMP,Door4,0.364814843,-0.037037065,1,0,0,2.0632,optionRight,60,3810,2,27,0,27,0,1,,,,,,,,,,,,,,,,,,,,,,,,,,,,,,,,,,,,,,,
,,,,,,,,2023-08-24_08h13.25.427,HF_wild_card,2022.2.4,Win32,12.00465781,5a5e03dd8e62590001762542,64e63663dbcaf322d2eec8da,64e702f43b67dfb0b5513012,,,,,,,decisionTrl,resources/DY.BMP,resources/DG.BMP,Door4,-0.309259245,-0.037962977,1,0,0,4.4574,optionLeft,80,3890,2,28,0,28,0,1,,,,,,,,,,,,,,,,,,,,,,,,,,,,,,,,,,,,,,,
,,,,,,,,2023-08-24_08h13.25.427,HF_wild_card,2022.2.4,Win32,12.00465781,5a5e03dd8e62590001762542,64e63663dbcaf322d2eec8da,64e702f43b67dfb0b5513012,,,,,,,decisionTrl,resources/DG.BMP,resources/DP.BMP,WildCard_NonEx,-0.289814801,-0.043518533,1,0,0,1.9837,optionLeft,45,3935,2,29,0,29,0,1,,,,,,,,,,,,,,,,,,,,,,,,,,,,,,,,,,,,,,,
,,,,,,,,2023-08-24_08h13.25.427,HF_wild_card,2022.2.4,Win32,12.00465781,5a5e03dd8e62590001762542,64e63663dbcaf322d2eec8da,64e702f43b67dfb0b5513012,,,,,,,decisionTrl,resources/DBN.BMP,resources/DP.BMP,Door1,-0.273148134,-0.003703732,1,0,0,3.512,optionLeft,30,3965,2,30,0,30,0,1,,,,,,,,,,,,,,,,,,,,,,,,,,,,,,,,,,,,,,,
,,,,,,,,2023-08-24_08h13.25.427,HF_wild_card,2022.2.4,Win32,12.00465781,5a5e03dd8e62590001762542,64e63663dbcaf322d2eec8da,64e702f43b67dfb0b5513012,,,,,,,decisionTrl,resources/DP.BMP,resources/DBN.BMP,Door2,-0.350925912,-0.093518533,1,0,0,2.6477,optionLeft,40,4005,2,31,0,31,0,1,,,,,,,,,,,,,,,,,,,,,,,,,,,,,,,,,,,,,,,
,,,,,,,,2023-08-24_08h13.25.427,HF_wild_card,2022.2.4,Win32,12.00465781,5a5e03dd8e62590001762542,64e63663dbcaf322d2eec8da,64e702f43b67dfb0b5513012,,,,,,,sngl,resources/DP.BMP,resources/Empty.png,Door2,-0.31851849,-0.037962977,1,0,0,2.1708,optionLeft,20,4025,2,32,0,32,0,1,,,,,,,,,,,,,,,,,,,,,,,,,,,,,,,,,,,,,,,
,,,,,,,,2023-08-24_08h13.25.427,HF_wild_card,2022.2.4,Win32,12.00465781,5a5e03dd8e62590001762542,64e63663dbcaf322d2eec8da,64e702f43b67dfb0b5513012,,,,,,,decisionTrl,resources/DP.BMP,resources/DBN.BMP,Door1,0.376851908,-0.063888889,1,0,0,1.8259,optionRight,30,4055,2,33,0,33,0,1,,,,,,,,,,,,,,,,,,,,,,,,,,,,,,,,,,,,,,,
,,,,,,,,2023-08-24_08h13.25.427,HF_wild_card,2022.2.4,Win32,12.00465781,5a5e03dd8e62590001762542,64e63663dbcaf322d2eec8da,64e702f43b67dfb0b5513012,,,,,,,decisionTrl,resources/DG.BMP,resources/DBN.BMP,WildCard_NonEx,-0.333333333,-0.052777778,1,0,0,1.715,optionLeft,45,4100,2,34,0,34,0,1,,,,,,,,,,,,,,,,,,,,,,,,,,,,,,,,,,,,,,,
,,,,,,,,2023-08-24_08h13.25.427,HF_wild_card,2022.2.4,Win32,12.00465781,5a5e03dd8e62590001762542,64e63663dbcaf322d2eec8da,64e702f43b67dfb0b5513012,,,,,,,sngl,resources/DG.BMP,resources/Empty.png,WildCard_NonEx,-0.339814801,-0.082407422,1,0,0,1.1198,optionLeft,55,4155,2,35,0,35,0,1,,,,,,,,,,,,,,,,,,,,,,,,,,,,,,,,,,,,,,,
,,,,,,,,2023-08-24_08h13.25.427,HF_wild_card,2022.2.4,Win32,12.00465781,5a5e03dd8e62590001762542,64e63663dbcaf322d2eec8da,64e702f43b67dfb0b5513012,,,,,,,sngl,resources/DB.BMP,resources/Empty.png,Door3,-0.285185157,-0.070370399,1,0,0,1.3902,optionLeft,70,4225,2,36,0,36,0,1,,,,,,,,,,,,,,,,,,,,,,,,,,,,,,,,,,,,,,,
,,,,,,,,2023-08-24_08h13.25.427,HF_wild_card,2022.2.4,Win32,12.00465781,5a5e03dd8e62590001762542,64e63663dbcaf322d2eec8da,64e702f43b67dfb0b5513012,,,,,,,decisionTrl,resources/DB.BMP,resources/DY.BMP,Door3,-0.305555556,-0.040740755,1,0,0,2.472,optionLeft,70,4295,2,37,0,37,0,1,,,,,,,,,,,,,,,,,,,,,,,,,,,,,,,,,,,,,,,
,,,,,,,,2023-08-24_08h13.25.427,HF_wild_card,2022.2.4,Win32,12.00465781,5a5e03dd8e62590001762542,64e63663dbcaf322d2eec8da,64e702f43b67dfb0b5513012,,,,,,,decisionTrl,resources/DB.BMP,resources/DY.BMP,Door3,-0.265740712,-0.024074088,1,0,0,1.988,optionLeft,70,4365,2,38,0,38,0,1,,,,,,,,,,,,,,,,,,,,,,,,,,,,,,,,,,,,,,,
,,,,,,,,2023-08-24_08h13.25.427,HF_wild_card,2022.2.4,Win32,12.00465781,5a5e03dd8e62590001762542,64e63663dbcaf322d2eec8da,64e702f43b67dfb0b5513012,,,,,,,sngl,resources/Empty.png,resources/DY.BMP,Door4,0.340740797,0.00370369,1,0,0,1.2972,optionRight,80,4445,2,39,0,39,0,1,,,,,,,,,,,,,,,,,,,,,,,,,,,,,,,,,,,,,,,
,,,,,,,,2023-08-24_08h13.25.427,HF_wild_card,2022.2.4,Win32,12.00465781,5a5e03dd8e62590001762542,64e63663dbcaf322d2eec8da,64e702f43b67dfb0b5513012,,,,,,,ctch,resources/DY.BMP,resources/DBN.BMP,Door4,-0.389814801,-0.04629631,1,0,0,1.9721,optionLeft,80,4525,2,40,0,40,0,1,,,,,,,,,,,,,,,,,,,,,,,,,,,,,,,,,,,,,,,
,,,,,,,,2023-08-24_08h13.25.427,HF_wild_card,2022.2.4,Win32,12.00465781,5a5e03dd8e62590001762542,64e63663dbcaf322d2eec8da,64e702f43b67dfb0b5513012,,,,,,,decisionTrl,resources/DBN.BMP,resources/DP.BMP,Door1,-0.332407379,-0.032407422,1,0,0,1.8227,optionLeft,30,4555,2,41,0,41,0,1,,,,,,,,,,,,,,,,,,,,,,,,,,,,,,,,,,,,,,,
,,,,,,,,2023-08-24_08h13.25.427,HF_wild_card,2022.2.4,Win32,12.00465781,5a5e03dd8e62590001762542,64e63663dbcaf322d2eec8da,64e702f43b67dfb0b5513012,,,,,,,ctch,resources/DY.BMP,resources/DBN.BMP,Door4,-0.254629601,-0.064814843,1,0,0,1.9074,optionLeft,80,4635,2,42,0,42,0,1,,,,,,,,,,,,,,,,,,,,,,,,,,,,,,,,,,,,,,,
,,,,,,,,2023-08-24_08h13.25.427,HF_wild_card,2022.2.4,Win32,12.00465781,5a5e03dd8e62590001762542,64e63663dbcaf322d2eec8da,64e702f43b67dfb0b5513012,,,,,,,sngl,resources/Empty.png,resources/DB.BMP,Door3,0.311111111,-0.067592621,1,0,0,1.2081,optionRight,70,4705,2,43,0,43,0,1,,,,,,,,,,,,,,,,,,,,,,,,,,,,,,,,,,,,,,,
,,,,,,,,2023-08-24_08h13.25.427,HF_wild_card,2022.2.4,Win32,12.00465781,5a5e03dd8e62590001762542,64e63663dbcaf322d2eec8da,64e702f43b67dfb0b5513012,,,,,,,,,,,,,,,,,,,,,,,,,,1,0,1,0,1,,,,,,,,,,,,,,,,,,,,,,,,,,,,,,,,,,
,,,,,,,,2023-08-24_08h13.25.427,HF_wild_card,2022.2.4,Win32,12.00465781,5a5e03dd8e62590001762542,64e63663dbcaf322d2eec8da,64e702f43b67dfb0b5513012,,,,,,,decisionTrl,resources/DB.BMP,resources/DY.BMP,Door3,-0.100925869,-0.041666667,1,0,0,1.9835,optionLeft,70,4775,3,0,0,0,0,1,,,,,,,,,,,,,,,,,,,,,,,,,,,,,,,,,,,,,,,
,,,,,,,,2023-08-24_08h13.25.427,HF_wild_card,2022.2.4,Win32,12.00465781,5a5e03dd8e62590001762542,64e63663dbcaf322d2eec8da,64e702f43b67dfb0b5513012,,,,,,,ctch,resources/DY.BMP,resources/DBN.BMP,Door4,-0.269444444,-0.054629644,1,0,0,1.4868,optionLeft,80,4855,3,1,0,1,0,1,,,,,,,,,,,,,,,,,,,,,,,,,,,,,,,,,,,,,,,
,,,,,,,,2023-08-24_08h13.25.427,HF_wild_card,2022.2.4,Win32,12.00465781,5a5e03dd8e62590001762542,64e63663dbcaf322d2eec8da,64e702f43b67dfb0b5513012,,,,,,,ctch,resources/DB.BMP,resources/DP.BMP,Door3,-0.262037023,-0.060185199,1,0,0,1.5825,optionLeft,70,4925,3,2,0,2,0,1,,,,,,,,,,,,,,,,,,,,,,,,,,,,,,,,,,,,,,,
,,,,,,,,2023-08-24_08h13.25.427,HF_wild_card,2022.2.4,Win32,12.00465781,5a5e03dd8e62590001762542,64e63663dbcaf322d2eec8da,64e702f43b67dfb0b5513012,,,,,,,ctch,resources/DP.BMP,resources/DB.BMP,Door3,0.302777778,0.016666667,1,0,0,3.1238,optionRight,70,4995,3,3,0,3,0,1,,,,,,,,,,,,,,,,,,,,,,,,,,,,,,,,,,,,,,,
,,,,,,,,2023-08-24_08h13.25.427,HF_wild_card,2022.2.4,Win32,12.00465781,5a5e03dd8e62590001762542,64e63663dbcaf322d2eec8da,64e702f43b67dfb0b5513012,,,,,,,ctch,resources/DY.BMP,resources/DBN.BMP,Door4,-0.333333333,-0.083333333,1,0,0,3.3827,optionLeft,60,5055,3,4,0,4,0,1,,,,,,,,,,,,,,,,,,,,,,,,,,,,,,,,,,,,,,,
,,,,,,,,2023-08-24_08h13.25.427,HF_wild_card,2022.2.4,Win32,12.00465781,5a5e03dd8e62590001762542,64e63663dbcaf322d2eec8da,64e702f43b67dfb0b5513012,,,,,,,sngl,resources/Empty.png,resources/DBN.BMP,Door1,0.309259288,0.032407379,1,0,0,1.3053,optionRight,30,5085,3,5,0,5,0,1,,,,,,,,,,,,,,,,,,,,,,,,,,,,,,,,,,,,,,,
,,,,,,,,2023-08-24_08h13.25.427,HF_wild_card,2022.2.4,Win32,12.00465781,5a5e03dd8e62590001762542,64e63663dbcaf322d2eec8da,64e702f43b67dfb0b5513012,,,,,,,sngl,resources/DG.BMP,resources/Empty.png,WildCard_NonEx,-0.275,-0.07129631,1,0,0,1.2993,optionLeft,55,5140,3,6,0,6,0,1,,,,,,,,,,,,,,,,,,,,,,,,,,,,,,,,,,,,,,,
,,,,,,,,2023-08-24_08h13.25.427,HF_wild_card,2022.2.4,Win32,12.00465781,5a5e03dd8e62590001762542,64e63663dbcaf322d2eec8da,64e702f43b67dfb0b5513012,,,,,,,decisionTrl,resources/DY.BMP,resources/DB.BMP,Door3,0.251851908,0.010185157,1,0,0,2.2375,optionRight,70,5210,3,7,0,7,0,1,,,,,,,,,,,,,,,,,,,,,,,,,,,,,,,,,,,,,,,
,,,,,,,,2023-08-24_08h13.25.427,HF_wild_card,2022.2.4,Win32,12.00465781,5a5e03dd8e62590001762542,64e63663dbcaf322d2eec8da,64e702f43b67dfb0b5513012,,,,,,,decisionTrl,resources/DY.BMP,resources/DB.BMP,Door3,0.238888889,0.026851824,1,0,0,1.7363,optionRight,70,5280,3,8,0,8,0,1,,,,,,,,,,,,,,,,,,,,,,,,,,,,,,,,,,,,,,,
,,,,,,,,2023-08-24_08h13.25.427,HF_wild_card,2022.2.4,Win32,12.00465781,5a5e03dd8e62590001762542,64e63663dbcaf322d2eec8da,64e702f43b67dfb0b5513012,,,,,,,sngl,resources/DBN.BMP,resources/Empty.png,Door1,-0.297222222,-0.060185199,1,0,0,1.8255,optionLeft,30,5310,3,9,0,9,0,1,,,,,,,,,,,,,,,,,,,,,,,,,,,,,,,,,,,,,,,
,,,,,,,,2023-08-24_08h13.25.427,HF_wild_card,2022.2.4,Win32,12.00465781,5a5e03dd8e62590001762542,64e63663dbcaf322d2eec8da,64e702f43b67dfb0b5513012,,,,,,,decisionTrl,resources/DP.BMP,resources/DG.BMP,WildCard_NonEx,0.468518575,-0.030555556,1,0,0,4.5555,optionRight,55,5365,3,10,0,10,0,1,,,,,,,,,,,,,,,,,,,,,,,,,,,,,,,,,,,,,,,
,,,,,,,,2023-08-24_08h13.25.427,HF_wild_card,2022.2.4,Win32,12.00465781,5a5e03dd8e62590001762542,64e63663dbcaf322d2eec8da,64e702f43b67dfb0b5513012,,,,,,,sngl,resources/Empty.png,resources/DP.BMP,Door2,0.364814843,-0.070370399,1,0,0,1.2386,optionRight,20,5385,3,11,0,11,0,1,,,,,,,,,,,,,,,,,,,,,,,,,,,,,,,,,,,,,,,
,,,,,,,,2023-08-24_08h13.25.427,HF_wild_card,2022.2.4,Win32,12.00465781,5a5e03dd8e62590001762542,64e63663dbcaf322d2eec8da,64e702f43b67dfb0b5513012,,,,,,,decisionTrl,resources/DP.BMP,resources/DBN.BMP,Door1,0.329629686,0.055555556,1,0,0,1.6936,optionRight,30,5415,3,12,0,12,0,1,,,,,,,,,,,,,,,,,,,,,,,,,,,,,,,,,,,,,,,
,,,,,,,,2023-08-24_08h13.25.427,HF_wild_card,2022.2.4,Win32,12.00465781,5a5e03dd8e62590001762542,64e63663dbcaf322d2eec8da,64e702f43b67dfb0b5513012,,,,,,,ctch,resources/DBN.BMP,resources/DY.BMP,Door4,0.3,0.004629601,1,0,0,1.9735,optionRight,80,5495,3,13,0,13,0,1,,,,,,,,,,,,,,,,,,,,,,,,,,,,,,,,,,,,,,,
,,,,,,,,2023-08-24_08h13.25.427,HF_wild_card,2022.2.4,Win32,12.00465781,5a5e03dd8e62590001762542,64e63663dbcaf322d2eec8da,64e702f43b67dfb0b5513012,,,,,,,sngl,resources/DP.BMP,resources/Empty.png,Door2,-0.370370356,-0.062962977,1,0,0,1.5712,optionLeft,40,5535,3,14,0,14,0,1,,,,,,,,,,,,,,,,,,,,,,,,,,,,,,,,,,,,,,,
,,,,,,,,2023-08-24_08h13.25.427,HF_wild_card,2022.2.4,Win32,12.00465781,5a5e03dd8e62590001762542,64e63663dbcaf322d2eec8da,64e702f43b67dfb0b5513012,,,,,,,decisionTrl,resources/DB.BMP,resources/DY.BMP,Door3,-0.312037023,-0.048148176,1,0,0,2.2511,optionLeft,70,5605,3,15,0,15,0,1,,,,,,,,,,,,,,,,,,,,,,,,,,,,,,,,,,,,,,,
,,,,,,,,2023-08-24_08h13.25.427,HF_wild_card,2022.2.4,Win32,12.00465781,5a5e03dd8e62590001762542,64e63663dbcaf322d2eec8da,64e702f43b67dfb0b5513012,,,,,,,decisionTrl,resources/DY.BMP,resources/DB.BMP,Door3,0.25648151,0.015740712,1,0,0,1.7437,optionRight,70,5675,3,16,0,16,0,1,,,,,,,,,,,,,,,,,,,,,,,,,,,,,,,,,,,,,,,
,,,,,,,,2023-08-24_08h13.25.427,HF_wild_card,2022.2.4,Win32,12.00465781,5a5e03dd8e62590001762542,64e63663dbcaf322d2eec8da,64e702f43b67dfb0b5513012,,,,,,,decisionTrl,resources/DBN.BMP,resources/DP.BMP,Door1,-0.36851849,-0.041666667,1,0,0,2.0697,optionLeft,30,5705,3,17,0,17,0,1,,,,,,,,,,,,,,,,,,,,,,,,,,,,,,,,,,,,,,,
,,,,,,,,2023-08-24_08h13.25.427,HF_wild_card,2022.2.4,Win32,12.00465781,5a5e03dd8e62590001762542,64e63663dbcaf322d2eec8da,64e702f43b67dfb0b5513012,,,,,,,ctch,resources/DB.BMP,resources/DP.BMP,Door3,-0.275,0.026851824,1,0,0,2.4628,optionLeft,70,5775,3,18,0,18,0,1,,,,,,,,,,,,,,,,,,,,,,,,,,,,,,,,,,,,,,,
,,,,,,,,2023-08-24_08h13.25.427,HF_wild_card,2022.2.4,Win32,12.00465781,5a5e03dd8e62590001762542,64e63663dbcaf322d2eec8da,64e702f43b67dfb0b5513012,,,,,,,decisionTrl,resources/DB.BMP,resources/DG.BMP,Door3,-0.305555556,-0.014814843,1,0,0,2.0251,optionLeft,70,5845,3,19,0,19,0,1,,,,,,,,,,,,,,,,,,,,,,,,,,,,,,,,,,,,,,,
,,,,,,,,2023-08-24_08h13.25.427,HF_wild_card,2022.2.4,Win32,12.00465781,5a5e03dd8e62590001762542,64e63663dbcaf322d2eec8da,64e702f43b67dfb0b5513012,,,,,,,sngl,resources/Empty.png,resources/DG.BMP,WildCard_NonEx,0.375925954,0.006481467,1,0,0,2.5393,optionRight,45,5890,3,20,0,20,0,1,,,,,,,,,,,,,,,,,,,,,,,,,,,,,,,,,,,,,,,
,,,,,,,,2023-08-24_08h13.25.427,HF_wild_card,2022.2.4,Win32,12.00465781,5a5e03dd8e62590001762542,64e63663dbcaf322d2eec8da,64e702f43b67dfb0b5513012,,,,,,,decisionTrl,resources/DBN.BMP,resources/DP.BMP,Door1,-0.333333333,-0.066666667,1,0,0,2.4647,optionLeft,30,5920,3,21,0,21,0,1,,,,,,,,,,,,,,,,,,,,,,,,,,,,,,,,,,,,,,,
,,,,,,,,2023-08-24_08h13.25.427,HF_wild_card,2022.2.4,Win32,12.00465781,5a5e03dd8e62590001762542,64e63663dbcaf322d2eec8da,64e702f43b67dfb0b5513012,,,,,,,sngl,resources/DY.BMP,resources/Empty.png,Door4,-0.327777778,-0.101851866,1,0,0,2.2021,optionLeft,80,6000,3,22,0,22,0,1,,,,,,,,,,,,,,,,,,,,,,,,,,,,,,,,,,,,,,,
,,,,,,,,2023-08-24_08h13.25.427,HF_wild_card,2022.2.4,Win32,12.00465781,5a5e03dd8e62590001762542,64e63663dbcaf322d2eec8da,64e702f43b67dfb0b5513012,,,,,,,decisionTrl,resources/DY.BMP,resources/DB.BMP,Door3,0.315740797,-0.038888889,1,0,0,1.3989,optionRight,70,6070,3,23,0,23,0,1,,,,,,,,,,,,,,,,,,,,,,,,,,,,,,,,,,,,,,,
,,,,,,,,2023-08-24_08h13.25.427,HF_wild_card,2022.2.4,Win32,12.00465781,5a5e03dd8e62590001762542,64e63663dbcaf322d2eec8da,64e702f43b67dfb0b5513012,,,,,,,sngl,resources/Empty.png,resources/DB.BMP,Door3,0.253703732,-0.068518533,1,0,0,1.0422,optionRight,70,6140,3,24,0,24,0,1,,,,,,,,,,,,,,,,,,,,,,,,,,,,,,,,,,,,,,,
,,,,,,,,2023-08-24_08h13.25.427,HF_wild_card,2022.2.4,Win32,12.00465781,5a5e03dd8e62590001762542,64e63663dbcaf322d2eec8da,64e702f43b67dfb0b5513012,,,,,,,sngl,resources/Empty.png,resources/DG.BMP,WildCard_NonEx,0.305555556,-0.013888889,1,0,0,1.5781,optionRight,55,6195,3,25,0,25,0,1,,,,,,,,,,,,,,,,,,,,,,,,,,,,,,,,,,,,,,,
,,,,,,,,2023-08-24_08h13.25.427,HF_wild_card,2022.2.4,Win32,12.00465781,5a5e03dd8e62590001762542,64e63663dbcaf322d2eec8da,64e702f43b67dfb0b5513012,,,,,,,sngl,resources/DG.BMP,resources/Empty.png,WildCard_NonEx,-0.355555556,-0.086111111,1,0,0,1.1221,optionLeft,45,6240,3,26,0,26,0,1,,,,,,,,,,,,,,,,,,,,,,,,,,,,,,,,,,,,,,,
,,,,,,,,2023-08-24_08h13.25.427,HF_wild_card,2022.2.4,Win32,12.00465781,5a5e03dd8e62590001762542,64e63663dbcaf322d2eec8da,64e702f43b67dfb0b5513012,,,,,,,decisionTrl,resources/DG.BMP,resources/DB.BMP,Door3,0.330555556,-0.045370399,1,0,0,1.4157,optionRight,70,6310,3,27,0,27,0,1,,,,,,,,,,,,,,,,,,,,,,,,,,,,,,,,,,,,,,,
,,,,,,,,2023-08-24_08h13.25.427,HF_wild_card,2022.2.4,Win32,12.00465781,5a5e03dd8e62590001762542,64e63663dbcaf322d2eec8da,64e702f43b67dfb0b5513012,,,,,,,decisionTrl,resources/DY.BMP,resources/DG.BMP,Door4,-0.282407379,-0.058333333,1,0,0,2.3442,optionLeft,80,6390,3,28,0,28,0,1,,,,,,,,,,,,,,,,,,,,,,,,,,,,,,,,,,,,,,,
,,,,,,,,2023-08-24_08h13.25.427,HF_wild_card,2022.2.4,Win32,12.00465781,5a5e03dd8e62590001762542,64e63663dbcaf322d2eec8da,64e702f43b67dfb0b5513012,,,,,,,decisionTrl,resources/DG.BMP,resources/DY.BMP,Door4,0.340740797,-0.020370399,1,0,0,1.8534,optionRight,80,6470,3,29,0,29,0,1,,,,,,,,,,,,,,,,,,,,,,,,,,,,,,,,,,,,,,,
,,,,,,,,2023-08-24_08h13.25.427,HF_wild_card,2022.2.4,Win32,12.00465781,5a5e03dd8e62590001762542,64e63663dbcaf322d2eec8da,64e702f43b67dfb0b5513012,,,,,,,decisionTrl,resources/DB.BMP,resources/DY.BMP,Door3,-0.300925912,-0.109259288,1,0,0,1.416,optionLeft,70,6540,3,30,0,30,0,1,,,,,,,,,,,,,,,,,,,,,,,,,,,,,,,,,,,,,,,
,,,,,,,,2023-08-24_08h13.25.427,HF_wild_card,2022.2.4,Win32,12.00465781,5a5e03dd8e62590001762542,64e63663dbcaf322d2eec8da,64e702f43b67dfb0b5513012,,,,,,,ctch,resources/DBN.BMP,resources/DY.BMP,Door4,0.348148176,0.072222222,1,0,0,2.4563,optionRight,60,6600,3,31,0,31,0,1,,,,,,,,,,,,,,,,,,,,,,,,,,,,,,,,,,,,,,,
,,,,,,,,2023-08-24_08h13.25.427,HF_wild_card,2022.2.4,Win32,12.00465781,5a5e03dd8e62590001762542,64e63663dbcaf322d2eec8da,64e702f43b67dfb0b5513012,,,,,,,decisionTrl,resources/DBN.BMP,resources/DP.BMP,Door1,-0.339814801,-0.039814843,1,0,0,2.6134,optionLeft,30,6630,3,32,0,32,0,1,,,,,,,,,,,,,,,,,,,,,,,,,,,,,,,,,,,,,,,
,,,,,,,,2023-08-24_08h13.25.427,HF_wild_card,2022.2.4,Win32,12.00465781,5a5e03dd8e62590001762542,64e63663dbcaf322d2eec8da,64e702f43b67dfb0b5513012,,,,,,,sngl,resources/DB.BMP,resources/Empty.png,Door3,-0.292592578,-0.050925954,1,0,0,1.3046,optionLeft,70,6700,3,33,0,33,0,1,,,,,,,,,,,,,,,,,,,,,,,,,,,,,,,,,,,,,,,
,,,,,,,,2023-08-24_08h13.25.427,HF_wild_card,2022.2.4,Win32,12.00465781,5a5e03dd8e62590001762542,64e63663dbcaf322d2eec8da,64e702f43b67dfb0b5513012,,,,,,,decisionTrl,resources/DBN.BMP,resources/DG.BMP,WildCard_NonEx,0.313888889,-0.062037065,1,0,0,2.1176,optionRight,45,6745,3,34,0,34,0,1,,,,,,,,,,,,,,,,,,,,,,,,,,,,,,,,,,,,,,,
,,,,,,,,2023-08-24_08h13.25.427,HF_wild_card,2022.2.4,Win32,12.00465781,5a5e03dd8e62590001762542,64e63663dbcaf322d2eec8da,64e702f43b67dfb0b5513012,,,,,,,decisionTrl,resources/DP.BMP,resources/DBN.BMP,Door1,0.279629686,0.111111111,1,0,0,2.5426,optionRight,30,6775,3,35,0,35,0,1,,,,,,,,,,,,,,,,,,,,,,,,,,,,,,,,,,,,,,,
,,,,,,,,2023-08-24_08h13.25.427,HF_wild_card,2022.2.4,Win32,12.00465781,5a5e03dd8e62590001762542,64e63663dbcaf322d2eec8da,64e702f43b67dfb0b5513012,,,,,,,ctch,resources/DP.BMP,resources/DB.BMP,Door3,0.309259288,0.001851824,1,0,0,1.4809,optionRight,70,6845,3,36,0,36,0,1,,,,,,,,,,,,,,,,,,,,,,,,,,,,,,,,,,,,,,,
,,,,,,,,2023-08-24_08h13.25.427,HF_wild_card,2022.2.4,Win32,12.00465781,5a5e03dd8e62590001762542,64e63663dbcaf322d2eec8da,64e702f43b67dfb0b5513012,,,,,,,decisionTrl,resources/DP.BMP,resources/DBN.BMP,Door1,0.424074131,0.087962935,1,0,0,2.2046,optionRight,30,6875,3,37,0,37,0,1,,,,,,,,,,,,,,,,,,,,,,,,,,,,,,,,,,,,,,,
,,,,,,,,2023-08-24_08h13.25.427,HF_wild_card,2022.2.4,Win32,12.00465781,5a5e03dd8e62590001762542,64e63663dbcaf322d2eec8da,64e702f43b67dfb0b5513012,,,,,,,decisionTrl,resources/DBN.BMP,resources/DP.BMP,Door1,-0.361111111,-0.00648151,1,0,0,2.1891,optionLeft,30,6905,3,38,0,38,0,1,,,,,,,,,,,,,,,,,,,,,,,,,,,,,,,,,,,,,,,
,,,,,,,,2023-08-24_08h13.25.427,HF_wild_card,2022.2.4,Win32,12.00465781,5a5e03dd8e62590001762542,64e63663dbcaf322d2eec8da,64e702f43b67dfb0b5513012,,,,,,,decisionTrl,resources/DG.BMP,resources/DP.BMP,WildCard_NonEx,-0.289814801,-0.009259288,1,0,0,2.1172,optionLeft,55,6960,3,39,0,39,0,1,,,,,,,,,,,,,,,,,,,,,,,,,,,,,,,,,,,,,,,
,,,,,,,,2023-08-24_08h13.25.427,HF_wild_card,2022.2.4,Win32,12.00465781,5a5e03dd8e62590001762542,64e63663dbcaf322d2eec8da,64e702f43b67dfb0b5513012,,,,,,,decisionTrl,resources/DG.BMP,resources/DBN.BMP,WildCard_NonEx,-0.307407379,-0.025925954,1,0,0,2.9168,optionLeft,55,7015,3,40,0,40,0,1,,,,,,,,,,,,,,,,,,,,,,,,,,,,,,,,,,,,,,,
,,,,,,,,2023-08-24_08h13.25.427,HF_wild_card,2022.2.4,Win32,12.00465781,5a5e03dd8e62590001762542,64e63663dbcaf322d2eec8da,64e702f43b67dfb0b5513012,,,,,,,sngl,resources/Empty.png,resources/DY.BMP,Door4,0.324074131,-0.004629644,1,0,0,1.3313,optionRight,60,7075,3,41,0,41,0,1,,,,,,,,,,,,,,,,,,,,,,,,,,,,,,,,,,,,,,,
,,,,,,,,2023-08-24_08h13.25.427,HF_wild_card,2022.2.4,Win32,12.00465781,5a5e03dd8e62590001762542,64e63663dbcaf322d2eec8da,64e702f43b67dfb0b5513012,,,,,,,decisionTrl,resources/DB.BMP,resources/DY.BMP,Door3,-0.288888889,-0.025925954,1,0,0,1.4019,optionLeft,70,7145,3,42,0,42,0,1,,,,,,,,,,,,,,,,,,,,,,,,,,,,,,,,,,,,,,,
,,,,,,,,2023-08-24_08h13.25.427,HF_wild_card,2022.2.4,Win32,12.00465781,5a5e03dd8e62590001762542,64e63663dbcaf322d2eec8da,64e702f43b67dfb0b5513012,,,,,,,decisionTrl,resources/DP.BMP,resources/DBN.BMP,Door1,0.324074131,0.09351849,1,0,0,3.373,optionRight,30,7175,3,43,0,43,0,1,,,,,,,,,,,,,,,,,,,,,,,,,,,,,,,,,,,,,,,
,,,,,,,,2023-08-24_08h13.25.427,HF_wild_card,2022.2.4,Win32,12.00465781,5a5e03dd8e62590001762542,64e63663dbcaf322d2eec8da,64e702f43b67dfb0b5513012,,,,,,,,,,,,,,,,,,,,,,,,,,2,0,2,0,1,,,,,,,,,,,,,,,,,,,,,,,,,,,,,,,,,,
,,,,,,,,2023-08-24_08h13.25.427,HF_wild_card,2022.2.4,Win32,12.00465781,5a5e03dd8e62590001762542,64e63663dbcaf322d2eec8da,64e702f43b67dfb0b5513012,,,,,,,decisionTrl,resources/DR.BMP,resources/DY.BMP,WildCard_Ex,-0.388888889,-0.164814843,1,0,0,1.7442,optionLeft,55,7230,4,0,0,0,0,1,,,,,,,,,,,,,,,,,,,,,,,,,,,,,,,,,,,,,,,
,,,,,,,,2023-08-24_08h13.25.427,HF_wild_card,2022.2.4,Win32,12.00465781,5a5e03dd8e62590001762542,64e63663dbcaf322d2eec8da,64e702f43b67dfb0b5513012,,,,,,,ctch,resources/DY.BMP,resources/DBN.BMP,Door4,-0.323148134,-0.078703732,1,0,0,1.5439,optionLeft,80,7310,4,1,0,1,0,1,,,,,,,,,,,,,,,,,,,,,,,,,,,,,,,,,,,,,,,
,,,,,,,,2023-08-24_08h13.25.427,HF_wild_card,2022.2.4,Win32,12.00465781,5a5e03dd8e62590001762542,64e63663dbcaf322d2eec8da,64e702f43b67dfb0b5513012,,,,,,,decisionTrl,resources/DP.BMP,resources/DR.BMP,WildCard_Ex,0.321296353,-0.061111111,1,0,0,1.8916,optionRight,55,7365,4,2,0,2,0,1,,,,,,,,,,,,,,,,,,,,,,,,,,,,,,,,,,,,,,,
,,,,,,,,2023-08-24_08h13.25.427,HF_wild_card,2022.2.4,Win32,12.00465781,5a5e03dd8e62590001762542,64e63663dbcaf322d2eec8da,64e702f43b67dfb0b5513012,,,,,,,sngl,resources/Empty.png,resources/DY.BMP,Door4,0.438888889,-0.069444444,1,0,0,1.0755,optionRight,80,7445,4,3,0,3,0,1,,,,,,,,,,,,,,,,,,,,,,,,,,,,,,,,,,,,,,,
,,,,,,,,2023-08-24_08h13.25.427,HF_wild_card,2022.2.4,Win32,12.00465781,5a5e03dd8e62590001762542,64e63663dbcaf322d2eec8da,64e702f43b67dfb0b5513012,,,,,,,decisionTrl,resources/DBN.BMP,resources/DR.BMP,WildCard_Ex,0.360185242,-0.097222222,1,0,0,1.3543,optionRight,45,7490,4,4,0,4,0,1,,,,,,,,,,,,,,,,,,,,,,,,,,,,,,,,,,,,,,,
,,,,,,,,2023-08-24_08h13.25.427,HF_wild_card,2022.2.4,Win32,12.00465781,5a5e03dd8e62590001762542,64e63663dbcaf322d2eec8da,64e702f43b67dfb0b5513012,,,,,,,decisionTrl,resources/DR.BMP,resources/DBN.BMP,WildCard_Ex,-0.364814801,0,1,0,0,1.8887,optionLeft,45,7535,4,5,0,5,0,1,,,,,,,,,,,,,,,,,,,,,,,,,,,,,,,,,,,,,,,
,,,,,,,,2023-08-24_08h13.25.427,HF_wild_card,2022.2.4,Win32,12.00465781,5a5e03dd8e62590001762542,64e63663dbcaf322d2eec8da,64e702f43b67dfb0b5513012,,,,,,,decisionTrl,resources/DB.BMP,resources/DY.BMP,Door3,-0.269444444,-0.04629631,1,0,0,1.7703,optionLeft,70,7605,4,6,0,6,0,1,,,,,,,,,,,,,,,,,,,,,,,,,,,,,,,,,,,,,,,
,,,,,,,,2023-08-24_08h13.25.427,HF_wild_card,2022.2.4,Win32,12.00465781,5a5e03dd8e62590001762542,64e63663dbcaf322d2eec8da,64e702f43b67dfb0b5513012,,,,,,,decisionTrl,resources/DY.BMP,resources/DB.BMP,Door3,0.272222222,0.004629601,1,0,0,3.1016,optionRight,70,7675,4,7,0,7,0,1,,,,,,,,,,,,,,,,,,,,,,,,,,,,,,,,,,,,,,,
,,,,,,,,2023-08-24_08h13.25.427,HF_wild_card,2022.2.4,Win32,12.00465781,5a5e03dd8e62590001762542,64e63663dbcaf322d2eec8da,64e702f43b67dfb0b5513012,,,,,,,decisionTrl,resources/DY.BMP,resources/DB.BMP,Door3,0.241666667,0.007407379,1,0,0,1.412,optionRight,70,7745,4,8,0,8,0,1,,,,,,,,,,,,,,,,,,,,,,,,,,,,,,,,,,,,,,,
,,,,,,,,2023-08-24_08h13.25.427,HF_wild_card,2022.2.4,Win32,12.00465781,5a5e03dd8e62590001762542,64e63663dbcaf322d2eec8da,64e702f43b67dfb0b5513012,,,,,,,ctch,resources/DBN.BMP,resources/DY.BMP,Door4,0.313888889,-0.015740755,1,0,0,1.6762,optionRight,60,7805,4,9,0,9,0,1,,,,,,,,,,,,,,,,,,,,,,,,,,,,,,,,,,,,,,,
,,,,,,,,2023-08-24_08h13.25.427,HF_wild_card,2022.2.4,Win32,12.00465781,5a5e03dd8e62590001762542,64e63663dbcaf322d2eec8da,64e702f43b67dfb0b5513012,,,,,,,decisionTrl,resources/DP.BMP,resources/DBN.BMP,Door1,0.282407464,0.022222222,1,0,0,1.6705,optionRight,30,7835,4,10,0,10,0,1,,,,,,,,,,,,,,,,,,,,,,,,,,,,,,,,,,,,,,,
,,,,,,,,2023-08-24_08h13.25.427,HF_wild_card,2022.2.4,Win32,12.00465781,5a5e03dd8e62590001762542,64e63663dbcaf322d2eec8da,64e702f43b67dfb0b5513012,,,,,,,decisionTrl,resources/DBN.BMP,resources/DP.BMP,Door1,-0.314814801,0.027777778,1,0,0,1.8389,optionLeft,30,7865,4,11,0,11,0,1,,,,,,,,,,,,,,,,,,,,,,,,,,,,,,,,,,,,,,,
,,,,,,,,2023-08-24_08h13.25.427,HF_wild_card,2022.2.4,Win32,12.00465781,5a5e03dd8e62590001762542,64e63663dbcaf322d2eec8da,64e702f43b67dfb0b5513012,,,,,,,sngl,resources/DP.BMP,resources/Empty.png,Door2,-0.326851824,-0.012037065,1,0,0,1.1413,optionLeft,20,7885,4,12,0,12,0,1,,,,,,,,,,,,,,,,,,,,,,,,,,,,,,,,,,,,,,,
,,,,,,,,2023-08-24_08h13.25.427,HF_wild_card,2022.2.4,Win32,12.00465781,5a5e03dd8e62590001762542,64e63663dbcaf322d2eec8da,64e702f43b67dfb0b5513012,,,,,,,sngl,resources/DR.BMP,resources/Empty.png,WildCard_Ex,-0.296296268,-0.000925954,1,0,0,1.3257,optionLeft,45,7930,4,13,0,13,0,1,,,,,,,,,,,,,,,,,,,,,,,,,,,,,,,,,,,,,,,
,,,,,,,,2023-08-24_08h13.25.427,HF_wild_card,2022.2.4,Win32,12.00465781,5a5e03dd8e62590001762542,64e63663dbcaf322d2eec8da,64e702f43b67dfb0b5513012,,,,,,,ctch,resources/DBN.BMP,resources/DY.BMP,Door4,0.390740797,0.075,1,0,0,2.0437,optionRight,80,8010,4,14,0,14,0,1,,,,,,,,,,,,,,,,,,,,,,,,,,,,,,,,,,,,,,,
,,,,,,,,2023-08-24_08h13.25.427,HF_wild_card,2022.2.4,Win32,12.00465781,5a5e03dd8e62590001762542,64e63663dbcaf322d2eec8da,64e702f43b67dfb0b5513012,,,,,,,sngl,resources/Empty.png,resources/DBN.BMP,Door1,0.329629686,0.071296268,1,0,0,2.0139,optionRight,30,8040,4,15,0,15,0,1,,,,,,,,,,,,,,,,,,,,,,,,,,,,,,,,,,,,,,,
,,,,,,,,2023-08-24_08h13.25.427,HF_wild_card,2022.2.4,Win32,12.00465781,5a5e03dd8e62590001762542,64e63663dbcaf322d2eec8da,64e702f43b67dfb0b5513012,,,,,,,decisionTrl,resources/DB.BMP,resources/DY.BMP,Door3,-0.292592578,0.011111111,1,0,0,1.7459,optionLeft,70,8110,4,16,0,16,0,1,,,,,,,,,,,,,,,,,,,,,,,,,,,,,,,,,,,,,,,
,,,,,,,,2023-08-24_08h13.25.427,HF_wild_card,2022.2.4,Win32,12.00465781,5a5e03dd8e62590001762542,64e63663dbcaf322d2eec8da,64e702f43b67dfb0b5513012,,,,,,,sngl,resources/DBN.BMP,resources/Empty.png,Door1,-0.262037023,0.000925912,1,0,0,1.4496,optionLeft,30,8140,4,17,0,17,0,1,,,,,,,,,,,,,,,,,,,,,,,,,,,,,,,,,,,,,,,
,,,,,,,,2023-08-24_08h13.25.427,HF_wild_card,2022.2.4,Win32,12.00465781,5a5e03dd8e62590001762542,64e63663dbcaf322d2eec8da,64e702f43b67dfb0b5513012,,,,,,,decisionTrl,resources/DP.BMP,resources/DBN.BMP,Door1,0.330555556,0.059259245,1,0,0,2.9279,optionRight,30,8170,4,18,0,18,0,1,,,,,,,,,,,,,,,,,,,,,,,,,,,,,,,,,,,,,,,
,,,,,,,,2023-08-24_08h13.25.427,HF_wild_card,2022.2.4,Win32,12.00465781,5a5e03dd8e62590001762542,64e63663dbcaf322d2eec8da,64e702f43b67dfb0b5513012,,,,,,,sngl,resources/Empty.png,resources/DR.BMP,WildCard_Ex,0.368518575,-0.023148176,1,0,0,1.0368,optionRight,55,8225,4,19,0,19,0,1,,,,,,,,,,,,,,,,,,,,,,,,,,,,,,,,,,,,,,,
,,,,,,,,2023-08-24_08h13.25.427,HF_wild_card,2022.2.4,Win32,12.00465781,5a5e03dd8e62590001762542,64e63663dbcaf322d2eec8da,64e702f43b67dfb0b5513012,,,,,,,decisionTrl,resources/DP.BMP,resources/DBN.BMP,Door1,0.275925954,0.097222222,1,0,0,2.2554,optionRight,30,8255,4,20,0,20,0,1,,,,,,,,,,,,,,,,,,,,,,,,,,,,,,,,,,,,,,,
,,,,,,,,2023-08-24_08h13.25.427,HF_wild_card,2022.2.4,Win32,12.00465781,5a5e03dd8e62590001762542,64e63663dbcaf322d2eec8da,64e702f43b67dfb0b5513012,,,,,,,decisionTrl,resources/DBN.BMP,resources/DP.BMP,Door1,-0.325925912,0.058333333,1,0,0,2.0317,optionLeft,30,8285,4,21,0,21,0,1,,,,,,,,,,,,,,,,,,,,,,,,,,,,,,,,,,,,,,,
,,,,,,,,2023-08-24_08h13.25.427,HF_wild_card,2022.2.4,Win32,12.00465781,5a5e03dd8e62590001762542,64e63663dbcaf322d2eec8da,64e702f43b67dfb0b5513012,,,,,,,sngl,resources/Empty.png,resources/DP.BMP,Door2,0.299074131,-0.007407422,1,0,0,1.3207,optionRight,40,8325,4,22,0,22,0,1,,,,,,,,,,,,,,,,,,,,,,,,,,,,,,,,,,,,,,,
,,,,,,,,2023-08-24_08h13.25.427,HF_wild_card,2022.2.4,Win32,12.00465781,5a5e03dd8e62590001762542,64e63663dbcaf322d2eec8da,64e702f43b67dfb0b5513012,,,,,,,ctch,resources/DY.BMP,resources/DBN.BMP,Door4,-0.36851849,-0.036111111,1,0,0,1.625,optionLeft,60,8385,4,23,0,23,0,1,,,,,,,,,,,,,,,,,,,,,,,,,,,,,,,,,,,,,,,
,,,,,,,,2023-08-24_08h13.25.427,HF_wild_card,2022.2.4,Win32,12.00465781,5a5e03dd8e62590001762542,64e63663dbcaf322d2eec8da,64e702f43b67dfb0b5513012,,,,,,,decisionTrl,resources/DB.BMP,resources/DY.BMP,Door3,-0.329629601,-0.042592621,1,0,0,1.3303,optionLeft,70,8455,4,24,0,24,0,1,,,,,,,,,,,,,,,,,,,,,,,,,,,,,,,,,,,,,,,
,,,,,,,,2023-08-24_08h13.25.427,HF_wild_card,2022.2.4,Win32,12.00465781,5a5e03dd8e62590001762542,64e63663dbcaf322d2eec8da,64e702f43b67dfb0b5513012,,,,,,,decisionTrl,resources/DP.BMP,resources/DBN.BMP,Door1,0.333333333,0.108333333,1,0,0,2.9595,optionRight,30,8485,4,25,0,25,0,1,,,,,,,,,,,,,,,,,,,,,,,,,,,,,,,,,,,,,,,
,,,,,,,,2023-08-24_08h13.25.427,HF_wild_card,2022.2.4,Win32,12.00465781,5a5e03dd8e62590001762542,64e63663dbcaf322d2eec8da,64e702f43b67dfb0b5513012,,,,,,,sngl,resources/Empty.png,resources/DR.BMP,WildCard_Ex,0.459259288,-0.004629644,1,0,0,1.2567,optionRight,45,8530,4,26,0,26,0,1,,,,,,,,,,,,,,,,,,,,,,,,,,,,,,,,,,,,,,,
,,,,,,,,2023-08-24_08h13.25.427,HF_wild_card,2022.2.4,Win32,12.00465781,5a5e03dd8e62590001762542,64e63663dbcaf322d2eec8da,64e702f43b67dfb0b5513012,,,,,,,sngl,resources/DR.BMP,resources/Empty.png,WildCard_Ex,-0.3,-0.045370399,1,0,0,1.1074,optionLeft,55,8585,4,27,0,27,0,1,,,,,,,,,,,,,,,,,,,,,,,,,,,,,,,,,,,,,,,
,,,,,,,,2023-08-24_08h13.25.427,HF_wild_card,2022.2.4,Win32,12.00465781,5a5e03dd8e62590001762542,64e63663dbcaf322d2eec8da,64e702f43b67dfb0b5513012,,,,,,,ctch,resources/DP.BMP,resources/DB.BMP,Door3,0.315740797,0.026851824,1,0,0,1.793,optionRight,70,8655,4,28,0,28,0,1,,,,,,,,,,,,,,,,,,,,,,,,,,,,,,,,,,,,,,,
,,,,,,,,2023-08-24_08h13.25.427,HF_wild_card,2022.2.4,Win32,12.00465781,5a5e03dd8e62590001762542,64e63663dbcaf322d2eec8da,64e702f43b67dfb0b5513012,,,,,,,sngl,resources/DB.BMP,resources/Empty.png,Door3,-0.256481467,-0.017592621,1,0,0,1.1196,optionLeft,70,8725,4,29,0,29,0,1,,,,,,,,,,,,,,,,,,,,,,,,,,,,,,,,,,,,,,,
,,,,,,,,2023-08-24_08h13.25.427,HF_wild_card,2022.2.4,Win32,12.00465781,5a5e03dd8e62590001762542,64e63663dbcaf322d2eec8da,64e702f43b67dfb0b5513012,,,,,,,decisionTrl,resources/DR.BMP,resources/DB.BMP,Door3,0.301851908,-0.003703732,1,0,0,1.2624,optionRight,70,8795,4,30,0,30,0,1,,,,,,,,,,,,,,,,,,,,,,,,,,,,,,,,,,,,,,,
,,,,,,,,2023-08-24_08h13.25.427,HF_wild_card,2022.2.4,Win32,12.00465781,5a5e03dd8e62590001762542,64e63663dbcaf322d2eec8da,64e702f43b67dfb0b5513012,,,,,,,decisionTrl,resources/DR.BMP,resources/DP.BMP,WildCard_Ex,-0.342592578,-0.014814843,1,0,0,1.8124,optionLeft,45,8840,4,31,0,31,0,1,,,,,,,,,,,,,,,,,,,,,,,,,,,,,,,,,,,,,,,
,,,,,,,,2023-08-24_08h13.25.427,HF_wild_card,2022.2.4,Win32,12.00465781,5a5e03dd8e62590001762542,64e63663dbcaf322d2eec8da,64e702f43b67dfb0b5513012,,,,,,,decisionTrl,resources/DBN.BMP,resources/DP.BMP,Door1,-0.298148134,0.012037023,1,0,0,1.5555,optionLeft,30,8870,4,32,0,32,0,1,,,,,,,,,,,,,,,,,,,,,,,,,,,,,,,,,,,,,,,
,,,,,,,,2023-08-24_08h13.25.427,HF_wild_card,2022.2.4,Win32,12.00465781,5a5e03dd8e62590001762542,64e63663dbcaf322d2eec8da,64e702f43b67dfb0b5513012,,,,,,,decisionTrl,resources/DY.BMP,resources/DR.BMP,Door4,-0.247222222,-0.004629644,1,0,0,2.3503,optionLeft,60,8930,4,33,0,33,0,1,,,,,,,,,,,,,,,,,,,,,,,,,,,,,,,,,,,,,,,
,,,,,,,,2023-08-24_08h13.25.427,HF_wild_card,2022.2.4,Win32,12.00465781,5a5e03dd8e62590001762542,64e63663dbcaf322d2eec8da,64e702f43b67dfb0b5513012,,,,,,,decisionTrl,resources/DB.BMP,resources/DY.BMP,Door3,-0.275,0.009259245,1,0,0,1.3375,optionLeft,70,9000,4,34,0,34,0,1,,,,,,,,,,,,,,,,,,,,,,,,,,,,,,,,,,,,,,,
,,,,,,,,2023-08-24_08h13.25.427,HF_wild_card,2022.2.4,Win32,12.00465781,5a5e03dd8e62590001762542,64e63663dbcaf322d2eec8da,64e702f43b67dfb0b5513012,,,,,,,decisionTrl,resources/DY.BMP,resources/DB.BMP,Door3,0.290740797,-0.008333333,1,0,0,1.1649,optionRight,70,9070,4,35,0,35,0,1,,,,,,,,,,,,,,,,,,,,,,,,,,,,,,,,,,,,,,,
,,,,,,,,2023-08-24_08h13.25.427,HF_wild_card,2022.2.4,Win32,12.00465781,5a5e03dd8e62590001762542,64e63663dbcaf322d2eec8da,64e702f43b67dfb0b5513012,,,,,,,ctch,resources/DB.BMP,resources/DP.BMP,Door3,-0.323148134,-0.040740755,1,0,0,1.5718,optionLeft,70,9140,4,36,0,36,0,1,,,,,,,,,,,,,,,,,,,,,,,,,,,,,,,,,,,,,,,
,,,,,,,,2023-08-24_08h13.25.427,HF_wild_card,2022.2.4,Win32,12.00465781,5a5e03dd8e62590001762542,64e63663dbcaf322d2eec8da,64e702f43b67dfb0b5513012,,,,,,,decisionTrl,resources/DBN.BMP,resources/DP.BMP,Door1,-0.258333333,-0.047222222,1,0,0,2.8903,optionLeft,30,9170,4,37,0,37,0,1,,,,,,,,,,,,,,,,,,,,,,,,,,,,,,,,,,,,,,,
,,,,,,,,2023-08-24_08h13.25.427,HF_wild_card,2022.2.4,Win32,12.00465781,5a5e03dd8e62590001762542,64e63663dbcaf322d2eec8da,64e702f43b67dfb0b5513012,,,,,,,decisionTrl,resources/DB.BMP,resources/DR.BMP,Door3,-0.281481467,-0.028703732,1,0,0,1.9847,optionLeft,70,9240,4,38,0,38,0,1,,,,,,,,,,,,,,,,,,,,,,,,,,,,,,,,,,,,,,,
,,,,,,,,2023-08-24_08h13.25.427,HF_wild_card,2022.2.4,Win32,12.00465781,5a5e03dd8e62590001762542,64e63663dbcaf322d2eec8da,64e702f43b67dfb0b5513012,,,,,,,sngl,resources/DY.BMP,resources/Empty.png,Door4,-0.304629601,-0.051851866,1,0,0,1.8402,optionLeft,60,9300,4,39,0,39,0,1,,,,,,,,,,,,,,,,,,,,,,,,,,,,,,,,,,,,,,,
,,,,,,,,2023-08-24_08h13.25.427,HF_wild_card,2022.2.4,Win32,12.00465781,5a5e03dd8e62590001762542,64e63663dbcaf322d2eec8da,64e702f43b67dfb0b5513012,,,,,,,ctch,resources/DB.BMP,resources/DP.BMP,Door3,-0.331481467,-0.048148176,1,0,0,1.5449,optionLeft,70,9370,4,40,0,40,0,1,,,,,,,,,,,,,,,,,,,,,,,,,,,,,,,,,,,,,,,
,,,,,,,,2023-08-24_08h13.25.427,HF_wild_card,2022.2.4,Win32,12.00465781,5a5e03dd8e62590001762542,64e63663dbcaf322d2eec8da,64e702f43b67dfb0b5513012,,,,,,,ctch,resources/DP.BMP,resources/DB.BMP,Door3,0.248148176,0.000925912,1,0,0,1.6889,optionRight,70,9440,4,41,0,41,0,1,,,,,,,,,,,,,,,,,,,,,,,,,,,,,,,,,,,,,,,
,,,,,,,,2023-08-24_08h13.25.427,HF_wild_card,2022.2.4,Win32,12.00465781,5a5e03dd8e62590001762542,64e63663dbcaf322d2eec8da,64e702f43b67dfb0b5513012,,,,,,,sngl,resources/Empty.png,resources/DB.BMP,Door3,0.262963019,-0.019444444,1,0,0,1.0555,optionRight,70,9510,4,42,0,42,0,1,,,,,,,,,,,,,,,,,,,,,,,,,,,,,,,,,,,,,,,
,,,,,,,,2023-08-24_08h13.25.427,HF_wild_card,2022.2.4,Win32,12.00465781,5a5e03dd8e62590001762542,64e63663dbcaf322d2eec8da,64e702f43b67dfb0b5513012,,,,,,,decisionTrl,resources/DY.BMP,resources/DB.BMP,Door4,-0.296296268,-0.05,1,0,0,1.4696,optionLeft,60,9570,4,43,0,43,0,1,,,,,,,,,,,,,,,,,,,,,,,,,,,,,,,,,,,,,,,
,,,,,,,,2023-08-24_08h13.25.427,HF_wild_card,2022.2.4,Win32,12.00465781,5a5e03dd8e62590001762542,64e63663dbcaf322d2eec8da,64e702f43b67dfb0b5513012,,,,,,,,,,,,,,,,,,,,,,,,,,3,0,3,0,1,,,,,,,,,,,,,,,,,,,,,,,,,,,,,,,,,,
,,,,,,,,2023-08-24_08h13.25.427,HF_wild_card,2022.2.4,Win32,12.00465781,5a5e03dd8e62590001762542,64e63663dbcaf322d2eec8da,64e702f43b67dfb0b5513012,,,,,,,ctch,resources/DP.BMP,resources/DB.BMP,Door3,0.234259288,-0.052777778,1,0,0,1.5807,optionRight,70,9640,5,0,0,0,0,1,,,,,,,,,,,,,,,,,,,,,,,,,,,,,,,,,,,,,,,
,,,,,,,,2023-08-24_08h13.25.427,HF_wild_card,2022.2.4,Win32,12.00465781,5a5e03dd8e62590001762542,64e63663dbcaf322d2eec8da,64e702f43b67dfb0b5513012,,,,,,,ctch,resources/DB.BMP,resources/DP.BMP,Door3,-0.307407379,-0.072222222,1,0,0,3.6741,optionLeft,70,9710,5,1,0,1,0,1,,,,,,,,,,,,,,,,,,,,,,,,,,,,,,,,,,,,,,,
,,,,,,,,2023-08-24_08h13.25.427,HF_wild_card,2022.2.4,Win32,12.00465781,5a5e03dd8e62590001762542,64e63663dbcaf322d2eec8da,64e702f43b67dfb0b5513012,,,,,,,decisionTrl,resources/DP.BMP,resources/DBN.BMP,Door2,-0.321296268,-0.05648151,1,0,0,1.4013,optionLeft,40,9750,5,2,0,2,0,1,,,,,,,,,,,,,,,,,,,,,,,,,,,,,,,,,,,,,,,
,,,,,,,,2023-08-24_08h13.25.427,HF_wild_card,2022.2.4,Win32,12.00465781,5a5e03dd8e62590001762542,64e63663dbcaf322d2eec8da,64e702f43b67dfb0b5513012,,,,,,,sngl,resources/DR.BMP,resources/Empty.png,WildCard_Ex,-0.295370356,-0.072222222,1,0,0,1.1765,optionLeft,45,9795,5,3,0,3,0,1,,,,,,,,,,,,,,,,,,,,,,,,,,,,,,,,,,,,,,,
,,,,,,,,2023-08-24_08h13.25.427,HF_wild_card,2022.2.4,Win32,12.00465781,5a5e03dd8e62590001762542,64e63663dbcaf322d2eec8da,64e702f43b67dfb0b5513012,,,,,,,decisionTrl,resources/DBN.BMP,resources/DP.BMP,Door1,-0.317592578,-0.07129631,1,0,0,2.5518,optionLeft,30,9825,5,4,0,4,0,1,,,,,,,,,,,,,,,,,,,,,,,,,,,,,,,,,,,,,,,
,,,,,,,,2023-08-24_08h13.25.427,HF_wild_card,2022.2.4,Win32,12.00465781,5a5e03dd8e62590001762542,64e63663dbcaf322d2eec8da,64e702f43b67dfb0b5513012,,,,,,,decisionTrl,resources/DB.BMP,resources/DY.BMP,Door3,-0.264814801,-0.049074088,1,0,0,1.683,optionLeft,70,9895,5,5,0,5,0,1,,,,,,,,,,,,,,,,,,,,,,,,,,,,,,,,,,,,,,,
,,,,,,,,2023-08-24_08h13.25.427,HF_wild_card,2022.2.4,Win32,12.00465781,5a5e03dd8e62590001762542,64e63663dbcaf322d2eec8da,64e702f43b67dfb0b5513012,,,,,,,sngl,resources/DP.BMP,resources/Empty.png,Door2,-0.322222222,-0.040740755,1,0,0,1.0398,optionLeft,40,9935,5,6,0,6,0,1,,,,,,,,,,,,,,,,,,,,,,,,,,,,,,,,,,,,,,,
,,,,,,,,2023-08-24_08h13.25.427,HF_wild_card,2022.2.4,Win32,12.00465781,5a5e03dd8e62590001762542,64e63663dbcaf322d2eec8da,64e702f43b67dfb0b5513012,,,,,,,decisionTrl,resources/DB.BMP,resources/DY.BMP,Door3,-0.291666667,0.023148134,1,0,0,2.5512,optionLeft,70,10005,5,7,0,7,0,1,,,,,,,,,,,,,,,,,,,,,,,,,,,,,,,,,,,,,,,
,,,,,,,,2023-08-24_08h13.25.427,HF_wild_card,2022.2.4,Win32,12.00465781,5a5e03dd8e62590001762542,64e63663dbcaf322d2eec8da,64e702f43b67dfb0b5513012,,,,,,,decisionTrl,resources/DY.BMP,resources/DB.BMP,Door3,0.315740797,0.026851824,1,0,0,7.1652,optionRight,70,10075,5,8,0,8,0,1,,,,,,,,,,,,,,,,,,,,,,,,,,,,,,,,,,,,,,,
,,,,,,,,2023-08-24_08h13.25.427,HF_wild_card,2022.2.4,Win32,12.00465781,5a5e03dd8e62590001762542,64e63663dbcaf322d2eec8da,64e702f43b67dfb0b5513012,,,,,,,ctch,resources/DBN.BMP,resources/DY.BMP,Door4,0.319444444,-0.069444444,1,0,0,4.161,optionRight,60,10135,5,9,0,9,0,1,,,,,,,,,,,,,,,,,,,,,,,,,,,,,,,,,,,,,,,
,,,,,,,,2023-08-24_08h13.25.427,HF_wild_card,2022.2.4,Win32,12.00465781,5a5e03dd8e62590001762542,64e63663dbcaf322d2eec8da,64e702f43b67dfb0b5513012,,,,,,,decisionTrl,resources/DY.BMP,resources/DR.BMP,Door4,-0.291666667,-0.035185199,1,0,0,6.6246,optionLeft,80,10215,5,10,0,10,0,1,,,,,,,,,,,,,,,,,,,,,,,,,,,,,,,,,,,,,,,
,,,,,,,,2023-08-24_08h13.25.427,HF_wild_card,2022.2.4,Win32,12.00465781,5a5e03dd8e62590001762542,64e63663dbcaf322d2eec8da,64e702f43b67dfb0b5513012,,,,,,,decisionTrl,resources/DBN.BMP,resources/DP.BMP,Door2,0.294444444,0.006481467,1,0,0,3.6324,optionRight,40,10255,5,11,0,11,0,1,,,,,,,,,,,,,,,,,,,,,,,,,,,,,,,,,,,,,,,
,,,,,,,,2023-08-24_08h13.25.427,HF_wild_card,2022.2.4,Win32,12.00465781,5a5e03dd8e62590001762542,64e63663dbcaf322d2eec8da,64e702f43b67dfb0b5513012,,,,,,,decisionTrl,resources/DB.BMP,resources/DY.BMP,Door3,-0.285185157,-0.027777778,1,0,0,5.4412,optionLeft,70,10325,5,12,0,12,0,1,,,,,,,,,,,,,,,,,,,,,,,,,,,,,,,,,,,,,,,
,,,,,,,,2023-08-24_08h13.25.427,HF_wild_card,2022.2.4,Win32,12.00465781,5a5e03dd8e62590001762542,64e63663dbcaf322d2eec8da,64e702f43b67dfb0b5513012,,,,,,,ctch,resources/DB.BMP,resources/DP.BMP,Door3,-0.294444444,-0.016666667,1,0,0,2.1923,optionLeft,70,10395,5,13,0,13,0,1,,,,,,,,,,,,,,,,,,,,,,,,,,,,,,,,,,,,,,,
,,,,,,,,2023-08-24_08h13.25.427,HF_wild_card,2022.2.4,Win32,12.00465781,5a5e03dd8e62590001762542,64e63663dbcaf322d2eec8da,64e702f43b67dfb0b5513012,,,,,,,decisionTrl,resources/DBN.BMP,resources/DR.BMP,WildCard_Ex,0.287037065,-0.009259288,1,0,0,2.1874,optionRight,55,10450,5,14,0,14,0,1,,,,,,,,,,,,,,,,,,,,,,,,,,,,,,,,,,,,,,,
,,,,,,,,2023-08-24_08h13.25.427,HF_wild_card,2022.2.4,Win32,12.00465781,5a5e03dd8e62590001762542,64e63663dbcaf322d2eec8da,64e702f43b67dfb0b5513012,,,,,,,ctch,resources/DBN.BMP,resources/DY.BMP,Door4,0.297222222,0.005555556,1,0,0,1.9167,optionRight,80,10530,5,15,0,15,0,1,,,,,,,,,,,,,,,,,,,,,,,,,,,,,,,,,,,,,,,
,,,,,,,,2023-08-24_08h13.25.427,HF_wild_card,2022.2.4,Win32,12.00465781,5a5e03dd8e62590001762542,64e63663dbcaf322d2eec8da,64e702f43b67dfb0b5513012,,,,,,,decisionTrl,resources/DY.BMP,resources/DB.BMP,Door3,0.272222222,-0.058333333,1,0,0,1.5735,optionRight,70,10600,5,16,0,16,0,1,,,,,,,,,,,,,,,,,,,,,,,,,,,,,,,,,,,,,,,
,,,,,,,,2023-08-24_08h13.25.427,HF_wild_card,2022.2.4,Win32,12.00465781,5a5e03dd8e62590001762542,64e63663dbcaf322d2eec8da,64e702f43b67dfb0b5513012,,,,,,,decisionTrl,resources/DY.BMP,resources/DB.BMP,Door3,0.262963019,-0.027777778,1,0,0,1.1681,optionRight,70,10670,5,17,0,17,0,1,,,,,,,,,,,,,,,,,,,,,,,,,,,,,,,,,,,,,,,
,,,,,,,,2023-08-24_08h13.25.427,HF_wild_card,2022.2.4,Win32,12.00465781,5a5e03dd8e62590001762542,64e63663dbcaf322d2eec8da,64e702f43b67dfb0b5513012,,,,,,,sngl,resources/Empty.png,resources/DY.BMP,Door4,0.33148151,-0.034259288,1,0,0,1.1734,optionRight,60,10730,5,18,0,18,0,1,,,,,,,,,,,,,,,,,,,,,,,,,,,,,,,,,,,,,,,
,,,,,,,,2023-08-24_08h13.25.427,HF_wild_card,2022.2.4,Win32,12.00465781,5a5e03dd8e62590001762542,64e63663dbcaf322d2eec8da,64e702f43b67dfb0b5513012,,,,,,,decisionTrl,resources/DB.BMP,resources/DR.BMP,Door3,-0.299074046,-0.059259288,1,0,0,1.5639,optionLeft,70,10800,5,19,0,19,0,1,,,,,,,,,,,,,,,,,,,,,,,,,,,,,,,,,,,,,,,
,,,,,,,,2023-08-24_08h13.25.427,HF_wild_card,2022.2.4,Win32,12.00465781,5a5e03dd8e62590001762542,64e63663dbcaf322d2eec8da,64e702f43b67dfb0b5513012,,,,,,,ctch,resources/DY.BMP,resources/DBN.BMP,Door4,-0.325,-0.02129631,1,0,0,1.2627,optionLeft,80,10880,5,20,0,20,0,1,,,,,,,,,,,,,,,,,,,,,,,,,,,,,,,,,,,,,,,
,,,,,,,,2023-08-24_08h13.25.427,HF_wild_card,2022.2.4,Win32,12.00465781,5a5e03dd8e62590001762542,64e63663dbcaf322d2eec8da,64e702f43b67dfb0b5513012,,,,,,,decisionTrl,resources/DBN.BMP,resources/DP.BMP,Door1,-0.27870369,-0.035185199,1,0,0,2.1326,optionLeft,30,10910,5,21,0,21,0,1,,,,,,,,,,,,,,,,,,,,,,,,,,,,,,,,,,,,,,,
,,,,,,,,2023-08-24_08h13.25.427,HF_wild_card,2022.2.4,Win32,12.00465781,5a5e03dd8e62590001762542,64e63663dbcaf322d2eec8da,64e702f43b67dfb0b5513012,,,,,,,decisionTrl,resources/DR.BMP,resources/DB.BMP,Door3,0.321296353,-0.008333333,1,0,0,1.5514,optionRight,70,10980,5,22,0,22,0,1,,,,,,,,,,,,,,,,,,,,,,,,,,,,,,,,,,,,,,,
,,,,,,,,2023-08-24_08h13.25.427,HF_wild_card,2022.2.4,Win32,12.00465781,5a5e03dd8e62590001762542,64e63663dbcaf322d2eec8da,64e702f43b67dfb0b5513012,,,,,,,decisionTrl,resources/DR.BMP,resources/DBN.BMP,WildCard_Ex,-0.297222222,-0.073148176,1,0,0,1.3858,optionLeft,45,11025,5,23,0,23,0,1,,,,,,,,,,,,,,,,,,,,,,,,,,,,,,,,,,,,,,,
,,,,,,,,2023-08-24_08h13.25.427,HF_wild_card,2022.2.4,Win32,12.00465781,5a5e03dd8e62590001762542,64e63663dbcaf322d2eec8da,64e702f43b67dfb0b5513012,,,,,,,sngl,resources/Empty.png,resources/DB.BMP,Door3,0.379629686,0.00370369,1,0,0,1.2419,optionRight,70,11095,5,24,0,24,0,1,,,,,,,,,,,,,,,,,,,,,,,,,,,,,,,,,,,,,,,
,,,,,,,,2023-08-24_08h13.25.427,HF_wild_card,2022.2.4,Win32,12.00465781,5a5e03dd8e62590001762542,64e63663dbcaf322d2eec8da,64e702f43b67dfb0b5513012,,,,,,,ctch,resources/DP.BMP,resources/DB.BMP,Door3,0.335185242,0,1,0,0,1.2757,optionRight,70,11165,5,25,0,25,0,1,,,,,,,,,,,,,,,,,,,,,,,,,,,,,,,,,,,,,,,
,,,,,,,,2023-08-24_08h13.25.427,HF_wild_card,2022.2.4,Win32,12.00465781,5a5e03dd8e62590001762542,64e63663dbcaf322d2eec8da,64e702f43b67dfb0b5513012,,,,,,,sngl,resources/Empty.png,resources/DBN.BMP,Door1,0.264814843,0.032407379,1,0,0,1.8205,optionRight,30,11195,5,26,0,26,0,1,,,,,,,,,,,,,,,,,,,,,,,,,,,,,,,,,,,,,,,
,,,,,,,,2023-08-24_08h13.25.427,HF_wild_card,2022.2.4,Win32,12.00465781,5a5e03dd8e62590001762542,64e63663dbcaf322d2eec8da,64e702f43b67dfb0b5513012,,,,,,,decisionTrl,resources/DP.BMP,resources/DR.BMP,WildCard_Ex,0.25,-0.004629644,1,0,0,1.8947,optionRight,45,11240,5,27,0,27,0,1,,,,,,,,,,,,,,,,,,,,,,,,,,,,,,,,,,,,,,,
,,,,,,,,2023-08-24_08h13.25.427,HF_wild_card,2022.2.4,Win32,12.00465781,5a5e03dd8e62590001762542,64e63663dbcaf322d2eec8da,64e702f43b67dfb0b5513012,,,,,,,sngl,resources/DY.BMP,resources/Empty.png,Door4,-0.339814801,-0.043518533,1,0,0,1.9068,optionLeft,80,11320,5,28,0,28,0,1,,,,,,,,,,,,,,,,,,,,,,,,,,,,,,,,,,,,,,,
,,,,,,,,2023-08-24_08h13.25.427,HF_wild_card,2022.2.4,Win32,12.00465781,5a5e03dd8e62590001762542,64e63663dbcaf322d2eec8da,64e702f43b67dfb0b5513012,,,,,,,decisionTrl,resources/DBN.BMP,resources/DP.BMP,Door1,-0.369444444,0.067592578,1,0,0,2.1121,optionLeft,30,11350,5,29,0,29,0,1,,,,,,,,,,,,,,,,,,,,,,,,,,,,,,,,,,,,,,,
,,,,,,,,2023-08-24_08h13.25.427,HF_wild_card,2022.2.4,Win32,12.00465781,5a5e03dd8e62590001762542,64e63663dbcaf322d2eec8da,64e702f43b67dfb0b5513012,,,,,,,decisionTrl,resources/DB.BMP,resources/DY.BMP,Door3,-0.269444444,0.006481467,1,0,0,1.9617,optionLeft,70,11420,5,30,0,30,0,1,,,,,,,,,,,,,,,,,,,,,,,,,,,,,,,,,,,,,,,
,,,,,,,,2023-08-24_08h13.25.427,HF_wild_card,2022.2.4,Win32,12.00465781,5a5e03dd8e62590001762542,64e63663dbcaf322d2eec8da,64e702f43b67dfb0b5513012,,,,,,,decisionTrl,resources/DR.BMP,resources/DY.BMP,Door4,0.358333333,0.081481467,1,0,0,1.6303,optionRight,60,11480,5,31,0,31,0,1,,,,,,,,,,,,,,,,,,,,,,,,,,,,,,,,,,,,,,,
,,,,,,,,2023-08-24_08h13.25.427,HF_wild_card,2022.2.4,Win32,12.00465781,5a5e03dd8e62590001762542,64e63663dbcaf322d2eec8da,64e702f43b67dfb0b5513012,,,,,,,sngl,resources/DR.BMP,resources/Empty.png,WildCard_Ex,-0.273148134,-0.029629644,1,0,0,1.2963,optionLeft,55,11535,5,32,0,32,0,1,,,,,,,,,,,,,,,,,,,,,,,,,,,,,,,,,,,,,,,
,,,,,,,,2023-08-24_08h13.25.427,HF_wild_card,2022.2.4,Win32,12.00465781,5a5e03dd8e62590001762542,64e63663dbcaf322d2eec8da,64e702f43b67dfb0b5513012,,,,,,,sngl,resources/Empty.png,resources/DR.BMP,WildCard_Ex,0.325,-0.017592621,1,0,0,1.4996,optionRight,55,11590,5,33,0,33,0,1,,,,,,,,,,,,,,,,,,,,,,,,,,,,,,,,,,,,,,,
,,,,,,,,2023-08-24_08h13.25.427,HF_wild_card,2022.2.4,Win32,12.00465781,5a5e03dd8e62590001762542,64e63663dbcaf322d2eec8da,64e702f43b67dfb0b5513012,,,,,,,decisionTrl,resources/DY.BMP,resources/DB.BMP,Door3,0.313888889,0.012037023,1,0,0,1.6821,optionRight,70,11660,5,34,0,34,0,1,,,,,,,,,,,,,,,,,,,,,,,,,,,,,,,,,,,,,,,
,,,,,,,,2023-08-24_08h13.25.427,HF_wild_card,2022.2.4,Win32,12.00465781,5a5e03dd8e62590001762542,64e63663dbcaf322d2eec8da,64e702f43b67dfb0b5513012,,,,,,,sngl,resources/DB.BMP,resources/Empty.png,Door3,-0.387037023,-0.075925954,1,0,0,1.0785,optionLeft,70,11730,5,35,0,35,0,1,,,,,,,,,,,,,,,,,,,,,,,,,,,,,,,,,,,,,,,
,,,,,,,,2023-08-24_08h13.25.427,HF_wild_card,2022.2.4,Win32,12.00465781,5a5e03dd8e62590001762542,64e63663dbcaf322d2eec8da,64e702f43b67dfb0b5513012,,,,,,,decisionTrl,resources/DP.BMP,resources/DBN.BMP,Door2,-0.359259245,-0.057407422,1,0,0,1.2103,optionLeft,20,11750,5,36,0,36,0,1,,,,,,,,,,,,,,,,,,,,,,,,,,,,,,,,,,,,,,,
,,,,,,,,2023-08-24_08h13.25.427,HF_wild_card,2022.2.4,Win32,12.00465781,5a5e03dd8e62590001762542,64e63663dbcaf322d2eec8da,64e702f43b67dfb0b5513012,,,,,,,sngl,resources/Empty.png,resources/DR.BMP,WildCard_Ex,0.388888889,-0.083333333,1,0,0,0.9914,optionRight,45,11795,5,37,0,37,0,1,,,,,,,,,,,,,,,,,,,,,,,,,,,,,,,,,,,,,,,
,,,,,,,,2023-08-24_08h13.25.427,HF_wild_card,2022.2.4,Win32,12.00465781,5a5e03dd8e62590001762542,64e63663dbcaf322d2eec8da,64e702f43b67dfb0b5513012,,,,,,,decisionTrl,resources/DP.BMP,resources/DBN.BMP,Door1,0.323148176,0.069444444,1,0,0,1.4435,optionRight,30,11825,5,38,0,38,0,1,,,,,,,,,,,,,,,,,,,,,,,,,,,,,,,,,,,,,,,
,,,,,,,,2023-08-24_08h13.25.427,HF_wild_card,2022.2.4,Win32,12.00465781,5a5e03dd8e62590001762542,64e63663dbcaf322d2eec8da,64e702f43b67dfb0b5513012,,,,,,,sngl,resources/Empty.png,resources/DP.BMP,Door2,0.38148151,-0.036111111,1,0,0,1.0521,optionRight,20,11845,5,39,0,39,0,1,,,,,,,,,,,,,,,,,,,,,,,,,,,,,,,,,,,,,,,
,,,,,,,,2023-08-24_08h13.25.427,HF_wild_card,2022.2.4,Win32,12.00465781,5a5e03dd8e62590001762542,64e63663dbcaf322d2eec8da,64e702f43b67dfb0b5513012,,,,,,,ctch,resources/DY.BMP,resources/DBN.BMP,Door4,-0.264814801,-0.079629644,1,0,0,1.9699,optionLeft,80,11925,5,40,0,40,0,1,,,,,,,,,,,,,,,,,,,,,,,,,,,,,,,,,,,,,,,
,,,,,,,,2023-08-24_08h13.25.427,HF_wild_card,2022.2.4,Win32,12.00465781,5a5e03dd8e62590001762542,64e63663dbcaf322d2eec8da,64e702f43b67dfb0b5513012,,,,,,,sngl,resources/DBN.BMP,resources/Empty.png,Door1,-0.262962935,-0.119444444,1,0,0,1.1748,optionLeft,30,11955,5,41,0,41,0,1,,,,,,,,,,,,,,,,,,,,,,,,,,,,,,,,,,,,,,,
,,,,,,,,2023-08-24_08h13.25.427,HF_wild_card,2022.2.4,Win32,12.00465781,5a5e03dd8e62590001762542,64e63663dbcaf322d2eec8da,64e702f43b67dfb0b5513012,,,,,,,decisionTrl,resources/DP.BMP,resources/DBN.BMP,Door1,0.338888889,0.009259245,1,0,0,1.5609,optionRight,30,11985,5,42,0,42,0,1,,,,,,,,,,,,,,,,,,,,,,,,,,,,,,,,,,,,,,,
,,,,,,,,2023-08-24_08h13.25.427,HF_wild_card,2022.2.4,Win32,12.00465781,5a5e03dd8e62590001762542,64e63663dbcaf322d2eec8da,64e702f43b67dfb0b5513012,,,,,,,decisionTrl,resources/DR.BMP,resources/DP.BMP,WildCard_Ex,-0.331481467,-0.094444444,1,0,0,1.4671,optionLeft,55,12040,5,43,0,43,0,1,,,,,,,,,,,,,,,,,,,,,,,,,,,,,,,,,,,,,,,
,,,,,,,,2023-08-24_08h13.25.427,HF_wild_card,2022.2.4,Win32,12.00465781,5a5e03dd8e62590001762542,64e63663dbcaf322d2eec8da,64e702f43b67dfb0b5513012,,,,,,,,,,,,,,,,,,,,,,,,,,4,0,4,0,1,,,,,,,,,,,,,,,,,,,,,,,,,,,,,,,,,,
,,,,,,,,2023-08-24_08h13.25.427,HF_wild_card,2022.2.4,Win32,12.00465781,5a5e03dd8e62590001762542,64e63663dbcaf322d2eec8da,64e702f43b67dfb0b5513012,,,,,,,sngl,resources/Empty.png,resources/DR.BMP,WildCard_Ex,0.339814843,-0.137037065,1,0,0,1.3832,optionRight,45,12085,6,0,0,0,0,1,,,,,,,,,,,,,,,,,,,,,,,,,,,,,,,,,,,,,,,
,,,,,,,,2023-08-24_08h13.25.427,HF_wild_card,2022.2.4,Win32,12.00465781,5a5e03dd8e62590001762542,64e63663dbcaf322d2eec8da,64e702f43b67dfb0b5513012,,,,,,,decisionTrl,resources/DBN.BMP,resources/DP.BMP,Door1,-0.265740712,0.041666667,1,0,0,2.0459,optionLeft,30,12115,6,1,0,1,0,1,,,,,,,,,,,,,,,,,,,,,,,,,,,,,,,,,,,,,,,
,,,,,,,,2023-08-24_08h13.25.427,HF_wild_card,2022.2.4,Win32,12.00465781,5a5e03dd8e62590001762542,64e63663dbcaf322d2eec8da,64e702f43b67dfb0b5513012,,,,,,,sngl,resources/Empty.png,resources/DR.BMP,WildCard_Ex,0.346296353,-0.004629644,1,0,0,2.1817,optionRight,55,12170,6,2,0,2,0,1,,,,,,,,,,,,,,,,,,,,,,,,,,,,,,,,,,,,,,,
,,,,,,,,2023-08-24_08h13.25.427,HF_wild_card,2022.2.4,Win32,12.00465781,5a5e03dd8e62590001762542,64e63663dbcaf322d2eec8da,64e702f43b67dfb0b5513012,,,,,,,sngl,resources/Empty.png,resources/DP.BMP,Door2,0.308333333,-0.019444444,1,0,0,1.3145,optionRight,40,12210,6,3,0,3,0,1,,,,,,,,,,,,,,,,,,,,,,,,,,,,,,,,,,,,,,,
,,,,,,,,2023-08-24_08h13.25.427,HF_wild_card,2022.2.4,Win32,12.00465781,5a5e03dd8e62590001762542,64e63663dbcaf322d2eec8da,64e702f43b67dfb0b5513012,,,,,,,sngl,resources/Empty.png,resources/DY.BMP,Door4,0.326851908,-0.002777778,1,0,0,1.1869,optionRight,80,12290,6,4,0,4,0,1,,,,,,,,,,,,,,,,,,,,,,,,,,,,,,,,,,,,,,,
,,,,,,,,2023-08-24_08h13.25.427,HF_wild_card,2022.2.4,Win32,12.00465781,5a5e03dd8e62590001762542,64e63663dbcaf322d2eec8da,64e702f43b67dfb0b5513012,,,,,,,ctch,resources/DBN.BMP,resources/DY.BMP,Door4,0.301851908,-0.033333333,1,0,0,1.5342,optionRight,60,12350,6,5,0,5,0,1,,,,,,,,,,,,,,,,,,,,,,,,,,,,,,,,,,,,,,,
,,,,,,,,2023-08-24_08h13.25.427,HF_wild_card,2022.2.4,Win32,12.00465781,5a5e03dd8e62590001762542,64e63663dbcaf322d2eec8da,64e702f43b67dfb0b5513012,,,,,,,ctch,resources/DY.BMP,resources/DBN.BMP,Door4,-0.325,-0.075925954,1,0,0,1.3999,optionLeft,60,12410,6,6,0,6,0,1,,,,,,,,,,,,,,,,,,,,,,,,,,,,,,,,,,,,,,,
,,,,,,,,2023-08-24_08h13.25.427,HF_wild_card,2022.2.4,Win32,12.00465781,5a5e03dd8e62590001762542,64e63663dbcaf322d2eec8da,64e702f43b67dfb0b5513012,,,,,,,decisionTrl,resources/DBN.BMP,resources/DR.BMP,WildCard_Ex,0.335185242,0.011111111,1,0,0,1.611,optionRight,55,12465,6,7,0,7,0,1,,,,,,,,,,,,,,,,,,,,,,,,,,,,,,,,,,,,,,,
,,,,,,,,2023-08-24_08h13.25.427,HF_wild_card,2022.2.4,Win32,12.00465781,5a5e03dd8e62590001762542,64e63663dbcaf322d2eec8da,64e702f43b67dfb0b5513012,,,,,,,decisionTrl,resources/DP.BMP,resources/DBN.BMP,Door1,0.308333333,0.070370356,1,0,0,1.5429,optionRight,30,12495,6,8,0,8,0,1,,,,,,,,,,,,,,,,,,,,,,,,,,,,,,,,,,,,,,,
,,,,,,,,2023-08-24_08h13.25.427,HF_wild_card,2022.2.4,Win32,12.00465781,5a5e03dd8e62590001762542,64e63663dbcaf322d2eec8da,64e702f43b67dfb0b5513012,,,,,,,ctch,resources/DP.BMP,resources/DB.BMP,Door3,0.311111111,-0.00648151,1,0,0,1.388,optionRight,70,12565,6,9,0,9,0,1,,,,,,,,,,,,,,,,,,,,,,,,,,,,,,,,,,,,,,,
,,,,,,,,2023-08-24_08h13.25.427,HF_wild_card,2022.2.4,Win32,12.00465781,5a5e03dd8e62590001762542,64e63663dbcaf322d2eec8da,64e702f43b67dfb0b5513012,,,,,,,sngl,resources/Empty.png,resources/DBN.BMP,Door1,0.391666667,0.062962935,1,0,0,1.2468,optionRight,30,12595,6,10,0,10,0,1,,,,,,,,,,,,,,,,,,,,,,,,,,,,,,,,,,,,,,,
,,,,,,,,2023-08-24_08h13.25.427,HF_wild_card,2022.2.4,Win32,12.00465781,5a5e03dd8e62590001762542,64e63663dbcaf322d2eec8da,64e702f43b67dfb0b5513012,,,,,,,decisionTrl,resources/DB.BMP,resources/DY.BMP,Door3,-0.391666667,-0.066666667,1,0,0,1.3607,optionLeft,70,12665,6,11,0,11,0,1,,,,,,,,,,,,,,,,,,,,,,,,,,,,,,,,,,,,,,,
,,,,,,,,2023-08-24_08h13.25.427,HF_wild_card,2022.2.4,Win32,12.00465781,5a5e03dd8e62590001762542,64e63663dbcaf322d2eec8da,64e702f43b67dfb0b5513012,,,,,,,decisionTrl,resources/DP.BMP,resources/DBN.BMP,Door1,0.365740797,0.098148134,1,0,0,2.0514,optionRight,30,12695,6,12,0,12,0,1,,,,,,,,,,,,,,,,,,,,,,,,,,,,,,,,,,,,,,,
,,,,,,,,2023-08-24_08h13.25.427,HF_wild_card,2022.2.4,Win32,12.00465781,5a5e03dd8e62590001762542,64e63663dbcaf322d2eec8da,64e702f43b67dfb0b5513012,,,,,,,sngl,resources/DBN.BMP,resources/Empty.png,Door1,-0.279629601,-0.093518533,1,0,0,1.0618,optionLeft,30,12725,6,13,0,13,0,1,,,,,,,,,,,,,,,,,,,,,,,,,,,,,,,,,,,,,,,
,,,,,,,,2023-08-24_08h13.25.427,HF_wild_card,2022.2.4,Win32,12.00465781,5a5e03dd8e62590001762542,64e63663dbcaf322d2eec8da,64e702f43b67dfb0b5513012,,,,,,,decisionTrl,resources/DY.BMP,resources/DR.BMP,Door4,-0.29351849,-0.084259288,1,0,0,1.3652,optionLeft,80,12805,6,14,0,14,0,1,,,,,,,,,,,,,,,,,,,,,,,,,,,,,,,,,,,,,,,
,,,,,,,,2023-08-24_08h13.25.427,HF_wild_card,2022.2.4,Win32,12.00465781,5a5e03dd8e62590001762542,64e63663dbcaf322d2eec8da,64e702f43b67dfb0b5513012,,,,,,,decisionTrl,resources/DBN.BMP,resources/DP.BMP,Door1,-0.287962935,0.001851824,1,0,0,1.8195,optionLeft,30,12835,6,15,0,15,0,1,,,,,,,,,,,,,,,,,,,,,,,,,,,,,,,,,,,,,,,
,,,,,,,,2023-08-24_08h13.25.427,HF_wild_card,2022.2.4,Win32,12.00465781,5a5e03dd8e62590001762542,64e63663dbcaf322d2eec8da,64e702f43b67dfb0b5513012,,,,,,,sngl,resources/DP.BMP,resources/Empty.png,Door2,-0.352777778,-0.066666667,1,0,0,1.3061,optionLeft,20,12855,6,16,0,16,0,1,,,,,,,,,,,,,,,,,,,,,,,,,,,,,,,,,,,,,,,
,,,,,,,,2023-08-24_08h13.25.427,HF_wild_card,2022.2.4,Win32,12.00465781,5a5e03dd8e62590001762542,64e63663dbcaf322d2eec8da,64e702f43b67dfb0b5513012,,,,,,,ctch,resources/DB.BMP,resources/DP.BMP,Door3,-0.350925912,-0.103703732,1,0,0,1.421,optionLeft,70,12925,6,17,0,17,0,1,,,,,,,,,,,,,,,,,,,,,,,,,,,,,,,,,,,,,,,
,,,,,,,,2023-08-24_08h13.25.427,HF_wild_card,2022.2.4,Win32,12.00465781,5a5e03dd8e62590001762542,64e63663dbcaf322d2eec8da,64e702f43b67dfb0b5513012,,,,,,,decisionTrl,resources/DY.BMP,resources/DB.BMP,Door3,0.263888889,-0.003703732,1,0,0,1.5663,optionRight,70,12995,6,18,0,18,0,1,,,,,,,,,,,,,,,,,,,,,,,,,,,,,,,,,,,,,,,
,,,,,,,,2023-08-24_08h13.25.427,HF_wild_card,2022.2.4,Win32,12.00465781,5a5e03dd8e62590001762542,64e63663dbcaf322d2eec8da,64e702f43b67dfb0b5513012,,,,,,,decisionTrl,resources/DP.BMP,resources/DBN.BMP,Door1,0.375,0.081481467,1,0,0,2.2146,optionRight,30,13025,6,19,0,19,0,1,,,,,,,,,,,,,,,,,,,,,,,,,,,,,,,,,,,,,,,
,,,,,,,,2023-08-24_08h13.25.427,HF_wild_card,2022.2.4,Win32,12.00465781,5a5e03dd8e62590001762542,64e63663dbcaf322d2eec8da,64e702f43b67dfb0b5513012,,,,,,,decisionTrl,resources/DR.BMP,resources/DY.BMP,Door4,0.405555556,0.057407379,1,0,0,1.8706,optionRight,60,13085,6,20,0,20,0,1,,,,,,,,,,,,,,,,,,,,,,,,,,,,,,,,,,,,,,,
,,,,,,,,2023-08-24_08h13.25.427,HF_wild_card,2022.2.4,Win32,12.00465781,5a5e03dd8e62590001762542,64e63663dbcaf322d2eec8da,64e702f43b67dfb0b5513012,,,,,,,sngl,resources/DB.BMP,resources/Empty.png,Door3,-0.295370356,-0.064814843,1,0,0,1.9624,optionLeft,70,13155,6,21,0,21,0,1,,,,,,,,,,,,,,,,,,,,,,,,,,,,,,,,,,,,,,,
,,,,,,,,2023-08-24_08h13.25.427,HF_wild_card,2022.2.4,Win32,12.00465781,5a5e03dd8e62590001762542,64e63663dbcaf322d2eec8da,64e702f43b67dfb0b5513012,,,,,,,decisionTrl,resources/DY.BMP,resources/DB.BMP,Door3,0.267592621,-0.000925954,1,0,0,2.0483,optionRight,70,13225,6,22,0,22,0,1,,,,,,,,,,,,,,,,,,,,,,,,,,,,,,,,,,,,,,,
,,,,,,,,2023-08-24_08h13.25.427,HF_wild_card,2022.2.4,Win32,12.00465781,5a5e03dd8e62590001762542,64e63663dbcaf322d2eec8da,64e702f43b67dfb0b5513012,,,,,,,ctch,resources/DB.BMP,resources/DP.BMP,Door3,-0.30370369,-0.094444444,1,0,0,1.8569,optionLeft,70,13295,6,23,0,23,0,1,,,,,,,,,,,,,,,,,,,,,,,,,,,,,,,,,,,,,,,
,,,,,,,,2023-08-24_08h13.25.427,HF_wild_card,2022.2.4,Win32,12.00465781,5a5e03dd8e62590001762542,64e63663dbcaf322d2eec8da,64e702f43b67dfb0b5513012,,,,,,,decisionTrl,resources/DB.BMP,resources/DY.BMP,Door3,-0.275925912,-0.069444444,1,0,0,1.8258,optionLeft,70,13365,6,24,0,24,0,1,,,,,,,,,,,,,,,,,,,,,,,,,,,,,,,,,,,,,,,
,,,,,,,,2023-08-24_08h13.25.427,HF_wild_card,2022.2.4,Win32,12.00465781,5a5e03dd8e62590001762542,64e63663dbcaf322d2eec8da,64e702f43b67dfb0b5513012,,,,,,,ctch,resources/DBN.BMP,resources/DY.BMP,Door4,0.326851908,-0.03148151,1,0,0,8.4325,optionRight,80,13445,6,25,0,25,0,1,,,,,,,,,,,,,,,,,,,,,,,,,,,,,,,,,,,,,,,
,,,,,,,,2023-08-24_08h13.25.427,HF_wild_card,2022.2.4,Win32,12.00465781,5a5e03dd8e62590001762542,64e63663dbcaf322d2eec8da,64e702f43b67dfb0b5513012,,,,,,,decisionTrl,resources/DR.BMP,resources/DB.BMP,Door3,0.282407464,-0.015740755,1,0,0,22.5213,optionRight,70,13515,6,26,0,26,0,1,,,,,,,,,,,,,,,,,,,,,,,,,,,,,,,,,,,,,,,
,,,,,,,,2023-08-24_08h13.25.427,HF_wild_card,2022.2.4,Win32,12.00465781,5a5e03dd8e62590001762542,64e63663dbcaf322d2eec8da,64e702f43b67dfb0b5513012,,,,,,,sngl,resources/DR.BMP,resources/Empty.png,WildCard_Ex,-0.305555556,-0.067592621,1,0,0,1.6922,optionLeft,55,13570,6,27,0,27,0,1,,,,,,,,,,,,,,,,,,,,,,,,,,,,,,,,,,,,,,,
,,,,,,,,2023-08-24_08h13.25.427,HF_wild_card,2022.2.4,Win32,12.00465781,5a5e03dd8e62590001762542,64e63663dbcaf322d2eec8da,64e702f43b67dfb0b5513012,,,,,,,decisionTrl,resources/DP.BMP,resources/DBN.BMP,Door1,0.283333333,0.072222222,1,0,0,1.7583,optionRight,30,13600,6,28,0,28,0,1,,,,,,,,,,,,,,,,,,,,,,,,,,,,,,,,,,,,,,,
,,,,,,,,2023-08-24_08h13.25.427,HF_wild_card,2022.2.4,Win32,12.00465781,5a5e03dd8e62590001762542,64e63663dbcaf322d2eec8da,64e702f43b67dfb0b5513012,,,,,,,decisionTrl,resources/DR.BMP,resources/DP.BMP,WildCard_Ex,-0.312962935,-0.054629644,1,0,0,1.4873,optionLeft,55,13655,6,29,0,29,0,1,,,,,,,,,,,,,,,,,,,,,,,,,,,,,,,,,,,,,,,
,,,,,,,,2023-08-24_08h13.25.427,HF_wild_card,2022.2.4,Win32,12.00465781,5a5e03dd8e62590001762542,64e63663dbcaf322d2eec8da,64e702f43b67dfb0b5513012,,,,,,,decisionTrl,resources/DBN.BMP,resources/DP.BMP,Door1,-0.262037023,0.070370356,1,0,0,2.0508,optionLeft,30,13685,6,30,0,30,0,1,,,,,,,,,,,,,,,,,,,,,,,,,,,,,,,,,,,,,,,
,,,,,,,,2023-08-24_08h13.25.427,HF_wild_card,2022.2.4,Win32,12.00465781,5a5e03dd8e62590001762542,64e63663dbcaf322d2eec8da,64e702f43b67dfb0b5513012,,,,,,,ctch,resources/DP.BMP,resources/DB.BMP,Door3,0.346296353,0.04351849,1,0,0,1.3121,optionRight,70,13755,6,31,0,31,0,1,,,,,,,,,,,,,,,,,,,,,,,,,,,,,,,,,,,,,,,
,,,,,,,,2023-08-24_08h13.25.427,HF_wild_card,2022.2.4,Win32,12.00465781,5a5e03dd8e62590001762542,64e63663dbcaf322d2eec8da,64e702f43b67dfb0b5513012,,,,,,,ctch,resources/DY.BMP,resources/DBN.BMP,Door4,-0.294444444,-0.002777778,1,0,0,2.4601,optionLeft,60,13815,6,32,0,32,0,1,,,,,,,,,,,,,,,,,,,,,,,,,,,,,,,,,,,,,,,
,,,,,,,,2023-08-24_08h13.25.427,HF_wild_card,2022.2.4,Win32,12.00465781,5a5e03dd8e62590001762542,64e63663dbcaf322d2eec8da,64e702f43b67dfb0b5513012,,,,,,,decisionTrl,resources/DB.BMP,resources/DY.BMP,Door3,-0.310185157,-0.041666667,1,0,0,2.8013,optionLeft,70,13885,6,33,0,33,0,1,,,,,,,,,,,,,,,,,,,,,,,,,,,,,,,,,,,,,,,
,,,,,,,,2023-08-24_08h13.25.427,HF_wild_card,2022.2.4,Win32,12.00465781,5a5e03dd8e62590001762542,64e63663dbcaf322d2eec8da,64e702f43b67dfb0b5513012,,,,,,,sngl,resources/DR.BMP,resources/Empty.png,WildCard_Ex,-0.387037023,-0.055555556,1,0,0,1.3138,optionLeft,45,13930,6,34,0,34,0,1,,,,,,,,,,,,,,,,,,,,,,,,,,,,,,,,,,,,,,,
,,,,,,,,2023-08-24_08h13.25.427,HF_wild_card,2022.2.4,Win32,12.00465781,5a5e03dd8e62590001762542,64e63663dbcaf322d2eec8da,64e702f43b67dfb0b5513012,,,,,,,decisionTrl,resources/DB.BMP,resources/DY.BMP,Door3,-0.356481467,-0.025925954,1,0,0,2.2587,optionLeft,70,14000,6,35,0,35,0,1,,,,,,,,,,,,,,,,,,,,,,,,,,,,,,,,,,,,,,,
,,,,,,,,2023-08-24_08h13.25.427,HF_wild_card,2022.2.4,Win32,12.00465781,5a5e03dd8e62590001762542,64e63663dbcaf322d2eec8da,64e702f43b67dfb0b5513012,,,,,,,sngl,resources/DY.BMP,resources/Empty.png,Door4,-0.299074046,-0.032407422,1,0,0,2.2732,optionLeft,60,14060,6,36,0,36,0,1,,,,,,,,,,,,,,,,,,,,,,,,,,,,,,,,,,,,,,,
,,,,,,,,2023-08-24_08h13.25.427,HF_wild_card,2022.2.4,Win32,12.00465781,5a5e03dd8e62590001762542,64e63663dbcaf322d2eec8da,64e702f43b67dfb0b5513012,,,,,,,decisionTrl,resources/DY.BMP,resources/DB.BMP,Door3,0.35,0.01851849,1,0,0,2.2552,optionRight,70,14130,6,37,0,37,0,1,,,,,,,,,,,,,,,,,,,,,,,,,,,,,,,,,,,,,,,
,,,,,,,,2023-08-24_08h13.25.427,HF_wild_card,2022.2.4,Win32,12.00465781,5a5e03dd8e62590001762542,64e63663dbcaf322d2eec8da,64e702f43b67dfb0b5513012,,,,,,,decisionTrl,resources/DB.BMP,resources/DR.BMP,Door3,-0.334259245,-0.054629644,1,0,0,1.6459,optionLeft,70,14200,6,38,0,38,0,1,,,,,,,,,,,,,,,,,,,,,,,,,,,,,,,,,,,,,,,
,,,,,,,,2023-08-24_08h13.25.427,HF_wild_card,2022.2.4,Win32,12.00465781,5a5e03dd8e62590001762542,64e63663dbcaf322d2eec8da,64e702f43b67dfb0b5513012,,,,,,,decisionTrl,resources/DY.BMP,resources/DB.BMP,Door3,0.264814843,0.006481467,1,0,0,1.9126,optionRight,70,14270,6,39,0,39,0,1,,,,,,,,,,,,,,,,,,,,,,,,,,,,,,,,,,,,,,,
,,,,,,,,2023-08-24_08h13.25.427,HF_wild_card,2022.2.4,Win32,12.00465781,5a5e03dd8e62590001762542,64e63663dbcaf322d2eec8da,64e702f43b67dfb0b5513012,,,,,,,decisionTrl,resources/DBN.BMP,resources/DP.BMP,Door1,-0.325,-0.069444444,1,0,0,1.9246,optionLeft,30,14300,6,40,0,40,0,1,,,,,,,,,,,,,,,,,,,,,,,,,,,,,,,,,,,,,,,
,,,,,,,,2023-08-24_08h13.25.427,HF_wild_card,2022.2.4,Win32,12.00465781,5a5e03dd8e62590001762542,64e63663dbcaf322d2eec8da,64e702f43b67dfb0b5513012,,,,,,,decisionTrl,resources/DP.BMP,resources/DR.BMP,WildCard_Ex,0.337963019,0.025,1,0,0,1.8774,optionRight,55,14355,6,41,0,41,0,1,,,,,,,,,,,,,,,,,,,,,,,,,,,,,,,,,,,,,,,
,,,,,,,,2023-08-24_08h13.25.427,HF_wild_card,2022.2.4,Win32,12.00465781,5a5e03dd8e62590001762542,64e63663dbcaf322d2eec8da,64e702f43b67dfb0b5513012,,,,,,,decisionTrl,resources/DR.BMP,resources/DBN.BMP,WildCard_Ex,-0.339814801,-0.089814843,1,0,0,1.5553,optionLeft,55,14410,6,42,0,42,0,1,,,,,,,,,,,,,,,,,,,,,,,,,,,,,,,,,,,,,,,
,,,,,,,,2023-08-24_08h13.25.427,HF_wild_card,2022.2.4,Win32,12.00465781,5a5e03dd8e62590001762542,64e63663dbcaf322d2eec8da,64e702f43b67dfb0b5513012,,,,,,,sngl,resources/Empty.png,resources/DB.BMP,Door3,0.304629686,-0.009259288,1,0,0,1.1726,optionRight,70,14480,6,43,0,43,0,1,,,,,,,,,,,,,,,,,,,,,,,,,,,,,,,,,,,,,,,
,,,,,,,,2023-08-24_08h13.25.427,HF_wild_card,2022.2.4,Win32,12.00465781,5a5e03dd8e62590001762542,64e63663dbcaf322d2eec8da,64e702f43b67dfb0b5513012,,,,,,,,,,,,,,,,,,,,,,,,,,5,0,5,0,1,,,,,,,,,,,,,,,,,,,,,,,,,,,,,,,,,,
,,,,,,,,2023-08-24_08h13.25.427,HF_wild_card,2022.2.4,Win32,12.00465781,5a5e03dd8e62590001762542,64e63663dbcaf322d2eec8da,64e702f43b67dfb0b5513012,,,,,,,decisionTrl,resources/DB.BMP,resources/DY.BMP,Door3,-0.349074046,-0.142592621,1,0,0,2.1412,optionLeft,70,14550,7,0,0,0,0,1,,,,,,,,,,,,,,,,,,,,,,,,,,,,,,,,,,,,,,,
,,,,,,,,2023-08-24_08h13.25.427,HF_wild_card,2022.2.4,Win32,12.00465781,5a5e03dd8e62590001762542,64e63663dbcaf322d2eec8da,64e702f43b67dfb0b5513012,,,,,,,decisionTrl,resources/DY.BMP,resources/DB.BMP,Door3,0.384259288,-0.03148151,1,0,0,1.5893,optionRight,70,14620,7,1,0,1,0,1,,,,,,,,,,,,,,,,,,,,,,,,,,,,,,,,,,,,,,,
,,,,,,,,2023-08-24_08h13.25.427,HF_wild_card,2022.2.4,Win32,12.00465781,5a5e03dd8e62590001762542,64e63663dbcaf322d2eec8da,64e702f43b67dfb0b5513012,,,,,,,decisionTrl,resources/DY.BMP,resources/DB.BMP,Door3,0.300925954,-0.026851866,1,0,0,1.1999,optionRight,70,14690,7,2,0,2,0,1,,,,,,,,,,,,,,,,,,,,,,,,,,,,,,,,,,,,,,,
,,,,,,,,2023-08-24_08h13.25.427,HF_wild_card,2022.2.4,Win32,12.00465781,5a5e03dd8e62590001762542,64e63663dbcaf322d2eec8da,64e702f43b67dfb0b5513012,,,,,,,ctch,resources/DY.BMP,resources/DBN.BMP,Door4,-0.306481467,-0.049074088,1,0,0,1.2178,optionLeft,60,14750,7,3,0,3,0,1,,,,,,,,,,,,,,,,,,,,,,,,,,,,,,,,,,,,,,,
,,,,,,,,2023-08-24_08h13.25.427,HF_wild_card,2022.2.4,Win32,12.00465781,5a5e03dd8e62590001762542,64e63663dbcaf322d2eec8da,64e702f43b67dfb0b5513012,,,,,,,decisionTrl,resources/DY.BMP,resources/DB.BMP,Door3,0.300925954,-0.015740755,1,0,0,1.3766,optionRight,70,14820,7,4,0,4,0,1,,,,,,,,,,,,,,,,,,,,,,,,,,,,,,,,,,,,,,,
,,,,,,,,2023-08-24_08h13.25.427,HF_wild_card,2022.2.4,Win32,12.00465781,5a5e03dd8e62590001762542,64e63663dbcaf322d2eec8da,64e702f43b67dfb0b5513012,,,,,,,ctch,resources/DB.BMP,resources/DP.BMP,Door3,-0.298148134,-0.066666667,1,0,0,1.4598,optionLeft,70,14890,7,5,0,5,0,1,,,,,,,,,,,,,,,,,,,,,,,,,,,,,,,,,,,,,,,
,,,,,,,,2023-08-24_08h13.25.427,HF_wild_card,2022.2.4,Win32,12.00465781,5a5e03dd8e62590001762542,64e63663dbcaf322d2eec8da,64e702f43b67dfb0b5513012,,,,,,,decisionTrl,resources/DP.BMP,resources/DBN.BMP,Door1,0.371296353,0.054629601,1,0,0,1.6436,optionRight,30,14920,7,6,0,6,0,1,,,,,,,,,,,,,,,,,,,,,,,,,,,,,,,,,,,,,,,
,,,,,,,,2023-08-24_08h13.25.427,HF_wild_card,2022.2.4,Win32,12.00465781,5a5e03dd8e62590001762542,64e63663dbcaf322d2eec8da,64e702f43b67dfb0b5513012,,,,,,,decisionTrl,resources/DB.BMP,resources/DY.BMP,Door3,-0.319444444,-0.053703732,1,0,0,1.6192,optionLeft,70,14990,7,7,0,7,0,1,,,,,,,,,,,,,,,,,,,,,,,,,,,,,,,,,,,,,,,
,,,,,,,,2023-08-24_08h13.25.427,HF_wild_card,2022.2.4,Win32,12.00465781,5a5e03dd8e62590001762542,64e63663dbcaf322d2eec8da,64e702f43b67dfb0b5513012,,,,,,,ctch,resources/DB.BMP,resources/DP.BMP,Door3,-0.312962935,-0.027777778,1,0,0,3.2092,optionLeft,70,15060,7,8,0,8,0,1,,,,,,,,,,,,,,,,,,,,,,,,,,,,,,,,,,,,,,,
,,,,,,,,2023-08-24_08h13.25.427,HF_wild_card,2022.2.4,Win32,12.00465781,5a5e03dd8e62590001762542,64e63663dbcaf322d2eec8da,64e702f43b67dfb0b5513012,,,,,,,ctch,resources/DP.BMP,resources/DB.BMP,Door3,0.270370399,-0.007407422,1,0,0,1.3459,optionRight,70,15130,7,9,0,9,0,1,,,,,,,,,,,,,,,,,,,,,,,,,,,,,,,,,,,,,,,
,,,,,,,,2023-08-24_08h13.25.427,HF_wild_card,2022.2.4,Win32,12.00465781,5a5e03dd8e62590001762542,64e63663dbcaf322d2eec8da,64e702f43b67dfb0b5513012,,,,,,,decisionTrl,resources/DB.BMP,resources/DY.BMP,Door3,-0.322222222,-0.050925954,1,0,0,5.5584,optionLeft,70,15200,7,10,0,10,0,1,,,,,,,,,,,,,,,,,,,,,,,,,,,,,,,,,,,,,,,
,,,,,,,,2023-08-24_08h13.25.427,HF_wild_card,2022.2.4,Win32,12.00465781,5a5e03dd8e62590001762542,64e63663dbcaf322d2eec8da,64e702f43b67dfb0b5513012,,,,,,,decisionTrl,resources/DBN.BMP,resources/DP.BMP,Door1,-0.266666667,0.041666667,1,0,0,3.094,optionLeft,30,15230,7,11,0,11,0,1,,,,,,,,,,,,,,,,,,,,,,,,,,,,,,,,,,,,,,,
,,,,,,,,2023-08-24_08h13.25.427,HF_wild_card,2022.2.4,Win32,12.00465781,5a5e03dd8e62590001762542,64e63663dbcaf322d2eec8da,64e702f43b67dfb0b5513012,,,,,,,decisionTrl,resources/DP.BMP,resources/DBN.BMP,Door2,-0.335185157,-0.015740755,1,0,0,1.8198,optionLeft,20,15250,7,12,0,12,0,1,,,,,,,,,,,,,,,,,,,,,,,,,,,,,,,,,,,,,,,
,,,,,,,,2023-08-24_08h13.25.427,HF_wild_card,2022.2.4,Win32,12.00465781,5a5e03dd8e62590001762542,64e63663dbcaf322d2eec8da,64e702f43b67dfb0b5513012,,,,,,,decisionTrl,resources/DB.BMP,resources/DY.BMP,Door3,-0.299074046,-0.027777778,1,0,0,2.0162,optionLeft,70,15320,7,13,0,13,0,1,,,,,,,,,,,,,,,,,,,,,,,,,,,,,,,,,,,,,,,
,,,,,,,,2023-08-24_08h13.25.427,HF_wild_card,2022.2.4,Win32,12.00465781,5a5e03dd8e62590001762542,64e63663dbcaf322d2eec8da,64e702f43b67dfb0b5513012,,,,,,,decisionTrl,resources/DB.BMP,resources/DY.BMP,Door3,-0.306481467,-0.025925954,1,0,0,8.1177,optionLeft,70,15390,7,14,0,14,0,1,,,,,,,,,,,,,,,,,,,,,,,,,,,,,,,,,,,,,,,
,,,,,,,,2023-08-24_08h13.25.427,HF_wild_card,2022.2.4,Win32,12.00465781,5a5e03dd8e62590001762542,64e63663dbcaf322d2eec8da,64e702f43b67dfb0b5513012,,,,,,,decisionTrl,resources/DP.BMP,resources/DBN.BMP,Door1,0.347222222,0.099074046,1,0,0,12.2565,optionRight,30,15420,7,15,0,15,0,1,,,,,,,,,,,,,,,,,,,,,,,,,,,,,,,,,,,,,,,
,,,,,,,,2023-08-24_08h13.25.427,HF_wild_card,2022.2.4,Win32,12.00465781,5a5e03dd8e62590001762542,64e63663dbcaf322d2eec8da,64e702f43b67dfb0b5513012,,,,,,,decisionTrl,resources/DBN.BMP,resources/DP.BMP,Door1,-0.312037023,0.040740712,1,0,0,1.9023,optionLeft,30,15450,7,16,0,16,0,1,,,,,,,,,,,,,,,,,,,,,,,,,,,,,,,,,,,,,,,
,,,,,,,,2023-08-24_08h13.25.427,HF_wild_card,2022.2.4,Win32,12.00465781,5a5e03dd8e62590001762542,64e63663dbcaf322d2eec8da,64e702f43b67dfb0b5513012,,,,,,,decisionTrl,resources/DY.BMP,resources/DB.BMP,Door3,0.308333333,0.005555556,1,0,0,3.1014,optionRight,70,15520,7,17,0,17,0,1,,,,,,,,,,,,,,,,,,,,,,,,,,,,,,,,,,,,,,,
,,,,,,,,2023-08-24_08h13.25.427,HF_wild_card,2022.2.4,Win32,12.00465781,5a5e03dd8e62590001762542,64e63663dbcaf322d2eec8da,64e702f43b67dfb0b5513012,,,,,,,decisionTrl,resources/DY.BMP,resources/DB.BMP,Door3,0.309259288,0.015740712,1,0,0,2.5104,optionRight,70,15590,7,18,0,18,0,1,,,,,,,,,,,,,,,,,,,,,,,,,,,,,,,,,,,,,,,
,,,,,,,,2023-08-24_08h13.25.427,HF_wild_card,2022.2.4,Win32,12.00465781,5a5e03dd8e62590001762542,64e63663dbcaf322d2eec8da,64e702f43b67dfb0b5513012,,,,,,,ctch,resources/DP.BMP,resources/DB.BMP,Door3,0.311111111,0.032407379,1,0,0,1.1841,optionRight,70,15660,7,19,0,19,0,1,,,,,,,,,,,,,,,,,,,,,,,,,,,,,,,,,,,,,,,
,,,,,,,,2023-08-24_08h13.25.427,HF_wild_card,2022.2.4,Win32,12.00465781,5a5e03dd8e62590001762542,64e63663dbcaf322d2eec8da,64e702f43b67dfb0b5513012,,,,,,,ctch,resources/DY.BMP,resources/DBN.BMP,Door4,-0.270370356,0.014814801,1,0,0,6.2211,optionLeft,80,15740,7,20,0,20,0,1,,,,,,,,,,,,,,,,,,,,,,,,,,,,,,,,,,,,,,,
,,,,,,,,2023-08-24_08h13.25.427,HF_wild_card,2022.2.4,Win32,12.00465781,5a5e03dd8e62590001762542,64e63663dbcaf322d2eec8da,64e702f43b67dfb0b5513012,,,,,,,decisionTrl,resources/DBN.BMP,resources/DP.BMP,Door1,-0.322222222,0.098148134,1,0,0,3.7796,optionLeft,30,15770,7,21,0,21,0,1,,,,,,,,,,,,,,,,,,,,,,,,,,,,,,,,,,,,,,,
,,,,,,,,2023-08-24_08h13.25.427,HF_wild_card,2022.2.4,Win32,12.00465781,5a5e03dd8e62590001762542,64e63663dbcaf322d2eec8da,64e702f43b67dfb0b5513012,,,,,,,ctch,resources/DBN.BMP,resources/DY.BMP,Door4,0.353703732,0.061111111,1,0,0,2.4458,optionRight,60,15830,7,22,0,22,0,1,,,,,,,,,,,,,,,,,,,,,,,,,,,,,,,,,,,,,,,
,,,,,,,,2023-08-24_08h13.25.427,HF_wild_card,2022.2.4,Win32,12.00465781,5a5e03dd8e62590001762542,64e63663dbcaf322d2eec8da,64e702f43b67dfb0b5513012,,,,,,,ctch,resources/DY.BMP,resources/DBN.BMP,Door4,-0.29351849,-0.034259288,1,0,0,1.4611,optionLeft,60,15890,7,23,0,23,0,1,,,,,,,,,,,,,,,,,,,,,,,,,,,,,,,,,,,,,,,
,,,,,,,,2023-08-24_08h13.25.427,HF_wild_card,2022.2.4,Win32,12.00465781,5a5e03dd8e62590001762542,64e63663dbcaf322d2eec8da,64e702f43b67dfb0b5513012,,,,,,,decisionTrl,resources/DBN.BMP,resources/DP.BMP,Door1,-0.275,0.054629601,1,0,0,1.5632,optionLeft,30,15920,7,24,0,24,0,1,,,,,,,,,,,,,,,,,,,,,,,,,,,,,,,,,,,,,,,
,,,,,,,,2023-08-24_08h13.25.427,HF_wild_card,2022.2.4,Win32,12.00465781,5a5e03dd8e62590001762542,64e63663dbcaf322d2eec8da,64e702f43b67dfb0b5513012,,,,,,,ctch,resources/DP.BMP,resources/DB.BMP,Door3,0.320370399,0.01851849,1,0,0,1.407,optionRight,70,15990,7,25,0,25,0,1,,,,,,,,,,,,,,,,,,,,,,,,,,,,,,,,,,,,,,,
,,,,,,,,2023-08-24_08h13.25.427,HF_wild_card,2022.2.4,Win32,12.00465781,5a5e03dd8e62590001762542,64e63663dbcaf322d2eec8da,64e702f43b67dfb0b5513012,,,,,,,decisionTrl,resources/DP.BMP,resources/DBN.BMP,Door1,0.30648151,0.096296268,1,0,0,2.1106,optionRight,30,16020,7,26,0,26,0,1,,,,,,,,,,,,,,,,,,,,,,,,,,,,,,,,,,,,,,,
,,,,,,,,2023-08-24_08h13.25.427,HF_wild_card,2022.2.4,Win32,12.00465781,5a5e03dd8e62590001762542,64e63663dbcaf322d2eec8da,64e702f43b67dfb0b5513012,,,,,,,decisionTrl,resources/DBN.BMP,resources/DP.BMP,Door1,-0.325,0.1,1,0,0,2.2789,optionLeft,30,16050,7,27,0,27,0,1,,,,,,,,,,,,,,,,,,,,,,,,,,,,,,,,,,,,,,,
,,,,,,,,2023-08-24_08h13.25.427,HF_wild_card,2022.2.4,Win32,12.00465781,5a5e03dd8e62590001762542,64e63663dbcaf322d2eec8da,64e702f43b67dfb0b5513012,,,,,,,ctch,resources/DBN.BMP,resources/DY.BMP,Door4,0.338888889,0.025925912,1,0,0,1.3944,optionRight,60,16110,7,28,0,28,0,1,,,,,,,,,,,,,,,,,,,,,,,,,,,,,,,,,,,,,,,
,,,,,,,,2023-08-24_08h13.25.427,HF_wild_card,2022.2.4,Win32,12.00465781,5a5e03dd8e62590001762542,64e63663dbcaf322d2eec8da,64e702f43b67dfb0b5513012,,,,,,,decisionTrl,resources/DP.BMP,resources/DBN.BMP,Door1,0.3,0.07870369,1,0,0,1.5196,optionRight,30,16140,7,29,0,29,0,1,,,,,,,,,,,,,,,,,,,,,,,,,,,,,,,,,,,,,,,
,,,,,,,,2023-08-24_08h13.25.427,HF_wild_card,2022.2.4,Win32,12.00465781,5a5e03dd8e62590001762542,64e63663dbcaf322d2eec8da,64e702f43b67dfb0b5513012,,,,,,,ctch,resources/DBN.BMP,resources/DY.BMP,Door4,0.361111111,0.072222222,1,0,0,2.6352,optionRight,80,16220,7,30,0,30,0,1,,,,,,,,,,,,,,,,,,,,,,,,,,,,,,,,,,,,,,,
,,,,,,,,2023-08-24_08h13.25.427,HF_wild_card,2022.2.4,Win32,12.00465781,5a5e03dd8e62590001762542,64e63663dbcaf322d2eec8da,64e702f43b67dfb0b5513012,,,,,,,decisionTrl,resources/DY.BMP,resources/DB.BMP,Door3,0.339814843,0.012037023,1,0,0,2.4402,optionRight,70,16290,7,31,0,31,0,1,,,,,,,,,,,,,,,,,,,,,,,,,,,,,,,,,,,,,,,
,,,,,,,,2023-08-24_08h13.25.427,HF_wild_card,2022.2.4,Win32,12.00465781,5a5e03dd8e62590001762542,64e63663dbcaf322d2eec8da,64e702f43b67dfb0b5513012,,,,,,,decisionTrl,resources/DB.BMP,resources/DY.BMP,Door3,-0.300925912,-0.028703732,1,0,0,4.9319,optionLeft,70,16360,7,32,0,32,0,1,,,,,,,,,,,,,,,,,,,,,,,,,,,,,,,,,,,,,,,
,,,,,,,,2023-08-24_08h13.25.427,HF_wild_card,2022.2.4,Win32,12.00465781,5a5e03dd8e62590001762542,64e63663dbcaf322d2eec8da,64e702f43b67dfb0b5513012,,,,,,,decisionTrl,resources/DP.BMP,resources/DBN.BMP,Door2,-0.313888889,-0.022222222,1,0,0,2.2343,optionLeft,20,16380,7,33,0,33,0,1,,,,,,,,,,,,,,,,,,,,,,,,,,,,,,,,,,,,,,,
,,,,,,,,2023-08-24_08h13.25.427,HF_wild_card,2022.2.4,Win32,12.00465781,5a5e03dd8e62590001762542,64e63663dbcaf322d2eec8da,64e702f43b67dfb0b5513012,,,,,,,ctch,resources/DB.BMP,resources/DP.BMP,Door3,-0.292592578,-0.014814843,1,0,0,1.3991,optionLeft,70,16450,7,34,0,34,0,1,,,,,,,,,,,,,,,,,,,,,,,,,,,,,,,,,,,,,,,
,,,,,,,,2023-08-24_08h13.25.427,HF_wild_card,2022.2.4,Win32,12.00465781,5a5e03dd8e62590001762542,64e63663dbcaf322d2eec8da,64e702f43b67dfb0b5513012,,,,,,,decisionTrl,resources/DBN.BMP,resources/DP.BMP,Door1,-0.325,0.032407379,1,0,0,2.1131,optionLeft,30,16480,7,35,0,35,0,1,,,,,,,,,,,,,,,,,,,,,,,,,,,,,,,,,,,,,,,
,,,,,,,,2023-08-24_08h13.25.427,HF_wild_card,2022.2.4,Win32,12.00465781,5a5e03dd8e62590001762542,64e63663dbcaf322d2eec8da,64e702f43b67dfb0b5513012,,,,,,,,,,,,,,,,,,,,,,,,,,6,0,6,0,1,,,,,,,,,,,,,,,,,,,,,,,,,,,,,,,,,,
,,,,,,,,2023-08-24_08h13.25.427,HF_wild_card,2022.2.4,Win32,12.00465781,5a5e03dd8e62590001762542,64e63663dbcaf322d2eec8da,64e702f43b67dfb0b5513012,,,,,,,,,,,,,,,,,,,,,,,,,,,,,,,4,,,,,,,,,,,,,,,,,,,,,,,,,,,,,,,,,
,,,,,,,,2023-08-24_08h13.25.427,HF_wild_card,2022.2.4,Win32,12.00465781,5a5e03dd8e62590001762542,64e63663dbcaf322d2eec8da,64e702f43b67dfb0b5513012,,,,,,,,,,,,,,,,,,,,,,,,,,,,,,,,,,,,,,,,,,,,,,,,,,,,,,,,,,,,,,,,
,,,,,,,,2023-08-24_08h13.25.427,HF_wild_card,2022.2.4,Win32,12.00465781,5a5e03dd8e62590001762542,64e63663dbcaf322d2eec8da,64e702f43b67dfb0b5513012,,,,,,,,,,,,,,,,,,,,,,,,,,,,,,,,20,Door2,resources/DP.BMP,0,0,0,0,1,,,,,,,,,,,,,,,,,,,,,,,,,
,,,,,,,,2023-08-24_08h13.25.427,HF_wild_card,2022.2.4,Win32,12.00465781,5a5e03dd8e62590001762542,64e63663dbcaf322d2eec8da,64e702f43b67dfb0b5513012,,,,,,,,,,,,,,,,,,,,,,,,,,,,,,,,30,Door1,resources/DBN.BMP,1,0,1,0,1,,,,,,,,,,,,,,,,,,,,,,,,,
,,,,,,,,2023-08-24_08h13.25.427,HF_wild_card,2022.2.4,Win32,12.00465781,5a5e03dd8e62590001762542,64e63663dbcaf322d2eec8da,64e702f43b67dfb0b5513012,,,,,,,,,,,,,,,,,,,,,,,,,,,,,,,,45,WC_extreme,resources/DR.BMP,2,0,2,0,1,,,,,,,,,,,,,,,,,,,,,,,,,
,,,,,,,,2023-08-24_08h13.25.427,HF_wild_card,2022.2.4,Win32,12.00465781,5a5e03dd8e62590001762542,64e63663dbcaf322d2eec8da,64e702f43b67dfb0b5513012,,,,,,,,,,,,,,,,,,,,,,,,,,,,,,,,45,WC_nonExtreme,resources/DG.BMP,3,0,3,0,1,,,,,,,,,,,,,,,,,,,,,,,,,
,,,,,,,,2023-08-24_08h13.25.427,HF_wild_card,2022.2.4,Win32,12.00465781,5a5e03dd8e62590001762542,64e63663dbcaf322d2eec8da,64e702f43b67dfb0b5513012,,,,,,,,,,,,,,,,,,,,,,,,,,,,,,,,70,Door3,resources/DB.BMP,4,0,4,0,1,,,,,,,,,,,,,,,,,,,,,,,,,
,,,,,,,,2023-08-24_08h13.25.427,HF_wild_card,2022.2.4,Win32,12.00465781,5a5e03dd8e62590001762542,64e63663dbcaf322d2eec8da,64e702f43b67dfb0b5513012,,,,,,,,,,,,,,,,,,,,,,,,,,,,,,,,60,Door4,resources/DY.BMP,5,0,5,0,1,,,,,,,,,,,,,,,,,,,,,,,,,
,,,,,,,,2023-08-24_08h13.25.427,HF_wild_card,2022.2.4,Win32,12.00465781,5a5e03dd8e62590001762542,64e63663dbcaf322d2eec8da,64e702f43b67dfb0b5513012,,,,,,,,,,,,,,,,,,,,,,,,,,,,,,,,,,,,,,,,,,,,,,,,,,,,,,,,,,,,,,,,
