Condition,Low fixed image (Door1),Low risky image (Door2),High fixed image (Door3),High risky image (Door4),Extreme Wild Card,NonExtreme Wild Card,,date,expName,psychopyVersion,OS,frameRate,PROLIFIC_PID,STUDY_ID,SESSION_ID,mouse_2.x,mouse_2.y,mouse_2.leftButton,mouse_2.midButton,mouse_2.rightButton,mouse_2.clicked_name,Trial Type,Left Option Image,Right Option Image,Chosen Door,mouse.x,mouse.y,mouse.leftButton,mouse.midButton,mouse.rightButton,mouse.time,mouse.clicked_name,Feedback,Cumulative Reward,Block,trial.thisRepN,trial.thisTrialN,trial.thisN,trial.thisIndex,trial.ran,blocks.thisRepN,blocks.thisTrialN,blocks.thisN,blocks.thisIndex,blocks.ran,Money conversion,First Outcome Reported,Shown Door (First Outcome),Displayed Image (First Outcome),outcomes.thisRepN,outcomes.thisTrialN,outcomes.thisN,outcomes.thisIndex,outcomes.ran,judgments.thisRepN,judgments.thisTrialN,judgments.thisN,judgments.thisIndex,judgments.ran,freqMouse.x,freqMouse.y,freqMouse.leftButton,freqMouse.midButton,freqMouse.rightButton,freqMouse.clicked_name,FQJ for first outcome,FQJ for second outcome,Shown Door,Displayed Image,trials.thisRepN,trials.thisTrialN,trials.thisN,trials.thisIndex,trials.ran,judgBlock.thisRepN,judgBlock.thisTrialN,judgBlock.thisN,judgBlock.thisIndex,judgBlock.ran
1,resources/DY.BMP,resources/DBN.BMP,resources/DP.BMP,resources/DB.BMP,resources/DG.BMP,resources/DR.BMP,,2023-08-16_08h35.45.912,HF_wild_card,2022.2.4,MacIntel,100,5c4f839a37efdd000184e1df,64d2fd46c836a06233681665,64dc7c320557b9d21b127088,,,,,,,,,,,,,,,,,,,,,,,,,,,,,,,,,,,,,,,,,,,,,,,,,,,,,,,,,,,,,,,,
,,,,,,,,2023-08-16_08h35.45.912,HF_wild_card,2022.2.4,MacIntel,100,5c4f839a37efdd000184e1df,64d2fd46c836a06233681665,64dc7c320557b9d21b127088,0.005208333,-0.427951389,1,0,0,agree,,,,,,,,,,,,,,,,,,,,,,,,,,,,,,,,,,,,,,,,,,,,,,,,,,,,,,,,,,
,,,,,,,,2023-08-16_08h35.45.912,HF_wild_card,2022.2.4,MacIntel,100,5c4f839a37efdd000184e1df,64d2fd46c836a06233681665,64dc7c320557b9d21b127088,,,,,,,,,,,,,,,,,,,,,,,,,,,,,,,,,,,,,,,,,,,,,,,,,,,,,,,,,,,,,,,,
,,,,,,,,2023-08-16_08h35.45.912,HF_wild_card,2022.2.4,MacIntel,100,5c4f839a37efdd000184e1df,64d2fd46c836a06233681665,64dc7c320557b9d21b127088,,,,,,,ctch,resources/DP.BMP,resources/DBN.BMP,Door2,0.313368056,-0.057291667,1,0,0,3.229,optionRight,20,20,1,0,0,0,0,1,,,,,,,,,,,,,,,,,,,,,,,,,,,,,,,,,,,,,,,
,,,,,,,,2023-08-16_08h35.45.912,HF_wild_card,2022.2.4,MacIntel,100,5c4f839a37efdd000184e1df,64d2fd46c836a06233681665,64dc7c320557b9d21b127088,,,,,,,decisionTrl,resources/DB.BMP,resources/DP.BMP,Door4,-0.28125,-0.059895833,1,0,0,2.07,optionLeft,80,100,1,1,0,1,0,1,,,,,,,,,,,,,,,,,,,,,,,,,,,,,,,,,,,,,,,
,,,,,,,,2023-08-16_08h35.45.912,HF_wild_card,2022.2.4,MacIntel,100,5c4f839a37efdd000184e1df,64d2fd46c836a06233681665,64dc7c320557b9d21b127088,,,,,,,sngl,resources/Empty.png,resources/DB.BMP,Door4,0.263020833,-0.077256944,1,0,0,1.414,optionRight,60,160,1,2,0,2,0,1,,,,,,,,,,,,,,,,,,,,,,,,,,,,,,,,,,,,,,,
,,,,,,,,2023-08-16_08h35.45.912,HF_wild_card,2022.2.4,MacIntel,100,5c4f839a37efdd000184e1df,64d2fd46c836a06233681665,64dc7c320557b9d21b127088,,,,,,,ctch,resources/DBN.BMP,resources/DP.BMP,Door2,-0.385416667,-0.022569444,1,0,0,2.445,optionLeft,20,180,1,3,0,3,0,1,,,,,,,,,,,,,,,,,,,,,,,,,,,,,,,,,,,,,,,
,,,,,,,,2023-08-16_08h35.45.912,HF_wild_card,2022.2.4,MacIntel,100,5c4f839a37efdd000184e1df,64d2fd46c836a06233681665,64dc7c320557b9d21b127088,,,,,,,sngl,resources/Empty.png,resources/DR.BMP,WildCard_NonEx,0.409722222,-0.087673611,1,0,0,1.278,optionRight,45,225,1,4,0,4,0,1,,,,,,,,,,,,,,,,,,,,,,,,,,,,,,,,,,,,,,,
,,,,,,,,2023-08-16_08h35.45.912,HF_wild_card,2022.2.4,MacIntel,100,5c4f839a37efdd000184e1df,64d2fd46c836a06233681665,64dc7c320557b9d21b127088,,,,,,,sngl,resources/Empty.png,resources/DBN.BMP,Door2,0.325520833,-0.096354167,1,0,0,1.099,optionRight,20,245,1,5,0,5,0,1,,,,,,,,,,,,,,,,,,,,,,,,,,,,,,,,,,,,,,,
,,,,,,,,2023-08-16_08h35.45.912,HF_wild_card,2022.2.4,MacIntel,100,5c4f839a37efdd000184e1df,64d2fd46c836a06233681665,64dc7c320557b9d21b127088,,,,,,,ctch,resources/DY.BMP,resources/DB.BMP,Door1,-0.308159722,-0.0859375,1,0,0,1.398,optionLeft,30,275,1,6,0,6,0,1,,,,,,,,,,,,,,,,,,,,,,,,,,,,,,,,,,,,,,,
,,,,,,,,2023-08-16_08h35.45.912,HF_wild_card,2022.2.4,MacIntel,100,5c4f839a37efdd000184e1df,64d2fd46c836a06233681665,64dc7c320557b9d21b127088,,,,,,,decisionTrl,resources/DBN.BMP,resources/DY.BMP,Door1,0.489583333,-0.073784722,1,0,0,1.948,optionRight,30,305,1,7,0,7,0,1,,,,,,,,,,,,,,,,,,,,,,,,,,,,,,,,,,,,,,,
,,,,,,,,2023-08-16_08h35.45.912,HF_wild_card,2022.2.4,MacIntel,100,5c4f839a37efdd000184e1df,64d2fd46c836a06233681665,64dc7c320557b9d21b127088,,,,,,,decisionTrl,resources/DB.BMP,resources/DP.BMP,Door3,0.325520833,-0.044270833,1,0,0,1.727,optionRight,70,375,1,8,0,8,0,1,,,,,,,,,,,,,,,,,,,,,,,,,,,,,,,,,,,,,,,
,,,,,,,,2023-08-16_08h35.45.912,HF_wild_card,2022.2.4,MacIntel,100,5c4f839a37efdd000184e1df,64d2fd46c836a06233681665,64dc7c320557b9d21b127088,,,,,,,sngl,resources/Empty.png,resources/DR.BMP,WildCard_NonEx,0.368923611,-0.040798611,1,0,0,0.972,optionRight,55,430,1,9,0,9,0,1,,,,,,,,,,,,,,,,,,,,,,,,,,,,,,,,,,,,,,,
,,,,,,,,2023-08-16_08h35.45.912,HF_wild_card,2022.2.4,MacIntel,100,5c4f839a37efdd000184e1df,64d2fd46c836a06233681665,64dc7c320557b9d21b127088,,,,,,,decisionTrl,resources/DB.BMP,resources/DP.BMP,Door4,-0.309027778,-0.090277778,1,0,0,1.874,optionLeft,80,510,1,10,0,10,0,1,,,,,,,,,,,,,,,,,,,,,,,,,,,,,,,,,,,,,,,
,,,,,,,,2023-08-16_08h35.45.912,HF_wild_card,2022.2.4,MacIntel,100,5c4f839a37efdd000184e1df,64d2fd46c836a06233681665,64dc7c320557b9d21b127088,,,,,,,ctch,resources/DY.BMP,resources/DB.BMP,Door1,-0.317708333,-0.078993056,1,0,0,1.512,optionLeft,30,540,1,11,0,11,0,1,,,,,,,,,,,,,,,,,,,,,,,,,,,,,,,,,,,,,,,
,,,,,,,,2023-08-16_08h35.45.912,HF_wild_card,2022.2.4,MacIntel,100,5c4f839a37efdd000184e1df,64d2fd46c836a06233681665,64dc7c320557b9d21b127088,,,,,,,decisionTrl,resources/DBN.BMP,resources/DY.BMP,Door2,-0.3203125,-0.046006944,1,0,0,1.896,optionLeft,20,560,1,12,0,12,0,1,,,,,,,,,,,,,,,,,,,,,,,,,,,,,,,,,,,,,,,
,,,,,,,,2023-08-16_08h35.45.912,HF_wild_card,2022.2.4,MacIntel,100,5c4f839a37efdd000184e1df,64d2fd46c836a06233681665,64dc7c320557b9d21b127088,,,,,,,decisionTrl,resources/DR.BMP,resources/DY.BMP,WildCard_NonEx,-0.345486111,-0.0390625,1,0,0,1.074,optionLeft,55,615,1,13,0,13,0,1,,,,,,,,,,,,,,,,,,,,,,,,,,,,,,,,,,,,,,,
,,,,,,,,2023-08-16_08h35.45.912,HF_wild_card,2022.2.4,MacIntel,100,5c4f839a37efdd000184e1df,64d2fd46c836a06233681665,64dc7c320557b9d21b127088,,,,,,,ctch,resources/DB.BMP,resources/DY.BMP,Door1,0.433159722,-0.046006944,1,0,0,1.132,optionRight,30,645,1,14,0,14,0,1,,,,,,,,,,,,,,,,,,,,,,,,,,,,,,,,,,,,,,,
,,,,,,,,2023-08-16_08h35.45.912,HF_wild_card,2022.2.4,MacIntel,100,5c4f839a37efdd000184e1df,64d2fd46c836a06233681665,64dc7c320557b9d21b127088,,,,,,,decisionTrl,resources/DBN.BMP,resources/DY.BMP,Door2,-0.241319444,-0.0390625,1,0,0,1.302,optionLeft,40,685,1,15,0,15,0,1,,,,,,,,,,,,,,,,,,,,,,,,,,,,,,,,,,,,,,,
,,,,,,,,2023-08-16_08h35.45.912,HF_wild_card,2022.2.4,MacIntel,100,5c4f839a37efdd000184e1df,64d2fd46c836a06233681665,64dc7c320557b9d21b127088,,,,,,,sngl,resources/DBN.BMP,resources/Empty.png,Door2,-0.280381944,-0.009548611,1,0,0,1.317,optionLeft,40,725,1,16,0,16,0,1,,,,,,,,,,,,,,,,,,,,,,,,,,,,,,,,,,,,,,,
,,,,,,,,2023-08-16_08h35.45.912,HF_wild_card,2022.2.4,MacIntel,100,5c4f839a37efdd000184e1df,64d2fd46c836a06233681665,64dc7c320557b9d21b127088,,,,,,,decisionTrl,resources/DP.BMP,resources/DB.BMP,Door4,0.407118056,-0.058159722,1,0,0,1.619,optionRight,80,805,1,17,0,17,0,1,,,,,,,,,,,,,,,,,,,,,,,,,,,,,,,,,,,,,,,
,,,,,,,,2023-08-16_08h35.45.912,HF_wild_card,2022.2.4,MacIntel,100,5c4f839a37efdd000184e1df,64d2fd46c836a06233681665,64dc7c320557b9d21b127088,,,,,,,decisionTrl,resources/DY.BMP,resources/DBN.BMP,Door1,-0.265625,-0.032986111,1,0,0,1.284,optionLeft,30,835,1,18,0,18,0,1,,,,,,,,,,,,,,,,,,,,,,,,,,,,,,,,,,,,,,,
,,,,,,,,2023-08-16_08h35.45.912,HF_wild_card,2022.2.4,MacIntel,100,5c4f839a37efdd000184e1df,64d2fd46c836a06233681665,64dc7c320557b9d21b127088,,,,,,,decisionTrl,resources/DY.BMP,resources/DBN.BMP,Door1,-0.282118056,-0.053819444,1,0,0,2.45,optionLeft,30,865,1,19,0,19,0,1,,,,,,,,,,,,,,,,,,,,,,,,,,,,,,,,,,,,,,,
,,,,,,,,2023-08-16_08h35.45.912,HF_wild_card,2022.2.4,MacIntel,100,5c4f839a37efdd000184e1df,64d2fd46c836a06233681665,64dc7c320557b9d21b127088,,,,,,,sngl,resources/DB.BMP,resources/Empty.png,Door4,-0.296875,-0.016493056,1,0,0,2.381,optionLeft,80,945,1,20,0,20,0,1,,,,,,,,,,,,,,,,,,,,,,,,,,,,,,,,,,,,,,,
,,,,,,,,2023-08-16_08h35.45.912,HF_wild_card,2022.2.4,MacIntel,100,5c4f839a37efdd000184e1df,64d2fd46c836a06233681665,64dc7c320557b9d21b127088,,,,,,,ctch,resources/DB.BMP,resources/DY.BMP,Door1,0.378472222,-0.065972222,1,0,0,1.218,optionRight,30,975,1,21,0,21,0,1,,,,,,,,,,,,,,,,,,,,,,,,,,,,,,,,,,,,,,,
,,,,,,,,2023-08-16_08h35.45.912,HF_wild_card,2022.2.4,MacIntel,100,5c4f839a37efdd000184e1df,64d2fd46c836a06233681665,64dc7c320557b9d21b127088,,,,,,,decisionTrl,resources/DY.BMP,resources/DBN.BMP,Door1,-0.349826389,-0.019097222,1,0,0,1.539,optionLeft,30,1005,1,22,0,22,0,1,,,,,,,,,,,,,,,,,,,,,,,,,,,,,,,,,,,,,,,
,,,,,,,,2023-08-16_08h35.45.912,HF_wild_card,2022.2.4,MacIntel,100,5c4f839a37efdd000184e1df,64d2fd46c836a06233681665,64dc7c320557b9d21b127088,,,,,,,sngl,resources/DR.BMP,resources/Empty.png,WildCard_NonEx,-0.440104167,-0.019965278,1,0,0,3.267,optionLeft,45,1050,1,23,0,23,0,1,,,,,,,,,,,,,,,,,,,,,,,,,,,,,,,,,,,,,,,
,,,,,,,,2023-08-16_08h35.45.912,HF_wild_card,2022.2.4,MacIntel,100,5c4f839a37efdd000184e1df,64d2fd46c836a06233681665,64dc7c320557b9d21b127088,,,,,,,decisionTrl,resources/DP.BMP,resources/DB.BMP,Door3,-0.260416667,-0.030381944,1,0,0,1.663,optionLeft,70,1120,1,24,0,24,0,1,,,,,,,,,,,,,,,,,,,,,,,,,,,,,,,,,,,,,,,
,,,,,,,,2023-08-16_08h35.45.912,HF_wild_card,2022.2.4,MacIntel,100,5c4f839a37efdd000184e1df,64d2fd46c836a06233681665,64dc7c320557b9d21b127088,,,,,,,decisionTrl,resources/DP.BMP,resources/DR.BMP,WildCard_NonEx,0.348090278,-0.074652778,1,0,0,1.179,optionRight,45,1165,1,25,0,25,0,1,,,,,,,,,,,,,,,,,,,,,,,,,,,,,,,,,,,,,,,
,,,,,,,,2023-08-16_08h35.45.912,HF_wild_card,2022.2.4,MacIntel,100,5c4f839a37efdd000184e1df,64d2fd46c836a06233681665,64dc7c320557b9d21b127088,,,,,,,decisionTrl,resources/DBN.BMP,resources/DR.BMP,WildCard_NonEx,0.2734375,-0.067708333,1,0,0,1.319,optionRight,45,1210,1,26,0,26,0,1,,,,,,,,,,,,,,,,,,,,,,,,,,,,,,,,,,,,,,,
,,,,,,,,2023-08-16_08h35.45.912,HF_wild_card,2022.2.4,MacIntel,100,5c4f839a37efdd000184e1df,64d2fd46c836a06233681665,64dc7c320557b9d21b127088,,,,,,,decisionTrl,resources/DR.BMP,resources/DB.BMP,WildCard_NonEx,-0.3515625,-0.038194444,1,0,0,1.609,optionLeft,55,1265,1,27,0,27,0,1,,,,,,,,,,,,,,,,,,,,,,,,,,,,,,,,,,,,,,,
,,,,,,,,2023-08-16_08h35.45.912,HF_wild_card,2022.2.4,MacIntel,100,5c4f839a37efdd000184e1df,64d2fd46c836a06233681665,64dc7c320557b9d21b127088,,,,,,,decisionTrl,resources/DB.BMP,resources/DP.BMP,Door4,-0.236979167,-0.0625,1,0,0,1.79,optionLeft,80,1345,1,28,0,28,0,1,,,,,,,,,,,,,,,,,,,,,,,,,,,,,,,,,,,,,,,
,,,,,,,,2023-08-16_08h35.45.912,HF_wild_card,2022.2.4,MacIntel,100,5c4f839a37efdd000184e1df,64d2fd46c836a06233681665,64dc7c320557b9d21b127088,,,,,,,ctch,resources/DBN.BMP,resources/DP.BMP,Door3,0.311631944,-0.065104167,1,0,0,1.217,optionRight,70,1415,1,29,0,29,0,1,,,,,,,,,,,,,,,,,,,,,,,,,,,,,,,,,,,,,,,
,,,,,,,,2023-08-16_08h35.45.912,HF_wild_card,2022.2.4,MacIntel,100,5c4f839a37efdd000184e1df,64d2fd46c836a06233681665,64dc7c320557b9d21b127088,,,,,,,decisionTrl,resources/DB.BMP,resources/DR.BMP,Door4,-0.3125,-0.065104167,1,0,0,1.579,optionLeft,80,1495,1,30,0,30,0,1,,,,,,,,,,,,,,,,,,,,,,,,,,,,,,,,,,,,,,,
,,,,,,,,2023-08-16_08h35.45.912,HF_wild_card,2022.2.4,MacIntel,100,5c4f839a37efdd000184e1df,64d2fd46c836a06233681665,64dc7c320557b9d21b127088,,,,,,,sngl,resources/Empty.png,resources/DY.BMP,Door1,0.425347222,-0.058159722,1,0,0,1.58,optionRight,30,1525,1,31,0,31,0,1,,,,,,,,,,,,,,,,,,,,,,,,,,,,,,,,,,,,,,,
,,,,,,,,2023-08-16_08h35.45.912,HF_wild_card,2022.2.4,MacIntel,100,5c4f839a37efdd000184e1df,64d2fd46c836a06233681665,64dc7c320557b9d21b127088,,,,,,,ctch,resources/DP.BMP,resources/DBN.BMP,Door3,-0.330729167,-0.021701389,1,0,0,1.105,optionLeft,70,1595,1,32,0,32,0,1,,,,,,,,,,,,,,,,,,,,,,,,,,,,,,,,,,,,,,,
,,,,,,,,2023-08-16_08h35.45.912,HF_wild_card,2022.2.4,MacIntel,100,5c4f839a37efdd000184e1df,64d2fd46c836a06233681665,64dc7c320557b9d21b127088,,,,,,,decisionTrl,resources/DP.BMP,resources/DB.BMP,Door3,-0.311631944,-0.072048611,1,0,0,1.499,optionLeft,70,1665,1,33,0,33,0,1,,,,,,,,,,,,,,,,,,,,,,,,,,,,,,,,,,,,,,,
,,,,,,,,2023-08-16_08h35.45.912,HF_wild_card,2022.2.4,MacIntel,100,5c4f839a37efdd000184e1df,64d2fd46c836a06233681665,64dc7c320557b9d21b127088,,,,,,,decisionTrl,resources/DR.BMP,resources/DP.BMP,Door3,0.249131944,-0.068576389,1,0,0,1.514,optionRight,70,1735,1,34,0,34,0,1,,,,,,,,,,,,,,,,,,,,,,,,,,,,,,,,,,,,,,,
,,,,,,,,2023-08-16_08h35.45.912,HF_wild_card,2022.2.4,MacIntel,100,5c4f839a37efdd000184e1df,64d2fd46c836a06233681665,64dc7c320557b9d21b127088,,,,,,,decisionTrl,resources/DP.BMP,resources/DB.BMP,Door3,-0.306423611,-0.013888889,1,0,0,1.034,optionLeft,70,1805,1,35,0,35,0,1,,,,,,,,,,,,,,,,,,,,,,,,,,,,,,,,,,,,,,,
,,,,,,,,2023-08-16_08h35.45.912,HF_wild_card,2022.2.4,MacIntel,100,5c4f839a37efdd000184e1df,64d2fd46c836a06233681665,64dc7c320557b9d21b127088,,,,,,,sngl,resources/DP.BMP,resources/Empty.png,Door3,-0.278645833,-0.025173611,1,0,0,1.147,optionLeft,70,1875,1,36,0,36,0,1,,,,,,,,,,,,,,,,,,,,,,,,,,,,,,,,,,,,,,,
,,,,,,,,2023-08-16_08h35.45.912,HF_wild_card,2022.2.4,MacIntel,100,5c4f839a37efdd000184e1df,64d2fd46c836a06233681665,64dc7c320557b9d21b127088,,,,,,,decisionTrl,resources/DY.BMP,resources/DR.BMP,Door1,-0.326388889,-0.046875,1,0,0,1.108,optionLeft,30,1905,1,37,0,37,0,1,,,,,,,,,,,,,,,,,,,,,,,,,,,,,,,,,,,,,,,
,,,,,,,,2023-08-16_08h35.45.912,HF_wild_card,2022.2.4,MacIntel,100,5c4f839a37efdd000184e1df,64d2fd46c836a06233681665,64dc7c320557b9d21b127088,,,,,,,sngl,resources/DR.BMP,resources/Empty.png,WildCard_NonEx,-0.336805556,-0.072916667,1,0,0,0.9,optionLeft,55,1960,1,38,0,38,0,1,,,,,,,,,,,,,,,,,,,,,,,,,,,,,,,,,,,,,,,
,,,,,,,,2023-08-16_08h35.45.912,HF_wild_card,2022.2.4,MacIntel,100,5c4f839a37efdd000184e1df,64d2fd46c836a06233681665,64dc7c320557b9d21b127088,,,,,,,decisionTrl,resources/DY.BMP,resources/DBN.BMP,Door2,0.375868056,-0.035590278,1,0,0,0.862,optionRight,40,2000,1,39,0,39,0,1,,,,,,,,,,,,,,,,,,,,,,,,,,,,,,,,,,,,,,,
,,,,,,,,2023-08-16_08h35.45.912,HF_wild_card,2022.2.4,MacIntel,100,5c4f839a37efdd000184e1df,64d2fd46c836a06233681665,64dc7c320557b9d21b127088,,,,,,,decisionTrl,resources/DBN.BMP,resources/DY.BMP,Door2,-0.392361111,-0.032118056,1,0,0,1.879,optionLeft,20,2020,1,40,0,40,0,1,,,,,,,,,,,,,,,,,,,,,,,,,,,,,,,,,,,,,,,
,,,,,,,,2023-08-16_08h35.45.912,HF_wild_card,2022.2.4,MacIntel,100,5c4f839a37efdd000184e1df,64d2fd46c836a06233681665,64dc7c320557b9d21b127088,,,,,,,sngl,resources/Empty.png,resources/DP.BMP,Door3,0.374131944,-0.024305556,1,0,0,0.789,optionRight,70,2090,1,41,0,41,0,1,,,,,,,,,,,,,,,,,,,,,,,,,,,,,,,,,,,,,,,
,,,,,,,,2023-08-16_08h35.45.912,HF_wild_card,2022.2.4,MacIntel,100,5c4f839a37efdd000184e1df,64d2fd46c836a06233681665,64dc7c320557b9d21b127088,,,,,,,decisionTrl,resources/DR.BMP,resources/DBN.BMP,WildCard_NonEx,-0.309027778,-0.060763889,1,0,0,1.243,optionLeft,45,2135,1,42,0,42,0,1,,,,,,,,,,,,,,,,,,,,,,,,,,,,,,,,,,,,,,,
,,,,,,,,2023-08-16_08h35.45.912,HF_wild_card,2022.2.4,MacIntel,100,5c4f839a37efdd000184e1df,64d2fd46c836a06233681665,64dc7c320557b9d21b127088,,,,,,,sngl,resources/DY.BMP,resources/Empty.png,Door1,-0.3515625,-0.008680556,1,0,0,0.809,optionLeft,30,2165,1,43,0,43,0,1,,,,,,,,,,,,,,,,,,,,,,,,,,,,,,,,,,,,,,,
,,,,,,,,2023-08-16_08h35.45.912,HF_wild_card,2022.2.4,MacIntel,100,5c4f839a37efdd000184e1df,64d2fd46c836a06233681665,64dc7c320557b9d21b127088,,,,,,,,,,,,,,,,,,,,,,,,,,0,0,0,0,1,,,,,,,,,,,,,,,,,,,,,,,,,,,,,,,,,,
,,,,,,,,2023-08-16_08h35.45.912,HF_wild_card,2022.2.4,MacIntel,100,5c4f839a37efdd000184e1df,64d2fd46c836a06233681665,64dc7c320557b9d21b127088,,,,,,,decisionTrl,resources/DB.BMP,resources/DP.BMP,Door3,0.477430556,-0.103298611,1,0,0,1.498,optionRight,70,2235,2,0,0,0,0,1,,,,,,,,,,,,,,,,,,,,,,,,,,,,,,,,,,,,,,,
,,,,,,,,2023-08-16_08h35.45.912,HF_wild_card,2022.2.4,MacIntel,100,5c4f839a37efdd000184e1df,64d2fd46c836a06233681665,64dc7c320557b9d21b127088,,,,,,,sngl,resources/Empty.png,resources/DR.BMP,WildCard_NonEx,0.3984375,-0.009548611,1,0,0,1.172,optionRight,45,2280,2,1,0,1,0,1,,,,,,,,,,,,,,,,,,,,,,,,,,,,,,,,,,,,,,,
,,,,,,,,2023-08-16_08h35.45.912,HF_wild_card,2022.2.4,MacIntel,100,5c4f839a37efdd000184e1df,64d2fd46c836a06233681665,64dc7c320557b9d21b127088,,,,,,,sngl,resources/DB.BMP,resources/Empty.png,Door4,-0.322048611,-0.020833333,1,0,0,0.802,optionLeft,60,2340,2,2,0,2,0,1,,,,,,,,,,,,,,,,,,,,,,,,,,,,,,,,,,,,,,,
,,,,,,,,2023-08-16_08h35.45.912,HF_wild_card,2022.2.4,MacIntel,100,5c4f839a37efdd000184e1df,64d2fd46c836a06233681665,64dc7c320557b9d21b127088,,,,,,,decisionTrl,resources/DP.BMP,resources/DB.BMP,Door3,-0.2734375,-0.059895833,1,0,0,1.264,optionLeft,70,2410,2,3,0,3,0,1,,,,,,,,,,,,,,,,,,,,,,,,,,,,,,,,,,,,,,,
,,,,,,,,2023-08-16_08h35.45.912,HF_wild_card,2022.2.4,MacIntel,100,5c4f839a37efdd000184e1df,64d2fd46c836a06233681665,64dc7c320557b9d21b127088,,,,,,,sngl,resources/DBN.BMP,resources/Empty.png,Door2,-0.296875,-0.030381944,1,0,0,0.917,optionLeft,20,2430,2,4,0,4,0,1,,,,,,,,,,,,,,,,,,,,,,,,,,,,,,,,,,,,,,,
,,,,,,,,2023-08-16_08h35.45.912,HF_wild_card,2022.2.4,MacIntel,100,5c4f839a37efdd000184e1df,64d2fd46c836a06233681665,64dc7c320557b9d21b127088,,,,,,,decisionTrl,resources/DB.BMP,resources/DP.BMP,Door3,0.338541667,-0.061631944,1,0,0,0.83,optionRight,70,2500,2,5,0,5,0,1,,,,,,,,,,,,,,,,,,,,,,,,,,,,,,,,,,,,,,,
,,,,,,,,2023-08-16_08h35.45.912,HF_wild_card,2022.2.4,MacIntel,100,5c4f839a37efdd000184e1df,64d2fd46c836a06233681665,64dc7c320557b9d21b127088,,,,,,,decisionTrl,resources/DB.BMP,resources/DR.BMP,WildCard_NonEx,0.369791667,-0.067708333,1,0,0,2.056,optionRight,45,2545,2,6,0,6,0,1,,,,,,,,,,,,,,,,,,,,,,,,,,,,,,,,,,,,,,,
,,,,,,,,2023-08-16_08h35.45.912,HF_wild_card,2022.2.4,MacIntel,100,5c4f839a37efdd000184e1df,64d2fd46c836a06233681665,64dc7c320557b9d21b127088,,,,,,,decisionTrl,resources/DBN.BMP,resources/DY.BMP,Door1,0.388888889,-0.069444444,1,0,0,1.169,optionRight,30,2575,2,7,0,7,0,1,,,,,,,,,,,,,,,,,,,,,,,,,,,,,,,,,,,,,,,
,,,,,,,,2023-08-16_08h35.45.912,HF_wild_card,2022.2.4,MacIntel,100,5c4f839a37efdd000184e1df,64d2fd46c836a06233681665,64dc7c320557b9d21b127088,,,,,,,decisionTrl,resources/DY.BMP,resources/DBN.BMP,Door1,-0.275173611,-0.051215278,1,0,0,1.353,optionLeft,30,2605,2,8,0,8,0,1,,,,,,,,,,,,,,,,,,,,,,,,,,,,,,,,,,,,,,,
,,,,,,,,2023-08-16_08h35.45.912,HF_wild_card,2022.2.4,MacIntel,100,5c4f839a37efdd000184e1df,64d2fd46c836a06233681665,64dc7c320557b9d21b127088,,,,,,,ctch,resources/DB.BMP,resources/DY.BMP,Door1,0.342881944,-0.027777778,1,0,0,0.853,optionRight,30,2635,2,9,0,9,0,1,,,,,,,,,,,,,,,,,,,,,,,,,,,,,,,,,,,,,,,
,,,,,,,,2023-08-16_08h35.45.912,HF_wild_card,2022.2.4,MacIntel,100,5c4f839a37efdd000184e1df,64d2fd46c836a06233681665,64dc7c320557b9d21b127088,,,,,,,decisionTrl,resources/DB.BMP,resources/DP.BMP,Door4,-0.340277778,-0.0625,1,0,0,0.896,optionLeft,60,2695,2,10,0,10,0,1,,,,,,,,,,,,,,,,,,,,,,,,,,,,,,,,,,,,,,,
,,,,,,,,2023-08-16_08h35.45.912,HF_wild_card,2022.2.4,MacIntel,100,5c4f839a37efdd000184e1df,64d2fd46c836a06233681665,64dc7c320557b9d21b127088,,,,,,,ctch,resources/DP.BMP,resources/DBN.BMP,Door2,0.438368056,-0.026909722,1,0,0,1.13,optionRight,40,2735,2,11,0,11,0,1,,,,,,,,,,,,,,,,,,,,,,,,,,,,,,,,,,,,,,,
,,,,,,,,2023-08-16_08h35.45.912,HF_wild_card,2022.2.4,MacIntel,100,5c4f839a37efdd000184e1df,64d2fd46c836a06233681665,64dc7c320557b9d21b127088,,,,,,,sngl,resources/DY.BMP,resources/Empty.png,Door1,-0.329861111,-0.074652778,1,0,0,0.807,optionLeft,30,2765,2,12,0,12,0,1,,,,,,,,,,,,,,,,,,,,,,,,,,,,,,,,,,,,,,,
,,,,,,,,2023-08-16_08h35.45.912,HF_wild_card,2022.2.4,MacIntel,100,5c4f839a37efdd000184e1df,64d2fd46c836a06233681665,64dc7c320557b9d21b127088,,,,,,,sngl,resources/DR.BMP,resources/Empty.png,WildCard_NonEx,-0.418402778,-0.025173611,1,0,0,0.784,optionLeft,45,2810,2,13,0,13,0,1,,,,,,,,,,,,,,,,,,,,,,,,,,,,,,,,,,,,,,,
,,,,,,,,2023-08-16_08h35.45.912,HF_wild_card,2022.2.4,MacIntel,100,5c4f839a37efdd000184e1df,64d2fd46c836a06233681665,64dc7c320557b9d21b127088,,,,,,,decisionTrl,resources/DP.BMP,resources/DB.BMP,Door3,-0.190972222,-0.066840278,1,0,0,1.666,optionLeft,70,2880,2,14,0,14,0,1,,,,,,,,,,,,,,,,,,,,,,,,,,,,,,,,,,,,,,,
,,,,,,,,2023-08-16_08h35.45.912,HF_wild_card,2022.2.4,MacIntel,100,5c4f839a37efdd000184e1df,64d2fd46c836a06233681665,64dc7c320557b9d21b127088,,,,,,,decisionTrl,resources/DP.BMP,resources/DB.BMP,Door3,-0.322916667,-0.067708333,1,0,0,0.879,optionLeft,70,2950,2,15,0,15,0,1,,,,,,,,,,,,,,,,,,,,,,,,,,,,,,,,,,,,,,,
,,,,,,,,2023-08-16_08h35.45.912,HF_wild_card,2022.2.4,MacIntel,100,5c4f839a37efdd000184e1df,64d2fd46c836a06233681665,64dc7c320557b9d21b127088,,,,,,,decisionTrl,resources/DBN.BMP,resources/DR.BMP,WildCard_NonEx,0.354166667,-0.034722222,1,0,0,1.797,optionRight,45,2995,2,16,0,16,0,1,,,,,,,,,,,,,,,,,,,,,,,,,,,,,,,,,,,,,,,
,,,,,,,,2023-08-16_08h35.45.912,HF_wild_card,2022.2.4,MacIntel,100,5c4f839a37efdd000184e1df,64d2fd46c836a06233681665,64dc7c320557b9d21b127088,,,,,,,decisionTrl,resources/DR.BMP,resources/DBN.BMP,WildCard_NonEx,-0.403645833,-0.048611111,1,0,0,0.886,optionLeft,55,3050,2,17,0,17,0,1,,,,,,,,,,,,,,,,,,,,,,,,,,,,,,,,,,,,,,,
,,,,,,,,2023-08-16_08h35.45.912,HF_wild_card,2022.2.4,MacIntel,100,5c4f839a37efdd000184e1df,64d2fd46c836a06233681665,64dc7c320557b9d21b127088,,,,,,,sngl,resources/DP.BMP,resources/Empty.png,Door3,-0.275173611,-0.036458333,1,0,0,0.765,optionLeft,70,3120,2,18,0,18,0,1,,,,,,,,,,,,,,,,,,,,,,,,,,,,,,,,,,,,,,,
,,,,,,,,2023-08-16_08h35.45.912,HF_wild_card,2022.2.4,MacIntel,100,5c4f839a37efdd000184e1df,64d2fd46c836a06233681665,64dc7c320557b9d21b127088,,,,,,,decisionTrl,resources/DB.BMP,resources/DP.BMP,Door3,0.361979167,-0.046875,1,0,0,0.879,optionRight,70,3190,2,19,0,19,0,1,,,,,,,,,,,,,,,,,,,,,,,,,,,,,,,,,,,,,,,
,,,,,,,,2023-08-16_08h35.45.912,HF_wild_card,2022.2.4,MacIntel,100,5c4f839a37efdd000184e1df,64d2fd46c836a06233681665,64dc7c320557b9d21b127088,,,,,,,decisionTrl,resources/DR.BMP,resources/DY.BMP,Door1,0.319444444,-0.068576389,1,0,0,0.954,optionRight,30,3220,2,20,0,20,0,1,,,,,,,,,,,,,,,,,,,,,,,,,,,,,,,,,,,,,,,
,,,,,,,,2023-08-16_08h35.45.912,HF_wild_card,2022.2.4,MacIntel,100,5c4f839a37efdd000184e1df,64d2fd46c836a06233681665,64dc7c320557b9d21b127088,,,,,,,ctch,resources/DBN.BMP,resources/DP.BMP,Door3,0.360243056,-0.084201389,1,0,0,0.83,optionRight,70,3290,2,21,0,21,0,1,,,,,,,,,,,,,,,,,,,,,,,,,,,,,,,,,,,,,,,
,,,,,,,,2023-08-16_08h35.45.912,HF_wild_card,2022.2.4,MacIntel,100,5c4f839a37efdd000184e1df,64d2fd46c836a06233681665,64dc7c320557b9d21b127088,,,,,,,ctch,resources/DY.BMP,resources/DB.BMP,Door4,0.309027778,-0.0625,1,0,0,2.008,optionRight,60,3350,2,22,0,22,0,1,,,,,,,,,,,,,,,,,,,,,,,,,,,,,,,,,,,,,,,
,,,,,,,,2023-08-16_08h35.45.912,HF_wild_card,2022.2.4,MacIntel,100,5c4f839a37efdd000184e1df,64d2fd46c836a06233681665,64dc7c320557b9d21b127088,,,,,,,sngl,resources/Empty.png,resources/DBN.BMP,Door2,0.386284722,-0.033854167,1,0,0,0.93,optionRight,40,3390,2,23,0,23,0,1,,,,,,,,,,,,,,,,,,,,,,,,,,,,,,,,,,,,,,,
,,,,,,,,2023-08-16_08h35.45.912,HF_wild_card,2022.2.4,MacIntel,100,5c4f839a37efdd000184e1df,64d2fd46c836a06233681665,64dc7c320557b9d21b127088,,,,,,,sngl,resources/Empty.png,resources/DP.BMP,Door3,0.307291667,-0.035590278,1,0,0,0.847,optionRight,70,3460,2,24,0,24,0,1,,,,,,,,,,,,,,,,,,,,,,,,,,,,,,,,,,,,,,,
,,,,,,,,2023-08-16_08h35.45.912,HF_wild_card,2022.2.4,MacIntel,100,5c4f839a37efdd000184e1df,64d2fd46c836a06233681665,64dc7c320557b9d21b127088,,,,,,,decisionTrl,resources/DBN.BMP,resources/DY.BMP,Door2,-0.329861111,-0.03125,1,0,0,1.059,optionLeft,40,3500,2,25,0,25,0,1,,,,,,,,,,,,,,,,,,,,,,,,,,,,,,,,,,,,,,,
,,,,,,,,2023-08-16_08h35.45.912,HF_wild_card,2022.2.4,MacIntel,100,5c4f839a37efdd000184e1df,64d2fd46c836a06233681665,64dc7c320557b9d21b127088,,,,,,,sngl,resources/Empty.png,resources/DB.BMP,Door4,0.323784722,-0.042534722,1,0,0,0.727,optionRight,80,3580,2,26,0,26,0,1,,,,,,,,,,,,,,,,,,,,,,,,,,,,,,,,,,,,,,,
,,,,,,,,2023-08-16_08h35.45.912,HF_wild_card,2022.2.4,MacIntel,100,5c4f839a37efdd000184e1df,64d2fd46c836a06233681665,64dc7c320557b9d21b127088,,,,,,,sngl,resources/Empty.png,resources/DY.BMP,Door1,0.328125,-0.049479167,1,0,0,0.848,optionRight,30,3610,2,27,0,27,0,1,,,,,,,,,,,,,,,,,,,,,,,,,,,,,,,,,,,,,,,
,,,,,,,,2023-08-16_08h35.45.912,HF_wild_card,2022.2.4,MacIntel,100,5c4f839a37efdd000184e1df,64d2fd46c836a06233681665,64dc7c320557b9d21b127088,,,,,,,sngl,resources/Empty.png,resources/DR.BMP,WildCard_NonEx,0.370659722,-0.038194444,1,0,0,0.798,optionRight,55,3665,2,28,0,28,0,1,,,,,,,,,,,,,,,,,,,,,,,,,,,,,,,,,,,,,,,
,,,,,,,,2023-08-16_08h35.45.912,HF_wild_card,2022.2.4,MacIntel,100,5c4f839a37efdd000184e1df,64d2fd46c836a06233681665,64dc7c320557b9d21b127088,,,,,,,decisionTrl,resources/DR.BMP,resources/DB.BMP,WildCard_NonEx,-0.262152778,-0.063368056,1,0,0,1.861,optionLeft,45,3710,2,29,0,29,0,1,,,,,,,,,,,,,,,,,,,,,,,,,,,,,,,,,,,,,,,
,,,,,,,,2023-08-16_08h35.45.912,HF_wild_card,2022.2.4,MacIntel,100,5c4f839a37efdd000184e1df,64d2fd46c836a06233681665,64dc7c320557b9d21b127088,,,,,,,decisionTrl,resources/DY.BMP,resources/DBN.BMP,Door2,0.418402778,-0.041666667,1,0,0,1.283,optionRight,20,3730,2,30,0,30,0,1,,,,,,,,,,,,,,,,,,,,,,,,,,,,,,,,,,,,,,,
,,,,,,,,2023-08-16_08h35.45.912,HF_wild_card,2022.2.4,MacIntel,100,5c4f839a37efdd000184e1df,64d2fd46c836a06233681665,64dc7c320557b9d21b127088,,,,,,,decisionTrl,resources/DY.BMP,resources/DBN.BMP,Door2,0.426215278,-0.019097222,1,0,0,1.251,optionRight,20,3750,2,31,0,31,0,1,,,,,,,,,,,,,,,,,,,,,,,,,,,,,,,,,,,,,,,
,,,,,,,,2023-08-16_08h35.45.912,HF_wild_card,2022.2.4,MacIntel,100,5c4f839a37efdd000184e1df,64d2fd46c836a06233681665,64dc7c320557b9d21b127088,,,,,,,ctch,resources/DP.BMP,resources/DBN.BMP,Door3,-0.307291667,-0.060763889,1,0,0,0.914,optionLeft,70,3820,2,32,0,32,0,1,,,,,,,,,,,,,,,,,,,,,,,,,,,,,,,,,,,,,,,
,,,,,,,,2023-08-16_08h35.45.912,HF_wild_card,2022.2.4,MacIntel,100,5c4f839a37efdd000184e1df,64d2fd46c836a06233681665,64dc7c320557b9d21b127088,,,,,,,decisionTrl,resources/DR.BMP,resources/DP.BMP,Door3,0.424479167,-0.094618056,1,0,0,1.185,optionRight,70,3890,2,33,0,33,0,1,,,,,,,,,,,,,,,,,,,,,,,,,,,,,,,,,,,,,,,
,,,,,,,,2023-08-16_08h35.45.912,HF_wild_card,2022.2.4,MacIntel,100,5c4f839a37efdd000184e1df,64d2fd46c836a06233681665,64dc7c320557b9d21b127088,,,,,,,sngl,resources/DR.BMP,resources/Empty.png,WildCard_NonEx,-0.4375,-0.033854167,1,0,0,0.809,optionLeft,55,3945,2,34,0,34,0,1,,,,,,,,,,,,,,,,,,,,,,,,,,,,,,,,,,,,,,,
,,,,,,,,2023-08-16_08h35.45.912,HF_wild_card,2022.2.4,MacIntel,100,5c4f839a37efdd000184e1df,64d2fd46c836a06233681665,64dc7c320557b9d21b127088,,,,,,,ctch,resources/DB.BMP,resources/DY.BMP,Door4,-0.260416667,-0.078125,1,0,0,1.386,optionLeft,60,4005,2,35,0,35,0,1,,,,,,,,,,,,,,,,,,,,,,,,,,,,,,,,,,,,,,,
,,,,,,,,2023-08-16_08h35.45.912,HF_wild_card,2022.2.4,MacIntel,100,5c4f839a37efdd000184e1df,64d2fd46c836a06233681665,64dc7c320557b9d21b127088,,,,,,,decisionTrl,resources/DP.BMP,resources/DB.BMP,Door3,-0.426215278,-0.0390625,1,0,0,1.232,optionLeft,70,4075,2,36,0,36,0,1,,,,,,,,,,,,,,,,,,,,,,,,,,,,,,,,,,,,,,,
,,,,,,,,2023-08-16_08h35.45.912,HF_wild_card,2022.2.4,MacIntel,100,5c4f839a37efdd000184e1df,64d2fd46c836a06233681665,64dc7c320557b9d21b127088,,,,,,,decisionTrl,resources/DBN.BMP,resources/DY.BMP,Door2,-0.244791667,-0.024305556,1,0,0,1.2,optionLeft,40,4115,2,37,0,37,0,1,,,,,,,,,,,,,,,,,,,,,,,,,,,,,,,,,,,,,,,
,,,,,,,,2023-08-16_08h35.45.912,HF_wild_card,2022.2.4,MacIntel,100,5c4f839a37efdd000184e1df,64d2fd46c836a06233681665,64dc7c320557b9d21b127088,,,,,,,ctch,resources/DBN.BMP,resources/DP.BMP,Door3,0.377604167,-0.089409722,1,0,0,0.898,optionRight,70,4185,2,38,0,38,0,1,,,,,,,,,,,,,,,,,,,,,,,,,,,,,,,,,,,,,,,
,,,,,,,,2023-08-16_08h35.45.912,HF_wild_card,2022.2.4,MacIntel,100,5c4f839a37efdd000184e1df,64d2fd46c836a06233681665,64dc7c320557b9d21b127088,,,,,,,decisionTrl,resources/DY.BMP,resources/DR.BMP,WildCard_NonEx,0.453993056,-0.087673611,1,0,0,1.032,optionRight,55,4240,2,39,0,39,0,1,,,,,,,,,,,,,,,,,,,,,,,,,,,,,,,,,,,,,,,
,,,,,,,,2023-08-16_08h35.45.912,HF_wild_card,2022.2.4,MacIntel,100,5c4f839a37efdd000184e1df,64d2fd46c836a06233681665,64dc7c320557b9d21b127088,,,,,,,decisionTrl,resources/DP.BMP,resources/DR.BMP,Door3,-0.286458333,-0.072916667,1,0,0,1.246,optionLeft,70,4310,2,40,0,40,0,1,,,,,,,,,,,,,,,,,,,,,,,,,,,,,,,,,,,,,,,
,,,,,,,,2023-08-16_08h35.45.912,HF_wild_card,2022.2.4,MacIntel,100,5c4f839a37efdd000184e1df,64d2fd46c836a06233681665,64dc7c320557b9d21b127088,,,,,,,ctch,resources/DY.BMP,resources/DB.BMP,Door4,0.2890625,-0.081597222,1,0,0,2.116,optionRight,80,4390,2,41,0,41,0,1,,,,,,,,,,,,,,,,,,,,,,,,,,,,,,,,,,,,,,,
,,,,,,,,2023-08-16_08h35.45.912,HF_wild_card,2022.2.4,MacIntel,100,5c4f839a37efdd000184e1df,64d2fd46c836a06233681665,64dc7c320557b9d21b127088,,,,,,,decisionTrl,resources/DBN.BMP,resources/DY.BMP,Door2,-0.325520833,-0.044270833,1,0,0,1.039,optionLeft,20,4410,2,42,0,42,0,1,,,,,,,,,,,,,,,,,,,,,,,,,,,,,,,,,,,,,,,
,,,,,,,,2023-08-16_08h35.45.912,HF_wild_card,2022.2.4,MacIntel,100,5c4f839a37efdd000184e1df,64d2fd46c836a06233681665,64dc7c320557b9d21b127088,,,,,,,decisionTrl,resources/DY.BMP,resources/DBN.BMP,Door2,0.447916667,-0.040798611,1,0,0,1.29,optionRight,20,4430,2,43,0,43,0,1,,,,,,,,,,,,,,,,,,,,,,,,,,,,,,,,,,,,,,,
,,,,,,,,2023-08-16_08h35.45.912,HF_wild_card,2022.2.4,MacIntel,100,5c4f839a37efdd000184e1df,64d2fd46c836a06233681665,64dc7c320557b9d21b127088,,,,,,,,,,,,,,,,,,,,,,,,,,1,0,1,0,1,,,,,,,,,,,,,,,,,,,,,,,,,,,,,,,,,,
,,,,,,,,2023-08-16_08h35.45.912,HF_wild_card,2022.2.4,MacIntel,100,5c4f839a37efdd000184e1df,64d2fd46c836a06233681665,64dc7c320557b9d21b127088,,,,,,,decisionTrl,resources/DB.BMP,resources/DR.BMP,Door4,-0.357638889,-0.026041667,1,0,0,1.072,optionLeft,80,4510,3,0,0,0,0,1,,,,,,,,,,,,,,,,,,,,,,,,,,,,,,,,,,,,,,,
,,,,,,,,2023-08-16_08h35.45.912,HF_wild_card,2022.2.4,MacIntel,100,5c4f839a37efdd000184e1df,64d2fd46c836a06233681665,64dc7c320557b9d21b127088,,,,,,,decisionTrl,resources/DB.BMP,resources/DP.BMP,Door4,-0.316840278,-0.015625,1,0,0,1.022,optionLeft,60,4570,3,1,0,1,0,1,,,,,,,,,,,,,,,,,,,,,,,,,,,,,,,,,,,,,,,
,,,,,,,,2023-08-16_08h35.45.912,HF_wild_card,2022.2.4,MacIntel,100,5c4f839a37efdd000184e1df,64d2fd46c836a06233681665,64dc7c320557b9d21b127088,,,,,,,sngl,resources/Empty.png,resources/DB.BMP,Door4,0.348958333,-0.028645833,1,0,0,0.742,optionRight,60,4630,3,2,0,2,0,1,,,,,,,,,,,,,,,,,,,,,,,,,,,,,,,,,,,,,,,
,,,,,,,,2023-08-16_08h35.45.912,HF_wild_card,2022.2.4,MacIntel,100,5c4f839a37efdd000184e1df,64d2fd46c836a06233681665,64dc7c320557b9d21b127088,,,,,,,ctch,resources/DBN.BMP,resources/DP.BMP,Door3,0.272569444,-0.051215278,1,0,0,0.954,optionRight,70,4700,3,3,0,3,0,1,,,,,,,,,,,,,,,,,,,,,,,,,,,,,,,,,,,,,,,
,,,,,,,,2023-08-16_08h35.45.912,HF_wild_card,2022.2.4,MacIntel,100,5c4f839a37efdd000184e1df,64d2fd46c836a06233681665,64dc7c320557b9d21b127088,,,,,,,ctch,resources/DBN.BMP,resources/DP.BMP,Door3,0.3203125,-0.063368056,1,0,0,0.723,optionRight,70,4770,3,4,0,4,0,1,,,,,,,,,,,,,,,,,,,,,,,,,,,,,,,,,,,,,,,
,,,,,,,,2023-08-16_08h35.45.912,HF_wild_card,2022.2.4,MacIntel,100,5c4f839a37efdd000184e1df,64d2fd46c836a06233681665,64dc7c320557b9d21b127088,,,,,,,decisionTrl,resources/DP.BMP,resources/DB.BMP,Door3,-0.329861111,-0.032118056,1,0,0,0.796,optionLeft,70,4840,3,5,0,5,0,1,,,,,,,,,,,,,,,,,,,,,,,,,,,,,,,,,,,,,,,
,,,,,,,,2023-08-16_08h35.45.912,HF_wild_card,2022.2.4,MacIntel,100,5c4f839a37efdd000184e1df,64d2fd46c836a06233681665,64dc7c320557b9d21b127088,,,,,,,decisionTrl,resources/DP.BMP,resources/DB.BMP,Door3,-0.283854167,-0.0234375,1,0,0,0.862,optionLeft,70,4910,3,6,0,6,0,1,,,,,,,,,,,,,,,,,,,,,,,,,,,,,,,,,,,,,,,
,,,,,,,,2023-08-16_08h35.45.912,HF_wild_card,2022.2.4,MacIntel,100,5c4f839a37efdd000184e1df,64d2fd46c836a06233681665,64dc7c320557b9d21b127088,,,,,,,decisionTrl,resources/DB.BMP,resources/DP.BMP,Door3,0.412326389,-0.099826389,1,0,0,0.705,optionRight,70,4980,3,7,0,7,0,1,,,,,,,,,,,,,,,,,,,,,,,,,,,,,,,,,,,,,,,
,,,,,,,,2023-08-16_08h35.45.912,HF_wild_card,2022.2.4,MacIntel,100,5c4f839a37efdd000184e1df,64d2fd46c836a06233681665,64dc7c320557b9d21b127088,,,,,,,decisionTrl,resources/DP.BMP,resources/DR.BMP,Door3,-0.3203125,-0.033854167,1,0,0,0.729,optionLeft,70,5050,3,8,0,8,0,1,,,,,,,,,,,,,,,,,,,,,,,,,,,,,,,,,,,,,,,
,,,,,,,,2023-08-16_08h35.45.912,HF_wild_card,2022.2.4,MacIntel,100,5c4f839a37efdd000184e1df,64d2fd46c836a06233681665,64dc7c320557b9d21b127088,,,,,,,decisionTrl,resources/DR.BMP,resources/DY.BMP,WildCard_NonEx,-0.353298611,-0.057291667,1,0,0,1.38,optionLeft,45,5095,3,9,0,9,0,1,,,,,,,,,,,,,,,,,,,,,,,,,,,,,,,,,,,,,,,
,,,,,,,,2023-08-16_08h35.45.912,HF_wild_card,2022.2.4,MacIntel,100,5c4f839a37efdd000184e1df,64d2fd46c836a06233681665,64dc7c320557b9d21b127088,,,,,,,decisionTrl,resources/DY.BMP,resources/DR.BMP,WildCard_NonEx,0.309027778,-0.09375,1,0,0,3.606,optionRight,55,5150,3,10,0,10,0,1,,,,,,,,,,,,,,,,,,,,,,,,,,,,,,,,,,,,,,,
,,,,,,,,2023-08-16_08h35.45.912,HF_wild_card,2022.2.4,MacIntel,100,5c4f839a37efdd000184e1df,64d2fd46c836a06233681665,64dc7c320557b9d21b127088,,,,,,,ctch,resources/DY.BMP,resources/DB.BMP,Door4,0.292534722,-0.063368056,1,0,0,1.092,optionRight,60,5210,3,11,0,11,0,1,,,,,,,,,,,,,,,,,,,,,,,,,,,,,,,,,,,,,,,
,,,,,,,,2023-08-16_08h35.45.912,HF_wild_card,2022.2.4,MacIntel,100,5c4f839a37efdd000184e1df,64d2fd46c836a06233681665,64dc7c320557b9d21b127088,,,,,,,decisionTrl,resources/DR.BMP,resources/DB.BMP,Door4,0.211805556,-0.084201389,1,0,0,2.737,optionRight,60,5270,3,12,0,12,0,1,,,,,,,,,,,,,,,,,,,,,,,,,,,,,,,,,,,,,,,
,,,,,,,,2023-08-16_08h35.45.912,HF_wild_card,2022.2.4,MacIntel,100,5c4f839a37efdd000184e1df,64d2fd46c836a06233681665,64dc7c320557b9d21b127088,,,,,,,sngl,resources/DB.BMP,resources/Empty.png,Door4,-0.329861111,-0.022569444,1,0,0,0.779,optionLeft,80,5350,3,13,0,13,0,1,,,,,,,,,,,,,,,,,,,,,,,,,,,,,,,,,,,,,,,
,,,,,,,,2023-08-16_08h35.45.912,HF_wild_card,2022.2.4,MacIntel,100,5c4f839a37efdd000184e1df,64d2fd46c836a06233681665,64dc7c320557b9d21b127088,,,,,,,sngl,resources/DBN.BMP,resources/Empty.png,Door2,-0.335069444,0.006076389,1,0,0,0.899,optionLeft,40,5390,3,14,0,14,0,1,,,,,,,,,,,,,,,,,,,,,,,,,,,,,,,,,,,,,,,
,,,,,,,,2023-08-16_08h35.45.912,HF_wild_card,2022.2.4,MacIntel,100,5c4f839a37efdd000184e1df,64d2fd46c836a06233681665,64dc7c320557b9d21b127088,,,,,,,decisionTrl,resources/DBN.BMP,resources/DY.BMP,Door1,0.3515625,-0.09375,1,0,0,2.261,optionRight,30,5420,3,15,0,15,0,1,,,,,,,,,,,,,,,,,,,,,,,,,,,,,,,,,,,,,,,
,,,,,,,,2023-08-16_08h35.45.912,HF_wild_card,2022.2.4,MacIntel,100,5c4f839a37efdd000184e1df,64d2fd46c836a06233681665,64dc7c320557b9d21b127088,,,,,,,ctch,resources/DY.BMP,resources/DB.BMP,Door4,0.246527778,-0.0546875,1,0,0,0.843,optionRight,60,5480,3,16,0,16,0,1,,,,,,,,,,,,,,,,,,,,,,,,,,,,,,,,,,,,,,,
,,,,,,,,2023-08-16_08h35.45.912,HF_wild_card,2022.2.4,MacIntel,100,5c4f839a37efdd000184e1df,64d2fd46c836a06233681665,64dc7c320557b9d21b127088,,,,,,,decisionTrl,resources/DR.BMP,resources/DP.BMP,Door3,0.348958333,-0.064236111,1,0,0,1.417,optionRight,70,5550,3,17,0,17,0,1,,,,,,,,,,,,,,,,,,,,,,,,,,,,,,,,,,,,,,,
,,,,,,,,2023-08-16_08h35.45.912,HF_wild_card,2022.2.4,MacIntel,100,5c4f839a37efdd000184e1df,64d2fd46c836a06233681665,64dc7c320557b9d21b127088,,,,,,,sngl,resources/DY.BMP,resources/Empty.png,Door1,-0.270833333,-0.026041667,1,0,0,1.168,optionLeft,30,5580,3,18,0,18,0,1,,,,,,,,,,,,,,,,,,,,,,,,,,,,,,,,,,,,,,,
,,,,,,,,2023-08-16_08h35.45.912,HF_wild_card,2022.2.4,MacIntel,100,5c4f839a37efdd000184e1df,64d2fd46c836a06233681665,64dc7c320557b9d21b127088,,,,,,,decisionTrl,resources/DBN.BMP,resources/DY.BMP,Door1,0.334201389,-0.057291667,1,0,0,1.572,optionRight,30,5610,3,19,0,19,0,1,,,,,,,,,,,,,,,,,,,,,,,,,,,,,,,,,,,,,,,
,,,,,,,,2023-08-16_08h35.45.912,HF_wild_card,2022.2.4,MacIntel,100,5c4f839a37efdd000184e1df,64d2fd46c836a06233681665,64dc7c320557b9d21b127088,,,,,,,decisionTrl,resources/DBN.BMP,resources/DR.BMP,WildCard_NonEx,0.370659722,-0.060763889,1,0,0,1.146,optionRight,45,5655,3,20,0,20,0,1,,,,,,,,,,,,,,,,,,,,,,,,,,,,,,,,,,,,,,,
,,,,,,,,2023-08-16_08h35.45.912,HF_wild_card,2022.2.4,MacIntel,100,5c4f839a37efdd000184e1df,64d2fd46c836a06233681665,64dc7c320557b9d21b127088,,,,,,,decisionTrl,resources/DP.BMP,resources/DB.BMP,Door3,-0.426215278,-0.025173611,1,0,0,1.452,optionLeft,70,5725,3,21,0,21,0,1,,,,,,,,,,,,,,,,,,,,,,,,,,,,,,,,,,,,,,,
,,,,,,,,2023-08-16_08h35.45.912,HF_wild_card,2022.2.4,MacIntel,100,5c4f839a37efdd000184e1df,64d2fd46c836a06233681665,64dc7c320557b9d21b127088,,,,,,,sngl,resources/Empty.png,resources/DP.BMP,Door3,0.372395833,-0.048611111,1,0,0,0.828,optionRight,70,5795,3,22,0,22,0,1,,,,,,,,,,,,,,,,,,,,,,,,,,,,,,,,,,,,,,,
,,,,,,,,2023-08-16_08h35.45.912,HF_wild_card,2022.2.4,MacIntel,100,5c4f839a37efdd000184e1df,64d2fd46c836a06233681665,64dc7c320557b9d21b127088,,,,,,,sngl,resources/Empty.png,resources/DY.BMP,Door1,0.299479167,-0.0390625,1,0,0,0.93,optionRight,30,5825,3,23,0,23,0,1,,,,,,,,,,,,,,,,,,,,,,,,,,,,,,,,,,,,,,,
,,,,,,,,2023-08-16_08h35.45.912,HF_wild_card,2022.2.4,MacIntel,100,5c4f839a37efdd000184e1df,64d2fd46c836a06233681665,64dc7c320557b9d21b127088,,,,,,,decisionTrl,resources/DP.BMP,resources/DB.BMP,Door3,-0.316840278,0.006076389,1,0,0,1.28,optionLeft,70,5895,3,24,0,24,0,1,,,,,,,,,,,,,,,,,,,,,,,,,,,,,,,,,,,,,,,
,,,,,,,,2023-08-16_08h35.45.912,HF_wild_card,2022.2.4,MacIntel,100,5c4f839a37efdd000184e1df,64d2fd46c836a06233681665,64dc7c320557b9d21b127088,,,,,,,decisionTrl,resources/DR.BMP,resources/DBN.BMP,WildCard_NonEx,-0.375,-0.012152778,1,0,0,1.677,optionLeft,55,5950,3,25,0,25,0,1,,,,,,,,,,,,,,,,,,,,,,,,,,,,,,,,,,,,,,,
,,,,,,,,2023-08-16_08h35.45.912,HF_wild_card,2022.2.4,MacIntel,100,5c4f839a37efdd000184e1df,64d2fd46c836a06233681665,64dc7c320557b9d21b127088,,,,,,,decisionTrl,resources/DB.BMP,resources/DP.BMP,Door3,0.416666667,-0.077256944,1,0,0,1.577,optionRight,70,6020,3,26,0,26,0,1,,,,,,,,,,,,,,,,,,,,,,,,,,,,,,,,,,,,,,,
,,,,,,,,2023-08-16_08h35.45.912,HF_wild_card,2022.2.4,MacIntel,100,5c4f839a37efdd000184e1df,64d2fd46c836a06233681665,64dc7c320557b9d21b127088,,,,,,,decisionTrl,resources/DBN.BMP,resources/DY.BMP,Door1,0.366319444,-0.072916667,1,0,0,1.382,optionRight,30,6050,3,27,0,27,0,1,,,,,,,,,,,,,,,,,,,,,,,,,,,,,,,,,,,,,,,
,,,,,,,,2023-08-16_08h35.45.912,HF_wild_card,2022.2.4,MacIntel,100,5c4f839a37efdd000184e1df,64d2fd46c836a06233681665,64dc7c320557b9d21b127088,,,,,,,ctch,resources/DB.BMP,resources/DY.BMP,Door4,-0.321180556,-0.050347222,1,0,0,0.933,optionLeft,60,6110,3,28,0,28,0,1,,,,,,,,,,,,,,,,,,,,,,,,,,,,,,,,,,,,,,,
,,,,,,,,2023-08-16_08h35.45.912,HF_wild_card,2022.2.4,MacIntel,100,5c4f839a37efdd000184e1df,64d2fd46c836a06233681665,64dc7c320557b9d21b127088,,,,,,,sngl,resources/Empty.png,resources/DR.BMP,WildCard_NonEx,0.383680556,-0.085069444,1,0,0,0.853,optionRight,45,6155,3,29,0,29,0,1,,,,,,,,,,,,,,,,,,,,,,,,,,,,,,,,,,,,,,,
,,,,,,,,2023-08-16_08h35.45.912,HF_wild_card,2022.2.4,MacIntel,100,5c4f839a37efdd000184e1df,64d2fd46c836a06233681665,64dc7c320557b9d21b127088,,,,,,,decisionTrl,resources/DY.BMP,resources/DBN.BMP,Door1,-0.300347222,-0.067708333,1,0,0,1.329,optionLeft,30,6185,3,30,0,30,0,1,,,,,,,,,,,,,,,,,,,,,,,,,,,,,,,,,,,,,,,
,,,,,,,,2023-08-16_08h35.45.912,HF_wild_card,2022.2.4,MacIntel,100,5c4f839a37efdd000184e1df,64d2fd46c836a06233681665,64dc7c320557b9d21b127088,,,,,,,ctch,resources/DB.BMP,resources/DY.BMP,Door4,-0.327256944,-0.015625,1,0,0,1.14,optionLeft,60,6245,3,31,0,31,0,1,,,,,,,,,,,,,,,,,,,,,,,,,,,,,,,,,,,,,,,
,,,,,,,,2023-08-16_08h35.45.912,HF_wild_card,2022.2.4,MacIntel,100,5c4f839a37efdd000184e1df,64d2fd46c836a06233681665,64dc7c320557b9d21b127088,,,,,,,decisionTrl,resources/DBN.BMP,resources/DY.BMP,Door1,0.402777778,-0.060763889,1,0,0,1.026,optionRight,30,6275,3,32,0,32,0,1,,,,,,,,,,,,,,,,,,,,,,,,,,,,,,,,,,,,,,,
,,,,,,,,2023-08-16_08h35.45.912,HF_wild_card,2022.2.4,MacIntel,100,5c4f839a37efdd000184e1df,64d2fd46c836a06233681665,64dc7c320557b9d21b127088,,,,,,,sngl,resources/DR.BMP,resources/Empty.png,WildCard_NonEx,-0.373263889,-0.018229167,1,0,0,0.843,optionLeft,55,6330,3,33,0,33,0,1,,,,,,,,,,,,,,,,,,,,,,,,,,,,,,,,,,,,,,,
,,,,,,,,2023-08-16_08h35.45.912,HF_wild_card,2022.2.4,MacIntel,100,5c4f839a37efdd000184e1df,64d2fd46c836a06233681665,64dc7c320557b9d21b127088,,,,,,,decisionTrl,resources/DY.BMP,resources/DBN.BMP,Door1,-0.355034722,-0.025173611,1,0,0,1.008,optionLeft,30,6360,3,34,0,34,0,1,,,,,,,,,,,,,,,,,,,,,,,,,,,,,,,,,,,,,,,
,,,,,,,,2023-08-16_08h35.45.912,HF_wild_card,2022.2.4,MacIntel,100,5c4f839a37efdd000184e1df,64d2fd46c836a06233681665,64dc7c320557b9d21b127088,,,,,,,sngl,resources/DP.BMP,resources/Empty.png,Door3,-0.289930556,-0.027777778,1,0,0,0.754,optionLeft,70,6430,3,35,0,35,0,1,,,,,,,,,,,,,,,,,,,,,,,,,,,,,,,,,,,,,,,
,,,,,,,,2023-08-16_08h35.45.912,HF_wild_card,2022.2.4,MacIntel,100,5c4f839a37efdd000184e1df,64d2fd46c836a06233681665,64dc7c320557b9d21b127088,,,,,,,decisionTrl,resources/DB.BMP,resources/DP.BMP,Door3,0.380208333,-0.073784722,1,0,0,1.28,optionRight,70,6500,3,36,0,36,0,1,,,,,,,,,,,,,,,,,,,,,,,,,,,,,,,,,,,,,,,
,,,,,,,,2023-08-16_08h35.45.912,HF_wild_card,2022.2.4,MacIntel,100,5c4f839a37efdd000184e1df,64d2fd46c836a06233681665,64dc7c320557b9d21b127088,,,,,,,decisionTrl,resources/DY.BMP,resources/DBN.BMP,Door1,-0.34375,-0.060763889,1,0,0,1.409,optionLeft,30,6530,3,37,0,37,0,1,,,,,,,,,,,,,,,,,,,,,,,,,,,,,,,,,,,,,,,
,,,,,,,,2023-08-16_08h35.45.912,HF_wild_card,2022.2.4,MacIntel,100,5c4f839a37efdd000184e1df,64d2fd46c836a06233681665,64dc7c320557b9d21b127088,,,,,,,sngl,resources/Empty.png,resources/DBN.BMP,Door2,0.363715278,-0.026041667,1,0,0,0.817,optionRight,20,6550,3,38,0,38,0,1,,,,,,,,,,,,,,,,,,,,,,,,,,,,,,,,,,,,,,,
,,,,,,,,2023-08-16_08h35.45.912,HF_wild_card,2022.2.4,MacIntel,100,5c4f839a37efdd000184e1df,64d2fd46c836a06233681665,64dc7c320557b9d21b127088,,,,,,,ctch,resources/DP.BMP,resources/DBN.BMP,Door3,-0.354166667,-0.014756944,1,0,0,0.826,optionLeft,70,6620,3,39,0,39,0,1,,,,,,,,,,,,,,,,,,,,,,,,,,,,,,,,,,,,,,,
,,,,,,,,2023-08-16_08h35.45.912,HF_wild_card,2022.2.4,MacIntel,100,5c4f839a37efdd000184e1df,64d2fd46c836a06233681665,64dc7c320557b9d21b127088,,,,,,,sngl,resources/Empty.png,resources/DR.BMP,WildCard_NonEx,0.364583333,-0.053819444,1,0,0,0.803,optionRight,55,6675,3,40,0,40,0,1,,,,,,,,,,,,,,,,,,,,,,,,,,,,,,,,,,,,,,,
,,,,,,,,2023-08-16_08h35.45.912,HF_wild_card,2022.2.4,MacIntel,100,5c4f839a37efdd000184e1df,64d2fd46c836a06233681665,64dc7c320557b9d21b127088,,,,,,,sngl,resources/DR.BMP,resources/Empty.png,WildCard_NonEx,-0.330729167,-0.014756944,1,0,0,0.728,optionLeft,45,6720,3,41,0,41,0,1,,,,,,,,,,,,,,,,,,,,,,,,,,,,,,,,,,,,,,,
,,,,,,,,2023-08-16_08h35.45.912,HF_wild_card,2022.2.4,MacIntel,100,5c4f839a37efdd000184e1df,64d2fd46c836a06233681665,64dc7c320557b9d21b127088,,,,,,,decisionTrl,resources/DY.BMP,resources/DBN.BMP,Door1,-0.369791667,-0.0234375,1,0,0,1.024,optionLeft,30,6750,3,42,0,42,0,1,,,,,,,,,,,,,,,,,,,,,,,,,,,,,,,,,,,,,,,
,,,,,,,,2023-08-16_08h35.45.912,HF_wild_card,2022.2.4,MacIntel,100,5c4f839a37efdd000184e1df,64d2fd46c836a06233681665,64dc7c320557b9d21b127088,,,,,,,ctch,resources/DP.BMP,resources/DBN.BMP,Door3,-0.327256944,-0.015625,1,0,0,0.958,optionLeft,70,6820,3,43,0,43,0,1,,,,,,,,,,,,,,,,,,,,,,,,,,,,,,,,,,,,,,,
,,,,,,,,2023-08-16_08h35.45.912,HF_wild_card,2022.2.4,MacIntel,100,5c4f839a37efdd000184e1df,64d2fd46c836a06233681665,64dc7c320557b9d21b127088,,,,,,,,,,,,,,,,,,,,,,,,,,2,0,2,0,1,,,,,,,,,,,,,,,,,,,,,,,,,,,,,,,,,,
,,,,,,,,2023-08-16_08h35.45.912,HF_wild_card,2022.2.4,MacIntel,100,5c4f839a37efdd000184e1df,64d2fd46c836a06233681665,64dc7c320557b9d21b127088,,,,,,,decisionTrl,resources/DY.BMP,resources/DBN.BMP,Door1,-0.1875,-0.143229167,1,0,0,1.056,optionLeft,30,6850,4,0,0,0,0,1,,,,,,,,,,,,,,,,,,,,,,,,,,,,,,,,,,,,,,,
,,,,,,,,2023-08-16_08h35.45.912,HF_wild_card,2022.2.4,MacIntel,100,5c4f839a37efdd000184e1df,64d2fd46c836a06233681665,64dc7c320557b9d21b127088,,,,,,,decisionTrl,resources/DBN.BMP,resources/DY.BMP,Door1,0.347222222,-0.036458333,1,0,0,0.973,optionRight,30,6880,4,1,0,1,0,1,,,,,,,,,,,,,,,,,,,,,,,,,,,,,,,,,,,,,,,
,,,,,,,,2023-08-16_08h35.45.912,HF_wild_card,2022.2.4,MacIntel,100,5c4f839a37efdd000184e1df,64d2fd46c836a06233681665,64dc7c320557b9d21b127088,,,,,,,ctch,resources/DY.BMP,resources/DB.BMP,Door4,0.388888889,-0.081597222,1,0,0,1.105,optionRight,60,6940,4,2,0,2,0,1,,,,,,,,,,,,,,,,,,,,,,,,,,,,,,,,,,,,,,,
,,,,,,,,2023-08-16_08h35.45.912,HF_wild_card,2022.2.4,MacIntel,100,5c4f839a37efdd000184e1df,64d2fd46c836a06233681665,64dc7c320557b9d21b127088,,,,,,,decisionTrl,resources/DB.BMP,resources/DP.BMP,Door3,0.466145833,-0.094618056,1,0,0,1.363,optionRight,70,7010,4,3,0,3,0,1,,,,,,,,,,,,,,,,,,,,,,,,,,,,,,,,,,,,,,,
,,,,,,,,2023-08-16_08h35.45.912,HF_wild_card,2022.2.4,MacIntel,100,5c4f839a37efdd000184e1df,64d2fd46c836a06233681665,64dc7c320557b9d21b127088,,,,,,,ctch,resources/DBN.BMP,resources/DP.BMP,Door3,0.484375,-0.068576389,1,0,0,1.215,optionRight,70,7080,4,4,0,4,0,1,,,,,,,,,,,,,,,,,,,,,,,,,,,,,,,,,,,,,,,
,,,,,,,,2023-08-16_08h35.45.912,HF_wild_card,2022.2.4,MacIntel,100,5c4f839a37efdd000184e1df,64d2fd46c836a06233681665,64dc7c320557b9d21b127088,,,,,,,decisionTrl,resources/DBN.BMP,resources/DY.BMP,Door1,0.311631944,-0.042534722,1,0,0,0.915,optionRight,30,7110,4,5,0,5,0,1,,,,,,,,,,,,,,,,,,,,,,,,,,,,,,,,,,,,,,,
,,,,,,,,2023-08-16_08h35.45.912,HF_wild_card,2022.2.4,MacIntel,100,5c4f839a37efdd000184e1df,64d2fd46c836a06233681665,64dc7c320557b9d21b127088,,,,,,,sngl,resources/Empty.png,resources/DBN.BMP,Door2,0.421875,-0.025173611,1,0,0,2.203,optionRight,40,7150,4,6,0,6,0,1,,,,,,,,,,,,,,,,,,,,,,,,,,,,,,,,,,,,,,,
,,,,,,,,2023-08-16_08h35.45.912,HF_wild_card,2022.2.4,MacIntel,100,5c4f839a37efdd000184e1df,64d2fd46c836a06233681665,64dc7c320557b9d21b127088,,,,,,,decisionTrl,resources/DBN.BMP,resources/DY.BMP,Door2,-0.305555556,-0.008680556,1,0,0,0.841,optionLeft,20,7170,4,7,0,7,0,1,,,,,,,,,,,,,,,,,,,,,,,,,,,,,,,,,,,,,,,
,,,,,,,,2023-08-16_08h35.45.912,HF_wild_card,2022.2.4,MacIntel,100,5c4f839a37efdd000184e1df,64d2fd46c836a06233681665,64dc7c320557b9d21b127088,,,,,,,sngl,resources/Empty.png,resources/DY.BMP,Door1,0.419270833,-0.017361111,1,0,0,0.729,optionRight,30,7200,4,8,0,8,0,1,,,,,,,,,,,,,,,,,,,,,,,,,,,,,,,,,,,,,,,
,,,,,,,,2023-08-16_08h35.45.912,HF_wild_card,2022.2.4,MacIntel,100,5c4f839a37efdd000184e1df,64d2fd46c836a06233681665,64dc7c320557b9d21b127088,,,,,,,sngl,resources/Empty.png,resources/DB.BMP,Door4,0.411458333,-0.033854167,1,0,0,0.745,optionRight,80,7280,4,9,0,9,0,1,,,,,,,,,,,,,,,,,,,,,,,,,,,,,,,,,,,,,,,
,,,,,,,,2023-08-16_08h35.45.912,HF_wild_card,2022.2.4,MacIntel,100,5c4f839a37efdd000184e1df,64d2fd46c836a06233681665,64dc7c320557b9d21b127088,,,,,,,ctch,resources/DY.BMP,resources/DB.BMP,Door4,0.361111111,-0.072916667,1,0,0,0.849,optionRight,60,7340,4,10,0,10,0,1,,,,,,,,,,,,,,,,,,,,,,,,,,,,,,,,,,,,,,,
,,,,,,,,2023-08-16_08h35.45.912,HF_wild_card,2022.2.4,MacIntel,100,5c4f839a37efdd000184e1df,64d2fd46c836a06233681665,64dc7c320557b9d21b127088,,,,,,,decisionTrl,resources/DY.BMP,resources/DBN.BMP,Door1,-0.236111111,-0.0390625,1,0,0,1.194,optionLeft,30,7370,4,11,0,11,0,1,,,,,,,,,,,,,,,,,,,,,,,,,,,,,,,,,,,,,,,
,,,,,,,,2023-08-16_08h35.45.912,HF_wild_card,2022.2.4,MacIntel,100,5c4f839a37efdd000184e1df,64d2fd46c836a06233681665,64dc7c320557b9d21b127088,,,,,,,sngl,resources/DB.BMP,resources/Empty.png,Door4,-0.2421875,-0.049479167,1,0,0,0.776,optionLeft,60,7430,4,12,0,12,0,1,,,,,,,,,,,,,,,,,,,,,,,,,,,,,,,,,,,,,,,
,,,,,,,,2023-08-16_08h35.45.912,HF_wild_card,2022.2.4,MacIntel,100,5c4f839a37efdd000184e1df,64d2fd46c836a06233681665,64dc7c320557b9d21b127088,,,,,,,decisionTrl,resources/DG.BMP,resources/DB.BMP,WildCard_Ex,-0.297743056,-0.040798611,1,0,0,2.102,optionLeft,5,7435,4,13,0,13,0,1,,,,,,,,,,,,,,,,,,,,,,,,,,,,,,,,,,,,,,,
,,,,,,,,2023-08-16_08h35.45.912,HF_wild_card,2022.2.4,MacIntel,100,5c4f839a37efdd000184e1df,64d2fd46c836a06233681665,64dc7c320557b9d21b127088,,,,,,,ctch,resources/DP.BMP,resources/DBN.BMP,Door3,-0.346354167,-0.085069444,1,0,0,0.933,optionLeft,70,7505,4,14,0,14,0,1,,,,,,,,,,,,,,,,,,,,,,,,,,,,,,,,,,,,,,,
,,,,,,,,2023-08-16_08h35.45.912,HF_wild_card,2022.2.4,MacIntel,100,5c4f839a37efdd000184e1df,64d2fd46c836a06233681665,64dc7c320557b9d21b127088,,,,,,,decisionTrl,resources/DG.BMP,resources/DBN.BMP,Door2,0.381944444,-0.061631944,1,0,0,1.194,optionRight,40,7545,4,15,0,15,0,1,,,,,,,,,,,,,,,,,,,,,,,,,,,,,,,,,,,,,,,
,,,,,,,,2023-08-16_08h35.45.912,HF_wild_card,2022.2.4,MacIntel,100,5c4f839a37efdd000184e1df,64d2fd46c836a06233681665,64dc7c320557b9d21b127088,,,,,,,decisionTrl,resources/DY.BMP,resources/DG.BMP,Door1,-0.302083333,-0.052951389,1,0,0,1.504,optionLeft,30,7575,4,16,0,16,0,1,,,,,,,,,,,,,,,,,,,,,,,,,,,,,,,,,,,,,,,
,,,,,,,,2023-08-16_08h35.45.912,HF_wild_card,2022.2.4,MacIntel,100,5c4f839a37efdd000184e1df,64d2fd46c836a06233681665,64dc7c320557b9d21b127088,,,,,,,decisionTrl,resources/DB.BMP,resources/DP.BMP,Door3,0.479166667,-0.053819444,1,0,0,1.93,optionRight,70,7645,4,17,0,17,0,1,,,,,,,,,,,,,,,,,,,,,,,,,,,,,,,,,,,,,,,
,,,,,,,,2023-08-16_08h35.45.912,HF_wild_card,2022.2.4,MacIntel,100,5c4f839a37efdd000184e1df,64d2fd46c836a06233681665,64dc7c320557b9d21b127088,,,,,,,decisionTrl,resources/DP.BMP,resources/DB.BMP,Door3,-0.316840278,-0.063368056,1,0,0,0.969,optionLeft,70,7715,4,18,0,18,0,1,,,,,,,,,,,,,,,,,,,,,,,,,,,,,,,,,,,,,,,
,,,,,,,,2023-08-16_08h35.45.912,HF_wild_card,2022.2.4,MacIntel,100,5c4f839a37efdd000184e1df,64d2fd46c836a06233681665,64dc7c320557b9d21b127088,,,,,,,sngl,resources/DP.BMP,resources/Empty.png,Door3,-0.321180556,-0.019097222,1,0,0,0.92,optionLeft,70,7785,4,19,0,19,0,1,,,,,,,,,,,,,,,,,,,,,,,,,,,,,,,,,,,,,,,
,,,,,,,,2023-08-16_08h35.45.912,HF_wild_card,2022.2.4,MacIntel,100,5c4f839a37efdd000184e1df,64d2fd46c836a06233681665,64dc7c320557b9d21b127088,,,,,,,sngl,resources/Empty.png,resources/DP.BMP,Door3,0.4296875,-0.051215278,1,0,0,1.02,optionRight,70,7855,4,20,0,20,0,1,,,,,,,,,,,,,,,,,,,,,,,,,,,,,,,,,,,,,,,
,,,,,,,,2023-08-16_08h35.45.912,HF_wild_card,2022.2.4,MacIntel,100,5c4f839a37efdd000184e1df,64d2fd46c836a06233681665,64dc7c320557b9d21b127088,,,,,,,ctch,resources/DP.BMP,resources/DBN.BMP,Door3,-0.407986111,-0.025173611,1,0,0,0.78,optionLeft,70,7925,4,21,0,21,0,1,,,,,,,,,,,,,,,,,,,,,,,,,,,,,,,,,,,,,,,
,,,,,,,,2023-08-16_08h35.45.912,HF_wild_card,2022.2.4,MacIntel,100,5c4f839a37efdd000184e1df,64d2fd46c836a06233681665,64dc7c320557b9d21b127088,,,,,,,decisionTrl,resources/DP.BMP,resources/DG.BMP,Door3,-0.224826389,-0.048611111,1,0,0,0.962,optionLeft,70,7995,4,22,0,22,0,1,,,,,,,,,,,,,,,,,,,,,,,,,,,,,,,,,,,,,,,
,,,,,,,,2023-08-16_08h35.45.912,HF_wild_card,2022.2.4,MacIntel,100,5c4f839a37efdd000184e1df,64d2fd46c836a06233681665,64dc7c320557b9d21b127088,,,,,,,decisionTrl,resources/DP.BMP,resources/DB.BMP,Door3,-0.254340278,-0.0625,1,0,0,0.82,optionLeft,70,8065,4,23,0,23,0,1,,,,,,,,,,,,,,,,,,,,,,,,,,,,,,,,,,,,,,,
,,,,,,,,2023-08-16_08h35.45.912,HF_wild_card,2022.2.4,MacIntel,100,5c4f839a37efdd000184e1df,64d2fd46c836a06233681665,64dc7c320557b9d21b127088,,,,,,,decisionTrl,resources/DP.BMP,resources/DB.BMP,Door4,0.302083333,-0.074652778,1,0,0,1.134,optionRight,80,8145,4,24,0,24,0,1,,,,,,,,,,,,,,,,,,,,,,,,,,,,,,,,,,,,,,,
,,,,,,,,2023-08-16_08h35.45.912,HF_wild_card,2022.2.4,MacIntel,100,5c4f839a37efdd000184e1df,64d2fd46c836a06233681665,64dc7c320557b9d21b127088,,,,,,,decisionTrl,resources/DY.BMP,resources/DBN.BMP,Door1,-0.315972222,-0.046006944,1,0,0,1.264,optionLeft,30,8175,4,25,0,25,0,1,,,,,,,,,,,,,,,,,,,,,,,,,,,,,,,,,,,,,,,
,,,,,,,,2023-08-16_08h35.45.912,HF_wild_card,2022.2.4,MacIntel,100,5c4f839a37efdd000184e1df,64d2fd46c836a06233681665,64dc7c320557b9d21b127088,,,,,,,ctch,resources/DB.BMP,resources/DY.BMP,Door4,-0.3125,-0.072048611,1,0,0,1.212,optionLeft,80,8255,4,26,0,26,0,1,,,,,,,,,,,,,,,,,,,,,,,,,,,,,,,,,,,,,,,
,,,,,,,,2023-08-16_08h35.45.912,HF_wild_card,2022.2.4,MacIntel,100,5c4f839a37efdd000184e1df,64d2fd46c836a06233681665,64dc7c320557b9d21b127088,,,,,,,sngl,resources/Empty.png,resources/DG.BMP,WildCard_Ex,0.308159722,-0.064236111,1,0,0,1.08,optionRight,95,8350,4,27,0,27,0,1,,,,,,,,,,,,,,,,,,,,,,,,,,,,,,,,,,,,,,,
,,,,,,,,2023-08-16_08h35.45.912,HF_wild_card,2022.2.4,MacIntel,100,5c4f839a37efdd000184e1df,64d2fd46c836a06233681665,64dc7c320557b9d21b127088,,,,,,,sngl,resources/DBN.BMP,resources/Empty.png,Door2,-0.4140625,-0.037326389,1,0,0,1.05,optionLeft,20,8370,4,28,0,28,0,1,,,,,,,,,,,,,,,,,,,,,,,,,,,,,,,,,,,,,,,
,,,,,,,,2023-08-16_08h35.45.912,HF_wild_card,2022.2.4,MacIntel,100,5c4f839a37efdd000184e1df,64d2fd46c836a06233681665,64dc7c320557b9d21b127088,,,,,,,ctch,resources/DB.BMP,resources/DY.BMP,Door4,-0.349826389,-0.045138889,1,0,0,1.59,optionLeft,80,8450,4,29,0,29,0,1,,,,,,,,,,,,,,,,,,,,,,,,,,,,,,,,,,,,,,,
,,,,,,,,2023-08-16_08h35.45.912,HF_wild_card,2022.2.4,MacIntel,100,5c4f839a37efdd000184e1df,64d2fd46c836a06233681665,64dc7c320557b9d21b127088,,,,,,,decisionTrl,resources/DP.BMP,resources/DB.BMP,Door4,0.393229167,-0.026909722,1,0,0,2.315,optionRight,60,8510,4,30,0,30,0,1,,,,,,,,,,,,,,,,,,,,,,,,,,,,,,,,,,,,,,,
,,,,,,,,2023-08-16_08h35.45.912,HF_wild_card,2022.2.4,MacIntel,100,5c4f839a37efdd000184e1df,64d2fd46c836a06233681665,64dc7c320557b9d21b127088,,,,,,,decisionTrl,resources/DB.BMP,resources/DG.BMP,WildCard_Ex,0.238715278,-0.0859375,1,0,0,1.055,optionRight,95,8605,4,31,0,31,0,1,,,,,,,,,,,,,,,,,,,,,,,,,,,,,,,,,,,,,,,
,,,,,,,,2023-08-16_08h35.45.912,HF_wild_card,2022.2.4,MacIntel,100,5c4f839a37efdd000184e1df,64d2fd46c836a06233681665,64dc7c320557b9d21b127088,,,,,,,sngl,resources/DG.BMP,resources/Empty.png,WildCard_Ex,-0.373263889,-0.026909722,1,0,0,0.783,optionLeft,95,8700,4,32,0,32,0,1,,,,,,,,,,,,,,,,,,,,,,,,,,,,,,,,,,,,,,,
,,,,,,,,2023-08-16_08h35.45.912,HF_wild_card,2022.2.4,MacIntel,100,5c4f839a37efdd000184e1df,64d2fd46c836a06233681665,64dc7c320557b9d21b127088,,,,,,,decisionTrl,resources/DB.BMP,resources/DP.BMP,Door3,0.401041667,-0.057291667,1,0,0,2.005,optionRight,70,8770,4,33,0,33,0,1,,,,,,,,,,,,,,,,,,,,,,,,,,,,,,,,,,,,,,,
,,,,,,,,2023-08-16_08h35.45.912,HF_wild_card,2022.2.4,MacIntel,100,5c4f839a37efdd000184e1df,64d2fd46c836a06233681665,64dc7c320557b9d21b127088,,,,,,,decisionTrl,resources/DBN.BMP,resources/DG.BMP,WildCard_Ex,0.355902778,-0.029513889,1,0,0,0.965,optionRight,95,8865,4,34,0,34,0,1,,,,,,,,,,,,,,,,,,,,,,,,,,,,,,,,,,,,,,,
,,,,,,,,2023-08-16_08h35.45.912,HF_wild_card,2022.2.4,MacIntel,100,5c4f839a37efdd000184e1df,64d2fd46c836a06233681665,64dc7c320557b9d21b127088,,,,,,,sngl,resources/DY.BMP,resources/Empty.png,Door1,-0.355902778,-0.044270833,1,0,0,0.986,optionLeft,30,8895,4,35,0,35,0,1,,,,,,,,,,,,,,,,,,,,,,,,,,,,,,,,,,,,,,,
,,,,,,,,2023-08-16_08h35.45.912,HF_wild_card,2022.2.4,MacIntel,100,5c4f839a37efdd000184e1df,64d2fd46c836a06233681665,64dc7c320557b9d21b127088,,,,,,,decisionTrl,resources/DB.BMP,resources/DP.BMP,Door3,0.358506944,-0.053819444,1,0,0,1.738,optionRight,70,8965,4,36,0,36,0,1,,,,,,,,,,,,,,,,,,,,,,,,,,,,,,,,,,,,,,,
,,,,,,,,2023-08-16_08h35.45.912,HF_wild_card,2022.2.4,MacIntel,100,5c4f839a37efdd000184e1df,64d2fd46c836a06233681665,64dc7c320557b9d21b127088,,,,,,,ctch,resources/DBN.BMP,resources/DP.BMP,Door3,0.383680556,-0.060763889,1,0,0,0.945,optionRight,70,9035,4,37,0,37,0,1,,,,,,,,,,,,,,,,,,,,,,,,,,,,,,,,,,,,,,,
,,,,,,,,2023-08-16_08h35.45.912,HF_wild_card,2022.2.4,MacIntel,100,5c4f839a37efdd000184e1df,64d2fd46c836a06233681665,64dc7c320557b9d21b127088,,,,,,,decisionTrl,resources/DG.BMP,resources/DP.BMP,WildCard_Ex,-0.418402778,0.001736111,1,0,0,2.376,optionLeft,5,9040,4,38,0,38,0,1,,,,,,,,,,,,,,,,,,,,,,,,,,,,,,,,,,,,,,,
,,,,,,,,2023-08-16_08h35.45.912,HF_wild_card,2022.2.4,MacIntel,100,5c4f839a37efdd000184e1df,64d2fd46c836a06233681665,64dc7c320557b9d21b127088,,,,,,,decisionTrl,resources/DBN.BMP,resources/DY.BMP,Door1,0.361111111,-0.040798611,1,0,0,1.115,optionRight,30,9070,4,39,0,39,0,1,,,,,,,,,,,,,,,,,,,,,,,,,,,,,,,,,,,,,,,
,,,,,,,,2023-08-16_08h35.45.912,HF_wild_card,2022.2.4,MacIntel,100,5c4f839a37efdd000184e1df,64d2fd46c836a06233681665,64dc7c320557b9d21b127088,,,,,,,decisionTrl,resources/DY.BMP,resources/DBN.BMP,Door1,-0.318576389,-0.032986111,1,0,0,1.2,optionLeft,30,9100,4,40,0,40,0,1,,,,,,,,,,,,,,,,,,,,,,,,,,,,,,,,,,,,,,,
,,,,,,,,2023-08-16_08h35.45.912,HF_wild_card,2022.2.4,MacIntel,100,5c4f839a37efdd000184e1df,64d2fd46c836a06233681665,64dc7c320557b9d21b127088,,,,,,,decisionTrl,resources/DG.BMP,resources/DY.BMP,WildCard_Ex,-0.307291667,-0.027777778,1,0,0,0.823,optionLeft,95,9195,4,41,0,41,0,1,,,,,,,,,,,,,,,,,,,,,,,,,,,,,,,,,,,,,,,
,,,,,,,,2023-08-16_08h35.45.912,HF_wild_card,2022.2.4,MacIntel,100,5c4f839a37efdd000184e1df,64d2fd46c836a06233681665,64dc7c320557b9d21b127088,,,,,,,sngl,resources/Empty.png,resources/DG.BMP,WildCard_Ex,0.385416667,-0.038194444,1,0,0,0.705,optionRight,5,9200,4,42,0,42,0,1,,,,,,,,,,,,,,,,,,,,,,,,,,,,,,,,,,,,,,,
,,,,,,,,2023-08-16_08h35.45.912,HF_wild_card,2022.2.4,MacIntel,100,5c4f839a37efdd000184e1df,64d2fd46c836a06233681665,64dc7c320557b9d21b127088,,,,,,,sngl,resources/DG.BMP,resources/Empty.png,WildCard_Ex,-0.341145833,-0.006944444,1,0,0,0.745,optionLeft,5,9205,4,43,0,43,0,1,,,,,,,,,,,,,,,,,,,,,,,,,,,,,,,,,,,,,,,
,,,,,,,,2023-08-16_08h35.45.912,HF_wild_card,2022.2.4,MacIntel,100,5c4f839a37efdd000184e1df,64d2fd46c836a06233681665,64dc7c320557b9d21b127088,,,,,,,,,,,,,,,,,,,,,,,,,,3,0,3,0,1,,,,,,,,,,,,,,,,,,,,,,,,,,,,,,,,,,
,,,,,,,,2023-08-16_08h35.45.912,HF_wild_card,2022.2.4,MacIntel,100,5c4f839a37efdd000184e1df,64d2fd46c836a06233681665,64dc7c320557b9d21b127088,,,,,,,sngl,resources/Empty.png,resources/DB.BMP,Door4,0.394965278,-0.094618056,1,0,0,0.9,optionRight,60,9265,5,0,0,0,0,1,,,,,,,,,,,,,,,,,,,,,,,,,,,,,,,,,,,,,,,
,,,,,,,,2023-08-16_08h35.45.912,HF_wild_card,2022.2.4,MacIntel,100,5c4f839a37efdd000184e1df,64d2fd46c836a06233681665,64dc7c320557b9d21b127088,,,,,,,sngl,resources/DG.BMP,resources/Empty.png,WildCard_Ex,-0.319444444,0.001736111,1,0,0,0.699,optionLeft,5,9270,5,1,0,1,0,1,,,,,,,,,,,,,,,,,,,,,,,,,,,,,,,,,,,,,,,
,,,,,,,,2023-08-16_08h35.45.912,HF_wild_card,2022.2.4,MacIntel,100,5c4f839a37efdd000184e1df,64d2fd46c836a06233681665,64dc7c320557b9d21b127088,,,,,,,decisionTrl,resources/DY.BMP,resources/DBN.BMP,Door1,-0.291666667,-0.049479167,1,0,0,1.08,optionLeft,30,9300,5,2,0,2,0,1,,,,,,,,,,,,,,,,,,,,,,,,,,,,,,,,,,,,,,,
,,,,,,,,2023-08-16_08h35.45.912,HF_wild_card,2022.2.4,MacIntel,100,5c4f839a37efdd000184e1df,64d2fd46c836a06233681665,64dc7c320557b9d21b127088,,,,,,,ctch,resources/DY.BMP,resources/DB.BMP,Door4,0.4375,-0.066840278,1,0,0,0.863,optionRight,60,9360,5,3,0,3,0,1,,,,,,,,,,,,,,,,,,,,,,,,,,,,,,,,,,,,,,,
,,,,,,,,2023-08-16_08h35.45.912,HF_wild_card,2022.2.4,MacIntel,100,5c4f839a37efdd000184e1df,64d2fd46c836a06233681665,64dc7c320557b9d21b127088,,,,,,,sngl,resources/DBN.BMP,resources/Empty.png,Door2,-0.416666667,-0.045138889,1,0,0,0.766,optionLeft,40,9400,5,4,0,4,0,1,,,,,,,,,,,,,,,,,,,,,,,,,,,,,,,,,,,,,,,
,,,,,,,,2023-08-16_08h35.45.912,HF_wild_card,2022.2.4,MacIntel,100,5c4f839a37efdd000184e1df,64d2fd46c836a06233681665,64dc7c320557b9d21b127088,,,,,,,decisionTrl,resources/DY.BMP,resources/DG.BMP,WildCard_Ex,0.333333333,-0.034722222,1,0,0,0.772,optionRight,95,9495,5,5,0,5,0,1,,,,,,,,,,,,,,,,,,,,,,,,,,,,,,,,,,,,,,,
,,,,,,,,2023-08-16_08h35.45.912,HF_wild_card,2022.2.4,MacIntel,100,5c4f839a37efdd000184e1df,64d2fd46c836a06233681665,64dc7c320557b9d21b127088,,,,,,,sngl,resources/Empty.png,resources/DY.BMP,Door1,0.309027778,-0.068576389,1,0,0,0.788,optionRight,30,9525,5,6,0,6,0,1,,,,,,,,,,,,,,,,,,,,,,,,,,,,,,,,,,,,,,,
,,,,,,,,2023-08-16_08h35.45.912,HF_wild_card,2022.2.4,MacIntel,100,5c4f839a37efdd000184e1df,64d2fd46c836a06233681665,64dc7c320557b9d21b127088,,,,,,,decisionTrl,resources/DG.BMP,resources/DP.BMP,WildCard_Ex,-0.314236111,-0.012152778,1,0,0,0.8,optionLeft,5,9530,5,7,0,7,0,1,,,,,,,,,,,,,,,,,,,,,,,,,,,,,,,,,,,,,,,
,,,,,,,,2023-08-16_08h35.45.912,HF_wild_card,2022.2.4,MacIntel,100,5c4f839a37efdd000184e1df,64d2fd46c836a06233681665,64dc7c320557b9d21b127088,,,,,,,decisionTrl,resources/DBN.BMP,resources/DG.BMP,WildCard_Ex,0.442708333,-0.021701389,1,0,0,0.78,optionRight,5,9535,5,8,0,8,0,1,,,,,,,,,,,,,,,,,,,,,,,,,,,,,,,,,,,,,,,
,,,,,,,,2023-08-16_08h35.45.912,HF_wild_card,2022.2.4,MacIntel,100,5c4f839a37efdd000184e1df,64d2fd46c836a06233681665,64dc7c320557b9d21b127088,,,,,,,decisionTrl,resources/DG.BMP,resources/DY.BMP,WildCard_Ex,-0.337673611,-0.004340278,1,0,0,0.71,optionLeft,95,9630,5,9,0,9,0,1,,,,,,,,,,,,,,,,,,,,,,,,,,,,,,,,,,,,,,,
,,,,,,,,2023-08-16_08h35.45.912,HF_wild_card,2022.2.4,MacIntel,100,5c4f839a37efdd000184e1df,64d2fd46c836a06233681665,64dc7c320557b9d21b127088,,,,,,,ctch,resources/DY.BMP,resources/DB.BMP,Door4,0.349826389,-0.013888889,1,0,0,0.959,optionRight,60,9690,5,10,0,10,0,1,,,,,,,,,,,,,,,,,,,,,,,,,,,,,,,,,,,,,,,
,,,,,,,,2023-08-16_08h35.45.912,HF_wild_card,2022.2.4,MacIntel,100,5c4f839a37efdd000184e1df,64d2fd46c836a06233681665,64dc7c320557b9d21b127088,,,,,,,decisionTrl,resources/DB.BMP,resources/DP.BMP,Door3,0.379340278,-0.036458333,1,0,0,1.053,optionRight,70,9760,5,11,0,11,0,1,,,,,,,,,,,,,,,,,,,,,,,,,,,,,,,,,,,,,,,
,,,,,,,,2023-08-16_08h35.45.912,HF_wild_card,2022.2.4,MacIntel,100,5c4f839a37efdd000184e1df,64d2fd46c836a06233681665,64dc7c320557b9d21b127088,,,,,,,decisionTrl,resources/DB.BMP,resources/DP.BMP,Door3,0.240451389,-0.050347222,1,0,0,0.797,optionRight,70,9830,5,12,0,12,0,1,,,,,,,,,,,,,,,,,,,,,,,,,,,,,,,,,,,,,,,
,,,,,,,,2023-08-16_08h35.45.912,HF_wild_card,2022.2.4,MacIntel,100,5c4f839a37efdd000184e1df,64d2fd46c836a06233681665,64dc7c320557b9d21b127088,,,,,,,sngl,resources/Empty.png,resources/DP.BMP,Door3,0.254340278,-0.064236111,1,0,0,0.749,optionRight,70,9900,5,13,0,13,0,1,,,,,,,,,,,,,,,,,,,,,,,,,,,,,,,,,,,,,,,
,,,,,,,,2023-08-16_08h35.45.912,HF_wild_card,2022.2.4,MacIntel,100,5c4f839a37efdd000184e1df,64d2fd46c836a06233681665,64dc7c320557b9d21b127088,,,,,,,decisionTrl,resources/DP.BMP,resources/DB.BMP,Door3,-0.292534722,-0.050347222,1,0,0,0.801,optionLeft,70,9970,5,14,0,14,0,1,,,,,,,,,,,,,,,,,,,,,,,,,,,,,,,,,,,,,,,
,,,,,,,,2023-08-16_08h35.45.912,HF_wild_card,2022.2.4,MacIntel,100,5c4f839a37efdd000184e1df,64d2fd46c836a06233681665,64dc7c320557b9d21b127088,,,,,,,ctch,resources/DB.BMP,resources/DY.BMP,Door4,-0.295138889,-0.019965278,1,0,0,0.846,optionLeft,60,10030,5,15,0,15,0,1,,,,,,,,,,,,,,,,,,,,,,,,,,,,,,,,,,,,,,,
,,,,,,,,2023-08-16_08h35.45.912,HF_wild_card,2022.2.4,MacIntel,100,5c4f839a37efdd000184e1df,64d2fd46c836a06233681665,64dc7c320557b9d21b127088,,,,,,,decisionTrl,resources/DB.BMP,resources/DG.BMP,WildCard_Ex,0.436631944,-0.048611111,1,0,0,0.831,optionRight,5,10035,5,16,0,16,0,1,,,,,,,,,,,,,,,,,,,,,,,,,,,,,,,,,,,,,,,
,,,,,,,,2023-08-16_08h35.45.912,HF_wild_card,2022.2.4,MacIntel,100,5c4f839a37efdd000184e1df,64d2fd46c836a06233681665,64dc7c320557b9d21b127088,,,,,,,decisionTrl,resources/DY.BMP,resources/DBN.BMP,Door1,-0.390625,-0.043402778,1,0,0,0.758,optionLeft,30,10065,5,17,0,17,0,1,,,,,,,,,,,,,,,,,,,,,,,,,,,,,,,,,,,,,,,
,,,,,,,,2023-08-16_08h35.45.912,HF_wild_card,2022.2.4,MacIntel,100,5c4f839a37efdd000184e1df,64d2fd46c836a06233681665,64dc7c320557b9d21b127088,,,,,,,ctch,resources/DP.BMP,resources/DBN.BMP,Door3,-0.263020833,-0.042534722,1,0,0,0.914,optionLeft,70,10135,5,18,0,18,0,1,,,,,,,,,,,,,,,,,,,,,,,,,,,,,,,,,,,,,,,
,,,,,,,,2023-08-16_08h35.45.912,HF_wild_card,2022.2.4,MacIntel,100,5c4f839a37efdd000184e1df,64d2fd46c836a06233681665,64dc7c320557b9d21b127088,,,,,,,ctch,resources/DBN.BMP,resources/DP.BMP,Door3,0.433159722,-0.052083333,1,0,0,1.384,optionRight,70,10205,5,19,0,19,0,1,,,,,,,,,,,,,,,,,,,,,,,,,,,,,,,,,,,,,,,
,,,,,,,,2023-08-16_08h35.45.912,HF_wild_card,2022.2.4,MacIntel,100,5c4f839a37efdd000184e1df,64d2fd46c836a06233681665,64dc7c320557b9d21b127088,,,,,,,sngl,resources/Empty.png,resources/DG.BMP,WildCard_Ex,0.328125,-0.043402778,1,0,0,0.756,optionRight,95,10300,5,20,0,20,0,1,,,,,,,,,,,,,,,,,,,,,,,,,,,,,,,,,,,,,,,
,,,,,,,,2023-08-16_08h35.45.912,HF_wild_card,2022.2.4,MacIntel,100,5c4f839a37efdd000184e1df,64d2fd46c836a06233681665,64dc7c320557b9d21b127088,,,,,,,decisionTrl,resources/DB.BMP,resources/DP.BMP,Door4,-0.292534722,-0.053819444,1,0,0,1.78,optionLeft,80,10380,5,21,0,21,0,1,,,,,,,,,,,,,,,,,,,,,,,,,,,,,,,,,,,,,,,
,,,,,,,,2023-08-16_08h35.45.912,HF_wild_card,2022.2.4,MacIntel,100,5c4f839a37efdd000184e1df,64d2fd46c836a06233681665,64dc7c320557b9d21b127088,,,,,,,decisionTrl,resources/DY.BMP,resources/DBN.BMP,Door1,-0.284722222,-0.034722222,1,0,0,0.993,optionLeft,30,10410,5,22,0,22,0,1,,,,,,,,,,,,,,,,,,,,,,,,,,,,,,,,,,,,,,,
,,,,,,,,2023-08-16_08h35.45.912,HF_wild_card,2022.2.4,MacIntel,100,5c4f839a37efdd000184e1df,64d2fd46c836a06233681665,64dc7c320557b9d21b127088,,,,,,,decisionTrl,resources/DY.BMP,resources/DBN.BMP,Door1,-0.302951389,-0.035590278,1,0,0,0.835,optionLeft,30,10440,5,23,0,23,0,1,,,,,,,,,,,,,,,,,,,,,,,,,,,,,,,,,,,,,,,
,,,,,,,,2023-08-16_08h35.45.912,HF_wild_card,2022.2.4,MacIntel,100,5c4f839a37efdd000184e1df,64d2fd46c836a06233681665,64dc7c320557b9d21b127088,,,,,,,decisionTrl,resources/DB.BMP,resources/DP.BMP,Door4,-0.328125,-0.034722222,1,0,0,1.189,optionLeft,80,10520,5,24,0,24,0,1,,,,,,,,,,,,,,,,,,,,,,,,,,,,,,,,,,,,,,,
,,,,,,,,2023-08-16_08h35.45.912,HF_wild_card,2022.2.4,MacIntel,100,5c4f839a37efdd000184e1df,64d2fd46c836a06233681665,64dc7c320557b9d21b127088,,,,,,,decisionTrl,resources/DG.BMP,resources/DBN.BMP,WildCard_Ex,-0.212673611,-0.037326389,1,0,0,0.858,optionLeft,5,10525,5,25,0,25,0,1,,,,,,,,,,,,,,,,,,,,,,,,,,,,,,,,,,,,,,,
,,,,,,,,2023-08-16_08h35.45.912,HF_wild_card,2022.2.4,MacIntel,100,5c4f839a37efdd000184e1df,64d2fd46c836a06233681665,64dc7c320557b9d21b127088,,,,,,,decisionTrl,resources/DBN.BMP,resources/DY.BMP,Door1,0.407986111,-0.061631944,1,0,0,1.086,optionRight,30,10555,5,26,0,26,0,1,,,,,,,,,,,,,,,,,,,,,,,,,,,,,,,,,,,,,,,
,,,,,,,,2023-08-16_08h35.45.912,HF_wild_card,2022.2.4,MacIntel,100,5c4f839a37efdd000184e1df,64d2fd46c836a06233681665,64dc7c320557b9d21b127088,,,,,,,decisionTrl,resources/DP.BMP,resources/DG.BMP,WildCard_Ex,0.4140625,-0.0546875,1,0,0,1.464,optionRight,5,10560,5,27,0,27,0,1,,,,,,,,,,,,,,,,,,,,,,,,,,,,,,,,,,,,,,,
,,,,,,,,2023-08-16_08h35.45.912,HF_wild_card,2022.2.4,MacIntel,100,5c4f839a37efdd000184e1df,64d2fd46c836a06233681665,64dc7c320557b9d21b127088,,,,,,,decisionTrl,resources/DBN.BMP,resources/DY.BMP,Door1,0.334201389,-0.078993056,1,0,0,0.831,optionRight,30,10590,5,28,0,28,0,1,,,,,,,,,,,,,,,,,,,,,,,,,,,,,,,,,,,,,,,
,,,,,,,,2023-08-16_08h35.45.912,HF_wild_card,2022.2.4,MacIntel,100,5c4f839a37efdd000184e1df,64d2fd46c836a06233681665,64dc7c320557b9d21b127088,,,,,,,ctch,resources/DP.BMP,resources/DBN.BMP,Door3,-0.321180556,-0.0390625,1,0,0,1.464,optionLeft,70,10660,5,29,0,29,0,1,,,,,,,,,,,,,,,,,,,,,,,,,,,,,,,,,,,,,,,
,,,,,,,,2023-08-16_08h35.45.912,HF_wild_card,2022.2.4,MacIntel,100,5c4f839a37efdd000184e1df,64d2fd46c836a06233681665,64dc7c320557b9d21b127088,,,,,,,decisionTrl,resources/DBN.BMP,resources/DY.BMP,Door1,0.427951389,-0.033854167,1,0,0,0.867,optionRight,30,10690,5,30,0,30,0,1,,,,,,,,,,,,,,,,,,,,,,,,,,,,,,,,,,,,,,,
,,,,,,,,2023-08-16_08h35.45.912,HF_wild_card,2022.2.4,MacIntel,100,5c4f839a37efdd000184e1df,64d2fd46c836a06233681665,64dc7c320557b9d21b127088,,,,,,,sngl,resources/DG.BMP,resources/Empty.png,WildCard_Ex,-0.329861111,-0.014756944,1,0,0,0.762,optionLeft,95,10785,5,31,0,31,0,1,,,,,,,,,,,,,,,,,,,,,,,,,,,,,,,,,,,,,,,
,,,,,,,,2023-08-16_08h35.45.912,HF_wild_card,2022.2.4,MacIntel,100,5c4f839a37efdd000184e1df,64d2fd46c836a06233681665,64dc7c320557b9d21b127088,,,,,,,decisionTrl,resources/DG.BMP,resources/DB.BMP,Door4,0.503472222,-0.029513889,1,0,0,1.04,optionRight,60,10845,5,32,0,32,0,1,,,,,,,,,,,,,,,,,,,,,,,,,,,,,,,,,,,,,,,
,,,,,,,,2023-08-16_08h35.45.912,HF_wild_card,2022.2.4,MacIntel,100,5c4f839a37efdd000184e1df,64d2fd46c836a06233681665,64dc7c320557b9d21b127088,,,,,,,ctch,resources/DB.BMP,resources/DY.BMP,Door4,-0.373263889,-0.048611111,1,0,0,0.92,optionLeft,80,10925,5,33,0,33,0,1,,,,,,,,,,,,,,,,,,,,,,,,,,,,,,,,,,,,,,,
,,,,,,,,2023-08-16_08h35.45.912,HF_wild_card,2022.2.4,MacIntel,100,5c4f839a37efdd000184e1df,64d2fd46c836a06233681665,64dc7c320557b9d21b127088,,,,,,,sngl,resources/DP.BMP,resources/Empty.png,Door3,-0.302083333,-0.032986111,1,0,0,0.874,optionLeft,70,10995,5,34,0,34,0,1,,,,,,,,,,,,,,,,,,,,,,,,,,,,,,,,,,,,,,,
,,,,,,,,2023-08-16_08h35.45.912,HF_wild_card,2022.2.4,MacIntel,100,5c4f839a37efdd000184e1df,64d2fd46c836a06233681665,64dc7c320557b9d21b127088,,,,,,,sngl,resources/DB.BMP,resources/Empty.png,Door4,-0.369791667,-0.020833333,1,0,0,0.787,optionLeft,80,11075,5,35,0,35,0,1,,,,,,,,,,,,,,,,,,,,,,,,,,,,,,,,,,,,,,,
,,,,,,,,2023-08-16_08h35.45.912,HF_wild_card,2022.2.4,MacIntel,100,5c4f839a37efdd000184e1df,64d2fd46c836a06233681665,64dc7c320557b9d21b127088,,,,,,,decisionTrl,resources/DBN.BMP,resources/DY.BMP,Door1,0.435763889,-0.030381944,1,0,0,0.789,optionRight,30,11105,5,36,0,36,0,1,,,,,,,,,,,,,,,,,,,,,,,,,,,,,,,,,,,,,,,
,,,,,,,,2023-08-16_08h35.45.912,HF_wild_card,2022.2.4,MacIntel,100,5c4f839a37efdd000184e1df,64d2fd46c836a06233681665,64dc7c320557b9d21b127088,,,,,,,sngl,resources/DY.BMP,resources/Empty.png,Door1,-0.292534722,-0.042534722,1,0,0,0.735,optionLeft,30,11135,5,37,0,37,0,1,,,,,,,,,,,,,,,,,,,,,,,,,,,,,,,,,,,,,,,
,,,,,,,,2023-08-16_08h35.45.912,HF_wild_card,2022.2.4,MacIntel,100,5c4f839a37efdd000184e1df,64d2fd46c836a06233681665,64dc7c320557b9d21b127088,,,,,,,sngl,resources/Empty.png,resources/DG.BMP,WildCard_Ex,0.337673611,-0.03125,1,0,0,0.763,optionRight,5,11140,5,38,0,38,0,1,,,,,,,,,,,,,,,,,,,,,,,,,,,,,,,,,,,,,,,
,,,,,,,,2023-08-16_08h35.45.912,HF_wild_card,2022.2.4,MacIntel,100,5c4f839a37efdd000184e1df,64d2fd46c836a06233681665,64dc7c320557b9d21b127088,,,,,,,decisionTrl,resources/DP.BMP,resources/DB.BMP,Door4,0.462673611,0.0078125,1,0,0,1.481,optionRight,80,11220,5,39,0,39,0,1,,,,,,,,,,,,,,,,,,,,,,,,,,,,,,,,,,,,,,,
,,,,,,,,2023-08-16_08h35.45.912,HF_wild_card,2022.2.4,MacIntel,100,5c4f839a37efdd000184e1df,64d2fd46c836a06233681665,64dc7c320557b9d21b127088,,,,,,,ctch,resources/DBN.BMP,resources/DP.BMP,Door3,0.332465278,-0.026909722,1,0,0,0.782,optionRight,70,11290,5,40,0,40,0,1,,,,,,,,,,,,,,,,,,,,,,,,,,,,,,,,,,,,,,,
,,,,,,,,2023-08-16_08h35.45.912,HF_wild_card,2022.2.4,MacIntel,100,5c4f839a37efdd000184e1df,64d2fd46c836a06233681665,64dc7c320557b9d21b127088,,,,,,,decisionTrl,resources/DP.BMP,resources/DB.BMP,Door4,0.434027778,-0.034722222,1,0,0,0.783,optionRight,60,11350,5,41,0,41,0,1,,,,,,,,,,,,,,,,,,,,,,,,,,,,,,,,,,,,,,,
,,,,,,,,2023-08-16_08h35.45.912,HF_wild_card,2022.2.4,MacIntel,100,5c4f839a37efdd000184e1df,64d2fd46c836a06233681665,64dc7c320557b9d21b127088,,,,,,,sngl,resources/Empty.png,resources/DBN.BMP,Door2,0.440972222,-0.048611111,1,0,0,0.746,optionRight,20,11370,5,42,0,42,0,1,,,,,,,,,,,,,,,,,,,,,,,,,,,,,,,,,,,,,,,
,,,,,,,,2023-08-16_08h35.45.912,HF_wild_card,2022.2.4,MacIntel,100,5c4f839a37efdd000184e1df,64d2fd46c836a06233681665,64dc7c320557b9d21b127088,,,,,,,decisionTrl,resources/DP.BMP,resources/DB.BMP,Door4,0.344618056,-0.048611111,1,0,0,0.859,optionRight,60,11430,5,43,0,43,0,1,,,,,,,,,,,,,,,,,,,,,,,,,,,,,,,,,,,,,,,
,,,,,,,,2023-08-16_08h35.45.912,HF_wild_card,2022.2.4,MacIntel,100,5c4f839a37efdd000184e1df,64d2fd46c836a06233681665,64dc7c320557b9d21b127088,,,,,,,,,,,,,,,,,,,,,,,,,,4,0,4,0,1,,,,,,,,,,,,,,,,,,,,,,,,,,,,,,,,,,
,,,,,,,,2023-08-16_08h35.45.912,HF_wild_card,2022.2.4,MacIntel,100,5c4f839a37efdd000184e1df,64d2fd46c836a06233681665,64dc7c320557b9d21b127088,,,,,,,decisionTrl,resources/DBN.BMP,resources/DY.BMP,Door1,0.379340278,-0.061631944,1,0,0,1.142,optionRight,30,11460,6,0,0,0,0,1,,,,,,,,,,,,,,,,,,,,,,,,,,,,,,,,,,,,,,,
,,,,,,,,2023-08-16_08h35.45.912,HF_wild_card,2022.2.4,MacIntel,100,5c4f839a37efdd000184e1df,64d2fd46c836a06233681665,64dc7c320557b9d21b127088,,,,,,,ctch,resources/DB.BMP,resources/DY.BMP,Door4,-0.300347222,-0.082465278,1,0,0,0.835,optionLeft,60,11520,6,1,0,1,0,1,,,,,,,,,,,,,,,,,,,,,,,,,,,,,,,,,,,,,,,
,,,,,,,,2023-08-16_08h35.45.912,HF_wild_card,2022.2.4,MacIntel,100,5c4f839a37efdd000184e1df,64d2fd46c836a06233681665,64dc7c320557b9d21b127088,,,,,,,decisionTrl,resources/DB.BMP,resources/DP.BMP,Door3,0.301215278,-0.0234375,1,0,0,1.405,optionRight,70,11590,6,2,0,2,0,1,,,,,,,,,,,,,,,,,,,,,,,,,,,,,,,,,,,,,,,
,,,,,,,,2023-08-16_08h35.45.912,HF_wild_card,2022.2.4,MacIntel,100,5c4f839a37efdd000184e1df,64d2fd46c836a06233681665,64dc7c320557b9d21b127088,,,,,,,decisionTrl,resources/DY.BMP,resources/DBN.BMP,Door1,-0.328125,-0.085069444,1,0,0,0.8,optionLeft,30,11620,6,3,0,3,0,1,,,,,,,,,,,,,,,,,,,,,,,,,,,,,,,,,,,,,,,
,,,,,,,,2023-08-16_08h35.45.912,HF_wild_card,2022.2.4,MacIntel,100,5c4f839a37efdd000184e1df,64d2fd46c836a06233681665,64dc7c320557b9d21b127088,,,,,,,decisionTrl,resources/DG.BMP,resources/DB.BMP,Door4,0.401909722,-0.006944444,1,0,0,0.858,optionRight,80,11700,6,4,0,4,0,1,,,,,,,,,,,,,,,,,,,,,,,,,,,,,,,,,,,,,,,
,,,,,,,,2023-08-16_08h35.45.912,HF_wild_card,2022.2.4,MacIntel,100,5c4f839a37efdd000184e1df,64d2fd46c836a06233681665,64dc7c320557b9d21b127088,,,,,,,decisionTrl,resources/DP.BMP,resources/DB.BMP,Door4,0.368923611,-0.036458333,1,0,0,0.852,optionRight,60,11760,6,5,0,5,0,1,,,,,,,,,,,,,,,,,,,,,,,,,,,,,,,,,,,,,,,
,,,,,,,,2023-08-16_08h35.45.912,HF_wild_card,2022.2.4,MacIntel,100,5c4f839a37efdd000184e1df,64d2fd46c836a06233681665,64dc7c320557b9d21b127088,,,,,,,decisionTrl,resources/DY.BMP,resources/DG.BMP,WildCard_Ex,0.331597222,-0.049479167,1,0,0,1.246,optionRight,5,11765,6,6,0,6,0,1,,,,,,,,,,,,,,,,,,,,,,,,,,,,,,,,,,,,,,,
,,,,,,,,2023-08-16_08h35.45.912,HF_wild_card,2022.2.4,MacIntel,100,5c4f839a37efdd000184e1df,64d2fd46c836a06233681665,64dc7c320557b9d21b127088,,,,,,,decisionTrl,resources/DG.BMP,resources/DBN.BMP,WildCard_Ex,-0.310763889,-0.046006944,1,0,0,0.763,optionLeft,5,11770,6,7,0,7,0,1,,,,,,,,,,,,,,,,,,,,,,,,,,,,,,,,,,,,,,,
,,,,,,,,2023-08-16_08h35.45.912,HF_wild_card,2022.2.4,MacIntel,100,5c4f839a37efdd000184e1df,64d2fd46c836a06233681665,64dc7c320557b9d21b127088,,,,,,,decisionTrl,resources/DBN.BMP,resources/DY.BMP,Door1,0.364583333,-0.059027778,1,0,0,1.102,optionRight,30,11800,6,8,0,8,0,1,,,,,,,,,,,,,,,,,,,,,,,,,,,,,,,,,,,,,,,
,,,,,,,,2023-08-16_08h35.45.912,HF_wild_card,2022.2.4,MacIntel,100,5c4f839a37efdd000184e1df,64d2fd46c836a06233681665,64dc7c320557b9d21b127088,,,,,,,sngl,resources/DBN.BMP,resources/Empty.png,Door2,-0.375868056,-0.042534722,1,0,0,0.741,optionLeft,20,11820,6,9,0,9,0,1,,,,,,,,,,,,,,,,,,,,,,,,,,,,,,,,,,,,,,,
,,,,,,,,2023-08-16_08h35.45.912,HF_wild_card,2022.2.4,MacIntel,100,5c4f839a37efdd000184e1df,64d2fd46c836a06233681665,64dc7c320557b9d21b127088,,,,,,,sngl,resources/DG.BMP,resources/Empty.png,WildCard_Ex,-0.313368056,-0.025173611,1,0,0,0.705,optionLeft,5,11825,6,10,0,10,0,1,,,,,,,,,,,,,,,,,,,,,,,,,,,,,,,,,,,,,,,
,,,,,,,,2023-08-16_08h35.45.912,HF_wild_card,2022.2.4,MacIntel,100,5c4f839a37efdd000184e1df,64d2fd46c836a06233681665,64dc7c320557b9d21b127088,,,,,,,sngl,resources/Empty.png,resources/DB.BMP,Door4,0.415798611,-0.051215278,1,0,0,0.756,optionRight,80,11905,6,11,0,11,0,1,,,,,,,,,,,,,,,,,,,,,,,,,,,,,,,,,,,,,,,
,,,,,,,,2023-08-16_08h35.45.912,HF_wild_card,2022.2.4,MacIntel,100,5c4f839a37efdd000184e1df,64d2fd46c836a06233681665,64dc7c320557b9d21b127088,,,,,,,ctch,resources/DBN.BMP,resources/DP.BMP,Door3,0.319444444,-0.092013889,1,0,0,0.86,optionRight,70,11975,6,12,0,12,0,1,,,,,,,,,,,,,,,,,,,,,,,,,,,,,,,,,,,,,,,
,,,,,,,,2023-08-16_08h35.45.912,HF_wild_card,2022.2.4,MacIntel,100,5c4f839a37efdd000184e1df,64d2fd46c836a06233681665,64dc7c320557b9d21b127088,,,,,,,decisionTrl,resources/DY.BMP,resources/DBN.BMP,Door1,-0.350694444,-0.064236111,1,0,0,0.954,optionLeft,30,12005,6,13,0,13,0,1,,,,,,,,,,,,,,,,,,,,,,,,,,,,,,,,,,,,,,,
,,,,,,,,2023-08-16_08h35.45.912,HF_wild_card,2022.2.4,MacIntel,100,5c4f839a37efdd000184e1df,64d2fd46c836a06233681665,64dc7c320557b9d21b127088,,,,,,,decisionTrl,resources/DBN.BMP,resources/DG.BMP,WildCard_Ex,0.3984375,-0.019965278,1,0,0,0.739,optionRight,95,12100,6,14,0,14,0,1,,,,,,,,,,,,,,,,,,,,,,,,,,,,,,,,,,,,,,,
,,,,,,,,2023-08-16_08h35.45.912,HF_wild_card,2022.2.4,MacIntel,100,5c4f839a37efdd000184e1df,64d2fd46c836a06233681665,64dc7c320557b9d21b127088,,,,,,,sngl,resources/Empty.png,resources/DY.BMP,Door1,0.341145833,-0.066840278,1,0,0,1.017,optionRight,30,12130,6,15,0,15,0,1,,,,,,,,,,,,,,,,,,,,,,,,,,,,,,,,,,,,,,,
,,,,,,,,2023-08-16_08h35.45.912,HF_wild_card,2022.2.4,MacIntel,100,5c4f839a37efdd000184e1df,64d2fd46c836a06233681665,64dc7c320557b9d21b127088,,,,,,,decisionTrl,resources/DY.BMP,resources/DBN.BMP,Door1,-0.3046875,-0.037326389,1,0,0,0.728,optionLeft,30,12160,6,16,0,16,0,1,,,,,,,,,,,,,,,,,,,,,,,,,,,,,,,,,,,,,,,
,,,,,,,,2023-08-16_08h35.45.912,HF_wild_card,2022.2.4,MacIntel,100,5c4f839a37efdd000184e1df,64d2fd46c836a06233681665,64dc7c320557b9d21b127088,,,,,,,decisionTrl,resources/DP.BMP,resources/DB.BMP,Door4,0.3671875,-0.006076389,1,0,0,1.494,optionRight,60,12220,6,17,0,17,0,1,,,,,,,,,,,,,,,,,,,,,,,,,,,,,,,,,,,,,,,
,,,,,,,,2023-08-16_08h35.45.912,HF_wild_card,2022.2.4,MacIntel,100,5c4f839a37efdd000184e1df,64d2fd46c836a06233681665,64dc7c320557b9d21b127088,,,,,,,decisionTrl,resources/DP.BMP,resources/DB.BMP,Door4,0.349826389,-0.074652778,1,0,0,0.79,optionRight,80,12300,6,18,0,18,0,1,,,,,,,,,,,,,,,,,,,,,,,,,,,,,,,,,,,,,,,
,,,,,,,,2023-08-16_08h35.45.912,HF_wild_card,2022.2.4,MacIntel,100,5c4f839a37efdd000184e1df,64d2fd46c836a06233681665,64dc7c320557b9d21b127088,,,,,,,ctch,resources/DBN.BMP,resources/DP.BMP,Door3,0.269965278,-0.034722222,1,0,0,0.803,optionRight,70,12370,6,19,0,19,0,1,,,,,,,,,,,,,,,,,,,,,,,,,,,,,,,,,,,,,,,
,,,,,,,,2023-08-16_08h35.45.912,HF_wild_card,2022.2.4,MacIntel,100,5c4f839a37efdd000184e1df,64d2fd46c836a06233681665,64dc7c320557b9d21b127088,,,,,,,ctch,resources/DY.BMP,resources/DB.BMP,Door4,0.301215278,-0.030381944,1,0,0,0.712,optionRight,80,12450,6,20,0,20,0,1,,,,,,,,,,,,,,,,,,,,,,,,,,,,,,,,,,,,,,,
,,,,,,,,2023-08-16_08h35.45.912,HF_wild_card,2022.2.4,MacIntel,100,5c4f839a37efdd000184e1df,64d2fd46c836a06233681665,64dc7c320557b9d21b127088,,,,,,,decisionTrl,resources/DP.BMP,resources/DG.BMP,Door3,-0.342881944,-0.106770833,1,0,0,1.715,optionLeft,70,12520,6,21,0,21,0,1,,,,,,,,,,,,,,,,,,,,,,,,,,,,,,,,,,,,,,,
,,,,,,,,2023-08-16_08h35.45.912,HF_wild_card,2022.2.4,MacIntel,100,5c4f839a37efdd000184e1df,64d2fd46c836a06233681665,64dc7c320557b9d21b127088,,,,,,,decisionTrl,resources/DG.BMP,resources/DP.BMP,Door3,0.354166667,-0.033854167,1,0,0,1.114,optionRight,70,12590,6,22,0,22,0,1,,,,,,,,,,,,,,,,,,,,,,,,,,,,,,,,,,,,,,,
,,,,,,,,2023-08-16_08h35.45.912,HF_wild_card,2022.2.4,MacIntel,100,5c4f839a37efdd000184e1df,64d2fd46c836a06233681665,64dc7c320557b9d21b127088,,,,,,,sngl,resources/DB.BMP,resources/Empty.png,Door4,-0.387152778,-0.036458333,1,0,0,0.762,optionLeft,60,12650,6,23,0,23,0,1,,,,,,,,,,,,,,,,,,,,,,,,,,,,,,,,,,,,,,,
,,,,,,,,2023-08-16_08h35.45.912,HF_wild_card,2022.2.4,MacIntel,100,5c4f839a37efdd000184e1df,64d2fd46c836a06233681665,64dc7c320557b9d21b127088,,,,,,,decisionTrl,resources/DY.BMP,resources/DBN.BMP,Door1,-0.315104167,-0.050347222,1,0,0,0.788,optionLeft,30,12680,6,24,0,24,0,1,,,,,,,,,,,,,,,,,,,,,,,,,,,,,,,,,,,,,,,
,,,,,,,,2023-08-16_08h35.45.912,HF_wild_card,2022.2.4,MacIntel,100,5c4f839a37efdd000184e1df,64d2fd46c836a06233681665,64dc7c320557b9d21b127088,,,,,,,sngl,resources/DY.BMP,resources/Empty.png,Door1,-0.286458333,-0.052951389,1,0,0,1.543,optionLeft,30,12710,6,25,0,25,0,1,,,,,,,,,,,,,,,,,,,,,,,,,,,,,,,,,,,,,,,
,,,,,,,,2023-08-16_08h35.45.912,HF_wild_card,2022.2.4,MacIntel,100,5c4f839a37efdd000184e1df,64d2fd46c836a06233681665,64dc7c320557b9d21b127088,,,,,,,sngl,resources/Empty.png,resources/DG.BMP,WildCard_Ex,0.473958333,-0.019965278,1,0,0,1.049,optionRight,95,12805,6,26,0,26,0,1,,,,,,,,,,,,,,,,,,,,,,,,,,,,,,,,,,,,,,,
,,,,,,,,2023-08-16_08h35.45.912,HF_wild_card,2022.2.4,MacIntel,100,5c4f839a37efdd000184e1df,64d2fd46c836a06233681665,64dc7c320557b9d21b127088,,,,,,,ctch,resources/DY.BMP,resources/DB.BMP,Door4,0.3203125,-0.019965278,1,0,0,0.694,optionRight,80,12885,6,27,0,27,0,1,,,,,,,,,,,,,,,,,,,,,,,,,,,,,,,,,,,,,,,
,,,,,,,,2023-08-16_08h35.45.912,HF_wild_card,2022.2.4,MacIntel,100,5c4f839a37efdd000184e1df,64d2fd46c836a06233681665,64dc7c320557b9d21b127088,,,,,,,decisionTrl,resources/DB.BMP,resources/DP.BMP,Door4,-0.386284722,-0.071180556,1,0,0,1.272,optionLeft,80,12965,6,28,0,28,0,1,,,,,,,,,,,,,,,,,,,,,,,,,,,,,,,,,,,,,,,
,,,,,,,,2023-08-16_08h35.45.912,HF_wild_card,2022.2.4,MacIntel,100,5c4f839a37efdd000184e1df,64d2fd46c836a06233681665,64dc7c320557b9d21b127088,,,,,,,ctch,resources/DP.BMP,resources/DBN.BMP,Door3,-0.277777778,-0.045138889,1,0,0,0.786,optionLeft,70,13035,6,29,0,29,0,1,,,,,,,,,,,,,,,,,,,,,,,,,,,,,,,,,,,,,,,
,,,,,,,,2023-08-16_08h35.45.912,HF_wild_card,2022.2.4,MacIntel,100,5c4f839a37efdd000184e1df,64d2fd46c836a06233681665,64dc7c320557b9d21b127088,,,,,,,sngl,resources/Empty.png,resources/DG.BMP,WildCard_Ex,0.482638889,-0.017361111,1,0,0,0.73,optionRight,5,13040,6,30,0,30,0,1,,,,,,,,,,,,,,,,,,,,,,,,,,,,,,,,,,,,,,,
,,,,,,,,2023-08-16_08h35.45.912,HF_wild_card,2022.2.4,MacIntel,100,5c4f839a37efdd000184e1df,64d2fd46c836a06233681665,64dc7c320557b9d21b127088,,,,,,,ctch,resources/DP.BMP,resources/DBN.BMP,Door3,-0.360243056,-0.088541667,1,0,0,0.75,optionLeft,70,13110,6,31,0,31,0,1,,,,,,,,,,,,,,,,,,,,,,,,,,,,,,,,,,,,,,,
,,,,,,,,2023-08-16_08h35.45.912,HF_wild_card,2022.2.4,MacIntel,100,5c4f839a37efdd000184e1df,64d2fd46c836a06233681665,64dc7c320557b9d21b127088,,,,,,,decisionTrl,resources/DP.BMP,resources/DB.BMP,Door4,0.363715278,-0.051215278,1,0,0,0.851,optionRight,60,13170,6,32,0,32,0,1,,,,,,,,,,,,,,,,,,,,,,,,,,,,,,,,,,,,,,,
,,,,,,,,2023-08-16_08h35.45.912,HF_wild_card,2022.2.4,MacIntel,100,5c4f839a37efdd000184e1df,64d2fd46c836a06233681665,64dc7c320557b9d21b127088,,,,,,,decisionTrl,resources/DB.BMP,resources/DP.BMP,Door4,-0.327256944,-0.064236111,1,0,0,0.739,optionLeft,60,13230,6,33,0,33,0,1,,,,,,,,,,,,,,,,,,,,,,,,,,,,,,,,,,,,,,,
,,,,,,,,2023-08-16_08h35.45.912,HF_wild_card,2022.2.4,MacIntel,100,5c4f839a37efdd000184e1df,64d2fd46c836a06233681665,64dc7c320557b9d21b127088,,,,,,,ctch,resources/DB.BMP,resources/DY.BMP,Door4,-0.266493056,-0.041666667,1,0,0,0.737,optionLeft,80,13310,6,34,0,34,0,1,,,,,,,,,,,,,,,,,,,,,,,,,,,,,,,,,,,,,,,
,,,,,,,,2023-08-16_08h35.45.912,HF_wild_card,2022.2.4,MacIntel,100,5c4f839a37efdd000184e1df,64d2fd46c836a06233681665,64dc7c320557b9d21b127088,,,,,,,decisionTrl,resources/DB.BMP,resources/DG.BMP,WildCard_Ex,0.342013889,-0.027777778,1,0,0,0.824,optionRight,95,13405,6,35,0,35,0,1,,,,,,,,,,,,,,,,,,,,,,,,,,,,,,,,,,,,,,,
,,,,,,,,2023-08-16_08h35.45.912,HF_wild_card,2022.2.4,MacIntel,100,5c4f839a37efdd000184e1df,64d2fd46c836a06233681665,64dc7c320557b9d21b127088,,,,,,,decisionTrl,resources/DB.BMP,resources/DP.BMP,Door4,-0.384548611,-0.052951389,1,0,0,0.83,optionLeft,60,13465,6,36,0,36,0,1,,,,,,,,,,,,,,,,,,,,,,,,,,,,,,,,,,,,,,,
,,,,,,,,2023-08-16_08h35.45.912,HF_wild_card,2022.2.4,MacIntel,100,5c4f839a37efdd000184e1df,64d2fd46c836a06233681665,64dc7c320557b9d21b127088,,,,,,,sngl,resources/Empty.png,resources/DBN.BMP,Door2,0.3359375,-0.029513889,1,0,0,0.775,optionRight,40,13505,6,37,0,37,0,1,,,,,,,,,,,,,,,,,,,,,,,,,,,,,,,,,,,,,,,
,,,,,,,,2023-08-16_08h35.45.912,HF_wild_card,2022.2.4,MacIntel,100,5c4f839a37efdd000184e1df,64d2fd46c836a06233681665,64dc7c320557b9d21b127088,,,,,,,decisionTrl,resources/DBN.BMP,resources/DY.BMP,Door1,0.387152778,-0.051215278,1,0,0,1.062,optionRight,30,13535,6,38,0,38,0,1,,,,,,,,,,,,,,,,,,,,,,,,,,,,,,,,,,,,,,,
,,,,,,,,2023-08-16_08h35.45.912,HF_wild_card,2022.2.4,MacIntel,100,5c4f839a37efdd000184e1df,64d2fd46c836a06233681665,64dc7c320557b9d21b127088,,,,,,,decisionTrl,resources/DG.BMP,resources/DY.BMP,WildCard_Ex,-0.342881944,-0.018229167,1,0,0,0.749,optionLeft,5,13540,6,39,0,39,0,1,,,,,,,,,,,,,,,,,,,,,,,,,,,,,,,,,,,,,,,
,,,,,,,,2023-08-16_08h35.45.912,HF_wild_card,2022.2.4,MacIntel,100,5c4f839a37efdd000184e1df,64d2fd46c836a06233681665,64dc7c320557b9d21b127088,,,,,,,sngl,resources/DG.BMP,resources/Empty.png,WildCard_Ex,-0.263020833,-0.016493056,1,0,0,0.717,optionLeft,95,13635,6,40,0,40,0,1,,,,,,,,,,,,,,,,,,,,,,,,,,,,,,,,,,,,,,,
,,,,,,,,2023-08-16_08h35.45.912,HF_wild_card,2022.2.4,MacIntel,100,5c4f839a37efdd000184e1df,64d2fd46c836a06233681665,64dc7c320557b9d21b127088,,,,,,,decisionTrl,resources/DBN.BMP,resources/DY.BMP,Door1,0.411458333,0.013020833,1,0,0,0.87,optionRight,30,13665,6,41,0,41,0,1,,,,,,,,,,,,,,,,,,,,,,,,,,,,,,,,,,,,,,,
,,,,,,,,2023-08-16_08h35.45.912,HF_wild_card,2022.2.4,MacIntel,100,5c4f839a37efdd000184e1df,64d2fd46c836a06233681665,64dc7c320557b9d21b127088,,,,,,,sngl,resources/Empty.png,resources/DP.BMP,Door3,0.305555556,0.005208333,1,0,0,0.733,optionRight,70,13735,6,42,0,42,0,1,,,,,,,,,,,,,,,,,,,,,,,,,,,,,,,,,,,,,,,
,,,,,,,,2023-08-16_08h35.45.912,HF_wild_card,2022.2.4,MacIntel,100,5c4f839a37efdd000184e1df,64d2fd46c836a06233681665,64dc7c320557b9d21b127088,,,,,,,sngl,resources/DP.BMP,resources/Empty.png,Door3,-0.348090278,-0.0078125,1,0,0,0.683,optionLeft,70,13805,6,43,0,43,0,1,,,,,,,,,,,,,,,,,,,,,,,,,,,,,,,,,,,,,,,
,,,,,,,,2023-08-16_08h35.45.912,HF_wild_card,2022.2.4,MacIntel,100,5c4f839a37efdd000184e1df,64d2fd46c836a06233681665,64dc7c320557b9d21b127088,,,,,,,,,,,,,,,,,,,,,,,,,,5,0,5,0,1,,,,,,,,,,,,,,,,,,,,,,,,,,,,,,,,,,
,,,,,,,,2023-08-16_08h35.45.912,HF_wild_card,2022.2.4,MacIntel,100,5c4f839a37efdd000184e1df,64d2fd46c836a06233681665,64dc7c320557b9d21b127088,,,,,,,decisionTrl,resources/DB.BMP,resources/DP.BMP,Door4,-0.346354167,-0.112847222,1,0,0,1.227,optionLeft,80,13885,7,0,0,0,0,1,,,,,,,,,,,,,,,,,,,,,,,,,,,,,,,,,,,,,,,
,,,,,,,,2023-08-16_08h35.45.912,HF_wild_card,2022.2.4,MacIntel,100,5c4f839a37efdd000184e1df,64d2fd46c836a06233681665,64dc7c320557b9d21b127088,,,,,,,ctch,resources/DY.BMP,resources/DB.BMP,Door4,0.334201389,-0.059027778,1,0,0,1.011,optionRight,60,13945,7,1,0,1,0,1,,,,,,,,,,,,,,,,,,,,,,,,,,,,,,,,,,,,,,,
,,,,,,,,2023-08-16_08h35.45.912,HF_wild_card,2022.2.4,MacIntel,100,5c4f839a37efdd000184e1df,64d2fd46c836a06233681665,64dc7c320557b9d21b127088,,,,,,,decisionTrl,resources/DBN.BMP,resources/DY.BMP,Door1,0.407118056,-0.026041667,1,0,0,0.931,optionRight,30,13975,7,2,0,2,0,1,,,,,,,,,,,,,,,,,,,,,,,,,,,,,,,,,,,,,,,
,,,,,,,,2023-08-16_08h35.45.912,HF_wild_card,2022.2.4,MacIntel,100,5c4f839a37efdd000184e1df,64d2fd46c836a06233681665,64dc7c320557b9d21b127088,,,,,,,decisionTrl,resources/DBN.BMP,resources/DY.BMP,Door1,0.386284722,-0.045138889,1,0,0,0.915,optionRight,30,14005,7,3,0,3,0,1,,,,,,,,,,,,,,,,,,,,,,,,,,,,,,,,,,,,,,,
,,,,,,,,2023-08-16_08h35.45.912,HF_wild_card,2022.2.4,MacIntel,100,5c4f839a37efdd000184e1df,64d2fd46c836a06233681665,64dc7c320557b9d21b127088,,,,,,,decisionTrl,resources/DP.BMP,resources/DB.BMP,Door4,0.383680556,-0.059895833,1,0,0,2.376,optionRight,60,14065,7,4,0,4,0,1,,,,,,,,,,,,,,,,,,,,,,,,,,,,,,,,,,,,,,,
,,,,,,,,2023-08-16_08h35.45.912,HF_wild_card,2022.2.4,MacIntel,100,5c4f839a37efdd000184e1df,64d2fd46c836a06233681665,64dc7c320557b9d21b127088,,,,,,,decisionTrl,resources/DBN.BMP,resources/DY.BMP,Door1,0.3125,-0.052083333,1,0,0,0.746,optionRight,30,14095,7,5,0,5,0,1,,,,,,,,,,,,,,,,,,,,,,,,,,,,,,,,,,,,,,,
,,,,,,,,2023-08-16_08h35.45.912,HF_wild_card,2022.2.4,MacIntel,100,5c4f839a37efdd000184e1df,64d2fd46c836a06233681665,64dc7c320557b9d21b127088,,,,,,,decisionTrl,resources/DY.BMP,resources/DBN.BMP,Door1,-0.341145833,-0.065104167,1,0,0,0.888,optionLeft,30,14125,7,6,0,6,0,1,,,,,,,,,,,,,,,,,,,,,,,,,,,,,,,,,,,,,,,
,,,,,,,,2023-08-16_08h35.45.912,HF_wild_card,2022.2.4,MacIntel,100,5c4f839a37efdd000184e1df,64d2fd46c836a06233681665,64dc7c320557b9d21b127088,,,,,,,decisionTrl,resources/DB.BMP,resources/DP.BMP,Door4,-0.249131944,-0.039930556,1,0,0,1.019,optionLeft,60,14185,7,7,0,7,0,1,,,,,,,,,,,,,,,,,,,,,,,,,,,,,,,,,,,,,,,
,,,,,,,,2023-08-16_08h35.45.912,HF_wild_card,2022.2.4,MacIntel,100,5c4f839a37efdd000184e1df,64d2fd46c836a06233681665,64dc7c320557b9d21b127088,,,,,,,decisionTrl,resources/DP.BMP,resources/DB.BMP,Door4,0.344618056,-0.085069444,1,0,0,1.094,optionRight,80,14265,7,8,0,8,0,1,,,,,,,,,,,,,,,,,,,,,,,,,,,,,,,,,,,,,,,
,,,,,,,,2023-08-16_08h35.45.912,HF_wild_card,2022.2.4,MacIntel,100,5c4f839a37efdd000184e1df,64d2fd46c836a06233681665,64dc7c320557b9d21b127088,,,,,,,ctch,resources/DY.BMP,resources/DB.BMP,Door4,0.345486111,-0.065972222,1,0,0,0.839,optionRight,60,14325,7,9,0,9,0,1,,,,,,,,,,,,,,,,,,,,,,,,,,,,,,,,,,,,,,,
,,,,,,,,2023-08-16_08h35.45.912,HF_wild_card,2022.2.4,MacIntel,100,5c4f839a37efdd000184e1df,64d2fd46c836a06233681665,64dc7c320557b9d21b127088,,,,,,,ctch,resources/DB.BMP,resources/DY.BMP,Door4,-0.318576389,-0.046875,1,0,0,0.963,optionLeft,60,14385,7,10,0,10,0,1,,,,,,,,,,,,,,,,,,,,,,,,,,,,,,,,,,,,,,,
,,,,,,,,2023-08-16_08h35.45.912,HF_wild_card,2022.2.4,MacIntel,100,5c4f839a37efdd000184e1df,64d2fd46c836a06233681665,64dc7c320557b9d21b127088,,,,,,,ctch,resources/DP.BMP,resources/DBN.BMP,Door3,-0.338541667,-0.040798611,1,0,0,1.026,optionLeft,70,14455,7,11,0,11,0,1,,,,,,,,,,,,,,,,,,,,,,,,,,,,,,,,,,,,,,,
,,,,,,,,2023-08-16_08h35.45.912,HF_wild_card,2022.2.4,MacIntel,100,5c4f839a37efdd000184e1df,64d2fd46c836a06233681665,64dc7c320557b9d21b127088,,,,,,,decisionTrl,resources/DY.BMP,resources/DBN.BMP,Door1,-0.315972222,-0.051215278,1,0,0,1.115,optionLeft,30,14485,7,12,0,12,0,1,,,,,,,,,,,,,,,,,,,,,,,,,,,,,,,,,,,,,,,
,,,,,,,,2023-08-16_08h35.45.912,HF_wild_card,2022.2.4,MacIntel,100,5c4f839a37efdd000184e1df,64d2fd46c836a06233681665,64dc7c320557b9d21b127088,,,,,,,ctch,resources/DB.BMP,resources/DY.BMP,Door4,-0.305555556,-0.046006944,1,0,0,0.869,optionLeft,60,14545,7,13,0,13,0,1,,,,,,,,,,,,,,,,,,,,,,,,,,,,,,,,,,,,,,,
,,,,,,,,2023-08-16_08h35.45.912,HF_wild_card,2022.2.4,MacIntel,100,5c4f839a37efdd000184e1df,64d2fd46c836a06233681665,64dc7c320557b9d21b127088,,,,,,,decisionTrl,resources/DP.BMP,resources/DB.BMP,Door3,-0.353298611,-0.061631944,1,0,0,1.982,optionLeft,70,14615,7,14,0,14,0,1,,,,,,,,,,,,,,,,,,,,,,,,,,,,,,,,,,,,,,,
,,,,,,,,2023-08-16_08h35.45.912,HF_wild_card,2022.2.4,MacIntel,100,5c4f839a37efdd000184e1df,64d2fd46c836a06233681665,64dc7c320557b9d21b127088,,,,,,,decisionTrl,resources/DBN.BMP,resources/DY.BMP,Door1,0.404513889,-0.058159722,1,0,0,0.82,optionRight,30,14645,7,15,0,15,0,1,,,,,,,,,,,,,,,,,,,,,,,,,,,,,,,,,,,,,,,
,,,,,,,,2023-08-16_08h35.45.912,HF_wild_card,2022.2.4,MacIntel,100,5c4f839a37efdd000184e1df,64d2fd46c836a06233681665,64dc7c320557b9d21b127088,,,,,,,ctch,resources/DP.BMP,resources/DBN.BMP,Door3,-0.348958333,-0.084201389,1,0,0,0.84,optionLeft,70,14715,7,16,0,16,0,1,,,,,,,,,,,,,,,,,,,,,,,,,,,,,,,,,,,,,,,
,,,,,,,,2023-08-16_08h35.45.912,HF_wild_card,2022.2.4,MacIntel,100,5c4f839a37efdd000184e1df,64d2fd46c836a06233681665,64dc7c320557b9d21b127088,,,,,,,decisionTrl,resources/DY.BMP,resources/DBN.BMP,Door1,-0.325520833,-0.052083333,1,0,0,0.918,optionLeft,30,14745,7,17,0,17,0,1,,,,,,,,,,,,,,,,,,,,,,,,,,,,,,,,,,,,,,,
,,,,,,,,2023-08-16_08h35.45.912,HF_wild_card,2022.2.4,MacIntel,100,5c4f839a37efdd000184e1df,64d2fd46c836a06233681665,64dc7c320557b9d21b127088,,,,,,,ctch,resources/DP.BMP,resources/DBN.BMP,Door3,-0.348958333,-0.036458333,1,0,0,0.862,optionLeft,70,14815,7,18,0,18,0,1,,,,,,,,,,,,,,,,,,,,,,,,,,,,,,,,,,,,,,,
,,,,,,,,2023-08-16_08h35.45.912,HF_wild_card,2022.2.4,MacIntel,100,5c4f839a37efdd000184e1df,64d2fd46c836a06233681665,64dc7c320557b9d21b127088,,,,,,,decisionTrl,resources/DP.BMP,resources/DB.BMP,Door4,0.309027778,-0.032986111,1,0,0,1.054,optionRight,60,14875,7,19,0,19,0,1,,,,,,,,,,,,,,,,,,,,,,,,,,,,,,,,,,,,,,,
,,,,,,,,2023-08-16_08h35.45.912,HF_wild_card,2022.2.4,MacIntel,100,5c4f839a37efdd000184e1df,64d2fd46c836a06233681665,64dc7c320557b9d21b127088,,,,,,,ctch,resources/DBN.BMP,resources/DP.BMP,Door3,0.349826389,-0.092881944,1,0,0,0.836,optionRight,70,14945,7,20,0,20,0,1,,,,,,,,,,,,,,,,,,,,,,,,,,,,,,,,,,,,,,,
,,,,,,,,2023-08-16_08h35.45.912,HF_wild_card,2022.2.4,MacIntel,100,5c4f839a37efdd000184e1df,64d2fd46c836a06233681665,64dc7c320557b9d21b127088,,,,,,,decisionTrl,resources/DB.BMP,resources/DP.BMP,Door4,-0.328993056,-0.074652778,1,0,0,1.171,optionLeft,80,15025,7,21,0,21,0,1,,,,,,,,,,,,,,,,,,,,,,,,,,,,,,,,,,,,,,,
,,,,,,,,2023-08-16_08h35.45.912,HF_wild_card,2022.2.4,MacIntel,100,5c4f839a37efdd000184e1df,64d2fd46c836a06233681665,64dc7c320557b9d21b127088,,,,,,,decisionTrl,resources/DB.BMP,resources/DP.BMP,Door3,0.285590278,-0.102430556,1,0,0,1.66,optionRight,70,15095,7,22,0,22,0,1,,,,,,,,,,,,,,,,,,,,,,,,,,,,,,,,,,,,,,,
,,,,,,,,2023-08-16_08h35.45.912,HF_wild_card,2022.2.4,MacIntel,100,5c4f839a37efdd000184e1df,64d2fd46c836a06233681665,64dc7c320557b9d21b127088,,,,,,,decisionTrl,resources/DB.BMP,resources/DP.BMP,Door4,-0.325520833,-0.043402778,1,0,0,0.818,optionLeft,80,15175,7,23,0,23,0,1,,,,,,,,,,,,,,,,,,,,,,,,,,,,,,,,,,,,,,,
,,,,,,,,2023-08-16_08h35.45.912,HF_wild_card,2022.2.4,MacIntel,100,5c4f839a37efdd000184e1df,64d2fd46c836a06233681665,64dc7c320557b9d21b127088,,,,,,,decisionTrl,resources/DBN.BMP,resources/DY.BMP,Door1,0.3125,-0.086805556,1,0,0,1.126,optionRight,30,15205,7,24,0,24,0,1,,,,,,,,,,,,,,,,,,,,,,,,,,,,,,,,,,,,,,,
,,,,,,,,2023-08-16_08h35.45.912,HF_wild_card,2022.2.4,MacIntel,100,5c4f839a37efdd000184e1df,64d2fd46c836a06233681665,64dc7c320557b9d21b127088,,,,,,,ctch,resources/DBN.BMP,resources/DP.BMP,Door3,0.315104167,-0.074652778,1,0,0,0.818,optionRight,70,15275,7,25,0,25,0,1,,,,,,,,,,,,,,,,,,,,,,,,,,,,,,,,,,,,,,,
,,,,,,,,2023-08-16_08h35.45.912,HF_wild_card,2022.2.4,MacIntel,100,5c4f839a37efdd000184e1df,64d2fd46c836a06233681665,64dc7c320557b9d21b127088,,,,,,,decisionTrl,resources/DY.BMP,resources/DBN.BMP,Door1,-0.3671875,-0.065972222,1,0,0,0.759,optionLeft,30,15305,7,26,0,26,0,1,,,,,,,,,,,,,,,,,,,,,,,,,,,,,,,,,,,,,,,
,,,,,,,,2023-08-16_08h35.45.912,HF_wild_card,2022.2.4,MacIntel,100,5c4f839a37efdd000184e1df,64d2fd46c836a06233681665,64dc7c320557b9d21b127088,,,,,,,decisionTrl,resources/DP.BMP,resources/DB.BMP,Door4,0.373263889,-0.073784722,1,0,0,0.843,optionRight,60,15365,7,27,0,27,0,1,,,,,,,,,,,,,,,,,,,,,,,,,,,,,,,,,,,,,,,
,,,,,,,,2023-08-16_08h35.45.912,HF_wild_card,2022.2.4,MacIntel,100,5c4f839a37efdd000184e1df,64d2fd46c836a06233681665,64dc7c320557b9d21b127088,,,,,,,decisionTrl,resources/DY.BMP,resources/DBN.BMP,Door1,-0.325520833,-0.066840278,1,0,0,0.719,optionLeft,30,15395,7,28,0,28,0,1,,,,,,,,,,,,,,,,,,,,,,,,,,,,,,,,,,,,,,,
,,,,,,,,2023-08-16_08h35.45.912,HF_wild_card,2022.2.4,MacIntel,100,5c4f839a37efdd000184e1df,64d2fd46c836a06233681665,64dc7c320557b9d21b127088,,,,,,,ctch,resources/DB.BMP,resources/DY.BMP,Door4,-0.287326389,-0.028645833,1,0,0,0.845,optionLeft,60,15455,7,29,0,29,0,1,,,,,,,,,,,,,,,,,,,,,,,,,,,,,,,,,,,,,,,
,,,,,,,,2023-08-16_08h35.45.912,HF_wild_card,2022.2.4,MacIntel,100,5c4f839a37efdd000184e1df,64d2fd46c836a06233681665,64dc7c320557b9d21b127088,,,,,,,ctch,resources/DY.BMP,resources/DB.BMP,Door4,0.375868056,-0.014756944,1,0,0,0.763,optionRight,80,15535,7,30,0,30,0,1,,,,,,,,,,,,,,,,,,,,,,,,,,,,,,,,,,,,,,,
,,,,,,,,2023-08-16_08h35.45.912,HF_wild_card,2022.2.4,MacIntel,100,5c4f839a37efdd000184e1df,64d2fd46c836a06233681665,64dc7c320557b9d21b127088,,,,,,,decisionTrl,resources/DBN.BMP,resources/DY.BMP,Door1,0.285590278,-0.069444444,1,0,0,0.867,optionRight,30,15565,7,31,0,31,0,1,,,,,,,,,,,,,,,,,,,,,,,,,,,,,,,,,,,,,,,
,,,,,,,,2023-08-16_08h35.45.912,HF_wild_card,2022.2.4,MacIntel,100,5c4f839a37efdd000184e1df,64d2fd46c836a06233681665,64dc7c320557b9d21b127088,,,,,,,decisionTrl,resources/DB.BMP,resources/DP.BMP,Door3,0.489583333,-0.092013889,1,0,0,1.3,optionRight,70,15635,7,32,0,32,0,1,,,,,,,,,,,,,,,,,,,,,,,,,,,,,,,,,,,,,,,
,,,,,,,,2023-08-16_08h35.45.912,HF_wild_card,2022.2.4,MacIntel,100,5c4f839a37efdd000184e1df,64d2fd46c836a06233681665,64dc7c320557b9d21b127088,,,,,,,decisionTrl,resources/DY.BMP,resources/DBN.BMP,Door1,-0.309895833,-0.056423611,1,0,0,0.802,optionLeft,30,15665,7,33,0,33,0,1,,,,,,,,,,,,,,,,,,,,,,,,,,,,,,,,,,,,,,,
,,,,,,,,2023-08-16_08h35.45.912,HF_wild_card,2022.2.4,MacIntel,100,5c4f839a37efdd000184e1df,64d2fd46c836a06233681665,64dc7c320557b9d21b127088,,,,,,,ctch,resources/DBN.BMP,resources/DP.BMP,Door3,0.381944444,-0.037326389,1,0,0,0.73,optionRight,70,15735,7,34,0,34,0,1,,,,,,,,,,,,,,,,,,,,,,,,,,,,,,,,,,,,,,,
,,,,,,,,2023-08-16_08h35.45.912,HF_wild_card,2022.2.4,MacIntel,100,5c4f839a37efdd000184e1df,64d2fd46c836a06233681665,64dc7c320557b9d21b127088,,,,,,,decisionTrl,resources/DP.BMP,resources/DB.BMP,Door4,0.411458333,-0.098958333,1,0,0,1.431,optionRight,80,15815,7,35,0,35,0,1,,,,,,,,,,,,,,,,,,,,,,,,,,,,,,,,,,,,,,,
,,,,,,,,2023-08-16_08h35.45.912,HF_wild_card,2022.2.4,MacIntel,100,5c4f839a37efdd000184e1df,64d2fd46c836a06233681665,64dc7c320557b9d21b127088,,,,,,,,,,,,,,,,,,,,,,,,,,6,0,6,0,1,,,,,,,,,,,,,,,,,,,,,,,,,,,,,,,,,,
,,,,,,,,2023-08-16_08h35.45.912,HF_wild_card,2022.2.4,MacIntel,100,5c4f839a37efdd000184e1df,64d2fd46c836a06233681665,64dc7c320557b9d21b127088,,,,,,,,,,,,,,,,,,,,,,,,,,,,,,,3,,,,,,,,,,,,,,,,,,,,,,,,,,,,,,,,,
,,,,,,,,2023-08-16_08h35.45.912,HF_wild_card,2022.2.4,MacIntel,100,5c4f839a37efdd000184e1df,64d2fd46c836a06233681665,64dc7c320557b9d21b127088,,,,,,,,,,,,,,,,,,,,,,,,,,,,,,,,,,,,,,,,,,,,,,,,,,,,,,,,,,,,,,,,
,,,,,,,,2023-08-16_08h35.45.912,HF_wild_card,2022.2.4,MacIntel,100,5c4f839a37efdd000184e1df,64d2fd46c836a06233681665,64dc7c320557b9d21b127088,,,,,,,,,,,,,,,,,,,,,,,,,,,,,,,,95,WC_extreme,resources/DG.BMP,0,0,0,0,1,,,,,,,,,,,,,,,,,,,,,,,,,
,,,,,,,,2023-08-16_08h35.45.912,HF_wild_card,2022.2.4,MacIntel,100,5c4f839a37efdd000184e1df,64d2fd46c836a06233681665,64dc7c320557b9d21b127088,,,,,,,,,,,,,,,,,,,,,,,,,,,,,,,,45,WC_nonExtreme,resources/DR.BMP,1,0,1,0,1,,,,,,,,,,,,,,,,,,,,,,,,,
,,,,,,,,2023-08-16_08h35.45.912,HF_wild_card,2022.2.4,MacIntel,100,5c4f839a37efdd000184e1df,64d2fd46c836a06233681665,64dc7c320557b9d21b127088,,,,,,,,,,,,,,,,,,,,,,,,,,,,,,,,20,Door2,resources/DBN.BMP,2,0,2,0,1,,,,,,,,,,,,,,,,,,,,,,,,,
,,,,,,,,2023-08-16_08h35.45.912,HF_wild_card,2022.2.4,MacIntel,100,5c4f839a37efdd000184e1df,64d2fd46c836a06233681665,64dc7c320557b9d21b127088,,,,,,,,,,,,,,,,,,,,,,,,,,,,,,,,30,Door1,resources/DY.BMP,3,0,3,0,1,,,,,,,,,,,,,,,,,,,,,,,,,
,,,,,,,,2023-08-16_08h35.45.912,HF_wild_card,2022.2.4,MacIntel,100,5c4f839a37efdd000184e1df,64d2fd46c836a06233681665,64dc7c320557b9d21b127088,,,,,,,,,,,,,,,,,,,,,,,,,,,,,,,,80,Door3,resources/DP.BMP,4,0,4,0,1,,,,,,,,,,,,,,,,,,,,,,,,,
,,,,,,,,2023-08-16_08h35.45.912,HF_wild_card,2022.2.4,MacIntel,100,5c4f839a37efdd000184e1df,64d2fd46c836a06233681665,64dc7c320557b9d21b127088,,,,,,,,,,,,,,,,,,,,,,,,,,,,,,,,70,Door4,resources/DB.BMP,5,0,5,0,1,,,,,,,,,,,,,,,,,,,,,,,,,
,,,,,,,,2023-08-16_08h35.45.912,HF_wild_card,2022.2.4,MacIntel,100,5c4f839a37efdd000184e1df,64d2fd46c836a06233681665,64dc7c320557b9d21b127088,,,,,,,,,,,,,,,,,,,,,,,,,,,,,,,,,,,,,,,,,,,,,,,,,,,,,,,,,,,,,,,,
,,,,,,,,2023-08-16_08h35.45.912,HF_wild_card,2022.2.4,MacIntel,100,5c4f839a37efdd000184e1df,64d2fd46c836a06233681665,64dc7c320557b9d21b127088,,,,,,,,,,,,,,,,,,,,,,,,,,,,,,,,,,,,,,,,0,0,0,0,1,,,,,,,,,,,,,,,,,,,,
,,,,,,,,2023-08-16_08h35.45.912,HF_wild_card,2022.2.4,MacIntel,100,5c4f839a37efdd000184e1df,64d2fd46c836a06233681665,64dc7c320557b9d21b127088,,,,,,,,,,,,,,,,,,,,,,,,,,,,,,,,,,,,,,,,1,0,1,0,1,,,,,,,,,,,,,,,,,,,,
,,,,,,,,2023-08-16_08h35.45.912,HF_wild_card,2022.2.4,MacIntel,100,5c4f839a37efdd000184e1df,64d2fd46c836a06233681665,64dc7c320557b9d21b127088,,,,,,,,,,,,,,,,,,,,,,,,,,,,,,,,,,,,,,,,,,,,,-0.314236111,-0.395833333,1,0,0,yes,50%,50%,WC_extreme,resources/DG.BMP,0,0,0,0,1,,,,,
,,,,,,,,2023-08-16_08h35.45.912,HF_wild_card,2022.2.4,MacIntel,100,5c4f839a37efdd000184e1df,64d2fd46c836a06233681665,64dc7c320557b9d21b127088,,,,,,,,,,,,,,,,,,,,,,,,,,,,,,,,,,,,,,,,,,,,,,,,,,,,,,,,,,,,0,0,0,0,1
,,,,,,,,2023-08-16_08h35.45.912,HF_wild_card,2022.2.4,MacIntel,100,5c4f839a37efdd000184e1df,64d2fd46c836a06233681665,64dc7c320557b9d21b127088,,,,,,,,,,,,,,,,,,,,,,,,,,,,,,,,,,,,,,,,0,0,0,0,1,,,,,,,,,,,,,,,,,,,,
,,,,,,,,2023-08-16_08h35.45.912,HF_wild_card,2022.2.4,MacIntel,100,5c4f839a37efdd000184e1df,64d2fd46c836a06233681665,64dc7c320557b9d21b127088,,,,,,,,,,,,,,,,,,,,,,,,,,,,,,,,,,,,,,,,1,0,1,0,1,,,,,,,,,,,,,,,,,,,,
,,,,,,,,2023-08-16_08h35.45.912,HF_wild_card,2022.2.4,MacIntel,100,5c4f839a37efdd000184e1df,64d2fd46c836a06233681665,64dc7c320557b9d21b127088,,,,,,,,,,,,,,,,,,,,,,,,,,,,,,,,,,,,,,,,,,,,,-0.322916667,-0.389756944,1,0,0,yes,80%,20%,Door1,resources/DY.BMP,0,0,0,0,1,,,,,
,,,,,,,,2023-08-16_08h35.45.912,HF_wild_card,2022.2.4,MacIntel,100,5c4f839a37efdd000184e1df,64d2fd46c836a06233681665,64dc7c320557b9d21b127088,,,,,,,,,,,,,,,,,,,,,,,,,,,,,,,,,,,,,,,,,,,,,,,,,,,,,,,,,,,,1,0,1,0,1
