Condition,Low fixed image (Door1),Low risky image (Door2),High fixed image (Door3),High risky image (Door4),Extreme Wild Card,NonExtreme Wild Card,,date,expName,psychopyVersion,OS,frameRate,PROLIFIC_PID,STUDY_ID,SESSION_ID,mouse_2.x,mouse_2.y,mouse_2.leftButton,mouse_2.midButton,mouse_2.rightButton,mouse_2.clicked_name,Trial Type,Left Option Image,Right Option Image,Chosen Door,mouse.x,mouse.y,mouse.leftButton,mouse.midButton,mouse.rightButton,mouse.time,mouse.clicked_name,Feedback,Cumulative Reward,Block,trial.thisRepN,trial.thisTrialN,trial.thisN,trial.thisIndex,trial.ran,blocks.thisRepN,blocks.thisTrialN,blocks.thisN,blocks.thisIndex,blocks.ran,Money conversion,First Outcome Reported,Shown Door (First Outcome),Displayed Image (First Outcome),outcomes.thisRepN,outcomes.thisTrialN,outcomes.thisN,outcomes.thisIndex,outcomes.ran,judgments.thisRepN,judgments.thisTrialN,judgments.thisN,judgments.thisIndex,judgments.ran,freqMouse.x,freqMouse.y,freqMouse.leftButton,freqMouse.midButton,freqMouse.rightButton,freqMouse.clicked_name,FQJ for first outcome,FQJ for second outcome,Shown Door,Displayed Image,trials.thisRepN,trials.thisTrialN,trials.thisN,trials.thisIndex,trials.ran,judgBlock.thisRepN,judgBlock.thisTrialN,judgBlock.thisN,judgBlock.thisIndex,judgBlock.ran
1,resources/DB.BMP,resources/DY.BMP,resources/DBN.BMP,resources/DR.BMP,resources/DG.BMP,resources/DP.BMP,,2023-08-16_08h46.49.843,HF_wild_card,2022.2.4,Linux x86_64,58.82352941,62e2b5712f1bcd652ce6bff8,64d2fd46c836a06233681665,64dc7ec3201c200f1b779d6e,,,,,,,,,,,,,,,,,,,,,,,,,,,,,,,,,,,,,,,,,,,,,,,,,,,,,,,,,,,,,,,,
,,,,,,,,2023-08-16_08h46.49.843,HF_wild_card,2022.2.4,Linux x86_64,58.82352941,62e2b5712f1bcd652ce6bff8,64d2fd46c836a06233681665,64dc7ec3201c200f1b779d6e,0,-0.413888889,1,0,0,agree,,,,,,,,,,,,,,,,,,,,,,,,,,,,,,,,,,,,,,,,,,,,,,,,,,,,,,,,,,
,,,,,,,,2023-08-16_08h46.49.843,HF_wild_card,2022.2.4,Linux x86_64,58.82352941,62e2b5712f1bcd652ce6bff8,64d2fd46c836a06233681665,64dc7ec3201c200f1b779d6e,,,,,,,,,,,,,,,,,,,,,,,,,,,,,,,,,,,,,,,,,,,,,,,,,,,,,,,,,,,,,,,,
,,,,,,,,2023-08-16_08h46.49.843,HF_wild_card,2022.2.4,Linux x86_64,58.82352941,62e2b5712f1bcd652ce6bff8,64d2fd46c836a06233681665,64dc7ec3201c200f1b779d6e,,,,,,,decisionTrl,resources/DBN.BMP,resources/DR.BMP,Door4,0.4,-0.170833333,1,0,0,3.148,optionRight,60,60,1,0,0,0,0,1,,,,,,,,,,,,,,,,,,,,,,,,,,,,,,,,,,,,,,,
,,,,,,,,2023-08-16_08h46.49.843,HF_wild_card,2022.2.4,Linux x86_64,58.82352941,62e2b5712f1bcd652ce6bff8,64d2fd46c836a06233681665,64dc7ec3201c200f1b779d6e,,,,,,,decisionTrl,resources/DBN.BMP,resources/DR.BMP,Door3,-0.269444444,0.043055556,1,0,0,1.767,optionLeft,70,130,1,1,0,1,0,1,,,,,,,,,,,,,,,,,,,,,,,,,,,,,,,,,,,,,,,
,,,,,,,,2023-08-16_08h46.49.843,HF_wild_card,2022.2.4,Linux x86_64,58.82352941,62e2b5712f1bcd652ce6bff8,64d2fd46c836a06233681665,64dc7ec3201c200f1b779d6e,,,,,,,decisionTrl,resources/DR.BMP,resources/DBN.BMP,Door3,0.3125,0.044444444,1,0,0,1.945,optionRight,70,200,1,2,0,2,0,1,,,,,,,,,,,,,,,,,,,,,,,,,,,,,,,,,,,,,,,
,,,,,,,,2023-08-16_08h46.49.843,HF_wild_card,2022.2.4,Linux x86_64,58.82352941,62e2b5712f1bcd652ce6bff8,64d2fd46c836a06233681665,64dc7ec3201c200f1b779d6e,,,,,,,ctch,resources/DY.BMP,resources/DBN.BMP,Door2,-0.376388889,-0.045833333,1,0,0,1.835,optionLeft,40,240,1,3,0,3,0,1,,,,,,,,,,,,,,,,,,,,,,,,,,,,,,,,,,,,,,,
,,,,,,,,2023-08-16_08h46.49.843,HF_wild_card,2022.2.4,Linux x86_64,58.82352941,62e2b5712f1bcd652ce6bff8,64d2fd46c836a06233681665,64dc7ec3201c200f1b779d6e,,,,,,,decisionTrl,resources/DB.BMP,resources/DY.BMP,Door1,-0.316666667,-0.027777778,1,0,0,1.449,optionLeft,30,270,1,4,0,4,0,1,,,,,,,,,,,,,,,,,,,,,,,,,,,,,,,,,,,,,,,
,,,,,,,,2023-08-16_08h46.49.843,HF_wild_card,2022.2.4,Linux x86_64,58.82352941,62e2b5712f1bcd652ce6bff8,64d2fd46c836a06233681665,64dc7ec3201c200f1b779d6e,,,,,,,ctch,resources/DY.BMP,resources/DBN.BMP,Door3,0.359722222,0.034722222,1,0,0,0.778,optionRight,70,340,1,5,0,5,0,1,,,,,,,,,,,,,,,,,,,,,,,,,,,,,,,,,,,,,,,
,,,,,,,,2023-08-16_08h46.49.843,HF_wild_card,2022.2.4,Linux x86_64,58.82352941,62e2b5712f1bcd652ce6bff8,64d2fd46c836a06233681665,64dc7ec3201c200f1b779d6e,,,,,,,ctch,resources/DBN.BMP,resources/DY.BMP,Door3,-0.295833333,-0.011111111,1,0,0,1.197,optionLeft,70,410,1,6,0,6,0,1,,,,,,,,,,,,,,,,,,,,,,,,,,,,,,,,,,,,,,,
,,,,,,,,2023-08-16_08h46.49.843,HF_wild_card,2022.2.4,Linux x86_64,58.82352941,62e2b5712f1bcd652ce6bff8,64d2fd46c836a06233681665,64dc7ec3201c200f1b779d6e,,,,,,,sngl,resources/Empty.png,resources/DY.BMP,Door2,0.269444444,0.006944444,1,0,0,1.827,optionRight,20,430,1,7,0,7,0,1,,,,,,,,,,,,,,,,,,,,,,,,,,,,,,,,,,,,,,,
,,,,,,,,2023-08-16_08h46.49.843,HF_wild_card,2022.2.4,Linux x86_64,58.82352941,62e2b5712f1bcd652ce6bff8,64d2fd46c836a06233681665,64dc7ec3201c200f1b779d6e,,,,,,,ctch,resources/DBN.BMP,resources/DY.BMP,Door3,-0.320833333,0.0125,1,0,0,1.114,optionLeft,70,500,1,8,0,8,0,1,,,,,,,,,,,,,,,,,,,,,,,,,,,,,,,,,,,,,,,
,,,,,,,,2023-08-16_08h46.49.843,HF_wild_card,2022.2.4,Linux x86_64,58.82352941,62e2b5712f1bcd652ce6bff8,64d2fd46c836a06233681665,64dc7ec3201c200f1b779d6e,,,,,,,decisionTrl,resources/DP.BMP,resources/DR.BMP,WildCard_NonEx,-0.309722222,0.002777778,1,0,0,1.6,optionLeft,45,545,1,9,0,9,0,1,,,,,,,,,,,,,,,,,,,,,,,,,,,,,,,,,,,,,,,
,,,,,,,,2023-08-16_08h46.49.843,HF_wild_card,2022.2.4,Linux x86_64,58.82352941,62e2b5712f1bcd652ce6bff8,64d2fd46c836a06233681665,64dc7ec3201c200f1b779d6e,,,,,,,decisionTrl,resources/DP.BMP,resources/DBN.BMP,Door3,0.398611111,0.025,1,0,0,0.781,optionRight,70,615,1,10,0,10,0,1,,,,,,,,,,,,,,,,,,,,,,,,,,,,,,,,,,,,,,,
,,,,,,,,2023-08-16_08h46.49.843,HF_wild_card,2022.2.4,Linux x86_64,58.82352941,62e2b5712f1bcd652ce6bff8,64d2fd46c836a06233681665,64dc7ec3201c200f1b779d6e,,,,,,,ctch,resources/DB.BMP,resources/DR.BMP,Door4,0.233333333,-0.009722222,1,0,0,2.381,optionRight,80,695,1,11,0,11,0,1,,,,,,,,,,,,,,,,,,,,,,,,,,,,,,,,,,,,,,,
,,,,,,,,2023-08-16_08h46.49.843,HF_wild_card,2022.2.4,Linux x86_64,58.82352941,62e2b5712f1bcd652ce6bff8,64d2fd46c836a06233681665,64dc7ec3201c200f1b779d6e,,,,,,,decisionTrl,resources/DY.BMP,resources/DB.BMP,Door1,0.363888889,-0.011111111,1,0,0,1.497,optionRight,30,725,1,12,0,12,0,1,,,,,,,,,,,,,,,,,,,,,,,,,,,,,,,,,,,,,,,
,,,,,,,,2023-08-16_08h46.49.843,HF_wild_card,2022.2.4,Linux x86_64,58.82352941,62e2b5712f1bcd652ce6bff8,64d2fd46c836a06233681665,64dc7ec3201c200f1b779d6e,,,,,,,decisionTrl,resources/DP.BMP,resources/DB.BMP,WildCard_NonEx,-0.277777778,0.013888889,1,0,0,0.948,optionLeft,45,770,1,13,0,13,0,1,,,,,,,,,,,,,,,,,,,,,,,,,,,,,,,,,,,,,,,
,,,,,,,,2023-08-16_08h46.49.843,HF_wild_card,2022.2.4,Linux x86_64,58.82352941,62e2b5712f1bcd652ce6bff8,64d2fd46c836a06233681665,64dc7ec3201c200f1b779d6e,,,,,,,decisionTrl,resources/DB.BMP,resources/DY.BMP,Door1,-0.302777778,-0.011111111,1,0,0,1.397,optionLeft,30,800,1,14,0,14,0,1,,,,,,,,,,,,,,,,,,,,,,,,,,,,,,,,,,,,,,,
,,,,,,,,2023-08-16_08h46.49.843,HF_wild_card,2022.2.4,Linux x86_64,58.82352941,62e2b5712f1bcd652ce6bff8,64d2fd46c836a06233681665,64dc7ec3201c200f1b779d6e,,,,,,,decisionTrl,resources/DB.BMP,resources/DY.BMP,Door2,0.365277778,0.005555556,1,0,0,0.978,optionRight,40,840,1,15,0,15,0,1,,,,,,,,,,,,,,,,,,,,,,,,,,,,,,,,,,,,,,,
,,,,,,,,2023-08-16_08h46.49.843,HF_wild_card,2022.2.4,Linux x86_64,58.82352941,62e2b5712f1bcd652ce6bff8,64d2fd46c836a06233681665,64dc7ec3201c200f1b779d6e,,,,,,,sngl,resources/DR.BMP,resources/Empty.png,Door4,-0.302777778,0,1,0,0,1.397,optionLeft,80,920,1,16,0,16,0,1,,,,,,,,,,,,,,,,,,,,,,,,,,,,,,,,,,,,,,,
,,,,,,,,2023-08-16_08h46.49.843,HF_wild_card,2022.2.4,Linux x86_64,58.82352941,62e2b5712f1bcd652ce6bff8,64d2fd46c836a06233681665,64dc7ec3201c200f1b779d6e,,,,,,,decisionTrl,resources/DBN.BMP,resources/DR.BMP,Door4,0.273611111,-0.008333333,1,0,0,0.983,optionRight,60,980,1,17,0,17,0,1,,,,,,,,,,,,,,,,,,,,,,,,,,,,,,,,,,,,,,,
,,,,,,,,2023-08-16_08h46.49.843,HF_wild_card,2022.2.4,Linux x86_64,58.82352941,62e2b5712f1bcd652ce6bff8,64d2fd46c836a06233681665,64dc7ec3201c200f1b779d6e,,,,,,,sngl,resources/DY.BMP,resources/Empty.png,Door2,0.473611111,0.058333333,1,0,0,2.966,optionLeft,40,1020,1,18,0,18,0,1,,,,,,,,,,,,,,,,,,,,,,,,,,,,,,,,,,,,,,,
,,,,,,,,2023-08-16_08h46.49.843,HF_wild_card,2022.2.4,Linux x86_64,58.82352941,62e2b5712f1bcd652ce6bff8,64d2fd46c836a06233681665,64dc7ec3201c200f1b779d6e,,,,,,,decisionTrl,resources/DBN.BMP,resources/DR.BMP,Door4,0.319444444,-0.019444444,1,0,0,2.214,optionRight,60,1080,1,19,0,19,0,1,,,,,,,,,,,,,,,,,,,,,,,,,,,,,,,,,,,,,,,
,,,,,,,,2023-08-16_08h46.49.843,HF_wild_card,2022.2.4,Linux x86_64,58.82352941,62e2b5712f1bcd652ce6bff8,64d2fd46c836a06233681665,64dc7ec3201c200f1b779d6e,,,,,,,decisionTrl,resources/DY.BMP,resources/DB.BMP,Door2,-0.35,-0.025,1,0,0,1.249,optionLeft,40,1120,1,20,0,20,0,1,,,,,,,,,,,,,,,,,,,,,,,,,,,,,,,,,,,,,,,
,,,,,,,,2023-08-16_08h46.49.843,HF_wild_card,2022.2.4,Linux x86_64,58.82352941,62e2b5712f1bcd652ce6bff8,64d2fd46c836a06233681665,64dc7ec3201c200f1b779d6e,,,,,,,decisionTrl,resources/DY.BMP,resources/DB.BMP,Door1,0.316666667,-0.008333333,1,0,0,0.864,optionRight,30,1150,1,21,0,21,0,1,,,,,,,,,,,,,,,,,,,,,,,,,,,,,,,,,,,,,,,
,,,,,,,,2023-08-16_08h46.49.843,HF_wild_card,2022.2.4,Linux x86_64,58.82352941,62e2b5712f1bcd652ce6bff8,64d2fd46c836a06233681665,64dc7ec3201c200f1b779d6e,,,,,,,sngl,resources/Empty.png,resources/DR.BMP,Door4,0.3125,-0.029166667,1,0,0,0.982,optionRight,60,1210,1,22,0,22,0,1,,,,,,,,,,,,,,,,,,,,,,,,,,,,,,,,,,,,,,,
,,,,,,,,2023-08-16_08h46.49.843,HF_wild_card,2022.2.4,Linux x86_64,58.82352941,62e2b5712f1bcd652ce6bff8,64d2fd46c836a06233681665,64dc7ec3201c200f1b779d6e,,,,,,,sngl,resources/Empty.png,resources/DBN.BMP,Door3,0.268055556,-0.0125,1,0,0,0.866,optionRight,70,1280,1,23,0,23,0,1,,,,,,,,,,,,,,,,,,,,,,,,,,,,,,,,,,,,,,,
,,,,,,,,2023-08-16_08h46.49.843,HF_wild_card,2022.2.4,Linux x86_64,58.82352941,62e2b5712f1bcd652ce6bff8,64d2fd46c836a06233681665,64dc7ec3201c200f1b779d6e,,,,,,,sngl,resources/Empty.png,resources/DP.BMP,WildCard_NonEx,0.306944444,-0.033333333,1,0,0,0.881,optionRight,45,1325,1,24,0,24,0,1,,,,,,,,,,,,,,,,,,,,,,,,,,,,,,,,,,,,,,,
,,,,,,,,2023-08-16_08h46.49.843,HF_wild_card,2022.2.4,Linux x86_64,58.82352941,62e2b5712f1bcd652ce6bff8,64d2fd46c836a06233681665,64dc7ec3201c200f1b779d6e,,,,,,,decisionTrl,resources/DR.BMP,resources/DP.BMP,Door4,-0.35,0,1,0,0,1.467,optionLeft,60,1385,1,25,0,25,0,1,,,,,,,,,,,,,,,,,,,,,,,,,,,,,,,,,,,,,,,
,,,,,,,,2023-08-16_08h46.49.843,HF_wild_card,2022.2.4,Linux x86_64,58.82352941,62e2b5712f1bcd652ce6bff8,64d2fd46c836a06233681665,64dc7ec3201c200f1b779d6e,,,,,,,decisionTrl,resources/DR.BMP,resources/DBN.BMP,Door3,0.358333333,0.005555556,1,0,0,1.698,optionRight,70,1455,1,26,0,26,0,1,,,,,,,,,,,,,,,,,,,,,,,,,,,,,,,,,,,,,,,
,,,,,,,,2023-08-16_08h46.49.843,HF_wild_card,2022.2.4,Linux x86_64,58.82352941,62e2b5712f1bcd652ce6bff8,64d2fd46c836a06233681665,64dc7ec3201c200f1b779d6e,,,,,,,decisionTrl,resources/DR.BMP,resources/DBN.BMP,Door3,0.354166667,-0.0375,1,0,0,1.282,optionRight,70,1525,1,27,0,27,0,1,,,,,,,,,,,,,,,,,,,,,,,,,,,,,,,,,,,,,,,
,,,,,,,,2023-08-16_08h46.49.843,HF_wild_card,2022.2.4,Linux x86_64,58.82352941,62e2b5712f1bcd652ce6bff8,64d2fd46c836a06233681665,64dc7ec3201c200f1b779d6e,,,,,,,decisionTrl,resources/DY.BMP,resources/DP.BMP,WildCard_NonEx,0.466666667,-0.013888889,1,0,0,1.511,optionRight,45,1570,1,28,0,28,0,1,,,,,,,,,,,,,,,,,,,,,,,,,,,,,,,,,,,,,,,
,,,,,,,,2023-08-16_08h46.49.843,HF_wild_card,2022.2.4,Linux x86_64,58.82352941,62e2b5712f1bcd652ce6bff8,64d2fd46c836a06233681665,64dc7ec3201c200f1b779d6e,,,,,,,sngl,resources/DP.BMP,resources/Empty.png,WildCard_NonEx,-0.413888889,-0.011111111,1,0,0,1.233,optionLeft,55,1625,1,29,0,29,0,1,,,,,,,,,,,,,,,,,,,,,,,,,,,,,,,,,,,,,,,
,,,,,,,,2023-08-16_08h46.49.843,HF_wild_card,2022.2.4,Linux x86_64,58.82352941,62e2b5712f1bcd652ce6bff8,64d2fd46c836a06233681665,64dc7ec3201c200f1b779d6e,,,,,,,decisionTrl,resources/DR.BMP,resources/DBN.BMP,Door3,0.390277778,-0.002777778,1,0,0,1.03,optionRight,70,1695,1,30,0,30,0,1,,,,,,,,,,,,,,,,,,,,,,,,,,,,,,,,,,,,,,,
,,,,,,,,2023-08-16_08h46.49.843,HF_wild_card,2022.2.4,Linux x86_64,58.82352941,62e2b5712f1bcd652ce6bff8,64d2fd46c836a06233681665,64dc7ec3201c200f1b779d6e,,,,,,,sngl,resources/Empty.png,resources/DB.BMP,Door1,0.3,-0.029166667,1,0,0,1.083,optionRight,30,1725,1,31,0,31,0,1,,,,,,,,,,,,,,,,,,,,,,,,,,,,,,,,,,,,,,,
,,,,,,,,2023-08-16_08h46.49.843,HF_wild_card,2022.2.4,Linux x86_64,58.82352941,62e2b5712f1bcd652ce6bff8,64d2fd46c836a06233681665,64dc7ec3201c200f1b779d6e,,,,,,,sngl,resources/DB.BMP,resources/Empty.png,Door1,-0.381944444,-0.025,1,0,0,0.823,optionLeft,30,1755,1,32,0,32,0,1,,,,,,,,,,,,,,,,,,,,,,,,,,,,,,,,,,,,,,,
,,,,,,,,2023-08-16_08h46.49.843,HF_wild_card,2022.2.4,Linux x86_64,58.82352941,62e2b5712f1bcd652ce6bff8,64d2fd46c836a06233681665,64dc7ec3201c200f1b779d6e,,,,,,,sngl,resources/Empty.png,resources/DP.BMP,WildCard_NonEx,0.404166667,-0.002777778,1,0,0,0.832,optionRight,55,1810,1,33,0,33,0,1,,,,,,,,,,,,,,,,,,,,,,,,,,,,,,,,,,,,,,,
,,,,,,,,2023-08-16_08h46.49.843,HF_wild_card,2022.2.4,Linux x86_64,58.82352941,62e2b5712f1bcd652ce6bff8,64d2fd46c836a06233681665,64dc7ec3201c200f1b779d6e,,,,,,,ctch,resources/DR.BMP,resources/DB.BMP,Door4,0.004166667,-0.006944444,1,0,0,0.547,optionLeft,60,1870,1,34,0,34,0,1,,,,,,,,,,,,,,,,,,,,,,,,,,,,,,,,,,,,,,,
,,,,,,,,2023-08-16_08h46.49.843,HF_wild_card,2022.2.4,Linux x86_64,58.82352941,62e2b5712f1bcd652ce6bff8,64d2fd46c836a06233681665,64dc7ec3201c200f1b779d6e,,,,,,,sngl,resources/DP.BMP,resources/Empty.png,WildCard_NonEx,-0.375,-0.009722222,1,0,0,0.881,optionLeft,45,1915,1,35,0,35,0,1,,,,,,,,,,,,,,,,,,,,,,,,,,,,,,,,,,,,,,,
,,,,,,,,2023-08-16_08h46.49.843,HF_wild_card,2022.2.4,Linux x86_64,58.82352941,62e2b5712f1bcd652ce6bff8,64d2fd46c836a06233681665,64dc7ec3201c200f1b779d6e,,,,,,,decisionTrl,resources/DBN.BMP,resources/DP.BMP,Door3,-0.283333333,0.018055556,1,0,0,1.031,optionLeft,70,1985,1,36,0,36,0,1,,,,,,,,,,,,,,,,,,,,,,,,,,,,,,,,,,,,,,,
,,,,,,,,2023-08-16_08h46.49.843,HF_wild_card,2022.2.4,Linux x86_64,58.82352941,62e2b5712f1bcd652ce6bff8,64d2fd46c836a06233681665,64dc7ec3201c200f1b779d6e,,,,,,,decisionTrl,resources/DB.BMP,resources/DP.BMP,Door1,-0.266666667,0.0125,1,0,0,1.829,optionLeft,30,2015,1,37,0,37,0,1,,,,,,,,,,,,,,,,,,,,,,,,,,,,,,,,,,,,,,,
,,,,,,,,2023-08-16_08h46.49.843,HF_wild_card,2022.2.4,Linux x86_64,58.82352941,62e2b5712f1bcd652ce6bff8,64d2fd46c836a06233681665,64dc7ec3201c200f1b779d6e,,,,,,,decisionTrl,resources/DB.BMP,resources/DY.BMP,Door2,0.458333333,-0.008333333,1,0,0,1.347,optionRight,40,2055,1,38,0,38,0,1,,,,,,,,,,,,,,,,,,,,,,,,,,,,,,,,,,,,,,,
,,,,,,,,2023-08-16_08h46.49.843,HF_wild_card,2022.2.4,Linux x86_64,58.82352941,62e2b5712f1bcd652ce6bff8,64d2fd46c836a06233681665,64dc7ec3201c200f1b779d6e,,,,,,,decisionTrl,resources/DP.BMP,resources/DY.BMP,Door2,0.323611111,-0.0375,1,0,0,1.095,optionRight,20,2075,1,39,0,39,0,1,,,,,,,,,,,,,,,,,,,,,,,,,,,,,,,,,,,,,,,
,,,,,,,,2023-08-16_08h46.49.843,HF_wild_card,2022.2.4,Linux x86_64,58.82352941,62e2b5712f1bcd652ce6bff8,64d2fd46c836a06233681665,64dc7ec3201c200f1b779d6e,,,,,,,ctch,resources/DR.BMP,resources/DB.BMP,Door4,-0.394444444,0.002777778,1,0,0,0.746,optionLeft,80,2155,1,40,0,40,0,1,,,,,,,,,,,,,,,,,,,,,,,,,,,,,,,,,,,,,,,
,,,,,,,,2023-08-16_08h46.49.843,HF_wild_card,2022.2.4,Linux x86_64,58.82352941,62e2b5712f1bcd652ce6bff8,64d2fd46c836a06233681665,64dc7ec3201c200f1b779d6e,,,,,,,sngl,resources/DBN.BMP,resources/Empty.png,Door3,-0.358333333,0.025,1,0,0,0.881,optionLeft,70,2225,1,41,0,41,0,1,,,,,,,,,,,,,,,,,,,,,,,,,,,,,,,,,,,,,,,
,,,,,,,,2023-08-16_08h46.49.843,HF_wild_card,2022.2.4,Linux x86_64,58.82352941,62e2b5712f1bcd652ce6bff8,64d2fd46c836a06233681665,64dc7ec3201c200f1b779d6e,,,,,,,ctch,resources/DB.BMP,resources/DR.BMP,Door4,0.291666667,-0.026388889,1,0,0,8.198,optionRight,80,2305,1,42,0,42,0,1,,,,,,,,,,,,,,,,,,,,,,,,,,,,,,,,,,,,,,,
,,,,,,,,2023-08-16_08h46.49.843,HF_wild_card,2022.2.4,Linux x86_64,58.82352941,62e2b5712f1bcd652ce6bff8,64d2fd46c836a06233681665,64dc7ec3201c200f1b779d6e,,,,,,,decisionTrl,resources/DY.BMP,resources/DB.BMP,Door1,0.398611111,-0.038888889,1,0,0,1.263,optionRight,30,2335,1,43,0,43,0,1,,,,,,,,,,,,,,,,,,,,,,,,,,,,,,,,,,,,,,,
,,,,,,,,2023-08-16_08h46.49.843,HF_wild_card,2022.2.4,Linux x86_64,58.82352941,62e2b5712f1bcd652ce6bff8,64d2fd46c836a06233681665,64dc7ec3201c200f1b779d6e,,,,,,,,,,,,,,,,,,,,,,,,,,0,0,0,0,1,,,,,,,,,,,,,,,,,,,,,,,,,,,,,,,,,,
,,,,,,,,2023-08-16_08h46.49.843,HF_wild_card,2022.2.4,Linux x86_64,58.82352941,62e2b5712f1bcd652ce6bff8,64d2fd46c836a06233681665,64dc7ec3201c200f1b779d6e,,,,,,,sngl,resources/DP.BMP,resources/Empty.png,WildCard_NonEx,-0.381944444,-0.079166667,1,0,0,0.827,optionLeft,45,2380,2,0,0,0,0,1,,,,,,,,,,,,,,,,,,,,,,,,,,,,,,,,,,,,,,,
,,,,,,,,2023-08-16_08h46.49.843,HF_wild_card,2022.2.4,Linux x86_64,58.82352941,62e2b5712f1bcd652ce6bff8,64d2fd46c836a06233681665,64dc7ec3201c200f1b779d6e,,,,,,,sngl,resources/DBN.BMP,resources/Empty.png,Door3,-0.283333333,0.019444444,1,0,0,0.794,optionLeft,70,2450,2,1,0,1,0,1,,,,,,,,,,,,,,,,,,,,,,,,,,,,,,,,,,,,,,,
,,,,,,,,2023-08-16_08h46.49.843,HF_wild_card,2022.2.4,Linux x86_64,58.82352941,62e2b5712f1bcd652ce6bff8,64d2fd46c836a06233681665,64dc7ec3201c200f1b779d6e,,,,,,,decisionTrl,resources/DB.BMP,resources/DY.BMP,Door2,0.409722222,-0.026388889,1,0,0,1.499,optionRight,20,2470,2,2,0,2,0,1,,,,,,,,,,,,,,,,,,,,,,,,,,,,,,,,,,,,,,,
,,,,,,,,2023-08-16_08h46.49.843,HF_wild_card,2022.2.4,Linux x86_64,58.82352941,62e2b5712f1bcd652ce6bff8,64d2fd46c836a06233681665,64dc7ec3201c200f1b779d6e,,,,,,,decisionTrl,resources/DBN.BMP,resources/DR.BMP,Door3,-0.283333333,0.051388889,1,0,0,0.727,optionLeft,70,2540,2,3,0,3,0,1,,,,,,,,,,,,,,,,,,,,,,,,,,,,,,,,,,,,,,,
,,,,,,,,2023-08-16_08h46.49.843,HF_wild_card,2022.2.4,Linux x86_64,58.82352941,62e2b5712f1bcd652ce6bff8,64d2fd46c836a06233681665,64dc7ec3201c200f1b779d6e,,,,,,,decisionTrl,resources/DR.BMP,resources/DP.BMP,Door4,-0.416666667,0.019444444,1,0,0,0.898,optionLeft,60,2600,2,4,0,4,0,1,,,,,,,,,,,,,,,,,,,,,,,,,,,,,,,,,,,,,,,
,,,,,,,,2023-08-16_08h46.49.843,HF_wild_card,2022.2.4,Linux x86_64,58.82352941,62e2b5712f1bcd652ce6bff8,64d2fd46c836a06233681665,64dc7ec3201c200f1b779d6e,,,,,,,decisionTrl,resources/DB.BMP,resources/DY.BMP,Door1,-0.420833333,-0.018055556,1,0,0,1.347,optionLeft,30,2630,2,5,0,5,0,1,,,,,,,,,,,,,,,,,,,,,,,,,,,,,,,,,,,,,,,
,,,,,,,,2023-08-16_08h46.49.843,HF_wild_card,2022.2.4,Linux x86_64,58.82352941,62e2b5712f1bcd652ce6bff8,64d2fd46c836a06233681665,64dc7ec3201c200f1b779d6e,,,,,,,decisionTrl,resources/DB.BMP,resources/DY.BMP,Door2,0.491666667,-0.013888889,1,0,0,0.731,optionRight,40,2670,2,6,0,6,0,1,,,,,,,,,,,,,,,,,,,,,,,,,,,,,,,,,,,,,,,
,,,,,,,,2023-08-16_08h46.49.843,HF_wild_card,2022.2.4,Linux x86_64,58.82352941,62e2b5712f1bcd652ce6bff8,64d2fd46c836a06233681665,64dc7ec3201c200f1b779d6e,,,,,,,ctch,resources/DR.BMP,resources/DB.BMP,Door4,-0.379166667,-0.038888889,1,0,0,1.407,optionLeft,60,2730,2,7,0,7,0,1,,,,,,,,,,,,,,,,,,,,,,,,,,,,,,,,,,,,,,,
,,,,,,,,2023-08-16_08h46.49.843,HF_wild_card,2022.2.4,Linux x86_64,58.82352941,62e2b5712f1bcd652ce6bff8,64d2fd46c836a06233681665,64dc7ec3201c200f1b779d6e,,,,,,,decisionTrl,resources/DBN.BMP,resources/DR.BMP,Door3,-0.336111111,-0.036111111,1,0,0,1.515,optionLeft,70,2800,2,8,0,8,0,1,,,,,,,,,,,,,,,,,,,,,,,,,,,,,,,,,,,,,,,
,,,,,,,,2023-08-16_08h46.49.843,HF_wild_card,2022.2.4,Linux x86_64,58.82352941,62e2b5712f1bcd652ce6bff8,64d2fd46c836a06233681665,64dc7ec3201c200f1b779d6e,,,,,,,ctch,resources/DR.BMP,resources/DB.BMP,Door4,-0.370833333,-0.026388889,1,0,0,0.881,optionLeft,80,2880,2,9,0,9,0,1,,,,,,,,,,,,,,,,,,,,,,,,,,,,,,,,,,,,,,,
,,,,,,,,2023-08-16_08h46.49.843,HF_wild_card,2022.2.4,Linux x86_64,58.82352941,62e2b5712f1bcd652ce6bff8,64d2fd46c836a06233681665,64dc7ec3201c200f1b779d6e,,,,,,,decisionTrl,resources/DY.BMP,resources/DP.BMP,Door2,-0.329166667,0.030555556,1,0,0,1.063,optionLeft,40,2920,2,10,0,10,0,1,,,,,,,,,,,,,,,,,,,,,,,,,,,,,,,,,,,,,,,
,,,,,,,,2023-08-16_08h46.49.843,HF_wild_card,2022.2.4,Linux x86_64,58.82352941,62e2b5712f1bcd652ce6bff8,64d2fd46c836a06233681665,64dc7ec3201c200f1b779d6e,,,,,,,sngl,resources/Empty.png,resources/DR.BMP,Door4,0.494444444,-0.009722222,1,0,0,0.813,optionRight,80,3000,2,11,0,11,0,1,,,,,,,,,,,,,,,,,,,,,,,,,,,,,,,,,,,,,,,
,,,,,,,,2023-08-16_08h46.49.843,HF_wild_card,2022.2.4,Linux x86_64,58.82352941,62e2b5712f1bcd652ce6bff8,64d2fd46c836a06233681665,64dc7ec3201c200f1b779d6e,,,,,,,decisionTrl,resources/DP.BMP,resources/DY.BMP,WildCard_NonEx,-0.308333333,0.022222222,1,0,0,1.556,optionLeft,55,3055,2,12,0,12,0,1,,,,,,,,,,,,,,,,,,,,,,,,,,,,,,,,,,,,,,,
,,,,,,,,2023-08-16_08h46.49.843,HF_wild_card,2022.2.4,Linux x86_64,58.82352941,62e2b5712f1bcd652ce6bff8,64d2fd46c836a06233681665,64dc7ec3201c200f1b779d6e,,,,,,,decisionTrl,resources/DP.BMP,resources/DR.BMP,Door4,0.395833333,-0.022222222,1,0,0,1.45,optionRight,60,3115,2,13,0,13,0,1,,,,,,,,,,,,,,,,,,,,,,,,,,,,,,,,,,,,,,,
,,,,,,,,2023-08-16_08h46.49.843,HF_wild_card,2022.2.4,Linux x86_64,58.82352941,62e2b5712f1bcd652ce6bff8,64d2fd46c836a06233681665,64dc7ec3201c200f1b779d6e,,,,,,,decisionTrl,resources/DR.BMP,resources/DBN.BMP,Door4,-0.431944444,-0.009722222,1,0,0,0.83,optionLeft,80,3195,2,14,0,14,0,1,,,,,,,,,,,,,,,,,,,,,,,,,,,,,,,,,,,,,,,
,,,,,,,,2023-08-16_08h46.49.843,HF_wild_card,2022.2.4,Linux x86_64,58.82352941,62e2b5712f1bcd652ce6bff8,64d2fd46c836a06233681665,64dc7ec3201c200f1b779d6e,,,,,,,decisionTrl,resources/DY.BMP,resources/DB.BMP,Door1,0.351388889,-0.019444444,1,0,0,1.163,optionRight,30,3225,2,15,0,15,0,1,,,,,,,,,,,,,,,,,,,,,,,,,,,,,,,,,,,,,,,
,,,,,,,,2023-08-16_08h46.49.843,HF_wild_card,2022.2.4,Linux x86_64,58.82352941,62e2b5712f1bcd652ce6bff8,64d2fd46c836a06233681665,64dc7ec3201c200f1b779d6e,,,,,,,ctch,resources/DB.BMP,resources/DR.BMP,Door1,-0.359722222,0.023611111,1,0,0,0.816,optionLeft,30,3255,2,16,0,16,0,1,,,,,,,,,,,,,,,,,,,,,,,,,,,,,,,,,,,,,,,
,,,,,,,,2023-08-16_08h46.49.843,HF_wild_card,2022.2.4,Linux x86_64,58.82352941,62e2b5712f1bcd652ce6bff8,64d2fd46c836a06233681665,64dc7ec3201c200f1b779d6e,,,,,,,sngl,resources/Empty.png,resources/DP.BMP,WildCard_NonEx,0.35,-0.029166667,1,0,0,1.25,optionRight,55,3310,2,17,0,17,0,1,,,,,,,,,,,,,,,,,,,,,,,,,,,,,,,,,,,,,,,
,,,,,,,,2023-08-16_08h46.49.843,HF_wild_card,2022.2.4,Linux x86_64,58.82352941,62e2b5712f1bcd652ce6bff8,64d2fd46c836a06233681665,64dc7ec3201c200f1b779d6e,,,,,,,decisionTrl,resources/DBN.BMP,resources/DP.BMP,Door3,-0.3125,0.004166667,1,0,0,1.098,optionLeft,70,3380,2,18,0,18,0,1,,,,,,,,,,,,,,,,,,,,,,,,,,,,,,,,,,,,,,,
,,,,,,,,2023-08-16_08h46.49.843,HF_wild_card,2022.2.4,Linux x86_64,58.82352941,62e2b5712f1bcd652ce6bff8,64d2fd46c836a06233681665,64dc7ec3201c200f1b779d6e,,,,,,,decisionTrl,resources/DBN.BMP,resources/DR.BMP,Door4,0.456944444,-0.023611111,1,0,0,0.782,optionRight,80,3460,2,19,0,19,0,1,,,,,,,,,,,,,,,,,,,,,,,,,,,,,,,,,,,,,,,
,,,,,,,,2023-08-16_08h46.49.843,HF_wild_card,2022.2.4,Linux x86_64,58.82352941,62e2b5712f1bcd652ce6bff8,64d2fd46c836a06233681665,64dc7ec3201c200f1b779d6e,,,,,,,decisionTrl,resources/DBN.BMP,resources/DR.BMP,Door4,0.405555556,-0.006944444,1,0,0,0.783,optionRight,80,3540,2,20,0,20,0,1,,,,,,,,,,,,,,,,,,,,,,,,,,,,,,,,,,,,,,,
,,,,,,,,2023-08-16_08h46.49.843,HF_wild_card,2022.2.4,Linux x86_64,58.82352941,62e2b5712f1bcd652ce6bff8,64d2fd46c836a06233681665,64dc7ec3201c200f1b779d6e,,,,,,,decisionTrl,resources/DB.BMP,resources/DP.BMP,WildCard_NonEx,0.322222222,-0.061111111,1,0,0,1.383,optionRight,45,3585,2,21,0,21,0,1,,,,,,,,,,,,,,,,,,,,,,,,,,,,,,,,,,,,,,,
,,,,,,,,2023-08-16_08h46.49.843,HF_wild_card,2022.2.4,Linux x86_64,58.82352941,62e2b5712f1bcd652ce6bff8,64d2fd46c836a06233681665,64dc7ec3201c200f1b779d6e,,,,,,,decisionTrl,resources/DB.BMP,resources/DY.BMP,Door2,0.3375,-0.048611111,1,0,0,2.047,optionRight,40,3625,2,22,0,22,0,1,,,,,,,,,,,,,,,,,,,,,,,,,,,,,,,,,,,,,,,
,,,,,,,,2023-08-16_08h46.49.843,HF_wild_card,2022.2.4,Linux x86_64,58.82352941,62e2b5712f1bcd652ce6bff8,64d2fd46c836a06233681665,64dc7ec3201c200f1b779d6e,,,,,,,ctch,resources/DY.BMP,resources/DBN.BMP,Door3,0.295833333,-0.006944444,1,0,0,1.418,optionRight,70,3695,2,23,0,23,0,1,,,,,,,,,,,,,,,,,,,,,,,,,,,,,,,,,,,,,,,
,,,,,,,,2023-08-16_08h46.49.843,HF_wild_card,2022.2.4,Linux x86_64,58.82352941,62e2b5712f1bcd652ce6bff8,64d2fd46c836a06233681665,64dc7ec3201c200f1b779d6e,,,,,,,decisionTrl,resources/DY.BMP,resources/DB.BMP,Door2,-0.266666667,-0.034722222,1,0,0,2.029,optionLeft,20,3715,2,24,0,24,0,1,,,,,,,,,,,,,,,,,,,,,,,,,,,,,,,,,,,,,,,
,,,,,,,,2023-08-16_08h46.49.843,HF_wild_card,2022.2.4,Linux x86_64,58.82352941,62e2b5712f1bcd652ce6bff8,64d2fd46c836a06233681665,64dc7ec3201c200f1b779d6e,,,,,,,sngl,resources/Empty.png,resources/DP.BMP,WildCard_NonEx,0.452777778,-0.0625,1,0,0,0.762,optionRight,45,3760,2,25,0,25,0,1,,,,,,,,,,,,,,,,,,,,,,,,,,,,,,,,,,,,,,,
,,,,,,,,2023-08-16_08h46.49.843,HF_wild_card,2022.2.4,Linux x86_64,58.82352941,62e2b5712f1bcd652ce6bff8,64d2fd46c836a06233681665,64dc7ec3201c200f1b779d6e,,,,,,,ctch,resources/DB.BMP,resources/DR.BMP,Door4,0.298611111,-0.019444444,1,0,0,1.308,optionRight,60,3820,2,26,0,26,0,1,,,,,,,,,,,,,,,,,,,,,,,,,,,,,,,,,,,,,,,
,,,,,,,,2023-08-16_08h46.49.843,HF_wild_card,2022.2.4,Linux x86_64,58.82352941,62e2b5712f1bcd652ce6bff8,64d2fd46c836a06233681665,64dc7ec3201c200f1b779d6e,,,,,,,decisionTrl,resources/DY.BMP,resources/DB.BMP,Door2,-0.295833333,-0.025,1,0,0,1.133,optionLeft,20,3840,2,27,0,27,0,1,,,,,,,,,,,,,,,,,,,,,,,,,,,,,,,,,,,,,,,
,,,,,,,,2023-08-16_08h46.49.843,HF_wild_card,2022.2.4,Linux x86_64,58.82352941,62e2b5712f1bcd652ce6bff8,64d2fd46c836a06233681665,64dc7ec3201c200f1b779d6e,,,,,,,decisionTrl,resources/DP.BMP,resources/DBN.BMP,Door3,0.423611111,-0.034722222,1,0,0,0.782,optionRight,70,3910,2,28,0,28,0,1,,,,,,,,,,,,,,,,,,,,,,,,,,,,,,,,,,,,,,,
,,,,,,,,2023-08-16_08h46.49.843,HF_wild_card,2022.2.4,Linux x86_64,58.82352941,62e2b5712f1bcd652ce6bff8,64d2fd46c836a06233681665,64dc7ec3201c200f1b779d6e,,,,,,,sngl,resources/DB.BMP,resources/Empty.png,Door1,-0.320833333,0.0125,1,0,0,0.814,optionLeft,30,3940,2,29,0,29,0,1,,,,,,,,,,,,,,,,,,,,,,,,,,,,,,,,,,,,,,,
,,,,,,,,2023-08-16_08h46.49.843,HF_wild_card,2022.2.4,Linux x86_64,58.82352941,62e2b5712f1bcd652ce6bff8,64d2fd46c836a06233681665,64dc7ec3201c200f1b779d6e,,,,,,,decisionTrl,resources/DY.BMP,resources/DB.BMP,Door1,0.361111111,-0.004166667,1,0,0,1.799,optionRight,30,3970,2,30,0,30,0,1,,,,,,,,,,,,,,,,,,,,,,,,,,,,,,,,,,,,,,,
,,,,,,,,2023-08-16_08h46.49.843,HF_wild_card,2022.2.4,Linux x86_64,58.82352941,62e2b5712f1bcd652ce6bff8,64d2fd46c836a06233681665,64dc7ec3201c200f1b779d6e,,,,,,,ctch,resources/DBN.BMP,resources/DY.BMP,Door3,-0.269444444,0.016666667,1,0,0,0.844,optionLeft,70,4040,2,31,0,31,0,1,,,,,,,,,,,,,,,,,,,,,,,,,,,,,,,,,,,,,,,
,,,,,,,,2023-08-16_08h46.49.843,HF_wild_card,2022.2.4,Linux x86_64,58.82352941,62e2b5712f1bcd652ce6bff8,64d2fd46c836a06233681665,64dc7ec3201c200f1b779d6e,,,,,,,sngl,resources/Empty.png,resources/DB.BMP,Door1,0.315277778,-0.031944444,1,0,0,0.881,optionRight,30,4070,2,32,0,32,0,1,,,,,,,,,,,,,,,,,,,,,,,,,,,,,,,,,,,,,,,
,,,,,,,,2023-08-16_08h46.49.843,HF_wild_card,2022.2.4,Linux x86_64,58.82352941,62e2b5712f1bcd652ce6bff8,64d2fd46c836a06233681665,64dc7ec3201c200f1b779d6e,,,,,,,sngl,resources/Empty.png,resources/DY.BMP,Door2,0.319444444,-0.040277778,1,0,0,0.881,optionRight,40,4110,2,33,0,33,0,1,,,,,,,,,,,,,,,,,,,,,,,,,,,,,,,,,,,,,,,
,,,,,,,,2023-08-16_08h46.49.843,HF_wild_card,2022.2.4,Linux x86_64,58.82352941,62e2b5712f1bcd652ce6bff8,64d2fd46c836a06233681665,64dc7ec3201c200f1b779d6e,,,,,,,sngl,resources/Empty.png,resources/DBN.BMP,Door3,0.304166667,-0.002777778,1,0,0,0.826,optionRight,70,4180,2,34,0,34,0,1,,,,,,,,,,,,,,,,,,,,,,,,,,,,,,,,,,,,,,,
,,,,,,,,2023-08-16_08h46.49.843,HF_wild_card,2022.2.4,Linux x86_64,58.82352941,62e2b5712f1bcd652ce6bff8,64d2fd46c836a06233681665,64dc7ec3201c200f1b779d6e,,,,,,,sngl,resources/DY.BMP,resources/Empty.png,Door2,-0.305555556,-0.006944444,1,0,0,0.816,optionLeft,20,4200,2,35,0,35,0,1,,,,,,,,,,,,,,,,,,,,,,,,,,,,,,,,,,,,,,,
,,,,,,,,2023-08-16_08h46.49.843,HF_wild_card,2022.2.4,Linux x86_64,58.82352941,62e2b5712f1bcd652ce6bff8,64d2fd46c836a06233681665,64dc7ec3201c200f1b779d6e,,,,,,,ctch,resources/DY.BMP,resources/DBN.BMP,Door3,0.376388889,0.018055556,1,0,0,1.011,optionRight,70,4270,2,36,0,36,0,1,,,,,,,,,,,,,,,,,,,,,,,,,,,,,,,,,,,,,,,
,,,,,,,,2023-08-16_08h46.49.843,HF_wild_card,2022.2.4,Linux x86_64,58.82352941,62e2b5712f1bcd652ce6bff8,64d2fd46c836a06233681665,64dc7ec3201c200f1b779d6e,,,,,,,decisionTrl,resources/DR.BMP,resources/DBN.BMP,Door4,-0.331944444,-0.033333333,1,0,0,2.063,optionLeft,80,4350,2,37,0,37,0,1,,,,,,,,,,,,,,,,,,,,,,,,,,,,,,,,,,,,,,,
,,,,,,,,2023-08-16_08h46.49.843,HF_wild_card,2022.2.4,Linux x86_64,58.82352941,62e2b5712f1bcd652ce6bff8,64d2fd46c836a06233681665,64dc7ec3201c200f1b779d6e,,,,,,,decisionTrl,resources/DR.BMP,resources/DBN.BMP,Door4,-0.3875,-0.019444444,1,0,0,0.799,optionLeft,80,4430,2,38,0,38,0,1,,,,,,,,,,,,,,,,,,,,,,,,,,,,,,,,,,,,,,,
,,,,,,,,2023-08-16_08h46.49.843,HF_wild_card,2022.2.4,Linux x86_64,58.82352941,62e2b5712f1bcd652ce6bff8,64d2fd46c836a06233681665,64dc7ec3201c200f1b779d6e,,,,,,,decisionTrl,resources/DP.BMP,resources/DB.BMP,WildCard_NonEx,-0.309722222,-0.005555556,1,0,0,1.446,optionLeft,55,4485,2,39,0,39,0,1,,,,,,,,,,,,,,,,,,,,,,,,,,,,,,,,,,,,,,,
,,,,,,,,2023-08-16_08h46.49.843,HF_wild_card,2022.2.4,Linux x86_64,58.82352941,62e2b5712f1bcd652ce6bff8,64d2fd46c836a06233681665,64dc7ec3201c200f1b779d6e,,,,,,,ctch,resources/DBN.BMP,resources/DY.BMP,Door3,-0.306944444,0.013888889,1,0,0,1.048,optionLeft,70,4555,2,40,0,40,0,1,,,,,,,,,,,,,,,,,,,,,,,,,,,,,,,,,,,,,,,
,,,,,,,,2023-08-16_08h46.49.843,HF_wild_card,2022.2.4,Linux x86_64,58.82352941,62e2b5712f1bcd652ce6bff8,64d2fd46c836a06233681665,64dc7ec3201c200f1b779d6e,,,,,,,sngl,resources/DR.BMP,resources/Empty.png,Door4,-0.377777778,-0.008333333,1,0,0,0.764,optionLeft,60,4615,2,41,0,41,0,1,,,,,,,,,,,,,,,,,,,,,,,,,,,,,,,,,,,,,,,
,,,,,,,,2023-08-16_08h46.49.843,HF_wild_card,2022.2.4,Linux x86_64,58.82352941,62e2b5712f1bcd652ce6bff8,64d2fd46c836a06233681665,64dc7ec3201c200f1b779d6e,,,,,,,sngl,resources/DP.BMP,resources/Empty.png,WildCard_NonEx,-0.401388889,0.031944444,1,0,0,0.761,optionLeft,55,4670,2,42,0,42,0,1,,,,,,,,,,,,,,,,,,,,,,,,,,,,,,,,,,,,,,,
,,,,,,,,2023-08-16_08h46.49.843,HF_wild_card,2022.2.4,Linux x86_64,58.82352941,62e2b5712f1bcd652ce6bff8,64d2fd46c836a06233681665,64dc7ec3201c200f1b779d6e,,,,,,,decisionTrl,resources/DR.BMP,resources/DBN.BMP,Door4,-0.333333333,-0.005555556,1,0,0,1.714,optionLeft,60,4730,2,43,0,43,0,1,,,,,,,,,,,,,,,,,,,,,,,,,,,,,,,,,,,,,,,
,,,,,,,,2023-08-16_08h46.49.843,HF_wild_card,2022.2.4,Linux x86_64,58.82352941,62e2b5712f1bcd652ce6bff8,64d2fd46c836a06233681665,64dc7ec3201c200f1b779d6e,,,,,,,,,,,,,,,,,,,,,,,,,,1,0,1,0,1,,,,,,,,,,,,,,,,,,,,,,,,,,,,,,,,,,
,,,,,,,,2023-08-16_08h46.49.843,HF_wild_card,2022.2.4,Linux x86_64,58.82352941,62e2b5712f1bcd652ce6bff8,64d2fd46c836a06233681665,64dc7ec3201c200f1b779d6e,,,,,,,decisionTrl,resources/DBN.BMP,resources/DR.BMP,Door4,0.380555556,-0.059722222,1,0,0,1.489,optionRight,60,4790,3,0,0,0,0,1,,,,,,,,,,,,,,,,,,,,,,,,,,,,,,,,,,,,,,,
,,,,,,,,2023-08-16_08h46.49.843,HF_wild_card,2022.2.4,Linux x86_64,58.82352941,62e2b5712f1bcd652ce6bff8,64d2fd46c836a06233681665,64dc7ec3201c200f1b779d6e,,,,,,,sngl,resources/DP.BMP,resources/Empty.png,WildCard_NonEx,-0.380555556,-0.008333333,1,0,0,0.678,optionLeft,55,4845,3,1,0,1,0,1,,,,,,,,,,,,,,,,,,,,,,,,,,,,,,,,,,,,,,,
,,,,,,,,2023-08-16_08h46.49.843,HF_wild_card,2022.2.4,Linux x86_64,58.82352941,62e2b5712f1bcd652ce6bff8,64d2fd46c836a06233681665,64dc7ec3201c200f1b779d6e,,,,,,,decisionTrl,resources/DBN.BMP,resources/DR.BMP,Door4,0.380555556,-0.016666667,1,0,0,0.834,optionRight,80,4925,3,2,0,2,0,1,,,,,,,,,,,,,,,,,,,,,,,,,,,,,,,,,,,,,,,
,,,,,,,,2023-08-16_08h46.49.843,HF_wild_card,2022.2.4,Linux x86_64,58.82352941,62e2b5712f1bcd652ce6bff8,64d2fd46c836a06233681665,64dc7ec3201c200f1b779d6e,,,,,,,decisionTrl,resources/DBN.BMP,resources/DR.BMP,Door4,0.381944444,-0.006944444,1,0,0,0.766,optionRight,60,4985,3,3,0,3,0,1,,,,,,,,,,,,,,,,,,,,,,,,,,,,,,,,,,,,,,,
,,,,,,,,2023-08-16_08h46.49.843,HF_wild_card,2022.2.4,Linux x86_64,58.82352941,62e2b5712f1bcd652ce6bff8,64d2fd46c836a06233681665,64dc7ec3201c200f1b779d6e,,,,,,,decisionTrl,resources/DR.BMP,resources/DBN.BMP,Door3,0.309722222,-0.015277778,1,0,0,1.583,optionRight,70,5055,3,4,0,4,0,1,,,,,,,,,,,,,,,,,,,,,,,,,,,,,,,,,,,,,,,
,,,,,,,,2023-08-16_08h46.49.843,HF_wild_card,2022.2.4,Linux x86_64,58.82352941,62e2b5712f1bcd652ce6bff8,64d2fd46c836a06233681665,64dc7ec3201c200f1b779d6e,,,,,,,sngl,resources/DB.BMP,resources/Empty.png,Door1,-0.420833333,0.054166667,1,0,0,0.734,optionLeft,30,5085,3,5,0,5,0,1,,,,,,,,,,,,,,,,,,,,,,,,,,,,,,,,,,,,,,,
,,,,,,,,2023-08-16_08h46.49.843,HF_wild_card,2022.2.4,Linux x86_64,58.82352941,62e2b5712f1bcd652ce6bff8,64d2fd46c836a06233681665,64dc7ec3201c200f1b779d6e,,,,,,,decisionTrl,resources/DBN.BMP,resources/DR.BMP,Door3,-0.275,0.020833333,1,0,0,0.883,optionLeft,70,5155,3,6,0,6,0,1,,,,,,,,,,,,,,,,,,,,,,,,,,,,,,,,,,,,,,,
,,,,,,,,2023-08-16_08h46.49.843,HF_wild_card,2022.2.4,Linux x86_64,58.82352941,62e2b5712f1bcd652ce6bff8,64d2fd46c836a06233681665,64dc7ec3201c200f1b779d6e,,,,,,,decisionTrl,resources/DY.BMP,resources/DB.BMP,Door2,-0.309722222,-0.002777778,1,0,0,3.263,optionLeft,40,5195,3,7,0,7,0,1,,,,,,,,,,,,,,,,,,,,,,,,,,,,,,,,,,,,,,,
,,,,,,,,2023-08-16_08h46.49.843,HF_wild_card,2022.2.4,Linux x86_64,58.82352941,62e2b5712f1bcd652ce6bff8,64d2fd46c836a06233681665,64dc7ec3201c200f1b779d6e,,,,,,,decisionTrl,resources/DP.BMP,resources/DR.BMP,Door4,0.286111111,0.036111111,1,0,0,1.698,optionRight,60,5255,3,8,0,8,0,1,,,,,,,,,,,,,,,,,,,,,,,,,,,,,,,,,,,,,,,
,,,,,,,,2023-08-16_08h46.49.843,HF_wild_card,2022.2.4,Linux x86_64,58.82352941,62e2b5712f1bcd652ce6bff8,64d2fd46c836a06233681665,64dc7ec3201c200f1b779d6e,,,,,,,decisionTrl,resources/DB.BMP,resources/DY.BMP,Door2,0.393055556,-0.0125,1,0,0,2.032,optionRight,40,5295,3,9,0,9,0,1,,,,,,,,,,,,,,,,,,,,,,,,,,,,,,,,,,,,,,,
,,,,,,,,2023-08-16_08h46.49.843,HF_wild_card,2022.2.4,Linux x86_64,58.82352941,62e2b5712f1bcd652ce6bff8,64d2fd46c836a06233681665,64dc7ec3201c200f1b779d6e,,,,,,,sngl,resources/Empty.png,resources/DY.BMP,Door2,0.415277778,-0.008333333,1,0,0,0.793,optionRight,20,5315,3,10,0,10,0,1,,,,,,,,,,,,,,,,,,,,,,,,,,,,,,,,,,,,,,,
,,,,,,,,2023-08-16_08h46.49.843,HF_wild_card,2022.2.4,Linux x86_64,58.82352941,62e2b5712f1bcd652ce6bff8,64d2fd46c836a06233681665,64dc7ec3201c200f1b779d6e,,,,,,,decisionTrl,resources/DY.BMP,resources/DP.BMP,WildCard_NonEx,0.415277778,-0.033333333,1,0,0,0.931,optionRight,45,5360,3,11,0,11,0,1,,,,,,,,,,,,,,,,,,,,,,,,,,,,,,,,,,,,,,,
,,,,,,,,2023-08-16_08h46.49.843,HF_wild_card,2022.2.4,Linux x86_64,58.82352941,62e2b5712f1bcd652ce6bff8,64d2fd46c836a06233681665,64dc7ec3201c200f1b779d6e,,,,,,,sngl,resources/Empty.png,resources/DR.BMP,Door4,0.425,-0.013888889,1,0,0,0.796,optionRight,60,5420,3,12,0,12,0,1,,,,,,,,,,,,,,,,,,,,,,,,,,,,,,,,,,,,,,,
,,,,,,,,2023-08-16_08h46.49.843,HF_wild_card,2022.2.4,Linux x86_64,58.82352941,62e2b5712f1bcd652ce6bff8,64d2fd46c836a06233681665,64dc7ec3201c200f1b779d6e,,,,,,,decisionTrl,resources/DB.BMP,resources/DY.BMP,Door1,-0.315277778,-0.002777778,1,0,0,2.014,optionLeft,30,5450,3,13,0,13,0,1,,,,,,,,,,,,,,,,,,,,,,,,,,,,,,,,,,,,,,,
,,,,,,,,2023-08-16_08h46.49.843,HF_wild_card,2022.2.4,Linux x86_64,58.82352941,62e2b5712f1bcd652ce6bff8,64d2fd46c836a06233681665,64dc7ec3201c200f1b779d6e,,,,,,,ctch,resources/DY.BMP,resources/DBN.BMP,Door3,0.372222222,-0.008333333,1,0,0,0.844,optionRight,70,5520,3,14,0,14,0,1,,,,,,,,,,,,,,,,,,,,,,,,,,,,,,,,,,,,,,,
,,,,,,,,2023-08-16_08h46.49.843,HF_wild_card,2022.2.4,Linux x86_64,58.82352941,62e2b5712f1bcd652ce6bff8,64d2fd46c836a06233681665,64dc7ec3201c200f1b779d6e,,,,,,,ctch,resources/DB.BMP,resources/DR.BMP,Door4,0.447222222,-0.005555556,1,0,0,0.965,optionRight,60,5580,3,15,0,15,0,1,,,,,,,,,,,,,,,,,,,,,,,,,,,,,,,,,,,,,,,
,,,,,,,,2023-08-16_08h46.49.843,HF_wild_card,2022.2.4,Linux x86_64,58.82352941,62e2b5712f1bcd652ce6bff8,64d2fd46c836a06233681665,64dc7ec3201c200f1b779d6e,,,,,,,decisionTrl,resources/DB.BMP,resources/DP.BMP,WildCard_NonEx,0.355555556,-0.016666667,1,0,0,1.747,optionRight,55,5635,3,16,0,16,0,1,,,,,,,,,,,,,,,,,,,,,,,,,,,,,,,,,,,,,,,
,,,,,,,,2023-08-16_08h46.49.843,HF_wild_card,2022.2.4,Linux x86_64,58.82352941,62e2b5712f1bcd652ce6bff8,64d2fd46c836a06233681665,64dc7ec3201c200f1b779d6e,,,,,,,sngl,resources/Empty.png,resources/DB.BMP,Door1,0.401388889,-0.011111111,1,0,0,0.784,optionRight,30,5665,3,17,0,17,0,1,,,,,,,,,,,,,,,,,,,,,,,,,,,,,,,,,,,,,,,
,,,,,,,,2023-08-16_08h46.49.843,HF_wild_card,2022.2.4,Linux x86_64,58.82352941,62e2b5712f1bcd652ce6bff8,64d2fd46c836a06233681665,64dc7ec3201c200f1b779d6e,,,,,,,sngl,resources/DY.BMP,resources/Empty.png,Door2,-0.397222222,0.033333333,1,0,0,0.765,optionLeft,40,5705,3,18,0,18,0,1,,,,,,,,,,,,,,,,,,,,,,,,,,,,,,,,,,,,,,,
,,,,,,,,2023-08-16_08h46.49.843,HF_wild_card,2022.2.4,Linux x86_64,58.82352941,62e2b5712f1bcd652ce6bff8,64d2fd46c836a06233681665,64dc7ec3201c200f1b779d6e,,,,,,,ctch,resources/DB.BMP,resources/DR.BMP,Door4,0.388888889,-0.016666667,1,0,0,1.065,optionRight,80,5785,3,19,0,19,0,1,,,,,,,,,,,,,,,,,,,,,,,,,,,,,,,,,,,,,,,
,,,,,,,,2023-08-16_08h46.49.843,HF_wild_card,2022.2.4,Linux x86_64,58.82352941,62e2b5712f1bcd652ce6bff8,64d2fd46c836a06233681665,64dc7ec3201c200f1b779d6e,,,,,,,sngl,resources/DP.BMP,resources/Empty.png,WildCard_NonEx,-0.302777778,0.008333333,1,0,0,0.78,optionLeft,45,5830,3,20,0,20,0,1,,,,,,,,,,,,,,,,,,,,,,,,,,,,,,,,,,,,,,,
,,,,,,,,2023-08-16_08h46.49.843,HF_wild_card,2022.2.4,Linux x86_64,58.82352941,62e2b5712f1bcd652ce6bff8,64d2fd46c836a06233681665,64dc7ec3201c200f1b779d6e,,,,,,,ctch,resources/DR.BMP,resources/DB.BMP,Door4,-0.329166667,-0.011111111,1,0,0,1.561,optionLeft,80,5910,3,21,0,21,0,1,,,,,,,,,,,,,,,,,,,,,,,,,,,,,,,,,,,,,,,
,,,,,,,,2023-08-16_08h46.49.843,HF_wild_card,2022.2.4,Linux x86_64,58.82352941,62e2b5712f1bcd652ce6bff8,64d2fd46c836a06233681665,64dc7ec3201c200f1b779d6e,,,,,,,decisionTrl,resources/DP.BMP,resources/DY.BMP,WildCard_NonEx,-0.290277778,-0.041666667,1,0,0,2.33,optionLeft,45,5955,3,22,0,22,0,1,,,,,,,,,,,,,,,,,,,,,,,,,,,,,,,,,,,,,,,
,,,,,,,,2023-08-16_08h46.49.843,HF_wild_card,2022.2.4,Linux x86_64,58.82352941,62e2b5712f1bcd652ce6bff8,64d2fd46c836a06233681665,64dc7ec3201c200f1b779d6e,,,,,,,decisionTrl,resources/DY.BMP,resources/DB.BMP,Door1,0.341666667,-0.0125,1,0,0,1.48,optionRight,30,5985,3,23,0,23,0,1,,,,,,,,,,,,,,,,,,,,,,,,,,,,,,,,,,,,,,,
,,,,,,,,2023-08-16_08h46.49.843,HF_wild_card,2022.2.4,Linux x86_64,58.82352941,62e2b5712f1bcd652ce6bff8,64d2fd46c836a06233681665,64dc7ec3201c200f1b779d6e,,,,,,,decisionTrl,resources/DR.BMP,resources/DBN.BMP,Door4,-0.348611111,0.002777778,1,0,0,1.28,optionLeft,60,6045,3,24,0,24,0,1,,,,,,,,,,,,,,,,,,,,,,,,,,,,,,,,,,,,,,,
,,,,,,,,2023-08-16_08h46.49.843,HF_wild_card,2022.2.4,Linux x86_64,58.82352941,62e2b5712f1bcd652ce6bff8,64d2fd46c836a06233681665,64dc7ec3201c200f1b779d6e,,,,,,,sngl,resources/Empty.png,resources/DP.BMP,WildCard_NonEx,0.4125,0.008333333,1,0,0,0.83,optionRight,55,6100,3,25,0,25,0,1,,,,,,,,,,,,,,,,,,,,,,,,,,,,,,,,,,,,,,,
,,,,,,,,2023-08-16_08h46.49.843,HF_wild_card,2022.2.4,Linux x86_64,58.82352941,62e2b5712f1bcd652ce6bff8,64d2fd46c836a06233681665,64dc7ec3201c200f1b779d6e,,,,,,,decisionTrl,resources/DR.BMP,resources/DP.BMP,Door4,-0.375,0.008333333,1,0,0,0.847,optionLeft,60,6160,3,26,0,26,0,1,,,,,,,,,,,,,,,,,,,,,,,,,,,,,,,,,,,,,,,
,,,,,,,,2023-08-16_08h46.49.843,HF_wild_card,2022.2.4,Linux x86_64,58.82352941,62e2b5712f1bcd652ce6bff8,64d2fd46c836a06233681665,64dc7ec3201c200f1b779d6e,,,,,,,decisionTrl,resources/DP.BMP,resources/DBN.BMP,Door3,0.4,-0.011111111,1,0,0,1.632,optionRight,70,6230,3,27,0,27,0,1,,,,,,,,,,,,,,,,,,,,,,,,,,,,,,,,,,,,,,,
,,,,,,,,2023-08-16_08h46.49.843,HF_wild_card,2022.2.4,Linux x86_64,58.82352941,62e2b5712f1bcd652ce6bff8,64d2fd46c836a06233681665,64dc7ec3201c200f1b779d6e,,,,,,,sngl,resources/Empty.png,resources/DBN.BMP,Door3,0.369444444,-0.004166667,1,0,0,0.695,optionRight,70,6300,3,28,0,28,0,1,,,,,,,,,,,,,,,,,,,,,,,,,,,,,,,,,,,,,,,
,,,,,,,,2023-08-16_08h46.49.843,HF_wild_card,2022.2.4,Linux x86_64,58.82352941,62e2b5712f1bcd652ce6bff8,64d2fd46c836a06233681665,64dc7ec3201c200f1b779d6e,,,,,,,decisionTrl,resources/DB.BMP,resources/DY.BMP,Door2,0.420833333,-0.002777778,1,0,0,2.598,optionRight,20,6320,3,29,0,29,0,1,,,,,,,,,,,,,,,,,,,,,,,,,,,,,,,,,,,,,,,
,,,,,,,,2023-08-16_08h46.49.843,HF_wild_card,2022.2.4,Linux x86_64,58.82352941,62e2b5712f1bcd652ce6bff8,64d2fd46c836a06233681665,64dc7ec3201c200f1b779d6e,,,,,,,decisionTrl,resources/DR.BMP,resources/DBN.BMP,Door4,-0.344444444,0.002777778,1,0,0,1.081,optionLeft,60,6380,3,30,0,30,0,1,,,,,,,,,,,,,,,,,,,,,,,,,,,,,,,,,,,,,,,
,,,,,,,,2023-08-16_08h46.49.843,HF_wild_card,2022.2.4,Linux x86_64,58.82352941,62e2b5712f1bcd652ce6bff8,64d2fd46c836a06233681665,64dc7ec3201c200f1b779d6e,,,,,,,sngl,resources/DBN.BMP,resources/Empty.png,Door3,-0.283333333,0.011111111,1,0,0,0.744,optionLeft,70,6450,3,31,0,31,0,1,,,,,,,,,,,,,,,,,,,,,,,,,,,,,,,,,,,,,,,
,,,,,,,,2023-08-16_08h46.49.843,HF_wild_card,2022.2.4,Linux x86_64,58.82352941,62e2b5712f1bcd652ce6bff8,64d2fd46c836a06233681665,64dc7ec3201c200f1b779d6e,,,,,,,decisionTrl,resources/DY.BMP,resources/DB.BMP,Door1,0.377777778,-0.022222222,1,0,0,2.014,optionRight,30,6480,3,32,0,32,0,1,,,,,,,,,,,,,,,,,,,,,,,,,,,,,,,,,,,,,,,
,,,,,,,,2023-08-16_08h46.49.843,HF_wild_card,2022.2.4,Linux x86_64,58.82352941,62e2b5712f1bcd652ce6bff8,64d2fd46c836a06233681665,64dc7ec3201c200f1b779d6e,,,,,,,ctch,resources/DBN.BMP,resources/DY.BMP,Door3,-0.315277778,-0.0125,1,0,0,1.264,optionLeft,70,6550,3,33,0,33,0,1,,,,,,,,,,,,,,,,,,,,,,,,,,,,,,,,,,,,,,,
,,,,,,,,2023-08-16_08h46.49.843,HF_wild_card,2022.2.4,Linux x86_64,58.82352941,62e2b5712f1bcd652ce6bff8,64d2fd46c836a06233681665,64dc7ec3201c200f1b779d6e,,,,,,,sngl,resources/Empty.png,resources/DP.BMP,WildCard_NonEx,0.283333333,-0.019444444,1,0,0,1.061,optionRight,45,6595,3,34,0,34,0,1,,,,,,,,,,,,,,,,,,,,,,,,,,,,,,,,,,,,,,,
,,,,,,,,2023-08-16_08h46.49.843,HF_wild_card,2022.2.4,Linux x86_64,58.82352941,62e2b5712f1bcd652ce6bff8,64d2fd46c836a06233681665,64dc7ec3201c200f1b779d6e,,,,,,,ctch,resources/DR.BMP,resources/DB.BMP,Door4,-0.347222222,-0.006944444,1,0,0,1.132,optionLeft,60,6655,3,35,0,35,0,1,,,,,,,,,,,,,,,,,,,,,,,,,,,,,,,,,,,,,,,
,,,,,,,,2023-08-16_08h46.49.843,HF_wild_card,2022.2.4,Linux x86_64,58.82352941,62e2b5712f1bcd652ce6bff8,64d2fd46c836a06233681665,64dc7ec3201c200f1b779d6e,,,,,,,decisionTrl,resources/DY.BMP,resources/DB.BMP,Door1,0.416666667,-0.016666667,1,0,0,4.236,optionRight,30,6685,3,36,0,36,0,1,,,,,,,,,,,,,,,,,,,,,,,,,,,,,,,,,,,,,,,
,,,,,,,,2023-08-16_08h46.49.843,HF_wild_card,2022.2.4,Linux x86_64,58.82352941,62e2b5712f1bcd652ce6bff8,64d2fd46c836a06233681665,64dc7ec3201c200f1b779d6e,,,,,,,decisionTrl,resources/DBN.BMP,resources/DP.BMP,Door3,-0.323611111,0,1,0,0,0.9,optionLeft,70,6755,3,37,0,37,0,1,,,,,,,,,,,,,,,,,,,,,,,,,,,,,,,,,,,,,,,
,,,,,,,,2023-08-16_08h46.49.843,HF_wild_card,2022.2.4,Linux x86_64,58.82352941,62e2b5712f1bcd652ce6bff8,64d2fd46c836a06233681665,64dc7ec3201c200f1b779d6e,,,,,,,decisionTrl,resources/DB.BMP,resources/DY.BMP,Door1,-0.415277778,0.013888889,1,0,0,2.684,optionLeft,30,6785,3,38,0,38,0,1,,,,,,,,,,,,,,,,,,,,,,,,,,,,,,,,,,,,,,,
,,,,,,,,2023-08-16_08h46.49.843,HF_wild_card,2022.2.4,Linux x86_64,58.82352941,62e2b5712f1bcd652ce6bff8,64d2fd46c836a06233681665,64dc7ec3201c200f1b779d6e,,,,,,,decisionTrl,resources/DR.BMP,resources/DBN.BMP,Door3,0.329166667,-0.0125,1,0,0,1.448,optionRight,70,6855,3,39,0,39,0,1,,,,,,,,,,,,,,,,,,,,,,,,,,,,,,,,,,,,,,,
,,,,,,,,2023-08-16_08h46.49.843,HF_wild_card,2022.2.4,Linux x86_64,58.82352941,62e2b5712f1bcd652ce6bff8,64d2fd46c836a06233681665,64dc7ec3201c200f1b779d6e,,,,,,,decisionTrl,resources/DP.BMP,resources/DB.BMP,WildCard_NonEx,-0.358333333,0.013888889,1,0,0,1.663,optionLeft,45,6900,3,40,0,40,0,1,,,,,,,,,,,,,,,,,,,,,,,,,,,,,,,,,,,,,,,
,,,,,,,,2023-08-16_08h46.49.843,HF_wild_card,2022.2.4,Linux x86_64,58.82352941,62e2b5712f1bcd652ce6bff8,64d2fd46c836a06233681665,64dc7ec3201c200f1b779d6e,,,,,,,ctch,resources/DY.BMP,resources/DBN.BMP,Door3,0.377777778,-0.0375,1,0,0,0.862,optionRight,70,6970,3,41,0,41,0,1,,,,,,,,,,,,,,,,,,,,,,,,,,,,,,,,,,,,,,,
,,,,,,,,2023-08-16_08h46.49.843,HF_wild_card,2022.2.4,Linux x86_64,58.82352941,62e2b5712f1bcd652ce6bff8,64d2fd46c836a06233681665,64dc7ec3201c200f1b779d6e,,,,,,,sngl,resources/DR.BMP,resources/Empty.png,Door4,-0.251388889,-0.0375,1,0,0,1.081,optionLeft,80,7050,3,42,0,42,0,1,,,,,,,,,,,,,,,,,,,,,,,,,,,,,,,,,,,,,,,
,,,,,,,,2023-08-16_08h46.49.843,HF_wild_card,2022.2.4,Linux x86_64,58.82352941,62e2b5712f1bcd652ce6bff8,64d2fd46c836a06233681665,64dc7ec3201c200f1b779d6e,,,,,,,ctch,resources/DBN.BMP,resources/DY.BMP,Door3,-0.359722222,-0.008333333,1,0,0,0.847,optionLeft,70,7120,3,43,0,43,0,1,,,,,,,,,,,,,,,,,,,,,,,,,,,,,,,,,,,,,,,
,,,,,,,,2023-08-16_08h46.49.843,HF_wild_card,2022.2.4,Linux x86_64,58.82352941,62e2b5712f1bcd652ce6bff8,64d2fd46c836a06233681665,64dc7ec3201c200f1b779d6e,,,,,,,,,,,,,,,,,,,,,,,,,,2,0,2,0,1,,,,,,,,,,,,,,,,,,,,,,,,,,,,,,,,,,
,,,,,,,,2023-08-16_08h46.49.843,HF_wild_card,2022.2.4,Linux x86_64,58.82352941,62e2b5712f1bcd652ce6bff8,64d2fd46c836a06233681665,64dc7ec3201c200f1b779d6e,,,,,,,decisionTrl,resources/DG.BMP,resources/DR.BMP,WildCard_Ex,-0.370833333,-0.170833333,1,0,0,1.248,optionLeft,95,7215,4,0,0,0,0,1,,,,,,,,,,,,,,,,,,,,,,,,,,,,,,,,,,,,,,,
,,,,,,,,2023-08-16_08h46.49.843,HF_wild_card,2022.2.4,Linux x86_64,58.82352941,62e2b5712f1bcd652ce6bff8,64d2fd46c836a06233681665,64dc7ec3201c200f1b779d6e,,,,,,,decisionTrl,resources/DBN.BMP,resources/DG.BMP,WildCard_Ex,0.463888889,-0.043055556,1,0,0,0.846,optionRight,5,7220,4,1,0,1,0,1,,,,,,,,,,,,,,,,,,,,,,,,,,,,,,,,,,,,,,,
,,,,,,,,2023-08-16_08h46.49.843,HF_wild_card,2022.2.4,Linux x86_64,58.82352941,62e2b5712f1bcd652ce6bff8,64d2fd46c836a06233681665,64dc7ec3201c200f1b779d6e,,,,,,,sngl,resources/Empty.png,resources/DR.BMP,Door4,0.395833333,-0.051388889,1,0,0,0.831,optionRight,80,7300,4,2,0,2,0,1,,,,,,,,,,,,,,,,,,,,,,,,,,,,,,,,,,,,,,,
,,,,,,,,2023-08-16_08h46.49.843,HF_wild_card,2022.2.4,Linux x86_64,58.82352941,62e2b5712f1bcd652ce6bff8,64d2fd46c836a06233681665,64dc7ec3201c200f1b779d6e,,,,,,,decisionTrl,resources/DR.BMP,resources/DG.BMP,Door4,-0.356944444,0.016666667,1,0,0,0.697,optionLeft,80,7380,4,3,0,3,0,1,,,,,,,,,,,,,,,,,,,,,,,,,,,,,,,,,,,,,,,
,,,,,,,,2023-08-16_08h46.49.843,HF_wild_card,2022.2.4,Linux x86_64,58.82352941,62e2b5712f1bcd652ce6bff8,64d2fd46c836a06233681665,64dc7ec3201c200f1b779d6e,,,,,,,sngl,resources/Empty.png,resources/DY.BMP,Door2,0.402777778,-0.065277778,1,0,0,0.796,optionRight,40,7420,4,4,0,4,0,1,,,,,,,,,,,,,,,,,,,,,,,,,,,,,,,,,,,,,,,
,,,,,,,,2023-08-16_08h46.49.843,HF_wild_card,2022.2.4,Linux x86_64,58.82352941,62e2b5712f1bcd652ce6bff8,64d2fd46c836a06233681665,64dc7ec3201c200f1b779d6e,,,,,,,ctch,resources/DY.BMP,resources/DBN.BMP,Door3,0.419444444,0.002777778,1,0,0,1.415,optionRight,70,7490,4,5,0,5,0,1,,,,,,,,,,,,,,,,,,,,,,,,,,,,,,,,,,,,,,,
,,,,,,,,2023-08-16_08h46.49.843,HF_wild_card,2022.2.4,Linux x86_64,58.82352941,62e2b5712f1bcd652ce6bff8,64d2fd46c836a06233681665,64dc7ec3201c200f1b779d6e,,,,,,,decisionTrl,resources/DR.BMP,resources/DBN.BMP,Door4,-0.376388889,-0.048611111,1,0,0,1.314,optionLeft,60,7550,4,6,0,6,0,1,,,,,,,,,,,,,,,,,,,,,,,,,,,,,,,,,,,,,,,
,,,,,,,,2023-08-16_08h46.49.843,HF_wild_card,2022.2.4,Linux x86_64,58.82352941,62e2b5712f1bcd652ce6bff8,64d2fd46c836a06233681665,64dc7ec3201c200f1b779d6e,,,,,,,decisionTrl,resources/DR.BMP,resources/DBN.BMP,Door3,0.329166667,-0.019444444,1,0,0,1.11,optionRight,70,7620,4,7,0,7,0,1,,,,,,,,,,,,,,,,,,,,,,,,,,,,,,,,,,,,,,,
,,,,,,,,2023-08-16_08h46.49.843,HF_wild_card,2022.2.4,Linux x86_64,58.82352941,62e2b5712f1bcd652ce6bff8,64d2fd46c836a06233681665,64dc7ec3201c200f1b779d6e,,,,,,,decisionTrl,resources/DR.BMP,resources/DBN.BMP,Door3,0.395833333,-0.022222222,1,0,0,1.148,optionRight,70,7690,4,8,0,8,0,1,,,,,,,,,,,,,,,,,,,,,,,,,,,,,,,,,,,,,,,
,,,,,,,,2023-08-16_08h46.49.843,HF_wild_card,2022.2.4,Linux x86_64,58.82352941,62e2b5712f1bcd652ce6bff8,64d2fd46c836a06233681665,64dc7ec3201c200f1b779d6e,,,,,,,ctch,resources/DR.BMP,resources/DB.BMP,Door4,-0.327777778,-0.011111111,1,0,0,1.579,optionLeft,80,7770,4,9,0,9,0,1,,,,,,,,,,,,,,,,,,,,,,,,,,,,,,,,,,,,,,,
,,,,,,,,2023-08-16_08h46.49.843,HF_wild_card,2022.2.4,Linux x86_64,58.82352941,62e2b5712f1bcd652ce6bff8,64d2fd46c836a06233681665,64dc7ec3201c200f1b779d6e,,,,,,,decisionTrl,resources/DBN.BMP,resources/DR.BMP,Door3,-0.305555556,0.005555556,1,0,0,3.282,optionLeft,70,7840,4,10,0,10,0,1,,,,,,,,,,,,,,,,,,,,,,,,,,,,,,,,,,,,,,,
,,,,,,,,2023-08-16_08h46.49.843,HF_wild_card,2022.2.4,Linux x86_64,58.82352941,62e2b5712f1bcd652ce6bff8,64d2fd46c836a06233681665,64dc7ec3201c200f1b779d6e,,,,,,,sngl,resources/Empty.png,resources/DG.BMP,WildCard_Ex,0.501388889,-0.059722222,1,0,0,0.942,optionRight,95,7935,4,11,0,11,0,1,,,,,,,,,,,,,,,,,,,,,,,,,,,,,,,,,,,,,,,
,,,,,,,,2023-08-16_08h46.49.843,HF_wild_card,2022.2.4,Linux x86_64,58.82352941,62e2b5712f1bcd652ce6bff8,64d2fd46c836a06233681665,64dc7ec3201c200f1b779d6e,,,,,,,decisionTrl,resources/DY.BMP,resources/DB.BMP,Door2,-0.336111111,0.006944444,1,0,0,1.347,optionLeft,20,7955,4,12,0,12,0,1,,,,,,,,,,,,,,,,,,,,,,,,,,,,,,,,,,,,,,,
,,,,,,,,2023-08-16_08h46.49.843,HF_wild_card,2022.2.4,Linux x86_64,58.82352941,62e2b5712f1bcd652ce6bff8,64d2fd46c836a06233681665,64dc7ec3201c200f1b779d6e,,,,,,,decisionTrl,resources/DR.BMP,resources/DBN.BMP,Door3,0.344444444,-0.013888889,1,0,0,1.431,optionRight,70,8025,4,13,0,13,0,1,,,,,,,,,,,,,,,,,,,,,,,,,,,,,,,,,,,,,,,
,,,,,,,,2023-08-16_08h46.49.843,HF_wild_card,2022.2.4,Linux x86_64,58.82352941,62e2b5712f1bcd652ce6bff8,64d2fd46c836a06233681665,64dc7ec3201c200f1b779d6e,,,,,,,decisionTrl,resources/DY.BMP,resources/DB.BMP,Door1,0.247222222,-0.019444444,1,0,0,1.909,optionRight,30,8055,4,14,0,14,0,1,,,,,,,,,,,,,,,,,,,,,,,,,,,,,,,,,,,,,,,
,,,,,,,,2023-08-16_08h46.49.843,HF_wild_card,2022.2.4,Linux x86_64,58.82352941,62e2b5712f1bcd652ce6bff8,64d2fd46c836a06233681665,64dc7ec3201c200f1b779d6e,,,,,,,decisionTrl,resources/DY.BMP,resources/DG.BMP,WildCard_Ex,0.2875,-0.034722222,1,0,0,1.379,optionRight,5,8060,4,15,0,15,0,1,,,,,,,,,,,,,,,,,,,,,,,,,,,,,,,,,,,,,,,
,,,,,,,,2023-08-16_08h46.49.843,HF_wild_card,2022.2.4,Linux x86_64,58.82352941,62e2b5712f1bcd652ce6bff8,64d2fd46c836a06233681665,64dc7ec3201c200f1b779d6e,,,,,,,sngl,resources/DB.BMP,resources/Empty.png,Door1,-0.319444444,-0.011111111,1,0,0,0.699,optionLeft,30,8090,4,16,0,16,0,1,,,,,,,,,,,,,,,,,,,,,,,,,,,,,,,,,,,,,,,
,,,,,,,,2023-08-16_08h46.49.843,HF_wild_card,2022.2.4,Linux x86_64,58.82352941,62e2b5712f1bcd652ce6bff8,64d2fd46c836a06233681665,64dc7ec3201c200f1b779d6e,,,,,,,ctch,resources/DB.BMP,resources/DR.BMP,Door4,0.4375,-0.011111111,1,0,0,0.897,optionRight,80,8170,4,17,0,17,0,1,,,,,,,,,,,,,,,,,,,,,,,,,,,,,,,,,,,,,,,
,,,,,,,,2023-08-16_08h46.49.843,HF_wild_card,2022.2.4,Linux x86_64,58.82352941,62e2b5712f1bcd652ce6bff8,64d2fd46c836a06233681665,64dc7ec3201c200f1b779d6e,,,,,,,decisionTrl,resources/DB.BMP,resources/DY.BMP,Door2,0.330555556,-0.034722222,1,0,0,1.132,optionRight,20,8190,4,18,0,18,0,1,,,,,,,,,,,,,,,,,,,,,,,,,,,,,,,,,,,,,,,
,,,,,,,,2023-08-16_08h46.49.843,HF_wild_card,2022.2.4,Linux x86_64,58.82352941,62e2b5712f1bcd652ce6bff8,64d2fd46c836a06233681665,64dc7ec3201c200f1b779d6e,,,,,,,sngl,resources/DG.BMP,resources/Empty.png,WildCard_Ex,-0.379166667,0.008333333,1,0,0,0.779,optionLeft,5,8195,4,19,0,19,0,1,,,,,,,,,,,,,,,,,,,,,,,,,,,,,,,,,,,,,,,
,,,,,,,,2023-08-16_08h46.49.843,HF_wild_card,2022.2.4,Linux x86_64,58.82352941,62e2b5712f1bcd652ce6bff8,64d2fd46c836a06233681665,64dc7ec3201c200f1b779d6e,,,,,,,decisionTrl,resources/DBN.BMP,resources/DR.BMP,Door3,-0.279166667,0.031944444,1,0,0,1.279,optionLeft,70,8265,4,20,0,20,0,1,,,,,,,,,,,,,,,,,,,,,,,,,,,,,,,,,,,,,,,
,,,,,,,,2023-08-16_08h46.49.843,HF_wild_card,2022.2.4,Linux x86_64,58.82352941,62e2b5712f1bcd652ce6bff8,64d2fd46c836a06233681665,64dc7ec3201c200f1b779d6e,,,,,,,decisionTrl,resources/DG.BMP,resources/DY.BMP,Door2,0.408333333,-0.040277778,1,0,0,1.513,optionRight,40,8305,4,21,0,21,0,1,,,,,,,,,,,,,,,,,,,,,,,,,,,,,,,,,,,,,,,
,,,,,,,,2023-08-16_08h46.49.843,HF_wild_card,2022.2.4,Linux x86_64,58.82352941,62e2b5712f1bcd652ce6bff8,64d2fd46c836a06233681665,64dc7ec3201c200f1b779d6e,,,,,,,ctch,resources/DBN.BMP,resources/DY.BMP,Door3,-0.281944444,0.006944444,1,0,0,1.297,optionLeft,70,8375,4,22,0,22,0,1,,,,,,,,,,,,,,,,,,,,,,,,,,,,,,,,,,,,,,,
,,,,,,,,2023-08-16_08h46.49.843,HF_wild_card,2022.2.4,Linux x86_64,58.82352941,62e2b5712f1bcd652ce6bff8,64d2fd46c836a06233681665,64dc7ec3201c200f1b779d6e,,,,,,,decisionTrl,resources/DB.BMP,resources/DY.BMP,Door2,0.315277778,-0.005555556,1,0,0,1.407,optionRight,40,8415,4,23,0,23,0,1,,,,,,,,,,,,,,,,,,,,,,,,,,,,,,,,,,,,,,,
,,,,,,,,2023-08-16_08h46.49.843,HF_wild_card,2022.2.4,Linux x86_64,58.82352941,62e2b5712f1bcd652ce6bff8,64d2fd46c836a06233681665,64dc7ec3201c200f1b779d6e,,,,,,,ctch,resources/DBN.BMP,resources/DY.BMP,Door3,-0.255555556,0.008333333,1,0,0,0.98,optionLeft,70,8485,4,24,0,24,0,1,,,,,,,,,,,,,,,,,,,,,,,,,,,,,,,,,,,,,,,
,,,,,,,,2023-08-16_08h46.49.843,HF_wild_card,2022.2.4,Linux x86_64,58.82352941,62e2b5712f1bcd652ce6bff8,64d2fd46c836a06233681665,64dc7ec3201c200f1b779d6e,,,,,,,decisionTrl,resources/DB.BMP,resources/DY.BMP,Door1,-0.172222222,-0.002777778,1,0,0,2.416,optionLeft,30,8515,4,25,0,25,0,1,,,,,,,,,,,,,,,,,,,,,,,,,,,,,,,,,,,,,,,
,,,,,,,,2023-08-16_08h46.49.843,HF_wild_card,2022.2.4,Linux x86_64,58.82352941,62e2b5712f1bcd652ce6bff8,64d2fd46c836a06233681665,64dc7ec3201c200f1b779d6e,,,,,,,decisionTrl,resources/DB.BMP,resources/DG.BMP,Door1,-0.294444444,0.016666667,1,0,0,1.23,optionLeft,30,8545,4,26,0,26,0,1,,,,,,,,,,,,,,,,,,,,,,,,,,,,,,,,,,,,,,,
,,,,,,,,2023-08-16_08h46.49.843,HF_wild_card,2022.2.4,Linux x86_64,58.82352941,62e2b5712f1bcd652ce6bff8,64d2fd46c836a06233681665,64dc7ec3201c200f1b779d6e,,,,,,,ctch,resources/DR.BMP,resources/DB.BMP,Door4,-0.286111111,-0.023611111,1,0,0,1.079,optionLeft,60,8605,4,27,0,27,0,1,,,,,,,,,,,,,,,,,,,,,,,,,,,,,,,,,,,,,,,
,,,,,,,,2023-08-16_08h46.49.843,HF_wild_card,2022.2.4,Linux x86_64,58.82352941,62e2b5712f1bcd652ce6bff8,64d2fd46c836a06233681665,64dc7ec3201c200f1b779d6e,,,,,,,sngl,resources/DY.BMP,resources/Empty.png,Door2,-0.3,-0.006944444,1,0,0,0.981,optionLeft,20,8625,4,28,0,28,0,1,,,,,,,,,,,,,,,,,,,,,,,,,,,,,,,,,,,,,,,
,,,,,,,,2023-08-16_08h46.49.843,HF_wild_card,2022.2.4,Linux x86_64,58.82352941,62e2b5712f1bcd652ce6bff8,64d2fd46c836a06233681665,64dc7ec3201c200f1b779d6e,,,,,,,sngl,resources/Empty.png,resources/DG.BMP,WildCard_Ex,0.430555556,-0.029166667,1,0,0,0.78,optionRight,5,8630,4,29,0,29,0,1,,,,,,,,,,,,,,,,,,,,,,,,,,,,,,,,,,,,,,,
,,,,,,,,2023-08-16_08h46.49.843,HF_wild_card,2022.2.4,Linux x86_64,58.82352941,62e2b5712f1bcd652ce6bff8,64d2fd46c836a06233681665,64dc7ec3201c200f1b779d6e,,,,,,,sngl,resources/DG.BMP,resources/Empty.png,WildCard_Ex,-0.3375,0.022222222,1,0,0,0.849,optionLeft,95,8725,4,30,0,30,0,1,,,,,,,,,,,,,,,,,,,,,,,,,,,,,,,,,,,,,,,
,,,,,,,,2023-08-16_08h46.49.843,HF_wild_card,2022.2.4,Linux x86_64,58.82352941,62e2b5712f1bcd652ce6bff8,64d2fd46c836a06233681665,64dc7ec3201c200f1b779d6e,,,,,,,decisionTrl,resources/DY.BMP,resources/DB.BMP,Door1,0.279166667,-0.009722222,1,0,0,1.598,optionRight,30,8755,4,31,0,31,0,1,,,,,,,,,,,,,,,,,,,,,,,,,,,,,,,,,,,,,,,
,,,,,,,,2023-08-16_08h46.49.843,HF_wild_card,2022.2.4,Linux x86_64,58.82352941,62e2b5712f1bcd652ce6bff8,64d2fd46c836a06233681665,64dc7ec3201c200f1b779d6e,,,,,,,decisionTrl,resources/DY.BMP,resources/DB.BMP,Door1,0.329166667,-0.019444444,1,0,0,1.298,optionRight,30,8785,4,32,0,32,0,1,,,,,,,,,,,,,,,,,,,,,,,,,,,,,,,,,,,,,,,
,,,,,,,,2023-08-16_08h46.49.843,HF_wild_card,2022.2.4,Linux x86_64,58.82352941,62e2b5712f1bcd652ce6bff8,64d2fd46c836a06233681665,64dc7ec3201c200f1b779d6e,,,,,,,sngl,resources/Empty.png,resources/DBN.BMP,Door3,0.286111111,0.002777778,1,0,0,0.841,optionRight,70,8855,4,33,0,33,0,1,,,,,,,,,,,,,,,,,,,,,,,,,,,,,,,,,,,,,,,
,,,,,,,,2023-08-16_08h46.49.843,HF_wild_card,2022.2.4,Linux x86_64,58.82352941,62e2b5712f1bcd652ce6bff8,64d2fd46c836a06233681665,64dc7ec3201c200f1b779d6e,,,,,,,ctch,resources/DB.BMP,resources/DR.BMP,Door4,0.2625,0.006944444,1,0,0,1.887,optionRight,80,8935,4,34,0,34,0,1,,,,,,,,,,,,,,,,,,,,,,,,,,,,,,,,,,,,,,,
,,,,,,,,2023-08-16_08h46.49.843,HF_wild_card,2022.2.4,Linux x86_64,58.82352941,62e2b5712f1bcd652ce6bff8,64d2fd46c836a06233681665,64dc7ec3201c200f1b779d6e,,,,,,,decisionTrl,resources/DG.BMP,resources/DBN.BMP,WildCard_Ex,-0.372222222,0.015277778,1,0,0,1.15,optionLeft,5,8940,4,35,0,35,0,1,,,,,,,,,,,,,,,,,,,,,,,,,,,,,,,,,,,,,,,
,,,,,,,,2023-08-16_08h46.49.843,HF_wild_card,2022.2.4,Linux x86_64,58.82352941,62e2b5712f1bcd652ce6bff8,64d2fd46c836a06233681665,64dc7ec3201c200f1b779d6e,,,,,,,sngl,resources/DR.BMP,resources/Empty.png,Door4,-0.297222222,0.016666667,1,0,0,0.797,optionLeft,60,9000,4,36,0,36,0,1,,,,,,,,,,,,,,,,,,,,,,,,,,,,,,,,,,,,,,,
,,,,,,,,2023-08-16_08h46.49.843,HF_wild_card,2022.2.4,Linux x86_64,58.82352941,62e2b5712f1bcd652ce6bff8,64d2fd46c836a06233681665,64dc7ec3201c200f1b779d6e,,,,,,,sngl,resources/Empty.png,resources/DB.BMP,Door1,0.270833333,-0.020833333,1,0,0,0.763,optionRight,30,9030,4,37,0,37,0,1,,,,,,,,,,,,,,,,,,,,,,,,,,,,,,,,,,,,,,,
,,,,,,,,2023-08-16_08h46.49.843,HF_wild_card,2022.2.4,Linux x86_64,58.82352941,62e2b5712f1bcd652ce6bff8,64d2fd46c836a06233681665,64dc7ec3201c200f1b779d6e,,,,,,,decisionTrl,resources/DG.BMP,resources/DB.BMP,Door1,0.283333333,-0.019444444,1,0,0,1.514,optionRight,30,9060,4,38,0,38,0,1,,,,,,,,,,,,,,,,,,,,,,,,,,,,,,,,,,,,,,,
,,,,,,,,2023-08-16_08h46.49.843,HF_wild_card,2022.2.4,Linux x86_64,58.82352941,62e2b5712f1bcd652ce6bff8,64d2fd46c836a06233681665,64dc7ec3201c200f1b779d6e,,,,,,,decisionTrl,resources/DBN.BMP,resources/DR.BMP,Door3,-0.230555556,-0.002777778,1,0,0,2.094,optionLeft,70,9130,4,39,0,39,0,1,,,,,,,,,,,,,,,,,,,,,,,,,,,,,,,,,,,,,,,
,,,,,,,,2023-08-16_08h46.49.843,HF_wild_card,2022.2.4,Linux x86_64,58.82352941,62e2b5712f1bcd652ce6bff8,64d2fd46c836a06233681665,64dc7ec3201c200f1b779d6e,,,,,,,decisionTrl,resources/DBN.BMP,resources/DR.BMP,Door3,-0.254166667,0.025,1,0,0,0.827,optionLeft,70,9200,4,40,0,40,0,1,,,,,,,,,,,,,,,,,,,,,,,,,,,,,,,,,,,,,,,
,,,,,,,,2023-08-16_08h46.49.843,HF_wild_card,2022.2.4,Linux x86_64,58.82352941,62e2b5712f1bcd652ce6bff8,64d2fd46c836a06233681665,64dc7ec3201c200f1b779d6e,,,,,,,sngl,resources/DBN.BMP,resources/Empty.png,Door3,-0.318055556,-0.006944444,1,0,0,0.715,optionLeft,70,9270,4,41,0,41,0,1,,,,,,,,,,,,,,,,,,,,,,,,,,,,,,,,,,,,,,,
,,,,,,,,2023-08-16_08h46.49.843,HF_wild_card,2022.2.4,Linux x86_64,58.82352941,62e2b5712f1bcd652ce6bff8,64d2fd46c836a06233681665,64dc7ec3201c200f1b779d6e,,,,,,,ctch,resources/DY.BMP,resources/DBN.BMP,Door3,0.336111111,-0.044444444,1,0,0,1.031,optionRight,70,9340,4,42,0,42,0,1,,,,,,,,,,,,,,,,,,,,,,,,,,,,,,,,,,,,,,,
,,,,,,,,2023-08-16_08h46.49.843,HF_wild_card,2022.2.4,Linux x86_64,58.82352941,62e2b5712f1bcd652ce6bff8,64d2fd46c836a06233681665,64dc7ec3201c200f1b779d6e,,,,,,,decisionTrl,resources/DB.BMP,resources/DY.BMP,Door1,-0.313888889,-0.0375,1,0,0,1.785,optionLeft,30,9370,4,43,0,43,0,1,,,,,,,,,,,,,,,,,,,,,,,,,,,,,,,,,,,,,,,
,,,,,,,,2023-08-16_08h46.49.843,HF_wild_card,2022.2.4,Linux x86_64,58.82352941,62e2b5712f1bcd652ce6bff8,64d2fd46c836a06233681665,64dc7ec3201c200f1b779d6e,,,,,,,,,,,,,,,,,,,,,,,,,,3,0,3,0,1,,,,,,,,,,,,,,,,,,,,,,,,,,,,,,,,,,
,,,,,,,,2023-08-16_08h46.49.843,HF_wild_card,2022.2.4,Linux x86_64,58.82352941,62e2b5712f1bcd652ce6bff8,64d2fd46c836a06233681665,64dc7ec3201c200f1b779d6e,,,,,,,sngl,resources/DG.BMP,resources/Empty.png,WildCard_Ex,-0.261111111,-0.202777778,1,0,0,0.945,optionLeft,95,9465,5,0,0,0,0,1,,,,,,,,,,,,,,,,,,,,,,,,,,,,,,,,,,,,,,,
,,,,,,,,2023-08-16_08h46.49.843,HF_wild_card,2022.2.4,Linux x86_64,58.82352941,62e2b5712f1bcd652ce6bff8,64d2fd46c836a06233681665,64dc7ec3201c200f1b779d6e,,,,,,,decisionTrl,resources/DBN.BMP,resources/DR.BMP,Door3,-0.272222222,0.033333333,1,0,0,0.863,optionLeft,70,9535,5,1,0,1,0,1,,,,,,,,,,,,,,,,,,,,,,,,,,,,,,,,,,,,,,,
,,,,,,,,2023-08-16_08h46.49.843,HF_wild_card,2022.2.4,Linux x86_64,58.82352941,62e2b5712f1bcd652ce6bff8,64d2fd46c836a06233681665,64dc7ec3201c200f1b779d6e,,,,,,,decisionTrl,resources/DY.BMP,resources/DB.BMP,Door2,-0.276388889,0.033333333,1,0,0,1.362,optionLeft,20,9555,5,2,0,2,0,1,,,,,,,,,,,,,,,,,,,,,,,,,,,,,,,,,,,,,,,
,,,,,,,,2023-08-16_08h46.49.843,HF_wild_card,2022.2.4,Linux x86_64,58.82352941,62e2b5712f1bcd652ce6bff8,64d2fd46c836a06233681665,64dc7ec3201c200f1b779d6e,,,,,,,ctch,resources/DB.BMP,resources/DR.BMP,Door4,0.576388889,-0.009722222,1,0,0,1.33,optionRight,60,9615,5,3,0,3,0,1,,,,,,,,,,,,,,,,,,,,,,,,,,,,,,,,,,,,,,,
,,,,,,,,2023-08-16_08h46.49.843,HF_wild_card,2022.2.4,Linux x86_64,58.82352941,62e2b5712f1bcd652ce6bff8,64d2fd46c836a06233681665,64dc7ec3201c200f1b779d6e,,,,,,,decisionTrl,resources/DB.BMP,resources/DG.BMP,Door1,-0.386111111,-0.022222222,1,0,0,2.167,optionLeft,30,9645,5,4,0,4,0,1,,,,,,,,,,,,,,,,,,,,,,,,,,,,,,,,,,,,,,,
,,,,,,,,2023-08-16_08h46.49.843,HF_wild_card,2022.2.4,Linux x86_64,58.82352941,62e2b5712f1bcd652ce6bff8,64d2fd46c836a06233681665,64dc7ec3201c200f1b779d6e,,,,,,,decisionTrl,resources/DBN.BMP,resources/DR.BMP,Door3,-0.336111111,0,1,0,0,1.145,optionLeft,70,9715,5,5,0,5,0,1,,,,,,,,,,,,,,,,,,,,,,,,,,,,,,,,,,,,,,,
,,,,,,,,2023-08-16_08h46.49.843,HF_wild_card,2022.2.4,Linux x86_64,58.82352941,62e2b5712f1bcd652ce6bff8,64d2fd46c836a06233681665,64dc7ec3201c200f1b779d6e,,,,,,,sngl,resources/Empty.png,resources/DB.BMP,Door1,0.393055556,0.025,1,0,0,0.834,optionRight,30,9745,5,6,0,6,0,1,,,,,,,,,,,,,,,,,,,,,,,,,,,,,,,,,,,,,,,
,,,,,,,,2023-08-16_08h46.49.843,HF_wild_card,2022.2.4,Linux x86_64,58.82352941,62e2b5712f1bcd652ce6bff8,64d2fd46c836a06233681665,64dc7ec3201c200f1b779d6e,,,,,,,decisionTrl,resources/DY.BMP,resources/DB.BMP,Door1,0.265277778,-0.040277778,1,0,0,2.516,optionRight,30,9775,5,7,0,7,0,1,,,,,,,,,,,,,,,,,,,,,,,,,,,,,,,,,,,,,,,
,,,,,,,,2023-08-16_08h46.49.843,HF_wild_card,2022.2.4,Linux x86_64,58.82352941,62e2b5712f1bcd652ce6bff8,64d2fd46c836a06233681665,64dc7ec3201c200f1b779d6e,,,,,,,decisionTrl,resources/DG.BMP,resources/DR.BMP,Door4,0.288888889,-0.025,1,0,0,1.244,optionRight,60,9835,5,8,0,8,0,1,,,,,,,,,,,,,,,,,,,,,,,,,,,,,,,,,,,,,,,
,,,,,,,,2023-08-16_08h46.49.843,HF_wild_card,2022.2.4,Linux x86_64,58.82352941,62e2b5712f1bcd652ce6bff8,64d2fd46c836a06233681665,64dc7ec3201c200f1b779d6e,,,,,,,decisionTrl,resources/DG.BMP,resources/DY.BMP,Door2,0.323611111,-0.015277778,1,0,0,1.714,optionRight,40,9875,5,9,0,9,0,1,,,,,,,,,,,,,,,,,,,,,,,,,,,,,,,,,,,,,,,
,,,,,,,,2023-08-16_08h46.49.843,HF_wild_card,2022.2.4,Linux x86_64,58.82352941,62e2b5712f1bcd652ce6bff8,64d2fd46c836a06233681665,64dc7ec3201c200f1b779d6e,,,,,,,ctch,resources/DBN.BMP,resources/DY.BMP,Door3,-0.3,0.029166667,1,0,0,0.913,optionLeft,70,9945,5,10,0,10,0,1,,,,,,,,,,,,,,,,,,,,,,,,,,,,,,,,,,,,,,,
,,,,,,,,2023-08-16_08h46.49.843,HF_wild_card,2022.2.4,Linux x86_64,58.82352941,62e2b5712f1bcd652ce6bff8,64d2fd46c836a06233681665,64dc7ec3201c200f1b779d6e,,,,,,,ctch,resources/DBN.BMP,resources/DY.BMP,Door3,-0.290277778,0.023611111,1,0,0,0.798,optionLeft,70,10015,5,11,0,11,0,1,,,,,,,,,,,,,,,,,,,,,,,,,,,,,,,,,,,,,,,
,,,,,,,,2023-08-16_08h46.49.843,HF_wild_card,2022.2.4,Linux x86_64,58.82352941,62e2b5712f1bcd652ce6bff8,64d2fd46c836a06233681665,64dc7ec3201c200f1b779d6e,,,,,,,sngl,resources/DR.BMP,resources/Empty.png,Door4,-0.355555556,0.020833333,1,0,0,0.732,optionLeft,80,10095,5,12,0,12,0,1,,,,,,,,,,,,,,,,,,,,,,,,,,,,,,,,,,,,,,,
,,,,,,,,2023-08-16_08h46.49.843,HF_wild_card,2022.2.4,Linux x86_64,58.82352941,62e2b5712f1bcd652ce6bff8,64d2fd46c836a06233681665,64dc7ec3201c200f1b779d6e,,,,,,,ctch,resources/DR.BMP,resources/DB.BMP,Door4,-0.283333333,0.006944444,1,0,0,0.73,optionLeft,60,10155,5,13,0,13,0,1,,,,,,,,,,,,,,,,,,,,,,,,,,,,,,,,,,,,,,,
,,,,,,,,2023-08-16_08h46.49.843,HF_wild_card,2022.2.4,Linux x86_64,58.82352941,62e2b5712f1bcd652ce6bff8,64d2fd46c836a06233681665,64dc7ec3201c200f1b779d6e,,,,,,,decisionTrl,resources/DY.BMP,resources/DG.BMP,Door2,-0.322222222,0.023611111,1,0,0,2.164,optionLeft,40,10195,5,14,0,14,0,1,,,,,,,,,,,,,,,,,,,,,,,,,,,,,,,,,,,,,,,
,,,,,,,,2023-08-16_08h46.49.843,HF_wild_card,2022.2.4,Linux x86_64,58.82352941,62e2b5712f1bcd652ce6bff8,64d2fd46c836a06233681665,64dc7ec3201c200f1b779d6e,,,,,,,ctch,resources/DB.BMP,resources/DR.BMP,Door4,0.256944444,0.016666667,1,0,0,1.865,optionRight,60,10255,5,15,0,15,0,1,,,,,,,,,,,,,,,,,,,,,,,,,,,,,,,,,,,,,,,
,,,,,,,,2023-08-16_08h46.49.843,HF_wild_card,2022.2.4,Linux x86_64,58.82352941,62e2b5712f1bcd652ce6bff8,64d2fd46c836a06233681665,64dc7ec3201c200f1b779d6e,,,,,,,decisionTrl,resources/DB.BMP,resources/DY.BMP,Door1,-0.326388889,-0.029166667,1,0,0,1.515,optionLeft,30,10285,5,16,0,16,0,1,,,,,,,,,,,,,,,,,,,,,,,,,,,,,,,,,,,,,,,
,,,,,,,,2023-08-16_08h46.49.843,HF_wild_card,2022.2.4,Linux x86_64,58.82352941,62e2b5712f1bcd652ce6bff8,64d2fd46c836a06233681665,64dc7ec3201c200f1b779d6e,,,,,,,decisionTrl,resources/DR.BMP,resources/DBN.BMP,Door3,0.313888889,0.0125,1,0,0,0.812,optionRight,70,10355,5,17,0,17,0,1,,,,,,,,,,,,,,,,,,,,,,,,,,,,,,,,,,,,,,,
,,,,,,,,2023-08-16_08h46.49.843,HF_wild_card,2022.2.4,Linux x86_64,58.82352941,62e2b5712f1bcd652ce6bff8,64d2fd46c836a06233681665,64dc7ec3201c200f1b779d6e,,,,,,,decisionTrl,resources/DR.BMP,resources/DBN.BMP,Door4,-0.394444444,0.027777778,1,0,0,0.695,optionLeft,80,10435,5,18,0,18,0,1,,,,,,,,,,,,,,,,,,,,,,,,,,,,,,,,,,,,,,,
,,,,,,,,2023-08-16_08h46.49.843,HF_wild_card,2022.2.4,Linux x86_64,58.82352941,62e2b5712f1bcd652ce6bff8,64d2fd46c836a06233681665,64dc7ec3201c200f1b779d6e,,,,,,,decisionTrl,resources/DBN.BMP,resources/DR.BMP,Door3,-0.415277778,0.020833333,1,0,0,1.482,optionLeft,70,10505,5,19,0,19,0,1,,,,,,,,,,,,,,,,,,,,,,,,,,,,,,,,,,,,,,,
,,,,,,,,2023-08-16_08h46.49.843,HF_wild_card,2022.2.4,Linux x86_64,58.82352941,62e2b5712f1bcd652ce6bff8,64d2fd46c836a06233681665,64dc7ec3201c200f1b779d6e,,,,,,,ctch,resources/DY.BMP,resources/DBN.BMP,Door3,0.344444444,-0.022222222,1,0,0,1.034,optionRight,70,10575,5,20,0,20,0,1,,,,,,,,,,,,,,,,,,,,,,,,,,,,,,,,,,,,,,,
,,,,,,,,2023-08-16_08h46.49.843,HF_wild_card,2022.2.4,Linux x86_64,58.82352941,62e2b5712f1bcd652ce6bff8,64d2fd46c836a06233681665,64dc7ec3201c200f1b779d6e,,,,,,,sngl,resources/DB.BMP,resources/Empty.png,Door1,-0.227777778,0.009722222,1,0,0,0.761,optionLeft,30,10605,5,21,0,21,0,1,,,,,,,,,,,,,,,,,,,,,,,,,,,,,,,,,,,,,,,
,,,,,,,,2023-08-16_08h46.49.843,HF_wild_card,2022.2.4,Linux x86_64,58.82352941,62e2b5712f1bcd652ce6bff8,64d2fd46c836a06233681665,64dc7ec3201c200f1b779d6e,,,,,,,sngl,resources/Empty.png,resources/DG.BMP,WildCard_Ex,0.334722222,0.015277778,1,0,0,0.794,optionRight,5,10610,5,22,0,22,0,1,,,,,,,,,,,,,,,,,,,,,,,,,,,,,,,,,,,,,,,
,,,,,,,,2023-08-16_08h46.49.843,HF_wild_card,2022.2.4,Linux x86_64,58.82352941,62e2b5712f1bcd652ce6bff8,64d2fd46c836a06233681665,64dc7ec3201c200f1b779d6e,,,,,,,decisionTrl,resources/DR.BMP,resources/DG.BMP,Door4,-0.265277778,0.013888889,1,0,0,0.761,optionLeft,60,10670,5,23,0,23,0,1,,,,,,,,,,,,,,,,,,,,,,,,,,,,,,,,,,,,,,,
,,,,,,,,2023-08-16_08h46.49.843,HF_wild_card,2022.2.4,Linux x86_64,58.82352941,62e2b5712f1bcd652ce6bff8,64d2fd46c836a06233681665,64dc7ec3201c200f1b779d6e,,,,,,,sngl,resources/DG.BMP,resources/Empty.png,WildCard_Ex,-0.229166667,0.030555556,1,0,0,0.746,optionLeft,5,10675,5,24,0,24,0,1,,,,,,,,,,,,,,,,,,,,,,,,,,,,,,,,,,,,,,,
,,,,,,,,2023-08-16_08h46.49.843,HF_wild_card,2022.2.4,Linux x86_64,58.82352941,62e2b5712f1bcd652ce6bff8,64d2fd46c836a06233681665,64dc7ec3201c200f1b779d6e,,,,,,,sngl,resources/Empty.png,resources/DY.BMP,Door2,0.35,0.005555556,1,0,0,0.764,optionRight,20,10695,5,25,0,25,0,1,,,,,,,,,,,,,,,,,,,,,,,,,,,,,,,,,,,,,,,
,,,,,,,,2023-08-16_08h46.49.843,HF_wild_card,2022.2.4,Linux x86_64,58.82352941,62e2b5712f1bcd652ce6bff8,64d2fd46c836a06233681665,64dc7ec3201c200f1b779d6e,,,,,,,decisionTrl,resources/DBN.BMP,resources/DR.BMP,Door4,0.273611111,0.025,1,0,0,1.06,optionRight,80,10775,5,26,0,26,0,1,,,,,,,,,,,,,,,,,,,,,,,,,,,,,,,,,,,,,,,
,,,,,,,,2023-08-16_08h46.49.843,HF_wild_card,2022.2.4,Linux x86_64,58.82352941,62e2b5712f1bcd652ce6bff8,64d2fd46c836a06233681665,64dc7ec3201c200f1b779d6e,,,,,,,decisionTrl,resources/DB.BMP,resources/DY.BMP,Door1,-0.502777778,-0.001388889,1,0,0,2.281,optionLeft,30,10805,5,27,0,27,0,1,,,,,,,,,,,,,,,,,,,,,,,,,,,,,,,,,,,,,,,
,,,,,,,,2023-08-16_08h46.49.843,HF_wild_card,2022.2.4,Linux x86_64,58.82352941,62e2b5712f1bcd652ce6bff8,64d2fd46c836a06233681665,64dc7ec3201c200f1b779d6e,,,,,,,sngl,resources/DY.BMP,resources/Empty.png,Door2,-0.206944444,0.018055556,1,0,0,0.731,optionLeft,40,10845,5,28,0,28,0,1,,,,,,,,,,,,,,,,,,,,,,,,,,,,,,,,,,,,,,,
,,,,,,,,2023-08-16_08h46.49.843,HF_wild_card,2022.2.4,Linux x86_64,58.82352941,62e2b5712f1bcd652ce6bff8,64d2fd46c836a06233681665,64dc7ec3201c200f1b779d6e,,,,,,,decisionTrl,resources/DR.BMP,resources/DBN.BMP,Door3,0.331944444,-0.002777778,1,0,0,2.216,optionRight,70,10915,5,29,0,29,0,1,,,,,,,,,,,,,,,,,,,,,,,,,,,,,,,,,,,,,,,
,,,,,,,,2023-08-16_08h46.49.843,HF_wild_card,2022.2.4,Linux x86_64,58.82352941,62e2b5712f1bcd652ce6bff8,64d2fd46c836a06233681665,64dc7ec3201c200f1b779d6e,,,,,,,decisionTrl,resources/DB.BMP,resources/DY.BMP,Door2,0.270833333,0.013888889,1,0,0,1.762,optionRight,20,10935,5,30,0,30,0,1,,,,,,,,,,,,,,,,,,,,,,,,,,,,,,,,,,,,,,,
,,,,,,,,2023-08-16_08h46.49.843,HF_wild_card,2022.2.4,Linux x86_64,58.82352941,62e2b5712f1bcd652ce6bff8,64d2fd46c836a06233681665,64dc7ec3201c200f1b779d6e,,,,,,,decisionTrl,resources/DY.BMP,resources/DB.BMP,Door1,0.286111111,-0.001388889,1,0,0,1.281,optionRight,30,10965,5,31,0,31,0,1,,,,,,,,,,,,,,,,,,,,,,,,,,,,,,,,,,,,,,,
,,,,,,,,2023-08-16_08h46.49.843,HF_wild_card,2022.2.4,Linux x86_64,58.82352941,62e2b5712f1bcd652ce6bff8,64d2fd46c836a06233681665,64dc7ec3201c200f1b779d6e,,,,,,,ctch,resources/DR.BMP,resources/DB.BMP,Door1,0.268055556,0.005555556,1,0,0,0.861,optionRight,30,10995,5,32,0,32,0,1,,,,,,,,,,,,,,,,,,,,,,,,,,,,,,,,,,,,,,,
,,,,,,,,2023-08-16_08h46.49.843,HF_wild_card,2022.2.4,Linux x86_64,58.82352941,62e2b5712f1bcd652ce6bff8,64d2fd46c836a06233681665,64dc7ec3201c200f1b779d6e,,,,,,,sngl,resources/Empty.png,resources/DR.BMP,Door4,0.327777778,-0.001388889,1,0,0,0.73,optionRight,60,11055,5,33,0,33,0,1,,,,,,,,,,,,,,,,,,,,,,,,,,,,,,,,,,,,,,,
,,,,,,,,2023-08-16_08h46.49.843,HF_wild_card,2022.2.4,Linux x86_64,58.82352941,62e2b5712f1bcd652ce6bff8,64d2fd46c836a06233681665,64dc7ec3201c200f1b779d6e,,,,,,,decisionTrl,resources/DY.BMP,resources/DB.BMP,Door2,-0.168055556,0.025,1,0,0,3.029,optionLeft,20,11075,5,34,0,34,0,1,,,,,,,,,,,,,,,,,,,,,,,,,,,,,,,,,,,,,,,
,,,,,,,,2023-08-16_08h46.49.843,HF_wild_card,2022.2.4,Linux x86_64,58.82352941,62e2b5712f1bcd652ce6bff8,64d2fd46c836a06233681665,64dc7ec3201c200f1b779d6e,,,,,,,sngl,resources/Empty.png,resources/DBN.BMP,Door3,0.477777778,0.073611111,1,0,0,0.73,optionRight,70,11145,5,35,0,35,0,1,,,,,,,,,,,,,,,,,,,,,,,,,,,,,,,,,,,,,,,
,,,,,,,,2023-08-16_08h46.49.843,HF_wild_card,2022.2.4,Linux x86_64,58.82352941,62e2b5712f1bcd652ce6bff8,64d2fd46c836a06233681665,64dc7ec3201c200f1b779d6e,,,,,,,decisionTrl,resources/DBN.BMP,resources/DG.BMP,Door3,-0.248611111,-0.004166667,1,0,0,0.781,optionLeft,70,11215,5,36,0,36,0,1,,,,,,,,,,,,,,,,,,,,,,,,,,,,,,,,,,,,,,,
,,,,,,,,2023-08-16_08h46.49.843,HF_wild_card,2022.2.4,Linux x86_64,58.82352941,62e2b5712f1bcd652ce6bff8,64d2fd46c836a06233681665,64dc7ec3201c200f1b779d6e,,,,,,,ctch,resources/DY.BMP,resources/DBN.BMP,Door3,0.359722222,0.048611111,1,0,0,0.865,optionRight,70,11285,5,37,0,37,0,1,,,,,,,,,,,,,,,,,,,,,,,,,,,,,,,,,,,,,,,
,,,,,,,,2023-08-16_08h46.49.843,HF_wild_card,2022.2.4,Linux x86_64,58.82352941,62e2b5712f1bcd652ce6bff8,64d2fd46c836a06233681665,64dc7ec3201c200f1b779d6e,,,,,,,sngl,resources/Empty.png,resources/DG.BMP,WildCard_Ex,0.351388889,0.0375,1,0,0,1.075,optionRight,95,11380,5,38,0,38,0,1,,,,,,,,,,,,,,,,,,,,,,,,,,,,,,,,,,,,,,,
,,,,,,,,2023-08-16_08h46.49.843,HF_wild_card,2022.2.4,Linux x86_64,58.82352941,62e2b5712f1bcd652ce6bff8,64d2fd46c836a06233681665,64dc7ec3201c200f1b779d6e,,,,,,,decisionTrl,resources/DG.BMP,resources/DBN.BMP,Door3,0.273611111,0.026388889,1,0,0,0.928,optionRight,70,11450,5,39,0,39,0,1,,,,,,,,,,,,,,,,,,,,,,,,,,,,,,,,,,,,,,,
,,,,,,,,2023-08-16_08h46.49.843,HF_wild_card,2022.2.4,Linux x86_64,58.82352941,62e2b5712f1bcd652ce6bff8,64d2fd46c836a06233681665,64dc7ec3201c200f1b779d6e,,,,,,,decisionTrl,resources/DB.BMP,resources/DY.BMP,Door1,-0.298611111,-0.033333333,1,0,0,1.73,optionLeft,30,11480,5,40,0,40,0,1,,,,,,,,,,,,,,,,,,,,,,,,,,,,,,,,,,,,,,,
,,,,,,,,2023-08-16_08h46.49.843,HF_wild_card,2022.2.4,Linux x86_64,58.82352941,62e2b5712f1bcd652ce6bff8,64d2fd46c836a06233681665,64dc7ec3201c200f1b779d6e,,,,,,,sngl,resources/DBN.BMP,resources/Empty.png,Door3,-0.276388889,-0.019444444,1,0,0,1.246,optionLeft,70,11550,5,41,0,41,0,1,,,,,,,,,,,,,,,,,,,,,,,,,,,,,,,,,,,,,,,
,,,,,,,,2023-08-16_08h46.49.843,HF_wild_card,2022.2.4,Linux x86_64,58.82352941,62e2b5712f1bcd652ce6bff8,64d2fd46c836a06233681665,64dc7ec3201c200f1b779d6e,,,,,,,decisionTrl,resources/DR.BMP,resources/DBN.BMP,Door3,0.252777778,0.004166667,1,0,0,3.898,optionRight,70,11620,5,42,0,42,0,1,,,,,,,,,,,,,,,,,,,,,,,,,,,,,,,,,,,,,,,
,,,,,,,,2023-08-16_08h46.49.843,HF_wild_card,2022.2.4,Linux x86_64,58.82352941,62e2b5712f1bcd652ce6bff8,64d2fd46c836a06233681665,64dc7ec3201c200f1b779d6e,,,,,,,decisionTrl,resources/DG.BMP,resources/DB.BMP,Door1,0.297222222,0.013888889,1,0,0,1.446,optionRight,30,11650,5,43,0,43,0,1,,,,,,,,,,,,,,,,,,,,,,,,,,,,,,,,,,,,,,,
,,,,,,,,2023-08-16_08h46.49.843,HF_wild_card,2022.2.4,Linux x86_64,58.82352941,62e2b5712f1bcd652ce6bff8,64d2fd46c836a06233681665,64dc7ec3201c200f1b779d6e,,,,,,,,,,,,,,,,,,,,,,,,,,4,0,4,0,1,,,,,,,,,,,,,,,,,,,,,,,,,,,,,,,,,,
,,,,,,,,2023-08-16_08h46.49.843,HF_wild_card,2022.2.4,Linux x86_64,58.82352941,62e2b5712f1bcd652ce6bff8,64d2fd46c836a06233681665,64dc7ec3201c200f1b779d6e,,,,,,,decisionTrl,resources/DY.BMP,resources/DB.BMP,Door1,0.241666667,-0.115277778,1,0,0,2.179,optionRight,30,11680,6,0,0,0,0,1,,,,,,,,,,,,,,,,,,,,,,,,,,,,,,,,,,,,,,,
,,,,,,,,2023-08-16_08h46.49.843,HF_wild_card,2022.2.4,Linux x86_64,58.82352941,62e2b5712f1bcd652ce6bff8,64d2fd46c836a06233681665,64dc7ec3201c200f1b779d6e,,,,,,,sngl,resources/DBN.BMP,resources/Empty.png,Door3,-0.248611111,-0.031944444,1,0,0,0.689,optionLeft,70,11750,6,1,0,1,0,1,,,,,,,,,,,,,,,,,,,,,,,,,,,,,,,,,,,,,,,
,,,,,,,,2023-08-16_08h46.49.843,HF_wild_card,2022.2.4,Linux x86_64,58.82352941,62e2b5712f1bcd652ce6bff8,64d2fd46c836a06233681665,64dc7ec3201c200f1b779d6e,,,,,,,decisionTrl,resources/DB.BMP,resources/DY.BMP,Door1,-0.211111111,-0.022222222,1,0,0,0.996,optionLeft,30,11780,6,2,0,2,0,1,,,,,,,,,,,,,,,,,,,,,,,,,,,,,,,,,,,,,,,
,,,,,,,,2023-08-16_08h46.49.843,HF_wild_card,2022.2.4,Linux x86_64,58.82352941,62e2b5712f1bcd652ce6bff8,64d2fd46c836a06233681665,64dc7ec3201c200f1b779d6e,,,,,,,sngl,resources/DG.BMP,resources/Empty.png,WildCard_Ex,-0.290277778,-0.006944444,1,0,0,0.778,optionLeft,95,11875,6,3,0,3,0,1,,,,,,,,,,,,,,,,,,,,,,,,,,,,,,,,,,,,,,,
,,,,,,,,2023-08-16_08h46.49.843,HF_wild_card,2022.2.4,Linux x86_64,58.82352941,62e2b5712f1bcd652ce6bff8,64d2fd46c836a06233681665,64dc7ec3201c200f1b779d6e,,,,,,,decisionTrl,resources/DR.BMP,resources/DBN.BMP,Door4,-0.194444444,-0.051388889,1,0,0,2.147,optionLeft,80,11955,6,4,0,4,0,1,,,,,,,,,,,,,,,,,,,,,,,,,,,,,,,,,,,,,,,
,,,,,,,,2023-08-16_08h46.49.843,HF_wild_card,2022.2.4,Linux x86_64,58.82352941,62e2b5712f1bcd652ce6bff8,64d2fd46c836a06233681665,64dc7ec3201c200f1b779d6e,,,,,,,decisionTrl,resources/DY.BMP,resources/DB.BMP,Door1,0.311111111,0.018055556,1,0,0,1.582,optionRight,30,11985,6,5,0,5,0,1,,,,,,,,,,,,,,,,,,,,,,,,,,,,,,,,,,,,,,,
,,,,,,,,2023-08-16_08h46.49.843,HF_wild_card,2022.2.4,Linux x86_64,58.82352941,62e2b5712f1bcd652ce6bff8,64d2fd46c836a06233681665,64dc7ec3201c200f1b779d6e,,,,,,,ctch,resources/DB.BMP,resources/DR.BMP,Door4,0.511111111,-0.063888889,1,0,0,0.979,optionRight,60,12045,6,6,0,6,0,1,,,,,,,,,,,,,,,,,,,,,,,,,,,,,,,,,,,,,,,
,,,,,,,,2023-08-16_08h46.49.843,HF_wild_card,2022.2.4,Linux x86_64,58.82352941,62e2b5712f1bcd652ce6bff8,64d2fd46c836a06233681665,64dc7ec3201c200f1b779d6e,,,,,,,decisionTrl,resources/DY.BMP,resources/DB.BMP,Door1,0.270833333,-0.006944444,1,0,0,0.982,optionRight,30,12075,6,7,0,7,0,1,,,,,,,,,,,,,,,,,,,,,,,,,,,,,,,,,,,,,,,
,,,,,,,,2023-08-16_08h46.49.843,HF_wild_card,2022.2.4,Linux x86_64,58.82352941,62e2b5712f1bcd652ce6bff8,64d2fd46c836a06233681665,64dc7ec3201c200f1b779d6e,,,,,,,decisionTrl,resources/DR.BMP,resources/DBN.BMP,Door4,-0.422222222,-0.119444444,1,0,0,1.798,optionLeft,80,12155,6,8,0,8,0,1,,,,,,,,,,,,,,,,,,,,,,,,,,,,,,,,,,,,,,,
,,,,,,,,2023-08-16_08h46.49.843,HF_wild_card,2022.2.4,Linux x86_64,58.82352941,62e2b5712f1bcd652ce6bff8,64d2fd46c836a06233681665,64dc7ec3201c200f1b779d6e,,,,,,,sngl,resources/DB.BMP,resources/Empty.png,Door1,-0.277777778,-0.027777778,1,0,0,0.749,optionLeft,30,12185,6,9,0,9,0,1,,,,,,,,,,,,,,,,,,,,,,,,,,,,,,,,,,,,,,,
,,,,,,,,2023-08-16_08h46.49.843,HF_wild_card,2022.2.4,Linux x86_64,58.82352941,62e2b5712f1bcd652ce6bff8,64d2fd46c836a06233681665,64dc7ec3201c200f1b779d6e,,,,,,,ctch,resources/DB.BMP,resources/DR.BMP,Door4,0.313888889,-0.0125,1,0,0,1.36,optionRight,80,12265,6,10,0,10,0,1,,,,,,,,,,,,,,,,,,,,,,,,,,,,,,,,,,,,,,,
,,,,,,,,2023-08-16_08h46.49.843,HF_wild_card,2022.2.4,Linux x86_64,58.82352941,62e2b5712f1bcd652ce6bff8,64d2fd46c836a06233681665,64dc7ec3201c200f1b779d6e,,,,,,,decisionTrl,resources/DG.BMP,resources/DY.BMP,Door2,0.3,-0.008333333,1,0,0,1.132,optionRight,40,12305,6,11,0,11,0,1,,,,,,,,,,,,,,,,,,,,,,,,,,,,,,,,,,,,,,,
,,,,,,,,2023-08-16_08h46.49.843,HF_wild_card,2022.2.4,Linux x86_64,58.82352941,62e2b5712f1bcd652ce6bff8,64d2fd46c836a06233681665,64dc7ec3201c200f1b779d6e,,,,,,,sngl,resources/Empty.png,resources/DG.BMP,WildCard_Ex,0.245833333,0.002777778,1,0,0,0.81,optionRight,5,12310,6,12,0,12,0,1,,,,,,,,,,,,,,,,,,,,,,,,,,,,,,,,,,,,,,,
,,,,,,,,2023-08-16_08h46.49.843,HF_wild_card,2022.2.4,Linux x86_64,58.82352941,62e2b5712f1bcd652ce6bff8,64d2fd46c836a06233681665,64dc7ec3201c200f1b779d6e,,,,,,,decisionTrl,resources/DR.BMP,resources/DBN.BMP,Door4,-0.325,0.011111111,1,0,0,1.714,optionLeft,80,12390,6,13,0,13,0,1,,,,,,,,,,,,,,,,,,,,,,,,,,,,,,,,,,,,,,,
,,,,,,,,2023-08-16_08h46.49.843,HF_wild_card,2022.2.4,Linux x86_64,58.82352941,62e2b5712f1bcd652ce6bff8,64d2fd46c836a06233681665,64dc7ec3201c200f1b779d6e,,,,,,,sngl,resources/DY.BMP,resources/Empty.png,Door2,-0.208333333,0.008333333,1,0,0,0.858,optionLeft,20,12410,6,14,0,14,0,1,,,,,,,,,,,,,,,,,,,,,,,,,,,,,,,,,,,,,,,
,,,,,,,,2023-08-16_08h46.49.843,HF_wild_card,2022.2.4,Linux x86_64,58.82352941,62e2b5712f1bcd652ce6bff8,64d2fd46c836a06233681665,64dc7ec3201c200f1b779d6e,,,,,,,decisionTrl,resources/DBN.BMP,resources/DR.BMP,Door4,0.252777778,-0.015277778,1,0,0,1.182,optionRight,60,12470,6,15,0,15,0,1,,,,,,,,,,,,,,,,,,,,,,,,,,,,,,,,,,,,,,,
,,,,,,,,2023-08-16_08h46.49.843,HF_wild_card,2022.2.4,Linux x86_64,58.82352941,62e2b5712f1bcd652ce6bff8,64d2fd46c836a06233681665,64dc7ec3201c200f1b779d6e,,,,,,,decisionTrl,resources/DY.BMP,resources/DG.BMP,Door2,-0.480555556,0.001388889,1,0,0,2.001,optionLeft,20,12490,6,16,0,16,0,1,,,,,,,,,,,,,,,,,,,,,,,,,,,,,,,,,,,,,,,
,,,,,,,,2023-08-16_08h46.49.843,HF_wild_card,2022.2.4,Linux x86_64,58.82352941,62e2b5712f1bcd652ce6bff8,64d2fd46c836a06233681665,64dc7ec3201c200f1b779d6e,,,,,,,ctch,resources/DBN.BMP,resources/DY.BMP,Door3,-0.269444444,0.015277778,1,0,0,0.861,optionLeft,70,12560,6,17,0,17,0,1,,,,,,,,,,,,,,,,,,,,,,,,,,,,,,,,,,,,,,,
,,,,,,,,2023-08-16_08h46.49.843,HF_wild_card,2022.2.4,Linux x86_64,58.82352941,62e2b5712f1bcd652ce6bff8,64d2fd46c836a06233681665,64dc7ec3201c200f1b779d6e,,,,,,,decisionTrl,resources/DBN.BMP,resources/DR.BMP,Door3,-0.383333333,0.0125,1,0,0,1.98,optionLeft,70,12630,6,18,0,18,0,1,,,,,,,,,,,,,,,,,,,,,,,,,,,,,,,,,,,,,,,
,,,,,,,,2023-08-16_08h46.49.843,HF_wild_card,2022.2.4,Linux x86_64,58.82352941,62e2b5712f1bcd652ce6bff8,64d2fd46c836a06233681665,64dc7ec3201c200f1b779d6e,,,,,,,decisionTrl,resources/DB.BMP,resources/DY.BMP,Door1,-0.325,-0.019444444,1,0,0,2.431,optionLeft,30,12660,6,19,0,19,0,1,,,,,,,,,,,,,,,,,,,,,,,,,,,,,,,,,,,,,,,
,,,,,,,,2023-08-16_08h46.49.843,HF_wild_card,2022.2.4,Linux x86_64,58.82352941,62e2b5712f1bcd652ce6bff8,64d2fd46c836a06233681665,64dc7ec3201c200f1b779d6e,,,,,,,sngl,resources/DG.BMP,resources/Empty.png,WildCard_Ex,-0.308333333,0.009722222,1,0,0,1.145,optionLeft,5,12665,6,20,0,20,0,1,,,,,,,,,,,,,,,,,,,,,,,,,,,,,,,,,,,,,,,
,,,,,,,,2023-08-16_08h46.49.843,HF_wild_card,2022.2.4,Linux x86_64,58.82352941,62e2b5712f1bcd652ce6bff8,64d2fd46c836a06233681665,64dc7ec3201c200f1b779d6e,,,,,,,decisionTrl,resources/DB.BMP,resources/DY.BMP,Door1,-0.383333333,-0.044444444,1,0,0,3.049,optionLeft,30,12695,6,21,0,21,0,1,,,,,,,,,,,,,,,,,,,,,,,,,,,,,,,,,,,,,,,
,,,,,,,,2023-08-16_08h46.49.843,HF_wild_card,2022.2.4,Linux x86_64,58.82352941,62e2b5712f1bcd652ce6bff8,64d2fd46c836a06233681665,64dc7ec3201c200f1b779d6e,,,,,,,decisionTrl,resources/DB.BMP,resources/DG.BMP,Door1,-0.277777778,-0.009722222,1,0,0,2.837,optionLeft,30,12725,6,22,0,22,0,1,,,,,,,,,,,,,,,,,,,,,,,,,,,,,,,,,,,,,,,
,,,,,,,,2023-08-16_08h46.49.843,HF_wild_card,2022.2.4,Linux x86_64,58.82352941,62e2b5712f1bcd652ce6bff8,64d2fd46c836a06233681665,64dc7ec3201c200f1b779d6e,,,,,,,sngl,resources/DR.BMP,resources/Empty.png,Door4,-0.2125,-0.025,1,0,0,0.699,optionLeft,60,12785,6,23,0,23,0,1,,,,,,,,,,,,,,,,,,,,,,,,,,,,,,,,,,,,,,,
,,,,,,,,2023-08-16_08h46.49.843,HF_wild_card,2022.2.4,Linux x86_64,58.82352941,62e2b5712f1bcd652ce6bff8,64d2fd46c836a06233681665,64dc7ec3201c200f1b779d6e,,,,,,,sngl,resources/Empty.png,resources/DB.BMP,Door1,0.333333333,-0.006944444,1,0,0,0.761,optionRight,30,12815,6,24,0,24,0,1,,,,,,,,,,,,,,,,,,,,,,,,,,,,,,,,,,,,,,,
,,,,,,,,2023-08-16_08h46.49.843,HF_wild_card,2022.2.4,Linux x86_64,58.82352941,62e2b5712f1bcd652ce6bff8,64d2fd46c836a06233681665,64dc7ec3201c200f1b779d6e,,,,,,,sngl,resources/Empty.png,resources/DR.BMP,Door4,0.230555556,-0.008333333,1,0,0,0.73,optionRight,80,12895,6,25,0,25,0,1,,,,,,,,,,,,,,,,,,,,,,,,,,,,,,,,,,,,,,,
,,,,,,,,2023-08-16_08h46.49.843,HF_wild_card,2022.2.4,Linux x86_64,58.82352941,62e2b5712f1bcd652ce6bff8,64d2fd46c836a06233681665,64dc7ec3201c200f1b779d6e,,,,,,,decisionTrl,resources/DR.BMP,resources/DG.BMP,Door4,-0.340277778,-0.002777778,1,0,0,0.911,optionLeft,60,12955,6,26,0,26,0,1,,,,,,,,,,,,,,,,,,,,,,,,,,,,,,,,,,,,,,,
,,,,,,,,2023-08-16_08h46.49.843,HF_wild_card,2022.2.4,Linux x86_64,58.82352941,62e2b5712f1bcd652ce6bff8,64d2fd46c836a06233681665,64dc7ec3201c200f1b779d6e,,,,,,,ctch,resources/DY.BMP,resources/DBN.BMP,Door3,0.345833333,0.025,1,0,0,0.993,optionRight,70,13025,6,27,0,27,0,1,,,,,,,,,,,,,,,,,,,,,,,,,,,,,,,,,,,,,,,
,,,,,,,,2023-08-16_08h46.49.843,HF_wild_card,2022.2.4,Linux x86_64,58.82352941,62e2b5712f1bcd652ce6bff8,64d2fd46c836a06233681665,64dc7ec3201c200f1b779d6e,,,,,,,decisionTrl,resources/DG.BMP,resources/DR.BMP,Door4,0.233333333,-0.027777778,1,0,0,0.982,optionRight,80,13105,6,28,0,28,0,1,,,,,,,,,,,,,,,,,,,,,,,,,,,,,,,,,,,,,,,
,,,,,,,,2023-08-16_08h46.49.843,HF_wild_card,2022.2.4,Linux x86_64,58.82352941,62e2b5712f1bcd652ce6bff8,64d2fd46c836a06233681665,64dc7ec3201c200f1b779d6e,,,,,,,decisionTrl,resources/DY.BMP,resources/DB.BMP,Door1,0.265277778,-0.023611111,1,0,0,2.015,optionRight,30,13135,6,29,0,29,0,1,,,,,,,,,,,,,,,,,,,,,,,,,,,,,,,,,,,,,,,
,,,,,,,,2023-08-16_08h46.49.843,HF_wild_card,2022.2.4,Linux x86_64,58.82352941,62e2b5712f1bcd652ce6bff8,64d2fd46c836a06233681665,64dc7ec3201c200f1b779d6e,,,,,,,ctch,resources/DR.BMP,resources/DB.BMP,Door4,-0.318055556,-0.008333333,1,0,0,0.994,optionLeft,60,13195,6,30,0,30,0,1,,,,,,,,,,,,,,,,,,,,,,,,,,,,,,,,,,,,,,,
,,,,,,,,2023-08-16_08h46.49.843,HF_wild_card,2022.2.4,Linux x86_64,58.82352941,62e2b5712f1bcd652ce6bff8,64d2fd46c836a06233681665,64dc7ec3201c200f1b779d6e,,,,,,,decisionTrl,resources/DBN.BMP,resources/DR.BMP,Door4,0.341666667,-0.006944444,1,0,0,2.749,optionRight,80,13275,6,31,0,31,0,1,,,,,,,,,,,,,,,,,,,,,,,,,,,,,,,,,,,,,,,
,,,,,,,,2023-08-16_08h46.49.843,HF_wild_card,2022.2.4,Linux x86_64,58.82352941,62e2b5712f1bcd652ce6bff8,64d2fd46c836a06233681665,64dc7ec3201c200f1b779d6e,,,,,,,decisionTrl,resources/DG.BMP,resources/DBN.BMP,Door3,0.331944444,-0.030555556,1,0,0,1.085,optionRight,70,13345,6,32,0,32,0,1,,,,,,,,,,,,,,,,,,,,,,,,,,,,,,,,,,,,,,,
,,,,,,,,2023-08-16_08h46.49.843,HF_wild_card,2022.2.4,Linux x86_64,58.82352941,62e2b5712f1bcd652ce6bff8,64d2fd46c836a06233681665,64dc7ec3201c200f1b779d6e,,,,,,,decisionTrl,resources/DB.BMP,resources/DY.BMP,Door1,-0.3,-0.05,1,0,0,4.466,optionLeft,30,13375,6,33,0,33,0,1,,,,,,,,,,,,,,,,,,,,,,,,,,,,,,,,,,,,,,,
,,,,,,,,2023-08-16_08h46.49.843,HF_wild_card,2022.2.4,Linux x86_64,58.82352941,62e2b5712f1bcd652ce6bff8,64d2fd46c836a06233681665,64dc7ec3201c200f1b779d6e,,,,,,,decisionTrl,resources/DBN.BMP,resources/DG.BMP,Door3,-0.3125,-0.040277778,1,0,0,0.931,optionLeft,70,13445,6,34,0,34,0,1,,,,,,,,,,,,,,,,,,,,,,,,,,,,,,,,,,,,,,,
,,,,,,,,2023-08-16_08h46.49.843,HF_wild_card,2022.2.4,Linux x86_64,58.82352941,62e2b5712f1bcd652ce6bff8,64d2fd46c836a06233681665,64dc7ec3201c200f1b779d6e,,,,,,,decisionTrl,resources/DR.BMP,resources/DBN.BMP,Door4,-0.305555556,-0.031944444,1,0,0,1.031,optionLeft,80,13525,6,35,0,35,0,1,,,,,,,,,,,,,,,,,,,,,,,,,,,,,,,,,,,,,,,
,,,,,,,,2023-08-16_08h46.49.843,HF_wild_card,2022.2.4,Linux x86_64,58.82352941,62e2b5712f1bcd652ce6bff8,64d2fd46c836a06233681665,64dc7ec3201c200f1b779d6e,,,,,,,ctch,resources/DY.BMP,resources/DBN.BMP,Door3,0.434722222,0.015277778,1,0,0,0.863,optionRight,70,13595,6,36,0,36,0,1,,,,,,,,,,,,,,,,,,,,,,,,,,,,,,,,,,,,,,,
,,,,,,,,2023-08-16_08h46.49.843,HF_wild_card,2022.2.4,Linux x86_64,58.82352941,62e2b5712f1bcd652ce6bff8,64d2fd46c836a06233681665,64dc7ec3201c200f1b779d6e,,,,,,,decisionTrl,resources/DBN.BMP,resources/DR.BMP,Door4,0.2375,0.023611111,1,0,0,1.455,optionRight,80,13675,6,37,0,37,0,1,,,,,,,,,,,,,,,,,,,,,,,,,,,,,,,,,,,,,,,
,,,,,,,,2023-08-16_08h46.49.843,HF_wild_card,2022.2.4,Linux x86_64,58.82352941,62e2b5712f1bcd652ce6bff8,64d2fd46c836a06233681665,64dc7ec3201c200f1b779d6e,,,,,,,decisionTrl,resources/DG.BMP,resources/DB.BMP,Door1,0.3,-0.013888889,1,0,0,1.515,optionRight,30,13705,6,38,0,38,0,1,,,,,,,,,,,,,,,,,,,,,,,,,,,,,,,,,,,,,,,
,,,,,,,,2023-08-16_08h46.49.843,HF_wild_card,2022.2.4,Linux x86_64,58.82352941,62e2b5712f1bcd652ce6bff8,64d2fd46c836a06233681665,64dc7ec3201c200f1b779d6e,,,,,,,sngl,resources/Empty.png,resources/DY.BMP,Door2,0.280555556,0.002777778,1,0,0,0.798,optionRight,40,13745,6,39,0,39,0,1,,,,,,,,,,,,,,,,,,,,,,,,,,,,,,,,,,,,,,,
,,,,,,,,2023-08-16_08h46.49.843,HF_wild_card,2022.2.4,Linux x86_64,58.82352941,62e2b5712f1bcd652ce6bff8,64d2fd46c836a06233681665,64dc7ec3201c200f1b779d6e,,,,,,,sngl,resources/Empty.png,resources/DBN.BMP,Door3,0.233333333,0.011111111,1,0,0,0.808,optionRight,70,13815,6,40,0,40,0,1,,,,,,,,,,,,,,,,,,,,,,,,,,,,,,,,,,,,,,,
,,,,,,,,2023-08-16_08h46.49.843,HF_wild_card,2022.2.4,Linux x86_64,58.82352941,62e2b5712f1bcd652ce6bff8,64d2fd46c836a06233681665,64dc7ec3201c200f1b779d6e,,,,,,,sngl,resources/Empty.png,resources/DG.BMP,WildCard_Ex,0.258333333,0.002777778,1,0,0,0.782,optionRight,95,13910,6,41,0,41,0,1,,,,,,,,,,,,,,,,,,,,,,,,,,,,,,,,,,,,,,,
,,,,,,,,2023-08-16_08h46.49.843,HF_wild_card,2022.2.4,Linux x86_64,58.82352941,62e2b5712f1bcd652ce6bff8,64d2fd46c836a06233681665,64dc7ec3201c200f1b779d6e,,,,,,,ctch,resources/DBN.BMP,resources/DY.BMP,Door3,-0.315277778,-0.008333333,1,0,0,1.097,optionLeft,70,13980,6,42,0,42,0,1,,,,,,,,,,,,,,,,,,,,,,,,,,,,,,,,,,,,,,,
,,,,,,,,2023-08-16_08h46.49.843,HF_wild_card,2022.2.4,Linux x86_64,58.82352941,62e2b5712f1bcd652ce6bff8,64d2fd46c836a06233681665,64dc7ec3201c200f1b779d6e,,,,,,,ctch,resources/DR.BMP,resources/DB.BMP,Door4,-0.263888889,0.001388889,1,0,0,0.931,optionLeft,60,14040,6,43,0,43,0,1,,,,,,,,,,,,,,,,,,,,,,,,,,,,,,,,,,,,,,,
,,,,,,,,2023-08-16_08h46.49.843,HF_wild_card,2022.2.4,Linux x86_64,58.82352941,62e2b5712f1bcd652ce6bff8,64d2fd46c836a06233681665,64dc7ec3201c200f1b779d6e,,,,,,,,,,,,,,,,,,,,,,,,,,5,0,5,0,1,,,,,,,,,,,,,,,,,,,,,,,,,,,,,,,,,,
,,,,,,,,2023-08-16_08h46.49.843,HF_wild_card,2022.2.4,Linux x86_64,58.82352941,62e2b5712f1bcd652ce6bff8,64d2fd46c836a06233681665,64dc7ec3201c200f1b779d6e,,,,,,,ctch,resources/DR.BMP,resources/DB.BMP,Door4,-0.341666667,-0.072222222,1,0,0,1.112,optionLeft,60,14100,7,0,0,0,0,1,,,,,,,,,,,,,,,,,,,,,,,,,,,,,,,,,,,,,,,
,,,,,,,,2023-08-16_08h46.49.843,HF_wild_card,2022.2.4,Linux x86_64,58.82352941,62e2b5712f1bcd652ce6bff8,64d2fd46c836a06233681665,64dc7ec3201c200f1b779d6e,,,,,,,decisionTrl,resources/DR.BMP,resources/DBN.BMP,Door4,-0.3375,-0.0125,1,0,0,1.297,optionLeft,60,14160,7,1,0,1,0,1,,,,,,,,,,,,,,,,,,,,,,,,,,,,,,,,,,,,,,,
,,,,,,,,2023-08-16_08h46.49.843,HF_wild_card,2022.2.4,Linux x86_64,58.82352941,62e2b5712f1bcd652ce6bff8,64d2fd46c836a06233681665,64dc7ec3201c200f1b779d6e,,,,,,,decisionTrl,resources/DBN.BMP,resources/DR.BMP,Door4,0.309722222,-0.036111111,1,0,0,1.379,optionRight,60,14220,7,2,0,2,0,1,,,,,,,,,,,,,,,,,,,,,,,,,,,,,,,,,,,,,,,
,,,,,,,,2023-08-16_08h46.49.843,HF_wild_card,2022.2.4,Linux x86_64,58.82352941,62e2b5712f1bcd652ce6bff8,64d2fd46c836a06233681665,64dc7ec3201c200f1b779d6e,,,,,,,decisionTrl,resources/DR.BMP,resources/DBN.BMP,Door4,-0.358333333,0.005555556,1,0,0,1.247,optionLeft,60,14280,7,3,0,3,0,1,,,,,,,,,,,,,,,,,,,,,,,,,,,,,,,,,,,,,,,
,,,,,,,,2023-08-16_08h46.49.843,HF_wild_card,2022.2.4,Linux x86_64,58.82352941,62e2b5712f1bcd652ce6bff8,64d2fd46c836a06233681665,64dc7ec3201c200f1b779d6e,,,,,,,decisionTrl,resources/DB.BMP,resources/DY.BMP,Door1,-0.444444444,-0.022222222,1,0,0,1.963,optionLeft,30,14310,7,4,0,4,0,1,,,,,,,,,,,,,,,,,,,,,,,,,,,,,,,,,,,,,,,
,,,,,,,,2023-08-16_08h46.49.843,HF_wild_card,2022.2.4,Linux x86_64,58.82352941,62e2b5712f1bcd652ce6bff8,64d2fd46c836a06233681665,64dc7ec3201c200f1b779d6e,,,,,,,decisionTrl,resources/DB.BMP,resources/DY.BMP,Door1,-0.35,0.004166667,1,0,0,1.001,optionLeft,30,14340,7,5,0,5,0,1,,,,,,,,,,,,,,,,,,,,,,,,,,,,,,,,,,,,,,,
,,,,,,,,2023-08-16_08h46.49.843,HF_wild_card,2022.2.4,Linux x86_64,58.82352941,62e2b5712f1bcd652ce6bff8,64d2fd46c836a06233681665,64dc7ec3201c200f1b779d6e,,,,,,,decisionTrl,resources/DY.BMP,resources/DB.BMP,Door1,0.302777778,0.002777778,1,0,0,1.098,optionRight,30,14370,7,6,0,6,0,1,,,,,,,,,,,,,,,,,,,,,,,,,,,,,,,,,,,,,,,
,,,,,,,,2023-08-16_08h46.49.843,HF_wild_card,2022.2.4,Linux x86_64,58.82352941,62e2b5712f1bcd652ce6bff8,64d2fd46c836a06233681665,64dc7ec3201c200f1b779d6e,,,,,,,decisionTrl,resources/DR.BMP,resources/DBN.BMP,Door4,-0.35,0.005555556,1,0,0,1.163,optionLeft,60,14430,7,7,0,7,0,1,,,,,,,,,,,,,,,,,,,,,,,,,,,,,,,,,,,,,,,
,,,,,,,,2023-08-16_08h46.49.843,HF_wild_card,2022.2.4,Linux x86_64,58.82352941,62e2b5712f1bcd652ce6bff8,64d2fd46c836a06233681665,64dc7ec3201c200f1b779d6e,,,,,,,ctch,resources/DBN.BMP,resources/DY.BMP,Door3,-0.370833333,0.001388889,1,0,0,0.965,optionLeft,70,14500,7,8,0,8,0,1,,,,,,,,,,,,,,,,,,,,,,,,,,,,,,,,,,,,,,,
,,,,,,,,2023-08-16_08h46.49.843,HF_wild_card,2022.2.4,Linux x86_64,58.82352941,62e2b5712f1bcd652ce6bff8,64d2fd46c836a06233681665,64dc7ec3201c200f1b779d6e,,,,,,,decisionTrl,resources/DBN.BMP,resources/DR.BMP,Door4,0.2625,-0.027777778,1,0,0,1.882,optionRight,80,14580,7,9,0,9,0,1,,,,,,,,,,,,,,,,,,,,,,,,,,,,,,,,,,,,,,,
,,,,,,,,2023-08-16_08h46.49.843,HF_wild_card,2022.2.4,Linux x86_64,58.82352941,62e2b5712f1bcd652ce6bff8,64d2fd46c836a06233681665,64dc7ec3201c200f1b779d6e,,,,,,,ctch,resources/DY.BMP,resources/DBN.BMP,Door3,0.376388889,-0.029166667,1,0,0,0.915,optionRight,70,14650,7,10,0,10,0,1,,,,,,,,,,,,,,,,,,,,,,,,,,,,,,,,,,,,,,,
,,,,,,,,2023-08-16_08h46.49.843,HF_wild_card,2022.2.4,Linux x86_64,58.82352941,62e2b5712f1bcd652ce6bff8,64d2fd46c836a06233681665,64dc7ec3201c200f1b779d6e,,,,,,,ctch,resources/DY.BMP,resources/DBN.BMP,Door3,0.240277778,0.008333333,1,0,0,0.867,optionRight,70,14720,7,11,0,11,0,1,,,,,,,,,,,,,,,,,,,,,,,,,,,,,,,,,,,,,,,
,,,,,,,,2023-08-16_08h46.49.843,HF_wild_card,2022.2.4,Linux x86_64,58.82352941,62e2b5712f1bcd652ce6bff8,64d2fd46c836a06233681665,64dc7ec3201c200f1b779d6e,,,,,,,decisionTrl,resources/DBN.BMP,resources/DR.BMP,Door4,0.366666667,-0.020833333,1,0,0,1.379,optionRight,80,14800,7,12,0,12,0,1,,,,,,,,,,,,,,,,,,,,,,,,,,,,,,,,,,,,,,,
,,,,,,,,2023-08-16_08h46.49.843,HF_wild_card,2022.2.4,Linux x86_64,58.82352941,62e2b5712f1bcd652ce6bff8,64d2fd46c836a06233681665,64dc7ec3201c200f1b779d6e,,,,,,,decisionTrl,resources/DB.BMP,resources/DY.BMP,Door1,-0.233333333,-0.001388889,1,0,0,1.582,optionLeft,30,14830,7,13,0,13,0,1,,,,,,,,,,,,,,,,,,,,,,,,,,,,,,,,,,,,,,,
,,,,,,,,2023-08-16_08h46.49.843,HF_wild_card,2022.2.4,Linux x86_64,58.82352941,62e2b5712f1bcd652ce6bff8,64d2fd46c836a06233681665,64dc7ec3201c200f1b779d6e,,,,,,,ctch,resources/DB.BMP,resources/DR.BMP,Door4,0.426388889,0.011111111,1,0,0,1.116,optionRight,60,14890,7,14,0,14,0,1,,,,,,,,,,,,,,,,,,,,,,,,,,,,,,,,,,,,,,,
,,,,,,,,2023-08-16_08h46.49.843,HF_wild_card,2022.2.4,Linux x86_64,58.82352941,62e2b5712f1bcd652ce6bff8,64d2fd46c836a06233681665,64dc7ec3201c200f1b779d6e,,,,,,,decisionTrl,resources/DB.BMP,resources/DY.BMP,Door1,-0.290277778,-0.016666667,1,0,0,1.379,optionLeft,30,14920,7,15,0,15,0,1,,,,,,,,,,,,,,,,,,,,,,,,,,,,,,,,,,,,,,,
,,,,,,,,2023-08-16_08h46.49.843,HF_wild_card,2022.2.4,Linux x86_64,58.82352941,62e2b5712f1bcd652ce6bff8,64d2fd46c836a06233681665,64dc7ec3201c200f1b779d6e,,,,,,,ctch,resources/DBN.BMP,resources/DY.BMP,Door3,-0.347222222,-0.001388889,1,0,0,0.933,optionLeft,70,14990,7,16,0,16,0,1,,,,,,,,,,,,,,,,,,,,,,,,,,,,,,,,,,,,,,,
,,,,,,,,2023-08-16_08h46.49.843,HF_wild_card,2022.2.4,Linux x86_64,58.82352941,62e2b5712f1bcd652ce6bff8,64d2fd46c836a06233681665,64dc7ec3201c200f1b779d6e,,,,,,,decisionTrl,resources/DBN.BMP,resources/DR.BMP,Door4,0.340277778,-0.0125,1,0,0,1.101,optionRight,60,15050,7,17,0,17,0,1,,,,,,,,,,,,,,,,,,,,,,,,,,,,,,,,,,,,,,,
,,,,,,,,2023-08-16_08h46.49.843,HF_wild_card,2022.2.4,Linux x86_64,58.82352941,62e2b5712f1bcd652ce6bff8,64d2fd46c836a06233681665,64dc7ec3201c200f1b779d6e,,,,,,,decisionTrl,resources/DBN.BMP,resources/DR.BMP,Door4,0.279166667,-0.0125,1,0,0,1.098,optionRight,60,15110,7,18,0,18,0,1,,,,,,,,,,,,,,,,,,,,,,,,,,,,,,,,,,,,,,,
,,,,,,,,2023-08-16_08h46.49.843,HF_wild_card,2022.2.4,Linux x86_64,58.82352941,62e2b5712f1bcd652ce6bff8,64d2fd46c836a06233681665,64dc7ec3201c200f1b779d6e,,,,,,,ctch,resources/DY.BMP,resources/DBN.BMP,Door3,0.341666667,0.019444444,1,0,0,0.932,optionRight,70,15180,7,19,0,19,0,1,,,,,,,,,,,,,,,,,,,,,,,,,,,,,,,,,,,,,,,
,,,,,,,,2023-08-16_08h46.49.843,HF_wild_card,2022.2.4,Linux x86_64,58.82352941,62e2b5712f1bcd652ce6bff8,64d2fd46c836a06233681665,64dc7ec3201c200f1b779d6e,,,,,,,decisionTrl,resources/DB.BMP,resources/DY.BMP,Door1,-0.391666667,-0.077777778,1,0,0,1.799,optionLeft,30,15210,7,20,0,20,0,1,,,,,,,,,,,,,,,,,,,,,,,,,,,,,,,,,,,,,,,
,,,,,,,,2023-08-16_08h46.49.843,HF_wild_card,2022.2.4,Linux x86_64,58.82352941,62e2b5712f1bcd652ce6bff8,64d2fd46c836a06233681665,64dc7ec3201c200f1b779d6e,,,,,,,ctch,resources/DR.BMP,resources/DB.BMP,Door4,-0.329166667,-0.031944444,1,0,0,1.298,optionLeft,60,15270,7,21,0,21,0,1,,,,,,,,,,,,,,,,,,,,,,,,,,,,,,,,,,,,,,,
,,,,,,,,2023-08-16_08h46.49.843,HF_wild_card,2022.2.4,Linux x86_64,58.82352941,62e2b5712f1bcd652ce6bff8,64d2fd46c836a06233681665,64dc7ec3201c200f1b779d6e,,,,,,,decisionTrl,resources/DY.BMP,resources/DB.BMP,Door1,0.343055556,0.020833333,1,0,0,1.566,optionRight,30,15300,7,22,0,22,0,1,,,,,,,,,,,,,,,,,,,,,,,,,,,,,,,,,,,,,,,
,,,,,,,,2023-08-16_08h46.49.843,HF_wild_card,2022.2.4,Linux x86_64,58.82352941,62e2b5712f1bcd652ce6bff8,64d2fd46c836a06233681665,64dc7ec3201c200f1b779d6e,,,,,,,ctch,resources/DBN.BMP,resources/DY.BMP,Door3,-0.340277778,-0.016666667,1,0,0,0.847,optionLeft,70,15370,7,23,0,23,0,1,,,,,,,,,,,,,,,,,,,,,,,,,,,,,,,,,,,,,,,
,,,,,,,,2023-08-16_08h46.49.843,HF_wild_card,2022.2.4,Linux x86_64,58.82352941,62e2b5712f1bcd652ce6bff8,64d2fd46c836a06233681665,64dc7ec3201c200f1b779d6e,,,,,,,decisionTrl,resources/DR.BMP,resources/DBN.BMP,Door4,-0.309722222,-0.016666667,1,0,0,0.864,optionLeft,80,15450,7,24,0,24,0,1,,,,,,,,,,,,,,,,,,,,,,,,,,,,,,,,,,,,,,,
,,,,,,,,2023-08-16_08h46.49.843,HF_wild_card,2022.2.4,Linux x86_64,58.82352941,62e2b5712f1bcd652ce6bff8,64d2fd46c836a06233681665,64dc7ec3201c200f1b779d6e,,,,,,,ctch,resources/DB.BMP,resources/DR.BMP,Door4,0.340277778,-0.020833333,1,0,0,0.995,optionRight,80,15530,7,25,0,25,0,1,,,,,,,,,,,,,,,,,,,,,,,,,,,,,,,,,,,,,,,
,,,,,,,,2023-08-16_08h46.49.843,HF_wild_card,2022.2.4,Linux x86_64,58.82352941,62e2b5712f1bcd652ce6bff8,64d2fd46c836a06233681665,64dc7ec3201c200f1b779d6e,,,,,,,ctch,resources/DB.BMP,resources/DR.BMP,Door4,0.251388889,0.016666667,1,0,0,0.817,optionRight,60,15590,7,26,0,26,0,1,,,,,,,,,,,,,,,,,,,,,,,,,,,,,,,,,,,,,,,
,,,,,,,,2023-08-16_08h46.49.843,HF_wild_card,2022.2.4,Linux x86_64,58.82352941,62e2b5712f1bcd652ce6bff8,64d2fd46c836a06233681665,64dc7ec3201c200f1b779d6e,,,,,,,decisionTrl,resources/DR.BMP,resources/DBN.BMP,Door3,0.330555556,-0.015277778,1,0,0,3.133,optionRight,70,15660,7,27,0,27,0,1,,,,,,,,,,,,,,,,,,,,,,,,,,,,,,,,,,,,,,,
,,,,,,,,2023-08-16_08h46.49.843,HF_wild_card,2022.2.4,Linux x86_64,58.82352941,62e2b5712f1bcd652ce6bff8,64d2fd46c836a06233681665,64dc7ec3201c200f1b779d6e,,,,,,,ctch,resources/DR.BMP,resources/DB.BMP,Door4,-0.340277778,-0.0375,1,0,0,0.867,optionLeft,80,15740,7,28,0,28,0,1,,,,,,,,,,,,,,,,,,,,,,,,,,,,,,,,,,,,,,,
,,,,,,,,2023-08-16_08h46.49.843,HF_wild_card,2022.2.4,Linux x86_64,58.82352941,62e2b5712f1bcd652ce6bff8,64d2fd46c836a06233681665,64dc7ec3201c200f1b779d6e,,,,,,,decisionTrl,resources/DY.BMP,resources/DB.BMP,Door1,0.355555556,-0.006944444,1,0,0,1.247,optionRight,30,15770,7,29,0,29,0,1,,,,,,,,,,,,,,,,,,,,,,,,,,,,,,,,,,,,,,,
,,,,,,,,2023-08-16_08h46.49.843,HF_wild_card,2022.2.4,Linux x86_64,58.82352941,62e2b5712f1bcd652ce6bff8,64d2fd46c836a06233681665,64dc7ec3201c200f1b779d6e,,,,,,,decisionTrl,resources/DY.BMP,resources/DB.BMP,Door1,0.379166667,0.004166667,1,0,0,1.015,optionRight,30,15800,7,30,0,30,0,1,,,,,,,,,,,,,,,,,,,,,,,,,,,,,,,,,,,,,,,
,,,,,,,,2023-08-16_08h46.49.843,HF_wild_card,2022.2.4,Linux x86_64,58.82352941,62e2b5712f1bcd652ce6bff8,64d2fd46c836a06233681665,64dc7ec3201c200f1b779d6e,,,,,,,decisionTrl,resources/DY.BMP,resources/DB.BMP,Door1,0.438888889,0.023611111,1,0,0,0.882,optionRight,30,15830,7,31,0,31,0,1,,,,,,,,,,,,,,,,,,,,,,,,,,,,,,,,,,,,,,,
,,,,,,,,2023-08-16_08h46.49.843,HF_wild_card,2022.2.4,Linux x86_64,58.82352941,62e2b5712f1bcd652ce6bff8,64d2fd46c836a06233681665,64dc7ec3201c200f1b779d6e,,,,,,,decisionTrl,resources/DB.BMP,resources/DY.BMP,Door1,-0.290277778,-0.023611111,1,0,0,0.984,optionLeft,30,15860,7,32,0,32,0,1,,,,,,,,,,,,,,,,,,,,,,,,,,,,,,,,,,,,,,,
,,,,,,,,2023-08-16_08h46.49.843,HF_wild_card,2022.2.4,Linux x86_64,58.82352941,62e2b5712f1bcd652ce6bff8,64d2fd46c836a06233681665,64dc7ec3201c200f1b779d6e,,,,,,,decisionTrl,resources/DR.BMP,resources/DBN.BMP,Door4,-0.272222222,-0.008333333,1,0,0,1.951,optionLeft,60,15920,7,33,0,33,0,1,,,,,,,,,,,,,,,,,,,,,,,,,,,,,,,,,,,,,,,
,,,,,,,,2023-08-16_08h46.49.843,HF_wild_card,2022.2.4,Linux x86_64,58.82352941,62e2b5712f1bcd652ce6bff8,64d2fd46c836a06233681665,64dc7ec3201c200f1b779d6e,,,,,,,decisionTrl,resources/DY.BMP,resources/DB.BMP,Door1,0.286111111,-0.002777778,1,0,0,0.878,optionRight,30,15950,7,34,0,34,0,1,,,,,,,,,,,,,,,,,,,,,,,,,,,,,,,,,,,,,,,
,,,,,,,,2023-08-16_08h46.49.843,HF_wild_card,2022.2.4,Linux x86_64,58.82352941,62e2b5712f1bcd652ce6bff8,64d2fd46c836a06233681665,64dc7ec3201c200f1b779d6e,,,,,,,decisionTrl,resources/DBN.BMP,resources/DR.BMP,Door4,0.302777778,-0.015277778,1,0,0,0.836,optionRight,60,16010,7,35,0,35,0,1,,,,,,,,,,,,,,,,,,,,,,,,,,,,,,,,,,,,,,,
,,,,,,,,2023-08-16_08h46.49.843,HF_wild_card,2022.2.4,Linux x86_64,58.82352941,62e2b5712f1bcd652ce6bff8,64d2fd46c836a06233681665,64dc7ec3201c200f1b779d6e,,,,,,,,,,,,,,,,,,,,,,,,,,6,0,6,0,1,,,,,,,,,,,,,,,,,,,,,,,,,,,,,,,,,,
,,,,,,,,2023-08-16_08h46.49.843,HF_wild_card,2022.2.4,Linux x86_64,58.82352941,62e2b5712f1bcd652ce6bff8,64d2fd46c836a06233681665,64dc7ec3201c200f1b779d6e,,,,,,,,,,,,,,,,,,,,,,,,,,,,,,,4,,,,,,,,,,,,,,,,,,,,,,,,,,,,,,,,,
,,,,,,,,2023-08-16_08h46.49.843,HF_wild_card,2022.2.4,Linux x86_64,58.82352941,62e2b5712f1bcd652ce6bff8,64d2fd46c836a06233681665,64dc7ec3201c200f1b779d6e,,,,,,,,,,,,,,,,,,,,,,,,,,,,,,,,,,,,,,,,,,,,,,,,,,,,,,,,,,,,,,,,
,,,,,,,,2023-08-16_08h46.49.843,HF_wild_card,2022.2.4,Linux x86_64,58.82352941,62e2b5712f1bcd652ce6bff8,64d2fd46c836a06233681665,64dc7ec3201c200f1b779d6e,,,,,,,,,,,,,,,,,,,,,,,,,,,,,,,,75,Door3,resources/DBN.BMP,0,0,0,0,1,,,,,,,,,,,,,,,,,,,,,,,,,
