Condition,Low fixed image (Door1),Low risky image (Door2),High fixed image (Door3),High risky image (Door4),NonExtreme Wild Card 1,NonExtreme Wild Card 2,,date,expName,psychopyVersion,OS,frameRate,PROLIFIC_PID,STUDY_ID,SESSION_ID,mouse_2.x,mouse_2.y,mouse_2.leftButton,mouse_2.midButton,mouse_2.rightButton,mouse_2.clicked_name,Trial Type,Left Option Image,Right Option Image,Chosen Door,mouse.x,mouse.y,mouse.leftButton,mouse.midButton,mouse.rightButton,mouse.time,mouse.clicked_name,Feedback,Cumulative Reward,Block,trial.thisRepN,trial.thisTrialN,trial.thisN,trial.thisIndex,trial.ran,blocks.thisRepN,blocks.thisTrialN,blocks.thisN,blocks.thisIndex,blocks.ran,Money conversion,First Outcome Reported,Shown Door (First Outcome),Displayed Image (First Outcome),outcomes.thisRepN,outcomes.thisTrialN,outcomes.thisN,outcomes.thisIndex,outcomes.ran,judgments.thisRepN,judgments.thisTrialN,judgments.thisN,judgments.thisIndex,judgments.ran,freqMouse.x,freqMouse.y,freqMouse.leftButton,freqMouse.midButton,freqMouse.rightButton,freqMouse.clicked_name,trials.thisRepN,trials.thisTrialN,trials.thisN,trials.thisIndex,trials.ran,FQJ for first outcome,FQJ for second outcome,Shown Door,Displayed Image,judgBlock.thisRepN,judgBlock.thisTrialN,judgBlock.thisN,judgBlock.thisIndex,judgBlock.ran
2,resources/DG.BMP,resources/DR.BMP,resources/DB.BMP,resources/DY.BMP,resources/DP.BMP,resources/DBN.BMP,,2023-08-16_08h36.48.898,HF_wild_card,2022.2.4,Win32,60.0060006,610a879e6500d1d653b3da54,64d2fd46c836a06233681665,64dc7c7c88eef70a32feb17c,,,,,,,,,,,,,,,,,,,,,,,,,,,,,,,,,,,,,,,,,,,,,,,,,,,,,,,,,,,,,,,,
,,,,,,,,2023-08-16_08h36.48.898,HF_wild_card,2022.2.4,Win32,60.0060006,610a879e6500d1d653b3da54,64d2fd46c836a06233681665,64dc7c7c88eef70a32feb17c,0.013020833,-0.424479167,1,0,0,agree,,,,,,,,,,,,,,,,,,,,,,,,,,,,,,,,,,,,,,,,,,,,,,,,,,,,,,,,,,
,,,,,,,,2023-08-16_08h36.48.898,HF_wild_card,2022.2.4,Win32,60.0060006,610a879e6500d1d653b3da54,64d2fd46c836a06233681665,64dc7c7c88eef70a32feb17c,,,,,,,,,,,,,,,,,,,,,,,,,,,,,,,,,,,,,,,,,,,,,,,,,,,,,,,,,,,,,,,,
,,,,,,,,2023-08-16_08h36.48.898,HF_wild_card,2022.2.4,Win32,60.0060006,610a879e6500d1d653b3da54,64d2fd46c836a06233681665,64dc7c7c88eef70a32feb17c,,,,,,,decisionTrl,resources/DB.BMP,resources/DY.BMP,Door3,-0.264322917,-0.111979167,1,0,0,3.4232,optionLeft,70,70,1,0,0,0,0,1,,,,,,,,,,,,,,,,,,,,,,,,,,,,,,,,,,,,,,,
,,,,,,,,2023-08-16_08h36.48.898,HF_wild_card,2022.2.4,Win32,60.0060006,610a879e6500d1d653b3da54,64d2fd46c836a06233681665,64dc7c7c88eef70a32feb17c,,,,,,,sngl,resources/Empty.png,resources/DBN.BMP,WildCard_NonEx,0.225260417,-0.08203125,1,0,0,2.0425,optionRight,55,125,1,1,0,1,0,1,,,,,,,,,,,,,,,,,,,,,,,,,,,,,,,,,,,,,,,
,,,,,,,,2023-08-16_08h36.48.898,HF_wild_card,2022.2.4,Win32,60.0060006,610a879e6500d1d653b3da54,64d2fd46c836a06233681665,64dc7c7c88eef70a32feb17c,,,,,,,decisionTrl,resources/DR.BMP,resources/DG.BMP,Door1,0.321614583,-0.06640625,1,0,0,1.6276,optionRight,30,155,1,2,0,2,0,1,,,,,,,,,,,,,,,,,,,,,,,,,,,,,,,,,,,,,,,
,,,,,,,,2023-08-16_08h36.48.898,HF_wild_card,2022.2.4,Win32,60.0060006,610a879e6500d1d653b3da54,64d2fd46c836a06233681665,64dc7c7c88eef70a32feb17c,,,,,,,decisionTrl,resources/DG.BMP,resources/DR.BMP,Door1,-0.270833333,-0.020833333,1,0,0,1.771,optionLeft,30,185,1,3,0,3,0,1,,,,,,,,,,,,,,,,,,,,,,,,,,,,,,,,,,,,,,,
,,,,,,,,2023-08-16_08h36.48.898,HF_wild_card,2022.2.4,Win32,60.0060006,610a879e6500d1d653b3da54,64d2fd46c836a06233681665,64dc7c7c88eef70a32feb17c,,,,,,,decisionTrl,resources/DB.BMP,resources/DY.BMP,Door3,-0.329427083,-0.02734375,1,0,0,1.9206,optionLeft,70,255,1,4,0,4,0,1,,,,,,,,,,,,,,,,,,,,,,,,,,,,,,,,,,,,,,,
,,,,,,,,2023-08-16_08h36.48.898,HF_wild_card,2022.2.4,Win32,60.0060006,610a879e6500d1d653b3da54,64d2fd46c836a06233681665,64dc7c7c88eef70a32feb17c,,,,,,,decisionTrl,resources/DY.BMP,resources/DB.BMP,Door3,0.354166667,-0.080729167,1,0,0,2.162,optionRight,70,325,1,5,0,5,0,1,,,,,,,,,,,,,,,,,,,,,,,,,,,,,,,,,,,,,,,
,,,,,,,,2023-08-16_08h36.48.898,HF_wild_card,2022.2.4,Win32,60.0060006,610a879e6500d1d653b3da54,64d2fd46c836a06233681665,64dc7c7c88eef70a32feb17c,,,,,,,decisionTrl,resources/DR.BMP,resources/DG.BMP,Door1,0.350260417,-0.015625,1,0,0,1.1294,optionRight,30,355,1,6,0,6,0,1,,,,,,,,,,,,,,,,,,,,,,,,,,,,,,,,,,,,,,,
,,,,,,,,2023-08-16_08h36.48.898,HF_wild_card,2022.2.4,Win32,60.0060006,610a879e6500d1d653b3da54,64d2fd46c836a06233681665,64dc7c7c88eef70a32feb17c,,,,,,,ctch,resources/DR.BMP,resources/DB.BMP,Door2,-0.334635417,-0.010416667,1,0,0,1.043,optionLeft,40,395,1,7,0,7,0,1,,,,,,,,,,,,,,,,,,,,,,,,,,,,,,,,,,,,,,,
,,,,,,,,2023-08-16_08h36.48.898,HF_wild_card,2022.2.4,Win32,60.0060006,610a879e6500d1d653b3da54,64d2fd46c836a06233681665,64dc7c7c88eef70a32feb17c,,,,,,,decisionTrl,resources/DBN.BMP,resources/DR.BMP,Door2,0.3125,0.009114583,1,0,0,1.8332,optionRight,40,435,1,8,0,8,0,1,,,,,,,,,,,,,,,,,,,,,,,,,,,,,,,,,,,,,,,
,,,,,,,,2023-08-16_08h36.48.898,HF_wild_card,2022.2.4,Win32,60.0060006,610a879e6500d1d653b3da54,64d2fd46c836a06233681665,64dc7c7c88eef70a32feb17c,,,,,,,decisionTrl,resources/DY.BMP,resources/DB.BMP,Door4,-0.333333333,-0.002604167,1,0,0,1.6242,optionLeft,60,495,1,9,0,9,0,1,,,,,,,,,,,,,,,,,,,,,,,,,,,,,,,,,,,,,,,
,,,,,,,,2023-08-16_08h36.48.898,HF_wild_card,2022.2.4,Win32,60.0060006,610a879e6500d1d653b3da54,64d2fd46c836a06233681665,64dc7c7c88eef70a32feb17c,,,,,,,decisionTrl,resources/DB.BMP,resources/DBN.BMP,Door3,-0.3984375,-0.083333333,1,0,0,2.027,optionLeft,70,565,1,10,0,10,0,1,,,,,,,,,,,,,,,,,,,,,,,,,,,,,,,,,,,,,,,
,,,,,,,,2023-08-16_08h36.48.898,HF_wild_card,2022.2.4,Win32,60.0060006,610a879e6500d1d653b3da54,64d2fd46c836a06233681665,64dc7c7c88eef70a32feb17c,,,,,,,decisionTrl,resources/DG.BMP,resources/DR.BMP,Door1,-0.37109375,-0.040364583,1,0,0,1.4271,optionLeft,30,595,1,11,0,11,0,1,,,,,,,,,,,,,,,,,,,,,,,,,,,,,,,,,,,,,,,
,,,,,,,,2023-08-16_08h36.48.898,HF_wild_card,2022.2.4,Win32,60.0060006,610a879e6500d1d653b3da54,64d2fd46c836a06233681665,64dc7c7c88eef70a32feb17c,,,,,,,ctch,resources/DG.BMP,resources/DY.BMP,Door4,0.338541667,-0.010416667,1,0,0,1.6269,optionRight,80,675,1,12,0,12,0,1,,,,,,,,,,,,,,,,,,,,,,,,,,,,,,,,,,,,,,,
,,,,,,,,2023-08-16_08h36.48.898,HF_wild_card,2022.2.4,Win32,60.0060006,610a879e6500d1d653b3da54,64d2fd46c836a06233681665,64dc7c7c88eef70a32feb17c,,,,,,,ctch,resources/DR.BMP,resources/DB.BMP,Door3,0.35546875,-0.041666667,1,0,0,1.4241,optionRight,70,745,1,13,0,13,0,1,,,,,,,,,,,,,,,,,,,,,,,,,,,,,,,,,,,,,,,
,,,,,,,,2023-08-16_08h36.48.898,HF_wild_card,2022.2.4,Win32,60.0060006,610a879e6500d1d653b3da54,64d2fd46c836a06233681665,64dc7c7c88eef70a32feb17c,,,,,,,sngl,resources/DY.BMP,resources/Empty.png,Door4,-0.264322917,-0.0390625,1,0,0,1.1968,optionLeft,80,825,1,14,0,14,0,1,,,,,,,,,,,,,,,,,,,,,,,,,,,,,,,,,,,,,,,
,,,,,,,,2023-08-16_08h36.48.898,HF_wild_card,2022.2.4,Win32,60.0060006,610a879e6500d1d653b3da54,64d2fd46c836a06233681665,64dc7c7c88eef70a32feb17c,,,,,,,decisionTrl,resources/DY.BMP,resources/DBN.BMP,Door4,-0.322916667,-0.06640625,1,0,0,1.191,optionLeft,60,885,1,15,0,15,0,1,,,,,,,,,,,,,,,,,,,,,,,,,,,,,,,,,,,,,,,
,,,,,,,,2023-08-16_08h36.48.898,HF_wild_card,2022.2.4,Win32,60.0060006,610a879e6500d1d653b3da54,64d2fd46c836a06233681665,64dc7c7c88eef70a32feb17c,,,,,,,ctch,resources/DG.BMP,resources/DY.BMP,Door4,0.365885417,-0.014322917,1,0,0,1.1109,optionRight,60,945,1,16,0,16,0,1,,,,,,,,,,,,,,,,,,,,,,,,,,,,,,,,,,,,,,,
,,,,,,,,2023-08-16_08h36.48.898,HF_wild_card,2022.2.4,Win32,60.0060006,610a879e6500d1d653b3da54,64d2fd46c836a06233681665,64dc7c7c88eef70a32feb17c,,,,,,,sngl,resources/DB.BMP,resources/Empty.png,Door3,-0.315104167,-0.065104167,1,0,0,1.1319,optionLeft,70,1015,1,17,0,17,0,1,,,,,,,,,,,,,,,,,,,,,,,,,,,,,,,,,,,,,,,
,,,,,,,,2023-08-16_08h36.48.898,HF_wild_card,2022.2.4,Win32,60.0060006,610a879e6500d1d653b3da54,64d2fd46c836a06233681665,64dc7c7c88eef70a32feb17c,,,,,,,decisionTrl,resources/DBN.BMP,resources/DY.BMP,WildCard_NonEx,-0.411458333,-0.00390625,1,0,0,1.3765,optionLeft,45,1060,1,18,0,18,0,1,,,,,,,,,,,,,,,,,,,,,,,,,,,,,,,,,,,,,,,
,,,,,,,,2023-08-16_08h36.48.898,HF_wild_card,2022.2.4,Win32,60.0060006,610a879e6500d1d653b3da54,64d2fd46c836a06233681665,64dc7c7c88eef70a32feb17c,,,,,,,decisionTrl,resources/DR.BMP,resources/DBN.BMP,Door2,-0.365885417,-0.024739583,1,0,0,1.1927,optionLeft,40,1100,1,19,0,19,0,1,,,,,,,,,,,,,,,,,,,,,,,,,,,,,,,,,,,,,,,
,,,,,,,,2023-08-16_08h36.48.898,HF_wild_card,2022.2.4,Win32,60.0060006,610a879e6500d1d653b3da54,64d2fd46c836a06233681665,64dc7c7c88eef70a32feb17c,,,,,,,decisionTrl,resources/DG.BMP,resources/DBN.BMP,WildCard_NonEx,0.282552083,-0.002604167,1,0,0,1.4262,optionRight,45,1145,1,20,0,20,0,1,,,,,,,,,,,,,,,,,,,,,,,,,,,,,,,,,,,,,,,
,,,,,,,,2023-08-16_08h36.48.898,HF_wild_card,2022.2.4,Win32,60.0060006,610a879e6500d1d653b3da54,64d2fd46c836a06233681665,64dc7c7c88eef70a32feb17c,,,,,,,sngl,resources/Empty.png,resources/DR.BMP,Door2,0.37890625,-0.052083333,1,0,0,1.232,optionRight,20,1165,1,21,0,21,0,1,,,,,,,,,,,,,,,,,,,,,,,,,,,,,,,,,,,,,,,
,,,,,,,,2023-08-16_08h36.48.898,HF_wild_card,2022.2.4,Win32,60.0060006,610a879e6500d1d653b3da54,64d2fd46c836a06233681665,64dc7c7c88eef70a32feb17c,,,,,,,sngl,resources/DBN.BMP,resources/Empty.png,WildCard_NonEx,-0.30859375,-0.018229167,1,0,0,1.0738,optionLeft,55,1220,1,22,0,22,0,1,,,,,,,,,,,,,,,,,,,,,,,,,,,,,,,,,,,,,,,
,,,,,,,,2023-08-16_08h36.48.898,HF_wild_card,2022.2.4,Win32,60.0060006,610a879e6500d1d653b3da54,64d2fd46c836a06233681665,64dc7c7c88eef70a32feb17c,,,,,,,sngl,resources/DR.BMP,resources/Empty.png,Door2,-0.325520833,-0.040364583,1,0,0,0.897,optionLeft,40,1260,1,23,0,23,0,1,,,,,,,,,,,,,,,,,,,,,,,,,,,,,,,,,,,,,,,
,,,,,,,,2023-08-16_08h36.48.898,HF_wild_card,2022.2.4,Win32,60.0060006,610a879e6500d1d653b3da54,64d2fd46c836a06233681665,64dc7c7c88eef70a32feb17c,,,,,,,decisionTrl,resources/DR.BMP,resources/DG.BMP,Door2,-0.307291667,-0.041666667,1,0,0,1.777,optionLeft,40,1300,1,24,0,24,0,1,,,,,,,,,,,,,,,,,,,,,,,,,,,,,,,,,,,,,,,
,,,,,,,,2023-08-16_08h36.48.898,HF_wild_card,2022.2.4,Win32,60.0060006,610a879e6500d1d653b3da54,64d2fd46c836a06233681665,64dc7c7c88eef70a32feb17c,,,,,,,sngl,resources/DG.BMP,resources/Empty.png,Door1,-0.3671875,-0.048177083,1,0,0,0.8297,optionLeft,30,1330,1,25,0,25,0,1,,,,,,,,,,,,,,,,,,,,,,,,,,,,,,,,,,,,,,,
,,,,,,,,2023-08-16_08h36.48.898,HF_wild_card,2022.2.4,Win32,60.0060006,610a879e6500d1d653b3da54,64d2fd46c836a06233681665,64dc7c7c88eef70a32feb17c,,,,,,,decisionTrl,resources/DY.BMP,resources/DB.BMP,Door4,-0.36328125,0.002604167,1,0,0,1.5415,optionLeft,60,1390,1,26,0,26,0,1,,,,,,,,,,,,,,,,,,,,,,,,,,,,,,,,,,,,,,,
,,,,,,,,2023-08-16_08h36.48.898,HF_wild_card,2022.2.4,Win32,60.0060006,610a879e6500d1d653b3da54,64d2fd46c836a06233681665,64dc7c7c88eef70a32feb17c,,,,,,,decisionTrl,resources/DB.BMP,resources/DY.BMP,Door3,-0.30078125,-0.0234375,1,0,0,0.8955,optionLeft,70,1460,1,27,0,27,0,1,,,,,,,,,,,,,,,,,,,,,,,,,,,,,,,,,,,,,,,
,,,,,,,,2023-08-16_08h36.48.898,HF_wild_card,2022.2.4,Win32,60.0060006,610a879e6500d1d653b3da54,64d2fd46c836a06233681665,64dc7c7c88eef70a32feb17c,,,,,,,ctch,resources/DY.BMP,resources/DG.BMP,Door4,-0.276041667,-0.0546875,1,0,0,1.4573,optionLeft,80,1540,1,28,0,28,0,1,,,,,,,,,,,,,,,,,,,,,,,,,,,,,,,,,,,,,,,
,,,,,,,,2023-08-16_08h36.48.898,HF_wild_card,2022.2.4,Win32,60.0060006,610a879e6500d1d653b3da54,64d2fd46c836a06233681665,64dc7c7c88eef70a32feb17c,,,,,,,ctch,resources/DB.BMP,resources/DR.BMP,Door3,-0.34765625,-0.040364583,1,0,0,0.8596,optionLeft,70,1610,1,29,0,29,0,1,,,,,,,,,,,,,,,,,,,,,,,,,,,,,,,,,,,,,,,
,,,,,,,,2023-08-16_08h36.48.898,HF_wild_card,2022.2.4,Win32,60.0060006,610a879e6500d1d653b3da54,64d2fd46c836a06233681665,64dc7c7c88eef70a32feb17c,,,,,,,decisionTrl,resources/DY.BMP,resources/DB.BMP,Door4,-0.315104167,-0.041666667,1,0,0,1.4433,optionLeft,60,1670,1,30,0,30,0,1,,,,,,,,,,,,,,,,,,,,,,,,,,,,,,,,,,,,,,,
,,,,,,,,2023-08-16_08h36.48.898,HF_wild_card,2022.2.4,Win32,60.0060006,610a879e6500d1d653b3da54,64d2fd46c836a06233681665,64dc7c7c88eef70a32feb17c,,,,,,,sngl,resources/Empty.png,resources/DB.BMP,Door3,0.303385417,-0.029947917,1,0,0,0.8076,optionRight,70,1740,1,31,0,31,0,1,,,,,,,,,,,,,,,,,,,,,,,,,,,,,,,,,,,,,,,
,,,,,,,,2023-08-16_08h36.48.898,HF_wild_card,2022.2.4,Win32,60.0060006,610a879e6500d1d653b3da54,64d2fd46c836a06233681665,64dc7c7c88eef70a32feb17c,,,,,,,sngl,resources/Empty.png,resources/DG.BMP,Door1,0.334635417,-0.032552083,1,0,0,0.9273,optionRight,30,1770,1,32,0,32,0,1,,,,,,,,,,,,,,,,,,,,,,,,,,,,,,,,,,,,,,,
,,,,,,,,2023-08-16_08h36.48.898,HF_wild_card,2022.2.4,Win32,60.0060006,610a879e6500d1d653b3da54,64d2fd46c836a06233681665,64dc7c7c88eef70a32feb17c,,,,,,,decisionTrl,resources/DG.BMP,resources/DR.BMP,Door1,-0.263020833,-0.009114583,1,0,0,1.5188,optionLeft,30,1800,1,33,0,33,0,1,,,,,,,,,,,,,,,,,,,,,,,,,,,,,,,,,,,,,,,
,,,,,,,,2023-08-16_08h36.48.898,HF_wild_card,2022.2.4,Win32,60.0060006,610a879e6500d1d653b3da54,64d2fd46c836a06233681665,64dc7c7c88eef70a32feb17c,,,,,,,decisionTrl,resources/DR.BMP,resources/DG.BMP,Door2,-0.337239583,-0.026041667,1,0,0,1.1125,optionLeft,40,1840,1,34,0,34,0,1,,,,,,,,,,,,,,,,,,,,,,,,,,,,,,,,,,,,,,,
,,,,,,,,2023-08-16_08h36.48.898,HF_wild_card,2022.2.4,Win32,60.0060006,610a879e6500d1d653b3da54,64d2fd46c836a06233681665,64dc7c7c88eef70a32feb17c,,,,,,,sngl,resources/Empty.png,resources/DY.BMP,Door4,0.322916667,-0.044270833,1,0,0,0.9627,optionRight,60,1900,1,35,0,35,0,1,,,,,,,,,,,,,,,,,,,,,,,,,,,,,,,,,,,,,,,
,,,,,,,,2023-08-16_08h36.48.898,HF_wild_card,2022.2.4,Win32,60.0060006,610a879e6500d1d653b3da54,64d2fd46c836a06233681665,64dc7c7c88eef70a32feb17c,,,,,,,ctch,resources/DB.BMP,resources/DR.BMP,Door3,-0.282552083,-0.044270833,1,0,0,1.1833,optionLeft,70,1970,1,36,0,36,0,1,,,,,,,,,,,,,,,,,,,,,,,,,,,,,,,,,,,,,,,
,,,,,,,,2023-08-16_08h36.48.898,HF_wild_card,2022.2.4,Win32,60.0060006,610a879e6500d1d653b3da54,64d2fd46c836a06233681665,64dc7c7c88eef70a32feb17c,,,,,,,ctch,resources/DY.BMP,resources/DG.BMP,Door4,-0.303385417,-0.036458333,1,0,0,1.8122,optionLeft,60,2030,1,37,0,37,0,1,,,,,,,,,,,,,,,,,,,,,,,,,,,,,,,,,,,,,,,
,,,,,,,,2023-08-16_08h36.48.898,HF_wild_card,2022.2.4,Win32,60.0060006,610a879e6500d1d653b3da54,64d2fd46c836a06233681665,64dc7c7c88eef70a32feb17c,,,,,,,sngl,resources/DBN.BMP,resources/Empty.png,WildCard_NonEx,-0.385416667,0.0078125,1,0,0,0.9664,optionLeft,45,2075,1,38,0,38,0,1,,,,,,,,,,,,,,,,,,,,,,,,,,,,,,,,,,,,,,,
,,,,,,,,2023-08-16_08h36.48.898,HF_wild_card,2022.2.4,Win32,60.0060006,610a879e6500d1d653b3da54,64d2fd46c836a06233681665,64dc7c7c88eef70a32feb17c,,,,,,,decisionTrl,resources/DBN.BMP,resources/DB.BMP,WildCard_NonEx,-0.338541667,0.00390625,1,0,0,1.899,optionLeft,45,2120,1,39,0,39,0,1,,,,,,,,,,,,,,,,,,,,,,,,,,,,,,,,,,,,,,,
,,,,,,,,2023-08-16_08h36.48.898,HF_wild_card,2022.2.4,Win32,60.0060006,610a879e6500d1d653b3da54,64d2fd46c836a06233681665,64dc7c7c88eef70a32feb17c,,,,,,,decisionTrl,resources/DBN.BMP,resources/DG.BMP,Door1,0.381510417,-0.009114583,1,0,0,1.5275,optionRight,30,2150,1,40,0,40,0,1,,,,,,,,,,,,,,,,,,,,,,,,,,,,,,,,,,,,,,,
,,,,,,,,2023-08-16_08h36.48.898,HF_wild_card,2022.2.4,Win32,60.0060006,610a879e6500d1d653b3da54,64d2fd46c836a06233681665,64dc7c7c88eef70a32feb17c,,,,,,,decisionTrl,resources/DB.BMP,resources/DY.BMP,Door4,0.33203125,-0.055989583,1,0,0,1.767,optionRight,80,2230,1,41,0,41,0,1,,,,,,,,,,,,,,,,,,,,,,,,,,,,,,,,,,,,,,,
,,,,,,,,2023-08-16_08h36.48.898,HF_wild_card,2022.2.4,Win32,60.0060006,610a879e6500d1d653b3da54,64d2fd46c836a06233681665,64dc7c7c88eef70a32feb17c,,,,,,,sngl,resources/Empty.png,resources/DBN.BMP,WildCard_NonEx,0.36328125,-0.041666667,1,0,0,0.9274,optionRight,45,2275,1,42,0,42,0,1,,,,,,,,,,,,,,,,,,,,,,,,,,,,,,,,,,,,,,,
,,,,,,,,2023-08-16_08h36.48.898,HF_wild_card,2022.2.4,Win32,60.0060006,610a879e6500d1d653b3da54,64d2fd46c836a06233681665,64dc7c7c88eef70a32feb17c,,,,,,,decisionTrl,resources/DG.BMP,resources/DR.BMP,Door2,0.31640625,-0.184895833,1,0,0,1.4924,optionRight,40,2315,1,43,0,43,0,1,,,,,,,,,,,,,,,,,,,,,,,,,,,,,,,,,,,,,,,
,,,,,,,,2023-08-16_08h36.48.898,HF_wild_card,2022.2.4,Win32,60.0060006,610a879e6500d1d653b3da54,64d2fd46c836a06233681665,64dc7c7c88eef70a32feb17c,,,,,,,,,,,,,,,,,,,,,,,,,,0,0,0,0,1,,,,,,,,,,,,,,,,,,,,,,,,,,,,,,,,,,
,,,,,,,,2023-08-16_08h36.48.898,HF_wild_card,2022.2.4,Win32,60.0060006,610a879e6500d1d653b3da54,64d2fd46c836a06233681665,64dc7c7c88eef70a32feb17c,,,,,,,decisionTrl,resources/DB.BMP,resources/DY.BMP,Door4,0.397135417,-0.161458333,1,0,0,1.1199,optionRight,60,2375,2,0,0,0,0,1,,,,,,,,,,,,,,,,,,,,,,,,,,,,,,,,,,,,,,,
,,,,,,,,2023-08-16_08h36.48.898,HF_wild_card,2022.2.4,Win32,60.0060006,610a879e6500d1d653b3da54,64d2fd46c836a06233681665,64dc7c7c88eef70a32feb17c,,,,,,,sngl,resources/DY.BMP,resources/Empty.png,Door4,-0.384114583,-0.0625,1,0,0,0.8813,optionLeft,60,2435,2,1,0,1,0,1,,,,,,,,,,,,,,,,,,,,,,,,,,,,,,,,,,,,,,,
,,,,,,,,2023-08-16_08h36.48.898,HF_wild_card,2022.2.4,Win32,60.0060006,610a879e6500d1d653b3da54,64d2fd46c836a06233681665,64dc7c7c88eef70a32feb17c,,,,,,,sngl,resources/DBN.BMP,resources/Empty.png,WildCard_NonEx,-0.345052083,-0.018229167,1,0,0,0.9463,optionLeft,45,2480,2,2,0,2,0,1,,,,,,,,,,,,,,,,,,,,,,,,,,,,,,,,,,,,,,,
,,,,,,,,2023-08-16_08h36.48.898,HF_wild_card,2022.2.4,Win32,60.0060006,610a879e6500d1d653b3da54,64d2fd46c836a06233681665,64dc7c7c88eef70a32feb17c,,,,,,,decisionTrl,resources/DBN.BMP,resources/DR.BMP,Door2,0.356770833,-0.02734375,1,0,0,1.6909,optionRight,20,2500,2,3,0,3,0,1,,,,,,,,,,,,,,,,,,,,,,,,,,,,,,,,,,,,,,,
,,,,,,,,2023-08-16_08h36.48.898,HF_wild_card,2022.2.4,Win32,60.0060006,610a879e6500d1d653b3da54,64d2fd46c836a06233681665,64dc7c7c88eef70a32feb17c,,,,,,,decisionTrl,resources/DR.BMP,resources/DBN.BMP,WildCard_NonEx,0.30078125,-0.010416667,1,0,0,1.2342,optionRight,55,2555,2,4,0,4,0,1,,,,,,,,,,,,,,,,,,,,,,,,,,,,,,,,,,,,,,,
,,,,,,,,2023-08-16_08h36.48.898,HF_wild_card,2022.2.4,Win32,60.0060006,610a879e6500d1d653b3da54,64d2fd46c836a06233681665,64dc7c7c88eef70a32feb17c,,,,,,,ctch,resources/DY.BMP,resources/DG.BMP,Door4,-0.31640625,-0.013020833,1,0,0,1.6273,optionLeft,80,2635,2,5,0,5,0,1,,,,,,,,,,,,,,,,,,,,,,,,,,,,,,,,,,,,,,,
,,,,,,,,2023-08-16_08h36.48.898,HF_wild_card,2022.2.4,Win32,60.0060006,610a879e6500d1d653b3da54,64d2fd46c836a06233681665,64dc7c7c88eef70a32feb17c,,,,,,,decisionTrl,resources/DG.BMP,resources/DR.BMP,Door1,-0.296875,0.005208333,1,0,0,1.7902,optionLeft,30,2665,2,6,0,6,0,1,,,,,,,,,,,,,,,,,,,,,,,,,,,,,,,,,,,,,,,
,,,,,,,,2023-08-16_08h36.48.898,HF_wild_card,2022.2.4,Win32,60.0060006,610a879e6500d1d653b3da54,64d2fd46c836a06233681665,64dc7c7c88eef70a32feb17c,,,,,,,decisionTrl,resources/DY.BMP,resources/DBN.BMP,WildCard_NonEx,0.388020833,0.033854167,1,0,0,1.5276,optionRight,45,2710,2,7,0,7,0,1,,,,,,,,,,,,,,,,,,,,,,,,,,,,,,,,,,,,,,,
,,,,,,,,2023-08-16_08h36.48.898,HF_wild_card,2022.2.4,Win32,60.0060006,610a879e6500d1d653b3da54,64d2fd46c836a06233681665,64dc7c7c88eef70a32feb17c,,,,,,,decisionTrl,resources/DB.BMP,resources/DBN.BMP,WildCard_NonEx,0.348958333,0.013020833,1,0,0,1.2604,optionRight,45,2755,2,8,0,8,0,1,,,,,,,,,,,,,,,,,,,,,,,,,,,,,,,,,,,,,,,
,,,,,,,,2023-08-16_08h36.48.898,HF_wild_card,2022.2.4,Win32,60.0060006,610a879e6500d1d653b3da54,64d2fd46c836a06233681665,64dc7c7c88eef70a32feb17c,,,,,,,sngl,resources/Empty.png,resources/DBN.BMP,WildCard_NonEx,0.317708333,-0.028645833,1,0,0,0.9102,optionRight,45,2800,2,9,0,9,0,1,,,,,,,,,,,,,,,,,,,,,,,,,,,,,,,,,,,,,,,
,,,,,,,,2023-08-16_08h36.48.898,HF_wild_card,2022.2.4,Win32,60.0060006,610a879e6500d1d653b3da54,64d2fd46c836a06233681665,64dc7c7c88eef70a32feb17c,,,,,,,decisionTrl,resources/DBN.BMP,resources/DG.BMP,WildCard_NonEx,-0.407552083,-0.045572917,1,0,0,1.0941,optionLeft,55,2855,2,10,0,10,0,1,,,,,,,,,,,,,,,,,,,,,,,,,,,,,,,,,,,,,,,
,,,,,,,,2023-08-16_08h36.48.898,HF_wild_card,2022.2.4,Win32,60.0060006,610a879e6500d1d653b3da54,64d2fd46c836a06233681665,64dc7c7c88eef70a32feb17c,,,,,,,sngl,resources/DG.BMP,resources/Empty.png,Door1,-0.34765625,-0.015625,1,0,0,1.1244,optionLeft,30,2885,2,11,0,11,0,1,,,,,,,,,,,,,,,,,,,,,,,,,,,,,,,,,,,,,,,
,,,,,,,,2023-08-16_08h36.48.898,HF_wild_card,2022.2.4,Win32,60.0060006,610a879e6500d1d653b3da54,64d2fd46c836a06233681665,64dc7c7c88eef70a32feb17c,,,,,,,ctch,resources/DG.BMP,resources/DY.BMP,Door4,0.270833333,-0.009114583,1,0,0,1.2788,optionRight,80,2965,2,12,0,12,0,1,,,,,,,,,,,,,,,,,,,,,,,,,,,,,,,,,,,,,,,
,,,,,,,,2023-08-16_08h36.48.898,HF_wild_card,2022.2.4,Win32,60.0060006,610a879e6500d1d653b3da54,64d2fd46c836a06233681665,64dc7c7c88eef70a32feb17c,,,,,,,sngl,resources/Empty.png,resources/DR.BMP,Door2,0.3515625,-0.0390625,1,0,0,0.9301,optionRight,40,3005,2,13,0,13,0,1,,,,,,,,,,,,,,,,,,,,,,,,,,,,,,,,,,,,,,,
,,,,,,,,2023-08-16_08h36.48.898,HF_wild_card,2022.2.4,Win32,60.0060006,610a879e6500d1d653b3da54,64d2fd46c836a06233681665,64dc7c7c88eef70a32feb17c,,,,,,,sngl,resources/DBN.BMP,resources/Empty.png,WildCard_NonEx,-0.395833333,-0.052083333,1,0,0,0.8608,optionLeft,55,3060,2,14,0,14,0,1,,,,,,,,,,,,,,,,,,,,,,,,,,,,,,,,,,,,,,,
,,,,,,,,2023-08-16_08h36.48.898,HF_wild_card,2022.2.4,Win32,60.0060006,610a879e6500d1d653b3da54,64d2fd46c836a06233681665,64dc7c7c88eef70a32feb17c,,,,,,,decisionTrl,resources/DY.BMP,resources/DB.BMP,Door4,-0.360677083,-0.053385417,1,0,0,0.8271,optionLeft,80,3140,2,15,0,15,0,1,,,,,,,,,,,,,,,,,,,,,,,,,,,,,,,,,,,,,,,
,,,,,,,,2023-08-16_08h36.48.898,HF_wild_card,2022.2.4,Win32,60.0060006,610a879e6500d1d653b3da54,64d2fd46c836a06233681665,64dc7c7c88eef70a32feb17c,,,,,,,ctch,resources/DR.BMP,resources/DB.BMP,Door3,0.3125,-0.015625,1,0,0,1.4436,optionRight,70,3210,2,16,0,16,0,1,,,,,,,,,,,,,,,,,,,,,,,,,,,,,,,,,,,,,,,
,,,,,,,,2023-08-16_08h36.48.898,HF_wild_card,2022.2.4,Win32,60.0060006,610a879e6500d1d653b3da54,64d2fd46c836a06233681665,64dc7c7c88eef70a32feb17c,,,,,,,decisionTrl,resources/DR.BMP,resources/DG.BMP,Door2,-0.423177083,-0.057291667,1,0,0,2.0457,optionLeft,20,3230,2,17,0,17,0,1,,,,,,,,,,,,,,,,,,,,,,,,,,,,,,,,,,,,,,,
,,,,,,,,2023-08-16_08h36.48.898,HF_wild_card,2022.2.4,Win32,60.0060006,610a879e6500d1d653b3da54,64d2fd46c836a06233681665,64dc7c7c88eef70a32feb17c,,,,,,,decisionTrl,resources/DG.BMP,resources/DBN.BMP,WildCard_NonEx,0.287760417,-0.009114583,1,0,0,1.3247,optionRight,55,3285,2,18,0,18,0,1,,,,,,,,,,,,,,,,,,,,,,,,,,,,,,,,,,,,,,,
,,,,,,,,2023-08-16_08h36.48.898,HF_wild_card,2022.2.4,Win32,60.0060006,610a879e6500d1d653b3da54,64d2fd46c836a06233681665,64dc7c7c88eef70a32feb17c,,,,,,,decisionTrl,resources/DBN.BMP,resources/DB.BMP,WildCard_NonEx,-0.2734375,-0.016927083,1,0,0,1.3083,optionLeft,55,3340,2,19,0,19,0,1,,,,,,,,,,,,,,,,,,,,,,,,,,,,,,,,,,,,,,,
,,,,,,,,2023-08-16_08h36.48.898,HF_wild_card,2022.2.4,Win32,60.0060006,610a879e6500d1d653b3da54,64d2fd46c836a06233681665,64dc7c7c88eef70a32feb17c,,,,,,,sngl,resources/DB.BMP,resources/Empty.png,Door3,-0.309895833,-0.036458333,1,0,0,0.8592,optionLeft,70,3410,2,20,0,20,0,1,,,,,,,,,,,,,,,,,,,,,,,,,,,,,,,,,,,,,,,
,,,,,,,,2023-08-16_08h36.48.898,HF_wild_card,2022.2.4,Win32,60.0060006,610a879e6500d1d653b3da54,64d2fd46c836a06233681665,64dc7c7c88eef70a32feb17c,,,,,,,decisionTrl,resources/DG.BMP,resources/DR.BMP,Door1,-0.33203125,-0.07421875,1,0,0,1.4627,optionLeft,30,3440,2,21,0,21,0,1,,,,,,,,,,,,,,,,,,,,,,,,,,,,,,,,,,,,,,,
,,,,,,,,2023-08-16_08h36.48.898,HF_wild_card,2022.2.4,Win32,60.0060006,610a879e6500d1d653b3da54,64d2fd46c836a06233681665,64dc7c7c88eef70a32feb17c,,,,,,,decisionTrl,resources/DR.BMP,resources/DG.BMP,Door2,-0.313802083,-0.032552083,1,0,0,0.8353,optionLeft,40,3480,2,22,0,22,0,1,,,,,,,,,,,,,,,,,,,,,,,,,,,,,,,,,,,,,,,
,,,,,,,,2023-08-16_08h36.48.898,HF_wild_card,2022.2.4,Win32,60.0060006,610a879e6500d1d653b3da54,64d2fd46c836a06233681665,64dc7c7c88eef70a32feb17c,,,,,,,decisionTrl,resources/DR.BMP,resources/DG.BMP,Door2,-0.360677083,-0.065104167,1,0,0,1.0967,optionLeft,40,3520,2,23,0,23,0,1,,,,,,,,,,,,,,,,,,,,,,,,,,,,,,,,,,,,,,,
,,,,,,,,2023-08-16_08h36.48.898,HF_wild_card,2022.2.4,Win32,60.0060006,610a879e6500d1d653b3da54,64d2fd46c836a06233681665,64dc7c7c88eef70a32feb17c,,,,,,,ctch,resources/DG.BMP,resources/DY.BMP,Door4,0.26953125,-0.088541667,1,0,0,1.959,optionRight,60,3580,2,24,0,24,0,1,,,,,,,,,,,,,,,,,,,,,,,,,,,,,,,,,,,,,,,
,,,,,,,,2023-08-16_08h36.48.898,HF_wild_card,2022.2.4,Win32,60.0060006,610a879e6500d1d653b3da54,64d2fd46c836a06233681665,64dc7c7c88eef70a32feb17c,,,,,,,decisionTrl,resources/DB.BMP,resources/DY.BMP,Door4,0.341145833,-0.0546875,1,0,0,1.0641,optionRight,60,3640,2,25,0,25,0,1,,,,,,,,,,,,,,,,,,,,,,,,,,,,,,,,,,,,,,,
,,,,,,,,2023-08-16_08h36.48.898,HF_wild_card,2022.2.4,Win32,60.0060006,610a879e6500d1d653b3da54,64d2fd46c836a06233681665,64dc7c7c88eef70a32feb17c,,,,,,,decisionTrl,resources/DR.BMP,resources/DG.BMP,Door2,-0.3984375,-0.029947917,1,0,0,1.2427,optionLeft,20,3660,2,26,0,26,0,1,,,,,,,,,,,,,,,,,,,,,,,,,,,,,,,,,,,,,,,
,,,,,,,,2023-08-16_08h36.48.898,HF_wild_card,2022.2.4,Win32,60.0060006,610a879e6500d1d653b3da54,64d2fd46c836a06233681665,64dc7c7c88eef70a32feb17c,,,,,,,decisionTrl,resources/DG.BMP,resources/DR.BMP,Door1,-0.350260417,-0.04296875,1,0,0,0.9807,optionLeft,30,3690,2,27,0,27,0,1,,,,,,,,,,,,,,,,,,,,,,,,,,,,,,,,,,,,,,,
,,,,,,,,2023-08-16_08h36.48.898,HF_wild_card,2022.2.4,Win32,60.0060006,610a879e6500d1d653b3da54,64d2fd46c836a06233681665,64dc7c7c88eef70a32feb17c,,,,,,,decisionTrl,resources/DY.BMP,resources/DB.BMP,Door4,-0.36328125,-0.036458333,1,0,0,0.9932,optionLeft,80,3770,2,28,0,28,0,1,,,,,,,,,,,,,,,,,,,,,,,,,,,,,,,,,,,,,,,
,,,,,,,,2023-08-16_08h36.48.898,HF_wild_card,2022.2.4,Win32,60.0060006,610a879e6500d1d653b3da54,64d2fd46c836a06233681665,64dc7c7c88eef70a32feb17c,,,,,,,decisionTrl,resources/DB.BMP,resources/DY.BMP,Door4,0.3828125,-0.032552083,1,0,0,0.8267,optionRight,80,3850,2,29,0,29,0,1,,,,,,,,,,,,,,,,,,,,,,,,,,,,,,,,,,,,,,,
,,,,,,,,2023-08-16_08h36.48.898,HF_wild_card,2022.2.4,Win32,60.0060006,610a879e6500d1d653b3da54,64d2fd46c836a06233681665,64dc7c7c88eef70a32feb17c,,,,,,,decisionTrl,resources/DY.BMP,resources/DB.BMP,Door4,-0.34765625,-0.063802083,1,0,0,0.8425,optionLeft,80,3930,2,30,0,30,0,1,,,,,,,,,,,,,,,,,,,,,,,,,,,,,,,,,,,,,,,
,,,,,,,,2023-08-16_08h36.48.898,HF_wild_card,2022.2.4,Win32,60.0060006,610a879e6500d1d653b3da54,64d2fd46c836a06233681665,64dc7c7c88eef70a32feb17c,,,,,,,sngl,resources/Empty.png,resources/DB.BMP,Door3,0.356770833,-0.055989583,1,0,0,0.8104,optionRight,70,4000,2,31,0,31,0,1,,,,,,,,,,,,,,,,,,,,,,,,,,,,,,,,,,,,,,,
,,,,,,,,2023-08-16_08h36.48.898,HF_wild_card,2022.2.4,Win32,60.0060006,610a879e6500d1d653b3da54,64d2fd46c836a06233681665,64dc7c7c88eef70a32feb17c,,,,,,,sngl,resources/Empty.png,resources/DG.BMP,Door1,0.407552083,-0.005208333,1,0,0,0.831,optionRight,30,4030,2,32,0,32,0,1,,,,,,,,,,,,,,,,,,,,,,,,,,,,,,,,,,,,,,,
,,,,,,,,2023-08-16_08h36.48.898,HF_wild_card,2022.2.4,Win32,60.0060006,610a879e6500d1d653b3da54,64d2fd46c836a06233681665,64dc7c7c88eef70a32feb17c,,,,,,,decisionTrl,resources/DBN.BMP,resources/DY.BMP,Door4,0.471354167,0.01953125,1,0,0,1.61,optionRight,60,4090,2,33,0,33,0,1,,,,,,,,,,,,,,,,,,,,,,,,,,,,,,,,,,,,,,,
,,,,,,,,2023-08-16_08h36.48.898,HF_wild_card,2022.2.4,Win32,60.0060006,610a879e6500d1d653b3da54,64d2fd46c836a06233681665,64dc7c7c88eef70a32feb17c,,,,,,,ctch,resources/DY.BMP,resources/DG.BMP,Door4,-0.264322917,0.001302083,1,0,0,1.0627,optionLeft,80,4170,2,34,0,34,0,1,,,,,,,,,,,,,,,,,,,,,,,,,,,,,,,,,,,,,,,
,,,,,,,,2023-08-16_08h36.48.898,HF_wild_card,2022.2.4,Win32,60.0060006,610a879e6500d1d653b3da54,64d2fd46c836a06233681665,64dc7c7c88eef70a32feb17c,,,,,,,ctch,resources/DB.BMP,resources/DR.BMP,Door3,-0.356770833,-0.032552083,1,0,0,1.2628,optionLeft,70,4240,2,35,0,35,0,1,,,,,,,,,,,,,,,,,,,,,,,,,,,,,,,,,,,,,,,
,,,,,,,,2023-08-16_08h36.48.898,HF_wild_card,2022.2.4,Win32,60.0060006,610a879e6500d1d653b3da54,64d2fd46c836a06233681665,64dc7c7c88eef70a32feb17c,,,,,,,sngl,resources/Empty.png,resources/DY.BMP,Door4,0.393229167,-0.002604167,1,0,0,0.8206,optionRight,80,4320,2,36,0,36,0,1,,,,,,,,,,,,,,,,,,,,,,,,,,,,,,,,,,,,,,,
,,,,,,,,2023-08-16_08h36.48.898,HF_wild_card,2022.2.4,Win32,60.0060006,610a879e6500d1d653b3da54,64d2fd46c836a06233681665,64dc7c7c88eef70a32feb17c,,,,,,,sngl,resources/DR.BMP,resources/Empty.png,Door2,-0.375,-0.057291667,1,0,0,0.8969,optionLeft,20,4340,2,37,0,37,0,1,,,,,,,,,,,,,,,,,,,,,,,,,,,,,,,,,,,,,,,
,,,,,,,,2023-08-16_08h36.48.898,HF_wild_card,2022.2.4,Win32,60.0060006,610a879e6500d1d653b3da54,64d2fd46c836a06233681665,64dc7c7c88eef70a32feb17c,,,,,,,ctch,resources/DB.BMP,resources/DR.BMP,Door3,-0.361979167,-0.071614583,1,0,0,1.2423,optionLeft,70,4410,2,38,0,38,0,1,,,,,,,,,,,,,,,,,,,,,,,,,,,,,,,,,,,,,,,
,,,,,,,,2023-08-16_08h36.48.898,HF_wild_card,2022.2.4,Win32,60.0060006,610a879e6500d1d653b3da54,64d2fd46c836a06233681665,64dc7c7c88eef70a32feb17c,,,,,,,decisionTrl,resources/DG.BMP,resources/DR.BMP,Door1,-0.390625,-0.03125,1,0,0,1.0947,optionLeft,30,4440,2,39,0,39,0,1,,,,,,,,,,,,,,,,,,,,,,,,,,,,,,,,,,,,,,,
,,,,,,,,2023-08-16_08h36.48.898,HF_wild_card,2022.2.4,Win32,60.0060006,610a879e6500d1d653b3da54,64d2fd46c836a06233681665,64dc7c7c88eef70a32feb17c,,,,,,,sngl,resources/Empty.png,resources/DBN.BMP,WildCard_NonEx,0.302083333,0.002604167,1,0,0,0.8993,optionRight,55,4495,2,40,0,40,0,1,,,,,,,,,,,,,,,,,,,,,,,,,,,,,,,,,,,,,,,
,,,,,,,,2023-08-16_08h36.48.898,HF_wild_card,2022.2.4,Win32,60.0060006,610a879e6500d1d653b3da54,64d2fd46c836a06233681665,64dc7c7c88eef70a32feb17c,,,,,,,decisionTrl,resources/DY.BMP,resources/DB.BMP,Door4,-0.34765625,-0.040364583,1,0,0,1.2257,optionLeft,60,4555,2,41,0,41,0,1,,,,,,,,,,,,,,,,,,,,,,,,,,,,,,,,,,,,,,,
,,,,,,,,2023-08-16_08h36.48.898,HF_wild_card,2022.2.4,Win32,60.0060006,610a879e6500d1d653b3da54,64d2fd46c836a06233681665,64dc7c7c88eef70a32feb17c,,,,,,,ctch,resources/DR.BMP,resources/DB.BMP,Door2,-0.326822917,-0.037760417,1,0,0,1.3433,optionLeft,40,4595,2,42,0,42,0,1,,,,,,,,,,,,,,,,,,,,,,,,,,,,,,,,,,,,,,,
,,,,,,,,2023-08-16_08h36.48.898,HF_wild_card,2022.2.4,Win32,60.0060006,610a879e6500d1d653b3da54,64d2fd46c836a06233681665,64dc7c7c88eef70a32feb17c,,,,,,,decisionTrl,resources/DB.BMP,resources/DY.BMP,Door4,0.421875,-0.016927083,1,0,0,1.5277,optionRight,60,4655,2,43,0,43,0,1,,,,,,,,,,,,,,,,,,,,,,,,,,,,,,,,,,,,,,,
,,,,,,,,2023-08-16_08h36.48.898,HF_wild_card,2022.2.4,Win32,60.0060006,610a879e6500d1d653b3da54,64d2fd46c836a06233681665,64dc7c7c88eef70a32feb17c,,,,,,,,,,,,,,,,,,,,,,,,,,1,0,1,0,1,,,,,,,,,,,,,,,,,,,,,,,,,,,,,,,,,,
,,,,,,,,2023-08-16_08h36.48.898,HF_wild_card,2022.2.4,Win32,60.0060006,610a879e6500d1d653b3da54,64d2fd46c836a06233681665,64dc7c7c88eef70a32feb17c,,,,,,,decisionTrl,resources/DB.BMP,resources/DY.BMP,Door4,0.48828125,-0.139322917,1,0,0,1.1354,optionRight,60,4715,3,0,0,0,0,1,,,,,,,,,,,,,,,,,,,,,,,,,,,,,,,,,,,,,,,
,,,,,,,,2023-08-16_08h36.48.898,HF_wild_card,2022.2.4,Win32,60.0060006,610a879e6500d1d653b3da54,64d2fd46c836a06233681665,64dc7c7c88eef70a32feb17c,,,,,,,sngl,resources/Empty.png,resources/DBN.BMP,WildCard_NonEx,0.346354167,-0.01171875,1,0,0,0.8818,optionRight,45,4760,3,1,0,1,0,1,,,,,,,,,,,,,,,,,,,,,,,,,,,,,,,,,,,,,,,
,,,,,,,,2023-08-16_08h36.48.898,HF_wild_card,2022.2.4,Win32,60.0060006,610a879e6500d1d653b3da54,64d2fd46c836a06233681665,64dc7c7c88eef70a32feb17c,,,,,,,decisionTrl,resources/DG.BMP,resources/DBN.BMP,WildCard_NonEx,0.33984375,-0.040364583,1,0,0,1.2249,optionRight,45,4805,3,2,0,2,0,1,,,,,,,,,,,,,,,,,,,,,,,,,,,,,,,,,,,,,,,
,,,,,,,,2023-08-16_08h36.48.898,HF_wild_card,2022.2.4,Win32,60.0060006,610a879e6500d1d653b3da54,64d2fd46c836a06233681665,64dc7c7c88eef70a32feb17c,,,,,,,decisionTrl,resources/DR.BMP,resources/DG.BMP,Door2,-0.4296875,-0.028645833,1,0,0,1.494,optionLeft,20,4825,3,3,0,3,0,1,,,,,,,,,,,,,,,,,,,,,,,,,,,,,,,,,,,,,,,
,,,,,,,,2023-08-16_08h36.48.898,HF_wild_card,2022.2.4,Win32,60.0060006,610a879e6500d1d653b3da54,64d2fd46c836a06233681665,64dc7c7c88eef70a32feb17c,,,,,,,ctch,resources/DB.BMP,resources/DR.BMP,Door3,-0.334635417,-0.018229167,1,0,0,0.8773,optionLeft,70,4895,3,4,0,4,0,1,,,,,,,,,,,,,,,,,,,,,,,,,,,,,,,,,,,,,,,
,,,,,,,,2023-08-16_08h36.48.898,HF_wild_card,2022.2.4,Win32,60.0060006,610a879e6500d1d653b3da54,64d2fd46c836a06233681665,64dc7c7c88eef70a32feb17c,,,,,,,sngl,resources/DG.BMP,resources/Empty.png,Door1,-0.309895833,0.015625,1,0,0,1.0091,optionLeft,30,4925,3,5,0,5,0,1,,,,,,,,,,,,,,,,,,,,,,,,,,,,,,,,,,,,,,,
,,,,,,,,2023-08-16_08h36.48.898,HF_wild_card,2022.2.4,Win32,60.0060006,610a879e6500d1d653b3da54,64d2fd46c836a06233681665,64dc7c7c88eef70a32feb17c,,,,,,,decisionTrl,resources/DB.BMP,resources/DY.BMP,Door4,0.35546875,-0.02734375,1,0,0,0.9764,optionRight,60,4985,3,6,0,6,0,1,,,,,,,,,,,,,,,,,,,,,,,,,,,,,,,,,,,,,,,
,,,,,,,,2023-08-16_08h36.48.898,HF_wild_card,2022.2.4,Win32,60.0060006,610a879e6500d1d653b3da54,64d2fd46c836a06233681665,64dc7c7c88eef70a32feb17c,,,,,,,decisionTrl,resources/DBN.BMP,resources/DB.BMP,WildCard_NonEx,0.006510417,-0.015625,1,0,0,0.7149,optionLeft,45,5030,3,7,0,7,0,1,,,,,,,,,,,,,,,,,,,,,,,,,,,,,,,,,,,,,,,
,,,,,,,,2023-08-16_08h36.48.898,HF_wild_card,2022.2.4,Win32,60.0060006,610a879e6500d1d653b3da54,64d2fd46c836a06233681665,64dc7c7c88eef70a32feb17c,,,,,,,sngl,resources/DBN.BMP,resources/Empty.png,WildCard_NonEx,-0.28515625,0.010416667,1,0,0,0.8265,optionLeft,45,5075,3,8,0,8,0,1,,,,,,,,,,,,,,,,,,,,,,,,,,,,,,,,,,,,,,,
,,,,,,,,2023-08-16_08h36.48.898,HF_wild_card,2022.2.4,Win32,60.0060006,610a879e6500d1d653b3da54,64d2fd46c836a06233681665,64dc7c7c88eef70a32feb17c,,,,,,,decisionTrl,resources/DG.BMP,resources/DR.BMP,Door1,-0.373697917,-0.032552083,1,0,0,1.3263,optionLeft,30,5105,3,9,0,9,0,1,,,,,,,,,,,,,,,,,,,,,,,,,,,,,,,,,,,,,,,
,,,,,,,,2023-08-16_08h36.48.898,HF_wild_card,2022.2.4,Win32,60.0060006,610a879e6500d1d653b3da54,64d2fd46c836a06233681665,64dc7c7c88eef70a32feb17c,,,,,,,decisionTrl,resources/DY.BMP,resources/DB.BMP,Door4,-0.399739583,-0.063802083,1,0,0,0.912,optionLeft,60,5165,3,10,0,10,0,1,,,,,,,,,,,,,,,,,,,,,,,,,,,,,,,,,,,,,,,
,,,,,,,,2023-08-16_08h36.48.898,HF_wild_card,2022.2.4,Win32,60.0060006,610a879e6500d1d653b3da54,64d2fd46c836a06233681665,64dc7c7c88eef70a32feb17c,,,,,,,decisionTrl,resources/DG.BMP,resources/DR.BMP,Door1,-0.423177083,-0.010416667,1,0,0,1.5418,optionLeft,30,5195,3,11,0,11,0,1,,,,,,,,,,,,,,,,,,,,,,,,,,,,,,,,,,,,,,,
,,,,,,,,2023-08-16_08h36.48.898,HF_wild_card,2022.2.4,Win32,60.0060006,610a879e6500d1d653b3da54,64d2fd46c836a06233681665,64dc7c7c88eef70a32feb17c,,,,,,,ctch,resources/DR.BMP,resources/DB.BMP,Door2,-0.350260417,-0.01171875,1,0,0,1.8798,optionLeft,40,5235,3,12,0,12,0,1,,,,,,,,,,,,,,,,,,,,,,,,,,,,,,,,,,,,,,,
,,,,,,,,2023-08-16_08h36.48.898,HF_wild_card,2022.2.4,Win32,60.0060006,610a879e6500d1d653b3da54,64d2fd46c836a06233681665,64dc7c7c88eef70a32feb17c,,,,,,,sngl,resources/Empty.png,resources/DB.BMP,Door3,0.384114583,-0.022135417,1,0,0,0.8108,optionRight,70,5305,3,13,0,13,0,1,,,,,,,,,,,,,,,,,,,,,,,,,,,,,,,,,,,,,,,
,,,,,,,,2023-08-16_08h36.48.898,HF_wild_card,2022.2.4,Win32,60.0060006,610a879e6500d1d653b3da54,64d2fd46c836a06233681665,64dc7c7c88eef70a32feb17c,,,,,,,sngl,resources/Empty.png,resources/DR.BMP,Door2,0.358072917,-0.01953125,1,0,0,0.8506,optionRight,20,5325,3,14,0,14,0,1,,,,,,,,,,,,,,,,,,,,,,,,,,,,,,,,,,,,,,,
,,,,,,,,2023-08-16_08h36.48.898,HF_wild_card,2022.2.4,Win32,60.0060006,610a879e6500d1d653b3da54,64d2fd46c836a06233681665,64dc7c7c88eef70a32feb17c,,,,,,,decisionTrl,resources/DBN.BMP,resources/DY.BMP,Door4,0.365885417,-0.015625,1,0,0,1.5681,optionRight,80,5405,3,15,0,15,0,1,,,,,,,,,,,,,,,,,,,,,,,,,,,,,,,,,,,,,,,
,,,,,,,,2023-08-16_08h36.48.898,HF_wild_card,2022.2.4,Win32,60.0060006,610a879e6500d1d653b3da54,64d2fd46c836a06233681665,64dc7c7c88eef70a32feb17c,,,,,,,sngl,resources/DY.BMP,resources/Empty.png,Door4,-0.303385417,-0.055989583,1,0,0,1.2418,optionLeft,80,5485,3,16,0,16,0,1,,,,,,,,,,,,,,,,,,,,,,,,,,,,,,,,,,,,,,,
,,,,,,,,2023-08-16_08h36.48.898,HF_wild_card,2022.2.4,Win32,60.0060006,610a879e6500d1d653b3da54,64d2fd46c836a06233681665,64dc7c7c88eef70a32feb17c,,,,,,,decisionTrl,resources/DR.BMP,resources/DBN.BMP,Door2,-0.388020833,-0.0625,1,0,0,1.0306,optionLeft,20,5505,3,17,0,17,0,1,,,,,,,,,,,,,,,,,,,,,,,,,,,,,,,,,,,,,,,
,,,,,,,,2023-08-16_08h36.48.898,HF_wild_card,2022.2.4,Win32,60.0060006,610a879e6500d1d653b3da54,64d2fd46c836a06233681665,64dc7c7c88eef70a32feb17c,,,,,,,decisionTrl,resources/DB.BMP,resources/DBN.BMP,WildCard_NonEx,0.391927083,0.0078125,1,0,0,1.0772,optionRight,45,5550,3,18,0,18,0,1,,,,,,,,,,,,,,,,,,,,,,,,,,,,,,,,,,,,,,,
,,,,,,,,2023-08-16_08h36.48.898,HF_wild_card,2022.2.4,Win32,60.0060006,610a879e6500d1d653b3da54,64d2fd46c836a06233681665,64dc7c7c88eef70a32feb17c,,,,,,,decisionTrl,resources/DG.BMP,resources/DR.BMP,Door1,-0.34375,-0.024739583,1,0,0,1.215,optionLeft,30,5580,3,19,0,19,0,1,,,,,,,,,,,,,,,,,,,,,,,,,,,,,,,,,,,,,,,
,,,,,,,,2023-08-16_08h36.48.898,HF_wild_card,2022.2.4,Win32,60.0060006,610a879e6500d1d653b3da54,64d2fd46c836a06233681665,64dc7c7c88eef70a32feb17c,,,,,,,sngl,resources/DBN.BMP,resources/Empty.png,WildCard_NonEx,-0.330729167,-0.028645833,1,0,0,0.8041,optionLeft,55,5635,3,20,0,20,0,1,,,,,,,,,,,,,,,,,,,,,,,,,,,,,,,,,,,,,,,
,,,,,,,,2023-08-16_08h36.48.898,HF_wild_card,2022.2.4,Win32,60.0060006,610a879e6500d1d653b3da54,64d2fd46c836a06233681665,64dc7c7c88eef70a32feb17c,,,,,,,decisionTrl,resources/DG.BMP,resources/DR.BMP,Door1,-0.342447917,-0.0390625,1,0,0,1.8772,optionLeft,30,5665,3,21,0,21,0,1,,,,,,,,,,,,,,,,,,,,,,,,,,,,,,,,,,,,,,,
,,,,,,,,2023-08-16_08h36.48.898,HF_wild_card,2022.2.4,Win32,60.0060006,610a879e6500d1d653b3da54,64d2fd46c836a06233681665,64dc7c7c88eef70a32feb17c,,,,,,,decisionTrl,resources/DR.BMP,resources/DG.BMP,Door1,0.369791667,0.013020833,1,0,0,1.3435,optionRight,30,5695,3,22,0,22,0,1,,,,,,,,,,,,,,,,,,,,,,,,,,,,,,,,,,,,,,,
,,,,,,,,2023-08-16_08h36.48.898,HF_wild_card,2022.2.4,Win32,60.0060006,610a879e6500d1d653b3da54,64d2fd46c836a06233681665,64dc7c7c88eef70a32feb17c,,,,,,,decisionTrl,resources/DY.BMP,resources/DB.BMP,Door4,-0.290364583,-0.046875,1,0,0,1.1258,optionLeft,80,5775,3,23,0,23,0,1,,,,,,,,,,,,,,,,,,,,,,,,,,,,,,,,,,,,,,,
,,,,,,,,2023-08-16_08h36.48.898,HF_wild_card,2022.2.4,Win32,60.0060006,610a879e6500d1d653b3da54,64d2fd46c836a06233681665,64dc7c7c88eef70a32feb17c,,,,,,,sngl,resources/DR.BMP,resources/Empty.png,Door2,-0.30859375,-0.014322917,1,0,0,0.8879,optionLeft,40,5815,3,24,0,24,0,1,,,,,,,,,,,,,,,,,,,,,,,,,,,,,,,,,,,,,,,
,,,,,,,,2023-08-16_08h36.48.898,HF_wild_card,2022.2.4,Win32,60.0060006,610a879e6500d1d653b3da54,64d2fd46c836a06233681665,64dc7c7c88eef70a32feb17c,,,,,,,ctch,resources/DG.BMP,resources/DY.BMP,Door4,0.381510417,0.002604167,1,0,0,1.1967,optionRight,80,5895,3,25,0,25,0,1,,,,,,,,,,,,,,,,,,,,,,,,,,,,,,,,,,,,,,,
,,,,,,,,2023-08-16_08h36.48.898,HF_wild_card,2022.2.4,Win32,60.0060006,610a879e6500d1d653b3da54,64d2fd46c836a06233681665,64dc7c7c88eef70a32feb17c,,,,,,,decisionTrl,resources/DB.BMP,resources/DY.BMP,Door4,0.359375,0.001302083,1,0,0,0.7297,optionRight,80,5975,3,26,0,26,0,1,,,,,,,,,,,,,,,,,,,,,,,,,,,,,,,,,,,,,,,
,,,,,,,,2023-08-16_08h36.48.898,HF_wild_card,2022.2.4,Win32,60.0060006,610a879e6500d1d653b3da54,64d2fd46c836a06233681665,64dc7c7c88eef70a32feb17c,,,,,,,decisionTrl,resources/DY.BMP,resources/DB.BMP,Door4,-0.270833333,-0.02734375,1,0,0,0.8268,optionLeft,80,6055,3,27,0,27,0,1,,,,,,,,,,,,,,,,,,,,,,,,,,,,,,,,,,,,,,,
,,,,,,,,2023-08-16_08h36.48.898,HF_wild_card,2022.2.4,Win32,60.0060006,610a879e6500d1d653b3da54,64d2fd46c836a06233681665,64dc7c7c88eef70a32feb17c,,,,,,,decisionTrl,resources/DBN.BMP,resources/DG.BMP,WildCard_NonEx,0.010416667,-0.005208333,1,0,0,0.5666,optionLeft,55,6110,3,28,0,28,0,1,,,,,,,,,,,,,,,,,,,,,,,,,,,,,,,,,,,,,,,
,,,,,,,,2023-08-16_08h36.48.898,HF_wild_card,2022.2.4,Win32,60.0060006,610a879e6500d1d653b3da54,64d2fd46c836a06233681665,64dc7c7c88eef70a32feb17c,,,,,,,decisionTrl,resources/DR.BMP,resources/DG.BMP,Door1,0.430989583,0.018229167,1,0,0,1.2274,optionRight,30,6140,3,29,0,29,0,1,,,,,,,,,,,,,,,,,,,,,,,,,,,,,,,,,,,,,,,
,,,,,,,,2023-08-16_08h36.48.898,HF_wild_card,2022.2.4,Win32,60.0060006,610a879e6500d1d653b3da54,64d2fd46c836a06233681665,64dc7c7c88eef70a32feb17c,,,,,,,decisionTrl,resources/DY.BMP,resources/DBN.BMP,Door4,-0.322916667,-0.04296875,1,0,0,1.0017,optionLeft,60,6200,3,30,0,30,0,1,,,,,,,,,,,,,,,,,,,,,,,,,,,,,,,,,,,,,,,
,,,,,,,,2023-08-16_08h36.48.898,HF_wild_card,2022.2.4,Win32,60.0060006,610a879e6500d1d653b3da54,64d2fd46c836a06233681665,64dc7c7c88eef70a32feb17c,,,,,,,decisionTrl,resources/DY.BMP,resources/DB.BMP,Door4,-0.37890625,-0.05078125,1,0,0,0.9287,optionLeft,80,6280,3,31,0,31,0,1,,,,,,,,,,,,,,,,,,,,,,,,,,,,,,,,,,,,,,,
,,,,,,,,2023-08-16_08h36.48.898,HF_wild_card,2022.2.4,Win32,60.0060006,610a879e6500d1d653b3da54,64d2fd46c836a06233681665,64dc7c7c88eef70a32feb17c,,,,,,,ctch,resources/DB.BMP,resources/DR.BMP,Door3,-0.446614583,-0.05078125,1,0,0,1.2496,optionLeft,70,6350,3,32,0,32,0,1,,,,,,,,,,,,,,,,,,,,,,,,,,,,,,,,,,,,,,,
,,,,,,,,2023-08-16_08h36.48.898,HF_wild_card,2022.2.4,Win32,60.0060006,610a879e6500d1d653b3da54,64d2fd46c836a06233681665,64dc7c7c88eef70a32feb17c,,,,,,,ctch,resources/DG.BMP,resources/DY.BMP,Door4,0.3671875,-0.018229167,1,0,0,1.1335,optionRight,80,6430,3,33,0,33,0,1,,,,,,,,,,,,,,,,,,,,,,,,,,,,,,,,,,,,,,,
,,,,,,,,2023-08-16_08h36.48.898,HF_wild_card,2022.2.4,Win32,60.0060006,610a879e6500d1d653b3da54,64d2fd46c836a06233681665,64dc7c7c88eef70a32feb17c,,,,,,,sngl,resources/Empty.png,resources/DG.BMP,Door1,0.352864583,-0.055989583,1,0,0,0.8172,optionRight,30,6460,3,34,0,34,0,1,,,,,,,,,,,,,,,,,,,,,,,,,,,,,,,,,,,,,,,
,,,,,,,,2023-08-16_08h36.48.898,HF_wild_card,2022.2.4,Win32,60.0060006,610a879e6500d1d653b3da54,64d2fd46c836a06233681665,64dc7c7c88eef70a32feb17c,,,,,,,decisionTrl,resources/DB.BMP,resources/DY.BMP,Door4,0.419270833,-0.03515625,1,0,0,1.2835,optionRight,80,6540,3,35,0,35,0,1,,,,,,,,,,,,,,,,,,,,,,,,,,,,,,,,,,,,,,,
,,,,,,,,2023-08-16_08h36.48.898,HF_wild_card,2022.2.4,Win32,60.0060006,610a879e6500d1d653b3da54,64d2fd46c836a06233681665,64dc7c7c88eef70a32feb17c,,,,,,,sngl,resources/Empty.png,resources/DBN.BMP,WildCard_NonEx,0.2578125,-0.044270833,1,0,0,1.2241,optionRight,55,6595,3,36,0,36,0,1,,,,,,,,,,,,,,,,,,,,,,,,,,,,,,,,,,,,,,,
,,,,,,,,2023-08-16_08h36.48.898,HF_wild_card,2022.2.4,Win32,60.0060006,610a879e6500d1d653b3da54,64d2fd46c836a06233681665,64dc7c7c88eef70a32feb17c,,,,,,,sngl,resources/DB.BMP,resources/Empty.png,Door3,-0.3125,-0.044270833,1,0,0,0.7956,optionLeft,70,6665,3,37,0,37,0,1,,,,,,,,,,,,,,,,,,,,,,,,,,,,,,,,,,,,,,,
,,,,,,,,2023-08-16_08h36.48.898,HF_wild_card,2022.2.4,Win32,60.0060006,610a879e6500d1d653b3da54,64d2fd46c836a06233681665,64dc7c7c88eef70a32feb17c,,,,,,,ctch,resources/DY.BMP,resources/DG.BMP,Door4,-0.381510417,-0.0234375,1,0,0,1.0314,optionLeft,80,6745,3,38,0,38,0,1,,,,,,,,,,,,,,,,,,,,,,,,,,,,,,,,,,,,,,,
,,,,,,,,2023-08-16_08h36.48.898,HF_wild_card,2022.2.4,Win32,60.0060006,610a879e6500d1d653b3da54,64d2fd46c836a06233681665,64dc7c7c88eef70a32feb17c,,,,,,,ctch,resources/DY.BMP,resources/DG.BMP,Door4,-0.23828125,-0.0234375,1,0,0,0.8417,optionLeft,80,6825,3,39,0,39,0,1,,,,,,,,,,,,,,,,,,,,,,,,,,,,,,,,,,,,,,,
,,,,,,,,2023-08-16_08h36.48.898,HF_wild_card,2022.2.4,Win32,60.0060006,610a879e6500d1d653b3da54,64d2fd46c836a06233681665,64dc7c7c88eef70a32feb17c,,,,,,,decisionTrl,resources/DR.BMP,resources/DG.BMP,Door2,-0.299479167,-0.028645833,1,0,0,2.298,optionLeft,20,6845,3,40,0,40,0,1,,,,,,,,,,,,,,,,,,,,,,,,,,,,,,,,,,,,,,,
,,,,,,,,2023-08-16_08h36.48.898,HF_wild_card,2022.2.4,Win32,60.0060006,610a879e6500d1d653b3da54,64d2fd46c836a06233681665,64dc7c7c88eef70a32feb17c,,,,,,,sngl,resources/Empty.png,resources/DY.BMP,Door4,0.345052083,-0.018229167,1,0,0,0.7592,optionRight,60,6905,3,41,0,41,0,1,,,,,,,,,,,,,,,,,,,,,,,,,,,,,,,,,,,,,,,
,,,,,,,,2023-08-16_08h36.48.898,HF_wild_card,2022.2.4,Win32,60.0060006,610a879e6500d1d653b3da54,64d2fd46c836a06233681665,64dc7c7c88eef70a32feb17c,,,,,,,decisionTrl,resources/DBN.BMP,resources/DR.BMP,WildCard_NonEx,-0.427083333,-0.087239583,1,0,0,1.1,optionLeft,55,6960,3,42,0,42,0,1,,,,,,,,,,,,,,,,,,,,,,,,,,,,,,,,,,,,,,,
,,,,,,,,2023-08-16_08h36.48.898,HF_wild_card,2022.2.4,Win32,60.0060006,610a879e6500d1d653b3da54,64d2fd46c836a06233681665,64dc7c7c88eef70a32feb17c,,,,,,,ctch,resources/DR.BMP,resources/DB.BMP,Door2,-0.368489583,-0.0546875,1,0,0,1.0281,optionLeft,20,6980,3,43,0,43,0,1,,,,,,,,,,,,,,,,,,,,,,,,,,,,,,,,,,,,,,,
,,,,,,,,2023-08-16_08h36.48.898,HF_wild_card,2022.2.4,Win32,60.0060006,610a879e6500d1d653b3da54,64d2fd46c836a06233681665,64dc7c7c88eef70a32feb17c,,,,,,,,,,,,,,,,,,,,,,,,,,2,0,2,0,1,,,,,,,,,,,,,,,,,,,,,,,,,,,,,,,,,,
,,,,,,,,2023-08-16_08h36.48.898,HF_wild_card,2022.2.4,Win32,60.0060006,610a879e6500d1d653b3da54,64d2fd46c836a06233681665,64dc7c7c88eef70a32feb17c,,,,,,,decisionTrl,resources/DG.BMP,resources/DR.BMP,Door1,-0.428385417,-0.09375,1,0,0,1.162,optionLeft,30,7010,4,0,0,0,0,1,,,,,,,,,,,,,,,,,,,,,,,,,,,,,,,,,,,,,,,
,,,,,,,,2023-08-16_08h36.48.898,HF_wild_card,2022.2.4,Win32,60.0060006,610a879e6500d1d653b3da54,64d2fd46c836a06233681665,64dc7c7c88eef70a32feb17c,,,,,,,sngl,resources/Empty.png,resources/DP.BMP,WildCard_Ex,0.352864583,-0.026041667,1,0,0,1.0401,optionRight,45,7055,4,1,0,1,0,1,,,,,,,,,,,,,,,,,,,,,,,,,,,,,,,,,,,,,,,
,,,,,,,,2023-08-16_08h36.48.898,HF_wild_card,2022.2.4,Win32,60.0060006,610a879e6500d1d653b3da54,64d2fd46c836a06233681665,64dc7c7c88eef70a32feb17c,,,,,,,decisionTrl,resources/DR.BMP,resources/DP.BMP,WildCard_Ex,0.385416667,-0.055989583,1,0,0,1.161,optionRight,55,7110,4,2,0,2,0,1,,,,,,,,,,,,,,,,,,,,,,,,,,,,,,,,,,,,,,,
,,,,,,,,2023-08-16_08h36.48.898,HF_wild_card,2022.2.4,Win32,60.0060006,610a879e6500d1d653b3da54,64d2fd46c836a06233681665,64dc7c7c88eef70a32feb17c,,,,,,,sngl,resources/DP.BMP,resources/Empty.png,WildCard_Ex,-0.40625,-0.057291667,1,0,0,0.8302,optionLeft,55,7165,4,3,0,3,0,1,,,,,,,,,,,,,,,,,,,,,,,,,,,,,,,,,,,,,,,
,,,,,,,,2023-08-16_08h36.48.898,HF_wild_card,2022.2.4,Win32,60.0060006,610a879e6500d1d653b3da54,64d2fd46c836a06233681665,64dc7c7c88eef70a32feb17c,,,,,,,decisionTrl,resources/DY.BMP,resources/DB.BMP,Door4,-0.415364583,-0.028645833,1,0,0,1.0773,optionLeft,80,7245,4,4,0,4,0,1,,,,,,,,,,,,,,,,,,,,,,,,,,,,,,,,,,,,,,,
,,,,,,,,2023-08-16_08h36.48.898,HF_wild_card,2022.2.4,Win32,60.0060006,610a879e6500d1d653b3da54,64d2fd46c836a06233681665,64dc7c7c88eef70a32feb17c,,,,,,,ctch,resources/DR.BMP,resources/DB.BMP,Door3,0.30078125,-0.057291667,1,0,0,2.3606,optionRight,70,7315,4,5,0,5,0,1,,,,,,,,,,,,,,,,,,,,,,,,,,,,,,,,,,,,,,,
,,,,,,,,2023-08-16_08h36.48.898,HF_wild_card,2022.2.4,Win32,60.0060006,610a879e6500d1d653b3da54,64d2fd46c836a06233681665,64dc7c7c88eef70a32feb17c,,,,,,,decisionTrl,resources/DR.BMP,resources/DG.BMP,Door1,0.348958333,0.009114583,1,0,0,1.547,optionRight,30,7345,4,6,0,6,0,1,,,,,,,,,,,,,,,,,,,,,,,,,,,,,,,,,,,,,,,
,,,,,,,,2023-08-16_08h36.48.898,HF_wild_card,2022.2.4,Win32,60.0060006,610a879e6500d1d653b3da54,64d2fd46c836a06233681665,64dc7c7c88eef70a32feb17c,,,,,,,decisionTrl,resources/DY.BMP,resources/DP.BMP,Door4,-0.451822917,-0.080729167,1,0,0,0.9827,optionLeft,60,7405,4,7,0,7,0,1,,,,,,,,,,,,,,,,,,,,,,,,,,,,,,,,,,,,,,,
,,,,,,,,2023-08-16_08h36.48.898,HF_wild_card,2022.2.4,Win32,60.0060006,610a879e6500d1d653b3da54,64d2fd46c836a06233681665,64dc7c7c88eef70a32feb17c,,,,,,,decisionTrl,resources/DG.BMP,resources/DR.BMP,Door1,-0.44140625,-0.044270833,1,0,0,1.3142,optionLeft,30,7435,4,8,0,8,0,1,,,,,,,,,,,,,,,,,,,,,,,,,,,,,,,,,,,,,,,
,,,,,,,,2023-08-16_08h36.48.898,HF_wild_card,2022.2.4,Win32,60.0060006,610a879e6500d1d653b3da54,64d2fd46c836a06233681665,64dc7c7c88eef70a32feb17c,,,,,,,decisionTrl,resources/DR.BMP,resources/DG.BMP,Door2,-0.342447917,-0.028645833,1,0,0,1.367,optionLeft,40,7475,4,9,0,9,0,1,,,,,,,,,,,,,,,,,,,,,,,,,,,,,,,,,,,,,,,
,,,,,,,,2023-08-16_08h36.48.898,HF_wild_card,2022.2.4,Win32,60.0060006,610a879e6500d1d653b3da54,64d2fd46c836a06233681665,64dc7c7c88eef70a32feb17c,,,,,,,decisionTrl,resources/DG.BMP,resources/DR.BMP,Door1,-0.38671875,-0.057291667,1,0,0,1.2089,optionLeft,30,7505,4,10,0,10,0,1,,,,,,,,,,,,,,,,,,,,,,,,,,,,,,,,,,,,,,,
,,,,,,,,2023-08-16_08h36.48.898,HF_wild_card,2022.2.4,Win32,60.0060006,610a879e6500d1d653b3da54,64d2fd46c836a06233681665,64dc7c7c88eef70a32feb17c,,,,,,,ctch,resources/DB.BMP,resources/DR.BMP,Door3,-0.329427083,-0.046875,1,0,0,0.814,optionLeft,70,7575,4,11,0,11,0,1,,,,,,,,,,,,,,,,,,,,,,,,,,,,,,,,,,,,,,,
,,,,,,,,2023-08-16_08h36.48.898,HF_wild_card,2022.2.4,Win32,60.0060006,610a879e6500d1d653b3da54,64d2fd46c836a06233681665,64dc7c7c88eef70a32feb17c,,,,,,,decisionTrl,resources/DG.BMP,resources/DP.BMP,WildCard_Ex,0.376302083,-0.055989583,1,0,0,0.8446,optionRight,55,7630,4,12,0,12,0,1,,,,,,,,,,,,,,,,,,,,,,,,,,,,,,,,,,,,,,,
,,,,,,,,2023-08-16_08h36.48.898,HF_wild_card,2022.2.4,Win32,60.0060006,610a879e6500d1d653b3da54,64d2fd46c836a06233681665,64dc7c7c88eef70a32feb17c,,,,,,,decisionTrl,resources/DY.BMP,resources/DB.BMP,Door4,-0.272135417,-0.06640625,1,0,0,1.1646,optionLeft,80,7710,4,13,0,13,0,1,,,,,,,,,,,,,,,,,,,,,,,,,,,,,,,,,,,,,,,
,,,,,,,,2023-08-16_08h36.48.898,HF_wild_card,2022.2.4,Win32,60.0060006,610a879e6500d1d653b3da54,64d2fd46c836a06233681665,64dc7c7c88eef70a32feb17c,,,,,,,sngl,resources/Empty.png,resources/DR.BMP,Door2,0.278645833,-0.046875,1,0,0,0.8961,optionRight,40,7750,4,14,0,14,0,1,,,,,,,,,,,,,,,,,,,,,,,,,,,,,,,,,,,,,,,
,,,,,,,,2023-08-16_08h36.48.898,HF_wild_card,2022.2.4,Win32,60.0060006,610a879e6500d1d653b3da54,64d2fd46c836a06233681665,64dc7c7c88eef70a32feb17c,,,,,,,decisionTrl,resources/DR.BMP,resources/DG.BMP,Door2,-0.009114583,-0.013020833,1,0,0,0.6459,optionLeft,20,7770,4,15,0,15,0,1,,,,,,,,,,,,,,,,,,,,,,,,,,,,,,,,,,,,,,,
,,,,,,,,2023-08-16_08h36.48.898,HF_wild_card,2022.2.4,Win32,60.0060006,610a879e6500d1d653b3da54,64d2fd46c836a06233681665,64dc7c7c88eef70a32feb17c,,,,,,,ctch,resources/DY.BMP,resources/DG.BMP,Door4,-0.305989583,-0.05078125,1,0,0,1.0903,optionLeft,60,7830,4,16,0,16,0,1,,,,,,,,,,,,,,,,,,,,,,,,,,,,,,,,,,,,,,,
,,,,,,,,2023-08-16_08h36.48.898,HF_wild_card,2022.2.4,Win32,60.0060006,610a879e6500d1d653b3da54,64d2fd46c836a06233681665,64dc7c7c88eef70a32feb17c,,,,,,,decisionTrl,resources/DR.BMP,resources/DG.BMP,Door1,0.364583333,-0.015625,1,0,0,1.3951,optionRight,30,7860,4,17,0,17,0,1,,,,,,,,,,,,,,,,,,,,,,,,,,,,,,,,,,,,,,,
,,,,,,,,2023-08-16_08h36.48.898,HF_wild_card,2022.2.4,Win32,60.0060006,610a879e6500d1d653b3da54,64d2fd46c836a06233681665,64dc7c7c88eef70a32feb17c,,,,,,,sngl,resources/DY.BMP,resources/Empty.png,Door4,-0.352864583,-0.079427083,1,0,0,0.7908,optionLeft,60,7920,4,18,0,18,0,1,,,,,,,,,,,,,,,,,,,,,,,,,,,,,,,,,,,,,,,
,,,,,,,,2023-08-16_08h36.48.898,HF_wild_card,2022.2.4,Win32,60.0060006,610a879e6500d1d653b3da54,64d2fd46c836a06233681665,64dc7c7c88eef70a32feb17c,,,,,,,decisionTrl,resources/DB.BMP,resources/DP.BMP,WildCard_Ex,0.34765625,-0.005208333,1,0,0,1.2618,optionRight,55,7975,4,19,0,19,0,1,,,,,,,,,,,,,,,,,,,,,,,,,,,,,,,,,,,,,,,
,,,,,,,,2023-08-16_08h36.48.898,HF_wild_card,2022.2.4,Win32,60.0060006,610a879e6500d1d653b3da54,64d2fd46c836a06233681665,64dc7c7c88eef70a32feb17c,,,,,,,ctch,resources/DB.BMP,resources/DR.BMP,Door3,-0.321614583,-0.052083333,1,0,0,1.375,optionLeft,70,8045,4,20,0,20,0,1,,,,,,,,,,,,,,,,,,,,,,,,,,,,,,,,,,,,,,,
,,,,,,,,2023-08-16_08h36.48.898,HF_wild_card,2022.2.4,Win32,60.0060006,610a879e6500d1d653b3da54,64d2fd46c836a06233681665,64dc7c7c88eef70a32feb17c,,,,,,,decisionTrl,resources/DY.BMP,resources/DB.BMP,Door4,-0.380208333,-0.037760417,1,0,0,1.6445,optionLeft,80,8125,4,21,0,21,0,1,,,,,,,,,,,,,,,,,,,,,,,,,,,,,,,,,,,,,,,
,,,,,,,,2023-08-16_08h36.48.898,HF_wild_card,2022.2.4,Win32,60.0060006,610a879e6500d1d653b3da54,64d2fd46c836a06233681665,64dc7c7c88eef70a32feb17c,,,,,,,sngl,resources/DG.BMP,resources/Empty.png,Door1,-0.380208333,-0.045572917,1,0,0,0.81,optionLeft,30,8155,4,22,0,22,0,1,,,,,,,,,,,,,,,,,,,,,,,,,,,,,,,,,,,,,,,
,,,,,,,,2023-08-16_08h36.48.898,HF_wild_card,2022.2.4,Win32,60.0060006,610a879e6500d1d653b3da54,64d2fd46c836a06233681665,64dc7c7c88eef70a32feb17c,,,,,,,decisionTrl,resources/DB.BMP,resources/DY.BMP,Door4,0.333333333,-0.080729167,1,0,0,0.7778,optionRight,60,8215,4,23,0,23,0,1,,,,,,,,,,,,,,,,,,,,,,,,,,,,,,,,,,,,,,,
,,,,,,,,2023-08-16_08h36.48.898,HF_wild_card,2022.2.4,Win32,60.0060006,610a879e6500d1d653b3da54,64d2fd46c836a06233681665,64dc7c7c88eef70a32feb17c,,,,,,,decisionTrl,resources/DY.BMP,resources/DB.BMP,Door4,-0.33203125,-0.063802083,1,0,0,0.9269,optionLeft,60,8275,4,24,0,24,0,1,,,,,,,,,,,,,,,,,,,,,,,,,,,,,,,,,,,,,,,
,,,,,,,,2023-08-16_08h36.48.898,HF_wild_card,2022.2.4,Win32,60.0060006,610a879e6500d1d653b3da54,64d2fd46c836a06233681665,64dc7c7c88eef70a32feb17c,,,,,,,decisionTrl,resources/DB.BMP,resources/DY.BMP,Door4,0.330729167,-0.044270833,1,0,0,0.8651,optionRight,60,8335,4,25,0,25,0,1,,,,,,,,,,,,,,,,,,,,,,,,,,,,,,,,,,,,,,,
,,,,,,,,2023-08-16_08h36.48.898,HF_wild_card,2022.2.4,Win32,60.0060006,610a879e6500d1d653b3da54,64d2fd46c836a06233681665,64dc7c7c88eef70a32feb17c,,,,,,,decisionTrl,resources/DP.BMP,resources/DY.BMP,Door4,0.408854167,-0.055989583,1,0,0,0.7112,optionRight,60,8395,4,26,0,26,0,1,,,,,,,,,,,,,,,,,,,,,,,,,,,,,,,,,,,,,,,
,,,,,,,,2023-08-16_08h36.48.898,HF_wild_card,2022.2.4,Win32,60.0060006,610a879e6500d1d653b3da54,64d2fd46c836a06233681665,64dc7c7c88eef70a32feb17c,,,,,,,ctch,resources/DG.BMP,resources/DY.BMP,Door4,0.282552083,-0.0625,1,0,0,0.7633,optionRight,80,8475,4,27,0,27,0,1,,,,,,,,,,,,,,,,,,,,,,,,,,,,,,,,,,,,,,,
,,,,,,,,2023-08-16_08h36.48.898,HF_wild_card,2022.2.4,Win32,60.0060006,610a879e6500d1d653b3da54,64d2fd46c836a06233681665,64dc7c7c88eef70a32feb17c,,,,,,,decisionTrl,resources/DG.BMP,resources/DR.BMP,Door1,-0.365885417,-0.063802083,1,0,0,1.535,optionLeft,30,8505,4,28,0,28,0,1,,,,,,,,,,,,,,,,,,,,,,,,,,,,,,,,,,,,,,,
,,,,,,,,2023-08-16_08h36.48.898,HF_wild_card,2022.2.4,Win32,60.0060006,610a879e6500d1d653b3da54,64d2fd46c836a06233681665,64dc7c7c88eef70a32feb17c,,,,,,,sngl,resources/Empty.png,resources/DB.BMP,Door3,0.39453125,-0.076822917,1,0,0,0.7439,optionRight,70,8575,4,29,0,29,0,1,,,,,,,,,,,,,,,,,,,,,,,,,,,,,,,,,,,,,,,
,,,,,,,,2023-08-16_08h36.48.898,HF_wild_card,2022.2.4,Win32,60.0060006,610a879e6500d1d653b3da54,64d2fd46c836a06233681665,64dc7c7c88eef70a32feb17c,,,,,,,ctch,resources/DR.BMP,resources/DB.BMP,Door3,0.350260417,-0.0625,1,0,0,0.7446,optionRight,70,8645,4,30,0,30,0,1,,,,,,,,,,,,,,,,,,,,,,,,,,,,,,,,,,,,,,,
,,,,,,,,2023-08-16_08h36.48.898,HF_wild_card,2022.2.4,Win32,60.0060006,610a879e6500d1d653b3da54,64d2fd46c836a06233681665,64dc7c7c88eef70a32feb17c,,,,,,,sngl,resources/Empty.png,resources/DG.BMP,Door1,0.3671875,-0.07421875,1,0,0,0.783,optionRight,30,8675,4,31,0,31,0,1,,,,,,,,,,,,,,,,,,,,,,,,,,,,,,,,,,,,,,,
,,,,,,,,2023-08-16_08h36.48.898,HF_wild_card,2022.2.4,Win32,60.0060006,610a879e6500d1d653b3da54,64d2fd46c836a06233681665,64dc7c7c88eef70a32feb17c,,,,,,,decisionTrl,resources/DP.BMP,resources/DR.BMP,WildCard_Ex,-0.352864583,-0.063802083,1,0,0,1.051,optionLeft,45,8720,4,32,0,32,0,1,,,,,,,,,,,,,,,,,,,,,,,,,,,,,,,,,,,,,,,
,,,,,,,,2023-08-16_08h36.48.898,HF_wild_card,2022.2.4,Win32,60.0060006,610a879e6500d1d653b3da54,64d2fd46c836a06233681665,64dc7c7c88eef70a32feb17c,,,,,,,sngl,resources/DB.BMP,resources/Empty.png,Door3,-0.28515625,-0.040364583,1,0,0,0.7441,optionLeft,70,8790,4,33,0,33,0,1,,,,,,,,,,,,,,,,,,,,,,,,,,,,,,,,,,,,,,,
,,,,,,,,2023-08-16_08h36.48.898,HF_wild_card,2022.2.4,Win32,60.0060006,610a879e6500d1d653b3da54,64d2fd46c836a06233681665,64dc7c7c88eef70a32feb17c,,,,,,,ctch,resources/DY.BMP,resources/DG.BMP,Door4,-0.41015625,-0.052083333,1,0,0,0.9386,optionLeft,60,8850,4,34,0,34,0,1,,,,,,,,,,,,,,,,,,,,,,,,,,,,,,,,,,,,,,,
,,,,,,,,2023-08-16_08h36.48.898,HF_wild_card,2022.2.4,Win32,60.0060006,610a879e6500d1d653b3da54,64d2fd46c836a06233681665,64dc7c7c88eef70a32feb17c,,,,,,,decisionTrl,resources/DP.BMP,resources/DB.BMP,WildCard_Ex,0.016927083,-0.0078125,1,0,0,1.309,optionLeft,45,8895,4,35,0,35,0,1,,,,,,,,,,,,,,,,,,,,,,,,,,,,,,,,,,,,,,,
,,,,,,,,2023-08-16_08h36.48.898,HF_wild_card,2022.2.4,Win32,60.0060006,610a879e6500d1d653b3da54,64d2fd46c836a06233681665,64dc7c7c88eef70a32feb17c,,,,,,,ctch,resources/DG.BMP,resources/DY.BMP,Door4,0.33984375,0.006510417,1,0,0,1.0837,optionRight,80,8975,4,36,0,36,0,1,,,,,,,,,,,,,,,,,,,,,,,,,,,,,,,,,,,,,,,
,,,,,,,,2023-08-16_08h36.48.898,HF_wild_card,2022.2.4,Win32,60.0060006,610a879e6500d1d653b3da54,64d2fd46c836a06233681665,64dc7c7c88eef70a32feb17c,,,,,,,sngl,resources/Empty.png,resources/DY.BMP,Door4,0.381510417,-0.02734375,1,0,0,0.7735,optionRight,80,9055,4,37,0,37,0,1,,,,,,,,,,,,,,,,,,,,,,,,,,,,,,,,,,,,,,,
,,,,,,,,2023-08-16_08h36.48.898,HF_wild_card,2022.2.4,Win32,60.0060006,610a879e6500d1d653b3da54,64d2fd46c836a06233681665,64dc7c7c88eef70a32feb17c,,,,,,,sngl,resources/DP.BMP,resources/Empty.png,WildCard_Ex,-0.361979167,-0.033854167,1,0,0,0.8127,optionLeft,45,9100,4,38,0,38,0,1,,,,,,,,,,,,,,,,,,,,,,,,,,,,,,,,,,,,,,,
,,,,,,,,2023-08-16_08h36.48.898,HF_wild_card,2022.2.4,Win32,60.0060006,610a879e6500d1d653b3da54,64d2fd46c836a06233681665,64dc7c7c88eef70a32feb17c,,,,,,,decisionTrl,resources/DB.BMP,resources/DY.BMP,Door4,0.361979167,-0.040364583,1,0,0,0.7796,optionRight,60,9160,4,39,0,39,0,1,,,,,,,,,,,,,,,,,,,,,,,,,,,,,,,,,,,,,,,
,,,,,,,,2023-08-16_08h36.48.898,HF_wild_card,2022.2.4,Win32,60.0060006,610a879e6500d1d653b3da54,64d2fd46c836a06233681665,64dc7c7c88eef70a32feb17c,,,,,,,sngl,resources/Empty.png,resources/DP.BMP,WildCard_Ex,0.287760417,-0.05078125,1,0,0,0.8266,optionRight,55,9215,4,40,0,40,0,1,,,,,,,,,,,,,,,,,,,,,,,,,,,,,,,,,,,,,,,
,,,,,,,,2023-08-16_08h36.48.898,HF_wild_card,2022.2.4,Win32,60.0060006,610a879e6500d1d653b3da54,64d2fd46c836a06233681665,64dc7c7c88eef70a32feb17c,,,,,,,decisionTrl,resources/DP.BMP,resources/DG.BMP,WildCard_Ex,-0.32421875,-0.037760417,1,0,0,1.4617,optionLeft,55,9270,4,41,0,41,0,1,,,,,,,,,,,,,,,,,,,,,,,,,,,,,,,,,,,,,,,
,,,,,,,,2023-08-16_08h36.48.898,HF_wild_card,2022.2.4,Win32,60.0060006,610a879e6500d1d653b3da54,64d2fd46c836a06233681665,64dc7c7c88eef70a32feb17c,,,,,,,sngl,resources/DR.BMP,resources/Empty.png,Door2,-0.372395833,-0.07421875,1,0,0,0.8309,optionLeft,20,9290,4,42,0,42,0,1,,,,,,,,,,,,,,,,,,,,,,,,,,,,,,,,,,,,,,,
,,,,,,,,2023-08-16_08h36.48.898,HF_wild_card,2022.2.4,Win32,60.0060006,610a879e6500d1d653b3da54,64d2fd46c836a06233681665,64dc7c7c88eef70a32feb17c,,,,,,,decisionTrl,resources/DB.BMP,resources/DY.BMP,Door4,0.354166667,-0.046875,1,0,0,1.2458,optionRight,80,9370,4,43,0,43,0,1,,,,,,,,,,,,,,,,,,,,,,,,,,,,,,,,,,,,,,,
,,,,,,,,2023-08-16_08h36.48.898,HF_wild_card,2022.2.4,Win32,60.0060006,610a879e6500d1d653b3da54,64d2fd46c836a06233681665,64dc7c7c88eef70a32feb17c,,,,,,,,,,,,,,,,,,,,,,,,,,3,0,3,0,1,,,,,,,,,,,,,,,,,,,,,,,,,,,,,,,,,,
,,,,,,,,2023-08-16_08h36.48.898,HF_wild_card,2022.2.4,Win32,60.0060006,610a879e6500d1d653b3da54,64d2fd46c836a06233681665,64dc7c7c88eef70a32feb17c,,,,,,,decisionTrl,resources/DP.BMP,resources/DY.BMP,Door4,0.3828125,-0.071614583,1,0,0,0.8904,optionRight,80,9450,5,0,0,0,0,1,,,,,,,,,,,,,,,,,,,,,,,,,,,,,,,,,,,,,,,
,,,,,,,,2023-08-16_08h36.48.898,HF_wild_card,2022.2.4,Win32,60.0060006,610a879e6500d1d653b3da54,64d2fd46c836a06233681665,64dc7c7c88eef70a32feb17c,,,,,,,ctch,resources/DG.BMP,resources/DY.BMP,Door4,0.40234375,-0.018229167,1,0,0,0.7412,optionRight,80,9530,5,1,0,1,0,1,,,,,,,,,,,,,,,,,,,,,,,,,,,,,,,,,,,,,,,
,,,,,,,,2023-08-16_08h36.48.898,HF_wild_card,2022.2.4,Win32,60.0060006,610a879e6500d1d653b3da54,64d2fd46c836a06233681665,64dc7c7c88eef70a32feb17c,,,,,,,sngl,resources/DB.BMP,resources/Empty.png,Door3,-0.303385417,-0.071614583,1,0,0,0.7769,optionLeft,70,9600,5,2,0,2,0,1,,,,,,,,,,,,,,,,,,,,,,,,,,,,,,,,,,,,,,,
,,,,,,,,2023-08-16_08h36.48.898,HF_wild_card,2022.2.4,Win32,60.0060006,610a879e6500d1d653b3da54,64d2fd46c836a06233681665,64dc7c7c88eef70a32feb17c,,,,,,,decisionTrl,resources/DB.BMP,resources/DY.BMP,Door4,0.391927083,-0.024739583,1,0,0,0.7766,optionRight,80,9680,5,3,0,3,0,1,,,,,,,,,,,,,,,,,,,,,,,,,,,,,,,,,,,,,,,
,,,,,,,,2023-08-16_08h36.48.898,HF_wild_card,2022.2.4,Win32,60.0060006,610a879e6500d1d653b3da54,64d2fd46c836a06233681665,64dc7c7c88eef70a32feb17c,,,,,,,sngl,resources/DP.BMP,resources/Empty.png,WildCard_Ex,-0.33203125,-0.072916667,1,0,0,0.847,optionLeft,55,9735,5,4,0,4,0,1,,,,,,,,,,,,,,,,,,,,,,,,,,,,,,,,,,,,,,,
,,,,,,,,2023-08-16_08h36.48.898,HF_wild_card,2022.2.4,Win32,60.0060006,610a879e6500d1d653b3da54,64d2fd46c836a06233681665,64dc7c7c88eef70a32feb17c,,,,,,,decisionTrl,resources/DY.BMP,resources/DB.BMP,Door4,-0.376302083,-0.072916667,1,0,0,0.852,optionLeft,80,9815,5,5,0,5,0,1,,,,,,,,,,,,,,,,,,,,,,,,,,,,,,,,,,,,,,,
,,,,,,,,2023-08-16_08h36.48.898,HF_wild_card,2022.2.4,Win32,60.0060006,610a879e6500d1d653b3da54,64d2fd46c836a06233681665,64dc7c7c88eef70a32feb17c,,,,,,,ctch,resources/DY.BMP,resources/DG.BMP,Door4,-0.3671875,-0.02734375,1,0,0,0.863,optionLeft,80,9895,5,6,0,6,0,1,,,,,,,,,,,,,,,,,,,,,,,,,,,,,,,,,,,,,,,
,,,,,,,,2023-08-16_08h36.48.898,HF_wild_card,2022.2.4,Win32,60.0060006,610a879e6500d1d653b3da54,64d2fd46c836a06233681665,64dc7c7c88eef70a32feb17c,,,,,,,decisionTrl,resources/DY.BMP,resources/DB.BMP,Door4,-0.36328125,-0.05859375,1,0,0,1.0804,optionLeft,80,9975,5,7,0,7,0,1,,,,,,,,,,,,,,,,,,,,,,,,,,,,,,,,,,,,,,,
,,,,,,,,2023-08-16_08h36.48.898,HF_wild_card,2022.2.4,Win32,60.0060006,610a879e6500d1d653b3da54,64d2fd46c836a06233681665,64dc7c7c88eef70a32feb17c,,,,,,,sngl,resources/Empty.png,resources/DP.BMP,WildCard_Ex,0.380208333,-0.00390625,1,0,0,0.8795,optionRight,45,10020,5,8,0,8,0,1,,,,,,,,,,,,,,,,,,,,,,,,,,,,,,,,,,,,,,,
,,,,,,,,2023-08-16_08h36.48.898,HF_wild_card,2022.2.4,Win32,60.0060006,610a879e6500d1d653b3da54,64d2fd46c836a06233681665,64dc7c7c88eef70a32feb17c,,,,,,,decisionTrl,resources/DP.BMP,resources/DB.BMP,WildCard_Ex,-0.356770833,-0.065104167,1,0,0,1.1123,optionLeft,55,10075,5,9,0,9,0,1,,,,,,,,,,,,,,,,,,,,,,,,,,,,,,,,,,,,,,,
,,,,,,,,2023-08-16_08h36.48.898,HF_wild_card,2022.2.4,Win32,60.0060006,610a879e6500d1d653b3da54,64d2fd46c836a06233681665,64dc7c7c88eef70a32feb17c,,,,,,,decisionTrl,resources/DP.BMP,resources/DG.BMP,WildCard_Ex,-0.428385417,-0.024739583,1,0,0,1.0832,optionLeft,45,10120,5,10,0,10,0,1,,,,,,,,,,,,,,,,,,,,,,,,,,,,,,,,,,,,,,,
,,,,,,,,2023-08-16_08h36.48.898,HF_wild_card,2022.2.4,Win32,60.0060006,610a879e6500d1d653b3da54,64d2fd46c836a06233681665,64dc7c7c88eef70a32feb17c,,,,,,,decisionTrl,resources/DG.BMP,resources/DR.BMP,Door1,-0.440104167,-0.020833333,1,0,0,1.3912,optionLeft,30,10150,5,11,0,11,0,1,,,,,,,,,,,,,,,,,,,,,,,,,,,,,,,,,,,,,,,
,,,,,,,,2023-08-16_08h36.48.898,HF_wild_card,2022.2.4,Win32,60.0060006,610a879e6500d1d653b3da54,64d2fd46c836a06233681665,64dc7c7c88eef70a32feb17c,,,,,,,decisionTrl,resources/DR.BMP,resources/DG.BMP,Door2,-0.36328125,-0.036458333,1,0,0,1.3632,optionLeft,20,10170,5,12,0,12,0,1,,,,,,,,,,,,,,,,,,,,,,,,,,,,,,,,,,,,,,,
,,,,,,,,2023-08-16_08h36.48.898,HF_wild_card,2022.2.4,Win32,60.0060006,610a879e6500d1d653b3da54,64d2fd46c836a06233681665,64dc7c7c88eef70a32feb17c,,,,,,,decisionTrl,resources/DG.BMP,resources/DP.BMP,WildCard_Ex,0.33203125,-0.0703125,1,0,0,1.3411,optionRight,45,10215,5,13,0,13,0,1,,,,,,,,,,,,,,,,,,,,,,,,,,,,,,,,,,,,,,,
,,,,,,,,2023-08-16_08h36.48.898,HF_wild_card,2022.2.4,Win32,60.0060006,610a879e6500d1d653b3da54,64d2fd46c836a06233681665,64dc7c7c88eef70a32feb17c,,,,,,,decisionTrl,resources/DR.BMP,resources/DG.BMP,Door1,0.424479167,0.071614583,1,0,0,2.1615,optionRight,30,10245,5,14,0,14,0,1,,,,,,,,,,,,,,,,,,,,,,,,,,,,,,,,,,,,,,,
,,,,,,,,2023-08-16_08h36.48.898,HF_wild_card,2022.2.4,Win32,60.0060006,610a879e6500d1d653b3da54,64d2fd46c836a06233681665,64dc7c7c88eef70a32feb17c,,,,,,,decisionTrl,resources/DB.BMP,resources/DY.BMP,Door4,0.33984375,-0.037760417,1,0,0,1.2656,optionRight,80,10325,5,15,0,15,0,1,,,,,,,,,,,,,,,,,,,,,,,,,,,,,,,,,,,,,,,
,,,,,,,,2023-08-16_08h36.48.898,HF_wild_card,2022.2.4,Win32,60.0060006,610a879e6500d1d653b3da54,64d2fd46c836a06233681665,64dc7c7c88eef70a32feb17c,,,,,,,decisionTrl,resources/DB.BMP,resources/DY.BMP,Door4,0.397135417,-0.053385417,1,0,0,0.8845,optionRight,80,10405,5,16,0,16,0,1,,,,,,,,,,,,,,,,,,,,,,,,,,,,,,,,,,,,,,,
,,,,,,,,2023-08-16_08h36.48.898,HF_wild_card,2022.2.4,Win32,60.0060006,610a879e6500d1d653b3da54,64d2fd46c836a06233681665,64dc7c7c88eef70a32feb17c,,,,,,,sngl,resources/Empty.png,resources/DR.BMP,Door2,0.463541667,-0.013020833,1,0,0,1.2354,optionRight,20,10425,5,17,0,17,0,1,,,,,,,,,,,,,,,,,,,,,,,,,,,,,,,,,,,,,,,
,,,,,,,,2023-08-16_08h36.48.898,HF_wild_card,2022.2.4,Win32,60.0060006,610a879e6500d1d653b3da54,64d2fd46c836a06233681665,64dc7c7c88eef70a32feb17c,,,,,,,sngl,resources/DP.BMP,resources/Empty.png,WildCard_Ex,-0.38671875,-0.078125,1,0,0,0.8323,optionLeft,45,10470,5,18,0,18,0,1,,,,,,,,,,,,,,,,,,,,,,,,,,,,,,,,,,,,,,,
,,,,,,,,2023-08-16_08h36.48.898,HF_wild_card,2022.2.4,Win32,60.0060006,610a879e6500d1d653b3da54,64d2fd46c836a06233681665,64dc7c7c88eef70a32feb17c,,,,,,,decisionTrl,resources/DR.BMP,resources/DG.BMP,Door1,0.302083333,-0.0859375,1,0,0,1.8756,optionRight,30,10500,5,19,0,19,0,1,,,,,,,,,,,,,,,,,,,,,,,,,,,,,,,,,,,,,,,
,,,,,,,,2023-08-16_08h36.48.898,HF_wild_card,2022.2.4,Win32,60.0060006,610a879e6500d1d653b3da54,64d2fd46c836a06233681665,64dc7c7c88eef70a32feb17c,,,,,,,decisionTrl,resources/DR.BMP,resources/DP.BMP,WildCard_Ex,0.31640625,-0.084635417,1,0,0,1.197,optionRight,55,10555,5,20,0,20,0,1,,,,,,,,,,,,,,,,,,,,,,,,,,,,,,,,,,,,,,,
,,,,,,,,2023-08-16_08h36.48.898,HF_wild_card,2022.2.4,Win32,60.0060006,610a879e6500d1d653b3da54,64d2fd46c836a06233681665,64dc7c7c88eef70a32feb17c,,,,,,,decisionTrl,resources/DP.BMP,resources/DR.BMP,WildCard_Ex,-0.326822917,-0.029947917,1,0,0,1.2351,optionLeft,55,10610,5,21,0,21,0,1,,,,,,,,,,,,,,,,,,,,,,,,,,,,,,,,,,,,,,,
,,,,,,,,2023-08-16_08h36.48.898,HF_wild_card,2022.2.4,Win32,60.0060006,610a879e6500d1d653b3da54,64d2fd46c836a06233681665,64dc7c7c88eef70a32feb17c,,,,,,,ctch,resources/DR.BMP,resources/DB.BMP,Door3,0.359375,-0.020833333,1,0,0,1.4243,optionRight,70,10680,5,22,0,22,0,1,,,,,,,,,,,,,,,,,,,,,,,,,,,,,,,,,,,,,,,
,,,,,,,,2023-08-16_08h36.48.898,HF_wild_card,2022.2.4,Win32,60.0060006,610a879e6500d1d653b3da54,64d2fd46c836a06233681665,64dc7c7c88eef70a32feb17c,,,,,,,ctch,resources/DY.BMP,resources/DG.BMP,Door4,-0.313802083,-0.033854167,1,0,0,0.9093,optionLeft,60,10740,5,23,0,23,0,1,,,,,,,,,,,,,,,,,,,,,,,,,,,,,,,,,,,,,,,
,,,,,,,,2023-08-16_08h36.48.898,HF_wild_card,2022.2.4,Win32,60.0060006,610a879e6500d1d653b3da54,64d2fd46c836a06233681665,64dc7c7c88eef70a32feb17c,,,,,,,decisionTrl,resources/DY.BMP,resources/DB.BMP,Door4,-0.352864583,-0.037760417,1,0,0,0.8438,optionLeft,60,10800,5,24,0,24,0,1,,,,,,,,,,,,,,,,,,,,,,,,,,,,,,,,,,,,,,,
,,,,,,,,2023-08-16_08h36.48.898,HF_wild_card,2022.2.4,Win32,60.0060006,610a879e6500d1d653b3da54,64d2fd46c836a06233681665,64dc7c7c88eef70a32feb17c,,,,,,,sngl,resources/Empty.png,resources/DP.BMP,WildCard_Ex,0.321614583,-0.055989583,1,0,0,1.1104,optionRight,55,10855,5,25,0,25,0,1,,,,,,,,,,,,,,,,,,,,,,,,,,,,,,,,,,,,,,,
,,,,,,,,2023-08-16_08h36.48.898,HF_wild_card,2022.2.4,Win32,60.0060006,610a879e6500d1d653b3da54,64d2fd46c836a06233681665,64dc7c7c88eef70a32feb17c,,,,,,,sngl,resources/DR.BMP,resources/Empty.png,Door2,-0.309895833,-0.01953125,1,0,0,1.1099,optionLeft,40,10895,5,26,0,26,0,1,,,,,,,,,,,,,,,,,,,,,,,,,,,,,,,,,,,,,,,
,,,,,,,,2023-08-16_08h36.48.898,HF_wild_card,2022.2.4,Win32,60.0060006,610a879e6500d1d653b3da54,64d2fd46c836a06233681665,64dc7c7c88eef70a32feb17c,,,,,,,sngl,resources/Empty.png,resources/DY.BMP,Door4,0.493489583,-0.01953125,1,0,0,0.7659,optionRight,60,10955,5,27,0,27,0,1,,,,,,,,,,,,,,,,,,,,,,,,,,,,,,,,,,,,,,,
,,,,,,,,2023-08-16_08h36.48.898,HF_wild_card,2022.2.4,Win32,60.0060006,610a879e6500d1d653b3da54,64d2fd46c836a06233681665,64dc7c7c88eef70a32feb17c,,,,,,,sngl,resources/Empty.png,resources/DB.BMP,Door3,0.365885417,-0.04296875,1,0,0,0.7823,optionRight,70,11025,5,28,0,28,0,1,,,,,,,,,,,,,,,,,,,,,,,,,,,,,,,,,,,,,,,
,,,,,,,,2023-08-16_08h36.48.898,HF_wild_card,2022.2.4,Win32,60.0060006,610a879e6500d1d653b3da54,64d2fd46c836a06233681665,64dc7c7c88eef70a32feb17c,,,,,,,ctch,resources/DB.BMP,resources/DR.BMP,Door3,-0.322916667,-0.028645833,1,0,0,0.9033,optionLeft,70,11095,5,29,0,29,0,1,,,,,,,,,,,,,,,,,,,,,,,,,,,,,,,,,,,,,,,
,,,,,,,,2023-08-16_08h36.48.898,HF_wild_card,2022.2.4,Win32,60.0060006,610a879e6500d1d653b3da54,64d2fd46c836a06233681665,64dc7c7c88eef70a32feb17c,,,,,,,decisionTrl,resources/DB.BMP,resources/DP.BMP,Door3,-0.3828125,-0.045572917,1,0,0,0.9686,optionLeft,70,11165,5,30,0,30,0,1,,,,,,,,,,,,,,,,,,,,,,,,,,,,,,,,,,,,,,,
,,,,,,,,2023-08-16_08h36.48.898,HF_wild_card,2022.2.4,Win32,60.0060006,610a879e6500d1d653b3da54,64d2fd46c836a06233681665,64dc7c7c88eef70a32feb17c,,,,,,,decisionTrl,resources/DR.BMP,resources/DG.BMP,Door1,0.377604167,-0.0078125,1,0,0,1.2129,optionRight,30,11195,5,31,0,31,0,1,,,,,,,,,,,,,,,,,,,,,,,,,,,,,,,,,,,,,,,
,,,,,,,,2023-08-16_08h36.48.898,HF_wild_card,2022.2.4,Win32,60.0060006,610a879e6500d1d653b3da54,64d2fd46c836a06233681665,64dc7c7c88eef70a32feb17c,,,,,,,decisionTrl,resources/DY.BMP,resources/DP.BMP,Door4,-0.4296875,-0.076822917,1,0,0,0.9946,optionLeft,80,11275,5,32,0,32,0,1,,,,,,,,,,,,,,,,,,,,,,,,,,,,,,,,,,,,,,,
,,,,,,,,2023-08-16_08h36.48.898,HF_wild_card,2022.2.4,Win32,60.0060006,610a879e6500d1d653b3da54,64d2fd46c836a06233681665,64dc7c7c88eef70a32feb17c,,,,,,,decisionTrl,resources/DG.BMP,resources/DR.BMP,Door1,-0.359375,-0.020833333,1,0,0,1.2313,optionLeft,30,11305,5,33,0,33,0,1,,,,,,,,,,,,,,,,,,,,,,,,,,,,,,,,,,,,,,,
,,,,,,,,2023-08-16_08h36.48.898,HF_wild_card,2022.2.4,Win32,60.0060006,610a879e6500d1d653b3da54,64d2fd46c836a06233681665,64dc7c7c88eef70a32feb17c,,,,,,,decisionTrl,resources/DG.BMP,resources/DR.BMP,Door1,-0.404947917,-0.015625,1,0,0,0.9307,optionLeft,30,11335,5,34,0,34,0,1,,,,,,,,,,,,,,,,,,,,,,,,,,,,,,,,,,,,,,,
,,,,,,,,2023-08-16_08h36.48.898,HF_wild_card,2022.2.4,Win32,60.0060006,610a879e6500d1d653b3da54,64d2fd46c836a06233681665,64dc7c7c88eef70a32feb17c,,,,,,,decisionTrl,resources/DY.BMP,resources/DB.BMP,Door4,-0.313802083,-0.029947917,1,0,0,1.0424,optionLeft,60,11395,5,35,0,35,0,1,,,,,,,,,,,,,,,,,,,,,,,,,,,,,,,,,,,,,,,
,,,,,,,,2023-08-16_08h36.48.898,HF_wild_card,2022.2.4,Win32,60.0060006,610a879e6500d1d653b3da54,64d2fd46c836a06233681665,64dc7c7c88eef70a32feb17c,,,,,,,ctch,resources/DG.BMP,resources/DY.BMP,Door4,0.39453125,-0.0078125,1,0,0,1.1813,optionRight,80,11475,5,36,0,36,0,1,,,,,,,,,,,,,,,,,,,,,,,,,,,,,,,,,,,,,,,
,,,,,,,,2023-08-16_08h36.48.898,HF_wild_card,2022.2.4,Win32,60.0060006,610a879e6500d1d653b3da54,64d2fd46c836a06233681665,64dc7c7c88eef70a32feb17c,,,,,,,ctch,resources/DB.BMP,resources/DR.BMP,Door3,-0.333333333,-0.032552083,1,0,0,1.3839,optionLeft,70,11545,5,37,0,37,0,1,,,,,,,,,,,,,,,,,,,,,,,,,,,,,,,,,,,,,,,
,,,,,,,,2023-08-16_08h36.48.898,HF_wild_card,2022.2.4,Win32,60.0060006,610a879e6500d1d653b3da54,64d2fd46c836a06233681665,64dc7c7c88eef70a32feb17c,,,,,,,sngl,resources/DG.BMP,resources/Empty.png,Door1,-0.311197917,-0.013020833,1,0,0,0.7765,optionLeft,30,11575,5,38,0,38,0,1,,,,,,,,,,,,,,,,,,,,,,,,,,,,,,,,,,,,,,,
,,,,,,,,2023-08-16_08h36.48.898,HF_wild_card,2022.2.4,Win32,60.0060006,610a879e6500d1d653b3da54,64d2fd46c836a06233681665,64dc7c7c88eef70a32feb17c,,,,,,,sngl,resources/Empty.png,resources/DG.BMP,Door1,0.337239583,-0.029947917,1,0,0,1.3775,optionRight,30,11605,5,39,0,39,0,1,,,,,,,,,,,,,,,,,,,,,,,,,,,,,,,,,,,,,,,
,,,,,,,,2023-08-16_08h36.48.898,HF_wild_card,2022.2.4,Win32,60.0060006,610a879e6500d1d653b3da54,64d2fd46c836a06233681665,64dc7c7c88eef70a32feb17c,,,,,,,decisionTrl,resources/DB.BMP,resources/DY.BMP,Door4,0.33984375,0.01171875,1,0,0,0.942,optionRight,60,11665,5,40,0,40,0,1,,,,,,,,,,,,,,,,,,,,,,,,,,,,,,,,,,,,,,,
,,,,,,,,2023-08-16_08h36.48.898,HF_wild_card,2022.2.4,Win32,60.0060006,610a879e6500d1d653b3da54,64d2fd46c836a06233681665,64dc7c7c88eef70a32feb17c,,,,,,,ctch,resources/DR.BMP,resources/DB.BMP,Door3,0.287760417,0.010416667,1,0,0,1.2764,optionRight,70,11735,5,41,0,41,0,1,,,,,,,,,,,,,,,,,,,,,,,,,,,,,,,,,,,,,,,
,,,,,,,,2023-08-16_08h36.48.898,HF_wild_card,2022.2.4,Win32,60.0060006,610a879e6500d1d653b3da54,64d2fd46c836a06233681665,64dc7c7c88eef70a32feb17c,,,,,,,decisionTrl,resources/DG.BMP,resources/DR.BMP,Door2,0.348958333,-0.009114583,1,0,0,4.2094,optionRight,40,11775,5,42,0,42,0,1,,,,,,,,,,,,,,,,,,,,,,,,,,,,,,,,,,,,,,,
,,,,,,,,2023-08-16_08h36.48.898,HF_wild_card,2022.2.4,Win32,60.0060006,610a879e6500d1d653b3da54,64d2fd46c836a06233681665,64dc7c7c88eef70a32feb17c,,,,,,,sngl,resources/DY.BMP,resources/Empty.png,Door4,-0.345052083,-0.072916667,1,0,0,0.9516,optionLeft,80,11855,5,43,0,43,0,1,,,,,,,,,,,,,,,,,,,,,,,,,,,,,,,,,,,,,,,
,,,,,,,,2023-08-16_08h36.48.898,HF_wild_card,2022.2.4,Win32,60.0060006,610a879e6500d1d653b3da54,64d2fd46c836a06233681665,64dc7c7c88eef70a32feb17c,,,,,,,,,,,,,,,,,,,,,,,,,,4,0,4,0,1,,,,,,,,,,,,,,,,,,,,,,,,,,,,,,,,,,
,,,,,,,,2023-08-16_08h36.48.898,HF_wild_card,2022.2.4,Win32,60.0060006,610a879e6500d1d653b3da54,64d2fd46c836a06233681665,64dc7c7c88eef70a32feb17c,,,,,,,sngl,resources/DP.BMP,resources/Empty.png,WildCard_Ex,-0.420572917,-0.002604167,1,0,0,1.053,optionLeft,45,11900,6,0,0,0,0,1,,,,,,,,,,,,,,,,,,,,,,,,,,,,,,,,,,,,,,,
,,,,,,,,2023-08-16_08h36.48.898,HF_wild_card,2022.2.4,Win32,60.0060006,610a879e6500d1d653b3da54,64d2fd46c836a06233681665,64dc7c7c88eef70a32feb17c,,,,,,,ctch,resources/DR.BMP,resources/DB.BMP,Door3,0.380208333,-0.01171875,1,0,0,1.3924,optionRight,70,11970,6,1,0,1,0,1,,,,,,,,,,,,,,,,,,,,,,,,,,,,,,,,,,,,,,,
,,,,,,,,2023-08-16_08h36.48.898,HF_wild_card,2022.2.4,Win32,60.0060006,610a879e6500d1d653b3da54,64d2fd46c836a06233681665,64dc7c7c88eef70a32feb17c,,,,,,,decisionTrl,resources/DG.BMP,resources/DR.BMP,Door1,-0.329427083,-0.067708333,1,0,0,1.2086,optionLeft,30,12000,6,2,0,2,0,1,,,,,,,,,,,,,,,,,,,,,,,,,,,,,,,,,,,,,,,
,,,,,,,,2023-08-16_08h36.48.898,HF_wild_card,2022.2.4,Win32,60.0060006,610a879e6500d1d653b3da54,64d2fd46c836a06233681665,64dc7c7c88eef70a32feb17c,,,,,,,sngl,resources/DB.BMP,resources/Empty.png,Door3,-0.338541667,-0.055989583,1,0,0,0.6764,optionLeft,70,12070,6,3,0,3,0,1,,,,,,,,,,,,,,,,,,,,,,,,,,,,,,,,,,,,,,,
,,,,,,,,2023-08-16_08h36.48.898,HF_wild_card,2022.2.4,Win32,60.0060006,610a879e6500d1d653b3da54,64d2fd46c836a06233681665,64dc7c7c88eef70a32feb17c,,,,,,,decisionTrl,resources/DR.BMP,resources/DG.BMP,Door1,0.4609375,-0.045572917,1,0,0,1.1911,optionRight,30,12100,6,4,0,4,0,1,,,,,,,,,,,,,,,,,,,,,,,,,,,,,,,,,,,,,,,
,,,,,,,,2023-08-16_08h36.48.898,HF_wild_card,2022.2.4,Win32,60.0060006,610a879e6500d1d653b3da54,64d2fd46c836a06233681665,64dc7c7c88eef70a32feb17c,,,,,,,decisionTrl,resources/DY.BMP,resources/DB.BMP,Door4,-0.302083333,-0.059895833,1,0,0,0.8083,optionLeft,80,12180,6,5,0,5,0,1,,,,,,,,,,,,,,,,,,,,,,,,,,,,,,,,,,,,,,,
,,,,,,,,2023-08-16_08h36.48.898,HF_wild_card,2022.2.4,Win32,60.0060006,610a879e6500d1d653b3da54,64d2fd46c836a06233681665,64dc7c7c88eef70a32feb17c,,,,,,,ctch,resources/DY.BMP,resources/DG.BMP,Door4,-0.302083333,-0.092447917,1,0,0,0.6753,optionLeft,80,12260,6,6,0,6,0,1,,,,,,,,,,,,,,,,,,,,,,,,,,,,,,,,,,,,,,,
,,,,,,,,2023-08-16_08h36.48.898,HF_wild_card,2022.2.4,Win32,60.0060006,610a879e6500d1d653b3da54,64d2fd46c836a06233681665,64dc7c7c88eef70a32feb17c,,,,,,,decisionTrl,resources/DR.BMP,resources/DP.BMP,WildCard_Ex,0.37890625,-0.059895833,1,0,0,1.1259,optionRight,55,12315,6,7,0,7,0,1,,,,,,,,,,,,,,,,,,,,,,,,,,,,,,,,,,,,,,,
,,,,,,,,2023-08-16_08h36.48.898,HF_wild_card,2022.2.4,Win32,60.0060006,610a879e6500d1d653b3da54,64d2fd46c836a06233681665,64dc7c7c88eef70a32feb17c,,,,,,,sngl,resources/Empty.png,resources/DP.BMP,WildCard_Ex,0.388020833,-0.032552083,1,0,0,0.6933,optionRight,45,12360,6,8,0,8,0,1,,,,,,,,,,,,,,,,,,,,,,,,,,,,,,,,,,,,,,,
,,,,,,,,2023-08-16_08h36.48.898,HF_wild_card,2022.2.4,Win32,60.0060006,610a879e6500d1d653b3da54,64d2fd46c836a06233681665,64dc7c7c88eef70a32feb17c,,,,,,,sngl,resources/DP.BMP,resources/Empty.png,WildCard_Ex,-0.328125,-0.083333333,1,0,0,0.7475,optionLeft,55,12415,6,9,0,9,0,1,,,,,,,,,,,,,,,,,,,,,,,,,,,,,,,,,,,,,,,
,,,,,,,,2023-08-16_08h36.48.898,HF_wild_card,2022.2.4,Win32,60.0060006,610a879e6500d1d653b3da54,64d2fd46c836a06233681665,64dc7c7c88eef70a32feb17c,,,,,,,ctch,resources/DG.BMP,resources/DY.BMP,Door4,0.42578125,-0.053385417,1,0,0,0.8019,optionRight,80,12495,6,10,0,10,0,1,,,,,,,,,,,,,,,,,,,,,,,,,,,,,,,,,,,,,,,
,,,,,,,,2023-08-16_08h36.48.898,HF_wild_card,2022.2.4,Win32,60.0060006,610a879e6500d1d653b3da54,64d2fd46c836a06233681665,64dc7c7c88eef70a32feb17c,,,,,,,decisionTrl,resources/DP.BMP,resources/DR.BMP,WildCard_Ex,-0.322916667,-0.080729167,1,0,0,1.0683,optionLeft,55,12550,6,11,0,11,0,1,,,,,,,,,,,,,,,,,,,,,,,,,,,,,,,,,,,,,,,
,,,,,,,,2023-08-16_08h36.48.898,HF_wild_card,2022.2.4,Win32,60.0060006,610a879e6500d1d653b3da54,64d2fd46c836a06233681665,64dc7c7c88eef70a32feb17c,,,,,,,sngl,resources/DY.BMP,resources/Empty.png,Door4,-0.337239583,-0.0703125,1,0,0,0.7491,optionLeft,60,12610,6,12,0,12,0,1,,,,,,,,,,,,,,,,,,,,,,,,,,,,,,,,,,,,,,,
,,,,,,,,2023-08-16_08h36.48.898,HF_wild_card,2022.2.4,Win32,60.0060006,610a879e6500d1d653b3da54,64d2fd46c836a06233681665,64dc7c7c88eef70a32feb17c,,,,,,,decisionTrl,resources/DB.BMP,resources/DY.BMP,Door4,0.447916667,0.010416667,1,0,0,0.7108,optionRight,80,12690,6,13,0,13,0,1,,,,,,,,,,,,,,,,,,,,,,,,,,,,,,,,,,,,,,,
,,,,,,,,2023-08-16_08h36.48.898,HF_wild_card,2022.2.4,Win32,60.0060006,610a879e6500d1d653b3da54,64d2fd46c836a06233681665,64dc7c7c88eef70a32feb17c,,,,,,,decisionTrl,resources/DR.BMP,resources/DG.BMP,Door1,0.528645833,-0.022135417,1,0,0,1.478,optionRight,30,12720,6,14,0,14,0,1,,,,,,,,,,,,,,,,,,,,,,,,,,,,,,,,,,,,,,,
,,,,,,,,2023-08-16_08h36.48.898,HF_wild_card,2022.2.4,Win32,60.0060006,610a879e6500d1d653b3da54,64d2fd46c836a06233681665,64dc7c7c88eef70a32feb17c,,,,,,,ctch,resources/DB.BMP,resources/DR.BMP,Door3,-0.3671875,-0.04296875,1,0,0,1.1138,optionLeft,70,12790,6,15,0,15,0,1,,,,,,,,,,,,,,,,,,,,,,,,,,,,,,,,,,,,,,,
,,,,,,,,2023-08-16_08h36.48.898,HF_wild_card,2022.2.4,Win32,60.0060006,610a879e6500d1d653b3da54,64d2fd46c836a06233681665,64dc7c7c88eef70a32feb17c,,,,,,,ctch,resources/DY.BMP,resources/DG.BMP,Door4,-0.42578125,-0.0703125,1,0,0,0.9939,optionLeft,60,12850,6,16,0,16,0,1,,,,,,,,,,,,,,,,,,,,,,,,,,,,,,,,,,,,,,,
,,,,,,,,2023-08-16_08h36.48.898,HF_wild_card,2022.2.4,Win32,60.0060006,610a879e6500d1d653b3da54,64d2fd46c836a06233681665,64dc7c7c88eef70a32feb17c,,,,,,,decisionTrl,resources/DP.BMP,resources/DG.BMP,WildCard_Ex,-0.358072917,-0.057291667,1,0,0,1.3752,optionLeft,45,12895,6,17,0,17,0,1,,,,,,,,,,,,,,,,,,,,,,,,,,,,,,,,,,,,,,,
,,,,,,,,2023-08-16_08h36.48.898,HF_wild_card,2022.2.4,Win32,60.0060006,610a879e6500d1d653b3da54,64d2fd46c836a06233681665,64dc7c7c88eef70a32feb17c,,,,,,,sngl,resources/Empty.png,resources/DY.BMP,Door4,0.411458333,-0.03515625,1,0,0,0.7416,optionRight,80,12975,6,18,0,18,0,1,,,,,,,,,,,,,,,,,,,,,,,,,,,,,,,,,,,,,,,
,,,,,,,,2023-08-16_08h36.48.898,HF_wild_card,2022.2.4,Win32,60.0060006,610a879e6500d1d653b3da54,64d2fd46c836a06233681665,64dc7c7c88eef70a32feb17c,,,,,,,decisionTrl,resources/DP.BMP,resources/DY.BMP,Door4,0.373697917,-0.03515625,1,0,0,0.9613,optionRight,60,13035,6,19,0,19,0,1,,,,,,,,,,,,,,,,,,,,,,,,,,,,,,,,,,,,,,,
,,,,,,,,2023-08-16_08h36.48.898,HF_wild_card,2022.2.4,Win32,60.0060006,610a879e6500d1d653b3da54,64d2fd46c836a06233681665,64dc7c7c88eef70a32feb17c,,,,,,,sngl,resources/Empty.png,resources/DR.BMP,Door2,0.328125,-0.05078125,1,0,0,0.8147,optionRight,40,13075,6,20,0,20,0,1,,,,,,,,,,,,,,,,,,,,,,,,,,,,,,,,,,,,,,,
,,,,,,,,2023-08-16_08h36.48.898,HF_wild_card,2022.2.4,Win32,60.0060006,610a879e6500d1d653b3da54,64d2fd46c836a06233681665,64dc7c7c88eef70a32feb17c,,,,,,,decisionTrl,resources/DY.BMP,resources/DP.BMP,Door4,-0.3125,-0.084635417,1,0,0,0.977,optionLeft,60,13135,6,21,0,21,0,1,,,,,,,,,,,,,,,,,,,,,,,,,,,,,,,,,,,,,,,
,,,,,,,,2023-08-16_08h36.48.898,HF_wild_card,2022.2.4,Win32,60.0060006,610a879e6500d1d653b3da54,64d2fd46c836a06233681665,64dc7c7c88eef70a32feb17c,,,,,,,sngl,resources/Empty.png,resources/DB.BMP,Door3,0.389322917,-0.0859375,1,0,0,0.7802,optionRight,70,13205,6,22,0,22,0,1,,,,,,,,,,,,,,,,,,,,,,,,,,,,,,,,,,,,,,,
,,,,,,,,2023-08-16_08h36.48.898,HF_wild_card,2022.2.4,Win32,60.0060006,610a879e6500d1d653b3da54,64d2fd46c836a06233681665,64dc7c7c88eef70a32feb17c,,,,,,,decisionTrl,resources/DG.BMP,resources/DP.BMP,WildCard_Ex,0.365885417,-0.028645833,1,0,0,2.013,optionRight,45,13250,6,23,0,23,0,1,,,,,,,,,,,,,,,,,,,,,,,,,,,,,,,,,,,,,,,
,,,,,,,,2023-08-16_08h36.48.898,HF_wild_card,2022.2.4,Win32,60.0060006,610a879e6500d1d653b3da54,64d2fd46c836a06233681665,64dc7c7c88eef70a32feb17c,,,,,,,decisionTrl,resources/DB.BMP,resources/DY.BMP,Door4,0.305989583,-0.049479167,1,0,0,1.0775,optionRight,60,13310,6,24,0,24,0,1,,,,,,,,,,,,,,,,,,,,,,,,,,,,,,,,,,,,,,,
,,,,,,,,2023-08-16_08h36.48.898,HF_wild_card,2022.2.4,Win32,60.0060006,610a879e6500d1d653b3da54,64d2fd46c836a06233681665,64dc7c7c88eef70a32feb17c,,,,,,,sngl,resources/DR.BMP,resources/Empty.png,Door2,-0.359375,-0.048177083,1,0,0,0.8763,optionLeft,20,13330,6,25,0,25,0,1,,,,,,,,,,,,,,,,,,,,,,,,,,,,,,,,,,,,,,,
,,,,,,,,2023-08-16_08h36.48.898,HF_wild_card,2022.2.4,Win32,60.0060006,610a879e6500d1d653b3da54,64d2fd46c836a06233681665,64dc7c7c88eef70a32feb17c,,,,,,,decisionTrl,resources/DY.BMP,resources/DB.BMP,Door4,-0.309895833,-0.092447917,1,0,0,0.9682,optionLeft,80,13410,6,26,0,26,0,1,,,,,,,,,,,,,,,,,,,,,,,,,,,,,,,,,,,,,,,
,,,,,,,,2023-08-16_08h36.48.898,HF_wild_card,2022.2.4,Win32,60.0060006,610a879e6500d1d653b3da54,64d2fd46c836a06233681665,64dc7c7c88eef70a32feb17c,,,,,,,sngl,resources/Empty.png,resources/DP.BMP,WildCard_Ex,0.3984375,-0.04296875,1,0,0,0.7667,optionRight,55,13465,6,27,0,27,0,1,,,,,,,,,,,,,,,,,,,,,,,,,,,,,,,,,,,,,,,
,,,,,,,,2023-08-16_08h36.48.898,HF_wild_card,2022.2.4,Win32,60.0060006,610a879e6500d1d653b3da54,64d2fd46c836a06233681665,64dc7c7c88eef70a32feb17c,,,,,,,decisionTrl,resources/DR.BMP,resources/DG.BMP,Door1,0.303385417,-0.037760417,1,0,0,1.8699,optionRight,30,13495,6,28,0,28,0,1,,,,,,,,,,,,,,,,,,,,,,,,,,,,,,,,,,,,,,,
,,,,,,,,2023-08-16_08h36.48.898,HF_wild_card,2022.2.4,Win32,60.0060006,610a879e6500d1d653b3da54,64d2fd46c836a06233681665,64dc7c7c88eef70a32feb17c,,,,,,,decisionTrl,resources/DB.BMP,resources/DP.BMP,WildCard_Ex,0.31640625,-0.0390625,1,0,0,1.9309,optionRight,55,13550,6,29,0,29,0,1,,,,,,,,,,,,,,,,,,,,,,,,,,,,,,,,,,,,,,,
,,,,,,,,2023-08-16_08h36.48.898,HF_wild_card,2022.2.4,Win32,60.0060006,610a879e6500d1d653b3da54,64d2fd46c836a06233681665,64dc7c7c88eef70a32feb17c,,,,,,,sngl,resources/Empty.png,resources/DG.BMP,Door1,0.399739583,-0.044270833,1,0,0,0.8257,optionRight,30,13580,6,30,0,30,0,1,,,,,,,,,,,,,,,,,,,,,,,,,,,,,,,,,,,,,,,
,,,,,,,,2023-08-16_08h36.48.898,HF_wild_card,2022.2.4,Win32,60.0060006,610a879e6500d1d653b3da54,64d2fd46c836a06233681665,64dc7c7c88eef70a32feb17c,,,,,,,ctch,resources/DG.BMP,resources/DY.BMP,Door4,0.3671875,0.009114583,1,0,0,1.1462,optionRight,80,13660,6,31,0,31,0,1,,,,,,,,,,,,,,,,,,,,,,,,,,,,,,,,,,,,,,,
,,,,,,,,2023-08-16_08h36.48.898,HF_wild_card,2022.2.4,Win32,60.0060006,610a879e6500d1d653b3da54,64d2fd46c836a06233681665,64dc7c7c88eef70a32feb17c,,,,,,,decisionTrl,resources/DP.BMP,resources/DB.BMP,Door3,0.358072917,-0.02734375,1,0,0,1.5326,optionRight,70,13730,6,32,0,32,0,1,,,,,,,,,,,,,,,,,,,,,,,,,,,,,,,,,,,,,,,
,,,,,,,,2023-08-16_08h36.48.898,HF_wild_card,2022.2.4,Win32,60.0060006,610a879e6500d1d653b3da54,64d2fd46c836a06233681665,64dc7c7c88eef70a32feb17c,,,,,,,decisionTrl,resources/DB.BMP,resources/DY.BMP,Door3,-0.381510417,-0.05859375,1,0,0,0.7616,optionLeft,70,13800,6,33,0,33,0,1,,,,,,,,,,,,,,,,,,,,,,,,,,,,,,,,,,,,,,,
,,,,,,,,2023-08-16_08h36.48.898,HF_wild_card,2022.2.4,Win32,60.0060006,610a879e6500d1d653b3da54,64d2fd46c836a06233681665,64dc7c7c88eef70a32feb17c,,,,,,,ctch,resources/DB.BMP,resources/DR.BMP,Door3,-0.401041667,-0.053385417,1,0,0,0.7968,optionLeft,70,13870,6,34,0,34,0,1,,,,,,,,,,,,,,,,,,,,,,,,,,,,,,,,,,,,,,,
,,,,,,,,2023-08-16_08h36.48.898,HF_wild_card,2022.2.4,Win32,60.0060006,610a879e6500d1d653b3da54,64d2fd46c836a06233681665,64dc7c7c88eef70a32feb17c,,,,,,,decisionTrl,resources/DG.BMP,resources/DR.BMP,Door1,-0.268229167,-0.010416667,1,0,0,1.3428,optionLeft,30,13900,6,35,0,35,0,1,,,,,,,,,,,,,,,,,,,,,,,,,,,,,,,,,,,,,,,
,,,,,,,,2023-08-16_08h36.48.898,HF_wild_card,2022.2.4,Win32,60.0060006,610a879e6500d1d653b3da54,64d2fd46c836a06233681665,64dc7c7c88eef70a32feb17c,,,,,,,decisionTrl,resources/DY.BMP,resources/DB.BMP,Door4,-0.34765625,-0.098958333,1,0,0,0.8582,optionLeft,80,13980,6,36,0,36,0,1,,,,,,,,,,,,,,,,,,,,,,,,,,,,,,,,,,,,,,,
,,,,,,,,2023-08-16_08h36.48.898,HF_wild_card,2022.2.4,Win32,60.0060006,610a879e6500d1d653b3da54,64d2fd46c836a06233681665,64dc7c7c88eef70a32feb17c,,,,,,,decisionTrl,resources/DY.BMP,resources/DB.BMP,Door3,0.4140625,-0.053385417,1,0,0,1.0072,optionRight,70,14050,6,37,0,37,0,1,,,,,,,,,,,,,,,,,,,,,,,,,,,,,,,,,,,,,,,
,,,,,,,,2023-08-16_08h36.48.898,HF_wild_card,2022.2.4,Win32,60.0060006,610a879e6500d1d653b3da54,64d2fd46c836a06233681665,64dc7c7c88eef70a32feb17c,,,,,,,decisionTrl,resources/DG.BMP,resources/DR.BMP,Door1,-0.305989583,-0.005208333,1,0,0,1.234,optionLeft,30,14080,6,38,0,38,0,1,,,,,,,,,,,,,,,,,,,,,,,,,,,,,,,,,,,,,,,
,,,,,,,,2023-08-16_08h36.48.898,HF_wild_card,2022.2.4,Win32,60.0060006,610a879e6500d1d653b3da54,64d2fd46c836a06233681665,64dc7c7c88eef70a32feb17c,,,,,,,ctch,resources/DR.BMP,resources/DB.BMP,Door3,0.377604167,-0.0390625,1,0,0,1.0254,optionRight,70,14150,6,39,0,39,0,1,,,,,,,,,,,,,,,,,,,,,,,,,,,,,,,,,,,,,,,
,,,,,,,,2023-08-16_08h36.48.898,HF_wild_card,2022.2.4,Win32,60.0060006,610a879e6500d1d653b3da54,64d2fd46c836a06233681665,64dc7c7c88eef70a32feb17c,,,,,,,decisionTrl,resources/DB.BMP,resources/DY.BMP,Door4,0.338541667,-0.0703125,1,0,0,1.0935,optionRight,80,14230,6,40,0,40,0,1,,,,,,,,,,,,,,,,,,,,,,,,,,,,,,,,,,,,,,,
,,,,,,,,2023-08-16_08h36.48.898,HF_wild_card,2022.2.4,Win32,60.0060006,610a879e6500d1d653b3da54,64d2fd46c836a06233681665,64dc7c7c88eef70a32feb17c,,,,,,,decisionTrl,resources/DG.BMP,resources/DR.BMP,Door1,-0.49609375,-0.028645833,1,0,0,1.2599,optionLeft,30,14260,6,41,0,41,0,1,,,,,,,,,,,,,,,,,,,,,,,,,,,,,,,,,,,,,,,
,,,,,,,,2023-08-16_08h36.48.898,HF_wild_card,2022.2.4,Win32,60.0060006,610a879e6500d1d653b3da54,64d2fd46c836a06233681665,64dc7c7c88eef70a32feb17c,,,,,,,decisionTrl,resources/DR.BMP,resources/DG.BMP,Door1,0.264322917,-0.02734375,1,0,0,1.2837,optionRight,30,14290,6,42,0,42,0,1,,,,,,,,,,,,,,,,,,,,,,,,,,,,,,,,,,,,,,,
,,,,,,,,2023-08-16_08h36.48.898,HF_wild_card,2022.2.4,Win32,60.0060006,610a879e6500d1d653b3da54,64d2fd46c836a06233681665,64dc7c7c88eef70a32feb17c,,,,,,,sngl,resources/DG.BMP,resources/Empty.png,Door1,-0.364583333,-0.020833333,1,0,0,0.8612,optionLeft,30,14320,6,43,0,43,0,1,,,,,,,,,,,,,,,,,,,,,,,,,,,,,,,,,,,,,,,
,,,,,,,,2023-08-16_08h36.48.898,HF_wild_card,2022.2.4,Win32,60.0060006,610a879e6500d1d653b3da54,64d2fd46c836a06233681665,64dc7c7c88eef70a32feb17c,,,,,,,,,,,,,,,,,,,,,,,,,,5,0,5,0,1,,,,,,,,,,,,,,,,,,,,,,,,,,,,,,,,,,
,,,,,,,,2023-08-16_08h36.48.898,HF_wild_card,2022.2.4,Win32,60.0060006,610a879e6500d1d653b3da54,64d2fd46c836a06233681665,64dc7c7c88eef70a32feb17c,,,,,,,decisionTrl,resources/DG.BMP,resources/DR.BMP,Door1,-0.296875,-0.0703125,1,0,0,1.5829,optionLeft,30,14350,7,0,0,0,0,1,,,,,,,,,,,,,,,,,,,,,,,,,,,,,,,,,,,,,,,
,,,,,,,,2023-08-16_08h36.48.898,HF_wild_card,2022.2.4,Win32,60.0060006,610a879e6500d1d653b3da54,64d2fd46c836a06233681665,64dc7c7c88eef70a32feb17c,,,,,,,decisionTrl,resources/DB.BMP,resources/DY.BMP,Door4,0.315104167,-0.029947917,1,0,0,1.065,optionRight,60,14410,7,1,0,1,0,1,,,,,,,,,,,,,,,,,,,,,,,,,,,,,,,,,,,,,,,
,,,,,,,,2023-08-16_08h36.48.898,HF_wild_card,2022.2.4,Win32,60.0060006,610a879e6500d1d653b3da54,64d2fd46c836a06233681665,64dc7c7c88eef70a32feb17c,,,,,,,decisionTrl,resources/DR.BMP,resources/DG.BMP,Door1,0.302083333,-0.014322917,1,0,0,1.4413,optionRight,30,14440,7,2,0,2,0,1,,,,,,,,,,,,,,,,,,,,,,,,,,,,,,,,,,,,,,,
,,,,,,,,2023-08-16_08h36.48.898,HF_wild_card,2022.2.4,Win32,60.0060006,610a879e6500d1d653b3da54,64d2fd46c836a06233681665,64dc7c7c88eef70a32feb17c,,,,,,,decisionTrl,resources/DG.BMP,resources/DR.BMP,Door1,-0.309895833,-0.015625,1,0,0,1.1411,optionLeft,30,14470,7,3,0,3,0,1,,,,,,,,,,,,,,,,,,,,,,,,,,,,,,,,,,,,,,,
,,,,,,,,2023-08-16_08h36.48.898,HF_wild_card,2022.2.4,Win32,60.0060006,610a879e6500d1d653b3da54,64d2fd46c836a06233681665,64dc7c7c88eef70a32feb17c,,,,,,,decisionTrl,resources/DG.BMP,resources/DR.BMP,Door2,0.427083333,-0.026041667,1,0,0,1.3152,optionRight,40,14510,7,4,0,4,0,1,,,,,,,,,,,,,,,,,,,,,,,,,,,,,,,,,,,,,,,
,,,,,,,,2023-08-16_08h36.48.898,HF_wild_card,2022.2.4,Win32,60.0060006,610a879e6500d1d653b3da54,64d2fd46c836a06233681665,64dc7c7c88eef70a32feb17c,,,,,,,ctch,resources/DR.BMP,resources/DB.BMP,Door3,0.299479167,-0.03515625,1,0,0,1.0993,optionRight,70,14580,7,5,0,5,0,1,,,,,,,,,,,,,,,,,,,,,,,,,,,,,,,,,,,,,,,
,,,,,,,,2023-08-16_08h36.48.898,HF_wild_card,2022.2.4,Win32,60.0060006,610a879e6500d1d653b3da54,64d2fd46c836a06233681665,64dc7c7c88eef70a32feb17c,,,,,,,decisionTrl,resources/DR.BMP,resources/DG.BMP,Door1,0.010416667,-0.014322917,1,0,0,1.5988,optionRight,30,14610,7,6,0,6,0,1,,,,,,,,,,,,,,,,,,,,,,,,,,,,,,,,,,,,,,,
,,,,,,,,2023-08-16_08h36.48.898,HF_wild_card,2022.2.4,Win32,60.0060006,610a879e6500d1d653b3da54,64d2fd46c836a06233681665,64dc7c7c88eef70a32feb17c,,,,,,,decisionTrl,resources/DR.BMP,resources/DG.BMP,Door2,-0.3125,-0.052083333,1,0,0,1.0982,optionLeft,20,14630,7,7,0,7,0,1,,,,,,,,,,,,,,,,,,,,,,,,,,,,,,,,,,,,,,,
,,,,,,,,2023-08-16_08h36.48.898,HF_wild_card,2022.2.4,Win32,60.0060006,610a879e6500d1d653b3da54,64d2fd46c836a06233681665,64dc7c7c88eef70a32feb17c,,,,,,,decisionTrl,resources/DB.BMP,resources/DY.BMP,Door4,0.375,-0.080729167,1,0,0,0.9835,optionRight,80,14710,7,8,0,8,0,1,,,,,,,,,,,,,,,,,,,,,,,,,,,,,,,,,,,,,,,
,,,,,,,,2023-08-16_08h36.48.898,HF_wild_card,2022.2.4,Win32,60.0060006,610a879e6500d1d653b3da54,64d2fd46c836a06233681665,64dc7c7c88eef70a32feb17c,,,,,,,decisionTrl,resources/DB.BMP,resources/DY.BMP,Door3,-0.39453125,-0.055989583,1,0,0,0.9939,optionLeft,70,14780,7,9,0,9,0,1,,,,,,,,,,,,,,,,,,,,,,,,,,,,,,,,,,,,,,,
,,,,,,,,2023-08-16_08h36.48.898,HF_wild_card,2022.2.4,Win32,60.0060006,610a879e6500d1d653b3da54,64d2fd46c836a06233681665,64dc7c7c88eef70a32feb17c,,,,,,,ctch,resources/DG.BMP,resources/DY.BMP,Door4,0.35546875,-0.05859375,1,0,0,0.7796,optionRight,80,14860,7,10,0,10,0,1,,,,,,,,,,,,,,,,,,,,,,,,,,,,,,,,,,,,,,,
,,,,,,,,2023-08-16_08h36.48.898,HF_wild_card,2022.2.4,Win32,60.0060006,610a879e6500d1d653b3da54,64d2fd46c836a06233681665,64dc7c7c88eef70a32feb17c,,,,,,,decisionTrl,resources/DY.BMP,resources/DB.BMP,Door4,-0.341145833,-0.069010417,1,0,0,0.9935,optionLeft,60,14920,7,11,0,11,0,1,,,,,,,,,,,,,,,,,,,,,,,,,,,,,,,,,,,,,,,
,,,,,,,,2023-08-16_08h36.48.898,HF_wild_card,2022.2.4,Win32,60.0060006,610a879e6500d1d653b3da54,64d2fd46c836a06233681665,64dc7c7c88eef70a32feb17c,,,,,,,ctch,resources/DR.BMP,resources/DB.BMP,Door3,0.391927083,-0.0546875,1,0,0,1.481,optionRight,70,14990,7,12,0,12,0,1,,,,,,,,,,,,,,,,,,,,,,,,,,,,,,,,,,,,,,,
,,,,,,,,2023-08-16_08h36.48.898,HF_wild_card,2022.2.4,Win32,60.0060006,610a879e6500d1d653b3da54,64d2fd46c836a06233681665,64dc7c7c88eef70a32feb17c,,,,,,,decisionTrl,resources/DY.BMP,resources/DB.BMP,Door4,-0.278645833,-0.063802083,1,0,0,0.9458,optionLeft,80,15070,7,13,0,13,0,1,,,,,,,,,,,,,,,,,,,,,,,,,,,,,,,,,,,,,,,
,,,,,,,,2023-08-16_08h36.48.898,HF_wild_card,2022.2.4,Win32,60.0060006,610a879e6500d1d653b3da54,64d2fd46c836a06233681665,64dc7c7c88eef70a32feb17c,,,,,,,ctch,resources/DG.BMP,resources/DY.BMP,Door4,0.307291667,-0.057291667,1,0,0,0.8805,optionRight,80,15150,7,14,0,14,0,1,,,,,,,,,,,,,,,,,,,,,,,,,,,,,,,,,,,,,,,
,,,,,,,,2023-08-16_08h36.48.898,HF_wild_card,2022.2.4,Win32,60.0060006,610a879e6500d1d653b3da54,64d2fd46c836a06233681665,64dc7c7c88eef70a32feb17c,,,,,,,decisionTrl,resources/DB.BMP,resources/DY.BMP,Door4,0.295572917,-0.024739583,1,0,0,1.0234,optionRight,80,15230,7,15,0,15,0,1,,,,,,,,,,,,,,,,,,,,,,,,,,,,,,,,,,,,,,,
,,,,,,,,2023-08-16_08h36.48.898,HF_wild_card,2022.2.4,Win32,60.0060006,610a879e6500d1d653b3da54,64d2fd46c836a06233681665,64dc7c7c88eef70a32feb17c,,,,,,,ctch,resources/DB.BMP,resources/DR.BMP,Door3,-0.326822917,-0.018229167,1,0,0,0.73,optionLeft,70,15300,7,16,0,16,0,1,,,,,,,,,,,,,,,,,,,,,,,,,,,,,,,,,,,,,,,
,,,,,,,,2023-08-16_08h36.48.898,HF_wild_card,2022.2.4,Win32,60.0060006,610a879e6500d1d653b3da54,64d2fd46c836a06233681665,64dc7c7c88eef70a32feb17c,,,,,,,decisionTrl,resources/DR.BMP,resources/DG.BMP,Door1,0.34765625,-0.0625,1,0,0,1.1449,optionRight,30,15330,7,17,0,17,0,1,,,,,,,,,,,,,,,,,,,,,,,,,,,,,,,,,,,,,,,
,,,,,,,,2023-08-16_08h36.48.898,HF_wild_card,2022.2.4,Win32,60.0060006,610a879e6500d1d653b3da54,64d2fd46c836a06233681665,64dc7c7c88eef70a32feb17c,,,,,,,decisionTrl,resources/DB.BMP,resources/DY.BMP,Door4,0.358072917,-0.078125,1,0,0,0.961,optionRight,60,15390,7,18,0,18,0,1,,,,,,,,,,,,,,,,,,,,,,,,,,,,,,,,,,,,,,,
,,,,,,,,2023-08-16_08h36.48.898,HF_wild_card,2022.2.4,Win32,60.0060006,610a879e6500d1d653b3da54,64d2fd46c836a06233681665,64dc7c7c88eef70a32feb17c,,,,,,,ctch,resources/DG.BMP,resources/DY.BMP,Door4,0.376302083,-0.069010417,1,0,0,0.9167,optionRight,60,15450,7,19,0,19,0,1,,,,,,,,,,,,,,,,,,,,,,,,,,,,,,,,,,,,,,,
,,,,,,,,2023-08-16_08h36.48.898,HF_wild_card,2022.2.4,Win32,60.0060006,610a879e6500d1d653b3da54,64d2fd46c836a06233681665,64dc7c7c88eef70a32feb17c,,,,,,,decisionTrl,resources/DG.BMP,resources/DR.BMP,Door1,-0.240885417,-0.049479167,1,0,0,1.182,optionLeft,30,15480,7,20,0,20,0,1,,,,,,,,,,,,,,,,,,,,,,,,,,,,,,,,,,,,,,,
,,,,,,,,2023-08-16_08h36.48.898,HF_wild_card,2022.2.4,Win32,60.0060006,610a879e6500d1d653b3da54,64d2fd46c836a06233681665,64dc7c7c88eef70a32feb17c,,,,,,,ctch,resources/DB.BMP,resources/DR.BMP,Door3,-0.294270833,-0.033854167,1,0,0,1.0502,optionLeft,70,15550,7,21,0,21,0,1,,,,,,,,,,,,,,,,,,,,,,,,,,,,,,,,,,,,,,,
,,,,,,,,2023-08-16_08h36.48.898,HF_wild_card,2022.2.4,Win32,60.0060006,610a879e6500d1d653b3da54,64d2fd46c836a06233681665,64dc7c7c88eef70a32feb17c,,,,,,,ctch,resources/DR.BMP,resources/DB.BMP,Door3,0.341145833,-0.053385417,1,0,0,0.8122,optionRight,70,15620,7,22,0,22,0,1,,,,,,,,,,,,,,,,,,,,,,,,,,,,,,,,,,,,,,,
,,,,,,,,2023-08-16_08h36.48.898,HF_wild_card,2022.2.4,Win32,60.0060006,610a879e6500d1d653b3da54,64d2fd46c836a06233681665,64dc7c7c88eef70a32feb17c,,,,,,,decisionTrl,resources/DR.BMP,resources/DG.BMP,Door2,-0.428385417,-0.088541667,1,0,0,1.4973,optionLeft,40,15660,7,23,0,23,0,1,,,,,,,,,,,,,,,,,,,,,,,,,,,,,,,,,,,,,,,
,,,,,,,,2023-08-16_08h36.48.898,HF_wild_card,2022.2.4,Win32,60.0060006,610a879e6500d1d653b3da54,64d2fd46c836a06233681665,64dc7c7c88eef70a32feb17c,,,,,,,decisionTrl,resources/DY.BMP,resources/DB.BMP,Door4,-0.328125,-0.08984375,1,0,0,0.8452,optionLeft,60,15720,7,24,0,24,0,1,,,,,,,,,,,,,,,,,,,,,,,,,,,,,,,,,,,,,,,
,,,,,,,,2023-08-16_08h36.48.898,HF_wild_card,2022.2.4,Win32,60.0060006,610a879e6500d1d653b3da54,64d2fd46c836a06233681665,64dc7c7c88eef70a32feb17c,,,,,,,decisionTrl,resources/DY.BMP,resources/DB.BMP,Door3,0.33203125,-0.055989583,1,0,0,0.8316,optionRight,70,15790,7,25,0,25,0,1,,,,,,,,,,,,,,,,,,,,,,,,,,,,,,,,,,,,,,,
,,,,,,,,2023-08-16_08h36.48.898,HF_wild_card,2022.2.4,Win32,60.0060006,610a879e6500d1d653b3da54,64d2fd46c836a06233681665,64dc7c7c88eef70a32feb17c,,,,,,,decisionTrl,resources/DR.BMP,resources/DG.BMP,Door1,0.3515625,-0.03515625,1,0,0,1.4489,optionRight,30,15820,7,26,0,26,0,1,,,,,,,,,,,,,,,,,,,,,,,,,,,,,,,,,,,,,,,
,,,,,,,,2023-08-16_08h36.48.898,HF_wild_card,2022.2.4,Win32,60.0060006,610a879e6500d1d653b3da54,64d2fd46c836a06233681665,64dc7c7c88eef70a32feb17c,,,,,,,decisionTrl,resources/DG.BMP,resources/DR.BMP,Door1,-0.268229167,-0.014322917,1,0,0,1.1824,optionLeft,30,15850,7,27,0,27,0,1,,,,,,,,,,,,,,,,,,,,,,,,,,,,,,,,,,,,,,,
,,,,,,,,2023-08-16_08h36.48.898,HF_wild_card,2022.2.4,Win32,60.0060006,610a879e6500d1d653b3da54,64d2fd46c836a06233681665,64dc7c7c88eef70a32feb17c,,,,,,,ctch,resources/DY.BMP,resources/DG.BMP,Door4,-0.307291667,-0.0625,1,0,0,0.9439,optionLeft,80,15930,7,28,0,28,0,1,,,,,,,,,,,,,,,,,,,,,,,,,,,,,,,,,,,,,,,
,,,,,,,,2023-08-16_08h36.48.898,HF_wild_card,2022.2.4,Win32,60.0060006,610a879e6500d1d653b3da54,64d2fd46c836a06233681665,64dc7c7c88eef70a32feb17c,,,,,,,decisionTrl,resources/DB.BMP,resources/DY.BMP,Door4,0.337239583,-0.057291667,1,0,0,0.7446,optionRight,60,15990,7,29,0,29,0,1,,,,,,,,,,,,,,,,,,,,,,,,,,,,,,,,,,,,,,,
,,,,,,,,2023-08-16_08h36.48.898,HF_wild_card,2022.2.4,Win32,60.0060006,610a879e6500d1d653b3da54,64d2fd46c836a06233681665,64dc7c7c88eef70a32feb17c,,,,,,,ctch,resources/DY.BMP,resources/DG.BMP,Door4,-0.286458333,-0.102864583,1,0,0,1.0495,optionLeft,60,16050,7,30,0,30,0,1,,,,,,,,,,,,,,,,,,,,,,,,,,,,,,,,,,,,,,,
,,,,,,,,2023-08-16_08h36.48.898,HF_wild_card,2022.2.4,Win32,60.0060006,610a879e6500d1d653b3da54,64d2fd46c836a06233681665,64dc7c7c88eef70a32feb17c,,,,,,,decisionTrl,resources/DG.BMP,resources/DR.BMP,Door1,-0.001302083,-0.0078125,1,0,0,0.5476,optionLeft,30,16080,7,31,0,31,0,1,,,,,,,,,,,,,,,,,,,,,,,,,,,,,,,,,,,,,,,
,,,,,,,,2023-08-16_08h36.48.898,HF_wild_card,2022.2.4,Win32,60.0060006,610a879e6500d1d653b3da54,64d2fd46c836a06233681665,64dc7c7c88eef70a32feb17c,,,,,,,decisionTrl,resources/DY.BMP,resources/DB.BMP,Door4,-0.384114583,-0.0703125,1,0,0,1.2978,optionLeft,80,16160,7,32,0,32,0,1,,,,,,,,,,,,,,,,,,,,,,,,,,,,,,,,,,,,,,,
,,,,,,,,2023-08-16_08h36.48.898,HF_wild_card,2022.2.4,Win32,60.0060006,610a879e6500d1d653b3da54,64d2fd46c836a06233681665,64dc7c7c88eef70a32feb17c,,,,,,,ctch,resources/DY.BMP,resources/DG.BMP,Door4,-0.352864583,-0.0546875,1,0,0,1.0309,optionLeft,60,16220,7,33,0,33,0,1,,,,,,,,,,,,,,,,,,,,,,,,,,,,,,,,,,,,,,,
,,,,,,,,2023-08-16_08h36.48.898,HF_wild_card,2022.2.4,Win32,60.0060006,610a879e6500d1d653b3da54,64d2fd46c836a06233681665,64dc7c7c88eef70a32feb17c,,,,,,,decisionTrl,resources/DY.BMP,resources/DB.BMP,Door3,0.364583333,-0.052083333,1,0,0,1.3142,optionRight,70,16290,7,34,0,34,0,1,,,,,,,,,,,,,,,,,,,,,,,,,,,,,,,,,,,,,,,
,,,,,,,,2023-08-16_08h36.48.898,HF_wild_card,2022.2.4,Win32,60.0060006,610a879e6500d1d653b3da54,64d2fd46c836a06233681665,64dc7c7c88eef70a32feb17c,,,,,,,ctch,resources/DB.BMP,resources/DR.BMP,Door3,-0.4296875,-0.0703125,1,0,0,1.1968,optionLeft,70,16360,7,35,0,35,0,1,,,,,,,,,,,,,,,,,,,,,,,,,,,,,,,,,,,,,,,
,,,,,,,,2023-08-16_08h36.48.898,HF_wild_card,2022.2.4,Win32,60.0060006,610a879e6500d1d653b3da54,64d2fd46c836a06233681665,64dc7c7c88eef70a32feb17c,,,,,,,,,,,,,,,,,,,,,,,,,,6,0,6,0,1,,,,,,,,,,,,,,,,,,,,,,,,,,,,,,,,,,
,,,,,,,,2023-08-16_08h36.48.898,HF_wild_card,2022.2.4,Win32,60.0060006,610a879e6500d1d653b3da54,64d2fd46c836a06233681665,64dc7c7c88eef70a32feb17c,,,,,,,,,,,,,,,,,,,,,,,,,,,,,,,4,,,,,,,,,,,,,,,,,,,,,,,,,,,,,,,,,
,,,,,,,,2023-08-16_08h36.48.898,HF_wild_card,2022.2.4,Win32,60.0060006,610a879e6500d1d653b3da54,64d2fd46c836a06233681665,64dc7c7c88eef70a32feb17c,,,,,,,,,,,,,,,,,,,,,,,,,,,,,,,,,,,,,,,,,,,,,,,,,,,,,,,,,,,,,,,,
,,,,,,,,2023-08-16_08h36.48.898,HF_wild_card,2022.2.4,Win32,60.0060006,610a879e6500d1d653b3da54,64d2fd46c836a06233681665,64dc7c7c88eef70a32feb17c,,,,,,,,,,,,,,,,,,,,,,,,,,,,,,,,30,Door1,resources/DG.BMP,0,0,0,0,1,,,,,,,,,,,,,,,,,,,,,,,,,
,,,,,,,,2023-08-16_08h36.48.898,HF_wild_card,2022.2.4,Win32,60.0060006,610a879e6500d1d653b3da54,64d2fd46c836a06233681665,64dc7c7c88eef70a32feb17c,,,,,,,,,,,,,,,,,,,,,,,,,,,,,,,,55,WC_extreme,resources/DP.BMP,1,0,1,0,1,,,,,,,,,,,,,,,,,,,,,,,,,
,,,,,,,,2023-08-16_08h36.48.898,HF_wild_card,2022.2.4,Win32,60.0060006,610a879e6500d1d653b3da54,64d2fd46c836a06233681665,64dc7c7c88eef70a32feb17c,,,,,,,,,,,,,,,,,,,,,,,,,,,,,,,,60,Door3,resources/DB.BMP,2,0,2,0,1,,,,,,,,,,,,,,,,,,,,,,,,,
,,,,,,,,2023-08-16_08h36.48.898,HF_wild_card,2022.2.4,Win32,60.0060006,610a879e6500d1d653b3da54,64d2fd46c836a06233681665,64dc7c7c88eef70a32feb17c,,,,,,,,,,,,,,,,,,,,,,,,,,,,,,,,55,WC_nonExtreme,resources/DBN.BMP,3,0,3,0,1,,,,,,,,,,,,,,,,,,,,,,,,,
,,,,,,,,2023-08-16_08h36.48.898,HF_wild_card,2022.2.4,Win32,60.0060006,610a879e6500d1d653b3da54,64d2fd46c836a06233681665,64dc7c7c88eef70a32feb17c,,,,,,,,,,,,,,,,,,,,,,,,,,,,,,,,80,Door4,resources/DY.BMP,4,0,4,0,1,,,,,,,,,,,,,,,,,,,,,,,,,
,,,,,,,,2023-08-16_08h36.48.898,HF_wild_card,2022.2.4,Win32,60.0060006,610a879e6500d1d653b3da54,64d2fd46c836a06233681665,64dc7c7c88eef70a32feb17c,,,,,,,,,,,,,,,,,,,,,,,,,,,,,,,,20,Door2,resources/DR.BMP,5,0,5,0,1,,,,,,,,,,,,,,,,,,,,,,,,,
,,,,,,,,2023-08-16_08h36.48.898,HF_wild_card,2022.2.4,Win32,60.0060006,610a879e6500d1d653b3da54,64d2fd46c836a06233681665,64dc7c7c88eef70a32feb17c,,,,,,,,,,,,,,,,,,,,,,,,,,,,,,,,,,,,,,,,,,,,,,,,,,,,,,,,,,,,,,,,
,,,,,,,,2023-08-16_08h36.48.898,HF_wild_card,2022.2.4,Win32,60.0060006,610a879e6500d1d653b3da54,64d2fd46c836a06233681665,64dc7c7c88eef70a32feb17c,,,,,,,,,,,,,,,,,,,,,,,,,,,,,,,,,,,,,,,,0,0,0,0,1,,,,,,,,,,,,,,,,,,,,
,,,,,,,,2023-08-16_08h36.48.898,HF_wild_card,2022.2.4,Win32,60.0060006,610a879e6500d1d653b3da54,64d2fd46c836a06233681665,64dc7c7c88eef70a32feb17c,,,,,,,,,,,,,,,,,,,,,,,,,,,,,,,,,,,,,,,,1,0,1,0,1,,,,,,,,,,,,,,,,,,,,
