Condition,Low fixed image (Door1),Low risky image (Door2),High fixed image (Door3),High risky image (Door4),Extreme Wild Card,NonExtreme Wild Card,,date,expName,psychopyVersion,OS,frameRate,PROLIFIC_PID,STUDY_ID,SESSION_ID,mouse_2.x,mouse_2.y,mouse_2.leftButton,mouse_2.midButton,mouse_2.rightButton,mouse_2.clicked_name,Trial Type,Left Option Image,Right Option Image,Chosen Door,mouse.x,mouse.y,mouse.leftButton,mouse.midButton,mouse.rightButton,mouse.time,mouse.clicked_name,Feedback,Cumulative Reward,Block,trial.thisRepN,trial.thisTrialN,trial.thisN,trial.thisIndex,trial.ran,blocks.thisRepN,blocks.thisTrialN,blocks.thisN,blocks.thisIndex,blocks.ran,Money conversion,First Outcome Reported,Shown Door (First Outcome),Displayed Image (First Outcome),outcomes.thisRepN,outcomes.thisTrialN,outcomes.thisN,outcomes.thisIndex,outcomes.ran,judgments.thisRepN,judgments.thisTrialN,judgments.thisN,judgments.thisIndex,judgments.ran,freqMouse.x,freqMouse.y,freqMouse.leftButton,freqMouse.midButton,freqMouse.rightButton,freqMouse.clicked_name,trials.thisRepN,trials.thisTrialN,trials.thisN,trials.thisIndex,trials.ran,FQJ for first outcome,FQJ for second outcome,Shown Door,Displayed Image,judgBlock.thisRepN,judgBlock.thisTrialN,judgBlock.thisN,judgBlock.thisIndex,judgBlock.ran
0,resources/DB.BMP,resources/DP.BMP,resources/DY.BMP,resources/DG.BMP,resources/DBN.BMP,resources/DR.BMP,,2023-08-16_08h43.20.808,HF_wild_card,2022.2.4,Win32,146.6705779,5de8d181a91be383f644bd8c,64d2fd46c836a06233681665,64dc7e0fe78443ba51b5d4a3,,,,,,,,,,,,,,,,,,,,,,,,,,,,,,,,,,,,,,,,,,,,,,,,,,,,,,,,,,,,,,,,
,,,,,,,,2023-08-16_08h43.20.808,HF_wild_card,2022.2.4,Win32,146.6705779,5de8d181a91be383f644bd8c,64d2fd46c836a06233681665,64dc7e0fe78443ba51b5d4a3,0.023148148,-0.412962963,1,0,0,agree,,,,,,,,,,,,,,,,,,,,,,,,,,,,,,,,,,,,,,,,,,,,,,,,,,,,,,,,,,
,,,,,,,,2023-08-16_08h43.20.808,HF_wild_card,2022.2.4,Win32,146.6705779,5de8d181a91be383f644bd8c,64d2fd46c836a06233681665,64dc7e0fe78443ba51b5d4a3,,,,,,,,,,,,,,,,,,,,,,,,,,,,,,,,,,,,,,,,,,,,,,,,,,,,,,,,,,,,,,,,
,,,,,,,,2023-08-16_08h43.20.808,HF_wild_card,2022.2.4,Win32,146.6705779,5de8d181a91be383f644bd8c,64d2fd46c836a06233681665,64dc7e0fe78443ba51b5d4a3,,,,,,,decisionTrl,resources/DY.BMP,resources/DG.BMP,Door4,0.216666667,-0.098148148,1,0,0,1.8027,optionRight,60,60,1,0,0,0,0,1,,,,,,,,,,,,,,,,,,,,,,,,,,,,,,,,,,,,,,,
,,,,,,,,2023-08-16_08h43.20.808,HF_wild_card,2022.2.4,Win32,146.6705779,5de8d181a91be383f644bd8c,64d2fd46c836a06233681665,64dc7e0fe78443ba51b5d4a3,,,,,,,decisionTrl,resources/DBN.BMP,resources/DG.BMP,WildCard_Ex,-0.210185185,-0.051851852,1,0,0,0.8024,optionLeft,5,65,1,1,0,1,0,1,,,,,,,,,,,,,,,,,,,,,,,,,,,,,,,,,,,,,,,
,,,,,,,,2023-08-16_08h43.20.808,HF_wild_card,2022.2.4,Win32,146.6705779,5de8d181a91be383f644bd8c,64d2fd46c836a06233681665,64dc7e0fe78443ba51b5d4a3,,,,,,,ctch,resources/DY.BMP,resources/DP.BMP,Door2,0.323148148,0.006481481,1,0,0,0.3315,optionRight,40,105,1,2,0,2,0,1,,,,,,,,,,,,,,,,,,,,,,,,,,,,,,,,,,,,,,,
,,,,,,,,2023-08-16_08h43.20.808,HF_wild_card,2022.2.4,Win32,146.6705779,5de8d181a91be383f644bd8c,64d2fd46c836a06233681665,64dc7e0fe78443ba51b5d4a3,,,,,,,sngl,resources/Empty.png,resources/DBN.BMP,WildCard_Ex,-0.289814815,-0.009259259,1,0,0,1.0329,optionRight,95,200,1,3,0,3,0,1,,,,,,,,,,,,,,,,,,,,,,,,,,,,,,,,,,,,,,,
,,,,,,,,2023-08-16_08h43.20.808,HF_wild_card,2022.2.4,Win32,146.6705779,5de8d181a91be383f644bd8c,64d2fd46c836a06233681665,64dc7e0fe78443ba51b5d4a3,,,,,,,decisionTrl,resources/DBN.BMP,resources/DP.BMP,WildCard_Ex,-0.238888889,0.005555556,1,0,0,0.3726,optionLeft,95,295,1,4,0,4,0,1,,,,,,,,,,,,,,,,,,,,,,,,,,,,,,,,,,,,,,,
,,,,,,,,2023-08-16_08h43.20.808,HF_wild_card,2022.2.4,Win32,146.6705779,5de8d181a91be383f644bd8c,64d2fd46c836a06233681665,64dc7e0fe78443ba51b5d4a3,,,,,,,decisionTrl,resources/DG.BMP,resources/DY.BMP,Door3,0.376851852,-0.011111111,1,0,0,0.3385,optionRight,70,365,1,5,0,5,0,1,,,,,,,,,,,,,,,,,,,,,,,,,,,,,,,,,,,,,,,
,,,,,,,,2023-08-16_08h43.20.808,HF_wild_card,2022.2.4,Win32,146.6705779,5de8d181a91be383f644bd8c,64d2fd46c836a06233681665,64dc7e0fe78443ba51b5d4a3,,,,,,,sngl,resources/DB.BMP,resources/Empty.png,Door1,-0.308333333,0.025,1,0,0,0.284,optionLeft,30,395,1,6,0,6,0,1,,,,,,,,,,,,,,,,,,,,,,,,,,,,,,,,,,,,,,,
,,,,,,,,2023-08-16_08h43.20.808,HF_wild_card,2022.2.4,Win32,146.6705779,5de8d181a91be383f644bd8c,64d2fd46c836a06233681665,64dc7e0fe78443ba51b5d4a3,,,,,,,ctch,resources/DY.BMP,resources/DP.BMP,Door2,0.362037037,-0.021296296,1,0,0,0.3118,optionRight,40,435,1,7,0,7,0,1,,,,,,,,,,,,,,,,,,,,,,,,,,,,,,,,,,,,,,,
,,,,,,,,2023-08-16_08h43.20.808,HF_wild_card,2022.2.4,Win32,146.6705779,5de8d181a91be383f644bd8c,64d2fd46c836a06233681665,64dc7e0fe78443ba51b5d4a3,,,,,,,sngl,resources/Empty.png,resources/DB.BMP,Door1,0.328703704,-0.044444444,1,0,0,0.463,optionRight,30,465,1,8,0,8,0,1,,,,,,,,,,,,,,,,,,,,,,,,,,,,,,,,,,,,,,,
,,,,,,,,2023-08-16_08h43.20.808,HF_wild_card,2022.2.4,Win32,146.6705779,5de8d181a91be383f644bd8c,64d2fd46c836a06233681665,64dc7e0fe78443ba51b5d4a3,,,,,,,sngl,resources/DY.BMP,resources/Empty.png,Door3,-0.353703704,-0.017592593,1,0,0,0.3603,optionLeft,70,535,1,9,0,9,0,1,,,,,,,,,,,,,,,,,,,,,,,,,,,,,,,,,,,,,,,
,,,,,,,,2023-08-16_08h43.20.808,HF_wild_card,2022.2.4,Win32,146.6705779,5de8d181a91be383f644bd8c,64d2fd46c836a06233681665,64dc7e0fe78443ba51b5d4a3,,,,,,,decisionTrl,resources/DG.BMP,resources/DY.BMP,Door3,0.333333333,-0.044444444,1,0,0,0.4016,optionRight,70,605,1,10,0,10,0,1,,,,,,,,,,,,,,,,,,,,,,,,,,,,,,,,,,,,,,,
,,,,,,,,2023-08-16_08h43.20.808,HF_wild_card,2022.2.4,Win32,146.6705779,5de8d181a91be383f644bd8c,64d2fd46c836a06233681665,64dc7e0fe78443ba51b5d4a3,,,,,,,decisionTrl,resources/DBN.BMP,resources/DY.BMP,Door3,0.359259259,-0.050925926,1,0,0,0.6661,optionRight,70,675,1,11,0,11,0,1,,,,,,,,,,,,,,,,,,,,,,,,,,,,,,,,,,,,,,,
,,,,,,,,2023-08-16_08h43.20.808,HF_wild_card,2022.2.4,Win32,146.6705779,5de8d181a91be383f644bd8c,64d2fd46c836a06233681665,64dc7e0fe78443ba51b5d4a3,,,,,,,decisionTrl,resources/DY.BMP,resources/DG.BMP,Door3,-0.226851852,-0.018518519,1,0,0,0.6311,optionLeft,70,745,1,12,0,12,0,1,,,,,,,,,,,,,,,,,,,,,,,,,,,,,,,,,,,,,,,
,,,,,,,,2023-08-16_08h43.20.808,HF_wild_card,2022.2.4,Win32,146.6705779,5de8d181a91be383f644bd8c,64d2fd46c836a06233681665,64dc7e0fe78443ba51b5d4a3,,,,,,,sngl,resources/Empty.png,resources/DG.BMP,Door4,0.244444444,-0.048148148,1,0,0,0.5887,optionRight,60,805,1,13,0,13,0,1,,,,,,,,,,,,,,,,,,,,,,,,,,,,,,,,,,,,,,,
,,,,,,,,2023-08-16_08h43.20.808,HF_wild_card,2022.2.4,Win32,146.6705779,5de8d181a91be383f644bd8c,64d2fd46c836a06233681665,64dc7e0fe78443ba51b5d4a3,,,,,,,decisionTrl,resources/DB.BMP,resources/DP.BMP,Door1,-0.17037037,-0.039814815,1,0,0,0.9426,optionLeft,30,835,1,14,0,14,0,1,,,,,,,,,,,,,,,,,,,,,,,,,,,,,,,,,,,,,,,
,,,,,,,,2023-08-16_08h43.20.808,HF_wild_card,2022.2.4,Win32,146.6705779,5de8d181a91be383f644bd8c,64d2fd46c836a06233681665,64dc7e0fe78443ba51b5d4a3,,,,,,,ctch,resources/DP.BMP,resources/DY.BMP,Door2,-0.22037037,-0.025,1,0,0,0.7486,optionLeft,20,855,1,15,0,15,0,1,,,,,,,,,,,,,,,,,,,,,,,,,,,,,,,,,,,,,,,
,,,,,,,,2023-08-16_08h43.20.808,HF_wild_card,2022.2.4,Win32,146.6705779,5de8d181a91be383f644bd8c,64d2fd46c836a06233681665,64dc7e0fe78443ba51b5d4a3,,,,,,,ctch,resources/DG.BMP,resources/DB.BMP,Door1,0.225,-0.049074074,1,0,0,0.8249,optionRight,30,885,1,16,0,16,0,1,,,,,,,,,,,,,,,,,,,,,,,,,,,,,,,,,,,,,,,
,,,,,,,,2023-08-16_08h43.20.808,HF_wild_card,2022.2.4,Win32,146.6705779,5de8d181a91be383f644bd8c,64d2fd46c836a06233681665,64dc7e0fe78443ba51b5d4a3,,,,,,,decisionTrl,resources/DP.BMP,resources/DB.BMP,Door2,-0.224074074,0.00462963,1,0,0,0.2694,optionLeft,40,925,1,17,0,17,0,1,,,,,,,,,,,,,,,,,,,,,,,,,,,,,,,,,,,,,,,
,,,,,,,,2023-08-16_08h43.20.808,HF_wild_card,2022.2.4,Win32,146.6705779,5de8d181a91be383f644bd8c,64d2fd46c836a06233681665,64dc7e0fe78443ba51b5d4a3,,,,,,,decisionTrl,resources/DB.BMP,resources/DP.BMP,Door2,0.272222222,-0.042592593,1,0,0,0.2502,optionRight,20,945,1,18,0,18,0,1,,,,,,,,,,,,,,,,,,,,,,,,,,,,,,,,,,,,,,,
,,,,,,,,2023-08-16_08h43.20.808,HF_wild_card,2022.2.4,Win32,146.6705779,5de8d181a91be383f644bd8c,64d2fd46c836a06233681665,64dc7e0fe78443ba51b5d4a3,,,,,,,ctch,resources/DP.BMP,resources/DY.BMP,Door2,-0.258333333,0.013888889,1,0,0,0.2763,optionLeft,40,985,1,19,0,19,0,1,,,,,,,,,,,,,,,,,,,,,,,,,,,,,,,,,,,,,,,
,,,,,,,,2023-08-16_08h43.20.808,HF_wild_card,2022.2.4,Win32,146.6705779,5de8d181a91be383f644bd8c,64d2fd46c836a06233681665,64dc7e0fe78443ba51b5d4a3,,,,,,,ctch,resources/DB.BMP,resources/DG.BMP,Door4,0.490740741,-0.094444444,1,0,0,0.2136,optionRight,80,1065,1,20,0,20,0,1,,,,,,,,,,,,,,,,,,,,,,,,,,,,,,,,,,,,,,,
,,,,,,,,2023-08-16_08h43.20.808,HF_wild_card,2022.2.4,Win32,146.6705779,5de8d181a91be383f644bd8c,64d2fd46c836a06233681665,64dc7e0fe78443ba51b5d4a3,,,,,,,sngl,resources/DP.BMP,resources/Empty.png,Door2,-0.337962963,-0.00462963,1,0,0,0.2515,optionLeft,40,1105,1,21,0,21,0,1,,,,,,,,,,,,,,,,,,,,,,,,,,,,,,,,,,,,,,,
,,,,,,,,2023-08-16_08h43.20.808,HF_wild_card,2022.2.4,Win32,146.6705779,5de8d181a91be383f644bd8c,64d2fd46c836a06233681665,64dc7e0fe78443ba51b5d4a3,,,,,,,decisionTrl,resources/DP.BMP,resources/DBN.BMP,WildCard_Ex,0.294444444,-0.028703704,1,0,0,0.245,optionRight,5,1110,1,22,0,22,0,1,,,,,,,,,,,,,,,,,,,,,,,,,,,,,,,,,,,,,,,
,,,,,,,,2023-08-16_08h43.20.808,HF_wild_card,2022.2.4,Win32,146.6705779,5de8d181a91be383f644bd8c,64d2fd46c836a06233681665,64dc7e0fe78443ba51b5d4a3,,,,,,,decisionTrl,resources/DG.BMP,resources/DBN.BMP,WildCard_Ex,0.248148148,-0.047222222,1,0,0,0.1852,optionRight,95,1205,1,23,0,23,0,1,,,,,,,,,,,,,,,,,,,,,,,,,,,,,,,,,,,,,,,
,,,,,,,,2023-08-16_08h43.20.808,HF_wild_card,2022.2.4,Win32,146.6705779,5de8d181a91be383f644bd8c,64d2fd46c836a06233681665,64dc7e0fe78443ba51b5d4a3,,,,,,,decisionTrl,resources/DY.BMP,resources/DBN.BMP,WildCard_Ex,0.333333333,-0.031481481,1,0,0,0.2937,optionRight,5,1210,1,24,0,24,0,1,,,,,,,,,,,,,,,,,,,,,,,,,,,,,,,,,,,,,,,
,,,,,,,,2023-08-16_08h43.20.808,HF_wild_card,2022.2.4,Win32,146.6705779,5de8d181a91be383f644bd8c,64d2fd46c836a06233681665,64dc7e0fe78443ba51b5d4a3,,,,,,,decisionTrl,resources/DBN.BMP,resources/DB.BMP,Door1,0.237962963,-0.024074074,1,0,0,0.1827,optionRight,30,1240,1,25,0,25,0,1,,,,,,,,,,,,,,,,,,,,,,,,,,,,,,,,,,,,,,,
,,,,,,,,2023-08-16_08h43.20.808,HF_wild_card,2022.2.4,Win32,146.6705779,5de8d181a91be383f644bd8c,64d2fd46c836a06233681665,64dc7e0fe78443ba51b5d4a3,,,,,,,decisionTrl,resources/DP.BMP,resources/DB.BMP,Door1,0.321296296,-0.041666667,1,0,0,0.238,optionRight,30,1270,1,26,0,26,0,1,,,,,,,,,,,,,,,,,,,,,,,,,,,,,,,,,,,,,,,
,,,,,,,,2023-08-16_08h43.20.808,HF_wild_card,2022.2.4,Win32,146.6705779,5de8d181a91be383f644bd8c,64d2fd46c836a06233681665,64dc7e0fe78443ba51b5d4a3,,,,,,,decisionTrl,resources/DB.BMP,resources/DBN.BMP,Door1,-0.45,0.003703704,1,0,0,0.2728,optionLeft,30,1300,1,27,0,27,0,1,,,,,,,,,,,,,,,,,,,,,,,,,,,,,,,,,,,,,,,
,,,,,,,,2023-08-16_08h43.20.808,HF_wild_card,2022.2.4,Win32,146.6705779,5de8d181a91be383f644bd8c,64d2fd46c836a06233681665,64dc7e0fe78443ba51b5d4a3,,,,,,,sngl,resources/Empty.png,resources/DP.BMP,Door2,0.149074074,-0.012037037,1,0,0,0.2024,optionRight,20,1320,1,28,0,28,0,1,,,,,,,,,,,,,,,,,,,,,,,,,,,,,,,,,,,,,,,
,,,,,,,,2023-08-16_08h43.20.808,HF_wild_card,2022.2.4,Win32,146.6705779,5de8d181a91be383f644bd8c,64d2fd46c836a06233681665,64dc7e0fe78443ba51b5d4a3,,,,,,,decisionTrl,resources/DB.BMP,resources/DP.BMP,Door1,-0.192592593,-0.026851852,1,0,0,0.2068,optionLeft,30,1350,1,29,0,29,0,1,,,,,,,,,,,,,,,,,,,,,,,,,,,,,,,,,,,,,,,
,,,,,,,,2023-08-16_08h43.20.808,HF_wild_card,2022.2.4,Win32,146.6705779,5de8d181a91be383f644bd8c,64d2fd46c836a06233681665,64dc7e0fe78443ba51b5d4a3,,,,,,,sngl,resources/Empty.png,resources/DBN.BMP,WildCard_Ex,0.306481481,-0.063888889,1,0,0,0.259,optionRight,5,1355,1,30,0,30,0,1,,,,,,,,,,,,,,,,,,,,,,,,,,,,,,,,,,,,,,,
,,,,,,,,2023-08-16_08h43.20.808,HF_wild_card,2022.2.4,Win32,146.6705779,5de8d181a91be383f644bd8c,64d2fd46c836a06233681665,64dc7e0fe78443ba51b5d4a3,,,,,,,sngl,resources/DBN.BMP,resources/Empty.png,WildCard_Ex,-0.324074074,0.002777778,1,0,0,0.3004,optionLeft,5,1360,1,31,0,31,0,1,,,,,,,,,,,,,,,,,,,,,,,,,,,,,,,,,,,,,,,
,,,,,,,,2023-08-16_08h43.20.808,HF_wild_card,2022.2.4,Win32,146.6705779,5de8d181a91be383f644bd8c,64d2fd46c836a06233681665,64dc7e0fe78443ba51b5d4a3,,,,,,,decisionTrl,resources/DY.BMP,resources/DG.BMP,Door4,0.313888889,-0.021296296,1,0,0,0.2136,optionRight,80,1440,1,32,0,32,0,1,,,,,,,,,,,,,,,,,,,,,,,,,,,,,,,,,,,,,,,
,,,,,,,,2023-08-16_08h43.20.808,HF_wild_card,2022.2.4,Win32,146.6705779,5de8d181a91be383f644bd8c,64d2fd46c836a06233681665,64dc7e0fe78443ba51b5d4a3,,,,,,,decisionTrl,resources/DP.BMP,resources/DB.BMP,Door2,-0.336111111,0.035185185,1,0,0,0.3006,optionLeft,20,1460,1,33,0,33,0,1,,,,,,,,,,,,,,,,,,,,,,,,,,,,,,,,,,,,,,,
,,,,,,,,2023-08-16_08h43.20.808,HF_wild_card,2022.2.4,Win32,146.6705779,5de8d181a91be383f644bd8c,64d2fd46c836a06233681665,64dc7e0fe78443ba51b5d4a3,,,,,,,sngl,resources/DBN.BMP,resources/Empty.png,WildCard_Ex,-0.146296296,-0.055555556,1,0,0,0.6616,optionLeft,95,1555,1,34,0,34,0,1,,,,,,,,,,,,,,,,,,,,,,,,,,,,,,,,,,,,,,,
,,,,,,,,2023-08-16_08h43.20.808,HF_wild_card,2022.2.4,Win32,146.6705779,5de8d181a91be383f644bd8c,64d2fd46c836a06233681665,64dc7e0fe78443ba51b5d4a3,,,,,,,decisionTrl,resources/DB.BMP,resources/DP.BMP,Door2,0.374865736,-0.031686359,1,0,0,0.3796,optionRight,40,1595,1,35,0,35,0,1,,,,,,,,,,,,,,,,,,,,,,,,,,,,,,,,,,,,,,,
,,,,,,,,2023-08-16_08h43.20.808,HF_wild_card,2022.2.4,Win32,146.6705779,5de8d181a91be383f644bd8c,64d2fd46c836a06233681665,64dc7e0fe78443ba51b5d4a3,,,,,,,ctch,resources/DG.BMP,resources/DB.BMP,Door4,-0.262037037,0.033333333,1,0,0,0.316,optionLeft,80,1675,1,36,0,36,0,1,,,,,,,,,,,,,,,,,,,,,,,,,,,,,,,,,,,,,,,
,,,,,,,,2023-08-16_08h43.20.808,HF_wild_card,2022.2.4,Win32,146.6705779,5de8d181a91be383f644bd8c,64d2fd46c836a06233681665,64dc7e0fe78443ba51b5d4a3,,,,,,,sngl,resources/Empty.png,resources/DY.BMP,Door3,0.37037037,-0.07962963,1,0,0,0.3108,optionRight,70,1745,1,37,0,37,0,1,,,,,,,,,,,,,,,,,,,,,,,,,,,,,,,,,,,,,,,
,,,,,,,,2023-08-16_08h43.20.808,HF_wild_card,2022.2.4,Win32,146.6705779,5de8d181a91be383f644bd8c,64d2fd46c836a06233681665,64dc7e0fe78443ba51b5d4a3,,,,,,,decisionTrl,resources/DG.BMP,resources/DY.BMP,Door4,-0.153703704,-0.05,1,0,0,0.3029,optionLeft,60,1805,1,38,0,38,0,1,,,,,,,,,,,,,,,,,,,,,,,,,,,,,,,,,,,,,,,
,,,,,,,,2023-08-16_08h43.20.808,HF_wild_card,2022.2.4,Win32,146.6705779,5de8d181a91be383f644bd8c,64d2fd46c836a06233681665,64dc7e0fe78443ba51b5d4a3,,,,,,,sngl,resources/DG.BMP,resources/Empty.png,Door4,-0.153703704,-0.023148148,1,0,0,0.3665,optionLeft,80,1885,1,39,0,39,0,1,,,,,,,,,,,,,,,,,,,,,,,,,,,,,,,,,,,,,,,
,,,,,,,,2023-08-16_08h43.20.808,HF_wild_card,2022.2.4,Win32,146.6705779,5de8d181a91be383f644bd8c,64d2fd46c836a06233681665,64dc7e0fe78443ba51b5d4a3,,,,,,,decisionTrl,resources/DY.BMP,resources/DG.BMP,Door4,0.633333333,-0.087037037,1,0,0,0.3802,optionRight,60,1945,1,40,0,40,0,1,,,,,,,,,,,,,,,,,,,,,,,,,,,,,,,,,,,,,,,
,,,,,,,,2023-08-16_08h43.20.808,HF_wild_card,2022.2.4,Win32,146.6705779,5de8d181a91be383f644bd8c,64d2fd46c836a06233681665,64dc7e0fe78443ba51b5d4a3,,,,,,,decisionTrl,resources/DG.BMP,resources/DY.BMP,Door4,-0.275925926,-0.012962963,1,0,0,0.2911,optionLeft,60,2005,1,41,0,41,0,1,,,,,,,,,,,,,,,,,,,,,,,,,,,,,,,,,,,,,,,
,,,,,,,,2023-08-16_08h43.20.808,HF_wild_card,2022.2.4,Win32,146.6705779,5de8d181a91be383f644bd8c,64d2fd46c836a06233681665,64dc7e0fe78443ba51b5d4a3,,,,,,,ctch,resources/DB.BMP,resources/DG.BMP,Door4,0.274074074,-0.05462963,1,0,0,0.3686,optionRight,60,2065,1,42,0,42,0,1,,,,,,,,,,,,,,,,,,,,,,,,,,,,,,,,,,,,,,,
,,,,,,,,2023-08-16_08h43.20.808,HF_wild_card,2022.2.4,Win32,146.6705779,5de8d181a91be383f644bd8c,64d2fd46c836a06233681665,64dc7e0fe78443ba51b5d4a3,,,,,,,decisionTrl,resources/DP.BMP,resources/DB.BMP,Door2,-0.013888889,-0.012962963,1,0,0,0.1276,optionLeft,20,2085,1,43,0,43,0,1,,,,,,,,,,,,,,,,,,,,,,,,,,,,,,,,,,,,,,,
,,,,,,,,2023-08-16_08h43.20.808,HF_wild_card,2022.2.4,Win32,146.6705779,5de8d181a91be383f644bd8c,64d2fd46c836a06233681665,64dc7e0fe78443ba51b5d4a3,,,,,,,,,,,,,,,,,,,,,,,,,,0,0,0,0,1,,,,,,,,,,,,,,,,,,,,,,,,,,,,,,,,,,
,,,,,,,,2023-08-16_08h43.20.808,HF_wild_card,2022.2.4,Win32,146.6705779,5de8d181a91be383f644bd8c,64d2fd46c836a06233681665,64dc7e0fe78443ba51b5d4a3,,,,,,,sngl,resources/DY.BMP,resources/Empty.png,Door3,-0.198148148,-0.068518519,1,0,0,0.4687,optionLeft,70,2155,2,0,0,0,0,1,,,,,,,,,,,,,,,,,,,,,,,,,,,,,,,,,,,,,,,
,,,,,,,,2023-08-16_08h43.20.808,HF_wild_card,2022.2.4,Win32,146.6705779,5de8d181a91be383f644bd8c,64d2fd46c836a06233681665,64dc7e0fe78443ba51b5d4a3,,,,,,,decisionTrl,resources/DP.BMP,resources/DB.BMP,Door1,0.199074074,-0.027777778,1,0,0,0.2621,optionRight,30,2185,2,1,0,1,0,1,,,,,,,,,,,,,,,,,,,,,,,,,,,,,,,,,,,,,,,
,,,,,,,,2023-08-16_08h43.20.808,HF_wild_card,2022.2.4,Win32,146.6705779,5de8d181a91be383f644bd8c,64d2fd46c836a06233681665,64dc7e0fe78443ba51b5d4a3,,,,,,,decisionTrl,resources/DB.BMP,resources/DP.BMP,Door1,-0.312037037,0.023148148,1,0,0,0.3316,optionLeft,30,2215,2,2,0,2,0,1,,,,,,,,,,,,,,,,,,,,,,,,,,,,,,,,,,,,,,,
,,,,,,,,2023-08-16_08h43.20.808,HF_wild_card,2022.2.4,Win32,146.6705779,5de8d181a91be383f644bd8c,64d2fd46c836a06233681665,64dc7e0fe78443ba51b5d4a3,,,,,,,decisionTrl,resources/DB.BMP,resources/DP.BMP,Door2,0.213888889,-0.025,1,0,0,0.2138,optionRight,40,2255,2,3,0,3,0,1,,,,,,,,,,,,,,,,,,,,,,,,,,,,,,,,,,,,,,,
,,,,,,,,2023-08-16_08h43.20.808,HF_wild_card,2022.2.4,Win32,146.6705779,5de8d181a91be383f644bd8c,64d2fd46c836a06233681665,64dc7e0fe78443ba51b5d4a3,,,,,,,ctch,resources/DB.BMP,resources/DG.BMP,Door1,-0.260185185,-0.016666667,1,0,0,0.2555,optionLeft,30,2285,2,4,0,4,0,1,,,,,,,,,,,,,,,,,,,,,,,,,,,,,,,,,,,,,,,
,,,,,,,,2023-08-16_08h43.20.808,HF_wild_card,2022.2.4,Win32,146.6705779,5de8d181a91be383f644bd8c,64d2fd46c836a06233681665,64dc7e0fe78443ba51b5d4a3,,,,,,,decisionTrl,resources/DP.BMP,resources/DB.BMP,Door1,0.235185185,-0.047222222,1,0,0,0.206,optionRight,30,2315,2,5,0,5,0,1,,,,,,,,,,,,,,,,,,,,,,,,,,,,,,,,,,,,,,,
,,,,,,,,2023-08-16_08h43.20.808,HF_wild_card,2022.2.4,Win32,146.6705779,5de8d181a91be383f644bd8c,64d2fd46c836a06233681665,64dc7e0fe78443ba51b5d4a3,,,,,,,decisionTrl,resources/DBN.BMP,resources/DP.BMP,WildCard_Ex,-0.288888889,0.008333333,1,0,0,0.2612,optionLeft,5,2320,2,6,0,6,0,1,,,,,,,,,,,,,,,,,,,,,,,,,,,,,,,,,,,,,,,
,,,,,,,,2023-08-16_08h43.20.808,HF_wild_card,2022.2.4,Win32,146.6705779,5de8d181a91be383f644bd8c,64d2fd46c836a06233681665,64dc7e0fe78443ba51b5d4a3,,,,,,,decisionTrl,resources/DG.BMP,resources/DBN.BMP,Door4,-0.425,-0.034259259,1,0,0,0.3318,optionLeft,60,2380,2,7,0,7,0,1,,,,,,,,,,,,,,,,,,,,,,,,,,,,,,,,,,,,,,,
,,,,,,,,2023-08-16_08h43.20.808,HF_wild_card,2022.2.4,Win32,146.6705779,5de8d181a91be383f644bd8c,64d2fd46c836a06233681665,64dc7e0fe78443ba51b5d4a3,,,,,,,sngl,resources/DP.BMP,resources/Empty.png,Door2,-0.228703704,0.000925926,1,0,0,0.3458,optionLeft,20,2400,2,8,0,8,0,1,,,,,,,,,,,,,,,,,,,,,,,,,,,,,,,,,,,,,,,
,,,,,,,,2023-08-16_08h43.20.808,HF_wild_card,2022.2.4,Win32,146.6705779,5de8d181a91be383f644bd8c,64d2fd46c836a06233681665,64dc7e0fe78443ba51b5d4a3,,,,,,,decisionTrl,resources/DY.BMP,resources/DG.BMP,Door4,0.255555556,-0.039814815,1,0,0,0.3165,optionRight,60,2460,2,9,0,9,0,1,,,,,,,,,,,,,,,,,,,,,,,,,,,,,,,,,,,,,,,
,,,,,,,,2023-08-16_08h43.20.808,HF_wild_card,2022.2.4,Win32,146.6705779,5de8d181a91be383f644bd8c,64d2fd46c836a06233681665,64dc7e0fe78443ba51b5d4a3,,,,,,,decisionTrl,resources/DG.BMP,resources/DY.BMP,Door4,-0.25462963,-0.019444444,1,0,0,0.408,optionLeft,80,2540,2,10,0,10,0,1,,,,,,,,,,,,,,,,,,,,,,,,,,,,,,,,,,,,,,,
,,,,,,,,2023-08-16_08h43.20.808,HF_wild_card,2022.2.4,Win32,146.6705779,5de8d181a91be383f644bd8c,64d2fd46c836a06233681665,64dc7e0fe78443ba51b5d4a3,,,,,,,ctch,resources/DB.BMP,resources/DG.BMP,Door4,0.152777778,-0.039814815,1,0,0,0.1998,optionRight,60,2600,2,11,0,11,0,1,,,,,,,,,,,,,,,,,,,,,,,,,,,,,,,,,,,,,,,
,,,,,,,,2023-08-16_08h43.20.808,HF_wild_card,2022.2.4,Win32,146.6705779,5de8d181a91be383f644bd8c,64d2fd46c836a06233681665,64dc7e0fe78443ba51b5d4a3,,,,,,,decisionTrl,resources/DY.BMP,resources/DG.BMP,Door4,0.169444444,-0.022222222,1,0,0,0.1995,optionRight,80,2680,2,12,0,12,0,1,,,,,,,,,,,,,,,,,,,,,,,,,,,,,,,,,,,,,,,
,,,,,,,,2023-08-16_08h43.20.808,HF_wild_card,2022.2.4,Win32,146.6705779,5de8d181a91be383f644bd8c,64d2fd46c836a06233681665,64dc7e0fe78443ba51b5d4a3,,,,,,,sngl,resources/DB.BMP,resources/Empty.png,Door1,-0.257407407,-0.008333333,1,0,0,0.3178,optionLeft,30,2710,2,13,0,13,0,1,,,,,,,,,,,,,,,,,,,,,,,,,,,,,,,,,,,,,,,
,,,,,,,,2023-08-16_08h43.20.808,HF_wild_card,2022.2.4,Win32,146.6705779,5de8d181a91be383f644bd8c,64d2fd46c836a06233681665,64dc7e0fe78443ba51b5d4a3,,,,,,,sngl,resources/DBN.BMP,resources/Empty.png,WildCard_Ex,-0.242592593,-0.013888889,1,0,0,0.3597,optionLeft,5,2715,2,14,0,14,0,1,,,,,,,,,,,,,,,,,,,,,,,,,,,,,,,,,,,,,,,
,,,,,,,,2023-08-16_08h43.20.808,HF_wild_card,2022.2.4,Win32,146.6705779,5de8d181a91be383f644bd8c,64d2fd46c836a06233681665,64dc7e0fe78443ba51b5d4a3,,,,,,,decisionTrl,resources/DG.BMP,resources/DY.BMP,Door4,-0.168518519,-0.048148148,1,0,0,0.4427,optionLeft,80,2795,2,15,0,15,0,1,,,,,,,,,,,,,,,,,,,,,,,,,,,,,,,,,,,,,,,
,,,,,,,,2023-08-16_08h43.20.808,HF_wild_card,2022.2.4,Win32,146.6705779,5de8d181a91be383f644bd8c,64d2fd46c836a06233681665,64dc7e0fe78443ba51b5d4a3,,,,,,,decisionTrl,resources/DBN.BMP,resources/DG.BMP,Door4,0.209259259,-0.014814815,1,0,0,0.3111,optionRight,60,2855,2,16,0,16,0,1,,,,,,,,,,,,,,,,,,,,,,,,,,,,,,,,,,,,,,,
,,,,,,,,2023-08-16_08h43.20.808,HF_wild_card,2022.2.4,Win32,146.6705779,5de8d181a91be383f644bd8c,64d2fd46c836a06233681665,64dc7e0fe78443ba51b5d4a3,,,,,,,sngl,resources/Empty.png,resources/DBN.BMP,WildCard_Ex,0.237962963,-0.038888889,1,0,0,0.3996,optionRight,5,2860,2,17,0,17,0,1,,,,,,,,,,,,,,,,,,,,,,,,,,,,,,,,,,,,,,,
,,,,,,,,2023-08-16_08h43.20.808,HF_wild_card,2022.2.4,Win32,146.6705779,5de8d181a91be383f644bd8c,64d2fd46c836a06233681665,64dc7e0fe78443ba51b5d4a3,,,,,,,sngl,resources/Empty.png,resources/DY.BMP,Door3,0.191666667,-0.008333333,1,0,0,0.4223,optionRight,70,2930,2,18,0,18,0,1,,,,,,,,,,,,,,,,,,,,,,,,,,,,,,,,,,,,,,,
,,,,,,,,2023-08-16_08h43.20.808,HF_wild_card,2022.2.4,Win32,146.6705779,5de8d181a91be383f644bd8c,64d2fd46c836a06233681665,64dc7e0fe78443ba51b5d4a3,,,,,,,sngl,resources/DBN.BMP,resources/Empty.png,WildCard_Ex,-0.22037037,-0.00462963,1,0,0,0.3525,optionLeft,95,3025,2,19,0,19,0,1,,,,,,,,,,,,,,,,,,,,,,,,,,,,,,,,,,,,,,,
,,,,,,,,2023-08-16_08h43.20.808,HF_wild_card,2022.2.4,Win32,146.6705779,5de8d181a91be383f644bd8c,64d2fd46c836a06233681665,64dc7e0fe78443ba51b5d4a3,,,,,,,decisionTrl,resources/DB.BMP,resources/DBN.BMP,WildCard_Ex,0.230555556,-0.087962963,1,0,0,0.4907,optionRight,95,3120,2,20,0,20,0,1,,,,,,,,,,,,,,,,,,,,,,,,,,,,,,,,,,,,,,,
,,,,,,,,2023-08-16_08h43.20.808,HF_wild_card,2022.2.4,Win32,146.6705779,5de8d181a91be383f644bd8c,64d2fd46c836a06233681665,64dc7e0fe78443ba51b5d4a3,,,,,,,ctch,resources/DY.BMP,resources/DP.BMP,Door2,0.19537037,-0.066666667,1,0,0,0.803,optionRight,40,3160,2,21,0,21,0,1,,,,,,,,,,,,,,,,,,,,,,,,,,,,,,,,,,,,,,,
,,,,,,,,2023-08-16_08h43.20.808,HF_wild_card,2022.2.4,Win32,146.6705779,5de8d181a91be383f644bd8c,64d2fd46c836a06233681665,64dc7e0fe78443ba51b5d4a3,,,,,,,decisionTrl,resources/DB.BMP,resources/DP.BMP,Door2,0.190740741,-0.07037037,1,0,0,0.4568,optionRight,20,3180,2,22,0,22,0,1,,,,,,,,,,,,,,,,,,,,,,,,,,,,,,,,,,,,,,,
,,,,,,,,2023-08-16_08h43.20.808,HF_wild_card,2022.2.4,Win32,146.6705779,5de8d181a91be383f644bd8c,64d2fd46c836a06233681665,64dc7e0fe78443ba51b5d4a3,,,,,,,decisionTrl,resources/DBN.BMP,resources/DY.BMP,WildCard_Ex,-0.173148148,-0.086111111,1,0,0,0.9639,optionLeft,5,3185,2,23,0,23,0,1,,,,,,,,,,,,,,,,,,,,,,,,,,,,,,,,,,,,,,,
,,,,,,,,2023-08-16_08h43.20.808,HF_wild_card,2022.2.4,Win32,146.6705779,5de8d181a91be383f644bd8c,64d2fd46c836a06233681665,64dc7e0fe78443ba51b5d4a3,,,,,,,ctch,resources/DY.BMP,resources/DP.BMP,Door3,-0.187037037,-0.061111111,1,0,0,0.4221,optionLeft,70,3255,2,24,0,24,0,1,,,,,,,,,,,,,,,,,,,,,,,,,,,,,,,,,,,,,,,
,,,,,,,,2023-08-16_08h43.20.808,HF_wild_card,2022.2.4,Win32,146.6705779,5de8d181a91be383f644bd8c,64d2fd46c836a06233681665,64dc7e0fe78443ba51b5d4a3,,,,,,,sngl,resources/Empty.png,resources/DB.BMP,Door1,0.312962963,-0.089814815,1,0,0,0.3804,optionRight,30,3285,2,25,0,25,0,1,,,,,,,,,,,,,,,,,,,,,,,,,,,,,,,,,,,,,,,
,,,,,,,,2023-08-16_08h43.20.808,HF_wild_card,2022.2.4,Win32,146.6705779,5de8d181a91be383f644bd8c,64d2fd46c836a06233681665,64dc7e0fe78443ba51b5d4a3,,,,,,,ctch,resources/DP.BMP,resources/DY.BMP,Door3,0.158333333,-0.076851852,1,0,0,0.651,optionRight,70,3355,2,26,0,26,0,1,,,,,,,,,,,,,,,,,,,,,,,,,,,,,,,,,,,,,,,
,,,,,,,,2023-08-16_08h43.20.808,HF_wild_card,2022.2.4,Win32,146.6705779,5de8d181a91be383f644bd8c,64d2fd46c836a06233681665,64dc7e0fe78443ba51b5d4a3,,,,,,,sngl,resources/Empty.png,resources/DP.BMP,Door2,0.262037037,-0.074074074,1,0,0,0.3666,optionRight,40,3395,2,27,0,27,0,1,,,,,,,,,,,,,,,,,,,,,,,,,,,,,,,,,,,,,,,
,,,,,,,,2023-08-16_08h43.20.808,HF_wild_card,2022.2.4,Win32,146.6705779,5de8d181a91be383f644bd8c,64d2fd46c836a06233681665,64dc7e0fe78443ba51b5d4a3,,,,,,,decisionTrl,resources/DP.BMP,resources/DB.BMP,Door2,-0.233333333,-0.021296296,1,0,0,0.5193,optionLeft,40,3435,2,28,0,28,0,1,,,,,,,,,,,,,,,,,,,,,,,,,,,,,,,,,,,,,,,
,,,,,,,,2023-08-16_08h43.20.808,HF_wild_card,2022.2.4,Win32,146.6705779,5de8d181a91be383f644bd8c,64d2fd46c836a06233681665,64dc7e0fe78443ba51b5d4a3,,,,,,,decisionTrl,resources/DG.BMP,resources/DY.BMP,Door3,0.27962963,-0.031481481,1,0,0,0.3352,optionRight,70,3505,2,29,0,29,0,1,,,,,,,,,,,,,,,,,,,,,,,,,,,,,,,,,,,,,,,
,,,,,,,,2023-08-16_08h43.20.808,HF_wild_card,2022.2.4,Win32,146.6705779,5de8d181a91be383f644bd8c,64d2fd46c836a06233681665,64dc7e0fe78443ba51b5d4a3,,,,,,,sngl,resources/Empty.png,resources/DBN.BMP,WildCard_Ex,0.301851852,-0.049074074,1,0,0,0.349,optionRight,95,3600,2,30,0,30,0,1,,,,,,,,,,,,,,,,,,,,,,,,,,,,,,,,,,,,,,,
,,,,,,,,2023-08-16_08h43.20.808,HF_wild_card,2022.2.4,Win32,146.6705779,5de8d181a91be383f644bd8c,64d2fd46c836a06233681665,64dc7e0fe78443ba51b5d4a3,,,,,,,decisionTrl,resources/DY.BMP,resources/DG.BMP,Door4,0.371296296,-0.09537037,1,0,0,0.2793,optionRight,80,3680,2,31,0,31,0,1,,,,,,,,,,,,,,,,,,,,,,,,,,,,,,,,,,,,,,,
,,,,,,,,2023-08-16_08h43.20.808,HF_wild_card,2022.2.4,Win32,146.6705779,5de8d181a91be383f644bd8c,64d2fd46c836a06233681665,64dc7e0fe78443ba51b5d4a3,,,,,,,decisionTrl,resources/DP.BMP,resources/DBN.BMP,Door2,-0.180555556,-0.006481481,1,0,0,0.2555,optionLeft,20,3700,2,32,0,32,0,1,,,,,,,,,,,,,,,,,,,,,,,,,,,,,,,,,,,,,,,
,,,,,,,,2023-08-16_08h43.20.808,HF_wild_card,2022.2.4,Win32,146.6705779,5de8d181a91be383f644bd8c,64d2fd46c836a06233681665,64dc7e0fe78443ba51b5d4a3,,,,,,,sngl,resources/DG.BMP,resources/Empty.png,Door4,0.322222222,-0.101851852,1,0,0,0.2278,optionLeft,60,3760,2,33,0,33,0,1,,,,,,,,,,,,,,,,,,,,,,,,,,,,,,,,,,,,,,,
,,,,,,,,2023-08-16_08h43.20.808,HF_wild_card,2022.2.4,Win32,146.6705779,5de8d181a91be383f644bd8c,64d2fd46c836a06233681665,64dc7e0fe78443ba51b5d4a3,,,,,,,ctch,resources/DG.BMP,resources/DB.BMP,Door1,0.167592593,-0.066666667,1,0,0,0.2386,optionRight,30,3790,2,34,0,34,0,1,,,,,,,,,,,,,,,,,,,,,,,,,,,,,,,,,,,,,,,
,,,,,,,,2023-08-16_08h43.20.808,HF_wild_card,2022.2.4,Win32,146.6705779,5de8d181a91be383f644bd8c,64d2fd46c836a06233681665,64dc7e0fe78443ba51b5d4a3,,,,,,,ctch,resources/DG.BMP,resources/DB.BMP,Door4,-0.146296296,-0.001851852,1,0,0,0.2451,optionLeft,80,3870,2,35,0,35,0,1,,,,,,,,,,,,,,,,,,,,,,,,,,,,,,,,,,,,,,,
,,,,,,,,2023-08-16_08h43.20.808,HF_wild_card,2022.2.4,Win32,146.6705779,5de8d181a91be383f644bd8c,64d2fd46c836a06233681665,64dc7e0fe78443ba51b5d4a3,,,,,,,ctch,resources/DP.BMP,resources/DY.BMP,Door3,0.236111111,-0.078703704,1,0,0,0.2532,optionRight,70,3940,2,36,0,36,0,1,,,,,,,,,,,,,,,,,,,,,,,,,,,,,,,,,,,,,,,
,,,,,,,,2023-08-16_08h43.20.808,HF_wild_card,2022.2.4,Win32,146.6705779,5de8d181a91be383f644bd8c,64d2fd46c836a06233681665,64dc7e0fe78443ba51b5d4a3,,,,,,,sngl,resources/Empty.png,resources/DG.BMP,Door4,0.293518519,-0.058333333,1,0,0,0.425,optionRight,80,4020,2,37,0,37,0,1,,,,,,,,,,,,,,,,,,,,,,,,,,,,,,,,,,,,,,,
,,,,,,,,2023-08-16_08h43.20.808,HF_wild_card,2022.2.4,Win32,146.6705779,5de8d181a91be383f644bd8c,64d2fd46c836a06233681665,64dc7e0fe78443ba51b5d4a3,,,,,,,decisionTrl,resources/DY.BMP,resources/DBN.BMP,WildCard_Ex,0.225,-0.043518519,1,0,0,0.3529,optionRight,95,4115,2,38,0,38,0,1,,,,,,,,,,,,,,,,,,,,,,,,,,,,,,,,,,,,,,,
,,,,,,,,2023-08-16_08h43.20.808,HF_wild_card,2022.2.4,Win32,146.6705779,5de8d181a91be383f644bd8c,64d2fd46c836a06233681665,64dc7e0fe78443ba51b5d4a3,,,,,,,decisionTrl,resources/DY.BMP,resources/DG.BMP,Door3,-0.131481481,-0.034259259,1,0,0,0.4084,optionLeft,70,4185,2,39,0,39,0,1,,,,,,,,,,,,,,,,,,,,,,,,,,,,,,,,,,,,,,,
,,,,,,,,2023-08-16_08h43.20.808,HF_wild_card,2022.2.4,Win32,146.6705779,5de8d181a91be383f644bd8c,64d2fd46c836a06233681665,64dc7e0fe78443ba51b5d4a3,,,,,,,decisionTrl,resources/DBN.BMP,resources/DB.BMP,Door1,0.298148148,-0.087962963,1,0,0,0.2592,optionRight,30,4215,2,40,0,40,0,1,,,,,,,,,,,,,,,,,,,,,,,,,,,,,,,,,,,,,,,
,,,,,,,,2023-08-16_08h43.20.808,HF_wild_card,2022.2.4,Win32,146.6705779,5de8d181a91be383f644bd8c,64d2fd46c836a06233681665,64dc7e0fe78443ba51b5d4a3,,,,,,,decisionTrl,resources/DG.BMP,resources/DY.BMP,Door4,-0.125925926,-0.02962963,1,0,0,0.3554,optionLeft,60,4275,2,41,0,41,0,1,,,,,,,,,,,,,,,,,,,,,,,,,,,,,,,,,,,,,,,
,,,,,,,,2023-08-16_08h43.20.808,HF_wild_card,2022.2.4,Win32,146.6705779,5de8d181a91be383f644bd8c,64d2fd46c836a06233681665,64dc7e0fe78443ba51b5d4a3,,,,,,,decisionTrl,resources/DP.BMP,resources/DB.BMP,Door1,0.262037037,-0.07037037,1,0,0,0.2762,optionRight,30,4305,2,42,0,42,0,1,,,,,,,,,,,,,,,,,,,,,,,,,,,,,,,,,,,,,,,
,,,,,,,,2023-08-16_08h43.20.808,HF_wild_card,2022.2.4,Win32,146.6705779,5de8d181a91be383f644bd8c,64d2fd46c836a06233681665,64dc7e0fe78443ba51b5d4a3,,,,,,,decisionTrl,resources/DB.BMP,resources/DP.BMP,Door1,-0.108333333,-0.036111111,1,0,0,0.3872,optionLeft,30,4335,2,43,0,43,0,1,,,,,,,,,,,,,,,,,,,,,,,,,,,,,,,,,,,,,,,
,,,,,,,,2023-08-16_08h43.20.808,HF_wild_card,2022.2.4,Win32,146.6705779,5de8d181a91be383f644bd8c,64d2fd46c836a06233681665,64dc7e0fe78443ba51b5d4a3,,,,,,,,,,,,,,,,,,,,,,,,,,1,0,1,0,1,,,,,,,,,,,,,,,,,,,,,,,,,,,,,,,,,,
,,,,,,,,2023-08-16_08h43.20.808,HF_wild_card,2022.2.4,Win32,146.6705779,5de8d181a91be383f644bd8c,64d2fd46c836a06233681665,64dc7e0fe78443ba51b5d4a3,,,,,,,sngl,resources/DP.BMP,resources/Empty.png,Door2,0.021296296,-0.075925926,1,0,0,0.4032,optionLeft,40,4375,3,0,0,0,0,1,,,,,,,,,,,,,,,,,,,,,,,,,,,,,,,,,,,,,,,
,,,,,,,,2023-08-16_08h43.20.808,HF_wild_card,2022.2.4,Win32,146.6705779,5de8d181a91be383f644bd8c,64d2fd46c836a06233681665,64dc7e0fe78443ba51b5d4a3,,,,,,,ctch,resources/DP.BMP,resources/DY.BMP,Door3,0.317592593,-0.025925926,1,0,0,0.2733,optionRight,70,4445,3,1,0,1,0,1,,,,,,,,,,,,,,,,,,,,,,,,,,,,,,,,,,,,,,,
,,,,,,,,2023-08-16_08h43.20.808,HF_wild_card,2022.2.4,Win32,146.6705779,5de8d181a91be383f644bd8c,64d2fd46c836a06233681665,64dc7e0fe78443ba51b5d4a3,,,,,,,sngl,resources/DG.BMP,resources/Empty.png,Door4,-0.212037037,-0.025,1,0,0,0.3011,optionLeft,80,4525,3,2,0,2,0,1,,,,,,,,,,,,,,,,,,,,,,,,,,,,,,,,,,,,,,,
,,,,,,,,2023-08-16_08h43.20.808,HF_wild_card,2022.2.4,Win32,146.6705779,5de8d181a91be383f644bd8c,64d2fd46c836a06233681665,64dc7e0fe78443ba51b5d4a3,,,,,,,decisionTrl,resources/DBN.BMP,resources/DY.BMP,Door3,0.181481481,-0.04537037,1,0,0,0.2987,optionRight,70,4595,3,3,0,3,0,1,,,,,,,,,,,,,,,,,,,,,,,,,,,,,,,,,,,,,,,
,,,,,,,,2023-08-16_08h43.20.808,HF_wild_card,2022.2.4,Win32,146.6705779,5de8d181a91be383f644bd8c,64d2fd46c836a06233681665,64dc7e0fe78443ba51b5d4a3,,,,,,,sngl,resources/Empty.png,resources/DBN.BMP,WildCard_Ex,0.303703704,-0.038888889,1,0,0,0.5053,optionRight,5,4600,3,4,0,4,0,1,,,,,,,,,,,,,,,,,,,,,,,,,,,,,,,,,,,,,,,
,,,,,,,,2023-08-16_08h43.20.808,HF_wild_card,2022.2.4,Win32,146.6705779,5de8d181a91be383f644bd8c,64d2fd46c836a06233681665,64dc7e0fe78443ba51b5d4a3,,,,,,,decisionTrl,resources/DG.BMP,resources/DY.BMP,Door4,-0.222222222,-0.017592593,1,0,0,0.2913,optionLeft,60,4660,3,5,0,5,0,1,,,,,,,,,,,,,,,,,,,,,,,,,,,,,,,,,,,,,,,
,,,,,,,,2023-08-16_08h43.20.808,HF_wild_card,2022.2.4,Win32,146.6705779,5de8d181a91be383f644bd8c,64d2fd46c836a06233681665,64dc7e0fe78443ba51b5d4a3,,,,,,,ctch,resources/DY.BMP,resources/DP.BMP,Door2,0.249074074,-0.050925926,1,0,0,0.251,optionRight,40,4700,3,6,0,6,0,1,,,,,,,,,,,,,,,,,,,,,,,,,,,,,,,,,,,,,,,
,,,,,,,,2023-08-16_08h43.20.808,HF_wild_card,2022.2.4,Win32,146.6705779,5de8d181a91be383f644bd8c,64d2fd46c836a06233681665,64dc7e0fe78443ba51b5d4a3,,,,,,,decisionTrl,resources/DB.BMP,resources/DP.BMP,Door2,0.32962963,-0.022222222,1,0,0,0.4741,optionRight,20,4720,3,7,0,7,0,1,,,,,,,,,,,,,,,,,,,,,,,,,,,,,,,,,,,,,,,
,,,,,,,,2023-08-16_08h43.20.808,HF_wild_card,2022.2.4,Win32,146.6705779,5de8d181a91be383f644bd8c,64d2fd46c836a06233681665,64dc7e0fe78443ba51b5d4a3,,,,,,,decisionTrl,resources/DY.BMP,resources/DG.BMP,Door3,-0.275,-0.018518519,1,0,0,0.2585,optionLeft,70,4790,3,8,0,8,0,1,,,,,,,,,,,,,,,,,,,,,,,,,,,,,,,,,,,,,,,
,,,,,,,,2023-08-16_08h43.20.808,HF_wild_card,2022.2.4,Win32,146.6705779,5de8d181a91be383f644bd8c,64d2fd46c836a06233681665,64dc7e0fe78443ba51b5d4a3,,,,,,,decisionTrl,resources/DG.BMP,resources/DY.BMP,Door4,-0.20462963,-0.008333333,1,0,0,0.2971,optionLeft,80,4870,3,9,0,9,0,1,,,,,,,,,,,,,,,,,,,,,,,,,,,,,,,,,,,,,,,
,,,,,,,,2023-08-16_08h43.20.808,HF_wild_card,2022.2.4,Win32,146.6705779,5de8d181a91be383f644bd8c,64d2fd46c836a06233681665,64dc7e0fe78443ba51b5d4a3,,,,,,,sngl,resources/DY.BMP,resources/Empty.png,Door3,-0.373148148,-0.072222222,1,0,0,0.4423,optionLeft,70,4940,3,10,0,10,0,1,,,,,,,,,,,,,,,,,,,,,,,,,,,,,,,,,,,,,,,
,,,,,,,,2023-08-16_08h43.20.808,HF_wild_card,2022.2.4,Win32,146.6705779,5de8d181a91be383f644bd8c,64d2fd46c836a06233681665,64dc7e0fe78443ba51b5d4a3,,,,,,,decisionTrl,resources/DG.BMP,resources/DBN.BMP,WildCard_Ex,0.268518519,-0.019444444,1,0,0,0.321,optionRight,95,5035,3,11,0,11,0,1,,,,,,,,,,,,,,,,,,,,,,,,,,,,,,,,,,,,,,,
,,,,,,,,2023-08-16_08h43.20.808,HF_wild_card,2022.2.4,Win32,146.6705779,5de8d181a91be383f644bd8c,64d2fd46c836a06233681665,64dc7e0fe78443ba51b5d4a3,,,,,,,sngl,resources/Empty.png,resources/DY.BMP,Door3,0.286111111,-0.028703704,1,0,0,0.3833,optionRight,70,5105,3,12,0,12,0,1,,,,,,,,,,,,,,,,,,,,,,,,,,,,,,,,,,,,,,,
,,,,,,,,2023-08-16_08h43.20.808,HF_wild_card,2022.2.4,Win32,146.6705779,5de8d181a91be383f644bd8c,64d2fd46c836a06233681665,64dc7e0fe78443ba51b5d4a3,,,,,,,ctch,resources/DB.BMP,resources/DG.BMP,Door1,-0.203703704,-0.010185185,1,0,0,0.3139,optionLeft,30,5135,3,13,0,13,0,1,,,,,,,,,,,,,,,,,,,,,,,,,,,,,,,,,,,,,,,
,,,,,,,,2023-08-16_08h43.20.808,HF_wild_card,2022.2.4,Win32,146.6705779,5de8d181a91be383f644bd8c,64d2fd46c836a06233681665,64dc7e0fe78443ba51b5d4a3,,,,,,,ctch,resources/DG.BMP,resources/DB.BMP,Door1,0.156481481,-0.041666667,1,0,0,0.2295,optionRight,30,5165,3,14,0,14,0,1,,,,,,,,,,,,,,,,,,,,,,,,,,,,,,,,,,,,,,,
,,,,,,,,2023-08-16_08h43.20.808,HF_wild_card,2022.2.4,Win32,146.6705779,5de8d181a91be383f644bd8c,64d2fd46c836a06233681665,64dc7e0fe78443ba51b5d4a3,,,,,,,ctch,resources/DB.BMP,resources/DG.BMP,Door1,-0.269444444,-0.042592593,1,0,0,0.2514,optionLeft,30,5195,3,15,0,15,0,1,,,,,,,,,,,,,,,,,,,,,,,,,,,,,,,,,,,,,,,
,,,,,,,,2023-08-16_08h43.20.808,HF_wild_card,2022.2.4,Win32,146.6705779,5de8d181a91be383f644bd8c,64d2fd46c836a06233681665,64dc7e0fe78443ba51b5d4a3,,,,,,,decisionTrl,resources/DG.BMP,resources/DY.BMP,Door3,0.17962963,0.044444444,1,0,0,1.947,optionRight,70,5265,3,16,0,16,0,1,,,,,,,,,,,,,,,,,,,,,,,,,,,,,,,,,,,,,,,
,,,,,,,,2023-08-16_08h43.20.808,HF_wild_card,2022.2.4,Win32,146.6705779,5de8d181a91be383f644bd8c,64d2fd46c836a06233681665,64dc7e0fe78443ba51b5d4a3,,,,,,,decisionTrl,resources/DP.BMP,resources/DBN.BMP,Door2,-0.24537037,-0.027777778,1,0,0,0.2692,optionLeft,20,5285,3,17,0,17,0,1,,,,,,,,,,,,,,,,,,,,,,,,,,,,,,,,,,,,,,,
,,,,,,,,2023-08-16_08h43.20.808,HF_wild_card,2022.2.4,Win32,146.6705779,5de8d181a91be383f644bd8c,64d2fd46c836a06233681665,64dc7e0fe78443ba51b5d4a3,,,,,,,sngl,resources/Empty.png,resources/DG.BMP,Door4,0.412962963,-0.025,1,0,0,0.2832,optionRight,60,5345,3,18,0,18,0,1,,,,,,,,,,,,,,,,,,,,,,,,,,,,,,,,,,,,,,,
,,,,,,,,2023-08-16_08h43.20.808,HF_wild_card,2022.2.4,Win32,146.6705779,5de8d181a91be383f644bd8c,64d2fd46c836a06233681665,64dc7e0fe78443ba51b5d4a3,,,,,,,sngl,resources/Empty.png,resources/DP.BMP,Door2,0.093518519,-0.012037037,1,0,0,0.3766,optionRight,20,5365,3,19,0,19,0,1,,,,,,,,,,,,,,,,,,,,,,,,,,,,,,,,,,,,,,,
,,,,,,,,2023-08-16_08h43.20.808,HF_wild_card,2022.2.4,Win32,146.6705779,5de8d181a91be383f644bd8c,64d2fd46c836a06233681665,64dc7e0fe78443ba51b5d4a3,,,,,,,decisionTrl,resources/DB.BMP,resources/DP.BMP,Door1,-0.119444444,0.008333333,1,0,0,0.337,optionLeft,30,5395,3,20,0,20,0,1,,,,,,,,,,,,,,,,,,,,,,,,,,,,,,,,,,,,,,,
,,,,,,,,2023-08-16_08h43.20.808,HF_wild_card,2022.2.4,Win32,146.6705779,5de8d181a91be383f644bd8c,64d2fd46c836a06233681665,64dc7e0fe78443ba51b5d4a3,,,,,,,decisionTrl,resources/DY.BMP,resources/DG.BMP,Door4,0.280555556,-0.027777778,1,0,0,0.2453,optionRight,60,5455,3,21,0,21,0,1,,,,,,,,,,,,,,,,,,,,,,,,,,,,,,,,,,,,,,,
,,,,,,,,2023-08-16_08h43.20.808,HF_wild_card,2022.2.4,Win32,146.6705779,5de8d181a91be383f644bd8c,64d2fd46c836a06233681665,64dc7e0fe78443ba51b5d4a3,,,,,,,sngl,resources/DBN.BMP,resources/Empty.png,WildCard_Ex,-0.237037037,-0.025925926,1,0,0,0.4176,optionLeft,5,5460,3,22,0,22,0,1,,,,,,,,,,,,,,,,,,,,,,,,,,,,,,,,,,,,,,,
,,,,,,,,2023-08-16_08h43.20.808,HF_wild_card,2022.2.4,Win32,146.6705779,5de8d181a91be383f644bd8c,64d2fd46c836a06233681665,64dc7e0fe78443ba51b5d4a3,,,,,,,decisionTrl,resources/DP.BMP,resources/DB.BMP,Door1,0.237962963,-0.027777778,1,0,0,0.3142,optionRight,30,5490,3,23,0,23,0,1,,,,,,,,,,,,,,,,,,,,,,,,,,,,,,,,,,,,,,,
,,,,,,,,2023-08-16_08h43.20.808,HF_wild_card,2022.2.4,Win32,146.6705779,5de8d181a91be383f644bd8c,64d2fd46c836a06233681665,64dc7e0fe78443ba51b5d4a3,,,,,,,decisionTrl,resources/DB.BMP,resources/DP.BMP,Door1,-0.183333333,0.028703704,1,0,0,0.2692,optionLeft,30,5520,3,24,0,24,0,1,,,,,,,,,,,,,,,,,,,,,,,,,,,,,,,,,,,,,,,
,,,,,,,,2023-08-16_08h43.20.808,HF_wild_card,2022.2.4,Win32,146.6705779,5de8d181a91be383f644bd8c,64d2fd46c836a06233681665,64dc7e0fe78443ba51b5d4a3,,,,,,,ctch,resources/DG.BMP,resources/DB.BMP,Door1,0.2,-0.013888889,1,0,0,0.2899,optionRight,30,5550,3,25,0,25,0,1,,,,,,,,,,,,,,,,,,,,,,,,,,,,,,,,,,,,,,,
,,,,,,,,2023-08-16_08h43.20.808,HF_wild_card,2022.2.4,Win32,146.6705779,5de8d181a91be383f644bd8c,64d2fd46c836a06233681665,64dc7e0fe78443ba51b5d4a3,,,,,,,decisionTrl,resources/DY.BMP,resources/DG.BMP,Door3,-0.189814815,-0.023148148,1,0,0,0.2379,optionLeft,70,5620,3,26,0,26,0,1,,,,,,,,,,,,,,,,,,,,,,,,,,,,,,,,,,,,,,,
,,,,,,,,2023-08-16_08h43.20.808,HF_wild_card,2022.2.4,Win32,146.6705779,5de8d181a91be383f644bd8c,64d2fd46c836a06233681665,64dc7e0fe78443ba51b5d4a3,,,,,,,decisionTrl,resources/DP.BMP,resources/DB.BMP,Door1,0.137037037,-0.02037037,1,0,0,0.3333,optionRight,30,5650,3,27,0,27,0,1,,,,,,,,,,,,,,,,,,,,,,,,,,,,,,,,,,,,,,,
,,,,,,,,2023-08-16_08h43.20.808,HF_wild_card,2022.2.4,Win32,146.6705779,5de8d181a91be383f644bd8c,64d2fd46c836a06233681665,64dc7e0fe78443ba51b5d4a3,,,,,,,decisionTrl,resources/DB.BMP,resources/DBN.BMP,Door1,-0.224074074,-0.030555556,1,0,0,0.3408,optionLeft,30,5680,3,28,0,28,0,1,,,,,,,,,,,,,,,,,,,,,,,,,,,,,,,,,,,,,,,
,,,,,,,,2023-08-16_08h43.20.808,HF_wild_card,2022.2.4,Win32,146.6705779,5de8d181a91be383f644bd8c,64d2fd46c836a06233681665,64dc7e0fe78443ba51b5d4a3,,,,,,,decisionTrl,resources/DY.BMP,resources/DG.BMP,Door4,0.165740741,-0.016666667,1,0,0,0.235,optionRight,80,5760,3,29,0,29,0,1,,,,,,,,,,,,,,,,,,,,,,,,,,,,,,,,,,,,,,,
,,,,,,,,2023-08-16_08h43.20.808,HF_wild_card,2022.2.4,Win32,146.6705779,5de8d181a91be383f644bd8c,64d2fd46c836a06233681665,64dc7e0fe78443ba51b5d4a3,,,,,,,decisionTrl,resources/DBN.BMP,resources/DB.BMP,WildCard_Ex,-0.12962963,-0.025925926,1,0,0,0.3248,optionLeft,95,5855,3,30,0,30,0,1,,,,,,,,,,,,,,,,,,,,,,,,,,,,,,,,,,,,,,,
,,,,,,,,2023-08-16_08h43.20.808,HF_wild_card,2022.2.4,Win32,146.6705779,5de8d181a91be383f644bd8c,64d2fd46c836a06233681665,64dc7e0fe78443ba51b5d4a3,,,,,,,decisionTrl,resources/DP.BMP,resources/DB.BMP,Door2,-0.139814815,-0.02962963,1,0,0,0.5051,optionLeft,20,5875,3,31,0,31,0,1,,,,,,,,,,,,,,,,,,,,,,,,,,,,,,,,,,,,,,,
,,,,,,,,2023-08-16_08h43.20.808,HF_wild_card,2022.2.4,Win32,146.6705779,5de8d181a91be383f644bd8c,64d2fd46c836a06233681665,64dc7e0fe78443ba51b5d4a3,,,,,,,decisionTrl,resources/DB.BMP,resources/DP.BMP,Door1,-0.227777778,-0.011111111,1,0,0,0.436,optionLeft,30,5905,3,32,0,32,0,1,,,,,,,,,,,,,,,,,,,,,,,,,,,,,,,,,,,,,,,
,,,,,,,,2023-08-16_08h43.20.808,HF_wild_card,2022.2.4,Win32,146.6705779,5de8d181a91be383f644bd8c,64d2fd46c836a06233681665,64dc7e0fe78443ba51b5d4a3,,,,,,,decisionTrl,resources/DP.BMP,resources/DB.BMP,Door2,-0.192592593,-0.014814815,1,0,0,0.3453,optionLeft,20,5925,3,33,0,33,0,1,,,,,,,,,,,,,,,,,,,,,,,,,,,,,,,,,,,,,,,
,,,,,,,,2023-08-16_08h43.20.808,HF_wild_card,2022.2.4,Win32,146.6705779,5de8d181a91be383f644bd8c,64d2fd46c836a06233681665,64dc7e0fe78443ba51b5d4a3,,,,,,,decisionTrl,resources/DG.BMP,resources/DY.BMP,Door3,0.208333333,-0.024074074,1,0,0,0.422,optionRight,70,5995,3,34,0,34,0,1,,,,,,,,,,,,,,,,,,,,,,,,,,,,,,,,,,,,,,,
,,,,,,,,2023-08-16_08h43.20.808,HF_wild_card,2022.2.4,Win32,146.6705779,5de8d181a91be383f644bd8c,64d2fd46c836a06233681665,64dc7e0fe78443ba51b5d4a3,,,,,,,sngl,resources/DBN.BMP,resources/Empty.png,WildCard_Ex,-0.17037037,-0.007407407,1,0,0,0.3251,optionLeft,95,6090,3,35,0,35,0,1,,,,,,,,,,,,,,,,,,,,,,,,,,,,,,,,,,,,,,,
,,,,,,,,2023-08-16_08h43.20.808,HF_wild_card,2022.2.4,Win32,146.6705779,5de8d181a91be383f644bd8c,64d2fd46c836a06233681665,64dc7e0fe78443ba51b5d4a3,,,,,,,decisionTrl,resources/DBN.BMP,resources/DG.BMP,Door4,0.303703704,-0.066666667,1,0,0,0.3042,optionRight,80,6170,3,36,0,36,0,1,,,,,,,,,,,,,,,,,,,,,,,,,,,,,,,,,,,,,,,
,,,,,,,,2023-08-16_08h43.20.808,HF_wild_card,2022.2.4,Win32,146.6705779,5de8d181a91be383f644bd8c,64d2fd46c836a06233681665,64dc7e0fe78443ba51b5d4a3,,,,,,,sngl,resources/Empty.png,resources/DBN.BMP,WildCard_Ex,-0.153703704,-0.006481481,1,0,0,0.2485,optionRight,95,6265,3,37,0,37,0,1,,,,,,,,,,,,,,,,,,,,,,,,,,,,,,,,,,,,,,,
,,,,,,,,2023-08-16_08h43.20.808,HF_wild_card,2022.2.4,Win32,146.6705779,5de8d181a91be383f644bd8c,64d2fd46c836a06233681665,64dc7e0fe78443ba51b5d4a3,,,,,,,decisionTrl,resources/DBN.BMP,resources/DP.BMP,WildCard_Ex,-0.207407407,-0.025,1,0,0,0.4772,optionLeft,95,6360,3,38,0,38,0,1,,,,,,,,,,,,,,,,,,,,,,,,,,,,,,,,,,,,,,,
,,,,,,,,2023-08-16_08h43.20.808,HF_wild_card,2022.2.4,Win32,146.6705779,5de8d181a91be383f644bd8c,64d2fd46c836a06233681665,64dc7e0fe78443ba51b5d4a3,,,,,,,ctch,resources/DY.BMP,resources/DP.BMP,Door2,0.17962963,-0.035185185,1,0,0,0.3597,optionRight,40,6400,3,39,0,39,0,1,,,,,,,,,,,,,,,,,,,,,,,,,,,,,,,,,,,,,,,
,,,,,,,,2023-08-16_08h43.20.808,HF_wild_card,2022.2.4,Win32,146.6705779,5de8d181a91be383f644bd8c,64d2fd46c836a06233681665,64dc7e0fe78443ba51b5d4a3,,,,,,,sngl,resources/Empty.png,resources/DB.BMP,Door1,0.581481481,-0.052777778,1,0,0,0.4495,optionRight,30,6430,3,40,0,40,0,1,,,,,,,,,,,,,,,,,,,,,,,,,,,,,,,,,,,,,,,
,,,,,,,,2023-08-16_08h43.20.808,HF_wild_card,2022.2.4,Win32,146.6705779,5de8d181a91be383f644bd8c,64d2fd46c836a06233681665,64dc7e0fe78443ba51b5d4a3,,,,,,,ctch,resources/DP.BMP,resources/DY.BMP,Door2,-0.249074074,-0.007407407,1,0,0,0.2832,optionLeft,40,6470,3,41,0,41,0,1,,,,,,,,,,,,,,,,,,,,,,,,,,,,,,,,,,,,,,,
,,,,,,,,2023-08-16_08h43.20.808,HF_wild_card,2022.2.4,Win32,146.6705779,5de8d181a91be383f644bd8c,64d2fd46c836a06233681665,64dc7e0fe78443ba51b5d4a3,,,,,,,decisionTrl,resources/DY.BMP,resources/DBN.BMP,WildCard_Ex,0.205555556,-0.036111111,1,0,0,0.4495,optionRight,95,6565,3,42,0,42,0,1,,,,,,,,,,,,,,,,,,,,,,,,,,,,,,,,,,,,,,,
,,,,,,,,2023-08-16_08h43.20.808,HF_wild_card,2022.2.4,Win32,146.6705779,5de8d181a91be383f644bd8c,64d2fd46c836a06233681665,64dc7e0fe78443ba51b5d4a3,,,,,,,sngl,resources/DB.BMP,resources/Empty.png,Door1,-0.15,-0.034259259,1,0,0,0.339,optionLeft,30,6595,3,43,0,43,0,1,,,,,,,,,,,,,,,,,,,,,,,,,,,,,,,,,,,,,,,
,,,,,,,,2023-08-16_08h43.20.808,HF_wild_card,2022.2.4,Win32,146.6705779,5de8d181a91be383f644bd8c,64d2fd46c836a06233681665,64dc7e0fe78443ba51b5d4a3,,,,,,,,,,,,,,,,,,,,,,,,,,2,0,2,0,1,,,,,,,,,,,,,,,,,,,,,,,,,,,,,,,,,,
,,,,,,,,2023-08-16_08h43.20.808,HF_wild_card,2022.2.4,Win32,146.6705779,5de8d181a91be383f644bd8c,64d2fd46c836a06233681665,64dc7e0fe78443ba51b5d4a3,,,,,,,sngl,resources/DB.BMP,resources/Empty.png,Door1,-0.243518519,0.000925926,1,0,0,0.398,optionLeft,30,6625,4,0,0,0,0,1,,,,,,,,,,,,,,,,,,,,,,,,,,,,,,,,,,,,,,,
,,,,,,,,2023-08-16_08h43.20.808,HF_wild_card,2022.2.4,Win32,146.6705779,5de8d181a91be383f644bd8c,64d2fd46c836a06233681665,64dc7e0fe78443ba51b5d4a3,,,,,,,ctch,resources/DP.BMP,resources/DY.BMP,Door3,0.312037037,-0.07037037,1,0,0,0.2971,optionRight,70,6695,4,1,0,1,0,1,,,,,,,,,,,,,,,,,,,,,,,,,,,,,,,,,,,,,,,
,,,,,,,,2023-08-16_08h43.20.808,HF_wild_card,2022.2.4,Win32,146.6705779,5de8d181a91be383f644bd8c,64d2fd46c836a06233681665,64dc7e0fe78443ba51b5d4a3,,,,,,,decisionTrl,resources/DG.BMP,resources/DY.BMP,Door4,-0.227777778,-0.007407407,1,0,0,0.2335,optionLeft,80,6775,4,2,0,2,0,1,,,,,,,,,,,,,,,,,,,,,,,,,,,,,,,,,,,,,,,
,,,,,,,,2023-08-16_08h43.20.808,HF_wild_card,2022.2.4,Win32,146.6705779,5de8d181a91be383f644bd8c,64d2fd46c836a06233681665,64dc7e0fe78443ba51b5d4a3,,,,,,,decisionTrl,resources/DG.BMP,resources/DY.BMP,Door3,0.167592593,-0.025,1,0,0,0.2209,optionRight,70,6845,4,3,0,3,0,1,,,,,,,,,,,,,,,,,,,,,,,,,,,,,,,,,,,,,,,
,,,,,,,,2023-08-16_08h43.20.808,HF_wild_card,2022.2.4,Win32,146.6705779,5de8d181a91be383f644bd8c,64d2fd46c836a06233681665,64dc7e0fe78443ba51b5d4a3,,,,,,,ctch,resources/DG.BMP,resources/DB.BMP,Door4,-0.263888889,-0.034259259,1,0,0,0.2122,optionLeft,80,6925,4,4,0,4,0,1,,,,,,,,,,,,,,,,,,,,,,,,,,,,,,,,,,,,,,,
,,,,,,,,2023-08-16_08h43.20.808,HF_wild_card,2022.2.4,Win32,146.6705779,5de8d181a91be383f644bd8c,64d2fd46c836a06233681665,64dc7e0fe78443ba51b5d4a3,,,,,,,decisionTrl,resources/DG.BMP,resources/DY.BMP,Door3,0.321296296,-0.089814815,1,0,0,0.2209,optionRight,70,6995,4,5,0,5,0,1,,,,,,,,,,,,,,,,,,,,,,,,,,,,,,,,,,,,,,,
,,,,,,,,2023-08-16_08h43.20.808,HF_wild_card,2022.2.4,Win32,146.6705779,5de8d181a91be383f644bd8c,64d2fd46c836a06233681665,64dc7e0fe78443ba51b5d4a3,,,,,,,sngl,resources/DR.BMP,resources/Empty.png,WildCard_NonEx,-0.235185185,-0.022222222,1,0,0,0.2342,optionLeft,45,7040,4,6,0,6,0,1,,,,,,,,,,,,,,,,,,,,,,,,,,,,,,,,,,,,,,,
,,,,,,,,2023-08-16_08h43.20.808,HF_wild_card,2022.2.4,Win32,146.6705779,5de8d181a91be383f644bd8c,64d2fd46c836a06233681665,64dc7e0fe78443ba51b5d4a3,,,,,,,decisionTrl,resources/DY.BMP,resources/DG.BMP,Door4,0.213888889,-0.046296296,1,0,0,0.2417,optionRight,80,7120,4,7,0,7,0,1,,,,,,,,,,,,,,,,,,,,,,,,,,,,,,,,,,,,,,,
,,,,,,,,2023-08-16_08h43.20.808,HF_wild_card,2022.2.4,Win32,146.6705779,5de8d181a91be383f644bd8c,64d2fd46c836a06233681665,64dc7e0fe78443ba51b5d4a3,,,,,,,sngl,resources/Empty.png,resources/DR.BMP,WildCard_NonEx,-0.144444444,-0.015740741,1,0,0,0.2277,optionRight,45,7165,4,8,0,8,0,1,,,,,,,,,,,,,,,,,,,,,,,,,,,,,,,,,,,,,,,
,,,,,,,,2023-08-16_08h43.20.808,HF_wild_card,2022.2.4,Win32,146.6705779,5de8d181a91be383f644bd8c,64d2fd46c836a06233681665,64dc7e0fe78443ba51b5d4a3,,,,,,,decisionTrl,resources/DY.BMP,resources/DG.BMP,Door3,-0.265740741,0.002777778,1,0,0,0.2758,optionLeft,70,7235,4,9,0,9,0,1,,,,,,,,,,,,,,,,,,,,,,,,,,,,,,,,,,,,,,,
,,,,,,,,2023-08-16_08h43.20.808,HF_wild_card,2022.2.4,Win32,146.6705779,5de8d181a91be383f644bd8c,64d2fd46c836a06233681665,64dc7e0fe78443ba51b5d4a3,,,,,,,decisionTrl,resources/DR.BMP,resources/DY.BMP,Door3,0.275,-0.034259259,1,0,0,0.2556,optionRight,70,7305,4,10,0,10,0,1,,,,,,,,,,,,,,,,,,,,,,,,,,,,,,,,,,,,,,,
,,,,,,,,2023-08-16_08h43.20.808,HF_wild_card,2022.2.4,Win32,146.6705779,5de8d181a91be383f644bd8c,64d2fd46c836a06233681665,64dc7e0fe78443ba51b5d4a3,,,,,,,decisionTrl,resources/DB.BMP,resources/DR.BMP,Door1,-0.217592593,-0.011111111,1,0,0,0.2694,optionLeft,30,7335,4,11,0,11,0,1,,,,,,,,,,,,,,,,,,,,,,,,,,,,,,,,,,,,,,,
,,,,,,,,2023-08-16_08h43.20.808,HF_wild_card,2022.2.4,Win32,146.6705779,5de8d181a91be383f644bd8c,64d2fd46c836a06233681665,64dc7e0fe78443ba51b5d4a3,,,,,,,ctch,resources/DG.BMP,resources/DB.BMP,Door1,0.238888889,-0.02037037,1,0,0,0.3107,optionRight,30,7365,4,12,0,12,0,1,,,,,,,,,,,,,,,,,,,,,,,,,,,,,,,,,,,,,,,
,,,,,,,,2023-08-16_08h43.20.808,HF_wild_card,2022.2.4,Win32,146.6705779,5de8d181a91be383f644bd8c,64d2fd46c836a06233681665,64dc7e0fe78443ba51b5d4a3,,,,,,,ctch,resources/DB.BMP,resources/DG.BMP,Door1,-0.300925926,-0.00462963,1,0,0,0.4153,optionLeft,30,7395,4,13,0,13,0,1,,,,,,,,,,,,,,,,,,,,,,,,,,,,,,,,,,,,,,,
,,,,,,,,2023-08-16_08h43.20.808,HF_wild_card,2022.2.4,Win32,146.6705779,5de8d181a91be383f644bd8c,64d2fd46c836a06233681665,64dc7e0fe78443ba51b5d4a3,,,,,,,sngl,resources/DP.BMP,resources/Empty.png,Door2,-0.316666667,-0.025,1,0,0,0.5182,optionLeft,20,7415,4,14,0,14,0,1,,,,,,,,,,,,,,,,,,,,,,,,,,,,,,,,,,,,,,,
,,,,,,,,2023-08-16_08h43.20.808,HF_wild_card,2022.2.4,Win32,146.6705779,5de8d181a91be383f644bd8c,64d2fd46c836a06233681665,64dc7e0fe78443ba51b5d4a3,,,,,,,decisionTrl,resources/DP.BMP,resources/DB.BMP,Door2,-0.271296296,-0.032407407,1,0,0,0.3525,optionLeft,40,7455,4,15,0,15,0,1,,,,,,,,,,,,,,,,,,,,,,,,,,,,,,,,,,,,,,,
,,,,,,,,2023-08-16_08h43.20.808,HF_wild_card,2022.2.4,Win32,146.6705779,5de8d181a91be383f644bd8c,64d2fd46c836a06233681665,64dc7e0fe78443ba51b5d4a3,,,,,,,sngl,resources/Empty.png,resources/DY.BMP,Door3,0.258333333,-0.030555556,1,0,0,0.3384,optionRight,70,7525,4,16,0,16,0,1,,,,,,,,,,,,,,,,,,,,,,,,,,,,,,,,,,,,,,,
,,,,,,,,2023-08-16_08h43.20.808,HF_wild_card,2022.2.4,Win32,146.6705779,5de8d181a91be383f644bd8c,64d2fd46c836a06233681665,64dc7e0fe78443ba51b5d4a3,,,,,,,decisionTrl,resources/DB.BMP,resources/DP.BMP,Door1,-0.232407407,-0.014814815,1,0,0,0.4071,optionLeft,30,7555,4,17,0,17,0,1,,,,,,,,,,,,,,,,,,,,,,,,,,,,,,,,,,,,,,,
,,,,,,,,2023-08-16_08h43.20.808,HF_wild_card,2022.2.4,Win32,146.6705779,5de8d181a91be383f644bd8c,64d2fd46c836a06233681665,64dc7e0fe78443ba51b5d4a3,,,,,,,decisionTrl,resources/DP.BMP,resources/DB.BMP,Door1,0.24537037,-0.047222222,1,0,0,0.3526,optionRight,30,7585,4,18,0,18,0,1,,,,,,,,,,,,,,,,,,,,,,,,,,,,,,,,,,,,,,,
,,,,,,,,2023-08-16_08h43.20.808,HF_wild_card,2022.2.4,Win32,146.6705779,5de8d181a91be383f644bd8c,64d2fd46c836a06233681665,64dc7e0fe78443ba51b5d4a3,,,,,,,decisionTrl,resources/DG.BMP,resources/DY.BMP,Door4,-0.174074074,-0.000925926,1,0,0,0.3098,optionLeft,80,7665,4,19,0,19,0,1,,,,,,,,,,,,,,,,,,,,,,,,,,,,,,,,,,,,,,,
,,,,,,,,2023-08-16_08h43.20.808,HF_wild_card,2022.2.4,Win32,146.6705779,5de8d181a91be383f644bd8c,64d2fd46c836a06233681665,64dc7e0fe78443ba51b5d4a3,,,,,,,decisionTrl,resources/DR.BMP,resources/DB.BMP,WildCard_NonEx,-0.190740741,-0.000925926,1,0,0,0.3318,optionLeft,55,7720,4,20,0,20,0,1,,,,,,,,,,,,,,,,,,,,,,,,,,,,,,,,,,,,,,,
,,,,,,,,2023-08-16_08h43.20.808,HF_wild_card,2022.2.4,Win32,146.6705779,5de8d181a91be383f644bd8c,64d2fd46c836a06233681665,64dc7e0fe78443ba51b5d4a3,,,,,,,sngl,resources/DY.BMP,resources/Empty.png,Door3,-0.198148148,0,1,0,0,0.3228,optionLeft,70,7790,4,21,0,21,0,1,,,,,,,,,,,,,,,,,,,,,,,,,,,,,,,,,,,,,,,
,,,,,,,,2023-08-16_08h43.20.808,HF_wild_card,2022.2.4,Win32,146.6705779,5de8d181a91be383f644bd8c,64d2fd46c836a06233681665,64dc7e0fe78443ba51b5d4a3,,,,,,,sngl,resources/DR.BMP,resources/Empty.png,WildCard_NonEx,-0.278703704,0,1,0,0,0.3388,optionLeft,55,7845,4,22,0,22,0,1,,,,,,,,,,,,,,,,,,,,,,,,,,,,,,,,,,,,,,,
,,,,,,,,2023-08-16_08h43.20.808,HF_wild_card,2022.2.4,Win32,146.6705779,5de8d181a91be383f644bd8c,64d2fd46c836a06233681665,64dc7e0fe78443ba51b5d4a3,,,,,,,ctch,resources/DB.BMP,resources/DG.BMP,Door4,0.2,-0.028703704,1,0,0,0.4221,optionRight,80,7925,4,23,0,23,0,1,,,,,,,,,,,,,,,,,,,,,,,,,,,,,,,,,,,,,,,
,,,,,,,,2023-08-16_08h43.20.808,HF_wild_card,2022.2.4,Win32,146.6705779,5de8d181a91be383f644bd8c,64d2fd46c836a06233681665,64dc7e0fe78443ba51b5d4a3,,,,,,,decisionTrl,resources/DR.BMP,resources/DP.BMP,WildCard_NonEx,-0.140740741,-0.003703704,1,0,0,0.3178,optionLeft,55,7980,4,24,0,24,0,1,,,,,,,,,,,,,,,,,,,,,,,,,,,,,,,,,,,,,,,
,,,,,,,,2023-08-16_08h43.20.808,HF_wild_card,2022.2.4,Win32,146.6705779,5de8d181a91be383f644bd8c,64d2fd46c836a06233681665,64dc7e0fe78443ba51b5d4a3,,,,,,,decisionTrl,resources/DY.BMP,resources/DR.BMP,WildCard_NonEx,0.219444444,-0.042592593,1,0,0,0.3178,optionRight,45,8025,4,25,0,25,0,1,,,,,,,,,,,,,,,,,,,,,,,,,,,,,,,,,,,,,,,
,,,,,,,,2023-08-16_08h43.20.808,HF_wild_card,2022.2.4,Win32,146.6705779,5de8d181a91be383f644bd8c,64d2fd46c836a06233681665,64dc7e0fe78443ba51b5d4a3,,,,,,,decisionTrl,resources/DY.BMP,resources/DG.BMP,Door3,-0.17037037,0.000925926,1,0,0,0.304,optionLeft,70,8095,4,26,0,26,0,1,,,,,,,,,,,,,,,,,,,,,,,,,,,,,,,,,,,,,,,
,,,,,,,,2023-08-16_08h43.20.808,HF_wild_card,2022.2.4,Win32,146.6705779,5de8d181a91be383f644bd8c,64d2fd46c836a06233681665,64dc7e0fe78443ba51b5d4a3,,,,,,,sngl,resources/DG.BMP,resources/Empty.png,Door4,-0.234259259,-0.001851852,1,0,0,0.3735,optionLeft,60,8155,4,27,0,27,0,1,,,,,,,,,,,,,,,,,,,,,,,,,,,,,,,,,,,,,,,
,,,,,,,,2023-08-16_08h43.20.808,HF_wild_card,2022.2.4,Win32,146.6705779,5de8d181a91be383f644bd8c,64d2fd46c836a06233681665,64dc7e0fe78443ba51b5d4a3,,,,,,,decisionTrl,resources/DY.BMP,resources/DG.BMP,Door3,-0.194444444,0,1,0,0,0.3665,optionLeft,70,8225,4,28,0,28,0,1,,,,,,,,,,,,,,,,,,,,,,,,,,,,,,,,,,,,,,,
,,,,,,,,2023-08-16_08h43.20.808,HF_wild_card,2022.2.4,Win32,146.6705779,5de8d181a91be383f644bd8c,64d2fd46c836a06233681665,64dc7e0fe78443ba51b5d4a3,,,,,,,sngl,resources/Empty.png,resources/DB.BMP,Door1,0.219444444,-0.035185185,1,0,0,0.3654,optionRight,30,8255,4,29,0,29,0,1,,,,,,,,,,,,,,,,,,,,,,,,,,,,,,,,,,,,,,,
,,,,,,,,2023-08-16_08h43.20.808,HF_wild_card,2022.2.4,Win32,146.6705779,5de8d181a91be383f644bd8c,64d2fd46c836a06233681665,64dc7e0fe78443ba51b5d4a3,,,,,,,sngl,resources/Empty.png,resources/DR.BMP,WildCard_NonEx,0.260185185,-0.019444444,1,0,0,0.3802,optionRight,55,8310,4,30,0,30,0,1,,,,,,,,,,,,,,,,,,,,,,,,,,,,,,,,,,,,,,,
,,,,,,,,2023-08-16_08h43.20.808,HF_wild_card,2022.2.4,Win32,146.6705779,5de8d181a91be383f644bd8c,64d2fd46c836a06233681665,64dc7e0fe78443ba51b5d4a3,,,,,,,decisionTrl,resources/DP.BMP,resources/DR.BMP,Door2,-0.161111111,-0.003703704,1,0,0,0.3795,optionLeft,20,8330,4,31,0,31,0,1,,,,,,,,,,,,,,,,,,,,,,,,,,,,,,,,,,,,,,,
,,,,,,,,2023-08-16_08h43.20.808,HF_wild_card,2022.2.4,Win32,146.6705779,5de8d181a91be383f644bd8c,64d2fd46c836a06233681665,64dc7e0fe78443ba51b5d4a3,,,,,,,ctch,resources/DY.BMP,resources/DP.BMP,Door2,0.219444444,-0.007407407,1,0,0,0.3043,optionRight,40,8370,4,32,0,32,0,1,,,,,,,,,,,,,,,,,,,,,,,,,,,,,,,,,,,,,,,
,,,,,,,,2023-08-16_08h43.20.808,HF_wild_card,2022.2.4,Win32,146.6705779,5de8d181a91be383f644bd8c,64d2fd46c836a06233681665,64dc7e0fe78443ba51b5d4a3,,,,,,,ctch,resources/DY.BMP,resources/DP.BMP,Door3,-0.146296296,-0.025925926,1,0,0,0.2694,optionLeft,70,8440,4,33,0,33,0,1,,,,,,,,,,,,,,,,,,,,,,,,,,,,,,,,,,,,,,,
,,,,,,,,2023-08-16_08h43.20.808,HF_wild_card,2022.2.4,Win32,146.6705779,5de8d181a91be383f644bd8c,64d2fd46c836a06233681665,64dc7e0fe78443ba51b5d4a3,,,,,,,decisionTrl,resources/DR.BMP,resources/DG.BMP,WildCard_NonEx,-0.214814815,-0.018518519,1,0,0,0.297,optionLeft,45,8485,4,34,0,34,0,1,,,,,,,,,,,,,,,,,,,,,,,,,,,,,,,,,,,,,,,
,,,,,,,,2023-08-16_08h43.20.808,HF_wild_card,2022.2.4,Win32,146.6705779,5de8d181a91be383f644bd8c,64d2fd46c836a06233681665,64dc7e0fe78443ba51b5d4a3,,,,,,,ctch,resources/DP.BMP,resources/DY.BMP,Door3,0.265740741,-0.057407407,1,0,0,0.2554,optionRight,70,8555,4,35,0,35,0,1,,,,,,,,,,,,,,,,,,,,,,,,,,,,,,,,,,,,,,,
,,,,,,,,2023-08-16_08h43.20.808,HF_wild_card,2022.2.4,Win32,146.6705779,5de8d181a91be383f644bd8c,64d2fd46c836a06233681665,64dc7e0fe78443ba51b5d4a3,,,,,,,decisionTrl,resources/DP.BMP,resources/DB.BMP,Door2,-0.202777778,-0.023148148,1,0,0,0.2347,optionLeft,40,8595,4,36,0,36,0,1,,,,,,,,,,,,,,,,,,,,,,,,,,,,,,,,,,,,,,,
,,,,,,,,2023-08-16_08h43.20.808,HF_wild_card,2022.2.4,Win32,146.6705779,5de8d181a91be383f644bd8c,64d2fd46c836a06233681665,64dc7e0fe78443ba51b5d4a3,,,,,,,decisionTrl,resources/DB.BMP,resources/DP.BMP,Door2,0.221296296,-0.062962963,1,0,0,0.2553,optionRight,40,8635,4,37,0,37,0,1,,,,,,,,,,,,,,,,,,,,,,,,,,,,,,,,,,,,,,,
,,,,,,,,2023-08-16_08h43.20.808,HF_wild_card,2022.2.4,Win32,146.6705779,5de8d181a91be383f644bd8c,64d2fd46c836a06233681665,64dc7e0fe78443ba51b5d4a3,,,,,,,decisionTrl,resources/DP.BMP,resources/DB.BMP,Door2,-0.226851852,-0.021296296,1,0,0,0.3181,optionLeft,40,8675,4,38,0,38,0,1,,,,,,,,,,,,,,,,,,,,,,,,,,,,,,,,,,,,,,,
,,,,,,,,2023-08-16_08h43.20.808,HF_wild_card,2022.2.4,Win32,146.6705779,5de8d181a91be383f644bd8c,64d2fd46c836a06233681665,64dc7e0fe78443ba51b5d4a3,,,,,,,sngl,resources/Empty.png,resources/DP.BMP,Door2,0.274074074,-0.025925926,1,0,0,0.3249,optionRight,40,8715,4,39,0,39,0,1,,,,,,,,,,,,,,,,,,,,,,,,,,,,,,,,,,,,,,,
,,,,,,,,2023-08-16_08h43.20.808,HF_wild_card,2022.2.4,Win32,146.6705779,5de8d181a91be383f644bd8c,64d2fd46c836a06233681665,64dc7e0fe78443ba51b5d4a3,,,,,,,decisionTrl,resources/DB.BMP,resources/DP.BMP,Door1,-0.257407407,0.008333333,1,0,0,0.3389,optionLeft,30,8745,4,40,0,40,0,1,,,,,,,,,,,,,,,,,,,,,,,,,,,,,,,,,,,,,,,
,,,,,,,,2023-08-16_08h43.20.808,HF_wild_card,2022.2.4,Win32,146.6705779,5de8d181a91be383f644bd8c,64d2fd46c836a06233681665,64dc7e0fe78443ba51b5d4a3,,,,,,,decisionTrl,resources/DB.BMP,resources/DP.BMP,Door2,0.213888889,-0.014814815,1,0,0,0.2767,optionRight,20,8765,4,41,0,41,0,1,,,,,,,,,,,,,,,,,,,,,,,,,,,,,,,,,,,,,,,
,,,,,,,,2023-08-16_08h43.20.808,HF_wild_card,2022.2.4,Win32,146.6705779,5de8d181a91be383f644bd8c,64d2fd46c836a06233681665,64dc7e0fe78443ba51b5d4a3,,,,,,,sngl,resources/Empty.png,resources/DG.BMP,Door4,-0.22037037,-0.006481481,1,0,0,0.2762,optionRight,80,8845,4,42,0,42,0,1,,,,,,,,,,,,,,,,,,,,,,,,,,,,,,,,,,,,,,,
,,,,,,,,2023-08-16_08h43.20.808,HF_wild_card,2022.2.4,Win32,146.6705779,5de8d181a91be383f644bd8c,64d2fd46c836a06233681665,64dc7e0fe78443ba51b5d4a3,,,,,,,decisionTrl,resources/DG.BMP,resources/DR.BMP,Door4,-0.131481481,-0.010185185,1,0,0,0.3791,optionLeft,60,8905,4,43,0,43,0,1,,,,,,,,,,,,,,,,,,,,,,,,,,,,,,,,,,,,,,,
,,,,,,,,2023-08-16_08h43.20.808,HF_wild_card,2022.2.4,Win32,146.6705779,5de8d181a91be383f644bd8c,64d2fd46c836a06233681665,64dc7e0fe78443ba51b5d4a3,,,,,,,,,,,,,,,,,,,,,,,,,,3,0,3,0,1,,,,,,,,,,,,,,,,,,,,,,,,,,,,,,,,,,
,,,,,,,,2023-08-16_08h43.20.808,HF_wild_card,2022.2.4,Win32,146.6705779,5de8d181a91be383f644bd8c,64d2fd46c836a06233681665,64dc7e0fe78443ba51b5d4a3,,,,,,,decisionTrl,resources/DG.BMP,resources/DY.BMP,Door3,0.316666667,-0.137037037,1,0,0,0.6986,optionRight,70,8975,5,0,0,0,0,1,,,,,,,,,,,,,,,,,,,,,,,,,,,,,,,,,,,,,,,
,,,,,,,,2023-08-16_08h43.20.808,HF_wild_card,2022.2.4,Win32,146.6705779,5de8d181a91be383f644bd8c,64d2fd46c836a06233681665,64dc7e0fe78443ba51b5d4a3,,,,,,,decisionTrl,resources/DP.BMP,resources/DB.BMP,Door2,-0.166666667,-0.017592593,1,0,0,0.3455,optionLeft,20,8995,5,1,0,1,0,1,,,,,,,,,,,,,,,,,,,,,,,,,,,,,,,,,,,,,,,
,,,,,,,,2023-08-16_08h43.20.808,HF_wild_card,2022.2.4,Win32,146.6705779,5de8d181a91be383f644bd8c,64d2fd46c836a06233681665,64dc7e0fe78443ba51b5d4a3,,,,,,,decisionTrl,resources/DG.BMP,resources/DY.BMP,Door3,0.19537037,-0.048148148,1,0,0,0.3126,optionRight,70,9065,5,2,0,2,0,1,,,,,,,,,,,,,,,,,,,,,,,,,,,,,,,,,,,,,,,
,,,,,,,,2023-08-16_08h43.20.808,HF_wild_card,2022.2.4,Win32,146.6705779,5de8d181a91be383f644bd8c,64d2fd46c836a06233681665,64dc7e0fe78443ba51b5d4a3,,,,,,,decisionTrl,resources/DP.BMP,resources/DB.BMP,Door2,-0.17037037,0,1,0,0,0.2862,optionLeft,40,9105,5,3,0,3,0,1,,,,,,,,,,,,,,,,,,,,,,,,,,,,,,,,,,,,,,,
,,,,,,,,2023-08-16_08h43.20.808,HF_wild_card,2022.2.4,Win32,146.6705779,5de8d181a91be383f644bd8c,64d2fd46c836a06233681665,64dc7e0fe78443ba51b5d4a3,,,,,,,decisionTrl,resources/DG.BMP,resources/DY.BMP,Door3,0.249074074,-0.00462963,1,0,0,0.2859,optionRight,70,9175,5,4,0,4,0,1,,,,,,,,,,,,,,,,,,,,,,,,,,,,,,,,,,,,,,,
,,,,,,,,2023-08-16_08h43.20.808,HF_wild_card,2022.2.4,Win32,146.6705779,5de8d181a91be383f644bd8c,64d2fd46c836a06233681665,64dc7e0fe78443ba51b5d4a3,,,,,,,decisionTrl,resources/DB.BMP,resources/DP.BMP,Door2,0.240740741,-0.063888889,1,0,0,0.6271,optionRight,20,9195,5,5,0,5,0,1,,,,,,,,,,,,,,,,,,,,,,,,,,,,,,,,,,,,,,,
,,,,,,,,2023-08-16_08h43.20.808,HF_wild_card,2022.2.4,Win32,146.6705779,5de8d181a91be383f644bd8c,64d2fd46c836a06233681665,64dc7e0fe78443ba51b5d4a3,,,,,,,decisionTrl,resources/DP.BMP,resources/DB.BMP,Door1,0.206481481,-0.059259259,1,0,0,0.4221,optionRight,30,9225,5,6,0,6,0,1,,,,,,,,,,,,,,,,,,,,,,,,,,,,,,,,,,,,,,,
,,,,,,,,2023-08-16_08h43.20.808,HF_wild_card,2022.2.4,Win32,146.6705779,5de8d181a91be383f644bd8c,64d2fd46c836a06233681665,64dc7e0fe78443ba51b5d4a3,,,,,,,ctch,resources/DG.BMP,resources/DB.BMP,Door1,0.361111111,-0.059259259,1,0,0,0.3537,optionRight,30,9255,5,7,0,7,0,1,,,,,,,,,,,,,,,,,,,,,,,,,,,,,,,,,,,,,,,
,,,,,,,,2023-08-16_08h43.20.808,HF_wild_card,2022.2.4,Win32,146.6705779,5de8d181a91be383f644bd8c,64d2fd46c836a06233681665,64dc7e0fe78443ba51b5d4a3,,,,,,,sngl,resources/DB.BMP,resources/Empty.png,Door1,-0.223148148,-0.011111111,1,0,0,0.4291,optionLeft,30,9285,5,8,0,8,0,1,,,,,,,,,,,,,,,,,,,,,,,,,,,,,,,,,,,,,,,
,,,,,,,,2023-08-16_08h43.20.808,HF_wild_card,2022.2.4,Win32,146.6705779,5de8d181a91be383f644bd8c,64d2fd46c836a06233681665,64dc7e0fe78443ba51b5d4a3,,,,,,,ctch,resources/DP.BMP,resources/DY.BMP,Door2,-0.082407407,-0.058333333,1,0,0,0.7762,optionLeft,40,9325,5,9,0,9,0,1,,,,,,,,,,,,,,,,,,,,,,,,,,,,,,,,,,,,,,,
,,,,,,,,2023-08-16_08h43.20.808,HF_wild_card,2022.2.4,Win32,146.6705779,5de8d181a91be383f644bd8c,64d2fd46c836a06233681665,64dc7e0fe78443ba51b5d4a3,,,,,,,sngl,resources/Empty.png,resources/DB.BMP,Door1,0.350925926,-0.046296296,1,0,0,0.2547,optionRight,30,9355,5,10,0,10,0,1,,,,,,,,,,,,,,,,,,,,,,,,,,,,,,,,,,,,,,,
,,,,,,,,2023-08-16_08h43.20.808,HF_wild_card,2022.2.4,Win32,146.6705779,5de8d181a91be383f644bd8c,64d2fd46c836a06233681665,64dc7e0fe78443ba51b5d4a3,,,,,,,decisionTrl,resources/DP.BMP,resources/DB.BMP,Door1,0.209259259,-0.05,1,0,0,0.3209,optionRight,30,9385,5,11,0,11,0,1,,,,,,,,,,,,,,,,,,,,,,,,,,,,,,,,,,,,,,,
,,,,,,,,2023-08-16_08h43.20.808,HF_wild_card,2022.2.4,Win32,146.6705779,5de8d181a91be383f644bd8c,64d2fd46c836a06233681665,64dc7e0fe78443ba51b5d4a3,,,,,,,decisionTrl,resources/DB.BMP,resources/DP.BMP,Door2,0.238888889,-0.066666667,1,0,0,0.4527,optionRight,40,9425,5,12,0,12,0,1,,,,,,,,,,,,,,,,,,,,,,,,,,,,,,,,,,,,,,,
,,,,,,,,2023-08-16_08h43.20.808,HF_wild_card,2022.2.4,Win32,146.6705779,5de8d181a91be383f644bd8c,64d2fd46c836a06233681665,64dc7e0fe78443ba51b5d4a3,,,,,,,decisionTrl,resources/DY.BMP,resources/DR.BMP,Door3,-0.233333333,-0.05462963,1,0,0,0.5573,optionLeft,70,9495,5,13,0,13,0,1,,,,,,,,,,,,,,,,,,,,,,,,,,,,,,,,,,,,,,,
,,,,,,,,2023-08-16_08h43.20.808,HF_wild_card,2022.2.4,Win32,146.6705779,5de8d181a91be383f644bd8c,64d2fd46c836a06233681665,64dc7e0fe78443ba51b5d4a3,,,,,,,ctch,resources/DB.BMP,resources/DG.BMP,Door1,-0.22962963,-0.026851852,1,0,0,0.5919,optionLeft,30,9525,5,14,0,14,0,1,,,,,,,,,,,,,,,,,,,,,,,,,,,,,,,,,,,,,,,
,,,,,,,,2023-08-16_08h43.20.808,HF_wild_card,2022.2.4,Win32,146.6705779,5de8d181a91be383f644bd8c,64d2fd46c836a06233681665,64dc7e0fe78443ba51b5d4a3,,,,,,,sngl,resources/Empty.png,resources/DP.BMP,Door2,0.460185185,-0.053703704,1,0,0,0.307,optionRight,20,9545,5,15,0,15,0,1,,,,,,,,,,,,,,,,,,,,,,,,,,,,,,,,,,,,,,,
,,,,,,,,2023-08-16_08h43.20.808,HF_wild_card,2022.2.4,Win32,146.6705779,5de8d181a91be383f644bd8c,64d2fd46c836a06233681665,64dc7e0fe78443ba51b5d4a3,,,,,,,sngl,resources/DR.BMP,resources/Empty.png,WildCard_NonEx,-0.15462963,0.009259259,1,0,0,0.3058,optionLeft,45,9590,5,16,0,16,0,1,,,,,,,,,,,,,,,,,,,,,,,,,,,,,,,,,,,,,,,
,,,,,,,,2023-08-16_08h43.20.808,HF_wild_card,2022.2.4,Win32,146.6705779,5de8d181a91be383f644bd8c,64d2fd46c836a06233681665,64dc7e0fe78443ba51b5d4a3,,,,,,,decisionTrl,resources/DY.BMP,resources/DG.BMP,Door4,0.261111111,0.00462963,1,0,0,0.3806,optionRight,80,9670,5,17,0,17,0,1,,,,,,,,,,,,,,,,,,,,,,,,,,,,,,,,,,,,,,,
,,,,,,,,2023-08-16_08h43.20.808,HF_wild_card,2022.2.4,Win32,146.6705779,5de8d181a91be383f644bd8c,64d2fd46c836a06233681665,64dc7e0fe78443ba51b5d4a3,,,,,,,sngl,resources/DP.BMP,resources/Empty.png,Door2,-0.282407407,-0.012962963,1,0,0,0.3885,optionLeft,40,9710,5,18,0,18,0,1,,,,,,,,,,,,,,,,,,,,,,,,,,,,,,,,,,,,,,,
,,,,,,,,2023-08-16_08h43.20.808,HF_wild_card,2022.2.4,Win32,146.6705779,5de8d181a91be383f644bd8c,64d2fd46c836a06233681665,64dc7e0fe78443ba51b5d4a3,,,,,,,ctch,resources/DB.BMP,resources/DG.BMP,Door4,0.29537037,-0.037962963,1,0,0,0.4152,optionRight,60,9770,5,19,0,19,0,1,,,,,,,,,,,,,,,,,,,,,,,,,,,,,,,,,,,,,,,
,,,,,,,,2023-08-16_08h43.20.808,HF_wild_card,2022.2.4,Win32,146.6705779,5de8d181a91be383f644bd8c,64d2fd46c836a06233681665,64dc7e0fe78443ba51b5d4a3,,,,,,,sngl,resources/DR.BMP,resources/Empty.png,WildCard_NonEx,-0.142592593,0.002777778,1,0,0,0.3178,optionLeft,55,9825,5,20,0,20,0,1,,,,,,,,,,,,,,,,,,,,,,,,,,,,,,,,,,,,,,,
,,,,,,,,2023-08-16_08h43.20.808,HF_wild_card,2022.2.4,Win32,146.6705779,5de8d181a91be383f644bd8c,64d2fd46c836a06233681665,64dc7e0fe78443ba51b5d4a3,,,,,,,ctch,resources/DY.BMP,resources/DP.BMP,Door2,0.232407407,-0.042592593,1,0,0,0.4017,optionRight,20,9845,5,21,0,21,0,1,,,,,,,,,,,,,,,,,,,,,,,,,,,,,,,,,,,,,,,
,,,,,,,,2023-08-16_08h43.20.808,HF_wild_card,2022.2.4,Win32,146.6705779,5de8d181a91be383f644bd8c,64d2fd46c836a06233681665,64dc7e0fe78443ba51b5d4a3,,,,,,,sngl,resources/Empty.png,resources/DR.BMP,WildCard_NonEx,0.166666667,-0.023148148,1,0,0,0.4083,optionRight,45,9890,5,22,0,22,0,1,,,,,,,,,,,,,,,,,,,,,,,,,,,,,,,,,,,,,,,
,,,,,,,,2023-08-16_08h43.20.808,HF_wild_card,2022.2.4,Win32,146.6705779,5de8d181a91be383f644bd8c,64d2fd46c836a06233681665,64dc7e0fe78443ba51b5d4a3,,,,,,,sngl,resources/Empty.png,resources/DG.BMP,Door4,0.283333333,-0.025,1,0,0,0.4048,optionRight,60,9950,5,23,0,23,0,1,,,,,,,,,,,,,,,,,,,,,,,,,,,,,,,,,,,,,,,
,,,,,,,,2023-08-16_08h43.20.808,HF_wild_card,2022.2.4,Win32,146.6705779,5de8d181a91be383f644bd8c,64d2fd46c836a06233681665,64dc7e0fe78443ba51b5d4a3,,,,,,,decisionTrl,resources/DG.BMP,resources/DR.BMP,Door4,-0.163888889,0.009259259,1,0,0,0.283,optionLeft,80,10030,5,24,0,24,0,1,,,,,,,,,,,,,,,,,,,,,,,,,,,,,,,,,,,,,,,
,,,,,,,,2023-08-16_08h43.20.808,HF_wild_card,2022.2.4,Win32,146.6705779,5de8d181a91be383f644bd8c,64d2fd46c836a06233681665,64dc7e0fe78443ba51b5d4a3,,,,,,,decisionTrl,resources/DP.BMP,resources/DR.BMP,Door2,-0.206481481,0.006481481,1,0,0,0.4083,optionLeft,40,10070,5,25,0,25,0,1,,,,,,,,,,,,,,,,,,,,,,,,,,,,,,,,,,,,,,,
,,,,,,,,2023-08-16_08h43.20.808,HF_wild_card,2022.2.4,Win32,146.6705779,5de8d181a91be383f644bd8c,64d2fd46c836a06233681665,64dc7e0fe78443ba51b5d4a3,,,,,,,decisionTrl,resources/DB.BMP,resources/DR.BMP,WildCard_NonEx,0.123148148,-0.013888889,1,0,0,0.3419,optionRight,55,10125,5,26,0,26,0,1,,,,,,,,,,,,,,,,,,,,,,,,,,,,,,,,,,,,,,,
,,,,,,,,2023-08-16_08h43.20.808,HF_wild_card,2022.2.4,Win32,146.6705779,5de8d181a91be383f644bd8c,64d2fd46c836a06233681665,64dc7e0fe78443ba51b5d4a3,,,,,,,decisionTrl,resources/DB.BMP,resources/DP.BMP,Door1,-0.249074074,0.003703704,1,0,0,0.3377,optionLeft,30,10155,5,27,0,27,0,1,,,,,,,,,,,,,,,,,,,,,,,,,,,,,,,,,,,,,,,
,,,,,,,,2023-08-16_08h43.20.808,HF_wild_card,2022.2.4,Win32,146.6705779,5de8d181a91be383f644bd8c,64d2fd46c836a06233681665,64dc7e0fe78443ba51b5d4a3,,,,,,,decisionTrl,resources/DR.BMP,resources/DY.BMP,Door3,0.353703704,-0.018518519,1,0,0,0.332,optionRight,70,10225,5,28,0,28,0,1,,,,,,,,,,,,,,,,,,,,,,,,,,,,,,,,,,,,,,,
,,,,,,,,2023-08-16_08h43.20.808,HF_wild_card,2022.2.4,Win32,146.6705779,5de8d181a91be383f644bd8c,64d2fd46c836a06233681665,64dc7e0fe78443ba51b5d4a3,,,,,,,sngl,resources/Empty.png,resources/DY.BMP,Door3,0.351851852,-0.023148148,1,0,0,0.403,optionRight,70,10295,5,29,0,29,0,1,,,,,,,,,,,,,,,,,,,,,,,,,,,,,,,,,,,,,,,
,,,,,,,,2023-08-16_08h43.20.808,HF_wild_card,2022.2.4,Win32,146.6705779,5de8d181a91be383f644bd8c,64d2fd46c836a06233681665,64dc7e0fe78443ba51b5d4a3,,,,,,,decisionTrl,resources/DR.BMP,resources/DB.BMP,Door1,0.119444444,0.006481481,1,0,0,1.929,optionRight,30,10325,5,30,0,30,0,1,,,,,,,,,,,,,,,,,,,,,,,,,,,,,,,,,,,,,,,
,,,,,,,,2023-08-16_08h43.20.808,HF_wild_card,2022.2.4,Win32,146.6705779,5de8d181a91be383f644bd8c,64d2fd46c836a06233681665,64dc7e0fe78443ba51b5d4a3,,,,,,,sngl,resources/Empty.png,resources/DR.BMP,WildCard_NonEx,0.177777778,0.022222222,1,0,0,0.3699,optionRight,55,10380,5,31,0,31,0,1,,,,,,,,,,,,,,,,,,,,,,,,,,,,,,,,,,,,,,,
,,,,,,,,2023-08-16_08h43.20.808,HF_wild_card,2022.2.4,Win32,146.6705779,5de8d181a91be383f644bd8c,64d2fd46c836a06233681665,64dc7e0fe78443ba51b5d4a3,,,,,,,sngl,resources/DY.BMP,resources/Empty.png,Door3,-0.278703704,0.019444444,1,0,0,0.3038,optionLeft,70,10450,5,32,0,32,0,1,,,,,,,,,,,,,,,,,,,,,,,,,,,,,,,,,,,,,,,
,,,,,,,,2023-08-16_08h43.20.808,HF_wild_card,2022.2.4,Win32,146.6705779,5de8d181a91be383f644bd8c,64d2fd46c836a06233681665,64dc7e0fe78443ba51b5d4a3,,,,,,,decisionTrl,resources/DB.BMP,resources/DP.BMP,Door2,0.181481481,-0.009259259,1,0,0,0.3252,optionRight,40,10490,5,33,0,33,0,1,,,,,,,,,,,,,,,,,,,,,,,,,,,,,,,,,,,,,,,
,,,,,,,,2023-08-16_08h43.20.808,HF_wild_card,2022.2.4,Win32,146.6705779,5de8d181a91be383f644bd8c,64d2fd46c836a06233681665,64dc7e0fe78443ba51b5d4a3,,,,,,,decisionTrl,resources/DY.BMP,resources/DG.BMP,Door3,-0.2,0.000925926,1,0,0,0.3596,optionLeft,70,10560,5,34,0,34,0,1,,,,,,,,,,,,,,,,,,,,,,,,,,,,,,,,,,,,,,,
,,,,,,,,2023-08-16_08h43.20.808,HF_wild_card,2022.2.4,Win32,146.6705779,5de8d181a91be383f644bd8c,64d2fd46c836a06233681665,64dc7e0fe78443ba51b5d4a3,,,,,,,ctch,resources/DY.BMP,resources/DP.BMP,Door3,-0.211111111,-0.003703704,1,0,0,0.3979,optionLeft,70,10630,5,35,0,35,0,1,,,,,,,,,,,,,,,,,,,,,,,,,,,,,,,,,,,,,,,
,,,,,,,,2023-08-16_08h43.20.808,HF_wild_card,2022.2.4,Win32,146.6705779,5de8d181a91be383f644bd8c,64d2fd46c836a06233681665,64dc7e0fe78443ba51b5d4a3,,,,,,,decisionTrl,resources/DY.BMP,resources/DG.BMP,Door3,-0.213888889,0,1,0,0,0.4011,optionLeft,70,10700,5,36,0,36,0,1,,,,,,,,,,,,,,,,,,,,,,,,,,,,,,,,,,,,,,,
,,,,,,,,2023-08-16_08h43.20.808,HF_wild_card,2022.2.4,Win32,146.6705779,5de8d181a91be383f644bd8c,64d2fd46c836a06233681665,64dc7e0fe78443ba51b5d4a3,,,,,,,decisionTrl,resources/DR.BMP,resources/DG.BMP,WildCard_NonEx,-0.147222222,0.011111111,1,0,0,0.4147,optionLeft,55,10755,5,37,0,37,0,1,,,,,,,,,,,,,,,,,,,,,,,,,,,,,,,,,,,,,,,
,,,,,,,,2023-08-16_08h43.20.808,HF_wild_card,2022.2.4,Win32,146.6705779,5de8d181a91be383f644bd8c,64d2fd46c836a06233681665,64dc7e0fe78443ba51b5d4a3,,,,,,,ctch,resources/DP.BMP,resources/DY.BMP,Door2,-0.212962963,-0.023148148,1,0,0,0.477,optionLeft,20,10775,5,38,0,38,0,1,,,,,,,,,,,,,,,,,,,,,,,,,,,,,,,,,,,,,,,
,,,,,,,,2023-08-16_08h43.20.808,HF_wild_card,2022.2.4,Win32,146.6705779,5de8d181a91be383f644bd8c,64d2fd46c836a06233681665,64dc7e0fe78443ba51b5d4a3,,,,,,,sngl,resources/DG.BMP,resources/Empty.png,Door4,-0.2,-0.000925926,1,0,0,0.3557,optionLeft,80,10855,5,39,0,39,0,1,,,,,,,,,,,,,,,,,,,,,,,,,,,,,,,,,,,,,,,
,,,,,,,,2023-08-16_08h43.20.808,HF_wild_card,2022.2.4,Win32,146.6705779,5de8d181a91be383f644bd8c,64d2fd46c836a06233681665,64dc7e0fe78443ba51b5d4a3,,,,,,,ctch,resources/DG.BMP,resources/DB.BMP,Door4,-0.19537037,0.007407407,1,0,0,0.3766,optionLeft,80,10935,5,40,0,40,0,1,,,,,,,,,,,,,,,,,,,,,,,,,,,,,,,,,,,,,,,
,,,,,,,,2023-08-16_08h43.20.808,HF_wild_card,2022.2.4,Win32,146.6705779,5de8d181a91be383f644bd8c,64d2fd46c836a06233681665,64dc7e0fe78443ba51b5d4a3,,,,,,,decisionTrl,resources/DR.BMP,resources/DP.BMP,Door2,0.205555556,-0.049074074,1,0,0,0.5157,optionRight,40,10975,5,41,0,41,0,1,,,,,,,,,,,,,,,,,,,,,,,,,,,,,,,,,,,,,,,
,,,,,,,,2023-08-16_08h43.20.808,HF_wild_card,2022.2.4,Win32,146.6705779,5de8d181a91be383f644bd8c,64d2fd46c836a06233681665,64dc7e0fe78443ba51b5d4a3,,,,,,,decisionTrl,resources/DG.BMP,resources/DY.BMP,Door4,-0.235185185,-0.007407407,1,0,0,0.3277,optionLeft,80,11055,5,42,0,42,0,1,,,,,,,,,,,,,,,,,,,,,,,,,,,,,,,,,,,,,,,
,,,,,,,,2023-08-16_08h43.20.808,HF_wild_card,2022.2.4,Win32,146.6705779,5de8d181a91be383f644bd8c,64d2fd46c836a06233681665,64dc7e0fe78443ba51b5d4a3,,,,,,,decisionTrl,resources/DY.BMP,resources/DG.BMP,Door4,0.283333333,-0.065740741,1,0,0,0.5435,optionRight,60,11115,5,43,0,43,0,1,,,,,,,,,,,,,,,,,,,,,,,,,,,,,,,,,,,,,,,
,,,,,,,,2023-08-16_08h43.20.808,HF_wild_card,2022.2.4,Win32,146.6705779,5de8d181a91be383f644bd8c,64d2fd46c836a06233681665,64dc7e0fe78443ba51b5d4a3,,,,,,,,,,,,,,,,,,,,,,,,,,4,0,4,0,1,,,,,,,,,,,,,,,,,,,,,,,,,,,,,,,,,,
,,,,,,,,2023-08-16_08h43.20.808,HF_wild_card,2022.2.4,Win32,146.6705779,5de8d181a91be383f644bd8c,64d2fd46c836a06233681665,64dc7e0fe78443ba51b5d4a3,,,,,,,decisionTrl,resources/DB.BMP,resources/DP.BMP,Door1,-0.203703704,-0.062037037,1,0,0,0.5294,optionLeft,30,11145,6,0,0,0,0,1,,,,,,,,,,,,,,,,,,,,,,,,,,,,,,,,,,,,,,,
,,,,,,,,2023-08-16_08h43.20.808,HF_wild_card,2022.2.4,Win32,146.6705779,5de8d181a91be383f644bd8c,64d2fd46c836a06233681665,64dc7e0fe78443ba51b5d4a3,,,,,,,decisionTrl,resources/DP.BMP,resources/DR.BMP,WildCard_NonEx,0.192592593,-0.060185185,1,0,0,0.2901,optionRight,45,11190,6,1,0,1,0,1,,,,,,,,,,,,,,,,,,,,,,,,,,,,,,,,,,,,,,,
,,,,,,,,2023-08-16_08h43.20.808,HF_wild_card,2022.2.4,Win32,146.6705779,5de8d181a91be383f644bd8c,64d2fd46c836a06233681665,64dc7e0fe78443ba51b5d4a3,,,,,,,decisionTrl,resources/DY.BMP,resources/DG.BMP,Door3,-0.219444444,0.024074074,1,0,0,0.269,optionLeft,70,11260,6,2,0,2,0,1,,,,,,,,,,,,,,,,,,,,,,,,,,,,,,,,,,,,,,,
,,,,,,,,2023-08-16_08h43.20.808,HF_wild_card,2022.2.4,Win32,146.6705779,5de8d181a91be383f644bd8c,64d2fd46c836a06233681665,64dc7e0fe78443ba51b5d4a3,,,,,,,decisionTrl,resources/DG.BMP,resources/DY.BMP,Door4,-0.206481481,-0.009259259,1,0,0,0.3145,optionLeft,80,11340,6,3,0,3,0,1,,,,,,,,,,,,,,,,,,,,,,,,,,,,,,,,,,,,,,,
,,,,,,,,2023-08-16_08h43.20.808,HF_wild_card,2022.2.4,Win32,146.6705779,5de8d181a91be383f644bd8c,64d2fd46c836a06233681665,64dc7e0fe78443ba51b5d4a3,,,,,,,decisionTrl,resources/DB.BMP,resources/DP.BMP,Door1,-0.348148148,0.017592593,1,0,0,0.3179,optionLeft,30,11370,6,4,0,4,0,1,,,,,,,,,,,,,,,,,,,,,,,,,,,,,,,,,,,,,,,
,,,,,,,,2023-08-16_08h43.20.808,HF_wild_card,2022.2.4,Win32,146.6705779,5de8d181a91be383f644bd8c,64d2fd46c836a06233681665,64dc7e0fe78443ba51b5d4a3,,,,,,,sngl,resources/DR.BMP,resources/Empty.png,WildCard_NonEx,-0.182407407,0.005555556,1,0,0,0.3694,optionLeft,55,11425,6,5,0,5,0,1,,,,,,,,,,,,,,,,,,,,,,,,,,,,,,,,,,,,,,,
,,,,,,,,2023-08-16_08h43.20.808,HF_wild_card,2022.2.4,Win32,146.6705779,5de8d181a91be383f644bd8c,64d2fd46c836a06233681665,64dc7e0fe78443ba51b5d4a3,,,,,,,decisionTrl,resources/DP.BMP,resources/DB.BMP,Door1,0.236111111,-0.042592593,1,0,0,0.3318,optionRight,30,11455,6,6,0,6,0,1,,,,,,,,,,,,,,,,,,,,,,,,,,,,,,,,,,,,,,,
,,,,,,,,2023-08-16_08h43.20.808,HF_wild_card,2022.2.4,Win32,146.6705779,5de8d181a91be383f644bd8c,64d2fd46c836a06233681665,64dc7e0fe78443ba51b5d4a3,,,,,,,decisionTrl,resources/DB.BMP,resources/DP.BMP,Door1,-0.211111111,0.011111111,1,0,0,0.318,optionLeft,30,11485,6,7,0,7,0,1,,,,,,,,,,,,,,,,,,,,,,,,,,,,,,,,,,,,,,,
,,,,,,,,2023-08-16_08h43.20.808,HF_wild_card,2022.2.4,Win32,146.6705779,5de8d181a91be383f644bd8c,64d2fd46c836a06233681665,64dc7e0fe78443ba51b5d4a3,,,,,,,ctch,resources/DP.BMP,resources/DY.BMP,Door3,0.15462963,-0.047222222,1,0,0,0.3777,optionRight,70,11555,6,8,0,8,0,1,,,,,,,,,,,,,,,,,,,,,,,,,,,,,,,,,,,,,,,
,,,,,,,,2023-08-16_08h43.20.808,HF_wild_card,2022.2.4,Win32,146.6705779,5de8d181a91be383f644bd8c,64d2fd46c836a06233681665,64dc7e0fe78443ba51b5d4a3,,,,,,,decisionTrl,resources/DG.BMP,resources/DY.BMP,Door4,-0.194444444,0.009259259,1,0,0,0.3553,optionLeft,80,11635,6,9,0,9,0,1,,,,,,,,,,,,,,,,,,,,,,,,,,,,,,,,,,,,,,,
,,,,,,,,2023-08-16_08h43.20.808,HF_wild_card,2022.2.4,Win32,146.6705779,5de8d181a91be383f644bd8c,64d2fd46c836a06233681665,64dc7e0fe78443ba51b5d4a3,,,,,,,decisionTrl,resources/DY.BMP,resources/DG.BMP,Door4,0.219444444,-0.049074074,1,0,0,0.3628,optionRight,60,11695,6,10,0,10,0,1,,,,,,,,,,,,,,,,,,,,,,,,,,,,,,,,,,,,,,,
,,,,,,,,2023-08-16_08h43.20.808,HF_wild_card,2022.2.4,Win32,146.6705779,5de8d181a91be383f644bd8c,64d2fd46c836a06233681665,64dc7e0fe78443ba51b5d4a3,,,,,,,sngl,resources/Empty.png,resources/DG.BMP,Door4,0.358333333,-0.041666667,1,0,0,0.3974,optionRight,80,11775,6,11,0,11,0,1,,,,,,,,,,,,,,,,,,,,,,,,,,,,,,,,,,,,,,,
,,,,,,,,2023-08-16_08h43.20.808,HF_wild_card,2022.2.4,Win32,146.6705779,5de8d181a91be383f644bd8c,64d2fd46c836a06233681665,64dc7e0fe78443ba51b5d4a3,,,,,,,sngl,resources/DB.BMP,resources/Empty.png,Door1,-0.160185185,0.024074074,1,0,0,0.308,optionLeft,30,11805,6,12,0,12,0,1,,,,,,,,,,,,,,,,,,,,,,,,,,,,,,,,,,,,,,,
,,,,,,,,2023-08-16_08h43.20.808,HF_wild_card,2022.2.4,Win32,146.6705779,5de8d181a91be383f644bd8c,64d2fd46c836a06233681665,64dc7e0fe78443ba51b5d4a3,,,,,,,ctch,resources/DB.BMP,resources/DG.BMP,Door4,0.246296296,0.003703704,1,0,0,0.3103,optionRight,60,11865,6,13,0,13,0,1,,,,,,,,,,,,,,,,,,,,,,,,,,,,,,,,,,,,,,,
,,,,,,,,2023-08-16_08h43.20.808,HF_wild_card,2022.2.4,Win32,146.6705779,5de8d181a91be383f644bd8c,64d2fd46c836a06233681665,64dc7e0fe78443ba51b5d4a3,,,,,,,decisionTrl,resources/DR.BMP,resources/DP.BMP,WildCard_NonEx,-0.265740741,0.011111111,1,0,0,0.3557,optionLeft,45,11910,6,14,0,14,0,1,,,,,,,,,,,,,,,,,,,,,,,,,,,,,,,,,,,,,,,
,,,,,,,,2023-08-16_08h43.20.808,HF_wild_card,2022.2.4,Win32,146.6705779,5de8d181a91be383f644bd8c,64d2fd46c836a06233681665,64dc7e0fe78443ba51b5d4a3,,,,,,,decisionTrl,resources/DB.BMP,resources/DR.BMP,WildCard_NonEx,0.291666667,-0.035185185,1,0,0,0.3088,optionRight,45,11955,6,15,0,15,0,1,,,,,,,,,,,,,,,,,,,,,,,,,,,,,,,,,,,,,,,
,,,,,,,,2023-08-16_08h43.20.808,HF_wild_card,2022.2.4,Win32,146.6705779,5de8d181a91be383f644bd8c,64d2fd46c836a06233681665,64dc7e0fe78443ba51b5d4a3,,,,,,,sngl,resources/DY.BMP,resources/Empty.png,Door3,-0.17962963,0,1,0,0,0.3558,optionLeft,70,12025,6,16,0,16,0,1,,,,,,,,,,,,,,,,,,,,,,,,,,,,,,,,,,,,,,,
,,,,,,,,2023-08-16_08h43.20.808,HF_wild_card,2022.2.4,Win32,146.6705779,5de8d181a91be383f644bd8c,64d2fd46c836a06233681665,64dc7e0fe78443ba51b5d4a3,,,,,,,ctch,resources/DY.BMP,resources/DP.BMP,Door2,0.293518519,-0.042592593,1,0,0,0.307,optionRight,20,12045,6,17,0,17,0,1,,,,,,,,,,,,,,,,,,,,,,,,,,,,,,,,,,,,,,,
,,,,,,,,2023-08-16_08h43.20.808,HF_wild_card,2022.2.4,Win32,146.6705779,5de8d181a91be383f644bd8c,64d2fd46c836a06233681665,64dc7e0fe78443ba51b5d4a3,,,,,,,ctch,resources/DB.BMP,resources/DG.BMP,Door1,-0.15462963,0.012037037,1,0,0,0.2763,optionLeft,30,12075,6,18,0,18,0,1,,,,,,,,,,,,,,,,,,,,,,,,,,,,,,,,,,,,,,,
,,,,,,,,2023-08-16_08h43.20.808,HF_wild_card,2022.2.4,Win32,146.6705779,5de8d181a91be383f644bd8c,64d2fd46c836a06233681665,64dc7e0fe78443ba51b5d4a3,,,,,,,decisionTrl,resources/DY.BMP,resources/DG.BMP,Door4,0.235185185,-0.024074074,1,0,0,0.2515,optionRight,60,12135,6,19,0,19,0,1,,,,,,,,,,,,,,,,,,,,,,,,,,,,,,,,,,,,,,,
,,,,,,,,2023-08-16_08h43.20.808,HF_wild_card,2022.2.4,Win32,146.6705779,5de8d181a91be383f644bd8c,64d2fd46c836a06233681665,64dc7e0fe78443ba51b5d4a3,,,,,,,ctch,resources/DY.BMP,resources/DP.BMP,Door3,-0.166666667,0.003703704,1,0,0,0.3393,optionLeft,70,12205,6,20,0,20,0,1,,,,,,,,,,,,,,,,,,,,,,,,,,,,,,,,,,,,,,,
,,,,,,,,2023-08-16_08h43.20.808,HF_wild_card,2022.2.4,Win32,146.6705779,5de8d181a91be383f644bd8c,64d2fd46c836a06233681665,64dc7e0fe78443ba51b5d4a3,,,,,,,decisionTrl,resources/DR.BMP,resources/DB.BMP,Door1,0.182407407,-0.026851852,1,0,0,0.2644,optionRight,30,12235,6,21,0,21,0,1,,,,,,,,,,,,,,,,,,,,,,,,,,,,,,,,,,,,,,,
,,,,,,,,2023-08-16_08h43.20.808,HF_wild_card,2022.2.4,Win32,146.6705779,5de8d181a91be383f644bd8c,64d2fd46c836a06233681665,64dc7e0fe78443ba51b5d4a3,,,,,,,decisionTrl,resources/DP.BMP,resources/DB.BMP,Door2,-0.159259259,-0.006481481,1,0,0,0.2763,optionLeft,40,12275,6,22,0,22,0,1,,,,,,,,,,,,,,,,,,,,,,,,,,,,,,,,,,,,,,,
,,,,,,,,2023-08-16_08h43.20.808,HF_wild_card,2022.2.4,Win32,146.6705779,5de8d181a91be383f644bd8c,64d2fd46c836a06233681665,64dc7e0fe78443ba51b5d4a3,,,,,,,decisionTrl,resources/DY.BMP,resources/DG.BMP,Door4,0.406481481,-0.075,1,0,0,0.3107,optionRight,60,12335,6,23,0,23,0,1,,,,,,,,,,,,,,,,,,,,,,,,,,,,,,,,,,,,,,,
,,,,,,,,2023-08-16_08h43.20.808,HF_wild_card,2022.2.4,Win32,146.6705779,5de8d181a91be383f644bd8c,64d2fd46c836a06233681665,64dc7e0fe78443ba51b5d4a3,,,,,,,decisionTrl,resources/DB.BMP,resources/DP.BMP,Door2,0.201851852,-0.031481481,1,0,0,0.2831,optionRight,20,12355,6,24,0,24,0,1,,,,,,,,,,,,,,,,,,,,,,,,,,,,,,,,,,,,,,,
,,,,,,,,2023-08-16_08h43.20.808,HF_wild_card,2022.2.4,Win32,146.6705779,5de8d181a91be383f644bd8c,64d2fd46c836a06233681665,64dc7e0fe78443ba51b5d4a3,,,,,,,decisionTrl,resources/DG.BMP,resources/DR.BMP,Door4,-0.12962963,-0.006481481,1,0,0,0.304,optionLeft,80,12435,6,25,0,25,0,1,,,,,,,,,,,,,,,,,,,,,,,,,,,,,,,,,,,,,,,
,,,,,,,,2023-08-16_08h43.20.808,HF_wild_card,2022.2.4,Win32,146.6705779,5de8d181a91be383f644bd8c,64d2fd46c836a06233681665,64dc7e0fe78443ba51b5d4a3,,,,,,,decisionTrl,resources/DG.BMP,resources/DY.BMP,Door4,-0.169444444,-0.011111111,1,0,0,0.3258,optionLeft,80,12515,6,26,0,26,0,1,,,,,,,,,,,,,,,,,,,,,,,,,,,,,,,,,,,,,,,
,,,,,,,,2023-08-16_08h43.20.808,HF_wild_card,2022.2.4,Win32,146.6705779,5de8d181a91be383f644bd8c,64d2fd46c836a06233681665,64dc7e0fe78443ba51b5d4a3,,,,,,,sngl,resources/Empty.png,resources/DP.BMP,Door2,0.309259259,-0.043518519,1,0,0,0.4112,optionRight,40,12555,6,27,0,27,0,1,,,,,,,,,,,,,,,,,,,,,,,,,,,,,,,,,,,,,,,
,,,,,,,,2023-08-16_08h43.20.808,HF_wild_card,2022.2.4,Win32,146.6705779,5de8d181a91be383f644bd8c,64d2fd46c836a06233681665,64dc7e0fe78443ba51b5d4a3,,,,,,,ctch,resources/DG.BMP,resources/DB.BMP,Door4,-0.101851852,-0.018518519,1,0,0,0.3517,optionLeft,80,12635,6,28,0,28,0,1,,,,,,,,,,,,,,,,,,,,,,,,,,,,,,,,,,,,,,,
,,,,,,,,2023-08-16_08h43.20.808,HF_wild_card,2022.2.4,Win32,146.6705779,5de8d181a91be383f644bd8c,64d2fd46c836a06233681665,64dc7e0fe78443ba51b5d4a3,,,,,,,sngl,resources/Empty.png,resources/DY.BMP,Door3,0.271296296,-0.006481481,1,0,0,0.3696,optionRight,70,12705,6,29,0,29,0,1,,,,,,,,,,,,,,,,,,,,,,,,,,,,,,,,,,,,,,,
,,,,,,,,2023-08-16_08h43.20.808,HF_wild_card,2022.2.4,Win32,146.6705779,5de8d181a91be383f644bd8c,64d2fd46c836a06233681665,64dc7e0fe78443ba51b5d4a3,,,,,,,sngl,resources/Empty.png,resources/DB.BMP,Door1,0.294444444,-0.009259259,1,0,0,0.3805,optionRight,30,12735,6,30,0,30,0,1,,,,,,,,,,,,,,,,,,,,,,,,,,,,,,,,,,,,,,,
,,,,,,,,2023-08-16_08h43.20.808,HF_wild_card,2022.2.4,Win32,146.6705779,5de8d181a91be383f644bd8c,64d2fd46c836a06233681665,64dc7e0fe78443ba51b5d4a3,,,,,,,decisionTrl,resources/DR.BMP,resources/DY.BMP,WildCard_NonEx,-0.169444444,0,1,0,0,0.3626,optionLeft,45,12780,6,31,0,31,0,1,,,,,,,,,,,,,,,,,,,,,,,,,,,,,,,,,,,,,,,
,,,,,,,,2023-08-16_08h43.20.808,HF_wild_card,2022.2.4,Win32,146.6705779,5de8d181a91be383f644bd8c,64d2fd46c836a06233681665,64dc7e0fe78443ba51b5d4a3,,,,,,,sngl,resources/DP.BMP,resources/Empty.png,Door2,-0.17962963,-0.024074074,1,0,0,0.3973,optionLeft,20,12800,6,32,0,32,0,1,,,,,,,,,,,,,,,,,,,,,,,,,,,,,,,,,,,,,,,
,,,,,,,,2023-08-16_08h43.20.808,HF_wild_card,2022.2.4,Win32,146.6705779,5de8d181a91be383f644bd8c,64d2fd46c836a06233681665,64dc7e0fe78443ba51b5d4a3,,,,,,,decisionTrl,resources/DP.BMP,resources/DB.BMP,Door2,-0.162962963,-0.028703704,1,0,0,0.4159,optionLeft,20,12820,6,33,0,33,0,1,,,,,,,,,,,,,,,,,,,,,,,,,,,,,,,,,,,,,,,
,,,,,,,,2023-08-16_08h43.20.808,HF_wild_card,2022.2.4,Win32,146.6705779,5de8d181a91be383f644bd8c,64d2fd46c836a06233681665,64dc7e0fe78443ba51b5d4a3,,,,,,,decisionTrl,resources/DR.BMP,resources/DG.BMP,Door4,0.369444444,-0.065740741,1,0,0,0.3076,optionRight,80,12900,6,34,0,34,0,1,,,,,,,,,,,,,,,,,,,,,,,,,,,,,,,,,,,,,,,
,,,,,,,,2023-08-16_08h43.20.808,HF_wild_card,2022.2.4,Win32,146.6705779,5de8d181a91be383f644bd8c,64d2fd46c836a06233681665,64dc7e0fe78443ba51b5d4a3,,,,,,,sngl,resources/DR.BMP,resources/Empty.png,WildCard_NonEx,-0.175,-0.024074074,1,0,0,0.3771,optionLeft,45,12945,6,35,0,35,0,1,,,,,,,,,,,,,,,,,,,,,,,,,,,,,,,,,,,,,,,
,,,,,,,,2023-08-16_08h43.20.808,HF_wild_card,2022.2.4,Win32,146.6705779,5de8d181a91be383f644bd8c,64d2fd46c836a06233681665,64dc7e0fe78443ba51b5d4a3,,,,,,,decisionTrl,resources/DY.BMP,resources/DR.BMP,WildCard_NonEx,0.158333333,-0.036111111,1,0,0,0.3327,optionRight,45,12990,6,36,0,36,0,1,,,,,,,,,,,,,,,,,,,,,,,,,,,,,,,,,,,,,,,
,,,,,,,,2023-08-16_08h43.20.808,HF_wild_card,2022.2.4,Win32,146.6705779,5de8d181a91be383f644bd8c,64d2fd46c836a06233681665,64dc7e0fe78443ba51b5d4a3,,,,,,,decisionTrl,resources/DG.BMP,resources/DY.BMP,Door4,-0.153703704,-0.024074074,1,0,0,0.2943,optionLeft,80,13070,6,37,0,37,0,1,,,,,,,,,,,,,,,,,,,,,,,,,,,,,,,,,,,,,,,
,,,,,,,,2023-08-16_08h43.20.808,HF_wild_card,2022.2.4,Win32,146.6705779,5de8d181a91be383f644bd8c,64d2fd46c836a06233681665,64dc7e0fe78443ba51b5d4a3,,,,,,,decisionTrl,resources/DP.BMP,resources/DB.BMP,Door2,-0.211111111,-0.034259259,1,0,0,0.2972,optionLeft,40,13110,6,38,0,38,0,1,,,,,,,,,,,,,,,,,,,,,,,,,,,,,,,,,,,,,,,
,,,,,,,,2023-08-16_08h43.20.808,HF_wild_card,2022.2.4,Win32,146.6705779,5de8d181a91be383f644bd8c,64d2fd46c836a06233681665,64dc7e0fe78443ba51b5d4a3,,,,,,,ctch,resources/DG.BMP,resources/DB.BMP,Door1,0.439814815,-0.149074074,1,0,0,0.2864,optionRight,30,13140,6,39,0,39,0,1,,,,,,,,,,,,,,,,,,,,,,,,,,,,,,,,,,,,,,,
,,,,,,,,2023-08-16_08h43.20.808,HF_wild_card,2022.2.4,Win32,146.6705779,5de8d181a91be383f644bd8c,64d2fd46c836a06233681665,64dc7e0fe78443ba51b5d4a3,,,,,,,ctch,resources/DP.BMP,resources/DY.BMP,Door2,-0.294444444,-0.014814815,1,0,0,0.2483,optionLeft,40,13180,6,40,0,40,0,1,,,,,,,,,,,,,,,,,,,,,,,,,,,,,,,,,,,,,,,
,,,,,,,,2023-08-16_08h43.20.808,HF_wild_card,2022.2.4,Win32,146.6705779,5de8d181a91be383f644bd8c,64d2fd46c836a06233681665,64dc7e0fe78443ba51b5d4a3,,,,,,,sngl,resources/Empty.png,resources/DR.BMP,WildCard_NonEx,0.119444444,-0.046296296,1,0,0,0.3461,optionRight,55,13235,6,41,0,41,0,1,,,,,,,,,,,,,,,,,,,,,,,,,,,,,,,,,,,,,,,
,,,,,,,,2023-08-16_08h43.20.808,HF_wild_card,2022.2.4,Win32,146.6705779,5de8d181a91be383f644bd8c,64d2fd46c836a06233681665,64dc7e0fe78443ba51b5d4a3,,,,,,,sngl,resources/Empty.png,resources/DR.BMP,WildCard_NonEx,0.15,-0.04537037,1,0,0,0.3211,optionRight,45,13280,6,42,0,42,0,1,,,,,,,,,,,,,,,,,,,,,,,,,,,,,,,,,,,,,,,
,,,,,,,,2023-08-16_08h43.20.808,HF_wild_card,2022.2.4,Win32,146.6705779,5de8d181a91be383f644bd8c,64d2fd46c836a06233681665,64dc7e0fe78443ba51b5d4a3,,,,,,,sngl,resources/DG.BMP,resources/Empty.png,Door4,-0.137037037,-0.008333333,1,0,0,0.3346,optionLeft,60,13340,6,43,0,43,0,1,,,,,,,,,,,,,,,,,,,,,,,,,,,,,,,,,,,,,,,
,,,,,,,,2023-08-16_08h43.20.808,HF_wild_card,2022.2.4,Win32,146.6705779,5de8d181a91be383f644bd8c,64d2fd46c836a06233681665,64dc7e0fe78443ba51b5d4a3,,,,,,,,,,,,,,,,,,,,,,,,,,5,0,5,0,1,,,,,,,,,,,,,,,,,,,,,,,,,,,,,,,,,,
,,,,,,,,2023-08-16_08h43.20.808,HF_wild_card,2022.2.4,Win32,146.6705779,5de8d181a91be383f644bd8c,64d2fd46c836a06233681665,64dc7e0fe78443ba51b5d4a3,,,,,,,decisionTrl,resources/DY.BMP,resources/DG.BMP,Door3,-0.175925926,-0.1,1,0,0,1.2085,optionLeft,70,13410,7,0,0,0,0,1,,,,,,,,,,,,,,,,,,,,,,,,,,,,,,,,,,,,,,,
,,,,,,,,2023-08-16_08h43.20.808,HF_wild_card,2022.2.4,Win32,146.6705779,5de8d181a91be383f644bd8c,64d2fd46c836a06233681665,64dc7e0fe78443ba51b5d4a3,,,,,,,ctch,resources/DY.BMP,resources/DP.BMP,Door3,-0.202777778,-0.049074074,1,0,0,0.996,optionLeft,70,13480,7,1,0,1,0,1,,,,,,,,,,,,,,,,,,,,,,,,,,,,,,,,,,,,,,,
,,,,,,,,2023-08-16_08h43.20.808,HF_wild_card,2022.2.4,Win32,146.6705779,5de8d181a91be383f644bd8c,64d2fd46c836a06233681665,64dc7e0fe78443ba51b5d4a3,,,,,,,decisionTrl,resources/DG.BMP,resources/DY.BMP,Door3,0.342592593,-0.048148148,1,0,0,0.4569,optionRight,70,13550,7,2,0,2,0,1,,,,,,,,,,,,,,,,,,,,,,,,,,,,,,,,,,,,,,,
,,,,,,,,2023-08-16_08h43.20.808,HF_wild_card,2022.2.4,Win32,146.6705779,5de8d181a91be383f644bd8c,64d2fd46c836a06233681665,64dc7e0fe78443ba51b5d4a3,,,,,,,ctch,resources/DB.BMP,resources/DG.BMP,Door4,0.306481481,-0.059259259,1,0,0,1.5131,optionRight,80,13630,7,3,0,3,0,1,,,,,,,,,,,,,,,,,,,,,,,,,,,,,,,,,,,,,,,
,,,,,,,,2023-08-16_08h43.20.808,HF_wild_card,2022.2.4,Win32,146.6705779,5de8d181a91be383f644bd8c,64d2fd46c836a06233681665,64dc7e0fe78443ba51b5d4a3,,,,,,,decisionTrl,resources/DY.BMP,resources/DG.BMP,Door4,0.275,-0.044444444,1,0,0,0.5172,optionRight,80,13710,7,4,0,4,0,1,,,,,,,,,,,,,,,,,,,,,,,,,,,,,,,,,,,,,,,
,,,,,,,,2023-08-16_08h43.20.808,HF_wild_card,2022.2.4,Win32,146.6705779,5de8d181a91be383f644bd8c,64d2fd46c836a06233681665,64dc7e0fe78443ba51b5d4a3,,,,,,,decisionTrl,resources/DP.BMP,resources/DB.BMP,Door2,-0.201851852,-0.017592593,1,0,0,1.2114,optionLeft,20,13730,7,5,0,5,0,1,,,,,,,,,,,,,,,,,,,,,,,,,,,,,,,,,,,,,,,
,,,,,,,,2023-08-16_08h43.20.808,HF_wild_card,2022.2.4,Win32,146.6705779,5de8d181a91be383f644bd8c,64d2fd46c836a06233681665,64dc7e0fe78443ba51b5d4a3,,,,,,,ctch,resources/DY.BMP,resources/DP.BMP,Door3,-0.228703704,-0.037962963,1,0,0,0.6519,optionLeft,70,13800,7,6,0,6,0,1,,,,,,,,,,,,,,,,,,,,,,,,,,,,,,,,,,,,,,,
,,,,,,,,2023-08-16_08h43.20.808,HF_wild_card,2022.2.4,Win32,146.6705779,5de8d181a91be383f644bd8c,64d2fd46c836a06233681665,64dc7e0fe78443ba51b5d4a3,,,,,,,decisionTrl,resources/DG.BMP,resources/DY.BMP,Door3,0.342592593,-0.02037037,1,0,0,0.44,optionRight,70,13870,7,7,0,7,0,1,,,,,,,,,,,,,,,,,,,,,,,,,,,,,,,,,,,,,,,
,,,,,,,,2023-08-16_08h43.20.808,HF_wild_card,2022.2.4,Win32,146.6705779,5de8d181a91be383f644bd8c,64d2fd46c836a06233681665,64dc7e0fe78443ba51b5d4a3,,,,,,,decisionTrl,resources/DG.BMP,resources/DY.BMP,Door3,0.32962963,-0.017592593,1,0,0,0.419,optionRight,70,13940,7,8,0,8,0,1,,,,,,,,,,,,,,,,,,,,,,,,,,,,,,,,,,,,,,,
,,,,,,,,2023-08-16_08h43.20.808,HF_wild_card,2022.2.4,Win32,146.6705779,5de8d181a91be383f644bd8c,64d2fd46c836a06233681665,64dc7e0fe78443ba51b5d4a3,,,,,,,ctch,resources/DG.BMP,resources/DB.BMP,Door4,-0.257407407,-0.04537037,1,0,0,1.8494,optionLeft,60,14000,7,9,0,9,0,1,,,,,,,,,,,,,,,,,,,,,,,,,,,,,,,,,,,,,,,
,,,,,,,,2023-08-16_08h43.20.808,HF_wild_card,2022.2.4,Win32,146.6705779,5de8d181a91be383f644bd8c,64d2fd46c836a06233681665,64dc7e0fe78443ba51b5d4a3,,,,,,,decisionTrl,resources/DP.BMP,resources/DB.BMP,Door2,-0.173148148,-0.012037037,1,0,0,1.4617,optionLeft,20,14020,7,10,0,10,0,1,,,,,,,,,,,,,,,,,,,,,,,,,,,,,,,,,,,,,,,
,,,,,,,,2023-08-16_08h43.20.808,HF_wild_card,2022.2.4,Win32,146.6705779,5de8d181a91be383f644bd8c,64d2fd46c836a06233681665,64dc7e0fe78443ba51b5d4a3,,,,,,,decisionTrl,resources/DB.BMP,resources/DP.BMP,Door2,0.348148148,-0.084259259,1,0,0,0.8536,optionRight,20,14040,7,11,0,11,0,1,,,,,,,,,,,,,,,,,,,,,,,,,,,,,,,,,,,,,,,
,,,,,,,,2023-08-16_08h43.20.808,HF_wild_card,2022.2.4,Win32,146.6705779,5de8d181a91be383f644bd8c,64d2fd46c836a06233681665,64dc7e0fe78443ba51b5d4a3,,,,,,,decisionTrl,resources/DY.BMP,resources/DG.BMP,Door3,-0.283333333,-0.078703704,1,0,0,0.7282,optionLeft,70,14110,7,12,0,12,0,1,,,,,,,,,,,,,,,,,,,,,,,,,,,,,,,,,,,,,,,
,,,,,,,,2023-08-16_08h43.20.808,HF_wild_card,2022.2.4,Win32,146.6705779,5de8d181a91be383f644bd8c,64d2fd46c836a06233681665,64dc7e0fe78443ba51b5d4a3,,,,,,,ctch,resources/DB.BMP,resources/DG.BMP,Door4,0.255555556,0.022222222,1,0,0,1.8188,optionRight,80,14190,7,13,0,13,0,1,,,,,,,,,,,,,,,,,,,,,,,,,,,,,,,,,,,,,,,
,,,,,,,,2023-08-16_08h43.20.808,HF_wild_card,2022.2.4,Win32,146.6705779,5de8d181a91be383f644bd8c,64d2fd46c836a06233681665,64dc7e0fe78443ba51b5d4a3,,,,,,,decisionTrl,resources/DG.BMP,resources/DY.BMP,Door3,0.344444444,-0.052777778,1,0,0,0.5911,optionRight,70,14260,7,14,0,14,0,1,,,,,,,,,,,,,,,,,,,,,,,,,,,,,,,,,,,,,,,
,,,,,,,,2023-08-16_08h43.20.808,HF_wild_card,2022.2.4,Win32,146.6705779,5de8d181a91be383f644bd8c,64d2fd46c836a06233681665,64dc7e0fe78443ba51b5d4a3,,,,,,,decisionTrl,resources/DB.BMP,resources/DP.BMP,Door2,0.346296296,-0.027777778,1,0,0,1.4748,optionRight,40,14300,7,15,0,15,0,1,,,,,,,,,,,,,,,,,,,,,,,,,,,,,,,,,,,,,,,
,,,,,,,,2023-08-16_08h43.20.808,HF_wild_card,2022.2.4,Win32,146.6705779,5de8d181a91be383f644bd8c,64d2fd46c836a06233681665,64dc7e0fe78443ba51b5d4a3,,,,,,,ctch,resources/DG.BMP,resources/DB.BMP,Door4,-0.205555556,-0.033333333,1,0,0,0.8574,optionLeft,60,14360,7,16,0,16,0,1,,,,,,,,,,,,,,,,,,,,,,,,,,,,,,,,,,,,,,,
,,,,,,,,2023-08-16_08h43.20.808,HF_wild_card,2022.2.4,Win32,146.6705779,5de8d181a91be383f644bd8c,64d2fd46c836a06233681665,64dc7e0fe78443ba51b5d4a3,,,,,,,ctch,resources/DB.BMP,resources/DG.BMP,Door4,0.275,-0.083333333,1,0,0,0.6197,optionRight,80,14440,7,17,0,17,0,1,,,,,,,,,,,,,,,,,,,,,,,,,,,,,,,,,,,,,,,
,,,,,,,,2023-08-16_08h43.20.808,HF_wild_card,2022.2.4,Win32,146.6705779,5de8d181a91be383f644bd8c,64d2fd46c836a06233681665,64dc7e0fe78443ba51b5d4a3,,,,,,,decisionTrl,resources/DB.BMP,resources/DP.BMP,Door2,0.292592593,-0.067592593,1,0,0,0.9053,optionRight,20,14460,7,18,0,18,0,1,,,,,,,,,,,,,,,,,,,,,,,,,,,,,,,,,,,,,,,
,,,,,,,,2023-08-16_08h43.20.808,HF_wild_card,2022.2.4,Win32,146.6705779,5de8d181a91be383f644bd8c,64d2fd46c836a06233681665,64dc7e0fe78443ba51b5d4a3,,,,,,,decisionTrl,resources/DB.BMP,resources/DP.BMP,Door2,0.276851852,-0.052777778,1,0,0,0.6207,optionRight,40,14500,7,19,0,19,0,1,,,,,,,,,,,,,,,,,,,,,,,,,,,,,,,,,,,,,,,
,,,,,,,,2023-08-16_08h43.20.808,HF_wild_card,2022.2.4,Win32,146.6705779,5de8d181a91be383f644bd8c,64d2fd46c836a06233681665,64dc7e0fe78443ba51b5d4a3,,,,,,,ctch,resources/DP.BMP,resources/DY.BMP,Door3,0.249074074,-0.013888889,1,0,0,0.541,optionRight,70,14570,7,20,0,20,0,1,,,,,,,,,,,,,,,,,,,,,,,,,,,,,,,,,,,,,,,
,,,,,,,,2023-08-16_08h43.20.808,HF_wild_card,2022.2.4,Win32,146.6705779,5de8d181a91be383f644bd8c,64d2fd46c836a06233681665,64dc7e0fe78443ba51b5d4a3,,,,,,,ctch,resources/DY.BMP,resources/DP.BMP,Door3,-0.236111111,-0.025925926,1,0,0,0.5446,optionLeft,70,14640,7,21,0,21,0,1,,,,,,,,,,,,,,,,,,,,,,,,,,,,,,,,,,,,,,,
,,,,,,,,2023-08-16_08h43.20.808,HF_wild_card,2022.2.4,Win32,146.6705779,5de8d181a91be383f644bd8c,64d2fd46c836a06233681665,64dc7e0fe78443ba51b5d4a3,,,,,,,ctch,resources/DP.BMP,resources/DY.BMP,Door3,0.233333333,-0.023148148,1,0,0,0.5093,optionRight,70,14710,7,22,0,22,0,1,,,,,,,,,,,,,,,,,,,,,,,,,,,,,,,,,,,,,,,
,,,,,,,,2023-08-16_08h43.20.808,HF_wild_card,2022.2.4,Win32,146.6705779,5de8d181a91be383f644bd8c,64d2fd46c836a06233681665,64dc7e0fe78443ba51b5d4a3,,,,,,,decisionTrl,resources/DP.BMP,resources/DB.BMP,Door2,-0.253703704,-0.019444444,1,0,0,0.895,optionLeft,20,14730,7,23,0,23,0,1,,,,,,,,,,,,,,,,,,,,,,,,,,,,,,,,,,,,,,,
,,,,,,,,2023-08-16_08h43.20.808,HF_wild_card,2022.2.4,Win32,146.6705779,5de8d181a91be383f644bd8c,64d2fd46c836a06233681665,64dc7e0fe78443ba51b5d4a3,,,,,,,decisionTrl,resources/DY.BMP,resources/DG.BMP,Door3,-0.183333333,-0.006481481,1,0,0,0.4854,optionLeft,70,14800,7,24,0,24,0,1,,,,,,,,,,,,,,,,,,,,,,,,,,,,,,,,,,,,,,,
,,,,,,,,2023-08-16_08h43.20.808,HF_wild_card,2022.2.4,Win32,146.6705779,5de8d181a91be383f644bd8c,64d2fd46c836a06233681665,64dc7e0fe78443ba51b5d4a3,,,,,,,decisionTrl,resources/DY.BMP,resources/DG.BMP,Door3,-0.193518519,-0.003703704,1,0,0,0.4121,optionLeft,70,14870,7,25,0,25,0,1,,,,,,,,,,,,,,,,,,,,,,,,,,,,,,,,,,,,,,,
,,,,,,,,2023-08-16_08h43.20.808,HF_wild_card,2022.2.4,Win32,146.6705779,5de8d181a91be383f644bd8c,64d2fd46c836a06233681665,64dc7e0fe78443ba51b5d4a3,,,,,,,decisionTrl,resources/DG.BMP,resources/DY.BMP,Door3,0.223148148,-0.012962963,1,0,0,0.4362,optionRight,70,14940,7,26,0,26,0,1,,,,,,,,,,,,,,,,,,,,,,,,,,,,,,,,,,,,,,,
,,,,,,,,2023-08-16_08h43.20.808,HF_wild_card,2022.2.4,Win32,146.6705779,5de8d181a91be383f644bd8c,64d2fd46c836a06233681665,64dc7e0fe78443ba51b5d4a3,,,,,,,decisionTrl,resources/DY.BMP,resources/DG.BMP,Door3,-0.261111111,0.002777778,1,0,0,0.4366,optionLeft,70,15010,7,27,0,27,0,1,,,,,,,,,,,,,,,,,,,,,,,,,,,,,,,,,,,,,,,
,,,,,,,,2023-08-16_08h43.20.808,HF_wild_card,2022.2.4,Win32,146.6705779,5de8d181a91be383f644bd8c,64d2fd46c836a06233681665,64dc7e0fe78443ba51b5d4a3,,,,,,,decisionTrl,resources/DB.BMP,resources/DP.BMP,Door2,0.244444444,-0.024074074,1,0,0,0.9896,optionRight,20,15030,7,28,0,28,0,1,,,,,,,,,,,,,,,,,,,,,,,,,,,,,,,,,,,,,,,
,,,,,,,,2023-08-16_08h43.20.808,HF_wild_card,2022.2.4,Win32,146.6705779,5de8d181a91be383f644bd8c,64d2fd46c836a06233681665,64dc7e0fe78443ba51b5d4a3,,,,,,,ctch,resources/DG.BMP,resources/DB.BMP,Door4,-0.22962963,-0.022222222,1,0,0,0.76,optionLeft,80,15110,7,29,0,29,0,1,,,,,,,,,,,,,,,,,,,,,,,,,,,,,,,,,,,,,,,
,,,,,,,,2023-08-16_08h43.20.808,HF_wild_card,2022.2.4,Win32,146.6705779,5de8d181a91be383f644bd8c,64d2fd46c836a06233681665,64dc7e0fe78443ba51b5d4a3,,,,,,,decisionTrl,resources/DP.BMP,resources/DB.BMP,Door2,-0.265740741,-0.030555556,1,0,0,0.5407,optionLeft,20,15130,7,30,0,30,0,1,,,,,,,,,,,,,,,,,,,,,,,,,,,,,,,,,,,,,,,
,,,,,,,,2023-08-16_08h43.20.808,HF_wild_card,2022.2.4,Win32,146.6705779,5de8d181a91be383f644bd8c,64d2fd46c836a06233681665,64dc7e0fe78443ba51b5d4a3,,,,,,,decisionTrl,resources/DP.BMP,resources/DB.BMP,Door2,-0.311111111,0.003703704,1,0,0,0.5269,optionLeft,40,15170,7,31,0,31,0,1,,,,,,,,,,,,,,,,,,,,,,,,,,,,,,,,,,,,,,,
,,,,,,,,2023-08-16_08h43.20.808,HF_wild_card,2022.2.4,Win32,146.6705779,5de8d181a91be383f644bd8c,64d2fd46c836a06233681665,64dc7e0fe78443ba51b5d4a3,,,,,,,decisionTrl,resources/DB.BMP,resources/DP.BMP,Door2,0.168518519,-0.008333333,1,0,0,0.4675,optionRight,40,15210,7,32,0,32,0,1,,,,,,,,,,,,,,,,,,,,,,,,,,,,,,,,,,,,,,,
,,,,,,,,2023-08-16_08h43.20.808,HF_wild_card,2022.2.4,Win32,146.6705779,5de8d181a91be383f644bd8c,64d2fd46c836a06233681665,64dc7e0fe78443ba51b5d4a3,,,,,,,decisionTrl,resources/DP.BMP,resources/DB.BMP,Door2,-0.162037037,-0.013888889,1,0,0,0.433,optionLeft,40,15250,7,33,0,33,0,1,,,,,,,,,,,,,,,,,,,,,,,,,,,,,,,,,,,,,,,
,,,,,,,,2023-08-16_08h43.20.808,HF_wild_card,2022.2.4,Win32,146.6705779,5de8d181a91be383f644bd8c,64d2fd46c836a06233681665,64dc7e0fe78443ba51b5d4a3,,,,,,,ctch,resources/DP.BMP,resources/DY.BMP,Door3,0.239814815,-0.027777778,1,0,0,0.4299,optionRight,70,15320,7,34,0,34,0,1,,,,,,,,,,,,,,,,,,,,,,,,,,,,,,,,,,,,,,,
,,,,,,,,2023-08-16_08h43.20.808,HF_wild_card,2022.2.4,Win32,146.6705779,5de8d181a91be383f644bd8c,64d2fd46c836a06233681665,64dc7e0fe78443ba51b5d4a3,,,,,,,decisionTrl,resources/DG.BMP,resources/DY.BMP,Door3,0.202777778,-0.023148148,1,0,0,0.4744,optionRight,70,15390,7,35,0,35,0,1,,,,,,,,,,,,,,,,,,,,,,,,,,,,,,,,,,,,,,,
,,,,,,,,2023-08-16_08h43.20.808,HF_wild_card,2022.2.4,Win32,146.6705779,5de8d181a91be383f644bd8c,64d2fd46c836a06233681665,64dc7e0fe78443ba51b5d4a3,,,,,,,,,,,,,,,,,,,,,,,,,,6,0,6,0,1,,,,,,,,,,,,,,,,,,,,,,,,,,,,,,,,,,
,,,,,,,,2023-08-16_08h43.20.808,HF_wild_card,2022.2.4,Win32,146.6705779,5de8d181a91be383f644bd8c,64d2fd46c836a06233681665,64dc7e0fe78443ba51b5d4a3,,,,,,,,,,,,,,,,,,,,,,,,,,,,,,,3,,,,,,,,,,,,,,,,,,,,,,,,,,,,,,,,,
,,,,,,,,2023-08-16_08h43.20.808,HF_wild_card,2022.2.4,Win32,146.6705779,5de8d181a91be383f644bd8c,64d2fd46c836a06233681665,64dc7e0fe78443ba51b5d4a3,,,,,,,,,,,,,,,,,,,,,,,,,,,,,,,,,,,,,,,,,,,,,,,,,,,,,,,,,,,,,,,,
,,,,,,,,2023-08-16_08h43.20.808,HF_wild_card,2022.2.4,Win32,146.6705779,5de8d181a91be383f644bd8c,64d2fd46c836a06233681665,64dc7e0fe78443ba51b5d4a3,,,,,,,,,,,,,,,,,,,,,,,,,,,,,,,,20,WC_nonExtreme,resources/DR.BMP,0,0,0,0,1,,,,,,,,,,,,,,,,,,,,,,,,,
,,,,,,,,2023-08-16_08h43.20.808,HF_wild_card,2022.2.4,Win32,146.6705779,5de8d181a91be383f644bd8c,64d2fd46c836a06233681665,64dc7e0fe78443ba51b5d4a3,,,,,,,,,,,,,,,,,,,,,,,,,,,,,,,,5,WC_extreme,resources/DBN.BMP,1,0,1,0,1,,,,,,,,,,,,,,,,,,,,,,,,,
,,,,,,,,2023-08-16_08h43.20.808,HF_wild_card,2022.2.4,Win32,146.6705779,5de8d181a91be383f644bd8c,64d2fd46c836a06233681665,64dc7e0fe78443ba51b5d4a3,,,,,,,,,,,,,,,,,,,,,,,,,,,,,,,,30,Door1,resources/DB.BMP,2,0,2,0,1,,,,,,,,,,,,,,,,,,,,,,,,,
,,,,,,,,2023-08-16_08h43.20.808,HF_wild_card,2022.2.4,Win32,146.6705779,5de8d181a91be383f644bd8c,64d2fd46c836a06233681665,64dc7e0fe78443ba51b5d4a3,,,,,,,,,,,,,,,,,,,,,,,,,,,,,,,,40,Door2,resources/DP.BMP,3,0,3,0,1,,,,,,,,,,,,,,,,,,,,,,,,,
,,,,,,,,2023-08-16_08h43.20.808,HF_wild_card,2022.2.4,Win32,146.6705779,5de8d181a91be383f644bd8c,64d2fd46c836a06233681665,64dc7e0fe78443ba51b5d4a3,,,,,,,,,,,,,,,,,,,,,,,,,,,,,,,,80,Door3,resources/DY.BMP,4,0,4,0,1,,,,,,,,,,,,,,,,,,,,,,,,,
,,,,,,,,2023-08-16_08h43.20.808,HF_wild_card,2022.2.4,Win32,146.6705779,5de8d181a91be383f644bd8c,64d2fd46c836a06233681665,64dc7e0fe78443ba51b5d4a3,,,,,,,,,,,,,,,,,,,,,,,,,,,,,,,,70,Door4,resources/DG.BMP,5,0,5,0,1,,,,,,,,,,,,,,,,,,,,,,,,,
,,,,,,,,2023-08-16_08h43.20.808,HF_wild_card,2022.2.4,Win32,146.6705779,5de8d181a91be383f644bd8c,64d2fd46c836a06233681665,64dc7e0fe78443ba51b5d4a3,,,,,,,,,,,,,,,,,,,,,,,,,,,,,,,,,,,,,,,,,,,,,,,,,,,,,,,,,,,,,,,,
,,,,,,,,2023-08-16_08h43.20.808,HF_wild_card,2022.2.4,Win32,146.6705779,5de8d181a91be383f644bd8c,64d2fd46c836a06233681665,64dc7e0fe78443ba51b5d4a3,,,,,,,,,,,,,,,,,,,,,,,,,,,,,,,,,,,,,,,,0,0,0,0,1,,,,,,,,,,,,,,,,,,,,
