Condition,Low fixed image (Door1),Low risky image (Door2),High fixed image (Door3),High risky image (Door4),Extreme Wild Card,NonExtreme Wild Card,,date,expName,psychopyVersion,OS,frameRate,PROLIFIC_PID,STUDY_ID,SESSION_ID,mouse_2.x,mouse_2.y,mouse_2.leftButton,mouse_2.midButton,mouse_2.rightButton,mouse_2.clicked_name,Trial Type,Left Option Image,Right Option Image,Chosen Door,mouse.x,mouse.y,mouse.leftButton,mouse.midButton,mouse.rightButton,mouse.time,mouse.clicked_name,Feedback,Cumulative Reward,Block,trial.thisRepN,trial.thisTrialN,trial.thisN,trial.thisIndex,trial.ran,blocks.thisRepN,blocks.thisTrialN,blocks.thisN,blocks.thisIndex,blocks.ran,Money conversion,First Outcome Reported,Shown Door (First Outcome),Displayed Image (First Outcome),outcomes.thisRepN,outcomes.thisTrialN,outcomes.thisN,outcomes.thisIndex,outcomes.ran,judgments.thisRepN,judgments.thisTrialN,judgments.thisN,judgments.thisIndex,judgments.ran,freqMouse.x,freqMouse.y,freqMouse.leftButton,freqMouse.midButton,freqMouse.rightButton,freqMouse.clicked_name,trials.thisRepN,trials.thisTrialN,trials.thisN,trials.thisIndex,trials.ran,FQJ for first outcome,FQJ for second outcome,Shown Door,Displayed Image,judgBlock.thisRepN,judgBlock.thisTrialN,judgBlock.thisN,judgBlock.thisIndex,judgBlock.ran
0,resources/DG.BMP,resources/DB.BMP,resources/DP.BMP,resources/DR.BMP,resources/DBN.BMP,resources/DY.BMP,,2023-08-16_08h21.10.077,HF_wild_card,2022.2.4,Win32,30.00480077,5fd763c986c8250530939ce2,64d2fd46c836a06233681665,64dc78dc8a4a258588e6c12b,,,,,,,,,,,,,,,,,,,,,,,,,,,,,,,,,,,,,,,,,,,,,,,,,,,,,,,,,,,,,,,,
,,,,,,,,2023-08-16_08h21.10.077,HF_wild_card,2022.2.4,Win32,30.00480077,5fd763c986c8250530939ce2,64d2fd46c836a06233681665,64dc78dc8a4a258588e6c12b,-0.014756944,-0.416666667,1,0,0,agree,,,,,,,,,,,,,,,,,,,,,,,,,,,,,,,,,,,,,,,,,,,,,,,,,,,,,,,,,,
,,,,,,,,2023-08-16_08h21.10.077,HF_wild_card,2022.2.4,Win32,30.00480077,5fd763c986c8250530939ce2,64d2fd46c836a06233681665,64dc78dc8a4a258588e6c12b,,,,,,,,,,,,,,,,,,,,,,,,,,,,,,,,,,,,,,,,,,,,,,,,,,,,,,,,,,,,,,,,
,,,,,,,,2023-08-16_08h21.10.077,HF_wild_card,2022.2.4,Win32,30.00480077,5fd763c986c8250530939ce2,64d2fd46c836a06233681665,64dc78dc8a4a258588e6c12b,,,,,,,decisionTrl,resources/DBN.BMP,resources/DP.BMP,Door3,0.510416667,0.09375,1,0,0,3.7025,optionRight,70,70,1,0,0,0,0,1,,,,,,,,,,,,,,,,,,,,,,,,,,,,,,,,,,,,,,,
,,,,,,,,2023-08-16_08h21.10.077,HF_wild_card,2022.2.4,Win32,30.00480077,5fd763c986c8250530939ce2,64d2fd46c836a06233681665,64dc78dc8a4a258588e6c12b,,,,,,,decisionTrl,resources/DP.BMP,resources/DR.BMP,Door3,-0.306423611,0.014756944,1,0,0,2.1897,optionLeft,70,140,1,1,0,1,0,1,,,,,,,,,,,,,,,,,,,,,,,,,,,,,,,,,,,,,,,
,,,,,,,,2023-08-16_08h21.10.077,HF_wild_card,2022.2.4,Win32,30.00480077,5fd763c986c8250530939ce2,64d2fd46c836a06233681665,64dc78dc8a4a258588e6c12b,,,,,,,decisionTrl,resources/DP.BMP,resources/DR.BMP,Door4,0.411458333,-0.091145833,1,0,0,3.06,optionRight,60,200,1,2,0,2,0,1,,,,,,,,,,,,,,,,,,,,,,,,,,,,,,,,,,,,,,,
,,,,,,,,2023-08-16_08h21.10.077,HF_wild_card,2022.2.4,Win32,30.00480077,5fd763c986c8250530939ce2,64d2fd46c836a06233681665,64dc78dc8a4a258588e6c12b,,,,,,,decisionTrl,resources/DP.BMP,resources/DBN.BMP,Door3,-0.274305556,0.021701389,1,0,0,5.2311,optionLeft,70,270,1,3,0,3,0,1,,,,,,,,,,,,,,,,,,,,,,,,,,,,,,,,,,,,,,,
,,,,,,,,2023-08-16_08h21.10.077,HF_wild_card,2022.2.4,Win32,30.00480077,5fd763c986c8250530939ce2,64d2fd46c836a06233681665,64dc78dc8a4a258588e6c12b,,,,,,,ctch,resources/DG.BMP,resources/DR.BMP,Door1,-0.511284722,-0.036458333,1,0,0,2.4129,optionLeft,30,300,1,4,0,4,0,1,,,,,,,,,,,,,,,,,,,,,,,,,,,,,,,,,,,,,,,
,,,,,,,,2023-08-16_08h21.10.077,HF_wild_card,2022.2.4,Win32,30.00480077,5fd763c986c8250530939ce2,64d2fd46c836a06233681665,64dc78dc8a4a258588e6c12b,,,,,,,ctch,resources/DB.BMP,resources/DP.BMP,Door2,-0.3515625,0.03125,1,0,0,1.6158,optionLeft,20,320,1,5,0,5,0,1,,,,,,,,,,,,,,,,,,,,,,,,,,,,,,,,,,,,,,,
,,,,,,,,2023-08-16_08h21.10.077,HF_wild_card,2022.2.4,Win32,30.00480077,5fd763c986c8250530939ce2,64d2fd46c836a06233681665,64dc78dc8a4a258588e6c12b,,,,,,,decisionTrl,resources/DR.BMP,resources/DP.BMP,Door3,0.454861111,-0.019097222,1,0,0,1.1634,optionRight,70,390,1,6,0,6,0,1,,,,,,,,,,,,,,,,,,,,,,,,,,,,,,,,,,,,,,,
,,,,,,,,2023-08-16_08h21.10.077,HF_wild_card,2022.2.4,Win32,30.00480077,5fd763c986c8250530939ce2,64d2fd46c836a06233681665,64dc78dc8a4a258588e6c12b,,,,,,,decisionTrl,resources/DB.BMP,resources/DG.BMP,Door1,0.473090278,0.032986111,1,0,0,1.1623,optionRight,30,420,1,7,0,7,0,1,,,,,,,,,,,,,,,,,,,,,,,,,,,,,,,,,,,,,,,
,,,,,,,,2023-08-16_08h21.10.077,HF_wild_card,2022.2.4,Win32,30.00480077,5fd763c986c8250530939ce2,64d2fd46c836a06233681665,64dc78dc8a4a258588e6c12b,,,,,,,decisionTrl,resources/DR.BMP,resources/DP.BMP,Door4,-0.328125,-0.015625,1,0,0,2.0352,optionLeft,60,480,1,8,0,8,0,1,,,,,,,,,,,,,,,,,,,,,,,,,,,,,,,,,,,,,,,
,,,,,,,,2023-08-16_08h21.10.077,HF_wild_card,2022.2.4,Win32,30.00480077,5fd763c986c8250530939ce2,64d2fd46c836a06233681665,64dc78dc8a4a258588e6c12b,,,,,,,sngl,resources/Empty.png,resources/DBN.BMP,WildCard_Ex,0.329861111,-0.0234375,1,0,0,1.4311,optionRight,95,575,1,9,0,9,0,1,,,,,,,,,,,,,,,,,,,,,,,,,,,,,,,,,,,,,,,
,,,,,,,,2023-08-16_08h21.10.077,HF_wild_card,2022.2.4,Win32,30.00480077,5fd763c986c8250530939ce2,64d2fd46c836a06233681665,64dc78dc8a4a258588e6c12b,,,,,,,ctch,resources/DP.BMP,resources/DB.BMP,Door3,-0.288194444,0.0078125,1,0,0,1.3758,optionLeft,70,645,1,10,0,10,0,1,,,,,,,,,,,,,,,,,,,,,,,,,,,,,,,,,,,,,,,
,,,,,,,,2023-08-16_08h21.10.077,HF_wild_card,2022.2.4,Win32,30.00480077,5fd763c986c8250530939ce2,64d2fd46c836a06233681665,64dc78dc8a4a258588e6c12b,,,,,,,sngl,resources/Empty.png,resources/DP.BMP,Door3,0.374131944,-0.046006944,1,0,0,1.3832,optionRight,70,715,1,11,0,11,0,1,,,,,,,,,,,,,,,,,,,,,,,,,,,,,,,,,,,,,,,
,,,,,,,,2023-08-16_08h21.10.077,HF_wild_card,2022.2.4,Win32,30.00480077,5fd763c986c8250530939ce2,64d2fd46c836a06233681665,64dc78dc8a4a258588e6c12b,,,,,,,sngl,resources/Empty.png,resources/DBN.BMP,WildCard_Ex,0.610243056,-0.008680556,1,0,0,1.0233,optionRight,5,720,1,12,0,12,0,1,,,,,,,,,,,,,,,,,,,,,,,,,,,,,,,,,,,,,,,
,,,,,,,,2023-08-16_08h21.10.077,HF_wild_card,2022.2.4,Win32,30.00480077,5fd763c986c8250530939ce2,64d2fd46c836a06233681665,64dc78dc8a4a258588e6c12b,,,,,,,decisionTrl,resources/DR.BMP,resources/DBN.BMP,Door4,-0.276909722,-0.0234375,1,0,0,3.0676,optionLeft,60,780,1,13,0,13,0,1,,,,,,,,,,,,,,,,,,,,,,,,,,,,,,,,,,,,,,,
,,,,,,,,2023-08-16_08h21.10.077,HF_wild_card,2022.2.4,Win32,30.00480077,5fd763c986c8250530939ce2,64d2fd46c836a06233681665,64dc78dc8a4a258588e6c12b,,,,,,,sngl,resources/DBN.BMP,resources/Empty.png,WildCard_Ex,-0.256944444,0.036458333,1,0,0,1.0437,optionLeft,5,785,1,14,0,14,0,1,,,,,,,,,,,,,,,,,,,,,,,,,,,,,,,,,,,,,,,
,,,,,,,,2023-08-16_08h21.10.077,HF_wild_card,2022.2.4,Win32,30.00480077,5fd763c986c8250530939ce2,64d2fd46c836a06233681665,64dc78dc8a4a258588e6c12b,,,,,,,ctch,resources/DB.BMP,resources/DP.BMP,Door3,0.263888889,-0.030381944,1,0,0,1.2981,optionRight,70,855,1,15,0,15,0,1,,,,,,,,,,,,,,,,,,,,,,,,,,,,,,,,,,,,,,,
,,,,,,,,2023-08-16_08h21.10.077,HF_wild_card,2022.2.4,Win32,30.00480077,5fd763c986c8250530939ce2,64d2fd46c836a06233681665,64dc78dc8a4a258588e6c12b,,,,,,,ctch,resources/DR.BMP,resources/DG.BMP,Door4,-0.403645833,0.043402778,1,0,0,0.9665,optionLeft,60,915,1,16,0,16,0,1,,,,,,,,,,,,,,,,,,,,,,,,,,,,,,,,,,,,,,,
,,,,,,,,2023-08-16_08h21.10.077,HF_wild_card,2022.2.4,Win32,30.00480077,5fd763c986c8250530939ce2,64d2fd46c836a06233681665,64dc78dc8a4a258588e6c12b,,,,,,,decisionTrl,resources/DB.BMP,resources/DG.BMP,Door1,0.481770833,-0.006944444,1,0,0,0.8979,optionRight,30,945,1,17,0,17,0,1,,,,,,,,,,,,,,,,,,,,,,,,,,,,,,,,,,,,,,,
,,,,,,,,2023-08-16_08h21.10.077,HF_wild_card,2022.2.4,Win32,30.00480077,5fd763c986c8250530939ce2,64d2fd46c836a06233681665,64dc78dc8a4a258588e6c12b,,,,,,,decisionTrl,resources/DR.BMP,resources/DP.BMP,Door4,-0.427951389,0.0625,1,0,0,3.141,optionLeft,80,1025,1,18,0,18,0,1,,,,,,,,,,,,,,,,,,,,,,,,,,,,,,,,,,,,,,,
,,,,,,,,2023-08-16_08h21.10.077,HF_wild_card,2022.2.4,Win32,30.00480077,5fd763c986c8250530939ce2,64d2fd46c836a06233681665,64dc78dc8a4a258588e6c12b,,,,,,,decisionTrl,resources/DG.BMP,resources/DBN.BMP,Door1,-0.354166667,-0.034722222,1,0,0,1.0425,optionLeft,30,1055,1,19,0,19,0,1,,,,,,,,,,,,,,,,,,,,,,,,,,,,,,,,,,,,,,,
,,,,,,,,2023-08-16_08h21.10.077,HF_wild_card,2022.2.4,Win32,30.00480077,5fd763c986c8250530939ce2,64d2fd46c836a06233681665,64dc78dc8a4a258588e6c12b,,,,,,,ctch,resources/DG.BMP,resources/DR.BMP,Door4,0.319444444,-0.046875,1,0,0,3.7467,optionRight,60,1115,1,20,0,20,0,1,,,,,,,,,,,,,,,,,,,,,,,,,,,,,,,,,,,,,,,
,,,,,,,,2023-08-16_08h21.10.077,HF_wild_card,2022.2.4,Win32,30.00480077,5fd763c986c8250530939ce2,64d2fd46c836a06233681665,64dc78dc8a4a258588e6c12b,,,,,,,sngl,resources/Empty.png,resources/DG.BMP,Door1,0.480034722,-0.065972222,1,0,0,0.8286,optionRight,30,1145,1,21,0,21,0,1,,,,,,,,,,,,,,,,,,,,,,,,,,,,,,,,,,,,,,,
,,,,,,,,2023-08-16_08h21.10.077,HF_wild_card,2022.2.4,Win32,30.00480077,5fd763c986c8250530939ce2,64d2fd46c836a06233681665,64dc78dc8a4a258588e6c12b,,,,,,,decisionTrl,resources/DR.BMP,resources/DP.BMP,Door3,0.381076389,-0.017361111,1,0,0,2.1584,optionRight,70,1215,1,22,0,22,0,1,,,,,,,,,,,,,,,,,,,,,,,,,,,,,,,,,,,,,,,
,,,,,,,,2023-08-16_08h21.10.077,HF_wild_card,2022.2.4,Win32,30.00480077,5fd763c986c8250530939ce2,64d2fd46c836a06233681665,64dc78dc8a4a258588e6c12b,,,,,,,decisionTrl,resources/DBN.BMP,resources/DG.BMP,Door1,0.309895833,0.011284722,1,0,0,0.932,optionRight,30,1245,1,23,0,23,0,1,,,,,,,,,,,,,,,,,,,,,,,,,,,,,,,,,,,,,,,
,,,,,,,,2023-08-16_08h21.10.077,HF_wild_card,2022.2.4,Win32,30.00480077,5fd763c986c8250530939ce2,64d2fd46c836a06233681665,64dc78dc8a4a258588e6c12b,,,,,,,decisionTrl,resources/DG.BMP,resources/DB.BMP,Door1,-0.452256944,0.003472222,1,0,0,1.1333,optionLeft,30,1275,1,24,0,24,0,1,,,,,,,,,,,,,,,,,,,,,,,,,,,,,,,,,,,,,,,
,,,,,,,,2023-08-16_08h21.10.077,HF_wild_card,2022.2.4,Win32,30.00480077,5fd763c986c8250530939ce2,64d2fd46c836a06233681665,64dc78dc8a4a258588e6c12b,,,,,,,decisionTrl,resources/DG.BMP,resources/DB.BMP,Door2,0.361979167,-0.048611111,1,0,0,1.6567,optionRight,20,1295,1,25,0,25,0,1,,,,,,,,,,,,,,,,,,,,,,,,,,,,,,,,,,,,,,,
,,,,,,,,2023-08-16_08h21.10.077,HF_wild_card,2022.2.4,Win32,30.00480077,5fd763c986c8250530939ce2,64d2fd46c836a06233681665,64dc78dc8a4a258588e6c12b,,,,,,,decisionTrl,resources/DG.BMP,resources/DB.BMP,Door1,-0.282986111,0.039930556,1,0,0,0.712,optionLeft,30,1325,1,26,0,26,0,1,,,,,,,,,,,,,,,,,,,,,,,,,,,,,,,,,,,,,,,
,,,,,,,,2023-08-16_08h21.10.077,HF_wild_card,2022.2.4,Win32,30.00480077,5fd763c986c8250530939ce2,64d2fd46c836a06233681665,64dc78dc8a4a258588e6c12b,,,,,,,sngl,resources/DB.BMP,resources/Empty.png,Door2,-0.321180556,0.041666667,1,0,0,0.7341,optionLeft,40,1365,1,27,0,27,0,1,,,,,,,,,,,,,,,,,,,,,,,,,,,,,,,,,,,,,,,
,,,,,,,,2023-08-16_08h21.10.077,HF_wild_card,2022.2.4,Win32,30.00480077,5fd763c986c8250530939ce2,64d2fd46c836a06233681665,64dc78dc8a4a258588e6c12b,,,,,,,sngl,resources/DP.BMP,resources/Empty.png,Door3,-0.526041667,0.0546875,1,0,0,1.1673,optionLeft,70,1435,1,28,0,28,0,1,,,,,,,,,,,,,,,,,,,,,,,,,,,,,,,,,,,,,,,
,,,,,,,,2023-08-16_08h21.10.077,HF_wild_card,2022.2.4,Win32,30.00480077,5fd763c986c8250530939ce2,64d2fd46c836a06233681665,64dc78dc8a4a258588e6c12b,,,,,,,ctch,resources/DR.BMP,resources/DG.BMP,Door4,-0.443576389,-0.063368056,1,0,0,0.7095,optionLeft,80,1515,1,29,0,29,0,1,,,,,,,,,,,,,,,,,,,,,,,,,,,,,,,,,,,,,,,
,,,,,,,,2023-08-16_08h21.10.077,HF_wild_card,2022.2.4,Win32,30.00480077,5fd763c986c8250530939ce2,64d2fd46c836a06233681665,64dc78dc8a4a258588e6c12b,,,,,,,decisionTrl,resources/DP.BMP,resources/DR.BMP,Door3,-0.512152778,-0.113715278,1,0,0,0.9387,optionLeft,70,1585,1,30,0,30,0,1,,,,,,,,,,,,,,,,,,,,,,,,,,,,,,,,,,,,,,,
,,,,,,,,2023-08-16_08h21.10.077,HF_wild_card,2022.2.4,Win32,30.00480077,5fd763c986c8250530939ce2,64d2fd46c836a06233681665,64dc78dc8a4a258588e6c12b,,,,,,,decisionTrl,resources/DBN.BMP,resources/DB.BMP,Door2,0.342881944,-0.026909722,1,0,0,0.9636,optionRight,20,1605,1,31,0,31,0,1,,,,,,,,,,,,,,,,,,,,,,,,,,,,,,,,,,,,,,,
,,,,,,,,2023-08-16_08h21.10.077,HF_wild_card,2022.2.4,Win32,30.00480077,5fd763c986c8250530939ce2,64d2fd46c836a06233681665,64dc78dc8a4a258588e6c12b,,,,,,,ctch,resources/DP.BMP,resources/DB.BMP,Door3,-0.256944444,-0.034722222,1,0,0,0.7453,optionLeft,70,1675,1,32,0,32,0,1,,,,,,,,,,,,,,,,,,,,,,,,,,,,,,,,,,,,,,,
,,,,,,,,2023-08-16_08h21.10.077,HF_wild_card,2022.2.4,Win32,30.00480077,5fd763c986c8250530939ce2,64d2fd46c836a06233681665,64dc78dc8a4a258588e6c12b,,,,,,,sngl,resources/Empty.png,resources/DR.BMP,Door4,0.325520833,-0.001736111,1,0,0,2.5893,optionRight,60,1735,1,33,0,33,0,1,,,,,,,,,,,,,,,,,,,,,,,,,,,,,,,,,,,,,,,
,,,,,,,,2023-08-16_08h21.10.077,HF_wild_card,2022.2.4,Win32,30.00480077,5fd763c986c8250530939ce2,64d2fd46c836a06233681665,64dc78dc8a4a258588e6c12b,,,,,,,decisionTrl,resources/DB.BMP,resources/DBN.BMP,Door2,-0.374131944,0.010416667,1,0,0,1.1629,optionLeft,20,1755,1,34,0,34,0,1,,,,,,,,,,,,,,,,,,,,,,,,,,,,,,,,,,,,,,,
,,,,,,,,2023-08-16_08h21.10.077,HF_wild_card,2022.2.4,Win32,30.00480077,5fd763c986c8250530939ce2,64d2fd46c836a06233681665,64dc78dc8a4a258588e6c12b,,,,,,,sngl,resources/DBN.BMP,resources/Empty.png,WildCard_Ex,-0.191840278,0.006076389,1,0,0,0.8212,optionLeft,95,1850,1,35,0,35,0,1,,,,,,,,,,,,,,,,,,,,,,,,,,,,,,,,,,,,,,,
,,,,,,,,2023-08-16_08h21.10.077,HF_wild_card,2022.2.4,Win32,30.00480077,5fd763c986c8250530939ce2,64d2fd46c836a06233681665,64dc78dc8a4a258588e6c12b,,,,,,,decisionTrl,resources/DB.BMP,resources/DG.BMP,Door1,0.241319444,-0.046875,1,0,0,1.3157,optionRight,30,1880,1,36,0,36,0,1,,,,,,,,,,,,,,,,,,,,,,,,,,,,,,,,,,,,,,,
,,,,,,,,2023-08-16_08h21.10.077,HF_wild_card,2022.2.4,Win32,30.00480077,5fd763c986c8250530939ce2,64d2fd46c836a06233681665,64dc78dc8a4a258588e6c12b,,,,,,,decisionTrl,resources/DP.BMP,resources/DR.BMP,Door3,-0.296875,-0.001736111,1,0,0,0.8245,optionLeft,70,1950,1,37,0,37,0,1,,,,,,,,,,,,,,,,,,,,,,,,,,,,,,,,,,,,,,,
,,,,,,,,2023-08-16_08h21.10.077,HF_wild_card,2022.2.4,Win32,30.00480077,5fd763c986c8250530939ce2,64d2fd46c836a06233681665,64dc78dc8a4a258588e6c12b,,,,,,,decisionTrl,resources/DBN.BMP,resources/DR.BMP,Door4,0.375868056,-0.050347222,1,0,0,0.8444,optionRight,60,2010,1,38,0,38,0,1,,,,,,,,,,,,,,,,,,,,,,,,,,,,,,,,,,,,,,,
,,,,,,,,2023-08-16_08h21.10.077,HF_wild_card,2022.2.4,Win32,30.00480077,5fd763c986c8250530939ce2,64d2fd46c836a06233681665,64dc78dc8a4a258588e6c12b,,,,,,,sngl,resources/DR.BMP,resources/Empty.png,Door4,-0.266493056,-0.030381944,1,0,0,0.7386,optionLeft,80,2090,1,39,0,39,0,1,,,,,,,,,,,,,,,,,,,,,,,,,,,,,,,,,,,,,,,
,,,,,,,,2023-08-16_08h21.10.077,HF_wild_card,2022.2.4,Win32,30.00480077,5fd763c986c8250530939ce2,64d2fd46c836a06233681665,64dc78dc8a4a258588e6c12b,,,,,,,decisionTrl,resources/DG.BMP,resources/DB.BMP,Door1,-0.2109375,-0.073784722,1,0,0,1.5804,optionLeft,30,2120,1,40,0,40,0,1,,,,,,,,,,,,,,,,,,,,,,,,,,,,,,,,,,,,,,,
,,,,,,,,2023-08-16_08h21.10.077,HF_wild_card,2022.2.4,Win32,30.00480077,5fd763c986c8250530939ce2,64d2fd46c836a06233681665,64dc78dc8a4a258588e6c12b,,,,,,,sngl,resources/Empty.png,resources/DB.BMP,Door2,0.338541667,-0.036458333,1,0,0,0.738,optionRight,20,2140,1,41,0,41,0,1,,,,,,,,,,,,,,,,,,,,,,,,,,,,,,,,,,,,,,,
,,,,,,,,2023-08-16_08h21.10.077,HF_wild_card,2022.2.4,Win32,30.00480077,5fd763c986c8250530939ce2,64d2fd46c836a06233681665,64dc78dc8a4a258588e6c12b,,,,,,,sngl,resources/DG.BMP,resources/Empty.png,Door1,-0.368923611,-0.0234375,1,0,0,0.5613,optionLeft,30,2170,1,42,0,42,0,1,,,,,,,,,,,,,,,,,,,,,,,,,,,,,,,,,,,,,,,
,,,,,,,,2023-08-16_08h21.10.077,HF_wild_card,2022.2.4,Win32,30.00480077,5fd763c986c8250530939ce2,64d2fd46c836a06233681665,64dc78dc8a4a258588e6c12b,,,,,,,decisionTrl,resources/DB.BMP,resources/DG.BMP,Door1,0.462673611,-0.052083333,1,0,0,1.1082,optionRight,30,2200,1,43,0,43,0,1,,,,,,,,,,,,,,,,,,,,,,,,,,,,,,,,,,,,,,,
,,,,,,,,2023-08-16_08h21.10.077,HF_wild_card,2022.2.4,Win32,30.00480077,5fd763c986c8250530939ce2,64d2fd46c836a06233681665,64dc78dc8a4a258588e6c12b,,,,,,,,,,,,,,,,,,,,,,,,,,0,0,0,0,1,,,,,,,,,,,,,,,,,,,,,,,,,,,,,,,,,,
,,,,,,,,2023-08-16_08h21.10.077,HF_wild_card,2022.2.4,Win32,30.00480077,5fd763c986c8250530939ce2,64d2fd46c836a06233681665,64dc78dc8a4a258588e6c12b,,,,,,,decisionTrl,resources/DP.BMP,resources/DR.BMP,Door3,-0.372395833,-0.076388889,1,0,0,1.9148,optionLeft,70,2270,2,0,0,0,0,1,,,,,,,,,,,,,,,,,,,,,,,,,,,,,,,,,,,,,,,
,,,,,,,,2023-08-16_08h21.10.077,HF_wild_card,2022.2.4,Win32,30.00480077,5fd763c986c8250530939ce2,64d2fd46c836a06233681665,64dc78dc8a4a258588e6c12b,,,,,,,sngl,resources/DBN.BMP,resources/Empty.png,WildCard_Ex,-0.439236111,-0.041666667,1,0,0,0.7899,optionLeft,5,2275,2,1,0,1,0,1,,,,,,,,,,,,,,,,,,,,,,,,,,,,,,,,,,,,,,,
,,,,,,,,2023-08-16_08h21.10.077,HF_wild_card,2022.2.4,Win32,30.00480077,5fd763c986c8250530939ce2,64d2fd46c836a06233681665,64dc78dc8a4a258588e6c12b,,,,,,,sngl,resources/DR.BMP,resources/Empty.png,Door4,-0.521701389,-0.013020833,1,0,0,0.6219,optionLeft,60,2335,2,2,0,2,0,1,,,,,,,,,,,,,,,,,,,,,,,,,,,,,,,,,,,,,,,
,,,,,,,,2023-08-16_08h21.10.077,HF_wild_card,2022.2.4,Win32,30.00480077,5fd763c986c8250530939ce2,64d2fd46c836a06233681665,64dc78dc8a4a258588e6c12b,,,,,,,sngl,resources/Empty.png,resources/DG.BMP,Door1,0.344618056,0.014756944,1,0,0,0.6934,optionRight,30,2365,2,3,0,3,0,1,,,,,,,,,,,,,,,,,,,,,,,,,,,,,,,,,,,,,,,
,,,,,,,,2023-08-16_08h21.10.077,HF_wild_card,2022.2.4,Win32,30.00480077,5fd763c986c8250530939ce2,64d2fd46c836a06233681665,64dc78dc8a4a258588e6c12b,,,,,,,sngl,resources/Empty.png,resources/DP.BMP,Door3,0.410590278,-0.090277778,1,0,0,0.6781,optionRight,70,2435,2,4,0,4,0,1,,,,,,,,,,,,,,,,,,,,,,,,,,,,,,,,,,,,,,,
,,,,,,,,2023-08-16_08h21.10.077,HF_wild_card,2022.2.4,Win32,30.00480077,5fd763c986c8250530939ce2,64d2fd46c836a06233681665,64dc78dc8a4a258588e6c12b,,,,,,,sngl,resources/Empty.png,resources/DB.BMP,Door2,0.322916667,-0.006944444,1,0,0,0.6223,optionRight,40,2475,2,5,0,5,0,1,,,,,,,,,,,,,,,,,,,,,,,,,,,,,,,,,,,,,,,
,,,,,,,,2023-08-16_08h21.10.077,HF_wild_card,2022.2.4,Win32,30.00480077,5fd763c986c8250530939ce2,64d2fd46c836a06233681665,64dc78dc8a4a258588e6c12b,,,,,,,decisionTrl,resources/DP.BMP,resources/DR.BMP,Door3,-0.558159722,0.046875,1,0,0,0.729,optionLeft,70,2545,2,6,0,6,0,1,,,,,,,,,,,,,,,,,,,,,,,,,,,,,,,,,,,,,,,
,,,,,,,,2023-08-16_08h21.10.077,HF_wild_card,2022.2.4,Win32,30.00480077,5fd763c986c8250530939ce2,64d2fd46c836a06233681665,64dc78dc8a4a258588e6c12b,,,,,,,decisionTrl,resources/DR.BMP,resources/DP.BMP,Door3,0.3828125,-0.0390625,1,0,0,0.7037,optionRight,70,2615,2,7,0,7,0,1,,,,,,,,,,,,,,,,,,,,,,,,,,,,,,,,,,,,,,,
,,,,,,,,2023-08-16_08h21.10.077,HF_wild_card,2022.2.4,Win32,30.00480077,5fd763c986c8250530939ce2,64d2fd46c836a06233681665,64dc78dc8a4a258588e6c12b,,,,,,,decisionTrl,resources/DB.BMP,resources/DG.BMP,Door1,0.308159722,-0.059027778,1,0,0,0.9045,optionRight,30,2645,2,8,0,8,0,1,,,,,,,,,,,,,,,,,,,,,,,,,,,,,,,,,,,,,,,
,,,,,,,,2023-08-16_08h21.10.077,HF_wild_card,2022.2.4,Win32,30.00480077,5fd763c986c8250530939ce2,64d2fd46c836a06233681665,64dc78dc8a4a258588e6c12b,,,,,,,decisionTrl,resources/DB.BMP,resources/DG.BMP,Door2,-0.310763889,0.018229167,1,0,0,0.7273,optionLeft,40,2685,2,9,0,9,0,1,,,,,,,,,,,,,,,,,,,,,,,,,,,,,,,,,,,,,,,
,,,,,,,,2023-08-16_08h21.10.077,HF_wild_card,2022.2.4,Win32,30.00480077,5fd763c986c8250530939ce2,64d2fd46c836a06233681665,64dc78dc8a4a258588e6c12b,,,,,,,decisionTrl,resources/DBN.BMP,resources/DB.BMP,Door2,0.423611111,-0.116319444,1,0,0,0.9155,optionRight,40,2725,2,10,0,10,0,1,,,,,,,,,,,,,,,,,,,,,,,,,,,,,,,,,,,,,,,
,,,,,,,,2023-08-16_08h21.10.077,HF_wild_card,2022.2.4,Win32,30.00480077,5fd763c986c8250530939ce2,64d2fd46c836a06233681665,64dc78dc8a4a258588e6c12b,,,,,,,decisionTrl,resources/DBN.BMP,resources/DG.BMP,Door1,0.448784722,-0.092881944,1,0,0,0.9703,optionRight,30,2755,2,11,0,11,0,1,,,,,,,,,,,,,,,,,,,,,,,,,,,,,,,,,,,,,,,
,,,,,,,,2023-08-16_08h21.10.077,HF_wild_card,2022.2.4,Win32,30.00480077,5fd763c986c8250530939ce2,64d2fd46c836a06233681665,64dc78dc8a4a258588e6c12b,,,,,,,decisionTrl,resources/DBN.BMP,resources/DP.BMP,Door3,0.4453125,-0.111979167,1,0,0,0.7165,optionRight,70,2825,2,12,0,12,0,1,,,,,,,,,,,,,,,,,,,,,,,,,,,,,,,,,,,,,,,
,,,,,,,,2023-08-16_08h21.10.077,HF_wild_card,2022.2.4,Win32,30.00480077,5fd763c986c8250530939ce2,64d2fd46c836a06233681665,64dc78dc8a4a258588e6c12b,,,,,,,sngl,resources/Empty.png,resources/DBN.BMP,WildCard_Ex,0.322048611,-0.063368056,1,0,0,0.7632,optionRight,5,2830,2,13,0,13,0,1,,,,,,,,,,,,,,,,,,,,,,,,,,,,,,,,,,,,,,,
,,,,,,,,2023-08-16_08h21.10.077,HF_wild_card,2022.2.4,Win32,30.00480077,5fd763c986c8250530939ce2,64d2fd46c836a06233681665,64dc78dc8a4a258588e6c12b,,,,,,,decisionTrl,resources/DG.BMP,resources/DB.BMP,Door1,-0.381076389,0.146701389,1,0,0,1.5608,optionLeft,30,2860,2,14,0,14,0,1,,,,,,,,,,,,,,,,,,,,,,,,,,,,,,,,,,,,,,,
,,,,,,,,2023-08-16_08h21.10.077,HF_wild_card,2022.2.4,Win32,30.00480077,5fd763c986c8250530939ce2,64d2fd46c836a06233681665,64dc78dc8a4a258588e6c12b,,,,,,,decisionTrl,resources/DR.BMP,resources/DBN.BMP,Door4,-0.460069444,0.170138889,1,0,0,0.8832,optionLeft,60,2920,2,15,0,15,0,1,,,,,,,,,,,,,,,,,,,,,,,,,,,,,,,,,,,,,,,
,,,,,,,,2023-08-16_08h21.10.077,HF_wild_card,2022.2.4,Win32,30.00480077,5fd763c986c8250530939ce2,64d2fd46c836a06233681665,64dc78dc8a4a258588e6c12b,,,,,,,decisionTrl,resources/DG.BMP,resources/DB.BMP,Door1,-0.338541667,0.004340278,1,0,0,1.7633,optionLeft,30,2950,2,16,0,16,0,1,,,,,,,,,,,,,,,,,,,,,,,,,,,,,,,,,,,,,,,
,,,,,,,,2023-08-16_08h21.10.077,HF_wild_card,2022.2.4,Win32,30.00480077,5fd763c986c8250530939ce2,64d2fd46c836a06233681665,64dc78dc8a4a258588e6c12b,,,,,,,ctch,resources/DG.BMP,resources/DR.BMP,Door1,-0.184027778,-0.038194444,1,0,0,2.079,optionLeft,30,2980,2,17,0,17,0,1,,,,,,,,,,,,,,,,,,,,,,,,,,,,,,,,,,,,,,,
,,,,,,,,2023-08-16_08h21.10.077,HF_wild_card,2022.2.4,Win32,30.00480077,5fd763c986c8250530939ce2,64d2fd46c836a06233681665,64dc78dc8a4a258588e6c12b,,,,,,,decisionTrl,resources/DB.BMP,resources/DG.BMP,Door1,0.236111111,0.006944444,1,0,0,1.8813,optionRight,30,3010,2,18,0,18,0,1,,,,,,,,,,,,,,,,,,,,,,,,,,,,,,,,,,,,,,,
,,,,,,,,2023-08-16_08h21.10.077,HF_wild_card,2022.2.4,Win32,30.00480077,5fd763c986c8250530939ce2,64d2fd46c836a06233681665,64dc78dc8a4a258588e6c12b,,,,,,,decisionTrl,resources/DR.BMP,resources/DP.BMP,Door3,0.307291667,-0.043402778,1,0,0,1.9218,optionRight,70,3080,2,19,0,19,0,1,,,,,,,,,,,,,,,,,,,,,,,,,,,,,,,,,,,,,,,
,,,,,,,,2023-08-16_08h21.10.077,HF_wild_card,2022.2.4,Win32,30.00480077,5fd763c986c8250530939ce2,64d2fd46c836a06233681665,64dc78dc8a4a258588e6c12b,,,,,,,decisionTrl,resources/DG.BMP,resources/DB.BMP,Door1,-0.219618056,-0.091145833,1,0,0,8.7747,optionLeft,30,3110,2,20,0,20,0,1,,,,,,,,,,,,,,,,,,,,,,,,,,,,,,,,,,,,,,,
,,,,,,,,2023-08-16_08h21.10.077,HF_wild_card,2022.2.4,Win32,30.00480077,5fd763c986c8250530939ce2,64d2fd46c836a06233681665,64dc78dc8a4a258588e6c12b,,,,,,,sngl,resources/DBN.BMP,resources/Empty.png,WildCard_Ex,-0.359375,0.005208333,1,0,0,0.7591,optionLeft,95,3205,2,21,0,21,0,1,,,,,,,,,,,,,,,,,,,,,,,,,,,,,,,,,,,,,,,
,,,,,,,,2023-08-16_08h21.10.077,HF_wild_card,2022.2.4,Win32,30.00480077,5fd763c986c8250530939ce2,64d2fd46c836a06233681665,64dc78dc8a4a258588e6c12b,,,,,,,sngl,resources/DP.BMP,resources/Empty.png,Door3,-0.400173611,0.076388889,1,0,0,0.6202,optionLeft,70,3275,2,22,0,22,0,1,,,,,,,,,,,,,,,,,,,,,,,,,,,,,,,,,,,,,,,
,,,,,,,,2023-08-16_08h21.10.077,HF_wild_card,2022.2.4,Win32,30.00480077,5fd763c986c8250530939ce2,64d2fd46c836a06233681665,64dc78dc8a4a258588e6c12b,,,,,,,ctch,resources/DP.BMP,resources/DB.BMP,Door3,-0.193576389,-0.124131944,1,0,0,6.4471,optionLeft,70,3345,2,23,0,23,0,1,,,,,,,,,,,,,,,,,,,,,,,,,,,,,,,,,,,,,,,
,,,,,,,,2023-08-16_08h21.10.077,HF_wild_card,2022.2.4,Win32,30.00480077,5fd763c986c8250530939ce2,64d2fd46c836a06233681665,64dc78dc8a4a258588e6c12b,,,,,,,sngl,resources/DB.BMP,resources/Empty.png,Door2,-0.172743056,0.016493056,1,0,0,0.79,optionLeft,20,3365,2,24,0,24,0,1,,,,,,,,,,,,,,,,,,,,,,,,,,,,,,,,,,,,,,,
,,,,,,,,2023-08-16_08h21.10.077,HF_wild_card,2022.2.4,Win32,30.00480077,5fd763c986c8250530939ce2,64d2fd46c836a06233681665,64dc78dc8a4a258588e6c12b,,,,,,,decisionTrl,resources/DB.BMP,resources/DBN.BMP,Door2,-0.386284722,0.019965278,1,0,0,0.8796,optionLeft,40,3405,2,25,0,25,0,1,,,,,,,,,,,,,,,,,,,,,,,,,,,,,,,,,,,,,,,
,,,,,,,,2023-08-16_08h21.10.077,HF_wild_card,2022.2.4,Win32,30.00480077,5fd763c986c8250530939ce2,64d2fd46c836a06233681665,64dc78dc8a4a258588e6c12b,,,,,,,sngl,resources/DG.BMP,resources/Empty.png,Door1,-0.253472222,0.036458333,1,0,0,0.7041,optionLeft,30,3435,2,26,0,26,0,1,,,,,,,,,,,,,,,,,,,,,,,,,,,,,,,,,,,,,,,
,,,,,,,,2023-08-16_08h21.10.077,HF_wild_card,2022.2.4,Win32,30.00480077,5fd763c986c8250530939ce2,64d2fd46c836a06233681665,64dc78dc8a4a258588e6c12b,,,,,,,decisionTrl,resources/DG.BMP,resources/DB.BMP,Door1,-0.463541667,0.006076389,1,0,0,0.9748,optionLeft,30,3465,2,27,0,27,0,1,,,,,,,,,,,,,,,,,,,,,,,,,,,,,,,,,,,,,,,
,,,,,,,,2023-08-16_08h21.10.077,HF_wild_card,2022.2.4,Win32,30.00480077,5fd763c986c8250530939ce2,64d2fd46c836a06233681665,64dc78dc8a4a258588e6c12b,,,,,,,decisionTrl,resources/DP.BMP,resources/DR.BMP,Door3,-0.250868056,-0.016493056,1,0,0,1.7151,optionLeft,70,3535,2,28,0,28,0,1,,,,,,,,,,,,,,,,,,,,,,,,,,,,,,,,,,,,,,,
,,,,,,,,2023-08-16_08h21.10.077,HF_wild_card,2022.2.4,Win32,30.00480077,5fd763c986c8250530939ce2,64d2fd46c836a06233681665,64dc78dc8a4a258588e6c12b,,,,,,,decisionTrl,resources/DR.BMP,resources/DP.BMP,Door3,0.428819444,-0.030381944,1,0,0,1.4769,optionRight,70,3605,2,29,0,29,0,1,,,,,,,,,,,,,,,,,,,,,,,,,,,,,,,,,,,,,,,
,,,,,,,,2023-08-16_08h21.10.077,HF_wild_card,2022.2.4,Win32,30.00480077,5fd763c986c8250530939ce2,64d2fd46c836a06233681665,64dc78dc8a4a258588e6c12b,,,,,,,ctch,resources/DB.BMP,resources/DP.BMP,Door3,0.670138889,0.000868056,1,0,0,0.7786,optionRight,70,3675,2,30,0,30,0,1,,,,,,,,,,,,,,,,,,,,,,,,,,,,,,,,,,,,,,,
,,,,,,,,2023-08-16_08h21.10.077,HF_wild_card,2022.2.4,Win32,30.00480077,5fd763c986c8250530939ce2,64d2fd46c836a06233681665,64dc78dc8a4a258588e6c12b,,,,,,,decisionTrl,resources/DP.BMP,resources/DBN.BMP,Door3,-0.203993056,0.010416667,1,0,0,0.4873,optionLeft,70,3745,2,31,0,31,0,1,,,,,,,,,,,,,,,,,,,,,,,,,,,,,,,,,,,,,,,
,,,,,,,,2023-08-16_08h21.10.077,HF_wild_card,2022.2.4,Win32,30.00480077,5fd763c986c8250530939ce2,64d2fd46c836a06233681665,64dc78dc8a4a258588e6c12b,,,,,,,decisionTrl,resources/DP.BMP,resources/DR.BMP,Door3,-0.209201389,0.010416667,1,0,0,0.5635,optionLeft,70,3815,2,32,0,32,0,1,,,,,,,,,,,,,,,,,,,,,,,,,,,,,,,,,,,,,,,
,,,,,,,,2023-08-16_08h21.10.077,HF_wild_card,2022.2.4,Win32,30.00480077,5fd763c986c8250530939ce2,64d2fd46c836a06233681665,64dc78dc8a4a258588e6c12b,,,,,,,sngl,resources/Empty.png,resources/DR.BMP,Door4,0.246527778,0.005208333,1,0,0,0.5381,optionRight,80,3895,2,33,0,33,0,1,,,,,,,,,,,,,,,,,,,,,,,,,,,,,,,,,,,,,,,
,,,,,,,,2023-08-16_08h21.10.077,HF_wild_card,2022.2.4,Win32,30.00480077,5fd763c986c8250530939ce2,64d2fd46c836a06233681665,64dc78dc8a4a258588e6c12b,,,,,,,sngl,resources/Empty.png,resources/DBN.BMP,WildCard_Ex,0.453125,0.014756944,1,0,0,0.5012,optionRight,95,3990,2,34,0,34,0,1,,,,,,,,,,,,,,,,,,,,,,,,,,,,,,,,,,,,,,,
,,,,,,,,2023-08-16_08h21.10.077,HF_wild_card,2022.2.4,Win32,30.00480077,5fd763c986c8250530939ce2,64d2fd46c836a06233681665,64dc78dc8a4a258588e6c12b,,,,,,,ctch,resources/DR.BMP,resources/DG.BMP,Door4,-0.435763889,0.024305556,1,0,0,0.6191,optionLeft,60,4050,2,35,0,35,0,1,,,,,,,,,,,,,,,,,,,,,,,,,,,,,,,,,,,,,,,
,,,,,,,,2023-08-16_08h21.10.077,HF_wild_card,2022.2.4,Win32,30.00480077,5fd763c986c8250530939ce2,64d2fd46c836a06233681665,64dc78dc8a4a258588e6c12b,,,,,,,decisionTrl,resources/DR.BMP,resources/DP.BMP,Door3,0.282118056,-0.059027778,1,0,0,1.174,optionRight,70,4120,2,36,0,36,0,1,,,,,,,,,,,,,,,,,,,,,,,,,,,,,,,,,,,,,,,
,,,,,,,,2023-08-16_08h21.10.077,HF_wild_card,2022.2.4,Win32,30.00480077,5fd763c986c8250530939ce2,64d2fd46c836a06233681665,64dc78dc8a4a258588e6c12b,,,,,,,ctch,resources/DR.BMP,resources/DG.BMP,Door4,-0.283854167,0.002604167,1,0,0,0.5764,optionLeft,80,4200,2,37,0,37,0,1,,,,,,,,,,,,,,,,,,,,,,,,,,,,,,,,,,,,,,,
,,,,,,,,2023-08-16_08h21.10.077,HF_wild_card,2022.2.4,Win32,30.00480077,5fd763c986c8250530939ce2,64d2fd46c836a06233681665,64dc78dc8a4a258588e6c12b,,,,,,,decisionTrl,resources/DG.BMP,resources/DBN.BMP,Door1,-0.295138889,0.0078125,1,0,0,0.5874,optionLeft,30,4230,2,38,0,38,0,1,,,,,,,,,,,,,,,,,,,,,,,,,,,,,,,,,,,,,,,
,,,,,,,,2023-08-16_08h21.10.077,HF_wild_card,2022.2.4,Win32,30.00480077,5fd763c986c8250530939ce2,64d2fd46c836a06233681665,64dc78dc8a4a258588e6c12b,,,,,,,decisionTrl,resources/DB.BMP,resources/DG.BMP,Door2,-0.438368056,-0.020833333,1,0,0,0.562,optionLeft,20,4250,2,39,0,39,0,1,,,,,,,,,,,,,,,,,,,,,,,,,,,,,,,,,,,,,,,
,,,,,,,,2023-08-16_08h21.10.077,HF_wild_card,2022.2.4,Win32,30.00480077,5fd763c986c8250530939ce2,64d2fd46c836a06233681665,64dc78dc8a4a258588e6c12b,,,,,,,ctch,resources/DB.BMP,resources/DP.BMP,Door3,0.362847222,-0.014756944,1,0,0,0.7701,optionRight,70,4320,2,40,0,40,0,1,,,,,,,,,,,,,,,,,,,,,,,,,,,,,,,,,,,,,,,
,,,,,,,,2023-08-16_08h21.10.077,HF_wild_card,2022.2.4,Win32,30.00480077,5fd763c986c8250530939ce2,64d2fd46c836a06233681665,64dc78dc8a4a258588e6c12b,,,,,,,ctch,resources/DG.BMP,resources/DR.BMP,Door1,-0.184895833,-0.013888889,1,0,0,0.7547,optionLeft,30,4350,2,41,0,41,0,1,,,,,,,,,,,,,,,,,,,,,,,,,,,,,,,,,,,,,,,
,,,,,,,,2023-08-16_08h21.10.077,HF_wild_card,2022.2.4,Win32,30.00480077,5fd763c986c8250530939ce2,64d2fd46c836a06233681665,64dc78dc8a4a258588e6c12b,,,,,,,decisionTrl,resources/DBN.BMP,resources/DR.BMP,Door4,0.493923611,0.012152778,1,0,0,0.4985,optionRight,60,4410,2,42,0,42,0,1,,,,,,,,,,,,,,,,,,,,,,,,,,,,,,,,,,,,,,,
,,,,,,,,2023-08-16_08h21.10.077,HF_wild_card,2022.2.4,Win32,30.00480077,5fd763c986c8250530939ce2,64d2fd46c836a06233681665,64dc78dc8a4a258588e6c12b,,,,,,,ctch,resources/DP.BMP,resources/DB.BMP,Door3,-0.342013889,-0.026041667,1,0,0,0.6407,optionLeft,70,4480,2,43,0,43,0,1,,,,,,,,,,,,,,,,,,,,,,,,,,,,,,,,,,,,,,,
,,,,,,,,2023-08-16_08h21.10.077,HF_wild_card,2022.2.4,Win32,30.00480077,5fd763c986c8250530939ce2,64d2fd46c836a06233681665,64dc78dc8a4a258588e6c12b,,,,,,,,,,,,,,,,,,,,,,,,,,1,0,1,0,1,,,,,,,,,,,,,,,,,,,,,,,,,,,,,,,,,,
,,,,,,,,2023-08-16_08h21.10.077,HF_wild_card,2022.2.4,Win32,30.00480077,5fd763c986c8250530939ce2,64d2fd46c836a06233681665,64dc78dc8a4a258588e6c12b,,,,,,,decisionTrl,resources/DG.BMP,resources/DB.BMP,Door1,-0.184027778,-0.034722222,1,0,0,2.7342,optionLeft,30,4510,3,0,0,0,0,1,,,,,,,,,,,,,,,,,,,,,,,,,,,,,,,,,,,,,,,
,,,,,,,,2023-08-16_08h21.10.077,HF_wild_card,2022.2.4,Win32,30.00480077,5fd763c986c8250530939ce2,64d2fd46c836a06233681665,64dc78dc8a4a258588e6c12b,,,,,,,sngl,resources/Empty.png,resources/DP.BMP,Door3,0.417534722,-0.012152778,1,0,0,3.4251,optionRight,70,4580,3,1,0,1,0,1,,,,,,,,,,,,,,,,,,,,,,,,,,,,,,,,,,,,,,,
,,,,,,,,2023-08-16_08h21.10.077,HF_wild_card,2022.2.4,Win32,30.00480077,5fd763c986c8250530939ce2,64d2fd46c836a06233681665,64dc78dc8a4a258588e6c12b,,,,,,,ctch,resources/DR.BMP,resources/DG.BMP,Door4,-0.309895833,-0.021701389,1,0,0,3.5656,optionLeft,60,4640,3,2,0,2,0,1,,,,,,,,,,,,,,,,,,,,,,,,,,,,,,,,,,,,,,,
,,,,,,,,2023-08-16_08h21.10.077,HF_wild_card,2022.2.4,Win32,30.00480077,5fd763c986c8250530939ce2,64d2fd46c836a06233681665,64dc78dc8a4a258588e6c12b,,,,,,,ctch,resources/DP.BMP,resources/DB.BMP,Door3,-0.534722222,0.000868056,1,0,0,0.597,optionLeft,70,4710,3,3,0,3,0,1,,,,,,,,,,,,,,,,,,,,,,,,,,,,,,,,,,,,,,,
,,,,,,,,2023-08-16_08h21.10.077,HF_wild_card,2022.2.4,Win32,30.00480077,5fd763c986c8250530939ce2,64d2fd46c836a06233681665,64dc78dc8a4a258588e6c12b,,,,,,,ctch,resources/DB.BMP,resources/DP.BMP,Door3,0.378472222,-0.0703125,1,0,0,0.6857,optionRight,70,4780,3,4,0,4,0,1,,,,,,,,,,,,,,,,,,,,,,,,,,,,,,,,,,,,,,,
,,,,,,,,2023-08-16_08h21.10.077,HF_wild_card,2022.2.4,Win32,30.00480077,5fd763c986c8250530939ce2,64d2fd46c836a06233681665,64dc78dc8a4a258588e6c12b,,,,,,,sngl,resources/Empty.png,resources/DG.BMP,Door1,0.479166667,-0.124131944,1,0,0,3.7877,optionRight,30,4810,3,5,0,5,0,1,,,,,,,,,,,,,,,,,,,,,,,,,,,,,,,,,,,,,,,
,,,,,,,,2023-08-16_08h21.10.077,HF_wild_card,2022.2.4,Win32,30.00480077,5fd763c986c8250530939ce2,64d2fd46c836a06233681665,64dc78dc8a4a258588e6c12b,,,,,,,decisionTrl,resources/DB.BMP,resources/DG.BMP,Door1,0.444444444,-0.069444444,1,0,0,0.9142,optionRight,30,4840,3,6,0,6,0,1,,,,,,,,,,,,,,,,,,,,,,,,,,,,,,,,,,,,,,,
,,,,,,,,2023-08-16_08h21.10.077,HF_wild_card,2022.2.4,Win32,30.00480077,5fd763c986c8250530939ce2,64d2fd46c836a06233681665,64dc78dc8a4a258588e6c12b,,,,,,,decisionTrl,resources/DP.BMP,resources/DR.BMP,Door3,-0.272569444,0.019965278,1,0,0,0.6647,optionLeft,70,4910,3,7,0,7,0,1,,,,,,,,,,,,,,,,,,,,,,,,,,,,,,,,,,,,,,,
,,,,,,,,2023-08-16_08h21.10.077,HF_wild_card,2022.2.4,Win32,30.00480077,5fd763c986c8250530939ce2,64d2fd46c836a06233681665,64dc78dc8a4a258588e6c12b,,,,,,,decisionTrl,resources/DBN.BMP,resources/DB.BMP,Door2,0.636284722,-0.077256944,1,0,0,0.7121,optionRight,20,4930,3,8,0,8,0,1,,,,,,,,,,,,,,,,,,,,,,,,,,,,,,,,,,,,,,,
,,,,,,,,2023-08-16_08h21.10.077,HF_wild_card,2022.2.4,Win32,30.00480077,5fd763c986c8250530939ce2,64d2fd46c836a06233681665,64dc78dc8a4a258588e6c12b,,,,,,,decisionTrl,resources/DP.BMP,resources/DR.BMP,Door3,-0.255208333,-0.039930556,1,0,0,3.1304,optionLeft,70,5000,3,9,0,9,0,1,,,,,,,,,,,,,,,,,,,,,,,,,,,,,,,,,,,,,,,
,,,,,,,,2023-08-16_08h21.10.077,HF_wild_card,2022.2.4,Win32,30.00480077,5fd763c986c8250530939ce2,64d2fd46c836a06233681665,64dc78dc8a4a258588e6c12b,,,,,,,decisionTrl,resources/DG.BMP,resources/DB.BMP,Door1,-0.3203125,-0.005208333,1,0,0,2.1702,optionLeft,30,5030,3,10,0,10,0,1,,,,,,,,,,,,,,,,,,,,,,,,,,,,,,,,,,,,,,,
,,,,,,,,2023-08-16_08h21.10.077,HF_wild_card,2022.2.4,Win32,30.00480077,5fd763c986c8250530939ce2,64d2fd46c836a06233681665,64dc78dc8a4a258588e6c12b,,,,,,,decisionTrl,resources/DP.BMP,resources/DBN.BMP,Door3,-0.467881944,0.018229167,1,0,0,1.966,optionLeft,70,5100,3,11,0,11,0,1,,,,,,,,,,,,,,,,,,,,,,,,,,,,,,,,,,,,,,,
,,,,,,,,2023-08-16_08h21.10.077,HF_wild_card,2022.2.4,Win32,30.00480077,5fd763c986c8250530939ce2,64d2fd46c836a06233681665,64dc78dc8a4a258588e6c12b,,,,,,,ctch,resources/DP.BMP,resources/DB.BMP,Door3,-0.489583333,0.019965278,1,0,0,2.7214,optionLeft,70,5170,3,12,0,12,0,1,,,,,,,,,,,,,,,,,,,,,,,,,,,,,,,,,,,,,,,
,,,,,,,,2023-08-16_08h21.10.077,HF_wild_card,2022.2.4,Win32,30.00480077,5fd763c986c8250530939ce2,64d2fd46c836a06233681665,64dc78dc8a4a258588e6c12b,,,,,,,ctch,resources/DG.BMP,resources/DR.BMP,Door4,0.331597222,0.008680556,1,0,0,2.4657,optionRight,60,5230,3,13,0,13,0,1,,,,,,,,,,,,,,,,,,,,,,,,,,,,,,,,,,,,,,,
,,,,,,,,2023-08-16_08h21.10.077,HF_wild_card,2022.2.4,Win32,30.00480077,5fd763c986c8250530939ce2,64d2fd46c836a06233681665,64dc78dc8a4a258588e6c12b,,,,,,,decisionTrl,resources/DB.BMP,resources/DG.BMP,Door1,0.301215278,-0.065972222,1,0,0,2.4738,optionRight,30,5260,3,14,0,14,0,1,,,,,,,,,,,,,,,,,,,,,,,,,,,,,,,,,,,,,,,
,,,,,,,,2023-08-16_08h21.10.077,HF_wild_card,2022.2.4,Win32,30.00480077,5fd763c986c8250530939ce2,64d2fd46c836a06233681665,64dc78dc8a4a258588e6c12b,,,,,,,decisionTrl,resources/DBN.BMP,resources/DP.BMP,Door3,0.422743056,-0.027777778,1,0,0,0.8085,optionRight,70,5330,3,15,0,15,0,1,,,,,,,,,,,,,,,,,,,,,,,,,,,,,,,,,,,,,,,
,,,,,,,,2023-08-16_08h21.10.077,HF_wild_card,2022.2.4,Win32,30.00480077,5fd763c986c8250530939ce2,64d2fd46c836a06233681665,64dc78dc8a4a258588e6c12b,,,,,,,decisionTrl,resources/DP.BMP,resources/DR.BMP,Door3,-0.387152778,-0.004340278,1,0,0,0.648,optionLeft,70,5400,3,16,0,16,0,1,,,,,,,,,,,,,,,,,,,,,,,,,,,,,,,,,,,,,,,
,,,,,,,,2023-08-16_08h21.10.077,HF_wild_card,2022.2.4,Win32,30.00480077,5fd763c986c8250530939ce2,64d2fd46c836a06233681665,64dc78dc8a4a258588e6c12b,,,,,,,decisionTrl,resources/DB.BMP,resources/DG.BMP,Door1,0.543402778,-0.050347222,1,0,0,0.8227,optionRight,30,5430,3,17,0,17,0,1,,,,,,,,,,,,,,,,,,,,,,,,,,,,,,,,,,,,,,,
,,,,,,,,2023-08-16_08h21.10.077,HF_wild_card,2022.2.4,Win32,30.00480077,5fd763c986c8250530939ce2,64d2fd46c836a06233681665,64dc78dc8a4a258588e6c12b,,,,,,,sngl,resources/Empty.png,resources/DBN.BMP,WildCard_Ex,0.302083333,-0.088541667,1,0,0,0.7181,optionRight,5,5435,3,18,0,18,0,1,,,,,,,,,,,,,,,,,,,,,,,,,,,,,,,,,,,,,,,
,,,,,,,,2023-08-16_08h21.10.077,HF_wild_card,2022.2.4,Win32,30.00480077,5fd763c986c8250530939ce2,64d2fd46c836a06233681665,64dc78dc8a4a258588e6c12b,,,,,,,sngl,resources/DB.BMP,resources/Empty.png,Door2,-0.209201389,-0.052083333,1,0,0,0.6663,optionLeft,40,5475,3,19,0,19,0,1,,,,,,,,,,,,,,,,,,,,,,,,,,,,,,,,,,,,,,,
,,,,,,,,2023-08-16_08h21.10.077,HF_wild_card,2022.2.4,Win32,30.00480077,5fd763c986c8250530939ce2,64d2fd46c836a06233681665,64dc78dc8a4a258588e6c12b,,,,,,,decisionTrl,resources/DG.BMP,resources/DB.BMP,Door1,-0.136284722,0.003472222,1,0,0,1.6506,optionLeft,30,5505,3,20,0,20,0,1,,,,,,,,,,,,,,,,,,,,,,,,,,,,,,,,,,,,,,,
,,,,,,,,2023-08-16_08h21.10.077,HF_wild_card,2022.2.4,Win32,30.00480077,5fd763c986c8250530939ce2,64d2fd46c836a06233681665,64dc78dc8a4a258588e6c12b,,,,,,,decisionTrl,resources/DR.BMP,resources/DP.BMP,Door3,0.212673611,-0.034722222,1,0,0,1.0137,optionRight,70,5575,3,21,0,21,0,1,,,,,,,,,,,,,,,,,,,,,,,,,,,,,,,,,,,,,,,
,,,,,,,,2023-08-16_08h21.10.077,HF_wild_card,2022.2.4,Win32,30.00480077,5fd763c986c8250530939ce2,64d2fd46c836a06233681665,64dc78dc8a4a258588e6c12b,,,,,,,sngl,resources/DBN.BMP,resources/Empty.png,WildCard_Ex,-0.169270833,0.002604167,1,0,0,1.3117,optionLeft,95,5670,3,22,0,22,0,1,,,,,,,,,,,,,,,,,,,,,,,,,,,,,,,,,,,,,,,
,,,,,,,,2023-08-16_08h21.10.077,HF_wild_card,2022.2.4,Win32,30.00480077,5fd763c986c8250530939ce2,64d2fd46c836a06233681665,64dc78dc8a4a258588e6c12b,,,,,,,decisionTrl,resources/DR.BMP,resources/DP.BMP,Door3,0.338541667,-0.010416667,1,0,0,0.8647,optionRight,70,5740,3,23,0,23,0,1,,,,,,,,,,,,,,,,,,,,,,,,,,,,,,,,,,,,,,,
,,,,,,,,2023-08-16_08h21.10.077,HF_wild_card,2022.2.4,Win32,30.00480077,5fd763c986c8250530939ce2,64d2fd46c836a06233681665,64dc78dc8a4a258588e6c12b,,,,,,,decisionTrl,resources/DR.BMP,resources/DP.BMP,Door3,0.381944444,-0.047743056,1,0,0,2.0727,optionRight,70,5810,3,24,0,24,0,1,,,,,,,,,,,,,,,,,,,,,,,,,,,,,,,,,,,,,,,
,,,,,,,,2023-08-16_08h21.10.077,HF_wild_card,2022.2.4,Win32,30.00480077,5fd763c986c8250530939ce2,64d2fd46c836a06233681665,64dc78dc8a4a258588e6c12b,,,,,,,sngl,resources/DBN.BMP,resources/Empty.png,WildCard_Ex,-0.340277778,0.005208333,1,0,0,0.6304,optionLeft,5,5815,3,25,0,25,0,1,,,,,,,,,,,,,,,,,,,,,,,,,,,,,,,,,,,,,,,
,,,,,,,,2023-08-16_08h21.10.077,HF_wild_card,2022.2.4,Win32,30.00480077,5fd763c986c8250530939ce2,64d2fd46c836a06233681665,64dc78dc8a4a258588e6c12b,,,,,,,decisionTrl,resources/DB.BMP,resources/DG.BMP,Door1,0.366319444,-0.046006944,1,0,0,0.7954,optionRight,30,5845,3,26,0,26,0,1,,,,,,,,,,,,,,,,,,,,,,,,,,,,,,,,,,,,,,,
,,,,,,,,2023-08-16_08h21.10.077,HF_wild_card,2022.2.4,Win32,30.00480077,5fd763c986c8250530939ce2,64d2fd46c836a06233681665,64dc78dc8a4a258588e6c12b,,,,,,,sngl,resources/DP.BMP,resources/Empty.png,Door3,-0.255208333,0.057291667,1,0,0,1.2448,optionLeft,70,5915,3,27,0,27,0,1,,,,,,,,,,,,,,,,,,,,,,,,,,,,,,,,,,,,,,,
,,,,,,,,2023-08-16_08h21.10.077,HF_wild_card,2022.2.4,Win32,30.00480077,5fd763c986c8250530939ce2,64d2fd46c836a06233681665,64dc78dc8a4a258588e6c12b,,,,,,,sngl,resources/Empty.png,resources/DB.BMP,Door2,0.453993056,0.000868056,1,0,0,0.9041,optionRight,20,5935,3,28,0,28,0,1,,,,,,,,,,,,,,,,,,,,,,,,,,,,,,,,,,,,,,,
,,,,,,,,2023-08-16_08h21.10.077,HF_wild_card,2022.2.4,Win32,30.00480077,5fd763c986c8250530939ce2,64d2fd46c836a06233681665,64dc78dc8a4a258588e6c12b,,,,,,,decisionTrl,resources/DG.BMP,resources/DB.BMP,Door1,-0.277777778,-0.019097222,1,0,0,1.0298,optionLeft,30,5965,3,29,0,29,0,1,,,,,,,,,,,,,,,,,,,,,,,,,,,,,,,,,,,,,,,
,,,,,,,,2023-08-16_08h21.10.077,HF_wild_card,2022.2.4,Win32,30.00480077,5fd763c986c8250530939ce2,64d2fd46c836a06233681665,64dc78dc8a4a258588e6c12b,,,,,,,ctch,resources/DB.BMP,resources/DP.BMP,Door3,0.427083333,-0.009548611,1,0,0,0.6623,optionRight,70,6035,3,30,0,30,0,1,,,,,,,,,,,,,,,,,,,,,,,,,,,,,,,,,,,,,,,
,,,,,,,,2023-08-16_08h21.10.077,HF_wild_card,2022.2.4,Win32,30.00480077,5fd763c986c8250530939ce2,64d2fd46c836a06233681665,64dc78dc8a4a258588e6c12b,,,,,,,decisionTrl,resources/DP.BMP,resources/DR.BMP,Door3,-0.236979167,-0.028645833,1,0,0,0.8226,optionLeft,70,6105,3,31,0,31,0,1,,,,,,,,,,,,,,,,,,,,,,,,,,,,,,,,,,,,,,,
,,,,,,,,2023-08-16_08h21.10.077,HF_wild_card,2022.2.4,Win32,30.00480077,5fd763c986c8250530939ce2,64d2fd46c836a06233681665,64dc78dc8a4a258588e6c12b,,,,,,,decisionTrl,resources/DR.BMP,resources/DP.BMP,Door3,0.251736111,-0.0546875,1,0,0,1.0625,optionRight,70,6175,3,32,0,32,0,1,,,,,,,,,,,,,,,,,,,,,,,,,,,,,,,,,,,,,,,
,,,,,,,,2023-08-16_08h21.10.077,HF_wild_card,2022.2.4,Win32,30.00480077,5fd763c986c8250530939ce2,64d2fd46c836a06233681665,64dc78dc8a4a258588e6c12b,,,,,,,sngl,resources/Empty.png,resources/DR.BMP,Door4,0.347222222,-0.078993056,1,0,0,0.888,optionRight,60,6235,3,33,0,33,0,1,,,,,,,,,,,,,,,,,,,,,,,,,,,,,,,,,,,,,,,
,,,,,,,,2023-08-16_08h21.10.077,HF_wild_card,2022.2.4,Win32,30.00480077,5fd763c986c8250530939ce2,64d2fd46c836a06233681665,64dc78dc8a4a258588e6c12b,,,,,,,decisionTrl,resources/DB.BMP,resources/DBN.BMP,Door2,-0.256076389,0.010416667,1,0,0,1.4602,optionLeft,40,6275,3,34,0,34,0,1,,,,,,,,,,,,,,,,,,,,,,,,,,,,,,,,,,,,,,,
,,,,,,,,2023-08-16_08h21.10.077,HF_wild_card,2022.2.4,Win32,30.00480077,5fd763c986c8250530939ce2,64d2fd46c836a06233681665,64dc78dc8a4a258588e6c12b,,,,,,,ctch,resources/DG.BMP,resources/DR.BMP,Door4,0.293402778,-0.098958333,1,0,0,2.2634,optionRight,60,6335,3,35,0,35,0,1,,,,,,,,,,,,,,,,,,,,,,,,,,,,,,,,,,,,,,,
,,,,,,,,2023-08-16_08h21.10.077,HF_wild_card,2022.2.4,Win32,30.00480077,5fd763c986c8250530939ce2,64d2fd46c836a06233681665,64dc78dc8a4a258588e6c12b,,,,,,,sngl,resources/DR.BMP,resources/Empty.png,Door4,-0.305555556,-0.008680556,1,0,0,0.7438,optionLeft,80,6415,3,36,0,36,0,1,,,,,,,,,,,,,,,,,,,,,,,,,,,,,,,,,,,,,,,
,,,,,,,,2023-08-16_08h21.10.077,HF_wild_card,2022.2.4,Win32,30.00480077,5fd763c986c8250530939ce2,64d2fd46c836a06233681665,64dc78dc8a4a258588e6c12b,,,,,,,sngl,resources/DG.BMP,resources/Empty.png,Door1,-0.486111111,-0.013020833,1,0,0,0.5518,optionLeft,30,6445,3,37,0,37,0,1,,,,,,,,,,,,,,,,,,,,,,,,,,,,,,,,,,,,,,,
,,,,,,,,2023-08-16_08h21.10.077,HF_wild_card,2022.2.4,Win32,30.00480077,5fd763c986c8250530939ce2,64d2fd46c836a06233681665,64dc78dc8a4a258588e6c12b,,,,,,,decisionTrl,resources/DBN.BMP,resources/DR.BMP,Door4,0.404513889,-0.045138889,1,0,0,1.3246,optionRight,60,6505,3,38,0,38,0,1,,,,,,,,,,,,,,,,,,,,,,,,,,,,,,,,,,,,,,,
,,,,,,,,2023-08-16_08h21.10.077,HF_wild_card,2022.2.4,Win32,30.00480077,5fd763c986c8250530939ce2,64d2fd46c836a06233681665,64dc78dc8a4a258588e6c12b,,,,,,,sngl,resources/Empty.png,resources/DBN.BMP,WildCard_Ex,0.357638889,-0.035590278,1,0,0,0.5303,optionRight,95,6600,3,39,0,39,0,1,,,,,,,,,,,,,,,,,,,,,,,,,,,,,,,,,,,,,,,
,,,,,,,,2023-08-16_08h21.10.077,HF_wild_card,2022.2.4,Win32,30.00480077,5fd763c986c8250530939ce2,64d2fd46c836a06233681665,64dc78dc8a4a258588e6c12b,,,,,,,decisionTrl,resources/DR.BMP,resources/DBN.BMP,Door4,-0.325520833,0.013888889,1,0,0,0.527,optionLeft,60,6660,3,40,0,40,0,1,,,,,,,,,,,,,,,,,,,,,,,,,,,,,,,,,,,,,,,
,,,,,,,,2023-08-16_08h21.10.077,HF_wild_card,2022.2.4,Win32,30.00480077,5fd763c986c8250530939ce2,64d2fd46c836a06233681665,64dc78dc8a4a258588e6c12b,,,,,,,decisionTrl,resources/DG.BMP,resources/DBN.BMP,Door1,-0.438368056,-0.024305556,1,0,0,1.0198,optionLeft,30,6690,3,41,0,41,0,1,,,,,,,,,,,,,,,,,,,,,,,,,,,,,,,,,,,,,,,
,,,,,,,,2023-08-16_08h21.10.077,HF_wild_card,2022.2.4,Win32,30.00480077,5fd763c986c8250530939ce2,64d2fd46c836a06233681665,64dc78dc8a4a258588e6c12b,,,,,,,decisionTrl,resources/DBN.BMP,resources/DG.BMP,Door1,0.513888889,-0.104166667,1,0,0,0.9651,optionRight,30,6720,3,42,0,42,0,1,,,,,,,,,,,,,,,,,,,,,,,,,,,,,,,,,,,,,,,
,,,,,,,,2023-08-16_08h21.10.077,HF_wild_card,2022.2.4,Win32,30.00480077,5fd763c986c8250530939ce2,64d2fd46c836a06233681665,64dc78dc8a4a258588e6c12b,,,,,,,ctch,resources/DR.BMP,resources/DG.BMP,Door4,-0.210069444,-0.039930556,1,0,0,0.5255,optionLeft,60,6780,3,43,0,43,0,1,,,,,,,,,,,,,,,,,,,,,,,,,,,,,,,,,,,,,,,
,,,,,,,,2023-08-16_08h21.10.077,HF_wild_card,2022.2.4,Win32,30.00480077,5fd763c986c8250530939ce2,64d2fd46c836a06233681665,64dc78dc8a4a258588e6c12b,,,,,,,,,,,,,,,,,,,,,,,,,,2,0,2,0,1,,,,,,,,,,,,,,,,,,,,,,,,,,,,,,,,,,
,,,,,,,,2023-08-16_08h21.10.077,HF_wild_card,2022.2.4,Win32,30.00480077,5fd763c986c8250530939ce2,64d2fd46c836a06233681665,64dc78dc8a4a258588e6c12b,,,,,,,decisionTrl,resources/DG.BMP,resources/DB.BMP,Door1,-0.300347222,-0.064236111,1,0,0,1.2004,optionLeft,30,6810,4,0,0,0,0,1,,,,,,,,,,,,,,,,,,,,,,,,,,,,,,,,,,,,,,,
,,,,,,,,2023-08-16_08h21.10.077,HF_wild_card,2022.2.4,Win32,30.00480077,5fd763c986c8250530939ce2,64d2fd46c836a06233681665,64dc78dc8a4a258588e6c12b,,,,,,,decisionTrl,resources/DP.BMP,resources/DR.BMP,Door3,-0.462673611,-0.041666667,1,0,0,0.6012,optionLeft,70,6880,4,1,0,1,0,1,,,,,,,,,,,,,,,,,,,,,,,,,,,,,,,,,,,,,,,
,,,,,,,,2023-08-16_08h21.10.077,HF_wild_card,2022.2.4,Win32,30.00480077,5fd763c986c8250530939ce2,64d2fd46c836a06233681665,64dc78dc8a4a258588e6c12b,,,,,,,decisionTrl,resources/DB.BMP,resources/DY.BMP,Door2,-0.318576389,0.022569444,1,0,0,0.573,optionLeft,20,6900,4,2,0,2,0,1,,,,,,,,,,,,,,,,,,,,,,,,,,,,,,,,,,,,,,,
,,,,,,,,2023-08-16_08h21.10.077,HF_wild_card,2022.2.4,Win32,30.00480077,5fd763c986c8250530939ce2,64d2fd46c836a06233681665,64dc78dc8a4a258588e6c12b,,,,,,,decisionTrl,resources/DP.BMP,resources/DY.BMP,WildCard_NonEx,0.3515625,-0.014756944,1,0,0,0.4776,optionRight,45,6945,4,3,0,3,0,1,,,,,,,,,,,,,,,,,,,,,,,,,,,,,,,,,,,,,,,
,,,,,,,,2023-08-16_08h21.10.077,HF_wild_card,2022.2.4,Win32,30.00480077,5fd763c986c8250530939ce2,64d2fd46c836a06233681665,64dc78dc8a4a258588e6c12b,,,,,,,ctch,resources/DB.BMP,resources/DP.BMP,Door3,0.374131944,-0.042534722,1,0,0,0.7664,optionRight,70,7015,4,4,0,4,0,1,,,,,,,,,,,,,,,,,,,,,,,,,,,,,,,,,,,,,,,
,,,,,,,,2023-08-16_08h21.10.077,HF_wild_card,2022.2.4,Win32,30.00480077,5fd763c986c8250530939ce2,64d2fd46c836a06233681665,64dc78dc8a4a258588e6c12b,,,,,,,decisionTrl,resources/DP.BMP,resources/DR.BMP,Door3,-0.162326389,-0.009548611,1,0,0,0.7137,optionLeft,70,7085,4,5,0,5,0,1,,,,,,,,,,,,,,,,,,,,,,,,,,,,,,,,,,,,,,,
,,,,,,,,2023-08-16_08h21.10.077,HF_wild_card,2022.2.4,Win32,30.00480077,5fd763c986c8250530939ce2,64d2fd46c836a06233681665,64dc78dc8a4a258588e6c12b,,,,,,,decisionTrl,resources/DY.BMP,resources/DR.BMP,WildCard_NonEx,-0.241319444,0.035590278,1,0,0,0.6441,optionLeft,45,7130,4,6,0,6,0,1,,,,,,,,,,,,,,,,,,,,,,,,,,,,,,,,,,,,,,,
,,,,,,,,2023-08-16_08h21.10.077,HF_wild_card,2022.2.4,Win32,30.00480077,5fd763c986c8250530939ce2,64d2fd46c836a06233681665,64dc78dc8a4a258588e6c12b,,,,,,,sngl,resources/DR.BMP,resources/Empty.png,Door4,-0.194444444,0.003472222,1,0,0,0.6189,optionLeft,60,7190,4,7,0,7,0,1,,,,,,,,,,,,,,,,,,,,,,,,,,,,,,,,,,,,,,,
,,,,,,,,2023-08-16_08h21.10.077,HF_wild_card,2022.2.4,Win32,30.00480077,5fd763c986c8250530939ce2,64d2fd46c836a06233681665,64dc78dc8a4a258588e6c12b,,,,,,,sngl,resources/Empty.png,resources/DY.BMP,WildCard_NonEx,0.473958333,-0.018229167,1,0,0,0.5426,optionRight,45,7235,4,8,0,8,0,1,,,,,,,,,,,,,,,,,,,,,,,,,,,,,,,,,,,,,,,
,,,,,,,,2023-08-16_08h21.10.077,HF_wild_card,2022.2.4,Win32,30.00480077,5fd763c986c8250530939ce2,64d2fd46c836a06233681665,64dc78dc8a4a258588e6c12b,,,,,,,ctch,resources/DG.BMP,resources/DR.BMP,Door4,0.263888889,-0.020833333,1,0,0,1.6326,optionRight,80,7315,4,9,0,9,0,1,,,,,,,,,,,,,,,,,,,,,,,,,,,,,,,,,,,,,,,
,,,,,,,,2023-08-16_08h21.10.077,HF_wild_card,2022.2.4,Win32,30.00480077,5fd763c986c8250530939ce2,64d2fd46c836a06233681665,64dc78dc8a4a258588e6c12b,,,,,,,sngl,resources/Empty.png,resources/DY.BMP,WildCard_NonEx,0.428819444,-0.0234375,1,0,0,0.5631,optionRight,55,7370,4,10,0,10,0,1,,,,,,,,,,,,,,,,,,,,,,,,,,,,,,,,,,,,,,,
,,,,,,,,2023-08-16_08h21.10.077,HF_wild_card,2022.2.4,Win32,30.00480077,5fd763c986c8250530939ce2,64d2fd46c836a06233681665,64dc78dc8a4a258588e6c12b,,,,,,,sngl,resources/DP.BMP,resources/Empty.png,Door3,-0.21875,-0.0078125,1,0,0,0.5211,optionLeft,70,7440,4,11,0,11,0,1,,,,,,,,,,,,,,,,,,,,,,,,,,,,,,,,,,,,,,,
,,,,,,,,2023-08-16_08h21.10.077,HF_wild_card,2022.2.4,Win32,30.00480077,5fd763c986c8250530939ce2,64d2fd46c836a06233681665,64dc78dc8a4a258588e6c12b,,,,,,,sngl,resources/Empty.png,resources/DP.BMP,Door3,0.295138889,-0.009548611,1,0,0,0.5177,optionRight,70,7510,4,12,0,12,0,1,,,,,,,,,,,,,,,,,,,,,,,,,,,,,,,,,,,,,,,
,,,,,,,,2023-08-16_08h21.10.077,HF_wild_card,2022.2.4,Win32,30.00480077,5fd763c986c8250530939ce2,64d2fd46c836a06233681665,64dc78dc8a4a258588e6c12b,,,,,,,decisionTrl,resources/DR.BMP,resources/DP.BMP,Door3,0.348958333,-0.005208333,1,0,0,0.8356,optionRight,70,7580,4,13,0,13,0,1,,,,,,,,,,,,,,,,,,,,,,,,,,,,,,,,,,,,,,,
,,,,,,,,2023-08-16_08h21.10.077,HF_wild_card,2022.2.4,Win32,30.00480077,5fd763c986c8250530939ce2,64d2fd46c836a06233681665,64dc78dc8a4a258588e6c12b,,,,,,,ctch,resources/DR.BMP,resources/DG.BMP,Door4,-0.211805556,-0.039930556,1,0,0,0.6016,optionLeft,80,7660,4,14,0,14,0,1,,,,,,,,,,,,,,,,,,,,,,,,,,,,,,,,,,,,,,,
,,,,,,,,2023-08-16_08h21.10.077,HF_wild_card,2022.2.4,Win32,30.00480077,5fd763c986c8250530939ce2,64d2fd46c836a06233681665,64dc78dc8a4a258588e6c12b,,,,,,,decisionTrl,resources/DB.BMP,resources/DG.BMP,Door1,0.171875,-0.028645833,1,0,0,0.9291,optionRight,30,7690,4,15,0,15,0,1,,,,,,,,,,,,,,,,,,,,,,,,,,,,,,,,,,,,,,,
,,,,,,,,2023-08-16_08h21.10.077,HF_wild_card,2022.2.4,Win32,30.00480077,5fd763c986c8250530939ce2,64d2fd46c836a06233681665,64dc78dc8a4a258588e6c12b,,,,,,,decisionTrl,resources/DG.BMP,resources/DB.BMP,Door1,-0.184895833,-0.017361111,1,0,0,0.5566,optionLeft,30,7720,4,16,0,16,0,1,,,,,,,,,,,,,,,,,,,,,,,,,,,,,,,,,,,,,,,
,,,,,,,,2023-08-16_08h21.10.077,HF_wild_card,2022.2.4,Win32,30.00480077,5fd763c986c8250530939ce2,64d2fd46c836a06233681665,64dc78dc8a4a258588e6c12b,,,,,,,decisionTrl,resources/DB.BMP,resources/DG.BMP,Door1,0.1796875,-0.014756944,1,0,0,0.7961,optionRight,30,7750,4,17,0,17,0,1,,,,,,,,,,,,,,,,,,,,,,,,,,,,,,,,,,,,,,,
,,,,,,,,2023-08-16_08h21.10.077,HF_wild_card,2022.2.4,Win32,30.00480077,5fd763c986c8250530939ce2,64d2fd46c836a06233681665,64dc78dc8a4a258588e6c12b,,,,,,,sngl,resources/DY.BMP,resources/Empty.png,WildCard_NonEx,-0.259548611,-0.014756944,1,0,0,0.46,optionLeft,45,7795,4,18,0,18,0,1,,,,,,,,,,,,,,,,,,,,,,,,,,,,,,,,,,,,,,,
,,,,,,,,2023-08-16_08h21.10.077,HF_wild_card,2022.2.4,Win32,30.00480077,5fd763c986c8250530939ce2,64d2fd46c836a06233681665,64dc78dc8a4a258588e6c12b,,,,,,,decisionTrl,resources/DR.BMP,resources/DY.BMP,Door4,-0.275173611,-0.004340278,1,0,0,0.5733,optionLeft,60,7855,4,19,0,19,0,1,,,,,,,,,,,,,,,,,,,,,,,,,,,,,,,,,,,,,,,
,,,,,,,,2023-08-16_08h21.10.077,HF_wild_card,2022.2.4,Win32,30.00480077,5fd763c986c8250530939ce2,64d2fd46c836a06233681665,64dc78dc8a4a258588e6c12b,,,,,,,ctch,resources/DB.BMP,resources/DP.BMP,Door3,0.442708333,-0.027777778,1,0,0,0.6087,optionRight,70,7925,4,20,0,20,0,1,,,,,,,,,,,,,,,,,,,,,,,,,,,,,,,,,,,,,,,
,,,,,,,,2023-08-16_08h21.10.077,HF_wild_card,2022.2.4,Win32,30.00480077,5fd763c986c8250530939ce2,64d2fd46c836a06233681665,64dc78dc8a4a258588e6c12b,,,,,,,decisionTrl,resources/DR.BMP,resources/DP.BMP,Door3,0.184895833,-0.035590278,1,0,0,0.7304,optionRight,70,7995,4,21,0,21,0,1,,,,,,,,,,,,,,,,,,,,,,,,,,,,,,,,,,,,,,,
,,,,,,,,2023-08-16_08h21.10.077,HF_wild_card,2022.2.4,Win32,30.00480077,5fd763c986c8250530939ce2,64d2fd46c836a06233681665,64dc78dc8a4a258588e6c12b,,,,,,,sngl,resources/Empty.png,resources/DR.BMP,Door4,0.442708333,-0.030381944,1,0,0,0.531,optionRight,80,8075,4,22,0,22,0,1,,,,,,,,,,,,,,,,,,,,,,,,,,,,,,,,,,,,,,,
,,,,,,,,2023-08-16_08h21.10.077,HF_wild_card,2022.2.4,Win32,30.00480077,5fd763c986c8250530939ce2,64d2fd46c836a06233681665,64dc78dc8a4a258588e6c12b,,,,,,,decisionTrl,resources/DP.BMP,resources/DR.BMP,Door3,-0.230034722,-0.000868056,1,0,0,0.6022,optionLeft,70,8145,4,23,0,23,0,1,,,,,,,,,,,,,,,,,,,,,,,,,,,,,,,,,,,,,,,
,,,,,,,,2023-08-16_08h21.10.077,HF_wild_card,2022.2.4,Win32,30.00480077,5fd763c986c8250530939ce2,64d2fd46c836a06233681665,64dc78dc8a4a258588e6c12b,,,,,,,decisionTrl,resources/DG.BMP,resources/DY.BMP,WildCard_NonEx,0.152777778,-0.008680556,1,0,0,0.8356,optionRight,55,8200,4,24,0,24,0,1,,,,,,,,,,,,,,,,,,,,,,,,,,,,,,,,,,,,,,,
,,,,,,,,2023-08-16_08h21.10.077,HF_wild_card,2022.2.4,Win32,30.00480077,5fd763c986c8250530939ce2,64d2fd46c836a06233681665,64dc78dc8a4a258588e6c12b,,,,,,,decisionTrl,resources/DG.BMP,resources/DB.BMP,Door1,-0.123263889,-0.001736111,1,0,0,0.6473,optionLeft,30,8230,4,25,0,25,0,1,,,,,,,,,,,,,,,,,,,,,,,,,,,,,,,,,,,,,,,
,,,,,,,,2023-08-16_08h21.10.077,HF_wild_card,2022.2.4,Win32,30.00480077,5fd763c986c8250530939ce2,64d2fd46c836a06233681665,64dc78dc8a4a258588e6c12b,,,,,,,decisionTrl,resources/DY.BMP,resources/DG.BMP,WildCard_NonEx,-0.153645833,-0.005208333,1,0,0,0.739,optionLeft,45,8275,4,26,0,26,0,1,,,,,,,,,,,,,,,,,,,,,,,,,,,,,,,,,,,,,,,
,,,,,,,,2023-08-16_08h21.10.077,HF_wild_card,2022.2.4,Win32,30.00480077,5fd763c986c8250530939ce2,64d2fd46c836a06233681665,64dc78dc8a4a258588e6c12b,,,,,,,decisionTrl,resources/DB.BMP,resources/DG.BMP,Door1,0.3046875,-0.019097222,1,0,0,0.7777,optionRight,30,8305,4,27,0,27,0,1,,,,,,,,,,,,,,,,,,,,,,,,,,,,,,,,,,,,,,,
,,,,,,,,2023-08-16_08h21.10.077,HF_wild_card,2022.2.4,Win32,30.00480077,5fd763c986c8250530939ce2,64d2fd46c836a06233681665,64dc78dc8a4a258588e6c12b,,,,,,,sngl,resources/DG.BMP,resources/Empty.png,Door1,-0.15625,0.001736111,1,0,0,0.5255,optionLeft,30,8335,4,28,0,28,0,1,,,,,,,,,,,,,,,,,,,,,,,,,,,,,,,,,,,,,,,
,,,,,,,,2023-08-16_08h21.10.077,HF_wild_card,2022.2.4,Win32,30.00480077,5fd763c986c8250530939ce2,64d2fd46c836a06233681665,64dc78dc8a4a258588e6c12b,,,,,,,sngl,resources/DB.BMP,resources/Empty.png,Door2,-0.288194444,0.026909722,1,0,0,0.5081,optionLeft,20,8355,4,29,0,29,0,1,,,,,,,,,,,,,,,,,,,,,,,,,,,,,,,,,,,,,,,
,,,,,,,,2023-08-16_08h21.10.077,HF_wild_card,2022.2.4,Win32,30.00480077,5fd763c986c8250530939ce2,64d2fd46c836a06233681665,64dc78dc8a4a258588e6c12b,,,,,,,decisionTrl,resources/DG.BMP,resources/DB.BMP,Door1,-0.162326389,0.006944444,1,0,0,0.6943,optionLeft,30,8385,4,30,0,30,0,1,,,,,,,,,,,,,,,,,,,,,,,,,,,,,,,,,,,,,,,
,,,,,,,,2023-08-16_08h21.10.077,HF_wild_card,2022.2.4,Win32,30.00480077,5fd763c986c8250530939ce2,64d2fd46c836a06233681665,64dc78dc8a4a258588e6c12b,,,,,,,ctch,resources/DP.BMP,resources/DB.BMP,Door3,-0.3828125,0.017361111,1,0,0,0.9376,optionLeft,70,8455,4,31,0,31,0,1,,,,,,,,,,,,,,,,,,,,,,,,,,,,,,,,,,,,,,,
,,,,,,,,2023-08-16_08h21.10.077,HF_wild_card,2022.2.4,Win32,30.00480077,5fd763c986c8250530939ce2,64d2fd46c836a06233681665,64dc78dc8a4a258588e6c12b,,,,,,,decisionTrl,resources/DY.BMP,resources/DP.BMP,Door3,0.258680556,-0.021701389,1,0,0,1.052,optionRight,70,8525,4,32,0,32,0,1,,,,,,,,,,,,,,,,,,,,,,,,,,,,,,,,,,,,,,,
,,,,,,,,2023-08-16_08h21.10.077,HF_wild_card,2022.2.4,Win32,30.00480077,5fd763c986c8250530939ce2,64d2fd46c836a06233681665,64dc78dc8a4a258588e6c12b,,,,,,,decisionTrl,resources/DB.BMP,resources/DG.BMP,Door1,0.395833333,-0.057291667,1,0,0,1.3911,optionRight,30,8555,4,33,0,33,0,1,,,,,,,,,,,,,,,,,,,,,,,,,,,,,,,,,,,,,,,
,,,,,,,,2023-08-16_08h21.10.077,HF_wild_card,2022.2.4,Win32,30.00480077,5fd763c986c8250530939ce2,64d2fd46c836a06233681665,64dc78dc8a4a258588e6c12b,,,,,,,decisionTrl,resources/DY.BMP,resources/DB.BMP,WildCard_NonEx,-0.184027778,0.013888889,1,0,0,0.5665,optionLeft,55,8610,4,34,0,34,0,1,,,,,,,,,,,,,,,,,,,,,,,,,,,,,,,,,,,,,,,
,,,,,,,,2023-08-16_08h21.10.077,HF_wild_card,2022.2.4,Win32,30.00480077,5fd763c986c8250530939ce2,64d2fd46c836a06233681665,64dc78dc8a4a258588e6c12b,,,,,,,decisionTrl,resources/DR.BMP,resources/DP.BMP,Door3,0.2734375,-0.020833333,1,0,0,1.2401,optionRight,70,8680,4,35,0,35,0,1,,,,,,,,,,,,,,,,,,,,,,,,,,,,,,,,,,,,,,,
,,,,,,,,2023-08-16_08h21.10.077,HF_wild_card,2022.2.4,Win32,30.00480077,5fd763c986c8250530939ce2,64d2fd46c836a06233681665,64dc78dc8a4a258588e6c12b,,,,,,,ctch,resources/DR.BMP,resources/DG.BMP,Door4,-0.198784722,-0.001736111,1,0,0,0.5572,optionLeft,80,8760,4,36,0,36,0,1,,,,,,,,,,,,,,,,,,,,,,,,,,,,,,,,,,,,,,,
,,,,,,,,2023-08-16_08h21.10.077,HF_wild_card,2022.2.4,Win32,30.00480077,5fd763c986c8250530939ce2,64d2fd46c836a06233681665,64dc78dc8a4a258588e6c12b,,,,,,,sngl,resources/Empty.png,resources/DG.BMP,Door1,0.269097222,-0.012152778,1,0,0,0.5661,optionRight,30,8790,4,37,0,37,0,1,,,,,,,,,,,,,,,,,,,,,,,,,,,,,,,,,,,,,,,
,,,,,,,,2023-08-16_08h21.10.077,HF_wild_card,2022.2.4,Win32,30.00480077,5fd763c986c8250530939ce2,64d2fd46c836a06233681665,64dc78dc8a4a258588e6c12b,,,,,,,sngl,resources/Empty.png,resources/DB.BMP,Door2,0.181423611,-0.012152778,1,0,0,0.5271,optionRight,40,8830,4,38,0,38,0,1,,,,,,,,,,,,,,,,,,,,,,,,,,,,,,,,,,,,,,,
,,,,,,,,2023-08-16_08h21.10.077,HF_wild_card,2022.2.4,Win32,30.00480077,5fd763c986c8250530939ce2,64d2fd46c836a06233681665,64dc78dc8a4a258588e6c12b,,,,,,,decisionTrl,resources/DR.BMP,resources/DP.BMP,Door3,0.533854167,-0.013888889,1,0,0,1.2278,optionRight,70,8900,4,39,0,39,0,1,,,,,,,,,,,,,,,,,,,,,,,,,,,,,,,,,,,,,,,
,,,,,,,,2023-08-16_08h21.10.077,HF_wild_card,2022.2.4,Win32,30.00480077,5fd763c986c8250530939ce2,64d2fd46c836a06233681665,64dc78dc8a4a258588e6c12b,,,,,,,ctch,resources/DG.BMP,resources/DR.BMP,Door4,0.217881944,-0.026041667,1,0,0,0.847,optionRight,80,8980,4,40,0,40,0,1,,,,,,,,,,,,,,,,,,,,,,,,,,,,,,,,,,,,,,,
,,,,,,,,2023-08-16_08h21.10.077,HF_wild_card,2022.2.4,Win32,30.00480077,5fd763c986c8250530939ce2,64d2fd46c836a06233681665,64dc78dc8a4a258588e6c12b,,,,,,,ctch,resources/DP.BMP,resources/DB.BMP,Door3,-0.193576389,0.020833333,1,0,0,0.7258,optionLeft,70,9050,4,41,0,41,0,1,,,,,,,,,,,,,,,,,,,,,,,,,,,,,,,,,,,,,,,
,,,,,,,,2023-08-16_08h21.10.077,HF_wild_card,2022.2.4,Win32,30.00480077,5fd763c986c8250530939ce2,64d2fd46c836a06233681665,64dc78dc8a4a258588e6c12b,,,,,,,decisionTrl,resources/DP.BMP,resources/DR.BMP,Door3,-0.176215278,-0.002604167,1,0,0,0.5892,optionLeft,70,9120,4,42,0,42,0,1,,,,,,,,,,,,,,,,,,,,,,,,,,,,,,,,,,,,,,,
,,,,,,,,2023-08-16_08h21.10.077,HF_wild_card,2022.2.4,Win32,30.00480077,5fd763c986c8250530939ce2,64d2fd46c836a06233681665,64dc78dc8a4a258588e6c12b,,,,,,,sngl,resources/DY.BMP,resources/Empty.png,WildCard_NonEx,-0.197916667,0.0078125,1,0,0,0.504,optionLeft,55,9175,4,43,0,43,0,1,,,,,,,,,,,,,,,,,,,,,,,,,,,,,,,,,,,,,,,
,,,,,,,,2023-08-16_08h21.10.077,HF_wild_card,2022.2.4,Win32,30.00480077,5fd763c986c8250530939ce2,64d2fd46c836a06233681665,64dc78dc8a4a258588e6c12b,,,,,,,,,,,,,,,,,,,,,,,,,,3,0,3,0,1,,,,,,,,,,,,,,,,,,,,,,,,,,,,,,,,,,
,,,,,,,,2023-08-16_08h21.10.077,HF_wild_card,2022.2.4,Win32,30.00480077,5fd763c986c8250530939ce2,64d2fd46c836a06233681665,64dc78dc8a4a258588e6c12b,,,,,,,decisionTrl,resources/DB.BMP,resources/DY.BMP,WildCard_NonEx,0.418402778,-0.073784722,1,0,0,1.1916,optionRight,45,9220,5,0,0,0,0,1,,,,,,,,,,,,,,,,,,,,,,,,,,,,,,,,,,,,,,,
,,,,,,,,2023-08-16_08h21.10.077,HF_wild_card,2022.2.4,Win32,30.00480077,5fd763c986c8250530939ce2,64d2fd46c836a06233681665,64dc78dc8a4a258588e6c12b,,,,,,,sngl,resources/Empty.png,resources/DY.BMP,WildCard_NonEx,0.421875,-0.012152778,1,0,0,0.5745,optionRight,45,9265,5,1,0,1,0,1,,,,,,,,,,,,,,,,,,,,,,,,,,,,,,,,,,,,,,,
,,,,,,,,2023-08-16_08h21.10.077,HF_wild_card,2022.2.4,Win32,30.00480077,5fd763c986c8250530939ce2,64d2fd46c836a06233681665,64dc78dc8a4a258588e6c12b,,,,,,,ctch,resources/DG.BMP,resources/DR.BMP,Door4,0.293402778,-0.006076389,1,0,0,0.7602,optionRight,60,9325,5,2,0,2,0,1,,,,,,,,,,,,,,,,,,,,,,,,,,,,,,,,,,,,,,,
,,,,,,,,2023-08-16_08h21.10.077,HF_wild_card,2022.2.4,Win32,30.00480077,5fd763c986c8250530939ce2,64d2fd46c836a06233681665,64dc78dc8a4a258588e6c12b,,,,,,,decisionTrl,resources/DB.BMP,resources/DG.BMP,Door1,0.347222222,-0.033854167,1,0,0,0.8926,optionRight,30,9355,5,3,0,3,0,1,,,,,,,,,,,,,,,,,,,,,,,,,,,,,,,,,,,,,,,
,,,,,,,,2023-08-16_08h21.10.077,HF_wild_card,2022.2.4,Win32,30.00480077,5fd763c986c8250530939ce2,64d2fd46c836a06233681665,64dc78dc8a4a258588e6c12b,,,,,,,decisionTrl,resources/DB.BMP,resources/DG.BMP,Door1,0.276041667,-0.024305556,1,0,0,0.9376,optionRight,30,9385,5,4,0,4,0,1,,,,,,,,,,,,,,,,,,,,,,,,,,,,,,,,,,,,,,,
,,,,,,,,2023-08-16_08h21.10.077,HF_wild_card,2022.2.4,Win32,30.00480077,5fd763c986c8250530939ce2,64d2fd46c836a06233681665,64dc78dc8a4a258588e6c12b,,,,,,,decisionTrl,resources/DG.BMP,resources/DY.BMP,WildCard_NonEx,0.296875,-0.068576389,1,0,0,0.9095,optionRight,55,9440,5,5,0,5,0,1,,,,,,,,,,,,,,,,,,,,,,,,,,,,,,,,,,,,,,,
,,,,,,,,2023-08-16_08h21.10.077,HF_wild_card,2022.2.4,Win32,30.00480077,5fd763c986c8250530939ce2,64d2fd46c836a06233681665,64dc78dc8a4a258588e6c12b,,,,,,,decisionTrl,resources/DP.BMP,resources/DR.BMP,Door3,-0.346354167,0.022569444,1,0,0,1.4109,optionLeft,70,9510,5,6,0,6,0,1,,,,,,,,,,,,,,,,,,,,,,,,,,,,,,,,,,,,,,,
,,,,,,,,2023-08-16_08h21.10.077,HF_wild_card,2022.2.4,Win32,30.00480077,5fd763c986c8250530939ce2,64d2fd46c836a06233681665,64dc78dc8a4a258588e6c12b,,,,,,,sngl,resources/DP.BMP,resources/Empty.png,Door3,-0.282986111,-0.021701389,1,0,0,2.1402,optionLeft,70,9580,5,7,0,7,0,1,,,,,,,,,,,,,,,,,,,,,,,,,,,,,,,,,,,,,,,
,,,,,,,,2023-08-16_08h21.10.077,HF_wild_card,2022.2.4,Win32,30.00480077,5fd763c986c8250530939ce2,64d2fd46c836a06233681665,64dc78dc8a4a258588e6c12b,,,,,,,decisionTrl,resources/DR.BMP,resources/DP.BMP,Door3,0.322048611,-0.024305556,1,0,0,0.6715,optionRight,70,9650,5,8,0,8,0,1,,,,,,,,,,,,,,,,,,,,,,,,,,,,,,,,,,,,,,,
,,,,,,,,2023-08-16_08h21.10.077,HF_wild_card,2022.2.4,Win32,30.00480077,5fd763c986c8250530939ce2,64d2fd46c836a06233681665,64dc78dc8a4a258588e6c12b,,,,,,,sngl,resources/DB.BMP,resources/Empty.png,Door2,-0.21875,-0.004340278,1,0,0,0.7509,optionLeft,40,9690,5,9,0,9,0,1,,,,,,,,,,,,,,,,,,,,,,,,,,,,,,,,,,,,,,,
,,,,,,,,2023-08-16_08h21.10.077,HF_wild_card,2022.2.4,Win32,30.00480077,5fd763c986c8250530939ce2,64d2fd46c836a06233681665,64dc78dc8a4a258588e6c12b,,,,,,,decisionTrl,resources/DB.BMP,resources/DG.BMP,Door1,0.270833333,0.000868056,1,0,0,0.7493,optionRight,30,9720,5,10,0,10,0,1,,,,,,,,,,,,,,,,,,,,,,,,,,,,,,,,,,,,,,,
,,,,,,,,2023-08-16_08h21.10.077,HF_wild_card,2022.2.4,Win32,30.00480077,5fd763c986c8250530939ce2,64d2fd46c836a06233681665,64dc78dc8a4a258588e6c12b,,,,,,,sngl,resources/DY.BMP,resources/Empty.png,WildCard_NonEx,-0.207465278,-0.006944444,1,0,0,0.5242,optionLeft,55,9775,5,11,0,11,0,1,,,,,,,,,,,,,,,,,,,,,,,,,,,,,,,,,,,,,,,
,,,,,,,,2023-08-16_08h21.10.077,HF_wild_card,2022.2.4,Win32,30.00480077,5fd763c986c8250530939ce2,64d2fd46c836a06233681665,64dc78dc8a4a258588e6c12b,,,,,,,decisionTrl,resources/DY.BMP,resources/DP.BMP,Door3,0.222222222,-0.038194444,1,0,0,0.6489,optionRight,70,9845,5,12,0,12,0,1,,,,,,,,,,,,,,,,,,,,,,,,,,,,,,,,,,,,,,,
,,,,,,,,2023-08-16_08h21.10.077,HF_wild_card,2022.2.4,Win32,30.00480077,5fd763c986c8250530939ce2,64d2fd46c836a06233681665,64dc78dc8a4a258588e6c12b,,,,,,,decisionTrl,resources/DB.BMP,resources/DG.BMP,Door1,0.576388889,-0.024305556,1,0,0,0.7526,optionRight,30,9875,5,13,0,13,0,1,,,,,,,,,,,,,,,,,,,,,,,,,,,,,,,,,,,,,,,
,,,,,,,,2023-08-16_08h21.10.077,HF_wild_card,2022.2.4,Win32,30.00480077,5fd763c986c8250530939ce2,64d2fd46c836a06233681665,64dc78dc8a4a258588e6c12b,,,,,,,ctch,resources/DR.BMP,resources/DG.BMP,Door4,-0.314236111,-0.001736111,1,0,0,0.5916,optionLeft,60,9935,5,14,0,14,0,1,,,,,,,,,,,,,,,,,,,,,,,,,,,,,,,,,,,,,,,
,,,,,,,,2023-08-16_08h21.10.077,HF_wild_card,2022.2.4,Win32,30.00480077,5fd763c986c8250530939ce2,64d2fd46c836a06233681665,64dc78dc8a4a258588e6c12b,,,,,,,decisionTrl,resources/DP.BMP,resources/DR.BMP,Door3,-0.348958333,-0.024305556,1,0,0,0.7915,optionLeft,70,10005,5,15,0,15,0,1,,,,,,,,,,,,,,,,,,,,,,,,,,,,,,,,,,,,,,,
,,,,,,,,2023-08-16_08h21.10.077,HF_wild_card,2022.2.4,Win32,30.00480077,5fd763c986c8250530939ce2,64d2fd46c836a06233681665,64dc78dc8a4a258588e6c12b,,,,,,,ctch,resources/DR.BMP,resources/DG.BMP,Door4,-0.449652778,-0.009548611,1,0,0,1.0086,optionLeft,60,10065,5,16,0,16,0,1,,,,,,,,,,,,,,,,,,,,,,,,,,,,,,,,,,,,,,,
,,,,,,,,2023-08-16_08h21.10.077,HF_wild_card,2022.2.4,Win32,30.00480077,5fd763c986c8250530939ce2,64d2fd46c836a06233681665,64dc78dc8a4a258588e6c12b,,,,,,,decisionTrl,resources/DP.BMP,resources/DY.BMP,Door3,-0.376736111,0.012152778,1,0,0,0.7384,optionLeft,70,10135,5,17,0,17,0,1,,,,,,,,,,,,,,,,,,,,,,,,,,,,,,,,,,,,,,,
,,,,,,,,2023-08-16_08h21.10.077,HF_wild_card,2022.2.4,Win32,30.00480077,5fd763c986c8250530939ce2,64d2fd46c836a06233681665,64dc78dc8a4a258588e6c12b,,,,,,,ctch,resources/DB.BMP,resources/DP.BMP,Door3,0.335069444,-0.032118056,1,0,0,0.6829,optionRight,70,10205,5,18,0,18,0,1,,,,,,,,,,,,,,,,,,,,,,,,,,,,,,,,,,,,,,,
,,,,,,,,2023-08-16_08h21.10.077,HF_wild_card,2022.2.4,Win32,30.00480077,5fd763c986c8250530939ce2,64d2fd46c836a06233681665,64dc78dc8a4a258588e6c12b,,,,,,,decisionTrl,resources/DR.BMP,resources/DY.BMP,Door4,-0.207465278,-0.004340278,1,0,0,0.5953,optionLeft,60,10265,5,19,0,19,0,1,,,,,,,,,,,,,,,,,,,,,,,,,,,,,,,,,,,,,,,
,,,,,,,,2023-08-16_08h21.10.077,HF_wild_card,2022.2.4,Win32,30.00480077,5fd763c986c8250530939ce2,64d2fd46c836a06233681665,64dc78dc8a4a258588e6c12b,,,,,,,ctch,resources/DP.BMP,resources/DB.BMP,Door3,-0.21875,0.004340278,1,0,0,0.5813,optionLeft,70,10335,5,20,0,20,0,1,,,,,,,,,,,,,,,,,,,,,,,,,,,,,,,,,,,,,,,
,,,,,,,,2023-08-16_08h21.10.077,HF_wild_card,2022.2.4,Win32,30.00480077,5fd763c986c8250530939ce2,64d2fd46c836a06233681665,64dc78dc8a4a258588e6c12b,,,,,,,sngl,resources/DR.BMP,resources/Empty.png,Door4,-0.171875,-0.011284722,1,0,0,0.5631,optionLeft,80,10415,5,21,0,21,0,1,,,,,,,,,,,,,,,,,,,,,,,,,,,,,,,,,,,,,,,
,,,,,,,,2023-08-16_08h21.10.077,HF_wild_card,2022.2.4,Win32,30.00480077,5fd763c986c8250530939ce2,64d2fd46c836a06233681665,64dc78dc8a4a258588e6c12b,,,,,,,decisionTrl,resources/DR.BMP,resources/DP.BMP,Door4,-0.140625,0.015625,1,0,0,0.717,optionLeft,80,10495,5,22,0,22,0,1,,,,,,,,,,,,,,,,,,,,,,,,,,,,,,,,,,,,,,,
,,,,,,,,2023-08-16_08h21.10.077,HF_wild_card,2022.2.4,Win32,30.00480077,5fd763c986c8250530939ce2,64d2fd46c836a06233681665,64dc78dc8a4a258588e6c12b,,,,,,,sngl,resources/DY.BMP,resources/Empty.png,WildCard_NonEx,-0.291666667,-0.002604167,1,0,0,0.5156,optionLeft,45,10540,5,23,0,23,0,1,,,,,,,,,,,,,,,,,,,,,,,,,,,,,,,,,,,,,,,
,,,,,,,,2023-08-16_08h21.10.077,HF_wild_card,2022.2.4,Win32,30.00480077,5fd763c986c8250530939ce2,64d2fd46c836a06233681665,64dc78dc8a4a258588e6c12b,,,,,,,decisionTrl,resources/DR.BMP,resources/DP.BMP,Door3,0.3359375,-0.016493056,1,0,0,0.6323,optionRight,70,10610,5,24,0,24,0,1,,,,,,,,,,,,,,,,,,,,,,,,,,,,,,,,,,,,,,,
,,,,,,,,2023-08-16_08h21.10.077,HF_wild_card,2022.2.4,Win32,30.00480077,5fd763c986c8250530939ce2,64d2fd46c836a06233681665,64dc78dc8a4a258588e6c12b,,,,,,,ctch,resources/DB.BMP,resources/DP.BMP,Door3,0.369791667,-0.0078125,1,0,0,0.6963,optionRight,70,10680,5,25,0,25,0,1,,,,,,,,,,,,,,,,,,,,,,,,,,,,,,,,,,,,,,,
,,,,,,,,2023-08-16_08h21.10.077,HF_wild_card,2022.2.4,Win32,30.00480077,5fd763c986c8250530939ce2,64d2fd46c836a06233681665,64dc78dc8a4a258588e6c12b,,,,,,,decisionTrl,resources/DY.BMP,resources/DG.BMP,WildCard_NonEx,-0.239583333,0.001736111,1,0,0,0.5359,optionLeft,45,10725,5,26,0,26,0,1,,,,,,,,,,,,,,,,,,,,,,,,,,,,,,,,,,,,,,,
,,,,,,,,2023-08-16_08h21.10.077,HF_wild_card,2022.2.4,Win32,30.00480077,5fd763c986c8250530939ce2,64d2fd46c836a06233681665,64dc78dc8a4a258588e6c12b,,,,,,,decisionTrl,resources/DY.BMP,resources/DR.BMP,WildCard_NonEx,-0.233506944,0.019097222,1,0,0,0.6078,optionLeft,55,10780,5,27,0,27,0,1,,,,,,,,,,,,,,,,,,,,,,,,,,,,,,,,,,,,,,,
,,,,,,,,2023-08-16_08h21.10.077,HF_wild_card,2022.2.4,Win32,30.00480077,5fd763c986c8250530939ce2,64d2fd46c836a06233681665,64dc78dc8a4a258588e6c12b,,,,,,,ctch,resources/DG.BMP,resources/DR.BMP,Door4,0.521701389,0.006944444,1,0,0,0.7605,optionRight,80,10860,5,28,0,28,0,1,,,,,,,,,,,,,,,,,,,,,,,,,,,,,,,,,,,,,,,
,,,,,,,,2023-08-16_08h21.10.077,HF_wild_card,2022.2.4,Win32,30.00480077,5fd763c986c8250530939ce2,64d2fd46c836a06233681665,64dc78dc8a4a258588e6c12b,,,,,,,decisionTrl,resources/DG.BMP,resources/DB.BMP,Door1,-0.171875,0.003472222,1,0,0,0.591,optionLeft,30,10890,5,29,0,29,0,1,,,,,,,,,,,,,,,,,,,,,,,,,,,,,,,,,,,,,,,
,,,,,,,,2023-08-16_08h21.10.077,HF_wild_card,2022.2.4,Win32,30.00480077,5fd763c986c8250530939ce2,64d2fd46c836a06233681665,64dc78dc8a4a258588e6c12b,,,,,,,decisionTrl,resources/DR.BMP,resources/DP.BMP,Door3,0.196180556,-0.003472222,1,0,0,0.5105,optionRight,70,10960,5,30,0,30,0,1,,,,,,,,,,,,,,,,,,,,,,,,,,,,,,,,,,,,,,,
,,,,,,,,2023-08-16_08h21.10.077,HF_wild_card,2022.2.4,Win32,30.00480077,5fd763c986c8250530939ce2,64d2fd46c836a06233681665,64dc78dc8a4a258588e6c12b,,,,,,,sngl,resources/DG.BMP,resources/Empty.png,Door1,-0.201388889,0.014756944,1,0,0,0.4647,optionLeft,30,10990,5,31,0,31,0,1,,,,,,,,,,,,,,,,,,,,,,,,,,,,,,,,,,,,,,,
,,,,,,,,2023-08-16_08h21.10.077,HF_wild_card,2022.2.4,Win32,30.00480077,5fd763c986c8250530939ce2,64d2fd46c836a06233681665,64dc78dc8a4a258588e6c12b,,,,,,,decisionTrl,resources/DP.BMP,resources/DR.BMP,Door3,-0.266493056,0.004340278,1,0,0,0.5193,optionLeft,70,11060,5,32,0,32,0,1,,,,,,,,,,,,,,,,,,,,,,,,,,,,,,,,,,,,,,,
,,,,,,,,2023-08-16_08h21.10.077,HF_wild_card,2022.2.4,Win32,30.00480077,5fd763c986c8250530939ce2,64d2fd46c836a06233681665,64dc78dc8a4a258588e6c12b,,,,,,,sngl,resources/Empty.png,resources/DP.BMP,Door3,0.375,-0.013020833,1,0,0,0.4734,optionRight,70,11130,5,33,0,33,0,1,,,,,,,,,,,,,,,,,,,,,,,,,,,,,,,,,,,,,,,
,,,,,,,,2023-08-16_08h21.10.077,HF_wild_card,2022.2.4,Win32,30.00480077,5fd763c986c8250530939ce2,64d2fd46c836a06233681665,64dc78dc8a4a258588e6c12b,,,,,,,decisionTrl,resources/DG.BMP,resources/DB.BMP,Door1,-0.286458333,-0.011284722,1,0,0,1.1954,optionLeft,30,11160,5,34,0,34,0,1,,,,,,,,,,,,,,,,,,,,,,,,,,,,,,,,,,,,,,,
,,,,,,,,2023-08-16_08h21.10.077,HF_wild_card,2022.2.4,Win32,30.00480077,5fd763c986c8250530939ce2,64d2fd46c836a06233681665,64dc78dc8a4a258588e6c12b,,,,,,,ctch,resources/DP.BMP,resources/DB.BMP,Door2,0.150173611,-0.009548611,1,0,0,0.6803,optionRight,20,11180,5,35,0,35,0,1,,,,,,,,,,,,,,,,,,,,,,,,,,,,,,,,,,,,,,,
,,,,,,,,2023-08-16_08h21.10.077,HF_wild_card,2022.2.4,Win32,30.00480077,5fd763c986c8250530939ce2,64d2fd46c836a06233681665,64dc78dc8a4a258588e6c12b,,,,,,,decisionTrl,resources/DG.BMP,resources/DB.BMP,Door1,-0.115451389,0.004340278,1,0,0,0.7432,optionLeft,30,11210,5,36,0,36,0,1,,,,,,,,,,,,,,,,,,,,,,,,,,,,,,,,,,,,,,,
,,,,,,,,2023-08-16_08h21.10.077,HF_wild_card,2022.2.4,Win32,30.00480077,5fd763c986c8250530939ce2,64d2fd46c836a06233681665,64dc78dc8a4a258588e6c12b,,,,,,,sngl,resources/Empty.png,resources/DG.BMP,Door1,0.532118056,-0.025173611,1,0,0,0.5091,optionRight,30,11240,5,37,0,37,0,1,,,,,,,,,,,,,,,,,,,,,,,,,,,,,,,,,,,,,,,
,,,,,,,,2023-08-16_08h21.10.077,HF_wild_card,2022.2.4,Win32,30.00480077,5fd763c986c8250530939ce2,64d2fd46c836a06233681665,64dc78dc8a4a258588e6c12b,,,,,,,decisionTrl,resources/DY.BMP,resources/DB.BMP,WildCard_NonEx,-0.134548611,0.002604167,1,0,0,0.6578,optionLeft,55,11295,5,38,0,38,0,1,,,,,,,,,,,,,,,,,,,,,,,,,,,,,,,,,,,,,,,
,,,,,,,,2023-08-16_08h21.10.077,HF_wild_card,2022.2.4,Win32,30.00480077,5fd763c986c8250530939ce2,64d2fd46c836a06233681665,64dc78dc8a4a258588e6c12b,,,,,,,decisionTrl,resources/DP.BMP,resources/DR.BMP,Door3,-0.270833333,0.0078125,1,0,0,1.1572,optionLeft,70,11365,5,39,0,39,0,1,,,,,,,,,,,,,,,,,,,,,,,,,,,,,,,,,,,,,,,
,,,,,,,,2023-08-16_08h21.10.077,HF_wild_card,2022.2.4,Win32,30.00480077,5fd763c986c8250530939ce2,64d2fd46c836a06233681665,64dc78dc8a4a258588e6c12b,,,,,,,sngl,resources/Empty.png,resources/DR.BMP,Door4,0.317708333,-0.021701389,1,0,0,0.4904,optionRight,60,11425,5,40,0,40,0,1,,,,,,,,,,,,,,,,,,,,,,,,,,,,,,,,,,,,,,,
,,,,,,,,2023-08-16_08h21.10.077,HF_wild_card,2022.2.4,Win32,30.00480077,5fd763c986c8250530939ce2,64d2fd46c836a06233681665,64dc78dc8a4a258588e6c12b,,,,,,,sngl,resources/Empty.png,resources/DY.BMP,WildCard_NonEx,0.269965278,-0.001736111,1,0,0,0.5519,optionRight,55,11480,5,41,0,41,0,1,,,,,,,,,,,,,,,,,,,,,,,,,,,,,,,,,,,,,,,
,,,,,,,,2023-08-16_08h21.10.077,HF_wild_card,2022.2.4,Win32,30.00480077,5fd763c986c8250530939ce2,64d2fd46c836a06233681665,64dc78dc8a4a258588e6c12b,,,,,,,decisionTrl,resources/DG.BMP,resources/DB.BMP,Door1,-0.1796875,-0.006944444,1,0,0,0.8237,optionLeft,30,11510,5,42,0,42,0,1,,,,,,,,,,,,,,,,,,,,,,,,,,,,,,,,,,,,,,,
,,,,,,,,2023-08-16_08h21.10.077,HF_wild_card,2022.2.4,Win32,30.00480077,5fd763c986c8250530939ce2,64d2fd46c836a06233681665,64dc78dc8a4a258588e6c12b,,,,,,,sngl,resources/Empty.png,resources/DB.BMP,Door2,0.527777778,0.009548611,1,0,0,0.5084,optionRight,20,11530,5,43,0,43,0,1,,,,,,,,,,,,,,,,,,,,,,,,,,,,,,,,,,,,,,,
,,,,,,,,2023-08-16_08h21.10.077,HF_wild_card,2022.2.4,Win32,30.00480077,5fd763c986c8250530939ce2,64d2fd46c836a06233681665,64dc78dc8a4a258588e6c12b,,,,,,,,,,,,,,,,,,,,,,,,,,4,0,4,0,1,,,,,,,,,,,,,,,,,,,,,,,,,,,,,,,,,,
,,,,,,,,2023-08-16_08h21.10.077,HF_wild_card,2022.2.4,Win32,30.00480077,5fd763c986c8250530939ce2,64d2fd46c836a06233681665,64dc78dc8a4a258588e6c12b,,,,,,,decisionTrl,resources/DB.BMP,resources/DY.BMP,WildCard_NonEx,0.321180556,-0.057291667,1,0,0,0.8756,optionRight,45,11575,6,0,0,0,0,1,,,,,,,,,,,,,,,,,,,,,,,,,,,,,,,,,,,,,,,
,,,,,,,,2023-08-16_08h21.10.077,HF_wild_card,2022.2.4,Win32,30.00480077,5fd763c986c8250530939ce2,64d2fd46c836a06233681665,64dc78dc8a4a258588e6c12b,,,,,,,ctch,resources/DP.BMP,resources/DB.BMP,Door3,-0.230034722,0.006944444,1,0,0,0.5481,optionLeft,70,11645,6,1,0,1,0,1,,,,,,,,,,,,,,,,,,,,,,,,,,,,,,,,,,,,,,,
,,,,,,,,2023-08-16_08h21.10.077,HF_wild_card,2022.2.4,Win32,30.00480077,5fd763c986c8250530939ce2,64d2fd46c836a06233681665,64dc78dc8a4a258588e6c12b,,,,,,,sngl,resources/Empty.png,resources/DP.BMP,Door3,0.203125,-0.038194444,1,0,0,0.5102,optionRight,70,11715,6,2,0,2,0,1,,,,,,,,,,,,,,,,,,,,,,,,,,,,,,,,,,,,,,,
,,,,,,,,2023-08-16_08h21.10.077,HF_wild_card,2022.2.4,Win32,30.00480077,5fd763c986c8250530939ce2,64d2fd46c836a06233681665,64dc78dc8a4a258588e6c12b,,,,,,,sngl,resources/Empty.png,resources/DR.BMP,Door4,0.425347222,-0.059895833,1,0,0,0.5138,optionRight,80,11795,6,3,0,3,0,1,,,,,,,,,,,,,,,,,,,,,,,,,,,,,,,,,,,,,,,
,,,,,,,,2023-08-16_08h21.10.077,HF_wild_card,2022.2.4,Win32,30.00480077,5fd763c986c8250530939ce2,64d2fd46c836a06233681665,64dc78dc8a4a258588e6c12b,,,,,,,ctch,resources/DP.BMP,resources/DB.BMP,Door3,-0.353298611,-0.009548611,1,0,0,0.5474,optionLeft,70,11865,6,4,0,4,0,1,,,,,,,,,,,,,,,,,,,,,,,,,,,,,,,,,,,,,,,
,,,,,,,,2023-08-16_08h21.10.077,HF_wild_card,2022.2.4,Win32,30.00480077,5fd763c986c8250530939ce2,64d2fd46c836a06233681665,64dc78dc8a4a258588e6c12b,,,,,,,decisionTrl,resources/DG.BMP,resources/DB.BMP,Door1,-0.197916667,-0.012152778,1,0,0,6.232,optionLeft,30,11895,6,5,0,5,0,1,,,,,,,,,,,,,,,,,,,,,,,,,,,,,,,,,,,,,,,
,,,,,,,,2023-08-16_08h21.10.077,HF_wild_card,2022.2.4,Win32,30.00480077,5fd763c986c8250530939ce2,64d2fd46c836a06233681665,64dc78dc8a4a258588e6c12b,,,,,,,sngl,resources/DY.BMP,resources/Empty.png,WildCard_NonEx,-0.331597222,-0.014756944,1,0,0,0.6478,optionLeft,55,11950,6,6,0,6,0,1,,,,,,,,,,,,,,,,,,,,,,,,,,,,,,,,,,,,,,,
,,,,,,,,2023-08-16_08h21.10.077,HF_wild_card,2022.2.4,Win32,30.00480077,5fd763c986c8250530939ce2,64d2fd46c836a06233681665,64dc78dc8a4a258588e6c12b,,,,,,,ctch,resources/DB.BMP,resources/DP.BMP,Door3,0.307291667,-0.046875,1,0,0,2.1998,optionRight,70,12020,6,7,0,7,0,1,,,,,,,,,,,,,,,,,,,,,,,,,,,,,,,,,,,,,,,
,,,,,,,,2023-08-16_08h21.10.077,HF_wild_card,2022.2.4,Win32,30.00480077,5fd763c986c8250530939ce2,64d2fd46c836a06233681665,64dc78dc8a4a258588e6c12b,,,,,,,decisionTrl,resources/DP.BMP,resources/DR.BMP,Door3,-0.285590278,0.001736111,1,0,0,0.6117,optionLeft,70,12090,6,8,0,8,0,1,,,,,,,,,,,,,,,,,,,,,,,,,,,,,,,,,,,,,,,
,,,,,,,,2023-08-16_08h21.10.077,HF_wild_card,2022.2.4,Win32,30.00480077,5fd763c986c8250530939ce2,64d2fd46c836a06233681665,64dc78dc8a4a258588e6c12b,,,,,,,sngl,resources/DR.BMP,resources/Empty.png,Door4,-0.177951389,0.010416667,1,0,0,0.5222,optionLeft,60,12150,6,9,0,9,0,1,,,,,,,,,,,,,,,,,,,,,,,,,,,,,,,,,,,,,,,
,,,,,,,,2023-08-16_08h21.10.077,HF_wild_card,2022.2.4,Win32,30.00480077,5fd763c986c8250530939ce2,64d2fd46c836a06233681665,64dc78dc8a4a258588e6c12b,,,,,,,decisionTrl,resources/DR.BMP,resources/DP.BMP,Door3,0.369791667,-0.041666667,1,0,0,0.5376,optionRight,70,12220,6,10,0,10,0,1,,,,,,,,,,,,,,,,,,,,,,,,,,,,,,,,,,,,,,,
,,,,,,,,2023-08-16_08h21.10.077,HF_wild_card,2022.2.4,Win32,30.00480077,5fd763c986c8250530939ce2,64d2fd46c836a06233681665,64dc78dc8a4a258588e6c12b,,,,,,,decisionTrl,resources/DB.BMP,resources/DG.BMP,Door1,0.0703125,-0.001736111,1,0,0,0.7979,optionRight,30,12250,6,11,0,11,0,1,,,,,,,,,,,,,,,,,,,,,,,,,,,,,,,,,,,,,,,
,,,,,,,,2023-08-16_08h21.10.077,HF_wild_card,2022.2.4,Win32,30.00480077,5fd763c986c8250530939ce2,64d2fd46c836a06233681665,64dc78dc8a4a258588e6c12b,,,,,,,ctch,resources/DR.BMP,resources/DG.BMP,Door4,-0.178819444,0.013020833,1,0,0,0.6034,optionLeft,80,12330,6,12,0,12,0,1,,,,,,,,,,,,,,,,,,,,,,,,,,,,,,,,,,,,,,,
,,,,,,,,2023-08-16_08h21.10.077,HF_wild_card,2022.2.4,Win32,30.00480077,5fd763c986c8250530939ce2,64d2fd46c836a06233681665,64dc78dc8a4a258588e6c12b,,,,,,,sngl,resources/Empty.png,resources/DG.BMP,Door1,0.419270833,-0.055555556,1,0,0,0.5086,optionRight,30,12360,6,13,0,13,0,1,,,,,,,,,,,,,,,,,,,,,,,,,,,,,,,,,,,,,,,
,,,,,,,,2023-08-16_08h21.10.077,HF_wild_card,2022.2.4,Win32,30.00480077,5fd763c986c8250530939ce2,64d2fd46c836a06233681665,64dc78dc8a4a258588e6c12b,,,,,,,decisionTrl,resources/DR.BMP,resources/DP.BMP,Door3,0.249131944,-0.026909722,1,0,0,0.9078,optionRight,70,12430,6,14,0,14,0,1,,,,,,,,,,,,,,,,,,,,,,,,,,,,,,,,,,,,,,,
,,,,,,,,2023-08-16_08h21.10.077,HF_wild_card,2022.2.4,Win32,30.00480077,5fd763c986c8250530939ce2,64d2fd46c836a06233681665,64dc78dc8a4a258588e6c12b,,,,,,,decisionTrl,resources/DP.BMP,resources/DR.BMP,Door3,-0.2109375,0.009548611,1,0,0,0.6134,optionLeft,70,12500,6,15,0,15,0,1,,,,,,,,,,,,,,,,,,,,,,,,,,,,,,,,,,,,,,,
,,,,,,,,2023-08-16_08h21.10.077,HF_wild_card,2022.2.4,Win32,30.00480077,5fd763c986c8250530939ce2,64d2fd46c836a06233681665,64dc78dc8a4a258588e6c12b,,,,,,,decisionTrl,resources/DR.BMP,resources/DP.BMP,Door3,0.215277778,0,1,0,0,0.6054,optionRight,70,12570,6,16,0,16,0,1,,,,,,,,,,,,,,,,,,,,,,,,,,,,,,,,,,,,,,,
,,,,,,,,2023-08-16_08h21.10.077,HF_wild_card,2022.2.4,Win32,30.00480077,5fd763c986c8250530939ce2,64d2fd46c836a06233681665,64dc78dc8a4a258588e6c12b,,,,,,,decisionTrl,resources/DR.BMP,resources/DP.BMP,Door3,0.337673611,-0.0234375,1,0,0,0.5506,optionRight,70,12640,6,17,0,17,0,1,,,,,,,,,,,,,,,,,,,,,,,,,,,,,,,,,,,,,,,
,,,,,,,,2023-08-16_08h21.10.077,HF_wild_card,2022.2.4,Win32,30.00480077,5fd763c986c8250530939ce2,64d2fd46c836a06233681665,64dc78dc8a4a258588e6c12b,,,,,,,decisionTrl,resources/DR.BMP,resources/DY.BMP,Door4,-0.353298611,0.019097222,1,0,0,0.692,optionLeft,80,12720,6,18,0,18,0,1,,,,,,,,,,,,,,,,,,,,,,,,,,,,,,,,,,,,,,,
,,,,,,,,2023-08-16_08h21.10.077,HF_wild_card,2022.2.4,Win32,30.00480077,5fd763c986c8250530939ce2,64d2fd46c836a06233681665,64dc78dc8a4a258588e6c12b,,,,,,,decisionTrl,resources/DB.BMP,resources/DG.BMP,Door1,0.243923611,-0.013888889,1,0,0,0.9584,optionRight,30,12750,6,19,0,19,0,1,,,,,,,,,,,,,,,,,,,,,,,,,,,,,,,,,,,,,,,
,,,,,,,,2023-08-16_08h21.10.077,HF_wild_card,2022.2.4,Win32,30.00480077,5fd763c986c8250530939ce2,64d2fd46c836a06233681665,64dc78dc8a4a258588e6c12b,,,,,,,decisionTrl,resources/DY.BMP,resources/DP.BMP,Door3,0.401041667,-0.045138889,1,0,0,0.5712,optionRight,70,12820,6,20,0,20,0,1,,,,,,,,,,,,,,,,,,,,,,,,,,,,,,,,,,,,,,,
,,,,,,,,2023-08-16_08h21.10.077,HF_wild_card,2022.2.4,Win32,30.00480077,5fd763c986c8250530939ce2,64d2fd46c836a06233681665,64dc78dc8a4a258588e6c12b,,,,,,,decisionTrl,resources/DG.BMP,resources/DB.BMP,Door1,-0.274305556,0.021701389,1,0,0,0.9271,optionLeft,30,12850,6,21,0,21,0,1,,,,,,,,,,,,,,,,,,,,,,,,,,,,,,,,,,,,,,,
,,,,,,,,2023-08-16_08h21.10.077,HF_wild_card,2022.2.4,Win32,30.00480077,5fd763c986c8250530939ce2,64d2fd46c836a06233681665,64dc78dc8a4a258588e6c12b,,,,,,,sngl,resources/Empty.png,resources/DY.BMP,WildCard_NonEx,0.161458333,-0.003472222,1,0,0,0.5928,optionRight,45,12895,6,22,0,22,0,1,,,,,,,,,,,,,,,,,,,,,,,,,,,,,,,,,,,,,,,
,,,,,,,,2023-08-16_08h21.10.077,HF_wild_card,2022.2.4,Win32,30.00480077,5fd763c986c8250530939ce2,64d2fd46c836a06233681665,64dc78dc8a4a258588e6c12b,,,,,,,sngl,resources/DG.BMP,resources/Empty.png,Door1,-0.370659722,0.048611111,1,0,0,0.5162,optionLeft,30,12925,6,23,0,23,0,1,,,,,,,,,,,,,,,,,,,,,,,,,,,,,,,,,,,,,,,
,,,,,,,,2023-08-16_08h21.10.077,HF_wild_card,2022.2.4,Win32,30.00480077,5fd763c986c8250530939ce2,64d2fd46c836a06233681665,64dc78dc8a4a258588e6c12b,,,,,,,decisionTrl,resources/DG.BMP,resources/DB.BMP,Door2,0.169270833,-0.006076389,1,0,0,0.9216,optionRight,20,12945,6,24,0,24,0,1,,,,,,,,,,,,,,,,,,,,,,,,,,,,,,,,,,,,,,,
,,,,,,,,2023-08-16_08h21.10.077,HF_wild_card,2022.2.4,Win32,30.00480077,5fd763c986c8250530939ce2,64d2fd46c836a06233681665,64dc78dc8a4a258588e6c12b,,,,,,,decisionTrl,resources/DY.BMP,resources/DB.BMP,WildCard_NonEx,-0.157986111,0.013888889,1,0,0,0.6,optionLeft,55,13000,6,25,0,25,0,1,,,,,,,,,,,,,,,,,,,,,,,,,,,,,,,,,,,,,,,
,,,,,,,,2023-08-16_08h21.10.077,HF_wild_card,2022.2.4,Win32,30.00480077,5fd763c986c8250530939ce2,64d2fd46c836a06233681665,64dc78dc8a4a258588e6c12b,,,,,,,decisionTrl,resources/DG.BMP,resources/DY.BMP,Door1,-0.182291667,0.027777778,1,0,0,0.6251,optionLeft,30,13030,6,26,0,26,0,1,,,,,,,,,,,,,,,,,,,,,,,,,,,,,,,,,,,,,,,
,,,,,,,,2023-08-16_08h21.10.077,HF_wild_card,2022.2.4,Win32,30.00480077,5fd763c986c8250530939ce2,64d2fd46c836a06233681665,64dc78dc8a4a258588e6c12b,,,,,,,sngl,resources/DP.BMP,resources/Empty.png,Door3,-0.294270833,0.027777778,1,0,0,0.5756,optionLeft,70,13100,6,27,0,27,0,1,,,,,,,,,,,,,,,,,,,,,,,,,,,,,,,,,,,,,,,
,,,,,,,,2023-08-16_08h21.10.077,HF_wild_card,2022.2.4,Win32,30.00480077,5fd763c986c8250530939ce2,64d2fd46c836a06233681665,64dc78dc8a4a258588e6c12b,,,,,,,sngl,resources/DY.BMP,resources/Empty.png,WildCard_NonEx,-0.197048611,0.012152778,1,0,0,0.5275,optionLeft,45,13145,6,28,0,28,0,1,,,,,,,,,,,,,,,,,,,,,,,,,,,,,,,,,,,,,,,
,,,,,,,,2023-08-16_08h21.10.077,HF_wild_card,2022.2.4,Win32,30.00480077,5fd763c986c8250530939ce2,64d2fd46c836a06233681665,64dc78dc8a4a258588e6c12b,,,,,,,decisionTrl,resources/DY.BMP,resources/DG.BMP,WildCard_NonEx,-0.146701389,0.025173611,1,0,0,0.6745,optionLeft,45,13190,6,29,0,29,0,1,,,,,,,,,,,,,,,,,,,,,,,,,,,,,,,,,,,,,,,
,,,,,,,,2023-08-16_08h21.10.077,HF_wild_card,2022.2.4,Win32,30.00480077,5fd763c986c8250530939ce2,64d2fd46c836a06233681665,64dc78dc8a4a258588e6c12b,,,,,,,decisionTrl,resources/DG.BMP,resources/DB.BMP,Door1,-0.314236111,0.025173611,1,0,0,1.0854,optionLeft,30,13220,6,30,0,30,0,1,,,,,,,,,,,,,,,,,,,,,,,,,,,,,,,,,,,,,,,
,,,,,,,,2023-08-16_08h21.10.077,HF_wild_card,2022.2.4,Win32,30.00480077,5fd763c986c8250530939ce2,64d2fd46c836a06233681665,64dc78dc8a4a258588e6c12b,,,,,,,sngl,resources/Empty.png,resources/DY.BMP,WildCard_NonEx,0.522569444,-0.047743056,1,0,0,0.4712,optionRight,55,13275,6,31,0,31,0,1,,,,,,,,,,,,,,,,,,,,,,,,,,,,,,,,,,,,,,,
,,,,,,,,2023-08-16_08h21.10.077,HF_wild_card,2022.2.4,Win32,30.00480077,5fd763c986c8250530939ce2,64d2fd46c836a06233681665,64dc78dc8a4a258588e6c12b,,,,,,,sngl,resources/DB.BMP,resources/Empty.png,Door2,-0.360243056,0.063368056,1,0,0,0.4777,optionLeft,20,13295,6,32,0,32,0,1,,,,,,,,,,,,,,,,,,,,,,,,,,,,,,,,,,,,,,,
,,,,,,,,2023-08-16_08h21.10.077,HF_wild_card,2022.2.4,Win32,30.00480077,5fd763c986c8250530939ce2,64d2fd46c836a06233681665,64dc78dc8a4a258588e6c12b,,,,,,,decisionTrl,resources/DB.BMP,resources/DG.BMP,Door1,0.258680556,0,1,0,0,0.8325,optionRight,30,13325,6,33,0,33,0,1,,,,,,,,,,,,,,,,,,,,,,,,,,,,,,,,,,,,,,,
,,,,,,,,2023-08-16_08h21.10.077,HF_wild_card,2022.2.4,Win32,30.00480077,5fd763c986c8250530939ce2,64d2fd46c836a06233681665,64dc78dc8a4a258588e6c12b,,,,,,,ctch,resources/DG.BMP,resources/DR.BMP,Door4,0.283854167,-0.018229167,1,0,0,0.6089,optionRight,60,13385,6,34,0,34,0,1,,,,,,,,,,,,,,,,,,,,,,,,,,,,,,,,,,,,,,,
,,,,,,,,2023-08-16_08h21.10.077,HF_wild_card,2022.2.4,Win32,30.00480077,5fd763c986c8250530939ce2,64d2fd46c836a06233681665,64dc78dc8a4a258588e6c12b,,,,,,,decisionTrl,resources/DP.BMP,resources/DR.BMP,Door4,0.159722222,-0.0078125,1,0,0,0.7665,optionRight,80,13465,6,35,0,35,0,1,,,,,,,,,,,,,,,,,,,,,,,,,,,,,,,,,,,,,,,
,,,,,,,,2023-08-16_08h21.10.077,HF_wild_card,2022.2.4,Win32,30.00480077,5fd763c986c8250530939ce2,64d2fd46c836a06233681665,64dc78dc8a4a258588e6c12b,,,,,,,ctch,resources/DG.BMP,resources/DR.BMP,Door4,0.159722222,-0.0078125,1,0,0,0.6806,optionRight,80,13545,6,36,0,36,0,1,,,,,,,,,,,,,,,,,,,,,,,,,,,,,,,,,,,,,,,
,,,,,,,,2023-08-16_08h21.10.077,HF_wild_card,2022.2.4,Win32,30.00480077,5fd763c986c8250530939ce2,64d2fd46c836a06233681665,64dc78dc8a4a258588e6c12b,,,,,,,decisionTrl,resources/DB.BMP,resources/DG.BMP,Door1,0.219618056,-0.025173611,1,0,0,0.8234,optionRight,30,13575,6,37,0,37,0,1,,,,,,,,,,,,,,,,,,,,,,,,,,,,,,,,,,,,,,,
,,,,,,,,2023-08-16_08h21.10.077,HF_wild_card,2022.2.4,Win32,30.00480077,5fd763c986c8250530939ce2,64d2fd46c836a06233681665,64dc78dc8a4a258588e6c12b,,,,,,,decisionTrl,resources/DP.BMP,resources/DY.BMP,Door3,-0.237847222,0.016493056,1,0,0,0.6096,optionLeft,70,13645,6,38,0,38,0,1,,,,,,,,,,,,,,,,,,,,,,,,,,,,,,,,,,,,,,,
,,,,,,,,2023-08-16_08h21.10.077,HF_wild_card,2022.2.4,Win32,30.00480077,5fd763c986c8250530939ce2,64d2fd46c836a06233681665,64dc78dc8a4a258588e6c12b,,,,,,,sngl,resources/Empty.png,resources/DB.BMP,Door2,0.236979167,-0.022569444,1,0,0,0.4918,optionRight,40,13685,6,39,0,39,0,1,,,,,,,,,,,,,,,,,,,,,,,,,,,,,,,,,,,,,,,
,,,,,,,,2023-08-16_08h21.10.077,HF_wild_card,2022.2.4,Win32,30.00480077,5fd763c986c8250530939ce2,64d2fd46c836a06233681665,64dc78dc8a4a258588e6c12b,,,,,,,ctch,resources/DB.BMP,resources/DP.BMP,Door3,0.361979167,-0.027777778,1,0,0,0.5887,optionRight,70,13755,6,40,0,40,0,1,,,,,,,,,,,,,,,,,,,,,,,,,,,,,,,,,,,,,,,
,,,,,,,,2023-08-16_08h21.10.077,HF_wild_card,2022.2.4,Win32,30.00480077,5fd763c986c8250530939ce2,64d2fd46c836a06233681665,64dc78dc8a4a258588e6c12b,,,,,,,decisionTrl,resources/DP.BMP,resources/DR.BMP,Door3,-0.291666667,-0.000868056,1,0,0,0.5756,optionLeft,70,13825,6,41,0,41,0,1,,,,,,,,,,,,,,,,,,,,,,,,,,,,,,,,,,,,,,,
,,,,,,,,2023-08-16_08h21.10.077,HF_wild_card,2022.2.4,Win32,30.00480077,5fd763c986c8250530939ce2,64d2fd46c836a06233681665,64dc78dc8a4a258588e6c12b,,,,,,,decisionTrl,resources/DY.BMP,resources/DR.BMP,WildCard_NonEx,-0.237847222,0.003472222,1,0,0,0.6504,optionLeft,55,13880,6,42,0,42,0,1,,,,,,,,,,,,,,,,,,,,,,,,,,,,,,,,,,,,,,,
,,,,,,,,2023-08-16_08h21.10.077,HF_wild_card,2022.2.4,Win32,30.00480077,5fd763c986c8250530939ce2,64d2fd46c836a06233681665,64dc78dc8a4a258588e6c12b,,,,,,,ctch,resources/DR.BMP,resources/DG.BMP,Door4,-0.258680556,0.006944444,1,0,0,0.6007,optionLeft,80,13960,6,43,0,43,0,1,,,,,,,,,,,,,,,,,,,,,,,,,,,,,,,,,,,,,,,
,,,,,,,,2023-08-16_08h21.10.077,HF_wild_card,2022.2.4,Win32,30.00480077,5fd763c986c8250530939ce2,64d2fd46c836a06233681665,64dc78dc8a4a258588e6c12b,,,,,,,,,,,,,,,,,,,,,,,,,,5,0,5,0,1,,,,,,,,,,,,,,,,,,,,,,,,,,,,,,,,,,
,,,,,,,,2023-08-16_08h21.10.077,HF_wild_card,2022.2.4,Win32,30.00480077,5fd763c986c8250530939ce2,64d2fd46c836a06233681665,64dc78dc8a4a258588e6c12b,,,,,,,decisionTrl,resources/DG.BMP,resources/DB.BMP,Door1,-0.332465278,-0.048611111,1,0,0,1.1443,optionLeft,30,13990,7,0,0,0,0,1,,,,,,,,,,,,,,,,,,,,,,,,,,,,,,,,,,,,,,,
,,,,,,,,2023-08-16_08h21.10.077,HF_wild_card,2022.2.4,Win32,30.00480077,5fd763c986c8250530939ce2,64d2fd46c836a06233681665,64dc78dc8a4a258588e6c12b,,,,,,,ctch,resources/DR.BMP,resources/DG.BMP,Door4,-0.263020833,-0.0078125,1,0,0,0.6981,optionLeft,60,14050,7,1,0,1,0,1,,,,,,,,,,,,,,,,,,,,,,,,,,,,,,,,,,,,,,,
,,,,,,,,2023-08-16_08h21.10.077,HF_wild_card,2022.2.4,Win32,30.00480077,5fd763c986c8250530939ce2,64d2fd46c836a06233681665,64dc78dc8a4a258588e6c12b,,,,,,,ctch,resources/DP.BMP,resources/DB.BMP,Door3,-0.247395833,0.006944444,1,0,0,0.6929,optionLeft,70,14120,7,2,0,2,0,1,,,,,,,,,,,,,,,,,,,,,,,,,,,,,,,,,,,,,,,
,,,,,,,,2023-08-16_08h21.10.077,HF_wild_card,2022.2.4,Win32,30.00480077,5fd763c986c8250530939ce2,64d2fd46c836a06233681665,64dc78dc8a4a258588e6c12b,,,,,,,decisionTrl,resources/DP.BMP,resources/DR.BMP,Door3,-0.366319444,0.004340278,1,0,0,1.881,optionLeft,70,14190,7,3,0,3,0,1,,,,,,,,,,,,,,,,,,,,,,,,,,,,,,,,,,,,,,,
,,,,,,,,2023-08-16_08h21.10.077,HF_wild_card,2022.2.4,Win32,30.00480077,5fd763c986c8250530939ce2,64d2fd46c836a06233681665,64dc78dc8a4a258588e6c12b,,,,,,,decisionTrl,resources/DB.BMP,resources/DG.BMP,Door1,0.2421875,-0.041666667,1,0,0,1.134,optionRight,30,14220,7,4,0,4,0,1,,,,,,,,,,,,,,,,,,,,,,,,,,,,,,,,,,,,,,,
,,,,,,,,2023-08-16_08h21.10.077,HF_wild_card,2022.2.4,Win32,30.00480077,5fd763c986c8250530939ce2,64d2fd46c836a06233681665,64dc78dc8a4a258588e6c12b,,,,,,,ctch,resources/DB.BMP,resources/DP.BMP,Door3,0.225694444,-0.053819444,1,0,0,0.6121,optionRight,70,14290,7,5,0,5,0,1,,,,,,,,,,,,,,,,,,,,,,,,,,,,,,,,,,,,,,,
,,,,,,,,2023-08-16_08h21.10.077,HF_wild_card,2022.2.4,Win32,30.00480077,5fd763c986c8250530939ce2,64d2fd46c836a06233681665,64dc78dc8a4a258588e6c12b,,,,,,,ctch,resources/DR.BMP,resources/DG.BMP,Door4,-0.232638889,0.043402778,1,0,0,0.5863,optionLeft,60,14350,7,6,0,6,0,1,,,,,,,,,,,,,,,,,,,,,,,,,,,,,,,,,,,,,,,
,,,,,,,,2023-08-16_08h21.10.077,HF_wild_card,2022.2.4,Win32,30.00480077,5fd763c986c8250530939ce2,64d2fd46c836a06233681665,64dc78dc8a4a258588e6c12b,,,,,,,decisionTrl,resources/DG.BMP,resources/DB.BMP,Door1,-0.133680556,0.022569444,1,0,0,0.8015,optionLeft,30,14380,7,7,0,7,0,1,,,,,,,,,,,,,,,,,,,,,,,,,,,,,,,,,,,,,,,
,,,,,,,,2023-08-16_08h21.10.077,HF_wild_card,2022.2.4,Win32,30.00480077,5fd763c986c8250530939ce2,64d2fd46c836a06233681665,64dc78dc8a4a258588e6c12b,,,,,,,decisionTrl,resources/DR.BMP,resources/DP.BMP,Door3,0.151041667,-0.016493056,1,0,0,1.0542,optionRight,70,14450,7,8,0,8,0,1,,,,,,,,,,,,,,,,,,,,,,,,,,,,,,,,,,,,,,,
,,,,,,,,2023-08-16_08h21.10.077,HF_wild_card,2022.2.4,Win32,30.00480077,5fd763c986c8250530939ce2,64d2fd46c836a06233681665,64dc78dc8a4a258588e6c12b,,,,,,,decisionTrl,resources/DP.BMP,resources/DR.BMP,Door3,-0.1484375,0.024305556,1,0,0,0.5467,optionLeft,70,14520,7,9,0,9,0,1,,,,,,,,,,,,,,,,,,,,,,,,,,,,,,,,,,,,,,,
,,,,,,,,2023-08-16_08h21.10.077,HF_wild_card,2022.2.4,Win32,30.00480077,5fd763c986c8250530939ce2,64d2fd46c836a06233681665,64dc78dc8a4a258588e6c12b,,,,,,,decisionTrl,resources/DR.BMP,resources/DP.BMP,Door3,0.301215278,-0.032118056,1,0,0,0.5799,optionRight,70,14590,7,10,0,10,0,1,,,,,,,,,,,,,,,,,,,,,,,,,,,,,,,,,,,,,,,
,,,,,,,,2023-08-16_08h21.10.077,HF_wild_card,2022.2.4,Win32,30.00480077,5fd763c986c8250530939ce2,64d2fd46c836a06233681665,64dc78dc8a4a258588e6c12b,,,,,,,ctch,resources/DR.BMP,resources/DG.BMP,Door4,-0.147569444,0.017361111,1,0,0,0.5315,optionLeft,60,14650,7,11,0,11,0,1,,,,,,,,,,,,,,,,,,,,,,,,,,,,,,,,,,,,,,,
,,,,,,,,2023-08-16_08h21.10.077,HF_wild_card,2022.2.4,Win32,30.00480077,5fd763c986c8250530939ce2,64d2fd46c836a06233681665,64dc78dc8a4a258588e6c12b,,,,,,,decisionTrl,resources/DB.BMP,resources/DG.BMP,Door1,0.284722222,-0.014756944,1,0,0,0.8887,optionRight,30,14680,7,12,0,12,0,1,,,,,,,,,,,,,,,,,,,,,,,,,,,,,,,,,,,,,,,
,,,,,,,,2023-08-16_08h21.10.077,HF_wild_card,2022.2.4,Win32,30.00480077,5fd763c986c8250530939ce2,64d2fd46c836a06233681665,64dc78dc8a4a258588e6c12b,,,,,,,decisionTrl,resources/DG.BMP,resources/DB.BMP,Door1,-0.135416667,0.019097222,1,0,0,0.7848,optionLeft,30,14710,7,13,0,13,0,1,,,,,,,,,,,,,,,,,,,,,,,,,,,,,,,,,,,,,,,
,,,,,,,,2023-08-16_08h21.10.077,HF_wild_card,2022.2.4,Win32,30.00480077,5fd763c986c8250530939ce2,64d2fd46c836a06233681665,64dc78dc8a4a258588e6c12b,,,,,,,decisionTrl,resources/DR.BMP,resources/DP.BMP,Door3,0.223958333,-0.017361111,1,0,0,1.0529,optionRight,70,14780,7,14,0,14,0,1,,,,,,,,,,,,,,,,,,,,,,,,,,,,,,,,,,,,,,,
,,,,,,,,2023-08-16_08h21.10.077,HF_wild_card,2022.2.4,Win32,30.00480077,5fd763c986c8250530939ce2,64d2fd46c836a06233681665,64dc78dc8a4a258588e6c12b,,,,,,,decisionTrl,resources/DB.BMP,resources/DG.BMP,Door1,0.375868056,-0.013020833,1,0,0,0.8304,optionRight,30,14810,7,15,0,15,0,1,,,,,,,,,,,,,,,,,,,,,,,,,,,,,,,,,,,,,,,
,,,,,,,,2023-08-16_08h21.10.077,HF_wild_card,2022.2.4,Win32,30.00480077,5fd763c986c8250530939ce2,64d2fd46c836a06233681665,64dc78dc8a4a258588e6c12b,,,,,,,decisionTrl,resources/DP.BMP,resources/DR.BMP,Door3,-0.197048611,0.004340278,1,0,0,1.1812,optionLeft,70,14880,7,16,0,16,0,1,,,,,,,,,,,,,,,,,,,,,,,,,,,,,,,,,,,,,,,
,,,,,,,,2023-08-16_08h21.10.077,HF_wild_card,2022.2.4,Win32,30.00480077,5fd763c986c8250530939ce2,64d2fd46c836a06233681665,64dc78dc8a4a258588e6c12b,,,,,,,ctch,resources/DP.BMP,resources/DB.BMP,Door3,-0.154513889,0.013020833,1,0,0,0.6658,optionLeft,70,14950,7,17,0,17,0,1,,,,,,,,,,,,,,,,,,,,,,,,,,,,,,,,,,,,,,,
,,,,,,,,2023-08-16_08h21.10.077,HF_wild_card,2022.2.4,Win32,30.00480077,5fd763c986c8250530939ce2,64d2fd46c836a06233681665,64dc78dc8a4a258588e6c12b,,,,,,,ctch,resources/DG.BMP,resources/DR.BMP,Door4,0.314236111,-0.019965278,1,0,0,1.0582,optionRight,80,15030,7,18,0,18,0,1,,,,,,,,,,,,,,,,,,,,,,,,,,,,,,,,,,,,,,,
,,,,,,,,2023-08-16_08h21.10.077,HF_wild_card,2022.2.4,Win32,30.00480077,5fd763c986c8250530939ce2,64d2fd46c836a06233681665,64dc78dc8a4a258588e6c12b,,,,,,,ctch,resources/DG.BMP,resources/DR.BMP,Door4,0.319444444,-0.003472222,1,0,0,0.5478,optionRight,60,15090,7,19,0,19,0,1,,,,,,,,,,,,,,,,,,,,,,,,,,,,,,,,,,,,,,,
,,,,,,,,2023-08-16_08h21.10.077,HF_wild_card,2022.2.4,Win32,30.00480077,5fd763c986c8250530939ce2,64d2fd46c836a06233681665,64dc78dc8a4a258588e6c12b,,,,,,,ctch,resources/DB.BMP,resources/DP.BMP,Door3,0.157986111,-0.001736111,1,0,0,0.6425,optionRight,70,15160,7,20,0,20,0,1,,,,,,,,,,,,,,,,,,,,,,,,,,,,,,,,,,,,,,,
,,,,,,,,2023-08-16_08h21.10.077,HF_wild_card,2022.2.4,Win32,30.00480077,5fd763c986c8250530939ce2,64d2fd46c836a06233681665,64dc78dc8a4a258588e6c12b,,,,,,,ctch,resources/DP.BMP,resources/DB.BMP,Door3,-0.3046875,0.025173611,1,0,0,0.6129,optionLeft,70,15230,7,21,0,21,0,1,,,,,,,,,,,,,,,,,,,,,,,,,,,,,,,,,,,,,,,
,,,,,,,,2023-08-16_08h21.10.077,HF_wild_card,2022.2.4,Win32,30.00480077,5fd763c986c8250530939ce2,64d2fd46c836a06233681665,64dc78dc8a4a258588e6c12b,,,,,,,decisionTrl,resources/DG.BMP,resources/DB.BMP,Door1,-0.184027778,0.030381944,1,0,0,1.09,optionLeft,30,15260,7,22,0,22,0,1,,,,,,,,,,,,,,,,,,,,,,,,,,,,,,,,,,,,,,,
,,,,,,,,2023-08-16_08h21.10.077,HF_wild_card,2022.2.4,Win32,30.00480077,5fd763c986c8250530939ce2,64d2fd46c836a06233681665,64dc78dc8a4a258588e6c12b,,,,,,,ctch,resources/DG.BMP,resources/DR.BMP,Door1,-0.138888889,0.020833333,1,0,0,0.5422,optionLeft,30,15290,7,23,0,23,0,1,,,,,,,,,,,,,,,,,,,,,,,,,,,,,,,,,,,,,,,
,,,,,,,,2023-08-16_08h21.10.077,HF_wild_card,2022.2.4,Win32,30.00480077,5fd763c986c8250530939ce2,64d2fd46c836a06233681665,64dc78dc8a4a258588e6c12b,,,,,,,decisionTrl,resources/DB.BMP,resources/DG.BMP,Door1,0.235243056,-0.000868056,1,0,0,0.8926,optionRight,30,15320,7,24,0,24,0,1,,,,,,,,,,,,,,,,,,,,,,,,,,,,,,,,,,,,,,,
,,,,,,,,2023-08-16_08h21.10.077,HF_wild_card,2022.2.4,Win32,30.00480077,5fd763c986c8250530939ce2,64d2fd46c836a06233681665,64dc78dc8a4a258588e6c12b,,,,,,,decisionTrl,resources/DR.BMP,resources/DP.BMP,Door3,0.190104167,0.004340278,1,0,0,0.8425,optionRight,70,15390,7,25,0,25,0,1,,,,,,,,,,,,,,,,,,,,,,,,,,,,,,,,,,,,,,,
,,,,,,,,2023-08-16_08h21.10.077,HF_wild_card,2022.2.4,Win32,30.00480077,5fd763c986c8250530939ce2,64d2fd46c836a06233681665,64dc78dc8a4a258588e6c12b,,,,,,,decisionTrl,resources/DR.BMP,resources/DP.BMP,Door3,0.208333333,0,1,0,0,0.5965,optionRight,70,15460,7,26,0,26,0,1,,,,,,,,,,,,,,,,,,,,,,,,,,,,,,,,,,,,,,,
,,,,,,,,2023-08-16_08h21.10.077,HF_wild_card,2022.2.4,Win32,30.00480077,5fd763c986c8250530939ce2,64d2fd46c836a06233681665,64dc78dc8a4a258588e6c12b,,,,,,,decisionTrl,resources/DG.BMP,resources/DB.BMP,Door1,-0.236111111,0.032986111,1,0,0,0.8811,optionLeft,30,15490,7,27,0,27,0,1,,,,,,,,,,,,,,,,,,,,,,,,,,,,,,,,,,,,,,,
,,,,,,,,2023-08-16_08h21.10.077,HF_wild_card,2022.2.4,Win32,30.00480077,5fd763c986c8250530939ce2,64d2fd46c836a06233681665,64dc78dc8a4a258588e6c12b,,,,,,,decisionTrl,resources/DP.BMP,resources/DR.BMP,Door3,-0.223090278,0.019965278,1,0,0,1.0948,optionLeft,70,15560,7,28,0,28,0,1,,,,,,,,,,,,,,,,,,,,,,,,,,,,,,,,,,,,,,,
,,,,,,,,2023-08-16_08h21.10.077,HF_wild_card,2022.2.4,Win32,30.00480077,5fd763c986c8250530939ce2,64d2fd46c836a06233681665,64dc78dc8a4a258588e6c12b,,,,,,,ctch,resources/DB.BMP,resources/DP.BMP,Door3,0.136284722,0.001736111,1,0,0,0.6182,optionRight,70,15630,7,29,0,29,0,1,,,,,,,,,,,,,,,,,,,,,,,,,,,,,,,,,,,,,,,
,,,,,,,,2023-08-16_08h21.10.077,HF_wild_card,2022.2.4,Win32,30.00480077,5fd763c986c8250530939ce2,64d2fd46c836a06233681665,64dc78dc8a4a258588e6c12b,,,,,,,decisionTrl,resources/DR.BMP,resources/DP.BMP,Door3,0.072048611,0.001736111,1,0,0,0.7902,optionRight,70,15700,7,30,0,30,0,1,,,,,,,,,,,,,,,,,,,,,,,,,,,,,,,,,,,,,,,
,,,,,,,,2023-08-16_08h21.10.077,HF_wild_card,2022.2.4,Win32,30.00480077,5fd763c986c8250530939ce2,64d2fd46c836a06233681665,64dc78dc8a4a258588e6c12b,,,,,,,decisionTrl,resources/DP.BMP,resources/DR.BMP,Door3,-0.161458333,0.0234375,1,0,0,0.6093,optionLeft,70,15770,7,31,0,31,0,1,,,,,,,,,,,,,,,,,,,,,,,,,,,,,,,,,,,,,,,
,,,,,,,,2023-08-16_08h21.10.077,HF_wild_card,2022.2.4,Win32,30.00480077,5fd763c986c8250530939ce2,64d2fd46c836a06233681665,64dc78dc8a4a258588e6c12b,,,,,,,decisionTrl,resources/DP.BMP,resources/DR.BMP,Door3,-0.128472222,0.017361111,1,0,0,0.5319,optionLeft,70,15840,7,32,0,32,0,1,,,,,,,,,,,,,,,,,,,,,,,,,,,,,,,,,,,,,,,
,,,,,,,,2023-08-16_08h21.10.077,HF_wild_card,2022.2.4,Win32,30.00480077,5fd763c986c8250530939ce2,64d2fd46c836a06233681665,64dc78dc8a4a258588e6c12b,,,,,,,decisionTrl,resources/DB.BMP,resources/DG.BMP,Door1,0.220486111,0.0078125,1,0,0,0.7289,optionRight,30,15870,7,33,0,33,0,1,,,,,,,,,,,,,,,,,,,,,,,,,,,,,,,,,,,,,,,
,,,,,,,,2023-08-16_08h21.10.077,HF_wild_card,2022.2.4,Win32,30.00480077,5fd763c986c8250530939ce2,64d2fd46c836a06233681665,64dc78dc8a4a258588e6c12b,,,,,,,decisionTrl,resources/DG.BMP,resources/DB.BMP,Door1,-0.150173611,0.0234375,1,0,0,0.9773,optionLeft,30,15900,7,34,0,34,0,1,,,,,,,,,,,,,,,,,,,,,,,,,,,,,,,,,,,,,,,
,,,,,,,,2023-08-16_08h21.10.077,HF_wild_card,2022.2.4,Win32,30.00480077,5fd763c986c8250530939ce2,64d2fd46c836a06233681665,64dc78dc8a4a258588e6c12b,,,,,,,decisionTrl,resources/DB.BMP,resources/DG.BMP,Door1,0.136284722,0.0078125,1,0,0,0.7584,optionRight,30,15930,7,35,0,35,0,1,,,,,,,,,,,,,,,,,,,,,,,,,,,,,,,,,,,,,,,
,,,,,,,,2023-08-16_08h21.10.077,HF_wild_card,2022.2.4,Win32,30.00480077,5fd763c986c8250530939ce2,64d2fd46c836a06233681665,64dc78dc8a4a258588e6c12b,,,,,,,,,,,,,,,,,,,,,,,,,,6,0,6,0,1,,,,,,,,,,,,,,,,,,,,,,,,,,,,,,,,,,
,,,,,,,,2023-08-16_08h21.10.077,HF_wild_card,2022.2.4,Win32,30.00480077,5fd763c986c8250530939ce2,64d2fd46c836a06233681665,64dc78dc8a4a258588e6c12b,,,,,,,,,,,,,,,,,,,,,,,,,,,,,,,3,,,,,,,,,,,,,,,,,,,,,,,,,,,,,,,,,
,,,,,,,,2023-08-16_08h21.10.077,HF_wild_card,2022.2.4,Win32,30.00480077,5fd763c986c8250530939ce2,64d2fd46c836a06233681665,64dc78dc8a4a258588e6c12b,,,,,,,,,,,,,,,,,,,,,,,,,,,,,,,,,,,,,,,,,,,,,,,,,,,,,,,,,,,,,,,,
,,,,,,,,2023-08-16_08h21.10.077,HF_wild_card,2022.2.4,Win32,30.00480077,5fd763c986c8250530939ce2,64d2fd46c836a06233681665,64dc78dc8a4a258588e6c12b,,,,,,,,,,,,,,,,,,,,,,,,,,,,,,,,40,Door2,resources/DB.BMP,0,0,0,0,1,,,,,,,,,,,,,,,,,,,,,,,,,
,,,,,,,,2023-08-16_08h21.10.077,HF_wild_card,2022.2.4,Win32,30.00480077,5fd763c986c8250530939ce2,64d2fd46c836a06233681665,64dc78dc8a4a258588e6c12b,,,,,,,,,,,,,,,,,,,,,,,,,,,,,,,,30,Door1,resources/DG.BMP,1,0,1,0,1,,,,,,,,,,,,,,,,,,,,,,,,,
,,,,,,,,2023-08-16_08h21.10.077,HF_wild_card,2022.2.4,Win32,30.00480077,5fd763c986c8250530939ce2,64d2fd46c836a06233681665,64dc78dc8a4a258588e6c12b,,,,,,,,,,,,,,,,,,,,,,,,,,,,,,,,80,Door3,resources/DP.BMP,2,0,2,0,1,,,,,,,,,,,,,,,,,,,,,,,,,
,,,,,,,,2023-08-16_08h21.10.077,HF_wild_card,2022.2.4,Win32,30.00480077,5fd763c986c8250530939ce2,64d2fd46c836a06233681665,64dc78dc8a4a258588e6c12b,,,,,,,,,,,,,,,,,,,,,,,,,,,,,,,,45,WC_nonExtreme,resources/DY.BMP,3,0,3,0,1,,,,,,,,,,,,,,,,,,,,,,,,,
,,,,,,,,2023-08-16_08h21.10.077,HF_wild_card,2022.2.4,Win32,30.00480077,5fd763c986c8250530939ce2,64d2fd46c836a06233681665,64dc78dc8a4a258588e6c12b,,,,,,,,,,,,,,,,,,,,,,,,,,,,,,,,5,WC_extreme,resources/DBN.BMP,4,0,4,0,1,,,,,,,,,,,,,,,,,,,,,,,,,
,,,,,,,,2023-08-16_08h21.10.077,HF_wild_card,2022.2.4,Win32,30.00480077,5fd763c986c8250530939ce2,64d2fd46c836a06233681665,64dc78dc8a4a258588e6c12b,,,,,,,,,,,,,,,,,,,,,,,,,,,,,,,,40,Door4,resources/DR.BMP,5,0,5,0,1,,,,,,,,,,,,,,,,,,,,,,,,,
,,,,,,,,2023-08-16_08h21.10.077,HF_wild_card,2022.2.4,Win32,30.00480077,5fd763c986c8250530939ce2,64d2fd46c836a06233681665,64dc78dc8a4a258588e6c12b,,,,,,,,,,,,,,,,,,,,,,,,,,,,,,,,,,,,,,,,,,,,,,,,,,,,,,,,,,,,,,,,
,,,,,,,,2023-08-16_08h21.10.077,HF_wild_card,2022.2.4,Win32,30.00480077,5fd763c986c8250530939ce2,64d2fd46c836a06233681665,64dc78dc8a4a258588e6c12b,,,,,,,,,,,,,,,,,,,,,,,,,,,,,,,,,,,,,,,,0,0,0,0,1,,,,,,,,,,,,,,,,,,,,
