Condition,Low fixed image (Door1),Low risky image (Door2),High fixed image (Door3),High risky image (Door4),Extreme Wild Card,NonExtreme Wild Card,,date,expName,psychopyVersion,OS,frameRate,PROLIFIC_PID,STUDY_ID,SESSION_ID,mouse_2.x,mouse_2.y,mouse_2.leftButton,mouse_2.midButton,mouse_2.rightButton,mouse_2.clicked_name,Trial Type,Left Option Image,Right Option Image,Chosen Door,mouse.x,mouse.y,mouse.leftButton,mouse.midButton,mouse.rightButton,mouse.time,mouse.clicked_name,Feedback,Cumulative Reward,Block,trial.thisRepN,trial.thisTrialN,trial.thisN,trial.thisIndex,trial.ran,blocks.thisRepN,blocks.thisTrialN,blocks.thisN,blocks.thisIndex,blocks.ran,Money conversion,First Outcome Reported,Shown Door (First Outcome),Displayed Image (First Outcome),outcomes.thisRepN,outcomes.thisTrialN,outcomes.thisN,outcomes.thisIndex,outcomes.ran,judgments.thisRepN,judgments.thisTrialN,judgments.thisN,judgments.thisIndex,judgments.ran,freqMouse.x,freqMouse.y,freqMouse.leftButton,freqMouse.midButton,freqMouse.rightButton,freqMouse.clicked_name,FQJ for first outcome,FQJ for second outcome,Shown Door,Displayed Image,trials.thisRepN,trials.thisTrialN,trials.thisN,trials.thisIndex,trials.ran,judgBlock.thisRepN,judgBlock.thisTrialN,judgBlock.thisN,judgBlock.thisIndex,judgBlock.ran
1,resources/DP.BMP,resources/DBN.BMP,resources/DR.BMP,resources/DG.BMP,resources/DY.BMP,resources/DB.BMP,,2023-08-16_08h39.28.907,HF_wild_card,2022.2.4,Win32,60.15399423,5fc63e053cf83c06341ac94a,64d2fd46c836a06233681665,64dc7d1e5664ea86cae1fcca,,,,,,,,,,,,,,,,,,,,,,,,,,,,,,,,,,,,,,,,,,,,,,,,,,,,,,,,,,,,,,,,
,,,,,,,,2023-08-16_08h39.28.907,HF_wild_card,2022.2.4,Win32,60.15399423,5fc63e053cf83c06341ac94a,64d2fd46c836a06233681665,64dc7d1e5664ea86cae1fcca,0.005555541,-0.415740755,1,0,0,agree,,,,,,,,,,,,,,,,,,,,,,,,,,,,,,,,,,,,,,,,,,,,,,,,,,,,,,,,,,
,,,,,,,,2023-08-16_08h39.28.907,HF_wild_card,2022.2.4,Win32,60.15399423,5fc63e053cf83c06341ac94a,64d2fd46c836a06233681665,64dc7d1e5664ea86cae1fcca,,,,,,,,,,,,,,,,,,,,,,,,,,,,,,,,,,,,,,,,,,,,,,,,,,,,,,,,,,,,,,,,
,,,,,,,,2023-08-16_08h39.28.907,HF_wild_card,2022.2.4,Win32,60.15399423,5fc63e053cf83c06341ac94a,64d2fd46c836a06233681665,64dc7d1e5664ea86cae1fcca,,,,,,,ctch,resources/DBN.BMP,resources/DR.BMP,Door3,0.402777778,-0.160185213,1,0,0,4.646,optionRight,70,70,1,0,0,0,0,1,,,,,,,,,,,,,,,,,,,,,,,,,,,,,,,,,,,,,,,
,,,,,,,,2023-08-16_08h39.28.907,HF_wild_card,2022.2.4,Win32,60.15399423,5fc63e053cf83c06341ac94a,64d2fd46c836a06233681665,64dc7d1e5664ea86cae1fcca,,,,,,,decisionTrl,resources/DBN.BMP,resources/DP.BMP,Door1,0.294444473,-0.056481503,1,0,0,2.3857,optionRight,30,100,1,1,0,1,0,1,,,,,,,,,,,,,,,,,,,,,,,,,,,,,,,,,,,,,,,
,,,,,,,,2023-08-16_08h39.28.907,HF_wild_card,2022.2.4,Win32,60.15399423,5fc63e053cf83c06341ac94a,64d2fd46c836a06233681665,64dc7d1e5664ea86cae1fcca,,,,,,,decisionTrl,resources/DBN.BMP,resources/DB.BMP,Door2,-0.351851852,0.033333319,1,0,0,1.4523,optionLeft,20,120,1,2,0,2,0,1,,,,,,,,,,,,,,,,,,,,,,,,,,,,,,,,,,,,,,,
,,,,,,,,2023-08-16_08h39.28.907,HF_wild_card,2022.2.4,Win32,60.15399423,5fc63e053cf83c06341ac94a,64d2fd46c836a06233681665,64dc7d1e5664ea86cae1fcca,,,,,,,decisionTrl,resources/DR.BMP,resources/DG.BMP,Door4,0.404629601,-0.003703718,1,0,0,2.0028,optionRight,60,180,1,3,0,3,0,1,,,,,,,,,,,,,,,,,,,,,,,,,,,,,,,,,,,,,,,
,,,,,,,,2023-08-16_08h39.28.907,HF_wild_card,2022.2.4,Win32,60.15399423,5fc63e053cf83c06341ac94a,64d2fd46c836a06233681665,64dc7d1e5664ea86cae1fcca,,,,,,,ctch,resources/DG.BMP,resources/DP.BMP,Door4,-0.333333333,-0.018518519,1,0,0,1.8941,optionLeft,60,240,1,4,0,4,0,1,,,,,,,,,,,,,,,,,,,,,,,,,,,,,,,,,,,,,,,
,,,,,,,,2023-08-16_08h39.28.907,HF_wild_card,2022.2.4,Win32,60.15399423,5fc63e053cf83c06341ac94a,64d2fd46c836a06233681665,64dc7d1e5664ea86cae1fcca,,,,,,,sngl,resources/Empty.png,resources/DG.BMP,Door4,0.347222222,-0.00462963,1,0,0,1.5339,optionRight,60,300,1,5,0,5,0,1,,,,,,,,,,,,,,,,,,,,,,,,,,,,,,,,,,,,,,,
,,,,,,,,2023-08-16_08h39.28.907,HF_wild_card,2022.2.4,Win32,60.15399423,5fc63e053cf83c06341ac94a,64d2fd46c836a06233681665,64dc7d1e5664ea86cae1fcca,,,,,,,ctch,resources/DP.BMP,resources/DG.BMP,Door1,-0.359259252,-0.065740762,1,0,0,2.5602,optionLeft,30,330,1,6,0,6,0,1,,,,,,,,,,,,,,,,,,,,,,,,,,,,,,,,,,,,,,,
,,,,,,,,2023-08-16_08h39.28.907,HF_wild_card,2022.2.4,Win32,60.15399423,5fc63e053cf83c06341ac94a,64d2fd46c836a06233681665,64dc7d1e5664ea86cae1fcca,,,,,,,decisionTrl,resources/DG.BMP,resources/DR.BMP,Door4,-0.400925919,-0.026851866,1,0,0,1.9157,optionLeft,60,390,1,7,0,7,0,1,,,,,,,,,,,,,,,,,,,,,,,,,,,,,,,,,,,,,,,
,,,,,,,,2023-08-16_08h39.28.907,HF_wild_card,2022.2.4,Win32,60.15399423,5fc63e053cf83c06341ac94a,64d2fd46c836a06233681665,64dc7d1e5664ea86cae1fcca,,,,,,,sngl,resources/Empty.png,resources/DBN.BMP,Door2,0.42777775,-0.003703718,1,0,0,1.3441,optionRight,20,410,1,8,0,8,0,1,,,,,,,,,,,,,,,,,,,,,,,,,,,,,,,,,,,,,,,
,,,,,,,,2023-08-16_08h39.28.907,HF_wild_card,2022.2.4,Win32,60.15399423,5fc63e053cf83c06341ac94a,64d2fd46c836a06233681665,64dc7d1e5664ea86cae1fcca,,,,,,,decisionTrl,resources/DP.BMP,resources/DB.BMP,WildCard_NonEx,0.350926011,0.0074074,1,0,0,1.8089,optionRight,55,465,1,9,0,9,0,1,,,,,,,,,,,,,,,,,,,,,,,,,,,,,,,,,,,,,,,
,,,,,,,,2023-08-16_08h39.28.907,HF_wild_card,2022.2.4,Win32,60.15399423,5fc63e053cf83c06341ac94a,64d2fd46c836a06233681665,64dc7d1e5664ea86cae1fcca,,,,,,,decisionTrl,resources/DP.BMP,resources/DBN.BMP,Door1,-0.248148106,-0.026851866,1,0,0,4.9481,optionLeft,30,495,1,10,0,10,0,1,,,,,,,,,,,,,,,,,,,,,,,,,,,,,,,,,,,,,,,
,,,,,,,,2023-08-16_08h39.28.907,HF_wild_card,2022.2.4,Win32,60.15399423,5fc63e053cf83c06341ac94a,64d2fd46c836a06233681665,64dc7d1e5664ea86cae1fcca,,,,,,,decisionTrl,resources/DR.BMP,resources/DG.BMP,Door4,0.365740741,-0.033333355,1,0,0,1.4149,optionRight,80,575,1,11,0,11,0,1,,,,,,,,,,,,,,,,,,,,,,,,,,,,,,,,,,,,,,,
,,,,,,,,2023-08-16_08h39.28.907,HF_wild_card,2022.2.4,Win32,60.15399423,5fc63e053cf83c06341ac94a,64d2fd46c836a06233681665,64dc7d1e5664ea86cae1fcca,,,,,,,sngl,resources/DP.BMP,resources/Empty.png,Door1,-0.39907406,0.0074074,1,0,0,1.3493,optionLeft,30,605,1,12,0,12,0,1,,,,,,,,,,,,,,,,,,,,,,,,,,,,,,,,,,,,,,,
,,,,,,,,2023-08-16_08h39.28.907,HF_wild_card,2022.2.4,Win32,60.15399423,5fc63e053cf83c06341ac94a,64d2fd46c836a06233681665,64dc7d1e5664ea86cae1fcca,,,,,,,ctch,resources/DP.BMP,resources/DG.BMP,Door4,0.357407464,0.009259259,1,0,0,1.2908,optionRight,60,665,1,13,0,13,0,1,,,,,,,,,,,,,,,,,,,,,,,,,,,,,,,,,,,,,,,
,,,,,,,,2023-08-16_08h39.28.907,HF_wild_card,2022.2.4,Win32,60.15399423,5fc63e053cf83c06341ac94a,64d2fd46c836a06233681665,64dc7d1e5664ea86cae1fcca,,,,,,,sngl,resources/DB.BMP,resources/Empty.png,WildCard_NonEx,-0.3824074,-0.013888889,1,0,0,1.3591,optionLeft,55,720,1,14,0,14,0,1,,,,,,,,,,,,,,,,,,,,,,,,,,,,,,,,,,,,,,,
,,,,,,,,2023-08-16_08h39.28.907,HF_wild_card,2022.2.4,Win32,60.15399423,5fc63e053cf83c06341ac94a,64d2fd46c836a06233681665,64dc7d1e5664ea86cae1fcca,,,,,,,sngl,resources/DR.BMP,resources/Empty.png,Door3,-0.372222229,-0.033333355,1,0,0,1.6084,optionLeft,70,790,1,15,0,15,0,1,,,,,,,,,,,,,,,,,,,,,,,,,,,,,,,,,,,,,,,
,,,,,,,,2023-08-16_08h39.28.907,HF_wild_card,2022.2.4,Win32,60.15399423,5fc63e053cf83c06341ac94a,64d2fd46c836a06233681665,64dc7d1e5664ea86cae1fcca,,,,,,,decisionTrl,resources/DBN.BMP,resources/DP.BMP,Door1,0.411111196,-0.021296289,1,0,0,1.3414,optionRight,30,820,1,16,0,16,0,1,,,,,,,,,,,,,,,,,,,,,,,,,,,,,,,,,,,,,,,
,,,,,,,,2023-08-16_08h39.28.907,HF_wild_card,2022.2.4,Win32,60.15399423,5fc63e053cf83c06341ac94a,64d2fd46c836a06233681665,64dc7d1e5664ea86cae1fcca,,,,,,,sngl,resources/Empty.png,resources/DB.BMP,WildCard_NonEx,0.3648149,-0.005555577,1,0,0,1.07,optionRight,45,865,1,17,0,17,0,1,,,,,,,,,,,,,,,,,,,,,,,,,,,,,,,,,,,,,,,
,,,,,,,,2023-08-16_08h39.28.907,HF_wild_card,2022.2.4,Win32,60.15399423,5fc63e053cf83c06341ac94a,64d2fd46c836a06233681665,64dc7d1e5664ea86cae1fcca,,,,,,,sngl,resources/Empty.png,resources/DP.BMP,Door1,0.394444501,-0.022222236,1,0,0,1.0617,optionRight,30,895,1,18,0,18,0,1,,,,,,,,,,,,,,,,,,,,,,,,,,,,,,,,,,,,,,,
,,,,,,,,2023-08-16_08h39.28.907,HF_wild_card,2022.2.4,Win32,60.15399423,5fc63e053cf83c06341ac94a,64d2fd46c836a06233681665,64dc7d1e5664ea86cae1fcca,,,,,,,decisionTrl,resources/DP.BMP,resources/DBN.BMP,Door1,-0.333333333,0.001851859,1,0,0,3.2636,optionLeft,30,925,1,19,0,19,0,1,,,,,,,,,,,,,,,,,,,,,,,,,,,,,,,,,,,,,,,
,,,,,,,,2023-08-16_08h39.28.907,HF_wild_card,2022.2.4,Win32,60.15399423,5fc63e053cf83c06341ac94a,64d2fd46c836a06233681665,64dc7d1e5664ea86cae1fcca,,,,,,,sngl,resources/DB.BMP,resources/Empty.png,WildCard_NonEx,-0.448148127,-0.01666666,1,0,0,1.1311,optionLeft,45,970,1,20,0,20,0,1,,,,,,,,,,,,,,,,,,,,,,,,,,,,,,,,,,,,,,,
,,,,,,,,2023-08-16_08h39.28.907,HF_wild_card,2022.2.4,Win32,60.15399423,5fc63e053cf83c06341ac94a,64d2fd46c836a06233681665,64dc7d1e5664ea86cae1fcca,,,,,,,decisionTrl,resources/DP.BMP,resources/DBN.BMP,Door2,0.425925926,0.01203703,1,0,0,2.2694,optionRight,40,1010,1,21,0,21,0,1,,,,,,,,,,,,,,,,,,,,,,,,,,,,,,,,,,,,,,,
,,,,,,,,2023-08-16_08h39.28.907,HF_wild_card,2022.2.4,Win32,60.15399423,5fc63e053cf83c06341ac94a,64d2fd46c836a06233681665,64dc7d1e5664ea86cae1fcca,,,,,,,sngl,resources/Empty.png,resources/DR.BMP,Door3,0.325000057,-0.002777771,1,0,0,1.0934,optionRight,70,1080,1,22,0,22,0,1,,,,,,,,,,,,,,,,,,,,,,,,,,,,,,,,,,,,,,,
,,,,,,,,2023-08-16_08h39.28.907,HF_wild_card,2022.2.4,Win32,60.15399423,5fc63e053cf83c06341ac94a,64d2fd46c836a06233681665,64dc7d1e5664ea86cae1fcca,,,,,,,ctch,resources/DR.BMP,resources/DBN.BMP,Door3,-0.36296297,-0.013888889,1,0,0,1.6139,optionLeft,70,1150,1,23,0,23,0,1,,,,,,,,,,,,,,,,,,,,,,,,,,,,,,,,,,,,,,,
,,,,,,,,2023-08-16_08h39.28.907,HF_wild_card,2022.2.4,Win32,60.15399423,5fc63e053cf83c06341ac94a,64d2fd46c836a06233681665,64dc7d1e5664ea86cae1fcca,,,,,,,decisionTrl,resources/DP.BMP,resources/DBN.BMP,Door1,-0.39907406,-0.046296296,1,0,0,1.9171,optionLeft,30,1180,1,24,0,24,0,1,,,,,,,,,,,,,,,,,,,,,,,,,,,,,,,,,,,,,,,
,,,,,,,,2023-08-16_08h39.28.907,HF_wild_card,2022.2.4,Win32,60.15399423,5fc63e053cf83c06341ac94a,64d2fd46c836a06233681665,64dc7d1e5664ea86cae1fcca,,,,,,,decisionTrl,resources/DB.BMP,resources/DG.BMP,WildCard_NonEx,-0.361111111,-0.043518526,1,0,0,1.7466,optionLeft,45,1225,1,25,0,25,0,1,,,,,,,,,,,,,,,,,,,,,,,,,,,,,,,,,,,,,,,
,,,,,,,,2023-08-16_08h39.28.907,HF_wild_card,2022.2.4,Win32,60.15399423,5fc63e053cf83c06341ac94a,64d2fd46c836a06233681665,64dc7d1e5664ea86cae1fcca,,,,,,,decisionTrl,resources/DB.BMP,resources/DR.BMP,WildCard_NonEx,-0.306481467,-0.015740748,1,0,0,1.8109,optionLeft,55,1280,1,26,0,26,0,1,,,,,,,,,,,,,,,,,,,,,,,,,,,,,,,,,,,,,,,
,,,,,,,,2023-08-16_08h39.28.907,HF_wild_card,2022.2.4,Win32,60.15399423,5fc63e053cf83c06341ac94a,64d2fd46c836a06233681665,64dc7d1e5664ea86cae1fcca,,,,,,,decisionTrl,resources/DB.BMP,resources/DBN.BMP,WildCard_NonEx,-0.339814822,-0.000925947,1,0,0,1.8814,optionLeft,55,1335,1,27,0,27,0,1,,,,,,,,,,,,,,,,,,,,,,,,,,,,,,,,,,,,,,,
,,,,,,,,2023-08-16_08h39.28.907,HF_wild_card,2022.2.4,Win32,60.15399423,5fc63e053cf83c06341ac94a,64d2fd46c836a06233681665,64dc7d1e5664ea86cae1fcca,,,,,,,ctch,resources/DBN.BMP,resources/DR.BMP,Door3,0.225000028,0.023148148,1,0,0,2.3175,optionRight,70,1405,1,28,0,28,0,1,,,,,,,,,,,,,,,,,,,,,,,,,,,,,,,,,,,,,,,
,,,,,,,,2023-08-16_08h39.28.907,HF_wild_card,2022.2.4,Win32,60.15399423,5fc63e053cf83c06341ac94a,64d2fd46c836a06233681665,64dc7d1e5664ea86cae1fcca,,,,,,,decisionTrl,resources/DBN.BMP,resources/DP.BMP,Door1,0.262962977,-0.056481503,1,0,0,1.3743,optionRight,30,1435,1,29,0,29,0,1,,,,,,,,,,,,,,,,,,,,,,,,,,,,,,,,,,,,,,,
,,,,,,,,2023-08-16_08h39.28.907,HF_wild_card,2022.2.4,Win32,60.15399423,5fc63e053cf83c06341ac94a,64d2fd46c836a06233681665,64dc7d1e5664ea86cae1fcca,,,,,,,sngl,resources/DG.BMP,resources/Empty.png,Door4,-0.440740727,-0.027777778,1,0,0,1.1648,optionLeft,80,1515,1,30,0,30,0,1,,,,,,,,,,,,,,,,,,,,,,,,,,,,,,,,,,,,,,,
,,,,,,,,2023-08-16_08h39.28.907,HF_wild_card,2022.2.4,Win32,60.15399423,5fc63e053cf83c06341ac94a,64d2fd46c836a06233681665,64dc7d1e5664ea86cae1fcca,,,,,,,decisionTrl,resources/DBN.BMP,resources/DP.BMP,Door2,-0.437037044,0.026851831,1,0,0,3.0468,optionLeft,20,1535,1,31,0,31,0,1,,,,,,,,,,,,,,,,,,,,,,,,,,,,,,,,,,,,,,,
,,,,,,,,2023-08-16_08h39.28.907,HF_wild_card,2022.2.4,Win32,60.15399423,5fc63e053cf83c06341ac94a,64d2fd46c836a06233681665,64dc7d1e5664ea86cae1fcca,,,,,,,sngl,resources/DBN.BMP,resources/Empty.png,Door2,-0.386111118,0.013888889,1,0,0,1.1414,optionLeft,40,1575,1,32,0,32,0,1,,,,,,,,,,,,,,,,,,,,,,,,,,,,,,,,,,,,,,,
,,,,,,,,2023-08-16_08h39.28.907,HF_wild_card,2022.2.4,Win32,60.15399423,5fc63e053cf83c06341ac94a,64d2fd46c836a06233681665,64dc7d1e5664ea86cae1fcca,,,,,,,decisionTrl,resources/DG.BMP,resources/DR.BMP,Door4,-0.287962949,0.011111118,1,0,0,1.8775,optionLeft,80,1655,1,33,0,33,0,1,,,,,,,,,,,,,,,,,,,,,,,,,,,,,,,,,,,,,,,
,,,,,,,,2023-08-16_08h39.28.907,HF_wild_card,2022.2.4,Win32,60.15399423,5fc63e053cf83c06341ac94a,64d2fd46c836a06233681665,64dc7d1e5664ea86cae1fcca,,,,,,,ctch,resources/DG.BMP,resources/DP.BMP,Door4,-0.360185164,-0.008333347,1,0,0,1.0827,optionLeft,60,1715,1,34,0,34,0,1,,,,,,,,,,,,,,,,,,,,,,,,,,,,,,,,,,,,,,,
,,,,,,,,2023-08-16_08h39.28.907,HF_wild_card,2022.2.4,Win32,60.15399423,5fc63e053cf83c06341ac94a,64d2fd46c836a06233681665,64dc7d1e5664ea86cae1fcca,,,,,,,decisionTrl,resources/DB.BMP,resources/DP.BMP,WildCard_NonEx,-0.263888889,-0.013888889,1,0,0,1.482,optionLeft,55,1770,1,35,0,35,0,1,,,,,,,,,,,,,,,,,,,,,,,,,,,,,,,,,,,,,,,
,,,,,,,,2023-08-16_08h39.28.907,HF_wild_card,2022.2.4,Win32,60.15399423,5fc63e053cf83c06341ac94a,64d2fd46c836a06233681665,64dc7d1e5664ea86cae1fcca,,,,,,,sngl,resources/Empty.png,resources/DB.BMP,WildCard_NonEx,0.380555612,0.039814808,1,0,0,1.0541,optionRight,55,1825,1,36,0,36,0,1,,,,,,,,,,,,,,,,,,,,,,,,,,,,,,,,,,,,,,,
,,,,,,,,2023-08-16_08h39.28.907,HF_wild_card,2022.2.4,Win32,60.15399423,5fc63e053cf83c06341ac94a,64d2fd46c836a06233681665,64dc7d1e5664ea86cae1fcca,,,,,,,decisionTrl,resources/DG.BMP,resources/DB.BMP,Door4,-0.307407414,-0.015740748,1,0,0,1.7002,optionLeft,80,1905,1,37,0,37,0,1,,,,,,,,,,,,,,,,,,,,,,,,,,,,,,,,,,,,,,,
,,,,,,,,2023-08-16_08h39.28.907,HF_wild_card,2022.2.4,Win32,60.15399423,5fc63e053cf83c06341ac94a,64d2fd46c836a06233681665,64dc7d1e5664ea86cae1fcca,,,,,,,decisionTrl,resources/DG.BMP,resources/DR.BMP,Door4,-0.347222222,-0.020370377,1,0,0,1.0407,optionLeft,60,1965,1,38,0,38,0,1,,,,,,,,,,,,,,,,,,,,,,,,,,,,,,,,,,,,,,,
,,,,,,,,2023-08-16_08h39.28.907,HF_wild_card,2022.2.4,Win32,60.15399423,5fc63e053cf83c06341ac94a,64d2fd46c836a06233681665,64dc7d1e5664ea86cae1fcca,,,,,,,decisionTrl,resources/DR.BMP,resources/DB.BMP,WildCard_NonEx,0.329629686,-0.001851859,1,0,0,1.5353,optionRight,45,2010,1,39,0,39,0,1,,,,,,,,,,,,,,,,,,,,,,,,,,,,,,,,,,,,,,,
,,,,,,,,2023-08-16_08h39.28.907,HF_wild_card,2022.2.4,Win32,60.15399423,5fc63e053cf83c06341ac94a,64d2fd46c836a06233681665,64dc7d1e5664ea86cae1fcca,,,,,,,decisionTrl,resources/DR.BMP,resources/DG.BMP,Door4,0.310185185,0.050925926,1,0,0,1.1514,optionRight,80,2090,1,40,0,40,0,1,,,,,,,,,,,,,,,,,,,,,,,,,,,,,,,,,,,,,,,
,,,,,,,,2023-08-16_08h39.28.907,HF_wild_card,2022.2.4,Win32,60.15399423,5fc63e053cf83c06341ac94a,64d2fd46c836a06233681665,64dc7d1e5664ea86cae1fcca,,,,,,,ctch,resources/DR.BMP,resources/DBN.BMP,Door3,-0.325925933,0.005555541,1,0,0,2.499,optionLeft,70,2160,1,41,0,41,0,1,,,,,,,,,,,,,,,,,,,,,,,,,,,,,,,,,,,,,,,
,,,,,,,,2023-08-16_08h39.28.907,HF_wild_card,2022.2.4,Win32,60.15399423,5fc63e053cf83c06341ac94a,64d2fd46c836a06233681665,64dc7d1e5664ea86cae1fcca,,,,,,,decisionTrl,resources/DG.BMP,resources/DR.BMP,Door4,-0.313888868,0.000925912,1,0,0,1.8708,optionLeft,80,2240,1,42,0,42,0,1,,,,,,,,,,,,,,,,,,,,,,,,,,,,,,,,,,,,,,,
,,,,,,,,2023-08-16_08h39.28.907,HF_wild_card,2022.2.4,Win32,60.15399423,5fc63e053cf83c06341ac94a,64d2fd46c836a06233681665,64dc7d1e5664ea86cae1fcca,,,,,,,decisionTrl,resources/DR.BMP,resources/DG.BMP,Door4,0.328703704,0.025925919,1,0,0,1.0889,optionRight,60,2300,1,43,0,43,0,1,,,,,,,,,,,,,,,,,,,,,,,,,,,,,,,,,,,,,,,
,,,,,,,,2023-08-16_08h39.28.907,HF_wild_card,2022.2.4,Win32,60.15399423,5fc63e053cf83c06341ac94a,64d2fd46c836a06233681665,64dc7d1e5664ea86cae1fcca,,,,,,,,,,,,,,,,,,,,,,,,,,0,0,0,0,1,,,,,,,,,,,,,,,,,,,,,,,,,,,,,,,,,,
,,,,,,,,2023-08-16_08h39.28.907,HF_wild_card,2022.2.4,Win32,60.15399423,5fc63e053cf83c06341ac94a,64d2fd46c836a06233681665,64dc7d1e5664ea86cae1fcca,,,,,,,decisionTrl,resources/DB.BMP,resources/DBN.BMP,WildCard_NonEx,-0.268518519,-0.123148176,1,0,0,2.2752,optionLeft,45,2345,2,0,0,0,0,1,,,,,,,,,,,,,,,,,,,,,,,,,,,,,,,,,,,,,,,
,,,,,,,,2023-08-16_08h39.28.907,HF_wild_card,2022.2.4,Win32,60.15399423,5fc63e053cf83c06341ac94a,64d2fd46c836a06233681665,64dc7d1e5664ea86cae1fcca,,,,,,,sngl,resources/Empty.png,resources/DBN.BMP,Door2,0.337962963,0.01203703,1,0,0,0.9984,optionRight,40,2385,2,1,0,1,0,1,,,,,,,,,,,,,,,,,,,,,,,,,,,,,,,,,,,,,,,
,,,,,,,,2023-08-16_08h39.28.907,HF_wild_card,2022.2.4,Win32,60.15399423,5fc63e053cf83c06341ac94a,64d2fd46c836a06233681665,64dc7d1e5664ea86cae1fcca,,,,,,,decisionTrl,resources/DG.BMP,resources/DR.BMP,Door4,-0.383333312,-0.006481489,1,0,0,1.2841,optionLeft,60,2445,2,2,0,2,0,1,,,,,,,,,,,,,,,,,,,,,,,,,,,,,,,,,,,,,,,
,,,,,,,,2023-08-16_08h39.28.907,HF_wild_card,2022.2.4,Win32,60.15399423,5fc63e053cf83c06341ac94a,64d2fd46c836a06233681665,64dc7d1e5664ea86cae1fcca,,,,,,,decisionTrl,resources/DR.BMP,resources/DG.BMP,Door3,-0.380555541,-0.01203703,1,0,0,1.0434,optionLeft,70,2515,2,3,0,3,0,1,,,,,,,,,,,,,,,,,,,,,,,,,,,,,,,,,,,,,,,
,,,,,,,,2023-08-16_08h39.28.907,HF_wild_card,2022.2.4,Win32,60.15399423,5fc63e053cf83c06341ac94a,64d2fd46c836a06233681665,64dc7d1e5664ea86cae1fcca,,,,,,,decisionTrl,resources/DG.BMP,resources/DB.BMP,Door4,-0.355555534,0.005555541,1,0,0,1.8844,optionLeft,80,2595,2,4,0,4,0,1,,,,,,,,,,,,,,,,,,,,,,,,,,,,,,,,,,,,,,,
,,,,,,,,2023-08-16_08h39.28.907,HF_wild_card,2022.2.4,Win32,60.15399423,5fc63e053cf83c06341ac94a,64d2fd46c836a06233681665,64dc7d1e5664ea86cae1fcca,,,,,,,ctch,resources/DR.BMP,resources/DBN.BMP,Door3,-0.398148148,-0.027777778,1,0,0,2.1693,optionLeft,70,2665,2,5,0,5,0,1,,,,,,,,,,,,,,,,,,,,,,,,,,,,,,,,,,,,,,,
,,,,,,,,2023-08-16_08h39.28.907,HF_wild_card,2022.2.4,Win32,60.15399423,5fc63e053cf83c06341ac94a,64d2fd46c836a06233681665,64dc7d1e5664ea86cae1fcca,,,,,,,sngl,resources/DBN.BMP,resources/Empty.png,Door2,-0.368518511,0.018518519,1,0,0,1.4158,optionLeft,20,2685,2,6,0,6,0,1,,,,,,,,,,,,,,,,,,,,,,,,,,,,,,,,,,,,,,,
,,,,,,,,2023-08-16_08h39.28.907,HF_wild_card,2022.2.4,Win32,60.15399423,5fc63e053cf83c06341ac94a,64d2fd46c836a06233681665,64dc7d1e5664ea86cae1fcca,,,,,,,decisionTrl,resources/DG.BMP,resources/DR.BMP,Door4,-0.326851845,0.032407407,1,0,0,3.207,optionLeft,80,2765,2,7,0,7,0,1,,,,,,,,,,,,,,,,,,,,,,,,,,,,,,,,,,,,,,,
,,,,,,,,2023-08-16_08h39.28.907,HF_wild_card,2022.2.4,Win32,60.15399423,5fc63e053cf83c06341ac94a,64d2fd46c836a06233681665,64dc7d1e5664ea86cae1fcca,,,,,,,ctch,resources/DR.BMP,resources/DBN.BMP,Door3,-0.304629608,-0.003703718,1,0,0,1.9584,optionLeft,70,2835,2,8,0,8,0,1,,,,,,,,,,,,,,,,,,,,,,,,,,,,,,,,,,,,,,,
,,,,,,,,2023-08-16_08h39.28.907,HF_wild_card,2022.2.4,Win32,60.15399423,5fc63e053cf83c06341ac94a,64d2fd46c836a06233681665,64dc7d1e5664ea86cae1fcca,,,,,,,decisionTrl,resources/DB.BMP,resources/DP.BMP,WildCard_NonEx,-0.325925933,-0.018518519,1,0,0,2.2893,optionLeft,55,2890,2,9,0,9,0,1,,,,,,,,,,,,,,,,,,,,,,,,,,,,,,,,,,,,,,,
,,,,,,,,2023-08-16_08h39.28.907,HF_wild_card,2022.2.4,Win32,60.15399423,5fc63e053cf83c06341ac94a,64d2fd46c836a06233681665,64dc7d1e5664ea86cae1fcca,,,,,,,ctch,resources/DP.BMP,resources/DG.BMP,Door4,0.318518603,0.003703683,1,0,0,1.1385,optionRight,80,2970,2,10,0,10,0,1,,,,,,,,,,,,,,,,,,,,,,,,,,,,,,,,,,,,,,,
,,,,,,,,2023-08-16_08h39.28.907,HF_wild_card,2022.2.4,Win32,60.15399423,5fc63e053cf83c06341ac94a,64d2fd46c836a06233681665,64dc7d1e5664ea86cae1fcca,,,,,,,sngl,resources/Empty.png,resources/DG.BMP,Door4,0.327777863,0.030555548,1,0,0,1.0828,optionRight,80,3050,2,11,0,11,0,1,,,,,,,,,,,,,,,,,,,,,,,,,,,,,,,,,,,,,,,
,,,,,,,,2023-08-16_08h39.28.907,HF_wild_card,2022.2.4,Win32,60.15399423,5fc63e053cf83c06341ac94a,64d2fd46c836a06233681665,64dc7d1e5664ea86cae1fcca,,,,,,,decisionTrl,resources/DR.BMP,resources/DG.BMP,Door4,0.432407379,0.080555563,1,0,0,1.8329,optionRight,60,3110,2,12,0,12,0,1,,,,,,,,,,,,,,,,,,,,,,,,,,,,,,,,,,,,,,,
,,,,,,,,2023-08-16_08h39.28.907,HF_wild_card,2022.2.4,Win32,60.15399423,5fc63e053cf83c06341ac94a,64d2fd46c836a06233681665,64dc7d1e5664ea86cae1fcca,,,,,,,decisionTrl,resources/DP.BMP,resources/DBN.BMP,Door2,0.353703675,0.058333326,1,0,0,3.1726,optionRight,40,3150,2,13,0,13,0,1,,,,,,,,,,,,,,,,,,,,,,,,,,,,,,,,,,,,,,,
,,,,,,,,2023-08-16_08h39.28.907,HF_wild_card,2022.2.4,Win32,60.15399423,5fc63e053cf83c06341ac94a,64d2fd46c836a06233681665,64dc7d1e5664ea86cae1fcca,,,,,,,decisionTrl,resources/DR.BMP,resources/DG.BMP,Door4,0.434259344,0.037962949,1,0,0,1.5801,optionRight,80,3230,2,14,0,14,0,1,,,,,,,,,,,,,,,,,,,,,,,,,,,,,,,,,,,,,,,
,,,,,,,,2023-08-16_08h39.28.907,HF_wild_card,2022.2.4,Win32,60.15399423,5fc63e053cf83c06341ac94a,64d2fd46c836a06233681665,64dc7d1e5664ea86cae1fcca,,,,,,,sngl,resources/DG.BMP,resources/Empty.png,Door4,-0.372222229,-0.043518526,1,0,0,1.0791,optionLeft,60,3290,2,15,0,15,0,1,,,,,,,,,,,,,,,,,,,,,,,,,,,,,,,,,,,,,,,
,,,,,,,,2023-08-16_08h39.28.907,HF_wild_card,2022.2.4,Win32,60.15399423,5fc63e053cf83c06341ac94a,64d2fd46c836a06233681665,64dc7d1e5664ea86cae1fcca,,,,,,,decisionTrl,resources/DR.BMP,resources/DB.BMP,Door3,-0.306481467,-0.037962984,1,0,0,2.575,optionLeft,70,3360,2,16,0,16,0,1,,,,,,,,,,,,,,,,,,,,,,,,,,,,,,,,,,,,,,,
,,,,,,,,2023-08-16_08h39.28.907,HF_wild_card,2022.2.4,Win32,60.15399423,5fc63e053cf83c06341ac94a,64d2fd46c836a06233681665,64dc7d1e5664ea86cae1fcca,,,,,,,sngl,resources/DB.BMP,resources/Empty.png,WildCard_NonEx,-0.295370384,-0.034259266,1,0,0,1.1301,optionLeft,45,3405,2,17,0,17,0,1,,,,,,,,,,,,,,,,,,,,,,,,,,,,,,,,,,,,,,,
,,,,,,,,2023-08-16_08h39.28.907,HF_wild_card,2022.2.4,Win32,60.15399423,5fc63e053cf83c06341ac94a,64d2fd46c836a06233681665,64dc7d1e5664ea86cae1fcca,,,,,,,ctch,resources/DBN.BMP,resources/DR.BMP,Door3,0.386111083,0.014814801,1,0,0,1.5836,optionRight,70,3475,2,18,0,18,0,1,,,,,,,,,,,,,,,,,,,,,,,,,,,,,,,,,,,,,,,
,,,,,,,,2023-08-16_08h39.28.907,HF_wild_card,2022.2.4,Win32,60.15399423,5fc63e053cf83c06341ac94a,64d2fd46c836a06233681665,64dc7d1e5664ea86cae1fcca,,,,,,,decisionTrl,resources/DBN.BMP,resources/DB.BMP,WildCard_NonEx,0.410185213,0.022222201,1,0,0,1.8767,optionRight,55,3530,2,19,0,19,0,1,,,,,,,,,,,,,,,,,,,,,,,,,,,,,,,,,,,,,,,
,,,,,,,,2023-08-16_08h39.28.907,HF_wild_card,2022.2.4,Win32,60.15399423,5fc63e053cf83c06341ac94a,64d2fd46c836a06233681665,64dc7d1e5664ea86cae1fcca,,,,,,,decisionTrl,resources/DP.BMP,resources/DB.BMP,WildCard_NonEx,0.283333319,0.003703683,1,0,0,2.0678,optionRight,45,3575,2,20,0,20,0,1,,,,,,,,,,,,,,,,,,,,,,,,,,,,,,,,,,,,,,,
,,,,,,,,2023-08-16_08h39.28.907,HF_wild_card,2022.2.4,Win32,60.15399423,5fc63e053cf83c06341ac94a,64d2fd46c836a06233681665,64dc7d1e5664ea86cae1fcca,,,,,,,decisionTrl,resources/DG.BMP,resources/DR.BMP,Door4,-0.345370363,-0.066666674,1,0,0,1.3661,optionLeft,80,3655,2,21,0,21,0,1,,,,,,,,,,,,,,,,,,,,,,,,,,,,,,,,,,,,,,,
,,,,,,,,2023-08-16_08h39.28.907,HF_wild_card,2022.2.4,Win32,60.15399423,5fc63e053cf83c06341ac94a,64d2fd46c836a06233681665,64dc7d1e5664ea86cae1fcca,,,,,,,sngl,resources/DP.BMP,resources/Empty.png,Door1,-0.37962963,-0.037037037,1,0,0,1.2236,optionLeft,30,3685,2,22,0,22,0,1,,,,,,,,,,,,,,,,,,,,,,,,,,,,,,,,,,,,,,,
,,,,,,,,2023-08-16_08h39.28.907,HF_wild_card,2022.2.4,Win32,60.15399423,5fc63e053cf83c06341ac94a,64d2fd46c836a06233681665,64dc7d1e5664ea86cae1fcca,,,,,,,sngl,resources/Empty.png,resources/DR.BMP,Door3,0.319444444,0.030555548,1,0,0,1.0805,optionRight,70,3755,2,23,0,23,0,1,,,,,,,,,,,,,,,,,,,,,,,,,,,,,,,,,,,,,,,
,,,,,,,,2023-08-16_08h39.28.907,HF_wild_card,2022.2.4,Win32,60.15399423,5fc63e053cf83c06341ac94a,64d2fd46c836a06233681665,64dc7d1e5664ea86cae1fcca,,,,,,,ctch,resources/DG.BMP,resources/DP.BMP,Door4,-0.295370384,-0.00462963,1,0,0,1.4815,optionLeft,60,3815,2,24,0,24,0,1,,,,,,,,,,,,,,,,,,,,,,,,,,,,,,,,,,,,,,,
,,,,,,,,2023-08-16_08h39.28.907,HF_wild_card,2022.2.4,Win32,60.15399423,5fc63e053cf83c06341ac94a,64d2fd46c836a06233681665,64dc7d1e5664ea86cae1fcca,,,,,,,decisionTrl,resources/DBN.BMP,resources/DP.BMP,Door2,-0.320370356,0.044444437,1,0,0,2.2385,optionLeft,40,3855,2,25,0,25,0,1,,,,,,,,,,,,,,,,,,,,,,,,,,,,,,,,,,,,,,,
,,,,,,,,2023-08-16_08h39.28.907,HF_wild_card,2022.2.4,Win32,60.15399423,5fc63e053cf83c06341ac94a,64d2fd46c836a06233681665,64dc7d1e5664ea86cae1fcca,,,,,,,decisionTrl,resources/DB.BMP,resources/DG.BMP,Door4,0.296296296,0.051851838,1,0,0,1.6196,optionRight,60,3915,2,26,0,26,0,1,,,,,,,,,,,,,,,,,,,,,,,,,,,,,,,,,,,,,,,
,,,,,,,,2023-08-16_08h39.28.907,HF_wild_card,2022.2.4,Win32,60.15399423,5fc63e053cf83c06341ac94a,64d2fd46c836a06233681665,64dc7d1e5664ea86cae1fcca,,,,,,,decisionTrl,resources/DBN.BMP,resources/DP.BMP,Door2,-0.345370363,0.060185185,1,0,0,2.9839,optionLeft,20,3935,2,27,0,27,0,1,,,,,,,,,,,,,,,,,,,,,,,,,,,,,,,,,,,,,,,
,,,,,,,,2023-08-16_08h39.28.907,HF_wild_card,2022.2.4,Win32,60.15399423,5fc63e053cf83c06341ac94a,64d2fd46c836a06233681665,64dc7d1e5664ea86cae1fcca,,,,,,,ctch,resources/DG.BMP,resources/DP.BMP,Door4,-0.37037037,-0.033333355,1,0,0,1.225,optionLeft,60,3995,2,28,0,28,0,1,,,,,,,,,,,,,,,,,,,,,,,,,,,,,,,,,,,,,,,
,,,,,,,,2023-08-16_08h39.28.907,HF_wild_card,2022.2.4,Win32,60.15399423,5fc63e053cf83c06341ac94a,64d2fd46c836a06233681665,64dc7d1e5664ea86cae1fcca,,,,,,,decisionTrl,resources/DB.BMP,resources/DR.BMP,WildCard_NonEx,-0.336111104,-0.026851866,1,0,0,1.4806,optionLeft,45,4040,2,29,0,29,0,1,,,,,,,,,,,,,,,,,,,,,,,,,,,,,,,,,,,,,,,
,,,,,,,,2023-08-16_08h39.28.907,HF_wild_card,2022.2.4,Win32,60.15399423,5fc63e053cf83c06341ac94a,64d2fd46c836a06233681665,64dc7d1e5664ea86cae1fcca,,,,,,,ctch,resources/DBN.BMP,resources/DR.BMP,Door3,0.300000085,0.023148148,1,0,0,1.0066,optionRight,70,4110,2,30,0,30,0,1,,,,,,,,,,,,,,,,,,,,,,,,,,,,,,,,,,,,,,,
,,,,,,,,2023-08-16_08h39.28.907,HF_wild_card,2022.2.4,Win32,60.15399423,5fc63e053cf83c06341ac94a,64d2fd46c836a06233681665,64dc7d1e5664ea86cae1fcca,,,,,,,sngl,resources/Empty.png,resources/DP.BMP,Door1,0.350926011,-0.019444466,1,0,0,1.0625,optionRight,30,4140,2,31,0,31,0,1,,,,,,,,,,,,,,,,,,,,,,,,,,,,,,,,,,,,,,,
,,,,,,,,2023-08-16_08h39.28.907,HF_wild_card,2022.2.4,Win32,60.15399423,5fc63e053cf83c06341ac94a,64d2fd46c836a06233681665,64dc7d1e5664ea86cae1fcca,,,,,,,decisionTrl,resources/DR.BMP,resources/DG.BMP,Door4,0.347222222,0.035185178,1,0,0,2.8137,optionRight,60,4200,2,32,0,32,0,1,,,,,,,,,,,,,,,,,,,,,,,,,,,,,,,,,,,,,,,
,,,,,,,,2023-08-16_08h39.28.907,HF_wild_card,2022.2.4,Win32,60.15399423,5fc63e053cf83c06341ac94a,64d2fd46c836a06233681665,64dc7d1e5664ea86cae1fcca,,,,,,,sngl,resources/DB.BMP,resources/Empty.png,WildCard_NonEx,-0.346296275,-0.037037037,1,0,0,1.077,optionLeft,55,4255,2,33,0,33,0,1,,,,,,,,,,,,,,,,,,,,,,,,,,,,,,,,,,,,,,,
,,,,,,,,2023-08-16_08h39.28.907,HF_wild_card,2022.2.4,Win32,60.15399423,5fc63e053cf83c06341ac94a,64d2fd46c836a06233681665,64dc7d1e5664ea86cae1fcca,,,,,,,sngl,resources/Empty.png,resources/DB.BMP,WildCard_NonEx,0.312962991,0.025925919,1,0,0,1.0506,optionRight,45,4300,2,34,0,34,0,1,,,,,,,,,,,,,,,,,,,,,,,,,,,,,,,,,,,,,,,
,,,,,,,,2023-08-16_08h39.28.907,HF_wild_card,2022.2.4,Win32,60.15399423,5fc63e053cf83c06341ac94a,64d2fd46c836a06233681665,64dc7d1e5664ea86cae1fcca,,,,,,,decisionTrl,resources/DP.BMP,resources/DBN.BMP,Door2,0.296296296,0.051851838,1,0,0,5.7212,optionRight,20,4320,2,35,0,35,0,1,,,,,,,,,,,,,,,,,,,,,,,,,,,,,,,,,,,,,,,
,,,,,,,,2023-08-16_08h39.28.907,HF_wild_card,2022.2.4,Win32,60.15399423,5fc63e053cf83c06341ac94a,64d2fd46c836a06233681665,64dc7d1e5664ea86cae1fcca,,,,,,,sngl,resources/DR.BMP,resources/Empty.png,Door3,-0.375,-0.071296303,1,0,0,1.0774,optionLeft,70,4390,2,36,0,36,0,1,,,,,,,,,,,,,,,,,,,,,,,,,,,,,,,,,,,,,,,
,,,,,,,,2023-08-16_08h39.28.907,HF_wild_card,2022.2.4,Win32,60.15399423,5fc63e053cf83c06341ac94a,64d2fd46c836a06233681665,64dc7d1e5664ea86cae1fcca,,,,,,,decisionTrl,resources/DG.BMP,resources/DR.BMP,Door3,0.279629672,0.009259259,1,0,0,1.2162,optionRight,70,4460,2,37,0,37,0,1,,,,,,,,,,,,,,,,,,,,,,,,,,,,,,,,,,,,,,,
,,,,,,,,2023-08-16_08h39.28.907,HF_wild_card,2022.2.4,Win32,60.15399423,5fc63e053cf83c06341ac94a,64d2fd46c836a06233681665,64dc7d1e5664ea86cae1fcca,,,,,,,decisionTrl,resources/DP.BMP,resources/DBN.BMP,Door1,-0.386111118,-0.049074067,1,0,0,2.8081,optionLeft,30,4490,2,38,0,38,0,1,,,,,,,,,,,,,,,,,,,,,,,,,,,,,,,,,,,,,,,
,,,,,,,,2023-08-16_08h39.28.907,HF_wild_card,2022.2.4,Win32,60.15399423,5fc63e053cf83c06341ac94a,64d2fd46c836a06233681665,64dc7d1e5664ea86cae1fcca,,,,,,,decisionTrl,resources/DP.BMP,resources/DBN.BMP,Door1,-0.306481467,-0.015740748,1,0,0,3.8212,optionLeft,30,4520,2,39,0,39,0,1,,,,,,,,,,,,,,,,,,,,,,,,,,,,,,,,,,,,,,,
,,,,,,,,2023-08-16_08h39.28.907,HF_wild_card,2022.2.4,Win32,60.15399423,5fc63e053cf83c06341ac94a,64d2fd46c836a06233681665,64dc7d1e5664ea86cae1fcca,,,,,,,sngl,resources/Empty.png,resources/DB.BMP,WildCard_NonEx,0.319444444,0.002777771,1,0,0,1.0849,optionRight,55,4575,2,40,0,40,0,1,,,,,,,,,,,,,,,,,,,,,,,,,,,,,,,,,,,,,,,
,,,,,,,,2023-08-16_08h39.28.907,HF_wild_card,2022.2.4,Win32,60.15399423,5fc63e053cf83c06341ac94a,64d2fd46c836a06233681665,64dc7d1e5664ea86cae1fcca,,,,,,,decisionTrl,resources/DBN.BMP,resources/DP.BMP,Door1,0.294444473,-0.027777778,1,0,0,2.3974,optionRight,30,4605,2,41,0,41,0,1,,,,,,,,,,,,,,,,,,,,,,,,,,,,,,,,,,,,,,,
,,,,,,,,2023-08-16_08h39.28.907,HF_wild_card,2022.2.4,Win32,60.15399423,5fc63e053cf83c06341ac94a,64d2fd46c836a06233681665,64dc7d1e5664ea86cae1fcca,,,,,,,decisionTrl,resources/DBN.BMP,resources/DP.BMP,Door2,-0.332407386,-0.008333347,1,0,0,1.1985,optionLeft,40,4645,2,42,0,42,0,1,,,,,,,,,,,,,,,,,,,,,,,,,,,,,,,,,,,,,,,
,,,,,,,,2023-08-16_08h39.28.907,HF_wild_card,2022.2.4,Win32,60.15399423,5fc63e053cf83c06341ac94a,64d2fd46c836a06233681665,64dc7d1e5664ea86cae1fcca,,,,,,,ctch,resources/DP.BMP,resources/DG.BMP,Door4,0.362962935,0.018518519,1,0,0,2.2211,optionRight,80,4725,2,43,0,43,0,1,,,,,,,,,,,,,,,,,,,,,,,,,,,,,,,,,,,,,,,
,,,,,,,,2023-08-16_08h39.28.907,HF_wild_card,2022.2.4,Win32,60.15399423,5fc63e053cf83c06341ac94a,64d2fd46c836a06233681665,64dc7d1e5664ea86cae1fcca,,,,,,,,,,,,,,,,,,,,,,,,,,1,0,1,0,1,,,,,,,,,,,,,,,,,,,,,,,,,,,,,,,,,,
,,,,,,,,2023-08-16_08h39.28.907,HF_wild_card,2022.2.4,Win32,60.15399423,5fc63e053cf83c06341ac94a,64d2fd46c836a06233681665,64dc7d1e5664ea86cae1fcca,,,,,,,ctch,resources/DBN.BMP,resources/DR.BMP,Door3,0.373148176,-0.005555577,1,0,0,1.8129,optionRight,70,4795,3,0,0,0,0,1,,,,,,,,,,,,,,,,,,,,,,,,,,,,,,,,,,,,,,,
,,,,,,,,2023-08-16_08h39.28.907,HF_wild_card,2022.2.4,Win32,60.15399423,5fc63e053cf83c06341ac94a,64d2fd46c836a06233681665,64dc7d1e5664ea86cae1fcca,,,,,,,ctch,resources/DR.BMP,resources/DBN.BMP,Door3,-0.368518511,-0.048148155,1,0,0,1.1576,optionLeft,70,4865,3,1,0,1,0,1,,,,,,,,,,,,,,,,,,,,,,,,,,,,,,,,,,,,,,,
,,,,,,,,2023-08-16_08h39.28.907,HF_wild_card,2022.2.4,Win32,60.15399423,5fc63e053cf83c06341ac94a,64d2fd46c836a06233681665,64dc7d1e5664ea86cae1fcca,,,,,,,decisionTrl,resources/DP.BMP,resources/DBN.BMP,Door1,-0.362037023,-0.047222243,1,0,0,2.9108,optionLeft,30,4895,3,2,0,2,0,1,,,,,,,,,,,,,,,,,,,,,,,,,,,,,,,,,,,,,,,
,,,,,,,,2023-08-16_08h39.28.907,HF_wild_card,2022.2.4,Win32,60.15399423,5fc63e053cf83c06341ac94a,64d2fd46c836a06233681665,64dc7d1e5664ea86cae1fcca,,,,,,,ctch,resources/DP.BMP,resources/DG.BMP,Door4,0.387037065,-0.008333347,1,0,0,1.2961,optionRight,60,4955,3,3,0,3,0,1,,,,,,,,,,,,,,,,,,,,,,,,,,,,,,,,,,,,,,,
,,,,,,,,2023-08-16_08h39.28.907,HF_wild_card,2022.2.4,Win32,60.15399423,5fc63e053cf83c06341ac94a,64d2fd46c836a06233681665,64dc7d1e5664ea86cae1fcca,,,,,,,sngl,resources/DP.BMP,resources/Empty.png,Door1,-0.306481467,-0.087037051,1,0,0,1.7487,optionLeft,30,4985,3,4,0,4,0,1,,,,,,,,,,,,,,,,,,,,,,,,,,,,,,,,,,,,,,,
,,,,,,,,2023-08-16_08h39.28.907,HF_wild_card,2022.2.4,Win32,60.15399423,5fc63e053cf83c06341ac94a,64d2fd46c836a06233681665,64dc7d1e5664ea86cae1fcca,,,,,,,decisionTrl,resources/DP.BMP,resources/DBN.BMP,Door2,0.374074159,-0.043518526,1,0,0,2.1192,optionRight,20,5005,3,5,0,5,0,1,,,,,,,,,,,,,,,,,,,,,,,,,,,,,,,,,,,,,,,
,,,,,,,,2023-08-16_08h39.28.907,HF_wild_card,2022.2.4,Win32,60.15399423,5fc63e053cf83c06341ac94a,64d2fd46c836a06233681665,64dc7d1e5664ea86cae1fcca,,,,,,,sngl,resources/DBN.BMP,resources/Empty.png,Door2,-0.359259252,-0.068518533,1,0,0,1.0553,optionLeft,40,5045,3,6,0,6,0,1,,,,,,,,,,,,,,,,,,,,,,,,,,,,,,,,,,,,,,,
,,,,,,,,2023-08-16_08h39.28.907,HF_wild_card,2022.2.4,Win32,60.15399423,5fc63e053cf83c06341ac94a,64d2fd46c836a06233681665,64dc7d1e5664ea86cae1fcca,,,,,,,sngl,resources/Empty.png,resources/DBN.BMP,Door2,0.352777834,0.008333312,1,0,0,1.0211,optionRight,20,5065,3,7,0,7,0,1,,,,,,,,,,,,,,,,,,,,,,,,,,,,,,,,,,,,,,,
,,,,,,,,2023-08-16_08h39.28.907,HF_wild_card,2022.2.4,Win32,60.15399423,5fc63e053cf83c06341ac94a,64d2fd46c836a06233681665,64dc7d1e5664ea86cae1fcca,,,,,,,decisionTrl,resources/DG.BMP,resources/DR.BMP,Door4,-0.331481474,-0.000925947,1,0,0,2.4228,optionLeft,60,5125,3,8,0,8,0,1,,,,,,,,,,,,,,,,,,,,,,,,,,,,,,,,,,,,,,,
,,,,,,,,2023-08-16_08h39.28.907,HF_wild_card,2022.2.4,Win32,60.15399423,5fc63e053cf83c06341ac94a,64d2fd46c836a06233681665,64dc7d1e5664ea86cae1fcca,,,,,,,decisionTrl,resources/DG.BMP,resources/DR.BMP,Door3,0.387037065,-0.003703718,1,0,0,0.9743,optionRight,70,5195,3,9,0,9,0,1,,,,,,,,,,,,,,,,,,,,,,,,,,,,,,,,,,,,,,,
,,,,,,,,2023-08-16_08h39.28.907,HF_wild_card,2022.2.4,Win32,60.15399423,5fc63e053cf83c06341ac94a,64d2fd46c836a06233681665,64dc7d1e5664ea86cae1fcca,,,,,,,decisionTrl,resources/DBN.BMP,resources/DP.BMP,Door1,0.301851908,-0.030555548,1,0,0,1.3155,optionRight,30,5225,3,10,0,10,0,1,,,,,,,,,,,,,,,,,,,,,,,,,,,,,,,,,,,,,,,
,,,,,,,,2023-08-16_08h39.28.907,HF_wild_card,2022.2.4,Win32,60.15399423,5fc63e053cf83c06341ac94a,64d2fd46c836a06233681665,64dc7d1e5664ea86cae1fcca,,,,,,,decisionTrl,resources/DG.BMP,resources/DR.BMP,Door4,-0.314814815,0.005555541,1,0,0,2.5404,optionLeft,60,5285,3,11,0,11,0,1,,,,,,,,,,,,,,,,,,,,,,,,,,,,,,,,,,,,,,,
,,,,,,,,2023-08-16_08h39.28.907,HF_wild_card,2022.2.4,Win32,60.15399423,5fc63e053cf83c06341ac94a,64d2fd46c836a06233681665,64dc7d1e5664ea86cae1fcca,,,,,,,decisionTrl,resources/DR.BMP,resources/DG.BMP,Door3,-0.385185171,-0.044444437,1,0,0,1.0996,optionLeft,70,5355,3,12,0,12,0,1,,,,,,,,,,,,,,,,,,,,,,,,,,,,,,,,,,,,,,,
,,,,,,,,2023-08-16_08h39.28.907,HF_wild_card,2022.2.4,Win32,60.15399423,5fc63e053cf83c06341ac94a,64d2fd46c836a06233681665,64dc7d1e5664ea86cae1fcca,,,,,,,ctch,resources/DG.BMP,resources/DP.BMP,Door4,-0.310185185,-0.020370377,1,0,0,1.6363,optionLeft,80,5435,3,13,0,13,0,1,,,,,,,,,,,,,,,,,,,,,,,,,,,,,,,,,,,,,,,
,,,,,,,,2023-08-16_08h39.28.907,HF_wild_card,2022.2.4,Win32,60.15399423,5fc63e053cf83c06341ac94a,64d2fd46c836a06233681665,64dc7d1e5664ea86cae1fcca,,,,,,,decisionTrl,resources/DBN.BMP,resources/DB.BMP,WildCard_NonEx,0.409259231,0.043518526,1,0,0,1.2505,optionRight,55,5490,3,14,0,14,0,1,,,,,,,,,,,,,,,,,,,,,,,,,,,,,,,,,,,,,,,
,,,,,,,,2023-08-16_08h39.28.907,HF_wild_card,2022.2.4,Win32,60.15399423,5fc63e053cf83c06341ac94a,64d2fd46c836a06233681665,64dc7d1e5664ea86cae1fcca,,,,,,,ctch,resources/DR.BMP,resources/DBN.BMP,Door3,-0.29351849,-0.023148148,1,0,0,1.4849,optionLeft,70,5560,3,15,0,15,0,1,,,,,,,,,,,,,,,,,,,,,,,,,,,,,,,,,,,,,,,
,,,,,,,,2023-08-16_08h39.28.907,HF_wild_card,2022.2.4,Win32,60.15399423,5fc63e053cf83c06341ac94a,64d2fd46c836a06233681665,64dc7d1e5664ea86cae1fcca,,,,,,,decisionTrl,resources/DG.BMP,resources/DR.BMP,Door3,0.26944443,0.062962956,1,0,0,1.8066,optionRight,70,5630,3,16,0,16,0,1,,,,,,,,,,,,,,,,,,,,,,,,,,,,,,,,,,,,,,,
,,,,,,,,2023-08-16_08h39.28.907,HF_wild_card,2022.2.4,Win32,60.15399423,5fc63e053cf83c06341ac94a,64d2fd46c836a06233681665,64dc7d1e5664ea86cae1fcca,,,,,,,decisionTrl,resources/DP.BMP,resources/DB.BMP,WildCard_NonEx,0.332407492,0.020370377,1,0,0,1.5681,optionRight,55,5685,3,17,0,17,0,1,,,,,,,,,,,,,,,,,,,,,,,,,,,,,,,,,,,,,,,
,,,,,,,,2023-08-16_08h39.28.907,HF_wild_card,2022.2.4,Win32,60.15399423,5fc63e053cf83c06341ac94a,64d2fd46c836a06233681665,64dc7d1e5664ea86cae1fcca,,,,,,,sngl,resources/Empty.png,resources/DR.BMP,Door3,0.305555556,0.057407414,1,0,0,1.0204,optionRight,70,5755,3,18,0,18,0,1,,,,,,,,,,,,,,,,,,,,,,,,,,,,,,,,,,,,,,,
,,,,,,,,2023-08-16_08h39.28.907,HF_wild_card,2022.2.4,Win32,60.15399423,5fc63e053cf83c06341ac94a,64d2fd46c836a06233681665,64dc7d1e5664ea86cae1fcca,,,,,,,decisionTrl,resources/DB.BMP,resources/DBN.BMP,WildCard_NonEx,-0.302777785,-0.021296289,1,0,0,1.6277,optionLeft,55,5810,3,19,0,19,0,1,,,,,,,,,,,,,,,,,,,,,,,,,,,,,,,,,,,,,,,
,,,,,,,,2023-08-16_08h39.28.907,HF_wild_card,2022.2.4,Win32,60.15399423,5fc63e053cf83c06341ac94a,64d2fd46c836a06233681665,64dc7d1e5664ea86cae1fcca,,,,,,,decisionTrl,resources/DBN.BMP,resources/DP.BMP,Door1,0.320370427,0.049999979,1,0,0,1.2387,optionRight,30,5840,3,20,0,20,0,1,,,,,,,,,,,,,,,,,,,,,,,,,,,,,,,,,,,,,,,
,,,,,,,,2023-08-16_08h39.28.907,HF_wild_card,2022.2.4,Win32,60.15399423,5fc63e053cf83c06341ac94a,64d2fd46c836a06233681665,64dc7d1e5664ea86cae1fcca,,,,,,,decisionTrl,resources/DB.BMP,resources/DP.BMP,WildCard_NonEx,-0.312037044,-0.052777785,1,0,0,1.4668,optionLeft,55,5895,3,21,0,21,0,1,,,,,,,,,,,,,,,,,,,,,,,,,,,,,,,,,,,,,,,
,,,,,,,,2023-08-16_08h39.28.907,HF_wild_card,2022.2.4,Win32,60.15399423,5fc63e053cf83c06341ac94a,64d2fd46c836a06233681665,64dc7d1e5664ea86cae1fcca,,,,,,,sngl,resources/DB.BMP,resources/Empty.png,WildCard_NonEx,-0.339814822,-0.036111125,1,0,0,1.0976,optionLeft,45,5940,3,22,0,22,0,1,,,,,,,,,,,,,,,,,,,,,,,,,,,,,,,,,,,,,,,
,,,,,,,,2023-08-16_08h39.28.907,HF_wild_card,2022.2.4,Win32,60.15399423,5fc63e053cf83c06341ac94a,64d2fd46c836a06233681665,64dc7d1e5664ea86cae1fcca,,,,,,,sngl,resources/Empty.png,resources/DB.BMP,WildCard_NonEx,0.385185242,0.014814801,1,0,0,0.9973,optionRight,45,5985,3,23,0,23,0,1,,,,,,,,,,,,,,,,,,,,,,,,,,,,,,,,,,,,,,,
,,,,,,,,2023-08-16_08h39.28.907,HF_wild_card,2022.2.4,Win32,60.15399423,5fc63e053cf83c06341ac94a,64d2fd46c836a06233681665,64dc7d1e5664ea86cae1fcca,,,,,,,decisionTrl,resources/DB.BMP,resources/DG.BMP,Door4,0.30277775,-0.003703718,1,0,0,1.6529,optionRight,60,6045,3,24,0,24,0,1,,,,,,,,,,,,,,,,,,,,,,,,,,,,,,,,,,,,,,,
,,,,,,,,2023-08-16_08h39.28.907,HF_wild_card,2022.2.4,Win32,60.15399423,5fc63e053cf83c06341ac94a,64d2fd46c836a06233681665,64dc7d1e5664ea86cae1fcca,,,,,,,ctch,resources/DG.BMP,resources/DP.BMP,Door4,-0.336111104,-0.010185206,1,0,0,1.1505,optionLeft,80,6125,3,25,0,25,0,1,,,,,,,,,,,,,,,,,,,,,,,,,,,,,,,,,,,,,,,
,,,,,,,,2023-08-16_08h39.28.907,HF_wild_card,2022.2.4,Win32,60.15399423,5fc63e053cf83c06341ac94a,64d2fd46c836a06233681665,64dc7d1e5664ea86cae1fcca,,,,,,,sngl,resources/Empty.png,resources/DB.BMP,WildCard_NonEx,0.291666667,0.055555556,1,0,0,1.2078,optionRight,55,6180,3,26,0,26,0,1,,,,,,,,,,,,,,,,,,,,,,,,,,,,,,,,,,,,,,,
,,,,,,,,2023-08-16_08h39.28.907,HF_wild_card,2022.2.4,Win32,60.15399423,5fc63e053cf83c06341ac94a,64d2fd46c836a06233681665,64dc7d1e5664ea86cae1fcca,,,,,,,sngl,resources/DG.BMP,resources/Empty.png,Door4,-0.373148141,-0.002777771,1,0,0,1.0411,optionLeft,80,6260,3,27,0,27,0,1,,,,,,,,,,,,,,,,,,,,,,,,,,,,,,,,,,,,,,,
,,,,,,,,2023-08-16_08h39.28.907,HF_wild_card,2022.2.4,Win32,60.15399423,5fc63e053cf83c06341ac94a,64d2fd46c836a06233681665,64dc7d1e5664ea86cae1fcca,,,,,,,decisionTrl,resources/DP.BMP,resources/DBN.BMP,Door1,-0.283333319,-0.052777785,1,0,0,5.2731,optionLeft,30,6290,3,28,0,28,0,1,,,,,,,,,,,,,,,,,,,,,,,,,,,,,,,,,,,,,,,
,,,,,,,,2023-08-16_08h39.28.907,HF_wild_card,2022.2.4,Win32,60.15399423,5fc63e053cf83c06341ac94a,64d2fd46c836a06233681665,64dc7d1e5664ea86cae1fcca,,,,,,,decisionTrl,resources/DG.BMP,resources/DB.BMP,Door4,-0.383333312,-0.029629637,1,0,0,2.1039,optionLeft,60,6350,3,29,0,29,0,1,,,,,,,,,,,,,,,,,,,,,,,,,,,,,,,,,,,,,,,
,,,,,,,,2023-08-16_08h39.28.907,HF_wild_card,2022.2.4,Win32,60.15399423,5fc63e053cf83c06341ac94a,64d2fd46c836a06233681665,64dc7d1e5664ea86cae1fcca,,,,,,,sngl,resources/DR.BMP,resources/Empty.png,Door3,-0.396296289,-0.037037037,1,0,0,1.1486,optionLeft,70,6420,3,30,0,30,0,1,,,,,,,,,,,,,,,,,,,,,,,,,,,,,,,,,,,,,,,
,,,,,,,,2023-08-16_08h39.28.907,HF_wild_card,2022.2.4,Win32,60.15399423,5fc63e053cf83c06341ac94a,64d2fd46c836a06233681665,64dc7d1e5664ea86cae1fcca,,,,,,,decisionTrl,resources/DBN.BMP,resources/DP.BMP,Door2,-0.322222215,0.03611109,1,0,0,1.4821,optionLeft,20,6440,3,31,0,31,0,1,,,,,,,,,,,,,,,,,,,,,,,,,,,,,,,,,,,,,,,
,,,,,,,,2023-08-16_08h39.28.907,HF_wild_card,2022.2.4,Win32,60.15399423,5fc63e053cf83c06341ac94a,64d2fd46c836a06233681665,64dc7d1e5664ea86cae1fcca,,,,,,,decisionTrl,resources/DR.BMP,resources/DB.BMP,Door3,-0.340740734,-0.0074074,1,0,0,2.3653,optionLeft,70,6510,3,32,0,32,0,1,,,,,,,,,,,,,,,,,,,,,,,,,,,,,,,,,,,,,,,
,,,,,,,,2023-08-16_08h39.28.907,HF_wild_card,2022.2.4,Win32,60.15399423,5fc63e053cf83c06341ac94a,64d2fd46c836a06233681665,64dc7d1e5664ea86cae1fcca,,,,,,,decisionTrl,resources/DP.BMP,resources/DBN.BMP,Door1,-0.364814794,-0.024074095,1,0,0,2.0672,optionLeft,30,6540,3,33,0,33,0,1,,,,,,,,,,,,,,,,,,,,,,,,,,,,,,,,,,,,,,,
,,,,,,,,2023-08-16_08h39.28.907,HF_wild_card,2022.2.4,Win32,60.15399423,5fc63e053cf83c06341ac94a,64d2fd46c836a06233681665,64dc7d1e5664ea86cae1fcca,,,,,,,decisionTrl,resources/DBN.BMP,resources/DP.BMP,Door1,0.273148148,-0.010185206,1,0,0,1.5594,optionRight,30,6570,3,34,0,34,0,1,,,,,,,,,,,,,,,,,,,,,,,,,,,,,,,,,,,,,,,
,,,,,,,,2023-08-16_08h39.28.907,HF_wild_card,2022.2.4,Win32,60.15399423,5fc63e053cf83c06341ac94a,64d2fd46c836a06233681665,64dc7d1e5664ea86cae1fcca,,,,,,,ctch,resources/DBN.BMP,resources/DR.BMP,Door3,0.344444416,0.0074074,1,0,0,1.3132,optionRight,70,6640,3,35,0,35,0,1,,,,,,,,,,,,,,,,,,,,,,,,,,,,,,,,,,,,,,,
,,,,,,,,2023-08-16_08h39.28.907,HF_wild_card,2022.2.4,Win32,60.15399423,5fc63e053cf83c06341ac94a,64d2fd46c836a06233681665,64dc7d1e5664ea86cae1fcca,,,,,,,sngl,resources/Empty.png,resources/DG.BMP,Door4,0.368518547,0.029629637,1,0,0,1.0512,optionRight,60,6700,3,36,0,36,0,1,,,,,,,,,,,,,,,,,,,,,,,,,,,,,,,,,,,,,,,
,,,,,,,,2023-08-16_08h39.28.907,HF_wild_card,2022.2.4,Win32,60.15399423,5fc63e053cf83c06341ac94a,64d2fd46c836a06233681665,64dc7d1e5664ea86cae1fcca,,,,,,,decisionTrl,resources/DB.BMP,resources/DR.BMP,Door3,0.288888931,-0.000925947,1,0,0,2.2728,optionRight,70,6770,3,37,0,37,0,1,,,,,,,,,,,,,,,,,,,,,,,,,,,,,,,,,,,,,,,
,,,,,,,,2023-08-16_08h39.28.907,HF_wild_card,2022.2.4,Win32,60.15399423,5fc63e053cf83c06341ac94a,64d2fd46c836a06233681665,64dc7d1e5664ea86cae1fcca,,,,,,,decisionTrl,resources/DR.BMP,resources/DG.BMP,Door4,0.367592564,0.059259238,1,0,0,1.5816,optionRight,60,6830,3,38,0,38,0,1,,,,,,,,,,,,,,,,,,,,,,,,,,,,,,,,,,,,,,,
,,,,,,,,2023-08-16_08h39.28.907,HF_wild_card,2022.2.4,Win32,60.15399423,5fc63e053cf83c06341ac94a,64d2fd46c836a06233681665,64dc7d1e5664ea86cae1fcca,,,,,,,decisionTrl,resources/DR.BMP,resources/DG.BMP,Door3,-0.387962942,-0.026851866,1,0,0,1.0065,optionLeft,70,6900,3,39,0,39,0,1,,,,,,,,,,,,,,,,,,,,,,,,,,,,,,,,,,,,,,,
,,,,,,,,2023-08-16_08h39.28.907,HF_wild_card,2022.2.4,Win32,60.15399423,5fc63e053cf83c06341ac94a,64d2fd46c836a06233681665,64dc7d1e5664ea86cae1fcca,,,,,,,sngl,resources/DB.BMP,resources/Empty.png,WildCard_NonEx,-0.339814822,-0.008333347,1,0,0,1.1079,optionLeft,55,6955,3,40,0,40,0,1,,,,,,,,,,,,,,,,,,,,,,,,,,,,,,,,,,,,,,,
,,,,,,,,2023-08-16_08h39.28.907,HF_wild_card,2022.2.4,Win32,60.15399423,5fc63e053cf83c06341ac94a,64d2fd46c836a06233681665,64dc7d1e5664ea86cae1fcca,,,,,,,sngl,resources/Empty.png,resources/DP.BMP,Door1,0.257407436,0.033333319,1,0,0,1.0821,optionRight,30,6985,3,41,0,41,0,1,,,,,,,,,,,,,,,,,,,,,,,,,,,,,,,,,,,,,,,
,,,,,,,,2023-08-16_08h39.28.907,HF_wild_card,2022.2.4,Win32,60.15399423,5fc63e053cf83c06341ac94a,64d2fd46c836a06233681665,64dc7d1e5664ea86cae1fcca,,,,,,,ctch,resources/DP.BMP,resources/DG.BMP,Door4,0.256481524,0.037037037,1,0,0,1.4292,optionRight,80,7065,3,42,0,42,0,1,,,,,,,,,,,,,,,,,,,,,,,,,,,,,,,,,,,,,,,
,,,,,,,,2023-08-16_08h39.28.907,HF_wild_card,2022.2.4,Win32,60.15399423,5fc63e053cf83c06341ac94a,64d2fd46c836a06233681665,64dc7d1e5664ea86cae1fcca,,,,,,,decisionTrl,resources/DR.BMP,resources/DG.BMP,Door4,0.365740741,0.042592578,1,0,0,1.0626,optionRight,60,7125,3,43,0,43,0,1,,,,,,,,,,,,,,,,,,,,,,,,,,,,,,,,,,,,,,,
,,,,,,,,2023-08-16_08h39.28.907,HF_wild_card,2022.2.4,Win32,60.15399423,5fc63e053cf83c06341ac94a,64d2fd46c836a06233681665,64dc7d1e5664ea86cae1fcca,,,,,,,,,,,,,,,,,,,,,,,,,,2,0,2,0,1,,,,,,,,,,,,,,,,,,,,,,,,,,,,,,,,,,
,,,,,,,,2023-08-16_08h39.28.907,HF_wild_card,2022.2.4,Win32,60.15399423,5fc63e053cf83c06341ac94a,64d2fd46c836a06233681665,64dc7d1e5664ea86cae1fcca,,,,,,,decisionTrl,resources/DY.BMP,resources/DBN.BMP,WildCard_Ex,-0.266666624,-0.140740783,1,0,0,2.114,optionLeft,5,7130,4,0,0,0,0,1,,,,,,,,,,,,,,,,,,,,,,,,,,,,,,,,,,,,,,,
,,,,,,,,2023-08-16_08h39.28.907,HF_wild_card,2022.2.4,Win32,60.15399423,5fc63e053cf83c06341ac94a,64d2fd46c836a06233681665,64dc7d1e5664ea86cae1fcca,,,,,,,decisionTrl,resources/DG.BMP,resources/DY.BMP,Door4,-0.371296282,0.005555541,1,0,0,1.3091,optionLeft,60,7190,4,1,0,1,0,1,,,,,,,,,,,,,,,,,,,,,,,,,,,,,,,,,,,,,,,
,,,,,,,,2023-08-16_08h39.28.907,HF_wild_card,2022.2.4,Win32,60.15399423,5fc63e053cf83c06341ac94a,64d2fd46c836a06233681665,64dc7d1e5664ea86cae1fcca,,,,,,,decisionTrl,resources/DBN.BMP,resources/DP.BMP,Door1,0.262037065,0.051851838,1,0,0,1.4205,optionRight,30,7220,4,2,0,2,0,1,,,,,,,,,,,,,,,,,,,,,,,,,,,,,,,,,,,,,,,
,,,,,,,,2023-08-16_08h39.28.907,HF_wild_card,2022.2.4,Win32,60.15399423,5fc63e053cf83c06341ac94a,64d2fd46c836a06233681665,64dc7d1e5664ea86cae1fcca,,,,,,,decisionTrl,resources/DP.BMP,resources/DY.BMP,Door1,-0.259259259,0.000925912,1,0,0,1.4225,optionLeft,30,7250,4,3,0,3,0,1,,,,,,,,,,,,,,,,,,,,,,,,,,,,,,,,,,,,,,,
,,,,,,,,2023-08-16_08h39.28.907,HF_wild_card,2022.2.4,Win32,60.15399423,5fc63e053cf83c06341ac94a,64d2fd46c836a06233681665,64dc7d1e5664ea86cae1fcca,,,,,,,sngl,resources/Empty.png,resources/DG.BMP,Door4,0.250925912,-0.00462963,1,0,0,1.0659,optionRight,80,7330,4,4,0,4,0,1,,,,,,,,,,,,,,,,,,,,,,,,,,,,,,,,,,,,,,,
,,,,,,,,2023-08-16_08h39.28.907,HF_wild_card,2022.2.4,Win32,60.15399423,5fc63e053cf83c06341ac94a,64d2fd46c836a06233681665,64dc7d1e5664ea86cae1fcca,,,,,,,sngl,resources/DR.BMP,resources/Empty.png,Door3,-0.335185192,-0.050000014,1,0,0,1.107,optionLeft,70,7400,4,5,0,5,0,1,,,,,,,,,,,,,,,,,,,,,,,,,,,,,,,,,,,,,,,
,,,,,,,,2023-08-16_08h39.28.907,HF_wild_card,2022.2.4,Win32,60.15399423,5fc63e053cf83c06341ac94a,64d2fd46c836a06233681665,64dc7d1e5664ea86cae1fcca,,,,,,,decisionTrl,resources/DG.BMP,resources/DR.BMP,Door4,-0.400000007,-0.029629637,1,0,0,1.256,optionLeft,80,7480,4,6,0,6,0,1,,,,,,,,,,,,,,,,,,,,,,,,,,,,,,,,,,,,,,,
,,,,,,,,2023-08-16_08h39.28.907,HF_wild_card,2022.2.4,Win32,60.15399423,5fc63e053cf83c06341ac94a,64d2fd46c836a06233681665,64dc7d1e5664ea86cae1fcca,,,,,,,ctch,resources/DR.BMP,resources/DBN.BMP,Door3,-0.314814815,-0.046296296,1,0,0,1.431,optionLeft,70,7550,4,7,0,7,0,1,,,,,,,,,,,,,,,,,,,,,,,,,,,,,,,,,,,,,,,
,,,,,,,,2023-08-16_08h39.28.907,HF_wild_card,2022.2.4,Win32,60.15399423,5fc63e053cf83c06341ac94a,64d2fd46c836a06233681665,64dc7d1e5664ea86cae1fcca,,,,,,,sngl,resources/Empty.png,resources/DBN.BMP,Door2,0.330555527,0.054629608,1,0,0,1.0963,optionRight,40,7590,4,8,0,8,0,1,,,,,,,,,,,,,,,,,,,,,,,,,,,,,,,,,,,,,,,
,,,,,,,,2023-08-16_08h39.28.907,HF_wild_card,2022.2.4,Win32,60.15399423,5fc63e053cf83c06341ac94a,64d2fd46c836a06233681665,64dc7d1e5664ea86cae1fcca,,,,,,,sngl,resources/DY.BMP,resources/Empty.png,WildCard_Ex,-0.333333333,0,1,0,0,1.1483,optionLeft,5,7595,4,9,0,9,0,1,,,,,,,,,,,,,,,,,,,,,,,,,,,,,,,,,,,,,,,
,,,,,,,,2023-08-16_08h39.28.907,HF_wild_card,2022.2.4,Win32,60.15399423,5fc63e053cf83c06341ac94a,64d2fd46c836a06233681665,64dc7d1e5664ea86cae1fcca,,,,,,,decisionTrl,resources/DP.BMP,resources/DBN.BMP,Door2,0.342592593,0.039814808,1,0,0,2.1363,optionRight,40,7635,4,10,0,10,0,1,,,,,,,,,,,,,,,,,,,,,,,,,,,,,,,,,,,,,,,
,,,,,,,,2023-08-16_08h39.28.907,HF_wild_card,2022.2.4,Win32,60.15399423,5fc63e053cf83c06341ac94a,64d2fd46c836a06233681665,64dc7d1e5664ea86cae1fcca,,,,,,,decisionTrl,resources/DBN.BMP,resources/DP.BMP,Door2,-0.330555563,-0.00462963,1,0,0,1.8727,optionLeft,20,7655,4,11,0,11,0,1,,,,,,,,,,,,,,,,,,,,,,,,,,,,,,,,,,,,,,,
,,,,,,,,2023-08-16_08h39.28.907,HF_wild_card,2022.2.4,Win32,60.15399423,5fc63e053cf83c06341ac94a,64d2fd46c836a06233681665,64dc7d1e5664ea86cae1fcca,,,,,,,ctch,resources/DR.BMP,resources/DBN.BMP,Door3,-0.346296275,-0.000925947,1,0,0,1.2043,optionLeft,70,7725,4,12,0,12,0,1,,,,,,,,,,,,,,,,,,,,,,,,,,,,,,,,,,,,,,,
,,,,,,,,2023-08-16_08h39.28.907,HF_wild_card,2022.2.4,Win32,60.15399423,5fc63e053cf83c06341ac94a,64d2fd46c836a06233681665,64dc7d1e5664ea86cae1fcca,,,,,,,decisionTrl,resources/DR.BMP,resources/DG.BMP,Door3,-0.302777785,-0.01666666,1,0,0,2.7977,optionLeft,70,7795,4,13,0,13,0,1,,,,,,,,,,,,,,,,,,,,,,,,,,,,,,,,,,,,,,,
,,,,,,,,2023-08-16_08h39.28.907,HF_wild_card,2022.2.4,Win32,60.15399423,5fc63e053cf83c06341ac94a,64d2fd46c836a06233681665,64dc7d1e5664ea86cae1fcca,,,,,,,ctch,resources/DG.BMP,resources/DP.BMP,Door4,-0.299999979,-0.025925919,1,0,0,1.223,optionLeft,60,7855,4,14,0,14,0,1,,,,,,,,,,,,,,,,,,,,,,,,,,,,,,,,,,,,,,,
,,,,,,,,2023-08-16_08h39.28.907,HF_wild_card,2022.2.4,Win32,60.15399423,5fc63e053cf83c06341ac94a,64d2fd46c836a06233681665,64dc7d1e5664ea86cae1fcca,,,,,,,sngl,resources/DBN.BMP,resources/Empty.png,Door2,-0.300925926,0.01203703,1,0,0,1.383,optionLeft,20,7875,4,15,0,15,0,1,,,,,,,,,,,,,,,,,,,,,,,,,,,,,,,,,,,,,,,
,,,,,,,,2023-08-16_08h39.28.907,HF_wild_card,2022.2.4,Win32,60.15399423,5fc63e053cf83c06341ac94a,64d2fd46c836a06233681665,64dc7d1e5664ea86cae1fcca,,,,,,,decisionTrl,resources/DBN.BMP,resources/DP.BMP,Door2,-0.265740712,0.010185171,1,0,0,5.2982,optionLeft,20,7895,4,16,0,16,0,1,,,,,,,,,,,,,,,,,,,,,,,,,,,,,,,,,,,,,,,
,,,,,,,,2023-08-16_08h39.28.907,HF_wild_card,2022.2.4,Win32,60.15399423,5fc63e053cf83c06341ac94a,64d2fd46c836a06233681665,64dc7d1e5664ea86cae1fcca,,,,,,,sngl,resources/Empty.png,resources/DY.BMP,WildCard_Ex,0.301851908,0.015740748,1,0,0,1.0284,optionRight,5,7900,4,17,0,17,0,1,,,,,,,,,,,,,,,,,,,,,,,,,,,,,,,,,,,,,,,
,,,,,,,,2023-08-16_08h39.28.907,HF_wild_card,2022.2.4,Win32,60.15399423,5fc63e053cf83c06341ac94a,64d2fd46c836a06233681665,64dc7d1e5664ea86cae1fcca,,,,,,,decisionTrl,resources/DR.BMP,resources/DG.BMP,Door4,0.286111125,0.056481467,1,0,0,2.7793,optionRight,60,7960,4,18,0,18,0,1,,,,,,,,,,,,,,,,,,,,,,,,,,,,,,,,,,,,,,,
,,,,,,,,2023-08-16_08h39.28.907,HF_wild_card,2022.2.4,Win32,60.15399423,5fc63e053cf83c06341ac94a,64d2fd46c836a06233681665,64dc7d1e5664ea86cae1fcca,,,,,,,sngl,resources/Empty.png,resources/DP.BMP,Door1,0.30277775,0.006481489,1,0,0,1.0972,optionRight,30,7990,4,19,0,19,0,1,,,,,,,,,,,,,,,,,,,,,,,,,,,,,,,,,,,,,,,
,,,,,,,,2023-08-16_08h39.28.907,HF_wild_card,2022.2.4,Win32,60.15399423,5fc63e053cf83c06341ac94a,64d2fd46c836a06233681665,64dc7d1e5664ea86cae1fcca,,,,,,,ctch,resources/DP.BMP,resources/DG.BMP,Door4,0.233333376,0.02407406,1,0,0,2.1236,optionRight,80,8070,4,20,0,20,0,1,,,,,,,,,,,,,,,,,,,,,,,,,,,,,,,,,,,,,,,
,,,,,,,,2023-08-16_08h39.28.907,HF_wild_card,2022.2.4,Win32,60.15399423,5fc63e053cf83c06341ac94a,64d2fd46c836a06233681665,64dc7d1e5664ea86cae1fcca,,,,,,,ctch,resources/DP.BMP,resources/DG.BMP,Door4,0.281481496,0.023148148,1,0,0,1.0251,optionRight,80,8150,4,21,0,21,0,1,,,,,,,,,,,,,,,,,,,,,,,,,,,,,,,,,,,,,,,
,,,,,,,,2023-08-16_08h39.28.907,HF_wild_card,2022.2.4,Win32,60.15399423,5fc63e053cf83c06341ac94a,64d2fd46c836a06233681665,64dc7d1e5664ea86cae1fcca,,,,,,,sngl,resources/DG.BMP,resources/Empty.png,Door4,-0.338888875,0.00462963,1,0,0,1.1079,optionLeft,60,8210,4,22,0,22,0,1,,,,,,,,,,,,,,,,,,,,,,,,,,,,,,,,,,,,,,,
,,,,,,,,2023-08-16_08h39.28.907,HF_wild_card,2022.2.4,Win32,60.15399423,5fc63e053cf83c06341ac94a,64d2fd46c836a06233681665,64dc7d1e5664ea86cae1fcca,,,,,,,sngl,resources/DY.BMP,resources/Empty.png,WildCard_Ex,-0.356481481,-0.073148162,1,0,0,1.1614,optionLeft,95,8305,4,23,0,23,0,1,,,,,,,,,,,,,,,,,,,,,,,,,,,,,,,,,,,,,,,
,,,,,,,,2023-08-16_08h39.28.907,HF_wild_card,2022.2.4,Win32,60.15399423,5fc63e053cf83c06341ac94a,64d2fd46c836a06233681665,64dc7d1e5664ea86cae1fcca,,,,,,,decisionTrl,resources/DP.BMP,resources/DBN.BMP,Door1,-0.337962963,-0.039814808,1,0,0,10.3131,optionLeft,30,8335,4,24,0,24,0,1,,,,,,,,,,,,,,,,,,,,,,,,,,,,,,,,,,,,,,,
,,,,,,,,2023-08-16_08h39.28.907,HF_wild_card,2022.2.4,Win32,60.15399423,5fc63e053cf83c06341ac94a,64d2fd46c836a06233681665,64dc7d1e5664ea86cae1fcca,,,,,,,decisionTrl,resources/DG.BMP,resources/DR.BMP,Door4,-0.329629616,0.014814801,1,0,0,3.0056,optionLeft,80,8415,4,25,0,25,0,1,,,,,,,,,,,,,,,,,,,,,,,,,,,,,,,,,,,,,,,
,,,,,,,,2023-08-16_08h39.28.907,HF_wild_card,2022.2.4,Win32,60.15399423,5fc63e053cf83c06341ac94a,64d2fd46c836a06233681665,64dc7d1e5664ea86cae1fcca,,,,,,,ctch,resources/DBN.BMP,resources/DR.BMP,Door3,0.42314812,-0.005555577,1,0,0,1.2623,optionRight,70,8485,4,26,0,26,0,1,,,,,,,,,,,,,,,,,,,,,,,,,,,,,,,,,,,,,,,
,,,,,,,,2023-08-16_08h39.28.907,HF_wild_card,2022.2.4,Win32,60.15399423,5fc63e053cf83c06341ac94a,64d2fd46c836a06233681665,64dc7d1e5664ea86cae1fcca,,,,,,,decisionTrl,resources/DY.BMP,resources/DP.BMP,WildCard_Ex,-0.240740741,0.017592571,1,0,0,5.7901,optionLeft,5,8490,4,27,0,27,0,1,,,,,,,,,,,,,,,,,,,,,,,,,,,,,,,,,,,,,,,
,,,,,,,,2023-08-16_08h39.28.907,HF_wild_card,2022.2.4,Win32,60.15399423,5fc63e053cf83c06341ac94a,64d2fd46c836a06233681665,64dc7d1e5664ea86cae1fcca,,,,,,,decisionTrl,resources/DR.BMP,resources/DG.BMP,Door3,-0.35833334,-0.041666667,1,0,0,2.5185,optionLeft,70,8560,4,28,0,28,0,1,,,,,,,,,,,,,,,,,,,,,,,,,,,,,,,,,,,,,,,
,,,,,,,,2023-08-16_08h39.28.907,HF_wild_card,2022.2.4,Win32,60.15399423,5fc63e053cf83c06341ac94a,64d2fd46c836a06233681665,64dc7d1e5664ea86cae1fcca,,,,,,,decisionTrl,resources/DBN.BMP,resources/DP.BMP,Door2,-0.363888882,0.034259266,1,0,0,2.333,optionLeft,40,8600,4,29,0,29,0,1,,,,,,,,,,,,,,,,,,,,,,,,,,,,,,,,,,,,,,,
,,,,,,,,2023-08-16_08h39.28.907,HF_wild_card,2022.2.4,Win32,60.15399423,5fc63e053cf83c06341ac94a,64d2fd46c836a06233681665,64dc7d1e5664ea86cae1fcca,,,,,,,decisionTrl,resources/DY.BMP,resources/DR.BMP,Door3,0.293518561,0.03148146,1,0,0,1.7014,optionRight,70,8670,4,30,0,30,0,1,,,,,,,,,,,,,,,,,,,,,,,,,,,,,,,,,,,,,,,
,,,,,,,,2023-08-16_08h39.28.907,HF_wild_card,2022.2.4,Win32,60.15399423,5fc63e053cf83c06341ac94a,64d2fd46c836a06233681665,64dc7d1e5664ea86cae1fcca,,,,,,,decisionTrl,resources/DBN.BMP,resources/DY.BMP,WildCard_Ex,0.265740783,0.087962963,1,0,0,2.7284,optionRight,95,8765,4,31,0,31,0,1,,,,,,,,,,,,,,,,,,,,,,,,,,,,,,,,,,,,,,,
,,,,,,,,2023-08-16_08h39.28.907,HF_wild_card,2022.2.4,Win32,60.15399423,5fc63e053cf83c06341ac94a,64d2fd46c836a06233681665,64dc7d1e5664ea86cae1fcca,,,,,,,ctch,resources/DG.BMP,resources/DP.BMP,Door4,-0.355555534,0.01944443,1,0,0,2.2897,optionLeft,60,8825,4,32,0,32,0,1,,,,,,,,,,,,,,,,,,,,,,,,,,,,,,,,,,,,,,,
,,,,,,,,2023-08-16_08h39.28.907,HF_wild_card,2022.2.4,Win32,60.15399423,5fc63e053cf83c06341ac94a,64d2fd46c836a06233681665,64dc7d1e5664ea86cae1fcca,,,,,,,sngl,resources/DP.BMP,resources/Empty.png,Door1,-0.376851859,-0.037962984,1,0,0,1.1992,optionLeft,30,8855,4,33,0,33,0,1,,,,,,,,,,,,,,,,,,,,,,,,,,,,,,,,,,,,,,,
,,,,,,,,2023-08-16_08h39.28.907,HF_wild_card,2022.2.4,Win32,60.15399423,5fc63e053cf83c06341ac94a,64d2fd46c836a06233681665,64dc7d1e5664ea86cae1fcca,,,,,,,decisionTrl,resources/DY.BMP,resources/DG.BMP,Door4,0.287962949,0.064814815,1,0,0,1.5472,optionRight,60,8915,4,34,0,34,0,1,,,,,,,,,,,,,,,,,,,,,,,,,,,,,,,,,,,,,,,
,,,,,,,,2023-08-16_08h39.28.907,HF_wild_card,2022.2.4,Win32,60.15399423,5fc63e053cf83c06341ac94a,64d2fd46c836a06233681665,64dc7d1e5664ea86cae1fcca,,,,,,,decisionTrl,resources/DP.BMP,resources/DBN.BMP,Door1,-0.289814772,-0.010185206,1,0,0,2.282,optionLeft,30,8945,4,35,0,35,0,1,,,,,,,,,,,,,,,,,,,,,,,,,,,,,,,,,,,,,,,
,,,,,,,,2023-08-16_08h39.28.907,HF_wild_card,2022.2.4,Win32,60.15399423,5fc63e053cf83c06341ac94a,64d2fd46c836a06233681665,64dc7d1e5664ea86cae1fcca,,,,,,,decisionTrl,resources/DP.BMP,resources/DBN.BMP,Door2,0.295370384,0.04074072,1,0,0,1.78,optionRight,20,8965,4,36,0,36,0,1,,,,,,,,,,,,,,,,,,,,,,,,,,,,,,,,,,,,,,,
,,,,,,,,2023-08-16_08h39.28.907,HF_wild_card,2022.2.4,Win32,60.15399423,5fc63e053cf83c06341ac94a,64d2fd46c836a06233681665,64dc7d1e5664ea86cae1fcca,,,,,,,decisionTrl,resources/DG.BMP,resources/DR.BMP,Door4,-0.362037023,0.021296289,1,0,0,1.5649,optionLeft,60,9025,4,37,0,37,0,1,,,,,,,,,,,,,,,,,,,,,,,,,,,,,,,,,,,,,,,
,,,,,,,,2023-08-16_08h39.28.907,HF_wild_card,2022.2.4,Win32,60.15399423,5fc63e053cf83c06341ac94a,64d2fd46c836a06233681665,64dc7d1e5664ea86cae1fcca,,,,,,,decisionTrl,resources/DG.BMP,resources/DR.BMP,Door3,0.351851852,0.106481481,1,0,0,1.0331,optionRight,70,9095,4,38,0,38,0,1,,,,,,,,,,,,,,,,,,,,,,,,,,,,,,,,,,,,,,,
,,,,,,,,2023-08-16_08h39.28.907,HF_wild_card,2022.2.4,Win32,60.15399423,5fc63e053cf83c06341ac94a,64d2fd46c836a06233681665,64dc7d1e5664ea86cae1fcca,,,,,,,sngl,resources/Empty.png,resources/DY.BMP,WildCard_Ex,0.306481538,0.082407386,1,0,0,1.2242,optionRight,95,9190,4,39,0,39,0,1,,,,,,,,,,,,,,,,,,,,,,,,,,,,,,,,,,,,,,,
,,,,,,,,2023-08-16_08h39.28.907,HF_wild_card,2022.2.4,Win32,60.15399423,5fc63e053cf83c06341ac94a,64d2fd46c836a06233681665,64dc7d1e5664ea86cae1fcca,,,,,,,ctch,resources/DBN.BMP,resources/DR.BMP,Door3,0.358333305,0.058333326,1,0,0,2.3049,optionRight,70,9260,4,40,0,40,0,1,,,,,,,,,,,,,,,,,,,,,,,,,,,,,,,,,,,,,,,
,,,,,,,,2023-08-16_08h39.28.907,HF_wild_card,2022.2.4,Win32,60.15399423,5fc63e053cf83c06341ac94a,64d2fd46c836a06233681665,64dc7d1e5664ea86cae1fcca,,,,,,,decisionTrl,resources/DR.BMP,resources/DY.BMP,Door3,-0.326851845,0.003703683,1,0,0,1.9522,optionLeft,70,9330,4,41,0,41,0,1,,,,,,,,,,,,,,,,,,,,,,,,,,,,,,,,,,,,,,,
,,,,,,,,2023-08-16_08h39.28.907,HF_wild_card,2022.2.4,Win32,60.15399423,5fc63e053cf83c06341ac94a,64d2fd46c836a06233681665,64dc7d1e5664ea86cae1fcca,,,,,,,sngl,resources/Empty.png,resources/DR.BMP,Door3,0.392592677,0.062037044,1,0,0,0.9739,optionRight,70,9400,4,42,0,42,0,1,,,,,,,,,,,,,,,,,,,,,,,,,,,,,,,,,,,,,,,
,,,,,,,,2023-08-16_08h39.28.907,HF_wild_card,2022.2.4,Win32,60.15399423,5fc63e053cf83c06341ac94a,64d2fd46c836a06233681665,64dc7d1e5664ea86cae1fcca,,,,,,,decisionTrl,resources/DR.BMP,resources/DG.BMP,Door4,0.204629616,0.081481474,1,0,0,2.3718,optionRight,60,9460,4,43,0,43,0,1,,,,,,,,,,,,,,,,,,,,,,,,,,,,,,,,,,,,,,,
,,,,,,,,2023-08-16_08h39.28.907,HF_wild_card,2022.2.4,Win32,60.15399423,5fc63e053cf83c06341ac94a,64d2fd46c836a06233681665,64dc7d1e5664ea86cae1fcca,,,,,,,,,,,,,,,,,,,,,,,,,,3,0,3,0,1,,,,,,,,,,,,,,,,,,,,,,,,,,,,,,,,,,
,,,,,,,,2023-08-16_08h39.28.907,HF_wild_card,2022.2.4,Win32,60.15399423,5fc63e053cf83c06341ac94a,64d2fd46c836a06233681665,64dc7d1e5664ea86cae1fcca,,,,,,,decisionTrl,resources/DG.BMP,resources/DR.BMP,Door4,-0.340740734,-0.080555563,1,0,0,4.254,optionLeft,60,9520,5,0,0,0,0,1,,,,,,,,,,,,,,,,,,,,,,,,,,,,,,,,,,,,,,,
,,,,,,,,2023-08-16_08h39.28.907,HF_wild_card,2022.2.4,Win32,60.15399423,5fc63e053cf83c06341ac94a,64d2fd46c836a06233681665,64dc7d1e5664ea86cae1fcca,,,,,,,ctch,resources/DP.BMP,resources/DG.BMP,Door4,0.380555612,0.070370356,1,0,0,1.8209,optionRight,60,9580,5,1,0,1,0,1,,,,,,,,,,,,,,,,,,,,,,,,,,,,,,,,,,,,,,,
,,,,,,,,2023-08-16_08h39.28.907,HF_wild_card,2022.2.4,Win32,60.15399423,5fc63e053cf83c06341ac94a,64d2fd46c836a06233681665,64dc7d1e5664ea86cae1fcca,,,,,,,decisionTrl,resources/DR.BMP,resources/DG.BMP,Door3,-0.396296289,0.01944443,1,0,0,1.3286,optionLeft,70,9650,5,2,0,2,0,1,,,,,,,,,,,,,,,,,,,,,,,,,,,,,,,,,,,,,,,
,,,,,,,,2023-08-16_08h39.28.907,HF_wild_card,2022.2.4,Win32,60.15399423,5fc63e053cf83c06341ac94a,64d2fd46c836a06233681665,64dc7d1e5664ea86cae1fcca,,,,,,,sngl,resources/DY.BMP,resources/Empty.png,WildCard_Ex,-0.3675926,-0.005555577,1,0,0,1.2577,optionLeft,5,9655,5,3,0,3,0,1,,,,,,,,,,,,,,,,,,,,,,,,,,,,,,,,,,,,,,,
,,,,,,,,2023-08-16_08h39.28.907,HF_wild_card,2022.2.4,Win32,60.15399423,5fc63e053cf83c06341ac94a,64d2fd46c836a06233681665,64dc7d1e5664ea86cae1fcca,,,,,,,decisionTrl,resources/DY.BMP,resources/DBN.BMP,WildCard_Ex,-0.364814794,0.01203703,1,0,0,2.1136,optionLeft,95,9750,5,4,0,4,0,1,,,,,,,,,,,,,,,,,,,,,,,,,,,,,,,,,,,,,,,
,,,,,,,,2023-08-16_08h39.28.907,HF_wild_card,2022.2.4,Win32,60.15399423,5fc63e053cf83c06341ac94a,64d2fd46c836a06233681665,64dc7d1e5664ea86cae1fcca,,,,,,,decisionTrl,resources/DP.BMP,resources/DBN.BMP,Door1,-0.249074088,-0.002777771,1,0,0,2.8033,optionLeft,30,9780,5,5,0,5,0,1,,,,,,,,,,,,,,,,,,,,,,,,,,,,,,,,,,,,,,,
,,,,,,,,2023-08-16_08h39.28.907,HF_wild_card,2022.2.4,Win32,60.15399423,5fc63e053cf83c06341ac94a,64d2fd46c836a06233681665,64dc7d1e5664ea86cae1fcca,,,,,,,sngl,resources/DR.BMP,resources/Empty.png,Door3,-0.363888882,-0.033333355,1,0,0,1.0487,optionLeft,70,9850,5,6,0,6,0,1,,,,,,,,,,,,,,,,,,,,,,,,,,,,,,,,,,,,,,,
,,,,,,,,2023-08-16_08h39.28.907,HF_wild_card,2022.2.4,Win32,60.15399423,5fc63e053cf83c06341ac94a,64d2fd46c836a06233681665,64dc7d1e5664ea86cae1fcca,,,,,,,decisionTrl,resources/DBN.BMP,resources/DP.BMP,Door1,0.265740783,0.025925919,1,0,0,2.4842,optionRight,30,9880,5,7,0,7,0,1,,,,,,,,,,,,,,,,,,,,,,,,,,,,,,,,,,,,,,,
,,,,,,,,2023-08-16_08h39.28.907,HF_wild_card,2022.2.4,Win32,60.15399423,5fc63e053cf83c06341ac94a,64d2fd46c836a06233681665,64dc7d1e5664ea86cae1fcca,,,,,,,sngl,resources/DP.BMP,resources/Empty.png,Door1,-0.298148155,0.003703683,1,0,0,1.1005,optionLeft,30,9910,5,8,0,8,0,1,,,,,,,,,,,,,,,,,,,,,,,,,,,,,,,,,,,,,,,
,,,,,,,,2023-08-16_08h39.28.907,HF_wild_card,2022.2.4,Win32,60.15399423,5fc63e053cf83c06341ac94a,64d2fd46c836a06233681665,64dc7d1e5664ea86cae1fcca,,,,,,,sngl,resources/Empty.png,resources/DBN.BMP,Door2,0.32685188,0.049999979,1,0,0,0.9817,optionRight,20,9930,5,9,0,9,0,1,,,,,,,,,,,,,,,,,,,,,,,,,,,,,,,,,,,,,,,
,,,,,,,,2023-08-16_08h39.28.907,HF_wild_card,2022.2.4,Win32,60.15399423,5fc63e053cf83c06341ac94a,64d2fd46c836a06233681665,64dc7d1e5664ea86cae1fcca,,,,,,,sngl,resources/DG.BMP,resources/Empty.png,Door4,-0.321296303,-0.011111118,1,0,0,1.0977,optionLeft,80,10010,5,10,0,10,0,1,,,,,,,,,,,,,,,,,,,,,,,,,,,,,,,,,,,,,,,
,,,,,,,,2023-08-16_08h39.28.907,HF_wild_card,2022.2.4,Win32,60.15399423,5fc63e053cf83c06341ac94a,64d2fd46c836a06233681665,64dc7d1e5664ea86cae1fcca,,,,,,,decisionTrl,resources/DR.BMP,resources/DG.BMP,Door3,-0.250925912,0.002777771,1,0,0,1.8957,optionLeft,70,10080,5,11,0,11,0,1,,,,,,,,,,,,,,,,,,,,,,,,,,,,,,,,,,,,,,,
,,,,,,,,2023-08-16_08h39.28.907,HF_wild_card,2022.2.4,Win32,60.15399423,5fc63e053cf83c06341ac94a,64d2fd46c836a06233681665,64dc7d1e5664ea86cae1fcca,,,,,,,decisionTrl,resources/DP.BMP,resources/DBN.BMP,Door1,-0.398148148,-0.067592586,1,0,0,1.8761,optionLeft,30,10110,5,12,0,12,0,1,,,,,,,,,,,,,,,,,,,,,,,,,,,,,,,,,,,,,,,
,,,,,,,,2023-08-16_08h39.28.907,HF_wild_card,2022.2.4,Win32,60.15399423,5fc63e053cf83c06341ac94a,64d2fd46c836a06233681665,64dc7d1e5664ea86cae1fcca,,,,,,,sngl,resources/Empty.png,resources/DY.BMP,WildCard_Ex,0.373148176,0.027777778,1,0,0,0.9979,optionRight,95,10205,5,13,0,13,0,1,,,,,,,,,,,,,,,,,,,,,,,,,,,,,,,,,,,,,,,
,,,,,,,,2023-08-16_08h39.28.907,HF_wild_card,2022.2.4,Win32,60.15399423,5fc63e053cf83c06341ac94a,64d2fd46c836a06233681665,64dc7d1e5664ea86cae1fcca,,,,,,,sngl,resources/DY.BMP,resources/Empty.png,WildCard_Ex,-0.24537037,0.011111118,1,0,0,2.5569,optionLeft,95,10300,5,14,0,14,0,1,,,,,,,,,,,,,,,,,,,,,,,,,,,,,,,,,,,,,,,
,,,,,,,,2023-08-16_08h39.28.907,HF_wild_card,2022.2.4,Win32,60.15399423,5fc63e053cf83c06341ac94a,64d2fd46c836a06233681665,64dc7d1e5664ea86cae1fcca,,,,,,,decisionTrl,resources/DP.BMP,resources/DBN.BMP,Door2,0.335185157,0.021296289,1,0,0,2.3673,optionRight,20,10320,5,15,0,15,0,1,,,,,,,,,,,,,,,,,,,,,,,,,,,,,,,,,,,,,,,
,,,,,,,,2023-08-16_08h39.28.907,HF_wild_card,2022.2.4,Win32,60.15399423,5fc63e053cf83c06341ac94a,64d2fd46c836a06233681665,64dc7d1e5664ea86cae1fcca,,,,,,,decisionTrl,resources/DBN.BMP,resources/DY.BMP,WildCard_Ex,0.316666638,-0.006481489,1,0,0,3.1138,optionRight,5,10325,5,16,0,16,0,1,,,,,,,,,,,,,,,,,,,,,,,,,,,,,,,,,,,,,,,
,,,,,,,,2023-08-16_08h39.28.907,HF_wild_card,2022.2.4,Win32,60.15399423,5fc63e053cf83c06341ac94a,64d2fd46c836a06233681665,64dc7d1e5664ea86cae1fcca,,,,,,,ctch,resources/DP.BMP,resources/DG.BMP,Door4,0.26944443,0,1,0,0,2.0793,optionRight,80,10405,5,17,0,17,0,1,,,,,,,,,,,,,,,,,,,,,,,,,,,,,,,,,,,,,,,
,,,,,,,,2023-08-16_08h39.28.907,HF_wild_card,2022.2.4,Win32,60.15399423,5fc63e053cf83c06341ac94a,64d2fd46c836a06233681665,64dc7d1e5664ea86cae1fcca,,,,,,,decisionTrl,resources/DY.BMP,resources/DP.BMP,WildCard_Ex,-0.323148127,-0.020370377,1,0,0,2.6189,optionLeft,5,10410,5,18,0,18,0,1,,,,,,,,,,,,,,,,,,,,,,,,,,,,,,,,,,,,,,,
,,,,,,,,2023-08-16_08h39.28.907,HF_wild_card,2022.2.4,Win32,60.15399423,5fc63e053cf83c06341ac94a,64d2fd46c836a06233681665,64dc7d1e5664ea86cae1fcca,,,,,,,ctch,resources/DG.BMP,resources/DP.BMP,Door4,-0.288888861,-0.024074095,1,0,0,1.5599,optionLeft,60,10470,5,19,0,19,0,1,,,,,,,,,,,,,,,,,,,,,,,,,,,,,,,,,,,,,,,
,,,,,,,,2023-08-16_08h39.28.907,HF_wild_card,2022.2.4,Win32,60.15399423,5fc63e053cf83c06341ac94a,64d2fd46c836a06233681665,64dc7d1e5664ea86cae1fcca,,,,,,,ctch,resources/DBN.BMP,resources/DR.BMP,Door3,0.300000085,0.009259259,1,0,0,1.5222,optionRight,70,10540,5,20,0,20,0,1,,,,,,,,,,,,,,,,,,,,,,,,,,,,,,,,,,,,,,,
,,,,,,,,2023-08-16_08h39.28.907,HF_wild_card,2022.2.4,Win32,60.15399423,5fc63e053cf83c06341ac94a,64d2fd46c836a06233681665,64dc7d1e5664ea86cae1fcca,,,,,,,decisionTrl,resources/DG.BMP,resources/DR.BMP,Door3,0.246296282,0.02407406,1,0,0,1.2835,optionRight,70,10610,5,21,0,21,0,1,,,,,,,,,,,,,,,,,,,,,,,,,,,,,,,,,,,,,,,
,,,,,,,,2023-08-16_08h39.28.907,HF_wild_card,2022.2.4,Win32,60.15399423,5fc63e053cf83c06341ac94a,64d2fd46c836a06233681665,64dc7d1e5664ea86cae1fcca,,,,,,,decisionTrl,resources/DP.BMP,resources/DY.BMP,Door1,-0.308333326,-0.037037037,1,0,0,2.0614,optionLeft,30,10640,5,22,0,22,0,1,,,,,,,,,,,,,,,,,,,,,,,,,,,,,,,,,,,,,,,
,,,,,,,,2023-08-16_08h39.28.907,HF_wild_card,2022.2.4,Win32,60.15399423,5fc63e053cf83c06341ac94a,64d2fd46c836a06233681665,64dc7d1e5664ea86cae1fcca,,,,,,,decisionTrl,resources/DY.BMP,resources/DR.BMP,Door3,0.304629714,0.04074072,1,0,0,1.7423,optionRight,70,10710,5,23,0,23,0,1,,,,,,,,,,,,,,,,,,,,,,,,,,,,,,,,,,,,,,,
,,,,,,,,2023-08-16_08h39.28.907,HF_wild_card,2022.2.4,Win32,60.15399423,5fc63e053cf83c06341ac94a,64d2fd46c836a06233681665,64dc7d1e5664ea86cae1fcca,,,,,,,decisionTrl,resources/DR.BMP,resources/DG.BMP,Door3,-0.384259259,-0.045370384,1,0,0,1.4126,optionLeft,70,10780,5,24,0,24,0,1,,,,,,,,,,,,,,,,,,,,,,,,,,,,,,,,,,,,,,,
,,,,,,,,2023-08-16_08h39.28.907,HF_wild_card,2022.2.4,Win32,60.15399423,5fc63e053cf83c06341ac94a,64d2fd46c836a06233681665,64dc7d1e5664ea86cae1fcca,,,,,,,sngl,resources/Empty.png,resources/DG.BMP,Door4,0.37962963,0.02870369,1,0,0,0.9648,optionRight,60,10840,5,25,0,25,0,1,,,,,,,,,,,,,,,,,,,,,,,,,,,,,,,,,,,,,,,
,,,,,,,,2023-08-16_08h39.28.907,HF_wild_card,2022.2.4,Win32,60.15399423,5fc63e053cf83c06341ac94a,64d2fd46c836a06233681665,64dc7d1e5664ea86cae1fcca,,,,,,,decisionTrl,resources/DG.BMP,resources/DR.BMP,Door3,0.246296282,0.032407407,1,0,0,1.599,optionRight,70,10910,5,26,0,26,0,1,,,,,,,,,,,,,,,,,,,,,,,,,,,,,,,,,,,,,,,
,,,,,,,,2023-08-16_08h39.28.907,HF_wild_card,2022.2.4,Win32,60.15399423,5fc63e053cf83c06341ac94a,64d2fd46c836a06233681665,64dc7d1e5664ea86cae1fcca,,,,,,,ctch,resources/DR.BMP,resources/DBN.BMP,Door3,-0.365740741,-0.056481503,1,0,0,1.0132,optionLeft,70,10980,5,27,0,27,0,1,,,,,,,,,,,,,,,,,,,,,,,,,,,,,,,,,,,,,,,
,,,,,,,,2023-08-16_08h39.28.907,HF_wild_card,2022.2.4,Win32,60.15399423,5fc63e053cf83c06341ac94a,64d2fd46c836a06233681665,64dc7d1e5664ea86cae1fcca,,,,,,,ctch,resources/DR.BMP,resources/DBN.BMP,Door3,-0.270370342,-0.030555548,1,0,0,1.0628,optionLeft,70,11050,5,28,0,28,0,1,,,,,,,,,,,,,,,,,,,,,,,,,,,,,,,,,,,,,,,
,,,,,,,,2023-08-16_08h39.28.907,HF_wild_card,2022.2.4,Win32,60.15399423,5fc63e053cf83c06341ac94a,64d2fd46c836a06233681665,64dc7d1e5664ea86cae1fcca,,,,,,,decisionTrl,resources/DBN.BMP,resources/DP.BMP,Door1,0.325000057,0.03148146,1,0,0,2.0329,optionRight,30,11080,5,29,0,29,0,1,,,,,,,,,,,,,,,,,,,,,,,,,,,,,,,,,,,,,,,
,,,,,,,,2023-08-16_08h39.28.907,HF_wild_card,2022.2.4,Win32,60.15399423,5fc63e053cf83c06341ac94a,64d2fd46c836a06233681665,64dc7d1e5664ea86cae1fcca,,,,,,,sngl,resources/Empty.png,resources/DY.BMP,WildCard_Ex,0.238888917,-0.008333347,1,0,0,1,optionRight,5,11085,5,30,0,30,0,1,,,,,,,,,,,,,,,,,,,,,,,,,,,,,,,,,,,,,,,
,,,,,,,,2023-08-16_08h39.28.907,HF_wild_card,2022.2.4,Win32,60.15399423,5fc63e053cf83c06341ac94a,64d2fd46c836a06233681665,64dc7d1e5664ea86cae1fcca,,,,,,,decisionTrl,resources/DBN.BMP,resources/DP.BMP,Door1,0.244444459,-0.00462963,1,0,0,2.0473,optionRight,30,11115,5,31,0,31,0,1,,,,,,,,,,,,,,,,,,,,,,,,,,,,,,,,,,,,,,,
,,,,,,,,2023-08-16_08h39.28.907,HF_wild_card,2022.2.4,Win32,60.15399423,5fc63e053cf83c06341ac94a,64d2fd46c836a06233681665,64dc7d1e5664ea86cae1fcca,,,,,,,decisionTrl,resources/DP.BMP,resources/DBN.BMP,Door2,0.281481496,0.015740748,1,0,0,1.99,optionRight,20,11135,5,32,0,32,0,1,,,,,,,,,,,,,,,,,,,,,,,,,,,,,,,,,,,,,,,
,,,,,,,,2023-08-16_08h39.28.907,HF_wild_card,2022.2.4,Win32,60.15399423,5fc63e053cf83c06341ac94a,64d2fd46c836a06233681665,64dc7d1e5664ea86cae1fcca,,,,,,,sngl,resources/Empty.png,resources/DP.BMP,Door1,0.345370399,0.02870369,1,0,0,0.947,optionRight,30,11165,5,33,0,33,0,1,,,,,,,,,,,,,,,,,,,,,,,,,,,,,,,,,,,,,,,
,,,,,,,,2023-08-16_08h39.28.907,HF_wild_card,2022.2.4,Win32,60.15399423,5fc63e053cf83c06341ac94a,64d2fd46c836a06233681665,64dc7d1e5664ea86cae1fcca,,,,,,,ctch,resources/DBN.BMP,resources/DR.BMP,Door3,0.261111153,0.000925912,1,0,0,1.2685,optionRight,70,11235,5,34,0,34,0,1,,,,,,,,,,,,,,,,,,,,,,,,,,,,,,,,,,,,,,,
,,,,,,,,2023-08-16_08h39.28.907,HF_wild_card,2022.2.4,Win32,60.15399423,5fc63e053cf83c06341ac94a,64d2fd46c836a06233681665,64dc7d1e5664ea86cae1fcca,,,,,,,decisionTrl,resources/DG.BMP,resources/DY.BMP,Door4,-0.36296297,-0.077777792,1,0,0,1.3136,optionLeft,80,11315,5,35,0,35,0,1,,,,,,,,,,,,,,,,,,,,,,,,,,,,,,,,,,,,,,,
,,,,,,,,2023-08-16_08h39.28.907,HF_wild_card,2022.2.4,Win32,60.15399423,5fc63e053cf83c06341ac94a,64d2fd46c836a06233681665,64dc7d1e5664ea86cae1fcca,,,,,,,decisionTrl,resources/DR.BMP,resources/DY.BMP,Door3,-0.37962963,-0.037962984,1,0,0,1.3276,optionLeft,70,11385,5,36,0,36,0,1,,,,,,,,,,,,,,,,,,,,,,,,,,,,,,,,,,,,,,,
,,,,,,,,2023-08-16_08h39.28.907,HF_wild_card,2022.2.4,Win32,60.15399423,5fc63e053cf83c06341ac94a,64d2fd46c836a06233681665,64dc7d1e5664ea86cae1fcca,,,,,,,decisionTrl,resources/DG.BMP,resources/DR.BMP,Door3,0.267592607,0.030555548,1,0,0,2.7151,optionRight,70,11455,5,37,0,37,0,1,,,,,,,,,,,,,,,,,,,,,,,,,,,,,,,,,,,,,,,
,,,,,,,,2023-08-16_08h39.28.907,HF_wild_card,2022.2.4,Win32,60.15399423,5fc63e053cf83c06341ac94a,64d2fd46c836a06233681665,64dc7d1e5664ea86cae1fcca,,,,,,,sngl,resources/DBN.BMP,resources/Empty.png,Door2,-0.298148155,0.000925912,1,0,0,1.007,optionLeft,40,11495,5,38,0,38,0,1,,,,,,,,,,,,,,,,,,,,,,,,,,,,,,,,,,,,,,,
,,,,,,,,2023-08-16_08h39.28.907,HF_wild_card,2022.2.4,Win32,60.15399423,5fc63e053cf83c06341ac94a,64d2fd46c836a06233681665,64dc7d1e5664ea86cae1fcca,,,,,,,decisionTrl,resources/DR.BMP,resources/DG.BMP,Door3,-0.324074074,-0.025000007,1,0,0,1.8218,optionLeft,70,11565,5,39,0,39,0,1,,,,,,,,,,,,,,,,,,,,,,,,,,,,,,,,,,,,,,,
,,,,,,,,2023-08-16_08h39.28.907,HF_wild_card,2022.2.4,Win32,60.15399423,5fc63e053cf83c06341ac94a,64d2fd46c836a06233681665,64dc7d1e5664ea86cae1fcca,,,,,,,decisionTrl,resources/DBN.BMP,resources/DP.BMP,Door1,0.239814829,-0.018518519,1,0,0,1.7465,optionRight,30,11595,5,40,0,40,0,1,,,,,,,,,,,,,,,,,,,,,,,,,,,,,,,,,,,,,,,
,,,,,,,,2023-08-16_08h39.28.907,HF_wild_card,2022.2.4,Win32,60.15399423,5fc63e053cf83c06341ac94a,64d2fd46c836a06233681665,64dc7d1e5664ea86cae1fcca,,,,,,,decisionTrl,resources/DY.BMP,resources/DG.BMP,Door4,0.232407393,0.037037037,1,0,0,1.6317,optionRight,60,11655,5,41,0,41,0,1,,,,,,,,,,,,,,,,,,,,,,,,,,,,,,,,,,,,,,,
,,,,,,,,2023-08-16_08h39.28.907,HF_wild_card,2022.2.4,Win32,60.15399423,5fc63e053cf83c06341ac94a,64d2fd46c836a06233681665,64dc7d1e5664ea86cae1fcca,,,,,,,sngl,resources/Empty.png,resources/DR.BMP,Door3,0.328703704,0.017592571,1,0,0,0.9902,optionRight,70,11725,5,42,0,42,0,1,,,,,,,,,,,,,,,,,,,,,,,,,,,,,,,,,,,,,,,
,,,,,,,,2023-08-16_08h39.28.907,HF_wild_card,2022.2.4,Win32,60.15399423,5fc63e053cf83c06341ac94a,64d2fd46c836a06233681665,64dc7d1e5664ea86cae1fcca,,,,,,,ctch,resources/DG.BMP,resources/DP.BMP,Door4,-0.285185143,-0.005555577,1,0,0,1.6377,optionLeft,80,11805,5,43,0,43,0,1,,,,,,,,,,,,,,,,,,,,,,,,,,,,,,,,,,,,,,,
,,,,,,,,2023-08-16_08h39.28.907,HF_wild_card,2022.2.4,Win32,60.15399423,5fc63e053cf83c06341ac94a,64d2fd46c836a06233681665,64dc7d1e5664ea86cae1fcca,,,,,,,,,,,,,,,,,,,,,,,,,,4,0,4,0,1,,,,,,,,,,,,,,,,,,,,,,,,,,,,,,,,,,
,,,,,,,,2023-08-16_08h39.28.907,HF_wild_card,2022.2.4,Win32,60.15399423,5fc63e053cf83c06341ac94a,64d2fd46c836a06233681665,64dc7d1e5664ea86cae1fcca,,,,,,,decisionTrl,resources/DR.BMP,resources/DG.BMP,Door3,-0.345370363,-0.064814815,1,0,0,2.5677,optionLeft,70,11875,6,0,0,0,0,1,,,,,,,,,,,,,,,,,,,,,,,,,,,,,,,,,,,,,,,
,,,,,,,,2023-08-16_08h39.28.907,HF_wild_card,2022.2.4,Win32,60.15399423,5fc63e053cf83c06341ac94a,64d2fd46c836a06233681665,64dc7d1e5664ea86cae1fcca,,,,,,,decisionTrl,resources/DG.BMP,resources/DR.BMP,Door3,0.324074074,-0.050000014,1,0,0,1.4331,optionRight,70,11945,6,1,0,1,0,1,,,,,,,,,,,,,,,,,,,,,,,,,,,,,,,,,,,,,,,
,,,,,,,,2023-08-16_08h39.28.907,HF_wild_card,2022.2.4,Win32,60.15399423,5fc63e053cf83c06341ac94a,64d2fd46c836a06233681665,64dc7d1e5664ea86cae1fcca,,,,,,,decisionTrl,resources/DG.BMP,resources/DY.BMP,Door4,-0.303703697,0.00462963,1,0,0,2.2363,optionLeft,60,12005,6,2,0,2,0,1,,,,,,,,,,,,,,,,,,,,,,,,,,,,,,,,,,,,,,,
,,,,,,,,2023-08-16_08h39.28.907,HF_wild_card,2022.2.4,Win32,60.15399423,5fc63e053cf83c06341ac94a,64d2fd46c836a06233681665,64dc7d1e5664ea86cae1fcca,,,,,,,decisionTrl,resources/DBN.BMP,resources/DP.BMP,Door1,0.243518547,0.006481489,1,0,0,2.0027,optionRight,30,12035,6,3,0,3,0,1,,,,,,,,,,,,,,,,,,,,,,,,,,,,,,,,,,,,,,,
,,,,,,,,2023-08-16_08h39.28.907,HF_wild_card,2022.2.4,Win32,60.15399423,5fc63e053cf83c06341ac94a,64d2fd46c836a06233681665,64dc7d1e5664ea86cae1fcca,,,,,,,decisionTrl,resources/DP.BMP,resources/DBN.BMP,Door2,0.321296268,0.018518519,1,0,0,1.5006,optionRight,40,12075,6,4,0,4,0,1,,,,,,,,,,,,,,,,,,,,,,,,,,,,,,,,,,,,,,,
,,,,,,,,2023-08-16_08h39.28.907,HF_wild_card,2022.2.4,Win32,60.15399423,5fc63e053cf83c06341ac94a,64d2fd46c836a06233681665,64dc7d1e5664ea86cae1fcca,,,,,,,decisionTrl,resources/DY.BMP,resources/DP.BMP,WildCard_Ex,-0.298148155,0.003703683,1,0,0,5.2983,optionLeft,5,12080,6,5,0,5,0,1,,,,,,,,,,,,,,,,,,,,,,,,,,,,,,,,,,,,,,,
,,,,,,,,2023-08-16_08h39.28.907,HF_wild_card,2022.2.4,Win32,60.15399423,5fc63e053cf83c06341ac94a,64d2fd46c836a06233681665,64dc7d1e5664ea86cae1fcca,,,,,,,decisionTrl,resources/DR.BMP,resources/DG.BMP,Door3,-0.337962963,-0.014814836,1,0,0,2.2034,optionLeft,70,12150,6,6,0,6,0,1,,,,,,,,,,,,,,,,,,,,,,,,,,,,,,,,,,,,,,,
,,,,,,,,2023-08-16_08h39.28.907,HF_wild_card,2022.2.4,Win32,60.15399423,5fc63e053cf83c06341ac94a,64d2fd46c836a06233681665,64dc7d1e5664ea86cae1fcca,,,,,,,decisionTrl,resources/DY.BMP,resources/DR.BMP,Door3,0.32222225,-0.0074074,1,0,0,1.5571,optionRight,70,12220,6,7,0,7,0,1,,,,,,,,,,,,,,,,,,,,,,,,,,,,,,,,,,,,,,,
,,,,,,,,2023-08-16_08h39.28.907,HF_wild_card,2022.2.4,Win32,60.15399423,5fc63e053cf83c06341ac94a,64d2fd46c836a06233681665,64dc7d1e5664ea86cae1fcca,,,,,,,sngl,resources/Empty.png,resources/DR.BMP,Door3,0.337962963,-0.065740762,1,0,0,1.0218,optionRight,70,12290,6,8,0,8,0,1,,,,,,,,,,,,,,,,,,,,,,,,,,,,,,,,,,,,,,,
,,,,,,,,2023-08-16_08h39.28.907,HF_wild_card,2022.2.4,Win32,60.15399423,5fc63e053cf83c06341ac94a,64d2fd46c836a06233681665,64dc7d1e5664ea86cae1fcca,,,,,,,sngl,resources/Empty.png,resources/DY.BMP,WildCard_Ex,0.234259288,-0.00462963,1,0,0,1.1238,optionRight,5,12295,6,9,0,9,0,1,,,,,,,,,,,,,,,,,,,,,,,,,,,,,,,,,,,,,,,
,,,,,,,,2023-08-16_08h39.28.907,HF_wild_card,2022.2.4,Win32,60.15399423,5fc63e053cf83c06341ac94a,64d2fd46c836a06233681665,64dc7d1e5664ea86cae1fcca,,,,,,,decisionTrl,resources/DR.BMP,resources/DG.BMP,Door3,-0.285185143,-0.012962977,1,0,0,1.3829,optionLeft,70,12365,6,10,0,10,0,1,,,,,,,,,,,,,,,,,,,,,,,,,,,,,,,,,,,,,,,
,,,,,,,,2023-08-16_08h39.28.907,HF_wild_card,2022.2.4,Win32,60.15399423,5fc63e053cf83c06341ac94a,64d2fd46c836a06233681665,64dc7d1e5664ea86cae1fcca,,,,,,,decisionTrl,resources/DP.BMP,resources/DBN.BMP,Door1,-0.346296275,-0.056481503,1,0,0,2.2116,optionLeft,30,12395,6,11,0,11,0,1,,,,,,,,,,,,,,,,,,,,,,,,,,,,,,,,,,,,,,,
,,,,,,,,2023-08-16_08h39.28.907,HF_wild_card,2022.2.4,Win32,60.15399423,5fc63e053cf83c06341ac94a,64d2fd46c836a06233681665,64dc7d1e5664ea86cae1fcca,,,,,,,ctch,resources/DP.BMP,resources/DG.BMP,Door4,0.363888917,0.034259266,1,0,0,1.8324,optionRight,60,12455,6,12,0,12,0,1,,,,,,,,,,,,,,,,,,,,,,,,,,,,,,,,,,,,,,,
,,,,,,,,2023-08-16_08h39.28.907,HF_wild_card,2022.2.4,Win32,60.15399423,5fc63e053cf83c06341ac94a,64d2fd46c836a06233681665,64dc7d1e5664ea86cae1fcca,,,,,,,sngl,resources/Empty.png,resources/DY.BMP,WildCard_Ex,0.305555556,-0.014814836,1,0,0,1.1991,optionRight,95,12550,6,13,0,13,0,1,,,,,,,,,,,,,,,,,,,,,,,,,,,,,,,,,,,,,,,
,,,,,,,,2023-08-16_08h39.28.907,HF_wild_card,2022.2.4,Win32,60.15399423,5fc63e053cf83c06341ac94a,64d2fd46c836a06233681665,64dc7d1e5664ea86cae1fcca,,,,,,,decisionTrl,resources/DBN.BMP,resources/DP.BMP,Door2,-0.37037037,-0.083333333,1,0,0,3.1684,optionLeft,40,12590,6,14,0,14,0,1,,,,,,,,,,,,,,,,,,,,,,,,,,,,,,,,,,,,,,,
,,,,,,,,2023-08-16_08h39.28.907,HF_wild_card,2022.2.4,Win32,60.15399423,5fc63e053cf83c06341ac94a,64d2fd46c836a06233681665,64dc7d1e5664ea86cae1fcca,,,,,,,decisionTrl,resources/DG.BMP,resources/DR.BMP,Door4,-0.356481481,-0.00462963,1,0,0,1.9579,optionLeft,80,12670,6,15,0,15,0,1,,,,,,,,,,,,,,,,,,,,,,,,,,,,,,,,,,,,,,,
,,,,,,,,2023-08-16_08h39.28.907,HF_wild_card,2022.2.4,Win32,60.15399423,5fc63e053cf83c06341ac94a,64d2fd46c836a06233681665,64dc7d1e5664ea86cae1fcca,,,,,,,decisionTrl,resources/DBN.BMP,resources/DY.BMP,Door2,-0.256481453,0.001851859,1,0,0,2.6006,optionLeft,40,12710,6,16,0,16,0,1,,,,,,,,,,,,,,,,,,,,,,,,,,,,,,,,,,,,,,,
,,,,,,,,2023-08-16_08h39.28.907,HF_wild_card,2022.2.4,Win32,60.15399423,5fc63e053cf83c06341ac94a,64d2fd46c836a06233681665,64dc7d1e5664ea86cae1fcca,,,,,,,ctch,resources/DP.BMP,resources/DG.BMP,Door4,0.275000042,0.0074074,1,0,0,2.7131,optionRight,80,12790,6,17,0,17,0,1,,,,,,,,,,,,,,,,,,,,,,,,,,,,,,,,,,,,,,,
,,,,,,,,2023-08-16_08h39.28.907,HF_wild_card,2022.2.4,Win32,60.15399423,5fc63e053cf83c06341ac94a,64d2fd46c836a06233681665,64dc7d1e5664ea86cae1fcca,,,,,,,sngl,resources/DBN.BMP,resources/Empty.png,Door2,-0.371296282,-0.033333355,1,0,0,1.0568,optionLeft,20,12810,6,18,0,18,0,1,,,,,,,,,,,,,,,,,,,,,,,,,,,,,,,,,,,,,,,
,,,,,,,,2023-08-16_08h39.28.907,HF_wild_card,2022.2.4,Win32,60.15399423,5fc63e053cf83c06341ac94a,64d2fd46c836a06233681665,64dc7d1e5664ea86cae1fcca,,,,,,,ctch,resources/DBN.BMP,resources/DR.BMP,Door3,0.283333319,0.027777778,1,0,0,1.2667,optionRight,70,12880,6,19,0,19,0,1,,,,,,,,,,,,,,,,,,,,,,,,,,,,,,,,,,,,,,,
,,,,,,,,2023-08-16_08h39.28.907,HF_wild_card,2022.2.4,Win32,60.15399423,5fc63e053cf83c06341ac94a,64d2fd46c836a06233681665,64dc7d1e5664ea86cae1fcca,,,,,,,decisionTrl,resources/DP.BMP,resources/DBN.BMP,Door1,-0.286111125,-0.062037044,1,0,0,2.0247,optionLeft,30,12910,6,20,0,20,0,1,,,,,,,,,,,,,,,,,,,,,,,,,,,,,,,,,,,,,,,
,,,,,,,,2023-08-16_08h39.28.907,HF_wild_card,2022.2.4,Win32,60.15399423,5fc63e053cf83c06341ac94a,64d2fd46c836a06233681665,64dc7d1e5664ea86cae1fcca,,,,,,,decisionTrl,resources/DP.BMP,resources/DBN.BMP,Door1,-0.284259231,-0.062037044,1,0,0,1.3976,optionLeft,30,12940,6,21,0,21,0,1,,,,,,,,,,,,,,,,,,,,,,,,,,,,,,,,,,,,,,,
,,,,,,,,2023-08-16_08h39.28.907,HF_wild_card,2022.2.4,Win32,60.15399423,5fc63e053cf83c06341ac94a,64d2fd46c836a06233681665,64dc7d1e5664ea86cae1fcca,,,,,,,sngl,resources/DR.BMP,resources/Empty.png,Door3,-0.322222215,-0.074074074,1,0,0,1.0568,optionLeft,70,13010,6,22,0,22,0,1,,,,,,,,,,,,,,,,,,,,,,,,,,,,,,,,,,,,,,,
,,,,,,,,2023-08-16_08h39.28.907,HF_wild_card,2022.2.4,Win32,60.15399423,5fc63e053cf83c06341ac94a,64d2fd46c836a06233681665,64dc7d1e5664ea86cae1fcca,,,,,,,decisionTrl,resources/DY.BMP,resources/DBN.BMP,WildCard_Ex,-0.361111111,-0.081481474,1,0,0,3.229,optionLeft,5,13015,6,23,0,23,0,1,,,,,,,,,,,,,,,,,,,,,,,,,,,,,,,,,,,,,,,
,,,,,,,,2023-08-16_08h39.28.907,HF_wild_card,2022.2.4,Win32,60.15399423,5fc63e053cf83c06341ac94a,64d2fd46c836a06233681665,64dc7d1e5664ea86cae1fcca,,,,,,,decisionTrl,resources/DBN.BMP,resources/DP.BMP,Door2,-0.326851845,-0.045370384,1,0,0,3.3751,optionLeft,20,13035,6,24,0,24,0,1,,,,,,,,,,,,,,,,,,,,,,,,,,,,,,,,,,,,,,,
,,,,,,,,2023-08-16_08h39.28.907,HF_wild_card,2022.2.4,Win32,60.15399423,5fc63e053cf83c06341ac94a,64d2fd46c836a06233681665,64dc7d1e5664ea86cae1fcca,,,,,,,sngl,resources/Empty.png,resources/DBN.BMP,Door2,0.356481481,0.02407406,1,0,0,1.1102,optionRight,40,13075,6,25,0,25,0,1,,,,,,,,,,,,,,,,,,,,,,,,,,,,,,,,,,,,,,,
,,,,,,,,2023-08-16_08h39.28.907,HF_wild_card,2022.2.4,Win32,60.15399423,5fc63e053cf83c06341ac94a,64d2fd46c836a06233681665,64dc7d1e5664ea86cae1fcca,,,,,,,decisionTrl,resources/DG.BMP,resources/DR.BMP,Door4,-0.324074074,-0.056481503,1,0,0,2.0791,optionLeft,80,13155,6,26,0,26,0,1,,,,,,,,,,,,,,,,,,,,,,,,,,,,,,,,,,,,,,,
,,,,,,,,2023-08-16_08h39.28.907,HF_wild_card,2022.2.4,Win32,60.15399423,5fc63e053cf83c06341ac94a,64d2fd46c836a06233681665,64dc7d1e5664ea86cae1fcca,,,,,,,ctch,resources/DR.BMP,resources/DBN.BMP,Door3,-0.237037023,-0.022222236,1,0,0,1.4376,optionLeft,70,13225,6,27,0,27,0,1,,,,,,,,,,,,,,,,,,,,,,,,,,,,,,,,,,,,,,,
,,,,,,,,2023-08-16_08h39.28.907,HF_wild_card,2022.2.4,Win32,60.15399423,5fc63e053cf83c06341ac94a,64d2fd46c836a06233681665,64dc7d1e5664ea86cae1fcca,,,,,,,sngl,resources/DP.BMP,resources/Empty.png,Door1,-0.375,-0.082407422,1,0,0,1.0322,optionLeft,30,13255,6,28,0,28,0,1,,,,,,,,,,,,,,,,,,,,,,,,,,,,,,,,,,,,,,,
,,,,,,,,2023-08-16_08h39.28.907,HF_wild_card,2022.2.4,Win32,60.15399423,5fc63e053cf83c06341ac94a,64d2fd46c836a06233681665,64dc7d1e5664ea86cae1fcca,,,,,,,decisionTrl,resources/DG.BMP,resources/DR.BMP,Door4,-0.289814772,-0.034259266,1,0,0,2.2404,optionLeft,80,13335,6,29,0,29,0,1,,,,,,,,,,,,,,,,,,,,,,,,,,,,,,,,,,,,,,,
,,,,,,,,2023-08-16_08h39.28.907,HF_wild_card,2022.2.4,Win32,60.15399423,5fc63e053cf83c06341ac94a,64d2fd46c836a06233681665,64dc7d1e5664ea86cae1fcca,,,,,,,decisionTrl,resources/DR.BMP,resources/DG.BMP,Door3,-0.316666674,-0.049074067,1,0,0,2.1869,optionLeft,70,13405,6,30,0,30,0,1,,,,,,,,,,,,,,,,,,,,,,,,,,,,,,,,,,,,,,,
,,,,,,,,2023-08-16_08h39.28.907,HF_wild_card,2022.2.4,Win32,60.15399423,5fc63e053cf83c06341ac94a,64d2fd46c836a06233681665,64dc7d1e5664ea86cae1fcca,,,,,,,sngl,resources/DY.BMP,resources/Empty.png,WildCard_Ex,-0.310185185,-0.01666666,1,0,0,1.0257,optionLeft,95,13500,6,31,0,31,0,1,,,,,,,,,,,,,,,,,,,,,,,,,,,,,,,,,,,,,,,
,,,,,,,,2023-08-16_08h39.28.907,HF_wild_card,2022.2.4,Win32,60.15399423,5fc63e053cf83c06341ac94a,64d2fd46c836a06233681665,64dc7d1e5664ea86cae1fcca,,,,,,,decisionTrl,resources/DBN.BMP,resources/DP.BMP,Door2,-0.310185185,0.009259259,1,0,0,2.4155,optionLeft,20,13520,6,32,0,32,0,1,,,,,,,,,,,,,,,,,,,,,,,,,,,,,,,,,,,,,,,
,,,,,,,,2023-08-16_08h39.28.907,HF_wild_card,2022.2.4,Win32,60.15399423,5fc63e053cf83c06341ac94a,64d2fd46c836a06233681665,64dc7d1e5664ea86cae1fcca,,,,,,,decisionTrl,resources/DP.BMP,resources/DY.BMP,Door1,-0.287037037,-0.010185206,1,0,0,3.2529,optionLeft,30,13550,6,33,0,33,0,1,,,,,,,,,,,,,,,,,,,,,,,,,,,,,,,,,,,,,,,
,,,,,,,,2023-08-16_08h39.28.907,HF_wild_card,2022.2.4,Win32,60.15399423,5fc63e053cf83c06341ac94a,64d2fd46c836a06233681665,64dc7d1e5664ea86cae1fcca,,,,,,,ctch,resources/DG.BMP,resources/DP.BMP,Door4,-0.235185199,0.003703683,1,0,0,1.5169,optionLeft,80,13630,6,34,0,34,0,1,,,,,,,,,,,,,,,,,,,,,,,,,,,,,,,,,,,,,,,
,,,,,,,,2023-08-16_08h39.28.907,HF_wild_card,2022.2.4,Win32,60.15399423,5fc63e053cf83c06341ac94a,64d2fd46c836a06233681665,64dc7d1e5664ea86cae1fcca,,,,,,,ctch,resources/DBN.BMP,resources/DR.BMP,Door3,0.361111111,0.033333319,1,0,0,1.3297,optionRight,70,13700,6,35,0,35,0,1,,,,,,,,,,,,,,,,,,,,,,,,,,,,,,,,,,,,,,,
,,,,,,,,2023-08-16_08h39.28.907,HF_wild_card,2022.2.4,Win32,60.15399423,5fc63e053cf83c06341ac94a,64d2fd46c836a06233681665,64dc7d1e5664ea86cae1fcca,,,,,,,ctch,resources/DR.BMP,resources/DBN.BMP,Door3,-0.372222229,-0.041666667,1,0,0,1.0342,optionLeft,70,13770,6,36,0,36,0,1,,,,,,,,,,,,,,,,,,,,,,,,,,,,,,,,,,,,,,,
,,,,,,,,2023-08-16_08h39.28.907,HF_wild_card,2022.2.4,Win32,60.15399423,5fc63e053cf83c06341ac94a,64d2fd46c836a06233681665,64dc7d1e5664ea86cae1fcca,,,,,,,ctch,resources/DG.BMP,resources/DP.BMP,Door4,-0.297222208,-0.023148148,1,0,0,1.8493,optionLeft,80,13850,6,37,0,37,0,1,,,,,,,,,,,,,,,,,,,,,,,,,,,,,,,,,,,,,,,
,,,,,,,,2023-08-16_08h39.28.907,HF_wild_card,2022.2.4,Win32,60.15399423,5fc63e053cf83c06341ac94a,64d2fd46c836a06233681665,64dc7d1e5664ea86cae1fcca,,,,,,,sngl,resources/DY.BMP,resources/Empty.png,WildCard_Ex,-0.289814772,-0.018518519,1,0,0,1.0155,optionLeft,5,13855,6,38,0,38,0,1,,,,,,,,,,,,,,,,,,,,,,,,,,,,,,,,,,,,,,,
,,,,,,,,2023-08-16_08h39.28.907,HF_wild_card,2022.2.4,Win32,60.15399423,5fc63e053cf83c06341ac94a,64d2fd46c836a06233681665,64dc7d1e5664ea86cae1fcca,,,,,,,sngl,resources/Empty.png,resources/DG.BMP,Door4,0.338888945,0.048148155,1,0,0,0.9908,optionRight,80,13935,6,39,0,39,0,1,,,,,,,,,,,,,,,,,,,,,,,,,,,,,,,,,,,,,,,
,,,,,,,,2023-08-16_08h39.28.907,HF_wild_card,2022.2.4,Win32,60.15399423,5fc63e053cf83c06341ac94a,64d2fd46c836a06233681665,64dc7d1e5664ea86cae1fcca,,,,,,,decisionTrl,resources/DY.BMP,resources/DG.BMP,Door4,0.240740741,0.011111118,1,0,0,1.2764,optionRight,60,13995,6,40,0,40,0,1,,,,,,,,,,,,,,,,,,,,,,,,,,,,,,,,,,,,,,,
,,,,,,,,2023-08-16_08h39.28.907,HF_wild_card,2022.2.4,Win32,60.15399423,5fc63e053cf83c06341ac94a,64d2fd46c836a06233681665,64dc7d1e5664ea86cae1fcca,,,,,,,sngl,resources/DG.BMP,resources/Empty.png,Door4,-0.260185171,-0.021296289,1,0,0,1.0484,optionLeft,60,14055,6,41,0,41,0,1,,,,,,,,,,,,,,,,,,,,,,,,,,,,,,,,,,,,,,,
,,,,,,,,2023-08-16_08h39.28.907,HF_wild_card,2022.2.4,Win32,60.15399423,5fc63e053cf83c06341ac94a,64d2fd46c836a06233681665,64dc7d1e5664ea86cae1fcca,,,,,,,sngl,resources/Empty.png,resources/DP.BMP,Door1,0.332407492,0.039814808,1,0,0,0.924,optionRight,30,14085,6,42,0,42,0,1,,,,,,,,,,,,,,,,,,,,,,,,,,,,,,,,,,,,,,,
,,,,,,,,2023-08-16_08h39.28.907,HF_wild_card,2022.2.4,Win32,60.15399423,5fc63e053cf83c06341ac94a,64d2fd46c836a06233681665,64dc7d1e5664ea86cae1fcca,,,,,,,decisionTrl,resources/DR.BMP,resources/DY.BMP,Door3,-0.275925884,-0.017592607,1,0,0,1.5403,optionLeft,70,14155,6,43,0,43,0,1,,,,,,,,,,,,,,,,,,,,,,,,,,,,,,,,,,,,,,,
,,,,,,,,2023-08-16_08h39.28.907,HF_wild_card,2022.2.4,Win32,60.15399423,5fc63e053cf83c06341ac94a,64d2fd46c836a06233681665,64dc7d1e5664ea86cae1fcca,,,,,,,,,,,,,,,,,,,,,,,,,,5,0,5,0,1,,,,,,,,,,,,,,,,,,,,,,,,,,,,,,,,,,
,,,,,,,,2023-08-16_08h39.28.907,HF_wild_card,2022.2.4,Win32,60.15399423,5fc63e053cf83c06341ac94a,64d2fd46c836a06233681665,64dc7d1e5664ea86cae1fcca,,,,,,,decisionTrl,resources/DBN.BMP,resources/DP.BMP,Door1,0.323148233,-0.052777785,1,0,0,1.1328,optionRight,30,14185,7,0,0,0,0,1,,,,,,,,,,,,,,,,,,,,,,,,,,,,,,,,,,,,,,,
,,,,,,,,2023-08-16_08h39.28.907,HF_wild_card,2022.2.4,Win32,60.15399423,5fc63e053cf83c06341ac94a,64d2fd46c836a06233681665,64dc7d1e5664ea86cae1fcca,,,,,,,decisionTrl,resources/DR.BMP,resources/DG.BMP,Door3,-0.407407407,-0.017592607,1,0,0,1.7594,optionLeft,70,14255,7,1,0,1,0,1,,,,,,,,,,,,,,,,,,,,,,,,,,,,,,,,,,,,,,,
,,,,,,,,2023-08-16_08h39.28.907,HF_wild_card,2022.2.4,Win32,60.15399423,5fc63e053cf83c06341ac94a,64d2fd46c836a06233681665,64dc7d1e5664ea86cae1fcca,,,,,,,ctch,resources/DP.BMP,resources/DG.BMP,Door4,0.258333347,0.015740748,1,0,0,1.4779,optionRight,60,14315,7,2,0,2,0,1,,,,,,,,,,,,,,,,,,,,,,,,,,,,,,,,,,,,,,,
,,,,,,,,2023-08-16_08h39.28.907,HF_wild_card,2022.2.4,Win32,60.15399423,5fc63e053cf83c06341ac94a,64d2fd46c836a06233681665,64dc7d1e5664ea86cae1fcca,,,,,,,ctch,resources/DR.BMP,resources/DBN.BMP,Door3,-0.337962963,0.033333319,1,0,0,1.2925,optionLeft,70,14385,7,3,0,3,0,1,,,,,,,,,,,,,,,,,,,,,,,,,,,,,,,,,,,,,,,
,,,,,,,,2023-08-16_08h39.28.907,HF_wild_card,2022.2.4,Win32,60.15399423,5fc63e053cf83c06341ac94a,64d2fd46c836a06233681665,64dc7d1e5664ea86cae1fcca,,,,,,,decisionTrl,resources/DR.BMP,resources/DG.BMP,Door3,-0.260185171,0.002777771,1,0,0,1.1998,optionLeft,70,14455,7,4,0,4,0,1,,,,,,,,,,,,,,,,,,,,,,,,,,,,,,,,,,,,,,,
,,,,,,,,2023-08-16_08h39.28.907,HF_wild_card,2022.2.4,Win32,60.15399423,5fc63e053cf83c06341ac94a,64d2fd46c836a06233681665,64dc7d1e5664ea86cae1fcca,,,,,,,ctch,resources/DP.BMP,resources/DG.BMP,Door4,0.385185242,0.054629608,1,0,0,1.2579,optionRight,60,14515,7,5,0,5,0,1,,,,,,,,,,,,,,,,,,,,,,,,,,,,,,,,,,,,,,,
,,,,,,,,2023-08-16_08h39.28.907,HF_wild_card,2022.2.4,Win32,60.15399423,5fc63e053cf83c06341ac94a,64d2fd46c836a06233681665,64dc7d1e5664ea86cae1fcca,,,,,,,ctch,resources/DBN.BMP,resources/DR.BMP,Door3,0.304629714,0.00462963,1,0,0,1.1457,optionRight,70,14585,7,6,0,6,0,1,,,,,,,,,,,,,,,,,,,,,,,,,,,,,,,,,,,,,,,
,,,,,,,,2023-08-16_08h39.28.907,HF_wild_card,2022.2.4,Win32,60.15399423,5fc63e053cf83c06341ac94a,64d2fd46c836a06233681665,64dc7d1e5664ea86cae1fcca,,,,,,,decisionTrl,resources/DP.BMP,resources/DBN.BMP,Door2,0.315740797,0.082407386,1,0,0,2.1034,optionRight,40,14625,7,7,0,7,0,1,,,,,,,,,,,,,,,,,,,,,,,,,,,,,,,,,,,,,,,
,,,,,,,,2023-08-16_08h39.28.907,HF_wild_card,2022.2.4,Win32,60.15399423,5fc63e053cf83c06341ac94a,64d2fd46c836a06233681665,64dc7d1e5664ea86cae1fcca,,,,,,,decisionTrl,resources/DG.BMP,resources/DR.BMP,Door3,0.23055557,0.013888889,1,0,0,1.7109,optionRight,70,14695,7,8,0,8,0,1,,,,,,,,,,,,,,,,,,,,,,,,,,,,,,,,,,,,,,,
,,,,,,,,2023-08-16_08h39.28.907,HF_wild_card,2022.2.4,Win32,60.15399423,5fc63e053cf83c06341ac94a,64d2fd46c836a06233681665,64dc7d1e5664ea86cae1fcca,,,,,,,decisionTrl,resources/DG.BMP,resources/DR.BMP,Door4,-0.257407365,0.01666666,1,0,0,1.2132,optionLeft,80,14775,7,9,0,9,0,1,,,,,,,,,,,,,,,,,,,,,,,,,,,,,,,,,,,,,,,
,,,,,,,,2023-08-16_08h39.28.907,HF_wild_card,2022.2.4,Win32,60.15399423,5fc63e053cf83c06341ac94a,64d2fd46c836a06233681665,64dc7d1e5664ea86cae1fcca,,,,,,,decisionTrl,resources/DBN.BMP,resources/DP.BMP,Door1,0.243518547,0.00462963,1,0,0,3.2512,optionRight,30,14805,7,10,0,10,0,1,,,,,,,,,,,,,,,,,,,,,,,,,,,,,,,,,,,,,,,
,,,,,,,,2023-08-16_08h39.28.907,HF_wild_card,2022.2.4,Win32,60.15399423,5fc63e053cf83c06341ac94a,64d2fd46c836a06233681665,64dc7d1e5664ea86cae1fcca,,,,,,,decisionTrl,resources/DG.BMP,resources/DR.BMP,Door3,0.219444487,0.010185171,1,0,0,1.7125,optionRight,70,14875,7,11,0,11,0,1,,,,,,,,,,,,,,,,,,,,,,,,,,,,,,,,,,,,,,,
,,,,,,,,2023-08-16_08h39.28.907,HF_wild_card,2022.2.4,Win32,60.15399423,5fc63e053cf83c06341ac94a,64d2fd46c836a06233681665,64dc7d1e5664ea86cae1fcca,,,,,,,decisionTrl,resources/DR.BMP,resources/DG.BMP,Door3,-0.360185164,-0.008333347,1,0,0,2.3368,optionLeft,70,14945,7,12,0,12,0,1,,,,,,,,,,,,,,,,,,,,,,,,,,,,,,,,,,,,,,,
,,,,,,,,2023-08-16_08h39.28.907,HF_wild_card,2022.2.4,Win32,60.15399423,5fc63e053cf83c06341ac94a,64d2fd46c836a06233681665,64dc7d1e5664ea86cae1fcca,,,,,,,ctch,resources/DG.BMP,resources/DP.BMP,Door4,-0.323148127,0.009259259,1,0,0,1.5133,optionLeft,60,15005,7,13,0,13,0,1,,,,,,,,,,,,,,,,,,,,,,,,,,,,,,,,,,,,,,,
,,,,,,,,2023-08-16_08h39.28.907,HF_wild_card,2022.2.4,Win32,60.15399423,5fc63e053cf83c06341ac94a,64d2fd46c836a06233681665,64dc7d1e5664ea86cae1fcca,,,,,,,decisionTrl,resources/DP.BMP,resources/DBN.BMP,Door1,-0.215740698,0,1,0,0,1.6392,optionLeft,30,15035,7,14,0,14,0,1,,,,,,,,,,,,,,,,,,,,,,,,,,,,,,,,,,,,,,,
,,,,,,,,2023-08-16_08h39.28.907,HF_wild_card,2022.2.4,Win32,60.15399423,5fc63e053cf83c06341ac94a,64d2fd46c836a06233681665,64dc7d1e5664ea86cae1fcca,,,,,,,ctch,resources/DR.BMP,resources/DBN.BMP,Door3,-0.292592578,0.000925912,1,0,0,1.6444,optionLeft,70,15105,7,15,0,15,0,1,,,,,,,,,,,,,,,,,,,,,,,,,,,,,,,,,,,,,,,
,,,,,,,,2023-08-16_08h39.28.907,HF_wild_card,2022.2.4,Win32,60.15399423,5fc63e053cf83c06341ac94a,64d2fd46c836a06233681665,64dc7d1e5664ea86cae1fcca,,,,,,,decisionTrl,resources/DBN.BMP,resources/DP.BMP,Door1,0.303703732,0.039814808,1,0,0,1.2311,optionRight,30,15135,7,16,0,16,0,1,,,,,,,,,,,,,,,,,,,,,,,,,,,,,,,,,,,,,,,
,,,,,,,,2023-08-16_08h39.28.907,HF_wild_card,2022.2.4,Win32,60.15399423,5fc63e053cf83c06341ac94a,64d2fd46c836a06233681665,64dc7d1e5664ea86cae1fcca,,,,,,,ctch,resources/DBN.BMP,resources/DR.BMP,Door3,0.280555584,0.01666666,1,0,0,1.1353,optionRight,70,15205,7,17,0,17,0,1,,,,,,,,,,,,,,,,,,,,,,,,,,,,,,,,,,,,,,,
,,,,,,,,2023-08-16_08h39.28.907,HF_wild_card,2022.2.4,Win32,60.15399423,5fc63e053cf83c06341ac94a,64d2fd46c836a06233681665,64dc7d1e5664ea86cae1fcca,,,,,,,decisionTrl,resources/DBN.BMP,resources/DP.BMP,Door1,0.183333362,-0.003703718,1,0,0,1.3135,optionRight,30,15235,7,18,0,18,0,1,,,,,,,,,,,,,,,,,,,,,,,,,,,,,,,,,,,,,,,
,,,,,,,,2023-08-16_08h39.28.907,HF_wild_card,2022.2.4,Win32,60.15399423,5fc63e053cf83c06341ac94a,64d2fd46c836a06233681665,64dc7d1e5664ea86cae1fcca,,,,,,,ctch,resources/DR.BMP,resources/DBN.BMP,Door3,-0.36296297,0.006481489,1,0,0,1.8439,optionLeft,70,15305,7,19,0,19,0,1,,,,,,,,,,,,,,,,,,,,,,,,,,,,,,,,,,,,,,,
,,,,,,,,2023-08-16_08h39.28.907,HF_wild_card,2022.2.4,Win32,60.15399423,5fc63e053cf83c06341ac94a,64d2fd46c836a06233681665,64dc7d1e5664ea86cae1fcca,,,,,,,ctch,resources/DG.BMP,resources/DP.BMP,Door4,-0.257407365,-0.013888889,1,0,0,1.3477,optionLeft,80,15385,7,20,0,20,0,1,,,,,,,,,,,,,,,,,,,,,,,,,,,,,,,,,,,,,,,
,,,,,,,,2023-08-16_08h39.28.907,HF_wild_card,2022.2.4,Win32,60.15399423,5fc63e053cf83c06341ac94a,64d2fd46c836a06233681665,64dc7d1e5664ea86cae1fcca,,,,,,,decisionTrl,resources/DP.BMP,resources/DBN.BMP,Door1,-0.236111111,0.025925919,1,0,0,2.8119,optionLeft,30,15415,7,21,0,21,0,1,,,,,,,,,,,,,,,,,,,,,,,,,,,,,,,,,,,,,,,
,,,,,,,,2023-08-16_08h39.28.907,HF_wild_card,2022.2.4,Win32,60.15399423,5fc63e053cf83c06341ac94a,64d2fd46c836a06233681665,64dc7d1e5664ea86cae1fcca,,,,,,,decisionTrl,resources/DG.BMP,resources/DR.BMP,Door4,-0.00462963,0.003703683,1,0,0,0.1182,optionLeft,60,15475,7,22,0,22,0,1,,,,,,,,,,,,,,,,,,,,,,,,,,,,,,,,,,,,,,,
,,,,,,,,2023-08-16_08h39.28.907,HF_wild_card,2022.2.4,Win32,60.15399423,5fc63e053cf83c06341ac94a,64d2fd46c836a06233681665,64dc7d1e5664ea86cae1fcca,,,,,,,decisionTrl,resources/DP.BMP,resources/DBN.BMP,Door1,-0.280555513,-0.023148148,1,0,0,1.566,optionLeft,30,15505,7,23,0,23,0,1,,,,,,,,,,,,,,,,,,,,,,,,,,,,,,,,,,,,,,,
,,,,,,,,2023-08-16_08h39.28.907,HF_wild_card,2022.2.4,Win32,60.15399423,5fc63e053cf83c06341ac94a,64d2fd46c836a06233681665,64dc7d1e5664ea86cae1fcca,,,,,,,decisionTrl,resources/DP.BMP,resources/DBN.BMP,Door1,-0.319444444,-0.056481503,1,0,0,1.3437,optionLeft,30,15535,7,24,0,24,0,1,,,,,,,,,,,,,,,,,,,,,,,,,,,,,,,,,,,,,,,
,,,,,,,,2023-08-16_08h39.28.907,HF_wild_card,2022.2.4,Win32,60.15399423,5fc63e053cf83c06341ac94a,64d2fd46c836a06233681665,64dc7d1e5664ea86cae1fcca,,,,,,,decisionTrl,resources/DG.BMP,resources/DR.BMP,Door4,-0.326851845,-0.034259266,1,0,0,1.7371,optionLeft,60,15595,7,25,0,25,0,1,,,,,,,,,,,,,,,,,,,,,,,,,,,,,,,,,,,,,,,
,,,,,,,,2023-08-16_08h39.28.907,HF_wild_card,2022.2.4,Win32,60.15399423,5fc63e053cf83c06341ac94a,64d2fd46c836a06233681665,64dc7d1e5664ea86cae1fcca,,,,,,,decisionTrl,resources/DBN.BMP,resources/DP.BMP,Door1,0.164814843,-0.020370377,1,0,0,1.2818,optionRight,30,15625,7,26,0,26,0,1,,,,,,,,,,,,,,,,,,,,,,,,,,,,,,,,,,,,,,,
,,,,,,,,2023-08-16_08h39.28.907,HF_wild_card,2022.2.4,Win32,60.15399423,5fc63e053cf83c06341ac94a,64d2fd46c836a06233681665,64dc7d1e5664ea86cae1fcca,,,,,,,decisionTrl,resources/DG.BMP,resources/DR.BMP,Door3,0.237963005,0.001851859,1,0,0,3.5075,optionRight,70,15695,7,27,0,27,0,1,,,,,,,,,,,,,,,,,,,,,,,,,,,,,,,,,,,,,,,
,,,,,,,,2023-08-16_08h39.28.907,HF_wild_card,2022.2.4,Win32,60.15399423,5fc63e053cf83c06341ac94a,64d2fd46c836a06233681665,64dc7d1e5664ea86cae1fcca,,,,,,,ctch,resources/DBN.BMP,resources/DR.BMP,Door3,0.375925982,0.03148146,1,0,0,1.1119,optionRight,70,15765,7,28,0,28,0,1,,,,,,,,,,,,,,,,,,,,,,,,,,,,,,,,,,,,,,,
,,,,,,,,2023-08-16_08h39.28.907,HF_wild_card,2022.2.4,Win32,60.15399423,5fc63e053cf83c06341ac94a,64d2fd46c836a06233681665,64dc7d1e5664ea86cae1fcca,,,,,,,decisionTrl,resources/DR.BMP,resources/DG.BMP,Door3,-0.270370342,-0.045370384,1,0,0,1.5611,optionLeft,70,15835,7,29,0,29,0,1,,,,,,,,,,,,,,,,,,,,,,,,,,,,,,,,,,,,,,,
,,,,,,,,2023-08-16_08h39.28.907,HF_wild_card,2022.2.4,Win32,60.15399423,5fc63e053cf83c06341ac94a,64d2fd46c836a06233681665,64dc7d1e5664ea86cae1fcca,,,,,,,ctch,resources/DG.BMP,resources/DP.BMP,Door4,-0.223148134,-0.011111118,1,0,0,1.3784,optionLeft,60,15895,7,30,0,30,0,1,,,,,,,,,,,,,,,,,,,,,,,,,,,,,,,,,,,,,,,
,,,,,,,,2023-08-16_08h39.28.907,HF_wild_card,2022.2.4,Win32,60.15399423,5fc63e053cf83c06341ac94a,64d2fd46c836a06233681665,64dc7d1e5664ea86cae1fcca,,,,,,,decisionTrl,resources/DP.BMP,resources/DBN.BMP,Door1,-0.217592593,-0.033333355,1,0,0,1.4946,optionLeft,30,15925,7,31,0,31,0,1,,,,,,,,,,,,,,,,,,,,,,,,,,,,,,,,,,,,,,,
,,,,,,,,2023-08-16_08h39.28.907,HF_wild_card,2022.2.4,Win32,60.15399423,5fc63e053cf83c06341ac94a,64d2fd46c836a06233681665,64dc7d1e5664ea86cae1fcca,,,,,,,decisionTrl,resources/DR.BMP,resources/DG.BMP,Door3,-0.304629608,-0.023148148,1,0,0,1.6641,optionLeft,70,15995,7,32,0,32,0,1,,,,,,,,,,,,,,,,,,,,,,,,,,,,,,,,,,,,,,,
,,,,,,,,2023-08-16_08h39.28.907,HF_wild_card,2022.2.4,Win32,60.15399423,5fc63e053cf83c06341ac94a,64d2fd46c836a06233681665,64dc7d1e5664ea86cae1fcca,,,,,,,ctch,resources/DP.BMP,resources/DG.BMP,Door4,0.332407492,0.047222208,1,0,0,1.2299,optionRight,60,16055,7,33,0,33,0,1,,,,,,,,,,,,,,,,,,,,,,,,,,,,,,,,,,,,,,,
,,,,,,,,2023-08-16_08h39.28.907,HF_wild_card,2022.2.4,Win32,60.15399423,5fc63e053cf83c06341ac94a,64d2fd46c836a06233681665,64dc7d1e5664ea86cae1fcca,,,,,,,decisionTrl,resources/DR.BMP,resources/DG.BMP,Door3,-0.309259238,-0.068518533,1,0,0,1.7445,optionLeft,70,16125,7,34,0,34,0,1,,,,,,,,,,,,,,,,,,,,,,,,,,,,,,,,,,,,,,,
,,,,,,,,2023-08-16_08h39.28.907,HF_wild_card,2022.2.4,Win32,60.15399423,5fc63e053cf83c06341ac94a,64d2fd46c836a06233681665,64dc7d1e5664ea86cae1fcca,,,,,,,decisionTrl,resources/DBN.BMP,resources/DP.BMP,Door1,0.262037065,0.011111118,1,0,0,1.1906,optionRight,30,16155,7,35,0,35,0,1,,,,,,,,,,,,,,,,,,,,,,,,,,,,,,,,,,,,,,,
,,,,,,,,2023-08-16_08h39.28.907,HF_wild_card,2022.2.4,Win32,60.15399423,5fc63e053cf83c06341ac94a,64d2fd46c836a06233681665,64dc7d1e5664ea86cae1fcca,,,,,,,,,,,,,,,,,,,,,,,,,,6,0,6,0,1,,,,,,,,,,,,,,,,,,,,,,,,,,,,,,,,,,
,,,,,,,,2023-08-16_08h39.28.907,HF_wild_card,2022.2.4,Win32,60.15399423,5fc63e053cf83c06341ac94a,64d2fd46c836a06233681665,64dc7d1e5664ea86cae1fcca,,,,,,,,,,,,,,,,,,,,,,,,,,,,,,,4,,,,,,,,,,,,,,,,,,,,,,,,,,,,,,,,,
,,,,,,,,2023-08-16_08h39.28.907,HF_wild_card,2022.2.4,Win32,60.15399423,5fc63e053cf83c06341ac94a,64d2fd46c836a06233681665,64dc7d1e5664ea86cae1fcca,,,,,,,,,,,,,,,,,,,,,,,,,,,,,,,,,,,,,,,,,,,,,,,,,,,,,,,,,,,,,,,,
,,,,,,,,2023-08-16_08h39.28.907,HF_wild_card,2022.2.4,Win32,60.15399423,5fc63e053cf83c06341ac94a,64d2fd46c836a06233681665,64dc7d1e5664ea86cae1fcca,,,,,,,,,,,,,,,,,,,,,,,,,,,,,,,,5,WC_extreme,resources/DY.BMP,0,0,0,0,1,,,,,,,,,,,,,,,,,,,,,,,,,
,,,,,,,,2023-08-16_08h39.28.907,HF_wild_card,2022.2.4,Win32,60.15399423,5fc63e053cf83c06341ac94a,64d2fd46c836a06233681665,64dc7d1e5664ea86cae1fcca,,,,,,,,,,,,,,,,,,,,,,,,,,,,,,,,80,Door4,resources/DG.BMP,1,0,1,0,1,,,,,,,,,,,,,,,,,,,,,,,,,
,,,,,,,,2023-08-16_08h39.28.907,HF_wild_card,2022.2.4,Win32,60.15399423,5fc63e053cf83c06341ac94a,64d2fd46c836a06233681665,64dc7d1e5664ea86cae1fcca,,,,,,,,,,,,,,,,,,,,,,,,,,,,,,,,20,Door2,resources/DBN.BMP,2,0,2,0,1,,,,,,,,,,,,,,,,,,,,,,,,,
,,,,,,,,2023-08-16_08h39.28.907,HF_wild_card,2022.2.4,Win32,60.15399423,5fc63e053cf83c06341ac94a,64d2fd46c836a06233681665,64dc7d1e5664ea86cae1fcca,,,,,,,,,,,,,,,,,,,,,,,,,,,,,,,,70,Door3,resources/DR.BMP,3,0,3,0,1,,,,,,,,,,,,,,,,,,,,,,,,,
,,,,,,,,2023-08-16_08h39.28.907,HF_wild_card,2022.2.4,Win32,60.15399423,5fc63e053cf83c06341ac94a,64d2fd46c836a06233681665,64dc7d1e5664ea86cae1fcca,,,,,,,,,,,,,,,,,,,,,,,,,,,,,,,,55,WC_nonExtreme,resources/DB.BMP,4,0,4,0,1,,,,,,,,,,,,,,,,,,,,,,,,,
,,,,,,,,2023-08-16_08h39.28.907,HF_wild_card,2022.2.4,Win32,60.15399423,5fc63e053cf83c06341ac94a,64d2fd46c836a06233681665,64dc7d1e5664ea86cae1fcca,,,,,,,,,,,,,,,,,,,,,,,,,,,,,,,,30,Door1,resources/DP.BMP,5,0,5,0,1,,,,,,,,,,,,,,,,,,,,,,,,,
,,,,,,,,2023-08-16_08h39.28.907,HF_wild_card,2022.2.4,Win32,60.15399423,5fc63e053cf83c06341ac94a,64d2fd46c836a06233681665,64dc7d1e5664ea86cae1fcca,,,,,,,,,,,,,,,,,,,,,,,,,,,,,,,,,,,,,,,,,,,,,,,,,,,,,,,,,,,,,,,,
