Condition,Low fixed image (Door1),Low risky image (Door2),High fixed image (Door3),High risky image (Door4),Extreme Wild Card,NonExtreme Wild Card,,date,expName,psychopyVersion,OS,frameRate,PROLIFIC_PID,STUDY_ID,SESSION_ID,mouse_2.x,mouse_2.y,mouse_2.leftButton,mouse_2.midButton,mouse_2.rightButton,mouse_2.clicked_name,Trial Type,Left Option Image,Right Option Image,Chosen Door,mouse.x,mouse.y,mouse.leftButton,mouse.midButton,mouse.rightButton,mouse.time,mouse.clicked_name,Feedback,Cumulative Reward,Block,trial.thisRepN,trial.thisTrialN,trial.thisN,trial.thisIndex,trial.ran,blocks.thisRepN,blocks.thisTrialN,blocks.thisN,blocks.thisIndex,blocks.ran,Money conversion,First Outcome Reported,Shown Door (First Outcome),Displayed Image (First Outcome),outcomes.thisRepN,outcomes.thisTrialN,outcomes.thisN,outcomes.thisIndex,outcomes.ran,judgments.thisRepN,judgments.thisTrialN,judgments.thisN,judgments.thisIndex,judgments.ran,freqMouse.x,freqMouse.y,freqMouse.leftButton,freqMouse.midButton,freqMouse.rightButton,freqMouse.clicked_name,FQJ for first outcome,FQJ for second outcome,Shown Door,Displayed Image,trials.thisRepN,trials.thisTrialN,trials.thisN,trials.thisIndex,trials.ran,judgBlock.thisRepN,judgBlock.thisTrialN,judgBlock.thisN,judgBlock.thisIndex,judgBlock.ran
1,resources/DR.BMP,resources/DB.BMP,resources/DY.BMP,resources/DBN.BMP,resources/DP.BMP,resources/DG.BMP,UK,2023-08-16_08h40.52.436,HF_wild_card,2022.2.4,MacIntel,61.05006105,5c584e854e32ef00014af685,64d2fd46c836a06233681665,64dc7d5b60510beb19e2ece9,,,,,,,,,,,,,,,,,,,,,,,,,,,,,,,,,,,,,,,,,,,,,,,,,,,,,,,,,,,,,,,,
,,,,,,,UK,2023-08-16_08h40.52.436,HF_wild_card,2022.2.4,MacIntel,61.05006105,5c584e854e32ef00014af685,64d2fd46c836a06233681665,64dc7d5b60510beb19e2ece9,-0.009259259,-0.412962963,1,0,0,agree,,,,,,,,,,,,,,,,,,,,,,,,,,,,,,,,,,,,,,,,,,,,,,,,,,,,,,,,,,
,,,,,,,UK,2023-08-16_08h40.52.436,HF_wild_card,2022.2.4,MacIntel,61.05006105,5c584e854e32ef00014af685,64d2fd46c836a06233681665,64dc7d5b60510beb19e2ece9,,,,,,,,,,,,,,,,,,,,,,,,,,,,,,,,,,,,,,,,,,,,,,,,,,,,,,,,,,,,,,,,
,,,,,,,UK,2023-08-16_08h40.52.436,HF_wild_card,2022.2.4,MacIntel,61.05006105,5c584e854e32ef00014af685,64d2fd46c836a06233681665,64dc7d5b60510beb19e2ece9,,,,,,,sngl,resources/DB.BMP,resources/Empty.png,Door2,-0.417592593,-0.090740741,1,0,0,1.468,optionLeft,40,40,1,0,0,0,0,1,,,,,,,,,,,,,,,,,,,,,,,,,,,,,,,,,,,,,,,
,,,,,,,UK,2023-08-16_08h40.52.436,HF_wild_card,2022.2.4,MacIntel,61.05006105,5c584e854e32ef00014af685,64d2fd46c836a06233681665,64dc7d5b60510beb19e2ece9,,,,,,,sngl,resources/Empty.png,resources/DR.BMP,Door1,0.387037037,-0.065740741,1,0,0,1.077,optionRight,30,70,1,1,0,1,0,1,,,,,,,,,,,,,,,,,,,,,,,,,,,,,,,,,,,,,,,
,,,,,,,UK,2023-08-16_08h40.52.436,HF_wild_card,2022.2.4,MacIntel,61.05006105,5c584e854e32ef00014af685,64d2fd46c836a06233681665,64dc7d5b60510beb19e2ece9,,,,,,,decisionTrl,resources/DY.BMP,resources/DBN.BMP,Door3,-0.398148148,-0.057407407,1,0,0,1.397,optionLeft,70,140,1,2,0,2,0,1,,,,,,,,,,,,,,,,,,,,,,,,,,,,,,,,,,,,,,,
,,,,,,,UK,2023-08-16_08h40.52.436,HF_wild_card,2022.2.4,MacIntel,61.05006105,5c584e854e32ef00014af685,64d2fd46c836a06233681665,64dc7d5b60510beb19e2ece9,,,,,,,decisionTrl,resources/DG.BMP,resources/DY.BMP,WildCard_NonEx,-0.377777778,-0.04537037,1,0,0,1.012,optionLeft,55,195,1,3,0,3,0,1,,,,,,,,,,,,,,,,,,,,,,,,,,,,,,,,,,,,,,,
,,,,,,,UK,2023-08-16_08h40.52.436,HF_wild_card,2022.2.4,MacIntel,61.05006105,5c584e854e32ef00014af685,64d2fd46c836a06233681665,64dc7d5b60510beb19e2ece9,,,,,,,decisionTrl,resources/DR.BMP,resources/DB.BMP,Door2,0.382407407,-0.048148148,1,0,0,1.329,optionRight,40,235,1,4,0,4,0,1,,,,,,,,,,,,,,,,,,,,,,,,,,,,,,,,,,,,,,,
,,,,,,,UK,2023-08-16_08h40.52.436,HF_wild_card,2022.2.4,MacIntel,61.05006105,5c584e854e32ef00014af685,64d2fd46c836a06233681665,64dc7d5b60510beb19e2ece9,,,,,,,ctch,resources/DBN.BMP,resources/DR.BMP,Door1,0.387962963,-0.046296296,1,0,0,1.112,optionRight,30,265,1,5,0,5,0,1,,,,,,,,,,,,,,,,,,,,,,,,,,,,,,,,,,,,,,,
,,,,,,,UK,2023-08-16_08h40.52.436,HF_wild_card,2022.2.4,MacIntel,61.05006105,5c584e854e32ef00014af685,64d2fd46c836a06233681665,64dc7d5b60510beb19e2ece9,,,,,,,decisionTrl,resources/DG.BMP,resources/DBN.BMP,WildCard_NonEx,-0.386111111,-0.05,1,0,0,1.348,optionLeft,45,310,1,6,0,6,0,1,,,,,,,,,,,,,,,,,,,,,,,,,,,,,,,,,,,,,,,
,,,,,,,UK,2023-08-16_08h40.52.436,HF_wild_card,2022.2.4,MacIntel,61.05006105,5c584e854e32ef00014af685,64d2fd46c836a06233681665,64dc7d5b60510beb19e2ece9,,,,,,,decisionTrl,resources/DR.BMP,resources/DB.BMP,Door1,-0.405555556,-0.048148148,1,0,0,1.165,optionLeft,30,340,1,7,0,7,0,1,,,,,,,,,,,,,,,,,,,,,,,,,,,,,,,,,,,,,,,
,,,,,,,UK,2023-08-16_08h40.52.436,HF_wild_card,2022.2.4,MacIntel,61.05006105,5c584e854e32ef00014af685,64d2fd46c836a06233681665,64dc7d5b60510beb19e2ece9,,,,,,,decisionTrl,resources/DY.BMP,resources/DBN.BMP,Door4,0.401851852,-0.023148148,1,0,0,1.297,optionRight,60,400,1,8,0,8,0,1,,,,,,,,,,,,,,,,,,,,,,,,,,,,,,,,,,,,,,,
,,,,,,,UK,2023-08-16_08h40.52.436,HF_wild_card,2022.2.4,MacIntel,61.05006105,5c584e854e32ef00014af685,64d2fd46c836a06233681665,64dc7d5b60510beb19e2ece9,,,,,,,decisionTrl,resources/DB.BMP,resources/DR.BMP,Door2,-0.4,-0.057407407,1,0,0,1.581,optionLeft,20,420,1,9,0,9,0,1,,,,,,,,,,,,,,,,,,,,,,,,,,,,,,,,,,,,,,,
,,,,,,,UK,2023-08-16_08h40.52.436,HF_wild_card,2022.2.4,MacIntel,61.05006105,5c584e854e32ef00014af685,64d2fd46c836a06233681665,64dc7d5b60510beb19e2ece9,,,,,,,decisionTrl,resources/DR.BMP,resources/DG.BMP,WildCard_NonEx,0.414814815,-0.033333333,1,0,0,0.91,optionRight,55,475,1,10,0,10,0,1,,,,,,,,,,,,,,,,,,,,,,,,,,,,,,,,,,,,,,,
,,,,,,,UK,2023-08-16_08h40.52.436,HF_wild_card,2022.2.4,MacIntel,61.05006105,5c584e854e32ef00014af685,64d2fd46c836a06233681665,64dc7d5b60510beb19e2ece9,,,,,,,decisionTrl,resources/DY.BMP,resources/DBN.BMP,Door3,-0.394444444,-0.056481481,1,0,0,1.063,optionLeft,70,545,1,11,0,11,0,1,,,,,,,,,,,,,,,,,,,,,,,,,,,,,,,,,,,,,,,
,,,,,,,UK,2023-08-16_08h40.52.436,HF_wild_card,2022.2.4,MacIntel,61.05006105,5c584e854e32ef00014af685,64d2fd46c836a06233681665,64dc7d5b60510beb19e2ece9,,,,,,,ctch,resources/DB.BMP,resources/DY.BMP,Door3,0.385185185,-0.030555556,1,0,0,0.812,optionRight,70,615,1,12,0,12,0,1,,,,,,,,,,,,,,,,,,,,,,,,,,,,,,,,,,,,,,,
,,,,,,,UK,2023-08-16_08h40.52.436,HF_wild_card,2022.2.4,MacIntel,61.05006105,5c584e854e32ef00014af685,64d2fd46c836a06233681665,64dc7d5b60510beb19e2ece9,,,,,,,decisionTrl,resources/DY.BMP,resources/DBN.BMP,Door3,-0.375,-0.048148148,1,0,0,0.848,optionLeft,70,685,1,13,0,13,0,1,,,,,,,,,,,,,,,,,,,,,,,,,,,,,,,,,,,,,,,
,,,,,,,UK,2023-08-16_08h40.52.436,HF_wild_card,2022.2.4,MacIntel,61.05006105,5c584e854e32ef00014af685,64d2fd46c836a06233681665,64dc7d5b60510beb19e2ece9,,,,,,,decisionTrl,resources/DR.BMP,resources/DB.BMP,Door1,-0.418518519,-0.047222222,1,0,0,1.18,optionLeft,30,715,1,14,0,14,0,1,,,,,,,,,,,,,,,,,,,,,,,,,,,,,,,,,,,,,,,
,,,,,,,UK,2023-08-16_08h40.52.436,HF_wild_card,2022.2.4,MacIntel,61.05006105,5c584e854e32ef00014af685,64d2fd46c836a06233681665,64dc7d5b60510beb19e2ece9,,,,,,,decisionTrl,resources/DB.BMP,resources/DR.BMP,Door1,0.393518519,-0.025,1,0,0,0.612,optionRight,30,745,1,15,0,15,0,1,,,,,,,,,,,,,,,,,,,,,,,,,,,,,,,,,,,,,,,
,,,,,,,UK,2023-08-16_08h40.52.436,HF_wild_card,2022.2.4,MacIntel,61.05006105,5c584e854e32ef00014af685,64d2fd46c836a06233681665,64dc7d5b60510beb19e2ece9,,,,,,,decisionTrl,resources/DR.BMP,resources/DB.BMP,Door1,-0.4,-0.050925926,1,0,0,0.713,optionLeft,30,775,1,16,0,16,0,1,,,,,,,,,,,,,,,,,,,,,,,,,,,,,,,,,,,,,,,
,,,,,,,UK,2023-08-16_08h40.52.436,HF_wild_card,2022.2.4,MacIntel,61.05006105,5c584e854e32ef00014af685,64d2fd46c836a06233681665,64dc7d5b60510beb19e2ece9,,,,,,,sngl,resources/Empty.png,resources/DBN.BMP,Door4,0.378703704,-0.016666667,1,0,0,0.712,optionRight,60,835,1,17,0,17,0,1,,,,,,,,,,,,,,,,,,,,,,,,,,,,,,,,,,,,,,,
,,,,,,,UK,2023-08-16_08h40.52.436,HF_wild_card,2022.2.4,MacIntel,61.05006105,5c584e854e32ef00014af685,64d2fd46c836a06233681665,64dc7d5b60510beb19e2ece9,,,,,,,sngl,resources/DG.BMP,resources/Empty.png,WildCard_NonEx,-0.371296296,-0.038888889,1,0,0,0.864,optionLeft,45,880,1,18,0,18,0,1,,,,,,,,,,,,,,,,,,,,,,,,,,,,,,,,,,,,,,,
,,,,,,,UK,2023-08-16_08h40.52.436,HF_wild_card,2022.2.4,MacIntel,61.05006105,5c584e854e32ef00014af685,64d2fd46c836a06233681665,64dc7d5b60510beb19e2ece9,,,,,,,sngl,resources/Empty.png,resources/DG.BMP,WildCard_NonEx,0.425,-0.010185185,1,0,0,0.664,optionRight,45,925,1,19,0,19,0,1,,,,,,,,,,,,,,,,,,,,,,,,,,,,,,,,,,,,,,,
,,,,,,,UK,2023-08-16_08h40.52.436,HF_wild_card,2022.2.4,MacIntel,61.05006105,5c584e854e32ef00014af685,64d2fd46c836a06233681665,64dc7d5b60510beb19e2ece9,,,,,,,decisionTrl,resources/DBN.BMP,resources/DY.BMP,Door3,0.39537037,-0.02962963,1,0,0,0.645,optionRight,70,995,1,20,0,20,0,1,,,,,,,,,,,,,,,,,,,,,,,,,,,,,,,,,,,,,,,
,,,,,,,UK,2023-08-16_08h40.52.436,HF_wild_card,2022.2.4,MacIntel,61.05006105,5c584e854e32ef00014af685,64d2fd46c836a06233681665,64dc7d5b60510beb19e2ece9,,,,,,,ctch,resources/DB.BMP,resources/DY.BMP,Door2,-0.401851852,-0.033333333,1,0,0,0.812,optionLeft,20,1015,1,21,0,21,0,1,,,,,,,,,,,,,,,,,,,,,,,,,,,,,,,,,,,,,,,
,,,,,,,UK,2023-08-16_08h40.52.436,HF_wild_card,2022.2.4,MacIntel,61.05006105,5c584e854e32ef00014af685,64d2fd46c836a06233681665,64dc7d5b60510beb19e2ece9,,,,,,,sngl,resources/Empty.png,resources/DG.BMP,WildCard_NonEx,0.392592593,-0.02962963,1,0,0,0.792,optionRight,55,1070,1,22,0,22,0,1,,,,,,,,,,,,,,,,,,,,,,,,,,,,,,,,,,,,,,,
,,,,,,,UK,2023-08-16_08h40.52.436,HF_wild_card,2022.2.4,MacIntel,61.05006105,5c584e854e32ef00014af685,64d2fd46c836a06233681665,64dc7d5b60510beb19e2ece9,,,,,,,ctch,resources/DY.BMP,resources/DB.BMP,Door2,0.388888889,-0.032407407,1,0,0,0.645,optionRight,20,1090,1,23,0,23,0,1,,,,,,,,,,,,,,,,,,,,,,,,,,,,,,,,,,,,,,,
,,,,,,,UK,2023-08-16_08h40.52.436,HF_wild_card,2022.2.4,MacIntel,61.05006105,5c584e854e32ef00014af685,64d2fd46c836a06233681665,64dc7d5b60510beb19e2ece9,,,,,,,ctch,resources/DR.BMP,resources/DBN.BMP,Door1,-0.388888889,-0.046296296,1,0,0,0.712,optionLeft,30,1120,1,24,0,24,0,1,,,,,,,,,,,,,,,,,,,,,,,,,,,,,,,,,,,,,,,
,,,,,,,UK,2023-08-16_08h40.52.436,HF_wild_card,2022.2.4,MacIntel,61.05006105,5c584e854e32ef00014af685,64d2fd46c836a06233681665,64dc7d5b60510beb19e2ece9,,,,,,,decisionTrl,resources/DB.BMP,resources/DG.BMP,WildCard_NonEx,0.414814815,-0.015740741,1,0,0,0.695,optionRight,55,1175,1,25,0,25,0,1,,,,,,,,,,,,,,,,,,,,,,,,,,,,,,,,,,,,,,,
,,,,,,,UK,2023-08-16_08h40.52.436,HF_wild_card,2022.2.4,MacIntel,61.05006105,5c584e854e32ef00014af685,64d2fd46c836a06233681665,64dc7d5b60510beb19e2ece9,,,,,,,decisionTrl,resources/DB.BMP,resources/DR.BMP,Door1,0.386111111,-0.047222222,1,0,0,0.678,optionRight,30,1205,1,26,0,26,0,1,,,,,,,,,,,,,,,,,,,,,,,,,,,,,,,,,,,,,,,
,,,,,,,UK,2023-08-16_08h40.52.436,HF_wild_card,2022.2.4,MacIntel,61.05006105,5c584e854e32ef00014af685,64d2fd46c836a06233681665,64dc7d5b60510beb19e2ece9,,,,,,,sngl,resources/Empty.png,resources/DY.BMP,Door3,0.406481481,-0.027777778,1,0,0,0.881,optionRight,70,1275,1,27,0,27,0,1,,,,,,,,,,,,,,,,,,,,,,,,,,,,,,,,,,,,,,,
,,,,,,,UK,2023-08-16_08h40.52.436,HF_wild_card,2022.2.4,MacIntel,61.05006105,5c584e854e32ef00014af685,64d2fd46c836a06233681665,64dc7d5b60510beb19e2ece9,,,,,,,sngl,resources/DR.BMP,resources/Empty.png,Door1,-0.408333333,-0.050925926,1,0,0,0.729,optionLeft,30,1305,1,28,0,28,0,1,,,,,,,,,,,,,,,,,,,,,,,,,,,,,,,,,,,,,,,
,,,,,,,UK,2023-08-16_08h40.52.436,HF_wild_card,2022.2.4,MacIntel,61.05006105,5c584e854e32ef00014af685,64d2fd46c836a06233681665,64dc7d5b60510beb19e2ece9,,,,,,,decisionTrl,resources/DG.BMP,resources/DB.BMP,WildCard_NonEx,-0.378703704,-0.064814815,1,0,0,1.295,optionLeft,45,1350,1,29,0,29,0,1,,,,,,,,,,,,,,,,,,,,,,,,,,,,,,,,,,,,,,,
,,,,,,,UK,2023-08-16_08h40.52.436,HF_wild_card,2022.2.4,MacIntel,61.05006105,5c584e854e32ef00014af685,64d2fd46c836a06233681665,64dc7d5b60510beb19e2ece9,,,,,,,sngl,resources/Empty.png,resources/DB.BMP,Door2,0.398148148,-0.032407407,1,0,0,0.93,optionRight,20,1370,1,30,0,30,0,1,,,,,,,,,,,,,,,,,,,,,,,,,,,,,,,,,,,,,,,
,,,,,,,UK,2023-08-16_08h40.52.436,HF_wild_card,2022.2.4,MacIntel,61.05006105,5c584e854e32ef00014af685,64d2fd46c836a06233681665,64dc7d5b60510beb19e2ece9,,,,,,,ctch,resources/DY.BMP,resources/DB.BMP,Door2,0.377777778,-0.02962963,1,0,0,0.88,optionRight,20,1390,1,31,0,31,0,1,,,,,,,,,,,,,,,,,,,,,,,,,,,,,,,,,,,,,,,
,,,,,,,UK,2023-08-16_08h40.52.436,HF_wild_card,2022.2.4,MacIntel,61.05006105,5c584e854e32ef00014af685,64d2fd46c836a06233681665,64dc7d5b60510beb19e2ece9,,,,,,,decisionTrl,resources/DBN.BMP,resources/DG.BMP,Door4,-0.406481481,-0.018518519,1,0,0,0.814,optionLeft,80,1470,1,32,0,32,0,1,,,,,,,,,,,,,,,,,,,,,,,,,,,,,,,,,,,,,,,
,,,,,,,UK,2023-08-16_08h40.52.436,HF_wild_card,2022.2.4,MacIntel,61.05006105,5c584e854e32ef00014af685,64d2fd46c836a06233681665,64dc7d5b60510beb19e2ece9,,,,,,,decisionTrl,resources/DY.BMP,resources/DG.BMP,WildCard_NonEx,0.40462963,-0.02037037,1,0,0,0.796,optionRight,45,1515,1,33,0,33,0,1,,,,,,,,,,,,,,,,,,,,,,,,,,,,,,,,,,,,,,,
,,,,,,,UK,2023-08-16_08h40.52.436,HF_wild_card,2022.2.4,MacIntel,61.05006105,5c584e854e32ef00014af685,64d2fd46c836a06233681665,64dc7d5b60510beb19e2ece9,,,,,,,sngl,resources/DY.BMP,resources/Empty.png,Door3,-0.4,-0.051851852,1,0,0,0.797,optionLeft,70,1585,1,34,0,34,0,1,,,,,,,,,,,,,,,,,,,,,,,,,,,,,,,,,,,,,,,
,,,,,,,UK,2023-08-16_08h40.52.436,HF_wild_card,2022.2.4,MacIntel,61.05006105,5c584e854e32ef00014af685,64d2fd46c836a06233681665,64dc7d5b60510beb19e2ece9,,,,,,,sngl,resources/DBN.BMP,resources/Empty.png,Door4,-0.388888889,-0.018518519,1,0,0,0.793,optionLeft,80,1665,1,35,0,35,0,1,,,,,,,,,,,,,,,,,,,,,,,,,,,,,,,,,,,,,,,
,,,,,,,UK,2023-08-16_08h40.52.436,HF_wild_card,2022.2.4,MacIntel,61.05006105,5c584e854e32ef00014af685,64d2fd46c836a06233681665,64dc7d5b60510beb19e2ece9,,,,,,,decisionTrl,resources/DBN.BMP,resources/DY.BMP,Door3,0.409259259,-0.031481481,1,0,0,0.811,optionRight,70,1735,1,36,0,36,0,1,,,,,,,,,,,,,,,,,,,,,,,,,,,,,,,,,,,,,,,
,,,,,,,UK,2023-08-16_08h40.52.436,HF_wild_card,2022.2.4,MacIntel,61.05006105,5c584e854e32ef00014af685,64d2fd46c836a06233681665,64dc7d5b60510beb19e2ece9,,,,,,,ctch,resources/DBN.BMP,resources/DR.BMP,Door1,0.393518519,-0.015740741,1,0,0,0.578,optionRight,30,1765,1,37,0,37,0,1,,,,,,,,,,,,,,,,,,,,,,,,,,,,,,,,,,,,,,,
,,,,,,,UK,2023-08-16_08h40.52.436,HF_wild_card,2022.2.4,MacIntel,61.05006105,5c584e854e32ef00014af685,64d2fd46c836a06233681665,64dc7d5b60510beb19e2ece9,,,,,,,decisionTrl,resources/DB.BMP,resources/DR.BMP,Door2,-0.423148148,-0.039814815,1,0,0,0.762,optionLeft,20,1785,1,38,0,38,0,1,,,,,,,,,,,,,,,,,,,,,,,,,,,,,,,,,,,,,,,
,,,,,,,UK,2023-08-16_08h40.52.436,HF_wild_card,2022.2.4,MacIntel,61.05006105,5c584e854e32ef00014af685,64d2fd46c836a06233681665,64dc7d5b60510beb19e2ece9,,,,,,,sngl,resources/DG.BMP,resources/Empty.png,WildCard_NonEx,-0.387962963,-0.046296296,1,0,0,0.679,optionLeft,55,1840,1,39,0,39,0,1,,,,,,,,,,,,,,,,,,,,,,,,,,,,,,,,,,,,,,,
,,,,,,,UK,2023-08-16_08h40.52.436,HF_wild_card,2022.2.4,MacIntel,61.05006105,5c584e854e32ef00014af685,64d2fd46c836a06233681665,64dc7d5b60510beb19e2ece9,,,,,,,ctch,resources/DR.BMP,resources/DBN.BMP,Door1,-0.398148148,-0.039814815,1,0,0,0.712,optionLeft,30,1870,1,40,0,40,0,1,,,,,,,,,,,,,,,,,,,,,,,,,,,,,,,,,,,,,,,
,,,,,,,UK,2023-08-16_08h40.52.436,HF_wild_card,2022.2.4,MacIntel,61.05006105,5c584e854e32ef00014af685,64d2fd46c836a06233681665,64dc7d5b60510beb19e2ece9,,,,,,,decisionTrl,resources/DBN.BMP,resources/DY.BMP,Door4,-0.377777778,-0.013888889,1,0,0,0.713,optionLeft,80,1950,1,41,0,41,0,1,,,,,,,,,,,,,,,,,,,,,,,,,,,,,,,,,,,,,,,
,,,,,,,UK,2023-08-16_08h40.52.436,HF_wild_card,2022.2.4,MacIntel,61.05006105,5c584e854e32ef00014af685,64d2fd46c836a06233681665,64dc7d5b60510beb19e2ece9,,,,,,,decisionTrl,resources/DBN.BMP,resources/DY.BMP,Door4,-0.40462963,-0.015740741,1,0,0,0.898,optionLeft,80,2030,1,42,0,42,0,1,,,,,,,,,,,,,,,,,,,,,,,,,,,,,,,,,,,,,,,
,,,,,,,UK,2023-08-16_08h40.52.436,HF_wild_card,2022.2.4,MacIntel,61.05006105,5c584e854e32ef00014af685,64d2fd46c836a06233681665,64dc7d5b60510beb19e2ece9,,,,,,,decisionTrl,resources/DG.BMP,resources/DR.BMP,WildCard_NonEx,-0.361111111,-0.044444444,1,0,0,0.846,optionLeft,45,2075,1,43,0,43,0,1,,,,,,,,,,,,,,,,,,,,,,,,,,,,,,,,,,,,,,,
,,,,,,,UK,2023-08-16_08h40.52.436,HF_wild_card,2022.2.4,MacIntel,61.05006105,5c584e854e32ef00014af685,64d2fd46c836a06233681665,64dc7d5b60510beb19e2ece9,,,,,,,,,,,,,,,,,,,,,,,,,,0,0,0,0,1,,,,,,,,,,,,,,,,,,,,,,,,,,,,,,,,,,
,,,,,,,UK,2023-08-16_08h40.52.436,HF_wild_card,2022.2.4,MacIntel,61.05006105,5c584e854e32ef00014af685,64d2fd46c836a06233681665,64dc7d5b60510beb19e2ece9,,,,,,,ctch,resources/DBN.BMP,resources/DR.BMP,Door1,0.352777778,-0.05462963,1,0,0,1.043,optionRight,30,2105,2,0,0,0,0,1,,,,,,,,,,,,,,,,,,,,,,,,,,,,,,,,,,,,,,,
,,,,,,,UK,2023-08-16_08h40.52.436,HF_wild_card,2022.2.4,MacIntel,61.05006105,5c584e854e32ef00014af685,64d2fd46c836a06233681665,64dc7d5b60510beb19e2ece9,,,,,,,ctch,resources/DBN.BMP,resources/DR.BMP,Door4,-0.394444444,-0.018518519,1,0,0,0.547,optionLeft,60,2165,2,1,0,1,0,1,,,,,,,,,,,,,,,,,,,,,,,,,,,,,,,,,,,,,,,
,,,,,,,UK,2023-08-16_08h40.52.436,HF_wild_card,2022.2.4,MacIntel,61.05006105,5c584e854e32ef00014af685,64d2fd46c836a06233681665,64dc7d5b60510beb19e2ece9,,,,,,,sngl,resources/Empty.png,resources/DY.BMP,Door3,0.374074074,-0.026851852,1,0,0,0.514,optionRight,70,2235,2,2,0,2,0,1,,,,,,,,,,,,,,,,,,,,,,,,,,,,,,,,,,,,,,,
,,,,,,,UK,2023-08-16_08h40.52.436,HF_wild_card,2022.2.4,MacIntel,61.05006105,5c584e854e32ef00014af685,64d2fd46c836a06233681665,64dc7d5b60510beb19e2ece9,,,,,,,decisionTrl,resources/DY.BMP,resources/DG.BMP,WildCard_NonEx,0.414814815,-0.025,1,0,0,0.727,optionRight,45,2280,2,3,0,3,0,1,,,,,,,,,,,,,,,,,,,,,,,,,,,,,,,,,,,,,,,
,,,,,,,UK,2023-08-16_08h40.52.436,HF_wild_card,2022.2.4,MacIntel,61.05006105,5c584e854e32ef00014af685,64d2fd46c836a06233681665,64dc7d5b60510beb19e2ece9,,,,,,,ctch,resources/DR.BMP,resources/DBN.BMP,Door1,-0.401851852,-0.035185185,1,0,0,0.711,optionLeft,30,2310,2,4,0,4,0,1,,,,,,,,,,,,,,,,,,,,,,,,,,,,,,,,,,,,,,,
,,,,,,,UK,2023-08-16_08h40.52.436,HF_wild_card,2022.2.4,MacIntel,61.05006105,5c584e854e32ef00014af685,64d2fd46c836a06233681665,64dc7d5b60510beb19e2ece9,,,,,,,decisionTrl,resources/DY.BMP,resources/DBN.BMP,Door3,-0.406481481,-0.049074074,1,0,0,0.496,optionLeft,70,2380,2,5,0,5,0,1,,,,,,,,,,,,,,,,,,,,,,,,,,,,,,,,,,,,,,,
,,,,,,,UK,2023-08-16_08h40.52.436,HF_wild_card,2022.2.4,MacIntel,61.05006105,5c584e854e32ef00014af685,64d2fd46c836a06233681665,64dc7d5b60510beb19e2ece9,,,,,,,sngl,resources/DB.BMP,resources/Empty.png,Door2,-0.414814815,-0.035185185,1,0,0,0.895,optionLeft,20,2400,2,6,0,6,0,1,,,,,,,,,,,,,,,,,,,,,,,,,,,,,,,,,,,,,,,
,,,,,,,UK,2023-08-16_08h40.52.436,HF_wild_card,2022.2.4,MacIntel,61.05006105,5c584e854e32ef00014af685,64d2fd46c836a06233681665,64dc7d5b60510beb19e2ece9,,,,,,,sngl,resources/DG.BMP,resources/Empty.png,WildCard_NonEx,-0.387962963,-0.051851852,1,0,0,0.812,optionLeft,45,2445,2,7,0,7,0,1,,,,,,,,,,,,,,,,,,,,,,,,,,,,,,,,,,,,,,,
,,,,,,,UK,2023-08-16_08h40.52.436,HF_wild_card,2022.2.4,MacIntel,61.05006105,5c584e854e32ef00014af685,64d2fd46c836a06233681665,64dc7d5b60510beb19e2ece9,,,,,,,sngl,resources/DY.BMP,resources/Empty.png,Door3,-0.394444444,-0.037037037,1,0,0,0.62,optionLeft,70,2515,2,8,0,8,0,1,,,,,,,,,,,,,,,,,,,,,,,,,,,,,,,,,,,,,,,
,,,,,,,UK,2023-08-16_08h40.52.436,HF_wild_card,2022.2.4,MacIntel,61.05006105,5c584e854e32ef00014af685,64d2fd46c836a06233681665,64dc7d5b60510beb19e2ece9,,,,,,,sngl,resources/Empty.png,resources/DBN.BMP,Door4,0.386111111,-0.012037037,1,0,0,0.613,optionRight,80,2595,2,9,0,9,0,1,,,,,,,,,,,,,,,,,,,,,,,,,,,,,,,,,,,,,,,
,,,,,,,UK,2023-08-16_08h40.52.436,HF_wild_card,2022.2.4,MacIntel,61.05006105,5c584e854e32ef00014af685,64d2fd46c836a06233681665,64dc7d5b60510beb19e2ece9,,,,,,,decisionTrl,resources/DY.BMP,resources/DBN.BMP,Door4,0.464814815,0.012962963,1,0,0,0.479,optionRight,80,2675,2,10,0,10,0,1,,,,,,,,,,,,,,,,,,,,,,,,,,,,,,,,,,,,,,,
,,,,,,,UK,2023-08-16_08h40.52.436,HF_wild_card,2022.2.4,MacIntel,61.05006105,5c584e854e32ef00014af685,64d2fd46c836a06233681665,64dc7d5b60510beb19e2ece9,,,,,,,decisionTrl,resources/DB.BMP,resources/DR.BMP,Door1,0.377777778,0.013888889,1,0,0,0.377,optionRight,30,2705,2,11,0,11,0,1,,,,,,,,,,,,,,,,,,,,,,,,,,,,,,,,,,,,,,,
,,,,,,,UK,2023-08-16_08h40.52.436,HF_wild_card,2022.2.4,MacIntel,61.05006105,5c584e854e32ef00014af685,64d2fd46c836a06233681665,64dc7d5b60510beb19e2ece9,,,,,,,ctch,resources/DY.BMP,resources/DB.BMP,Door2,0.344444444,0.016666667,1,0,0,0.346,optionRight,20,2725,2,12,0,12,0,1,,,,,,,,,,,,,,,,,,,,,,,,,,,,,,,,,,,,,,,
,,,,,,,UK,2023-08-16_08h40.52.436,HF_wild_card,2022.2.4,MacIntel,61.05006105,5c584e854e32ef00014af685,64d2fd46c836a06233681665,64dc7d5b60510beb19e2ece9,,,,,,,decisionTrl,resources/DB.BMP,resources/DR.BMP,Door1,0.380555556,-0.019444444,1,0,0,0.413,optionRight,30,2755,2,13,0,13,0,1,,,,,,,,,,,,,,,,,,,,,,,,,,,,,,,,,,,,,,,
,,,,,,,UK,2023-08-16_08h40.52.436,HF_wild_card,2022.2.4,MacIntel,61.05006105,5c584e854e32ef00014af685,64d2fd46c836a06233681665,64dc7d5b60510beb19e2ece9,,,,,,,ctch,resources/DR.BMP,resources/DBN.BMP,Door1,-0.34537037,-0.046296296,1,0,0,0.396,optionLeft,30,2785,2,14,0,14,0,1,,,,,,,,,,,,,,,,,,,,,,,,,,,,,,,,,,,,,,,
,,,,,,,UK,2023-08-16_08h40.52.436,HF_wild_card,2022.2.4,MacIntel,61.05006105,5c584e854e32ef00014af685,64d2fd46c836a06233681665,64dc7d5b60510beb19e2ece9,,,,,,,sngl,resources/DR.BMP,resources/Empty.png,Door1,-0.35462963,-0.034259259,1,0,0,0.646,optionLeft,30,2815,2,15,0,15,0,1,,,,,,,,,,,,,,,,,,,,,,,,,,,,,,,,,,,,,,,
,,,,,,,UK,2023-08-16_08h40.52.436,HF_wild_card,2022.2.4,MacIntel,61.05006105,5c584e854e32ef00014af685,64d2fd46c836a06233681665,64dc7d5b60510beb19e2ece9,,,,,,,decisionTrl,resources/DR.BMP,resources/DB.BMP,Door2,0.388888889,-0.049074074,1,0,0,0.779,optionRight,20,2835,2,16,0,16,0,1,,,,,,,,,,,,,,,,,,,,,,,,,,,,,,,,,,,,,,,
,,,,,,,UK,2023-08-16_08h40.52.436,HF_wild_card,2022.2.4,MacIntel,61.05006105,5c584e854e32ef00014af685,64d2fd46c836a06233681665,64dc7d5b60510beb19e2ece9,,,,,,,ctch,resources/DY.BMP,resources/DB.BMP,Door3,-0.369444444,-0.030555556,1,0,0,0.426,optionLeft,70,2905,2,17,0,17,0,1,,,,,,,,,,,,,,,,,,,,,,,,,,,,,,,,,,,,,,,
,,,,,,,UK,2023-08-16_08h40.52.436,HF_wild_card,2022.2.4,MacIntel,61.05006105,5c584e854e32ef00014af685,64d2fd46c836a06233681665,64dc7d5b60510beb19e2ece9,,,,,,,sngl,resources/DBN.BMP,resources/Empty.png,Door4,-0.381481481,-0.017592593,1,0,0,0.644,optionLeft,60,2965,2,18,0,18,0,1,,,,,,,,,,,,,,,,,,,,,,,,,,,,,,,,,,,,,,,
,,,,,,,UK,2023-08-16_08h40.52.436,HF_wild_card,2022.2.4,MacIntel,61.05006105,5c584e854e32ef00014af685,64d2fd46c836a06233681665,64dc7d5b60510beb19e2ece9,,,,,,,decisionTrl,resources/DBN.BMP,resources/DY.BMP,Door4,-0.412037037,-0.032407407,1,0,0,0.86,optionLeft,80,3045,2,19,0,19,0,1,,,,,,,,,,,,,,,,,,,,,,,,,,,,,,,,,,,,,,,
,,,,,,,UK,2023-08-16_08h40.52.436,HF_wild_card,2022.2.4,MacIntel,61.05006105,5c584e854e32ef00014af685,64d2fd46c836a06233681665,64dc7d5b60510beb19e2ece9,,,,,,,ctch,resources/DB.BMP,resources/DY.BMP,Door2,-0.400925926,-0.043518519,1,0,0,0.897,optionLeft,20,3065,2,20,0,20,0,1,,,,,,,,,,,,,,,,,,,,,,,,,,,,,,,,,,,,,,,
,,,,,,,UK,2023-08-16_08h40.52.436,HF_wild_card,2022.2.4,MacIntel,61.05006105,5c584e854e32ef00014af685,64d2fd46c836a06233681665,64dc7d5b60510beb19e2ece9,,,,,,,sngl,resources/Empty.png,resources/DG.BMP,WildCard_NonEx,0.409259259,0.005555556,1,0,0,0.713,optionRight,45,3110,2,21,0,21,0,1,,,,,,,,,,,,,,,,,,,,,,,,,,,,,,,,,,,,,,,
,,,,,,,UK,2023-08-16_08h40.52.436,HF_wild_card,2022.2.4,MacIntel,61.05006105,5c584e854e32ef00014af685,64d2fd46c836a06233681665,64dc7d5b60510beb19e2ece9,,,,,,,decisionTrl,resources/DBN.BMP,resources/DG.BMP,Door4,-0.398148148,-0.034259259,1,0,0,0.945,optionLeft,60,3170,2,22,0,22,0,1,,,,,,,,,,,,,,,,,,,,,,,,,,,,,,,,,,,,,,,
,,,,,,,UK,2023-08-16_08h40.52.436,HF_wild_card,2022.2.4,MacIntel,61.05006105,5c584e854e32ef00014af685,64d2fd46c836a06233681665,64dc7d5b60510beb19e2ece9,,,,,,,decisionTrl,resources/DR.BMP,resources/DB.BMP,Door2,0.397222222,-0.036111111,1,0,0,0.63,optionRight,20,3190,2,23,0,23,0,1,,,,,,,,,,,,,,,,,,,,,,,,,,,,,,,,,,,,,,,
,,,,,,,UK,2023-08-16_08h40.52.436,HF_wild_card,2022.2.4,MacIntel,61.05006105,5c584e854e32ef00014af685,64d2fd46c836a06233681665,64dc7d5b60510beb19e2ece9,,,,,,,decisionTrl,resources/DG.BMP,resources/DB.BMP,WildCard_NonEx,-0.393518519,-0.028703704,1,0,0,1.049,optionLeft,45,3235,2,24,0,24,0,1,,,,,,,,,,,,,,,,,,,,,,,,,,,,,,,,,,,,,,,
,,,,,,,UK,2023-08-16_08h40.52.436,HF_wild_card,2022.2.4,MacIntel,61.05006105,5c584e854e32ef00014af685,64d2fd46c836a06233681665,64dc7d5b60510beb19e2ece9,,,,,,,decisionTrl,resources/DB.BMP,resources/DR.BMP,Door1,0.409259259,-0.042592593,1,0,0,0.762,optionRight,30,3265,2,25,0,25,0,1,,,,,,,,,,,,,,,,,,,,,,,,,,,,,,,,,,,,,,,
,,,,,,,UK,2023-08-16_08h40.52.436,HF_wild_card,2022.2.4,MacIntel,61.05006105,5c584e854e32ef00014af685,64d2fd46c836a06233681665,64dc7d5b60510beb19e2ece9,,,,,,,decisionTrl,resources/DB.BMP,resources/DG.BMP,WildCard_NonEx,0.388888889,-0.025,1,0,0,0.93,optionRight,55,3320,2,26,0,26,0,1,,,,,,,,,,,,,,,,,,,,,,,,,,,,,,,,,,,,,,,
,,,,,,,UK,2023-08-16_08h40.52.436,HF_wild_card,2022.2.4,MacIntel,61.05006105,5c584e854e32ef00014af685,64d2fd46c836a06233681665,64dc7d5b60510beb19e2ece9,,,,,,,decisionTrl,resources/DR.BMP,resources/DB.BMP,Door1,-0.410185185,-0.048148148,1,0,0,0.795,optionLeft,30,3350,2,27,0,27,0,1,,,,,,,,,,,,,,,,,,,,,,,,,,,,,,,,,,,,,,,
,,,,,,,UK,2023-08-16_08h40.52.436,HF_wild_card,2022.2.4,MacIntel,61.05006105,5c584e854e32ef00014af685,64d2fd46c836a06233681665,64dc7d5b60510beb19e2ece9,,,,,,,sngl,resources/Empty.png,resources/DB.BMP,Door2,0.388888889,-0.009259259,1,0,0,0.43,optionRight,40,3390,2,28,0,28,0,1,,,,,,,,,,,,,,,,,,,,,,,,,,,,,,,,,,,,,,,
,,,,,,,UK,2023-08-16_08h40.52.436,HF_wild_card,2022.2.4,MacIntel,61.05006105,5c584e854e32ef00014af685,64d2fd46c836a06233681665,64dc7d5b60510beb19e2ece9,,,,,,,decisionTrl,resources/DBN.BMP,resources/DY.BMP,Door4,-0.324074074,-0.006481481,1,0,0,1.149,optionLeft,60,3450,2,29,0,29,0,1,,,,,,,,,,,,,,,,,,,,,,,,,,,,,,,,,,,,,,,
,,,,,,,UK,2023-08-16_08h40.52.436,HF_wild_card,2022.2.4,MacIntel,61.05006105,5c584e854e32ef00014af685,64d2fd46c836a06233681665,64dc7d5b60510beb19e2ece9,,,,,,,decisionTrl,resources/DBN.BMP,resources/DY.BMP,Door4,-0.432407407,0.002777778,1,0,0,0.872,optionLeft,60,3510,2,30,0,30,0,1,,,,,,,,,,,,,,,,,,,,,,,,,,,,,,,,,,,,,,,
,,,,,,,UK,2023-08-16_08h40.52.436,HF_wild_card,2022.2.4,MacIntel,61.05006105,5c584e854e32ef00014af685,64d2fd46c836a06233681665,64dc7d5b60510beb19e2ece9,,,,,,,sngl,resources/DG.BMP,resources/Empty.png,WildCard_NonEx,-0.374074074,-0.032407407,1,0,0,0.593,optionLeft,55,3565,2,31,0,31,0,1,,,,,,,,,,,,,,,,,,,,,,,,,,,,,,,,,,,,,,,
,,,,,,,UK,2023-08-16_08h40.52.436,HF_wild_card,2022.2.4,MacIntel,61.05006105,5c584e854e32ef00014af685,64d2fd46c836a06233681665,64dc7d5b60510beb19e2ece9,,,,,,,decisionTrl,resources/DR.BMP,resources/DB.BMP,Door2,0.366666667,-0.037962963,1,0,0,0.679,optionRight,20,3585,2,32,0,32,0,1,,,,,,,,,,,,,,,,,,,,,,,,,,,,,,,,,,,,,,,
,,,,,,,UK,2023-08-16_08h40.52.436,HF_wild_card,2022.2.4,MacIntel,61.05006105,5c584e854e32ef00014af685,64d2fd46c836a06233681665,64dc7d5b60510beb19e2ece9,,,,,,,decisionTrl,resources/DR.BMP,resources/DG.BMP,Door1,-0.353703704,-0.044444444,1,0,0,0.46,optionLeft,30,3615,2,33,0,33,0,1,,,,,,,,,,,,,,,,,,,,,,,,,,,,,,,,,,,,,,,
,,,,,,,UK,2023-08-16_08h40.52.436,HF_wild_card,2022.2.4,MacIntel,61.05006105,5c584e854e32ef00014af685,64d2fd46c836a06233681665,64dc7d5b60510beb19e2ece9,,,,,,,decisionTrl,resources/DG.BMP,resources/DBN.BMP,Door4,0.369444444,-0.014814815,1,0,0,0.58,optionRight,60,3675,2,34,0,34,0,1,,,,,,,,,,,,,,,,,,,,,,,,,,,,,,,,,,,,,,,
,,,,,,,UK,2023-08-16_08h40.52.436,HF_wild_card,2022.2.4,MacIntel,61.05006105,5c584e854e32ef00014af685,64d2fd46c836a06233681665,64dc7d5b60510beb19e2ece9,,,,,,,decisionTrl,resources/DB.BMP,resources/DR.BMP,Door1,0.37962963,-0.011111111,1,0,0,0.613,optionRight,30,3705,2,35,0,35,0,1,,,,,,,,,,,,,,,,,,,,,,,,,,,,,,,,,,,,,,,
,,,,,,,UK,2023-08-16_08h40.52.436,HF_wild_card,2022.2.4,MacIntel,61.05006105,5c584e854e32ef00014af685,64d2fd46c836a06233681665,64dc7d5b60510beb19e2ece9,,,,,,,ctch,resources/DB.BMP,resources/DY.BMP,Door3,0.423148148,-0.024074074,1,0,0,1.116,optionRight,70,3775,2,36,0,36,0,1,,,,,,,,,,,,,,,,,,,,,,,,,,,,,,,,,,,,,,,
,,,,,,,UK,2023-08-16_08h40.52.436,HF_wild_card,2022.2.4,MacIntel,61.05006105,5c584e854e32ef00014af685,64d2fd46c836a06233681665,64dc7d5b60510beb19e2ece9,,,,,,,sngl,resources/Empty.png,resources/DR.BMP,Door1,0.385185185,-0.036111111,1,0,0,0.73,optionRight,30,3805,2,37,0,37,0,1,,,,,,,,,,,,,,,,,,,,,,,,,,,,,,,,,,,,,,,
,,,,,,,UK,2023-08-16_08h40.52.436,HF_wild_card,2022.2.4,MacIntel,61.05006105,5c584e854e32ef00014af685,64d2fd46c836a06233681665,64dc7d5b60510beb19e2ece9,,,,,,,decisionTrl,resources/DG.BMP,resources/DY.BMP,Door3,0.374074074,-0.028703704,1,0,0,1.047,optionRight,70,3875,2,38,0,38,0,1,,,,,,,,,,,,,,,,,,,,,,,,,,,,,,,,,,,,,,,
,,,,,,,UK,2023-08-16_08h40.52.436,HF_wild_card,2022.2.4,MacIntel,61.05006105,5c584e854e32ef00014af685,64d2fd46c836a06233681665,64dc7d5b60510beb19e2ece9,,,,,,,decisionTrl,resources/DY.BMP,resources/DBN.BMP,Door4,0.402777778,0,1,0,0,0.814,optionRight,60,3935,2,39,0,39,0,1,,,,,,,,,,,,,,,,,,,,,,,,,,,,,,,,,,,,,,,
,,,,,,,UK,2023-08-16_08h40.52.436,HF_wild_card,2022.2.4,MacIntel,61.05006105,5c584e854e32ef00014af685,64d2fd46c836a06233681665,64dc7d5b60510beb19e2ece9,,,,,,,sngl,resources/Empty.png,resources/DG.BMP,WildCard_NonEx,0.411111111,-0.015740741,1,0,0,0.562,optionRight,55,3990,2,40,0,40,0,1,,,,,,,,,,,,,,,,,,,,,,,,,,,,,,,,,,,,,,,
,,,,,,,UK,2023-08-16_08h40.52.436,HF_wild_card,2022.2.4,MacIntel,61.05006105,5c584e854e32ef00014af685,64d2fd46c836a06233681665,64dc7d5b60510beb19e2ece9,,,,,,,decisionTrl,resources/DBN.BMP,resources/DY.BMP,Door4,-0.387962963,-0.025,1,0,0,0.73,optionLeft,60,4050,2,41,0,41,0,1,,,,,,,,,,,,,,,,,,,,,,,,,,,,,,,,,,,,,,,
,,,,,,,UK,2023-08-16_08h40.52.436,HF_wild_card,2022.2.4,MacIntel,61.05006105,5c584e854e32ef00014af685,64d2fd46c836a06233681665,64dc7d5b60510beb19e2ece9,,,,,,,decisionTrl,resources/DY.BMP,resources/DBN.BMP,Door4,0.363888889,-0.019444444,1,0,0,0.48,optionRight,80,4130,2,42,0,42,0,1,,,,,,,,,,,,,,,,,,,,,,,,,,,,,,,,,,,,,,,
,,,,,,,UK,2023-08-16_08h40.52.436,HF_wild_card,2022.2.4,MacIntel,61.05006105,5c584e854e32ef00014af685,64d2fd46c836a06233681665,64dc7d5b60510beb19e2ece9,,,,,,,decisionTrl,resources/DG.BMP,resources/DR.BMP,WildCard_NonEx,-0.386111111,-0.052777778,1,0,0,0.863,optionLeft,45,4175,2,43,0,43,0,1,,,,,,,,,,,,,,,,,,,,,,,,,,,,,,,,,,,,,,,
,,,,,,,UK,2023-08-16_08h40.52.436,HF_wild_card,2022.2.4,MacIntel,61.05006105,5c584e854e32ef00014af685,64d2fd46c836a06233681665,64dc7d5b60510beb19e2ece9,,,,,,,,,,,,,,,,,,,,,,,,,,1,0,1,0,1,,,,,,,,,,,,,,,,,,,,,,,,,,,,,,,,,,
,,,,,,,UK,2023-08-16_08h40.52.436,HF_wild_card,2022.2.4,MacIntel,61.05006105,5c584e854e32ef00014af685,64d2fd46c836a06233681665,64dc7d5b60510beb19e2ece9,,,,,,,sngl,resources/DR.BMP,resources/Empty.png,Door1,-0.375,-0.073148148,1,0,0,0.972,optionLeft,30,4205,3,0,0,0,0,1,,,,,,,,,,,,,,,,,,,,,,,,,,,,,,,,,,,,,,,
,,,,,,,UK,2023-08-16_08h40.52.436,HF_wild_card,2022.2.4,MacIntel,61.05006105,5c584e854e32ef00014af685,64d2fd46c836a06233681665,64dc7d5b60510beb19e2ece9,,,,,,,decisionTrl,resources/DR.BMP,resources/DB.BMP,Door2,0.396296296,-0.028703704,1,0,0,0.479,optionRight,20,4225,3,1,0,1,0,1,,,,,,,,,,,,,,,,,,,,,,,,,,,,,,,,,,,,,,,
,,,,,,,UK,2023-08-16_08h40.52.436,HF_wild_card,2022.2.4,MacIntel,61.05006105,5c584e854e32ef00014af685,64d2fd46c836a06233681665,64dc7d5b60510beb19e2ece9,,,,,,,decisionTrl,resources/DBN.BMP,resources/DY.BMP,Door4,-0.39537037,-0.001851852,1,0,0,0.411,optionLeft,80,4305,3,2,0,2,0,1,,,,,,,,,,,,,,,,,,,,,,,,,,,,,,,,,,,,,,,
,,,,,,,UK,2023-08-16_08h40.52.436,HF_wild_card,2022.2.4,MacIntel,61.05006105,5c584e854e32ef00014af685,64d2fd46c836a06233681665,64dc7d5b60510beb19e2ece9,,,,,,,decisionTrl,resources/DY.BMP,resources/DBN.BMP,Door4,0.393518519,-0.025,1,0,0,0.812,optionRight,80,4385,3,3,0,3,0,1,,,,,,,,,,,,,,,,,,,,,,,,,,,,,,,,,,,,,,,
,,,,,,,UK,2023-08-16_08h40.52.436,HF_wild_card,2022.2.4,MacIntel,61.05006105,5c584e854e32ef00014af685,64d2fd46c836a06233681665,64dc7d5b60510beb19e2ece9,,,,,,,decisionTrl,resources/DG.BMP,resources/DB.BMP,WildCard_NonEx,-0.37037037,-0.039814815,1,0,0,0.646,optionLeft,55,4440,3,4,0,4,0,1,,,,,,,,,,,,,,,,,,,,,,,,,,,,,,,,,,,,,,,
,,,,,,,UK,2023-08-16_08h40.52.436,HF_wild_card,2022.2.4,MacIntel,61.05006105,5c584e854e32ef00014af685,64d2fd46c836a06233681665,64dc7d5b60510beb19e2ece9,,,,,,,sngl,resources/DY.BMP,resources/Empty.png,Door3,-0.367592593,-0.028703704,1,0,0,0.746,optionLeft,70,4510,3,5,0,5,0,1,,,,,,,,,,,,,,,,,,,,,,,,,,,,,,,,,,,,,,,
,,,,,,,UK,2023-08-16_08h40.52.436,HF_wild_card,2022.2.4,MacIntel,61.05006105,5c584e854e32ef00014af685,64d2fd46c836a06233681665,64dc7d5b60510beb19e2ece9,,,,,,,decisionTrl,resources/DB.BMP,resources/DR.BMP,Door1,0.383333333,-0.032407407,1,0,0,0.495,optionRight,30,4540,3,6,0,6,0,1,,,,,,,,,,,,,,,,,,,,,,,,,,,,,,,,,,,,,,,
,,,,,,,UK,2023-08-16_08h40.52.436,HF_wild_card,2022.2.4,MacIntel,61.05006105,5c584e854e32ef00014af685,64d2fd46c836a06233681665,64dc7d5b60510beb19e2ece9,,,,,,,decisionTrl,resources/DB.BMP,resources/DR.BMP,Door2,-0.405555556,-0.046296296,1,0,0,0.48,optionLeft,40,4580,3,7,0,7,0,1,,,,,,,,,,,,,,,,,,,,,,,,,,,,,,,,,,,,,,,
,,,,,,,UK,2023-08-16_08h40.52.436,HF_wild_card,2022.2.4,MacIntel,61.05006105,5c584e854e32ef00014af685,64d2fd46c836a06233681665,64dc7d5b60510beb19e2ece9,,,,,,,sngl,resources/DG.BMP,resources/Empty.png,WildCard_NonEx,-0.412962963,-0.028703704,1,0,0,0.813,optionLeft,55,4635,3,8,0,8,0,1,,,,,,,,,,,,,,,,,,,,,,,,,,,,,,,,,,,,,,,
,,,,,,,UK,2023-08-16_08h40.52.436,HF_wild_card,2022.2.4,MacIntel,61.05006105,5c584e854e32ef00014af685,64d2fd46c836a06233681665,64dc7d5b60510beb19e2ece9,,,,,,,decisionTrl,resources/DB.BMP,resources/DG.BMP,WildCard_NonEx,0.353703704,-0.009259259,1,0,0,0.488,optionRight,45,4680,3,9,0,9,0,1,,,,,,,,,,,,,,,,,,,,,,,,,,,,,,,,,,,,,,,
,,,,,,,UK,2023-08-16_08h40.52.436,HF_wild_card,2022.2.4,MacIntel,61.05006105,5c584e854e32ef00014af685,64d2fd46c836a06233681665,64dc7d5b60510beb19e2ece9,,,,,,,ctch,resources/DR.BMP,resources/DBN.BMP,Door4,0.357407407,-0.023148148,1,0,0,0.829,optionRight,80,4760,3,10,0,10,0,1,,,,,,,,,,,,,,,,,,,,,,,,,,,,,,,,,,,,,,,
,,,,,,,UK,2023-08-16_08h40.52.436,HF_wild_card,2022.2.4,MacIntel,61.05006105,5c584e854e32ef00014af685,64d2fd46c836a06233681665,64dc7d5b60510beb19e2ece9,,,,,,,sngl,resources/Empty.png,resources/DBN.BMP,Door4,0.394444444,0,1,0,0,0.428,optionRight,60,4820,3,11,0,11,0,1,,,,,,,,,,,,,,,,,,,,,,,,,,,,,,,,,,,,,,,
,,,,,,,UK,2023-08-16_08h40.52.436,HF_wild_card,2022.2.4,MacIntel,61.05006105,5c584e854e32ef00014af685,64d2fd46c836a06233681665,64dc7d5b60510beb19e2ece9,,,,,,,ctch,resources/DBN.BMP,resources/DR.BMP,Door4,-0.381481481,-0.021296296,1,0,0,0.963,optionLeft,80,4900,3,12,0,12,0,1,,,,,,,,,,,,,,,,,,,,,,,,,,,,,,,,,,,,,,,
,,,,,,,UK,2023-08-16_08h40.52.436,HF_wild_card,2022.2.4,MacIntel,61.05006105,5c584e854e32ef00014af685,64d2fd46c836a06233681665,64dc7d5b60510beb19e2ece9,,,,,,,decisionTrl,resources/DG.BMP,resources/DR.BMP,WildCard_NonEx,-0.367592593,-0.034259259,1,0,0,0.526,optionLeft,45,4945,3,13,0,13,0,1,,,,,,,,,,,,,,,,,,,,,,,,,,,,,,,,,,,,,,,
,,,,,,,UK,2023-08-16_08h40.52.436,HF_wild_card,2022.2.4,MacIntel,61.05006105,5c584e854e32ef00014af685,64d2fd46c836a06233681665,64dc7d5b60510beb19e2ece9,,,,,,,ctch,resources/DB.BMP,resources/DY.BMP,Door3,0.406481481,-0.007407407,1,0,0,0.543,optionRight,70,5015,3,14,0,14,0,1,,,,,,,,,,,,,,,,,,,,,,,,,,,,,,,,,,,,,,,
,,,,,,,UK,2023-08-16_08h40.52.436,HF_wild_card,2022.2.4,MacIntel,61.05006105,5c584e854e32ef00014af685,64d2fd46c836a06233681665,64dc7d5b60510beb19e2ece9,,,,,,,sngl,resources/DB.BMP,resources/Empty.png,Door2,-0.478703704,-0.030555556,1,0,0,0.477,optionLeft,40,5055,3,15,0,15,0,1,,,,,,,,,,,,,,,,,,,,,,,,,,,,,,,,,,,,,,,
,,,,,,,UK,2023-08-16_08h40.52.436,HF_wild_card,2022.2.4,MacIntel,61.05006105,5c584e854e32ef00014af685,64d2fd46c836a06233681665,64dc7d5b60510beb19e2ece9,,,,,,,decisionTrl,resources/DG.BMP,resources/DY.BMP,Door3,0.396296296,-0.019444444,1,0,0,0.562,optionRight,70,5125,3,16,0,16,0,1,,,,,,,,,,,,,,,,,,,,,,,,,,,,,,,,,,,,,,,
,,,,,,,UK,2023-08-16_08h40.52.436,HF_wild_card,2022.2.4,MacIntel,61.05006105,5c584e854e32ef00014af685,64d2fd46c836a06233681665,64dc7d5b60510beb19e2ece9,,,,,,,sngl,resources/Empty.png,resources/DG.BMP,WildCard_NonEx,0.428703704,-0.018518519,1,0,0,0.48,optionRight,55,5180,3,17,0,17,0,1,,,,,,,,,,,,,,,,,,,,,,,,,,,,,,,,,,,,,,,
,,,,,,,UK,2023-08-16_08h40.52.436,HF_wild_card,2022.2.4,MacIntel,61.05006105,5c584e854e32ef00014af685,64d2fd46c836a06233681665,64dc7d5b60510beb19e2ece9,,,,,,,decisionTrl,resources/DY.BMP,resources/DBN.BMP,Door4,0.440740741,-0.013888889,1,0,0,0.796,optionRight,80,5260,3,18,0,18,0,1,,,,,,,,,,,,,,,,,,,,,,,,,,,,,,,,,,,,,,,
,,,,,,,UK,2023-08-16_08h40.52.436,HF_wild_card,2022.2.4,MacIntel,61.05006105,5c584e854e32ef00014af685,64d2fd46c836a06233681665,64dc7d5b60510beb19e2ece9,,,,,,,decisionTrl,resources/DG.BMP,resources/DBN.BMP,Door4,0.337037037,-0.008333333,1,0,0,0.813,optionRight,80,5340,3,19,0,19,0,1,,,,,,,,,,,,,,,,,,,,,,,,,,,,,,,,,,,,,,,
,,,,,,,UK,2023-08-16_08h40.52.436,HF_wild_card,2022.2.4,MacIntel,61.05006105,5c584e854e32ef00014af685,64d2fd46c836a06233681665,64dc7d5b60510beb19e2ece9,,,,,,,sngl,resources/Empty.png,resources/DG.BMP,WildCard_NonEx,0.468518519,-0.014814815,1,0,0,0.496,optionRight,45,5385,3,20,0,20,0,1,,,,,,,,,,,,,,,,,,,,,,,,,,,,,,,,,,,,,,,
,,,,,,,UK,2023-08-16_08h40.52.436,HF_wild_card,2022.2.4,MacIntel,61.05006105,5c584e854e32ef00014af685,64d2fd46c836a06233681665,64dc7d5b60510beb19e2ece9,,,,,,,ctch,resources/DBN.BMP,resources/DR.BMP,Door4,-0.372222222,-0.017592593,1,0,0,0.88,optionLeft,60,5445,3,21,0,21,0,1,,,,,,,,,,,,,,,,,,,,,,,,,,,,,,,,,,,,,,,
,,,,,,,UK,2023-08-16_08h40.52.436,HF_wild_card,2022.2.4,MacIntel,61.05006105,5c584e854e32ef00014af685,64d2fd46c836a06233681665,64dc7d5b60510beb19e2ece9,,,,,,,decisionTrl,resources/DY.BMP,resources/DBN.BMP,Door4,0.366666667,-0.02962963,1,0,0,0.464,optionRight,80,5525,3,22,0,22,0,1,,,,,,,,,,,,,,,,,,,,,,,,,,,,,,,,,,,,,,,
,,,,,,,UK,2023-08-16_08h40.52.436,HF_wild_card,2022.2.4,MacIntel,61.05006105,5c584e854e32ef00014af685,64d2fd46c836a06233681665,64dc7d5b60510beb19e2ece9,,,,,,,ctch,resources/DY.BMP,resources/DB.BMP,Door3,-0.373148148,-0.034259259,1,0,0,0.496,optionLeft,70,5595,3,23,0,23,0,1,,,,,,,,,,,,,,,,,,,,,,,,,,,,,,,,,,,,,,,
,,,,,,,UK,2023-08-16_08h40.52.436,HF_wild_card,2022.2.4,MacIntel,61.05006105,5c584e854e32ef00014af685,64d2fd46c836a06233681665,64dc7d5b60510beb19e2ece9,,,,,,,decisionTrl,resources/DBN.BMP,resources/DY.BMP,Door4,-0.37037037,-0.021296296,1,0,0,0.561,optionLeft,60,5655,3,24,0,24,0,1,,,,,,,,,,,,,,,,,,,,,,,,,,,,,,,,,,,,,,,
,,,,,,,UK,2023-08-16_08h40.52.436,HF_wild_card,2022.2.4,MacIntel,61.05006105,5c584e854e32ef00014af685,64d2fd46c836a06233681665,64dc7d5b60510beb19e2ece9,,,,,,,decisionTrl,resources/DR.BMP,resources/DB.BMP,Door2,0.350925926,-0.005555556,1,0,0,0.496,optionRight,20,5675,3,25,0,25,0,1,,,,,,,,,,,,,,,,,,,,,,,,,,,,,,,,,,,,,,,
,,,,,,,UK,2023-08-16_08h40.52.436,HF_wild_card,2022.2.4,MacIntel,61.05006105,5c584e854e32ef00014af685,64d2fd46c836a06233681665,64dc7d5b60510beb19e2ece9,,,,,,,sngl,resources/DG.BMP,resources/Empty.png,WildCard_NonEx,-0.35,-0.025,1,0,0,0.479,optionLeft,45,5720,3,26,0,26,0,1,,,,,,,,,,,,,,,,,,,,,,,,,,,,,,,,,,,,,,,
,,,,,,,UK,2023-08-16_08h40.52.436,HF_wild_card,2022.2.4,MacIntel,61.05006105,5c584e854e32ef00014af685,64d2fd46c836a06233681665,64dc7d5b60510beb19e2ece9,,,,,,,ctch,resources/DB.BMP,resources/DY.BMP,Door2,-0.402777778,-0.056481481,1,0,0,0.946,optionLeft,40,5760,3,27,0,27,0,1,,,,,,,,,,,,,,,,,,,,,,,,,,,,,,,,,,,,,,,
,,,,,,,UK,2023-08-16_08h40.52.436,HF_wild_card,2022.2.4,MacIntel,61.05006105,5c584e854e32ef00014af685,64d2fd46c836a06233681665,64dc7d5b60510beb19e2ece9,,,,,,,decisionTrl,resources/DR.BMP,resources/DB.BMP,Door2,0.438888889,-0.019444444,1,0,0,0.526,optionRight,40,5800,3,28,0,28,0,1,,,,,,,,,,,,,,,,,,,,,,,,,,,,,,,,,,,,,,,
,,,,,,,UK,2023-08-16_08h40.52.436,HF_wild_card,2022.2.4,MacIntel,61.05006105,5c584e854e32ef00014af685,64d2fd46c836a06233681665,64dc7d5b60510beb19e2ece9,,,,,,,decisionTrl,resources/DBN.BMP,resources/DY.BMP,Door4,-0.39537037,-0.039814815,1,0,0,0.56,optionLeft,80,5880,3,29,0,29,0,1,,,,,,,,,,,,,,,,,,,,,,,,,,,,,,,,,,,,,,,
,,,,,,,UK,2023-08-16_08h40.52.436,HF_wild_card,2022.2.4,MacIntel,61.05006105,5c584e854e32ef00014af685,64d2fd46c836a06233681665,64dc7d5b60510beb19e2ece9,,,,,,,decisionTrl,resources/DB.BMP,resources/DR.BMP,Door2,-0.350925926,-0.040740741,1,0,0,0.563,optionLeft,40,5920,3,30,0,30,0,1,,,,,,,,,,,,,,,,,,,,,,,,,,,,,,,,,,,,,,,
,,,,,,,UK,2023-08-16_08h40.52.436,HF_wild_card,2022.2.4,MacIntel,61.05006105,5c584e854e32ef00014af685,64d2fd46c836a06233681665,64dc7d5b60510beb19e2ece9,,,,,,,decisionTrl,resources/DB.BMP,resources/DR.BMP,Door1,0.356481481,-0.022222222,1,0,0,0.528,optionRight,30,5950,3,31,0,31,0,1,,,,,,,,,,,,,,,,,,,,,,,,,,,,,,,,,,,,,,,
,,,,,,,UK,2023-08-16_08h40.52.436,HF_wild_card,2022.2.4,MacIntel,61.05006105,5c584e854e32ef00014af685,64d2fd46c836a06233681665,64dc7d5b60510beb19e2ece9,,,,,,,sngl,resources/DBN.BMP,resources/Empty.png,Door4,-0.373148148,-0.023148148,1,0,0,0.496,optionLeft,80,6030,3,32,0,32,0,1,,,,,,,,,,,,,,,,,,,,,,,,,,,,,,,,,,,,,,,
,,,,,,,UK,2023-08-16_08h40.52.436,HF_wild_card,2022.2.4,MacIntel,61.05006105,5c584e854e32ef00014af685,64d2fd46c836a06233681665,64dc7d5b60510beb19e2ece9,,,,,,,decisionTrl,resources/DBN.BMP,resources/DG.BMP,Door4,-0.392592593,-0.008333333,1,0,0,0.746,optionLeft,60,6090,3,33,0,33,0,1,,,,,,,,,,,,,,,,,,,,,,,,,,,,,,,,,,,,,,,
,,,,,,,UK,2023-08-16_08h40.52.436,HF_wild_card,2022.2.4,MacIntel,61.05006105,5c584e854e32ef00014af685,64d2fd46c836a06233681665,64dc7d5b60510beb19e2ece9,,,,,,,sngl,resources/Empty.png,resources/DB.BMP,Door2,0.340740741,-0.009259259,1,0,0,0.614,optionRight,20,6110,3,34,0,34,0,1,,,,,,,,,,,,,,,,,,,,,,,,,,,,,,,,,,,,,,,
,,,,,,,UK,2023-08-16_08h40.52.436,HF_wild_card,2022.2.4,MacIntel,61.05006105,5c584e854e32ef00014af685,64d2fd46c836a06233681665,64dc7d5b60510beb19e2ece9,,,,,,,decisionTrl,resources/DY.BMP,resources/DBN.BMP,Door4,0.323148148,-0.015740741,1,0,0,0.862,optionRight,80,6190,3,35,0,35,0,1,,,,,,,,,,,,,,,,,,,,,,,,,,,,,,,,,,,,,,,
,,,,,,,UK,2023-08-16_08h40.52.436,HF_wild_card,2022.2.4,MacIntel,61.05006105,5c584e854e32ef00014af685,64d2fd46c836a06233681665,64dc7d5b60510beb19e2ece9,,,,,,,decisionTrl,resources/DR.BMP,resources/DB.BMP,Door1,-0.393518519,-0.04537037,1,0,0,0.662,optionLeft,30,6220,3,36,0,36,0,1,,,,,,,,,,,,,,,,,,,,,,,,,,,,,,,,,,,,,,,
,,,,,,,UK,2023-08-16_08h40.52.436,HF_wild_card,2022.2.4,MacIntel,61.05006105,5c584e854e32ef00014af685,64d2fd46c836a06233681665,64dc7d5b60510beb19e2ece9,,,,,,,ctch,resources/DY.BMP,resources/DB.BMP,Door2,0.390740741,-0.019444444,1,0,0,0.562,optionRight,40,6260,3,37,0,37,0,1,,,,,,,,,,,,,,,,,,,,,,,,,,,,,,,,,,,,,,,
,,,,,,,UK,2023-08-16_08h40.52.436,HF_wild_card,2022.2.4,MacIntel,61.05006105,5c584e854e32ef00014af685,64d2fd46c836a06233681665,64dc7d5b60510beb19e2ece9,,,,,,,decisionTrl,resources/DBN.BMP,resources/DY.BMP,Door4,-0.377777778,-0.023148148,1,0,0,0.564,optionLeft,60,6320,3,38,0,38,0,1,,,,,,,,,,,,,,,,,,,,,,,,,,,,,,,,,,,,,,,
,,,,,,,UK,2023-08-16_08h40.52.436,HF_wild_card,2022.2.4,MacIntel,61.05006105,5c584e854e32ef00014af685,64d2fd46c836a06233681665,64dc7d5b60510beb19e2ece9,,,,,,,sngl,resources/Empty.png,resources/DY.BMP,Door3,0.437962963,-0.008333333,1,0,0,0.447,optionRight,70,6390,3,39,0,39,0,1,,,,,,,,,,,,,,,,,,,,,,,,,,,,,,,,,,,,,,,
,,,,,,,UK,2023-08-16_08h40.52.436,HF_wild_card,2022.2.4,MacIntel,61.05006105,5c584e854e32ef00014af685,64d2fd46c836a06233681665,64dc7d5b60510beb19e2ece9,,,,,,,decisionTrl,resources/DY.BMP,resources/DG.BMP,Door3,-0.388888889,-0.04537037,1,0,0,0.547,optionLeft,70,6460,3,40,0,40,0,1,,,,,,,,,,,,,,,,,,,,,,,,,,,,,,,,,,,,,,,
,,,,,,,UK,2023-08-16_08h40.52.436,HF_wild_card,2022.2.4,MacIntel,61.05006105,5c584e854e32ef00014af685,64d2fd46c836a06233681665,64dc7d5b60510beb19e2ece9,,,,,,,decisionTrl,resources/DR.BMP,resources/DG.BMP,WildCard_NonEx,0.459259259,0.007407407,1,0,0,0.479,optionRight,45,6505,3,41,0,41,0,1,,,,,,,,,,,,,,,,,,,,,,,,,,,,,,,,,,,,,,,
,,,,,,,UK,2023-08-16_08h40.52.436,HF_wild_card,2022.2.4,MacIntel,61.05006105,5c584e854e32ef00014af685,64d2fd46c836a06233681665,64dc7d5b60510beb19e2ece9,,,,,,,ctch,resources/DR.BMP,resources/DBN.BMP,Door4,0.418518519,0.002777778,1,0,0,1.195,optionRight,60,6565,3,42,0,42,0,1,,,,,,,,,,,,,,,,,,,,,,,,,,,,,,,,,,,,,,,
,,,,,,,UK,2023-08-16_08h40.52.436,HF_wild_card,2022.2.4,MacIntel,61.05006105,5c584e854e32ef00014af685,64d2fd46c836a06233681665,64dc7d5b60510beb19e2ece9,,,,,,,sngl,resources/Empty.png,resources/DR.BMP,Door1,0.347222222,-0.012962963,1,0,0,0.693,optionRight,30,6595,3,43,0,43,0,1,,,,,,,,,,,,,,,,,,,,,,,,,,,,,,,,,,,,,,,
,,,,,,,UK,2023-08-16_08h40.52.436,HF_wild_card,2022.2.4,MacIntel,61.05006105,5c584e854e32ef00014af685,64d2fd46c836a06233681665,64dc7d5b60510beb19e2ece9,,,,,,,,,,,,,,,,,,,,,,,,,,2,0,2,0,1,,,,,,,,,,,,,,,,,,,,,,,,,,,,,,,,,,
,,,,,,,UK,2023-08-16_08h40.52.436,HF_wild_card,2022.2.4,MacIntel,61.05006105,5c584e854e32ef00014af685,64d2fd46c836a06233681665,64dc7d5b60510beb19e2ece9,,,,,,,decisionTrl,resources/DY.BMP,resources/DBN.BMP,Door4,0.44537037,-0.02037037,1,0,0,0.976,optionRight,60,6655,4,0,0,0,0,1,,,,,,,,,,,,,,,,,,,,,,,,,,,,,,,,,,,,,,,
,,,,,,,UK,2023-08-16_08h40.52.436,HF_wild_card,2022.2.4,MacIntel,61.05006105,5c584e854e32ef00014af685,64d2fd46c836a06233681665,64dc7d5b60510beb19e2ece9,,,,,,,decisionTrl,resources/DBN.BMP,resources/DY.BMP,Door3,0.47962963,-0.016666667,1,0,0,1.229,optionRight,70,6725,4,1,0,1,0,1,,,,,,,,,,,,,,,,,,,,,,,,,,,,,,,,,,,,,,,
,,,,,,,UK,2023-08-16_08h40.52.436,HF_wild_card,2022.2.4,MacIntel,61.05006105,5c584e854e32ef00014af685,64d2fd46c836a06233681665,64dc7d5b60510beb19e2ece9,,,,,,,sngl,resources/DP.BMP,resources/Empty.png,WildCard_Ex,-0.436111111,-0.042592593,1,0,0,0.578,optionLeft,95,6820,4,2,0,2,0,1,,,,,,,,,,,,,,,,,,,,,,,,,,,,,,,,,,,,,,,
,,,,,,,UK,2023-08-16_08h40.52.436,HF_wild_card,2022.2.4,MacIntel,61.05006105,5c584e854e32ef00014af685,64d2fd46c836a06233681665,64dc7d5b60510beb19e2ece9,,,,,,,decisionTrl,resources/DP.BMP,resources/DB.BMP,WildCard_Ex,-0.37037037,-0.028703704,1,0,0,0.613,optionLeft,95,6915,4,3,0,3,0,1,,,,,,,,,,,,,,,,,,,,,,,,,,,,,,,,,,,,,,,
,,,,,,,UK,2023-08-16_08h40.52.436,HF_wild_card,2022.2.4,MacIntel,61.05006105,5c584e854e32ef00014af685,64d2fd46c836a06233681665,64dc7d5b60510beb19e2ece9,,,,,,,decisionTrl,resources/DR.BMP,resources/DB.BMP,Door2,0.349074074,-0.019444444,1,0,0,0.863,optionRight,20,6935,4,4,0,4,0,1,,,,,,,,,,,,,,,,,,,,,,,,,,,,,,,,,,,,,,,
,,,,,,,UK,2023-08-16_08h40.52.436,HF_wild_card,2022.2.4,MacIntel,61.05006105,5c584e854e32ef00014af685,64d2fd46c836a06233681665,64dc7d5b60510beb19e2ece9,,,,,,,sngl,resources/Empty.png,resources/DB.BMP,Door2,0.325925926,-0.012037037,1,0,0,0.663,optionRight,40,6975,4,5,0,5,0,1,,,,,,,,,,,,,,,,,,,,,,,,,,,,,,,,,,,,,,,
,,,,,,,UK,2023-08-16_08h40.52.436,HF_wild_card,2022.2.4,MacIntel,61.05006105,5c584e854e32ef00014af685,64d2fd46c836a06233681665,64dc7d5b60510beb19e2ece9,,,,,,,decisionTrl,resources/DY.BMP,resources/DBN.BMP,Door3,-0.37037037,-0.022222222,1,0,0,0.746,optionLeft,70,7045,4,6,0,6,0,1,,,,,,,,,,,,,,,,,,,,,,,,,,,,,,,,,,,,,,,
,,,,,,,UK,2023-08-16_08h40.52.436,HF_wild_card,2022.2.4,MacIntel,61.05006105,5c584e854e32ef00014af685,64d2fd46c836a06233681665,64dc7d5b60510beb19e2ece9,,,,,,,sngl,resources/Empty.png,resources/DP.BMP,WildCard_Ex,0.382407407,-0.007407407,1,0,0,0.462,optionRight,95,7140,4,7,0,7,0,1,,,,,,,,,,,,,,,,,,,,,,,,,,,,,,,,,,,,,,,
,,,,,,,UK,2023-08-16_08h40.52.436,HF_wild_card,2022.2.4,MacIntel,61.05006105,5c584e854e32ef00014af685,64d2fd46c836a06233681665,64dc7d5b60510beb19e2ece9,,,,,,,decisionTrl,resources/DR.BMP,resources/DB.BMP,Door2,0.325,-0.008333333,1,0,0,0.846,optionRight,40,7180,4,8,0,8,0,1,,,,,,,,,,,,,,,,,,,,,,,,,,,,,,,,,,,,,,,
,,,,,,,UK,2023-08-16_08h40.52.436,HF_wild_card,2022.2.4,MacIntel,61.05006105,5c584e854e32ef00014af685,64d2fd46c836a06233681665,64dc7d5b60510beb19e2ece9,,,,,,,ctch,resources/DBN.BMP,resources/DR.BMP,Door4,-0.394444444,-0.017592593,1,0,0,0.546,optionLeft,60,7240,4,9,0,9,0,1,,,,,,,,,,,,,,,,,,,,,,,,,,,,,,,,,,,,,,,
,,,,,,,UK,2023-08-16_08h40.52.436,HF_wild_card,2022.2.4,MacIntel,61.05006105,5c584e854e32ef00014af685,64d2fd46c836a06233681665,64dc7d5b60510beb19e2ece9,,,,,,,sngl,resources/Empty.png,resources/DR.BMP,Door1,0.339814815,-0.011111111,1,0,0,0.514,optionRight,30,7270,4,10,0,10,0,1,,,,,,,,,,,,,,,,,,,,,,,,,,,,,,,,,,,,,,,
,,,,,,,UK,2023-08-16_08h40.52.436,HF_wild_card,2022.2.4,MacIntel,61.05006105,5c584e854e32ef00014af685,64d2fd46c836a06233681665,64dc7d5b60510beb19e2ece9,,,,,,,ctch,resources/DY.BMP,resources/DB.BMP,Door3,-0.343518519,-0.030555556,1,0,0,0.928,optionLeft,70,7340,4,11,0,11,0,1,,,,,,,,,,,,,,,,,,,,,,,,,,,,,,,,,,,,,,,
,,,,,,,UK,2023-08-16_08h40.52.436,HF_wild_card,2022.2.4,MacIntel,61.05006105,5c584e854e32ef00014af685,64d2fd46c836a06233681665,64dc7d5b60510beb19e2ece9,,,,,,,decisionTrl,resources/DP.BMP,resources/DY.BMP,WildCard_Ex,-0.350925926,-0.013888889,1,0,0,0.714,optionLeft,95,7435,4,12,0,12,0,1,,,,,,,,,,,,,,,,,,,,,,,,,,,,,,,,,,,,,,,
,,,,,,,UK,2023-08-16_08h40.52.436,HF_wild_card,2022.2.4,MacIntel,61.05006105,5c584e854e32ef00014af685,64d2fd46c836a06233681665,64dc7d5b60510beb19e2ece9,,,,,,,sngl,resources/Empty.png,resources/DY.BMP,Door3,0.47962963,-0.012037037,1,0,0,0.512,optionRight,70,7505,4,13,0,13,0,1,,,,,,,,,,,,,,,,,,,,,,,,,,,,,,,,,,,,,,,
,,,,,,,UK,2023-08-16_08h40.52.436,HF_wild_card,2022.2.4,MacIntel,61.05006105,5c584e854e32ef00014af685,64d2fd46c836a06233681665,64dc7d5b60510beb19e2ece9,,,,,,,decisionTrl,resources/DB.BMP,resources/DR.BMP,Door2,-0.393518519,-0.025,1,0,0,0.579,optionLeft,20,7525,4,14,0,14,0,1,,,,,,,,,,,,,,,,,,,,,,,,,,,,,,,,,,,,,,,
,,,,,,,UK,2023-08-16_08h40.52.436,HF_wild_card,2022.2.4,MacIntel,61.05006105,5c584e854e32ef00014af685,64d2fd46c836a06233681665,64dc7d5b60510beb19e2ece9,,,,,,,sngl,resources/DBN.BMP,resources/Empty.png,Door4,-0.324074074,-0.014814815,1,0,0,0.546,optionLeft,60,7585,4,15,0,15,0,1,,,,,,,,,,,,,,,,,,,,,,,,,,,,,,,,,,,,,,,
,,,,,,,UK,2023-08-16_08h40.52.436,HF_wild_card,2022.2.4,MacIntel,61.05006105,5c584e854e32ef00014af685,64d2fd46c836a06233681665,64dc7d5b60510beb19e2ece9,,,,,,,ctch,resources/DR.BMP,resources/DBN.BMP,Door4,0.324074074,-0.001851852,1,0,0,0.563,optionRight,60,7645,4,16,0,16,0,1,,,,,,,,,,,,,,,,,,,,,,,,,,,,,,,,,,,,,,,
,,,,,,,UK,2023-08-16_08h40.52.436,HF_wild_card,2022.2.4,MacIntel,61.05006105,5c584e854e32ef00014af685,64d2fd46c836a06233681665,64dc7d5b60510beb19e2ece9,,,,,,,decisionTrl,resources/DR.BMP,resources/DP.BMP,WildCard_Ex,0.312962963,0.002777778,1,0,0,0.614,optionRight,5,7650,4,17,0,17,0,1,,,,,,,,,,,,,,,,,,,,,,,,,,,,,,,,,,,,,,,
,,,,,,,UK,2023-08-16_08h40.52.436,HF_wild_card,2022.2.4,MacIntel,61.05006105,5c584e854e32ef00014af685,64d2fd46c836a06233681665,64dc7d5b60510beb19e2ece9,,,,,,,sngl,resources/DB.BMP,resources/Empty.png,Door2,-0.372222222,-0.025,1,0,0,0.53,optionLeft,20,7670,4,18,0,18,0,1,,,,,,,,,,,,,,,,,,,,,,,,,,,,,,,,,,,,,,,
,,,,,,,UK,2023-08-16_08h40.52.436,HF_wild_card,2022.2.4,MacIntel,61.05006105,5c584e854e32ef00014af685,64d2fd46c836a06233681665,64dc7d5b60510beb19e2ece9,,,,,,,decisionTrl,resources/DBN.BMP,resources/DY.BMP,Door3,0.34537037,0.008333333,1,0,0,0.546,optionRight,70,7740,4,19,0,19,0,1,,,,,,,,,,,,,,,,,,,,,,,,,,,,,,,,,,,,,,,
,,,,,,,UK,2023-08-16_08h40.52.436,HF_wild_card,2022.2.4,MacIntel,61.05006105,5c584e854e32ef00014af685,64d2fd46c836a06233681665,64dc7d5b60510beb19e2ece9,,,,,,,decisionTrl,resources/DP.BMP,resources/DR.BMP,WildCard_Ex,-0.285185185,-0.021296296,1,0,0,0.681,optionLeft,5,7745,4,20,0,20,0,1,,,,,,,,,,,,,,,,,,,,,,,,,,,,,,,,,,,,,,,
,,,,,,,UK,2023-08-16_08h40.52.436,HF_wild_card,2022.2.4,MacIntel,61.05006105,5c584e854e32ef00014af685,64d2fd46c836a06233681665,64dc7d5b60510beb19e2ece9,,,,,,,decisionTrl,resources/DBN.BMP,resources/DY.BMP,Door4,-0.362037037,-0.011111111,1,0,0,0.596,optionLeft,80,7825,4,21,0,21,0,1,,,,,,,,,,,,,,,,,,,,,,,,,,,,,,,,,,,,,,,
,,,,,,,UK,2023-08-16_08h40.52.436,HF_wild_card,2022.2.4,MacIntel,61.05006105,5c584e854e32ef00014af685,64d2fd46c836a06233681665,64dc7d5b60510beb19e2ece9,,,,,,,decisionTrl,resources/DB.BMP,resources/DR.BMP,Door1,0.289814815,-0.002777778,1,0,0,0.746,optionRight,30,7855,4,22,0,22,0,1,,,,,,,,,,,,,,,,,,,,,,,,,,,,,,,,,,,,,,,
,,,,,,,UK,2023-08-16_08h40.52.436,HF_wild_card,2022.2.4,MacIntel,61.05006105,5c584e854e32ef00014af685,64d2fd46c836a06233681665,64dc7d5b60510beb19e2ece9,,,,,,,sngl,resources/Empty.png,resources/DP.BMP,WildCard_Ex,0.401851852,0.00462963,1,0,0,0.495,optionRight,5,7860,4,23,0,23,0,1,,,,,,,,,,,,,,,,,,,,,,,,,,,,,,,,,,,,,,,
,,,,,,,UK,2023-08-16_08h40.52.436,HF_wild_card,2022.2.4,MacIntel,61.05006105,5c584e854e32ef00014af685,64d2fd46c836a06233681665,64dc7d5b60510beb19e2ece9,,,,,,,decisionTrl,resources/DY.BMP,resources/DBN.BMP,Door4,0.442592593,0.010185185,1,0,0,0.6,optionRight,60,7920,4,24,0,24,0,1,,,,,,,,,,,,,,,,,,,,,,,,,,,,,,,,,,,,,,,
,,,,,,,UK,2023-08-16_08h40.52.436,HF_wild_card,2022.2.4,MacIntel,61.05006105,5c584e854e32ef00014af685,64d2fd46c836a06233681665,64dc7d5b60510beb19e2ece9,,,,,,,ctch,resources/DY.BMP,resources/DB.BMP,Door2,0.384259259,0.002777778,1,0,0,0.528,optionRight,40,7960,4,25,0,25,0,1,,,,,,,,,,,,,,,,,,,,,,,,,,,,,,,,,,,,,,,
,,,,,,,UK,2023-08-16_08h40.52.436,HF_wild_card,2022.2.4,MacIntel,61.05006105,5c584e854e32ef00014af685,64d2fd46c836a06233681665,64dc7d5b60510beb19e2ece9,,,,,,,decisionTrl,resources/DBN.BMP,resources/DP.BMP,Door4,-0.32037037,-0.011111111,1,0,0,0.796,optionLeft,60,8020,4,26,0,26,0,1,,,,,,,,,,,,,,,,,,,,,,,,,,,,,,,,,,,,,,,
,,,,,,,UK,2023-08-16_08h40.52.436,HF_wild_card,2022.2.4,MacIntel,61.05006105,5c584e854e32ef00014af685,64d2fd46c836a06233681665,64dc7d5b60510beb19e2ece9,,,,,,,ctch,resources/DBN.BMP,resources/DR.BMP,Door4,-0.376851852,-0.00462963,1,0,0,0.545,optionLeft,60,8080,4,27,0,27,0,1,,,,,,,,,,,,,,,,,,,,,,,,,,,,,,,,,,,,,,,
,,,,,,,UK,2023-08-16_08h40.52.436,HF_wild_card,2022.2.4,MacIntel,61.05006105,5c584e854e32ef00014af685,64d2fd46c836a06233681665,64dc7d5b60510beb19e2ece9,,,,,,,decisionTrl,resources/DR.BMP,resources/DB.BMP,Door2,0.374074074,-0.014814815,1,0,0,0.428,optionRight,20,8100,4,28,0,28,0,1,,,,,,,,,,,,,,,,,,,,,,,,,,,,,,,,,,,,,,,
,,,,,,,UK,2023-08-16_08h40.52.436,HF_wild_card,2022.2.4,MacIntel,61.05006105,5c584e854e32ef00014af685,64d2fd46c836a06233681665,64dc7d5b60510beb19e2ece9,,,,,,,ctch,resources/DR.BMP,resources/DBN.BMP,Door1,-0.337962963,-0.026851852,1,0,0,0.428,optionLeft,30,8130,4,29,0,29,0,1,,,,,,,,,,,,,,,,,,,,,,,,,,,,,,,,,,,,,,,
,,,,,,,UK,2023-08-16_08h40.52.436,HF_wild_card,2022.2.4,MacIntel,61.05006105,5c584e854e32ef00014af685,64d2fd46c836a06233681665,64dc7d5b60510beb19e2ece9,,,,,,,decisionTrl,resources/DY.BMP,resources/DBN.BMP,Door4,0.341666667,0.000925926,1,0,0,0.562,optionRight,80,8210,4,30,0,30,0,1,,,,,,,,,,,,,,,,,,,,,,,,,,,,,,,,,,,,,,,
,,,,,,,UK,2023-08-16_08h40.52.436,HF_wild_card,2022.2.4,MacIntel,61.05006105,5c584e854e32ef00014af685,64d2fd46c836a06233681665,64dc7d5b60510beb19e2ece9,,,,,,,decisionTrl,resources/DBN.BMP,resources/DY.BMP,Door4,-0.253703704,-0.006481481,1,0,0,0.745,optionLeft,60,8270,4,31,0,31,0,1,,,,,,,,,,,,,,,,,,,,,,,,,,,,,,,,,,,,,,,
,,,,,,,UK,2023-08-16_08h40.52.436,HF_wild_card,2022.2.4,MacIntel,61.05006105,5c584e854e32ef00014af685,64d2fd46c836a06233681665,64dc7d5b60510beb19e2ece9,,,,,,,decisionTrl,resources/DB.BMP,resources/DP.BMP,WildCard_Ex,0.326851852,-0.007407407,1,0,0,0.646,optionRight,95,8365,4,32,0,32,0,1,,,,,,,,,,,,,,,,,,,,,,,,,,,,,,,,,,,,,,,
,,,,,,,UK,2023-08-16_08h40.52.436,HF_wild_card,2022.2.4,MacIntel,61.05006105,5c584e854e32ef00014af685,64d2fd46c836a06233681665,64dc7d5b60510beb19e2ece9,,,,,,,decisionTrl,resources/DB.BMP,resources/DR.BMP,Door2,-0.37037037,-0.026851852,1,0,0,0.461,optionLeft,40,8405,4,33,0,33,0,1,,,,,,,,,,,,,,,,,,,,,,,,,,,,,,,,,,,,,,,
,,,,,,,UK,2023-08-16_08h40.52.436,HF_wild_card,2022.2.4,MacIntel,61.05006105,5c584e854e32ef00014af685,64d2fd46c836a06233681665,64dc7d5b60510beb19e2ece9,,,,,,,sngl,resources/DY.BMP,resources/Empty.png,Door3,-0.32037037,-0.021296296,1,0,0,0.479,optionLeft,70,8475,4,34,0,34,0,1,,,,,,,,,,,,,,,,,,,,,,,,,,,,,,,,,,,,,,,
,,,,,,,UK,2023-08-16_08h40.52.436,HF_wild_card,2022.2.4,MacIntel,61.05006105,5c584e854e32ef00014af685,64d2fd46c836a06233681665,64dc7d5b60510beb19e2ece9,,,,,,,sngl,resources/DP.BMP,resources/Empty.png,WildCard_Ex,-0.389814815,-0.025,1,0,0,0.613,optionLeft,5,8480,4,35,0,35,0,1,,,,,,,,,,,,,,,,,,,,,,,,,,,,,,,,,,,,,,,
,,,,,,,UK,2023-08-16_08h40.52.436,HF_wild_card,2022.2.4,MacIntel,61.05006105,5c584e854e32ef00014af685,64d2fd46c836a06233681665,64dc7d5b60510beb19e2ece9,,,,,,,decisionTrl,resources/DP.BMP,resources/DBN.BMP,WildCard_Ex,-0.388888889,-0.025,1,0,0,0.514,optionLeft,5,8485,4,36,0,36,0,1,,,,,,,,,,,,,,,,,,,,,,,,,,,,,,,,,,,,,,,
,,,,,,,UK,2023-08-16_08h40.52.436,HF_wild_card,2022.2.4,MacIntel,61.05006105,5c584e854e32ef00014af685,64d2fd46c836a06233681665,64dc7d5b60510beb19e2ece9,,,,,,,sngl,resources/Empty.png,resources/DBN.BMP,Door4,0.327777778,-0.006481481,1,0,0,0.447,optionRight,80,8565,4,37,0,37,0,1,,,,,,,,,,,,,,,,,,,,,,,,,,,,,,,,,,,,,,,
,,,,,,,UK,2023-08-16_08h40.52.436,HF_wild_card,2022.2.4,MacIntel,61.05006105,5c584e854e32ef00014af685,64d2fd46c836a06233681665,64dc7d5b60510beb19e2ece9,,,,,,,decisionTrl,resources/DB.BMP,resources/DR.BMP,Door1,0.348148148,-0.009259259,1,0,0,0.662,optionRight,30,8595,4,38,0,38,0,1,,,,,,,,,,,,,,,,,,,,,,,,,,,,,,,,,,,,,,,
,,,,,,,UK,2023-08-16_08h40.52.436,HF_wild_card,2022.2.4,MacIntel,61.05006105,5c584e854e32ef00014af685,64d2fd46c836a06233681665,64dc7d5b60510beb19e2ece9,,,,,,,decisionTrl,resources/DY.BMP,resources/DP.BMP,WildCard_Ex,0.440740741,0.030555556,1,0,0,0.515,optionRight,5,8600,4,39,0,39,0,1,,,,,,,,,,,,,,,,,,,,,,,,,,,,,,,,,,,,,,,
,,,,,,,UK,2023-08-16_08h40.52.436,HF_wild_card,2022.2.4,MacIntel,61.05006105,5c584e854e32ef00014af685,64d2fd46c836a06233681665,64dc7d5b60510beb19e2ece9,,,,,,,ctch,resources/DB.BMP,resources/DY.BMP,Door2,-0.189814815,-0.02037037,1,0,0,0.493,optionLeft,40,8640,4,40,0,40,0,1,,,,,,,,,,,,,,,,,,,,,,,,,,,,,,,,,,,,,,,
,,,,,,,UK,2023-08-16_08h40.52.436,HF_wild_card,2022.2.4,MacIntel,61.05006105,5c584e854e32ef00014af685,64d2fd46c836a06233681665,64dc7d5b60510beb19e2ece9,,,,,,,ctch,resources/DB.BMP,resources/DY.BMP,Door2,-0.275925926,-0.039814815,1,0,0,0.61,optionLeft,40,8680,4,41,0,41,0,1,,,,,,,,,,,,,,,,,,,,,,,,,,,,,,,,,,,,,,,
,,,,,,,UK,2023-08-16_08h40.52.436,HF_wild_card,2022.2.4,MacIntel,61.05006105,5c584e854e32ef00014af685,64d2fd46c836a06233681665,64dc7d5b60510beb19e2ece9,,,,,,,decisionTrl,resources/DR.BMP,resources/DB.BMP,Door2,0.360185185,0.011111111,1,0,0,0.496,optionRight,40,8720,4,42,0,42,0,1,,,,,,,,,,,,,,,,,,,,,,,,,,,,,,,,,,,,,,,
,,,,,,,UK,2023-08-16_08h40.52.436,HF_wild_card,2022.2.4,MacIntel,61.05006105,5c584e854e32ef00014af685,64d2fd46c836a06233681665,64dc7d5b60510beb19e2ece9,,,,,,,sngl,resources/DR.BMP,resources/Empty.png,Door1,-0.288888889,-0.030555556,1,0,0,0.496,optionLeft,30,8750,4,43,0,43,0,1,,,,,,,,,,,,,,,,,,,,,,,,,,,,,,,,,,,,,,,
,,,,,,,UK,2023-08-16_08h40.52.436,HF_wild_card,2022.2.4,MacIntel,61.05006105,5c584e854e32ef00014af685,64d2fd46c836a06233681665,64dc7d5b60510beb19e2ece9,,,,,,,,,,,,,,,,,,,,,,,,,,3,0,3,0,1,,,,,,,,,,,,,,,,,,,,,,,,,,,,,,,,,,
,,,,,,,UK,2023-08-16_08h40.52.436,HF_wild_card,2022.2.4,MacIntel,61.05006105,5c584e854e32ef00014af685,64d2fd46c836a06233681665,64dc7d5b60510beb19e2ece9,,,,,,,ctch,resources/DB.BMP,resources/DY.BMP,Door3,0.324074074,-0.074074074,1,0,0,0.809,optionRight,70,8820,5,0,0,0,0,1,,,,,,,,,,,,,,,,,,,,,,,,,,,,,,,,,,,,,,,
,,,,,,,UK,2023-08-16_08h40.52.436,HF_wild_card,2022.2.4,MacIntel,61.05006105,5c584e854e32ef00014af685,64d2fd46c836a06233681665,64dc7d5b60510beb19e2ece9,,,,,,,sngl,resources/Empty.png,resources/DBN.BMP,Door4,0.42962963,0.015740741,1,0,0,0.48,optionRight,60,8880,5,1,0,1,0,1,,,,,,,,,,,,,,,,,,,,,,,,,,,,,,,,,,,,,,,
,,,,,,,UK,2023-08-16_08h40.52.436,HF_wild_card,2022.2.4,MacIntel,61.05006105,5c584e854e32ef00014af685,64d2fd46c836a06233681665,64dc7d5b60510beb19e2ece9,,,,,,,sngl,resources/DY.BMP,resources/Empty.png,Door3,-0.368518519,-0.031481481,1,0,0,0.482,optionLeft,70,8950,5,2,0,2,0,1,,,,,,,,,,,,,,,,,,,,,,,,,,,,,,,,,,,,,,,
,,,,,,,UK,2023-08-16_08h40.52.436,HF_wild_card,2022.2.4,MacIntel,61.05006105,5c584e854e32ef00014af685,64d2fd46c836a06233681665,64dc7d5b60510beb19e2ece9,,,,,,,ctch,resources/DBN.BMP,resources/DR.BMP,Door1,0.375925926,0.014814815,1,0,0,0.546,optionRight,30,8980,5,3,0,3,0,1,,,,,,,,,,,,,,,,,,,,,,,,,,,,,,,,,,,,,,,
,,,,,,,UK,2023-08-16_08h40.52.436,HF_wild_card,2022.2.4,MacIntel,61.05006105,5c584e854e32ef00014af685,64d2fd46c836a06233681665,64dc7d5b60510beb19e2ece9,,,,,,,decisionTrl,resources/DY.BMP,resources/DP.BMP,Door3,-0.248148148,0,1,0,0,0.797,optionLeft,70,9050,5,4,0,4,0,1,,,,,,,,,,,,,,,,,,,,,,,,,,,,,,,,,,,,,,,
,,,,,,,UK,2023-08-16_08h40.52.436,HF_wild_card,2022.2.4,MacIntel,61.05006105,5c584e854e32ef00014af685,64d2fd46c836a06233681665,64dc7d5b60510beb19e2ece9,,,,,,,decisionTrl,resources/DB.BMP,resources/DP.BMP,Door2,-0.338888889,-0.002777778,1,0,0,0.712,optionLeft,40,9090,5,5,0,5,0,1,,,,,,,,,,,,,,,,,,,,,,,,,,,,,,,,,,,,,,,
,,,,,,,UK,2023-08-16_08h40.52.436,HF_wild_card,2022.2.4,MacIntel,61.05006105,5c584e854e32ef00014af685,64d2fd46c836a06233681665,64dc7d5b60510beb19e2ece9,,,,,,,sngl,resources/Empty.png,resources/DP.BMP,WildCard_Ex,0.291666667,0.010185185,1,0,0,0.479,optionRight,95,9185,5,6,0,6,0,1,,,,,,,,,,,,,,,,,,,,,,,,,,,,,,,,,,,,,,,
,,,,,,,UK,2023-08-16_08h40.52.436,HF_wild_card,2022.2.4,MacIntel,61.05006105,5c584e854e32ef00014af685,64d2fd46c836a06233681665,64dc7d5b60510beb19e2ece9,,,,,,,decisionTrl,resources/DP.BMP,resources/DR.BMP,WildCard_Ex,-0.436111111,-0.037037037,1,0,0,0.512,optionLeft,5,9190,5,7,0,7,0,1,,,,,,,,,,,,,,,,,,,,,,,,,,,,,,,,,,,,,,,
,,,,,,,UK,2023-08-16_08h40.52.436,HF_wild_card,2022.2.4,MacIntel,61.05006105,5c584e854e32ef00014af685,64d2fd46c836a06233681665,64dc7d5b60510beb19e2ece9,,,,,,,decisionTrl,resources/DY.BMP,resources/DBN.BMP,Door4,0.218518519,0.012037037,1,0,0,0.562,optionRight,80,9270,5,8,0,8,0,1,,,,,,,,,,,,,,,,,,,,,,,,,,,,,,,,,,,,,,,
,,,,,,,UK,2023-08-16_08h40.52.436,HF_wild_card,2022.2.4,MacIntel,61.05006105,5c584e854e32ef00014af685,64d2fd46c836a06233681665,64dc7d5b60510beb19e2ece9,,,,,,,decisionTrl,resources/DB.BMP,resources/DR.BMP,Door2,-0.263888889,-0.025,1,0,0,0.514,optionLeft,40,9310,5,9,0,9,0,1,,,,,,,,,,,,,,,,,,,,,,,,,,,,,,,,,,,,,,,
,,,,,,,UK,2023-08-16_08h40.52.436,HF_wild_card,2022.2.4,MacIntel,61.05006105,5c584e854e32ef00014af685,64d2fd46c836a06233681665,64dc7d5b60510beb19e2ece9,,,,,,,decisionTrl,resources/DBN.BMP,resources/DP.BMP,WildCard_Ex,0.393518519,0.014814815,1,0,0,0.459,optionRight,95,9405,5,10,0,10,0,1,,,,,,,,,,,,,,,,,,,,,,,,,,,,,,,,,,,,,,,
,,,,,,,UK,2023-08-16_08h40.52.436,HF_wild_card,2022.2.4,MacIntel,61.05006105,5c584e854e32ef00014af685,64d2fd46c836a06233681665,64dc7d5b60510beb19e2ece9,,,,,,,decisionTrl,resources/DR.BMP,resources/DP.BMP,WildCard_Ex,0.277777778,0.012962963,1,0,0,0.479,optionRight,95,9500,5,11,0,11,0,1,,,,,,,,,,,,,,,,,,,,,,,,,,,,,,,,,,,,,,,
,,,,,,,UK,2023-08-16_08h40.52.436,HF_wild_card,2022.2.4,MacIntel,61.05006105,5c584e854e32ef00014af685,64d2fd46c836a06233681665,64dc7d5b60510beb19e2ece9,,,,,,,decisionTrl,resources/DBN.BMP,resources/DY.BMP,Door4,-0.276851852,-0.018518519,1,0,0,0.628,optionLeft,60,9560,5,12,0,12,0,1,,,,,,,,,,,,,,,,,,,,,,,,,,,,,,,,,,,,,,,
,,,,,,,UK,2023-08-16_08h40.52.436,HF_wild_card,2022.2.4,MacIntel,61.05006105,5c584e854e32ef00014af685,64d2fd46c836a06233681665,64dc7d5b60510beb19e2ece9,,,,,,,sngl,resources/Empty.png,resources/DY.BMP,Door3,0.330555556,0.012037037,1,0,0,0.463,optionRight,70,9630,5,13,0,13,0,1,,,,,,,,,,,,,,,,,,,,,,,,,,,,,,,,,,,,,,,
,,,,,,,UK,2023-08-16_08h40.52.436,HF_wild_card,2022.2.4,MacIntel,61.05006105,5c584e854e32ef00014af685,64d2fd46c836a06233681665,64dc7d5b60510beb19e2ece9,,,,,,,sngl,resources/DP.BMP,resources/Empty.png,WildCard_Ex,-0.337037037,-0.010185185,1,0,0,0.58,optionLeft,5,9635,5,14,0,14,0,1,,,,,,,,,,,,,,,,,,,,,,,,,,,,,,,,,,,,,,,
,,,,,,,UK,2023-08-16_08h40.52.436,HF_wild_card,2022.2.4,MacIntel,61.05006105,5c584e854e32ef00014af685,64d2fd46c836a06233681665,64dc7d5b60510beb19e2ece9,,,,,,,decisionTrl,resources/DY.BMP,resources/DBN.BMP,Door4,0.278703704,0.014814815,1,0,0,0.762,optionRight,80,9715,5,15,0,15,0,1,,,,,,,,,,,,,,,,,,,,,,,,,,,,,,,,,,,,,,,
,,,,,,,UK,2023-08-16_08h40.52.436,HF_wild_card,2022.2.4,MacIntel,61.05006105,5c584e854e32ef00014af685,64d2fd46c836a06233681665,64dc7d5b60510beb19e2ece9,,,,,,,ctch,resources/DY.BMP,resources/DB.BMP,Door3,-0.35,-0.014814815,1,0,0,0.611,optionLeft,70,9785,5,16,0,16,0,1,,,,,,,,,,,,,,,,,,,,,,,,,,,,,,,,,,,,,,,
,,,,,,,UK,2023-08-16_08h40.52.436,HF_wild_card,2022.2.4,MacIntel,61.05006105,5c584e854e32ef00014af685,64d2fd46c836a06233681665,64dc7d5b60510beb19e2ece9,,,,,,,decisionTrl,resources/DP.BMP,resources/DB.BMP,Door2,0.199074074,0.000925926,1,0,0,0.629,optionRight,20,9805,5,17,0,17,0,1,,,,,,,,,,,,,,,,,,,,,,,,,,,,,,,,,,,,,,,
,,,,,,,UK,2023-08-16_08h40.52.436,HF_wild_card,2022.2.4,MacIntel,61.05006105,5c584e854e32ef00014af685,64d2fd46c836a06233681665,64dc7d5b60510beb19e2ece9,,,,,,,ctch,resources/DB.BMP,resources/DY.BMP,Door2,-0.215740741,-0.037962963,1,0,0,0.58,optionLeft,40,9845,5,18,0,18,0,1,,,,,,,,,,,,,,,,,,,,,,,,,,,,,,,,,,,,,,,
,,,,,,,UK,2023-08-16_08h40.52.436,HF_wild_card,2022.2.4,MacIntel,61.05006105,5c584e854e32ef00014af685,64d2fd46c836a06233681665,64dc7d5b60510beb19e2ece9,,,,,,,sngl,resources/DBN.BMP,resources/Empty.png,Door4,-0.258333333,-0.023148148,1,0,0,0.462,optionLeft,80,9925,5,19,0,19,0,1,,,,,,,,,,,,,,,,,,,,,,,,,,,,,,,,,,,,,,,
,,,,,,,UK,2023-08-16_08h40.52.436,HF_wild_card,2022.2.4,MacIntel,61.05006105,5c584e854e32ef00014af685,64d2fd46c836a06233681665,64dc7d5b60510beb19e2ece9,,,,,,,sngl,resources/Empty.png,resources/DR.BMP,Door1,0.250925926,0.011111111,1,0,0,0.429,optionRight,30,9955,5,20,0,20,0,1,,,,,,,,,,,,,,,,,,,,,,,,,,,,,,,,,,,,,,,
,,,,,,,UK,2023-08-16_08h40.52.436,HF_wild_card,2022.2.4,MacIntel,61.05006105,5c584e854e32ef00014af685,64d2fd46c836a06233681665,64dc7d5b60510beb19e2ece9,,,,,,,decisionTrl,resources/DR.BMP,resources/DB.BMP,Door1,-0.276851852,-0.028703704,1,0,0,0.496,optionLeft,30,9985,5,21,0,21,0,1,,,,,,,,,,,,,,,,,,,,,,,,,,,,,,,,,,,,,,,
,,,,,,,UK,2023-08-16_08h40.52.436,HF_wild_card,2022.2.4,MacIntel,61.05006105,5c584e854e32ef00014af685,64d2fd46c836a06233681665,64dc7d5b60510beb19e2ece9,,,,,,,decisionTrl,resources/DR.BMP,resources/DB.BMP,Door2,0.313888889,0.012962963,1,0,0,0.497,optionRight,20,10005,5,22,0,22,0,1,,,,,,,,,,,,,,,,,,,,,,,,,,,,,,,,,,,,,,,
,,,,,,,UK,2023-08-16_08h40.52.436,HF_wild_card,2022.2.4,MacIntel,61.05006105,5c584e854e32ef00014af685,64d2fd46c836a06233681665,64dc7d5b60510beb19e2ece9,,,,,,,decisionTrl,resources/DR.BMP,resources/DB.BMP,Door1,-0.262037037,-0.034259259,1,0,0,0.464,optionLeft,30,10035,5,23,0,23,0,1,,,,,,,,,,,,,,,,,,,,,,,,,,,,,,,,,,,,,,,
,,,,,,,UK,2023-08-16_08h40.52.436,HF_wild_card,2022.2.4,MacIntel,61.05006105,5c584e854e32ef00014af685,64d2fd46c836a06233681665,64dc7d5b60510beb19e2ece9,,,,,,,ctch,resources/DBN.BMP,resources/DR.BMP,Door4,-0.293518519,-0.018518519,1,0,0,0.66,optionLeft,60,10095,5,24,0,24,0,1,,,,,,,,,,,,,,,,,,,,,,,,,,,,,,,,,,,,,,,
,,,,,,,UK,2023-08-16_08h40.52.436,HF_wild_card,2022.2.4,MacIntel,61.05006105,5c584e854e32ef00014af685,64d2fd46c836a06233681665,64dc7d5b60510beb19e2ece9,,,,,,,decisionTrl,resources/DBN.BMP,resources/DY.BMP,Door3,0.291666667,0.003703704,1,0,0,0.477,optionRight,70,10165,5,25,0,25,0,1,,,,,,,,,,,,,,,,,,,,,,,,,,,,,,,,,,,,,,,
,,,,,,,UK,2023-08-16_08h40.52.436,HF_wild_card,2022.2.4,MacIntel,61.05006105,5c584e854e32ef00014af685,64d2fd46c836a06233681665,64dc7d5b60510beb19e2ece9,,,,,,,sngl,resources/Empty.png,resources/DP.BMP,WildCard_Ex,0.212962963,-0.000925926,1,0,0,0.456,optionRight,5,10170,5,26,0,26,0,1,,,,,,,,,,,,,,,,,,,,,,,,,,,,,,,,,,,,,,,
,,,,,,,UK,2023-08-16_08h40.52.436,HF_wild_card,2022.2.4,MacIntel,61.05006105,5c584e854e32ef00014af685,64d2fd46c836a06233681665,64dc7d5b60510beb19e2ece9,,,,,,,ctch,resources/DR.BMP,resources/DBN.BMP,Door4,0.252777778,0.025,1,0,0,0.795,optionRight,80,10250,5,27,0,27,0,1,,,,,,,,,,,,,,,,,,,,,,,,,,,,,,,,,,,,,,,
,,,,,,,UK,2023-08-16_08h40.52.436,HF_wild_card,2022.2.4,MacIntel,61.05006105,5c584e854e32ef00014af685,64d2fd46c836a06233681665,64dc7d5b60510beb19e2ece9,,,,,,,sngl,resources/Empty.png,resources/DB.BMP,Door2,0.301851852,0.022222222,1,0,0,0.628,optionRight,20,10270,5,28,0,28,0,1,,,,,,,,,,,,,,,,,,,,,,,,,,,,,,,,,,,,,,,
,,,,,,,UK,2023-08-16_08h40.52.436,HF_wild_card,2022.2.4,MacIntel,61.05006105,5c584e854e32ef00014af685,64d2fd46c836a06233681665,64dc7d5b60510beb19e2ece9,,,,,,,decisionTrl,resources/DBN.BMP,resources/DY.BMP,Door4,-0.248148148,-0.015740741,1,0,0,0.478,optionLeft,60,10330,5,29,0,29,0,1,,,,,,,,,,,,,,,,,,,,,,,,,,,,,,,,,,,,,,,
,,,,,,,UK,2023-08-16_08h40.52.436,HF_wild_card,2022.2.4,MacIntel,61.05006105,5c584e854e32ef00014af685,64d2fd46c836a06233681665,64dc7d5b60510beb19e2ece9,,,,,,,decisionTrl,resources/DB.BMP,resources/DR.BMP,Door1,0.326851852,0.015740741,1,0,0,0.813,optionRight,30,10360,5,30,0,30,0,1,,,,,,,,,,,,,,,,,,,,,,,,,,,,,,,,,,,,,,,
,,,,,,,UK,2023-08-16_08h40.52.436,HF_wild_card,2022.2.4,MacIntel,61.05006105,5c584e854e32ef00014af685,64d2fd46c836a06233681665,64dc7d5b60510beb19e2ece9,,,,,,,decisionTrl,resources/DY.BMP,resources/DBN.BMP,Door3,-0.313888889,-0.017592593,1,0,0,0.48,optionLeft,70,10430,5,31,0,31,0,1,,,,,,,,,,,,,,,,,,,,,,,,,,,,,,,,,,,,,,,
,,,,,,,UK,2023-08-16_08h40.52.436,HF_wild_card,2022.2.4,MacIntel,61.05006105,5c584e854e32ef00014af685,64d2fd46c836a06233681665,64dc7d5b60510beb19e2ece9,,,,,,,ctch,resources/DY.BMP,resources/DB.BMP,Door2,0.337037037,0.013888889,1,0,0,0.464,optionRight,40,10470,5,32,0,32,0,1,,,,,,,,,,,,,,,,,,,,,,,,,,,,,,,,,,,,,,,
,,,,,,,UK,2023-08-16_08h40.52.436,HF_wild_card,2022.2.4,MacIntel,61.05006105,5c584e854e32ef00014af685,64d2fd46c836a06233681665,64dc7d5b60510beb19e2ece9,,,,,,,sngl,resources/DR.BMP,resources/Empty.png,Door1,-0.289814815,-0.014814815,1,0,0,0.411,optionLeft,30,10500,5,33,0,33,0,1,,,,,,,,,,,,,,,,,,,,,,,,,,,,,,,,,,,,,,,
,,,,,,,UK,2023-08-16_08h40.52.436,HF_wild_card,2022.2.4,MacIntel,61.05006105,5c584e854e32ef00014af685,64d2fd46c836a06233681665,64dc7d5b60510beb19e2ece9,,,,,,,ctch,resources/DR.BMP,resources/DBN.BMP,Door4,0.256481481,0.024074074,1,0,0,0.548,optionRight,80,10580,5,34,0,34,0,1,,,,,,,,,,,,,,,,,,,,,,,,,,,,,,,,,,,,,,,
,,,,,,,UK,2023-08-16_08h40.52.436,HF_wild_card,2022.2.4,MacIntel,61.05006105,5c584e854e32ef00014af685,64d2fd46c836a06233681665,64dc7d5b60510beb19e2ece9,,,,,,,decisionTrl,resources/DP.BMP,resources/DBN.BMP,WildCard_Ex,-0.199074074,0.016666667,1,0,0,0.879,optionLeft,5,10585,5,35,0,35,0,1,,,,,,,,,,,,,,,,,,,,,,,,,,,,,,,,,,,,,,,
,,,,,,,UK,2023-08-16_08h40.52.436,HF_wild_card,2022.2.4,MacIntel,61.05006105,5c584e854e32ef00014af685,64d2fd46c836a06233681665,64dc7d5b60510beb19e2ece9,,,,,,,decisionTrl,resources/DY.BMP,resources/DBN.BMP,Door4,0.326851852,0.010185185,1,0,0,1.012,optionRight,60,10645,5,36,0,36,0,1,,,,,,,,,,,,,,,,,,,,,,,,,,,,,,,,,,,,,,,
,,,,,,,UK,2023-08-16_08h40.52.436,HF_wild_card,2022.2.4,MacIntel,61.05006105,5c584e854e32ef00014af685,64d2fd46c836a06233681665,64dc7d5b60510beb19e2ece9,,,,,,,decisionTrl,resources/DR.BMP,resources/DB.BMP,Door1,-0.225925926,-0.018518519,1,0,0,0.512,optionLeft,30,10675,5,37,0,37,0,1,,,,,,,,,,,,,,,,,,,,,,,,,,,,,,,,,,,,,,,
,,,,,,,UK,2023-08-16_08h40.52.436,HF_wild_card,2022.2.4,MacIntel,61.05006105,5c584e854e32ef00014af685,64d2fd46c836a06233681665,64dc7d5b60510beb19e2ece9,,,,,,,decisionTrl,resources/DB.BMP,resources/DR.BMP,Door2,-0.287962963,-0.022222222,1,0,0,0.663,optionLeft,20,10695,5,38,0,38,0,1,,,,,,,,,,,,,,,,,,,,,,,,,,,,,,,,,,,,,,,
,,,,,,,UK,2023-08-16_08h40.52.436,HF_wild_card,2022.2.4,MacIntel,61.05006105,5c584e854e32ef00014af685,64d2fd46c836a06233681665,64dc7d5b60510beb19e2ece9,,,,,,,decisionTrl,resources/DB.BMP,resources/DR.BMP,Door1,0.303703704,0.008333333,1,0,0,0.508,optionRight,30,10725,5,39,0,39,0,1,,,,,,,,,,,,,,,,,,,,,,,,,,,,,,,,,,,,,,,
,,,,,,,UK,2023-08-16_08h40.52.436,HF_wild_card,2022.2.4,MacIntel,61.05006105,5c584e854e32ef00014af685,64d2fd46c836a06233681665,64dc7d5b60510beb19e2ece9,,,,,,,sngl,resources/DP.BMP,resources/Empty.png,WildCard_Ex,-0.310185185,-0.041666667,1,0,0,0.545,optionLeft,95,10820,5,40,0,40,0,1,,,,,,,,,,,,,,,,,,,,,,,,,,,,,,,,,,,,,,,
,,,,,,,UK,2023-08-16_08h40.52.436,HF_wild_card,2022.2.4,MacIntel,61.05006105,5c584e854e32ef00014af685,64d2fd46c836a06233681665,64dc7d5b60510beb19e2ece9,,,,,,,decisionTrl,resources/DP.BMP,resources/DY.BMP,Door3,0.171296296,-0.011111111,1,0,0,0.646,optionRight,70,10890,5,41,0,41,0,1,,,,,,,,,,,,,,,,,,,,,,,,,,,,,,,,,,,,,,,
,,,,,,,UK,2023-08-16_08h40.52.436,HF_wild_card,2022.2.4,MacIntel,61.05006105,5c584e854e32ef00014af685,64d2fd46c836a06233681665,64dc7d5b60510beb19e2ece9,,,,,,,sngl,resources/DB.BMP,resources/Empty.png,Door2,-0.160185185,-0.02962963,1,0,0,0.481,optionLeft,40,10930,5,42,0,42,0,1,,,,,,,,,,,,,,,,,,,,,,,,,,,,,,,,,,,,,,,
,,,,,,,UK,2023-08-16_08h40.52.436,HF_wild_card,2022.2.4,MacIntel,61.05006105,5c584e854e32ef00014af685,64d2fd46c836a06233681665,64dc7d5b60510beb19e2ece9,,,,,,,decisionTrl,resources/DBN.BMP,resources/DY.BMP,Door3,0.223148148,-0.000925926,1,0,0,0.564,optionRight,70,11000,5,43,0,43,0,1,,,,,,,,,,,,,,,,,,,,,,,,,,,,,,,,,,,,,,,
,,,,,,,UK,2023-08-16_08h40.52.436,HF_wild_card,2022.2.4,MacIntel,61.05006105,5c584e854e32ef00014af685,64d2fd46c836a06233681665,64dc7d5b60510beb19e2ece9,,,,,,,,,,,,,,,,,,,,,,,,,,4,0,4,0,1,,,,,,,,,,,,,,,,,,,,,,,,,,,,,,,,,,
,,,,,,,UK,2023-08-16_08h40.52.436,HF_wild_card,2022.2.4,MacIntel,61.05006105,5c584e854e32ef00014af685,64d2fd46c836a06233681665,64dc7d5b60510beb19e2ece9,,,,,,,decisionTrl,resources/DR.BMP,resources/DB.BMP,Door1,-0.311111111,-0.049074074,1,0,0,0.876,optionLeft,30,11030,6,0,0,0,0,1,,,,,,,,,,,,,,,,,,,,,,,,,,,,,,,,,,,,,,,
,,,,,,,UK,2023-08-16_08h40.52.436,HF_wild_card,2022.2.4,MacIntel,61.05006105,5c584e854e32ef00014af685,64d2fd46c836a06233681665,64dc7d5b60510beb19e2ece9,,,,,,,ctch,resources/DB.BMP,resources/DY.BMP,Door3,0.281481481,0.00462963,1,0,0,0.478,optionRight,70,11100,6,1,0,1,0,1,,,,,,,,,,,,,,,,,,,,,,,,,,,,,,,,,,,,,,,
,,,,,,,UK,2023-08-16_08h40.52.436,HF_wild_card,2022.2.4,MacIntel,61.05006105,5c584e854e32ef00014af685,64d2fd46c836a06233681665,64dc7d5b60510beb19e2ece9,,,,,,,ctch,resources/DBN.BMP,resources/DR.BMP,Door4,-0.238888889,-0.011111111,1,0,0,0.612,optionLeft,80,11180,6,2,0,2,0,1,,,,,,,,,,,,,,,,,,,,,,,,,,,,,,,,,,,,,,,
,,,,,,,UK,2023-08-16_08h40.52.436,HF_wild_card,2022.2.4,MacIntel,61.05006105,5c584e854e32ef00014af685,64d2fd46c836a06233681665,64dc7d5b60510beb19e2ece9,,,,,,,sngl,resources/DP.BMP,resources/Empty.png,WildCard_Ex,-0.312037037,-0.019444444,1,0,0,0.529,optionLeft,95,11275,6,3,0,3,0,1,,,,,,,,,,,,,,,,,,,,,,,,,,,,,,,,,,,,,,,
,,,,,,,UK,2023-08-16_08h40.52.436,HF_wild_card,2022.2.4,MacIntel,61.05006105,5c584e854e32ef00014af685,64d2fd46c836a06233681665,64dc7d5b60510beb19e2ece9,,,,,,,ctch,resources/DB.BMP,resources/DY.BMP,Door3,0.252777778,0.005555556,1,0,0,0.611,optionRight,70,11345,6,4,0,4,0,1,,,,,,,,,,,,,,,,,,,,,,,,,,,,,,,,,,,,,,,
,,,,,,,UK,2023-08-16_08h40.52.436,HF_wild_card,2022.2.4,MacIntel,61.05006105,5c584e854e32ef00014af685,64d2fd46c836a06233681665,64dc7d5b60510beb19e2ece9,,,,,,,decisionTrl,resources/DB.BMP,resources/DR.BMP,Door2,-0.208333333,-0.017592593,1,0,0,0.78,optionLeft,20,11365,6,5,0,5,0,1,,,,,,,,,,,,,,,,,,,,,,,,,,,,,,,,,,,,,,,
,,,,,,,UK,2023-08-16_08h40.52.436,HF_wild_card,2022.2.4,MacIntel,61.05006105,5c584e854e32ef00014af685,64d2fd46c836a06233681665,64dc7d5b60510beb19e2ece9,,,,,,,ctch,resources/DY.BMP,resources/DB.BMP,Door3,-0.399074074,-0.007407407,1,0,0,0.728,optionLeft,70,11435,6,6,0,6,0,1,,,,,,,,,,,,,,,,,,,,,,,,,,,,,,,,,,,,,,,
,,,,,,,UK,2023-08-16_08h40.52.436,HF_wild_card,2022.2.4,MacIntel,61.05006105,5c584e854e32ef00014af685,64d2fd46c836a06233681665,64dc7d5b60510beb19e2ece9,,,,,,,decisionTrl,resources/DBN.BMP,resources/DY.BMP,Door4,-0.347222222,-0.002777778,1,0,0,0.596,optionLeft,80,11515,6,7,0,7,0,1,,,,,,,,,,,,,,,,,,,,,,,,,,,,,,,,,,,,,,,
,,,,,,,UK,2023-08-16_08h40.52.436,HF_wild_card,2022.2.4,MacIntel,61.05006105,5c584e854e32ef00014af685,64d2fd46c836a06233681665,64dc7d5b60510beb19e2ece9,,,,,,,sngl,resources/Empty.png,resources/DY.BMP,Door3,0.276851852,-0.000925926,1,0,0,0.647,optionRight,70,11585,6,8,0,8,0,1,,,,,,,,,,,,,,,,,,,,,,,,,,,,,,,,,,,,,,,
,,,,,,,UK,2023-08-16_08h40.52.436,HF_wild_card,2022.2.4,MacIntel,61.05006105,5c584e854e32ef00014af685,64d2fd46c836a06233681665,64dc7d5b60510beb19e2ece9,,,,,,,decisionTrl,resources/DR.BMP,resources/DP.BMP,WildCard_Ex,0.221296296,-0.003703704,1,0,0,0.729,optionRight,5,11590,6,9,0,9,0,1,,,,,,,,,,,,,,,,,,,,,,,,,,,,,,,,,,,,,,,
,,,,,,,UK,2023-08-16_08h40.52.436,HF_wild_card,2022.2.4,MacIntel,61.05006105,5c584e854e32ef00014af685,64d2fd46c836a06233681665,64dc7d5b60510beb19e2ece9,,,,,,,sngl,resources/Empty.png,resources/DP.BMP,WildCard_Ex,0.308333333,0.000925926,1,0,0,0.46,optionRight,95,11685,6,10,0,10,0,1,,,,,,,,,,,,,,,,,,,,,,,,,,,,,,,,,,,,,,,
,,,,,,,UK,2023-08-16_08h40.52.436,HF_wild_card,2022.2.4,MacIntel,61.05006105,5c584e854e32ef00014af685,64d2fd46c836a06233681665,64dc7d5b60510beb19e2ece9,,,,,,,decisionTrl,resources/DP.BMP,resources/DBN.BMP,WildCard_Ex,-0.29537037,-0.008333333,1,0,0,0.495,optionLeft,5,11690,6,11,0,11,0,1,,,,,,,,,,,,,,,,,,,,,,,,,,,,,,,,,,,,,,,
,,,,,,,UK,2023-08-16_08h40.52.436,HF_wild_card,2022.2.4,MacIntel,61.05006105,5c584e854e32ef00014af685,64d2fd46c836a06233681665,64dc7d5b60510beb19e2ece9,,,,,,,decisionTrl,resources/DY.BMP,resources/DP.BMP,WildCard_Ex,0.340740741,0.019444444,1,0,0,0.511,optionRight,5,11695,6,12,0,12,0,1,,,,,,,,,,,,,,,,,,,,,,,,,,,,,,,,,,,,,,,
,,,,,,,UK,2023-08-16_08h40.52.436,HF_wild_card,2022.2.4,MacIntel,61.05006105,5c584e854e32ef00014af685,64d2fd46c836a06233681665,64dc7d5b60510beb19e2ece9,,,,,,,sngl,resources/DBN.BMP,resources/Empty.png,Door4,-0.180555556,-0.016666667,1,0,0,0.446,optionLeft,60,11755,6,13,0,13,0,1,,,,,,,,,,,,,,,,,,,,,,,,,,,,,,,,,,,,,,,
,,,,,,,UK,2023-08-16_08h40.52.436,HF_wild_card,2022.2.4,MacIntel,61.05006105,5c584e854e32ef00014af685,64d2fd46c836a06233681665,64dc7d5b60510beb19e2ece9,,,,,,,ctch,resources/DY.BMP,resources/DB.BMP,Door3,-0.193518519,-0.021296296,1,0,0,0.612,optionLeft,70,11825,6,14,0,14,0,1,,,,,,,,,,,,,,,,,,,,,,,,,,,,,,,,,,,,,,,
,,,,,,,UK,2023-08-16_08h40.52.436,HF_wild_card,2022.2.4,MacIntel,61.05006105,5c584e854e32ef00014af685,64d2fd46c836a06233681665,64dc7d5b60510beb19e2ece9,,,,,,,sngl,resources/Empty.png,resources/DR.BMP,Door1,0.217592593,0,1,0,0,0.547,optionRight,30,11855,6,15,0,15,0,1,,,,,,,,,,,,,,,,,,,,,,,,,,,,,,,,,,,,,,,
,,,,,,,UK,2023-08-16_08h40.52.436,HF_wild_card,2022.2.4,MacIntel,61.05006105,5c584e854e32ef00014af685,64d2fd46c836a06233681665,64dc7d5b60510beb19e2ece9,,,,,,,decisionTrl,resources/DB.BMP,resources/DR.BMP,Door2,-0.209259259,-0.025925926,1,0,0,0.713,optionLeft,40,11895,6,16,0,16,0,1,,,,,,,,,,,,,,,,,,,,,,,,,,,,,,,,,,,,,,,
,,,,,,,UK,2023-08-16_08h40.52.436,HF_wild_card,2022.2.4,MacIntel,61.05006105,5c584e854e32ef00014af685,64d2fd46c836a06233681665,64dc7d5b60510beb19e2ece9,,,,,,,decisionTrl,resources/DP.BMP,resources/DB.BMP,WildCard_Ex,-0.385185185,-0.028703704,1,0,0,0.963,optionLeft,5,11900,6,17,0,17,0,1,,,,,,,,,,,,,,,,,,,,,,,,,,,,,,,,,,,,,,,
,,,,,,,UK,2023-08-16_08h40.52.436,HF_wild_card,2022.2.4,MacIntel,61.05006105,5c584e854e32ef00014af685,64d2fd46c836a06233681665,64dc7d5b60510beb19e2ece9,,,,,,,sngl,resources/DP.BMP,resources/Empty.png,WildCard_Ex,-0.193518519,-0.034259259,1,0,0,0.58,optionLeft,5,11905,6,18,0,18,0,1,,,,,,,,,,,,,,,,,,,,,,,,,,,,,,,,,,,,,,,
,,,,,,,UK,2023-08-16_08h40.52.436,HF_wild_card,2022.2.4,MacIntel,61.05006105,5c584e854e32ef00014af685,64d2fd46c836a06233681665,64dc7d5b60510beb19e2ece9,,,,,,,decisionTrl,resources/DP.BMP,resources/DY.BMP,Door3,0.306481481,0.001851852,1,0,0,0.529,optionRight,70,11975,6,19,0,19,0,1,,,,,,,,,,,,,,,,,,,,,,,,,,,,,,,,,,,,,,,
,,,,,,,UK,2023-08-16_08h40.52.436,HF_wild_card,2022.2.4,MacIntel,61.05006105,5c584e854e32ef00014af685,64d2fd46c836a06233681665,64dc7d5b60510beb19e2ece9,,,,,,,decisionTrl,resources/DR.BMP,resources/DB.BMP,Door1,-0.321296296,-0.018518519,1,0,0,0.905,optionLeft,30,12005,6,20,0,20,0,1,,,,,,,,,,,,,,,,,,,,,,,,,,,,,,,,,,,,,,,
,,,,,,,UK,2023-08-16_08h40.52.436,HF_wild_card,2022.2.4,MacIntel,61.05006105,5c584e854e32ef00014af685,64d2fd46c836a06233681665,64dc7d5b60510beb19e2ece9,,,,,,,decisionTrl,resources/DY.BMP,resources/DBN.BMP,Door4,0.201851852,0.000925926,1,0,0,0.647,optionRight,80,12085,6,21,0,21,0,1,,,,,,,,,,,,,,,,,,,,,,,,,,,,,,,,,,,,,,,
,,,,,,,UK,2023-08-16_08h40.52.436,HF_wild_card,2022.2.4,MacIntel,61.05006105,5c584e854e32ef00014af685,64d2fd46c836a06233681665,64dc7d5b60510beb19e2ece9,,,,,,,sngl,resources/Empty.png,resources/DB.BMP,Door2,0.290740741,0.010185185,1,0,0,0.464,optionRight,40,12125,6,22,0,22,0,1,,,,,,,,,,,,,,,,,,,,,,,,,,,,,,,,,,,,,,,
,,,,,,,UK,2023-08-16_08h40.52.436,HF_wild_card,2022.2.4,MacIntel,61.05006105,5c584e854e32ef00014af685,64d2fd46c836a06233681665,64dc7d5b60510beb19e2ece9,,,,,,,decisionTrl,resources/DR.BMP,resources/DB.BMP,Door1,-0.243518519,-0.025,1,0,0,0.514,optionLeft,30,12155,6,23,0,23,0,1,,,,,,,,,,,,,,,,,,,,,,,,,,,,,,,,,,,,,,,
,,,,,,,UK,2023-08-16_08h40.52.436,HF_wild_card,2022.2.4,MacIntel,61.05006105,5c584e854e32ef00014af685,64d2fd46c836a06233681665,64dc7d5b60510beb19e2ece9,,,,,,,decisionTrl,resources/DR.BMP,resources/DB.BMP,Door2,0.324074074,0.012037037,1,0,0,0.48,optionRight,20,12175,6,24,0,24,0,1,,,,,,,,,,,,,,,,,,,,,,,,,,,,,,,,,,,,,,,
,,,,,,,UK,2023-08-16_08h40.52.436,HF_wild_card,2022.2.4,MacIntel,61.05006105,5c584e854e32ef00014af685,64d2fd46c836a06233681665,64dc7d5b60510beb19e2ece9,,,,,,,decisionTrl,resources/DY.BMP,resources/DBN.BMP,Door4,0.298148148,0.003703704,1,0,0,0.643,optionRight,60,12235,6,25,0,25,0,1,,,,,,,,,,,,,,,,,,,,,,,,,,,,,,,,,,,,,,,
,,,,,,,UK,2023-08-16_08h40.52.436,HF_wild_card,2022.2.4,MacIntel,61.05006105,5c584e854e32ef00014af685,64d2fd46c836a06233681665,64dc7d5b60510beb19e2ece9,,,,,,,decisionTrl,resources/DBN.BMP,resources/DY.BMP,Door4,-0.177777778,-0.016666667,1,0,0,0.579,optionLeft,60,12295,6,26,0,26,0,1,,,,,,,,,,,,,,,,,,,,,,,,,,,,,,,,,,,,,,,
,,,,,,,UK,2023-08-16_08h40.52.436,HF_wild_card,2022.2.4,MacIntel,61.05006105,5c584e854e32ef00014af685,64d2fd46c836a06233681665,64dc7d5b60510beb19e2ece9,,,,,,,sngl,resources/Empty.png,resources/DP.BMP,WildCard_Ex,0.282407407,0.014814815,1,0,0,0.512,optionRight,5,12300,6,27,0,27,0,1,,,,,,,,,,,,,,,,,,,,,,,,,,,,,,,,,,,,,,,
,,,,,,,UK,2023-08-16_08h40.52.436,HF_wild_card,2022.2.4,MacIntel,61.05006105,5c584e854e32ef00014af685,64d2fd46c836a06233681665,64dc7d5b60510beb19e2ece9,,,,,,,sngl,resources/DY.BMP,resources/Empty.png,Door3,-0.286111111,-0.02037037,1,0,0,0.412,optionLeft,70,12370,6,28,0,28,0,1,,,,,,,,,,,,,,,,,,,,,,,,,,,,,,,,,,,,,,,
,,,,,,,UK,2023-08-16_08h40.52.436,HF_wild_card,2022.2.4,MacIntel,61.05006105,5c584e854e32ef00014af685,64d2fd46c836a06233681665,64dc7d5b60510beb19e2ece9,,,,,,,decisionTrl,resources/DP.BMP,resources/DR.BMP,WildCard_Ex,-0.461111111,0.002777778,1,0,0,0.561,optionLeft,95,12465,6,29,0,29,0,1,,,,,,,,,,,,,,,,,,,,,,,,,,,,,,,,,,,,,,,
,,,,,,,UK,2023-08-16_08h40.52.436,HF_wild_card,2022.2.4,MacIntel,61.05006105,5c584e854e32ef00014af685,64d2fd46c836a06233681665,64dc7d5b60510beb19e2ece9,,,,,,,sngl,resources/DB.BMP,resources/Empty.png,Door2,-0.363888889,-0.028703704,1,0,0,0.465,optionLeft,20,12485,6,30,0,30,0,1,,,,,,,,,,,,,,,,,,,,,,,,,,,,,,,,,,,,,,,
,,,,,,,UK,2023-08-16_08h40.52.436,HF_wild_card,2022.2.4,MacIntel,61.05006105,5c584e854e32ef00014af685,64d2fd46c836a06233681665,64dc7d5b60510beb19e2ece9,,,,,,,ctch,resources/DBN.BMP,resources/DR.BMP,Door4,-0.313888889,0.02037037,1,0,0,0.563,optionLeft,60,12545,6,31,0,31,0,1,,,,,,,,,,,,,,,,,,,,,,,,,,,,,,,,,,,,,,,
,,,,,,,UK,2023-08-16_08h40.52.436,HF_wild_card,2022.2.4,MacIntel,61.05006105,5c584e854e32ef00014af685,64d2fd46c836a06233681665,64dc7d5b60510beb19e2ece9,,,,,,,decisionTrl,resources/DY.BMP,resources/DBN.BMP,Door3,-0.272222222,-0.018518519,1,0,0,0.832,optionLeft,70,12615,6,32,0,32,0,1,,,,,,,,,,,,,,,,,,,,,,,,,,,,,,,,,,,,,,,
,,,,,,,UK,2023-08-16_08h40.52.436,HF_wild_card,2022.2.4,MacIntel,61.05006105,5c584e854e32ef00014af685,64d2fd46c836a06233681665,64dc7d5b60510beb19e2ece9,,,,,,,decisionTrl,resources/DY.BMP,resources/DBN.BMP,Door4,0.225,0.016666667,1,0,0,0.415,optionRight,80,12695,6,33,0,33,0,1,,,,,,,,,,,,,,,,,,,,,,,,,,,,,,,,,,,,,,,
,,,,,,,UK,2023-08-16_08h40.52.436,HF_wild_card,2022.2.4,MacIntel,61.05006105,5c584e854e32ef00014af685,64d2fd46c836a06233681665,64dc7d5b60510beb19e2ece9,,,,,,,decisionTrl,resources/DB.BMP,resources/DP.BMP,WildCard_Ex,0.242592593,0.016666667,1,0,0,0.498,optionRight,5,12700,6,34,0,34,0,1,,,,,,,,,,,,,,,,,,,,,,,,,,,,,,,,,,,,,,,
,,,,,,,UK,2023-08-16_08h40.52.436,HF_wild_card,2022.2.4,MacIntel,61.05006105,5c584e854e32ef00014af685,64d2fd46c836a06233681665,64dc7d5b60510beb19e2ece9,,,,,,,decisionTrl,resources/DBN.BMP,resources/DY.BMP,Door3,0.232407407,0.012037037,1,0,0,0.529,optionRight,70,12770,6,35,0,35,0,1,,,,,,,,,,,,,,,,,,,,,,,,,,,,,,,,,,,,,,,
,,,,,,,UK,2023-08-16_08h40.52.436,HF_wild_card,2022.2.4,MacIntel,61.05006105,5c584e854e32ef00014af685,64d2fd46c836a06233681665,64dc7d5b60510beb19e2ece9,,,,,,,ctch,resources/DR.BMP,resources/DBN.BMP,Door4,0.27962963,0.019444444,1,0,0,0.58,optionRight,60,12830,6,36,0,36,0,1,,,,,,,,,,,,,,,,,,,,,,,,,,,,,,,,,,,,,,,
,,,,,,,UK,2023-08-16_08h40.52.436,HF_wild_card,2022.2.4,MacIntel,61.05006105,5c584e854e32ef00014af685,64d2fd46c836a06233681665,64dc7d5b60510beb19e2ece9,,,,,,,sngl,resources/Empty.png,resources/DBN.BMP,Door4,0.302777778,0.010185185,1,0,0,0.496,optionRight,80,12910,6,37,0,37,0,1,,,,,,,,,,,,,,,,,,,,,,,,,,,,,,,,,,,,,,,
,,,,,,,UK,2023-08-16_08h40.52.436,HF_wild_card,2022.2.4,MacIntel,61.05006105,5c584e854e32ef00014af685,64d2fd46c836a06233681665,64dc7d5b60510beb19e2ece9,,,,,,,ctch,resources/DR.BMP,resources/DBN.BMP,Door4,0.214814815,0.016666667,1,0,0,0.611,optionRight,60,12970,6,38,0,38,0,1,,,,,,,,,,,,,,,,,,,,,,,,,,,,,,,,,,,,,,,
,,,,,,,UK,2023-08-16_08h40.52.436,HF_wild_card,2022.2.4,MacIntel,61.05006105,5c584e854e32ef00014af685,64d2fd46c836a06233681665,64dc7d5b60510beb19e2ece9,,,,,,,decisionTrl,resources/DBN.BMP,resources/DP.BMP,WildCard_Ex,0.235185185,-0.006481481,1,0,0,0.511,optionRight,95,13065,6,39,0,39,0,1,,,,,,,,,,,,,,,,,,,,,,,,,,,,,,,,,,,,,,,
,,,,,,,UK,2023-08-16_08h40.52.436,HF_wild_card,2022.2.4,MacIntel,61.05006105,5c584e854e32ef00014af685,64d2fd46c836a06233681665,64dc7d5b60510beb19e2ece9,,,,,,,decisionTrl,resources/DB.BMP,resources/DR.BMP,Door1,0.188888889,0.009259259,1,0,0,0.478,optionRight,30,13095,6,40,0,40,0,1,,,,,,,,,,,,,,,,,,,,,,,,,,,,,,,,,,,,,,,
,,,,,,,UK,2023-08-16_08h40.52.436,HF_wild_card,2022.2.4,MacIntel,61.05006105,5c584e854e32ef00014af685,64d2fd46c836a06233681665,64dc7d5b60510beb19e2ece9,,,,,,,decisionTrl,resources/DB.BMP,resources/DR.BMP,Door2,-0.262962963,-0.032407407,1,0,0,0.512,optionLeft,20,13115,6,41,0,41,0,1,,,,,,,,,,,,,,,,,,,,,,,,,,,,,,,,,,,,,,,
,,,,,,,UK,2023-08-16_08h40.52.436,HF_wild_card,2022.2.4,MacIntel,61.05006105,5c584e854e32ef00014af685,64d2fd46c836a06233681665,64dc7d5b60510beb19e2ece9,,,,,,,sngl,resources/DR.BMP,resources/Empty.png,Door1,-0.287037037,-0.018518519,1,0,0,0.495,optionLeft,30,13145,6,42,0,42,0,1,,,,,,,,,,,,,,,,,,,,,,,,,,,,,,,,,,,,,,,
,,,,,,,UK,2023-08-16_08h40.52.436,HF_wild_card,2022.2.4,MacIntel,61.05006105,5c584e854e32ef00014af685,64d2fd46c836a06233681665,64dc7d5b60510beb19e2ece9,,,,,,,decisionTrl,resources/DBN.BMP,resources/DY.BMP,Door4,-0.327777778,-0.000925926,1,0,0,0.745,optionLeft,80,13225,6,43,0,43,0,1,,,,,,,,,,,,,,,,,,,,,,,,,,,,,,,,,,,,,,,
,,,,,,,UK,2023-08-16_08h40.52.436,HF_wild_card,2022.2.4,MacIntel,61.05006105,5c584e854e32ef00014af685,64d2fd46c836a06233681665,64dc7d5b60510beb19e2ece9,,,,,,,,,,,,,,,,,,,,,,,,,,5,0,5,0,1,,,,,,,,,,,,,,,,,,,,,,,,,,,,,,,,,,
,,,,,,,UK,2023-08-16_08h40.52.436,HF_wild_card,2022.2.4,MacIntel,61.05006105,5c584e854e32ef00014af685,64d2fd46c836a06233681665,64dc7d5b60510beb19e2ece9,,,,,,,ctch,resources/DBN.BMP,resources/DR.BMP,Door4,-0.240740741,-0.123148148,1,0,0,0.727,optionLeft,60,13285,7,0,0,0,0,1,,,,,,,,,,,,,,,,,,,,,,,,,,,,,,,,,,,,,,,
,,,,,,,UK,2023-08-16_08h40.52.436,HF_wild_card,2022.2.4,MacIntel,61.05006105,5c584e854e32ef00014af685,64d2fd46c836a06233681665,64dc7d5b60510beb19e2ece9,,,,,,,decisionTrl,resources/DB.BMP,resources/DR.BMP,Door1,0.232407407,-0.00462963,1,0,0,0.53,optionRight,30,13315,7,1,0,1,0,1,,,,,,,,,,,,,,,,,,,,,,,,,,,,,,,,,,,,,,,
,,,,,,,UK,2023-08-16_08h40.52.436,HF_wild_card,2022.2.4,MacIntel,61.05006105,5c584e854e32ef00014af685,64d2fd46c836a06233681665,64dc7d5b60510beb19e2ece9,,,,,,,decisionTrl,resources/DB.BMP,resources/DR.BMP,Door2,-0.282407407,-0.025,1,0,0,0.499,optionLeft,20,13335,7,2,0,2,0,1,,,,,,,,,,,,,,,,,,,,,,,,,,,,,,,,,,,,,,,
,,,,,,,UK,2023-08-16_08h40.52.436,HF_wild_card,2022.2.4,MacIntel,61.05006105,5c584e854e32ef00014af685,64d2fd46c836a06233681665,64dc7d5b60510beb19e2ece9,,,,,,,decisionTrl,resources/DB.BMP,resources/DR.BMP,Door1,0.253703704,0.022222222,1,0,0,0.399,optionRight,30,13365,7,3,0,3,0,1,,,,,,,,,,,,,,,,,,,,,,,,,,,,,,,,,,,,,,,
,,,,,,,UK,2023-08-16_08h40.52.436,HF_wild_card,2022.2.4,MacIntel,61.05006105,5c584e854e32ef00014af685,64d2fd46c836a06233681665,64dc7d5b60510beb19e2ece9,,,,,,,decisionTrl,resources/DY.BMP,resources/DBN.BMP,Door4,0.268518519,0.043518519,1,0,0,0.682,optionRight,80,13445,7,4,0,4,0,1,,,,,,,,,,,,,,,,,,,,,,,,,,,,,,,,,,,,,,,
,,,,,,,UK,2023-08-16_08h40.52.436,HF_wild_card,2022.2.4,MacIntel,61.05006105,5c584e854e32ef00014af685,64d2fd46c836a06233681665,64dc7d5b60510beb19e2ece9,,,,,,,ctch,resources/DBN.BMP,resources/DR.BMP,Door4,-0.224074074,-0.036111111,1,0,0,0.529,optionLeft,80,13525,7,5,0,5,0,1,,,,,,,,,,,,,,,,,,,,,,,,,,,,,,,,,,,,,,,
,,,,,,,UK,2023-08-16_08h40.52.436,HF_wild_card,2022.2.4,MacIntel,61.05006105,5c584e854e32ef00014af685,64d2fd46c836a06233681665,64dc7d5b60510beb19e2ece9,,,,,,,decisionTrl,resources/DY.BMP,resources/DBN.BMP,Door4,0.271296296,0.012962963,1,0,0,0.411,optionRight,60,13585,7,6,0,6,0,1,,,,,,,,,,,,,,,,,,,,,,,,,,,,,,,,,,,,,,,
,,,,,,,UK,2023-08-16_08h40.52.436,HF_wild_card,2022.2.4,MacIntel,61.05006105,5c584e854e32ef00014af685,64d2fd46c836a06233681665,64dc7d5b60510beb19e2ece9,,,,,,,decisionTrl,resources/DR.BMP,resources/DB.BMP,Door1,-0.233333333,-0.035185185,1,0,0,0.53,optionLeft,30,13615,7,7,0,7,0,1,,,,,,,,,,,,,,,,,,,,,,,,,,,,,,,,,,,,,,,
,,,,,,,UK,2023-08-16_08h40.52.436,HF_wild_card,2022.2.4,MacIntel,61.05006105,5c584e854e32ef00014af685,64d2fd46c836a06233681665,64dc7d5b60510beb19e2ece9,,,,,,,decisionTrl,resources/DBN.BMP,resources/DY.BMP,Door4,-0.252777778,-0.037962963,1,0,0,0.429,optionLeft,60,13675,7,8,0,8,0,1,,,,,,,,,,,,,,,,,,,,,,,,,,,,,,,,,,,,,,,
,,,,,,,UK,2023-08-16_08h40.52.436,HF_wild_card,2022.2.4,MacIntel,61.05006105,5c584e854e32ef00014af685,64d2fd46c836a06233681665,64dc7d5b60510beb19e2ece9,,,,,,,ctch,resources/DB.BMP,resources/DY.BMP,Door3,0.251851852,0.008333333,1,0,0,0.429,optionRight,70,13745,7,9,0,9,0,1,,,,,,,,,,,,,,,,,,,,,,,,,,,,,,,,,,,,,,,
,,,,,,,UK,2023-08-16_08h40.52.436,HF_wild_card,2022.2.4,MacIntel,61.05006105,5c584e854e32ef00014af685,64d2fd46c836a06233681665,64dc7d5b60510beb19e2ece9,,,,,,,ctch,resources/DR.BMP,resources/DBN.BMP,Door4,0.216666667,-0.013888889,1,0,0,0.646,optionRight,60,13805,7,10,0,10,0,1,,,,,,,,,,,,,,,,,,,,,,,,,,,,,,,,,,,,,,,
,,,,,,,UK,2023-08-16_08h40.52.436,HF_wild_card,2022.2.4,MacIntel,61.05006105,5c584e854e32ef00014af685,64d2fd46c836a06233681665,64dc7d5b60510beb19e2ece9,,,,,,,ctch,resources/DY.BMP,resources/DB.BMP,Door3,-0.397222222,-0.009259259,1,0,0,0.747,optionLeft,70,13875,7,11,0,11,0,1,,,,,,,,,,,,,,,,,,,,,,,,,,,,,,,,,,,,,,,
,,,,,,,UK,2023-08-16_08h40.52.436,HF_wild_card,2022.2.4,MacIntel,61.05006105,5c584e854e32ef00014af685,64d2fd46c836a06233681665,64dc7d5b60510beb19e2ece9,,,,,,,ctch,resources/DB.BMP,resources/DY.BMP,Door3,0.223148148,0.012962963,1,0,0,0.447,optionRight,70,13945,7,12,0,12,0,1,,,,,,,,,,,,,,,,,,,,,,,,,,,,,,,,,,,,,,,
,,,,,,,UK,2023-08-16_08h40.52.436,HF_wild_card,2022.2.4,MacIntel,61.05006105,5c584e854e32ef00014af685,64d2fd46c836a06233681665,64dc7d5b60510beb19e2ece9,,,,,,,decisionTrl,resources/DY.BMP,resources/DBN.BMP,Door4,0.273148148,0.016666667,1,0,0,0.514,optionRight,80,14025,7,13,0,13,0,1,,,,,,,,,,,,,,,,,,,,,,,,,,,,,,,,,,,,,,,
,,,,,,,UK,2023-08-16_08h40.52.436,HF_wild_card,2022.2.4,MacIntel,61.05006105,5c584e854e32ef00014af685,64d2fd46c836a06233681665,64dc7d5b60510beb19e2ece9,,,,,,,decisionTrl,resources/DBN.BMP,resources/DY.BMP,Door4,-0.237037037,-0.024074074,1,0,0,0.481,optionLeft,80,14105,7,14,0,14,0,1,,,,,,,,,,,,,,,,,,,,,,,,,,,,,,,,,,,,,,,
,,,,,,,UK,2023-08-16_08h40.52.436,HF_wild_card,2022.2.4,MacIntel,61.05006105,5c584e854e32ef00014af685,64d2fd46c836a06233681665,64dc7d5b60510beb19e2ece9,,,,,,,decisionTrl,resources/DBN.BMP,resources/DY.BMP,Door3,0.178703704,-0.000925926,1,0,0,0.5,optionRight,70,14175,7,15,0,15,0,1,,,,,,,,,,,,,,,,,,,,,,,,,,,,,,,,,,,,,,,
,,,,,,,UK,2023-08-16_08h40.52.436,HF_wild_card,2022.2.4,MacIntel,61.05006105,5c584e854e32ef00014af685,64d2fd46c836a06233681665,64dc7d5b60510beb19e2ece9,,,,,,,decisionTrl,resources/DR.BMP,resources/DB.BMP,Door2,0.193518519,-0.001851852,1,0,0,0.532,optionRight,20,14195,7,16,0,16,0,1,,,,,,,,,,,,,,,,,,,,,,,,,,,,,,,,,,,,,,,
,,,,,,,UK,2023-08-16_08h40.52.436,HF_wild_card,2022.2.4,MacIntel,61.05006105,5c584e854e32ef00014af685,64d2fd46c836a06233681665,64dc7d5b60510beb19e2ece9,,,,,,,decisionTrl,resources/DBN.BMP,resources/DY.BMP,Door4,-0.231481481,-0.025925926,1,0,0,0.48,optionLeft,80,14275,7,17,0,17,0,1,,,,,,,,,,,,,,,,,,,,,,,,,,,,,,,,,,,,,,,
,,,,,,,UK,2023-08-16_08h40.52.436,HF_wild_card,2022.2.4,MacIntel,61.05006105,5c584e854e32ef00014af685,64d2fd46c836a06233681665,64dc7d5b60510beb19e2ece9,,,,,,,decisionTrl,resources/DR.BMP,resources/DB.BMP,Door2,0.178703704,0.008333333,1,0,0,0.498,optionRight,20,14295,7,18,0,18,0,1,,,,,,,,,,,,,,,,,,,,,,,,,,,,,,,,,,,,,,,
,,,,,,,UK,2023-08-16_08h40.52.436,HF_wild_card,2022.2.4,MacIntel,61.05006105,5c584e854e32ef00014af685,64d2fd46c836a06233681665,64dc7d5b60510beb19e2ece9,,,,,,,decisionTrl,resources/DY.BMP,resources/DBN.BMP,Door4,0.15,-0.000925926,1,0,0,0.581,optionRight,60,14355,7,19,0,19,0,1,,,,,,,,,,,,,,,,,,,,,,,,,,,,,,,,,,,,,,,
,,,,,,,UK,2023-08-16_08h40.52.436,HF_wild_card,2022.2.4,MacIntel,61.05006105,5c584e854e32ef00014af685,64d2fd46c836a06233681665,64dc7d5b60510beb19e2ece9,,,,,,,decisionTrl,resources/DR.BMP,resources/DB.BMP,Door1,-0.225925926,-0.043518519,1,0,0,0.482,optionLeft,30,14385,7,20,0,20,0,1,,,,,,,,,,,,,,,,,,,,,,,,,,,,,,,,,,,,,,,
,,,,,,,UK,2023-08-16_08h40.52.436,HF_wild_card,2022.2.4,MacIntel,61.05006105,5c584e854e32ef00014af685,64d2fd46c836a06233681665,64dc7d5b60510beb19e2ece9,,,,,,,ctch,resources/DY.BMP,resources/DB.BMP,Door3,-0.218518519,-0.036111111,1,0,0,0.529,optionLeft,70,14455,7,21,0,21,0,1,,,,,,,,,,,,,,,,,,,,,,,,,,,,,,,,,,,,,,,
,,,,,,,UK,2023-08-16_08h40.52.436,HF_wild_card,2022.2.4,MacIntel,61.05006105,5c584e854e32ef00014af685,64d2fd46c836a06233681665,64dc7d5b60510beb19e2ece9,,,,,,,decisionTrl,resources/DB.BMP,resources/DR.BMP,Door1,0.184259259,-0.005555556,1,0,0,0.729,optionRight,30,14485,7,22,0,22,0,1,,,,,,,,,,,,,,,,,,,,,,,,,,,,,,,,,,,,,,,
,,,,,,,UK,2023-08-16_08h40.52.436,HF_wild_card,2022.2.4,MacIntel,61.05006105,5c584e854e32ef00014af685,64d2fd46c836a06233681665,64dc7d5b60510beb19e2ece9,,,,,,,decisionTrl,resources/DY.BMP,resources/DBN.BMP,Door4,0.183333333,-0.001851852,1,0,0,0.563,optionRight,60,14545,7,23,0,23,0,1,,,,,,,,,,,,,,,,,,,,,,,,,,,,,,,,,,,,,,,
,,,,,,,UK,2023-08-16_08h40.52.436,HF_wild_card,2022.2.4,MacIntel,61.05006105,5c584e854e32ef00014af685,64d2fd46c836a06233681665,64dc7d5b60510beb19e2ece9,,,,,,,ctch,resources/DR.BMP,resources/DBN.BMP,Door4,0.152777778,-0.002777778,1,0,0,0.546,optionRight,80,14625,7,24,0,24,0,1,,,,,,,,,,,,,,,,,,,,,,,,,,,,,,,,,,,,,,,
,,,,,,,UK,2023-08-16_08h40.52.436,HF_wild_card,2022.2.4,MacIntel,61.05006105,5c584e854e32ef00014af685,64d2fd46c836a06233681665,64dc7d5b60510beb19e2ece9,,,,,,,decisionTrl,resources/DB.BMP,resources/DR.BMP,Door2,-0.180555556,-0.026851852,1,0,0,0.514,optionLeft,20,14645,7,25,0,25,0,1,,,,,,,,,,,,,,,,,,,,,,,,,,,,,,,,,,,,,,,
,,,,,,,UK,2023-08-16_08h40.52.436,HF_wild_card,2022.2.4,MacIntel,61.05006105,5c584e854e32ef00014af685,64d2fd46c836a06233681665,64dc7d5b60510beb19e2ece9,,,,,,,decisionTrl,resources/DBN.BMP,resources/DY.BMP,Door3,0.173148148,-0.016666667,1,0,0,0.431,optionRight,70,14715,7,26,0,26,0,1,,,,,,,,,,,,,,,,,,,,,,,,,,,,,,,,,,,,,,,
,,,,,,,UK,2023-08-16_08h40.52.436,HF_wild_card,2022.2.4,MacIntel,61.05006105,5c584e854e32ef00014af685,64d2fd46c836a06233681665,64dc7d5b60510beb19e2ece9,,,,,,,decisionTrl,resources/DR.BMP,resources/DB.BMP,Door1,-0.184259259,-0.024074074,1,0,0,0.597,optionLeft,30,14745,7,27,0,27,0,1,,,,,,,,,,,,,,,,,,,,,,,,,,,,,,,,,,,,,,,
,,,,,,,UK,2023-08-16_08h40.52.436,HF_wild_card,2022.2.4,MacIntel,61.05006105,5c584e854e32ef00014af685,64d2fd46c836a06233681665,64dc7d5b60510beb19e2ece9,,,,,,,ctch,resources/DR.BMP,resources/DBN.BMP,Door4,0.146296296,-0.001851852,1,0,0,0.499,optionRight,80,14825,7,28,0,28,0,1,,,,,,,,,,,,,,,,,,,,,,,,,,,,,,,,,,,,,,,
,,,,,,,UK,2023-08-16_08h40.52.436,HF_wild_card,2022.2.4,MacIntel,61.05006105,5c584e854e32ef00014af685,64d2fd46c836a06233681665,64dc7d5b60510beb19e2ece9,,,,,,,ctch,resources/DB.BMP,resources/DY.BMP,Door3,0.159259259,-0.006481481,1,0,0,0.498,optionRight,70,14895,7,29,0,29,0,1,,,,,,,,,,,,,,,,,,,,,,,,,,,,,,,,,,,,,,,
,,,,,,,UK,2023-08-16_08h40.52.436,HF_wild_card,2022.2.4,MacIntel,61.05006105,5c584e854e32ef00014af685,64d2fd46c836a06233681665,64dc7d5b60510beb19e2ece9,,,,,,,decisionTrl,resources/DB.BMP,resources/DR.BMP,Door2,-0.3,-0.013888889,1,0,0,0.681,optionLeft,40,14935,7,30,0,30,0,1,,,,,,,,,,,,,,,,,,,,,,,,,,,,,,,,,,,,,,,
,,,,,,,UK,2023-08-16_08h40.52.436,HF_wild_card,2022.2.4,MacIntel,61.05006105,5c584e854e32ef00014af685,64d2fd46c836a06233681665,64dc7d5b60510beb19e2ece9,,,,,,,decisionTrl,resources/DBN.BMP,resources/DY.BMP,Door3,0.175,0.002777778,1,0,0,0.397,optionRight,70,15005,7,31,0,31,0,1,,,,,,,,,,,,,,,,,,,,,,,,,,,,,,,,,,,,,,,
,,,,,,,UK,2023-08-16_08h40.52.436,HF_wild_card,2022.2.4,MacIntel,61.05006105,5c584e854e32ef00014af685,64d2fd46c836a06233681665,64dc7d5b60510beb19e2ece9,,,,,,,decisionTrl,resources/DY.BMP,resources/DBN.BMP,Door4,0.213888889,0.010185185,1,0,0,0.597,optionRight,60,15065,7,32,0,32,0,1,,,,,,,,,,,,,,,,,,,,,,,,,,,,,,,,,,,,,,,
,,,,,,,UK,2023-08-16_08h40.52.436,HF_wild_card,2022.2.4,MacIntel,61.05006105,5c584e854e32ef00014af685,64d2fd46c836a06233681665,64dc7d5b60510beb19e2ece9,,,,,,,ctch,resources/DBN.BMP,resources/DR.BMP,Door4,-0.124074074,-0.003703704,1,0,0,0.516,optionLeft,60,15125,7,33,0,33,0,1,,,,,,,,,,,,,,,,,,,,,,,,,,,,,,,,,,,,,,,
,,,,,,,UK,2023-08-16_08h40.52.436,HF_wild_card,2022.2.4,MacIntel,61.05006105,5c584e854e32ef00014af685,64d2fd46c836a06233681665,64dc7d5b60510beb19e2ece9,,,,,,,decisionTrl,resources/DR.BMP,resources/DB.BMP,Door2,0.205555556,0.010185185,1,0,0,0.482,optionRight,20,15145,7,34,0,34,0,1,,,,,,,,,,,,,,,,,,,,,,,,,,,,,,,,,,,,,,,
,,,,,,,UK,2023-08-16_08h40.52.436,HF_wild_card,2022.2.4,MacIntel,61.05006105,5c584e854e32ef00014af685,64d2fd46c836a06233681665,64dc7d5b60510beb19e2ece9,,,,,,,ctch,resources/DY.BMP,resources/DB.BMP,Door3,-0.218518519,-0.017592593,1,0,0,0.381,optionLeft,70,15215,7,35,0,35,0,1,,,,,,,,,,,,,,,,,,,,,,,,,,,,,,,,,,,,,,,
,,,,,,,UK,2023-08-16_08h40.52.436,HF_wild_card,2022.2.4,MacIntel,61.05006105,5c584e854e32ef00014af685,64d2fd46c836a06233681665,64dc7d5b60510beb19e2ece9,,,,,,,,,,,,,,,,,,,,,,,,,,6,0,6,0,1,,,,,,,,,,,,,,,,,,,,,,,,,,,,,,,,,,
,,,,,,,UK,2023-08-16_08h40.52.436,HF_wild_card,2022.2.4,MacIntel,61.05006105,5c584e854e32ef00014af685,64d2fd46c836a06233681665,64dc7d5b60510beb19e2ece9,,,,,,,,,,,,,,,,,,,,,,,,,,,,,,,3,,,,,,,,,,,,,,,,,,,,,,,,,,,,,,,,,
,,,,,,,UK,2023-08-16_08h40.52.436,HF_wild_card,2022.2.4,MacIntel,61.05006105,5c584e854e32ef00014af685,64d2fd46c836a06233681665,64dc7d5b60510beb19e2ece9,,,,,,,,,,,,,,,,,,,,,,,,,,,,,,,,,,,,,,,,,,,,,,,,,,,,,,,,,,,,,,,,
,,,,,,,UK,2023-08-16_08h40.52.436,HF_wild_card,2022.2.4,MacIntel,61.05006105,5c584e854e32ef00014af685,64d2fd46c836a06233681665,64dc7d5b60510beb19e2ece9,,,,,,,,,,,,,,,,,,,,,,,,,,,,,,,,40,WC_extreme,resources/DP.BMP,0,0,0,0,1,,,,,,,,,,,,,,,,,,,,,,,,,
,,,,,,,UK,2023-08-16_08h40.52.436,HF_wild_card,2022.2.4,MacIntel,61.05006105,5c584e854e32ef00014af685,64d2fd46c836a06233681665,64dc7d5b60510beb19e2ece9,,,,,,,,,,,,,,,,,,,,,,,,,,,,,,,,60,Door3,resources/DY.BMP,1,0,1,0,1,,,,,,,,,,,,,,,,,,,,,,,,,
