Condition,Low fixed image (Door1),Low risky image (Door2),High fixed image (Door3),High risky image (Door4),Extreme Wild Card,NonExtreme Wild Card,,date,expName,psychopyVersion,OS,frameRate,PROLIFIC_PID,STUDY_ID,SESSION_ID,mouse_2.x,mouse_2.y,mouse_2.leftButton,mouse_2.midButton,mouse_2.rightButton,mouse_2.clicked_name,Trial Type,Left Option Image,Right Option Image,Chosen Door,mouse.x,mouse.y,mouse.leftButton,mouse.midButton,mouse.rightButton,mouse.time,mouse.clicked_name,Feedback,Cumulative Reward,Block,trial.thisRepN,trial.thisTrialN,trial.thisN,trial.thisIndex,trial.ran,blocks.thisRepN,blocks.thisTrialN,blocks.thisN,blocks.thisIndex,blocks.ran,Money conversion,First Outcome Reported,Shown Door (First Outcome),Displayed Image (First Outcome),outcomes.thisRepN,outcomes.thisTrialN,outcomes.thisN,outcomes.thisIndex,outcomes.ran,judgments.thisRepN,judgments.thisTrialN,judgments.thisN,judgments.thisIndex,judgments.ran,freqMouse.x,freqMouse.y,freqMouse.leftButton,freqMouse.midButton,freqMouse.rightButton,freqMouse.clicked_name,FQJ for first outcome,FQJ for second outcome,Shown Door,Displayed Image,trials.thisRepN,trials.thisTrialN,trials.thisN,trials.thisIndex,trials.ran,judgBlock.thisRepN,judgBlock.thisTrialN,judgBlock.thisN,judgBlock.thisIndex,judgBlock.ran
0,resources/DR.BMP,resources/DG.BMP,resources/DP.BMP,resources/DBN.BMP,resources/DB.BMP,resources/DY.BMP,,2023-08-16_08h41.06.961,HF_wild_card,2022.2.4,Linux x86_64,59.99880002,64072991baa43f8196e81f29,64d2fd46c836a06233681665,64dc7d78b34157f6897326c4,,,,,,,,,,,,,,,,,,,,,,,,,,,,,,,,,,,,,,,,,,,,,,,,,,,,,,,,,,,,,,,,
,,,,,,,,2023-08-16_08h41.06.961,HF_wild_card,2022.2.4,Linux x86_64,59.99880002,64072991baa43f8196e81f29,64d2fd46c836a06233681665,64dc7d78b34157f6897326c4,-0.006395817,-0.420786619,1,0,0,agree,,,,,,,,,,,,,,,,,,,,,,,,,,,,,,,,,,,,,,,,,,,,,,,,,,,,,,,,,,
,,,,,,,,2023-08-16_08h41.06.961,HF_wild_card,2022.2.4,Linux x86_64,59.99880002,64072991baa43f8196e81f29,64d2fd46c836a06233681665,64dc7d78b34157f6897326c4,,,,,,,,,,,,,,,,,,,,,,,,,,,,,,,,,,,,,,,,,,,,,,,,,,,,,,,,,,,,,,,,
,,,,,,,,2023-08-16_08h41.06.961,HF_wild_card,2022.2.4,Linux x86_64,59.99880002,64072991baa43f8196e81f29,64d2fd46c836a06233681665,64dc7d78b34157f6897326c4,,,,,,,decisionTrl,resources/DP.BMP,resources/DB.BMP,WildCard_Ex,0.366803567,-0.15173022,1,0,0,5.2322,optionRight,95,95,1,0,0,0,0,1,,,,,,,,,,,,,,,,,,,,,,,,,,,,,,,,,,,,,,,
,,,,,,,,2023-08-16_08h41.06.961,HF_wild_card,2022.2.4,Linux x86_64,59.99880002,64072991baa43f8196e81f29,64d2fd46c836a06233681665,64dc7d78b34157f6897326c4,,,,,,,decisionTrl,resources/DG.BMP,resources/DR.BMP,Door2,-0.361805479,-0.001455744,1,0,0,2.2772,optionLeft,40,135,1,1,0,1,0,1,,,,,,,,,,,,,,,,,,,,,,,,,,,,,,,,,,,,,,,
,,,,,,,,2023-08-16_08h41.06.961,HF_wild_card,2022.2.4,Linux x86_64,59.99880002,64072991baa43f8196e81f29,64d2fd46c836a06233681665,64dc7d78b34157f6897326c4,,,,,,,sngl,resources/Empty.png,resources/DBN.BMP,Door4,0.349085093,-0.024437745,1,0,0,1.5082,optionRight,60,195,1,2,0,2,0,1,,,,,,,,,,,,,,,,,,,,,,,,,,,,,,,,,,,,,,,
,,,,,,,,2023-08-16_08h41.06.961,HF_wild_card,2022.2.4,Linux x86_64,59.99880002,64072991baa43f8196e81f29,64d2fd46c836a06233681665,64dc7d78b34157f6897326c4,,,,,,,sngl,resources/Empty.png,resources/DP.BMP,Door3,0.405385733,-0.100000024,1,0,0,2.9559,optionRight,70,265,1,3,0,3,0,1,,,,,,,,,,,,,,,,,,,,,,,,,,,,,,,,,,,,,,,
,,,,,,,,2023-08-16_08h41.06.961,HF_wild_card,2022.2.4,Linux x86_64,59.99880002,64072991baa43f8196e81f29,64d2fd46c836a06233681665,64dc7d78b34157f6897326c4,,,,,,,ctch,resources/DP.BMP,resources/DG.BMP,Door2,0.427612543,-0.022418141,1,0,0,1.6497,optionRight,20,285,1,4,0,4,0,1,,,,,,,,,,,,,,,,,,,,,,,,,,,,,,,,,,,,,,,
,,,,,,,,2023-08-16_08h41.06.961,HF_wild_card,2022.2.4,Linux x86_64,59.99880002,64072991baa43f8196e81f29,64d2fd46c836a06233681665,64dc7d78b34157f6897326c4,,,,,,,sngl,resources/Empty.png,resources/DR.BMP,Door1,0.360063473,-0.023084919,1,0,0,1.7011,optionRight,30,315,1,5,0,5,0,1,,,,,,,,,,,,,,,,,,,,,,,,,,,,,,,,,,,,,,,
,,,,,,,,2023-08-16_08h41.06.961,HF_wild_card,2022.2.4,Linux x86_64,59.99880002,64072991baa43f8196e81f29,64d2fd46c836a06233681665,64dc7d78b34157f6897326c4,,,,,,,decisionTrl,resources/DBN.BMP,resources/DP.BMP,Door4,-0.286480387,-0.002086282,1,0,0,2.0126,optionLeft,60,375,1,6,0,6,0,1,,,,,,,,,,,,,,,,,,,,,,,,,,,,,,,,,,,,,,,
,,,,,,,,2023-08-16_08h41.06.961,HF_wild_card,2022.2.4,Linux x86_64,59.99880002,64072991baa43f8196e81f29,64d2fd46c836a06233681665,64dc7d78b34157f6897326c4,,,,,,,ctch,resources/DR.BMP,resources/DBN.BMP,Door1,-0.248551488,-0.032000979,1,0,0,1.6322,optionLeft,30,405,1,7,0,7,0,1,,,,,,,,,,,,,,,,,,,,,,,,,,,,,,,,,,,,,,,
,,,,,,,,2023-08-16_08h41.06.961,HF_wild_card,2022.2.4,Linux x86_64,59.99880002,64072991baa43f8196e81f29,64d2fd46c836a06233681665,64dc7d78b34157f6897326c4,,,,,,,ctch,resources/DBN.BMP,resources/DR.BMP,Door1,0.339693308,-0.061640143,1,0,0,1.3098,optionRight,30,435,1,8,0,8,0,1,,,,,,,,,,,,,,,,,,,,,,,,,,,,,,,,,,,,,,,
,,,,,,,,2023-08-16_08h41.06.961,HF_wild_card,2022.2.4,Linux x86_64,59.99880002,64072991baa43f8196e81f29,64d2fd46c836a06233681665,64dc7d78b34157f6897326c4,,,,,,,sngl,resources/DB.BMP,resources/Empty.png,WildCard_Ex,-0.282466054,-0.011235952,1,0,0,1.0829,optionLeft,5,440,1,9,0,9,0,1,,,,,,,,,,,,,,,,,,,,,,,,,,,,,,,,,,,,,,,
,,,,,,,,2023-08-16_08h41.06.961,HF_wild_card,2022.2.4,Linux x86_64,59.99880002,64072991baa43f8196e81f29,64d2fd46c836a06233681665,64dc7d78b34157f6897326c4,,,,,,,sngl,resources/DBN.BMP,resources/Empty.png,Door4,-0.384491205,-0.085216204,1,0,0,1.042,optionLeft,80,520,1,10,0,10,0,1,,,,,,,,,,,,,,,,,,,,,,,,,,,,,,,,,,,,,,,
,,,,,,,,2023-08-16_08h41.06.961,HF_wild_card,2022.2.4,Linux x86_64,59.99880002,64072991baa43f8196e81f29,64d2fd46c836a06233681665,64dc7d78b34157f6897326c4,,,,,,,decisionTrl,resources/DR.BMP,resources/DG.BMP,Door2,0.474364916,0.002937754,1,0,0,1.4098,optionRight,20,540,1,11,0,11,0,1,,,,,,,,,,,,,,,,,,,,,,,,,,,,,,,,,,,,,,,
,,,,,,,,2023-08-16_08h41.06.961,HF_wild_card,2022.2.4,Linux x86_64,59.99880002,64072991baa43f8196e81f29,64d2fd46c836a06233681665,64dc7d78b34157f6897326c4,,,,,,,decisionTrl,resources/DB.BMP,resources/DR.BMP,WildCard_Ex,-0.41962711,-0.035192609,1,0,0,0.8634,optionLeft,95,635,1,12,0,12,0,1,,,,,,,,,,,,,,,,,,,,,,,,,,,,,,,,,,,,,,,
,,,,,,,,2023-08-16_08h41.06.961,HF_wild_card,2022.2.4,Linux x86_64,59.99880002,64072991baa43f8196e81f29,64d2fd46c836a06233681665,64dc7d78b34157f6897326c4,,,,,,,ctch,resources/DG.BMP,resources/DP.BMP,Door3,0.351749102,-0.012329817,1,0,0,2.4241,optionRight,70,705,1,13,0,13,0,1,,,,,,,,,,,,,,,,,,,,,,,,,,,,,,,,,,,,,,,
,,,,,,,,2023-08-16_08h41.06.961,HF_wild_card,2022.2.4,Linux x86_64,59.99880002,64072991baa43f8196e81f29,64d2fd46c836a06233681665,64dc7d78b34157f6897326c4,,,,,,,decisionTrl,resources/DR.BMP,resources/DG.BMP,Door2,0.356506586,-0.015237808,1,0,0,1.8807,optionRight,20,725,1,14,0,14,0,1,,,,,,,,,,,,,,,,,,,,,,,,,,,,,,,,,,,,,,,
,,,,,,,,2023-08-16_08h41.06.961,HF_wild_card,2022.2.4,Linux x86_64,59.99880002,64072991baa43f8196e81f29,64d2fd46c836a06233681665,64dc7d78b34157f6897326c4,,,,,,,sngl,resources/Empty.png,resources/DB.BMP,WildCard_Ex,0.20868969,-0.015460014,1,0,0,1.1407,optionRight,5,730,1,15,0,15,0,1,,,,,,,,,,,,,,,,,,,,,,,,,,,,,,,,,,,,,,,
,,,,,,,,2023-08-16_08h41.06.961,HF_wild_card,2022.2.4,Linux x86_64,59.99880002,64072991baa43f8196e81f29,64d2fd46c836a06233681665,64dc7d78b34157f6897326c4,,,,,,,decisionTrl,resources/DB.BMP,resources/DBN.BMP,WildCard_Ex,-0.333517392,-0.041144768,1,0,0,1.9731,optionLeft,95,825,1,16,0,16,0,1,,,,,,,,,,,,,,,,,,,,,,,,,,,,,,,,,,,,,,,
,,,,,,,,2023-08-16_08h41.06.961,HF_wild_card,2022.2.4,Linux x86_64,59.99880002,64072991baa43f8196e81f29,64d2fd46c836a06233681665,64dc7d78b34157f6897326c4,,,,,,,decisionTrl,resources/DP.BMP,resources/DBN.BMP,Door3,-0.344196161,-0.034179926,1,0,0,1.9059,optionLeft,70,895,1,17,0,17,0,1,,,,,,,,,,,,,,,,,,,,,,,,,,,,,,,,,,,,,,,
,,,,,,,,2023-08-16_08h41.06.961,HF_wild_card,2022.2.4,Linux x86_64,59.99880002,64072991baa43f8196e81f29,64d2fd46c836a06233681665,64dc7d78b34157f6897326c4,,,,,,,decisionTrl,resources/DBN.BMP,resources/DP.BMP,Door3,0.424576918,-0.013233741,1,0,0,1.38,optionRight,70,965,1,18,0,18,0,1,,,,,,,,,,,,,,,,,,,,,,,,,,,,,,,,,,,,,,,
,,,,,,,,2023-08-16_08h41.06.961,HF_wild_card,2022.2.4,Linux x86_64,59.99880002,64072991baa43f8196e81f29,64d2fd46c836a06233681665,64dc7d78b34157f6897326c4,,,,,,,decisionTrl,resources/DR.BMP,resources/DB.BMP,WildCard_Ex,0.444328149,-0.031609456,1,0,0,1.0089,optionRight,95,1060,1,19,0,19,0,1,,,,,,,,,,,,,,,,,,,,,,,,,,,,,,,,,,,,,,,
,,,,,,,,2023-08-16_08h41.06.961,HF_wild_card,2022.2.4,Linux x86_64,59.99880002,64072991baa43f8196e81f29,64d2fd46c836a06233681665,64dc7d78b34157f6897326c4,,,,,,,ctch,resources/DBN.BMP,resources/DR.BMP,Door1,0.311071714,-0.050291101,1,0,0,1.7615,optionRight,30,1090,1,20,0,20,0,1,,,,,,,,,,,,,,,,,,,,,,,,,,,,,,,,,,,,,,,
,,,,,,,,2023-08-16_08h41.06.961,HF_wild_card,2022.2.4,Linux x86_64,59.99880002,64072991baa43f8196e81f29,64d2fd46c836a06233681665,64dc7d78b34157f6897326c4,,,,,,,sngl,resources/DG.BMP,resources/Empty.png,Door2,-0.29190588,0.002534588,1,0,0,1.1463,optionLeft,40,1130,1,21,0,21,0,1,,,,,,,,,,,,,,,,,,,,,,,,,,,,,,,,,,,,,,,
,,,,,,,,2023-08-16_08h41.06.961,HF_wild_card,2022.2.4,Linux x86_64,59.99880002,64072991baa43f8196e81f29,64d2fd46c836a06233681665,64dc7d78b34157f6897326c4,,,,,,,sngl,resources/DR.BMP,resources/Empty.png,Door1,-0.333304008,-0.046328386,1,0,0,1.0889,optionLeft,30,1160,1,22,0,22,0,1,,,,,,,,,,,,,,,,,,,,,,,,,,,,,,,,,,,,,,,
,,,,,,,,2023-08-16_08h41.06.961,HF_wild_card,2022.2.4,Linux x86_64,59.99880002,64072991baa43f8196e81f29,64d2fd46c836a06233681665,64dc7d78b34157f6897326c4,,,,,,,sngl,resources/Empty.png,resources/DB.BMP,WildCard_Ex,0.392615557,-0.025438825,1,0,0,0.859,optionRight,95,1255,1,23,0,23,0,1,,,,,,,,,,,,,,,,,,,,,,,,,,,,,,,,,,,,,,,
,,,,,,,,2023-08-16_08h41.06.961,HF_wild_card,2022.2.4,Linux x86_64,59.99880002,64072991baa43f8196e81f29,64d2fd46c836a06233681665,64dc7d78b34157f6897326c4,,,,,,,decisionTrl,resources/DB.BMP,resources/DP.BMP,WildCard_Ex,-0.264912605,-0.016419967,1,0,0,1.9273,optionLeft,95,1350,1,24,0,24,0,1,,,,,,,,,,,,,,,,,,,,,,,,,,,,,,,,,,,,,,,
,,,,,,,,2023-08-16_08h41.06.961,HF_wild_card,2022.2.4,Linux x86_64,59.99880002,64072991baa43f8196e81f29,64d2fd46c836a06233681665,64dc7d78b34157f6897326c4,,,,,,,ctch,resources/DG.BMP,resources/DP.BMP,Door3,0.44220678,0.001750032,1,0,0,2.4527,optionRight,70,1420,1,25,0,25,0,1,,,,,,,,,,,,,,,,,,,,,,,,,,,,,,,,,,,,,,,
,,,,,,,,2023-08-16_08h41.06.961,HF_wild_card,2022.2.4,Linux x86_64,59.99880002,64072991baa43f8196e81f29,64d2fd46c836a06233681665,64dc7d78b34157f6897326c4,,,,,,,sngl,resources/Empty.png,resources/DG.BMP,Door2,0.386942705,0.007117033,1,0,0,1.1444,optionRight,20,1440,1,26,0,26,0,1,,,,,,,,,,,,,,,,,,,,,,,,,,,,,,,,,,,,,,,
,,,,,,,,2023-08-16_08h41.06.961,HF_wild_card,2022.2.4,Linux x86_64,59.99880002,64072991baa43f8196e81f29,64d2fd46c836a06233681665,64dc7d78b34157f6897326c4,,,,,,,decisionTrl,resources/DP.BMP,resources/DBN.BMP,Door3,-0.306262215,0.001944224,1,0,0,1.8113,optionLeft,70,1510,1,27,0,27,0,1,,,,,,,,,,,,,,,,,,,,,,,,,,,,,,,,,,,,,,,
,,,,,,,,2023-08-16_08h41.06.961,HF_wild_card,2022.2.4,Linux x86_64,59.99880002,64072991baa43f8196e81f29,64d2fd46c836a06233681665,64dc7d78b34157f6897326c4,,,,,,,sngl,resources/DP.BMP,resources/Empty.png,Door3,-0.308827599,-0.017282645,1,0,0,0.9934,optionLeft,70,1580,1,28,0,28,0,1,,,,,,,,,,,,,,,,,,,,,,,,,,,,,,,,,,,,,,,
,,,,,,,,2023-08-16_08h41.06.961,HF_wild_card,2022.2.4,Linux x86_64,59.99880002,64072991baa43f8196e81f29,64d2fd46c836a06233681665,64dc7d78b34157f6897326c4,,,,,,,decisionTrl,resources/DR.BMP,resources/DG.BMP,Door2,0.339335839,-0.009896596,1,0,0,2.7421,optionRight,20,1600,1,29,0,29,0,1,,,,,,,,,,,,,,,,,,,,,,,,,,,,,,,,,,,,,,,
,,,,,,,,2023-08-16_08h41.06.961,HF_wild_card,2022.2.4,Linux x86_64,59.99880002,64072991baa43f8196e81f29,64d2fd46c836a06233681665,64dc7d78b34157f6897326c4,,,,,,,decisionTrl,resources/DBN.BMP,resources/DP.BMP,Door3,0.373055935,-0.085894227,1,0,0,3.4038,optionRight,70,1670,1,30,0,30,0,1,,,,,,,,,,,,,,,,,,,,,,,,,,,,,,,,,,,,,,,
,,,,,,,,2023-08-16_08h41.06.961,HF_wild_card,2022.2.4,Linux x86_64,59.99880002,64072991baa43f8196e81f29,64d2fd46c836a06233681665,64dc7d78b34157f6897326c4,,,,,,,decisionTrl,resources/DB.BMP,resources/DG.BMP,WildCard_Ex,-0.325197776,0.004280011,1,0,0,1.4318,optionLeft,95,1765,1,31,0,31,0,1,,,,,,,,,,,,,,,,,,,,,,,,,,,,,,,,,,,,,,,
,,,,,,,,2023-08-16_08h41.06.961,HF_wild_card,2022.2.4,Linux x86_64,59.99880002,64072991baa43f8196e81f29,64d2fd46c836a06233681665,64dc7d78b34157f6897326c4,,,,,,,ctch,resources/DP.BMP,resources/DG.BMP,Door3,-0.345044057,-0.035426219,1,0,0,2.0759,optionLeft,70,1835,1,32,0,32,0,1,,,,,,,,,,,,,,,,,,,,,,,,,,,,,,,,,,,,,,,
,,,,,,,,2023-08-16_08h41.06.961,HF_wild_card,2022.2.4,Linux x86_64,59.99880002,64072991baa43f8196e81f29,64d2fd46c836a06233681665,64dc7d78b34157f6897326c4,,,,,,,decisionTrl,resources/DG.BMP,resources/DR.BMP,Door1,0.323254108,0.047441045,1,0,0,2.3581,optionRight,30,1865,1,33,0,33,0,1,,,,,,,,,,,,,,,,,,,,,,,,,,,,,,,,,,,,,,,
,,,,,,,,2023-08-16_08h41.06.961,HF_wild_card,2022.2.4,Linux x86_64,59.99880002,64072991baa43f8196e81f29,64d2fd46c836a06233681665,64dc7d78b34157f6897326c4,,,,,,,decisionTrl,resources/DG.BMP,resources/DR.BMP,Door2,-0.255531748,-0.022581498,1,0,0,1.193,optionLeft,20,1885,1,34,0,34,0,1,,,,,,,,,,,,,,,,,,,,,,,,,,,,,,,,,,,,,,,
,,,,,,,,2023-08-16_08h41.06.961,HF_wild_card,2022.2.4,Linux x86_64,59.99880002,64072991baa43f8196e81f29,64d2fd46c836a06233681665,64dc7d78b34157f6897326c4,,,,,,,decisionTrl,resources/DP.BMP,resources/DBN.BMP,Door3,-0.338052829,-0.057197134,1,0,0,1.3911,optionLeft,70,1955,1,35,0,35,0,1,,,,,,,,,,,,,,,,,,,,,,,,,,,,,,,,,,,,,,,
,,,,,,,,2023-08-16_08h41.06.961,HF_wild_card,2022.2.4,Linux x86_64,59.99880002,64072991baa43f8196e81f29,64d2fd46c836a06233681665,64dc7d78b34157f6897326c4,,,,,,,sngl,resources/DB.BMP,resources/Empty.png,WildCard_Ex,-0.386310538,-0.105800152,1,0,0,1.1106,optionLeft,95,2050,1,36,0,36,0,1,,,,,,,,,,,,,,,,,,,,,,,,,,,,,,,,,,,,,,,
,,,,,,,,2023-08-16_08h41.06.961,HF_wild_card,2022.2.4,Linux x86_64,59.99880002,64072991baa43f8196e81f29,64d2fd46c836a06233681665,64dc7d78b34157f6897326c4,,,,,,,decisionTrl,resources/DG.BMP,resources/DB.BMP,WildCard_Ex,0.350755453,-0.00087436,1,0,0,1.5911,optionRight,95,2145,1,37,0,37,0,1,,,,,,,,,,,,,,,,,,,,,,,,,,,,,,,,,,,,,,,
,,,,,,,,2023-08-16_08h41.06.961,HF_wild_card,2022.2.4,Linux x86_64,59.99880002,64072991baa43f8196e81f29,64d2fd46c836a06233681665,64dc7d78b34157f6897326c4,,,,,,,decisionTrl,resources/DBN.BMP,resources/DP.BMP,Door3,0.352627118,-0.060844739,1,0,0,1.2545,optionRight,70,2215,1,38,0,38,0,1,,,,,,,,,,,,,,,,,,,,,,,,,,,,,,,,,,,,,,,
,,,,,,,,2023-08-16_08h41.06.961,HF_wild_card,2022.2.4,Linux x86_64,59.99880002,64072991baa43f8196e81f29,64d2fd46c836a06233681665,64dc7d78b34157f6897326c4,,,,,,,decisionTrl,resources/DBN.BMP,resources/DB.BMP,WildCard_Ex,0.334001064,-0.046914299,1,0,0,1.042,optionRight,95,2310,1,39,0,39,0,1,,,,,,,,,,,,,,,,,,,,,,,,,,,,,,,,,,,,,,,
,,,,,,,,2023-08-16_08h41.06.961,HF_wild_card,2022.2.4,Linux x86_64,59.99880002,64072991baa43f8196e81f29,64d2fd46c836a06233681665,64dc7d78b34157f6897326c4,,,,,,,decisionTrl,resources/DR.BMP,resources/DG.BMP,Door2,0.31875205,-0.040646195,1,0,0,1.3685,optionRight,40,2350,1,40,0,40,0,1,,,,,,,,,,,,,,,,,,,,,,,,,,,,,,,,,,,,,,,
,,,,,,,,2023-08-16_08h41.06.961,HF_wild_card,2022.2.4,Linux x86_64,59.99880002,64072991baa43f8196e81f29,64d2fd46c836a06233681665,64dc7d78b34157f6897326c4,,,,,,,decisionTrl,resources/DG.BMP,resources/DR.BMP,Door1,0.44206508,-0.064865192,1,0,0,2.0565,optionRight,30,2380,1,41,0,41,0,1,,,,,,,,,,,,,,,,,,,,,,,,,,,,,,,,,,,,,,,
,,,,,,,,2023-08-16_08h41.06.961,HF_wild_card,2022.2.4,Linux x86_64,59.99880002,64072991baa43f8196e81f29,64d2fd46c836a06233681665,64dc7d78b34157f6897326c4,,,,,,,decisionTrl,resources/DP.BMP,resources/DBN.BMP,Door3,-0.364916762,-0.014101545,1,0,0,1.3603,optionLeft,70,2450,1,42,0,42,0,1,,,,,,,,,,,,,,,,,,,,,,,,,,,,,,,,,,,,,,,
,,,,,,,,2023-08-16_08h41.06.961,HF_wild_card,2022.2.4,Linux x86_64,59.99880002,64072991baa43f8196e81f29,64d2fd46c836a06233681665,64dc7d78b34157f6897326c4,,,,,,,ctch,resources/DR.BMP,resources/DBN.BMP,Door1,-0.321593324,-0.021247347,1,0,0,1.757,optionLeft,30,2480,1,43,0,43,0,1,,,,,,,,,,,,,,,,,,,,,,,,,,,,,,,,,,,,,,,
,,,,,,,,2023-08-16_08h41.06.961,HF_wild_card,2022.2.4,Linux x86_64,59.99880002,64072991baa43f8196e81f29,64d2fd46c836a06233681665,64dc7d78b34157f6897326c4,,,,,,,,,,,,,,,,,,,,,,,,,,0,0,0,0,1,,,,,,,,,,,,,,,,,,,,,,,,,,,,,,,,,,
,,,,,,,,2023-08-16_08h41.06.961,HF_wild_card,2022.2.4,Linux x86_64,59.99880002,64072991baa43f8196e81f29,64d2fd46c836a06233681665,64dc7d78b34157f6897326c4,,,,,,,decisionTrl,resources/DBN.BMP,resources/DB.BMP,WildCard_Ex,0.368246714,-0.105700215,1,0,0,3.0854,optionRight,5,2485,2,0,0,0,0,1,,,,,,,,,,,,,,,,,,,,,,,,,,,,,,,,,,,,,,,
,,,,,,,,2023-08-16_08h41.06.961,HF_wild_card,2022.2.4,Linux x86_64,59.99880002,64072991baa43f8196e81f29,64d2fd46c836a06233681665,64dc7d78b34157f6897326c4,,,,,,,sngl,resources/Empty.png,resources/DB.BMP,WildCard_Ex,0.301501592,0.049529155,1,0,0,1.0744,optionRight,95,2580,2,1,0,1,0,1,,,,,,,,,,,,,,,,,,,,,,,,,,,,,,,,,,,,,,,
,,,,,,,,2023-08-16_08h41.06.961,HF_wild_card,2022.2.4,Linux x86_64,59.99880002,64072991baa43f8196e81f29,64d2fd46c836a06233681665,64dc7d78b34157f6897326c4,,,,,,,sngl,resources/Empty.png,resources/DR.BMP,Door1,0.303565105,-0.005670945,1,0,0,1.0775,optionRight,30,2610,2,2,0,2,0,1,,,,,,,,,,,,,,,,,,,,,,,,,,,,,,,,,,,,,,,
,,,,,,,,2023-08-16_08h41.06.961,HF_wild_card,2022.2.4,Linux x86_64,59.99880002,64072991baa43f8196e81f29,64d2fd46c836a06233681665,64dc7d78b34157f6897326c4,,,,,,,sngl,resources/Empty.png,resources/DB.BMP,WildCard_Ex,0.340929985,0.033558011,1,0,0,0.9666,optionRight,5,2615,2,3,0,3,0,1,,,,,,,,,,,,,,,,,,,,,,,,,,,,,,,,,,,,,,,
,,,,,,,,2023-08-16_08h41.06.961,HF_wild_card,2022.2.4,Linux x86_64,59.99880002,64072991baa43f8196e81f29,64d2fd46c836a06233681665,64dc7d78b34157f6897326c4,,,,,,,decisionTrl,resources/DG.BMP,resources/DR.BMP,Door2,-0.313927134,-0.015199741,1,0,0,1.0364,optionLeft,20,2635,2,4,0,4,0,1,,,,,,,,,,,,,,,,,,,,,,,,,,,,,,,,,,,,,,,
,,,,,,,,2023-08-16_08h41.06.961,HF_wild_card,2022.2.4,Linux x86_64,59.99880002,64072991baa43f8196e81f29,64d2fd46c836a06233681665,64dc7d78b34157f6897326c4,,,,,,,sngl,resources/DB.BMP,resources/Empty.png,WildCard_Ex,-0.391218662,-0.087221503,1,0,0,0.9311,optionLeft,95,2730,2,5,0,5,0,1,,,,,,,,,,,,,,,,,,,,,,,,,,,,,,,,,,,,,,,
,,,,,,,,2023-08-16_08h41.06.961,HF_wild_card,2022.2.4,Linux x86_64,59.99880002,64072991baa43f8196e81f29,64d2fd46c836a06233681665,64dc7d78b34157f6897326c4,,,,,,,ctch,resources/DG.BMP,resources/DP.BMP,Door3,0.390324752,-0.052923838,1,0,0,0.9604,optionRight,70,2800,2,6,0,6,0,1,,,,,,,,,,,,,,,,,,,,,,,,,,,,,,,,,,,,,,,
,,,,,,,,2023-08-16_08h41.06.961,HF_wild_card,2022.2.4,Linux x86_64,59.99880002,64072991baa43f8196e81f29,64d2fd46c836a06233681665,64dc7d78b34157f6897326c4,,,,,,,decisionTrl,resources/DG.BMP,resources/DR.BMP,Door1,0.515910784,-0.032265663,1,0,0,1.2652,optionRight,30,2830,2,7,0,7,0,1,,,,,,,,,,,,,,,,,,,,,,,,,,,,,,,,,,,,,,,
,,,,,,,,2023-08-16_08h41.06.961,HF_wild_card,2022.2.4,Linux x86_64,59.99880002,64072991baa43f8196e81f29,64d2fd46c836a06233681665,64dc7d78b34157f6897326c4,,,,,,,decisionTrl,resources/DR.BMP,resources/DG.BMP,Door2,0.372837464,-0.061917663,1,0,0,1.2565,optionRight,20,2850,2,8,0,8,0,1,,,,,,,,,,,,,,,,,,,,,,,,,,,,,,,,,,,,,,,
,,,,,,,,2023-08-16_08h41.06.961,HF_wild_card,2022.2.4,Linux x86_64,59.99880002,64072991baa43f8196e81f29,64d2fd46c836a06233681665,64dc7d78b34157f6897326c4,,,,,,,sngl,resources/DB.BMP,resources/Empty.png,WildCard_Ex,-0.460147738,-0.005971154,1,0,0,0.8924,optionLeft,5,2855,2,9,0,9,0,1,,,,,,,,,,,,,,,,,,,,,,,,,,,,,,,,,,,,,,,
,,,,,,,,2023-08-16_08h41.06.961,HF_wild_card,2022.2.4,Linux x86_64,59.99880002,64072991baa43f8196e81f29,64d2fd46c836a06233681665,64dc7d78b34157f6897326c4,,,,,,,decisionTrl,resources/DBN.BMP,resources/DP.BMP,Door3,0.432132641,-0.111303528,1,0,0,1.5095,optionRight,70,2925,2,10,0,10,0,1,,,,,,,,,,,,,,,,,,,,,,,,,,,,,,,,,,,,,,,
,,,,,,,,2023-08-16_08h41.06.961,HF_wild_card,2022.2.4,Linux x86_64,59.99880002,64072991baa43f8196e81f29,64d2fd46c836a06233681665,64dc7d78b34157f6897326c4,,,,,,,sngl,resources/Empty.png,resources/DBN.BMP,Door4,0.345835606,-0.028946797,1,0,0,1.0275,optionRight,80,3005,2,11,0,11,0,1,,,,,,,,,,,,,,,,,,,,,,,,,,,,,,,,,,,,,,,
,,,,,,,,2023-08-16_08h41.06.961,HF_wild_card,2022.2.4,Linux x86_64,59.99880002,64072991baa43f8196e81f29,64d2fd46c836a06233681665,64dc7d78b34157f6897326c4,,,,,,,decisionTrl,resources/DB.BMP,resources/DR.BMP,WildCard_Ex,-0.377049168,-0.100988507,1,0,0,2.1882,optionLeft,5,3010,2,12,0,12,0,1,,,,,,,,,,,,,,,,,,,,,,,,,,,,,,,,,,,,,,,
,,,,,,,,2023-08-16_08h41.06.961,HF_wild_card,2022.2.4,Linux x86_64,59.99880002,64072991baa43f8196e81f29,64d2fd46c836a06233681665,64dc7d78b34157f6897326c4,,,,,,,decisionTrl,resources/DR.BMP,resources/DG.BMP,Door2,0.374742746,-0.008809725,1,0,0,1.493,optionRight,40,3050,2,13,0,13,0,1,,,,,,,,,,,,,,,,,,,,,,,,,,,,,,,,,,,,,,,
,,,,,,,,2023-08-16_08h41.06.961,HF_wild_card,2022.2.4,Linux x86_64,59.99880002,64072991baa43f8196e81f29,64d2fd46c836a06233681665,64dc7d78b34157f6897326c4,,,,,,,decisionTrl,resources/DG.BMP,resources/DR.BMP,Door2,-0.331194838,-0.022785743,1,0,0,1.4221,optionLeft,40,3090,2,14,0,14,0,1,,,,,,,,,,,,,,,,,,,,,,,,,,,,,,,,,,,,,,,
,,,,,,,,2023-08-16_08h41.06.961,HF_wild_card,2022.2.4,Linux x86_64,59.99880002,64072991baa43f8196e81f29,64d2fd46c836a06233681665,64dc7d78b34157f6897326c4,,,,,,,sngl,resources/DP.BMP,resources/Empty.png,Door3,-0.34901011,-0.042634288,1,0,0,0.8995,optionLeft,70,3160,2,15,0,15,0,1,,,,,,,,,,,,,,,,,,,,,,,,,,,,,,,,,,,,,,,
,,,,,,,,2023-08-16_08h41.06.961,HF_wild_card,2022.2.4,Linux x86_64,59.99880002,64072991baa43f8196e81f29,64d2fd46c836a06233681665,64dc7d78b34157f6897326c4,,,,,,,sngl,resources/DBN.BMP,resources/Empty.png,Door4,-0.198181709,-0.008819977,1,0,0,1.1756,optionLeft,60,3220,2,16,0,16,0,1,,,,,,,,,,,,,,,,,,,,,,,,,,,,,,,,,,,,,,,
,,,,,,,,2023-08-16_08h41.06.961,HF_wild_card,2022.2.4,Linux x86_64,59.99880002,64072991baa43f8196e81f29,64d2fd46c836a06233681665,64dc7d78b34157f6897326c4,,,,,,,decisionTrl,resources/DP.BMP,resources/DBN.BMP,Door4,0.396089713,-0.014535268,1,0,0,1.2231,optionRight,80,3300,2,17,0,17,0,1,,,,,,,,,,,,,,,,,,,,,,,,,,,,,,,,,,,,,,,
,,,,,,,,2023-08-16_08h41.06.961,HF_wild_card,2022.2.4,Linux x86_64,59.99880002,64072991baa43f8196e81f29,64d2fd46c836a06233681665,64dc7d78b34157f6897326c4,,,,,,,sngl,resources/Empty.png,resources/DG.BMP,Door2,0.249587218,-0.035024325,1,0,0,1.0809,optionRight,40,3340,2,18,0,18,0,1,,,,,,,,,,,,,,,,,,,,,,,,,,,,,,,,,,,,,,,
,,,,,,,,2023-08-16_08h41.06.961,HF_wild_card,2022.2.4,Linux x86_64,59.99880002,64072991baa43f8196e81f29,64d2fd46c836a06233681665,64dc7d78b34157f6897326c4,,,,,,,decisionTrl,resources/DP.BMP,resources/DBN.BMP,Door3,-0.306295514,-0.085416873,1,0,0,1.079,optionLeft,70,3410,2,19,0,19,0,1,,,,,,,,,,,,,,,,,,,,,,,,,,,,,,,,,,,,,,,
,,,,,,,,2023-08-16_08h41.06.961,HF_wild_card,2022.2.4,Linux x86_64,59.99880002,64072991baa43f8196e81f29,64d2fd46c836a06233681665,64dc7d78b34157f6897326c4,,,,,,,decisionTrl,resources/DBN.BMP,resources/DP.BMP,Door4,-0.407304247,-0.073676229,1,0,0,0.9906,optionLeft,80,3490,2,20,0,20,0,1,,,,,,,,,,,,,,,,,,,,,,,,,,,,,,,,,,,,,,,
,,,,,,,,2023-08-16_08h41.06.961,HF_wild_card,2022.2.4,Linux x86_64,59.99880002,64072991baa43f8196e81f29,64d2fd46c836a06233681665,64dc7d78b34157f6897326c4,,,,,,,decisionTrl,resources/DP.BMP,resources/DB.BMP,Door3,-0.251824816,-0.044045051,1,0,0,1.4195,optionLeft,70,3560,2,21,0,21,0,1,,,,,,,,,,,,,,,,,,,,,,,,,,,,,,,,,,,,,,,
,,,,,,,,2023-08-16_08h41.06.961,HF_wild_card,2022.2.4,Linux x86_64,59.99880002,64072991baa43f8196e81f29,64d2fd46c836a06233681665,64dc7d78b34157f6897326c4,,,,,,,decisionTrl,resources/DP.BMP,resources/DBN.BMP,Door3,-0.368798256,-0.05510517,1,0,0,1.7152,optionLeft,70,3630,2,22,0,22,0,1,,,,,,,,,,,,,,,,,,,,,,,,,,,,,,,,,,,,,,,
,,,,,,,,2023-08-16_08h41.06.961,HF_wild_card,2022.2.4,Linux x86_64,59.99880002,64072991baa43f8196e81f29,64d2fd46c836a06233681665,64dc7d78b34157f6897326c4,,,,,,,decisionTrl,resources/DBN.BMP,resources/DP.BMP,Door4,-0.228247285,-0.019767801,1,0,0,1.0917,optionLeft,60,3690,2,23,0,23,0,1,,,,,,,,,,,,,,,,,,,,,,,,,,,,,,,,,,,,,,,
,,,,,,,,2023-08-16_08h41.06.961,HF_wild_card,2022.2.4,Linux x86_64,59.99880002,64072991baa43f8196e81f29,64d2fd46c836a06233681665,64dc7d78b34157f6897326c4,,,,,,,decisionTrl,resources/DG.BMP,resources/DB.BMP,Door2,-0.233649015,-0.043100278,1,0,0,1.1753,optionLeft,20,3710,2,24,0,24,0,1,,,,,,,,,,,,,,,,,,,,,,,,,,,,,,,,,,,,,,,
,,,,,,,,2023-08-16_08h41.06.961,HF_wild_card,2022.2.4,Linux x86_64,59.99880002,64072991baa43f8196e81f29,64d2fd46c836a06233681665,64dc7d78b34157f6897326c4,,,,,,,ctch,resources/DR.BMP,resources/DBN.BMP,Door4,0.424047788,0.016149759,1,0,0,0.8128,optionRight,80,3790,2,25,0,25,0,1,,,,,,,,,,,,,,,,,,,,,,,,,,,,,,,,,,,,,,,
,,,,,,,,2023-08-16_08h41.06.961,HF_wild_card,2022.2.4,Linux x86_64,59.99880002,64072991baa43f8196e81f29,64d2fd46c836a06233681665,64dc7d78b34157f6897326c4,,,,,,,decisionTrl,resources/DR.BMP,resources/DG.BMP,Door2,0.378109058,-0.039211273,1,0,0,1.4096,optionRight,20,3810,2,26,0,26,0,1,,,,,,,,,,,,,,,,,,,,,,,,,,,,,,,,,,,,,,,
,,,,,,,,2023-08-16_08h41.06.961,HF_wild_card,2022.2.4,Linux x86_64,59.99880002,64072991baa43f8196e81f29,64d2fd46c836a06233681665,64dc7d78b34157f6897326c4,,,,,,,ctch,resources/DP.BMP,resources/DG.BMP,Door3,-0.385855834,-0.035949111,1,0,0,0.7932,optionLeft,70,3880,2,27,0,27,0,1,,,,,,,,,,,,,,,,,,,,,,,,,,,,,,,,,,,,,,,
,,,,,,,,2023-08-16_08h41.06.961,HF_wild_card,2022.2.4,Linux x86_64,59.99880002,64072991baa43f8196e81f29,64d2fd46c836a06233681665,64dc7d78b34157f6897326c4,,,,,,,decisionTrl,resources/DG.BMP,resources/DR.BMP,Door2,-0.30029734,-0.045326749,1,0,0,0.8932,optionLeft,20,3900,2,28,0,28,0,1,,,,,,,,,,,,,,,,,,,,,,,,,,,,,,,,,,,,,,,
,,,,,,,,2023-08-16_08h41.06.961,HF_wild_card,2022.2.4,Linux x86_64,59.99880002,64072991baa43f8196e81f29,64d2fd46c836a06233681665,64dc7d78b34157f6897326c4,,,,,,,ctch,resources/DP.BMP,resources/DG.BMP,Door3,-0.151054621,-0.053898931,1,0,0,0.8776,optionLeft,70,3970,2,29,0,29,0,1,,,,,,,,,,,,,,,,,,,,,,,,,,,,,,,,,,,,,,,
,,,,,,,,2023-08-16_08h41.06.961,HF_wild_card,2022.2.4,Linux x86_64,59.99880002,64072991baa43f8196e81f29,64d2fd46c836a06233681665,64dc7d78b34157f6897326c4,,,,,,,decisionTrl,resources/DBN.BMP,resources/DP.BMP,Door4,-0.378076196,-0.098840912,1,0,0,0.8755,optionLeft,60,4030,2,30,0,30,0,1,,,,,,,,,,,,,,,,,,,,,,,,,,,,,,,,,,,,,,,
,,,,,,,,2023-08-16_08h41.06.961,HF_wild_card,2022.2.4,Linux x86_64,59.99880002,64072991baa43f8196e81f29,64d2fd46c836a06233681665,64dc7d78b34157f6897326c4,,,,,,,ctch,resources/DBN.BMP,resources/DR.BMP,Door1,0.367979129,-0.013951898,1,0,0,0.8211,optionRight,30,4060,2,31,0,31,0,1,,,,,,,,,,,,,,,,,,,,,,,,,,,,,,,,,,,,,,,
,,,,,,,,2023-08-16_08h41.06.961,HF_wild_card,2022.2.4,Linux x86_64,59.99880002,64072991baa43f8196e81f29,64d2fd46c836a06233681665,64dc7d78b34157f6897326c4,,,,,,,ctch,resources/DG.BMP,resources/DP.BMP,Door2,-0.328476508,-0.069771568,1,0,0,0.8099,optionLeft,20,4080,2,32,0,32,0,1,,,,,,,,,,,,,,,,,,,,,,,,,,,,,,,,,,,,,,,
,,,,,,,,2023-08-16_08h41.06.961,HF_wild_card,2022.2.4,Linux x86_64,59.99880002,64072991baa43f8196e81f29,64d2fd46c836a06233681665,64dc7d78b34157f6897326c4,,,,,,,decisionTrl,resources/DR.BMP,resources/DG.BMP,Door2,0.369346062,-0.15050602,1,0,0,1.7401,optionRight,20,4100,2,33,0,33,0,1,,,,,,,,,,,,,,,,,,,,,,,,,,,,,,,,,,,,,,,
,,,,,,,,2023-08-16_08h41.06.961,HF_wild_card,2022.2.4,Linux x86_64,59.99880002,64072991baa43f8196e81f29,64d2fd46c836a06233681665,64dc7d78b34157f6897326c4,,,,,,,decisionTrl,resources/DP.BMP,resources/DBN.BMP,Door4,0.50855732,0.007462144,1,0,0,0.981,optionRight,80,4180,2,34,0,34,0,1,,,,,,,,,,,,,,,,,,,,,,,,,,,,,,,,,,,,,,,
,,,,,,,,2023-08-16_08h41.06.961,HF_wild_card,2022.2.4,Linux x86_64,59.99880002,64072991baa43f8196e81f29,64d2fd46c836a06233681665,64dc7d78b34157f6897326c4,,,,,,,decisionTrl,resources/DB.BMP,resources/DP.BMP,Door3,0.306517204,-0.017554442,1,0,0,1.5107,optionRight,70,4250,2,35,0,35,0,1,,,,,,,,,,,,,,,,,,,,,,,,,,,,,,,,,,,,,,,
,,,,,,,,2023-08-16_08h41.06.961,HF_wild_card,2022.2.4,Linux x86_64,59.99880002,64072991baa43f8196e81f29,64d2fd46c836a06233681665,64dc7d78b34157f6897326c4,,,,,,,ctch,resources/DR.BMP,resources/DBN.BMP,Door4,0.308492819,0.001276771,1,0,0,1.0015,optionRight,60,4310,2,36,0,36,0,1,,,,,,,,,,,,,,,,,,,,,,,,,,,,,,,,,,,,,,,
,,,,,,,,2023-08-16_08h41.06.961,HF_wild_card,2022.2.4,Linux x86_64,59.99880002,64072991baa43f8196e81f29,64d2fd46c836a06233681665,64dc7d78b34157f6897326c4,,,,,,,sngl,resources/DR.BMP,resources/Empty.png,Door1,-0.341899117,0.010541876,1,0,0,0.9063,optionLeft,30,4340,2,37,0,37,0,1,,,,,,,,,,,,,,,,,,,,,,,,,,,,,,,,,,,,,,,
,,,,,,,,2023-08-16_08h41.06.961,HF_wild_card,2022.2.4,Linux x86_64,59.99880002,64072991baa43f8196e81f29,64d2fd46c836a06233681665,64dc7d78b34157f6897326c4,,,,,,,decisionTrl,resources/DR.BMP,resources/DB.BMP,WildCard_Ex,0.432137728,0.000210047,1,0,0,0.8788,optionRight,5,4345,2,38,0,38,0,1,,,,,,,,,,,,,,,,,,,,,,,,,,,,,,,,,,,,,,,
,,,,,,,,2023-08-16_08h41.06.961,HF_wild_card,2022.2.4,Linux x86_64,59.99880002,64072991baa43f8196e81f29,64d2fd46c836a06233681665,64dc7d78b34157f6897326c4,,,,,,,ctch,resources/DBN.BMP,resources/DR.BMP,Door4,-0.304418127,-0.011648258,1,0,0,1.3112,optionLeft,80,4425,2,39,0,39,0,1,,,,,,,,,,,,,,,,,,,,,,,,,,,,,,,,,,,,,,,
,,,,,,,,2023-08-16_08h41.06.961,HF_wild_card,2022.2.4,Linux x86_64,59.99880002,64072991baa43f8196e81f29,64d2fd46c836a06233681665,64dc7d78b34157f6897326c4,,,,,,,sngl,resources/DG.BMP,resources/Empty.png,Door2,-0.178787072,-0.096381028,1,0,0,1.2606,optionLeft,20,4445,2,40,0,40,0,1,,,,,,,,,,,,,,,,,,,,,,,,,,,,,,,,,,,,,,,
,,,,,,,,2023-08-16_08h41.06.961,HF_wild_card,2022.2.4,Linux x86_64,59.99880002,64072991baa43f8196e81f29,64d2fd46c836a06233681665,64dc7d78b34157f6897326c4,,,,,,,sngl,resources/Empty.png,resources/DP.BMP,Door3,0.373321295,0.046219667,1,0,0,0.88,optionRight,70,4515,2,41,0,41,0,1,,,,,,,,,,,,,,,,,,,,,,,,,,,,,,,,,,,,,,,
,,,,,,,,2023-08-16_08h41.06.961,HF_wild_card,2022.2.4,Linux x86_64,59.99880002,64072991baa43f8196e81f29,64d2fd46c836a06233681665,64dc7d78b34157f6897326c4,,,,,,,decisionTrl,resources/DB.BMP,resources/DG.BMP,WildCard_Ex,-0.204324087,-0.003032327,1,0,0,1.1716,optionLeft,5,4520,2,42,0,42,0,1,,,,,,,,,,,,,,,,,,,,,,,,,,,,,,,,,,,,,,,
,,,,,,,,2023-08-16_08h41.06.961,HF_wild_card,2022.2.4,Linux x86_64,59.99880002,64072991baa43f8196e81f29,64d2fd46c836a06233681665,64dc7d78b34157f6897326c4,,,,,,,decisionTrl,resources/DB.BMP,resources/DBN.BMP,Door4,0.327069124,-0.042286078,1,0,0,1.034,optionRight,80,4600,2,43,0,43,0,1,,,,,,,,,,,,,,,,,,,,,,,,,,,,,,,,,,,,,,,
,,,,,,,,2023-08-16_08h41.06.961,HF_wild_card,2022.2.4,Linux x86_64,59.99880002,64072991baa43f8196e81f29,64d2fd46c836a06233681665,64dc7d78b34157f6897326c4,,,,,,,,,,,,,,,,,,,,,,,,,,1,0,1,0,1,,,,,,,,,,,,,,,,,,,,,,,,,,,,,,,,,,
,,,,,,,,2023-08-16_08h41.06.961,HF_wild_card,2022.2.4,Linux x86_64,59.99880002,64072991baa43f8196e81f29,64d2fd46c836a06233681665,64dc7d78b34157f6897326c4,,,,,,,ctch,resources/DP.BMP,resources/DG.BMP,Door3,-0.415896535,-0.087369005,1,0,0,1.8235,optionLeft,70,4670,3,0,0,0,0,1,,,,,,,,,,,,,,,,,,,,,,,,,,,,,,,,,,,,,,,
,,,,,,,,2023-08-16_08h41.06.961,HF_wild_card,2022.2.4,Linux x86_64,59.99880002,64072991baa43f8196e81f29,64d2fd46c836a06233681665,64dc7d78b34157f6897326c4,,,,,,,sngl,resources/DB.BMP,resources/Empty.png,WildCard_Ex,-0.324385087,-0.001609604,1,0,0,0.8618,optionLeft,95,4765,3,1,0,1,0,1,,,,,,,,,,,,,,,,,,,,,,,,,,,,,,,,,,,,,,,
,,,,,,,,2023-08-16_08h41.06.961,HF_wild_card,2022.2.4,Linux x86_64,59.99880002,64072991baa43f8196e81f29,64d2fd46c836a06233681665,64dc7d78b34157f6897326c4,,,,,,,sngl,resources/Empty.png,resources/DB.BMP,WildCard_Ex,0.230819543,-0.094204346,1,0,0,2.1641,optionRight,5,4770,3,2,0,2,0,1,,,,,,,,,,,,,,,,,,,,,,,,,,,,,,,,,,,,,,,
,,,,,,,,2023-08-16_08h41.06.961,HF_wild_card,2022.2.4,Linux x86_64,59.99880002,64072991baa43f8196e81f29,64d2fd46c836a06233681665,64dc7d78b34157f6897326c4,,,,,,,sngl,resources/Empty.png,resources/DP.BMP,Door3,0.372992675,-0.056318521,1,0,0,0.9606,optionRight,70,4840,3,3,0,3,0,1,,,,,,,,,,,,,,,,,,,,,,,,,,,,,,,,,,,,,,,
,,,,,,,,2023-08-16_08h41.06.961,HF_wild_card,2022.2.4,Linux x86_64,59.99880002,64072991baa43f8196e81f29,64d2fd46c836a06233681665,64dc7d78b34157f6897326c4,,,,,,,sngl,resources/DP.BMP,resources/Empty.png,Door3,-0.190602461,-0.011928757,1,0,0,1.173,optionLeft,70,4910,3,4,0,4,0,1,,,,,,,,,,,,,,,,,,,,,,,,,,,,,,,,,,,,,,,
,,,,,,,,2023-08-16_08h41.06.961,HF_wild_card,2022.2.4,Linux x86_64,59.99880002,64072991baa43f8196e81f29,64d2fd46c836a06233681665,64dc7d78b34157f6897326c4,,,,,,,ctch,resources/DR.BMP,resources/DBN.BMP,Door4,0.329002539,-0.054784775,1,0,0,1.0078,optionRight,60,4970,3,5,0,5,0,1,,,,,,,,,,,,,,,,,,,,,,,,,,,,,,,,,,,,,,,
,,,,,,,,2023-08-16_08h41.06.961,HF_wild_card,2022.2.4,Linux x86_64,59.99880002,64072991baa43f8196e81f29,64d2fd46c836a06233681665,64dc7d78b34157f6897326c4,,,,,,,decisionTrl,resources/DBN.BMP,resources/DP.BMP,Door3,0.3149484,-0.040661176,1,0,0,0.9839,optionRight,70,5040,3,6,0,6,0,1,,,,,,,,,,,,,,,,,,,,,,,,,,,,,,,,,,,,,,,
,,,,,,,,2023-08-16_08h41.06.961,HF_wild_card,2022.2.4,Linux x86_64,59.99880002,64072991baa43f8196e81f29,64d2fd46c836a06233681665,64dc7d78b34157f6897326c4,,,,,,,decisionTrl,resources/DBN.BMP,resources/DP.BMP,Door3,0.383386612,-0.01242276,1,0,0,0.9942,optionRight,70,5110,3,7,0,7,0,1,,,,,,,,,,,,,,,,,,,,,,,,,,,,,,,,,,,,,,,
,,,,,,,,2023-08-16_08h41.06.961,HF_wild_card,2022.2.4,Linux x86_64,59.99880002,64072991baa43f8196e81f29,64d2fd46c836a06233681665,64dc7d78b34157f6897326c4,,,,,,,decisionTrl,resources/DR.BMP,resources/DG.BMP,Door2,0.29802688,-0.032809496,1,0,0,1.0123,optionRight,40,5150,3,8,0,8,0,1,,,,,,,,,,,,,,,,,,,,,,,,,,,,,,,,,,,,,,,
,,,,,,,,2023-08-16_08h41.06.961,HF_wild_card,2022.2.4,Linux x86_64,59.99880002,64072991baa43f8196e81f29,64d2fd46c836a06233681665,64dc7d78b34157f6897326c4,,,,,,,sngl,resources/DG.BMP,resources/Empty.png,Door2,-0.236101031,-0.003610531,1,0,0,1.1741,optionLeft,40,5190,3,9,0,9,0,1,,,,,,,,,,,,,,,,,,,,,,,,,,,,,,,,,,,,,,,
,,,,,,,,2023-08-16_08h41.06.961,HF_wild_card,2022.2.4,Linux x86_64,59.99880002,64072991baa43f8196e81f29,64d2fd46c836a06233681665,64dc7d78b34157f6897326c4,,,,,,,decisionTrl,resources/DR.BMP,resources/DG.BMP,Door2,0.398197492,-0.055354158,1,0,0,1.1557,optionRight,20,5210,3,10,0,10,0,1,,,,,,,,,,,,,,,,,,,,,,,,,,,,,,,,,,,,,,,
,,,,,,,,2023-08-16_08h41.06.961,HF_wild_card,2022.2.4,Linux x86_64,59.99880002,64072991baa43f8196e81f29,64d2fd46c836a06233681665,64dc7d78b34157f6897326c4,,,,,,,decisionTrl,resources/DP.BMP,resources/DBN.BMP,Door3,-0.276167353,-0.016170859,1,0,0,0.8772,optionLeft,70,5280,3,11,0,11,0,1,,,,,,,,,,,,,,,,,,,,,,,,,,,,,,,,,,,,,,,
,,,,,,,,2023-08-16_08h41.06.961,HF_wild_card,2022.2.4,Linux x86_64,59.99880002,64072991baa43f8196e81f29,64d2fd46c836a06233681665,64dc7d78b34157f6897326c4,,,,,,,sngl,resources/Empty.png,resources/DBN.BMP,Door4,0.54965051,0.001302719,1,0,0,1.1963,optionRight,60,5340,3,12,0,12,0,1,,,,,,,,,,,,,,,,,,,,,,,,,,,,,,,,,,,,,,,
,,,,,,,,2023-08-16_08h41.06.961,HF_wild_card,2022.2.4,Linux x86_64,59.99880002,64072991baa43f8196e81f29,64d2fd46c836a06233681665,64dc7d78b34157f6897326c4,,,,,,,decisionTrl,resources/DR.BMP,resources/DG.BMP,Door2,0.422266881,-0.018055002,1,0,0,1.1128,optionRight,20,5360,3,13,0,13,0,1,,,,,,,,,,,,,,,,,,,,,,,,,,,,,,,,,,,,,,,
,,,,,,,,2023-08-16_08h41.06.961,HF_wild_card,2022.2.4,Linux x86_64,59.99880002,64072991baa43f8196e81f29,64d2fd46c836a06233681665,64dc7d78b34157f6897326c4,,,,,,,ctch,resources/DR.BMP,resources/DBN.BMP,Door1,-0.25892218,-0.018397689,1,0,0,0.8852,optionLeft,30,5390,3,14,0,14,0,1,,,,,,,,,,,,,,,,,,,,,,,,,,,,,,,,,,,,,,,
,,,,,,,,2023-08-16_08h41.06.961,HF_wild_card,2022.2.4,Linux x86_64,59.99880002,64072991baa43f8196e81f29,64d2fd46c836a06233681665,64dc7d78b34157f6897326c4,,,,,,,sngl,resources/Empty.png,resources/DB.BMP,WildCard_Ex,0.263098558,-0.022770286,1,0,0,0.9118,optionRight,95,5485,3,15,0,15,0,1,,,,,,,,,,,,,,,,,,,,,,,,,,,,,,,,,,,,,,,
,,,,,,,,2023-08-16_08h41.06.961,HF_wild_card,2022.2.4,Linux x86_64,59.99880002,64072991baa43f8196e81f29,64d2fd46c836a06233681665,64dc7d78b34157f6897326c4,,,,,,,sngl,resources/Empty.png,resources/DR.BMP,Door1,0.422060569,-0.017922759,1,0,0,0.9117,optionRight,30,5515,3,16,0,16,0,1,,,,,,,,,,,,,,,,,,,,,,,,,,,,,,,,,,,,,,,
,,,,,,,,2023-08-16_08h41.06.961,HF_wild_card,2022.2.4,Linux x86_64,59.99880002,64072991baa43f8196e81f29,64d2fd46c836a06233681665,64dc7d78b34157f6897326c4,,,,,,,decisionTrl,resources/DP.BMP,resources/DBN.BMP,Door4,0.520463626,-0.031693538,1,0,0,2.324,optionRight,60,5575,3,17,0,17,0,1,,,,,,,,,,,,,,,,,,,,,,,,,,,,,,,,,,,,,,,
,,,,,,,,2023-08-16_08h41.06.961,HF_wild_card,2022.2.4,Linux x86_64,59.99880002,64072991baa43f8196e81f29,64d2fd46c836a06233681665,64dc7d78b34157f6897326c4,,,,,,,decisionTrl,resources/DR.BMP,resources/DG.BMP,Door1,-0.394614816,-0.044550737,1,0,0,1.7955,optionLeft,30,5605,3,18,0,18,0,1,,,,,,,,,,,,,,,,,,,,,,,,,,,,,,,,,,,,,,,
,,,,,,,,2023-08-16_08h41.06.961,HF_wild_card,2022.2.4,Linux x86_64,59.99880002,64072991baa43f8196e81f29,64d2fd46c836a06233681665,64dc7d78b34157f6897326c4,,,,,,,ctch,resources/DBN.BMP,resources/DR.BMP,Door4,-0.324950417,-0.012384137,1,0,0,1.2434,optionLeft,80,5685,3,19,0,19,0,1,,,,,,,,,,,,,,,,,,,,,,,,,,,,,,,,,,,,,,,
,,,,,,,,2023-08-16_08h41.06.961,HF_wild_card,2022.2.4,Linux x86_64,59.99880002,64072991baa43f8196e81f29,64d2fd46c836a06233681665,64dc7d78b34157f6897326c4,,,,,,,ctch,resources/DG.BMP,resources/DP.BMP,Door3,0.419084549,-0.027392586,1,0,0,1.2107,optionRight,70,5755,3,20,0,20,0,1,,,,,,,,,,,,,,,,,,,,,,,,,,,,,,,,,,,,,,,
,,,,,,,,2023-08-16_08h41.06.961,HF_wild_card,2022.2.4,Linux x86_64,59.99880002,64072991baa43f8196e81f29,64d2fd46c836a06233681665,64dc7d78b34157f6897326c4,,,,,,,decisionTrl,resources/DB.BMP,resources/DBN.BMP,Door4,0.338555336,-0.067399661,1,0,0,1.4926,optionRight,80,5835,3,21,0,21,0,1,,,,,,,,,,,,,,,,,,,,,,,,,,,,,,,,,,,,,,,
,,,,,,,,2023-08-16_08h41.06.961,HF_wild_card,2022.2.4,Linux x86_64,59.99880002,64072991baa43f8196e81f29,64d2fd46c836a06233681665,64dc7d78b34157f6897326c4,,,,,,,decisionTrl,resources/DB.BMP,resources/DP.BMP,Door3,0.283009688,-0.059257905,1,0,0,1.3576,optionRight,70,5905,3,22,0,22,0,1,,,,,,,,,,,,,,,,,,,,,,,,,,,,,,,,,,,,,,,
,,,,,,,,2023-08-16_08h41.06.961,HF_wild_card,2022.2.4,Linux x86_64,59.99880002,64072991baa43f8196e81f29,64d2fd46c836a06233681665,64dc7d78b34157f6897326c4,,,,,,,decisionTrl,resources/DR.BMP,resources/DB.BMP,WildCard_Ex,0.320221663,-0.055698514,1,0,0,1.464,optionRight,5,5910,3,23,0,23,0,1,,,,,,,,,,,,,,,,,,,,,,,,,,,,,,,,,,,,,,,
,,,,,,,,2023-08-16_08h41.06.961,HF_wild_card,2022.2.4,Linux x86_64,59.99880002,64072991baa43f8196e81f29,64d2fd46c836a06233681665,64dc7d78b34157f6897326c4,,,,,,,sngl,resources/DB.BMP,resources/Empty.png,WildCard_Ex,-0.223432342,-0.010193388,1,0,0,0.7671,optionLeft,5,5915,3,24,0,24,0,1,,,,,,,,,,,,,,,,,,,,,,,,,,,,,,,,,,,,,,,
,,,,,,,,2023-08-16_08h41.06.961,HF_wild_card,2022.2.4,Linux x86_64,59.99880002,64072991baa43f8196e81f29,64d2fd46c836a06233681665,64dc7d78b34157f6897326c4,,,,,,,decisionTrl,resources/DBN.BMP,resources/DP.BMP,Door3,0.273583333,-0.04225258,1,0,0,1.1869,optionRight,70,5985,3,25,0,25,0,1,,,,,,,,,,,,,,,,,,,,,,,,,,,,,,,,,,,,,,,
,,,,,,,,2023-08-16_08h41.06.961,HF_wild_card,2022.2.4,Linux x86_64,59.99880002,64072991baa43f8196e81f29,64d2fd46c836a06233681665,64dc7d78b34157f6897326c4,,,,,,,decisionTrl,resources/DB.BMP,resources/DG.BMP,Door2,0.358812094,-0.014317711,1,0,0,1.9422,optionRight,20,6005,3,26,0,26,0,1,,,,,,,,,,,,,,,,,,,,,,,,,,,,,,,,,,,,,,,
,,,,,,,,2023-08-16_08h41.06.961,HF_wild_card,2022.2.4,Linux x86_64,59.99880002,64072991baa43f8196e81f29,64d2fd46c836a06233681665,64dc7d78b34157f6897326c4,,,,,,,decisionTrl,resources/DG.BMP,resources/DR.BMP,Door2,-0.369856318,-0.049293041,1,0,0,1.4069,optionLeft,20,6025,3,27,0,27,0,1,,,,,,,,,,,,,,,,,,,,,,,,,,,,,,,,,,,,,,,
,,,,,,,,2023-08-16_08h41.06.961,HF_wild_card,2022.2.4,Linux x86_64,59.99880002,64072991baa43f8196e81f29,64d2fd46c836a06233681665,64dc7d78b34157f6897326c4,,,,,,,sngl,resources/DR.BMP,resources/Empty.png,Door1,-0.395213763,-0.041457256,1,0,0,0.8305,optionLeft,30,6055,3,28,0,28,0,1,,,,,,,,,,,,,,,,,,,,,,,,,,,,,,,,,,,,,,,
,,,,,,,,2023-08-16_08h41.06.961,HF_wild_card,2022.2.4,Linux x86_64,59.99880002,64072991baa43f8196e81f29,64d2fd46c836a06233681665,64dc7d78b34157f6897326c4,,,,,,,decisionTrl,resources/DBN.BMP,resources/DB.BMP,WildCard_Ex,0.24702549,0.001942078,1,0,0,1.1433,optionRight,5,6060,3,29,0,29,0,1,,,,,,,,,,,,,,,,,,,,,,,,,,,,,,,,,,,,,,,
,,,,,,,,2023-08-16_08h41.06.961,HF_wild_card,2022.2.4,Linux x86_64,59.99880002,64072991baa43f8196e81f29,64d2fd46c836a06233681665,64dc7d78b34157f6897326c4,,,,,,,decisionTrl,resources/DP.BMP,resources/DBN.BMP,Door3,-0.271554788,-0.002584338,1,0,0,0.8264,optionLeft,70,6130,3,30,0,30,0,1,,,,,,,,,,,,,,,,,,,,,,,,,,,,,,,,,,,,,,,
,,,,,,,,2023-08-16_08h41.06.961,HF_wild_card,2022.2.4,Linux x86_64,59.99880002,64072991baa43f8196e81f29,64d2fd46c836a06233681665,64dc7d78b34157f6897326c4,,,,,,,decisionTrl,resources/DB.BMP,resources/DR.BMP,Door1,0.438087622,-0.066536983,1,0,0,1.2763,optionRight,30,6160,3,31,0,31,0,1,,,,,,,,,,,,,,,,,,,,,,,,,,,,,,,,,,,,,,,
,,,,,,,,2023-08-16_08h41.06.961,HF_wild_card,2022.2.4,Linux x86_64,59.99880002,64072991baa43f8196e81f29,64d2fd46c836a06233681665,64dc7d78b34157f6897326c4,,,,,,,ctch,resources/DBN.BMP,resources/DR.BMP,Door4,-0.268434723,-0.058417002,1,0,0,0.8597,optionLeft,80,6240,3,32,0,32,0,1,,,,,,,,,,,,,,,,,,,,,,,,,,,,,,,,,,,,,,,
,,,,,,,,2023-08-16_08h41.06.961,HF_wild_card,2022.2.4,Linux x86_64,59.99880002,64072991baa43f8196e81f29,64d2fd46c836a06233681665,64dc7d78b34157f6897326c4,,,,,,,decisionTrl,resources/DG.BMP,resources/DR.BMP,Door2,-0.303726474,-0.049821019,1,0,0,1.5264,optionLeft,20,6260,3,33,0,33,0,1,,,,,,,,,,,,,,,,,,,,,,,,,,,,,,,,,,,,,,,
,,,,,,,,2023-08-16_08h41.06.961,HF_wild_card,2022.2.4,Linux x86_64,59.99880002,64072991baa43f8196e81f29,64d2fd46c836a06233681665,64dc7d78b34157f6897326c4,,,,,,,decisionTrl,resources/DP.BMP,resources/DBN.BMP,Door3,-0.480191867,-0.12011536,1,0,0,1.9547,optionLeft,70,6330,3,34,0,34,0,1,,,,,,,,,,,,,,,,,,,,,,,,,,,,,,,,,,,,,,,
,,,,,,,,2023-08-16_08h41.06.961,HF_wild_card,2022.2.4,Linux x86_64,59.99880002,64072991baa43f8196e81f29,64d2fd46c836a06233681665,64dc7d78b34157f6897326c4,,,,,,,sngl,resources/DBN.BMP,resources/Empty.png,Door4,-0.173187733,-0.004713217,1,0,0,0.9471,optionLeft,80,6410,3,35,0,35,0,1,,,,,,,,,,,,,,,,,,,,,,,,,,,,,,,,,,,,,,,
,,,,,,,,2023-08-16_08h41.06.961,HF_wild_card,2022.2.4,Linux x86_64,59.99880002,64072991baa43f8196e81f29,64d2fd46c836a06233681665,64dc7d78b34157f6897326c4,,,,,,,decisionTrl,resources/DG.BMP,resources/DR.BMP,Door1,0.528413296,-0.027866284,1,0,0,2.1071,optionRight,30,6440,3,36,0,36,0,1,,,,,,,,,,,,,,,,,,,,,,,,,,,,,,,,,,,,,,,
,,,,,,,,2023-08-16_08h41.06.961,HF_wild_card,2022.2.4,Linux x86_64,59.99880002,64072991baa43f8196e81f29,64d2fd46c836a06233681665,64dc7d78b34157f6897326c4,,,,,,,decisionTrl,resources/DG.BMP,resources/DR.BMP,Door2,-0.352981766,-0.074693282,1,0,0,1.5361,optionLeft,40,6480,3,37,0,37,0,1,,,,,,,,,,,,,,,,,,,,,,,,,,,,,,,,,,,,,,,
,,,,,,,,2023-08-16_08h41.06.961,HF_wild_card,2022.2.4,Linux x86_64,59.99880002,64072991baa43f8196e81f29,64d2fd46c836a06233681665,64dc7d78b34157f6897326c4,,,,,,,ctch,resources/DG.BMP,resources/DP.BMP,Door3,0.258342028,-0.046604594,1,0,0,1.4295,optionRight,70,6550,3,38,0,38,0,1,,,,,,,,,,,,,,,,,,,,,,,,,,,,,,,,,,,,,,,
,,,,,,,,2023-08-16_08h41.06.961,HF_wild_card,2022.2.4,Linux x86_64,59.99880002,64072991baa43f8196e81f29,64d2fd46c836a06233681665,64dc7d78b34157f6897326c4,,,,,,,ctch,resources/DP.BMP,resources/DG.BMP,Door3,-0.213001966,-0.075584054,1,0,0,1.1468,optionLeft,70,6620,3,39,0,39,0,1,,,,,,,,,,,,,,,,,,,,,,,,,,,,,,,,,,,,,,,
,,,,,,,,2023-08-16_08h41.06.961,HF_wild_card,2022.2.4,Linux x86_64,59.99880002,64072991baa43f8196e81f29,64d2fd46c836a06233681665,64dc7d78b34157f6897326c4,,,,,,,decisionTrl,resources/DG.BMP,resources/DB.BMP,Door2,-0.369615157,-0.051965475,1,0,0,2.6553,optionLeft,40,6660,3,40,0,40,0,1,,,,,,,,,,,,,,,,,,,,,,,,,,,,,,,,,,,,,,,
,,,,,,,,2023-08-16_08h41.06.961,HF_wild_card,2022.2.4,Linux x86_64,59.99880002,64072991baa43f8196e81f29,64d2fd46c836a06233681665,64dc7d78b34157f6897326c4,,,,,,,sngl,resources/Empty.png,resources/DG.BMP,Door2,0.308332602,-0.016865015,1,0,0,1.0077,optionRight,20,6680,3,41,0,41,0,1,,,,,,,,,,,,,,,,,,,,,,,,,,,,,,,,,,,,,,,
,,,,,,,,2023-08-16_08h41.06.961,HF_wild_card,2022.2.4,Linux x86_64,59.99880002,64072991baa43f8196e81f29,64d2fd46c836a06233681665,64dc7d78b34157f6897326c4,,,,,,,decisionTrl,resources/DBN.BMP,resources/DP.BMP,Door3,0.296519518,-0.102792422,1,0,0,1.135,optionRight,70,6750,3,42,0,42,0,1,,,,,,,,,,,,,,,,,,,,,,,,,,,,,,,,,,,,,,,
,,,,,,,,2023-08-16_08h41.06.961,HF_wild_card,2022.2.4,Linux x86_64,59.99880002,64072991baa43f8196e81f29,64d2fd46c836a06233681665,64dc7d78b34157f6897326c4,,,,,,,decisionTrl,resources/DP.BMP,resources/DB.BMP,Door3,-0.239107728,-0.021815062,1,0,0,1.3561,optionLeft,70,6820,3,43,0,43,0,1,,,,,,,,,,,,,,,,,,,,,,,,,,,,,,,,,,,,,,,
,,,,,,,,2023-08-16_08h41.06.961,HF_wild_card,2022.2.4,Linux x86_64,59.99880002,64072991baa43f8196e81f29,64d2fd46c836a06233681665,64dc7d78b34157f6897326c4,,,,,,,,,,,,,,,,,,,,,,,,,,2,0,2,0,1,,,,,,,,,,,,,,,,,,,,,,,,,,,,,,,,,,
,,,,,,,,2023-08-16_08h41.06.961,HF_wild_card,2022.2.4,Linux x86_64,59.99880002,64072991baa43f8196e81f29,64d2fd46c836a06233681665,64dc7d78b34157f6897326c4,,,,,,,sngl,resources/DR.BMP,resources/Empty.png,Door1,-0.353859027,-0.094329516,1,0,0,1.3378,optionLeft,30,6850,4,0,0,0,0,1,,,,,,,,,,,,,,,,,,,,,,,,,,,,,,,,,,,,,,,
,,,,,,,,2023-08-16_08h41.06.961,HF_wild_card,2022.2.4,Linux x86_64,59.99880002,64072991baa43f8196e81f29,64d2fd46c836a06233681665,64dc7d78b34157f6897326c4,,,,,,,sngl,resources/Empty.png,resources/DR.BMP,Door1,0.339259068,0.009768486,1,0,0,0.9058,optionRight,30,6880,4,1,0,1,0,1,,,,,,,,,,,,,,,,,,,,,,,,,,,,,,,,,,,,,,,
,,,,,,,,2023-08-16_08h41.06.961,HF_wild_card,2022.2.4,Linux x86_64,59.99880002,64072991baa43f8196e81f29,64d2fd46c836a06233681665,64dc7d78b34157f6897326c4,,,,,,,sngl,resources/DG.BMP,resources/Empty.png,Door2,-0.312655965,-0.095736742,1,0,0,1.01,optionLeft,20,6900,4,2,0,2,0,1,,,,,,,,,,,,,,,,,,,,,,,,,,,,,,,,,,,,,,,
,,,,,,,,2023-08-16_08h41.06.961,HF_wild_card,2022.2.4,Linux x86_64,59.99880002,64072991baa43f8196e81f29,64d2fd46c836a06233681665,64dc7d78b34157f6897326c4,,,,,,,decisionTrl,resources/DP.BMP,resources/DBN.BMP,Door4,0.247074604,-0.06715095,1,0,0,0.8598,optionRight,80,6980,4,3,0,3,0,1,,,,,,,,,,,,,,,,,,,,,,,,,,,,,,,,,,,,,,,
,,,,,,,,2023-08-16_08h41.06.961,HF_wild_card,2022.2.4,Linux x86_64,59.99880002,64072991baa43f8196e81f29,64d2fd46c836a06233681665,64dc7d78b34157f6897326c4,,,,,,,decisionTrl,resources/DBN.BMP,resources/DP.BMP,Door4,-0.374667287,-0.059296926,1,0,0,0.9249,optionLeft,60,7040,4,4,0,4,0,1,,,,,,,,,,,,,,,,,,,,,,,,,,,,,,,,,,,,,,,
,,,,,,,,2023-08-16_08h41.06.961,HF_wild_card,2022.2.4,Linux x86_64,59.99880002,64072991baa43f8196e81f29,64d2fd46c836a06233681665,64dc7d78b34157f6897326c4,,,,,,,decisionTrl,resources/DBN.BMP,resources/DP.BMP,Door3,0.376522382,-0.084286769,1,0,0,1.1608,optionRight,70,7110,4,5,0,5,0,1,,,,,,,,,,,,,,,,,,,,,,,,,,,,,,,,,,,,,,,
,,,,,,,,2023-08-16_08h41.06.961,HF_wild_card,2022.2.4,Linux x86_64,59.99880002,64072991baa43f8196e81f29,64d2fd46c836a06233681665,64dc7d78b34157f6897326c4,,,,,,,decisionTrl,resources/DR.BMP,resources/DG.BMP,Door2,0.395111084,-0.006486336,1,0,0,1.1763,optionRight,40,7150,4,6,0,6,0,1,,,,,,,,,,,,,,,,,,,,,,,,,,,,,,,,,,,,,,,
,,,,,,,,2023-08-16_08h41.06.961,HF_wild_card,2022.2.4,Linux x86_64,59.99880002,64072991baa43f8196e81f29,64d2fd46c836a06233681665,64dc7d78b34157f6897326c4,,,,,,,ctch,resources/DP.BMP,resources/DG.BMP,Door3,-0.450383266,-0.06332461,1,0,0,1.2361,optionLeft,70,7220,4,7,0,7,0,1,,,,,,,,,,,,,,,,,,,,,,,,,,,,,,,,,,,,,,,
,,,,,,,,2023-08-16_08h41.06.961,HF_wild_card,2022.2.4,Linux x86_64,59.99880002,64072991baa43f8196e81f29,64d2fd46c836a06233681665,64dc7d78b34157f6897326c4,,,,,,,decisionTrl,resources/DY.BMP,resources/DBN.BMP,WildCard_NonEx,-0.299331347,-0.065252542,1,0,0,1.8937,optionLeft,45,7265,4,8,0,8,0,1,,,,,,,,,,,,,,,,,,,,,,,,,,,,,,,,,,,,,,,
,,,,,,,,2023-08-16_08h41.06.961,HF_wild_card,2022.2.4,Linux x86_64,59.99880002,64072991baa43f8196e81f29,64d2fd46c836a06233681665,64dc7d78b34157f6897326c4,,,,,,,decisionTrl,resources/DBN.BMP,resources/DY.BMP,Door4,-0.300318599,-0.0105563,1,0,0,1.3265,optionLeft,60,7325,4,9,0,9,0,1,,,,,,,,,,,,,,,,,,,,,,,,,,,,,,,,,,,,,,,
,,,,,,,,2023-08-16_08h41.06.961,HF_wild_card,2022.2.4,Linux x86_64,59.99880002,64072991baa43f8196e81f29,64d2fd46c836a06233681665,64dc7d78b34157f6897326c4,,,,,,,sngl,resources/DY.BMP,resources/Empty.png,WildCard_NonEx,-0.278860132,-0.018974781,1,0,0,0.915,optionLeft,55,7380,4,10,0,10,0,1,,,,,,,,,,,,,,,,,,,,,,,,,,,,,,,,,,,,,,,
,,,,,,,,2023-08-16_08h41.06.961,HF_wild_card,2022.2.4,Linux x86_64,59.99880002,64072991baa43f8196e81f29,64d2fd46c836a06233681665,64dc7d78b34157f6897326c4,,,,,,,decisionTrl,resources/DG.BMP,resources/DR.BMP,Door2,-0.332194726,-0.034299771,1,0,0,1.3444,optionLeft,40,7420,4,11,0,11,0,1,,,,,,,,,,,,,,,,,,,,,,,,,,,,,,,,,,,,,,,
,,,,,,,,2023-08-16_08h41.06.961,HF_wild_card,2022.2.4,Linux x86_64,59.99880002,64072991baa43f8196e81f29,64d2fd46c836a06233681665,64dc7d78b34157f6897326c4,,,,,,,sngl,resources/Empty.png,resources/DP.BMP,Door3,0.404881954,-0.041531841,1,0,0,1.0144,optionRight,70,7490,4,12,0,12,0,1,,,,,,,,,,,,,,,,,,,,,,,,,,,,,,,,,,,,,,,
,,,,,,,,2023-08-16_08h41.06.961,HF_wild_card,2022.2.4,Linux x86_64,59.99880002,64072991baa43f8196e81f29,64d2fd46c836a06233681665,64dc7d78b34157f6897326c4,,,,,,,ctch,resources/DBN.BMP,resources/DR.BMP,Door4,-0.471016963,0.004187465,1,0,0,1.0592,optionLeft,60,7550,4,13,0,13,0,1,,,,,,,,,,,,,,,,,,,,,,,,,,,,,,,,,,,,,,,
,,,,,,,,2023-08-16_08h41.06.961,HF_wild_card,2022.2.4,Linux x86_64,59.99880002,64072991baa43f8196e81f29,64d2fd46c836a06233681665,64dc7d78b34157f6897326c4,,,,,,,decisionTrl,resources/DP.BMP,resources/DBN.BMP,Door4,0.412231684,-0.003711541,1,0,0,0.8398,optionRight,80,7630,4,14,0,14,0,1,,,,,,,,,,,,,,,,,,,,,,,,,,,,,,,,,,,,,,,
,,,,,,,,2023-08-16_08h41.06.961,HF_wild_card,2022.2.4,Linux x86_64,59.99880002,64072991baa43f8196e81f29,64d2fd46c836a06233681665,64dc7d78b34157f6897326c4,,,,,,,sngl,resources/DY.BMP,resources/Empty.png,WildCard_NonEx,-0.253430724,0.01335001,1,0,0,0.9089,optionLeft,45,7675,4,15,0,15,0,1,,,,,,,,,,,,,,,,,,,,,,,,,,,,,,,,,,,,,,,
,,,,,,,,2023-08-16_08h41.06.961,HF_wild_card,2022.2.4,Linux x86_64,59.99880002,64072991baa43f8196e81f29,64d2fd46c836a06233681665,64dc7d78b34157f6897326c4,,,,,,,decisionTrl,resources/DY.BMP,resources/DG.BMP,WildCard_NonEx,-0.461692333,-0.039168,1,0,0,1.1789,optionLeft,55,7730,4,16,0,16,0,1,,,,,,,,,,,,,,,,,,,,,,,,,,,,,,,,,,,,,,,
,,,,,,,,2023-08-16_08h41.06.961,HF_wild_card,2022.2.4,Linux x86_64,59.99880002,64072991baa43f8196e81f29,64d2fd46c836a06233681665,64dc7d78b34157f6897326c4,,,,,,,decisionTrl,resources/DR.BMP,resources/DY.BMP,WildCard_NonEx,0.433504343,-0.01544404,1,0,0,1.331,optionRight,45,7775,4,17,0,17,0,1,,,,,,,,,,,,,,,,,,,,,,,,,,,,,,,,,,,,,,,
,,,,,,,,2023-08-16_08h41.06.961,HF_wild_card,2022.2.4,Linux x86_64,59.99880002,64072991baa43f8196e81f29,64d2fd46c836a06233681665,64dc7d78b34157f6897326c4,,,,,,,sngl,resources/DP.BMP,resources/Empty.png,Door3,-0.256783764,-0.015144984,1,0,0,0.8433,optionLeft,70,7845,4,18,0,18,0,1,,,,,,,,,,,,,,,,,,,,,,,,,,,,,,,,,,,,,,,
,,,,,,,,2023-08-16_08h41.06.961,HF_wild_card,2022.2.4,Linux x86_64,59.99880002,64072991baa43f8196e81f29,64d2fd46c836a06233681665,64dc7d78b34157f6897326c4,,,,,,,decisionTrl,resources/DR.BMP,resources/DG.BMP,Door1,-0.352930824,-0.029804428,1,0,0,1.3229,optionLeft,30,7875,4,19,0,19,0,1,,,,,,,,,,,,,,,,,,,,,,,,,,,,,,,,,,,,,,,
,,,,,,,,2023-08-16_08h41.06.961,HF_wild_card,2022.2.4,Linux x86_64,59.99880002,64072991baa43f8196e81f29,64d2fd46c836a06233681665,64dc7d78b34157f6897326c4,,,,,,,sngl,resources/DBN.BMP,resources/Empty.png,Door4,-0.421510816,-0.018802921,1,0,0,0.8379,optionLeft,60,7935,4,20,0,20,0,1,,,,,,,,,,,,,,,,,,,,,,,,,,,,,,,,,,,,,,,
,,,,,,,,2023-08-16_08h41.06.961,HF_wild_card,2022.2.4,Linux x86_64,59.99880002,64072991baa43f8196e81f29,64d2fd46c836a06233681665,64dc7d78b34157f6897326c4,,,,,,,decisionTrl,resources/DG.BMP,resources/DR.BMP,Door1,0.410551548,-0.063940366,1,0,0,1.1509,optionRight,30,7965,4,21,0,21,0,1,,,,,,,,,,,,,,,,,,,,,,,,,,,,,,,,,,,,,,,
,,,,,,,,2023-08-16_08h41.06.961,HF_wild_card,2022.2.4,Linux x86_64,59.99880002,64072991baa43f8196e81f29,64d2fd46c836a06233681665,64dc7d78b34157f6897326c4,,,,,,,ctch,resources/DG.BMP,resources/DP.BMP,Door2,-0.303086082,-0.016825438,1,0,0,0.8899,optionLeft,40,8005,4,22,0,22,0,1,,,,,,,,,,,,,,,,,,,,,,,,,,,,,,,,,,,,,,,
,,,,,,,,2023-08-16_08h41.06.961,HF_wild_card,2022.2.4,Linux x86_64,59.99880002,64072991baa43f8196e81f29,64d2fd46c836a06233681665,64dc7d78b34157f6897326c4,,,,,,,sngl,resources/Empty.png,resources/DY.BMP,WildCard_NonEx,0.310325464,-0.050283631,1,0,0,0.8779,optionRight,45,8050,4,23,0,23,0,1,,,,,,,,,,,,,,,,,,,,,,,,,,,,,,,,,,,,,,,
,,,,,,,,2023-08-16_08h41.06.961,HF_wild_card,2022.2.4,Linux x86_64,59.99880002,64072991baa43f8196e81f29,64d2fd46c836a06233681665,64dc7d78b34157f6897326c4,,,,,,,decisionTrl,resources/DY.BMP,resources/DR.BMP,WildCard_NonEx,-0.303754369,-0.011039654,1,0,0,1.3109,optionLeft,55,8105,4,24,0,24,0,1,,,,,,,,,,,,,,,,,,,,,,,,,,,,,,,,,,,,,,,
,,,,,,,,2023-08-16_08h41.06.961,HF_wild_card,2022.2.4,Linux x86_64,59.99880002,64072991baa43f8196e81f29,64d2fd46c836a06233681665,64dc7d78b34157f6897326c4,,,,,,,decisionTrl,resources/DP.BMP,resources/DBN.BMP,Door4,0.319569429,0.037896514,1,0,0,1.2945,optionRight,60,8165,4,25,0,25,0,1,,,,,,,,,,,,,,,,,,,,,,,,,,,,,,,,,,,,,,,
,,,,,,,,2023-08-16_08h41.06.961,HF_wild_card,2022.2.4,Linux x86_64,59.99880002,64072991baa43f8196e81f29,64d2fd46c836a06233681665,64dc7d78b34157f6897326c4,,,,,,,decisionTrl,resources/DR.BMP,resources/DG.BMP,Door2,0.348061403,-0.019379973,1,0,0,1.0982,optionRight,20,8185,4,26,0,26,0,1,,,,,,,,,,,,,,,,,,,,,,,,,,,,,,,,,,,,,,,
,,,,,,,,2023-08-16_08h41.06.961,HF_wild_card,2022.2.4,Linux x86_64,59.99880002,64072991baa43f8196e81f29,64d2fd46c836a06233681665,64dc7d78b34157f6897326c4,,,,,,,decisionTrl,resources/DY.BMP,resources/DP.BMP,Door3,0.370376269,-0.004243771,1,0,0,1.0361,optionRight,70,8255,4,27,0,27,0,1,,,,,,,,,,,,,,,,,,,,,,,,,,,,,,,,,,,,,,,
,,,,,,,,2023-08-16_08h41.06.961,HF_wild_card,2022.2.4,Linux x86_64,59.99880002,64072991baa43f8196e81f29,64d2fd46c836a06233681665,64dc7d78b34157f6897326c4,,,,,,,ctch,resources/DP.BMP,resources/DG.BMP,Door3,-0.320036769,-0.00044179,1,0,0,0.9445,optionLeft,70,8325,4,28,0,28,0,1,,,,,,,,,,,,,,,,,,,,,,,,,,,,,,,,,,,,,,,
,,,,,,,,2023-08-16_08h41.06.961,HF_wild_card,2022.2.4,Linux x86_64,59.99880002,64072991baa43f8196e81f29,64d2fd46c836a06233681665,64dc7d78b34157f6897326c4,,,,,,,ctch,resources/DR.BMP,resources/DBN.BMP,Door4,0.466832479,-0.023341378,1,0,0,0.9826,optionRight,80,8405,4,29,0,29,0,1,,,,,,,,,,,,,,,,,,,,,,,,,,,,,,,,,,,,,,,
,,,,,,,,2023-08-16_08h41.06.961,HF_wild_card,2022.2.4,Linux x86_64,59.99880002,64072991baa43f8196e81f29,64d2fd46c836a06233681665,64dc7d78b34157f6897326c4,,,,,,,decisionTrl,resources/DP.BMP,resources/DY.BMP,Door3,-0.255712469,0.007628679,1,0,0,1.5921,optionLeft,70,8475,4,30,0,30,0,1,,,,,,,,,,,,,,,,,,,,,,,,,,,,,,,,,,,,,,,
,,,,,,,,2023-08-16_08h41.06.961,HF_wild_card,2022.2.4,Linux x86_64,59.99880002,64072991baa43f8196e81f29,64d2fd46c836a06233681665,64dc7d78b34157f6897326c4,,,,,,,decisionTrl,resources/DG.BMP,resources/DY.BMP,WildCard_NonEx,0.385133584,-0.04313302,1,0,0,1.4377,optionRight,45,8520,4,31,0,31,0,1,,,,,,,,,,,,,,,,,,,,,,,,,,,,,,,,,,,,,,,
,,,,,,,,2023-08-16_08h41.06.961,HF_wild_card,2022.2.4,Linux x86_64,59.99880002,64072991baa43f8196e81f29,64d2fd46c836a06233681665,64dc7d78b34157f6897326c4,,,,,,,ctch,resources/DR.BMP,resources/DBN.BMP,Door4,0.228340149,-0.02127858,1,0,0,0.8761,optionRight,80,8600,4,32,0,32,0,1,,,,,,,,,,,,,,,,,,,,,,,,,,,,,,,,,,,,,,,
,,,,,,,,2023-08-16_08h41.06.961,HF_wild_card,2022.2.4,Linux x86_64,59.99880002,64072991baa43f8196e81f29,64d2fd46c836a06233681665,64dc7d78b34157f6897326c4,,,,,,,decisionTrl,resources/DR.BMP,resources/DG.BMP,Door2,0.463766734,-0.059694807,1,0,0,1.343,optionRight,20,8620,4,33,0,33,0,1,,,,,,,,,,,,,,,,,,,,,,,,,,,,,,,,,,,,,,,
,,,,,,,,2023-08-16_08h41.06.961,HF_wild_card,2022.2.4,Linux x86_64,59.99880002,64072991baa43f8196e81f29,64d2fd46c836a06233681665,64dc7d78b34157f6897326c4,,,,,,,ctch,resources/DBN.BMP,resources/DR.BMP,Door4,-0.17489322,-0.00280869,1,0,0,1.2601,optionLeft,80,8700,4,34,0,34,0,1,,,,,,,,,,,,,,,,,,,,,,,,,,,,,,,,,,,,,,,
,,,,,,,,2023-08-16_08h41.06.961,HF_wild_card,2022.2.4,Linux x86_64,59.99880002,64072991baa43f8196e81f29,64d2fd46c836a06233681665,64dc7d78b34157f6897326c4,,,,,,,decisionTrl,resources/DBN.BMP,resources/DP.BMP,Door4,-0.350324035,-0.131234248,1,0,0,0.8698,optionLeft,80,8780,4,35,0,35,0,1,,,,,,,,,,,,,,,,,,,,,,,,,,,,,,,,,,,,,,,
,,,,,,,,2023-08-16_08h41.06.961,HF_wild_card,2022.2.4,Linux x86_64,59.99880002,64072991baa43f8196e81f29,64d2fd46c836a06233681665,64dc7d78b34157f6897326c4,,,,,,,decisionTrl,resources/DG.BMP,resources/DR.BMP,Door1,0.365983804,-0.041561723,1,0,0,1.7725,optionRight,30,8810,4,36,0,36,0,1,,,,,,,,,,,,,,,,,,,,,,,,,,,,,,,,,,,,,,,
,,,,,,,,2023-08-16_08h41.06.961,HF_wild_card,2022.2.4,Linux x86_64,59.99880002,64072991baa43f8196e81f29,64d2fd46c836a06233681665,64dc7d78b34157f6897326c4,,,,,,,decisionTrl,resources/DP.BMP,resources/DBN.BMP,Door4,0.332138459,-0.088916898,1,0,0,0.9092,optionRight,80,8890,4,37,0,37,0,1,,,,,,,,,,,,,,,,,,,,,,,,,,,,,,,,,,,,,,,
,,,,,,,,2023-08-16_08h41.06.961,HF_wild_card,2022.2.4,Linux x86_64,59.99880002,64072991baa43f8196e81f29,64d2fd46c836a06233681665,64dc7d78b34157f6897326c4,,,,,,,sngl,resources/Empty.png,resources/DG.BMP,Door2,0.339507182,0.031525771,1,0,0,1.0097,optionRight,40,8930,4,38,0,38,0,1,,,,,,,,,,,,,,,,,,,,,,,,,,,,,,,,,,,,,,,
,,,,,,,,2023-08-16_08h41.06.961,HF_wild_card,2022.2.4,Linux x86_64,59.99880002,64072991baa43f8196e81f29,64d2fd46c836a06233681665,64dc7d78b34157f6897326c4,,,,,,,decisionTrl,resources/DG.BMP,resources/DR.BMP,Door2,-0.351839503,-0.04559195,1,0,0,0.8874,optionLeft,40,8970,4,39,0,39,0,1,,,,,,,,,,,,,,,,,,,,,,,,,,,,,,,,,,,,,,,
,,,,,,,,2023-08-16_08h41.06.961,HF_wild_card,2022.2.4,Linux x86_64,59.99880002,64072991baa43f8196e81f29,64d2fd46c836a06233681665,64dc7d78b34157f6897326c4,,,,,,,sngl,resources/Empty.png,resources/DY.BMP,WildCard_NonEx,0.355880658,-0.02947104,1,0,0,1.0729,optionRight,55,9025,4,40,0,40,0,1,,,,,,,,,,,,,,,,,,,,,,,,,,,,,,,,,,,,,,,
,,,,,,,,2023-08-16_08h41.06.961,HF_wild_card,2022.2.4,Linux x86_64,59.99880002,64072991baa43f8196e81f29,64d2fd46c836a06233681665,64dc7d78b34157f6897326c4,,,,,,,decisionTrl,resources/DBN.BMP,resources/DP.BMP,Door4,-0.378107468,-0.024433255,1,0,0,1.0265,optionLeft,60,9085,4,41,0,41,0,1,,,,,,,,,,,,,,,,,,,,,,,,,,,,,,,,,,,,,,,
,,,,,,,,2023-08-16_08h41.06.961,HF_wild_card,2022.2.4,Linux x86_64,59.99880002,64072991baa43f8196e81f29,64d2fd46c836a06233681665,64dc7d78b34157f6897326c4,,,,,,,ctch,resources/DG.BMP,resources/DP.BMP,Door3,0.348303397,-0.069773316,1,0,0,1.1127,optionRight,70,9155,4,42,0,42,0,1,,,,,,,,,,,,,,,,,,,,,,,,,,,,,,,,,,,,,,,
,,,,,,,,2023-08-16_08h41.06.961,HF_wild_card,2022.2.4,Linux x86_64,59.99880002,64072991baa43f8196e81f29,64d2fd46c836a06233681665,64dc7d78b34157f6897326c4,,,,,,,sngl,resources/Empty.png,resources/DBN.BMP,Door4,0.396293004,-0.061209083,1,0,0,1.0033,optionRight,80,9235,4,43,0,43,0,1,,,,,,,,,,,,,,,,,,,,,,,,,,,,,,,,,,,,,,,
,,,,,,,,2023-08-16_08h41.06.961,HF_wild_card,2022.2.4,Linux x86_64,59.99880002,64072991baa43f8196e81f29,64d2fd46c836a06233681665,64dc7d78b34157f6897326c4,,,,,,,,,,,,,,,,,,,,,,,,,,3,0,3,0,1,,,,,,,,,,,,,,,,,,,,,,,,,,,,,,,,,,
,,,,,,,,2023-08-16_08h41.06.961,HF_wild_card,2022.2.4,Linux x86_64,59.99880002,64072991baa43f8196e81f29,64d2fd46c836a06233681665,64dc7d78b34157f6897326c4,,,,,,,sngl,resources/Empty.png,resources/DP.BMP,Door3,0.230411768,-0.084275365,1,0,0,2.3851,optionRight,70,9305,5,0,0,0,0,1,,,,,,,,,,,,,,,,,,,,,,,,,,,,,,,,,,,,,,,
,,,,,,,,2023-08-16_08h41.06.961,HF_wild_card,2022.2.4,Linux x86_64,59.99880002,64072991baa43f8196e81f29,64d2fd46c836a06233681665,64dc7d78b34157f6897326c4,,,,,,,decisionTrl,resources/DP.BMP,resources/DBN.BMP,Door3,-0.39225177,-0.07833755,1,0,0,1.3731,optionLeft,70,9375,5,1,0,1,0,1,,,,,,,,,,,,,,,,,,,,,,,,,,,,,,,,,,,,,,,
,,,,,,,,2023-08-16_08h41.06.961,HF_wild_card,2022.2.4,Linux x86_64,59.99880002,64072991baa43f8196e81f29,64d2fd46c836a06233681665,64dc7d78b34157f6897326c4,,,,,,,sngl,resources/DR.BMP,resources/Empty.png,Door1,-0.415994008,-0.072292209,1,0,0,0.9149,optionLeft,30,9405,5,2,0,2,0,1,,,,,,,,,,,,,,,,,,,,,,,,,,,,,,,,,,,,,,,
,,,,,,,,2023-08-16_08h41.06.961,HF_wild_card,2022.2.4,Linux x86_64,59.99880002,64072991baa43f8196e81f29,64d2fd46c836a06233681665,64dc7d78b34157f6897326c4,,,,,,,sngl,resources/DY.BMP,resources/Empty.png,WildCard_NonEx,-0.395282706,-0.054659963,1,0,0,1.481,optionLeft,45,9450,5,3,0,3,0,1,,,,,,,,,,,,,,,,,,,,,,,,,,,,,,,,,,,,,,,
,,,,,,,,2023-08-16_08h41.06.961,HF_wild_card,2022.2.4,Linux x86_64,59.99880002,64072991baa43f8196e81f29,64d2fd46c836a06233681665,64dc7d78b34157f6897326c4,,,,,,,decisionTrl,resources/DR.BMP,resources/DY.BMP,WildCard_NonEx,0.348303397,0.012846351,1,0,0,1.8633,optionRight,55,9505,5,4,0,4,0,1,,,,,,,,,,,,,,,,,,,,,,,,,,,,,,,,,,,,,,,
,,,,,,,,2023-08-16_08h41.06.961,HF_wild_card,2022.2.4,Linux x86_64,59.99880002,64072991baa43f8196e81f29,64d2fd46c836a06233681665,64dc7d78b34157f6897326c4,,,,,,,decisionTrl,resources/DG.BMP,resources/DY.BMP,WildCard_NonEx,0.403365135,-0.073803544,1,0,0,1.1317,optionRight,45,9550,5,5,0,5,0,1,,,,,,,,,,,,,,,,,,,,,,,,,,,,,,,,,,,,,,,
,,,,,,,,2023-08-16_08h41.06.961,HF_wild_card,2022.2.4,Linux x86_64,59.99880002,64072991baa43f8196e81f29,64d2fd46c836a06233681665,64dc7d78b34157f6897326c4,,,,,,,ctch,resources/DG.BMP,resources/DP.BMP,Door3,0.39932394,0.011838794,1,0,0,1.5611,optionRight,70,9620,5,6,0,6,0,1,,,,,,,,,,,,,,,,,,,,,,,,,,,,,,,,,,,,,,,
,,,,,,,,2023-08-16_08h41.06.961,HF_wild_card,2022.2.4,Linux x86_64,59.99880002,64072991baa43f8196e81f29,64d2fd46c836a06233681665,64dc7d78b34157f6897326c4,,,,,,,decisionTrl,resources/DY.BMP,resources/DG.BMP,WildCard_NonEx,-0.373055935,-0.037531495,1,0,0,1.1481,optionLeft,55,9675,5,7,0,7,0,1,,,,,,,,,,,,,,,,,,,,,,,,,,,,,,,,,,,,,,,
,,,,,,,,2023-08-16_08h41.06.961,HF_wild_card,2022.2.4,Linux x86_64,59.99880002,64072991baa43f8196e81f29,64d2fd46c836a06233681665,64dc7d78b34157f6897326c4,,,,,,,ctch,resources/DBN.BMP,resources/DR.BMP,Door4,-0.373055935,0.05869019,1,0,0,0.8747,optionLeft,60,9735,5,8,0,8,0,1,,,,,,,,,,,,,,,,,,,,,,,,,,,,,,,,,,,,,,,
,,,,,,,,2023-08-16_08h41.06.961,HF_wild_card,2022.2.4,Linux x86_64,59.99880002,64072991baa43f8196e81f29,64d2fd46c836a06233681665,64dc7d78b34157f6897326c4,,,,,,,ctch,resources/DBN.BMP,resources/DR.BMP,Door4,-0.314963261,-0.040554166,1,0,0,0.9111,optionLeft,80,9815,5,9,0,9,0,1,,,,,,,,,,,,,,,,,,,,,,,,,,,,,,,,,,,,,,,
,,,,,,,,2023-08-16_08h41.06.961,HF_wild_card,2022.2.4,Linux x86_64,59.99880002,64072991baa43f8196e81f29,64d2fd46c836a06233681665,64dc7d78b34157f6897326c4,,,,,,,decisionTrl,resources/DBN.BMP,resources/DY.BMP,Door4,-0.329107563,-0.037027717,1,0,0,0.8213,optionLeft,60,9875,5,10,0,10,0,1,,,,,,,,,,,,,,,,,,,,,,,,,,,,,,,,,,,,,,,
,,,,,,,,2023-08-16_08h41.06.961,HF_wild_card,2022.2.4,Linux x86_64,59.99880002,64072991baa43f8196e81f29,64d2fd46c836a06233681665,64dc7d78b34157f6897326c4,,,,,,,sngl,resources/Empty.png,resources/DY.BMP,WildCard_NonEx,0.370530128,-0.058186412,1,0,0,1.0635,optionRight,55,9930,5,11,0,11,0,1,,,,,,,,,,,,,,,,,,,,,,,,,,,,,,,,,,,,,,,
,,,,,,,,2023-08-16_08h41.06.961,HF_wild_card,2022.2.4,Linux x86_64,59.99880002,64072991baa43f8196e81f29,64d2fd46c836a06233681665,64dc7d78b34157f6897326c4,,,,,,,sngl,resources/Empty.png,resources/DR.BMP,Door1,0.396798134,-0.03904283,1,0,0,0.718,optionRight,30,9960,5,12,0,12,0,1,,,,,,,,,,,,,,,,,,,,,,,,,,,,,,,,,,,,,,,
,,,,,,,,2023-08-16_08h41.06.961,HF_wild_card,2022.2.4,Linux x86_64,59.99880002,64072991baa43f8196e81f29,64d2fd46c836a06233681665,64dc7d78b34157f6897326c4,,,,,,,decisionTrl,resources/DG.BMP,resources/DR.BMP,Door2,-0.330117901,-0.031486154,1,0,0,0.813,optionLeft,20,9980,5,13,0,13,0,1,,,,,,,,,,,,,,,,,,,,,,,,,,,,,,,,,,,,,,,
,,,,,,,,2023-08-16_08h41.06.961,HF_wild_card,2022.2.4,Linux x86_64,59.99880002,64072991baa43f8196e81f29,64d2fd46c836a06233681665,64dc7d78b34157f6897326c4,,,,,,,decisionTrl,resources/DBN.BMP,resources/DP.BMP,Door3,0.364973466,-0.030478597,1,0,0,1.3112,optionRight,70,10050,5,14,0,14,0,1,,,,,,,,,,,,,,,,,,,,,,,,,,,,,,,,,,,,,,,
,,,,,,,,2023-08-16_08h41.06.961,HF_wild_card,2022.2.4,Linux x86_64,59.99880002,64072991baa43f8196e81f29,64d2fd46c836a06233681665,64dc7d78b34157f6897326c4,,,,,,,decisionTrl,resources/DR.BMP,resources/DG.BMP,Door2,0.423066139,-0.103022655,1,0,0,0.9499,optionRight,40,10090,5,15,0,15,0,1,,,,,,,,,,,,,,,,,,,,,,,,,,,,,,,,,,,,,,,
,,,,,,,,2023-08-16_08h41.06.961,HF_wild_card,2022.2.4,Linux x86_64,59.99880002,64072991baa43f8196e81f29,64d2fd46c836a06233681665,64dc7d78b34157f6897326c4,,,,,,,sngl,resources/DP.BMP,resources/Empty.png,Door3,-0.318499366,-0.054156184,1,0,0,0.8001,optionLeft,70,10160,5,16,0,16,0,1,,,,,,,,,,,,,,,,,,,,,,,,,,,,,,,,,,,,,,,
,,,,,,,,2023-08-16_08h41.06.961,HF_wild_card,2022.2.4,Linux x86_64,59.99880002,64072991baa43f8196e81f29,64d2fd46c836a06233681665,64dc7d78b34157f6897326c4,,,,,,,ctch,resources/DR.BMP,resources/DBN.BMP,Door4,0.417004267,-0.063224196,1,0,0,0.7283,optionRight,80,10240,5,17,0,17,0,1,,,,,,,,,,,,,,,,,,,,,,,,,,,,,,,,,,,,,,,
,,,,,,,,2023-08-16_08h41.06.961,HF_wild_card,2022.2.4,Linux x86_64,59.99880002,64072991baa43f8196e81f29,64d2fd46c836a06233681665,64dc7d78b34157f6897326c4,,,,,,,decisionTrl,resources/DG.BMP,resources/DR.BMP,Door2,-0.337190032,-0.043073058,1,0,0,0.8463,optionLeft,20,10260,5,18,0,18,0,1,,,,,,,,,,,,,,,,,,,,,,,,,,,,,,,,,,,,,,,
,,,,,,,,2023-08-16_08h41.06.961,HF_wild_card,2022.2.4,Linux x86_64,59.99880002,64072991baa43f8196e81f29,64d2fd46c836a06233681665,64dc7d78b34157f6897326c4,,,,,,,decisionTrl,resources/DR.BMP,resources/DG.BMP,Door1,-0.3690147,0.033501267,1,0,0,0.9036,optionLeft,30,10290,5,19,0,19,0,1,,,,,,,,,,,,,,,,,,,,,,,,,,,,,,,,,,,,,,,
,,,,,,,,2023-08-16_08h41.06.961,HF_wild_card,2022.2.4,Linux x86_64,59.99880002,64072991baa43f8196e81f29,64d2fd46c836a06233681665,64dc7d78b34157f6897326c4,,,,,,,decisionTrl,resources/DG.BMP,resources/DR.BMP,Door2,-0.358406504,-0.057682633,1,0,0,1.3054,optionLeft,40,10330,5,20,0,20,0,1,,,,,,,,,,,,,,,,,,,,,,,,,,,,,,,,,,,,,,,
,,,,,,,,2023-08-16_08h41.06.961,HF_wild_card,2022.2.4,Linux x86_64,59.99880002,64072991baa43f8196e81f29,64d2fd46c836a06233681665,64dc7d78b34157f6897326c4,,,,,,,decisionTrl,resources/DR.BMP,resources/DG.BMP,Door2,0.366488934,-0.035012603,1,0,0,1.013,optionRight,40,10370,5,21,0,21,0,1,,,,,,,,,,,,,,,,,,,,,,,,,,,,,,,,,,,,,,,
,,,,,,,,2023-08-16_08h41.06.961,HF_wild_card,2022.2.4,Linux x86_64,59.99880002,64072991baa43f8196e81f29,64d2fd46c836a06233681665,64dc7d78b34157f6897326c4,,,,,,,sngl,resources/Empty.png,resources/DBN.BMP,Door4,0.403365135,-0.020906806,1,0,0,0.6988,optionRight,60,10430,5,22,0,22,0,1,,,,,,,,,,,,,,,,,,,,,,,,,,,,,,,,,,,,,,,
,,,,,,,,2023-08-16_08h41.06.961,HF_wild_card,2022.2.4,Linux x86_64,59.99880002,64072991baa43f8196e81f29,64d2fd46c836a06233681665,64dc7d78b34157f6897326c4,,,,,,,sngl,resources/DBN.BMP,resources/Empty.png,Door4,-0.336684903,-0.02292192,1,0,0,0.6921,optionLeft,80,10510,5,23,0,23,0,1,,,,,,,,,,,,,,,,,,,,,,,,,,,,,,,,,,,,,,,
,,,,,,,,2023-08-16_08h41.06.961,HF_wild_card,2022.2.4,Linux x86_64,59.99880002,64072991baa43f8196e81f29,64d2fd46c836a06233681665,64dc7d78b34157f6897326c4,,,,,,,decisionTrl,resources/DBN.BMP,resources/DP.BMP,Door3,0.359416803,-0.014357686,1,0,0,0.7757,optionRight,70,10580,5,24,0,24,0,1,,,,,,,,,,,,,,,,,,,,,,,,,,,,,,,,,,,,,,,
,,,,,,,,2023-08-16_08h41.06.961,HF_wild_card,2022.2.4,Linux x86_64,59.99880002,64072991baa43f8196e81f29,64d2fd46c836a06233681665,64dc7d78b34157f6897326c4,,,,,,,decisionTrl,resources/DP.BMP,resources/DBN.BMP,Door4,0.384169261,-0.038539052,1,0,0,0.7562,optionRight,60,10640,5,25,0,25,0,1,,,,,,,,,,,,,,,,,,,,,,,,,,,,,,,,,,,,,,,
,,,,,,,,2023-08-16_08h41.06.961,HF_wild_card,2022.2.4,Linux x86_64,59.99880002,64072991baa43f8196e81f29,64d2fd46c836a06233681665,64dc7d78b34157f6897326c4,,,,,,,decisionTrl,resources/DP.BMP,resources/DBN.BMP,Door3,-0.337695201,-0.013350129,1,0,0,0.7021,optionLeft,70,10710,5,26,0,26,0,1,,,,,,,,,,,,,,,,,,,,,,,,,,,,,,,,,,,,,,,
,,,,,,,,2023-08-16_08h41.06.961,HF_wild_card,2022.2.4,Linux x86_64,59.99880002,64072991baa43f8196e81f29,64d2fd46c836a06233681665,64dc7d78b34157f6897326c4,,,,,,,decisionTrl,resources/DP.BMP,resources/DBN.BMP,Door3,-0.344262203,-0.003778338,1,0,0,1.0358,optionLeft,70,10780,5,27,0,27,0,1,,,,,,,,,,,,,,,,,,,,,,,,,,,,,,,,,,,,,,,
,,,,,,,,2023-08-16_08h41.06.961,HF_wild_card,2022.2.4,Linux x86_64,59.99880002,64072991baa43f8196e81f29,64d2fd46c836a06233681665,64dc7d78b34157f6897326c4,,,,,,,ctch,resources/DP.BMP,resources/DG.BMP,Door3,-0.324561199,-0.021914363,1,0,0,0.9201,optionLeft,70,10850,5,28,0,28,0,1,,,,,,,,,,,,,,,,,,,,,,,,,,,,,,,,,,,,,,,
,,,,,,,,2023-08-16_08h41.06.961,HF_wild_card,2022.2.4,Linux x86_64,59.99880002,64072991baa43f8196e81f29,64d2fd46c836a06233681665,64dc7d78b34157f6897326c4,,,,,,,decisionTrl,resources/DY.BMP,resources/DP.BMP,Door3,0.39932394,-0.068765759,1,0,0,0.7861,optionRight,70,10920,5,29,0,29,0,1,,,,,,,,,,,,,,,,,,,,,,,,,,,,,,,,,,,,,,,
,,,,,,,,2023-08-16_08h41.06.961,HF_wild_card,2022.2.4,Linux x86_64,59.99880002,64072991baa43f8196e81f29,64d2fd46c836a06233681665,64dc7d78b34157f6897326c4,,,,,,,ctch,resources/DG.BMP,resources/DP.BMP,Door3,0.41498367,-0.100503802,1,0,0,0.6324,optionRight,70,10990,5,30,0,30,0,1,,,,,,,,,,,,,,,,,,,,,,,,,,,,,,,,,,,,,,,
,,,,,,,,2023-08-16_08h41.06.961,HF_wild_card,2022.2.4,Linux x86_64,59.99880002,64072991baa43f8196e81f29,64d2fd46c836a06233681665,64dc7d78b34157f6897326c4,,,,,,,decisionTrl,resources/DY.BMP,resources/DBN.BMP,Door4,0.403365135,-0.032493711,1,0,0,0.5679,optionRight,80,11070,5,31,0,31,0,1,,,,,,,,,,,,,,,,,,,,,,,,,,,,,,,,,,,,,,,
,,,,,,,,2023-08-16_08h41.06.961,HF_wild_card,2022.2.4,Linux x86_64,59.99880002,64072991baa43f8196e81f29,64d2fd46c836a06233681665,64dc7d78b34157f6897326c4,,,,,,,decisionTrl,resources/DG.BMP,resources/DR.BMP,Door2,-0.357396166,-0.027455926,1,0,0,0.8652,optionLeft,40,11110,5,32,0,32,0,1,,,,,,,,,,,,,,,,,,,,,,,,,,,,,,,,,,,,,,,
,,,,,,,,2023-08-16_08h41.06.961,HF_wild_card,2022.2.4,Linux x86_64,59.99880002,64072991baa43f8196e81f29,64d2fd46c836a06233681665,64dc7d78b34157f6897326c4,,,,,,,decisionTrl,resources/DY.BMP,resources/DR.BMP,WildCard_NonEx,-0.337695201,-0.038539052,1,0,0,0.7166,optionLeft,45,11155,5,33,0,33,0,1,,,,,,,,,,,,,,,,,,,,,,,,,,,,,,,,,,,,,,,
,,,,,,,,2023-08-16_08h41.06.961,HF_wild_card,2022.2.4,Linux x86_64,59.99880002,64072991baa43f8196e81f29,64d2fd46c836a06233681665,64dc7d78b34157f6897326c4,,,,,,,decisionTrl,resources/DR.BMP,resources/DG.BMP,Door1,-0.337190032,-0.060705304,1,0,0,0.6939,optionLeft,30,11185,5,34,0,34,0,1,,,,,,,,,,,,,,,,,,,,,,,,,,,,,,,,,,,,,,,
,,,,,,,,2023-08-16_08h41.06.961,HF_wild_card,2022.2.4,Linux x86_64,59.99880002,64072991baa43f8196e81f29,64d2fd46c836a06233681665,64dc7d78b34157f6897326c4,,,,,,,ctch,resources/DP.BMP,resources/DG.BMP,Door3,-0.339715799,-0.012342572,1,0,0,0.8989,optionLeft,70,11255,5,35,0,35,0,1,,,,,,,,,,,,,,,,,,,,,,,,,,,,,,,,,,,,,,,
,,,,,,,,2023-08-16_08h41.06.961,HF_wild_card,2022.2.4,Linux x86_64,59.99880002,64072991baa43f8196e81f29,64d2fd46c836a06233681665,64dc7d78b34157f6897326c4,,,,,,,sngl,resources/Empty.png,resources/DG.BMP,Door2,0.404880603,-0.095969796,1,0,0,0.7847,optionRight,20,11275,5,36,0,36,0,1,,,,,,,,,,,,,,,,,,,,,,,,,,,,,,,,,,,,,,,
,,,,,,,,2023-08-16_08h41.06.961,HF_wild_card,2022.2.4,Linux x86_64,59.99880002,64072991baa43f8196e81f29,64d2fd46c836a06233681665,64dc7d78b34157f6897326c4,,,,,,,decisionTrl,resources/DBN.BMP,resources/DP.BMP,Door4,-0.304355065,-0.016876578,1,0,0,1.0771,optionLeft,60,11335,5,37,0,37,0,1,,,,,,,,,,,,,,,,,,,,,,,,,,,,,,,,,,,,,,,
,,,,,,,,2023-08-16_08h41.06.961,HF_wild_card,2022.2.4,Linux x86_64,59.99880002,64072991baa43f8196e81f29,64d2fd46c836a06233681665,64dc7d78b34157f6897326c4,,,,,,,decisionTrl,resources/DP.BMP,resources/DY.BMP,Door3,-0.301829298,-0.018891692,1,0,0,0.7181,optionLeft,70,11405,5,38,0,38,0,1,,,,,,,,,,,,,,,,,,,,,,,,,,,,,,,,,,,,,,,
,,,,,,,,2023-08-16_08h41.06.961,HF_wild_card,2022.2.4,Linux x86_64,59.99880002,64072991baa43f8196e81f29,64d2fd46c836a06233681665,64dc7d78b34157f6897326c4,,,,,,,decisionTrl,resources/DBN.BMP,resources/DP.BMP,Door3,0.400334199,-0.030478597,1,0,0,1.2257,optionRight,70,11475,5,39,0,39,0,1,,,,,,,,,,,,,,,,,,,,,,,,,,,,,,,,,,,,,,,
,,,,,,,,2023-08-16_08h41.06.961,HF_wild_card,2022.2.4,Linux x86_64,59.99880002,64072991baa43f8196e81f29,64d2fd46c836a06233681665,64dc7d78b34157f6897326c4,,,,,,,sngl,resources/DY.BMP,resources/Empty.png,WildCard_NonEx,-0.327086965,-0.057682633,1,0,0,0.7001,optionLeft,55,11530,5,40,0,40,0,1,,,,,,,,,,,,,,,,,,,,,,,,,,,,,,,,,,,,,,,
,,,,,,,,2023-08-16_08h41.06.961,HF_wild_card,2022.2.4,Linux x86_64,59.99880002,64072991baa43f8196e81f29,64d2fd46c836a06233681665,64dc7d78b34157f6897326c4,,,,,,,ctch,resources/DR.BMP,resources/DBN.BMP,Door4,0.410437266,-0.047607064,1,0,0,0.6833,optionRight,60,11590,5,41,0,41,0,1,,,,,,,,,,,,,,,,,,,,,,,,,,,,,,,,,,,,,,,
,,,,,,,,2023-08-16_08h41.06.961,HF_wild_card,2022.2.4,Linux x86_64,59.99880002,64072991baa43f8196e81f29,64d2fd46c836a06233681665,64dc7d78b34157f6897326c4,,,,,,,sngl,resources/DG.BMP,resources/Empty.png,Door2,-0.359416803,-0.006801009,1,0,0,0.6932,optionLeft,40,11630,5,42,0,42,0,1,,,,,,,,,,,,,,,,,,,,,,,,,,,,,,,,,,,,,,,
,,,,,,,,2023-08-16_08h41.06.961,HF_wild_card,2022.2.4,Linux x86_64,59.99880002,64072991baa43f8196e81f29,64d2fd46c836a06233681665,64dc7d78b34157f6897326c4,,,,,,,sngl,resources/Empty.png,resources/DY.BMP,WildCard_NonEx,0.393262068,-0.067758203,1,0,0,0.6992,optionRight,45,11675,5,43,0,43,0,1,,,,,,,,,,,,,,,,,,,,,,,,,,,,,,,,,,,,,,,
,,,,,,,,2023-08-16_08h41.06.961,HF_wild_card,2022.2.4,Linux x86_64,59.99880002,64072991baa43f8196e81f29,64d2fd46c836a06233681665,64dc7d78b34157f6897326c4,,,,,,,,,,,,,,,,,,,,,,,,,,4,0,4,0,1,,,,,,,,,,,,,,,,,,,,,,,,,,,,,,,,,,
,,,,,,,,2023-08-16_08h41.06.961,HF_wild_card,2022.2.4,Linux x86_64,59.99880002,64072991baa43f8196e81f29,64d2fd46c836a06233681665,64dc7d78b34157f6897326c4,,,,,,,ctch,resources/DP.BMP,resources/DG.BMP,Door3,-0.398313642,-0.028463483,1,0,0,2.9615,optionLeft,70,11745,6,0,0,0,0,1,,,,,,,,,,,,,,,,,,,,,,,,,,,,,,,,,,,,,,,
,,,,,,,,2023-08-16_08h41.06.961,HF_wild_card,2022.2.4,Linux x86_64,59.99880002,64072991baa43f8196e81f29,64d2fd46c836a06233681665,64dc7d78b34157f6897326c4,,,,,,,sngl,resources/DBN.BMP,resources/Empty.png,Door4,-0.334159136,-0.05566752,1,0,0,1.0694,optionLeft,60,11805,6,1,0,1,0,1,,,,,,,,,,,,,,,,,,,,,,,,,,,,,,,,,,,,,,,
,,,,,,,,2023-08-16_08h41.06.961,HF_wild_card,2022.2.4,Linux x86_64,59.99880002,64072991baa43f8196e81f29,64d2fd46c836a06233681665,64dc7d78b34157f6897326c4,,,,,,,sngl,resources/DG.BMP,resources/Empty.png,Door2,-0.374066234,-0.05869019,1,0,0,0.6938,optionLeft,20,11825,6,2,0,2,0,1,,,,,,,,,,,,,,,,,,,,,,,,,,,,,,,,,,,,,,,
,,,,,,,,2023-08-16_08h41.06.961,HF_wild_card,2022.2.4,Linux x86_64,59.99880002,64072991baa43f8196e81f29,64d2fd46c836a06233681665,64dc7d78b34157f6897326c4,,,,,,,sngl,resources/Empty.png,resources/DY.BMP,WildCard_NonEx,0.372550726,-0.037531495,1,0,0,0.6458,optionRight,45,11870,6,3,0,3,0,1,,,,,,,,,,,,,,,,,,,,,,,,,,,,,,,,,,,,,,,
,,,,,,,,2023-08-16_08h41.06.961,HF_wild_card,2022.2.4,Linux x86_64,59.99880002,64072991baa43f8196e81f29,64d2fd46c836a06233681665,64dc7d78b34157f6897326c4,,,,,,,decisionTrl,resources/DBN.BMP,resources/DP.BMP,Door4,-0.354365269,-0.052644849,1,0,0,0.8583,optionLeft,60,11930,6,4,0,4,0,1,,,,,,,,,,,,,,,,,,,,,,,,,,,,,,,,,,,,,,,
,,,,,,,,2023-08-16_08h41.06.961,HF_wild_card,2022.2.4,Linux x86_64,59.99880002,64072991baa43f8196e81f29,64d2fd46c836a06233681665,64dc7d78b34157f6897326c4,,,,,,,decisionTrl,resources/DP.BMP,resources/DBN.BMP,Door4,0.401344538,-0.073299766,1,0,0,0.6748,optionRight,60,11990,6,5,0,5,0,1,,,,,,,,,,,,,,,,,,,,,,,,,,,,,,,,,,,,,,,
,,,,,,,,2023-08-16_08h41.06.961,HF_wild_card,2022.2.4,Linux x86_64,59.99880002,64072991baa43f8196e81f29,64d2fd46c836a06233681665,64dc7d78b34157f6897326c4,,,,,,,sngl,resources/Empty.png,resources/DR.BMP,Door1,0.380633195,-0.058186412,1,0,0,0.7605,optionRight,30,12020,6,6,0,6,0,1,,,,,,,,,,,,,,,,,,,,,,,,,,,,,,,,,,,,,,,
,,,,,,,,2023-08-16_08h41.06.961,HF_wild_card,2022.2.4,Linux x86_64,59.99880002,64072991baa43f8196e81f29,64d2fd46c836a06233681665,64dc7d78b34157f6897326c4,,,,,,,decisionTrl,resources/DG.BMP,resources/DR.BMP,Door2,-0.3614374,-0.040050387,1,0,0,1.1047,optionLeft,20,12040,6,7,0,7,0,1,,,,,,,,,,,,,,,,,,,,,,,,,,,,,,,,,,,,,,,
,,,,,,,,2023-08-16_08h41.06.961,HF_wild_card,2022.2.4,Linux x86_64,59.99880002,64072991baa43f8196e81f29,64d2fd46c836a06233681665,64dc7d78b34157f6897326c4,,,,,,,ctch,resources/DR.BMP,resources/DBN.BMP,Door4,0.380128066,-0.028463483,1,0,0,1.5126,optionRight,80,12120,6,8,0,8,0,1,,,,,,,,,,,,,,,,,,,,,,,,,,,,,,,,,,,,,,,
,,,,,,,,2023-08-16_08h41.06.961,HF_wild_card,2022.2.4,Linux x86_64,59.99880002,64072991baa43f8196e81f29,64d2fd46c836a06233681665,64dc7d78b34157f6897326c4,,,,,,,decisionTrl,resources/DBN.BMP,resources/DY.BMP,Door4,-0.344767332,-0.076322436,1,0,0,0.7901,optionLeft,60,12180,6,9,0,9,0,1,,,,,,,,,,,,,,,,,,,,,,,,,,,,,,,,,,,,,,,
,,,,,,,,2023-08-16_08h41.06.961,HF_wild_card,2022.2.4,Linux x86_64,59.99880002,64072991baa43f8196e81f29,64d2fd46c836a06233681665,64dc7d78b34157f6897326c4,,,,,,,sngl,resources/Empty.png,resources/DY.BMP,WildCard_NonEx,0.404375474,-0.060201526,1,0,0,0.7534,optionRight,55,12235,6,10,0,10,0,1,,,,,,,,,,,,,,,,,,,,,,,,,,,,,,,,,,,,,,,
,,,,,,,,2023-08-16_08h41.06.961,HF_wild_card,2022.2.4,Linux x86_64,59.99880002,64072991baa43f8196e81f29,64d2fd46c836a06233681665,64dc7d78b34157f6897326c4,,,,,,,ctch,resources/DBN.BMP,resources/DR.BMP,Door4,-0.339715799,-0.041057944,1,0,0,0.7299,optionLeft,60,12295,6,11,0,11,0,1,,,,,,,,,,,,,,,,,,,,,,,,,,,,,,,,,,,,,,,
,,,,,,,,2023-08-16_08h41.06.961,HF_wild_card,2022.2.4,Linux x86_64,59.99880002,64072991baa43f8196e81f29,64d2fd46c836a06233681665,64dc7d78b34157f6897326c4,,,,,,,decisionTrl,resources/DG.BMP,resources/DR.BMP,Door2,-0.397808472,-0.037027717,1,0,0,1.0184,optionLeft,20,12315,6,12,0,12,0,1,,,,,,,,,,,,,,,,,,,,,,,,,,,,,,,,,,,,,,,
,,,,,,,,2023-08-16_08h41.06.961,HF_wild_card,2022.2.4,Linux x86_64,59.99880002,64072991baa43f8196e81f29,64d2fd46c836a06233681665,64dc7d78b34157f6897326c4,,,,,,,ctch,resources/DR.BMP,resources/DBN.BMP,Door4,0.396293004,-0.074307323,1,0,0,0.8432,optionRight,80,12395,6,13,0,13,0,1,,,,,,,,,,,,,,,,,,,,,,,,,,,,,,,,,,,,,,,
,,,,,,,,2023-08-16_08h41.06.961,HF_wild_card,2022.2.4,Linux x86_64,59.99880002,64072991baa43f8196e81f29,64d2fd46c836a06233681665,64dc7d78b34157f6897326c4,,,,,,,decisionTrl,resources/DY.BMP,resources/DR.BMP,Door1,0.404375474,-0.046599507,1,0,0,0.9326,optionRight,30,12425,6,14,0,14,0,1,,,,,,,,,,,,,,,,,,,,,,,,,,,,,,,,,,,,,,,
,,,,,,,,2023-08-16_08h41.06.961,HF_wild_card,2022.2.4,Linux x86_64,59.99880002,64072991baa43f8196e81f29,64d2fd46c836a06233681665,64dc7d78b34157f6897326c4,,,,,,,ctch,resources/DG.BMP,resources/DP.BMP,Door3,0.3917466,-0.027455926,1,0,0,0.834,optionRight,70,12495,6,15,0,15,0,1,,,,,,,,,,,,,,,,,,,,,,,,,,,,,,,,,,,,,,,
,,,,,,,,2023-08-16_08h41.06.961,HF_wild_card,2022.2.4,Linux x86_64,59.99880002,64072991baa43f8196e81f29,64d2fd46c836a06233681665,64dc7d78b34157f6897326c4,,,,,,,decisionTrl,resources/DG.BMP,resources/DR.BMP,Door2,-0.388715704,-0.050125957,1,0,0,1.5261,optionLeft,20,12515,6,16,0,16,0,1,,,,,,,,,,,,,,,,,,,,,,,,,,,,,,,,,,,,,,,
,,,,,,,,2023-08-16_08h41.06.961,HF_wild_card,2022.2.4,Linux x86_64,59.99880002,64072991baa43f8196e81f29,64d2fd46c836a06233681665,64dc7d78b34157f6897326c4,,,,,,,decisionTrl,resources/DG.BMP,resources/DY.BMP,WildCard_NonEx,0.443777402,0.004282117,1,0,0,0.796,optionRight,45,12560,6,17,0,17,0,1,,,,,,,,,,,,,,,,,,,,,,,,,,,,,,,,,,,,,,,
,,,,,,,,2023-08-16_08h41.06.961,HF_wild_card,2022.2.4,Linux x86_64,59.99880002,64072991baa43f8196e81f29,64d2fd46c836a06233681665,64dc7d78b34157f6897326c4,,,,,,,decisionTrl,resources/DG.BMP,resources/DR.BMP,Door1,0.388210535,-0.05214107,1,0,0,0.882,optionRight,30,12590,6,18,0,18,0,1,,,,,,,,,,,,,,,,,,,,,,,,,,,,,,,,,,,,,,,
,,,,,,,,2023-08-16_08h41.06.961,HF_wild_card,2022.2.4,Linux x86_64,59.99880002,64072991baa43f8196e81f29,64d2fd46c836a06233681665,64dc7d78b34157f6897326c4,,,,,,,ctch,resources/DP.BMP,resources/DG.BMP,Door3,-0.350324035,-0.030478597,1,0,0,0.8024,optionLeft,70,12660,6,19,0,19,0,1,,,,,,,,,,,,,,,,,,,,,,,,,,,,,,,,,,,,,,,
,,,,,,,,2023-08-16_08h41.06.961,HF_wild_card,2022.2.4,Linux x86_64,59.99880002,64072991baa43f8196e81f29,64d2fd46c836a06233681665,64dc7d78b34157f6897326c4,,,,,,,decisionTrl,resources/DP.BMP,resources/DY.BMP,Door3,-0.327086965,-0.001763225,1,0,0,0.8291,optionLeft,70,12730,6,20,0,20,0,1,,,,,,,,,,,,,,,,,,,,,,,,,,,,,,,,,,,,,,,
,,,,,,,,2023-08-16_08h41.06.961,HF_wild_card,2022.2.4,Linux x86_64,59.99880002,64072991baa43f8196e81f29,64d2fd46c836a06233681665,64dc7d78b34157f6897326c4,,,,,,,decisionTrl,resources/DP.BMP,resources/DBN.BMP,Door4,0.429633141,-0.081360221,1,0,0,0.7591,optionRight,60,12790,6,21,0,21,0,1,,,,,,,,,,,,,,,,,,,,,,,,,,,,,,,,,,,,,,,
,,,,,,,,2023-08-16_08h41.06.961,HF_wild_card,2022.2.4,Linux x86_64,59.99880002,64072991baa43f8196e81f29,64d2fd46c836a06233681665,64dc7d78b34157f6897326c4,,,,,,,sngl,resources/DR.BMP,resources/Empty.png,Door1,-0.332138499,-0.026448369,1,0,0,0.7395,optionLeft,30,12820,6,22,0,22,0,1,,,,,,,,,,,,,,,,,,,,,,,,,,,,,,,,,,,,,,,
,,,,,,,,2023-08-16_08h41.06.961,HF_wild_card,2022.2.4,Linux x86_64,59.99880002,64072991baa43f8196e81f29,64d2fd46c836a06233681665,64dc7d78b34157f6897326c4,,,,,,,sngl,resources/DY.BMP,resources/Empty.png,WildCard_NonEx,-0.325066368,-0.015869021,1,0,0,0.8351,optionLeft,45,12865,6,23,0,23,0,1,,,,,,,,,,,,,,,,,,,,,,,,,,,,,,,,,,,,,,,
,,,,,,,,2023-08-16_08h41.06.961,HF_wild_card,2022.2.4,Linux x86_64,59.99880002,64072991baa43f8196e81f29,64d2fd46c836a06233681665,64dc7d78b34157f6897326c4,,,,,,,ctch,resources/DBN.BMP,resources/DR.BMP,Door4,-0.380128105,0.001763225,1,0,0,0.9601,optionLeft,60,12925,6,24,0,24,0,1,,,,,,,,,,,,,,,,,,,,,,,,,,,,,,,,,,,,,,,
,,,,,,,,2023-08-16_08h41.06.961,HF_wild_card,2022.2.4,Linux x86_64,59.99880002,64072991baa43f8196e81f29,64d2fd46c836a06233681665,64dc7d78b34157f6897326c4,,,,,,,sngl,resources/Empty.png,resources/DP.BMP,Door3,0.409427007,-0.02292192,1,0,0,0.7377,optionRight,70,12995,6,25,0,25,0,1,,,,,,,,,,,,,,,,,,,,,,,,,,,,,,,,,,,,,,,
,,,,,,,,2023-08-16_08h41.06.961,HF_wild_card,2022.2.4,Linux x86_64,59.99880002,64072991baa43f8196e81f29,64d2fd46c836a06233681665,64dc7d78b34157f6897326c4,,,,,,,sngl,resources/DP.BMP,resources/Empty.png,Door3,-0.330117901,-0.000251889,1,0,0,0.7441,optionLeft,70,13065,6,26,0,26,0,1,,,,,,,,,,,,,,,,,,,,,,,,,,,,,,,,,,,,,,,
,,,,,,,,2023-08-16_08h41.06.961,HF_wild_card,2022.2.4,Linux x86_64,59.99880002,64072991baa43f8196e81f29,64d2fd46c836a06233681665,64dc7d78b34157f6897326c4,,,,,,,decisionTrl,resources/DY.BMP,resources/DBN.BMP,Door4,0.396293004,0.031486154,1,0,0,0.8689,optionRight,60,13125,6,27,0,27,0,1,,,,,,,,,,,,,,,,,,,,,,,,,,,,,,,,,,,,,,,
,,,,,,,,2023-08-16_08h41.06.961,HF_wild_card,2022.2.4,Linux x86_64,59.99880002,64072991baa43f8196e81f29,64d2fd46c836a06233681665,64dc7d78b34157f6897326c4,,,,,,,decisionTrl,resources/DR.BMP,resources/DY.BMP,WildCard_NonEx,0.443272273,-0.035516381,1,0,0,1.3304,optionRight,55,13180,6,28,0,28,0,1,,,,,,,,,,,,,,,,,,,,,,,,,,,,,,,,,,,,,,,
,,,,,,,,2023-08-16_08h41.06.961,HF_wild_card,2022.2.4,Linux x86_64,59.99880002,64072991baa43f8196e81f29,64d2fd46c836a06233681665,64dc7d78b34157f6897326c4,,,,,,,decisionTrl,resources/DR.BMP,resources/DG.BMP,Door1,-0.374066234,0.02292192,1,0,0,1.3546,optionLeft,30,13210,6,29,0,29,0,1,,,,,,,,,,,,,,,,,,,,,,,,,,,,,,,,,,,,,,,
,,,,,,,,2023-08-16_08h41.06.961,HF_wild_card,2022.2.4,Linux x86_64,59.99880002,64072991baa43f8196e81f29,64d2fd46c836a06233681665,64dc7d78b34157f6897326c4,,,,,,,decisionTrl,resources/DR.BMP,resources/DG.BMP,Door1,-0.377602339,-0.035516381,1,0,0,0.8721,optionLeft,30,13240,6,30,0,30,0,1,,,,,,,,,,,,,,,,,,,,,,,,,,,,,,,,,,,,,,,
,,,,,,,,2023-08-16_08h41.06.961,HF_wild_card,2022.2.4,Linux x86_64,59.99880002,64072991baa43f8196e81f29,64d2fd46c836a06233681665,64dc7d78b34157f6897326c4,,,,,,,decisionTrl,resources/DP.BMP,resources/DBN.BMP,Door3,-0.375076572,0.02947104,1,0,0,1.3951,optionLeft,70,13310,6,31,0,31,0,1,,,,,,,,,,,,,,,,,,,,,,,,,,,,,,,,,,,,,,,
,,,,,,,,2023-08-16_08h41.06.961,HF_wild_card,2022.2.4,Linux x86_64,59.99880002,64072991baa43f8196e81f29,64d2fd46c836a06233681665,64dc7d78b34157f6897326c4,,,,,,,decisionTrl,resources/DY.BMP,resources/DP.BMP,Door3,0.438220739,-0.005289674,1,0,0,0.8019,optionRight,70,13380,6,32,0,32,0,1,,,,,,,,,,,,,,,,,,,,,,,,,,,,,,,,,,,,,,,
,,,,,,,,2023-08-16_08h41.06.961,HF_wild_card,2022.2.4,Linux x86_64,59.99880002,64072991baa43f8196e81f29,64d2fd46c836a06233681665,64dc7d78b34157f6897326c4,,,,,,,sngl,resources/DY.BMP,resources/Empty.png,WildCard_NonEx,-0.389220874,0.016876578,1,0,0,1.5082,optionLeft,55,13435,6,33,0,33,0,1,,,,,,,,,,,,,,,,,,,,,,,,,,,,,,,,,,,,,,,
,,,,,,,,2023-08-16_08h41.06.961,HF_wild_card,2022.2.4,Linux x86_64,59.99880002,64072991baa43f8196e81f29,64d2fd46c836a06233681665,64dc7d78b34157f6897326c4,,,,,,,sngl,resources/Empty.png,resources/DBN.BMP,Door4,0.43013827,-0.005793452,1,0,0,0.7585,optionRight,80,13515,6,34,0,34,0,1,,,,,,,,,,,,,,,,,,,,,,,,,,,,,,,,,,,,,,,
,,,,,,,,2023-08-16_08h41.06.961,HF_wild_card,2022.2.4,Linux x86_64,59.99880002,64072991baa43f8196e81f29,64d2fd46c836a06233681665,64dc7d78b34157f6897326c4,,,,,,,decisionTrl,resources/DBN.BMP,resources/DP.BMP,Door3,0.395787795,-0.044080615,1,0,0,1.1698,optionRight,70,13585,6,35,0,35,0,1,,,,,,,,,,,,,,,,,,,,,,,,,,,,,,,,,,,,,,,
,,,,,,,,2023-08-16_08h41.06.961,HF_wild_card,2022.2.4,Linux x86_64,59.99880002,64072991baa43f8196e81f29,64d2fd46c836a06233681665,64dc7d78b34157f6897326c4,,,,,,,decisionTrl,resources/DBN.BMP,resources/DP.BMP,Door3,0.433169206,-0.097481132,1,0,0,0.6784,optionRight,70,13655,6,36,0,36,0,1,,,,,,,,,,,,,,,,,,,,,,,,,,,,,,,,,,,,,,,
,,,,,,,,2023-08-16_08h41.06.961,HF_wild_card,2022.2.4,Linux x86_64,59.99880002,64072991baa43f8196e81f29,64d2fd46c836a06233681665,64dc7d78b34157f6897326c4,,,,,,,decisionTrl,resources/DY.BMP,resources/DG.BMP,WildCard_NonEx,-0.375076572,-0.051637292,1,0,0,1.077,optionLeft,55,13710,6,37,0,37,0,1,,,,,,,,,,,,,,,,,,,,,,,,,,,,,,,,,,,,,,,
,,,,,,,,2023-08-16_08h41.06.961,HF_wild_card,2022.2.4,Linux x86_64,59.99880002,64072991baa43f8196e81f29,64d2fd46c836a06233681665,64dc7d78b34157f6897326c4,,,,,,,decisionTrl,resources/DR.BMP,resources/DG.BMP,Door2,0.386189938,0.004282117,1,0,0,1.375,optionRight,20,13730,6,38,0,38,0,1,,,,,,,,,,,,,,,,,,,,,,,,,,,,,,,,,,,,,,,
,,,,,,,,2023-08-16_08h41.06.961,HF_wild_card,2022.2.4,Linux x86_64,59.99880002,64072991baa43f8196e81f29,64d2fd46c836a06233681665,64dc7d78b34157f6897326c4,,,,,,,ctch,resources/DG.BMP,resources/DP.BMP,Door3,0.398818731,-0.061712861,1,0,0,0.7968,optionRight,70,13800,6,39,0,39,0,1,,,,,,,,,,,,,,,,,,,,,,,,,,,,,,,,,,,,,,,
,,,,,,,,2023-08-16_08h41.06.961,HF_wild_card,2022.2.4,Linux x86_64,59.99880002,64072991baa43f8196e81f29,64d2fd46c836a06233681665,64dc7d78b34157f6897326c4,,,,,,,decisionTrl,resources/DR.BMP,resources/DG.BMP,Door1,-0.388715704,0.001763225,1,0,0,1.0258,optionLeft,30,13830,6,40,0,40,0,1,,,,,,,,,,,,,,,,,,,,,,,,,,,,,,,,,,,,,,,
,,,,,,,,2023-08-16_08h41.06.961,HF_wild_card,2022.2.4,Linux x86_64,59.99880002,64072991baa43f8196e81f29,64d2fd46c836a06233681665,64dc7d78b34157f6897326c4,,,,,,,sngl,resources/Empty.png,resources/DG.BMP,Door2,0.429127932,-0.041057944,1,0,0,0.7754,optionRight,40,13870,6,41,0,41,0,1,,,,,,,,,,,,,,,,,,,,,,,,,,,,,,,,,,,,,,,
,,,,,,,,2023-08-16_08h41.06.961,HF_wild_card,2022.2.4,Linux x86_64,59.99880002,64072991baa43f8196e81f29,64d2fd46c836a06233681665,64dc7d78b34157f6897326c4,,,,,,,decisionTrl,resources/DP.BMP,resources/DBN.BMP,Door3,-0.396293004,-0.014357686,1,0,0,1.2702,optionLeft,70,13940,6,42,0,42,0,1,,,,,,,,,,,,,,,,,,,,,,,,,,,,,,,,,,,,,,,
,,,,,,,,2023-08-16_08h41.06.961,HF_wild_card,2022.2.4,Linux x86_64,59.99880002,64072991baa43f8196e81f29,64d2fd46c836a06233681665,64dc7d78b34157f6897326c4,,,,,,,decisionTrl,resources/DBN.BMP,resources/DP.BMP,Door3,0.333148797,0.028967261,1,0,0,0.9464,optionRight,70,14010,6,43,0,43,0,1,,,,,,,,,,,,,,,,,,,,,,,,,,,,,,,,,,,,,,,
,,,,,,,,2023-08-16_08h41.06.961,HF_wild_card,2022.2.4,Linux x86_64,59.99880002,64072991baa43f8196e81f29,64d2fd46c836a06233681665,64dc7d78b34157f6897326c4,,,,,,,,,,,,,,,,,,,,,,,,,,5,0,5,0,1,,,,,,,,,,,,,,,,,,,,,,,,,,,,,,,,,,
,,,,,,,,2023-08-16_08h41.06.961,HF_wild_card,2022.2.4,Linux x86_64,59.99880002,64072991baa43f8196e81f29,64d2fd46c836a06233681665,64dc7d78b34157f6897326c4,,,,,,,decisionTrl,resources/DR.BMP,resources/DG.BMP,Door2,0.304557165,-0.043808897,1,0,0,3.9967,optionRight,20,14030,7,0,0,0,0,1,,,,,,,,,,,,,,,,,,,,,,,,,,,,,,,,,,,,,,,
,,,,,,,,2023-08-16_08h41.06.961,HF_wild_card,2022.2.4,Linux x86_64,59.99880002,64072991baa43f8196e81f29,64d2fd46c836a06233681665,64dc7d78b34157f6897326c4,,,,,,,decisionTrl,resources/DP.BMP,resources/DBN.BMP,Door3,-0.255664428,-0.009081721,1,0,0,2.9307,optionLeft,70,14100,7,1,0,1,0,1,,,,,,,,,,,,,,,,,,,,,,,,,,,,,,,,,,,,,,,
,,,,,,,,2023-08-16_08h41.06.961,HF_wild_card,2022.2.4,Linux x86_64,59.99880002,64072991baa43f8196e81f29,64d2fd46c836a06233681665,64dc7d78b34157f6897326c4,,,,,,,decisionTrl,resources/DR.BMP,resources/DG.BMP,Door1,-0.39174664,-0.063224196,1,0,0,1.696,optionLeft,30,14130,7,2,0,2,0,1,,,,,,,,,,,,,,,,,,,,,,,,,,,,,,,,,,,,,,,
,,,,,,,,2023-08-16_08h41.06.961,HF_wild_card,2022.2.4,Linux x86_64,59.99880002,64072991baa43f8196e81f29,64d2fd46c836a06233681665,64dc7d78b34157f6897326c4,,,,,,,decisionTrl,resources/DBN.BMP,resources/DP.BMP,Door3,0.389726003,-0.067758203,1,0,0,1.1033,optionRight,70,14200,7,3,0,3,0,1,,,,,,,,,,,,,,,,,,,,,,,,,,,,,,,,,,,,,,,
,,,,,,,,2023-08-16_08h41.06.961,HF_wild_card,2022.2.4,Linux x86_64,59.99880002,64072991baa43f8196e81f29,64d2fd46c836a06233681665,64dc7d78b34157f6897326c4,,,,,,,ctch,resources/DBN.BMP,resources/DR.BMP,Door4,-0.340726097,-0.013853908,1,0,0,0.9375,optionLeft,80,14280,7,4,0,4,0,1,,,,,,,,,,,,,,,,,,,,,,,,,,,,,,,,,,,,,,,
,,,,,,,,2023-08-16_08h41.06.961,HF_wild_card,2022.2.4,Linux x86_64,59.99880002,64072991baa43f8196e81f29,64d2fd46c836a06233681665,64dc7d78b34157f6897326c4,,,,,,,decisionTrl,resources/DG.BMP,resources/DR.BMP,Door1,0.3917466,-0.050629735,1,0,0,1.4962,optionRight,30,14310,7,5,0,5,0,1,,,,,,,,,,,,,,,,,,,,,,,,,,,,,,,,,,,,,,,
,,,,,,,,2023-08-16_08h41.06.961,HF_wild_card,2022.2.4,Linux x86_64,59.99880002,64072991baa43f8196e81f29,64d2fd46c836a06233681665,64dc7d78b34157f6897326c4,,,,,,,decisionTrl,resources/DG.BMP,resources/DR.BMP,Door1,0.39225173,-0.021410584,1,0,0,1.4535,optionRight,30,14340,7,6,0,6,0,1,,,,,,,,,,,,,,,,,,,,,,,,,,,,,,,,,,,,,,,
,,,,,,,,2023-08-16_08h41.06.961,HF_wild_card,2022.2.4,Linux x86_64,59.99880002,64072991baa43f8196e81f29,64d2fd46c836a06233681665,64dc7d78b34157f6897326c4,,,,,,,ctch,resources/DG.BMP,resources/DP.BMP,Door3,0.408416669,-0.053148627,1,0,0,0.8619,optionRight,70,14410,7,7,0,7,0,1,,,,,,,,,,,,,,,,,,,,,,,,,,,,,,,,,,,,,,,
,,,,,,,,2023-08-16_08h41.06.961,HF_wild_card,2022.2.4,Linux x86_64,59.99880002,64072991baa43f8196e81f29,64d2fd46c836a06233681665,64dc7d78b34157f6897326c4,,,,,,,decisionTrl,resources/DR.BMP,resources/DG.BMP,Door1,-0.363394817,-0.04361256,1,0,0,4.3076,optionLeft,30,14440,7,8,0,8,0,1,,,,,,,,,,,,,,,,,,,,,,,,,,,,,,,,,,,,,,,
,,,,,,,,2023-08-16_08h41.06.961,HF_wild_card,2022.2.4,Linux x86_64,59.99880002,64072991baa43f8196e81f29,64d2fd46c836a06233681665,64dc7d78b34157f6897326c4,,,,,,,decisionTrl,resources/DBN.BMP,resources/DP.BMP,Door3,0.388715665,-0.063727975,1,0,0,1.439,optionRight,70,14510,7,9,0,9,0,1,,,,,,,,,,,,,,,,,,,,,,,,,,,,,,,,,,,,,,,
,,,,,,,,2023-08-16_08h41.06.961,HF_wild_card,2022.2.4,Linux x86_64,59.99880002,64072991baa43f8196e81f29,64d2fd46c836a06233681665,64dc7d78b34157f6897326c4,,,,,,,ctch,resources/DG.BMP,resources/DP.BMP,Door3,0.395787795,-0.075314879,1,0,0,3.2516,optionRight,70,14580,7,10,0,10,0,1,,,,,,,,,,,,,,,,,,,,,,,,,,,,,,,,,,,,,,,
,,,,,,,,2023-08-16_08h41.06.961,HF_wild_card,2022.2.4,Linux x86_64,59.99880002,64072991baa43f8196e81f29,64d2fd46c836a06233681665,64dc7d78b34157f6897326c4,,,,,,,ctch,resources/DBN.BMP,resources/DR.BMP,Door4,-0.258891225,-0.118136009,1,0,0,1.4838,optionLeft,80,14660,7,11,0,11,0,1,,,,,,,,,,,,,,,,,,,,,,,,,,,,,,,,,,,,,,,
,,,,,,,,2023-08-16_08h41.06.961,HF_wild_card,2022.2.4,Linux x86_64,59.99880002,64072991baa43f8196e81f29,64d2fd46c836a06233681665,64dc7d78b34157f6897326c4,,,,,,,decisionTrl,resources/DR.BMP,resources/DG.BMP,Door1,-0.362015009,-0.07384034,1,0,0,2.7786,optionLeft,30,14690,7,12,0,12,0,1,,,,,,,,,,,,,,,,,,,,,,,,,,,,,,,,,,,,,,,
,,,,,,,,2023-08-16_08h41.06.961,HF_wild_card,2022.2.4,Linux x86_64,59.99880002,64072991baa43f8196e81f29,64d2fd46c836a06233681665,64dc7d78b34157f6897326c4,,,,,,,ctch,resources/DR.BMP,resources/DBN.BMP,Door4,0.358911594,-0.104030212,1,0,0,12.6684,optionRight,60,14750,7,13,0,13,0,1,,,,,,,,,,,,,,,,,,,,,,,,,,,,,,,,,,,,,,,
,,,,,,,,2023-08-16_08h41.06.961,HF_wild_card,2022.2.4,Linux x86_64,59.99880002,64072991baa43f8196e81f29,64d2fd46c836a06233681665,64dc7d78b34157f6897326c4,,,,,,,ctch,resources/DP.BMP,resources/DG.BMP,Door3,-0.327086965,-0.137783368,1,0,0,1.2425,optionLeft,70,14820,7,14,0,14,0,1,,,,,,,,,,,,,,,,,,,,,,,,,,,,,,,,,,,,,,,
,,,,,,,,2023-08-16_08h41.06.961,HF_wild_card,2022.2.4,Linux x86_64,59.99880002,64072991baa43f8196e81f29,64d2fd46c836a06233681665,64dc7d78b34157f6897326c4,,,,,,,decisionTrl,resources/DP.BMP,resources/DBN.BMP,Door4,0.418519735,-0.04559195,1,0,0,1.2539,optionRight,60,14880,7,15,0,15,0,1,,,,,,,,,,,,,,,,,,,,,,,,,,,,,,,,,,,,,,,
,,,,,,,,2023-08-16_08h41.06.961,HF_wild_card,2022.2.4,Linux x86_64,59.99880002,64072991baa43f8196e81f29,64d2fd46c836a06233681665,64dc7d78b34157f6897326c4,,,,,,,decisionTrl,resources/DG.BMP,resources/DR.BMP,Door1,0.379622936,-0.083375335,1,0,0,1.3895,optionRight,30,14910,7,16,0,16,0,1,,,,,,,,,,,,,,,,,,,,,,,,,,,,,,,,,,,,,,,
,,,,,,,,2023-08-16_08h41.06.961,HF_wild_card,2022.2.4,Linux x86_64,59.99880002,64072991baa43f8196e81f29,64d2fd46c836a06233681665,64dc7d78b34157f6897326c4,,,,,,,decisionTrl,resources/DG.BMP,resources/DR.BMP,Door1,0.457669258,-0.098204374,1,0,0,1.9827,optionRight,30,14940,7,17,0,17,0,1,,,,,,,,,,,,,,,,,,,,,,,,,,,,,,,,,,,,,,,
,,,,,,,,2023-08-16_08h41.06.961,HF_wild_card,2022.2.4,Linux x86_64,59.99880002,64072991baa43f8196e81f29,64d2fd46c836a06233681665,64dc7d78b34157f6897326c4,,,,,,,ctch,resources/DR.BMP,resources/DBN.BMP,Door4,0.341736396,-0.04559195,1,0,0,1.4484,optionRight,80,15020,7,18,0,18,0,1,,,,,,,,,,,,,,,,,,,,,,,,,,,,,,,,,,,,,,,
,,,,,,,,2023-08-16_08h41.06.961,HF_wild_card,2022.2.4,Linux x86_64,59.99880002,64072991baa43f8196e81f29,64d2fd46c836a06233681665,64dc7d78b34157f6897326c4,,,,,,,decisionTrl,resources/DBN.BMP,resources/DP.BMP,Door3,0.415488799,-0.078841329,1,0,0,1.6381,optionRight,70,15090,7,19,0,19,0,1,,,,,,,,,,,,,,,,,,,,,,,,,,,,,,,,,,,,,,,
,,,,,,,,2023-08-16_08h41.06.961,HF_wild_card,2022.2.4,Linux x86_64,59.99880002,64072991baa43f8196e81f29,64d2fd46c836a06233681665,64dc7d78b34157f6897326c4,,,,,,,decisionTrl,resources/DG.BMP,resources/DR.BMP,Door1,0.364973466,-0.068261981,1,0,0,1.3727,optionRight,30,15120,7,20,0,20,0,1,,,,,,,,,,,,,,,,,,,,,,,,,,,,,,,,,,,,,,,
,,,,,,,,2023-08-16_08h41.06.961,HF_wild_card,2022.2.4,Linux x86_64,59.99880002,64072991baa43f8196e81f29,64d2fd46c836a06233681665,64dc7d78b34157f6897326c4,,,,,,,ctch,resources/DP.BMP,resources/DG.BMP,Door3,-0.381138404,-0.076826215,1,0,0,1.7142,optionLeft,70,15190,7,21,0,21,0,1,,,,,,,,,,,,,,,,,,,,,,,,,,,,,,,,,,,,,,,
,,,,,,,,2023-08-16_08h41.06.961,HF_wild_card,2022.2.4,Linux x86_64,59.99880002,64072991baa43f8196e81f29,64d2fd46c836a06233681665,64dc7d78b34157f6897326c4,,,,,,,decisionTrl,resources/DP.BMP,resources/DBN.BMP,Door3,-0.326229692,-0.06205376,1,0,0,3.559,optionLeft,70,15260,7,22,0,22,0,1,,,,,,,,,,,,,,,,,,,,,,,,,,,,,,,,,,,,,,,
,,,,,,,,2023-08-16_08h41.06.961,HF_wild_card,2022.2.4,Linux x86_64,59.99880002,64072991baa43f8196e81f29,64d2fd46c836a06233681665,64dc7d78b34157f6897326c4,,,,,,,decisionTrl,resources/DP.BMP,resources/DBN.BMP,Door3,-0.417004307,-0.053652406,1,0,0,1.0888,optionLeft,70,15330,7,23,0,23,0,1,,,,,,,,,,,,,,,,,,,,,,,,,,,,,,,,,,,,,,,
,,,,,,,,2023-08-16_08h41.06.961,HF_wild_card,2022.2.4,Linux x86_64,59.99880002,64072991baa43f8196e81f29,64d2fd46c836a06233681665,64dc7d78b34157f6897326c4,,,,,,,decisionTrl,resources/DBN.BMP,resources/DP.BMP,Door3,0.432664076,-0.135264476,1,0,0,1.3792,optionRight,70,15400,7,24,0,24,0,1,,,,,,,,,,,,,,,,,,,,,,,,,,,,,,,,,,,,,,,
,,,,,,,,2023-08-16_08h41.06.961,HF_wild_card,2022.2.4,Linux x86_64,59.99880002,64072991baa43f8196e81f29,64d2fd46c836a06233681665,64dc7d78b34157f6897326c4,,,,,,,ctch,resources/DP.BMP,resources/DG.BMP,Door3,-0.354365269,-0.101007581,1,0,0,1.9712,optionLeft,70,15470,7,25,0,25,0,1,,,,,,,,,,,,,,,,,,,,,,,,,,,,,,,,,,,,,,,
,,,,,,,,2023-08-16_08h41.06.961,HF_wild_card,2022.2.4,Linux x86_64,59.99880002,64072991baa43f8196e81f29,64d2fd46c836a06233681665,64dc7d78b34157f6897326c4,,,,,,,decisionTrl,resources/DBN.BMP,resources/DP.BMP,Door3,0.396293004,-0.023425698,1,0,0,1.9094,optionRight,70,15540,7,26,0,26,0,1,,,,,,,,,,,,,,,,,,,,,,,,,,,,,,,,,,,,,,,
,,,,,,,,2023-08-16_08h41.06.961,HF_wild_card,2022.2.4,Linux x86_64,59.99880002,64072991baa43f8196e81f29,64d2fd46c836a06233681665,64dc7d78b34157f6897326c4,,,,,,,decisionTrl,resources/DR.BMP,resources/DG.BMP,Door1,-0.429128011,-0.038035274,1,0,0,1.2383,optionLeft,30,15570,7,27,0,27,0,1,,,,,,,,,,,,,,,,,,,,,,,,,,,,,,,,,,,,,,,
,,,,,,,,2023-08-16_08h41.06.961,HF_wild_card,2022.2.4,Linux x86_64,59.99880002,64072991baa43f8196e81f29,64d2fd46c836a06233681665,64dc7d78b34157f6897326c4,,,,,,,decisionTrl,resources/DG.BMP,resources/DR.BMP,Door1,0.374066194,-0.073299766,1,0,0,1.0304,optionRight,30,15600,7,28,0,28,0,1,,,,,,,,,,,,,,,,,,,,,,,,,,,,,,,,,,,,,,,
,,,,,,,,2023-08-16_08h41.06.961,HF_wild_card,2022.2.4,Linux x86_64,59.99880002,64072991baa43f8196e81f29,64d2fd46c836a06233681665,64dc7d78b34157f6897326c4,,,,,,,ctch,resources/DR.BMP,resources/DBN.BMP,Door4,0.388715665,-0.084382892,1,0,0,1.0412,optionRight,80,15680,7,29,0,29,0,1,,,,,,,,,,,,,,,,,,,,,,,,,,,,,,,,,,,,,,,
,,,,,,,,2023-08-16_08h41.06.961,HF_wild_card,2022.2.4,Linux x86_64,59.99880002,64072991baa43f8196e81f29,64d2fd46c836a06233681665,64dc7d78b34157f6897326c4,,,,,,,decisionTrl,resources/DBN.BMP,resources/DP.BMP,Door3,0.427612543,-0.087909341,1,0,0,1.0159,optionRight,70,15750,7,30,0,30,0,1,,,,,,,,,,,,,,,,,,,,,,,,,,,,,,,,,,,,,,,
,,,,,,,,2023-08-16_08h41.06.961,HF_wild_card,2022.2.4,Linux x86_64,59.99880002,64072991baa43f8196e81f29,64d2fd46c836a06233681665,64dc7d78b34157f6897326c4,,,,,,,ctch,resources/DG.BMP,resources/DP.BMP,Door3,0.389726003,-0.047607064,1,0,0,1.1145,optionRight,70,15820,7,31,0,31,0,1,,,,,,,,,,,,,,,,,,,,,,,,,,,,,,,,,,,,,,,
,,,,,,,,2023-08-16_08h41.06.961,HF_wild_card,2022.2.4,Linux x86_64,59.99880002,64072991baa43f8196e81f29,64d2fd46c836a06233681665,64dc7d78b34157f6897326c4,,,,,,,decisionTrl,resources/DR.BMP,resources/DG.BMP,Door1,-0.359921932,-0.045088172,1,0,0,1.4835,optionLeft,30,15850,7,32,0,32,0,1,,,,,,,,,,,,,,,,,,,,,,,,,,,,,,,,,,,,,,,
,,,,,,,,2023-08-16_08h41.06.961,HF_wild_card,2022.2.4,Linux x86_64,59.99880002,64072991baa43f8196e81f29,64d2fd46c836a06233681665,64dc7d78b34157f6897326c4,,,,,,,decisionTrl,resources/DP.BMP,resources/DBN.BMP,Door3,-0.326076667,-0.061209083,1,0,0,1.2478,optionLeft,70,15920,7,33,0,33,0,1,,,,,,,,,,,,,,,,,,,,,,,,,,,,,,,,,,,,,,,
,,,,,,,,2023-08-16_08h41.06.961,HF_wild_card,2022.2.4,Linux x86_64,59.99880002,64072991baa43f8196e81f29,64d2fd46c836a06233681665,64dc7d78b34157f6897326c4,,,,,,,decisionTrl,resources/DP.BMP,resources/DBN.BMP,Door3,-0.376086871,-0.085894227,1,0,0,1.0046,optionLeft,70,15990,7,34,0,34,0,1,,,,,,,,,,,,,,,,,,,,,,,,,,,,,,,,,,,,,,,
,,,,,,,,2023-08-16_08h41.06.961,HF_wild_card,2022.2.4,Linux x86_64,59.99880002,64072991baa43f8196e81f29,64d2fd46c836a06233681665,64dc7d78b34157f6897326c4,,,,,,,ctch,resources/DBN.BMP,resources/DR.BMP,Door4,-0.326076667,-0.064735532,1,0,0,0.9302,optionLeft,80,16070,7,35,0,35,0,1,,,,,,,,,,,,,,,,,,,,,,,,,,,,,,,,,,,,,,,
