Condition,Low fixed image (Door1),Low risky image (Door2),High fixed image (Door3),High risky image (Door4),Extreme Wild Card,NonExtreme Wild Card,,date,expName,psychopyVersion,OS,frameRate,PROLIFIC_PID,STUDY_ID,SESSION_ID,mouse_2.x,mouse_2.y,mouse_2.leftButton,mouse_2.midButton,mouse_2.rightButton,mouse_2.clicked_name,Trial Type,Left Option Image,Right Option Image,Chosen Door,mouse.x,mouse.y,mouse.leftButton,mouse.midButton,mouse.rightButton,mouse.time,mouse.clicked_name,Feedback,Cumulative Reward,Block,trial.thisRepN,trial.thisTrialN,trial.thisN,trial.thisIndex,trial.ran,blocks.thisRepN,blocks.thisTrialN,blocks.thisN,blocks.thisIndex,blocks.ran,Money conversion,First Outcome Reported,Shown Door (First Outcome),Displayed Image (First Outcome),outcomes.thisRepN,outcomes.thisTrialN,outcomes.thisN,outcomes.thisIndex,outcomes.ran,judgments.thisRepN,judgments.thisTrialN,judgments.thisN,judgments.thisIndex,judgments.ran,freqMouse.x,freqMouse.y,freqMouse.leftButton,freqMouse.midButton,freqMouse.rightButton,freqMouse.clicked_name,FQJ for first outcome,FQJ for second outcome,Shown Door,Displayed Image,trials.thisRepN,trials.thisTrialN,trials.thisN,trials.thisIndex,trials.ran,judgBlock.thisRepN,judgBlock.thisTrialN,judgBlock.thisN,judgBlock.thisIndex,judgBlock.ran
0,resources/DY.BMP,resources/DR.BMP,resources/DB.BMP,resources/DP.BMP,resources/DG.BMP,resources/DBN.BMP,,2023-08-16_08h37.46.745,HF_wild_card,2022.2.4,Win32,59.97720866,60d4e8fcdb1959ca6fd4dfdd,64d2fd46c836a06233681665,64dc7c96321d9c6c9ffbb64f,,,,,,,,,,,,,,,,,,,,,,,,,,,,,,,,,,,,,,,,,,,,,,,,,,,,,,,,,,,,,,,,
,,,,,,,,2023-08-16_08h37.46.745,HF_wild_card,2022.2.4,Win32,59.97720866,60d4e8fcdb1959ca6fd4dfdd,64d2fd46c836a06233681665,64dc7c96321d9c6c9ffbb64f,-0.012962963,-0.418518519,1,0,0,agree,,,,,,,,,,,,,,,,,,,,,,,,,,,,,,,,,,,,,,,,,,,,,,,,,,,,,,,,,,
,,,,,,,,2023-08-16_08h37.46.745,HF_wild_card,2022.2.4,Win32,59.97720866,60d4e8fcdb1959ca6fd4dfdd,64d2fd46c836a06233681665,64dc7c96321d9c6c9ffbb64f,,,,,,,,,,,,,,,,,,,,,,,,,,,,,,,,,,,,,,,,,,,,,,,,,,,,,,,,,,,,,,,,
,,,,,,,,2023-08-16_08h37.46.745,HF_wild_card,2022.2.4,Win32,59.97720866,60d4e8fcdb1959ca6fd4dfdd,64d2fd46c836a06233681665,64dc7c96321d9c6c9ffbb64f,,,,,,,decisionTrl,resources/DB.BMP,resources/DP.BMP,Door4,0.348148148,-0.150925926,1,0,0,7.8045,optionRight,60,60,1,0,0,0,0,1,,,,,,,,,,,,,,,,,,,,,,,,,,,,,,,,,,,,,,,
,,,,,,,,2023-08-16_08h37.46.745,HF_wild_card,2022.2.4,Win32,59.97720866,60d4e8fcdb1959ca6fd4dfdd,64d2fd46c836a06233681665,64dc7c96321d9c6c9ffbb64f,,,,,,,decisionTrl,resources/DR.BMP,resources/DG.BMP,Door2,-0.398148148,-0.032407407,1,0,0,4.7755,optionLeft,20,80,1,1,0,1,0,1,,,,,,,,,,,,,,,,,,,,,,,,,,,,,,,,,,,,,,,
,,,,,,,,2023-08-16_08h37.46.745,HF_wild_card,2022.2.4,Win32,59.97720866,60d4e8fcdb1959ca6fd4dfdd,64d2fd46c836a06233681665,64dc7c96321d9c6c9ffbb64f,,,,,,,sngl,resources/Empty.png,resources/DY.BMP,Door1,0.361111111,-0.036111111,1,0,0,1.6738,optionRight,30,110,1,2,0,2,0,1,,,,,,,,,,,,,,,,,,,,,,,,,,,,,,,,,,,,,,,
,,,,,,,,2023-08-16_08h37.46.745,HF_wild_card,2022.2.4,Win32,59.97720866,60d4e8fcdb1959ca6fd4dfdd,64d2fd46c836a06233681665,64dc7c96321d9c6c9ffbb64f,,,,,,,ctch,resources/DP.BMP,resources/DY.BMP,Door1,0.364814815,-0.046296296,1,0,0,5.5151,optionRight,30,140,1,3,0,3,0,1,,,,,,,,,,,,,,,,,,,,,,,,,,,,,,,,,,,,,,,
,,,,,,,,2023-08-16_08h37.46.745,HF_wild_card,2022.2.4,Win32,59.97720866,60d4e8fcdb1959ca6fd4dfdd,64d2fd46c836a06233681665,64dc7c96321d9c6c9ffbb64f,,,,,,,ctch,resources/DB.BMP,resources/DR.BMP,Door3,-0.360185185,-0.066666667,1,0,0,3.0907,optionLeft,70,210,1,4,0,4,0,1,,,,,,,,,,,,,,,,,,,,,,,,,,,,,,,,,,,,,,,
,,,,,,,,2023-08-16_08h37.46.745,HF_wild_card,2022.2.4,Win32,59.97720866,60d4e8fcdb1959ca6fd4dfdd,64d2fd46c836a06233681665,64dc7c96321d9c6c9ffbb64f,,,,,,,sngl,resources/Empty.png,resources/DG.BMP,WildCard_Ex,0.338888889,0.00462963,1,0,0,2.5986,optionRight,95,305,1,5,0,5,0,1,,,,,,,,,,,,,,,,,,,,,,,,,,,,,,,,,,,,,,,
,,,,,,,,2023-08-16_08h37.46.745,HF_wild_card,2022.2.4,Win32,59.97720866,60d4e8fcdb1959ca6fd4dfdd,64d2fd46c836a06233681665,64dc7c96321d9c6c9ffbb64f,,,,,,,decisionTrl,resources/DB.BMP,resources/DP.BMP,Door3,-0.336111111,-0.030555556,1,0,0,1.8311,optionLeft,70,375,1,6,0,6,0,1,,,,,,,,,,,,,,,,,,,,,,,,,,,,,,,,,,,,,,,
,,,,,,,,2023-08-16_08h37.46.745,HF_wild_card,2022.2.4,Win32,59.97720866,60d4e8fcdb1959ca6fd4dfdd,64d2fd46c836a06233681665,64dc7c96321d9c6c9ffbb64f,,,,,,,ctch,resources/DR.BMP,resources/DB.BMP,Door3,0.346296296,0.005555556,1,0,0,1.8481,optionRight,70,445,1,7,0,7,0,1,,,,,,,,,,,,,,,,,,,,,,,,,,,,,,,,,,,,,,,
,,,,,,,,2023-08-16_08h37.46.745,HF_wild_card,2022.2.4,Win32,59.97720866,60d4e8fcdb1959ca6fd4dfdd,64d2fd46c836a06233681665,64dc7c96321d9c6c9ffbb64f,,,,,,,decisionTrl,resources/DB.BMP,resources/DP.BMP,Door3,-0.3,-0.061111111,1,0,0,2.5817,optionLeft,70,515,1,8,0,8,0,1,,,,,,,,,,,,,,,,,,,,,,,,,,,,,,,,,,,,,,,
,,,,,,,,2023-08-16_08h37.46.745,HF_wild_card,2022.2.4,Win32,59.97720866,60d4e8fcdb1959ca6fd4dfdd,64d2fd46c836a06233681665,64dc7c96321d9c6c9ffbb64f,,,,,,,sngl,resources/DG.BMP,resources/Empty.png,WildCard_Ex,-0.278703704,-0.021296296,1,0,0,1.5147,optionLeft,95,610,1,9,0,9,0,1,,,,,,,,,,,,,,,,,,,,,,,,,,,,,,,,,,,,,,,
,,,,,,,,2023-08-16_08h37.46.745,HF_wild_card,2022.2.4,Win32,59.97720866,60d4e8fcdb1959ca6fd4dfdd,64d2fd46c836a06233681665,64dc7c96321d9c6c9ffbb64f,,,,,,,ctch,resources/DR.BMP,resources/DB.BMP,Door2,-0.276851852,-0.002777778,1,0,0,3.181,optionLeft,20,630,1,10,0,10,0,1,,,,,,,,,,,,,,,,,,,,,,,,,,,,,,,,,,,,,,,
,,,,,,,,2023-08-16_08h37.46.745,HF_wild_card,2022.2.4,Win32,59.97720866,60d4e8fcdb1959ca6fd4dfdd,64d2fd46c836a06233681665,64dc7c96321d9c6c9ffbb64f,,,,,,,sngl,resources/Empty.png,resources/DP.BMP,Door4,0.341666667,-0.024074074,1,0,0,1.614,optionRight,60,690,1,11,0,11,0,1,,,,,,,,,,,,,,,,,,,,,,,,,,,,,,,,,,,,,,,
,,,,,,,,2023-08-16_08h37.46.745,HF_wild_card,2022.2.4,Win32,59.97720866,60d4e8fcdb1959ca6fd4dfdd,64d2fd46c836a06233681665,64dc7c96321d9c6c9ffbb64f,,,,,,,decisionTrl,resources/DR.BMP,resources/DY.BMP,Door1,0.32037037,-0.007407407,1,0,0,3.782,optionRight,30,720,1,12,0,12,0,1,,,,,,,,,,,,,,,,,,,,,,,,,,,,,,,,,,,,,,,
,,,,,,,,2023-08-16_08h37.46.745,HF_wild_card,2022.2.4,Win32,59.97720866,60d4e8fcdb1959ca6fd4dfdd,64d2fd46c836a06233681665,64dc7c96321d9c6c9ffbb64f,,,,,,,decisionTrl,resources/DG.BMP,resources/DP.BMP,WildCard_Ex,-0.337037037,-0.000925926,1,0,0,1.9814,optionLeft,5,725,1,13,0,13,0,1,,,,,,,,,,,,,,,,,,,,,,,,,,,,,,,,,,,,,,,
,,,,,,,,2023-08-16_08h37.46.745,HF_wild_card,2022.2.4,Win32,59.97720866,60d4e8fcdb1959ca6fd4dfdd,64d2fd46c836a06233681665,64dc7c96321d9c6c9ffbb64f,,,,,,,decisionTrl,resources/DY.BMP,resources/DR.BMP,Door1,-0.325925926,0.00462963,1,0,0,2.0073,optionLeft,30,755,1,14,0,14,0,1,,,,,,,,,,,,,,,,,,,,,,,,,,,,,,,,,,,,,,,
,,,,,,,,2023-08-16_08h37.46.745,HF_wild_card,2022.2.4,Win32,59.97720866,60d4e8fcdb1959ca6fd4dfdd,64d2fd46c836a06233681665,64dc7c96321d9c6c9ffbb64f,,,,,,,decisionTrl,resources/DR.BMP,resources/DY.BMP,Door2,-0.384259259,0.009259259,1,0,0,1.8648,optionLeft,40,795,1,15,0,15,0,1,,,,,,,,,,,,,,,,,,,,,,,,,,,,,,,,,,,,,,,
,,,,,,,,2023-08-16_08h37.46.745,HF_wild_card,2022.2.4,Win32,59.97720866,60d4e8fcdb1959ca6fd4dfdd,64d2fd46c836a06233681665,64dc7c96321d9c6c9ffbb64f,,,,,,,decisionTrl,resources/DR.BMP,resources/DY.BMP,Door2,-0.339814815,0.013888889,1,0,0,2.015,optionLeft,40,835,1,16,0,16,0,1,,,,,,,,,,,,,,,,,,,,,,,,,,,,,,,,,,,,,,,
,,,,,,,,2023-08-16_08h37.46.745,HF_wild_card,2022.2.4,Win32,59.97720866,60d4e8fcdb1959ca6fd4dfdd,64d2fd46c836a06233681665,64dc7c96321d9c6c9ffbb64f,,,,,,,decisionTrl,resources/DG.BMP,resources/DB.BMP,Door3,0.302777778,0.006481481,1,0,0,1.4819,optionRight,70,905,1,17,0,17,0,1,,,,,,,,,,,,,,,,,,,,,,,,,,,,,,,,,,,,,,,
,,,,,,,,2023-08-16_08h37.46.745,HF_wild_card,2022.2.4,Win32,59.97720866,60d4e8fcdb1959ca6fd4dfdd,64d2fd46c836a06233681665,64dc7c96321d9c6c9ffbb64f,,,,,,,decisionTrl,resources/DP.BMP,resources/DG.BMP,WildCard_Ex,0.274074074,-0.009259259,1,0,0,2.8642,optionRight,5,910,1,18,0,18,0,1,,,,,,,,,,,,,,,,,,,,,,,,,,,,,,,,,,,,,,,
,,,,,,,,2023-08-16_08h37.46.745,HF_wild_card,2022.2.4,Win32,59.97720866,60d4e8fcdb1959ca6fd4dfdd,64d2fd46c836a06233681665,64dc7c96321d9c6c9ffbb64f,,,,,,,sngl,resources/Empty.png,resources/DG.BMP,WildCard_Ex,0.369444444,-0.001851852,1,0,0,1.1984,optionRight,5,915,1,19,0,19,0,1,,,,,,,,,,,,,,,,,,,,,,,,,,,,,,,,,,,,,,,
,,,,,,,,2023-08-16_08h37.46.745,HF_wild_card,2022.2.4,Win32,59.97720866,60d4e8fcdb1959ca6fd4dfdd,64d2fd46c836a06233681665,64dc7c96321d9c6c9ffbb64f,,,,,,,ctch,resources/DB.BMP,resources/DR.BMP,Door3,-0.373148148,-0.001851852,1,0,0,1.3643,optionLeft,70,985,1,20,0,20,0,1,,,,,,,,,,,,,,,,,,,,,,,,,,,,,,,,,,,,,,,
,,,,,,,,2023-08-16_08h37.46.745,HF_wild_card,2022.2.4,Win32,59.97720866,60d4e8fcdb1959ca6fd4dfdd,64d2fd46c836a06233681665,64dc7c96321d9c6c9ffbb64f,,,,,,,ctch,resources/DY.BMP,resources/DP.BMP,Door4,0.301851852,0.012037037,1,0,0,5.0984,optionRight,80,1065,1,21,0,21,0,1,,,,,,,,,,,,,,,,,,,,,,,,,,,,,,,,,,,,,,,
,,,,,,,,2023-08-16_08h37.46.745,HF_wild_card,2022.2.4,Win32,59.97720866,60d4e8fcdb1959ca6fd4dfdd,64d2fd46c836a06233681665,64dc7c96321d9c6c9ffbb64f,,,,,,,decisionTrl,resources/DP.BMP,resources/DB.BMP,Door4,-0.347222222,0.000925926,1,0,0,2.2984,optionLeft,80,1145,1,22,0,22,0,1,,,,,,,,,,,,,,,,,,,,,,,,,,,,,,,,,,,,,,,
,,,,,,,,2023-08-16_08h37.46.745,HF_wild_card,2022.2.4,Win32,59.97720866,60d4e8fcdb1959ca6fd4dfdd,64d2fd46c836a06233681665,64dc7c96321d9c6c9ffbb64f,,,,,,,decisionTrl,resources/DR.BMP,resources/DY.BMP,Door1,0.381481481,-0.008333333,1,0,0,2.2146,optionRight,30,1175,1,23,0,23,0,1,,,,,,,,,,,,,,,,,,,,,,,,,,,,,,,,,,,,,,,
,,,,,,,,2023-08-16_08h37.46.745,HF_wild_card,2022.2.4,Win32,59.97720866,60d4e8fcdb1959ca6fd4dfdd,64d2fd46c836a06233681665,64dc7c96321d9c6c9ffbb64f,,,,,,,sngl,resources/DY.BMP,resources/Empty.png,Door1,-0.346296296,0.012962963,1,0,0,1.0149,optionLeft,30,1205,1,24,0,24,0,1,,,,,,,,,,,,,,,,,,,,,,,,,,,,,,,,,,,,,,,
,,,,,,,,2023-08-16_08h37.46.745,HF_wild_card,2022.2.4,Win32,59.97720866,60d4e8fcdb1959ca6fd4dfdd,64d2fd46c836a06233681665,64dc7c96321d9c6c9ffbb64f,,,,,,,sngl,resources/Empty.png,resources/DR.BMP,Door2,0.282407407,-0.011111111,1,0,0,1.3817,optionRight,20,1225,1,25,0,25,0,1,,,,,,,,,,,,,,,,,,,,,,,,,,,,,,,,,,,,,,,
,,,,,,,,2023-08-16_08h37.46.745,HF_wild_card,2022.2.4,Win32,59.97720866,60d4e8fcdb1959ca6fd4dfdd,64d2fd46c836a06233681665,64dc7c96321d9c6c9ffbb64f,,,,,,,decisionTrl,resources/DY.BMP,resources/DR.BMP,Door1,-0.377777778,0.008333333,1,0,0,1.898,optionLeft,30,1255,1,26,0,26,0,1,,,,,,,,,,,,,,,,,,,,,,,,,,,,,,,,,,,,,,,
,,,,,,,,2023-08-16_08h37.46.745,HF_wild_card,2022.2.4,Win32,59.97720866,60d4e8fcdb1959ca6fd4dfdd,64d2fd46c836a06233681665,64dc7c96321d9c6c9ffbb64f,,,,,,,decisionTrl,resources/DP.BMP,resources/DB.BMP,Door4,-0.347222222,0.011111111,1,0,0,2.0587,optionLeft,80,1335,1,27,0,27,0,1,,,,,,,,,,,,,,,,,,,,,,,,,,,,,,,,,,,,,,,
,,,,,,,,2023-08-16_08h37.46.745,HF_wild_card,2022.2.4,Win32,59.97720866,60d4e8fcdb1959ca6fd4dfdd,64d2fd46c836a06233681665,64dc7c96321d9c6c9ffbb64f,,,,,,,sngl,resources/DG.BMP,resources/Empty.png,WildCard_Ex,-0.289814815,0.008333333,1,0,0,1.165,optionLeft,5,1340,1,28,0,28,0,1,,,,,,,,,,,,,,,,,,,,,,,,,,,,,,,,,,,,,,,
,,,,,,,,2023-08-16_08h37.46.745,HF_wild_card,2022.2.4,Win32,59.97720866,60d4e8fcdb1959ca6fd4dfdd,64d2fd46c836a06233681665,64dc7c96321d9c6c9ffbb64f,,,,,,,ctch,resources/DY.BMP,resources/DP.BMP,Door4,0.292592593,0.006481481,1,0,0,2.7979,optionRight,80,1420,1,29,0,29,0,1,,,,,,,,,,,,,,,,,,,,,,,,,,,,,,,,,,,,,,,
,,,,,,,,2023-08-16_08h37.46.745,HF_wild_card,2022.2.4,Win32,59.97720866,60d4e8fcdb1959ca6fd4dfdd,64d2fd46c836a06233681665,64dc7c96321d9c6c9ffbb64f,,,,,,,decisionTrl,resources/DP.BMP,resources/DB.BMP,Door4,-0.37037037,0.001851852,1,0,0,1.4307,optionLeft,80,1500,1,30,0,30,0,1,,,,,,,,,,,,,,,,,,,,,,,,,,,,,,,,,,,,,,,
,,,,,,,,2023-08-16_08h37.46.745,HF_wild_card,2022.2.4,Win32,59.97720866,60d4e8fcdb1959ca6fd4dfdd,64d2fd46c836a06233681665,64dc7c96321d9c6c9ffbb64f,,,,,,,sngl,resources/DB.BMP,resources/Empty.png,Door3,-0.351851852,-0.005555556,1,0,0,1.215,optionLeft,70,1570,1,31,0,31,0,1,,,,,,,,,,,,,,,,,,,,,,,,,,,,,,,,,,,,,,,
,,,,,,,,2023-08-16_08h37.46.745,HF_wild_card,2022.2.4,Win32,59.97720866,60d4e8fcdb1959ca6fd4dfdd,64d2fd46c836a06233681665,64dc7c96321d9c6c9ffbb64f,,,,,,,decisionTrl,resources/DY.BMP,resources/DR.BMP,Door1,-0.327777778,0.011111111,1,0,0,3.1481,optionLeft,30,1600,1,32,0,32,0,1,,,,,,,,,,,,,,,,,,,,,,,,,,,,,,,,,,,,,,,
,,,,,,,,2023-08-16_08h37.46.745,HF_wild_card,2022.2.4,Win32,59.97720866,60d4e8fcdb1959ca6fd4dfdd,64d2fd46c836a06233681665,64dc7c96321d9c6c9ffbb64f,,,,,,,decisionTrl,resources/DY.BMP,resources/DR.BMP,Door2,0.277777778,0.007407407,1,0,0,1.2989,optionRight,40,1640,1,33,0,33,0,1,,,,,,,,,,,,,,,,,,,,,,,,,,,,,,,,,,,,,,,
,,,,,,,,2023-08-16_08h37.46.745,HF_wild_card,2022.2.4,Win32,59.97720866,60d4e8fcdb1959ca6fd4dfdd,64d2fd46c836a06233681665,64dc7c96321d9c6c9ffbb64f,,,,,,,sngl,resources/DR.BMP,resources/Empty.png,Door2,-0.332407407,-0.009259259,1,0,0,1.0806,optionLeft,40,1680,1,34,0,34,0,1,,,,,,,,,,,,,,,,,,,,,,,,,,,,,,,,,,,,,,,
,,,,,,,,2023-08-16_08h37.46.745,HF_wild_card,2022.2.4,Win32,59.97720866,60d4e8fcdb1959ca6fd4dfdd,64d2fd46c836a06233681665,64dc7c96321d9c6c9ffbb64f,,,,,,,sngl,resources/DP.BMP,resources/Empty.png,Door4,-0.37037037,-0.002777778,1,0,0,1.0483,optionLeft,80,1760,1,35,0,35,0,1,,,,,,,,,,,,,,,,,,,,,,,,,,,,,,,,,,,,,,,
,,,,,,,,2023-08-16_08h37.46.745,HF_wild_card,2022.2.4,Win32,59.97720866,60d4e8fcdb1959ca6fd4dfdd,64d2fd46c836a06233681665,64dc7c96321d9c6c9ffbb64f,,,,,,,decisionTrl,resources/DB.BMP,resources/DG.BMP,Door3,-0.358333333,-0.000925926,1,0,0,2.482,optionLeft,70,1830,1,36,0,36,0,1,,,,,,,,,,,,,,,,,,,,,,,,,,,,,,,,,,,,,,,
,,,,,,,,2023-08-16_08h37.46.745,HF_wild_card,2022.2.4,Win32,59.97720866,60d4e8fcdb1959ca6fd4dfdd,64d2fd46c836a06233681665,64dc7c96321d9c6c9ffbb64f,,,,,,,decisionTrl,resources/DP.BMP,resources/DB.BMP,Door4,-0.32037037,0.000925926,1,0,0,1.7483,optionLeft,80,1910,1,37,0,37,0,1,,,,,,,,,,,,,,,,,,,,,,,,,,,,,,,,,,,,,,,
,,,,,,,,2023-08-16_08h37.46.745,HF_wild_card,2022.2.4,Win32,59.97720866,60d4e8fcdb1959ca6fd4dfdd,64d2fd46c836a06233681665,64dc7c96321d9c6c9ffbb64f,,,,,,,sngl,resources/Empty.png,resources/DB.BMP,Door3,0.383333333,0.001851852,1,0,0,1.3649,optionRight,70,1980,1,38,0,38,0,1,,,,,,,,,,,,,,,,,,,,,,,,,,,,,,,,,,,,,,,
,,,,,,,,2023-08-16_08h37.46.745,HF_wild_card,2022.2.4,Win32,59.97720866,60d4e8fcdb1959ca6fd4dfdd,64d2fd46c836a06233681665,64dc7c96321d9c6c9ffbb64f,,,,,,,decisionTrl,resources/DG.BMP,resources/DR.BMP,WildCard_Ex,-0.35462963,0.017592593,1,0,0,2.8818,optionLeft,95,2075,1,39,0,39,0,1,,,,,,,,,,,,,,,,,,,,,,,,,,,,,,,,,,,,,,,
,,,,,,,,2023-08-16_08h37.46.745,HF_wild_card,2022.2.4,Win32,59.97720866,60d4e8fcdb1959ca6fd4dfdd,64d2fd46c836a06233681665,64dc7c96321d9c6c9ffbb64f,,,,,,,decisionTrl,resources/DY.BMP,resources/DG.BMP,WildCard_Ex,0.337962963,0.026851852,1,0,0,1.0146,optionRight,5,2080,1,40,0,40,0,1,,,,,,,,,,,,,,,,,,,,,,,,,,,,,,,,,,,,,,,
,,,,,,,,2023-08-16_08h37.46.745,HF_wild_card,2022.2.4,Win32,59.97720866,60d4e8fcdb1959ca6fd4dfdd,64d2fd46c836a06233681665,64dc7c96321d9c6c9ffbb64f,,,,,,,ctch,resources/DP.BMP,resources/DY.BMP,Door4,-0.382407407,0.010185185,1,0,0,1.5483,optionLeft,80,2160,1,41,0,41,0,1,,,,,,,,,,,,,,,,,,,,,,,,,,,,,,,,,,,,,,,
,,,,,,,,2023-08-16_08h37.46.745,HF_wild_card,2022.2.4,Win32,59.97720866,60d4e8fcdb1959ca6fd4dfdd,64d2fd46c836a06233681665,64dc7c96321d9c6c9ffbb64f,,,,,,,decisionTrl,resources/DB.BMP,resources/DP.BMP,Door3,-0.318518519,0.010185185,1,0,0,1.5311,optionLeft,70,2230,1,42,0,42,0,1,,,,,,,,,,,,,,,,,,,,,,,,,,,,,,,,,,,,,,,
,,,,,,,,2023-08-16_08h37.46.745,HF_wild_card,2022.2.4,Win32,59.97720866,60d4e8fcdb1959ca6fd4dfdd,64d2fd46c836a06233681665,64dc7c96321d9c6c9ffbb64f,,,,,,,decisionTrl,resources/DG.BMP,resources/DY.BMP,WildCard_Ex,-0.336111111,0.005555556,1,0,0,1.6811,optionLeft,5,2235,1,43,0,43,0,1,,,,,,,,,,,,,,,,,,,,,,,,,,,,,,,,,,,,,,,
,,,,,,,,2023-08-16_08h37.46.745,HF_wild_card,2022.2.4,Win32,59.97720866,60d4e8fcdb1959ca6fd4dfdd,64d2fd46c836a06233681665,64dc7c96321d9c6c9ffbb64f,,,,,,,,,,,,,,,,,,,,,,,,,,0,0,0,0,1,,,,,,,,,,,,,,,,,,,,,,,,,,,,,,,,,,
,,,,,,,,2023-08-16_08h37.46.745,HF_wild_card,2022.2.4,Win32,59.97720866,60d4e8fcdb1959ca6fd4dfdd,64d2fd46c836a06233681665,64dc7c96321d9c6c9ffbb64f,,,,,,,sngl,resources/Empty.png,resources/DG.BMP,WildCard_Ex,0.413888889,-0.077777778,1,0,0,1.073,optionRight,95,2330,2,0,0,0,0,1,,,,,,,,,,,,,,,,,,,,,,,,,,,,,,,,,,,,,,,
,,,,,,,,2023-08-16_08h37.46.745,HF_wild_card,2022.2.4,Win32,59.97720866,60d4e8fcdb1959ca6fd4dfdd,64d2fd46c836a06233681665,64dc7c96321d9c6c9ffbb64f,,,,,,,ctch,resources/DR.BMP,resources/DB.BMP,Door3,0.403703704,0.012037037,1,0,0,1.8746,optionRight,70,2400,2,1,0,1,0,1,,,,,,,,,,,,,,,,,,,,,,,,,,,,,,,,,,,,,,,
,,,,,,,,2023-08-16_08h37.46.745,HF_wild_card,2022.2.4,Win32,59.97720866,60d4e8fcdb1959ca6fd4dfdd,64d2fd46c836a06233681665,64dc7c96321d9c6c9ffbb64f,,,,,,,decisionTrl,resources/DY.BMP,resources/DR.BMP,Door2,0.290740741,0.010185185,1,0,0,1.8748,optionRight,40,2440,2,2,0,2,0,1,,,,,,,,,,,,,,,,,,,,,,,,,,,,,,,,,,,,,,,
,,,,,,,,2023-08-16_08h37.46.745,HF_wild_card,2022.2.4,Win32,59.97720866,60d4e8fcdb1959ca6fd4dfdd,64d2fd46c836a06233681665,64dc7c96321d9c6c9ffbb64f,,,,,,,sngl,resources/DG.BMP,resources/Empty.png,WildCard_Ex,-0.348148148,0.008333333,1,0,0,1.2921,optionLeft,95,2535,2,3,0,3,0,1,,,,,,,,,,,,,,,,,,,,,,,,,,,,,,,,,,,,,,,
,,,,,,,,2023-08-16_08h37.46.745,HF_wild_card,2022.2.4,Win32,59.97720866,60d4e8fcdb1959ca6fd4dfdd,64d2fd46c836a06233681665,64dc7c96321d9c6c9ffbb64f,,,,,,,sngl,resources/DY.BMP,resources/Empty.png,Door1,-0.285185185,0.011111111,1,0,0,1.1917,optionLeft,30,2565,2,4,0,4,0,1,,,,,,,,,,,,,,,,,,,,,,,,,,,,,,,,,,,,,,,
,,,,,,,,2023-08-16_08h37.46.745,HF_wild_card,2022.2.4,Win32,59.97720866,60d4e8fcdb1959ca6fd4dfdd,64d2fd46c836a06233681665,64dc7c96321d9c6c9ffbb64f,,,,,,,decisionTrl,resources/DB.BMP,resources/DP.BMP,Door4,0.353703704,0.003703704,1,0,0,2.1418,optionRight,60,2625,2,5,0,5,0,1,,,,,,,,,,,,,,,,,,,,,,,,,,,,,,,,,,,,,,,
,,,,,,,,2023-08-16_08h37.46.745,HF_wild_card,2022.2.4,Win32,59.97720866,60d4e8fcdb1959ca6fd4dfdd,64d2fd46c836a06233681665,64dc7c96321d9c6c9ffbb64f,,,,,,,decisionTrl,resources/DR.BMP,resources/DY.BMP,Door2,-0.322222222,0.043518519,1,0,0,4.8587,optionLeft,40,2665,2,6,0,6,0,1,,,,,,,,,,,,,,,,,,,,,,,,,,,,,,,,,,,,,,,
,,,,,,,,2023-08-16_08h37.46.745,HF_wild_card,2022.2.4,Win32,59.97720866,60d4e8fcdb1959ca6fd4dfdd,64d2fd46c836a06233681665,64dc7c96321d9c6c9ffbb64f,,,,,,,decisionTrl,resources/DG.BMP,resources/DP.BMP,WildCard_Ex,-0.310185185,0.002777778,1,0,0,5.5149,optionLeft,5,2670,2,7,0,7,0,1,,,,,,,,,,,,,,,,,,,,,,,,,,,,,,,,,,,,,,,
,,,,,,,,2023-08-16_08h37.46.745,HF_wild_card,2022.2.4,Win32,59.97720866,60d4e8fcdb1959ca6fd4dfdd,64d2fd46c836a06233681665,64dc7c96321d9c6c9ffbb64f,,,,,,,decisionTrl,resources/DB.BMP,resources/DG.BMP,Door3,-0.257407407,0.017592593,1,0,0,1.6645,optionLeft,70,2740,2,8,0,8,0,1,,,,,,,,,,,,,,,,,,,,,,,,,,,,,,,,,,,,,,,
,,,,,,,,2023-08-16_08h37.46.745,HF_wild_card,2022.2.4,Win32,59.97720866,60d4e8fcdb1959ca6fd4dfdd,64d2fd46c836a06233681665,64dc7c96321d9c6c9ffbb64f,,,,,,,decisionTrl,resources/DR.BMP,resources/DY.BMP,Door2,-0.342592593,-0.009259259,1,0,0,4.8484,optionLeft,40,2780,2,9,0,9,0,1,,,,,,,,,,,,,,,,,,,,,,,,,,,,,,,,,,,,,,,
,,,,,,,,2023-08-16_08h37.46.745,HF_wild_card,2022.2.4,Win32,59.97720866,60d4e8fcdb1959ca6fd4dfdd,64d2fd46c836a06233681665,64dc7c96321d9c6c9ffbb64f,,,,,,,sngl,resources/DP.BMP,resources/Empty.png,Door4,-0.350925926,0.013888889,1,0,0,1.0649,optionLeft,60,2840,2,10,0,10,0,1,,,,,,,,,,,,,,,,,,,,,,,,,,,,,,,,,,,,,,,
,,,,,,,,2023-08-16_08h37.46.745,HF_wild_card,2022.2.4,Win32,59.97720866,60d4e8fcdb1959ca6fd4dfdd,64d2fd46c836a06233681665,64dc7c96321d9c6c9ffbb64f,,,,,,,sngl,resources/Empty.png,resources/DB.BMP,Door3,0.261111111,0.003703704,1,0,0,0.9317,optionRight,70,2910,2,11,0,11,0,1,,,,,,,,,,,,,,,,,,,,,,,,,,,,,,,,,,,,,,,
,,,,,,,,2023-08-16_08h37.46.745,HF_wild_card,2022.2.4,Win32,59.97720866,60d4e8fcdb1959ca6fd4dfdd,64d2fd46c836a06233681665,64dc7c96321d9c6c9ffbb64f,,,,,,,decisionTrl,resources/DP.BMP,resources/DB.BMP,Door3,0.347222222,0.011111111,1,0,0,6.0814,optionRight,70,2980,2,12,0,12,0,1,,,,,,,,,,,,,,,,,,,,,,,,,,,,,,,,,,,,,,,
,,,,,,,,2023-08-16_08h37.46.745,HF_wild_card,2022.2.4,Win32,59.97720866,60d4e8fcdb1959ca6fd4dfdd,64d2fd46c836a06233681665,64dc7c96321d9c6c9ffbb64f,,,,,,,decisionTrl,resources/DG.BMP,resources/DR.BMP,WildCard_Ex,-0.267592593,-0.005555556,1,0,0,2.3307,optionLeft,5,2985,2,13,0,13,0,1,,,,,,,,,,,,,,,,,,,,,,,,,,,,,,,,,,,,,,,
,,,,,,,,2023-08-16_08h37.46.745,HF_wild_card,2022.2.4,Win32,59.97720866,60d4e8fcdb1959ca6fd4dfdd,64d2fd46c836a06233681665,64dc7c96321d9c6c9ffbb64f,,,,,,,sngl,resources/Empty.png,resources/DP.BMP,Door4,0.32037037,-0.010185185,1,0,0,1.5478,optionRight,80,3065,2,14,0,14,0,1,,,,,,,,,,,,,,,,,,,,,,,,,,,,,,,,,,,,,,,
,,,,,,,,2023-08-16_08h37.46.745,HF_wild_card,2022.2.4,Win32,59.97720866,60d4e8fcdb1959ca6fd4dfdd,64d2fd46c836a06233681665,64dc7c96321d9c6c9ffbb64f,,,,,,,sngl,resources/DR.BMP,resources/Empty.png,Door2,-0.406481481,-0.000925926,1,0,0,1.1481,optionLeft,20,3085,2,15,0,15,0,1,,,,,,,,,,,,,,,,,,,,,,,,,,,,,,,,,,,,,,,
,,,,,,,,2023-08-16_08h37.46.745,HF_wild_card,2022.2.4,Win32,59.97720866,60d4e8fcdb1959ca6fd4dfdd,64d2fd46c836a06233681665,64dc7c96321d9c6c9ffbb64f,,,,,,,ctch,resources/DP.BMP,resources/DY.BMP,Door1,0.398148148,0.012962963,1,0,0,2.1648,optionRight,30,3115,2,16,0,16,0,1,,,,,,,,,,,,,,,,,,,,,,,,,,,,,,,,,,,,,,,
,,,,,,,,2023-08-16_08h37.46.745,HF_wild_card,2022.2.4,Win32,59.97720866,60d4e8fcdb1959ca6fd4dfdd,64d2fd46c836a06233681665,64dc7c96321d9c6c9ffbb64f,,,,,,,decisionTrl,resources/DR.BMP,resources/DY.BMP,Door2,-0.330555556,0.00462963,1,0,0,3.3986,optionLeft,40,3155,2,17,0,17,0,1,,,,,,,,,,,,,,,,,,,,,,,,,,,,,,,,,,,,,,,
,,,,,,,,2023-08-16_08h37.46.745,HF_wild_card,2022.2.4,Win32,59.97720866,60d4e8fcdb1959ca6fd4dfdd,64d2fd46c836a06233681665,64dc7c96321d9c6c9ffbb64f,,,,,,,sngl,resources/Empty.png,resources/DR.BMP,Door2,0.346296296,-0.00462963,1,0,0,1.0646,optionRight,40,3195,2,18,0,18,0,1,,,,,,,,,,,,,,,,,,,,,,,,,,,,,,,,,,,,,,,
,,,,,,,,2023-08-16_08h37.46.745,HF_wild_card,2022.2.4,Win32,59.97720866,60d4e8fcdb1959ca6fd4dfdd,64d2fd46c836a06233681665,64dc7c96321d9c6c9ffbb64f,,,,,,,ctch,resources/DR.BMP,resources/DB.BMP,Door3,0.432407407,-0.001851852,1,0,0,2.5244,optionRight,70,3265,2,19,0,19,0,1,,,,,,,,,,,,,,,,,,,,,,,,,,,,,,,,,,,,,,,
,,,,,,,,2023-08-16_08h37.46.745,HF_wild_card,2022.2.4,Win32,59.97720866,60d4e8fcdb1959ca6fd4dfdd,64d2fd46c836a06233681665,64dc7c96321d9c6c9ffbb64f,,,,,,,decisionTrl,resources/DG.BMP,resources/DY.BMP,WildCard_Ex,-0.382407407,0.017592593,1,0,0,3.4315,optionLeft,5,3270,2,20,0,20,0,1,,,,,,,,,,,,,,,,,,,,,,,,,,,,,,,,,,,,,,,
,,,,,,,,2023-08-16_08h37.46.745,HF_wild_card,2022.2.4,Win32,59.97720866,60d4e8fcdb1959ca6fd4dfdd,64d2fd46c836a06233681665,64dc7c96321d9c6c9ffbb64f,,,,,,,ctch,resources/DY.BMP,resources/DP.BMP,Door4,0.386111111,-0.096296296,1,0,0,4.4916,optionRight,60,3330,2,21,0,21,0,1,,,,,,,,,,,,,,,,,,,,,,,,,,,,,,,,,,,,,,,
,,,,,,,,2023-08-16_08h37.46.745,HF_wild_card,2022.2.4,Win32,59.97720866,60d4e8fcdb1959ca6fd4dfdd,64d2fd46c836a06233681665,64dc7c96321d9c6c9ffbb64f,,,,,,,decisionTrl,resources/DG.BMP,resources/DB.BMP,Door3,0.347222222,-0.005555556,1,0,0,1.3986,optionRight,70,3400,2,22,0,22,0,1,,,,,,,,,,,,,,,,,,,,,,,,,,,,,,,,,,,,,,,
,,,,,,,,2023-08-16_08h37.46.745,HF_wild_card,2022.2.4,Win32,59.97720866,60d4e8fcdb1959ca6fd4dfdd,64d2fd46c836a06233681665,64dc7c96321d9c6c9ffbb64f,,,,,,,decisionTrl,resources/DB.BMP,resources/DP.BMP,Door3,-0.441666667,0.028703704,1,0,0,4.3652,optionLeft,70,3470,2,23,0,23,0,1,,,,,,,,,,,,,,,,,,,,,,,,,,,,,,,,,,,,,,,
,,,,,,,,2023-08-16_08h37.46.745,HF_wild_card,2022.2.4,Win32,59.97720866,60d4e8fcdb1959ca6fd4dfdd,64d2fd46c836a06233681665,64dc7c96321d9c6c9ffbb64f,,,,,,,sngl,resources/Empty.png,resources/DG.BMP,WildCard_Ex,0.351851852,-0.022222222,1,0,0,1.5984,optionRight,5,3475,2,24,0,24,0,1,,,,,,,,,,,,,,,,,,,,,,,,,,,,,,,,,,,,,,,
,,,,,,,,2023-08-16_08h37.46.745,HF_wild_card,2022.2.4,Win32,59.97720866,60d4e8fcdb1959ca6fd4dfdd,64d2fd46c836a06233681665,64dc7c96321d9c6c9ffbb64f,,,,,,,sngl,resources/Empty.png,resources/DY.BMP,Door1,0.333333333,0.013888889,1,0,0,1.4819,optionRight,30,3505,2,25,0,25,0,1,,,,,,,,,,,,,,,,,,,,,,,,,,,,,,,,,,,,,,,
,,,,,,,,2023-08-16_08h37.46.745,HF_wild_card,2022.2.4,Win32,59.97720866,60d4e8fcdb1959ca6fd4dfdd,64d2fd46c836a06233681665,64dc7c96321d9c6c9ffbb64f,,,,,,,decisionTrl,resources/DY.BMP,resources/DR.BMP,Door2,0.45462963,0.034259259,1,0,0,6.1986,optionRight,40,3545,2,26,0,26,0,1,,,,,,,,,,,,,,,,,,,,,,,,,,,,,,,,,,,,,,,
,,,,,,,,2023-08-16_08h37.46.745,HF_wild_card,2022.2.4,Win32,59.97720866,60d4e8fcdb1959ca6fd4dfdd,64d2fd46c836a06233681665,64dc7c96321d9c6c9ffbb64f,,,,,,,decisionTrl,resources/DB.BMP,resources/DP.BMP,Door3,-0.314814815,-0.024074074,1,0,0,1.7321,optionLeft,70,3615,2,27,0,27,0,1,,,,,,,,,,,,,,,,,,,,,,,,,,,,,,,,,,,,,,,
,,,,,,,,2023-08-16_08h37.46.745,HF_wild_card,2022.2.4,Win32,59.97720866,60d4e8fcdb1959ca6fd4dfdd,64d2fd46c836a06233681665,64dc7c96321d9c6c9ffbb64f,,,,,,,decisionTrl,resources/DP.BMP,resources/DB.BMP,Door3,0.391666667,-0.003703704,1,0,0,2.7645,optionRight,70,3685,2,28,0,28,0,1,,,,,,,,,,,,,,,,,,,,,,,,,,,,,,,,,,,,,,,
,,,,,,,,2023-08-16_08h37.46.745,HF_wild_card,2022.2.4,Win32,59.97720866,60d4e8fcdb1959ca6fd4dfdd,64d2fd46c836a06233681665,64dc7c96321d9c6c9ffbb64f,,,,,,,decisionTrl,resources/DP.BMP,resources/DG.BMP,Door4,-0.356481481,-0.006481481,1,0,0,3.5981,optionLeft,80,3765,2,29,0,29,0,1,,,,,,,,,,,,,,,,,,,,,,,,,,,,,,,,,,,,,,,
,,,,,,,,2023-08-16_08h37.46.745,HF_wild_card,2022.2.4,Win32,59.97720866,60d4e8fcdb1959ca6fd4dfdd,64d2fd46c836a06233681665,64dc7c96321d9c6c9ffbb64f,,,,,,,sngl,resources/DG.BMP,resources/Empty.png,WildCard_Ex,-0.298148148,-0.007407407,1,0,0,1.6922,optionLeft,5,3770,2,30,0,30,0,1,,,,,,,,,,,,,,,,,,,,,,,,,,,,,,,,,,,,,,,
,,,,,,,,2023-08-16_08h37.46.745,HF_wild_card,2022.2.4,Win32,59.97720866,60d4e8fcdb1959ca6fd4dfdd,64d2fd46c836a06233681665,64dc7c96321d9c6c9ffbb64f,,,,,,,decisionTrl,resources/DY.BMP,resources/DR.BMP,Door2,0.342592593,-0.012962963,1,0,0,4.0318,optionRight,40,3810,2,31,0,31,0,1,,,,,,,,,,,,,,,,,,,,,,,,,,,,,,,,,,,,,,,
,,,,,,,,2023-08-16_08h37.46.745,HF_wild_card,2022.2.4,Win32,59.97720866,60d4e8fcdb1959ca6fd4dfdd,64d2fd46c836a06233681665,64dc7c96321d9c6c9ffbb64f,,,,,,,decisionTrl,resources/DY.BMP,resources/DG.BMP,Door1,-0.332407407,-0.005555556,1,0,0,2.6818,optionLeft,30,3840,2,32,0,32,0,1,,,,,,,,,,,,,,,,,,,,,,,,,,,,,,,,,,,,,,,
,,,,,,,,2023-08-16_08h37.46.745,HF_wild_card,2022.2.4,Win32,59.97720866,60d4e8fcdb1959ca6fd4dfdd,64d2fd46c836a06233681665,64dc7c96321d9c6c9ffbb64f,,,,,,,decisionTrl,resources/DB.BMP,resources/DP.BMP,Door3,-0.313888889,-0.008333333,1,0,0,2.1653,optionLeft,70,3910,2,33,0,33,0,1,,,,,,,,,,,,,,,,,,,,,,,,,,,,,,,,,,,,,,,
,,,,,,,,2023-08-16_08h37.46.745,HF_wild_card,2022.2.4,Win32,59.97720866,60d4e8fcdb1959ca6fd4dfdd,64d2fd46c836a06233681665,64dc7c96321d9c6c9ffbb64f,,,,,,,decisionTrl,resources/DY.BMP,resources/DR.BMP,Door2,0.3,-0.009259259,1,0,0,2.4649,optionRight,20,3930,2,34,0,34,0,1,,,,,,,,,,,,,,,,,,,,,,,,,,,,,,,,,,,,,,,
,,,,,,,,2023-08-16_08h37.46.745,HF_wild_card,2022.2.4,Win32,59.97720866,60d4e8fcdb1959ca6fd4dfdd,64d2fd46c836a06233681665,64dc7c96321d9c6c9ffbb64f,,,,,,,decisionTrl,resources/DP.BMP,resources/DB.BMP,Door3,0.272222222,0.001851852,1,0,0,2.7918,optionRight,70,4000,2,35,0,35,0,1,,,,,,,,,,,,,,,,,,,,,,,,,,,,,,,,,,,,,,,
,,,,,,,,2023-08-16_08h37.46.745,HF_wild_card,2022.2.4,Win32,59.97720866,60d4e8fcdb1959ca6fd4dfdd,64d2fd46c836a06233681665,64dc7c96321d9c6c9ffbb64f,,,,,,,decisionTrl,resources/DP.BMP,resources/DB.BMP,Door3,0.337962963,-0.00462963,1,0,0,1.4481,optionRight,70,4070,2,36,0,36,0,1,,,,,,,,,,,,,,,,,,,,,,,,,,,,,,,,,,,,,,,
,,,,,,,,2023-08-16_08h37.46.745,HF_wild_card,2022.2.4,Win32,59.97720866,60d4e8fcdb1959ca6fd4dfdd,64d2fd46c836a06233681665,64dc7c96321d9c6c9ffbb64f,,,,,,,decisionTrl,resources/DR.BMP,resources/DY.BMP,Door2,-0.380555556,0.008333333,1,0,0,3.5147,optionLeft,20,4090,2,37,0,37,0,1,,,,,,,,,,,,,,,,,,,,,,,,,,,,,,,,,,,,,,,
,,,,,,,,2023-08-16_08h37.46.745,HF_wild_card,2022.2.4,Win32,59.97720866,60d4e8fcdb1959ca6fd4dfdd,64d2fd46c836a06233681665,64dc7c96321d9c6c9ffbb64f,,,,,,,decisionTrl,resources/DR.BMP,resources/DG.BMP,Door2,-0.363888889,0.002777778,1,0,0,3.9981,optionLeft,20,4110,2,38,0,38,0,1,,,,,,,,,,,,,,,,,,,,,,,,,,,,,,,,,,,,,,,
,,,,,,,,2023-08-16_08h37.46.745,HF_wild_card,2022.2.4,Win32,59.97720866,60d4e8fcdb1959ca6fd4dfdd,64d2fd46c836a06233681665,64dc7c96321d9c6c9ffbb64f,,,,,,,ctch,resources/DP.BMP,resources/DY.BMP,Door4,-0.314814815,-0.001851852,1,0,0,4.4148,optionLeft,60,4170,2,39,0,39,0,1,,,,,,,,,,,,,,,,,,,,,,,,,,,,,,,,,,,,,,,
,,,,,,,,2023-08-16_08h37.46.745,HF_wild_card,2022.2.4,Win32,59.97720866,60d4e8fcdb1959ca6fd4dfdd,64d2fd46c836a06233681665,64dc7c96321d9c6c9ffbb64f,,,,,,,sngl,resources/DB.BMP,resources/Empty.png,Door3,-0.367592593,-0.011111111,1,0,0,1.2649,optionLeft,70,4240,2,40,0,40,0,1,,,,,,,,,,,,,,,,,,,,,,,,,,,,,,,,,,,,,,,
,,,,,,,,2023-08-16_08h37.46.745,HF_wild_card,2022.2.4,Win32,59.97720866,60d4e8fcdb1959ca6fd4dfdd,64d2fd46c836a06233681665,64dc7c96321d9c6c9ffbb64f,,,,,,,ctch,resources/DB.BMP,resources/DR.BMP,Door3,-0.37037037,-0.005555556,1,0,0,1.5648,optionLeft,70,4310,2,41,0,41,0,1,,,,,,,,,,,,,,,,,,,,,,,,,,,,,,,,,,,,,,,
,,,,,,,,2023-08-16_08h37.46.745,HF_wild_card,2022.2.4,Win32,59.97720866,60d4e8fcdb1959ca6fd4dfdd,64d2fd46c836a06233681665,64dc7c96321d9c6c9ffbb64f,,,,,,,ctch,resources/DY.BMP,resources/DP.BMP,Door4,0.364814815,-0.007407407,1,0,0,4.5627,optionRight,60,4370,2,42,0,42,0,1,,,,,,,,,,,,,,,,,,,,,,,,,,,,,,,,,,,,,,,
,,,,,,,,2023-08-16_08h37.46.745,HF_wild_card,2022.2.4,Win32,59.97720866,60d4e8fcdb1959ca6fd4dfdd,64d2fd46c836a06233681665,64dc7c96321d9c6c9ffbb64f,,,,,,,ctch,resources/DB.BMP,resources/DR.BMP,Door3,-0.417592593,0.002777778,1,0,0,1.4481,optionLeft,70,4440,2,43,0,43,0,1,,,,,,,,,,,,,,,,,,,,,,,,,,,,,,,,,,,,,,,
,,,,,,,,2023-08-16_08h37.46.745,HF_wild_card,2022.2.4,Win32,59.97720866,60d4e8fcdb1959ca6fd4dfdd,64d2fd46c836a06233681665,64dc7c96321d9c6c9ffbb64f,,,,,,,,,,,,,,,,,,,,,,,,,,1,0,1,0,1,,,,,,,,,,,,,,,,,,,,,,,,,,,,,,,,,,
,,,,,,,,2023-08-16_08h37.46.745,HF_wild_card,2022.2.4,Win32,59.97720866,60d4e8fcdb1959ca6fd4dfdd,64d2fd46c836a06233681665,64dc7c96321d9c6c9ffbb64f,,,,,,,ctch,resources/DY.BMP,resources/DP.BMP,Door4,0.399074074,-0.077777778,1,0,0,3.3557,optionRight,60,4500,3,0,0,0,0,1,,,,,,,,,,,,,,,,,,,,,,,,,,,,,,,,,,,,,,,
,,,,,,,,2023-08-16_08h37.46.745,HF_wild_card,2022.2.4,Win32,59.97720866,60d4e8fcdb1959ca6fd4dfdd,64d2fd46c836a06233681665,64dc7c96321d9c6c9ffbb64f,,,,,,,decisionTrl,resources/DG.BMP,resources/DY.BMP,Door1,0.342592593,-0.000925926,1,0,0,2.913,optionRight,30,4530,3,1,0,1,0,1,,,,,,,,,,,,,,,,,,,,,,,,,,,,,,,,,,,,,,,
,,,,,,,,2023-08-16_08h37.46.745,HF_wild_card,2022.2.4,Win32,59.97720866,60d4e8fcdb1959ca6fd4dfdd,64d2fd46c836a06233681665,64dc7c96321d9c6c9ffbb64f,,,,,,,ctch,resources/DP.BMP,resources/DY.BMP,Door4,-0.326851852,0.00462963,1,0,0,3.7481,optionLeft,80,4610,3,2,0,2,0,1,,,,,,,,,,,,,,,,,,,,,,,,,,,,,,,,,,,,,,,
,,,,,,,,2023-08-16_08h37.46.745,HF_wild_card,2022.2.4,Win32,59.97720866,60d4e8fcdb1959ca6fd4dfdd,64d2fd46c836a06233681665,64dc7c96321d9c6c9ffbb64f,,,,,,,decisionTrl,resources/DR.BMP,resources/DG.BMP,Door2,-0.34537037,-0.038888889,1,0,0,3.142,optionLeft,40,4650,3,3,0,3,0,1,,,,,,,,,,,,,,,,,,,,,,,,,,,,,,,,,,,,,,,
,,,,,,,,2023-08-16_08h37.46.745,HF_wild_card,2022.2.4,Win32,59.97720866,60d4e8fcdb1959ca6fd4dfdd,64d2fd46c836a06233681665,64dc7c96321d9c6c9ffbb64f,,,,,,,sngl,resources/Empty.png,resources/DG.BMP,WildCard_Ex,0.351851852,0.012962963,1,0,0,1.0919,optionRight,95,4745,3,4,0,4,0,1,,,,,,,,,,,,,,,,,,,,,,,,,,,,,,,,,,,,,,,
,,,,,,,,2023-08-16_08h37.46.745,HF_wild_card,2022.2.4,Win32,59.97720866,60d4e8fcdb1959ca6fd4dfdd,64d2fd46c836a06233681665,64dc7c96321d9c6c9ffbb64f,,,,,,,ctch,resources/DB.BMP,resources/DR.BMP,Door3,-0.290740741,-0.052777778,1,0,0,1.6146,optionLeft,70,4815,3,5,0,5,0,1,,,,,,,,,,,,,,,,,,,,,,,,,,,,,,,,,,,,,,,
,,,,,,,,2023-08-16_08h37.46.745,HF_wild_card,2022.2.4,Win32,59.97720866,60d4e8fcdb1959ca6fd4dfdd,64d2fd46c836a06233681665,64dc7c96321d9c6c9ffbb64f,,,,,,,decisionTrl,resources/DP.BMP,resources/DB.BMP,Door4,-0.357407407,-0.022222222,1,0,0,4.6982,optionLeft,60,4875,3,6,0,6,0,1,,,,,,,,,,,,,,,,,,,,,,,,,,,,,,,,,,,,,,,
,,,,,,,,2023-08-16_08h37.46.745,HF_wild_card,2022.2.4,Win32,59.97720866,60d4e8fcdb1959ca6fd4dfdd,64d2fd46c836a06233681665,64dc7c96321d9c6c9ffbb64f,,,,,,,decisionTrl,resources/DB.BMP,resources/DP.BMP,Door3,-0.390740741,0.006481481,1,0,0,1.3645,optionLeft,70,4945,3,7,0,7,0,1,,,,,,,,,,,,,,,,,,,,,,,,,,,,,,,,,,,,,,,
,,,,,,,,2023-08-16_08h37.46.745,HF_wild_card,2022.2.4,Win32,59.97720866,60d4e8fcdb1959ca6fd4dfdd,64d2fd46c836a06233681665,64dc7c96321d9c6c9ffbb64f,,,,,,,decisionTrl,resources/DP.BMP,resources/DB.BMP,Door3,0.400925926,-0.002777778,1,0,0,1.3483,optionRight,70,5015,3,8,0,8,0,1,,,,,,,,,,,,,,,,,,,,,,,,,,,,,,,,,,,,,,,
,,,,,,,,2023-08-16_08h37.46.745,HF_wild_card,2022.2.4,Win32,59.97720866,60d4e8fcdb1959ca6fd4dfdd,64d2fd46c836a06233681665,64dc7c96321d9c6c9ffbb64f,,,,,,,sngl,resources/Empty.png,resources/DY.BMP,Door1,0.32962963,-0.008333333,1,0,0,1.0318,optionRight,30,5045,3,9,0,9,0,1,,,,,,,,,,,,,,,,,,,,,,,,,,,,,,,,,,,,,,,
,,,,,,,,2023-08-16_08h37.46.745,HF_wild_card,2022.2.4,Win32,59.97720866,60d4e8fcdb1959ca6fd4dfdd,64d2fd46c836a06233681665,64dc7c96321d9c6c9ffbb64f,,,,,,,ctch,resources/DP.BMP,resources/DY.BMP,Door4,-0.375925926,0.015740741,1,0,0,2.8663,optionLeft,80,5125,3,10,0,10,0,1,,,,,,,,,,,,,,,,,,,,,,,,,,,,,,,,,,,,,,,
,,,,,,,,2023-08-16_08h37.46.745,HF_wild_card,2022.2.4,Win32,59.97720866,60d4e8fcdb1959ca6fd4dfdd,64d2fd46c836a06233681665,64dc7c96321d9c6c9ffbb64f,,,,,,,decisionTrl,resources/DY.BMP,resources/DR.BMP,Door2,0.282407407,-0.014814815,1,0,0,3.0148,optionRight,40,5165,3,11,0,11,0,1,,,,,,,,,,,,,,,,,,,,,,,,,,,,,,,,,,,,,,,
,,,,,,,,2023-08-16_08h37.46.745,HF_wild_card,2022.2.4,Win32,59.97720866,60d4e8fcdb1959ca6fd4dfdd,64d2fd46c836a06233681665,64dc7c96321d9c6c9ffbb64f,,,,,,,ctch,resources/DR.BMP,resources/DB.BMP,Door3,0.291666667,-0.001851852,1,0,0,1.5982,optionRight,70,5235,3,12,0,12,0,1,,,,,,,,,,,,,,,,,,,,,,,,,,,,,,,,,,,,,,,
,,,,,,,,2023-08-16_08h37.46.745,HF_wild_card,2022.2.4,Win32,59.97720866,60d4e8fcdb1959ca6fd4dfdd,64d2fd46c836a06233681665,64dc7c96321d9c6c9ffbb64f,,,,,,,decisionTrl,resources/DY.BMP,resources/DG.BMP,WildCard_Ex,0.275925926,-0.002777778,1,0,0,2.4815,optionRight,95,5330,3,13,0,13,0,1,,,,,,,,,,,,,,,,,,,,,,,,,,,,,,,,,,,,,,,
,,,,,,,,2023-08-16_08h37.46.745,HF_wild_card,2022.2.4,Win32,59.97720866,60d4e8fcdb1959ca6fd4dfdd,64d2fd46c836a06233681665,64dc7c96321d9c6c9ffbb64f,,,,,,,sngl,resources/Empty.png,resources/DP.BMP,Door4,0.289814815,-0.00462963,1,0,0,1.7482,optionRight,60,5390,3,14,0,14,0,1,,,,,,,,,,,,,,,,,,,,,,,,,,,,,,,,,,,,,,,
,,,,,,,,2023-08-16_08h37.46.745,HF_wild_card,2022.2.4,Win32,59.97720866,60d4e8fcdb1959ca6fd4dfdd,64d2fd46c836a06233681665,64dc7c96321d9c6c9ffbb64f,,,,,,,sngl,resources/DG.BMP,resources/Empty.png,WildCard_Ex,-0.290740741,0.006481481,1,0,0,0.9476,optionLeft,95,5485,3,15,0,15,0,1,,,,,,,,,,,,,,,,,,,,,,,,,,,,,,,,,,,,,,,
,,,,,,,,2023-08-16_08h37.46.745,HF_wild_card,2022.2.4,Win32,59.97720866,60d4e8fcdb1959ca6fd4dfdd,64d2fd46c836a06233681665,64dc7c96321d9c6c9ffbb64f,,,,,,,decisionTrl,resources/DG.BMP,resources/DR.BMP,WildCard_Ex,-0.449074074,0.012037037,1,0,0,1.3153,optionLeft,95,5580,3,16,0,16,0,1,,,,,,,,,,,,,,,,,,,,,,,,,,,,,,,,,,,,,,,
,,,,,,,,2023-08-16_08h37.46.745,HF_wild_card,2022.2.4,Win32,59.97720866,60d4e8fcdb1959ca6fd4dfdd,64d2fd46c836a06233681665,64dc7c96321d9c6c9ffbb64f,,,,,,,decisionTrl,resources/DY.BMP,resources/DR.BMP,Door1,-0.296296296,0.015740741,1,0,0,6.0154,optionLeft,30,5610,3,17,0,17,0,1,,,,,,,,,,,,,,,,,,,,,,,,,,,,,,,,,,,,,,,
,,,,,,,,2023-08-16_08h37.46.745,HF_wild_card,2022.2.4,Win32,59.97720866,60d4e8fcdb1959ca6fd4dfdd,64d2fd46c836a06233681665,64dc7c96321d9c6c9ffbb64f,,,,,,,sngl,resources/Empty.png,resources/DB.BMP,Door3,0.32962963,-0.010185185,1,0,0,0.9313,optionRight,70,5680,3,18,0,18,0,1,,,,,,,,,,,,,,,,,,,,,,,,,,,,,,,,,,,,,,,
,,,,,,,,2023-08-16_08h37.46.745,HF_wild_card,2022.2.4,Win32,59.97720866,60d4e8fcdb1959ca6fd4dfdd,64d2fd46c836a06233681665,64dc7c96321d9c6c9ffbb64f,,,,,,,decisionTrl,resources/DP.BMP,resources/DG.BMP,WildCard_Ex,0.287037037,0,1,0,0,2.2982,optionRight,95,5775,3,19,0,19,0,1,,,,,,,,,,,,,,,,,,,,,,,,,,,,,,,,,,,,,,,
,,,,,,,,2023-08-16_08h37.46.745,HF_wild_card,2022.2.4,Win32,59.97720866,60d4e8fcdb1959ca6fd4dfdd,64d2fd46c836a06233681665,64dc7c96321d9c6c9ffbb64f,,,,,,,sngl,resources/DR.BMP,resources/Empty.png,Door2,-0.378703704,0.00462963,1,0,0,1.1639,optionLeft,40,5815,3,20,0,20,0,1,,,,,,,,,,,,,,,,,,,,,,,,,,,,,,,,,,,,,,,
,,,,,,,,2023-08-16_08h37.46.745,HF_wild_card,2022.2.4,Win32,59.97720866,60d4e8fcdb1959ca6fd4dfdd,64d2fd46c836a06233681665,64dc7c96321d9c6c9ffbb64f,,,,,,,decisionTrl,resources/DR.BMP,resources/DY.BMP,Door2,-0.308333333,-0.005555556,1,0,0,1.6592,optionLeft,20,5835,3,21,0,21,0,1,,,,,,,,,,,,,,,,,,,,,,,,,,,,,,,,,,,,,,,
,,,,,,,,2023-08-16_08h37.46.745,HF_wild_card,2022.2.4,Win32,59.97720866,60d4e8fcdb1959ca6fd4dfdd,64d2fd46c836a06233681665,64dc7c96321d9c6c9ffbb64f,,,,,,,decisionTrl,resources/DB.BMP,resources/DP.BMP,Door4,0.355555556,0,1,0,0,4.5986,optionRight,60,5895,3,22,0,22,0,1,,,,,,,,,,,,,,,,,,,,,,,,,,,,,,,,,,,,,,,
,,,,,,,,2023-08-16_08h37.46.745,HF_wild_card,2022.2.4,Win32,59.97720866,60d4e8fcdb1959ca6fd4dfdd,64d2fd46c836a06233681665,64dc7c96321d9c6c9ffbb64f,,,,,,,decisionTrl,resources/DY.BMP,resources/DR.BMP,Door2,0.319444444,0,1,0,0,3.6485,optionRight,20,5915,3,23,0,23,0,1,,,,,,,,,,,,,,,,,,,,,,,,,,,,,,,,,,,,,,,
,,,,,,,,2023-08-16_08h37.46.745,HF_wild_card,2022.2.4,Win32,59.97720866,60d4e8fcdb1959ca6fd4dfdd,64d2fd46c836a06233681665,64dc7c96321d9c6c9ffbb64f,,,,,,,decisionTrl,resources/DY.BMP,resources/DR.BMP,Door1,-0.283333333,0.005555556,1,0,0,1.0817,optionLeft,30,5945,3,24,0,24,0,1,,,,,,,,,,,,,,,,,,,,,,,,,,,,,,,,,,,,,,,
,,,,,,,,2023-08-16_08h37.46.745,HF_wild_card,2022.2.4,Win32,59.97720866,60d4e8fcdb1959ca6fd4dfdd,64d2fd46c836a06233681665,64dc7c96321d9c6c9ffbb64f,,,,,,,decisionTrl,resources/DG.BMP,resources/DB.BMP,WildCard_Ex,-0.337962963,0.000925926,1,0,0,2.8983,optionLeft,5,5950,3,25,0,25,0,1,,,,,,,,,,,,,,,,,,,,,,,,,,,,,,,,,,,,,,,
,,,,,,,,2023-08-16_08h37.46.745,HF_wild_card,2022.2.4,Win32,59.97720866,60d4e8fcdb1959ca6fd4dfdd,64d2fd46c836a06233681665,64dc7c96321d9c6c9ffbb64f,,,,,,,sngl,resources/DP.BMP,resources/Empty.png,Door4,-0.328703704,-0.000925926,1,0,0,1.6649,optionLeft,80,6030,3,26,0,26,0,1,,,,,,,,,,,,,,,,,,,,,,,,,,,,,,,,,,,,,,,
,,,,,,,,2023-08-16_08h37.46.745,HF_wild_card,2022.2.4,Win32,59.97720866,60d4e8fcdb1959ca6fd4dfdd,64d2fd46c836a06233681665,64dc7c96321d9c6c9ffbb64f,,,,,,,decisionTrl,resources/DR.BMP,resources/DY.BMP,Door2,-0.355555556,-0.003703704,1,0,0,4.5651,optionLeft,20,6050,3,27,0,27,0,1,,,,,,,,,,,,,,,,,,,,,,,,,,,,,,,,,,,,,,,
,,,,,,,,2023-08-16_08h37.46.745,HF_wild_card,2022.2.4,Win32,59.97720866,60d4e8fcdb1959ca6fd4dfdd,64d2fd46c836a06233681665,64dc7c96321d9c6c9ffbb64f,,,,,,,decisionTrl,resources/DB.BMP,resources/DP.BMP,Door4,0.415740741,0.003703704,1,0,0,4.9747,optionRight,80,6130,3,28,0,28,0,1,,,,,,,,,,,,,,,,,,,,,,,,,,,,,,,,,,,,,,,
,,,,,,,,2023-08-16_08h37.46.745,HF_wild_card,2022.2.4,Win32,59.97720866,60d4e8fcdb1959ca6fd4dfdd,64d2fd46c836a06233681665,64dc7c96321d9c6c9ffbb64f,,,,,,,ctch,resources/DB.BMP,resources/DR.BMP,Door3,-0.37037037,0.000925926,1,0,0,1.4151,optionLeft,70,6200,3,29,0,29,0,1,,,,,,,,,,,,,,,,,,,,,,,,,,,,,,,,,,,,,,,
,,,,,,,,2023-08-16_08h37.46.745,HF_wild_card,2022.2.4,Win32,59.97720866,60d4e8fcdb1959ca6fd4dfdd,64d2fd46c836a06233681665,64dc7c96321d9c6c9ffbb64f,,,,,,,ctch,resources/DY.BMP,resources/DP.BMP,Door4,0.372222222,-0.001851852,1,0,0,2.1481,optionRight,80,6280,3,30,0,30,0,1,,,,,,,,,,,,,,,,,,,,,,,,,,,,,,,,,,,,,,,
,,,,,,,,2023-08-16_08h37.46.745,HF_wild_card,2022.2.4,Win32,59.97720866,60d4e8fcdb1959ca6fd4dfdd,64d2fd46c836a06233681665,64dc7c96321d9c6c9ffbb64f,,,,,,,decisionTrl,resources/DG.BMP,resources/DP.BMP,Door4,0.321296296,-0.005555556,1,0,0,4.8985,optionRight,60,6340,3,31,0,31,0,1,,,,,,,,,,,,,,,,,,,,,,,,,,,,,,,,,,,,,,,
,,,,,,,,2023-08-16_08h37.46.745,HF_wild_card,2022.2.4,Win32,59.97720866,60d4e8fcdb1959ca6fd4dfdd,64d2fd46c836a06233681665,64dc7c96321d9c6c9ffbb64f,,,,,,,decisionTrl,resources/DP.BMP,resources/DB.BMP,Door4,-0.365740741,-0.000925926,1,0,0,2.4818,optionLeft,80,6420,3,32,0,32,0,1,,,,,,,,,,,,,,,,,,,,,,,,,,,,,,,,,,,,,,,
,,,,,,,,2023-08-16_08h37.46.745,HF_wild_card,2022.2.4,Win32,59.97720866,60d4e8fcdb1959ca6fd4dfdd,64d2fd46c836a06233681665,64dc7c96321d9c6c9ffbb64f,,,,,,,sngl,resources/Empty.png,resources/DR.BMP,Door2,0.275925926,0.012037037,1,0,0,1.2657,optionRight,20,6440,3,33,0,33,0,1,,,,,,,,,,,,,,,,,,,,,,,,,,,,,,,,,,,,,,,
,,,,,,,,2023-08-16_08h37.46.745,HF_wild_card,2022.2.4,Win32,59.97720866,60d4e8fcdb1959ca6fd4dfdd,64d2fd46c836a06233681665,64dc7c96321d9c6c9ffbb64f,,,,,,,sngl,resources/DB.BMP,resources/Empty.png,Door3,-0.285185185,0.012962963,1,0,0,1.0481,optionLeft,70,6510,3,34,0,34,0,1,,,,,,,,,,,,,,,,,,,,,,,,,,,,,,,,,,,,,,,
,,,,,,,,2023-08-16_08h37.46.745,HF_wild_card,2022.2.4,Win32,59.97720866,60d4e8fcdb1959ca6fd4dfdd,64d2fd46c836a06233681665,64dc7c96321d9c6c9ffbb64f,,,,,,,decisionTrl,resources/DB.BMP,resources/DP.BMP,Door4,0.284259259,0.011111111,1,0,0,1.7655,optionRight,80,6590,3,35,0,35,0,1,,,,,,,,,,,,,,,,,,,,,,,,,,,,,,,,,,,,,,,
,,,,,,,,2023-08-16_08h37.46.745,HF_wild_card,2022.2.4,Win32,59.97720866,60d4e8fcdb1959ca6fd4dfdd,64d2fd46c836a06233681665,64dc7c96321d9c6c9ffbb64f,,,,,,,ctch,resources/DR.BMP,resources/DB.BMP,Door3,0.34537037,0.013888889,1,0,0,1.4649,optionRight,70,6660,3,36,0,36,0,1,,,,,,,,,,,,,,,,,,,,,,,,,,,,,,,,,,,,,,,
,,,,,,,,2023-08-16_08h37.46.745,HF_wild_card,2022.2.4,Win32,59.97720866,60d4e8fcdb1959ca6fd4dfdd,64d2fd46c836a06233681665,64dc7c96321d9c6c9ffbb64f,,,,,,,decisionTrl,resources/DR.BMP,resources/DY.BMP,Door1,0.349074074,0.008333333,1,0,0,3.9487,optionRight,30,6690,3,37,0,37,0,1,,,,,,,,,,,,,,,,,,,,,,,,,,,,,,,,,,,,,,,
,,,,,,,,2023-08-16_08h37.46.745,HF_wild_card,2022.2.4,Win32,59.97720866,60d4e8fcdb1959ca6fd4dfdd,64d2fd46c836a06233681665,64dc7c96321d9c6c9ffbb64f,,,,,,,decisionTrl,resources/DR.BMP,resources/DY.BMP,Door1,0.300925926,0,1,0,0,2.0987,optionRight,30,6720,3,38,0,38,0,1,,,,,,,,,,,,,,,,,,,,,,,,,,,,,,,,,,,,,,,
,,,,,,,,2023-08-16_08h37.46.745,HF_wild_card,2022.2.4,Win32,59.97720866,60d4e8fcdb1959ca6fd4dfdd,64d2fd46c836a06233681665,64dc7c96321d9c6c9ffbb64f,,,,,,,sngl,resources/DG.BMP,resources/Empty.png,WildCard_Ex,-0.32962963,0.016666667,1,0,0,1.0111,optionLeft,5,6725,3,39,0,39,0,1,,,,,,,,,,,,,,,,,,,,,,,,,,,,,,,,,,,,,,,
,,,,,,,,2023-08-16_08h37.46.745,HF_wild_card,2022.2.4,Win32,59.97720866,60d4e8fcdb1959ca6fd4dfdd,64d2fd46c836a06233681665,64dc7c96321d9c6c9ffbb64f,,,,,,,sngl,resources/DY.BMP,resources/Empty.png,Door1,-0.326851852,0.011111111,1,0,0,1.8148,optionLeft,30,6755,3,40,0,40,0,1,,,,,,,,,,,,,,,,,,,,,,,,,,,,,,,,,,,,,,,
,,,,,,,,2023-08-16_08h37.46.745,HF_wild_card,2022.2.4,Win32,59.97720866,60d4e8fcdb1959ca6fd4dfdd,64d2fd46c836a06233681665,64dc7c96321d9c6c9ffbb64f,,,,,,,sngl,resources/Empty.png,resources/DG.BMP,WildCard_Ex,0.378703704,0.003703704,1,0,0,1.6815,optionRight,5,6760,3,41,0,41,0,1,,,,,,,,,,,,,,,,,,,,,,,,,,,,,,,,,,,,,,,
,,,,,,,,2023-08-16_08h37.46.745,HF_wild_card,2022.2.4,Win32,59.97720866,60d4e8fcdb1959ca6fd4dfdd,64d2fd46c836a06233681665,64dc7c96321d9c6c9ffbb64f,,,,,,,decisionTrl,resources/DP.BMP,resources/DB.BMP,Door4,-0.306481481,0.001851852,1,0,0,1.6321,optionLeft,60,6820,3,42,0,42,0,1,,,,,,,,,,,,,,,,,,,,,,,,,,,,,,,,,,,,,,,
,,,,,,,,2023-08-16_08h37.46.745,HF_wild_card,2022.2.4,Win32,59.97720866,60d4e8fcdb1959ca6fd4dfdd,64d2fd46c836a06233681665,64dc7c96321d9c6c9ffbb64f,,,,,,,decisionTrl,resources/DB.BMP,resources/DG.BMP,Door3,-0.337037037,0.005555556,1,0,0,2.8418,optionLeft,70,6890,3,43,0,43,0,1,,,,,,,,,,,,,,,,,,,,,,,,,,,,,,,,,,,,,,,
,,,,,,,,2023-08-16_08h37.46.745,HF_wild_card,2022.2.4,Win32,59.97720866,60d4e8fcdb1959ca6fd4dfdd,64d2fd46c836a06233681665,64dc7c96321d9c6c9ffbb64f,,,,,,,,,,,,,,,,,,,,,,,,,,2,0,2,0,1,,,,,,,,,,,,,,,,,,,,,,,,,,,,,,,,,,
,,,,,,,,2023-08-16_08h37.46.745,HF_wild_card,2022.2.4,Win32,59.97720866,60d4e8fcdb1959ca6fd4dfdd,64d2fd46c836a06233681665,64dc7c96321d9c6c9ffbb64f,,,,,,,decisionTrl,resources/DR.BMP,resources/DY.BMP,Door1,0.366666667,-0.101851852,1,0,0,3.6415,optionRight,30,6920,4,0,0,0,0,1,,,,,,,,,,,,,,,,,,,,,,,,,,,,,,,,,,,,,,,
,,,,,,,,2023-08-16_08h37.46.745,HF_wild_card,2022.2.4,Win32,59.97720866,60d4e8fcdb1959ca6fd4dfdd,64d2fd46c836a06233681665,64dc7c96321d9c6c9ffbb64f,,,,,,,ctch,resources/DY.BMP,resources/DP.BMP,Door4,0.460185185,-0.010185185,1,0,0,4.3647,optionRight,80,7000,4,1,0,1,0,1,,,,,,,,,,,,,,,,,,,,,,,,,,,,,,,,,,,,,,,
,,,,,,,,2023-08-16_08h37.46.745,HF_wild_card,2022.2.4,Win32,59.97720866,60d4e8fcdb1959ca6fd4dfdd,64d2fd46c836a06233681665,64dc7c96321d9c6c9ffbb64f,,,,,,,sngl,resources/DR.BMP,resources/Empty.png,Door2,-0.350925926,0.015740741,1,0,0,1.1482,optionLeft,20,7020,4,2,0,2,0,1,,,,,,,,,,,,,,,,,,,,,,,,,,,,,,,,,,,,,,,
,,,,,,,,2023-08-16_08h37.46.745,HF_wild_card,2022.2.4,Win32,59.97720866,60d4e8fcdb1959ca6fd4dfdd,64d2fd46c836a06233681665,64dc7c96321d9c6c9ffbb64f,,,,,,,decisionTrl,resources/DR.BMP,resources/DY.BMP,Door1,0.363888889,-0.002777778,1,0,0,1.7982,optionRight,30,7050,4,3,0,3,0,1,,,,,,,,,,,,,,,,,,,,,,,,,,,,,,,,,,,,,,,
,,,,,,,,2023-08-16_08h37.46.745,HF_wild_card,2022.2.4,Win32,59.97720866,60d4e8fcdb1959ca6fd4dfdd,64d2fd46c836a06233681665,64dc7c96321d9c6c9ffbb64f,,,,,,,sngl,resources/DB.BMP,resources/Empty.png,Door3,-0.311111111,0.002777778,1,0,0,1.0648,optionLeft,70,7120,4,4,0,4,0,1,,,,,,,,,,,,,,,,,,,,,,,,,,,,,,,,,,,,,,,
,,,,,,,,2023-08-16_08h37.46.745,HF_wild_card,2022.2.4,Win32,59.97720866,60d4e8fcdb1959ca6fd4dfdd,64d2fd46c836a06233681665,64dc7c96321d9c6c9ffbb64f,,,,,,,ctch,resources/DY.BMP,resources/DP.BMP,Door4,0.342592593,-0.008333333,1,0,0,1.915,optionRight,80,7200,4,5,0,5,0,1,,,,,,,,,,,,,,,,,,,,,,,,,,,,,,,,,,,,,,,
,,,,,,,,2023-08-16_08h37.46.745,HF_wild_card,2022.2.4,Win32,59.97720866,60d4e8fcdb1959ca6fd4dfdd,64d2fd46c836a06233681665,64dc7c96321d9c6c9ffbb64f,,,,,,,decisionTrl,resources/DP.BMP,resources/DB.BMP,Door3,0.29537037,0.008333333,1,0,0,2.948,optionRight,70,7270,4,6,0,6,0,1,,,,,,,,,,,,,,,,,,,,,,,,,,,,,,,,,,,,,,,
,,,,,,,,2023-08-16_08h37.46.745,HF_wild_card,2022.2.4,Win32,59.97720866,60d4e8fcdb1959ca6fd4dfdd,64d2fd46c836a06233681665,64dc7c96321d9c6c9ffbb64f,,,,,,,sngl,resources/DBN.BMP,resources/Empty.png,WildCard_NonEx,-0.298148148,0.019444444,1,0,0,2.7816,optionLeft,45,7315,4,7,0,7,0,1,,,,,,,,,,,,,,,,,,,,,,,,,,,,,,,,,,,,,,,
,,,,,,,,2023-08-16_08h37.46.745,HF_wild_card,2022.2.4,Win32,59.97720866,60d4e8fcdb1959ca6fd4dfdd,64d2fd46c836a06233681665,64dc7c96321d9c6c9ffbb64f,,,,,,,decisionTrl,resources/DB.BMP,resources/DP.BMP,Door4,0.266666667,0.007407407,1,0,0,1.9321,optionRight,80,7395,4,8,0,8,0,1,,,,,,,,,,,,,,,,,,,,,,,,,,,,,,,,,,,,,,,
,,,,,,,,2023-08-16_08h37.46.745,HF_wild_card,2022.2.4,Win32,59.97720866,60d4e8fcdb1959ca6fd4dfdd,64d2fd46c836a06233681665,64dc7c96321d9c6c9ffbb64f,,,,,,,sngl,resources/Empty.png,resources/DR.BMP,Door2,0.337037037,-0.003703704,1,0,0,1.1151,optionRight,40,7435,4,9,0,9,0,1,,,,,,,,,,,,,,,,,,,,,,,,,,,,,,,,,,,,,,,
,,,,,,,,2023-08-16_08h37.46.745,HF_wild_card,2022.2.4,Win32,59.97720866,60d4e8fcdb1959ca6fd4dfdd,64d2fd46c836a06233681665,64dc7c96321d9c6c9ffbb64f,,,,,,,decisionTrl,resources/DB.BMP,resources/DP.BMP,Door4,0.348148148,-0.005555556,1,0,0,1.682,optionRight,60,7495,4,10,0,10,0,1,,,,,,,,,,,,,,,,,,,,,,,,,,,,,,,,,,,,,,,
,,,,,,,,2023-08-16_08h37.46.745,HF_wild_card,2022.2.4,Win32,59.97720866,60d4e8fcdb1959ca6fd4dfdd,64d2fd46c836a06233681665,64dc7c96321d9c6c9ffbb64f,,,,,,,sngl,resources/DY.BMP,resources/Empty.png,Door1,-0.294444444,0.013888889,1,0,0,2.0152,optionLeft,30,7525,4,11,0,11,0,1,,,,,,,,,,,,,,,,,,,,,,,,,,,,,,,,,,,,,,,
,,,,,,,,2023-08-16_08h37.46.745,HF_wild_card,2022.2.4,Win32,59.97720866,60d4e8fcdb1959ca6fd4dfdd,64d2fd46c836a06233681665,64dc7c96321d9c6c9ffbb64f,,,,,,,decisionTrl,resources/DR.BMP,resources/DY.BMP,Door1,0.335185185,-0.010185185,1,0,0,5.5649,optionRight,30,7555,4,12,0,12,0,1,,,,,,,,,,,,,,,,,,,,,,,,,,,,,,,,,,,,,,,
,,,,,,,,2023-08-16_08h37.46.745,HF_wild_card,2022.2.4,Win32,59.97720866,60d4e8fcdb1959ca6fd4dfdd,64d2fd46c836a06233681665,64dc7c96321d9c6c9ffbb64f,,,,,,,ctch,resources/DR.BMP,resources/DB.BMP,Door3,0.35,-0.006481481,1,0,0,1.2148,optionRight,70,7625,4,13,0,13,0,1,,,,,,,,,,,,,,,,,,,,,,,,,,,,,,,,,,,,,,,
,,,,,,,,2023-08-16_08h37.46.745,HF_wild_card,2022.2.4,Win32,59.97720866,60d4e8fcdb1959ca6fd4dfdd,64d2fd46c836a06233681665,64dc7c96321d9c6c9ffbb64f,,,,,,,sngl,resources/Empty.png,resources/DP.BMP,Door4,0.396296296,-0.025,1,0,0,1.1637,optionRight,80,7705,4,14,0,14,0,1,,,,,,,,,,,,,,,,,,,,,,,,,,,,,,,,,,,,,,,
,,,,,,,,2023-08-16_08h37.46.745,HF_wild_card,2022.2.4,Win32,59.97720866,60d4e8fcdb1959ca6fd4dfdd,64d2fd46c836a06233681665,64dc7c96321d9c6c9ffbb64f,,,,,,,decisionTrl,resources/DBN.BMP,resources/DP.BMP,Door4,0.385185185,-0.010185185,1,0,0,1.6645,optionRight,60,7765,4,15,0,15,0,1,,,,,,,,,,,,,,,,,,,,,,,,,,,,,,,,,,,,,,,
,,,,,,,,2023-08-16_08h37.46.745,HF_wild_card,2022.2.4,Win32,59.97720866,60d4e8fcdb1959ca6fd4dfdd,64d2fd46c836a06233681665,64dc7c96321d9c6c9ffbb64f,,,,,,,decisionTrl,resources/DY.BMP,resources/DR.BMP,Door2,0.336111111,-0.008333333,1,0,0,3.5985,optionRight,20,7785,4,16,0,16,0,1,,,,,,,,,,,,,,,,,,,,,,,,,,,,,,,,,,,,,,,
,,,,,,,,2023-08-16_08h37.46.745,HF_wild_card,2022.2.4,Win32,59.97720866,60d4e8fcdb1959ca6fd4dfdd,64d2fd46c836a06233681665,64dc7c96321d9c6c9ffbb64f,,,,,,,sngl,resources/DP.BMP,resources/Empty.png,Door4,-0.325,0,1,0,0,1.1146,optionLeft,60,7845,4,17,0,17,0,1,,,,,,,,,,,,,,,,,,,,,,,,,,,,,,,,,,,,,,,
,,,,,,,,2023-08-16_08h37.46.745,HF_wild_card,2022.2.4,Win32,59.97720866,60d4e8fcdb1959ca6fd4dfdd,64d2fd46c836a06233681665,64dc7c96321d9c6c9ffbb64f,,,,,,,decisionTrl,resources/DBN.BMP,resources/DR.BMP,WildCard_NonEx,-0.325925926,0.003703704,1,0,0,1.7983,optionLeft,45,7890,4,18,0,18,0,1,,,,,,,,,,,,,,,,,,,,,,,,,,,,,,,,,,,,,,,
,,,,,,,,2023-08-16_08h37.46.745,HF_wild_card,2022.2.4,Win32,59.97720866,60d4e8fcdb1959ca6fd4dfdd,64d2fd46c836a06233681665,64dc7c96321d9c6c9ffbb64f,,,,,,,ctch,resources/DB.BMP,resources/DR.BMP,Door3,-0.308333333,0.002777778,1,0,0,1.3986,optionLeft,70,7960,4,19,0,19,0,1,,,,,,,,,,,,,,,,,,,,,,,,,,,,,,,,,,,,,,,
,,,,,,,,2023-08-16_08h37.46.745,HF_wild_card,2022.2.4,Win32,59.97720866,60d4e8fcdb1959ca6fd4dfdd,64d2fd46c836a06233681665,64dc7c96321d9c6c9ffbb64f,,,,,,,decisionTrl,resources/DBN.BMP,resources/DY.BMP,WildCard_NonEx,-0.465740741,-0.003703704,1,0,0,2.065,optionLeft,45,8005,4,20,0,20,0,1,,,,,,,,,,,,,,,,,,,,,,,,,,,,,,,,,,,,,,,
,,,,,,,,2023-08-16_08h37.46.745,HF_wild_card,2022.2.4,Win32,59.97720866,60d4e8fcdb1959ca6fd4dfdd,64d2fd46c836a06233681665,64dc7c96321d9c6c9ffbb64f,,,,,,,decisionTrl,resources/DY.BMP,resources/DR.BMP,Door1,-0.277777778,0.04537037,1,0,0,3.3484,optionLeft,30,8035,4,21,0,21,0,1,,,,,,,,,,,,,,,,,,,,,,,,,,,,,,,,,,,,,,,
,,,,,,,,2023-08-16_08h37.46.745,HF_wild_card,2022.2.4,Win32,59.97720866,60d4e8fcdb1959ca6fd4dfdd,64d2fd46c836a06233681665,64dc7c96321d9c6c9ffbb64f,,,,,,,sngl,resources/Empty.png,resources/DBN.BMP,WildCard_NonEx,0.394444444,-0.001851852,1,0,0,1.1152,optionRight,45,8080,4,22,0,22,0,1,,,,,,,,,,,,,,,,,,,,,,,,,,,,,,,,,,,,,,,
,,,,,,,,2023-08-16_08h37.46.745,HF_wild_card,2022.2.4,Win32,59.97720866,60d4e8fcdb1959ca6fd4dfdd,64d2fd46c836a06233681665,64dc7c96321d9c6c9ffbb64f,,,,,,,sngl,resources/Empty.png,resources/DB.BMP,Door3,0.314814815,-0.009259259,1,0,0,0.9486,optionRight,70,8150,4,23,0,23,0,1,,,,,,,,,,,,,,,,,,,,,,,,,,,,,,,,,,,,,,,
,,,,,,,,2023-08-16_08h37.46.745,HF_wild_card,2022.2.4,Win32,59.97720866,60d4e8fcdb1959ca6fd4dfdd,64d2fd46c836a06233681665,64dc7c96321d9c6c9ffbb64f,,,,,,,ctch,resources/DB.BMP,resources/DR.BMP,Door3,-0.39537037,0.010185185,1,0,0,1.3984,optionLeft,70,8220,4,24,0,24,0,1,,,,,,,,,,,,,,,,,,,,,,,,,,,,,,,,,,,,,,,
,,,,,,,,2023-08-16_08h37.46.745,HF_wild_card,2022.2.4,Win32,59.97720866,60d4e8fcdb1959ca6fd4dfdd,64d2fd46c836a06233681665,64dc7c96321d9c6c9ffbb64f,,,,,,,sngl,resources/Empty.png,resources/DY.BMP,Door1,0.306481481,-0.002777778,1,0,0,2.4813,optionRight,30,8250,4,25,0,25,0,1,,,,,,,,,,,,,,,,,,,,,,,,,,,,,,,,,,,,,,,
,,,,,,,,2023-08-16_08h37.46.745,HF_wild_card,2022.2.4,Win32,59.97720866,60d4e8fcdb1959ca6fd4dfdd,64d2fd46c836a06233681665,64dc7c96321d9c6c9ffbb64f,,,,,,,sngl,resources/DBN.BMP,resources/Empty.png,WildCard_NonEx,-0.287037037,0.006481481,1,0,0,1.0483,optionLeft,55,8305,4,26,0,26,0,1,,,,,,,,,,,,,,,,,,,,,,,,,,,,,,,,,,,,,,,
,,,,,,,,2023-08-16_08h37.46.745,HF_wild_card,2022.2.4,Win32,59.97720866,60d4e8fcdb1959ca6fd4dfdd,64d2fd46c836a06233681665,64dc7c96321d9c6c9ffbb64f,,,,,,,decisionTrl,resources/DP.BMP,resources/DBN.BMP,Door4,-0.340740741,0,1,0,0,3.1821,optionLeft,60,8365,4,27,0,27,0,1,,,,,,,,,,,,,,,,,,,,,,,,,,,,,,,,,,,,,,,
,,,,,,,,2023-08-16_08h37.46.745,HF_wild_card,2022.2.4,Win32,59.97720866,60d4e8fcdb1959ca6fd4dfdd,64d2fd46c836a06233681665,64dc7c96321d9c6c9ffbb64f,,,,,,,decisionTrl,resources/DR.BMP,resources/DBN.BMP,WildCard_NonEx,0.446296296,-0.006481481,1,0,0,1.5316,optionRight,55,8420,4,28,0,28,0,1,,,,,,,,,,,,,,,,,,,,,,,,,,,,,,,,,,,,,,,
,,,,,,,,2023-08-16_08h37.46.745,HF_wild_card,2022.2.4,Win32,59.97720866,60d4e8fcdb1959ca6fd4dfdd,64d2fd46c836a06233681665,64dc7c96321d9c6c9ffbb64f,,,,,,,sngl,resources/Empty.png,resources/DBN.BMP,WildCard_NonEx,0.332407407,0.006481481,1,0,0,0.9145,optionRight,55,8475,4,29,0,29,0,1,,,,,,,,,,,,,,,,,,,,,,,,,,,,,,,,,,,,,,,
,,,,,,,,2023-08-16_08h37.46.745,HF_wild_card,2022.2.4,Win32,59.97720866,60d4e8fcdb1959ca6fd4dfdd,64d2fd46c836a06233681665,64dc7c96321d9c6c9ffbb64f,,,,,,,decisionTrl,resources/DB.BMP,resources/DBN.BMP,Door3,-0.350925926,0.013888889,1,0,0,1.2984,optionLeft,70,8545,4,30,0,30,0,1,,,,,,,,,,,,,,,,,,,,,,,,,,,,,,,,,,,,,,,
,,,,,,,,2023-08-16_08h37.46.745,HF_wild_card,2022.2.4,Win32,59.97720866,60d4e8fcdb1959ca6fd4dfdd,64d2fd46c836a06233681665,64dc7c96321d9c6c9ffbb64f,,,,,,,decisionTrl,resources/DB.BMP,resources/DP.BMP,Door4,0.300925926,-0.003703704,1,0,0,1.7979,optionRight,80,8625,4,31,0,31,0,1,,,,,,,,,,,,,,,,,,,,,,,,,,,,,,,,,,,,,,,
,,,,,,,,2023-08-16_08h37.46.745,HF_wild_card,2022.2.4,Win32,59.97720866,60d4e8fcdb1959ca6fd4dfdd,64d2fd46c836a06233681665,64dc7c96321d9c6c9ffbb64f,,,,,,,decisionTrl,resources/DP.BMP,resources/DB.BMP,Door3,0.313888889,-0.000925926,1,0,0,2.2481,optionRight,70,8695,4,32,0,32,0,1,,,,,,,,,,,,,,,,,,,,,,,,,,,,,,,,,,,,,,,
,,,,,,,,2023-08-16_08h37.46.745,HF_wild_card,2022.2.4,Win32,59.97720866,60d4e8fcdb1959ca6fd4dfdd,64d2fd46c836a06233681665,64dc7c96321d9c6c9ffbb64f,,,,,,,decisionTrl,resources/DY.BMP,resources/DR.BMP,Door1,-0.288888889,0.071296296,1,0,0,3.848,optionLeft,30,8725,4,33,0,33,0,1,,,,,,,,,,,,,,,,,,,,,,,,,,,,,,,,,,,,,,,
,,,,,,,,2023-08-16_08h37.46.745,HF_wild_card,2022.2.4,Win32,59.97720866,60d4e8fcdb1959ca6fd4dfdd,64d2fd46c836a06233681665,64dc7c96321d9c6c9ffbb64f,,,,,,,ctch,resources/DP.BMP,resources/DY.BMP,Door4,-0.430555556,0.00462963,1,0,0,2.3652,optionLeft,80,8805,4,34,0,34,0,1,,,,,,,,,,,,,,,,,,,,,,,,,,,,,,,,,,,,,,,
,,,,,,,,2023-08-16_08h37.46.745,HF_wild_card,2022.2.4,Win32,59.97720866,60d4e8fcdb1959ca6fd4dfdd,64d2fd46c836a06233681665,64dc7c96321d9c6c9ffbb64f,,,,,,,decisionTrl,resources/DR.BMP,resources/DY.BMP,Door2,-0.284259259,0.057407407,1,0,0,5.3484,optionLeft,20,8825,4,35,0,35,0,1,,,,,,,,,,,,,,,,,,,,,,,,,,,,,,,,,,,,,,,
,,,,,,,,2023-08-16_08h37.46.745,HF_wild_card,2022.2.4,Win32,59.97720866,60d4e8fcdb1959ca6fd4dfdd,64d2fd46c836a06233681665,64dc7c96321d9c6c9ffbb64f,,,,,,,decisionTrl,resources/DBN.BMP,resources/DB.BMP,Door3,0.425925926,-0.008333333,1,0,0,1.6315,optionRight,70,8895,4,36,0,36,0,1,,,,,,,,,,,,,,,,,,,,,,,,,,,,,,,,,,,,,,,
,,,,,,,,2023-08-16_08h37.46.745,HF_wild_card,2022.2.4,Win32,59.97720866,60d4e8fcdb1959ca6fd4dfdd,64d2fd46c836a06233681665,64dc7c96321d9c6c9ffbb64f,,,,,,,ctch,resources/DR.BMP,resources/DB.BMP,Door3,0.305555556,0.014814815,1,0,0,1.248,optionRight,70,8965,4,37,0,37,0,1,,,,,,,,,,,,,,,,,,,,,,,,,,,,,,,,,,,,,,,
,,,,,,,,2023-08-16_08h37.46.745,HF_wild_card,2022.2.4,Win32,59.97720866,60d4e8fcdb1959ca6fd4dfdd,64d2fd46c836a06233681665,64dc7c96321d9c6c9ffbb64f,,,,,,,decisionTrl,resources/DB.BMP,resources/DP.BMP,Door4,0.283333333,0.009259259,1,0,0,1.3648,optionRight,60,9025,4,38,0,38,0,1,,,,,,,,,,,,,,,,,,,,,,,,,,,,,,,,,,,,,,,
,,,,,,,,2023-08-16_08h37.46.745,HF_wild_card,2022.2.4,Win32,59.97720866,60d4e8fcdb1959ca6fd4dfdd,64d2fd46c836a06233681665,64dc7c96321d9c6c9ffbb64f,,,,,,,decisionTrl,resources/DP.BMP,resources/DB.BMP,Door4,-0.417592593,0.072222222,1,0,0,2.9981,optionLeft,60,9085,4,39,0,39,0,1,,,,,,,,,,,,,,,,,,,,,,,,,,,,,,,,,,,,,,,
,,,,,,,,2023-08-16_08h37.46.745,HF_wild_card,2022.2.4,Win32,59.97720866,60d4e8fcdb1959ca6fd4dfdd,64d2fd46c836a06233681665,64dc7c96321d9c6c9ffbb64f,,,,,,,decisionTrl,resources/DY.BMP,resources/DBN.BMP,WildCard_NonEx,0.337037037,0.025,1,0,0,1.6642,optionRight,45,9130,4,40,0,40,0,1,,,,,,,,,,,,,,,,,,,,,,,,,,,,,,,,,,,,,,,
,,,,,,,,2023-08-16_08h37.46.745,HF_wild_card,2022.2.4,Win32,59.97720866,60d4e8fcdb1959ca6fd4dfdd,64d2fd46c836a06233681665,64dc7c96321d9c6c9ffbb64f,,,,,,,decisionTrl,resources/DP.BMP,resources/DB.BMP,Door3,0.338888889,0.011111111,1,0,0,1.3149,optionRight,70,9200,4,41,0,41,0,1,,,,,,,,,,,,,,,,,,,,,,,,,,,,,,,,,,,,,,,
,,,,,,,,2023-08-16_08h37.46.745,HF_wild_card,2022.2.4,Win32,59.97720866,60d4e8fcdb1959ca6fd4dfdd,64d2fd46c836a06233681665,64dc7c96321d9c6c9ffbb64f,,,,,,,decisionTrl,resources/DY.BMP,resources/DR.BMP,Door1,-0.27037037,0.008333333,1,0,0,3.0652,optionLeft,30,9230,4,42,0,42,0,1,,,,,,,,,,,,,,,,,,,,,,,,,,,,,,,,,,,,,,,
,,,,,,,,2023-08-16_08h37.46.745,HF_wild_card,2022.2.4,Win32,59.97720866,60d4e8fcdb1959ca6fd4dfdd,64d2fd46c836a06233681665,64dc7c96321d9c6c9ffbb64f,,,,,,,ctch,resources/DP.BMP,resources/DY.BMP,Door4,-0.355555556,0.011111111,1,0,0,1.4813,optionLeft,60,9290,4,43,0,43,0,1,,,,,,,,,,,,,,,,,,,,,,,,,,,,,,,,,,,,,,,
,,,,,,,,2023-08-16_08h37.46.745,HF_wild_card,2022.2.4,Win32,59.97720866,60d4e8fcdb1959ca6fd4dfdd,64d2fd46c836a06233681665,64dc7c96321d9c6c9ffbb64f,,,,,,,,,,,,,,,,,,,,,,,,,,3,0,3,0,1,,,,,,,,,,,,,,,,,,,,,,,,,,,,,,,,,,
,,,,,,,,2023-08-16_08h37.46.745,HF_wild_card,2022.2.4,Win32,59.97720866,60d4e8fcdb1959ca6fd4dfdd,64d2fd46c836a06233681665,64dc7c96321d9c6c9ffbb64f,,,,,,,decisionTrl,resources/DY.BMP,resources/DR.BMP,Door1,-0.384259259,-0.094444444,1,0,0,7.2072,optionLeft,30,9320,5,0,0,0,0,1,,,,,,,,,,,,,,,,,,,,,,,,,,,,,,,,,,,,,,,
,,,,,,,,2023-08-16_08h37.46.745,HF_wild_card,2022.2.4,Win32,59.97720866,60d4e8fcdb1959ca6fd4dfdd,64d2fd46c836a06233681665,64dc7c96321d9c6c9ffbb64f,,,,,,,decisionTrl,resources/DY.BMP,resources/DR.BMP,Door1,-0.40462963,-0.007407407,1,0,0,1.8146,optionLeft,30,9350,5,1,0,1,0,1,,,,,,,,,,,,,,,,,,,,,,,,,,,,,,,,,,,,,,,
,,,,,,,,2023-08-16_08h37.46.745,HF_wild_card,2022.2.4,Win32,59.97720866,60d4e8fcdb1959ca6fd4dfdd,64d2fd46c836a06233681665,64dc7c96321d9c6c9ffbb64f,,,,,,,decisionTrl,resources/DR.BMP,resources/DY.BMP,Door1,0.362037037,-0.002777778,1,0,0,2.7655,optionRight,30,9380,5,2,0,2,0,1,,,,,,,,,,,,,,,,,,,,,,,,,,,,,,,,,,,,,,,
,,,,,,,,2023-08-16_08h37.46.745,HF_wild_card,2022.2.4,Win32,59.97720866,60d4e8fcdb1959ca6fd4dfdd,64d2fd46c836a06233681665,64dc7c96321d9c6c9ffbb64f,,,,,,,sngl,resources/Empty.png,resources/DP.BMP,Door4,0.323148148,-0.006481481,1,0,0,0.9819,optionRight,60,9440,5,3,0,3,0,1,,,,,,,,,,,,,,,,,,,,,,,,,,,,,,,,,,,,,,,
,,,,,,,,2023-08-16_08h37.46.745,HF_wild_card,2022.2.4,Win32,59.97720866,60d4e8fcdb1959ca6fd4dfdd,64d2fd46c836a06233681665,64dc7c96321d9c6c9ffbb64f,,,,,,,decisionTrl,resources/DY.BMP,resources/DR.BMP,Door1,-0.405555556,0.016666667,1,0,0,3.3642,optionLeft,30,9470,5,4,0,4,0,1,,,,,,,,,,,,,,,,,,,,,,,,,,,,,,,,,,,,,,,
,,,,,,,,2023-08-16_08h37.46.745,HF_wild_card,2022.2.4,Win32,59.97720866,60d4e8fcdb1959ca6fd4dfdd,64d2fd46c836a06233681665,64dc7c96321d9c6c9ffbb64f,,,,,,,ctch,resources/DR.BMP,resources/DB.BMP,Door3,0.306481481,-0.009259259,1,0,0,1.2757,optionRight,70,9540,5,5,0,5,0,1,,,,,,,,,,,,,,,,,,,,,,,,,,,,,,,,,,,,,,,
,,,,,,,,2023-08-16_08h37.46.745,HF_wild_card,2022.2.4,Win32,59.97720866,60d4e8fcdb1959ca6fd4dfdd,64d2fd46c836a06233681665,64dc7c96321d9c6c9ffbb64f,,,,,,,sngl,resources/DP.BMP,resources/Empty.png,Door4,-0.358333333,-0.001851852,1,0,0,1.065,optionLeft,80,9620,5,6,0,6,0,1,,,,,,,,,,,,,,,,,,,,,,,,,,,,,,,,,,,,,,,
,,,,,,,,2023-08-16_08h37.46.745,HF_wild_card,2022.2.4,Win32,59.97720866,60d4e8fcdb1959ca6fd4dfdd,64d2fd46c836a06233681665,64dc7c96321d9c6c9ffbb64f,,,,,,,decisionTrl,resources/DR.BMP,resources/DBN.BMP,WildCard_NonEx,0.326851852,0.007407407,1,0,0,2.265,optionRight,55,9675,5,7,0,7,0,1,,,,,,,,,,,,,,,,,,,,,,,,,,,,,,,,,,,,,,,
,,,,,,,,2023-08-16_08h37.46.745,HF_wild_card,2022.2.4,Win32,59.97720866,60d4e8fcdb1959ca6fd4dfdd,64d2fd46c836a06233681665,64dc7c96321d9c6c9ffbb64f,,,,,,,decisionTrl,resources/DP.BMP,resources/DBN.BMP,Door4,-0.441666667,0.006481481,1,0,0,2.0647,optionLeft,60,9735,5,8,0,8,0,1,,,,,,,,,,,,,,,,,,,,,,,,,,,,,,,,,,,,,,,
,,,,,,,,2023-08-16_08h37.46.745,HF_wild_card,2022.2.4,Win32,59.97720866,60d4e8fcdb1959ca6fd4dfdd,64d2fd46c836a06233681665,64dc7c96321d9c6c9ffbb64f,,,,,,,ctch,resources/DY.BMP,resources/DP.BMP,Door4,0.437962963,-0.007407407,1,0,0,1.6149,optionRight,60,9795,5,9,0,9,0,1,,,,,,,,,,,,,,,,,,,,,,,,,,,,,,,,,,,,,,,
,,,,,,,,2023-08-16_08h37.46.745,HF_wild_card,2022.2.4,Win32,59.97720866,60d4e8fcdb1959ca6fd4dfdd,64d2fd46c836a06233681665,64dc7c96321d9c6c9ffbb64f,,,,,,,decisionTrl,resources/DB.BMP,resources/DP.BMP,Door3,-0.333333333,0.005555556,1,0,0,1.415,optionLeft,70,9865,5,10,0,10,0,1,,,,,,,,,,,,,,,,,,,,,,,,,,,,,,,,,,,,,,,
,,,,,,,,2023-08-16_08h37.46.745,HF_wild_card,2022.2.4,Win32,59.97720866,60d4e8fcdb1959ca6fd4dfdd,64d2fd46c836a06233681665,64dc7c96321d9c6c9ffbb64f,,,,,,,ctch,resources/DP.BMP,resources/DY.BMP,Door4,-0.380555556,-0.009259259,1,0,0,1.5815,optionLeft,80,9945,5,11,0,11,0,1,,,,,,,,,,,,,,,,,,,,,,,,,,,,,,,,,,,,,,,
,,,,,,,,2023-08-16_08h37.46.745,HF_wild_card,2022.2.4,Win32,59.97720866,60d4e8fcdb1959ca6fd4dfdd,64d2fd46c836a06233681665,64dc7c96321d9c6c9ffbb64f,,,,,,,decisionTrl,resources/DB.BMP,resources/DP.BMP,Door3,-0.362962963,-0.000925926,1,0,0,1.5816,optionLeft,70,10015,5,12,0,12,0,1,,,,,,,,,,,,,,,,,,,,,,,,,,,,,,,,,,,,,,,
,,,,,,,,2023-08-16_08h37.46.745,HF_wild_card,2022.2.4,Win32,59.97720866,60d4e8fcdb1959ca6fd4dfdd,64d2fd46c836a06233681665,64dc7c96321d9c6c9ffbb64f,,,,,,,decisionTrl,resources/DY.BMP,resources/DR.BMP,Door1,-0.308333333,0.009259259,1,0,0,1.8815,optionLeft,30,10045,5,13,0,13,0,1,,,,,,,,,,,,,,,,,,,,,,,,,,,,,,,,,,,,,,,
,,,,,,,,2023-08-16_08h37.46.745,HF_wild_card,2022.2.4,Win32,59.97720866,60d4e8fcdb1959ca6fd4dfdd,64d2fd46c836a06233681665,64dc7c96321d9c6c9ffbb64f,,,,,,,sngl,resources/Empty.png,resources/DBN.BMP,WildCard_NonEx,0.357407407,-0.02037037,1,0,0,0.9819,optionRight,55,10100,5,14,0,14,0,1,,,,,,,,,,,,,,,,,,,,,,,,,,,,,,,,,,,,,,,
,,,,,,,,2023-08-16_08h37.46.745,HF_wild_card,2022.2.4,Win32,59.97720866,60d4e8fcdb1959ca6fd4dfdd,64d2fd46c836a06233681665,64dc7c96321d9c6c9ffbb64f,,,,,,,decisionTrl,resources/DR.BMP,resources/DY.BMP,Door1,0.314814815,-0.010185185,1,0,0,1.9817,optionRight,30,10130,5,15,0,15,0,1,,,,,,,,,,,,,,,,,,,,,,,,,,,,,,,,,,,,,,,
,,,,,,,,2023-08-16_08h37.46.745,HF_wild_card,2022.2.4,Win32,59.97720866,60d4e8fcdb1959ca6fd4dfdd,64d2fd46c836a06233681665,64dc7c96321d9c6c9ffbb64f,,,,,,,decisionTrl,resources/DP.BMP,resources/DB.BMP,Door3,0.242592593,-0.005555556,1,0,0,1.665,optionRight,70,10200,5,16,0,16,0,1,,,,,,,,,,,,,,,,,,,,,,,,,,,,,,,,,,,,,,,
,,,,,,,,2023-08-16_08h37.46.745,HF_wild_card,2022.2.4,Win32,59.97720866,60d4e8fcdb1959ca6fd4dfdd,64d2fd46c836a06233681665,64dc7c96321d9c6c9ffbb64f,,,,,,,sngl,resources/DR.BMP,resources/Empty.png,Door2,-0.276851852,0.012962963,1,0,0,1.4482,optionLeft,40,10240,5,17,0,17,0,1,,,,,,,,,,,,,,,,,,,,,,,,,,,,,,,,,,,,,,,
,,,,,,,,2023-08-16_08h37.46.745,HF_wild_card,2022.2.4,Win32,59.97720866,60d4e8fcdb1959ca6fd4dfdd,64d2fd46c836a06233681665,64dc7c96321d9c6c9ffbb64f,,,,,,,decisionTrl,resources/DP.BMP,resources/DB.BMP,Door3,0.359259259,-0.012037037,1,0,0,1.7141,optionRight,70,10310,5,18,0,18,0,1,,,,,,,,,,,,,,,,,,,,,,,,,,,,,,,,,,,,,,,
,,,,,,,,2023-08-16_08h37.46.745,HF_wild_card,2022.2.4,Win32,59.97720866,60d4e8fcdb1959ca6fd4dfdd,64d2fd46c836a06233681665,64dc7c96321d9c6c9ffbb64f,,,,,,,decisionTrl,resources/DB.BMP,resources/DBN.BMP,Door3,-0.366666667,0.002777778,1,0,0,1.4811,optionLeft,70,10380,5,19,0,19,0,1,,,,,,,,,,,,,,,,,,,,,,,,,,,,,,,,,,,,,,,
,,,,,,,,2023-08-16_08h37.46.745,HF_wild_card,2022.2.4,Win32,59.97720866,60d4e8fcdb1959ca6fd4dfdd,64d2fd46c836a06233681665,64dc7c96321d9c6c9ffbb64f,,,,,,,ctch,resources/DB.BMP,resources/DR.BMP,Door3,-0.368518519,-0.008333333,1,0,0,1.1984,optionLeft,70,10450,5,20,0,20,0,1,,,,,,,,,,,,,,,,,,,,,,,,,,,,,,,,,,,,,,,
,,,,,,,,2023-08-16_08h37.46.745,HF_wild_card,2022.2.4,Win32,59.97720866,60d4e8fcdb1959ca6fd4dfdd,64d2fd46c836a06233681665,64dc7c96321d9c6c9ffbb64f,,,,,,,decisionTrl,resources/DR.BMP,resources/DY.BMP,Door2,-0.400925926,0.017592593,1,0,0,1.715,optionLeft,40,10490,5,21,0,21,0,1,,,,,,,,,,,,,,,,,,,,,,,,,,,,,,,,,,,,,,,
,,,,,,,,2023-08-16_08h37.46.745,HF_wild_card,2022.2.4,Win32,59.97720866,60d4e8fcdb1959ca6fd4dfdd,64d2fd46c836a06233681665,64dc7c96321d9c6c9ffbb64f,,,,,,,decisionTrl,resources/DP.BMP,resources/DB.BMP,Door3,0.331481481,-0.007407407,1,0,0,1.5485,optionRight,70,10560,5,22,0,22,0,1,,,,,,,,,,,,,,,,,,,,,,,,,,,,,,,,,,,,,,,
,,,,,,,,2023-08-16_08h37.46.745,HF_wild_card,2022.2.4,Win32,59.97720866,60d4e8fcdb1959ca6fd4dfdd,64d2fd46c836a06233681665,64dc7c96321d9c6c9ffbb64f,,,,,,,ctch,resources/DB.BMP,resources/DR.BMP,Door3,-0.364814815,0.003703704,1,0,0,1.1648,optionLeft,70,10630,5,23,0,23,0,1,,,,,,,,,,,,,,,,,,,,,,,,,,,,,,,,,,,,,,,
,,,,,,,,2023-08-16_08h37.46.745,HF_wild_card,2022.2.4,Win32,59.97720866,60d4e8fcdb1959ca6fd4dfdd,64d2fd46c836a06233681665,64dc7c96321d9c6c9ffbb64f,,,,,,,decisionTrl,resources/DBN.BMP,resources/DR.BMP,WildCard_NonEx,-0.32962963,0.005555556,1,0,0,2.8316,optionLeft,55,10685,5,24,0,24,0,1,,,,,,,,,,,,,,,,,,,,,,,,,,,,,,,,,,,,,,,
,,,,,,,,2023-08-16_08h37.46.745,HF_wild_card,2022.2.4,Win32,59.97720866,60d4e8fcdb1959ca6fd4dfdd,64d2fd46c836a06233681665,64dc7c96321d9c6c9ffbb64f,,,,,,,decisionTrl,resources/DP.BMP,resources/DB.BMP,Door3,0.42962963,-0.001851852,1,0,0,1.2646,optionRight,70,10755,5,25,0,25,0,1,,,,,,,,,,,,,,,,,,,,,,,,,,,,,,,,,,,,,,,
,,,,,,,,2023-08-16_08h37.46.745,HF_wild_card,2022.2.4,Win32,59.97720866,60d4e8fcdb1959ca6fd4dfdd,64d2fd46c836a06233681665,64dc7c96321d9c6c9ffbb64f,,,,,,,sngl,resources/DBN.BMP,resources/Empty.png,WildCard_NonEx,-0.29537037,0.012037037,1,0,0,1.3816,optionLeft,55,10810,5,26,0,26,0,1,,,,,,,,,,,,,,,,,,,,,,,,,,,,,,,,,,,,,,,
,,,,,,,,2023-08-16_08h37.46.745,HF_wild_card,2022.2.4,Win32,59.97720866,60d4e8fcdb1959ca6fd4dfdd,64d2fd46c836a06233681665,64dc7c96321d9c6c9ffbb64f,,,,,,,sngl,resources/DB.BMP,resources/Empty.png,Door3,-0.280555556,-0.000925926,1,0,0,1.0419,optionLeft,70,10880,5,27,0,27,0,1,,,,,,,,,,,,,,,,,,,,,,,,,,,,,,,,,,,,,,,
,,,,,,,,2023-08-16_08h37.46.745,HF_wild_card,2022.2.4,Win32,59.97720866,60d4e8fcdb1959ca6fd4dfdd,64d2fd46c836a06233681665,64dc7c96321d9c6c9ffbb64f,,,,,,,ctch,resources/DP.BMP,resources/DY.BMP,Door4,-0.350925926,-0.008333333,1,0,0,1.7149,optionLeft,80,10960,5,28,0,28,0,1,,,,,,,,,,,,,,,,,,,,,,,,,,,,,,,,,,,,,,,
,,,,,,,,2023-08-16_08h37.46.745,HF_wild_card,2022.2.4,Win32,59.97720866,60d4e8fcdb1959ca6fd4dfdd,64d2fd46c836a06233681665,64dc7c96321d9c6c9ffbb64f,,,,,,,decisionTrl,resources/DY.BMP,resources/DBN.BMP,WildCard_NonEx,0.413888889,-0.015740741,1,0,0,2.099,optionRight,55,11015,5,29,0,29,0,1,,,,,,,,,,,,,,,,,,,,,,,,,,,,,,,,,,,,,,,
,,,,,,,,2023-08-16_08h37.46.745,HF_wild_card,2022.2.4,Win32,59.97720866,60d4e8fcdb1959ca6fd4dfdd,64d2fd46c836a06233681665,64dc7c96321d9c6c9ffbb64f,,,,,,,ctch,resources/DY.BMP,resources/DP.BMP,Door4,0.321296296,-0.007407407,1,0,0,1.4149,optionRight,60,11075,5,30,0,30,0,1,,,,,,,,,,,,,,,,,,,,,,,,,,,,,,,,,,,,,,,
,,,,,,,,2023-08-16_08h37.46.745,HF_wild_card,2022.2.4,Win32,59.97720866,60d4e8fcdb1959ca6fd4dfdd,64d2fd46c836a06233681665,64dc7c96321d9c6c9ffbb64f,,,,,,,decisionTrl,resources/DR.BMP,resources/DY.BMP,Door2,-0.303703704,0.005555556,1,0,0,2.5148,optionLeft,20,11095,5,31,0,31,0,1,,,,,,,,,,,,,,,,,,,,,,,,,,,,,,,,,,,,,,,
,,,,,,,,2023-08-16_08h37.46.745,HF_wild_card,2022.2.4,Win32,59.97720866,60d4e8fcdb1959ca6fd4dfdd,64d2fd46c836a06233681665,64dc7c96321d9c6c9ffbb64f,,,,,,,decisionTrl,resources/DBN.BMP,resources/DB.BMP,Door3,0.315740741,-0.008333333,1,0,0,1.1476,optionRight,70,11165,5,32,0,32,0,1,,,,,,,,,,,,,,,,,,,,,,,,,,,,,,,,,,,,,,,
,,,,,,,,2023-08-16_08h37.46.745,HF_wild_card,2022.2.4,Win32,59.97720866,60d4e8fcdb1959ca6fd4dfdd,64d2fd46c836a06233681665,64dc7c96321d9c6c9ffbb64f,,,,,,,sngl,resources/Empty.png,resources/DBN.BMP,WildCard_NonEx,0.263888889,-0.013888889,1,0,0,0.9983,optionRight,45,11210,5,33,0,33,0,1,,,,,,,,,,,,,,,,,,,,,,,,,,,,,,,,,,,,,,,
,,,,,,,,2023-08-16_08h37.46.745,HF_wild_card,2022.2.4,Win32,59.97720866,60d4e8fcdb1959ca6fd4dfdd,64d2fd46c836a06233681665,64dc7c96321d9c6c9ffbb64f,,,,,,,decisionTrl,resources/DBN.BMP,resources/DY.BMP,WildCard_NonEx,-0.355555556,0.009259259,1,0,0,3.8319,optionLeft,55,11265,5,34,0,34,0,1,,,,,,,,,,,,,,,,,,,,,,,,,,,,,,,,,,,,,,,
,,,,,,,,2023-08-16_08h37.46.745,HF_wild_card,2022.2.4,Win32,59.97720866,60d4e8fcdb1959ca6fd4dfdd,64d2fd46c836a06233681665,64dc7c96321d9c6c9ffbb64f,,,,,,,ctch,resources/DR.BMP,resources/DB.BMP,Door3,0.274074074,-0.008333333,1,0,0,1.3813,optionRight,70,11335,5,35,0,35,0,1,,,,,,,,,,,,,,,,,,,,,,,,,,,,,,,,,,,,,,,
,,,,,,,,2023-08-16_08h37.46.745,HF_wild_card,2022.2.4,Win32,59.97720866,60d4e8fcdb1959ca6fd4dfdd,64d2fd46c836a06233681665,64dc7c96321d9c6c9ffbb64f,,,,,,,sngl,resources/DY.BMP,resources/Empty.png,Door1,-0.265740741,0.016666667,1,0,0,1.1149,optionLeft,30,11365,5,36,0,36,0,1,,,,,,,,,,,,,,,,,,,,,,,,,,,,,,,,,,,,,,,
,,,,,,,,2023-08-16_08h37.46.745,HF_wild_card,2022.2.4,Win32,59.97720866,60d4e8fcdb1959ca6fd4dfdd,64d2fd46c836a06233681665,64dc7c96321d9c6c9ffbb64f,,,,,,,sngl,resources/Empty.png,resources/DR.BMP,Door2,0.318518519,0.002777778,1,0,0,0.9493,optionRight,20,11385,5,37,0,37,0,1,,,,,,,,,,,,,,,,,,,,,,,,,,,,,,,,,,,,,,,
,,,,,,,,2023-08-16_08h37.46.745,HF_wild_card,2022.2.4,Win32,59.97720866,60d4e8fcdb1959ca6fd4dfdd,64d2fd46c836a06233681665,64dc7c96321d9c6c9ffbb64f,,,,,,,decisionTrl,resources/DB.BMP,resources/DP.BMP,Door3,-0.421296296,0.003703704,1,0,0,1.9806,optionLeft,70,11455,5,38,0,38,0,1,,,,,,,,,,,,,,,,,,,,,,,,,,,,,,,,,,,,,,,
,,,,,,,,2023-08-16_08h37.46.745,HF_wild_card,2022.2.4,Win32,59.97720866,60d4e8fcdb1959ca6fd4dfdd,64d2fd46c836a06233681665,64dc7c96321d9c6c9ffbb64f,,,,,,,decisionTrl,resources/DB.BMP,resources/DP.BMP,Door3,-0.323148148,0.007407407,1,0,0,0.9817,optionLeft,70,11525,5,39,0,39,0,1,,,,,,,,,,,,,,,,,,,,,,,,,,,,,,,,,,,,,,,
,,,,,,,,2023-08-16_08h37.46.745,HF_wild_card,2022.2.4,Win32,59.97720866,60d4e8fcdb1959ca6fd4dfdd,64d2fd46c836a06233681665,64dc7c96321d9c6c9ffbb64f,,,,,,,decisionTrl,resources/DBN.BMP,resources/DP.BMP,Door4,0.287962963,-0.011111111,1,0,0,2.0819,optionRight,80,11605,5,40,0,40,0,1,,,,,,,,,,,,,,,,,,,,,,,,,,,,,,,,,,,,,,,
,,,,,,,,2023-08-16_08h37.46.745,HF_wild_card,2022.2.4,Win32,59.97720866,60d4e8fcdb1959ca6fd4dfdd,64d2fd46c836a06233681665,64dc7c96321d9c6c9ffbb64f,,,,,,,sngl,resources/Empty.png,resources/DB.BMP,Door3,0.234259259,-0.011111111,1,0,0,1.1154,optionRight,70,11675,5,41,0,41,0,1,,,,,,,,,,,,,,,,,,,,,,,,,,,,,,,,,,,,,,,
,,,,,,,,2023-08-16_08h37.46.745,HF_wild_card,2022.2.4,Win32,59.97720866,60d4e8fcdb1959ca6fd4dfdd,64d2fd46c836a06233681665,64dc7c96321d9c6c9ffbb64f,,,,,,,sngl,resources/DBN.BMP,resources/Empty.png,WildCard_NonEx,-0.387037037,0.023148148,1,0,0,1.3137,optionLeft,45,11720,5,42,0,42,0,1,,,,,,,,,,,,,,,,,,,,,,,,,,,,,,,,,,,,,,,
,,,,,,,,2023-08-16_08h37.46.745,HF_wild_card,2022.2.4,Win32,59.97720866,60d4e8fcdb1959ca6fd4dfdd,64d2fd46c836a06233681665,64dc7c96321d9c6c9ffbb64f,,,,,,,sngl,resources/Empty.png,resources/DY.BMP,Door1,0.285185185,-0.012962963,1,0,0,1.6978,optionRight,30,11750,5,43,0,43,0,1,,,,,,,,,,,,,,,,,,,,,,,,,,,,,,,,,,,,,,,
,,,,,,,,2023-08-16_08h37.46.745,HF_wild_card,2022.2.4,Win32,59.97720866,60d4e8fcdb1959ca6fd4dfdd,64d2fd46c836a06233681665,64dc7c96321d9c6c9ffbb64f,,,,,,,,,,,,,,,,,,,,,,,,,,4,0,4,0,1,,,,,,,,,,,,,,,,,,,,,,,,,,,,,,,,,,
,,,,,,,,2023-08-16_08h37.46.745,HF_wild_card,2022.2.4,Win32,59.97720866,60d4e8fcdb1959ca6fd4dfdd,64d2fd46c836a06233681665,64dc7c96321d9c6c9ffbb64f,,,,,,,decisionTrl,resources/DBN.BMP,resources/DB.BMP,Door3,0.392592593,-0.073148148,1,0,0,1.2069,optionRight,70,11820,6,0,0,0,0,1,,,,,,,,,,,,,,,,,,,,,,,,,,,,,,,,,,,,,,,
,,,,,,,,2023-08-16_08h37.46.745,HF_wild_card,2022.2.4,Win32,59.97720866,60d4e8fcdb1959ca6fd4dfdd,64d2fd46c836a06233681665,64dc7c96321d9c6c9ffbb64f,,,,,,,sngl,resources/Empty.png,resources/DBN.BMP,WildCard_NonEx,0.348148148,0.010185185,1,0,0,0.8651,optionRight,55,11875,6,1,0,1,0,1,,,,,,,,,,,,,,,,,,,,,,,,,,,,,,,,,,,,,,,
,,,,,,,,2023-08-16_08h37.46.745,HF_wild_card,2022.2.4,Win32,59.97720866,60d4e8fcdb1959ca6fd4dfdd,64d2fd46c836a06233681665,64dc7c96321d9c6c9ffbb64f,,,,,,,ctch,resources/DP.BMP,resources/DY.BMP,Door4,-0.457407407,0.003703704,1,0,0,1.4658,optionLeft,60,11935,6,2,0,2,0,1,,,,,,,,,,,,,,,,,,,,,,,,,,,,,,,,,,,,,,,
,,,,,,,,2023-08-16_08h37.46.745,HF_wild_card,2022.2.4,Win32,59.97720866,60d4e8fcdb1959ca6fd4dfdd,64d2fd46c836a06233681665,64dc7c96321d9c6c9ffbb64f,,,,,,,sngl,resources/Empty.png,resources/DB.BMP,Door3,0.376851852,0.000925926,1,0,0,0.8647,optionRight,70,12005,6,3,0,3,0,1,,,,,,,,,,,,,,,,,,,,,,,,,,,,,,,,,,,,,,,
,,,,,,,,2023-08-16_08h37.46.745,HF_wild_card,2022.2.4,Win32,59.97720866,60d4e8fcdb1959ca6fd4dfdd,64d2fd46c836a06233681665,64dc7c96321d9c6c9ffbb64f,,,,,,,ctch,resources/DR.BMP,resources/DB.BMP,Door3,0.37037037,0.025925926,1,0,0,1.598,optionRight,70,12075,6,4,0,4,0,1,,,,,,,,,,,,,,,,,,,,,,,,,,,,,,,,,,,,,,,
,,,,,,,,2023-08-16_08h37.46.745,HF_wild_card,2022.2.4,Win32,59.97720866,60d4e8fcdb1959ca6fd4dfdd,64d2fd46c836a06233681665,64dc7c96321d9c6c9ffbb64f,,,,,,,decisionTrl,resources/DP.BMP,resources/DBN.BMP,Door4,-0.330555556,0.000925926,1,0,0,1.4813,optionLeft,60,12135,6,5,0,5,0,1,,,,,,,,,,,,,,,,,,,,,,,,,,,,,,,,,,,,,,,
,,,,,,,,2023-08-16_08h37.46.745,HF_wild_card,2022.2.4,Win32,59.97720866,60d4e8fcdb1959ca6fd4dfdd,64d2fd46c836a06233681665,64dc7c96321d9c6c9ffbb64f,,,,,,,decisionTrl,resources/DY.BMP,resources/DR.BMP,Door2,0.359259259,-0.012962963,1,0,0,2.759,optionRight,20,12155,6,6,0,6,0,1,,,,,,,,,,,,,,,,,,,,,,,,,,,,,,,,,,,,,,,
,,,,,,,,2023-08-16_08h37.46.745,HF_wild_card,2022.2.4,Win32,59.97720866,60d4e8fcdb1959ca6fd4dfdd,64d2fd46c836a06233681665,64dc7c96321d9c6c9ffbb64f,,,,,,,ctch,resources/DB.BMP,resources/DR.BMP,Door3,-0.314814815,0.005555556,1,0,0,1.2818,optionLeft,70,12225,6,7,0,7,0,1,,,,,,,,,,,,,,,,,,,,,,,,,,,,,,,,,,,,,,,
,,,,,,,,2023-08-16_08h37.46.745,HF_wild_card,2022.2.4,Win32,59.97720866,60d4e8fcdb1959ca6fd4dfdd,64d2fd46c836a06233681665,64dc7c96321d9c6c9ffbb64f,,,,,,,sngl,resources/DY.BMP,resources/Empty.png,Door1,-0.278703704,0.019444444,1,0,0,0.9318,optionLeft,30,12255,6,8,0,8,0,1,,,,,,,,,,,,,,,,,,,,,,,,,,,,,,,,,,,,,,,
,,,,,,,,2023-08-16_08h37.46.745,HF_wild_card,2022.2.4,Win32,59.97720866,60d4e8fcdb1959ca6fd4dfdd,64d2fd46c836a06233681665,64dc7c96321d9c6c9ffbb64f,,,,,,,decisionTrl,resources/DY.BMP,resources/DBN.BMP,WildCard_NonEx,0.431481481,-0.011111111,1,0,0,1.3148,optionRight,45,12300,6,9,0,9,0,1,,,,,,,,,,,,,,,,,,,,,,,,,,,,,,,,,,,,,,,
,,,,,,,,2023-08-16_08h37.46.745,HF_wild_card,2022.2.4,Win32,59.97720866,60d4e8fcdb1959ca6fd4dfdd,64d2fd46c836a06233681665,64dc7c96321d9c6c9ffbb64f,,,,,,,ctch,resources/DP.BMP,resources/DY.BMP,Door4,-0.300925926,0.000925926,1,0,0,1.6816,optionLeft,60,12360,6,10,0,10,0,1,,,,,,,,,,,,,,,,,,,,,,,,,,,,,,,,,,,,,,,
,,,,,,,,2023-08-16_08h37.46.745,HF_wild_card,2022.2.4,Win32,59.97720866,60d4e8fcdb1959ca6fd4dfdd,64d2fd46c836a06233681665,64dc7c96321d9c6c9ffbb64f,,,,,,,decisionTrl,resources/DB.BMP,resources/DP.BMP,Door3,-0.301851852,-0.013888889,1,0,0,1.3318,optionLeft,70,12430,6,11,0,11,0,1,,,,,,,,,,,,,,,,,,,,,,,,,,,,,,,,,,,,,,,
,,,,,,,,2023-08-16_08h37.46.745,HF_wild_card,2022.2.4,Win32,59.97720866,60d4e8fcdb1959ca6fd4dfdd,64d2fd46c836a06233681665,64dc7c96321d9c6c9ffbb64f,,,,,,,decisionTrl,resources/DB.BMP,resources/DP.BMP,Door3,-0.357407407,-0.008333333,1,0,0,1.3151,optionLeft,70,12500,6,12,0,12,0,1,,,,,,,,,,,,,,,,,,,,,,,,,,,,,,,,,,,,,,,
,,,,,,,,2023-08-16_08h37.46.745,HF_wild_card,2022.2.4,Win32,59.97720866,60d4e8fcdb1959ca6fd4dfdd,64d2fd46c836a06233681665,64dc7c96321d9c6c9ffbb64f,,,,,,,decisionTrl,resources/DR.BMP,resources/DBN.BMP,WildCard_NonEx,0.476851852,-0.010185185,1,0,0,1.398,optionRight,55,12555,6,13,0,13,0,1,,,,,,,,,,,,,,,,,,,,,,,,,,,,,,,,,,,,,,,
,,,,,,,,2023-08-16_08h37.46.745,HF_wild_card,2022.2.4,Win32,59.97720866,60d4e8fcdb1959ca6fd4dfdd,64d2fd46c836a06233681665,64dc7c96321d9c6c9ffbb64f,,,,,,,ctch,resources/DY.BMP,resources/DP.BMP,Door4,0.315740741,-0.024074074,1,0,0,1.1318,optionRight,60,12615,6,14,0,14,0,1,,,,,,,,,,,,,,,,,,,,,,,,,,,,,,,,,,,,,,,
,,,,,,,,2023-08-16_08h37.46.745,HF_wild_card,2022.2.4,Win32,59.97720866,60d4e8fcdb1959ca6fd4dfdd,64d2fd46c836a06233681665,64dc7c96321d9c6c9ffbb64f,,,,,,,decisionTrl,resources/DP.BMP,resources/DB.BMP,Door3,0.30462963,0.001851852,1,0,0,1.3652,optionRight,70,12685,6,15,0,15,0,1,,,,,,,,,,,,,,,,,,,,,,,,,,,,,,,,,,,,,,,
,,,,,,,,2023-08-16_08h37.46.745,HF_wild_card,2022.2.4,Win32,59.97720866,60d4e8fcdb1959ca6fd4dfdd,64d2fd46c836a06233681665,64dc7c96321d9c6c9ffbb64f,,,,,,,decisionTrl,resources/DY.BMP,resources/DR.BMP,Door1,-0.378703704,0.075,1,0,0,2.5149,optionLeft,30,12715,6,16,0,16,0,1,,,,,,,,,,,,,,,,,,,,,,,,,,,,,,,,,,,,,,,
,,,,,,,,2023-08-16_08h37.46.745,HF_wild_card,2022.2.4,Win32,59.97720866,60d4e8fcdb1959ca6fd4dfdd,64d2fd46c836a06233681665,64dc7c96321d9c6c9ffbb64f,,,,,,,decisionTrl,resources/DP.BMP,resources/DB.BMP,Door3,0.231481481,-0.000925926,1,0,0,1.2317,optionRight,70,12785,6,17,0,17,0,1,,,,,,,,,,,,,,,,,,,,,,,,,,,,,,,,,,,,,,,
,,,,,,,,2023-08-16_08h37.46.745,HF_wild_card,2022.2.4,Win32,59.97720866,60d4e8fcdb1959ca6fd4dfdd,64d2fd46c836a06233681665,64dc7c96321d9c6c9ffbb64f,,,,,,,decisionTrl,resources/DR.BMP,resources/DY.BMP,Door1,0.290740741,0.005555556,1,0,0,3.4084,optionRight,30,12815,6,18,0,18,0,1,,,,,,,,,,,,,,,,,,,,,,,,,,,,,,,,,,,,,,,
,,,,,,,,2023-08-16_08h37.46.745,HF_wild_card,2022.2.4,Win32,59.97720866,60d4e8fcdb1959ca6fd4dfdd,64d2fd46c836a06233681665,64dc7c96321d9c6c9ffbb64f,,,,,,,sngl,resources/DP.BMP,resources/Empty.png,Door4,-0.324074074,-0.000925926,1,0,0,1.2985,optionLeft,60,12875,6,19,0,19,0,1,,,,,,,,,,,,,,,,,,,,,,,,,,,,,,,,,,,,,,,
,,,,,,,,2023-08-16_08h37.46.745,HF_wild_card,2022.2.4,Win32,59.97720866,60d4e8fcdb1959ca6fd4dfdd,64d2fd46c836a06233681665,64dc7c96321d9c6c9ffbb64f,,,,,,,decisionTrl,resources/DB.BMP,resources/DP.BMP,Door3,-0.35,0.002777778,1,0,0,1.1322,optionLeft,70,12945,6,20,0,20,0,1,,,,,,,,,,,,,,,,,,,,,,,,,,,,,,,,,,,,,,,
,,,,,,,,2023-08-16_08h37.46.745,HF_wild_card,2022.2.4,Win32,59.97720866,60d4e8fcdb1959ca6fd4dfdd,64d2fd46c836a06233681665,64dc7c96321d9c6c9ffbb64f,,,,,,,ctch,resources/DB.BMP,resources/DR.BMP,Door3,-0.318518519,0.006481481,1,0,0,1.4256,optionLeft,70,13015,6,21,0,21,0,1,,,,,,,,,,,,,,,,,,,,,,,,,,,,,,,,,,,,,,,
,,,,,,,,2023-08-16_08h37.46.745,HF_wild_card,2022.2.4,Win32,59.97720866,60d4e8fcdb1959ca6fd4dfdd,64d2fd46c836a06233681665,64dc7c96321d9c6c9ffbb64f,,,,,,,decisionTrl,resources/DP.BMP,resources/DB.BMP,Door3,0.292592593,-0.00462963,1,0,0,1.1985,optionRight,70,13085,6,22,0,22,0,1,,,,,,,,,,,,,,,,,,,,,,,,,,,,,,,,,,,,,,,
,,,,,,,,2023-08-16_08h37.46.745,HF_wild_card,2022.2.4,Win32,59.97720866,60d4e8fcdb1959ca6fd4dfdd,64d2fd46c836a06233681665,64dc7c96321d9c6c9ffbb64f,,,,,,,sngl,resources/Empty.png,resources/DY.BMP,Door1,0.330555556,-0.001851852,1,0,0,1.2483,optionRight,30,13115,6,23,0,23,0,1,,,,,,,,,,,,,,,,,,,,,,,,,,,,,,,,,,,,,,,
,,,,,,,,2023-08-16_08h37.46.745,HF_wild_card,2022.2.4,Win32,59.97720866,60d4e8fcdb1959ca6fd4dfdd,64d2fd46c836a06233681665,64dc7c96321d9c6c9ffbb64f,,,,,,,ctch,resources/DR.BMP,resources/DB.BMP,Door3,0.247222222,-0.019444444,1,0,0,1.5146,optionRight,70,13185,6,24,0,24,0,1,,,,,,,,,,,,,,,,,,,,,,,,,,,,,,,,,,,,,,,
,,,,,,,,2023-08-16_08h37.46.745,HF_wild_card,2022.2.4,Win32,59.97720866,60d4e8fcdb1959ca6fd4dfdd,64d2fd46c836a06233681665,64dc7c96321d9c6c9ffbb64f,,,,,,,decisionTrl,resources/DP.BMP,resources/DB.BMP,Door3,0.256481481,-0.008333333,1,0,0,1.5146,optionRight,70,13255,6,25,0,25,0,1,,,,,,,,,,,,,,,,,,,,,,,,,,,,,,,,,,,,,,,
,,,,,,,,2023-08-16_08h37.46.745,HF_wild_card,2022.2.4,Win32,59.97720866,60d4e8fcdb1959ca6fd4dfdd,64d2fd46c836a06233681665,64dc7c96321d9c6c9ffbb64f,,,,,,,decisionTrl,resources/DBN.BMP,resources/DY.BMP,WildCard_NonEx,-0.310185185,0.016666667,1,0,0,1.8819,optionLeft,45,13300,6,26,0,26,0,1,,,,,,,,,,,,,,,,,,,,,,,,,,,,,,,,,,,,,,,
,,,,,,,,2023-08-16_08h37.46.745,HF_wild_card,2022.2.4,Win32,59.97720866,60d4e8fcdb1959ca6fd4dfdd,64d2fd46c836a06233681665,64dc7c96321d9c6c9ffbb64f,,,,,,,decisionTrl,resources/DB.BMP,resources/DBN.BMP,Door3,-0.394444444,0.005555556,1,0,0,1.6319,optionLeft,70,13370,6,27,0,27,0,1,,,,,,,,,,,,,,,,,,,,,,,,,,,,,,,,,,,,,,,
,,,,,,,,2023-08-16_08h37.46.745,HF_wild_card,2022.2.4,Win32,59.97720866,60d4e8fcdb1959ca6fd4dfdd,64d2fd46c836a06233681665,64dc7c96321d9c6c9ffbb64f,,,,,,,sngl,resources/Empty.png,resources/DP.BMP,Door4,0.368518519,-0.012962963,1,0,0,1.1152,optionRight,80,13450,6,28,0,28,0,1,,,,,,,,,,,,,,,,,,,,,,,,,,,,,,,,,,,,,,,
,,,,,,,,2023-08-16_08h37.46.745,HF_wild_card,2022.2.4,Win32,59.97720866,60d4e8fcdb1959ca6fd4dfdd,64d2fd46c836a06233681665,64dc7c96321d9c6c9ffbb64f,,,,,,,decisionTrl,resources/DY.BMP,resources/DR.BMP,Door1,-0.426851852,0.023148148,1,0,0,3.6982,optionLeft,30,13480,6,29,0,29,0,1,,,,,,,,,,,,,,,,,,,,,,,,,,,,,,,,,,,,,,,
,,,,,,,,2023-08-16_08h37.46.745,HF_wild_card,2022.2.4,Win32,59.97720866,60d4e8fcdb1959ca6fd4dfdd,64d2fd46c836a06233681665,64dc7c96321d9c6c9ffbb64f,,,,,,,decisionTrl,resources/DBN.BMP,resources/DR.BMP,WildCard_NonEx,-0.325925926,0.05,1,0,0,1.3981,optionLeft,45,13525,6,30,0,30,0,1,,,,,,,,,,,,,,,,,,,,,,,,,,,,,,,,,,,,,,,
,,,,,,,,2023-08-16_08h37.46.745,HF_wild_card,2022.2.4,Win32,59.97720866,60d4e8fcdb1959ca6fd4dfdd,64d2fd46c836a06233681665,64dc7c96321d9c6c9ffbb64f,,,,,,,sngl,resources/Empty.png,resources/DBN.BMP,WildCard_NonEx,0.378703704,-0.019444444,1,0,0,0.9819,optionRight,45,13570,6,31,0,31,0,1,,,,,,,,,,,,,,,,,,,,,,,,,,,,,,,,,,,,,,,
,,,,,,,,2023-08-16_08h37.46.745,HF_wild_card,2022.2.4,Win32,59.97720866,60d4e8fcdb1959ca6fd4dfdd,64d2fd46c836a06233681665,64dc7c96321d9c6c9ffbb64f,,,,,,,sngl,resources/DBN.BMP,resources/Empty.png,WildCard_NonEx,-0.384259259,0.015740741,1,0,0,0.9248,optionLeft,55,13625,6,32,0,32,0,1,,,,,,,,,,,,,,,,,,,,,,,,,,,,,,,,,,,,,,,
,,,,,,,,2023-08-16_08h37.46.745,HF_wild_card,2022.2.4,Win32,59.97720866,60d4e8fcdb1959ca6fd4dfdd,64d2fd46c836a06233681665,64dc7c96321d9c6c9ffbb64f,,,,,,,decisionTrl,resources/DR.BMP,resources/DY.BMP,Door1,0.306481481,-0.016666667,1,0,0,1.8307,optionRight,30,13655,6,33,0,33,0,1,,,,,,,,,,,,,,,,,,,,,,,,,,,,,,,,,,,,,,,
,,,,,,,,2023-08-16_08h37.46.745,HF_wild_card,2022.2.4,Win32,59.97720866,60d4e8fcdb1959ca6fd4dfdd,64d2fd46c836a06233681665,64dc7c96321d9c6c9ffbb64f,,,,,,,decisionTrl,resources/DY.BMP,resources/DR.BMP,Door1,-0.293518519,-0.001851852,1,0,0,1.1649,optionLeft,30,13685,6,34,0,34,0,1,,,,,,,,,,,,,,,,,,,,,,,,,,,,,,,,,,,,,,,
,,,,,,,,2023-08-16_08h37.46.745,HF_wild_card,2022.2.4,Win32,59.97720866,60d4e8fcdb1959ca6fd4dfdd,64d2fd46c836a06233681665,64dc7c96321d9c6c9ffbb64f,,,,,,,sngl,resources/DBN.BMP,resources/Empty.png,WildCard_NonEx,-0.310185185,0.010185185,1,0,0,0.9651,optionLeft,45,13730,6,35,0,35,0,1,,,,,,,,,,,,,,,,,,,,,,,,,,,,,,,,,,,,,,,
,,,,,,,,2023-08-16_08h37.46.745,HF_wild_card,2022.2.4,Win32,59.97720866,60d4e8fcdb1959ca6fd4dfdd,64d2fd46c836a06233681665,64dc7c96321d9c6c9ffbb64f,,,,,,,sngl,resources/DB.BMP,resources/Empty.png,Door3,-0.309259259,0.003703704,1,0,0,0.9316,optionLeft,70,13800,6,36,0,36,0,1,,,,,,,,,,,,,,,,,,,,,,,,,,,,,,,,,,,,,,,
,,,,,,,,2023-08-16_08h37.46.745,HF_wild_card,2022.2.4,Win32,59.97720866,60d4e8fcdb1959ca6fd4dfdd,64d2fd46c836a06233681665,64dc7c96321d9c6c9ffbb64f,,,,,,,ctch,resources/DY.BMP,resources/DP.BMP,Door4,0.283333333,-0.041666667,1,0,0,1.6653,optionRight,60,13860,6,37,0,37,0,1,,,,,,,,,,,,,,,,,,,,,,,,,,,,,,,,,,,,,,,
,,,,,,,,2023-08-16_08h37.46.745,HF_wild_card,2022.2.4,Win32,59.97720866,60d4e8fcdb1959ca6fd4dfdd,64d2fd46c836a06233681665,64dc7c96321d9c6c9ffbb64f,,,,,,,sngl,resources/Empty.png,resources/DR.BMP,Door2,0.333333333,-0.009259259,1,0,0,1.1656,optionRight,40,13900,6,38,0,38,0,1,,,,,,,,,,,,,,,,,,,,,,,,,,,,,,,,,,,,,,,
,,,,,,,,2023-08-16_08h37.46.745,HF_wild_card,2022.2.4,Win32,59.97720866,60d4e8fcdb1959ca6fd4dfdd,64d2fd46c836a06233681665,64dc7c96321d9c6c9ffbb64f,,,,,,,decisionTrl,resources/DR.BMP,resources/DY.BMP,Door2,-0.273148148,0.016666667,1,0,0,0.8481,optionLeft,40,13940,6,39,0,39,0,1,,,,,,,,,,,,,,,,,,,,,,,,,,,,,,,,,,,,,,,
,,,,,,,,2023-08-16_08h37.46.745,HF_wild_card,2022.2.4,Win32,59.97720866,60d4e8fcdb1959ca6fd4dfdd,64d2fd46c836a06233681665,64dc7c96321d9c6c9ffbb64f,,,,,,,sngl,resources/DR.BMP,resources/Empty.png,Door2,-0.403703704,0.02037037,1,0,0,1.1655,optionLeft,20,13960,6,40,0,40,0,1,,,,,,,,,,,,,,,,,,,,,,,,,,,,,,,,,,,,,,,
,,,,,,,,2023-08-16_08h37.46.745,HF_wild_card,2022.2.4,Win32,59.97720866,60d4e8fcdb1959ca6fd4dfdd,64d2fd46c836a06233681665,64dc7c96321d9c6c9ffbb64f,,,,,,,decisionTrl,resources/DBN.BMP,resources/DP.BMP,Door4,0.348148148,-0.016666667,1,0,0,1.6314,optionRight,80,14040,6,41,0,41,0,1,,,,,,,,,,,,,,,,,,,,,,,,,,,,,,,,,,,,,,,
,,,,,,,,2023-08-16_08h37.46.745,HF_wild_card,2022.2.4,Win32,59.97720866,60d4e8fcdb1959ca6fd4dfdd,64d2fd46c836a06233681665,64dc7c96321d9c6c9ffbb64f,,,,,,,decisionTrl,resources/DR.BMP,resources/DY.BMP,Door1,0.332407407,-0.022222222,1,0,0,1.7814,optionRight,30,14070,6,42,0,42,0,1,,,,,,,,,,,,,,,,,,,,,,,,,,,,,,,,,,,,,,,
,,,,,,,,2023-08-16_08h37.46.745,HF_wild_card,2022.2.4,Win32,59.97720866,60d4e8fcdb1959ca6fd4dfdd,64d2fd46c836a06233681665,64dc7c96321d9c6c9ffbb64f,,,,,,,decisionTrl,resources/DB.BMP,resources/DP.BMP,Door3,-0.342592593,0.00462963,1,0,0,1.2816,optionLeft,70,14140,6,43,0,43,0,1,,,,,,,,,,,,,,,,,,,,,,,,,,,,,,,,,,,,,,,
,,,,,,,,2023-08-16_08h37.46.745,HF_wild_card,2022.2.4,Win32,59.97720866,60d4e8fcdb1959ca6fd4dfdd,64d2fd46c836a06233681665,64dc7c96321d9c6c9ffbb64f,,,,,,,,,,,,,,,,,,,,,,,,,,5,0,5,0,1,,,,,,,,,,,,,,,,,,,,,,,,,,,,,,,,,,
,,,,,,,,2023-08-16_08h37.46.745,HF_wild_card,2022.2.4,Win32,59.97720866,60d4e8fcdb1959ca6fd4dfdd,64d2fd46c836a06233681665,64dc7c96321d9c6c9ffbb64f,,,,,,,decisionTrl,resources/DY.BMP,resources/DR.BMP,Door1,-0.415740741,0.005555556,1,0,0,2.4722,optionLeft,30,14170,7,0,0,0,0,1,,,,,,,,,,,,,,,,,,,,,,,,,,,,,,,,,,,,,,,
,,,,,,,,2023-08-16_08h37.46.745,HF_wild_card,2022.2.4,Win32,59.97720866,60d4e8fcdb1959ca6fd4dfdd,64d2fd46c836a06233681665,64dc7c96321d9c6c9ffbb64f,,,,,,,decisionTrl,resources/DB.BMP,resources/DP.BMP,Door3,-0.264814815,0.005555556,1,0,0,1.266,optionLeft,70,14240,7,1,0,1,0,1,,,,,,,,,,,,,,,,,,,,,,,,,,,,,,,,,,,,,,,
,,,,,,,,2023-08-16_08h37.46.745,HF_wild_card,2022.2.4,Win32,59.97720866,60d4e8fcdb1959ca6fd4dfdd,64d2fd46c836a06233681665,64dc7c96321d9c6c9ffbb64f,,,,,,,ctch,resources/DP.BMP,resources/DY.BMP,Door4,-0.358333333,0.005555556,1,0,0,1.1491,optionLeft,80,14320,7,2,0,2,0,1,,,,,,,,,,,,,,,,,,,,,,,,,,,,,,,,,,,,,,,
,,,,,,,,2023-08-16_08h37.46.745,HF_wild_card,2022.2.4,Win32,59.97720866,60d4e8fcdb1959ca6fd4dfdd,64d2fd46c836a06233681665,64dc7c96321d9c6c9ffbb64f,,,,,,,decisionTrl,resources/DR.BMP,resources/DY.BMP,Door1,0.372222222,-0.019444444,1,0,0,1.4667,optionRight,30,14350,7,3,0,3,0,1,,,,,,,,,,,,,,,,,,,,,,,,,,,,,,,,,,,,,,,
,,,,,,,,2023-08-16_08h37.46.745,HF_wild_card,2022.2.4,Win32,59.97720866,60d4e8fcdb1959ca6fd4dfdd,64d2fd46c836a06233681665,64dc7c96321d9c6c9ffbb64f,,,,,,,ctch,resources/DB.BMP,resources/DR.BMP,Door3,-0.262037037,-0.013888889,1,0,0,1.1652,optionLeft,70,14420,7,4,0,4,0,1,,,,,,,,,,,,,,,,,,,,,,,,,,,,,,,,,,,,,,,
,,,,,,,,2023-08-16_08h37.46.745,HF_wild_card,2022.2.4,Win32,59.97720866,60d4e8fcdb1959ca6fd4dfdd,64d2fd46c836a06233681665,64dc7c96321d9c6c9ffbb64f,,,,,,,decisionTrl,resources/DR.BMP,resources/DY.BMP,Door1,0.327777778,-0.00462963,1,0,0,1.6823,optionRight,30,14450,7,5,0,5,0,1,,,,,,,,,,,,,,,,,,,,,,,,,,,,,,,,,,,,,,,
,,,,,,,,2023-08-16_08h37.46.745,HF_wild_card,2022.2.4,Win32,59.97720866,60d4e8fcdb1959ca6fd4dfdd,64d2fd46c836a06233681665,64dc7c96321d9c6c9ffbb64f,,,,,,,ctch,resources/DR.BMP,resources/DB.BMP,Door3,0.271296296,0.00462963,1,0,0,1.4988,optionRight,70,14520,7,6,0,6,0,1,,,,,,,,,,,,,,,,,,,,,,,,,,,,,,,,,,,,,,,
,,,,,,,,2023-08-16_08h37.46.745,HF_wild_card,2022.2.4,Win32,59.97720866,60d4e8fcdb1959ca6fd4dfdd,64d2fd46c836a06233681665,64dc7c96321d9c6c9ffbb64f,,,,,,,decisionTrl,resources/DR.BMP,resources/DY.BMP,Door1,0.308333333,0.003703704,1,0,0,2.1654,optionRight,30,14550,7,7,0,7,0,1,,,,,,,,,,,,,,,,,,,,,,,,,,,,,,,,,,,,,,,
,,,,,,,,2023-08-16_08h37.46.745,HF_wild_card,2022.2.4,Win32,59.97720866,60d4e8fcdb1959ca6fd4dfdd,64d2fd46c836a06233681665,64dc7c96321d9c6c9ffbb64f,,,,,,,ctch,resources/DR.BMP,resources/DB.BMP,Door3,0.353703704,-0.000925926,1,0,0,1.0329,optionRight,70,14620,7,8,0,8,0,1,,,,,,,,,,,,,,,,,,,,,,,,,,,,,,,,,,,,,,,
,,,,,,,,2023-08-16_08h37.46.745,HF_wild_card,2022.2.4,Win32,59.97720866,60d4e8fcdb1959ca6fd4dfdd,64d2fd46c836a06233681665,64dc7c96321d9c6c9ffbb64f,,,,,,,ctch,resources/DR.BMP,resources/DB.BMP,Door3,0.3,-0.00462963,1,0,0,0.9838,optionRight,70,14690,7,9,0,9,0,1,,,,,,,,,,,,,,,,,,,,,,,,,,,,,,,,,,,,,,,
,,,,,,,,2023-08-16_08h37.46.745,HF_wild_card,2022.2.4,Win32,59.97720866,60d4e8fcdb1959ca6fd4dfdd,64d2fd46c836a06233681665,64dc7c96321d9c6c9ffbb64f,,,,,,,decisionTrl,resources/DR.BMP,resources/DY.BMP,Door1,0.312962963,0.000925926,1,0,0,2.0166,optionRight,30,14720,7,10,0,10,0,1,,,,,,,,,,,,,,,,,,,,,,,,,,,,,,,,,,,,,,,
,,,,,,,,2023-08-16_08h37.46.745,HF_wild_card,2022.2.4,Win32,59.97720866,60d4e8fcdb1959ca6fd4dfdd,64d2fd46c836a06233681665,64dc7c96321d9c6c9ffbb64f,,,,,,,decisionTrl,resources/DY.BMP,resources/DR.BMP,Door1,-0.275,0.013888889,1,0,0,1.3657,optionLeft,30,14750,7,11,0,11,0,1,,,,,,,,,,,,,,,,,,,,,,,,,,,,,,,,,,,,,,,
,,,,,,,,2023-08-16_08h37.46.745,HF_wild_card,2022.2.4,Win32,59.97720866,60d4e8fcdb1959ca6fd4dfdd,64d2fd46c836a06233681665,64dc7c96321d9c6c9ffbb64f,,,,,,,decisionTrl,resources/DP.BMP,resources/DB.BMP,Door3,0.246296296,-0.000925926,1,0,0,1.1157,optionRight,70,14820,7,12,0,12,0,1,,,,,,,,,,,,,,,,,,,,,,,,,,,,,,,,,,,,,,,
,,,,,,,,2023-08-16_08h37.46.745,HF_wild_card,2022.2.4,Win32,59.97720866,60d4e8fcdb1959ca6fd4dfdd,64d2fd46c836a06233681665,64dc7c96321d9c6c9ffbb64f,,,,,,,decisionTrl,resources/DR.BMP,resources/DY.BMP,Door1,0.380555556,-0.02037037,1,0,0,1.3489,optionRight,30,14850,7,13,0,13,0,1,,,,,,,,,,,,,,,,,,,,,,,,,,,,,,,,,,,,,,,
,,,,,,,,2023-08-16_08h37.46.745,HF_wild_card,2022.2.4,Win32,59.97720866,60d4e8fcdb1959ca6fd4dfdd,64d2fd46c836a06233681665,64dc7c96321d9c6c9ffbb64f,,,,,,,decisionTrl,resources/DY.BMP,resources/DR.BMP,Door1,-0.299074074,0.013888889,1,0,0,1.3989,optionLeft,30,14880,7,14,0,14,0,1,,,,,,,,,,,,,,,,,,,,,,,,,,,,,,,,,,,,,,,
,,,,,,,,2023-08-16_08h37.46.745,HF_wild_card,2022.2.4,Win32,59.97720866,60d4e8fcdb1959ca6fd4dfdd,64d2fd46c836a06233681665,64dc7c96321d9c6c9ffbb64f,,,,,,,decisionTrl,resources/DB.BMP,resources/DP.BMP,Door3,-0.362962963,-0.005555556,1,0,0,1.1657,optionLeft,70,14950,7,15,0,15,0,1,,,,,,,,,,,,,,,,,,,,,,,,,,,,,,,,,,,,,,,
,,,,,,,,2023-08-16_08h37.46.745,HF_wild_card,2022.2.4,Win32,59.97720866,60d4e8fcdb1959ca6fd4dfdd,64d2fd46c836a06233681665,64dc7c96321d9c6c9ffbb64f,,,,,,,decisionTrl,resources/DR.BMP,resources/DY.BMP,Door1,0.355555556,0.002777778,1,0,0,2.1489,optionRight,30,14980,7,16,0,16,0,1,,,,,,,,,,,,,,,,,,,,,,,,,,,,,,,,,,,,,,,
,,,,,,,,2023-08-16_08h37.46.745,HF_wild_card,2022.2.4,Win32,59.97720866,60d4e8fcdb1959ca6fd4dfdd,64d2fd46c836a06233681665,64dc7c96321d9c6c9ffbb64f,,,,,,,decisionTrl,resources/DP.BMP,resources/DB.BMP,Door3,0.333333333,0.00462963,1,0,0,2.6312,optionRight,70,15050,7,17,0,17,0,1,,,,,,,,,,,,,,,,,,,,,,,,,,,,,,,,,,,,,,,
,,,,,,,,2023-08-16_08h37.46.745,HF_wild_card,2022.2.4,Win32,59.97720866,60d4e8fcdb1959ca6fd4dfdd,64d2fd46c836a06233681665,64dc7c96321d9c6c9ffbb64f,,,,,,,ctch,resources/DB.BMP,resources/DR.BMP,Door3,-0.42037037,-0.003703704,1,0,0,1.1329,optionLeft,70,15120,7,18,0,18,0,1,,,,,,,,,,,,,,,,,,,,,,,,,,,,,,,,,,,,,,,
,,,,,,,,2023-08-16_08h37.46.745,HF_wild_card,2022.2.4,Win32,59.97720866,60d4e8fcdb1959ca6fd4dfdd,64d2fd46c836a06233681665,64dc7c96321d9c6c9ffbb64f,,,,,,,decisionTrl,resources/DP.BMP,resources/DB.BMP,Door3,0.264814815,-0.010185185,1,0,0,1.4156,optionRight,70,15190,7,19,0,19,0,1,,,,,,,,,,,,,,,,,,,,,,,,,,,,,,,,,,,,,,,
,,,,,,,,2023-08-16_08h37.46.745,HF_wild_card,2022.2.4,Win32,59.97720866,60d4e8fcdb1959ca6fd4dfdd,64d2fd46c836a06233681665,64dc7c96321d9c6c9ffbb64f,,,,,,,decisionTrl,resources/DP.BMP,resources/DB.BMP,Door3,0.337037037,-0.018518519,1,0,0,1.0154,optionRight,70,15260,7,20,0,20,0,1,,,,,,,,,,,,,,,,,,,,,,,,,,,,,,,,,,,,,,,
,,,,,,,,2023-08-16_08h37.46.745,HF_wild_card,2022.2.4,Win32,59.97720866,60d4e8fcdb1959ca6fd4dfdd,64d2fd46c836a06233681665,64dc7c96321d9c6c9ffbb64f,,,,,,,decisionTrl,resources/DP.BMP,resources/DB.BMP,Door3,0.324074074,-0.013888889,1,0,0,0.9993,optionRight,70,15330,7,21,0,21,0,1,,,,,,,,,,,,,,,,,,,,,,,,,,,,,,,,,,,,,,,
,,,,,,,,2023-08-16_08h37.46.745,HF_wild_card,2022.2.4,Win32,59.97720866,60d4e8fcdb1959ca6fd4dfdd,64d2fd46c836a06233681665,64dc7c96321d9c6c9ffbb64f,,,,,,,ctch,resources/DB.BMP,resources/DR.BMP,Door3,-0.32037037,-0.001851852,1,0,0,1.3826,optionLeft,70,15400,7,22,0,22,0,1,,,,,,,,,,,,,,,,,,,,,,,,,,,,,,,,,,,,,,,
,,,,,,,,2023-08-16_08h37.46.745,HF_wild_card,2022.2.4,Win32,59.97720866,60d4e8fcdb1959ca6fd4dfdd,64d2fd46c836a06233681665,64dc7c96321d9c6c9ffbb64f,,,,,,,decisionTrl,resources/DY.BMP,resources/DR.BMP,Door1,-0.375,0.000925926,1,0,0,1.9652,optionLeft,30,15430,7,23,0,23,0,1,,,,,,,,,,,,,,,,,,,,,,,,,,,,,,,,,,,,,,,
,,,,,,,,2023-08-16_08h37.46.745,HF_wild_card,2022.2.4,Win32,59.97720866,60d4e8fcdb1959ca6fd4dfdd,64d2fd46c836a06233681665,64dc7c96321d9c6c9ffbb64f,,,,,,,decisionTrl,resources/DB.BMP,resources/DP.BMP,Door3,-0.487962963,-0.005555556,1,0,0,1.2489,optionLeft,70,15500,7,24,0,24,0,1,,,,,,,,,,,,,,,,,,,,,,,,,,,,,,,,,,,,,,,
,,,,,,,,2023-08-16_08h37.46.745,HF_wild_card,2022.2.4,Win32,59.97720866,60d4e8fcdb1959ca6fd4dfdd,64d2fd46c836a06233681665,64dc7c96321d9c6c9ffbb64f,,,,,,,ctch,resources/DP.BMP,resources/DY.BMP,Door4,-0.290740741,-0.010185185,1,0,0,1.449,optionLeft,60,15560,7,25,0,25,0,1,,,,,,,,,,,,,,,,,,,,,,,,,,,,,,,,,,,,,,,
,,,,,,,,2023-08-16_08h37.46.745,HF_wild_card,2022.2.4,Win32,59.97720866,60d4e8fcdb1959ca6fd4dfdd,64d2fd46c836a06233681665,64dc7c96321d9c6c9ffbb64f,,,,,,,decisionTrl,resources/DB.BMP,resources/DP.BMP,Door3,-0.251851852,-0.007407407,1,0,0,1.7657,optionLeft,70,15630,7,26,0,26,0,1,,,,,,,,,,,,,,,,,,,,,,,,,,,,,,,,,,,,,,,
,,,,,,,,2023-08-16_08h37.46.745,HF_wild_card,2022.2.4,Win32,59.97720866,60d4e8fcdb1959ca6fd4dfdd,64d2fd46c836a06233681665,64dc7c96321d9c6c9ffbb64f,,,,,,,decisionTrl,resources/DP.BMP,resources/DB.BMP,Door3,0.268518519,-0.015740741,1,0,0,1.033,optionRight,70,15700,7,27,0,27,0,1,,,,,,,,,,,,,,,,,,,,,,,,,,,,,,,,,,,,,,,
,,,,,,,,2023-08-16_08h37.46.745,HF_wild_card,2022.2.4,Win32,59.97720866,60d4e8fcdb1959ca6fd4dfdd,64d2fd46c836a06233681665,64dc7c96321d9c6c9ffbb64f,,,,,,,decisionTrl,resources/DY.BMP,resources/DR.BMP,Door1,-0.32962963,0.008333333,1,0,0,1.6154,optionLeft,30,15730,7,28,0,28,0,1,,,,,,,,,,,,,,,,,,,,,,,,,,,,,,,,,,,,,,,
,,,,,,,,2023-08-16_08h37.46.745,HF_wild_card,2022.2.4,Win32,59.97720866,60d4e8fcdb1959ca6fd4dfdd,64d2fd46c836a06233681665,64dc7c96321d9c6c9ffbb64f,,,,,,,decisionTrl,resources/DB.BMP,resources/DP.BMP,Door3,-0.40462963,-0.010185185,1,0,0,1.3329,optionLeft,70,15800,7,29,0,29,0,1,,,,,,,,,,,,,,,,,,,,,,,,,,,,,,,,,,,,,,,
,,,,,,,,2023-08-16_08h37.46.745,HF_wild_card,2022.2.4,Win32,59.97720866,60d4e8fcdb1959ca6fd4dfdd,64d2fd46c836a06233681665,64dc7c96321d9c6c9ffbb64f,,,,,,,ctch,resources/DY.BMP,resources/DP.BMP,Door4,0.260185185,-0.02037037,1,0,0,1.2821,optionRight,80,15880,7,30,0,30,0,1,,,,,,,,,,,,,,,,,,,,,,,,,,,,,,,,,,,,,,,
,,,,,,,,2023-08-16_08h37.46.745,HF_wild_card,2022.2.4,Win32,59.97720866,60d4e8fcdb1959ca6fd4dfdd,64d2fd46c836a06233681665,64dc7c96321d9c6c9ffbb64f,,,,,,,ctch,resources/DY.BMP,resources/DP.BMP,Door4,0.294444444,-0.00462963,1,0,0,1.216,optionRight,60,15940,7,31,0,31,0,1,,,,,,,,,,,,,,,,,,,,,,,,,,,,,,,,,,,,,,,
,,,,,,,,2023-08-16_08h37.46.745,HF_wild_card,2022.2.4,Win32,59.97720866,60d4e8fcdb1959ca6fd4dfdd,64d2fd46c836a06233681665,64dc7c96321d9c6c9ffbb64f,,,,,,,decisionTrl,resources/DY.BMP,resources/DR.BMP,Door1,-0.334259259,0.016666667,1,0,0,1.7663,optionLeft,30,15970,7,32,0,32,0,1,,,,,,,,,,,,,,,,,,,,,,,,,,,,,,,,,,,,,,,
,,,,,,,,2023-08-16_08h37.46.745,HF_wild_card,2022.2.4,Win32,59.97720866,60d4e8fcdb1959ca6fd4dfdd,64d2fd46c836a06233681665,64dc7c96321d9c6c9ffbb64f,,,,,,,decisionTrl,resources/DB.BMP,resources/DP.BMP,Door3,-0.360185185,0.002777778,1,0,0,1.2826,optionLeft,70,16040,7,33,0,33,0,1,,,,,,,,,,,,,,,,,,,,,,,,,,,,,,,,,,,,,,,
,,,,,,,,2023-08-16_08h37.46.745,HF_wild_card,2022.2.4,Win32,59.97720866,60d4e8fcdb1959ca6fd4dfdd,64d2fd46c836a06233681665,64dc7c96321d9c6c9ffbb64f,,,,,,,ctch,resources/DY.BMP,resources/DP.BMP,Door4,0.30462963,-0.015740741,1,0,0,1.3322,optionRight,60,16100,7,34,0,34,0,1,,,,,,,,,,,,,,,,,,,,,,,,,,,,,,,,,,,,,,,
,,,,,,,,2023-08-16_08h37.46.745,HF_wild_card,2022.2.4,Win32,59.97720866,60d4e8fcdb1959ca6fd4dfdd,64d2fd46c836a06233681665,64dc7c96321d9c6c9ffbb64f,,,,,,,ctch,resources/DP.BMP,resources/DY.BMP,Door4,-0.324074074,-0.00462963,1,0,0,1.2323,optionLeft,80,16180,7,35,0,35,0,1,,,,,,,,,,,,,,,,,,,,,,,,,,,,,,,,,,,,,,,
,,,,,,,,2023-08-16_08h37.46.745,HF_wild_card,2022.2.4,Win32,59.97720866,60d4e8fcdb1959ca6fd4dfdd,64d2fd46c836a06233681665,64dc7c96321d9c6c9ffbb64f,,,,,,,,,,,,,,,,,,,,,,,,,,6,0,6,0,1,,,,,,,,,,,,,,,,,,,,,,,,,,,,,,,,,,
,,,,,,,,2023-08-16_08h37.46.745,HF_wild_card,2022.2.4,Win32,59.97720866,60d4e8fcdb1959ca6fd4dfdd,64d2fd46c836a06233681665,64dc7c96321d9c6c9ffbb64f,,,,,,,,,,,,,,,,,,,,,,,,,,,,,,,4,,,,,,,,,,,,,,,,,,,,,,,,,,,,,,,,,
,,,,,,,,2023-08-16_08h37.46.745,HF_wild_card,2022.2.4,Win32,59.97720866,60d4e8fcdb1959ca6fd4dfdd,64d2fd46c836a06233681665,64dc7c96321d9c6c9ffbb64f,,,,,,,,,,,,,,,,,,,,,,,,,,,,,,,,,,,,,,,,,,,,,,,,,,,,,,,,,,,,,,,,
,,,,,,,,2023-08-16_08h37.46.745,HF_wild_card,2022.2.4,Win32,59.97720866,60d4e8fcdb1959ca6fd4dfdd,64d2fd46c836a06233681665,64dc7c96321d9c6c9ffbb64f,,,,,,,,,,,,,,,,,,,,,,,,,,,,,,,,95,WC_extreme,resources/DG.BMP,0,0,0,0,1,,,,,,,,,,,,,,,,,,,,,,,,,
,,,,,,,,2023-08-16_08h37.46.745,HF_wild_card,2022.2.4,Win32,59.97720866,60d4e8fcdb1959ca6fd4dfdd,64d2fd46c836a06233681665,64dc7c96321d9c6c9ffbb64f,,,,,,,,,,,,,,,,,,,,,,,,,,,,,,,,40,Door2,resources/DR.BMP,1,0,1,0,1,,,,,,,,,,,,,,,,,,,,,,,,,
,,,,,,,,2023-08-16_08h37.46.745,HF_wild_card,2022.2.4,Win32,59.97720866,60d4e8fcdb1959ca6fd4dfdd,64d2fd46c836a06233681665,64dc7c96321d9c6c9ffbb64f,,,,,,,,,,,,,,,,,,,,,,,,,,,,,,,,5,Door4,resources/DP.BMP,2,0,2,0,1,,,,,,,,,,,,,,,,,,,,,,,,,
,,,,,,,,2023-08-16_08h37.46.745,HF_wild_card,2022.2.4,Win32,59.97720866,60d4e8fcdb1959ca6fd4dfdd,64d2fd46c836a06233681665,64dc7c96321d9c6c9ffbb64f,,,,,,,,,,,,,,,,,,,,,,,,,,,,,,,,30,Door1,resources/DY.BMP,3,0,3,0,1,,,,,,,,,,,,,,,,,,,,,,,,,
,,,,,,,,2023-08-16_08h37.46.745,HF_wild_card,2022.2.4,Win32,59.97720866,60d4e8fcdb1959ca6fd4dfdd,64d2fd46c836a06233681665,64dc7c96321d9c6c9ffbb64f,,,,,,,,,,,,,,,,,,,,,,,,,,,,,,,,70,Door3,resources/DB.BMP,4,0,4,0,1,,,,,,,,,,,,,,,,,,,,,,,,,
,,,,,,,,2023-08-16_08h37.46.745,HF_wild_card,2022.2.4,Win32,59.97720866,60d4e8fcdb1959ca6fd4dfdd,64d2fd46c836a06233681665,64dc7c96321d9c6c9ffbb64f,,,,,,,,,,,,,,,,,,,,,,,,,,,,,,,,45,WC_nonExtreme,resources/DBN.BMP,5,0,5,0,1,,,,,,,,,,,,,,,,,,,,,,,,,
,,,,,,,,2023-08-16_08h37.46.745,HF_wild_card,2022.2.4,Win32,59.97720866,60d4e8fcdb1959ca6fd4dfdd,64d2fd46c836a06233681665,64dc7c96321d9c6c9ffbb64f,,,,,,,,,,,,,,,,,,,,,,,,,,,,,,,,,,,,,,,,,,,,,,,,,,,,,,,,,,,,,,,,
,,,,,,,,2023-08-16_08h37.46.745,HF_wild_card,2022.2.4,Win32,59.97720866,60d4e8fcdb1959ca6fd4dfdd,64d2fd46c836a06233681665,64dc7c96321d9c6c9ffbb64f,,,,,,,,,,,,,,,,,,,,,,,,,,,,,,,,,,,,,,,,0,0,0,0,1,,,,,,,,,,,,,,,,,,,,
