Condition,Low fixed image (Door1),Low risky image (Door2),High fixed image (Door3),High risky image (Door4),Extreme Wild Card,NonExtreme Wild Card,,date,expName,psychopyVersion,OS,frameRate,PROLIFIC_PID,STUDY_ID,SESSION_ID,mouse_2.x,mouse_2.y,mouse_2.leftButton,mouse_2.midButton,mouse_2.rightButton,mouse_2.clicked_name,Trial Type,Left Option Image,Right Option Image,Chosen Door,mouse.x,mouse.y,mouse.leftButton,mouse.midButton,mouse.rightButton,mouse.time,mouse.clicked_name,Feedback,Cumulative Reward,Block,trial.thisRepN,trial.thisTrialN,trial.thisN,trial.thisIndex,trial.ran,blocks.thisRepN,blocks.thisTrialN,blocks.thisN,blocks.thisIndex,blocks.ran,Money conversion,First Outcome Reported,Shown Door (First Outcome),Displayed Image (First Outcome),outcomes.thisRepN,outcomes.thisTrialN,outcomes.thisN,outcomes.thisIndex,outcomes.ran,judgments.thisRepN,judgments.thisTrialN,judgments.thisN,judgments.thisIndex,judgments.ran,freqMouse.x,freqMouse.y,freqMouse.leftButton,freqMouse.midButton,freqMouse.rightButton,freqMouse.clicked_name,FQJ for first outcome,FQJ for second outcome,Shown Door,Displayed Image,trials.thisRepN,trials.thisTrialN,trials.thisN,trials.thisIndex,trials.ran,judgBlock.thisRepN,judgBlock.thisTrialN,judgBlock.thisN,judgBlock.thisIndex,judgBlock.ran
1,resources/DB.BMP,resources/DP.BMP,resources/DY.BMP,resources/DR.BMP,resources/DG.BMP,resources/DBN.BMP,,2023-08-16_08h38.17.792,HF_wild_card,2022.2.4,Win32,59.99160118,5f43c9fbe038cc0b2deb75d8,64d2fd46c836a06233681665,64dc7cc840f663fcc38a3d53,,,,,,,,,,,,,,,,,,,,,,,,,,,,,,,,,,,,,,,,,,,,,,,,,,,,,,,,,,,,,,,,
,,,,,,,,2023-08-16_08h38.17.792,HF_wild_card,2022.2.4,Win32,59.99160118,5f43c9fbe038cc0b2deb75d8,64d2fd46c836a06233681665,64dc7cc840f663fcc38a3d53,-0.003182975,-0.424403183,1,0,0,agree,,,,,,,,,,,,,,,,,,,,,,,,,,,,,,,,,,,,,,,,,,,,,,,,,,,,,,,,,,
,,,,,,,,2023-08-16_08h38.17.792,HF_wild_card,2022.2.4,Win32,59.99160118,5f43c9fbe038cc0b2deb75d8,64d2fd46c836a06233681665,64dc7cc840f663fcc38a3d53,,,,,,,,,,,,,,,,,,,,,,,,,,,,,,,,,,,,,,,,,,,,,,,,,,,,,,,,,,,,,,,,
,,,,,,,,2023-08-16_08h38.17.792,HF_wild_card,2022.2.4,Win32,59.99160118,5f43c9fbe038cc0b2deb75d8,64d2fd46c836a06233681665,64dc7cc840f663fcc38a3d53,,,,,,,sngl,resources/DR.BMP,resources/Empty.png,Door4,-0.369230761,-0.137931034,1,0,0,1.8233,optionLeft,80,80,1,0,0,0,0,1,,,,,,,,,,,,,,,,,,,,,,,,,,,,,,,,,,,,,,,
,,,,,,,,2023-08-16_08h38.17.792,HF_wild_card,2022.2.4,Win32,59.99160118,5f43c9fbe038cc0b2deb75d8,64d2fd46c836a06233681665,64dc7cc840f663fcc38a3d53,,,,,,,decisionTrl,resources/DB.BMP,resources/DP.BMP,Door2,0.328912467,-0.003183016,1,0,0,2.4754,optionRight,40,120,1,1,0,1,0,1,,,,,,,,,,,,,,,,,,,,,,,,,,,,,,,,,,,,,,,
,,,,,,,,2023-08-16_08h38.17.792,HF_wild_card,2022.2.4,Win32,59.99160118,5f43c9fbe038cc0b2deb75d8,64d2fd46c836a06233681665,64dc7cc840f663fcc38a3d53,,,,,,,decisionTrl,resources/DBN.BMP,resources/DP.BMP,WildCard_NonEx,-0.396816952,-0.015915119,1,0,0,1.8828,optionLeft,55,175,1,2,0,2,0,1,,,,,,,,,,,,,,,,,,,,,,,,,,,,,,,,,,,,,,,
,,,,,,,,2023-08-16_08h38.17.792,HF_wild_card,2022.2.4,Win32,59.99160118,5f43c9fbe038cc0b2deb75d8,64d2fd46c836a06233681665,64dc7cc840f663fcc38a3d53,,,,,,,ctch,resources/DY.BMP,resources/DP.BMP,Door2,0.361803778,0.026525199,1,0,0,1.5756,optionRight,40,215,1,3,0,3,0,1,,,,,,,,,,,,,,,,,,,,,,,,,,,,,,,,,,,,,,,
,,,,,,,,2023-08-16_08h38.17.792,HF_wild_card,2022.2.4,Win32,59.99160118,5f43c9fbe038cc0b2deb75d8,64d2fd46c836a06233681665,64dc7cc840f663fcc38a3d53,,,,,,,decisionTrl,resources/DP.BMP,resources/DBN.BMP,Door2,-0.360742706,-0.187798457,1,0,0,1.2953,optionLeft,20,235,1,4,0,4,0,1,,,,,,,,,,,,,,,,,,,,,,,,,,,,,,,,,,,,,,,
,,,,,,,,2023-08-16_08h38.17.792,HF_wild_card,2022.2.4,Win32,59.99160118,5f43c9fbe038cc0b2deb75d8,64d2fd46c836a06233681665,64dc7cc840f663fcc38a3d53,,,,,,,ctch,resources/DP.BMP,resources/DY.BMP,Door3,0.383023937,-0.009549088,1,0,0,1.0945,optionRight,70,305,1,5,0,5,0,1,,,,,,,,,,,,,,,,,,,,,,,,,,,,,,,,,,,,,,,
,,,,,,,,2023-08-16_08h38.17.792,HF_wild_card,2022.2.4,Win32,59.99160118,5f43c9fbe038cc0b2deb75d8,64d2fd46c836a06233681665,64dc7cc840f663fcc38a3d53,,,,,,,decisionTrl,resources/DP.BMP,resources/DB.BMP,Door1,0.23872679,-0.023342183,1,0,0,1.3713,optionRight,30,335,1,6,0,6,0,1,,,,,,,,,,,,,,,,,,,,,,,,,,,,,,,,,,,,,,,
,,,,,,,,2023-08-16_08h38.17.792,HF_wild_card,2022.2.4,Win32,59.99160118,5f43c9fbe038cc0b2deb75d8,64d2fd46c836a06233681665,64dc7cc840f663fcc38a3d53,,,,,,,sngl,resources/DP.BMP,resources/Empty.png,Door2,-0.334217507,-0.067904525,1,0,0,0.9768,optionLeft,40,375,1,7,0,7,0,1,,,,,,,,,,,,,,,,,,,,,,,,,,,,,,,,,,,,,,,
,,,,,,,,2023-08-16_08h38.17.792,HF_wild_card,2022.2.4,Win32,59.99160118,5f43c9fbe038cc0b2deb75d8,64d2fd46c836a06233681665,64dc7cc840f663fcc38a3d53,,,,,,,decisionTrl,resources/DY.BMP,resources/DR.BMP,Door3,-0.282228101,-0.026525199,1,0,0,1.194,optionLeft,70,445,1,8,0,8,0,1,,,,,,,,,,,,,,,,,,,,,,,,,,,,,,,,,,,,,,,
,,,,,,,,2023-08-16_08h38.17.792,HF_wild_card,2022.2.4,Win32,59.99160118,5f43c9fbe038cc0b2deb75d8,64d2fd46c836a06233681665,64dc7cc840f663fcc38a3d53,,,,,,,decisionTrl,resources/DB.BMP,resources/DP.BMP,Door2,0.413793103,0.014854087,1,0,0,1.1895,optionRight,40,485,1,9,0,9,0,1,,,,,,,,,,,,,,,,,,,,,,,,,,,,,,,,,,,,,,,
,,,,,,,,2023-08-16_08h38.17.792,HF_wild_card,2022.2.4,Win32,59.99160118,5f43c9fbe038cc0b2deb75d8,64d2fd46c836a06233681665,64dc7cc840f663fcc38a3d53,,,,,,,decisionTrl,resources/DY.BMP,resources/DR.BMP,Door3,-0.258885958,-0.019098135,1,0,0,1.0292,optionLeft,70,555,1,10,0,10,0,1,,,,,,,,,,,,,,,,,,,,,,,,,,,,,,,,,,,,,,,
,,,,,,,,2023-08-16_08h38.17.792,HF_wild_card,2022.2.4,Win32,59.99160118,5f43c9fbe038cc0b2deb75d8,64d2fd46c836a06233681665,64dc7cc840f663fcc38a3d53,,,,,,,decisionTrl,resources/DY.BMP,resources/DR.BMP,Door3,-0.256763893,0.003183016,1,0,0,1.8451,optionLeft,70,625,1,11,0,11,0,1,,,,,,,,,,,,,,,,,,,,,,,,,,,,,,,,,,,,,,,
,,,,,,,,2023-08-16_08h38.17.792,HF_wild_card,2022.2.4,Win32,59.99160118,5f43c9fbe038cc0b2deb75d8,64d2fd46c836a06233681665,64dc7cc840f663fcc38a3d53,,,,,,,decisionTrl,resources/DY.BMP,resources/DBN.BMP,Door3,-0.407427031,-0.082758613,1,0,0,1.1272,optionLeft,70,695,1,12,0,12,0,1,,,,,,,,,,,,,,,,,,,,,,,,,,,,,,,,,,,,,,,
,,,,,,,,2023-08-16_08h38.17.792,HF_wild_card,2022.2.4,Win32,59.99160118,5f43c9fbe038cc0b2deb75d8,64d2fd46c836a06233681665,64dc7cc840f663fcc38a3d53,,,,,,,ctch,resources/DR.BMP,resources/DB.BMP,Door1,0.342705603,0.011671071,1,0,0,1.2562,optionRight,30,725,1,13,0,13,0,1,,,,,,,,,,,,,,,,,,,,,,,,,,,,,,,,,,,,,,,
,,,,,,,,2023-08-16_08h38.17.792,HF_wild_card,2022.2.4,Win32,59.99160118,5f43c9fbe038cc0b2deb75d8,64d2fd46c836a06233681665,64dc7cc840f663fcc38a3d53,,,,,,,decisionTrl,resources/DBN.BMP,resources/DY.BMP,Door3,0.390450961,-0.00530504,1,0,0,1.1601,optionRight,70,795,1,14,0,14,0,1,,,,,,,,,,,,,,,,,,,,,,,,,,,,,,,,,,,,,,,
,,,,,,,,2023-08-16_08h38.17.792,HF_wild_card,2022.2.4,Win32,59.99160118,5f43c9fbe038cc0b2deb75d8,64d2fd46c836a06233681665,64dc7cc840f663fcc38a3d53,,,,,,,sngl,resources/DY.BMP,resources/Empty.png,Door3,-0.355437666,-0.051989406,1,0,0,1.0421,optionLeft,70,865,1,15,0,15,0,1,,,,,,,,,,,,,,,,,,,,,,,,,,,,,,,,,,,,,,,
,,,,,,,,2023-08-16_08h38.17.792,HF_wild_card,2022.2.4,Win32,59.99160118,5f43c9fbe038cc0b2deb75d8,64d2fd46c836a06233681665,64dc7cc840f663fcc38a3d53,,,,,,,sngl,resources/DB.BMP,resources/Empty.png,Door1,-0.378779849,-0.082758613,1,0,0,1.027,optionLeft,30,895,1,16,0,16,0,1,,,,,,,,,,,,,,,,,,,,,,,,,,,,,,,,,,,,,,,
,,,,,,,,2023-08-16_08h38.17.792,HF_wild_card,2022.2.4,Win32,59.99160118,5f43c9fbe038cc0b2deb75d8,64d2fd46c836a06233681665,64dc7cc840f663fcc38a3d53,,,,,,,sngl,resources/Empty.png,resources/DB.BMP,Door1,0.349071715,-0.008488056,1,0,0,1.3451,optionRight,30,925,1,17,0,17,0,1,,,,,,,,,,,,,,,,,,,,,,,,,,,,,,,,,,,,,,,
,,,,,,,,2023-08-16_08h38.17.792,HF_wild_card,2022.2.4,Win32,59.99160118,5f43c9fbe038cc0b2deb75d8,64d2fd46c836a06233681665,64dc7cc840f663fcc38a3d53,,,,,,,decisionTrl,resources/DR.BMP,resources/DY.BMP,Door3,0.158090202,-0.077453573,1,0,0,2.0093,optionRight,70,995,1,18,0,18,0,1,,,,,,,,,,,,,,,,,,,,,,,,,,,,,,,,,,,,,,,
,,,,,,,,2023-08-16_08h38.17.792,HF_wild_card,2022.2.4,Win32,59.99160118,5f43c9fbe038cc0b2deb75d8,64d2fd46c836a06233681665,64dc7cc840f663fcc38a3d53,,,,,,,ctch,resources/DB.BMP,resources/DR.BMP,Door4,0.241909847,-0.053050398,1,0,0,1.9737,optionRight,80,1075,1,19,0,19,0,1,,,,,,,,,,,,,,,,,,,,,,,,,,,,,,,,,,,,,,,
,,,,,,,,2023-08-16_08h38.17.792,HF_wild_card,2022.2.4,Win32,59.99160118,5f43c9fbe038cc0b2deb75d8,64d2fd46c836a06233681665,64dc7cc840f663fcc38a3d53,,,,,,,decisionTrl,resources/DR.BMP,resources/DY.BMP,Door4,-0.381962865,-0.084880637,1,0,0,1.2645,optionLeft,80,1155,1,20,0,20,0,1,,,,,,,,,,,,,,,,,,,,,,,,,,,,,,,,,,,,,,,
,,,,,,,,2023-08-16_08h38.17.792,HF_wild_card,2022.2.4,Win32,59.99160118,5f43c9fbe038cc0b2deb75d8,64d2fd46c836a06233681665,64dc7cc840f663fcc38a3d53,,,,,,,decisionTrl,resources/DBN.BMP,resources/DB.BMP,WildCard_NonEx,-0.305570243,-0.049867382,1,0,0,1.2287,optionLeft,45,1200,1,21,0,21,0,1,,,,,,,,,,,,,,,,,,,,,,,,,,,,,,,,,,,,,,,
,,,,,,,,2023-08-16_08h38.17.792,HF_wild_card,2022.2.4,Win32,59.99160118,5f43c9fbe038cc0b2deb75d8,64d2fd46c836a06233681665,64dc7cc840f663fcc38a3d53,,,,,,,decisionTrl,resources/DBN.BMP,resources/DR.BMP,Door4,0.288594213,0.019098135,1,0,0,1.4742,optionRight,60,1260,1,22,0,22,0,1,,,,,,,,,,,,,,,,,,,,,,,,,,,,,,,,,,,,,,,
,,,,,,,,2023-08-16_08h38.17.792,HF_wild_card,2022.2.4,Win32,59.99160118,5f43c9fbe038cc0b2deb75d8,64d2fd46c836a06233681665,64dc7cc840f663fcc38a3d53,,,,,,,decisionTrl,resources/DY.BMP,resources/DR.BMP,Door3,-0.21644564,-0.041379327,1,0,0,1.4279,optionLeft,70,1330,1,23,0,23,0,1,,,,,,,,,,,,,,,,,,,,,,,,,,,,,,,,,,,,,,,
,,,,,,,,2023-08-16_08h38.17.792,HF_wild_card,2022.2.4,Win32,59.99160118,5f43c9fbe038cc0b2deb75d8,64d2fd46c836a06233681665,64dc7cc840f663fcc38a3d53,,,,,,,ctch,resources/DB.BMP,resources/DR.BMP,Door4,0.319363379,-0.023342183,1,0,0,0.9533,optionRight,60,1390,1,24,0,24,0,1,,,,,,,,,,,,,,,,,,,,,,,,,,,,,,,,,,,,,,,
,,,,,,,,2023-08-16_08h38.17.792,HF_wild_card,2022.2.4,Win32,59.99160118,5f43c9fbe038cc0b2deb75d8,64d2fd46c836a06233681665,64dc7cc840f663fcc38a3d53,,,,,,,sngl,resources/Empty.png,resources/DBN.BMP,WildCard_NonEx,0.297082228,0.044562342,1,0,0,0.9758,optionRight,55,1445,1,25,0,25,0,1,,,,,,,,,,,,,,,,,,,,,,,,,,,,,,,,,,,,,,,
,,,,,,,,2023-08-16_08h38.17.792,HF_wild_card,2022.2.4,Win32,59.99160118,5f43c9fbe038cc0b2deb75d8,64d2fd46c836a06233681665,64dc7cc840f663fcc38a3d53,,,,,,,ctch,resources/DR.BMP,resources/DB.BMP,Door4,-0.29814322,-0.027586231,1,0,0,1.097,optionLeft,60,1505,1,26,0,26,0,1,,,,,,,,,,,,,,,,,,,,,,,,,,,,,,,,,,,,,,,
,,,,,,,,2023-08-16_08h38.17.792,HF_wild_card,2022.2.4,Win32,59.99160118,5f43c9fbe038cc0b2deb75d8,64d2fd46c836a06233681665,64dc7cc840f663fcc38a3d53,,,,,,,decisionTrl,resources/DR.BMP,resources/DY.BMP,Door3,0.274801077,-0.05941647,1,0,0,1.0788,optionRight,70,1575,1,27,0,27,0,1,,,,,,,,,,,,,,,,,,,,,,,,,,,,,,,,,,,,,,,
,,,,,,,,2023-08-16_08h38.17.792,HF_wild_card,2022.2.4,Win32,59.99160118,5f43c9fbe038cc0b2deb75d8,64d2fd46c836a06233681665,64dc7cc840f663fcc38a3d53,,,,,,,decisionTrl,resources/DB.BMP,resources/DBN.BMP,WildCard_NonEx,0.182493417,0.007427064,1,0,0,1.3751,optionRight,55,1630,1,28,0,28,0,1,,,,,,,,,,,,,,,,,,,,,,,,,,,,,,,,,,,,,,,
,,,,,,,,2023-08-16_08h38.17.792,HF_wild_card,2022.2.4,Win32,59.99160118,5f43c9fbe038cc0b2deb75d8,64d2fd46c836a06233681665,64dc7cc840f663fcc38a3d53,,,,,,,sngl,resources/Empty.png,resources/DR.BMP,Door4,0.383023937,0.051989366,1,0,0,0.9794,optionRight,60,1690,1,29,0,29,0,1,,,,,,,,,,,,,,,,,,,,,,,,,,,,,,,,,,,,,,,
,,,,,,,,2023-08-16_08h38.17.792,HF_wild_card,2022.2.4,Win32,59.99160118,5f43c9fbe038cc0b2deb75d8,64d2fd46c836a06233681665,64dc7cc840f663fcc38a3d53,,,,,,,sngl,resources/DBN.BMP,resources/Empty.png,WildCard_NonEx,-0.272679013,-0.045623334,1,0,0,0.8661,optionLeft,55,1745,1,30,0,30,0,1,,,,,,,,,,,,,,,,,,,,,,,,,,,,,,,,,,,,,,,
,,,,,,,,2023-08-16_08h38.17.792,HF_wild_card,2022.2.4,Win32,59.99160118,5f43c9fbe038cc0b2deb75d8,64d2fd46c836a06233681665,64dc7cc840f663fcc38a3d53,,,,,,,sngl,resources/Empty.png,resources/DY.BMP,Door3,0.256763974,0.04880635,1,0,0,0.8741,optionRight,70,1815,1,31,0,31,0,1,,,,,,,,,,,,,,,,,,,,,,,,,,,,,,,,,,,,,,,
,,,,,,,,2023-08-16_08h38.17.792,HF_wild_card,2022.2.4,Win32,59.99160118,5f43c9fbe038cc0b2deb75d8,64d2fd46c836a06233681665,64dc7cc840f663fcc38a3d53,,,,,,,sngl,resources/Empty.png,resources/DP.BMP,Door2,0.180371353,-0.008488056,1,0,0,1.253,optionRight,20,1835,1,32,0,32,0,1,,,,,,,,,,,,,,,,,,,,,,,,,,,,,,,,,,,,,,,
,,,,,,,,2023-08-16_08h38.17.792,HF_wild_card,2022.2.4,Win32,59.99160118,5f43c9fbe038cc0b2deb75d8,64d2fd46c836a06233681665,64dc7cc840f663fcc38a3d53,,,,,,,decisionTrl,resources/DP.BMP,resources/DB.BMP,Door2,-0.308753299,-0.080636629,1,0,0,1.1766,optionLeft,40,1875,1,33,0,33,0,1,,,,,,,,,,,,,,,,,,,,,,,,,,,,,,,,,,,,,,,
,,,,,,,,2023-08-16_08h38.17.792,HF_wild_card,2022.2.4,Win32,59.99160118,5f43c9fbe038cc0b2deb75d8,64d2fd46c836a06233681665,64dc7cc840f663fcc38a3d53,,,,,,,decisionTrl,resources/DP.BMP,resources/DB.BMP,Door1,0.222811671,-0.015915119,1,0,0,1.1725,optionRight,30,1905,1,34,0,34,0,1,,,,,,,,,,,,,,,,,,,,,,,,,,,,,,,,,,,,,,,
,,,,,,,,2023-08-16_08h38.17.792,HF_wild_card,2022.2.4,Win32,59.99160118,5f43c9fbe038cc0b2deb75d8,64d2fd46c836a06233681665,64dc7cc840f663fcc38a3d53,,,,,,,sngl,resources/DBN.BMP,resources/Empty.png,WildCard_NonEx,-0.270557029,-0.050928374,1,0,0,2.0765,optionLeft,45,1950,1,35,0,35,0,1,,,,,,,,,,,,,,,,,,,,,,,,,,,,,,,,,,,,,,,
,,,,,,,,2023-08-16_08h38.17.792,HF_wild_card,2022.2.4,Win32,59.99160118,5f43c9fbe038cc0b2deb75d8,64d2fd46c836a06233681665,64dc7cc840f663fcc38a3d53,,,,,,,ctch,resources/DP.BMP,resources/DY.BMP,Door3,0.279045125,0.007427064,1,0,0,1.4048,optionRight,70,2020,1,36,0,36,0,1,,,,,,,,,,,,,,,,,,,,,,,,,,,,,,,,,,,,,,,
,,,,,,,,2023-08-16_08h38.17.792,HF_wild_card,2022.2.4,Win32,59.99160118,5f43c9fbe038cc0b2deb75d8,64d2fd46c836a06233681665,64dc7cc840f663fcc38a3d53,,,,,,,decisionTrl,resources/DB.BMP,resources/DP.BMP,Door2,0.182493417,-0.012732104,1,0,0,1.3912,optionRight,40,2060,1,37,0,37,0,1,,,,,,,,,,,,,,,,,,,,,,,,,,,,,,,,,,,,,,,
,,,,,,,,2023-08-16_08h38.17.792,HF_wild_card,2022.2.4,Win32,59.99160118,5f43c9fbe038cc0b2deb75d8,64d2fd46c836a06233681665,64dc7cc840f663fcc38a3d53,,,,,,,decisionTrl,resources/DR.BMP,resources/DBN.BMP,Door4,-0.293899172,-0.089124685,1,0,0,1.2404,optionLeft,60,2120,1,38,0,38,0,1,,,,,,,,,,,,,,,,,,,,,,,,,,,,,,,,,,,,,,,
,,,,,,,,2023-08-16_08h38.17.792,HF_wild_card,2022.2.4,Win32,59.99160118,5f43c9fbe038cc0b2deb75d8,64d2fd46c836a06233681665,64dc7cc840f663fcc38a3d53,,,,,,,sngl,resources/Empty.png,resources/DBN.BMP,WildCard_NonEx,0.273740085,0.050928374,1,0,0,1.1106,optionRight,45,2165,1,39,0,39,0,1,,,,,,,,,,,,,,,,,,,,,,,,,,,,,,,,,,,,,,,
,,,,,,,,2023-08-16_08h38.17.792,HF_wild_card,2022.2.4,Win32,59.99160118,5f43c9fbe038cc0b2deb75d8,64d2fd46c836a06233681665,64dc7cc840f663fcc38a3d53,,,,,,,ctch,resources/DY.BMP,resources/DP.BMP,Door3,-0.299204212,-0.024403175,1,0,0,1.0608,optionLeft,70,2235,1,40,0,40,0,1,,,,,,,,,,,,,,,,,,,,,,,,,,,,,,,,,,,,,,,
,,,,,,,,2023-08-16_08h38.17.792,HF_wild_card,2022.2.4,Win32,59.99160118,5f43c9fbe038cc0b2deb75d8,64d2fd46c836a06233681665,64dc7cc840f663fcc38a3d53,,,,,,,decisionTrl,resources/DR.BMP,resources/DY.BMP,Door3,0.283289173,-0.035013255,1,0,0,1.6763,optionRight,70,2305,1,41,0,41,0,1,,,,,,,,,,,,,,,,,,,,,,,,,,,,,,,,,,,,,,,
,,,,,,,,2023-08-16_08h38.17.792,HF_wild_card,2022.2.4,Win32,59.99160118,5f43c9fbe038cc0b2deb75d8,64d2fd46c836a06233681665,64dc7cc840f663fcc38a3d53,,,,,,,decisionTrl,resources/DB.BMP,resources/DP.BMP,Door2,0.262069014,-0.097612821,1,0,0,1.4955,optionRight,40,2345,1,42,0,42,0,1,,,,,,,,,,,,,,,,,,,,,,,,,,,,,,,,,,,,,,,
,,,,,,,,2023-08-16_08h38.17.792,HF_wild_card,2022.2.4,Win32,59.99160118,5f43c9fbe038cc0b2deb75d8,64d2fd46c836a06233681665,64dc7cc840f663fcc38a3d53,,,,,,,decisionTrl,resources/DP.BMP,resources/DB.BMP,Door1,0.123076907,-0.032891271,1,0,0,1.2961,optionRight,30,2375,1,43,0,43,0,1,,,,,,,,,,,,,,,,,,,,,,,,,,,,,,,,,,,,,,,
,,,,,,,,2023-08-16_08h38.17.792,HF_wild_card,2022.2.4,Win32,59.99160118,5f43c9fbe038cc0b2deb75d8,64d2fd46c836a06233681665,64dc7cc840f663fcc38a3d53,,,,,,,,,,,,,,,,,,,,,,,,,,0,0,0,0,1,,,,,,,,,,,,,,,,,,,,,,,,,,,,,,,,,,
,,,,,,,,2023-08-16_08h38.17.792,HF_wild_card,2022.2.4,Win32,59.99160118,5f43c9fbe038cc0b2deb75d8,64d2fd46c836a06233681665,64dc7cc840f663fcc38a3d53,,,,,,,sngl,resources/Empty.png,resources/DBN.BMP,WildCard_NonEx,0.209018616,-0.178249329,1,0,0,1.107,optionRight,45,2420,2,0,0,0,0,1,,,,,,,,,,,,,,,,,,,,,,,,,,,,,,,,,,,,,,,
,,,,,,,,2023-08-16_08h38.17.792,HF_wild_card,2022.2.4,Win32,59.99160118,5f43c9fbe038cc0b2deb75d8,64d2fd46c836a06233681665,64dc7cc840f663fcc38a3d53,,,,,,,decisionTrl,resources/DY.BMP,resources/DR.BMP,Door3,-0.24933687,-0.036074287,1,0,0,1.0768,optionLeft,70,2490,2,1,0,1,0,1,,,,,,,,,,,,,,,,,,,,,,,,,,,,,,,,,,,,,,,
,,,,,,,,2023-08-16_08h38.17.792,HF_wild_card,2022.2.4,Win32,59.99160118,5f43c9fbe038cc0b2deb75d8,64d2fd46c836a06233681665,64dc7cc840f663fcc38a3d53,,,,,,,decisionTrl,resources/DP.BMP,resources/DB.BMP,Door2,-0.270557029,-0.026525199,1,0,0,1.4077,optionLeft,40,2530,2,2,0,2,0,1,,,,,,,,,,,,,,,,,,,,,,,,,,,,,,,,,,,,,,,
,,,,,,,,2023-08-16_08h38.17.792,HF_wild_card,2022.2.4,Win32,59.99160118,5f43c9fbe038cc0b2deb75d8,64d2fd46c836a06233681665,64dc7cc840f663fcc38a3d53,,,,,,,decisionTrl,resources/DB.BMP,resources/DP.BMP,Door2,0.268435046,-0.060477462,1,0,0,1.1602,optionRight,40,2570,2,3,0,3,0,1,,,,,,,,,,,,,,,,,,,,,,,,,,,,,,,,,,,,,,,
,,,,,,,,2023-08-16_08h38.17.792,HF_wild_card,2022.2.4,Win32,59.99160118,5f43c9fbe038cc0b2deb75d8,64d2fd46c836a06233681665,64dc7cc840f663fcc38a3d53,,,,,,,sngl,resources/DP.BMP,resources/Empty.png,Door2,-0.300265203,0.00530504,1,0,0,1.0781,optionLeft,20,2590,2,4,0,4,0,1,,,,,,,,,,,,,,,,,,,,,,,,,,,,,,,,,,,,,,,
,,,,,,,,2023-08-16_08h38.17.792,HF_wild_card,2022.2.4,Win32,59.99160118,5f43c9fbe038cc0b2deb75d8,64d2fd46c836a06233681665,64dc7cc840f663fcc38a3d53,,,,,,,sngl,resources/DB.BMP,resources/Empty.png,Door1,-0.245092822,0.036074246,1,0,0,0.7124,optionLeft,30,2620,2,5,0,5,0,1,,,,,,,,,,,,,,,,,,,,,,,,,,,,,,,,,,,,,,,
,,,,,,,,2023-08-16_08h38.17.792,HF_wild_card,2022.2.4,Win32,59.99160118,5f43c9fbe038cc0b2deb75d8,64d2fd46c836a06233681665,64dc7cc840f663fcc38a3d53,,,,,,,sngl,resources/DR.BMP,resources/Empty.png,Door4,-0.271618021,0.012732104,1,0,0,0.8445,optionLeft,60,2680,2,6,0,6,0,1,,,,,,,,,,,,,,,,,,,,,,,,,,,,,,,,,,,,,,,
,,,,,,,,2023-08-16_08h38.17.792,HF_wild_card,2022.2.4,Win32,59.99160118,5f43c9fbe038cc0b2deb75d8,64d2fd46c836a06233681665,64dc7cc840f663fcc38a3d53,,,,,,,sngl,resources/Empty.png,resources/DBN.BMP,WildCard_NonEx,0.350132626,-0.014854128,1,0,0,0.9117,optionRight,55,2735,2,7,0,7,0,1,,,,,,,,,,,,,,,,,,,,,,,,,,,,,,,,,,,,,,,
,,,,,,,,2023-08-16_08h38.17.792,HF_wild_card,2022.2.4,Win32,59.99160118,5f43c9fbe038cc0b2deb75d8,64d2fd46c836a06233681665,64dc7cc840f663fcc38a3d53,,,,,,,decisionTrl,resources/DP.BMP,resources/DB.BMP,Door2,-0.23872679,-0.022281191,1,0,0,1.0696,optionLeft,40,2775,2,8,0,8,0,1,,,,,,,,,,,,,,,,,,,,,,,,,,,,,,,,,,,,,,,
,,,,,,,,2023-08-16_08h38.17.792,HF_wild_card,2022.2.4,Win32,59.99160118,5f43c9fbe038cc0b2deb75d8,64d2fd46c836a06233681665,64dc7cc840f663fcc38a3d53,,,,,,,sngl,resources/DBN.BMP,resources/Empty.png,WildCard_NonEx,-0.237665799,-0.016976152,1,0,0,0.7975,optionLeft,45,2820,2,9,0,9,0,1,,,,,,,,,,,,,,,,,,,,,,,,,,,,,,,,,,,,,,,
,,,,,,,,2023-08-16_08h38.17.792,HF_wild_card,2022.2.4,Win32,59.99160118,5f43c9fbe038cc0b2deb75d8,64d2fd46c836a06233681665,64dc7cc840f663fcc38a3d53,,,,,,,sngl,resources/Empty.png,resources/DR.BMP,Door4,0.29283818,0.004244008,1,0,0,0.7316,optionRight,80,2900,2,10,0,10,0,1,,,,,,,,,,,,,,,,,,,,,,,,,,,,,,,,,,,,,,,
,,,,,,,,2023-08-16_08h38.17.792,HF_wild_card,2022.2.4,Win32,59.99160118,5f43c9fbe038cc0b2deb75d8,64d2fd46c836a06233681665,64dc7cc840f663fcc38a3d53,,,,,,,ctch,resources/DY.BMP,resources/DP.BMP,Door3,-0.279045044,-0.00530504,1,0,0,0.8903,optionLeft,70,2970,2,11,0,11,0,1,,,,,,,,,,,,,,,,,,,,,,,,,,,,,,,,,,,,,,,
,,,,,,,,2023-08-16_08h38.17.792,HF_wild_card,2022.2.4,Win32,59.99160118,5f43c9fbe038cc0b2deb75d8,64d2fd46c836a06233681665,64dc7cc840f663fcc38a3d53,,,,,,,decisionTrl,resources/DBN.BMP,resources/DY.BMP,Door3,0.320424452,-0.021220159,1,0,0,0.8284,optionRight,70,3040,2,12,0,12,0,1,,,,,,,,,,,,,,,,,,,,,,,,,,,,,,,,,,,,,,,
,,,,,,,,2023-08-16_08h38.17.792,HF_wild_card,2022.2.4,Win32,59.99160118,5f43c9fbe038cc0b2deb75d8,64d2fd46c836a06233681665,64dc7cc840f663fcc38a3d53,,,,,,,decisionTrl,resources/DBN.BMP,resources/DR.BMP,Door4,0.126259963,-0.023342183,1,0,0,1.5941,optionRight,60,3100,2,13,0,13,0,1,,,,,,,,,,,,,,,,,,,,,,,,,,,,,,,,,,,,,,,
,,,,,,,,2023-08-16_08h38.17.792,HF_wild_card,2022.2.4,Win32,59.99160118,5f43c9fbe038cc0b2deb75d8,64d2fd46c836a06233681665,64dc7cc840f663fcc38a3d53,,,,,,,sngl,resources/Empty.png,resources/DY.BMP,Door3,0.229177703,-0.007427064,1,0,0,0.8121,optionRight,70,3170,2,14,0,14,0,1,,,,,,,,,,,,,,,,,,,,,,,,,,,,,,,,,,,,,,,
,,,,,,,,2023-08-16_08h38.17.792,HF_wild_card,2022.2.4,Win32,59.99160118,5f43c9fbe038cc0b2deb75d8,64d2fd46c836a06233681665,64dc7cc840f663fcc38a3d53,,,,,,,ctch,resources/DP.BMP,resources/DY.BMP,Door3,0.325729492,-0.049867382,1,0,0,0.7968,optionRight,70,3240,2,15,0,15,0,1,,,,,,,,,,,,,,,,,,,,,,,,,,,,,,,,,,,,,,,
,,,,,,,,2023-08-16_08h38.17.792,HF_wild_card,2022.2.4,Win32,59.99160118,5f43c9fbe038cc0b2deb75d8,64d2fd46c836a06233681665,64dc7cc840f663fcc38a3d53,,,,,,,decisionTrl,resources/DBN.BMP,resources/DP.BMP,WildCard_NonEx,-0.178249288,-0.002122024,1,0,0,1.2932,optionLeft,45,3285,2,16,0,16,0,1,,,,,,,,,,,,,,,,,,,,,,,,,,,,,,,,,,,,,,,
,,,,,,,,2023-08-16_08h38.17.792,HF_wild_card,2022.2.4,Win32,59.99160118,5f43c9fbe038cc0b2deb75d8,64d2fd46c836a06233681665,64dc7cc840f663fcc38a3d53,,,,,,,decisionTrl,resources/DP.BMP,resources/DB.BMP,Door2,-0.128381947,-0.024403175,1,0,0,1.379,optionLeft,20,3305,2,17,0,17,0,1,,,,,,,,,,,,,,,,,,,,,,,,,,,,,,,,,,,,,,,
,,,,,,,,2023-08-16_08h38.17.792,HF_wild_card,2022.2.4,Win32,59.99160118,5f43c9fbe038cc0b2deb75d8,64d2fd46c836a06233681665,64dc7cc840f663fcc38a3d53,,,,,,,ctch,resources/DY.BMP,resources/DP.BMP,Door3,-0.240848774,-0.046684366,1,0,0,0.8434,optionLeft,70,3375,2,18,0,18,0,1,,,,,,,,,,,,,,,,,,,,,,,,,,,,,,,,,,,,,,,
,,,,,,,,2023-08-16_08h38.17.792,HF_wild_card,2022.2.4,Win32,59.99160118,5f43c9fbe038cc0b2deb75d8,64d2fd46c836a06233681665,64dc7cc840f663fcc38a3d53,,,,,,,ctch,resources/DP.BMP,resources/DY.BMP,Door3,0.320424452,0.008488056,1,0,0,0.7497,optionRight,70,3445,2,19,0,19,0,1,,,,,,,,,,,,,,,,,,,,,,,,,,,,,,,,,,,,,,,
,,,,,,,,2023-08-16_08h38.17.792,HF_wild_card,2022.2.4,Win32,59.99160118,5f43c9fbe038cc0b2deb75d8,64d2fd46c836a06233681665,64dc7cc840f663fcc38a3d53,,,,,,,ctch,resources/DB.BMP,resources/DR.BMP,Door4,0.283289173,-0.018037143,1,0,0,1.2275,optionRight,60,3505,2,20,0,20,0,1,,,,,,,,,,,,,,,,,,,,,,,,,,,,,,,,,,,,,,,
,,,,,,,,2023-08-16_08h38.17.792,HF_wild_card,2022.2.4,Win32,59.99160118,5f43c9fbe038cc0b2deb75d8,64d2fd46c836a06233681665,64dc7cc840f663fcc38a3d53,,,,,,,decisionTrl,resources/DB.BMP,resources/DP.BMP,Door2,0.228116711,-0.030769247,1,0,0,0.9971,optionRight,20,3525,2,21,0,21,0,1,,,,,,,,,,,,,,,,,,,,,,,,,,,,,,,,,,,,,,,
,,,,,,,,2023-08-16_08h38.17.792,HF_wild_card,2022.2.4,Win32,59.99160118,5f43c9fbe038cc0b2deb75d8,64d2fd46c836a06233681665,64dc7cc840f663fcc38a3d53,,,,,,,decisionTrl,resources/DB.BMP,resources/DP.BMP,Door1,-0.106100796,-0.018037143,1,0,0,1.0624,optionLeft,30,3555,2,22,0,22,0,1,,,,,,,,,,,,,,,,,,,,,,,,,,,,,,,,,,,,,,,
,,,,,,,,2023-08-16_08h38.17.792,HF_wild_card,2022.2.4,Win32,59.99160118,5f43c9fbe038cc0b2deb75d8,64d2fd46c836a06233681665,64dc7cc840f663fcc38a3d53,,,,,,,decisionTrl,resources/DR.BMP,resources/DY.BMP,Door3,0.293899253,-0.031830239,1,0,0,0.8942,optionRight,70,3625,2,23,0,23,0,1,,,,,,,,,,,,,,,,,,,,,,,,,,,,,,,,,,,,,,,
,,,,,,,,2023-08-16_08h38.17.792,HF_wild_card,2022.2.4,Win32,59.99160118,5f43c9fbe038cc0b2deb75d8,64d2fd46c836a06233681665,64dc7cc840f663fcc38a3d53,,,,,,,sngl,resources/DY.BMP,resources/Empty.png,Door3,-0.168700281,-0.014854128,1,0,0,0.8117,optionLeft,70,3695,2,24,0,24,0,1,,,,,,,,,,,,,,,,,,,,,,,,,,,,,,,,,,,,,,,
,,,,,,,,2023-08-16_08h38.17.792,HF_wild_card,2022.2.4,Win32,59.99160118,5f43c9fbe038cc0b2deb75d8,64d2fd46c836a06233681665,64dc7cc840f663fcc38a3d53,,,,,,,sngl,resources/DBN.BMP,resources/Empty.png,WildCard_NonEx,-0.190981432,-0.015915119,1,0,0,0.6462,optionLeft,55,3750,2,25,0,25,0,1,,,,,,,,,,,,,,,,,,,,,,,,,,,,,,,,,,,,,,,
,,,,,,,,2023-08-16_08h38.17.792,HF_wild_card,2022.2.4,Win32,59.99160118,5f43c9fbe038cc0b2deb75d8,64d2fd46c836a06233681665,64dc7cc840f663fcc38a3d53,,,,,,,decisionTrl,resources/DB.BMP,resources/DBN.BMP,WildCard_NonEx,0.215384648,-0.012732104,1,0,0,1.2798,optionRight,55,3805,2,26,0,26,0,1,,,,,,,,,,,,,,,,,,,,,,,,,,,,,,,,,,,,,,,
,,,,,,,,2023-08-16_08h38.17.792,HF_wild_card,2022.2.4,Win32,59.99160118,5f43c9fbe038cc0b2deb75d8,64d2fd46c836a06233681665,64dc7cc840f663fcc38a3d53,,,,,,,decisionTrl,resources/DP.BMP,resources/DBN.BMP,WildCard_NonEx,0.237665799,-0.023342183,1,0,0,1.195,optionRight,55,3860,2,27,0,27,0,1,,,,,,,,,,,,,,,,,,,,,,,,,,,,,,,,,,,,,,,
,,,,,,,,2023-08-16_08h38.17.792,HF_wild_card,2022.2.4,Win32,59.99160118,5f43c9fbe038cc0b2deb75d8,64d2fd46c836a06233681665,64dc7cc840f663fcc38a3d53,,,,,,,decisionTrl,resources/DY.BMP,resources/DR.BMP,Door3,-0.172944249,0.006366032,1,0,0,0.8622,optionLeft,70,3930,2,28,0,28,0,1,,,,,,,,,,,,,,,,,,,,,,,,,,,,,,,,,,,,,,,
,,,,,,,,2023-08-16_08h38.17.792,HF_wild_card,2022.2.4,Win32,59.99160118,5f43c9fbe038cc0b2deb75d8,64d2fd46c836a06233681665,64dc7cc840f663fcc38a3d53,,,,,,,decisionTrl,resources/DR.BMP,resources/DY.BMP,Door3,0.235543815,-0.01061008,1,0,0,0.8456,optionRight,70,4000,2,29,0,29,0,1,,,,,,,,,,,,,,,,,,,,,,,,,,,,,,,,,,,,,,,
,,,,,,,,2023-08-16_08h38.17.792,HF_wild_card,2022.2.4,Win32,59.99160118,5f43c9fbe038cc0b2deb75d8,64d2fd46c836a06233681665,64dc7cc840f663fcc38a3d53,,,,,,,sngl,resources/Empty.png,resources/DB.BMP,Door1,0.289655205,-0.011671112,1,0,0,0.7772,optionRight,30,4030,2,30,0,30,0,1,,,,,,,,,,,,,,,,,,,,,,,,,,,,,,,,,,,,,,,
,,,,,,,,2023-08-16_08h38.17.792,HF_wild_card,2022.2.4,Win32,59.99160118,5f43c9fbe038cc0b2deb75d8,64d2fd46c836a06233681665,64dc7cc840f663fcc38a3d53,,,,,,,ctch,resources/DB.BMP,resources/DR.BMP,Door4,0.142175083,-0.020159167,1,0,0,1.0592,optionRight,80,4110,2,31,0,31,0,1,,,,,,,,,,,,,,,,,,,,,,,,,,,,,,,,,,,,,,,
,,,,,,,,2023-08-16_08h38.17.792,HF_wild_card,2022.2.4,Win32,59.99160118,5f43c9fbe038cc0b2deb75d8,64d2fd46c836a06233681665,64dc7cc840f663fcc38a3d53,,,,,,,decisionTrl,resources/DY.BMP,resources/DR.BMP,Door4,0.240848855,-0.042440318,1,0,0,0.9894,optionRight,80,4190,2,32,0,32,0,1,,,,,,,,,,,,,,,,,,,,,,,,,,,,,,,,,,,,,,,
,,,,,,,,2023-08-16_08h38.17.792,HF_wild_card,2022.2.4,Win32,59.99160118,5f43c9fbe038cc0b2deb75d8,64d2fd46c836a06233681665,64dc7cc840f663fcc38a3d53,,,,,,,decisionTrl,resources/DR.BMP,resources/DY.BMP,Door4,-0.229177703,-0.036074287,1,0,0,0.9321,optionLeft,60,4250,2,33,0,33,0,1,,,,,,,,,,,,,,,,,,,,,,,,,,,,,,,,,,,,,,,
,,,,,,,,2023-08-16_08h38.17.792,HF_wild_card,2022.2.4,Win32,59.99160118,5f43c9fbe038cc0b2deb75d8,64d2fd46c836a06233681665,64dc7cc840f663fcc38a3d53,,,,,,,decisionTrl,resources/DY.BMP,resources/DBN.BMP,Door3,-0.229177703,-0.037135279,1,0,0,0.8096,optionLeft,70,4320,2,34,0,34,0,1,,,,,,,,,,,,,,,,,,,,,,,,,,,,,,,,,,,,,,,
,,,,,,,,2023-08-16_08h38.17.792,HF_wild_card,2022.2.4,Win32,59.99160118,5f43c9fbe038cc0b2deb75d8,64d2fd46c836a06233681665,64dc7cc840f663fcc38a3d53,,,,,,,decisionTrl,resources/DP.BMP,resources/DB.BMP,Door2,-0.186737384,-0.075331589,1,0,0,1.2482,optionLeft,40,4360,2,35,0,35,0,1,,,,,,,,,,,,,,,,,,,,,,,,,,,,,,,,,,,,,,,
,,,,,,,,2023-08-16_08h38.17.792,HF_wild_card,2022.2.4,Win32,59.99160118,5f43c9fbe038cc0b2deb75d8,64d2fd46c836a06233681665,64dc7cc840f663fcc38a3d53,,,,,,,decisionTrl,resources/DR.BMP,resources/DBN.BMP,Door4,-0.201591512,-0.039257303,1,0,0,1.9733,optionLeft,60,4420,2,36,0,36,0,1,,,,,,,,,,,,,,,,,,,,,,,,,,,,,,,,,,,,,,,
,,,,,,,,2023-08-16_08h38.17.792,HF_wild_card,2022.2.4,Win32,59.99160118,5f43c9fbe038cc0b2deb75d8,64d2fd46c836a06233681665,64dc7cc840f663fcc38a3d53,,,,,,,ctch,resources/DR.BMP,resources/DB.BMP,Door4,-0.188859368,-0.042440318,1,0,0,1.6456,optionLeft,80,4500,2,37,0,37,0,1,,,,,,,,,,,,,,,,,,,,,,,,,,,,,,,,,,,,,,,
,,,,,,,,2023-08-16_08h38.17.792,HF_wild_card,2022.2.4,Win32,59.99160118,5f43c9fbe038cc0b2deb75d8,64d2fd46c836a06233681665,64dc7cc840f663fcc38a3d53,,,,,,,decisionTrl,resources/DY.BMP,resources/DR.BMP,Door4,0.145358139,-0.045623334,1,0,0,1.4067,optionRight,60,4560,2,38,0,38,0,1,,,,,,,,,,,,,,,,,,,,,,,,,,,,,,,,,,,,,,,
,,,,,,,,2023-08-16_08h38.17.792,HF_wild_card,2022.2.4,Win32,59.99160118,5f43c9fbe038cc0b2deb75d8,64d2fd46c836a06233681665,64dc7cc840f663fcc38a3d53,,,,,,,ctch,resources/DR.BMP,resources/DB.BMP,Door4,-0.212201592,-0.036074287,1,0,0,0.7012,optionLeft,60,4620,2,39,0,39,0,1,,,,,,,,,,,,,,,,,,,,,,,,,,,,,,,,,,,,,,,
,,,,,,,,2023-08-16_08h38.17.792,HF_wild_card,2022.2.4,Win32,59.99160118,5f43c9fbe038cc0b2deb75d8,64d2fd46c836a06233681665,64dc7cc840f663fcc38a3d53,,,,,,,sngl,resources/Empty.png,resources/DP.BMP,Door2,0.219628696,-0.019098135,1,0,0,0.7771,optionRight,40,4660,2,40,0,40,0,1,,,,,,,,,,,,,,,,,,,,,,,,,,,,,,,,,,,,,,,
,,,,,,,,2023-08-16_08h38.17.792,HF_wild_card,2022.2.4,Win32,59.99160118,5f43c9fbe038cc0b2deb75d8,64d2fd46c836a06233681665,64dc7cc840f663fcc38a3d53,,,,,,,decisionTrl,resources/DB.BMP,resources/DP.BMP,Door2,0.184615401,-0.06472151,1,0,0,1.0741,optionRight,40,4700,2,41,0,41,0,1,,,,,,,,,,,,,,,,,,,,,,,,,,,,,,,,,,,,,,,
,,,,,,,,2023-08-16_08h38.17.792,HF_wild_card,2022.2.4,Win32,59.99160118,5f43c9fbe038cc0b2deb75d8,64d2fd46c836a06233681665,64dc7cc840f663fcc38a3d53,,,,,,,decisionTrl,resources/DBN.BMP,resources/DB.BMP,WildCard_NonEx,-0.215384567,-0.022281191,1,0,0,0.9166,optionLeft,45,4745,2,42,0,42,0,1,,,,,,,,,,,,,,,,,,,,,,,,,,,,,,,,,,,,,,,
,,,,,,,,2023-08-16_08h38.17.792,HF_wild_card,2022.2.4,Win32,59.99160118,5f43c9fbe038cc0b2deb75d8,64d2fd46c836a06233681665,64dc7cc840f663fcc38a3d53,,,,,,,decisionTrl,resources/DR.BMP,resources/DY.BMP,Door3,0.187798457,-0.050928374,1,0,0,0.805,optionRight,70,4815,2,43,0,43,0,1,,,,,,,,,,,,,,,,,,,,,,,,,,,,,,,,,,,,,,,
,,,,,,,,2023-08-16_08h38.17.792,HF_wild_card,2022.2.4,Win32,59.99160118,5f43c9fbe038cc0b2deb75d8,64d2fd46c836a06233681665,64dc7cc840f663fcc38a3d53,,,,,,,,,,,,,,,,,,,,,,,,,,1,0,1,0,1,,,,,,,,,,,,,,,,,,,,,,,,,,,,,,,,,,
,,,,,,,,2023-08-16_08h38.17.792,HF_wild_card,2022.2.4,Win32,59.99160118,5f43c9fbe038cc0b2deb75d8,64d2fd46c836a06233681665,64dc7cc840f663fcc38a3d53,,,,,,,sngl,resources/Empty.png,resources/DY.BMP,Door3,0.282228101,-0.119893891,1,0,0,0.9971,optionRight,70,4885,3,0,0,0,0,1,,,,,,,,,,,,,,,,,,,,,,,,,,,,,,,,,,,,,,,
,,,,,,,,2023-08-16_08h38.17.792,HF_wild_card,2022.2.4,Win32,59.99160118,5f43c9fbe038cc0b2deb75d8,64d2fd46c836a06233681665,64dc7cc840f663fcc38a3d53,,,,,,,sngl,resources/Empty.png,resources/DBN.BMP,WildCard_NonEx,0.206896552,-0.00530504,1,0,0,0.7613,optionRight,45,4930,3,1,0,1,0,1,,,,,,,,,,,,,,,,,,,,,,,,,,,,,,,,,,,,,,,
,,,,,,,,2023-08-16_08h38.17.792,HF_wild_card,2022.2.4,Win32,59.99160118,5f43c9fbe038cc0b2deb75d8,64d2fd46c836a06233681665,64dc7cc840f663fcc38a3d53,,,,,,,decisionTrl,resources/DY.BMP,resources/DR.BMP,Door3,-0.201591512,-0.026525199,1,0,0,0.6437,optionLeft,70,5000,3,2,0,2,0,1,,,,,,,,,,,,,,,,,,,,,,,,,,,,,,,,,,,,,,,
,,,,,,,,2023-08-16_08h38.17.792,HF_wild_card,2022.2.4,Win32,59.99160118,5f43c9fbe038cc0b2deb75d8,64d2fd46c836a06233681665,64dc7cc840f663fcc38a3d53,,,,,,,decisionTrl,resources/DP.BMP,resources/DB.BMP,Door2,-0.190981432,-0.002122024,1,0,0,1.3367,optionLeft,20,5020,3,3,0,3,0,1,,,,,,,,,,,,,,,,,,,,,,,,,,,,,,,,,,,,,,,
,,,,,,,,2023-08-16_08h38.17.792,HF_wild_card,2022.2.4,Win32,59.99160118,5f43c9fbe038cc0b2deb75d8,64d2fd46c836a06233681665,64dc7cc840f663fcc38a3d53,,,,,,,decisionTrl,resources/DP.BMP,resources/DB.BMP,Door1,0.25464191,-0.027586231,1,0,0,0.7325,optionRight,30,5050,3,4,0,4,0,1,,,,,,,,,,,,,,,,,,,,,,,,,,,,,,,,,,,,,,,
,,,,,,,,2023-08-16_08h38.17.792,HF_wild_card,2022.2.4,Win32,59.99160118,5f43c9fbe038cc0b2deb75d8,64d2fd46c836a06233681665,64dc7cc840f663fcc38a3d53,,,,,,,decisionTrl,resources/DBN.BMP,resources/DB.BMP,WildCard_NonEx,-0.203713495,-0.057294446,1,0,0,0.8822,optionLeft,55,5105,3,5,0,5,0,1,,,,,,,,,,,,,,,,,,,,,,,,,,,,,,,,,,,,,,,
,,,,,,,,2023-08-16_08h38.17.792,HF_wild_card,2022.2.4,Win32,59.99160118,5f43c9fbe038cc0b2deb75d8,64d2fd46c836a06233681665,64dc7cc840f663fcc38a3d53,,,,,,,decisionTrl,resources/DB.BMP,resources/DP.BMP,Door2,0.279045125,-0.123076947,1,0,0,0.9555,optionRight,20,5125,3,6,0,6,0,1,,,,,,,,,,,,,,,,,,,,,,,,,,,,,,,,,,,,,,,
,,,,,,,,2023-08-16_08h38.17.792,HF_wild_card,2022.2.4,Win32,59.99160118,5f43c9fbe038cc0b2deb75d8,64d2fd46c836a06233681665,64dc7cc840f663fcc38a3d53,,,,,,,decisionTrl,resources/DR.BMP,resources/DY.BMP,Door3,0.215384648,-0.037135279,1,0,0,1.2604,optionRight,70,5195,3,7,0,7,0,1,,,,,,,,,,,,,,,,,,,,,,,,,,,,,,,,,,,,,,,
,,,,,,,,2023-08-16_08h38.17.792,HF_wild_card,2022.2.4,Win32,59.99160118,5f43c9fbe038cc0b2deb75d8,64d2fd46c836a06233681665,64dc7cc840f663fcc38a3d53,,,,,,,sngl,resources/Empty.png,resources/DB.BMP,Door1,0.242970838,-0.04880639,1,0,0,0.8166,optionRight,30,5225,3,8,0,8,0,1,,,,,,,,,,,,,,,,,,,,,,,,,,,,,,,,,,,,,,,
,,,,,,,,2023-08-16_08h38.17.792,HF_wild_card,2022.2.4,Win32,59.99160118,5f43c9fbe038cc0b2deb75d8,64d2fd46c836a06233681665,64dc7cc840f663fcc38a3d53,,,,,,,sngl,resources/DP.BMP,resources/Empty.png,Door2,-0.204774487,-0.025464207,1,0,0,0.7656,optionLeft,40,5265,3,9,0,9,0,1,,,,,,,,,,,,,,,,,,,,,,,,,,,,,,,,,,,,,,,
,,,,,,,,2023-08-16_08h38.17.792,HF_wild_card,2022.2.4,Win32,59.99160118,5f43c9fbe038cc0b2deb75d8,64d2fd46c836a06233681665,64dc7cc840f663fcc38a3d53,,,,,,,decisionTrl,resources/DY.BMP,resources/DR.BMP,Door3,-0.19522548,-0.029708215,1,0,0,1.1767,optionLeft,70,5335,3,10,0,10,0,1,,,,,,,,,,,,,,,,,,,,,,,,,,,,,,,,,,,,,,,
,,,,,,,,2023-08-16_08h38.17.792,HF_wild_card,2022.2.4,Win32,59.99160118,5f43c9fbe038cc0b2deb75d8,64d2fd46c836a06233681665,64dc7cc840f663fcc38a3d53,,,,,,,ctch,resources/DP.BMP,resources/DY.BMP,Door3,0.188859449,-0.015915119,1,0,0,1.2603,optionRight,70,5405,3,11,0,11,0,1,,,,,,,,,,,,,,,,,,,,,,,,,,,,,,,,,,,,,,,
,,,,,,,,2023-08-16_08h38.17.792,HF_wild_card,2022.2.4,Win32,59.99160118,5f43c9fbe038cc0b2deb75d8,64d2fd46c836a06233681665,64dc7cc840f663fcc38a3d53,,,,,,,decisionTrl,resources/DR.BMP,resources/DY.BMP,Door4,-0.145358058,-0.014854128,1,0,0,0.9256,optionLeft,60,5465,3,12,0,12,0,1,,,,,,,,,,,,,,,,,,,,,,,,,,,,,,,,,,,,,,,
,,,,,,,,2023-08-16_08h38.17.792,HF_wild_card,2022.2.4,Win32,59.99160118,5f43c9fbe038cc0b2deb75d8,64d2fd46c836a06233681665,64dc7cc840f663fcc38a3d53,,,,,,,ctch,resources/DB.BMP,resources/DR.BMP,Door4,0.28753314,-0.040318294,1,0,0,1.2133,optionRight,80,5545,3,13,0,13,0,1,,,,,,,,,,,,,,,,,,,,,,,,,,,,,,,,,,,,,,,
,,,,,,,,2023-08-16_08h38.17.792,HF_wild_card,2022.2.4,Win32,59.99160118,5f43c9fbe038cc0b2deb75d8,64d2fd46c836a06233681665,64dc7cc840f663fcc38a3d53,,,,,,,decisionTrl,resources/DR.BMP,resources/DY.BMP,Door3,0.251458935,-0.067904525,1,0,0,0.9329,optionRight,70,5615,3,14,0,14,0,1,,,,,,,,,,,,,,,,,,,,,,,,,,,,,,,,,,,,,,,
,,,,,,,,2023-08-16_08h38.17.792,HF_wild_card,2022.2.4,Win32,59.99160118,5f43c9fbe038cc0b2deb75d8,64d2fd46c836a06233681665,64dc7cc840f663fcc38a3d53,,,,,,,decisionTrl,resources/DBN.BMP,resources/DP.BMP,Door2,0.212201592,-0.040318294,1,0,0,1.6434,optionRight,40,5655,3,15,0,15,0,1,,,,,,,,,,,,,,,,,,,,,,,,,,,,,,,,,,,,,,,
,,,,,,,,2023-08-16_08h38.17.792,HF_wild_card,2022.2.4,Win32,59.99160118,5f43c9fbe038cc0b2deb75d8,64d2fd46c836a06233681665,64dc7cc840f663fcc38a3d53,,,,,,,decisionTrl,resources/DR.BMP,resources/DBN.BMP,Door4,-0.203713495,-0.040318294,1,0,0,1.2559,optionLeft,80,5735,3,16,0,16,0,1,,,,,,,,,,,,,,,,,,,,,,,,,,,,,,,,,,,,,,,
,,,,,,,,2023-08-16_08h38.17.792,HF_wild_card,2022.2.4,Win32,59.99160118,5f43c9fbe038cc0b2deb75d8,64d2fd46c836a06233681665,64dc7cc840f663fcc38a3d53,,,,,,,ctch,resources/DR.BMP,resources/DB.BMP,Door4,-0.189920441,-0.039257303,1,0,0,0.7935,optionLeft,80,5815,3,17,0,17,0,1,,,,,,,,,,,,,,,,,,,,,,,,,,,,,,,,,,,,,,,
,,,,,,,,2023-08-16_08h38.17.792,HF_wild_card,2022.2.4,Win32,59.99160118,5f43c9fbe038cc0b2deb75d8,64d2fd46c836a06233681665,64dc7cc840f663fcc38a3d53,,,,,,,ctch,resources/DP.BMP,resources/DY.BMP,Door3,0.271618021,-0.038196311,1,0,0,1.26,optionRight,70,5885,3,18,0,18,0,1,,,,,,,,,,,,,,,,,,,,,,,,,,,,,,,,,,,,,,,
,,,,,,,,2023-08-16_08h38.17.792,HF_wild_card,2022.2.4,Win32,59.99160118,5f43c9fbe038cc0b2deb75d8,64d2fd46c836a06233681665,64dc7cc840f663fcc38a3d53,,,,,,,ctch,resources/DB.BMP,resources/DR.BMP,Door4,0.284350165,-0.026525199,1,0,0,0.7651,optionRight,60,5945,3,19,0,19,0,1,,,,,,,,,,,,,,,,,,,,,,,,,,,,,,,,,,,,,,,
,,,,,,,,2023-08-16_08h38.17.792,HF_wild_card,2022.2.4,Win32,59.99160118,5f43c9fbe038cc0b2deb75d8,64d2fd46c836a06233681665,64dc7cc840f663fcc38a3d53,,,,,,,decisionTrl,resources/DB.BMP,resources/DP.BMP,Door2,0.193103497,-0.06472151,1,0,0,1.3323,optionRight,20,5965,3,20,0,20,0,1,,,,,,,,,,,,,,,,,,,,,,,,,,,,,,,,,,,,,,,
,,,,,,,,2023-08-16_08h38.17.792,HF_wild_card,2022.2.4,Win32,59.99160118,5f43c9fbe038cc0b2deb75d8,64d2fd46c836a06233681665,64dc7cc840f663fcc38a3d53,,,,,,,sngl,resources/Empty.png,resources/DBN.BMP,WildCard_NonEx,0.233421751,-0.025464207,1,0,0,0.778,optionRight,55,6020,3,21,0,21,0,1,,,,,,,,,,,,,,,,,,,,,,,,,,,,,,,,,,,,,,,
,,,,,,,,2023-08-16_08h38.17.792,HF_wild_card,2022.2.4,Win32,59.99160118,5f43c9fbe038cc0b2deb75d8,64d2fd46c836a06233681665,64dc7cc840f663fcc38a3d53,,,,,,,decisionTrl,resources/DP.BMP,resources/DB.BMP,Door2,-0.165517225,-0.028647223,1,0,0,0.8288,optionLeft,40,6060,3,22,0,22,0,1,,,,,,,,,,,,,,,,,,,,,,,,,,,,,,,,,,,,,,,
,,,,,,,,2023-08-16_08h38.17.792,HF_wild_card,2022.2.4,Win32,59.99160118,5f43c9fbe038cc0b2deb75d8,64d2fd46c836a06233681665,64dc7cc840f663fcc38a3d53,,,,,,,sngl,resources/DR.BMP,resources/Empty.png,Door4,-0.184615401,-0.015915119,1,0,0,0.7905,optionLeft,80,6140,3,23,0,23,0,1,,,,,,,,,,,,,,,,,,,,,,,,,,,,,,,,,,,,,,,
,,,,,,,,2023-08-16_08h38.17.792,HF_wild_card,2022.2.4,Win32,59.99160118,5f43c9fbe038cc0b2deb75d8,64d2fd46c836a06233681665,64dc7cc840f663fcc38a3d53,,,,,,,sngl,resources/DB.BMP,resources/Empty.png,Door1,-0.188859368,-0.01061008,1,0,0,0.8112,optionLeft,30,6170,3,24,0,24,0,1,,,,,,,,,,,,,,,,,,,,,,,,,,,,,,,,,,,,,,,
,,,,,,,,2023-08-16_08h38.17.792,HF_wild_card,2022.2.4,Win32,59.99160118,5f43c9fbe038cc0b2deb75d8,64d2fd46c836a06233681665,64dc7cc840f663fcc38a3d53,,,,,,,decisionTrl,resources/DY.BMP,resources/DR.BMP,Door4,0.267374054,-0.053050398,1,0,0,1.0489,optionRight,60,6230,3,25,0,25,0,1,,,,,,,,,,,,,,,,,,,,,,,,,,,,,,,,,,,,,,,
,,,,,,,,2023-08-16_08h38.17.792,HF_wild_card,2022.2.4,Win32,59.99160118,5f43c9fbe038cc0b2deb75d8,64d2fd46c836a06233681665,64dc7cc840f663fcc38a3d53,,,,,,,decisionTrl,resources/DB.BMP,resources/DP.BMP,Door2,0.300265284,-0.056233414,1,0,0,1.256,optionRight,20,6250,3,26,0,26,0,1,,,,,,,,,,,,,,,,,,,,,,,,,,,,,,,,,,,,,,,
,,,,,,,,2023-08-16_08h38.17.792,HF_wild_card,2022.2.4,Win32,59.99160118,5f43c9fbe038cc0b2deb75d8,64d2fd46c836a06233681665,64dc7cc840f663fcc38a3d53,,,,,,,decisionTrl,resources/DB.BMP,resources/DBN.BMP,Door1,-0.201591512,-0.026525199,1,0,0,0.9054,optionLeft,30,6280,3,27,0,27,0,1,,,,,,,,,,,,,,,,,,,,,,,,,,,,,,,,,,,,,,,
,,,,,,,,2023-08-16_08h38.17.792,HF_wild_card,2022.2.4,Win32,59.99160118,5f43c9fbe038cc0b2deb75d8,64d2fd46c836a06233681665,64dc7cc840f663fcc38a3d53,,,,,,,ctch,resources/DR.BMP,resources/DB.BMP,Door4,-0.196286472,-0.016976152,1,0,0,0.878,optionLeft,80,6360,3,28,0,28,0,1,,,,,,,,,,,,,,,,,,,,,,,,,,,,,,,,,,,,,,,
,,,,,,,,2023-08-16_08h38.17.792,HF_wild_card,2022.2.4,Win32,59.99160118,5f43c9fbe038cc0b2deb75d8,64d2fd46c836a06233681665,64dc7cc840f663fcc38a3d53,,,,,,,decisionTrl,resources/DB.BMP,resources/DP.BMP,Door2,0.240848855,-0.063660477,1,0,0,1.1659,optionRight,20,6380,3,29,0,29,0,1,,,,,,,,,,,,,,,,,,,,,,,,,,,,,,,,,,,,,,,
,,,,,,,,2023-08-16_08h38.17.792,HF_wild_card,2022.2.4,Win32,59.99160118,5f43c9fbe038cc0b2deb75d8,64d2fd46c836a06233681665,64dc7cc840f663fcc38a3d53,,,,,,,ctch,resources/DY.BMP,resources/DP.BMP,Door3,-0.240848774,-0.028647223,1,0,0,0.845,optionLeft,70,6450,3,30,0,30,0,1,,,,,,,,,,,,,,,,,,,,,,,,,,,,,,,,,,,,,,,
,,,,,,,,2023-08-16_08h38.17.792,HF_wild_card,2022.2.4,Win32,59.99160118,5f43c9fbe038cc0b2deb75d8,64d2fd46c836a06233681665,64dc7cc840f663fcc38a3d53,,,,,,,sngl,resources/DBN.BMP,resources/Empty.png,WildCard_NonEx,-0.241909766,-0.001061032,1,0,0,0.8444,optionLeft,55,6505,3,31,0,31,0,1,,,,,,,,,,,,,,,,,,,,,,,,,,,,,,,,,,,,,,,
,,,,,,,,2023-08-16_08h38.17.792,HF_wild_card,2022.2.4,Win32,59.99160118,5f43c9fbe038cc0b2deb75d8,64d2fd46c836a06233681665,64dc7cc840f663fcc38a3d53,,,,,,,sngl,resources/DBN.BMP,resources/Empty.png,WildCard_NonEx,-0.25994695,-0.007427064,1,0,0,0.7563,optionLeft,45,6550,3,32,0,32,0,1,,,,,,,,,,,,,,,,,,,,,,,,,,,,,,,,,,,,,,,
,,,,,,,,2023-08-16_08h38.17.792,HF_wild_card,2022.2.4,Win32,59.99160118,5f43c9fbe038cc0b2deb75d8,64d2fd46c836a06233681665,64dc7cc840f663fcc38a3d53,,,,,,,decisionTrl,resources/DP.BMP,resources/DBN.BMP,Door2,-0.138992026,-0.046684366,1,0,0,1.3741,optionLeft,20,6570,3,33,0,33,0,1,,,,,,,,,,,,,,,,,,,,,,,,,,,,,,,,,,,,,,,
,,,,,,,,2023-08-16_08h38.17.792,HF_wild_card,2022.2.4,Win32,59.99160118,5f43c9fbe038cc0b2deb75d8,64d2fd46c836a06233681665,64dc7cc840f663fcc38a3d53,,,,,,,ctch,resources/DY.BMP,resources/DP.BMP,Door3,-0.19522548,-0.046684366,1,0,0,0.9402,optionLeft,70,6640,3,34,0,34,0,1,,,,,,,,,,,,,,,,,,,,,,,,,,,,,,,,,,,,,,,
,,,,,,,,2023-08-16_08h38.17.792,HF_wild_card,2022.2.4,Win32,59.99160118,5f43c9fbe038cc0b2deb75d8,64d2fd46c836a06233681665,64dc7cc840f663fcc38a3d53,,,,,,,sngl,resources/Empty.png,resources/DP.BMP,Door2,0.268435046,-0.043501351,1,0,0,0.7334,optionRight,20,6660,3,35,0,35,0,1,,,,,,,,,,,,,,,,,,,,,,,,,,,,,,,,,,,,,,,
,,,,,,,,2023-08-16_08h38.17.792,HF_wild_card,2022.2.4,Win32,59.99160118,5f43c9fbe038cc0b2deb75d8,64d2fd46c836a06233681665,64dc7cc840f663fcc38a3d53,,,,,,,decisionTrl,resources/DR.BMP,resources/DY.BMP,Door4,-0.167639209,-0.049867382,1,0,0,1.2739,optionLeft,60,6720,3,36,0,36,0,1,,,,,,,,,,,,,,,,,,,,,,,,,,,,,,,,,,,,,,,
,,,,,,,,2023-08-16_08h38.17.792,HF_wild_card,2022.2.4,Win32,59.99160118,5f43c9fbe038cc0b2deb75d8,64d2fd46c836a06233681665,64dc7cc840f663fcc38a3d53,,,,,,,decisionTrl,resources/DBN.BMP,resources/DR.BMP,Door4,0.307692308,-0.041379327,1,0,0,0.9439,optionRight,60,6780,3,37,0,37,0,1,,,,,,,,,,,,,,,,,,,,,,,,,,,,,,,,,,,,,,,
,,,,,,,,2023-08-16_08h38.17.792,HF_wild_card,2022.2.4,Win32,59.99160118,5f43c9fbe038cc0b2deb75d8,64d2fd46c836a06233681665,64dc7cc840f663fcc38a3d53,,,,,,,sngl,resources/DY.BMP,resources/Empty.png,Door3,-0.213262583,-0.016976152,1,0,0,0.7455,optionLeft,70,6850,3,38,0,38,0,1,,,,,,,,,,,,,,,,,,,,,,,,,,,,,,,,,,,,,,,
,,,,,,,,2023-08-16_08h38.17.792,HF_wild_card,2022.2.4,Win32,59.99160118,5f43c9fbe038cc0b2deb75d8,64d2fd46c836a06233681665,64dc7cc840f663fcc38a3d53,,,,,,,decisionTrl,resources/DY.BMP,resources/DBN.BMP,Door3,-0.231299686,-0.037135279,1,0,0,0.778,optionLeft,70,6920,3,39,0,39,0,1,,,,,,,,,,,,,,,,,,,,,,,,,,,,,,,,,,,,,,,
,,,,,,,,2023-08-16_08h38.17.792,HF_wild_card,2022.2.4,Win32,59.99160118,5f43c9fbe038cc0b2deb75d8,64d2fd46c836a06233681665,64dc7cc840f663fcc38a3d53,,,,,,,decisionTrl,resources/DBN.BMP,resources/DY.BMP,Door3,0.294960245,-0.082758613,1,0,0,0.9418,optionRight,70,6990,3,40,0,40,0,1,,,,,,,,,,,,,,,,,,,,,,,,,,,,,,,,,,,,,,,
,,,,,,,,2023-08-16_08h38.17.792,HF_wild_card,2022.2.4,Win32,59.99160118,5f43c9fbe038cc0b2deb75d8,64d2fd46c836a06233681665,64dc7cc840f663fcc38a3d53,,,,,,,decisionTrl,resources/DY.BMP,resources/DR.BMP,Door3,-0.199469447,-0.009549088,1,0,0,0.9268,optionLeft,70,7060,3,41,0,41,0,1,,,,,,,,,,,,,,,,,,,,,,,,,,,,,,,,,,,,,,,
,,,,,,,,2023-08-16_08h38.17.792,HF_wild_card,2022.2.4,Win32,59.99160118,5f43c9fbe038cc0b2deb75d8,64d2fd46c836a06233681665,64dc7cc840f663fcc38a3d53,,,,,,,decisionTrl,resources/DP.BMP,resources/DB.BMP,Door1,0.171883338,-0.021220159,1,0,0,2.0098,optionRight,30,7090,3,42,0,42,0,1,,,,,,,,,,,,,,,,,,,,,,,,,,,,,,,,,,,,,,,
,,,,,,,,2023-08-16_08h38.17.792,HF_wild_card,2022.2.4,Win32,59.99160118,5f43c9fbe038cc0b2deb75d8,64d2fd46c836a06233681665,64dc7cc840f663fcc38a3d53,,,,,,,sngl,resources/Empty.png,resources/DR.BMP,Door4,0.263130006,-0.029708215,1,0,0,0.7621,optionRight,60,7150,3,43,0,43,0,1,,,,,,,,,,,,,,,,,,,,,,,,,,,,,,,,,,,,,,,
,,,,,,,,2023-08-16_08h38.17.792,HF_wild_card,2022.2.4,Win32,59.99160118,5f43c9fbe038cc0b2deb75d8,64d2fd46c836a06233681665,64dc7cc840f663fcc38a3d53,,,,,,,,,,,,,,,,,,,,,,,,,,2,0,2,0,1,,,,,,,,,,,,,,,,,,,,,,,,,,,,,,,,,,
,,,,,,,,2023-08-16_08h38.17.792,HF_wild_card,2022.2.4,Win32,59.99160118,5f43c9fbe038cc0b2deb75d8,64d2fd46c836a06233681665,64dc7cc840f663fcc38a3d53,,,,,,,decisionTrl,resources/DP.BMP,resources/DB.BMP,Door1,0.133686986,-0.070026549,1,0,0,1.2219,optionRight,30,7180,4,0,0,0,0,1,,,,,,,,,,,,,,,,,,,,,,,,,,,,,,,,,,,,,,,
,,,,,,,,2023-08-16_08h38.17.792,HF_wild_card,2022.2.4,Win32,59.99160118,5f43c9fbe038cc0b2deb75d8,64d2fd46c836a06233681665,64dc7cc840f663fcc38a3d53,,,,,,,ctch,resources/DR.BMP,resources/DB.BMP,Door4,-0.266312981,-0.015915119,1,0,0,1.012,optionLeft,80,7260,4,1,0,1,0,1,,,,,,,,,,,,,,,,,,,,,,,,,,,,,,,,,,,,,,,
,,,,,,,,2023-08-16_08h38.17.792,HF_wild_card,2022.2.4,Win32,59.99160118,5f43c9fbe038cc0b2deb75d8,64d2fd46c836a06233681665,64dc7cc840f663fcc38a3d53,,,,,,,decisionTrl,resources/DY.BMP,resources/DG.BMP,Door3,-0.231299686,-0.030769247,1,0,0,1.1783,optionLeft,70,7330,4,2,0,2,0,1,,,,,,,,,,,,,,,,,,,,,,,,,,,,,,,,,,,,,,,
,,,,,,,,2023-08-16_08h38.17.792,HF_wild_card,2022.2.4,Win32,59.99160118,5f43c9fbe038cc0b2deb75d8,64d2fd46c836a06233681665,64dc7cc840f663fcc38a3d53,,,,,,,decisionTrl,resources/DR.BMP,resources/DY.BMP,Door3,0.283289173,-0.057294446,1,0,0,1.3724,optionRight,70,7400,4,3,0,3,0,1,,,,,,,,,,,,,,,,,,,,,,,,,,,,,,,,,,,,,,,
,,,,,,,,2023-08-16_08h38.17.792,HF_wild_card,2022.2.4,Win32,59.99160118,5f43c9fbe038cc0b2deb75d8,64d2fd46c836a06233681665,64dc7cc840f663fcc38a3d53,,,,,,,decisionTrl,resources/DR.BMP,resources/DG.BMP,WildCard_Ex,0.274801077,-0.022281191,1,0,0,0.8458,optionRight,5,7405,4,4,0,4,0,1,,,,,,,,,,,,,,,,,,,,,,,,,,,,,,,,,,,,,,,
,,,,,,,,2023-08-16_08h38.17.792,HF_wild_card,2022.2.4,Win32,59.99160118,5f43c9fbe038cc0b2deb75d8,64d2fd46c836a06233681665,64dc7cc840f663fcc38a3d53,,,,,,,sngl,resources/Empty.png,resources/DY.BMP,Door3,0.229177703,-0.042440318,1,0,0,0.8172,optionRight,70,7475,4,5,0,5,0,1,,,,,,,,,,,,,,,,,,,,,,,,,,,,,,,,,,,,,,,
,,,,,,,,2023-08-16_08h38.17.792,HF_wild_card,2022.2.4,Win32,59.99160118,5f43c9fbe038cc0b2deb75d8,64d2fd46c836a06233681665,64dc7cc840f663fcc38a3d53,,,,,,,ctch,resources/DY.BMP,resources/DP.BMP,Door3,-0.221750679,-0.031830239,1,0,0,0.9946,optionLeft,70,7545,4,6,0,6,0,1,,,,,,,,,,,,,,,,,,,,,,,,,,,,,,,,,,,,,,,
,,,,,,,,2023-08-16_08h38.17.792,HF_wild_card,2022.2.4,Win32,59.99160118,5f43c9fbe038cc0b2deb75d8,64d2fd46c836a06233681665,64dc7cc840f663fcc38a3d53,,,,,,,decisionTrl,resources/DB.BMP,resources/DG.BMP,Door1,-0.228116711,-0.015915119,1,0,0,0.9079,optionLeft,30,7575,4,7,0,7,0,1,,,,,,,,,,,,,,,,,,,,,,,,,,,,,,,,,,,,,,,
,,,,,,,,2023-08-16_08h38.17.792,HF_wild_card,2022.2.4,Win32,59.99160118,5f43c9fbe038cc0b2deb75d8,64d2fd46c836a06233681665,64dc7cc840f663fcc38a3d53,,,,,,,ctch,resources/DR.BMP,resources/DB.BMP,Door4,-0.202652504,-0.058355438,1,0,0,1.016,optionLeft,80,7655,4,8,0,8,0,1,,,,,,,,,,,,,,,,,,,,,,,,,,,,,,,,,,,,,,,
,,,,,,,,2023-08-16_08h38.17.792,HF_wild_card,2022.2.4,Win32,59.99160118,5f43c9fbe038cc0b2deb75d8,64d2fd46c836a06233681665,64dc7cc840f663fcc38a3d53,,,,,,,decisionTrl,resources/DY.BMP,resources/DR.BMP,Door3,-0.137931034,-0.05941647,1,0,0,1.041,optionLeft,70,7725,4,9,0,9,0,1,,,,,,,,,,,,,,,,,,,,,,,,,,,,,,,,,,,,,,,
,,,,,,,,2023-08-16_08h38.17.792,HF_wild_card,2022.2.4,Win32,59.99160118,5f43c9fbe038cc0b2deb75d8,64d2fd46c836a06233681665,64dc7cc840f663fcc38a3d53,,,,,,,ctch,resources/DY.BMP,resources/DP.BMP,Door3,-0.233421751,-0.070026549,1,0,0,0.8625,optionLeft,70,7795,4,10,0,10,0,1,,,,,,,,,,,,,,,,,,,,,,,,,,,,,,,,,,,,,,,
,,,,,,,,2023-08-16_08h38.17.792,HF_wild_card,2022.2.4,Win32,59.99160118,5f43c9fbe038cc0b2deb75d8,64d2fd46c836a06233681665,64dc7cc840f663fcc38a3d53,,,,,,,decisionTrl,resources/DB.BMP,resources/DP.BMP,Door1,-0.113527819,-0.100795756,1,0,0,2.1931,optionLeft,30,7825,4,11,0,11,0,1,,,,,,,,,,,,,,,,,,,,,,,,,,,,,,,,,,,,,,,
,,,,,,,,2023-08-16_08h38.17.792,HF_wild_card,2022.2.4,Win32,59.99160118,5f43c9fbe038cc0b2deb75d8,64d2fd46c836a06233681665,64dc7cc840f663fcc38a3d53,,,,,,,sngl,resources/Empty.png,resources/DP.BMP,Door2,0.223872663,-0.003183016,1,0,0,0.7952,optionRight,40,7865,4,12,0,12,0,1,,,,,,,,,,,,,,,,,,,,,,,,,,,,,,,,,,,,,,,
,,,,,,,,2023-08-16_08h38.17.792,HF_wild_card,2022.2.4,Win32,59.99160118,5f43c9fbe038cc0b2deb75d8,64d2fd46c836a06233681665,64dc7cc840f663fcc38a3d53,,,,,,,decisionTrl,resources/DR.BMP,resources/DY.BMP,Door3,0.197347464,-0.066843493,1,0,0,1.6059,optionRight,70,7935,4,13,0,13,0,1,,,,,,,,,,,,,,,,,,,,,,,,,,,,,,,,,,,,,,,
,,,,,,,,2023-08-16_08h38.17.792,HF_wild_card,2022.2.4,Win32,59.99160118,5f43c9fbe038cc0b2deb75d8,64d2fd46c836a06233681665,64dc7cc840f663fcc38a3d53,,,,,,,decisionTrl,resources/DG.BMP,resources/DY.BMP,Door3,0.261007941,-0.071087541,1,0,0,0.8989,optionRight,70,8005,4,14,0,14,0,1,,,,,,,,,,,,,,,,,,,,,,,,,,,,,,,,,,,,,,,
,,,,,,,,2023-08-16_08h38.17.792,HF_wild_card,2022.2.4,Win32,59.99160118,5f43c9fbe038cc0b2deb75d8,64d2fd46c836a06233681665,64dc7cc840f663fcc38a3d53,,,,,,,sngl,resources/Empty.png,resources/DG.BMP,WildCard_Ex,0.196286472,-0.041379327,1,0,0,0.7617,optionRight,5,8010,4,15,0,15,0,1,,,,,,,,,,,,,,,,,,,,,,,,,,,,,,,,,,,,,,,
,,,,,,,,2023-08-16_08h38.17.792,HF_wild_card,2022.2.4,Win32,59.99160118,5f43c9fbe038cc0b2deb75d8,64d2fd46c836a06233681665,64dc7cc840f663fcc38a3d53,,,,,,,decisionTrl,resources/DP.BMP,resources/DG.BMP,Door2,-0.232360759,-0.05941647,1,0,0,0.9005,optionLeft,40,8050,4,16,0,16,0,1,,,,,,,,,,,,,,,,,,,,,,,,,,,,,,,,,,,,,,,
,,,,,,,,2023-08-16_08h38.17.792,HF_wild_card,2022.2.4,Win32,59.99160118,5f43c9fbe038cc0b2deb75d8,64d2fd46c836a06233681665,64dc7cc840f663fcc38a3d53,,,,,,,decisionTrl,resources/DP.BMP,resources/DB.BMP,Door2,-0.241909766,-0.053050398,1,0,0,0.9005,optionLeft,40,8090,4,17,0,17,0,1,,,,,,,,,,,,,,,,,,,,,,,,,,,,,,,,,,,,,,,
,,,,,,,,2023-08-16_08h38.17.792,HF_wild_card,2022.2.4,Win32,59.99160118,5f43c9fbe038cc0b2deb75d8,64d2fd46c836a06233681665,64dc7cc840f663fcc38a3d53,,,,,,,decisionTrl,resources/DP.BMP,resources/DB.BMP,Door2,-0.273740004,-0.049867382,1,0,0,0.9621,optionLeft,20,8110,4,18,0,18,0,1,,,,,,,,,,,,,,,,,,,,,,,,,,,,,,,,,,,,,,,
,,,,,,,,2023-08-16_08h38.17.792,HF_wild_card,2022.2.4,Win32,59.99160118,5f43c9fbe038cc0b2deb75d8,64d2fd46c836a06233681665,64dc7cc840f663fcc38a3d53,,,,,,,decisionTrl,resources/DB.BMP,resources/DP.BMP,Door2,0.307692308,-0.080636629,1,0,0,0.8947,optionRight,20,8130,4,19,0,19,0,1,,,,,,,,,,,,,,,,,,,,,,,,,,,,,,,,,,,,,,,
,,,,,,,,2023-08-16_08h38.17.792,HF_wild_card,2022.2.4,Win32,59.99160118,5f43c9fbe038cc0b2deb75d8,64d2fd46c836a06233681665,64dc7cc840f663fcc38a3d53,,,,,,,sngl,resources/DY.BMP,resources/Empty.png,Door3,-0.251458854,-0.030769247,1,0,0,0.7905,optionLeft,70,8200,4,20,0,20,0,1,,,,,,,,,,,,,,,,,,,,,,,,,,,,,,,,,,,,,,,
,,,,,,,,2023-08-16_08h38.17.792,HF_wild_card,2022.2.4,Win32,59.99160118,5f43c9fbe038cc0b2deb75d8,64d2fd46c836a06233681665,64dc7cc840f663fcc38a3d53,,,,,,,decisionTrl,resources/DY.BMP,resources/DR.BMP,Door3,-0.247214806,-0.056233414,1,0,0,0.9263,optionLeft,70,8270,4,21,0,21,0,1,,,,,,,,,,,,,,,,,,,,,,,,,,,,,,,,,,,,,,,
,,,,,,,,2023-08-16_08h38.17.792,HF_wild_card,2022.2.4,Win32,59.99160118,5f43c9fbe038cc0b2deb75d8,64d2fd46c836a06233681665,64dc7cc840f663fcc38a3d53,,,,,,,decisionTrl,resources/DP.BMP,resources/DB.BMP,Door1,0.20053052,-0.060477462,1,0,0,1.4941,optionRight,30,8300,4,22,0,22,0,1,,,,,,,,,,,,,,,,,,,,,,,,,,,,,,,,,,,,,,,
,,,,,,,,2023-08-16_08h38.17.792,HF_wild_card,2022.2.4,Win32,59.99160118,5f43c9fbe038cc0b2deb75d8,64d2fd46c836a06233681665,64dc7cc840f663fcc38a3d53,,,,,,,decisionTrl,resources/DR.BMP,resources/DY.BMP,Door3,0.181432345,-0.080636629,1,0,0,1.3094,optionRight,70,8370,4,23,0,23,0,1,,,,,,,,,,,,,,,,,,,,,,,,,,,,,,,,,,,,,,,
,,,,,,,,2023-08-16_08h38.17.792,HF_wild_card,2022.2.4,Win32,59.99160118,5f43c9fbe038cc0b2deb75d8,64d2fd46c836a06233681665,64dc7cc840f663fcc38a3d53,,,,,,,decisionTrl,resources/DR.BMP,resources/DY.BMP,Door3,0.130504011,-0.024403175,1,0,0,0.9784,optionRight,70,8440,4,24,0,24,0,1,,,,,,,,,,,,,,,,,,,,,,,,,,,,,,,,,,,,,,,
,,,,,,,,2023-08-16_08h38.17.792,HF_wild_card,2022.2.4,Win32,59.99160118,5f43c9fbe038cc0b2deb75d8,64d2fd46c836a06233681665,64dc7cc840f663fcc38a3d53,,,,,,,ctch,resources/DB.BMP,resources/DR.BMP,Door4,0.242970838,-0.05941647,1,0,0,1.1186,optionRight,60,8500,4,25,0,25,0,1,,,,,,,,,,,,,,,,,,,,,,,,,,,,,,,,,,,,,,,
,,,,,,,,2023-08-16_08h38.17.792,HF_wild_card,2022.2.4,Win32,59.99160118,5f43c9fbe038cc0b2deb75d8,64d2fd46c836a06233681665,64dc7cc840f663fcc38a3d53,,,,,,,sngl,resources/DR.BMP,resources/Empty.png,Door4,-0.237665799,-0.046684366,1,0,0,0.8287,optionLeft,60,8560,4,26,0,26,0,1,,,,,,,,,,,,,,,,,,,,,,,,,,,,,,,,,,,,,,,
,,,,,,,,2023-08-16_08h38.17.792,HF_wild_card,2022.2.4,Win32,59.99160118,5f43c9fbe038cc0b2deb75d8,64d2fd46c836a06233681665,64dc7cc840f663fcc38a3d53,,,,,,,sngl,resources/Empty.png,resources/DR.BMP,Door4,0.219628696,-0.025464207,1,0,0,0.6937,optionRight,80,8640,4,27,0,27,0,1,,,,,,,,,,,,,,,,,,,,,,,,,,,,,,,,,,,,,,,
,,,,,,,,2023-08-16_08h38.17.792,HF_wild_card,2022.2.4,Win32,59.99160118,5f43c9fbe038cc0b2deb75d8,64d2fd46c836a06233681665,64dc7cc840f663fcc38a3d53,,,,,,,decisionTrl,resources/DY.BMP,resources/DR.BMP,Door3,-0.202652504,-0.039257303,1,0,0,0.9459,optionLeft,70,8710,4,28,0,28,0,1,,,,,,,,,,,,,,,,,,,,,,,,,,,,,,,,,,,,,,,
,,,,,,,,2023-08-16_08h38.17.792,HF_wild_card,2022.2.4,Win32,59.99160118,5f43c9fbe038cc0b2deb75d8,64d2fd46c836a06233681665,64dc7cc840f663fcc38a3d53,,,,,,,ctch,resources/DB.BMP,resources/DR.BMP,Door4,0.280106117,-0.044562342,1,0,0,0.9779,optionRight,80,8790,4,29,0,29,0,1,,,,,,,,,,,,,,,,,,,,,,,,,,,,,,,,,,,,,,,
,,,,,,,,2023-08-16_08h38.17.792,HF_wild_card,2022.2.4,Win32,59.99160118,5f43c9fbe038cc0b2deb75d8,64d2fd46c836a06233681665,64dc7cc840f663fcc38a3d53,,,,,,,sngl,resources/Empty.png,resources/DG.BMP,WildCard_Ex,0.256763974,-0.024403175,1,0,0,1.0946,optionRight,95,8885,4,30,0,30,0,1,,,,,,,,,,,,,,,,,,,,,,,,,,,,,,,,,,,,,,,
,,,,,,,,2023-08-16_08h38.17.792,HF_wild_card,2022.2.4,Win32,59.99160118,5f43c9fbe038cc0b2deb75d8,64d2fd46c836a06233681665,64dc7cc840f663fcc38a3d53,,,,,,,sngl,resources/DP.BMP,resources/Empty.png,Door2,-0.221750679,-0.020159167,1,0,0,0.8287,optionLeft,20,8905,4,31,0,31,0,1,,,,,,,,,,,,,,,,,,,,,,,,,,,,,,,,,,,,,,,
,,,,,,,,2023-08-16_08h38.17.792,HF_wild_card,2022.2.4,Win32,59.99160118,5f43c9fbe038cc0b2deb75d8,64d2fd46c836a06233681665,64dc7cc840f663fcc38a3d53,,,,,,,ctch,resources/DP.BMP,resources/DY.BMP,Door3,0.155968218,-0.060477462,1,0,0,1.1335,optionRight,70,8975,4,32,0,32,0,1,,,,,,,,,,,,,,,,,,,,,,,,,,,,,,,,,,,,,,,
,,,,,,,,2023-08-16_08h38.17.792,HF_wild_card,2022.2.4,Win32,59.99160118,5f43c9fbe038cc0b2deb75d8,64d2fd46c836a06233681665,64dc7cc840f663fcc38a3d53,,,,,,,decisionTrl,resources/DG.BMP,resources/DB.BMP,WildCard_Ex,-0.253580918,-0.097612821,1,0,0,1.0295,optionLeft,95,9070,4,33,0,33,0,1,,,,,,,,,,,,,,,,,,,,,,,,,,,,,,,,,,,,,,,
,,,,,,,,2023-08-16_08h38.17.792,HF_wild_card,2022.2.4,Win32,59.99160118,5f43c9fbe038cc0b2deb75d8,64d2fd46c836a06233681665,64dc7cc840f663fcc38a3d53,,,,,,,sngl,resources/DG.BMP,resources/Empty.png,WildCard_Ex,-0.230238694,-0.038196311,1,0,0,0.7781,optionLeft,5,9075,4,34,0,34,0,1,,,,,,,,,,,,,,,,,,,,,,,,,,,,,,,,,,,,,,,
,,,,,,,,2023-08-16_08h38.17.792,HF_wild_card,2022.2.4,Win32,59.99160118,5f43c9fbe038cc0b2deb75d8,64d2fd46c836a06233681665,64dc7cc840f663fcc38a3d53,,,,,,,decisionTrl,resources/DY.BMP,resources/DR.BMP,Door3,-0.101856748,-0.04880639,1,0,0,1.3592,optionLeft,70,9145,4,35,0,35,0,1,,,,,,,,,,,,,,,,,,,,,,,,,,,,,,,,,,,,,,,
,,,,,,,,2023-08-16_08h38.17.792,HF_wild_card,2022.2.4,Win32,59.99160118,5f43c9fbe038cc0b2deb75d8,64d2fd46c836a06233681665,64dc7cc840f663fcc38a3d53,,,,,,,decisionTrl,resources/DB.BMP,resources/DP.BMP,Door2,0.23872679,-0.031830239,1,0,0,2.5548,optionRight,20,9165,4,36,0,36,0,1,,,,,,,,,,,,,,,,,,,,,,,,,,,,,,,,,,,,,,,
,,,,,,,,2023-08-16_08h38.17.792,HF_wild_card,2022.2.4,Win32,59.99160118,5f43c9fbe038cc0b2deb75d8,64d2fd46c836a06233681665,64dc7cc840f663fcc38a3d53,,,,,,,sngl,resources/DB.BMP,resources/Empty.png,Door1,-0.159151194,0.004244008,1,0,0,0.6503,optionLeft,30,9195,4,37,0,37,0,1,,,,,,,,,,,,,,,,,,,,,,,,,,,,,,,,,,,,,,,
,,,,,,,,2023-08-16_08h38.17.792,HF_wild_card,2022.2.4,Win32,59.99160118,5f43c9fbe038cc0b2deb75d8,64d2fd46c836a06233681665,64dc7cc840f663fcc38a3d53,,,,,,,decisionTrl,resources/DG.BMP,resources/DP.BMP,Door2,0.196286472,-0.018037143,1,0,0,1.7768,optionRight,40,9235,4,38,0,38,0,1,,,,,,,,,,,,,,,,,,,,,,,,,,,,,,,,,,,,,,,
,,,,,,,,2023-08-16_08h38.17.792,HF_wild_card,2022.2.4,Win32,59.99160118,5f43c9fbe038cc0b2deb75d8,64d2fd46c836a06233681665,64dc7cc840f663fcc38a3d53,,,,,,,ctch,resources/DP.BMP,resources/DY.BMP,Door3,0.213262583,-0.042440318,1,0,0,1.6774,optionRight,70,9305,4,39,0,39,0,1,,,,,,,,,,,,,,,,,,,,,,,,,,,,,,,,,,,,,,,
,,,,,,,,2023-08-16_08h38.17.792,HF_wild_card,2022.2.4,Win32,59.99160118,5f43c9fbe038cc0b2deb75d8,64d2fd46c836a06233681665,64dc7cc840f663fcc38a3d53,,,,,,,decisionTrl,resources/DG.BMP,resources/DR.BMP,Door4,0.215384648,-0.045623334,1,0,0,1.5436,optionRight,60,9365,4,40,0,40,0,1,,,,,,,,,,,,,,,,,,,,,,,,,,,,,,,,,,,,,,,
,,,,,,,,2023-08-16_08h38.17.792,HF_wild_card,2022.2.4,Win32,59.99160118,5f43c9fbe038cc0b2deb75d8,64d2fd46c836a06233681665,64dc7cc840f663fcc38a3d53,,,,,,,decisionTrl,resources/DB.BMP,resources/DP.BMP,Door2,0.130504011,-0.037135279,1,0,0,2.7083,optionRight,40,9405,4,41,0,41,0,1,,,,,,,,,,,,,,,,,,,,,,,,,,,,,,,,,,,,,,,
,,,,,,,,2023-08-16_08h38.17.792,HF_wild_card,2022.2.4,Win32,59.99160118,5f43c9fbe038cc0b2deb75d8,64d2fd46c836a06233681665,64dc7cc840f663fcc38a3d53,,,,,,,sngl,resources/DG.BMP,resources/Empty.png,WildCard_Ex,-0.197347464,-0.014854128,1,0,0,0.7835,optionLeft,95,9500,4,42,0,42,0,1,,,,,,,,,,,,,,,,,,,,,,,,,,,,,,,,,,,,,,,
,,,,,,,,2023-08-16_08h38.17.792,HF_wild_card,2022.2.4,Win32,59.99160118,5f43c9fbe038cc0b2deb75d8,64d2fd46c836a06233681665,64dc7cc840f663fcc38a3d53,,,,,,,sngl,resources/Empty.png,resources/DB.BMP,Door1,0.229177703,-0.020159167,1,0,0,0.795,optionRight,30,9530,4,43,0,43,0,1,,,,,,,,,,,,,,,,,,,,,,,,,,,,,,,,,,,,,,,
,,,,,,,,2023-08-16_08h38.17.792,HF_wild_card,2022.2.4,Win32,59.99160118,5f43c9fbe038cc0b2deb75d8,64d2fd46c836a06233681665,64dc7cc840f663fcc38a3d53,,,,,,,,,,,,,,,,,,,,,,,,,,3,0,3,0,1,,,,,,,,,,,,,,,,,,,,,,,,,,,,,,,,,,
,,,,,,,,2023-08-16_08h38.17.792,HF_wild_card,2022.2.4,Win32,59.99160118,5f43c9fbe038cc0b2deb75d8,64d2fd46c836a06233681665,64dc7cc840f663fcc38a3d53,,,,,,,decisionTrl,resources/DY.BMP,resources/DR.BMP,Door3,-0.215384567,-0.107161828,1,0,0,2.0824,optionLeft,70,9600,5,0,0,0,0,1,,,,,,,,,,,,,,,,,,,,,,,,,,,,,,,,,,,,,,,
,,,,,,,,2023-08-16_08h38.17.792,HF_wild_card,2022.2.4,Win32,59.99160118,5f43c9fbe038cc0b2deb75d8,64d2fd46c836a06233681665,64dc7cc840f663fcc38a3d53,,,,,,,ctch,resources/DP.BMP,resources/DY.BMP,Door3,0.172944329,-0.055172422,1,0,0,2.5253,optionRight,70,9670,5,1,0,1,0,1,,,,,,,,,,,,,,,,,,,,,,,,,,,,,,,,,,,,,,,
,,,,,,,,2023-08-16_08h38.17.792,HF_wild_card,2022.2.4,Win32,59.99160118,5f43c9fbe038cc0b2deb75d8,64d2fd46c836a06233681665,64dc7cc840f663fcc38a3d53,,,,,,,decisionTrl,resources/DP.BMP,resources/DG.BMP,WildCard_Ex,0.309814372,0.042440318,1,0,0,0.867,optionRight,5,9675,5,2,0,2,0,1,,,,,,,,,,,,,,,,,,,,,,,,,,,,,,,,,,,,,,,
,,,,,,,,2023-08-16_08h38.17.792,HF_wild_card,2022.2.4,Win32,59.99160118,5f43c9fbe038cc0b2deb75d8,64d2fd46c836a06233681665,64dc7cc840f663fcc38a3d53,,,,,,,decisionTrl,resources/DR.BMP,resources/DG.BMP,Door4,-0.258885958,-0.016976152,1,0,0,1.7764,optionLeft,80,9755,5,3,0,3,0,1,,,,,,,,,,,,,,,,,,,,,,,,,,,,,,,,,,,,,,,
,,,,,,,,2023-08-16_08h38.17.792,HF_wild_card,2022.2.4,Win32,59.99160118,5f43c9fbe038cc0b2deb75d8,64d2fd46c836a06233681665,64dc7cc840f663fcc38a3d53,,,,,,,sngl,resources/DP.BMP,resources/Empty.png,Door2,-0.181432345,-0.032891271,1,0,0,0.9115,optionLeft,40,9795,5,4,0,4,0,1,,,,,,,,,,,,,,,,,,,,,,,,,,,,,,,,,,,,,,,
,,,,,,,,2023-08-16_08h38.17.792,HF_wild_card,2022.2.4,Win32,59.99160118,5f43c9fbe038cc0b2deb75d8,64d2fd46c836a06233681665,64dc7cc840f663fcc38a3d53,,,,,,,sngl,resources/Empty.png,resources/DR.BMP,Door4,0.221750679,-0.015915119,1,0,0,0.8117,optionRight,60,9855,5,5,0,5,0,1,,,,,,,,,,,,,,,,,,,,,,,,,,,,,,,,,,,,,,,
,,,,,,,,2023-08-16_08h38.17.792,HF_wild_card,2022.2.4,Win32,59.99160118,5f43c9fbe038cc0b2deb75d8,64d2fd46c836a06233681665,64dc7cc840f663fcc38a3d53,,,,,,,sngl,resources/Empty.png,resources/DG.BMP,WildCard_Ex,0.275862069,-0.035013255,1,0,0,0.8114,optionRight,5,9860,5,6,0,6,0,1,,,,,,,,,,,,,,,,,,,,,,,,,,,,,,,,,,,,,,,
,,,,,,,,2023-08-16_08h38.17.792,HF_wild_card,2022.2.4,Win32,59.99160118,5f43c9fbe038cc0b2deb75d8,64d2fd46c836a06233681665,64dc7cc840f663fcc38a3d53,,,,,,,decisionTrl,resources/DB.BMP,resources/DP.BMP,Door1,-0.145358058,-0.053050398,1,0,0,1.5935,optionLeft,30,9890,5,7,0,7,0,1,,,,,,,,,,,,,,,,,,,,,,,,,,,,,,,,,,,,,,,
,,,,,,,,2023-08-16_08h38.17.792,HF_wild_card,2022.2.4,Win32,59.99160118,5f43c9fbe038cc0b2deb75d8,64d2fd46c836a06233681665,64dc7cc840f663fcc38a3d53,,,,,,,ctch,resources/DY.BMP,resources/DP.BMP,Door3,-0.164456233,-0.033952263,1,0,0,1.0116,optionLeft,70,9960,5,8,0,8,0,1,,,,,,,,,,,,,,,,,,,,,,,,,,,,,,,,,,,,,,,
,,,,,,,,2023-08-16_08h38.17.792,HF_wild_card,2022.2.4,Win32,59.99160118,5f43c9fbe038cc0b2deb75d8,64d2fd46c836a06233681665,64dc7cc840f663fcc38a3d53,,,,,,,sngl,resources/DB.BMP,resources/Empty.png,Door1,-0.201591512,-0.04880639,1,0,0,0.8074,optionLeft,30,9990,5,9,0,9,0,1,,,,,,,,,,,,,,,,,,,,,,,,,,,,,,,,,,,,,,,
,,,,,,,,2023-08-16_08h38.17.792,HF_wild_card,2022.2.4,Win32,59.99160118,5f43c9fbe038cc0b2deb75d8,64d2fd46c836a06233681665,64dc7cc840f663fcc38a3d53,,,,,,,sngl,resources/DR.BMP,resources/Empty.png,Door4,-0.239787782,-0.023342183,1,0,0,0.6688,optionLeft,80,10070,5,10,0,10,0,1,,,,,,,,,,,,,,,,,,,,,,,,,,,,,,,,,,,,,,,
,,,,,,,,2023-08-16_08h38.17.792,HF_wild_card,2022.2.4,Win32,59.99160118,5f43c9fbe038cc0b2deb75d8,64d2fd46c836a06233681665,64dc7cc840f663fcc38a3d53,,,,,,,decisionTrl,resources/DY.BMP,resources/DR.BMP,Door4,0.159151194,0.013793095,1,0,0,1.3289,optionRight,80,10150,5,11,0,11,0,1,,,,,,,,,,,,,,,,,,,,,,,,,,,,,,,,,,,,,,,
,,,,,,,,2023-08-16_08h38.17.792,HF_wild_card,2022.2.4,Win32,59.99160118,5f43c9fbe038cc0b2deb75d8,64d2fd46c836a06233681665,64dc7cc840f663fcc38a3d53,,,,,,,ctch,resources/DP.BMP,resources/DY.BMP,Door3,0.316180404,-0.021220159,1,0,0,1.0779,optionRight,70,10220,5,12,0,12,0,1,,,,,,,,,,,,,,,,,,,,,,,,,,,,,,,,,,,,,,,
,,,,,,,,2023-08-16_08h38.17.792,HF_wild_card,2022.2.4,Win32,59.99160118,5f43c9fbe038cc0b2deb75d8,64d2fd46c836a06233681665,64dc7cc840f663fcc38a3d53,,,,,,,decisionTrl,resources/DR.BMP,resources/DY.BMP,Door4,-0.186737384,-0.049867382,1,0,0,1.5775,optionLeft,60,10280,5,13,0,13,0,1,,,,,,,,,,,,,,,,,,,,,,,,,,,,,,,,,,,,,,,
,,,,,,,,2023-08-16_08h38.17.792,HF_wild_card,2022.2.4,Win32,59.99160118,5f43c9fbe038cc0b2deb75d8,64d2fd46c836a06233681665,64dc7cc840f663fcc38a3d53,,,,,,,decisionTrl,resources/DY.BMP,resources/DR.BMP,Door3,-0.134747978,-0.016976152,1,0,0,0.8502,optionLeft,70,10350,5,14,0,14,0,1,,,,,,,,,,,,,,,,,,,,,,,,,,,,,,,,,,,,,,,
,,,,,,,,2023-08-16_08h38.17.792,HF_wild_card,2022.2.4,Win32,59.99160118,5f43c9fbe038cc0b2deb75d8,64d2fd46c836a06233681665,64dc7cc840f663fcc38a3d53,,,,,,,sngl,resources/DG.BMP,resources/Empty.png,WildCard_Ex,-0.19522548,-0.021220159,1,0,0,0.8404,optionLeft,95,10445,5,15,0,15,0,1,,,,,,,,,,,,,,,,,,,,,,,,,,,,,,,,,,,,,,,
,,,,,,,,2023-08-16_08h38.17.792,HF_wild_card,2022.2.4,Win32,59.99160118,5f43c9fbe038cc0b2deb75d8,64d2fd46c836a06233681665,64dc7cc840f663fcc38a3d53,,,,,,,sngl,resources/Empty.png,resources/DB.BMP,Door1,0.279045125,0.016976111,1,0,0,0.8436,optionRight,30,10475,5,16,0,16,0,1,,,,,,,,,,,,,,,,,,,,,,,,,,,,,,,,,,,,,,,
,,,,,,,,2023-08-16_08h38.17.792,HF_wild_card,2022.2.4,Win32,59.99160118,5f43c9fbe038cc0b2deb75d8,64d2fd46c836a06233681665,64dc7cc840f663fcc38a3d53,,,,,,,ctch,resources/DR.BMP,resources/DB.BMP,Door4,-0.178249288,-0.038196311,1,0,0,1.2237,optionLeft,60,10535,5,17,0,17,0,1,,,,,,,,,,,,,,,,,,,,,,,,,,,,,,,,,,,,,,,
,,,,,,,,2023-08-16_08h38.17.792,HF_wild_card,2022.2.4,Win32,59.99160118,5f43c9fbe038cc0b2deb75d8,64d2fd46c836a06233681665,64dc7cc840f663fcc38a3d53,,,,,,,decisionTrl,resources/DB.BMP,resources/DP.BMP,Door1,-0.157029129,-0.05411143,1,0,0,2.6589,optionLeft,30,10565,5,18,0,18,0,1,,,,,,,,,,,,,,,,,,,,,,,,,,,,,,,,,,,,,,,
,,,,,,,,2023-08-16_08h38.17.792,HF_wild_card,2022.2.4,Win32,59.99160118,5f43c9fbe038cc0b2deb75d8,64d2fd46c836a06233681665,64dc7cc840f663fcc38a3d53,,,,,,,ctch,resources/DB.BMP,resources/DR.BMP,Door4,0.206896552,0.01061008,1,0,0,0.9605,optionRight,80,10645,5,19,0,19,0,1,,,,,,,,,,,,,,,,,,,,,,,,,,,,,,,,,,,,,,,
,,,,,,,,2023-08-16_08h38.17.792,HF_wild_card,2022.2.4,Win32,59.99160118,5f43c9fbe038cc0b2deb75d8,64d2fd46c836a06233681665,64dc7cc840f663fcc38a3d53,,,,,,,ctch,resources/DB.BMP,resources/DR.BMP,Door4,0.245092822,-0.006366072,1,0,0,0.9129,optionRight,60,10705,5,20,0,20,0,1,,,,,,,,,,,,,,,,,,,,,,,,,,,,,,,,,,,,,,,
,,,,,,,,2023-08-16_08h38.17.792,HF_wild_card,2022.2.4,Win32,59.99160118,5f43c9fbe038cc0b2deb75d8,64d2fd46c836a06233681665,64dc7cc840f663fcc38a3d53,,,,,,,sngl,resources/Empty.png,resources/DP.BMP,Door2,0.232360759,0.001060992,1,0,0,0.8449,optionRight,20,10725,5,21,0,21,0,1,,,,,,,,,,,,,,,,,,,,,,,,,,,,,,,,,,,,,,,
,,,,,,,,2023-08-16_08h38.17.792,HF_wild_card,2022.2.4,Win32,59.99160118,5f43c9fbe038cc0b2deb75d8,64d2fd46c836a06233681665,64dc7cc840f663fcc38a3d53,,,,,,,decisionTrl,resources/DB.BMP,resources/DP.BMP,Door1,-0.166578217,-0.022281191,1,0,0,1.0236,optionLeft,30,10755,5,22,0,22,0,1,,,,,,,,,,,,,,,,,,,,,,,,,,,,,,,,,,,,,,,
,,,,,,,,2023-08-16_08h38.17.792,HF_wild_card,2022.2.4,Win32,59.99160118,5f43c9fbe038cc0b2deb75d8,64d2fd46c836a06233681665,64dc7cc840f663fcc38a3d53,,,,,,,sngl,resources/DG.BMP,resources/Empty.png,WildCard_Ex,-0.246153814,-0.030769247,1,0,0,0.7438,optionLeft,5,10760,5,23,0,23,0,1,,,,,,,,,,,,,,,,,,,,,,,,,,,,,,,,,,,,,,,
,,,,,,,,2023-08-16_08h38.17.792,HF_wild_card,2022.2.4,Win32,59.99160118,5f43c9fbe038cc0b2deb75d8,64d2fd46c836a06233681665,64dc7cc840f663fcc38a3d53,,,,,,,decisionTrl,resources/DG.BMP,resources/DB.BMP,Door1,0.196286472,-0.04880639,1,0,0,0.9505,optionRight,30,10790,5,24,0,24,0,1,,,,,,,,,,,,,,,,,,,,,,,,,,,,,,,,,,,,,,,
,,,,,,,,2023-08-16_08h38.17.792,HF_wild_card,2022.2.4,Win32,59.99160118,5f43c9fbe038cc0b2deb75d8,64d2fd46c836a06233681665,64dc7cc840f663fcc38a3d53,,,,,,,decisionTrl,resources/DY.BMP,resources/DG.BMP,Door3,-0.147480122,-0.047745358,1,0,0,0.895,optionLeft,70,10860,5,25,0,25,0,1,,,,,,,,,,,,,,,,,,,,,,,,,,,,,,,,,,,,,,,
,,,,,,,,2023-08-16_08h38.17.792,HF_wild_card,2022.2.4,Win32,59.99160118,5f43c9fbe038cc0b2deb75d8,64d2fd46c836a06233681665,64dc7cc840f663fcc38a3d53,,,,,,,decisionTrl,resources/DY.BMP,resources/DR.BMP,Door3,-0.143236074,-0.061538453,1,0,0,1.493,optionLeft,70,10930,5,26,0,26,0,1,,,,,,,,,,,,,,,,,,,,,,,,,,,,,,,,,,,,,,,
,,,,,,,,2023-08-16_08h38.17.792,HF_wild_card,2022.2.4,Win32,59.99160118,5f43c9fbe038cc0b2deb75d8,64d2fd46c836a06233681665,64dc7cc840f663fcc38a3d53,,,,,,,decisionTrl,resources/DB.BMP,resources/DG.BMP,Door1,-0.159151194,-0.032891271,1,0,0,1.5106,optionLeft,30,10960,5,27,0,27,0,1,,,,,,,,,,,,,,,,,,,,,,,,,,,,,,,,,,,,,,,
,,,,,,,,2023-08-16_08h38.17.792,HF_wild_card,2022.2.4,Win32,59.99160118,5f43c9fbe038cc0b2deb75d8,64d2fd46c836a06233681665,64dc7cc840f663fcc38a3d53,,,,,,,decisionTrl,resources/DP.BMP,resources/DB.BMP,Door1,0.198408537,0.008488056,1,0,0,1.6932,optionRight,30,10990,5,28,0,28,0,1,,,,,,,,,,,,,,,,,,,,,,,,,,,,,,,,,,,,,,,
,,,,,,,,2023-08-16_08h38.17.792,HF_wild_card,2022.2.4,Win32,59.99160118,5f43c9fbe038cc0b2deb75d8,64d2fd46c836a06233681665,64dc7cc840f663fcc38a3d53,,,,,,,ctch,resources/DR.BMP,resources/DB.BMP,Door4,-0.221750679,-0.025464207,1,0,0,1.1102,optionLeft,60,11050,5,29,0,29,0,1,,,,,,,,,,,,,,,,,,,,,,,,,,,,,,,,,,,,,,,
,,,,,,,,2023-08-16_08h38.17.792,HF_wild_card,2022.2.4,Win32,59.99160118,5f43c9fbe038cc0b2deb75d8,64d2fd46c836a06233681665,64dc7cc840f663fcc38a3d53,,,,,,,decisionTrl,resources/DB.BMP,resources/DP.BMP,Door2,0.262069014,-0.029708215,1,0,0,1.0575,optionRight,20,11070,5,30,0,30,0,1,,,,,,,,,,,,,,,,,,,,,,,,,,,,,,,,,,,,,,,
,,,,,,,,2023-08-16_08h38.17.792,HF_wild_card,2022.2.4,Win32,59.99160118,5f43c9fbe038cc0b2deb75d8,64d2fd46c836a06233681665,64dc7cc840f663fcc38a3d53,,,,,,,decisionTrl,resources/DR.BMP,resources/DY.BMP,Door3,0.198408537,-0.067904525,1,0,0,1.7768,optionRight,70,11140,5,31,0,31,0,1,,,,,,,,,,,,,,,,,,,,,,,,,,,,,,,,,,,,,,,
,,,,,,,,2023-08-16_08h38.17.792,HF_wild_card,2022.2.4,Win32,59.99160118,5f43c9fbe038cc0b2deb75d8,64d2fd46c836a06233681665,64dc7cc840f663fcc38a3d53,,,,,,,decisionTrl,resources/DP.BMP,resources/DB.BMP,Door2,-0.170822265,-0.05941647,1,0,0,1.1623,optionLeft,20,11160,5,32,0,32,0,1,,,,,,,,,,,,,,,,,,,,,,,,,,,,,,,,,,,,,,,
,,,,,,,,2023-08-16_08h38.17.792,HF_wild_card,2022.2.4,Win32,59.99160118,5f43c9fbe038cc0b2deb75d8,64d2fd46c836a06233681665,64dc7cc840f663fcc38a3d53,,,,,,,sngl,resources/DY.BMP,resources/Empty.png,Door3,-0.201591512,-0.066843493,1,0,0,0.991,optionLeft,70,11230,5,33,0,33,0,1,,,,,,,,,,,,,,,,,,,,,,,,,,,,,,,,,,,,,,,
,,,,,,,,2023-08-16_08h38.17.792,HF_wild_card,2022.2.4,Win32,59.99160118,5f43c9fbe038cc0b2deb75d8,64d2fd46c836a06233681665,64dc7cc840f663fcc38a3d53,,,,,,,decisionTrl,resources/DG.BMP,resources/DP.BMP,Door2,0.171883338,-0.050928374,1,0,0,1.879,optionRight,40,11270,5,34,0,34,0,1,,,,,,,,,,,,,,,,,,,,,,,,,,,,,,,,,,,,,,,
,,,,,,,,2023-08-16_08h38.17.792,HF_wild_card,2022.2.4,Win32,59.99160118,5f43c9fbe038cc0b2deb75d8,64d2fd46c836a06233681665,64dc7cc840f663fcc38a3d53,,,,,,,decisionTrl,resources/DP.BMP,resources/DB.BMP,Door2,-0.153846154,-0.037135279,1,0,0,1.4317,optionLeft,40,11310,5,35,0,35,0,1,,,,,,,,,,,,,,,,,,,,,,,,,,,,,,,,,,,,,,,
,,,,,,,,2023-08-16_08h38.17.792,HF_wild_card,2022.2.4,Win32,59.99160118,5f43c9fbe038cc0b2deb75d8,64d2fd46c836a06233681665,64dc7cc840f663fcc38a3d53,,,,,,,decisionTrl,resources/DR.BMP,resources/DY.BMP,Door3,0.220689688,-0.043501351,1,0,0,1.3771,optionRight,70,11380,5,36,0,36,0,1,,,,,,,,,,,,,,,,,,,,,,,,,,,,,,,,,,,,,,,
,,,,,,,,2023-08-16_08h38.17.792,HF_wild_card,2022.2.4,Win32,59.99160118,5f43c9fbe038cc0b2deb75d8,64d2fd46c836a06233681665,64dc7cc840f663fcc38a3d53,,,,,,,decisionTrl,resources/DG.BMP,resources/DR.BMP,Door4,0.321485444,-0.053050398,1,0,0,1.4322,optionRight,60,11440,5,37,0,37,0,1,,,,,,,,,,,,,,,,,,,,,,,,,,,,,,,,,,,,,,,
,,,,,,,,2023-08-16_08h38.17.792,HF_wild_card,2022.2.4,Win32,59.99160118,5f43c9fbe038cc0b2deb75d8,64d2fd46c836a06233681665,64dc7cc840f663fcc38a3d53,,,,,,,decisionTrl,resources/DP.BMP,resources/DB.BMP,Door2,-0.144297066,-0.038196311,1,0,0,1.9224,optionLeft,40,11480,5,38,0,38,0,1,,,,,,,,,,,,,,,,,,,,,,,,,,,,,,,,,,,,,,,
,,,,,,,,2023-08-16_08h38.17.792,HF_wild_card,2022.2.4,Win32,59.99160118,5f43c9fbe038cc0b2deb75d8,64d2fd46c836a06233681665,64dc7cc840f663fcc38a3d53,,,,,,,decisionTrl,resources/DG.BMP,resources/DY.BMP,Door3,0.252519926,-0.036074287,1,0,0,1.3772,optionRight,70,11550,5,39,0,39,0,1,,,,,,,,,,,,,,,,,,,,,,,,,,,,,,,,,,,,,,,
,,,,,,,,2023-08-16_08h38.17.792,HF_wild_card,2022.2.4,Win32,59.99160118,5f43c9fbe038cc0b2deb75d8,64d2fd46c836a06233681665,64dc7cc840f663fcc38a3d53,,,,,,,ctch,resources/DY.BMP,resources/DP.BMP,Door3,-0.199469447,-0.023342183,1,0,0,1.0772,optionLeft,70,11620,5,40,0,40,0,1,,,,,,,,,,,,,,,,,,,,,,,,,,,,,,,,,,,,,,,
,,,,,,,,2023-08-16_08h38.17.792,HF_wild_card,2022.2.4,Win32,59.99160118,5f43c9fbe038cc0b2deb75d8,64d2fd46c836a06233681665,64dc7cc840f663fcc38a3d53,,,,,,,decisionTrl,resources/DR.BMP,resources/DY.BMP,Door3,0.230238775,-0.019098135,1,0,0,1.3734,optionRight,70,11690,5,41,0,41,0,1,,,,,,,,,,,,,,,,,,,,,,,,,,,,,,,,,,,,,,,
,,,,,,,,2023-08-16_08h38.17.792,HF_wild_card,2022.2.4,Win32,59.99160118,5f43c9fbe038cc0b2deb75d8,64d2fd46c836a06233681665,64dc7cc840f663fcc38a3d53,,,,,,,sngl,resources/Empty.png,resources/DG.BMP,WildCard_Ex,0.263130006,-0.027586231,1,0,0,0.863,optionRight,95,11785,5,42,0,42,0,1,,,,,,,,,,,,,,,,,,,,,,,,,,,,,,,,,,,,,,,
,,,,,,,,2023-08-16_08h38.17.792,HF_wild_card,2022.2.4,Win32,59.99160118,5f43c9fbe038cc0b2deb75d8,64d2fd46c836a06233681665,64dc7cc840f663fcc38a3d53,,,,,,,sngl,resources/Empty.png,resources/DY.BMP,Door3,0.21644564,0.003183016,1,0,0,0.8949,optionRight,70,11855,5,43,0,43,0,1,,,,,,,,,,,,,,,,,,,,,,,,,,,,,,,,,,,,,,,
,,,,,,,,2023-08-16_08h38.17.792,HF_wild_card,2022.2.4,Win32,59.99160118,5f43c9fbe038cc0b2deb75d8,64d2fd46c836a06233681665,64dc7cc840f663fcc38a3d53,,,,,,,,,,,,,,,,,,,,,,,,,,4,0,4,0,1,,,,,,,,,,,,,,,,,,,,,,,,,,,,,,,,,,
,,,,,,,,2023-08-16_08h38.17.792,HF_wild_card,2022.2.4,Win32,59.99160118,5f43c9fbe038cc0b2deb75d8,64d2fd46c836a06233681665,64dc7cc840f663fcc38a3d53,,,,,,,sngl,resources/Empty.png,resources/DG.BMP,WildCard_Ex,0.241909847,-0.078514605,1,0,0,0.8643,optionRight,5,11860,6,0,0,0,0,1,,,,,,,,,,,,,,,,,,,,,,,,,,,,,,,,,,,,,,,
,,,,,,,,2023-08-16_08h38.17.792,HF_wild_card,2022.2.4,Win32,59.99160118,5f43c9fbe038cc0b2deb75d8,64d2fd46c836a06233681665,64dc7cc840f663fcc38a3d53,,,,,,,sngl,resources/Empty.png,resources/DR.BMP,Door4,0.231299767,-0.00530504,1,0,0,0.7116,optionRight,80,11940,6,1,0,1,0,1,,,,,,,,,,,,,,,,,,,,,,,,,,,,,,,,,,,,,,,
,,,,,,,,2023-08-16_08h38.17.792,HF_wild_card,2022.2.4,Win32,59.99160118,5f43c9fbe038cc0b2deb75d8,64d2fd46c836a06233681665,64dc7cc840f663fcc38a3d53,,,,,,,decisionTrl,resources/DY.BMP,resources/DG.BMP,Door3,-0.196286472,-0.061538453,1,0,0,1.4767,optionLeft,70,12010,6,2,0,2,0,1,,,,,,,,,,,,,,,,,,,,,,,,,,,,,,,,,,,,,,,
,,,,,,,,2023-08-16_08h38.17.792,HF_wild_card,2022.2.4,Win32,59.99160118,5f43c9fbe038cc0b2deb75d8,64d2fd46c836a06233681665,64dc7cc840f663fcc38a3d53,,,,,,,decisionTrl,resources/DG.BMP,resources/DP.BMP,WildCard_Ex,-0.177188297,-0.04880639,1,0,0,1.943,optionLeft,5,12015,6,3,0,3,0,1,,,,,,,,,,,,,,,,,,,,,,,,,,,,,,,,,,,,,,,
,,,,,,,,2023-08-16_08h38.17.792,HF_wild_card,2022.2.4,Win32,59.99160118,5f43c9fbe038cc0b2deb75d8,64d2fd46c836a06233681665,64dc7cc840f663fcc38a3d53,,,,,,,ctch,resources/DP.BMP,resources/DY.BMP,Door3,0.20583556,-0.053050398,1,0,0,1.0238,optionRight,70,12085,6,4,0,4,0,1,,,,,,,,,,,,,,,,,,,,,,,,,,,,,,,,,,,,,,,
,,,,,,,,2023-08-16_08h38.17.792,HF_wild_card,2022.2.4,Win32,59.99160118,5f43c9fbe038cc0b2deb75d8,64d2fd46c836a06233681665,64dc7cc840f663fcc38a3d53,,,,,,,ctch,resources/DR.BMP,resources/DB.BMP,Door4,-0.288594132,-0.046684366,1,0,0,1.1782,optionLeft,60,12145,6,5,0,5,0,1,,,,,,,,,,,,,,,,,,,,,,,,,,,,,,,,,,,,,,,
,,,,,,,,2023-08-16_08h38.17.792,HF_wild_card,2022.2.4,Win32,59.99160118,5f43c9fbe038cc0b2deb75d8,64d2fd46c836a06233681665,64dc7cc840f663fcc38a3d53,,,,,,,decisionTrl,resources/DG.BMP,resources/DR.BMP,Door4,0.229177703,-0.013793095,1,0,0,1.2485,optionRight,80,12225,6,6,0,6,0,1,,,,,,,,,,,,,,,,,,,,,,,,,,,,,,,,,,,,,,,
,,,,,,,,2023-08-16_08h38.17.792,HF_wild_card,2022.2.4,Win32,59.99160118,5f43c9fbe038cc0b2deb75d8,64d2fd46c836a06233681665,64dc7cc840f663fcc38a3d53,,,,,,,ctch,resources/DP.BMP,resources/DY.BMP,Door3,0.227055719,-0.047745358,1,0,0,1.0778,optionRight,70,12295,6,7,0,7,0,1,,,,,,,,,,,,,,,,,,,,,,,,,,,,,,,,,,,,,,,
,,,,,,,,2023-08-16_08h38.17.792,HF_wild_card,2022.2.4,Win32,59.99160118,5f43c9fbe038cc0b2deb75d8,64d2fd46c836a06233681665,64dc7cc840f663fcc38a3d53,,,,,,,decisionTrl,resources/DB.BMP,resources/DP.BMP,Door2,0.20053052,-0.061538453,1,0,0,1.5264,optionRight,20,12315,6,8,0,8,0,1,,,,,,,,,,,,,,,,,,,,,,,,,,,,,,,,,,,,,,,
,,,,,,,,2023-08-16_08h38.17.792,HF_wild_card,2022.2.4,Win32,59.99160118,5f43c9fbe038cc0b2deb75d8,64d2fd46c836a06233681665,64dc7cc840f663fcc38a3d53,,,,,,,sngl,resources/Empty.png,resources/DG.BMP,WildCard_Ex,0.237665799,0.006366032,1,0,0,0.7661,optionRight,95,12410,6,9,0,9,0,1,,,,,,,,,,,,,,,,,,,,,,,,,,,,,,,,,,,,,,,
,,,,,,,,2023-08-16_08h38.17.792,HF_wild_card,2022.2.4,Win32,59.99160118,5f43c9fbe038cc0b2deb75d8,64d2fd46c836a06233681665,64dc7cc840f663fcc38a3d53,,,,,,,decisionTrl,resources/DG.BMP,resources/DY.BMP,WildCard_Ex,-0.180371353,-0.042440318,1,0,0,0.8278,optionLeft,95,12505,6,10,0,10,0,1,,,,,,,,,,,,,,,,,,,,,,,,,,,,,,,,,,,,,,,
,,,,,,,,2023-08-16_08h38.17.792,HF_wild_card,2022.2.4,Win32,59.99160118,5f43c9fbe038cc0b2deb75d8,64d2fd46c836a06233681665,64dc7cc840f663fcc38a3d53,,,,,,,decisionTrl,resources/DB.BMP,resources/DP.BMP,Door1,0.015915119,-0.006366072,1,0,0,0.7285,optionLeft,30,12535,6,11,0,11,0,1,,,,,,,,,,,,,,,,,,,,,,,,,,,,,,,,,,,,,,,
,,,,,,,,2023-08-16_08h38.17.792,HF_wild_card,2022.2.4,Win32,59.99160118,5f43c9fbe038cc0b2deb75d8,64d2fd46c836a06233681665,64dc7cc840f663fcc38a3d53,,,,,,,decisionTrl,resources/DP.BMP,resources/DB.BMP,Door1,0.161273258,-0.028647223,1,0,0,1.1501,optionRight,30,12565,6,12,0,12,0,1,,,,,,,,,,,,,,,,,,,,,,,,,,,,,,,,,,,,,,,
,,,,,,,,2023-08-16_08h38.17.792,HF_wild_card,2022.2.4,Win32,59.99160118,5f43c9fbe038cc0b2deb75d8,64d2fd46c836a06233681665,64dc7cc840f663fcc38a3d53,,,,,,,decisionTrl,resources/DP.BMP,resources/DB.BMP,Door1,0.212201592,-0.045623334,1,0,0,0.95,optionRight,30,12595,6,13,0,13,0,1,,,,,,,,,,,,,,,,,,,,,,,,,,,,,,,,,,,,,,,
,,,,,,,,2023-08-16_08h38.17.792,HF_wild_card,2022.2.4,Win32,59.99160118,5f43c9fbe038cc0b2deb75d8,64d2fd46c836a06233681665,64dc7cc840f663fcc38a3d53,,,,,,,sngl,resources/Empty.png,resources/DP.BMP,Door2,0.245092822,-0.046684366,1,0,0,0.8415,optionRight,40,12635,6,14,0,14,0,1,,,,,,,,,,,,,,,,,,,,,,,,,,,,,,,,,,,,,,,
,,,,,,,,2023-08-16_08h38.17.792,HF_wild_card,2022.2.4,Win32,59.99160118,5f43c9fbe038cc0b2deb75d8,64d2fd46c836a06233681665,64dc7cc840f663fcc38a3d53,,,,,,,decisionTrl,resources/DY.BMP,resources/DR.BMP,Door3,-0.171883257,-0.05941647,1,0,0,1.2737,optionLeft,70,12705,6,15,0,15,0,1,,,,,,,,,,,,,,,,,,,,,,,,,,,,,,,,,,,,,,,
,,,,,,,,2023-08-16_08h38.17.792,HF_wild_card,2022.2.4,Win32,59.99160118,5f43c9fbe038cc0b2deb75d8,64d2fd46c836a06233681665,64dc7cc840f663fcc38a3d53,,,,,,,decisionTrl,resources/DP.BMP,resources/DG.BMP,WildCard_Ex,0.228116711,0.016976111,1,0,0,1.7934,optionRight,95,12800,6,16,0,16,0,1,,,,,,,,,,,,,,,,,,,,,,,,,,,,,,,,,,,,,,,
,,,,,,,,2023-08-16_08h38.17.792,HF_wild_card,2022.2.4,Win32,59.99160118,5f43c9fbe038cc0b2deb75d8,64d2fd46c836a06233681665,64dc7cc840f663fcc38a3d53,,,,,,,ctch,resources/DY.BMP,resources/DP.BMP,Door3,-0.188859368,-0.018037143,1,0,0,1.1832,optionLeft,70,12870,6,17,0,17,0,1,,,,,,,,,,,,,,,,,,,,,,,,,,,,,,,,,,,,,,,
,,,,,,,,2023-08-16_08h38.17.792,HF_wild_card,2022.2.4,Win32,59.99160118,5f43c9fbe038cc0b2deb75d8,64d2fd46c836a06233681665,64dc7cc840f663fcc38a3d53,,,,,,,decisionTrl,resources/DB.BMP,resources/DP.BMP,Door1,-0.227055719,-0.071087541,1,0,0,1.9313,optionLeft,30,12900,6,18,0,18,0,1,,,,,,,,,,,,,,,,,,,,,,,,,,,,,,,,,,,,,,,
,,,,,,,,2023-08-16_08h38.17.792,HF_wild_card,2022.2.4,Win32,59.99160118,5f43c9fbe038cc0b2deb75d8,64d2fd46c836a06233681665,64dc7cc840f663fcc38a3d53,,,,,,,decisionTrl,resources/DY.BMP,resources/DR.BMP,Door3,-0.21644564,-0.038196311,1,0,0,1.3273,optionLeft,70,12970,6,19,0,19,0,1,,,,,,,,,,,,,,,,,,,,,,,,,,,,,,,,,,,,,,,
,,,,,,,,2023-08-16_08h38.17.792,HF_wild_card,2022.2.4,Win32,59.99160118,5f43c9fbe038cc0b2deb75d8,64d2fd46c836a06233681665,64dc7cc840f663fcc38a3d53,,,,,,,ctch,resources/DR.BMP,resources/DB.BMP,Door4,-0.193103416,-0.088063652,1,0,0,1.4608,optionLeft,60,13030,6,20,0,20,0,1,,,,,,,,,,,,,,,,,,,,,,,,,,,,,,,,,,,,,,,
,,,,,,,,2023-08-16_08h38.17.792,HF_wild_card,2022.2.4,Win32,59.99160118,5f43c9fbe038cc0b2deb75d8,64d2fd46c836a06233681665,64dc7cc840f663fcc38a3d53,,,,,,,decisionTrl,resources/DR.BMP,resources/DY.BMP,Door3,0.263130006,0,1,0,0,1.2088,optionRight,70,13100,6,21,0,21,0,1,,,,,,,,,,,,,,,,,,,,,,,,,,,,,,,,,,,,,,,
,,,,,,,,2023-08-16_08h38.17.792,HF_wild_card,2022.2.4,Win32,59.99160118,5f43c9fbe038cc0b2deb75d8,64d2fd46c836a06233681665,64dc7cc840f663fcc38a3d53,,,,,,,decisionTrl,resources/DR.BMP,resources/DY.BMP,Door3,0.283289173,-0.022281191,1,0,0,0.8616,optionRight,70,13170,6,22,0,22,0,1,,,,,,,,,,,,,,,,,,,,,,,,,,,,,,,,,,,,,,,
,,,,,,,,2023-08-16_08h38.17.792,HF_wild_card,2022.2.4,Win32,59.99160118,5f43c9fbe038cc0b2deb75d8,64d2fd46c836a06233681665,64dc7cc840f663fcc38a3d53,,,,,,,sngl,resources/Empty.png,resources/DY.BMP,Door3,0.221750679,-0.015915119,1,0,0,1.2775,optionRight,70,13240,6,23,0,23,0,1,,,,,,,,,,,,,,,,,,,,,,,,,,,,,,,,,,,,,,,
,,,,,,,,2023-08-16_08h38.17.792,HF_wild_card,2022.2.4,Win32,59.99160118,5f43c9fbe038cc0b2deb75d8,64d2fd46c836a06233681665,64dc7cc840f663fcc38a3d53,,,,,,,decisionTrl,resources/DP.BMP,resources/DB.BMP,Door2,-0.241909766,-0.063660477,1,0,0,2.6213,optionLeft,40,13280,6,24,0,24,0,1,,,,,,,,,,,,,,,,,,,,,,,,,,,,,,,,,,,,,,,
,,,,,,,,2023-08-16_08h38.17.792,HF_wild_card,2022.2.4,Win32,59.99160118,5f43c9fbe038cc0b2deb75d8,64d2fd46c836a06233681665,64dc7cc840f663fcc38a3d53,,,,,,,decisionTrl,resources/DY.BMP,resources/DR.BMP,Door3,-0.221750679,-0.079575597,1,0,0,1.0411,optionLeft,70,13350,6,25,0,25,0,1,,,,,,,,,,,,,,,,,,,,,,,,,,,,,,,,,,,,,,,
,,,,,,,,2023-08-16_08h38.17.792,HF_wild_card,2022.2.4,Win32,59.99160118,5f43c9fbe038cc0b2deb75d8,64d2fd46c836a06233681665,64dc7cc840f663fcc38a3d53,,,,,,,decisionTrl,resources/DR.BMP,resources/DY.BMP,Door3,0.288594213,-0.016976152,1,0,0,1.1776,optionRight,70,13420,6,26,0,26,0,1,,,,,,,,,,,,,,,,,,,,,,,,,,,,,,,,,,,,,,,
,,,,,,,,2023-08-16_08h38.17.792,HF_wild_card,2022.2.4,Win32,59.99160118,5f43c9fbe038cc0b2deb75d8,64d2fd46c836a06233681665,64dc7cc840f663fcc38a3d53,,,,,,,decisionTrl,resources/DP.BMP,resources/DB.BMP,Door2,-0.165517225,-0.076392581,1,0,0,1.1938,optionLeft,40,13460,6,27,0,27,0,1,,,,,,,,,,,,,,,,,,,,,,,,,,,,,,,,,,,,,,,
,,,,,,,,2023-08-16_08h38.17.792,HF_wild_card,2022.2.4,Win32,59.99160118,5f43c9fbe038cc0b2deb75d8,64d2fd46c836a06233681665,64dc7cc840f663fcc38a3d53,,,,,,,ctch,resources/DB.BMP,resources/DR.BMP,Door4,0.23872679,-0.007427064,1,0,0,1.2449,optionRight,60,13520,6,28,0,28,0,1,,,,,,,,,,,,,,,,,,,,,,,,,,,,,,,,,,,,,,,
,,,,,,,,2023-08-16_08h38.17.792,HF_wild_card,2022.2.4,Win32,59.99160118,5f43c9fbe038cc0b2deb75d8,64d2fd46c836a06233681665,64dc7cc840f663fcc38a3d53,,,,,,,sngl,resources/DR.BMP,resources/Empty.png,Door4,-0.187798376,-0.011671112,1,0,0,0.9416,optionLeft,60,13580,6,29,0,29,0,1,,,,,,,,,,,,,,,,,,,,,,,,,,,,,,,,,,,,,,,
,,,,,,,,2023-08-16_08h38.17.792,HF_wild_card,2022.2.4,Win32,59.99160118,5f43c9fbe038cc0b2deb75d8,64d2fd46c836a06233681665,64dc7cc840f663fcc38a3d53,,,,,,,ctch,resources/DY.BMP,resources/DP.BMP,Door3,-0.24933687,-0.071087541,1,0,0,1.926,optionLeft,70,13650,6,30,0,30,0,1,,,,,,,,,,,,,,,,,,,,,,,,,,,,,,,,,,,,,,,
,,,,,,,,2023-08-16_08h38.17.792,HF_wild_card,2022.2.4,Win32,59.99160118,5f43c9fbe038cc0b2deb75d8,64d2fd46c836a06233681665,64dc7cc840f663fcc38a3d53,,,,,,,sngl,resources/DY.BMP,resources/Empty.png,Door3,-0.170822265,-0.029708215,1,0,0,1.044,optionLeft,70,13720,6,31,0,31,0,1,,,,,,,,,,,,,,,,,,,,,,,,,,,,,,,,,,,,,,,
,,,,,,,,2023-08-16_08h38.17.792,HF_wild_card,2022.2.4,Win32,59.99160118,5f43c9fbe038cc0b2deb75d8,64d2fd46c836a06233681665,64dc7cc840f663fcc38a3d53,,,,,,,decisionTrl,resources/DG.BMP,resources/DB.BMP,WildCard_Ex,-0.214323575,-0.058355438,1,0,0,0.8568,optionLeft,95,13815,6,32,0,32,0,1,,,,,,,,,,,,,,,,,,,,,,,,,,,,,,,,,,,,,,,
,,,,,,,,2023-08-16_08h38.17.792,HF_wild_card,2022.2.4,Win32,59.99160118,5f43c9fbe038cc0b2deb75d8,64d2fd46c836a06233681665,64dc7cc840f663fcc38a3d53,,,,,,,sngl,resources/DB.BMP,resources/Empty.png,Door1,-0.235543734,-0.065782501,1,0,0,0.8501,optionLeft,30,13845,6,33,0,33,0,1,,,,,,,,,,,,,,,,,,,,,,,,,,,,,,,,,,,,,,,
,,,,,,,,2023-08-16_08h38.17.792,HF_wild_card,2022.2.4,Win32,59.99160118,5f43c9fbe038cc0b2deb75d8,64d2fd46c836a06233681665,64dc7cc840f663fcc38a3d53,,,,,,,sngl,resources/DP.BMP,resources/Empty.png,Door2,-0.20053052,-0.045623334,1,0,0,0.791,optionLeft,20,13865,6,34,0,34,0,1,,,,,,,,,,,,,,,,,,,,,,,,,,,,,,,,,,,,,,,
,,,,,,,,2023-08-16_08h38.17.792,HF_wild_card,2022.2.4,Win32,59.99160118,5f43c9fbe038cc0b2deb75d8,64d2fd46c836a06233681665,64dc7cc840f663fcc38a3d53,,,,,,,decisionTrl,resources/DY.BMP,resources/DR.BMP,Door3,-0.166578217,-0.063660477,1,0,0,1.7596,optionLeft,70,13935,6,35,0,35,0,1,,,,,,,,,,,,,,,,,,,,,,,,,,,,,,,,,,,,,,,
,,,,,,,,2023-08-16_08h38.17.792,HF_wild_card,2022.2.4,Win32,59.99160118,5f43c9fbe038cc0b2deb75d8,64d2fd46c836a06233681665,64dc7cc840f663fcc38a3d53,,,,,,,decisionTrl,resources/DR.BMP,resources/DY.BMP,Door3,0.193103497,-0.040318294,1,0,0,0.9775,optionRight,70,14005,6,36,0,36,0,1,,,,,,,,,,,,,,,,,,,,,,,,,,,,,,,,,,,,,,,
,,,,,,,,2023-08-16_08h38.17.792,HF_wild_card,2022.2.4,Win32,59.99160118,5f43c9fbe038cc0b2deb75d8,64d2fd46c836a06233681665,64dc7cc840f663fcc38a3d53,,,,,,,ctch,resources/DB.BMP,resources/DR.BMP,Door4,0.142175083,-0.045623334,1,0,0,1.843,optionRight,80,14085,6,37,0,37,0,1,,,,,,,,,,,,,,,,,,,,,,,,,,,,,,,,,,,,,,,
,,,,,,,,2023-08-16_08h38.17.792,HF_wild_card,2022.2.4,Win32,59.99160118,5f43c9fbe038cc0b2deb75d8,64d2fd46c836a06233681665,64dc7cc840f663fcc38a3d53,,,,,,,sngl,resources/DG.BMP,resources/Empty.png,WildCard_Ex,-0.218567623,-0.042440318,1,0,0,0.8283,optionLeft,95,14180,6,38,0,38,0,1,,,,,,,,,,,,,,,,,,,,,,,,,,,,,,,,,,,,,,,
,,,,,,,,2023-08-16_08h38.17.792,HF_wild_card,2022.2.4,Win32,59.99160118,5f43c9fbe038cc0b2deb75d8,64d2fd46c836a06233681665,64dc7cc840f663fcc38a3d53,,,,,,,sngl,resources/DG.BMP,resources/Empty.png,WildCard_Ex,-0.203713495,-0.056233414,1,0,0,0.8616,optionLeft,5,14185,6,39,0,39,0,1,,,,,,,,,,,,,,,,,,,,,,,,,,,,,,,,,,,,,,,
,,,,,,,,2023-08-16_08h38.17.792,HF_wild_card,2022.2.4,Win32,59.99160118,5f43c9fbe038cc0b2deb75d8,64d2fd46c836a06233681665,64dc7cc840f663fcc38a3d53,,,,,,,decisionTrl,resources/DB.BMP,resources/DG.BMP,Door1,-0.166578217,-0.056233414,1,0,0,1.0915,optionLeft,30,14215,6,40,0,40,0,1,,,,,,,,,,,,,,,,,,,,,,,,,,,,,,,,,,,,,,,
,,,,,,,,2023-08-16_08h38.17.792,HF_wild_card,2022.2.4,Win32,59.99160118,5f43c9fbe038cc0b2deb75d8,64d2fd46c836a06233681665,64dc7cc840f663fcc38a3d53,,,,,,,decisionTrl,resources/DB.BMP,resources/DP.BMP,Door2,0.184615401,-0.029708215,1,0,0,1.8766,optionRight,40,14255,6,41,0,41,0,1,,,,,,,,,,,,,,,,,,,,,,,,,,,,,,,,,,,,,,,
,,,,,,,,2023-08-16_08h38.17.792,HF_wild_card,2022.2.4,Win32,59.99160118,5f43c9fbe038cc0b2deb75d8,64d2fd46c836a06233681665,64dc7cc840f663fcc38a3d53,,,,,,,decisionTrl,resources/DR.BMP,resources/DG.BMP,Door4,-0.25464191,-0.053050398,1,0,0,1.2945,optionLeft,60,14315,6,42,0,42,0,1,,,,,,,,,,,,,,,,,,,,,,,,,,,,,,,,,,,,,,,
,,,,,,,,2023-08-16_08h38.17.792,HF_wild_card,2022.2.4,Win32,59.99160118,5f43c9fbe038cc0b2deb75d8,64d2fd46c836a06233681665,64dc7cc840f663fcc38a3d53,,,,,,,sngl,resources/Empty.png,resources/DB.BMP,Door1,0.196286472,0.035013255,1,0,0,0.9122,optionRight,30,14345,6,43,0,43,0,1,,,,,,,,,,,,,,,,,,,,,,,,,,,,,,,,,,,,,,,
,,,,,,,,2023-08-16_08h38.17.792,HF_wild_card,2022.2.4,Win32,59.99160118,5f43c9fbe038cc0b2deb75d8,64d2fd46c836a06233681665,64dc7cc840f663fcc38a3d53,,,,,,,,,,,,,,,,,,,,,,,,,,5,0,5,0,1,,,,,,,,,,,,,,,,,,,,,,,,,,,,,,,,,,
,,,,,,,,2023-08-16_08h38.17.792,HF_wild_card,2022.2.4,Win32,59.99160118,5f43c9fbe038cc0b2deb75d8,64d2fd46c836a06233681665,64dc7cc840f663fcc38a3d53,,,,,,,decisionTrl,resources/DB.BMP,resources/DP.BMP,Door1,-0.256763893,-0.128381987,1,0,0,2.4356,optionLeft,30,14375,7,0,0,0,0,1,,,,,,,,,,,,,,,,,,,,,,,,,,,,,,,,,,,,,,,
,,,,,,,,2023-08-16_08h38.17.792,HF_wild_card,2022.2.4,Win32,59.99160118,5f43c9fbe038cc0b2deb75d8,64d2fd46c836a06233681665,64dc7cc840f663fcc38a3d53,,,,,,,decisionTrl,resources/DB.BMP,resources/DP.BMP,Door1,-0.175066313,-0.068965517,1,0,0,2.1449,optionLeft,30,14405,7,1,0,1,0,1,,,,,,,,,,,,,,,,,,,,,,,,,,,,,,,,,,,,,,,
,,,,,,,,2023-08-16_08h38.17.792,HF_wild_card,2022.2.4,Win32,59.99160118,5f43c9fbe038cc0b2deb75d8,64d2fd46c836a06233681665,64dc7cc840f663fcc38a3d53,,,,,,,ctch,resources/DB.BMP,resources/DR.BMP,Door4,0.199469528,-0.041379327,1,0,0,1.2112,optionRight,80,14485,7,2,0,2,0,1,,,,,,,,,,,,,,,,,,,,,,,,,,,,,,,,,,,,,,,
,,,,,,,,2023-08-16_08h38.17.792,HF_wild_card,2022.2.4,Win32,59.99160118,5f43c9fbe038cc0b2deb75d8,64d2fd46c836a06233681665,64dc7cc840f663fcc38a3d53,,,,,,,decisionTrl,resources/DY.BMP,resources/DR.BMP,Door3,-0.163395242,-0.039257303,1,0,0,1.1908,optionLeft,70,14555,7,3,0,3,0,1,,,,,,,,,,,,,,,,,,,,,,,,,,,,,,,,,,,,,,,
,,,,,,,,2023-08-16_08h38.17.792,HF_wild_card,2022.2.4,Win32,59.99160118,5f43c9fbe038cc0b2deb75d8,64d2fd46c836a06233681665,64dc7cc840f663fcc38a3d53,,,,,,,ctch,resources/DP.BMP,resources/DY.BMP,Door3,0.165517225,0.002122024,1,0,0,1.9397,optionRight,70,14625,7,4,0,4,0,1,,,,,,,,,,,,,,,,,,,,,,,,,,,,,,,,,,,,,,,
,,,,,,,,2023-08-16_08h38.17.792,HF_wild_card,2022.2.4,Win32,59.99160118,5f43c9fbe038cc0b2deb75d8,64d2fd46c836a06233681665,64dc7cc840f663fcc38a3d53,,,,,,,decisionTrl,resources/DY.BMP,resources/DR.BMP,Door3,-0.145358058,-0.009549088,1,0,0,1.2077,optionLeft,70,14695,7,5,0,5,0,1,,,,,,,,,,,,,,,,,,,,,,,,,,,,,,,,,,,,,,,
,,,,,,,,2023-08-16_08h38.17.792,HF_wild_card,2022.2.4,Win32,59.99160118,5f43c9fbe038cc0b2deb75d8,64d2fd46c836a06233681665,64dc7cc840f663fcc38a3d53,,,,,,,decisionTrl,resources/DY.BMP,resources/DR.BMP,Door3,-0.198408456,-0.024403175,1,0,0,0.9018,optionLeft,70,14765,7,6,0,6,0,1,,,,,,,,,,,,,,,,,,,,,,,,,,,,,,,,,,,,,,,
,,,,,,,,2023-08-16_08h38.17.792,HF_wild_card,2022.2.4,Win32,59.99160118,5f43c9fbe038cc0b2deb75d8,64d2fd46c836a06233681665,64dc7cc840f663fcc38a3d53,,,,,,,ctch,resources/DY.BMP,resources/DP.BMP,Door3,-0.132625995,-0.044562342,1,0,0,1.1301,optionLeft,70,14835,7,7,0,7,0,1,,,,,,,,,,,,,,,,,,,,,,,,,,,,,,,,,,,,,,,
,,,,,,,,2023-08-16_08h38.17.792,HF_wild_card,2022.2.4,Win32,59.99160118,5f43c9fbe038cc0b2deb75d8,64d2fd46c836a06233681665,64dc7cc840f663fcc38a3d53,,,,,,,decisionTrl,resources/DY.BMP,resources/DR.BMP,Door3,-0.166578217,-0.035013255,1,0,0,0.8808,optionLeft,70,14905,7,8,0,8,0,1,,,,,,,,,,,,,,,,,,,,,,,,,,,,,,,,,,,,,,,
,,,,,,,,2023-08-16_08h38.17.792,HF_wild_card,2022.2.4,Win32,59.99160118,5f43c9fbe038cc0b2deb75d8,64d2fd46c836a06233681665,64dc7cc840f663fcc38a3d53,,,,,,,decisionTrl,resources/DB.BMP,resources/DP.BMP,Door1,-0.220689607,-0.050928374,1,0,0,1.4916,optionLeft,30,14935,7,9,0,9,0,1,,,,,,,,,,,,,,,,,,,,,,,,,,,,,,,,,,,,,,,
,,,,,,,,2023-08-16_08h38.17.792,HF_wild_card,2022.2.4,Win32,59.99160118,5f43c9fbe038cc0b2deb75d8,64d2fd46c836a06233681665,64dc7cc840f663fcc38a3d53,,,,,,,decisionTrl,resources/DP.BMP,resources/DB.BMP,Door2,-0.170822265,-0.039257303,1,0,0,1.2833,optionLeft,40,14975,7,10,0,10,0,1,,,,,,,,,,,,,,,,,,,,,,,,,,,,,,,,,,,,,,,
,,,,,,,,2023-08-16_08h38.17.792,HF_wild_card,2022.2.4,Win32,59.99160118,5f43c9fbe038cc0b2deb75d8,64d2fd46c836a06233681665,64dc7cc840f663fcc38a3d53,,,,,,,decisionTrl,resources/DP.BMP,resources/DB.BMP,Door2,-0.114588811,-0.040318294,1,0,0,1.9499,optionLeft,20,14995,7,11,0,11,0,1,,,,,,,,,,,,,,,,,,,,,,,,,,,,,,,,,,,,,,,
,,,,,,,,2023-08-16_08h38.17.792,HF_wild_card,2022.2.4,Win32,59.99160118,5f43c9fbe038cc0b2deb75d8,64d2fd46c836a06233681665,64dc7cc840f663fcc38a3d53,,,,,,,decisionTrl,resources/DR.BMP,resources/DY.BMP,Door3,0.294960245,-0.029708215,1,0,0,1.1961,optionRight,70,15065,7,12,0,12,0,1,,,,,,,,,,,,,,,,,,,,,,,,,,,,,,,,,,,,,,,
,,,,,,,,2023-08-16_08h38.17.792,HF_wild_card,2022.2.4,Win32,59.99160118,5f43c9fbe038cc0b2deb75d8,64d2fd46c836a06233681665,64dc7cc840f663fcc38a3d53,,,,,,,decisionTrl,resources/DB.BMP,resources/DP.BMP,Door2,0.207957543,-0.006366072,1,0,0,2.2947,optionRight,20,15085,7,13,0,13,0,1,,,,,,,,,,,,,,,,,,,,,,,,,,,,,,,,,,,,,,,
,,,,,,,,2023-08-16_08h38.17.792,HF_wild_card,2022.2.4,Win32,59.99160118,5f43c9fbe038cc0b2deb75d8,64d2fd46c836a06233681665,64dc7cc840f663fcc38a3d53,,,,,,,decisionTrl,resources/DP.BMP,resources/DB.BMP,Door2,-0.112466827,-0.031830239,1,0,0,1.046,optionLeft,20,15105,7,14,0,14,0,1,,,,,,,,,,,,,,,,,,,,,,,,,,,,,,,,,,,,,,,
,,,,,,,,2023-08-16_08h38.17.792,HF_wild_card,2022.2.4,Win32,59.99160118,5f43c9fbe038cc0b2deb75d8,64d2fd46c836a06233681665,64dc7cc840f663fcc38a3d53,,,,,,,decisionTrl,resources/DR.BMP,resources/DY.BMP,Door3,0.315119412,-0.024403175,1,0,0,1.1124,optionRight,70,15175,7,15,0,15,0,1,,,,,,,,,,,,,,,,,,,,,,,,,,,,,,,,,,,,,,,
,,,,,,,,2023-08-16_08h38.17.792,HF_wild_card,2022.2.4,Win32,59.99160118,5f43c9fbe038cc0b2deb75d8,64d2fd46c836a06233681665,64dc7cc840f663fcc38a3d53,,,,,,,decisionTrl,resources/DR.BMP,resources/DY.BMP,Door3,0.23872679,-0.008488056,1,0,0,0.7877,optionRight,70,15245,7,16,0,16,0,1,,,,,,,,,,,,,,,,,,,,,,,,,,,,,,,,,,,,,,,
,,,,,,,,2023-08-16_08h38.17.792,HF_wild_card,2022.2.4,Win32,59.99160118,5f43c9fbe038cc0b2deb75d8,64d2fd46c836a06233681665,64dc7cc840f663fcc38a3d53,,,,,,,ctch,resources/DY.BMP,resources/DP.BMP,Door3,-0.257824885,-0.007427064,1,0,0,1.5839,optionLeft,70,15315,7,17,0,17,0,1,,,,,,,,,,,,,,,,,,,,,,,,,,,,,,,,,,,,,,,
,,,,,,,,2023-08-16_08h38.17.792,HF_wild_card,2022.2.4,Win32,59.99160118,5f43c9fbe038cc0b2deb75d8,64d2fd46c836a06233681665,64dc7cc840f663fcc38a3d53,,,,,,,decisionTrl,resources/DY.BMP,resources/DR.BMP,Door3,-0.163395242,-0.044562342,1,0,0,1.0129,optionLeft,70,15385,7,18,0,18,0,1,,,,,,,,,,,,,,,,,,,,,,,,,,,,,,,,,,,,,,,
,,,,,,,,2023-08-16_08h38.17.792,HF_wild_card,2022.2.4,Win32,59.99160118,5f43c9fbe038cc0b2deb75d8,64d2fd46c836a06233681665,64dc7cc840f663fcc38a3d53,,,,,,,ctch,resources/DR.BMP,resources/DB.BMP,Door4,-0.160212185,-0.05411143,1,0,0,1.2182,optionLeft,80,15465,7,19,0,19,0,1,,,,,,,,,,,,,,,,,,,,,,,,,,,,,,,,,,,,,,,
,,,,,,,,2023-08-16_08h38.17.792,HF_wild_card,2022.2.4,Win32,59.99160118,5f43c9fbe038cc0b2deb75d8,64d2fd46c836a06233681665,64dc7cc840f663fcc38a3d53,,,,,,,ctch,resources/DY.BMP,resources/DP.BMP,Door3,-0.170822265,-0.032891271,1,0,0,1.5789,optionLeft,70,15535,7,20,0,20,0,1,,,,,,,,,,,,,,,,,,,,,,,,,,,,,,,,,,,,,,,
,,,,,,,,2023-08-16_08h38.17.792,HF_wild_card,2022.2.4,Win32,59.99160118,5f43c9fbe038cc0b2deb75d8,64d2fd46c836a06233681665,64dc7cc840f663fcc38a3d53,,,,,,,decisionTrl,resources/DB.BMP,resources/DP.BMP,Door2,0.135809051,-0.046684366,1,0,0,3.7586,optionRight,40,15575,7,21,0,21,0,1,,,,,,,,,,,,,,,,,,,,,,,,,,,,,,,,,,,,,,,
,,,,,,,,2023-08-16_08h38.17.792,HF_wild_card,2022.2.4,Win32,59.99160118,5f43c9fbe038cc0b2deb75d8,64d2fd46c836a06233681665,64dc7cc840f663fcc38a3d53,,,,,,,ctch,resources/DR.BMP,resources/DB.BMP,Door4,-0.181432345,-0.056233414,1,0,0,0.8467,optionLeft,80,15655,7,22,0,22,0,1,,,,,,,,,,,,,,,,,,,,,,,,,,,,,,,,,,,,,,,
,,,,,,,,2023-08-16_08h38.17.792,HF_wild_card,2022.2.4,Win32,59.99160118,5f43c9fbe038cc0b2deb75d8,64d2fd46c836a06233681665,64dc7cc840f663fcc38a3d53,,,,,,,decisionTrl,resources/DP.BMP,resources/DB.BMP,Door2,-0.286472149,-0.026525199,1,0,0,1.534,optionLeft,20,15675,7,23,0,23,0,1,,,,,,,,,,,,,,,,,,,,,,,,,,,,,,,,,,,,,,,
,,,,,,,,2023-08-16_08h38.17.792,HF_wild_card,2022.2.4,Win32,59.99160118,5f43c9fbe038cc0b2deb75d8,64d2fd46c836a06233681665,64dc7cc840f663fcc38a3d53,,,,,,,decisionTrl,resources/DB.BMP,resources/DP.BMP,Door2,0.206896552,-0.008488056,1,0,0,1.0684,optionRight,40,15715,7,24,0,24,0,1,,,,,,,,,,,,,,,,,,,,,,,,,,,,,,,,,,,,,,,
,,,,,,,,2023-08-16_08h38.17.792,HF_wild_card,2022.2.4,Win32,59.99160118,5f43c9fbe038cc0b2deb75d8,64d2fd46c836a06233681665,64dc7cc840f663fcc38a3d53,,,,,,,decisionTrl,resources/DP.BMP,resources/DB.BMP,Door1,0.190981432,-0.020159167,1,0,0,1.3339,optionRight,30,15745,7,25,0,25,0,1,,,,,,,,,,,,,,,,,,,,,,,,,,,,,,,,,,,,,,,
,,,,,,,,2023-08-16_08h38.17.792,HF_wild_card,2022.2.4,Win32,59.99160118,5f43c9fbe038cc0b2deb75d8,64d2fd46c836a06233681665,64dc7cc840f663fcc38a3d53,,,,,,,ctch,resources/DR.BMP,resources/DB.BMP,Door4,-0.177188297,-0.011671112,1,0,0,0.8188,optionLeft,60,15805,7,26,0,26,0,1,,,,,,,,,,,,,,,,,,,,,,,,,,,,,,,,,,,,,,,
,,,,,,,,2023-08-16_08h38.17.792,HF_wild_card,2022.2.4,Win32,59.99160118,5f43c9fbe038cc0b2deb75d8,64d2fd46c836a06233681665,64dc7cc840f663fcc38a3d53,,,,,,,ctch,resources/DP.BMP,resources/DY.BMP,Door3,0.214323656,0.030769206,1,0,0,1.1273,optionRight,70,15875,7,27,0,27,0,1,,,,,,,,,,,,,,,,,,,,,,,,,,,,,,,,,,,,,,,
,,,,,,,,2023-08-16_08h38.17.792,HF_wild_card,2022.2.4,Win32,59.99160118,5f43c9fbe038cc0b2deb75d8,64d2fd46c836a06233681665,64dc7cc840f663fcc38a3d53,,,,,,,decisionTrl,resources/DP.BMP,resources/DB.BMP,Door2,-0.149602106,-0.038196311,1,0,0,1.5124,optionLeft,40,15915,7,28,0,28,0,1,,,,,,,,,,,,,,,,,,,,,,,,,,,,,,,,,,,,,,,
,,,,,,,,2023-08-16_08h38.17.792,HF_wild_card,2022.2.4,Win32,59.99160118,5f43c9fbe038cc0b2deb75d8,64d2fd46c836a06233681665,64dc7cc840f663fcc38a3d53,,,,,,,decisionTrl,resources/DR.BMP,resources/DY.BMP,Door3,0.24403183,-0.026525199,1,0,0,1.1292,optionRight,70,15985,7,29,0,29,0,1,,,,,,,,,,,,,,,,,,,,,,,,,,,,,,,,,,,,,,,
,,,,,,,,2023-08-16_08h38.17.792,HF_wild_card,2022.2.4,Win32,59.99160118,5f43c9fbe038cc0b2deb75d8,64d2fd46c836a06233681665,64dc7cc840f663fcc38a3d53,,,,,,,ctch,resources/DB.BMP,resources/DR.BMP,Door4,0.300265284,-0.021220159,1,0,0,1.5792,optionRight,60,16045,7,30,0,30,0,1,,,,,,,,,,,,,,,,,,,,,,,,,,,,,,,,,,,,,,,
,,,,,,,,2023-08-16_08h38.17.792,HF_wild_card,2022.2.4,Win32,59.99160118,5f43c9fbe038cc0b2deb75d8,64d2fd46c836a06233681665,64dc7cc840f663fcc38a3d53,,,,,,,ctch,resources/DB.BMP,resources/DR.BMP,Door4,0.193103497,0.001060992,1,0,0,0.7484,optionRight,80,16125,7,31,0,31,0,1,,,,,,,,,,,,,,,,,,,,,,,,,,,,,,,,,,,,,,,
,,,,,,,,2023-08-16_08h38.17.792,HF_wild_card,2022.2.4,Win32,59.99160118,5f43c9fbe038cc0b2deb75d8,64d2fd46c836a06233681665,64dc7cc840f663fcc38a3d53,,,,,,,ctch,resources/DP.BMP,resources/DY.BMP,Door3,0.215384648,-0.035013255,1,0,0,1.0846,optionRight,70,16195,7,32,0,32,0,1,,,,,,,,,,,,,,,,,,,,,,,,,,,,,,,,,,,,,,,
,,,,,,,,2023-08-16_08h38.17.792,HF_wild_card,2022.2.4,Win32,59.99160118,5f43c9fbe038cc0b2deb75d8,64d2fd46c836a06233681665,64dc7cc840f663fcc38a3d53,,,,,,,decisionTrl,resources/DR.BMP,resources/DY.BMP,Door3,0.182493417,-0.012732104,1,0,0,0.8305,optionRight,70,16265,7,33,0,33,0,1,,,,,,,,,,,,,,,,,,,,,,,,,,,,,,,,,,,,,,,
,,,,,,,,2023-08-16_08h38.17.792,HF_wild_card,2022.2.4,Win32,59.99160118,5f43c9fbe038cc0b2deb75d8,64d2fd46c836a06233681665,64dc7cc840f663fcc38a3d53,,,,,,,decisionTrl,resources/DR.BMP,resources/DY.BMP,Door3,0.229177703,-0.035013255,1,0,0,0.8931,optionRight,70,16335,7,34,0,34,0,1,,,,,,,,,,,,,,,,,,,,,,,,,,,,,,,,,,,,,,,
,,,,,,,,2023-08-16_08h38.17.792,HF_wild_card,2022.2.4,Win32,59.99160118,5f43c9fbe038cc0b2deb75d8,64d2fd46c836a06233681665,64dc7cc840f663fcc38a3d53,,,,,,,decisionTrl,resources/DY.BMP,resources/DR.BMP,Door3,-0.178249288,-0.013793095,1,0,0,1.0798,optionLeft,70,16405,7,35,0,35,0,1,,,,,,,,,,,,,,,,,,,,,,,,,,,,,,,,,,,,,,,
,,,,,,,,2023-08-16_08h38.17.792,HF_wild_card,2022.2.4,Win32,59.99160118,5f43c9fbe038cc0b2deb75d8,64d2fd46c836a06233681665,64dc7cc840f663fcc38a3d53,,,,,,,,,,,,,,,,,,,,,,,,,,6,0,6,0,1,,,,,,,,,,,,,,,,,,,,,,,,,,,,,,,,,,
,,,,,,,,2023-08-16_08h38.17.792,HF_wild_card,2022.2.4,Win32,59.99160118,5f43c9fbe038cc0b2deb75d8,64d2fd46c836a06233681665,64dc7cc840f663fcc38a3d53,,,,,,,,,,,,,,,,,,,,,,,,,,,,,,,4,,,,,,,,,,,,,,,,,,,,,,,,,,,,,,,,,
,,,,,,,,2023-08-16_08h38.17.792,HF_wild_card,2022.2.4,Win32,59.99160118,5f43c9fbe038cc0b2deb75d8,64d2fd46c836a06233681665,64dc7cc840f663fcc38a3d53,,,,,,,,,,,,,,,,,,,,,,,,,,,,,,,,,,,,,,,,,,,,,,,,,,,,,,,,,,,,,,,,
,,,,,,,,2023-08-16_08h38.17.792,HF_wild_card,2022.2.4,Win32,59.99160118,5f43c9fbe038cc0b2deb75d8,64d2fd46c836a06233681665,64dc7cc840f663fcc38a3d53,,,,,,,,,,,,,,,,,,,,,,,,,,,,,,,,20,WC_nonExtreme,resources/DBN.BMP,0,0,0,0,1,,,,,,,,,,,,,,,,,,,,,,,,,
,,,,,,,,2023-08-16_08h38.17.792,HF_wild_card,2022.2.4,Win32,59.99160118,5f43c9fbe038cc0b2deb75d8,64d2fd46c836a06233681665,64dc7cc840f663fcc38a3d53,,,,,,,,,,,,,,,,,,,,,,,,,,,,,,,,40,Door2,resources/DP.BMP,1,0,1,0,1,,,,,,,,,,,,,,,,,,,,,,,,,
,,,,,,,,2023-08-16_08h38.17.792,HF_wild_card,2022.2.4,Win32,59.99160118,5f43c9fbe038cc0b2deb75d8,64d2fd46c836a06233681665,64dc7cc840f663fcc38a3d53,,,,,,,,,,,,,,,,,,,,,,,,,,,,,,,,35,Door1,resources/DB.BMP,2,0,2,0,1,,,,,,,,,,,,,,,,,,,,,,,,,
,,,,,,,,2023-08-16_08h38.17.792,HF_wild_card,2022.2.4,Win32,59.99160118,5f43c9fbe038cc0b2deb75d8,64d2fd46c836a06233681665,64dc7cc840f663fcc38a3d53,,,,,,,,,,,,,,,,,,,,,,,,,,,,,,,,70,Door3,resources/DY.BMP,3,0,3,0,1,,,,,,,,,,,,,,,,,,,,,,,,,
,,,,,,,,2023-08-16_08h38.17.792,HF_wild_card,2022.2.4,Win32,59.99160118,5f43c9fbe038cc0b2deb75d8,64d2fd46c836a06233681665,64dc7cc840f663fcc38a3d53,,,,,,,,,,,,,,,,,,,,,,,,,,,,,,,,95,WC_extreme,resources/DG.BMP,4,0,4,0,1,,,,,,,,,,,,,,,,,,,,,,,,,
,,,,,,,,2023-08-16_08h38.17.792,HF_wild_card,2022.2.4,Win32,59.99160118,5f43c9fbe038cc0b2deb75d8,64d2fd46c836a06233681665,64dc7cc840f663fcc38a3d53,,,,,,,,,,,,,,,,,,,,,,,,,,,,,,,,80,Door4,resources/DR.BMP,5,0,5,0,1,,,,,,,,,,,,,,,,,,,,,,,,,
,,,,,,,,2023-08-16_08h38.17.792,HF_wild_card,2022.2.4,Win32,59.99160118,5f43c9fbe038cc0b2deb75d8,64d2fd46c836a06233681665,64dc7cc840f663fcc38a3d53,,,,,,,,,,,,,,,,,,,,,,,,,,,,,,,,,,,,,,,,,,,,,,,,,,,,,,,,,,,,,,,,
