Condition,Low fixed image (Door1),Low risky image (Door2),High fixed image (Door3),High risky image (Door4),Extreme Wild Card,NonExtreme Wild Card,,date,expName,psychopyVersion,OS,frameRate,PROLIFIC_PID,STUDY_ID,SESSION_ID,mouse_2.x,mouse_2.y,mouse_2.leftButton,mouse_2.midButton,mouse_2.rightButton,mouse_2.clicked_name,Trial Type,Left Option Image,Right Option Image,Chosen Door,mouse.x,mouse.y,mouse.leftButton,mouse.midButton,mouse.rightButton,mouse.time,mouse.clicked_name,Feedback,Cumulative Reward,Block,trial.thisRepN,trial.thisTrialN,trial.thisN,trial.thisIndex,trial.ran,blocks.thisRepN,blocks.thisTrialN,blocks.thisN,blocks.thisIndex,blocks.ran,Money conversion,First Outcome Reported,Shown Door (First Outcome),Displayed Image (First Outcome),outcomes.thisRepN,outcomes.thisTrialN,outcomes.thisN,outcomes.thisIndex,outcomes.ran,judgments.thisRepN,judgments.thisTrialN,judgments.thisN,judgments.thisIndex,judgments.ran,freqMouse.x,freqMouse.y,freqMouse.leftButton,freqMouse.midButton,freqMouse.rightButton,freqMouse.clicked_name,trials.thisRepN,trials.thisTrialN,trials.thisN,trials.thisIndex,trials.ran,FQJ for first outcome,FQJ for second outcome,Shown Door,Displayed Image,judgBlock.thisRepN,judgBlock.thisTrialN,judgBlock.thisN,judgBlock.thisIndex,judgBlock.ran
0,resources/DBN.BMP,resources/DP.BMP,resources/DB.BMP,resources/DY.BMP,resources/DG.BMP,resources/DR.BMP,,2023-08-16_08h15.15.841,HF_wild_card,2022.2.4,Win32,59.91611744,5a9f9e14b5e2110001c6f6f5,64d2fd46c836a06233681665,64dc75a3df1ea72463ade36f,,,,,,,,,,,,,,,,,,,,,,,,,,,,,,,,,,,,,,,,,,,,,,,,,,,,,,,,,,,,,,,,
,,,,,,,,2023-08-16_08h15.15.841,HF_wild_card,2022.2.4,Win32,59.91611744,5a9f9e14b5e2110001c6f6f5,64d2fd46c836a06233681665,64dc75a3df1ea72463ade36f,-0.011111111,-0.419444444,1,0,0,agree,,,,,,,,,,,,,,,,,,,,,,,,,,,,,,,,,,,,,,,,,,,,,,,,,,,,,,,,,,
,,,,,,,,2023-08-16_08h15.15.841,HF_wild_card,2022.2.4,Win32,59.91611744,5a9f9e14b5e2110001c6f6f5,64d2fd46c836a06233681665,64dc75a3df1ea72463ade36f,,,,,,,,,,,,,,,,,,,,,,,,,,,,,,,,,,,,,,,,,,,,,,,,,,,,,,,,,,,,,,,,
,,,,,,,,2023-08-16_08h15.15.841,HF_wild_card,2022.2.4,Win32,59.91611744,5a9f9e14b5e2110001c6f6f5,64d2fd46c836a06233681665,64dc75a3df1ea72463ade36f,,,,,,,ctch,resources/DP.BMP,resources/DB.BMP,Door2,-0.341666667,-0.186111111,1,0,0,2.424,optionLeft,40,40,1,0,0,0,0,1,,,,,,,,,,,,,,,,,,,,,,,,,,,,,,,,,,,,,,,
,,,,,,,,2023-08-16_08h15.15.841,HF_wild_card,2022.2.4,Win32,59.91611744,5a9f9e14b5e2110001c6f6f5,64d2fd46c836a06233681665,64dc75a3df1ea72463ade36f,,,,,,,sngl,resources/DG.BMP,resources/Empty.png,WildCard_Ex,-0.216666667,-0.08148151,1,0,0,1.6655,optionLeft,95,135,1,1,0,1,0,1,,,,,,,,,,,,,,,,,,,,,,,,,,,,,,,,,,,,,,,
,,,,,,,,2023-08-16_08h15.15.841,HF_wild_card,2022.2.4,Win32,59.91611744,5a9f9e14b5e2110001c6f6f5,64d2fd46c836a06233681665,64dc75a3df1ea72463ade36f,,,,,,,decisionTrl,resources/DP.BMP,resources/DG.BMP,WildCard_Ex,0.35648151,-0.017592621,1,0,0,2.3771,optionRight,5,140,1,2,0,2,0,1,,,,,,,,,,,,,,,,,,,,,,,,,,,,,,,,,,,,,,,
,,,,,,,,2023-08-16_08h15.15.841,HF_wild_card,2022.2.4,Win32,59.91611744,5a9f9e14b5e2110001c6f6f5,64d2fd46c836a06233681665,64dc75a3df1ea72463ade36f,,,,,,,decisionTrl,resources/DP.BMP,resources/DBN.BMP,Door2,-0.280555556,-0.049074088,1,0,0,1.662,optionLeft,40,180,1,3,0,3,0,1,,,,,,,,,,,,,,,,,,,,,,,,,,,,,,,,,,,,,,,
,,,,,,,,2023-08-16_08h15.15.841,HF_wild_card,2022.2.4,Win32,59.91611744,5a9f9e14b5e2110001c6f6f5,64d2fd46c836a06233681665,64dc75a3df1ea72463ade36f,,,,,,,sngl,resources/Empty.png,resources/DB.BMP,Door3,0.238888889,0.012962935,1,0,0,1.1619,optionRight,70,250,1,4,0,4,0,1,,,,,,,,,,,,,,,,,,,,,,,,,,,,,,,,,,,,,,,
,,,,,,,,2023-08-16_08h15.15.841,HF_wild_card,2022.2.4,Win32,59.91611744,5a9f9e14b5e2110001c6f6f5,64d2fd46c836a06233681665,64dc75a3df1ea72463ade36f,,,,,,,sngl,resources/DG.BMP,resources/Empty.png,WildCard_Ex,-0.283333333,-0.014814843,1,0,0,0.9055,optionLeft,5,255,1,5,0,5,0,1,,,,,,,,,,,,,,,,,,,,,,,,,,,,,,,,,,,,,,,
,,,,,,,,2023-08-16_08h15.15.841,HF_wild_card,2022.2.4,Win32,59.91611744,5a9f9e14b5e2110001c6f6f5,64d2fd46c836a06233681665,64dc75a3df1ea72463ade36f,,,,,,,decisionTrl,resources/DB.BMP,resources/DY.BMP,Door4,0.352777778,-0.008333333,1,0,0,1.5055,optionRight,80,335,1,6,0,6,0,1,,,,,,,,,,,,,,,,,,,,,,,,,,,,,,,,,,,,,,,
,,,,,,,,2023-08-16_08h15.15.841,HF_wild_card,2022.2.4,Win32,59.91611744,5a9f9e14b5e2110001c6f6f5,64d2fd46c836a06233681665,64dc75a3df1ea72463ade36f,,,,,,,decisionTrl,resources/DY.BMP,resources/DG.BMP,Door4,-0.445370356,-0.064814843,1,0,0,1.7847,optionLeft,60,395,1,7,0,7,0,1,,,,,,,,,,,,,,,,,,,,,,,,,,,,,,,,,,,,,,,
,,,,,,,,2023-08-16_08h15.15.841,HF_wild_card,2022.2.4,Win32,59.91611744,5a9f9e14b5e2110001c6f6f5,64d2fd46c836a06233681665,64dc75a3df1ea72463ade36f,,,,,,,decisionTrl,resources/DG.BMP,resources/DBN.BMP,WildCard_Ex,-0.439814801,0.001851824,1,0,0,2.834,optionLeft,5,400,1,8,0,8,0,1,,,,,,,,,,,,,,,,,,,,,,,,,,,,,,,,,,,,,,,
,,,,,,,,2023-08-16_08h15.15.841,HF_wild_card,2022.2.4,Win32,59.91611744,5a9f9e14b5e2110001c6f6f5,64d2fd46c836a06233681665,64dc75a3df1ea72463ade36f,,,,,,,decisionTrl,resources/DBN.BMP,resources/DG.BMP,Door1,-0.326851824,-0.000925954,1,0,0,1.0609,optionLeft,30,430,1,9,0,9,0,1,,,,,,,,,,,,,,,,,,,,,,,,,,,,,,,,,,,,,,,
,,,,,,,,2023-08-16_08h15.15.841,HF_wild_card,2022.2.4,Win32,59.91611744,5a9f9e14b5e2110001c6f6f5,64d2fd46c836a06233681665,64dc75a3df1ea72463ade36f,,,,,,,ctch,resources/DP.BMP,resources/DB.BMP,Door2,-0.225925912,-0.022222222,1,0,0,0.9277,optionLeft,20,450,1,10,0,10,0,1,,,,,,,,,,,,,,,,,,,,,,,,,,,,,,,,,,,,,,,
,,,,,,,,2023-08-16_08h15.15.841,HF_wild_card,2022.2.4,Win32,59.91611744,5a9f9e14b5e2110001c6f6f5,64d2fd46c836a06233681665,64dc75a3df1ea72463ade36f,,,,,,,decisionTrl,resources/DG.BMP,resources/DY.BMP,Door4,0.225,0.014814801,1,0,0,0.9683,optionRight,60,510,1,11,0,11,0,1,,,,,,,,,,,,,,,,,,,,,,,,,,,,,,,,,,,,,,,
,,,,,,,,2023-08-16_08h15.15.841,HF_wild_card,2022.2.4,Win32,59.91611744,5a9f9e14b5e2110001c6f6f5,64d2fd46c836a06233681665,64dc75a3df1ea72463ade36f,,,,,,,ctch,resources/DB.BMP,resources/DP.BMP,Door3,-0.362962935,-0.053703732,1,0,0,1.1776,optionLeft,70,580,1,12,0,12,0,1,,,,,,,,,,,,,,,,,,,,,,,,,,,,,,,,,,,,,,,
,,,,,,,,2023-08-16_08h15.15.841,HF_wild_card,2022.2.4,Win32,59.91611744,5a9f9e14b5e2110001c6f6f5,64d2fd46c836a06233681665,64dc75a3df1ea72463ade36f,,,,,,,sngl,resources/DP.BMP,resources/Empty.png,Door2,-0.282407379,-0.080555556,1,0,0,1.0582,optionLeft,40,620,1,13,0,13,0,1,,,,,,,,,,,,,,,,,,,,,,,,,,,,,,,,,,,,,,,
,,,,,,,,2023-08-16_08h15.15.841,HF_wild_card,2022.2.4,Win32,59.91611744,5a9f9e14b5e2110001c6f6f5,64d2fd46c836a06233681665,64dc75a3df1ea72463ade36f,,,,,,,decisionTrl,resources/DY.BMP,resources/DB.BMP,Door4,-0.302777778,0.015740712,1,0,0,2.16,optionLeft,60,680,1,14,0,14,0,1,,,,,,,,,,,,,,,,,,,,,,,,,,,,,,,,,,,,,,,
,,,,,,,,2023-08-16_08h15.15.841,HF_wild_card,2022.2.4,Win32,59.91611744,5a9f9e14b5e2110001c6f6f5,64d2fd46c836a06233681665,64dc75a3df1ea72463ade36f,,,,,,,decisionTrl,resources/DBN.BMP,resources/DP.BMP,Door1,-0.396296268,0.075,1,0,0,4.489,optionLeft,30,710,1,15,0,15,0,1,,,,,,,,,,,,,,,,,,,,,,,,,,,,,,,,,,,,,,,
,,,,,,,,2023-08-16_08h15.15.841,HF_wild_card,2022.2.4,Win32,59.91611744,5a9f9e14b5e2110001c6f6f5,64d2fd46c836a06233681665,64dc75a3df1ea72463ade36f,,,,,,,ctch,resources/DBN.BMP,resources/DY.BMP,Door4,0.394444444,-0.012037065,1,0,0,1.8021,optionRight,80,790,1,16,0,16,0,1,,,,,,,,,,,,,,,,,,,,,,,,,,,,,,,,,,,,,,,
,,,,,,,,2023-08-16_08h15.15.841,HF_wild_card,2022.2.4,Win32,59.91611744,5a9f9e14b5e2110001c6f6f5,64d2fd46c836a06233681665,64dc75a3df1ea72463ade36f,,,,,,,sngl,resources/DB.BMP,resources/Empty.png,Door3,-0.413888889,-0.045370399,1,0,0,0.6778,optionLeft,70,860,1,17,0,17,0,1,,,,,,,,,,,,,,,,,,,,,,,,,,,,,,,,,,,,,,,
,,,,,,,,2023-08-16_08h15.15.841,HF_wild_card,2022.2.4,Win32,59.91611744,5a9f9e14b5e2110001c6f6f5,64d2fd46c836a06233681665,64dc75a3df1ea72463ade36f,,,,,,,decisionTrl,resources/DB.BMP,resources/DY.BMP,Door4,0.441666667,-0.067592621,1,0,0,0.9115,optionRight,60,920,1,18,0,18,0,1,,,,,,,,,,,,,,,,,,,,,,,,,,,,,,,,,,,,,,,
,,,,,,,,2023-08-16_08h15.15.841,HF_wild_card,2022.2.4,Win32,59.91611744,5a9f9e14b5e2110001c6f6f5,64d2fd46c836a06233681665,64dc75a3df1ea72463ade36f,,,,,,,decisionTrl,resources/DBN.BMP,resources/DP.BMP,Door2,0.343518575,-0.050925954,1,0,0,1.0609,optionRight,40,960,1,19,0,19,0,1,,,,,,,,,,,,,,,,,,,,,,,,,,,,,,,,,,,,,,,
,,,,,,,,2023-08-16_08h15.15.841,HF_wild_card,2022.2.4,Win32,59.91611744,5a9f9e14b5e2110001c6f6f5,64d2fd46c836a06233681665,64dc75a3df1ea72463ade36f,,,,,,,decisionTrl,resources/DG.BMP,resources/DP.BMP,Door2,0.404629686,0.005555556,1,0,0,2.3791,optionRight,40,1000,1,20,0,20,0,1,,,,,,,,,,,,,,,,,,,,,,,,,,,,,,,,,,,,,,,
,,,,,,,,2023-08-16_08h15.15.841,HF_wild_card,2022.2.4,Win32,59.91611744,5a9f9e14b5e2110001c6f6f5,64d2fd46c836a06233681665,64dc75a3df1ea72463ade36f,,,,,,,sngl,resources/Empty.png,resources/DY.BMP,Door4,0.416666667,-0.044444444,1,0,0,0.8113,optionRight,60,1060,1,21,0,21,0,1,,,,,,,,,,,,,,,,,,,,,,,,,,,,,,,,,,,,,,,
,,,,,,,,2023-08-16_08h15.15.841,HF_wild_card,2022.2.4,Win32,59.91611744,5a9f9e14b5e2110001c6f6f5,64d2fd46c836a06233681665,64dc75a3df1ea72463ade36f,,,,,,,sngl,resources/Empty.png,resources/DP.BMP,Door2,0.276851908,-0.029629644,1,0,0,0.7282,optionRight,20,1080,1,22,0,22,0,1,,,,,,,,,,,,,,,,,,,,,,,,,,,,,,,,,,,,,,,
,,,,,,,,2023-08-16_08h15.15.841,HF_wild_card,2022.2.4,Win32,59.91611744,5a9f9e14b5e2110001c6f6f5,64d2fd46c836a06233681665,64dc75a3df1ea72463ade36f,,,,,,,ctch,resources/DBN.BMP,resources/DY.BMP,Door4,0.463888889,-0.028703732,1,0,0,0.9948,optionRight,80,1160,1,23,0,23,0,1,,,,,,,,,,,,,,,,,,,,,,,,,,,,,,,,,,,,,,,
,,,,,,,,2023-08-16_08h15.15.841,HF_wild_card,2022.2.4,Win32,59.91611744,5a9f9e14b5e2110001c6f6f5,64d2fd46c836a06233681665,64dc75a3df1ea72463ade36f,,,,,,,decisionTrl,resources/DB.BMP,resources/DG.BMP,Door3,-0.292592578,0.037037023,1,0,0,1.1611,optionLeft,70,1230,1,24,0,24,0,1,,,,,,,,,,,,,,,,,,,,,,,,,,,,,,,,,,,,,,,
,,,,,,,,2023-08-16_08h15.15.841,HF_wild_card,2022.2.4,Win32,59.91611744,5a9f9e14b5e2110001c6f6f5,64d2fd46c836a06233681665,64dc75a3df1ea72463ade36f,,,,,,,decisionTrl,resources/DP.BMP,resources/DBN.BMP,Door2,-0.495370356,-0.036111111,1,0,0,0.7392,optionLeft,20,1250,1,25,0,25,0,1,,,,,,,,,,,,,,,,,,,,,,,,,,,,,,,,,,,,,,,
,,,,,,,,2023-08-16_08h15.15.841,HF_wild_card,2022.2.4,Win32,59.91611744,5a9f9e14b5e2110001c6f6f5,64d2fd46c836a06233681665,64dc75a3df1ea72463ade36f,,,,,,,decisionTrl,resources/DP.BMP,resources/DBN.BMP,Door2,-0.256481467,-0.019444444,1,0,0,0.9118,optionLeft,40,1290,1,26,0,26,0,1,,,,,,,,,,,,,,,,,,,,,,,,,,,,,,,,,,,,,,,
,,,,,,,,2023-08-16_08h15.15.841,HF_wild_card,2022.2.4,Win32,59.91611744,5a9f9e14b5e2110001c6f6f5,64d2fd46c836a06233681665,64dc75a3df1ea72463ade36f,,,,,,,decisionTrl,resources/DY.BMP,resources/DB.BMP,Door4,-0.237037023,0.029629601,1,0,0,1.111,optionLeft,80,1370,1,27,0,27,0,1,,,,,,,,,,,,,,,,,,,,,,,,,,,,,,,,,,,,,,,
,,,,,,,,2023-08-16_08h15.15.841,HF_wild_card,2022.2.4,Win32,59.91611744,5a9f9e14b5e2110001c6f6f5,64d2fd46c836a06233681665,64dc75a3df1ea72463ade36f,,,,,,,ctch,resources/DY.BMP,resources/DBN.BMP,Door4,-0.217592578,-0.003703732,1,0,0,0.7276,optionLeft,60,1430,1,28,0,28,0,1,,,,,,,,,,,,,,,,,,,,,,,,,,,,,,,,,,,,,,,
,,,,,,,,2023-08-16_08h15.15.841,HF_wild_card,2022.2.4,Win32,59.91611744,5a9f9e14b5e2110001c6f6f5,64d2fd46c836a06233681665,64dc75a3df1ea72463ade36f,,,,,,,sngl,resources/Empty.png,resources/DG.BMP,WildCard_Ex,0.345370399,-0.043518533,1,0,0,0.7277,optionRight,5,1435,1,29,0,29,0,1,,,,,,,,,,,,,,,,,,,,,,,,,,,,,,,,,,,,,,,
,,,,,,,,2023-08-16_08h15.15.841,HF_wild_card,2022.2.4,Win32,59.91611744,5a9f9e14b5e2110001c6f6f5,64d2fd46c836a06233681665,64dc75a3df1ea72463ade36f,,,,,,,ctch,resources/DB.BMP,resources/DP.BMP,Door2,0.295370399,-0.044444444,1,0,0,1.4117,optionRight,40,1475,1,30,0,30,0,1,,,,,,,,,,,,,,,,,,,,,,,,,,,,,,,,,,,,,,,
,,,,,,,,2023-08-16_08h15.15.841,HF_wild_card,2022.2.4,Win32,59.91611744,5a9f9e14b5e2110001c6f6f5,64d2fd46c836a06233681665,64dc75a3df1ea72463ade36f,,,,,,,sngl,resources/DY.BMP,resources/Empty.png,Door4,-0.325,0.004629601,1,0,0,0.7116,optionLeft,80,1555,1,31,0,31,0,1,,,,,,,,,,,,,,,,,,,,,,,,,,,,,,,,,,,,,,,
,,,,,,,,2023-08-16_08h15.15.841,HF_wild_card,2022.2.4,Win32,59.91611744,5a9f9e14b5e2110001c6f6f5,64d2fd46c836a06233681665,64dc75a3df1ea72463ade36f,,,,,,,sngl,resources/Empty.png,resources/DBN.BMP,Door1,0.312037065,-0.010185199,1,0,0,1.73,optionRight,30,1585,1,32,0,32,0,1,,,,,,,,,,,,,,,,,,,,,,,,,,,,,,,,,,,,,,,
,,,,,,,,2023-08-16_08h15.15.841,HF_wild_card,2022.2.4,Win32,59.91611744,5a9f9e14b5e2110001c6f6f5,64d2fd46c836a06233681665,64dc75a3df1ea72463ade36f,,,,,,,sngl,resources/Empty.png,resources/DG.BMP,WildCard_Ex,0.418518575,-0.073148176,1,0,0,0.69,optionRight,95,1680,1,33,0,33,0,1,,,,,,,,,,,,,,,,,,,,,,,,,,,,,,,,,,,,,,,
,,,,,,,,2023-08-16_08h15.15.841,HF_wild_card,2022.2.4,Win32,59.91611744,5a9f9e14b5e2110001c6f6f5,64d2fd46c836a06233681665,64dc75a3df1ea72463ade36f,,,,,,,decisionTrl,resources/DB.BMP,resources/DY.BMP,Door3,-0.270370356,0.005555556,1,0,0,0.745,optionLeft,70,1750,1,34,0,34,0,1,,,,,,,,,,,,,,,,,,,,,,,,,,,,,,,,,,,,,,,
,,,,,,,,2023-08-16_08h15.15.841,HF_wild_card,2022.2.4,Win32,59.91611744,5a9f9e14b5e2110001c6f6f5,64d2fd46c836a06233681665,64dc75a3df1ea72463ade36f,,,,,,,decisionTrl,resources/DBN.BMP,resources/DP.BMP,Door2,0.420370399,-0.028703732,1,0,0,0.8117,optionRight,20,1770,1,35,0,35,0,1,,,,,,,,,,,,,,,,,,,,,,,,,,,,,,,,,,,,,,,
,,,,,,,,2023-08-16_08h15.15.841,HF_wild_card,2022.2.4,Win32,59.91611744,5a9f9e14b5e2110001c6f6f5,64d2fd46c836a06233681665,64dc75a3df1ea72463ade36f,,,,,,,decisionTrl,resources/DBN.BMP,resources/DP.BMP,Door1,-0.271296268,0.017592578,1,0,0,0.8953,optionLeft,30,1800,1,36,0,36,0,1,,,,,,,,,,,,,,,,,,,,,,,,,,,,,,,,,,,,,,,
,,,,,,,,2023-08-16_08h15.15.841,HF_wild_card,2022.2.4,Win32,59.91611744,5a9f9e14b5e2110001c6f6f5,64d2fd46c836a06233681665,64dc75a3df1ea72463ade36f,,,,,,,decisionTrl,resources/DP.BMP,resources/DBN.BMP,Door1,0.247222222,0.034259245,1,0,0,1.3796,optionRight,30,1830,1,37,0,37,0,1,,,,,,,,,,,,,,,,,,,,,,,,,,,,,,,,,,,,,,,
,,,,,,,,2023-08-16_08h15.15.841,HF_wild_card,2022.2.4,Win32,59.91611744,5a9f9e14b5e2110001c6f6f5,64d2fd46c836a06233681665,64dc75a3df1ea72463ade36f,,,,,,,decisionTrl,resources/DY.BMP,resources/DB.BMP,Door4,-0.416666667,-0.002777778,1,0,0,0.6744,optionLeft,60,1890,1,38,0,38,0,1,,,,,,,,,,,,,,,,,,,,,,,,,,,,,,,,,,,,,,,
,,,,,,,,2023-08-16_08h15.15.841,HF_wild_card,2022.2.4,Win32,59.91611744,5a9f9e14b5e2110001c6f6f5,64d2fd46c836a06233681665,64dc75a3df1ea72463ade36f,,,,,,,ctch,resources/DY.BMP,resources/DBN.BMP,Door4,-0.212962935,0.022222222,1,0,0,0.7118,optionLeft,80,1970,1,39,0,39,0,1,,,,,,,,,,,,,,,,,,,,,,,,,,,,,,,,,,,,,,,
,,,,,,,,2023-08-16_08h15.15.841,HF_wild_card,2022.2.4,Win32,59.91611744,5a9f9e14b5e2110001c6f6f5,64d2fd46c836a06233681665,64dc75a3df1ea72463ade36f,,,,,,,decisionTrl,resources/DY.BMP,resources/DB.BMP,Door4,-0.329629601,-0.030555556,1,0,0,0.6784,optionLeft,80,2050,1,40,0,40,0,1,,,,,,,,,,,,,,,,,,,,,,,,,,,,,,,,,,,,,,,
,,,,,,,,2023-08-16_08h15.15.841,HF_wild_card,2022.2.4,Win32,59.91611744,5a9f9e14b5e2110001c6f6f5,64d2fd46c836a06233681665,64dc75a3df1ea72463ade36f,,,,,,,sngl,resources/DBN.BMP,resources/Empty.png,Door1,-0.287037023,0.014814801,1,0,0,2.5478,optionLeft,30,2080,1,41,0,41,0,1,,,,,,,,,,,,,,,,,,,,,,,,,,,,,,,,,,,,,,,
,,,,,,,,2023-08-16_08h15.15.841,HF_wild_card,2022.2.4,Win32,59.91611744,5a9f9e14b5e2110001c6f6f5,64d2fd46c836a06233681665,64dc75a3df1ea72463ade36f,,,,,,,decisionTrl,resources/DB.BMP,resources/DY.BMP,Door4,0.56203715,-0.061111111,1,0,0,1.2482,optionRight,80,2160,1,42,0,42,0,1,,,,,,,,,,,,,,,,,,,,,,,,,,,,,,,,,,,,,,,
,,,,,,,,2023-08-16_08h15.15.841,HF_wild_card,2022.2.4,Win32,59.91611744,5a9f9e14b5e2110001c6f6f5,64d2fd46c836a06233681665,64dc75a3df1ea72463ade36f,,,,,,,decisionTrl,resources/DG.BMP,resources/DB.BMP,WildCard_Ex,-0.30370369,-0.000925954,1,0,0,0.6948,optionLeft,5,2165,1,43,0,43,0,1,,,,,,,,,,,,,,,,,,,,,,,,,,,,,,,,,,,,,,,
,,,,,,,,2023-08-16_08h15.15.841,HF_wild_card,2022.2.4,Win32,59.91611744,5a9f9e14b5e2110001c6f6f5,64d2fd46c836a06233681665,64dc75a3df1ea72463ade36f,,,,,,,,,,,,,,,,,,,,,,,,,,0,0,0,0,1,,,,,,,,,,,,,,,,,,,,,,,,,,,,,,,,,,
,,,,,,,,2023-08-16_08h15.15.841,HF_wild_card,2022.2.4,Win32,59.91611744,5a9f9e14b5e2110001c6f6f5,64d2fd46c836a06233681665,64dc75a3df1ea72463ade36f,,,,,,,ctch,resources/DY.BMP,resources/DBN.BMP,Door4,-0.476851824,0.023148134,1,0,0,2.0435,optionLeft,60,2225,2,0,0,0,0,1,,,,,,,,,,,,,,,,,,,,,,,,,,,,,,,,,,,,,,,
,,,,,,,,2023-08-16_08h15.15.841,HF_wild_card,2022.2.4,Win32,59.91611744,5a9f9e14b5e2110001c6f6f5,64d2fd46c836a06233681665,64dc75a3df1ea72463ade36f,,,,,,,ctch,resources/DB.BMP,resources/DP.BMP,Door3,-0.283333333,-0.072222222,1,0,0,0.9113,optionLeft,70,2295,2,1,0,1,0,1,,,,,,,,,,,,,,,,,,,,,,,,,,,,,,,,,,,,,,,
,,,,,,,,2023-08-16_08h15.15.841,HF_wild_card,2022.2.4,Win32,59.91611744,5a9f9e14b5e2110001c6f6f5,64d2fd46c836a06233681665,64dc75a3df1ea72463ade36f,,,,,,,decisionTrl,resources/DG.BMP,resources/DB.BMP,Door3,0.45,-0.002777778,1,0,0,1.0783,optionRight,70,2365,2,2,0,2,0,1,,,,,,,,,,,,,,,,,,,,,,,,,,,,,,,,,,,,,,,
,,,,,,,,2023-08-16_08h15.15.841,HF_wild_card,2022.2.4,Win32,59.91611744,5a9f9e14b5e2110001c6f6f5,64d2fd46c836a06233681665,64dc75a3df1ea72463ade36f,,,,,,,ctch,resources/DBN.BMP,resources/DY.BMP,Door4,0.291666667,-0.016666667,1,0,0,0.7757,optionRight,80,2445,2,3,0,3,0,1,,,,,,,,,,,,,,,,,,,,,,,,,,,,,,,,,,,,,,,
,,,,,,,,2023-08-16_08h15.15.841,HF_wild_card,2022.2.4,Win32,59.91611744,5a9f9e14b5e2110001c6f6f5,64d2fd46c836a06233681665,64dc75a3df1ea72463ade36f,,,,,,,decisionTrl,resources/DBN.BMP,resources/DG.BMP,WildCard_Ex,0.466666667,0,1,0,0,0.764,optionRight,95,2540,2,4,0,4,0,1,,,,,,,,,,,,,,,,,,,,,,,,,,,,,,,,,,,,,,,
,,,,,,,,2023-08-16_08h15.15.841,HF_wild_card,2022.2.4,Win32,59.91611744,5a9f9e14b5e2110001c6f6f5,64d2fd46c836a06233681665,64dc75a3df1ea72463ade36f,,,,,,,decisionTrl,resources/DY.BMP,resources/DG.BMP,Door4,-0.344444444,-0.047222222,1,0,0,0.7791,optionLeft,60,2600,2,5,0,5,0,1,,,,,,,,,,,,,,,,,,,,,,,,,,,,,,,,,,,,,,,
,,,,,,,,2023-08-16_08h15.15.841,HF_wild_card,2022.2.4,Win32,59.91611744,5a9f9e14b5e2110001c6f6f5,64d2fd46c836a06233681665,64dc75a3df1ea72463ade36f,,,,,,,ctch,resources/DBN.BMP,resources/DY.BMP,Door4,0.25648151,-0.033333333,1,0,0,0.7285,optionRight,80,2680,2,6,0,6,0,1,,,,,,,,,,,,,,,,,,,,,,,,,,,,,,,,,,,,,,,
,,,,,,,,2023-08-16_08h15.15.841,HF_wild_card,2022.2.4,Win32,59.91611744,5a9f9e14b5e2110001c6f6f5,64d2fd46c836a06233681665,64dc75a3df1ea72463ade36f,,,,,,,sngl,resources/Empty.png,resources/DY.BMP,Door4,0.351851908,-0.014814843,1,0,0,1.2123,optionRight,80,2760,2,7,0,7,0,1,,,,,,,,,,,,,,,,,,,,,,,,,,,,,,,,,,,,,,,
,,,,,,,,2023-08-16_08h15.15.841,HF_wild_card,2022.2.4,Win32,59.91611744,5a9f9e14b5e2110001c6f6f5,64d2fd46c836a06233681665,64dc75a3df1ea72463ade36f,,,,,,,decisionTrl,resources/DBN.BMP,resources/DP.BMP,Door2,0.380555556,-0.017592621,1,0,0,1.5114,optionRight,40,2800,2,8,0,8,0,1,,,,,,,,,,,,,,,,,,,,,,,,,,,,,,,,,,,,,,,
,,,,,,,,2023-08-16_08h15.15.841,HF_wild_card,2022.2.4,Win32,59.91611744,5a9f9e14b5e2110001c6f6f5,64d2fd46c836a06233681665,64dc75a3df1ea72463ade36f,,,,,,,decisionTrl,resources/DBN.BMP,resources/DP.BMP,Door1,-0.327777778,-0.007407422,1,0,0,0.7283,optionLeft,30,2830,2,9,0,9,0,1,,,,,,,,,,,,,,,,,,,,,,,,,,,,,,,,,,,,,,,
,,,,,,,,2023-08-16_08h15.15.841,HF_wild_card,2022.2.4,Win32,59.91611744,5a9f9e14b5e2110001c6f6f5,64d2fd46c836a06233681665,64dc75a3df1ea72463ade36f,,,,,,,decisionTrl,resources/DY.BMP,resources/DB.BMP,Door4,-0.302777778,-0.045370399,1,0,0,1.311,optionLeft,80,2910,2,10,0,10,0,1,,,,,,,,,,,,,,,,,,,,,,,,,,,,,,,,,,,,,,,
,,,,,,,,2023-08-16_08h15.15.841,HF_wild_card,2022.2.4,Win32,59.91611744,5a9f9e14b5e2110001c6f6f5,64d2fd46c836a06233681665,64dc75a3df1ea72463ade36f,,,,,,,decisionTrl,resources/DY.BMP,resources/DB.BMP,Door4,-0.323148134,-0.024074088,1,0,0,0.7959,optionLeft,80,2990,2,11,0,11,0,1,,,,,,,,,,,,,,,,,,,,,,,,,,,,,,,,,,,,,,,
,,,,,,,,2023-08-16_08h15.15.841,HF_wild_card,2022.2.4,Win32,59.91611744,5a9f9e14b5e2110001c6f6f5,64d2fd46c836a06233681665,64dc75a3df1ea72463ade36f,,,,,,,decisionTrl,resources/DG.BMP,resources/DBN.BMP,WildCard_Ex,-0.230555556,-0.012962977,1,0,0,0.7778,optionLeft,95,3085,2,12,0,12,0,1,,,,,,,,,,,,,,,,,,,,,,,,,,,,,,,,,,,,,,,
,,,,,,,,2023-08-16_08h15.15.841,HF_wild_card,2022.2.4,Win32,59.91611744,5a9f9e14b5e2110001c6f6f5,64d2fd46c836a06233681665,64dc75a3df1ea72463ade36f,,,,,,,sngl,resources/DBN.BMP,resources/Empty.png,Door1,-0.470370356,-0.023148176,1,0,0,1.1953,optionLeft,30,3115,2,13,0,13,0,1,,,,,,,,,,,,,,,,,,,,,,,,,,,,,,,,,,,,,,,
,,,,,,,,2023-08-16_08h15.15.841,HF_wild_card,2022.2.4,Win32,59.91611744,5a9f9e14b5e2110001c6f6f5,64d2fd46c836a06233681665,64dc75a3df1ea72463ade36f,,,,,,,sngl,resources/DY.BMP,resources/Empty.png,Door4,-0.204629601,0,1,0,0,0.6606,optionLeft,60,3175,2,14,0,14,0,1,,,,,,,,,,,,,,,,,,,,,,,,,,,,,,,,,,,,,,,
,,,,,,,,2023-08-16_08h15.15.841,HF_wild_card,2022.2.4,Win32,59.91611744,5a9f9e14b5e2110001c6f6f5,64d2fd46c836a06233681665,64dc75a3df1ea72463ade36f,,,,,,,decisionTrl,resources/DP.BMP,resources/DBN.BMP,Door2,-0.283333333,-0.04629631,1,0,0,1.3228,optionLeft,20,3195,2,15,0,15,0,1,,,,,,,,,,,,,,,,,,,,,,,,,,,,,,,,,,,,,,,
,,,,,,,,2023-08-16_08h15.15.841,HF_wild_card,2022.2.4,Win32,59.91611744,5a9f9e14b5e2110001c6f6f5,64d2fd46c836a06233681665,64dc75a3df1ea72463ade36f,,,,,,,sngl,resources/DB.BMP,resources/Empty.png,Door3,-0.512962935,-0.037962977,1,0,0,0.7273,optionLeft,70,3265,2,16,0,16,0,1,,,,,,,,,,,,,,,,,,,,,,,,,,,,,,,,,,,,,,,
,,,,,,,,2023-08-16_08h15.15.841,HF_wild_card,2022.2.4,Win32,59.91611744,5a9f9e14b5e2110001c6f6f5,64d2fd46c836a06233681665,64dc75a3df1ea72463ade36f,,,,,,,sngl,resources/DG.BMP,resources/Empty.png,WildCard_Ex,-0.246296268,-0.024074088,1,0,0,0.6588,optionLeft,95,3360,2,17,0,17,0,1,,,,,,,,,,,,,,,,,,,,,,,,,,,,,,,,,,,,,,,
,,,,,,,,2023-08-16_08h15.15.841,HF_wild_card,2022.2.4,Win32,59.91611744,5a9f9e14b5e2110001c6f6f5,64d2fd46c836a06233681665,64dc75a3df1ea72463ade36f,,,,,,,sngl,resources/DG.BMP,resources/Empty.png,WildCard_Ex,-0.536111111,-0.058333333,1,0,0,0.6457,optionLeft,5,3365,2,18,0,18,0,1,,,,,,,,,,,,,,,,,,,,,,,,,,,,,,,,,,,,,,,
,,,,,,,,2023-08-16_08h15.15.841,HF_wild_card,2022.2.4,Win32,59.91611744,5a9f9e14b5e2110001c6f6f5,64d2fd46c836a06233681665,64dc75a3df1ea72463ade36f,,,,,,,sngl,resources/DP.BMP,resources/Empty.png,Door2,-0.197222222,-0.039814843,1,0,0,0.6615,optionLeft,20,3385,2,19,0,19,0,1,,,,,,,,,,,,,,,,,,,,,,,,,,,,,,,,,,,,,,,
,,,,,,,,2023-08-16_08h15.15.841,HF_wild_card,2022.2.4,Win32,59.91611744,5a9f9e14b5e2110001c6f6f5,64d2fd46c836a06233681665,64dc75a3df1ea72463ade36f,,,,,,,decisionTrl,resources/DY.BMP,resources/DB.BMP,Door4,-0.300925912,-0.037962977,1,0,0,1.045,optionLeft,80,3465,2,20,0,20,0,1,,,,,,,,,,,,,,,,,,,,,,,,,,,,,,,,,,,,,,,
,,,,,,,,2023-08-16_08h15.15.841,HF_wild_card,2022.2.4,Win32,59.91611744,5a9f9e14b5e2110001c6f6f5,64d2fd46c836a06233681665,64dc75a3df1ea72463ade36f,,,,,,,decisionTrl,resources/DP.BMP,resources/DBN.BMP,Door2,-0.224074046,-0.07129631,1,0,0,0.8279,optionLeft,40,3505,2,21,0,21,0,1,,,,,,,,,,,,,,,,,,,,,,,,,,,,,,,,,,,,,,,
,,,,,,,,2023-08-16_08h15.15.841,HF_wild_card,2022.2.4,Win32,59.91611744,5a9f9e14b5e2110001c6f6f5,64d2fd46c836a06233681665,64dc75a3df1ea72463ade36f,,,,,,,ctch,resources/DB.BMP,resources/DP.BMP,Door3,-0.340740712,-0.087962977,1,0,0,1.3282,optionLeft,70,3575,2,22,0,22,0,1,,,,,,,,,,,,,,,,,,,,,,,,,,,,,,,,,,,,,,,
,,,,,,,,2023-08-16_08h15.15.841,HF_wild_card,2022.2.4,Win32,59.91611744,5a9f9e14b5e2110001c6f6f5,64d2fd46c836a06233681665,64dc75a3df1ea72463ade36f,,,,,,,decisionTrl,resources/DB.BMP,resources/DY.BMP,Door4,0.453703732,-0.090740755,1,0,0,0.6451,optionRight,80,3655,2,23,0,23,0,1,,,,,,,,,,,,,,,,,,,,,,,,,,,,,,,,,,,,,,,
,,,,,,,,2023-08-16_08h15.15.841,HF_wild_card,2022.2.4,Win32,59.91611744,5a9f9e14b5e2110001c6f6f5,64d2fd46c836a06233681665,64dc75a3df1ea72463ade36f,,,,,,,sngl,resources/Empty.png,resources/DP.BMP,Door2,0.430555556,-0.027777778,1,0,0,0.6954,optionRight,40,3695,2,24,0,24,0,1,,,,,,,,,,,,,,,,,,,,,,,,,,,,,,,,,,,,,,,
,,,,,,,,2023-08-16_08h15.15.841,HF_wild_card,2022.2.4,Win32,59.91611744,5a9f9e14b5e2110001c6f6f5,64d2fd46c836a06233681665,64dc75a3df1ea72463ade36f,,,,,,,decisionTrl,resources/DB.BMP,resources/DY.BMP,Door4,0.285185242,-0.035185199,1,0,0,1.0781,optionRight,80,3775,2,25,0,25,0,1,,,,,,,,,,,,,,,,,,,,,,,,,,,,,,,,,,,,,,,
,,,,,,,,2023-08-16_08h15.15.841,HF_wild_card,2022.2.4,Win32,59.91611744,5a9f9e14b5e2110001c6f6f5,64d2fd46c836a06233681665,64dc75a3df1ea72463ade36f,,,,,,,sngl,resources/Empty.png,resources/DBN.BMP,Door1,0.326851908,-0.015740755,1,0,0,0.6949,optionRight,30,3805,2,26,0,26,0,1,,,,,,,,,,,,,,,,,,,,,,,,,,,,,,,,,,,,,,,
,,,,,,,,2023-08-16_08h15.15.841,HF_wild_card,2022.2.4,Win32,59.91611744,5a9f9e14b5e2110001c6f6f5,64d2fd46c836a06233681665,64dc75a3df1ea72463ade36f,,,,,,,decisionTrl,resources/DP.BMP,resources/DBN.BMP,Door2,-0.445370356,-0.067592621,1,0,0,1.3781,optionLeft,20,3825,2,27,0,27,0,1,,,,,,,,,,,,,,,,,,,,,,,,,,,,,,,,,,,,,,,
,,,,,,,,2023-08-16_08h15.15.841,HF_wild_card,2022.2.4,Win32,59.91611744,5a9f9e14b5e2110001c6f6f5,64d2fd46c836a06233681665,64dc75a3df1ea72463ade36f,,,,,,,decisionTrl,resources/DB.BMP,resources/DG.BMP,Door3,-0.337037023,-0.025925954,1,0,0,1.6443,optionLeft,70,3895,2,28,0,28,0,1,,,,,,,,,,,,,,,,,,,,,,,,,,,,,,,,,,,,,,,
,,,,,,,,2023-08-16_08h15.15.841,HF_wild_card,2022.2.4,Win32,59.91611744,5a9f9e14b5e2110001c6f6f5,64d2fd46c836a06233681665,64dc75a3df1ea72463ade36f,,,,,,,decisionTrl,resources/DB.BMP,resources/DY.BMP,Door4,0.498148176,0.000925912,1,0,0,1.2943,optionRight,80,3975,2,29,0,29,0,1,,,,,,,,,,,,,,,,,,,,,,,,,,,,,,,,,,,,,,,
,,,,,,,,2023-08-16_08h15.15.841,HF_wild_card,2022.2.4,Win32,59.91611744,5a9f9e14b5e2110001c6f6f5,64d2fd46c836a06233681665,64dc75a3df1ea72463ade36f,,,,,,,decisionTrl,resources/DG.BMP,resources/DP.BMP,WildCard_Ex,-0.357407379,-0.007407422,1,0,0,1.8947,optionLeft,5,3980,2,30,0,30,0,1,,,,,,,,,,,,,,,,,,,,,,,,,,,,,,,,,,,,,,,
,,,,,,,,2023-08-16_08h15.15.841,HF_wild_card,2022.2.4,Win32,59.91611744,5a9f9e14b5e2110001c6f6f5,64d2fd46c836a06233681665,64dc75a3df1ea72463ade36f,,,,,,,sngl,resources/Empty.png,resources/DB.BMP,Door3,0.330555556,-0.030555556,1,0,0,0.7118,optionRight,70,4050,2,31,0,31,0,1,,,,,,,,,,,,,,,,,,,,,,,,,,,,,,,,,,,,,,,
,,,,,,,,2023-08-16_08h15.15.841,HF_wild_card,2022.2.4,Win32,59.91611744,5a9f9e14b5e2110001c6f6f5,64d2fd46c836a06233681665,64dc75a3df1ea72463ade36f,,,,,,,ctch,resources/DP.BMP,resources/DB.BMP,Door2,-0.4,-0.083333333,1,0,0,0.8284,optionLeft,40,4090,2,32,0,32,0,1,,,,,,,,,,,,,,,,,,,,,,,,,,,,,,,,,,,,,,,
,,,,,,,,2023-08-16_08h15.15.841,HF_wild_card,2022.2.4,Win32,59.91611744,5a9f9e14b5e2110001c6f6f5,64d2fd46c836a06233681665,64dc75a3df1ea72463ade36f,,,,,,,decisionTrl,resources/DBN.BMP,resources/DP.BMP,Door1,-0.345370356,-0.018518533,1,0,0,1.2785,optionLeft,30,4120,2,33,0,33,0,1,,,,,,,,,,,,,,,,,,,,,,,,,,,,,,,,,,,,,,,
,,,,,,,,2023-08-16_08h15.15.841,HF_wild_card,2022.2.4,Win32,59.91611744,5a9f9e14b5e2110001c6f6f5,64d2fd46c836a06233681665,64dc75a3df1ea72463ade36f,,,,,,,ctch,resources/DY.BMP,resources/DBN.BMP,Door4,-0.419444444,-0.018518533,1,0,0,0.7779,optionLeft,60,4180,2,34,0,34,0,1,,,,,,,,,,,,,,,,,,,,,,,,,,,,,,,,,,,,,,,
,,,,,,,,2023-08-16_08h15.15.841,HF_wild_card,2022.2.4,Win32,59.91611744,5a9f9e14b5e2110001c6f6f5,64d2fd46c836a06233681665,64dc75a3df1ea72463ade36f,,,,,,,decisionTrl,resources/DY.BMP,resources/DB.BMP,Door4,-0.288888889,0.008333333,1,0,0,0.6447,optionLeft,60,4240,2,35,0,35,0,1,,,,,,,,,,,,,,,,,,,,,,,,,,,,,,,,,,,,,,,
,,,,,,,,2023-08-16_08h15.15.841,HF_wild_card,2022.2.4,Win32,59.91611744,5a9f9e14b5e2110001c6f6f5,64d2fd46c836a06233681665,64dc75a3df1ea72463ade36f,,,,,,,decisionTrl,resources/DP.BMP,resources/DBN.BMP,Door1,0.257407464,0.009259245,1,0,0,1.3783,optionRight,30,4270,2,36,0,36,0,1,,,,,,,,,,,,,,,,,,,,,,,,,,,,,,,,,,,,,,,
,,,,,,,,2023-08-16_08h15.15.841,HF_wild_card,2022.2.4,Win32,59.91611744,5a9f9e14b5e2110001c6f6f5,64d2fd46c836a06233681665,64dc75a3df1ea72463ade36f,,,,,,,decisionTrl,resources/DBN.BMP,resources/DP.BMP,Door1,-0.375925912,-0.009259288,1,0,0,0.7781,optionLeft,30,4300,2,37,0,37,0,1,,,,,,,,,,,,,,,,,,,,,,,,,,,,,,,,,,,,,,,
,,,,,,,,2023-08-16_08h15.15.841,HF_wild_card,2022.2.4,Win32,59.91611744,5a9f9e14b5e2110001c6f6f5,64d2fd46c836a06233681665,64dc75a3df1ea72463ade36f,,,,,,,decisionTrl,resources/DB.BMP,resources/DY.BMP,Door4,0.420370399,0.006481467,1,0,0,1.5277,optionRight,60,4360,2,38,0,38,0,1,,,,,,,,,,,,,,,,,,,,,,,,,,,,,,,,,,,,,,,
,,,,,,,,2023-08-16_08h15.15.841,HF_wild_card,2022.2.4,Win32,59.91611744,5a9f9e14b5e2110001c6f6f5,64d2fd46c836a06233681665,64dc75a3df1ea72463ade36f,,,,,,,decisionTrl,resources/DG.BMP,resources/DY.BMP,Door4,0.315740797,0.006481467,1,0,0,1.0612,optionRight,80,4440,2,39,0,39,0,1,,,,,,,,,,,,,,,,,,,,,,,,,,,,,,,,,,,,,,,
,,,,,,,,2023-08-16_08h15.15.841,HF_wild_card,2022.2.4,Win32,59.91611744,5a9f9e14b5e2110001c6f6f5,64d2fd46c836a06233681665,64dc75a3df1ea72463ade36f,,,,,,,sngl,resources/Empty.png,resources/DG.BMP,WildCard_Ex,0.461111111,0.015740712,1,0,0,1.1781,optionRight,5,4445,2,40,0,40,0,1,,,,,,,,,,,,,,,,,,,,,,,,,,,,,,,,,,,,,,,
,,,,,,,,2023-08-16_08h15.15.841,HF_wild_card,2022.2.4,Win32,59.91611744,5a9f9e14b5e2110001c6f6f5,64d2fd46c836a06233681665,64dc75a3df1ea72463ade36f,,,,,,,decisionTrl,resources/DP.BMP,resources/DG.BMP,WildCard_Ex,0.399074131,-0.087037065,1,0,0,1.5473,optionRight,95,4540,2,41,0,41,0,1,,,,,,,,,,,,,,,,,,,,,,,,,,,,,,,,,,,,,,,
,,,,,,,,2023-08-16_08h15.15.841,HF_wild_card,2022.2.4,Win32,59.91611744,5a9f9e14b5e2110001c6f6f5,64d2fd46c836a06233681665,64dc75a3df1ea72463ade36f,,,,,,,sngl,resources/Empty.png,resources/DG.BMP,WildCard_Ex,0.488888889,-0.033333333,1,0,0,0.689,optionRight,95,4635,2,42,0,42,0,1,,,,,,,,,,,,,,,,,,,,,,,,,,,,,,,,,,,,,,,
,,,,,,,,2023-08-16_08h15.15.841,HF_wild_card,2022.2.4,Win32,59.91611744,5a9f9e14b5e2110001c6f6f5,64d2fd46c836a06233681665,64dc75a3df1ea72463ade36f,,,,,,,ctch,resources/DP.BMP,resources/DB.BMP,Door3,0.520370399,0.037037023,1,0,0,1.1948,optionRight,70,4705,2,43,0,43,0,1,,,,,,,,,,,,,,,,,,,,,,,,,,,,,,,,,,,,,,,
,,,,,,,,2023-08-16_08h15.15.841,HF_wild_card,2022.2.4,Win32,59.91611744,5a9f9e14b5e2110001c6f6f5,64d2fd46c836a06233681665,64dc75a3df1ea72463ade36f,,,,,,,,,,,,,,,,,,,,,,,,,,1,0,1,0,1,,,,,,,,,,,,,,,,,,,,,,,,,,,,,,,,,,
,,,,,,,,2023-08-16_08h15.15.841,HF_wild_card,2022.2.4,Win32,59.91611744,5a9f9e14b5e2110001c6f6f5,64d2fd46c836a06233681665,64dc75a3df1ea72463ade36f,,,,,,,decisionTrl,resources/DB.BMP,resources/DY.BMP,Door4,0.536111111,0.023148134,1,0,0,1.0743,optionRight,80,4785,3,0,0,0,0,1,,,,,,,,,,,,,,,,,,,,,,,,,,,,,,,,,,,,,,,
,,,,,,,,2023-08-16_08h15.15.841,HF_wild_card,2022.2.4,Win32,59.91611744,5a9f9e14b5e2110001c6f6f5,64d2fd46c836a06233681665,64dc75a3df1ea72463ade36f,,,,,,,sngl,resources/DY.BMP,resources/Empty.png,Door4,-0.265740712,0.025,1,0,0,0.5281,optionLeft,80,4865,3,1,0,1,0,1,,,,,,,,,,,,,,,,,,,,,,,,,,,,,,,,,,,,,,,
,,,,,,,,2023-08-16_08h15.15.841,HF_wild_card,2022.2.4,Win32,59.91611744,5a9f9e14b5e2110001c6f6f5,64d2fd46c836a06233681665,64dc75a3df1ea72463ade36f,,,,,,,decisionTrl,resources/DP.BMP,resources/DBN.BMP,Door2,-0.477777778,-0.053703732,1,0,0,0.6116,optionLeft,40,4905,3,2,0,2,0,1,,,,,,,,,,,,,,,,,,,,,,,,,,,,,,,,,,,,,,,
,,,,,,,,2023-08-16_08h15.15.841,HF_wild_card,2022.2.4,Win32,59.91611744,5a9f9e14b5e2110001c6f6f5,64d2fd46c836a06233681665,64dc75a3df1ea72463ade36f,,,,,,,decisionTrl,resources/DBN.BMP,resources/DP.BMP,Door1,-0.337037023,0.114814801,1,0,0,1.4111,optionLeft,30,4935,3,3,0,3,0,1,,,,,,,,,,,,,,,,,,,,,,,,,,,,,,,,,,,,,,,
,,,,,,,,2023-08-16_08h15.15.841,HF_wild_card,2022.2.4,Win32,59.91611744,5a9f9e14b5e2110001c6f6f5,64d2fd46c836a06233681665,64dc75a3df1ea72463ade36f,,,,,,,ctch,resources/DP.BMP,resources/DB.BMP,Door3,0.323148176,0.001851824,1,0,0,1.2281,optionRight,70,5005,3,4,0,4,0,1,,,,,,,,,,,,,,,,,,,,,,,,,,,,,,,,,,,,,,,
,,,,,,,,2023-08-16_08h15.15.841,HF_wild_card,2022.2.4,Win32,59.91611744,5a9f9e14b5e2110001c6f6f5,64d2fd46c836a06233681665,64dc75a3df1ea72463ade36f,,,,,,,decisionTrl,resources/DG.BMP,resources/DBN.BMP,WildCard_Ex,-0.421296268,0.05370369,1,0,0,1.3949,optionLeft,95,5100,3,5,0,5,0,1,,,,,,,,,,,,,,,,,,,,,,,,,,,,,,,,,,,,,,,
,,,,,,,,2023-08-16_08h15.15.841,HF_wild_card,2022.2.4,Win32,59.91611744,5a9f9e14b5e2110001c6f6f5,64d2fd46c836a06233681665,64dc75a3df1ea72463ade36f,,,,,,,sngl,resources/Empty.png,resources/DG.BMP,WildCard_Ex,0.374074131,-0.023148176,1,0,0,0.6452,optionRight,5,5105,3,6,0,6,0,1,,,,,,,,,,,,,,,,,,,,,,,,,,,,,,,,,,,,,,,
,,,,,,,,2023-08-16_08h15.15.841,HF_wild_card,2022.2.4,Win32,59.91611744,5a9f9e14b5e2110001c6f6f5,64d2fd46c836a06233681665,64dc75a3df1ea72463ade36f,,,,,,,sngl,resources/DBN.BMP,resources/Empty.png,Door1,-0.385185157,-0.030555556,1,0,0,0.7445,optionLeft,30,5135,3,7,0,7,0,1,,,,,,,,,,,,,,,,,,,,,,,,,,,,,,,,,,,,,,,
,,,,,,,,2023-08-16_08h15.15.841,HF_wild_card,2022.2.4,Win32,59.91611744,5a9f9e14b5e2110001c6f6f5,64d2fd46c836a06233681665,64dc75a3df1ea72463ade36f,,,,,,,decisionTrl,resources/DG.BMP,resources/DP.BMP,WildCard_Ex,-0.345370356,0.062962935,1,0,0,0.8117,optionLeft,5,5140,3,8,0,8,0,1,,,,,,,,,,,,,,,,,,,,,,,,,,,,,,,,,,,,,,,
,,,,,,,,2023-08-16_08h15.15.841,HF_wild_card,2022.2.4,Win32,59.91611744,5a9f9e14b5e2110001c6f6f5,64d2fd46c836a06233681665,64dc75a3df1ea72463ade36f,,,,,,,sngl,resources/Empty.png,resources/DG.BMP,WildCard_Ex,0.40648151,0.004629601,1,0,0,0.6279,optionRight,95,5235,3,9,0,9,0,1,,,,,,,,,,,,,,,,,,,,,,,,,,,,,,,,,,,,,,,
,,,,,,,,2023-08-16_08h15.15.841,HF_wild_card,2022.2.4,Win32,59.91611744,5a9f9e14b5e2110001c6f6f5,64d2fd46c836a06233681665,64dc75a3df1ea72463ade36f,,,,,,,sngl,resources/Empty.png,resources/DY.BMP,Door4,0.462037065,-0.044444444,1,0,0,0.6116,optionRight,60,5295,3,10,0,10,0,1,,,,,,,,,,,,,,,,,,,,,,,,,,,,,,,,,,,,,,,
,,,,,,,,2023-08-16_08h15.15.841,HF_wild_card,2022.2.4,Win32,59.91611744,5a9f9e14b5e2110001c6f6f5,64d2fd46c836a06233681665,64dc75a3df1ea72463ade36f,,,,,,,decisionTrl,resources/DP.BMP,resources/DBN.BMP,Door2,-0.277777778,0.009259245,1,0,0,0.9276,optionLeft,40,5335,3,11,0,11,0,1,,,,,,,,,,,,,,,,,,,,,,,,,,,,,,,,,,,,,,,
,,,,,,,,2023-08-16_08h15.15.841,HF_wild_card,2022.2.4,Win32,59.91611744,5a9f9e14b5e2110001c6f6f5,64d2fd46c836a06233681665,64dc75a3df1ea72463ade36f,,,,,,,sngl,resources/DB.BMP,resources/Empty.png,Door3,-0.184259245,-0.005555556,1,0,0,0.6274,optionLeft,70,5405,3,12,0,12,0,1,,,,,,,,,,,,,,,,,,,,,,,,,,,,,,,,,,,,,,,
,,,,,,,,2023-08-16_08h15.15.841,HF_wild_card,2022.2.4,Win32,59.91611744,5a9f9e14b5e2110001c6f6f5,64d2fd46c836a06233681665,64dc75a3df1ea72463ade36f,,,,,,,decisionTrl,resources/DG.BMP,resources/DB.BMP,Door3,0.478703732,-0.001851866,1,0,0,1.3449,optionRight,70,5475,3,13,0,13,0,1,,,,,,,,,,,,,,,,,,,,,,,,,,,,,,,,,,,,,,,
,,,,,,,,2023-08-16_08h15.15.841,HF_wild_card,2022.2.4,Win32,59.91611744,5a9f9e14b5e2110001c6f6f5,64d2fd46c836a06233681665,64dc75a3df1ea72463ade36f,,,,,,,sngl,resources/DP.BMP,resources/Empty.png,Door2,-0.525,0.004629601,1,0,0,0.5942,optionLeft,40,5515,3,14,0,14,0,1,,,,,,,,,,,,,,,,,,,,,,,,,,,,,,,,,,,,,,,
,,,,,,,,2023-08-16_08h15.15.841,HF_wild_card,2022.2.4,Win32,59.91611744,5a9f9e14b5e2110001c6f6f5,64d2fd46c836a06233681665,64dc75a3df1ea72463ade36f,,,,,,,decisionTrl,resources/DY.BMP,resources/DB.BMP,Door4,-0.361111111,0.079629601,1,0,0,0.6779,optionLeft,80,5595,3,15,0,15,0,1,,,,,,,,,,,,,,,,,,,,,,,,,,,,,,,,,,,,,,,
,,,,,,,,2023-08-16_08h15.15.841,HF_wild_card,2022.2.4,Win32,59.91611744,5a9f9e14b5e2110001c6f6f5,64d2fd46c836a06233681665,64dc75a3df1ea72463ade36f,,,,,,,decisionTrl,resources/DB.BMP,resources/DY.BMP,Door4,0.317592621,-0.00648151,1,0,0,0.6616,optionRight,60,5655,3,16,0,16,0,1,,,,,,,,,,,,,,,,,,,,,,,,,,,,,,,,,,,,,,,
,,,,,,,,2023-08-16_08h15.15.841,HF_wild_card,2022.2.4,Win32,59.91611744,5a9f9e14b5e2110001c6f6f5,64d2fd46c836a06233681665,64dc75a3df1ea72463ade36f,,,,,,,decisionTrl,resources/DY.BMP,resources/DB.BMP,Door4,-0.39351849,-0.04629631,1,0,0,0.7777,optionLeft,60,5715,3,17,0,17,0,1,,,,,,,,,,,,,,,,,,,,,,,,,,,,,,,,,,,,,,,
,,,,,,,,2023-08-16_08h15.15.841,HF_wild_card,2022.2.4,Win32,59.91611744,5a9f9e14b5e2110001c6f6f5,64d2fd46c836a06233681665,64dc75a3df1ea72463ade36f,,,,,,,sngl,resources/DG.BMP,resources/Empty.png,WildCard_Ex,-0.176851824,0.031481467,1,0,0,0.6943,optionLeft,95,5810,3,18,0,18,0,1,,,,,,,,,,,,,,,,,,,,,,,,,,,,,,,,,,,,,,,
,,,,,,,,2023-08-16_08h15.15.841,HF_wild_card,2022.2.4,Win32,59.91611744,5a9f9e14b5e2110001c6f6f5,64d2fd46c836a06233681665,64dc75a3df1ea72463ade36f,,,,,,,decisionTrl,resources/DG.BMP,resources/DY.BMP,Door4,0.388888889,-0.00648151,1,0,0,0.6452,optionRight,60,5870,3,19,0,19,0,1,,,,,,,,,,,,,,,,,,,,,,,,,,,,,,,,,,,,,,,
,,,,,,,,2023-08-16_08h15.15.841,HF_wild_card,2022.2.4,Win32,59.91611744,5a9f9e14b5e2110001c6f6f5,64d2fd46c836a06233681665,64dc75a3df1ea72463ade36f,,,,,,,decisionTrl,resources/DB.BMP,resources/DY.BMP,Door4,0.286111111,-0.001851866,1,0,0,0.6941,optionRight,80,5950,3,20,0,20,0,1,,,,,,,,,,,,,,,,,,,,,,,,,,,,,,,,,,,,,,,
,,,,,,,,2023-08-16_08h15.15.841,HF_wild_card,2022.2.4,Win32,59.91611744,5a9f9e14b5e2110001c6f6f5,64d2fd46c836a06233681665,64dc75a3df1ea72463ade36f,,,,,,,ctch,resources/DB.BMP,resources/DP.BMP,Door2,0.337037065,0.010185157,1,0,0,0.8115,optionRight,20,5970,3,21,0,21,0,1,,,,,,,,,,,,,,,,,,,,,,,,,,,,,,,,,,,,,,,
,,,,,,,,2023-08-16_08h15.15.841,HF_wild_card,2022.2.4,Win32,59.91611744,5a9f9e14b5e2110001c6f6f5,64d2fd46c836a06233681665,64dc75a3df1ea72463ade36f,,,,,,,decisionTrl,resources/DP.BMP,resources/DG.BMP,WildCard_Ex,0.317592621,-0.035185199,1,0,0,1.1117,optionRight,5,5975,3,22,0,22,0,1,,,,,,,,,,,,,,,,,,,,,,,,,,,,,,,,,,,,,,,
,,,,,,,,2023-08-16_08h15.15.841,HF_wild_card,2022.2.4,Win32,59.91611744,5a9f9e14b5e2110001c6f6f5,64d2fd46c836a06233681665,64dc75a3df1ea72463ade36f,,,,,,,ctch,resources/DY.BMP,resources/DBN.BMP,Door4,-0.375,-0.012037065,1,0,0,0.695,optionLeft,80,6055,3,23,0,23,0,1,,,,,,,,,,,,,,,,,,,,,,,,,,,,,,,,,,,,,,,
,,,,,,,,2023-08-16_08h15.15.841,HF_wild_card,2022.2.4,Win32,59.91611744,5a9f9e14b5e2110001c6f6f5,64d2fd46c836a06233681665,64dc75a3df1ea72463ade36f,,,,,,,decisionTrl,resources/DBN.BMP,resources/DP.BMP,Door2,0.370370399,-0.026851866,1,0,0,0.6952,optionRight,40,6095,3,24,0,24,0,1,,,,,,,,,,,,,,,,,,,,,,,,,,,,,,,,,,,,,,,
,,,,,,,,2023-08-16_08h15.15.841,HF_wild_card,2022.2.4,Win32,59.91611744,5a9f9e14b5e2110001c6f6f5,64d2fd46c836a06233681665,64dc75a3df1ea72463ade36f,,,,,,,decisionTrl,resources/DBN.BMP,resources/DP.BMP,Door2,0.455555556,-0.057407422,1,0,0,0.6285,optionRight,20,6115,3,25,0,25,0,1,,,,,,,,,,,,,,,,,,,,,,,,,,,,,,,,,,,,,,,
,,,,,,,,2023-08-16_08h15.15.841,HF_wild_card,2022.2.4,Win32,59.91611744,5a9f9e14b5e2110001c6f6f5,64d2fd46c836a06233681665,64dc75a3df1ea72463ade36f,,,,,,,ctch,resources/DP.BMP,resources/DB.BMP,Door3,0.399074131,-0.042592621,1,0,0,1.295,optionRight,70,6185,3,26,0,26,0,1,,,,,,,,,,,,,,,,,,,,,,,,,,,,,,,,,,,,,,,
,,,,,,,,2023-08-16_08h15.15.841,HF_wild_card,2022.2.4,Win32,59.91611744,5a9f9e14b5e2110001c6f6f5,64d2fd46c836a06233681665,64dc75a3df1ea72463ade36f,,,,,,,decisionTrl,resources/DP.BMP,resources/DBN.BMP,Door2,-0.388888889,-0.018518533,1,0,0,0.6834,optionLeft,20,6205,3,27,0,27,0,1,,,,,,,,,,,,,,,,,,,,,,,,,,,,,,,,,,,,,,,
,,,,,,,,2023-08-16_08h15.15.841,HF_wild_card,2022.2.4,Win32,59.91611744,5a9f9e14b5e2110001c6f6f5,64d2fd46c836a06233681665,64dc75a3df1ea72463ade36f,,,,,,,decisionTrl,resources/DY.BMP,resources/DB.BMP,Door4,-0.242592578,0.082407379,1,0,0,0.7942,optionLeft,80,6285,3,28,0,28,0,1,,,,,,,,,,,,,,,,,,,,,,,,,,,,,,,,,,,,,,,
,,,,,,,,2023-08-16_08h15.15.841,HF_wild_card,2022.2.4,Win32,59.91611744,5a9f9e14b5e2110001c6f6f5,64d2fd46c836a06233681665,64dc75a3df1ea72463ade36f,,,,,,,decisionTrl,resources/DB.BMP,resources/DY.BMP,Door4,0.398148176,0.013888889,1,0,0,0.6284,optionRight,80,6365,3,29,0,29,0,1,,,,,,,,,,,,,,,,,,,,,,,,,,,,,,,,,,,,,,,
,,,,,,,,2023-08-16_08h15.15.841,HF_wild_card,2022.2.4,Win32,59.91611744,5a9f9e14b5e2110001c6f6f5,64d2fd46c836a06233681665,64dc75a3df1ea72463ade36f,,,,,,,sngl,resources/Empty.png,resources/DP.BMP,Door2,0.441666667,0.002777778,1,0,0,0.5949,optionRight,20,6385,3,30,0,30,0,1,,,,,,,,,,,,,,,,,,,,,,,,,,,,,,,,,,,,,,,
,,,,,,,,2023-08-16_08h15.15.841,HF_wild_card,2022.2.4,Win32,59.91611744,5a9f9e14b5e2110001c6f6f5,64d2fd46c836a06233681665,64dc75a3df1ea72463ade36f,,,,,,,ctch,resources/DY.BMP,resources/DBN.BMP,Door4,-0.233333333,0.054629601,1,0,0,0.6193,optionLeft,80,6465,3,31,0,31,0,1,,,,,,,,,,,,,,,,,,,,,,,,,,,,,,,,,,,,,,,
,,,,,,,,2023-08-16_08h15.15.841,HF_wild_card,2022.2.4,Win32,59.91611744,5a9f9e14b5e2110001c6f6f5,64d2fd46c836a06233681665,64dc75a3df1ea72463ade36f,,,,,,,decisionTrl,resources/DBN.BMP,resources/DP.BMP,Door2,0.354629686,-0.009259288,1,0,0,0.8605,optionRight,40,6505,3,32,0,32,0,1,,,,,,,,,,,,,,,,,,,,,,,,,,,,,,,,,,,,,,,
,,,,,,,,2023-08-16_08h15.15.841,HF_wild_card,2022.2.4,Win32,59.91611744,5a9f9e14b5e2110001c6f6f5,64d2fd46c836a06233681665,64dc75a3df1ea72463ade36f,,,,,,,ctch,resources/DB.BMP,resources/DP.BMP,Door3,-0.438888889,0.002777778,1,0,0,1.1624,optionLeft,70,6575,3,33,0,33,0,1,,,,,,,,,,,,,,,,,,,,,,,,,,,,,,,,,,,,,,,
,,,,,,,,2023-08-16_08h15.15.841,HF_wild_card,2022.2.4,Win32,59.91611744,5a9f9e14b5e2110001c6f6f5,64d2fd46c836a06233681665,64dc75a3df1ea72463ade36f,,,,,,,ctch,resources/DBN.BMP,resources/DY.BMP,Door4,0.409259288,-0.027777778,1,0,0,0.6758,optionRight,60,6635,3,34,0,34,0,1,,,,,,,,,,,,,,,,,,,,,,,,,,,,,,,,,,,,,,,
,,,,,,,,2023-08-16_08h15.15.841,HF_wild_card,2022.2.4,Win32,59.91611744,5a9f9e14b5e2110001c6f6f5,64d2fd46c836a06233681665,64dc75a3df1ea72463ade36f,,,,,,,decisionTrl,resources/DP.BMP,resources/DBN.BMP,Door1,0.462037065,0.044444444,1,0,0,2.0616,optionRight,30,6665,3,35,0,35,0,1,,,,,,,,,,,,,,,,,,,,,,,,,,,,,,,,,,,,,,,
,,,,,,,,2023-08-16_08h15.15.841,HF_wild_card,2022.2.4,Win32,59.91611744,5a9f9e14b5e2110001c6f6f5,64d2fd46c836a06233681665,64dc75a3df1ea72463ade36f,,,,,,,ctch,resources/DBN.BMP,resources/DY.BMP,Door4,0.450925954,0.017592578,1,0,0,0.6122,optionRight,60,6725,3,36,0,36,0,1,,,,,,,,,,,,,,,,,,,,,,,,,,,,,,,,,,,,,,,
,,,,,,,,2023-08-16_08h15.15.841,HF_wild_card,2022.2.4,Win32,59.91611744,5a9f9e14b5e2110001c6f6f5,64d2fd46c836a06233681665,64dc75a3df1ea72463ade36f,,,,,,,decisionTrl,resources/DBN.BMP,resources/DG.BMP,WildCard_Ex,0.295370399,0.006481467,1,0,0,0.778,optionRight,5,6730,3,37,0,37,0,1,,,,,,,,,,,,,,,,,,,,,,,,,,,,,,,,,,,,,,,
,,,,,,,,2023-08-16_08h15.15.841,HF_wild_card,2022.2.4,Win32,59.91611744,5a9f9e14b5e2110001c6f6f5,64d2fd46c836a06233681665,64dc75a3df1ea72463ade36f,,,,,,,decisionTrl,resources/DY.BMP,resources/DB.BMP,Door4,-0.246296268,0.020370356,1,0,0,0.6951,optionLeft,80,6810,3,38,0,38,0,1,,,,,,,,,,,,,,,,,,,,,,,,,,,,,,,,,,,,,,,
,,,,,,,,2023-08-16_08h15.15.841,HF_wild_card,2022.2.4,Win32,59.91611744,5a9f9e14b5e2110001c6f6f5,64d2fd46c836a06233681665,64dc75a3df1ea72463ade36f,,,,,,,sngl,resources/Empty.png,resources/DB.BMP,Door3,0.372222222,-0.020370399,1,0,0,0.6617,optionRight,70,6880,3,39,0,39,0,1,,,,,,,,,,,,,,,,,,,,,,,,,,,,,,,,,,,,,,,
,,,,,,,,2023-08-16_08h15.15.841,HF_wild_card,2022.2.4,Win32,59.91611744,5a9f9e14b5e2110001c6f6f5,64d2fd46c836a06233681665,64dc75a3df1ea72463ade36f,,,,,,,sngl,resources/DG.BMP,resources/Empty.png,WildCard_Ex,-0.362962935,-0.009259288,1,0,0,0.6847,optionLeft,5,6885,3,40,0,40,0,1,,,,,,,,,,,,,,,,,,,,,,,,,,,,,,,,,,,,,,,
,,,,,,,,2023-08-16_08h15.15.841,HF_wild_card,2022.2.4,Win32,59.91611744,5a9f9e14b5e2110001c6f6f5,64d2fd46c836a06233681665,64dc75a3df1ea72463ade36f,,,,,,,decisionTrl,resources/DY.BMP,resources/DG.BMP,Door4,-0.236111111,0.1,1,0,0,1.5282,optionLeft,60,6945,3,41,0,41,0,1,,,,,,,,,,,,,,,,,,,,,,,,,,,,,,,,,,,,,,,
,,,,,,,,2023-08-16_08h15.15.841,HF_wild_card,2022.2.4,Win32,59.91611744,5a9f9e14b5e2110001c6f6f5,64d2fd46c836a06233681665,64dc75a3df1ea72463ade36f,,,,,,,decisionTrl,resources/DB.BMP,resources/DG.BMP,Door3,-0.386111111,0.047222222,1,0,0,1.1851,optionLeft,70,7015,3,42,0,42,0,1,,,,,,,,,,,,,,,,,,,,,,,,,,,,,,,,,,,,,,,
,,,,,,,,2023-08-16_08h15.15.841,HF_wild_card,2022.2.4,Win32,59.91611744,5a9f9e14b5e2110001c6f6f5,64d2fd46c836a06233681665,64dc75a3df1ea72463ade36f,,,,,,,sngl,resources/Empty.png,resources/DBN.BMP,Door1,0.280555556,0.023148134,1,0,0,0.5952,optionRight,30,7045,3,43,0,43,0,1,,,,,,,,,,,,,,,,,,,,,,,,,,,,,,,,,,,,,,,
,,,,,,,,2023-08-16_08h15.15.841,HF_wild_card,2022.2.4,Win32,59.91611744,5a9f9e14b5e2110001c6f6f5,64d2fd46c836a06233681665,64dc75a3df1ea72463ade36f,,,,,,,,,,,,,,,,,,,,,,,,,,2,0,2,0,1,,,,,,,,,,,,,,,,,,,,,,,,,,,,,,,,,,
,,,,,,,,2023-08-16_08h15.15.841,HF_wild_card,2022.2.4,Win32,59.91611744,5a9f9e14b5e2110001c6f6f5,64d2fd46c836a06233681665,64dc75a3df1ea72463ade36f,,,,,,,ctch,resources/DP.BMP,resources/DB.BMP,Door3,0.271296353,0.025925912,1,0,0,1.2068,optionRight,70,7115,4,0,0,0,0,1,,,,,,,,,,,,,,,,,,,,,,,,,,,,,,,,,,,,,,,
,,,,,,,,2023-08-16_08h15.15.841,HF_wild_card,2022.2.4,Win32,59.91611744,5a9f9e14b5e2110001c6f6f5,64d2fd46c836a06233681665,64dc75a3df1ea72463ade36f,,,,,,,ctch,resources/DBN.BMP,resources/DY.BMP,Door4,0.489814843,0.080555556,1,0,0,0.6949,optionRight,60,7175,4,1,0,1,0,1,,,,,,,,,,,,,,,,,,,,,,,,,,,,,,,,,,,,,,,
,,,,,,,,2023-08-16_08h15.15.841,HF_wild_card,2022.2.4,Win32,59.91611744,5a9f9e14b5e2110001c6f6f5,64d2fd46c836a06233681665,64dc75a3df1ea72463ade36f,,,,,,,decisionTrl,resources/DY.BMP,resources/DR.BMP,Door4,-0.237962935,0.062962935,1,0,0,0.7016,optionLeft,60,7235,4,2,0,2,0,1,,,,,,,,,,,,,,,,,,,,,,,,,,,,,,,,,,,,,,,
,,,,,,,,2023-08-16_08h15.15.841,HF_wild_card,2022.2.4,Win32,59.91611744,5a9f9e14b5e2110001c6f6f5,64d2fd46c836a06233681665,64dc75a3df1ea72463ade36f,,,,,,,decisionTrl,resources/DBN.BMP,resources/DP.BMP,Door2,0.304629686,0.016666667,1,0,0,0.7616,optionRight,40,7275,4,3,0,3,0,1,,,,,,,,,,,,,,,,,,,,,,,,,,,,,,,,,,,,,,,
,,,,,,,,2023-08-16_08h15.15.841,HF_wild_card,2022.2.4,Win32,59.91611744,5a9f9e14b5e2110001c6f6f5,64d2fd46c836a06233681665,64dc75a3df1ea72463ade36f,,,,,,,decisionTrl,resources/DY.BMP,resources/DB.BMP,Door4,-0.376851824,0.04351849,1,0,0,0.6615,optionLeft,60,7335,4,4,0,4,0,1,,,,,,,,,,,,,,,,,,,,,,,,,,,,,,,,,,,,,,,
,,,,,,,,2023-08-16_08h15.15.841,HF_wild_card,2022.2.4,Win32,59.91611744,5a9f9e14b5e2110001c6f6f5,64d2fd46c836a06233681665,64dc75a3df1ea72463ade36f,,,,,,,decisionTrl,resources/DY.BMP,resources/DB.BMP,Door3,0.393518575,0.055555556,1,0,0,0.7471,optionRight,70,7405,4,5,0,5,0,1,,,,,,,,,,,,,,,,,,,,,,,,,,,,,,,,,,,,,,,
,,,,,,,,2023-08-16_08h15.15.841,HF_wild_card,2022.2.4,Win32,59.91611744,5a9f9e14b5e2110001c6f6f5,64d2fd46c836a06233681665,64dc75a3df1ea72463ade36f,,,,,,,ctch,resources/DY.BMP,resources/DBN.BMP,Door4,-0.364814801,0.036111111,1,0,0,0.7786,optionLeft,80,7485,4,6,0,6,0,1,,,,,,,,,,,,,,,,,,,,,,,,,,,,,,,,,,,,,,,
,,,,,,,,2023-08-16_08h15.15.841,HF_wild_card,2022.2.4,Win32,59.91611744,5a9f9e14b5e2110001c6f6f5,64d2fd46c836a06233681665,64dc75a3df1ea72463ade36f,,,,,,,ctch,resources/DBN.BMP,resources/DY.BMP,Door4,0.416666667,0.004629601,1,0,0,0.6613,optionRight,60,7545,4,7,0,7,0,1,,,,,,,,,,,,,,,,,,,,,,,,,,,,,,,,,,,,,,,
,,,,,,,,2023-08-16_08h15.15.841,HF_wild_card,2022.2.4,Win32,59.91611744,5a9f9e14b5e2110001c6f6f5,64d2fd46c836a06233681665,64dc75a3df1ea72463ade36f,,,,,,,decisionTrl,resources/DR.BMP,resources/DP.BMP,WildCard_NonEx,-0.233333333,0.057407379,1,0,0,0.6857,optionLeft,45,7590,4,8,0,8,0,1,,,,,,,,,,,,,,,,,,,,,,,,,,,,,,,,,,,,,,,
,,,,,,,,2023-08-16_08h15.15.841,HF_wild_card,2022.2.4,Win32,59.91611744,5a9f9e14b5e2110001c6f6f5,64d2fd46c836a06233681665,64dc75a3df1ea72463ade36f,,,,,,,sngl,resources/Empty.png,resources/DR.BMP,WildCard_NonEx,0.325925954,-0.005555556,1,0,0,0.5615,optionRight,55,7645,4,9,0,9,0,1,,,,,,,,,,,,,,,,,,,,,,,,,,,,,,,,,,,,,,,
,,,,,,,,2023-08-16_08h15.15.841,HF_wild_card,2022.2.4,Win32,59.91611744,5a9f9e14b5e2110001c6f6f5,64d2fd46c836a06233681665,64dc75a3df1ea72463ade36f,,,,,,,ctch,resources/DP.BMP,resources/DB.BMP,Door3,0.259259288,0.017592578,1,0,0,1.169,optionRight,70,7715,4,10,0,10,0,1,,,,,,,,,,,,,,,,,,,,,,,,,,,,,,,,,,,,,,,
,,,,,,,,2023-08-16_08h15.15.841,HF_wild_card,2022.2.4,Win32,59.91611744,5a9f9e14b5e2110001c6f6f5,64d2fd46c836a06233681665,64dc75a3df1ea72463ade36f,,,,,,,sngl,resources/Empty.png,resources/DR.BMP,WildCard_NonEx,0.332407464,-0.018518533,1,0,0,0.5954,optionRight,45,7760,4,11,0,11,0,1,,,,,,,,,,,,,,,,,,,,,,,,,,,,,,,,,,,,,,,
,,,,,,,,2023-08-16_08h15.15.841,HF_wild_card,2022.2.4,Win32,59.91611744,5a9f9e14b5e2110001c6f6f5,64d2fd46c836a06233681665,64dc75a3df1ea72463ade36f,,,,,,,sngl,resources/DY.BMP,resources/Empty.png,Door4,-0.256481467,0.01851849,1,0,0,0.6298,optionLeft,60,7820,4,12,0,12,0,1,,,,,,,,,,,,,,,,,,,,,,,,,,,,,,,,,,,,,,,
,,,,,,,,2023-08-16_08h15.15.841,HF_wild_card,2022.2.4,Win32,59.91611744,5a9f9e14b5e2110001c6f6f5,64d2fd46c836a06233681665,64dc75a3df1ea72463ade36f,,,,,,,ctch,resources/DB.BMP,resources/DP.BMP,Door2,0.363888889,0.041666667,1,0,0,1.0782,optionRight,40,7860,4,13,0,13,0,1,,,,,,,,,,,,,,,,,,,,,,,,,,,,,,,,,,,,,,,
,,,,,,,,2023-08-16_08h15.15.841,HF_wild_card,2022.2.4,Win32,59.91611744,5a9f9e14b5e2110001c6f6f5,64d2fd46c836a06233681665,64dc75a3df1ea72463ade36f,,,,,,,sngl,resources/DB.BMP,resources/Empty.png,Door3,-0.310185157,0.045370356,1,0,0,0.6525,optionLeft,70,7930,4,14,0,14,0,1,,,,,,,,,,,,,,,,,,,,,,,,,,,,,,,,,,,,,,,
,,,,,,,,2023-08-16_08h15.15.841,HF_wild_card,2022.2.4,Win32,59.91611744,5a9f9e14b5e2110001c6f6f5,64d2fd46c836a06233681665,64dc75a3df1ea72463ade36f,,,,,,,sngl,resources/Empty.png,resources/DB.BMP,Door3,0.422222222,0.002777778,1,0,0,0.5281,optionRight,70,8000,4,15,0,15,0,1,,,,,,,,,,,,,,,,,,,,,,,,,,,,,,,,,,,,,,,
,,,,,,,,2023-08-16_08h15.15.841,HF_wild_card,2022.2.4,Win32,59.91611744,5a9f9e14b5e2110001c6f6f5,64d2fd46c836a06233681665,64dc75a3df1ea72463ade36f,,,,,,,decisionTrl,resources/DY.BMP,resources/DB.BMP,Door4,-0.3,0.025,1,0,0,0.9961,optionLeft,60,8060,4,16,0,16,0,1,,,,,,,,,,,,,,,,,,,,,,,,,,,,,,,,,,,,,,,
,,,,,,,,2023-08-16_08h15.15.841,HF_wild_card,2022.2.4,Win32,59.91611744,5a9f9e14b5e2110001c6f6f5,64d2fd46c836a06233681665,64dc75a3df1ea72463ade36f,,,,,,,ctch,resources/DY.BMP,resources/DBN.BMP,Door4,-0.239814801,0.021296268,1,0,0,0.7117,optionLeft,60,8120,4,17,0,17,0,1,,,,,,,,,,,,,,,,,,,,,,,,,,,,,,,,,,,,,,,
,,,,,,,,2023-08-16_08h15.15.841,HF_wild_card,2022.2.4,Win32,59.91611744,5a9f9e14b5e2110001c6f6f5,64d2fd46c836a06233681665,64dc75a3df1ea72463ade36f,,,,,,,sngl,resources/Empty.png,resources/DP.BMP,Door2,0.304629686,-0.019444444,1,0,0,0.5506,optionRight,40,8160,4,18,0,18,0,1,,,,,,,,,,,,,,,,,,,,,,,,,,,,,,,,,,,,,,,
,,,,,,,,2023-08-16_08h15.15.841,HF_wild_card,2022.2.4,Win32,59.91611744,5a9f9e14b5e2110001c6f6f5,64d2fd46c836a06233681665,64dc75a3df1ea72463ade36f,,,,,,,decisionTrl,resources/DBN.BMP,resources/DP.BMP,Door2,0.458333333,-0.052777778,1,0,0,1.945,optionRight,40,8200,4,19,0,19,0,1,,,,,,,,,,,,,,,,,,,,,,,,,,,,,,,,,,,,,,,
,,,,,,,,2023-08-16_08h15.15.841,HF_wild_card,2022.2.4,Win32,59.91611744,5a9f9e14b5e2110001c6f6f5,64d2fd46c836a06233681665,64dc75a3df1ea72463ade36f,,,,,,,decisionTrl,resources/DP.BMP,resources/DR.BMP,WildCard_NonEx,0.322222222,0.033333333,1,0,0,1.9083,optionRight,45,8245,4,20,0,20,0,1,,,,,,,,,,,,,,,,,,,,,,,,,,,,,,,,,,,,,,,
,,,,,,,,2023-08-16_08h15.15.841,HF_wild_card,2022.2.4,Win32,59.91611744,5a9f9e14b5e2110001c6f6f5,64d2fd46c836a06233681665,64dc75a3df1ea72463ade36f,,,,,,,sngl,resources/Empty.png,resources/DBN.BMP,Door1,0.240740797,0.00370369,1,0,0,0.8105,optionRight,30,8275,4,21,0,21,0,1,,,,,,,,,,,,,,,,,,,,,,,,,,,,,,,,,,,,,,,
,,,,,,,,2023-08-16_08h15.15.841,HF_wild_card,2022.2.4,Win32,59.91611744,5a9f9e14b5e2110001c6f6f5,64d2fd46c836a06233681665,64dc75a3df1ea72463ade36f,,,,,,,decisionTrl,resources/DB.BMP,resources/DY.BMP,Door4,0.254629686,0.007407379,1,0,0,0.9772,optionRight,80,8355,4,22,0,22,0,1,,,,,,,,,,,,,,,,,,,,,,,,,,,,,,,,,,,,,,,
,,,,,,,,2023-08-16_08h15.15.841,HF_wild_card,2022.2.4,Win32,59.91611744,5a9f9e14b5e2110001c6f6f5,64d2fd46c836a06233681665,64dc75a3df1ea72463ade36f,,,,,,,decisionTrl,resources/DB.BMP,resources/DY.BMP,Door4,0.244444444,0.00370369,1,0,0,0.7289,optionRight,80,8435,4,23,0,23,0,1,,,,,,,,,,,,,,,,,,,,,,,,,,,,,,,,,,,,,,,
,,,,,,,,2023-08-16_08h15.15.841,HF_wild_card,2022.2.4,Win32,59.91611744,5a9f9e14b5e2110001c6f6f5,64d2fd46c836a06233681665,64dc75a3df1ea72463ade36f,,,,,,,decisionTrl,resources/DY.BMP,resources/DB.BMP,Door4,-0.326851824,0.030555556,1,0,0,0.7282,optionLeft,80,8515,4,24,0,24,0,1,,,,,,,,,,,,,,,,,,,,,,,,,,,,,,,,,,,,,,,
,,,,,,,,2023-08-16_08h15.15.841,HF_wild_card,2022.2.4,Win32,59.91611744,5a9f9e14b5e2110001c6f6f5,64d2fd46c836a06233681665,64dc75a3df1ea72463ade36f,,,,,,,sngl,resources/DP.BMP,resources/Empty.png,Door2,-0.086111111,0.015740712,1,0,0,0.6951,optionLeft,20,8535,4,25,0,25,0,1,,,,,,,,,,,,,,,,,,,,,,,,,,,,,,,,,,,,,,,
,,,,,,,,2023-08-16_08h15.15.841,HF_wild_card,2022.2.4,Win32,59.91611744,5a9f9e14b5e2110001c6f6f5,64d2fd46c836a06233681665,64dc75a3df1ea72463ade36f,,,,,,,decisionTrl,resources/DP.BMP,resources/DBN.BMP,Door1,0.367592621,0.025,1,0,0,1.2796,optionRight,30,8565,4,26,0,26,0,1,,,,,,,,,,,,,,,,,,,,,,,,,,,,,,,,,,,,,,,
,,,,,,,,2023-08-16_08h15.15.841,HF_wild_card,2022.2.4,Win32,59.91611744,5a9f9e14b5e2110001c6f6f5,64d2fd46c836a06233681665,64dc75a3df1ea72463ade36f,,,,,,,decisionTrl,resources/DBN.BMP,resources/DR.BMP,WildCard_NonEx,0.358333333,-0.003703732,1,0,0,0.886,optionRight,55,8620,4,27,0,27,0,1,,,,,,,,,,,,,,,,,,,,,,,,,,,,,,,,,,,,,,,
,,,,,,,,2023-08-16_08h15.15.841,HF_wild_card,2022.2.4,Win32,59.91611744,5a9f9e14b5e2110001c6f6f5,64d2fd46c836a06233681665,64dc75a3df1ea72463ade36f,,,,,,,ctch,resources/DB.BMP,resources/DP.BMP,Door3,-0.359259245,0.008333333,1,0,0,1.0227,optionLeft,70,8690,4,28,0,28,0,1,,,,,,,,,,,,,,,,,,,,,,,,,,,,,,,,,,,,,,,
,,,,,,,,2023-08-16_08h15.15.841,HF_wild_card,2022.2.4,Win32,59.91611744,5a9f9e14b5e2110001c6f6f5,64d2fd46c836a06233681665,64dc75a3df1ea72463ade36f,,,,,,,decisionTrl,resources/DBN.BMP,resources/DP.BMP,Door1,-0.446296268,0.007407379,1,0,0,1.5286,optionLeft,30,8720,4,29,0,29,0,1,,,,,,,,,,,,,,,,,,,,,,,,,,,,,,,,,,,,,,,
,,,,,,,,2023-08-16_08h15.15.841,HF_wild_card,2022.2.4,Win32,59.91611744,5a9f9e14b5e2110001c6f6f5,64d2fd46c836a06233681665,64dc75a3df1ea72463ade36f,,,,,,,decisionTrl,resources/DP.BMP,resources/DBN.BMP,Door2,-0.51851849,-0.017592621,1,0,0,1.2282,optionLeft,20,8740,4,30,0,30,0,1,,,,,,,,,,,,,,,,,,,,,,,,,,,,,,,,,,,,,,,
,,,,,,,,2023-08-16_08h15.15.841,HF_wild_card,2022.2.4,Win32,59.91611744,5a9f9e14b5e2110001c6f6f5,64d2fd46c836a06233681665,64dc75a3df1ea72463ade36f,,,,,,,decisionTrl,resources/DR.BMP,resources/DBN.BMP,WildCard_NonEx,-0.49351849,0.015740712,1,0,0,0.6954,optionLeft,45,8785,4,31,0,31,0,1,,,,,,,,,,,,,,,,,,,,,,,,,,,,,,,,,,,,,,,
,,,,,,,,2023-08-16_08h15.15.841,HF_wild_card,2022.2.4,Win32,59.91611744,5a9f9e14b5e2110001c6f6f5,64d2fd46c836a06233681665,64dc75a3df1ea72463ade36f,,,,,,,sngl,resources/DR.BMP,resources/Empty.png,WildCard_NonEx,-0.337962935,-0.032407422,1,0,0,0.6116,optionLeft,45,8830,4,32,0,32,0,1,,,,,,,,,,,,,,,,,,,,,,,,,,,,,,,,,,,,,,,
,,,,,,,,2023-08-16_08h15.15.841,HF_wild_card,2022.2.4,Win32,59.91611744,5a9f9e14b5e2110001c6f6f5,64d2fd46c836a06233681665,64dc75a3df1ea72463ade36f,,,,,,,sngl,resources/DR.BMP,resources/Empty.png,WildCard_NonEx,-0.306481467,0.035185157,1,0,0,0.7118,optionLeft,55,8885,4,33,0,33,0,1,,,,,,,,,,,,,,,,,,,,,,,,,,,,,,,,,,,,,,,
,,,,,,,,2023-08-16_08h15.15.841,HF_wild_card,2022.2.4,Win32,59.91611744,5a9f9e14b5e2110001c6f6f5,64d2fd46c836a06233681665,64dc75a3df1ea72463ade36f,,,,,,,decisionTrl,resources/DB.BMP,resources/DY.BMP,Door3,-0.324074046,0.032407379,1,0,0,1.4616,optionLeft,70,8955,4,34,0,34,0,1,,,,,,,,,,,,,,,,,,,,,,,,,,,,,,,,,,,,,,,
,,,,,,,,2023-08-16_08h15.15.841,HF_wild_card,2022.2.4,Win32,59.91611744,5a9f9e14b5e2110001c6f6f5,64d2fd46c836a06233681665,64dc75a3df1ea72463ade36f,,,,,,,decisionTrl,resources/DP.BMP,resources/DBN.BMP,Door1,0.413888889,0.079629601,1,0,0,1.6944,optionRight,30,8985,4,35,0,35,0,1,,,,,,,,,,,,,,,,,,,,,,,,,,,,,,,,,,,,,,,
,,,,,,,,2023-08-16_08h15.15.841,HF_wild_card,2022.2.4,Win32,59.91611744,5a9f9e14b5e2110001c6f6f5,64d2fd46c836a06233681665,64dc75a3df1ea72463ade36f,,,,,,,decisionTrl,resources/DP.BMP,resources/DBN.BMP,Door1,0.35,0.013888889,1,0,0,0.7787,optionRight,30,9015,4,36,0,36,0,1,,,,,,,,,,,,,,,,,,,,,,,,,,,,,,,,,,,,,,,
,,,,,,,,2023-08-16_08h15.15.841,HF_wild_card,2022.2.4,Win32,59.91611744,5a9f9e14b5e2110001c6f6f5,64d2fd46c836a06233681665,64dc75a3df1ea72463ade36f,,,,,,,decisionTrl,resources/DR.BMP,resources/DY.BMP,WildCard_NonEx,-0.324074046,0.065740712,1,0,0,0.8785,optionLeft,55,9070,4,37,0,37,0,1,,,,,,,,,,,,,,,,,,,,,,,,,,,,,,,,,,,,,,,
,,,,,,,,2023-08-16_08h15.15.841,HF_wild_card,2022.2.4,Win32,59.91611744,5a9f9e14b5e2110001c6f6f5,64d2fd46c836a06233681665,64dc75a3df1ea72463ade36f,,,,,,,decisionTrl,resources/DBN.BMP,resources/DP.BMP,Door2,0.353703732,-0.005555556,1,0,0,0.7118,optionRight,40,9110,4,38,0,38,0,1,,,,,,,,,,,,,,,,,,,,,,,,,,,,,,,,,,,,,,,
,,,,,,,,2023-08-16_08h15.15.841,HF_wild_card,2022.2.4,Win32,59.91611744,5a9f9e14b5e2110001c6f6f5,64d2fd46c836a06233681665,64dc75a3df1ea72463ade36f,,,,,,,sngl,resources/DBN.BMP,resources/Empty.png,Door1,-0.39351849,0.004629601,1,0,0,0.6458,optionLeft,30,9140,4,39,0,39,0,1,,,,,,,,,,,,,,,,,,,,,,,,,,,,,,,,,,,,,,,
,,,,,,,,2023-08-16_08h15.15.841,HF_wild_card,2022.2.4,Win32,59.91611744,5a9f9e14b5e2110001c6f6f5,64d2fd46c836a06233681665,64dc75a3df1ea72463ade36f,,,,,,,decisionTrl,resources/DR.BMP,resources/DB.BMP,Door3,0.384259288,0.033333333,1,0,0,1.2781,optionRight,70,9210,4,40,0,40,0,1,,,,,,,,,,,,,,,,,,,,,,,,,,,,,,,,,,,,,,,
,,,,,,,,2023-08-16_08h15.15.841,HF_wild_card,2022.2.4,Win32,59.91611744,5a9f9e14b5e2110001c6f6f5,64d2fd46c836a06233681665,64dc75a3df1ea72463ade36f,,,,,,,sngl,resources/Empty.png,resources/DY.BMP,Door4,0.317592621,-0.012037065,1,0,0,0.7117,optionRight,80,9290,4,41,0,41,0,1,,,,,,,,,,,,,,,,,,,,,,,,,,,,,,,,,,,,,,,
,,,,,,,,2023-08-16_08h15.15.841,HF_wild_card,2022.2.4,Win32,59.91611744,5a9f9e14b5e2110001c6f6f5,64d2fd46c836a06233681665,64dc75a3df1ea72463ade36f,,,,,,,decisionTrl,resources/DB.BMP,resources/DY.BMP,Door4,0.390740797,-0.029629644,1,0,0,0.661,optionRight,80,9370,4,42,0,42,0,1,,,,,,,,,,,,,,,,,,,,,,,,,,,,,,,,,,,,,,,
,,,,,,,,2023-08-16_08h15.15.841,HF_wild_card,2022.2.4,Win32,59.91611744,5a9f9e14b5e2110001c6f6f5,64d2fd46c836a06233681665,64dc75a3df1ea72463ade36f,,,,,,,decisionTrl,resources/DB.BMP,resources/DR.BMP,Door3,-0.242592578,0.013888889,1,0,0,1.2189,optionLeft,70,9440,4,43,0,43,0,1,,,,,,,,,,,,,,,,,,,,,,,,,,,,,,,,,,,,,,,
,,,,,,,,2023-08-16_08h15.15.841,HF_wild_card,2022.2.4,Win32,59.91611744,5a9f9e14b5e2110001c6f6f5,64d2fd46c836a06233681665,64dc75a3df1ea72463ade36f,,,,,,,,,,,,,,,,,,,,,,,,,,3,0,3,0,1,,,,,,,,,,,,,,,,,,,,,,,,,,,,,,,,,,
,,,,,,,,2023-08-16_08h15.15.841,HF_wild_card,2022.2.4,Win32,59.91611744,5a9f9e14b5e2110001c6f6f5,64d2fd46c836a06233681665,64dc75a3df1ea72463ade36f,,,,,,,sngl,resources/DB.BMP,resources/Empty.png,Door3,-0.430555556,-0.10648151,1,0,0,0.7012,optionLeft,70,9510,5,0,0,0,0,1,,,,,,,,,,,,,,,,,,,,,,,,,,,,,,,,,,,,,,,
,,,,,,,,2023-08-16_08h15.15.841,HF_wild_card,2022.2.4,Win32,59.91611744,5a9f9e14b5e2110001c6f6f5,64d2fd46c836a06233681665,64dc75a3df1ea72463ade36f,,,,,,,sngl,resources/DY.BMP,resources/Empty.png,Door4,-0.456481467,-0.029629644,1,0,0,0.5598,optionLeft,80,9590,5,1,0,1,0,1,,,,,,,,,,,,,,,,,,,,,,,,,,,,,,,,,,,,,,,
,,,,,,,,2023-08-16_08h15.15.841,HF_wild_card,2022.2.4,Win32,59.91611744,5a9f9e14b5e2110001c6f6f5,64d2fd46c836a06233681665,64dc75a3df1ea72463ade36f,,,,,,,decisionTrl,resources/DP.BMP,resources/DR.BMP,WildCard_NonEx,0.408333333,0.009259245,1,0,0,1.4226,optionRight,55,9645,5,2,0,2,0,1,,,,,,,,,,,,,,,,,,,,,,,,,,,,,,,,,,,,,,,
,,,,,,,,2023-08-16_08h15.15.841,HF_wild_card,2022.2.4,Win32,59.91611744,5a9f9e14b5e2110001c6f6f5,64d2fd46c836a06233681665,64dc75a3df1ea72463ade36f,,,,,,,ctch,resources/DB.BMP,resources/DP.BMP,Door3,-0.523148134,-0.010185199,1,0,0,1.4853,optionLeft,70,9715,5,3,0,3,0,1,,,,,,,,,,,,,,,,,,,,,,,,,,,,,,,,,,,,,,,
,,,,,,,,2023-08-16_08h15.15.841,HF_wild_card,2022.2.4,Win32,59.91611744,5a9f9e14b5e2110001c6f6f5,64d2fd46c836a06233681665,64dc75a3df1ea72463ade36f,,,,,,,sngl,resources/Empty.png,resources/DY.BMP,Door4,0.324074131,-0.037962977,1,0,0,0.6121,optionRight,60,9775,5,4,0,4,0,1,,,,,,,,,,,,,,,,,,,,,,,,,,,,,,,,,,,,,,,
,,,,,,,,2023-08-16_08h15.15.841,HF_wild_card,2022.2.4,Win32,59.91611744,5a9f9e14b5e2110001c6f6f5,64d2fd46c836a06233681665,64dc75a3df1ea72463ade36f,,,,,,,ctch,resources/DBN.BMP,resources/DY.BMP,Door4,0.389814843,0.013888889,1,0,0,0.7241,optionRight,60,9835,5,5,0,5,0,1,,,,,,,,,,,,,,,,,,,,,,,,,,,,,,,,,,,,,,,
,,,,,,,,2023-08-16_08h15.15.841,HF_wild_card,2022.2.4,Win32,59.91611744,5a9f9e14b5e2110001c6f6f5,64d2fd46c836a06233681665,64dc75a3df1ea72463ade36f,,,,,,,ctch,resources/DP.BMP,resources/DB.BMP,Door3,0.307407464,-0.062962977,1,0,0,1.5792,optionRight,70,9905,5,6,0,6,0,1,,,,,,,,,,,,,,,,,,,,,,,,,,,,,,,,,,,,,,,
,,,,,,,,2023-08-16_08h15.15.841,HF_wild_card,2022.2.4,Win32,59.91611744,5a9f9e14b5e2110001c6f6f5,64d2fd46c836a06233681665,64dc75a3df1ea72463ade36f,,,,,,,sngl,resources/Empty.png,resources/DR.BMP,WildCard_NonEx,0.335185242,-0.012962977,1,0,0,0.6223,optionRight,55,9960,5,7,0,7,0,1,,,,,,,,,,,,,,,,,,,,,,,,,,,,,,,,,,,,,,,
,,,,,,,,2023-08-16_08h15.15.841,HF_wild_card,2022.2.4,Win32,59.91611744,5a9f9e14b5e2110001c6f6f5,64d2fd46c836a06233681665,64dc75a3df1ea72463ade36f,,,,,,,sngl,resources/Empty.png,resources/DP.BMP,Door2,0.322222222,-0.012962977,1,0,0,0.6362,optionRight,20,9980,5,8,0,8,0,1,,,,,,,,,,,,,,,,,,,,,,,,,,,,,,,,,,,,,,,
,,,,,,,,2023-08-16_08h15.15.841,HF_wild_card,2022.2.4,Win32,59.91611744,5a9f9e14b5e2110001c6f6f5,64d2fd46c836a06233681665,64dc75a3df1ea72463ade36f,,,,,,,ctch,resources/DY.BMP,resources/DBN.BMP,Door4,-0.288888889,0.057407379,1,0,0,1.0463,optionLeft,80,10060,5,9,0,9,0,1,,,,,,,,,,,,,,,,,,,,,,,,,,,,,,,,,,,,,,,
,,,,,,,,2023-08-16_08h15.15.841,HF_wild_card,2022.2.4,Win32,59.91611744,5a9f9e14b5e2110001c6f6f5,64d2fd46c836a06233681665,64dc75a3df1ea72463ade36f,,,,,,,decisionTrl,resources/DBN.BMP,resources/DP.BMP,Door2,0.304629686,0.00370369,1,0,0,1.5316,optionRight,40,10100,5,10,0,10,0,1,,,,,,,,,,,,,,,,,,,,,,,,,,,,,,,,,,,,,,,
,,,,,,,,2023-08-16_08h15.15.841,HF_wild_card,2022.2.4,Win32,59.91611744,5a9f9e14b5e2110001c6f6f5,64d2fd46c836a06233681665,64dc75a3df1ea72463ade36f,,,,,,,ctch,resources/DB.BMP,resources/DP.BMP,Door3,-0.282407379,0.007407379,1,0,0,0.8287,optionLeft,70,10170,5,11,0,11,0,1,,,,,,,,,,,,,,,,,,,,,,,,,,,,,,,,,,,,,,,
,,,,,,,,2023-08-16_08h15.15.841,HF_wild_card,2022.2.4,Win32,59.91611744,5a9f9e14b5e2110001c6f6f5,64d2fd46c836a06233681665,64dc75a3df1ea72463ade36f,,,,,,,decisionTrl,resources/DR.BMP,resources/DY.BMP,Door4,0.309259288,0.037962935,1,0,0,1.0461,optionRight,80,10250,5,12,0,12,0,1,,,,,,,,,,,,,,,,,,,,,,,,,,,,,,,,,,,,,,,
,,,,,,,,2023-08-16_08h15.15.841,HF_wild_card,2022.2.4,Win32,59.91611744,5a9f9e14b5e2110001c6f6f5,64d2fd46c836a06233681665,64dc75a3df1ea72463ade36f,,,,,,,sngl,resources/DP.BMP,resources/Empty.png,Door2,-0.576851845,-0.005555556,1,0,0,0.6515,optionLeft,40,10290,5,13,0,13,0,1,,,,,,,,,,,,,,,,,,,,,,,,,,,,,,,,,,,,,,,
,,,,,,,,2023-08-16_08h15.15.841,HF_wild_card,2022.2.4,Win32,59.91611744,5a9f9e14b5e2110001c6f6f5,64d2fd46c836a06233681665,64dc75a3df1ea72463ade36f,,,,,,,sngl,resources/DR.BMP,resources/Empty.png,WildCard_NonEx,-0.385185157,0.016666667,1,0,0,0.6088,optionLeft,55,10345,5,14,0,14,0,1,,,,,,,,,,,,,,,,,,,,,,,,,,,,,,,,,,,,,,,
,,,,,,,,2023-08-16_08h15.15.841,HF_wild_card,2022.2.4,Win32,59.91611744,5a9f9e14b5e2110001c6f6f5,64d2fd46c836a06233681665,64dc75a3df1ea72463ade36f,,,,,,,decisionTrl,resources/DY.BMP,resources/DB.BMP,Door3,0.453703732,-0.00648151,1,0,0,1.046,optionRight,70,10415,5,15,0,15,0,1,,,,,,,,,,,,,,,,,,,,,,,,,,,,,,,,,,,,,,,
,,,,,,,,2023-08-16_08h15.15.841,HF_wild_card,2022.2.4,Win32,59.91611744,5a9f9e14b5e2110001c6f6f5,64d2fd46c836a06233681665,64dc75a3df1ea72463ade36f,,,,,,,ctch,resources/DBN.BMP,resources/DY.BMP,Door4,0.469444444,-0.007407422,1,0,0,0.6953,optionRight,60,10475,5,16,0,16,0,1,,,,,,,,,,,,,,,,,,,,,,,,,,,,,,,,,,,,,,,
,,,,,,,,2023-08-16_08h15.15.841,HF_wild_card,2022.2.4,Win32,59.91611744,5a9f9e14b5e2110001c6f6f5,64d2fd46c836a06233681665,64dc75a3df1ea72463ade36f,,,,,,,decisionTrl,resources/DR.BMP,resources/DB.BMP,Door3,0.296296353,0.013888889,1,0,0,0.8285,optionRight,70,10545,5,17,0,17,0,1,,,,,,,,,,,,,,,,,,,,,,,,,,,,,,,,,,,,,,,
,,,,,,,,2023-08-16_08h15.15.841,HF_wild_card,2022.2.4,Win32,59.91611744,5a9f9e14b5e2110001c6f6f5,64d2fd46c836a06233681665,64dc75a3df1ea72463ade36f,,,,,,,decisionTrl,resources/DR.BMP,resources/DP.BMP,WildCard_NonEx,-0.288888889,0.000925912,1,0,0,1.0057,optionLeft,55,10600,5,18,0,18,0,1,,,,,,,,,,,,,,,,,,,,,,,,,,,,,,,,,,,,,,,
,,,,,,,,2023-08-16_08h15.15.841,HF_wild_card,2022.2.4,Win32,59.91611744,5a9f9e14b5e2110001c6f6f5,64d2fd46c836a06233681665,64dc75a3df1ea72463ade36f,,,,,,,decisionTrl,resources/DB.BMP,resources/DY.BMP,Door3,-0.430555556,0.031481467,1,0,0,1.4619,optionLeft,70,10670,5,19,0,19,0,1,,,,,,,,,,,,,,,,,,,,,,,,,,,,,,,,,,,,,,,
,,,,,,,,2023-08-16_08h15.15.841,HF_wild_card,2022.2.4,Win32,59.91611744,5a9f9e14b5e2110001c6f6f5,64d2fd46c836a06233681665,64dc75a3df1ea72463ade36f,,,,,,,sngl,resources/Empty.png,resources/DR.BMP,WildCard_NonEx,0.445370399,0.030555556,1,0,0,0.5944,optionRight,45,10715,5,20,0,20,0,1,,,,,,,,,,,,,,,,,,,,,,,,,,,,,,,,,,,,,,,
,,,,,,,,2023-08-16_08h15.15.841,HF_wild_card,2022.2.4,Win32,59.91611744,5a9f9e14b5e2110001c6f6f5,64d2fd46c836a06233681665,64dc75a3df1ea72463ade36f,,,,,,,decisionTrl,resources/DBN.BMP,resources/DP.BMP,Door2,0.379629686,0.019444444,1,0,0,0.7781,optionRight,20,10735,5,21,0,21,0,1,,,,,,,,,,,,,,,,,,,,,,,,,,,,,,,,,,,,,,,
,,,,,,,,2023-08-16_08h15.15.841,HF_wild_card,2022.2.4,Win32,59.91611744,5a9f9e14b5e2110001c6f6f5,64d2fd46c836a06233681665,64dc75a3df1ea72463ade36f,,,,,,,sngl,resources/Empty.png,resources/DBN.BMP,Door1,0.412963019,-0.003703732,1,0,0,0.6948,optionRight,30,10765,5,22,0,22,0,1,,,,,,,,,,,,,,,,,,,,,,,,,,,,,,,,,,,,,,,
,,,,,,,,2023-08-16_08h15.15.841,HF_wild_card,2022.2.4,Win32,59.91611744,5a9f9e14b5e2110001c6f6f5,64d2fd46c836a06233681665,64dc75a3df1ea72463ade36f,,,,,,,decisionTrl,resources/DBN.BMP,resources/DP.BMP,Door1,-0.313888889,0.054629601,1,0,0,1.1282,optionLeft,30,10795,5,23,0,23,0,1,,,,,,,,,,,,,,,,,,,,,,,,,,,,,,,,,,,,,,,
,,,,,,,,2023-08-16_08h15.15.841,HF_wild_card,2022.2.4,Win32,59.91611744,5a9f9e14b5e2110001c6f6f5,64d2fd46c836a06233681665,64dc75a3df1ea72463ade36f,,,,,,,decisionTrl,resources/DY.BMP,resources/DB.BMP,Door3,0.307407464,-0.015740755,1,0,0,1.2109,optionRight,70,10865,5,24,0,24,0,1,,,,,,,,,,,,,,,,,,,,,,,,,,,,,,,,,,,,,,,
,,,,,,,,2023-08-16_08h15.15.841,HF_wild_card,2022.2.4,Win32,59.91611744,5a9f9e14b5e2110001c6f6f5,64d2fd46c836a06233681665,64dc75a3df1ea72463ade36f,,,,,,,decisionTrl,resources/DP.BMP,resources/DBN.BMP,Door1,0.287037065,0.05370369,1,0,0,1.162,optionRight,30,10895,5,25,0,25,0,1,,,,,,,,,,,,,,,,,,,,,,,,,,,,,,,,,,,,,,,
,,,,,,,,2023-08-16_08h15.15.841,HF_wild_card,2022.2.4,Win32,59.91611744,5a9f9e14b5e2110001c6f6f5,64d2fd46c836a06233681665,64dc75a3df1ea72463ade36f,,,,,,,sngl,resources/Empty.png,resources/DB.BMP,Door3,0.365740797,-0.012037065,1,0,0,0.6291,optionRight,70,10965,5,26,0,26,0,1,,,,,,,,,,,,,,,,,,,,,,,,,,,,,,,,,,,,,,,
,,,,,,,,2023-08-16_08h15.15.841,HF_wild_card,2022.2.4,Win32,59.91611744,5a9f9e14b5e2110001c6f6f5,64d2fd46c836a06233681665,64dc75a3df1ea72463ade36f,,,,,,,sngl,resources/DBN.BMP,resources/Empty.png,Door1,-0.221296268,0.055555556,1,0,0,0.6451,optionLeft,30,10995,5,27,0,27,0,1,,,,,,,,,,,,,,,,,,,,,,,,,,,,,,,,,,,,,,,
,,,,,,,,2023-08-16_08h15.15.841,HF_wild_card,2022.2.4,Win32,59.91611744,5a9f9e14b5e2110001c6f6f5,64d2fd46c836a06233681665,64dc75a3df1ea72463ade36f,,,,,,,decisionTrl,resources/DY.BMP,resources/DB.BMP,Door3,0.390740797,0.083333333,1,0,0,1.1687,optionRight,70,11065,5,28,0,28,0,1,,,,,,,,,,,,,,,,,,,,,,,,,,,,,,,,,,,,,,,
,,,,,,,,2023-08-16_08h15.15.841,HF_wild_card,2022.2.4,Win32,59.91611744,5a9f9e14b5e2110001c6f6f5,64d2fd46c836a06233681665,64dc75a3df1ea72463ade36f,,,,,,,decisionTrl,resources/DP.BMP,resources/DBN.BMP,Door1,0.50648151,0.110185157,1,0,0,1.0423,optionRight,30,11095,5,29,0,29,0,1,,,,,,,,,,,,,,,,,,,,,,,,,,,,,,,,,,,,,,,
,,,,,,,,2023-08-16_08h15.15.841,HF_wild_card,2022.2.4,Win32,59.91611744,5a9f9e14b5e2110001c6f6f5,64d2fd46c836a06233681665,64dc75a3df1ea72463ade36f,,,,,,,ctch,resources/DP.BMP,resources/DB.BMP,Door3,0.324074131,0.026851824,1,0,0,0.745,optionRight,70,11165,5,30,0,30,0,1,,,,,,,,,,,,,,,,,,,,,,,,,,,,,,,,,,,,,,,
,,,,,,,,2023-08-16_08h15.15.841,HF_wild_card,2022.2.4,Win32,59.91611744,5a9f9e14b5e2110001c6f6f5,64d2fd46c836a06233681665,64dc75a3df1ea72463ade36f,,,,,,,decisionTrl,resources/DR.BMP,resources/DBN.BMP,WildCard_NonEx,-0.283333333,0.045370356,1,0,0,1.1453,optionLeft,55,11220,5,31,0,31,0,1,,,,,,,,,,,,,,,,,,,,,,,,,,,,,,,,,,,,,,,
,,,,,,,,2023-08-16_08h15.15.841,HF_wild_card,2022.2.4,Win32,59.91611744,5a9f9e14b5e2110001c6f6f5,64d2fd46c836a06233681665,64dc75a3df1ea72463ade36f,,,,,,,decisionTrl,resources/DB.BMP,resources/DY.BMP,Door3,-0.288888889,0.007407379,1,0,0,1.8446,optionLeft,70,11290,5,32,0,32,0,1,,,,,,,,,,,,,,,,,,,,,,,,,,,,,,,,,,,,,,,
,,,,,,,,2023-08-16_08h15.15.841,HF_wild_card,2022.2.4,Win32,59.91611744,5a9f9e14b5e2110001c6f6f5,64d2fd46c836a06233681665,64dc75a3df1ea72463ade36f,,,,,,,decisionTrl,resources/DBN.BMP,resources/DP.BMP,Door1,-0.271296268,0.046296268,1,0,0,1.628,optionLeft,30,11320,5,33,0,33,0,1,,,,,,,,,,,,,,,,,,,,,,,,,,,,,,,,,,,,,,,
,,,,,,,,2023-08-16_08h15.15.841,HF_wild_card,2022.2.4,Win32,59.91611744,5a9f9e14b5e2110001c6f6f5,64d2fd46c836a06233681665,64dc75a3df1ea72463ade36f,,,,,,,decisionTrl,resources/DB.BMP,resources/DY.BMP,Door3,-0.372222222,0.044444444,1,0,0,1.4114,optionLeft,70,11390,5,34,0,34,0,1,,,,,,,,,,,,,,,,,,,,,,,,,,,,,,,,,,,,,,,
,,,,,,,,2023-08-16_08h15.15.841,HF_wild_card,2022.2.4,Win32,59.91611744,5a9f9e14b5e2110001c6f6f5,64d2fd46c836a06233681665,64dc75a3df1ea72463ade36f,,,,,,,decisionTrl,resources/DBN.BMP,resources/DR.BMP,WildCard_NonEx,0.510185242,-0.003703732,1,0,0,0.9617,optionRight,55,11445,5,35,0,35,0,1,,,,,,,,,,,,,,,,,,,,,,,,,,,,,,,,,,,,,,,
,,,,,,,,2023-08-16_08h15.15.841,HF_wild_card,2022.2.4,Win32,59.91611744,5a9f9e14b5e2110001c6f6f5,64d2fd46c836a06233681665,64dc75a3df1ea72463ade36f,,,,,,,decisionTrl,resources/DY.BMP,resources/DB.BMP,Door3,0.425925954,0.042592578,1,0,0,0.9945,optionRight,70,11515,5,36,0,36,0,1,,,,,,,,,,,,,,,,,,,,,,,,,,,,,,,,,,,,,,,
,,,,,,,,2023-08-16_08h15.15.841,HF_wild_card,2022.2.4,Win32,59.91611744,5a9f9e14b5e2110001c6f6f5,64d2fd46c836a06233681665,64dc75a3df1ea72463ade36f,,,,,,,decisionTrl,resources/DB.BMP,resources/DR.BMP,Door3,-0.331481467,0.022222222,1,0,0,1.0278,optionLeft,70,11585,5,37,0,37,0,1,,,,,,,,,,,,,,,,,,,,,,,,,,,,,,,,,,,,,,,
,,,,,,,,2023-08-16_08h15.15.841,HF_wild_card,2022.2.4,Win32,59.91611744,5a9f9e14b5e2110001c6f6f5,64d2fd46c836a06233681665,64dc75a3df1ea72463ade36f,,,,,,,decisionTrl,resources/DP.BMP,resources/DBN.BMP,Door1,0.525,0.14351849,1,0,0,1.5115,optionRight,30,11615,5,38,0,38,0,1,,,,,,,,,,,,,,,,,,,,,,,,,,,,,,,,,,,,,,,
,,,,,,,,2023-08-16_08h15.15.841,HF_wild_card,2022.2.4,Win32,59.91611744,5a9f9e14b5e2110001c6f6f5,64d2fd46c836a06233681665,64dc75a3df1ea72463ade36f,,,,,,,decisionTrl,resources/DB.BMP,resources/DY.BMP,Door3,-0.311111111,0.061111111,1,0,0,1.2112,optionLeft,70,11685,5,39,0,39,0,1,,,,,,,,,,,,,,,,,,,,,,,,,,,,,,,,,,,,,,,
,,,,,,,,2023-08-16_08h15.15.841,HF_wild_card,2022.2.4,Win32,59.91611744,5a9f9e14b5e2110001c6f6f5,64d2fd46c836a06233681665,64dc75a3df1ea72463ade36f,,,,,,,decisionTrl,resources/DP.BMP,resources/DBN.BMP,Door1,0.461111111,0.067592578,1,0,0,1.5756,optionRight,30,11715,5,40,0,40,0,1,,,,,,,,,,,,,,,,,,,,,,,,,,,,,,,,,,,,,,,
,,,,,,,,2023-08-16_08h15.15.841,HF_wild_card,2022.2.4,Win32,59.91611744,5a9f9e14b5e2110001c6f6f5,64d2fd46c836a06233681665,64dc75a3df1ea72463ade36f,,,,,,,decisionTrl,resources/DY.BMP,resources/DR.BMP,Door4,-0.301851824,0.030555556,1,0,0,0.8446,optionLeft,80,11795,5,41,0,41,0,1,,,,,,,,,,,,,,,,,,,,,,,,,,,,,,,,,,,,,,,
,,,,,,,,2023-08-16_08h15.15.841,HF_wild_card,2022.2.4,Win32,59.91611744,5a9f9e14b5e2110001c6f6f5,64d2fd46c836a06233681665,64dc75a3df1ea72463ade36f,,,,,,,sngl,resources/DR.BMP,resources/Empty.png,WildCard_NonEx,-0.201851824,0.023148134,1,0,0,0.728,optionLeft,45,11840,5,42,0,42,0,1,,,,,,,,,,,,,,,,,,,,,,,,,,,,,,,,,,,,,,,
,,,,,,,,2023-08-16_08h15.15.841,HF_wild_card,2022.2.4,Win32,59.91611744,5a9f9e14b5e2110001c6f6f5,64d2fd46c836a06233681665,64dc75a3df1ea72463ade36f,,,,,,,ctch,resources/DY.BMP,resources/DBN.BMP,Door4,-0.215740712,0.060185157,1,0,0,0.8616,optionLeft,60,11900,5,43,0,43,0,1,,,,,,,,,,,,,,,,,,,,,,,,,,,,,,,,,,,,,,,
,,,,,,,,2023-08-16_08h15.15.841,HF_wild_card,2022.2.4,Win32,59.91611744,5a9f9e14b5e2110001c6f6f5,64d2fd46c836a06233681665,64dc75a3df1ea72463ade36f,,,,,,,,,,,,,,,,,,,,,,,,,,4,0,4,0,1,,,,,,,,,,,,,,,,,,,,,,,,,,,,,,,,,,
,,,,,,,,2023-08-16_08h15.15.841,HF_wild_card,2022.2.4,Win32,59.91611744,5a9f9e14b5e2110001c6f6f5,64d2fd46c836a06233681665,64dc75a3df1ea72463ade36f,,,,,,,sngl,resources/DBN.BMP,resources/Empty.png,Door1,-0.188888889,-0.070370399,1,0,0,0.7919,optionLeft,30,11930,6,0,0,0,0,1,,,,,,,,,,,,,,,,,,,,,,,,,,,,,,,,,,,,,,,
,,,,,,,,2023-08-16_08h15.15.841,HF_wild_card,2022.2.4,Win32,59.91611744,5a9f9e14b5e2110001c6f6f5,64d2fd46c836a06233681665,64dc75a3df1ea72463ade36f,,,,,,,decisionTrl,resources/DY.BMP,resources/DB.BMP,Door3,0.43148151,0.035185157,1,0,0,1.5092,optionRight,70,12000,6,1,0,1,0,1,,,,,,,,,,,,,,,,,,,,,,,,,,,,,,,,,,,,,,,
,,,,,,,,2023-08-16_08h15.15.841,HF_wild_card,2022.2.4,Win32,59.91611744,5a9f9e14b5e2110001c6f6f5,64d2fd46c836a06233681665,64dc75a3df1ea72463ade36f,,,,,,,sngl,resources/DR.BMP,resources/Empty.png,WildCard_NonEx,-0.259259245,-0.027777778,1,0,0,0.6116,optionLeft,45,12045,6,2,0,2,0,1,,,,,,,,,,,,,,,,,,,,,,,,,,,,,,,,,,,,,,,
,,,,,,,,2023-08-16_08h15.15.841,HF_wild_card,2022.2.4,Win32,59.91611744,5a9f9e14b5e2110001c6f6f5,64d2fd46c836a06233681665,64dc75a3df1ea72463ade36f,,,,,,,sngl,resources/Empty.png,resources/DR.BMP,WildCard_NonEx,0.593518575,0.112037023,1,0,0,0.6277,optionRight,55,12100,6,3,0,3,0,1,,,,,,,,,,,,,,,,,,,,,,,,,,,,,,,,,,,,,,,
,,,,,,,,2023-08-16_08h15.15.841,HF_wild_card,2022.2.4,Win32,59.91611744,5a9f9e14b5e2110001c6f6f5,64d2fd46c836a06233681665,64dc75a3df1ea72463ade36f,,,,,,,sngl,resources/DB.BMP,resources/Empty.png,Door3,-0.386111111,-0.014814843,1,0,0,0.5774,optionLeft,70,12170,6,4,0,4,0,1,,,,,,,,,,,,,,,,,,,,,,,,,,,,,,,,,,,,,,,
,,,,,,,,2023-08-16_08h15.15.841,HF_wild_card,2022.2.4,Win32,59.91611744,5a9f9e14b5e2110001c6f6f5,64d2fd46c836a06233681665,64dc75a3df1ea72463ade36f,,,,,,,ctch,resources/DBN.BMP,resources/DY.BMP,Door4,0.403703732,0.037037023,1,0,0,2.2285,optionRight,60,12230,6,5,0,5,0,1,,,,,,,,,,,,,,,,,,,,,,,,,,,,,,,,,,,,,,,
,,,,,,,,2023-08-16_08h15.15.841,HF_wild_card,2022.2.4,Win32,59.91611744,5a9f9e14b5e2110001c6f6f5,64d2fd46c836a06233681665,64dc75a3df1ea72463ade36f,,,,,,,sngl,resources/DP.BMP,resources/Empty.png,Door2,-0.259259245,0.01851849,1,0,0,0.6782,optionLeft,20,12250,6,6,0,6,0,1,,,,,,,,,,,,,,,,,,,,,,,,,,,,,,,,,,,,,,,
,,,,,,,,2023-08-16_08h15.15.841,HF_wild_card,2022.2.4,Win32,59.91611744,5a9f9e14b5e2110001c6f6f5,64d2fd46c836a06233681665,64dc75a3df1ea72463ade36f,,,,,,,decisionTrl,resources/DY.BMP,resources/DB.BMP,Door3,0.339814843,0.033333333,1,0,0,1.2449,optionRight,70,12320,6,7,0,7,0,1,,,,,,,,,,,,,,,,,,,,,,,,,,,,,,,,,,,,,,,
,,,,,,,,2023-08-16_08h15.15.841,HF_wild_card,2022.2.4,Win32,59.91611744,5a9f9e14b5e2110001c6f6f5,64d2fd46c836a06233681665,64dc75a3df1ea72463ade36f,,,,,,,ctch,resources/DBN.BMP,resources/DY.BMP,Door4,0.369444444,0.006481467,1,0,0,0.6787,optionRight,80,12400,6,8,0,8,0,1,,,,,,,,,,,,,,,,,,,,,,,,,,,,,,,,,,,,,,,
,,,,,,,,2023-08-16_08h15.15.841,HF_wild_card,2022.2.4,Win32,59.91611744,5a9f9e14b5e2110001c6f6f5,64d2fd46c836a06233681665,64dc75a3df1ea72463ade36f,,,,,,,decisionTrl,resources/DR.BMP,resources/DY.BMP,Door4,0.290740797,0.01851849,1,0,0,0.6453,optionRight,60,12460,6,9,0,9,0,1,,,,,,,,,,,,,,,,,,,,,,,,,,,,,,,,,,,,,,,
,,,,,,,,2023-08-16_08h15.15.841,HF_wild_card,2022.2.4,Win32,59.91611744,5a9f9e14b5e2110001c6f6f5,64d2fd46c836a06233681665,64dc75a3df1ea72463ade36f,,,,,,,decisionTrl,resources/DBN.BMP,resources/DR.BMP,WildCard_NonEx,0.302777778,0.01851849,1,0,0,0.9617,optionRight,45,12505,6,10,0,10,0,1,,,,,,,,,,,,,,,,,,,,,,,,,,,,,,,,,,,,,,,
,,,,,,,,2023-08-16_08h15.15.841,HF_wild_card,2022.2.4,Win32,59.91611744,5a9f9e14b5e2110001c6f6f5,64d2fd46c836a06233681665,64dc75a3df1ea72463ade36f,,,,,,,decisionTrl,resources/DR.BMP,resources/DB.BMP,Door3,0.325,-0.026851866,1,0,0,1.2381,optionRight,70,12575,6,11,0,11,0,1,,,,,,,,,,,,,,,,,,,,,,,,,,,,,,,,,,,,,,,
,,,,,,,,2023-08-16_08h15.15.841,HF_wild_card,2022.2.4,Win32,59.91611744,5a9f9e14b5e2110001c6f6f5,64d2fd46c836a06233681665,64dc75a3df1ea72463ade36f,,,,,,,decisionTrl,resources/DBN.BMP,resources/DP.BMP,Door1,-0.327777778,0.077777778,1,0,0,1.3779,optionLeft,30,12605,6,12,0,12,0,1,,,,,,,,,,,,,,,,,,,,,,,,,,,,,,,,,,,,,,,
,,,,,,,,2023-08-16_08h15.15.841,HF_wild_card,2022.2.4,Win32,59.91611744,5a9f9e14b5e2110001c6f6f5,64d2fd46c836a06233681665,64dc75a3df1ea72463ade36f,,,,,,,sngl,resources/Empty.png,resources/DR.BMP,WildCard_NonEx,0.372222222,0.012962935,1,0,0,0.811,optionRight,45,12650,6,13,0,13,0,1,,,,,,,,,,,,,,,,,,,,,,,,,,,,,,,,,,,,,,,
,,,,,,,,2023-08-16_08h15.15.841,HF_wild_card,2022.2.4,Win32,59.91611744,5a9f9e14b5e2110001c6f6f5,64d2fd46c836a06233681665,64dc75a3df1ea72463ade36f,,,,,,,decisionTrl,resources/DB.BMP,resources/DY.BMP,Door3,-0.595370356,0.015740712,1,0,0,1.3573,optionLeft,70,12720,6,14,0,14,0,1,,,,,,,,,,,,,,,,,,,,,,,,,,,,,,,,,,,,,,,
,,,,,,,,2023-08-16_08h15.15.841,HF_wild_card,2022.2.4,Win32,59.91611744,5a9f9e14b5e2110001c6f6f5,64d2fd46c836a06233681665,64dc75a3df1ea72463ade36f,,,,,,,decisionTrl,resources/DB.BMP,resources/DR.BMP,Door3,-0.316666667,0.023148134,1,0,0,1.0288,optionLeft,70,12790,6,15,0,15,0,1,,,,,,,,,,,,,,,,,,,,,,,,,,,,,,,,,,,,,,,
,,,,,,,,2023-08-16_08h15.15.841,HF_wild_card,2022.2.4,Win32,59.91611744,5a9f9e14b5e2110001c6f6f5,64d2fd46c836a06233681665,64dc75a3df1ea72463ade36f,,,,,,,decisionTrl,resources/DR.BMP,resources/DBN.BMP,WildCard_NonEx,-0.276851824,-0.145370399,1,0,0,1.1282,optionLeft,45,12835,6,16,0,16,0,1,,,,,,,,,,,,,,,,,,,,,,,,,,,,,,,,,,,,,,,
,,,,,,,,2023-08-16_08h15.15.841,HF_wild_card,2022.2.4,Win32,59.91611744,5a9f9e14b5e2110001c6f6f5,64d2fd46c836a06233681665,64dc75a3df1ea72463ade36f,,,,,,,decisionTrl,resources/DP.BMP,resources/DR.BMP,WildCard_NonEx,0.279629686,0.006481467,1,0,0,1.2091,optionRight,45,12880,6,17,0,17,0,1,,,,,,,,,,,,,,,,,,,,,,,,,,,,,,,,,,,,,,,
,,,,,,,,2023-08-16_08h15.15.841,HF_wild_card,2022.2.4,Win32,59.91611744,5a9f9e14b5e2110001c6f6f5,64d2fd46c836a06233681665,64dc75a3df1ea72463ade36f,,,,,,,sngl,resources/DY.BMP,resources/Empty.png,Door4,-0.424074046,0.072222222,1,0,0,0.5451,optionLeft,60,12940,6,18,0,18,0,1,,,,,,,,,,,,,,,,,,,,,,,,,,,,,,,,,,,,,,,
,,,,,,,,2023-08-16_08h15.15.841,HF_wild_card,2022.2.4,Win32,59.91611744,5a9f9e14b5e2110001c6f6f5,64d2fd46c836a06233681665,64dc75a3df1ea72463ade36f,,,,,,,sngl,resources/Empty.png,resources/DBN.BMP,Door1,0.387963019,-0.007407422,1,0,0,0.9565,optionRight,30,12970,6,19,0,19,0,1,,,,,,,,,,,,,,,,,,,,,,,,,,,,,,,,,,,,,,,
,,,,,,,,2023-08-16_08h15.15.841,HF_wild_card,2022.2.4,Win32,59.91611744,5a9f9e14b5e2110001c6f6f5,64d2fd46c836a06233681665,64dc75a3df1ea72463ade36f,,,,,,,decisionTrl,resources/DY.BMP,resources/DB.BMP,Door3,0.210185242,-0.066666667,1,0,0,1.1448,optionRight,70,13040,6,20,0,20,0,1,,,,,,,,,,,,,,,,,,,,,,,,,,,,,,,,,,,,,,,
,,,,,,,,2023-08-16_08h15.15.841,HF_wild_card,2022.2.4,Win32,59.91611744,5a9f9e14b5e2110001c6f6f5,64d2fd46c836a06233681665,64dc75a3df1ea72463ade36f,,,,,,,decisionTrl,resources/DR.BMP,resources/DP.BMP,WildCard_NonEx,-0.319444444,-0.022222222,1,0,0,1.588,optionLeft,55,13095,6,21,0,21,0,1,,,,,,,,,,,,,,,,,,,,,,,,,,,,,,,,,,,,,,,
,,,,,,,,2023-08-16_08h15.15.841,HF_wild_card,2022.2.4,Win32,59.91611744,5a9f9e14b5e2110001c6f6f5,64d2fd46c836a06233681665,64dc75a3df1ea72463ade36f,,,,,,,ctch,resources/DY.BMP,resources/DBN.BMP,Door4,-0.435185157,-0.098148176,1,0,0,4.9284,optionLeft,60,13155,6,22,0,22,0,1,,,,,,,,,,,,,,,,,,,,,,,,,,,,,,,,,,,,,,,
,,,,,,,,2023-08-16_08h15.15.841,HF_wild_card,2022.2.4,Win32,59.91611744,5a9f9e14b5e2110001c6f6f5,64d2fd46c836a06233681665,64dc75a3df1ea72463ade36f,,,,,,,decisionTrl,resources/DY.BMP,resources/DB.BMP,Door3,0.379629686,-0.133333333,1,0,0,1.2378,optionRight,70,13225,6,23,0,23,0,1,,,,,,,,,,,,,,,,,,,,,,,,,,,,,,,,,,,,,,,
,,,,,,,,2023-08-16_08h15.15.841,HF_wild_card,2022.2.4,Win32,59.91611744,5a9f9e14b5e2110001c6f6f5,64d2fd46c836a06233681665,64dc75a3df1ea72463ade36f,,,,,,,decisionTrl,resources/DB.BMP,resources/DY.BMP,Door3,-0.397222222,-0.10648151,1,0,0,1.1941,optionLeft,70,13295,6,24,0,24,0,1,,,,,,,,,,,,,,,,,,,,,,,,,,,,,,,,,,,,,,,
,,,,,,,,2023-08-16_08h15.15.841,HF_wild_card,2022.2.4,Win32,59.91611744,5a9f9e14b5e2110001c6f6f5,64d2fd46c836a06233681665,64dc75a3df1ea72463ade36f,,,,,,,sngl,resources/DR.BMP,resources/Empty.png,WildCard_NonEx,-0.291666667,-0.070370399,1,0,0,0.5791,optionLeft,55,13350,6,25,0,25,0,1,,,,,,,,,,,,,,,,,,,,,,,,,,,,,,,,,,,,,,,
,,,,,,,,2023-08-16_08h15.15.841,HF_wild_card,2022.2.4,Win32,59.91611744,5a9f9e14b5e2110001c6f6f5,64d2fd46c836a06233681665,64dc75a3df1ea72463ade36f,,,,,,,ctch,resources/DP.BMP,resources/DB.BMP,Door3,0.525925954,0.00370369,1,0,0,1.2929,optionRight,70,13420,6,26,0,26,0,1,,,,,,,,,,,,,,,,,,,,,,,,,,,,,,,,,,,,,,,
,,,,,,,,2023-08-16_08h15.15.841,HF_wild_card,2022.2.4,Win32,59.91611744,5a9f9e14b5e2110001c6f6f5,64d2fd46c836a06233681665,64dc75a3df1ea72463ade36f,,,,,,,decisionTrl,resources/DBN.BMP,resources/DP.BMP,Door1,-0.410185157,0.057407379,1,0,0,1.4919,optionLeft,30,13450,6,27,0,27,0,1,,,,,,,,,,,,,,,,,,,,,,,,,,,,,,,,,,,,,,,
,,,,,,,,2023-08-16_08h15.15.841,HF_wild_card,2022.2.4,Win32,59.91611744,5a9f9e14b5e2110001c6f6f5,64d2fd46c836a06233681665,64dc75a3df1ea72463ade36f,,,,,,,decisionTrl,resources/DP.BMP,resources/DBN.BMP,Door1,0.55,0.166666667,1,0,0,1.4214,optionRight,30,13480,6,28,0,28,0,1,,,,,,,,,,,,,,,,,,,,,,,,,,,,,,,,,,,,,,,
,,,,,,,,2023-08-16_08h15.15.841,HF_wild_card,2022.2.4,Win32,59.91611744,5a9f9e14b5e2110001c6f6f5,64d2fd46c836a06233681665,64dc75a3df1ea72463ade36f,,,,,,,sngl,resources/Empty.png,resources/DY.BMP,Door4,0.162037065,0.031481467,1,0,0,0.7653,optionRight,80,13560,6,29,0,29,0,1,,,,,,,,,,,,,,,,,,,,,,,,,,,,,,,,,,,,,,,
,,,,,,,,2023-08-16_08h15.15.841,HF_wild_card,2022.2.4,Win32,59.91611744,5a9f9e14b5e2110001c6f6f5,64d2fd46c836a06233681665,64dc75a3df1ea72463ade36f,,,,,,,decisionTrl,resources/DP.BMP,resources/DBN.BMP,Door1,0.398148176,0.132407379,1,0,0,1.345,optionRight,30,13590,6,30,0,30,0,1,,,,,,,,,,,,,,,,,,,,,,,,,,,,,,,,,,,,,,,
,,,,,,,,2023-08-16_08h15.15.841,HF_wild_card,2022.2.4,Win32,59.91611744,5a9f9e14b5e2110001c6f6f5,64d2fd46c836a06233681665,64dc75a3df1ea72463ade36f,,,,,,,decisionTrl,resources/DB.BMP,resources/DY.BMP,Door3,-0.605555556,-0.061111111,1,0,0,1.2523,optionLeft,70,13660,6,31,0,31,0,1,,,,,,,,,,,,,,,,,,,,,,,,,,,,,,,,,,,,,,,
,,,,,,,,2023-08-16_08h15.15.841,HF_wild_card,2022.2.4,Win32,59.91611744,5a9f9e14b5e2110001c6f6f5,64d2fd46c836a06233681665,64dc75a3df1ea72463ade36f,,,,,,,decisionTrl,resources/DB.BMP,resources/DY.BMP,Door3,-0.381481467,-0.101851866,1,0,0,0.8032,optionLeft,70,13730,6,32,0,32,0,1,,,,,,,,,,,,,,,,,,,,,,,,,,,,,,,,,,,,,,,
,,,,,,,,2023-08-16_08h15.15.841,HF_wild_card,2022.2.4,Win32,59.91611744,5a9f9e14b5e2110001c6f6f5,64d2fd46c836a06233681665,64dc75a3df1ea72463ade36f,,,,,,,decisionTrl,resources/DBN.BMP,resources/DP.BMP,Door1,-0.276851824,-0.00648151,1,0,0,4.1445,optionLeft,30,13760,6,33,0,33,0,1,,,,,,,,,,,,,,,,,,,,,,,,,,,,,,,,,,,,,,,
,,,,,,,,2023-08-16_08h15.15.841,HF_wild_card,2022.2.4,Win32,59.91611744,5a9f9e14b5e2110001c6f6f5,64d2fd46c836a06233681665,64dc75a3df1ea72463ade36f,,,,,,,decisionTrl,resources/DP.BMP,resources/DBN.BMP,Door1,0.276851908,0.008333333,1,0,0,0.9452,optionRight,30,13790,6,34,0,34,0,1,,,,,,,,,,,,,,,,,,,,,,,,,,,,,,,,,,,,,,,
,,,,,,,,2023-08-16_08h15.15.841,HF_wild_card,2022.2.4,Win32,59.91611744,5a9f9e14b5e2110001c6f6f5,64d2fd46c836a06233681665,64dc75a3df1ea72463ade36f,,,,,,,ctch,resources/DY.BMP,resources/DBN.BMP,Door4,-0.360185157,-0.077777778,1,0,0,1.0286,optionLeft,60,13850,6,35,0,35,0,1,,,,,,,,,,,,,,,,,,,,,,,,,,,,,,,,,,,,,,,
,,,,,,,,2023-08-16_08h15.15.841,HF_wild_card,2022.2.4,Win32,59.91611744,5a9f9e14b5e2110001c6f6f5,64d2fd46c836a06233681665,64dc75a3df1ea72463ade36f,,,,,,,ctch,resources/DP.BMP,resources/DB.BMP,Door3,0.38148151,-0.095370399,1,0,0,1.0303,optionRight,70,13920,6,36,0,36,0,1,,,,,,,,,,,,,,,,,,,,,,,,,,,,,,,,,,,,,,,
,,,,,,,,2023-08-16_08h15.15.841,HF_wild_card,2022.2.4,Win32,59.91611744,5a9f9e14b5e2110001c6f6f5,64d2fd46c836a06233681665,64dc75a3df1ea72463ade36f,,,,,,,ctch,resources/DB.BMP,resources/DP.BMP,Door3,-0.266666667,-0.016666667,1,0,0,0.7617,optionLeft,70,13990,6,37,0,37,0,1,,,,,,,,,,,,,,,,,,,,,,,,,,,,,,,,,,,,,,,
,,,,,,,,2023-08-16_08h15.15.841,HF_wild_card,2022.2.4,Win32,59.91611744,5a9f9e14b5e2110001c6f6f5,64d2fd46c836a06233681665,64dc75a3df1ea72463ade36f,,,,,,,sngl,resources/Empty.png,resources/DB.BMP,Door3,0.469444444,-0.025,1,0,0,0.673,optionRight,70,14060,6,38,0,38,0,1,,,,,,,,,,,,,,,,,,,,,,,,,,,,,,,,,,,,,,,
,,,,,,,,2023-08-16_08h15.15.841,HF_wild_card,2022.2.4,Win32,59.91611744,5a9f9e14b5e2110001c6f6f5,64d2fd46c836a06233681665,64dc75a3df1ea72463ade36f,,,,,,,decisionTrl,resources/DY.BMP,resources/DR.BMP,Door4,-0.433333333,-0.038888889,1,0,0,0.827,optionLeft,60,14120,6,39,0,39,0,1,,,,,,,,,,,,,,,,,,,,,,,,,,,,,,,,,,,,,,,
,,,,,,,,2023-08-16_08h15.15.841,HF_wild_card,2022.2.4,Win32,59.91611744,5a9f9e14b5e2110001c6f6f5,64d2fd46c836a06233681665,64dc75a3df1ea72463ade36f,,,,,,,decisionTrl,resources/DP.BMP,resources/DBN.BMP,Door1,0.448148176,0.136111111,1,0,0,1.1269,optionRight,30,14150,6,40,0,40,0,1,,,,,,,,,,,,,,,,,,,,,,,,,,,,,,,,,,,,,,,
,,,,,,,,2023-08-16_08h15.15.841,HF_wild_card,2022.2.4,Win32,59.91611744,5a9f9e14b5e2110001c6f6f5,64d2fd46c836a06233681665,64dc75a3df1ea72463ade36f,,,,,,,decisionTrl,resources/DBN.BMP,resources/DP.BMP,Door1,-0.627777778,-0.02129631,1,0,0,1.1218,optionLeft,30,14180,6,41,0,41,0,1,,,,,,,,,,,,,,,,,,,,,,,,,,,,,,,,,,,,,,,
,,,,,,,,2023-08-16_08h15.15.841,HF_wild_card,2022.2.4,Win32,59.91611744,5a9f9e14b5e2110001c6f6f5,64d2fd46c836a06233681665,64dc75a3df1ea72463ade36f,,,,,,,sngl,resources/Empty.png,resources/DP.BMP,Door2,0.161111111,0.025,1,0,0,0.6227,optionRight,40,14220,6,42,0,42,0,1,,,,,,,,,,,,,,,,,,,,,,,,,,,,,,,,,,,,,,,
,,,,,,,,2023-08-16_08h15.15.841,HF_wild_card,2022.2.4,Win32,59.91611744,5a9f9e14b5e2110001c6f6f5,64d2fd46c836a06233681665,64dc75a3df1ea72463ade36f,,,,,,,ctch,resources/DB.BMP,resources/DP.BMP,Door3,-0.362962935,-0.034259288,1,0,0,0.9069,optionLeft,70,14290,6,43,0,43,0,1,,,,,,,,,,,,,,,,,,,,,,,,,,,,,,,,,,,,,,,
,,,,,,,,2023-08-16_08h15.15.841,HF_wild_card,2022.2.4,Win32,59.91611744,5a9f9e14b5e2110001c6f6f5,64d2fd46c836a06233681665,64dc75a3df1ea72463ade36f,,,,,,,,,,,,,,,,,,,,,,,,,,5,0,5,0,1,,,,,,,,,,,,,,,,,,,,,,,,,,,,,,,,,,
,,,,,,,,2023-08-16_08h15.15.841,HF_wild_card,2022.2.4,Win32,59.91611744,5a9f9e14b5e2110001c6f6f5,64d2fd46c836a06233681665,64dc75a3df1ea72463ade36f,,,,,,,ctch,resources/DP.BMP,resources/DB.BMP,Door3,0.338888889,-0.090740755,1,0,0,0.9663,optionRight,70,14360,7,0,0,0,0,1,,,,,,,,,,,,,,,,,,,,,,,,,,,,,,,,,,,,,,,
,,,,,,,,2023-08-16_08h15.15.841,HF_wild_card,2022.2.4,Win32,59.91611744,5a9f9e14b5e2110001c6f6f5,64d2fd46c836a06233681665,64dc75a3df1ea72463ade36f,,,,,,,decisionTrl,resources/DY.BMP,resources/DB.BMP,Door4,-0.32870369,-0.070370399,1,0,0,0.9812,optionLeft,80,14440,7,1,0,1,0,1,,,,,,,,,,,,,,,,,,,,,,,,,,,,,,,,,,,,,,,
,,,,,,,,2023-08-16_08h15.15.841,HF_wild_card,2022.2.4,Win32,59.91611744,5a9f9e14b5e2110001c6f6f5,64d2fd46c836a06233681665,64dc75a3df1ea72463ade36f,,,,,,,decisionTrl,resources/DBN.BMP,resources/DP.BMP,Door1,-0.410185157,0.062962935,1,0,0,1.3982,optionLeft,30,14470,7,2,0,2,0,1,,,,,,,,,,,,,,,,,,,,,,,,,,,,,,,,,,,,,,,
,,,,,,,,2023-08-16_08h15.15.841,HF_wild_card,2022.2.4,Win32,59.91611744,5a9f9e14b5e2110001c6f6f5,64d2fd46c836a06233681665,64dc75a3df1ea72463ade36f,,,,,,,decisionTrl,resources/DP.BMP,resources/DBN.BMP,Door1,0.519444444,0.126851824,1,0,0,1.5316,optionRight,30,14500,7,3,0,3,0,1,,,,,,,,,,,,,,,,,,,,,,,,,,,,,,,,,,,,,,,
,,,,,,,,2023-08-16_08h15.15.841,HF_wild_card,2022.2.4,Win32,59.91611744,5a9f9e14b5e2110001c6f6f5,64d2fd46c836a06233681665,64dc75a3df1ea72463ade36f,,,,,,,decisionTrl,resources/DBN.BMP,resources/DP.BMP,Door1,-0.313888889,0.026851824,1,0,0,0.8305,optionLeft,30,14530,7,4,0,4,0,1,,,,,,,,,,,,,,,,,,,,,,,,,,,,,,,,,,,,,,,
,,,,,,,,2023-08-16_08h15.15.841,HF_wild_card,2022.2.4,Win32,59.91611744,5a9f9e14b5e2110001c6f6f5,64d2fd46c836a06233681665,64dc75a3df1ea72463ade36f,,,,,,,ctch,resources/DBN.BMP,resources/DY.BMP,Door4,0.423148176,0.008333333,1,0,0,1.1166,optionRight,60,14590,7,5,0,5,0,1,,,,,,,,,,,,,,,,,,,,,,,,,,,,,,,,,,,,,,,
,,,,,,,,2023-08-16_08h15.15.841,HF_wild_card,2022.2.4,Win32,59.91611744,5a9f9e14b5e2110001c6f6f5,64d2fd46c836a06233681665,64dc75a3df1ea72463ade36f,,,,,,,decisionTrl,resources/DY.BMP,resources/DB.BMP,Door3,0.339814843,-0.024074088,1,0,0,0.9153,optionRight,70,14660,7,6,0,6,0,1,,,,,,,,,,,,,,,,,,,,,,,,,,,,,,,,,,,,,,,
,,,,,,,,2023-08-16_08h15.15.841,HF_wild_card,2022.2.4,Win32,59.91611744,5a9f9e14b5e2110001c6f6f5,64d2fd46c836a06233681665,64dc75a3df1ea72463ade36f,,,,,,,ctch,resources/DB.BMP,resources/DP.BMP,Door3,-0.354629601,-0.029629644,1,0,0,1.0145,optionLeft,70,14730,7,7,0,7,0,1,,,,,,,,,,,,,,,,,,,,,,,,,,,,,,,,,,,,,,,
,,,,,,,,2023-08-16_08h15.15.841,HF_wild_card,2022.2.4,Win32,59.91611744,5a9f9e14b5e2110001c6f6f5,64d2fd46c836a06233681665,64dc75a3df1ea72463ade36f,,,,,,,decisionTrl,resources/DP.BMP,resources/DBN.BMP,Door1,0.337963019,0.027777778,1,0,0,1.531,optionRight,30,14760,7,8,0,8,0,1,,,,,,,,,,,,,,,,,,,,,,,,,,,,,,,,,,,,,,,
,,,,,,,,2023-08-16_08h15.15.841,HF_wild_card,2022.2.4,Win32,59.91611744,5a9f9e14b5e2110001c6f6f5,64d2fd46c836a06233681665,64dc75a3df1ea72463ade36f,,,,,,,ctch,resources/DY.BMP,resources/DBN.BMP,Door4,-0.334259245,-0.018518533,1,0,0,0.7979,optionLeft,60,14820,7,9,0,9,0,1,,,,,,,,,,,,,,,,,,,,,,,,,,,,,,,,,,,,,,,
,,,,,,,,2023-08-16_08h15.15.841,HF_wild_card,2022.2.4,Win32,59.91611744,5a9f9e14b5e2110001c6f6f5,64d2fd46c836a06233681665,64dc75a3df1ea72463ade36f,,,,,,,ctch,resources/DB.BMP,resources/DP.BMP,Door3,-0.287962935,0.000925912,1,0,0,0.9149,optionLeft,70,14890,7,10,0,10,0,1,,,,,,,,,,,,,,,,,,,,,,,,,,,,,,,,,,,,,,,
,,,,,,,,2023-08-16_08h15.15.841,HF_wild_card,2022.2.4,Win32,59.91611744,5a9f9e14b5e2110001c6f6f5,64d2fd46c836a06233681665,64dc75a3df1ea72463ade36f,,,,,,,decisionTrl,resources/DB.BMP,resources/DY.BMP,Door3,-0.398148134,0.004629601,1,0,0,1.265,optionLeft,70,14960,7,11,0,11,0,1,,,,,,,,,,,,,,,,,,,,,,,,,,,,,,,,,,,,,,,
,,,,,,,,2023-08-16_08h15.15.841,HF_wild_card,2022.2.4,Win32,59.91611744,5a9f9e14b5e2110001c6f6f5,64d2fd46c836a06233681665,64dc75a3df1ea72463ade36f,,,,,,,ctch,resources/DP.BMP,resources/DB.BMP,Door3,0.324074131,0.039814801,1,0,0,0.8142,optionRight,70,15030,7,12,0,12,0,1,,,,,,,,,,,,,,,,,,,,,,,,,,,,,,,,,,,,,,,
,,,,,,,,2023-08-16_08h15.15.841,HF_wild_card,2022.2.4,Win32,59.91611744,5a9f9e14b5e2110001c6f6f5,64d2fd46c836a06233681665,64dc75a3df1ea72463ade36f,,,,,,,decisionTrl,resources/DB.BMP,resources/DY.BMP,Door3,-0.24351849,0.025,1,0,0,0.9645,optionLeft,70,15100,7,13,0,13,0,1,,,,,,,,,,,,,,,,,,,,,,,,,,,,,,,,,,,,,,,
,,,,,,,,2023-08-16_08h15.15.841,HF_wild_card,2022.2.4,Win32,59.91611744,5a9f9e14b5e2110001c6f6f5,64d2fd46c836a06233681665,64dc75a3df1ea72463ade36f,,,,,,,decisionTrl,resources/DB.BMP,resources/DY.BMP,Door3,-0.244444444,-0.00648151,1,0,0,0.7329,optionLeft,70,15170,7,14,0,14,0,1,,,,,,,,,,,,,,,,,,,,,,,,,,,,,,,,,,,,,,,
,,,,,,,,2023-08-16_08h15.15.841,HF_wild_card,2022.2.4,Win32,59.91611744,5a9f9e14b5e2110001c6f6f5,64d2fd46c836a06233681665,64dc75a3df1ea72463ade36f,,,,,,,decisionTrl,resources/DP.BMP,resources/DBN.BMP,Door1,0.316666667,0.101851824,1,0,0,1.5977,optionRight,30,15200,7,15,0,15,0,1,,,,,,,,,,,,,,,,,,,,,,,,,,,,,,,,,,,,,,,
,,,,,,,,2023-08-16_08h15.15.841,HF_wild_card,2022.2.4,Win32,59.91611744,5a9f9e14b5e2110001c6f6f5,64d2fd46c836a06233681665,64dc75a3df1ea72463ade36f,,,,,,,decisionTrl,resources/DP.BMP,resources/DBN.BMP,Door1,0.283333333,0.026851824,1,0,0,0.7318,optionRight,30,15230,7,16,0,16,0,1,,,,,,,,,,,,,,,,,,,,,,,,,,,,,,,,,,,,,,,
,,,,,,,,2023-08-16_08h15.15.841,HF_wild_card,2022.2.4,Win32,59.91611744,5a9f9e14b5e2110001c6f6f5,64d2fd46c836a06233681665,64dc75a3df1ea72463ade36f,,,,,,,ctch,resources/DY.BMP,resources/DBN.BMP,Door4,-0.233333333,0.007407379,1,0,0,1.1133,optionLeft,60,15290,7,17,0,17,0,1,,,,,,,,,,,,,,,,,,,,,,,,,,,,,,,,,,,,,,,
,,,,,,,,2023-08-16_08h15.15.841,HF_wild_card,2022.2.4,Win32,59.91611744,5a9f9e14b5e2110001c6f6f5,64d2fd46c836a06233681665,64dc75a3df1ea72463ade36f,,,,,,,decisionTrl,resources/DBN.BMP,resources/DP.BMP,Door1,-0.327777778,0.052777778,1,0,0,0.9479,optionLeft,30,15320,7,18,0,18,0,1,,,,,,,,,,,,,,,,,,,,,,,,,,,,,,,,,,,,,,,
,,,,,,,,2023-08-16_08h15.15.841,HF_wild_card,2022.2.4,Win32,59.91611744,5a9f9e14b5e2110001c6f6f5,64d2fd46c836a06233681665,64dc75a3df1ea72463ade36f,,,,,,,decisionTrl,resources/DY.BMP,resources/DB.BMP,Door3,0.272222222,0.00370369,1,0,0,1.2816,optionRight,70,15390,7,19,0,19,0,1,,,,,,,,,,,,,,,,,,,,,,,,,,,,,,,,,,,,,,,
,,,,,,,,2023-08-16_08h15.15.841,HF_wild_card,2022.2.4,Win32,59.91611744,5a9f9e14b5e2110001c6f6f5,64d2fd46c836a06233681665,64dc75a3df1ea72463ade36f,,,,,,,decisionTrl,resources/DB.BMP,resources/DY.BMP,Door3,-0.271296268,0.022222222,1,0,0,0.7647,optionLeft,70,15460,7,20,0,20,0,1,,,,,,,,,,,,,,,,,,,,,,,,,,,,,,,,,,,,,,,
,,,,,,,,2023-08-16_08h15.15.841,HF_wild_card,2022.2.4,Win32,59.91611744,5a9f9e14b5e2110001c6f6f5,64d2fd46c836a06233681665,64dc75a3df1ea72463ade36f,,,,,,,decisionTrl,resources/DBN.BMP,resources/DP.BMP,Door1,-0.45370369,0.038888889,1,0,0,1.0479,optionLeft,30,15490,7,21,0,21,0,1,,,,,,,,,,,,,,,,,,,,,,,,,,,,,,,,,,,,,,,
,,,,,,,,2023-08-16_08h15.15.841,HF_wild_card,2022.2.4,Win32,59.91611744,5a9f9e14b5e2110001c6f6f5,64d2fd46c836a06233681665,64dc75a3df1ea72463ade36f,,,,,,,decisionTrl,resources/DY.BMP,resources/DB.BMP,Door3,0.300925954,0.005555556,1,0,0,1.5644,optionRight,70,15560,7,22,0,22,0,1,,,,,,,,,,,,,,,,,,,,,,,,,,,,,,,,,,,,,,,
,,,,,,,,2023-08-16_08h15.15.841,HF_wild_card,2022.2.4,Win32,59.91611744,5a9f9e14b5e2110001c6f6f5,64d2fd46c836a06233681665,64dc75a3df1ea72463ade36f,,,,,,,decisionTrl,resources/DY.BMP,resources/DB.BMP,Door3,0.242592621,-0.008333333,1,0,0,0.7315,optionRight,70,15630,7,23,0,23,0,1,,,,,,,,,,,,,,,,,,,,,,,,,,,,,,,,,,,,,,,
,,,,,,,,2023-08-16_08h15.15.841,HF_wild_card,2022.2.4,Win32,59.91611744,5a9f9e14b5e2110001c6f6f5,64d2fd46c836a06233681665,64dc75a3df1ea72463ade36f,,,,,,,ctch,resources/DY.BMP,resources/DBN.BMP,Door4,-0.290740712,0.019444444,1,0,0,1.1817,optionLeft,60,15690,7,24,0,24,0,1,,,,,,,,,,,,,,,,,,,,,,,,,,,,,,,,,,,,,,,
,,,,,,,,2023-08-16_08h15.15.841,HF_wild_card,2022.2.4,Win32,59.91611744,5a9f9e14b5e2110001c6f6f5,64d2fd46c836a06233681665,64dc75a3df1ea72463ade36f,,,,,,,ctch,resources/DP.BMP,resources/DB.BMP,Door3,0.304629686,0.022222222,1,0,0,0.9314,optionRight,70,15760,7,25,0,25,0,1,,,,,,,,,,,,,,,,,,,,,,,,,,,,,,,,,,,,,,,
,,,,,,,,2023-08-16_08h15.15.841,HF_wild_card,2022.2.4,Win32,59.91611744,5a9f9e14b5e2110001c6f6f5,64d2fd46c836a06233681665,64dc75a3df1ea72463ade36f,,,,,,,decisionTrl,resources/DP.BMP,resources/DBN.BMP,Door1,0.292592621,0.027777778,1,0,0,0.9816,optionRight,30,15790,7,26,0,26,0,1,,,,,,,,,,,,,,,,,,,,,,,,,,,,,,,,,,,,,,,
,,,,,,,,2023-08-16_08h15.15.841,HF_wild_card,2022.2.4,Win32,59.91611744,5a9f9e14b5e2110001c6f6f5,64d2fd46c836a06233681665,64dc75a3df1ea72463ade36f,,,,,,,decisionTrl,resources/DY.BMP,resources/DB.BMP,Door3,0.233333333,-0.027777778,1,0,0,1.0639,optionRight,70,15860,7,27,0,27,0,1,,,,,,,,,,,,,,,,,,,,,,,,,,,,,,,,,,,,,,,
,,,,,,,,2023-08-16_08h15.15.841,HF_wild_card,2022.2.4,Win32,59.91611744,5a9f9e14b5e2110001c6f6f5,64d2fd46c836a06233681665,64dc75a3df1ea72463ade36f,,,,,,,ctch,resources/DB.BMP,resources/DP.BMP,Door3,-0.385185157,-0.053703732,1,0,0,1.3482,optionLeft,70,15930,7,28,0,28,0,1,,,,,,,,,,,,,,,,,,,,,,,,,,,,,,,,,,,,,,,
,,,,,,,,2023-08-16_08h15.15.841,HF_wild_card,2022.2.4,Win32,59.91611744,5a9f9e14b5e2110001c6f6f5,64d2fd46c836a06233681665,64dc75a3df1ea72463ade36f,,,,,,,decisionTrl,resources/DB.BMP,resources/DY.BMP,Door3,-0.331481467,-0.037037065,1,0,0,1.2993,optionLeft,70,16000,7,29,0,29,0,1,,,,,,,,,,,,,,,,,,,,,,,,,,,,,,,,,,,,,,,
,,,,,,,,2023-08-16_08h15.15.841,HF_wild_card,2022.2.4,Win32,59.91611744,5a9f9e14b5e2110001c6f6f5,64d2fd46c836a06233681665,64dc75a3df1ea72463ade36f,,,,,,,decisionTrl,resources/DP.BMP,resources/DBN.BMP,Door1,0.398148176,0.055555556,1,0,0,0.8811,optionRight,30,16030,7,30,0,30,0,1,,,,,,,,,,,,,,,,,,,,,,,,,,,,,,,,,,,,,,,
,,,,,,,,2023-08-16_08h15.15.841,HF_wild_card,2022.2.4,Win32,59.91611744,5a9f9e14b5e2110001c6f6f5,64d2fd46c836a06233681665,64dc75a3df1ea72463ade36f,,,,,,,decisionTrl,resources/DBN.BMP,resources/DP.BMP,Door1,-0.275925912,0.011111111,1,0,0,0.8141,optionLeft,30,16060,7,31,0,31,0,1,,,,,,,,,,,,,,,,,,,,,,,,,,,,,,,,,,,,,,,
,,,,,,,,2023-08-16_08h15.15.841,HF_wild_card,2022.2.4,Win32,59.91611744,5a9f9e14b5e2110001c6f6f5,64d2fd46c836a06233681665,64dc75a3df1ea72463ade36f,,,,,,,decisionTrl,resources/DBN.BMP,resources/DP.BMP,Door1,-0.334259245,0.015740712,1,0,0,0.6984,optionLeft,30,16090,7,32,0,32,0,1,,,,,,,,,,,,,,,,,,,,,,,,,,,,,,,,,,,,,,,
,,,,,,,,2023-08-16_08h15.15.841,HF_wild_card,2022.2.4,Win32,59.91611744,5a9f9e14b5e2110001c6f6f5,64d2fd46c836a06233681665,64dc75a3df1ea72463ade36f,,,,,,,decisionTrl,resources/DB.BMP,resources/DY.BMP,Door3,-0.431481467,-0.003703732,1,0,0,1.1813,optionLeft,70,16160,7,33,0,33,0,1,,,,,,,,,,,,,,,,,,,,,,,,,,,,,,,,,,,,,,,
,,,,,,,,2023-08-16_08h15.15.841,HF_wild_card,2022.2.4,Win32,59.91611744,5a9f9e14b5e2110001c6f6f5,64d2fd46c836a06233681665,64dc75a3df1ea72463ade36f,,,,,,,ctch,resources/DBN.BMP,resources/DY.BMP,Door4,0.270370399,-0.002777778,1,0,0,0.7484,optionRight,60,16220,7,34,0,34,0,1,,,,,,,,,,,,,,,,,,,,,,,,,,,,,,,,,,,,,,,
,,,,,,,,2023-08-16_08h15.15.841,HF_wild_card,2022.2.4,Win32,59.91611744,5a9f9e14b5e2110001c6f6f5,64d2fd46c836a06233681665,64dc75a3df1ea72463ade36f,,,,,,,ctch,resources/DBN.BMP,resources/DY.BMP,Door4,0.374074131,-0.002777778,1,0,0,0.812,optionRight,80,16300,7,35,0,35,0,1,,,,,,,,,,,,,,,,,,,,,,,,,,,,,,,,,,,,,,,
,,,,,,,,2023-08-16_08h15.15.841,HF_wild_card,2022.2.4,Win32,59.91611744,5a9f9e14b5e2110001c6f6f5,64d2fd46c836a06233681665,64dc75a3df1ea72463ade36f,,,,,,,,,,,,,,,,,,,,,,,,,,6,0,6,0,1,,,,,,,,,,,,,,,,,,,,,,,,,,,,,,,,,,
,,,,,,,,2023-08-16_08h15.15.841,HF_wild_card,2022.2.4,Win32,59.91611744,5a9f9e14b5e2110001c6f6f5,64d2fd46c836a06233681665,64dc75a3df1ea72463ade36f,,,,,,,,,,,,,,,,,,,,,,,,,,,,,,,4,,,,,,,,,,,,,,,,,,,,,,,,,,,,,,,,,
,,,,,,,,2023-08-16_08h15.15.841,HF_wild_card,2022.2.4,Win32,59.91611744,5a9f9e14b5e2110001c6f6f5,64d2fd46c836a06233681665,64dc75a3df1ea72463ade36f,,,,,,,,,,,,,,,,,,,,,,,,,,,,,,,,,,,,,,,,,,,,,,,,,,,,,,,,,,,,,,,,
,,,,,,,,2023-08-16_08h15.15.841,HF_wild_card,2022.2.4,Win32,59.91611744,5a9f9e14b5e2110001c6f6f5,64d2fd46c836a06233681665,64dc75a3df1ea72463ade36f,,,,,,,,,,,,,,,,,,,,,,,,,,,,,,,,20,Door2,resources/DP.BMP,0,0,0,0,1,,,,,,,,,,,,,,,,,,,,,,,,,
,,,,,,,,2023-08-16_08h15.15.841,HF_wild_card,2022.2.4,Win32,59.91611744,5a9f9e14b5e2110001c6f6f5,64d2fd46c836a06233681665,64dc75a3df1ea72463ade36f,,,,,,,,,,,,,,,,,,,,,,,,,,,,,,,,40,Door1,resources/DBN.BMP,1,0,1,0,1,,,,,,,,,,,,,,,,,,,,,,,,,
,,,,,,,,2023-08-16_08h15.15.841,HF_wild_card,2022.2.4,Win32,59.91611744,5a9f9e14b5e2110001c6f6f5,64d2fd46c836a06233681665,64dc75a3df1ea72463ade36f,,,,,,,,,,,,,,,,,,,,,,,,,,,,,,,,70,Door3,resources/DB.BMP,2,0,2,0,1,,,,,,,,,,,,,,,,,,,,,,,,,
,,,,,,,,2023-08-16_08h15.15.841,HF_wild_card,2022.2.4,Win32,59.91611744,5a9f9e14b5e2110001c6f6f5,64d2fd46c836a06233681665,64dc75a3df1ea72463ade36f,,,,,,,,,,,,,,,,,,,,,,,,,,,,,,,,30,WC_extreme,resources/DG.BMP,3,0,3,0,1,,,,,,,,,,,,,,,,,,,,,,,,,
,,,,,,,,2023-08-16_08h15.15.841,HF_wild_card,2022.2.4,Win32,59.91611744,5a9f9e14b5e2110001c6f6f5,64d2fd46c836a06233681665,64dc75a3df1ea72463ade36f,,,,,,,,,,,,,,,,,,,,,,,,,,,,,,,,45,WC_nonExtreme,resources/DR.BMP,4,0,4,0,1,,,,,,,,,,,,,,,,,,,,,,,,,
,,,,,,,,2023-08-16_08h15.15.841,HF_wild_card,2022.2.4,Win32,59.91611744,5a9f9e14b5e2110001c6f6f5,64d2fd46c836a06233681665,64dc75a3df1ea72463ade36f,,,,,,,,,,,,,,,,,,,,,,,,,,,,,,,,60,Door4,resources/DY.BMP,5,0,5,0,1,,,,,,,,,,,,,,,,,,,,,,,,,
,,,,,,,,2023-08-16_08h15.15.841,HF_wild_card,2022.2.4,Win32,59.91611744,5a9f9e14b5e2110001c6f6f5,64d2fd46c836a06233681665,64dc75a3df1ea72463ade36f,,,,,,,,,,,,,,,,,,,,,,,,,,,,,,,,,,,,,,,,,,,,,,,,,,,,,,,,,,,,,,,,
,,,,,,,,2023-08-16_08h15.15.841,HF_wild_card,2022.2.4,Win32,59.91611744,5a9f9e14b5e2110001c6f6f5,64d2fd46c836a06233681665,64dc75a3df1ea72463ade36f,,,,,,,,,,,,,,,,,,,,,,,,,,,,,,,,,,,,,,,,0,0,0,0,1,,,,,,,,,,,,,,,,,,,,
