Condition,Low fixed image (Door1),Low risky image (Door2),High fixed image (Door3),High risky image (Door4),Extreme Wild Card,NonExtreme Wild Card,,date,expName,psychopyVersion,OS,frameRate,PROLIFIC_PID,STUDY_ID,SESSION_ID,mouse_2.x,mouse_2.y,mouse_2.leftButton,mouse_2.midButton,mouse_2.rightButton,mouse_2.clicked_name,Trial Type,Left Option Image,Right Option Image,Chosen Door,mouse.x,mouse.y,mouse.leftButton,mouse.midButton,mouse.rightButton,mouse.time,mouse.clicked_name,Feedback,Cumulative Reward,Block,trial.thisRepN,trial.thisTrialN,trial.thisN,trial.thisIndex,trial.ran,blocks.thisRepN,blocks.thisTrialN,blocks.thisN,blocks.thisIndex,blocks.ran,Money conversion,First Outcome Reported,Shown Door (First Outcome),Displayed Image (First Outcome),outcomes.thisRepN,outcomes.thisTrialN,outcomes.thisN,outcomes.thisIndex,outcomes.ran,judgments.thisRepN,judgments.thisTrialN,judgments.thisN,judgments.thisIndex,judgments.ran,freqMouse.x,freqMouse.y,freqMouse.leftButton,freqMouse.midButton,freqMouse.rightButton,freqMouse.clicked_name,FQJ for first outcome,FQJ for second outcome,Shown Door,Displayed Image,trials.thisRepN,trials.thisTrialN,trials.thisN,trials.thisIndex,trials.ran,judgBlock.thisRepN,judgBlock.thisTrialN,judgBlock.thisN,judgBlock.thisIndex,judgBlock.ran
1,resources/DY.BMP,resources/DG.BMP,resources/DB.BMP,resources/DR.BMP,resources/DP.BMP,resources/DBN.BMP,,2023-08-16_08h43.36.330,HF_wild_card,2022.2.4,Win32,60.78288354,5996f68a9039240001432124,64d2fd46c836a06233681665,64dc7d6b2ac0a69ca4696268,,,,,,,,,,,,,,,,,,,,,,,,,,,,,,,,,,,,,,,,,,,,,,,,,,,,,,,,,,,,,,,,
,,,,,,,,2023-08-16_08h43.36.330,HF_wild_card,2022.2.4,Win32,60.78288354,5996f68a9039240001432124,64d2fd46c836a06233681665,64dc7d6b2ac0a69ca4696268,-0.005138746,-0.411613566,1,0,0,agree,,,,,,,,,,,,,,,,,,,,,,,,,,,,,,,,,,,,,,,,,,,,,,,,,,,,,,,,,,
,,,,,,,,2023-08-16_08h43.36.330,HF_wild_card,2022.2.4,Win32,60.78288354,5996f68a9039240001432124,64d2fd46c836a06233681665,64dc7d6b2ac0a69ca4696268,,,,,,,,,,,,,,,,,,,,,,,,,,,,,,,,,,,,,,,,,,,,,,,,,,,,,,,,,,,,,,,,
,,,,,,,,2023-08-16_08h43.36.330,HF_wild_card,2022.2.4,Win32,60.78288354,5996f68a9039240001432124,64d2fd46c836a06233681665,64dc7d6b2ac0a69ca4696268,,,,,,,decisionTrl,resources/DY.BMP,resources/DBN.BMP,Door1,-0.339157246,-0.052929085,1,0,0,1.5373,optionLeft,30,30,1,0,0,0,0,1,,,,,,,,,,,,,,,,,,,,,,,,,,,,,,,,,,,,,,,
,,,,,,,,2023-08-16_08h43.36.330,HF_wild_card,2022.2.4,Win32,60.78288354,5996f68a9039240001432124,64d2fd46c836a06233681665,64dc7d6b2ac0a69ca4696268,,,,,,,sngl,resources/DB.BMP,resources/Empty.png,Door3,-0.331963001,-0.043679342,1,0,0,0.9473,optionLeft,70,100,1,1,0,1,0,1,,,,,,,,,,,,,,,,,,,,,,,,,,,,,,,,,,,,,,,
,,,,,,,,2023-08-16_08h43.36.330,HF_wild_card,2022.2.4,Win32,60.78288354,5996f68a9039240001432124,64d2fd46c836a06233681665,64dc7d6b2ac0a69ca4696268,,,,,,,ctch,resources/DY.BMP,resources/DR.BMP,Door1,-0.394655704,-0.007708119,1,0,0,0.5449,optionLeft,30,130,1,2,0,2,0,1,,,,,,,,,,,,,,,,,,,,,,,,,,,,,,,,,,,,,,,
,,,,,,,,2023-08-16_08h43.36.330,HF_wild_card,2022.2.4,Win32,60.78288354,5996f68a9039240001432124,64d2fd46c836a06233681665,64dc7d6b2ac0a69ca4696268,,,,,,,sngl,resources/Empty.png,resources/DR.BMP,Door4,0.495375128,-0.00668037,1,0,0,0.5915,optionRight,60,190,1,3,0,3,0,1,,,,,,,,,,,,,,,,,,,,,,,,,,,,,,,,,,,,,,,
,,,,,,,,2023-08-16_08h43.36.330,HF_wild_card,2022.2.4,Win32,60.78288354,5996f68a9039240001432124,64d2fd46c836a06233681665,64dc7d6b2ac0a69ca4696268,,,,,,,ctch,resources/DB.BMP,resources/DG.BMP,Door2,0.27954779,-0.003597122,1,0,0,1.1972,optionRight,40,230,1,4,0,4,0,1,,,,,,,,,,,,,,,,,,,,,,,,,,,,,,,,,,,,,,,
,,,,,,,,2023-08-16_08h43.36.330,HF_wild_card,2022.2.4,Win32,60.78288354,5996f68a9039240001432124,64d2fd46c836a06233681665,64dc7d6b2ac0a69ca4696268,,,,,,,decisionTrl,resources/DR.BMP,resources/DB.BMP,Door4,-0.343268243,-0.045734841,1,0,0,0.6477,optionLeft,60,290,1,5,0,5,0,1,,,,,,,,,,,,,,,,,,,,,,,,,,,,,,,,,,,,,,,
,,,,,,,,2023-08-16_08h43.36.330,HF_wild_card,2022.2.4,Win32,60.78288354,5996f68a9039240001432124,64d2fd46c836a06233681665,64dc7d6b2ac0a69ca4696268,,,,,,,ctch,resources/DB.BMP,resources/DG.BMP,Door3,-0.224049332,-0.042651593,1,0,0,0.8384,optionLeft,70,360,1,6,0,6,0,1,,,,,,,,,,,,,,,,,,,,,,,,,,,,,,,,,,,,,,,
,,,,,,,,2023-08-16_08h43.36.330,HF_wild_card,2022.2.4,Win32,60.78288354,5996f68a9039240001432124,64d2fd46c836a06233681665,64dc7d6b2ac0a69ca4696268,,,,,,,ctch,resources/DY.BMP,resources/DR.BMP,Door4,0.356628983,-0.007708119,1,0,0,0.532,optionRight,60,420,1,7,0,7,0,1,,,,,,,,,,,,,,,,,,,,,,,,,,,,,,,,,,,,,,,
,,,,,,,,2023-08-16_08h43.36.330,HF_wild_card,2022.2.4,Win32,60.78288354,5996f68a9039240001432124,64d2fd46c836a06233681665,64dc7d6b2ac0a69ca4696268,,,,,,,ctch,resources/DR.BMP,resources/DY.BMP,Door4,-0.22610483,-0.011819116,1,0,0,0.6137,optionLeft,60,480,1,8,0,8,0,1,,,,,,,,,,,,,,,,,,,,,,,,,,,,,,,,,,,,,,,
,,,,,,,,2023-08-16_08h43.36.330,HF_wild_card,2022.2.4,Win32,60.78288354,5996f68a9039240001432124,64d2fd46c836a06233681665,64dc7d6b2ac0a69ca4696268,,,,,,,sngl,resources/Empty.png,resources/DBN.BMP,WildCard_NonEx,0.301130524,0.041623844,1,0,0,0.7615,optionRight,55,535,1,9,0,9,0,1,,,,,,,,,,,,,,,,,,,,,,,,,,,,,,,,,,,,,,,
,,,,,,,,2023-08-16_08h43.36.330,HF_wild_card,2022.2.4,Win32,60.78288354,5996f68a9039240001432124,64d2fd46c836a06233681665,64dc7d6b2ac0a69ca4696268,,,,,,,ctch,resources/DG.BMP,resources/DB.BMP,Door3,0.273381295,0.014902364,1,0,0,0.5813,optionRight,70,605,1,10,0,10,0,1,,,,,,,,,,,,,,,,,,,,,,,,,,,,,,,,,,,,,,,
,,,,,,,,2023-08-16_08h43.36.330,HF_wild_card,2022.2.4,Win32,60.78288354,5996f68a9039240001432124,64d2fd46c836a06233681665,64dc7d6b2ac0a69ca4696268,,,,,,,ctch,resources/DR.BMP,resources/DY.BMP,Door4,-0.42651593,-0.038540596,1,0,0,0.4816,optionLeft,60,665,1,11,0,11,0,1,,,,,,,,,,,,,,,,,,,,,,,,,,,,,,,,,,,,,,,
,,,,,,,,2023-08-16_08h43.36.330,HF_wild_card,2022.2.4,Win32,60.78288354,5996f68a9039240001432124,64d2fd46c836a06233681665,64dc7d6b2ac0a69ca4696268,,,,,,,decisionTrl,resources/DBN.BMP,resources/DG.BMP,Door2,0.383350462,0.008735868,1,0,0,0.5542,optionRight,40,705,1,12,0,12,0,1,,,,,,,,,,,,,,,,,,,,,,,,,,,,,,,,,,,,,,,
,,,,,,,,2023-08-16_08h43.36.330,HF_wild_card,2022.2.4,Win32,60.78288354,5996f68a9039240001432124,64d2fd46c836a06233681665,64dc7d6b2ac0a69ca4696268,,,,,,,decisionTrl,resources/DB.BMP,resources/DBN.BMP,WildCard_NonEx,0.335046249,-0.000513875,1,0,0,0.4784,optionRight,55,760,1,13,0,13,0,1,,,,,,,,,,,,,,,,,,,,,,,,,,,,,,,,,,,,,,,
,,,,,,,,2023-08-16_08h43.36.330,HF_wild_card,2022.2.4,Win32,60.78288354,5996f68a9039240001432124,64d2fd46c836a06233681665,64dc7d6b2ac0a69ca4696268,,,,,,,decisionTrl,resources/DB.BMP,resources/DR.BMP,Door3,-0.303186023,-0.004624872,1,0,0,0.4148,optionLeft,70,830,1,14,0,14,0,1,,,,,,,,,,,,,,,,,,,,,,,,,,,,,,,,,,,,,,,
,,,,,,,,2023-08-16_08h43.36.330,HF_wild_card,2022.2.4,Win32,60.78288354,5996f68a9039240001432124,64d2fd46c836a06233681665,64dc7d6b2ac0a69ca4696268,,,,,,,decisionTrl,resources/DB.BMP,resources/DR.BMP,Door3,-0.339157246,-0.013874615,1,0,0,0.5147,optionLeft,70,900,1,15,0,15,0,1,,,,,,,,,,,,,,,,,,,,,,,,,,,,,,,,,,,,,,,
,,,,,,,,2023-08-16_08h43.36.330,HF_wild_card,2022.2.4,Win32,60.78288354,5996f68a9039240001432124,64d2fd46c836a06233681665,64dc7d6b2ac0a69ca4696268,,,,,,,decisionTrl,resources/DB.BMP,resources/DR.BMP,Door3,-0.233299075,-0.025179856,1,0,0,0.6152,optionLeft,70,970,1,16,0,16,0,1,,,,,,,,,,,,,,,,,,,,,,,,,,,,,,,,,,,,,,,
,,,,,,,,2023-08-16_08h43.36.330,HF_wild_card,2022.2.4,Win32,60.78288354,5996f68a9039240001432124,64d2fd46c836a06233681665,64dc7d6b2ac0a69ca4696268,,,,,,,decisionTrl,resources/DR.BMP,resources/DB.BMP,Door3,0.327852004,0.001541624,1,0,0,0.4866,optionRight,70,1040,1,17,0,17,0,1,,,,,,,,,,,,,,,,,,,,,,,,,,,,,,,,,,,,,,,
,,,,,,,,2023-08-16_08h43.36.330,HF_wild_card,2022.2.4,Win32,60.78288354,5996f68a9039240001432124,64d2fd46c836a06233681665,64dc7d6b2ac0a69ca4696268,,,,,,,sngl,resources/Empty.png,resources/DB.BMP,Door3,0.295991778,-0.015930113,1,0,0,0.4479,optionRight,70,1110,1,18,0,18,0,1,,,,,,,,,,,,,,,,,,,,,,,,,,,,,,,,,,,,,,,
,,,,,,,,2023-08-16_08h43.36.330,HF_wild_card,2022.2.4,Win32,60.78288354,5996f68a9039240001432124,64d2fd46c836a06233681665,64dc7d6b2ac0a69ca4696268,,,,,,,decisionTrl,resources/DG.BMP,resources/DY.BMP,Door1,0.456320658,-0.026207605,1,0,0,0.7154,optionRight,30,1140,1,19,0,19,0,1,,,,,,,,,,,,,,,,,,,,,,,,,,,,,,,,,,,,,,,
,,,,,,,,2023-08-16_08h43.36.330,HF_wild_card,2022.2.4,Win32,60.78288354,5996f68a9039240001432124,64d2fd46c836a06233681665,64dc7d6b2ac0a69ca4696268,,,,,,,sngl,resources/DBN.BMP,resources/Empty.png,WildCard_NonEx,-0.290853032,-0.04676259,1,0,0,0.5144,optionLeft,55,1195,1,20,0,20,0,1,,,,,,,,,,,,,,,,,,,,,,,,,,,,,,,,,,,,,,,
,,,,,,,,2023-08-16_08h43.36.330,HF_wild_card,2022.2.4,Win32,60.78288354,5996f68a9039240001432124,64d2fd46c836a06233681665,64dc7d6b2ac0a69ca4696268,,,,,,,decisionTrl,resources/DY.BMP,resources/DG.BMP,Door2,0.375128469,-0.004624872,1,0,0,0.8298,optionRight,40,1235,1,21,0,21,0,1,,,,,,,,,,,,,,,,,,,,,,,,,,,,,,,,,,,,,,,
,,,,,,,,2023-08-16_08h43.36.330,HF_wild_card,2022.2.4,Win32,60.78288354,5996f68a9039240001432124,64d2fd46c836a06233681665,64dc7d6b2ac0a69ca4696268,,,,,,,decisionTrl,resources/DY.BMP,resources/DG.BMP,Door2,0.2004111,-0.062178828,1,0,0,0.7629,optionRight,20,1255,1,22,0,22,0,1,,,,,,,,,,,,,,,,,,,,,,,,,,,,,,,,,,,,,,,
,,,,,,,,2023-08-16_08h43.36.330,HF_wild_card,2022.2.4,Win32,60.78288354,5996f68a9039240001432124,64d2fd46c836a06233681665,64dc7d6b2ac0a69ca4696268,,,,,,,decisionTrl,resources/DG.BMP,resources/DBN.BMP,WildCard_NonEx,0.362795478,0.028263104,1,0,0,0.6145,optionRight,55,1310,1,23,0,23,0,1,,,,,,,,,,,,,,,,,,,,,,,,,,,,,,,,,,,,,,,
,,,,,,,,2023-08-16_08h43.36.330,HF_wild_card,2022.2.4,Win32,60.78288354,5996f68a9039240001432124,64d2fd46c836a06233681665,64dc7d6b2ac0a69ca4696268,,,,,,,decisionTrl,resources/DB.BMP,resources/DR.BMP,Door3,-0.214799589,-0.011819116,1,0,0,0.4484,optionLeft,70,1380,1,24,0,24,0,1,,,,,,,,,,,,,,,,,,,,,,,,,,,,,,,,,,,,,,,
,,,,,,,,2023-08-16_08h43.36.330,HF_wild_card,2022.2.4,Win32,60.78288354,5996f68a9039240001432124,64d2fd46c836a06233681665,64dc7d6b2ac0a69ca4696268,,,,,,,sngl,resources/DY.BMP,resources/Empty.png,Door1,-0.303186023,-0.037512847,1,0,0,0.548,optionLeft,30,1410,1,25,0,25,0,1,,,,,,,,,,,,,,,,,,,,,,,,,,,,,,,,,,,,,,,
,,,,,,,,2023-08-16_08h43.36.330,HF_wild_card,2022.2.4,Win32,60.78288354,5996f68a9039240001432124,64d2fd46c836a06233681665,64dc7d6b2ac0a69ca4696268,,,,,,,sngl,resources/Empty.png,resources/DBN.BMP,WildCard_NonEx,0.276464543,0.009763618,1,0,0,0.589,optionRight,45,1455,1,26,0,26,0,1,,,,,,,,,,,,,,,,,,,,,,,,,,,,,,,,,,,,,,,
,,,,,,,,2023-08-16_08h43.36.330,HF_wild_card,2022.2.4,Win32,60.78288354,5996f68a9039240001432124,64d2fd46c836a06233681665,64dc7d6b2ac0a69ca4696268,,,,,,,decisionTrl,resources/DY.BMP,resources/DG.BMP,Door2,0.271325797,-0.001541624,1,0,0,1.0166,optionRight,40,1495,1,27,0,27,0,1,,,,,,,,,,,,,,,,,,,,,,,,,,,,,,,,,,,,,,,
,,,,,,,,2023-08-16_08h43.36.330,HF_wild_card,2022.2.4,Win32,60.78288354,5996f68a9039240001432124,64d2fd46c836a06233681665,64dc7d6b2ac0a69ca4696268,,,,,,,sngl,resources/DR.BMP,resources/Empty.png,Door4,-0.245632066,-0.025179856,1,0,0,0.4549,optionLeft,80,1575,1,28,0,28,0,1,,,,,,,,,,,,,,,,,,,,,,,,,,,,,,,,,,,,,,,
,,,,,,,,2023-08-16_08h43.36.330,HF_wild_card,2022.2.4,Win32,60.78288354,5996f68a9039240001432124,64d2fd46c836a06233681665,64dc7d6b2ac0a69ca4696268,,,,,,,decisionTrl,resources/DY.BMP,resources/DG.BMP,Door1,-0.178828366,-0.035457348,1,0,0,0.6768,optionLeft,30,1605,1,29,0,29,0,1,,,,,,,,,,,,,,,,,,,,,,,,,,,,,,,,,,,,,,,
,,,,,,,,2023-08-16_08h43.36.330,HF_wild_card,2022.2.4,Win32,60.78288354,5996f68a9039240001432124,64d2fd46c836a06233681665,64dc7d6b2ac0a69ca4696268,,,,,,,decisionTrl,resources/DG.BMP,resources/DY.BMP,Door1,0.380267215,-0.003597122,1,0,0,0.8558,optionRight,30,1635,1,30,0,30,0,1,,,,,,,,,,,,,,,,,,,,,,,,,,,,,,,,,,,,,,,
,,,,,,,,2023-08-16_08h43.36.330,HF_wild_card,2022.2.4,Win32,60.78288354,5996f68a9039240001432124,64d2fd46c836a06233681665,64dc7d6b2ac0a69ca4696268,,,,,,,sngl,resources/Empty.png,resources/DG.BMP,Door2,0.29393628,-0.005652621,1,0,0,0.436,optionRight,20,1655,1,31,0,31,0,1,,,,,,,,,,,,,,,,,,,,,,,,,,,,,,,,,,,,,,,
,,,,,,,,2023-08-16_08h43.36.330,HF_wild_card,2022.2.4,Win32,60.78288354,5996f68a9039240001432124,64d2fd46c836a06233681665,64dc7d6b2ac0a69ca4696268,,,,,,,decisionTrl,resources/DR.BMP,resources/DB.BMP,Door4,-0.383350462,-0.014902364,1,0,0,0.5148,optionLeft,80,1735,1,32,0,32,0,1,,,,,,,,,,,,,,,,,,,,,,,,,,,,,,,,,,,,,,,
,,,,,,,,2023-08-16_08h43.36.330,HF_wild_card,2022.2.4,Win32,60.78288354,5996f68a9039240001432124,64d2fd46c836a06233681665,64dc7d6b2ac0a69ca4696268,,,,,,,decisionTrl,resources/DBN.BMP,resources/DB.BMP,WildCard_NonEx,-0.17368962,-0.00668037,1,0,0,0.5958,optionLeft,55,1790,1,33,0,33,0,1,,,,,,,,,,,,,,,,,,,,,,,,,,,,,,,,,,,,,,,
,,,,,,,,2023-08-16_08h43.36.330,HF_wild_card,2022.2.4,Win32,60.78288354,5996f68a9039240001432124,64d2fd46c836a06233681665,64dc7d6b2ac0a69ca4696268,,,,,,,decisionTrl,resources/DG.BMP,resources/DY.BMP,Door1,0.375128469,-0.013874615,1,0,0,0.6308,optionRight,30,1820,1,34,0,34,0,1,,,,,,,,,,,,,,,,,,,,,,,,,,,,,,,,,,,,,,,
,,,,,,,,2023-08-16_08h43.36.330,HF_wild_card,2022.2.4,Win32,60.78288354,5996f68a9039240001432124,64d2fd46c836a06233681665,64dc7d6b2ac0a69ca4696268,,,,,,,sngl,resources/DBN.BMP,resources/Empty.png,WildCard_NonEx,-0.229188078,-0.003597122,1,0,0,0.4979,optionLeft,45,1865,1,35,0,35,0,1,,,,,,,,,,,,,,,,,,,,,,,,,,,,,,,,,,,,,,,
,,,,,,,,2023-08-16_08h43.36.330,HF_wild_card,2022.2.4,Win32,60.78288354,5996f68a9039240001432124,64d2fd46c836a06233681665,64dc7d6b2ac0a69ca4696268,,,,,,,decisionTrl,resources/DG.BMP,resources/DY.BMP,Door2,-0.305241521,-0.037512847,1,0,0,0.5644,optionLeft,20,1885,1,36,0,36,0,1,,,,,,,,,,,,,,,,,,,,,,,,,,,,,,,,,,,,,,,
,,,,,,,,2023-08-16_08h43.36.330,HF_wild_card,2022.2.4,Win32,60.78288354,5996f68a9039240001432124,64d2fd46c836a06233681665,64dc7d6b2ac0a69ca4696268,,,,,,,decisionTrl,resources/DR.BMP,resources/DB.BMP,Door3,0.256937307,-0.013874615,1,0,0,0.5762,optionRight,70,1955,1,37,0,37,0,1,,,,,,,,,,,,,,,,,,,,,,,,,,,,,,,,,,,,,,,
,,,,,,,,2023-08-16_08h43.36.330,HF_wild_card,2022.2.4,Win32,60.78288354,5996f68a9039240001432124,64d2fd46c836a06233681665,64dc7d6b2ac0a69ca4696268,,,,,,,decisionTrl,resources/DR.BMP,resources/DBN.BMP,WildCard_NonEx,0.257965057,-0.008735868,1,0,0,0.6715,optionRight,45,2000,1,38,0,38,0,1,,,,,,,,,,,,,,,,,,,,,,,,,,,,,,,,,,,,,,,
,,,,,,,,2023-08-16_08h43.36.330,HF_wild_card,2022.2.4,Win32,60.78288354,5996f68a9039240001432124,64d2fd46c836a06233681665,64dc7d6b2ac0a69ca4696268,,,,,,,sngl,resources/Empty.png,resources/DY.BMP,Door1,0.236382323,0.001541624,1,0,0,0.4719,optionRight,30,2030,1,39,0,39,0,1,,,,,,,,,,,,,,,,,,,,,,,,,,,,,,,,,,,,,,,
,,,,,,,,2023-08-16_08h43.36.330,HF_wild_card,2022.2.4,Win32,60.78288354,5996f68a9039240001432124,64d2fd46c836a06233681665,64dc7d6b2ac0a69ca4696268,,,,,,,sngl,resources/DG.BMP,resources/Empty.png,Door2,-0.352517986,0.016957862,1,0,0,0.4153,optionLeft,40,2070,1,40,0,40,0,1,,,,,,,,,,,,,,,,,,,,,,,,,,,,,,,,,,,,,,,
,,,,,,,,2023-08-16_08h43.36.330,HF_wild_card,2022.2.4,Win32,60.78288354,5996f68a9039240001432124,64d2fd46c836a06233681665,64dc7d6b2ac0a69ca4696268,,,,,,,ctch,resources/DG.BMP,resources/DB.BMP,Door3,0.394655704,-0.005652621,1,0,0,0.7032,optionRight,70,2140,1,41,0,41,0,1,,,,,,,,,,,,,,,,,,,,,,,,,,,,,,,,,,,,,,,
,,,,,,,,2023-08-16_08h43.36.330,HF_wild_card,2022.2.4,Win32,60.78288354,5996f68a9039240001432124,64d2fd46c836a06233681665,64dc7d6b2ac0a69ca4696268,,,,,,,decisionTrl,resources/DBN.BMP,resources/DY.BMP,WildCard_NonEx,-0.205549846,-0.005652621,1,0,0,0.7981,optionLeft,45,2185,1,42,0,42,0,1,,,,,,,,,,,,,,,,,,,,,,,,,,,,,,,,,,,,,,,
,,,,,,,,2023-08-16_08h43.36.330,HF_wild_card,2022.2.4,Win32,60.78288354,5996f68a9039240001432124,64d2fd46c836a06233681665,64dc7d6b2ac0a69ca4696268,,,,,,,decisionTrl,resources/DBN.BMP,resources/DR.BMP,Door4,0.182939363,-0.015930113,1,0,0,0.5794,optionRight,60,2245,1,43,0,43,0,1,,,,,,,,,,,,,,,,,,,,,,,,,,,,,,,,,,,,,,,
,,,,,,,,2023-08-16_08h43.36.330,HF_wild_card,2022.2.4,Win32,60.78288354,5996f68a9039240001432124,64d2fd46c836a06233681665,64dc7d6b2ac0a69ca4696268,,,,,,,,,,,,,,,,,,,,,,,,,,0,0,0,0,1,,,,,,,,,,,,,,,,,,,,,,,,,,,,,,,,,,
,,,,,,,,2023-08-16_08h43.36.330,HF_wild_card,2022.2.4,Win32,60.78288354,5996f68a9039240001432124,64d2fd46c836a06233681665,64dc7d6b2ac0a69ca4696268,,,,,,,decisionTrl,resources/DBN.BMP,resources/DR.BMP,WildCard_NonEx,-0.171634121,-0.136176773,1,0,0,1.1248,optionLeft,55,2300,2,0,0,0,0,1,,,,,,,,,,,,,,,,,,,,,,,,,,,,,,,,,,,,,,,
,,,,,,,,2023-08-16_08h43.36.330,HF_wild_card,2022.2.4,Win32,60.78288354,5996f68a9039240001432124,64d2fd46c836a06233681665,64dc7d6b2ac0a69ca4696268,,,,,,,ctch,resources/DY.BMP,resources/DR.BMP,Door4,0.228160329,0.000513875,1,0,0,0.7028,optionRight,60,2360,2,1,0,1,0,1,,,,,,,,,,,,,,,,,,,,,,,,,,,,,,,,,,,,,,,
,,,,,,,,2023-08-16_08h43.36.330,HF_wild_card,2022.2.4,Win32,60.78288354,5996f68a9039240001432124,64d2fd46c836a06233681665,64dc7d6b2ac0a69ca4696268,,,,,,,sngl,resources/DB.BMP,resources/Empty.png,Door3,-0.329907503,0.002569373,1,0,0,0.3488,optionLeft,70,2430,2,2,0,2,0,1,,,,,,,,,,,,,,,,,,,,,,,,,,,,,,,,,,,,,,,
,,,,,,,,2023-08-16_08h43.36.330,HF_wild_card,2022.2.4,Win32,60.78288354,5996f68a9039240001432124,64d2fd46c836a06233681665,64dc7d6b2ac0a69ca4696268,,,,,,,decisionTrl,resources/DR.BMP,resources/DB.BMP,Door4,-0.224049332,-0.014902364,1,0,0,0.5722,optionLeft,80,2510,2,3,0,3,0,1,,,,,,,,,,,,,,,,,,,,,,,,,,,,,,,,,,,,,,,
,,,,,,,,2023-08-16_08h43.36.330,HF_wild_card,2022.2.4,Win32,60.78288354,5996f68a9039240001432124,64d2fd46c836a06233681665,64dc7d6b2ac0a69ca4696268,,,,,,,decisionTrl,resources/DR.BMP,resources/DB.BMP,Door4,-0.232271326,-0.014902364,1,0,0,0.5484,optionLeft,80,2590,2,4,0,4,0,1,,,,,,,,,,,,,,,,,,,,,,,,,,,,,,,,,,,,,,,
,,,,,,,,2023-08-16_08h43.36.330,HF_wild_card,2022.2.4,Win32,60.78288354,5996f68a9039240001432124,64d2fd46c836a06233681665,64dc7d6b2ac0a69ca4696268,,,,,,,sngl,resources/DY.BMP,resources/Empty.png,Door1,-0.140801644,-0.00668037,1,0,0,0.4417,optionLeft,30,2620,2,5,0,5,0,1,,,,,,,,,,,,,,,,,,,,,,,,,,,,,,,,,,,,,,,
,,,,,,,,2023-08-16_08h43.36.330,HF_wild_card,2022.2.4,Win32,60.78288354,5996f68a9039240001432124,64d2fd46c836a06233681665,64dc7d6b2ac0a69ca4696268,,,,,,,decisionTrl,resources/DG.BMP,resources/DBN.BMP,WildCard_NonEx,0.272353546,0.001541624,1,0,0,0.6049,optionRight,45,2665,2,6,0,6,0,1,,,,,,,,,,,,,,,,,,,,,,,,,,,,,,,,,,,,,,,
,,,,,,,,2023-08-16_08h43.36.330,HF_wild_card,2022.2.4,Win32,60.78288354,5996f68a9039240001432124,64d2fd46c836a06233681665,64dc7d6b2ac0a69ca4696268,,,,,,,sngl,resources/DG.BMP,resources/Empty.png,Door2,-0.2672148,-0.010791367,1,0,0,0.415,optionLeft,20,2685,2,7,0,7,0,1,,,,,,,,,,,,,,,,,,,,,,,,,,,,,,,,,,,,,,,
,,,,,,,,2023-08-16_08h43.36.330,HF_wild_card,2022.2.4,Win32,60.78288354,5996f68a9039240001432124,64d2fd46c836a06233681665,64dc7d6b2ac0a69ca4696268,,,,,,,ctch,resources/DY.BMP,resources/DR.BMP,Door4,0.223021583,0.010791367,1,0,0,0.436,optionRight,60,2745,2,8,0,8,0,1,,,,,,,,,,,,,,,,,,,,,,,,,,,,,,,,,,,,,,,
,,,,,,,,2023-08-16_08h43.36.330,HF_wild_card,2022.2.4,Win32,60.78288354,5996f68a9039240001432124,64d2fd46c836a06233681665,64dc7d6b2ac0a69ca4696268,,,,,,,decisionTrl,resources/DB.BMP,resources/DBN.BMP,Door3,-0.174717369,0.00668037,1,0,0,0.8647,optionLeft,70,2815,2,9,0,9,0,1,,,,,,,,,,,,,,,,,,,,,,,,,,,,,,,,,,,,,,,
,,,,,,,,2023-08-16_08h43.36.330,HF_wild_card,2022.2.4,Win32,60.78288354,5996f68a9039240001432124,64d2fd46c836a06233681665,64dc7d6b2ac0a69ca4696268,,,,,,,sngl,resources/DBN.BMP,resources/Empty.png,WildCard_NonEx,-0.263103803,0.012846865,1,0,0,0.4387,optionLeft,45,2860,2,10,0,10,0,1,,,,,,,,,,,,,,,,,,,,,,,,,,,,,,,,,,,,,,,
,,,,,,,,2023-08-16_08h43.36.330,HF_wild_card,2022.2.4,Win32,60.78288354,5996f68a9039240001432124,64d2fd46c836a06233681665,64dc7d6b2ac0a69ca4696268,,,,,,,ctch,resources/DB.BMP,resources/DG.BMP,Door3,-0.166495375,-0.040596095,1,0,0,1.0315,optionLeft,70,2930,2,11,0,11,0,1,,,,,,,,,,,,,,,,,,,,,,,,,,,,,,,,,,,,,,,
,,,,,,,,2023-08-16_08h43.36.330,HF_wild_card,2022.2.4,Win32,60.78288354,5996f68a9039240001432124,64d2fd46c836a06233681665,64dc7d6b2ac0a69ca4696268,,,,,,,sngl,resources/Empty.png,resources/DBN.BMP,WildCard_NonEx,0.238437821,-0.032374101,1,0,0,0.4213,optionRight,55,2985,2,12,0,12,0,1,,,,,,,,,,,,,,,,,,,,,,,,,,,,,,,,,,,,,,,
,,,,,,,,2023-08-16_08h43.36.330,HF_wild_card,2022.2.4,Win32,60.78288354,5996f68a9039240001432124,64d2fd46c836a06233681665,64dc7d6b2ac0a69ca4696268,,,,,,,sngl,resources/DR.BMP,resources/Empty.png,Door4,-0.29290853,-0.02004111,1,0,0,0.3653,optionLeft,60,3045,2,13,0,13,0,1,,,,,,,,,,,,,,,,,,,,,,,,,,,,,,,,,,,,,,,
,,,,,,,,2023-08-16_08h43.36.330,HF_wild_card,2022.2.4,Win32,60.78288354,5996f68a9039240001432124,64d2fd46c836a06233681665,64dc7d6b2ac0a69ca4696268,,,,,,,decisionTrl,resources/DB.BMP,resources/DR.BMP,Door4,0.247687564,-0.017985612,1,0,0,0.404,optionRight,60,3105,2,14,0,14,0,1,,,,,,,,,,,,,,,,,,,,,,,,,,,,,,,,,,,,,,,
,,,,,,,,2023-08-16_08h43.36.330,HF_wild_card,2022.2.4,Win32,60.78288354,5996f68a9039240001432124,64d2fd46c836a06233681665,64dc7d6b2ac0a69ca4696268,,,,,,,decisionTrl,resources/DY.BMP,resources/DG.BMP,Door2,0.272353546,-0.019013361,1,0,0,0.9926,optionRight,40,3145,2,15,0,15,0,1,,,,,,,,,,,,,,,,,,,,,,,,,,,,,,,,,,,,,,,
,,,,,,,,2023-08-16_08h43.36.330,HF_wild_card,2022.2.4,Win32,60.78288354,5996f68a9039240001432124,64d2fd46c836a06233681665,64dc7d6b2ac0a69ca4696268,,,,,,,decisionTrl,resources/DR.BMP,resources/DB.BMP,Door4,-0.25385406,-0.023124358,1,0,0,0.5316,optionLeft,80,3225,2,16,0,16,0,1,,,,,,,,,,,,,,,,,,,,,,,,,,,,,,,,,,,,,,,
,,,,,,,,2023-08-16_08h43.36.330,HF_wild_card,2022.2.4,Win32,60.78288354,5996f68a9039240001432124,64d2fd46c836a06233681665,64dc7d6b2ac0a69ca4696268,,,,,,,decisionTrl,resources/DY.BMP,resources/DG.BMP,Door1,-0.221993834,-0.052929085,1,0,0,0.4491,optionLeft,30,3255,2,17,0,17,0,1,,,,,,,,,,,,,,,,,,,,,,,,,,,,,,,,,,,,,,,
,,,,,,,,2023-08-16_08h43.36.330,HF_wild_card,2022.2.4,Win32,60.78288354,5996f68a9039240001432124,64d2fd46c836a06233681665,64dc7d6b2ac0a69ca4696268,,,,,,,decisionTrl,resources/DR.BMP,resources/DB.BMP,Door3,0.304213772,-0.003597122,1,0,0,0.4528,optionRight,70,3325,2,18,0,18,0,1,,,,,,,,,,,,,,,,,,,,,,,,,,,,,,,,,,,,,,,
,,,,,,,,2023-08-16_08h43.36.330,HF_wild_card,2022.2.4,Win32,60.78288354,5996f68a9039240001432124,64d2fd46c836a06233681665,64dc7d6b2ac0a69ca4696268,,,,,,,decisionTrl,resources/DG.BMP,resources/DY.BMP,Door2,-0.22713258,-0.036485098,1,0,0,0.4478,optionLeft,20,3345,2,19,0,19,0,1,,,,,,,,,,,,,,,,,,,,,,,,,,,,,,,,,,,,,,,
,,,,,,,,2023-08-16_08h43.36.330,HF_wild_card,2022.2.4,Win32,60.78288354,5996f68a9039240001432124,64d2fd46c836a06233681665,64dc7d6b2ac0a69ca4696268,,,,,,,sngl,resources/Empty.png,resources/DB.BMP,Door3,0.299075026,-0.026207605,1,0,0,0.4484,optionRight,70,3415,2,20,0,20,0,1,,,,,,,,,,,,,,,,,,,,,,,,,,,,,,,,,,,,,,,
,,,,,,,,2023-08-16_08h43.36.330,HF_wild_card,2022.2.4,Win32,60.78288354,5996f68a9039240001432124,64d2fd46c836a06233681665,64dc7d6b2ac0a69ca4696268,,,,,,,ctch,resources/DG.BMP,resources/DB.BMP,Door3,0.229188078,-0.028263104,1,0,0,0.4146,optionRight,70,3485,2,21,0,21,0,1,,,,,,,,,,,,,,,,,,,,,,,,,,,,,,,,,,,,,,,
,,,,,,,,2023-08-16_08h43.36.330,HF_wild_card,2022.2.4,Win32,60.78288354,5996f68a9039240001432124,64d2fd46c836a06233681665,64dc7d6b2ac0a69ca4696268,,,,,,,sngl,resources/Empty.png,resources/DBN.BMP,WildCard_NonEx,0.282631038,-0.02004111,1,0,0,0.4048,optionRight,45,3530,2,22,0,22,0,1,,,,,,,,,,,,,,,,,,,,,,,,,,,,,,,,,,,,,,,
,,,,,,,,2023-08-16_08h43.36.330,HF_wild_card,2022.2.4,Win32,60.78288354,5996f68a9039240001432124,64d2fd46c836a06233681665,64dc7d6b2ac0a69ca4696268,,,,,,,sngl,resources/Empty.png,resources/DY.BMP,Door1,0.232271326,-0.028263104,1,0,0,0.4816,optionRight,30,3560,2,23,0,23,0,1,,,,,,,,,,,,,,,,,,,,,,,,,,,,,,,,,,,,,,,
,,,,,,,,2023-08-16_08h43.36.330,HF_wild_card,2022.2.4,Win32,60.78288354,5996f68a9039240001432124,64d2fd46c836a06233681665,64dc7d6b2ac0a69ca4696268,,,,,,,decisionTrl,resources/DBN.BMP,resources/DY.BMP,WildCard_NonEx,-0.182939363,-0.065262076,1,0,0,0.4978,optionLeft,55,3615,2,24,0,24,0,1,,,,,,,,,,,,,,,,,,,,,,,,,,,,,,,,,,,,,,,
,,,,,,,,2023-08-16_08h43.36.330,HF_wild_card,2022.2.4,Win32,60.78288354,5996f68a9039240001432124,64d2fd46c836a06233681665,64dc7d6b2ac0a69ca4696268,,,,,,,ctch,resources/DB.BMP,resources/DG.BMP,Door3,-0.163412127,-0.032374101,1,0,0,0.4791,optionLeft,70,3685,2,25,0,25,0,1,,,,,,,,,,,,,,,,,,,,,,,,,,,,,,,,,,,,,,,
,,,,,,,,2023-08-16_08h43.36.330,HF_wild_card,2022.2.4,Win32,60.78288354,5996f68a9039240001432124,64d2fd46c836a06233681665,64dc7d6b2ac0a69ca4696268,,,,,,,decisionTrl,resources/DB.BMP,resources/DR.BMP,Door4,0.224049332,-0.000513875,1,0,0,0.5152,optionRight,80,3765,2,26,0,26,0,1,,,,,,,,,,,,,,,,,,,,,,,,,,,,,,,,,,,,,,,
,,,,,,,,2023-08-16_08h43.36.330,HF_wild_card,2022.2.4,Win32,60.78288354,5996f68a9039240001432124,64d2fd46c836a06233681665,64dc7d6b2ac0a69ca4696268,,,,,,,decisionTrl,resources/DG.BMP,resources/DY.BMP,Door2,-0.176772867,-0.030318602,1,0,0,0.7474,optionLeft,20,3785,2,27,0,27,0,1,,,,,,,,,,,,,,,,,,,,,,,,,,,,,,,,,,,,,,,
,,,,,,,,2023-08-16_08h43.36.330,HF_wild_card,2022.2.4,Win32,60.78288354,5996f68a9039240001432124,64d2fd46c836a06233681665,64dc7d6b2ac0a69ca4696268,,,,,,,sngl,resources/DBN.BMP,resources/Empty.png,WildCard_NonEx,-0.230215827,-0.050873587,1,0,0,0.4481,optionLeft,55,3840,2,28,0,28,0,1,,,,,,,,,,,,,,,,,,,,,,,,,,,,,,,,,,,,,,,
,,,,,,,,2023-08-16_08h43.36.330,HF_wild_card,2022.2.4,Win32,60.78288354,5996f68a9039240001432124,64d2fd46c836a06233681665,64dc7d6b2ac0a69ca4696268,,,,,,,decisionTrl,resources/DBN.BMP,resources/DG.BMP,WildCard_NonEx,-0.260020555,-0.066289825,1,0,0,0.5146,optionLeft,45,3885,2,29,0,29,0,1,,,,,,,,,,,,,,,,,,,,,,,,,,,,,,,,,,,,,,,
,,,,,,,,2023-08-16_08h43.36.330,HF_wild_card,2022.2.4,Win32,60.78288354,5996f68a9039240001432124,64d2fd46c836a06233681665,64dc7d6b2ac0a69ca4696268,,,,,,,sngl,resources/Empty.png,resources/DR.BMP,Door4,0.387461459,0.009763618,1,0,0,0.4651,optionRight,80,3965,2,30,0,30,0,1,,,,,,,,,,,,,,,,,,,,,,,,,,,,,,,,,,,,,,,
,,,,,,,,2023-08-16_08h43.36.330,HF_wild_card,2022.2.4,Win32,60.78288354,5996f68a9039240001432124,64d2fd46c836a06233681665,64dc7d6b2ac0a69ca4696268,,,,,,,decisionTrl,resources/DY.BMP,resources/DG.BMP,Door1,-0.179856115,-0.011819116,1,0,0,1.0314,optionLeft,30,3995,2,31,0,31,0,1,,,,,,,,,,,,,,,,,,,,,,,,,,,,,,,,,,,,,,,
,,,,,,,,2023-08-16_08h43.36.330,HF_wild_card,2022.2.4,Win32,60.78288354,5996f68a9039240001432124,64d2fd46c836a06233681665,64dc7d6b2ac0a69ca4696268,,,,,,,ctch,resources/DR.BMP,resources/DY.BMP,Door4,-0.149023638,-0.044707091,1,0,0,0.5088,optionLeft,60,4055,2,32,0,32,0,1,,,,,,,,,,,,,,,,,,,,,,,,,,,,,,,,,,,,,,,
,,,,,,,,2023-08-16_08h43.36.330,HF_wild_card,2022.2.4,Win32,60.78288354,5996f68a9039240001432124,64d2fd46c836a06233681665,64dc7d6b2ac0a69ca4696268,,,,,,,decisionTrl,resources/DB.BMP,resources/DR.BMP,Door3,-0.177800617,-0.066289825,1,0,0,0.4324,optionLeft,70,4125,2,33,0,33,0,1,,,,,,,,,,,,,,,,,,,,,,,,,,,,,,,,,,,,,,,
,,,,,,,,2023-08-16_08h43.36.330,HF_wild_card,2022.2.4,Win32,60.78288354,5996f68a9039240001432124,64d2fd46c836a06233681665,64dc7d6b2ac0a69ca4696268,,,,,,,ctch,resources/DR.BMP,resources/DY.BMP,Door4,-0.177800617,-0.012846865,1,0,0,0.4484,optionLeft,60,4185,2,34,0,34,0,1,,,,,,,,,,,,,,,,,,,,,,,,,,,,,,,,,,,,,,,
,,,,,,,,2023-08-16_08h43.36.330,HF_wild_card,2022.2.4,Win32,60.78288354,5996f68a9039240001432124,64d2fd46c836a06233681665,64dc7d6b2ac0a69ca4696268,,,,,,,decisionTrl,resources/DG.BMP,resources/DY.BMP,Door2,-0.119218911,-0.049845838,1,0,0,0.5256,optionLeft,20,4205,2,35,0,35,0,1,,,,,,,,,,,,,,,,,,,,,,,,,,,,,,,,,,,,,,,
,,,,,,,,2023-08-16_08h43.36.330,HF_wild_card,2022.2.4,Win32,60.78288354,5996f68a9039240001432124,64d2fd46c836a06233681665,64dc7d6b2ac0a69ca4696268,,,,,,,decisionTrl,resources/DG.BMP,resources/DY.BMP,Door1,0.231243577,-0.007708119,1,0,0,0.456,optionRight,30,4235,2,36,0,36,0,1,,,,,,,,,,,,,,,,,,,,,,,,,,,,,,,,,,,,,,,
,,,,,,,,2023-08-16_08h43.36.330,HF_wild_card,2022.2.4,Win32,60.78288354,5996f68a9039240001432124,64d2fd46c836a06233681665,64dc7d6b2ac0a69ca4696268,,,,,,,decisionTrl,resources/DR.BMP,resources/DBN.BMP,Door4,-0.269270298,-0.045734841,1,0,0,0.5651,optionLeft,60,4295,2,37,0,37,0,1,,,,,,,,,,,,,,,,,,,,,,,,,,,,,,,,,,,,,,,
,,,,,,,,2023-08-16_08h43.36.330,HF_wild_card,2022.2.4,Win32,60.78288354,5996f68a9039240001432124,64d2fd46c836a06233681665,64dc7d6b2ac0a69ca4696268,,,,,,,decisionTrl,resources/DBN.BMP,resources/DB.BMP,WildCard_NonEx,-0.166495375,-0.03340185,1,0,0,0.7703,optionLeft,45,4340,2,38,0,38,0,1,,,,,,,,,,,,,,,,,,,,,,,,,,,,,,,,,,,,,,,
,,,,,,,,2023-08-16_08h43.36.330,HF_wild_card,2022.2.4,Win32,60.78288354,5996f68a9039240001432124,64d2fd46c836a06233681665,64dc7d6b2ac0a69ca4696268,,,,,,,decisionTrl,resources/DB.BMP,resources/DR.BMP,Door3,-0.195272354,-0.040596095,1,0,0,0.8792,optionLeft,70,4410,2,39,0,39,0,1,,,,,,,,,,,,,,,,,,,,,,,,,,,,,,,,,,,,,,,
,,,,,,,,2023-08-16_08h43.36.330,HF_wild_card,2022.2.4,Win32,60.78288354,5996f68a9039240001432124,64d2fd46c836a06233681665,64dc7d6b2ac0a69ca4696268,,,,,,,ctch,resources/DG.BMP,resources/DB.BMP,Door3,0.251798561,0.012846865,1,0,0,0.5226,optionRight,70,4480,2,40,0,40,0,1,,,,,,,,,,,,,,,,,,,,,,,,,,,,,,,,,,,,,,,
,,,,,,,,2023-08-16_08h43.36.330,HF_wild_card,2022.2.4,Win32,60.78288354,5996f68a9039240001432124,64d2fd46c836a06233681665,64dc7d6b2ac0a69ca4696268,,,,,,,sngl,resources/Empty.png,resources/DG.BMP,Door2,0.282631038,-0.026207605,1,0,0,0.4086,optionRight,40,4520,2,41,0,41,0,1,,,,,,,,,,,,,,,,,,,,,,,,,,,,,,,,,,,,,,,
,,,,,,,,2023-08-16_08h43.36.330,HF_wild_card,2022.2.4,Win32,60.78288354,5996f68a9039240001432124,64d2fd46c836a06233681665,64dc7d6b2ac0a69ca4696268,,,,,,,decisionTrl,resources/DY.BMP,resources/DG.BMP,Door2,0.448098664,-0.00668037,1,0,0,1.1193,optionRight,20,4540,2,42,0,42,0,1,,,,,,,,,,,,,,,,,,,,,,,,,,,,,,,,,,,,,,,
,,,,,,,,2023-08-16_08h43.36.330,HF_wild_card,2022.2.4,Win32,60.78288354,5996f68a9039240001432124,64d2fd46c836a06233681665,64dc7d6b2ac0a69ca4696268,,,,,,,decisionTrl,resources/DY.BMP,resources/DBN.BMP,Door1,-0.172661871,-0.031346351,1,0,0,0.5701,optionLeft,30,4570,2,43,0,43,0,1,,,,,,,,,,,,,,,,,,,,,,,,,,,,,,,,,,,,,,,
,,,,,,,,2023-08-16_08h43.36.330,HF_wild_card,2022.2.4,Win32,60.78288354,5996f68a9039240001432124,64d2fd46c836a06233681665,64dc7d6b2ac0a69ca4696268,,,,,,,,,,,,,,,,,,,,,,,,,,1,0,1,0,1,,,,,,,,,,,,,,,,,,,,,,,,,,,,,,,,,,
,,,,,,,,2023-08-16_08h43.36.330,HF_wild_card,2022.2.4,Win32,60.78288354,5996f68a9039240001432124,64d2fd46c836a06233681665,64dc7d6b2ac0a69ca4696268,,,,,,,sngl,resources/Empty.png,resources/DBN.BMP,WildCard_NonEx,0.362795478,-0.026207605,1,0,0,0.5986,optionRight,55,4625,3,0,0,0,0,1,,,,,,,,,,,,,,,,,,,,,,,,,,,,,,,,,,,,,,,
,,,,,,,,2023-08-16_08h43.36.330,HF_wild_card,2022.2.4,Win32,60.78288354,5996f68a9039240001432124,64d2fd46c836a06233681665,64dc7d6b2ac0a69ca4696268,,,,,,,sngl,resources/DBN.BMP,resources/Empty.png,WildCard_NonEx,-0.171634121,-0.037512847,1,0,0,0.4384,optionLeft,45,4670,3,1,0,1,0,1,,,,,,,,,,,,,,,,,,,,,,,,,,,,,,,,,,,,,,,
,,,,,,,,2023-08-16_08h43.36.330,HF_wild_card,2022.2.4,Win32,60.78288354,5996f68a9039240001432124,64d2fd46c836a06233681665,64dc7d6b2ac0a69ca4696268,,,,,,,decisionTrl,resources/DB.BMP,resources/DR.BMP,Door3,-0.163412127,-0.042651593,1,0,0,0.9652,optionLeft,70,4740,3,2,0,2,0,1,,,,,,,,,,,,,,,,,,,,,,,,,,,,,,,,,,,,,,,
,,,,,,,,2023-08-16_08h43.36.330,HF_wild_card,2022.2.4,Win32,60.78288354,5996f68a9039240001432124,64d2fd46c836a06233681665,64dc7d6b2ac0a69ca4696268,,,,,,,decisionTrl,resources/DG.BMP,resources/DY.BMP,Door1,0.401849949,0.010791367,1,0,0,1.0809,optionRight,30,4770,3,3,0,3,0,1,,,,,,,,,,,,,,,,,,,,,,,,,,,,,,,,,,,,,,,
,,,,,,,,2023-08-16_08h43.36.330,HF_wild_card,2022.2.4,Win32,60.78288354,5996f68a9039240001432124,64d2fd46c836a06233681665,64dc7d6b2ac0a69ca4696268,,,,,,,decisionTrl,resources/DG.BMP,resources/DBN.BMP,WildCard_NonEx,0.278520041,-0.001541624,1,0,0,0.458,optionRight,55,4825,3,4,0,4,0,1,,,,,,,,,,,,,,,,,,,,,,,,,,,,,,,,,,,,,,,
,,,,,,,,2023-08-16_08h43.36.330,HF_wild_card,2022.2.4,Win32,60.78288354,5996f68a9039240001432124,64d2fd46c836a06233681665,64dc7d6b2ac0a69ca4696268,,,,,,,ctch,resources/DR.BMP,resources/DY.BMP,Door4,-0.105858171,-0.027235355,1,0,0,0.4546,optionLeft,60,4885,3,5,0,5,0,1,,,,,,,,,,,,,,,,,,,,,,,,,,,,,,,,,,,,,,,
,,,,,,,,2023-08-16_08h43.36.330,HF_wild_card,2022.2.4,Win32,60.78288354,5996f68a9039240001432124,64d2fd46c836a06233681665,64dc7d6b2ac0a69ca4696268,,,,,,,decisionTrl,resources/DR.BMP,resources/DB.BMP,Door3,0.182939363,-0.015930113,1,0,0,0.4584,optionRight,70,4955,3,6,0,6,0,1,,,,,,,,,,,,,,,,,,,,,,,,,,,,,,,,,,,,,,,
,,,,,,,,2023-08-16_08h43.36.330,HF_wild_card,2022.2.4,Win32,60.78288354,5996f68a9039240001432124,64d2fd46c836a06233681665,64dc7d6b2ac0a69ca4696268,,,,,,,decisionTrl,resources/DG.BMP,resources/DY.BMP,Door1,0.232271326,-0.012846865,1,0,0,0.7984,optionRight,30,4985,3,7,0,7,0,1,,,,,,,,,,,,,,,,,,,,,,,,,,,,,,,,,,,,,,,
,,,,,,,,2023-08-16_08h43.36.330,HF_wild_card,2022.2.4,Win32,60.78288354,5996f68a9039240001432124,64d2fd46c836a06233681665,64dc7d6b2ac0a69ca4696268,,,,,,,decisionTrl,resources/DR.BMP,resources/DB.BMP,Door3,0.246659815,-0.012846865,1,0,0,0.5362,optionRight,70,5055,3,8,0,8,0,1,,,,,,,,,,,,,,,,,,,,,,,,,,,,,,,,,,,,,,,
,,,,,,,,2023-08-16_08h43.36.330,HF_wild_card,2022.2.4,Win32,60.78288354,5996f68a9039240001432124,64d2fd46c836a06233681665,64dc7d6b2ac0a69ca4696268,,,,,,,decisionTrl,resources/DBN.BMP,resources/DG.BMP,Door2,0.230215827,-0.009763618,1,0,0,0.6548,optionRight,20,5075,3,9,0,9,0,1,,,,,,,,,,,,,,,,,,,,,,,,,,,,,,,,,,,,,,,
,,,,,,,,2023-08-16_08h43.36.330,HF_wild_card,2022.2.4,Win32,60.78288354,5996f68a9039240001432124,64d2fd46c836a06233681665,64dc7d6b2ac0a69ca4696268,,,,,,,ctch,resources/DY.BMP,resources/DR.BMP,Door1,-0.22610483,-0.010791367,1,0,0,0.4481,optionLeft,30,5105,3,10,0,10,0,1,,,,,,,,,,,,,,,,,,,,,,,,,,,,,,,,,,,,,,,
,,,,,,,,2023-08-16_08h43.36.330,HF_wild_card,2022.2.4,Win32,60.78288354,5996f68a9039240001432124,64d2fd46c836a06233681665,64dc7d6b2ac0a69ca4696268,,,,,,,decisionTrl,resources/DR.BMP,resources/DB.BMP,Door3,0.202466598,-0.002569373,1,0,0,1.1147,optionRight,70,5175,3,11,0,11,0,1,,,,,,,,,,,,,,,,,,,,,,,,,,,,,,,,,,,,,,,
,,,,,,,,2023-08-16_08h43.36.330,HF_wild_card,2022.2.4,Win32,60.78288354,5996f68a9039240001432124,64d2fd46c836a06233681665,64dc7d6b2ac0a69ca4696268,,,,,,,ctch,resources/DR.BMP,resources/DY.BMP,Door4,-0.244604317,-0.022096608,1,0,0,0.646,optionLeft,80,5255,3,12,0,12,0,1,,,,,,,,,,,,,,,,,,,,,,,,,,,,,,,,,,,,,,,
,,,,,,,,2023-08-16_08h43.36.330,HF_wild_card,2022.2.4,Win32,60.78288354,5996f68a9039240001432124,64d2fd46c836a06233681665,64dc7d6b2ac0a69ca4696268,,,,,,,decisionTrl,resources/DB.BMP,resources/DR.BMP,Door4,0.202466598,-0.029290853,1,0,0,0.4053,optionRight,60,5315,3,13,0,13,0,1,,,,,,,,,,,,,,,,,,,,,,,,,,,,,,,,,,,,,,,
,,,,,,,,2023-08-16_08h43.36.330,HF_wild_card,2022.2.4,Win32,60.78288354,5996f68a9039240001432124,64d2fd46c836a06233681665,64dc7d6b2ac0a69ca4696268,,,,,,,ctch,resources/DB.BMP,resources/DG.BMP,Door3,-0.171634121,-0.029290853,1,0,0,0.5483,optionLeft,70,5385,3,14,0,14,0,1,,,,,,,,,,,,,,,,,,,,,,,,,,,,,,,,,,,,,,,
,,,,,,,,2023-08-16_08h43.36.330,HF_wild_card,2022.2.4,Win32,60.78288354,5996f68a9039240001432124,64d2fd46c836a06233681665,64dc7d6b2ac0a69ca4696268,,,,,,,decisionTrl,resources/DG.BMP,resources/DY.BMP,Door2,-0.174717369,-0.039568345,1,0,0,0.5046,optionLeft,20,5405,3,15,0,15,0,1,,,,,,,,,,,,,,,,,,,,,,,,,,,,,,,,,,,,,,,
,,,,,,,,2023-08-16_08h43.36.330,HF_wild_card,2022.2.4,Win32,60.78288354,5996f68a9039240001432124,64d2fd46c836a06233681665,64dc7d6b2ac0a69ca4696268,,,,,,,sngl,resources/Empty.png,resources/DR.BMP,Door4,0.228160329,-0.003597122,1,0,0,0.4149,optionRight,60,5465,3,16,0,16,0,1,,,,,,,,,,,,,,,,,,,,,,,,,,,,,,,,,,,,,,,
,,,,,,,,2023-08-16_08h43.36.330,HF_wild_card,2022.2.4,Win32,60.78288354,5996f68a9039240001432124,64d2fd46c836a06233681665,64dc7d6b2ac0a69ca4696268,,,,,,,ctch,resources/DG.BMP,resources/DB.BMP,Door3,0.24049332,-0.009763618,1,0,0,0.5981,optionRight,70,5535,3,17,0,17,0,1,,,,,,,,,,,,,,,,,,,,,,,,,,,,,,,,,,,,,,,
,,,,,,,,2023-08-16_08h43.36.330,HF_wild_card,2022.2.4,Win32,60.78288354,5996f68a9039240001432124,64d2fd46c836a06233681665,64dc7d6b2ac0a69ca4696268,,,,,,,ctch,resources/DB.BMP,resources/DG.BMP,Door3,-0.294964029,-0.03340185,1,0,0,0.4981,optionLeft,70,5605,3,18,0,18,0,1,,,,,,,,,,,,,,,,,,,,,,,,,,,,,,,,,,,,,,,
,,,,,,,,2023-08-16_08h43.36.330,HF_wild_card,2022.2.4,Win32,60.78288354,5996f68a9039240001432124,64d2fd46c836a06233681665,64dc7d6b2ac0a69ca4696268,,,,,,,decisionTrl,resources/DY.BMP,resources/DG.BMP,Door2,0.243576567,-0.002569373,1,0,0,0.4443,optionRight,20,5625,3,19,0,19,0,1,,,,,,,,,,,,,,,,,,,,,,,,,,,,,,,,,,,,,,,
,,,,,,,,2023-08-16_08h43.36.330,HF_wild_card,2022.2.4,Win32,60.78288354,5996f68a9039240001432124,64d2fd46c836a06233681665,64dc7d6b2ac0a69ca4696268,,,,,,,ctch,resources/DG.BMP,resources/DB.BMP,Door2,-0.166495375,-0.023124358,1,0,0,0.4455,optionLeft,20,5645,3,20,0,20,0,1,,,,,,,,,,,,,,,,,,,,,,,,,,,,,,,,,,,,,,,
,,,,,,,,2023-08-16_08h43.36.330,HF_wild_card,2022.2.4,Win32,60.78288354,5996f68a9039240001432124,64d2fd46c836a06233681665,64dc7d6b2ac0a69ca4696268,,,,,,,ctch,resources/DY.BMP,resources/DR.BMP,Door4,0.317574512,-0.004624872,1,0,0,0.8159,optionRight,60,5705,3,21,0,21,0,1,,,,,,,,,,,,,,,,,,,,,,,,,,,,,,,,,,,,,,,
,,,,,,,,2023-08-16_08h43.36.330,HF_wild_card,2022.2.4,Win32,60.78288354,5996f68a9039240001432124,64d2fd46c836a06233681665,64dc7d6b2ac0a69ca4696268,,,,,,,sngl,resources/DB.BMP,resources/Empty.png,Door3,-0.392600206,-0.004624872,1,0,0,0.4023,optionLeft,70,5775,3,22,0,22,0,1,,,,,,,,,,,,,,,,,,,,,,,,,,,,,,,,,,,,,,,
,,,,,,,,2023-08-16_08h43.36.330,HF_wild_card,2022.2.4,Win32,60.78288354,5996f68a9039240001432124,64d2fd46c836a06233681665,64dc7d6b2ac0a69ca4696268,,,,,,,decisionTrl,resources/DY.BMP,resources/DG.BMP,Door1,-0.176772867,0.010791367,1,0,0,0.698,optionLeft,30,5805,3,23,0,23,0,1,,,,,,,,,,,,,,,,,,,,,,,,,,,,,,,,,,,,,,,
,,,,,,,,2023-08-16_08h43.36.330,HF_wild_card,2022.2.4,Win32,60.78288354,5996f68a9039240001432124,64d2fd46c836a06233681665,64dc7d6b2ac0a69ca4696268,,,,,,,decisionTrl,resources/DY.BMP,resources/DBN.BMP,WildCard_NonEx,0.300102775,0.010791367,1,0,0,0.4986,optionRight,55,5860,3,24,0,24,0,1,,,,,,,,,,,,,,,,,,,,,,,,,,,,,,,,,,,,,,,
,,,,,,,,2023-08-16_08h43.36.330,HF_wild_card,2022.2.4,Win32,60.78288354,5996f68a9039240001432124,64d2fd46c836a06233681665,64dc7d6b2ac0a69ca4696268,,,,,,,decisionTrl,resources/DY.BMP,resources/DG.BMP,Door1,-0.235354573,-0.010791367,1,0,0,0.5152,optionLeft,30,5890,3,25,0,25,0,1,,,,,,,,,,,,,,,,,,,,,,,,,,,,,,,,,,,,,,,
,,,,,,,,2023-08-16_08h43.36.330,HF_wild_card,2022.2.4,Win32,60.78288354,5996f68a9039240001432124,64d2fd46c836a06233681665,64dc7d6b2ac0a69ca4696268,,,,,,,sngl,resources/DY.BMP,resources/Empty.png,Door1,-0.189105858,-0.042651593,1,0,0,0.4316,optionLeft,30,5920,3,26,0,26,0,1,,,,,,,,,,,,,,,,,,,,,,,,,,,,,,,,,,,,,,,
,,,,,,,,2023-08-16_08h43.36.330,HF_wild_card,2022.2.4,Win32,60.78288354,5996f68a9039240001432124,64d2fd46c836a06233681665,64dc7d6b2ac0a69ca4696268,,,,,,,sngl,resources/Empty.png,resources/DG.BMP,Door2,0.134635149,-0.012846865,1,0,0,0.5873,optionRight,20,5940,3,27,0,27,0,1,,,,,,,,,,,,,,,,,,,,,,,,,,,,,,,,,,,,,,,
,,,,,,,,2023-08-16_08h43.36.330,HF_wild_card,2022.2.4,Win32,60.78288354,5996f68a9039240001432124,64d2fd46c836a06233681665,64dc7d6b2ac0a69ca4696268,,,,,,,sngl,resources/Empty.png,resources/DY.BMP,Door1,0.184994861,-0.013874615,1,0,0,0.4649,optionRight,30,5970,3,28,0,28,0,1,,,,,,,,,,,,,,,,,,,,,,,,,,,,,,,,,,,,,,,
,,,,,,,,2023-08-16_08h43.36.330,HF_wild_card,2022.2.4,Win32,60.78288354,5996f68a9039240001432124,64d2fd46c836a06233681665,64dc7d6b2ac0a69ca4696268,,,,,,,sngl,resources/DR.BMP,resources/Empty.png,Door4,-0.384378212,-0.013874615,1,0,0,0.4459,optionLeft,80,6050,3,29,0,29,0,1,,,,,,,,,,,,,,,,,,,,,,,,,,,,,,,,,,,,,,,
,,,,,,,,2023-08-16_08h43.36.330,HF_wild_card,2022.2.4,Win32,60.78288354,5996f68a9039240001432124,64d2fd46c836a06233681665,64dc7d6b2ac0a69ca4696268,,,,,,,decisionTrl,resources/DB.BMP,resources/DR.BMP,Door4,0.26618705,-0.02004111,1,0,0,0.6048,optionRight,60,6110,3,30,0,30,0,1,,,,,,,,,,,,,,,,,,,,,,,,,,,,,,,,,,,,,,,
,,,,,,,,2023-08-16_08h43.36.330,HF_wild_card,2022.2.4,Win32,60.78288354,5996f68a9039240001432124,64d2fd46c836a06233681665,64dc7d6b2ac0a69ca4696268,,,,,,,sngl,resources/DBN.BMP,resources/Empty.png,WildCard_NonEx,-0.207605344,-0.035457348,1,0,0,0.4126,optionLeft,55,6165,3,31,0,31,0,1,,,,,,,,,,,,,,,,,,,,,,,,,,,,,,,,,,,,,,,
,,,,,,,,2023-08-16_08h43.36.330,HF_wild_card,2022.2.4,Win32,60.78288354,5996f68a9039240001432124,64d2fd46c836a06233681665,64dc7d6b2ac0a69ca4696268,,,,,,,decisionTrl,resources/DR.BMP,resources/DBN.BMP,Door4,-0.225077081,-0.022096608,1,0,0,0.531,optionLeft,80,6245,3,32,0,32,0,1,,,,,,,,,,,,,,,,,,,,,,,,,,,,,,,,,,,,,,,
,,,,,,,,2023-08-16_08h43.36.330,HF_wild_card,2022.2.4,Win32,60.78288354,5996f68a9039240001432124,64d2fd46c836a06233681665,64dc7d6b2ac0a69ca4696268,,,,,,,decisionTrl,resources/DR.BMP,resources/DB.BMP,Door3,0.286742035,0.000513875,1,0,0,0.4317,optionRight,70,6315,3,33,0,33,0,1,,,,,,,,,,,,,,,,,,,,,,,,,,,,,,,,,,,,,,,
,,,,,,,,2023-08-16_08h43.36.330,HF_wild_card,2022.2.4,Win32,60.78288354,5996f68a9039240001432124,64d2fd46c836a06233681665,64dc7d6b2ac0a69ca4696268,,,,,,,decisionTrl,resources/DY.BMP,resources/DG.BMP,Door1,-0.188078109,-0.012846865,1,0,0,0.6473,optionLeft,30,6345,3,34,0,34,0,1,,,,,,,,,,,,,,,,,,,,,,,,,,,,,,,,,,,,,,,
,,,,,,,,2023-08-16_08h43.36.330,HF_wild_card,2022.2.4,Win32,60.78288354,5996f68a9039240001432124,64d2fd46c836a06233681665,64dc7d6b2ac0a69ca4696268,,,,,,,decisionTrl,resources/DB.BMP,resources/DR.BMP,Door3,-0.207605344,-0.02004111,1,0,0,0.5317,optionLeft,70,6415,3,35,0,35,0,1,,,,,,,,,,,,,,,,,,,,,,,,,,,,,,,,,,,,,,,
,,,,,,,,2023-08-16_08h43.36.330,HF_wild_card,2022.2.4,Win32,60.78288354,5996f68a9039240001432124,64d2fd46c836a06233681665,64dc7d6b2ac0a69ca4696268,,,,,,,decisionTrl,resources/DBN.BMP,resources/DB.BMP,WildCard_NonEx,-0.139773895,-0.042651593,1,0,0,0.7648,optionLeft,45,6460,3,36,0,36,0,1,,,,,,,,,,,,,,,,,,,,,,,,,,,,,,,,,,,,,,,
,,,,,,,,2023-08-16_08h43.36.330,HF_wild_card,2022.2.4,Win32,60.78288354,5996f68a9039240001432124,64d2fd46c836a06233681665,64dc7d6b2ac0a69ca4696268,,,,,,,sngl,resources/Empty.png,resources/DBN.BMP,WildCard_NonEx,0.203494347,-0.013874615,1,0,0,0.4818,optionRight,45,6505,3,37,0,37,0,1,,,,,,,,,,,,,,,,,,,,,,,,,,,,,,,,,,,,,,,
,,,,,,,,2023-08-16_08h43.36.330,HF_wild_card,2022.2.4,Win32,60.78288354,5996f68a9039240001432124,64d2fd46c836a06233681665,64dc7d6b2ac0a69ca4696268,,,,,,,decisionTrl,resources/DBN.BMP,resources/DR.BMP,WildCard_NonEx,-0.140801644,-0.030318602,1,0,0,0.7147,optionLeft,55,6560,3,38,0,38,0,1,,,,,,,,,,,,,,,,,,,,,,,,,,,,,,,,,,,,,,,
,,,,,,,,2023-08-16_08h43.36.330,HF_wild_card,2022.2.4,Win32,60.78288354,5996f68a9039240001432124,64d2fd46c836a06233681665,64dc7d6b2ac0a69ca4696268,,,,,,,sngl,resources/DG.BMP,resources/Empty.png,Door2,-0.171634121,-0.041623844,1,0,0,0.4647,optionLeft,40,6600,3,39,0,39,0,1,,,,,,,,,,,,,,,,,,,,,,,,,,,,,,,,,,,,,,,
,,,,,,,,2023-08-16_08h43.36.330,HF_wild_card,2022.2.4,Win32,60.78288354,5996f68a9039240001432124,64d2fd46c836a06233681665,64dc7d6b2ac0a69ca4696268,,,,,,,decisionTrl,resources/DG.BMP,resources/DY.BMP,Door2,-0.162384378,-0.037512847,1,0,0,0.4312,optionLeft,40,6640,3,40,0,40,0,1,,,,,,,,,,,,,,,,,,,,,,,,,,,,,,,,,,,,,,,
,,,,,,,,2023-08-16_08h43.36.330,HF_wild_card,2022.2.4,Win32,60.78288354,5996f68a9039240001432124,64d2fd46c836a06233681665,64dc7d6b2ac0a69ca4696268,,,,,,,decisionTrl,resources/DBN.BMP,resources/DY.BMP,WildCard_NonEx,-0.195272354,-0.031346351,1,0,0,0.5971,optionLeft,45,6685,3,41,0,41,0,1,,,,,,,,,,,,,,,,,,,,,,,,,,,,,,,,,,,,,,,
,,,,,,,,2023-08-16_08h43.36.330,HF_wild_card,2022.2.4,Win32,60.78288354,5996f68a9039240001432124,64d2fd46c836a06233681665,64dc7d6b2ac0a69ca4696268,,,,,,,sngl,resources/Empty.png,resources/DB.BMP,Door3,0.272353546,-0.00668037,1,0,0,0.4362,optionRight,70,6755,3,42,0,42,0,1,,,,,,,,,,,,,,,,,,,,,,,,,,,,,,,,,,,,,,,
,,,,,,,,2023-08-16_08h43.36.330,HF_wild_card,2022.2.4,Win32,60.78288354,5996f68a9039240001432124,64d2fd46c836a06233681665,64dc7d6b2ac0a69ca4696268,,,,,,,decisionTrl,resources/DB.BMP,resources/DBN.BMP,Door3,-0.09352518,-0.003597122,1,0,0,0.2643,optionLeft,70,6825,3,43,0,43,0,1,,,,,,,,,,,,,,,,,,,,,,,,,,,,,,,,,,,,,,,
,,,,,,,,2023-08-16_08h43.36.330,HF_wild_card,2022.2.4,Win32,60.78288354,5996f68a9039240001432124,64d2fd46c836a06233681665,64dc7d6b2ac0a69ca4696268,,,,,,,,,,,,,,,,,,,,,,,,,,2,0,2,0,1,,,,,,,,,,,,,,,,,,,,,,,,,,,,,,,,,,
,,,,,,,,2023-08-16_08h43.36.330,HF_wild_card,2022.2.4,Win32,60.78288354,5996f68a9039240001432124,64d2fd46c836a06233681665,64dc7d6b2ac0a69ca4696268,,,,,,,ctch,resources/DB.BMP,resources/DG.BMP,Door3,-0.136690647,-0.19270298,1,0,0,0.8335,optionLeft,70,6895,4,0,0,0,0,1,,,,,,,,,,,,,,,,,,,,,,,,,,,,,,,,,,,,,,,
,,,,,,,,2023-08-16_08h43.36.330,HF_wild_card,2022.2.4,Win32,60.78288354,5996f68a9039240001432124,64d2fd46c836a06233681665,64dc7d6b2ac0a69ca4696268,,,,,,,sngl,resources/Empty.png,resources/DP.BMP,WildCard_Ex,0.194244604,-0.028263104,1,0,0,0.7648,optionRight,5,6900,4,1,0,1,0,1,,,,,,,,,,,,,,,,,,,,,,,,,,,,,,,,,,,,,,,
,,,,,,,,2023-08-16_08h43.36.330,HF_wild_card,2022.2.4,Win32,60.78288354,5996f68a9039240001432124,64d2fd46c836a06233681665,64dc7d6b2ac0a69ca4696268,,,,,,,sngl,resources/DY.BMP,resources/Empty.png,Door1,-0.171634121,-0.00668037,1,0,0,0.431,optionLeft,30,6930,4,2,0,2,0,1,,,,,,,,,,,,,,,,,,,,,,,,,,,,,,,,,,,,,,,
,,,,,,,,2023-08-16_08h43.36.330,HF_wild_card,2022.2.4,Win32,60.78288354,5996f68a9039240001432124,64d2fd46c836a06233681665,64dc7d6b2ac0a69ca4696268,,,,,,,decisionTrl,resources/DP.BMP,resources/DY.BMP,Door1,0.2004111,0.005652621,1,0,0,0.5588,optionRight,30,6960,4,3,0,3,0,1,,,,,,,,,,,,,,,,,,,,,,,,,,,,,,,,,,,,,,,
,,,,,,,,2023-08-16_08h43.36.330,HF_wild_card,2022.2.4,Win32,60.78288354,5996f68a9039240001432124,64d2fd46c836a06233681665,64dc7d6b2ac0a69ca4696268,,,,,,,decisionTrl,resources/DG.BMP,resources/DY.BMP,Door2,-0.224049332,-0.022096608,1,0,0,0.7478,optionLeft,40,7000,4,4,0,4,0,1,,,,,,,,,,,,,,,,,,,,,,,,,,,,,,,,,,,,,,,
,,,,,,,,2023-08-16_08h43.36.330,HF_wild_card,2022.2.4,Win32,60.78288354,5996f68a9039240001432124,64d2fd46c836a06233681665,64dc7d6b2ac0a69ca4696268,,,,,,,decisionTrl,resources/DB.BMP,resources/DR.BMP,Door3,-0.276464543,-0.012846865,1,0,0,0.7874,optionLeft,70,7070,4,5,0,5,0,1,,,,,,,,,,,,,,,,,,,,,,,,,,,,,,,,,,,,,,,
,,,,,,,,2023-08-16_08h43.36.330,HF_wild_card,2022.2.4,Win32,60.78288354,5996f68a9039240001432124,64d2fd46c836a06233681665,64dc7d6b2ac0a69ca4696268,,,,,,,ctch,resources/DY.BMP,resources/DR.BMP,Door1,-0.108941418,-0.022096608,1,0,0,0.6076,optionLeft,30,7100,4,6,0,6,0,1,,,,,,,,,,,,,,,,,,,,,,,,,,,,,,,,,,,,,,,
,,,,,,,,2023-08-16_08h43.36.330,HF_wild_card,2022.2.4,Win32,60.78288354,5996f68a9039240001432124,64d2fd46c836a06233681665,64dc7d6b2ac0a69ca4696268,,,,,,,sngl,resources/DG.BMP,resources/Empty.png,Door2,-0.203494347,-0.002569373,1,0,0,0.4542,optionLeft,20,7120,4,7,0,7,0,1,,,,,,,,,,,,,,,,,,,,,,,,,,,,,,,,,,,,,,,
,,,,,,,,2023-08-16_08h43.36.330,HF_wild_card,2022.2.4,Win32,60.78288354,5996f68a9039240001432124,64d2fd46c836a06233681665,64dc7d6b2ac0a69ca4696268,,,,,,,sngl,resources/DP.BMP,resources/Empty.png,WildCard_Ex,-0.170606372,-0.003597122,1,0,0,0.7815,optionLeft,5,7125,4,8,0,8,0,1,,,,,,,,,,,,,,,,,,,,,,,,,,,,,,,,,,,,,,,
,,,,,,,,2023-08-16_08h43.36.330,HF_wild_card,2022.2.4,Win32,60.78288354,5996f68a9039240001432124,64d2fd46c836a06233681665,64dc7d6b2ac0a69ca4696268,,,,,,,ctch,resources/DY.BMP,resources/DR.BMP,Door4,0.327852004,-0.036485098,1,0,0,0.6397,optionRight,80,7205,4,9,0,9,0,1,,,,,,,,,,,,,,,,,,,,,,,,,,,,,,,,,,,,,,,
,,,,,,,,2023-08-16_08h43.36.330,HF_wild_card,2022.2.4,Win32,60.78288354,5996f68a9039240001432124,64d2fd46c836a06233681665,64dc7d6b2ac0a69ca4696268,,,,,,,decisionTrl,resources/DG.BMP,resources/DY.BMP,Door1,0.336073998,-0.005652621,1,0,0,0.7423,optionRight,30,7235,4,10,0,10,0,1,,,,,,,,,,,,,,,,,,,,,,,,,,,,,,,,,,,,,,,
,,,,,,,,2023-08-16_08h43.36.330,HF_wild_card,2022.2.4,Win32,60.78288354,5996f68a9039240001432124,64d2fd46c836a06233681665,64dc7d6b2ac0a69ca4696268,,,,,,,decisionTrl,resources/DB.BMP,resources/DR.BMP,Door4,0.27954779,0.027235355,1,0,0,0.7555,optionRight,80,7315,4,11,0,11,0,1,,,,,,,,,,,,,,,,,,,,,,,,,,,,,,,,,,,,,,,
,,,,,,,,2023-08-16_08h43.36.330,HF_wild_card,2022.2.4,Win32,60.78288354,5996f68a9039240001432124,64d2fd46c836a06233681665,64dc7d6b2ac0a69ca4696268,,,,,,,sngl,resources/DB.BMP,resources/Empty.png,Door3,-0.208633094,-0.03340185,1,0,0,0.4223,optionLeft,70,7385,4,12,0,12,0,1,,,,,,,,,,,,,,,,,,,,,,,,,,,,,,,,,,,,,,,
,,,,,,,,2023-08-16_08h43.36.330,HF_wild_card,2022.2.4,Win32,60.78288354,5996f68a9039240001432124,64d2fd46c836a06233681665,64dc7d6b2ac0a69ca4696268,,,,,,,ctch,resources/DB.BMP,resources/DG.BMP,Door3,-0.16032888,-0.021068859,1,0,0,0.7149,optionLeft,70,7455,4,13,0,13,0,1,,,,,,,,,,,,,,,,,,,,,,,,,,,,,,,,,,,,,,,
,,,,,,,,2023-08-16_08h43.36.330,HF_wild_card,2022.2.4,Win32,60.78288354,5996f68a9039240001432124,64d2fd46c836a06233681665,64dc7d6b2ac0a69ca4696268,,,,,,,sngl,resources/DP.BMP,resources/Empty.png,WildCard_Ex,-0.18602261,-0.008735868,1,0,0,0.5156,optionLeft,95,7550,4,14,0,14,0,1,,,,,,,,,,,,,,,,,,,,,,,,,,,,,,,,,,,,,,,
,,,,,,,,2023-08-16_08h43.36.330,HF_wild_card,2022.2.4,Win32,60.78288354,5996f68a9039240001432124,64d2fd46c836a06233681665,64dc7d6b2ac0a69ca4696268,,,,,,,decisionTrl,resources/DR.BMP,resources/DP.BMP,Door4,-0.188078109,-0.040596095,1,0,0,0.5143,optionLeft,80,7630,4,15,0,15,0,1,,,,,,,,,,,,,,,,,,,,,,,,,,,,,,,,,,,,,,,
,,,,,,,,2023-08-16_08h43.36.330,HF_wild_card,2022.2.4,Win32,60.78288354,5996f68a9039240001432124,64d2fd46c836a06233681665,64dc7d6b2ac0a69ca4696268,,,,,,,decisionTrl,resources/DR.BMP,resources/DB.BMP,Door4,-0.171634121,-0.043679342,1,0,0,0.5649,optionLeft,60,7690,4,16,0,16,0,1,,,,,,,,,,,,,,,,,,,,,,,,,,,,,,,,,,,,,,,
,,,,,,,,2023-08-16_08h43.36.330,HF_wild_card,2022.2.4,Win32,60.78288354,5996f68a9039240001432124,64d2fd46c836a06233681665,64dc7d6b2ac0a69ca4696268,,,,,,,ctch,resources/DR.BMP,resources/DY.BMP,Door1,0.272353546,-0.000513875,1,0,0,0.4961,optionRight,30,7720,4,17,0,17,0,1,,,,,,,,,,,,,,,,,,,,,,,,,,,,,,,,,,,,,,,
,,,,,,,,2023-08-16_08h43.36.330,HF_wild_card,2022.2.4,Win32,60.78288354,5996f68a9039240001432124,64d2fd46c836a06233681665,64dc7d6b2ac0a69ca4696268,,,,,,,decisionTrl,resources/DG.BMP,resources/DY.BMP,Door2,-0.207605344,-0.019013361,1,0,0,0.5489,optionLeft,20,7740,4,18,0,18,0,1,,,,,,,,,,,,,,,,,,,,,,,,,,,,,,,,,,,,,,,
,,,,,,,,2023-08-16_08h43.36.330,HF_wild_card,2022.2.4,Win32,60.78288354,5996f68a9039240001432124,64d2fd46c836a06233681665,64dc7d6b2ac0a69ca4696268,,,,,,,ctch,resources/DG.BMP,resources/DB.BMP,Door3,0.295991778,-0.007708119,1,0,0,0.4865,optionRight,70,7810,4,19,0,19,0,1,,,,,,,,,,,,,,,,,,,,,,,,,,,,,,,,,,,,,,,
,,,,,,,,2023-08-16_08h43.36.330,HF_wild_card,2022.2.4,Win32,60.78288354,5996f68a9039240001432124,64d2fd46c836a06233681665,64dc7d6b2ac0a69ca4696268,,,,,,,decisionTrl,resources/DY.BMP,resources/DP.BMP,Door1,-0.192189106,-0.021068859,1,0,0,0.6458,optionLeft,30,7840,4,20,0,20,0,1,,,,,,,,,,,,,,,,,,,,,,,,,,,,,,,,,,,,,,,
,,,,,,,,2023-08-16_08h43.36.330,HF_wild_card,2022.2.4,Win32,60.78288354,5996f68a9039240001432124,64d2fd46c836a06233681665,64dc7d6b2ac0a69ca4696268,,,,,,,decisionTrl,resources/DP.BMP,resources/DB.BMP,WildCard_Ex,-0.129496403,-0.036485098,1,0,0,0.6154,optionLeft,95,7935,4,21,0,21,0,1,,,,,,,,,,,,,,,,,,,,,,,,,,,,,,,,,,,,,,,
,,,,,,,,2023-08-16_08h43.36.330,HF_wild_card,2022.2.4,Win32,60.78288354,5996f68a9039240001432124,64d2fd46c836a06233681665,64dc7d6b2ac0a69ca4696268,,,,,,,decisionTrl,resources/DY.BMP,resources/DG.BMP,Door1,-0.129496403,-0.03340185,1,0,0,0.7313,optionLeft,30,7965,4,22,0,22,0,1,,,,,,,,,,,,,,,,,,,,,,,,,,,,,,,,,,,,,,,
,,,,,,,,2023-08-16_08h43.36.330,HF_wild_card,2022.2.4,Win32,60.78288354,5996f68a9039240001432124,64d2fd46c836a06233681665,64dc7d6b2ac0a69ca4696268,,,,,,,decisionTrl,resources/DR.BMP,resources/DB.BMP,Door4,-0.204522097,-0.028263104,1,0,0,0.4812,optionLeft,80,8045,4,23,0,23,0,1,,,,,,,,,,,,,,,,,,,,,,,,,,,,,,,,,,,,,,,
,,,,,,,,2023-08-16_08h43.36.330,HF_wild_card,2022.2.4,Win32,60.78288354,5996f68a9039240001432124,64d2fd46c836a06233681665,64dc7d6b2ac0a69ca4696268,,,,,,,ctch,resources/DG.BMP,resources/DB.BMP,Door2,-0.137718397,-0.03340185,1,0,0,0.6488,optionLeft,40,8085,4,24,0,24,0,1,,,,,,,,,,,,,,,,,,,,,,,,,,,,,,,,,,,,,,,
,,,,,,,,2023-08-16_08h43.36.330,HF_wild_card,2022.2.4,Win32,60.78288354,5996f68a9039240001432124,64d2fd46c836a06233681665,64dc7d6b2ac0a69ca4696268,,,,,,,decisionTrl,resources/DB.BMP,resources/DR.BMP,Door4,0.350462487,-0.010791367,1,0,0,0.5321,optionRight,60,8145,4,25,0,25,0,1,,,,,,,,,,,,,,,,,,,,,,,,,,,,,,,,,,,,,,,
,,,,,,,,2023-08-16_08h43.36.330,HF_wild_card,2022.2.4,Win32,60.78288354,5996f68a9039240001432124,64d2fd46c836a06233681665,64dc7d6b2ac0a69ca4696268,,,,,,,decisionTrl,resources/DY.BMP,resources/DG.BMP,Door1,-0.236382323,-0.004624872,1,0,0,0.7099,optionLeft,30,8175,4,26,0,26,0,1,,,,,,,,,,,,,,,,,,,,,,,,,,,,,,,,,,,,,,,
,,,,,,,,2023-08-16_08h43.36.330,HF_wild_card,2022.2.4,Win32,60.78288354,5996f68a9039240001432124,64d2fd46c836a06233681665,64dc7d6b2ac0a69ca4696268,,,,,,,decisionTrl,resources/DR.BMP,resources/DB.BMP,Door4,-0.179856115,-0.024152107,1,0,0,0.5479,optionLeft,60,8235,4,27,0,27,0,1,,,,,,,,,,,,,,,,,,,,,,,,,,,,,,,,,,,,,,,
,,,,,,,,2023-08-16_08h43.36.330,HF_wild_card,2022.2.4,Win32,60.78288354,5996f68a9039240001432124,64d2fd46c836a06233681665,64dc7d6b2ac0a69ca4696268,,,,,,,sngl,resources/Empty.png,resources/DP.BMP,WildCard_Ex,0.143884892,-0.010791367,1,0,0,0.5484,optionRight,95,8330,4,28,0,28,0,1,,,,,,,,,,,,,,,,,,,,,,,,,,,,,,,,,,,,,,,
,,,,,,,,2023-08-16_08h43.36.330,HF_wild_card,2022.2.4,Win32,60.78288354,5996f68a9039240001432124,64d2fd46c836a06233681665,64dc7d6b2ac0a69ca4696268,,,,,,,sngl,resources/Empty.png,resources/DR.BMP,Door4,0.278520041,-0.038540596,1,0,0,0.4149,optionRight,80,8410,4,29,0,29,0,1,,,,,,,,,,,,,,,,,,,,,,,,,,,,,,,,,,,,,,,
,,,,,,,,2023-08-16_08h43.36.330,HF_wild_card,2022.2.4,Win32,60.78288354,5996f68a9039240001432124,64d2fd46c836a06233681665,64dc7d6b2ac0a69ca4696268,,,,,,,sngl,resources/Empty.png,resources/DY.BMP,Door1,0.270298047,-0.039568345,1,0,0,0.4479,optionRight,30,8440,4,30,0,30,0,1,,,,,,,,,,,,,,,,,,,,,,,,,,,,,,,,,,,,,,,
,,,,,,,,2023-08-16_08h43.36.330,HF_wild_card,2022.2.4,Win32,60.78288354,5996f68a9039240001432124,64d2fd46c836a06233681665,64dc7d6b2ac0a69ca4696268,,,,,,,decisionTrl,resources/DY.BMP,resources/DG.BMP,Door1,-0.174717369,-0.007708119,1,0,0,0.4319,optionLeft,30,8470,4,31,0,31,0,1,,,,,,,,,,,,,,,,,,,,,,,,,,,,,,,,,,,,,,,
,,,,,,,,2023-08-16_08h43.36.330,HF_wild_card,2022.2.4,Win32,60.78288354,5996f68a9039240001432124,64d2fd46c836a06233681665,64dc7d6b2ac0a69ca4696268,,,,,,,decisionTrl,resources/DG.BMP,resources/DP.BMP,Door2,-0.119218911,-0.014902364,1,0,0,0.3975,optionLeft,40,8510,4,32,0,32,0,1,,,,,,,,,,,,,,,,,,,,,,,,,,,,,,,,,,,,,,,
,,,,,,,,2023-08-16_08h43.36.330,HF_wild_card,2022.2.4,Win32,60.78288354,5996f68a9039240001432124,64d2fd46c836a06233681665,64dc7d6b2ac0a69ca4696268,,,,,,,decisionTrl,resources/DY.BMP,resources/DG.BMP,Door1,-0.157245632,-0.008735868,1,0,0,0.4662,optionLeft,30,8540,4,33,0,33,0,1,,,,,,,,,,,,,,,,,,,,,,,,,,,,,,,,,,,,,,,
,,,,,,,,2023-08-16_08h43.36.330,HF_wild_card,2022.2.4,Win32,60.78288354,5996f68a9039240001432124,64d2fd46c836a06233681665,64dc7d6b2ac0a69ca4696268,,,,,,,decisionTrl,resources/DP.BMP,resources/DR.BMP,Door4,0.179856115,0.030318602,1,0,0,0.3321,optionRight,60,8600,4,34,0,34,0,1,,,,,,,,,,,,,,,,,,,,,,,,,,,,,,,,,,,,,,,
,,,,,,,,2023-08-16_08h43.36.330,HF_wild_card,2022.2.4,Win32,60.78288354,5996f68a9039240001432124,64d2fd46c836a06233681665,64dc7d6b2ac0a69ca4696268,,,,,,,decisionTrl,resources/DG.BMP,resources/DY.BMP,Door1,0.295991778,0.003597122,1,0,0,0.6798,optionRight,30,8630,4,35,0,35,0,1,,,,,,,,,,,,,,,,,,,,,,,,,,,,,,,,,,,,,,,
,,,,,,,,2023-08-16_08h43.36.330,HF_wild_card,2022.2.4,Win32,60.78288354,5996f68a9039240001432124,64d2fd46c836a06233681665,64dc7d6b2ac0a69ca4696268,,,,,,,decisionTrl,resources/DR.BMP,resources/DB.BMP,Door3,0.26618705,-0.007708119,1,0,0,0.5468,optionRight,70,8700,4,36,0,36,0,1,,,,,,,,,,,,,,,,,,,,,,,,,,,,,,,,,,,,,,,
,,,,,,,,2023-08-16_08h43.36.330,HF_wild_card,2022.2.4,Win32,60.78288354,5996f68a9039240001432124,64d2fd46c836a06233681665,64dc7d6b2ac0a69ca4696268,,,,,,,sngl,resources/Empty.png,resources/DB.BMP,Door3,0.217882837,-0.002569373,1,0,0,0.3827,optionRight,70,8770,4,37,0,37,0,1,,,,,,,,,,,,,,,,,,,,,,,,,,,,,,,,,,,,,,,
,,,,,,,,2023-08-16_08h43.36.330,HF_wild_card,2022.2.4,Win32,60.78288354,5996f68a9039240001432124,64d2fd46c836a06233681665,64dc7d6b2ac0a69ca4696268,,,,,,,decisionTrl,resources/DB.BMP,resources/DR.BMP,Door4,0.21377184,-0.031346351,1,0,0,0.5661,optionRight,80,8850,4,38,0,38,0,1,,,,,,,,,,,,,,,,,,,,,,,,,,,,,,,,,,,,,,,
,,,,,,,,2023-08-16_08h43.36.330,HF_wild_card,2022.2.4,Win32,60.78288354,5996f68a9039240001432124,64d2fd46c836a06233681665,64dc7d6b2ac0a69ca4696268,,,,,,,sngl,resources/DR.BMP,resources/Empty.png,Door4,-0.217882837,-0.044707091,1,0,0,0.4319,optionLeft,60,8910,4,39,0,39,0,1,,,,,,,,,,,,,,,,,,,,,,,,,,,,,,,,,,,,,,,
,,,,,,,,2023-08-16_08h43.36.330,HF_wild_card,2022.2.4,Win32,60.78288354,5996f68a9039240001432124,64d2fd46c836a06233681665,64dc7d6b2ac0a69ca4696268,,,,,,,decisionTrl,resources/DP.BMP,resources/DG.BMP,Door2,0.289825283,-0.004624872,1,0,0,0.433,optionRight,40,8950,4,40,0,40,0,1,,,,,,,,,,,,,,,,,,,,,,,,,,,,,,,,,,,,,,,
,,,,,,,,2023-08-16_08h43.36.330,HF_wild_card,2022.2.4,Win32,60.78288354,5996f68a9039240001432124,64d2fd46c836a06233681665,64dc7d6b2ac0a69ca4696268,,,,,,,ctch,resources/DR.BMP,resources/DY.BMP,Door1,0.217882837,-0.003597122,1,0,0,0.5669,optionRight,30,8980,4,41,0,41,0,1,,,,,,,,,,,,,,,,,,,,,,,,,,,,,,,,,,,,,,,
,,,,,,,,2023-08-16_08h43.36.330,HF_wild_card,2022.2.4,Win32,60.78288354,5996f68a9039240001432124,64d2fd46c836a06233681665,64dc7d6b2ac0a69ca4696268,,,,,,,decisionTrl,resources/DB.BMP,resources/DP.BMP,Door3,-0.168550874,-0.015930113,1,0,0,0.6158,optionLeft,70,9050,4,42,0,42,0,1,,,,,,,,,,,,,,,,,,,,,,,,,,,,,,,,,,,,,,,
,,,,,,,,2023-08-16_08h43.36.330,HF_wild_card,2022.2.4,Win32,60.78288354,5996f68a9039240001432124,64d2fd46c836a06233681665,64dc7d6b2ac0a69ca4696268,,,,,,,sngl,resources/Empty.png,resources/DG.BMP,Door2,0.19938335,-0.007708119,1,0,0,0.4634,optionRight,40,9090,4,43,0,43,0,1,,,,,,,,,,,,,,,,,,,,,,,,,,,,,,,,,,,,,,,
,,,,,,,,2023-08-16_08h43.36.330,HF_wild_card,2022.2.4,Win32,60.78288354,5996f68a9039240001432124,64d2fd46c836a06233681665,64dc7d6b2ac0a69ca4696268,,,,,,,,,,,,,,,,,,,,,,,,,,3,0,3,0,1,,,,,,,,,,,,,,,,,,,,,,,,,,,,,,,,,,
,,,,,,,,2023-08-16_08h43.36.330,HF_wild_card,2022.2.4,Win32,60.78288354,5996f68a9039240001432124,64d2fd46c836a06233681665,64dc7d6b2ac0a69ca4696268,,,,,,,decisionTrl,resources/DG.BMP,resources/DP.BMP,Door2,-0.260020555,-0.079650565,1,0,0,0.5618,optionLeft,40,9130,5,0,0,0,0,1,,,,,,,,,,,,,,,,,,,,,,,,,,,,,,,,,,,,,,,
,,,,,,,,2023-08-16_08h43.36.330,HF_wild_card,2022.2.4,Win32,60.78288354,5996f68a9039240001432124,64d2fd46c836a06233681665,64dc7d6b2ac0a69ca4696268,,,,,,,sngl,resources/Empty.png,resources/DY.BMP,Door1,0.21274409,-0.015930113,1,0,0,0.416,optionRight,30,9160,5,1,0,1,0,1,,,,,,,,,,,,,,,,,,,,,,,,,,,,,,,,,,,,,,,
,,,,,,,,2023-08-16_08h43.36.330,HF_wild_card,2022.2.4,Win32,60.78288354,5996f68a9039240001432124,64d2fd46c836a06233681665,64dc7d6b2ac0a69ca4696268,,,,,,,decisionTrl,resources/DR.BMP,resources/DB.BMP,Door4,-0.193216855,-0.011819116,1,0,0,0.3992,optionLeft,80,9240,5,2,0,2,0,1,,,,,,,,,,,,,,,,,,,,,,,,,,,,,,,,,,,,,,,
,,,,,,,,2023-08-16_08h43.36.330,HF_wild_card,2022.2.4,Win32,60.78288354,5996f68a9039240001432124,64d2fd46c836a06233681665,64dc7d6b2ac0a69ca4696268,,,,,,,sngl,resources/Empty.png,resources/DG.BMP,Door2,0.18705036,-0.002569373,1,0,0,0.4488,optionRight,20,9260,5,3,0,3,0,1,,,,,,,,,,,,,,,,,,,,,,,,,,,,,,,,,,,,,,,
,,,,,,,,2023-08-16_08h43.36.330,HF_wild_card,2022.2.4,Win32,60.78288354,5996f68a9039240001432124,64d2fd46c836a06233681665,64dc7d6b2ac0a69ca4696268,,,,,,,decisionTrl,resources/DY.BMP,resources/DG.BMP,Door1,-0.14696814,-0.015930113,1,0,0,0.5325,optionLeft,30,9290,5,4,0,4,0,1,,,,,,,,,,,,,,,,,,,,,,,,,,,,,,,,,,,,,,,
,,,,,,,,2023-08-16_08h43.36.330,HF_wild_card,2022.2.4,Win32,60.78288354,5996f68a9039240001432124,64d2fd46c836a06233681665,64dc7d6b2ac0a69ca4696268,,,,,,,decisionTrl,resources/DB.BMP,resources/DR.BMP,Door3,-0.139773895,0.008735868,1,0,0,0.4965,optionLeft,70,9360,5,5,0,5,0,1,,,,,,,,,,,,,,,,,,,,,,,,,,,,,,,,,,,,,,,
,,,,,,,,2023-08-16_08h43.36.330,HF_wild_card,2022.2.4,Win32,60.78288354,5996f68a9039240001432124,64d2fd46c836a06233681665,64dc7d6b2ac0a69ca4696268,,,,,,,decisionTrl,resources/DY.BMP,resources/DG.BMP,Door1,-0.277492292,-0.014902364,1,0,0,0.8159,optionLeft,30,9390,5,6,0,6,0,1,,,,,,,,,,,,,,,,,,,,,,,,,,,,,,,,,,,,,,,
,,,,,,,,2023-08-16_08h43.36.330,HF_wild_card,2022.2.4,Win32,60.78288354,5996f68a9039240001432124,64d2fd46c836a06233681665,64dc7d6b2ac0a69ca4696268,,,,,,,decisionTrl,resources/DG.BMP,resources/DY.BMP,Door2,-0.180883864,-0.031346351,1,0,0,0.5818,optionLeft,40,9430,5,7,0,7,0,1,,,,,,,,,,,,,,,,,,,,,,,,,,,,,,,,,,,,,,,
,,,,,,,,2023-08-16_08h43.36.330,HF_wild_card,2022.2.4,Win32,60.78288354,5996f68a9039240001432124,64d2fd46c836a06233681665,64dc7d6b2ac0a69ca4696268,,,,,,,decisionTrl,resources/DY.BMP,resources/DP.BMP,Door1,-0.181911614,-0.019013361,1,0,0,0.5459,optionLeft,30,9460,5,8,0,8,0,1,,,,,,,,,,,,,,,,,,,,,,,,,,,,,,,,,,,,,,,
,,,,,,,,2023-08-16_08h43.36.330,HF_wild_card,2022.2.4,Win32,60.78288354,5996f68a9039240001432124,64d2fd46c836a06233681665,64dc7d6b2ac0a69ca4696268,,,,,,,decisionTrl,resources/DP.BMP,resources/DB.BMP,WildCard_Ex,-0.268242549,-0.014902364,1,0,0,0.8988,optionLeft,95,9555,5,9,0,9,0,1,,,,,,,,,,,,,,,,,,,,,,,,,,,,,,,,,,,,,,,
,,,,,,,,2023-08-16_08h43.36.330,HF_wild_card,2022.2.4,Win32,60.78288354,5996f68a9039240001432124,64d2fd46c836a06233681665,64dc7d6b2ac0a69ca4696268,,,,,,,decisionTrl,resources/DP.BMP,resources/DG.BMP,Door2,0.241521069,-0.005652621,1,0,0,0.5497,optionRight,20,9575,5,10,0,10,0,1,,,,,,,,,,,,,,,,,,,,,,,,,,,,,,,,,,,,,,,
,,,,,,,,2023-08-16_08h43.36.330,HF_wild_card,2022.2.4,Win32,60.78288354,5996f68a9039240001432124,64d2fd46c836a06233681665,64dc7d6b2ac0a69ca4696268,,,,,,,decisionTrl,resources/DB.BMP,resources/DR.BMP,Door3,-0.155190134,-0.056012333,1,0,0,0.5323,optionLeft,70,9645,5,11,0,11,0,1,,,,,,,,,,,,,,,,,,,,,,,,,,,,,,,,,,,,,,,
,,,,,,,,2023-08-16_08h43.36.330,HF_wild_card,2022.2.4,Win32,60.78288354,5996f68a9039240001432124,64d2fd46c836a06233681665,64dc7d6b2ac0a69ca4696268,,,,,,,decisionTrl,resources/DP.BMP,resources/DY.BMP,Door1,0.27954779,-0.005652621,1,0,0,0.5492,optionRight,30,9675,5,12,0,12,0,1,,,,,,,,,,,,,,,,,,,,,,,,,,,,,,,,,,,,,,,
,,,,,,,,2023-08-16_08h43.36.330,HF_wild_card,2022.2.4,Win32,60.78288354,5996f68a9039240001432124,64d2fd46c836a06233681665,64dc7d6b2ac0a69ca4696268,,,,,,,sngl,resources/Empty.png,resources/DP.BMP,WildCard_Ex,0.188078109,0.002569373,1,0,0,0.5503,optionRight,95,9770,5,13,0,13,0,1,,,,,,,,,,,,,,,,,,,,,,,,,,,,,,,,,,,,,,,
,,,,,,,,2023-08-16_08h43.36.330,HF_wild_card,2022.2.4,Win32,60.78288354,5996f68a9039240001432124,64d2fd46c836a06233681665,64dc7d6b2ac0a69ca4696268,,,,,,,sngl,resources/DP.BMP,resources/Empty.png,WildCard_Ex,-0.234326824,-0.030318602,1,0,0,0.4326,optionLeft,95,9865,5,14,0,14,0,1,,,,,,,,,,,,,,,,,,,,,,,,,,,,,,,,,,,,,,,
,,,,,,,,2023-08-16_08h43.36.330,HF_wild_card,2022.2.4,Win32,60.78288354,5996f68a9039240001432124,64d2fd46c836a06233681665,64dc7d6b2ac0a69ca4696268,,,,,,,decisionTrl,resources/DR.BMP,resources/DP.BMP,WildCard_Ex,0.283658787,-0.040596095,1,0,0,0.5826,optionRight,5,9870,5,15,0,15,0,1,,,,,,,,,,,,,,,,,,,,,,,,,,,,,,,,,,,,,,,
,,,,,,,,2023-08-16_08h43.36.330,HF_wild_card,2022.2.4,Win32,60.78288354,5996f68a9039240001432124,64d2fd46c836a06233681665,64dc7d6b2ac0a69ca4696268,,,,,,,sngl,resources/DY.BMP,resources/Empty.png,Door1,-0.176772867,-0.017985612,1,0,0,0.4143,optionLeft,30,9900,5,16,0,16,0,1,,,,,,,,,,,,,,,,,,,,,,,,,,,,,,,,,,,,,,,
,,,,,,,,2023-08-16_08h43.36.330,HF_wild_card,2022.2.4,Win32,60.78288354,5996f68a9039240001432124,64d2fd46c836a06233681665,64dc7d6b2ac0a69ca4696268,,,,,,,ctch,resources/DG.BMP,resources/DB.BMP,Door2,-0.195272354,-0.041623844,1,0,0,0.6661,optionLeft,20,9920,5,17,0,17,0,1,,,,,,,,,,,,,,,,,,,,,,,,,,,,,,,,,,,,,,,
,,,,,,,,2023-08-16_08h43.36.330,HF_wild_card,2022.2.4,Win32,60.78288354,5996f68a9039240001432124,64d2fd46c836a06233681665,64dc7d6b2ac0a69ca4696268,,,,,,,ctch,resources/DY.BMP,resources/DR.BMP,Door4,0.291880781,-0.003597122,1,0,0,0.8157,optionRight,60,9980,5,18,0,18,0,1,,,,,,,,,,,,,,,,,,,,,,,,,,,,,,,,,,,,,,,
,,,,,,,,2023-08-16_08h43.36.330,HF_wild_card,2022.2.4,Win32,60.78288354,5996f68a9039240001432124,64d2fd46c836a06233681665,64dc7d6b2ac0a69ca4696268,,,,,,,decisionTrl,resources/DB.BMP,resources/DR.BMP,Door3,-0.193216855,-0.034429599,1,0,0,0.6801,optionLeft,70,10050,5,19,0,19,0,1,,,,,,,,,,,,,,,,,,,,,,,,,,,,,,,,,,,,,,,
,,,,,,,,2023-08-16_08h43.36.330,HF_wild_card,2022.2.4,Win32,60.78288354,5996f68a9039240001432124,64d2fd46c836a06233681665,64dc7d6b2ac0a69ca4696268,,,,,,,ctch,resources/DY.BMP,resources/DR.BMP,Door4,0.232271326,0.000513875,1,0,0,0.5829,optionRight,60,10110,5,20,0,20,0,1,,,,,,,,,,,,,,,,,,,,,,,,,,,,,,,,,,,,,,,
,,,,,,,,2023-08-16_08h43.36.330,HF_wild_card,2022.2.4,Win32,60.78288354,5996f68a9039240001432124,64d2fd46c836a06233681665,64dc7d6b2ac0a69ca4696268,,,,,,,sngl,resources/Empty.png,resources/DB.BMP,Door3,0.233299075,-0.005652621,1,0,0,0.4323,optionRight,70,10180,5,21,0,21,0,1,,,,,,,,,,,,,,,,,,,,,,,,,,,,,,,,,,,,,,,
,,,,,,,,2023-08-16_08h43.36.330,HF_wild_card,2022.2.4,Win32,60.78288354,5996f68a9039240001432124,64d2fd46c836a06233681665,64dc7d6b2ac0a69ca4696268,,,,,,,ctch,resources/DR.BMP,resources/DY.BMP,Door4,-0.297019527,-0.007708119,1,0,0,0.7295,optionLeft,80,10260,5,22,0,22,0,1,,,,,,,,,,,,,,,,,,,,,,,,,,,,,,,,,,,,,,,
,,,,,,,,2023-08-16_08h43.36.330,HF_wild_card,2022.2.4,Win32,60.78288354,5996f68a9039240001432124,64d2fd46c836a06233681665,64dc7d6b2ac0a69ca4696268,,,,,,,ctch,resources/DR.BMP,resources/DY.BMP,Door4,-0.2672148,-0.061151079,1,0,0,0.5803,optionLeft,60,10320,5,23,0,23,0,1,,,,,,,,,,,,,,,,,,,,,,,,,,,,,,,,,,,,,,,
,,,,,,,,2023-08-16_08h43.36.330,HF_wild_card,2022.2.4,Win32,60.78288354,5996f68a9039240001432124,64d2fd46c836a06233681665,64dc7d6b2ac0a69ca4696268,,,,,,,decisionTrl,resources/DR.BMP,resources/DB.BMP,Door4,-0.219938335,-0.023124358,1,0,0,0.5789,optionLeft,80,10400,5,24,0,24,0,1,,,,,,,,,,,,,,,,,,,,,,,,,,,,,,,,,,,,,,,
,,,,,,,,2023-08-16_08h43.36.330,HF_wild_card,2022.2.4,Win32,60.78288354,5996f68a9039240001432124,64d2fd46c836a06233681665,64dc7d6b2ac0a69ca4696268,,,,,,,decisionTrl,resources/DG.BMP,resources/DY.BMP,Door2,-0.304213772,0.014902364,1,0,0,0.7835,optionLeft,20,10420,5,25,0,25,0,1,,,,,,,,,,,,,,,,,,,,,,,,,,,,,,,,,,,,,,,
,,,,,,,,2023-08-16_08h43.36.330,HF_wild_card,2022.2.4,Win32,60.78288354,5996f68a9039240001432124,64d2fd46c836a06233681665,64dc7d6b2ac0a69ca4696268,,,,,,,decisionTrl,resources/DG.BMP,resources/DY.BMP,Door2,-0.291880781,-0.027235355,1,0,0,0.4828,optionLeft,20,10440,5,26,0,26,0,1,,,,,,,,,,,,,,,,,,,,,,,,,,,,,,,,,,,,,,,
,,,,,,,,2023-08-16_08h43.36.330,HF_wild_card,2022.2.4,Win32,60.78288354,5996f68a9039240001432124,64d2fd46c836a06233681665,64dc7d6b2ac0a69ca4696268,,,,,,,decisionTrl,resources/DP.BMP,resources/DR.BMP,WildCard_Ex,-0.232271326,-0.025179856,1,0,0,0.6467,optionLeft,5,10445,5,27,0,27,0,1,,,,,,,,,,,,,,,,,,,,,,,,,,,,,,,,,,,,,,,
,,,,,,,,2023-08-16_08h43.36.330,HF_wild_card,2022.2.4,Win32,60.78288354,5996f68a9039240001432124,64d2fd46c836a06233681665,64dc7d6b2ac0a69ca4696268,,,,,,,decisionTrl,resources/DY.BMP,resources/DG.BMP,Door1,-0.224049332,-0.035457348,1,0,0,0.6168,optionLeft,30,10475,5,28,0,28,0,1,,,,,,,,,,,,,,,,,,,,,,,,,,,,,,,,,,,,,,,
,,,,,,,,2023-08-16_08h43.36.330,HF_wild_card,2022.2.4,Win32,60.78288354,5996f68a9039240001432124,64d2fd46c836a06233681665,64dc7d6b2ac0a69ca4696268,,,,,,,decisionTrl,resources/DB.BMP,resources/DP.BMP,Door3,-0.110996917,-0.021068859,1,0,0,0.4827,optionLeft,70,10545,5,29,0,29,0,1,,,,,,,,,,,,,,,,,,,,,,,,,,,,,,,,,,,,,,,
,,,,,,,,2023-08-16_08h43.36.330,HF_wild_card,2022.2.4,Win32,60.78288354,5996f68a9039240001432124,64d2fd46c836a06233681665,64dc7d6b2ac0a69ca4696268,,,,,,,ctch,resources/DB.BMP,resources/DG.BMP,Door3,-0.220966084,-0.030318602,1,0,0,0.4823,optionLeft,70,10615,5,30,0,30,0,1,,,,,,,,,,,,,,,,,,,,,,,,,,,,,,,,,,,,,,,
,,,,,,,,2023-08-16_08h43.36.330,HF_wild_card,2022.2.4,Win32,60.78288354,5996f68a9039240001432124,64d2fd46c836a06233681665,64dc7d6b2ac0a69ca4696268,,,,,,,decisionTrl,resources/DB.BMP,resources/DR.BMP,Door3,-0.250770812,-0.059095581,1,0,0,0.9156,optionLeft,70,10685,5,31,0,31,0,1,,,,,,,,,,,,,,,,,,,,,,,,,,,,,,,,,,,,,,,
,,,,,,,,2023-08-16_08h43.36.330,HF_wild_card,2022.2.4,Win32,60.78288354,5996f68a9039240001432124,64d2fd46c836a06233681665,64dc7d6b2ac0a69ca4696268,,,,,,,decisionTrl,resources/DR.BMP,resources/DB.BMP,Door4,-0.315519013,-0.057040082,1,0,0,0.4463,optionLeft,80,10765,5,32,0,32,0,1,,,,,,,,,,,,,,,,,,,,,,,,,,,,,,,,,,,,,,,
,,,,,,,,2023-08-16_08h43.36.330,HF_wild_card,2022.2.4,Win32,60.78288354,5996f68a9039240001432124,64d2fd46c836a06233681665,64dc7d6b2ac0a69ca4696268,,,,,,,ctch,resources/DG.BMP,resources/DB.BMP,Door3,0.24049332,-0.001541624,1,0,0,0.5834,optionRight,70,10835,5,33,0,33,0,1,,,,,,,,,,,,,,,,,,,,,,,,,,,,,,,,,,,,,,,
,,,,,,,,2023-08-16_08h43.36.330,HF_wild_card,2022.2.4,Win32,60.78288354,5996f68a9039240001432124,64d2fd46c836a06233681665,64dc7d6b2ac0a69ca4696268,,,,,,,decisionTrl,resources/DY.BMP,resources/DG.BMP,Door1,-0.165467626,-0.034429599,1,0,0,0.5826,optionLeft,30,10865,5,34,0,34,0,1,,,,,,,,,,,,,,,,,,,,,,,,,,,,,,,,,,,,,,,
,,,,,,,,2023-08-16_08h43.36.330,HF_wild_card,2022.2.4,Win32,60.78288354,5996f68a9039240001432124,64d2fd46c836a06233681665,64dc7d6b2ac0a69ca4696268,,,,,,,sngl,resources/DP.BMP,resources/Empty.png,WildCard_Ex,-0.189105858,-0.028263104,1,0,0,0.4794,optionLeft,5,10870,5,35,0,35,0,1,,,,,,,,,,,,,,,,,,,,,,,,,,,,,,,,,,,,,,,
,,,,,,,,2023-08-16_08h43.36.330,HF_wild_card,2022.2.4,Win32,60.78288354,5996f68a9039240001432124,64d2fd46c836a06233681665,64dc7d6b2ac0a69ca4696268,,,,,,,sngl,resources/Empty.png,resources/DR.BMP,Door4,0.242548818,-0.00668037,1,0,0,0.449,optionRight,60,10930,5,36,0,36,0,1,,,,,,,,,,,,,,,,,,,,,,,,,,,,,,,,,,,,,,,
,,,,,,,,2023-08-16_08h43.36.330,HF_wild_card,2022.2.4,Win32,60.78288354,5996f68a9039240001432124,64d2fd46c836a06233681665,64dc7d6b2ac0a69ca4696268,,,,,,,decisionTrl,resources/DG.BMP,resources/DY.BMP,Door1,0.223021583,0.000513875,1,0,0,0.5661,optionRight,30,10960,5,37,0,37,0,1,,,,,,,,,,,,,,,,,,,,,,,,,,,,,,,,,,,,,,,
,,,,,,,,2023-08-16_08h43.36.330,HF_wild_card,2022.2.4,Win32,60.78288354,5996f68a9039240001432124,64d2fd46c836a06233681665,64dc7d6b2ac0a69ca4696268,,,,,,,ctch,resources/DB.BMP,resources/DG.BMP,Door3,-0.166495375,-0.016957862,1,0,0,0.5133,optionLeft,70,11030,5,38,0,38,0,1,,,,,,,,,,,,,,,,,,,,,,,,,,,,,,,,,,,,,,,
,,,,,,,,2023-08-16_08h43.36.330,HF_wild_card,2022.2.4,Win32,60.78288354,5996f68a9039240001432124,64d2fd46c836a06233681665,64dc7d6b2ac0a69ca4696268,,,,,,,sngl,resources/DR.BMP,resources/Empty.png,Door4,-0.181911614,-0.019013361,1,0,0,0.499,optionLeft,80,11110,5,39,0,39,0,1,,,,,,,,,,,,,,,,,,,,,,,,,,,,,,,,,,,,,,,
,,,,,,,,2023-08-16_08h43.36.330,HF_wild_card,2022.2.4,Win32,60.78288354,5996f68a9039240001432124,64d2fd46c836a06233681665,64dc7d6b2ac0a69ca4696268,,,,,,,decisionTrl,resources/DR.BMP,resources/DB.BMP,Door4,-0.135662898,-0.023124358,1,0,0,0.7831,optionLeft,60,11170,5,40,0,40,0,1,,,,,,,,,,,,,,,,,,,,,,,,,,,,,,,,,,,,,,,
,,,,,,,,2023-08-16_08h43.36.330,HF_wild_card,2022.2.4,Win32,60.78288354,5996f68a9039240001432124,64d2fd46c836a06233681665,64dc7d6b2ac0a69ca4696268,,,,,,,sngl,resources/Empty.png,resources/DP.BMP,WildCard_Ex,0.18705036,0.000513875,1,0,0,0.629,optionRight,5,11175,5,41,0,41,0,1,,,,,,,,,,,,,,,,,,,,,,,,,,,,,,,,,,,,,,,
,,,,,,,,2023-08-16_08h43.36.330,HF_wild_card,2022.2.4,Win32,60.78288354,5996f68a9039240001432124,64d2fd46c836a06233681665,64dc7d6b2ac0a69ca4696268,,,,,,,sngl,resources/DG.BMP,resources/Empty.png,Door2,-0.216855087,-0.008735868,1,0,0,0.3996,optionLeft,40,11215,5,42,0,42,0,1,,,,,,,,,,,,,,,,,,,,,,,,,,,,,,,,,,,,,,,
,,,,,,,,2023-08-16_08h43.36.330,HF_wild_card,2022.2.4,Win32,60.78288354,5996f68a9039240001432124,64d2fd46c836a06233681665,64dc7d6b2ac0a69ca4696268,,,,,,,sngl,resources/DB.BMP,resources/Empty.png,Door3,-0.128468654,-0.003597122,1,0,0,0.4154,optionLeft,70,11285,5,43,0,43,0,1,,,,,,,,,,,,,,,,,,,,,,,,,,,,,,,,,,,,,,,
,,,,,,,,2023-08-16_08h43.36.330,HF_wild_card,2022.2.4,Win32,60.78288354,5996f68a9039240001432124,64d2fd46c836a06233681665,64dc7d6b2ac0a69ca4696268,,,,,,,,,,,,,,,,,,,,,,,,,,4,0,4,0,1,,,,,,,,,,,,,,,,,,,,,,,,,,,,,,,,,,
,,,,,,,,2023-08-16_08h43.36.330,HF_wild_card,2022.2.4,Win32,60.78288354,5996f68a9039240001432124,64d2fd46c836a06233681665,64dc7d6b2ac0a69ca4696268,,,,,,,sngl,resources/Empty.png,resources/DP.BMP,WildCard_Ex,0.090441932,-0.117677287,1,0,0,0.5665,optionRight,95,11380,6,0,0,0,0,1,,,,,,,,,,,,,,,,,,,,,,,,,,,,,,,,,,,,,,,
,,,,,,,,2023-08-16_08h43.36.330,HF_wild_card,2022.2.4,Win32,60.78288354,5996f68a9039240001432124,64d2fd46c836a06233681665,64dc7d6b2ac0a69ca4696268,,,,,,,decisionTrl,resources/DB.BMP,resources/DR.BMP,Door3,-0.172661871,-0.036485098,1,0,0,0.4539,optionLeft,70,11450,6,1,0,1,0,1,,,,,,,,,,,,,,,,,,,,,,,,,,,,,,,,,,,,,,,
,,,,,,,,2023-08-16_08h43.36.330,HF_wild_card,2022.2.4,Win32,60.78288354,5996f68a9039240001432124,64d2fd46c836a06233681665,64dc7d6b2ac0a69ca4696268,,,,,,,decisionTrl,resources/DB.BMP,resources/DR.BMP,Door3,-0.153134635,-0.012846865,1,0,0,0.5977,optionLeft,70,11520,6,2,0,2,0,1,,,,,,,,,,,,,,,,,,,,,,,,,,,,,,,,,,,,,,,
,,,,,,,,2023-08-16_08h43.36.330,HF_wild_card,2022.2.4,Win32,60.78288354,5996f68a9039240001432124,64d2fd46c836a06233681665,64dc7d6b2ac0a69ca4696268,,,,,,,sngl,resources/DG.BMP,resources/Empty.png,Door2,-0.23946557,0.005652621,1,0,0,0.3908,optionLeft,20,11540,6,3,0,3,0,1,,,,,,,,,,,,,,,,,,,,,,,,,,,,,,,,,,,,,,,
,,,,,,,,2023-08-16_08h43.36.330,HF_wild_card,2022.2.4,Win32,60.78288354,5996f68a9039240001432124,64d2fd46c836a06233681665,64dc7d6b2ac0a69ca4696268,,,,,,,decisionTrl,resources/DR.BMP,resources/DP.BMP,Door4,-0.209660843,0.009763618,1,0,0,0.4391,optionLeft,80,11620,6,4,0,4,0,1,,,,,,,,,,,,,,,,,,,,,,,,,,,,,,,,,,,,,,,
,,,,,,,,2023-08-16_08h43.36.330,HF_wild_card,2022.2.4,Win32,60.78288354,5996f68a9039240001432124,64d2fd46c836a06233681665,64dc7d6b2ac0a69ca4696268,,,,,,,sngl,resources/DP.BMP,resources/Empty.png,WildCard_Ex,-0.167523124,0.012846865,1,0,0,0.3903,optionLeft,5,11625,6,5,0,5,0,1,,,,,,,,,,,,,,,,,,,,,,,,,,,,,,,,,,,,,,,
,,,,,,,,2023-08-16_08h43.36.330,HF_wild_card,2022.2.4,Win32,60.78288354,5996f68a9039240001432124,64d2fd46c836a06233681665,64dc7d6b2ac0a69ca4696268,,,,,,,decisionTrl,resources/DR.BMP,resources/DB.BMP,Door4,-0.165467626,-0.030318602,1,0,0,0.4559,optionLeft,80,11705,6,6,0,6,0,1,,,,,,,,,,,,,,,,,,,,,,,,,,,,,,,,,,,,,,,
,,,,,,,,2023-08-16_08h43.36.330,HF_wild_card,2022.2.4,Win32,60.78288354,5996f68a9039240001432124,64d2fd46c836a06233681665,64dc7d6b2ac0a69ca4696268,,,,,,,sngl,resources/DP.BMP,resources/Empty.png,WildCard_Ex,-0.182939363,0.025179856,1,0,0,0.425,optionLeft,95,11800,6,7,0,7,0,1,,,,,,,,,,,,,,,,,,,,,,,,,,,,,,,,,,,,,,,
,,,,,,,,2023-08-16_08h43.36.330,HF_wild_card,2022.2.4,Win32,60.78288354,5996f68a9039240001432124,64d2fd46c836a06233681665,64dc7d6b2ac0a69ca4696268,,,,,,,decisionTrl,resources/DP.BMP,resources/DB.BMP,Door3,0.305241521,0.012846865,1,0,0,0.4984,optionRight,70,11870,6,8,0,8,0,1,,,,,,,,,,,,,,,,,,,,,,,,,,,,,,,,,,,,,,,
,,,,,,,,2023-08-16_08h43.36.330,HF_wild_card,2022.2.4,Win32,60.78288354,5996f68a9039240001432124,64d2fd46c836a06233681665,64dc7d6b2ac0a69ca4696268,,,,,,,decisionTrl,resources/DG.BMP,resources/DY.BMP,Door2,-0.172661871,0.010791367,1,0,0,0.2981,optionLeft,40,11910,6,9,0,9,0,1,,,,,,,,,,,,,,,,,,,,,,,,,,,,,,,,,,,,,,,
,,,,,,,,2023-08-16_08h43.36.330,HF_wild_card,2022.2.4,Win32,60.78288354,5996f68a9039240001432124,64d2fd46c836a06233681665,64dc7d6b2ac0a69ca4696268,,,,,,,decisionTrl,resources/DP.BMP,resources/DG.BMP,WildCard_Ex,-0.238437821,0.007708119,1,0,0,0.5455,optionLeft,95,12005,6,10,0,10,0,1,,,,,,,,,,,,,,,,,,,,,,,,,,,,,,,,,,,,,,,
,,,,,,,,2023-08-16_08h43.36.330,HF_wild_card,2022.2.4,Win32,60.78288354,5996f68a9039240001432124,64d2fd46c836a06233681665,64dc7d6b2ac0a69ca4696268,,,,,,,decisionTrl,resources/DR.BMP,resources/DB.BMP,Door4,-0.166495375,-0.02004111,1,0,0,0.4449,optionLeft,80,12085,6,11,0,11,0,1,,,,,,,,,,,,,,,,,,,,,,,,,,,,,,,,,,,,,,,
,,,,,,,,2023-08-16_08h43.36.330,HF_wild_card,2022.2.4,Win32,60.78288354,5996f68a9039240001432124,64d2fd46c836a06233681665,64dc7d6b2ac0a69ca4696268,,,,,,,decisionTrl,resources/DB.BMP,resources/DR.BMP,Door3,-0.161356629,-0.016957862,1,0,0,0.4973,optionLeft,70,12155,6,12,0,12,0,1,,,,,,,,,,,,,,,,,,,,,,,,,,,,,,,,,,,,,,,
,,,,,,,,2023-08-16_08h43.36.330,HF_wild_card,2022.2.4,Win32,60.78288354,5996f68a9039240001432124,64d2fd46c836a06233681665,64dc7d6b2ac0a69ca4696268,,,,,,,sngl,resources/Empty.png,resources/DY.BMP,Door1,0.29393628,-0.00668037,1,0,0,0.3954,optionRight,30,12185,6,13,0,13,0,1,,,,,,,,,,,,,,,,,,,,,,,,,,,,,,,,,,,,,,,
,,,,,,,,2023-08-16_08h43.36.330,HF_wild_card,2022.2.4,Win32,60.78288354,5996f68a9039240001432124,64d2fd46c836a06233681665,64dc7d6b2ac0a69ca4696268,,,,,,,decisionTrl,resources/DY.BMP,resources/DG.BMP,Door1,-0.177800617,-0.007708119,1,0,0,0.365,optionLeft,30,12215,6,14,0,14,0,1,,,,,,,,,,,,,,,,,,,,,,,,,,,,,,,,,,,,,,,
,,,,,,,,2023-08-16_08h43.36.330,HF_wild_card,2022.2.4,Win32,60.78288354,5996f68a9039240001432124,64d2fd46c836a06233681665,64dc7d6b2ac0a69ca4696268,,,,,,,decisionTrl,resources/DG.BMP,resources/DY.BMP,Door2,-0.156217883,-0.024152107,1,0,0,0.5808,optionLeft,40,12255,6,15,0,15,0,1,,,,,,,,,,,,,,,,,,,,,,,,,,,,,,,,,,,,,,,
,,,,,,,,2023-08-16_08h43.36.330,HF_wild_card,2022.2.4,Win32,60.78288354,5996f68a9039240001432124,64d2fd46c836a06233681665,64dc7d6b2ac0a69ca4696268,,,,,,,ctch,resources/DB.BMP,resources/DG.BMP,Door3,-0.215827338,-0.004624872,1,0,0,0.5311,optionLeft,70,12325,6,16,0,16,0,1,,,,,,,,,,,,,,,,,,,,,,,,,,,,,,,,,,,,,,,
,,,,,,,,2023-08-16_08h43.36.330,HF_wild_card,2022.2.4,Win32,60.78288354,5996f68a9039240001432124,64d2fd46c836a06233681665,64dc7d6b2ac0a69ca4696268,,,,,,,decisionTrl,resources/DR.BMP,resources/DB.BMP,Door4,-0.205549846,-0.031346351,1,0,0,0.3982,optionLeft,80,12405,6,17,0,17,0,1,,,,,,,,,,,,,,,,,,,,,,,,,,,,,,,,,,,,,,,
,,,,,,,,2023-08-16_08h43.36.330,HF_wild_card,2022.2.4,Win32,60.78288354,5996f68a9039240001432124,64d2fd46c836a06233681665,64dc7d6b2ac0a69ca4696268,,,,,,,decisionTrl,resources/DP.BMP,resources/DR.BMP,WildCard_Ex,-0.167523124,-0.037512847,1,0,0,0.431,optionLeft,95,12500,6,18,0,18,0,1,,,,,,,,,,,,,,,,,,,,,,,,,,,,,,,,,,,,,,,
,,,,,,,,2023-08-16_08h43.36.330,HF_wild_card,2022.2.4,Win32,60.78288354,5996f68a9039240001432124,64d2fd46c836a06233681665,64dc7d6b2ac0a69ca4696268,,,,,,,sngl,resources/DY.BMP,resources/Empty.png,Door1,-0.18602261,-0.023124358,1,0,0,0.4149,optionLeft,30,12530,6,19,0,19,0,1,,,,,,,,,,,,,,,,,,,,,,,,,,,,,,,,,,,,,,,
,,,,,,,,2023-08-16_08h43.36.330,HF_wild_card,2022.2.4,Win32,60.78288354,5996f68a9039240001432124,64d2fd46c836a06233681665,64dc7d6b2ac0a69ca4696268,,,,,,,decisionTrl,resources/DG.BMP,resources/DP.BMP,Door2,-0.157245632,-0.028263104,1,0,0,0.4974,optionLeft,20,12550,6,20,0,20,0,1,,,,,,,,,,,,,,,,,,,,,,,,,,,,,,,,,,,,,,,
,,,,,,,,2023-08-16_08h43.36.330,HF_wild_card,2022.2.4,Win32,60.78288354,5996f68a9039240001432124,64d2fd46c836a06233681665,64dc7d6b2ac0a69ca4696268,,,,,,,decisionTrl,resources/DY.BMP,resources/DG.BMP,Door1,-0.141829394,-0.02004111,1,0,0,0.3644,optionLeft,30,12580,6,21,0,21,0,1,,,,,,,,,,,,,,,,,,,,,,,,,,,,,,,,,,,,,,,
,,,,,,,,2023-08-16_08h43.36.330,HF_wild_card,2022.2.4,Win32,60.78288354,5996f68a9039240001432124,64d2fd46c836a06233681665,64dc7d6b2ac0a69ca4696268,,,,,,,ctch,resources/DR.BMP,resources/DY.BMP,Door4,-0.179856115,-0.022096608,1,0,0,0.464,optionLeft,60,12640,6,22,0,22,0,1,,,,,,,,,,,,,,,,,,,,,,,,,,,,,,,,,,,,,,,
,,,,,,,,2023-08-16_08h43.36.330,HF_wild_card,2022.2.4,Win32,60.78288354,5996f68a9039240001432124,64d2fd46c836a06233681665,64dc7d6b2ac0a69ca4696268,,,,,,,decisionTrl,resources/DY.BMP,resources/DG.BMP,Door1,-0.154162384,-0.017985612,1,0,0,0.4977,optionLeft,30,12670,6,23,0,23,0,1,,,,,,,,,,,,,,,,,,,,,,,,,,,,,,,,,,,,,,,
,,,,,,,,2023-08-16_08h43.36.330,HF_wild_card,2022.2.4,Win32,60.78288354,5996f68a9039240001432124,64d2fd46c836a06233681665,64dc7d6b2ac0a69ca4696268,,,,,,,decisionTrl,resources/DY.BMP,resources/DG.BMP,Door1,-0.168550874,-0.02004111,1,0,0,0.4139,optionLeft,30,12700,6,24,0,24,0,1,,,,,,,,,,,,,,,,,,,,,,,,,,,,,,,,,,,,,,,
,,,,,,,,2023-08-16_08h43.36.330,HF_wild_card,2022.2.4,Win32,60.78288354,5996f68a9039240001432124,64d2fd46c836a06233681665,64dc7d6b2ac0a69ca4696268,,,,,,,sngl,resources/Empty.png,resources/DG.BMP,Door2,0.355601233,0.001541624,1,0,0,0.4813,optionRight,40,12740,6,25,0,25,0,1,,,,,,,,,,,,,,,,,,,,,,,,,,,,,,,,,,,,,,,
,,,,,,,,2023-08-16_08h43.36.330,HF_wild_card,2022.2.4,Win32,60.78288354,5996f68a9039240001432124,64d2fd46c836a06233681665,64dc7d6b2ac0a69ca4696268,,,,,,,ctch,resources/DY.BMP,resources/DR.BMP,Door1,-0.16032888,-0.001541624,1,0,0,0.2792,optionLeft,30,12770,6,26,0,26,0,1,,,,,,,,,,,,,,,,,,,,,,,,,,,,,,,,,,,,,,,
,,,,,,,,2023-08-16_08h43.36.330,HF_wild_card,2022.2.4,Win32,60.78288354,5996f68a9039240001432124,64d2fd46c836a06233681665,64dc7d6b2ac0a69ca4696268,,,,,,,decisionTrl,resources/DB.BMP,resources/DP.BMP,WildCard_Ex,0.215827338,0.028263104,1,0,0,0.3148,optionRight,5,12775,6,27,0,27,0,1,,,,,,,,,,,,,,,,,,,,,,,,,,,,,,,,,,,,,,,
,,,,,,,,2023-08-16_08h43.36.330,HF_wild_card,2022.2.4,Win32,60.78288354,5996f68a9039240001432124,64d2fd46c836a06233681665,64dc7d6b2ac0a69ca4696268,,,,,,,decisionTrl,resources/DG.BMP,resources/DY.BMP,Door1,0.193216855,0.00668037,1,0,0,0.4648,optionRight,30,12805,6,28,0,28,0,1,,,,,,,,,,,,,,,,,,,,,,,,,,,,,,,,,,,,,,,
,,,,,,,,2023-08-16_08h43.36.330,HF_wild_card,2022.2.4,Win32,60.78288354,5996f68a9039240001432124,64d2fd46c836a06233681665,64dc7d6b2ac0a69ca4696268,,,,,,,decisionTrl,resources/DP.BMP,resources/DY.BMP,WildCard_Ex,-0.251798561,-0.012846865,1,0,0,0.6141,optionLeft,5,12810,6,29,0,29,0,1,,,,,,,,,,,,,,,,,,,,,,,,,,,,,,,,,,,,,,,
,,,,,,,,2023-08-16_08h43.36.330,HF_wild_card,2022.2.4,Win32,60.78288354,5996f68a9039240001432124,64d2fd46c836a06233681665,64dc7d6b2ac0a69ca4696268,,,,,,,decisionTrl,resources/DB.BMP,resources/DR.BMP,Door4,0.116135663,-0.014902364,1,0,0,0.4786,optionRight,80,12890,6,30,0,30,0,1,,,,,,,,,,,,,,,,,,,,,,,,,,,,,,,,,,,,,,,
,,,,,,,,2023-08-16_08h43.36.330,HF_wild_card,2022.2.4,Win32,60.78288354,5996f68a9039240001432124,64d2fd46c836a06233681665,64dc7d6b2ac0a69ca4696268,,,,,,,sngl,resources/Empty.png,resources/DP.BMP,WildCard_Ex,0.261048304,-0.014902364,1,0,0,0.4148,optionRight,5,12895,6,31,0,31,0,1,,,,,,,,,,,,,,,,,,,,,,,,,,,,,,,,,,,,,,,
,,,,,,,,2023-08-16_08h43.36.330,HF_wild_card,2022.2.4,Win32,60.78288354,5996f68a9039240001432124,64d2fd46c836a06233681665,64dc7d6b2ac0a69ca4696268,,,,,,,decisionTrl,resources/DY.BMP,resources/DP.BMP,Door1,-0.19938335,0.016957862,1,0,0,0.4625,optionLeft,30,12925,6,32,0,32,0,1,,,,,,,,,,,,,,,,,,,,,,,,,,,,,,,,,,,,,,,
,,,,,,,,2023-08-16_08h43.36.330,HF_wild_card,2022.2.4,Win32,60.78288354,5996f68a9039240001432124,64d2fd46c836a06233681665,64dc7d6b2ac0a69ca4696268,,,,,,,sngl,resources/DB.BMP,resources/Empty.png,Door3,-0.223021583,0.011819116,1,0,0,0.3808,optionLeft,70,12995,6,33,0,33,0,1,,,,,,,,,,,,,,,,,,,,,,,,,,,,,,,,,,,,,,,
,,,,,,,,2023-08-16_08h43.36.330,HF_wild_card,2022.2.4,Win32,60.78288354,5996f68a9039240001432124,64d2fd46c836a06233681665,64dc7d6b2ac0a69ca4696268,,,,,,,sngl,resources/Empty.png,resources/DR.BMP,Door4,0.126413155,0.004624872,1,0,0,0.4481,optionRight,80,13075,6,34,0,34,0,1,,,,,,,,,,,,,,,,,,,,,,,,,,,,,,,,,,,,,,,
,,,,,,,,2023-08-16_08h43.36.330,HF_wild_card,2022.2.4,Win32,60.78288354,5996f68a9039240001432124,64d2fd46c836a06233681665,64dc7d6b2ac0a69ca4696268,,,,,,,decisionTrl,resources/DG.BMP,resources/DY.BMP,Door2,-0.153134635,0.000513875,1,0,0,0.6635,optionLeft,20,13095,6,35,0,35,0,1,,,,,,,,,,,,,,,,,,,,,,,,,,,,,,,,,,,,,,,
,,,,,,,,2023-08-16_08h43.36.330,HF_wild_card,2022.2.4,Win32,60.78288354,5996f68a9039240001432124,64d2fd46c836a06233681665,64dc7d6b2ac0a69ca4696268,,,,,,,ctch,resources/DG.BMP,resources/DB.BMP,Door3,0.314491264,-0.015930113,1,0,0,0.4805,optionRight,70,13165,6,36,0,36,0,1,,,,,,,,,,,,,,,,,,,,,,,,,,,,,,,,,,,,,,,
,,,,,,,,2023-08-16_08h43.36.330,HF_wild_card,2022.2.4,Win32,60.78288354,5996f68a9039240001432124,64d2fd46c836a06233681665,64dc7d6b2ac0a69ca4696268,,,,,,,ctch,resources/DR.BMP,resources/DY.BMP,Door4,-0.112024666,-0.013874615,1,0,0,0.9478,optionLeft,60,13225,6,37,0,37,0,1,,,,,,,,,,,,,,,,,,,,,,,,,,,,,,,,,,,,,,,
,,,,,,,,2023-08-16_08h43.36.330,HF_wild_card,2022.2.4,Win32,60.78288354,5996f68a9039240001432124,64d2fd46c836a06233681665,64dc7d6b2ac0a69ca4696268,,,,,,,decisionTrl,resources/DR.BMP,resources/DB.BMP,Door3,0.159301131,0.002569373,1,0,0,0.448,optionRight,70,13295,6,38,0,38,0,1,,,,,,,,,,,,,,,,,,,,,,,,,,,,,,,,,,,,,,,
,,,,,,,,2023-08-16_08h43.36.330,HF_wild_card,2022.2.4,Win32,60.78288354,5996f68a9039240001432124,64d2fd46c836a06233681665,64dc7d6b2ac0a69ca4696268,,,,,,,sngl,resources/DR.BMP,resources/Empty.png,Door4,-0.154162384,-0.016957862,1,0,0,0.3973,optionLeft,60,13355,6,39,0,39,0,1,,,,,,,,,,,,,,,,,,,,,,,,,,,,,,,,,,,,,,,
,,,,,,,,2023-08-16_08h43.36.330,HF_wild_card,2022.2.4,Win32,60.78288354,5996f68a9039240001432124,64d2fd46c836a06233681665,64dc7d6b2ac0a69ca4696268,,,,,,,sngl,resources/Empty.png,resources/DB.BMP,Door3,0.233299075,-0.009763618,1,0,0,0.4143,optionRight,70,13425,6,40,0,40,0,1,,,,,,,,,,,,,,,,,,,,,,,,,,,,,,,,,,,,,,,
,,,,,,,,2023-08-16_08h43.36.330,HF_wild_card,2022.2.4,Win32,60.78288354,5996f68a9039240001432124,64d2fd46c836a06233681665,64dc7d6b2ac0a69ca4696268,,,,,,,ctch,resources/DG.BMP,resources/DB.BMP,Door3,0.29393628,-0.002569373,1,0,0,0.6956,optionRight,70,13495,6,41,0,41,0,1,,,,,,,,,,,,,,,,,,,,,,,,,,,,,,,,,,,,,,,
,,,,,,,,2023-08-16_08h43.36.330,HF_wild_card,2022.2.4,Win32,60.78288354,5996f68a9039240001432124,64d2fd46c836a06233681665,64dc7d6b2ac0a69ca4696268,,,,,,,ctch,resources/DB.BMP,resources/DG.BMP,Door3,-0.158273381,-0.011819116,1,0,0,0.5313,optionLeft,70,13565,6,42,0,42,0,1,,,,,,,,,,,,,,,,,,,,,,,,,,,,,,,,,,,,,,,
,,,,,,,,2023-08-16_08h43.36.330,HF_wild_card,2022.2.4,Win32,60.78288354,5996f68a9039240001432124,64d2fd46c836a06233681665,64dc7d6b2ac0a69ca4696268,,,,,,,ctch,resources/DY.BMP,resources/DR.BMP,Door4,0.290853032,-0.005652621,1,0,0,0.5299,optionRight,80,13645,6,43,0,43,0,1,,,,,,,,,,,,,,,,,,,,,,,,,,,,,,,,,,,,,,,
,,,,,,,,2023-08-16_08h43.36.330,HF_wild_card,2022.2.4,Win32,60.78288354,5996f68a9039240001432124,64d2fd46c836a06233681665,64dc7d6b2ac0a69ca4696268,,,,,,,,,,,,,,,,,,,,,,,,,,5,0,5,0,1,,,,,,,,,,,,,,,,,,,,,,,,,,,,,,,,,,
,,,,,,,,2023-08-16_08h43.36.330,HF_wild_card,2022.2.4,Win32,60.78288354,5996f68a9039240001432124,64d2fd46c836a06233681665,64dc7d6b2ac0a69ca4696268,,,,,,,ctch,resources/DY.BMP,resources/DR.BMP,Door4,0.138746146,-0.136176773,1,0,0,0.5084,optionRight,60,13705,7,0,0,0,0,1,,,,,,,,,,,,,,,,,,,,,,,,,,,,,,,,,,,,,,,
,,,,,,,,2023-08-16_08h43.36.330,HF_wild_card,2022.2.4,Win32,60.78288354,5996f68a9039240001432124,64d2fd46c836a06233681665,64dc7d6b2ac0a69ca4696268,,,,,,,decisionTrl,resources/DB.BMP,resources/DR.BMP,Door3,-0.161356629,-0.009763618,1,0,0,0.7983,optionLeft,70,13775,7,1,0,1,0,1,,,,,,,,,,,,,,,,,,,,,,,,,,,,,,,,,,,,,,,
,,,,,,,,2023-08-16_08h43.36.330,HF_wild_card,2022.2.4,Win32,60.78288354,5996f68a9039240001432124,64d2fd46c836a06233681665,64dc7d6b2ac0a69ca4696268,,,,,,,decisionTrl,resources/DY.BMP,resources/DG.BMP,Door1,-0.316546763,0.003597122,1,0,0,0.6994,optionLeft,30,13805,7,2,0,2,0,1,,,,,,,,,,,,,,,,,,,,,,,,,,,,,,,,,,,,,,,
,,,,,,,,2023-08-16_08h43.36.330,HF_wild_card,2022.2.4,Win32,60.78288354,5996f68a9039240001432124,64d2fd46c836a06233681665,64dc7d6b2ac0a69ca4696268,,,,,,,decisionTrl,resources/DY.BMP,resources/DG.BMP,Door1,-0.260020555,0.014902364,1,0,0,0.6319,optionLeft,30,13835,7,3,0,3,0,1,,,,,,,,,,,,,,,,,,,,,,,,,,,,,,,,,,,,,,,
,,,,,,,,2023-08-16_08h43.36.330,HF_wild_card,2022.2.4,Win32,60.78288354,5996f68a9039240001432124,64d2fd46c836a06233681665,64dc7d6b2ac0a69ca4696268,,,,,,,decisionTrl,resources/DG.BMP,resources/DY.BMP,Door1,0.265159301,0.015930113,1,0,0,0.7802,optionRight,30,13865,7,4,0,4,0,1,,,,,,,,,,,,,,,,,,,,,,,,,,,,,,,,,,,,,,,
,,,,,,,,2023-08-16_08h43.36.330,HF_wild_card,2022.2.4,Win32,60.78288354,5996f68a9039240001432124,64d2fd46c836a06233681665,64dc7d6b2ac0a69ca4696268,,,,,,,decisionTrl,resources/DR.BMP,resources/DB.BMP,Door4,-0.285714286,-0.028263104,1,0,0,0.6658,optionLeft,60,13925,7,5,0,5,0,1,,,,,,,,,,,,,,,,,,,,,,,,,,,,,,,,,,,,,,,
,,,,,,,,2023-08-16_08h43.36.330,HF_wild_card,2022.2.4,Win32,60.78288354,5996f68a9039240001432124,64d2fd46c836a06233681665,64dc7d6b2ac0a69ca4696268,,,,,,,decisionTrl,resources/DB.BMP,resources/DR.BMP,Door3,-0.265159301,-0.037512847,1,0,0,0.5475,optionLeft,70,13995,7,6,0,6,0,1,,,,,,,,,,,,,,,,,,,,,,,,,,,,,,,,,,,,,,,
,,,,,,,,2023-08-16_08h43.36.330,HF_wild_card,2022.2.4,Win32,60.78288354,5996f68a9039240001432124,64d2fd46c836a06233681665,64dc7d6b2ac0a69ca4696268,,,,,,,ctch,resources/DR.BMP,resources/DY.BMP,Door4,-0.233299075,-0.040596095,1,0,0,0.5475,optionLeft,80,14075,7,7,0,7,0,1,,,,,,,,,,,,,,,,,,,,,,,,,,,,,,,,,,,,,,,
,,,,,,,,2023-08-16_08h43.36.330,HF_wild_card,2022.2.4,Win32,60.78288354,5996f68a9039240001432124,64d2fd46c836a06233681665,64dc7d6b2ac0a69ca4696268,,,,,,,decisionTrl,resources/DB.BMP,resources/DR.BMP,Door3,-0.137718397,-0.023124358,1,0,0,0.5493,optionLeft,70,14145,7,8,0,8,0,1,,,,,,,,,,,,,,,,,,,,,,,,,,,,,,,,,,,,,,,
,,,,,,,,2023-08-16_08h43.36.330,HF_wild_card,2022.2.4,Win32,60.78288354,5996f68a9039240001432124,64d2fd46c836a06233681665,64dc7d6b2ac0a69ca4696268,,,,,,,ctch,resources/DR.BMP,resources/DY.BMP,Door4,-0.18705036,-0.042651593,1,0,0,0.4976,optionLeft,60,14205,7,9,0,9,0,1,,,,,,,,,,,,,,,,,,,,,,,,,,,,,,,,,,,,,,,
,,,,,,,,2023-08-16_08h43.36.330,HF_wild_card,2022.2.4,Win32,60.78288354,5996f68a9039240001432124,64d2fd46c836a06233681665,64dc7d6b2ac0a69ca4696268,,,,,,,decisionTrl,resources/DB.BMP,resources/DR.BMP,Door3,-0.225077081,-0.024152107,1,0,0,0.5654,optionLeft,70,14275,7,10,0,10,0,1,,,,,,,,,,,,,,,,,,,,,,,,,,,,,,,,,,,,,,,
,,,,,,,,2023-08-16_08h43.36.330,HF_wild_card,2022.2.4,Win32,60.78288354,5996f68a9039240001432124,64d2fd46c836a06233681665,64dc7d6b2ac0a69ca4696268,,,,,,,ctch,resources/DR.BMP,resources/DY.BMP,Door4,-0.194244604,-0.026207605,1,0,0,0.597,optionLeft,80,14355,7,11,0,11,0,1,,,,,,,,,,,,,,,,,,,,,,,,,,,,,,,,,,,,,,,
,,,,,,,,2023-08-16_08h43.36.330,HF_wild_card,2022.2.4,Win32,60.78288354,5996f68a9039240001432124,64d2fd46c836a06233681665,64dc7d6b2ac0a69ca4696268,,,,,,,ctch,resources/DG.BMP,resources/DB.BMP,Door3,0.144912641,-0.004624872,1,0,0,1.2498,optionRight,70,14425,7,12,0,12,0,1,,,,,,,,,,,,,,,,,,,,,,,,,,,,,,,,,,,,,,,
,,,,,,,,2023-08-16_08h43.36.330,HF_wild_card,2022.2.4,Win32,60.78288354,5996f68a9039240001432124,64d2fd46c836a06233681665,64dc7d6b2ac0a69ca4696268,,,,,,,decisionTrl,resources/DG.BMP,resources/DY.BMP,Door1,0.156217883,-0.009763618,1,0,0,0.5307,optionRight,30,14455,7,13,0,13,0,1,,,,,,,,,,,,,,,,,,,,,,,,,,,,,,,,,,,,,,,
,,,,,,,,2023-08-16_08h43.36.330,HF_wild_card,2022.2.4,Win32,60.78288354,5996f68a9039240001432124,64d2fd46c836a06233681665,64dc7d6b2ac0a69ca4696268,,,,,,,decisionTrl,resources/DB.BMP,resources/DR.BMP,Door4,0.268242549,-0.007708119,1,0,0,0.8152,optionRight,60,14515,7,14,0,14,0,1,,,,,,,,,,,,,,,,,,,,,,,,,,,,,,,,,,,,,,,
,,,,,,,,2023-08-16_08h43.36.330,HF_wild_card,2022.2.4,Win32,60.78288354,5996f68a9039240001432124,64d2fd46c836a06233681665,64dc7d6b2ac0a69ca4696268,,,,,,,decisionTrl,resources/DR.BMP,resources/DB.BMP,Door4,-0.149023638,-0.021068859,1,0,0,0.6154,optionLeft,80,14595,7,15,0,15,0,1,,,,,,,,,,,,,,,,,,,,,,,,,,,,,,,,,,,,,,,
,,,,,,,,2023-08-16_08h43.36.330,HF_wild_card,2022.2.4,Win32,60.78288354,5996f68a9039240001432124,64d2fd46c836a06233681665,64dc7d6b2ac0a69ca4696268,,,,,,,decisionTrl,resources/DY.BMP,resources/DG.BMP,Door1,-0.345323741,-0.047790339,1,0,0,0.8329,optionLeft,30,14625,7,16,0,16,0,1,,,,,,,,,,,,,,,,,,,,,,,,,,,,,,,,,,,,,,,
,,,,,,,,2023-08-16_08h43.36.330,HF_wild_card,2022.2.4,Win32,60.78288354,5996f68a9039240001432124,64d2fd46c836a06233681665,64dc7d6b2ac0a69ca4696268,,,,,,,ctch,resources/DB.BMP,resources/DG.BMP,Door3,-0.131551901,-0.013874615,1,0,0,0.4823,optionLeft,70,14695,7,17,0,17,0,1,,,,,,,,,,,,,,,,,,,,,,,,,,,,,,,,,,,,,,,
,,,,,,,,2023-08-16_08h43.36.330,HF_wild_card,2022.2.4,Win32,60.78288354,5996f68a9039240001432124,64d2fd46c836a06233681665,64dc7d6b2ac0a69ca4696268,,,,,,,ctch,resources/DB.BMP,resources/DG.BMP,Door3,-0.177800617,-0.02004111,1,0,0,0.4325,optionLeft,70,14765,7,18,0,18,0,1,,,,,,,,,,,,,,,,,,,,,,,,,,,,,,,,,,,,,,,
,,,,,,,,2023-08-16_08h43.36.330,HF_wild_card,2022.2.4,Win32,60.78288354,5996f68a9039240001432124,64d2fd46c836a06233681665,64dc7d6b2ac0a69ca4696268,,,,,,,ctch,resources/DB.BMP,resources/DG.BMP,Door3,-0.149023638,-0.014902364,1,0,0,0.4661,optionLeft,70,14835,7,19,0,19,0,1,,,,,,,,,,,,,,,,,,,,,,,,,,,,,,,,,,,,,,,
,,,,,,,,2023-08-16_08h43.36.330,HF_wild_card,2022.2.4,Win32,60.78288354,5996f68a9039240001432124,64d2fd46c836a06233681665,64dc7d6b2ac0a69ca4696268,,,,,,,decisionTrl,resources/DG.BMP,resources/DY.BMP,Door1,0.30729702,0.004624872,1,0,0,0.7476,optionRight,30,14865,7,20,0,20,0,1,,,,,,,,,,,,,,,,,,,,,,,,,,,,,,,,,,,,,,,
,,,,,,,,2023-08-16_08h43.36.330,HF_wild_card,2022.2.4,Win32,60.78288354,5996f68a9039240001432124,64d2fd46c836a06233681665,64dc7d6b2ac0a69ca4696268,,,,,,,decisionTrl,resources/DY.BMP,resources/DG.BMP,Door1,-0.223021583,-0.041623844,1,0,0,0.4489,optionLeft,30,14895,7,21,0,21,0,1,,,,,,,,,,,,,,,,,,,,,,,,,,,,,,,,,,,,,,,
,,,,,,,,2023-08-16_08h43.36.330,HF_wild_card,2022.2.4,Win32,60.78288354,5996f68a9039240001432124,64d2fd46c836a06233681665,64dc7d6b2ac0a69ca4696268,,,,,,,decisionTrl,resources/DB.BMP,resources/DR.BMP,Door4,0.211716341,-0.017985612,1,0,0,0.6828,optionRight,80,14975,7,22,0,22,0,1,,,,,,,,,,,,,,,,,,,,,,,,,,,,,,,,,,,,,,,
,,,,,,,,2023-08-16_08h43.36.330,HF_wild_card,2022.2.4,Win32,60.78288354,5996f68a9039240001432124,64d2fd46c836a06233681665,64dc7d6b2ac0a69ca4696268,,,,,,,ctch,resources/DG.BMP,resources/DB.BMP,Door3,0.184994861,-0.009763618,1,0,0,0.4822,optionRight,70,15045,7,23,0,23,0,1,,,,,,,,,,,,,,,,,,,,,,,,,,,,,,,,,,,,,,,
,,,,,,,,2023-08-16_08h43.36.330,HF_wild_card,2022.2.4,Win32,60.78288354,5996f68a9039240001432124,64d2fd46c836a06233681665,64dc7d6b2ac0a69ca4696268,,,,,,,decisionTrl,resources/DR.BMP,resources/DB.BMP,Door4,-0.170606372,-0.010791367,1,0,0,0.6313,optionLeft,60,15105,7,24,0,24,0,1,,,,,,,,,,,,,,,,,,,,,,,,,,,,,,,,,,,,,,,
,,,,,,,,2023-08-16_08h43.36.330,HF_wild_card,2022.2.4,Win32,60.78288354,5996f68a9039240001432124,64d2fd46c836a06233681665,64dc7d6b2ac0a69ca4696268,,,,,,,ctch,resources/DY.BMP,resources/DR.BMP,Door4,0.203494347,-0.019013361,1,0,0,0.8319,optionRight,80,15185,7,25,0,25,0,1,,,,,,,,,,,,,,,,,,,,,,,,,,,,,,,,,,,,,,,
,,,,,,,,2023-08-16_08h43.36.330,HF_wild_card,2022.2.4,Win32,60.78288354,5996f68a9039240001432124,64d2fd46c836a06233681665,64dc7d6b2ac0a69ca4696268,,,,,,,ctch,resources/DG.BMP,resources/DB.BMP,Door3,0.221993834,-0.005652621,1,0,0,0.5303,optionRight,70,15255,7,26,0,26,0,1,,,,,,,,,,,,,,,,,,,,,,,,,,,,,,,,,,,,,,,
,,,,,,,,2023-08-16_08h43.36.330,HF_wild_card,2022.2.4,Win32,60.78288354,5996f68a9039240001432124,64d2fd46c836a06233681665,64dc7d6b2ac0a69ca4696268,,,,,,,decisionTrl,resources/DR.BMP,resources/DB.BMP,Door3,0.167523124,-0.009763618,1,0,0,0.5308,optionRight,70,15325,7,27,0,27,0,1,,,,,,,,,,,,,,,,,,,,,,,,,,,,,,,,,,,,,,,
,,,,,,,,2023-08-16_08h43.36.330,HF_wild_card,2022.2.4,Win32,60.78288354,5996f68a9039240001432124,64d2fd46c836a06233681665,64dc7d6b2ac0a69ca4696268,,,,,,,decisionTrl,resources/DR.BMP,resources/DB.BMP,Door4,-0.125385406,-0.019013361,1,0,0,0.5329,optionLeft,60,15385,7,28,0,28,0,1,,,,,,,,,,,,,,,,,,,,,,,,,,,,,,,,,,,,,,,
,,,,,,,,2023-08-16_08h43.36.330,HF_wild_card,2022.2.4,Win32,60.78288354,5996f68a9039240001432124,64d2fd46c836a06233681665,64dc7d6b2ac0a69ca4696268,,,,,,,decisionTrl,resources/DG.BMP,resources/DY.BMP,Door1,-0.058581706,-0.012846865,1,0,0,0.5645,optionRight,30,15415,7,29,0,29,0,1,,,,,,,,,,,,,,,,,,,,,,,,,,,,,,,,,,,,,,,
,,,,,,,,2023-08-16_08h43.36.330,HF_wild_card,2022.2.4,Win32,60.78288354,5996f68a9039240001432124,64d2fd46c836a06233681665,64dc7d6b2ac0a69ca4696268,,,,,,,decisionTrl,resources/DG.BMP,resources/DY.BMP,Door1,0.334018499,-0.004624872,1,0,0,0.6493,optionRight,30,15445,7,30,0,30,0,1,,,,,,,,,,,,,,,,,,,,,,,,,,,,,,,,,,,,,,,
,,,,,,,,2023-08-16_08h43.36.330,HF_wild_card,2022.2.4,Win32,60.78288354,5996f68a9039240001432124,64d2fd46c836a06233681665,64dc7d6b2ac0a69ca4696268,,,,,,,ctch,resources/DY.BMP,resources/DR.BMP,Door4,0.17368962,-0.004624872,1,0,0,0.6161,optionRight,80,15525,7,31,0,31,0,1,,,,,,,,,,,,,,,,,,,,,,,,,,,,,,,,,,,,,,,
,,,,,,,,2023-08-16_08h43.36.330,HF_wild_card,2022.2.4,Win32,60.78288354,5996f68a9039240001432124,64d2fd46c836a06233681665,64dc7d6b2ac0a69ca4696268,,,,,,,decisionTrl,resources/DR.BMP,resources/DB.BMP,Door4,-0.215827338,0.001541624,1,0,0,0.8159,optionLeft,60,15585,7,32,0,32,0,1,,,,,,,,,,,,,,,,,,,,,,,,,,,,,,,,,,,,,,,
,,,,,,,,2023-08-16_08h43.36.330,HF_wild_card,2022.2.4,Win32,60.78288354,5996f68a9039240001432124,64d2fd46c836a06233681665,64dc7d6b2ac0a69ca4696268,,,,,,,decisionTrl,resources/DY.BMP,resources/DG.BMP,Door1,-0.144912641,-0.004624872,1,0,0,0.633,optionLeft,30,15615,7,33,0,33,0,1,,,,,,,,,,,,,,,,,,,,,,,,,,,,,,,,,,,,,,,
,,,,,,,,2023-08-16_08h43.36.330,HF_wild_card,2022.2.4,Win32,60.78288354,5996f68a9039240001432124,64d2fd46c836a06233681665,64dc7d6b2ac0a69ca4696268,,,,,,,decisionTrl,resources/DG.BMP,resources/DY.BMP,Door1,0.298047276,-0.013874615,1,0,0,0.7661,optionRight,30,15645,7,34,0,34,0,1,,,,,,,,,,,,,,,,,,,,,,,,,,,,,,,,,,,,,,,
,,,,,,,,2023-08-16_08h43.36.330,HF_wild_card,2022.2.4,Win32,60.78288354,5996f68a9039240001432124,64d2fd46c836a06233681665,64dc7d6b2ac0a69ca4696268,,,,,,,decisionTrl,resources/DY.BMP,resources/DG.BMP,Door1,-0.197327852,-0.02004111,1,0,0,0.5825,optionLeft,30,15675,7,35,0,35,0,1,,,,,,,,,,,,,,,,,,,,,,,,,,,,,,,,,,,,,,,
,,,,,,,,2023-08-16_08h43.36.330,HF_wild_card,2022.2.4,Win32,60.78288354,5996f68a9039240001432124,64d2fd46c836a06233681665,64dc7d6b2ac0a69ca4696268,,,,,,,,,,,,,,,,,,,,,,,,,,6,0,6,0,1,,,,,,,,,,,,,,,,,,,,,,,,,,,,,,,,,,
,,,,,,,,2023-08-16_08h43.36.330,HF_wild_card,2022.2.4,Win32,60.78288354,5996f68a9039240001432124,64d2fd46c836a06233681665,64dc7d6b2ac0a69ca4696268,,,,,,,,,,,,,,,,,,,,,,,,,,,,,,,3,,,,,,,,,,,,,,,,,,,,,,,,,,,,,,,,,
,,,,,,,,2023-08-16_08h43.36.330,HF_wild_card,2022.2.4,Win32,60.78288354,5996f68a9039240001432124,64d2fd46c836a06233681665,64dc7d6b2ac0a69ca4696268,,,,,,,,,,,,,,,,,,,,,,,,,,,,,,,,,,,,,,,,,,,,,,,,,,,,,,,,,,,,,,,,
,,,,,,,,2023-08-16_08h43.36.330,HF_wild_card,2022.2.4,Win32,60.78288354,5996f68a9039240001432124,64d2fd46c836a06233681665,64dc7d6b2ac0a69ca4696268,,,,,,,,,,,,,,,,,,,,,,,,,,,,,,,,80,Door4,resources/DR.BMP,0,0,0,0,1,,,,,,,,,,,,,,,,,,,,,,,,,
,,,,,,,,2023-08-16_08h43.36.330,HF_wild_card,2022.2.4,Win32,60.78288354,5996f68a9039240001432124,64d2fd46c836a06233681665,64dc7d6b2ac0a69ca4696268,,,,,,,,,,,,,,,,,,,,,,,,,,,,,,,,95,WC_extreme,resources/DP.BMP,1,0,1,0,1,,,,,,,,,,,,,,,,,,,,,,,,,
,,,,,,,,2023-08-16_08h43.36.330,HF_wild_card,2022.2.4,Win32,60.78288354,5996f68a9039240001432124,64d2fd46c836a06233681665,64dc7d6b2ac0a69ca4696268,,,,,,,,,,,,,,,,,,,,,,,,,,,,,,,,60,Door3,resources/DB.BMP,2,0,2,0,1,,,,,,,,,,,,,,,,,,,,,,,,,
,,,,,,,,2023-08-16_08h43.36.330,HF_wild_card,2022.2.4,Win32,60.78288354,5996f68a9039240001432124,64d2fd46c836a06233681665,64dc7d6b2ac0a69ca4696268,,,,,,,,,,,,,,,,,,,,,,,,,,,,,,,,30,Door1,resources/DY.BMP,3,0,3,0,1,,,,,,,,,,,,,,,,,,,,,,,,,
,,,,,,,,2023-08-16_08h43.36.330,HF_wild_card,2022.2.4,Win32,60.78288354,5996f68a9039240001432124,64d2fd46c836a06233681665,64dc7d6b2ac0a69ca4696268,,,,,,,,,,,,,,,,,,,,,,,,,,,,,,,,20,Door2,resources/DG.BMP,4,0,4,0,1,,,,,,,,,,,,,,,,,,,,,,,,,
,,,,,,,,2023-08-16_08h43.36.330,HF_wild_card,2022.2.4,Win32,60.78288354,5996f68a9039240001432124,64d2fd46c836a06233681665,64dc7d6b2ac0a69ca4696268,,,,,,,,,,,,,,,,,,,,,,,,,,,,,,,,55,WC_nonExtreme,resources/DBN.BMP,5,0,5,0,1,,,,,,,,,,,,,,,,,,,,,,,,,
,,,,,,,,2023-08-16_08h43.36.330,HF_wild_card,2022.2.4,Win32,60.78288354,5996f68a9039240001432124,64d2fd46c836a06233681665,64dc7d6b2ac0a69ca4696268,,,,,,,,,,,,,,,,,,,,,,,,,,,,,,,,,,,,,,,,,,,,,,,,,,,,,,,,,,,,,,,,
