Condition,Low fixed image (Door1),Low risky image (Door2),High fixed image (Door3),High risky image (Door4),NonExtreme Wild Card 1,NonExtreme Wild Card 2,,date,expName,psychopyVersion,OS,frameRate,PROLIFIC_PID,STUDY_ID,SESSION_ID,mouse_2.x,mouse_2.y,mouse_2.leftButton,mouse_2.midButton,mouse_2.rightButton,mouse_2.clicked_name,Trial Type,Left Option Image,Right Option Image,Chosen Door,mouse.x,mouse.y,mouse.leftButton,mouse.midButton,mouse.rightButton,mouse.time,mouse.clicked_name,Feedback,Cumulative Reward,Block,trial.thisRepN,trial.thisTrialN,trial.thisN,trial.thisIndex,trial.ran,blocks.thisRepN,blocks.thisTrialN,blocks.thisN,blocks.thisIndex,blocks.ran,Money conversion,First Outcome Reported,Shown Door (First Outcome),Displayed Image (First Outcome),outcomes.thisRepN,outcomes.thisTrialN,outcomes.thisN,outcomes.thisIndex,outcomes.ran,judgments.thisRepN,judgments.thisTrialN,judgments.thisN,judgments.thisIndex,judgments.ran,freqMouse.x,freqMouse.y,freqMouse.leftButton,freqMouse.midButton,freqMouse.rightButton,freqMouse.clicked_name,FQJ for first outcome,FQJ for second outcome,Shown Door,Displayed Image,trials.thisRepN,trials.thisTrialN,trials.thisN,trials.thisIndex,trials.ran,judgBlock.thisRepN,judgBlock.thisTrialN,judgBlock.thisN,judgBlock.thisIndex,judgBlock.ran
2,resources/DB.BMP,resources/DY.BMP,resources/DG.BMP,resources/DBN.BMP,resources/DR.BMP,resources/DP.BMP,,2023-08-16_08h08.26.174,HF_wild_card,2022.2.4,Win32,60.02040694,5ed9e3fa856ca9599fa8ea91,64d2fd46c836a06233681665,64dc75d673c899f353f75cf0,,,,,,,,,,,,,,,,,,,,,,,,,,,,,,,,,,,,,,,,,,,,,,,,,,,,,,,,,,,,,,,,
,,,,,,,,2023-08-16_08h08.26.174,HF_wild_card,2022.2.4,Win32,60.02040694,5ed9e3fa856ca9599fa8ea91,64d2fd46c836a06233681665,64dc75d673c899f353f75cf0,0.003703732,-0.424074131,1,0,0,agree,,,,,,,,,,,,,,,,,,,,,,,,,,,,,,,,,,,,,,,,,,,,,,,,,,,,,,,,,,
,,,,,,,,2023-08-16_08h08.26.174,HF_wild_card,2022.2.4,Win32,60.02040694,5ed9e3fa856ca9599fa8ea91,64d2fd46c836a06233681665,64dc75d673c899f353f75cf0,,,,,,,,,,,,,,,,,,,,,,,,,,,,,,,,,,,,,,,,,,,,,,,,,,,,,,,,,,,,,,,,
,,,,,,,,2023-08-16_08h08.26.174,HF_wild_card,2022.2.4,Win32,60.02040694,5ed9e3fa856ca9599fa8ea91,64d2fd46c836a06233681665,64dc75d673c899f353f75cf0,,,,,,,decisionTrl,resources/DB.BMP,resources/DY.BMP,Door1,-0.327777778,-0.102777778,1,0,0,3.3429,optionLeft,30,30,1,0,0,0,0,1,,,,,,,,,,,,,,,,,,,,,,,,,,,,,,,,,,,,,,,
,,,,,,,,2023-08-16_08h08.26.174,HF_wild_card,2022.2.4,Win32,60.02040694,5ed9e3fa856ca9599fa8ea91,64d2fd46c836a06233681665,64dc75d673c899f353f75cf0,,,,,,,decisionTrl,resources/DBN.BMP,resources/DG.BMP,Door3,0.314814843,0.015740712,1,0,0,2.477,optionRight,70,100,1,1,0,1,0,1,,,,,,,,,,,,,,,,,,,,,,,,,,,,,,,,,,,,,,,
,,,,,,,,2023-08-16_08h08.26.174,HF_wild_card,2022.2.4,Win32,60.02040694,5ed9e3fa856ca9599fa8ea91,64d2fd46c836a06233681665,64dc75d673c899f353f75cf0,,,,,,,decisionTrl,resources/DBN.BMP,resources/DG.BMP,Door3,0.322222222,-0.013888889,1,0,0,1.4287,optionRight,70,170,1,2,0,2,0,1,,,,,,,,,,,,,,,,,,,,,,,,,,,,,,,,,,,,,,,
,,,,,,,,2023-08-16_08h08.26.174,HF_wild_card,2022.2.4,Win32,60.02040694,5ed9e3fa856ca9599fa8ea91,64d2fd46c836a06233681665,64dc75d673c899f353f75cf0,,,,,,,decisionTrl,resources/DY.BMP,resources/DB.BMP,Door1,0.393518575,0.075,1,0,0,2.8491,optionRight,30,200,1,3,0,3,0,1,,,,,,,,,,,,,,,,,,,,,,,,,,,,,,,,,,,,,,,
,,,,,,,,2023-08-16_08h08.26.174,HF_wild_card,2022.2.4,Win32,60.02040694,5ed9e3fa856ca9599fa8ea91,64d2fd46c836a06233681665,64dc75d673c899f353f75cf0,,,,,,,ctch,resources/DG.BMP,resources/DY.BMP,Door3,-0.255555556,-0.028703732,1,0,0,1.3593,optionLeft,70,270,1,4,0,4,0,1,,,,,,,,,,,,,,,,,,,,,,,,,,,,,,,,,,,,,,,
,,,,,,,,2023-08-16_08h08.26.174,HF_wild_card,2022.2.4,Win32,60.02040694,5ed9e3fa856ca9599fa8ea91,64d2fd46c836a06233681665,64dc75d673c899f353f75cf0,,,,,,,ctch,resources/DG.BMP,resources/DY.BMP,Door3,-0.196296268,-0.063888889,1,0,0,1.5089,optionLeft,70,340,1,5,0,5,0,1,,,,,,,,,,,,,,,,,,,,,,,,,,,,,,,,,,,,,,,
,,,,,,,,2023-08-16_08h08.26.174,HF_wild_card,2022.2.4,Win32,60.02040694,5ed9e3fa856ca9599fa8ea91,64d2fd46c836a06233681665,64dc75d673c899f353f75cf0,,,,,,,decisionTrl,resources/DP.BMP,resources/DY.BMP,WildCard_NonEx,-0.198148134,-0.012037065,1,0,0,1.1409,optionLeft,55,395,1,6,0,6,0,1,,,,,,,,,,,,,,,,,,,,,,,,,,,,,,,,,,,,,,,
,,,,,,,,2023-08-16_08h08.26.174,HF_wild_card,2022.2.4,Win32,60.02040694,5ed9e3fa856ca9599fa8ea91,64d2fd46c836a06233681665,64dc75d673c899f353f75cf0,,,,,,,ctch,resources/DY.BMP,resources/DG.BMP,Door2,-0.182407379,-0.010185199,1,0,0,1.8001,optionLeft,40,435,1,7,0,7,0,1,,,,,,,,,,,,,,,,,,,,,,,,,,,,,,,,,,,,,,,
,,,,,,,,2023-08-16_08h08.26.174,HF_wild_card,2022.2.4,Win32,60.02040694,5ed9e3fa856ca9599fa8ea91,64d2fd46c836a06233681665,64dc75d673c899f353f75cf0,,,,,,,decisionTrl,resources/DP.BMP,resources/DB.BMP,WildCard_NonEx,-0.267592578,-0.025,1,0,0,1.9815,optionLeft,45,480,1,8,0,8,0,1,,,,,,,,,,,,,,,,,,,,,,,,,,,,,,,,,,,,,,,
,,,,,,,,2023-08-16_08h08.26.174,HF_wild_card,2022.2.4,Win32,60.02040694,5ed9e3fa856ca9599fa8ea91,64d2fd46c836a06233681665,64dc75d673c899f353f75cf0,,,,,,,sngl,resources/Empty.png,resources/DBN.BMP,Door4,0.202777778,0.002777778,1,0,0,2.5102,optionRight,60,540,1,9,0,9,0,1,,,,,,,,,,,,,,,,,,,,,,,,,,,,,,,,,,,,,,,
,,,,,,,,2023-08-16_08h08.26.174,HF_wild_card,2022.2.4,Win32,60.02040694,5ed9e3fa856ca9599fa8ea91,64d2fd46c836a06233681665,64dc75d673c899f353f75cf0,,,,,,,sngl,resources/Empty.png,resources/DG.BMP,Door3,0.218518575,0.021296268,1,0,0,0.8962,optionRight,70,610,1,10,0,10,0,1,,,,,,,,,,,,,,,,,,,,,,,,,,,,,,,,,,,,,,,
,,,,,,,,2023-08-16_08h08.26.174,HF_wild_card,2022.2.4,Win32,60.02040694,5ed9e3fa856ca9599fa8ea91,64d2fd46c836a06233681665,64dc75d673c899f353f75cf0,,,,,,,decisionTrl,resources/DP.BMP,resources/DG.BMP,Door3,0.232407464,-0.002777778,1,0,0,1.4788,optionRight,70,680,1,11,0,11,0,1,,,,,,,,,,,,,,,,,,,,,,,,,,,,,,,,,,,,,,,
,,,,,,,,2023-08-16_08h08.26.174,HF_wild_card,2022.2.4,Win32,60.02040694,5ed9e3fa856ca9599fa8ea91,64d2fd46c836a06233681665,64dc75d673c899f353f75cf0,,,,,,,decisionTrl,resources/DBN.BMP,resources/DG.BMP,Door3,0.246296353,-0.009259288,1,0,0,1.0321,optionRight,70,750,1,12,0,12,0,1,,,,,,,,,,,,,,,,,,,,,,,,,,,,,,,,,,,,,,,
,,,,,,,,2023-08-16_08h08.26.174,HF_wild_card,2022.2.4,Win32,60.02040694,5ed9e3fa856ca9599fa8ea91,64d2fd46c836a06233681665,64dc75d673c899f353f75cf0,,,,,,,sngl,resources/Empty.png,resources/DB.BMP,Door1,0.248148176,-0.034259288,1,0,0,1.1749,optionRight,30,780,1,13,0,13,0,1,,,,,,,,,,,,,,,,,,,,,,,,,,,,,,,,,,,,,,,
,,,,,,,,2023-08-16_08h08.26.174,HF_wild_card,2022.2.4,Win32,60.02040694,5ed9e3fa856ca9599fa8ea91,64d2fd46c836a06233681665,64dc75d673c899f353f75cf0,,,,,,,decisionTrl,resources/DG.BMP,resources/DBN.BMP,Door3,-0.223148134,0.006481467,1,0,0,1.1407,optionLeft,70,850,1,14,0,14,0,1,,,,,,,,,,,,,,,,,,,,,,,,,,,,,,,,,,,,,,,
,,,,,,,,2023-08-16_08h08.26.174,HF_wild_card,2022.2.4,Win32,60.02040694,5ed9e3fa856ca9599fa8ea91,64d2fd46c836a06233681665,64dc75d673c899f353f75cf0,,,,,,,sngl,resources/DP.BMP,resources/Empty.png,WildCard_NonEx,-0.189814801,-0.002777778,1,0,0,0.9675,optionLeft,55,905,1,15,0,15,0,1,,,,,,,,,,,,,,,,,,,,,,,,,,,,,,,,,,,,,,,
,,,,,,,,2023-08-16_08h08.26.174,HF_wild_card,2022.2.4,Win32,60.02040694,5ed9e3fa856ca9599fa8ea91,64d2fd46c836a06233681665,64dc75d673c899f353f75cf0,,,,,,,ctch,resources/DBN.BMP,resources/DB.BMP,Door4,-0.183333333,0.005555556,1,0,0,1.2092,optionLeft,80,985,1,16,0,16,0,1,,,,,,,,,,,,,,,,,,,,,,,,,,,,,,,,,,,,,,,
,,,,,,,,2023-08-16_08h08.26.174,HF_wild_card,2022.2.4,Win32,60.02040694,5ed9e3fa856ca9599fa8ea91,64d2fd46c836a06233681665,64dc75d673c899f353f75cf0,,,,,,,ctch,resources/DY.BMP,resources/DG.BMP,Door3,0.194444444,0.045370356,1,0,0,1.2519,optionRight,70,1055,1,17,0,17,0,1,,,,,,,,,,,,,,,,,,,,,,,,,,,,,,,,,,,,,,,
,,,,,,,,2023-08-16_08h08.26.174,HF_wild_card,2022.2.4,Win32,60.02040694,5ed9e3fa856ca9599fa8ea91,64d2fd46c836a06233681665,64dc75d673c899f353f75cf0,,,,,,,decisionTrl,resources/DB.BMP,resources/DY.BMP,Door1,-0.182407379,-0.019444444,1,0,0,1.8784,optionLeft,30,1085,1,18,0,18,0,1,,,,,,,,,,,,,,,,,,,,,,,,,,,,,,,,,,,,,,,
,,,,,,,,2023-08-16_08h08.26.174,HF_wild_card,2022.2.4,Win32,60.02040694,5ed9e3fa856ca9599fa8ea91,64d2fd46c836a06233681665,64dc75d673c899f353f75cf0,,,,,,,decisionTrl,resources/DY.BMP,resources/DB.BMP,Door1,0.235185242,0.025,1,0,0,1.1957,optionRight,30,1115,1,19,0,19,0,1,,,,,,,,,,,,,,,,,,,,,,,,,,,,,,,,,,,,,,,
,,,,,,,,2023-08-16_08h08.26.174,HF_wild_card,2022.2.4,Win32,60.02040694,5ed9e3fa856ca9599fa8ea91,64d2fd46c836a06233681665,64dc75d673c899f353f75cf0,,,,,,,decisionTrl,resources/DG.BMP,resources/DBN.BMP,Door4,0.219444444,0.069444444,1,0,0,1.2423,optionRight,80,1195,1,20,0,20,0,1,,,,,,,,,,,,,,,,,,,,,,,,,,,,,,,,,,,,,,,
,,,,,,,,2023-08-16_08h08.26.174,HF_wild_card,2022.2.4,Win32,60.02040694,5ed9e3fa856ca9599fa8ea91,64d2fd46c836a06233681665,64dc75d673c899f353f75cf0,,,,,,,decisionTrl,resources/DG.BMP,resources/DP.BMP,WildCard_NonEx,0.219444444,0.019444444,1,0,0,0.9752,optionRight,45,1240,1,21,0,21,0,1,,,,,,,,,,,,,,,,,,,,,,,,,,,,,,,,,,,,,,,
,,,,,,,,2023-08-16_08h08.26.174,HF_wild_card,2022.2.4,Win32,60.02040694,5ed9e3fa856ca9599fa8ea91,64d2fd46c836a06233681665,64dc75d673c899f353f75cf0,,,,,,,decisionTrl,resources/DB.BMP,resources/DY.BMP,Door1,-0.249074046,0.027777778,1,0,0,1.0464,optionLeft,30,1270,1,22,0,22,0,1,,,,,,,,,,,,,,,,,,,,,,,,,,,,,,,,,,,,,,,
,,,,,,,,2023-08-16_08h08.26.174,HF_wild_card,2022.2.4,Win32,60.02040694,5ed9e3fa856ca9599fa8ea91,64d2fd46c836a06233681665,64dc75d673c899f353f75cf0,,,,,,,sngl,resources/DB.BMP,resources/Empty.png,Door1,0.155555556,0.045370356,1,0,0,1.1175,optionLeft,30,1300,1,23,0,23,0,1,,,,,,,,,,,,,,,,,,,,,,,,,,,,,,,,,,,,,,,
,,,,,,,,2023-08-16_08h08.26.174,HF_wild_card,2022.2.4,Win32,60.02040694,5ed9e3fa856ca9599fa8ea91,64d2fd46c836a06233681665,64dc75d673c899f353f75cf0,,,,,,,decisionTrl,resources/DB.BMP,resources/DY.BMP,Door2,0.148148176,0.057407379,1,0,0,2.1995,optionRight,20,1320,1,24,0,24,0,1,,,,,,,,,,,,,,,,,,,,,,,,,,,,,,,,,,,,,,,
,,,,,,,,2023-08-16_08h08.26.174,HF_wild_card,2022.2.4,Win32,60.02040694,5ed9e3fa856ca9599fa8ea91,64d2fd46c836a06233681665,64dc75d673c899f353f75cf0,,,,,,,sngl,resources/DG.BMP,resources/Empty.png,Door3,-0.238888889,0.037962935,1,0,0,0.8916,optionLeft,70,1390,1,25,0,25,0,1,,,,,,,,,,,,,,,,,,,,,,,,,,,,,,,,,,,,,,,
,,,,,,,,2023-08-16_08h08.26.174,HF_wild_card,2022.2.4,Win32,60.02040694,5ed9e3fa856ca9599fa8ea91,64d2fd46c836a06233681665,64dc75d673c899f353f75cf0,,,,,,,decisionTrl,resources/DB.BMP,resources/DP.BMP,WildCard_NonEx,0.310185242,0.040740712,1,0,0,1.5126,optionRight,45,1435,1,26,0,26,0,1,,,,,,,,,,,,,,,,,,,,,,,,,,,,,,,,,,,,,,,
,,,,,,,,2023-08-16_08h08.26.174,HF_wild_card,2022.2.4,Win32,60.02040694,5ed9e3fa856ca9599fa8ea91,64d2fd46c836a06233681665,64dc75d673c899f353f75cf0,,,,,,,ctch,resources/DBN.BMP,resources/DB.BMP,Door4,-0.276851824,0.014814801,1,0,0,0.9291,optionLeft,80,1515,1,27,0,27,0,1,,,,,,,,,,,,,,,,,,,,,,,,,,,,,,,,,,,,,,,
,,,,,,,,2023-08-16_08h08.26.174,HF_wild_card,2022.2.4,Win32,60.02040694,5ed9e3fa856ca9599fa8ea91,64d2fd46c836a06233681665,64dc75d673c899f353f75cf0,,,,,,,decisionTrl,resources/DP.BMP,resources/DBN.BMP,Door4,0.273148176,0.025925912,1,0,0,0.8185,optionRight,80,1595,1,28,0,28,0,1,,,,,,,,,,,,,,,,,,,,,,,,,,,,,,,,,,,,,,,
,,,,,,,,2023-08-16_08h08.26.174,HF_wild_card,2022.2.4,Win32,60.02040694,5ed9e3fa856ca9599fa8ea91,64d2fd46c836a06233681665,64dc75d673c899f353f75cf0,,,,,,,decisionTrl,resources/DY.BMP,resources/DB.BMP,Door1,0.240740797,0.046296268,1,0,0,0.8612,optionRight,30,1625,1,29,0,29,0,1,,,,,,,,,,,,,,,,,,,,,,,,,,,,,,,,,,,,,,,
,,,,,,,,2023-08-16_08h08.26.174,HF_wild_card,2022.2.4,Win32,60.02040694,5ed9e3fa856ca9599fa8ea91,64d2fd46c836a06233681665,64dc75d673c899f353f75cf0,,,,,,,decisionTrl,resources/DG.BMP,resources/DBN.BMP,Door4,0.173148176,0.007407379,1,0,0,1.401,optionRight,80,1705,1,30,0,30,0,1,,,,,,,,,,,,,,,,,,,,,,,,,,,,,,,,,,,,,,,
,,,,,,,,2023-08-16_08h08.26.174,HF_wild_card,2022.2.4,Win32,60.02040694,5ed9e3fa856ca9599fa8ea91,64d2fd46c836a06233681665,64dc75d673c899f353f75cf0,,,,,,,decisionTrl,resources/DY.BMP,resources/DP.BMP,WildCard_NonEx,0.207407464,0.010185157,1,0,0,1.4289,optionRight,45,1750,1,31,0,31,0,1,,,,,,,,,,,,,,,,,,,,,,,,,,,,,,,,,,,,,,,
,,,,,,,,2023-08-16_08h08.26.174,HF_wild_card,2022.2.4,Win32,60.02040694,5ed9e3fa856ca9599fa8ea91,64d2fd46c836a06233681665,64dc75d673c899f353f75cf0,,,,,,,sngl,resources/Empty.png,resources/DP.BMP,WildCard_NonEx,0.308333333,0.04351849,1,0,0,0.8755,optionRight,55,1805,1,32,0,32,0,1,,,,,,,,,,,,,,,,,,,,,,,,,,,,,,,,,,,,,,,
,,,,,,,,2023-08-16_08h08.26.174,HF_wild_card,2022.2.4,Win32,60.02040694,5ed9e3fa856ca9599fa8ea91,64d2fd46c836a06233681665,64dc75d673c899f353f75cf0,,,,,,,decisionTrl,resources/DG.BMP,resources/DBN.BMP,Door4,0.272222222,0.066666667,1,0,0,0.8261,optionRight,60,1865,1,33,0,33,0,1,,,,,,,,,,,,,,,,,,,,,,,,,,,,,,,,,,,,,,,
,,,,,,,,2023-08-16_08h08.26.174,HF_wild_card,2022.2.4,Win32,60.02040694,5ed9e3fa856ca9599fa8ea91,64d2fd46c836a06233681665,64dc75d673c899f353f75cf0,,,,,,,ctch,resources/DB.BMP,resources/DBN.BMP,Door4,0.328703732,0.036111111,1,0,0,0.8623,optionRight,80,1945,1,34,0,34,0,1,,,,,,,,,,,,,,,,,,,,,,,,,,,,,,,,,,,,,,,
,,,,,,,,2023-08-16_08h08.26.174,HF_wild_card,2022.2.4,Win32,60.02040694,5ed9e3fa856ca9599fa8ea91,64d2fd46c836a06233681665,64dc75d673c899f353f75cf0,,,,,,,decisionTrl,resources/DBN.BMP,resources/DP.BMP,Door4,-0.292592578,0.022222222,1,0,0,0.8969,optionLeft,60,2005,1,35,0,35,0,1,,,,,,,,,,,,,,,,,,,,,,,,,,,,,,,,,,,,,,,
,,,,,,,,2023-08-16_08h08.26.174,HF_wild_card,2022.2.4,Win32,60.02040694,5ed9e3fa856ca9599fa8ea91,64d2fd46c836a06233681665,64dc75d673c899f353f75cf0,,,,,,,decisionTrl,resources/DBN.BMP,resources/DG.BMP,Door4,-0.325,-0.020370399,1,0,0,0.8126,optionLeft,60,2065,1,36,0,36,0,1,,,,,,,,,,,,,,,,,,,,,,,,,,,,,,,,,,,,,,,
,,,,,,,,2023-08-16_08h08.26.174,HF_wild_card,2022.2.4,Win32,60.02040694,5ed9e3fa856ca9599fa8ea91,64d2fd46c836a06233681665,64dc75d673c899f353f75cf0,,,,,,,sngl,resources/Empty.png,resources/DP.BMP,WildCard_NonEx,0.313888889,0.020370356,1,0,0,0.9454,optionRight,45,2110,1,37,0,37,0,1,,,,,,,,,,,,,,,,,,,,,,,,,,,,,,,,,,,,,,,
,,,,,,,,2023-08-16_08h08.26.174,HF_wild_card,2022.2.4,Win32,60.02040694,5ed9e3fa856ca9599fa8ea91,64d2fd46c836a06233681665,64dc75d673c899f353f75cf0,,,,,,,sngl,resources/DP.BMP,resources/Empty.png,WildCard_NonEx,-0.287037023,0.037037023,1,0,0,0.8291,optionLeft,45,2155,1,38,0,38,0,1,,,,,,,,,,,,,,,,,,,,,,,,,,,,,,,,,,,,,,,
,,,,,,,,2023-08-16_08h08.26.174,HF_wild_card,2022.2.4,Win32,60.02040694,5ed9e3fa856ca9599fa8ea91,64d2fd46c836a06233681665,64dc75d673c899f353f75cf0,,,,,,,sngl,resources/DBN.BMP,resources/Empty.png,Door4,-0.330555556,0.02870369,1,0,0,0.834,optionLeft,80,2235,1,39,0,39,0,1,,,,,,,,,,,,,,,,,,,,,,,,,,,,,,,,,,,,,,,
,,,,,,,,2023-08-16_08h08.26.174,HF_wild_card,2022.2.4,Win32,60.02040694,5ed9e3fa856ca9599fa8ea91,64d2fd46c836a06233681665,64dc75d673c899f353f75cf0,,,,,,,sngl,resources/DY.BMP,resources/Empty.png,Door2,-0.298148134,0.015740712,1,0,0,0.913,optionLeft,40,2275,1,40,0,40,0,1,,,,,,,,,,,,,,,,,,,,,,,,,,,,,,,,,,,,,,,
,,,,,,,,2023-08-16_08h08.26.174,HF_wild_card,2022.2.4,Win32,60.02040694,5ed9e3fa856ca9599fa8ea91,64d2fd46c836a06233681665,64dc75d673c899f353f75cf0,,,,,,,decisionTrl,resources/DY.BMP,resources/DB.BMP,Door1,0.325,0.006481467,1,0,0,1.2243,optionRight,30,2305,1,41,0,41,0,1,,,,,,,,,,,,,,,,,,,,,,,,,,,,,,,,,,,,,,,
,,,,,,,,2023-08-16_08h08.26.174,HF_wild_card,2022.2.4,Win32,60.02040694,5ed9e3fa856ca9599fa8ea91,64d2fd46c836a06233681665,64dc75d673c899f353f75cf0,,,,,,,sngl,resources/Empty.png,resources/DY.BMP,Door2,0.318518575,0.052777778,1,0,0,0.7797,optionRight,20,2325,1,42,0,42,0,1,,,,,,,,,,,,,,,,,,,,,,,,,,,,,,,,,,,,,,,
,,,,,,,,2023-08-16_08h08.26.174,HF_wild_card,2022.2.4,Win32,60.02040694,5ed9e3fa856ca9599fa8ea91,64d2fd46c836a06233681665,64dc75d673c899f353f75cf0,,,,,,,ctch,resources/DB.BMP,resources/DBN.BMP,Door4,0.302777778,0.002777778,1,0,0,1.0258,optionRight,60,2385,1,43,0,43,0,1,,,,,,,,,,,,,,,,,,,,,,,,,,,,,,,,,,,,,,,
,,,,,,,,2023-08-16_08h08.26.174,HF_wild_card,2022.2.4,Win32,60.02040694,5ed9e3fa856ca9599fa8ea91,64d2fd46c836a06233681665,64dc75d673c899f353f75cf0,,,,,,,,,,,,,,,,,,,,,,,,,,0,0,0,0,1,,,,,,,,,,,,,,,,,,,,,,,,,,,,,,,,,,
,,,,,,,,2023-08-16_08h08.26.174,HF_wild_card,2022.2.4,Win32,60.02040694,5ed9e3fa856ca9599fa8ea91,64d2fd46c836a06233681665,64dc75d673c899f353f75cf0,,,,,,,decisionTrl,resources/DBN.BMP,resources/DG.BMP,Door4,-0.395370356,0.112962935,1,0,0,1.4926,optionLeft,80,2465,2,0,0,0,0,1,,,,,,,,,,,,,,,,,,,,,,,,,,,,,,,,,,,,,,,
,,,,,,,,2023-08-16_08h08.26.174,HF_wild_card,2022.2.4,Win32,60.02040694,5ed9e3fa856ca9599fa8ea91,64d2fd46c836a06233681665,64dc75d673c899f353f75cf0,,,,,,,sngl,resources/Empty.png,resources/DBN.BMP,Door4,0.357407464,0.042592578,1,0,0,0.9618,optionRight,80,2545,2,1,0,1,0,1,,,,,,,,,,,,,,,,,,,,,,,,,,,,,,,,,,,,,,,
,,,,,,,,2023-08-16_08h08.26.174,HF_wild_card,2022.2.4,Win32,60.02040694,5ed9e3fa856ca9599fa8ea91,64d2fd46c836a06233681665,64dc75d673c899f353f75cf0,,,,,,,ctch,resources/DB.BMP,resources/DBN.BMP,Door4,0.380555556,0.015740712,1,0,0,0.729,optionRight,80,2625,2,2,0,2,0,1,,,,,,,,,,,,,,,,,,,,,,,,,,,,,,,,,,,,,,,
,,,,,,,,2023-08-16_08h08.26.174,HF_wild_card,2022.2.4,Win32,60.02040694,5ed9e3fa856ca9599fa8ea91,64d2fd46c836a06233681665,64dc75d673c899f353f75cf0,,,,,,,decisionTrl,resources/DB.BMP,resources/DY.BMP,Door1,-0.295370356,-0.022222222,1,0,0,0.779,optionLeft,30,2655,2,3,0,3,0,1,,,,,,,,,,,,,,,,,,,,,,,,,,,,,,,,,,,,,,,
,,,,,,,,2023-08-16_08h08.26.174,HF_wild_card,2022.2.4,Win32,60.02040694,5ed9e3fa856ca9599fa8ea91,64d2fd46c836a06233681665,64dc75d673c899f353f75cf0,,,,,,,sngl,resources/DY.BMP,resources/Empty.png,Door2,-0.22870369,-0.038888889,1,0,0,0.7453,optionLeft,20,2675,2,4,0,4,0,1,,,,,,,,,,,,,,,,,,,,,,,,,,,,,,,,,,,,,,,
,,,,,,,,2023-08-16_08h08.26.174,HF_wild_card,2022.2.4,Win32,60.02040694,5ed9e3fa856ca9599fa8ea91,64d2fd46c836a06233681665,64dc75d673c899f353f75cf0,,,,,,,decisionTrl,resources/DG.BMP,resources/DP.BMP,WildCard_NonEx,0.321296353,-0.019444444,1,0,0,0.8109,optionRight,55,2730,2,5,0,5,0,1,,,,,,,,,,,,,,,,,,,,,,,,,,,,,,,,,,,,,,,
,,,,,,,,2023-08-16_08h08.26.174,HF_wild_card,2022.2.4,Win32,60.02040694,5ed9e3fa856ca9599fa8ea91,64d2fd46c836a06233681665,64dc75d673c899f353f75cf0,,,,,,,ctch,resources/DY.BMP,resources/DG.BMP,Door3,0.330555556,0.030555556,1,0,0,0.8621,optionRight,70,2800,2,6,0,6,0,1,,,,,,,,,,,,,,,,,,,,,,,,,,,,,,,,,,,,,,,
,,,,,,,,2023-08-16_08h08.26.174,HF_wild_card,2022.2.4,Win32,60.02040694,5ed9e3fa856ca9599fa8ea91,64d2fd46c836a06233681665,64dc75d673c899f353f75cf0,,,,,,,decisionTrl,resources/DY.BMP,resources/DB.BMP,Door1,0.298148176,0.022222222,1,0,0,1.0614,optionRight,30,2830,2,7,0,7,0,1,,,,,,,,,,,,,,,,,,,,,,,,,,,,,,,,,,,,,,,
,,,,,,,,2023-08-16_08h08.26.174,HF_wild_card,2022.2.4,Win32,60.02040694,5ed9e3fa856ca9599fa8ea91,64d2fd46c836a06233681665,64dc75d673c899f353f75cf0,,,,,,,decisionTrl,resources/DY.BMP,resources/DP.BMP,WildCard_NonEx,0.308333333,-0.035185199,1,0,0,1.2117,optionRight,55,2885,2,8,0,8,0,1,,,,,,,,,,,,,,,,,,,,,,,,,,,,,,,,,,,,,,,
,,,,,,,,2023-08-16_08h08.26.174,HF_wild_card,2022.2.4,Win32,60.02040694,5ed9e3fa856ca9599fa8ea91,64d2fd46c836a06233681665,64dc75d673c899f353f75cf0,,,,,,,decisionTrl,resources/DG.BMP,resources/DBN.BMP,Door4,0.268518575,0.000925912,1,0,0,0.7613,optionRight,80,2965,2,9,0,9,0,1,,,,,,,,,,,,,,,,,,,,,,,,,,,,,,,,,,,,,,,
,,,,,,,,2023-08-16_08h08.26.174,HF_wild_card,2022.2.4,Win32,60.02040694,5ed9e3fa856ca9599fa8ea91,64d2fd46c836a06233681665,64dc75d673c899f353f75cf0,,,,,,,ctch,resources/DBN.BMP,resources/DB.BMP,Door4,-0.242592578,-0.023148176,1,0,0,0.8288,optionLeft,80,3045,2,10,0,10,0,1,,,,,,,,,,,,,,,,,,,,,,,,,,,,,,,,,,,,,,,
,,,,,,,,2023-08-16_08h08.26.174,HF_wild_card,2022.2.4,Win32,60.02040694,5ed9e3fa856ca9599fa8ea91,64d2fd46c836a06233681665,64dc75d673c899f353f75cf0,,,,,,,sngl,resources/Empty.png,resources/DY.BMP,Door2,0.28148151,0.009259245,1,0,0,0.8065,optionRight,40,3085,2,11,0,11,0,1,,,,,,,,,,,,,,,,,,,,,,,,,,,,,,,,,,,,,,,
,,,,,,,,2023-08-16_08h08.26.174,HF_wild_card,2022.2.4,Win32,60.02040694,5ed9e3fa856ca9599fa8ea91,64d2fd46c836a06233681665,64dc75d673c899f353f75cf0,,,,,,,ctch,resources/DB.BMP,resources/DBN.BMP,Door4,0.402777778,0.059259245,1,0,0,0.7118,optionRight,60,3145,2,12,0,12,0,1,,,,,,,,,,,,,,,,,,,,,,,,,,,,,,,,,,,,,,,
,,,,,,,,2023-08-16_08h08.26.174,HF_wild_card,2022.2.4,Win32,60.02040694,5ed9e3fa856ca9599fa8ea91,64d2fd46c836a06233681665,64dc75d673c899f353f75cf0,,,,,,,sngl,resources/Empty.png,resources/DB.BMP,Door1,0.275925954,0.029629601,1,0,0,0.6206,optionRight,30,3175,2,13,0,13,0,1,,,,,,,,,,,,,,,,,,,,,,,,,,,,,,,,,,,,,,,
,,,,,,,,2023-08-16_08h08.26.174,HF_wild_card,2022.2.4,Win32,60.02040694,5ed9e3fa856ca9599fa8ea91,64d2fd46c836a06233681665,64dc75d673c899f353f75cf0,,,,,,,sngl,resources/DP.BMP,resources/Empty.png,WildCard_NonEx,-0.312037023,0.025925912,1,0,0,0.8624,optionLeft,45,3220,2,14,0,14,0,1,,,,,,,,,,,,,,,,,,,,,,,,,,,,,,,,,,,,,,,
,,,,,,,,2023-08-16_08h08.26.174,HF_wild_card,2022.2.4,Win32,60.02040694,5ed9e3fa856ca9599fa8ea91,64d2fd46c836a06233681665,64dc75d673c899f353f75cf0,,,,,,,decisionTrl,resources/DBN.BMP,resources/DP.BMP,Door4,-0.375925912,0.007407379,1,0,0,0.8124,optionLeft,80,3300,2,15,0,15,0,1,,,,,,,,,,,,,,,,,,,,,,,,,,,,,,,,,,,,,,,
,,,,,,,,2023-08-16_08h08.26.174,HF_wild_card,2022.2.4,Win32,60.02040694,5ed9e3fa856ca9599fa8ea91,64d2fd46c836a06233681665,64dc75d673c899f353f75cf0,,,,,,,decisionTrl,resources/DB.BMP,resources/DP.BMP,WildCard_NonEx,0.293518575,-0.008333333,1,0,0,1.078,optionRight,55,3355,2,16,0,16,0,1,,,,,,,,,,,,,,,,,,,,,,,,,,,,,,,,,,,,,,,
,,,,,,,,2023-08-16_08h08.26.174,HF_wild_card,2022.2.4,Win32,60.02040694,5ed9e3fa856ca9599fa8ea91,64d2fd46c836a06233681665,64dc75d673c899f353f75cf0,,,,,,,decisionTrl,resources/DBN.BMP,resources/DG.BMP,Door4,-0.266666667,-0.035185199,1,0,0,0.7994,optionLeft,80,3435,2,17,0,17,0,1,,,,,,,,,,,,,,,,,,,,,,,,,,,,,,,,,,,,,,,
,,,,,,,,2023-08-16_08h08.26.174,HF_wild_card,2022.2.4,Win32,60.02040694,5ed9e3fa856ca9599fa8ea91,64d2fd46c836a06233681665,64dc75d673c899f353f75cf0,,,,,,,decisionTrl,resources/DBN.BMP,resources/DG.BMP,Door4,-0.337962935,-0.060185199,1,0,0,0.7594,optionLeft,60,3495,2,18,0,18,0,1,,,,,,,,,,,,,,,,,,,,,,,,,,,,,,,,,,,,,,,
,,,,,,,,2023-08-16_08h08.26.174,HF_wild_card,2022.2.4,Win32,60.02040694,5ed9e3fa856ca9599fa8ea91,64d2fd46c836a06233681665,64dc75d673c899f353f75cf0,,,,,,,decisionTrl,resources/DB.BMP,resources/DY.BMP,Door2,0.332407464,0.004629601,1,0,0,0.7749,optionRight,20,3515,2,19,0,19,0,1,,,,,,,,,,,,,,,,,,,,,,,,,,,,,,,,,,,,,,,
,,,,,,,,2023-08-16_08h08.26.174,HF_wild_card,2022.2.4,Win32,60.02040694,5ed9e3fa856ca9599fa8ea91,64d2fd46c836a06233681665,64dc75d673c899f353f75cf0,,,,,,,decisionTrl,resources/DY.BMP,resources/DB.BMP,Door1,0.25648151,0.021296268,1,0,0,0.7923,optionRight,30,3545,2,20,0,20,0,1,,,,,,,,,,,,,,,,,,,,,,,,,,,,,,,,,,,,,,,
,,,,,,,,2023-08-16_08h08.26.174,HF_wild_card,2022.2.4,Win32,60.02040694,5ed9e3fa856ca9599fa8ea91,64d2fd46c836a06233681665,64dc75d673c899f353f75cf0,,,,,,,decisionTrl,resources/DP.BMP,resources/DBN.BMP,Door4,0.305555556,0.015740712,1,0,0,0.7097,optionRight,80,3625,2,21,0,21,0,1,,,,,,,,,,,,,,,,,,,,,,,,,,,,,,,,,,,,,,,
,,,,,,,,2023-08-16_08h08.26.174,HF_wild_card,2022.2.4,Win32,60.02040694,5ed9e3fa856ca9599fa8ea91,64d2fd46c836a06233681665,64dc75d673c899f353f75cf0,,,,,,,sngl,resources/DBN.BMP,resources/Empty.png,Door4,-0.358333333,-0.012962977,1,0,0,0.9264,optionLeft,60,3685,2,22,0,22,0,1,,,,,,,,,,,,,,,,,,,,,,,,,,,,,,,,,,,,,,,
,,,,,,,,2023-08-16_08h08.26.174,HF_wild_card,2022.2.4,Win32,60.02040694,5ed9e3fa856ca9599fa8ea91,64d2fd46c836a06233681665,64dc75d673c899f353f75cf0,,,,,,,sngl,resources/DG.BMP,resources/Empty.png,Door3,-0.31851849,-0.001851866,1,0,0,0.7295,optionLeft,70,3755,2,23,0,23,0,1,,,,,,,,,,,,,,,,,,,,,,,,,,,,,,,,,,,,,,,
,,,,,,,,2023-08-16_08h08.26.174,HF_wild_card,2022.2.4,Win32,60.02040694,5ed9e3fa856ca9599fa8ea91,64d2fd46c836a06233681665,64dc75d673c899f353f75cf0,,,,,,,decisionTrl,resources/DG.BMP,resources/DBN.BMP,Door4,0.330555556,0.039814801,1,0,0,0.7455,optionRight,80,3835,2,24,0,24,0,1,,,,,,,,,,,,,,,,,,,,,,,,,,,,,,,,,,,,,,,
,,,,,,,,2023-08-16_08h08.26.174,HF_wild_card,2022.2.4,Win32,60.02040694,5ed9e3fa856ca9599fa8ea91,64d2fd46c836a06233681665,64dc75d673c899f353f75cf0,,,,,,,decisionTrl,resources/DB.BMP,resources/DY.BMP,Door1,-0.354629601,0.021296268,1,0,0,0.8294,optionLeft,30,3865,2,25,0,25,0,1,,,,,,,,,,,,,,,,,,,,,,,,,,,,,,,,,,,,,,,
,,,,,,,,2023-08-16_08h08.26.174,HF_wild_card,2022.2.4,Win32,60.02040694,5ed9e3fa856ca9599fa8ea91,64d2fd46c836a06233681665,64dc75d673c899f353f75cf0,,,,,,,sngl,resources/Empty.png,resources/DP.BMP,WildCard_NonEx,0.323148176,-0.005555556,1,0,0,0.8121,optionRight,55,3920,2,26,0,26,0,1,,,,,,,,,,,,,,,,,,,,,,,,,,,,,,,,,,,,,,,
,,,,,,,,2023-08-16_08h08.26.174,HF_wild_card,2022.2.4,Win32,60.02040694,5ed9e3fa856ca9599fa8ea91,64d2fd46c836a06233681665,64dc75d673c899f353f75cf0,,,,,,,decisionTrl,resources/DY.BMP,resources/DB.BMP,Door2,-0.367592578,0.025,1,0,0,0.8783,optionLeft,20,3940,2,27,0,27,0,1,,,,,,,,,,,,,,,,,,,,,,,,,,,,,,,,,,,,,,,
,,,,,,,,2023-08-16_08h08.26.174,HF_wild_card,2022.2.4,Win32,60.02040694,5ed9e3fa856ca9599fa8ea91,64d2fd46c836a06233681665,64dc75d673c899f353f75cf0,,,,,,,ctch,resources/DBN.BMP,resources/DB.BMP,Door4,-0.409259245,0.037037023,1,0,0,1.0778,optionLeft,60,4000,2,28,0,28,0,1,,,,,,,,,,,,,,,,,,,,,,,,,,,,,,,,,,,,,,,
,,,,,,,,2023-08-16_08h08.26.174,HF_wild_card,2022.2.4,Win32,60.02040694,5ed9e3fa856ca9599fa8ea91,64d2fd46c836a06233681665,64dc75d673c899f353f75cf0,,,,,,,decisionTrl,resources/DG.BMP,resources/DBN.BMP,Door4,0.262037065,-0.033333333,1,0,0,0.745,optionRight,80,4080,2,29,0,29,0,1,,,,,,,,,,,,,,,,,,,,,,,,,,,,,,,,,,,,,,,
,,,,,,,,2023-08-16_08h08.26.174,HF_wild_card,2022.2.4,Win32,60.02040694,5ed9e3fa856ca9599fa8ea91,64d2fd46c836a06233681665,64dc75d673c899f353f75cf0,,,,,,,sngl,resources/DB.BMP,resources/Empty.png,Door1,-0.236111111,0.007407379,1,0,0,1.1117,optionLeft,30,4110,2,30,0,30,0,1,,,,,,,,,,,,,,,,,,,,,,,,,,,,,,,,,,,,,,,
,,,,,,,,2023-08-16_08h08.26.174,HF_wild_card,2022.2.4,Win32,60.02040694,5ed9e3fa856ca9599fa8ea91,64d2fd46c836a06233681665,64dc75d673c899f353f75cf0,,,,,,,ctch,resources/DG.BMP,resources/DY.BMP,Door2,0.372222222,0.133333333,1,0,0,2.6776,optionRight,40,4150,2,31,0,31,0,1,,,,,,,,,,,,,,,,,,,,,,,,,,,,,,,,,,,,,,,
,,,,,,,,2023-08-16_08h08.26.174,HF_wild_card,2022.2.4,Win32,60.02040694,5ed9e3fa856ca9599fa8ea91,64d2fd46c836a06233681665,64dc75d673c899f353f75cf0,,,,,,,decisionTrl,resources/DBN.BMP,resources/DG.BMP,Door4,-0.175,0.087037023,1,0,0,2.061,optionLeft,80,4230,2,32,0,32,0,1,,,,,,,,,,,,,,,,,,,,,,,,,,,,,,,,,,,,,,,
,,,,,,,,2023-08-16_08h08.26.174,HF_wild_card,2022.2.4,Win32,60.02040694,5ed9e3fa856ca9599fa8ea91,64d2fd46c836a06233681665,64dc75d673c899f353f75cf0,,,,,,,decisionTrl,resources/DY.BMP,resources/DB.BMP,Door1,0.139814843,-0.002777778,1,0,0,1.4744,optionRight,30,4260,2,33,0,33,0,1,,,,,,,,,,,,,,,,,,,,,,,,,,,,,,,,,,,,,,,
,,,,,,,,2023-08-16_08h08.26.174,HF_wild_card,2022.2.4,Win32,60.02040694,5ed9e3fa856ca9599fa8ea91,64d2fd46c836a06233681665,64dc75d673c899f353f75cf0,,,,,,,ctch,resources/DY.BMP,resources/DG.BMP,Door3,0.225925954,0.025,1,0,0,1.063,optionRight,70,4330,2,34,0,34,0,1,,,,,,,,,,,,,,,,,,,,,,,,,,,,,,,,,,,,,,,
,,,,,,,,2023-08-16_08h08.26.174,HF_wild_card,2022.2.4,Win32,60.02040694,5ed9e3fa856ca9599fa8ea91,64d2fd46c836a06233681665,64dc75d673c899f353f75cf0,,,,,,,decisionTrl,resources/DG.BMP,resources/DBN.BMP,Door4,0.249074131,0.002777778,1,0,0,0.839,optionRight,80,4410,2,35,0,35,0,1,,,,,,,,,,,,,,,,,,,,,,,,,,,,,,,,,,,,,,,
,,,,,,,,2023-08-16_08h08.26.174,HF_wild_card,2022.2.4,Win32,60.02040694,5ed9e3fa856ca9599fa8ea91,64d2fd46c836a06233681665,64dc75d673c899f353f75cf0,,,,,,,decisionTrl,resources/DP.BMP,resources/DG.BMP,WildCard_NonEx,-0.284259245,0.022222222,1,0,0,0.9464,optionLeft,55,4465,2,36,0,36,0,1,,,,,,,,,,,,,,,,,,,,,,,,,,,,,,,,,,,,,,,
,,,,,,,,2023-08-16_08h08.26.174,HF_wild_card,2022.2.4,Win32,60.02040694,5ed9e3fa856ca9599fa8ea91,64d2fd46c836a06233681665,64dc75d673c899f353f75cf0,,,,,,,sngl,resources/Empty.png,resources/DG.BMP,Door3,0.317592621,0.001851824,1,0,0,0.8964,optionRight,70,4535,2,37,0,37,0,1,,,,,,,,,,,,,,,,,,,,,,,,,,,,,,,,,,,,,,,
,,,,,,,,2023-08-16_08h08.26.174,HF_wild_card,2022.2.4,Win32,60.02040694,5ed9e3fa856ca9599fa8ea91,64d2fd46c836a06233681665,64dc75d673c899f353f75cf0,,,,,,,sngl,resources/Empty.png,resources/DP.BMP,WildCard_NonEx,-0.376851824,-0.011111111,1,0,0,1.311,optionRight,45,4580,2,38,0,38,0,1,,,,,,,,,,,,,,,,,,,,,,,,,,,,,,,,,,,,,,,
,,,,,,,,2023-08-16_08h08.26.174,HF_wild_card,2022.2.4,Win32,60.02040694,5ed9e3fa856ca9599fa8ea91,64d2fd46c836a06233681665,64dc75d673c899f353f75cf0,,,,,,,sngl,resources/DP.BMP,resources/Empty.png,WildCard_NonEx,-0.298148134,0.012037023,1,0,0,0.8128,optionLeft,55,4635,2,39,0,39,0,1,,,,,,,,,,,,,,,,,,,,,,,,,,,,,,,,,,,,,,,
,,,,,,,,2023-08-16_08h08.26.174,HF_wild_card,2022.2.4,Win32,60.02040694,5ed9e3fa856ca9599fa8ea91,64d2fd46c836a06233681665,64dc75d673c899f353f75cf0,,,,,,,decisionTrl,resources/DB.BMP,resources/DY.BMP,Door1,-0.346296268,0.006481467,1,0,0,0.9956,optionLeft,30,4665,2,40,0,40,0,1,,,,,,,,,,,,,,,,,,,,,,,,,,,,,,,,,,,,,,,
,,,,,,,,2023-08-16_08h08.26.174,HF_wild_card,2022.2.4,Win32,60.02040694,5ed9e3fa856ca9599fa8ea91,64d2fd46c836a06233681665,64dc75d673c899f353f75cf0,,,,,,,decisionTrl,resources/DP.BMP,resources/DB.BMP,WildCard_NonEx,-0.451851824,0.029629601,1,0,0,1.8614,optionLeft,55,4720,2,41,0,41,0,1,,,,,,,,,,,,,,,,,,,,,,,,,,,,,,,,,,,,,,,
,,,,,,,,2023-08-16_08h08.26.174,HF_wild_card,2022.2.4,Win32,60.02040694,5ed9e3fa856ca9599fa8ea91,64d2fd46c836a06233681665,64dc75d673c899f353f75cf0,,,,,,,ctch,resources/DG.BMP,resources/DY.BMP,Door3,-0.216666667,0.032407379,1,0,0,1.5951,optionLeft,70,4790,2,42,0,42,0,1,,,,,,,,,,,,,,,,,,,,,,,,,,,,,,,,,,,,,,,
,,,,,,,,2023-08-16_08h08.26.174,HF_wild_card,2022.2.4,Win32,60.02040694,5ed9e3fa856ca9599fa8ea91,64d2fd46c836a06233681665,64dc75d673c899f353f75cf0,,,,,,,decisionTrl,resources/DP.BMP,resources/DY.BMP,WildCard_NonEx,-0.296296268,0.037962935,1,0,0,1.1616,optionLeft,45,4835,2,43,0,43,0,1,,,,,,,,,,,,,,,,,,,,,,,,,,,,,,,,,,,,,,,
,,,,,,,,2023-08-16_08h08.26.174,HF_wild_card,2022.2.4,Win32,60.02040694,5ed9e3fa856ca9599fa8ea91,64d2fd46c836a06233681665,64dc75d673c899f353f75cf0,,,,,,,,,,,,,,,,,,,,,,,,,,1,0,1,0,1,,,,,,,,,,,,,,,,,,,,,,,,,,,,,,,,,,
,,,,,,,,2023-08-16_08h08.26.174,HF_wild_card,2022.2.4,Win32,60.02040694,5ed9e3fa856ca9599fa8ea91,64d2fd46c836a06233681665,64dc75d673c899f353f75cf0,,,,,,,ctch,resources/DBN.BMP,resources/DB.BMP,Door4,-0.260185157,-0.041666667,1,0,0,2.7194,optionLeft,60,4895,3,0,0,0,0,1,,,,,,,,,,,,,,,,,,,,,,,,,,,,,,,,,,,,,,,
,,,,,,,,2023-08-16_08h08.26.174,HF_wild_card,2022.2.4,Win32,60.02040694,5ed9e3fa856ca9599fa8ea91,64d2fd46c836a06233681665,64dc75d673c899f353f75cf0,,,,,,,decisionTrl,resources/DG.BMP,resources/DP.BMP,WildCard_NonEx,0.220370399,0.010185157,1,0,0,1.2957,optionRight,55,4950,3,1,0,1,0,1,,,,,,,,,,,,,,,,,,,,,,,,,,,,,,,,,,,,,,,
,,,,,,,,2023-08-16_08h08.26.174,HF_wild_card,2022.2.4,Win32,60.02040694,5ed9e3fa856ca9599fa8ea91,64d2fd46c836a06233681665,64dc75d673c899f353f75cf0,,,,,,,sngl,resources/DP.BMP,resources/Empty.png,WildCard_NonEx,-0.313888889,0.006481467,1,0,0,0.9296,optionLeft,55,5005,3,2,0,2,0,1,,,,,,,,,,,,,,,,,,,,,,,,,,,,,,,,,,,,,,,
,,,,,,,,2023-08-16_08h08.26.174,HF_wild_card,2022.2.4,Win32,60.02040694,5ed9e3fa856ca9599fa8ea91,64d2fd46c836a06233681665,64dc75d673c899f353f75cf0,,,,,,,sngl,resources/DBN.BMP,resources/Empty.png,Door4,-0.30370369,0.000925912,1,0,0,0.7739,optionLeft,80,5085,3,3,0,3,0,1,,,,,,,,,,,,,,,,,,,,,,,,,,,,,,,,,,,,,,,
,,,,,,,,2023-08-16_08h08.26.174,HF_wild_card,2022.2.4,Win32,60.02040694,5ed9e3fa856ca9599fa8ea91,64d2fd46c836a06233681665,64dc75d673c899f353f75cf0,,,,,,,decisionTrl,resources/DBN.BMP,resources/DG.BMP,Door4,-0.344444444,-0.002777778,1,0,0,0.746,optionLeft,80,5165,3,4,0,4,0,1,,,,,,,,,,,,,,,,,,,,,,,,,,,,,,,,,,,,,,,
,,,,,,,,2023-08-16_08h08.26.174,HF_wild_card,2022.2.4,Win32,60.02040694,5ed9e3fa856ca9599fa8ea91,64d2fd46c836a06233681665,64dc75d673c899f353f75cf0,,,,,,,decisionTrl,resources/DBN.BMP,resources/DG.BMP,Door4,-0.424074046,0.014814801,1,0,0,0.7127,optionLeft,60,5225,3,5,0,5,0,1,,,,,,,,,,,,,,,,,,,,,,,,,,,,,,,,,,,,,,,
,,,,,,,,2023-08-16_08h08.26.174,HF_wild_card,2022.2.4,Win32,60.02040694,5ed9e3fa856ca9599fa8ea91,64d2fd46c836a06233681665,64dc75d673c899f353f75cf0,,,,,,,decisionTrl,resources/DY.BMP,resources/DP.BMP,WildCard_NonEx,0.338888889,-0.074074088,1,0,0,1.2462,optionRight,45,5270,3,6,0,6,0,1,,,,,,,,,,,,,,,,,,,,,,,,,,,,,,,,,,,,,,,
,,,,,,,,2023-08-16_08h08.26.174,HF_wild_card,2022.2.4,Win32,60.02040694,5ed9e3fa856ca9599fa8ea91,64d2fd46c836a06233681665,64dc75d673c899f353f75cf0,,,,,,,sngl,resources/Empty.png,resources/DP.BMP,WildCard_NonEx,0.378703732,-0.051851866,1,0,0,0.8131,optionRight,45,5315,3,7,0,7,0,1,,,,,,,,,,,,,,,,,,,,,,,,,,,,,,,,,,,,,,,
,,,,,,,,2023-08-16_08h08.26.174,HF_wild_card,2022.2.4,Win32,60.02040694,5ed9e3fa856ca9599fa8ea91,64d2fd46c836a06233681665,64dc75d673c899f353f75cf0,,,,,,,sngl,resources/Empty.png,resources/DY.BMP,Door2,0.292592621,-0.040740755,1,0,0,0.8797,optionRight,20,5335,3,8,0,8,0,1,,,,,,,,,,,,,,,,,,,,,,,,,,,,,,,,,,,,,,,
,,,,,,,,2023-08-16_08h08.26.174,HF_wild_card,2022.2.4,Win32,60.02040694,5ed9e3fa856ca9599fa8ea91,64d2fd46c836a06233681665,64dc75d673c899f353f75cf0,,,,,,,decisionTrl,resources/DB.BMP,resources/DY.BMP,Door1,-0.261111111,0.031481467,1,0,0,1.8717,optionLeft,30,5365,3,9,0,9,0,1,,,,,,,,,,,,,,,,,,,,,,,,,,,,,,,,,,,,,,,
,,,,,,,,2023-08-16_08h08.26.174,HF_wild_card,2022.2.4,Win32,60.02040694,5ed9e3fa856ca9599fa8ea91,64d2fd46c836a06233681665,64dc75d673c899f353f75cf0,,,,,,,sngl,resources/DY.BMP,resources/Empty.png,Door2,-0.262962935,0.024074046,1,0,0,1.0122,optionLeft,40,5405,3,10,0,10,0,1,,,,,,,,,,,,,,,,,,,,,,,,,,,,,,,,,,,,,,,
,,,,,,,,2023-08-16_08h08.26.174,HF_wild_card,2022.2.4,Win32,60.02040694,5ed9e3fa856ca9599fa8ea91,64d2fd46c836a06233681665,64dc75d673c899f353f75cf0,,,,,,,sngl,resources/Empty.png,resources/DG.BMP,Door3,0.398148176,-0.02129631,1,0,0,0.9213,optionRight,70,5475,3,11,0,11,0,1,,,,,,,,,,,,,,,,,,,,,,,,,,,,,,,,,,,,,,,
,,,,,,,,2023-08-16_08h08.26.174,HF_wild_card,2022.2.4,Win32,60.02040694,5ed9e3fa856ca9599fa8ea91,64d2fd46c836a06233681665,64dc75d673c899f353f75cf0,,,,,,,decisionTrl,resources/DP.BMP,resources/DG.BMP,WildCard_NonEx,-0.255555556,0.031481467,1,0,0,1.0788,optionLeft,45,5520,3,12,0,12,0,1,,,,,,,,,,,,,,,,,,,,,,,,,,,,,,,,,,,,,,,
,,,,,,,,2023-08-16_08h08.26.174,HF_wild_card,2022.2.4,Win32,60.02040694,5ed9e3fa856ca9599fa8ea91,64d2fd46c836a06233681665,64dc75d673c899f353f75cf0,,,,,,,decisionTrl,resources/DP.BMP,resources/DB.BMP,WildCard_NonEx,-0.280555556,0.038888889,1,0,0,2.0448,optionLeft,55,5575,3,13,0,13,0,1,,,,,,,,,,,,,,,,,,,,,,,,,,,,,,,,,,,,,,,
,,,,,,,,2023-08-16_08h08.26.174,HF_wild_card,2022.2.4,Win32,60.02040694,5ed9e3fa856ca9599fa8ea91,64d2fd46c836a06233681665,64dc75d673c899f353f75cf0,,,,,,,decisionTrl,resources/DG.BMP,resources/DBN.BMP,Door4,0.275925954,0.037037023,1,0,0,1.529,optionRight,60,5635,3,14,0,14,0,1,,,,,,,,,,,,,,,,,,,,,,,,,,,,,,,,,,,,,,,
,,,,,,,,2023-08-16_08h08.26.174,HF_wild_card,2022.2.4,Win32,60.02040694,5ed9e3fa856ca9599fa8ea91,64d2fd46c836a06233681665,64dc75d673c899f353f75cf0,,,,,,,ctch,resources/DY.BMP,resources/DG.BMP,Door3,0.324074131,0.035185157,1,0,0,1.1462,optionRight,70,5705,3,15,0,15,0,1,,,,,,,,,,,,,,,,,,,,,,,,,,,,,,,,,,,,,,,
,,,,,,,,2023-08-16_08h08.26.174,HF_wild_card,2022.2.4,Win32,60.02040694,5ed9e3fa856ca9599fa8ea91,64d2fd46c836a06233681665,64dc75d673c899f353f75cf0,,,,,,,decisionTrl,resources/DBN.BMP,resources/DP.BMP,Door4,-0.266666667,-0.029629644,1,0,0,0.896,optionLeft,60,5765,3,16,0,16,0,1,,,,,,,,,,,,,,,,,,,,,,,,,,,,,,,,,,,,,,,
,,,,,,,,2023-08-16_08h08.26.174,HF_wild_card,2022.2.4,Win32,60.02040694,5ed9e3fa856ca9599fa8ea91,64d2fd46c836a06233681665,64dc75d673c899f353f75cf0,,,,,,,sngl,resources/Empty.png,resources/DBN.BMP,Door4,0.313888889,-0.014814843,1,0,0,0.8798,optionRight,60,5825,3,17,0,17,0,1,,,,,,,,,,,,,,,,,,,,,,,,,,,,,,,,,,,,,,,
,,,,,,,,2023-08-16_08h08.26.174,HF_wild_card,2022.2.4,Win32,60.02040694,5ed9e3fa856ca9599fa8ea91,64d2fd46c836a06233681665,64dc75d673c899f353f75cf0,,,,,,,decisionTrl,resources/DY.BMP,resources/DB.BMP,Door1,0.317592621,0.00370369,1,0,0,1.3288,optionRight,30,5855,3,18,0,18,0,1,,,,,,,,,,,,,,,,,,,,,,,,,,,,,,,,,,,,,,,
,,,,,,,,2023-08-16_08h08.26.174,HF_wild_card,2022.2.4,Win32,60.02040694,5ed9e3fa856ca9599fa8ea91,64d2fd46c836a06233681665,64dc75d673c899f353f75cf0,,,,,,,ctch,resources/DG.BMP,resources/DY.BMP,Door3,-0.263888889,0.010185157,1,0,0,0.9632,optionLeft,70,5925,3,19,0,19,0,1,,,,,,,,,,,,,,,,,,,,,,,,,,,,,,,,,,,,,,,
,,,,,,,,2023-08-16_08h08.26.174,HF_wild_card,2022.2.4,Win32,60.02040694,5ed9e3fa856ca9599fa8ea91,64d2fd46c836a06233681665,64dc75d673c899f353f75cf0,,,,,,,decisionTrl,resources/DP.BMP,resources/DBN.BMP,Door4,0.424074131,0.081481467,1,0,0,0.8466,optionRight,80,6005,3,20,0,20,0,1,,,,,,,,,,,,,,,,,,,,,,,,,,,,,,,,,,,,,,,
,,,,,,,,2023-08-16_08h08.26.174,HF_wild_card,2022.2.4,Win32,60.02040694,5ed9e3fa856ca9599fa8ea91,64d2fd46c836a06233681665,64dc75d673c899f353f75cf0,,,,,,,decisionTrl,resources/DBN.BMP,resources/DG.BMP,Door4,-0.232407379,-0.029629644,1,0,0,0.7965,optionLeft,80,6085,3,21,0,21,0,1,,,,,,,,,,,,,,,,,,,,,,,,,,,,,,,,,,,,,,,
,,,,,,,,2023-08-16_08h08.26.174,HF_wild_card,2022.2.4,Win32,60.02040694,5ed9e3fa856ca9599fa8ea91,64d2fd46c836a06233681665,64dc75d673c899f353f75cf0,,,,,,,sngl,resources/DP.BMP,resources/Empty.png,WildCard_NonEx,-0.199074046,-0.025,1,0,0,0.7631,optionLeft,45,6130,3,22,0,22,0,1,,,,,,,,,,,,,,,,,,,,,,,,,,,,,,,,,,,,,,,
,,,,,,,,2023-08-16_08h08.26.174,HF_wild_card,2022.2.4,Win32,60.02040694,5ed9e3fa856ca9599fa8ea91,64d2fd46c836a06233681665,64dc75d673c899f353f75cf0,,,,,,,decisionTrl,resources/DG.BMP,resources/DBN.BMP,Door4,0.376851908,0.094444444,1,0,0,0.8578,optionRight,80,6210,3,23,0,23,0,1,,,,,,,,,,,,,,,,,,,,,,,,,,,,,,,,,,,,,,,
,,,,,,,,2023-08-16_08h08.26.174,HF_wild_card,2022.2.4,Win32,60.02040694,5ed9e3fa856ca9599fa8ea91,64d2fd46c836a06233681665,64dc75d673c899f353f75cf0,,,,,,,ctch,resources/DB.BMP,resources/DBN.BMP,Door4,0.278703732,0.087037023,1,0,0,0.8131,optionRight,80,6290,3,24,0,24,0,1,,,,,,,,,,,,,,,,,,,,,,,,,,,,,,,,,,,,,,,
,,,,,,,,2023-08-16_08h08.26.174,HF_wild_card,2022.2.4,Win32,60.02040694,5ed9e3fa856ca9599fa8ea91,64d2fd46c836a06233681665,64dc75d673c899f353f75cf0,,,,,,,decisionTrl,resources/DB.BMP,resources/DY.BMP,Door2,0.38148151,0.083333333,1,0,0,1.5949,optionRight,40,6330,3,25,0,25,0,1,,,,,,,,,,,,,,,,,,,,,,,,,,,,,,,,,,,,,,,
,,,,,,,,2023-08-16_08h08.26.174,HF_wild_card,2022.2.4,Win32,60.02040694,5ed9e3fa856ca9599fa8ea91,64d2fd46c836a06233681665,64dc75d673c899f353f75cf0,,,,,,,decisionTrl,resources/DY.BMP,resources/DB.BMP,Door1,0.312037065,0.099074046,1,0,0,1.2456,optionRight,30,6360,3,26,0,26,0,1,,,,,,,,,,,,,,,,,,,,,,,,,,,,,,,,,,,,,,,
,,,,,,,,2023-08-16_08h08.26.174,HF_wild_card,2022.2.4,Win32,60.02040694,5ed9e3fa856ca9599fa8ea91,64d2fd46c836a06233681665,64dc75d673c899f353f75cf0,,,,,,,decisionTrl,resources/DB.BMP,resources/DY.BMP,Door1,-0.196296268,-0.012037065,1,0,0,1.4631,optionLeft,30,6390,3,27,0,27,0,1,,,,,,,,,,,,,,,,,,,,,,,,,,,,,,,,,,,,,,,
,,,,,,,,2023-08-16_08h08.26.174,HF_wild_card,2022.2.4,Win32,60.02040694,5ed9e3fa856ca9599fa8ea91,64d2fd46c836a06233681665,64dc75d673c899f353f75cf0,,,,,,,ctch,resources/DBN.BMP,resources/DB.BMP,Door4,-0.313888889,-0.052777778,1,0,0,1.2463,optionLeft,60,6450,3,28,0,28,0,1,,,,,,,,,,,,,,,,,,,,,,,,,,,,,,,,,,,,,,,
,,,,,,,,2023-08-16_08h08.26.174,HF_wild_card,2022.2.4,Win32,60.02040694,5ed9e3fa856ca9599fa8ea91,64d2fd46c836a06233681665,64dc75d673c899f353f75cf0,,,,,,,sngl,resources/Empty.png,resources/DB.BMP,Door1,0.241666667,-0.022222222,1,0,0,0.8785,optionRight,30,6480,3,29,0,29,0,1,,,,,,,,,,,,,,,,,,,,,,,,,,,,,,,,,,,,,,,
,,,,,,,,2023-08-16_08h08.26.174,HF_wild_card,2022.2.4,Win32,60.02040694,5ed9e3fa856ca9599fa8ea91,64d2fd46c836a06233681665,64dc75d673c899f353f75cf0,,,,,,,sngl,resources/DG.BMP,resources/Empty.png,Door3,-0.290740712,-0.025925954,1,0,0,0.6967,optionLeft,70,6550,3,30,0,30,0,1,,,,,,,,,,,,,,,,,,,,,,,,,,,,,,,,,,,,,,,
,,,,,,,,2023-08-16_08h08.26.174,HF_wild_card,2022.2.4,Win32,60.02040694,5ed9e3fa856ca9599fa8ea91,64d2fd46c836a06233681665,64dc75d673c899f353f75cf0,,,,,,,decisionTrl,resources/DG.BMP,resources/DBN.BMP,Door4,0.313888889,0.004629601,1,0,0,0.8129,optionRight,80,6630,3,31,0,31,0,1,,,,,,,,,,,,,,,,,,,,,,,,,,,,,,,,,,,,,,,
,,,,,,,,2023-08-16_08h08.26.174,HF_wild_card,2022.2.4,Win32,60.02040694,5ed9e3fa856ca9599fa8ea91,64d2fd46c836a06233681665,64dc75d673c899f353f75cf0,,,,,,,ctch,resources/DY.BMP,resources/DG.BMP,Door3,0.290740797,0.004629601,1,0,0,1.0959,optionRight,70,6700,3,32,0,32,0,1,,,,,,,,,,,,,,,,,,,,,,,,,,,,,,,,,,,,,,,
,,,,,,,,2023-08-16_08h08.26.174,HF_wild_card,2022.2.4,Win32,60.02040694,5ed9e3fa856ca9599fa8ea91,64d2fd46c836a06233681665,64dc75d673c899f353f75cf0,,,,,,,decisionTrl,resources/DY.BMP,resources/DB.BMP,Door1,0.28148151,0,1,0,0,1.1129,optionRight,30,6730,3,33,0,33,0,1,,,,,,,,,,,,,,,,,,,,,,,,,,,,,,,,,,,,,,,
,,,,,,,,2023-08-16_08h08.26.174,HF_wild_card,2022.2.4,Win32,60.02040694,5ed9e3fa856ca9599fa8ea91,64d2fd46c836a06233681665,64dc75d673c899f353f75cf0,,,,,,,decisionTrl,resources/DY.BMP,resources/DB.BMP,Door1,0.279629686,0.00370369,1,0,0,1.0121,optionRight,30,6760,3,34,0,34,0,1,,,,,,,,,,,,,,,,,,,,,,,,,,,,,,,,,,,,,,,
,,,,,,,,2023-08-16_08h08.26.174,HF_wild_card,2022.2.4,Win32,60.02040694,5ed9e3fa856ca9599fa8ea91,64d2fd46c836a06233681665,64dc75d673c899f353f75cf0,,,,,,,decisionTrl,resources/DB.BMP,resources/DP.BMP,Door1,-0.273148134,-0.033333333,1,0,0,0.9563,optionLeft,30,6790,3,35,0,35,0,1,,,,,,,,,,,,,,,,,,,,,,,,,,,,,,,,,,,,,,,
,,,,,,,,2023-08-16_08h08.26.174,HF_wild_card,2022.2.4,Win32,60.02040694,5ed9e3fa856ca9599fa8ea91,64d2fd46c836a06233681665,64dc75d673c899f353f75cf0,,,,,,,ctch,resources/DB.BMP,resources/DBN.BMP,Door4,0.328703732,0.019444444,1,0,0,0.7801,optionRight,80,6870,3,36,0,36,0,1,,,,,,,,,,,,,,,,,,,,,,,,,,,,,,,,,,,,,,,
,,,,,,,,2023-08-16_08h08.26.174,HF_wild_card,2022.2.4,Win32,60.02040694,5ed9e3fa856ca9599fa8ea91,64d2fd46c836a06233681665,64dc75d673c899f353f75cf0,,,,,,,decisionTrl,resources/DG.BMP,resources/DBN.BMP,Door4,0.290740797,0.025925912,1,0,0,0.7903,optionRight,60,6930,3,37,0,37,0,1,,,,,,,,,,,,,,,,,,,,,,,,,,,,,,,,,,,,,,,
,,,,,,,,2023-08-16_08h08.26.174,HF_wild_card,2022.2.4,Win32,60.02040694,5ed9e3fa856ca9599fa8ea91,64d2fd46c836a06233681665,64dc75d673c899f353f75cf0,,,,,,,sngl,resources/Empty.png,resources/DP.BMP,WildCard_NonEx,0.312037065,0.015740712,1,0,0,0.7972,optionRight,55,6985,3,38,0,38,0,1,,,,,,,,,,,,,,,,,,,,,,,,,,,,,,,,,,,,,,,
,,,,,,,,2023-08-16_08h08.26.174,HF_wild_card,2022.2.4,Win32,60.02040694,5ed9e3fa856ca9599fa8ea91,64d2fd46c836a06233681665,64dc75d673c899f353f75cf0,,,,,,,decisionTrl,resources/DB.BMP,resources/DY.BMP,Door1,-0.262037023,-0.037037065,1,0,0,1.0459,optionLeft,30,7015,3,39,0,39,0,1,,,,,,,,,,,,,,,,,,,,,,,,,,,,,,,,,,,,,,,
,,,,,,,,2023-08-16_08h08.26.174,HF_wild_card,2022.2.4,Win32,60.02040694,5ed9e3fa856ca9599fa8ea91,64d2fd46c836a06233681665,64dc75d673c899f353f75cf0,,,,,,,decisionTrl,resources/DP.BMP,resources/DY.BMP,Door2,0.301851908,-0.039814843,1,0,0,0.8627,optionRight,40,7055,3,40,0,40,0,1,,,,,,,,,,,,,,,,,,,,,,,,,,,,,,,,,,,,,,,
,,,,,,,,2023-08-16_08h08.26.174,HF_wild_card,2022.2.4,Win32,60.02040694,5ed9e3fa856ca9599fa8ea91,64d2fd46c836a06233681665,64dc75d673c899f353f75cf0,,,,,,,decisionTrl,resources/DBN.BMP,resources/DG.BMP,Door4,-0.280555556,-0.027777778,1,0,0,0.9123,optionLeft,80,7135,3,41,0,41,0,1,,,,,,,,,,,,,,,,,,,,,,,,,,,,,,,,,,,,,,,
,,,,,,,,2023-08-16_08h08.26.174,HF_wild_card,2022.2.4,Win32,60.02040694,5ed9e3fa856ca9599fa8ea91,64d2fd46c836a06233681665,64dc75d673c899f353f75cf0,,,,,,,ctch,resources/DG.BMP,resources/DY.BMP,Door2,0.325,0.015740712,1,0,0,1.0963,optionRight,20,7155,3,42,0,42,0,1,,,,,,,,,,,,,,,,,,,,,,,,,,,,,,,,,,,,,,,
,,,,,,,,2023-08-16_08h08.26.174,HF_wild_card,2022.2.4,Win32,60.02040694,5ed9e3fa856ca9599fa8ea91,64d2fd46c836a06233681665,64dc75d673c899f353f75cf0,,,,,,,sngl,resources/DB.BMP,resources/Empty.png,Door1,-0.275,0.013888889,1,0,0,1.2458,optionLeft,30,7185,3,43,0,43,0,1,,,,,,,,,,,,,,,,,,,,,,,,,,,,,,,,,,,,,,,
,,,,,,,,2023-08-16_08h08.26.174,HF_wild_card,2022.2.4,Win32,60.02040694,5ed9e3fa856ca9599fa8ea91,64d2fd46c836a06233681665,64dc75d673c899f353f75cf0,,,,,,,,,,,,,,,,,,,,,,,,,,2,0,2,0,1,,,,,,,,,,,,,,,,,,,,,,,,,,,,,,,,,,
,,,,,,,,2023-08-16_08h08.26.174,HF_wild_card,2022.2.4,Win32,60.02040694,5ed9e3fa856ca9599fa8ea91,64d2fd46c836a06233681665,64dc75d673c899f353f75cf0,,,,,,,sngl,resources/Empty.png,resources/DB.BMP,Door1,0.396296353,-0.068518533,1,0,0,3.5382,optionRight,30,7215,4,0,0,0,0,1,,,,,,,,,,,,,,,,,,,,,,,,,,,,,,,,,,,,,,,
,,,,,,,,2023-08-16_08h08.26.174,HF_wild_card,2022.2.4,Win32,60.02040694,5ed9e3fa856ca9599fa8ea91,64d2fd46c836a06233681665,64dc75d673c899f353f75cf0,,,,,,,decisionTrl,resources/DY.BMP,resources/DB.BMP,Door2,-0.31851849,0.021296268,1,0,0,0.8798,optionLeft,20,7235,4,1,0,1,0,1,,,,,,,,,,,,,,,,,,,,,,,,,,,,,,,,,,,,,,,
,,,,,,,,2023-08-16_08h08.26.174,HF_wild_card,2022.2.4,Win32,60.02040694,5ed9e3fa856ca9599fa8ea91,64d2fd46c836a06233681665,64dc75d673c899f353f75cf0,,,,,,,decisionTrl,resources/DBN.BMP,resources/DR.BMP,WildCard_Ex,0.445370399,-0.12129631,1,0,0,1.6953,optionRight,55,7290,4,2,0,2,0,1,,,,,,,,,,,,,,,,,,,,,,,,,,,,,,,,,,,,,,,
,,,,,,,,2023-08-16_08h08.26.174,HF_wild_card,2022.2.4,Win32,60.02040694,5ed9e3fa856ca9599fa8ea91,64d2fd46c836a06233681665,64dc75d673c899f353f75cf0,,,,,,,decisionTrl,resources/DBN.BMP,resources/DG.BMP,Door4,-0.284259245,0.016666667,1,0,0,0.7631,optionLeft,80,7370,4,3,0,3,0,1,,,,,,,,,,,,,,,,,,,,,,,,,,,,,,,,,,,,,,,
,,,,,,,,2023-08-16_08h08.26.174,HF_wild_card,2022.2.4,Win32,60.02040694,5ed9e3fa856ca9599fa8ea91,64d2fd46c836a06233681665,64dc75d673c899f353f75cf0,,,,,,,decisionTrl,resources/DG.BMP,resources/DBN.BMP,Door4,0.299074131,0.059259245,1,0,0,1.0073,optionRight,60,7430,4,4,0,4,0,1,,,,,,,,,,,,,,,,,,,,,,,,,,,,,,,,,,,,,,,
,,,,,,,,2023-08-16_08h08.26.174,HF_wild_card,2022.2.4,Win32,60.02040694,5ed9e3fa856ca9599fa8ea91,64d2fd46c836a06233681665,64dc75d673c899f353f75cf0,,,,,,,decisionTrl,resources/DR.BMP,resources/DBN.BMP,Door4,0.359259288,0.014814801,1,0,0,0.7797,optionRight,60,7490,4,5,0,5,0,1,,,,,,,,,,,,,,,,,,,,,,,,,,,,,,,,,,,,,,,
,,,,,,,,2023-08-16_08h08.26.174,HF_wild_card,2022.2.4,Win32,60.02040694,5ed9e3fa856ca9599fa8ea91,64d2fd46c836a06233681665,64dc75d673c899f353f75cf0,,,,,,,decisionTrl,resources/DBN.BMP,resources/DG.BMP,Door4,-0.333333333,0.025925912,1,0,0,0.913,optionLeft,80,7570,4,6,0,6,0,1,,,,,,,,,,,,,,,,,,,,,,,,,,,,,,,,,,,,,,,
,,,,,,,,2023-08-16_08h08.26.174,HF_wild_card,2022.2.4,Win32,60.02040694,5ed9e3fa856ca9599fa8ea91,64d2fd46c836a06233681665,64dc75d673c899f353f75cf0,,,,,,,sngl,resources/Empty.png,resources/DY.BMP,Door2,0.397222222,0.039814801,1,0,0,0.8127,optionRight,40,7610,4,7,0,7,0,1,,,,,,,,,,,,,,,,,,,,,,,,,,,,,,,,,,,,,,,
,,,,,,,,2023-08-16_08h08.26.174,HF_wild_card,2022.2.4,Win32,60.02040694,5ed9e3fa856ca9599fa8ea91,64d2fd46c836a06233681665,64dc75d673c899f353f75cf0,,,,,,,ctch,resources/DBN.BMP,resources/DB.BMP,Door4,-0.300925912,0.012037023,1,0,0,0.7968,optionLeft,60,7670,4,8,0,8,0,1,,,,,,,,,,,,,,,,,,,,,,,,,,,,,,,,,,,,,,,
,,,,,,,,2023-08-16_08h08.26.174,HF_wild_card,2022.2.4,Win32,60.02040694,5ed9e3fa856ca9599fa8ea91,64d2fd46c836a06233681665,64dc75d673c899f353f75cf0,,,,,,,sngl,resources/Empty.png,resources/DR.BMP,WildCard_Ex,0.378703732,-0.001851866,1,0,0,0.8467,optionRight,55,7725,4,9,0,9,0,1,,,,,,,,,,,,,,,,,,,,,,,,,,,,,,,,,,,,,,,
,,,,,,,,2023-08-16_08h08.26.174,HF_wild_card,2022.2.4,Win32,60.02040694,5ed9e3fa856ca9599fa8ea91,64d2fd46c836a06233681665,64dc75d673c899f353f75cf0,,,,,,,decisionTrl,resources/DB.BMP,resources/DR.BMP,WildCard_Ex,0.370370399,0.024074046,1,0,0,1.1628,optionRight,45,7770,4,10,0,10,0,1,,,,,,,,,,,,,,,,,,,,,,,,,,,,,,,,,,,,,,,
,,,,,,,,2023-08-16_08h08.26.174,HF_wild_card,2022.2.4,Win32,60.02040694,5ed9e3fa856ca9599fa8ea91,64d2fd46c836a06233681665,64dc75d673c899f353f75cf0,,,,,,,decisionTrl,resources/DBN.BMP,resources/DG.BMP,Door4,-0.357407379,0.039814801,1,0,0,1.3129,optionLeft,80,7850,4,11,0,11,0,1,,,,,,,,,,,,,,,,,,,,,,,,,,,,,,,,,,,,,,,
,,,,,,,,2023-08-16_08h08.26.174,HF_wild_card,2022.2.4,Win32,60.02040694,5ed9e3fa856ca9599fa8ea91,64d2fd46c836a06233681665,64dc75d673c899f353f75cf0,,,,,,,ctch,resources/DY.BMP,resources/DG.BMP,Door3,0.312963019,-0.029629644,1,0,0,1.0954,optionRight,70,7920,4,12,0,12,0,1,,,,,,,,,,,,,,,,,,,,,,,,,,,,,,,,,,,,,,,
,,,,,,,,2023-08-16_08h08.26.174,HF_wild_card,2022.2.4,Win32,60.02040694,5ed9e3fa856ca9599fa8ea91,64d2fd46c836a06233681665,64dc75d673c899f353f75cf0,,,,,,,decisionTrl,resources/DR.BMP,resources/DB.BMP,WildCard_Ex,-0.271296268,0.010185157,1,0,0,0.9797,optionLeft,55,7975,4,13,0,13,0,1,,,,,,,,,,,,,,,,,,,,,,,,,,,,,,,,,,,,,,,
,,,,,,,,2023-08-16_08h08.26.174,HF_wild_card,2022.2.4,Win32,60.02040694,5ed9e3fa856ca9599fa8ea91,64d2fd46c836a06233681665,64dc75d673c899f353f75cf0,,,,,,,sngl,resources/DR.BMP,resources/Empty.png,WildCard_Ex,-0.22870369,0.026851824,1,0,0,1.0629,optionLeft,55,8030,4,14,0,14,0,1,,,,,,,,,,,,,,,,,,,,,,,,,,,,,,,,,,,,,,,
,,,,,,,,2023-08-16_08h08.26.174,HF_wild_card,2022.2.4,Win32,60.02040694,5ed9e3fa856ca9599fa8ea91,64d2fd46c836a06233681665,64dc75d673c899f353f75cf0,,,,,,,decisionTrl,resources/DB.BMP,resources/DY.BMP,Door1,-0.374074046,0.026851824,1,0,0,1.0304,optionLeft,30,8060,4,15,0,15,0,1,,,,,,,,,,,,,,,,,,,,,,,,,,,,,,,,,,,,,,,
,,,,,,,,2023-08-16_08h08.26.174,HF_wild_card,2022.2.4,Win32,60.02040694,5ed9e3fa856ca9599fa8ea91,64d2fd46c836a06233681665,64dc75d673c899f353f75cf0,,,,,,,sngl,resources/DB.BMP,resources/Empty.png,Door1,-0.302777778,0.012037023,1,0,0,1.3959,optionLeft,30,8090,4,16,0,16,0,1,,,,,,,,,,,,,,,,,,,,,,,,,,,,,,,,,,,,,,,
,,,,,,,,2023-08-16_08h08.26.174,HF_wild_card,2022.2.4,Win32,60.02040694,5ed9e3fa856ca9599fa8ea91,64d2fd46c836a06233681665,64dc75d673c899f353f75cf0,,,,,,,sngl,resources/Empty.png,resources/DBN.BMP,Door4,0.293518575,0.052777778,1,0,0,1.3459,optionRight,80,8170,4,17,0,17,0,1,,,,,,,,,,,,,,,,,,,,,,,,,,,,,,,,,,,,,,,
,,,,,,,,2023-08-16_08h08.26.174,HF_wild_card,2022.2.4,Win32,60.02040694,5ed9e3fa856ca9599fa8ea91,64d2fd46c836a06233681665,64dc75d673c899f353f75cf0,,,,,,,decisionTrl,resources/DB.BMP,resources/DY.BMP,Door2,0.343518575,-0.007407422,1,0,0,0.8792,optionRight,40,8210,4,18,0,18,0,1,,,,,,,,,,,,,,,,,,,,,,,,,,,,,,,,,,,,,,,
,,,,,,,,2023-08-16_08h08.26.174,HF_wild_card,2022.2.4,Win32,60.02040694,5ed9e3fa856ca9599fa8ea91,64d2fd46c836a06233681665,64dc75d673c899f353f75cf0,,,,,,,decisionTrl,resources/DG.BMP,resources/DBN.BMP,Door4,0.441666667,0.009259245,1,0,0,0.7132,optionRight,60,8270,4,19,0,19,0,1,,,,,,,,,,,,,,,,,,,,,,,,,,,,,,,,,,,,,,,
,,,,,,,,2023-08-16_08h08.26.174,HF_wild_card,2022.2.4,Win32,60.02040694,5ed9e3fa856ca9599fa8ea91,64d2fd46c836a06233681665,64dc75d673c899f353f75cf0,,,,,,,sngl,resources/Empty.png,resources/DG.BMP,Door3,0.372222222,0.048148134,1,0,0,0.813,optionRight,70,8340,4,20,0,20,0,1,,,,,,,,,,,,,,,,,,,,,,,,,,,,,,,,,,,,,,,
,,,,,,,,2023-08-16_08h08.26.174,HF_wild_card,2022.2.4,Win32,60.02040694,5ed9e3fa856ca9599fa8ea91,64d2fd46c836a06233681665,64dc75d673c899f353f75cf0,,,,,,,sngl,resources/DR.BMP,resources/Empty.png,WildCard_Ex,-0.262037023,0.021296268,1,0,0,1.1912,optionLeft,45,8385,4,21,0,21,0,1,,,,,,,,,,,,,,,,,,,,,,,,,,,,,,,,,,,,,,,
,,,,,,,,2023-08-16_08h08.26.174,HF_wild_card,2022.2.4,Win32,60.02040694,5ed9e3fa856ca9599fa8ea91,64d2fd46c836a06233681665,64dc75d673c899f353f75cf0,,,,,,,decisionTrl,resources/DB.BMP,resources/DY.BMP,Door2,0.300925954,-0.007407422,1,0,0,0.7469,optionRight,40,8425,4,22,0,22,0,1,,,,,,,,,,,,,,,,,,,,,,,,,,,,,,,,,,,,,,,
,,,,,,,,2023-08-16_08h08.26.174,HF_wild_card,2022.2.4,Win32,60.02040694,5ed9e3fa856ca9599fa8ea91,64d2fd46c836a06233681665,64dc75d673c899f353f75cf0,,,,,,,decisionTrl,resources/DBN.BMP,resources/DG.BMP,Door4,-0.261111111,-0.018518533,1,0,0,0.8244,optionLeft,80,8505,4,23,0,23,0,1,,,,,,,,,,,,,,,,,,,,,,,,,,,,,,,,,,,,,,,
,,,,,,,,2023-08-16_08h08.26.174,HF_wild_card,2022.2.4,Win32,60.02040694,5ed9e3fa856ca9599fa8ea91,64d2fd46c836a06233681665,64dc75d673c899f353f75cf0,,,,,,,ctch,resources/DG.BMP,resources/DY.BMP,Door2,0.33148151,0.02870369,1,0,0,0.8293,optionRight,40,8545,4,24,0,24,0,1,,,,,,,,,,,,,,,,,,,,,,,,,,,,,,,,,,,,,,,
,,,,,,,,2023-08-16_08h08.26.174,HF_wild_card,2022.2.4,Win32,60.02040694,5ed9e3fa856ca9599fa8ea91,64d2fd46c836a06233681665,64dc75d673c899f353f75cf0,,,,,,,ctch,resources/DBN.BMP,resources/DB.BMP,Door4,-0.245370356,-0.005555556,1,0,0,0.8964,optionLeft,80,8625,4,25,0,25,0,1,,,,,,,,,,,,,,,,,,,,,,,,,,,,,,,,,,,,,,,
,,,,,,,,2023-08-16_08h08.26.174,HF_wild_card,2022.2.4,Win32,60.02040694,5ed9e3fa856ca9599fa8ea91,64d2fd46c836a06233681665,64dc75d673c899f353f75cf0,,,,,,,ctch,resources/DY.BMP,resources/DG.BMP,Door3,0.409259288,-0.001851866,1,0,0,0.8296,optionRight,70,8695,4,26,0,26,0,1,,,,,,,,,,,,,,,,,,,,,,,,,,,,,,,,,,,,,,,
,,,,,,,,2023-08-16_08h08.26.174,HF_wild_card,2022.2.4,Win32,60.02040694,5ed9e3fa856ca9599fa8ea91,64d2fd46c836a06233681665,64dc75d673c899f353f75cf0,,,,,,,decisionTrl,resources/DY.BMP,resources/DR.BMP,Door2,-0.315740712,0.002777778,1,0,0,1.0416,optionLeft,20,8715,4,27,0,27,0,1,,,,,,,,,,,,,,,,,,,,,,,,,,,,,,,,,,,,,,,
,,,,,,,,2023-08-16_08h08.26.174,HF_wild_card,2022.2.4,Win32,60.02040694,5ed9e3fa856ca9599fa8ea91,64d2fd46c836a06233681665,64dc75d673c899f353f75cf0,,,,,,,decisionTrl,resources/DG.BMP,resources/DBN.BMP,Door4,0.290740797,0.042592578,1,0,0,0.9138,optionRight,80,8795,4,28,0,28,0,1,,,,,,,,,,,,,,,,,,,,,,,,,,,,,,,,,,,,,,,
,,,,,,,,2023-08-16_08h08.26.174,HF_wild_card,2022.2.4,Win32,60.02040694,5ed9e3fa856ca9599fa8ea91,64d2fd46c836a06233681665,64dc75d673c899f353f75cf0,,,,,,,decisionTrl,resources/DG.BMP,resources/DR.BMP,WildCard_Ex,0.295370399,0.047222222,1,0,0,1.3243,optionRight,55,8850,4,29,0,29,0,1,,,,,,,,,,,,,,,,,,,,,,,,,,,,,,,,,,,,,,,
,,,,,,,,2023-08-16_08h08.26.174,HF_wild_card,2022.2.4,Win32,60.02040694,5ed9e3fa856ca9599fa8ea91,64d2fd46c836a06233681665,64dc75d673c899f353f75cf0,,,,,,,decisionTrl,resources/DY.BMP,resources/DB.BMP,Door1,0.350925954,0.049074046,1,0,0,0.9963,optionRight,30,8880,4,30,0,30,0,1,,,,,,,,,,,,,,,,,,,,,,,,,,,,,,,,,,,,,,,
,,,,,,,,2023-08-16_08h08.26.174,HF_wild_card,2022.2.4,Win32,60.02040694,5ed9e3fa856ca9599fa8ea91,64d2fd46c836a06233681665,64dc75d673c899f353f75cf0,,,,,,,decisionTrl,resources/DR.BMP,resources/DG.BMP,Door3,0.199074131,0.039814801,1,0,0,1.0626,optionRight,70,8950,4,31,0,31,0,1,,,,,,,,,,,,,,,,,,,,,,,,,,,,,,,,,,,,,,,
,,,,,,,,2023-08-16_08h08.26.174,HF_wild_card,2022.2.4,Win32,60.02040694,5ed9e3fa856ca9599fa8ea91,64d2fd46c836a06233681665,64dc75d673c899f353f75cf0,,,,,,,sngl,resources/Empty.png,resources/DR.BMP,WildCard_Ex,0.333333333,0.066666667,1,0,0,0.7963,optionRight,45,8995,4,32,0,32,0,1,,,,,,,,,,,,,,,,,,,,,,,,,,,,,,,,,,,,,,,
,,,,,,,,2023-08-16_08h08.26.174,HF_wild_card,2022.2.4,Win32,60.02040694,5ed9e3fa856ca9599fa8ea91,64d2fd46c836a06233681665,64dc75d673c899f353f75cf0,,,,,,,sngl,resources/DBN.BMP,resources/Empty.png,Door4,-0.162036981,-0.033333333,1,0,0,0.9789,optionLeft,60,9055,4,33,0,33,0,1,,,,,,,,,,,,,,,,,,,,,,,,,,,,,,,,,,,,,,,
,,,,,,,,2023-08-16_08h08.26.174,HF_wild_card,2022.2.4,Win32,60.02040694,5ed9e3fa856ca9599fa8ea91,64d2fd46c836a06233681665,64dc75d673c899f353f75cf0,,,,,,,decisionTrl,resources/DY.BMP,resources/DB.BMP,Door2,-0.271296268,-0.002777778,1,0,0,1.3905,optionLeft,20,9075,4,34,0,34,0,1,,,,,,,,,,,,,,,,,,,,,,,,,,,,,,,,,,,,,,,
,,,,,,,,2023-08-16_08h08.26.174,HF_wild_card,2022.2.4,Win32,60.02040694,5ed9e3fa856ca9599fa8ea91,64d2fd46c836a06233681665,64dc75d673c899f353f75cf0,,,,,,,decisionTrl,resources/DG.BMP,resources/DBN.BMP,Door4,0.371296353,0.007407379,1,0,0,0.9137,optionRight,80,9155,4,35,0,35,0,1,,,,,,,,,,,,,,,,,,,,,,,,,,,,,,,,,,,,,,,
,,,,,,,,2023-08-16_08h08.26.174,HF_wild_card,2022.2.4,Win32,60.02040694,5ed9e3fa856ca9599fa8ea91,64d2fd46c836a06233681665,64dc75d673c899f353f75cf0,,,,,,,decisionTrl,resources/DB.BMP,resources/DY.BMP,Door2,0.239814843,-0.000925954,1,0,0,1.6621,optionRight,40,9195,4,36,0,36,0,1,,,,,,,,,,,,,,,,,,,,,,,,,,,,,,,,,,,,,,,
,,,,,,,,2023-08-16_08h08.26.174,HF_wild_card,2022.2.4,Win32,60.02040694,5ed9e3fa856ca9599fa8ea91,64d2fd46c836a06233681665,64dc75d673c899f353f75cf0,,,,,,,sngl,resources/DG.BMP,resources/Empty.png,Door3,-0.313888889,-0.02129631,1,0,0,1.1795,optionLeft,70,9265,4,37,0,37,0,1,,,,,,,,,,,,,,,,,,,,,,,,,,,,,,,,,,,,,,,
,,,,,,,,2023-08-16_08h08.26.174,HF_wild_card,2022.2.4,Win32,60.02040694,5ed9e3fa856ca9599fa8ea91,64d2fd46c836a06233681665,64dc75d673c899f353f75cf0,,,,,,,sngl,resources/DY.BMP,resources/Empty.png,Door2,-0.313888889,-0.029629644,1,0,0,1.5124,optionLeft,20,9285,4,38,0,38,0,1,,,,,,,,,,,,,,,,,,,,,,,,,,,,,,,,,,,,,,,
,,,,,,,,2023-08-16_08h08.26.174,HF_wild_card,2022.2.4,Win32,60.02040694,5ed9e3fa856ca9599fa8ea91,64d2fd46c836a06233681665,64dc75d673c899f353f75cf0,,,,,,,ctch,resources/DB.BMP,resources/DBN.BMP,Door4,0.341666667,0.059259245,1,0,0,1.3287,optionRight,60,9345,4,39,0,39,0,1,,,,,,,,,,,,,,,,,,,,,,,,,,,,,,,,,,,,,,,
,,,,,,,,2023-08-16_08h08.26.174,HF_wild_card,2022.2.4,Win32,60.02040694,5ed9e3fa856ca9599fa8ea91,64d2fd46c836a06233681665,64dc75d673c899f353f75cf0,,,,,,,decisionTrl,resources/DR.BMP,resources/DY.BMP,WildCard_Ex,-0.31851849,0.039814801,1,0,0,1.7462,optionLeft,55,9400,4,40,0,40,0,1,,,,,,,,,,,,,,,,,,,,,,,,,,,,,,,,,,,,,,,
,,,,,,,,2023-08-16_08h08.26.174,HF_wild_card,2022.2.4,Win32,60.02040694,5ed9e3fa856ca9599fa8ea91,64d2fd46c836a06233681665,64dc75d673c899f353f75cf0,,,,,,,ctch,resources/DG.BMP,resources/DY.BMP,Door2,0.322222222,0.020370356,1,0,0,1.1797,optionRight,20,9420,4,41,0,41,0,1,,,,,,,,,,,,,,,,,,,,,,,,,,,,,,,,,,,,,,,
,,,,,,,,2023-08-16_08h08.26.174,HF_wild_card,2022.2.4,Win32,60.02040694,5ed9e3fa856ca9599fa8ea91,64d2fd46c836a06233681665,64dc75d673c899f353f75cf0,,,,,,,ctch,resources/DB.BMP,resources/DBN.BMP,Door4,0.250925954,0.100925912,1,0,0,0.997,optionRight,80,9500,4,42,0,42,0,1,,,,,,,,,,,,,,,,,,,,,,,,,,,,,,,,,,,,,,,
,,,,,,,,2023-08-16_08h08.26.174,HF_wild_card,2022.2.4,Win32,60.02040694,5ed9e3fa856ca9599fa8ea91,64d2fd46c836a06233681665,64dc75d673c899f353f75cf0,,,,,,,decisionTrl,resources/DY.BMP,resources/DB.BMP,Door1,0.268518575,0.038888889,1,0,0,1.0413,optionRight,30,9530,4,43,0,43,0,1,,,,,,,,,,,,,,,,,,,,,,,,,,,,,,,,,,,,,,,
,,,,,,,,2023-08-16_08h08.26.174,HF_wild_card,2022.2.4,Win32,60.02040694,5ed9e3fa856ca9599fa8ea91,64d2fd46c836a06233681665,64dc75d673c899f353f75cf0,,,,,,,,,,,,,,,,,,,,,,,,,,3,0,3,0,1,,,,,,,,,,,,,,,,,,,,,,,,,,,,,,,,,,
,,,,,,,,2023-08-16_08h08.26.174,HF_wild_card,2022.2.4,Win32,60.02040694,5ed9e3fa856ca9599fa8ea91,64d2fd46c836a06233681665,64dc75d673c899f353f75cf0,,,,,,,sngl,resources/DBN.BMP,resources/Empty.png,Door4,-0.323148134,-0.098148176,1,0,0,0.9404,optionLeft,80,9610,5,0,0,0,0,1,,,,,,,,,,,,,,,,,,,,,,,,,,,,,,,,,,,,,,,
,,,,,,,,2023-08-16_08h08.26.174,HF_wild_card,2022.2.4,Win32,60.02040694,5ed9e3fa856ca9599fa8ea91,64d2fd46c836a06233681665,64dc75d673c899f353f75cf0,,,,,,,decisionTrl,resources/DY.BMP,resources/DB.BMP,Door1,0.373148176,-0.064814843,1,0,0,0.7626,optionRight,30,9640,5,1,0,1,0,1,,,,,,,,,,,,,,,,,,,,,,,,,,,,,,,,,,,,,,,
,,,,,,,,2023-08-16_08h08.26.174,HF_wild_card,2022.2.4,Win32,60.02040694,5ed9e3fa856ca9599fa8ea91,64d2fd46c836a06233681665,64dc75d673c899f353f75cf0,,,,,,,decisionTrl,resources/DG.BMP,resources/DBN.BMP,Door4,0.420370399,0.019444444,1,0,0,0.83,optionRight,60,9700,5,2,0,2,0,1,,,,,,,,,,,,,,,,,,,,,,,,,,,,,,,,,,,,,,,
,,,,,,,,2023-08-16_08h08.26.174,HF_wild_card,2022.2.4,Win32,60.02040694,5ed9e3fa856ca9599fa8ea91,64d2fd46c836a06233681665,64dc75d673c899f353f75cf0,,,,,,,sngl,resources/Empty.png,resources/DG.BMP,Door3,0.300925954,0.047222222,1,0,0,0.7628,optionRight,70,9770,5,3,0,3,0,1,,,,,,,,,,,,,,,,,,,,,,,,,,,,,,,,,,,,,,,
,,,,,,,,2023-08-16_08h08.26.174,HF_wild_card,2022.2.4,Win32,60.02040694,5ed9e3fa856ca9599fa8ea91,64d2fd46c836a06233681665,64dc75d673c899f353f75cf0,,,,,,,decisionTrl,resources/DB.BMP,resources/DY.BMP,Door1,-0.27870369,-0.030555556,1,0,0,0.9291,optionLeft,30,9800,5,4,0,4,0,1,,,,,,,,,,,,,,,,,,,,,,,,,,,,,,,,,,,,,,,
,,,,,,,,2023-08-16_08h08.26.174,HF_wild_card,2022.2.4,Win32,60.02040694,5ed9e3fa856ca9599fa8ea91,64d2fd46c836a06233681665,64dc75d673c899f353f75cf0,,,,,,,ctch,resources/DBN.BMP,resources/DB.BMP,Door4,-0.273148134,-0.048148176,1,0,0,0.8966,optionLeft,80,9880,5,5,0,5,0,1,,,,,,,,,,,,,,,,,,,,,,,,,,,,,,,,,,,,,,,
,,,,,,,,2023-08-16_08h08.26.174,HF_wild_card,2022.2.4,Win32,60.02040694,5ed9e3fa856ca9599fa8ea91,64d2fd46c836a06233681665,64dc75d673c899f353f75cf0,,,,,,,sngl,resources/Empty.png,resources/DR.BMP,WildCard_Ex,0.271296353,0.030555556,1,0,0,0.763,optionRight,55,9935,5,6,0,6,0,1,,,,,,,,,,,,,,,,,,,,,,,,,,,,,,,,,,,,,,,
,,,,,,,,2023-08-16_08h08.26.174,HF_wild_card,2022.2.4,Win32,60.02040694,5ed9e3fa856ca9599fa8ea91,64d2fd46c836a06233681665,64dc75d673c899f353f75cf0,,,,,,,ctch,resources/DY.BMP,resources/DG.BMP,Door2,-0.27870369,-0.055555556,1,0,0,0.7632,optionLeft,20,9955,5,7,0,7,0,1,,,,,,,,,,,,,,,,,,,,,,,,,,,,,,,,,,,,,,,
,,,,,,,,2023-08-16_08h08.26.174,HF_wild_card,2022.2.4,Win32,60.02040694,5ed9e3fa856ca9599fa8ea91,64d2fd46c836a06233681665,64dc75d673c899f353f75cf0,,,,,,,sngl,resources/DB.BMP,resources/Empty.png,Door1,-0.337962935,-0.014814843,1,0,0,0.7965,optionLeft,30,9985,5,8,0,8,0,1,,,,,,,,,,,,,,,,,,,,,,,,,,,,,,,,,,,,,,,
,,,,,,,,2023-08-16_08h08.26.174,HF_wild_card,2022.2.4,Win32,60.02040694,5ed9e3fa856ca9599fa8ea91,64d2fd46c836a06233681665,64dc75d673c899f353f75cf0,,,,,,,decisionTrl,resources/DY.BMP,resources/DB.BMP,Door2,-0.371296268,0.059259245,1,0,0,0.7913,optionLeft,40,10025,5,9,0,9,0,1,,,,,,,,,,,,,,,,,,,,,,,,,,,,,,,,,,,,,,,
,,,,,,,,2023-08-16_08h08.26.174,HF_wild_card,2022.2.4,Win32,60.02040694,5ed9e3fa856ca9599fa8ea91,64d2fd46c836a06233681665,64dc75d673c899f353f75cf0,,,,,,,sngl,resources/Empty.png,resources/DR.BMP,WildCard_Ex,0.207407464,-0.015740755,1,0,0,0.8634,optionRight,45,10070,5,10,0,10,0,1,,,,,,,,,,,,,,,,,,,,,,,,,,,,,,,,,,,,,,,
,,,,,,,,2023-08-16_08h08.26.174,HF_wild_card,2022.2.4,Win32,60.02040694,5ed9e3fa856ca9599fa8ea91,64d2fd46c836a06233681665,64dc75d673c899f353f75cf0,,,,,,,ctch,resources/DB.BMP,resources/DBN.BMP,Door4,0.33148151,-0.012962977,1,0,0,0.8639,optionRight,80,10150,5,11,0,11,0,1,,,,,,,,,,,,,,,,,,,,,,,,,,,,,,,,,,,,,,,
,,,,,,,,2023-08-16_08h08.26.174,HF_wild_card,2022.2.4,Win32,60.02040694,5ed9e3fa856ca9599fa8ea91,64d2fd46c836a06233681665,64dc75d673c899f353f75cf0,,,,,,,ctch,resources/DY.BMP,resources/DG.BMP,Door2,-0.447222222,0.016666667,1,0,0,0.8133,optionLeft,20,10170,5,12,0,12,0,1,,,,,,,,,,,,,,,,,,,,,,,,,,,,,,,,,,,,,,,
,,,,,,,,2023-08-16_08h08.26.174,HF_wild_card,2022.2.4,Win32,60.02040694,5ed9e3fa856ca9599fa8ea91,64d2fd46c836a06233681665,64dc75d673c899f353f75cf0,,,,,,,decisionTrl,resources/DG.BMP,resources/DBN.BMP,Door4,0.368518575,0.030555556,1,0,0,0.8293,optionRight,80,10250,5,13,0,13,0,1,,,,,,,,,,,,,,,,,,,,,,,,,,,,,,,,,,,,,,,
,,,,,,,,2023-08-16_08h08.26.174,HF_wild_card,2022.2.4,Win32,60.02040694,5ed9e3fa856ca9599fa8ea91,64d2fd46c836a06233681665,64dc75d673c899f353f75cf0,,,,,,,decisionTrl,resources/DBN.BMP,resources/DG.BMP,Door4,-0.360185157,-0.009259288,1,0,0,0.7792,optionLeft,80,10330,5,14,0,14,0,1,,,,,,,,,,,,,,,,,,,,,,,,,,,,,,,,,,,,,,,
,,,,,,,,2023-08-16_08h08.26.174,HF_wild_card,2022.2.4,Win32,60.02040694,5ed9e3fa856ca9599fa8ea91,64d2fd46c836a06233681665,64dc75d673c899f353f75cf0,,,,,,,decisionTrl,resources/DBN.BMP,resources/DG.BMP,Door4,-0.357407379,0.030555556,1,0,0,0.6946,optionLeft,80,10410,5,15,0,15,0,1,,,,,,,,,,,,,,,,,,,,,,,,,,,,,,,,,,,,,,,
,,,,,,,,2023-08-16_08h08.26.174,HF_wild_card,2022.2.4,Win32,60.02040694,5ed9e3fa856ca9599fa8ea91,64d2fd46c836a06233681665,64dc75d673c899f353f75cf0,,,,,,,ctch,resources/DB.BMP,resources/DBN.BMP,Door4,0.298148176,0.031481467,1,0,0,0.7966,optionRight,80,10490,5,16,0,16,0,1,,,,,,,,,,,,,,,,,,,,,,,,,,,,,,,,,,,,,,,
,,,,,,,,2023-08-16_08h08.26.174,HF_wild_card,2022.2.4,Win32,60.02040694,5ed9e3fa856ca9599fa8ea91,64d2fd46c836a06233681665,64dc75d673c899f353f75cf0,,,,,,,decisionTrl,resources/DR.BMP,resources/DY.BMP,Door2,0.378703732,-0.009259288,1,0,0,0.796,optionRight,40,10530,5,17,0,17,0,1,,,,,,,,,,,,,,,,,,,,,,,,,,,,,,,,,,,,,,,
,,,,,,,,2023-08-16_08h08.26.174,HF_wild_card,2022.2.4,Win32,60.02040694,5ed9e3fa856ca9599fa8ea91,64d2fd46c836a06233681665,64dc75d673c899f353f75cf0,,,,,,,sngl,resources/DG.BMP,resources/Empty.png,Door3,-0.187037023,-0.015740755,1,0,0,0.8459,optionLeft,70,10600,5,18,0,18,0,1,,,,,,,,,,,,,,,,,,,,,,,,,,,,,,,,,,,,,,,
,,,,,,,,2023-08-16_08h08.26.174,HF_wild_card,2022.2.4,Win32,60.02040694,5ed9e3fa856ca9599fa8ea91,64d2fd46c836a06233681665,64dc75d673c899f353f75cf0,,,,,,,decisionTrl,resources/DY.BMP,resources/DB.BMP,Door2,-0.286111111,-0.030555556,1,0,0,0.846,optionLeft,40,10640,5,19,0,19,0,1,,,,,,,,,,,,,,,,,,,,,,,,,,,,,,,,,,,,,,,
,,,,,,,,2023-08-16_08h08.26.174,HF_wild_card,2022.2.4,Win32,60.02040694,5ed9e3fa856ca9599fa8ea91,64d2fd46c836a06233681665,64dc75d673c899f353f75cf0,,,,,,,sngl,resources/DY.BMP,resources/Empty.png,Door2,-0.333333333,-0.012037065,1,0,0,0.6968,optionLeft,40,10680,5,20,0,20,0,1,,,,,,,,,,,,,,,,,,,,,,,,,,,,,,,,,,,,,,,
,,,,,,,,2023-08-16_08h08.26.174,HF_wild_card,2022.2.4,Win32,60.02040694,5ed9e3fa856ca9599fa8ea91,64d2fd46c836a06233681665,64dc75d673c899f353f75cf0,,,,,,,decisionTrl,resources/DBN.BMP,resources/DR.BMP,Door4,-0.333333333,-0.022222222,1,0,0,0.7297,optionLeft,80,10760,5,21,0,21,0,1,,,,,,,,,,,,,,,,,,,,,,,,,,,,,,,,,,,,,,,
,,,,,,,,2023-08-16_08h08.26.174,HF_wild_card,2022.2.4,Win32,60.02040694,5ed9e3fa856ca9599fa8ea91,64d2fd46c836a06233681665,64dc75d673c899f353f75cf0,,,,,,,decisionTrl,resources/DBN.BMP,resources/DG.BMP,Door4,-0.289814801,-0.007407422,1,0,0,0.7238,optionLeft,60,10820,5,22,0,22,0,1,,,,,,,,,,,,,,,,,,,,,,,,,,,,,,,,,,,,,,,
,,,,,,,,2023-08-16_08h08.26.174,HF_wild_card,2022.2.4,Win32,60.02040694,5ed9e3fa856ca9599fa8ea91,64d2fd46c836a06233681665,64dc75d673c899f353f75cf0,,,,,,,decisionTrl,resources/DB.BMP,resources/DY.BMP,Door2,0.199074131,0.027777778,1,0,0,0.8241,optionRight,40,10860,5,23,0,23,0,1,,,,,,,,,,,,,,,,,,,,,,,,,,,,,,,,,,,,,,,
,,,,,,,,2023-08-16_08h08.26.174,HF_wild_card,2022.2.4,Win32,60.02040694,5ed9e3fa856ca9599fa8ea91,64d2fd46c836a06233681665,64dc75d673c899f353f75cf0,,,,,,,sngl,resources/Empty.png,resources/DB.BMP,Door1,0.287037065,0.002777778,1,0,0,1.163,optionRight,30,10890,5,24,0,24,0,1,,,,,,,,,,,,,,,,,,,,,,,,,,,,,,,,,,,,,,,
,,,,,,,,2023-08-16_08h08.26.174,HF_wild_card,2022.2.4,Win32,60.02040694,5ed9e3fa856ca9599fa8ea91,64d2fd46c836a06233681665,64dc75d673c899f353f75cf0,,,,,,,sngl,resources/Empty.png,resources/DY.BMP,Door2,0.170370399,0.094444444,1,0,0,1.0965,optionRight,20,10910,5,25,0,25,0,1,,,,,,,,,,,,,,,,,,,,,,,,,,,,,,,,,,,,,,,
,,,,,,,,2023-08-16_08h08.26.174,HF_wild_card,2022.2.4,Win32,60.02040694,5ed9e3fa856ca9599fa8ea91,64d2fd46c836a06233681665,64dc75d673c899f353f75cf0,,,,,,,ctch,resources/DG.BMP,resources/DY.BMP,Door3,-0.271296268,0.049074046,1,0,0,0.8467,optionLeft,70,10980,5,26,0,26,0,1,,,,,,,,,,,,,,,,,,,,,,,,,,,,,,,,,,,,,,,
,,,,,,,,2023-08-16_08h08.26.174,HF_wild_card,2022.2.4,Win32,60.02040694,5ed9e3fa856ca9599fa8ea91,64d2fd46c836a06233681665,64dc75d673c899f353f75cf0,,,,,,,sngl,resources/Empty.png,resources/DBN.BMP,Door4,0.28148151,0.026851824,1,0,0,0.8464,optionRight,60,11040,5,27,0,27,0,1,,,,,,,,,,,,,,,,,,,,,,,,,,,,,,,,,,,,,,,
,,,,,,,,2023-08-16_08h08.26.174,HF_wild_card,2022.2.4,Win32,60.02040694,5ed9e3fa856ca9599fa8ea91,64d2fd46c836a06233681665,64dc75d673c899f353f75cf0,,,,,,,decisionTrl,resources/DY.BMP,resources/DB.BMP,Door2,-0.325,0.032407379,1,0,0,0.8578,optionLeft,40,11080,5,28,0,28,0,1,,,,,,,,,,,,,,,,,,,,,,,,,,,,,,,,,,,,,,,
,,,,,,,,2023-08-16_08h08.26.174,HF_wild_card,2022.2.4,Win32,60.02040694,5ed9e3fa856ca9599fa8ea91,64d2fd46c836a06233681665,64dc75d673c899f353f75cf0,,,,,,,ctch,resources/DBN.BMP,resources/DB.BMP,Door4,-0.227777778,0.00370369,1,0,0,0.7298,optionLeft,80,11160,5,29,0,29,0,1,,,,,,,,,,,,,,,,,,,,,,,,,,,,,,,,,,,,,,,
,,,,,,,,2023-08-16_08h08.26.174,HF_wild_card,2022.2.4,Win32,60.02040694,5ed9e3fa856ca9599fa8ea91,64d2fd46c836a06233681665,64dc75d673c899f353f75cf0,,,,,,,decisionTrl,resources/DG.BMP,resources/DR.BMP,WildCard_Ex,0.304629686,0.032407379,1,0,0,0.8633,optionRight,55,11215,5,30,0,30,0,1,,,,,,,,,,,,,,,,,,,,,,,,,,,,,,,,,,,,,,,
,,,,,,,,2023-08-16_08h08.26.174,HF_wild_card,2022.2.4,Win32,60.02040694,5ed9e3fa856ca9599fa8ea91,64d2fd46c836a06233681665,64dc75d673c899f353f75cf0,,,,,,,sngl,resources/DR.BMP,resources/Empty.png,WildCard_Ex,-0.262037023,-0.002777778,1,0,0,0.6799,optionLeft,45,11260,5,31,0,31,0,1,,,,,,,,,,,,,,,,,,,,,,,,,,,,,,,,,,,,,,,
,,,,,,,,2023-08-16_08h08.26.174,HF_wild_card,2022.2.4,Win32,60.02040694,5ed9e3fa856ca9599fa8ea91,64d2fd46c836a06233681665,64dc75d673c899f353f75cf0,,,,,,,decisionTrl,resources/DG.BMP,resources/DBN.BMP,Door4,0.368518575,0.021296268,1,0,0,0.6966,optionRight,80,11340,5,32,0,32,0,1,,,,,,,,,,,,,,,,,,,,,,,,,,,,,,,,,,,,,,,
,,,,,,,,2023-08-16_08h08.26.174,HF_wild_card,2022.2.4,Win32,60.02040694,5ed9e3fa856ca9599fa8ea91,64d2fd46c836a06233681665,64dc75d673c899f353f75cf0,,,,,,,decisionTrl,resources/DY.BMP,resources/DR.BMP,Door2,-0.240740712,0.029629601,1,0,0,0.9295,optionLeft,20,11360,5,33,0,33,0,1,,,,,,,,,,,,,,,,,,,,,,,,,,,,,,,,,,,,,,,
,,,,,,,,2023-08-16_08h08.26.174,HF_wild_card,2022.2.4,Win32,60.02040694,5ed9e3fa856ca9599fa8ea91,64d2fd46c836a06233681665,64dc75d673c899f353f75cf0,,,,,,,decisionTrl,resources/DR.BMP,resources/DBN.BMP,Door4,0.437037065,0.022222222,1,0,0,0.7459,optionRight,60,11420,5,34,0,34,0,1,,,,,,,,,,,,,,,,,,,,,,,,,,,,,,,,,,,,,,,
,,,,,,,,2023-08-16_08h08.26.174,HF_wild_card,2022.2.4,Win32,60.02040694,5ed9e3fa856ca9599fa8ea91,64d2fd46c836a06233681665,64dc75d673c899f353f75cf0,,,,,,,sngl,resources/DR.BMP,resources/Empty.png,WildCard_Ex,-0.312962935,-0.017592621,1,0,0,0.7137,optionLeft,55,11475,5,35,0,35,0,1,,,,,,,,,,,,,,,,,,,,,,,,,,,,,,,,,,,,,,,
,,,,,,,,2023-08-16_08h08.26.174,HF_wild_card,2022.2.4,Win32,60.02040694,5ed9e3fa856ca9599fa8ea91,64d2fd46c836a06233681665,64dc75d673c899f353f75cf0,,,,,,,decisionTrl,resources/DB.BMP,resources/DY.BMP,Door1,-0.229629601,-0.049074088,1,0,0,0.8301,optionLeft,30,11505,5,36,0,36,0,1,,,,,,,,,,,,,,,,,,,,,,,,,,,,,,,,,,,,,,,
,,,,,,,,2023-08-16_08h08.26.174,HF_wild_card,2022.2.4,Win32,60.02040694,5ed9e3fa856ca9599fa8ea91,64d2fd46c836a06233681665,64dc75d673c899f353f75cf0,,,,,,,decisionTrl,resources/DR.BMP,resources/DB.BMP,Door1,0.271296353,0.009259245,1,0,0,0.9304,optionRight,30,11535,5,37,0,37,0,1,,,,,,,,,,,,,,,,,,,,,,,,,,,,,,,,,,,,,,,
,,,,,,,,2023-08-16_08h08.26.174,HF_wild_card,2022.2.4,Win32,60.02040694,5ed9e3fa856ca9599fa8ea91,64d2fd46c836a06233681665,64dc75d673c899f353f75cf0,,,,,,,decisionTrl,resources/DB.BMP,resources/DR.BMP,Door1,-0.314814801,0.008333333,1,0,0,0.7465,optionLeft,30,11565,5,38,0,38,0,1,,,,,,,,,,,,,,,,,,,,,,,,,,,,,,,,,,,,,,,
,,,,,,,,2023-08-16_08h08.26.174,HF_wild_card,2022.2.4,Win32,60.02040694,5ed9e3fa856ca9599fa8ea91,64d2fd46c836a06233681665,64dc75d673c899f353f75cf0,,,,,,,decisionTrl,resources/DG.BMP,resources/DBN.BMP,Door4,0.313888889,-0.001851866,1,0,0,0.6808,optionRight,80,11645,5,39,0,39,0,1,,,,,,,,,,,,,,,,,,,,,,,,,,,,,,,,,,,,,,,
,,,,,,,,2023-08-16_08h08.26.174,HF_wild_card,2022.2.4,Win32,60.02040694,5ed9e3fa856ca9599fa8ea91,64d2fd46c836a06233681665,64dc75d673c899f353f75cf0,,,,,,,decisionTrl,resources/DBN.BMP,resources/DG.BMP,Door4,-0.235185157,-0.020370399,1,0,0,0.7965,optionLeft,60,11705,5,40,0,40,0,1,,,,,,,,,,,,,,,,,,,,,,,,,,,,,,,,,,,,,,,
,,,,,,,,2023-08-16_08h08.26.174,HF_wild_card,2022.2.4,Win32,60.02040694,5ed9e3fa856ca9599fa8ea91,64d2fd46c836a06233681665,64dc75d673c899f353f75cf0,,,,,,,decisionTrl,resources/DR.BMP,resources/DG.BMP,WildCard_Ex,-0.231481467,-0.029629644,1,0,0,0.6633,optionLeft,55,11760,5,41,0,41,0,1,,,,,,,,,,,,,,,,,,,,,,,,,,,,,,,,,,,,,,,
,,,,,,,,2023-08-16_08h08.26.174,HF_wild_card,2022.2.4,Win32,60.02040694,5ed9e3fa856ca9599fa8ea91,64d2fd46c836a06233681665,64dc75d673c899f353f75cf0,,,,,,,decisionTrl,resources/DB.BMP,resources/DY.BMP,Door1,-0.22870369,-0.054629644,1,0,0,0.7465,optionLeft,30,11790,5,42,0,42,0,1,,,,,,,,,,,,,,,,,,,,,,,,,,,,,,,,,,,,,,,
,,,,,,,,2023-08-16_08h08.26.174,HF_wild_card,2022.2.4,Win32,60.02040694,5ed9e3fa856ca9599fa8ea91,64d2fd46c836a06233681665,64dc75d673c899f353f75cf0,,,,,,,ctch,resources/DG.BMP,resources/DY.BMP,Door3,-0.327777778,-0.055555556,1,0,0,0.8795,optionLeft,70,11860,5,43,0,43,0,1,,,,,,,,,,,,,,,,,,,,,,,,,,,,,,,,,,,,,,,
,,,,,,,,2023-08-16_08h08.26.174,HF_wild_card,2022.2.4,Win32,60.02040694,5ed9e3fa856ca9599fa8ea91,64d2fd46c836a06233681665,64dc75d673c899f353f75cf0,,,,,,,,,,,,,,,,,,,,,,,,,,4,0,4,0,1,,,,,,,,,,,,,,,,,,,,,,,,,,,,,,,,,,
,,,,,,,,2023-08-16_08h08.26.174,HF_wild_card,2022.2.4,Win32,60.02040694,5ed9e3fa856ca9599fa8ea91,64d2fd46c836a06233681665,64dc75d673c899f353f75cf0,,,,,,,decisionTrl,resources/DR.BMP,resources/DBN.BMP,Door4,0.519444444,-0.110185199,1,0,0,1.7567,optionRight,80,11940,6,0,0,0,0,1,,,,,,,,,,,,,,,,,,,,,,,,,,,,,,,,,,,,,,,
,,,,,,,,2023-08-16_08h08.26.174,HF_wild_card,2022.2.4,Win32,60.02040694,5ed9e3fa856ca9599fa8ea91,64d2fd46c836a06233681665,64dc75d673c899f353f75cf0,,,,,,,sngl,resources/Empty.png,resources/DR.BMP,WildCard_Ex,0.329629686,-0.079629644,1,0,0,0.8079,optionRight,45,11985,6,1,0,1,0,1,,,,,,,,,,,,,,,,,,,,,,,,,,,,,,,,,,,,,,,
,,,,,,,,2023-08-16_08h08.26.174,HF_wild_card,2022.2.4,Win32,60.02040694,5ed9e3fa856ca9599fa8ea91,64d2fd46c836a06233681665,64dc75d673c899f353f75cf0,,,,,,,sngl,resources/DR.BMP,resources/Empty.png,WildCard_Ex,-0.258333333,-0.004629644,1,0,0,0.8623,optionLeft,55,12040,6,2,0,2,0,1,,,,,,,,,,,,,,,,,,,,,,,,,,,,,,,,,,,,,,,
,,,,,,,,2023-08-16_08h08.26.174,HF_wild_card,2022.2.4,Win32,60.02040694,5ed9e3fa856ca9599fa8ea91,64d2fd46c836a06233681665,64dc75d673c899f353f75cf0,,,,,,,ctch,resources/DY.BMP,resources/DG.BMP,Door3,0.401851908,0.016666667,1,0,0,0.7801,optionRight,70,12110,6,3,0,3,0,1,,,,,,,,,,,,,,,,,,,,,,,,,,,,,,,,,,,,,,,
,,,,,,,,2023-08-16_08h08.26.174,HF_wild_card,2022.2.4,Win32,60.02040694,5ed9e3fa856ca9599fa8ea91,64d2fd46c836a06233681665,64dc75d673c899f353f75cf0,,,,,,,sngl,resources/DB.BMP,resources/Empty.png,Door1,-0.390740712,0.047222222,1,0,0,0.7954,optionLeft,30,12140,6,4,0,4,0,1,,,,,,,,,,,,,,,,,,,,,,,,,,,,,,,,,,,,,,,
,,,,,,,,2023-08-16_08h08.26.174,HF_wild_card,2022.2.4,Win32,60.02040694,5ed9e3fa856ca9599fa8ea91,64d2fd46c836a06233681665,64dc75d673c899f353f75cf0,,,,,,,decisionTrl,resources/DG.BMP,resources/DR.BMP,WildCard_Ex,0.353703732,0.005555556,1,0,0,0.7961,optionRight,45,12185,6,5,0,5,0,1,,,,,,,,,,,,,,,,,,,,,,,,,,,,,,,,,,,,,,,
,,,,,,,,2023-08-16_08h08.26.174,HF_wild_card,2022.2.4,Win32,60.02040694,5ed9e3fa856ca9599fa8ea91,64d2fd46c836a06233681665,64dc75d673c899f353f75cf0,,,,,,,sngl,resources/Empty.png,resources/DB.BMP,Door1,0.411111111,0.022222222,1,0,0,0.8627,optionRight,30,12215,6,6,0,6,0,1,,,,,,,,,,,,,,,,,,,,,,,,,,,,,,,,,,,,,,,
,,,,,,,,2023-08-16_08h08.26.174,HF_wild_card,2022.2.4,Win32,60.02040694,5ed9e3fa856ca9599fa8ea91,64d2fd46c836a06233681665,64dc75d673c899f353f75cf0,,,,,,,decisionTrl,resources/DB.BMP,resources/DR.BMP,Door1,-0.241666667,-0.005555556,1,0,0,0.8963,optionLeft,30,12245,6,7,0,7,0,1,,,,,,,,,,,,,,,,,,,,,,,,,,,,,,,,,,,,,,,
,,,,,,,,2023-08-16_08h08.26.174,HF_wild_card,2022.2.4,Win32,60.02040694,5ed9e3fa856ca9599fa8ea91,64d2fd46c836a06233681665,64dc75d673c899f353f75cf0,,,,,,,decisionTrl,resources/DG.BMP,resources/DBN.BMP,Door4,0.315740797,0.047222222,1,0,0,0.7136,optionRight,80,12325,6,8,0,8,0,1,,,,,,,,,,,,,,,,,,,,,,,,,,,,,,,,,,,,,,,
,,,,,,,,2023-08-16_08h08.26.174,HF_wild_card,2022.2.4,Win32,60.02040694,5ed9e3fa856ca9599fa8ea91,64d2fd46c836a06233681665,64dc75d673c899f353f75cf0,,,,,,,ctch,resources/DB.BMP,resources/DBN.BMP,Door4,0.337037065,0.064814801,1,0,0,0.6634,optionRight,60,12385,6,9,0,9,0,1,,,,,,,,,,,,,,,,,,,,,,,,,,,,,,,,,,,,,,,
,,,,,,,,2023-08-16_08h08.26.174,HF_wild_card,2022.2.4,Win32,60.02040694,5ed9e3fa856ca9599fa8ea91,64d2fd46c836a06233681665,64dc75d673c899f353f75cf0,,,,,,,decisionTrl,resources/DBN.BMP,resources/DG.BMP,Door4,-0.377777778,-0.024074088,1,0,0,0.796,optionLeft,60,12445,6,10,0,10,0,1,,,,,,,,,,,,,,,,,,,,,,,,,,,,,,,,,,,,,,,
,,,,,,,,2023-08-16_08h08.26.174,HF_wild_card,2022.2.4,Win32,60.02040694,5ed9e3fa856ca9599fa8ea91,64d2fd46c836a06233681665,64dc75d673c899f353f75cf0,,,,,,,decisionTrl,resources/DBN.BMP,resources/DG.BMP,Door4,-0.29351849,-0.020370399,1,0,0,0.8294,optionLeft,80,12525,6,11,0,11,0,1,,,,,,,,,,,,,,,,,,,,,,,,,,,,,,,,,,,,,,,
,,,,,,,,2023-08-16_08h08.26.174,HF_wild_card,2022.2.4,Win32,60.02040694,5ed9e3fa856ca9599fa8ea91,64d2fd46c836a06233681665,64dc75d673c899f353f75cf0,,,,,,,sngl,resources/DY.BMP,resources/Empty.png,Door2,-0.380555556,0.002777778,1,0,0,0.6956,optionLeft,20,12545,6,12,0,12,0,1,,,,,,,,,,,,,,,,,,,,,,,,,,,,,,,,,,,,,,,
,,,,,,,,2023-08-16_08h08.26.174,HF_wild_card,2022.2.4,Win32,60.02040694,5ed9e3fa856ca9599fa8ea91,64d2fd46c836a06233681665,64dc75d673c899f353f75cf0,,,,,,,decisionTrl,resources/DB.BMP,resources/DY.BMP,Door1,-0.27870369,0.051851824,1,0,0,0.8128,optionLeft,30,12575,6,13,0,13,0,1,,,,,,,,,,,,,,,,,,,,,,,,,,,,,,,,,,,,,,,
,,,,,,,,2023-08-16_08h08.26.174,HF_wild_card,2022.2.4,Win32,60.02040694,5ed9e3fa856ca9599fa8ea91,64d2fd46c836a06233681665,64dc75d673c899f353f75cf0,,,,,,,ctch,resources/DBN.BMP,resources/DB.BMP,Door4,-0.314814801,0.059259245,1,0,0,0.9953,optionLeft,80,12655,6,14,0,14,0,1,,,,,,,,,,,,,,,,,,,,,,,,,,,,,,,,,,,,,,,
,,,,,,,,2023-08-16_08h08.26.174,HF_wild_card,2022.2.4,Win32,60.02040694,5ed9e3fa856ca9599fa8ea91,64d2fd46c836a06233681665,64dc75d673c899f353f75cf0,,,,,,,decisionTrl,resources/DB.BMP,resources/DY.BMP,Door1,-0.19351849,0.026851824,1,0,0,0.7453,optionLeft,30,12685,6,15,0,15,0,1,,,,,,,,,,,,,,,,,,,,,,,,,,,,,,,,,,,,,,,
,,,,,,,,2023-08-16_08h08.26.174,HF_wild_card,2022.2.4,Win32,60.02040694,5ed9e3fa856ca9599fa8ea91,64d2fd46c836a06233681665,64dc75d673c899f353f75cf0,,,,,,,decisionTrl,resources/DG.BMP,resources/DBN.BMP,Door4,0.309259288,0.025925912,1,0,0,0.6799,optionRight,60,12745,6,16,0,16,0,1,,,,,,,,,,,,,,,,,,,,,,,,,,,,,,,,,,,,,,,
,,,,,,,,2023-08-16_08h08.26.174,HF_wild_card,2022.2.4,Win32,60.02040694,5ed9e3fa856ca9599fa8ea91,64d2fd46c836a06233681665,64dc75d673c899f353f75cf0,,,,,,,decisionTrl,resources/DBN.BMP,resources/DG.BMP,Door4,-0.238888889,0.004629601,1,0,0,0.7134,optionLeft,80,12825,6,17,0,17,0,1,,,,,,,,,,,,,,,,,,,,,,,,,,,,,,,,,,,,,,,
,,,,,,,,2023-08-16_08h08.26.174,HF_wild_card,2022.2.4,Win32,60.02040694,5ed9e3fa856ca9599fa8ea91,64d2fd46c836a06233681665,64dc75d673c899f353f75cf0,,,,,,,decisionTrl,resources/DB.BMP,resources/DY.BMP,Door1,-0.227777778,0.021296268,1,0,0,1.3951,optionLeft,30,12855,6,18,0,18,0,1,,,,,,,,,,,,,,,,,,,,,,,,,,,,,,,,,,,,,,,
,,,,,,,,2023-08-16_08h08.26.174,HF_wild_card,2022.2.4,Win32,60.02040694,5ed9e3fa856ca9599fa8ea91,64d2fd46c836a06233681665,64dc75d673c899f353f75cf0,,,,,,,decisionTrl,resources/DB.BMP,resources/DY.BMP,Door2,0.278703732,-0.015740755,1,0,0,0.7629,optionRight,40,12895,6,19,0,19,0,1,,,,,,,,,,,,,,,,,,,,,,,,,,,,,,,,,,,,,,,
,,,,,,,,2023-08-16_08h08.26.174,HF_wild_card,2022.2.4,Win32,60.02040694,5ed9e3fa856ca9599fa8ea91,64d2fd46c836a06233681665,64dc75d673c899f353f75cf0,,,,,,,sngl,resources/Empty.png,resources/DY.BMP,Door2,0.315740797,0.027777778,1,0,0,0.7628,optionRight,40,12935,6,20,0,20,0,1,,,,,,,,,,,,,,,,,,,,,,,,,,,,,,,,,,,,,,,
,,,,,,,,2023-08-16_08h08.26.174,HF_wild_card,2022.2.4,Win32,60.02040694,5ed9e3fa856ca9599fa8ea91,64d2fd46c836a06233681665,64dc75d673c899f353f75cf0,,,,,,,decisionTrl,resources/DBN.BMP,resources/DG.BMP,Door4,-0.26851849,0.01851849,1,0,0,0.7976,optionLeft,80,13015,6,21,0,21,0,1,,,,,,,,,,,,,,,,,,,,,,,,,,,,,,,,,,,,,,,
,,,,,,,,2023-08-16_08h08.26.174,HF_wild_card,2022.2.4,Win32,60.02040694,5ed9e3fa856ca9599fa8ea91,64d2fd46c836a06233681665,64dc75d673c899f353f75cf0,,,,,,,decisionTrl,resources/DR.BMP,resources/DB.BMP,Door1,0.275925954,0.075925912,1,0,0,0.7957,optionRight,30,13045,6,22,0,22,0,1,,,,,,,,,,,,,,,,,,,,,,,,,,,,,,,,,,,,,,,
,,,,,,,,2023-08-16_08h08.26.174,HF_wild_card,2022.2.4,Win32,60.02040694,5ed9e3fa856ca9599fa8ea91,64d2fd46c836a06233681665,64dc75d673c899f353f75cf0,,,,,,,sngl,resources/Empty.png,resources/DR.BMP,WildCard_Ex,0.341666667,0.072222222,1,0,0,0.9791,optionRight,55,13100,6,23,0,23,0,1,,,,,,,,,,,,,,,,,,,,,,,,,,,,,,,,,,,,,,,
,,,,,,,,2023-08-16_08h08.26.174,HF_wild_card,2022.2.4,Win32,60.02040694,5ed9e3fa856ca9599fa8ea91,64d2fd46c836a06233681665,64dc75d673c899f353f75cf0,,,,,,,ctch,resources/DG.BMP,resources/DY.BMP,Door3,-0.22870369,0.041666667,1,0,0,0.8624,optionLeft,70,13170,6,24,0,24,0,1,,,,,,,,,,,,,,,,,,,,,,,,,,,,,,,,,,,,,,,
,,,,,,,,2023-08-16_08h08.26.174,HF_wild_card,2022.2.4,Win32,60.02040694,5ed9e3fa856ca9599fa8ea91,64d2fd46c836a06233681665,64dc75d673c899f353f75cf0,,,,,,,decisionTrl,resources/DG.BMP,resources/DBN.BMP,Door4,0.275,0.062962935,1,0,0,3.8926,optionRight,60,13230,6,25,0,25,0,1,,,,,,,,,,,,,,,,,,,,,,,,,,,,,,,,,,,,,,,
,,,,,,,,2023-08-16_08h08.26.174,HF_wild_card,2022.2.4,Win32,60.02040694,5ed9e3fa856ca9599fa8ea91,64d2fd46c836a06233681665,64dc75d673c899f353f75cf0,,,,,,,sngl,resources/Empty.png,resources/DG.BMP,Door3,0.325925954,0.027777778,1,0,0,0.5722,optionRight,70,13300,6,26,0,26,0,1,,,,,,,,,,,,,,,,,,,,,,,,,,,,,,,,,,,,,,,
,,,,,,,,2023-08-16_08h08.26.174,HF_wild_card,2022.2.4,Win32,60.02040694,5ed9e3fa856ca9599fa8ea91,64d2fd46c836a06233681665,64dc75d673c899f353f75cf0,,,,,,,decisionTrl,resources/DR.BMP,resources/DG.BMP,Door3,0.449074131,-0.044444444,1,0,0,0.6964,optionRight,70,13370,6,27,0,27,0,1,,,,,,,,,,,,,,,,,,,,,,,,,,,,,,,,,,,,,,,
,,,,,,,,2023-08-16_08h08.26.174,HF_wild_card,2022.2.4,Win32,60.02040694,5ed9e3fa856ca9599fa8ea91,64d2fd46c836a06233681665,64dc75d673c899f353f75cf0,,,,,,,decisionTrl,resources/DBN.BMP,resources/DR.BMP,Door4,-0.334259245,-0.044444444,1,0,0,0.7628,optionLeft,80,13450,6,28,0,28,0,1,,,,,,,,,,,,,,,,,,,,,,,,,,,,,,,,,,,,,,,
,,,,,,,,2023-08-16_08h08.26.174,HF_wild_card,2022.2.4,Win32,60.02040694,5ed9e3fa856ca9599fa8ea91,64d2fd46c836a06233681665,64dc75d673c899f353f75cf0,,,,,,,ctch,resources/DY.BMP,resources/DG.BMP,Door2,-0.280555556,-0.017592621,1,0,0,0.7959,optionLeft,40,13490,6,29,0,29,0,1,,,,,,,,,,,,,,,,,,,,,,,,,,,,,,,,,,,,,,,
,,,,,,,,2023-08-16_08h08.26.174,HF_wild_card,2022.2.4,Win32,60.02040694,5ed9e3fa856ca9599fa8ea91,64d2fd46c836a06233681665,64dc75d673c899f353f75cf0,,,,,,,decisionTrl,resources/DY.BMP,resources/DB.BMP,Door1,0.267592621,-0.005555556,1,0,0,0.7574,optionRight,30,13520,6,30,0,30,0,1,,,,,,,,,,,,,,,,,,,,,,,,,,,,,,,,,,,,,,,
,,,,,,,,2023-08-16_08h08.26.174,HF_wild_card,2022.2.4,Win32,60.02040694,5ed9e3fa856ca9599fa8ea91,64d2fd46c836a06233681665,64dc75d673c899f353f75cf0,,,,,,,sngl,resources/DR.BMP,resources/Empty.png,WildCard_Ex,-0.219444444,0.019444444,1,0,0,0.7801,optionLeft,45,13565,6,31,0,31,0,1,,,,,,,,,,,,,,,,,,,,,,,,,,,,,,,,,,,,,,,
,,,,,,,,2023-08-16_08h08.26.174,HF_wild_card,2022.2.4,Win32,60.02040694,5ed9e3fa856ca9599fa8ea91,64d2fd46c836a06233681665,64dc75d673c899f353f75cf0,,,,,,,sngl,resources/DBN.BMP,resources/Empty.png,Door4,-0.247222222,0.012962935,1,0,0,0.8304,optionLeft,60,13625,6,32,0,32,0,1,,,,,,,,,,,,,,,,,,,,,,,,,,,,,,,,,,,,,,,
,,,,,,,,2023-08-16_08h08.26.174,HF_wild_card,2022.2.4,Win32,60.02040694,5ed9e3fa856ca9599fa8ea91,64d2fd46c836a06233681665,64dc75d673c899f353f75cf0,,,,,,,ctch,resources/DB.BMP,resources/DBN.BMP,Door4,0.251851908,0.034259245,1,0,0,1.1121,optionRight,80,13705,6,33,0,33,0,1,,,,,,,,,,,,,,,,,,,,,,,,,,,,,,,,,,,,,,,
,,,,,,,,2023-08-16_08h08.26.174,HF_wild_card,2022.2.4,Win32,60.02040694,5ed9e3fa856ca9599fa8ea91,64d2fd46c836a06233681665,64dc75d673c899f353f75cf0,,,,,,,decisionTrl,resources/DY.BMP,resources/DB.BMP,Door1,0.277777778,-0.018518533,1,0,0,0.8959,optionRight,30,13735,6,34,0,34,0,1,,,,,,,,,,,,,,,,,,,,,,,,,,,,,,,,,,,,,,,
,,,,,,,,2023-08-16_08h08.26.174,HF_wild_card,2022.2.4,Win32,60.02040694,5ed9e3fa856ca9599fa8ea91,64d2fd46c836a06233681665,64dc75d673c899f353f75cf0,,,,,,,decisionTrl,resources/DR.BMP,resources/DY.BMP,Door2,0.296296353,-0.00648151,1,0,0,0.7962,optionRight,20,13755,6,35,0,35,0,1,,,,,,,,,,,,,,,,,,,,,,,,,,,,,,,,,,,,,,,
,,,,,,,,2023-08-16_08h08.26.174,HF_wild_card,2022.2.4,Win32,60.02040694,5ed9e3fa856ca9599fa8ea91,64d2fd46c836a06233681665,64dc75d673c899f353f75cf0,,,,,,,ctch,resources/DBN.BMP,resources/DB.BMP,Door4,-0.270370356,-0.037037065,1,0,0,1.229,optionLeft,60,13815,6,36,0,36,0,1,,,,,,,,,,,,,,,,,,,,,,,,,,,,,,,,,,,,,,,
,,,,,,,,2023-08-16_08h08.26.174,HF_wild_card,2022.2.4,Win32,60.02040694,5ed9e3fa856ca9599fa8ea91,64d2fd46c836a06233681665,64dc75d673c899f353f75cf0,,,,,,,decisionTrl,resources/DY.BMP,resources/DB.BMP,Door2,-0.239814801,-0.026851866,1,0,0,0.8786,optionLeft,40,13855,6,37,0,37,0,1,,,,,,,,,,,,,,,,,,,,,,,,,,,,,,,,,,,,,,,
,,,,,,,,2023-08-16_08h08.26.174,HF_wild_card,2022.2.4,Win32,60.02040694,5ed9e3fa856ca9599fa8ea91,64d2fd46c836a06233681665,64dc75d673c899f353f75cf0,,,,,,,sngl,resources/Empty.png,resources/DBN.BMP,Door4,0.337037065,-0.012037065,1,0,0,0.7798,optionRight,80,13935,6,38,0,38,0,1,,,,,,,,,,,,,,,,,,,,,,,,,,,,,,,,,,,,,,,
,,,,,,,,2023-08-16_08h08.26.174,HF_wild_card,2022.2.4,Win32,60.02040694,5ed9e3fa856ca9599fa8ea91,64d2fd46c836a06233681665,64dc75d673c899f353f75cf0,,,,,,,decisionTrl,resources/DY.BMP,resources/DB.BMP,Door2,-0.226851824,-0.028703732,1,0,0,0.9219,optionLeft,20,13955,6,39,0,39,0,1,,,,,,,,,,,,,,,,,,,,,,,,,,,,,,,,,,,,,,,
,,,,,,,,2023-08-16_08h08.26.174,HF_wild_card,2022.2.4,Win32,60.02040694,5ed9e3fa856ca9599fa8ea91,64d2fd46c836a06233681665,64dc75d673c899f353f75cf0,,,,,,,decisionTrl,resources/DY.BMP,resources/DR.BMP,WildCard_Ex,0.242592621,-0.019444444,1,0,0,0.7617,optionRight,55,14010,6,40,0,40,0,1,,,,,,,,,,,,,,,,,,,,,,,,,,,,,,,,,,,,,,,
,,,,,,,,2023-08-16_08h08.26.174,HF_wild_card,2022.2.4,Win32,60.02040694,5ed9e3fa856ca9599fa8ea91,64d2fd46c836a06233681665,64dc75d673c899f353f75cf0,,,,,,,ctch,resources/DG.BMP,resources/DY.BMP,Door2,0.227777778,-0.004629644,1,0,0,1.0118,optionRight,20,14030,6,41,0,41,0,1,,,,,,,,,,,,,,,,,,,,,,,,,,,,,,,,,,,,,,,
,,,,,,,,2023-08-16_08h08.26.174,HF_wild_card,2022.2.4,Win32,60.02040694,5ed9e3fa856ca9599fa8ea91,64d2fd46c836a06233681665,64dc75d673c899f353f75cf0,,,,,,,decisionTrl,resources/DG.BMP,resources/DBN.BMP,Door4,0.150925954,-0.001851866,1,0,0,0.9461,optionRight,60,14090,6,42,0,42,0,1,,,,,,,,,,,,,,,,,,,,,,,,,,,,,,,,,,,,,,,
,,,,,,,,2023-08-16_08h08.26.174,HF_wild_card,2022.2.4,Win32,60.02040694,5ed9e3fa856ca9599fa8ea91,64d2fd46c836a06233681665,64dc75d673c899f353f75cf0,,,,,,,sngl,resources/DG.BMP,resources/Empty.png,Door3,-0.35370369,0.040740712,1,0,0,0.7962,optionLeft,70,14160,6,43,0,43,0,1,,,,,,,,,,,,,,,,,,,,,,,,,,,,,,,,,,,,,,,
,,,,,,,,2023-08-16_08h08.26.174,HF_wild_card,2022.2.4,Win32,60.02040694,5ed9e3fa856ca9599fa8ea91,64d2fd46c836a06233681665,64dc75d673c899f353f75cf0,,,,,,,,,,,,,,,,,,,,,,,,,,5,0,5,0,1,,,,,,,,,,,,,,,,,,,,,,,,,,,,,,,,,,
,,,,,,,,2023-08-16_08h08.26.174,HF_wild_card,2022.2.4,Win32,60.02040694,5ed9e3fa856ca9599fa8ea91,64d2fd46c836a06233681665,64dc75d673c899f353f75cf0,,,,,,,decisionTrl,resources/DBN.BMP,resources/DG.BMP,Door4,-0.331481467,-0.087962977,1,0,0,1.6204,optionLeft,60,14220,7,0,0,0,0,1,,,,,,,,,,,,,,,,,,,,,,,,,,,,,,,,,,,,,,,
,,,,,,,,2023-08-16_08h08.26.174,HF_wild_card,2022.2.4,Win32,60.02040694,5ed9e3fa856ca9599fa8ea91,64d2fd46c836a06233681665,64dc75d673c899f353f75cf0,,,,,,,decisionTrl,resources/DBN.BMP,resources/DG.BMP,Door4,-0.422222222,0.02870369,1,0,0,1.4143,optionLeft,60,14280,7,1,0,1,0,1,,,,,,,,,,,,,,,,,,,,,,,,,,,,,,,,,,,,,,,
,,,,,,,,2023-08-16_08h08.26.174,HF_wild_card,2022.2.4,Win32,60.02040694,5ed9e3fa856ca9599fa8ea91,64d2fd46c836a06233681665,64dc75d673c899f353f75cf0,,,,,,,decisionTrl,resources/DBN.BMP,resources/DG.BMP,Door4,-0.325,0.001851824,1,0,0,0.6824,optionLeft,60,14340,7,2,0,2,0,1,,,,,,,,,,,,,,,,,,,,,,,,,,,,,,,,,,,,,,,
,,,,,,,,2023-08-16_08h08.26.174,HF_wild_card,2022.2.4,Win32,60.02040694,5ed9e3fa856ca9599fa8ea91,64d2fd46c836a06233681665,64dc75d673c899f353f75cf0,,,,,,,decisionTrl,resources/DG.BMP,resources/DBN.BMP,Door4,0.358333333,0.014814801,1,0,0,0.8324,optionRight,80,14420,7,3,0,3,0,1,,,,,,,,,,,,,,,,,,,,,,,,,,,,,,,,,,,,,,,
,,,,,,,,2023-08-16_08h08.26.174,HF_wild_card,2022.2.4,Win32,60.02040694,5ed9e3fa856ca9599fa8ea91,64d2fd46c836a06233681665,64dc75d673c899f353f75cf0,,,,,,,decisionTrl,resources/DG.BMP,resources/DBN.BMP,Door4,0.382407464,0.030555556,1,0,0,0.7827,optionRight,60,14480,7,4,0,4,0,1,,,,,,,,,,,,,,,,,,,,,,,,,,,,,,,,,,,,,,,
,,,,,,,,2023-08-16_08h08.26.174,HF_wild_card,2022.2.4,Win32,60.02040694,5ed9e3fa856ca9599fa8ea91,64d2fd46c836a06233681665,64dc75d673c899f353f75cf0,,,,,,,decisionTrl,resources/DG.BMP,resources/DBN.BMP,Door4,0.387037065,0.006481467,1,0,0,0.6992,optionRight,80,14560,7,5,0,5,0,1,,,,,,,,,,,,,,,,,,,,,,,,,,,,,,,,,,,,,,,
,,,,,,,,2023-08-16_08h08.26.174,HF_wild_card,2022.2.4,Win32,60.02040694,5ed9e3fa856ca9599fa8ea91,64d2fd46c836a06233681665,64dc75d673c899f353f75cf0,,,,,,,decisionTrl,resources/DB.BMP,resources/DY.BMP,Door2,0.377777778,0.062962935,1,0,0,1.6305,optionRight,40,14600,7,6,0,6,0,1,,,,,,,,,,,,,,,,,,,,,,,,,,,,,,,,,,,,,,,
,,,,,,,,2023-08-16_08h08.26.174,HF_wild_card,2022.2.4,Win32,60.02040694,5ed9e3fa856ca9599fa8ea91,64d2fd46c836a06233681665,64dc75d673c899f353f75cf0,,,,,,,decisionTrl,resources/DBN.BMP,resources/DG.BMP,Door4,-0.320370356,0.012037023,1,0,0,1.7391,optionLeft,60,14660,7,7,0,7,0,1,,,,,,,,,,,,,,,,,,,,,,,,,,,,,,,,,,,,,,,
,,,,,,,,2023-08-16_08h08.26.174,HF_wild_card,2022.2.4,Win32,60.02040694,5ed9e3fa856ca9599fa8ea91,64d2fd46c836a06233681665,64dc75d673c899f353f75cf0,,,,,,,ctch,resources/DG.BMP,resources/DY.BMP,Door3,-0.17870369,-0.020370399,1,0,0,0.849,optionLeft,70,14730,7,8,0,8,0,1,,,,,,,,,,,,,,,,,,,,,,,,,,,,,,,,,,,,,,,
,,,,,,,,2023-08-16_08h08.26.174,HF_wild_card,2022.2.4,Win32,60.02040694,5ed9e3fa856ca9599fa8ea91,64d2fd46c836a06233681665,64dc75d673c899f353f75cf0,,,,,,,ctch,resources/DY.BMP,resources/DG.BMP,Door3,0.265740797,0.010185157,1,0,0,0.9316,optionRight,70,14800,7,9,0,9,0,1,,,,,,,,,,,,,,,,,,,,,,,,,,,,,,,,,,,,,,,
,,,,,,,,2023-08-16_08h08.26.174,HF_wild_card,2022.2.4,Win32,60.02040694,5ed9e3fa856ca9599fa8ea91,64d2fd46c836a06233681665,64dc75d673c899f353f75cf0,,,,,,,decisionTrl,resources/DG.BMP,resources/DBN.BMP,Door4,0.305555556,-0.017592621,1,0,0,0.8814,optionRight,60,14860,7,10,0,10,0,1,,,,,,,,,,,,,,,,,,,,,,,,,,,,,,,,,,,,,,,
,,,,,,,,2023-08-16_08h08.26.174,HF_wild_card,2022.2.4,Win32,60.02040694,5ed9e3fa856ca9599fa8ea91,64d2fd46c836a06233681665,64dc75d673c899f353f75cf0,,,,,,,ctch,resources/DG.BMP,resources/DY.BMP,Door3,-0.199074046,0.012962935,1,0,0,0.9733,optionLeft,70,14930,7,11,0,11,0,1,,,,,,,,,,,,,,,,,,,,,,,,,,,,,,,,,,,,,,,
,,,,,,,,2023-08-16_08h08.26.174,HF_wild_card,2022.2.4,Win32,60.02040694,5ed9e3fa856ca9599fa8ea91,64d2fd46c836a06233681665,64dc75d673c899f353f75cf0,,,,,,,ctch,resources/DY.BMP,resources/DG.BMP,Door3,0.291666667,0.024074046,1,0,0,0.9061,optionRight,70,15000,7,12,0,12,0,1,,,,,,,,,,,,,,,,,,,,,,,,,,,,,,,,,,,,,,,
,,,,,,,,2023-08-16_08h08.26.174,HF_wild_card,2022.2.4,Win32,60.02040694,5ed9e3fa856ca9599fa8ea91,64d2fd46c836a06233681665,64dc75d673c899f353f75cf0,,,,,,,ctch,resources/DB.BMP,resources/DBN.BMP,Door4,0.251851908,0.030555556,1,0,0,0.7315,optionRight,60,15060,7,13,0,13,0,1,,,,,,,,,,,,,,,,,,,,,,,,,,,,,,,,,,,,,,,
,,,,,,,,2023-08-16_08h08.26.174,HF_wild_card,2022.2.4,Win32,60.02040694,5ed9e3fa856ca9599fa8ea91,64d2fd46c836a06233681665,64dc75d673c899f353f75cf0,,,,,,,decisionTrl,resources/DG.BMP,resources/DBN.BMP,Door4,0.409259288,0.038888889,1,0,0,0.7812,optionRight,60,15120,7,14,0,14,0,1,,,,,,,,,,,,,,,,,,,,,,,,,,,,,,,,,,,,,,,
,,,,,,,,2023-08-16_08h08.26.174,HF_wild_card,2022.2.4,Win32,60.02040694,5ed9e3fa856ca9599fa8ea91,64d2fd46c836a06233681665,64dc75d673c899f353f75cf0,,,,,,,ctch,resources/DBN.BMP,resources/DB.BMP,Door4,-0.295370356,0.006481467,1,0,0,1.2894,optionLeft,60,15180,7,15,0,15,0,1,,,,,,,,,,,,,,,,,,,,,,,,,,,,,,,,,,,,,,,
,,,,,,,,2023-08-16_08h08.26.174,HF_wild_card,2022.2.4,Win32,60.02040694,5ed9e3fa856ca9599fa8ea91,64d2fd46c836a06233681665,64dc75d673c899f353f75cf0,,,,,,,decisionTrl,resources/DB.BMP,resources/DY.BMP,Door1,-0.280555556,0.00370369,1,0,0,0.9979,optionLeft,30,15210,7,16,0,16,0,1,,,,,,,,,,,,,,,,,,,,,,,,,,,,,,,,,,,,,,,
,,,,,,,,2023-08-16_08h08.26.174,HF_wild_card,2022.2.4,Win32,60.02040694,5ed9e3fa856ca9599fa8ea91,64d2fd46c836a06233681665,64dc75d673c899f353f75cf0,,,,,,,decisionTrl,resources/DY.BMP,resources/DB.BMP,Door1,0.284259288,-0.048148176,1,0,0,0.9484,optionRight,30,15240,7,17,0,17,0,1,,,,,,,,,,,,,,,,,,,,,,,,,,,,,,,,,,,,,,,
,,,,,,,,2023-08-16_08h08.26.174,HF_wild_card,2022.2.4,Win32,60.02040694,5ed9e3fa856ca9599fa8ea91,64d2fd46c836a06233681665,64dc75d673c899f353f75cf0,,,,,,,ctch,resources/DBN.BMP,resources/DB.BMP,Door4,-0.229629601,-0.014814843,1,0,0,0.8986,optionLeft,60,15300,7,18,0,18,0,1,,,,,,,,,,,,,,,,,,,,,,,,,,,,,,,,,,,,,,,
,,,,,,,,2023-08-16_08h08.26.174,HF_wild_card,2022.2.4,Win32,60.02040694,5ed9e3fa856ca9599fa8ea91,64d2fd46c836a06233681665,64dc75d673c899f353f75cf0,,,,,,,ctch,resources/DB.BMP,resources/DBN.BMP,Door4,0.301851908,0.002777778,1,0,0,0.8146,optionRight,60,15360,7,19,0,19,0,1,,,,,,,,,,,,,,,,,,,,,,,,,,,,,,,,,,,,,,,
,,,,,,,,2023-08-16_08h08.26.174,HF_wild_card,2022.2.4,Win32,60.02040694,5ed9e3fa856ca9599fa8ea91,64d2fd46c836a06233681665,64dc75d673c899f353f75cf0,,,,,,,decisionTrl,resources/DY.BMP,resources/DB.BMP,Door1,0.226851908,0.00370369,1,0,0,0.9312,optionRight,30,15390,7,20,0,20,0,1,,,,,,,,,,,,,,,,,,,,,,,,,,,,,,,,,,,,,,,
,,,,,,,,2023-08-16_08h08.26.174,HF_wild_card,2022.2.4,Win32,60.02040694,5ed9e3fa856ca9599fa8ea91,64d2fd46c836a06233681665,64dc75d673c899f353f75cf0,,,,,,,ctch,resources/DBN.BMP,resources/DB.BMP,Door4,-0.191666667,-0.018518533,1,0,0,0.9816,optionLeft,80,15470,7,21,0,21,0,1,,,,,,,,,,,,,,,,,,,,,,,,,,,,,,,,,,,,,,,
,,,,,,,,2023-08-16_08h08.26.174,HF_wild_card,2022.2.4,Win32,60.02040694,5ed9e3fa856ca9599fa8ea91,64d2fd46c836a06233681665,64dc75d673c899f353f75cf0,,,,,,,decisionTrl,resources/DY.BMP,resources/DB.BMP,Door1,0.172222222,-0.004629644,1,0,0,0.7817,optionRight,30,15500,7,22,0,22,0,1,,,,,,,,,,,,,,,,,,,,,,,,,,,,,,,,,,,,,,,
,,,,,,,,2023-08-16_08h08.26.174,HF_wild_card,2022.2.4,Win32,60.02040694,5ed9e3fa856ca9599fa8ea91,64d2fd46c836a06233681665,64dc75d673c899f353f75cf0,,,,,,,decisionTrl,resources/DB.BMP,resources/DY.BMP,Door2,0.226851908,0.01851849,1,0,0,1.1151,optionRight,20,15520,7,23,0,23,0,1,,,,,,,,,,,,,,,,,,,,,,,,,,,,,,,,,,,,,,,
,,,,,,,,2023-08-16_08h08.26.174,HF_wild_card,2022.2.4,Win32,60.02040694,5ed9e3fa856ca9599fa8ea91,64d2fd46c836a06233681665,64dc75d673c899f353f75cf0,,,,,,,decisionTrl,resources/DY.BMP,resources/DB.BMP,Door1,0.171296353,-0.028703732,1,0,0,1.5308,optionRight,30,15550,7,24,0,24,0,1,,,,,,,,,,,,,,,,,,,,,,,,,,,,,,,,,,,,,,,
,,,,,,,,2023-08-16_08h08.26.174,HF_wild_card,2022.2.4,Win32,60.02040694,5ed9e3fa856ca9599fa8ea91,64d2fd46c836a06233681665,64dc75d673c899f353f75cf0,,,,,,,decisionTrl,resources/DY.BMP,resources/DB.BMP,Door1,0.189814843,0.025,1,0,0,1.2154,optionRight,30,15580,7,25,0,25,0,1,,,,,,,,,,,,,,,,,,,,,,,,,,,,,,,,,,,,,,,
,,,,,,,,2023-08-16_08h08.26.174,HF_wild_card,2022.2.4,Win32,60.02040694,5ed9e3fa856ca9599fa8ea91,64d2fd46c836a06233681665,64dc75d673c899f353f75cf0,,,,,,,decisionTrl,resources/DB.BMP,resources/DY.BMP,Door2,0.179629686,0.039814801,1,0,0,0.965,optionRight,40,15620,7,26,0,26,0,1,,,,,,,,,,,,,,,,,,,,,,,,,,,,,,,,,,,,,,,
,,,,,,,,2023-08-16_08h08.26.174,HF_wild_card,2022.2.4,Win32,60.02040694,5ed9e3fa856ca9599fa8ea91,64d2fd46c836a06233681665,64dc75d673c899f353f75cf0,,,,,,,ctch,resources/DY.BMP,resources/DG.BMP,Door2,-0.150925869,-0.00648151,1,0,0,0.8811,optionLeft,40,15660,7,27,0,27,0,1,,,,,,,,,,,,,,,,,,,,,,,,,,,,,,,,,,,,,,,
,,,,,,,,2023-08-16_08h08.26.174,HF_wild_card,2022.2.4,Win32,60.02040694,5ed9e3fa856ca9599fa8ea91,64d2fd46c836a06233681665,64dc75d673c899f353f75cf0,,,,,,,decisionTrl,resources/DY.BMP,resources/DB.BMP,Door2,-0.364814801,-0.02129631,1,0,0,0.9652,optionLeft,40,15700,7,28,0,28,0,1,,,,,,,,,,,,,,,,,,,,,,,,,,,,,,,,,,,,,,,
,,,,,,,,2023-08-16_08h08.26.174,HF_wild_card,2022.2.4,Win32,60.02040694,5ed9e3fa856ca9599fa8ea91,64d2fd46c836a06233681665,64dc75d673c899f353f75cf0,,,,,,,ctch,resources/DB.BMP,resources/DBN.BMP,Door4,0.332407464,-0.093518533,1,0,0,0.7151,optionRight,80,15780,7,29,0,29,0,1,,,,,,,,,,,,,,,,,,,,,,,,,,,,,,,,,,,,,,,
,,,,,,,,2023-08-16_08h08.26.174,HF_wild_card,2022.2.4,Win32,60.02040694,5ed9e3fa856ca9599fa8ea91,64d2fd46c836a06233681665,64dc75d673c899f353f75cf0,,,,,,,ctch,resources/DG.BMP,resources/DY.BMP,Door3,-0.174074046,-0.028703732,1,0,0,0.8812,optionLeft,70,15850,7,30,0,30,0,1,,,,,,,,,,,,,,,,,,,,,,,,,,,,,,,,,,,,,,,
,,,,,,,,2023-08-16_08h08.26.174,HF_wild_card,2022.2.4,Win32,60.02040694,5ed9e3fa856ca9599fa8ea91,64d2fd46c836a06233681665,64dc75d673c899f353f75cf0,,,,,,,decisionTrl,resources/DB.BMP,resources/DY.BMP,Door2,0.474074131,-0.143518533,1,0,0,1.3805,optionRight,40,15890,7,31,0,31,0,1,,,,,,,,,,,,,,,,,,,,,,,,,,,,,,,,,,,,,,,
,,,,,,,,2023-08-16_08h08.26.174,HF_wild_card,2022.2.4,Win32,60.02040694,5ed9e3fa856ca9599fa8ea91,64d2fd46c836a06233681665,64dc75d673c899f353f75cf0,,,,,,,decisionTrl,resources/DBN.BMP,resources/DG.BMP,Door3,0.15,0.010185157,1,0,0,0.9546,optionRight,70,15960,7,32,0,32,0,1,,,,,,,,,,,,,,,,,,,,,,,,,,,,,,,,,,,,,,,
,,,,,,,,2023-08-16_08h08.26.174,HF_wild_card,2022.2.4,Win32,60.02040694,5ed9e3fa856ca9599fa8ea91,64d2fd46c836a06233681665,64dc75d673c899f353f75cf0,,,,,,,decisionTrl,resources/DBN.BMP,resources/DG.BMP,Door4,-0.348148134,0.025925912,1,0,0,0.7655,optionLeft,80,16040,7,33,0,33,0,1,,,,,,,,,,,,,,,,,,,,,,,,,,,,,,,,,,,,,,,
,,,,,,,,2023-08-16_08h08.26.174,HF_wild_card,2022.2.4,Win32,60.02040694,5ed9e3fa856ca9599fa8ea91,64d2fd46c836a06233681665,64dc75d673c899f353f75cf0,,,,,,,decisionTrl,resources/DG.BMP,resources/DBN.BMP,Door4,0.293518575,0.011111111,1,0,0,0.8146,optionRight,80,16120,7,34,0,34,0,1,,,,,,,,,,,,,,,,,,,,,,,,,,,,,,,,,,,,,,,
,,,,,,,,2023-08-16_08h08.26.174,HF_wild_card,2022.2.4,Win32,60.02040694,5ed9e3fa856ca9599fa8ea91,64d2fd46c836a06233681665,64dc75d673c899f353f75cf0,,,,,,,decisionTrl,resources/DB.BMP,resources/DY.BMP,Door2,0.275,0.063888889,1,0,0,1.0479,optionRight,20,16140,7,35,0,35,0,1,,,,,,,,,,,,,,,,,,,,,,,,,,,,,,,,,,,,,,,
,,,,,,,,2023-08-16_08h08.26.174,HF_wild_card,2022.2.4,Win32,60.02040694,5ed9e3fa856ca9599fa8ea91,64d2fd46c836a06233681665,64dc75d673c899f353f75cf0,,,,,,,,,,,,,,,,,,,,,,,,,,6,0,6,0,1,,,,,,,,,,,,,,,,,,,,,,,,,,,,,,,,,,
,,,,,,,,2023-08-16_08h08.26.174,HF_wild_card,2022.2.4,Win32,60.02040694,5ed9e3fa856ca9599fa8ea91,64d2fd46c836a06233681665,64dc75d673c899f353f75cf0,,,,,,,,,,,,,,,,,,,,,,,,,,,,,,,4,,,,,,,,,,,,,,,,,,,,,,,,,,,,,,,,,
,,,,,,,,2023-08-16_08h08.26.174,HF_wild_card,2022.2.4,Win32,60.02040694,5ed9e3fa856ca9599fa8ea91,64d2fd46c836a06233681665,64dc75d673c899f353f75cf0,,,,,,,,,,,,,,,,,,,,,,,,,,,,,,,,,,,,,,,,,,,,,,,,,,,,,,,,,,,,,,,,
,,,,,,,,2023-08-16_08h08.26.174,HF_wild_card,2022.2.4,Win32,60.02040694,5ed9e3fa856ca9599fa8ea91,64d2fd46c836a06233681665,64dc75d673c899f353f75cf0,,,,,,,,,,,,,,,,,,,,,,,,,,,,,,,,80,Door4,resources/DBN.BMP,0,0,0,0,1,,,,,,,,,,,,,,,,,,,,,,,,,
,,,,,,,,2023-08-16_08h08.26.174,HF_wild_card,2022.2.4,Win32,60.02040694,5ed9e3fa856ca9599fa8ea91,64d2fd46c836a06233681665,64dc75d673c899f353f75cf0,,,,,,,,,,,,,,,,,,,,,,,,,,,,,,,,40,Door3,resources/DG.BMP,1,0,1,0,1,,,,,,,,,,,,,,,,,,,,,,,,,
,,,,,,,,2023-08-16_08h08.26.174,HF_wild_card,2022.2.4,Win32,60.02040694,5ed9e3fa856ca9599fa8ea91,64d2fd46c836a06233681665,64dc75d673c899f353f75cf0,,,,,,,,,,,,,,,,,,,,,,,,,,,,,,,,55,WC_extreme,resources/DR.BMP,2,0,2,0,1,,,,,,,,,,,,,,,,,,,,,,,,,
,,,,,,,,2023-08-16_08h08.26.174,HF_wild_card,2022.2.4,Win32,60.02040694,5ed9e3fa856ca9599fa8ea91,64d2fd46c836a06233681665,64dc75d673c899f353f75cf0,,,,,,,,,,,,,,,,,,,,,,,,,,,,,,,,70,WC_nonExtreme,resources/DP.BMP,3,0,3,0,1,,,,,,,,,,,,,,,,,,,,,,,,,
,,,,,,,,2023-08-16_08h08.26.174,HF_wild_card,2022.2.4,Win32,60.02040694,5ed9e3fa856ca9599fa8ea91,64d2fd46c836a06233681665,64dc75d673c899f353f75cf0,,,,,,,,,,,,,,,,,,,,,,,,,,,,,,,,40,Door1,resources/DB.BMP,4,0,4,0,1,,,,,,,,,,,,,,,,,,,,,,,,,
,,,,,,,,2023-08-16_08h08.26.174,HF_wild_card,2022.2.4,Win32,60.02040694,5ed9e3fa856ca9599fa8ea91,64d2fd46c836a06233681665,64dc75d673c899f353f75cf0,,,,,,,,,,,,,,,,,,,,,,,,,,,,,,,,20,Door2,resources/DY.BMP,5,0,5,0,1,,,,,,,,,,,,,,,,,,,,,,,,,
,,,,,,,,2023-08-16_08h08.26.174,HF_wild_card,2022.2.4,Win32,60.02040694,5ed9e3fa856ca9599fa8ea91,64d2fd46c836a06233681665,64dc75d673c899f353f75cf0,,,,,,,,,,,,,,,,,,,,,,,,,,,,,,,,,,,,,,,,,,,,,,,,,,,,,,,,,,,,,,,,
