Condition,Low fixed image (Door1),Low risky image (Door2),High fixed image (Door3),High risky image (Door4),Extreme Wild Card,NonExtreme Wild Card,,date,expName,psychopyVersion,OS,frameRate,PROLIFIC_PID,STUDY_ID,SESSION_ID,mouse_2.x,mouse_2.y,mouse_2.leftButton,mouse_2.midButton,mouse_2.rightButton,mouse_2.clicked_name,Trial Type,Left Option Image,Right Option Image,Chosen Door,mouse.x,mouse.y,mouse.leftButton,mouse.midButton,mouse.rightButton,mouse.time,mouse.clicked_name,Feedback,Cumulative Reward,Block,trial.thisRepN,trial.thisTrialN,trial.thisN,trial.thisIndex,trial.ran,blocks.thisRepN,blocks.thisTrialN,blocks.thisN,blocks.thisIndex,blocks.ran,Money conversion,First Outcome Reported,Shown Door (First Outcome),Displayed Image (First Outcome),outcomes.thisRepN,outcomes.thisTrialN,outcomes.thisN,outcomes.thisIndex,outcomes.ran,judgments.thisRepN,judgments.thisTrialN,judgments.thisN,judgments.thisIndex,judgments.ran,freqMouse.x,freqMouse.y,freqMouse.leftButton,freqMouse.midButton,freqMouse.rightButton,freqMouse.clicked_name,FQJ for first outcome,FQJ for second outcome,Shown Door,Displayed Image,trials.thisRepN,trials.thisTrialN,trials.thisN,trials.thisIndex,trials.ran,judgBlock.thisRepN,judgBlock.thisTrialN,judgBlock.thisN,judgBlock.thisIndex,judgBlock.ran
0,resources/DBN.BMP,resources/DY.BMP,resources/DP.BMP,resources/DR.BMP,resources/DG.BMP,resources/DB.BMP,,2023-08-16_08h40.17.408,HF_wild_card,2022.2.4,Win32,59.08070424,610ba21888a1a943ce9c7a0d,64d2fd46c836a06233681665,64dc7d508fa1dd5cafe6c0f5,,,,,,,,,,,,,,,,,,,,,,,,,,,,,,,,,,,,,,,,,,,,,,,,,,,,,,,,,,,,,,,,
,,,,,,,,2023-08-16_08h40.17.408,HF_wild_card,2022.2.4,Win32,59.08070424,610ba21888a1a943ce9c7a0d,64d2fd46c836a06233681665,64dc7d508fa1dd5cafe6c0f5,0.019444444,-0.419444444,1,0,0,agree,,,,,,,,,,,,,,,,,,,,,,,,,,,,,,,,,,,,,,,,,,,,,,,,,,,,,,,,,,
,,,,,,,,2023-08-16_08h40.17.408,HF_wild_card,2022.2.4,Win32,59.08070424,610ba21888a1a943ce9c7a0d,64d2fd46c836a06233681665,64dc7d508fa1dd5cafe6c0f5,,,,,,,,,,,,,,,,,,,,,,,,,,,,,,,,,,,,,,,,,,,,,,,,,,,,,,,,,,,,,,,,
,,,,,,,,2023-08-16_08h40.17.408,HF_wild_card,2022.2.4,Win32,59.08070424,610ba21888a1a943ce9c7a0d,64d2fd46c836a06233681665,64dc7d508fa1dd5cafe6c0f5,,,,,,,sngl,resources/Empty.png,resources/DG.BMP,WildCard_Ex,0.422222222,-0.049074088,1,0,0,2.7514,optionRight,5,5,1,0,0,0,0,1,,,,,,,,,,,,,,,,,,,,,,,,,,,,,,,,,,,,,,,
,,,,,,,,2023-08-16_08h40.17.408,HF_wild_card,2022.2.4,Win32,59.08070424,610ba21888a1a943ce9c7a0d,64d2fd46c836a06233681665,64dc7d508fa1dd5cafe6c0f5,,,,,,,sngl,resources/Empty.png,resources/DY.BMP,Door2,0.429629686,-0.040740755,1,0,0,1.3285,optionRight,20,25,1,1,0,1,0,1,,,,,,,,,,,,,,,,,,,,,,,,,,,,,,,,,,,,,,,
,,,,,,,,2023-08-16_08h40.17.408,HF_wild_card,2022.2.4,Win32,59.08070424,610ba21888a1a943ce9c7a0d,64d2fd46c836a06233681665,64dc7d508fa1dd5cafe6c0f5,,,,,,,sngl,resources/Empty.png,resources/DP.BMP,Door3,0.475,-0.029629644,1,0,0,0.9338,optionRight,70,95,1,2,0,2,0,1,,,,,,,,,,,,,,,,,,,,,,,,,,,,,,,,,,,,,,,
,,,,,,,,2023-08-16_08h40.17.408,HF_wild_card,2022.2.4,Win32,59.08070424,610ba21888a1a943ce9c7a0d,64d2fd46c836a06233681665,64dc7d508fa1dd5cafe6c0f5,,,,,,,ctch,resources/DBN.BMP,resources/DR.BMP,Door4,0.436111111,0.016666667,1,0,0,2.2457,optionRight,80,175,1,3,0,3,0,1,,,,,,,,,,,,,,,,,,,,,,,,,,,,,,,,,,,,,,,
,,,,,,,,2023-08-16_08h40.17.408,HF_wild_card,2022.2.4,Win32,59.08070424,610ba21888a1a943ce9c7a0d,64d2fd46c836a06233681665,64dc7d508fa1dd5cafe6c0f5,,,,,,,decisionTrl,resources/DP.BMP,resources/DR.BMP,Door3,-0.259259245,-0.019444444,1,0,0,1.7284,optionLeft,70,245,1,4,0,4,0,1,,,,,,,,,,,,,,,,,,,,,,,,,,,,,,,,,,,,,,,
,,,,,,,,2023-08-16_08h40.17.408,HF_wild_card,2022.2.4,Win32,59.08070424,610ba21888a1a943ce9c7a0d,64d2fd46c836a06233681665,64dc7d508fa1dd5cafe6c0f5,,,,,,,decisionTrl,resources/DP.BMP,resources/DR.BMP,Door3,-0.262037023,-0.047222222,1,0,0,1.1801,optionLeft,70,315,1,5,0,5,0,1,,,,,,,,,,,,,,,,,,,,,,,,,,,,,,,,,,,,,,,
,,,,,,,,2023-08-16_08h40.17.408,HF_wild_card,2022.2.4,Win32,59.08070424,610ba21888a1a943ce9c7a0d,64d2fd46c836a06233681665,64dc7d508fa1dd5cafe6c0f5,,,,,,,decisionTrl,resources/DR.BMP,resources/DP.BMP,Door4,-0.188888889,-0.014814843,1,0,0,1.58,optionLeft,80,395,1,6,0,6,0,1,,,,,,,,,,,,,,,,,,,,,,,,,,,,,,,,,,,,,,,
,,,,,,,,2023-08-16_08h40.17.408,HF_wild_card,2022.2.4,Win32,59.08070424,610ba21888a1a943ce9c7a0d,64d2fd46c836a06233681665,64dc7d508fa1dd5cafe6c0f5,,,,,,,ctch,resources/DR.BMP,resources/DBN.BMP,Door1,0.410185242,0.01851849,1,0,0,1.1675,optionRight,30,425,1,7,0,7,0,1,,,,,,,,,,,,,,,,,,,,,,,,,,,,,,,,,,,,,,,
,,,,,,,,2023-08-16_08h40.17.408,HF_wild_card,2022.2.4,Win32,59.08070424,610ba21888a1a943ce9c7a0d,64d2fd46c836a06233681665,64dc7d508fa1dd5cafe6c0f5,,,,,,,ctch,resources/DBN.BMP,resources/DR.BMP,Door1,-0.238888889,0.024074046,1,0,0,2.3928,optionLeft,30,455,1,8,0,8,0,1,,,,,,,,,,,,,,,,,,,,,,,,,,,,,,,,,,,,,,,
,,,,,,,,2023-08-16_08h40.17.408,HF_wild_card,2022.2.4,Win32,59.08070424,610ba21888a1a943ce9c7a0d,64d2fd46c836a06233681665,64dc7d508fa1dd5cafe6c0f5,,,,,,,ctch,resources/DY.BMP,resources/DP.BMP,Door2,-0.154629601,0.027777778,1,0,0,1.6641,optionLeft,20,475,1,9,0,9,0,1,,,,,,,,,,,,,,,,,,,,,,,,,,,,,,,,,,,,,,,
,,,,,,,,2023-08-16_08h40.17.408,HF_wild_card,2022.2.4,Win32,59.08070424,610ba21888a1a943ce9c7a0d,64d2fd46c836a06233681665,64dc7d508fa1dd5cafe6c0f5,,,,,,,ctch,resources/DP.BMP,resources/DY.BMP,Door3,-0.233333333,-0.007407422,1,0,0,0.9479,optionLeft,70,545,1,10,0,10,0,1,,,,,,,,,,,,,,,,,,,,,,,,,,,,,,,,,,,,,,,
,,,,,,,,2023-08-16_08h40.17.408,HF_wild_card,2022.2.4,Win32,59.08070424,610ba21888a1a943ce9c7a0d,64d2fd46c836a06233681665,64dc7d508fa1dd5cafe6c0f5,,,,,,,decisionTrl,resources/DBN.BMP,resources/DY.BMP,Door2,0.247222222,-0.001851866,1,0,0,2.8656,optionRight,40,585,1,11,0,11,0,1,,,,,,,,,,,,,,,,,,,,,,,,,,,,,,,,,,,,,,,
,,,,,,,,2023-08-16_08h40.17.408,HF_wild_card,2022.2.4,Win32,59.08070424,610ba21888a1a943ce9c7a0d,64d2fd46c836a06233681665,64dc7d508fa1dd5cafe6c0f5,,,,,,,sngl,resources/Empty.png,resources/DBN.BMP,Door1,0.352777778,0.029629601,1,0,0,1.0972,optionRight,30,615,1,12,0,12,0,1,,,,,,,,,,,,,,,,,,,,,,,,,,,,,,,,,,,,,,,
,,,,,,,,2023-08-16_08h40.17.408,HF_wild_card,2022.2.4,Win32,59.08070424,610ba21888a1a943ce9c7a0d,64d2fd46c836a06233681665,64dc7d508fa1dd5cafe6c0f5,,,,,,,decisionTrl,resources/DG.BMP,resources/DY.BMP,Door2,0.420370399,0.017592578,1,0,0,1.4589,optionRight,20,635,1,13,0,13,0,1,,,,,,,,,,,,,,,,,,,,,,,,,,,,,,,,,,,,,,,
,,,,,,,,2023-08-16_08h40.17.408,HF_wild_card,2022.2.4,Win32,59.08070424,610ba21888a1a943ce9c7a0d,64d2fd46c836a06233681665,64dc7d508fa1dd5cafe6c0f5,,,,,,,decisionTrl,resources/DR.BMP,resources/DP.BMP,Door3,0.327777778,0,1,0,0,1.4151,optionRight,70,705,1,14,0,14,0,1,,,,,,,,,,,,,,,,,,,,,,,,,,,,,,,,,,,,,,,
,,,,,,,,2023-08-16_08h40.17.408,HF_wild_card,2022.2.4,Win32,59.08070424,610ba21888a1a943ce9c7a0d,64d2fd46c836a06233681665,64dc7d508fa1dd5cafe6c0f5,,,,,,,decisionTrl,resources/DG.BMP,resources/DBN.BMP,WildCard_Ex,-0.323148134,-0.023148176,1,0,0,1.277,optionLeft,5,710,1,15,0,15,0,1,,,,,,,,,,,,,,,,,,,,,,,,,,,,,,,,,,,,,,,
,,,,,,,,2023-08-16_08h40.17.408,HF_wild_card,2022.2.4,Win32,59.08070424,610ba21888a1a943ce9c7a0d,64d2fd46c836a06233681665,64dc7d508fa1dd5cafe6c0f5,,,,,,,ctch,resources/DY.BMP,resources/DP.BMP,Door3,0.326851908,0.017592578,1,0,0,2.0361,optionRight,70,780,1,16,0,16,0,1,,,,,,,,,,,,,,,,,,,,,,,,,,,,,,,,,,,,,,,
,,,,,,,,2023-08-16_08h40.17.408,HF_wild_card,2022.2.4,Win32,59.08070424,610ba21888a1a943ce9c7a0d,64d2fd46c836a06233681665,64dc7d508fa1dd5cafe6c0f5,,,,,,,decisionTrl,resources/DG.BMP,resources/DR.BMP,Door4,0.348148176,-0.054629644,1,0,0,1.3484,optionRight,80,860,1,17,0,17,0,1,,,,,,,,,,,,,,,,,,,,,,,,,,,,,,,,,,,,,,,
,,,,,,,,2023-08-16_08h40.17.408,HF_wild_card,2022.2.4,Win32,59.08070424,610ba21888a1a943ce9c7a0d,64d2fd46c836a06233681665,64dc7d508fa1dd5cafe6c0f5,,,,,,,decisionTrl,resources/DY.BMP,resources/DBN.BMP,Door1,0.359259288,0.013888889,1,0,0,2.8792,optionRight,30,890,1,18,0,18,0,1,,,,,,,,,,,,,,,,,,,,,,,,,,,,,,,,,,,,,,,
,,,,,,,,2023-08-16_08h40.17.408,HF_wild_card,2022.2.4,Win32,59.08070424,610ba21888a1a943ce9c7a0d,64d2fd46c836a06233681665,64dc7d508fa1dd5cafe6c0f5,,,,,,,sngl,resources/DBN.BMP,resources/Empty.png,Door1,-0.307407379,0.024074046,1,0,0,0.9088,optionLeft,30,920,1,19,0,19,0,1,,,,,,,,,,,,,,,,,,,,,,,,,,,,,,,,,,,,,,,
,,,,,,,,2023-08-16_08h40.17.408,HF_wild_card,2022.2.4,Win32,59.08070424,610ba21888a1a943ce9c7a0d,64d2fd46c836a06233681665,64dc7d508fa1dd5cafe6c0f5,,,,,,,decisionTrl,resources/DBN.BMP,resources/DY.BMP,Door1,-0.2,0.007407379,1,0,0,1.3478,optionLeft,30,950,1,20,0,20,0,1,,,,,,,,,,,,,,,,,,,,,,,,,,,,,,,,,,,,,,,
,,,,,,,,2023-08-16_08h40.17.408,HF_wild_card,2022.2.4,Win32,59.08070424,610ba21888a1a943ce9c7a0d,64d2fd46c836a06233681665,64dc7d508fa1dd5cafe6c0f5,,,,,,,decisionTrl,resources/DP.BMP,resources/DR.BMP,Door4,0.382407464,0.038888889,1,0,0,1.9257,optionRight,80,1030,1,21,0,21,0,1,,,,,,,,,,,,,,,,,,,,,,,,,,,,,,,,,,,,,,,
,,,,,,,,2023-08-16_08h40.17.408,HF_wild_card,2022.2.4,Win32,59.08070424,610ba21888a1a943ce9c7a0d,64d2fd46c836a06233681665,64dc7d508fa1dd5cafe6c0f5,,,,,,,ctch,resources/DP.BMP,resources/DY.BMP,Door3,-0.260185157,0.001851824,1,0,0,1.4597,optionLeft,70,1100,1,22,0,22,0,1,,,,,,,,,,,,,,,,,,,,,,,,,,,,,,,,,,,,,,,
,,,,,,,,2023-08-16_08h40.17.408,HF_wild_card,2022.2.4,Win32,59.08070424,610ba21888a1a943ce9c7a0d,64d2fd46c836a06233681665,64dc7d508fa1dd5cafe6c0f5,,,,,,,decisionTrl,resources/DBN.BMP,resources/DY.BMP,Door1,-0.172222222,0.015740712,1,0,0,1.7929,optionLeft,30,1130,1,23,0,23,0,1,,,,,,,,,,,,,,,,,,,,,,,,,,,,,,,,,,,,,,,
,,,,,,,,2023-08-16_08h40.17.408,HF_wild_card,2022.2.4,Win32,59.08070424,610ba21888a1a943ce9c7a0d,64d2fd46c836a06233681665,64dc7d508fa1dd5cafe6c0f5,,,,,,,decisionTrl,resources/DY.BMP,resources/DG.BMP,Door2,-0.148148092,-0.022222222,1,0,0,2.3968,optionLeft,20,1150,1,24,0,24,0,1,,,,,,,,,,,,,,,,,,,,,,,,,,,,,,,,,,,,,,,
,,,,,,,,2023-08-16_08h40.17.408,HF_wild_card,2022.2.4,Win32,59.08070424,610ba21888a1a943ce9c7a0d,64d2fd46c836a06233681665,64dc7d508fa1dd5cafe6c0f5,,,,,,,decisionTrl,resources/DR.BMP,resources/DP.BMP,Door4,-0.26851849,0.004629601,1,0,0,0.8847,optionLeft,80,1230,1,25,0,25,0,1,,,,,,,,,,,,,,,,,,,,,,,,,,,,,,,,,,,,,,,
,,,,,,,,2023-08-16_08h40.17.408,HF_wild_card,2022.2.4,Win32,59.08070424,610ba21888a1a943ce9c7a0d,64d2fd46c836a06233681665,64dc7d508fa1dd5cafe6c0f5,,,,,,,decisionTrl,resources/DG.BMP,resources/DP.BMP,Door3,0.333333333,-0.018518533,1,0,0,1.3458,optionRight,70,1300,1,26,0,26,0,1,,,,,,,,,,,,,,,,,,,,,,,,,,,,,,,,,,,,,,,
,,,,,,,,2023-08-16_08h40.17.408,HF_wild_card,2022.2.4,Win32,59.08070424,610ba21888a1a943ce9c7a0d,64d2fd46c836a06233681665,64dc7d508fa1dd5cafe6c0f5,,,,,,,sngl,resources/Empty.png,resources/DG.BMP,WildCard_Ex,0.283333333,0.011111111,1,0,0,0.9765,optionRight,95,1395,1,27,0,27,0,1,,,,,,,,,,,,,,,,,,,,,,,,,,,,,,,,,,,,,,,
,,,,,,,,2023-08-16_08h40.17.408,HF_wild_card,2022.2.4,Win32,59.08070424,610ba21888a1a943ce9c7a0d,64d2fd46c836a06233681665,64dc7d508fa1dd5cafe6c0f5,,,,,,,decisionTrl,resources/DBN.BMP,resources/DG.BMP,WildCard_Ex,0.337963019,0.021296268,1,0,0,0.9358,optionRight,5,1400,1,28,0,28,0,1,,,,,,,,,,,,,,,,,,,,,,,,,,,,,,,,,,,,,,,
,,,,,,,,2023-08-16_08h40.17.408,HF_wild_card,2022.2.4,Win32,59.08070424,610ba21888a1a943ce9c7a0d,64d2fd46c836a06233681665,64dc7d508fa1dd5cafe6c0f5,,,,,,,sngl,resources/DY.BMP,resources/Empty.png,Door2,-0.262962935,-0.023148176,1,0,0,1.2147,optionLeft,40,1440,1,29,0,29,0,1,,,,,,,,,,,,,,,,,,,,,,,,,,,,,,,,,,,,,,,
,,,,,,,,2023-08-16_08h40.17.408,HF_wild_card,2022.2.4,Win32,59.08070424,610ba21888a1a943ce9c7a0d,64d2fd46c836a06233681665,64dc7d508fa1dd5cafe6c0f5,,,,,,,sngl,resources/DG.BMP,resources/Empty.png,WildCard_Ex,-0.342592578,0.001851824,1,0,0,0.9424,optionLeft,5,1445,1,30,0,30,0,1,,,,,,,,,,,,,,,,,,,,,,,,,,,,,,,,,,,,,,,
,,,,,,,,2023-08-16_08h40.17.408,HF_wild_card,2022.2.4,Win32,59.08070424,610ba21888a1a943ce9c7a0d,64d2fd46c836a06233681665,64dc7d508fa1dd5cafe6c0f5,,,,,,,decisionTrl,resources/DY.BMP,resources/DBN.BMP,Door2,-0.31851849,-0.035185199,1,0,0,1.147,optionLeft,40,1485,1,31,0,31,0,1,,,,,,,,,,,,,,,,,,,,,,,,,,,,,,,,,,,,,,,
,,,,,,,,2023-08-16_08h40.17.408,HF_wild_card,2022.2.4,Win32,59.08070424,610ba21888a1a943ce9c7a0d,64d2fd46c836a06233681665,64dc7d508fa1dd5cafe6c0f5,,,,,,,sngl,resources/Empty.png,resources/DR.BMP,Door4,0.436111111,0.015740712,1,0,0,0.9599,optionRight,60,1545,1,32,0,32,0,1,,,,,,,,,,,,,,,,,,,,,,,,,,,,,,,,,,,,,,,
,,,,,,,,2023-08-16_08h40.17.408,HF_wild_card,2022.2.4,Win32,59.08070424,610ba21888a1a943ce9c7a0d,64d2fd46c836a06233681665,64dc7d508fa1dd5cafe6c0f5,,,,,,,decisionTrl,resources/DY.BMP,resources/DBN.BMP,Door2,-0.241666667,0.001851824,1,0,0,1.147,optionLeft,40,1585,1,33,0,33,0,1,,,,,,,,,,,,,,,,,,,,,,,,,,,,,,,,,,,,,,,
,,,,,,,,2023-08-16_08h40.17.408,HF_wild_card,2022.2.4,Win32,59.08070424,610ba21888a1a943ce9c7a0d,64d2fd46c836a06233681665,64dc7d508fa1dd5cafe6c0f5,,,,,,,decisionTrl,resources/DBN.BMP,resources/DY.BMP,Door2,0.341666667,0,1,0,0,1.0974,optionRight,20,1605,1,34,0,34,0,1,,,,,,,,,,,,,,,,,,,,,,,,,,,,,,,,,,,,,,,
,,,,,,,,2023-08-16_08h40.17.408,HF_wild_card,2022.2.4,Win32,59.08070424,610ba21888a1a943ce9c7a0d,64d2fd46c836a06233681665,64dc7d508fa1dd5cafe6c0f5,,,,,,,decisionTrl,resources/DP.BMP,resources/DG.BMP,WildCard_Ex,0.352777778,0.010185157,1,0,0,1.9321,optionRight,5,1610,1,35,0,35,0,1,,,,,,,,,,,,,,,,,,,,,,,,,,,,,,,,,,,,,,,
,,,,,,,,2023-08-16_08h40.17.408,HF_wild_card,2022.2.4,Win32,59.08070424,610ba21888a1a943ce9c7a0d,64d2fd46c836a06233681665,64dc7d508fa1dd5cafe6c0f5,,,,,,,decisionTrl,resources/DR.BMP,resources/DP.BMP,Door3,0.298148176,-0.00648151,1,0,0,1.0289,optionRight,70,1680,1,36,0,36,0,1,,,,,,,,,,,,,,,,,,,,,,,,,,,,,,,,,,,,,,,
,,,,,,,,2023-08-16_08h40.17.408,HF_wild_card,2022.2.4,Win32,59.08070424,610ba21888a1a943ce9c7a0d,64d2fd46c836a06233681665,64dc7d508fa1dd5cafe6c0f5,,,,,,,decisionTrl,resources/DR.BMP,resources/DG.BMP,Door4,-0.374074046,-0.012037065,1,0,0,0.8604,optionLeft,80,1760,1,37,0,37,0,1,,,,,,,,,,,,,,,,,,,,,,,,,,,,,,,,,,,,,,,
,,,,,,,,2023-08-16_08h40.17.408,HF_wild_card,2022.2.4,Win32,59.08070424,610ba21888a1a943ce9c7a0d,64d2fd46c836a06233681665,64dc7d508fa1dd5cafe6c0f5,,,,,,,decisionTrl,resources/DY.BMP,resources/DBN.BMP,Door2,-0.199074046,-0.012962977,1,0,0,1.8804,optionLeft,20,1780,1,38,0,38,0,1,,,,,,,,,,,,,,,,,,,,,,,,,,,,,,,,,,,,,,,
,,,,,,,,2023-08-16_08h40.17.408,HF_wild_card,2022.2.4,Win32,59.08070424,610ba21888a1a943ce9c7a0d,64d2fd46c836a06233681665,64dc7d508fa1dd5cafe6c0f5,,,,,,,sngl,resources/DP.BMP,resources/Empty.png,Door3,-0.198148134,-0.016666667,1,0,0,0.8175,optionLeft,70,1850,1,39,0,39,0,1,,,,,,,,,,,,,,,,,,,,,,,,,,,,,,,,,,,,,,,
,,,,,,,,2023-08-16_08h40.17.408,HF_wild_card,2022.2.4,Win32,59.08070424,610ba21888a1a943ce9c7a0d,64d2fd46c836a06233681665,64dc7d508fa1dd5cafe6c0f5,,,,,,,ctch,resources/DR.BMP,resources/DBN.BMP,Door4,-0.249074046,-0.033333333,1,0,0,1.0309,optionLeft,80,1930,1,40,0,40,0,1,,,,,,,,,,,,,,,,,,,,,,,,,,,,,,,,,,,,,,,
,,,,,,,,2023-08-16_08h40.17.408,HF_wild_card,2022.2.4,Win32,59.08070424,610ba21888a1a943ce9c7a0d,64d2fd46c836a06233681665,64dc7d508fa1dd5cafe6c0f5,,,,,,,decisionTrl,resources/DP.BMP,resources/DR.BMP,Door4,0.35,-0.016666667,1,0,0,2.2646,optionRight,60,1990,1,41,0,41,0,1,,,,,,,,,,,,,,,,,,,,,,,,,,,,,,,,,,,,,,,
,,,,,,,,2023-08-16_08h40.17.408,HF_wild_card,2022.2.4,Win32,59.08070424,610ba21888a1a943ce9c7a0d,64d2fd46c836a06233681665,64dc7d508fa1dd5cafe6c0f5,,,,,,,sngl,resources/DG.BMP,resources/Empty.png,WildCard_Ex,-0.277777778,-0.033333333,1,0,0,0.8802,optionLeft,95,2085,1,42,0,42,0,1,,,,,,,,,,,,,,,,,,,,,,,,,,,,,,,,,,,,,,,
,,,,,,,,2023-08-16_08h40.17.408,HF_wild_card,2022.2.4,Win32,59.08070424,610ba21888a1a943ce9c7a0d,64d2fd46c836a06233681665,64dc7d508fa1dd5cafe6c0f5,,,,,,,sngl,resources/DR.BMP,resources/Empty.png,Door4,-0.360185157,-0.024074088,1,0,0,0.9518,optionLeft,80,2165,1,43,0,43,0,1,,,,,,,,,,,,,,,,,,,,,,,,,,,,,,,,,,,,,,,
,,,,,,,,2023-08-16_08h40.17.408,HF_wild_card,2022.2.4,Win32,59.08070424,610ba21888a1a943ce9c7a0d,64d2fd46c836a06233681665,64dc7d508fa1dd5cafe6c0f5,,,,,,,,,,,,,,,,,,,,,,,,,,0,0,0,0,1,,,,,,,,,,,,,,,,,,,,,,,,,,,,,,,,,,
,,,,,,,,2023-08-16_08h40.17.408,HF_wild_card,2022.2.4,Win32,59.08070424,610ba21888a1a943ce9c7a0d,64d2fd46c836a06233681665,64dc7d508fa1dd5cafe6c0f5,,,,,,,ctch,resources/DR.BMP,resources/DBN.BMP,Door1,0.261111111,0.044444444,1,0,0,1.4849,optionRight,30,2195,2,0,0,0,0,1,,,,,,,,,,,,,,,,,,,,,,,,,,,,,,,,,,,,,,,
,,,,,,,,2023-08-16_08h40.17.408,HF_wild_card,2022.2.4,Win32,59.08070424,610ba21888a1a943ce9c7a0d,64d2fd46c836a06233681665,64dc7d508fa1dd5cafe6c0f5,,,,,,,decisionTrl,resources/DR.BMP,resources/DG.BMP,WildCard_Ex,0.315740797,-0.005555556,1,0,0,1.1467,optionRight,5,2200,2,1,0,1,0,1,,,,,,,,,,,,,,,,,,,,,,,,,,,,,,,,,,,,,,,
,,,,,,,,2023-08-16_08h40.17.408,HF_wild_card,2022.2.4,Win32,59.08070424,610ba21888a1a943ce9c7a0d,64d2fd46c836a06233681665,64dc7d508fa1dd5cafe6c0f5,,,,,,,sngl,resources/DR.BMP,resources/Empty.png,Door4,-0.263888889,-0.007407422,1,0,0,0.7141,optionLeft,60,2260,2,2,0,2,0,1,,,,,,,,,,,,,,,,,,,,,,,,,,,,,,,,,,,,,,,
,,,,,,,,2023-08-16_08h40.17.408,HF_wild_card,2022.2.4,Win32,59.08070424,610ba21888a1a943ce9c7a0d,64d2fd46c836a06233681665,64dc7d508fa1dd5cafe6c0f5,,,,,,,sngl,resources/Empty.png,resources/DY.BMP,Door2,0.387963019,0.048148134,1,0,0,0.8805,optionRight,40,2300,2,3,0,3,0,1,,,,,,,,,,,,,,,,,,,,,,,,,,,,,,,,,,,,,,,
,,,,,,,,2023-08-16_08h40.17.408,HF_wild_card,2022.2.4,Win32,59.08070424,610ba21888a1a943ce9c7a0d,64d2fd46c836a06233681665,64dc7d508fa1dd5cafe6c0f5,,,,,,,decisionTrl,resources/DBN.BMP,resources/DY.BMP,Door2,0.340740797,-0.015740755,1,0,0,1.3311,optionRight,40,2340,2,4,0,4,0,1,,,,,,,,,,,,,,,,,,,,,,,,,,,,,,,,,,,,,,,
,,,,,,,,2023-08-16_08h40.17.408,HF_wild_card,2022.2.4,Win32,59.08070424,610ba21888a1a943ce9c7a0d,64d2fd46c836a06233681665,64dc7d508fa1dd5cafe6c0f5,,,,,,,sngl,resources/DG.BMP,resources/Empty.png,WildCard_Ex,-0.287037023,-0.014814843,1,0,0,0.7822,optionLeft,5,2345,2,5,0,5,0,1,,,,,,,,,,,,,,,,,,,,,,,,,,,,,,,,,,,,,,,
,,,,,,,,2023-08-16_08h40.17.408,HF_wild_card,2022.2.4,Win32,59.08070424,610ba21888a1a943ce9c7a0d,64d2fd46c836a06233681665,64dc7d508fa1dd5cafe6c0f5,,,,,,,sngl,resources/Empty.png,resources/DG.BMP,WildCard_Ex,0.33148151,0.017592578,1,0,0,0.8473,optionRight,95,2440,2,6,0,6,0,1,,,,,,,,,,,,,,,,,,,,,,,,,,,,,,,,,,,,,,,
,,,,,,,,2023-08-16_08h40.17.408,HF_wild_card,2022.2.4,Win32,59.08070424,610ba21888a1a943ce9c7a0d,64d2fd46c836a06233681665,64dc7d508fa1dd5cafe6c0f5,,,,,,,decisionTrl,resources/DY.BMP,resources/DBN.BMP,Door2,-0.297222222,-0.030555556,1,0,0,1.1129,optionLeft,20,2460,2,7,0,7,0,1,,,,,,,,,,,,,,,,,,,,,,,,,,,,,,,,,,,,,,,
,,,,,,,,2023-08-16_08h40.17.408,HF_wild_card,2022.2.4,Win32,59.08070424,610ba21888a1a943ce9c7a0d,64d2fd46c836a06233681665,64dc7d508fa1dd5cafe6c0f5,,,,,,,decisionTrl,resources/DBN.BMP,resources/DG.BMP,WildCard_Ex,0.299074131,0.011111111,1,0,0,0.9466,optionRight,5,2465,2,8,0,8,0,1,,,,,,,,,,,,,,,,,,,,,,,,,,,,,,,,,,,,,,,
,,,,,,,,2023-08-16_08h40.17.408,HF_wild_card,2022.2.4,Win32,59.08070424,610ba21888a1a943ce9c7a0d,64d2fd46c836a06233681665,64dc7d508fa1dd5cafe6c0f5,,,,,,,sngl,resources/Empty.png,resources/DR.BMP,Door4,0.307407464,0.009259245,1,0,0,0.9638,optionRight,80,2545,2,9,0,9,0,1,,,,,,,,,,,,,,,,,,,,,,,,,,,,,,,,,,,,,,,
,,,,,,,,2023-08-16_08h40.17.408,HF_wild_card,2022.2.4,Win32,59.08070424,610ba21888a1a943ce9c7a0d,64d2fd46c836a06233681665,64dc7d508fa1dd5cafe6c0f5,,,,,,,ctch,resources/DP.BMP,resources/DY.BMP,Door3,-0.249074046,-0.003703732,1,0,0,1.7476,optionLeft,70,2615,2,10,0,10,0,1,,,,,,,,,,,,,,,,,,,,,,,,,,,,,,,,,,,,,,,
,,,,,,,,2023-08-16_08h40.17.408,HF_wild_card,2022.2.4,Win32,59.08070424,610ba21888a1a943ce9c7a0d,64d2fd46c836a06233681665,64dc7d508fa1dd5cafe6c0f5,,,,,,,decisionTrl,resources/DBN.BMP,resources/DY.BMP,Door2,0.328703732,-0.003703732,1,0,0,1.0973,optionRight,20,2635,2,11,0,11,0,1,,,,,,,,,,,,,,,,,,,,,,,,,,,,,,,,,,,,,,,
,,,,,,,,2023-08-16_08h40.17.408,HF_wild_card,2022.2.4,Win32,59.08070424,610ba21888a1a943ce9c7a0d,64d2fd46c836a06233681665,64dc7d508fa1dd5cafe6c0f5,,,,,,,decisionTrl,resources/DP.BMP,resources/DR.BMP,Door3,-0.283333333,-0.030555556,1,0,0,0.9474,optionLeft,70,2705,2,12,0,12,0,1,,,,,,,,,,,,,,,,,,,,,,,,,,,,,,,,,,,,,,,
,,,,,,,,2023-08-16_08h40.17.408,HF_wild_card,2022.2.4,Win32,59.08070424,610ba21888a1a943ce9c7a0d,64d2fd46c836a06233681665,64dc7d508fa1dd5cafe6c0f5,,,,,,,decisionTrl,resources/DP.BMP,resources/DG.BMP,Door3,-0.20370369,-0.051851866,1,0,0,1.1802,optionLeft,70,2775,2,13,0,13,0,1,,,,,,,,,,,,,,,,,,,,,,,,,,,,,,,,,,,,,,,
,,,,,,,,2023-08-16_08h40.17.408,HF_wild_card,2022.2.4,Win32,59.08070424,610ba21888a1a943ce9c7a0d,64d2fd46c836a06233681665,64dc7d508fa1dd5cafe6c0f5,,,,,,,sngl,resources/DBN.BMP,resources/Empty.png,Door1,-0.325925912,0.006481467,1,0,0,0.9643,optionLeft,30,2805,2,14,0,14,0,1,,,,,,,,,,,,,,,,,,,,,,,,,,,,,,,,,,,,,,,
,,,,,,,,2023-08-16_08h40.17.408,HF_wild_card,2022.2.4,Win32,59.08070424,610ba21888a1a943ce9c7a0d,64d2fd46c836a06233681665,64dc7d508fa1dd5cafe6c0f5,,,,,,,decisionTrl,resources/DP.BMP,resources/DR.BMP,Door3,-0.202777778,-0.011111111,1,0,0,0.9626,optionLeft,70,2875,2,15,0,15,0,1,,,,,,,,,,,,,,,,,,,,,,,,,,,,,,,,,,,,,,,
,,,,,,,,2023-08-16_08h40.17.408,HF_wild_card,2022.2.4,Win32,59.08070424,610ba21888a1a943ce9c7a0d,64d2fd46c836a06233681665,64dc7d508fa1dd5cafe6c0f5,,,,,,,decisionTrl,resources/DBN.BMP,resources/DY.BMP,Door2,0.335185242,-0.000925954,1,0,0,1.0473,optionRight,40,2915,2,16,0,16,0,1,,,,,,,,,,,,,,,,,,,,,,,,,,,,,,,,,,,,,,,
,,,,,,,,2023-08-16_08h40.17.408,HF_wild_card,2022.2.4,Win32,59.08070424,610ba21888a1a943ce9c7a0d,64d2fd46c836a06233681665,64dc7d508fa1dd5cafe6c0f5,,,,,,,ctch,resources/DP.BMP,resources/DY.BMP,Door3,-0.347222222,-0.011111111,1,0,0,1.0636,optionLeft,70,2985,2,17,0,17,0,1,,,,,,,,,,,,,,,,,,,,,,,,,,,,,,,,,,,,,,,
,,,,,,,,2023-08-16_08h40.17.408,HF_wild_card,2022.2.4,Win32,59.08070424,610ba21888a1a943ce9c7a0d,64d2fd46c836a06233681665,64dc7d508fa1dd5cafe6c0f5,,,,,,,decisionTrl,resources/DG.BMP,resources/DR.BMP,Door4,0.345370399,0.008333333,1,0,0,0.7976,optionRight,60,3045,2,18,0,18,0,1,,,,,,,,,,,,,,,,,,,,,,,,,,,,,,,,,,,,,,,
,,,,,,,,2023-08-16_08h40.17.408,HF_wild_card,2022.2.4,Win32,59.08070424,610ba21888a1a943ce9c7a0d,64d2fd46c836a06233681665,64dc7d508fa1dd5cafe6c0f5,,,,,,,decisionTrl,resources/DP.BMP,resources/DR.BMP,Door3,-0.301851824,-0.026851866,1,0,0,0.7967,optionLeft,70,3115,2,19,0,19,0,1,,,,,,,,,,,,,,,,,,,,,,,,,,,,,,,,,,,,,,,
,,,,,,,,2023-08-16_08h40.17.408,HF_wild_card,2022.2.4,Win32,59.08070424,610ba21888a1a943ce9c7a0d,64d2fd46c836a06233681665,64dc7d508fa1dd5cafe6c0f5,,,,,,,decisionTrl,resources/DR.BMP,resources/DP.BMP,Door3,0.288888889,-0.037962977,1,0,0,1.6969,optionRight,70,3185,2,20,0,20,0,1,,,,,,,,,,,,,,,,,,,,,,,,,,,,,,,,,,,,,,,
,,,,,,,,2023-08-16_08h40.17.408,HF_wild_card,2022.2.4,Win32,59.08070424,610ba21888a1a943ce9c7a0d,64d2fd46c836a06233681665,64dc7d508fa1dd5cafe6c0f5,,,,,,,decisionTrl,resources/DG.BMP,resources/DY.BMP,WildCard_Ex,-0.308333333,0.010185157,1,0,0,1.8638,optionLeft,95,3280,2,21,0,21,0,1,,,,,,,,,,,,,,,,,,,,,,,,,,,,,,,,,,,,,,,
,,,,,,,,2023-08-16_08h40.17.408,HF_wild_card,2022.2.4,Win32,59.08070424,610ba21888a1a943ce9c7a0d,64d2fd46c836a06233681665,64dc7d508fa1dd5cafe6c0f5,,,,,,,sngl,resources/Empty.png,resources/DBN.BMP,Door1,0.337037065,0.033333333,1,0,0,2.0115,optionRight,30,3310,2,22,0,22,0,1,,,,,,,,,,,,,,,,,,,,,,,,,,,,,,,,,,,,,,,
,,,,,,,,2023-08-16_08h40.17.408,HF_wild_card,2022.2.4,Win32,59.08070424,610ba21888a1a943ce9c7a0d,64d2fd46c836a06233681665,64dc7d508fa1dd5cafe6c0f5,,,,,,,decisionTrl,resources/DY.BMP,resources/DBN.BMP,Door2,-0.332407379,-0.025,1,0,0,1.182,optionLeft,40,3350,2,23,0,23,0,1,,,,,,,,,,,,,,,,,,,,,,,,,,,,,,,,,,,,,,,
,,,,,,,,2023-08-16_08h40.17.408,HF_wild_card,2022.2.4,Win32,59.08070424,610ba21888a1a943ce9c7a0d,64d2fd46c836a06233681665,64dc7d508fa1dd5cafe6c0f5,,,,,,,ctch,resources/DBN.BMP,resources/DR.BMP,Door4,0.393518575,0.019444444,1,0,0,1.1317,optionRight,60,3410,2,24,0,24,0,1,,,,,,,,,,,,,,,,,,,,,,,,,,,,,,,,,,,,,,,
,,,,,,,,2023-08-16_08h40.17.408,HF_wild_card,2022.2.4,Win32,59.08070424,610ba21888a1a943ce9c7a0d,64d2fd46c836a06233681665,64dc7d508fa1dd5cafe6c0f5,,,,,,,decisionTrl,resources/DY.BMP,resources/DBN.BMP,Door2,-0.358333333,-0.043518533,1,0,0,1.0141,optionLeft,20,3430,2,25,0,25,0,1,,,,,,,,,,,,,,,,,,,,,,,,,,,,,,,,,,,,,,,
,,,,,,,,2023-08-16_08h40.17.408,HF_wild_card,2022.2.4,Win32,59.08070424,610ba21888a1a943ce9c7a0d,64d2fd46c836a06233681665,64dc7d508fa1dd5cafe6c0f5,,,,,,,decisionTrl,resources/DY.BMP,resources/DBN.BMP,Door1,0.345370399,0.029629601,1,0,0,0.9971,optionRight,30,3460,2,26,0,26,0,1,,,,,,,,,,,,,,,,,,,,,,,,,,,,,,,,,,,,,,,
,,,,,,,,2023-08-16_08h40.17.408,HF_wild_card,2022.2.4,Win32,59.08070424,610ba21888a1a943ce9c7a0d,64d2fd46c836a06233681665,64dc7d508fa1dd5cafe6c0f5,,,,,,,sngl,resources/DG.BMP,resources/Empty.png,WildCard_Ex,-0.245370356,-0.029629644,1,0,0,1.0475,optionLeft,95,3555,2,27,0,27,0,1,,,,,,,,,,,,,,,,,,,,,,,,,,,,,,,,,,,,,,,
,,,,,,,,2023-08-16_08h40.17.408,HF_wild_card,2022.2.4,Win32,59.08070424,610ba21888a1a943ce9c7a0d,64d2fd46c836a06233681665,64dc7d508fa1dd5cafe6c0f5,,,,,,,sngl,resources/DY.BMP,resources/Empty.png,Door2,-0.250925912,0,1,0,0,0.9809,optionLeft,20,3575,2,28,0,28,0,1,,,,,,,,,,,,,,,,,,,,,,,,,,,,,,,,,,,,,,,
,,,,,,,,2023-08-16_08h40.17.408,HF_wild_card,2022.2.4,Win32,59.08070424,610ba21888a1a943ce9c7a0d,64d2fd46c836a06233681665,64dc7d508fa1dd5cafe6c0f5,,,,,,,decisionTrl,resources/DP.BMP,resources/DR.BMP,Door3,-0.191666667,0.011111111,1,0,0,1.181,optionLeft,70,3645,2,29,0,29,0,1,,,,,,,,,,,,,,,,,,,,,,,,,,,,,,,,,,,,,,,
,,,,,,,,2023-08-16_08h40.17.408,HF_wild_card,2022.2.4,Win32,59.08070424,610ba21888a1a943ce9c7a0d,64d2fd46c836a06233681665,64dc7d508fa1dd5cafe6c0f5,,,,,,,ctch,resources/DR.BMP,resources/DBN.BMP,Door4,-0.300925912,-0.030555556,1,0,0,0.8805,optionLeft,60,3705,2,30,0,30,0,1,,,,,,,,,,,,,,,,,,,,,,,,,,,,,,,,,,,,,,,
,,,,,,,,2023-08-16_08h40.17.408,HF_wild_card,2022.2.4,Win32,59.08070424,610ba21888a1a943ce9c7a0d,64d2fd46c836a06233681665,64dc7d508fa1dd5cafe6c0f5,,,,,,,sngl,resources/DP.BMP,resources/Empty.png,Door3,-0.257407379,-0.000925954,1,0,0,0.7802,optionLeft,70,3775,2,31,0,31,0,1,,,,,,,,,,,,,,,,,,,,,,,,,,,,,,,,,,,,,,,
,,,,,,,,2023-08-16_08h40.17.408,HF_wild_card,2022.2.4,Win32,59.08070424,610ba21888a1a943ce9c7a0d,64d2fd46c836a06233681665,64dc7d508fa1dd5cafe6c0f5,,,,,,,decisionTrl,resources/DR.BMP,resources/DP.BMP,Door3,0.360185242,0.004629601,1,0,0,1.0968,optionRight,70,3845,2,32,0,32,0,1,,,,,,,,,,,,,,,,,,,,,,,,,,,,,,,,,,,,,,,
,,,,,,,,2023-08-16_08h40.17.408,HF_wild_card,2022.2.4,Win32,59.08070424,610ba21888a1a943ce9c7a0d,64d2fd46c836a06233681665,64dc7d508fa1dd5cafe6c0f5,,,,,,,sngl,resources/Empty.png,resources/DG.BMP,WildCard_Ex,0.337963019,-0.009259288,1,0,0,0.964,optionRight,5,3850,2,33,0,33,0,1,,,,,,,,,,,,,,,,,,,,,,,,,,,,,,,,,,,,,,,
,,,,,,,,2023-08-16_08h40.17.408,HF_wild_card,2022.2.4,Win32,59.08070424,610ba21888a1a943ce9c7a0d,64d2fd46c836a06233681665,64dc7d508fa1dd5cafe6c0f5,,,,,,,sngl,resources/Empty.png,resources/DP.BMP,Door3,0.33148151,-0.03148151,1,0,0,0.9471,optionRight,70,3920,2,34,0,34,0,1,,,,,,,,,,,,,,,,,,,,,,,,,,,,,,,,,,,,,,,
,,,,,,,,2023-08-16_08h40.17.408,HF_wild_card,2022.2.4,Win32,59.08070424,610ba21888a1a943ce9c7a0d,64d2fd46c836a06233681665,64dc7d508fa1dd5cafe6c0f5,,,,,,,decisionTrl,resources/DG.BMP,resources/DP.BMP,WildCard_Ex,-0.400925912,-0.054629644,1,0,0,0.9633,optionLeft,95,4015,2,35,0,35,0,1,,,,,,,,,,,,,,,,,,,,,,,,,,,,,,,,,,,,,,,
,,,,,,,,2023-08-16_08h40.17.408,HF_wild_card,2022.2.4,Win32,59.08070424,610ba21888a1a943ce9c7a0d,64d2fd46c836a06233681665,64dc7d508fa1dd5cafe6c0f5,,,,,,,decisionTrl,resources/DBN.BMP,resources/DY.BMP,Door2,0.422222222,-0.07129631,1,0,0,1.3469,optionRight,40,4055,2,36,0,36,0,1,,,,,,,,,,,,,,,,,,,,,,,,,,,,,,,,,,,,,,,
,,,,,,,,2023-08-16_08h40.17.408,HF_wild_card,2022.2.4,Win32,59.08070424,610ba21888a1a943ce9c7a0d,64d2fd46c836a06233681665,64dc7d508fa1dd5cafe6c0f5,,,,,,,decisionTrl,resources/DR.BMP,resources/DP.BMP,Door3,0.357407464,-0.039814843,1,0,0,1.0634,optionRight,70,4125,2,37,0,37,0,1,,,,,,,,,,,,,,,,,,,,,,,,,,,,,,,,,,,,,,,
,,,,,,,,2023-08-16_08h40.17.408,HF_wild_card,2022.2.4,Win32,59.08070424,610ba21888a1a943ce9c7a0d,64d2fd46c836a06233681665,64dc7d508fa1dd5cafe6c0f5,,,,,,,decisionTrl,resources/DG.BMP,resources/DBN.BMP,WildCard_Ex,-0.306481467,-0.019444444,1,0,0,0.8301,optionLeft,95,4220,2,38,0,38,0,1,,,,,,,,,,,,,,,,,,,,,,,,,,,,,,,,,,,,,,,
,,,,,,,,2023-08-16_08h40.17.408,HF_wild_card,2022.2.4,Win32,59.08070424,610ba21888a1a943ce9c7a0d,64d2fd46c836a06233681665,64dc7d508fa1dd5cafe6c0f5,,,,,,,decisionTrl,resources/DY.BMP,resources/DG.BMP,Door2,-0.260185157,0.012037023,1,0,0,1.0303,optionLeft,40,4260,2,39,0,39,0,1,,,,,,,,,,,,,,,,,,,,,,,,,,,,,,,,,,,,,,,
,,,,,,,,2023-08-16_08h40.17.408,HF_wild_card,2022.2.4,Win32,59.08070424,610ba21888a1a943ce9c7a0d,64d2fd46c836a06233681665,64dc7d508fa1dd5cafe6c0f5,,,,,,,ctch,resources/DBN.BMP,resources/DR.BMP,Door4,0.353703732,0.01851849,1,0,0,1.1473,optionRight,60,4320,2,40,0,40,0,1,,,,,,,,,,,,,,,,,,,,,,,,,,,,,,,,,,,,,,,
,,,,,,,,2023-08-16_08h40.17.408,HF_wild_card,2022.2.4,Win32,59.08070424,610ba21888a1a943ce9c7a0d,64d2fd46c836a06233681665,64dc7d508fa1dd5cafe6c0f5,,,,,,,decisionTrl,resources/DR.BMP,resources/DP.BMP,Door3,0.307407464,0,1,0,0,1.1473,optionRight,70,4390,2,41,0,41,0,1,,,,,,,,,,,,,,,,,,,,,,,,,,,,,,,,,,,,,,,
,,,,,,,,2023-08-16_08h40.17.408,HF_wild_card,2022.2.4,Win32,59.08070424,610ba21888a1a943ce9c7a0d,64d2fd46c836a06233681665,64dc7d508fa1dd5cafe6c0f5,,,,,,,ctch,resources/DY.BMP,resources/DP.BMP,Door3,0.309259288,-0.064814843,1,0,0,1.0299,optionRight,70,4460,2,42,0,42,0,1,,,,,,,,,,,,,,,,,,,,,,,,,,,,,,,,,,,,,,,
,,,,,,,,2023-08-16_08h40.17.408,HF_wild_card,2022.2.4,Win32,59.08070424,610ba21888a1a943ce9c7a0d,64d2fd46c836a06233681665,64dc7d508fa1dd5cafe6c0f5,,,,,,,ctch,resources/DY.BMP,resources/DP.BMP,Door3,0.302777778,-0.029629644,1,0,0,1.0313,optionRight,70,4530,2,43,0,43,0,1,,,,,,,,,,,,,,,,,,,,,,,,,,,,,,,,,,,,,,,
,,,,,,,,2023-08-16_08h40.17.408,HF_wild_card,2022.2.4,Win32,59.08070424,610ba21888a1a943ce9c7a0d,64d2fd46c836a06233681665,64dc7d508fa1dd5cafe6c0f5,,,,,,,,,,,,,,,,,,,,,,,,,,1,0,1,0,1,,,,,,,,,,,,,,,,,,,,,,,,,,,,,,,,,,
,,,,,,,,2023-08-16_08h40.17.408,HF_wild_card,2022.2.4,Win32,59.08070424,610ba21888a1a943ce9c7a0d,64d2fd46c836a06233681665,64dc7d508fa1dd5cafe6c0f5,,,,,,,decisionTrl,resources/DR.BMP,resources/DP.BMP,Door3,0.362037065,-0.054629644,1,0,0,1.1848,optionRight,70,4600,3,0,0,0,0,1,,,,,,,,,,,,,,,,,,,,,,,,,,,,,,,,,,,,,,,
,,,,,,,,2023-08-16_08h40.17.408,HF_wild_card,2022.2.4,Win32,59.08070424,610ba21888a1a943ce9c7a0d,64d2fd46c836a06233681665,64dc7d508fa1dd5cafe6c0f5,,,,,,,decisionTrl,resources/DG.BMP,resources/DBN.BMP,WildCard_Ex,-0.329629601,-0.039814843,1,0,0,0.7638,optionLeft,5,4605,3,1,0,1,0,1,,,,,,,,,,,,,,,,,,,,,,,,,,,,,,,,,,,,,,,
,,,,,,,,2023-08-16_08h40.17.408,HF_wild_card,2022.2.4,Win32,59.08070424,610ba21888a1a943ce9c7a0d,64d2fd46c836a06233681665,64dc7d508fa1dd5cafe6c0f5,,,,,,,decisionTrl,resources/DP.BMP,resources/DR.BMP,Door3,-0.140740712,-0.075925954,1,0,0,1.6309,optionLeft,70,4675,3,2,0,2,0,1,,,,,,,,,,,,,,,,,,,,,,,,,,,,,,,,,,,,,,,
,,,,,,,,2023-08-16_08h40.17.408,HF_wild_card,2022.2.4,Win32,59.08070424,610ba21888a1a943ce9c7a0d,64d2fd46c836a06233681665,64dc7d508fa1dd5cafe6c0f5,,,,,,,decisionTrl,resources/DP.BMP,resources/DR.BMP,Door3,-0.206481467,-0.005555556,1,0,0,1.0968,optionLeft,70,4745,3,3,0,3,0,1,,,,,,,,,,,,,,,,,,,,,,,,,,,,,,,,,,,,,,,
,,,,,,,,2023-08-16_08h40.17.408,HF_wild_card,2022.2.4,Win32,59.08070424,610ba21888a1a943ce9c7a0d,64d2fd46c836a06233681665,64dc7d508fa1dd5cafe6c0f5,,,,,,,decisionTrl,resources/DP.BMP,resources/DR.BMP,Door3,-0.312037023,-0.050925954,1,0,0,0.7641,optionLeft,70,4815,3,4,0,4,0,1,,,,,,,,,,,,,,,,,,,,,,,,,,,,,,,,,,,,,,,
,,,,,,,,2023-08-16_08h40.17.408,HF_wild_card,2022.2.4,Win32,59.08070424,610ba21888a1a943ce9c7a0d,64d2fd46c836a06233681665,64dc7d508fa1dd5cafe6c0f5,,,,,,,decisionTrl,resources/DY.BMP,resources/DBN.BMP,Door2,-0.236111111,-0.037037065,1,0,0,1.2972,optionLeft,40,4855,3,5,0,5,0,1,,,,,,,,,,,,,,,,,,,,,,,,,,,,,,,,,,,,,,,
,,,,,,,,2023-08-16_08h40.17.408,HF_wild_card,2022.2.4,Win32,59.08070424,610ba21888a1a943ce9c7a0d,64d2fd46c836a06233681665,64dc7d508fa1dd5cafe6c0f5,,,,,,,sngl,resources/Empty.png,resources/DBN.BMP,Door1,0.305555556,0.007407379,1,0,0,0.98,optionRight,30,4885,3,6,0,6,0,1,,,,,,,,,,,,,,,,,,,,,,,,,,,,,,,,,,,,,,,
,,,,,,,,2023-08-16_08h40.17.408,HF_wild_card,2022.2.4,Win32,59.08070424,610ba21888a1a943ce9c7a0d,64d2fd46c836a06233681665,64dc7d508fa1dd5cafe6c0f5,,,,,,,sngl,resources/DY.BMP,resources/Empty.png,Door2,-0.356481467,-0.032407422,1,0,0,0.8311,optionLeft,40,4925,3,7,0,7,0,1,,,,,,,,,,,,,,,,,,,,,,,,,,,,,,,,,,,,,,,
,,,,,,,,2023-08-16_08h40.17.408,HF_wild_card,2022.2.4,Win32,59.08070424,610ba21888a1a943ce9c7a0d,64d2fd46c836a06233681665,64dc7d508fa1dd5cafe6c0f5,,,,,,,decisionTrl,resources/DY.BMP,resources/DBN.BMP,Door2,-0.354629601,-0.004629644,1,0,0,0.8139,optionLeft,40,4965,3,8,0,8,0,1,,,,,,,,,,,,,,,,,,,,,,,,,,,,,,,,,,,,,,,
,,,,,,,,2023-08-16_08h40.17.408,HF_wild_card,2022.2.4,Win32,59.08070424,610ba21888a1a943ce9c7a0d,64d2fd46c836a06233681665,64dc7d508fa1dd5cafe6c0f5,,,,,,,sngl,resources/Empty.png,resources/DG.BMP,WildCard_Ex,0.330555556,-0.012037065,1,0,0,0.914,optionRight,5,4970,3,9,0,9,0,1,,,,,,,,,,,,,,,,,,,,,,,,,,,,,,,,,,,,,,,
,,,,,,,,2023-08-16_08h40.17.408,HF_wild_card,2022.2.4,Win32,59.08070424,610ba21888a1a943ce9c7a0d,64d2fd46c836a06233681665,64dc7d508fa1dd5cafe6c0f5,,,,,,,sngl,resources/DG.BMP,resources/Empty.png,WildCard_Ex,-0.360185157,-0.024074088,1,0,0,0.7972,optionLeft,95,5065,3,10,0,10,0,1,,,,,,,,,,,,,,,,,,,,,,,,,,,,,,,,,,,,,,,
,,,,,,,,2023-08-16_08h40.17.408,HF_wild_card,2022.2.4,Win32,59.08070424,610ba21888a1a943ce9c7a0d,64d2fd46c836a06233681665,64dc7d508fa1dd5cafe6c0f5,,,,,,,ctch,resources/DBN.BMP,resources/DR.BMP,Door4,0.325925954,-0.019444444,1,0,0,1.3474,optionRight,80,5145,3,11,0,11,0,1,,,,,,,,,,,,,,,,,,,,,,,,,,,,,,,,,,,,,,,
,,,,,,,,2023-08-16_08h40.17.408,HF_wild_card,2022.2.4,Win32,59.08070424,610ba21888a1a943ce9c7a0d,64d2fd46c836a06233681665,64dc7d508fa1dd5cafe6c0f5,,,,,,,decisionTrl,resources/DY.BMP,resources/DBN.BMP,Door2,-0.340740712,-0.02129631,1,0,0,0.8467,optionLeft,20,5165,3,12,0,12,0,1,,,,,,,,,,,,,,,,,,,,,,,,,,,,,,,,,,,,,,,
,,,,,,,,2023-08-16_08h40.17.408,HF_wild_card,2022.2.4,Win32,59.08070424,610ba21888a1a943ce9c7a0d,64d2fd46c836a06233681665,64dc7d508fa1dd5cafe6c0f5,,,,,,,ctch,resources/DY.BMP,resources/DP.BMP,Door3,0.355555556,-0.000925954,1,0,0,1.5142,optionRight,70,5235,3,13,0,13,0,1,,,,,,,,,,,,,,,,,,,,,,,,,,,,,,,,,,,,,,,
,,,,,,,,2023-08-16_08h40.17.408,HF_wild_card,2022.2.4,Win32,59.08070424,610ba21888a1a943ce9c7a0d,64d2fd46c836a06233681665,64dc7d508fa1dd5cafe6c0f5,,,,,,,decisionTrl,resources/DBN.BMP,resources/DG.BMP,Door1,-0.325925912,-0.010185199,1,0,0,1.3129,optionLeft,30,5265,3,14,0,14,0,1,,,,,,,,,,,,,,,,,,,,,,,,,,,,,,,,,,,,,,,
,,,,,,,,2023-08-16_08h40.17.408,HF_wild_card,2022.2.4,Win32,59.08070424,610ba21888a1a943ce9c7a0d,64d2fd46c836a06233681665,64dc7d508fa1dd5cafe6c0f5,,,,,,,decisionTrl,resources/DR.BMP,resources/DP.BMP,Door3,0.318518575,-0.008333333,1,0,0,2.2138,optionRight,70,5335,3,15,0,15,0,1,,,,,,,,,,,,,,,,,,,,,,,,,,,,,,,,,,,,,,,
,,,,,,,,2023-08-16_08h40.17.408,HF_wild_card,2022.2.4,Win32,59.08070424,610ba21888a1a943ce9c7a0d,64d2fd46c836a06233681665,64dc7d508fa1dd5cafe6c0f5,,,,,,,sngl,resources/Empty.png,resources/DY.BMP,Door2,0.314814843,-0.022222222,1,0,0,0.931,optionRight,20,5355,3,16,0,16,0,1,,,,,,,,,,,,,,,,,,,,,,,,,,,,,,,,,,,,,,,
,,,,,,,,2023-08-16_08h40.17.408,HF_wild_card,2022.2.4,Win32,59.08070424,610ba21888a1a943ce9c7a0d,64d2fd46c836a06233681665,64dc7d508fa1dd5cafe6c0f5,,,,,,,decisionTrl,resources/DBN.BMP,resources/DY.BMP,Door1,-0.310185157,0.001851824,1,0,0,0.9143,optionLeft,30,5385,3,17,0,17,0,1,,,,,,,,,,,,,,,,,,,,,,,,,,,,,,,,,,,,,,,
,,,,,,,,2023-08-16_08h40.17.408,HF_wild_card,2022.2.4,Win32,59.08070424,610ba21888a1a943ce9c7a0d,64d2fd46c836a06233681665,64dc7d508fa1dd5cafe6c0f5,,,,,,,decisionTrl,resources/DG.BMP,resources/DR.BMP,WildCard_Ex,-0.35370369,-0.034259288,1,0,0,0.8462,optionLeft,95,5480,3,18,0,18,0,1,,,,,,,,,,,,,,,,,,,,,,,,,,,,,,,,,,,,,,,
,,,,,,,,2023-08-16_08h40.17.408,HF_wild_card,2022.2.4,Win32,59.08070424,610ba21888a1a943ce9c7a0d,64d2fd46c836a06233681665,64dc7d508fa1dd5cafe6c0f5,,,,,,,ctch,resources/DBN.BMP,resources/DR.BMP,Door4,0.325925954,-0.025925954,1,0,0,0.8473,optionRight,80,5560,3,19,0,19,0,1,,,,,,,,,,,,,,,,,,,,,,,,,,,,,,,,,,,,,,,
,,,,,,,,2023-08-16_08h40.17.408,HF_wild_card,2022.2.4,Win32,59.08070424,610ba21888a1a943ce9c7a0d,64d2fd46c836a06233681665,64dc7d508fa1dd5cafe6c0f5,,,,,,,sngl,resources/Empty.png,resources/DR.BMP,Door4,0.329629686,0.004629601,1,0,0,1.0142,optionRight,60,5620,3,20,0,20,0,1,,,,,,,,,,,,,,,,,,,,,,,,,,,,,,,,,,,,,,,
,,,,,,,,2023-08-16_08h40.17.408,HF_wild_card,2022.2.4,Win32,59.08070424,610ba21888a1a943ce9c7a0d,64d2fd46c836a06233681665,64dc7d508fa1dd5cafe6c0f5,,,,,,,sngl,resources/Empty.png,resources/DP.BMP,Door3,0.307407464,-0.016666667,1,0,0,0.8323,optionRight,70,5690,3,21,0,21,0,1,,,,,,,,,,,,,,,,,,,,,,,,,,,,,,,,,,,,,,,
,,,,,,,,2023-08-16_08h40.17.408,HF_wild_card,2022.2.4,Win32,59.08070424,610ba21888a1a943ce9c7a0d,64d2fd46c836a06233681665,64dc7d508fa1dd5cafe6c0f5,,,,,,,decisionTrl,resources/DBN.BMP,resources/DY.BMP,Door2,0.471296353,0.062962935,1,0,0,2.1308,optionRight,20,5710,3,22,0,22,0,1,,,,,,,,,,,,,,,,,,,,,,,,,,,,,,,,,,,,,,,
,,,,,,,,2023-08-16_08h40.17.408,HF_wild_card,2022.2.4,Win32,59.08070424,610ba21888a1a943ce9c7a0d,64d2fd46c836a06233681665,64dc7d508fa1dd5cafe6c0f5,,,,,,,decisionTrl,resources/DR.BMP,resources/DP.BMP,Door3,0.25,-0.028703732,1,0,0,1.0637,optionRight,70,5780,3,23,0,23,0,1,,,,,,,,,,,,,,,,,,,,,,,,,,,,,,,,,,,,,,,
,,,,,,,,2023-08-16_08h40.17.408,HF_wild_card,2022.2.4,Win32,59.08070424,610ba21888a1a943ce9c7a0d,64d2fd46c836a06233681665,64dc7d508fa1dd5cafe6c0f5,,,,,,,decisionTrl,resources/DP.BMP,resources/DG.BMP,Door3,-0.306481467,-0.05,1,0,0,0.8615,optionLeft,70,5850,3,24,0,24,0,1,,,,,,,,,,,,,,,,,,,,,,,,,,,,,,,,,,,,,,,
,,,,,,,,2023-08-16_08h40.17.408,HF_wild_card,2022.2.4,Win32,59.08070424,610ba21888a1a943ce9c7a0d,64d2fd46c836a06233681665,64dc7d508fa1dd5cafe6c0f5,,,,,,,ctch,resources/DY.BMP,resources/DP.BMP,Door3,0.432407464,0.005555556,1,0,0,1.3811,optionRight,70,5920,3,25,0,25,0,1,,,,,,,,,,,,,,,,,,,,,,,,,,,,,,,,,,,,,,,
,,,,,,,,2023-08-16_08h40.17.408,HF_wild_card,2022.2.4,Win32,59.08070424,610ba21888a1a943ce9c7a0d,64d2fd46c836a06233681665,64dc7d508fa1dd5cafe6c0f5,,,,,,,ctch,resources/DR.BMP,resources/DBN.BMP,Door4,-0.373148134,-0.051851866,1,0,0,1.3465,optionLeft,60,5980,3,26,0,26,0,1,,,,,,,,,,,,,,,,,,,,,,,,,,,,,,,,,,,,,,,
,,,,,,,,2023-08-16_08h40.17.408,HF_wild_card,2022.2.4,Win32,59.08070424,610ba21888a1a943ce9c7a0d,64d2fd46c836a06233681665,64dc7d508fa1dd5cafe6c0f5,,,,,,,decisionTrl,resources/DY.BMP,resources/DBN.BMP,Door1,0.378703732,0.098148134,1,0,0,2.1984,optionRight,30,6010,3,27,0,27,0,1,,,,,,,,,,,,,,,,,,,,,,,,,,,,,,,,,,,,,,,
,,,,,,,,2023-08-16_08h40.17.408,HF_wild_card,2022.2.4,Win32,59.08070424,610ba21888a1a943ce9c7a0d,64d2fd46c836a06233681665,64dc7d508fa1dd5cafe6c0f5,,,,,,,decisionTrl,resources/DR.BMP,resources/DP.BMP,Door3,0.320370399,0.027777778,1,0,0,1.0469,optionRight,70,6080,3,28,0,28,0,1,,,,,,,,,,,,,,,,,,,,,,,,,,,,,,,,,,,,,,,
,,,,,,,,2023-08-16_08h40.17.408,HF_wild_card,2022.2.4,Win32,59.08070424,610ba21888a1a943ce9c7a0d,64d2fd46c836a06233681665,64dc7d508fa1dd5cafe6c0f5,,,,,,,decisionTrl,resources/DBN.BMP,resources/DY.BMP,Door1,-0.187962935,-0.012037065,1,0,0,1.9301,optionLeft,30,6110,3,29,0,29,0,1,,,,,,,,,,,,,,,,,,,,,,,,,,,,,,,,,,,,,,,
,,,,,,,,2023-08-16_08h40.17.408,HF_wild_card,2022.2.4,Win32,59.08070424,610ba21888a1a943ce9c7a0d,64d2fd46c836a06233681665,64dc7d508fa1dd5cafe6c0f5,,,,,,,sngl,resources/DP.BMP,resources/Empty.png,Door3,-0.379629601,-0.043518533,1,0,0,0.8646,optionLeft,70,6180,3,30,0,30,0,1,,,,,,,,,,,,,,,,,,,,,,,,,,,,,,,,,,,,,,,
,,,,,,,,2023-08-16_08h40.17.408,HF_wild_card,2022.2.4,Win32,59.08070424,610ba21888a1a943ce9c7a0d,64d2fd46c836a06233681665,64dc7d508fa1dd5cafe6c0f5,,,,,,,ctch,resources/DR.BMP,resources/DBN.BMP,Door4,-0.35370369,0.021296268,1,0,0,1.1641,optionLeft,80,6260,3,31,0,31,0,1,,,,,,,,,,,,,,,,,,,,,,,,,,,,,,,,,,,,,,,
,,,,,,,,2023-08-16_08h40.17.408,HF_wild_card,2022.2.4,Win32,59.08070424,610ba21888a1a943ce9c7a0d,64d2fd46c836a06233681665,64dc7d508fa1dd5cafe6c0f5,,,,,,,decisionTrl,resources/DR.BMP,resources/DG.BMP,Door4,-0.284259245,-0.045370399,1,0,0,1.4017,optionLeft,80,6340,3,32,0,32,0,1,,,,,,,,,,,,,,,,,,,,,,,,,,,,,,,,,,,,,,,
,,,,,,,,2023-08-16_08h40.17.408,HF_wild_card,2022.2.4,Win32,59.08070424,610ba21888a1a943ce9c7a0d,64d2fd46c836a06233681665,64dc7d508fa1dd5cafe6c0f5,,,,,,,ctch,resources/DP.BMP,resources/DY.BMP,Door3,-0.299074046,0.039814801,1,0,0,1.7634,optionLeft,70,6410,3,33,0,33,0,1,,,,,,,,,,,,,,,,,,,,,,,,,,,,,,,,,,,,,,,
,,,,,,,,2023-08-16_08h40.17.408,HF_wild_card,2022.2.4,Win32,59.08070424,610ba21888a1a943ce9c7a0d,64d2fd46c836a06233681665,64dc7d508fa1dd5cafe6c0f5,,,,,,,sngl,resources/DG.BMP,resources/Empty.png,WildCard_Ex,-0.248148134,0.020370356,1,0,0,0.8132,optionLeft,5,6415,3,34,0,34,0,1,,,,,,,,,,,,,,,,,,,,,,,,,,,,,,,,,,,,,,,
,,,,,,,,2023-08-16_08h40.17.408,HF_wild_card,2022.2.4,Win32,59.08070424,610ba21888a1a943ce9c7a0d,64d2fd46c836a06233681665,64dc7d508fa1dd5cafe6c0f5,,,,,,,decisionTrl,resources/DG.BMP,resources/DP.BMP,WildCard_Ex,-0.184259245,0.019444444,1,0,0,0.8963,optionLeft,5,6420,3,35,0,35,0,1,,,,,,,,,,,,,,,,,,,,,,,,,,,,,,,,,,,,,,,
,,,,,,,,2023-08-16_08h40.17.408,HF_wild_card,2022.2.4,Win32,59.08070424,610ba21888a1a943ce9c7a0d,64d2fd46c836a06233681665,64dc7d508fa1dd5cafe6c0f5,,,,,,,sngl,resources/DR.BMP,resources/Empty.png,Door4,-0.247222222,-0.002777778,1,0,0,0.8798,optionLeft,80,6500,3,36,0,36,0,1,,,,,,,,,,,,,,,,,,,,,,,,,,,,,,,,,,,,,,,
,,,,,,,,2023-08-16_08h40.17.408,HF_wild_card,2022.2.4,Win32,59.08070424,610ba21888a1a943ce9c7a0d,64d2fd46c836a06233681665,64dc7d508fa1dd5cafe6c0f5,,,,,,,decisionTrl,resources/DP.BMP,resources/DR.BMP,Door4,0.363888889,0.015740712,1,0,0,1.5308,optionRight,60,6560,3,37,0,37,0,1,,,,,,,,,,,,,,,,,,,,,,,,,,,,,,,,,,,,,,,
,,,,,,,,2023-08-16_08h40.17.408,HF_wild_card,2022.2.4,Win32,59.08070424,610ba21888a1a943ce9c7a0d,64d2fd46c836a06233681665,64dc7d508fa1dd5cafe6c0f5,,,,,,,decisionTrl,resources/DBN.BMP,resources/DY.BMP,Door1,-0.264814801,0.025,1,0,0,1.6297,optionLeft,30,6590,3,38,0,38,0,1,,,,,,,,,,,,,,,,,,,,,,,,,,,,,,,,,,,,,,,
,,,,,,,,2023-08-16_08h40.17.408,HF_wild_card,2022.2.4,Win32,59.08070424,610ba21888a1a943ce9c7a0d,64d2fd46c836a06233681665,64dc7d508fa1dd5cafe6c0f5,,,,,,,ctch,resources/DP.BMP,resources/DY.BMP,Door3,-0.326851824,-0.02129631,1,0,0,0.9137,optionLeft,70,6660,3,39,0,39,0,1,,,,,,,,,,,,,,,,,,,,,,,,,,,,,,,,,,,,,,,
,,,,,,,,2023-08-16_08h40.17.408,HF_wild_card,2022.2.4,Win32,59.08070424,610ba21888a1a943ce9c7a0d,64d2fd46c836a06233681665,64dc7d508fa1dd5cafe6c0f5,,,,,,,sngl,resources/Empty.png,resources/DG.BMP,WildCard_Ex,0.387037065,0.024074046,1,0,0,0.8307,optionRight,95,6755,3,40,0,40,0,1,,,,,,,,,,,,,,,,,,,,,,,,,,,,,,,,,,,,,,,
,,,,,,,,2023-08-16_08h40.17.408,HF_wild_card,2022.2.4,Win32,59.08070424,610ba21888a1a943ce9c7a0d,64d2fd46c836a06233681665,64dc7d508fa1dd5cafe6c0f5,,,,,,,decisionTrl,resources/DY.BMP,resources/DG.BMP,WildCard_Ex,0.323148176,-0.047222222,1,0,0,0.9899,optionRight,95,6850,3,41,0,41,0,1,,,,,,,,,,,,,,,,,,,,,,,,,,,,,,,,,,,,,,,
,,,,,,,,2023-08-16_08h40.17.408,HF_wild_card,2022.2.4,Win32,59.08070424,610ba21888a1a943ce9c7a0d,64d2fd46c836a06233681665,64dc7d508fa1dd5cafe6c0f5,,,,,,,decisionTrl,resources/DG.BMP,resources/DY.BMP,WildCard_Ex,-0.322222222,0.026851824,1,0,0,1.7302,optionLeft,95,6945,3,42,0,42,0,1,,,,,,,,,,,,,,,,,,,,,,,,,,,,,,,,,,,,,,,
,,,,,,,,2023-08-16_08h40.17.408,HF_wild_card,2022.2.4,Win32,59.08070424,610ba21888a1a943ce9c7a0d,64d2fd46c836a06233681665,64dc7d508fa1dd5cafe6c0f5,,,,,,,sngl,resources/DBN.BMP,resources/Empty.png,Door1,-0.190740712,-0.009259288,1,0,0,0.7643,optionLeft,30,6975,3,43,0,43,0,1,,,,,,,,,,,,,,,,,,,,,,,,,,,,,,,,,,,,,,,
,,,,,,,,2023-08-16_08h40.17.408,HF_wild_card,2022.2.4,Win32,59.08070424,610ba21888a1a943ce9c7a0d,64d2fd46c836a06233681665,64dc7d508fa1dd5cafe6c0f5,,,,,,,,,,,,,,,,,,,,,,,,,,2,0,2,0,1,,,,,,,,,,,,,,,,,,,,,,,,,,,,,,,,,,
,,,,,,,,2023-08-16_08h40.17.408,HF_wild_card,2022.2.4,Win32,59.08070424,610ba21888a1a943ce9c7a0d,64d2fd46c836a06233681665,64dc7d508fa1dd5cafe6c0f5,,,,,,,sngl,resources/Empty.png,resources/DBN.BMP,Door1,0.321296353,-0.039814843,1,0,0,1.2558,optionRight,30,7005,4,0,0,0,0,1,,,,,,,,,,,,,,,,,,,,,,,,,,,,,,,,,,,,,,,
,,,,,,,,2023-08-16_08h40.17.408,HF_wild_card,2022.2.4,Win32,59.08070424,610ba21888a1a943ce9c7a0d,64d2fd46c836a06233681665,64dc7d508fa1dd5cafe6c0f5,,,,,,,decisionTrl,resources/DY.BMP,resources/DBN.BMP,Door2,-0.331481467,-0.035185199,1,0,0,0.9969,optionLeft,40,7045,4,1,0,1,0,1,,,,,,,,,,,,,,,,,,,,,,,,,,,,,,,,,,,,,,,
,,,,,,,,2023-08-16_08h40.17.408,HF_wild_card,2022.2.4,Win32,59.08070424,610ba21888a1a943ce9c7a0d,64d2fd46c836a06233681665,64dc7d508fa1dd5cafe6c0f5,,,,,,,sngl,resources/Empty.png,resources/DB.BMP,WildCard_NonEx,0.350925954,-0.014814843,1,0,0,0.8964,optionRight,45,7090,4,2,0,2,0,1,,,,,,,,,,,,,,,,,,,,,,,,,,,,,,,,,,,,,,,
,,,,,,,,2023-08-16_08h40.17.408,HF_wild_card,2022.2.4,Win32,59.08070424,610ba21888a1a943ce9c7a0d,64d2fd46c836a06233681665,64dc7d508fa1dd5cafe6c0f5,,,,,,,ctch,resources/DR.BMP,resources/DBN.BMP,Door4,-0.26851849,-0.058333333,1,0,0,1.0909,optionLeft,60,7150,4,3,0,3,0,1,,,,,,,,,,,,,,,,,,,,,,,,,,,,,,,,,,,,,,,
,,,,,,,,2023-08-16_08h40.17.408,HF_wild_card,2022.2.4,Win32,59.08070424,610ba21888a1a943ce9c7a0d,64d2fd46c836a06233681665,64dc7d508fa1dd5cafe6c0f5,,,,,,,ctch,resources/DY.BMP,resources/DP.BMP,Door3,0.320370399,0,1,0,0,1.5973,optionRight,70,7220,4,4,0,4,0,1,,,,,,,,,,,,,,,,,,,,,,,,,,,,,,,,,,,,,,,
,,,,,,,,2023-08-16_08h40.17.408,HF_wild_card,2022.2.4,Win32,59.08070424,610ba21888a1a943ce9c7a0d,64d2fd46c836a06233681665,64dc7d508fa1dd5cafe6c0f5,,,,,,,decisionTrl,resources/DY.BMP,resources/DB.BMP,WildCard_NonEx,0.266666667,-0.026851866,1,0,0,1.1467,optionRight,55,7275,4,5,0,5,0,1,,,,,,,,,,,,,,,,,,,,,,,,,,,,,,,,,,,,,,,
,,,,,,,,2023-08-16_08h40.17.408,HF_wild_card,2022.2.4,Win32,59.08070424,610ba21888a1a943ce9c7a0d,64d2fd46c836a06233681665,64dc7d508fa1dd5cafe6c0f5,,,,,,,decisionTrl,resources/DR.BMP,resources/DP.BMP,Door4,-0.26851849,-0.033333333,1,0,0,1.7135,optionLeft,60,7335,4,6,0,6,0,1,,,,,,,,,,,,,,,,,,,,,,,,,,,,,,,,,,,,,,,
,,,,,,,,2023-08-16_08h40.17.408,HF_wild_card,2022.2.4,Win32,59.08070424,610ba21888a1a943ce9c7a0d,64d2fd46c836a06233681665,64dc7d508fa1dd5cafe6c0f5,,,,,,,sngl,resources/DB.BMP,resources/Empty.png,WildCard_NonEx,-0.3,0.034259245,1,0,0,0.8308,optionLeft,45,7380,4,7,0,7,0,1,,,,,,,,,,,,,,,,,,,,,,,,,,,,,,,,,,,,,,,
,,,,,,,,2023-08-16_08h40.17.408,HF_wild_card,2022.2.4,Win32,59.08070424,610ba21888a1a943ce9c7a0d,64d2fd46c836a06233681665,64dc7d508fa1dd5cafe6c0f5,,,,,,,ctch,resources/DBN.BMP,resources/DR.BMP,Door4,0.362037065,-0.014814843,1,0,0,1.0473,optionRight,80,7460,4,8,0,8,0,1,,,,,,,,,,,,,,,,,,,,,,,,,,,,,,,,,,,,,,,
,,,,,,,,2023-08-16_08h40.17.408,HF_wild_card,2022.2.4,Win32,59.08070424,610ba21888a1a943ce9c7a0d,64d2fd46c836a06233681665,64dc7d508fa1dd5cafe6c0f5,,,,,,,sngl,resources/DB.BMP,resources/Empty.png,WildCard_NonEx,-0.285185157,-0.003703732,1,0,0,0.7619,optionLeft,55,7515,4,9,0,9,0,1,,,,,,,,,,,,,,,,,,,,,,,,,,,,,,,,,,,,,,,
,,,,,,,,2023-08-16_08h40.17.408,HF_wild_card,2022.2.4,Win32,59.08070424,610ba21888a1a943ce9c7a0d,64d2fd46c836a06233681665,64dc7d508fa1dd5cafe6c0f5,,,,,,,sngl,resources/Empty.png,resources/DR.BMP,Door4,0.368518575,-0.025,1,0,0,0.9304,optionRight,80,7595,4,10,0,10,0,1,,,,,,,,,,,,,,,,,,,,,,,,,,,,,,,,,,,,,,,
,,,,,,,,2023-08-16_08h40.17.408,HF_wild_card,2022.2.4,Win32,59.08070424,610ba21888a1a943ce9c7a0d,64d2fd46c836a06233681665,64dc7d508fa1dd5cafe6c0f5,,,,,,,decisionTrl,resources/DY.BMP,resources/DBN.BMP,Door2,-0.313888889,-0.032407422,1,0,0,0.8307,optionLeft,20,7615,4,11,0,11,0,1,,,,,,,,,,,,,,,,,,,,,,,,,,,,,,,,,,,,,,,
,,,,,,,,2023-08-16_08h40.17.408,HF_wild_card,2022.2.4,Win32,59.08070424,610ba21888a1a943ce9c7a0d,64d2fd46c836a06233681665,64dc7d508fa1dd5cafe6c0f5,,,,,,,ctch,resources/DR.BMP,resources/DBN.BMP,Door4,-0.284259245,0.006481467,1,0,0,1.0139,optionLeft,80,7695,4,12,0,12,0,1,,,,,,,,,,,,,,,,,,,,,,,,,,,,,,,,,,,,,,,
,,,,,,,,2023-08-16_08h40.17.408,HF_wild_card,2022.2.4,Win32,59.08070424,610ba21888a1a943ce9c7a0d,64d2fd46c836a06233681665,64dc7d508fa1dd5cafe6c0f5,,,,,,,decisionTrl,resources/DB.BMP,resources/DBN.BMP,WildCard_NonEx,-0.225,-0.003703732,1,0,0,1.2138,optionLeft,45,7740,4,13,0,13,0,1,,,,,,,,,,,,,,,,,,,,,,,,,,,,,,,,,,,,,,,
,,,,,,,,2023-08-16_08h40.17.408,HF_wild_card,2022.2.4,Win32,59.08070424,610ba21888a1a943ce9c7a0d,64d2fd46c836a06233681665,64dc7d508fa1dd5cafe6c0f5,,,,,,,sngl,resources/DY.BMP,resources/Empty.png,Door2,-0.27870369,-0.010185199,1,0,0,0.8472,optionLeft,20,7760,4,14,0,14,0,1,,,,,,,,,,,,,,,,,,,,,,,,,,,,,,,,,,,,,,,
,,,,,,,,2023-08-16_08h40.17.408,HF_wild_card,2022.2.4,Win32,59.08070424,610ba21888a1a943ce9c7a0d,64d2fd46c836a06233681665,64dc7d508fa1dd5cafe6c0f5,,,,,,,decisionTrl,resources/DB.BMP,resources/DP.BMP,Door3,0.389814843,-0.025925954,1,0,0,0.9311,optionRight,70,7830,4,15,0,15,0,1,,,,,,,,,,,,,,,,,,,,,,,,,,,,,,,,,,,,,,,
,,,,,,,,2023-08-16_08h40.17.408,HF_wild_card,2022.2.4,Win32,59.08070424,610ba21888a1a943ce9c7a0d,64d2fd46c836a06233681665,64dc7d508fa1dd5cafe6c0f5,,,,,,,ctch,resources/DP.BMP,resources/DY.BMP,Door3,-0.344444444,-0.047222222,1,0,0,0.9632,optionLeft,70,7900,4,16,0,16,0,1,,,,,,,,,,,,,,,,,,,,,,,,,,,,,,,,,,,,,,,
,,,,,,,,2023-08-16_08h40.17.408,HF_wild_card,2022.2.4,Win32,59.08070424,610ba21888a1a943ce9c7a0d,64d2fd46c836a06233681665,64dc7d508fa1dd5cafe6c0f5,,,,,,,decisionTrl,resources/DBN.BMP,resources/DY.BMP,Door2,0.317592621,-0.039814843,1,0,0,1.0807,optionRight,20,7920,4,17,0,17,0,1,,,,,,,,,,,,,,,,,,,,,,,,,,,,,,,,,,,,,,,
,,,,,,,,2023-08-16_08h40.17.408,HF_wild_card,2022.2.4,Win32,59.08070424,610ba21888a1a943ce9c7a0d,64d2fd46c836a06233681665,64dc7d508fa1dd5cafe6c0f5,,,,,,,sngl,resources/Empty.png,resources/DY.BMP,Door2,0.3,-0.013888889,1,0,0,1.2638,optionRight,40,7960,4,18,0,18,0,1,,,,,,,,,,,,,,,,,,,,,,,,,,,,,,,,,,,,,,,
,,,,,,,,2023-08-16_08h40.17.408,HF_wild_card,2022.2.4,Win32,59.08070424,610ba21888a1a943ce9c7a0d,64d2fd46c836a06233681665,64dc7d508fa1dd5cafe6c0f5,,,,,,,decisionTrl,resources/DB.BMP,resources/DY.BMP,Door2,0.309259288,-0.017592621,1,0,0,0.8312,optionRight,20,7980,4,19,0,19,0,1,,,,,,,,,,,,,,,,,,,,,,,,,,,,,,,,,,,,,,,
,,,,,,,,2023-08-16_08h40.17.408,HF_wild_card,2022.2.4,Win32,59.08070424,610ba21888a1a943ce9c7a0d,64d2fd46c836a06233681665,64dc7d508fa1dd5cafe6c0f5,,,,,,,sngl,resources/Empty.png,resources/DP.BMP,Door3,0.371296353,-0.002777778,1,0,0,0.8634,optionRight,70,8050,4,20,0,20,0,1,,,,,,,,,,,,,,,,,,,,,,,,,,,,,,,,,,,,,,,
,,,,,,,,2023-08-16_08h40.17.408,HF_wild_card,2022.2.4,Win32,59.08070424,610ba21888a1a943ce9c7a0d,64d2fd46c836a06233681665,64dc7d508fa1dd5cafe6c0f5,,,,,,,decisionTrl,resources/DY.BMP,resources/DBN.BMP,Door1,0.351851908,0.038888889,1,0,0,1.1474,optionRight,30,8080,4,21,0,21,0,1,,,,,,,,,,,,,,,,,,,,,,,,,,,,,,,,,,,,,,,
,,,,,,,,2023-08-16_08h40.17.408,HF_wild_card,2022.2.4,Win32,59.08070424,610ba21888a1a943ce9c7a0d,64d2fd46c836a06233681665,64dc7d508fa1dd5cafe6c0f5,,,,,,,decisionTrl,resources/DY.BMP,resources/DBN.BMP,Door1,0.298148176,-0.015740755,1,0,0,0.8808,optionRight,30,8110,4,22,0,22,0,1,,,,,,,,,,,,,,,,,,,,,,,,,,,,,,,,,,,,,,,
,,,,,,,,2023-08-16_08h40.17.408,HF_wild_card,2022.2.4,Win32,59.08070424,610ba21888a1a943ce9c7a0d,64d2fd46c836a06233681665,64dc7d508fa1dd5cafe6c0f5,,,,,,,decisionTrl,resources/DP.BMP,resources/DR.BMP,Door3,-0.304629601,-0.041666667,1,0,0,0.9474,optionLeft,70,8180,4,23,0,23,0,1,,,,,,,,,,,,,,,,,,,,,,,,,,,,,,,,,,,,,,,
,,,,,,,,2023-08-16_08h40.17.408,HF_wild_card,2022.2.4,Win32,59.08070424,610ba21888a1a943ce9c7a0d,64d2fd46c836a06233681665,64dc7d508fa1dd5cafe6c0f5,,,,,,,decisionTrl,resources/DBN.BMP,resources/DY.BMP,Door1,-0.336111111,-0.053703732,1,0,0,2.5641,optionLeft,30,8210,4,24,0,24,0,1,,,,,,,,,,,,,,,,,,,,,,,,,,,,,,,,,,,,,,,
,,,,,,,,2023-08-16_08h40.17.408,HF_wild_card,2022.2.4,Win32,59.08070424,610ba21888a1a943ce9c7a0d,64d2fd46c836a06233681665,64dc7d508fa1dd5cafe6c0f5,,,,,,,decisionTrl,resources/DR.BMP,resources/DB.BMP,Door4,-0.260185157,-0.002777778,1,0,0,1.414,optionLeft,60,8270,4,25,0,25,0,1,,,,,,,,,,,,,,,,,,,,,,,,,,,,,,,,,,,,,,,
,,,,,,,,2023-08-16_08h40.17.408,HF_wild_card,2022.2.4,Win32,59.08070424,610ba21888a1a943ce9c7a0d,64d2fd46c836a06233681665,64dc7d508fa1dd5cafe6c0f5,,,,,,,decisionTrl,resources/DBN.BMP,resources/DY.BMP,Door1,-0.257407379,-0.003703732,1,0,0,1.3647,optionLeft,30,8300,4,26,0,26,0,1,,,,,,,,,,,,,,,,,,,,,,,,,,,,,,,,,,,,,,,
,,,,,,,,2023-08-16_08h40.17.408,HF_wild_card,2022.2.4,Win32,59.08070424,610ba21888a1a943ce9c7a0d,64d2fd46c836a06233681665,64dc7d508fa1dd5cafe6c0f5,,,,,,,decisionTrl,resources/DBN.BMP,resources/DY.BMP,Door1,-0.251851824,-0.023148176,1,0,0,0.9321,optionLeft,30,8330,4,27,0,27,0,1,,,,,,,,,,,,,,,,,,,,,,,,,,,,,,,,,,,,,,,
,,,,,,,,2023-08-16_08h40.17.408,HF_wild_card,2022.2.4,Win32,59.08070424,610ba21888a1a943ce9c7a0d,64d2fd46c836a06233681665,64dc7d508fa1dd5cafe6c0f5,,,,,,,decisionTrl,resources/DR.BMP,resources/DP.BMP,Door3,0.334259288,-0.019444444,1,0,0,0.9973,optionRight,70,8400,4,28,0,28,0,1,,,,,,,,,,,,,,,,,,,,,,,,,,,,,,,,,,,,,,,
,,,,,,,,2023-08-16_08h40.17.408,HF_wild_card,2022.2.4,Win32,59.08070424,610ba21888a1a943ce9c7a0d,64d2fd46c836a06233681665,64dc7d508fa1dd5cafe6c0f5,,,,,,,sngl,resources/DR.BMP,resources/Empty.png,Door4,-0.27870369,-0.028703732,1,0,0,0.7305,optionLeft,60,8460,4,29,0,29,0,1,,,,,,,,,,,,,,,,,,,,,,,,,,,,,,,,,,,,,,,
,,,,,,,,2023-08-16_08h40.17.408,HF_wild_card,2022.2.4,Win32,59.08070424,610ba21888a1a943ce9c7a0d,64d2fd46c836a06233681665,64dc7d508fa1dd5cafe6c0f5,,,,,,,ctch,resources/DP.BMP,resources/DY.BMP,Door3,-0.206481467,-0.00648151,1,0,0,1.1305,optionLeft,70,8530,4,30,0,30,0,1,,,,,,,,,,,,,,,,,,,,,,,,,,,,,,,,,,,,,,,
,,,,,,,,2023-08-16_08h40.17.408,HF_wild_card,2022.2.4,Win32,59.08070424,610ba21888a1a943ce9c7a0d,64d2fd46c836a06233681665,64dc7d508fa1dd5cafe6c0f5,,,,,,,sngl,resources/DP.BMP,resources/Empty.png,Door3,-0.279629601,-0.037962977,1,0,0,0.7818,optionLeft,70,8600,4,31,0,31,0,1,,,,,,,,,,,,,,,,,,,,,,,,,,,,,,,,,,,,,,,
,,,,,,,,2023-08-16_08h40.17.408,HF_wild_card,2022.2.4,Win32,59.08070424,610ba21888a1a943ce9c7a0d,64d2fd46c836a06233681665,64dc7d508fa1dd5cafe6c0f5,,,,,,,ctch,resources/DY.BMP,resources/DP.BMP,Door3,0.387037065,-0.044444444,1,0,0,0.9321,optionRight,70,8670,4,32,0,32,0,1,,,,,,,,,,,,,,,,,,,,,,,,,,,,,,,,,,,,,,,
,,,,,,,,2023-08-16_08h40.17.408,HF_wild_card,2022.2.4,Win32,59.08070424,610ba21888a1a943ce9c7a0d,64d2fd46c836a06233681665,64dc7d508fa1dd5cafe6c0f5,,,,,,,decisionTrl,resources/DB.BMP,resources/DR.BMP,Door4,0.378703732,0.022222222,1,0,0,1.2809,optionRight,80,8750,4,33,0,33,0,1,,,,,,,,,,,,,,,,,,,,,,,,,,,,,,,,,,,,,,,
,,,,,,,,2023-08-16_08h40.17.408,HF_wild_card,2022.2.4,Win32,59.08070424,610ba21888a1a943ce9c7a0d,64d2fd46c836a06233681665,64dc7d508fa1dd5cafe6c0f5,,,,,,,decisionTrl,resources/DP.BMP,resources/DR.BMP,Door4,0.323148176,-0.012962977,1,0,0,0.8977,optionRight,80,8830,4,34,0,34,0,1,,,,,,,,,,,,,,,,,,,,,,,,,,,,,,,,,,,,,,,
,,,,,,,,2023-08-16_08h40.17.408,HF_wild_card,2022.2.4,Win32,59.08070424,610ba21888a1a943ce9c7a0d,64d2fd46c836a06233681665,64dc7d508fa1dd5cafe6c0f5,,,,,,,sngl,resources/DBN.BMP,resources/Empty.png,Door1,-0.233333333,0.015740712,1,0,0,0.8632,optionLeft,30,8860,4,35,0,35,0,1,,,,,,,,,,,,,,,,,,,,,,,,,,,,,,,,,,,,,,,
,,,,,,,,2023-08-16_08h40.17.408,HF_wild_card,2022.2.4,Win32,59.08070424,610ba21888a1a943ce9c7a0d,64d2fd46c836a06233681665,64dc7d508fa1dd5cafe6c0f5,,,,,,,sngl,resources/Empty.png,resources/DB.BMP,WildCard_NonEx,0.357407464,-0.008333333,1,0,0,0.6978,optionRight,55,8915,4,36,0,36,0,1,,,,,,,,,,,,,,,,,,,,,,,,,,,,,,,,,,,,,,,
,,,,,,,,2023-08-16_08h40.17.408,HF_wild_card,2022.2.4,Win32,59.08070424,610ba21888a1a943ce9c7a0d,64d2fd46c836a06233681665,64dc7d508fa1dd5cafe6c0f5,,,,,,,decisionTrl,resources/DR.BMP,resources/DP.BMP,Door4,-0.300925912,0.00370369,1,0,0,1.5967,optionLeft,60,8975,4,37,0,37,0,1,,,,,,,,,,,,,,,,,,,,,,,,,,,,,,,,,,,,,,,
,,,,,,,,2023-08-16_08h40.17.408,HF_wild_card,2022.2.4,Win32,59.08070424,610ba21888a1a943ce9c7a0d,64d2fd46c836a06233681665,64dc7d508fa1dd5cafe6c0f5,,,,,,,decisionTrl,resources/DP.BMP,resources/DR.BMP,Door4,0.416666667,-0.027777778,1,0,0,1.4529,optionRight,80,9055,4,38,0,38,0,1,,,,,,,,,,,,,,,,,,,,,,,,,,,,,,,,,,,,,,,
,,,,,,,,2023-08-16_08h40.17.408,HF_wild_card,2022.2.4,Win32,59.08070424,610ba21888a1a943ce9c7a0d,64d2fd46c836a06233681665,64dc7d508fa1dd5cafe6c0f5,,,,,,,decisionTrl,resources/DBN.BMP,resources/DB.BMP,WildCard_NonEx,0.463888889,0.040740712,1,0,0,2.2805,optionRight,45,9100,4,39,0,39,0,1,,,,,,,,,,,,,,,,,,,,,,,,,,,,,,,,,,,,,,,
,,,,,,,,2023-08-16_08h40.17.408,HF_wild_card,2022.2.4,Win32,59.08070424,610ba21888a1a943ce9c7a0d,64d2fd46c836a06233681665,64dc7d508fa1dd5cafe6c0f5,,,,,,,decisionTrl,resources/DP.BMP,resources/DR.BMP,Door4,0.434259288,0.07870369,1,0,0,1.8297,optionRight,60,9160,4,40,0,40,0,1,,,,,,,,,,,,,,,,,,,,,,,,,,,,,,,,,,,,,,,
,,,,,,,,2023-08-16_08h40.17.408,HF_wild_card,2022.2.4,Win32,59.08070424,610ba21888a1a943ce9c7a0d,64d2fd46c836a06233681665,64dc7d508fa1dd5cafe6c0f5,,,,,,,ctch,resources/DBN.BMP,resources/DR.BMP,Door4,0.458333333,0,1,0,0,0.9464,optionRight,80,9240,4,41,0,41,0,1,,,,,,,,,,,,,,,,,,,,,,,,,,,,,,,,,,,,,,,
,,,,,,,,2023-08-16_08h40.17.408,HF_wild_card,2022.2.4,Win32,59.08070424,610ba21888a1a943ce9c7a0d,64d2fd46c836a06233681665,64dc7d508fa1dd5cafe6c0f5,,,,,,,decisionTrl,resources/DR.BMP,resources/DP.BMP,Door3,0.369444444,-0.05648151,1,0,0,0.8978,optionRight,70,9310,4,42,0,42,0,1,,,,,,,,,,,,,,,,,,,,,,,,,,,,,,,,,,,,,,,
,,,,,,,,2023-08-16_08h40.17.408,HF_wild_card,2022.2.4,Win32,59.08070424,610ba21888a1a943ce9c7a0d,64d2fd46c836a06233681665,64dc7d508fa1dd5cafe6c0f5,,,,,,,decisionTrl,resources/DP.BMP,resources/DB.BMP,Door3,-0.26851849,-0.020370399,1,0,0,0.8977,optionLeft,70,9380,4,43,0,43,0,1,,,,,,,,,,,,,,,,,,,,,,,,,,,,,,,,,,,,,,,
,,,,,,,,2023-08-16_08h40.17.408,HF_wild_card,2022.2.4,Win32,59.08070424,610ba21888a1a943ce9c7a0d,64d2fd46c836a06233681665,64dc7d508fa1dd5cafe6c0f5,,,,,,,,,,,,,,,,,,,,,,,,,,3,0,3,0,1,,,,,,,,,,,,,,,,,,,,,,,,,,,,,,,,,,
,,,,,,,,2023-08-16_08h40.17.408,HF_wild_card,2022.2.4,Win32,59.08070424,610ba21888a1a943ce9c7a0d,64d2fd46c836a06233681665,64dc7d508fa1dd5cafe6c0f5,,,,,,,decisionTrl,resources/DBN.BMP,resources/DY.BMP,Door1,-0.291666667,-0.072222222,1,0,0,1.3227,optionLeft,30,9410,5,0,0,0,0,1,,,,,,,,,,,,,,,,,,,,,,,,,,,,,,,,,,,,,,,
,,,,,,,,2023-08-16_08h40.17.408,HF_wild_card,2022.2.4,Win32,59.08070424,610ba21888a1a943ce9c7a0d,64d2fd46c836a06233681665,64dc7d508fa1dd5cafe6c0f5,,,,,,,ctch,resources/DP.BMP,resources/DY.BMP,Door3,-0.204629601,-0.011111111,1,0,0,1.047,optionLeft,70,9480,5,1,0,1,0,1,,,,,,,,,,,,,,,,,,,,,,,,,,,,,,,,,,,,,,,
,,,,,,,,2023-08-16_08h40.17.408,HF_wild_card,2022.2.4,Win32,59.08070424,610ba21888a1a943ce9c7a0d,64d2fd46c836a06233681665,64dc7d508fa1dd5cafe6c0f5,,,,,,,decisionTrl,resources/DY.BMP,resources/DBN.BMP,Door2,-0.219444444,-0.039814843,1,0,0,1.1972,optionLeft,40,9520,5,2,0,2,0,1,,,,,,,,,,,,,,,,,,,,,,,,,,,,,,,,,,,,,,,
,,,,,,,,2023-08-16_08h40.17.408,HF_wild_card,2022.2.4,Win32,59.08070424,610ba21888a1a943ce9c7a0d,64d2fd46c836a06233681665,64dc7d508fa1dd5cafe6c0f5,,,,,,,decisionTrl,resources/DBN.BMP,resources/DB.BMP,Door1,-0.263888889,-0.03148151,1,0,0,1.1468,optionLeft,30,9550,5,3,0,3,0,1,,,,,,,,,,,,,,,,,,,,,,,,,,,,,,,,,,,,,,,
,,,,,,,,2023-08-16_08h40.17.408,HF_wild_card,2022.2.4,Win32,59.08070424,610ba21888a1a943ce9c7a0d,64d2fd46c836a06233681665,64dc7d508fa1dd5cafe6c0f5,,,,,,,decisionTrl,resources/DB.BMP,resources/DY.BMP,WildCard_NonEx,-0.191666667,-0.00648151,1,0,0,0.8803,optionLeft,55,9605,5,4,0,4,0,1,,,,,,,,,,,,,,,,,,,,,,,,,,,,,,,,,,,,,,,
,,,,,,,,2023-08-16_08h40.17.408,HF_wild_card,2022.2.4,Win32,59.08070424,610ba21888a1a943ce9c7a0d,64d2fd46c836a06233681665,64dc7d508fa1dd5cafe6c0f5,,,,,,,decisionTrl,resources/DR.BMP,resources/DP.BMP,Door4,-0.173148092,0.009259245,1,0,0,1.7128,optionLeft,60,9665,5,5,0,5,0,1,,,,,,,,,,,,,,,,,,,,,,,,,,,,,,,,,,,,,,,
,,,,,,,,2023-08-16_08h40.17.408,HF_wild_card,2022.2.4,Win32,59.08070424,610ba21888a1a943ce9c7a0d,64d2fd46c836a06233681665,64dc7d508fa1dd5cafe6c0f5,,,,,,,decisionTrl,resources/DP.BMP,resources/DR.BMP,Door3,-0.15,0.00370369,1,0,0,1.1647,optionLeft,70,9735,5,6,0,6,0,1,,,,,,,,,,,,,,,,,,,,,,,,,,,,,,,,,,,,,,,
,,,,,,,,2023-08-16_08h40.17.408,HF_wild_card,2022.2.4,Win32,59.08070424,610ba21888a1a943ce9c7a0d,64d2fd46c836a06233681665,64dc7d508fa1dd5cafe6c0f5,,,,,,,ctch,resources/DR.BMP,resources/DBN.BMP,Door4,-0.162036981,0.02870369,1,0,0,1.7467,optionLeft,80,9815,5,7,0,7,0,1,,,,,,,,,,,,,,,,,,,,,,,,,,,,,,,,,,,,,,,
,,,,,,,,2023-08-16_08h40.17.408,HF_wild_card,2022.2.4,Win32,59.08070424,610ba21888a1a943ce9c7a0d,64d2fd46c836a06233681665,64dc7d508fa1dd5cafe6c0f5,,,,,,,decisionTrl,resources/DP.BMP,resources/DR.BMP,Door3,-0.256481467,-0.043518533,1,0,0,0.9302,optionLeft,70,9885,5,8,0,8,0,1,,,,,,,,,,,,,,,,,,,,,,,,,,,,,,,,,,,,,,,
,,,,,,,,2023-08-16_08h40.17.408,HF_wild_card,2022.2.4,Win32,59.08070424,610ba21888a1a943ce9c7a0d,64d2fd46c836a06233681665,64dc7d508fa1dd5cafe6c0f5,,,,,,,sngl,resources/DY.BMP,resources/Empty.png,Door2,-0.285185157,-0.028703732,1,0,0,0.9637,optionLeft,40,9925,5,9,0,9,0,1,,,,,,,,,,,,,,,,,,,,,,,,,,,,,,,,,,,,,,,
,,,,,,,,2023-08-16_08h40.17.408,HF_wild_card,2022.2.4,Win32,59.08070424,610ba21888a1a943ce9c7a0d,64d2fd46c836a06233681665,64dc7d508fa1dd5cafe6c0f5,,,,,,,decisionTrl,resources/DY.BMP,resources/DBN.BMP,Door2,-0.233333333,-0.025,1,0,0,0.9978,optionLeft,40,9965,5,10,0,10,0,1,,,,,,,,,,,,,,,,,,,,,,,,,,,,,,,,,,,,,,,
,,,,,,,,2023-08-16_08h40.17.408,HF_wild_card,2022.2.4,Win32,59.08070424,610ba21888a1a943ce9c7a0d,64d2fd46c836a06233681665,64dc7d508fa1dd5cafe6c0f5,,,,,,,ctch,resources/DP.BMP,resources/DY.BMP,Door3,-0.274074046,-0.036111111,1,0,0,1.5647,optionLeft,70,10035,5,11,0,11,0,1,,,,,,,,,,,,,,,,,,,,,,,,,,,,,,,,,,,,,,,
,,,,,,,,2023-08-16_08h40.17.408,HF_wild_card,2022.2.4,Win32,59.08070424,610ba21888a1a943ce9c7a0d,64d2fd46c836a06233681665,64dc7d508fa1dd5cafe6c0f5,,,,,,,sngl,resources/DBN.BMP,resources/Empty.png,Door1,-0.241666667,0.009259245,1,0,0,0.8804,optionLeft,30,10065,5,12,0,12,0,1,,,,,,,,,,,,,,,,,,,,,,,,,,,,,,,,,,,,,,,
,,,,,,,,2023-08-16_08h40.17.408,HF_wild_card,2022.2.4,Win32,59.08070424,610ba21888a1a943ce9c7a0d,64d2fd46c836a06233681665,64dc7d508fa1dd5cafe6c0f5,,,,,,,decisionTrl,resources/DR.BMP,resources/DP.BMP,Door4,-0.271296268,-0.025,1,0,0,2.1641,optionLeft,80,10145,5,13,0,13,0,1,,,,,,,,,,,,,,,,,,,,,,,,,,,,,,,,,,,,,,,
,,,,,,,,2023-08-16_08h40.17.408,HF_wild_card,2022.2.4,Win32,59.08070424,610ba21888a1a943ce9c7a0d,64d2fd46c836a06233681665,64dc7d508fa1dd5cafe6c0f5,,,,,,,sngl,resources/DB.BMP,resources/Empty.png,WildCard_NonEx,-0.212962935,0.016666667,1,0,0,0.8807,optionLeft,45,10190,5,14,0,14,0,1,,,,,,,,,,,,,,,,,,,,,,,,,,,,,,,,,,,,,,,
,,,,,,,,2023-08-16_08h40.17.408,HF_wild_card,2022.2.4,Win32,59.08070424,610ba21888a1a943ce9c7a0d,64d2fd46c836a06233681665,64dc7d508fa1dd5cafe6c0f5,,,,,,,decisionTrl,resources/DP.BMP,resources/DB.BMP,WildCard_NonEx,0.275925954,0.012037023,1,0,0,1.1644,optionRight,45,10235,5,15,0,15,0,1,,,,,,,,,,,,,,,,,,,,,,,,,,,,,,,,,,,,,,,
,,,,,,,,2023-08-16_08h40.17.408,HF_wild_card,2022.2.4,Win32,59.08070424,610ba21888a1a943ce9c7a0d,64d2fd46c836a06233681665,64dc7d508fa1dd5cafe6c0f5,,,,,,,ctch,resources/DBN.BMP,resources/DR.BMP,Door4,0.269444444,-0.030555556,1,0,0,1.5462,optionRight,80,10315,5,16,0,16,0,1,,,,,,,,,,,,,,,,,,,,,,,,,,,,,,,,,,,,,,,
,,,,,,,,2023-08-16_08h40.17.408,HF_wild_card,2022.2.4,Win32,59.08070424,610ba21888a1a943ce9c7a0d,64d2fd46c836a06233681665,64dc7d508fa1dd5cafe6c0f5,,,,,,,decisionTrl,resources/DR.BMP,resources/DP.BMP,Door4,-0.308333333,-0.027777778,1,0,0,1.0139,optionLeft,80,10395,5,17,0,17,0,1,,,,,,,,,,,,,,,,,,,,,,,,,,,,,,,,,,,,,,,
,,,,,,,,2023-08-16_08h40.17.408,HF_wild_card,2022.2.4,Win32,59.08070424,610ba21888a1a943ce9c7a0d,64d2fd46c836a06233681665,64dc7d508fa1dd5cafe6c0f5,,,,,,,sngl,resources/Empty.png,resources/DP.BMP,Door3,0.286111111,-0.018518533,1,0,0,0.8639,optionRight,70,10465,5,18,0,18,0,1,,,,,,,,,,,,,,,,,,,,,,,,,,,,,,,,,,,,,,,
,,,,,,,,2023-08-16_08h40.17.408,HF_wild_card,2022.2.4,Win32,59.08070424,610ba21888a1a943ce9c7a0d,64d2fd46c836a06233681665,64dc7d508fa1dd5cafe6c0f5,,,,,,,decisionTrl,resources/DBN.BMP,resources/DY.BMP,Door1,-0.217592578,0.027777778,1,0,0,1.2973,optionLeft,30,10495,5,19,0,19,0,1,,,,,,,,,,,,,,,,,,,,,,,,,,,,,,,,,,,,,,,
,,,,,,,,2023-08-16_08h40.17.408,HF_wild_card,2022.2.4,Win32,59.08070424,610ba21888a1a943ce9c7a0d,64d2fd46c836a06233681665,64dc7d508fa1dd5cafe6c0f5,,,,,,,ctch,resources/DR.BMP,resources/DBN.BMP,Door4,-0.259259245,-0.005555556,1,0,0,1.231,optionLeft,60,10555,5,20,0,20,0,1,,,,,,,,,,,,,,,,,,,,,,,,,,,,,,,,,,,,,,,
,,,,,,,,2023-08-16_08h40.17.408,HF_wild_card,2022.2.4,Win32,59.08070424,610ba21888a1a943ce9c7a0d,64d2fd46c836a06233681665,64dc7d508fa1dd5cafe6c0f5,,,,,,,decisionTrl,resources/DBN.BMP,resources/DY.BMP,Door2,0.308333333,-0.005555556,1,0,0,1.9137,optionRight,40,10595,5,21,0,21,0,1,,,,,,,,,,,,,,,,,,,,,,,,,,,,,,,,,,,,,,,
,,,,,,,,2023-08-16_08h40.17.408,HF_wild_card,2022.2.4,Win32,59.08070424,610ba21888a1a943ce9c7a0d,64d2fd46c836a06233681665,64dc7d508fa1dd5cafe6c0f5,,,,,,,ctch,resources/DBN.BMP,resources/DR.BMP,Door4,0.380555556,-0.026851866,1,0,0,1.1811,optionRight,80,10675,5,22,0,22,0,1,,,,,,,,,,,,,,,,,,,,,,,,,,,,,,,,,,,,,,,
,,,,,,,,2023-08-16_08h40.17.408,HF_wild_card,2022.2.4,Win32,59.08070424,610ba21888a1a943ce9c7a0d,64d2fd46c836a06233681665,64dc7d508fa1dd5cafe6c0f5,,,,,,,sngl,resources/DP.BMP,resources/Empty.png,Door3,-0.277777778,0.001851824,1,0,0,0.8471,optionLeft,70,10745,5,23,0,23,0,1,,,,,,,,,,,,,,,,,,,,,,,,,,,,,,,,,,,,,,,
,,,,,,,,2023-08-16_08h40.17.408,HF_wild_card,2022.2.4,Win32,59.08070424,610ba21888a1a943ce9c7a0d,64d2fd46c836a06233681665,64dc7d508fa1dd5cafe6c0f5,,,,,,,decisionTrl,resources/DR.BMP,resources/DP.BMP,Door4,-0.237962935,-0.000925954,1,0,0,1.6475,optionLeft,80,10825,5,24,0,24,0,1,,,,,,,,,,,,,,,,,,,,,,,,,,,,,,,,,,,,,,,
,,,,,,,,2023-08-16_08h40.17.408,HF_wild_card,2022.2.4,Win32,59.08070424,610ba21888a1a943ce9c7a0d,64d2fd46c836a06233681665,64dc7d508fa1dd5cafe6c0f5,,,,,,,sngl,resources/DR.BMP,resources/Empty.png,Door4,-0.251851824,-0.035185199,1,0,0,1.6482,optionLeft,80,10905,5,25,0,25,0,1,,,,,,,,,,,,,,,,,,,,,,,,,,,,,,,,,,,,,,,
,,,,,,,,2023-08-16_08h40.17.408,HF_wild_card,2022.2.4,Win32,59.08070424,610ba21888a1a943ce9c7a0d,64d2fd46c836a06233681665,64dc7d508fa1dd5cafe6c0f5,,,,,,,decisionTrl,resources/DP.BMP,resources/DR.BMP,Door3,-0.271296268,0.006481467,1,0,0,1.2311,optionLeft,70,10975,5,26,0,26,0,1,,,,,,,,,,,,,,,,,,,,,,,,,,,,,,,,,,,,,,,
,,,,,,,,2023-08-16_08h40.17.408,HF_wild_card,2022.2.4,Win32,59.08070424,610ba21888a1a943ce9c7a0d,64d2fd46c836a06233681665,64dc7d508fa1dd5cafe6c0f5,,,,,,,ctch,resources/DY.BMP,resources/DP.BMP,Door3,0.30648151,0.008333333,1,0,0,1.2966,optionRight,70,11045,5,27,0,27,0,1,,,,,,,,,,,,,,,,,,,,,,,,,,,,,,,,,,,,,,,
,,,,,,,,2023-08-16_08h40.17.408,HF_wild_card,2022.2.4,Win32,59.08070424,610ba21888a1a943ce9c7a0d,64d2fd46c836a06233681665,64dc7d508fa1dd5cafe6c0f5,,,,,,,decisionTrl,resources/DBN.BMP,resources/DY.BMP,Door2,0.288888889,-0.043518533,1,0,0,0.9639,optionRight,20,11065,5,28,0,28,0,1,,,,,,,,,,,,,,,,,,,,,,,,,,,,,,,,,,,,,,,
,,,,,,,,2023-08-16_08h40.17.408,HF_wild_card,2022.2.4,Win32,59.08070424,610ba21888a1a943ce9c7a0d,64d2fd46c836a06233681665,64dc7d508fa1dd5cafe6c0f5,,,,,,,sngl,resources/Empty.png,resources/DB.BMP,WildCard_NonEx,0.286111111,-0.02129631,1,0,0,0.9295,optionRight,45,11110,5,29,0,29,0,1,,,,,,,,,,,,,,,,,,,,,,,,,,,,,,,,,,,,,,,
,,,,,,,,2023-08-16_08h40.17.408,HF_wild_card,2022.2.4,Win32,59.08070424,610ba21888a1a943ce9c7a0d,64d2fd46c836a06233681665,64dc7d508fa1dd5cafe6c0f5,,,,,,,decisionTrl,resources/DY.BMP,resources/DB.BMP,WildCard_NonEx,0.340740797,0.027777778,1,0,0,1.6637,optionRight,55,11165,5,30,0,30,0,1,,,,,,,,,,,,,,,,,,,,,,,,,,,,,,,,,,,,,,,
,,,,,,,,2023-08-16_08h40.17.408,HF_wild_card,2022.2.4,Win32,59.08070424,610ba21888a1a943ce9c7a0d,64d2fd46c836a06233681665,64dc7d508fa1dd5cafe6c0f5,,,,,,,sngl,resources/DB.BMP,resources/Empty.png,WildCard_NonEx,-0.291666667,-0.05,1,0,0,0.7652,optionLeft,55,11220,5,31,0,31,0,1,,,,,,,,,,,,,,,,,,,,,,,,,,,,,,,,,,,,,,,
,,,,,,,,2023-08-16_08h40.17.408,HF_wild_card,2022.2.4,Win32,59.08070424,610ba21888a1a943ce9c7a0d,64d2fd46c836a06233681665,64dc7d508fa1dd5cafe6c0f5,,,,,,,decisionTrl,resources/DB.BMP,resources/DBN.BMP,WildCard_NonEx,-0.307407379,0.000925912,1,0,0,0.9135,optionLeft,45,11265,5,32,0,32,0,1,,,,,,,,,,,,,,,,,,,,,,,,,,,,,,,,,,,,,,,
,,,,,,,,2023-08-16_08h40.17.408,HF_wild_card,2022.2.4,Win32,59.08070424,610ba21888a1a943ce9c7a0d,64d2fd46c836a06233681665,64dc7d508fa1dd5cafe6c0f5,,,,,,,decisionTrl,resources/DY.BMP,resources/DBN.BMP,Door2,-0.275,0.017592578,1,0,0,1.1465,optionLeft,40,11305,5,33,0,33,0,1,,,,,,,,,,,,,,,,,,,,,,,,,,,,,,,,,,,,,,,
,,,,,,,,2023-08-16_08h40.17.408,HF_wild_card,2022.2.4,Win32,59.08070424,610ba21888a1a943ce9c7a0d,64d2fd46c836a06233681665,64dc7d508fa1dd5cafe6c0f5,,,,,,,sngl,resources/Empty.png,resources/DR.BMP,Door4,0.395370399,-0.014814843,1,0,0,0.9474,optionRight,60,11365,5,34,0,34,0,1,,,,,,,,,,,,,,,,,,,,,,,,,,,,,,,,,,,,,,,
,,,,,,,,2023-08-16_08h40.17.408,HF_wild_card,2022.2.4,Win32,59.08070424,610ba21888a1a943ce9c7a0d,64d2fd46c836a06233681665,64dc7d508fa1dd5cafe6c0f5,,,,,,,decisionTrl,resources/DB.BMP,resources/DR.BMP,Door4,0.498148176,-0.025,1,0,0,1.5972,optionRight,80,11445,5,35,0,35,0,1,,,,,,,,,,,,,,,,,,,,,,,,,,,,,,,,,,,,,,,
,,,,,,,,2023-08-16_08h40.17.408,HF_wild_card,2022.2.4,Win32,59.08070424,610ba21888a1a943ce9c7a0d,64d2fd46c836a06233681665,64dc7d508fa1dd5cafe6c0f5,,,,,,,decisionTrl,resources/DP.BMP,resources/DR.BMP,Door4,0.307407464,-0.012962977,1,0,0,1.5972,optionRight,80,11525,5,36,0,36,0,1,,,,,,,,,,,,,,,,,,,,,,,,,,,,,,,,,,,,,,,
,,,,,,,,2023-08-16_08h40.17.408,HF_wild_card,2022.2.4,Win32,59.08070424,610ba21888a1a943ce9c7a0d,64d2fd46c836a06233681665,64dc7d508fa1dd5cafe6c0f5,,,,,,,sngl,resources/Empty.png,resources/DB.BMP,WildCard_NonEx,0.244444444,-0.010185199,1,0,0,0.8141,optionRight,55,11580,5,37,0,37,0,1,,,,,,,,,,,,,,,,,,,,,,,,,,,,,,,,,,,,,,,
,,,,,,,,2023-08-16_08h40.17.408,HF_wild_card,2022.2.4,Win32,59.08070424,610ba21888a1a943ce9c7a0d,64d2fd46c836a06233681665,64dc7d508fa1dd5cafe6c0f5,,,,,,,sngl,resources/Empty.png,resources/DY.BMP,Door2,0.247222222,-0.002777778,1,0,0,0.8636,optionRight,20,11600,5,38,0,38,0,1,,,,,,,,,,,,,,,,,,,,,,,,,,,,,,,,,,,,,,,
,,,,,,,,2023-08-16_08h40.17.408,HF_wild_card,2022.2.4,Win32,59.08070424,610ba21888a1a943ce9c7a0d,64d2fd46c836a06233681665,64dc7d508fa1dd5cafe6c0f5,,,,,,,ctch,resources/DY.BMP,resources/DP.BMP,Door3,0.377777778,-0.00648151,1,0,0,1.38,optionRight,70,11670,5,39,0,39,0,1,,,,,,,,,,,,,,,,,,,,,,,,,,,,,,,,,,,,,,,
,,,,,,,,2023-08-16_08h40.17.408,HF_wild_card,2022.2.4,Win32,59.08070424,610ba21888a1a943ce9c7a0d,64d2fd46c836a06233681665,64dc7d508fa1dd5cafe6c0f5,,,,,,,decisionTrl,resources/DR.BMP,resources/DB.BMP,Door4,-0.260185157,-0.003703732,1,0,0,1.6465,optionLeft,60,11730,5,40,0,40,0,1,,,,,,,,,,,,,,,,,,,,,,,,,,,,,,,,,,,,,,,
,,,,,,,,2023-08-16_08h40.17.408,HF_wild_card,2022.2.4,Win32,59.08070424,610ba21888a1a943ce9c7a0d,64d2fd46c836a06233681665,64dc7d508fa1dd5cafe6c0f5,,,,,,,sngl,resources/Empty.png,resources/DBN.BMP,Door1,0.292592621,-0.00648151,1,0,0,0.9303,optionRight,30,11760,5,41,0,41,0,1,,,,,,,,,,,,,,,,,,,,,,,,,,,,,,,,,,,,,,,
,,,,,,,,2023-08-16_08h40.17.408,HF_wild_card,2022.2.4,Win32,59.08070424,610ba21888a1a943ce9c7a0d,64d2fd46c836a06233681665,64dc7d508fa1dd5cafe6c0f5,,,,,,,decisionTrl,resources/DY.BMP,resources/DBN.BMP,Door2,-0.245370356,-0.005555556,1,0,0,1.1633,optionLeft,20,11780,5,42,0,42,0,1,,,,,,,,,,,,,,,,,,,,,,,,,,,,,,,,,,,,,,,
,,,,,,,,2023-08-16_08h40.17.408,HF_wild_card,2022.2.4,Win32,59.08070424,610ba21888a1a943ce9c7a0d,64d2fd46c836a06233681665,64dc7d508fa1dd5cafe6c0f5,,,,,,,decisionTrl,resources/DB.BMP,resources/DP.BMP,Door3,0.242592621,-0.044444444,1,0,0,0.9962,optionRight,70,11850,5,43,0,43,0,1,,,,,,,,,,,,,,,,,,,,,,,,,,,,,,,,,,,,,,,
,,,,,,,,2023-08-16_08h40.17.408,HF_wild_card,2022.2.4,Win32,59.08070424,610ba21888a1a943ce9c7a0d,64d2fd46c836a06233681665,64dc7d508fa1dd5cafe6c0f5,,,,,,,,,,,,,,,,,,,,,,,,,,4,0,4,0,1,,,,,,,,,,,,,,,,,,,,,,,,,,,,,,,,,,
,,,,,,,,2023-08-16_08h40.17.408,HF_wild_card,2022.2.4,Win32,59.08070424,610ba21888a1a943ce9c7a0d,64d2fd46c836a06233681665,64dc7d508fa1dd5cafe6c0f5,,,,,,,decisionTrl,resources/DY.BMP,resources/DBN.BMP,Door2,-0.210185157,-0.015740755,1,0,0,1.3506,optionLeft,40,11890,6,0,0,0,0,1,,,,,,,,,,,,,,,,,,,,,,,,,,,,,,,,,,,,,,,
,,,,,,,,2023-08-16_08h40.17.408,HF_wild_card,2022.2.4,Win32,59.08070424,610ba21888a1a943ce9c7a0d,64d2fd46c836a06233681665,64dc7d508fa1dd5cafe6c0f5,,,,,,,decisionTrl,resources/DP.BMP,resources/DR.BMP,Door4,0.474074131,0.024074046,1,0,0,1.5972,optionRight,80,11970,6,1,0,1,0,1,,,,,,,,,,,,,,,,,,,,,,,,,,,,,,,,,,,,,,,
,,,,,,,,2023-08-16_08h40.17.408,HF_wild_card,2022.2.4,Win32,59.08070424,610ba21888a1a943ce9c7a0d,64d2fd46c836a06233681665,64dc7d508fa1dd5cafe6c0f5,,,,,,,ctch,resources/DP.BMP,resources/DY.BMP,Door3,-0.287037023,-0.033333333,1,0,0,0.9641,optionLeft,70,12040,6,2,0,2,0,1,,,,,,,,,,,,,,,,,,,,,,,,,,,,,,,,,,,,,,,
,,,,,,,,2023-08-16_08h40.17.408,HF_wild_card,2022.2.4,Win32,59.08070424,610ba21888a1a943ce9c7a0d,64d2fd46c836a06233681665,64dc7d508fa1dd5cafe6c0f5,,,,,,,decisionTrl,resources/DBN.BMP,resources/DB.BMP,WildCard_NonEx,0.422222222,0.005555556,1,0,0,1.1306,optionRight,45,12085,6,3,0,3,0,1,,,,,,,,,,,,,,,,,,,,,,,,,,,,,,,,,,,,,,,
,,,,,,,,2023-08-16_08h40.17.408,HF_wild_card,2022.2.4,Win32,59.08070424,610ba21888a1a943ce9c7a0d,64d2fd46c836a06233681665,64dc7d508fa1dd5cafe6c0f5,,,,,,,decisionTrl,resources/DP.BMP,resources/DB.BMP,Door3,-0.250925912,-0.004629644,1,0,0,0.8482,optionLeft,70,12155,6,4,0,4,0,1,,,,,,,,,,,,,,,,,,,,,,,,,,,,,,,,,,,,,,,
,,,,,,,,2023-08-16_08h40.17.408,HF_wild_card,2022.2.4,Win32,59.08070424,610ba21888a1a943ce9c7a0d,64d2fd46c836a06233681665,64dc7d508fa1dd5cafe6c0f5,,,,,,,decisionTrl,resources/DB.BMP,resources/DY.BMP,WildCard_NonEx,-0.362962935,-0.053703732,1,0,0,1.8803,optionLeft,45,12200,6,5,0,5,0,1,,,,,,,,,,,,,,,,,,,,,,,,,,,,,,,,,,,,,,,
,,,,,,,,2023-08-16_08h40.17.408,HF_wild_card,2022.2.4,Win32,59.08070424,610ba21888a1a943ce9c7a0d,64d2fd46c836a06233681665,64dc7d508fa1dd5cafe6c0f5,,,,,,,ctch,resources/DR.BMP,resources/DBN.BMP,Door4,-0.379629601,-0.065740755,1,0,0,0.8974,optionLeft,80,12280,6,6,0,6,0,1,,,,,,,,,,,,,,,,,,,,,,,,,,,,,,,,,,,,,,,
,,,,,,,,2023-08-16_08h40.17.408,HF_wild_card,2022.2.4,Win32,59.08070424,610ba21888a1a943ce9c7a0d,64d2fd46c836a06233681665,64dc7d508fa1dd5cafe6c0f5,,,,,,,decisionTrl,resources/DR.BMP,resources/DB.BMP,Door4,-0.281481467,-0.055555556,1,0,0,0.7809,optionLeft,60,12340,6,7,0,7,0,1,,,,,,,,,,,,,,,,,,,,,,,,,,,,,,,,,,,,,,,
,,,,,,,,2023-08-16_08h40.17.408,HF_wild_card,2022.2.4,Win32,59.08070424,610ba21888a1a943ce9c7a0d,64d2fd46c836a06233681665,64dc7d508fa1dd5cafe6c0f5,,,,,,,decisionTrl,resources/DY.BMP,resources/DB.BMP,WildCard_NonEx,0.343518575,0.012962935,1,0,0,1.38,optionRight,55,12395,6,8,0,8,0,1,,,,,,,,,,,,,,,,,,,,,,,,,,,,,,,,,,,,,,,
,,,,,,,,2023-08-16_08h40.17.408,HF_wild_card,2022.2.4,Win32,59.08070424,610ba21888a1a943ce9c7a0d,64d2fd46c836a06233681665,64dc7d508fa1dd5cafe6c0f5,,,,,,,sngl,resources/Empty.png,resources/DY.BMP,Door2,0.198148176,-0.024074088,1,0,0,0.9984,optionRight,40,12435,6,9,0,9,0,1,,,,,,,,,,,,,,,,,,,,,,,,,,,,,,,,,,,,,,,
,,,,,,,,2023-08-16_08h40.17.408,HF_wild_card,2022.2.4,Win32,59.08070424,610ba21888a1a943ce9c7a0d,64d2fd46c836a06233681665,64dc7d508fa1dd5cafe6c0f5,,,,,,,decisionTrl,resources/DBN.BMP,resources/DY.BMP,Door2,0.287037065,-0.048148176,1,0,0,0.9811,optionRight,20,12455,6,10,0,10,0,1,,,,,,,,,,,,,,,,,,,,,,,,,,,,,,,,,,,,,,,
,,,,,,,,2023-08-16_08h40.17.408,HF_wild_card,2022.2.4,Win32,59.08070424,610ba21888a1a943ce9c7a0d,64d2fd46c836a06233681665,64dc7d508fa1dd5cafe6c0f5,,,,,,,decisionTrl,resources/DB.BMP,resources/DP.BMP,Door3,0.278703732,0.023148134,1,0,0,1.0475,optionRight,70,12525,6,11,0,11,0,1,,,,,,,,,,,,,,,,,,,,,,,,,,,,,,,,,,,,,,,
,,,,,,,,2023-08-16_08h40.17.408,HF_wild_card,2022.2.4,Win32,59.08070424,610ba21888a1a943ce9c7a0d,64d2fd46c836a06233681665,64dc7d508fa1dd5cafe6c0f5,,,,,,,decisionTrl,resources/DP.BMP,resources/DR.BMP,Door3,-0.214814801,-0.023148176,1,0,0,0.8308,optionLeft,70,12595,6,12,0,12,0,1,,,,,,,,,,,,,,,,,,,,,,,,,,,,,,,,,,,,,,,
,,,,,,,,2023-08-16_08h40.17.408,HF_wild_card,2022.2.4,Win32,59.08070424,610ba21888a1a943ce9c7a0d,64d2fd46c836a06233681665,64dc7d508fa1dd5cafe6c0f5,,,,,,,decisionTrl,resources/DBN.BMP,resources/DY.BMP,Door1,-0.196296268,-0.023148176,1,0,0,1.3977,optionLeft,30,12625,6,13,0,13,0,1,,,,,,,,,,,,,,,,,,,,,,,,,,,,,,,,,,,,,,,
,,,,,,,,2023-08-16_08h40.17.408,HF_wild_card,2022.2.4,Win32,59.08070424,610ba21888a1a943ce9c7a0d,64d2fd46c836a06233681665,64dc7d508fa1dd5cafe6c0f5,,,,,,,decisionTrl,resources/DY.BMP,resources/DBN.BMP,Door1,0.316666667,0.023148134,1,0,0,0.9961,optionRight,30,12655,6,14,0,14,0,1,,,,,,,,,,,,,,,,,,,,,,,,,,,,,,,,,,,,,,,
,,,,,,,,2023-08-16_08h40.17.408,HF_wild_card,2022.2.4,Win32,59.08070424,610ba21888a1a943ce9c7a0d,64d2fd46c836a06233681665,64dc7d508fa1dd5cafe6c0f5,,,,,,,sngl,resources/DP.BMP,resources/Empty.png,Door3,-0.301851824,-0.026851866,1,0,0,0.7801,optionLeft,70,12725,6,15,0,15,0,1,,,,,,,,,,,,,,,,,,,,,,,,,,,,,,,,,,,,,,,
,,,,,,,,2023-08-16_08h40.17.408,HF_wild_card,2022.2.4,Win32,59.08070424,610ba21888a1a943ce9c7a0d,64d2fd46c836a06233681665,64dc7d508fa1dd5cafe6c0f5,,,,,,,sngl,resources/Empty.png,resources/DP.BMP,Door3,0.362037065,0.008333333,1,0,0,0.6807,optionRight,70,12795,6,16,0,16,0,1,,,,,,,,,,,,,,,,,,,,,,,,,,,,,,,,,,,,,,,
,,,,,,,,2023-08-16_08h40.17.408,HF_wild_card,2022.2.4,Win32,59.08070424,610ba21888a1a943ce9c7a0d,64d2fd46c836a06233681665,64dc7d508fa1dd5cafe6c0f5,,,,,,,decisionTrl,resources/DY.BMP,resources/DBN.BMP,Door2,-0.182407379,0.008333333,1,0,0,2.3476,optionLeft,20,12815,6,17,0,17,0,1,,,,,,,,,,,,,,,,,,,,,,,,,,,,,,,,,,,,,,,
,,,,,,,,2023-08-16_08h40.17.408,HF_wild_card,2022.2.4,Win32,59.08070424,610ba21888a1a943ce9c7a0d,64d2fd46c836a06233681665,64dc7d508fa1dd5cafe6c0f5,,,,,,,decisionTrl,resources/DP.BMP,resources/DR.BMP,Door4,0.412037065,0.005555556,1,0,0,1.3644,optionRight,60,12875,6,18,0,18,0,1,,,,,,,,,,,,,,,,,,,,,,,,,,,,,,,,,,,,,,,
,,,,,,,,2023-08-16_08h40.17.408,HF_wild_card,2022.2.4,Win32,59.08070424,610ba21888a1a943ce9c7a0d,64d2fd46c836a06233681665,64dc7d508fa1dd5cafe6c0f5,,,,,,,decisionTrl,resources/DBN.BMP,resources/DY.BMP,Door2,0.328703732,0.041666667,1,0,0,1.8808,optionRight,20,12895,6,19,0,19,0,1,,,,,,,,,,,,,,,,,,,,,,,,,,,,,,,,,,,,,,,
,,,,,,,,2023-08-16_08h40.17.408,HF_wild_card,2022.2.4,Win32,59.08070424,610ba21888a1a943ce9c7a0d,64d2fd46c836a06233681665,64dc7d508fa1dd5cafe6c0f5,,,,,,,ctch,resources/DR.BMP,resources/DBN.BMP,Door1,0.273148176,-0.032407422,1,0,0,1.0138,optionRight,30,12925,6,20,0,20,0,1,,,,,,,,,,,,,,,,,,,,,,,,,,,,,,,,,,,,,,,
,,,,,,,,2023-08-16_08h40.17.408,HF_wild_card,2022.2.4,Win32,59.08070424,610ba21888a1a943ce9c7a0d,64d2fd46c836a06233681665,64dc7d508fa1dd5cafe6c0f5,,,,,,,sngl,resources/Empty.png,resources/DR.BMP,Door4,0.294444444,0.044444444,1,0,0,0.8811,optionRight,80,13005,6,21,0,21,0,1,,,,,,,,,,,,,,,,,,,,,,,,,,,,,,,,,,,,,,,
,,,,,,,,2023-08-16_08h40.17.408,HF_wild_card,2022.2.4,Win32,59.08070424,610ba21888a1a943ce9c7a0d,64d2fd46c836a06233681665,64dc7d508fa1dd5cafe6c0f5,,,,,,,decisionTrl,resources/DP.BMP,resources/DR.BMP,Door4,0.299074131,0.034259245,1,0,0,0.9974,optionRight,60,13065,6,22,0,22,0,1,,,,,,,,,,,,,,,,,,,,,,,,,,,,,,,,,,,,,,,
,,,,,,,,2023-08-16_08h40.17.408,HF_wild_card,2022.2.4,Win32,59.08070424,610ba21888a1a943ce9c7a0d,64d2fd46c836a06233681665,64dc7d508fa1dd5cafe6c0f5,,,,,,,decisionTrl,resources/DY.BMP,resources/DBN.BMP,Door2,-0.162036981,0.025,1,0,0,3.7966,optionLeft,40,13105,6,23,0,23,0,1,,,,,,,,,,,,,,,,,,,,,,,,,,,,,,,,,,,,,,,
,,,,,,,,2023-08-16_08h40.17.408,HF_wild_card,2022.2.4,Win32,59.08070424,610ba21888a1a943ce9c7a0d,64d2fd46c836a06233681665,64dc7d508fa1dd5cafe6c0f5,,,,,,,ctch,resources/DY.BMP,resources/DP.BMP,Door3,0.334259288,0.037962935,1,0,0,1.0634,optionRight,70,13175,6,24,0,24,0,1,,,,,,,,,,,,,,,,,,,,,,,,,,,,,,,,,,,,,,,
,,,,,,,,2023-08-16_08h40.17.408,HF_wild_card,2022.2.4,Win32,59.08070424,610ba21888a1a943ce9c7a0d,64d2fd46c836a06233681665,64dc7d508fa1dd5cafe6c0f5,,,,,,,decisionTrl,resources/DBN.BMP,resources/DY.BMP,Door1,-0.297222222,-0.054629644,1,0,0,2.0467,optionLeft,30,13205,6,25,0,25,0,1,,,,,,,,,,,,,,,,,,,,,,,,,,,,,,,,,,,,,,,
,,,,,,,,2023-08-16_08h40.17.408,HF_wild_card,2022.2.4,Win32,59.08070424,610ba21888a1a943ce9c7a0d,64d2fd46c836a06233681665,64dc7d508fa1dd5cafe6c0f5,,,,,,,decisionTrl,resources/DB.BMP,resources/DR.BMP,Door4,0.239814843,-0.010185199,1,0,0,1.6626,optionRight,60,13265,6,26,0,26,0,1,,,,,,,,,,,,,,,,,,,,,,,,,,,,,,,,,,,,,,,
,,,,,,,,2023-08-16_08h40.17.408,HF_wild_card,2022.2.4,Win32,59.08070424,610ba21888a1a943ce9c7a0d,64d2fd46c836a06233681665,64dc7d508fa1dd5cafe6c0f5,,,,,,,sngl,resources/DY.BMP,resources/Empty.png,Door2,-0.305555556,-0.008333333,1,0,0,1.4802,optionLeft,20,13285,6,27,0,27,0,1,,,,,,,,,,,,,,,,,,,,,,,,,,,,,,,,,,,,,,,
,,,,,,,,2023-08-16_08h40.17.408,HF_wild_card,2022.2.4,Win32,59.08070424,610ba21888a1a943ce9c7a0d,64d2fd46c836a06233681665,64dc7d508fa1dd5cafe6c0f5,,,,,,,sngl,resources/Empty.png,resources/DB.BMP,WildCard_NonEx,0.425925954,0.006481467,1,0,0,0.7636,optionRight,55,13340,6,28,0,28,0,1,,,,,,,,,,,,,,,,,,,,,,,,,,,,,,,,,,,,,,,
,,,,,,,,2023-08-16_08h40.17.408,HF_wild_card,2022.2.4,Win32,59.08070424,610ba21888a1a943ce9c7a0d,64d2fd46c836a06233681665,64dc7d508fa1dd5cafe6c0f5,,,,,,,sngl,resources/Empty.png,resources/DBN.BMP,Door1,0.324074131,0.031481467,1,0,0,0.88,optionRight,30,13370,6,29,0,29,0,1,,,,,,,,,,,,,,,,,,,,,,,,,,,,,,,,,,,,,,,
,,,,,,,,2023-08-16_08h40.17.408,HF_wild_card,2022.2.4,Win32,59.08070424,610ba21888a1a943ce9c7a0d,64d2fd46c836a06233681665,64dc7d508fa1dd5cafe6c0f5,,,,,,,sngl,resources/DBN.BMP,resources/Empty.png,Door1,-0.283333333,-0.033333333,1,0,0,0.6969,optionLeft,30,13400,6,30,0,30,0,1,,,,,,,,,,,,,,,,,,,,,,,,,,,,,,,,,,,,,,,
,,,,,,,,2023-08-16_08h40.17.408,HF_wild_card,2022.2.4,Win32,59.08070424,610ba21888a1a943ce9c7a0d,64d2fd46c836a06233681665,64dc7d508fa1dd5cafe6c0f5,,,,,,,ctch,resources/DP.BMP,resources/DY.BMP,Door3,-0.142592536,0.045370356,1,0,0,1.3469,optionLeft,70,13470,6,31,0,31,0,1,,,,,,,,,,,,,,,,,,,,,,,,,,,,,,,,,,,,,,,
,,,,,,,,2023-08-16_08h40.17.408,HF_wild_card,2022.2.4,Win32,59.08070424,610ba21888a1a943ce9c7a0d,64d2fd46c836a06233681665,64dc7d508fa1dd5cafe6c0f5,,,,,,,sngl,resources/Empty.png,resources/DB.BMP,WildCard_NonEx,0.368518575,0.059259245,1,0,0,0.7305,optionRight,45,13515,6,32,0,32,0,1,,,,,,,,,,,,,,,,,,,,,,,,,,,,,,,,,,,,,,,
,,,,,,,,2023-08-16_08h40.17.408,HF_wild_card,2022.2.4,Win32,59.08070424,610ba21888a1a943ce9c7a0d,64d2fd46c836a06233681665,64dc7d508fa1dd5cafe6c0f5,,,,,,,ctch,resources/DY.BMP,resources/DP.BMP,Door3,0.312037065,-0.018518533,1,0,0,1.1646,optionRight,70,13585,6,33,0,33,0,1,,,,,,,,,,,,,,,,,,,,,,,,,,,,,,,,,,,,,,,
,,,,,,,,2023-08-16_08h40.17.408,HF_wild_card,2022.2.4,Win32,59.08070424,610ba21888a1a943ce9c7a0d,64d2fd46c836a06233681665,64dc7d508fa1dd5cafe6c0f5,,,,,,,decisionTrl,resources/DR.BMP,resources/DP.BMP,Door4,-0.312037023,-0.009259288,1,0,0,1.1141,optionLeft,80,13665,6,34,0,34,0,1,,,,,,,,,,,,,,,,,,,,,,,,,,,,,,,,,,,,,,,
,,,,,,,,2023-08-16_08h40.17.408,HF_wild_card,2022.2.4,Win32,59.08070424,610ba21888a1a943ce9c7a0d,64d2fd46c836a06233681665,64dc7d508fa1dd5cafe6c0f5,,,,,,,sngl,resources/DB.BMP,resources/Empty.png,WildCard_NonEx,-0.153703647,0.022222222,1,0,0,0.831,optionLeft,55,13720,6,35,0,35,0,1,,,,,,,,,,,,,,,,,,,,,,,,,,,,,,,,,,,,,,,
,,,,,,,,2023-08-16_08h40.17.408,HF_wild_card,2022.2.4,Win32,59.08070424,610ba21888a1a943ce9c7a0d,64d2fd46c836a06233681665,64dc7d508fa1dd5cafe6c0f5,,,,,,,ctch,resources/DBN.BMP,resources/DR.BMP,Door4,0.255555556,0.00370369,1,0,0,1.581,optionRight,60,13780,6,36,0,36,0,1,,,,,,,,,,,,,,,,,,,,,,,,,,,,,,,,,,,,,,,
,,,,,,,,2023-08-16_08h40.17.408,HF_wild_card,2022.2.4,Win32,59.08070424,610ba21888a1a943ce9c7a0d,64d2fd46c836a06233681665,64dc7d508fa1dd5cafe6c0f5,,,,,,,sngl,resources/DB.BMP,resources/Empty.png,WildCard_NonEx,-0.372222222,-0.062037065,1,0,0,0.8466,optionLeft,45,13825,6,37,0,37,0,1,,,,,,,,,,,,,,,,,,,,,,,,,,,,,,,,,,,,,,,
,,,,,,,,2023-08-16_08h40.17.408,HF_wild_card,2022.2.4,Win32,59.08070424,610ba21888a1a943ce9c7a0d,64d2fd46c836a06233681665,64dc7d508fa1dd5cafe6c0f5,,,,,,,decisionTrl,resources/DR.BMP,resources/DP.BMP,Door4,-0.258333333,-0.087037065,1,0,0,2.8632,optionLeft,60,13885,6,38,0,38,0,1,,,,,,,,,,,,,,,,,,,,,,,,,,,,,,,,,,,,,,,
,,,,,,,,2023-08-16_08h40.17.408,HF_wild_card,2022.2.4,Win32,59.08070424,610ba21888a1a943ce9c7a0d,64d2fd46c836a06233681665,64dc7d508fa1dd5cafe6c0f5,,,,,,,decisionTrl,resources/DB.BMP,resources/DBN.BMP,WildCard_NonEx,-0.255555556,0.049074046,1,0,0,1.2805,optionLeft,45,13930,6,39,0,39,0,1,,,,,,,,,,,,,,,,,,,,,,,,,,,,,,,,,,,,,,,
,,,,,,,,2023-08-16_08h40.17.408,HF_wild_card,2022.2.4,Win32,59.08070424,610ba21888a1a943ce9c7a0d,64d2fd46c836a06233681665,64dc7d508fa1dd5cafe6c0f5,,,,,,,decisionTrl,resources/DR.BMP,resources/DP.BMP,Door3,0.28148151,-0.057407422,1,0,0,1.5319,optionRight,70,14000,6,40,0,40,0,1,,,,,,,,,,,,,,,,,,,,,,,,,,,,,,,,,,,,,,,
,,,,,,,,2023-08-16_08h40.17.408,HF_wild_card,2022.2.4,Win32,59.08070424,610ba21888a1a943ce9c7a0d,64d2fd46c836a06233681665,64dc7d508fa1dd5cafe6c0f5,,,,,,,ctch,resources/DBN.BMP,resources/DR.BMP,Door4,0.23148151,0.007407379,1,0,0,1.6805,optionRight,60,14060,6,41,0,41,0,1,,,,,,,,,,,,,,,,,,,,,,,,,,,,,,,,,,,,,,,
,,,,,,,,2023-08-16_08h40.17.408,HF_wild_card,2022.2.4,Win32,59.08070424,610ba21888a1a943ce9c7a0d,64d2fd46c836a06233681665,64dc7d508fa1dd5cafe6c0f5,,,,,,,sngl,resources/DR.BMP,resources/Empty.png,Door4,-0.200925912,0.010185157,1,0,0,0.8148,optionLeft,60,14120,6,42,0,42,0,1,,,,,,,,,,,,,,,,,,,,,,,,,,,,,,,,,,,,,,,
,,,,,,,,2023-08-16_08h40.17.408,HF_wild_card,2022.2.4,Win32,59.08070424,610ba21888a1a943ce9c7a0d,64d2fd46c836a06233681665,64dc7d508fa1dd5cafe6c0f5,,,,,,,decisionTrl,resources/DR.BMP,resources/DP.BMP,Door3,0.312963019,-0.052777778,1,0,0,0.6801,optionRight,70,14190,6,43,0,43,0,1,,,,,,,,,,,,,,,,,,,,,,,,,,,,,,,,,,,,,,,
,,,,,,,,2023-08-16_08h40.17.408,HF_wild_card,2022.2.4,Win32,59.08070424,610ba21888a1a943ce9c7a0d,64d2fd46c836a06233681665,64dc7d508fa1dd5cafe6c0f5,,,,,,,,,,,,,,,,,,,,,,,,,,5,0,5,0,1,,,,,,,,,,,,,,,,,,,,,,,,,,,,,,,,,,
,,,,,,,,2023-08-16_08h40.17.408,HF_wild_card,2022.2.4,Win32,59.08070424,610ba21888a1a943ce9c7a0d,64d2fd46c836a06233681665,64dc7d508fa1dd5cafe6c0f5,,,,,,,decisionTrl,resources/DY.BMP,resources/DBN.BMP,Door1,0.409259288,0.008333333,1,0,0,2.5049,optionRight,30,14220,7,0,0,0,0,1,,,,,,,,,,,,,,,,,,,,,,,,,,,,,,,,,,,,,,,
,,,,,,,,2023-08-16_08h40.17.408,HF_wild_card,2022.2.4,Win32,59.08070424,610ba21888a1a943ce9c7a0d,64d2fd46c836a06233681665,64dc7d508fa1dd5cafe6c0f5,,,,,,,decisionTrl,resources/DBN.BMP,resources/DY.BMP,Door2,0.339814843,0.011111111,1,0,0,1.4823,optionRight,20,14240,7,1,0,1,0,1,,,,,,,,,,,,,,,,,,,,,,,,,,,,,,,,,,,,,,,
,,,,,,,,2023-08-16_08h40.17.408,HF_wild_card,2022.2.4,Win32,59.08070424,610ba21888a1a943ce9c7a0d,64d2fd46c836a06233681665,64dc7d508fa1dd5cafe6c0f5,,,,,,,decisionTrl,resources/DP.BMP,resources/DR.BMP,Door3,-0.320370356,-0.039814843,1,0,0,1.944,optionLeft,70,14310,7,2,0,2,0,1,,,,,,,,,,,,,,,,,,,,,,,,,,,,,,,,,,,,,,,
,,,,,,,,2023-08-16_08h40.17.408,HF_wild_card,2022.2.4,Win32,59.08070424,610ba21888a1a943ce9c7a0d,64d2fd46c836a06233681665,64dc7d508fa1dd5cafe6c0f5,,,,,,,ctch,resources/DR.BMP,resources/DBN.BMP,Door4,-0.345370356,-0.015740755,1,0,0,0.9486,optionLeft,60,14370,7,3,0,3,0,1,,,,,,,,,,,,,,,,,,,,,,,,,,,,,,,,,,,,,,,
,,,,,,,,2023-08-16_08h40.17.408,HF_wild_card,2022.2.4,Win32,59.08070424,610ba21888a1a943ce9c7a0d,64d2fd46c836a06233681665,64dc7d508fa1dd5cafe6c0f5,,,,,,,ctch,resources/DP.BMP,resources/DY.BMP,Door3,-0.329629601,-0.032407422,1,0,0,1.1861,optionLeft,70,14440,7,4,0,4,0,1,,,,,,,,,,,,,,,,,,,,,,,,,,,,,,,,,,,,,,,
,,,,,,,,2023-08-16_08h40.17.408,HF_wild_card,2022.2.4,Win32,59.08070424,610ba21888a1a943ce9c7a0d,64d2fd46c836a06233681665,64dc7d508fa1dd5cafe6c0f5,,,,,,,decisionTrl,resources/DY.BMP,resources/DBN.BMP,Door1,0.28148151,0.048148134,1,0,0,2.316,optionRight,30,14470,7,5,0,5,0,1,,,,,,,,,,,,,,,,,,,,,,,,,,,,,,,,,,,,,,,
,,,,,,,,2023-08-16_08h40.17.408,HF_wild_card,2022.2.4,Win32,59.08070424,610ba21888a1a943ce9c7a0d,64d2fd46c836a06233681665,64dc7d508fa1dd5cafe6c0f5,,,,,,,ctch,resources/DR.BMP,resources/DBN.BMP,Door4,-0.35370369,-0.043518533,1,0,0,1.1649,optionLeft,60,14530,7,6,0,6,0,1,,,,,,,,,,,,,,,,,,,,,,,,,,,,,,,,,,,,,,,
,,,,,,,,2023-08-16_08h40.17.408,HF_wild_card,2022.2.4,Win32,59.08070424,610ba21888a1a943ce9c7a0d,64d2fd46c836a06233681665,64dc7d508fa1dd5cafe6c0f5,,,,,,,decisionTrl,resources/DP.BMP,resources/DR.BMP,Door3,-0.316666667,-0.058333333,1,0,0,1.0626,optionLeft,70,14600,7,7,0,7,0,1,,,,,,,,,,,,,,,,,,,,,,,,,,,,,,,,,,,,,,,
,,,,,,,,2023-08-16_08h40.17.408,HF_wild_card,2022.2.4,Win32,59.08070424,610ba21888a1a943ce9c7a0d,64d2fd46c836a06233681665,64dc7d508fa1dd5cafe6c0f5,,,,,,,ctch,resources/DY.BMP,resources/DP.BMP,Door3,0.375,0.026851824,1,0,0,0.8158,optionRight,70,14670,7,8,0,8,0,1,,,,,,,,,,,,,,,,,,,,,,,,,,,,,,,,,,,,,,,
,,,,,,,,2023-08-16_08h40.17.408,HF_wild_card,2022.2.4,Win32,59.08070424,610ba21888a1a943ce9c7a0d,64d2fd46c836a06233681665,64dc7d508fa1dd5cafe6c0f5,,,,,,,decisionTrl,resources/DR.BMP,resources/DP.BMP,Door3,0.318518575,-0.012037065,1,0,0,0.8151,optionRight,70,14740,7,9,0,9,0,1,,,,,,,,,,,,,,,,,,,,,,,,,,,,,,,,,,,,,,,
,,,,,,,,2023-08-16_08h40.17.408,HF_wild_card,2022.2.4,Win32,59.08070424,610ba21888a1a943ce9c7a0d,64d2fd46c836a06233681665,64dc7d508fa1dd5cafe6c0f5,,,,,,,decisionTrl,resources/DR.BMP,resources/DP.BMP,Door3,0.296296353,-0.042592621,1,0,0,0.946,optionRight,70,14810,7,10,0,10,0,1,,,,,,,,,,,,,,,,,,,,,,,,,,,,,,,,,,,,,,,
,,,,,,,,2023-08-16_08h40.17.408,HF_wild_card,2022.2.4,Win32,59.08070424,610ba21888a1a943ce9c7a0d,64d2fd46c836a06233681665,64dc7d508fa1dd5cafe6c0f5,,,,,,,decisionTrl,resources/DBN.BMP,resources/DY.BMP,Door1,-0.258333333,0.000925912,1,0,0,1.9489,optionLeft,30,14840,7,11,0,11,0,1,,,,,,,,,,,,,,,,,,,,,,,,,,,,,,,,,,,,,,,
,,,,,,,,2023-08-16_08h40.17.408,HF_wild_card,2022.2.4,Win32,59.08070424,610ba21888a1a943ce9c7a0d,64d2fd46c836a06233681665,64dc7d508fa1dd5cafe6c0f5,,,,,,,decisionTrl,resources/DBN.BMP,resources/DY.BMP,Door1,-0.249074046,0.032407379,1,0,0,1.0144,optionLeft,30,14870,7,12,0,12,0,1,,,,,,,,,,,,,,,,,,,,,,,,,,,,,,,,,,,,,,,
,,,,,,,,2023-08-16_08h40.17.408,HF_wild_card,2022.2.4,Win32,59.08070424,610ba21888a1a943ce9c7a0d,64d2fd46c836a06233681665,64dc7d508fa1dd5cafe6c0f5,,,,,,,ctch,resources/DR.BMP,resources/DBN.BMP,Door4,-0.256481467,-0.010185199,1,0,0,1.0777,optionLeft,60,14930,7,13,0,13,0,1,,,,,,,,,,,,,,,,,,,,,,,,,,,,,,,,,,,,,,,
,,,,,,,,2023-08-16_08h40.17.408,HF_wild_card,2022.2.4,Win32,59.08070424,610ba21888a1a943ce9c7a0d,64d2fd46c836a06233681665,64dc7d508fa1dd5cafe6c0f5,,,,,,,decisionTrl,resources/DR.BMP,resources/DP.BMP,Door3,0.278703732,-0.012037065,1,0,0,0.9786,optionRight,70,15000,7,14,0,14,0,1,,,,,,,,,,,,,,,,,,,,,,,,,,,,,,,,,,,,,,,
,,,,,,,,2023-08-16_08h40.17.408,HF_wild_card,2022.2.4,Win32,59.08070424,610ba21888a1a943ce9c7a0d,64d2fd46c836a06233681665,64dc7d508fa1dd5cafe6c0f5,,,,,,,ctch,resources/DY.BMP,resources/DP.BMP,Door3,0.361111111,0.014814801,1,0,0,1.6126,optionRight,70,15070,7,15,0,15,0,1,,,,,,,,,,,,,,,,,,,,,,,,,,,,,,,,,,,,,,,
,,,,,,,,2023-08-16_08h40.17.408,HF_wild_card,2022.2.4,Win32,59.08070424,610ba21888a1a943ce9c7a0d,64d2fd46c836a06233681665,64dc7d508fa1dd5cafe6c0f5,,,,,,,decisionTrl,resources/DR.BMP,resources/DP.BMP,Door3,0.236111111,-0.050925954,1,0,0,0.9323,optionRight,70,15140,7,16,0,16,0,1,,,,,,,,,,,,,,,,,,,,,,,,,,,,,,,,,,,,,,,
,,,,,,,,2023-08-16_08h40.17.408,HF_wild_card,2022.2.4,Win32,59.08070424,610ba21888a1a943ce9c7a0d,64d2fd46c836a06233681665,64dc7d508fa1dd5cafe6c0f5,,,,,,,decisionTrl,resources/DY.BMP,resources/DBN.BMP,Door1,0.249074131,0.087962935,1,0,0,1.7297,optionRight,30,15170,7,17,0,17,0,1,,,,,,,,,,,,,,,,,,,,,,,,,,,,,,,,,,,,,,,
,,,,,,,,2023-08-16_08h40.17.408,HF_wild_card,2022.2.4,Win32,59.08070424,610ba21888a1a943ce9c7a0d,64d2fd46c836a06233681665,64dc7d508fa1dd5cafe6c0f5,,,,,,,ctch,resources/DP.BMP,resources/DY.BMP,Door3,-0.244444444,-0.004629644,1,0,0,1.0151,optionLeft,70,15240,7,18,0,18,0,1,,,,,,,,,,,,,,,,,,,,,,,,,,,,,,,,,,,,,,,
,,,,,,,,2023-08-16_08h40.17.408,HF_wild_card,2022.2.4,Win32,59.08070424,610ba21888a1a943ce9c7a0d,64d2fd46c836a06233681665,64dc7d508fa1dd5cafe6c0f5,,,,,,,decisionTrl,resources/DP.BMP,resources/DR.BMP,Door3,-0.275925912,-0.019444444,1,0,0,0.8163,optionLeft,70,15310,7,19,0,19,0,1,,,,,,,,,,,,,,,,,,,,,,,,,,,,,,,,,,,,,,,
,,,,,,,,2023-08-16_08h40.17.408,HF_wild_card,2022.2.4,Win32,59.08070424,610ba21888a1a943ce9c7a0d,64d2fd46c836a06233681665,64dc7d508fa1dd5cafe6c0f5,,,,,,,ctch,resources/DP.BMP,resources/DY.BMP,Door3,-0.246296268,-0.005555556,1,0,0,0.7463,optionLeft,70,15380,7,20,0,20,0,1,,,,,,,,,,,,,,,,,,,,,,,,,,,,,,,,,,,,,,,
,,,,,,,,2023-08-16_08h40.17.408,HF_wild_card,2022.2.4,Win32,59.08070424,610ba21888a1a943ce9c7a0d,64d2fd46c836a06233681665,64dc7d508fa1dd5cafe6c0f5,,,,,,,decisionTrl,resources/DBN.BMP,resources/DY.BMP,Door1,-0.279629601,0.01851849,1,0,0,1.6654,optionLeft,30,15410,7,21,0,21,0,1,,,,,,,,,,,,,,,,,,,,,,,,,,,,,,,,,,,,,,,
,,,,,,,,2023-08-16_08h40.17.408,HF_wild_card,2022.2.4,Win32,59.08070424,610ba21888a1a943ce9c7a0d,64d2fd46c836a06233681665,64dc7d508fa1dd5cafe6c0f5,,,,,,,decisionTrl,resources/DP.BMP,resources/DR.BMP,Door3,-0.313888889,-0.02129631,1,0,0,0.9991,optionLeft,70,15480,7,22,0,22,0,1,,,,,,,,,,,,,,,,,,,,,,,,,,,,,,,,,,,,,,,
,,,,,,,,2023-08-16_08h40.17.408,HF_wild_card,2022.2.4,Win32,59.08070424,610ba21888a1a943ce9c7a0d,64d2fd46c836a06233681665,64dc7d508fa1dd5cafe6c0f5,,,,,,,decisionTrl,resources/DY.BMP,resources/DBN.BMP,Door1,0.200925954,0.025925912,1,0,0,1.9119,optionRight,30,15510,7,23,0,23,0,1,,,,,,,,,,,,,,,,,,,,,,,,,,,,,,,,,,,,,,,
,,,,,,,,2023-08-16_08h40.17.408,HF_wild_card,2022.2.4,Win32,59.08070424,610ba21888a1a943ce9c7a0d,64d2fd46c836a06233681665,64dc7d508fa1dd5cafe6c0f5,,,,,,,decisionTrl,resources/DP.BMP,resources/DR.BMP,Door3,-0.320370356,0.008333333,1,0,0,0.9443,optionLeft,70,15580,7,24,0,24,0,1,,,,,,,,,,,,,,,,,,,,,,,,,,,,,,,,,,,,,,,
,,,,,,,,2023-08-16_08h40.17.408,HF_wild_card,2022.2.4,Win32,59.08070424,610ba21888a1a943ce9c7a0d,64d2fd46c836a06233681665,64dc7d508fa1dd5cafe6c0f5,,,,,,,ctch,resources/DBN.BMP,resources/DR.BMP,Door4,0.375925954,0.020370356,1,0,0,0.8152,optionRight,60,15640,7,25,0,25,0,1,,,,,,,,,,,,,,,,,,,,,,,,,,,,,,,,,,,,,,,
,,,,,,,,2023-08-16_08h40.17.408,HF_wild_card,2022.2.4,Win32,59.08070424,610ba21888a1a943ce9c7a0d,64d2fd46c836a06233681665,64dc7d508fa1dd5cafe6c0f5,,,,,,,decisionTrl,resources/DR.BMP,resources/DP.BMP,Door3,0.353703732,-0.064814843,1,0,0,1.0156,optionRight,70,15710,7,26,0,26,0,1,,,,,,,,,,,,,,,,,,,,,,,,,,,,,,,,,,,,,,,
,,,,,,,,2023-08-16_08h40.17.408,HF_wild_card,2022.2.4,Win32,59.08070424,610ba21888a1a943ce9c7a0d,64d2fd46c836a06233681665,64dc7d508fa1dd5cafe6c0f5,,,,,,,decisionTrl,resources/DY.BMP,resources/DBN.BMP,Door1,0.294444444,0.009259245,1,0,0,1.633,optionRight,30,15740,7,27,0,27,0,1,,,,,,,,,,,,,,,,,,,,,,,,,,,,,,,,,,,,,,,
,,,,,,,,2023-08-16_08h40.17.408,HF_wild_card,2022.2.4,Win32,59.08070424,610ba21888a1a943ce9c7a0d,64d2fd46c836a06233681665,64dc7d508fa1dd5cafe6c0f5,,,,,,,decisionTrl,resources/DP.BMP,resources/DR.BMP,Door3,-0.19351849,0.00370369,1,0,0,0.9982,optionLeft,70,15810,7,28,0,28,0,1,,,,,,,,,,,,,,,,,,,,,,,,,,,,,,,,,,,,,,,
,,,,,,,,2023-08-16_08h40.17.408,HF_wild_card,2022.2.4,Win32,59.08070424,610ba21888a1a943ce9c7a0d,64d2fd46c836a06233681665,64dc7d508fa1dd5cafe6c0f5,,,,,,,decisionTrl,resources/DBN.BMP,resources/DY.BMP,Door1,-0.174074046,0.026851824,1,0,0,1.9773,optionLeft,30,15840,7,29,0,29,0,1,,,,,,,,,,,,,,,,,,,,,,,,,,,,,,,,,,,,,,,
,,,,,,,,2023-08-16_08h40.17.408,HF_wild_card,2022.2.4,Win32,59.08070424,610ba21888a1a943ce9c7a0d,64d2fd46c836a06233681665,64dc7d508fa1dd5cafe6c0f5,,,,,,,ctch,resources/DY.BMP,resources/DP.BMP,Door3,0.255555556,-0.02129631,1,0,0,0.882,optionRight,70,15910,7,30,0,30,0,1,,,,,,,,,,,,,,,,,,,,,,,,,,,,,,,,,,,,,,,
,,,,,,,,2023-08-16_08h40.17.408,HF_wild_card,2022.2.4,Win32,59.08070424,610ba21888a1a943ce9c7a0d,64d2fd46c836a06233681665,64dc7d508fa1dd5cafe6c0f5,,,,,,,decisionTrl,resources/DY.BMP,resources/DBN.BMP,Door1,0.293518575,-0.03148151,1,0,0,1.5483,optionRight,30,15940,7,31,0,31,0,1,,,,,,,,,,,,,,,,,,,,,,,,,,,,,,,,,,,,,,,
,,,,,,,,2023-08-16_08h40.17.408,HF_wild_card,2022.2.4,Win32,59.08070424,610ba21888a1a943ce9c7a0d,64d2fd46c836a06233681665,64dc7d508fa1dd5cafe6c0f5,,,,,,,ctch,resources/DBN.BMP,resources/DR.BMP,Door4,0.283333333,-0.036111111,1,0,0,1.0355,optionRight,60,16000,7,32,0,32,0,1,,,,,,,,,,,,,,,,,,,,,,,,,,,,,,,,,,,,,,,
,,,,,,,,2023-08-16_08h40.17.408,HF_wild_card,2022.2.4,Win32,59.08070424,610ba21888a1a943ce9c7a0d,64d2fd46c836a06233681665,64dc7d508fa1dd5cafe6c0f5,,,,,,,decisionTrl,resources/DBN.BMP,resources/DY.BMP,Door1,-0.275,-0.060185199,1,0,0,1.68,optionLeft,30,16030,7,33,0,33,0,1,,,,,,,,,,,,,,,,,,,,,,,,,,,,,,,,,,,,,,,
,,,,,,,,2023-08-16_08h40.17.408,HF_wild_card,2022.2.4,Win32,59.08070424,610ba21888a1a943ce9c7a0d,64d2fd46c836a06233681665,64dc7d508fa1dd5cafe6c0f5,,,,,,,decisionTrl,resources/DR.BMP,resources/DP.BMP,Door3,0.285185242,-0.027777778,1,0,0,0.9485,optionRight,70,16100,7,34,0,34,0,1,,,,,,,,,,,,,,,,,,,,,,,,,,,,,,,,,,,,,,,
,,,,,,,,2023-08-16_08h40.17.408,HF_wild_card,2022.2.4,Win32,59.08070424,610ba21888a1a943ce9c7a0d,64d2fd46c836a06233681665,64dc7d508fa1dd5cafe6c0f5,,,,,,,ctch,resources/DBN.BMP,resources/DR.BMP,Door4,0.250925954,-0.016666667,1,0,0,1.4533,optionRight,80,16180,7,35,0,35,0,1,,,,,,,,,,,,,,,,,,,,,,,,,,,,,,,,,,,,,,,
,,,,,,,,2023-08-16_08h40.17.408,HF_wild_card,2022.2.4,Win32,59.08070424,610ba21888a1a943ce9c7a0d,64d2fd46c836a06233681665,64dc7d508fa1dd5cafe6c0f5,,,,,,,,,,,,,,,,,,,,,,,,,,6,0,6,0,1,,,,,,,,,,,,,,,,,,,,,,,,,,,,,,,,,,
,,,,,,,,2023-08-16_08h40.17.408,HF_wild_card,2022.2.4,Win32,59.08070424,610ba21888a1a943ce9c7a0d,64d2fd46c836a06233681665,64dc7d508fa1dd5cafe6c0f5,,,,,,,,,,,,,,,,,,,,,,,,,,,,,,,4,,,,,,,,,,,,,,,,,,,,,,,,,,,,,,,,,
,,,,,,,,2023-08-16_08h40.17.408,HF_wild_card,2022.2.4,Win32,59.08070424,610ba21888a1a943ce9c7a0d,64d2fd46c836a06233681665,64dc7d508fa1dd5cafe6c0f5,,,,,,,,,,,,,,,,,,,,,,,,,,,,,,,,,,,,,,,,,,,,,,,,,,,,,,,,,,,,,,,,
,,,,,,,,2023-08-16_08h40.17.408,HF_wild_card,2022.2.4,Win32,59.08070424,610ba21888a1a943ce9c7a0d,64d2fd46c836a06233681665,64dc7d508fa1dd5cafe6c0f5,,,,,,,,,,,,,,,,,,,,,,,,,,,,,,,,30,Door1,resources/DBN.BMP,0,0,0,0,1,,,,,,,,,,,,,,,,,,,,,,,,,
,,,,,,,,2023-08-16_08h40.17.408,HF_wild_card,2022.2.4,Win32,59.08070424,610ba21888a1a943ce9c7a0d,64d2fd46c836a06233681665,64dc7d508fa1dd5cafe6c0f5,,,,,,,,,,,,,,,,,,,,,,,,,,,,,,,,55,WC_nonExtreme,resources/DB.BMP,1,0,1,0,1,,,,,,,,,,,,,,,,,,,,,,,,,
,,,,,,,,2023-08-16_08h40.17.408,HF_wild_card,2022.2.4,Win32,59.08070424,610ba21888a1a943ce9c7a0d,64d2fd46c836a06233681665,64dc7d508fa1dd5cafe6c0f5,,,,,,,,,,,,,,,,,,,,,,,,,,,,,,,,95,WC_extreme,resources/DG.BMP,2,0,2,0,1,,,,,,,,,,,,,,,,,,,,,,,,,
,,,,,,,,2023-08-16_08h40.17.408,HF_wild_card,2022.2.4,Win32,59.08070424,610ba21888a1a943ce9c7a0d,64d2fd46c836a06233681665,64dc7d508fa1dd5cafe6c0f5,,,,,,,,,,,,,,,,,,,,,,,,,,,,,,,,60,Door4,resources/DR.BMP,3,0,3,0,1,,,,,,,,,,,,,,,,,,,,,,,,,
,,,,,,,,2023-08-16_08h40.17.408,HF_wild_card,2022.2.4,Win32,59.08070424,610ba21888a1a943ce9c7a0d,64d2fd46c836a06233681665,64dc7d508fa1dd5cafe6c0f5,,,,,,,,,,,,,,,,,,,,,,,,,,,,,,,,70,Door3,resources/DP.BMP,4,0,4,0,1,,,,,,,,,,,,,,,,,,,,,,,,,
,,,,,,,,2023-08-16_08h40.17.408,HF_wild_card,2022.2.4,Win32,59.08070424,610ba21888a1a943ce9c7a0d,64d2fd46c836a06233681665,64dc7d508fa1dd5cafe6c0f5,,,,,,,,,,,,,,,,,,,,,,,,,,,,,,,,20,Door2,resources/DY.BMP,5,0,5,0,1,,,,,,,,,,,,,,,,,,,,,,,,,
,,,,,,,,2023-08-16_08h40.17.408,HF_wild_card,2022.2.4,Win32,59.08070424,610ba21888a1a943ce9c7a0d,64d2fd46c836a06233681665,64dc7d508fa1dd5cafe6c0f5,,,,,,,,,,,,,,,,,,,,,,,,,,,,,,,,,,,,,,,,,,,,,,,,,,,,,,,,,,,,,,,,
,,,,,,,,2023-08-16_08h40.17.408,HF_wild_card,2022.2.4,Win32,59.08070424,610ba21888a1a943ce9c7a0d,64d2fd46c836a06233681665,64dc7d508fa1dd5cafe6c0f5,,,,,,,,,,,,,,,,,,,,,,,,,,,,,,,,,,,,,,,,0,0,0,0,1,,,,,,,,,,,,,,,,,,,,
