Condition,Low fixed image (Door1),Low risky image (Door2),High fixed image (Door3),High risky image (Door4),Extreme Wild Card,NonExtreme Wild Card,,date,expName,psychopyVersion,OS,frameRate,PROLIFIC_PID,STUDY_ID,SESSION_ID,mouse_2.x,mouse_2.y,mouse_2.leftButton,mouse_2.midButton,mouse_2.rightButton,mouse_2.clicked_name,Trial Type,Left Option Image,Right Option Image,Chosen Door,mouse.x,mouse.y,mouse.leftButton,mouse.midButton,mouse.rightButton,mouse.time,mouse.clicked_name,Feedback,Cumulative Reward,Block,trial.thisRepN,trial.thisTrialN,trial.thisN,trial.thisIndex,trial.ran,blocks.thisRepN,blocks.thisTrialN,blocks.thisN,blocks.thisIndex,blocks.ran,Money conversion,First Outcome Reported,Shown Door (First Outcome),Displayed Image (First Outcome),outcomes.thisRepN,outcomes.thisTrialN,outcomes.thisN,outcomes.thisIndex,outcomes.ran,judgments.thisRepN,judgments.thisTrialN,judgments.thisN,judgments.thisIndex,judgments.ran,freqMouse.x,freqMouse.y,freqMouse.leftButton,freqMouse.midButton,freqMouse.rightButton,freqMouse.clicked_name,FQJ for first outcome,FQJ for second outcome,Shown Door,Displayed Image,trials.thisRepN,trials.thisTrialN,trials.thisN,trials.thisIndex,trials.ran,judgBlock.thisRepN,judgBlock.thisTrialN,judgBlock.thisN,judgBlock.thisIndex,judgBlock.ran
1,resources/DB.BMP,resources/DY.BMP,resources/DP.BMP,resources/DR.BMP,resources/DG.BMP,resources/DBN.BMP,,2023-08-16_08h48.26.326,HF_wild_card,2022.2.4,Win32,60.62443165,579e431a81f331000139d5d0,64d2fd46c836a06233681665,64dc7f44e8f6a3b22cc4938a,,,,,,,,,,,,,,,,,,,,,,,,,,,,,,,,,,,,,,,,,,,,,,,,,,,,,,,,,,,,,,,,
,,,,,,,,2023-08-16_08h48.26.326,HF_wild_card,2022.2.4,Win32,60.62443165,579e431a81f331000139d5d0,64d2fd46c836a06233681665,64dc7f44e8f6a3b22cc4938a,0.008888889,-0.422222222,1,0,0,agree,,,,,,,,,,,,,,,,,,,,,,,,,,,,,,,,,,,,,,,,,,,,,,,,,,,,,,,,,,
,,,,,,,,2023-08-16_08h48.26.326,HF_wild_card,2022.2.4,Win32,60.62443165,579e431a81f331000139d5d0,64d2fd46c836a06233681665,64dc7f44e8f6a3b22cc4938a,,,,,,,,,,,,,,,,,,,,,,,,,,,,,,,,,,,,,,,,,,,,,,,,,,,,,,,,,,,,,,,,
,,,,,,,,2023-08-16_08h48.26.326,HF_wild_card,2022.2.4,Win32,60.62443165,579e431a81f331000139d5d0,64d2fd46c836a06233681665,64dc7f44e8f6a3b22cc4938a,,,,,,,decisionTrl,resources/DBN.BMP,resources/DB.BMP,Door1,0.458888889,0.027777778,1,0,0,2.0242,optionRight,30,30,1,0,0,0,0,1,,,,,,,,,,,,,,,,,,,,,,,,,,,,,,,,,,,,,,,
,,,,,,,,2023-08-16_08h48.26.326,HF_wild_card,2022.2.4,Win32,60.62443165,579e431a81f331000139d5d0,64d2fd46c836a06233681665,64dc7f44e8f6a3b22cc4938a,,,,,,,ctch,resources/DB.BMP,resources/DR.BMP,Door4,0.332222222,-0.033333333,1,0,0,0.7738,optionRight,80,110,1,1,0,1,0,1,,,,,,,,,,,,,,,,,,,,,,,,,,,,,,,,,,,,,,,
,,,,,,,,2023-08-16_08h48.26.326,HF_wild_card,2022.2.4,Win32,60.62443165,579e431a81f331000139d5d0,64d2fd46c836a06233681665,64dc7f44e8f6a3b22cc4938a,,,,,,,sngl,resources/Empty.png,resources/DBN.BMP,WildCard_NonEx,0.247777778,-0.015555556,1,0,0,0.8627,optionRight,45,155,1,2,0,2,0,1,,,,,,,,,,,,,,,,,,,,,,,,,,,,,,,,,,,,,,,
,,,,,,,,2023-08-16_08h48.26.326,HF_wild_card,2022.2.4,Win32,60.62443165,579e431a81f331000139d5d0,64d2fd46c836a06233681665,64dc7f44e8f6a3b22cc4938a,,,,,,,ctch,resources/DR.BMP,resources/DB.BMP,Door4,-0.295555556,0.035555556,1,0,0,0.7297,optionLeft,60,215,1,3,0,3,0,1,,,,,,,,,,,,,,,,,,,,,,,,,,,,,,,,,,,,,,,
,,,,,,,,2023-08-16_08h48.26.326,HF_wild_card,2022.2.4,Win32,60.62443165,579e431a81f331000139d5d0,64d2fd46c836a06233681665,64dc7f44e8f6a3b22cc4938a,,,,,,,sngl,resources/DY.BMP,resources/Empty.png,Door2,-0.354444444,0.053333333,1,0,0,0.6627,optionLeft,40,255,1,4,0,4,0,1,,,,,,,,,,,,,,,,,,,,,,,,,,,,,,,,,,,,,,,
,,,,,,,,2023-08-16_08h48.26.326,HF_wild_card,2022.2.4,Win32,60.62443165,579e431a81f331000139d5d0,64d2fd46c836a06233681665,64dc7f44e8f6a3b22cc4938a,,,,,,,sngl,resources/DR.BMP,resources/Empty.png,Door4,-0.35,0.046666667,1,0,0,0.6118,optionLeft,80,335,1,5,0,5,0,1,,,,,,,,,,,,,,,,,,,,,,,,,,,,,,,,,,,,,,,
,,,,,,,,2023-08-16_08h48.26.326,HF_wild_card,2022.2.4,Win32,60.62443165,579e431a81f331000139d5d0,64d2fd46c836a06233681665,64dc7f44e8f6a3b22cc4938a,,,,,,,decisionTrl,resources/DR.BMP,resources/DBN.BMP,Door4,-0.386666667,0.047777778,1,0,0,0.6962,optionLeft,80,415,1,6,0,6,0,1,,,,,,,,,,,,,,,,,,,,,,,,,,,,,,,,,,,,,,,
,,,,,,,,2023-08-16_08h48.26.326,HF_wild_card,2022.2.4,Win32,60.62443165,579e431a81f331000139d5d0,64d2fd46c836a06233681665,64dc7f44e8f6a3b22cc4938a,,,,,,,decisionTrl,resources/DR.BMP,resources/DP.BMP,Door3,0.474444444,-0.027777778,1,0,0,0.6464,optionRight,70,485,1,7,0,7,0,1,,,,,,,,,,,,,,,,,,,,,,,,,,,,,,,,,,,,,,,
,,,,,,,,2023-08-16_08h48.26.326,HF_wild_card,2022.2.4,Win32,60.62443165,579e431a81f331000139d5d0,64d2fd46c836a06233681665,64dc7f44e8f6a3b22cc4938a,,,,,,,decisionTrl,resources/DY.BMP,resources/DB.BMP,Door1,0.288888889,0.008888889,1,0,0,0.5943,optionRight,30,515,1,8,0,8,0,1,,,,,,,,,,,,,,,,,,,,,,,,,,,,,,,,,,,,,,,
,,,,,,,,2023-08-16_08h48.26.326,HF_wild_card,2022.2.4,Win32,60.62443165,579e431a81f331000139d5d0,64d2fd46c836a06233681665,64dc7f44e8f6a3b22cc4938a,,,,,,,ctch,resources/DP.BMP,resources/DY.BMP,Door2,0.326666667,0.031111111,1,0,0,0.6028,optionRight,20,535,1,9,0,9,0,1,,,,,,,,,,,,,,,,,,,,,,,,,,,,,,,,,,,,,,,
,,,,,,,,2023-08-16_08h48.26.326,HF_wild_card,2022.2.4,Win32,60.62443165,579e431a81f331000139d5d0,64d2fd46c836a06233681665,64dc7f44e8f6a3b22cc4938a,,,,,,,sngl,resources/Empty.png,resources/DB.BMP,Door1,0.42,-0.005555556,1,0,0,0.7141,optionRight,30,565,1,10,0,10,0,1,,,,,,,,,,,,,,,,,,,,,,,,,,,,,,,,,,,,,,,
,,,,,,,,2023-08-16_08h48.26.326,HF_wild_card,2022.2.4,Win32,60.62443165,579e431a81f331000139d5d0,64d2fd46c836a06233681665,64dc7f44e8f6a3b22cc4938a,,,,,,,sngl,resources/DP.BMP,resources/Empty.png,Door3,-0.32,0.014444444,1,0,0,0.5631,optionLeft,70,635,1,11,0,11,0,1,,,,,,,,,,,,,,,,,,,,,,,,,,,,,,,,,,,,,,,
,,,,,,,,2023-08-16_08h48.26.326,HF_wild_card,2022.2.4,Win32,60.62443165,579e431a81f331000139d5d0,64d2fd46c836a06233681665,64dc7f44e8f6a3b22cc4938a,,,,,,,decisionTrl,resources/DBN.BMP,resources/DP.BMP,Door3,0.305555556,0.033333333,1,0,0,0.5138,optionRight,70,705,1,12,0,12,0,1,,,,,,,,,,,,,,,,,,,,,,,,,,,,,,,,,,,,,,,
,,,,,,,,2023-08-16_08h48.26.326,HF_wild_card,2022.2.4,Win32,60.62443165,579e431a81f331000139d5d0,64d2fd46c836a06233681665,64dc7f44e8f6a3b22cc4938a,,,,,,,decisionTrl,resources/DBN.BMP,resources/DY.BMP,Door2,0.327777778,0.026666667,1,0,0,0.6991,optionRight,20,725,1,13,0,13,0,1,,,,,,,,,,,,,,,,,,,,,,,,,,,,,,,,,,,,,,,
,,,,,,,,2023-08-16_08h48.26.326,HF_wild_card,2022.2.4,Win32,60.62443165,579e431a81f331000139d5d0,64d2fd46c836a06233681665,64dc7f44e8f6a3b22cc4938a,,,,,,,decisionTrl,resources/DB.BMP,resources/DY.BMP,Door1,-0.32,0.026666667,1,0,0,0.6619,optionLeft,30,755,1,14,0,14,0,1,,,,,,,,,,,,,,,,,,,,,,,,,,,,,,,,,,,,,,,
,,,,,,,,2023-08-16_08h48.26.326,HF_wild_card,2022.2.4,Win32,60.62443165,579e431a81f331000139d5d0,64d2fd46c836a06233681665,64dc7f44e8f6a3b22cc4938a,,,,,,,decisionTrl,resources/DP.BMP,resources/DR.BMP,Door3,-0.343333333,0.038888889,1,0,0,1.2963,optionLeft,70,825,1,15,0,15,0,1,,,,,,,,,,,,,,,,,,,,,,,,,,,,,,,,,,,,,,,
,,,,,,,,2023-08-16_08h48.26.326,HF_wild_card,2022.2.4,Win32,60.62443165,579e431a81f331000139d5d0,64d2fd46c836a06233681665,64dc7f44e8f6a3b22cc4938a,,,,,,,decisionTrl,resources/DB.BMP,resources/DY.BMP,Door1,-0.41,0.033333333,1,0,0,1.3807,optionLeft,30,855,1,16,0,16,0,1,,,,,,,,,,,,,,,,,,,,,,,,,,,,,,,,,,,,,,,
,,,,,,,,2023-08-16_08h48.26.326,HF_wild_card,2022.2.4,Win32,60.62443165,579e431a81f331000139d5d0,64d2fd46c836a06233681665,64dc7f44e8f6a3b22cc4938a,,,,,,,sngl,resources/Empty.png,resources/DP.BMP,Door3,0.358888889,0.025555556,1,0,0,0.6796,optionRight,70,925,1,17,0,17,0,1,,,,,,,,,,,,,,,,,,,,,,,,,,,,,,,,,,,,,,,
,,,,,,,,2023-08-16_08h48.26.326,HF_wild_card,2022.2.4,Win32,60.62443165,579e431a81f331000139d5d0,64d2fd46c836a06233681665,64dc7f44e8f6a3b22cc4938a,,,,,,,sngl,resources/Empty.png,resources/DR.BMP,Door4,0.313333333,0.025555556,1,0,0,0.5965,optionRight,60,985,1,18,0,18,0,1,,,,,,,,,,,,,,,,,,,,,,,,,,,,,,,,,,,,,,,
,,,,,,,,2023-08-16_08h48.26.326,HF_wild_card,2022.2.4,Win32,60.62443165,579e431a81f331000139d5d0,64d2fd46c836a06233681665,64dc7f44e8f6a3b22cc4938a,,,,,,,decisionTrl,resources/DP.BMP,resources/DR.BMP,Door3,-0.351111111,0.025555556,1,0,0,0.6967,optionLeft,70,1055,1,19,0,19,0,1,,,,,,,,,,,,,,,,,,,,,,,,,,,,,,,,,,,,,,,
,,,,,,,,2023-08-16_08h48.26.326,HF_wild_card,2022.2.4,Win32,60.62443165,579e431a81f331000139d5d0,64d2fd46c836a06233681665,64dc7f44e8f6a3b22cc4938a,,,,,,,decisionTrl,resources/DR.BMP,resources/DP.BMP,Door3,0.288888889,0.023333333,1,0,0,0.6802,optionRight,70,1125,1,20,0,20,0,1,,,,,,,,,,,,,,,,,,,,,,,,,,,,,,,,,,,,,,,
,,,,,,,,2023-08-16_08h48.26.326,HF_wild_card,2022.2.4,Win32,60.62443165,579e431a81f331000139d5d0,64d2fd46c836a06233681665,64dc7f44e8f6a3b22cc4938a,,,,,,,decisionTrl,resources/DP.BMP,resources/DBN.BMP,Door3,-0.388888889,0.037777778,1,0,0,0.6489,optionLeft,70,1195,1,21,0,21,0,1,,,,,,,,,,,,,,,,,,,,,,,,,,,,,,,,,,,,,,,
,,,,,,,,2023-08-16_08h48.26.326,HF_wild_card,2022.2.4,Win32,60.62443165,579e431a81f331000139d5d0,64d2fd46c836a06233681665,64dc7f44e8f6a3b22cc4938a,,,,,,,ctch,resources/DY.BMP,resources/DP.BMP,Door3,0.37,0,1,0,0,0.6135,optionRight,70,1265,1,22,0,22,0,1,,,,,,,,,,,,,,,,,,,,,,,,,,,,,,,,,,,,,,,
,,,,,,,,2023-08-16_08h48.26.326,HF_wild_card,2022.2.4,Win32,60.62443165,579e431a81f331000139d5d0,64d2fd46c836a06233681665,64dc7f44e8f6a3b22cc4938a,,,,,,,sngl,resources/Empty.png,resources/DY.BMP,Door2,0.347777778,0.014444444,1,0,0,0.8462,optionRight,20,1285,1,23,0,23,0,1,,,,,,,,,,,,,,,,,,,,,,,,,,,,,,,,,,,,,,,
,,,,,,,,2023-08-16_08h48.26.326,HF_wild_card,2022.2.4,Win32,60.62443165,579e431a81f331000139d5d0,64d2fd46c836a06233681665,64dc7f44e8f6a3b22cc4938a,,,,,,,decisionTrl,resources/DP.BMP,resources/DR.BMP,Door3,-0.43,0.05,1,0,0,0.5634,optionLeft,70,1355,1,24,0,24,0,1,,,,,,,,,,,,,,,,,,,,,,,,,,,,,,,,,,,,,,,
,,,,,,,,2023-08-16_08h48.26.326,HF_wild_card,2022.2.4,Win32,60.62443165,579e431a81f331000139d5d0,64d2fd46c836a06233681665,64dc7f44e8f6a3b22cc4938a,,,,,,,decisionTrl,resources/DY.BMP,resources/DB.BMP,Door1,0.42,0.016666667,1,0,0,1.0312,optionRight,30,1385,1,25,0,25,0,1,,,,,,,,,,,,,,,,,,,,,,,,,,,,,,,,,,,,,,,
,,,,,,,,2023-08-16_08h48.26.326,HF_wild_card,2022.2.4,Win32,60.62443165,579e431a81f331000139d5d0,64d2fd46c836a06233681665,64dc7f44e8f6a3b22cc4938a,,,,,,,ctch,resources/DP.BMP,resources/DY.BMP,Door3,-0.286666667,0.042222222,1,0,0,0.6646,optionLeft,70,1455,1,26,0,26,0,1,,,,,,,,,,,,,,,,,,,,,,,,,,,,,,,,,,,,,,,
,,,,,,,,2023-08-16_08h48.26.326,HF_wild_card,2022.2.4,Win32,60.62443165,579e431a81f331000139d5d0,64d2fd46c836a06233681665,64dc7f44e8f6a3b22cc4938a,,,,,,,decisionTrl,resources/DBN.BMP,resources/DR.BMP,Door4,0.45,0.012222222,1,0,0,0.7153,optionRight,60,1515,1,27,0,27,0,1,,,,,,,,,,,,,,,,,,,,,,,,,,,,,,,,,,,,,,,
,,,,,,,,2023-08-16_08h48.26.326,HF_wild_card,2022.2.4,Win32,60.62443165,579e431a81f331000139d5d0,64d2fd46c836a06233681665,64dc7f44e8f6a3b22cc4938a,,,,,,,decisionTrl,resources/DY.BMP,resources/DBN.BMP,WildCard_NonEx,0.277777778,0.041111111,1,0,0,0.6473,optionRight,45,1560,1,28,0,28,0,1,,,,,,,,,,,,,,,,,,,,,,,,,,,,,,,,,,,,,,,
,,,,,,,,2023-08-16_08h48.26.326,HF_wild_card,2022.2.4,Win32,60.62443165,579e431a81f331000139d5d0,64d2fd46c836a06233681665,64dc7f44e8f6a3b22cc4938a,,,,,,,decisionTrl,resources/DY.BMP,resources/DB.BMP,Door1,0.315555556,0.002222222,1,0,0,1.0963,optionRight,30,1590,1,29,0,29,0,1,,,,,,,,,,,,,,,,,,,,,,,,,,,,,,,,,,,,,,,
,,,,,,,,2023-08-16_08h48.26.326,HF_wild_card,2022.2.4,Win32,60.62443165,579e431a81f331000139d5d0,64d2fd46c836a06233681665,64dc7f44e8f6a3b22cc4938a,,,,,,,sngl,resources/DB.BMP,resources/Empty.png,Door1,-0.305555556,0.016666667,1,0,0,0.6799,optionLeft,30,1620,1,30,0,30,0,1,,,,,,,,,,,,,,,,,,,,,,,,,,,,,,,,,,,,,,,
,,,,,,,,2023-08-16_08h48.26.326,HF_wild_card,2022.2.4,Win32,60.62443165,579e431a81f331000139d5d0,64d2fd46c836a06233681665,64dc7f44e8f6a3b22cc4938a,,,,,,,decisionTrl,resources/DP.BMP,resources/DR.BMP,Door3,-0.453333333,0.02,1,0,0,1.1157,optionLeft,70,1690,1,31,0,31,0,1,,,,,,,,,,,,,,,,,,,,,,,,,,,,,,,,,,,,,,,
,,,,,,,,2023-08-16_08h48.26.326,HF_wild_card,2022.2.4,Win32,60.62443165,579e431a81f331000139d5d0,64d2fd46c836a06233681665,64dc7f44e8f6a3b22cc4938a,,,,,,,decisionTrl,resources/DR.BMP,resources/DP.BMP,Door3,0.376666667,0.013333333,1,0,0,0.7483,optionRight,70,1760,1,32,0,32,0,1,,,,,,,,,,,,,,,,,,,,,,,,,,,,,,,,,,,,,,,
,,,,,,,,2023-08-16_08h48.26.326,HF_wild_card,2022.2.4,Win32,60.62443165,579e431a81f331000139d5d0,64d2fd46c836a06233681665,64dc7f44e8f6a3b22cc4938a,,,,,,,ctch,resources/DR.BMP,resources/DB.BMP,Door4,-0.324444444,0.045555556,1,0,0,1.2481,optionLeft,80,1840,1,33,0,33,0,1,,,,,,,,,,,,,,,,,,,,,,,,,,,,,,,,,,,,,,,
,,,,,,,,2023-08-16_08h48.26.326,HF_wild_card,2022.2.4,Win32,60.62443165,579e431a81f331000139d5d0,64d2fd46c836a06233681665,64dc7f44e8f6a3b22cc4938a,,,,,,,decisionTrl,resources/DY.BMP,resources/DB.BMP,Door1,0.393333333,0.046666667,1,0,0,1.7299,optionRight,30,1870,1,34,0,34,0,1,,,,,,,,,,,,,,,,,,,,,,,,,,,,,,,,,,,,,,,
,,,,,,,,2023-08-16_08h48.26.326,HF_wild_card,2022.2.4,Win32,60.62443165,579e431a81f331000139d5d0,64d2fd46c836a06233681665,64dc7f44e8f6a3b22cc4938a,,,,,,,sngl,resources/DBN.BMP,resources/Empty.png,WildCard_NonEx,-0.343333333,0.066666667,1,0,0,0.6794,optionLeft,45,1915,1,35,0,35,0,1,,,,,,,,,,,,,,,,,,,,,,,,,,,,,,,,,,,,,,,
,,,,,,,,2023-08-16_08h48.26.326,HF_wild_card,2022.2.4,Win32,60.62443165,579e431a81f331000139d5d0,64d2fd46c836a06233681665,64dc7f44e8f6a3b22cc4938a,,,,,,,ctch,resources/DB.BMP,resources/DR.BMP,Door4,0.335555556,0.052222222,1,0,0,0.9609,optionRight,80,1995,1,36,0,36,0,1,,,,,,,,,,,,,,,,,,,,,,,,,,,,,,,,,,,,,,,
,,,,,,,,2023-08-16_08h48.26.326,HF_wild_card,2022.2.4,Win32,60.62443165,579e431a81f331000139d5d0,64d2fd46c836a06233681665,64dc7f44e8f6a3b22cc4938a,,,,,,,decisionTrl,resources/DB.BMP,resources/DY.BMP,Door1,-0.428888889,0.038888889,1,0,0,1.4297,optionLeft,30,2025,1,37,0,37,0,1,,,,,,,,,,,,,,,,,,,,,,,,,,,,,,,,,,,,,,,
,,,,,,,,2023-08-16_08h48.26.326,HF_wild_card,2022.2.4,Win32,60.62443165,579e431a81f331000139d5d0,64d2fd46c836a06233681665,64dc7f44e8f6a3b22cc4938a,,,,,,,ctch,resources/DY.BMP,resources/DP.BMP,Door3,0.437777778,0.055555556,1,0,0,0.6645,optionRight,70,2095,1,38,0,38,0,1,,,,,,,,,,,,,,,,,,,,,,,,,,,,,,,,,,,,,,,
,,,,,,,,2023-08-16_08h48.26.326,HF_wild_card,2022.2.4,Win32,60.62443165,579e431a81f331000139d5d0,64d2fd46c836a06233681665,64dc7f44e8f6a3b22cc4938a,,,,,,,decisionTrl,resources/DB.BMP,resources/DY.BMP,Door2,0.368888889,0.06,1,0,0,0.8469,optionRight,40,2135,1,39,0,39,0,1,,,,,,,,,,,,,,,,,,,,,,,,,,,,,,,,,,,,,,,
,,,,,,,,2023-08-16_08h48.26.326,HF_wild_card,2022.2.4,Win32,60.62443165,579e431a81f331000139d5d0,64d2fd46c836a06233681665,64dc7f44e8f6a3b22cc4938a,,,,,,,sngl,resources/DBN.BMP,resources/Empty.png,WildCard_NonEx,-0.297777778,0.043333333,1,0,0,0.7122,optionLeft,55,2190,1,40,0,40,0,1,,,,,,,,,,,,,,,,,,,,,,,,,,,,,,,,,,,,,,,
,,,,,,,,2023-08-16_08h48.26.326,HF_wild_card,2022.2.4,Win32,60.62443165,579e431a81f331000139d5d0,64d2fd46c836a06233681665,64dc7f44e8f6a3b22cc4938a,,,,,,,decisionTrl,resources/DB.BMP,resources/DBN.BMP,WildCard_NonEx,0.288888889,0.051111111,1,0,0,1.36,optionRight,55,2245,1,41,0,41,0,1,,,,,,,,,,,,,,,,,,,,,,,,,,,,,,,,,,,,,,,
,,,,,,,,2023-08-16_08h48.26.326,HF_wild_card,2022.2.4,Win32,60.62443165,579e431a81f331000139d5d0,64d2fd46c836a06233681665,64dc7f44e8f6a3b22cc4938a,,,,,,,decisionTrl,resources/DR.BMP,resources/DP.BMP,Door3,0.41,0.078888889,1,0,0,0.7968,optionRight,70,2315,1,42,0,42,0,1,,,,,,,,,,,,,,,,,,,,,,,,,,,,,,,,,,,,,,,
,,,,,,,,2023-08-16_08h48.26.326,HF_wild_card,2022.2.4,Win32,60.62443165,579e431a81f331000139d5d0,64d2fd46c836a06233681665,64dc7f44e8f6a3b22cc4938a,,,,,,,sngl,resources/Empty.png,resources/DBN.BMP,WildCard_NonEx,0.318888889,0.07,1,0,0,0.6965,optionRight,55,2370,1,43,0,43,0,1,,,,,,,,,,,,,,,,,,,,,,,,,,,,,,,,,,,,,,,
,,,,,,,,2023-08-16_08h48.26.326,HF_wild_card,2022.2.4,Win32,60.62443165,579e431a81f331000139d5d0,64d2fd46c836a06233681665,64dc7f44e8f6a3b22cc4938a,,,,,,,,,,,,,,,,,,,,,,,,,,0,0,0,0,1,,,,,,,,,,,,,,,,,,,,,,,,,,,,,,,,,,
,,,,,,,,2023-08-16_08h48.26.326,HF_wild_card,2022.2.4,Win32,60.62443165,579e431a81f331000139d5d0,64d2fd46c836a06233681665,64dc7f44e8f6a3b22cc4938a,,,,,,,decisionTrl,resources/DBN.BMP,resources/DP.BMP,Door3,0.282222222,-0.051111111,1,0,0,0.8661,optionRight,70,2440,2,0,0,0,0,1,,,,,,,,,,,,,,,,,,,,,,,,,,,,,,,,,,,,,,,
,,,,,,,,2023-08-16_08h48.26.326,HF_wild_card,2022.2.4,Win32,60.62443165,579e431a81f331000139d5d0,64d2fd46c836a06233681665,64dc7f44e8f6a3b22cc4938a,,,,,,,decisionTrl,resources/DB.BMP,resources/DY.BMP,Door1,-0.363333333,0.025555556,1,0,0,1.1135,optionLeft,30,2470,2,1,0,1,0,1,,,,,,,,,,,,,,,,,,,,,,,,,,,,,,,,,,,,,,,
,,,,,,,,2023-08-16_08h48.26.326,HF_wild_card,2022.2.4,Win32,60.62443165,579e431a81f331000139d5d0,64d2fd46c836a06233681665,64dc7f44e8f6a3b22cc4938a,,,,,,,decisionTrl,resources/DY.BMP,resources/DB.BMP,Door1,0.406666667,0.051111111,1,0,0,1.3314,optionRight,30,2500,2,2,0,2,0,1,,,,,,,,,,,,,,,,,,,,,,,,,,,,,,,,,,,,,,,
,,,,,,,,2023-08-16_08h48.26.326,HF_wild_card,2022.2.4,Win32,60.62443165,579e431a81f331000139d5d0,64d2fd46c836a06233681665,64dc7f44e8f6a3b22cc4938a,,,,,,,decisionTrl,resources/DP.BMP,resources/DR.BMP,Door4,0.287777778,0.044444444,1,0,0,0.8965,optionRight,80,2580,2,3,0,3,0,1,,,,,,,,,,,,,,,,,,,,,,,,,,,,,,,,,,,,,,,
,,,,,,,,2023-08-16_08h48.26.326,HF_wild_card,2022.2.4,Win32,60.62443165,579e431a81f331000139d5d0,64d2fd46c836a06233681665,64dc7f44e8f6a3b22cc4938a,,,,,,,decisionTrl,resources/DY.BMP,resources/DB.BMP,Door2,-0.326666667,0.061111111,1,0,0,0.8796,optionLeft,40,2620,2,4,0,4,0,1,,,,,,,,,,,,,,,,,,,,,,,,,,,,,,,,,,,,,,,
,,,,,,,,2023-08-16_08h48.26.326,HF_wild_card,2022.2.4,Win32,60.62443165,579e431a81f331000139d5d0,64d2fd46c836a06233681665,64dc7f44e8f6a3b22cc4938a,,,,,,,ctch,resources/DB.BMP,resources/DR.BMP,Door4,0.332222222,0.043333333,1,0,0,0.8464,optionRight,60,2680,2,5,0,5,0,1,,,,,,,,,,,,,,,,,,,,,,,,,,,,,,,,,,,,,,,
,,,,,,,,2023-08-16_08h48.26.326,HF_wild_card,2022.2.4,Win32,60.62443165,579e431a81f331000139d5d0,64d2fd46c836a06233681665,64dc7f44e8f6a3b22cc4938a,,,,,,,sngl,resources/DP.BMP,resources/Empty.png,Door3,-0.312222222,0.026666667,1,0,0,0.5798,optionLeft,70,2750,2,6,0,6,0,1,,,,,,,,,,,,,,,,,,,,,,,,,,,,,,,,,,,,,,,
,,,,,,,,2023-08-16_08h48.26.326,HF_wild_card,2022.2.4,Win32,60.62443165,579e431a81f331000139d5d0,64d2fd46c836a06233681665,64dc7f44e8f6a3b22cc4938a,,,,,,,decisionTrl,resources/DY.BMP,resources/DB.BMP,Door1,0.386666667,0.033333333,1,0,0,1.1634,optionRight,30,2780,2,7,0,7,0,1,,,,,,,,,,,,,,,,,,,,,,,,,,,,,,,,,,,,,,,
,,,,,,,,2023-08-16_08h48.26.326,HF_wild_card,2022.2.4,Win32,60.62443165,579e431a81f331000139d5d0,64d2fd46c836a06233681665,64dc7f44e8f6a3b22cc4938a,,,,,,,decisionTrl,resources/DB.BMP,resources/DBN.BMP,WildCard_NonEx,0.345555556,0.034444444,1,0,0,0.5964,optionRight,45,2825,2,8,0,8,0,1,,,,,,,,,,,,,,,,,,,,,,,,,,,,,,,,,,,,,,,
,,,,,,,,2023-08-16_08h48.26.326,HF_wild_card,2022.2.4,Win32,60.62443165,579e431a81f331000139d5d0,64d2fd46c836a06233681665,64dc7f44e8f6a3b22cc4938a,,,,,,,decisionTrl,resources/DB.BMP,resources/DY.BMP,Door1,-0.307777778,0.042222222,1,0,0,1.1123,optionLeft,30,2855,2,9,0,9,0,1,,,,,,,,,,,,,,,,,,,,,,,,,,,,,,,,,,,,,,,
,,,,,,,,2023-08-16_08h48.26.326,HF_wild_card,2022.2.4,Win32,60.62443165,579e431a81f331000139d5d0,64d2fd46c836a06233681665,64dc7f44e8f6a3b22cc4938a,,,,,,,decisionTrl,resources/DR.BMP,resources/DP.BMP,Door4,-0.398888889,0.044444444,1,0,0,1.2133,optionLeft,80,2935,2,10,0,10,0,1,,,,,,,,,,,,,,,,,,,,,,,,,,,,,,,,,,,,,,,
,,,,,,,,2023-08-16_08h48.26.326,HF_wild_card,2022.2.4,Win32,60.62443165,579e431a81f331000139d5d0,64d2fd46c836a06233681665,64dc7f44e8f6a3b22cc4938a,,,,,,,decisionTrl,resources/DB.BMP,resources/DY.BMP,Door2,0.297777778,0.024444444,1,0,0,1.0143,optionRight,20,2955,2,11,0,11,0,1,,,,,,,,,,,,,,,,,,,,,,,,,,,,,,,,,,,,,,,
,,,,,,,,2023-08-16_08h48.26.326,HF_wild_card,2022.2.4,Win32,60.62443165,579e431a81f331000139d5d0,64d2fd46c836a06233681665,64dc7f44e8f6a3b22cc4938a,,,,,,,ctch,resources/DB.BMP,resources/DR.BMP,Door4,0.391111111,0.033333333,1,0,0,1.0785,optionRight,80,3035,2,12,0,12,0,1,,,,,,,,,,,,,,,,,,,,,,,,,,,,,,,,,,,,,,,
,,,,,,,,2023-08-16_08h48.26.326,HF_wild_card,2022.2.4,Win32,60.62443165,579e431a81f331000139d5d0,64d2fd46c836a06233681665,64dc7f44e8f6a3b22cc4938a,,,,,,,sngl,resources/Empty.png,resources/DB.BMP,Door1,0.31,0.047777778,1,0,0,0.7302,optionRight,30,3065,2,13,0,13,0,1,,,,,,,,,,,,,,,,,,,,,,,,,,,,,,,,,,,,,,,
,,,,,,,,2023-08-16_08h48.26.326,HF_wild_card,2022.2.4,Win32,60.62443165,579e431a81f331000139d5d0,64d2fd46c836a06233681665,64dc7f44e8f6a3b22cc4938a,,,,,,,sngl,resources/DBN.BMP,resources/Empty.png,WildCard_NonEx,-0.284444444,0.032222222,1,0,0,0.6783,optionLeft,45,3110,2,14,0,14,0,1,,,,,,,,,,,,,,,,,,,,,,,,,,,,,,,,,,,,,,,
,,,,,,,,2023-08-16_08h48.26.326,HF_wild_card,2022.2.4,Win32,60.62443165,579e431a81f331000139d5d0,64d2fd46c836a06233681665,64dc7f44e8f6a3b22cc4938a,,,,,,,decisionTrl,resources/DP.BMP,resources/DR.BMP,Door4,0.3,0.056666667,1,0,0,1.1959,optionRight,80,3190,2,15,0,15,0,1,,,,,,,,,,,,,,,,,,,,,,,,,,,,,,,,,,,,,,,
,,,,,,,,2023-08-16_08h48.26.326,HF_wild_card,2022.2.4,Win32,60.62443165,579e431a81f331000139d5d0,64d2fd46c836a06233681665,64dc7f44e8f6a3b22cc4938a,,,,,,,decisionTrl,resources/DY.BMP,resources/DBN.BMP,WildCard_NonEx,0.257777778,0.042222222,1,0,0,0.9798,optionRight,45,3235,2,16,0,16,0,1,,,,,,,,,,,,,,,,,,,,,,,,,,,,,,,,,,,,,,,
,,,,,,,,2023-08-16_08h48.26.326,HF_wild_card,2022.2.4,Win32,60.62443165,579e431a81f331000139d5d0,64d2fd46c836a06233681665,64dc7f44e8f6a3b22cc4938a,,,,,,,ctch,resources/DR.BMP,resources/DB.BMP,Door4,-0.3,0.05,1,0,0,1.1958,optionLeft,80,3315,2,17,0,17,0,1,,,,,,,,,,,,,,,,,,,,,,,,,,,,,,,,,,,,,,,
,,,,,,,,2023-08-16_08h48.26.326,HF_wild_card,2022.2.4,Win32,60.62443165,579e431a81f331000139d5d0,64d2fd46c836a06233681665,64dc7f44e8f6a3b22cc4938a,,,,,,,sngl,resources/DBN.BMP,resources/Empty.png,WildCard_NonEx,-0.401111111,0.116666667,1,0,0,0.6133,optionLeft,55,3370,2,18,0,18,0,1,,,,,,,,,,,,,,,,,,,,,,,,,,,,,,,,,,,,,,,
,,,,,,,,2023-08-16_08h48.26.326,HF_wild_card,2022.2.4,Win32,60.62443165,579e431a81f331000139d5d0,64d2fd46c836a06233681665,64dc7f44e8f6a3b22cc4938a,,,,,,,ctch,resources/DR.BMP,resources/DB.BMP,Door4,-0.245555556,0.047777778,1,0,0,1.0632,optionLeft,60,3430,2,19,0,19,0,1,,,,,,,,,,,,,,,,,,,,,,,,,,,,,,,,,,,,,,,
,,,,,,,,2023-08-16_08h48.26.326,HF_wild_card,2022.2.4,Win32,60.62443165,579e431a81f331000139d5d0,64d2fd46c836a06233681665,64dc7f44e8f6a3b22cc4938a,,,,,,,decisionTrl,resources/DY.BMP,resources/DB.BMP,Door1,0.354444444,0.05,1,0,0,0.78,optionRight,30,3460,2,20,0,20,0,1,,,,,,,,,,,,,,,,,,,,,,,,,,,,,,,,,,,,,,,
,,,,,,,,2023-08-16_08h48.26.326,HF_wild_card,2022.2.4,Win32,60.62443165,579e431a81f331000139d5d0,64d2fd46c836a06233681665,64dc7f44e8f6a3b22cc4938a,,,,,,,ctch,resources/DY.BMP,resources/DP.BMP,Door3,0.323333333,0.04,1,0,0,0.647,optionRight,70,3530,2,21,0,21,0,1,,,,,,,,,,,,,,,,,,,,,,,,,,,,,,,,,,,,,,,
,,,,,,,,2023-08-16_08h48.26.326,HF_wild_card,2022.2.4,Win32,60.62443165,579e431a81f331000139d5d0,64d2fd46c836a06233681665,64dc7f44e8f6a3b22cc4938a,,,,,,,sngl,resources/Empty.png,resources/DBN.BMP,WildCard_NonEx,0.296666667,0.052222222,1,0,0,0.5951,optionRight,45,3575,2,22,0,22,0,1,,,,,,,,,,,,,,,,,,,,,,,,,,,,,,,,,,,,,,,
,,,,,,,,2023-08-16_08h48.26.326,HF_wild_card,2022.2.4,Win32,60.62443165,579e431a81f331000139d5d0,64d2fd46c836a06233681665,64dc7f44e8f6a3b22cc4938a,,,,,,,sngl,resources/Empty.png,resources/DBN.BMP,WildCard_NonEx,0.31,0.055555556,1,0,0,0.5473,optionRight,55,3630,2,23,0,23,0,1,,,,,,,,,,,,,,,,,,,,,,,,,,,,,,,,,,,,,,,
,,,,,,,,2023-08-16_08h48.26.326,HF_wild_card,2022.2.4,Win32,60.62443165,579e431a81f331000139d5d0,64d2fd46c836a06233681665,64dc7f44e8f6a3b22cc4938a,,,,,,,decisionTrl,resources/DR.BMP,resources/DP.BMP,Door4,-0.223333333,0.033333333,1,0,0,1.2813,optionLeft,60,3690,2,24,0,24,0,1,,,,,,,,,,,,,,,,,,,,,,,,,,,,,,,,,,,,,,,
,,,,,,,,2023-08-16_08h48.26.326,HF_wild_card,2022.2.4,Win32,60.62443165,579e431a81f331000139d5d0,64d2fd46c836a06233681665,64dc7f44e8f6a3b22cc4938a,,,,,,,sngl,resources/DR.BMP,resources/Empty.png,Door4,-0.234444444,0.055555556,1,0,0,0.6487,optionLeft,60,3750,2,25,0,25,0,1,,,,,,,,,,,,,,,,,,,,,,,,,,,,,,,,,,,,,,,
,,,,,,,,2023-08-16_08h48.26.326,HF_wild_card,2022.2.4,Win32,60.62443165,579e431a81f331000139d5d0,64d2fd46c836a06233681665,64dc7f44e8f6a3b22cc4938a,,,,,,,ctch,resources/DY.BMP,resources/DP.BMP,Door3,0.363333333,0.038888889,1,0,0,0.5115,optionRight,70,3820,2,26,0,26,0,1,,,,,,,,,,,,,,,,,,,,,,,,,,,,,,,,,,,,,,,
,,,,,,,,2023-08-16_08h48.26.326,HF_wild_card,2022.2.4,Win32,60.62443165,579e431a81f331000139d5d0,64d2fd46c836a06233681665,64dc7f44e8f6a3b22cc4938a,,,,,,,decisionTrl,resources/DP.BMP,resources/DBN.BMP,Door3,-0.353333333,0.053333333,1,0,0,0.5793,optionLeft,70,3890,2,27,0,27,0,1,,,,,,,,,,,,,,,,,,,,,,,,,,,,,,,,,,,,,,,
,,,,,,,,2023-08-16_08h48.26.326,HF_wild_card,2022.2.4,Win32,60.62443165,579e431a81f331000139d5d0,64d2fd46c836a06233681665,64dc7f44e8f6a3b22cc4938a,,,,,,,sngl,resources/Empty.png,resources/DY.BMP,Door2,0.312222222,0.02,1,0,0,0.6135,optionRight,40,3930,2,28,0,28,0,1,,,,,,,,,,,,,,,,,,,,,,,,,,,,,,,,,,,,,,,
,,,,,,,,2023-08-16_08h48.26.326,HF_wild_card,2022.2.4,Win32,60.62443165,579e431a81f331000139d5d0,64d2fd46c836a06233681665,64dc7f44e8f6a3b22cc4938a,,,,,,,decisionTrl,resources/DBN.BMP,resources/DY.BMP,WildCard_NonEx,-0.315555556,-0.004444444,1,0,0,1.0467,optionLeft,45,3975,2,29,0,29,0,1,,,,,,,,,,,,,,,,,,,,,,,,,,,,,,,,,,,,,,,
,,,,,,,,2023-08-16_08h48.26.326,HF_wild_card,2022.2.4,Win32,60.62443165,579e431a81f331000139d5d0,64d2fd46c836a06233681665,64dc7f44e8f6a3b22cc4938a,,,,,,,sngl,resources/Empty.png,resources/DR.BMP,Door4,0.277777778,0.015555556,1,0,0,0.6801,optionRight,80,4055,2,30,0,30,0,1,,,,,,,,,,,,,,,,,,,,,,,,,,,,,,,,,,,,,,,
,,,,,,,,2023-08-16_08h48.26.326,HF_wild_card,2022.2.4,Win32,60.62443165,579e431a81f331000139d5d0,64d2fd46c836a06233681665,64dc7f44e8f6a3b22cc4938a,,,,,,,decisionTrl,resources/DBN.BMP,resources/DR.BMP,Door4,0.281111111,0.001111111,1,0,0,0.5139,optionRight,80,4135,2,31,0,31,0,1,,,,,,,,,,,,,,,,,,,,,,,,,,,,,,,,,,,,,,,
,,,,,,,,2023-08-16_08h48.26.326,HF_wild_card,2022.2.4,Win32,60.62443165,579e431a81f331000139d5d0,64d2fd46c836a06233681665,64dc7f44e8f6a3b22cc4938a,,,,,,,decisionTrl,resources/DP.BMP,resources/DR.BMP,Door4,0.318888889,0.013333333,1,0,0,0.7971,optionRight,80,4215,2,32,0,32,0,1,,,,,,,,,,,,,,,,,,,,,,,,,,,,,,,,,,,,,,,
,,,,,,,,2023-08-16_08h48.26.326,HF_wild_card,2022.2.4,Win32,60.62443165,579e431a81f331000139d5d0,64d2fd46c836a06233681665,64dc7f44e8f6a3b22cc4938a,,,,,,,decisionTrl,resources/DP.BMP,resources/DR.BMP,Door4,0.37,0.012222222,1,0,0,0.7141,optionRight,60,4275,2,33,0,33,0,1,,,,,,,,,,,,,,,,,,,,,,,,,,,,,,,,,,,,,,,
,,,,,,,,2023-08-16_08h48.26.326,HF_wild_card,2022.2.4,Win32,60.62443165,579e431a81f331000139d5d0,64d2fd46c836a06233681665,64dc7f44e8f6a3b22cc4938a,,,,,,,sngl,resources/DB.BMP,resources/Empty.png,Door1,-0.287777778,0.031111111,1,0,0,0.5803,optionLeft,30,4305,2,34,0,34,0,1,,,,,,,,,,,,,,,,,,,,,,,,,,,,,,,,,,,,,,,
,,,,,,,,2023-08-16_08h48.26.326,HF_wild_card,2022.2.4,Win32,60.62443165,579e431a81f331000139d5d0,64d2fd46c836a06233681665,64dc7f44e8f6a3b22cc4938a,,,,,,,decisionTrl,resources/DB.BMP,resources/DY.BMP,Door1,-0.257777778,0.013333333,1,0,0,0.9672,optionLeft,30,4335,2,35,0,35,0,1,,,,,,,,,,,,,,,,,,,,,,,,,,,,,,,,,,,,,,,
,,,,,,,,2023-08-16_08h48.26.326,HF_wild_card,2022.2.4,Win32,60.62443165,579e431a81f331000139d5d0,64d2fd46c836a06233681665,64dc7f44e8f6a3b22cc4938a,,,,,,,decisionTrl,resources/DR.BMP,resources/DP.BMP,Door3,0.423333333,-0.001111111,1,0,0,0.9449,optionRight,70,4405,2,36,0,36,0,1,,,,,,,,,,,,,,,,,,,,,,,,,,,,,,,,,,,,,,,
,,,,,,,,2023-08-16_08h48.26.326,HF_wild_card,2022.2.4,Win32,60.62443165,579e431a81f331000139d5d0,64d2fd46c836a06233681665,64dc7f44e8f6a3b22cc4938a,,,,,,,sngl,resources/Empty.png,resources/DP.BMP,Door3,0.328888889,0.017777778,1,0,0,0.5451,optionRight,70,4475,2,37,0,37,0,1,,,,,,,,,,,,,,,,,,,,,,,,,,,,,,,,,,,,,,,
,,,,,,,,2023-08-16_08h48.26.326,HF_wild_card,2022.2.4,Win32,60.62443165,579e431a81f331000139d5d0,64d2fd46c836a06233681665,64dc7f44e8f6a3b22cc4938a,,,,,,,decisionTrl,resources/DR.BMP,resources/DBN.BMP,Door4,-0.212222222,0.005555556,1,0,0,0.713,optionLeft,80,4555,2,38,0,38,0,1,,,,,,,,,,,,,,,,,,,,,,,,,,,,,,,,,,,,,,,
,,,,,,,,2023-08-16_08h48.26.326,HF_wild_card,2022.2.4,Win32,60.62443165,579e431a81f331000139d5d0,64d2fd46c836a06233681665,64dc7f44e8f6a3b22cc4938a,,,,,,,ctch,resources/DP.BMP,resources/DY.BMP,Door3,-0.274444444,0.041111111,1,0,0,0.6289,optionLeft,70,4625,2,39,0,39,0,1,,,,,,,,,,,,,,,,,,,,,,,,,,,,,,,,,,,,,,,
,,,,,,,,2023-08-16_08h48.26.326,HF_wild_card,2022.2.4,Win32,60.62443165,579e431a81f331000139d5d0,64d2fd46c836a06233681665,64dc7f44e8f6a3b22cc4938a,,,,,,,decisionTrl,resources/DR.BMP,resources/DP.BMP,Door4,-0.295555556,0.047777778,1,0,0,0.9502,optionLeft,80,4705,2,40,0,40,0,1,,,,,,,,,,,,,,,,,,,,,,,,,,,,,,,,,,,,,,,
,,,,,,,,2023-08-16_08h48.26.326,HF_wild_card,2022.2.4,Win32,60.62443165,579e431a81f331000139d5d0,64d2fd46c836a06233681665,64dc7f44e8f6a3b22cc4938a,,,,,,,decisionTrl,resources/DBN.BMP,resources/DB.BMP,WildCard_NonEx,-0.246666667,0.055555556,1,0,0,1.0949,optionLeft,55,4760,2,41,0,41,0,1,,,,,,,,,,,,,,,,,,,,,,,,,,,,,,,,,,,,,,,
,,,,,,,,2023-08-16_08h48.26.326,HF_wild_card,2022.2.4,Win32,60.62443165,579e431a81f331000139d5d0,64d2fd46c836a06233681665,64dc7f44e8f6a3b22cc4938a,,,,,,,ctch,resources/DP.BMP,resources/DY.BMP,Door3,-0.24,0.008888889,1,0,0,1.0633,optionLeft,70,4830,2,42,0,42,0,1,,,,,,,,,,,,,,,,,,,,,,,,,,,,,,,,,,,,,,,
,,,,,,,,2023-08-16_08h48.26.326,HF_wild_card,2022.2.4,Win32,60.62443165,579e431a81f331000139d5d0,64d2fd46c836a06233681665,64dc7f44e8f6a3b22cc4938a,,,,,,,sngl,resources/DY.BMP,resources/Empty.png,Door2,-0.3,0.022222222,1,0,0,0.5797,optionLeft,20,4850,2,43,0,43,0,1,,,,,,,,,,,,,,,,,,,,,,,,,,,,,,,,,,,,,,,
,,,,,,,,2023-08-16_08h48.26.326,HF_wild_card,2022.2.4,Win32,60.62443165,579e431a81f331000139d5d0,64d2fd46c836a06233681665,64dc7f44e8f6a3b22cc4938a,,,,,,,,,,,,,,,,,,,,,,,,,,1,0,1,0,1,,,,,,,,,,,,,,,,,,,,,,,,,,,,,,,,,,
,,,,,,,,2023-08-16_08h48.26.326,HF_wild_card,2022.2.4,Win32,60.62443165,579e431a81f331000139d5d0,64d2fd46c836a06233681665,64dc7f44e8f6a3b22cc4938a,,,,,,,sngl,resources/Empty.png,resources/DR.BMP,Door4,0.417777778,-0.074444444,1,0,0,0.7719,optionRight,60,4910,3,0,0,0,0,1,,,,,,,,,,,,,,,,,,,,,,,,,,,,,,,,,,,,,,,
,,,,,,,,2023-08-16_08h48.26.326,HF_wild_card,2022.2.4,Win32,60.62443165,579e431a81f331000139d5d0,64d2fd46c836a06233681665,64dc7f44e8f6a3b22cc4938a,,,,,,,ctch,resources/DP.BMP,resources/DY.BMP,Door3,-0.34,0.004444444,1,0,0,0.8133,optionLeft,70,4980,3,1,0,1,0,1,,,,,,,,,,,,,,,,,,,,,,,,,,,,,,,,,,,,,,,
,,,,,,,,2023-08-16_08h48.26.326,HF_wild_card,2022.2.4,Win32,60.62443165,579e431a81f331000139d5d0,64d2fd46c836a06233681665,64dc7f44e8f6a3b22cc4938a,,,,,,,ctch,resources/DB.BMP,resources/DR.BMP,Door4,0.378888889,0.066666667,1,0,0,0.8138,optionRight,80,5060,3,2,0,2,0,1,,,,,,,,,,,,,,,,,,,,,,,,,,,,,,,,,,,,,,,
,,,,,,,,2023-08-16_08h48.26.326,HF_wild_card,2022.2.4,Win32,60.62443165,579e431a81f331000139d5d0,64d2fd46c836a06233681665,64dc7f44e8f6a3b22cc4938a,,,,,,,decisionTrl,resources/DR.BMP,resources/DP.BMP,Door4,-0.292222222,0.044444444,1,0,0,0.8138,optionLeft,80,5140,3,3,0,3,0,1,,,,,,,,,,,,,,,,,,,,,,,,,,,,,,,,,,,,,,,
,,,,,,,,2023-08-16_08h48.26.326,HF_wild_card,2022.2.4,Win32,60.62443165,579e431a81f331000139d5d0,64d2fd46c836a06233681665,64dc7f44e8f6a3b22cc4938a,,,,,,,decisionTrl,resources/DP.BMP,resources/DR.BMP,Door4,0.461111111,0.011111111,1,0,0,0.6823,optionRight,60,5200,3,4,0,4,0,1,,,,,,,,,,,,,,,,,,,,,,,,,,,,,,,,,,,,,,,
,,,,,,,,2023-08-16_08h48.26.326,HF_wild_card,2022.2.4,Win32,60.62443165,579e431a81f331000139d5d0,64d2fd46c836a06233681665,64dc7f44e8f6a3b22cc4938a,,,,,,,sngl,resources/DR.BMP,resources/Empty.png,Door4,-0.27,0.031111111,1,0,0,0.5137,optionLeft,80,5280,3,5,0,5,0,1,,,,,,,,,,,,,,,,,,,,,,,,,,,,,,,,,,,,,,,
,,,,,,,,2023-08-16_08h48.26.326,HF_wild_card,2022.2.4,Win32,60.62443165,579e431a81f331000139d5d0,64d2fd46c836a06233681665,64dc7f44e8f6a3b22cc4938a,,,,,,,decisionTrl,resources/DP.BMP,resources/DBN.BMP,Door3,-0.342222222,-0.013333333,1,0,0,0.6137,optionLeft,70,5350,3,6,0,6,0,1,,,,,,,,,,,,,,,,,,,,,,,,,,,,,,,,,,,,,,,
,,,,,,,,2023-08-16_08h48.26.326,HF_wild_card,2022.2.4,Win32,60.62443165,579e431a81f331000139d5d0,64d2fd46c836a06233681665,64dc7f44e8f6a3b22cc4938a,,,,,,,decisionTrl,resources/DR.BMP,resources/DP.BMP,Door4,-0.446666667,0.023333333,1,0,0,0.7971,optionLeft,80,5430,3,7,0,7,0,1,,,,,,,,,,,,,,,,,,,,,,,,,,,,,,,,,,,,,,,
,,,,,,,,2023-08-16_08h48.26.326,HF_wild_card,2022.2.4,Win32,60.62443165,579e431a81f331000139d5d0,64d2fd46c836a06233681665,64dc7f44e8f6a3b22cc4938a,,,,,,,decisionTrl,resources/DB.BMP,resources/DY.BMP,Door2,0.366666667,0.032222222,1,0,0,0.8818,optionRight,20,5450,3,8,0,8,0,1,,,,,,,,,,,,,,,,,,,,,,,,,,,,,,,,,,,,,,,
,,,,,,,,2023-08-16_08h48.26.326,HF_wild_card,2022.2.4,Win32,60.62443165,579e431a81f331000139d5d0,64d2fd46c836a06233681665,64dc7f44e8f6a3b22cc4938a,,,,,,,ctch,resources/DR.BMP,resources/DB.BMP,Door4,-0.272222222,0.046666667,1,0,0,1.8138,optionLeft,80,5530,3,9,0,9,0,1,,,,,,,,,,,,,,,,,,,,,,,,,,,,,,,,,,,,,,,
,,,,,,,,2023-08-16_08h48.26.326,HF_wild_card,2022.2.4,Win32,60.62443165,579e431a81f331000139d5d0,64d2fd46c836a06233681665,64dc7f44e8f6a3b22cc4938a,,,,,,,decisionTrl,resources/DB.BMP,resources/DY.BMP,Door1,-0.278888889,0.048888889,1,0,0,0.7962,optionLeft,30,5560,3,10,0,10,0,1,,,,,,,,,,,,,,,,,,,,,,,,,,,,,,,,,,,,,,,
,,,,,,,,2023-08-16_08h48.26.326,HF_wild_card,2022.2.4,Win32,60.62443165,579e431a81f331000139d5d0,64d2fd46c836a06233681665,64dc7f44e8f6a3b22cc4938a,,,,,,,decisionTrl,resources/DY.BMP,resources/DB.BMP,Door1,0.386666667,0.014444444,1,0,0,1.0302,optionRight,30,5590,3,11,0,11,0,1,,,,,,,,,,,,,,,,,,,,,,,,,,,,,,,,,,,,,,,
,,,,,,,,2023-08-16_08h48.26.326,HF_wild_card,2022.2.4,Win32,60.62443165,579e431a81f331000139d5d0,64d2fd46c836a06233681665,64dc7f44e8f6a3b22cc4938a,,,,,,,sngl,resources/DY.BMP,resources/Empty.png,Door2,-0.222222222,0.015555556,1,0,0,0.5481,optionLeft,40,5630,3,12,0,12,0,1,,,,,,,,,,,,,,,,,,,,,,,,,,,,,,,,,,,,,,,
,,,,,,,,2023-08-16_08h48.26.326,HF_wild_card,2022.2.4,Win32,60.62443165,579e431a81f331000139d5d0,64d2fd46c836a06233681665,64dc7f44e8f6a3b22cc4938a,,,,,,,decisionTrl,resources/DBN.BMP,resources/DB.BMP,WildCard_NonEx,-0.421111111,0.1,1,0,0,0.8632,optionLeft,45,5675,3,13,0,13,0,1,,,,,,,,,,,,,,,,,,,,,,,,,,,,,,,,,,,,,,,
,,,,,,,,2023-08-16_08h48.26.326,HF_wild_card,2022.2.4,Win32,60.62443165,579e431a81f331000139d5d0,64d2fd46c836a06233681665,64dc7f44e8f6a3b22cc4938a,,,,,,,ctch,resources/DY.BMP,resources/DP.BMP,Door3,0.348888889,0.055555556,1,0,0,0.7637,optionRight,70,5745,3,14,0,14,0,1,,,,,,,,,,,,,,,,,,,,,,,,,,,,,,,,,,,,,,,
,,,,,,,,2023-08-16_08h48.26.326,HF_wild_card,2022.2.4,Win32,60.62443165,579e431a81f331000139d5d0,64d2fd46c836a06233681665,64dc7f44e8f6a3b22cc4938a,,,,,,,decisionTrl,resources/DY.BMP,resources/DBN.BMP,WildCard_NonEx,0.292222222,0.072222222,1,0,0,0.9134,optionRight,45,5790,3,15,0,15,0,1,,,,,,,,,,,,,,,,,,,,,,,,,,,,,,,,,,,,,,,
,,,,,,,,2023-08-16_08h48.26.326,HF_wild_card,2022.2.4,Win32,60.62443165,579e431a81f331000139d5d0,64d2fd46c836a06233681665,64dc7f44e8f6a3b22cc4938a,,,,,,,decisionTrl,resources/DY.BMP,resources/DB.BMP,Door1,0.353333333,0.078888889,1,0,0,1.0824,optionRight,30,5820,3,16,0,16,0,1,,,,,,,,,,,,,,,,,,,,,,,,,,,,,,,,,,,,,,,
,,,,,,,,2023-08-16_08h48.26.326,HF_wild_card,2022.2.4,Win32,60.62443165,579e431a81f331000139d5d0,64d2fd46c836a06233681665,64dc7f44e8f6a3b22cc4938a,,,,,,,sngl,resources/DB.BMP,resources/Empty.png,Door1,-0.38,0.091111111,1,0,0,0.5112,optionLeft,30,5850,3,17,0,17,0,1,,,,,,,,,,,,,,,,,,,,,,,,,,,,,,,,,,,,,,,
,,,,,,,,2023-08-16_08h48.26.326,HF_wild_card,2022.2.4,Win32,60.62443165,579e431a81f331000139d5d0,64d2fd46c836a06233681665,64dc7f44e8f6a3b22cc4938a,,,,,,,decisionTrl,resources/DR.BMP,resources/DBN.BMP,Door4,-0.333333333,0.098888889,1,0,0,1.2469,optionLeft,60,5910,3,18,0,18,0,1,,,,,,,,,,,,,,,,,,,,,,,,,,,,,,,,,,,,,,,
,,,,,,,,2023-08-16_08h48.26.326,HF_wild_card,2022.2.4,Win32,60.62443165,579e431a81f331000139d5d0,64d2fd46c836a06233681665,64dc7f44e8f6a3b22cc4938a,,,,,,,ctch,resources/DY.BMP,resources/DP.BMP,Door3,0.315555556,0.115555556,1,0,0,0.5989,optionRight,70,5980,3,19,0,19,0,1,,,,,,,,,,,,,,,,,,,,,,,,,,,,,,,,,,,,,,,
,,,,,,,,2023-08-16_08h48.26.326,HF_wild_card,2022.2.4,Win32,60.62443165,579e431a81f331000139d5d0,64d2fd46c836a06233681665,64dc7f44e8f6a3b22cc4938a,,,,,,,decisionTrl,resources/DB.BMP,resources/DY.BMP,Door1,-0.183333333,0.061111111,1,0,0,1.1134,optionLeft,30,6010,3,20,0,20,0,1,,,,,,,,,,,,,,,,,,,,,,,,,,,,,,,,,,,,,,,
,,,,,,,,2023-08-16_08h48.26.326,HF_wild_card,2022.2.4,Win32,60.62443165,579e431a81f331000139d5d0,64d2fd46c836a06233681665,64dc7f44e8f6a3b22cc4938a,,,,,,,decisionTrl,resources/DR.BMP,resources/DP.BMP,Door4,-0.28,0.09,1,0,0,1.0794,optionLeft,60,6070,3,21,0,21,0,1,,,,,,,,,,,,,,,,,,,,,,,,,,,,,,,,,,,,,,,
,,,,,,,,2023-08-16_08h48.26.326,HF_wild_card,2022.2.4,Win32,60.62443165,579e431a81f331000139d5d0,64d2fd46c836a06233681665,64dc7f44e8f6a3b22cc4938a,,,,,,,decisionTrl,resources/DBN.BMP,resources/DP.BMP,Door3,0.468888889,0.084444444,1,0,0,0.5642,optionRight,70,6140,3,22,0,22,0,1,,,,,,,,,,,,,,,,,,,,,,,,,,,,,,,,,,,,,,,
,,,,,,,,2023-08-16_08h48.26.326,HF_wild_card,2022.2.4,Win32,60.62443165,579e431a81f331000139d5d0,64d2fd46c836a06233681665,64dc7f44e8f6a3b22cc4938a,,,,,,,ctch,resources/DP.BMP,resources/DY.BMP,Door3,-0.38,0.055555556,1,0,0,0.5446,optionLeft,70,6210,3,23,0,23,0,1,,,,,,,,,,,,,,,,,,,,,,,,,,,,,,,,,,,,,,,
,,,,,,,,2023-08-16_08h48.26.326,HF_wild_card,2022.2.4,Win32,60.62443165,579e431a81f331000139d5d0,64d2fd46c836a06233681665,64dc7f44e8f6a3b22cc4938a,,,,,,,sngl,resources/Empty.png,resources/DBN.BMP,WildCard_NonEx,0.306666667,0.061111111,1,0,0,0.5635,optionRight,55,6265,3,24,0,24,0,1,,,,,,,,,,,,,,,,,,,,,,,,,,,,,,,,,,,,,,,
,,,,,,,,2023-08-16_08h48.26.326,HF_wild_card,2022.2.4,Win32,60.62443165,579e431a81f331000139d5d0,64d2fd46c836a06233681665,64dc7f44e8f6a3b22cc4938a,,,,,,,decisionTrl,resources/DR.BMP,resources/DP.BMP,Door4,-0.31,0.043333333,1,0,0,0.9959,optionLeft,80,6345,3,25,0,25,0,1,,,,,,,,,,,,,,,,,,,,,,,,,,,,,,,,,,,,,,,
,,,,,,,,2023-08-16_08h48.26.326,HF_wild_card,2022.2.4,Win32,60.62443165,579e431a81f331000139d5d0,64d2fd46c836a06233681665,64dc7f44e8f6a3b22cc4938a,,,,,,,decisionTrl,resources/DY.BMP,resources/DB.BMP,Door1,0.407777778,0.057777778,1,0,0,1.1136,optionRight,30,6375,3,26,0,26,0,1,,,,,,,,,,,,,,,,,,,,,,,,,,,,,,,,,,,,,,,
,,,,,,,,2023-08-16_08h48.26.326,HF_wild_card,2022.2.4,Win32,60.62443165,579e431a81f331000139d5d0,64d2fd46c836a06233681665,64dc7f44e8f6a3b22cc4938a,,,,,,,sngl,resources/Empty.png,resources/DB.BMP,Door1,0.295555556,0.076666667,1,0,0,0.5301,optionRight,30,6405,3,27,0,27,0,1,,,,,,,,,,,,,,,,,,,,,,,,,,,,,,,,,,,,,,,
,,,,,,,,2023-08-16_08h48.26.326,HF_wild_card,2022.2.4,Win32,60.62443165,579e431a81f331000139d5d0,64d2fd46c836a06233681665,64dc7f44e8f6a3b22cc4938a,,,,,,,decisionTrl,resources/DP.BMP,resources/DR.BMP,Door4,0.278888889,0.032222222,1,0,0,1.4796,optionRight,60,6465,3,28,0,28,0,1,,,,,,,,,,,,,,,,,,,,,,,,,,,,,,,,,,,,,,,
,,,,,,,,2023-08-16_08h48.26.326,HF_wild_card,2022.2.4,Win32,60.62443165,579e431a81f331000139d5d0,64d2fd46c836a06233681665,64dc7f44e8f6a3b22cc4938a,,,,,,,decisionTrl,resources/DP.BMP,resources/DR.BMP,Door4,0.313333333,0.015555556,1,0,0,0.9957,optionRight,80,6545,3,29,0,29,0,1,,,,,,,,,,,,,,,,,,,,,,,,,,,,,,,,,,,,,,,
,,,,,,,,2023-08-16_08h48.26.326,HF_wild_card,2022.2.4,Win32,60.62443165,579e431a81f331000139d5d0,64d2fd46c836a06233681665,64dc7f44e8f6a3b22cc4938a,,,,,,,ctch,resources/DB.BMP,resources/DR.BMP,Door4,0.292222222,0.026666667,1,0,0,0.5804,optionRight,80,6625,3,30,0,30,0,1,,,,,,,,,,,,,,,,,,,,,,,,,,,,,,,,,,,,,,,
,,,,,,,,2023-08-16_08h48.26.326,HF_wild_card,2022.2.4,Win32,60.62443165,579e431a81f331000139d5d0,64d2fd46c836a06233681665,64dc7f44e8f6a3b22cc4938a,,,,,,,sngl,resources/Empty.png,resources/DBN.BMP,WildCard_NonEx,0.435555556,0.013333333,1,0,0,0.6137,optionRight,45,6670,3,31,0,31,0,1,,,,,,,,,,,,,,,,,,,,,,,,,,,,,,,,,,,,,,,
,,,,,,,,2023-08-16_08h48.26.326,HF_wild_card,2022.2.4,Win32,60.62443165,579e431a81f331000139d5d0,64d2fd46c836a06233681665,64dc7f44e8f6a3b22cc4938a,,,,,,,sngl,resources/Empty.png,resources/DY.BMP,Door2,0.261111111,-0.004444444,1,0,0,0.7314,optionRight,20,6690,3,32,0,32,0,1,,,,,,,,,,,,,,,,,,,,,,,,,,,,,,,,,,,,,,,
,,,,,,,,2023-08-16_08h48.26.326,HF_wild_card,2022.2.4,Win32,60.62443165,579e431a81f331000139d5d0,64d2fd46c836a06233681665,64dc7f44e8f6a3b22cc4938a,,,,,,,decisionTrl,resources/DP.BMP,resources/DR.BMP,Door4,0.374444444,0.052222222,1,0,0,0.9129,optionRight,60,6750,3,33,0,33,0,1,,,,,,,,,,,,,,,,,,,,,,,,,,,,,,,,,,,,,,,
,,,,,,,,2023-08-16_08h48.26.326,HF_wild_card,2022.2.4,Win32,60.62443165,579e431a81f331000139d5d0,64d2fd46c836a06233681665,64dc7f44e8f6a3b22cc4938a,,,,,,,sngl,resources/DBN.BMP,resources/Empty.png,WildCard_NonEx,-0.371111111,0.117777778,1,0,0,0.6467,optionLeft,55,6805,3,34,0,34,0,1,,,,,,,,,,,,,,,,,,,,,,,,,,,,,,,,,,,,,,,
,,,,,,,,2023-08-16_08h48.26.326,HF_wild_card,2022.2.4,Win32,60.62443165,579e431a81f331000139d5d0,64d2fd46c836a06233681665,64dc7f44e8f6a3b22cc4938a,,,,,,,decisionTrl,resources/DY.BMP,resources/DB.BMP,Door1,0.307777778,0.075555556,1,0,0,1.0469,optionRight,30,6835,3,35,0,35,0,1,,,,,,,,,,,,,,,,,,,,,,,,,,,,,,,,,,,,,,,
,,,,,,,,2023-08-16_08h48.26.326,HF_wild_card,2022.2.4,Win32,60.62443165,579e431a81f331000139d5d0,64d2fd46c836a06233681665,64dc7f44e8f6a3b22cc4938a,,,,,,,decisionTrl,resources/DBN.BMP,resources/DY.BMP,WildCard_NonEx,-0.24,0.054444444,1,0,0,1.3952,optionLeft,55,6890,3,36,0,36,0,1,,,,,,,,,,,,,,,,,,,,,,,,,,,,,,,,,,,,,,,
,,,,,,,,2023-08-16_08h48.26.326,HF_wild_card,2022.2.4,Win32,60.62443165,579e431a81f331000139d5d0,64d2fd46c836a06233681665,64dc7f44e8f6a3b22cc4938a,,,,,,,decisionTrl,resources/DB.BMP,resources/DY.BMP,Door1,-0.294444444,0.016666667,1,0,0,0.7638,optionLeft,30,6920,3,37,0,37,0,1,,,,,,,,,,,,,,,,,,,,,,,,,,,,,,,,,,,,,,,
,,,,,,,,2023-08-16_08h48.26.326,HF_wild_card,2022.2.4,Win32,60.62443165,579e431a81f331000139d5d0,64d2fd46c836a06233681665,64dc7f44e8f6a3b22cc4938a,,,,,,,decisionTrl,resources/DB.BMP,resources/DBN.BMP,WildCard_NonEx,0.361111111,0.025555556,1,0,0,0.9468,optionRight,55,6975,3,38,0,38,0,1,,,,,,,,,,,,,,,,,,,,,,,,,,,,,,,,,,,,,,,
,,,,,,,,2023-08-16_08h48.26.326,HF_wild_card,2022.2.4,Win32,60.62443165,579e431a81f331000139d5d0,64d2fd46c836a06233681665,64dc7f44e8f6a3b22cc4938a,,,,,,,sngl,resources/DBN.BMP,resources/Empty.png,WildCard_NonEx,-0.253333333,0.037777778,1,0,0,0.5467,optionLeft,45,7020,3,39,0,39,0,1,,,,,,,,,,,,,,,,,,,,,,,,,,,,,,,,,,,,,,,
,,,,,,,,2023-08-16_08h48.26.326,HF_wild_card,2022.2.4,Win32,60.62443165,579e431a81f331000139d5d0,64d2fd46c836a06233681665,64dc7f44e8f6a3b22cc4938a,,,,,,,decisionTrl,resources/DBN.BMP,resources/DR.BMP,Door4,0.305555556,0.042222222,1,0,0,0.715,optionRight,80,7100,3,40,0,40,0,1,,,,,,,,,,,,,,,,,,,,,,,,,,,,,,,,,,,,,,,
,,,,,,,,2023-08-16_08h48.26.326,HF_wild_card,2022.2.4,Win32,60.62443165,579e431a81f331000139d5d0,64d2fd46c836a06233681665,64dc7f44e8f6a3b22cc4938a,,,,,,,ctch,resources/DR.BMP,resources/DB.BMP,Door4,-0.27,0.025555556,1,0,0,0.5798,optionLeft,80,7180,3,41,0,41,0,1,,,,,,,,,,,,,,,,,,,,,,,,,,,,,,,,,,,,,,,
,,,,,,,,2023-08-16_08h48.26.326,HF_wild_card,2022.2.4,Win32,60.62443165,579e431a81f331000139d5d0,64d2fd46c836a06233681665,64dc7f44e8f6a3b22cc4938a,,,,,,,sngl,resources/Empty.png,resources/DP.BMP,Door3,0.291111111,0.026666667,1,0,0,0.5779,optionRight,70,7250,3,42,0,42,0,1,,,,,,,,,,,,,,,,,,,,,,,,,,,,,,,,,,,,,,,
,,,,,,,,2023-08-16_08h48.26.326,HF_wild_card,2022.2.4,Win32,60.62443165,579e431a81f331000139d5d0,64d2fd46c836a06233681665,64dc7f44e8f6a3b22cc4938a,,,,,,,sngl,resources/DP.BMP,resources/Empty.png,Door3,-0.312222222,0.021111111,1,0,0,0.4787,optionLeft,70,7320,3,43,0,43,0,1,,,,,,,,,,,,,,,,,,,,,,,,,,,,,,,,,,,,,,,
,,,,,,,,2023-08-16_08h48.26.326,HF_wild_card,2022.2.4,Win32,60.62443165,579e431a81f331000139d5d0,64d2fd46c836a06233681665,64dc7f44e8f6a3b22cc4938a,,,,,,,,,,,,,,,,,,,,,,,,,,2,0,2,0,1,,,,,,,,,,,,,,,,,,,,,,,,,,,,,,,,,,
,,,,,,,,2023-08-16_08h48.26.326,HF_wild_card,2022.2.4,Win32,60.62443165,579e431a81f331000139d5d0,64d2fd46c836a06233681665,64dc7f44e8f6a3b22cc4938a,,,,,,,decisionTrl,resources/DY.BMP,resources/DB.BMP,Door1,0.367777778,0.061111111,1,0,0,1.3324,optionRight,30,7350,4,0,0,0,0,1,,,,,,,,,,,,,,,,,,,,,,,,,,,,,,,,,,,,,,,
,,,,,,,,2023-08-16_08h48.26.326,HF_wild_card,2022.2.4,Win32,60.62443165,579e431a81f331000139d5d0,64d2fd46c836a06233681665,64dc7f44e8f6a3b22cc4938a,,,,,,,ctch,resources/DR.BMP,resources/DB.BMP,Door4,-0.225555556,-0.008888889,1,0,0,0.8967,optionLeft,80,7430,4,1,0,1,0,1,,,,,,,,,,,,,,,,,,,,,,,,,,,,,,,,,,,,,,,
,,,,,,,,2023-08-16_08h48.26.326,HF_wild_card,2022.2.4,Win32,60.62443165,579e431a81f331000139d5d0,64d2fd46c836a06233681665,64dc7f44e8f6a3b22cc4938a,,,,,,,decisionTrl,resources/DB.BMP,resources/DY.BMP,Door1,-0.308888889,0.032222222,1,0,0,1.063,optionLeft,30,7460,4,2,0,2,0,1,,,,,,,,,,,,,,,,,,,,,,,,,,,,,,,,,,,,,,,
,,,,,,,,2023-08-16_08h48.26.326,HF_wild_card,2022.2.4,Win32,60.62443165,579e431a81f331000139d5d0,64d2fd46c836a06233681665,64dc7f44e8f6a3b22cc4938a,,,,,,,ctch,resources/DB.BMP,resources/DR.BMP,Door4,0.26,0.024444444,1,0,0,0.6778,optionRight,60,7520,4,3,0,3,0,1,,,,,,,,,,,,,,,,,,,,,,,,,,,,,,,,,,,,,,,
,,,,,,,,2023-08-16_08h48.26.326,HF_wild_card,2022.2.4,Win32,60.62443165,579e431a81f331000139d5d0,64d2fd46c836a06233681665,64dc7f44e8f6a3b22cc4938a,,,,,,,sngl,resources/Empty.png,resources/DB.BMP,Door1,0.387777778,0.004444444,1,0,0,0.5133,optionRight,30,7550,4,4,0,4,0,1,,,,,,,,,,,,,,,,,,,,,,,,,,,,,,,,,,,,,,,
,,,,,,,,2023-08-16_08h48.26.326,HF_wild_card,2022.2.4,Win32,60.62443165,579e431a81f331000139d5d0,64d2fd46c836a06233681665,64dc7f44e8f6a3b22cc4938a,,,,,,,ctch,resources/DY.BMP,resources/DP.BMP,Door3,0.313333333,0.001111111,1,0,0,0.7967,optionRight,70,7620,4,5,0,5,0,1,,,,,,,,,,,,,,,,,,,,,,,,,,,,,,,,,,,,,,,
,,,,,,,,2023-08-16_08h48.26.326,HF_wild_card,2022.2.4,Win32,60.62443165,579e431a81f331000139d5d0,64d2fd46c836a06233681665,64dc7f44e8f6a3b22cc4938a,,,,,,,sngl,resources/Empty.png,resources/DP.BMP,Door3,0.428888889,-0.027777778,1,0,0,0.448,optionRight,70,7690,4,6,0,6,0,1,,,,,,,,,,,,,,,,,,,,,,,,,,,,,,,,,,,,,,,
,,,,,,,,2023-08-16_08h48.26.326,HF_wild_card,2022.2.4,Win32,60.62443165,579e431a81f331000139d5d0,64d2fd46c836a06233681665,64dc7f44e8f6a3b22cc4938a,,,,,,,decisionTrl,resources/DP.BMP,resources/DR.BMP,Door4,0.305555556,-0.02,1,0,0,0.6947,optionRight,60,7750,4,7,0,7,0,1,,,,,,,,,,,,,,,,,,,,,,,,,,,,,,,,,,,,,,,
,,,,,,,,2023-08-16_08h48.26.326,HF_wild_card,2022.2.4,Win32,60.62443165,579e431a81f331000139d5d0,64d2fd46c836a06233681665,64dc7f44e8f6a3b22cc4938a,,,,,,,ctch,resources/DY.BMP,resources/DP.BMP,Door3,0.303333333,-0.012222222,1,0,0,0.5795,optionRight,70,7820,4,8,0,8,0,1,,,,,,,,,,,,,,,,,,,,,,,,,,,,,,,,,,,,,,,
,,,,,,,,2023-08-16_08h48.26.326,HF_wild_card,2022.2.4,Win32,60.62443165,579e431a81f331000139d5d0,64d2fd46c836a06233681665,64dc7f44e8f6a3b22cc4938a,,,,,,,sngl,resources/Empty.png,resources/DG.BMP,WildCard_Ex,0.373333333,-0.024444444,1,0,0,0.5804,optionRight,5,7825,4,9,0,9,0,1,,,,,,,,,,,,,,,,,,,,,,,,,,,,,,,,,,,,,,,
,,,,,,,,2023-08-16_08h48.26.326,HF_wild_card,2022.2.4,Win32,60.62443165,579e431a81f331000139d5d0,64d2fd46c836a06233681665,64dc7f44e8f6a3b22cc4938a,,,,,,,sngl,resources/Empty.png,resources/DG.BMP,WildCard_Ex,0.335555556,-0.004444444,1,0,0,0.6313,optionRight,95,7920,4,10,0,10,0,1,,,,,,,,,,,,,,,,,,,,,,,,,,,,,,,,,,,,,,,
,,,,,,,,2023-08-16_08h48.26.326,HF_wild_card,2022.2.4,Win32,60.62443165,579e431a81f331000139d5d0,64d2fd46c836a06233681665,64dc7f44e8f6a3b22cc4938a,,,,,,,decisionTrl,resources/DB.BMP,resources/DY.BMP,Door1,-0.324444444,0.016666667,1,0,0,1.1131,optionLeft,30,7950,4,11,0,11,0,1,,,,,,,,,,,,,,,,,,,,,,,,,,,,,,,,,,,,,,,
,,,,,,,,2023-08-16_08h48.26.326,HF_wild_card,2022.2.4,Win32,60.62443165,579e431a81f331000139d5d0,64d2fd46c836a06233681665,64dc7f44e8f6a3b22cc4938a,,,,,,,decisionTrl,resources/DB.BMP,resources/DG.BMP,WildCard_Ex,0.297777778,0.03,1,0,0,0.631,optionRight,95,8045,4,12,0,12,0,1,,,,,,,,,,,,,,,,,,,,,,,,,,,,,,,,,,,,,,,
,,,,,,,,2023-08-16_08h48.26.326,HF_wild_card,2022.2.4,Win32,60.62443165,579e431a81f331000139d5d0,64d2fd46c836a06233681665,64dc7f44e8f6a3b22cc4938a,,,,,,,decisionTrl,resources/DB.BMP,resources/DY.BMP,Door1,-0.278888889,0.011111111,1,0,0,0.8967,optionLeft,30,8075,4,13,0,13,0,1,,,,,,,,,,,,,,,,,,,,,,,,,,,,,,,,,,,,,,,
,,,,,,,,2023-08-16_08h48.26.326,HF_wild_card,2022.2.4,Win32,60.62443165,579e431a81f331000139d5d0,64d2fd46c836a06233681665,64dc7f44e8f6a3b22cc4938a,,,,,,,decisionTrl,resources/DY.BMP,resources/DB.BMP,Door1,0.372222222,-0.026666667,1,0,0,1.5128,optionRight,30,8105,4,14,0,14,0,1,,,,,,,,,,,,,,,,,,,,,,,,,,,,,,,,,,,,,,,
,,,,,,,,2023-08-16_08h48.26.326,HF_wild_card,2022.2.4,Win32,60.62443165,579e431a81f331000139d5d0,64d2fd46c836a06233681665,64dc7f44e8f6a3b22cc4938a,,,,,,,sngl,resources/DY.BMP,resources/Empty.png,Door2,-0.295555556,0.01,1,0,0,0.6129,optionLeft,20,8125,4,15,0,15,0,1,,,,,,,,,,,,,,,,,,,,,,,,,,,,,,,,,,,,,,,
,,,,,,,,2023-08-16_08h48.26.326,HF_wild_card,2022.2.4,Win32,60.62443165,579e431a81f331000139d5d0,64d2fd46c836a06233681665,64dc7f44e8f6a3b22cc4938a,,,,,,,decisionTrl,resources/DG.BMP,resources/DY.BMP,WildCard_Ex,-0.441111111,0.062222222,1,0,0,0.9454,optionLeft,95,8220,4,16,0,16,0,1,,,,,,,,,,,,,,,,,,,,,,,,,,,,,,,,,,,,,,,
,,,,,,,,2023-08-16_08h48.26.326,HF_wild_card,2022.2.4,Win32,60.62443165,579e431a81f331000139d5d0,64d2fd46c836a06233681665,64dc7f44e8f6a3b22cc4938a,,,,,,,ctch,resources/DP.BMP,resources/DY.BMP,Door3,-0.437777778,0.046666667,1,0,0,0.7465,optionLeft,70,8290,4,17,0,17,0,1,,,,,,,,,,,,,,,,,,,,,,,,,,,,,,,,,,,,,,,
,,,,,,,,2023-08-16_08h48.26.326,HF_wild_card,2022.2.4,Win32,60.62443165,579e431a81f331000139d5d0,64d2fd46c836a06233681665,64dc7f44e8f6a3b22cc4938a,,,,,,,decisionTrl,resources/DY.BMP,resources/DB.BMP,Door1,0.331111111,0,1,0,0,0.8303,optionRight,30,8320,4,18,0,18,0,1,,,,,,,,,,,,,,,,,,,,,,,,,,,,,,,,,,,,,,,
,,,,,,,,2023-08-16_08h48.26.326,HF_wild_card,2022.2.4,Win32,60.62443165,579e431a81f331000139d5d0,64d2fd46c836a06233681665,64dc7f44e8f6a3b22cc4938a,,,,,,,sngl,resources/Empty.png,resources/DR.BMP,Door4,0.358888889,0.001111111,1,0,0,0.58,optionRight,80,8400,4,19,0,19,0,1,,,,,,,,,,,,,,,,,,,,,,,,,,,,,,,,,,,,,,,
,,,,,,,,2023-08-16_08h48.26.326,HF_wild_card,2022.2.4,Win32,60.62443165,579e431a81f331000139d5d0,64d2fd46c836a06233681665,64dc7f44e8f6a3b22cc4938a,,,,,,,ctch,resources/DP.BMP,resources/DY.BMP,Door3,-0.324444444,-0.004444444,1,0,0,0.98,optionLeft,70,8470,4,20,0,20,0,1,,,,,,,,,,,,,,,,,,,,,,,,,,,,,,,,,,,,,,,
,,,,,,,,2023-08-16_08h48.26.326,HF_wild_card,2022.2.4,Win32,60.62443165,579e431a81f331000139d5d0,64d2fd46c836a06233681665,64dc7f44e8f6a3b22cc4938a,,,,,,,sngl,resources/DP.BMP,resources/Empty.png,Door3,-0.358888889,-0.001111111,1,0,0,0.5101,optionLeft,70,8540,4,21,0,21,0,1,,,,,,,,,,,,,,,,,,,,,,,,,,,,,,,,,,,,,,,
,,,,,,,,2023-08-16_08h48.26.326,HF_wild_card,2022.2.4,Win32,60.62443165,579e431a81f331000139d5d0,64d2fd46c836a06233681665,64dc7f44e8f6a3b22cc4938a,,,,,,,decisionTrl,resources/DG.BMP,resources/DR.BMP,Door4,0.347777778,0.01,1,0,0,0.8811,optionRight,80,8620,4,22,0,22,0,1,,,,,,,,,,,,,,,,,,,,,,,,,,,,,,,,,,,,,,,
,,,,,,,,2023-08-16_08h48.26.326,HF_wild_card,2022.2.4,Win32,60.62443165,579e431a81f331000139d5d0,64d2fd46c836a06233681665,64dc7f44e8f6a3b22cc4938a,,,,,,,ctch,resources/DB.BMP,resources/DR.BMP,Door4,0.345555556,0.011111111,1,0,0,0.6804,optionRight,80,8700,4,23,0,23,0,1,,,,,,,,,,,,,,,,,,,,,,,,,,,,,,,,,,,,,,,
,,,,,,,,2023-08-16_08h48.26.326,HF_wild_card,2022.2.4,Win32,60.62443165,579e431a81f331000139d5d0,64d2fd46c836a06233681665,64dc7f44e8f6a3b22cc4938a,,,,,,,decisionTrl,resources/DR.BMP,resources/DP.BMP,Door4,-0.342222222,0.051111111,1,0,0,1.0466,optionLeft,60,8760,4,24,0,24,0,1,,,,,,,,,,,,,,,,,,,,,,,,,,,,,,,,,,,,,,,
,,,,,,,,2023-08-16_08h48.26.326,HF_wild_card,2022.2.4,Win32,60.62443165,579e431a81f331000139d5d0,64d2fd46c836a06233681665,64dc7f44e8f6a3b22cc4938a,,,,,,,decisionTrl,resources/DB.BMP,resources/DY.BMP,Door1,-0.292222222,0.023333333,1,0,0,0.9461,optionLeft,30,8790,4,25,0,25,0,1,,,,,,,,,,,,,,,,,,,,,,,,,,,,,,,,,,,,,,,
,,,,,,,,2023-08-16_08h48.26.326,HF_wild_card,2022.2.4,Win32,60.62443165,579e431a81f331000139d5d0,64d2fd46c836a06233681665,64dc7f44e8f6a3b22cc4938a,,,,,,,decisionTrl,resources/DP.BMP,resources/DR.BMP,Door4,0.342222222,0.032222222,1,0,0,0.997,optionRight,80,8870,4,26,0,26,0,1,,,,,,,,,,,,,,,,,,,,,,,,,,,,,,,,,,,,,,,
,,,,,,,,2023-08-16_08h48.26.326,HF_wild_card,2022.2.4,Win32,60.62443165,579e431a81f331000139d5d0,64d2fd46c836a06233681665,64dc7f44e8f6a3b22cc4938a,,,,,,,decisionTrl,resources/DP.BMP,resources/DR.BMP,Door4,0.296666667,0.056666667,1,0,0,0.5966,optionRight,60,8930,4,27,0,27,0,1,,,,,,,,,,,,,,,,,,,,,,,,,,,,,,,,,,,,,,,
,,,,,,,,2023-08-16_08h48.26.326,HF_wild_card,2022.2.4,Win32,60.62443165,579e431a81f331000139d5d0,64d2fd46c836a06233681665,64dc7f44e8f6a3b22cc4938a,,,,,,,sngl,resources/Empty.png,resources/DY.BMP,Door2,0.34,0.032222222,1,0,0,0.6466,optionRight,40,8970,4,28,0,28,0,1,,,,,,,,,,,,,,,,,,,,,,,,,,,,,,,,,,,,,,,
,,,,,,,,2023-08-16_08h48.26.326,HF_wild_card,2022.2.4,Win32,60.62443165,579e431a81f331000139d5d0,64d2fd46c836a06233681665,64dc7f44e8f6a3b22cc4938a,,,,,,,decisionTrl,resources/DG.BMP,resources/DP.BMP,Door3,0.458888889,-0.026666667,1,0,0,1.5633,optionRight,70,9040,4,29,0,29,0,1,,,,,,,,,,,,,,,,,,,,,,,,,,,,,,,,,,,,,,,
,,,,,,,,2023-08-16_08h48.26.326,HF_wild_card,2022.2.4,Win32,60.62443165,579e431a81f331000139d5d0,64d2fd46c836a06233681665,64dc7f44e8f6a3b22cc4938a,,,,,,,sngl,resources/DR.BMP,resources/Empty.png,Door4,-0.341111111,0.057777778,1,0,0,0.5134,optionLeft,60,9100,4,30,0,30,0,1,,,,,,,,,,,,,,,,,,,,,,,,,,,,,,,,,,,,,,,
,,,,,,,,2023-08-16_08h48.26.326,HF_wild_card,2022.2.4,Win32,60.62443165,579e431a81f331000139d5d0,64d2fd46c836a06233681665,64dc7f44e8f6a3b22cc4938a,,,,,,,decisionTrl,resources/DY.BMP,resources/DB.BMP,Door1,0.376666667,0.042222222,1,0,0,0.863,optionRight,30,9130,4,31,0,31,0,1,,,,,,,,,,,,,,,,,,,,,,,,,,,,,,,,,,,,,,,
,,,,,,,,2023-08-16_08h48.26.326,HF_wild_card,2022.2.4,Win32,60.62443165,579e431a81f331000139d5d0,64d2fd46c836a06233681665,64dc7f44e8f6a3b22cc4938a,,,,,,,ctch,resources/DR.BMP,resources/DB.BMP,Door1,0.317777778,0.024444444,1,0,0,0.88,optionRight,30,9160,4,32,0,32,0,1,,,,,,,,,,,,,,,,,,,,,,,,,,,,,,,,,,,,,,,
,,,,,,,,2023-08-16_08h48.26.326,HF_wild_card,2022.2.4,Win32,60.62443165,579e431a81f331000139d5d0,64d2fd46c836a06233681665,64dc7f44e8f6a3b22cc4938a,,,,,,,decisionTrl,resources/DR.BMP,resources/DP.BMP,Door3,0.297777778,0.02,1,0,0,0.9957,optionRight,70,9230,4,33,0,33,0,1,,,,,,,,,,,,,,,,,,,,,,,,,,,,,,,,,,,,,,,
,,,,,,,,2023-08-16_08h48.26.326,HF_wild_card,2022.2.4,Win32,60.62443165,579e431a81f331000139d5d0,64d2fd46c836a06233681665,64dc7f44e8f6a3b22cc4938a,,,,,,,decisionTrl,resources/DR.BMP,resources/DG.BMP,Door4,-0.321111111,0.018888889,1,0,0,1.0792,optionLeft,80,9310,4,34,0,34,0,1,,,,,,,,,,,,,,,,,,,,,,,,,,,,,,,,,,,,,,,
,,,,,,,,2023-08-16_08h48.26.326,HF_wild_card,2022.2.4,Win32,60.62443165,579e431a81f331000139d5d0,64d2fd46c836a06233681665,64dc7f44e8f6a3b22cc4938a,,,,,,,decisionTrl,resources/DP.BMP,resources/DR.BMP,Door4,0.361111111,0.018888889,1,0,0,1.0631,optionRight,60,9370,4,35,0,35,0,1,,,,,,,,,,,,,,,,,,,,,,,,,,,,,,,,,,,,,,,
,,,,,,,,2023-08-16_08h48.26.326,HF_wild_card,2022.2.4,Win32,60.62443165,579e431a81f331000139d5d0,64d2fd46c836a06233681665,64dc7f44e8f6a3b22cc4938a,,,,,,,decisionTrl,resources/DR.BMP,resources/DP.BMP,Door4,-0.285555556,0.012222222,1,0,0,0.9798,optionLeft,80,9450,4,36,0,36,0,1,,,,,,,,,,,,,,,,,,,,,,,,,,,,,,,,,,,,,,,
,,,,,,,,2023-08-16_08h48.26.326,HF_wild_card,2022.2.4,Win32,60.62443165,579e431a81f331000139d5d0,64d2fd46c836a06233681665,64dc7f44e8f6a3b22cc4938a,,,,,,,decisionTrl,resources/DP.BMP,resources/DG.BMP,Door3,-0.308888889,-0.011111111,1,0,0,0.9304,optionLeft,70,9520,4,37,0,37,0,1,,,,,,,,,,,,,,,,,,,,,,,,,,,,,,,,,,,,,,,
,,,,,,,,2023-08-16_08h48.26.326,HF_wild_card,2022.2.4,Win32,60.62443165,579e431a81f331000139d5d0,64d2fd46c836a06233681665,64dc7f44e8f6a3b22cc4938a,,,,,,,sngl,resources/DB.BMP,resources/Empty.png,Door1,-0.283333333,0.002222222,1,0,0,0.5971,optionLeft,30,9550,4,38,0,38,0,1,,,,,,,,,,,,,,,,,,,,,,,,,,,,,,,,,,,,,,,
,,,,,,,,2023-08-16_08h48.26.326,HF_wild_card,2022.2.4,Win32,60.62443165,579e431a81f331000139d5d0,64d2fd46c836a06233681665,64dc7f44e8f6a3b22cc4938a,,,,,,,decisionTrl,resources/DY.BMP,resources/DG.BMP,WildCard_Ex,0.29,0.046666667,1,0,0,0.8635,optionRight,5,9555,4,39,0,39,0,1,,,,,,,,,,,,,,,,,,,,,,,,,,,,,,,,,,,,,,,
,,,,,,,,2023-08-16_08h48.26.326,HF_wild_card,2022.2.4,Win32,60.62443165,579e431a81f331000139d5d0,64d2fd46c836a06233681665,64dc7f44e8f6a3b22cc4938a,,,,,,,decisionTrl,resources/DR.BMP,resources/DP.BMP,Door4,-0.436666667,0.015555556,1,0,0,1.0636,optionLeft,80,9635,4,40,0,40,0,1,,,,,,,,,,,,,,,,,,,,,,,,,,,,,,,,,,,,,,,
,,,,,,,,2023-08-16_08h48.26.326,HF_wild_card,2022.2.4,Win32,60.62443165,579e431a81f331000139d5d0,64d2fd46c836a06233681665,64dc7f44e8f6a3b22cc4938a,,,,,,,sngl,resources/DG.BMP,resources/Empty.png,WildCard_Ex,-0.266666667,0.044444444,1,0,0,0.6469,optionLeft,95,9730,4,41,0,41,0,1,,,,,,,,,,,,,,,,,,,,,,,,,,,,,,,,,,,,,,,
,,,,,,,,2023-08-16_08h48.26.326,HF_wild_card,2022.2.4,Win32,60.62443165,579e431a81f331000139d5d0,64d2fd46c836a06233681665,64dc7f44e8f6a3b22cc4938a,,,,,,,sngl,resources/DG.BMP,resources/Empty.png,WildCard_Ex,-0.306666667,0.033333333,1,0,0,0.4969,optionLeft,5,9735,4,42,0,42,0,1,,,,,,,,,,,,,,,,,,,,,,,,,,,,,,,,,,,,,,,
,,,,,,,,2023-08-16_08h48.26.326,HF_wild_card,2022.2.4,Win32,60.62443165,579e431a81f331000139d5d0,64d2fd46c836a06233681665,64dc7f44e8f6a3b22cc4938a,,,,,,,decisionTrl,resources/DG.BMP,resources/DB.BMP,WildCard_Ex,-0.307777778,0.061111111,1,0,0,0.6305,optionLeft,95,9830,4,43,0,43,0,1,,,,,,,,,,,,,,,,,,,,,,,,,,,,,,,,,,,,,,,
,,,,,,,,2023-08-16_08h48.26.326,HF_wild_card,2022.2.4,Win32,60.62443165,579e431a81f331000139d5d0,64d2fd46c836a06233681665,64dc7f44e8f6a3b22cc4938a,,,,,,,,,,,,,,,,,,,,,,,,,,3,0,3,0,1,,,,,,,,,,,,,,,,,,,,,,,,,,,,,,,,,,
,,,,,,,,2023-08-16_08h48.26.326,HF_wild_card,2022.2.4,Win32,60.62443165,579e431a81f331000139d5d0,64d2fd46c836a06233681665,64dc7f44e8f6a3b22cc4938a,,,,,,,sngl,resources/DB.BMP,resources/Empty.png,Door1,-0.326666667,-0.067777778,1,0,0,0.9329,optionLeft,30,9860,5,0,0,0,0,1,,,,,,,,,,,,,,,,,,,,,,,,,,,,,,,,,,,,,,,
,,,,,,,,2023-08-16_08h48.26.326,HF_wild_card,2022.2.4,Win32,60.62443165,579e431a81f331000139d5d0,64d2fd46c836a06233681665,64dc7f44e8f6a3b22cc4938a,,,,,,,sngl,resources/Empty.png,resources/DP.BMP,Door3,0.458888889,-0.023333333,1,0,0,0.5635,optionRight,70,9930,5,1,0,1,0,1,,,,,,,,,,,,,,,,,,,,,,,,,,,,,,,,,,,,,,,
,,,,,,,,2023-08-16_08h48.26.326,HF_wild_card,2022.2.4,Win32,60.62443165,579e431a81f331000139d5d0,64d2fd46c836a06233681665,64dc7f44e8f6a3b22cc4938a,,,,,,,decisionTrl,resources/DP.BMP,resources/DR.BMP,Door4,0.287777778,0.002222222,1,0,0,1.1137,optionRight,60,9990,5,2,0,2,0,1,,,,,,,,,,,,,,,,,,,,,,,,,,,,,,,,,,,,,,,
,,,,,,,,2023-08-16_08h48.26.326,HF_wild_card,2022.2.4,Win32,60.62443165,579e431a81f331000139d5d0,64d2fd46c836a06233681665,64dc7f44e8f6a3b22cc4938a,,,,,,,sngl,resources/Empty.png,resources/DG.BMP,WildCard_Ex,0.382222222,-0.018888889,1,0,0,0.6126,optionRight,5,9995,5,3,0,3,0,1,,,,,,,,,,,,,,,,,,,,,,,,,,,,,,,,,,,,,,,
,,,,,,,,2023-08-16_08h48.26.326,HF_wild_card,2022.2.4,Win32,60.62443165,579e431a81f331000139d5d0,64d2fd46c836a06233681665,64dc7f44e8f6a3b22cc4938a,,,,,,,decisionTrl,resources/DP.BMP,resources/DG.BMP,WildCard_Ex,0.352222222,0.002222222,1,0,0,0.5304,optionRight,5,10000,5,4,0,4,0,1,,,,,,,,,,,,,,,,,,,,,,,,,,,,,,,,,,,,,,,
,,,,,,,,2023-08-16_08h48.26.326,HF_wild_card,2022.2.4,Win32,60.62443165,579e431a81f331000139d5d0,64d2fd46c836a06233681665,64dc7f44e8f6a3b22cc4938a,,,,,,,decisionTrl,resources/DP.BMP,resources/DR.BMP,Door4,0.336666667,-0.008888889,1,0,0,0.9136,optionRight,60,10060,5,5,0,5,0,1,,,,,,,,,,,,,,,,,,,,,,,,,,,,,,,,,,,,,,,
,,,,,,,,2023-08-16_08h48.26.326,HF_wild_card,2022.2.4,Win32,60.62443165,579e431a81f331000139d5d0,64d2fd46c836a06233681665,64dc7f44e8f6a3b22cc4938a,,,,,,,decisionTrl,resources/DY.BMP,resources/DB.BMP,Door1,0.294444444,0.03,1,0,0,1.1972,optionRight,30,10090,5,6,0,6,0,1,,,,,,,,,,,,,,,,,,,,,,,,,,,,,,,,,,,,,,,
,,,,,,,,2023-08-16_08h48.26.326,HF_wild_card,2022.2.4,Win32,60.62443165,579e431a81f331000139d5d0,64d2fd46c836a06233681665,64dc7f44e8f6a3b22cc4938a,,,,,,,decisionTrl,resources/DB.BMP,resources/DY.BMP,Door1,-0.337777778,0.015555556,1,0,0,1.1459,optionLeft,30,10120,5,7,0,7,0,1,,,,,,,,,,,,,,,,,,,,,,,,,,,,,,,,,,,,,,,
,,,,,,,,2023-08-16_08h48.26.326,HF_wild_card,2022.2.4,Win32,60.62443165,579e431a81f331000139d5d0,64d2fd46c836a06233681665,64dc7f44e8f6a3b22cc4938a,,,,,,,sngl,resources/Empty.png,resources/DB.BMP,Door1,0.462222222,-0.003333333,1,0,0,0.579,optionRight,30,10150,5,8,0,8,0,1,,,,,,,,,,,,,,,,,,,,,,,,,,,,,,,,,,,,,,,
,,,,,,,,2023-08-16_08h48.26.326,HF_wild_card,2022.2.4,Win32,60.62443165,579e431a81f331000139d5d0,64d2fd46c836a06233681665,64dc7f44e8f6a3b22cc4938a,,,,,,,decisionTrl,resources/DG.BMP,resources/DB.BMP,WildCard_Ex,-0.324444444,0.011111111,1,0,0,0.6468,optionLeft,95,10245,5,9,0,9,0,1,,,,,,,,,,,,,,,,,,,,,,,,,,,,,,,,,,,,,,,
,,,,,,,,2023-08-16_08h48.26.326,HF_wild_card,2022.2.4,Win32,60.62443165,579e431a81f331000139d5d0,64d2fd46c836a06233681665,64dc7f44e8f6a3b22cc4938a,,,,,,,decisionTrl,resources/DB.BMP,resources/DG.BMP,WildCard_Ex,0.355555556,0.035555556,1,0,0,0.6304,optionRight,5,10250,5,10,0,10,0,1,,,,,,,,,,,,,,,,,,,,,,,,,,,,,,,,,,,,,,,
,,,,,,,,2023-08-16_08h48.26.326,HF_wild_card,2022.2.4,Win32,60.62443165,579e431a81f331000139d5d0,64d2fd46c836a06233681665,64dc7f44e8f6a3b22cc4938a,,,,,,,decisionTrl,resources/DR.BMP,resources/DP.BMP,Door4,-0.471111111,0.012222222,1,0,0,1.0289,optionLeft,80,10330,5,11,0,11,0,1,,,,,,,,,,,,,,,,,,,,,,,,,,,,,,,,,,,,,,,
,,,,,,,,2023-08-16_08h48.26.326,HF_wild_card,2022.2.4,Win32,60.62443165,579e431a81f331000139d5d0,64d2fd46c836a06233681665,64dc7f44e8f6a3b22cc4938a,,,,,,,ctch,resources/DB.BMP,resources/DR.BMP,Door4,0.343333333,0.013333333,1,0,0,0.5631,optionRight,60,10390,5,12,0,12,0,1,,,,,,,,,,,,,,,,,,,,,,,,,,,,,,,,,,,,,,,
,,,,,,,,2023-08-16_08h48.26.326,HF_wild_card,2022.2.4,Win32,60.62443165,579e431a81f331000139d5d0,64d2fd46c836a06233681665,64dc7f44e8f6a3b22cc4938a,,,,,,,decisionTrl,resources/DB.BMP,resources/DY.BMP,Door1,-0.35,-0.008888889,1,0,0,1.0477,optionLeft,30,10420,5,13,0,13,0,1,,,,,,,,,,,,,,,,,,,,,,,,,,,,,,,,,,,,,,,
,,,,,,,,2023-08-16_08h48.26.326,HF_wild_card,2022.2.4,Win32,60.62443165,579e431a81f331000139d5d0,64d2fd46c836a06233681665,64dc7f44e8f6a3b22cc4938a,,,,,,,ctch,resources/DY.BMP,resources/DP.BMP,Door3,0.336666667,0.017777778,1,0,0,0.7636,optionRight,70,10490,5,14,0,14,0,1,,,,,,,,,,,,,,,,,,,,,,,,,,,,,,,,,,,,,,,
,,,,,,,,2023-08-16_08h48.26.326,HF_wild_card,2022.2.4,Win32,60.62443165,579e431a81f331000139d5d0,64d2fd46c836a06233681665,64dc7f44e8f6a3b22cc4938a,,,,,,,sngl,resources/Empty.png,resources/DY.BMP,Door2,0.334444444,-0.006666667,1,0,0,0.6134,optionRight,20,10510,5,15,0,15,0,1,,,,,,,,,,,,,,,,,,,,,,,,,,,,,,,,,,,,,,,
,,,,,,,,2023-08-16_08h48.26.326,HF_wild_card,2022.2.4,Win32,60.62443165,579e431a81f331000139d5d0,64d2fd46c836a06233681665,64dc7f44e8f6a3b22cc4938a,,,,,,,decisionTrl,resources/DP.BMP,resources/DR.BMP,Door4,0.431111111,-0.012222222,1,0,0,1.113,optionRight,80,10590,5,16,0,16,0,1,,,,,,,,,,,,,,,,,,,,,,,,,,,,,,,,,,,,,,,
,,,,,,,,2023-08-16_08h48.26.326,HF_wild_card,2022.2.4,Win32,60.62443165,579e431a81f331000139d5d0,64d2fd46c836a06233681665,64dc7f44e8f6a3b22cc4938a,,,,,,,ctch,resources/DP.BMP,resources/DY.BMP,Door3,-0.392222222,0.015555556,1,0,0,0.5803,optionLeft,70,10660,5,17,0,17,0,1,,,,,,,,,,,,,,,,,,,,,,,,,,,,,,,,,,,,,,,
,,,,,,,,2023-08-16_08h48.26.326,HF_wild_card,2022.2.4,Win32,60.62443165,579e431a81f331000139d5d0,64d2fd46c836a06233681665,64dc7f44e8f6a3b22cc4938a,,,,,,,decisionTrl,resources/DY.BMP,resources/DG.BMP,WildCard_Ex,0.296666667,0.052222222,1,0,0,0.7304,optionRight,95,10755,5,18,0,18,0,1,,,,,,,,,,,,,,,,,,,,,,,,,,,,,,,,,,,,,,,
,,,,,,,,2023-08-16_08h48.26.326,HF_wild_card,2022.2.4,Win32,60.62443165,579e431a81f331000139d5d0,64d2fd46c836a06233681665,64dc7f44e8f6a3b22cc4938a,,,,,,,decisionTrl,resources/DG.BMP,resources/DP.BMP,Door3,0.354444444,0.018888889,1,0,0,0.8462,optionRight,70,10825,5,19,0,19,0,1,,,,,,,,,,,,,,,,,,,,,,,,,,,,,,,,,,,,,,,
,,,,,,,,2023-08-16_08h48.26.326,HF_wild_card,2022.2.4,Win32,60.62443165,579e431a81f331000139d5d0,64d2fd46c836a06233681665,64dc7f44e8f6a3b22cc4938a,,,,,,,ctch,resources/DP.BMP,resources/DY.BMP,Door3,-0.316666667,0.052222222,1,0,0,0.714,optionLeft,70,10895,5,20,0,20,0,1,,,,,,,,,,,,,,,,,,,,,,,,,,,,,,,,,,,,,,,
,,,,,,,,2023-08-16_08h48.26.326,HF_wild_card,2022.2.4,Win32,60.62443165,579e431a81f331000139d5d0,64d2fd46c836a06233681665,64dc7f44e8f6a3b22cc4938a,,,,,,,sngl,resources/DP.BMP,resources/Empty.png,Door3,-0.298888889,0.026666667,1,0,0,0.5297,optionLeft,70,10965,5,21,0,21,0,1,,,,,,,,,,,,,,,,,,,,,,,,,,,,,,,,,,,,,,,
,,,,,,,,2023-08-16_08h48.26.326,HF_wild_card,2022.2.4,Win32,60.62443165,579e431a81f331000139d5d0,64d2fd46c836a06233681665,64dc7f44e8f6a3b22cc4938a,,,,,,,decisionTrl,resources/DR.BMP,resources/DP.BMP,Door4,-0.356666667,0.032222222,1,0,0,0.8464,optionLeft,60,11025,5,22,0,22,0,1,,,,,,,,,,,,,,,,,,,,,,,,,,,,,,,,,,,,,,,
,,,,,,,,2023-08-16_08h48.26.326,HF_wild_card,2022.2.4,Win32,60.62443165,579e431a81f331000139d5d0,64d2fd46c836a06233681665,64dc7f44e8f6a3b22cc4938a,,,,,,,ctch,resources/DR.BMP,resources/DB.BMP,Door1,0.386666667,0.061111111,1,0,0,1.1638,optionRight,30,11055,5,23,0,23,0,1,,,,,,,,,,,,,,,,,,,,,,,,,,,,,,,,,,,,,,,
,,,,,,,,2023-08-16_08h48.26.326,HF_wild_card,2022.2.4,Win32,60.62443165,579e431a81f331000139d5d0,64d2fd46c836a06233681665,64dc7f44e8f6a3b22cc4938a,,,,,,,sngl,resources/Empty.png,resources/DG.BMP,WildCard_Ex,0.384444444,0.066666667,1,0,0,0.8135,optionRight,95,11150,5,24,0,24,0,1,,,,,,,,,,,,,,,,,,,,,,,,,,,,,,,,,,,,,,,
,,,,,,,,2023-08-16_08h48.26.326,HF_wild_card,2022.2.4,Win32,60.62443165,579e431a81f331000139d5d0,64d2fd46c836a06233681665,64dc7f44e8f6a3b22cc4938a,,,,,,,decisionTrl,resources/DR.BMP,resources/DP.BMP,Door4,-0.404444444,0.048888889,1,0,0,1.4297,optionLeft,60,11210,5,25,0,25,0,1,,,,,,,,,,,,,,,,,,,,,,,,,,,,,,,,,,,,,,,
,,,,,,,,2023-08-16_08h48.26.326,HF_wild_card,2022.2.4,Win32,60.62443165,579e431a81f331000139d5d0,64d2fd46c836a06233681665,64dc7f44e8f6a3b22cc4938a,,,,,,,decisionTrl,resources/DP.BMP,resources/DR.BMP,Door4,0.364444444,0.024444444,1,0,0,1.3631,optionRight,60,11270,5,26,0,26,0,1,,,,,,,,,,,,,,,,,,,,,,,,,,,,,,,,,,,,,,,
,,,,,,,,2023-08-16_08h48.26.326,HF_wild_card,2022.2.4,Win32,60.62443165,579e431a81f331000139d5d0,64d2fd46c836a06233681665,64dc7f44e8f6a3b22cc4938a,,,,,,,decisionTrl,resources/DG.BMP,resources/DY.BMP,WildCard_Ex,-0.35,0.046666667,1,0,0,1.0469,optionLeft,95,11365,5,27,0,27,0,1,,,,,,,,,,,,,,,,,,,,,,,,,,,,,,,,,,,,,,,
,,,,,,,,2023-08-16_08h48.26.326,HF_wild_card,2022.2.4,Win32,60.62443165,579e431a81f331000139d5d0,64d2fd46c836a06233681665,64dc7f44e8f6a3b22cc4938a,,,,,,,sngl,resources/DG.BMP,resources/Empty.png,WildCard_Ex,-0.31,0.078888889,1,0,0,0.5636,optionLeft,5,11370,5,28,0,28,0,1,,,,,,,,,,,,,,,,,,,,,,,,,,,,,,,,,,,,,,,
,,,,,,,,2023-08-16_08h48.26.326,HF_wild_card,2022.2.4,Win32,60.62443165,579e431a81f331000139d5d0,64d2fd46c836a06233681665,64dc7f44e8f6a3b22cc4938a,,,,,,,sngl,resources/DY.BMP,resources/Empty.png,Door2,-0.313333333,0.017777778,1,0,0,0.6132,optionLeft,40,11410,5,29,0,29,0,1,,,,,,,,,,,,,,,,,,,,,,,,,,,,,,,,,,,,,,,
,,,,,,,,2023-08-16_08h48.26.326,HF_wild_card,2022.2.4,Win32,60.62443165,579e431a81f331000139d5d0,64d2fd46c836a06233681665,64dc7f44e8f6a3b22cc4938a,,,,,,,sngl,resources/Empty.png,resources/DR.BMP,Door4,0.348888889,0.024444444,1,0,0,0.5126,optionRight,60,11470,5,30,0,30,0,1,,,,,,,,,,,,,,,,,,,,,,,,,,,,,,,,,,,,,,,
,,,,,,,,2023-08-16_08h48.26.326,HF_wild_card,2022.2.4,Win32,60.62443165,579e431a81f331000139d5d0,64d2fd46c836a06233681665,64dc7f44e8f6a3b22cc4938a,,,,,,,decisionTrl,resources/DG.BMP,resources/DR.BMP,Door4,0.295555556,0.015555556,1,0,0,0.599,optionRight,60,11530,5,31,0,31,0,1,,,,,,,,,,,,,,,,,,,,,,,,,,,,,,,,,,,,,,,
,,,,,,,,2023-08-16_08h48.26.326,HF_wild_card,2022.2.4,Win32,60.62443165,579e431a81f331000139d5d0,64d2fd46c836a06233681665,64dc7f44e8f6a3b22cc4938a,,,,,,,decisionTrl,resources/DY.BMP,resources/DB.BMP,Door1,0.363333333,0.03,1,0,0,0.9634,optionRight,30,11560,5,32,0,32,0,1,,,,,,,,,,,,,,,,,,,,,,,,,,,,,,,,,,,,,,,
,,,,,,,,2023-08-16_08h48.26.326,HF_wild_card,2022.2.4,Win32,60.62443165,579e431a81f331000139d5d0,64d2fd46c836a06233681665,64dc7f44e8f6a3b22cc4938a,,,,,,,ctch,resources/DR.BMP,resources/DB.BMP,Door4,-0.261111111,-0.004444444,1,0,0,0.6816,optionLeft,80,11640,5,33,0,33,0,1,,,,,,,,,,,,,,,,,,,,,,,,,,,,,,,,,,,,,,,
,,,,,,,,2023-08-16_08h48.26.326,HF_wild_card,2022.2.4,Win32,60.62443165,579e431a81f331000139d5d0,64d2fd46c836a06233681665,64dc7f44e8f6a3b22cc4938a,,,,,,,sngl,resources/DR.BMP,resources/Empty.png,Door4,-0.415555556,0.032222222,1,0,0,0.5124,optionLeft,80,11720,5,34,0,34,0,1,,,,,,,,,,,,,,,,,,,,,,,,,,,,,,,,,,,,,,,
,,,,,,,,2023-08-16_08h48.26.326,HF_wild_card,2022.2.4,Win32,60.62443165,579e431a81f331000139d5d0,64d2fd46c836a06233681665,64dc7f44e8f6a3b22cc4938a,,,,,,,decisionTrl,resources/DB.BMP,resources/DY.BMP,Door1,-0.388888889,0.03,1,0,0,1.013,optionLeft,30,11750,5,35,0,35,0,1,,,,,,,,,,,,,,,,,,,,,,,,,,,,,,,,,,,,,,,
,,,,,,,,2023-08-16_08h48.26.326,HF_wild_card,2022.2.4,Win32,60.62443165,579e431a81f331000139d5d0,64d2fd46c836a06233681665,64dc7f44e8f6a3b22cc4938a,,,,,,,decisionTrl,resources/DB.BMP,resources/DY.BMP,Door1,-0.41,0.013333333,1,0,0,0.5824,optionLeft,30,11780,5,36,0,36,0,1,,,,,,,,,,,,,,,,,,,,,,,,,,,,,,,,,,,,,,,
,,,,,,,,2023-08-16_08h48.26.326,HF_wild_card,2022.2.4,Win32,60.62443165,579e431a81f331000139d5d0,64d2fd46c836a06233681665,64dc7f44e8f6a3b22cc4938a,,,,,,,ctch,resources/DB.BMP,resources/DR.BMP,Door4,0.452222222,-0.021111111,1,0,0,0.6854,optionRight,60,11840,5,37,0,37,0,1,,,,,,,,,,,,,,,,,,,,,,,,,,,,,,,,,,,,,,,
,,,,,,,,2023-08-16_08h48.26.326,HF_wild_card,2022.2.4,Win32,60.62443165,579e431a81f331000139d5d0,64d2fd46c836a06233681665,64dc7f44e8f6a3b22cc4938a,,,,,,,ctch,resources/DY.BMP,resources/DP.BMP,Door3,0.368888889,0.016666667,1,0,0,0.6616,optionRight,70,11910,5,38,0,38,0,1,,,,,,,,,,,,,,,,,,,,,,,,,,,,,,,,,,,,,,,
,,,,,,,,2023-08-16_08h48.26.326,HF_wild_card,2022.2.4,Win32,60.62443165,579e431a81f331000139d5d0,64d2fd46c836a06233681665,64dc7f44e8f6a3b22cc4938a,,,,,,,decisionTrl,resources/DY.BMP,resources/DB.BMP,Door1,0.298888889,0.021111111,1,0,0,0.8766,optionRight,30,11940,5,39,0,39,0,1,,,,,,,,,,,,,,,,,,,,,,,,,,,,,,,,,,,,,,,
,,,,,,,,2023-08-16_08h48.26.326,HF_wild_card,2022.2.4,Win32,60.62443165,579e431a81f331000139d5d0,64d2fd46c836a06233681665,64dc7f44e8f6a3b22cc4938a,,,,,,,decisionTrl,resources/DR.BMP,resources/DP.BMP,Door4,-0.394444444,0.004444444,1,0,0,0.9501,optionLeft,60,12000,5,40,0,40,0,1,,,,,,,,,,,,,,,,,,,,,,,,,,,,,,,,,,,,,,,
,,,,,,,,2023-08-16_08h48.26.326,HF_wild_card,2022.2.4,Win32,60.62443165,579e431a81f331000139d5d0,64d2fd46c836a06233681665,64dc7f44e8f6a3b22cc4938a,,,,,,,decisionTrl,resources/DR.BMP,resources/DG.BMP,Door4,-0.282222222,0.023333333,1,0,0,1.6771,optionLeft,60,12060,5,41,0,41,0,1,,,,,,,,,,,,,,,,,,,,,,,,,,,,,,,,,,,,,,,
,,,,,,,,2023-08-16_08h48.26.326,HF_wild_card,2022.2.4,Win32,60.62443165,579e431a81f331000139d5d0,64d2fd46c836a06233681665,64dc7f44e8f6a3b22cc4938a,,,,,,,sngl,resources/DG.BMP,resources/Empty.png,WildCard_Ex,-0.28,0.033333333,1,0,0,0.5821,optionLeft,95,12155,5,42,0,42,0,1,,,,,,,,,,,,,,,,,,,,,,,,,,,,,,,,,,,,,,,
,,,,,,,,2023-08-16_08h48.26.326,HF_wild_card,2022.2.4,Win32,60.62443165,579e431a81f331000139d5d0,64d2fd46c836a06233681665,64dc7f44e8f6a3b22cc4938a,,,,,,,decisionTrl,resources/DY.BMP,resources/DB.BMP,Door1,0.34,0.004444444,1,0,0,0.731,optionRight,30,12185,5,43,0,43,0,1,,,,,,,,,,,,,,,,,,,,,,,,,,,,,,,,,,,,,,,
,,,,,,,,2023-08-16_08h48.26.326,HF_wild_card,2022.2.4,Win32,60.62443165,579e431a81f331000139d5d0,64d2fd46c836a06233681665,64dc7f44e8f6a3b22cc4938a,,,,,,,,,,,,,,,,,,,,,,,,,,4,0,4,0,1,,,,,,,,,,,,,,,,,,,,,,,,,,,,,,,,,,
,,,,,,,,2023-08-16_08h48.26.326,HF_wild_card,2022.2.4,Win32,60.62443165,579e431a81f331000139d5d0,64d2fd46c836a06233681665,64dc7f44e8f6a3b22cc4938a,,,,,,,ctch,resources/DY.BMP,resources/DP.BMP,Door3,0.387777778,0.011111111,1,0,0,0.7493,optionRight,70,12255,6,0,0,0,0,1,,,,,,,,,,,,,,,,,,,,,,,,,,,,,,,,,,,,,,,
,,,,,,,,2023-08-16_08h48.26.326,HF_wild_card,2022.2.4,Win32,60.62443165,579e431a81f331000139d5d0,64d2fd46c836a06233681665,64dc7f44e8f6a3b22cc4938a,,,,,,,sngl,resources/DB.BMP,resources/Empty.png,Door1,-0.322222222,0.02,1,0,0,0.6141,optionLeft,30,12285,6,1,0,1,0,1,,,,,,,,,,,,,,,,,,,,,,,,,,,,,,,,,,,,,,,
,,,,,,,,2023-08-16_08h48.26.326,HF_wild_card,2022.2.4,Win32,60.62443165,579e431a81f331000139d5d0,64d2fd46c836a06233681665,64dc7f44e8f6a3b22cc4938a,,,,,,,decisionTrl,resources/DR.BMP,resources/DP.BMP,Door4,-0.364444444,0.048888889,1,0,0,0.8305,optionLeft,60,12345,6,2,0,2,0,1,,,,,,,,,,,,,,,,,,,,,,,,,,,,,,,,,,,,,,,
,,,,,,,,2023-08-16_08h48.26.326,HF_wild_card,2022.2.4,Win32,60.62443165,579e431a81f331000139d5d0,64d2fd46c836a06233681665,64dc7f44e8f6a3b22cc4938a,,,,,,,decisionTrl,resources/DB.BMP,resources/DY.BMP,Door1,-0.278888889,0.022222222,1,0,0,0.6139,optionLeft,30,12375,6,3,0,3,0,1,,,,,,,,,,,,,,,,,,,,,,,,,,,,,,,,,,,,,,,
,,,,,,,,2023-08-16_08h48.26.326,HF_wild_card,2022.2.4,Win32,60.62443165,579e431a81f331000139d5d0,64d2fd46c836a06233681665,64dc7f44e8f6a3b22cc4938a,,,,,,,decisionTrl,resources/DG.BMP,resources/DP.BMP,Door3,0.318888889,0.007777778,1,0,0,0.9975,optionRight,70,12445,6,4,0,4,0,1,,,,,,,,,,,,,,,,,,,,,,,,,,,,,,,,,,,,,,,
,,,,,,,,2023-08-16_08h48.26.326,HF_wild_card,2022.2.4,Win32,60.62443165,579e431a81f331000139d5d0,64d2fd46c836a06233681665,64dc7f44e8f6a3b22cc4938a,,,,,,,decisionTrl,resources/DR.BMP,resources/DP.BMP,Door4,-0.422222222,0.027777778,1,0,0,0.8981,optionLeft,80,12525,6,5,0,5,0,1,,,,,,,,,,,,,,,,,,,,,,,,,,,,,,,,,,,,,,,
,,,,,,,,2023-08-16_08h48.26.326,HF_wild_card,2022.2.4,Win32,60.62443165,579e431a81f331000139d5d0,64d2fd46c836a06233681665,64dc7f44e8f6a3b22cc4938a,,,,,,,decisionTrl,resources/DP.BMP,resources/DR.BMP,Door4,0.315555556,0.002222222,1,0,0,1.1118,optionRight,60,12585,6,6,0,6,0,1,,,,,,,,,,,,,,,,,,,,,,,,,,,,,,,,,,,,,,,
,,,,,,,,2023-08-16_08h48.26.326,HF_wild_card,2022.2.4,Win32,60.62443165,579e431a81f331000139d5d0,64d2fd46c836a06233681665,64dc7f44e8f6a3b22cc4938a,,,,,,,sngl,resources/DG.BMP,resources/Empty.png,WildCard_Ex,-0.284444444,0.034444444,1,0,0,0.5969,optionLeft,5,12590,6,7,0,7,0,1,,,,,,,,,,,,,,,,,,,,,,,,,,,,,,,,,,,,,,,
,,,,,,,,2023-08-16_08h48.26.326,HF_wild_card,2022.2.4,Win32,60.62443165,579e431a81f331000139d5d0,64d2fd46c836a06233681665,64dc7f44e8f6a3b22cc4938a,,,,,,,ctch,resources/DP.BMP,resources/DY.BMP,Door3,-0.312222222,0.018888889,1,0,0,1.1141,optionLeft,70,12660,6,8,0,8,0,1,,,,,,,,,,,,,,,,,,,,,,,,,,,,,,,,,,,,,,,
,,,,,,,,2023-08-16_08h48.26.326,HF_wild_card,2022.2.4,Win32,60.62443165,579e431a81f331000139d5d0,64d2fd46c836a06233681665,64dc7f44e8f6a3b22cc4938a,,,,,,,decisionTrl,resources/DG.BMP,resources/DR.BMP,Door4,0.497777778,-0.02,1,0,0,0.9937,optionRight,60,12720,6,9,0,9,0,1,,,,,,,,,,,,,,,,,,,,,,,,,,,,,,,,,,,,,,,
,,,,,,,,2023-08-16_08h48.26.326,HF_wild_card,2022.2.4,Win32,60.62443165,579e431a81f331000139d5d0,64d2fd46c836a06233681665,64dc7f44e8f6a3b22cc4938a,,,,,,,decisionTrl,resources/DY.BMP,resources/DB.BMP,Door1,0.407777778,0.015555556,1,0,0,0.847,optionRight,30,12750,6,10,0,10,0,1,,,,,,,,,,,,,,,,,,,,,,,,,,,,,,,,,,,,,,,
,,,,,,,,2023-08-16_08h48.26.326,HF_wild_card,2022.2.4,Win32,60.62443165,579e431a81f331000139d5d0,64d2fd46c836a06233681665,64dc7f44e8f6a3b22cc4938a,,,,,,,decisionTrl,resources/DB.BMP,resources/DY.BMP,Door1,-0.284444444,-0.01,1,0,0,0.9982,optionLeft,30,12780,6,11,0,11,0,1,,,,,,,,,,,,,,,,,,,,,,,,,,,,,,,,,,,,,,,
,,,,,,,,2023-08-16_08h48.26.326,HF_wild_card,2022.2.4,Win32,60.62443165,579e431a81f331000139d5d0,64d2fd46c836a06233681665,64dc7f44e8f6a3b22cc4938a,,,,,,,sngl,resources/DG.BMP,resources/Empty.png,WildCard_Ex,-0.295555556,0.058888889,1,0,0,0.5809,optionLeft,95,12875,6,12,0,12,0,1,,,,,,,,,,,,,,,,,,,,,,,,,,,,,,,,,,,,,,,
,,,,,,,,2023-08-16_08h48.26.326,HF_wild_card,2022.2.4,Win32,60.62443165,579e431a81f331000139d5d0,64d2fd46c836a06233681665,64dc7f44e8f6a3b22cc4938a,,,,,,,sngl,resources/Empty.png,resources/DG.BMP,WildCard_Ex,0.357777778,0.04,1,0,0,1.6278,optionRight,95,12970,6,13,0,13,0,1,,,,,,,,,,,,,,,,,,,,,,,,,,,,,,,,,,,,,,,
,,,,,,,,2023-08-16_08h48.26.326,HF_wild_card,2022.2.4,Win32,60.62443165,579e431a81f331000139d5d0,64d2fd46c836a06233681665,64dc7f44e8f6a3b22cc4938a,,,,,,,sngl,resources/DY.BMP,resources/Empty.png,Door2,-0.361111111,0.03,1,0,0,0.6622,optionLeft,20,12990,6,14,0,14,0,1,,,,,,,,,,,,,,,,,,,,,,,,,,,,,,,,,,,,,,,
,,,,,,,,2023-08-16_08h48.26.326,HF_wild_card,2022.2.4,Win32,60.62443165,579e431a81f331000139d5d0,64d2fd46c836a06233681665,64dc7f44e8f6a3b22cc4938a,,,,,,,decisionTrl,resources/DY.BMP,resources/DB.BMP,Door1,0.465555556,0,1,0,0,0.8972,optionRight,30,13020,6,15,0,15,0,1,,,,,,,,,,,,,,,,,,,,,,,,,,,,,,,,,,,,,,,
,,,,,,,,2023-08-16_08h48.26.326,HF_wild_card,2022.2.4,Win32,60.62443165,579e431a81f331000139d5d0,64d2fd46c836a06233681665,64dc7f44e8f6a3b22cc4938a,,,,,,,decisionTrl,resources/DY.BMP,resources/DB.BMP,Door1,0.415555556,0.024444444,1,0,0,1.0138,optionRight,30,13050,6,16,0,16,0,1,,,,,,,,,,,,,,,,,,,,,,,,,,,,,,,,,,,,,,,
,,,,,,,,2023-08-16_08h48.26.326,HF_wild_card,2022.2.4,Win32,60.62443165,579e431a81f331000139d5d0,64d2fd46c836a06233681665,64dc7f44e8f6a3b22cc4938a,,,,,,,ctch,resources/DY.BMP,resources/DP.BMP,Door3,0.327777778,0.002222222,1,0,0,0.6646,optionRight,70,13120,6,17,0,17,0,1,,,,,,,,,,,,,,,,,,,,,,,,,,,,,,,,,,,,,,,
,,,,,,,,2023-08-16_08h48.26.326,HF_wild_card,2022.2.4,Win32,60.62443165,579e431a81f331000139d5d0,64d2fd46c836a06233681665,64dc7f44e8f6a3b22cc4938a,,,,,,,ctch,resources/DR.BMP,resources/DB.BMP,Door4,-0.408888889,-0.026666667,1,0,0,0.8783,optionLeft,80,13200,6,18,0,18,0,1,,,,,,,,,,,,,,,,,,,,,,,,,,,,,,,,,,,,,,,
,,,,,,,,2023-08-16_08h48.26.326,HF_wild_card,2022.2.4,Win32,60.62443165,579e431a81f331000139d5d0,64d2fd46c836a06233681665,64dc7f44e8f6a3b22cc4938a,,,,,,,decisionTrl,resources/DR.BMP,resources/DP.BMP,Door4,-0.322222222,0.013333333,1,0,0,1.298,optionLeft,80,13280,6,19,0,19,0,1,,,,,,,,,,,,,,,,,,,,,,,,,,,,,,,,,,,,,,,
,,,,,,,,2023-08-16_08h48.26.326,HF_wild_card,2022.2.4,Win32,60.62443165,579e431a81f331000139d5d0,64d2fd46c836a06233681665,64dc7f44e8f6a3b22cc4938a,,,,,,,decisionTrl,resources/DP.BMP,resources/DG.BMP,WildCard_Ex,0.345555556,0.037777778,1,0,0,0.7147,optionRight,5,13285,6,20,0,20,0,1,,,,,,,,,,,,,,,,,,,,,,,,,,,,,,,,,,,,,,,
,,,,,,,,2023-08-16_08h48.26.326,HF_wild_card,2022.2.4,Win32,60.62443165,579e431a81f331000139d5d0,64d2fd46c836a06233681665,64dc7f44e8f6a3b22cc4938a,,,,,,,sngl,resources/DR.BMP,resources/Empty.png,Door4,-0.365555556,0.021111111,1,0,0,0.5483,optionLeft,60,13345,6,21,0,21,0,1,,,,,,,,,,,,,,,,,,,,,,,,,,,,,,,,,,,,,,,
,,,,,,,,2023-08-16_08h48.26.326,HF_wild_card,2022.2.4,Win32,60.62443165,579e431a81f331000139d5d0,64d2fd46c836a06233681665,64dc7f44e8f6a3b22cc4938a,,,,,,,decisionTrl,resources/DR.BMP,resources/DP.BMP,Door4,-0.32,-0.003333333,1,0,0,1.1299,optionLeft,60,13405,6,22,0,22,0,1,,,,,,,,,,,,,,,,,,,,,,,,,,,,,,,,,,,,,,,
,,,,,,,,2023-08-16_08h48.26.326,HF_wild_card,2022.2.4,Win32,60.62443165,579e431a81f331000139d5d0,64d2fd46c836a06233681665,64dc7f44e8f6a3b22cc4938a,,,,,,,sngl,resources/Empty.png,resources/DY.BMP,Door2,0.296666667,0.01,1,0,0,0.6305,optionRight,40,13445,6,23,0,23,0,1,,,,,,,,,,,,,,,,,,,,,,,,,,,,,,,,,,,,,,,
,,,,,,,,2023-08-16_08h48.26.326,HF_wild_card,2022.2.4,Win32,60.62443165,579e431a81f331000139d5d0,64d2fd46c836a06233681665,64dc7f44e8f6a3b22cc4938a,,,,,,,ctch,resources/DR.BMP,resources/DB.BMP,Door4,-0.334444444,0.031111111,1,0,0,0.7152,optionLeft,80,13525,6,24,0,24,0,1,,,,,,,,,,,,,,,,,,,,,,,,,,,,,,,,,,,,,,,
,,,,,,,,2023-08-16_08h48.26.326,HF_wild_card,2022.2.4,Win32,60.62443165,579e431a81f331000139d5d0,64d2fd46c836a06233681665,64dc7f44e8f6a3b22cc4938a,,,,,,,sngl,resources/Empty.png,resources/DR.BMP,Door4,0.336666667,-0.005555556,1,0,0,0.6134,optionRight,80,13605,6,25,0,25,0,1,,,,,,,,,,,,,,,,,,,,,,,,,,,,,,,,,,,,,,,
,,,,,,,,2023-08-16_08h48.26.326,HF_wild_card,2022.2.4,Win32,60.62443165,579e431a81f331000139d5d0,64d2fd46c836a06233681665,64dc7f44e8f6a3b22cc4938a,,,,,,,sngl,resources/Empty.png,resources/DG.BMP,WildCard_Ex,0.374444444,0.014444444,1,0,0,0.7968,optionRight,5,13610,6,26,0,26,0,1,,,,,,,,,,,,,,,,,,,,,,,,,,,,,,,,,,,,,,,
,,,,,,,,2023-08-16_08h48.26.326,HF_wild_card,2022.2.4,Win32,60.62443165,579e431a81f331000139d5d0,64d2fd46c836a06233681665,64dc7f44e8f6a3b22cc4938a,,,,,,,decisionTrl,resources/DP.BMP,resources/DR.BMP,Door4,0.283333333,0.032222222,1,0,0,1.5794,optionRight,60,13670,6,27,0,27,0,1,,,,,,,,,,,,,,,,,,,,,,,,,,,,,,,,,,,,,,,
,,,,,,,,2023-08-16_08h48.26.326,HF_wild_card,2022.2.4,Win32,60.62443165,579e431a81f331000139d5d0,64d2fd46c836a06233681665,64dc7f44e8f6a3b22cc4938a,,,,,,,sngl,resources/Empty.png,resources/DP.BMP,Door3,0.397777778,0.016666667,1,0,0,0.5119,optionRight,70,13740,6,28,0,28,0,1,,,,,,,,,,,,,,,,,,,,,,,,,,,,,,,,,,,,,,,
,,,,,,,,2023-08-16_08h48.26.326,HF_wild_card,2022.2.4,Win32,60.62443165,579e431a81f331000139d5d0,64d2fd46c836a06233681665,64dc7f44e8f6a3b22cc4938a,,,,,,,decisionTrl,resources/DB.BMP,resources/DG.BMP,Door1,-0.341111111,0.033333333,1,0,0,1.0642,optionLeft,30,13770,6,29,0,29,0,1,,,,,,,,,,,,,,,,,,,,,,,,,,,,,,,,,,,,,,,
,,,,,,,,2023-08-16_08h48.26.326,HF_wild_card,2022.2.4,Win32,60.62443165,579e431a81f331000139d5d0,64d2fd46c836a06233681665,64dc7f44e8f6a3b22cc4938a,,,,,,,sngl,resources/Empty.png,resources/DB.BMP,Door1,0.376666667,0.007777778,1,0,0,0.5469,optionRight,30,13800,6,30,0,30,0,1,,,,,,,,,,,,,,,,,,,,,,,,,,,,,,,,,,,,,,,
,,,,,,,,2023-08-16_08h48.26.326,HF_wild_card,2022.2.4,Win32,60.62443165,579e431a81f331000139d5d0,64d2fd46c836a06233681665,64dc7f44e8f6a3b22cc4938a,,,,,,,decisionTrl,resources/DY.BMP,resources/DG.BMP,WildCard_Ex,0.321111111,-0.004444444,1,0,0,0.9132,optionRight,95,13895,6,31,0,31,0,1,,,,,,,,,,,,,,,,,,,,,,,,,,,,,,,,,,,,,,,
,,,,,,,,2023-08-16_08h48.26.326,HF_wild_card,2022.2.4,Win32,60.62443165,579e431a81f331000139d5d0,64d2fd46c836a06233681665,64dc7f44e8f6a3b22cc4938a,,,,,,,ctch,resources/DB.BMP,resources/DR.BMP,Door4,0.295555556,-0.003333333,1,0,0,0.9475,optionRight,80,13975,6,32,0,32,0,1,,,,,,,,,,,,,,,,,,,,,,,,,,,,,,,,,,,,,,,
,,,,,,,,2023-08-16_08h48.26.326,HF_wild_card,2022.2.4,Win32,60.62443165,579e431a81f331000139d5d0,64d2fd46c836a06233681665,64dc7f44e8f6a3b22cc4938a,,,,,,,ctch,resources/DP.BMP,resources/DY.BMP,Door3,-0.336666667,-0.042222222,1,0,0,1.3966,optionLeft,70,14045,6,33,0,33,0,1,,,,,,,,,,,,,,,,,,,,,,,,,,,,,,,,,,,,,,,
,,,,,,,,2023-08-16_08h48.26.326,HF_wild_card,2022.2.4,Win32,60.62443165,579e431a81f331000139d5d0,64d2fd46c836a06233681665,64dc7f44e8f6a3b22cc4938a,,,,,,,decisionTrl,resources/DG.BMP,resources/DB.BMP,WildCard_Ex,-0.324444444,0.066666667,1,0,0,1.3061,optionLeft,95,14140,6,34,0,34,0,1,,,,,,,,,,,,,,,,,,,,,,,,,,,,,,,,,,,,,,,
,,,,,,,,2023-08-16_08h48.26.326,HF_wild_card,2022.2.4,Win32,60.62443165,579e431a81f331000139d5d0,64d2fd46c836a06233681665,64dc7f44e8f6a3b22cc4938a,,,,,,,decisionTrl,resources/DP.BMP,resources/DR.BMP,Door4,0.307777778,0.038888889,1,0,0,1.147,optionRight,80,14220,6,35,0,35,0,1,,,,,,,,,,,,,,,,,,,,,,,,,,,,,,,,,,,,,,,
,,,,,,,,2023-08-16_08h48.26.326,HF_wild_card,2022.2.4,Win32,60.62443165,579e431a81f331000139d5d0,64d2fd46c836a06233681665,64dc7f44e8f6a3b22cc4938a,,,,,,,ctch,resources/DB.BMP,resources/DR.BMP,Door4,0.314444444,0.038888889,1,0,0,1.0466,optionRight,60,14280,6,36,0,36,0,1,,,,,,,,,,,,,,,,,,,,,,,,,,,,,,,,,,,,,,,
,,,,,,,,2023-08-16_08h48.26.326,HF_wild_card,2022.2.4,Win32,60.62443165,579e431a81f331000139d5d0,64d2fd46c836a06233681665,64dc7f44e8f6a3b22cc4938a,,,,,,,decisionTrl,resources/DR.BMP,resources/DG.BMP,Door4,-0.345555556,-0.005555556,1,0,0,0.9962,optionLeft,80,14360,6,37,0,37,0,1,,,,,,,,,,,,,,,,,,,,,,,,,,,,,,,,,,,,,,,
,,,,,,,,2023-08-16_08h48.26.326,HF_wild_card,2022.2.4,Win32,60.62443165,579e431a81f331000139d5d0,64d2fd46c836a06233681665,64dc7f44e8f6a3b22cc4938a,,,,,,,sngl,resources/DP.BMP,resources/Empty.png,Door3,-0.32,0,1,0,0,0.5937,optionLeft,70,14430,6,38,0,38,0,1,,,,,,,,,,,,,,,,,,,,,,,,,,,,,,,,,,,,,,,
,,,,,,,,2023-08-16_08h48.26.326,HF_wild_card,2022.2.4,Win32,60.62443165,579e431a81f331000139d5d0,64d2fd46c836a06233681665,64dc7f44e8f6a3b22cc4938a,,,,,,,decisionTrl,resources/DB.BMP,resources/DY.BMP,Door1,-0.292222222,0.026666667,1,0,0,0.697,optionLeft,30,14460,6,39,0,39,0,1,,,,,,,,,,,,,,,,,,,,,,,,,,,,,,,,,,,,,,,
,,,,,,,,2023-08-16_08h48.26.326,HF_wild_card,2022.2.4,Win32,60.62443165,579e431a81f331000139d5d0,64d2fd46c836a06233681665,64dc7f44e8f6a3b22cc4938a,,,,,,,decisionTrl,resources/DG.BMP,resources/DY.BMP,WildCard_Ex,-0.233333333,0.015555556,1,0,0,0.7449,optionLeft,5,14465,6,40,0,40,0,1,,,,,,,,,,,,,,,,,,,,,,,,,,,,,,,,,,,,,,,
,,,,,,,,2023-08-16_08h48.26.326,HF_wild_card,2022.2.4,Win32,60.62443165,579e431a81f331000139d5d0,64d2fd46c836a06233681665,64dc7f44e8f6a3b22cc4938a,,,,,,,decisionTrl,resources/DY.BMP,resources/DB.BMP,Door1,0.311111111,0.027777778,1,0,0,0.9316,optionRight,30,14495,6,41,0,41,0,1,,,,,,,,,,,,,,,,,,,,,,,,,,,,,,,,,,,,,,,
,,,,,,,,2023-08-16_08h48.26.326,HF_wild_card,2022.2.4,Win32,60.62443165,579e431a81f331000139d5d0,64d2fd46c836a06233681665,64dc7f44e8f6a3b22cc4938a,,,,,,,decisionTrl,resources/DB.BMP,resources/DY.BMP,Door1,-0.296666667,0.047777778,1,0,0,1.2967,optionLeft,30,14525,6,42,0,42,0,1,,,,,,,,,,,,,,,,,,,,,,,,,,,,,,,,,,,,,,,
,,,,,,,,2023-08-16_08h48.26.326,HF_wild_card,2022.2.4,Win32,60.62443165,579e431a81f331000139d5d0,64d2fd46c836a06233681665,64dc7f44e8f6a3b22cc4938a,,,,,,,decisionTrl,resources/DP.BMP,resources/DR.BMP,Door4,0.415555556,-0.001111111,1,0,0,0.8973,optionRight,80,14605,6,43,0,43,0,1,,,,,,,,,,,,,,,,,,,,,,,,,,,,,,,,,,,,,,,
,,,,,,,,2023-08-16_08h48.26.326,HF_wild_card,2022.2.4,Win32,60.62443165,579e431a81f331000139d5d0,64d2fd46c836a06233681665,64dc7f44e8f6a3b22cc4938a,,,,,,,,,,,,,,,,,,,,,,,,,,5,0,5,0,1,,,,,,,,,,,,,,,,,,,,,,,,,,,,,,,,,,
,,,,,,,,2023-08-16_08h48.26.326,HF_wild_card,2022.2.4,Win32,60.62443165,579e431a81f331000139d5d0,64d2fd46c836a06233681665,64dc7f44e8f6a3b22cc4938a,,,,,,,decisionTrl,resources/DP.BMP,resources/DR.BMP,Door4,0.335555556,-0.083333333,1,0,0,0.7828,optionRight,60,14665,7,0,0,0,0,1,,,,,,,,,,,,,,,,,,,,,,,,,,,,,,,,,,,,,,,
,,,,,,,,2023-08-16_08h48.26.326,HF_wild_card,2022.2.4,Win32,60.62443165,579e431a81f331000139d5d0,64d2fd46c836a06233681665,64dc7f44e8f6a3b22cc4938a,,,,,,,decisionTrl,resources/DB.BMP,resources/DY.BMP,Door1,-0.382222222,-0.003333333,1,0,0,0.866,optionLeft,30,14695,7,1,0,1,0,1,,,,,,,,,,,,,,,,,,,,,,,,,,,,,,,,,,,,,,,
,,,,,,,,2023-08-16_08h48.26.326,HF_wild_card,2022.2.4,Win32,60.62443165,579e431a81f331000139d5d0,64d2fd46c836a06233681665,64dc7f44e8f6a3b22cc4938a,,,,,,,ctch,resources/DB.BMP,resources/DR.BMP,Door4,0.411111111,-0.002222222,1,0,0,0.7323,optionRight,80,14775,7,2,0,2,0,1,,,,,,,,,,,,,,,,,,,,,,,,,,,,,,,,,,,,,,,
,,,,,,,,2023-08-16_08h48.26.326,HF_wild_card,2022.2.4,Win32,60.62443165,579e431a81f331000139d5d0,64d2fd46c836a06233681665,64dc7f44e8f6a3b22cc4938a,,,,,,,ctch,resources/DY.BMP,resources/DP.BMP,Door3,0.377777778,-0.013333333,1,0,0,0.9315,optionRight,70,14845,7,3,0,3,0,1,,,,,,,,,,,,,,,,,,,,,,,,,,,,,,,,,,,,,,,
,,,,,,,,2023-08-16_08h48.26.326,HF_wild_card,2022.2.4,Win32,60.62443165,579e431a81f331000139d5d0,64d2fd46c836a06233681665,64dc7f44e8f6a3b22cc4938a,,,,,,,decisionTrl,resources/DY.BMP,resources/DB.BMP,Door1,0.353333333,0.023333333,1,0,0,0.7988,optionRight,30,14875,7,4,0,4,0,1,,,,,,,,,,,,,,,,,,,,,,,,,,,,,,,,,,,,,,,
,,,,,,,,2023-08-16_08h48.26.326,HF_wild_card,2022.2.4,Win32,60.62443165,579e431a81f331000139d5d0,64d2fd46c836a06233681665,64dc7f44e8f6a3b22cc4938a,,,,,,,decisionTrl,resources/DB.BMP,resources/DY.BMP,Door1,-0.342222222,0.033333333,1,0,0,0.8315,optionLeft,30,14905,7,5,0,5,0,1,,,,,,,,,,,,,,,,,,,,,,,,,,,,,,,,,,,,,,,
,,,,,,,,2023-08-16_08h48.26.326,HF_wild_card,2022.2.4,Win32,60.62443165,579e431a81f331000139d5d0,64d2fd46c836a06233681665,64dc7f44e8f6a3b22cc4938a,,,,,,,ctch,resources/DP.BMP,resources/DY.BMP,Door3,-0.343333333,0.028888889,1,0,0,0.9827,optionLeft,70,14975,7,6,0,6,0,1,,,,,,,,,,,,,,,,,,,,,,,,,,,,,,,,,,,,,,,
,,,,,,,,2023-08-16_08h48.26.326,HF_wild_card,2022.2.4,Win32,60.62443165,579e431a81f331000139d5d0,64d2fd46c836a06233681665,64dc7f44e8f6a3b22cc4938a,,,,,,,decisionTrl,resources/DY.BMP,resources/DB.BMP,Door1,0.497777778,0.051111111,1,0,0,0.8159,optionRight,30,15005,7,7,0,7,0,1,,,,,,,,,,,,,,,,,,,,,,,,,,,,,,,,,,,,,,,
,,,,,,,,2023-08-16_08h48.26.326,HF_wild_card,2022.2.4,Win32,60.62443165,579e431a81f331000139d5d0,64d2fd46c836a06233681665,64dc7f44e8f6a3b22cc4938a,,,,,,,decisionTrl,resources/DR.BMP,resources/DP.BMP,Door4,-0.347777778,0.002222222,1,0,0,0.9982,optionLeft,80,15085,7,8,0,8,0,1,,,,,,,,,,,,,,,,,,,,,,,,,,,,,,,,,,,,,,,
,,,,,,,,2023-08-16_08h48.26.326,HF_wild_card,2022.2.4,Win32,60.62443165,579e431a81f331000139d5d0,64d2fd46c836a06233681665,64dc7f44e8f6a3b22cc4938a,,,,,,,ctch,resources/DP.BMP,resources/DY.BMP,Door3,-0.366666667,0.023333333,1,0,0,0.7969,optionLeft,70,15155,7,9,0,9,0,1,,,,,,,,,,,,,,,,,,,,,,,,,,,,,,,,,,,,,,,
,,,,,,,,2023-08-16_08h48.26.326,HF_wild_card,2022.2.4,Win32,60.62443165,579e431a81f331000139d5d0,64d2fd46c836a06233681665,64dc7f44e8f6a3b22cc4938a,,,,,,,decisionTrl,resources/DB.BMP,resources/DY.BMP,Door1,-0.336666667,0.034444444,1,0,0,0.7153,optionLeft,30,15185,7,10,0,10,0,1,,,,,,,,,,,,,,,,,,,,,,,,,,,,,,,,,,,,,,,
,,,,,,,,2023-08-16_08h48.26.326,HF_wild_card,2022.2.4,Win32,60.62443165,579e431a81f331000139d5d0,64d2fd46c836a06233681665,64dc7f44e8f6a3b22cc4938a,,,,,,,ctch,resources/DR.BMP,resources/DB.BMP,Door4,-0.375555556,0.038888889,1,0,0,0.7315,optionLeft,80,15265,7,11,0,11,0,1,,,,,,,,,,,,,,,,,,,,,,,,,,,,,,,,,,,,,,,
,,,,,,,,2023-08-16_08h48.26.326,HF_wild_card,2022.2.4,Win32,60.62443165,579e431a81f331000139d5d0,64d2fd46c836a06233681665,64dc7f44e8f6a3b22cc4938a,,,,,,,decisionTrl,resources/DR.BMP,resources/DP.BMP,Door4,-0.33,0.028888889,1,0,0,1.1984,optionLeft,80,15345,7,12,0,12,0,1,,,,,,,,,,,,,,,,,,,,,,,,,,,,,,,,,,,,,,,
,,,,,,,,2023-08-16_08h48.26.326,HF_wild_card,2022.2.4,Win32,60.62443165,579e431a81f331000139d5d0,64d2fd46c836a06233681665,64dc7f44e8f6a3b22cc4938a,,,,,,,decisionTrl,resources/DP.BMP,resources/DR.BMP,Door4,0.385555556,0.05,1,0,0,1.0318,optionRight,60,15405,7,13,0,13,0,1,,,,,,,,,,,,,,,,,,,,,,,,,,,,,,,,,,,,,,,
,,,,,,,,2023-08-16_08h48.26.326,HF_wild_card,2022.2.4,Win32,60.62443165,579e431a81f331000139d5d0,64d2fd46c836a06233681665,64dc7f44e8f6a3b22cc4938a,,,,,,,decisionTrl,resources/DR.BMP,resources/DP.BMP,Door4,-0.312222222,0.052222222,1,0,0,0.6809,optionLeft,80,15485,7,14,0,14,0,1,,,,,,,,,,,,,,,,,,,,,,,,,,,,,,,,,,,,,,,
,,,,,,,,2023-08-16_08h48.26.326,HF_wild_card,2022.2.4,Win32,60.62443165,579e431a81f331000139d5d0,64d2fd46c836a06233681665,64dc7f44e8f6a3b22cc4938a,,,,,,,ctch,resources/DP.BMP,resources/DY.BMP,Door3,-0.343333333,0.035555556,1,0,0,0.7331,optionLeft,70,15555,7,15,0,15,0,1,,,,,,,,,,,,,,,,,,,,,,,,,,,,,,,,,,,,,,,
,,,,,,,,2023-08-16_08h48.26.326,HF_wild_card,2022.2.4,Win32,60.62443165,579e431a81f331000139d5d0,64d2fd46c836a06233681665,64dc7f44e8f6a3b22cc4938a,,,,,,,decisionTrl,resources/DP.BMP,resources/DR.BMP,Door4,0.38,0.007777778,1,0,0,1.0834,optionRight,60,15615,7,16,0,16,0,1,,,,,,,,,,,,,,,,,,,,,,,,,,,,,,,,,,,,,,,
,,,,,,,,2023-08-16_08h48.26.326,HF_wild_card,2022.2.4,Win32,60.62443165,579e431a81f331000139d5d0,64d2fd46c836a06233681665,64dc7f44e8f6a3b22cc4938a,,,,,,,decisionTrl,resources/DP.BMP,resources/DR.BMP,Door4,0.45,0.015555556,1,0,0,1.0662,optionRight,80,15695,7,17,0,17,0,1,,,,,,,,,,,,,,,,,,,,,,,,,,,,,,,,,,,,,,,
,,,,,,,,2023-08-16_08h48.26.326,HF_wild_card,2022.2.4,Win32,60.62443165,579e431a81f331000139d5d0,64d2fd46c836a06233681665,64dc7f44e8f6a3b22cc4938a,,,,,,,ctch,resources/DR.BMP,resources/DB.BMP,Door4,-0.311111111,0.032222222,1,0,0,0.7145,optionLeft,80,15775,7,18,0,18,0,1,,,,,,,,,,,,,,,,,,,,,,,,,,,,,,,,,,,,,,,
,,,,,,,,2023-08-16_08h48.26.326,HF_wild_card,2022.2.4,Win32,60.62443165,579e431a81f331000139d5d0,64d2fd46c836a06233681665,64dc7f44e8f6a3b22cc4938a,,,,,,,ctch,resources/DY.BMP,resources/DP.BMP,Door3,0.362222222,-0.001111111,1,0,0,0.8657,optionRight,70,15845,7,19,0,19,0,1,,,,,,,,,,,,,,,,,,,,,,,,,,,,,,,,,,,,,,,
,,,,,,,,2023-08-16_08h48.26.326,HF_wild_card,2022.2.4,Win32,60.62443165,579e431a81f331000139d5d0,64d2fd46c836a06233681665,64dc7f44e8f6a3b22cc4938a,,,,,,,decisionTrl,resources/DP.BMP,resources/DR.BMP,Door4,0.481111111,0,1,0,0,0.8159,optionRight,80,15925,7,20,0,20,0,1,,,,,,,,,,,,,,,,,,,,,,,,,,,,,,,,,,,,,,,
,,,,,,,,2023-08-16_08h48.26.326,HF_wild_card,2022.2.4,Win32,60.62443165,579e431a81f331000139d5d0,64d2fd46c836a06233681665,64dc7f44e8f6a3b22cc4938a,,,,,,,decisionTrl,resources/DR.BMP,resources/DP.BMP,Door4,-0.311111111,0.036666667,1,0,0,0.6318,optionLeft,80,16005,7,21,0,21,0,1,,,,,,,,,,,,,,,,,,,,,,,,,,,,,,,,,,,,,,,
,,,,,,,,2023-08-16_08h48.26.326,HF_wild_card,2022.2.4,Win32,60.62443165,579e431a81f331000139d5d0,64d2fd46c836a06233681665,64dc7f44e8f6a3b22cc4938a,,,,,,,decisionTrl,resources/DY.BMP,resources/DB.BMP,Door1,0.357777778,-0.005555556,1,0,0,0.6316,optionRight,30,16035,7,22,0,22,0,1,,,,,,,,,,,,,,,,,,,,,,,,,,,,,,,,,,,,,,,
,,,,,,,,2023-08-16_08h48.26.326,HF_wild_card,2022.2.4,Win32,60.62443165,579e431a81f331000139d5d0,64d2fd46c836a06233681665,64dc7f44e8f6a3b22cc4938a,,,,,,,decisionTrl,resources/DP.BMP,resources/DR.BMP,Door4,0.346666667,0.034444444,1,0,0,0.8324,optionRight,60,16095,7,23,0,23,0,1,,,,,,,,,,,,,,,,,,,,,,,,,,,,,,,,,,,,,,,
,,,,,,,,2023-08-16_08h48.26.326,HF_wild_card,2022.2.4,Win32,60.62443165,579e431a81f331000139d5d0,64d2fd46c836a06233681665,64dc7f44e8f6a3b22cc4938a,,,,,,,ctch,resources/DR.BMP,resources/DB.BMP,Door4,-0.325555556,0.042222222,1,0,0,0.5998,optionLeft,80,16175,7,24,0,24,0,1,,,,,,,,,,,,,,,,,,,,,,,,,,,,,,,,,,,,,,,
,,,,,,,,2023-08-16_08h48.26.326,HF_wild_card,2022.2.4,Win32,60.62443165,579e431a81f331000139d5d0,64d2fd46c836a06233681665,64dc7f44e8f6a3b22cc4938a,,,,,,,decisionTrl,resources/DY.BMP,resources/DB.BMP,Door1,0.332222222,0.016666667,1,0,0,0.6493,optionRight,30,16205,7,25,0,25,0,1,,,,,,,,,,,,,,,,,,,,,,,,,,,,,,,,,,,,,,,
,,,,,,,,2023-08-16_08h48.26.326,HF_wild_card,2022.2.4,Win32,60.62443165,579e431a81f331000139d5d0,64d2fd46c836a06233681665,64dc7f44e8f6a3b22cc4938a,,,,,,,decisionTrl,resources/DR.BMP,resources/DP.BMP,Door4,-0.384444444,0.011111111,1,0,0,0.8823,optionLeft,80,16285,7,26,0,26,0,1,,,,,,,,,,,,,,,,,,,,,,,,,,,,,,,,,,,,,,,
,,,,,,,,2023-08-16_08h48.26.326,HF_wild_card,2022.2.4,Win32,60.62443165,579e431a81f331000139d5d0,64d2fd46c836a06233681665,64dc7f44e8f6a3b22cc4938a,,,,,,,ctch,resources/DY.BMP,resources/DP.BMP,Door3,0.332222222,0.013333333,1,0,0,0.6327,optionRight,70,16355,7,27,0,27,0,1,,,,,,,,,,,,,,,,,,,,,,,,,,,,,,,,,,,,,,,
,,,,,,,,2023-08-16_08h48.26.326,HF_wild_card,2022.2.4,Win32,60.62443165,579e431a81f331000139d5d0,64d2fd46c836a06233681665,64dc7f44e8f6a3b22cc4938a,,,,,,,ctch,resources/DB.BMP,resources/DR.BMP,Door4,0.414444444,0.003333333,1,0,0,0.8161,optionRight,80,16435,7,28,0,28,0,1,,,,,,,,,,,,,,,,,,,,,,,,,,,,,,,,,,,,,,,
,,,,,,,,2023-08-16_08h48.26.326,HF_wild_card,2022.2.4,Win32,60.62443165,579e431a81f331000139d5d0,64d2fd46c836a06233681665,64dc7f44e8f6a3b22cc4938a,,,,,,,decisionTrl,resources/DY.BMP,resources/DB.BMP,Door1,0.322222222,0.021111111,1,0,0,0.9814,optionRight,30,16465,7,29,0,29,0,1,,,,,,,,,,,,,,,,,,,,,,,,,,,,,,,,,,,,,,,
,,,,,,,,2023-08-16_08h48.26.326,HF_wild_card,2022.2.4,Win32,60.62443165,579e431a81f331000139d5d0,64d2fd46c836a06233681665,64dc7f44e8f6a3b22cc4938a,,,,,,,decisionTrl,resources/DB.BMP,resources/DY.BMP,Door1,-0.283333333,0.013333333,1,0,0,0.899,optionLeft,30,16495,7,30,0,30,0,1,,,,,,,,,,,,,,,,,,,,,,,,,,,,,,,,,,,,,,,
,,,,,,,,2023-08-16_08h48.26.326,HF_wild_card,2022.2.4,Win32,60.62443165,579e431a81f331000139d5d0,64d2fd46c836a06233681665,64dc7f44e8f6a3b22cc4938a,,,,,,,decisionTrl,resources/DB.BMP,resources/DY.BMP,Door1,-0.255555556,-0.014444444,1,0,0,1.0151,optionLeft,30,16525,7,31,0,31,0,1,,,,,,,,,,,,,,,,,,,,,,,,,,,,,,,,,,,,,,,
,,,,,,,,2023-08-16_08h48.26.326,HF_wild_card,2022.2.4,Win32,60.62443165,579e431a81f331000139d5d0,64d2fd46c836a06233681665,64dc7f44e8f6a3b22cc4938a,,,,,,,decisionTrl,resources/DB.BMP,resources/DY.BMP,Door1,-0.277777778,-0.013333333,1,0,0,0.7992,optionLeft,30,16555,7,32,0,32,0,1,,,,,,,,,,,,,,,,,,,,,,,,,,,,,,,,,,,,,,,
,,,,,,,,2023-08-16_08h48.26.326,HF_wild_card,2022.2.4,Win32,60.62443165,579e431a81f331000139d5d0,64d2fd46c836a06233681665,64dc7f44e8f6a3b22cc4938a,,,,,,,decisionTrl,resources/DY.BMP,resources/DB.BMP,Door1,0.371111111,-0.001111111,1,0,0,0.6473,optionRight,30,16585,7,33,0,33,0,1,,,,,,,,,,,,,,,,,,,,,,,,,,,,,,,,,,,,,,,
,,,,,,,,2023-08-16_08h48.26.326,HF_wild_card,2022.2.4,Win32,60.62443165,579e431a81f331000139d5d0,64d2fd46c836a06233681665,64dc7f44e8f6a3b22cc4938a,,,,,,,ctch,resources/DB.BMP,resources/DR.BMP,Door4,0.458888889,-0.013333333,1,0,0,0.6656,optionRight,80,16665,7,34,0,34,0,1,,,,,,,,,,,,,,,,,,,,,,,,,,,,,,,,,,,,,,,
,,,,,,,,2023-08-16_08h48.26.326,HF_wild_card,2022.2.4,Win32,60.62443165,579e431a81f331000139d5d0,64d2fd46c836a06233681665,64dc7f44e8f6a3b22cc4938a,,,,,,,decisionTrl,resources/DR.BMP,resources/DP.BMP,Door3,0.41,0,1,0,0,1.1329,optionRight,70,16735,7,35,0,35,0,1,,,,,,,,,,,,,,,,,,,,,,,,,,,,,,,,,,,,,,,
,,,,,,,,2023-08-16_08h48.26.326,HF_wild_card,2022.2.4,Win32,60.62443165,579e431a81f331000139d5d0,64d2fd46c836a06233681665,64dc7f44e8f6a3b22cc4938a,,,,,,,,,,,,,,,,,,,,,,,,,,6,0,6,0,1,,,,,,,,,,,,,,,,,,,,,,,,,,,,,,,,,,
,,,,,,,,2023-08-16_08h48.26.326,HF_wild_card,2022.2.4,Win32,60.62443165,579e431a81f331000139d5d0,64d2fd46c836a06233681665,64dc7f44e8f6a3b22cc4938a,,,,,,,,,,,,,,,,,,,,,,,,,,,,,,,4,,,,,,,,,,,,,,,,,,,,,,,,,,,,,,,,,
,,,,,,,,2023-08-16_08h48.26.326,HF_wild_card,2022.2.4,Win32,60.62443165,579e431a81f331000139d5d0,64d2fd46c836a06233681665,64dc7f44e8f6a3b22cc4938a,,,,,,,,,,,,,,,,,,,,,,,,,,,,,,,,,,,,,,,,,,,,,,,,,,,,,,,,,,,,,,,,
,,,,,,,,2023-08-16_08h48.26.326,HF_wild_card,2022.2.4,Win32,60.62443165,579e431a81f331000139d5d0,64d2fd46c836a06233681665,64dc7f44e8f6a3b22cc4938a,,,,,,,,,,,,,,,,,,,,,,,,,,,,,,,,45,Door1,resources/DB.BMP,0,0,0,0,1,,,,,,,,,,,,,,,,,,,,,,,,,
,,,,,,,,2023-08-16_08h48.26.326,HF_wild_card,2022.2.4,Win32,60.62443165,579e431a81f331000139d5d0,64d2fd46c836a06233681665,64dc7f44e8f6a3b22cc4938a,,,,,,,,,,,,,,,,,,,,,,,,,,,,,,,,95,WC_extreme,resources/DG.BMP,1,0,1,0,1,,,,,,,,,,,,,,,,,,,,,,,,,
,,,,,,,,2023-08-16_08h48.26.326,HF_wild_card,2022.2.4,Win32,60.62443165,579e431a81f331000139d5d0,64d2fd46c836a06233681665,64dc7f44e8f6a3b22cc4938a,,,,,,,,,,,,,,,,,,,,,,,,,,,,,,,,20,Door2,resources/DY.BMP,2,0,2,0,1,,,,,,,,,,,,,,,,,,,,,,,,,
,,,,,,,,2023-08-16_08h48.26.326,HF_wild_card,2022.2.4,Win32,60.62443165,579e431a81f331000139d5d0,64d2fd46c836a06233681665,64dc7f44e8f6a3b22cc4938a,,,,,,,,,,,,,,,,,,,,,,,,,,,,,,,,80,Door4,resources/DR.BMP,3,0,3,0,1,,,,,,,,,,,,,,,,,,,,,,,,,
,,,,,,,,2023-08-16_08h48.26.326,HF_wild_card,2022.2.4,Win32,60.62443165,579e431a81f331000139d5d0,64d2fd46c836a06233681665,64dc7f44e8f6a3b22cc4938a,,,,,,,,,,,,,,,,,,,,,,,,,,,,,,,,45,WC_nonExtreme,resources/DBN.BMP,4,0,4,0,1,,,,,,,,,,,,,,,,,,,,,,,,,
,,,,,,,,2023-08-16_08h48.26.326,HF_wild_card,2022.2.4,Win32,60.62443165,579e431a81f331000139d5d0,64d2fd46c836a06233681665,64dc7f44e8f6a3b22cc4938a,,,,,,,,,,,,,,,,,,,,,,,,,,,,,,,,70,Door3,resources/DP.BMP,5,0,5,0,1,,,,,,,,,,,,,,,,,,,,,,,,,
,,,,,,,,2023-08-16_08h48.26.326,HF_wild_card,2022.2.4,Win32,60.62443165,579e431a81f331000139d5d0,64d2fd46c836a06233681665,64dc7f44e8f6a3b22cc4938a,,,,,,,,,,,,,,,,,,,,,,,,,,,,,,,,,,,,,,,,,,,,,,,,,,,,,,,,,,,,,,,,
,,,,,,,,2023-08-16_08h48.26.326,HF_wild_card,2022.2.4,Win32,60.62443165,579e431a81f331000139d5d0,64d2fd46c836a06233681665,64dc7f44e8f6a3b22cc4938a,,,,,,,,,,,,,,,,,,,,,,,,,,,,,,,,,,,,,,,,0,0,0,0,1,,,,,,,,,,,,,,,,,,,,
,,,,,,,,2023-08-16_08h48.26.326,HF_wild_card,2022.2.4,Win32,60.62443165,579e431a81f331000139d5d0,64d2fd46c836a06233681665,64dc7f44e8f6a3b22cc4938a,,,,,,,,,,,,,,,,,,,,,,,,,,,,,,,,,,,,,,,,1,0,1,0,1,,,,,,,,,,,,,,,,,,,,
,,,,,,,,2023-08-16_08h48.26.326,HF_wild_card,2022.2.4,Win32,60.62443165,579e431a81f331000139d5d0,64d2fd46c836a06233681665,64dc7f44e8f6a3b22cc4938a,,,,,,,,,,,,,,,,,,,,,,,,,,,,,,,,,,,,,,,,,,,,,-0.259757739,-0.430013459,1,0,0,yes,50%,50%,WC_extreme,resources/DG.BMP,0,0,0,0,1,,,,,
