Condition,Low fixed image (Door1),Low risky image (Door2),High fixed image (Door3),High risky image (Door4),NonExtreme Wild Card 1,NonExtreme Wild Card 2,,date,expName,psychopyVersion,OS,frameRate,PROLIFIC_PID,STUDY_ID,SESSION_ID,mouse_2.x,mouse_2.y,mouse_2.leftButton,mouse_2.midButton,mouse_2.rightButton,mouse_2.clicked_name,Trial Type,Left Option Image,Right Option Image,Chosen Door,mouse.x,mouse.y,mouse.leftButton,mouse.midButton,mouse.rightButton,mouse.time,mouse.clicked_name,Feedback,Cumulative Reward,Block,trial.thisRepN,trial.thisTrialN,trial.thisN,trial.thisIndex,trial.ran,blocks.thisRepN,blocks.thisTrialN,blocks.thisN,blocks.thisIndex,blocks.ran,Money conversion,First Outcome Reported,Shown Door (First Outcome),Displayed Image (First Outcome),outcomes.thisRepN,outcomes.thisTrialN,outcomes.thisN,outcomes.thisIndex,outcomes.ran,judgments.thisRepN,judgments.thisTrialN,judgments.thisN,judgments.thisIndex,judgments.ran,freqMouse.x,freqMouse.y,freqMouse.leftButton,freqMouse.midButton,freqMouse.rightButton,freqMouse.clicked_name,FQJ for first outcome,FQJ for second outcome,Shown Door,Displayed Image,trials.thisRepN,trials.thisTrialN,trials.thisN,trials.thisIndex,trials.ran,judgBlock.thisRepN,judgBlock.thisTrialN,judgBlock.thisN,judgBlock.thisIndex,judgBlock.ran
2,resources/DBN.BMP,resources/DB.BMP,resources/DY.BMP,resources/DG.BMP,resources/DR.BMP,resources/DP.BMP,,2023-08-16_08h33.46.194,HF_wild_card,2022.2.4,Linux x86_64,59.99520038,5a75e9c119042000015569af,64d2fd46c836a06233681665,64dc7bc93caf00f7e32eb0eb,,,,,,,,,,,,,,,,,,,,,,,,,,,,,,,,,,,,,,,,,,,,,,,,,,,,,,,,,,,,,,,,
,,,,,,,,2023-08-16_08h33.46.194,HF_wild_card,2022.2.4,Linux x86_64,59.99520038,5a75e9c119042000015569af,64d2fd46c836a06233681665,64dc7bc93caf00f7e32eb0eb,-0.000639103,-0.425502283,1,0,0,agree,,,,,,,,,,,,,,,,,,,,,,,,,,,,,,,,,,,,,,,,,,,,,,,,,,,,,,,,,,
,,,,,,,,2023-08-16_08h33.46.194,HF_wild_card,2022.2.4,Linux x86_64,59.99520038,5a75e9c119042000015569af,64d2fd46c836a06233681665,64dc7bc93caf00f7e32eb0eb,,,,,,,,,,,,,,,,,,,,,,,,,,,,,,,,,,,,,,,,,,,,,,,,,,,,,,,,,,,,,,,,
,,,,,,,,2023-08-16_08h33.46.194,HF_wild_card,2022.2.4,Linux x86_64,59.99520038,5a75e9c119042000015569af,64d2fd46c836a06233681665,64dc7bc93caf00f7e32eb0eb,,,,,,,decisionTrl,resources/DY.BMP,resources/DP.BMP,WildCard_NonEx,0.368769752,-0.057759285,1,0,0,3.7057,optionRight,55,55,1,0,0,0,0,1,,,,,,,,,,,,,,,,,,,,,,,,,,,,,,,,,,,,,,,
,,,,,,,,2023-08-16_08h33.46.194,HF_wild_card,2022.2.4,Linux x86_64,59.99520038,5a75e9c119042000015569af,64d2fd46c836a06233681665,64dc7bc93caf00f7e32eb0eb,,,,,,,decisionTrl,resources/DB.BMP,resources/DBN.BMP,Door2,-0.360327085,-0.09233948,1,0,0,5.0924,optionLeft,40,95,1,1,0,1,0,1,,,,,,,,,,,,,,,,,,,,,,,,,,,,,,,,,,,,,,,
,,,,,,,,2023-08-16_08h33.46.194,HF_wild_card,2022.2.4,Linux x86_64,59.99520038,5a75e9c119042000015569af,64d2fd46c836a06233681665,64dc7bc93caf00f7e32eb0eb,,,,,,,sngl,resources/Empty.png,resources/DP.BMP,WildCard_NonEx,0.494108836,-0.0009186,1,0,0,1.5146,optionRight,55,150,1,2,0,2,0,1,,,,,,,,,,,,,,,,,,,,,,,,,,,,,,,,,,,,,,,
,,,,,,,,2023-08-16_08h33.46.194,HF_wild_card,2022.2.4,Linux x86_64,59.99520038,5a75e9c119042000015569af,64d2fd46c836a06233681665,64dc7bc93caf00f7e32eb0eb,,,,,,,decisionTrl,resources/DG.BMP,resources/DY.BMP,Door4,-0.312439071,-0.041055291,1,0,0,3.1482,optionLeft,60,210,1,3,0,3,0,1,,,,,,,,,,,,,,,,,,,,,,,,,,,,,,,,,,,,,,,
,,,,,,,,2023-08-16_08h33.46.194,HF_wild_card,2022.2.4,Linux x86_64,59.99520038,5a75e9c119042000015569af,64d2fd46c836a06233681665,64dc7bc93caf00f7e32eb0eb,,,,,,,decisionTrl,resources/DY.BMP,resources/DG.BMP,Door4,0.506195633,0.007192258,1,0,0,2.6091,optionRight,60,270,1,4,0,4,0,1,,,,,,,,,,,,,,,,,,,,,,,,,,,,,,,,,,,,,,,
,,,,,,,,2023-08-16_08h33.46.194,HF_wild_card,2022.2.4,Linux x86_64,59.99520038,5a75e9c119042000015569af,64d2fd46c836a06233681665,64dc7bc93caf00f7e32eb0eb,,,,,,,decisionTrl,resources/DY.BMP,resources/DG.BMP,Door4,0.387003722,-0.041211835,1,0,0,1.5643,optionRight,60,330,1,5,0,5,0,1,,,,,,,,,,,,,,,,,,,,,,,,,,,,,,,,,,,,,,,
,,,,,,,,2023-08-16_08h33.46.194,HF_wild_card,2022.2.4,Linux x86_64,59.99520038,5a75e9c119042000015569af,64d2fd46c836a06233681665,64dc7bc93caf00f7e32eb0eb,,,,,,,decisionTrl,resources/DG.BMP,resources/DY.BMP,Door4,-0.288310086,-0.028672854,1,0,0,1.3736,optionLeft,80,410,1,6,0,6,0,1,,,,,,,,,,,,,,,,,,,,,,,,,,,,,,,,,,,,,,,
,,,,,,,,2023-08-16_08h33.46.194,HF_wild_card,2022.2.4,Linux x86_64,59.99520038,5a75e9c119042000015569af,64d2fd46c836a06233681665,64dc7bc93caf00f7e32eb0eb,,,,,,,ctch,resources/DY.BMP,resources/DB.BMP,Door3,-0.336992652,-0.035964507,1,0,0,1.9129,optionLeft,70,480,1,7,0,7,0,1,,,,,,,,,,,,,,,,,,,,,,,,,,,,,,,,,,,,,,,
,,,,,,,,2023-08-16_08h33.46.194,HF_wild_card,2022.2.4,Linux x86_64,59.99520038,5a75e9c119042000015569af,64d2fd46c836a06233681665,64dc7bc93caf00f7e32eb0eb,,,,,,,ctch,resources/DBN.BMP,resources/DG.BMP,Door4,0.407297064,0.000158451,1,0,0,1.5711,optionRight,80,560,1,8,0,8,0,1,,,,,,,,,,,,,,,,,,,,,,,,,,,,,,,,,,,,,,,
,,,,,,,,2023-08-16_08h33.46.194,HF_wild_card,2022.2.4,Linux x86_64,59.99520038,5a75e9c119042000015569af,64d2fd46c836a06233681665,64dc7bc93caf00f7e32eb0eb,,,,,,,decisionTrl,resources/DG.BMP,resources/DP.BMP,Door4,-0.276091046,-0.022242687,1,0,0,1.1517,optionLeft,80,640,1,9,0,9,0,1,,,,,,,,,,,,,,,,,,,,,,,,,,,,,,,,,,,,,,,
,,,,,,,,2023-08-16_08h33.46.194,HF_wild_card,2022.2.4,Linux x86_64,59.99520038,5a75e9c119042000015569af,64d2fd46c836a06233681665,64dc7bc93caf00f7e32eb0eb,,,,,,,decisionTrl,resources/DP.BMP,resources/DG.BMP,Door4,0.357437134,0.003483843,1,0,0,0.8951,optionRight,60,700,1,10,0,10,0,1,,,,,,,,,,,,,,,,,,,,,,,,,,,,,,,,,,,,,,,
,,,,,,,,2023-08-16_08h33.46.194,HF_wild_card,2022.2.4,Linux x86_64,59.99520038,5a75e9c119042000015569af,64d2fd46c836a06233681665,64dc7bc93caf00f7e32eb0eb,,,,,,,sngl,resources/DG.BMP,resources/Empty.png,Door4,-0.317350211,-0.027515941,1,0,0,0.9983,optionLeft,80,780,1,11,0,11,0,1,,,,,,,,,,,,,,,,,,,,,,,,,,,,,,,,,,,,,,,
,,,,,,,,2023-08-16_08h33.46.194,HF_wild_card,2022.2.4,Linux x86_64,59.99520038,5a75e9c119042000015569af,64d2fd46c836a06233681665,64dc7bc93caf00f7e32eb0eb,,,,,,,sngl,resources/Empty.png,resources/DG.BMP,Door4,0.454520331,-0.030289615,1,0,0,0.7115,optionRight,60,840,1,12,0,12,0,1,,,,,,,,,,,,,,,,,,,,,,,,,,,,,,,,,,,,,,,
,,,,,,,,2023-08-16_08h33.46.194,HF_wild_card,2022.2.4,Linux x86_64,59.99520038,5a75e9c119042000015569af,64d2fd46c836a06233681665,64dc7bc93caf00f7e32eb0eb,,,,,,,decisionTrl,resources/DP.BMP,resources/DB.BMP,Door2,0.416237301,-0.029176783,1,0,0,1.9976,optionRight,20,860,1,13,0,13,0,1,,,,,,,,,,,,,,,,,,,,,,,,,,,,,,,,,,,,,,,
,,,,,,,,2023-08-16_08h33.46.194,HF_wild_card,2022.2.4,Linux x86_64,59.99520038,5a75e9c119042000015569af,64d2fd46c836a06233681665,64dc7bc93caf00f7e32eb0eb,,,,,,,decisionTrl,resources/DP.BMP,resources/DY.BMP,WildCard_NonEx,-0.347980252,-0.050063698,1,0,0,1.2983,optionLeft,55,915,1,14,0,14,0,1,,,,,,,,,,,,,,,,,,,,,,,,,,,,,,,,,,,,,,,
,,,,,,,,2023-08-16_08h33.46.194,HF_wild_card,2022.2.4,Linux x86_64,59.99520038,5a75e9c119042000015569af,64d2fd46c836a06233681665,64dc7bc93caf00f7e32eb0eb,,,,,,,ctch,resources/DBN.BMP,resources/DG.BMP,Door4,0.414959802,-0.038195575,1,0,0,0.9719,optionRight,60,975,1,15,0,15,0,1,,,,,,,,,,,,,,,,,,,,,,,,,,,,,,,,,,,,,,,
,,,,,,,,2023-08-16_08h33.46.194,HF_wild_card,2022.2.4,Linux x86_64,59.99520038,5a75e9c119042000015569af,64d2fd46c836a06233681665,64dc7bc93caf00f7e32eb0eb,,,,,,,decisionTrl,resources/DP.BMP,resources/DBN.BMP,WildCard_NonEx,-0.352213824,-0.045570939,1,0,0,1.4845,optionLeft,45,1020,1,16,0,16,0,1,,,,,,,,,,,,,,,,,,,,,,,,,,,,,,,,,,,,,,,
,,,,,,,,2023-08-16_08h33.46.194,HF_wild_card,2022.2.4,Linux x86_64,59.99520038,5a75e9c119042000015569af,64d2fd46c836a06233681665,64dc7bc93caf00f7e32eb0eb,,,,,,,ctch,resources/DB.BMP,resources/DY.BMP,Door2,-0.36234944,-0.053016451,1,0,0,1.975,optionLeft,20,1040,1,17,0,17,0,1,,,,,,,,,,,,,,,,,,,,,,,,,,,,,,,,,,,,,,,
,,,,,,,,2023-08-16_08h33.46.194,HF_wild_card,2022.2.4,Linux x86_64,59.99520038,5a75e9c119042000015569af,64d2fd46c836a06233681665,64dc7bc93caf00f7e32eb0eb,,,,,,,sngl,resources/DP.BMP,resources/Empty.png,WildCard_NonEx,-0.359034609,-0.067788195,1,0,0,0.7904,optionLeft,45,1085,1,18,0,18,0,1,,,,,,,,,,,,,,,,,,,,,,,,,,,,,,,,,,,,,,,
,,,,,,,,2023-08-16_08h33.46.194,HF_wild_card,2022.2.4,Linux x86_64,59.99520038,5a75e9c119042000015569af,64d2fd46c836a06233681665,64dc7bc93caf00f7e32eb0eb,,,,,,,decisionTrl,resources/DBN.BMP,resources/DB.BMP,Door2,0.353451764,-0.021291839,1,0,0,1.1181,optionRight,20,1105,1,19,0,19,0,1,,,,,,,,,,,,,,,,,,,,,,,,,,,,,,,,,,,,,,,
,,,,,,,,2023-08-16_08h33.46.194,HF_wild_card,2022.2.4,Linux x86_64,59.99520038,5a75e9c119042000015569af,64d2fd46c836a06233681665,64dc7bc93caf00f7e32eb0eb,,,,,,,sngl,resources/DBN.BMP,resources/Empty.png,Door1,-0.360984732,-0.04123656,1,0,0,0.8254,optionLeft,30,1135,1,20,0,20,0,1,,,,,,,,,,,,,,,,,,,,,,,,,,,,,,,,,,,,,,,
,,,,,,,,2023-08-16_08h33.46.194,HF_wild_card,2022.2.4,Linux x86_64,59.99520038,5a75e9c119042000015569af,64d2fd46c836a06233681665,64dc7bc93caf00f7e32eb0eb,,,,,,,decisionTrl,resources/DBN.BMP,resources/DB.BMP,Door2,0.305806054,-0.001772845,1,0,0,1.424,optionRight,20,1155,1,21,0,21,0,1,,,,,,,,,,,,,,,,,,,,,,,,,,,,,,,,,,,,,,,
,,,,,,,,2023-08-16_08h33.46.194,HF_wild_card,2022.2.4,Linux x86_64,59.99520038,5a75e9c119042000015569af,64d2fd46c836a06233681665,64dc7bc93caf00f7e32eb0eb,,,,,,,decisionTrl,resources/DB.BMP,resources/DBN.BMP,Door1,0.349898868,0.002764207,1,0,0,0.8656,optionRight,30,1185,1,22,0,22,0,1,,,,,,,,,,,,,,,,,,,,,,,,,,,,,,,,,,,,,,,
,,,,,,,,2023-08-16_08h33.46.194,HF_wild_card,2022.2.4,Linux x86_64,59.99520038,5a75e9c119042000015569af,64d2fd46c836a06233681665,64dc7bc93caf00f7e32eb0eb,,,,,,,ctch,resources/DG.BMP,resources/DBN.BMP,Door4,-0.485343686,-0.040864909,1,0,0,1.3117,optionLeft,80,1265,1,23,0,23,0,1,,,,,,,,,,,,,,,,,,,,,,,,,,,,,,,,,,,,,,,
,,,,,,,,2023-08-16_08h33.46.194,HF_wild_card,2022.2.4,Linux x86_64,59.99520038,5a75e9c119042000015569af,64d2fd46c836a06233681665,64dc7bc93caf00f7e32eb0eb,,,,,,,decisionTrl,resources/DB.BMP,resources/DBN.BMP,Door1,0.359552878,0.013643053,1,0,0,1.8893,optionRight,30,1295,1,24,0,24,0,1,,,,,,,,,,,,,,,,,,,,,,,,,,,,,,,,,,,,,,,
,,,,,,,,2023-08-16_08h33.46.194,HF_wild_card,2022.2.4,Linux x86_64,59.99520038,5a75e9c119042000015569af,64d2fd46c836a06233681665,64dc7bc93caf00f7e32eb0eb,,,,,,,decisionTrl,resources/DY.BMP,resources/DG.BMP,Door4,0.336240839,0.001025165,1,0,0,1.1313,optionRight,80,1375,1,25,0,25,0,1,,,,,,,,,,,,,,,,,,,,,,,,,,,,,,,,,,,,,,,
,,,,,,,,2023-08-16_08h33.46.194,HF_wild_card,2022.2.4,Linux x86_64,59.99520038,5a75e9c119042000015569af,64d2fd46c836a06233681665,64dc7bc93caf00f7e32eb0eb,,,,,,,decisionTrl,resources/DG.BMP,resources/DY.BMP,Door4,-0.30177565,-0.031164381,1,0,0,2.2965,optionLeft,80,1455,1,26,0,26,0,1,,,,,,,,,,,,,,,,,,,,,,,,,,,,,,,,,,,,,,,
,,,,,,,,2023-08-16_08h33.46.194,HF_wild_card,2022.2.4,Linux x86_64,59.99520038,5a75e9c119042000015569af,64d2fd46c836a06233681665,64dc7bc93caf00f7e32eb0eb,,,,,,,sngl,resources/Empty.png,resources/DB.BMP,Door2,0.428641849,-0.004388597,1,0,0,1.6338,optionRight,20,1475,1,27,0,27,0,1,,,,,,,,,,,,,,,,,,,,,,,,,,,,,,,,,,,,,,,
,,,,,,,,2023-08-16_08h33.46.194,HF_wild_card,2022.2.4,Linux x86_64,59.99520038,5a75e9c119042000015569af,64d2fd46c836a06233681665,64dc7bc93caf00f7e32eb0eb,,,,,,,decisionTrl,resources/DB.BMP,resources/DBN.BMP,Door1,0.314907357,-0.00120993,1,0,0,1.4431,optionRight,30,1505,1,28,0,28,0,1,,,,,,,,,,,,,,,,,,,,,,,,,,,,,,,,,,,,,,,
,,,,,,,,2023-08-16_08h33.46.194,HF_wild_card,2022.2.4,Linux x86_64,59.99520038,5a75e9c119042000015569af,64d2fd46c836a06233681665,64dc7bc93caf00f7e32eb0eb,,,,,,,decisionTrl,resources/DBN.BMP,resources/DB.BMP,Door1,-0.373370241,-0.035933106,1,0,0,1.8417,optionLeft,30,1535,1,29,0,29,0,1,,,,,,,,,,,,,,,,,,,,,,,,,,,,,,,,,,,,,,,
,,,,,,,,2023-08-16_08h33.46.194,HF_wild_card,2022.2.4,Linux x86_64,59.99520038,5a75e9c119042000015569af,64d2fd46c836a06233681665,64dc7bc93caf00f7e32eb0eb,,,,,,,sngl,resources/DY.BMP,resources/Empty.png,Door3,-0.300723323,-0.044001897,1,0,0,0.9628,optionLeft,70,1605,1,30,0,30,0,1,,,,,,,,,,,,,,,,,,,,,,,,,,,,,,,,,,,,,,,
,,,,,,,,2023-08-16_08h33.46.194,HF_wild_card,2022.2.4,Linux x86_64,59.99520038,5a75e9c119042000015569af,64d2fd46c836a06233681665,64dc7bc93caf00f7e32eb0eb,,,,,,,decisionTrl,resources/DG.BMP,resources/DY.BMP,Door4,-0.334172496,-0.03325427,1,0,0,1.0343,optionLeft,60,1665,1,31,0,31,0,1,,,,,,,,,,,,,,,,,,,,,,,,,,,,,,,,,,,,,,,
,,,,,,,,2023-08-16_08h33.46.194,HF_wild_card,2022.2.4,Linux x86_64,59.99520038,5a75e9c119042000015569af,64d2fd46c836a06233681665,64dc7bc93caf00f7e32eb0eb,,,,,,,ctch,resources/DB.BMP,resources/DY.BMP,Door3,0.366623349,-0.012456894,1,0,0,2.3744,optionRight,70,1735,1,32,0,32,0,1,,,,,,,,,,,,,,,,,,,,,,,,,,,,,,,,,,,,,,,
,,,,,,,,2023-08-16_08h33.46.194,HF_wild_card,2022.2.4,Linux x86_64,59.99520038,5a75e9c119042000015569af,64d2fd46c836a06233681665,64dc7bc93caf00f7e32eb0eb,,,,,,,sngl,resources/DP.BMP,resources/Empty.png,WildCard_NonEx,-0.277691382,-0.050281772,1,0,0,1.0517,optionLeft,55,1790,1,33,0,33,0,1,,,,,,,,,,,,,,,,,,,,,,,,,,,,,,,,,,,,,,,
,,,,,,,,2023-08-16_08h33.46.194,HF_wild_card,2022.2.4,Linux x86_64,59.99520038,5a75e9c119042000015569af,64d2fd46c836a06233681665,64dc7bc93caf00f7e32eb0eb,,,,,,,sngl,resources/Empty.png,resources/DBN.BMP,Door1,0.36373972,-0.008702985,1,0,0,1.0588,optionRight,30,1820,1,34,0,34,0,1,,,,,,,,,,,,,,,,,,,,,,,,,,,,,,,,,,,,,,,
,,,,,,,,2023-08-16_08h33.46.194,HF_wild_card,2022.2.4,Linux x86_64,59.99520038,5a75e9c119042000015569af,64d2fd46c836a06233681665,64dc7bc93caf00f7e32eb0eb,,,,,,,sngl,resources/DB.BMP,resources/Empty.png,Door2,-0.316456371,-0.048646715,1,0,0,0.8962,optionLeft,40,1860,1,35,0,35,0,1,,,,,,,,,,,,,,,,,,,,,,,,,,,,,,,,,,,,,,,
,,,,,,,,2023-08-16_08h33.46.194,HF_wild_card,2022.2.4,Linux x86_64,59.99520038,5a75e9c119042000015569af,64d2fd46c836a06233681665,64dc7bc93caf00f7e32eb0eb,,,,,,,decisionTrl,resources/DBN.BMP,resources/DB.BMP,Door2,0.305543264,-0.013540268,1,0,0,2.5372,optionRight,20,1880,1,36,0,36,0,1,,,,,,,,,,,,,,,,,,,,,,,,,,,,,,,,,,,,,,,
,,,,,,,,2023-08-16_08h33.46.194,HF_wild_card,2022.2.4,Linux x86_64,59.99520038,5a75e9c119042000015569af,64d2fd46c836a06233681665,64dc7bc93caf00f7e32eb0eb,,,,,,,sngl,resources/Empty.png,resources/DP.BMP,WildCard_NonEx,0.406275855,-0.016659489,1,0,0,1.179,optionRight,45,1925,1,37,0,37,0,1,,,,,,,,,,,,,,,,,,,,,,,,,,,,,,,,,,,,,,,
,,,,,,,,2023-08-16_08h33.46.194,HF_wild_card,2022.2.4,Linux x86_64,59.99520038,5a75e9c119042000015569af,64d2fd46c836a06233681665,64dc7bc93caf00f7e32eb0eb,,,,,,,decisionTrl,resources/DB.BMP,resources/DP.BMP,WildCard_NonEx,0.314213082,-0.005310165,1,0,0,0.9299,optionRight,55,1980,1,38,0,38,0,1,,,,,,,,,,,,,,,,,,,,,,,,,,,,,,,,,,,,,,,
,,,,,,,,2023-08-16_08h33.46.194,HF_wild_card,2022.2.4,Linux x86_64,59.99520038,5a75e9c119042000015569af,64d2fd46c836a06233681665,64dc7bc93caf00f7e32eb0eb,,,,,,,ctch,resources/DY.BMP,resources/DB.BMP,Door3,-0.285044423,-0.050927127,1,0,0,1.2468,optionLeft,70,2050,1,39,0,39,0,1,,,,,,,,,,,,,,,,,,,,,,,,,,,,,,,,,,,,,,,
,,,,,,,,2023-08-16_08h33.46.194,HF_wild_card,2022.2.4,Linux x86_64,59.99520038,5a75e9c119042000015569af,64d2fd46c836a06233681665,64dc7bc93caf00f7e32eb0eb,,,,,,,decisionTrl,resources/DY.BMP,resources/DG.BMP,Door4,0.376357891,-0.004334132,1,0,0,1.0823,optionRight,80,2130,1,40,0,40,0,1,,,,,,,,,,,,,,,,,,,,,,,,,,,,,,,,,,,,,,,
,,,,,,,,2023-08-16_08h33.46.194,HF_wild_card,2022.2.4,Linux x86_64,59.99520038,5a75e9c119042000015569af,64d2fd46c836a06233681665,64dc7bc93caf00f7e32eb0eb,,,,,,,sngl,resources/Empty.png,resources/DY.BMP,Door3,0.355399096,-0.016215112,1,0,0,0.8914,optionRight,70,2200,1,41,0,41,0,1,,,,,,,,,,,,,,,,,,,,,,,,,,,,,,,,,,,,,,,
,,,,,,,,2023-08-16_08h33.46.194,HF_wild_card,2022.2.4,Linux x86_64,59.99520038,5a75e9c119042000015569af,64d2fd46c836a06233681665,64dc7bc93caf00f7e32eb0eb,,,,,,,ctch,resources/DG.BMP,resources/DBN.BMP,Door4,-0.308728006,-0.043791418,1,0,0,1.4613,optionLeft,60,2260,1,42,0,42,0,1,,,,,,,,,,,,,,,,,,,,,,,,,,,,,,,,,,,,,,,
,,,,,,,,2023-08-16_08h33.46.194,HF_wild_card,2022.2.4,Linux x86_64,59.99520038,5a75e9c119042000015569af,64d2fd46c836a06233681665,64dc7bc93caf00f7e32eb0eb,,,,,,,decisionTrl,resources/DBN.BMP,resources/DP.BMP,Door1,-0.322799683,-0.036850329,1,0,0,1.4451,optionLeft,30,2290,1,43,0,43,0,1,,,,,,,,,,,,,,,,,,,,,,,,,,,,,,,,,,,,,,,
,,,,,,,,2023-08-16_08h33.46.194,HF_wild_card,2022.2.4,Linux x86_64,59.99520038,5a75e9c119042000015569af,64d2fd46c836a06233681665,64dc7bc93caf00f7e32eb0eb,,,,,,,,,,,,,,,,,,,,,,,,,,0,0,0,0,1,,,,,,,,,,,,,,,,,,,,,,,,,,,,,,,,,,
,,,,,,,,2023-08-16_08h33.46.194,HF_wild_card,2022.2.4,Linux x86_64,59.99520038,5a75e9c119042000015569af,64d2fd46c836a06233681665,64dc7bc93caf00f7e32eb0eb,,,,,,,sngl,resources/DBN.BMP,resources/Empty.png,Door1,-0.355988608,-0.057209686,1,0,0,1.2732,optionLeft,30,2320,2,0,0,0,0,1,,,,,,,,,,,,,,,,,,,,,,,,,,,,,,,,,,,,,,,
,,,,,,,,2023-08-16_08h33.46.194,HF_wild_card,2022.2.4,Linux x86_64,59.99520038,5a75e9c119042000015569af,64d2fd46c836a06233681665,64dc7bc93caf00f7e32eb0eb,,,,,,,decisionTrl,resources/DB.BMP,resources/DBN.BMP,Door2,-0.375882184,-0.041411753,1,0,0,1.1497,optionLeft,40,2360,2,1,0,1,0,1,,,,,,,,,,,,,,,,,,,,,,,,,,,,,,,,,,,,,,,
,,,,,,,,2023-08-16_08h33.46.194,HF_wild_card,2022.2.4,Linux x86_64,59.99520038,5a75e9c119042000015569af,64d2fd46c836a06233681665,64dc7bc93caf00f7e32eb0eb,,,,,,,sngl,resources/DB.BMP,resources/Empty.png,Door2,-0.327774719,-0.018844145,1,0,0,0.7441,optionLeft,20,2380,2,2,0,2,0,1,,,,,,,,,,,,,,,,,,,,,,,,,,,,,,,,,,,,,,,
,,,,,,,,2023-08-16_08h33.46.194,HF_wild_card,2022.2.4,Linux x86_64,59.99520038,5a75e9c119042000015569af,64d2fd46c836a06233681665,64dc7bc93caf00f7e32eb0eb,,,,,,,sngl,resources/DP.BMP,resources/Empty.png,WildCard_NonEx,-0.354274538,-0.032373605,1,0,0,0.9063,optionLeft,55,2435,2,3,0,3,0,1,,,,,,,,,,,,,,,,,,,,,,,,,,,,,,,,,,,,,,,
,,,,,,,,2023-08-16_08h33.46.194,HF_wild_card,2022.2.4,Linux x86_64,59.99520038,5a75e9c119042000015569af,64d2fd46c836a06233681665,64dc7bc93caf00f7e32eb0eb,,,,,,,ctch,resources/DBN.BMP,resources/DG.BMP,Door4,0.408440625,-0.001216924,1,0,0,0.9967,optionRight,80,2515,2,4,0,4,0,1,,,,,,,,,,,,,,,,,,,,,,,,,,,,,,,,,,,,,,,
,,,,,,,,2023-08-16_08h33.46.194,HF_wild_card,2022.2.4,Linux x86_64,59.99520038,5a75e9c119042000015569af,64d2fd46c836a06233681665,64dc7bc93caf00f7e32eb0eb,,,,,,,decisionTrl,resources/DB.BMP,resources/DBN.BMP,Door2,-0.354692636,-0.027896422,1,0,0,2.0137,optionLeft,20,2535,2,5,0,5,0,1,,,,,,,,,,,,,,,,,,,,,,,,,,,,,,,,,,,,,,,
,,,,,,,,2023-08-16_08h33.46.194,HF_wild_card,2022.2.4,Linux x86_64,59.99520038,5a75e9c119042000015569af,64d2fd46c836a06233681665,64dc7bc93caf00f7e32eb0eb,,,,,,,decisionTrl,resources/DBN.BMP,resources/DB.BMP,Door1,-0.352274118,-0.029681736,1,0,0,1.5858,optionLeft,30,2565,2,6,0,6,0,1,,,,,,,,,,,,,,,,,,,,,,,,,,,,,,,,,,,,,,,
,,,,,,,,2023-08-16_08h33.46.194,HF_wild_card,2022.2.4,Linux x86_64,59.99520038,5a75e9c119042000015569af,64d2fd46c836a06233681665,64dc7bc93caf00f7e32eb0eb,,,,,,,decisionTrl,resources/DBN.BMP,resources/DB.BMP,Door1,-0.364042529,-0.025058322,1,0,0,0.7344,optionLeft,30,2595,2,7,0,7,0,1,,,,,,,,,,,,,,,,,,,,,,,,,,,,,,,,,,,,,,,
,,,,,,,,2023-08-16_08h33.46.194,HF_wild_card,2022.2.4,Linux x86_64,59.99520038,5a75e9c119042000015569af,64d2fd46c836a06233681665,64dc7bc93caf00f7e32eb0eb,,,,,,,sngl,resources/Empty.png,resources/DP.BMP,WildCard_NonEx,0.408644923,-0.015612072,1,0,0,0.9366,optionRight,45,2640,2,8,0,8,0,1,,,,,,,,,,,,,,,,,,,,,,,,,,,,,,,,,,,,,,,
,,,,,,,,2023-08-16_08h33.46.194,HF_wild_card,2022.2.4,Linux x86_64,59.99520038,5a75e9c119042000015569af,64d2fd46c836a06233681665,64dc7bc93caf00f7e32eb0eb,,,,,,,ctch,resources/DBN.BMP,resources/DG.BMP,Door4,0.410701469,-0.022900793,1,0,0,1.0018,optionRight,60,2700,2,9,0,9,0,1,,,,,,,,,,,,,,,,,,,,,,,,,,,,,,,,,,,,,,,
,,,,,,,,2023-08-16_08h33.46.194,HF_wild_card,2022.2.4,Linux x86_64,59.99520038,5a75e9c119042000015569af,64d2fd46c836a06233681665,64dc7bc93caf00f7e32eb0eb,,,,,,,decisionTrl,resources/DB.BMP,resources/DP.BMP,WildCard_NonEx,0.303521192,0.001678396,1,0,0,2.1112,optionRight,45,2745,2,10,0,10,0,1,,,,,,,,,,,,,,,,,,,,,,,,,,,,,,,,,,,,,,,
,,,,,,,,2023-08-16_08h33.46.194,HF_wild_card,2022.2.4,Linux x86_64,59.99520038,5a75e9c119042000015569af,64d2fd46c836a06233681665,64dc7bc93caf00f7e32eb0eb,,,,,,,ctch,resources/DB.BMP,resources/DY.BMP,Door3,0.388975214,-0.004779745,1,0,0,1.2966,optionRight,70,2815,2,11,0,11,0,1,,,,,,,,,,,,,,,,,,,,,,,,,,,,,,,,,,,,,,,
,,,,,,,,2023-08-16_08h33.46.194,HF_wild_card,2022.2.4,Linux x86_64,59.99520038,5a75e9c119042000015569af,64d2fd46c836a06233681665,64dc7bc93caf00f7e32eb0eb,,,,,,,sngl,resources/DY.BMP,resources/Empty.png,Door3,-0.280555089,-0.038157816,1,0,0,1.159,optionLeft,70,2885,2,12,0,12,0,1,,,,,,,,,,,,,,,,,,,,,,,,,,,,,,,,,,,,,,,
,,,,,,,,2023-08-16_08h33.46.194,HF_wild_card,2022.2.4,Linux x86_64,59.99520038,5a75e9c119042000015569af,64d2fd46c836a06233681665,64dc7bc93caf00f7e32eb0eb,,,,,,,decisionTrl,resources/DY.BMP,resources/DP.BMP,Door3,-0.324533992,-0.022198218,1,0,0,1.545,optionLeft,70,2955,2,13,0,13,0,1,,,,,,,,,,,,,,,,,,,,,,,,,,,,,,,,,,,,,,,
,,,,,,,,2023-08-16_08h33.46.194,HF_wild_card,2022.2.4,Linux x86_64,59.99520038,5a75e9c119042000015569af,64d2fd46c836a06233681665,64dc7bc93caf00f7e32eb0eb,,,,,,,sngl,resources/Empty.png,resources/DP.BMP,WildCard_NonEx,0.359219304,0.001226355,1,0,0,0.8969,optionRight,55,3010,2,14,0,14,0,1,,,,,,,,,,,,,,,,,,,,,,,,,,,,,,,,,,,,,,,
,,,,,,,,2023-08-16_08h33.46.194,HF_wild_card,2022.2.4,Linux x86_64,59.99520038,5a75e9c119042000015569af,64d2fd46c836a06233681665,64dc7bc93caf00f7e32eb0eb,,,,,,,decisionTrl,resources/DP.BMP,resources/DB.BMP,WildCard_NonEx,-0.357607135,-0.026581764,1,0,0,1.7965,optionLeft,55,3065,2,15,0,15,0,1,,,,,,,,,,,,,,,,,,,,,,,,,,,,,,,,,,,,,,,
,,,,,,,,2023-08-16_08h33.46.194,HF_wild_card,2022.2.4,Linux x86_64,59.99520038,5a75e9c119042000015569af,64d2fd46c836a06233681665,64dc7bc93caf00f7e32eb0eb,,,,,,,decisionTrl,resources/DBN.BMP,resources/DB.BMP,Door2,0.281522963,0.00019575,1,0,0,2.4691,optionRight,20,3085,2,16,0,16,0,1,,,,,,,,,,,,,,,,,,,,,,,,,,,,,,,,,,,,,,,
,,,,,,,,2023-08-16_08h33.46.194,HF_wild_card,2022.2.4,Linux x86_64,59.99520038,5a75e9c119042000015569af,64d2fd46c836a06233681665,64dc7bc93caf00f7e32eb0eb,,,,,,,decisionTrl,resources/DG.BMP,resources/DY.BMP,Door4,-0.291974386,-0.031149688,1,0,0,1.0774,optionLeft,60,3145,2,17,0,17,0,1,,,,,,,,,,,,,,,,,,,,,,,,,,,,,,,,,,,,,,,
,,,,,,,,2023-08-16_08h33.46.194,HF_wild_card,2022.2.4,Linux x86_64,59.99520038,5a75e9c119042000015569af,64d2fd46c836a06233681665,64dc7bc93caf00f7e32eb0eb,,,,,,,ctch,resources/DG.BMP,resources/DBN.BMP,Door4,-0.363008005,-0.028160943,1,0,0,0.8975,optionLeft,60,3205,2,18,0,18,0,1,,,,,,,,,,,,,,,,,,,,,,,,,,,,,,,,,,,,,,,
,,,,,,,,2023-08-16_08h33.46.194,HF_wild_card,2022.2.4,Linux x86_64,59.99520038,5a75e9c119042000015569af,64d2fd46c836a06233681665,64dc7bc93caf00f7e32eb0eb,,,,,,,ctch,resources/DY.BMP,resources/DB.BMP,Door3,-0.311361631,-0.027627274,1,0,0,1.8134,optionLeft,70,3275,2,19,0,19,0,1,,,,,,,,,,,,,,,,,,,,,,,,,,,,,,,,,,,,,,,
,,,,,,,,2023-08-16_08h33.46.194,HF_wild_card,2022.2.4,Linux x86_64,59.99520038,5a75e9c119042000015569af,64d2fd46c836a06233681665,64dc7bc93caf00f7e32eb0eb,,,,,,,decisionTrl,resources/DBN.BMP,resources/DB.BMP,Door1,-0.327768856,-0.020362077,1,0,0,2.0151,optionLeft,30,3305,2,20,0,20,0,1,,,,,,,,,,,,,,,,,,,,,,,,,,,,,,,,,,,,,,,
,,,,,,,,2023-08-16_08h33.46.194,HF_wild_card,2022.2.4,Linux x86_64,59.99520038,5a75e9c119042000015569af,64d2fd46c836a06233681665,64dc7bc93caf00f7e32eb0eb,,,,,,,decisionTrl,resources/DY.BMP,resources/DG.BMP,Door4,0.340256161,-0.002421909,1,0,0,1.5516,optionRight,80,3385,2,21,0,21,0,1,,,,,,,,,,,,,,,,,,,,,,,,,,,,,,,,,,,,,,,
,,,,,,,,2023-08-16_08h33.46.194,HF_wild_card,2022.2.4,Linux x86_64,59.99520038,5a75e9c119042000015569af,64d2fd46c836a06233681665,64dc7bc93caf00f7e32eb0eb,,,,,,,decisionTrl,resources/DG.BMP,resources/DY.BMP,Door4,-0.34253682,-0.043352445,1,0,0,1.1971,optionLeft,60,3445,2,22,0,22,0,1,,,,,,,,,,,,,,,,,,,,,,,,,,,,,,,,,,,,,,,
,,,,,,,,2023-08-16_08h33.46.194,HF_wild_card,2022.2.4,Linux x86_64,59.99520038,5a75e9c119042000015569af,64d2fd46c836a06233681665,64dc7bc93caf00f7e32eb0eb,,,,,,,sngl,resources/DP.BMP,resources/Empty.png,WildCard_NonEx,-0.359518086,-0.051491066,1,0,0,0.9202,optionLeft,45,3490,2,23,0,23,0,1,,,,,,,,,,,,,,,,,,,,,,,,,,,,,,,,,,,,,,,
,,,,,,,,2023-08-16_08h33.46.194,HF_wild_card,2022.2.4,Linux x86_64,59.99520038,5a75e9c119042000015569af,64d2fd46c836a06233681665,64dc7bc93caf00f7e32eb0eb,,,,,,,decisionTrl,resources/DB.BMP,resources/DBN.BMP,Door1,0.325114921,0.001529835,1,0,0,2.5008,optionRight,30,3520,2,24,0,24,0,1,,,,,,,,,,,,,,,,,,,,,,,,,,,,,,,,,,,,,,,
,,,,,,,,2023-08-16_08h33.46.194,HF_wild_card,2022.2.4,Linux x86_64,59.99520038,5a75e9c119042000015569af,64d2fd46c836a06233681665,64dc7bc93caf00f7e32eb0eb,,,,,,,sngl,resources/DG.BMP,resources/Empty.png,Door4,-0.276333915,-0.038826377,1,0,0,0.9555,optionLeft,60,3580,2,25,0,25,0,1,,,,,,,,,,,,,,,,,,,,,,,,,,,,,,,,,,,,,,,
,,,,,,,,2023-08-16_08h33.46.194,HF_wild_card,2022.2.4,Linux x86_64,59.99520038,5a75e9c119042000015569af,64d2fd46c836a06233681665,64dc7bc93caf00f7e32eb0eb,,,,,,,decisionTrl,resources/DB.BMP,resources/DBN.BMP,Door1,0.360133277,-0.034846518,1,0,0,3.2788,optionRight,30,3610,2,26,0,26,0,1,,,,,,,,,,,,,,,,,,,,,,,,,,,,,,,,,,,,,,,
,,,,,,,,2023-08-16_08h33.46.194,HF_wild_card,2022.2.4,Linux x86_64,59.99520038,5a75e9c119042000015569af,64d2fd46c836a06233681665,64dc7bc93caf00f7e32eb0eb,,,,,,,decisionTrl,resources/DY.BMP,resources/DG.BMP,Door4,0.431747013,-0.003029329,1,0,0,1.4807,optionRight,60,3670,2,27,0,27,0,1,,,,,,,,,,,,,,,,,,,,,,,,,,,,,,,,,,,,,,,
,,,,,,,,2023-08-16_08h33.46.194,HF_wild_card,2022.2.4,Linux x86_64,59.99520038,5a75e9c119042000015569af,64d2fd46c836a06233681665,64dc7bc93caf00f7e32eb0eb,,,,,,,ctch,resources/DY.BMP,resources/DB.BMP,Door3,-0.319541366,-0.046133359,1,0,0,1.5852,optionLeft,70,3740,2,28,0,28,0,1,,,,,,,,,,,,,,,,,,,,,,,,,,,,,,,,,,,,,,,
,,,,,,,,2023-08-16_08h33.46.194,HF_wild_card,2022.2.4,Linux x86_64,59.99520038,5a75e9c119042000015569af,64d2fd46c836a06233681665,64dc7bc93caf00f7e32eb0eb,,,,,,,decisionTrl,resources/DG.BMP,resources/DY.BMP,Door3,0.420982643,-0.008844234,1,0,0,0.9804,optionRight,70,3810,2,29,0,29,0,1,,,,,,,,,,,,,,,,,,,,,,,,,,,,,,,,,,,,,,,
,,,,,,,,2023-08-16_08h33.46.194,HF_wild_card,2022.2.4,Linux x86_64,59.99520038,5a75e9c119042000015569af,64d2fd46c836a06233681665,64dc7bc93caf00f7e32eb0eb,,,,,,,decisionTrl,resources/DY.BMP,resources/DG.BMP,Door3,-0.319130827,-0.049992314,1,0,0,0.9633,optionLeft,70,3880,2,30,0,30,0,1,,,,,,,,,,,,,,,,,,,,,,,,,,,,,,,,,,,,,,,
,,,,,,,,2023-08-16_08h33.46.194,HF_wild_card,2022.2.4,Linux x86_64,59.99520038,5a75e9c119042000015569af,64d2fd46c836a06233681665,64dc7bc93caf00f7e32eb0eb,,,,,,,ctch,resources/DG.BMP,resources/DBN.BMP,Door4,-0.375209667,-0.061500055,1,0,0,1.0081,optionLeft,60,3940,2,31,0,31,0,1,,,,,,,,,,,,,,,,,,,,,,,,,,,,,,,,,,,,,,,
,,,,,,,,2023-08-16_08h33.46.194,HF_wild_card,2022.2.4,Linux x86_64,59.99520038,5a75e9c119042000015569af,64d2fd46c836a06233681665,64dc7bc93caf00f7e32eb0eb,,,,,,,sngl,resources/Empty.png,resources/DBN.BMP,Door1,0.336937798,-0.012267572,1,0,0,1.0893,optionRight,30,3970,2,32,0,32,0,1,,,,,,,,,,,,,,,,,,,,,,,,,,,,,,,,,,,,,,,
,,,,,,,,2023-08-16_08h33.46.194,HF_wild_card,2022.2.4,Linux x86_64,59.99520038,5a75e9c119042000015569af,64d2fd46c836a06233681665,64dc7bc93caf00f7e32eb0eb,,,,,,,sngl,resources/Empty.png,resources/DY.BMP,Door3,0.35039817,-0.016895506,1,0,0,1.0033,optionRight,70,4040,2,33,0,33,0,1,,,,,,,,,,,,,,,,,,,,,,,,,,,,,,,,,,,,,,,
,,,,,,,,2023-08-16_08h33.46.194,HF_wild_card,2022.2.4,Linux x86_64,59.99520038,5a75e9c119042000015569af,64d2fd46c836a06233681665,64dc7bc93caf00f7e32eb0eb,,,,,,,decisionTrl,resources/DP.BMP,resources/DG.BMP,Door4,0.423710435,-0.03039957,1,0,0,1.1751,optionRight,60,4100,2,34,0,34,0,1,,,,,,,,,,,,,,,,,,,,,,,,,,,,,,,,,,,,,,,
,,,,,,,,2023-08-16_08h33.46.194,HF_wild_card,2022.2.4,Linux x86_64,59.99520038,5a75e9c119042000015569af,64d2fd46c836a06233681665,64dc7bc93caf00f7e32eb0eb,,,,,,,decisionTrl,resources/DP.BMP,resources/DY.BMP,Door3,0.33477317,-0.034821298,1,0,0,1.9657,optionRight,70,4170,2,35,0,35,0,1,,,,,,,,,,,,,,,,,,,,,,,,,,,,,,,,,,,,,,,
,,,,,,,,2023-08-16_08h33.46.194,HF_wild_card,2022.2.4,Linux x86_64,59.99520038,5a75e9c119042000015569af,64d2fd46c836a06233681665,64dc7bc93caf00f7e32eb0eb,,,,,,,decisionTrl,resources/DBN.BMP,resources/DP.BMP,WildCard_NonEx,0.326793388,-0.031028076,1,0,0,1.3822,optionRight,45,4215,2,36,0,36,0,1,,,,,,,,,,,,,,,,,,,,,,,,,,,,,,,,,,,,,,,
,,,,,,,,2023-08-16_08h33.46.194,HF_wild_card,2022.2.4,Linux x86_64,59.99520038,5a75e9c119042000015569af,64d2fd46c836a06233681665,64dc7bc93caf00f7e32eb0eb,,,,,,,sngl,resources/Empty.png,resources/DG.BMP,Door4,0.312040258,-0.019013652,1,0,0,0.9279,optionRight,80,4295,2,37,0,37,0,1,,,,,,,,,,,,,,,,,,,,,,,,,,,,,,,,,,,,,,,
,,,,,,,,2023-08-16_08h33.46.194,HF_wild_card,2022.2.4,Linux x86_64,59.99520038,5a75e9c119042000015569af,64d2fd46c836a06233681665,64dc7bc93caf00f7e32eb0eb,,,,,,,ctch,resources/DB.BMP,resources/DY.BMP,Door3,0.369380668,-0.012385227,1,0,0,2.2265,optionRight,70,4365,2,38,0,38,0,1,,,,,,,,,,,,,,,,,,,,,,,,,,,,,,,,,,,,,,,
,,,,,,,,2023-08-16_08h33.46.194,HF_wild_card,2022.2.4,Linux x86_64,59.99520038,5a75e9c119042000015569af,64d2fd46c836a06233681665,64dc7bc93caf00f7e32eb0eb,,,,,,,decisionTrl,resources/DY.BMP,resources/DG.BMP,Door4,0.389969437,-0.008612845,1,0,0,1.1214,optionRight,80,4445,2,39,0,39,0,1,,,,,,,,,,,,,,,,,,,,,,,,,,,,,,,,,,,,,,,
,,,,,,,,2023-08-16_08h33.46.194,HF_wild_card,2022.2.4,Linux x86_64,59.99520038,5a75e9c119042000015569af,64d2fd46c836a06233681665,64dc7bc93caf00f7e32eb0eb,,,,,,,sngl,resources/Empty.png,resources/DB.BMP,Door2,0.349625623,-0.010679563,1,0,0,0.7602,optionRight,40,4485,2,40,0,40,0,1,,,,,,,,,,,,,,,,,,,,,,,,,,,,,,,,,,,,,,,
,,,,,,,,2023-08-16_08h33.46.194,HF_wild_card,2022.2.4,Linux x86_64,59.99520038,5a75e9c119042000015569af,64d2fd46c836a06233681665,64dc7bc93caf00f7e32eb0eb,,,,,,,decisionTrl,resources/DG.BMP,resources/DY.BMP,Door4,-0.3326161,-0.052332949,1,0,0,2.0665,optionLeft,60,4545,2,41,0,41,0,1,,,,,,,,,,,,,,,,,,,,,,,,,,,,,,,,,,,,,,,
,,,,,,,,2023-08-16_08h33.46.194,HF_wild_card,2022.2.4,Linux x86_64,59.99520038,5a75e9c119042000015569af,64d2fd46c836a06233681665,64dc7bc93caf00f7e32eb0eb,,,,,,,decisionTrl,resources/DG.BMP,resources/DP.BMP,Door4,-0.271887956,-0.053558173,1,0,0,0.7921,optionLeft,60,4605,2,42,0,42,0,1,,,,,,,,,,,,,,,,,,,,,,,,,,,,,,,,,,,,,,,
,,,,,,,,2023-08-16_08h33.46.194,HF_wild_card,2022.2.4,Linux x86_64,59.99520038,5a75e9c119042000015569af,64d2fd46c836a06233681665,64dc7bc93caf00f7e32eb0eb,,,,,,,decisionTrl,resources/DP.BMP,resources/DBN.BMP,WildCard_NonEx,-0.315441308,-0.052315889,1,0,0,1.6213,optionLeft,45,4650,2,43,0,43,0,1,,,,,,,,,,,,,,,,,,,,,,,,,,,,,,,,,,,,,,,
,,,,,,,,2023-08-16_08h33.46.194,HF_wild_card,2022.2.4,Linux x86_64,59.99520038,5a75e9c119042000015569af,64d2fd46c836a06233681665,64dc7bc93caf00f7e32eb0eb,,,,,,,,,,,,,,,,,,,,,,,,,,1,0,1,0,1,,,,,,,,,,,,,,,,,,,,,,,,,,,,,,,,,,
,,,,,,,,2023-08-16_08h33.46.194,HF_wild_card,2022.2.4,Linux x86_64,59.99520038,5a75e9c119042000015569af,64d2fd46c836a06233681665,64dc7bc93caf00f7e32eb0eb,,,,,,,sngl,resources/DG.BMP,resources/Empty.png,Door4,-0.299681699,-0.065676936,1,0,0,0.8776,optionLeft,80,4730,3,0,0,0,0,1,,,,,,,,,,,,,,,,,,,,,,,,,,,,,,,,,,,,,,,
,,,,,,,,2023-08-16_08h33.46.194,HF_wild_card,2022.2.4,Linux x86_64,59.99520038,5a75e9c119042000015569af,64d2fd46c836a06233681665,64dc7bc93caf00f7e32eb0eb,,,,,,,sngl,resources/DB.BMP,resources/Empty.png,Door2,-0.317174841,-0.042629065,1,0,0,0.8948,optionLeft,40,4770,3,1,0,1,0,1,,,,,,,,,,,,,,,,,,,,,,,,,,,,,,,,,,,,,,,
,,,,,,,,2023-08-16_08h33.46.194,HF_wild_card,2022.2.4,Linux x86_64,59.99520038,5a75e9c119042000015569af,64d2fd46c836a06233681665,64dc7bc93caf00f7e32eb0eb,,,,,,,decisionTrl,resources/DG.BMP,resources/DY.BMP,Door4,-0.379196556,-0.047202287,1,0,0,1.5796,optionLeft,80,4850,3,2,0,2,0,1,,,,,,,,,,,,,,,,,,,,,,,,,,,,,,,,,,,,,,,
,,,,,,,,2023-08-16_08h33.46.194,HF_wild_card,2022.2.4,Linux x86_64,59.99520038,5a75e9c119042000015569af,64d2fd46c836a06233681665,64dc7bc93caf00f7e32eb0eb,,,,,,,decisionTrl,resources/DB.BMP,resources/DBN.BMP,Door1,0.393870742,0.007047618,1,0,0,2.3632,optionRight,30,4880,3,3,0,3,0,1,,,,,,,,,,,,,,,,,,,,,,,,,,,,,,,,,,,,,,,
,,,,,,,,2023-08-16_08h33.46.194,HF_wild_card,2022.2.4,Linux x86_64,59.99520038,5a75e9c119042000015569af,64d2fd46c836a06233681665,64dc7bc93caf00f7e32eb0eb,,,,,,,sngl,resources/DBN.BMP,resources/Empty.png,Door1,-0.369649816,-0.06285784,1,0,0,0.7398,optionLeft,30,4910,3,4,0,4,0,1,,,,,,,,,,,,,,,,,,,,,,,,,,,,,,,,,,,,,,,
,,,,,,,,2023-08-16_08h33.46.194,HF_wild_card,2022.2.4,Linux x86_64,59.99520038,5a75e9c119042000015569af,64d2fd46c836a06233681665,64dc7bc93caf00f7e32eb0eb,,,,,,,decisionTrl,resources/DY.BMP,resources/DG.BMP,Door4,0.317435229,-0.018309664,1,0,0,1.5769,optionRight,80,4990,3,5,0,5,0,1,,,,,,,,,,,,,,,,,,,,,,,,,,,,,,,,,,,,,,,
,,,,,,,,2023-08-16_08h33.46.194,HF_wild_card,2022.2.4,Linux x86_64,59.99520038,5a75e9c119042000015569af,64d2fd46c836a06233681665,64dc7bc93caf00f7e32eb0eb,,,,,,,sngl,resources/Empty.png,resources/DBN.BMP,Door1,0.360368799,-0.012819891,1,0,0,0.8942,optionRight,30,5020,3,6,0,6,0,1,,,,,,,,,,,,,,,,,,,,,,,,,,,,,,,,,,,,,,,
,,,,,,,,2023-08-16_08h33.46.194,HF_wild_card,2022.2.4,Linux x86_64,59.99520038,5a75e9c119042000015569af,64d2fd46c836a06233681665,64dc7bc93caf00f7e32eb0eb,,,,,,,ctch,resources/DBN.BMP,resources/DG.BMP,Door4,0.382416195,-0.010053281,1,0,0,1.1427,optionRight,80,5100,3,7,0,7,0,1,,,,,,,,,,,,,,,,,,,,,,,,,,,,,,,,,,,,,,,
,,,,,,,,2023-08-16_08h33.46.194,HF_wild_card,2022.2.4,Linux x86_64,59.99520038,5a75e9c119042000015569af,64d2fd46c836a06233681665,64dc7bc93caf00f7e32eb0eb,,,,,,,ctch,resources/DY.BMP,resources/DB.BMP,Door3,-0.339343354,-0.041530821,1,0,0,2.1749,optionLeft,70,5170,3,8,0,8,0,1,,,,,,,,,,,,,,,,,,,,,,,,,,,,,,,,,,,,,,,
,,,,,,,,2023-08-16_08h33.46.194,HF_wild_card,2022.2.4,Linux x86_64,59.99520038,5a75e9c119042000015569af,64d2fd46c836a06233681665,64dc7bc93caf00f7e32eb0eb,,,,,,,decisionTrl,resources/DBN.BMP,resources/DP.BMP,WildCard_NonEx,0.298910494,-0.054935561,1,0,0,2.6644,optionRight,45,5215,3,9,0,9,0,1,,,,,,,,,,,,,,,,,,,,,,,,,,,,,,,,,,,,,,,
,,,,,,,,2023-08-16_08h33.46.194,HF_wild_card,2022.2.4,Linux x86_64,59.99520038,5a75e9c119042000015569af,64d2fd46c836a06233681665,64dc7bc93caf00f7e32eb0eb,,,,,,,decisionTrl,resources/DBN.BMP,resources/DB.BMP,Door1,-0.342718513,-0.06547557,1,0,0,2.2244,optionLeft,30,5245,3,10,0,10,0,1,,,,,,,,,,,,,,,,,,,,,,,,,,,,,,,,,,,,,,,
,,,,,,,,2023-08-16_08h33.46.194,HF_wild_card,2022.2.4,Linux x86_64,59.99520038,5a75e9c119042000015569af,64d2fd46c836a06233681665,64dc7bc93caf00f7e32eb0eb,,,,,,,sngl,resources/Empty.png,resources/DY.BMP,Door3,0.44359631,-0.005840054,1,0,0,0.7438,optionRight,70,5315,3,11,0,11,0,1,,,,,,,,,,,,,,,,,,,,,,,,,,,,,,,,,,,,,,,
,,,,,,,,2023-08-16_08h33.46.194,HF_wild_card,2022.2.4,Linux x86_64,59.99520038,5a75e9c119042000015569af,64d2fd46c836a06233681665,64dc7bc93caf00f7e32eb0eb,,,,,,,decisionTrl,resources/DP.BMP,resources/DB.BMP,WildCard_NonEx,-0.322300593,-0.061352836,1,0,0,1.5302,optionLeft,55,5370,3,12,0,12,0,1,,,,,,,,,,,,,,,,,,,,,,,,,,,,,,,,,,,,,,,
,,,,,,,,2023-08-16_08h33.46.194,HF_wild_card,2022.2.4,Linux x86_64,59.99520038,5a75e9c119042000015569af,64d2fd46c836a06233681665,64dc7bc93caf00f7e32eb0eb,,,,,,,decisionTrl,resources/DB.BMP,resources/DBN.BMP,Door1,0.403409181,-0.007790142,1,0,0,1.7931,optionRight,30,5400,3,13,0,13,0,1,,,,,,,,,,,,,,,,,,,,,,,,,,,,,,,,,,,,,,,
,,,,,,,,2023-08-16_08h33.46.194,HF_wild_card,2022.2.4,Linux x86_64,59.99520038,5a75e9c119042000015569af,64d2fd46c836a06233681665,64dc7bc93caf00f7e32eb0eb,,,,,,,ctch,resources/DB.BMP,resources/DY.BMP,Door3,0.36227092,-0.032229494,1,0,0,1.3673,optionRight,70,5470,3,14,0,14,0,1,,,,,,,,,,,,,,,,,,,,,,,,,,,,,,,,,,,,,,,
,,,,,,,,2023-08-16_08h33.46.194,HF_wild_card,2022.2.4,Linux x86_64,59.99520038,5a75e9c119042000015569af,64d2fd46c836a06233681665,64dc7bc93caf00f7e32eb0eb,,,,,,,ctch,resources/DG.BMP,resources/DBN.BMP,Door4,-0.325187224,-0.073621008,1,0,0,0.9767,optionLeft,80,5550,3,15,0,15,0,1,,,,,,,,,,,,,,,,,,,,,,,,,,,,,,,,,,,,,,,
,,,,,,,,2023-08-16_08h33.46.194,HF_wild_card,2022.2.4,Linux x86_64,59.99520038,5a75e9c119042000015569af,64d2fd46c836a06233681665,64dc7bc93caf00f7e32eb0eb,,,,,,,decisionTrl,resources/DP.BMP,resources/DY.BMP,Door3,0.335831112,-0.047328313,1,0,0,2.9588,optionRight,70,5620,3,16,0,16,0,1,,,,,,,,,,,,,,,,,,,,,,,,,,,,,,,,,,,,,,,
,,,,,,,,2023-08-16_08h33.46.194,HF_wild_card,2022.2.4,Linux x86_64,59.99520038,5a75e9c119042000015569af,64d2fd46c836a06233681665,64dc7bc93caf00f7e32eb0eb,,,,,,,sngl,resources/Empty.png,resources/DP.BMP,WildCard_NonEx,0.330486156,-0.050421821,1,0,0,1.0522,optionRight,45,5665,3,17,0,17,0,1,,,,,,,,,,,,,,,,,,,,,,,,,,,,,,,,,,,,,,,
,,,,,,,,2023-08-16_08h33.46.194,HF_wild_card,2022.2.4,Linux x86_64,59.99520038,5a75e9c119042000015569af,64d2fd46c836a06233681665,64dc7bc93caf00f7e32eb0eb,,,,,,,sngl,resources/Empty.png,resources/DP.BMP,WildCard_NonEx,0.302030069,-0.041624105,1,0,0,0.8278,optionRight,55,5720,3,18,0,18,0,1,,,,,,,,,,,,,,,,,,,,,,,,,,,,,,,,,,,,,,,
,,,,,,,,2023-08-16_08h33.46.194,HF_wild_card,2022.2.4,Linux x86_64,59.99520038,5a75e9c119042000015569af,64d2fd46c836a06233681665,64dc7bc93caf00f7e32eb0eb,,,,,,,sngl,resources/Empty.png,resources/DG.BMP,Door4,0.315782194,-0.050766238,1,0,0,0.9765,optionRight,60,5780,3,19,0,19,0,1,,,,,,,,,,,,,,,,,,,,,,,,,,,,,,,,,,,,,,,
,,,,,,,,2023-08-16_08h33.46.194,HF_wild_card,2022.2.4,Linux x86_64,59.99520038,5a75e9c119042000015569af,64d2fd46c836a06233681665,64dc7bc93caf00f7e32eb0eb,,,,,,,decisionTrl,resources/DG.BMP,resources/DY.BMP,Door4,-0.346294085,-0.072178558,1,0,0,1.328,optionLeft,60,5840,3,20,0,20,0,1,,,,,,,,,,,,,,,,,,,,,,,,,,,,,,,,,,,,,,,
,,,,,,,,2023-08-16_08h33.46.194,HF_wild_card,2022.2.4,Linux x86_64,59.99520038,5a75e9c119042000015569af,64d2fd46c836a06233681665,64dc7bc93caf00f7e32eb0eb,,,,,,,ctch,resources/DG.BMP,resources/DBN.BMP,Door4,-0.384157923,-0.081208512,1,0,0,0.8926,optionLeft,60,5900,3,21,0,21,0,1,,,,,,,,,,,,,,,,,,,,,,,,,,,,,,,,,,,,,,,
,,,,,,,,2023-08-16_08h33.46.194,HF_wild_card,2022.2.4,Linux x86_64,59.99520038,5a75e9c119042000015569af,64d2fd46c836a06233681665,64dc7bc93caf00f7e32eb0eb,,,,,,,ctch,resources/DBN.BMP,resources/DG.BMP,Door4,0.351688385,-0.021170793,1,0,0,0.7586,optionRight,60,5960,3,22,0,22,0,1,,,,,,,,,,,,,,,,,,,,,,,,,,,,,,,,,,,,,,,
,,,,,,,,2023-08-16_08h33.46.194,HF_wild_card,2022.2.4,Linux x86_64,59.99520038,5a75e9c119042000015569af,64d2fd46c836a06233681665,64dc7bc93caf00f7e32eb0eb,,,,,,,sngl,resources/DP.BMP,resources/Empty.png,WildCard_NonEx,-0.305363514,-0.058902423,1,0,0,0.8129,optionLeft,45,6005,3,23,0,23,0,1,,,,,,,,,,,,,,,,,,,,,,,,,,,,,,,,,,,,,,,
,,,,,,,,2023-08-16_08h33.46.194,HF_wild_card,2022.2.4,Linux x86_64,59.99520038,5a75e9c119042000015569af,64d2fd46c836a06233681665,64dc7bc93caf00f7e32eb0eb,,,,,,,ctch,resources/DB.BMP,resources/DY.BMP,Door3,0.309480031,-0.026815308,1,0,0,2.0433,optionRight,70,6075,3,24,0,24,0,1,,,,,,,,,,,,,,,,,,,,,,,,,,,,,,,,,,,,,,,
,,,,,,,,2023-08-16_08h33.46.194,HF_wild_card,2022.2.4,Linux x86_64,59.99520038,5a75e9c119042000015569af,64d2fd46c836a06233681665,64dc7bc93caf00f7e32eb0eb,,,,,,,decisionTrl,resources/DY.BMP,resources/DG.BMP,Door3,-0.377086251,-0.082884153,1,0,0,0.8776,optionLeft,70,6145,3,25,0,25,0,1,,,,,,,,,,,,,,,,,,,,,,,,,,,,,,,,,,,,,,,
,,,,,,,,2023-08-16_08h33.46.194,HF_wild_card,2022.2.4,Linux x86_64,59.99520038,5a75e9c119042000015569af,64d2fd46c836a06233681665,64dc7bc93caf00f7e32eb0eb,,,,,,,decisionTrl,resources/DB.BMP,resources/DBN.BMP,Door1,0.422453704,-0.029286314,1,0,0,2.4986,optionRight,30,6175,3,26,0,26,0,1,,,,,,,,,,,,,,,,,,,,,,,,,,,,,,,,,,,,,,,
,,,,,,,,2023-08-16_08h33.46.194,HF_wild_card,2022.2.4,Linux x86_64,59.99520038,5a75e9c119042000015569af,64d2fd46c836a06233681665,64dc7bc93caf00f7e32eb0eb,,,,,,,ctch,resources/DY.BMP,resources/DB.BMP,Door3,-0.40298144,-0.104639336,1,0,0,1.2598,optionLeft,70,6245,3,27,0,27,0,1,,,,,,,,,,,,,,,,,,,,,,,,,,,,,,,,,,,,,,,
,,,,,,,,2023-08-16_08h33.46.194,HF_wild_card,2022.2.4,Linux x86_64,59.99520038,5a75e9c119042000015569af,64d2fd46c836a06233681665,64dc7bc93caf00f7e32eb0eb,,,,,,,decisionTrl,resources/DBN.BMP,resources/DB.BMP,Door1,-0.354572084,-0.072611667,1,0,0,1.6787,optionLeft,30,6275,3,28,0,28,0,1,,,,,,,,,,,,,,,,,,,,,,,,,,,,,,,,,,,,,,,
,,,,,,,,2023-08-16_08h33.46.194,HF_wild_card,2022.2.4,Linux x86_64,59.99520038,5a75e9c119042000015569af,64d2fd46c836a06233681665,64dc7bc93caf00f7e32eb0eb,,,,,,,decisionTrl,resources/DG.BMP,resources/DY.BMP,Door3,0.299184587,0.009782791,1,0,0,1.7097,optionRight,70,6345,3,29,0,29,0,1,,,,,,,,,,,,,,,,,,,,,,,,,,,,,,,,,,,,,,,
,,,,,,,,2023-08-16_08h33.46.194,HF_wild_card,2022.2.4,Linux x86_64,59.99520038,5a75e9c119042000015569af,64d2fd46c836a06233681665,64dc7bc93caf00f7e32eb0eb,,,,,,,decisionTrl,resources/DY.BMP,resources/DG.BMP,Door3,-0.33985477,-0.081836171,1,0,0,0.9518,optionLeft,70,6415,3,30,0,30,0,1,,,,,,,,,,,,,,,,,,,,,,,,,,,,,,,,,,,,,,,
,,,,,,,,2023-08-16_08h33.46.194,HF_wild_card,2022.2.4,Linux x86_64,59.99520038,5a75e9c119042000015569af,64d2fd46c836a06233681665,64dc7bc93caf00f7e32eb0eb,,,,,,,decisionTrl,resources/DBN.BMP,resources/DB.BMP,Door1,-0.318992509,-0.10790952,1,0,0,1.303,optionLeft,30,6445,3,31,0,31,0,1,,,,,,,,,,,,,,,,,,,,,,,,,,,,,,,,,,,,,,,
,,,,,,,,2023-08-16_08h33.46.194,HF_wild_card,2022.2.4,Linux x86_64,59.99520038,5a75e9c119042000015569af,64d2fd46c836a06233681665,64dc7bc93caf00f7e32eb0eb,,,,,,,decisionTrl,resources/DP.BMP,resources/DG.BMP,Door4,0.413810024,-0.03086023,1,0,0,1.1106,optionRight,80,6525,3,32,0,32,0,1,,,,,,,,,,,,,,,,,,,,,,,,,,,,,,,,,,,,,,,
,,,,,,,,2023-08-16_08h33.46.194,HF_wild_card,2022.2.4,Linux x86_64,59.99520038,5a75e9c119042000015569af,64d2fd46c836a06233681665,64dc7bc93caf00f7e32eb0eb,,,,,,,sngl,resources/Empty.png,resources/DB.BMP,Door2,0.318457568,-0.045621801,1,0,0,0.8698,optionRight,20,6545,3,33,0,33,0,1,,,,,,,,,,,,,,,,,,,,,,,,,,,,,,,,,,,,,,,
,,,,,,,,2023-08-16_08h33.46.194,HF_wild_card,2022.2.4,Linux x86_64,59.99520038,5a75e9c119042000015569af,64d2fd46c836a06233681665,64dc7bc93caf00f7e32eb0eb,,,,,,,decisionTrl,resources/DY.BMP,resources/DP.BMP,Door3,-0.311945032,-0.07512958,1,0,0,1.5434,optionLeft,70,6615,3,34,0,34,0,1,,,,,,,,,,,,,,,,,,,,,,,,,,,,,,,,,,,,,,,
,,,,,,,,2023-08-16_08h33.46.194,HF_wild_card,2022.2.4,Linux x86_64,59.99520038,5a75e9c119042000015569af,64d2fd46c836a06233681665,64dc7bc93caf00f7e32eb0eb,,,,,,,sngl,resources/DP.BMP,resources/Empty.png,WildCard_NonEx,-0.287722058,-0.047095016,1,0,0,0.8412,optionLeft,55,6670,3,35,0,35,0,1,,,,,,,,,,,,,,,,,,,,,,,,,,,,,,,,,,,,,,,
,,,,,,,,2023-08-16_08h33.46.194,HF_wild_card,2022.2.4,Linux x86_64,59.99520038,5a75e9c119042000015569af,64d2fd46c836a06233681665,64dc7bc93caf00f7e32eb0eb,,,,,,,decisionTrl,resources/DB.BMP,resources/DP.BMP,Door2,-0.340717174,-0.042317426,1,0,0,1.6988,optionLeft,20,6690,3,36,0,36,0,1,,,,,,,,,,,,,,,,,,,,,,,,,,,,,,,,,,,,,,,
,,,,,,,,2023-08-16_08h33.46.194,HF_wild_card,2022.2.4,Linux x86_64,59.99520038,5a75e9c119042000015569af,64d2fd46c836a06233681665,64dc7bc93caf00f7e32eb0eb,,,,,,,decisionTrl,resources/DY.BMP,resources/DG.BMP,Door3,-0.384070785,-0.055579857,1,0,0,1.8258,optionLeft,70,6760,3,37,0,37,0,1,,,,,,,,,,,,,,,,,,,,,,,,,,,,,,,,,,,,,,,
,,,,,,,,2023-08-16_08h33.46.194,HF_wild_card,2022.2.4,Linux x86_64,59.99520038,5a75e9c119042000015569af,64d2fd46c836a06233681665,64dc7bc93caf00f7e32eb0eb,,,,,,,decisionTrl,resources/DBN.BMP,resources/DB.BMP,Door1,-0.285808493,-0.066606416,1,0,0,1.8999,optionLeft,30,6790,3,38,0,38,0,1,,,,,,,,,,,,,,,,,,,,,,,,,,,,,,,,,,,,,,,
,,,,,,,,2023-08-16_08h33.46.194,HF_wild_card,2022.2.4,Linux x86_64,59.99520038,5a75e9c119042000015569af,64d2fd46c836a06233681665,64dc7bc93caf00f7e32eb0eb,,,,,,,decisionTrl,resources/DB.BMP,resources/DBN.BMP,Door1,0.449979994,-0.035952709,1,0,0,1.1629,optionRight,30,6820,3,39,0,39,0,1,,,,,,,,,,,,,,,,,,,,,,,,,,,,,,,,,,,,,,,
,,,,,,,,2023-08-16_08h33.46.194,HF_wild_card,2022.2.4,Linux x86_64,59.99520038,5a75e9c119042000015569af,64d2fd46c836a06233681665,64dc7bc93caf00f7e32eb0eb,,,,,,,decisionTrl,resources/DG.BMP,resources/DP.BMP,Door4,-0.368023802,-0.073803902,1,0,0,1.1332,optionLeft,60,6880,3,40,0,40,0,1,,,,,,,,,,,,,,,,,,,,,,,,,,,,,,,,,,,,,,,
,,,,,,,,2023-08-16_08h33.46.194,HF_wild_card,2022.2.4,Linux x86_64,59.99520038,5a75e9c119042000015569af,64d2fd46c836a06233681665,64dc7bc93caf00f7e32eb0eb,,,,,,,decisionTrl,resources/DP.BMP,resources/DBN.BMP,WildCard_NonEx,-0.319923613,-0.068138758,1,0,0,2.1117,optionLeft,55,6935,3,41,0,41,0,1,,,,,,,,,,,,,,,,,,,,,,,,,,,,,,,,,,,,,,,
,,,,,,,,2023-08-16_08h33.46.194,HF_wild_card,2022.2.4,Linux x86_64,59.99520038,5a75e9c119042000015569af,64d2fd46c836a06233681665,64dc7bc93caf00f7e32eb0eb,,,,,,,sngl,resources/DY.BMP,resources/Empty.png,Door3,-0.288357699,-0.072258561,1,0,0,0.8632,optionLeft,70,7005,3,42,0,42,0,1,,,,,,,,,,,,,,,,,,,,,,,,,,,,,,,,,,,,,,,
,,,,,,,,2023-08-16_08h33.46.194,HF_wild_card,2022.2.4,Linux x86_64,59.99520038,5a75e9c119042000015569af,64d2fd46c836a06233681665,64dc7bc93caf00f7e32eb0eb,,,,,,,decisionTrl,resources/DG.BMP,resources/DY.BMP,Door3,0.38663299,-0.060344519,1,0,0,1.2857,optionRight,70,7075,3,43,0,43,0,1,,,,,,,,,,,,,,,,,,,,,,,,,,,,,,,,,,,,,,,
,,,,,,,,2023-08-16_08h33.46.194,HF_wild_card,2022.2.4,Linux x86_64,59.99520038,5a75e9c119042000015569af,64d2fd46c836a06233681665,64dc7bc93caf00f7e32eb0eb,,,,,,,,,,,,,,,,,,,,,,,,,,2,0,2,0,1,,,,,,,,,,,,,,,,,,,,,,,,,,,,,,,,,,
,,,,,,,,2023-08-16_08h33.46.194,HF_wild_card,2022.2.4,Linux x86_64,59.99520038,5a75e9c119042000015569af,64d2fd46c836a06233681665,64dc7bc93caf00f7e32eb0eb,,,,,,,sngl,resources/DY.BMP,resources/Empty.png,Door3,-0.297725006,-0.148945208,1,0,0,0.9197,optionLeft,70,7145,4,0,0,0,0,1,,,,,,,,,,,,,,,,,,,,,,,,,,,,,,,,,,,,,,,
,,,,,,,,2023-08-16_08h33.46.194,HF_wild_card,2022.2.4,Linux x86_64,59.99520038,5a75e9c119042000015569af,64d2fd46c836a06233681665,64dc7bc93caf00f7e32eb0eb,,,,,,,sngl,resources/Empty.png,resources/DBN.BMP,Door1,0.369847616,-0.021449336,1,0,0,0.759,optionRight,30,7175,4,1,0,1,0,1,,,,,,,,,,,,,,,,,,,,,,,,,,,,,,,,,,,,,,,
,,,,,,,,2023-08-16_08h33.46.194,HF_wild_card,2022.2.4,Linux x86_64,59.99520038,5a75e9c119042000015569af,64d2fd46c836a06233681665,64dc7bc93caf00f7e32eb0eb,,,,,,,sngl,resources/Empty.png,resources/DG.BMP,Door4,0.411347707,-0.016805825,1,0,0,0.7618,optionRight,80,7255,4,2,0,2,0,1,,,,,,,,,,,,,,,,,,,,,,,,,,,,,,,,,,,,,,,
,,,,,,,,2023-08-16_08h33.46.194,HF_wild_card,2022.2.4,Linux x86_64,59.99520038,5a75e9c119042000015569af,64d2fd46c836a06233681665,64dc7bc93caf00f7e32eb0eb,,,,,,,decisionTrl,resources/DY.BMP,resources/DG.BMP,Door3,-0.325067026,-0.068447431,1,0,0,1.3442,optionLeft,70,7325,4,3,0,3,0,1,,,,,,,,,,,,,,,,,,,,,,,,,,,,,,,,,,,,,,,
,,,,,,,,2023-08-16_08h33.46.194,HF_wild_card,2022.2.4,Linux x86_64,59.99520038,5a75e9c119042000015569af,64d2fd46c836a06233681665,64dc7bc93caf00f7e32eb0eb,,,,,,,decisionTrl,resources/DY.BMP,resources/DG.BMP,Door4,0.394856206,-0.041500198,1,0,0,0.8131,optionRight,80,7405,4,4,0,4,0,1,,,,,,,,,,,,,,,,,,,,,,,,,,,,,,,,,,,,,,,
,,,,,,,,2023-08-16_08h33.46.194,HF_wild_card,2022.2.4,Linux x86_64,59.99520038,5a75e9c119042000015569af,64d2fd46c836a06233681665,64dc7bc93caf00f7e32eb0eb,,,,,,,decisionTrl,resources/DBN.BMP,resources/DB.BMP,Door1,-0.339890657,-0.020676578,1,0,0,1.8855,optionLeft,30,7435,4,5,0,5,0,1,,,,,,,,,,,,,,,,,,,,,,,,,,,,,,,,,,,,,,,
,,,,,,,,2023-08-16_08h33.46.194,HF_wild_card,2022.2.4,Linux x86_64,59.99520038,5a75e9c119042000015569af,64d2fd46c836a06233681665,64dc7bc93caf00f7e32eb0eb,,,,,,,ctch,resources/DBN.BMP,resources/DG.BMP,Door4,0.385050314,-0.007001241,1,0,0,0.9546,optionRight,60,7495,4,6,0,6,0,1,,,,,,,,,,,,,,,,,,,,,,,,,,,,,,,,,,,,,,,
,,,,,,,,2023-08-16_08h33.46.194,HF_wild_card,2022.2.4,Linux x86_64,59.99520038,5a75e9c119042000015569af,64d2fd46c836a06233681665,64dc7bc93caf00f7e32eb0eb,,,,,,,sngl,resources/DR.BMP,resources/Empty.png,WildCard_Ex,-0.334884467,-0.078085264,1,0,0,1.2273,optionLeft,45,7540,4,7,0,7,0,1,,,,,,,,,,,,,,,,,,,,,,,,,,,,,,,,,,,,,,,
,,,,,,,,2023-08-16_08h33.46.194,HF_wild_card,2022.2.4,Linux x86_64,59.99520038,5a75e9c119042000015569af,64d2fd46c836a06233681665,64dc7bc93caf00f7e32eb0eb,,,,,,,decisionTrl,resources/DG.BMP,resources/DR.BMP,Door4,-0.393971655,-0.052819888,1,0,0,1.1968,optionLeft,60,7600,4,8,0,8,0,1,,,,,,,,,,,,,,,,,,,,,,,,,,,,,,,,,,,,,,,
,,,,,,,,2023-08-16_08h33.46.194,HF_wild_card,2022.2.4,Linux x86_64,59.99520038,5a75e9c119042000015569af,64d2fd46c836a06233681665,64dc7bc93caf00f7e32eb0eb,,,,,,,decisionTrl,resources/DB.BMP,resources/DBN.BMP,Door1,0.312395025,-0.018156723,1,0,0,1.9642,optionRight,30,7630,4,9,0,9,0,1,,,,,,,,,,,,,,,,,,,,,,,,,,,,,,,,,,,,,,,
,,,,,,,,2023-08-16_08h33.46.194,HF_wild_card,2022.2.4,Linux x86_64,59.99520038,5a75e9c119042000015569af,64d2fd46c836a06233681665,64dc7bc93caf00f7e32eb0eb,,,,,,,decisionTrl,resources/DBN.BMP,resources/DB.BMP,Door1,-0.346941665,-0.03758547,1,0,0,1.6772,optionLeft,30,7660,4,10,0,10,0,1,,,,,,,,,,,,,,,,,,,,,,,,,,,,,,,,,,,,,,,
,,,,,,,,2023-08-16_08h33.46.194,HF_wild_card,2022.2.4,Linux x86_64,59.99520038,5a75e9c119042000015569af,64d2fd46c836a06233681665,64dc7bc93caf00f7e32eb0eb,,,,,,,decisionTrl,resources/DB.BMP,resources/DR.BMP,WildCard_Ex,0.31522214,-0.000303657,1,0,0,1.9631,optionRight,45,7705,4,11,0,11,0,1,,,,,,,,,,,,,,,,,,,,,,,,,,,,,,,,,,,,,,,
,,,,,,,,2023-08-16_08h33.46.194,HF_wild_card,2022.2.4,Linux x86_64,59.99520038,5a75e9c119042000015569af,64d2fd46c836a06233681665,64dc7bc93caf00f7e32eb0eb,,,,,,,sngl,resources/Empty.png,resources/DY.BMP,Door3,0.316694754,-0.012498255,1,0,0,0.7777,optionRight,70,7775,4,12,0,12,0,1,,,,,,,,,,,,,,,,,,,,,,,,,,,,,,,,,,,,,,,
,,,,,,,,2023-08-16_08h33.46.194,HF_wild_card,2022.2.4,Linux x86_64,59.99520038,5a75e9c119042000015569af,64d2fd46c836a06233681665,64dc7bc93caf00f7e32eb0eb,,,,,,,sngl,resources/DB.BMP,resources/Empty.png,Door2,-0.314839681,-0.029303445,1,0,0,1.3297,optionLeft,20,7795,4,13,0,13,0,1,,,,,,,,,,,,,,,,,,,,,,,,,,,,,,,,,,,,,,,
,,,,,,,,2023-08-16_08h33.46.194,HF_wild_card,2022.2.4,Linux x86_64,59.99520038,5a75e9c119042000015569af,64d2fd46c836a06233681665,64dc7bc93caf00f7e32eb0eb,,,,,,,ctch,resources/DG.BMP,resources/DBN.BMP,Door4,-0.342586199,-0.041439728,1,0,0,2.3797,optionLeft,60,7855,4,14,0,14,0,1,,,,,,,,,,,,,,,,,,,,,,,,,,,,,,,,,,,,,,,
,,,,,,,,2023-08-16_08h33.46.194,HF_wild_card,2022.2.4,Linux x86_64,59.99520038,5a75e9c119042000015569af,64d2fd46c836a06233681665,64dc7bc93caf00f7e32eb0eb,,,,,,,decisionTrl,resources/DBN.BMP,resources/DR.BMP,WildCard_Ex,0.394855782,-0.009999205,1,0,0,1.5263,optionRight,45,7900,4,15,0,15,0,1,,,,,,,,,,,,,,,,,,,,,,,,,,,,,,,,,,,,,,,
,,,,,,,,2023-08-16_08h33.46.194,HF_wild_card,2022.2.4,Linux x86_64,59.99520038,5a75e9c119042000015569af,64d2fd46c836a06233681665,64dc7bc93caf00f7e32eb0eb,,,,,,,sngl,resources/DR.BMP,resources/Empty.png,WildCard_Ex,-0.301060182,-0.066888315,1,0,0,0.9117,optionLeft,55,7955,4,16,0,16,0,1,,,,,,,,,,,,,,,,,,,,,,,,,,,,,,,,,,,,,,,
,,,,,,,,2023-08-16_08h33.46.194,HF_wild_card,2022.2.4,Linux x86_64,59.99520038,5a75e9c119042000015569af,64d2fd46c836a06233681665,64dc7bc93caf00f7e32eb0eb,,,,,,,ctch,resources/DY.BMP,resources/DB.BMP,Door3,-0.291374348,-0.074556881,1,0,0,1.5997,optionLeft,70,8025,4,17,0,17,0,1,,,,,,,,,,,,,,,,,,,,,,,,,,,,,,,,,,,,,,,
,,,,,,,,2023-08-16_08h33.46.194,HF_wild_card,2022.2.4,Linux x86_64,59.99520038,5a75e9c119042000015569af,64d2fd46c836a06233681665,64dc7bc93caf00f7e32eb0eb,,,,,,,ctch,resources/DY.BMP,resources/DB.BMP,Door3,-0.329426518,-0.069217647,1,0,0,1.1153,optionLeft,70,8095,4,18,0,18,0,1,,,,,,,,,,,,,,,,,,,,,,,,,,,,,,,,,,,,,,,
,,,,,,,,2023-08-16_08h33.46.194,HF_wild_card,2022.2.4,Linux x86_64,59.99520038,5a75e9c119042000015569af,64d2fd46c836a06233681665,64dc7bc93caf00f7e32eb0eb,,,,,,,sngl,resources/Empty.png,resources/DB.BMP,Door2,0.35042572,-0.006483255,1,0,0,0.7803,optionRight,40,8135,4,19,0,19,0,1,,,,,,,,,,,,,,,,,,,,,,,,,,,,,,,,,,,,,,,
,,,,,,,,2023-08-16_08h33.46.194,HF_wild_card,2022.2.4,Linux x86_64,59.99520038,5a75e9c119042000015569af,64d2fd46c836a06233681665,64dc7bc93caf00f7e32eb0eb,,,,,,,decisionTrl,resources/DBN.BMP,resources/DB.BMP,Door2,0.378692062,-0.007546707,1,0,0,1.6019,optionRight,40,8175,4,20,0,20,0,1,,,,,,,,,,,,,,,,,,,,,,,,,,,,,,,,,,,,,,,
,,,,,,,,2023-08-16_08h33.46.194,HF_wild_card,2022.2.4,Linux x86_64,59.99520038,5a75e9c119042000015569af,64d2fd46c836a06233681665,64dc7bc93caf00f7e32eb0eb,,,,,,,decisionTrl,resources/DG.BMP,resources/DY.BMP,Door3,0.415578065,0.007529011,1,0,0,2.9234,optionRight,70,8245,4,21,0,21,0,1,,,,,,,,,,,,,,,,,,,,,,,,,,,,,,,,,,,,,,,
,,,,,,,,2023-08-16_08h33.46.194,HF_wild_card,2022.2.4,Linux x86_64,59.99520038,5a75e9c119042000015569af,64d2fd46c836a06233681665,64dc7bc93caf00f7e32eb0eb,,,,,,,ctch,resources/DB.BMP,resources/DY.BMP,Door3,0.424733762,-0.020817192,1,0,0,1.4717,optionRight,70,8315,4,22,0,22,0,1,,,,,,,,,,,,,,,,,,,,,,,,,,,,,,,,,,,,,,,
,,,,,,,,2023-08-16_08h33.46.194,HF_wild_card,2022.2.4,Linux x86_64,59.99520038,5a75e9c119042000015569af,64d2fd46c836a06233681665,64dc7bc93caf00f7e32eb0eb,,,,,,,decisionTrl,resources/DR.BMP,resources/DG.BMP,WildCard_Ex,-0.33562911,-0.071699319,1,0,0,1.4293,optionLeft,55,8370,4,23,0,23,0,1,,,,,,,,,,,,,,,,,,,,,,,,,,,,,,,,,,,,,,,
,,,,,,,,2023-08-16_08h33.46.194,HF_wild_card,2022.2.4,Linux x86_64,59.99520038,5a75e9c119042000015569af,64d2fd46c836a06233681665,64dc7bc93caf00f7e32eb0eb,,,,,,,decisionTrl,resources/DB.BMP,resources/DBN.BMP,Door2,-0.318551523,-0.079624953,1,0,0,1.9018,optionLeft,40,8410,4,24,0,24,0,1,,,,,,,,,,,,,,,,,,,,,,,,,,,,,,,,,,,,,,,
,,,,,,,,2023-08-16_08h33.46.194,HF_wild_card,2022.2.4,Linux x86_64,59.99520038,5a75e9c119042000015569af,64d2fd46c836a06233681665,64dc7bc93caf00f7e32eb0eb,,,,,,,decisionTrl,resources/DR.BMP,resources/DBN.BMP,WildCard_Ex,-0.351106891,-0.055623196,1,0,0,1.4274,optionLeft,55,8465,4,25,0,25,0,1,,,,,,,,,,,,,,,,,,,,,,,,,,,,,,,,,,,,,,,
,,,,,,,,2023-08-16_08h33.46.194,HF_wild_card,2022.2.4,Linux x86_64,59.99520038,5a75e9c119042000015569af,64d2fd46c836a06233681665,64dc7bc93caf00f7e32eb0eb,,,,,,,decisionTrl,resources/DBN.BMP,resources/DB.BMP,Door2,0.376259698,-0.017542804,1,0,0,1.0239,optionRight,20,8485,4,26,0,26,0,1,,,,,,,,,,,,,,,,,,,,,,,,,,,,,,,,,,,,,,,
,,,,,,,,2023-08-16_08h33.46.194,HF_wild_card,2022.2.4,Linux x86_64,59.99520038,5a75e9c119042000015569af,64d2fd46c836a06233681665,64dc7bc93caf00f7e32eb0eb,,,,,,,decisionTrl,resources/DR.BMP,resources/DB.BMP,WildCard_Ex,-0.324879858,-0.093445036,1,0,0,1.2683,optionLeft,45,8530,4,27,0,27,0,1,,,,,,,,,,,,,,,,,,,,,,,,,,,,,,,,,,,,,,,
,,,,,,,,2023-08-16_08h33.46.194,HF_wild_card,2022.2.4,Linux x86_64,59.99520038,5a75e9c119042000015569af,64d2fd46c836a06233681665,64dc7bc93caf00f7e32eb0eb,,,,,,,decisionTrl,resources/DG.BMP,resources/DY.BMP,Door4,-0.320555616,-0.087604664,1,0,0,1.5355,optionLeft,80,8610,4,28,0,28,0,1,,,,,,,,,,,,,,,,,,,,,,,,,,,,,,,,,,,,,,,
,,,,,,,,2023-08-16_08h33.46.194,HF_wild_card,2022.2.4,Linux x86_64,59.99520038,5a75e9c119042000015569af,64d2fd46c836a06233681665,64dc7bc93caf00f7e32eb0eb,,,,,,,sngl,resources/Empty.png,resources/DR.BMP,WildCard_Ex,0.331983213,-0.008480107,1,0,0,0.851,optionRight,45,8655,4,29,0,29,0,1,,,,,,,,,,,,,,,,,,,,,,,,,,,,,,,,,,,,,,,
,,,,,,,,2023-08-16_08h33.46.194,HF_wild_card,2022.2.4,Linux x86_64,59.99520038,5a75e9c119042000015569af,64d2fd46c836a06233681665,64dc7bc93caf00f7e32eb0eb,,,,,,,ctch,resources/DBN.BMP,resources/DG.BMP,Door4,0.362012934,-0.021662359,1,0,0,1.8251,optionRight,80,8735,4,30,0,30,0,1,,,,,,,,,,,,,,,,,,,,,,,,,,,,,,,,,,,,,,,
,,,,,,,,2023-08-16_08h33.46.194,HF_wild_card,2022.2.4,Linux x86_64,59.99520038,5a75e9c119042000015569af,64d2fd46c836a06233681665,64dc7bc93caf00f7e32eb0eb,,,,,,,decisionTrl,resources/DR.BMP,resources/DY.BMP,Door3,0.301686464,0.00282994,1,0,0,1.6869,optionRight,70,8805,4,31,0,31,0,1,,,,,,,,,,,,,,,,,,,,,,,,,,,,,,,,,,,,,,,
,,,,,,,,2023-08-16_08h33.46.194,HF_wild_card,2022.2.4,Linux x86_64,59.99520038,5a75e9c119042000015569af,64d2fd46c836a06233681665,64dc7bc93caf00f7e32eb0eb,,,,,,,ctch,resources/DB.BMP,resources/DY.BMP,Door3,0.390755971,-0.025573448,1,0,0,1.2291,optionRight,70,8875,4,32,0,32,0,1,,,,,,,,,,,,,,,,,,,,,,,,,,,,,,,,,,,,,,,
,,,,,,,,2023-08-16_08h33.46.194,HF_wild_card,2022.2.4,Linux x86_64,59.99520038,5a75e9c119042000015569af,64d2fd46c836a06233681665,64dc7bc93caf00f7e32eb0eb,,,,,,,decisionTrl,resources/DY.BMP,resources/DG.BMP,Door4,0.362888054,-0.026210644,1,0,0,1.8405,optionRight,60,8935,4,33,0,33,0,1,,,,,,,,,,,,,,,,,,,,,,,,,,,,,,,,,,,,,,,
,,,,,,,,2023-08-16_08h33.46.194,HF_wild_card,2022.2.4,Linux x86_64,59.99520038,5a75e9c119042000015569af,64d2fd46c836a06233681665,64dc7bc93caf00f7e32eb0eb,,,,,,,decisionTrl,resources/DG.BMP,resources/DY.BMP,Door4,-0.344407647,-0.097774364,1,0,0,1.1906,optionLeft,60,8995,4,34,0,34,0,1,,,,,,,,,,,,,,,,,,,,,,,,,,,,,,,,,,,,,,,
,,,,,,,,2023-08-16_08h33.46.194,HF_wild_card,2022.2.4,Linux x86_64,59.99520038,5a75e9c119042000015569af,64d2fd46c836a06233681665,64dc7bc93caf00f7e32eb0eb,,,,,,,sngl,resources/DG.BMP,resources/Empty.png,Door4,-0.305565834,-0.07165213,1,0,0,0.745,optionLeft,60,9055,4,35,0,35,0,1,,,,,,,,,,,,,,,,,,,,,,,,,,,,,,,,,,,,,,,
,,,,,,,,2023-08-16_08h33.46.194,HF_wild_card,2022.2.4,Linux x86_64,59.99520038,5a75e9c119042000015569af,64d2fd46c836a06233681665,64dc7bc93caf00f7e32eb0eb,,,,,,,decisionTrl,resources/DG.BMP,resources/DY.BMP,Door3,0.345141234,-0.015170062,1,0,0,0.9752,optionRight,70,9125,4,36,0,36,0,1,,,,,,,,,,,,,,,,,,,,,,,,,,,,,,,,,,,,,,,
,,,,,,,,2023-08-16_08h33.46.194,HF_wild_card,2022.2.4,Linux x86_64,59.99520038,5a75e9c119042000015569af,64d2fd46c836a06233681665,64dc7bc93caf00f7e32eb0eb,,,,,,,decisionTrl,resources/DB.BMP,resources/DBN.BMP,Door2,-0.38612892,-0.083740517,1,0,0,1.4649,optionLeft,40,9165,4,37,0,37,0,1,,,,,,,,,,,,,,,,,,,,,,,,,,,,,,,,,,,,,,,
,,,,,,,,2023-08-16_08h33.46.194,HF_wild_card,2022.2.4,Linux x86_64,59.99520038,5a75e9c119042000015569af,64d2fd46c836a06233681665,64dc7bc93caf00f7e32eb0eb,,,,,,,decisionTrl,resources/DY.BMP,resources/DG.BMP,Door4,0.387907805,-0.010971034,1,0,0,1.3139,optionRight,60,9225,4,38,0,38,0,1,,,,,,,,,,,,,,,,,,,,,,,,,,,,,,,,,,,,,,,
,,,,,,,,2023-08-16_08h33.46.194,HF_wild_card,2022.2.4,Linux x86_64,59.99520038,5a75e9c119042000015569af,64d2fd46c836a06233681665,64dc7bc93caf00f7e32eb0eb,,,,,,,sngl,resources/DBN.BMP,resources/Empty.png,Door1,-0.308335587,-0.07455077,1,0,0,0.9947,optionLeft,30,9255,4,39,0,39,0,1,,,,,,,,,,,,,,,,,,,,,,,,,,,,,,,,,,,,,,,
,,,,,,,,2023-08-16_08h33.46.194,HF_wild_card,2022.2.4,Linux x86_64,59.99520038,5a75e9c119042000015569af,64d2fd46c836a06233681665,64dc7bc93caf00f7e32eb0eb,,,,,,,sngl,resources/Empty.png,resources/DR.BMP,WildCard_Ex,0.339658949,-0.009356746,1,0,0,0.7454,optionRight,55,9310,4,40,0,40,0,1,,,,,,,,,,,,,,,,,,,,,,,,,,,,,,,,,,,,,,,
,,,,,,,,2023-08-16_08h33.46.194,HF_wild_card,2022.2.4,Linux x86_64,59.99520038,5a75e9c119042000015569af,64d2fd46c836a06233681665,64dc7bc93caf00f7e32eb0eb,,,,,,,decisionTrl,resources/DB.BMP,resources/DBN.BMP,Door2,-0.300400734,-0.068369265,1,0,0,1.5846,optionLeft,40,9350,4,41,0,41,0,1,,,,,,,,,,,,,,,,,,,,,,,,,,,,,,,,,,,,,,,
,,,,,,,,2023-08-16_08h33.46.194,HF_wild_card,2022.2.4,Linux x86_64,59.99520038,5a75e9c119042000015569af,64d2fd46c836a06233681665,64dc7bc93caf00f7e32eb0eb,,,,,,,decisionTrl,resources/DY.BMP,resources/DR.BMP,Door3,-0.338731377,-0.07444251,1,0,0,1.5904,optionLeft,70,9420,4,42,0,42,0,1,,,,,,,,,,,,,,,,,,,,,,,,,,,,,,,,,,,,,,,
,,,,,,,,2023-08-16_08h33.46.194,HF_wild_card,2022.2.4,Linux x86_64,59.99520038,5a75e9c119042000015569af,64d2fd46c836a06233681665,64dc7bc93caf00f7e32eb0eb,,,,,,,ctch,resources/DG.BMP,resources/DBN.BMP,Door4,-0.352708357,-0.055377536,1,0,0,0.9933,optionLeft,80,9500,4,43,0,43,0,1,,,,,,,,,,,,,,,,,,,,,,,,,,,,,,,,,,,,,,,
,,,,,,,,2023-08-16_08h33.46.194,HF_wild_card,2022.2.4,Linux x86_64,59.99520038,5a75e9c119042000015569af,64d2fd46c836a06233681665,64dc7bc93caf00f7e32eb0eb,,,,,,,,,,,,,,,,,,,,,,,,,,3,0,3,0,1,,,,,,,,,,,,,,,,,,,,,,,,,,,,,,,,,,
,,,,,,,,2023-08-16_08h33.46.194,HF_wild_card,2022.2.4,Linux x86_64,59.99520038,5a75e9c119042000015569af,64d2fd46c836a06233681665,64dc7bc93caf00f7e32eb0eb,,,,,,,ctch,resources/DB.BMP,resources/DY.BMP,Door3,0.351991865,-0.090207029,1,0,0,1.9136,optionRight,70,9570,5,0,0,0,0,1,,,,,,,,,,,,,,,,,,,,,,,,,,,,,,,,,,,,,,,
,,,,,,,,2023-08-16_08h33.46.194,HF_wild_card,2022.2.4,Linux x86_64,59.99520038,5a75e9c119042000015569af,64d2fd46c836a06233681665,64dc7bc93caf00f7e32eb0eb,,,,,,,decisionTrl,resources/DBN.BMP,resources/DB.BMP,Door2,0.360832356,-0.000954063,1,0,0,1.5883,optionRight,40,9610,5,1,0,1,0,1,,,,,,,,,,,,,,,,,,,,,,,,,,,,,,,,,,,,,,,
,,,,,,,,2023-08-16_08h33.46.194,HF_wild_card,2022.2.4,Linux x86_64,59.99520038,5a75e9c119042000015569af,64d2fd46c836a06233681665,64dc7bc93caf00f7e32eb0eb,,,,,,,decisionTrl,resources/DR.BMP,resources/DY.BMP,Door3,0.3672183,-0.002761382,1,0,0,1.5599,optionRight,70,9680,5,2,0,2,0,1,,,,,,,,,,,,,,,,,,,,,,,,,,,,,,,,,,,,,,,
,,,,,,,,2023-08-16_08h33.46.194,HF_wild_card,2022.2.4,Linux x86_64,59.99520038,5a75e9c119042000015569af,64d2fd46c836a06233681665,64dc7bc93caf00f7e32eb0eb,,,,,,,decisionTrl,resources/DB.BMP,resources/DBN.BMP,Door2,-0.290851028,-0.065363248,1,0,0,1.2313,optionLeft,20,9700,5,3,0,3,0,1,,,,,,,,,,,,,,,,,,,,,,,,,,,,,,,,,,,,,,,
,,,,,,,,2023-08-16_08h33.46.194,HF_wild_card,2022.2.4,Linux x86_64,59.99520038,5a75e9c119042000015569af,64d2fd46c836a06233681665,64dc7bc93caf00f7e32eb0eb,,,,,,,decisionTrl,resources/DR.BMP,resources/DG.BMP,Door4,0.335145738,-0.005080046,1,0,0,1.4306,optionRight,80,9780,5,4,0,4,0,1,,,,,,,,,,,,,,,,,,,,,,,,,,,,,,,,,,,,,,,
,,,,,,,,2023-08-16_08h33.46.194,HF_wild_card,2022.2.4,Linux x86_64,59.99520038,5a75e9c119042000015569af,64d2fd46c836a06233681665,64dc7bc93caf00f7e32eb0eb,,,,,,,decisionTrl,resources/DB.BMP,resources/DBN.BMP,Door2,-0.266451235,-0.059503626,1,0,0,1.4131,optionLeft,40,9820,5,5,0,5,0,1,,,,,,,,,,,,,,,,,,,,,,,,,,,,,,,,,,,,,,,
,,,,,,,,2023-08-16_08h33.46.194,HF_wild_card,2022.2.4,Linux x86_64,59.99520038,5a75e9c119042000015569af,64d2fd46c836a06233681665,64dc7bc93caf00f7e32eb0eb,,,,,,,decisionTrl,resources/DG.BMP,resources/DY.BMP,Door4,-0.321177553,-0.072616012,1,0,0,1.5696,optionLeft,80,9900,5,6,0,6,0,1,,,,,,,,,,,,,,,,,,,,,,,,,,,,,,,,,,,,,,,
,,,,,,,,2023-08-16_08h33.46.194,HF_wild_card,2022.2.4,Linux x86_64,59.99520038,5a75e9c119042000015569af,64d2fd46c836a06233681665,64dc7bc93caf00f7e32eb0eb,,,,,,,decisionTrl,resources/DR.BMP,resources/DB.BMP,WildCard_Ex,-0.289625168,-0.073716729,1,0,0,2.1519,optionLeft,55,9955,5,7,0,7,0,1,,,,,,,,,,,,,,,,,,,,,,,,,,,,,,,,,,,,,,,
,,,,,,,,2023-08-16_08h33.46.194,HF_wild_card,2022.2.4,Linux x86_64,59.99520038,5a75e9c119042000015569af,64d2fd46c836a06233681665,64dc7bc93caf00f7e32eb0eb,,,,,,,decisionTrl,resources/DG.BMP,resources/DY.BMP,Door4,-0.385961215,-0.009063791,1,0,0,6.0648,optionLeft,80,10035,5,8,0,8,0,1,,,,,,,,,,,,,,,,,,,,,,,,,,,,,,,,,,,,,,,
,,,,,,,,2023-08-16_08h33.46.194,HF_wild_card,2022.2.4,Linux x86_64,59.99520038,5a75e9c119042000015569af,64d2fd46c836a06233681665,64dc7bc93caf00f7e32eb0eb,,,,,,,decisionTrl,resources/DBN.BMP,resources/DB.BMP,Door2,0.304575602,-0.036719252,1,0,0,1.9175,optionRight,40,10075,5,9,0,9,0,1,,,,,,,,,,,,,,,,,,,,,,,,,,,,,,,,,,,,,,,
,,,,,,,,2023-08-16_08h33.46.194,HF_wild_card,2022.2.4,Linux x86_64,59.99520038,5a75e9c119042000015569af,64d2fd46c836a06233681665,64dc7bc93caf00f7e32eb0eb,,,,,,,decisionTrl,resources/DG.BMP,resources/DY.BMP,Door4,-0.349554874,-0.048755187,1,0,0,1.4878,optionLeft,60,10135,5,10,0,10,0,1,,,,,,,,,,,,,,,,,,,,,,,,,,,,,,,,,,,,,,,
,,,,,,,,2023-08-16_08h33.46.194,HF_wild_card,2022.2.4,Linux x86_64,59.99520038,5a75e9c119042000015569af,64d2fd46c836a06233681665,64dc7bc93caf00f7e32eb0eb,,,,,,,decisionTrl,resources/DBN.BMP,resources/DR.BMP,WildCard_Ex,0.435606639,-0.021241647,1,0,0,0.9608,optionRight,45,10180,5,11,0,11,0,1,,,,,,,,,,,,,,,,,,,,,,,,,,,,,,,,,,,,,,,
,,,,,,,,2023-08-16_08h33.46.194,HF_wild_card,2022.2.4,Linux x86_64,59.99520038,5a75e9c119042000015569af,64d2fd46c836a06233681665,64dc7bc93caf00f7e32eb0eb,,,,,,,decisionTrl,resources/DY.BMP,resources/DG.BMP,Door4,0.369275835,0.005708694,1,0,0,2.5829,optionRight,60,10240,5,12,0,12,0,1,,,,,,,,,,,,,,,,,,,,,,,,,,,,,,,,,,,,,,,
,,,,,,,,2023-08-16_08h33.46.194,HF_wild_card,2022.2.4,Linux x86_64,59.99520038,5a75e9c119042000015569af,64d2fd46c836a06233681665,64dc7bc93caf00f7e32eb0eb,,,,,,,sngl,resources/Empty.png,resources/DG.BMP,Door4,0.421814389,-0.013331449,1,0,0,0.7673,optionRight,60,10300,5,13,0,13,0,1,,,,,,,,,,,,,,,,,,,,,,,,,,,,,,,,,,,,,,,
,,,,,,,,2023-08-16_08h33.46.194,HF_wild_card,2022.2.4,Linux x86_64,59.99520038,5a75e9c119042000015569af,64d2fd46c836a06233681665,64dc7bc93caf00f7e32eb0eb,,,,,,,decisionTrl,resources/DB.BMP,resources/DBN.BMP,Door2,-0.29038182,-0.052873682,1,0,0,1.4625,optionLeft,40,10340,5,14,0,14,0,1,,,,,,,,,,,,,,,,,,,,,,,,,,,,,,,,,,,,,,,
,,,,,,,,2023-08-16_08h33.46.194,HF_wild_card,2022.2.4,Linux x86_64,59.99520038,5a75e9c119042000015569af,64d2fd46c836a06233681665,64dc7bc93caf00f7e32eb0eb,,,,,,,ctch,resources/DY.BMP,resources/DB.BMP,Door3,-0.285890579,-0.049616496,1,0,0,1.1574,optionLeft,70,10410,5,15,0,15,0,1,,,,,,,,,,,,,,,,,,,,,,,,,,,,,,,,,,,,,,,
,,,,,,,,2023-08-16_08h33.46.194,HF_wild_card,2022.2.4,Linux x86_64,59.99520038,5a75e9c119042000015569af,64d2fd46c836a06233681665,64dc7bc93caf00f7e32eb0eb,,,,,,,sngl,resources/DB.BMP,resources/Empty.png,Door2,-0.318613052,-0.060990793,1,0,0,0.9181,optionLeft,40,10450,5,16,0,16,0,1,,,,,,,,,,,,,,,,,,,,,,,,,,,,,,,,,,,,,,,
,,,,,,,,2023-08-16_08h33.46.194,HF_wild_card,2022.2.4,Linux x86_64,59.99520038,5a75e9c119042000015569af,64d2fd46c836a06233681665,64dc7bc93caf00f7e32eb0eb,,,,,,,decisionTrl,resources/DY.BMP,resources/DG.BMP,Door3,-0.302051897,-0.050924336,1,0,0,1.2094,optionLeft,70,10520,5,17,0,17,0,1,,,,,,,,,,,,,,,,,,,,,,,,,,,,,,,,,,,,,,,
,,,,,,,,2023-08-16_08h33.46.194,HF_wild_card,2022.2.4,Linux x86_64,59.99520038,5a75e9c119042000015569af,64d2fd46c836a06233681665,64dc7bc93caf00f7e32eb0eb,,,,,,,sngl,resources/Empty.png,resources/DBN.BMP,Door1,0.323045943,-0.025719148,1,0,0,0.9209,optionRight,30,10550,5,18,0,18,0,1,,,,,,,,,,,,,,,,,,,,,,,,,,,,,,,,,,,,,,,
,,,,,,,,2023-08-16_08h33.46.194,HF_wild_card,2022.2.4,Linux x86_64,59.99520038,5a75e9c119042000015569af,64d2fd46c836a06233681665,64dc7bc93caf00f7e32eb0eb,,,,,,,sngl,resources/Empty.png,resources/DB.BMP,Door2,0.411350815,-0.018881409,1,0,0,0.7621,optionRight,20,10570,5,19,0,19,0,1,,,,,,,,,,,,,,,,,,,,,,,,,,,,,,,,,,,,,,,
,,,,,,,,2023-08-16_08h33.46.194,HF_wild_card,2022.2.4,Linux x86_64,59.99520038,5a75e9c119042000015569af,64d2fd46c836a06233681665,64dc7bc93caf00f7e32eb0eb,,,,,,,ctch,resources/DY.BMP,resources/DB.BMP,Door3,-0.326671918,-0.068701532,1,0,0,1.3277,optionLeft,70,10640,5,20,0,20,0,1,,,,,,,,,,,,,,,,,,,,,,,,,,,,,,,,,,,,,,,
,,,,,,,,2023-08-16_08h33.46.194,HF_wild_card,2022.2.4,Linux x86_64,59.99520038,5a75e9c119042000015569af,64d2fd46c836a06233681665,64dc7bc93caf00f7e32eb0eb,,,,,,,sngl,resources/Empty.png,resources/DR.BMP,WildCard_Ex,0.394120534,-0.010315966,1,0,0,0.7743,optionRight,55,10695,5,21,0,21,0,1,,,,,,,,,,,,,,,,,,,,,,,,,,,,,,,,,,,,,,,
,,,,,,,,2023-08-16_08h33.46.194,HF_wild_card,2022.2.4,Linux x86_64,59.99520038,5a75e9c119042000015569af,64d2fd46c836a06233681665,64dc7bc93caf00f7e32eb0eb,,,,,,,ctch,resources/DBN.BMP,resources/DG.BMP,Door4,0.397796772,-0.036919841,1,0,0,1.4283,optionRight,60,10755,5,22,0,22,0,1,,,,,,,,,,,,,,,,,,,,,,,,,,,,,,,,,,,,,,,
,,,,,,,,2023-08-16_08h33.46.194,HF_wild_card,2022.2.4,Linux x86_64,59.99520038,5a75e9c119042000015569af,64d2fd46c836a06233681665,64dc7bc93caf00f7e32eb0eb,,,,,,,sngl,resources/DR.BMP,resources/Empty.png,WildCard_Ex,-0.319029525,-0.059021667,1,0,0,0.8626,optionLeft,45,10800,5,23,0,23,0,1,,,,,,,,,,,,,,,,,,,,,,,,,,,,,,,,,,,,,,,
,,,,,,,,2023-08-16_08h33.46.194,HF_wild_card,2022.2.4,Linux x86_64,59.99520038,5a75e9c119042000015569af,64d2fd46c836a06233681665,64dc7bc93caf00f7e32eb0eb,,,,,,,ctch,resources/DG.BMP,resources/DBN.BMP,Door4,-0.317532327,-0.072357814,1,0,0,1.669,optionLeft,80,10880,5,24,0,24,0,1,,,,,,,,,,,,,,,,,,,,,,,,,,,,,,,,,,,,,,,
,,,,,,,,2023-08-16_08h33.46.194,HF_wild_card,2022.2.4,Linux x86_64,59.99520038,5a75e9c119042000015569af,64d2fd46c836a06233681665,64dc7bc93caf00f7e32eb0eb,,,,,,,sngl,resources/DG.BMP,resources/Empty.png,Door4,-0.359570185,-0.025193073,1,0,0,1.8632,optionLeft,80,10960,5,25,0,25,0,1,,,,,,,,,,,,,,,,,,,,,,,,,,,,,,,,,,,,,,,
,,,,,,,,2023-08-16_08h33.46.194,HF_wild_card,2022.2.4,Linux x86_64,59.99520038,5a75e9c119042000015569af,64d2fd46c836a06233681665,64dc7bc93caf00f7e32eb0eb,,,,,,,decisionTrl,resources/DG.BMP,resources/DY.BMP,Door4,-0.322742427,-0.020935306,1,0,0,2.4126,optionLeft,80,11040,5,26,0,26,0,1,,,,,,,,,,,,,,,,,,,,,,,,,,,,,,,,,,,,,,,
,,,,,,,,2023-08-16_08h33.46.194,HF_wild_card,2022.2.4,Linux x86_64,59.99520038,5a75e9c119042000015569af,64d2fd46c836a06233681665,64dc7bc93caf00f7e32eb0eb,,,,,,,decisionTrl,resources/DB.BMP,resources/DR.BMP,WildCard_Ex,0.43510437,-0.031108786,1,0,0,1.2466,optionRight,45,11085,5,27,0,27,0,1,,,,,,,,,,,,,,,,,,,,,,,,,,,,,,,,,,,,,,,
,,,,,,,,2023-08-16_08h33.46.194,HF_wild_card,2022.2.4,Linux x86_64,59.99520038,5a75e9c119042000015569af,64d2fd46c836a06233681665,64dc7bc93caf00f7e32eb0eb,,,,,,,decisionTrl,resources/DY.BMP,resources/DG.BMP,Door4,0.348954519,-0.028000443,1,0,0,1.3188,optionRight,80,11165,5,28,0,28,0,1,,,,,,,,,,,,,,,,,,,,,,,,,,,,,,,,,,,,,,,
,,,,,,,,2023-08-16_08h33.46.194,HF_wild_card,2022.2.4,Linux x86_64,59.99520038,5a75e9c119042000015569af,64d2fd46c836a06233681665,64dc7bc93caf00f7e32eb0eb,,,,,,,sngl,resources/DBN.BMP,resources/Empty.png,Door1,-0.343870269,-0.031472489,1,0,0,0.8519,optionLeft,30,11195,5,29,0,29,0,1,,,,,,,,,,,,,,,,,,,,,,,,,,,,,,,,,,,,,,,
,,,,,,,,2023-08-16_08h33.46.194,HF_wild_card,2022.2.4,Linux x86_64,59.99520038,5a75e9c119042000015569af,64d2fd46c836a06233681665,64dc7bc93caf00f7e32eb0eb,,,,,,,sngl,resources/DR.BMP,resources/Empty.png,WildCard_Ex,-0.406501417,-0.028034987,1,0,0,0.6971,optionLeft,55,11250,5,30,0,30,0,1,,,,,,,,,,,,,,,,,,,,,,,,,,,,,,,,,,,,,,,
,,,,,,,,2023-08-16_08h33.46.194,HF_wild_card,2022.2.4,Linux x86_64,59.99520038,5a75e9c119042000015569af,64d2fd46c836a06233681665,64dc7bc93caf00f7e32eb0eb,,,,,,,sngl,resources/Empty.png,resources/DR.BMP,WildCard_Ex,0.340029822,-0.023453218,1,0,0,0.6488,optionRight,45,11295,5,31,0,31,0,1,,,,,,,,,,,,,,,,,,,,,,,,,,,,,,,,,,,,,,,
,,,,,,,,2023-08-16_08h33.46.194,HF_wild_card,2022.2.4,Linux x86_64,59.99520038,5a75e9c119042000015569af,64d2fd46c836a06233681665,64dc7bc93caf00f7e32eb0eb,,,,,,,sngl,resources/Empty.png,resources/DY.BMP,Door3,0.34165121,-0.030032511,1,0,0,0.7285,optionRight,70,11365,5,32,0,32,0,1,,,,,,,,,,,,,,,,,,,,,,,,,,,,,,,,,,,,,,,
,,,,,,,,2023-08-16_08h33.46.194,HF_wild_card,2022.2.4,Linux x86_64,59.99520038,5a75e9c119042000015569af,64d2fd46c836a06233681665,64dc7bc93caf00f7e32eb0eb,,,,,,,decisionTrl,resources/DBN.BMP,resources/DB.BMP,Door2,0.319700594,-0.017307387,1,0,0,1.4429,optionRight,40,11405,5,33,0,33,0,1,,,,,,,,,,,,,,,,,,,,,,,,,,,,,,,,,,,,,,,
,,,,,,,,2023-08-16_08h33.46.194,HF_wild_card,2022.2.4,Linux x86_64,59.99520038,5a75e9c119042000015569af,64d2fd46c836a06233681665,64dc7bc93caf00f7e32eb0eb,,,,,,,decisionTrl,resources/DY.BMP,resources/DR.BMP,Door3,-0.306957492,-0.035952886,1,0,0,1.5643,optionLeft,70,11475,5,34,0,34,0,1,,,,,,,,,,,,,,,,,,,,,,,,,,,,,,,,,,,,,,,
,,,,,,,,2023-08-16_08h33.46.194,HF_wild_card,2022.2.4,Linux x86_64,59.99520038,5a75e9c119042000015569af,64d2fd46c836a06233681665,64dc7bc93caf00f7e32eb0eb,,,,,,,ctch,resources/DG.BMP,resources/DBN.BMP,Door4,-0.263202879,-0.034322915,1,0,0,1.2952,optionLeft,60,11535,5,35,0,35,0,1,,,,,,,,,,,,,,,,,,,,,,,,,,,,,,,,,,,,,,,
,,,,,,,,2023-08-16_08h33.46.194,HF_wild_card,2022.2.4,Linux x86_64,59.99520038,5a75e9c119042000015569af,64d2fd46c836a06233681665,64dc7bc93caf00f7e32eb0eb,,,,,,,decisionTrl,resources/DB.BMP,resources/DBN.BMP,Door2,-0.356552124,-0.031521833,1,0,0,1.5974,optionLeft,40,11575,5,36,0,36,0,1,,,,,,,,,,,,,,,,,,,,,,,,,,,,,,,,,,,,,,,
,,,,,,,,2023-08-16_08h33.46.194,HF_wild_card,2022.2.4,Linux x86_64,59.99520038,5a75e9c119042000015569af,64d2fd46c836a06233681665,64dc7bc93caf00f7e32eb0eb,,,,,,,decisionTrl,resources/DG.BMP,resources/DR.BMP,Door4,-0.299387049,-0.03297336,1,0,0,1.3265,optionLeft,60,11635,5,37,0,37,0,1,,,,,,,,,,,,,,,,,,,,,,,,,,,,,,,,,,,,,,,
,,,,,,,,2023-08-16_08h33.46.194,HF_wild_card,2022.2.4,Linux x86_64,59.99520038,5a75e9c119042000015569af,64d2fd46c836a06233681665,64dc7bc93caf00f7e32eb0eb,,,,,,,decisionTrl,resources/DY.BMP,resources/DG.BMP,Door4,0.346587993,-0.00050082,1,0,0,1.8567,optionRight,80,11715,5,38,0,38,0,1,,,,,,,,,,,,,,,,,,,,,,,,,,,,,,,,,,,,,,,
,,,,,,,,2023-08-16_08h33.46.194,HF_wild_card,2022.2.4,Linux x86_64,59.99520038,5a75e9c119042000015569af,64d2fd46c836a06233681665,64dc7bc93caf00f7e32eb0eb,,,,,,,sngl,resources/DY.BMP,resources/Empty.png,Door3,-0.321504946,-0.028658832,1,0,0,0.6777,optionLeft,70,11785,5,39,0,39,0,1,,,,,,,,,,,,,,,,,,,,,,,,,,,,,,,,,,,,,,,
,,,,,,,,2023-08-16_08h33.46.194,HF_wild_card,2022.2.4,Linux x86_64,59.99520038,5a75e9c119042000015569af,64d2fd46c836a06233681665,64dc7bc93caf00f7e32eb0eb,,,,,,,ctch,resources/DB.BMP,resources/DY.BMP,Door3,0.355461262,-0.037609242,1,0,0,0.9991,optionRight,70,11855,5,40,0,40,0,1,,,,,,,,,,,,,,,,,,,,,,,,,,,,,,,,,,,,,,,
,,,,,,,,2023-08-16_08h33.46.194,HF_wild_card,2022.2.4,Linux x86_64,59.99520038,5a75e9c119042000015569af,64d2fd46c836a06233681665,64dc7bc93caf00f7e32eb0eb,,,,,,,decisionTrl,resources/DBN.BMP,resources/DB.BMP,Door2,0.319326471,-0.027886355,1,0,0,1.4145,optionRight,40,11895,5,41,0,41,0,1,,,,,,,,,,,,,,,,,,,,,,,,,,,,,,,,,,,,,,,
,,,,,,,,2023-08-16_08h33.46.194,HF_wild_card,2022.2.4,Linux x86_64,59.99520038,5a75e9c119042000015569af,64d2fd46c836a06233681665,64dc7bc93caf00f7e32eb0eb,,,,,,,decisionTrl,resources/DR.BMP,resources/DBN.BMP,WildCard_Ex,-0.369434816,-0.049347454,1,0,0,1.4959,optionLeft,55,11950,5,42,0,42,0,1,,,,,,,,,,,,,,,,,,,,,,,,,,,,,,,,,,,,,,,
,,,,,,,,2023-08-16_08h33.46.194,HF_wild_card,2022.2.4,Linux x86_64,59.99520038,5a75e9c119042000015569af,64d2fd46c836a06233681665,64dc7bc93caf00f7e32eb0eb,,,,,,,ctch,resources/DBN.BMP,resources/DG.BMP,Door4,0.417099705,0.001184287,1,0,0,1.0316,optionRight,80,12030,5,43,0,43,0,1,,,,,,,,,,,,,,,,,,,,,,,,,,,,,,,,,,,,,,,
,,,,,,,,2023-08-16_08h33.46.194,HF_wild_card,2022.2.4,Linux x86_64,59.99520038,5a75e9c119042000015569af,64d2fd46c836a06233681665,64dc7bc93caf00f7e32eb0eb,,,,,,,,,,,,,,,,,,,,,,,,,,4,0,4,0,1,,,,,,,,,,,,,,,,,,,,,,,,,,,,,,,,,,
,,,,,,,,2023-08-16_08h33.46.194,HF_wild_card,2022.2.4,Linux x86_64,59.99520038,5a75e9c119042000015569af,64d2fd46c836a06233681665,64dc7bc93caf00f7e32eb0eb,,,,,,,sngl,resources/Empty.png,resources/DR.BMP,WildCard_Ex,0.354761194,-0.115541246,1,0,0,0.87,optionRight,45,12075,6,0,0,0,0,1,,,,,,,,,,,,,,,,,,,,,,,,,,,,,,,,,,,,,,,
,,,,,,,,2023-08-16_08h33.46.194,HF_wild_card,2022.2.4,Linux x86_64,59.99520038,5a75e9c119042000015569af,64d2fd46c836a06233681665,64dc7bc93caf00f7e32eb0eb,,,,,,,sngl,resources/Empty.png,resources/DG.BMP,Door4,0.321252752,-0.025113035,1,0,0,0.6975,optionRight,80,12155,6,1,0,1,0,1,,,,,,,,,,,,,,,,,,,,,,,,,,,,,,,,,,,,,,,
,,,,,,,,2023-08-16_08h33.46.194,HF_wild_card,2022.2.4,Linux x86_64,59.99520038,5a75e9c119042000015569af,64d2fd46c836a06233681665,64dc7bc93caf00f7e32eb0eb,,,,,,,decisionTrl,resources/DB.BMP,resources/DBN.BMP,Door2,-0.335100845,-0.030348319,1,0,0,1.3953,optionLeft,40,12195,6,2,0,2,0,1,,,,,,,,,,,,,,,,,,,,,,,,,,,,,,,,,,,,,,,
,,,,,,,,2023-08-16_08h33.46.194,HF_wild_card,2022.2.4,Linux x86_64,59.99520038,5a75e9c119042000015569af,64d2fd46c836a06233681665,64dc7bc93caf00f7e32eb0eb,,,,,,,sngl,resources/DR.BMP,resources/Empty.png,WildCard_Ex,-0.403874645,-0.031777735,1,0,0,0.775,optionLeft,55,12250,6,3,0,3,0,1,,,,,,,,,,,,,,,,,,,,,,,,,,,,,,,,,,,,,,,
,,,,,,,,2023-08-16_08h33.46.194,HF_wild_card,2022.2.4,Linux x86_64,59.99520038,5a75e9c119042000015569af,64d2fd46c836a06233681665,64dc7bc93caf00f7e32eb0eb,,,,,,,sngl,resources/DBN.BMP,resources/Empty.png,Door1,-0.313472218,-0.033633656,1,0,0,0.8945,optionLeft,30,12280,6,4,0,4,0,1,,,,,,,,,,,,,,,,,,,,,,,,,,,,,,,,,,,,,,,
,,,,,,,,2023-08-16_08h33.46.194,HF_wild_card,2022.2.4,Linux x86_64,59.99520038,5a75e9c119042000015569af,64d2fd46c836a06233681665,64dc7bc93caf00f7e32eb0eb,,,,,,,ctch,resources/DB.BMP,resources/DY.BMP,Door3,0.312298104,-0.0113092,1,0,0,1.2066,optionRight,70,12350,6,5,0,5,0,1,,,,,,,,,,,,,,,,,,,,,,,,,,,,,,,,,,,,,,,
,,,,,,,,2023-08-16_08h33.46.194,HF_wild_card,2022.2.4,Linux x86_64,59.99520038,5a75e9c119042000015569af,64d2fd46c836a06233681665,64dc7bc93caf00f7e32eb0eb,,,,,,,decisionTrl,resources/DY.BMP,resources/DG.BMP,Door4,0.366157673,-0.007950783,1,0,0,1.969,optionRight,60,12410,6,6,0,6,0,1,,,,,,,,,,,,,,,,,,,,,,,,,,,,,,,,,,,,,,,
,,,,,,,,2023-08-16_08h33.46.194,HF_wild_card,2022.2.4,Linux x86_64,59.99520038,5a75e9c119042000015569af,64d2fd46c836a06233681665,64dc7bc93caf00f7e32eb0eb,,,,,,,ctch,resources/DBN.BMP,resources/DG.BMP,Door4,0.334814284,-0.013835095,1,0,0,0.9818,optionRight,80,12490,6,7,0,7,0,1,,,,,,,,,,,,,,,,,,,,,,,,,,,,,,,,,,,,,,,
,,,,,,,,2023-08-16_08h33.46.194,HF_wild_card,2022.2.4,Linux x86_64,59.99520038,5a75e9c119042000015569af,64d2fd46c836a06233681665,64dc7bc93caf00f7e32eb0eb,,,,,,,decisionTrl,resources/DB.BMP,resources/DBN.BMP,Door2,-0.365479187,-0.005641513,1,0,0,1.261,optionLeft,40,12530,6,8,0,8,0,1,,,,,,,,,,,,,,,,,,,,,,,,,,,,,,,,,,,,,,,
,,,,,,,,2023-08-16_08h33.46.194,HF_wild_card,2022.2.4,Linux x86_64,59.99520038,5a75e9c119042000015569af,64d2fd46c836a06233681665,64dc7bc93caf00f7e32eb0eb,,,,,,,decisionTrl,resources/DR.BMP,resources/DY.BMP,Door3,0.319250177,-0.023788134,1,0,0,1.3229,optionRight,70,12600,6,9,0,9,0,1,,,,,,,,,,,,,,,,,,,,,,,,,,,,,,,,,,,,,,,
,,,,,,,,2023-08-16_08h33.46.194,HF_wild_card,2022.2.4,Linux x86_64,59.99520038,5a75e9c119042000015569af,64d2fd46c836a06233681665,64dc7bc93caf00f7e32eb0eb,,,,,,,sngl,resources/Empty.png,resources/DB.BMP,Door2,0.30672695,-0.02578647,1,0,0,0.7612,optionRight,40,12640,6,10,0,10,0,1,,,,,,,,,,,,,,,,,,,,,,,,,,,,,,,,,,,,,,,
,,,,,,,,2023-08-16_08h33.46.194,HF_wild_card,2022.2.4,Linux x86_64,59.99520038,5a75e9c119042000015569af,64d2fd46c836a06233681665,64dc7bc93caf00f7e32eb0eb,,,,,,,decisionTrl,resources/DG.BMP,resources/DY.BMP,Door4,-0.334843565,-0.029658106,1,0,0,1.2392,optionLeft,80,12720,6,11,0,11,0,1,,,,,,,,,,,,,,,,,,,,,,,,,,,,,,,,,,,,,,,
,,,,,,,,2023-08-16_08h33.46.194,HF_wild_card,2022.2.4,Linux x86_64,59.99520038,5a75e9c119042000015569af,64d2fd46c836a06233681665,64dc7bc93caf00f7e32eb0eb,,,,,,,decisionTrl,resources/DB.BMP,resources/DR.BMP,WildCard_Ex,0.333776827,-0.016323196,1,0,0,1.3539,optionRight,45,12765,6,12,0,12,0,1,,,,,,,,,,,,,,,,,,,,,,,,,,,,,,,,,,,,,,,
,,,,,,,,2023-08-16_08h33.46.194,HF_wild_card,2022.2.4,Linux x86_64,59.99520038,5a75e9c119042000015569af,64d2fd46c836a06233681665,64dc7bc93caf00f7e32eb0eb,,,,,,,sngl,resources/DG.BMP,resources/Empty.png,Door4,-0.322652287,-0.030562118,1,0,0,0.7304,optionLeft,60,12825,6,13,0,13,0,1,,,,,,,,,,,,,,,,,,,,,,,,,,,,,,,,,,,,,,,
,,,,,,,,2023-08-16_08h33.46.194,HF_wild_card,2022.2.4,Linux x86_64,59.99520038,5a75e9c119042000015569af,64d2fd46c836a06233681665,64dc7bc93caf00f7e32eb0eb,,,,,,,decisionTrl,resources/DBN.BMP,resources/DB.BMP,Door2,0.313570235,0.003182023,1,0,0,1.3636,optionRight,40,12865,6,14,0,14,0,1,,,,,,,,,,,,,,,,,,,,,,,,,,,,,,,,,,,,,,,
,,,,,,,,2023-08-16_08h33.46.194,HF_wild_card,2022.2.4,Linux x86_64,59.99520038,5a75e9c119042000015569af,64d2fd46c836a06233681665,64dc7bc93caf00f7e32eb0eb,,,,,,,decisionTrl,resources/DG.BMP,resources/DR.BMP,Door4,-0.321568277,-0.016050339,1,0,0,1.3653,optionLeft,60,12925,6,15,0,15,0,1,,,,,,,,,,,,,,,,,,,,,,,,,,,,,,,,,,,,,,,
,,,,,,,,2023-08-16_08h33.46.194,HF_wild_card,2022.2.4,Linux x86_64,59.99520038,5a75e9c119042000015569af,64d2fd46c836a06233681665,64dc7bc93caf00f7e32eb0eb,,,,,,,decisionTrl,resources/DB.BMP,resources/DBN.BMP,Door2,-0.3057737,-0.027141394,1,0,0,1.2579,optionLeft,40,12965,6,16,0,16,0,1,,,,,,,,,,,,,,,,,,,,,,,,,,,,,,,,,,,,,,,
,,,,,,,,2023-08-16_08h33.46.194,HF_wild_card,2022.2.4,Linux x86_64,59.99520038,5a75e9c119042000015569af,64d2fd46c836a06233681665,64dc7bc93caf00f7e32eb0eb,,,,,,,decisionTrl,resources/DY.BMP,resources/DG.BMP,Door4,0.322934327,-0.013167169,1,0,0,1.407,optionRight,60,13025,6,17,0,17,0,1,,,,,,,,,,,,,,,,,,,,,,,,,,,,,,,,,,,,,,,
,,,,,,,,2023-08-16_08h33.46.194,HF_wild_card,2022.2.4,Linux x86_64,59.99520038,5a75e9c119042000015569af,64d2fd46c836a06233681665,64dc7bc93caf00f7e32eb0eb,,,,,,,ctch,resources/DG.BMP,resources/DBN.BMP,Door4,-0.329968241,-0.038822845,1,0,0,1.0631,optionLeft,60,13085,6,18,0,18,0,1,,,,,,,,,,,,,,,,,,,,,,,,,,,,,,,,,,,,,,,
,,,,,,,,2023-08-16_08h33.46.194,HF_wild_card,2022.2.4,Linux x86_64,59.99520038,5a75e9c119042000015569af,64d2fd46c836a06233681665,64dc7bc93caf00f7e32eb0eb,,,,,,,decisionTrl,resources/DG.BMP,resources/DY.BMP,Door4,-0.305542769,-0.03660308,1,0,0,1.3596,optionLeft,80,13165,6,19,0,19,0,1,,,,,,,,,,,,,,,,,,,,,,,,,,,,,,,,,,,,,,,
,,,,,,,,2023-08-16_08h33.46.194,HF_wild_card,2022.2.4,Linux x86_64,59.99520038,5a75e9c119042000015569af,64d2fd46c836a06233681665,64dc7bc93caf00f7e32eb0eb,,,,,,,decisionTrl,resources/DR.BMP,resources/DBN.BMP,WildCard_Ex,-0.341914424,-0.03614733,1,0,0,2.0918,optionLeft,45,13210,6,20,0,20,0,1,,,,,,,,,,,,,,,,,,,,,,,,,,,,,,,,,,,,,,,
,,,,,,,,2023-08-16_08h33.46.194,HF_wild_card,2022.2.4,Linux x86_64,59.99520038,5a75e9c119042000015569af,64d2fd46c836a06233681665,64dc7bc93caf00f7e32eb0eb,,,,,,,decisionTrl,resources/DR.BMP,resources/DG.BMP,Door4,0.295094596,-0.048620824,1,0,0,1.3089,optionRight,60,13270,6,21,0,21,0,1,,,,,,,,,,,,,,,,,,,,,,,,,,,,,,,,,,,,,,,
,,,,,,,,2023-08-16_08h33.46.194,HF_wild_card,2022.2.4,Linux x86_64,59.99520038,5a75e9c119042000015569af,64d2fd46c836a06233681665,64dc7bc93caf00f7e32eb0eb,,,,,,,decisionTrl,resources/DR.BMP,resources/DB.BMP,WildCard_Ex,-0.329458943,-0.055682677,1,0,0,1.4772,optionLeft,45,13315,6,22,0,22,0,1,,,,,,,,,,,,,,,,,,,,,,,,,,,,,,,,,,,,,,,
,,,,,,,,2023-08-16_08h33.46.194,HF_wild_card,2022.2.4,Linux x86_64,59.99520038,5a75e9c119042000015569af,64d2fd46c836a06233681665,64dc7bc93caf00f7e32eb0eb,,,,,,,sngl,resources/DB.BMP,resources/Empty.png,Door2,-0.30986362,-0.066831024,1,0,0,0.8253,optionLeft,20,13335,6,23,0,23,0,1,,,,,,,,,,,,,,,,,,,,,,,,,,,,,,,,,,,,,,,
,,,,,,,,2023-08-16_08h33.46.194,HF_wild_card,2022.2.4,Linux x86_64,59.99520038,5a75e9c119042000015569af,64d2fd46c836a06233681665,64dc7bc93caf00f7e32eb0eb,,,,,,,sngl,resources/Empty.png,resources/DBN.BMP,Door1,0.318430441,-0.018540064,1,0,0,0.7961,optionRight,30,13365,6,24,0,24,0,1,,,,,,,,,,,,,,,,,,,,,,,,,,,,,,,,,,,,,,,
,,,,,,,,2023-08-16_08h33.46.194,HF_wild_card,2022.2.4,Linux x86_64,59.99520038,5a75e9c119042000015569af,64d2fd46c836a06233681665,64dc7bc93caf00f7e32eb0eb,,,,,,,sngl,resources/Empty.png,resources/DY.BMP,Door3,0.412257724,-0.017354859,1,0,0,0.8063,optionRight,70,13435,6,25,0,25,0,1,,,,,,,,,,,,,,,,,,,,,,,,,,,,,,,,,,,,,,,
,,,,,,,,2023-08-16_08h33.46.194,HF_wild_card,2022.2.4,Linux x86_64,59.99520038,5a75e9c119042000015569af,64d2fd46c836a06233681665,64dc7bc93caf00f7e32eb0eb,,,,,,,ctch,resources/DG.BMP,resources/DBN.BMP,Door4,-0.312566298,-0.067389029,1,0,0,1.1098,optionLeft,60,13495,6,26,0,26,0,1,,,,,,,,,,,,,,,,,,,,,,,,,,,,,,,,,,,,,,,
,,,,,,,,2023-08-16_08h33.46.194,HF_wild_card,2022.2.4,Linux x86_64,59.99520038,5a75e9c119042000015569af,64d2fd46c836a06233681665,64dc7bc93caf00f7e32eb0eb,,,,,,,decisionTrl,resources/DG.BMP,resources/DY.BMP,Door4,-0.317245201,-0.029840929,1,0,0,1.515,optionLeft,60,13555,6,27,0,27,0,1,,,,,,,,,,,,,,,,,,,,,,,,,,,,,,,,,,,,,,,
,,,,,,,,2023-08-16_08h33.46.194,HF_wild_card,2022.2.4,Linux x86_64,59.99520038,5a75e9c119042000015569af,64d2fd46c836a06233681665,64dc7bc93caf00f7e32eb0eb,,,,,,,ctch,resources/DY.BMP,resources/DB.BMP,Door3,-0.281256499,-0.046537117,1,0,0,1.3466,optionLeft,70,13625,6,28,0,28,0,1,,,,,,,,,,,,,,,,,,,,,,,,,,,,,,,,,,,,,,,
,,,,,,,,2023-08-16_08h33.46.194,HF_wild_card,2022.2.4,Linux x86_64,59.99520038,5a75e9c119042000015569af,64d2fd46c836a06233681665,64dc7bc93caf00f7e32eb0eb,,,,,,,sngl,resources/DR.BMP,resources/Empty.png,WildCard_Ex,-0.330584879,-0.071861656,1,0,0,0.7137,optionLeft,45,13670,6,29,0,29,0,1,,,,,,,,,,,,,,,,,,,,,,,,,,,,,,,,,,,,,,,
,,,,,,,,2023-08-16_08h33.46.194,HF_wild_card,2022.2.4,Linux x86_64,59.99520038,5a75e9c119042000015569af,64d2fd46c836a06233681665,64dc7bc93caf00f7e32eb0eb,,,,,,,decisionTrl,resources/DY.BMP,resources/DG.BMP,Door4,0.338564131,-0.056779084,1,0,0,1.4316,optionRight,80,13750,6,30,0,30,0,1,,,,,,,,,,,,,,,,,,,,,,,,,,,,,,,,,,,,,,,
,,,,,,,,2023-08-16_08h33.46.194,HF_wild_card,2022.2.4,Linux x86_64,59.99520038,5a75e9c119042000015569af,64d2fd46c836a06233681665,64dc7bc93caf00f7e32eb0eb,,,,,,,decisionTrl,resources/DBN.BMP,resources/DB.BMP,Door2,0.379450339,-0.048916075,1,0,0,1.397,optionRight,40,13790,6,31,0,31,0,1,,,,,,,,,,,,,,,,,,,,,,,,,,,,,,,,,,,,,,,
,,,,,,,,2023-08-16_08h33.46.194,HF_wild_card,2022.2.4,Linux x86_64,59.99520038,5a75e9c119042000015569af,64d2fd46c836a06233681665,64dc7bc93caf00f7e32eb0eb,,,,,,,decisionTrl,resources/DBN.BMP,resources/DB.BMP,Door2,0.337651429,-0.033779533,1,0,0,0.9054,optionRight,20,13810,6,32,0,32,0,1,,,,,,,,,,,,,,,,,,,,,,,,,,,,,,,,,,,,,,,
,,,,,,,,2023-08-16_08h33.46.194,HF_wild_card,2022.2.4,Linux x86_64,59.99520038,5a75e9c119042000015569af,64d2fd46c836a06233681665,64dc7bc93caf00f7e32eb0eb,,,,,,,sngl,resources/Empty.png,resources/DR.BMP,WildCard_Ex,0.345570176,-0.039388127,1,0,0,0.7641,optionRight,55,13865,6,33,0,33,0,1,,,,,,,,,,,,,,,,,,,,,,,,,,,,,,,,,,,,,,,
,,,,,,,,2023-08-16_08h33.46.194,HF_wild_card,2022.2.4,Linux x86_64,59.99520038,5a75e9c119042000015569af,64d2fd46c836a06233681665,64dc7bc93caf00f7e32eb0eb,,,,,,,decisionTrl,resources/DBN.BMP,resources/DB.BMP,Door2,0.328825068,-0.055112274,1,0,0,1.7128,optionRight,20,13885,6,34,0,34,0,1,,,,,,,,,,,,,,,,,,,,,,,,,,,,,,,,,,,,,,,
,,,,,,,,2023-08-16_08h33.46.194,HF_wild_card,2022.2.4,Linux x86_64,59.99520038,5a75e9c119042000015569af,64d2fd46c836a06233681665,64dc7bc93caf00f7e32eb0eb,,,,,,,decisionTrl,resources/DBN.BMP,resources/DR.BMP,WildCard_Ex,0.341524054,-0.075499994,1,0,0,0.9775,optionRight,45,13930,6,35,0,35,0,1,,,,,,,,,,,,,,,,,,,,,,,,,,,,,,,,,,,,,,,
,,,,,,,,2023-08-16_08h33.46.194,HF_wild_card,2022.2.4,Linux x86_64,59.99520038,5a75e9c119042000015569af,64d2fd46c836a06233681665,64dc7bc93caf00f7e32eb0eb,,,,,,,ctch,resources/DY.BMP,resources/DB.BMP,Door3,-0.256911949,-0.058265686,1,0,0,1.9397,optionLeft,70,14000,6,36,0,36,0,1,,,,,,,,,,,,,,,,,,,,,,,,,,,,,,,,,,,,,,,
,,,,,,,,2023-08-16_08h33.46.194,HF_wild_card,2022.2.4,Linux x86_64,59.99520038,5a75e9c119042000015569af,64d2fd46c836a06233681665,64dc7bc93caf00f7e32eb0eb,,,,,,,decisionTrl,resources/DY.BMP,resources/DG.BMP,Door4,0.378752391,0.001231052,1,0,0,2.4558,optionRight,80,14080,6,37,0,37,0,1,,,,,,,,,,,,,,,,,,,,,,,,,,,,,,,,,,,,,,,
,,,,,,,,2023-08-16_08h33.46.194,HF_wild_card,2022.2.4,Linux x86_64,59.99520038,5a75e9c119042000015569af,64d2fd46c836a06233681665,64dc7bc93caf00f7e32eb0eb,,,,,,,decisionTrl,resources/DY.BMP,resources/DR.BMP,Door3,-0.311329312,-0.054027805,1,0,0,1.1288,optionLeft,70,14150,6,38,0,38,0,1,,,,,,,,,,,,,,,,,,,,,,,,,,,,,,,,,,,,,,,
,,,,,,,,2023-08-16_08h33.46.194,HF_wild_card,2022.2.4,Linux x86_64,59.99520038,5a75e9c119042000015569af,64d2fd46c836a06233681665,64dc7bc93caf00f7e32eb0eb,,,,,,,ctch,resources/DB.BMP,resources/DY.BMP,Door3,0.318590376,-0.063747512,1,0,0,1.1188,optionRight,70,14220,6,39,0,39,0,1,,,,,,,,,,,,,,,,,,,,,,,,,,,,,,,,,,,,,,,
,,,,,,,,2023-08-16_08h33.46.194,HF_wild_card,2022.2.4,Linux x86_64,59.99520038,5a75e9c119042000015569af,64d2fd46c836a06233681665,64dc7bc93caf00f7e32eb0eb,,,,,,,decisionTrl,resources/DG.BMP,resources/DY.BMP,Door3,0.351674822,-0.041439021,1,0,0,2.0548,optionRight,70,14290,6,40,0,40,0,1,,,,,,,,,,,,,,,,,,,,,,,,,,,,,,,,,,,,,,,
,,,,,,,,2023-08-16_08h33.46.194,HF_wild_card,2022.2.4,Linux x86_64,59.99520038,5a75e9c119042000015569af,64d2fd46c836a06233681665,64dc7bc93caf00f7e32eb0eb,,,,,,,ctch,resources/DBN.BMP,resources/DG.BMP,Door4,0.344321781,-0.03562514,1,0,0,0.8288,optionRight,60,14350,6,41,0,41,0,1,,,,,,,,,,,,,,,,,,,,,,,,,,,,,,,,,,,,,,,
,,,,,,,,2023-08-16_08h33.46.194,HF_wild_card,2022.2.4,Linux x86_64,59.99520038,5a75e9c119042000015569af,64d2fd46c836a06233681665,64dc7bc93caf00f7e32eb0eb,,,,,,,decisionTrl,resources/DB.BMP,resources/DBN.BMP,Door2,-0.361454893,-0.084262883,1,0,0,1.0498,optionLeft,40,14390,6,42,0,42,0,1,,,,,,,,,,,,,,,,,,,,,,,,,,,,,,,,,,,,,,,
,,,,,,,,2023-08-16_08h33.46.194,HF_wild_card,2022.2.4,Linux x86_64,59.99520038,5a75e9c119042000015569af,64d2fd46c836a06233681665,64dc7bc93caf00f7e32eb0eb,,,,,,,sngl,resources/DY.BMP,resources/Empty.png,Door3,-0.322156376,-0.07490144,1,0,0,0.7284,optionLeft,70,14460,6,43,0,43,0,1,,,,,,,,,,,,,,,,,,,,,,,,,,,,,,,,,,,,,,,
,,,,,,,,2023-08-16_08h33.46.194,HF_wild_card,2022.2.4,Linux x86_64,59.99520038,5a75e9c119042000015569af,64d2fd46c836a06233681665,64dc7bc93caf00f7e32eb0eb,,,,,,,,,,,,,,,,,,,,,,,,,,5,0,5,0,1,,,,,,,,,,,,,,,,,,,,,,,,,,,,,,,,,,
,,,,,,,,2023-08-16_08h33.46.194,HF_wild_card,2022.2.4,Linux x86_64,59.99520038,5a75e9c119042000015569af,64d2fd46c836a06233681665,64dc7bc93caf00f7e32eb0eb,,,,,,,ctch,resources/DBN.BMP,resources/DG.BMP,Door4,0.407137694,-0.071565981,1,0,0,1.4731,optionRight,60,14520,7,0,0,0,0,1,,,,,,,,,,,,,,,,,,,,,,,,,,,,,,,,,,,,,,,
,,,,,,,,2023-08-16_08h33.46.194,HF_wild_card,2022.2.4,Linux x86_64,59.99520038,5a75e9c119042000015569af,64d2fd46c836a06233681665,64dc7bc93caf00f7e32eb0eb,,,,,,,decisionTrl,resources/DB.BMP,resources/DBN.BMP,Door2,-0.399115704,-0.043193958,1,0,0,1.3694,optionLeft,20,14540,7,1,0,1,0,1,,,,,,,,,,,,,,,,,,,,,,,,,,,,,,,,,,,,,,,
,,,,,,,,2023-08-16_08h33.46.194,HF_wild_card,2022.2.4,Linux x86_64,59.99520038,5a75e9c119042000015569af,64d2fd46c836a06233681665,64dc7bc93caf00f7e32eb0eb,,,,,,,decisionTrl,resources/DBN.BMP,resources/DB.BMP,Door2,0.347562861,-0.017158473,1,0,0,0.9267,optionRight,20,14560,7,2,0,2,0,1,,,,,,,,,,,,,,,,,,,,,,,,,,,,,,,,,,,,,,,
,,,,,,,,2023-08-16_08h33.46.194,HF_wild_card,2022.2.4,Linux x86_64,59.99520038,5a75e9c119042000015569af,64d2fd46c836a06233681665,64dc7bc93caf00f7e32eb0eb,,,,,,,ctch,resources/DBN.BMP,resources/DG.BMP,Door4,0.397755941,-0.020335833,1,0,0,0.8271,optionRight,60,14620,7,3,0,3,0,1,,,,,,,,,,,,,,,,,,,,,,,,,,,,,,,,,,,,,,,
,,,,,,,,2023-08-16_08h33.46.194,HF_wild_card,2022.2.4,Linux x86_64,59.99520038,5a75e9c119042000015569af,64d2fd46c836a06233681665,64dc7bc93caf00f7e32eb0eb,,,,,,,decisionTrl,resources/DB.BMP,resources/DBN.BMP,Door2,-0.401682571,-0.034539859,1,0,0,1.0644,optionLeft,40,14660,7,4,0,4,0,1,,,,,,,,,,,,,,,,,,,,,,,,,,,,,,,,,,,,,,,
,,,,,,,,2023-08-16_08h33.46.194,HF_wild_card,2022.2.4,Linux x86_64,59.99520038,5a75e9c119042000015569af,64d2fd46c836a06233681665,64dc7bc93caf00f7e32eb0eb,,,,,,,decisionTrl,resources/DG.BMP,resources/DY.BMP,Door4,-0.309267609,-0.048376119,1,0,0,1.6621,optionLeft,60,14720,7,5,0,5,0,1,,,,,,,,,,,,,,,,,,,,,,,,,,,,,,,,,,,,,,,
,,,,,,,,2023-08-16_08h33.46.194,HF_wild_card,2022.2.4,Linux x86_64,59.99520038,5a75e9c119042000015569af,64d2fd46c836a06233681665,64dc7bc93caf00f7e32eb0eb,,,,,,,decisionTrl,resources/DBN.BMP,resources/DB.BMP,Door2,0.348694413,-0.026495015,1,0,0,1.3305,optionRight,20,14740,7,6,0,6,0,1,,,,,,,,,,,,,,,,,,,,,,,,,,,,,,,,,,,,,,,
,,,,,,,,2023-08-16_08h33.46.194,HF_wild_card,2022.2.4,Linux x86_64,59.99520038,5a75e9c119042000015569af,64d2fd46c836a06233681665,64dc7bc93caf00f7e32eb0eb,,,,,,,decisionTrl,resources/DG.BMP,resources/DY.BMP,Door4,-0.333515309,-0.028545203,1,0,0,1.4128,optionLeft,60,14800,7,7,0,7,0,1,,,,,,,,,,,,,,,,,,,,,,,,,,,,,,,,,,,,,,,
,,,,,,,,2023-08-16_08h33.46.194,HF_wild_card,2022.2.4,Linux x86_64,59.99520038,5a75e9c119042000015569af,64d2fd46c836a06233681665,64dc7bc93caf00f7e32eb0eb,,,,,,,ctch,resources/DG.BMP,resources/DBN.BMP,Door4,-0.281255581,-0.040019389,1,0,0,0.9738,optionLeft,80,14880,7,8,0,8,0,1,,,,,,,,,,,,,,,,,,,,,,,,,,,,,,,,,,,,,,,
,,,,,,,,2023-08-16_08h33.46.194,HF_wild_card,2022.2.4,Linux x86_64,59.99520038,5a75e9c119042000015569af,64d2fd46c836a06233681665,64dc7bc93caf00f7e32eb0eb,,,,,,,ctch,resources/DY.BMP,resources/DB.BMP,Door3,-0.326188865,-0.028986507,1,0,0,1.3,optionLeft,70,14950,7,9,0,9,0,1,,,,,,,,,,,,,,,,,,,,,,,,,,,,,,,,,,,,,,,
,,,,,,,,2023-08-16_08h33.46.194,HF_wild_card,2022.2.4,Linux x86_64,59.99520038,5a75e9c119042000015569af,64d2fd46c836a06233681665,64dc7bc93caf00f7e32eb0eb,,,,,,,decisionTrl,resources/DBN.BMP,resources/DB.BMP,Door2,0.337311215,-0.029790137,1,0,0,0.9764,optionRight,20,14970,7,10,0,10,0,1,,,,,,,,,,,,,,,,,,,,,,,,,,,,,,,,,,,,,,,
,,,,,,,,2023-08-16_08h33.46.194,HF_wild_card,2022.2.4,Linux x86_64,59.99520038,5a75e9c119042000015569af,64d2fd46c836a06233681665,64dc7bc93caf00f7e32eb0eb,,,,,,,decisionTrl,resources/DBN.BMP,resources/DB.BMP,Door2,0.349804066,-0.051521584,1,0,0,0.9311,optionRight,40,15010,7,11,0,11,0,1,,,,,,,,,,,,,,,,,,,,,,,,,,,,,,,,,,,,,,,
,,,,,,,,2023-08-16_08h33.46.194,HF_wild_card,2022.2.4,Linux x86_64,59.99520038,5a75e9c119042000015569af,64d2fd46c836a06233681665,64dc7bc93caf00f7e32eb0eb,,,,,,,decisionTrl,resources/DG.BMP,resources/DY.BMP,Door4,-0.33064655,-0.038562068,1,0,0,1.1975,optionLeft,80,15090,7,12,0,12,0,1,,,,,,,,,,,,,,,,,,,,,,,,,,,,,,,,,,,,,,,
,,,,,,,,2023-08-16_08h33.46.194,HF_wild_card,2022.2.4,Linux x86_64,59.99520038,5a75e9c119042000015569af,64d2fd46c836a06233681665,64dc7bc93caf00f7e32eb0eb,,,,,,,ctch,resources/DB.BMP,resources/DY.BMP,Door3,0.342397337,-0.067579941,1,0,0,1.011,optionRight,70,15160,7,13,0,13,0,1,,,,,,,,,,,,,,,,,,,,,,,,,,,,,,,,,,,,,,,
,,,,,,,,2023-08-16_08h33.46.194,HF_wild_card,2022.2.4,Linux x86_64,59.99520038,5a75e9c119042000015569af,64d2fd46c836a06233681665,64dc7bc93caf00f7e32eb0eb,,,,,,,decisionTrl,resources/DG.BMP,resources/DY.BMP,Door4,-0.340142179,-0.05406793,1,0,0,1.2136,optionLeft,80,15240,7,14,0,14,0,1,,,,,,,,,,,,,,,,,,,,,,,,,,,,,,,,,,,,,,,
,,,,,,,,2023-08-16_08h33.46.194,HF_wild_card,2022.2.4,Linux x86_64,59.99520038,5a75e9c119042000015569af,64d2fd46c836a06233681665,64dc7bc93caf00f7e32eb0eb,,,,,,,ctch,resources/DY.BMP,resources/DB.BMP,Door3,-0.318776943,-0.049352399,1,0,0,1.164,optionLeft,70,15310,7,15,0,15,0,1,,,,,,,,,,,,,,,,,,,,,,,,,,,,,,,,,,,,,,,
,,,,,,,,2023-08-16_08h33.46.194,HF_wild_card,2022.2.4,Linux x86_64,59.99520038,5a75e9c119042000015569af,64d2fd46c836a06233681665,64dc7bc93caf00f7e32eb0eb,,,,,,,ctch,resources/DB.BMP,resources/DY.BMP,Door3,0.314183977,-0.046499146,1,0,0,1.1509,optionRight,70,15380,7,16,0,16,0,1,,,,,,,,,,,,,,,,,,,,,,,,,,,,,,,,,,,,,,,
,,,,,,,,2023-08-16_08h33.46.194,HF_wild_card,2022.2.4,Linux x86_64,59.99520038,5a75e9c119042000015569af,64d2fd46c836a06233681665,64dc7bc93caf00f7e32eb0eb,,,,,,,decisionTrl,resources/DG.BMP,resources/DY.BMP,Door4,-0.303728669,-0.065128715,1,0,0,0.9946,optionLeft,60,15440,7,17,0,17,0,1,,,,,,,,,,,,,,,,,,,,,,,,,,,,,,,,,,,,,,,
,,,,,,,,2023-08-16_08h33.46.194,HF_wild_card,2022.2.4,Linux x86_64,59.99520038,5a75e9c119042000015569af,64d2fd46c836a06233681665,64dc7bc93caf00f7e32eb0eb,,,,,,,decisionTrl,resources/DBN.BMP,resources/DB.BMP,Door2,0.342060513,-0.034177992,1,0,0,0.9894,optionRight,20,15460,7,18,0,18,0,1,,,,,,,,,,,,,,,,,,,,,,,,,,,,,,,,,,,,,,,
,,,,,,,,2023-08-16_08h33.46.194,HF_wild_card,2022.2.4,Linux x86_64,59.99520038,5a75e9c119042000015569af,64d2fd46c836a06233681665,64dc7bc93caf00f7e32eb0eb,,,,,,,ctch,resources/DG.BMP,resources/DBN.BMP,Door4,-0.325449908,-0.0478848,1,0,0,1.0809,optionLeft,60,15520,7,19,0,19,0,1,,,,,,,,,,,,,,,,,,,,,,,,,,,,,,,,,,,,,,,
,,,,,,,,2023-08-16_08h33.46.194,HF_wild_card,2022.2.4,Linux x86_64,59.99520038,5a75e9c119042000015569af,64d2fd46c836a06233681665,64dc7bc93caf00f7e32eb0eb,,,,,,,decisionTrl,resources/DY.BMP,resources/DG.BMP,Door4,0.319554364,-0.009594458,1,0,0,1.3322,optionRight,60,15580,7,20,0,20,0,1,,,,,,,,,,,,,,,,,,,,,,,,,,,,,,,,,,,,,,,
,,,,,,,,2023-08-16_08h33.46.194,HF_wild_card,2022.2.4,Linux x86_64,59.99520038,5a75e9c119042000015569af,64d2fd46c836a06233681665,64dc7bc93caf00f7e32eb0eb,,,,,,,ctch,resources/DG.BMP,resources/DBN.BMP,Door4,-0.32200287,-0.051286556,1,0,0,0.9447,optionLeft,60,15640,7,21,0,21,0,1,,,,,,,,,,,,,,,,,,,,,,,,,,,,,,,,,,,,,,,
,,,,,,,,2023-08-16_08h33.46.194,HF_wild_card,2022.2.4,Linux x86_64,59.99520038,5a75e9c119042000015569af,64d2fd46c836a06233681665,64dc7bc93caf00f7e32eb0eb,,,,,,,decisionTrl,resources/DB.BMP,resources/DBN.BMP,Door2,-0.302265591,-0.039172879,1,0,0,0.9676,optionLeft,40,15680,7,22,0,22,0,1,,,,,,,,,,,,,,,,,,,,,,,,,,,,,,,,,,,,,,,
,,,,,,,,2023-08-16_08h33.46.194,HF_wild_card,2022.2.4,Linux x86_64,59.99520038,5a75e9c119042000015569af,64d2fd46c836a06233681665,64dc7bc93caf00f7e32eb0eb,,,,,,,ctch,resources/DBN.BMP,resources/DG.BMP,Door4,0.392927664,-0.050043742,1,0,0,0.9323,optionRight,80,15760,7,23,0,23,0,1,,,,,,,,,,,,,,,,,,,,,,,,,,,,,,,,,,,,,,,
,,,,,,,,2023-08-16_08h33.46.194,HF_wild_card,2022.2.4,Linux x86_64,59.99520038,5a75e9c119042000015569af,64d2fd46c836a06233681665,64dc7bc93caf00f7e32eb0eb,,,,,,,decisionTrl,resources/DB.BMP,resources/DBN.BMP,Door2,-0.346290059,-0.054083365,1,0,0,1.2809,optionLeft,40,15800,7,24,0,24,0,1,,,,,,,,,,,,,,,,,,,,,,,,,,,,,,,,,,,,,,,
,,,,,,,,2023-08-16_08h33.46.194,HF_wild_card,2022.2.4,Linux x86_64,59.99520038,5a75e9c119042000015569af,64d2fd46c836a06233681665,64dc7bc93caf00f7e32eb0eb,,,,,,,decisionTrl,resources/DY.BMP,resources/DG.BMP,Door4,0.369756769,-0.025227193,1,0,0,1.6657,optionRight,60,15860,7,25,0,25,0,1,,,,,,,,,,,,,,,,,,,,,,,,,,,,,,,,,,,,,,,
,,,,,,,,2023-08-16_08h33.46.194,HF_wild_card,2022.2.4,Linux x86_64,59.99520038,5a75e9c119042000015569af,64d2fd46c836a06233681665,64dc7bc93caf00f7e32eb0eb,,,,,,,decisionTrl,resources/DY.BMP,resources/DG.BMP,Door4,0.355105789,-0.050534072,1,0,0,1.2014,optionRight,60,15920,7,26,0,26,0,1,,,,,,,,,,,,,,,,,,,,,,,,,,,,,,,,,,,,,,,
,,,,,,,,2023-08-16_08h33.46.194,HF_wild_card,2022.2.4,Linux x86_64,59.99520038,5a75e9c119042000015569af,64d2fd46c836a06233681665,64dc7bc93caf00f7e32eb0eb,,,,,,,decisionTrl,resources/DBN.BMP,resources/DB.BMP,Door2,0.320726465,-0.051083282,1,0,0,1.9198,optionRight,40,15960,7,27,0,27,0,1,,,,,,,,,,,,,,,,,,,,,,,,,,,,,,,,,,,,,,,
,,,,,,,,2023-08-16_08h33.46.194,HF_wild_card,2022.2.4,Linux x86_64,59.99520038,5a75e9c119042000015569af,64d2fd46c836a06233681665,64dc7bc93caf00f7e32eb0eb,,,,,,,decisionTrl,resources/DB.BMP,resources/DBN.BMP,Door2,-0.354965316,-0.051166287,1,0,0,1.1165,optionLeft,40,16000,7,28,0,28,0,1,,,,,,,,,,,,,,,,,,,,,,,,,,,,,,,,,,,,,,,
,,,,,,,,2023-08-16_08h33.46.194,HF_wild_card,2022.2.4,Linux x86_64,59.99520038,5a75e9c119042000015569af,64d2fd46c836a06233681665,64dc7bc93caf00f7e32eb0eb,,,,,,,ctch,resources/DY.BMP,resources/DB.BMP,Door3,-0.289747874,-0.060559661,1,0,0,1.1848,optionLeft,70,16070,7,29,0,29,0,1,,,,,,,,,,,,,,,,,,,,,,,,,,,,,,,,,,,,,,,
,,,,,,,,2023-08-16_08h33.46.194,HF_wild_card,2022.2.4,Linux x86_64,59.99520038,5a75e9c119042000015569af,64d2fd46c836a06233681665,64dc7bc93caf00f7e32eb0eb,,,,,,,decisionTrl,resources/DY.BMP,resources/DG.BMP,Door4,0.388759048,-0.021307557,1,0,0,1.2722,optionRight,60,16130,7,30,0,30,0,1,,,,,,,,,,,,,,,,,,,,,,,,,,,,,,,,,,,,,,,
,,,,,,,,2023-08-16_08h33.46.194,HF_wild_card,2022.2.4,Linux x86_64,59.99520038,5a75e9c119042000015569af,64d2fd46c836a06233681665,64dc7bc93caf00f7e32eb0eb,,,,,,,decisionTrl,resources/DY.BMP,resources/DG.BMP,Door4,0.282715409,-0.048612489,1,0,0,2.8326,optionRight,80,16210,7,31,0,31,0,1,,,,,,,,,,,,,,,,,,,,,,,,,,,,,,,,,,,,,,,
,,,,,,,,2023-08-16_08h33.46.194,HF_wild_card,2022.2.4,Linux x86_64,59.99520038,5a75e9c119042000015569af,64d2fd46c836a06233681665,64dc7bc93caf00f7e32eb0eb,,,,,,,decisionTrl,resources/DB.BMP,resources/DBN.BMP,Door2,-0.368233575,-0.082184968,1,0,0,1.0134,optionLeft,40,16250,7,32,0,32,0,1,,,,,,,,,,,,,,,,,,,,,,,,,,,,,,,,,,,,,,,
,,,,,,,,2023-08-16_08h33.46.194,HF_wild_card,2022.2.4,Linux x86_64,59.99520038,5a75e9c119042000015569af,64d2fd46c836a06233681665,64dc7bc93caf00f7e32eb0eb,,,,,,,decisionTrl,resources/DY.BMP,resources/DG.BMP,Door4,0.314930527,-0.057672571,1,0,0,1.0289,optionRight,80,16330,7,33,0,33,0,1,,,,,,,,,,,,,,,,,,,,,,,,,,,,,,,,,,,,,,,
,,,,,,,,2023-08-16_08h33.46.194,HF_wild_card,2022.2.4,Linux x86_64,59.99520038,5a75e9c119042000015569af,64d2fd46c836a06233681665,64dc7bc93caf00f7e32eb0eb,,,,,,,decisionTrl,resources/DG.BMP,resources/DY.BMP,Door4,-0.329988656,-0.083465929,1,0,0,1.0251,optionLeft,60,16390,7,34,0,34,0,1,,,,,,,,,,,,,,,,,,,,,,,,,,,,,,,,,,,,,,,
,,,,,,,,2023-08-16_08h33.46.194,HF_wild_card,2022.2.4,Linux x86_64,59.99520038,5a75e9c119042000015569af,64d2fd46c836a06233681665,64dc7bc93caf00f7e32eb0eb,,,,,,,ctch,resources/DB.BMP,resources/DY.BMP,Door3,0.344874629,-0.07377568,1,0,0,0.9817,optionRight,70,16460,7,35,0,35,0,1,,,,,,,,,,,,,,,,,,,,,,,,,,,,,,,,,,,,,,,
