Condition,Low fixed image (Door1),Low risky image (Door2),High fixed image (Door3),High risky image (Door4),Extreme Wild Card,NonExtreme Wild Card,,date,expName,psychopyVersion,OS,frameRate,PROLIFIC_PID,STUDY_ID,SESSION_ID,mouse_2.x,mouse_2.y,mouse_2.leftButton,mouse_2.midButton,mouse_2.rightButton,mouse_2.clicked_name,Trial Type,Left Option Image,Right Option Image,Chosen Door,mouse.x,mouse.y,mouse.leftButton,mouse.midButton,mouse.rightButton,mouse.time,mouse.clicked_name,Feedback,Cumulative Reward,Block,trial.thisRepN,trial.thisTrialN,trial.thisN,trial.thisIndex,trial.ran,blocks.thisRepN,blocks.thisTrialN,blocks.thisN,blocks.thisIndex,blocks.ran,Money conversion,First Outcome Reported,Shown Door (First Outcome),Displayed Image (First Outcome),outcomes.thisRepN,outcomes.thisTrialN,outcomes.thisN,outcomes.thisIndex,outcomes.ran,judgments.thisRepN,judgments.thisTrialN,judgments.thisN,judgments.thisIndex,judgments.ran,freqMouse.x,freqMouse.y,freqMouse.leftButton,freqMouse.midButton,freqMouse.rightButton,freqMouse.clicked_name,FQJ for first outcome,FQJ for second outcome,Shown Door,Displayed Image,trials.thisRepN,trials.thisTrialN,trials.thisN,trials.thisIndex,trials.ran,judgBlock.thisRepN,judgBlock.thisTrialN,judgBlock.thisN,judgBlock.thisIndex,judgBlock.ran
1,resources/DG.BMP,resources/DY.BMP,resources/DR.BMP,resources/DP.BMP,resources/DB.BMP,resources/DBN.BMP,,2023-08-16_08h07.01.247,HF_wild_card,2022.2.4,Win32,12.00148818,6400dc9a87b5f4d0c3604bf3,64d2fd46c836a06233681665,64dc7580e16980cfae864776,,,,,,,,,,,,,,,,,,,,,,,,,,,,,,,,,,,,,,,,,,,,,,,,,,,,,,,,,,,,,,,,
,,,,,,,,2023-08-16_08h07.01.247,HF_wild_card,2022.2.4,Win32,12.00148818,6400dc9a87b5f4d0c3604bf3,64d2fd46c836a06233681665,64dc7580e16980cfae864776,0.013888889,-0.425925926,1,0,0,agree,,,,,,,,,,,,,,,,,,,,,,,,,,,,,,,,,,,,,,,,,,,,,,,,,,,,,,,,,,
,,,,,,,,2023-08-16_08h07.01.247,HF_wild_card,2022.2.4,Win32,12.00148818,6400dc9a87b5f4d0c3604bf3,64d2fd46c836a06233681665,64dc7580e16980cfae864776,,,,,,,,,,,,,,,,,,,,,,,,,,,,,,,,,,,,,,,,,,,,,,,,,,,,,,,,,,,,,,,,
,,,,,,,,2023-08-16_08h07.01.247,HF_wild_card,2022.2.4,Win32,12.00148818,6400dc9a87b5f4d0c3604bf3,64d2fd46c836a06233681665,64dc7580e16980cfae864776,,,,,,,ctch,resources/DP.BMP,resources/DG.BMP,Door4,-0.372222222,-0.00462963,1,0,0,3.1377,optionLeft,80,80,1,0,0,0,0,1,,,,,,,,,,,,,,,,,,,,,,,,,,,,,,,,,,,,,,,
,,,,,,,,2023-08-16_08h07.01.247,HF_wild_card,2022.2.4,Win32,12.00148818,6400dc9a87b5f4d0c3604bf3,64d2fd46c836a06233681665,64dc7580e16980cfae864776,,,,,,,decisionTrl,resources/DY.BMP,resources/DG.BMP,Door1,0.32962963,-0.025,1,0,0,3.2992,optionRight,30,110,1,1,0,1,0,1,,,,,,,,,,,,,,,,,,,,,,,,,,,,,,,,,,,,,,,
,,,,,,,,2023-08-16_08h07.01.247,HF_wild_card,2022.2.4,Win32,12.00148818,6400dc9a87b5f4d0c3604bf3,64d2fd46c836a06233681665,64dc7580e16980cfae864776,,,,,,,sngl,resources/Empty.png,resources/DBN.BMP,WildCard_NonEx,0.344444444,-0.075,1,0,0,0.7675,optionRight,55,165,1,2,0,2,0,1,,,,,,,,,,,,,,,,,,,,,,,,,,,,,,,,,,,,,,,
,,,,,,,,2023-08-16_08h07.01.247,HF_wild_card,2022.2.4,Win32,12.00148818,6400dc9a87b5f4d0c3604bf3,64d2fd46c836a06233681665,64dc7580e16980cfae864776,,,,,,,decisionTrl,resources/DBN.BMP,resources/DR.BMP,WildCard_NonEx,-0.319444444,-0.027777778,1,0,0,0.5822,optionLeft,55,220,1,3,0,3,0,1,,,,,,,,,,,,,,,,,,,,,,,,,,,,,,,,,,,,,,,
,,,,,,,,2023-08-16_08h07.01.247,HF_wild_card,2022.2.4,Win32,12.00148818,6400dc9a87b5f4d0c3604bf3,64d2fd46c836a06233681665,64dc7580e16980cfae864776,,,,,,,decisionTrl,resources/DR.BMP,resources/DP.BMP,Door4,0.332407407,-0.035185185,1,0,0,0.9789,optionRight,80,300,1,4,0,4,0,1,,,,,,,,,,,,,,,,,,,,,,,,,,,,,,,,,,,,,,,
,,,,,,,,2023-08-16_08h07.01.247,HF_wild_card,2022.2.4,Win32,12.00148818,6400dc9a87b5f4d0c3604bf3,64d2fd46c836a06233681665,64dc7580e16980cfae864776,,,,,,,decisionTrl,resources/DR.BMP,resources/DP.BMP,Door4,0.498148148,0.15,1,0,0,2.8306,optionRight,60,360,1,5,0,5,0,1,,,,,,,,,,,,,,,,,,,,,,,,,,,,,,,,,,,,,,,
,,,,,,,,2023-08-16_08h07.01.247,HF_wild_card,2022.2.4,Win32,12.00148818,6400dc9a87b5f4d0c3604bf3,64d2fd46c836a06233681665,64dc7580e16980cfae864776,,,,,,,decisionTrl,resources/DY.BMP,resources/DG.BMP,Door1,0.362962963,-0.048148148,1,0,0,0.8342,optionRight,30,390,1,6,0,6,0,1,,,,,,,,,,,,,,,,,,,,,,,,,,,,,,,,,,,,,,,
,,,,,,,,2023-08-16_08h07.01.247,HF_wild_card,2022.2.4,Win32,12.00148818,6400dc9a87b5f4d0c3604bf3,64d2fd46c836a06233681665,64dc7580e16980cfae864776,,,,,,,ctch,resources/DG.BMP,resources/DP.BMP,Door4,0.375925926,-0.021296296,1,0,0,0.9812,optionRight,80,470,1,7,0,7,0,1,,,,,,,,,,,,,,,,,,,,,,,,,,,,,,,,,,,,,,,
,,,,,,,,2023-08-16_08h07.01.247,HF_wild_card,2022.2.4,Win32,12.00148818,6400dc9a87b5f4d0c3604bf3,64d2fd46c836a06233681665,64dc7580e16980cfae864776,,,,,,,sngl,resources/DR.BMP,resources/Empty.png,Door3,-0.422222222,0.060185185,1,0,0,1.0635,optionLeft,70,540,1,8,0,8,0,1,,,,,,,,,,,,,,,,,,,,,,,,,,,,,,,,,,,,,,,
,,,,,,,,2023-08-16_08h07.01.247,HF_wild_card,2022.2.4,Win32,12.00148818,6400dc9a87b5f4d0c3604bf3,64d2fd46c836a06233681665,64dc7580e16980cfae864776,,,,,,,decisionTrl,resources/DP.BMP,resources/DR.BMP,Door4,-0.311111111,0.041666667,1,0,0,1.9242,optionLeft,60,600,1,9,0,9,0,1,,,,,,,,,,,,,,,,,,,,,,,,,,,,,,,,,,,,,,,
,,,,,,,,2023-08-16_08h07.01.247,HF_wild_card,2022.2.4,Win32,12.00148818,6400dc9a87b5f4d0c3604bf3,64d2fd46c836a06233681665,64dc7580e16980cfae864776,,,,,,,ctch,resources/DP.BMP,resources/DG.BMP,Door1,0.409259259,0.014814815,1,0,0,2.4598,optionRight,30,630,1,10,0,10,0,1,,,,,,,,,,,,,,,,,,,,,,,,,,,,,,,,,,,,,,,
,,,,,,,,2023-08-16_08h07.01.247,HF_wild_card,2022.2.4,Win32,12.00148818,6400dc9a87b5f4d0c3604bf3,64d2fd46c836a06233681665,64dc7580e16980cfae864776,,,,,,,decisionTrl,resources/DG.BMP,resources/DY.BMP,Door1,-0.351851852,-0.041666667,1,0,0,0.5889,optionLeft,30,660,1,11,0,11,0,1,,,,,,,,,,,,,,,,,,,,,,,,,,,,,,,,,,,,,,,
,,,,,,,,2023-08-16_08h07.01.247,HF_wild_card,2022.2.4,Win32,12.00148818,6400dc9a87b5f4d0c3604bf3,64d2fd46c836a06233681665,64dc7580e16980cfae864776,,,,,,,decisionTrl,resources/DP.BMP,resources/DBN.BMP,WildCard_NonEx,0.407407407,0.027777778,1,0,0,2.2959,optionRight,45,705,1,12,0,12,0,1,,,,,,,,,,,,,,,,,,,,,,,,,,,,,,,,,,,,,,,
,,,,,,,,2023-08-16_08h07.01.247,HF_wild_card,2022.2.4,Win32,12.00148818,6400dc9a87b5f4d0c3604bf3,64d2fd46c836a06233681665,64dc7580e16980cfae864776,,,,,,,decisionTrl,resources/DP.BMP,resources/DR.BMP,Door3,0.438888889,-0.065740741,1,0,0,1.1661,optionRight,70,775,1,13,0,13,0,1,,,,,,,,,,,,,,,,,,,,,,,,,,,,,,,,,,,,,,,
,,,,,,,,2023-08-16_08h07.01.247,HF_wild_card,2022.2.4,Win32,12.00148818,6400dc9a87b5f4d0c3604bf3,64d2fd46c836a06233681665,64dc7580e16980cfae864776,,,,,,,decisionTrl,resources/DR.BMP,resources/DP.BMP,Door3,-0.264814815,-0.019444444,1,0,0,0.9639,optionLeft,70,845,1,14,0,14,0,1,,,,,,,,,,,,,,,,,,,,,,,,,,,,,,,,,,,,,,,
,,,,,,,,2023-08-16_08h07.01.247,HF_wild_card,2022.2.4,Win32,12.00148818,6400dc9a87b5f4d0c3604bf3,64d2fd46c836a06233681665,64dc7580e16980cfae864776,,,,,,,decisionTrl,resources/DY.BMP,resources/DG.BMP,Door2,-0.328703704,-0.008333333,1,0,0,1.2765,optionLeft,40,885,1,15,0,15,0,1,,,,,,,,,,,,,,,,,,,,,,,,,,,,,,,,,,,,,,,
,,,,,,,,2023-08-16_08h07.01.247,HF_wild_card,2022.2.4,Win32,12.00148818,6400dc9a87b5f4d0c3604bf3,64d2fd46c836a06233681665,64dc7580e16980cfae864776,,,,,,,sngl,resources/DG.BMP,resources/Empty.png,Door1,-0.162962963,-0.023148148,1,0,0,0.7946,optionLeft,30,915,1,16,0,16,0,1,,,,,,,,,,,,,,,,,,,,,,,,,,,,,,,,,,,,,,,
,,,,,,,,2023-08-16_08h07.01.247,HF_wild_card,2022.2.4,Win32,12.00148818,6400dc9a87b5f4d0c3604bf3,64d2fd46c836a06233681665,64dc7580e16980cfae864776,,,,,,,decisionTrl,resources/DG.BMP,resources/DY.BMP,Door2,0.352777778,-0.037962963,1,0,0,0.6774,optionRight,40,955,1,17,0,17,0,1,,,,,,,,,,,,,,,,,,,,,,,,,,,,,,,,,,,,,,,
,,,,,,,,2023-08-16_08h07.01.247,HF_wild_card,2022.2.4,Win32,12.00148818,6400dc9a87b5f4d0c3604bf3,64d2fd46c836a06233681665,64dc7580e16980cfae864776,,,,,,,sngl,resources/DP.BMP,resources/Empty.png,Door4,-0.381481481,0.008333333,1,0,0,0.6054,optionLeft,80,1035,1,18,0,18,0,1,,,,,,,,,,,,,,,,,,,,,,,,,,,,,,,,,,,,,,,
,,,,,,,,2023-08-16_08h07.01.247,HF_wild_card,2022.2.4,Win32,12.00148818,6400dc9a87b5f4d0c3604bf3,64d2fd46c836a06233681665,64dc7580e16980cfae864776,,,,,,,decisionTrl,resources/DBN.BMP,resources/DG.BMP,WildCard_NonEx,-0.441666667,0.037962963,1,0,0,0.6919,optionLeft,45,1080,1,19,0,19,0,1,,,,,,,,,,,,,,,,,,,,,,,,,,,,,,,,,,,,,,,
,,,,,,,,2023-08-16_08h07.01.247,HF_wild_card,2022.2.4,Win32,12.00148818,6400dc9a87b5f4d0c3604bf3,64d2fd46c836a06233681665,64dc7580e16980cfae864776,,,,,,,decisionTrl,resources/DR.BMP,resources/DP.BMP,Door4,0.362962963,-0.074074074,1,0,0,2.4043,optionRight,80,1160,1,20,0,20,0,1,,,,,,,,,,,,,,,,,,,,,,,,,,,,,,,,,,,,,,,
,,,,,,,,2023-08-16_08h07.01.247,HF_wild_card,2022.2.4,Win32,12.00148818,6400dc9a87b5f4d0c3604bf3,64d2fd46c836a06233681665,64dc7580e16980cfae864776,,,,,,,ctch,resources/DG.BMP,resources/DP.BMP,Door4,0.397222222,-0.056481481,1,0,0,0.589,optionRight,60,1220,1,21,0,21,0,1,,,,,,,,,,,,,,,,,,,,,,,,,,,,,,,,,,,,,,,
,,,,,,,,2023-08-16_08h07.01.247,HF_wild_card,2022.2.4,Win32,12.00148818,6400dc9a87b5f4d0c3604bf3,64d2fd46c836a06233681665,64dc7580e16980cfae864776,,,,,,,decisionTrl,resources/DY.BMP,resources/DBN.BMP,WildCard_NonEx,0.384259259,-0.027777778,1,0,0,0.6699,optionRight,55,1275,1,22,0,22,0,1,,,,,,,,,,,,,,,,,,,,,,,,,,,,,,,,,,,,,,,
,,,,,,,,2023-08-16_08h07.01.247,HF_wild_card,2022.2.4,Win32,12.00148818,6400dc9a87b5f4d0c3604bf3,64d2fd46c836a06233681665,64dc7580e16980cfae864776,,,,,,,decisionTrl,resources/DP.BMP,resources/DR.BMP,Door4,-0.340740741,0.00462963,1,0,0,1.6519,optionLeft,80,1355,1,23,0,23,0,1,,,,,,,,,,,,,,,,,,,,,,,,,,,,,,,,,,,,,,,
,,,,,,,,2023-08-16_08h07.01.247,HF_wild_card,2022.2.4,Win32,12.00148818,6400dc9a87b5f4d0c3604bf3,64d2fd46c836a06233681665,64dc7580e16980cfae864776,,,,,,,decisionTrl,resources/DBN.BMP,resources/DP.BMP,Door4,0.330555556,-0.049074074,1,0,0,0.5827,optionRight,80,1435,1,24,0,24,0,1,,,,,,,,,,,,,,,,,,,,,,,,,,,,,,,,,,,,,,,
,,,,,,,,2023-08-16_08h07.01.247,HF_wild_card,2022.2.4,Win32,12.00148818,6400dc9a87b5f4d0c3604bf3,64d2fd46c836a06233681665,64dc7580e16980cfae864776,,,,,,,decisionTrl,resources/DG.BMP,resources/DY.BMP,Door2,0.333333333,-0.013888889,1,0,0,0.8695,optionRight,20,1455,1,25,0,25,0,1,,,,,,,,,,,,,,,,,,,,,,,,,,,,,,,,,,,,,,,
,,,,,,,,2023-08-16_08h07.01.247,HF_wild_card,2022.2.4,Win32,12.00148818,6400dc9a87b5f4d0c3604bf3,64d2fd46c836a06233681665,64dc7580e16980cfae864776,,,,,,,sngl,resources/Empty.png,resources/DBN.BMP,WildCard_NonEx,0.299074074,-0.013888889,1,0,0,0.6074,optionRight,45,1500,1,26,0,26,0,1,,,,,,,,,,,,,,,,,,,,,,,,,,,,,,,,,,,,,,,
,,,,,,,,2023-08-16_08h07.01.247,HF_wild_card,2022.2.4,Win32,12.00148818,6400dc9a87b5f4d0c3604bf3,64d2fd46c836a06233681665,64dc7580e16980cfae864776,,,,,,,sngl,resources/Empty.png,resources/DY.BMP,Door2,0.287962963,-0.013888889,1,0,0,0.617,optionRight,20,1520,1,27,0,27,0,1,,,,,,,,,,,,,,,,,,,,,,,,,,,,,,,,,,,,,,,
,,,,,,,,2023-08-16_08h07.01.247,HF_wild_card,2022.2.4,Win32,12.00148818,6400dc9a87b5f4d0c3604bf3,64d2fd46c836a06233681665,64dc7580e16980cfae864776,,,,,,,decisionTrl,resources/DR.BMP,resources/DBN.BMP,Door3,0.001851852,0.000925926,1,0,0,0.2899,optionLeft,70,1590,1,28,0,28,0,1,,,,,,,,,,,,,,,,,,,,,,,,,,,,,,,,,,,,,,,
,,,,,,,,2023-08-16_08h07.01.247,HF_wild_card,2022.2.4,Win32,12.00148818,6400dc9a87b5f4d0c3604bf3,64d2fd46c836a06233681665,64dc7580e16980cfae864776,,,,,,,decisionTrl,resources/DG.BMP,resources/DY.BMP,Door1,-0.413888889,0.04537037,1,0,0,1.6374,optionLeft,30,1620,1,29,0,29,0,1,,,,,,,,,,,,,,,,,,,,,,,,,,,,,,,,,,,,,,,
,,,,,,,,2023-08-16_08h07.01.247,HF_wild_card,2022.2.4,Win32,12.00148818,6400dc9a87b5f4d0c3604bf3,64d2fd46c836a06233681665,64dc7580e16980cfae864776,,,,,,,decisionTrl,resources/DP.BMP,resources/DR.BMP,Door3,0.30462963,-0.047222222,1,0,0,0.8988,optionRight,70,1690,1,30,0,30,0,1,,,,,,,,,,,,,,,,,,,,,,,,,,,,,,,,,,,,,,,
,,,,,,,,2023-08-16_08h07.01.247,HF_wild_card,2022.2.4,Win32,12.00148818,6400dc9a87b5f4d0c3604bf3,64d2fd46c836a06233681665,64dc7580e16980cfae864776,,,,,,,sngl,resources/DY.BMP,resources/Empty.png,Door2,-0.32037037,-0.026851852,1,0,0,0.63,optionLeft,40,1730,1,31,0,31,0,1,,,,,,,,,,,,,,,,,,,,,,,,,,,,,,,,,,,,,,,
,,,,,,,,2023-08-16_08h07.01.247,HF_wild_card,2022.2.4,Win32,12.00148818,6400dc9a87b5f4d0c3604bf3,64d2fd46c836a06233681665,64dc7580e16980cfae864776,,,,,,,decisionTrl,resources/DY.BMP,resources/DG.BMP,Door2,-0.314814815,0.003703704,1,0,0,1.968,optionLeft,20,1750,1,32,0,32,0,1,,,,,,,,,,,,,,,,,,,,,,,,,,,,,,,,,,,,,,,
,,,,,,,,2023-08-16_08h07.01.247,HF_wild_card,2022.2.4,Win32,12.00148818,6400dc9a87b5f4d0c3604bf3,64d2fd46c836a06233681665,64dc7580e16980cfae864776,,,,,,,sngl,resources/Empty.png,resources/DP.BMP,Door4,0.282407407,-0.009259259,1,0,0,0.6297,optionRight,60,1810,1,33,0,33,0,1,,,,,,,,,,,,,,,,,,,,,,,,,,,,,,,,,,,,,,,
,,,,,,,,2023-08-16_08h07.01.247,HF_wild_card,2022.2.4,Win32,12.00148818,6400dc9a87b5f4d0c3604bf3,64d2fd46c836a06233681665,64dc7580e16980cfae864776,,,,,,,ctch,resources/DR.BMP,resources/DY.BMP,Door3,-0.25,-0.028703704,1,0,0,1.5689,optionLeft,70,1880,1,34,0,34,0,1,,,,,,,,,,,,,,,,,,,,,,,,,,,,,,,,,,,,,,,
,,,,,,,,2023-08-16_08h07.01.247,HF_wild_card,2022.2.4,Win32,12.00148818,6400dc9a87b5f4d0c3604bf3,64d2fd46c836a06233681665,64dc7580e16980cfae864776,,,,,,,sngl,resources/DBN.BMP,resources/Empty.png,WildCard_NonEx,-0.325,-0.007407407,1,0,0,0.5301,optionLeft,45,1925,1,35,0,35,0,1,,,,,,,,,,,,,,,,,,,,,,,,,,,,,,,,,,,,,,,
,,,,,,,,2023-08-16_08h07.01.247,HF_wild_card,2022.2.4,Win32,12.00148818,6400dc9a87b5f4d0c3604bf3,64d2fd46c836a06233681665,64dc7580e16980cfae864776,,,,,,,decisionTrl,resources/DG.BMP,resources/DBN.BMP,WildCard_NonEx,0.350925926,0.048148148,1,0,0,2.8794,optionRight,45,1970,1,36,0,36,0,1,,,,,,,,,,,,,,,,,,,,,,,,,,,,,,,,,,,,,,,
,,,,,,,,2023-08-16_08h07.01.247,HF_wild_card,2022.2.4,Win32,12.00148818,6400dc9a87b5f4d0c3604bf3,64d2fd46c836a06233681665,64dc7580e16980cfae864776,,,,,,,decisionTrl,resources/DBN.BMP,resources/DY.BMP,WildCard_NonEx,-0.169444444,0.039814815,1,0,0,1.3506,optionLeft,45,2015,1,37,0,37,0,1,,,,,,,,,,,,,,,,,,,,,,,,,,,,,,,,,,,,,,,
,,,,,,,,2023-08-16_08h07.01.247,HF_wild_card,2022.2.4,Win32,12.00148818,6400dc9a87b5f4d0c3604bf3,64d2fd46c836a06233681665,64dc7580e16980cfae864776,,,,,,,sngl,resources/Empty.png,resources/DR.BMP,Door3,0.32037037,-0.007407407,1,0,0,0.6343,optionRight,70,2085,1,38,0,38,0,1,,,,,,,,,,,,,,,,,,,,,,,,,,,,,,,,,,,,,,,
,,,,,,,,2023-08-16_08h07.01.247,HF_wild_card,2022.2.4,Win32,12.00148818,6400dc9a87b5f4d0c3604bf3,64d2fd46c836a06233681665,64dc7580e16980cfae864776,,,,,,,ctch,resources/DR.BMP,resources/DY.BMP,Door3,-0.235185185,0.034259259,1,0,0,1.2786,optionLeft,70,2155,1,39,0,39,0,1,,,,,,,,,,,,,,,,,,,,,,,,,,,,,,,,,,,,,,,
,,,,,,,,2023-08-16_08h07.01.247,HF_wild_card,2022.2.4,Win32,12.00148818,6400dc9a87b5f4d0c3604bf3,64d2fd46c836a06233681665,64dc7580e16980cfae864776,,,,,,,ctch,resources/DY.BMP,resources/DR.BMP,Door3,0.542592593,-0.035185185,1,0,0,1.3285,optionRight,70,2225,1,40,0,40,0,1,,,,,,,,,,,,,,,,,,,,,,,,,,,,,,,,,,,,,,,
,,,,,,,,2023-08-16_08h07.01.247,HF_wild_card,2022.2.4,Win32,12.00148818,6400dc9a87b5f4d0c3604bf3,64d2fd46c836a06233681665,64dc7580e16980cfae864776,,,,,,,ctch,resources/DY.BMP,resources/DR.BMP,Door3,0.437037037,-0.009259259,1,0,0,0.6982,optionRight,70,2295,1,41,0,41,0,1,,,,,,,,,,,,,,,,,,,,,,,,,,,,,,,,,,,,,,,
,,,,,,,,2023-08-16_08h07.01.247,HF_wild_card,2022.2.4,Win32,12.00148818,6400dc9a87b5f4d0c3604bf3,64d2fd46c836a06233681665,64dc7580e16980cfae864776,,,,,,,sngl,resources/Empty.png,resources/DG.BMP,Door1,0.294444444,-0.008333333,1,0,0,0.7846,optionRight,30,2325,1,42,0,42,0,1,,,,,,,,,,,,,,,,,,,,,,,,,,,,,,,,,,,,,,,
,,,,,,,,2023-08-16_08h07.01.247,HF_wild_card,2022.2.4,Win32,12.00148818,6400dc9a87b5f4d0c3604bf3,64d2fd46c836a06233681665,64dc7580e16980cfae864776,,,,,,,sngl,resources/DBN.BMP,resources/Empty.png,WildCard_NonEx,-0.330555556,-0.007407407,1,0,0,3.3004,optionLeft,55,2380,1,43,0,43,0,1,,,,,,,,,,,,,,,,,,,,,,,,,,,,,,,,,,,,,,,
,,,,,,,,2023-08-16_08h07.01.247,HF_wild_card,2022.2.4,Win32,12.00148818,6400dc9a87b5f4d0c3604bf3,64d2fd46c836a06233681665,64dc7580e16980cfae864776,,,,,,,,,,,,,,,,,,,,,,,,,,0,0,0,0,1,,,,,,,,,,,,,,,,,,,,,,,,,,,,,,,,,,
,,,,,,,,2023-08-16_08h07.01.247,HF_wild_card,2022.2.4,Win32,12.00148818,6400dc9a87b5f4d0c3604bf3,64d2fd46c836a06233681665,64dc7580e16980cfae864776,,,,,,,decisionTrl,resources/DP.BMP,resources/DR.BMP,Door4,-0.52037037,-0.002777778,1,0,0,1.0792,optionLeft,60,2440,2,0,0,0,0,1,,,,,,,,,,,,,,,,,,,,,,,,,,,,,,,,,,,,,,,
,,,,,,,,2023-08-16_08h07.01.247,HF_wild_card,2022.2.4,Win32,12.00148818,6400dc9a87b5f4d0c3604bf3,64d2fd46c836a06233681665,64dc7580e16980cfae864776,,,,,,,sngl,resources/Empty.png,resources/DBN.BMP,WildCard_NonEx,0.378703704,-0.106481481,1,0,0,1.2494,optionRight,45,2485,2,1,0,1,0,1,,,,,,,,,,,,,,,,,,,,,,,,,,,,,,,,,,,,,,,
,,,,,,,,2023-08-16_08h07.01.247,HF_wild_card,2022.2.4,Win32,12.00148818,6400dc9a87b5f4d0c3604bf3,64d2fd46c836a06233681665,64dc7580e16980cfae864776,,,,,,,ctch,resources/DR.BMP,resources/DY.BMP,Door3,-0.348148148,0.009259259,1,0,0,0.5839,optionLeft,70,2555,2,2,0,2,0,1,,,,,,,,,,,,,,,,,,,,,,,,,,,,,,,,,,,,,,,
,,,,,,,,2023-08-16_08h07.01.247,HF_wild_card,2022.2.4,Win32,12.00148818,6400dc9a87b5f4d0c3604bf3,64d2fd46c836a06233681665,64dc7580e16980cfae864776,,,,,,,sngl,resources/Empty.png,resources/DP.BMP,Door4,0.381481481,-0.058333333,1,0,0,0.589,optionRight,80,2635,2,3,0,3,0,1,,,,,,,,,,,,,,,,,,,,,,,,,,,,,,,,,,,,,,,
,,,,,,,,2023-08-16_08h07.01.247,HF_wild_card,2022.2.4,Win32,12.00148818,6400dc9a87b5f4d0c3604bf3,64d2fd46c836a06233681665,64dc7580e16980cfae864776,,,,,,,decisionTrl,resources/DP.BMP,resources/DR.BMP,Door4,-0.221296296,-0.001851852,1,0,0,1.4771,optionLeft,80,2715,2,4,0,4,0,1,,,,,,,,,,,,,,,,,,,,,,,,,,,,,,,,,,,,,,,
,,,,,,,,2023-08-16_08h07.01.247,HF_wild_card,2022.2.4,Win32,12.00148818,6400dc9a87b5f4d0c3604bf3,64d2fd46c836a06233681665,64dc7580e16980cfae864776,,,,,,,decisionTrl,resources/DG.BMP,resources/DY.BMP,Door2,0.372222222,0.013888889,1,0,0,1.4586,optionRight,40,2755,2,5,0,5,0,1,,,,,,,,,,,,,,,,,,,,,,,,,,,,,,,,,,,,,,,
,,,,,,,,2023-08-16_08h07.01.247,HF_wild_card,2022.2.4,Win32,12.00148818,6400dc9a87b5f4d0c3604bf3,64d2fd46c836a06233681665,64dc7580e16980cfae864776,,,,,,,decisionTrl,resources/DY.BMP,resources/DG.BMP,Door2,-0.390740741,0.042592593,1,0,0,0.7665,optionLeft,20,2775,2,6,0,6,0,1,,,,,,,,,,,,,,,,,,,,,,,,,,,,,,,,,,,,,,,
,,,,,,,,2023-08-16_08h07.01.247,HF_wild_card,2022.2.4,Win32,12.00148818,6400dc9a87b5f4d0c3604bf3,64d2fd46c836a06233681665,64dc7580e16980cfae864776,,,,,,,ctch,resources/DP.BMP,resources/DG.BMP,Door4,-0.375925926,-0.026851852,1,0,0,1.4497,optionLeft,80,2855,2,7,0,7,0,1,,,,,,,,,,,,,,,,,,,,,,,,,,,,,,,,,,,,,,,
,,,,,,,,2023-08-16_08h07.01.247,HF_wild_card,2022.2.4,Win32,12.00148818,6400dc9a87b5f4d0c3604bf3,64d2fd46c836a06233681665,64dc7580e16980cfae864776,,,,,,,sngl,resources/DG.BMP,resources/Empty.png,Door1,-0.417592593,0.039814815,1,0,0,1.1409,optionLeft,30,2885,2,8,0,8,0,1,,,,,,,,,,,,,,,,,,,,,,,,,,,,,,,,,,,,,,,
,,,,,,,,2023-08-16_08h07.01.247,HF_wild_card,2022.2.4,Win32,12.00148818,6400dc9a87b5f4d0c3604bf3,64d2fd46c836a06233681665,64dc7580e16980cfae864776,,,,,,,ctch,resources/DY.BMP,resources/DR.BMP,Door3,0.317592593,-0.019444444,1,0,0,1.3862,optionRight,70,2955,2,9,0,9,0,1,,,,,,,,,,,,,,,,,,,,,,,,,,,,,,,,,,,,,,,
,,,,,,,,2023-08-16_08h07.01.247,HF_wild_card,2022.2.4,Win32,12.00148818,6400dc9a87b5f4d0c3604bf3,64d2fd46c836a06233681665,64dc7580e16980cfae864776,,,,,,,decisionTrl,resources/DP.BMP,resources/DR.BMP,Door4,-0.326851852,0.018518519,1,0,0,1.8034,optionLeft,60,3015,2,10,0,10,0,1,,,,,,,,,,,,,,,,,,,,,,,,,,,,,,,,,,,,,,,
,,,,,,,,2023-08-16_08h07.01.247,HF_wild_card,2022.2.4,Win32,12.00148818,6400dc9a87b5f4d0c3604bf3,64d2fd46c836a06233681665,64dc7580e16980cfae864776,,,,,,,decisionTrl,resources/DY.BMP,resources/DBN.BMP,WildCard_NonEx,0.393518519,-0.051851852,1,0,0,1.1494,optionRight,55,3070,2,11,0,11,0,1,,,,,,,,,,,,,,,,,,,,,,,,,,,,,,,,,,,,,,,
,,,,,,,,2023-08-16_08h07.01.247,HF_wild_card,2022.2.4,Win32,12.00148818,6400dc9a87b5f4d0c3604bf3,64d2fd46c836a06233681665,64dc7580e16980cfae864776,,,,,,,sngl,resources/Empty.png,resources/DBN.BMP,WildCard_NonEx,0.491666667,-0.010185185,1,0,0,0.6327,optionRight,55,3125,2,12,0,12,0,1,,,,,,,,,,,,,,,,,,,,,,,,,,,,,,,,,,,,,,,
,,,,,,,,2023-08-16_08h07.01.247,HF_wild_card,2022.2.4,Win32,12.00148818,6400dc9a87b5f4d0c3604bf3,64d2fd46c836a06233681665,64dc7580e16980cfae864776,,,,,,,decisionTrl,resources/DR.BMP,resources/DP.BMP,Door4,0.387962963,-0.017592593,1,0,0,2.9115,optionRight,60,3185,2,13,0,13,0,1,,,,,,,,,,,,,,,,,,,,,,,,,,,,,,,,,,,,,,,
,,,,,,,,2023-08-16_08h07.01.247,HF_wild_card,2022.2.4,Win32,12.00148818,6400dc9a87b5f4d0c3604bf3,64d2fd46c836a06233681665,64dc7580e16980cfae864776,,,,,,,ctch,resources/DR.BMP,resources/DY.BMP,Door3,-0.477777778,0.062962963,1,0,0,2.155,optionLeft,70,3255,2,14,0,14,0,1,,,,,,,,,,,,,,,,,,,,,,,,,,,,,,,,,,,,,,,
,,,,,,,,2023-08-16_08h07.01.247,HF_wild_card,2022.2.4,Win32,12.00148818,6400dc9a87b5f4d0c3604bf3,64d2fd46c836a06233681665,64dc7580e16980cfae864776,,,,,,,sngl,resources/Empty.png,resources/DR.BMP,Door3,0.299074074,-0.005555556,1,0,0,0.5526,optionRight,70,3325,2,15,0,15,0,1,,,,,,,,,,,,,,,,,,,,,,,,,,,,,,,,,,,,,,,
,,,,,,,,2023-08-16_08h07.01.247,HF_wild_card,2022.2.4,Win32,12.00148818,6400dc9a87b5f4d0c3604bf3,64d2fd46c836a06233681665,64dc7580e16980cfae864776,,,,,,,ctch,resources/DG.BMP,resources/DP.BMP,Door4,0.361111111,-0.026851852,1,0,0,0.8988,optionRight,60,3385,2,16,0,16,0,1,,,,,,,,,,,,,,,,,,,,,,,,,,,,,,,,,,,,,,,
,,,,,,,,2023-08-16_08h07.01.247,HF_wild_card,2022.2.4,Win32,12.00148818,6400dc9a87b5f4d0c3604bf3,64d2fd46c836a06233681665,64dc7580e16980cfae864776,,,,,,,sngl,resources/DR.BMP,resources/Empty.png,Door3,-0.373148148,0.037037037,1,0,0,0.6134,optionLeft,70,3455,2,17,0,17,0,1,,,,,,,,,,,,,,,,,,,,,,,,,,,,,,,,,,,,,,,
,,,,,,,,2023-08-16_08h07.01.247,HF_wild_card,2022.2.4,Win32,12.00148818,6400dc9a87b5f4d0c3604bf3,64d2fd46c836a06233681665,64dc7580e16980cfae864776,,,,,,,decisionTrl,resources/DY.BMP,resources/DG.BMP,Door2,-0.197222222,0.016666667,1,0,0,1.9406,optionLeft,20,3475,2,18,0,18,0,1,,,,,,,,,,,,,,,,,,,,,,,,,,,,,,,,,,,,,,,
,,,,,,,,2023-08-16_08h07.01.247,HF_wild_card,2022.2.4,Win32,12.00148818,6400dc9a87b5f4d0c3604bf3,64d2fd46c836a06233681665,64dc7580e16980cfae864776,,,,,,,decisionTrl,resources/DBN.BMP,resources/DR.BMP,Door3,0.363888889,-0.050925926,1,0,0,1.0626,optionRight,70,3545,2,19,0,19,0,1,,,,,,,,,,,,,,,,,,,,,,,,,,,,,,,,,,,,,,,
,,,,,,,,2023-08-16_08h07.01.247,HF_wild_card,2022.2.4,Win32,12.00148818,6400dc9a87b5f4d0c3604bf3,64d2fd46c836a06233681665,64dc7580e16980cfae864776,,,,,,,sngl,resources/DP.BMP,resources/Empty.png,Door4,-0.314814815,0.005555556,1,0,0,0.6061,optionLeft,60,3605,2,20,0,20,0,1,,,,,,,,,,,,,,,,,,,,,,,,,,,,,,,,,,,,,,,
,,,,,,,,2023-08-16_08h07.01.247,HF_wild_card,2022.2.4,Win32,12.00148818,6400dc9a87b5f4d0c3604bf3,64d2fd46c836a06233681665,64dc7580e16980cfae864776,,,,,,,decisionTrl,resources/DY.BMP,resources/DG.BMP,Door1,0.396296296,-0.024074074,1,0,0,2.5441,optionRight,30,3635,2,21,0,21,0,1,,,,,,,,,,,,,,,,,,,,,,,,,,,,,,,,,,,,,,,
,,,,,,,,2023-08-16_08h07.01.247,HF_wild_card,2022.2.4,Win32,12.00148818,6400dc9a87b5f4d0c3604bf3,64d2fd46c836a06233681665,64dc7580e16980cfae864776,,,,,,,decisionTrl,resources/DBN.BMP,resources/DG.BMP,WildCard_NonEx,-0.368518519,0.044444444,1,0,0,0.8771,optionLeft,45,3680,2,22,0,22,0,1,,,,,,,,,,,,,,,,,,,,,,,,,,,,,,,,,,,,,,,
,,,,,,,,2023-08-16_08h07.01.247,HF_wild_card,2022.2.4,Win32,12.00148818,6400dc9a87b5f4d0c3604bf3,64d2fd46c836a06233681665,64dc7580e16980cfae864776,,,,,,,decisionTrl,resources/DR.BMP,resources/DP.BMP,Door3,-0.352777778,0.025,1,0,0,1.2125,optionLeft,70,3750,2,23,0,23,0,1,,,,,,,,,,,,,,,,,,,,,,,,,,,,,,,,,,,,,,,
,,,,,,,,2023-08-16_08h07.01.247,HF_wild_card,2022.2.4,Win32,12.00148818,6400dc9a87b5f4d0c3604bf3,64d2fd46c836a06233681665,64dc7580e16980cfae864776,,,,,,,decisionTrl,resources/DG.BMP,resources/DY.BMP,Door2,0.424074074,-0.017592593,1,0,0,1.4187,optionRight,20,3770,2,24,0,24,0,1,,,,,,,,,,,,,,,,,,,,,,,,,,,,,,,,,,,,,,,
,,,,,,,,2023-08-16_08h07.01.247,HF_wild_card,2022.2.4,Win32,12.00148818,6400dc9a87b5f4d0c3604bf3,64d2fd46c836a06233681665,64dc7580e16980cfae864776,,,,,,,sngl,resources/DBN.BMP,resources/Empty.png,WildCard_NonEx,-0.285185185,-0.02962963,1,0,0,0.6102,optionLeft,55,3825,2,25,0,25,0,1,,,,,,,,,,,,,,,,,,,,,,,,,,,,,,,,,,,,,,,
,,,,,,,,2023-08-16_08h07.01.247,HF_wild_card,2022.2.4,Win32,12.00148818,6400dc9a87b5f4d0c3604bf3,64d2fd46c836a06233681665,64dc7580e16980cfae864776,,,,,,,decisionTrl,resources/DG.BMP,resources/DY.BMP,Door2,0.240740741,0.027777778,1,0,0,1.3551,optionRight,20,3845,2,26,0,26,0,1,,,,,,,,,,,,,,,,,,,,,,,,,,,,,,,,,,,,,,,
,,,,,,,,2023-08-16_08h07.01.247,HF_wild_card,2022.2.4,Win32,12.00148818,6400dc9a87b5f4d0c3604bf3,64d2fd46c836a06233681665,64dc7580e16980cfae864776,,,,,,,decisionTrl,resources/DP.BMP,resources/DR.BMP,Door4,-0.318518519,0.006481481,1,0,0,2.5334,optionLeft,80,3925,2,27,0,27,0,1,,,,,,,,,,,,,,,,,,,,,,,,,,,,,,,,,,,,,,,
,,,,,,,,2023-08-16_08h07.01.247,HF_wild_card,2022.2.4,Win32,12.00148818,6400dc9a87b5f4d0c3604bf3,64d2fd46c836a06233681665,64dc7580e16980cfae864776,,,,,,,decisionTrl,resources/DY.BMP,resources/DG.BMP,Door1,0.342592593,0.050925926,1,0,0,3.7908,optionRight,30,3955,2,28,0,28,0,1,,,,,,,,,,,,,,,,,,,,,,,,,,,,,,,,,,,,,,,
,,,,,,,,2023-08-16_08h07.01.247,HF_wild_card,2022.2.4,Win32,12.00148818,6400dc9a87b5f4d0c3604bf3,64d2fd46c836a06233681665,64dc7580e16980cfae864776,,,,,,,sngl,resources/Empty.png,resources/DY.BMP,Door2,0.361111111,0.019444444,1,0,0,0.6914,optionRight,40,3995,2,29,0,29,0,1,,,,,,,,,,,,,,,,,,,,,,,,,,,,,,,,,,,,,,,
,,,,,,,,2023-08-16_08h07.01.247,HF_wild_card,2022.2.4,Win32,12.00148818,6400dc9a87b5f4d0c3604bf3,64d2fd46c836a06233681665,64dc7580e16980cfae864776,,,,,,,decisionTrl,resources/DG.BMP,resources/DY.BMP,Door2,0.390740741,-0.012962963,1,0,0,1.8626,optionRight,40,4035,2,30,0,30,0,1,,,,,,,,,,,,,,,,,,,,,,,,,,,,,,,,,,,,,,,
,,,,,,,,2023-08-16_08h07.01.247,HF_wild_card,2022.2.4,Win32,12.00148818,6400dc9a87b5f4d0c3604bf3,64d2fd46c836a06233681665,64dc7580e16980cfae864776,,,,,,,sngl,resources/DY.BMP,resources/Empty.png,Door2,-0.278703704,-0.053703704,1,0,0,0.6288,optionLeft,20,4055,2,31,0,31,0,1,,,,,,,,,,,,,,,,,,,,,,,,,,,,,,,,,,,,,,,
,,,,,,,,2023-08-16_08h07.01.247,HF_wild_card,2022.2.4,Win32,12.00148818,6400dc9a87b5f4d0c3604bf3,64d2fd46c836a06233681665,64dc7580e16980cfae864776,,,,,,,decisionTrl,resources/DR.BMP,resources/DBN.BMP,Door3,-0.300925926,-0.056481481,1,0,0,1.5399,optionLeft,70,4125,2,32,0,32,0,1,,,,,,,,,,,,,,,,,,,,,,,,,,,,,,,,,,,,,,,
,,,,,,,,2023-08-16_08h07.01.247,HF_wild_card,2022.2.4,Win32,12.00148818,6400dc9a87b5f4d0c3604bf3,64d2fd46c836a06233681665,64dc7580e16980cfae864776,,,,,,,decisionTrl,resources/DR.BMP,resources/DP.BMP,Door3,-0.365740741,0.057407407,1,0,0,5.2795,optionLeft,70,4195,2,33,0,33,0,1,,,,,,,,,,,,,,,,,,,,,,,,,,,,,,,,,,,,,,,
,,,,,,,,2023-08-16_08h07.01.247,HF_wild_card,2022.2.4,Win32,12.00148818,6400dc9a87b5f4d0c3604bf3,64d2fd46c836a06233681665,64dc7580e16980cfae864776,,,,,,,decisionTrl,resources/DR.BMP,resources/DP.BMP,Door3,0.009259259,0.003703704,1,0,0,0.2939,optionLeft,70,4265,2,34,0,34,0,1,,,,,,,,,,,,,,,,,,,,,,,,,,,,,,,,,,,,,,,
,,,,,,,,2023-08-16_08h07.01.247,HF_wild_card,2022.2.4,Win32,12.00148818,6400dc9a87b5f4d0c3604bf3,64d2fd46c836a06233681665,64dc7580e16980cfae864776,,,,,,,ctch,resources/DG.BMP,resources/DP.BMP,Door4,0.326851852,0.030555556,1,0,0,5.9077,optionRight,60,4325,2,35,0,35,0,1,,,,,,,,,,,,,,,,,,,,,,,,,,,,,,,,,,,,,,,
,,,,,,,,2023-08-16_08h07.01.247,HF_wild_card,2022.2.4,Win32,12.00148818,6400dc9a87b5f4d0c3604bf3,64d2fd46c836a06233681665,64dc7580e16980cfae864776,,,,,,,ctch,resources/DP.BMP,resources/DG.BMP,Door4,-0.306481481,-0.018518519,1,0,0,0.6811,optionLeft,80,4405,2,36,0,36,0,1,,,,,,,,,,,,,,,,,,,,,,,,,,,,,,,,,,,,,,,
,,,,,,,,2023-08-16_08h07.01.247,HF_wild_card,2022.2.4,Win32,12.00148818,6400dc9a87b5f4d0c3604bf3,64d2fd46c836a06233681665,64dc7580e16980cfae864776,,,,,,,decisionTrl,resources/DG.BMP,resources/DBN.BMP,WildCard_NonEx,0.340740741,-0.024074074,1,0,0,0.9671,optionRight,55,4460,2,37,0,37,0,1,,,,,,,,,,,,,,,,,,,,,,,,,,,,,,,,,,,,,,,
,,,,,,,,2023-08-16_08h07.01.247,HF_wild_card,2022.2.4,Win32,12.00148818,6400dc9a87b5f4d0c3604bf3,64d2fd46c836a06233681665,64dc7580e16980cfae864776,,,,,,,sngl,resources/Empty.png,resources/DG.BMP,Door1,0.280555556,-0.003703704,1,0,0,0.7282,optionRight,30,4490,2,38,0,38,0,1,,,,,,,,,,,,,,,,,,,,,,,,,,,,,,,,,,,,,,,
,,,,,,,,2023-08-16_08h07.01.247,HF_wild_card,2022.2.4,Win32,12.00148818,6400dc9a87b5f4d0c3604bf3,64d2fd46c836a06233681665,64dc7580e16980cfae864776,,,,,,,decisionTrl,resources/DP.BMP,resources/DBN.BMP,Door4,-0.337962963,-0.015740741,1,0,0,0.8711,optionLeft,60,4550,2,39,0,39,0,1,,,,,,,,,,,,,,,,,,,,,,,,,,,,,,,,,,,,,,,
,,,,,,,,2023-08-16_08h07.01.247,HF_wild_card,2022.2.4,Win32,12.00148818,6400dc9a87b5f4d0c3604bf3,64d2fd46c836a06233681665,64dc7580e16980cfae864776,,,,,,,ctch,resources/DY.BMP,resources/DR.BMP,Door3,0.239814815,-0.006481481,1,0,0,1.445,optionRight,70,4620,2,40,0,40,0,1,,,,,,,,,,,,,,,,,,,,,,,,,,,,,,,,,,,,,,,
,,,,,,,,2023-08-16_08h07.01.247,HF_wild_card,2022.2.4,Win32,12.00148818,6400dc9a87b5f4d0c3604bf3,64d2fd46c836a06233681665,64dc7580e16980cfae864776,,,,,,,sngl,resources/DBN.BMP,resources/Empty.png,WildCard_NonEx,-0.336111111,0.012037037,1,0,0,0.641,optionLeft,45,4665,2,41,0,41,0,1,,,,,,,,,,,,,,,,,,,,,,,,,,,,,,,,,,,,,,,
,,,,,,,,2023-08-16_08h07.01.247,HF_wild_card,2022.2.4,Win32,12.00148818,6400dc9a87b5f4d0c3604bf3,64d2fd46c836a06233681665,64dc7580e16980cfae864776,,,,,,,decisionTrl,resources/DBN.BMP,resources/DY.BMP,WildCard_NonEx,-0.287037037,0.009259259,1,0,0,1.0612,optionLeft,45,4710,2,42,0,42,0,1,,,,,,,,,,,,,,,,,,,,,,,,,,,,,,,,,,,,,,,
,,,,,,,,2023-08-16_08h07.01.247,HF_wild_card,2022.2.4,Win32,12.00148818,6400dc9a87b5f4d0c3604bf3,64d2fd46c836a06233681665,64dc7580e16980cfae864776,,,,,,,decisionTrl,resources/DBN.BMP,resources/DP.BMP,Door4,0.328703704,-0.02962963,1,0,0,0.9735,optionRight,60,4770,2,43,0,43,0,1,,,,,,,,,,,,,,,,,,,,,,,,,,,,,,,,,,,,,,,
,,,,,,,,2023-08-16_08h07.01.247,HF_wild_card,2022.2.4,Win32,12.00148818,6400dc9a87b5f4d0c3604bf3,64d2fd46c836a06233681665,64dc7580e16980cfae864776,,,,,,,,,,,,,,,,,,,,,,,,,,1,0,1,0,1,,,,,,,,,,,,,,,,,,,,,,,,,,,,,,,,,,
,,,,,,,,2023-08-16_08h07.01.247,HF_wild_card,2022.2.4,Win32,12.00148818,6400dc9a87b5f4d0c3604bf3,64d2fd46c836a06233681665,64dc7580e16980cfae864776,,,,,,,decisionTrl,resources/DP.BMP,resources/DR.BMP,Door3,0.348148148,-0.039814815,1,0,0,1.5287,optionRight,70,4840,3,0,0,0,0,1,,,,,,,,,,,,,,,,,,,,,,,,,,,,,,,,,,,,,,,
,,,,,,,,2023-08-16_08h07.01.247,HF_wild_card,2022.2.4,Win32,12.00148818,6400dc9a87b5f4d0c3604bf3,64d2fd46c836a06233681665,64dc7580e16980cfae864776,,,,,,,decisionTrl,resources/DR.BMP,resources/DP.BMP,Door4,0.387962963,-0.080555556,1,0,0,0.8917,optionRight,80,4920,3,1,0,1,0,1,,,,,,,,,,,,,,,,,,,,,,,,,,,,,,,,,,,,,,,
,,,,,,,,2023-08-16_08h07.01.247,HF_wild_card,2022.2.4,Win32,12.00148818,6400dc9a87b5f4d0c3604bf3,64d2fd46c836a06233681665,64dc7580e16980cfae864776,,,,,,,decisionTrl,resources/DBN.BMP,resources/DP.BMP,Door4,0.393518519,-0.073148148,1,0,0,0.7795,optionRight,80,5000,3,2,0,2,0,1,,,,,,,,,,,,,,,,,,,,,,,,,,,,,,,,,,,,,,,
,,,,,,,,2023-08-16_08h07.01.247,HF_wild_card,2022.2.4,Win32,12.00148818,6400dc9a87b5f4d0c3604bf3,64d2fd46c836a06233681665,64dc7580e16980cfae864776,,,,,,,decisionTrl,resources/DR.BMP,resources/DP.BMP,Door3,-0.342592593,-0.023148148,1,0,0,2.31,optionLeft,70,5070,3,3,0,3,0,1,,,,,,,,,,,,,,,,,,,,,,,,,,,,,,,,,,,,,,,
,,,,,,,,2023-08-16_08h07.01.247,HF_wild_card,2022.2.4,Win32,12.00148818,6400dc9a87b5f4d0c3604bf3,64d2fd46c836a06233681665,64dc7580e16980cfae864776,,,,,,,decisionTrl,resources/DG.BMP,resources/DY.BMP,Door2,0.319444444,-0.037962963,1,0,0,1.3924,optionRight,40,5110,3,4,0,4,0,1,,,,,,,,,,,,,,,,,,,,,,,,,,,,,,,,,,,,,,,
,,,,,,,,2023-08-16_08h07.01.247,HF_wild_card,2022.2.4,Win32,12.00148818,6400dc9a87b5f4d0c3604bf3,64d2fd46c836a06233681665,64dc7580e16980cfae864776,,,,,,,decisionTrl,resources/DG.BMP,resources/DY.BMP,Door2,0.310185185,-0.049074074,1,0,0,1.4021,optionRight,20,5130,3,5,0,5,0,1,,,,,,,,,,,,,,,,,,,,,,,,,,,,,,,,,,,,,,,
,,,,,,,,2023-08-16_08h07.01.247,HF_wild_card,2022.2.4,Win32,12.00148818,6400dc9a87b5f4d0c3604bf3,64d2fd46c836a06233681665,64dc7580e16980cfae864776,,,,,,,ctch,resources/DP.BMP,resources/DG.BMP,Door4,-0.344444444,-0.046296296,1,0,0,0.9018,optionLeft,80,5210,3,6,0,6,0,1,,,,,,,,,,,,,,,,,,,,,,,,,,,,,,,,,,,,,,,
,,,,,,,,2023-08-16_08h07.01.247,HF_wild_card,2022.2.4,Win32,12.00148818,6400dc9a87b5f4d0c3604bf3,64d2fd46c836a06233681665,64dc7580e16980cfae864776,,,,,,,sngl,resources/DY.BMP,resources/Empty.png,Door2,-0.355555556,-0.006481481,1,0,0,0.608,optionLeft,40,5250,3,7,0,7,0,1,,,,,,,,,,,,,,,,,,,,,,,,,,,,,,,,,,,,,,,
,,,,,,,,2023-08-16_08h07.01.247,HF_wild_card,2022.2.4,Win32,12.00148818,6400dc9a87b5f4d0c3604bf3,64d2fd46c836a06233681665,64dc7580e16980cfae864776,,,,,,,sngl,resources/Empty.png,resources/DR.BMP,Door3,0.442592593,0.00462963,1,0,0,0.7041,optionRight,70,5320,3,8,0,8,0,1,,,,,,,,,,,,,,,,,,,,,,,,,,,,,,,,,,,,,,,
,,,,,,,,2023-08-16_08h07.01.247,HF_wild_card,2022.2.4,Win32,12.00148818,6400dc9a87b5f4d0c3604bf3,64d2fd46c836a06233681665,64dc7580e16980cfae864776,,,,,,,sngl,resources/Empty.png,resources/DBN.BMP,WildCard_NonEx,0.485185185,0.010185185,1,0,0,0.732,optionRight,55,5375,3,9,0,9,0,1,,,,,,,,,,,,,,,,,,,,,,,,,,,,,,,,,,,,,,,
,,,,,,,,2023-08-16_08h07.01.247,HF_wild_card,2022.2.4,Win32,12.00148818,6400dc9a87b5f4d0c3604bf3,64d2fd46c836a06233681665,64dc7580e16980cfae864776,,,,,,,decisionTrl,resources/DP.BMP,resources/DR.BMP,Door4,-0.287037037,-0.022222222,1,0,0,0.6856,optionLeft,80,5455,3,10,0,10,0,1,,,,,,,,,,,,,,,,,,,,,,,,,,,,,,,,,,,,,,,
,,,,,,,,2023-08-16_08h07.01.247,HF_wild_card,2022.2.4,Win32,12.00148818,6400dc9a87b5f4d0c3604bf3,64d2fd46c836a06233681665,64dc7580e16980cfae864776,,,,,,,decisionTrl,resources/DY.BMP,resources/DG.BMP,Door1,0.217592593,-0.034259259,1,0,0,1.3734,optionRight,30,5485,3,11,0,11,0,1,,,,,,,,,,,,,,,,,,,,,,,,,,,,,,,,,,,,,,,
,,,,,,,,2023-08-16_08h07.01.247,HF_wild_card,2022.2.4,Win32,12.00148818,6400dc9a87b5f4d0c3604bf3,64d2fd46c836a06233681665,64dc7580e16980cfae864776,,,,,,,sngl,resources/DP.BMP,resources/Empty.png,Door4,-0.308333333,0.035185185,1,0,0,0.6157,optionLeft,80,5565,3,12,0,12,0,1,,,,,,,,,,,,,,,,,,,,,,,,,,,,,,,,,,,,,,,
,,,,,,,,2023-08-16_08h07.01.247,HF_wild_card,2022.2.4,Win32,12.00148818,6400dc9a87b5f4d0c3604bf3,64d2fd46c836a06233681665,64dc7580e16980cfae864776,,,,,,,ctch,resources/DR.BMP,resources/DY.BMP,Door2,0.317592593,-0.024074074,1,0,0,0.7007,optionRight,20,5585,3,13,0,13,0,1,,,,,,,,,,,,,,,,,,,,,,,,,,,,,,,,,,,,,,,
,,,,,,,,2023-08-16_08h07.01.247,HF_wild_card,2022.2.4,Win32,12.00148818,6400dc9a87b5f4d0c3604bf3,64d2fd46c836a06233681665,64dc7580e16980cfae864776,,,,,,,decisionTrl,resources/DY.BMP,resources/DBN.BMP,Door2,-0.322222222,0.026851852,1,0,0,0.5831,optionLeft,40,5625,3,14,0,14,0,1,,,,,,,,,,,,,,,,,,,,,,,,,,,,,,,,,,,,,,,
,,,,,,,,2023-08-16_08h07.01.247,HF_wild_card,2022.2.4,Win32,12.00148818,6400dc9a87b5f4d0c3604bf3,64d2fd46c836a06233681665,64dc7580e16980cfae864776,,,,,,,decisionTrl,resources/DR.BMP,resources/DP.BMP,Door4,0.409259259,-0.044444444,1,0,0,0.7704,optionRight,60,5685,3,15,0,15,0,1,,,,,,,,,,,,,,,,,,,,,,,,,,,,,,,,,,,,,,,
,,,,,,,,2023-08-16_08h07.01.247,HF_wild_card,2022.2.4,Win32,12.00148818,6400dc9a87b5f4d0c3604bf3,64d2fd46c836a06233681665,64dc7580e16980cfae864776,,,,,,,decisionTrl,resources/DY.BMP,resources/DG.BMP,Door2,-0.197222222,0.012962963,1,0,0,0.4839,optionLeft,20,5705,3,16,0,16,0,1,,,,,,,,,,,,,,,,,,,,,,,,,,,,,,,,,,,,,,,
,,,,,,,,2023-08-16_08h07.01.247,HF_wild_card,2022.2.4,Win32,12.00148818,6400dc9a87b5f4d0c3604bf3,64d2fd46c836a06233681665,64dc7580e16980cfae864776,,,,,,,sngl,resources/Empty.png,resources/DY.BMP,Door2,0.355555556,0.017592593,1,0,0,0.543,optionRight,20,5725,3,17,0,17,0,1,,,,,,,,,,,,,,,,,,,,,,,,,,,,,,,,,,,,,,,
,,,,,,,,2023-08-16_08h07.01.247,HF_wild_card,2022.2.4,Win32,12.00148818,6400dc9a87b5f4d0c3604bf3,64d2fd46c836a06233681665,64dc7580e16980cfae864776,,,,,,,decisionTrl,resources/DR.BMP,resources/DBN.BMP,Door3,-0.463888889,0.007407407,1,0,0,3.4997,optionLeft,70,5795,3,18,0,18,0,1,,,,,,,,,,,,,,,,,,,,,,,,,,,,,,,,,,,,,,,
,,,,,,,,2023-08-16_08h07.01.247,HF_wild_card,2022.2.4,Win32,12.00148818,6400dc9a87b5f4d0c3604bf3,64d2fd46c836a06233681665,64dc7580e16980cfae864776,,,,,,,decisionTrl,resources/DP.BMP,resources/DR.BMP,Door4,-0.534259259,0.025,1,0,0,0.863,optionLeft,80,5875,3,19,0,19,0,1,,,,,,,,,,,,,,,,,,,,,,,,,,,,,,,,,,,,,,,
,,,,,,,,2023-08-16_08h07.01.247,HF_wild_card,2022.2.4,Win32,12.00148818,6400dc9a87b5f4d0c3604bf3,64d2fd46c836a06233681665,64dc7580e16980cfae864776,,,,,,,decisionTrl,resources/DBN.BMP,resources/DR.BMP,Door3,-0.003703704,-0.001851852,1,0,0,0.2902,optionRight,70,5945,3,20,0,20,0,1,,,,,,,,,,,,,,,,,,,,,,,,,,,,,,,,,,,,,,,
,,,,,,,,2023-08-16_08h07.01.247,HF_wild_card,2022.2.4,Win32,12.00148818,6400dc9a87b5f4d0c3604bf3,64d2fd46c836a06233681665,64dc7580e16980cfae864776,,,,,,,ctch,resources/DY.BMP,resources/DR.BMP,Door3,0.385185185,0.015740741,1,0,0,0.9628,optionRight,70,6015,3,21,0,21,0,1,,,,,,,,,,,,,,,,,,,,,,,,,,,,,,,,,,,,,,,
,,,,,,,,2023-08-16_08h07.01.247,HF_wild_card,2022.2.4,Win32,12.00148818,6400dc9a87b5f4d0c3604bf3,64d2fd46c836a06233681665,64dc7580e16980cfae864776,,,,,,,ctch,resources/DY.BMP,resources/DR.BMP,Door3,0.00462963,-0.018518519,1,0,0,0.2802,optionRight,70,6085,3,22,0,22,0,1,,,,,,,,,,,,,,,,,,,,,,,,,,,,,,,,,,,,,,,
,,,,,,,,2023-08-16_08h07.01.247,HF_wild_card,2022.2.4,Win32,12.00148818,6400dc9a87b5f4d0c3604bf3,64d2fd46c836a06233681665,64dc7580e16980cfae864776,,,,,,,decisionTrl,resources/DY.BMP,resources/DG.BMP,Door2,-0.262037037,0.026851852,1,0,0,2.9744,optionLeft,20,6105,3,23,0,23,0,1,,,,,,,,,,,,,,,,,,,,,,,,,,,,,,,,,,,,,,,
,,,,,,,,2023-08-16_08h07.01.247,HF_wild_card,2022.2.4,Win32,12.00148818,6400dc9a87b5f4d0c3604bf3,64d2fd46c836a06233681665,64dc7580e16980cfae864776,,,,,,,decisionTrl,resources/DG.BMP,resources/DY.BMP,Door1,-0.138888889,-0.036111111,1,0,0,1.3416,optionLeft,30,6135,3,24,0,24,0,1,,,,,,,,,,,,,,,,,,,,,,,,,,,,,,,,,,,,,,,
,,,,,,,,2023-08-16_08h07.01.247,HF_wild_card,2022.2.4,Win32,12.00148818,6400dc9a87b5f4d0c3604bf3,64d2fd46c836a06233681665,64dc7580e16980cfae864776,,,,,,,sngl,resources/Empty.png,resources/DBN.BMP,WildCard_NonEx,0.025,0.003703704,1,0,0,0.2691,optionRight,45,6180,3,25,0,25,0,1,,,,,,,,,,,,,,,,,,,,,,,,,,,,,,,,,,,,,,,
,,,,,,,,2023-08-16_08h07.01.247,HF_wild_card,2022.2.4,Win32,12.00148818,6400dc9a87b5f4d0c3604bf3,64d2fd46c836a06233681665,64dc7580e16980cfae864776,,,,,,,ctch,resources/DG.BMP,resources/DP.BMP,Door4,0.312037037,-0.041666667,1,0,0,1.0695,optionRight,60,6240,3,26,0,26,0,1,,,,,,,,,,,,,,,,,,,,,,,,,,,,,,,,,,,,,,,
,,,,,,,,2023-08-16_08h07.01.247,HF_wild_card,2022.2.4,Win32,12.00148818,6400dc9a87b5f4d0c3604bf3,64d2fd46c836a06233681665,64dc7580e16980cfae864776,,,,,,,decisionTrl,resources/DBN.BMP,resources/DY.BMP,WildCard_NonEx,-0.009259259,-0.010185185,1,0,0,0.2873,optionLeft,45,6285,3,27,0,27,0,1,,,,,,,,,,,,,,,,,,,,,,,,,,,,,,,,,,,,,,,
,,,,,,,,2023-08-16_08h07.01.247,HF_wild_card,2022.2.4,Win32,12.00148818,6400dc9a87b5f4d0c3604bf3,64d2fd46c836a06233681665,64dc7580e16980cfae864776,,,,,,,sngl,resources/Empty.png,resources/DP.BMP,Door4,0.412037037,-0.04537037,1,0,0,0.7168,optionRight,60,6345,3,28,0,28,0,1,,,,,,,,,,,,,,,,,,,,,,,,,,,,,,,,,,,,,,,
,,,,,,,,2023-08-16_08h07.01.247,HF_wild_card,2022.2.4,Win32,12.00148818,6400dc9a87b5f4d0c3604bf3,64d2fd46c836a06233681665,64dc7580e16980cfae864776,,,,,,,decisionTrl,resources/DP.BMP,resources/DBN.BMP,Door4,-0.410185185,-0.012037037,1,0,0,1.0886,optionLeft,80,6425,3,29,0,29,0,1,,,,,,,,,,,,,,,,,,,,,,,,,,,,,,,,,,,,,,,
,,,,,,,,2023-08-16_08h07.01.247,HF_wild_card,2022.2.4,Win32,12.00148818,6400dc9a87b5f4d0c3604bf3,64d2fd46c836a06233681665,64dc7580e16980cfae864776,,,,,,,decisionTrl,resources/DY.BMP,resources/DG.BMP,Door1,0.365740741,-0.031481481,1,0,0,1.4987,optionRight,30,6455,3,30,0,30,0,1,,,,,,,,,,,,,,,,,,,,,,,,,,,,,,,,,,,,,,,
,,,,,,,,2023-08-16_08h07.01.247,HF_wild_card,2022.2.4,Win32,12.00148818,6400dc9a87b5f4d0c3604bf3,64d2fd46c836a06233681665,64dc7580e16980cfae864776,,,,,,,sngl,resources/DR.BMP,resources/Empty.png,Door3,-0.385185185,-0.006481481,1,0,0,0.6057,optionLeft,70,6525,3,31,0,31,0,1,,,,,,,,,,,,,,,,,,,,,,,,,,,,,,,,,,,,,,,
,,,,,,,,2023-08-16_08h07.01.247,HF_wild_card,2022.2.4,Win32,12.00148818,6400dc9a87b5f4d0c3604bf3,64d2fd46c836a06233681665,64dc7580e16980cfae864776,,,,,,,decisionTrl,resources/DBN.BMP,resources/DG.BMP,WildCard_NonEx,-0.42037037,0.015740741,1,0,0,0.8785,optionLeft,45,6570,3,32,0,32,0,1,,,,,,,,,,,,,,,,,,,,,,,,,,,,,,,,,,,,,,,
,,,,,,,,2023-08-16_08h07.01.247,HF_wild_card,2022.2.4,Win32,12.00148818,6400dc9a87b5f4d0c3604bf3,64d2fd46c836a06233681665,64dc7580e16980cfae864776,,,,,,,sngl,resources/Empty.png,resources/DG.BMP,Door1,-0.02037037,-0.047222222,1,0,0,0.3588,optionRight,30,6600,3,33,0,33,0,1,,,,,,,,,,,,,,,,,,,,,,,,,,,,,,,,,,,,,,,
,,,,,,,,2023-08-16_08h07.01.247,HF_wild_card,2022.2.4,Win32,12.00148818,6400dc9a87b5f4d0c3604bf3,64d2fd46c836a06233681665,64dc7580e16980cfae864776,,,,,,,ctch,resources/DP.BMP,resources/DG.BMP,Door4,-0.308333333,-0.030555556,1,0,0,0.8748,optionLeft,60,6660,3,34,0,34,0,1,,,,,,,,,,,,,,,,,,,,,,,,,,,,,,,,,,,,,,,
,,,,,,,,2023-08-16_08h07.01.247,HF_wild_card,2022.2.4,Win32,12.00148818,6400dc9a87b5f4d0c3604bf3,64d2fd46c836a06233681665,64dc7580e16980cfae864776,,,,,,,ctch,resources/DG.BMP,resources/DP.BMP,Door4,0.015740741,-0.116666667,1,0,0,0.5738,optionRight,80,6740,3,35,0,35,0,1,,,,,,,,,,,,,,,,,,,,,,,,,,,,,,,,,,,,,,,
,,,,,,,,2023-08-16_08h07.01.247,HF_wild_card,2022.2.4,Win32,12.00148818,6400dc9a87b5f4d0c3604bf3,64d2fd46c836a06233681665,64dc7580e16980cfae864776,,,,,,,ctch,resources/DR.BMP,resources/DY.BMP,Door3,-0.347222222,-0.00462963,1,0,0,1.6419,optionLeft,70,6810,3,36,0,36,0,1,,,,,,,,,,,,,,,,,,,,,,,,,,,,,,,,,,,,,,,
,,,,,,,,2023-08-16_08h07.01.247,HF_wild_card,2022.2.4,Win32,12.00148818,6400dc9a87b5f4d0c3604bf3,64d2fd46c836a06233681665,64dc7580e16980cfae864776,,,,,,,sngl,resources/DG.BMP,resources/Empty.png,Door1,-0.290740741,0.022222222,1,0,0,0.6921,optionLeft,30,6840,3,37,0,37,0,1,,,,,,,,,,,,,,,,,,,,,,,,,,,,,,,,,,,,,,,
,,,,,,,,2023-08-16_08h07.01.247,HF_wild_card,2022.2.4,Win32,12.00148818,6400dc9a87b5f4d0c3604bf3,64d2fd46c836a06233681665,64dc7580e16980cfae864776,,,,,,,decisionTrl,resources/DR.BMP,resources/DP.BMP,Door3,-0.42037037,-0.051851852,1,0,0,1.1568,optionLeft,70,6910,3,38,0,38,0,1,,,,,,,,,,,,,,,,,,,,,,,,,,,,,,,,,,,,,,,
,,,,,,,,2023-08-16_08h07.01.247,HF_wild_card,2022.2.4,Win32,12.00148818,6400dc9a87b5f4d0c3604bf3,64d2fd46c836a06233681665,64dc7580e16980cfae864776,,,,,,,decisionTrl,resources/DP.BMP,resources/DR.BMP,Door4,-0.423148148,0.026851852,1,0,0,0.8655,optionLeft,60,6970,3,39,0,39,0,1,,,,,,,,,,,,,,,,,,,,,,,,,,,,,,,,,,,,,,,
,,,,,,,,2023-08-16_08h07.01.247,HF_wild_card,2022.2.4,Win32,12.00148818,6400dc9a87b5f4d0c3604bf3,64d2fd46c836a06233681665,64dc7580e16980cfae864776,,,,,,,decisionTrl,resources/DG.BMP,resources/DBN.BMP,WildCard_NonEx,-0.001851852,0.016666667,1,0,0,0.2837,optionRight,55,7025,3,40,0,40,0,1,,,,,,,,,,,,,,,,,,,,,,,,,,,,,,,,,,,,,,,
,,,,,,,,2023-08-16_08h07.01.247,HF_wild_card,2022.2.4,Win32,12.00148818,6400dc9a87b5f4d0c3604bf3,64d2fd46c836a06233681665,64dc7580e16980cfae864776,,,,,,,decisionTrl,resources/DG.BMP,resources/DY.BMP,Door1,-0.040740741,0.001851852,1,0,0,0.2679,optionLeft,30,7055,3,41,0,41,0,1,,,,,,,,,,,,,,,,,,,,,,,,,,,,,,,,,,,,,,,
,,,,,,,,2023-08-16_08h07.01.247,HF_wild_card,2022.2.4,Win32,12.00148818,6400dc9a87b5f4d0c3604bf3,64d2fd46c836a06233681665,64dc7580e16980cfae864776,,,,,,,sngl,resources/DBN.BMP,resources/Empty.png,WildCard_NonEx,-0.367592593,-0.028703704,1,0,0,0.623,optionLeft,45,7100,3,42,0,42,0,1,,,,,,,,,,,,,,,,,,,,,,,,,,,,,,,,,,,,,,,
,,,,,,,,2023-08-16_08h07.01.247,HF_wild_card,2022.2.4,Win32,12.00148818,6400dc9a87b5f4d0c3604bf3,64d2fd46c836a06233681665,64dc7580e16980cfae864776,,,,,,,sngl,resources/DBN.BMP,resources/Empty.png,WildCard_NonEx,-0.340740741,0.000925926,1,0,0,0.6813,optionLeft,55,7155,3,43,0,43,0,1,,,,,,,,,,,,,,,,,,,,,,,,,,,,,,,,,,,,,,,
,,,,,,,,2023-08-16_08h07.01.247,HF_wild_card,2022.2.4,Win32,12.00148818,6400dc9a87b5f4d0c3604bf3,64d2fd46c836a06233681665,64dc7580e16980cfae864776,,,,,,,,,,,,,,,,,,,,,,,,,,2,0,2,0,1,,,,,,,,,,,,,,,,,,,,,,,,,,,,,,,,,,
,,,,,,,,2023-08-16_08h07.01.247,HF_wild_card,2022.2.4,Win32,12.00148818,6400dc9a87b5f4d0c3604bf3,64d2fd46c836a06233681665,64dc7580e16980cfae864776,,,,,,,decisionTrl,resources/DG.BMP,resources/DB.BMP,WildCard_Ex,0.474074074,-0.103703704,1,0,0,2.5896,optionRight,95,7250,4,0,0,0,0,1,,,,,,,,,,,,,,,,,,,,,,,,,,,,,,,,,,,,,,,
,,,,,,,,2023-08-16_08h07.01.247,HF_wild_card,2022.2.4,Win32,12.00148818,6400dc9a87b5f4d0c3604bf3,64d2fd46c836a06233681665,64dc7580e16980cfae864776,,,,,,,sngl,resources/DB.BMP,resources/Empty.png,WildCard_Ex,-0.264814815,-0.019444444,1,0,0,0.5373,optionLeft,5,7255,4,1,0,1,0,1,,,,,,,,,,,,,,,,,,,,,,,,,,,,,,,,,,,,,,,
,,,,,,,,2023-08-16_08h07.01.247,HF_wild_card,2022.2.4,Win32,12.00148818,6400dc9a87b5f4d0c3604bf3,64d2fd46c836a06233681665,64dc7580e16980cfae864776,,,,,,,ctch,resources/DR.BMP,resources/DY.BMP,Door3,-0.410185185,0.025925926,1,0,0,1.8789,optionLeft,70,7325,4,2,0,2,0,1,,,,,,,,,,,,,,,,,,,,,,,,,,,,,,,,,,,,,,,
,,,,,,,,2023-08-16_08h07.01.247,HF_wild_card,2022.2.4,Win32,12.00148818,6400dc9a87b5f4d0c3604bf3,64d2fd46c836a06233681665,64dc7580e16980cfae864776,,,,,,,sngl,resources/Empty.png,resources/DB.BMP,WildCard_Ex,0.418518519,-0.075,1,0,0,0.6146,optionRight,95,7420,4,3,0,3,0,1,,,,,,,,,,,,,,,,,,,,,,,,,,,,,,,,,,,,,,,
,,,,,,,,2023-08-16_08h07.01.247,HF_wild_card,2022.2.4,Win32,12.00148818,6400dc9a87b5f4d0c3604bf3,64d2fd46c836a06233681665,64dc7580e16980cfae864776,,,,,,,decisionTrl,resources/DB.BMP,resources/DR.BMP,WildCard_Ex,-0.280555556,-0.030555556,1,0,0,0.8773,optionLeft,95,7515,4,4,0,4,0,1,,,,,,,,,,,,,,,,,,,,,,,,,,,,,,,,,,,,,,,
,,,,,,,,2023-08-16_08h07.01.247,HF_wild_card,2022.2.4,Win32,12.00148818,6400dc9a87b5f4d0c3604bf3,64d2fd46c836a06233681665,64dc7580e16980cfae864776,,,,,,,ctch,resources/DR.BMP,resources/DY.BMP,Door3,0.013888889,0,1,0,0,0.2753,optionLeft,70,7585,4,5,0,5,0,1,,,,,,,,,,,,,,,,,,,,,,,,,,,,,,,,,,,,,,,
,,,,,,,,2023-08-16_08h07.01.247,HF_wild_card,2022.2.4,Win32,12.00148818,6400dc9a87b5f4d0c3604bf3,64d2fd46c836a06233681665,64dc7580e16980cfae864776,,,,,,,decisionTrl,resources/DG.BMP,resources/DY.BMP,Door2,0.310185185,-0.048148148,1,0,0,0.7714,optionRight,40,7625,4,6,0,6,0,1,,,,,,,,,,,,,,,,,,,,,,,,,,,,,,,,,,,,,,,
,,,,,,,,2023-08-16_08h07.01.247,HF_wild_card,2022.2.4,Win32,12.00148818,6400dc9a87b5f4d0c3604bf3,64d2fd46c836a06233681665,64dc7580e16980cfae864776,,,,,,,ctch,resources/DY.BMP,resources/DR.BMP,Door3,0.337037037,-0.032407407,1,0,0,1.0412,optionRight,70,7695,4,7,0,7,0,1,,,,,,,,,,,,,,,,,,,,,,,,,,,,,,,,,,,,,,,
,,,,,,,,2023-08-16_08h07.01.247,HF_wild_card,2022.2.4,Win32,12.00148818,6400dc9a87b5f4d0c3604bf3,64d2fd46c836a06233681665,64dc7580e16980cfae864776,,,,,,,decisionTrl,resources/DB.BMP,resources/DP.BMP,WildCard_Ex,-0.398148148,0.017592593,1,0,0,1.5547,optionLeft,5,7700,4,8,0,8,0,1,,,,,,,,,,,,,,,,,,,,,,,,,,,,,,,,,,,,,,,
,,,,,,,,2023-08-16_08h07.01.247,HF_wild_card,2022.2.4,Win32,12.00148818,6400dc9a87b5f4d0c3604bf3,64d2fd46c836a06233681665,64dc7580e16980cfae864776,,,,,,,decisionTrl,resources/DY.BMP,resources/DG.BMP,Door1,0.325,-0.028703704,1,0,0,0.7719,optionRight,30,7730,4,9,0,9,0,1,,,,,,,,,,,,,,,,,,,,,,,,,,,,,,,,,,,,,,,
,,,,,,,,2023-08-16_08h07.01.247,HF_wild_card,2022.2.4,Win32,12.00148818,6400dc9a87b5f4d0c3604bf3,64d2fd46c836a06233681665,64dc7580e16980cfae864776,,,,,,,sngl,resources/DG.BMP,resources/Empty.png,Door1,-0.312037037,-0.037037037,1,0,0,0.6047,optionLeft,30,7760,4,10,0,10,0,1,,,,,,,,,,,,,,,,,,,,,,,,,,,,,,,,,,,,,,,
,,,,,,,,2023-08-16_08h07.01.247,HF_wild_card,2022.2.4,Win32,12.00148818,6400dc9a87b5f4d0c3604bf3,64d2fd46c836a06233681665,64dc7580e16980cfae864776,,,,,,,sngl,resources/DB.BMP,resources/Empty.png,WildCard_Ex,-0.336111111,-0.003703704,1,0,0,0.6215,optionLeft,95,7855,4,11,0,11,0,1,,,,,,,,,,,,,,,,,,,,,,,,,,,,,,,,,,,,,,,
,,,,,,,,2023-08-16_08h07.01.247,HF_wild_card,2022.2.4,Win32,12.00148818,6400dc9a87b5f4d0c3604bf3,64d2fd46c836a06233681665,64dc7580e16980cfae864776,,,,,,,decisionTrl,resources/DB.BMP,resources/DY.BMP,Door2,0.269444444,-0.032407407,1,0,0,1.7437,optionRight,20,7875,4,12,0,12,0,1,,,,,,,,,,,,,,,,,,,,,,,,,,,,,,,,,,,,,,,
,,,,,,,,2023-08-16_08h07.01.247,HF_wild_card,2022.2.4,Win32,12.00148818,6400dc9a87b5f4d0c3604bf3,64d2fd46c836a06233681665,64dc7580e16980cfae864776,,,,,,,decisionTrl,resources/DP.BMP,resources/DB.BMP,WildCard_Ex,0.309259259,-0.027777778,1,0,0,0.7173,optionRight,5,7880,4,13,0,13,0,1,,,,,,,,,,,,,,,,,,,,,,,,,,,,,,,,,,,,,,,
,,,,,,,,2023-08-16_08h07.01.247,HF_wild_card,2022.2.4,Win32,12.00148818,6400dc9a87b5f4d0c3604bf3,64d2fd46c836a06233681665,64dc7580e16980cfae864776,,,,,,,decisionTrl,resources/DG.BMP,resources/DY.BMP,Door1,-0.30462963,0.00462963,1,0,0,2.6526,optionLeft,30,7910,4,14,0,14,0,1,,,,,,,,,,,,,,,,,,,,,,,,,,,,,,,,,,,,,,,
,,,,,,,,2023-08-16_08h07.01.247,HF_wild_card,2022.2.4,Win32,12.00148818,6400dc9a87b5f4d0c3604bf3,64d2fd46c836a06233681665,64dc7580e16980cfae864776,,,,,,,decisionTrl,resources/DR.BMP,resources/DP.BMP,Door4,0.349074074,-0.083333333,1,0,0,2.5539,optionRight,80,7990,4,15,0,15,0,1,,,,,,,,,,,,,,,,,,,,,,,,,,,,,,,,,,,,,,,
,,,,,,,,2023-08-16_08h07.01.247,HF_wild_card,2022.2.4,Win32,12.00148818,6400dc9a87b5f4d0c3604bf3,64d2fd46c836a06233681665,64dc7580e16980cfae864776,,,,,,,decisionTrl,resources/DG.BMP,resources/DY.BMP,Door2,0.367592593,-0.07962963,1,0,0,1.6481,optionRight,20,8010,4,16,0,16,0,1,,,,,,,,,,,,,,,,,,,,,,,,,,,,,,,,,,,,,,,
,,,,,,,,2023-08-16_08h07.01.247,HF_wild_card,2022.2.4,Win32,12.00148818,6400dc9a87b5f4d0c3604bf3,64d2fd46c836a06233681665,64dc7580e16980cfae864776,,,,,,,decisionTrl,resources/DP.BMP,resources/DR.BMP,Door4,-0.375,0.005555556,1,0,0,1.2423,optionLeft,80,8090,4,17,0,17,0,1,,,,,,,,,,,,,,,,,,,,,,,,,,,,,,,,,,,,,,,
,,,,,,,,2023-08-16_08h07.01.247,HF_wild_card,2022.2.4,Win32,12.00148818,6400dc9a87b5f4d0c3604bf3,64d2fd46c836a06233681665,64dc7580e16980cfae864776,,,,,,,decisionTrl,resources/DB.BMP,resources/DG.BMP,WildCard_Ex,-0.003703704,0.010185185,1,0,0,0.1907,optionLeft,5,8095,4,18,0,18,0,1,,,,,,,,,,,,,,,,,,,,,,,,,,,,,,,,,,,,,,,
,,,,,,,,2023-08-16_08h07.01.247,HF_wild_card,2022.2.4,Win32,12.00148818,6400dc9a87b5f4d0c3604bf3,64d2fd46c836a06233681665,64dc7580e16980cfae864776,,,,,,,ctch,resources/DG.BMP,resources/DP.BMP,Door4,0.378703704,-0.068518519,1,0,0,1.0007,optionRight,60,8155,4,19,0,19,0,1,,,,,,,,,,,,,,,,,,,,,,,,,,,,,,,,,,,,,,,
,,,,,,,,2023-08-16_08h07.01.247,HF_wild_card,2022.2.4,Win32,12.00148818,6400dc9a87b5f4d0c3604bf3,64d2fd46c836a06233681665,64dc7580e16980cfae864776,,,,,,,decisionTrl,resources/DG.BMP,resources/DY.BMP,Door1,-0.233333333,0.006481481,1,0,0,1.5497,optionLeft,30,8185,4,20,0,20,0,1,,,,,,,,,,,,,,,,,,,,,,,,,,,,,,,,,,,,,,,
,,,,,,,,2023-08-16_08h07.01.247,HF_wild_card,2022.2.4,Win32,12.00148818,6400dc9a87b5f4d0c3604bf3,64d2fd46c836a06233681665,64dc7580e16980cfae864776,,,,,,,sngl,resources/Empty.png,resources/DP.BMP,Door4,-0.017592593,0.005555556,1,0,0,0.1768,optionRight,80,8265,4,21,0,21,0,1,,,,,,,,,,,,,,,,,,,,,,,,,,,,,,,,,,,,,,,
,,,,,,,,2023-08-16_08h07.01.247,HF_wild_card,2022.2.4,Win32,12.00148818,6400dc9a87b5f4d0c3604bf3,64d2fd46c836a06233681665,64dc7580e16980cfae864776,,,,,,,decisionTrl,resources/DR.BMP,resources/DP.BMP,Door3,-0.294444444,-0.055555556,1,0,0,1.4685,optionLeft,70,8335,4,22,0,22,0,1,,,,,,,,,,,,,,,,,,,,,,,,,,,,,,,,,,,,,,,
,,,,,,,,2023-08-16_08h07.01.247,HF_wild_card,2022.2.4,Win32,12.00148818,6400dc9a87b5f4d0c3604bf3,64d2fd46c836a06233681665,64dc7580e16980cfae864776,,,,,,,sngl,resources/DR.BMP,resources/Empty.png,Door3,-0.065740741,-0.112037037,1,0,0,0.4437,optionLeft,70,8405,4,23,0,23,0,1,,,,,,,,,,,,,,,,,,,,,,,,,,,,,,,,,,,,,,,
,,,,,,,,2023-08-16_08h07.01.247,HF_wild_card,2022.2.4,Win32,12.00148818,6400dc9a87b5f4d0c3604bf3,64d2fd46c836a06233681665,64dc7580e16980cfae864776,,,,,,,decisionTrl,resources/DY.BMP,resources/DB.BMP,WildCard_Ex,0.257407407,-0.064814815,1,0,0,0.9817,optionRight,95,8500,4,24,0,24,0,1,,,,,,,,,,,,,,,,,,,,,,,,,,,,,,,,,,,,,,,
,,,,,,,,2023-08-16_08h07.01.247,HF_wild_card,2022.2.4,Win32,12.00148818,6400dc9a87b5f4d0c3604bf3,64d2fd46c836a06233681665,64dc7580e16980cfae864776,,,,,,,sngl,resources/Empty.png,resources/DY.BMP,Door2,0.351851852,-0.074074074,1,0,0,4.0713,optionRight,40,8540,4,25,0,25,0,1,,,,,,,,,,,,,,,,,,,,,,,,,,,,,,,,,,,,,,,
,,,,,,,,2023-08-16_08h07.01.247,HF_wild_card,2022.2.4,Win32,12.00148818,6400dc9a87b5f4d0c3604bf3,64d2fd46c836a06233681665,64dc7580e16980cfae864776,,,,,,,sngl,resources/DY.BMP,resources/Empty.png,Door2,-0.247222222,-0.018518519,1,0,0,0.5459,optionLeft,20,8560,4,26,0,26,0,1,,,,,,,,,,,,,,,,,,,,,,,,,,,,,,,,,,,,,,,
,,,,,,,,2023-08-16_08h07.01.247,HF_wild_card,2022.2.4,Win32,12.00148818,6400dc9a87b5f4d0c3604bf3,64d2fd46c836a06233681665,64dc7580e16980cfae864776,,,,,,,decisionTrl,resources/DY.BMP,resources/DG.BMP,Door2,-0.296296296,-0.010185185,1,0,0,1.1468,optionLeft,40,8600,4,27,0,27,0,1,,,,,,,,,,,,,,,,,,,,,,,,,,,,,,,,,,,,,,,
,,,,,,,,2023-08-16_08h07.01.247,HF_wild_card,2022.2.4,Win32,12.00148818,6400dc9a87b5f4d0c3604bf3,64d2fd46c836a06233681665,64dc7580e16980cfae864776,,,,,,,sngl,resources/Empty.png,resources/DG.BMP,Door1,0.310185185,-0.048148148,1,0,0,0.8079,optionRight,30,8630,4,28,0,28,0,1,,,,,,,,,,,,,,,,,,,,,,,,,,,,,,,,,,,,,,,
,,,,,,,,2023-08-16_08h07.01.247,HF_wild_card,2022.2.4,Win32,12.00148818,6400dc9a87b5f4d0c3604bf3,64d2fd46c836a06233681665,64dc7580e16980cfae864776,,,,,,,sngl,resources/Empty.png,resources/DR.BMP,Door3,0.317592593,-0.051851852,1,0,0,0.6318,optionRight,70,8700,4,29,0,29,0,1,,,,,,,,,,,,,,,,,,,,,,,,,,,,,,,,,,,,,,,
,,,,,,,,2023-08-16_08h07.01.247,HF_wild_card,2022.2.4,Win32,12.00148818,6400dc9a87b5f4d0c3604bf3,64d2fd46c836a06233681665,64dc7580e16980cfae864776,,,,,,,decisionTrl,resources/DP.BMP,resources/DR.BMP,Door4,-0.006481481,-0.02962963,1,0,0,0.298,optionLeft,80,8780,4,30,0,30,0,1,,,,,,,,,,,,,,,,,,,,,,,,,,,,,,,,,,,,,,,
,,,,,,,,2023-08-16_08h07.01.247,HF_wild_card,2022.2.4,Win32,12.00148818,6400dc9a87b5f4d0c3604bf3,64d2fd46c836a06233681665,64dc7580e16980cfae864776,,,,,,,ctch,resources/DY.BMP,resources/DR.BMP,Door2,-0.27962963,-0.043518519,1,0,0,0.6836,optionLeft,20,8800,4,31,0,31,0,1,,,,,,,,,,,,,,,,,,,,,,,,,,,,,,,,,,,,,,,
,,,,,,,,2023-08-16_08h07.01.247,HF_wild_card,2022.2.4,Win32,12.00148818,6400dc9a87b5f4d0c3604bf3,64d2fd46c836a06233681665,64dc7580e16980cfae864776,,,,,,,decisionTrl,resources/DR.BMP,resources/DP.BMP,Door3,-0.00462963,-0.002777778,1,0,0,0.3035,optionLeft,70,8870,4,32,0,32,0,1,,,,,,,,,,,,,,,,,,,,,,,,,,,,,,,,,,,,,,,
,,,,,,,,2023-08-16_08h07.01.247,HF_wild_card,2022.2.4,Win32,12.00148818,6400dc9a87b5f4d0c3604bf3,64d2fd46c836a06233681665,64dc7580e16980cfae864776,,,,,,,ctch,resources/DP.BMP,resources/DG.BMP,Door4,-0.360185185,-0.017592593,1,0,0,0.6676,optionLeft,60,8930,4,33,0,33,0,1,,,,,,,,,,,,,,,,,,,,,,,,,,,,,,,,,,,,,,,
,,,,,,,,2023-08-16_08h07.01.247,HF_wild_card,2022.2.4,Win32,12.00148818,6400dc9a87b5f4d0c3604bf3,64d2fd46c836a06233681665,64dc7580e16980cfae864776,,,,,,,decisionTrl,resources/DY.BMP,resources/DG.BMP,Door1,0.024074074,0.003703704,1,0,0,0.1913,optionRight,30,8960,4,34,0,34,0,1,,,,,,,,,,,,,,,,,,,,,,,,,,,,,,,,,,,,,,,
,,,,,,,,2023-08-16_08h07.01.247,HF_wild_card,2022.2.4,Win32,12.00148818,6400dc9a87b5f4d0c3604bf3,64d2fd46c836a06233681665,64dc7580e16980cfae864776,,,,,,,decisionTrl,resources/DY.BMP,resources/DG.BMP,Door1,0.439814815,-0.017592593,1,0,0,0.8814,optionRight,30,8990,4,35,0,35,0,1,,,,,,,,,,,,,,,,,,,,,,,,,,,,,,,,,,,,,,,
,,,,,,,,2023-08-16_08h07.01.247,HF_wild_card,2022.2.4,Win32,12.00148818,6400dc9a87b5f4d0c3604bf3,64d2fd46c836a06233681665,64dc7580e16980cfae864776,,,,,,,decisionTrl,resources/DR.BMP,resources/DP.BMP,Door3,0.014814815,-0.064814815,1,0,0,0.3778,optionLeft,70,9060,4,36,0,36,0,1,,,,,,,,,,,,,,,,,,,,,,,,,,,,,,,,,,,,,,,
,,,,,,,,2023-08-16_08h07.01.247,HF_wild_card,2022.2.4,Win32,12.00148818,6400dc9a87b5f4d0c3604bf3,64d2fd46c836a06233681665,64dc7580e16980cfae864776,,,,,,,decisionTrl,resources/DP.BMP,resources/DR.BMP,Door4,-0.024074074,-0.107407407,1,0,0,0.6027,optionLeft,60,9120,4,37,0,37,0,1,,,,,,,,,,,,,,,,,,,,,,,,,,,,,,,,,,,,,,,
,,,,,,,,2023-08-16_08h07.01.247,HF_wild_card,2022.2.4,Win32,12.00148818,6400dc9a87b5f4d0c3604bf3,64d2fd46c836a06233681665,64dc7580e16980cfae864776,,,,,,,ctch,resources/DP.BMP,resources/DG.BMP,Door4,-0.003703704,-0.097222222,1,0,0,0.4905,optionLeft,60,9180,4,38,0,38,0,1,,,,,,,,,,,,,,,,,,,,,,,,,,,,,,,,,,,,,,,
,,,,,,,,2023-08-16_08h07.01.247,HF_wild_card,2022.2.4,Win32,12.00148818,6400dc9a87b5f4d0c3604bf3,64d2fd46c836a06233681665,64dc7580e16980cfae864776,,,,,,,decisionTrl,resources/DR.BMP,resources/DB.BMP,WildCard_Ex,-0.037037037,-0.10462963,1,0,0,0.4753,optionRight,95,9275,4,39,0,39,0,1,,,,,,,,,,,,,,,,,,,,,,,,,,,,,,,,,,,,,,,
,,,,,,,,2023-08-16_08h07.01.247,HF_wild_card,2022.2.4,Win32,12.00148818,6400dc9a87b5f4d0c3604bf3,64d2fd46c836a06233681665,64dc7580e16980cfae864776,,,,,,,sngl,resources/Empty.png,resources/DB.BMP,WildCard_Ex,0.399074074,-0.031481481,1,0,0,0.7106,optionRight,5,9280,4,40,0,40,0,1,,,,,,,,,,,,,,,,,,,,,,,,,,,,,,,,,,,,,,,
,,,,,,,,2023-08-16_08h07.01.247,HF_wild_card,2022.2.4,Win32,12.00148818,6400dc9a87b5f4d0c3604bf3,64d2fd46c836a06233681665,64dc7580e16980cfae864776,,,,,,,sngl,resources/DP.BMP,resources/Empty.png,Door4,0.009259259,-0.075,1,0,0,0.5296,optionLeft,60,9340,4,41,0,41,0,1,,,,,,,,,,,,,,,,,,,,,,,,,,,,,,,,,,,,,,,
,,,,,,,,2023-08-16_08h07.01.247,HF_wild_card,2022.2.4,Win32,12.00148818,6400dc9a87b5f4d0c3604bf3,64d2fd46c836a06233681665,64dc7580e16980cfae864776,,,,,,,ctch,resources/DG.BMP,resources/DP.BMP,Door1,-0.021296296,-0.077777778,1,0,0,0.5825,optionLeft,30,9370,4,42,0,42,0,1,,,,,,,,,,,,,,,,,,,,,,,,,,,,,,,,,,,,,,,
,,,,,,,,2023-08-16_08h07.01.247,HF_wild_card,2022.2.4,Win32,12.00148818,6400dc9a87b5f4d0c3604bf3,64d2fd46c836a06233681665,64dc7580e16980cfae864776,,,,,,,decisionTrl,resources/DP.BMP,resources/DR.BMP,Door4,-0.006481481,-0.046296296,1,0,0,0.295,optionLeft,60,9430,4,43,0,43,0,1,,,,,,,,,,,,,,,,,,,,,,,,,,,,,,,,,,,,,,,
,,,,,,,,2023-08-16_08h07.01.247,HF_wild_card,2022.2.4,Win32,12.00148818,6400dc9a87b5f4d0c3604bf3,64d2fd46c836a06233681665,64dc7580e16980cfae864776,,,,,,,,,,,,,,,,,,,,,,,,,,3,0,3,0,1,,,,,,,,,,,,,,,,,,,,,,,,,,,,,,,,,,
,,,,,,,,2023-08-16_08h07.01.247,HF_wild_card,2022.2.4,Win32,12.00148818,6400dc9a87b5f4d0c3604bf3,64d2fd46c836a06233681665,64dc7580e16980cfae864776,,,,,,,decisionTrl,resources/DR.BMP,resources/DP.BMP,Door4,0.430555556,-0.076851852,1,0,0,1.4746,optionRight,60,9490,5,0,0,0,0,1,,,,,,,,,,,,,,,,,,,,,,,,,,,,,,,,,,,,,,,
,,,,,,,,2023-08-16_08h07.01.247,HF_wild_card,2022.2.4,Win32,12.00148818,6400dc9a87b5f4d0c3604bf3,64d2fd46c836a06233681665,64dc7580e16980cfae864776,,,,,,,decisionTrl,resources/DP.BMP,resources/DB.BMP,WildCard_Ex,-0.002777778,-0.105555556,1,0,0,0.4916,optionRight,5,9495,5,1,0,1,0,1,,,,,,,,,,,,,,,,,,,,,,,,,,,,,,,,,,,,,,,
,,,,,,,,2023-08-16_08h07.01.247,HF_wild_card,2022.2.4,Win32,12.00148818,6400dc9a87b5f4d0c3604bf3,64d2fd46c836a06233681665,64dc7580e16980cfae864776,,,,,,,decisionTrl,resources/DP.BMP,resources/DR.BMP,Door4,-0.356481481,-0.008333333,1,0,0,1.8304,optionLeft,60,9555,5,2,0,2,0,1,,,,,,,,,,,,,,,,,,,,,,,,,,,,,,,,,,,,,,,
,,,,,,,,2023-08-16_08h07.01.247,HF_wild_card,2022.2.4,Win32,12.00148818,6400dc9a87b5f4d0c3604bf3,64d2fd46c836a06233681665,64dc7580e16980cfae864776,,,,,,,decisionTrl,resources/DB.BMP,resources/DR.BMP,WildCard_Ex,-0.017592593,-0.005555556,1,0,0,0.3903,optionLeft,5,9560,5,3,0,3,0,1,,,,,,,,,,,,,,,,,,,,,,,,,,,,,,,,,,,,,,,
,,,,,,,,2023-08-16_08h07.01.247,HF_wild_card,2022.2.4,Win32,12.00148818,6400dc9a87b5f4d0c3604bf3,64d2fd46c836a06233681665,64dc7580e16980cfae864776,,,,,,,decisionTrl,resources/DR.BMP,resources/DP.BMP,Door3,-0.335185185,-0.042592593,1,0,0,1.5826,optionLeft,70,9630,5,4,0,4,0,1,,,,,,,,,,,,,,,,,,,,,,,,,,,,,,,,,,,,,,,
,,,,,,,,2023-08-16_08h07.01.247,HF_wild_card,2022.2.4,Win32,12.00148818,6400dc9a87b5f4d0c3604bf3,64d2fd46c836a06233681665,64dc7580e16980cfae864776,,,,,,,sngl,resources/Empty.png,resources/DB.BMP,WildCard_Ex,0.414814815,-0.078703704,1,0,0,0.6118,optionRight,95,9725,5,5,0,5,0,1,,,,,,,,,,,,,,,,,,,,,,,,,,,,,,,,,,,,,,,
,,,,,,,,2023-08-16_08h07.01.247,HF_wild_card,2022.2.4,Win32,12.00148818,6400dc9a87b5f4d0c3604bf3,64d2fd46c836a06233681665,64dc7580e16980cfae864776,,,,,,,decisionTrl,resources/DR.BMP,resources/DP.BMP,Door4,0.306481481,-0.040740741,1,0,0,0.8913,optionRight,80,9805,5,6,0,6,0,1,,,,,,,,,,,,,,,,,,,,,,,,,,,,,,,,,,,,,,,
,,,,,,,,2023-08-16_08h07.01.247,HF_wild_card,2022.2.4,Win32,12.00148818,6400dc9a87b5f4d0c3604bf3,64d2fd46c836a06233681665,64dc7580e16980cfae864776,,,,,,,decisionTrl,resources/DG.BMP,resources/DY.BMP,Door2,0.484259259,-0.035185185,1,0,0,2.3693,optionRight,40,9845,5,7,0,7,0,1,,,,,,,,,,,,,,,,,,,,,,,,,,,,,,,,,,,,,,,
,,,,,,,,2023-08-16_08h07.01.247,HF_wild_card,2022.2.4,Win32,12.00148818,6400dc9a87b5f4d0c3604bf3,64d2fd46c836a06233681665,64dc7580e16980cfae864776,,,,,,,decisionTrl,resources/DB.BMP,resources/DY.BMP,WildCard_Ex,0.011111111,-0.021296296,1,0,0,0.3066,optionLeft,95,9940,5,8,0,8,0,1,,,,,,,,,,,,,,,,,,,,,,,,,,,,,,,,,,,,,,,
,,,,,,,,2023-08-16_08h07.01.247,HF_wild_card,2022.2.4,Win32,12.00148818,6400dc9a87b5f4d0c3604bf3,64d2fd46c836a06233681665,64dc7580e16980cfae864776,,,,,,,decisionTrl,resources/DP.BMP,resources/DR.BMP,Door4,-0.568518519,0.02037037,1,0,0,2.5058,optionLeft,80,10020,5,9,0,9,0,1,,,,,,,,,,,,,,,,,,,,,,,,,,,,,,,,,,,,,,,
,,,,,,,,2023-08-16_08h07.01.247,HF_wild_card,2022.2.4,Win32,12.00148818,6400dc9a87b5f4d0c3604bf3,64d2fd46c836a06233681665,64dc7580e16980cfae864776,,,,,,,sngl,resources/DY.BMP,resources/Empty.png,Door2,-0.361111111,-0.05462963,1,0,0,0.9516,optionLeft,40,10060,5,10,0,10,0,1,,,,,,,,,,,,,,,,,,,,,,,,,,,,,,,,,,,,,,,
,,,,,,,,2023-08-16_08h07.01.247,HF_wild_card,2022.2.4,Win32,12.00148818,6400dc9a87b5f4d0c3604bf3,64d2fd46c836a06233681665,64dc7580e16980cfae864776,,,,,,,sngl,resources/DB.BMP,resources/Empty.png,WildCard_Ex,-0.358333333,-0.012962963,1,0,0,0.7201,optionLeft,5,10065,5,11,0,11,0,1,,,,,,,,,,,,,,,,,,,,,,,,,,,,,,,,,,,,,,,
,,,,,,,,2023-08-16_08h07.01.247,HF_wild_card,2022.2.4,Win32,12.00148818,6400dc9a87b5f4d0c3604bf3,64d2fd46c836a06233681665,64dc7580e16980cfae864776,,,,,,,decisionTrl,resources/DR.BMP,resources/DB.BMP,WildCard_Ex,0.248148148,-0.038888889,1,0,0,0.7742,optionRight,5,10070,5,12,0,12,0,1,,,,,,,,,,,,,,,,,,,,,,,,,,,,,,,,,,,,,,,
,,,,,,,,2023-08-16_08h07.01.247,HF_wild_card,2022.2.4,Win32,12.00148818,6400dc9a87b5f4d0c3604bf3,64d2fd46c836a06233681665,64dc7580e16980cfae864776,,,,,,,decisionTrl,resources/DB.BMP,resources/DP.BMP,Door4,-0.001851852,-0.013888889,1,0,0,0.2948,optionRight,60,10130,5,13,0,13,0,1,,,,,,,,,,,,,,,,,,,,,,,,,,,,,,,,,,,,,,,
,,,,,,,,2023-08-16_08h07.01.247,HF_wild_card,2022.2.4,Win32,12.00148818,6400dc9a87b5f4d0c3604bf3,64d2fd46c836a06233681665,64dc7580e16980cfae864776,,,,,,,sngl,resources/DR.BMP,resources/Empty.png,Door3,-0.340740741,0.006481481,1,0,0,0.6045,optionLeft,70,10200,5,14,0,14,0,1,,,,,,,,,,,,,,,,,,,,,,,,,,,,,,,,,,,,,,,
,,,,,,,,2023-08-16_08h07.01.247,HF_wild_card,2022.2.4,Win32,12.00148818,6400dc9a87b5f4d0c3604bf3,64d2fd46c836a06233681665,64dc7580e16980cfae864776,,,,,,,ctch,resources/DR.BMP,resources/DY.BMP,Door2,0.002777778,-0.037037037,1,0,0,0.1942,optionRight,40,10240,5,15,0,15,0,1,,,,,,,,,,,,,,,,,,,,,,,,,,,,,,,,,,,,,,,
,,,,,,,,2023-08-16_08h07.01.247,HF_wild_card,2022.2.4,Win32,12.00148818,6400dc9a87b5f4d0c3604bf3,64d2fd46c836a06233681665,64dc7580e16980cfae864776,,,,,,,sngl,resources/Empty.png,resources/DP.BMP,Door4,0.010185185,-0.011111111,1,0,0,0.2697,optionRight,60,10300,5,16,0,16,0,1,,,,,,,,,,,,,,,,,,,,,,,,,,,,,,,,,,,,,,,
,,,,,,,,2023-08-16_08h07.01.247,HF_wild_card,2022.2.4,Win32,12.00148818,6400dc9a87b5f4d0c3604bf3,64d2fd46c836a06233681665,64dc7580e16980cfae864776,,,,,,,decisionTrl,resources/DY.BMP,resources/DG.BMP,Door2,0.013888889,0,1,0,0,0.2025,optionLeft,40,10340,5,17,0,17,0,1,,,,,,,,,,,,,,,,,,,,,,,,,,,,,,,,,,,,,,,
,,,,,,,,2023-08-16_08h07.01.247,HF_wild_card,2022.2.4,Win32,12.00148818,6400dc9a87b5f4d0c3604bf3,64d2fd46c836a06233681665,64dc7580e16980cfae864776,,,,,,,decisionTrl,resources/DR.BMP,resources/DP.BMP,Door4,-0.011111111,0.016666667,1,0,0,0.1833,optionRight,60,10400,5,18,0,18,0,1,,,,,,,,,,,,,,,,,,,,,,,,,,,,,,,,,,,,,,,
,,,,,,,,2023-08-16_08h07.01.247,HF_wild_card,2022.2.4,Win32,12.00148818,6400dc9a87b5f4d0c3604bf3,64d2fd46c836a06233681665,64dc7580e16980cfae864776,,,,,,,decisionTrl,resources/DG.BMP,resources/DY.BMP,Door2,0.369444444,0,1,0,0,3.3578,optionRight,40,10440,5,19,0,19,0,1,,,,,,,,,,,,,,,,,,,,,,,,,,,,,,,,,,,,,,,
,,,,,,,,2023-08-16_08h07.01.247,HF_wild_card,2022.2.4,Win32,12.00148818,6400dc9a87b5f4d0c3604bf3,64d2fd46c836a06233681665,64dc7580e16980cfae864776,,,,,,,decisionTrl,resources/DG.BMP,resources/DY.BMP,Door1,-0.001851852,0.003703704,1,0,0,0.1974,optionLeft,30,10470,5,20,0,20,0,1,,,,,,,,,,,,,,,,,,,,,,,,,,,,,,,,,,,,,,,
,,,,,,,,2023-08-16_08h07.01.247,HF_wild_card,2022.2.4,Win32,12.00148818,6400dc9a87b5f4d0c3604bf3,64d2fd46c836a06233681665,64dc7580e16980cfae864776,,,,,,,ctch,resources/DG.BMP,resources/DP.BMP,Door4,0.356481481,-0.026851852,1,0,0,1.0611,optionRight,80,10550,5,21,0,21,0,1,,,,,,,,,,,,,,,,,,,,,,,,,,,,,,,,,,,,,,,
,,,,,,,,2023-08-16_08h07.01.247,HF_wild_card,2022.2.4,Win32,12.00148818,6400dc9a87b5f4d0c3604bf3,64d2fd46c836a06233681665,64dc7580e16980cfae864776,,,,,,,decisionTrl,resources/DY.BMP,resources/DB.BMP,WildCard_Ex,-0.011111111,0.013888889,1,0,0,0.1967,optionRight,5,10555,5,22,0,22,0,1,,,,,,,,,,,,,,,,,,,,,,,,,,,,,,,,,,,,,,,
,,,,,,,,2023-08-16_08h07.01.247,HF_wild_card,2022.2.4,Win32,12.00148818,6400dc9a87b5f4d0c3604bf3,64d2fd46c836a06233681665,64dc7580e16980cfae864776,,,,,,,decisionTrl,resources/DY.BMP,resources/DG.BMP,Door1,0.377777778,-0.106481481,1,0,0,1.3654,optionRight,30,10585,5,23,0,23,0,1,,,,,,,,,,,,,,,,,,,,,,,,,,,,,,,,,,,,,,,
,,,,,,,,2023-08-16_08h07.01.247,HF_wild_card,2022.2.4,Win32,12.00148818,6400dc9a87b5f4d0c3604bf3,64d2fd46c836a06233681665,64dc7580e16980cfae864776,,,,,,,sngl,resources/DB.BMP,resources/Empty.png,WildCard_Ex,0.00462963,0.005555556,1,0,0,0.2512,optionLeft,95,10680,5,24,0,24,0,1,,,,,,,,,,,,,,,,,,,,,,,,,,,,,,,,,,,,,,,
,,,,,,,,2023-08-16_08h07.01.247,HF_wild_card,2022.2.4,Win32,12.00148818,6400dc9a87b5f4d0c3604bf3,64d2fd46c836a06233681665,64dc7580e16980cfae864776,,,,,,,decisionTrl,resources/DG.BMP,resources/DY.BMP,Door1,-0.333333333,0.033333333,1,0,0,0.9492,optionLeft,30,10710,5,25,0,25,0,1,,,,,,,,,,,,,,,,,,,,,,,,,,,,,,,,,,,,,,,
,,,,,,,,2023-08-16_08h07.01.247,HF_wild_card,2022.2.4,Win32,12.00148818,6400dc9a87b5f4d0c3604bf3,64d2fd46c836a06233681665,64dc7580e16980cfae864776,,,,,,,sngl,resources/Empty.png,resources/DR.BMP,Door3,0.216666667,-0.023148148,1,0,0,0.6909,optionRight,70,10780,5,26,0,26,0,1,,,,,,,,,,,,,,,,,,,,,,,,,,,,,,,,,,,,,,,
,,,,,,,,2023-08-16_08h07.01.247,HF_wild_card,2022.2.4,Win32,12.00148818,6400dc9a87b5f4d0c3604bf3,64d2fd46c836a06233681665,64dc7580e16980cfae864776,,,,,,,ctch,resources/DY.BMP,resources/DR.BMP,Door2,-0.102777778,-0.060185185,1,0,0,0.5662,optionLeft,20,10800,5,27,0,27,0,1,,,,,,,,,,,,,,,,,,,,,,,,,,,,,,,,,,,,,,,
,,,,,,,,2023-08-16_08h07.01.247,HF_wild_card,2022.2.4,Win32,12.00148818,6400dc9a87b5f4d0c3604bf3,64d2fd46c836a06233681665,64dc7580e16980cfae864776,,,,,,,decisionTrl,resources/DG.BMP,resources/DB.BMP,WildCard_Ex,0.323148148,-0.024074074,1,0,0,1.0779,optionRight,95,10895,5,28,0,28,0,1,,,,,,,,,,,,,,,,,,,,,,,,,,,,,,,,,,,,,,,
,,,,,,,,2023-08-16_08h07.01.247,HF_wild_card,2022.2.4,Win32,12.00148818,6400dc9a87b5f4d0c3604bf3,64d2fd46c836a06233681665,64dc7580e16980cfae864776,,,,,,,sngl,resources/Empty.png,resources/DB.BMP,WildCard_Ex,0.011111111,-0.001851852,1,0,0,0.2618,optionRight,5,10900,5,29,0,29,0,1,,,,,,,,,,,,,,,,,,,,,,,,,,,,,,,,,,,,,,,
,,,,,,,,2023-08-16_08h07.01.247,HF_wild_card,2022.2.4,Win32,12.00148818,6400dc9a87b5f4d0c3604bf3,64d2fd46c836a06233681665,64dc7580e16980cfae864776,,,,,,,decisionTrl,resources/DY.BMP,resources/DG.BMP,Door1,0.224074074,-0.024074074,1,0,0,1.352,optionRight,30,10930,5,30,0,30,0,1,,,,,,,,,,,,,,,,,,,,,,,,,,,,,,,,,,,,,,,
,,,,,,,,2023-08-16_08h07.01.247,HF_wild_card,2022.2.4,Win32,12.00148818,6400dc9a87b5f4d0c3604bf3,64d2fd46c836a06233681665,64dc7580e16980cfae864776,,,,,,,sngl,resources/Empty.png,resources/DY.BMP,Door2,0.269444444,-0.028703704,1,0,0,0.6106,optionRight,20,10950,5,31,0,31,0,1,,,,,,,,,,,,,,,,,,,,,,,,,,,,,,,,,,,,,,,
,,,,,,,,2023-08-16_08h07.01.247,HF_wild_card,2022.2.4,Win32,12.00148818,6400dc9a87b5f4d0c3604bf3,64d2fd46c836a06233681665,64dc7580e16980cfae864776,,,,,,,ctch,resources/DY.BMP,resources/DR.BMP,Door3,0.419444444,-0.031481481,1,0,0,0.8383,optionRight,70,11020,5,32,0,32,0,1,,,,,,,,,,,,,,,,,,,,,,,,,,,,,,,,,,,,,,,
,,,,,,,,2023-08-16_08h07.01.247,HF_wild_card,2022.2.4,Win32,12.00148818,6400dc9a87b5f4d0c3604bf3,64d2fd46c836a06233681665,64dc7580e16980cfae864776,,,,,,,decisionTrl,resources/DB.BMP,resources/DG.BMP,WildCard_Ex,-0.284259259,-0.027777778,1,0,0,0.9818,optionLeft,5,11025,5,33,0,33,0,1,,,,,,,,,,,,,,,,,,,,,,,,,,,,,,,,,,,,,,,
,,,,,,,,2023-08-16_08h07.01.247,HF_wild_card,2022.2.4,Win32,12.00148818,6400dc9a87b5f4d0c3604bf3,64d2fd46c836a06233681665,64dc7580e16980cfae864776,,,,,,,ctch,resources/DP.BMP,resources/DG.BMP,Door4,-0.350925926,-0.023148148,1,0,0,0.8788,optionLeft,80,11105,5,34,0,34,0,1,,,,,,,,,,,,,,,,,,,,,,,,,,,,,,,,,,,,,,,
,,,,,,,,2023-08-16_08h07.01.247,HF_wild_card,2022.2.4,Win32,12.00148818,6400dc9a87b5f4d0c3604bf3,64d2fd46c836a06233681665,64dc7580e16980cfae864776,,,,,,,ctch,resources/DG.BMP,resources/DP.BMP,Door4,0.352777778,-0.075925926,1,0,0,1.0514,optionRight,60,11165,5,35,0,35,0,1,,,,,,,,,,,,,,,,,,,,,,,,,,,,,,,,,,,,,,,
,,,,,,,,2023-08-16_08h07.01.247,HF_wild_card,2022.2.4,Win32,12.00148818,6400dc9a87b5f4d0c3604bf3,64d2fd46c836a06233681665,64dc7580e16980cfae864776,,,,,,,ctch,resources/DP.BMP,resources/DG.BMP,Door4,-0.421296296,-0.005555556,1,0,0,1.0175,optionLeft,60,11225,5,36,0,36,0,1,,,,,,,,,,,,,,,,,,,,,,,,,,,,,,,,,,,,,,,
,,,,,,,,2023-08-16_08h07.01.247,HF_wild_card,2022.2.4,Win32,12.00148818,6400dc9a87b5f4d0c3604bf3,64d2fd46c836a06233681665,64dc7580e16980cfae864776,,,,,,,decisionTrl,resources/DP.BMP,resources/DR.BMP,Door4,-0.471296296,0.027777778,1,0,0,1.1418,optionLeft,60,11285,5,37,0,37,0,1,,,,,,,,,,,,,,,,,,,,,,,,,,,,,,,,,,,,,,,
,,,,,,,,2023-08-16_08h07.01.247,HF_wild_card,2022.2.4,Win32,12.00148818,6400dc9a87b5f4d0c3604bf3,64d2fd46c836a06233681665,64dc7580e16980cfae864776,,,,,,,ctch,resources/DR.BMP,resources/DY.BMP,Door3,-0.373148148,-0.04537037,1,0,0,1.3615,optionLeft,70,11355,5,38,0,38,0,1,,,,,,,,,,,,,,,,,,,,,,,,,,,,,,,,,,,,,,,
,,,,,,,,2023-08-16_08h07.01.247,HF_wild_card,2022.2.4,Win32,12.00148818,6400dc9a87b5f4d0c3604bf3,64d2fd46c836a06233681665,64dc7580e16980cfae864776,,,,,,,decisionTrl,resources/DP.BMP,resources/DR.BMP,Door4,-0.249074074,-0.006481481,1,0,0,1.1963,optionLeft,60,11415,5,39,0,39,0,1,,,,,,,,,,,,,,,,,,,,,,,,,,,,,,,,,,,,,,,
,,,,,,,,2023-08-16_08h07.01.247,HF_wild_card,2022.2.4,Win32,12.00148818,6400dc9a87b5f4d0c3604bf3,64d2fd46c836a06233681665,64dc7580e16980cfae864776,,,,,,,sngl,resources/DG.BMP,resources/Empty.png,Door1,0.002777778,-0.002777778,1,0,0,0.2546,optionLeft,30,11445,5,40,0,40,0,1,,,,,,,,,,,,,,,,,,,,,,,,,,,,,,,,,,,,,,,
,,,,,,,,2023-08-16_08h07.01.247,HF_wild_card,2022.2.4,Win32,12.00148818,6400dc9a87b5f4d0c3604bf3,64d2fd46c836a06233681665,64dc7580e16980cfae864776,,,,,,,sngl,resources/Empty.png,resources/DG.BMP,Door1,0.306481481,-0.014814815,1,0,0,0.6302,optionRight,30,11475,5,41,0,41,0,1,,,,,,,,,,,,,,,,,,,,,,,,,,,,,,,,,,,,,,,
,,,,,,,,2023-08-16_08h07.01.247,HF_wild_card,2022.2.4,Win32,12.00148818,6400dc9a87b5f4d0c3604bf3,64d2fd46c836a06233681665,64dc7580e16980cfae864776,,,,,,,decisionTrl,resources/DY.BMP,resources/DG.BMP,Door1,0.369444444,-0.056481481,1,0,0,1.054,optionRight,30,11505,5,42,0,42,0,1,,,,,,,,,,,,,,,,,,,,,,,,,,,,,,,,,,,,,,,
,,,,,,,,2023-08-16_08h07.01.247,HF_wild_card,2022.2.4,Win32,12.00148818,6400dc9a87b5f4d0c3604bf3,64d2fd46c836a06233681665,64dc7580e16980cfae864776,,,,,,,sngl,resources/DP.BMP,resources/Empty.png,Door4,-0.355555556,-0.006481481,1,0,0,0.6262,optionLeft,80,11585,5,43,0,43,0,1,,,,,,,,,,,,,,,,,,,,,,,,,,,,,,,,,,,,,,,
,,,,,,,,2023-08-16_08h07.01.247,HF_wild_card,2022.2.4,Win32,12.00148818,6400dc9a87b5f4d0c3604bf3,64d2fd46c836a06233681665,64dc7580e16980cfae864776,,,,,,,,,,,,,,,,,,,,,,,,,,4,0,4,0,1,,,,,,,,,,,,,,,,,,,,,,,,,,,,,,,,,,
,,,,,,,,2023-08-16_08h07.01.247,HF_wild_card,2022.2.4,Win32,12.00148818,6400dc9a87b5f4d0c3604bf3,64d2fd46c836a06233681665,64dc7580e16980cfae864776,,,,,,,decisionTrl,resources/DG.BMP,resources/DY.BMP,Door1,-0.375,-0.041666667,1,0,0,1.8344,optionLeft,30,11615,6,0,0,0,0,1,,,,,,,,,,,,,,,,,,,,,,,,,,,,,,,,,,,,,,,
,,,,,,,,2023-08-16_08h07.01.247,HF_wild_card,2022.2.4,Win32,12.00148818,6400dc9a87b5f4d0c3604bf3,64d2fd46c836a06233681665,64dc7580e16980cfae864776,,,,,,,sngl,resources/Empty.png,resources/DY.BMP,Door2,0.519444444,-0.037962963,1,0,0,0.6327,optionRight,40,11655,6,1,0,1,0,1,,,,,,,,,,,,,,,,,,,,,,,,,,,,,,,,,,,,,,,
,,,,,,,,2023-08-16_08h07.01.247,HF_wild_card,2022.2.4,Win32,12.00148818,6400dc9a87b5f4d0c3604bf3,64d2fd46c836a06233681665,64dc7580e16980cfae864776,,,,,,,decisionTrl,resources/DR.BMP,resources/DP.BMP,Door3,-0.298148148,-0.005555556,1,0,0,1.3579,optionLeft,70,11725,6,2,0,2,0,1,,,,,,,,,,,,,,,,,,,,,,,,,,,,,,,,,,,,,,,
,,,,,,,,2023-08-16_08h07.01.247,HF_wild_card,2022.2.4,Win32,12.00148818,6400dc9a87b5f4d0c3604bf3,64d2fd46c836a06233681665,64dc7580e16980cfae864776,,,,,,,decisionTrl,resources/DR.BMP,resources/DP.BMP,Door3,-0.327777778,0.012962963,1,0,0,0.8111,optionLeft,70,11795,6,3,0,3,0,1,,,,,,,,,,,,,,,,,,,,,,,,,,,,,,,,,,,,,,,
,,,,,,,,2023-08-16_08h07.01.247,HF_wild_card,2022.2.4,Win32,12.00148818,6400dc9a87b5f4d0c3604bf3,64d2fd46c836a06233681665,64dc7580e16980cfae864776,,,,,,,decisionTrl,resources/DY.BMP,resources/DG.BMP,Door2,-0.190740741,-0.036111111,1,0,0,1.3544,optionLeft,40,11835,6,4,0,4,0,1,,,,,,,,,,,,,,,,,,,,,,,,,,,,,,,,,,,,,,,
,,,,,,,,2023-08-16_08h07.01.247,HF_wild_card,2022.2.4,Win32,12.00148818,6400dc9a87b5f4d0c3604bf3,64d2fd46c836a06233681665,64dc7580e16980cfae864776,,,,,,,sngl,resources/DY.BMP,resources/Empty.png,Door2,-0.24537037,-0.060185185,1,0,0,0.6199,optionLeft,20,11855,6,5,0,5,0,1,,,,,,,,,,,,,,,,,,,,,,,,,,,,,,,,,,,,,,,
,,,,,,,,2023-08-16_08h07.01.247,HF_wild_card,2022.2.4,Win32,12.00148818,6400dc9a87b5f4d0c3604bf3,64d2fd46c836a06233681665,64dc7580e16980cfae864776,,,,,,,ctch,resources/DR.BMP,resources/DY.BMP,Door3,-0.325925926,-0.055555556,1,0,0,0.8743,optionLeft,70,11925,6,6,0,6,0,1,,,,,,,,,,,,,,,,,,,,,,,,,,,,,,,,,,,,,,,
,,,,,,,,2023-08-16_08h07.01.247,HF_wild_card,2022.2.4,Win32,12.00148818,6400dc9a87b5f4d0c3604bf3,64d2fd46c836a06233681665,64dc7580e16980cfae864776,,,,,,,sngl,resources/DP.BMP,resources/Empty.png,Door4,-0.303703704,-0.057407407,1,0,0,0.6149,optionLeft,60,11985,6,7,0,7,0,1,,,,,,,,,,,,,,,,,,,,,,,,,,,,,,,,,,,,,,,
,,,,,,,,2023-08-16_08h07.01.247,HF_wild_card,2022.2.4,Win32,12.00148818,6400dc9a87b5f4d0c3604bf3,64d2fd46c836a06233681665,64dc7580e16980cfae864776,,,,,,,decisionTrl,resources/DB.BMP,resources/DR.BMP,WildCard_Ex,-0.376851852,-0.02962963,1,0,0,1.022,optionLeft,5,11990,6,8,0,8,0,1,,,,,,,,,,,,,,,,,,,,,,,,,,,,,,,,,,,,,,,
,,,,,,,,2023-08-16_08h07.01.247,HF_wild_card,2022.2.4,Win32,12.00148818,6400dc9a87b5f4d0c3604bf3,64d2fd46c836a06233681665,64dc7580e16980cfae864776,,,,,,,decisionTrl,resources/DY.BMP,resources/DB.BMP,WildCard_Ex,0.276851852,-0.059259259,1,0,0,0.7909,optionRight,95,12085,6,9,0,9,0,1,,,,,,,,,,,,,,,,,,,,,,,,,,,,,,,,,,,,,,,
,,,,,,,,2023-08-16_08h07.01.247,HF_wild_card,2022.2.4,Win32,12.00148818,6400dc9a87b5f4d0c3604bf3,64d2fd46c836a06233681665,64dc7580e16980cfae864776,,,,,,,decisionTrl,resources/DP.BMP,resources/DR.BMP,Door3,0.414814815,-0.014814815,1,0,0,2.7024,optionRight,70,12155,6,10,0,10,0,1,,,,,,,,,,,,,,,,,,,,,,,,,,,,,,,,,,,,,,,
,,,,,,,,2023-08-16_08h07.01.247,HF_wild_card,2022.2.4,Win32,12.00148818,6400dc9a87b5f4d0c3604bf3,64d2fd46c836a06233681665,64dc7580e16980cfae864776,,,,,,,sngl,resources/DR.BMP,resources/Empty.png,Door3,-0.228703704,-0.018518519,1,0,0,0.6379,optionLeft,70,12225,6,11,0,11,0,1,,,,,,,,,,,,,,,,,,,,,,,,,,,,,,,,,,,,,,,
,,,,,,,,2023-08-16_08h07.01.247,HF_wild_card,2022.2.4,Win32,12.00148818,6400dc9a87b5f4d0c3604bf3,64d2fd46c836a06233681665,64dc7580e16980cfae864776,,,,,,,decisionTrl,resources/DY.BMP,resources/DG.BMP,Door2,-0.262962963,-0.003703704,1,0,0,1.643,optionLeft,20,12245,6,12,0,12,0,1,,,,,,,,,,,,,,,,,,,,,,,,,,,,,,,,,,,,,,,
,,,,,,,,2023-08-16_08h07.01.247,HF_wild_card,2022.2.4,Win32,12.00148818,6400dc9a87b5f4d0c3604bf3,64d2fd46c836a06233681665,64dc7580e16980cfae864776,,,,,,,decisionTrl,resources/DP.BMP,resources/DB.BMP,WildCard_Ex,0.337962963,-0.030555556,1,0,0,0.8541,optionRight,5,12250,6,13,0,13,0,1,,,,,,,,,,,,,,,,,,,,,,,,,,,,,,,,,,,,,,,
,,,,,,,,2023-08-16_08h07.01.247,HF_wild_card,2022.2.4,Win32,12.00148818,6400dc9a87b5f4d0c3604bf3,64d2fd46c836a06233681665,64dc7580e16980cfae864776,,,,,,,decisionTrl,resources/DG.BMP,resources/DB.BMP,WildCard_Ex,0.415740741,-0.037037037,1,0,0,1.0445,optionRight,5,12255,6,14,0,14,0,1,,,,,,,,,,,,,,,,,,,,,,,,,,,,,,,,,,,,,,,
,,,,,,,,2023-08-16_08h07.01.247,HF_wild_card,2022.2.4,Win32,12.00148818,6400dc9a87b5f4d0c3604bf3,64d2fd46c836a06233681665,64dc7580e16980cfae864776,,,,,,,sngl,resources/Empty.png,resources/DG.BMP,Door1,-0.008333333,0.008333333,1,0,0,0.2746,optionRight,30,12285,6,15,0,15,0,1,,,,,,,,,,,,,,,,,,,,,,,,,,,,,,,,,,,,,,,
,,,,,,,,2023-08-16_08h07.01.247,HF_wild_card,2022.2.4,Win32,12.00148818,6400dc9a87b5f4d0c3604bf3,64d2fd46c836a06233681665,64dc7580e16980cfae864776,,,,,,,ctch,resources/DG.BMP,resources/DP.BMP,Door4,0.022222222,0.005555556,1,0,0,0.1931,optionRight,60,12345,6,16,0,16,0,1,,,,,,,,,,,,,,,,,,,,,,,,,,,,,,,,,,,,,,,
,,,,,,,,2023-08-16_08h07.01.247,HF_wild_card,2022.2.4,Win32,12.00148818,6400dc9a87b5f4d0c3604bf3,64d2fd46c836a06233681665,64dc7580e16980cfae864776,,,,,,,decisionTrl,resources/DG.BMP,resources/DY.BMP,Door2,-0.012037037,-0.017592593,1,0,0,0.2798,optionRight,20,12365,6,17,0,17,0,1,,,,,,,,,,,,,,,,,,,,,,,,,,,,,,,,,,,,,,,
,,,,,,,,2023-08-16_08h07.01.247,HF_wild_card,2022.2.4,Win32,12.00148818,6400dc9a87b5f4d0c3604bf3,64d2fd46c836a06233681665,64dc7580e16980cfae864776,,,,,,,decisionTrl,resources/DR.BMP,resources/DB.BMP,WildCard_Ex,-0.017592593,-0.005555556,1,0,0,0.3002,optionRight,5,12370,6,18,0,18,0,1,,,,,,,,,,,,,,,,,,,,,,,,,,,,,,,,,,,,,,,
,,,,,,,,2023-08-16_08h07.01.247,HF_wild_card,2022.2.4,Win32,12.00148818,6400dc9a87b5f4d0c3604bf3,64d2fd46c836a06233681665,64dc7580e16980cfae864776,,,,,,,decisionTrl,resources/DR.BMP,resources/DP.BMP,Door3,-0.375,-0.024074074,1,0,0,2.0203,optionLeft,70,12440,6,19,0,19,0,1,,,,,,,,,,,,,,,,,,,,,,,,,,,,,,,,,,,,,,,
,,,,,,,,2023-08-16_08h07.01.247,HF_wild_card,2022.2.4,Win32,12.00148818,6400dc9a87b5f4d0c3604bf3,64d2fd46c836a06233681665,64dc7580e16980cfae864776,,,,,,,ctch,resources/DP.BMP,resources/DG.BMP,Door4,-0.434259259,-0.048148148,1,0,0,0.9474,optionLeft,60,12500,6,20,0,20,0,1,,,,,,,,,,,,,,,,,,,,,,,,,,,,,,,,,,,,,,,
,,,,,,,,2023-08-16_08h07.01.247,HF_wild_card,2022.2.4,Win32,12.00148818,6400dc9a87b5f4d0c3604bf3,64d2fd46c836a06233681665,64dc7580e16980cfae864776,,,,,,,decisionTrl,resources/DG.BMP,resources/DY.BMP,Door1,-0.269444444,-0.023148148,1,0,0,1.8487,optionLeft,30,12530,6,21,0,21,0,1,,,,,,,,,,,,,,,,,,,,,,,,,,,,,,,,,,,,,,,
,,,,,,,,2023-08-16_08h07.01.247,HF_wild_card,2022.2.4,Win32,12.00148818,6400dc9a87b5f4d0c3604bf3,64d2fd46c836a06233681665,64dc7580e16980cfae864776,,,,,,,ctch,resources/DG.BMP,resources/DP.BMP,Door4,0.396296296,-0.105555556,1,0,0,0.8908,optionRight,80,12610,6,22,0,22,0,1,,,,,,,,,,,,,,,,,,,,,,,,,,,,,,,,,,,,,,,
,,,,,,,,2023-08-16_08h07.01.247,HF_wild_card,2022.2.4,Win32,12.00148818,6400dc9a87b5f4d0c3604bf3,64d2fd46c836a06233681665,64dc7580e16980cfae864776,,,,,,,ctch,resources/DP.BMP,resources/DG.BMP,Door4,-0.352777778,0.012037037,1,0,0,0.5955,optionLeft,60,12670,6,23,0,23,0,1,,,,,,,,,,,,,,,,,,,,,,,,,,,,,,,,,,,,,,,
,,,,,,,,2023-08-16_08h07.01.247,HF_wild_card,2022.2.4,Win32,12.00148818,6400dc9a87b5f4d0c3604bf3,64d2fd46c836a06233681665,64dc7580e16980cfae864776,,,,,,,decisionTrl,resources/DP.BMP,resources/DR.BMP,Door3,0.305555556,-0.023148148,1,0,0,1.658,optionRight,70,12740,6,24,0,24,0,1,,,,,,,,,,,,,,,,,,,,,,,,,,,,,,,,,,,,,,,
,,,,,,,,2023-08-16_08h07.01.247,HF_wild_card,2022.2.4,Win32,12.00148818,6400dc9a87b5f4d0c3604bf3,64d2fd46c836a06233681665,64dc7580e16980cfae864776,,,,,,,ctch,resources/DY.BMP,resources/DR.BMP,Door3,0.602777778,-0.265740741,1,0,0,9.313,optionRight,70,12810,6,25,0,25,0,1,,,,,,,,,,,,,,,,,,,,,,,,,,,,,,,,,,,,,,,
,,,,,,,,2023-08-16_08h07.01.247,HF_wild_card,2022.2.4,Win32,12.00148818,6400dc9a87b5f4d0c3604bf3,64d2fd46c836a06233681665,64dc7580e16980cfae864776,,,,,,,sngl,resources/DG.BMP,resources/Empty.png,Door1,-0.071296296,0.062037037,1,0,0,1.1656,optionLeft,30,12840,6,26,0,26,0,1,,,,,,,,,,,,,,,,,,,,,,,,,,,,,,,,,,,,,,,
,,,,,,,,2023-08-16_08h07.01.247,HF_wild_card,2022.2.4,Win32,12.00148818,6400dc9a87b5f4d0c3604bf3,64d2fd46c836a06233681665,64dc7580e16980cfae864776,,,,,,,decisionTrl,resources/DP.BMP,resources/DR.BMP,Door4,-0.487037037,-0.026851852,1,0,0,0.8925,optionLeft,80,12920,6,27,0,27,0,1,,,,,,,,,,,,,,,,,,,,,,,,,,,,,,,,,,,,,,,
,,,,,,,,2023-08-16_08h07.01.247,HF_wild_card,2022.2.4,Win32,12.00148818,6400dc9a87b5f4d0c3604bf3,64d2fd46c836a06233681665,64dc7580e16980cfae864776,,,,,,,decisionTrl,resources/DY.BMP,resources/DG.BMP,Door1,0.275925926,-0.037962963,1,0,0,1.1778,optionRight,30,12950,6,28,0,28,0,1,,,,,,,,,,,,,,,,,,,,,,,,,,,,,,,,,,,,,,,
,,,,,,,,2023-08-16_08h07.01.247,HF_wild_card,2022.2.4,Win32,12.00148818,6400dc9a87b5f4d0c3604bf3,64d2fd46c836a06233681665,64dc7580e16980cfae864776,,,,,,,decisionTrl,resources/DY.BMP,resources/DG.BMP,Door1,0.323148148,-0.033333333,1,0,0,0.9757,optionRight,30,12980,6,29,0,29,0,1,,,,,,,,,,,,,,,,,,,,,,,,,,,,,,,,,,,,,,,
,,,,,,,,2023-08-16_08h07.01.247,HF_wild_card,2022.2.4,Win32,12.00148818,6400dc9a87b5f4d0c3604bf3,64d2fd46c836a06233681665,64dc7580e16980cfae864776,,,,,,,decisionTrl,resources/DR.BMP,resources/DP.BMP,Door3,-0.341666667,-0.024074074,1,0,0,2.126,optionLeft,70,13050,6,30,0,30,0,1,,,,,,,,,,,,,,,,,,,,,,,,,,,,,,,,,,,,,,,
,,,,,,,,2023-08-16_08h07.01.247,HF_wild_card,2022.2.4,Win32,12.00148818,6400dc9a87b5f4d0c3604bf3,64d2fd46c836a06233681665,64dc7580e16980cfae864776,,,,,,,decisionTrl,resources/DP.BMP,resources/DR.BMP,Door3,0.008333333,-0.002777778,1,0,0,0.302,optionRight,70,13120,6,31,0,31,0,1,,,,,,,,,,,,,,,,,,,,,,,,,,,,,,,,,,,,,,,
,,,,,,,,2023-08-16_08h07.01.247,HF_wild_card,2022.2.4,Win32,12.00148818,6400dc9a87b5f4d0c3604bf3,64d2fd46c836a06233681665,64dc7580e16980cfae864776,,,,,,,ctch,resources/DR.BMP,resources/DY.BMP,Door3,-0.275925926,-0.053703704,1,0,0,0.698,optionLeft,70,13190,6,32,0,32,0,1,,,,,,,,,,,,,,,,,,,,,,,,,,,,,,,,,,,,,,,
,,,,,,,,2023-08-16_08h07.01.247,HF_wild_card,2022.2.4,Win32,12.00148818,6400dc9a87b5f4d0c3604bf3,64d2fd46c836a06233681665,64dc7580e16980cfae864776,,,,,,,decisionTrl,resources/DB.BMP,resources/DG.BMP,WildCard_Ex,-0.511111111,0.042592593,1,0,0,0.8704,optionLeft,95,13285,6,33,0,33,0,1,,,,,,,,,,,,,,,,,,,,,,,,,,,,,,,,,,,,,,,
,,,,,,,,2023-08-16_08h07.01.247,HF_wild_card,2022.2.4,Win32,12.00148818,6400dc9a87b5f4d0c3604bf3,64d2fd46c836a06233681665,64dc7580e16980cfae864776,,,,,,,decisionTrl,resources/DB.BMP,resources/DP.BMP,WildCard_Ex,-0.246296296,-0.011111111,1,0,0,0.7792,optionLeft,95,13380,6,34,0,34,0,1,,,,,,,,,,,,,,,,,,,,,,,,,,,,,,,,,,,,,,,
,,,,,,,,2023-08-16_08h07.01.247,HF_wild_card,2022.2.4,Win32,12.00148818,6400dc9a87b5f4d0c3604bf3,64d2fd46c836a06233681665,64dc7580e16980cfae864776,,,,,,,ctch,resources/DY.BMP,resources/DR.BMP,Door3,0.283333333,-0.073148148,1,0,0,1.0527,optionRight,70,13450,6,35,0,35,0,1,,,,,,,,,,,,,,,,,,,,,,,,,,,,,,,,,,,,,,,
,,,,,,,,2023-08-16_08h07.01.247,HF_wild_card,2022.2.4,Win32,12.00148818,6400dc9a87b5f4d0c3604bf3,64d2fd46c836a06233681665,64dc7580e16980cfae864776,,,,,,,sngl,resources/DB.BMP,resources/Empty.png,WildCard_Ex,-0.336111111,-0.036111111,1,0,0,0.6152,optionLeft,5,13455,6,36,0,36,0,1,,,,,,,,,,,,,,,,,,,,,,,,,,,,,,,,,,,,,,,
,,,,,,,,2023-08-16_08h07.01.247,HF_wild_card,2022.2.4,Win32,12.00148818,6400dc9a87b5f4d0c3604bf3,64d2fd46c836a06233681665,64dc7580e16980cfae864776,,,,,,,sngl,resources/Empty.png,resources/DB.BMP,WildCard_Ex,0.290740741,-0.056481481,1,0,0,0.7164,optionRight,95,13550,6,37,0,37,0,1,,,,,,,,,,,,,,,,,,,,,,,,,,,,,,,,,,,,,,,
,,,,,,,,2023-08-16_08h07.01.247,HF_wild_card,2022.2.4,Win32,12.00148818,6400dc9a87b5f4d0c3604bf3,64d2fd46c836a06233681665,64dc7580e16980cfae864776,,,,,,,sngl,resources/Empty.png,resources/DP.BMP,Door4,0.394444444,-0.012962963,1,0,0,0.7231,optionRight,80,13630,6,38,0,38,0,1,,,,,,,,,,,,,,,,,,,,,,,,,,,,,,,,,,,,,,,
,,,,,,,,2023-08-16_08h07.01.247,HF_wild_card,2022.2.4,Win32,12.00148818,6400dc9a87b5f4d0c3604bf3,64d2fd46c836a06233681665,64dc7580e16980cfae864776,,,,,,,decisionTrl,resources/DB.BMP,resources/DY.BMP,Door2,0.416666667,-0.049074074,1,0,0,2.3084,optionRight,40,13670,6,39,0,39,0,1,,,,,,,,,,,,,,,,,,,,,,,,,,,,,,,,,,,,,,,
,,,,,,,,2023-08-16_08h07.01.247,HF_wild_card,2022.2.4,Win32,12.00148818,6400dc9a87b5f4d0c3604bf3,64d2fd46c836a06233681665,64dc7580e16980cfae864776,,,,,,,sngl,resources/Empty.png,resources/DB.BMP,WildCard_Ex,0.397222222,-0.037037037,1,0,0,0.6025,optionRight,5,13675,6,40,0,40,0,1,,,,,,,,,,,,,,,,,,,,,,,,,,,,,,,,,,,,,,,
,,,,,,,,2023-08-16_08h07.01.247,HF_wild_card,2022.2.4,Win32,12.00148818,6400dc9a87b5f4d0c3604bf3,64d2fd46c836a06233681665,64dc7580e16980cfae864776,,,,,,,sngl,resources/Empty.png,resources/DR.BMP,Door3,0.29537037,0.017592593,1,0,0,0.9571,optionRight,70,13745,6,41,0,41,0,1,,,,,,,,,,,,,,,,,,,,,,,,,,,,,,,,,,,,,,,
,,,,,,,,2023-08-16_08h07.01.247,HF_wild_card,2022.2.4,Win32,12.00148818,6400dc9a87b5f4d0c3604bf3,64d2fd46c836a06233681665,64dc7580e16980cfae864776,,,,,,,sngl,resources/DB.BMP,resources/Empty.png,WildCard_Ex,-0.20462963,0.001851852,1,0,0,0.5333,optionLeft,95,13840,6,42,0,42,0,1,,,,,,,,,,,,,,,,,,,,,,,,,,,,,,,,,,,,,,,
,,,,,,,,2023-08-16_08h07.01.247,HF_wild_card,2022.2.4,Win32,12.00148818,6400dc9a87b5f4d0c3604bf3,64d2fd46c836a06233681665,64dc7580e16980cfae864776,,,,,,,decisionTrl,resources/DG.BMP,resources/DY.BMP,Door1,-0.225,-0.035185185,1,0,0,1.5623,optionLeft,30,13870,6,43,0,43,0,1,,,,,,,,,,,,,,,,,,,,,,,,,,,,,,,,,,,,,,,
,,,,,,,,2023-08-16_08h07.01.247,HF_wild_card,2022.2.4,Win32,12.00148818,6400dc9a87b5f4d0c3604bf3,64d2fd46c836a06233681665,64dc7580e16980cfae864776,,,,,,,,,,,,,,,,,,,,,,,,,,5,0,5,0,1,,,,,,,,,,,,,,,,,,,,,,,,,,,,,,,,,,
,,,,,,,,2023-08-16_08h07.01.247,HF_wild_card,2022.2.4,Win32,12.00148818,6400dc9a87b5f4d0c3604bf3,64d2fd46c836a06233681665,64dc7580e16980cfae864776,,,,,,,decisionTrl,resources/DG.BMP,resources/DY.BMP,Door1,-0.227777778,-0.040740741,1,0,0,1.746,optionLeft,30,13900,7,0,0,0,0,1,,,,,,,,,,,,,,,,,,,,,,,,,,,,,,,,,,,,,,,
,,,,,,,,2023-08-16_08h07.01.247,HF_wild_card,2022.2.4,Win32,12.00148818,6400dc9a87b5f4d0c3604bf3,64d2fd46c836a06233681665,64dc7580e16980cfae864776,,,,,,,decisionTrl,resources/DR.BMP,resources/DP.BMP,Door3,-0.423148148,-0.005555556,1,0,0,1.7444,optionLeft,70,13970,7,1,0,1,0,1,,,,,,,,,,,,,,,,,,,,,,,,,,,,,,,,,,,,,,,
,,,,,,,,2023-08-16_08h07.01.247,HF_wild_card,2022.2.4,Win32,12.00148818,6400dc9a87b5f4d0c3604bf3,64d2fd46c836a06233681665,64dc7580e16980cfae864776,,,,,,,decisionTrl,resources/DR.BMP,resources/DP.BMP,Door3,-0.394444444,0.036111111,1,0,0,1.1462,optionLeft,70,14040,7,2,0,2,0,1,,,,,,,,,,,,,,,,,,,,,,,,,,,,,,,,,,,,,,,
,,,,,,,,2023-08-16_08h07.01.247,HF_wild_card,2022.2.4,Win32,12.00148818,6400dc9a87b5f4d0c3604bf3,64d2fd46c836a06233681665,64dc7580e16980cfae864776,,,,,,,ctch,resources/DY.BMP,resources/DR.BMP,Door3,0.312962963,-0.017592593,1,0,0,1.057,optionRight,70,14110,7,3,0,3,0,1,,,,,,,,,,,,,,,,,,,,,,,,,,,,,,,,,,,,,,,
,,,,,,,,2023-08-16_08h07.01.247,HF_wild_card,2022.2.4,Win32,12.00148818,6400dc9a87b5f4d0c3604bf3,64d2fd46c836a06233681665,64dc7580e16980cfae864776,,,,,,,ctch,resources/DR.BMP,resources/DY.BMP,Door3,-0.290740741,0.00462963,1,0,0,0.9651,optionLeft,70,14180,7,4,0,4,0,1,,,,,,,,,,,,,,,,,,,,,,,,,,,,,,,,,,,,,,,
,,,,,,,,2023-08-16_08h07.01.247,HF_wild_card,2022.2.4,Win32,12.00148818,6400dc9a87b5f4d0c3604bf3,64d2fd46c836a06233681665,64dc7580e16980cfae864776,,,,,,,ctch,resources/DP.BMP,resources/DG.BMP,Door4,-0.401851852,-0.022222222,1,0,0,1.135,optionLeft,60,14240,7,5,0,5,0,1,,,,,,,,,,,,,,,,,,,,,,,,,,,,,,,,,,,,,,,
,,,,,,,,2023-08-16_08h07.01.247,HF_wild_card,2022.2.4,Win32,12.00148818,6400dc9a87b5f4d0c3604bf3,64d2fd46c836a06233681665,64dc7580e16980cfae864776,,,,,,,decisionTrl,resources/DY.BMP,resources/DG.BMP,Door1,0.446296296,-0.085185185,1,0,0,2.5004,optionRight,30,14270,7,6,0,6,0,1,,,,,,,,,,,,,,,,,,,,,,,,,,,,,,,,,,,,,,,
,,,,,,,,2023-08-16_08h07.01.247,HF_wild_card,2022.2.4,Win32,12.00148818,6400dc9a87b5f4d0c3604bf3,64d2fd46c836a06233681665,64dc7580e16980cfae864776,,,,,,,decisionTrl,resources/DG.BMP,resources/DY.BMP,Door1,-0.306481481,-0.006481481,1,0,0,0.8668,optionLeft,30,14300,7,7,0,7,0,1,,,,,,,,,,,,,,,,,,,,,,,,,,,,,,,,,,,,,,,
,,,,,,,,2023-08-16_08h07.01.247,HF_wild_card,2022.2.4,Win32,12.00148818,6400dc9a87b5f4d0c3604bf3,64d2fd46c836a06233681665,64dc7580e16980cfae864776,,,,,,,decisionTrl,resources/DY.BMP,resources/DG.BMP,Door1,0.428703704,0.034259259,1,0,0,0.7566,optionRight,30,14330,7,8,0,8,0,1,,,,,,,,,,,,,,,,,,,,,,,,,,,,,,,,,,,,,,,
,,,,,,,,2023-08-16_08h07.01.247,HF_wild_card,2022.2.4,Win32,12.00148818,6400dc9a87b5f4d0c3604bf3,64d2fd46c836a06233681665,64dc7580e16980cfae864776,,,,,,,decisionTrl,resources/DG.BMP,resources/DY.BMP,Door1,-0.263888889,0.02037037,1,0,0,0.594,optionLeft,30,14360,7,9,0,9,0,1,,,,,,,,,,,,,,,,,,,,,,,,,,,,,,,,,,,,,,,
,,,,,,,,2023-08-16_08h07.01.247,HF_wild_card,2022.2.4,Win32,12.00148818,6400dc9a87b5f4d0c3604bf3,64d2fd46c836a06233681665,64dc7580e16980cfae864776,,,,,,,decisionTrl,resources/DR.BMP,resources/DP.BMP,Door3,-0.362962963,-0.012962963,1,0,0,1.6313,optionLeft,70,14430,7,10,0,10,0,1,,,,,,,,,,,,,,,,,,,,,,,,,,,,,,,,,,,,,,,
,,,,,,,,2023-08-16_08h07.01.247,HF_wild_card,2022.2.4,Win32,12.00148818,6400dc9a87b5f4d0c3604bf3,64d2fd46c836a06233681665,64dc7580e16980cfae864776,,,,,,,decisionTrl,resources/DP.BMP,resources/DR.BMP,Door3,-0.016666667,0.008333333,1,0,0,0.1855,optionRight,70,14500,7,11,0,11,0,1,,,,,,,,,,,,,,,,,,,,,,,,,,,,,,,,,,,,,,,
,,,,,,,,2023-08-16_08h07.01.247,HF_wild_card,2022.2.4,Win32,12.00148818,6400dc9a87b5f4d0c3604bf3,64d2fd46c836a06233681665,64dc7580e16980cfae864776,,,,,,,decisionTrl,resources/DP.BMP,resources/DR.BMP,Door3,0.266666667,-0.002777778,1,0,0,0.7626,optionRight,70,14570,7,12,0,12,0,1,,,,,,,,,,,,,,,,,,,,,,,,,,,,,,,,,,,,,,,
,,,,,,,,2023-08-16_08h07.01.247,HF_wild_card,2022.2.4,Win32,12.00148818,6400dc9a87b5f4d0c3604bf3,64d2fd46c836a06233681665,64dc7580e16980cfae864776,,,,,,,decisionTrl,resources/DP.BMP,resources/DR.BMP,Door3,0.359259259,-0.044444444,1,0,0,0.5467,optionRight,70,14640,7,13,0,13,0,1,,,,,,,,,,,,,,,,,,,,,,,,,,,,,,,,,,,,,,,
,,,,,,,,2023-08-16_08h07.01.247,HF_wild_card,2022.2.4,Win32,12.00148818,6400dc9a87b5f4d0c3604bf3,64d2fd46c836a06233681665,64dc7580e16980cfae864776,,,,,,,decisionTrl,resources/DP.BMP,resources/DR.BMP,Door3,0.259259259,0.012962963,1,0,0,0.5769,optionRight,70,14710,7,14,0,14,0,1,,,,,,,,,,,,,,,,,,,,,,,,,,,,,,,,,,,,,,,
,,,,,,,,2023-08-16_08h07.01.247,HF_wild_card,2022.2.4,Win32,12.00148818,6400dc9a87b5f4d0c3604bf3,64d2fd46c836a06233681665,64dc7580e16980cfae864776,,,,,,,ctch,resources/DY.BMP,resources/DR.BMP,Door3,0.413888889,-0.02037037,1,0,0,1.7033,optionRight,70,14780,7,15,0,15,0,1,,,,,,,,,,,,,,,,,,,,,,,,,,,,,,,,,,,,,,,
,,,,,,,,2023-08-16_08h07.01.247,HF_wild_card,2022.2.4,Win32,12.00148818,6400dc9a87b5f4d0c3604bf3,64d2fd46c836a06233681665,64dc7580e16980cfae864776,,,,,,,decisionTrl,resources/DP.BMP,resources/DR.BMP,Door3,0.341666667,-0.043518519,1,0,0,1.0262,optionRight,70,14850,7,16,0,16,0,1,,,,,,,,,,,,,,,,,,,,,,,,,,,,,,,,,,,,,,,
,,,,,,,,2023-08-16_08h07.01.247,HF_wild_card,2022.2.4,Win32,12.00148818,6400dc9a87b5f4d0c3604bf3,64d2fd46c836a06233681665,64dc7580e16980cfae864776,,,,,,,ctch,resources/DR.BMP,resources/DY.BMP,Door3,0.012962963,-0.013888889,1,0,0,0.3647,optionLeft,70,14920,7,17,0,17,0,1,,,,,,,,,,,,,,,,,,,,,,,,,,,,,,,,,,,,,,,
,,,,,,,,2023-08-16_08h07.01.247,HF_wild_card,2022.2.4,Win32,12.00148818,6400dc9a87b5f4d0c3604bf3,64d2fd46c836a06233681665,64dc7580e16980cfae864776,,,,,,,decisionTrl,resources/DG.BMP,resources/DY.BMP,Door2,0.252777778,-0.039814815,1,0,0,1.2355,optionRight,40,14960,7,18,0,18,0,1,,,,,,,,,,,,,,,,,,,,,,,,,,,,,,,,,,,,,,,
,,,,,,,,2023-08-16_08h07.01.247,HF_wild_card,2022.2.4,Win32,12.00148818,6400dc9a87b5f4d0c3604bf3,64d2fd46c836a06233681665,64dc7580e16980cfae864776,,,,,,,ctch,resources/DR.BMP,resources/DY.BMP,Door3,-0.280555556,-0.001851852,1,0,0,0.9522,optionLeft,70,15030,7,19,0,19,0,1,,,,,,,,,,,,,,,,,,,,,,,,,,,,,,,,,,,,,,,
,,,,,,,,2023-08-16_08h07.01.247,HF_wild_card,2022.2.4,Win32,12.00148818,6400dc9a87b5f4d0c3604bf3,64d2fd46c836a06233681665,64dc7580e16980cfae864776,,,,,,,ctch,resources/DG.BMP,resources/DP.BMP,Door4,0.376851852,-0.065740741,1,0,0,1.2866,optionRight,80,15110,7,20,0,20,0,1,,,,,,,,,,,,,,,,,,,,,,,,,,,,,,,,,,,,,,,
,,,,,,,,2023-08-16_08h07.01.247,HF_wild_card,2022.2.4,Win32,12.00148818,6400dc9a87b5f4d0c3604bf3,64d2fd46c836a06233681665,64dc7580e16980cfae864776,,,,,,,decisionTrl,resources/DY.BMP,resources/DG.BMP,Door2,-0.411111111,0.063888889,1,0,0,1.1257,optionLeft,40,15150,7,21,0,21,0,1,,,,,,,,,,,,,,,,,,,,,,,,,,,,,,,,,,,,,,,
,,,,,,,,2023-08-16_08h07.01.247,HF_wild_card,2022.2.4,Win32,12.00148818,6400dc9a87b5f4d0c3604bf3,64d2fd46c836a06233681665,64dc7580e16980cfae864776,,,,,,,ctch,resources/DP.BMP,resources/DG.BMP,Door4,-0.340740741,-0.043518519,1,0,0,1.5232,optionLeft,60,15210,7,22,0,22,0,1,,,,,,,,,,,,,,,,,,,,,,,,,,,,,,,,,,,,,,,
,,,,,,,,2023-08-16_08h07.01.247,HF_wild_card,2022.2.4,Win32,12.00148818,6400dc9a87b5f4d0c3604bf3,64d2fd46c836a06233681665,64dc7580e16980cfae864776,,,,,,,decisionTrl,resources/DR.BMP,resources/DP.BMP,Door3,-0.430555556,0.002777778,1,0,0,1.5572,optionLeft,70,15280,7,23,0,23,0,1,,,,,,,,,,,,,,,,,,,,,,,,,,,,,,,,,,,,,,,
,,,,,,,,2023-08-16_08h07.01.247,HF_wild_card,2022.2.4,Win32,12.00148818,6400dc9a87b5f4d0c3604bf3,64d2fd46c836a06233681665,64dc7580e16980cfae864776,,,,,,,ctch,resources/DY.BMP,resources/DR.BMP,Door3,0.366666667,-0.087962963,1,0,0,0.7769,optionRight,70,15350,7,24,0,24,0,1,,,,,,,,,,,,,,,,,,,,,,,,,,,,,,,,,,,,,,,
,,,,,,,,2023-08-16_08h07.01.247,HF_wild_card,2022.2.4,Win32,12.00148818,6400dc9a87b5f4d0c3604bf3,64d2fd46c836a06233681665,64dc7580e16980cfae864776,,,,,,,decisionTrl,resources/DY.BMP,resources/DG.BMP,Door1,0.437962963,-0.055555556,1,0,0,1.8156,optionRight,30,15380,7,25,0,25,0,1,,,,,,,,,,,,,,,,,,,,,,,,,,,,,,,,,,,,,,,
,,,,,,,,2023-08-16_08h07.01.247,HF_wild_card,2022.2.4,Win32,12.00148818,6400dc9a87b5f4d0c3604bf3,64d2fd46c836a06233681665,64dc7580e16980cfae864776,,,,,,,decisionTrl,resources/DY.BMP,resources/DG.BMP,Door1,0.371296296,-0.05,1,0,0,0.7653,optionRight,30,15410,7,26,0,26,0,1,,,,,,,,,,,,,,,,,,,,,,,,,,,,,,,,,,,,,,,
,,,,,,,,2023-08-16_08h07.01.247,HF_wild_card,2022.2.4,Win32,12.00148818,6400dc9a87b5f4d0c3604bf3,64d2fd46c836a06233681665,64dc7580e16980cfae864776,,,,,,,decisionTrl,resources/DP.BMP,resources/DR.BMP,Door4,-0.39537037,-0.001851852,1,0,0,2.0673,optionLeft,60,15470,7,27,0,27,0,1,,,,,,,,,,,,,,,,,,,,,,,,,,,,,,,,,,,,,,,
,,,,,,,,2023-08-16_08h07.01.247,HF_wild_card,2022.2.4,Win32,12.00148818,6400dc9a87b5f4d0c3604bf3,64d2fd46c836a06233681665,64dc7580e16980cfae864776,,,,,,,ctch,resources/DG.BMP,resources/DP.BMP,Door4,0.351851852,-0.107407407,1,0,0,0.7812,optionRight,60,15530,7,28,0,28,0,1,,,,,,,,,,,,,,,,,,,,,,,,,,,,,,,,,,,,,,,
,,,,,,,,2023-08-16_08h07.01.247,HF_wild_card,2022.2.4,Win32,12.00148818,6400dc9a87b5f4d0c3604bf3,64d2fd46c836a06233681665,64dc7580e16980cfae864776,,,,,,,ctch,resources/DP.BMP,resources/DG.BMP,Door4,-0.251851852,-0.014814815,1,0,0,0.6825,optionLeft,80,15610,7,29,0,29,0,1,,,,,,,,,,,,,,,,,,,,,,,,,,,,,,,,,,,,,,,
,,,,,,,,2023-08-16_08h07.01.247,HF_wild_card,2022.2.4,Win32,12.00148818,6400dc9a87b5f4d0c3604bf3,64d2fd46c836a06233681665,64dc7580e16980cfae864776,,,,,,,decisionTrl,resources/DY.BMP,resources/DG.BMP,Door1,0.340740741,-0.113888889,1,0,0,1.351,optionRight,30,15640,7,30,0,30,0,1,,,,,,,,,,,,,,,,,,,,,,,,,,,,,,,,,,,,,,,
,,,,,,,,2023-08-16_08h07.01.247,HF_wild_card,2022.2.4,Win32,12.00148818,6400dc9a87b5f4d0c3604bf3,64d2fd46c836a06233681665,64dc7580e16980cfae864776,,,,,,,decisionTrl,resources/DG.BMP,resources/DY.BMP,Door1,-0.241666667,-0.043518519,1,0,0,0.7784,optionLeft,30,15670,7,31,0,31,0,1,,,,,,,,,,,,,,,,,,,,,,,,,,,,,,,,,,,,,,,
,,,,,,,,2023-08-16_08h07.01.247,HF_wild_card,2022.2.4,Win32,12.00148818,6400dc9a87b5f4d0c3604bf3,64d2fd46c836a06233681665,64dc7580e16980cfae864776,,,,,,,decisionTrl,resources/DG.BMP,resources/DY.BMP,Door1,-0.211111111,-0.030555556,1,0,0,0.6717,optionLeft,30,15700,7,32,0,32,0,1,,,,,,,,,,,,,,,,,,,,,,,,,,,,,,,,,,,,,,,
,,,,,,,,2023-08-16_08h07.01.247,HF_wild_card,2022.2.4,Win32,12.00148818,6400dc9a87b5f4d0c3604bf3,64d2fd46c836a06233681665,64dc7580e16980cfae864776,,,,,,,decisionTrl,resources/DR.BMP,resources/DP.BMP,Door3,-0.375,-0.025925926,1,0,0,1.0708,optionLeft,70,15770,7,33,0,33,0,1,,,,,,,,,,,,,,,,,,,,,,,,,,,,,,,,,,,,,,,
,,,,,,,,2023-08-16_08h07.01.247,HF_wild_card,2022.2.4,Win32,12.00148818,6400dc9a87b5f4d0c3604bf3,64d2fd46c836a06233681665,64dc7580e16980cfae864776,,,,,,,ctch,resources/DG.BMP,resources/DP.BMP,Door4,0.303703704,-0.086111111,1,0,0,0.9677,optionRight,80,15850,7,34,0,34,0,1,,,,,,,,,,,,,,,,,,,,,,,,,,,,,,,,,,,,,,,
,,,,,,,,2023-08-16_08h07.01.247,HF_wild_card,2022.2.4,Win32,12.00148818,6400dc9a87b5f4d0c3604bf3,64d2fd46c836a06233681665,64dc7580e16980cfae864776,,,,,,,decisionTrl,resources/DR.BMP,resources/DP.BMP,Door3,-0.244444444,-0.037962963,1,0,0,0.6813,optionLeft,70,15920,7,35,0,35,0,1,,,,,,,,,,,,,,,,,,,,,,,,,,,,,,,,,,,,,,,
,,,,,,,,2023-08-16_08h07.01.247,HF_wild_card,2022.2.4,Win32,12.00148818,6400dc9a87b5f4d0c3604bf3,64d2fd46c836a06233681665,64dc7580e16980cfae864776,,,,,,,,,,,,,,,,,,,,,,,,,,6,0,6,0,1,,,,,,,,,,,,,,,,,,,,,,,,,,,,,,,,,,
,,,,,,,,2023-08-16_08h07.01.247,HF_wild_card,2022.2.4,Win32,12.00148818,6400dc9a87b5f4d0c3604bf3,64d2fd46c836a06233681665,64dc7580e16980cfae864776,,,,,,,,,,,,,,,,,,,,,,,,,,,,,,,3,,,,,,,,,,,,,,,,,,,,,,,,,,,,,,,,,
,,,,,,,,2023-08-16_08h07.01.247,HF_wild_card,2022.2.4,Win32,12.00148818,6400dc9a87b5f4d0c3604bf3,64d2fd46c836a06233681665,64dc7580e16980cfae864776,,,,,,,,,,,,,,,,,,,,,,,,,,,,,,,,,,,,,,,,,,,,,,,,,,,,,,,,,,,,,,,,
,,,,,,,,2023-08-16_08h07.01.247,HF_wild_card,2022.2.4,Win32,12.00148818,6400dc9a87b5f4d0c3604bf3,64d2fd46c836a06233681665,64dc7580e16980cfae864776,,,,,,,,,,,,,,,,,,,,,,,,,,,,,,,,70,Door3,resources/DR.BMP,0,0,0,0,1,,,,,,,,,,,,,,,,,,,,,,,,,
,,,,,,,,2023-08-16_08h07.01.247,HF_wild_card,2022.2.4,Win32,12.00148818,6400dc9a87b5f4d0c3604bf3,64d2fd46c836a06233681665,64dc7580e16980cfae864776,,,,,,,,,,,,,,,,,,,,,,,,,,,,,,,,30,Door1,resources/DG.BMP,1,0,1,0,1,,,,,,,,,,,,,,,,,,,,,,,,,
,,,,,,,,2023-08-16_08h07.01.247,HF_wild_card,2022.2.4,Win32,12.00148818,6400dc9a87b5f4d0c3604bf3,64d2fd46c836a06233681665,64dc7580e16980cfae864776,,,,,,,,,,,,,,,,,,,,,,,,,,,,,,,,80,Door4,resources/DP.BMP,2,0,2,0,1,,,,,,,,,,,,,,,,,,,,,,,,,
,,,,,,,,2023-08-16_08h07.01.247,HF_wild_card,2022.2.4,Win32,12.00148818,6400dc9a87b5f4d0c3604bf3,64d2fd46c836a06233681665,64dc7580e16980cfae864776,,,,,,,,,,,,,,,,,,,,,,,,,,,,,,,,20,Door2,resources/DY.BMP,3,0,3,0,1,,,,,,,,,,,,,,,,,,,,,,,,,
,,,,,,,,2023-08-16_08h07.01.247,HF_wild_card,2022.2.4,Win32,12.00148818,6400dc9a87b5f4d0c3604bf3,64d2fd46c836a06233681665,64dc7580e16980cfae864776,,,,,,,,,,,,,,,,,,,,,,,,,,,,,,,,95,WC_extreme,resources/DB.BMP,4,0,4,0,1,,,,,,,,,,,,,,,,,,,,,,,,,
,,,,,,,,2023-08-16_08h07.01.247,HF_wild_card,2022.2.4,Win32,12.00148818,6400dc9a87b5f4d0c3604bf3,64d2fd46c836a06233681665,64dc7580e16980cfae864776,,,,,,,,,,,,,,,,,,,,,,,,,,,,,,,,55,WC_nonExtreme,resources/DBN.BMP,5,0,5,0,1,,,,,,,,,,,,,,,,,,,,,,,,,
,,,,,,,,2023-08-16_08h07.01.247,HF_wild_card,2022.2.4,Win32,12.00148818,6400dc9a87b5f4d0c3604bf3,64d2fd46c836a06233681665,64dc7580e16980cfae864776,,,,,,,,,,,,,,,,,,,,,,,,,,,,,,,,,,,,,,,,,,,,,,,,,,,,,,,,,,,,,,,,
