Condition,Low fixed image (Door1),Low risky image (Door2),High fixed image (Door3),High risky image (Door4),NonExtreme Wild Card 1,NonExtreme Wild Card 2,,date,expName,psychopyVersion,OS,frameRate,PROLIFIC_PID,STUDY_ID,SESSION_ID,mouse_2.x,mouse_2.y,mouse_2.leftButton,mouse_2.midButton,mouse_2.rightButton,mouse_2.clicked_name,Trial Type,Left Option Image,Right Option Image,Chosen Door,mouse.x,mouse.y,mouse.leftButton,mouse.midButton,mouse.rightButton,mouse.time,mouse.clicked_name,Feedback,Cumulative Reward,Block,trial.thisRepN,trial.thisTrialN,trial.thisN,trial.thisIndex,trial.ran,blocks.thisRepN,blocks.thisTrialN,blocks.thisN,blocks.thisIndex,blocks.ran,Money conversion,First Outcome Reported,Shown Door (First Outcome),Displayed Image (First Outcome),outcomes.thisRepN,outcomes.thisTrialN,outcomes.thisN,outcomes.thisIndex,outcomes.ran,judgments.thisRepN,judgments.thisTrialN,judgments.thisN,judgments.thisIndex,judgments.ran,freqMouse.x,freqMouse.y,freqMouse.leftButton,freqMouse.midButton,freqMouse.rightButton,freqMouse.clicked_name,FQJ for first outcome,FQJ for second outcome,Shown Door,Displayed Image,trials.thisRepN,trials.thisTrialN,trials.thisN,trials.thisIndex,trials.ran,judgBlock.thisRepN,judgBlock.thisTrialN,judgBlock.thisN,judgBlock.thisIndex,judgBlock.ran
2,resources/DG.BMP,resources/DR.BMP,resources/DP.BMP,resources/DBN.BMP,resources/DB.BMP,resources/DY.BMP,,2023-08-06_08h21.22.905,HF_wild_card,2022.2.4,Win32,60.04202942,5bc58a439d9a7c0001cfa90e,64ce5acb97489d65b14ecc7a,64cf492e37db3658e28334e0,,,,,,,,,,,,,,,,,,,,,,,,,,,,,,,,,,,,,,,,,,,,,,,,,,,,,,,,,,,,,,,,
,,,,,,,,2023-08-06_08h21.22.905,HF_wild_card,2022.2.4,Win32,60.04202942,5bc58a439d9a7c0001cfa90e,64ce5acb97489d65b14ecc7a,64cf492e37db3658e28334e0,-0.000925869,-0.428703732,1,0,0,agree,,,,,,,,,,,,,,,,,,,,,,,,,,,,,,,,,,,,,,,,,,,,,,,,,,,,,,,,,,
,,,,,,,,2023-08-06_08h21.22.905,HF_wild_card,2022.2.4,Win32,60.04202942,5bc58a439d9a7c0001cfa90e,64ce5acb97489d65b14ecc7a,64cf492e37db3658e28334e0,,,,,,,,,,,,,,,,,,,,,,,,,,,,,,,,,,,,,,,,,,,,,,,,,,,,,,,,,,,,,,,,
,,,,,,,,2023-08-06_08h21.22.905,HF_wild_card,2022.2.4,Win32,60.04202942,5bc58a439d9a7c0001cfa90e,64ce5acb97489d65b14ecc7a,64cf492e37db3658e28334e0,,,,,,,decisionTrl,resources/DR.BMP,resources/DY.BMP,WildCard_NonEx,0.467592621,-0.062962977,1,0,0,4.8926,optionRight,55,55,1,0,0,0,0,1,,,,,,,,,,,,,,,,,,,,,,,,,,,,,,,,,,,,,,,
,,,,,,,,2023-08-06_08h21.22.905,HF_wild_card,2022.2.4,Win32,60.04202942,5bc58a439d9a7c0001cfa90e,64ce5acb97489d65b14ecc7a,64cf492e37db3658e28334e0,,,,,,,sngl,resources/DBN.BMP,resources/Empty.png,Door4,-0.330555556,-0.030555556,1,0,0,3.2019,optionLeft,80,135,1,1,0,1,0,1,,,,,,,,,,,,,,,,,,,,,,,,,,,,,,,,,,,,,,,
,,,,,,,,2023-08-06_08h21.22.905,HF_wild_card,2022.2.4,Win32,60.04202942,5bc58a439d9a7c0001cfa90e,64ce5acb97489d65b14ecc7a,64cf492e37db3658e28334e0,,,,,,,sngl,resources/DG.BMP,resources/Empty.png,Door1,-0.333333333,-0.076851866,1,0,0,1.8093,optionLeft,30,165,1,2,0,2,0,1,,,,,,,,,,,,,,,,,,,,,,,,,,,,,,,,,,,,,,,
,,,,,,,,2023-08-06_08h21.22.905,HF_wild_card,2022.2.4,Win32,60.04202942,5bc58a439d9a7c0001cfa90e,64ce5acb97489d65b14ecc7a,64cf492e37db3658e28334e0,,,,,,,decisionTrl,resources/DY.BMP,resources/DBN.BMP,Door4,0.399074131,0.025,1,0,0,4.3429,optionRight,60,225,1,3,0,3,0,1,,,,,,,,,,,,,,,,,,,,,,,,,,,,,,,,,,,,,,,
,,,,,,,,2023-08-06_08h21.22.905,HF_wild_card,2022.2.4,Win32,60.04202942,5bc58a439d9a7c0001cfa90e,64ce5acb97489d65b14ecc7a,64cf492e37db3658e28334e0,,,,,,,decisionTrl,resources/DBN.BMP,resources/DP.BMP,Door4,-0.36851849,-0.012962977,1,0,0,3.6458,optionLeft,80,305,1,4,0,4,0,1,,,,,,,,,,,,,,,,,,,,,,,,,,,,,,,,,,,,,,,
,,,,,,,,2023-08-06_08h21.22.905,HF_wild_card,2022.2.4,Win32,60.04202942,5bc58a439d9a7c0001cfa90e,64ce5acb97489d65b14ecc7a,64cf492e37db3658e28334e0,,,,,,,decisionTrl,resources/DP.BMP,resources/DY.BMP,WildCard_NonEx,0.317592621,0.013888889,1,0,0,3.1523,optionRight,45,350,1,5,0,5,0,1,,,,,,,,,,,,,,,,,,,,,,,,,,,,,,,,,,,,,,,
,,,,,,,,2023-08-06_08h21.22.905,HF_wild_card,2022.2.4,Win32,60.04202942,5bc58a439d9a7c0001cfa90e,64ce5acb97489d65b14ecc7a,64cf492e37db3658e28334e0,,,,,,,ctch,resources/DP.BMP,resources/DR.BMP,Door2,0.402777778,-0.028703732,1,0,0,3.9769,optionRight,20,370,1,6,0,6,0,1,,,,,,,,,,,,,,,,,,,,,,,,,,,,,,,,,,,,,,,
,,,,,,,,2023-08-06_08h21.22.905,HF_wild_card,2022.2.4,Win32,60.04202942,5bc58a439d9a7c0001cfa90e,64ce5acb97489d65b14ecc7a,64cf492e37db3658e28334e0,,,,,,,decisionTrl,resources/DP.BMP,resources/DBN.BMP,Door4,0.374074131,0.025,1,0,0,1.8766,optionRight,60,430,1,7,0,7,0,1,,,,,,,,,,,,,,,,,,,,,,,,,,,,,,,,,,,,,,,
,,,,,,,,2023-08-06_08h21.22.905,HF_wild_card,2022.2.4,Win32,60.04202942,5bc58a439d9a7c0001cfa90e,64ce5acb97489d65b14ecc7a,64cf492e37db3658e28334e0,,,,,,,ctch,resources/DR.BMP,resources/DP.BMP,Door2,-0.404629601,-0.029629644,1,0,0,3.4821,optionLeft,40,470,1,8,0,8,0,1,,,,,,,,,,,,,,,,,,,,,,,,,,,,,,,,,,,,,,,
,,,,,,,,2023-08-06_08h21.22.905,HF_wild_card,2022.2.4,Win32,60.04202942,5bc58a439d9a7c0001cfa90e,64ce5acb97489d65b14ecc7a,64cf492e37db3658e28334e0,,,,,,,sngl,resources/DR.BMP,resources/Empty.png,Door2,-0.301851824,-0.032407422,1,0,0,2.011,optionLeft,40,510,1,9,0,9,0,1,,,,,,,,,,,,,,,,,,,,,,,,,,,,,,,,,,,,,,,
,,,,,,,,2023-08-06_08h21.22.905,HF_wild_card,2022.2.4,Win32,60.04202942,5bc58a439d9a7c0001cfa90e,64ce5acb97489d65b14ecc7a,64cf492e37db3658e28334e0,,,,,,,ctch,resources/DG.BMP,resources/DBN.BMP,Door4,0.361111111,0.044444444,1,0,0,2.431,optionRight,80,590,1,10,0,10,0,1,,,,,,,,,,,,,,,,,,,,,,,,,,,,,,,,,,,,,,,
,,,,,,,,2023-08-06_08h21.22.905,HF_wild_card,2022.2.4,Win32,60.04202942,5bc58a439d9a7c0001cfa90e,64ce5acb97489d65b14ecc7a,64cf492e37db3658e28334e0,,,,,,,decisionTrl,resources/DY.BMP,resources/DR.BMP,Door2,0.386111111,-0.010185199,1,0,0,4.2832,optionRight,20,610,1,11,0,11,0,1,,,,,,,,,,,,,,,,,,,,,,,,,,,,,,,,,,,,,,,
,,,,,,,,2023-08-06_08h21.22.905,HF_wild_card,2022.2.4,Win32,60.04202942,5bc58a439d9a7c0001cfa90e,64ce5acb97489d65b14ecc7a,64cf492e37db3658e28334e0,,,,,,,sngl,resources/DY.BMP,resources/Empty.png,WildCard_NonEx,-0.337037023,-0.05648151,1,0,0,1.7607,optionLeft,55,665,1,12,0,12,0,1,,,,,,,,,,,,,,,,,,,,,,,,,,,,,,,,,,,,,,,
,,,,,,,,2023-08-06_08h21.22.905,HF_wild_card,2022.2.4,Win32,60.04202942,5bc58a439d9a7c0001cfa90e,64ce5acb97489d65b14ecc7a,64cf492e37db3658e28334e0,,,,,,,ctch,resources/DBN.BMP,resources/DG.BMP,Door4,-0.340740712,0.009259245,1,0,0,2.0762,optionLeft,80,745,1,13,0,13,0,1,,,,,,,,,,,,,,,,,,,,,,,,,,,,,,,,,,,,,,,
,,,,,,,,2023-08-06_08h21.22.905,HF_wild_card,2022.2.4,Win32,60.04202942,5bc58a439d9a7c0001cfa90e,64ce5acb97489d65b14ecc7a,64cf492e37db3658e28334e0,,,,,,,decisionTrl,resources/DG.BMP,resources/DR.BMP,Door1,-0.415740712,-0.064814843,1,0,0,5.7098,optionLeft,30,775,1,14,0,14,0,1,,,,,,,,,,,,,,,,,,,,,,,,,,,,,,,,,,,,,,,
,,,,,,,,2023-08-06_08h21.22.905,HF_wild_card,2022.2.4,Win32,60.04202942,5bc58a439d9a7c0001cfa90e,64ce5acb97489d65b14ecc7a,64cf492e37db3658e28334e0,,,,,,,sngl,resources/Empty.png,resources/DP.BMP,Door3,0.385185242,-0.018518533,1,0,0,2.0143,optionRight,70,845,1,15,0,15,0,1,,,,,,,,,,,,,,,,,,,,,,,,,,,,,,,,,,,,,,,
,,,,,,,,2023-08-06_08h21.22.905,HF_wild_card,2022.2.4,Win32,60.04202942,5bc58a439d9a7c0001cfa90e,64ce5acb97489d65b14ecc7a,64cf492e37db3658e28334e0,,,,,,,decisionTrl,resources/DBN.BMP,resources/DP.BMP,Door3,0.341666667,-0.011111111,1,0,0,2.0405,optionRight,70,915,1,16,0,16,0,1,,,,,,,,,,,,,,,,,,,,,,,,,,,,,,,,,,,,,,,
,,,,,,,,2023-08-06_08h21.22.905,HF_wild_card,2022.2.4,Win32,60.04202942,5bc58a439d9a7c0001cfa90e,64ce5acb97489d65b14ecc7a,64cf492e37db3658e28334e0,,,,,,,decisionTrl,resources/DG.BMP,resources/DR.BMP,Door1,-0.336111111,-0.074074088,1,0,0,2.3487,optionLeft,30,945,1,17,0,17,0,1,,,,,,,,,,,,,,,,,,,,,,,,,,,,,,,,,,,,,,,
,,,,,,,,2023-08-06_08h21.22.905,HF_wild_card,2022.2.4,Win32,60.04202942,5bc58a439d9a7c0001cfa90e,64ce5acb97489d65b14ecc7a,64cf492e37db3658e28334e0,,,,,,,sngl,resources/DY.BMP,resources/Empty.png,WildCard_NonEx,-0.305555556,-0.052777778,1,0,0,1.5652,optionLeft,45,990,1,18,0,18,0,1,,,,,,,,,,,,,,,,,,,,,,,,,,,,,,,,,,,,,,,
,,,,,,,,2023-08-06_08h21.22.905,HF_wild_card,2022.2.4,Win32,60.04202942,5bc58a439d9a7c0001cfa90e,64ce5acb97489d65b14ecc7a,64cf492e37db3658e28334e0,,,,,,,decisionTrl,resources/DP.BMP,resources/DBN.BMP,Door3,-0.383333333,-0.065740755,1,0,0,2.8599,optionLeft,70,1060,1,19,0,19,0,1,,,,,,,,,,,,,,,,,,,,,,,,,,,,,,,,,,,,,,,
,,,,,,,,2023-08-06_08h21.22.905,HF_wild_card,2022.2.4,Win32,60.04202942,5bc58a439d9a7c0001cfa90e,64ce5acb97489d65b14ecc7a,64cf492e37db3658e28334e0,,,,,,,sngl,resources/DP.BMP,resources/Empty.png,Door3,-0.272222222,-0.018518533,1,0,0,1.7057,optionLeft,70,1130,1,20,0,20,0,1,,,,,,,,,,,,,,,,,,,,,,,,,,,,,,,,,,,,,,,
,,,,,,,,2023-08-06_08h21.22.905,HF_wild_card,2022.2.4,Win32,60.04202942,5bc58a439d9a7c0001cfa90e,64ce5acb97489d65b14ecc7a,64cf492e37db3658e28334e0,,,,,,,ctch,resources/DP.BMP,resources/DR.BMP,Door3,-0.309259245,-0.035185199,1,0,0,1.8647,optionLeft,70,1200,1,21,0,21,0,1,,,,,,,,,,,,,,,,,,,,,,,,,,,,,,,,,,,,,,,
,,,,,,,,2023-08-06_08h21.22.905,HF_wild_card,2022.2.4,Win32,60.04202942,5bc58a439d9a7c0001cfa90e,64ce5acb97489d65b14ecc7a,64cf492e37db3658e28334e0,,,,,,,decisionTrl,resources/DR.BMP,resources/DG.BMP,Door1,0.358333333,-0.004629644,1,0,0,2.9572,optionRight,30,1230,1,22,0,22,0,1,,,,,,,,,,,,,,,,,,,,,,,,,,,,,,,,,,,,,,,
,,,,,,,,2023-08-06_08h21.22.905,HF_wild_card,2022.2.4,Win32,60.04202942,5bc58a439d9a7c0001cfa90e,64ce5acb97489d65b14ecc7a,64cf492e37db3658e28334e0,,,,,,,decisionTrl,resources/DR.BMP,resources/DG.BMP,Door2,-0.336111111,-0.049074088,1,0,0,1.4863,optionLeft,20,1250,1,23,0,23,0,1,,,,,,,,,,,,,,,,,,,,,,,,,,,,,,,,,,,,,,,
,,,,,,,,2023-08-06_08h21.22.905,HF_wild_card,2022.2.4,Win32,60.04202942,5bc58a439d9a7c0001cfa90e,64ce5acb97489d65b14ecc7a,64cf492e37db3658e28334e0,,,,,,,decisionTrl,resources/DBN.BMP,resources/DP.BMP,Door3,0.429629686,0,1,0,0,1.6391,optionRight,70,1320,1,24,0,24,0,1,,,,,,,,,,,,,,,,,,,,,,,,,,,,,,,,,,,,,,,
,,,,,,,,2023-08-06_08h21.22.905,HF_wild_card,2022.2.4,Win32,60.04202942,5bc58a439d9a7c0001cfa90e,64ce5acb97489d65b14ecc7a,64cf492e37db3658e28334e0,,,,,,,decisionTrl,resources/DG.BMP,resources/DY.BMP,Door1,-0.371296268,-0.052777778,1,0,0,2.6598,optionLeft,30,1350,1,25,0,25,0,1,,,,,,,,,,,,,,,,,,,,,,,,,,,,,,,,,,,,,,,
,,,,,,,,2023-08-06_08h21.22.905,HF_wild_card,2022.2.4,Win32,60.04202942,5bc58a439d9a7c0001cfa90e,64ce5acb97489d65b14ecc7a,64cf492e37db3658e28334e0,,,,,,,sngl,resources/Empty.png,resources/DR.BMP,Door2,0.301851908,-0.011111111,1,0,0,1.4441,optionRight,20,1370,1,26,0,26,0,1,,,,,,,,,,,,,,,,,,,,,,,,,,,,,,,,,,,,,,,
,,,,,,,,2023-08-06_08h21.22.905,HF_wild_card,2022.2.4,Win32,60.04202942,5bc58a439d9a7c0001cfa90e,64ce5acb97489d65b14ecc7a,64cf492e37db3658e28334e0,,,,,,,sngl,resources/Empty.png,resources/DY.BMP,WildCard_NonEx,0.345370399,-0.042592621,1,0,0,1.5056,optionRight,45,1415,1,27,0,27,0,1,,,,,,,,,,,,,,,,,,,,,,,,,,,,,,,,,,,,,,,
,,,,,,,,2023-08-06_08h21.22.905,HF_wild_card,2022.2.4,Win32,60.04202942,5bc58a439d9a7c0001cfa90e,64ce5acb97489d65b14ecc7a,64cf492e37db3658e28334e0,,,,,,,decisionTrl,resources/DBN.BMP,resources/DP.BMP,Door3,0.355555556,-0.026851866,1,0,0,2.1888,optionRight,70,1485,1,28,0,28,0,1,,,,,,,,,,,,,,,,,,,,,,,,,,,,,,,,,,,,,,,
,,,,,,,,2023-08-06_08h21.22.905,HF_wild_card,2022.2.4,Win32,60.04202942,5bc58a439d9a7c0001cfa90e,64ce5acb97489d65b14ecc7a,64cf492e37db3658e28334e0,,,,,,,decisionTrl,resources/DG.BMP,resources/DR.BMP,Door2,0.349074131,-0.040740755,1,0,0,4.076,optionRight,20,1505,1,29,0,29,0,1,,,,,,,,,,,,,,,,,,,,,,,,,,,,,,,,,,,,,,,
,,,,,,,,2023-08-06_08h21.22.905,HF_wild_card,2022.2.4,Win32,60.04202942,5bc58a439d9a7c0001cfa90e,64ce5acb97489d65b14ecc7a,64cf492e37db3658e28334e0,,,,,,,decisionTrl,resources/DP.BMP,resources/DBN.BMP,Door3,-0.36851849,-0.028703732,1,0,0,1.6273,optionLeft,70,1575,1,30,0,30,0,1,,,,,,,,,,,,,,,,,,,,,,,,,,,,,,,,,,,,,,,
,,,,,,,,2023-08-06_08h21.22.905,HF_wild_card,2022.2.4,Win32,60.04202942,5bc58a439d9a7c0001cfa90e,64ce5acb97489d65b14ecc7a,64cf492e37db3658e28334e0,,,,,,,decisionTrl,resources/DBN.BMP,resources/DY.BMP,Door4,-0.341666667,-0.023148176,1,0,0,4.244,optionLeft,60,1635,1,31,0,31,0,1,,,,,,,,,,,,,,,,,,,,,,,,,,,,,,,,,,,,,,,
,,,,,,,,2023-08-06_08h21.22.905,HF_wild_card,2022.2.4,Win32,60.04202942,5bc58a439d9a7c0001cfa90e,64ce5acb97489d65b14ecc7a,64cf492e37db3658e28334e0,,,,,,,decisionTrl,resources/DR.BMP,resources/DG.BMP,Door1,0.417592621,-0.004629644,1,0,0,2.1889,optionRight,30,1665,1,32,0,32,0,1,,,,,,,,,,,,,,,,,,,,,,,,,,,,,,,,,,,,,,,
,,,,,,,,2023-08-06_08h21.22.905,HF_wild_card,2022.2.4,Win32,60.04202942,5bc58a439d9a7c0001cfa90e,64ce5acb97489d65b14ecc7a,64cf492e37db3658e28334e0,,,,,,,ctch,resources/DBN.BMP,resources/DG.BMP,Door4,-0.37870369,-0.044444444,1,0,0,2.5613,optionLeft,60,1725,1,33,0,33,0,1,,,,,,,,,,,,,,,,,,,,,,,,,,,,,,,,,,,,,,,
,,,,,,,,2023-08-06_08h21.22.905,HF_wild_card,2022.2.4,Win32,60.04202942,5bc58a439d9a7c0001cfa90e,64ce5acb97489d65b14ecc7a,64cf492e37db3658e28334e0,,,,,,,sngl,resources/Empty.png,resources/DBN.BMP,Door4,0.278703732,0.002777778,1,0,0,1.3783,optionRight,60,1785,1,34,0,34,0,1,,,,,,,,,,,,,,,,,,,,,,,,,,,,,,,,,,,,,,,
,,,,,,,,2023-08-06_08h21.22.905,HF_wild_card,2022.2.4,Win32,60.04202942,5bc58a439d9a7c0001cfa90e,64ce5acb97489d65b14ecc7a,64cf492e37db3658e28334e0,,,,,,,decisionTrl,resources/DY.BMP,resources/DP.BMP,Door3,0.380555556,-0.025925954,1,0,0,1.477,optionRight,70,1855,1,35,0,35,0,1,,,,,,,,,,,,,,,,,,,,,,,,,,,,,,,,,,,,,,,
,,,,,,,,2023-08-06_08h21.22.905,HF_wild_card,2022.2.4,Win32,60.04202942,5bc58a439d9a7c0001cfa90e,64ce5acb97489d65b14ecc7a,64cf492e37db3658e28334e0,,,,,,,decisionTrl,resources/DR.BMP,resources/DG.BMP,Door1,0.288888889,-0.049074088,1,0,0,2.0445,optionRight,30,1885,1,36,0,36,0,1,,,,,,,,,,,,,,,,,,,,,,,,,,,,,,,,,,,,,,,
,,,,,,,,2023-08-06_08h21.22.905,HF_wild_card,2022.2.4,Win32,60.04202942,5bc58a439d9a7c0001cfa90e,64ce5acb97489d65b14ecc7a,64cf492e37db3658e28334e0,,,,,,,ctch,resources/DR.BMP,resources/DP.BMP,Door3,0.30648151,-0.033333333,1,0,0,1.7442,optionRight,70,1955,1,37,0,37,0,1,,,,,,,,,,,,,,,,,,,,,,,,,,,,,,,,,,,,,,,
,,,,,,,,2023-08-06_08h21.22.905,HF_wild_card,2022.2.4,Win32,60.04202942,5bc58a439d9a7c0001cfa90e,64ce5acb97489d65b14ecc7a,64cf492e37db3658e28334e0,,,,,,,decisionTrl,resources/DG.BMP,resources/DR.BMP,Door1,-0.336111111,-0.001851866,1,0,0,2.3387,optionLeft,30,1985,1,38,0,38,0,1,,,,,,,,,,,,,,,,,,,,,,,,,,,,,,,,,,,,,,,
,,,,,,,,2023-08-06_08h21.22.905,HF_wild_card,2022.2.4,Win32,60.04202942,5bc58a439d9a7c0001cfa90e,64ce5acb97489d65b14ecc7a,64cf492e37db3658e28334e0,,,,,,,ctch,resources/DG.BMP,resources/DBN.BMP,Door4,0.446296353,0.027777778,1,0,0,2.3625,optionRight,60,2045,1,39,0,39,0,1,,,,,,,,,,,,,,,,,,,,,,,,,,,,,,,,,,,,,,,
,,,,,,,,2023-08-06_08h21.22.905,HF_wild_card,2022.2.4,Win32,60.04202942,5bc58a439d9a7c0001cfa90e,64ce5acb97489d65b14ecc7a,64cf492e37db3658e28334e0,,,,,,,sngl,resources/Empty.png,resources/DG.BMP,Door1,0.366666667,-0.005555556,1,0,0,2.0043,optionRight,30,2075,1,40,0,40,0,1,,,,,,,,,,,,,,,,,,,,,,,,,,,,,,,,,,,,,,,
,,,,,,,,2023-08-06_08h21.22.905,HF_wild_card,2022.2.4,Win32,60.04202942,5bc58a439d9a7c0001cfa90e,64ce5acb97489d65b14ecc7a,64cf492e37db3658e28334e0,,,,,,,decisionTrl,resources/DP.BMP,resources/DBN.BMP,Door3,-0.345370356,-0.012962977,1,0,0,1.8821,optionLeft,70,2145,1,41,0,41,0,1,,,,,,,,,,,,,,,,,,,,,,,,,,,,,,,,,,,,,,,
,,,,,,,,2023-08-06_08h21.22.905,HF_wild_card,2022.2.4,Win32,60.04202942,5bc58a439d9a7c0001cfa90e,64ce5acb97489d65b14ecc7a,64cf492e37db3658e28334e0,,,,,,,decisionTrl,resources/DY.BMP,resources/DG.BMP,WildCard_NonEx,-0.360185157,-0.032407422,1,0,0,3.0247,optionLeft,55,2200,1,42,0,42,0,1,,,,,,,,,,,,,,,,,,,,,,,,,,,,,,,,,,,,,,,
,,,,,,,,2023-08-06_08h21.22.905,HF_wild_card,2022.2.4,Win32,60.04202942,5bc58a439d9a7c0001cfa90e,64ce5acb97489d65b14ecc7a,64cf492e37db3658e28334e0,,,,,,,sngl,resources/Empty.png,resources/DY.BMP,WildCard_NonEx,0.427777778,-0.001851866,1,0,0,1.4445,optionRight,55,2255,1,43,0,43,0,1,,,,,,,,,,,,,,,,,,,,,,,,,,,,,,,,,,,,,,,
,,,,,,,,2023-08-06_08h21.22.905,HF_wild_card,2022.2.4,Win32,60.04202942,5bc58a439d9a7c0001cfa90e,64ce5acb97489d65b14ecc7a,64cf492e37db3658e28334e0,,,,,,,,,,,,,,,,,,,,,,,,,,0,0,0,0,1,,,,,,,,,,,,,,,,,,,,,,,,,,,,,,,,,,
,,,,,,,,2023-08-06_08h21.22.905,HF_wild_card,2022.2.4,Win32,60.04202942,5bc58a439d9a7c0001cfa90e,64ce5acb97489d65b14ecc7a,64cf492e37db3658e28334e0,,,,,,,sngl,resources/Empty.png,resources/DG.BMP,Door1,0.418518575,-0.07129631,1,0,0,2.4277,optionRight,30,2285,2,0,0,0,0,1,,,,,,,,,,,,,,,,,,,,,,,,,,,,,,,,,,,,,,,
,,,,,,,,2023-08-06_08h21.22.905,HF_wild_card,2022.2.4,Win32,60.04202942,5bc58a439d9a7c0001cfa90e,64ce5acb97489d65b14ecc7a,64cf492e37db3658e28334e0,,,,,,,ctch,resources/DP.BMP,resources/DR.BMP,Door3,-0.412037023,-0.048148176,1,0,0,1.7063,optionLeft,70,2355,2,1,0,1,0,1,,,,,,,,,,,,,,,,,,,,,,,,,,,,,,,,,,,,,,,
,,,,,,,,2023-08-06_08h21.22.905,HF_wild_card,2022.2.4,Win32,60.04202942,5bc58a439d9a7c0001cfa90e,64ce5acb97489d65b14ecc7a,64cf492e37db3658e28334e0,,,,,,,ctch,resources/DP.BMP,resources/DR.BMP,Door3,-0.327777778,-0.039814843,1,0,0,1.5563,optionLeft,70,2425,2,2,0,2,0,1,,,,,,,,,,,,,,,,,,,,,,,,,,,,,,,,,,,,,,,
,,,,,,,,2023-08-06_08h21.22.905,HF_wild_card,2022.2.4,Win32,60.04202942,5bc58a439d9a7c0001cfa90e,64ce5acb97489d65b14ecc7a,64cf492e37db3658e28334e0,,,,,,,decisionTrl,resources/DBN.BMP,resources/DY.BMP,Door4,-0.332407379,-0.001851866,1,0,0,2.8475,optionLeft,60,2485,2,3,0,3,0,1,,,,,,,,,,,,,,,,,,,,,,,,,,,,,,,,,,,,,,,
,,,,,,,,2023-08-06_08h21.22.905,HF_wild_card,2022.2.4,Win32,60.04202942,5bc58a439d9a7c0001cfa90e,64ce5acb97489d65b14ecc7a,64cf492e37db3658e28334e0,,,,,,,decisionTrl,resources/DBN.BMP,resources/DP.BMP,Door3,0.345370399,-0.05648151,1,0,0,3.5568,optionRight,70,2555,2,4,0,4,0,1,,,,,,,,,,,,,,,,,,,,,,,,,,,,,,,,,,,,,,,
,,,,,,,,2023-08-06_08h21.22.905,HF_wild_card,2022.2.4,Win32,60.04202942,5bc58a439d9a7c0001cfa90e,64ce5acb97489d65b14ecc7a,64cf492e37db3658e28334e0,,,,,,,decisionTrl,resources/DR.BMP,resources/DG.BMP,Door1,0.387037065,-0.012037065,1,0,0,2.162,optionRight,30,2585,2,5,0,5,0,1,,,,,,,,,,,,,,,,,,,,,,,,,,,,,,,,,,,,,,,
,,,,,,,,2023-08-06_08h21.22.905,HF_wild_card,2022.2.4,Win32,60.04202942,5bc58a439d9a7c0001cfa90e,64ce5acb97489d65b14ecc7a,64cf492e37db3658e28334e0,,,,,,,decisionTrl,resources/DP.BMP,resources/DBN.BMP,Door3,-0.392592578,-0.100925954,1,0,0,1.6031,optionLeft,70,2655,2,6,0,6,0,1,,,,,,,,,,,,,,,,,,,,,,,,,,,,,,,,,,,,,,,
,,,,,,,,2023-08-06_08h21.22.905,HF_wild_card,2022.2.4,Win32,60.04202942,5bc58a439d9a7c0001cfa90e,64ce5acb97489d65b14ecc7a,64cf492e37db3658e28334e0,,,,,,,sngl,resources/Empty.png,resources/DBN.BMP,Door4,0.353703732,-0.008333333,1,0,0,1.8657,optionRight,80,2735,2,7,0,7,0,1,,,,,,,,,,,,,,,,,,,,,,,,,,,,,,,,,,,,,,,
,,,,,,,,2023-08-06_08h21.22.905,HF_wild_card,2022.2.4,Win32,60.04202942,5bc58a439d9a7c0001cfa90e,64ce5acb97489d65b14ecc7a,64cf492e37db3658e28334e0,,,,,,,ctch,resources/DBN.BMP,resources/DG.BMP,Door4,-0.400925912,-0.048148176,1,0,0,1.4597,optionLeft,60,2795,2,8,0,8,0,1,,,,,,,,,,,,,,,,,,,,,,,,,,,,,,,,,,,,,,,
,,,,,,,,2023-08-06_08h21.22.905,HF_wild_card,2022.2.4,Win32,60.04202942,5bc58a439d9a7c0001cfa90e,64ce5acb97489d65b14ecc7a,64cf492e37db3658e28334e0,,,,,,,decisionTrl,resources/DY.BMP,resources/DBN.BMP,Door4,0.413888889,0.032407379,1,0,0,2.1353,optionRight,80,2875,2,9,0,9,0,1,,,,,,,,,,,,,,,,,,,,,,,,,,,,,,,,,,,,,,,
,,,,,,,,2023-08-06_08h21.22.905,HF_wild_card,2022.2.4,Win32,60.04202942,5bc58a439d9a7c0001cfa90e,64ce5acb97489d65b14ecc7a,64cf492e37db3658e28334e0,,,,,,,decisionTrl,resources/DP.BMP,resources/DBN.BMP,Door3,-0.337962935,-0.02129631,1,0,0,2.6643,optionLeft,70,2945,2,10,0,10,0,1,,,,,,,,,,,,,,,,,,,,,,,,,,,,,,,,,,,,,,,
,,,,,,,,2023-08-06_08h21.22.905,HF_wild_card,2022.2.4,Win32,60.04202942,5bc58a439d9a7c0001cfa90e,64ce5acb97489d65b14ecc7a,64cf492e37db3658e28334e0,,,,,,,decisionTrl,resources/DG.BMP,resources/DY.BMP,WildCard_NonEx,0.477777778,-0.043518533,1,0,0,3.2352,optionRight,45,2990,2,11,0,11,0,1,,,,,,,,,,,,,,,,,,,,,,,,,,,,,,,,,,,,,,,
,,,,,,,,2023-08-06_08h21.22.905,HF_wild_card,2022.2.4,Win32,60.04202942,5bc58a439d9a7c0001cfa90e,64ce5acb97489d65b14ecc7a,64cf492e37db3658e28334e0,,,,,,,decisionTrl,resources/DBN.BMP,resources/DP.BMP,Door3,0.336111111,-0.012962977,1,0,0,2.8843,optionRight,70,3060,2,12,0,12,0,1,,,,,,,,,,,,,,,,,,,,,,,,,,,,,,,,,,,,,,,
,,,,,,,,2023-08-06_08h21.22.905,HF_wild_card,2022.2.4,Win32,60.04202942,5bc58a439d9a7c0001cfa90e,64ce5acb97489d65b14ecc7a,64cf492e37db3658e28334e0,,,,,,,decisionTrl,resources/DG.BMP,resources/DR.BMP,Door1,-0.35370369,-0.020370399,1,0,0,2.9196,optionLeft,30,3090,2,13,0,13,0,1,,,,,,,,,,,,,,,,,,,,,,,,,,,,,,,,,,,,,,,
,,,,,,,,2023-08-06_08h21.22.905,HF_wild_card,2022.2.4,Win32,60.04202942,5bc58a439d9a7c0001cfa90e,64ce5acb97489d65b14ecc7a,64cf492e37db3658e28334e0,,,,,,,ctch,resources/DG.BMP,resources/DBN.BMP,Door4,0.457407464,-0.005555556,1,0,0,1.7108,optionRight,80,3170,2,14,0,14,0,1,,,,,,,,,,,,,,,,,,,,,,,,,,,,,,,,,,,,,,,
,,,,,,,,2023-08-06_08h21.22.905,HF_wild_card,2022.2.4,Win32,60.04202942,5bc58a439d9a7c0001cfa90e,64ce5acb97489d65b14ecc7a,64cf492e37db3658e28334e0,,,,,,,decisionTrl,resources/DR.BMP,resources/DG.BMP,Door1,0.386111111,0.012962935,1,0,0,2.9862,optionRight,30,3200,2,15,0,15,0,1,,,,,,,,,,,,,,,,,,,,,,,,,,,,,,,,,,,,,,,
,,,,,,,,2023-08-06_08h21.22.905,HF_wild_card,2022.2.4,Win32,60.04202942,5bc58a439d9a7c0001cfa90e,64ce5acb97489d65b14ecc7a,64cf492e37db3658e28334e0,,,,,,,decisionTrl,resources/DG.BMP,resources/DR.BMP,Door1,-0.387962935,-0.062962977,1,0,0,1.8932,optionLeft,30,3230,2,16,0,16,0,1,,,,,,,,,,,,,,,,,,,,,,,,,,,,,,,,,,,,,,,
,,,,,,,,2023-08-06_08h21.22.905,HF_wild_card,2022.2.4,Win32,60.04202942,5bc58a439d9a7c0001cfa90e,64ce5acb97489d65b14ecc7a,64cf492e37db3658e28334e0,,,,,,,decisionTrl,resources/DY.BMP,resources/DP.BMP,Door3,0.420370399,-0.007407422,1,0,0,1.7661,optionRight,70,3300,2,17,0,17,0,1,,,,,,,,,,,,,,,,,,,,,,,,,,,,,,,,,,,,,,,
,,,,,,,,2023-08-06_08h21.22.905,HF_wild_card,2022.2.4,Win32,60.04202942,5bc58a439d9a7c0001cfa90e,64ce5acb97489d65b14ecc7a,64cf492e37db3658e28334e0,,,,,,,decisionTrl,resources/DR.BMP,resources/DG.BMP,Door1,0.364814843,-0.029629644,1,0,0,1.9096,optionRight,30,3330,2,18,0,18,0,1,,,,,,,,,,,,,,,,,,,,,,,,,,,,,,,,,,,,,,,
,,,,,,,,2023-08-06_08h21.22.905,HF_wild_card,2022.2.4,Win32,60.04202942,5bc58a439d9a7c0001cfa90e,64ce5acb97489d65b14ecc7a,64cf492e37db3658e28334e0,,,,,,,sngl,resources/DY.BMP,resources/Empty.png,WildCard_NonEx,-0.323148134,-0.055555556,1,0,0,1.5214,optionLeft,55,3385,2,19,0,19,0,1,,,,,,,,,,,,,,,,,,,,,,,,,,,,,,,,,,,,,,,
,,,,,,,,2023-08-06_08h21.22.905,HF_wild_card,2022.2.4,Win32,60.04202942,5bc58a439d9a7c0001cfa90e,64ce5acb97489d65b14ecc7a,64cf492e37db3658e28334e0,,,,,,,ctch,resources/DR.BMP,resources/DP.BMP,Door3,0.365740797,-0.035185199,1,0,0,1.7603,optionRight,70,3455,2,20,0,20,0,1,,,,,,,,,,,,,,,,,,,,,,,,,,,,,,,,,,,,,,,
,,,,,,,,2023-08-06_08h21.22.905,HF_wild_card,2022.2.4,Win32,60.04202942,5bc58a439d9a7c0001cfa90e,64ce5acb97489d65b14ecc7a,64cf492e37db3658e28334e0,,,,,,,decisionTrl,resources/DBN.BMP,resources/DP.BMP,Door4,-0.34351849,-0.051851866,1,0,0,3.4552,optionLeft,60,3515,2,21,0,21,0,1,,,,,,,,,,,,,,,,,,,,,,,,,,,,,,,,,,,,,,,
,,,,,,,,2023-08-06_08h21.22.905,HF_wild_card,2022.2.4,Win32,60.04202942,5bc58a439d9a7c0001cfa90e,64ce5acb97489d65b14ecc7a,64cf492e37db3658e28334e0,,,,,,,sngl,resources/Empty.png,resources/DY.BMP,WildCard_NonEx,0.324074131,-0.022222222,1,0,0,1.3579,optionRight,45,3560,2,22,0,22,0,1,,,,,,,,,,,,,,,,,,,,,,,,,,,,,,,,,,,,,,,
,,,,,,,,2023-08-06_08h21.22.905,HF_wild_card,2022.2.4,Win32,60.04202942,5bc58a439d9a7c0001cfa90e,64ce5acb97489d65b14ecc7a,64cf492e37db3658e28334e0,,,,,,,sngl,resources/DR.BMP,resources/Empty.png,Door2,-0.363888889,-0.05,1,0,0,1.7437,optionLeft,20,3580,2,23,0,23,0,1,,,,,,,,,,,,,,,,,,,,,,,,,,,,,,,,,,,,,,,
,,,,,,,,2023-08-06_08h21.22.905,HF_wild_card,2022.2.4,Win32,60.04202942,5bc58a439d9a7c0001cfa90e,64ce5acb97489d65b14ecc7a,64cf492e37db3658e28334e0,,,,,,,sngl,resources/DG.BMP,resources/Empty.png,Door1,-0.299074046,-0.037037065,1,0,0,1.56,optionLeft,30,3610,2,24,0,24,0,1,,,,,,,,,,,,,,,,,,,,,,,,,,,,,,,,,,,,,,,
,,,,,,,,2023-08-06_08h21.22.905,HF_wild_card,2022.2.4,Win32,60.04202942,5bc58a439d9a7c0001cfa90e,64ce5acb97489d65b14ecc7a,64cf492e37db3658e28334e0,,,,,,,decisionTrl,resources/DP.BMP,resources/DY.BMP,Door3,-0.360185157,-0.050925954,1,0,0,1.9833,optionLeft,70,3680,2,25,0,25,0,1,,,,,,,,,,,,,,,,,,,,,,,,,,,,,,,,,,,,,,,
,,,,,,,,2023-08-06_08h21.22.905,HF_wild_card,2022.2.4,Win32,60.04202942,5bc58a439d9a7c0001cfa90e,64ce5acb97489d65b14ecc7a,64cf492e37db3658e28334e0,,,,,,,ctch,resources/DR.BMP,resources/DP.BMP,Door3,0.38148151,-0.041666667,1,0,0,2.3717,optionRight,70,3750,2,26,0,26,0,1,,,,,,,,,,,,,,,,,,,,,,,,,,,,,,,,,,,,,,,
,,,,,,,,2023-08-06_08h21.22.905,HF_wild_card,2022.2.4,Win32,60.04202942,5bc58a439d9a7c0001cfa90e,64ce5acb97489d65b14ecc7a,64cf492e37db3658e28334e0,,,,,,,ctch,resources/DG.BMP,resources/DBN.BMP,Door4,0.401851908,-0.002777778,1,0,0,2.0262,optionRight,60,3810,2,27,0,27,0,1,,,,,,,,,,,,,,,,,,,,,,,,,,,,,,,,,,,,,,,
,,,,,,,,2023-08-06_08h21.22.905,HF_wild_card,2022.2.4,Win32,60.04202942,5bc58a439d9a7c0001cfa90e,64ce5acb97489d65b14ecc7a,64cf492e37db3658e28334e0,,,,,,,sngl,resources/Empty.png,resources/DP.BMP,Door3,0.386111111,-0.016666667,1,0,0,1.5429,optionRight,70,3880,2,28,0,28,0,1,,,,,,,,,,,,,,,,,,,,,,,,,,,,,,,,,,,,,,,
,,,,,,,,2023-08-06_08h21.22.905,HF_wild_card,2022.2.4,Win32,60.04202942,5bc58a439d9a7c0001cfa90e,64ce5acb97489d65b14ecc7a,64cf492e37db3658e28334e0,,,,,,,sngl,resources/DBN.BMP,resources/Empty.png,Door4,-0.382407379,-0.012962977,1,0,0,1.5118,optionLeft,60,3940,2,29,0,29,0,1,,,,,,,,,,,,,,,,,,,,,,,,,,,,,,,,,,,,,,,
,,,,,,,,2023-08-06_08h21.22.905,HF_wild_card,2022.2.4,Win32,60.04202942,5bc58a439d9a7c0001cfa90e,64ce5acb97489d65b14ecc7a,64cf492e37db3658e28334e0,,,,,,,decisionTrl,resources/DG.BMP,resources/DR.BMP,Door1,-0.390740712,-0.017592621,1,0,0,1.6439,optionLeft,30,3970,2,30,0,30,0,1,,,,,,,,,,,,,,,,,,,,,,,,,,,,,,,,,,,,,,,
,,,,,,,,2023-08-06_08h21.22.905,HF_wild_card,2022.2.4,Win32,60.04202942,5bc58a439d9a7c0001cfa90e,64ce5acb97489d65b14ecc7a,64cf492e37db3658e28334e0,,,,,,,decisionTrl,resources/DR.BMP,resources/DY.BMP,WildCard_NonEx,0.383333333,-0.049074088,1,0,0,2.9939,optionRight,45,4015,2,31,0,31,0,1,,,,,,,,,,,,,,,,,,,,,,,,,,,,,,,,,,,,,,,
,,,,,,,,2023-08-06_08h21.22.905,HF_wild_card,2022.2.4,Win32,60.04202942,5bc58a439d9a7c0001cfa90e,64ce5acb97489d65b14ecc7a,64cf492e37db3658e28334e0,,,,,,,decisionTrl,resources/DG.BMP,resources/DR.BMP,Door1,-0.351851824,-0.040740755,1,0,0,1.6196,optionLeft,30,4045,2,32,0,32,0,1,,,,,,,,,,,,,,,,,,,,,,,,,,,,,,,,,,,,,,,
,,,,,,,,2023-08-06_08h21.22.905,HF_wild_card,2022.2.4,Win32,60.04202942,5bc58a439d9a7c0001cfa90e,64ce5acb97489d65b14ecc7a,64cf492e37db3658e28334e0,,,,,,,sngl,resources/Empty.png,resources/DR.BMP,Door2,0.387963019,-0.016666667,1,0,0,1.6706,optionRight,40,4085,2,33,0,33,0,1,,,,,,,,,,,,,,,,,,,,,,,,,,,,,,,,,,,,,,,
,,,,,,,,2023-08-06_08h21.22.905,HF_wild_card,2022.2.4,Win32,60.04202942,5bc58a439d9a7c0001cfa90e,64ce5acb97489d65b14ecc7a,64cf492e37db3658e28334e0,,,,,,,decisionTrl,resources/DP.BMP,resources/DBN.BMP,Door3,-0.437962935,-0.068518533,1,0,0,2.2691,optionLeft,70,4155,2,34,0,34,0,1,,,,,,,,,,,,,,,,,,,,,,,,,,,,,,,,,,,,,,,
,,,,,,,,2023-08-06_08h21.22.905,HF_wild_card,2022.2.4,Win32,60.04202942,5bc58a439d9a7c0001cfa90e,64ce5acb97489d65b14ecc7a,64cf492e37db3658e28334e0,,,,,,,decisionTrl,resources/DY.BMP,resources/DR.BMP,WildCard_NonEx,-0.338888889,-0.08148151,1,0,0,2.1201,optionLeft,45,4200,2,35,0,35,0,1,,,,,,,,,,,,,,,,,,,,,,,,,,,,,,,,,,,,,,,
,,,,,,,,2023-08-06_08h21.22.905,HF_wild_card,2022.2.4,Win32,60.04202942,5bc58a439d9a7c0001cfa90e,64ce5acb97489d65b14ecc7a,64cf492e37db3658e28334e0,,,,,,,ctch,resources/DBN.BMP,resources/DG.BMP,Door4,-0.337037023,-0.023148176,1,0,0,1.6607,optionLeft,80,4280,2,36,0,36,0,1,,,,,,,,,,,,,,,,,,,,,,,,,,,,,,,,,,,,,,,
,,,,,,,,2023-08-06_08h21.22.905,HF_wild_card,2022.2.4,Win32,60.04202942,5bc58a439d9a7c0001cfa90e,64ce5acb97489d65b14ecc7a,64cf492e37db3658e28334e0,,,,,,,decisionTrl,resources/DBN.BMP,resources/DP.BMP,Door4,-0.311111111,-0.053703732,1,0,0,3.0445,optionLeft,80,4360,2,37,0,37,0,1,,,,,,,,,,,,,,,,,,,,,,,,,,,,,,,,,,,,,,,
,,,,,,,,2023-08-06_08h21.22.905,HF_wild_card,2022.2.4,Win32,60.04202942,5bc58a439d9a7c0001cfa90e,64ce5acb97489d65b14ecc7a,64cf492e37db3658e28334e0,,,,,,,decisionTrl,resources/DY.BMP,resources/DG.BMP,WildCard_NonEx,-0.32870369,-0.020370399,1,0,0,2.7103,optionLeft,45,4405,2,38,0,38,0,1,,,,,,,,,,,,,,,,,,,,,,,,,,,,,,,,,,,,,,,
,,,,,,,,2023-08-06_08h21.22.905,HF_wild_card,2022.2.4,Win32,60.04202942,5bc58a439d9a7c0001cfa90e,64ce5acb97489d65b14ecc7a,64cf492e37db3658e28334e0,,,,,,,sngl,resources/DY.BMP,resources/Empty.png,WildCard_NonEx,-0.32870369,-0.012962977,1,0,0,1.4109,optionLeft,45,4450,2,39,0,39,0,1,,,,,,,,,,,,,,,,,,,,,,,,,,,,,,,,,,,,,,,
,,,,,,,,2023-08-06_08h21.22.905,HF_wild_card,2022.2.4,Win32,60.04202942,5bc58a439d9a7c0001cfa90e,64ce5acb97489d65b14ecc7a,64cf492e37db3658e28334e0,,,,,,,sngl,resources/DP.BMP,resources/Empty.png,Door3,-0.340740712,-0.043518533,1,0,0,1.3779,optionLeft,70,4520,2,40,0,40,0,1,,,,,,,,,,,,,,,,,,,,,,,,,,,,,,,,,,,,,,,
,,,,,,,,2023-08-06_08h21.22.905,HF_wild_card,2022.2.4,Win32,60.04202942,5bc58a439d9a7c0001cfa90e,64ce5acb97489d65b14ecc7a,64cf492e37db3658e28334e0,,,,,,,decisionTrl,resources/DR.BMP,resources/DG.BMP,Door1,0.475925954,0.013888889,1,0,0,1.5771,optionRight,30,4550,2,41,0,41,0,1,,,,,,,,,,,,,,,,,,,,,,,,,,,,,,,,,,,,,,,
,,,,,,,,2023-08-06_08h21.22.905,HF_wild_card,2022.2.4,Win32,60.04202942,5bc58a439d9a7c0001cfa90e,64ce5acb97489d65b14ecc7a,64cf492e37db3658e28334e0,,,,,,,sngl,resources/Empty.png,resources/DY.BMP,WildCard_NonEx,0.275,-0.028703732,1,0,0,1.4719,optionRight,55,4605,2,42,0,42,0,1,,,,,,,,,,,,,,,,,,,,,,,,,,,,,,,,,,,,,,,
,,,,,,,,2023-08-06_08h21.22.905,HF_wild_card,2022.2.4,Win32,60.04202942,5bc58a439d9a7c0001cfa90e,64ce5acb97489d65b14ecc7a,64cf492e37db3658e28334e0,,,,,,,decisionTrl,resources/DP.BMP,resources/DBN.BMP,Door4,0.410185242,-0.026851866,1,0,0,1.8437,optionRight,80,4685,2,43,0,43,0,1,,,,,,,,,,,,,,,,,,,,,,,,,,,,,,,,,,,,,,,
,,,,,,,,2023-08-06_08h21.22.905,HF_wild_card,2022.2.4,Win32,60.04202942,5bc58a439d9a7c0001cfa90e,64ce5acb97489d65b14ecc7a,64cf492e37db3658e28334e0,,,,,,,,,,,,,,,,,,,,,,,,,,1,0,1,0,1,,,,,,,,,,,,,,,,,,,,,,,,,,,,,,,,,,
,,,,,,,,2023-08-06_08h21.22.905,HF_wild_card,2022.2.4,Win32,60.04202942,5bc58a439d9a7c0001cfa90e,64ce5acb97489d65b14ecc7a,64cf492e37db3658e28334e0,,,,,,,ctch,resources/DBN.BMP,resources/DG.BMP,Door4,-0.462962935,-0.114814843,1,0,0,2.1837,optionLeft,80,4765,3,0,0,0,0,1,,,,,,,,,,,,,,,,,,,,,,,,,,,,,,,,,,,,,,,
,,,,,,,,2023-08-06_08h21.22.905,HF_wild_card,2022.2.4,Win32,60.04202942,5bc58a439d9a7c0001cfa90e,64ce5acb97489d65b14ecc7a,64cf492e37db3658e28334e0,,,,,,,sngl,resources/DG.BMP,resources/Empty.png,Door1,-0.269444444,-0.026851866,1,0,0,1.4465,optionLeft,30,4795,3,1,0,1,0,1,,,,,,,,,,,,,,,,,,,,,,,,,,,,,,,,,,,,,,,
,,,,,,,,2023-08-06_08h21.22.905,HF_wild_card,2022.2.4,Win32,60.04202942,5bc58a439d9a7c0001cfa90e,64ce5acb97489d65b14ecc7a,64cf492e37db3658e28334e0,,,,,,,decisionTrl,resources/DG.BMP,resources/DR.BMP,Door1,-0.322222222,-0.018518533,1,0,0,1.5058,optionLeft,30,4825,3,2,0,2,0,1,,,,,,,,,,,,,,,,,,,,,,,,,,,,,,,,,,,,,,,
,,,,,,,,2023-08-06_08h21.22.905,HF_wild_card,2022.2.4,Win32,60.04202942,5bc58a439d9a7c0001cfa90e,64ce5acb97489d65b14ecc7a,64cf492e37db3658e28334e0,,,,,,,sngl,resources/Empty.png,resources/DY.BMP,WildCard_NonEx,0.383333333,-0.024074088,1,0,0,1.6468,optionRight,45,4870,3,3,0,3,0,1,,,,,,,,,,,,,,,,,,,,,,,,,,,,,,,,,,,,,,,
,,,,,,,,2023-08-06_08h21.22.905,HF_wild_card,2022.2.4,Win32,60.04202942,5bc58a439d9a7c0001cfa90e,64ce5acb97489d65b14ecc7a,64cf492e37db3658e28334e0,,,,,,,ctch,resources/DG.BMP,resources/DBN.BMP,Door4,0.351851908,-0.051851866,1,0,0,1.878,optionRight,80,4950,3,4,0,4,0,1,,,,,,,,,,,,,,,,,,,,,,,,,,,,,,,,,,,,,,,
,,,,,,,,2023-08-06_08h21.22.905,HF_wild_card,2022.2.4,Win32,60.04202942,5bc58a439d9a7c0001cfa90e,64ce5acb97489d65b14ecc7a,64cf492e37db3658e28334e0,,,,,,,decisionTrl,resources/DBN.BMP,resources/DP.BMP,Door4,-0.469444444,-0.033333333,1,0,0,1.7282,optionLeft,60,5010,3,5,0,5,0,1,,,,,,,,,,,,,,,,,,,,,,,,,,,,,,,,,,,,,,,
,,,,,,,,2023-08-06_08h21.22.905,HF_wild_card,2022.2.4,Win32,60.04202942,5bc58a439d9a7c0001cfa90e,64ce5acb97489d65b14ecc7a,64cf492e37db3658e28334e0,,,,,,,sngl,resources/DY.BMP,resources/Empty.png,WildCard_NonEx,-0.319444444,-0.022222222,1,0,0,1.5769,optionLeft,45,5055,3,6,0,6,0,1,,,,,,,,,,,,,,,,,,,,,,,,,,,,,,,,,,,,,,,
,,,,,,,,2023-08-06_08h21.22.905,HF_wild_card,2022.2.4,Win32,60.04202942,5bc58a439d9a7c0001cfa90e,64ce5acb97489d65b14ecc7a,64cf492e37db3658e28334e0,,,,,,,decisionTrl,resources/DG.BMP,resources/DR.BMP,Door1,-0.355555556,-0.012037065,1,0,0,1.5437,optionLeft,30,5085,3,7,0,7,0,1,,,,,,,,,,,,,,,,,,,,,,,,,,,,,,,,,,,,,,,
,,,,,,,,2023-08-06_08h21.22.905,HF_wild_card,2022.2.4,Win32,60.04202942,5bc58a439d9a7c0001cfa90e,64ce5acb97489d65b14ecc7a,64cf492e37db3658e28334e0,,,,,,,ctch,resources/DG.BMP,resources/DBN.BMP,Door4,0.410185242,0.00370369,1,0,0,1.6442,optionRight,80,5165,3,8,0,8,0,1,,,,,,,,,,,,,,,,,,,,,,,,,,,,,,,,,,,,,,,
,,,,,,,,2023-08-06_08h21.22.905,HF_wild_card,2022.2.4,Win32,60.04202942,5bc58a439d9a7c0001cfa90e,64ce5acb97489d65b14ecc7a,64cf492e37db3658e28334e0,,,,,,,ctch,resources/DP.BMP,resources/DR.BMP,Door3,-0.31851849,-0.058333333,1,0,0,1.6769,optionLeft,70,5235,3,9,0,9,0,1,,,,,,,,,,,,,,,,,,,,,,,,,,,,,,,,,,,,,,,
,,,,,,,,2023-08-06_08h21.22.905,HF_wild_card,2022.2.4,Win32,60.04202942,5bc58a439d9a7c0001cfa90e,64ce5acb97489d65b14ecc7a,64cf492e37db3658e28334e0,,,,,,,ctch,resources/DR.BMP,resources/DP.BMP,Door3,0.424074131,-0.03148151,1,0,0,1.6112,optionRight,70,5305,3,10,0,10,0,1,,,,,,,,,,,,,,,,,,,,,,,,,,,,,,,,,,,,,,,
,,,,,,,,2023-08-06_08h21.22.905,HF_wild_card,2022.2.4,Win32,60.04202942,5bc58a439d9a7c0001cfa90e,64ce5acb97489d65b14ecc7a,64cf492e37db3658e28334e0,,,,,,,decisionTrl,resources/DR.BMP,resources/DG.BMP,Door1,0.440740797,-0.025,1,0,0,1.7111,optionRight,30,5335,3,11,0,11,0,1,,,,,,,,,,,,,,,,,,,,,,,,,,,,,,,,,,,,,,,
,,,,,,,,2023-08-06_08h21.22.905,HF_wild_card,2022.2.4,Win32,60.04202942,5bc58a439d9a7c0001cfa90e,64ce5acb97489d65b14ecc7a,64cf492e37db3658e28334e0,,,,,,,decisionTrl,resources/DY.BMP,resources/DR.BMP,WildCard_NonEx,-0.359259245,-0.070370399,1,0,0,1.7944,optionLeft,45,5380,3,12,0,12,0,1,,,,,,,,,,,,,,,,,,,,,,,,,,,,,,,,,,,,,,,
,,,,,,,,2023-08-06_08h21.22.905,HF_wild_card,2022.2.4,Win32,60.04202942,5bc58a439d9a7c0001cfa90e,64ce5acb97489d65b14ecc7a,64cf492e37db3658e28334e0,,,,,,,sngl,resources/Empty.png,resources/DP.BMP,Door3,0.349074131,0.000925912,1,0,0,1.4282,optionRight,70,5450,3,13,0,13,0,1,,,,,,,,,,,,,,,,,,,,,,,,,,,,,,,,,,,,,,,
,,,,,,,,2023-08-06_08h21.22.905,HF_wild_card,2022.2.4,Win32,60.04202942,5bc58a439d9a7c0001cfa90e,64ce5acb97489d65b14ecc7a,64cf492e37db3658e28334e0,,,,,,,decisionTrl,resources/DP.BMP,resources/DBN.BMP,Door4,0.390740797,-0.016666667,1,0,0,1.3605,optionRight,60,5510,3,14,0,14,0,1,,,,,,,,,,,,,,,,,,,,,,,,,,,,,,,,,,,,,,,
,,,,,,,,2023-08-06_08h21.22.905,HF_wild_card,2022.2.4,Win32,60.04202942,5bc58a439d9a7c0001cfa90e,64ce5acb97489d65b14ecc7a,64cf492e37db3658e28334e0,,,,,,,sngl,resources/Empty.png,resources/DG.BMP,Door1,0.299074131,-0.025,1,0,0,1.415,optionRight,30,5540,3,15,0,15,0,1,,,,,,,,,,,,,,,,,,,,,,,,,,,,,,,,,,,,,,,
,,,,,,,,2023-08-06_08h21.22.905,HF_wild_card,2022.2.4,Win32,60.04202942,5bc58a439d9a7c0001cfa90e,64ce5acb97489d65b14ecc7a,64cf492e37db3658e28334e0,,,,,,,decisionTrl,resources/DP.BMP,resources/DBN.BMP,Door3,-0.381481467,-0.064814843,1,0,0,2.3489,optionLeft,70,5610,3,16,0,16,0,1,,,,,,,,,,,,,,,,,,,,,,,,,,,,,,,,,,,,,,,
,,,,,,,,2023-08-06_08h21.22.905,HF_wild_card,2022.2.4,Win32,60.04202942,5bc58a439d9a7c0001cfa90e,64ce5acb97489d65b14ecc7a,64cf492e37db3658e28334e0,,,,,,,ctch,resources/DBN.BMP,resources/DG.BMP,Door4,-0.366666667,-0.074074088,1,0,0,1.577,optionLeft,80,5690,3,17,0,17,0,1,,,,,,,,,,,,,,,,,,,,,,,,,,,,,,,,,,,,,,,
,,,,,,,,2023-08-06_08h21.22.905,HF_wild_card,2022.2.4,Win32,60.04202942,5bc58a439d9a7c0001cfa90e,64ce5acb97489d65b14ecc7a,64cf492e37db3658e28334e0,,,,,,,sngl,resources/Empty.png,resources/DBN.BMP,Door4,0.373148176,0.000925912,1,0,0,1.407,optionRight,60,5750,3,18,0,18,0,1,,,,,,,,,,,,,,,,,,,,,,,,,,,,,,,,,,,,,,,
,,,,,,,,2023-08-06_08h21.22.905,HF_wild_card,2022.2.4,Win32,60.04202942,5bc58a439d9a7c0001cfa90e,64ce5acb97489d65b14ecc7a,64cf492e37db3658e28334e0,,,,,,,sngl,resources/Empty.png,resources/DR.BMP,Door2,0.344444444,-0.037962977,1,0,0,1.5616,optionRight,20,5770,3,19,0,19,0,1,,,,,,,,,,,,,,,,,,,,,,,,,,,,,,,,,,,,,,,
,,,,,,,,2023-08-06_08h21.22.905,HF_wild_card,2022.2.4,Win32,60.04202942,5bc58a439d9a7c0001cfa90e,64ce5acb97489d65b14ecc7a,64cf492e37db3658e28334e0,,,,,,,decisionTrl,resources/DR.BMP,resources/DG.BMP,Door1,0.317592621,-0.038888889,1,0,0,2.745,optionRight,30,5800,3,20,0,20,0,1,,,,,,,,,,,,,,,,,,,,,,,,,,,,,,,,,,,,,,,
,,,,,,,,2023-08-06_08h21.22.905,HF_wild_card,2022.2.4,Win32,60.04202942,5bc58a439d9a7c0001cfa90e,64ce5acb97489d65b14ecc7a,64cf492e37db3658e28334e0,,,,,,,ctch,resources/DP.BMP,resources/DR.BMP,Door3,-0.370370356,-0.07129631,1,0,0,1.8614,optionLeft,70,5870,3,21,0,21,0,1,,,,,,,,,,,,,,,,,,,,,,,,,,,,,,,,,,,,,,,
,,,,,,,,2023-08-06_08h21.22.905,HF_wild_card,2022.2.4,Win32,60.04202942,5bc58a439d9a7c0001cfa90e,64ce5acb97489d65b14ecc7a,64cf492e37db3658e28334e0,,,,,,,sngl,resources/DR.BMP,resources/Empty.png,Door2,-0.359259245,-0.058333333,1,0,0,1.7117,optionLeft,40,5910,3,22,0,22,0,1,,,,,,,,,,,,,,,,,,,,,,,,,,,,,,,,,,,,,,,
,,,,,,,,2023-08-06_08h21.22.905,HF_wild_card,2022.2.4,Win32,60.04202942,5bc58a439d9a7c0001cfa90e,64ce5acb97489d65b14ecc7a,64cf492e37db3658e28334e0,,,,,,,decisionTrl,resources/DP.BMP,resources/DBN.BMP,Door3,-0.462962935,-0.045370399,1,0,0,2.5933,optionLeft,70,5980,3,23,0,23,0,1,,,,,,,,,,,,,,,,,,,,,,,,,,,,,,,,,,,,,,,
,,,,,,,,2023-08-06_08h21.22.905,HF_wild_card,2022.2.4,Win32,60.04202942,5bc58a439d9a7c0001cfa90e,64ce5acb97489d65b14ecc7a,64cf492e37db3658e28334e0,,,,,,,ctch,resources/DR.BMP,resources/DP.BMP,Door3,0.471296353,-0.041666667,1,0,0,1.4609,optionRight,70,6050,3,24,0,24,0,1,,,,,,,,,,,,,,,,,,,,,,,,,,,,,,,,,,,,,,,
,,,,,,,,2023-08-06_08h21.22.905,HF_wild_card,2022.2.4,Win32,60.04202942,5bc58a439d9a7c0001cfa90e,64ce5acb97489d65b14ecc7a,64cf492e37db3658e28334e0,,,,,,,decisionTrl,resources/DBN.BMP,resources/DP.BMP,Door4,-0.289814801,-0.057407422,1,0,0,2.0947,optionLeft,80,6130,3,25,0,25,0,1,,,,,,,,,,,,,,,,,,,,,,,,,,,,,,,,,,,,,,,
,,,,,,,,2023-08-06_08h21.22.905,HF_wild_card,2022.2.4,Win32,60.04202942,5bc58a439d9a7c0001cfa90e,64ce5acb97489d65b14ecc7a,64cf492e37db3658e28334e0,,,,,,,sngl,resources/DP.BMP,resources/Empty.png,Door3,-0.369444444,-0.044444444,1,0,0,1.3447,optionLeft,70,6200,3,26,0,26,0,1,,,,,,,,,,,,,,,,,,,,,,,,,,,,,,,,,,,,,,,
,,,,,,,,2023-08-06_08h21.22.905,HF_wild_card,2022.2.4,Win32,60.04202942,5bc58a439d9a7c0001cfa90e,64ce5acb97489d65b14ecc7a,64cf492e37db3658e28334e0,,,,,,,decisionTrl,resources/DR.BMP,resources/DY.BMP,WildCard_NonEx,0.398148176,-0.027777778,1,0,0,1.7284,optionRight,45,6245,3,27,0,27,0,1,,,,,,,,,,,,,,,,,,,,,,,,,,,,,,,,,,,,,,,
,,,,,,,,2023-08-06_08h21.22.905,HF_wild_card,2022.2.4,Win32,60.04202942,5bc58a439d9a7c0001cfa90e,64ce5acb97489d65b14ecc7a,64cf492e37db3658e28334e0,,,,,,,sngl,resources/DBN.BMP,resources/Empty.png,Door4,-0.334259245,-0.020370399,1,0,0,1.311,optionLeft,80,6325,3,28,0,28,0,1,,,,,,,,,,,,,,,,,,,,,,,,,,,,,,,,,,,,,,,
,,,,,,,,2023-08-06_08h21.22.905,HF_wild_card,2022.2.4,Win32,60.04202942,5bc58a439d9a7c0001cfa90e,64ce5acb97489d65b14ecc7a,64cf492e37db3658e28334e0,,,,,,,decisionTrl,resources/DG.BMP,resources/DR.BMP,Door1,-0.337962935,-0.099074088,1,0,0,2.4276,optionLeft,30,6355,3,29,0,29,0,1,,,,,,,,,,,,,,,,,,,,,,,,,,,,,,,,,,,,,,,
,,,,,,,,2023-08-06_08h21.22.905,HF_wild_card,2022.2.4,Win32,60.04202942,5bc58a439d9a7c0001cfa90e,64ce5acb97489d65b14ecc7a,64cf492e37db3658e28334e0,,,,,,,decisionTrl,resources/DR.BMP,resources/DG.BMP,Door1,0.347222222,-0.016666667,1,0,0,1.8111,optionRight,30,6385,3,30,0,30,0,1,,,,,,,,,,,,,,,,,,,,,,,,,,,,,,,,,,,,,,,
,,,,,,,,2023-08-06_08h21.22.905,HF_wild_card,2022.2.4,Win32,60.04202942,5bc58a439d9a7c0001cfa90e,64ce5acb97489d65b14ecc7a,64cf492e37db3658e28334e0,,,,,,,decisionTrl,resources/DR.BMP,resources/DG.BMP,Door1,0.344444444,-0.052777778,1,0,0,1.3608,optionRight,30,6415,3,31,0,31,0,1,,,,,,,,,,,,,,,,,,,,,,,,,,,,,,,,,,,,,,,
,,,,,,,,2023-08-06_08h21.22.905,HF_wild_card,2022.2.4,Win32,60.04202942,5bc58a439d9a7c0001cfa90e,64ce5acb97489d65b14ecc7a,64cf492e37db3658e28334e0,,,,,,,decisionTrl,resources/DY.BMP,resources/DP.BMP,Door3,0.323148176,-0.039814843,1,0,0,1.8769,optionRight,70,6485,3,32,0,32,0,1,,,,,,,,,,,,,,,,,,,,,,,,,,,,,,,,,,,,,,,
,,,,,,,,2023-08-06_08h21.22.905,HF_wild_card,2022.2.4,Win32,60.04202942,5bc58a439d9a7c0001cfa90e,64ce5acb97489d65b14ecc7a,64cf492e37db3658e28334e0,,,,,,,decisionTrl,resources/DBN.BMP,resources/DP.BMP,Door4,-0.352777778,-0.069444444,1,0,0,2.1708,optionLeft,60,6545,3,33,0,33,0,1,,,,,,,,,,,,,,,,,,,,,,,,,,,,,,,,,,,,,,,
,,,,,,,,2023-08-06_08h21.22.905,HF_wild_card,2022.2.4,Win32,60.04202942,5bc58a439d9a7c0001cfa90e,64ce5acb97489d65b14ecc7a,64cf492e37db3658e28334e0,,,,,,,decisionTrl,resources/DY.BMP,resources/DG.BMP,WildCard_NonEx,-0.325925912,-0.024074088,1,0,0,2.0275,optionLeft,55,6600,3,34,0,34,0,1,,,,,,,,,,,,,,,,,,,,,,,,,,,,,,,,,,,,,,,
,,,,,,,,2023-08-06_08h21.22.905,HF_wild_card,2022.2.4,Win32,60.04202942,5bc58a439d9a7c0001cfa90e,64ce5acb97489d65b14ecc7a,64cf492e37db3658e28334e0,,,,,,,sngl,resources/Empty.png,resources/DY.BMP,WildCard_NonEx,0.365740797,-0.009259288,1,0,0,1.3276,optionRight,55,6655,3,35,0,35,0,1,,,,,,,,,,,,,,,,,,,,,,,,,,,,,,,,,,,,,,,
,,,,,,,,2023-08-06_08h21.22.905,HF_wild_card,2022.2.4,Win32,60.04202942,5bc58a439d9a7c0001cfa90e,64ce5acb97489d65b14ecc7a,64cf492e37db3658e28334e0,,,,,,,sngl,resources/DY.BMP,resources/Empty.png,WildCard_NonEx,-0.350925912,-0.059259288,1,0,0,1.2619,optionLeft,55,6710,3,36,0,36,0,1,,,,,,,,,,,,,,,,,,,,,,,,,,,,,,,,,,,,,,,
,,,,,,,,2023-08-06_08h21.22.905,HF_wild_card,2022.2.4,Win32,60.04202942,5bc58a439d9a7c0001cfa90e,64ce5acb97489d65b14ecc7a,64cf492e37db3658e28334e0,,,,,,,decisionTrl,resources/DP.BMP,resources/DBN.BMP,Door3,-0.361111111,-0.079629644,1,0,0,2.4269,optionLeft,70,6780,3,37,0,37,0,1,,,,,,,,,,,,,,,,,,,,,,,,,,,,,,,,,,,,,,,
,,,,,,,,2023-08-06_08h21.22.905,HF_wild_card,2022.2.4,Win32,60.04202942,5bc58a439d9a7c0001cfa90e,64ce5acb97489d65b14ecc7a,64cf492e37db3658e28334e0,,,,,,,decisionTrl,resources/DBN.BMP,resources/DP.BMP,Door3,0.375925954,-0.095370399,1,0,0,2.4771,optionRight,70,6850,3,38,0,38,0,1,,,,,,,,,,,,,,,,,,,,,,,,,,,,,,,,,,,,,,,
,,,,,,,,2023-08-06_08h21.22.905,HF_wild_card,2022.2.4,Win32,60.04202942,5bc58a439d9a7c0001cfa90e,64ce5acb97489d65b14ecc7a,64cf492e37db3658e28334e0,,,,,,,decisionTrl,resources/DG.BMP,resources/DY.BMP,WildCard_NonEx,0.321296353,-0.060185199,1,0,0,2.6973,optionRight,45,6895,3,39,0,39,0,1,,,,,,,,,,,,,,,,,,,,,,,,,,,,,,,,,,,,,,,
,,,,,,,,2023-08-06_08h21.22.905,HF_wild_card,2022.2.4,Win32,60.04202942,5bc58a439d9a7c0001cfa90e,64ce5acb97489d65b14ecc7a,64cf492e37db3658e28334e0,,,,,,,decisionTrl,resources/DG.BMP,resources/DR.BMP,Door1,-0.351851824,-0.033333333,1,0,0,1.4891,optionLeft,30,6925,3,40,0,40,0,1,,,,,,,,,,,,,,,,,,,,,,,,,,,,,,,,,,,,,,,
,,,,,,,,2023-08-06_08h21.22.905,HF_wild_card,2022.2.4,Win32,60.04202942,5bc58a439d9a7c0001cfa90e,64ce5acb97489d65b14ecc7a,64cf492e37db3658e28334e0,,,,,,,decisionTrl,resources/DY.BMP,resources/DBN.BMP,Door4,0.319444444,-0.066666667,1,0,0,2.656,optionRight,60,6985,3,41,0,41,0,1,,,,,,,,,,,,,,,,,,,,,,,,,,,,,,,,,,,,,,,
,,,,,,,,2023-08-06_08h21.22.905,HF_wild_card,2022.2.4,Win32,60.04202942,5bc58a439d9a7c0001cfa90e,64ce5acb97489d65b14ecc7a,64cf492e37db3658e28334e0,,,,,,,decisionTrl,resources/DBN.BMP,resources/DY.BMP,Door4,-0.416666667,-0.085185199,1,0,0,1.4814,optionLeft,60,7045,3,42,0,42,0,1,,,,,,,,,,,,,,,,,,,,,,,,,,,,,,,,,,,,,,,
,,,,,,,,2023-08-06_08h21.22.905,HF_wild_card,2022.2.4,Win32,60.04202942,5bc58a439d9a7c0001cfa90e,64ce5acb97489d65b14ecc7a,64cf492e37db3658e28334e0,,,,,,,decisionTrl,resources/DP.BMP,resources/DY.BMP,Door3,-0.367592578,-0.05648151,1,0,0,1.6948,optionLeft,70,7115,3,43,0,43,0,1,,,,,,,,,,,,,,,,,,,,,,,,,,,,,,,,,,,,,,,
,,,,,,,,2023-08-06_08h21.22.905,HF_wild_card,2022.2.4,Win32,60.04202942,5bc58a439d9a7c0001cfa90e,64ce5acb97489d65b14ecc7a,64cf492e37db3658e28334e0,,,,,,,,,,,,,,,,,,,,,,,,,,2,0,2,0,1,,,,,,,,,,,,,,,,,,,,,,,,,,,,,,,,,,
,,,,,,,,2023-08-06_08h21.22.905,HF_wild_card,2022.2.4,Win32,60.04202942,5bc58a439d9a7c0001cfa90e,64ce5acb97489d65b14ecc7a,64cf492e37db3658e28334e0,,,,,,,sngl,resources/DB.BMP,resources/Empty.png,WildCard_Ex,-0.389814801,-0.117592621,1,0,0,1.9306,optionLeft,45,7160,4,0,0,0,0,1,,,,,,,,,,,,,,,,,,,,,,,,,,,,,,,,,,,,,,,
,,,,,,,,2023-08-06_08h21.22.905,HF_wild_card,2022.2.4,Win32,60.04202942,5bc58a439d9a7c0001cfa90e,64ce5acb97489d65b14ecc7a,64cf492e37db3658e28334e0,,,,,,,decisionTrl,resources/DBN.BMP,resources/DP.BMP,Door3,0.35648151,-0.114814843,1,0,0,3.7266,optionRight,70,7230,4,1,0,1,0,1,,,,,,,,,,,,,,,,,,,,,,,,,,,,,,,,,,,,,,,
,,,,,,,,2023-08-06_08h21.22.905,HF_wild_card,2022.2.4,Win32,60.04202942,5bc58a439d9a7c0001cfa90e,64ce5acb97489d65b14ecc7a,64cf492e37db3658e28334e0,,,,,,,ctch,resources/DR.BMP,resources/DP.BMP,Door3,0.337963019,-0.032407422,1,0,0,1.5645,optionRight,70,7300,4,2,0,2,0,1,,,,,,,,,,,,,,,,,,,,,,,,,,,,,,,,,,,,,,,
,,,,,,,,2023-08-06_08h21.22.905,HF_wild_card,2022.2.4,Win32,60.04202942,5bc58a439d9a7c0001cfa90e,64ce5acb97489d65b14ecc7a,64cf492e37db3658e28334e0,,,,,,,decisionTrl,resources/DG.BMP,resources/DR.BMP,Door1,-0.324074046,-0.052777778,1,0,0,2.3483,optionLeft,30,7330,4,3,0,3,0,1,,,,,,,,,,,,,,,,,,,,,,,,,,,,,,,,,,,,,,,
,,,,,,,,2023-08-06_08h21.22.905,HF_wild_card,2022.2.4,Win32,60.04202942,5bc58a439d9a7c0001cfa90e,64ce5acb97489d65b14ecc7a,64cf492e37db3658e28334e0,,,,,,,decisionTrl,resources/DG.BMP,resources/DR.BMP,Door2,0.385185242,-0.033333333,1,0,0,1.4818,optionRight,20,7350,4,4,0,4,0,1,,,,,,,,,,,,,,,,,,,,,,,,,,,,,,,,,,,,,,,
,,,,,,,,2023-08-06_08h21.22.905,HF_wild_card,2022.2.4,Win32,60.04202942,5bc58a439d9a7c0001cfa90e,64ce5acb97489d65b14ecc7a,64cf492e37db3658e28334e0,,,,,,,ctch,resources/DR.BMP,resources/DP.BMP,Door3,0.277777778,-0.010185199,1,0,0,1.6202,optionRight,70,7420,4,5,0,5,0,1,,,,,,,,,,,,,,,,,,,,,,,,,,,,,,,,,,,,,,,
,,,,,,,,2023-08-06_08h21.22.905,HF_wild_card,2022.2.4,Win32,60.04202942,5bc58a439d9a7c0001cfa90e,64ce5acb97489d65b14ecc7a,64cf492e37db3658e28334e0,,,,,,,decisionTrl,resources/DB.BMP,resources/DG.BMP,WildCard_Ex,-0.407407379,-0.053703732,1,0,0,2.9777,optionLeft,45,7465,4,6,0,6,0,1,,,,,,,,,,,,,,,,,,,,,,,,,,,,,,,,,,,,,,,
,,,,,,,,2023-08-06_08h21.22.905,HF_wild_card,2022.2.4,Win32,60.04202942,5bc58a439d9a7c0001cfa90e,64ce5acb97489d65b14ecc7a,64cf492e37db3658e28334e0,,,,,,,ctch,resources/DBN.BMP,resources/DG.BMP,Door4,-0.339814801,-0.063888889,1,0,0,1.6721,optionLeft,60,7525,4,7,0,7,0,1,,,,,,,,,,,,,,,,,,,,,,,,,,,,,,,,,,,,,,,
,,,,,,,,2023-08-06_08h21.22.905,HF_wild_card,2022.2.4,Win32,60.04202942,5bc58a439d9a7c0001cfa90e,64ce5acb97489d65b14ecc7a,64cf492e37db3658e28334e0,,,,,,,sngl,resources/Empty.png,resources/DBN.BMP,Door4,0.301851908,-0.018518533,1,0,0,1.3368,optionRight,80,7605,4,8,0,8,0,1,,,,,,,,,,,,,,,,,,,,,,,,,,,,,,,,,,,,,,,
,,,,,,,,2023-08-06_08h21.22.905,HF_wild_card,2022.2.4,Win32,60.04202942,5bc58a439d9a7c0001cfa90e,64ce5acb97489d65b14ecc7a,64cf492e37db3658e28334e0,,,,,,,decisionTrl,resources/DB.BMP,resources/DR.BMP,WildCard_Ex,-0.379629601,-0.07129631,1,0,0,2.0974,optionLeft,55,7660,4,9,0,9,0,1,,,,,,,,,,,,,,,,,,,,,,,,,,,,,,,,,,,,,,,
,,,,,,,,2023-08-06_08h21.22.905,HF_wild_card,2022.2.4,Win32,60.04202942,5bc58a439d9a7c0001cfa90e,64ce5acb97489d65b14ecc7a,64cf492e37db3658e28334e0,,,,,,,decisionTrl,resources/DR.BMP,resources/DG.BMP,Door1,0.368518575,-0.011111111,1,0,0,1.6537,optionRight,30,7690,4,10,0,10,0,1,,,,,,,,,,,,,,,,,,,,,,,,,,,,,,,,,,,,,,,
,,,,,,,,2023-08-06_08h21.22.905,HF_wild_card,2022.2.4,Win32,60.04202942,5bc58a439d9a7c0001cfa90e,64ce5acb97489d65b14ecc7a,64cf492e37db3658e28334e0,,,,,,,ctch,resources/DG.BMP,resources/DBN.BMP,Door4,0.359259288,-0.034259288,1,0,0,1.8984,optionRight,60,7750,4,11,0,11,0,1,,,,,,,,,,,,,,,,,,,,,,,,,,,,,,,,,,,,,,,
,,,,,,,,2023-08-06_08h21.22.905,HF_wild_card,2022.2.4,Win32,60.04202942,5bc58a439d9a7c0001cfa90e,64ce5acb97489d65b14ecc7a,64cf492e37db3658e28334e0,,,,,,,sngl,resources/Empty.png,resources/DB.BMP,WildCard_Ex,0.269444444,-0.062962977,1,0,0,1.3156,optionRight,45,7795,4,12,0,12,0,1,,,,,,,,,,,,,,,,,,,,,,,,,,,,,,,,,,,,,,,
,,,,,,,,2023-08-06_08h21.22.905,HF_wild_card,2022.2.4,Win32,60.04202942,5bc58a439d9a7c0001cfa90e,64ce5acb97489d65b14ecc7a,64cf492e37db3658e28334e0,,,,,,,sngl,resources/Empty.png,resources/DB.BMP,WildCard_Ex,0.293518575,-0.013888889,1,0,0,1.3108,optionRight,55,7850,4,13,0,13,0,1,,,,,,,,,,,,,,,,,,,,,,,,,,,,,,,,,,,,,,,
,,,,,,,,2023-08-06_08h21.22.905,HF_wild_card,2022.2.4,Win32,60.04202942,5bc58a439d9a7c0001cfa90e,64ce5acb97489d65b14ecc7a,64cf492e37db3658e28334e0,,,,,,,ctch,resources/DBN.BMP,resources/DG.BMP,Door4,-0.435185157,-0.075925954,1,0,0,1.9023,optionLeft,80,7930,4,14,0,14,0,1,,,,,,,,,,,,,,,,,,,,,,,,,,,,,,,,,,,,,,,
,,,,,,,,2023-08-06_08h21.22.905,HF_wild_card,2022.2.4,Win32,60.04202942,5bc58a439d9a7c0001cfa90e,64ce5acb97489d65b14ecc7a,64cf492e37db3658e28334e0,,,,,,,decisionTrl,resources/DG.BMP,resources/DR.BMP,Door1,-0.308333333,-0.049074088,1,0,0,1.6446,optionLeft,30,7960,4,15,0,15,0,1,,,,,,,,,,,,,,,,,,,,,,,,,,,,,,,,,,,,,,,
,,,,,,,,2023-08-06_08h21.22.905,HF_wild_card,2022.2.4,Win32,60.04202942,5bc58a439d9a7c0001cfa90e,64ce5acb97489d65b14ecc7a,64cf492e37db3658e28334e0,,,,,,,decisionTrl,resources/DP.BMP,resources/DBN.BMP,Door3,-0.273148134,-0.033333333,1,0,0,2.3936,optionLeft,70,8030,4,16,0,16,0,1,,,,,,,,,,,,,,,,,,,,,,,,,,,,,,,,,,,,,,,
,,,,,,,,2023-08-06_08h21.22.905,HF_wild_card,2022.2.4,Win32,60.04202942,5bc58a439d9a7c0001cfa90e,64ce5acb97489d65b14ecc7a,64cf492e37db3658e28334e0,,,,,,,decisionTrl,resources/DP.BMP,resources/DBN.BMP,Door3,-0.32870369,-0.035185199,1,0,0,1.6615,optionLeft,70,8100,4,17,0,17,0,1,,,,,,,,,,,,,,,,,,,,,,,,,,,,,,,,,,,,,,,
,,,,,,,,2023-08-06_08h21.22.905,HF_wild_card,2022.2.4,Win32,60.04202942,5bc58a439d9a7c0001cfa90e,64ce5acb97489d65b14ecc7a,64cf492e37db3658e28334e0,,,,,,,ctch,resources/DP.BMP,resources/DR.BMP,Door3,-0.297222222,-0.05,1,0,0,1.5441,optionLeft,70,8170,4,18,0,18,0,1,,,,,,,,,,,,,,,,,,,,,,,,,,,,,,,,,,,,,,,
,,,,,,,,2023-08-06_08h21.22.905,HF_wild_card,2022.2.4,Win32,60.04202942,5bc58a439d9a7c0001cfa90e,64ce5acb97489d65b14ecc7a,64cf492e37db3658e28334e0,,,,,,,decisionTrl,resources/DBN.BMP,resources/DP.BMP,Door4,-0.297222222,-0.055555556,1,0,0,2.9441,optionLeft,60,8230,4,19,0,19,0,1,,,,,,,,,,,,,,,,,,,,,,,,,,,,,,,,,,,,,,,
,,,,,,,,2023-08-06_08h21.22.905,HF_wild_card,2022.2.4,Win32,60.04202942,5bc58a439d9a7c0001cfa90e,64ce5acb97489d65b14ecc7a,64cf492e37db3658e28334e0,,,,,,,sngl,resources/DP.BMP,resources/Empty.png,Door3,-0.277777778,-0.059259288,1,0,0,1.2623,optionLeft,70,8300,4,20,0,20,0,1,,,,,,,,,,,,,,,,,,,,,,,,,,,,,,,,,,,,,,,
,,,,,,,,2023-08-06_08h21.22.905,HF_wild_card,2022.2.4,Win32,60.04202942,5bc58a439d9a7c0001cfa90e,64ce5acb97489d65b14ecc7a,64cf492e37db3658e28334e0,,,,,,,sngl,resources/DB.BMP,resources/Empty.png,WildCard_Ex,-0.270370356,-0.045370399,1,0,0,1.2112,optionLeft,55,8355,4,21,0,21,0,1,,,,,,,,,,,,,,,,,,,,,,,,,,,,,,,,,,,,,,,
,,,,,,,,2023-08-06_08h21.22.905,HF_wild_card,2022.2.4,Win32,60.04202942,5bc58a439d9a7c0001cfa90e,64ce5acb97489d65b14ecc7a,64cf492e37db3658e28334e0,,,,,,,decisionTrl,resources/DP.BMP,resources/DBN.BMP,Door3,-0.379629601,-0.042592621,1,0,0,3.5945,optionLeft,70,8425,4,22,0,22,0,1,,,,,,,,,,,,,,,,,,,,,,,,,,,,,,,,,,,,,,,
,,,,,,,,2023-08-06_08h21.22.905,HF_wild_card,2022.2.4,Win32,60.04202942,5bc58a439d9a7c0001cfa90e,64ce5acb97489d65b14ecc7a,64cf492e37db3658e28334e0,,,,,,,decisionTrl,resources/DR.BMP,resources/DB.BMP,WildCard_Ex,0.325925954,-0.002777778,1,0,0,1.411,optionRight,45,8470,4,23,0,23,0,1,,,,,,,,,,,,,,,,,,,,,,,,,,,,,,,,,,,,,,,
,,,,,,,,2023-08-06_08h21.22.905,HF_wild_card,2022.2.4,Win32,60.04202942,5bc58a439d9a7c0001cfa90e,64ce5acb97489d65b14ecc7a,64cf492e37db3658e28334e0,,,,,,,decisionTrl,resources/DB.BMP,resources/DBN.BMP,Door4,0.322222222,-0.002777778,1,0,0,1.9774,optionRight,60,8530,4,24,0,24,0,1,,,,,,,,,,,,,,,,,,,,,,,,,,,,,,,,,,,,,,,
,,,,,,,,2023-08-06_08h21.22.905,HF_wild_card,2022.2.4,Win32,60.04202942,5bc58a439d9a7c0001cfa90e,64ce5acb97489d65b14ecc7a,64cf492e37db3658e28334e0,,,,,,,sngl,resources/DBN.BMP,resources/Empty.png,Door4,-0.316666667,-0.057407422,1,0,0,1.1775,optionLeft,60,8590,4,25,0,25,0,1,,,,,,,,,,,,,,,,,,,,,,,,,,,,,,,,,,,,,,,
,,,,,,,,2023-08-06_08h21.22.905,HF_wild_card,2022.2.4,Win32,60.04202942,5bc58a439d9a7c0001cfa90e,64ce5acb97489d65b14ecc7a,64cf492e37db3658e28334e0,,,,,,,decisionTrl,resources/DR.BMP,resources/DG.BMP,Door1,0.399074131,-0.007407422,1,0,0,1.9612,optionRight,30,8620,4,26,0,26,0,1,,,,,,,,,,,,,,,,,,,,,,,,,,,,,,,,,,,,,,,
,,,,,,,,2023-08-06_08h21.22.905,HF_wild_card,2022.2.4,Win32,60.04202942,5bc58a439d9a7c0001cfa90e,64ce5acb97489d65b14ecc7a,64cf492e37db3658e28334e0,,,,,,,decisionTrl,resources/DG.BMP,resources/DR.BMP,Door1,-0.225,-0.039814843,1,0,0,1.7445,optionLeft,30,8650,4,27,0,27,0,1,,,,,,,,,,,,,,,,,,,,,,,,,,,,,,,,,,,,,,,
,,,,,,,,2023-08-06_08h21.22.905,HF_wild_card,2022.2.4,Win32,60.04202942,5bc58a439d9a7c0001cfa90e,64ce5acb97489d65b14ecc7a,64cf492e37db3658e28334e0,,,,,,,ctch,resources/DP.BMP,resources/DR.BMP,Door3,-0.295370356,-0.038888889,1,0,0,1.3929,optionLeft,70,8720,4,28,0,28,0,1,,,,,,,,,,,,,,,,,,,,,,,,,,,,,,,,,,,,,,,
,,,,,,,,2023-08-06_08h21.22.905,HF_wild_card,2022.2.4,Win32,60.04202942,5bc58a439d9a7c0001cfa90e,64ce5acb97489d65b14ecc7a,64cf492e37db3658e28334e0,,,,,,,decisionTrl,resources/DR.BMP,resources/DG.BMP,Door1,0.427777778,0.005555556,1,0,0,1.8131,optionRight,30,8750,4,29,0,29,0,1,,,,,,,,,,,,,,,,,,,,,,,,,,,,,,,,,,,,,,,
,,,,,,,,2023-08-06_08h21.22.905,HF_wild_card,2022.2.4,Win32,60.04202942,5bc58a439d9a7c0001cfa90e,64ce5acb97489d65b14ecc7a,64cf492e37db3658e28334e0,,,,,,,ctch,resources/DG.BMP,resources/DBN.BMP,Door4,0.340740797,0.011111111,1,0,0,1.4351,optionRight,80,8830,4,30,0,30,0,1,,,,,,,,,,,,,,,,,,,,,,,,,,,,,,,,,,,,,,,
,,,,,,,,2023-08-06_08h21.22.905,HF_wild_card,2022.2.4,Win32,60.04202942,5bc58a439d9a7c0001cfa90e,64ce5acb97489d65b14ecc7a,64cf492e37db3658e28334e0,,,,,,,sngl,resources/DG.BMP,resources/Empty.png,Door1,-0.294444444,-0.041666667,1,0,0,1.555,optionLeft,30,8860,4,31,0,31,0,1,,,,,,,,,,,,,,,,,,,,,,,,,,,,,,,,,,,,,,,
,,,,,,,,2023-08-06_08h21.22.905,HF_wild_card,2022.2.4,Win32,60.04202942,5bc58a439d9a7c0001cfa90e,64ce5acb97489d65b14ecc7a,64cf492e37db3658e28334e0,,,,,,,decisionTrl,resources/DP.BMP,resources/DB.BMP,Door3,-0.481481467,-0.091666667,1,0,0,1.9899,optionLeft,70,8930,4,32,0,32,0,1,,,,,,,,,,,,,,,,,,,,,,,,,,,,,,,,,,,,,,,
,,,,,,,,2023-08-06_08h21.22.905,HF_wild_card,2022.2.4,Win32,60.04202942,5bc58a439d9a7c0001cfa90e,64ce5acb97489d65b14ecc7a,64cf492e37db3658e28334e0,,,,,,,decisionTrl,resources/DBN.BMP,resources/DB.BMP,Door4,-0.289814801,-0.036111111,1,0,0,1.5655,optionLeft,80,9010,4,33,0,33,0,1,,,,,,,,,,,,,,,,,,,,,,,,,,,,,,,,,,,,,,,
,,,,,,,,2023-08-06_08h21.22.905,HF_wild_card,2022.2.4,Win32,60.04202942,5bc58a439d9a7c0001cfa90e,64ce5acb97489d65b14ecc7a,64cf492e37db3658e28334e0,,,,,,,decisionTrl,resources/DG.BMP,resources/DB.BMP,WildCard_Ex,0.33148151,-0.075925954,1,0,0,2.2364,optionRight,55,9065,4,34,0,34,0,1,,,,,,,,,,,,,,,,,,,,,,,,,,,,,,,,,,,,,,,
,,,,,,,,2023-08-06_08h21.22.905,HF_wild_card,2022.2.4,Win32,60.04202942,5bc58a439d9a7c0001cfa90e,64ce5acb97489d65b14ecc7a,64cf492e37db3658e28334e0,,,,,,,sngl,resources/Empty.png,resources/DR.BMP,Door2,0.303703732,-0.028703732,1,0,0,2.3458,optionRight,40,9105,4,35,0,35,0,1,,,,,,,,,,,,,,,,,,,,,,,,,,,,,,,,,,,,,,,
,,,,,,,,2023-08-06_08h21.22.905,HF_wild_card,2022.2.4,Win32,60.04202942,5bc58a439d9a7c0001cfa90e,64ce5acb97489d65b14ecc7a,64cf492e37db3658e28334e0,,,,,,,decisionTrl,resources/DB.BMP,resources/DP.BMP,Door3,0.273148176,-0.075925954,1,0,0,2.1667,optionRight,70,9175,4,36,0,36,0,1,,,,,,,,,,,,,,,,,,,,,,,,,,,,,,,,,,,,,,,
,,,,,,,,2023-08-06_08h21.22.905,HF_wild_card,2022.2.4,Win32,60.04202942,5bc58a439d9a7c0001cfa90e,64ce5acb97489d65b14ecc7a,64cf492e37db3658e28334e0,,,,,,,decisionTrl,resources/DP.BMP,resources/DBN.BMP,Door4,0.365740797,0.000925912,1,0,0,1.9186,optionRight,80,9255,4,37,0,37,0,1,,,,,,,,,,,,,,,,,,,,,,,,,,,,,,,,,,,,,,,
,,,,,,,,2023-08-06_08h21.22.905,HF_wild_card,2022.2.4,Win32,60.04202942,5bc58a439d9a7c0001cfa90e,64ce5acb97489d65b14ecc7a,64cf492e37db3658e28334e0,,,,,,,sngl,resources/Empty.png,resources/DG.BMP,Door1,0.300925954,-0.022222222,1,0,0,1.4975,optionRight,30,9285,4,38,0,38,0,1,,,,,,,,,,,,,,,,,,,,,,,,,,,,,,,,,,,,,,,
,,,,,,,,2023-08-06_08h21.22.905,HF_wild_card,2022.2.4,Win32,60.04202942,5bc58a439d9a7c0001cfa90e,64ce5acb97489d65b14ecc7a,64cf492e37db3658e28334e0,,,,,,,sngl,resources/Empty.png,resources/DP.BMP,Door3,0.337037065,-0.018518533,1,0,0,1.4232,optionRight,70,9355,4,39,0,39,0,1,,,,,,,,,,,,,,,,,,,,,,,,,,,,,,,,,,,,,,,
,,,,,,,,2023-08-06_08h21.22.905,HF_wild_card,2022.2.4,Win32,60.04202942,5bc58a439d9a7c0001cfa90e,64ce5acb97489d65b14ecc7a,64cf492e37db3658e28334e0,,,,,,,decisionTrl,resources/DBN.BMP,resources/DP.BMP,Door4,-0.373148134,-0.030555556,1,0,0,1.8315,optionLeft,80,9435,4,40,0,40,0,1,,,,,,,,,,,,,,,,,,,,,,,,,,,,,,,,,,,,,,,
,,,,,,,,2023-08-06_08h21.22.905,HF_wild_card,2022.2.4,Win32,60.04202942,5bc58a439d9a7c0001cfa90e,64ce5acb97489d65b14ecc7a,64cf492e37db3658e28334e0,,,,,,,decisionTrl,resources/DR.BMP,resources/DG.BMP,Door1,0.384259288,0.008333333,1,0,0,1.7723,optionRight,30,9465,4,41,0,41,0,1,,,,,,,,,,,,,,,,,,,,,,,,,,,,,,,,,,,,,,,
,,,,,,,,2023-08-06_08h21.22.905,HF_wild_card,2022.2.4,Win32,60.04202942,5bc58a439d9a7c0001cfa90e,64ce5acb97489d65b14ecc7a,64cf492e37db3658e28334e0,,,,,,,decisionTrl,resources/DBN.BMP,resources/DP.BMP,Door4,-0.40370369,-0.041666667,1,0,0,1.7439,optionLeft,80,9545,4,42,0,42,0,1,,,,,,,,,,,,,,,,,,,,,,,,,,,,,,,,,,,,,,,
,,,,,,,,2023-08-06_08h21.22.905,HF_wild_card,2022.2.4,Win32,60.04202942,5bc58a439d9a7c0001cfa90e,64ce5acb97489d65b14ecc7a,64cf492e37db3658e28334e0,,,,,,,sngl,resources/DR.BMP,resources/Empty.png,Door2,-0.300925912,-0.049074088,1,0,0,1.4136,optionLeft,20,9565,4,43,0,43,0,1,,,,,,,,,,,,,,,,,,,,,,,,,,,,,,,,,,,,,,,
,,,,,,,,2023-08-06_08h21.22.905,HF_wild_card,2022.2.4,Win32,60.04202942,5bc58a439d9a7c0001cfa90e,64ce5acb97489d65b14ecc7a,64cf492e37db3658e28334e0,,,,,,,,,,,,,,,,,,,,,,,,,,3,0,3,0,1,,,,,,,,,,,,,,,,,,,,,,,,,,,,,,,,,,
,,,,,,,,2023-08-06_08h21.22.905,HF_wild_card,2022.2.4,Win32,60.04202942,5bc58a439d9a7c0001cfa90e,64ce5acb97489d65b14ecc7a,64cf492e37db3658e28334e0,,,,,,,decisionTrl,resources/DBN.BMP,resources/DP.BMP,Door4,-0.396296268,-0.086111111,1,0,0,1.4894,optionLeft,60,9625,5,0,0,0,0,1,,,,,,,,,,,,,,,,,,,,,,,,,,,,,,,,,,,,,,,
,,,,,,,,2023-08-06_08h21.22.905,HF_wild_card,2022.2.4,Win32,60.04202942,5bc58a439d9a7c0001cfa90e,64ce5acb97489d65b14ecc7a,64cf492e37db3658e28334e0,,,,,,,decisionTrl,resources/DG.BMP,resources/DR.BMP,Door1,-0.299074046,-0.059259288,1,0,0,2.4601,optionLeft,30,9655,5,1,0,1,0,1,,,,,,,,,,,,,,,,,,,,,,,,,,,,,,,,,,,,,,,
,,,,,,,,2023-08-06_08h21.22.905,HF_wild_card,2022.2.4,Win32,60.04202942,5bc58a439d9a7c0001cfa90e,64ce5acb97489d65b14ecc7a,64cf492e37db3658e28334e0,,,,,,,sngl,resources/DB.BMP,resources/Empty.png,WildCard_Ex,-0.306481467,-0.045370399,1,0,0,1.212,optionLeft,45,9700,5,2,0,2,0,1,,,,,,,,,,,,,,,,,,,,,,,,,,,,,,,,,,,,,,,
,,,,,,,,2023-08-06_08h21.22.905,HF_wild_card,2022.2.4,Win32,60.04202942,5bc58a439d9a7c0001cfa90e,64ce5acb97489d65b14ecc7a,64cf492e37db3658e28334e0,,,,,,,decisionTrl,resources/DR.BMP,resources/DG.BMP,Door1,0.395370399,-0.025925954,1,0,0,1.6944,optionRight,30,9730,5,3,0,3,0,1,,,,,,,,,,,,,,,,,,,,,,,,,,,,,,,,,,,,,,,
,,,,,,,,2023-08-06_08h21.22.905,HF_wild_card,2022.2.4,Win32,60.04202942,5bc58a439d9a7c0001cfa90e,64ce5acb97489d65b14ecc7a,64cf492e37db3658e28334e0,,,,,,,ctch,resources/DP.BMP,resources/DR.BMP,Door3,-0.357407379,-0.087037065,1,0,0,1.6069,optionLeft,70,9800,5,4,0,4,0,1,,,,,,,,,,,,,,,,,,,,,,,,,,,,,,,,,,,,,,,
,,,,,,,,2023-08-06_08h21.22.905,HF_wild_card,2022.2.4,Win32,60.04202942,5bc58a439d9a7c0001cfa90e,64ce5acb97489d65b14ecc7a,64cf492e37db3658e28334e0,,,,,,,decisionTrl,resources/DP.BMP,resources/DBN.BMP,Door4,0.367592621,-0.004629644,1,0,0,1.6108,optionRight,80,9880,5,5,0,5,0,1,,,,,,,,,,,,,,,,,,,,,,,,,,,,,,,,,,,,,,,
,,,,,,,,2023-08-06_08h21.22.905,HF_wild_card,2022.2.4,Win32,60.04202942,5bc58a439d9a7c0001cfa90e,64ce5acb97489d65b14ecc7a,64cf492e37db3658e28334e0,,,,,,,ctch,resources/DG.BMP,resources/DBN.BMP,Door4,0.343518575,0,1,0,0,1.6116,optionRight,60,9940,5,6,0,6,0,1,,,,,,,,,,,,,,,,,,,,,,,,,,,,,,,,,,,,,,,
,,,,,,,,2023-08-06_08h21.22.905,HF_wild_card,2022.2.4,Win32,60.04202942,5bc58a439d9a7c0001cfa90e,64ce5acb97489d65b14ecc7a,64cf492e37db3658e28334e0,,,,,,,sngl,resources/DR.BMP,resources/Empty.png,Door2,-0.376851824,-0.069444444,1,0,0,1.4215,optionLeft,40,9980,5,7,0,7,0,1,,,,,,,,,,,,,,,,,,,,,,,,,,,,,,,,,,,,,,,
,,,,,,,,2023-08-06_08h21.22.905,HF_wild_card,2022.2.4,Win32,60.04202942,5bc58a439d9a7c0001cfa90e,64ce5acb97489d65b14ecc7a,64cf492e37db3658e28334e0,,,,,,,decisionTrl,resources/DG.BMP,resources/DR.BMP,Door1,-0.322222222,-0.05648151,1,0,0,1.6319,optionLeft,30,10010,5,8,0,8,0,1,,,,,,,,,,,,,,,,,,,,,,,,,,,,,,,,,,,,,,,
,,,,,,,,2023-08-06_08h21.22.905,HF_wild_card,2022.2.4,Win32,60.04202942,5bc58a439d9a7c0001cfa90e,64ce5acb97489d65b14ecc7a,64cf492e37db3658e28334e0,,,,,,,decisionTrl,resources/DB.BMP,resources/DP.BMP,Door3,0.351851908,-0.077777778,1,0,0,2.6189,optionRight,70,10080,5,9,0,9,0,1,,,,,,,,,,,,,,,,,,,,,,,,,,,,,,,,,,,,,,,
,,,,,,,,2023-08-06_08h21.22.905,HF_wild_card,2022.2.4,Win32,60.04202942,5bc58a439d9a7c0001cfa90e,64ce5acb97489d65b14ecc7a,64cf492e37db3658e28334e0,,,,,,,decisionTrl,resources/DR.BMP,resources/DB.BMP,WildCard_Ex,0.325925954,-0.039814843,1,0,0,1.9849,optionRight,55,10135,5,10,0,10,0,1,,,,,,,,,,,,,,,,,,,,,,,,,,,,,,,,,,,,,,,
,,,,,,,,2023-08-06_08h21.22.905,HF_wild_card,2022.2.4,Win32,60.04202942,5bc58a439d9a7c0001cfa90e,64ce5acb97489d65b14ecc7a,64cf492e37db3658e28334e0,,,,,,,ctch,resources/DBN.BMP,resources/DG.BMP,Door4,-0.338888889,-0.052777778,1,0,0,1.6596,optionLeft,60,10195,5,11,0,11,0,1,,,,,,,,,,,,,,,,,,,,,,,,,,,,,,,,,,,,,,,
,,,,,,,,2023-08-06_08h21.22.905,HF_wild_card,2022.2.4,Win32,60.04202942,5bc58a439d9a7c0001cfa90e,64ce5acb97489d65b14ecc7a,64cf492e37db3658e28334e0,,,,,,,decisionTrl,resources/DB.BMP,resources/DG.BMP,WildCard_Ex,-0.288888889,-0.050925954,1,0,0,6.0611,optionLeft,45,10240,5,12,0,12,0,1,,,,,,,,,,,,,,,,,,,,,,,,,,,,,,,,,,,,,,,
,,,,,,,,2023-08-06_08h21.22.905,HF_wild_card,2022.2.4,Win32,60.04202942,5bc58a439d9a7c0001cfa90e,64ce5acb97489d65b14ecc7a,64cf492e37db3658e28334e0,,,,,,,decisionTrl,resources/DBN.BMP,resources/DB.BMP,Door4,-0.276851824,-0.039814843,1,0,0,1.7106,optionLeft,80,10320,5,13,0,13,0,1,,,,,,,,,,,,,,,,,,,,,,,,,,,,,,,,,,,,,,,
,,,,,,,,2023-08-06_08h21.22.905,HF_wild_card,2022.2.4,Win32,60.04202942,5bc58a439d9a7c0001cfa90e,64ce5acb97489d65b14ecc7a,64cf492e37db3658e28334e0,,,,,,,sngl,resources/Empty.png,resources/DB.BMP,WildCard_Ex,0.313888889,-0.023148176,1,0,0,1.3285,optionRight,45,10365,5,14,0,14,0,1,,,,,,,,,,,,,,,,,,,,,,,,,,,,,,,,,,,,,,,
,,,,,,,,2023-08-06_08h21.22.905,HF_wild_card,2022.2.4,Win32,60.04202942,5bc58a439d9a7c0001cfa90e,64ce5acb97489d65b14ecc7a,64cf492e37db3658e28334e0,,,,,,,ctch,resources/DR.BMP,resources/DP.BMP,Door3,0.293518575,-0.03148151,1,0,0,1.7773,optionRight,70,10435,5,15,0,15,0,1,,,,,,,,,,,,,,,,,,,,,,,,,,,,,,,,,,,,,,,
,,,,,,,,2023-08-06_08h21.22.905,HF_wild_card,2022.2.4,Win32,60.04202942,5bc58a439d9a7c0001cfa90e,64ce5acb97489d65b14ecc7a,64cf492e37db3658e28334e0,,,,,,,decisionTrl,resources/DR.BMP,resources/DG.BMP,Door1,0.293518575,-0.08148151,1,0,0,3.1782,optionRight,30,10465,5,16,0,16,0,1,,,,,,,,,,,,,,,,,,,,,,,,,,,,,,,,,,,,,,,
,,,,,,,,2023-08-06_08h21.22.905,HF_wild_card,2022.2.4,Win32,60.04202942,5bc58a439d9a7c0001cfa90e,64ce5acb97489d65b14ecc7a,64cf492e37db3658e28334e0,,,,,,,decisionTrl,resources/DR.BMP,resources/DG.BMP,Door2,-0.337962935,-0.042592621,1,0,0,1.7603,optionLeft,20,10485,5,17,0,17,0,1,,,,,,,,,,,,,,,,,,,,,,,,,,,,,,,,,,,,,,,
,,,,,,,,2023-08-06_08h21.22.905,HF_wild_card,2022.2.4,Win32,60.04202942,5bc58a439d9a7c0001cfa90e,64ce5acb97489d65b14ecc7a,64cf492e37db3658e28334e0,,,,,,,decisionTrl,resources/DBN.BMP,resources/DP.BMP,Door4,-0.252777778,-0.055555556,1,0,0,4.0283,optionLeft,80,10565,5,18,0,18,0,1,,,,,,,,,,,,,,,,,,,,,,,,,,,,,,,,,,,,,,,
,,,,,,,,2023-08-06_08h21.22.905,HF_wild_card,2022.2.4,Win32,60.04202942,5bc58a439d9a7c0001cfa90e,64ce5acb97489d65b14ecc7a,64cf492e37db3658e28334e0,,,,,,,decisionTrl,resources/DP.BMP,resources/DBN.BMP,Door4,0.491666667,0.013888889,1,0,0,1.5936,optionRight,60,10625,5,19,0,19,0,1,,,,,,,,,,,,,,,,,,,,,,,,,,,,,,,,,,,,,,,
,,,,,,,,2023-08-06_08h21.22.905,HF_wild_card,2022.2.4,Win32,60.04202942,5bc58a439d9a7c0001cfa90e,64ce5acb97489d65b14ecc7a,64cf492e37db3658e28334e0,,,,,,,sngl,resources/Empty.png,resources/DP.BMP,Door3,0.312037065,-0.015740755,1,0,0,1.294,optionRight,70,10695,5,20,0,20,0,1,,,,,,,,,,,,,,,,,,,,,,,,,,,,,,,,,,,,,,,
,,,,,,,,2023-08-06_08h21.22.905,HF_wild_card,2022.2.4,Win32,60.04202942,5bc58a439d9a7c0001cfa90e,64ce5acb97489d65b14ecc7a,64cf492e37db3658e28334e0,,,,,,,decisionTrl,resources/DG.BMP,resources/DR.BMP,Door1,-0.442592578,-0.052777778,1,0,0,2.6618,optionLeft,30,10725,5,21,0,21,0,1,,,,,,,,,,,,,,,,,,,,,,,,,,,,,,,,,,,,,,,
,,,,,,,,2023-08-06_08h21.22.905,HF_wild_card,2022.2.4,Win32,60.04202942,5bc58a439d9a7c0001cfa90e,64ce5acb97489d65b14ecc7a,64cf492e37db3658e28334e0,,,,,,,decisionTrl,resources/DG.BMP,resources/DB.BMP,WildCard_Ex,0.33148151,-0.08148151,1,0,0,2.5276,optionRight,55,10780,5,22,0,22,0,1,,,,,,,,,,,,,,,,,,,,,,,,,,,,,,,,,,,,,,,
,,,,,,,,2023-08-06_08h21.22.905,HF_wild_card,2022.2.4,Win32,60.04202942,5bc58a439d9a7c0001cfa90e,64ce5acb97489d65b14ecc7a,64cf492e37db3658e28334e0,,,,,,,decisionTrl,resources/DP.BMP,resources/DB.BMP,Door3,-0.362037023,-0.016666667,1,0,0,1.8279,optionLeft,70,10850,5,23,0,23,0,1,,,,,,,,,,,,,,,,,,,,,,,,,,,,,,,,,,,,,,,
,,,,,,,,2023-08-06_08h21.22.905,HF_wild_card,2022.2.4,Win32,60.04202942,5bc58a439d9a7c0001cfa90e,64ce5acb97489d65b14ecc7a,64cf492e37db3658e28334e0,,,,,,,ctch,resources/DG.BMP,resources/DBN.BMP,Door4,0.375,0.024074046,1,0,0,1.5776,optionRight,80,10930,5,24,0,24,0,1,,,,,,,,,,,,,,,,,,,,,,,,,,,,,,,,,,,,,,,
,,,,,,,,2023-08-06_08h21.22.905,HF_wild_card,2022.2.4,Win32,60.04202942,5bc58a439d9a7c0001cfa90e,64ce5acb97489d65b14ecc7a,64cf492e37db3658e28334e0,,,,,,,ctch,resources/DBN.BMP,resources/DG.BMP,Door4,-0.341666667,-0.04629631,1,0,0,1.4766,optionLeft,60,10990,5,25,0,25,0,1,,,,,,,,,,,,,,,,,,,,,,,,,,,,,,,,,,,,,,,
,,,,,,,,2023-08-06_08h21.22.905,HF_wild_card,2022.2.4,Win32,60.04202942,5bc58a439d9a7c0001cfa90e,64ce5acb97489d65b14ecc7a,64cf492e37db3658e28334e0,,,,,,,sngl,resources/Empty.png,resources/DBN.BMP,Door4,0.401851908,0.010185157,1,0,0,1.3613,optionRight,60,11050,5,26,0,26,0,1,,,,,,,,,,,,,,,,,,,,,,,,,,,,,,,,,,,,,,,
,,,,,,,,2023-08-06_08h21.22.905,HF_wild_card,2022.2.4,Win32,60.04202942,5bc58a439d9a7c0001cfa90e,64ce5acb97489d65b14ecc7a,64cf492e37db3658e28334e0,,,,,,,decisionTrl,resources/DG.BMP,resources/DR.BMP,Door1,-0.255555556,-0.072222222,1,0,0,2.1946,optionLeft,30,11080,5,27,0,27,0,1,,,,,,,,,,,,,,,,,,,,,,,,,,,,,,,,,,,,,,,
,,,,,,,,2023-08-06_08h21.22.905,HF_wild_card,2022.2.4,Win32,60.04202942,5bc58a439d9a7c0001cfa90e,64ce5acb97489d65b14ecc7a,64cf492e37db3658e28334e0,,,,,,,ctch,resources/DR.BMP,resources/DP.BMP,Door3,0.359259288,0.039814801,1,0,0,1.4437,optionRight,70,11150,5,28,0,28,0,1,,,,,,,,,,,,,,,,,,,,,,,,,,,,,,,,,,,,,,,
,,,,,,,,2023-08-06_08h21.22.905,HF_wild_card,2022.2.4,Win32,60.04202942,5bc58a439d9a7c0001cfa90e,64ce5acb97489d65b14ecc7a,64cf492e37db3658e28334e0,,,,,,,sngl,resources/Empty.png,resources/DB.BMP,WildCard_Ex,0.300925954,-0.014814843,1,0,0,1.2754,optionRight,55,11205,5,29,0,29,0,1,,,,,,,,,,,,,,,,,,,,,,,,,,,,,,,,,,,,,,,
,,,,,,,,2023-08-06_08h21.22.905,HF_wild_card,2022.2.4,Win32,60.04202942,5bc58a439d9a7c0001cfa90e,64ce5acb97489d65b14ecc7a,64cf492e37db3658e28334e0,,,,,,,sngl,resources/DP.BMP,resources/Empty.png,Door3,-0.31851849,-0.044444444,1,0,0,1.3936,optionLeft,70,11275,5,30,0,30,0,1,,,,,,,,,,,,,,,,,,,,,,,,,,,,,,,,,,,,,,,
,,,,,,,,2023-08-06_08h21.22.905,HF_wild_card,2022.2.4,Win32,60.04202942,5bc58a439d9a7c0001cfa90e,64ce5acb97489d65b14ecc7a,64cf492e37db3658e28334e0,,,,,,,sngl,resources/DB.BMP,resources/Empty.png,WildCard_Ex,-0.270370356,-0.045370399,1,0,0,1.3618,optionLeft,55,11330,5,31,0,31,0,1,,,,,,,,,,,,,,,,,,,,,,,,,,,,,,,,,,,,,,,
,,,,,,,,2023-08-06_08h21.22.905,HF_wild_card,2022.2.4,Win32,60.04202942,5bc58a439d9a7c0001cfa90e,64ce5acb97489d65b14ecc7a,64cf492e37db3658e28334e0,,,,,,,sngl,resources/Empty.png,resources/DR.BMP,Door2,0.335185242,-0.013888889,1,0,0,1.3772,optionRight,20,11350,5,32,0,32,0,1,,,,,,,,,,,,,,,,,,,,,,,,,,,,,,,,,,,,,,,
,,,,,,,,2023-08-06_08h21.22.905,HF_wild_card,2022.2.4,Win32,60.04202942,5bc58a439d9a7c0001cfa90e,64ce5acb97489d65b14ecc7a,64cf492e37db3658e28334e0,,,,,,,decisionTrl,resources/DP.BMP,resources/DBN.BMP,Door4,0.319444444,-0.030555556,1,0,0,1.7942,optionRight,80,11430,5,33,0,33,0,1,,,,,,,,,,,,,,,,,,,,,,,,,,,,,,,,,,,,,,,
,,,,,,,,2023-08-06_08h21.22.905,HF_wild_card,2022.2.4,Win32,60.04202942,5bc58a439d9a7c0001cfa90e,64ce5acb97489d65b14ecc7a,64cf492e37db3658e28334e0,,,,,,,decisionTrl,resources/DR.BMP,resources/DG.BMP,Door1,0.346296353,-0.003703732,1,0,0,2.077,optionRight,30,11460,5,34,0,34,0,1,,,,,,,,,,,,,,,,,,,,,,,,,,,,,,,,,,,,,,,
,,,,,,,,2023-08-06_08h21.22.905,HF_wild_card,2022.2.4,Win32,60.04202942,5bc58a439d9a7c0001cfa90e,64ce5acb97489d65b14ecc7a,64cf492e37db3658e28334e0,,,,,,,sngl,resources/DBN.BMP,resources/Empty.png,Door4,-0.351851824,-0.073148176,1,0,0,1.3443,optionLeft,80,11540,5,35,0,35,0,1,,,,,,,,,,,,,,,,,,,,,,,,,,,,,,,,,,,,,,,
,,,,,,,,2023-08-06_08h21.22.905,HF_wild_card,2022.2.4,Win32,60.04202942,5bc58a439d9a7c0001cfa90e,64ce5acb97489d65b14ecc7a,64cf492e37db3658e28334e0,,,,,,,decisionTrl,resources/DB.BMP,resources/DR.BMP,WildCard_Ex,-0.311111111,-0.04629631,1,0,0,2.178,optionLeft,45,11585,5,36,0,36,0,1,,,,,,,,,,,,,,,,,,,,,,,,,,,,,,,,,,,,,,,
,,,,,,,,2023-08-06_08h21.22.905,HF_wild_card,2022.2.4,Win32,60.04202942,5bc58a439d9a7c0001cfa90e,64ce5acb97489d65b14ecc7a,64cf492e37db3658e28334e0,,,,,,,decisionTrl,resources/DBN.BMP,resources/DP.BMP,Door4,-0.294444444,-0.070370399,1,0,0,1.9437,optionLeft,60,11645,5,37,0,37,0,1,,,,,,,,,,,,,,,,,,,,,,,,,,,,,,,,,,,,,,,
,,,,,,,,2023-08-06_08h21.22.905,HF_wild_card,2022.2.4,Win32,60.04202942,5bc58a439d9a7c0001cfa90e,64ce5acb97489d65b14ecc7a,64cf492e37db3658e28334e0,,,,,,,decisionTrl,resources/DB.BMP,resources/DBN.BMP,Door4,0.391666667,0.015740712,1,0,0,1.7129,optionRight,60,11705,5,38,0,38,0,1,,,,,,,,,,,,,,,,,,,,,,,,,,,,,,,,,,,,,,,
,,,,,,,,2023-08-06_08h21.22.905,HF_wild_card,2022.2.4,Win32,60.04202942,5bc58a439d9a7c0001cfa90e,64ce5acb97489d65b14ecc7a,64cf492e37db3658e28334e0,,,,,,,sngl,resources/DG.BMP,resources/Empty.png,Door1,-0.247222222,-0.064814843,1,0,0,1.6788,optionLeft,30,11735,5,39,0,39,0,1,,,,,,,,,,,,,,,,,,,,,,,,,,,,,,,,,,,,,,,
,,,,,,,,2023-08-06_08h21.22.905,HF_wild_card,2022.2.4,Win32,60.04202942,5bc58a439d9a7c0001cfa90e,64ce5acb97489d65b14ecc7a,64cf492e37db3658e28334e0,,,,,,,sngl,resources/Empty.png,resources/DG.BMP,Door1,0.337037065,0.005555556,1,0,0,1.3281,optionRight,30,11765,5,40,0,40,0,1,,,,,,,,,,,,,,,,,,,,,,,,,,,,,,,,,,,,,,,
,,,,,,,,2023-08-06_08h21.22.905,HF_wild_card,2022.2.4,Win32,60.04202942,5bc58a439d9a7c0001cfa90e,64ce5acb97489d65b14ecc7a,64cf492e37db3658e28334e0,,,,,,,ctch,resources/DP.BMP,resources/DR.BMP,Door3,-0.417592578,-0.108333333,1,0,0,1.9277,optionLeft,70,11835,5,41,0,41,0,1,,,,,,,,,,,,,,,,,,,,,,,,,,,,,,,,,,,,,,,
,,,,,,,,2023-08-06_08h21.22.905,HF_wild_card,2022.2.4,Win32,60.04202942,5bc58a439d9a7c0001cfa90e,64ce5acb97489d65b14ecc7a,64cf492e37db3658e28334e0,,,,,,,decisionTrl,resources/DP.BMP,resources/DBN.BMP,Door4,0.391666667,-0.007407422,1,0,0,1.5616,optionRight,60,11895,5,42,0,42,0,1,,,,,,,,,,,,,,,,,,,,,,,,,,,,,,,,,,,,,,,
,,,,,,,,2023-08-06_08h21.22.905,HF_wild_card,2022.2.4,Win32,60.04202942,5bc58a439d9a7c0001cfa90e,64ce5acb97489d65b14ecc7a,64cf492e37db3658e28334e0,,,,,,,decisionTrl,resources/DBN.BMP,resources/DP.BMP,Door4,-0.361111111,-0.082407422,1,0,0,1.495,optionLeft,80,11975,5,43,0,43,0,1,,,,,,,,,,,,,,,,,,,,,,,,,,,,,,,,,,,,,,,
,,,,,,,,2023-08-06_08h21.22.905,HF_wild_card,2022.2.4,Win32,60.04202942,5bc58a439d9a7c0001cfa90e,64ce5acb97489d65b14ecc7a,64cf492e37db3658e28334e0,,,,,,,,,,,,,,,,,,,,,,,,,,4,0,4,0,1,,,,,,,,,,,,,,,,,,,,,,,,,,,,,,,,,,
,,,,,,,,2023-08-06_08h21.22.905,HF_wild_card,2022.2.4,Win32,60.04202942,5bc58a439d9a7c0001cfa90e,64ce5acb97489d65b14ecc7a,64cf492e37db3658e28334e0,,,,,,,decisionTrl,resources/DB.BMP,resources/DG.BMP,WildCard_Ex,-0.342592578,-0.187962977,1,0,0,2.4229,optionLeft,55,12030,6,0,0,0,0,1,,,,,,,,,,,,,,,,,,,,,,,,,,,,,,,,,,,,,,,
,,,,,,,,2023-08-06_08h21.22.905,HF_wild_card,2022.2.4,Win32,60.04202942,5bc58a439d9a7c0001cfa90e,64ce5acb97489d65b14ecc7a,64cf492e37db3658e28334e0,,,,,,,sngl,resources/Empty.png,resources/DB.BMP,WildCard_Ex,0.350925954,-0.023148176,1,0,0,1.2439,optionRight,55,12085,6,1,0,1,0,1,,,,,,,,,,,,,,,,,,,,,,,,,,,,,,,,,,,,,,,
,,,,,,,,2023-08-06_08h21.22.905,HF_wild_card,2022.2.4,Win32,60.04202942,5bc58a439d9a7c0001cfa90e,64ce5acb97489d65b14ecc7a,64cf492e37db3658e28334e0,,,,,,,decisionTrl,resources/DB.BMP,resources/DR.BMP,WildCard_Ex,-0.341666667,-0.040740755,1,0,0,1.5113,optionLeft,45,12130,6,2,0,2,0,1,,,,,,,,,,,,,,,,,,,,,,,,,,,,,,,,,,,,,,,
,,,,,,,,2023-08-06_08h21.22.905,HF_wild_card,2022.2.4,Win32,60.04202942,5bc58a439d9a7c0001cfa90e,64ce5acb97489d65b14ecc7a,64cf492e37db3658e28334e0,,,,,,,decisionTrl,resources/DP.BMP,resources/DB.BMP,Door3,-0.336111111,-0.060185199,1,0,0,1.6613,optionLeft,70,12200,6,3,0,3,0,1,,,,,,,,,,,,,,,,,,,,,,,,,,,,,,,,,,,,,,,
,,,,,,,,2023-08-06_08h21.22.905,HF_wild_card,2022.2.4,Win32,60.04202942,5bc58a439d9a7c0001cfa90e,64ce5acb97489d65b14ecc7a,64cf492e37db3658e28334e0,,,,,,,ctch,resources/DP.BMP,resources/DR.BMP,Door3,-0.409259245,-0.049074088,1,0,0,1.5286,optionLeft,70,12270,6,4,0,4,0,1,,,,,,,,,,,,,,,,,,,,,,,,,,,,,,,,,,,,,,,
,,,,,,,,2023-08-06_08h21.22.905,HF_wild_card,2022.2.4,Win32,60.04202942,5bc58a439d9a7c0001cfa90e,64ce5acb97489d65b14ecc7a,64cf492e37db3658e28334e0,,,,,,,decisionTrl,resources/DR.BMP,resources/DB.BMP,WildCard_Ex,0.420370399,-0.015740755,1,0,0,1.7441,optionRight,55,12325,6,5,0,5,0,1,,,,,,,,,,,,,,,,,,,,,,,,,,,,,,,,,,,,,,,
,,,,,,,,2023-08-06_08h21.22.905,HF_wild_card,2022.2.4,Win32,60.04202942,5bc58a439d9a7c0001cfa90e,64ce5acb97489d65b14ecc7a,64cf492e37db3658e28334e0,,,,,,,sngl,resources/DBN.BMP,resources/Empty.png,Door4,-0.312962935,-0.037962977,1,0,0,1.3446,optionLeft,60,12385,6,6,0,6,0,1,,,,,,,,,,,,,,,,,,,,,,,,,,,,,,,,,,,,,,,
,,,,,,,,2023-08-06_08h21.22.905,HF_wild_card,2022.2.4,Win32,60.04202942,5bc58a439d9a7c0001cfa90e,64ce5acb97489d65b14ecc7a,64cf492e37db3658e28334e0,,,,,,,sngl,resources/DG.BMP,resources/Empty.png,Door1,-0.292592578,-0.045370399,1,0,0,1.4114,optionLeft,30,12415,6,7,0,7,0,1,,,,,,,,,,,,,,,,,,,,,,,,,,,,,,,,,,,,,,,
,,,,,,,,2023-08-06_08h21.22.905,HF_wild_card,2022.2.4,Win32,60.04202942,5bc58a439d9a7c0001cfa90e,64ce5acb97489d65b14ecc7a,64cf492e37db3658e28334e0,,,,,,,decisionTrl,resources/DR.BMP,resources/DG.BMP,Door1,0.391666667,0.000925912,1,0,0,1.3276,optionRight,30,12445,6,8,0,8,0,1,,,,,,,,,,,,,,,,,,,,,,,,,,,,,,,,,,,,,,,
,,,,,,,,2023-08-06_08h21.22.905,HF_wild_card,2022.2.4,Win32,60.04202942,5bc58a439d9a7c0001cfa90e,64ce5acb97489d65b14ecc7a,64cf492e37db3658e28334e0,,,,,,,decisionTrl,resources/DB.BMP,resources/DP.BMP,Door3,0.301851908,-0.012962977,1,0,0,1.6115,optionRight,70,12515,6,9,0,9,0,1,,,,,,,,,,,,,,,,,,,,,,,,,,,,,,,,,,,,,,,
,,,,,,,,2023-08-06_08h21.22.905,HF_wild_card,2022.2.4,Win32,60.04202942,5bc58a439d9a7c0001cfa90e,64ce5acb97489d65b14ecc7a,64cf492e37db3658e28334e0,,,,,,,decisionTrl,resources/DG.BMP,resources/DR.BMP,Door1,-0.321296268,-0.042592621,1,0,0,2.0105,optionLeft,30,12545,6,10,0,10,0,1,,,,,,,,,,,,,,,,,,,,,,,,,,,,,,,,,,,,,,,
,,,,,,,,2023-08-06_08h21.22.905,HF_wild_card,2022.2.4,Win32,60.04202942,5bc58a439d9a7c0001cfa90e,64ce5acb97489d65b14ecc7a,64cf492e37db3658e28334e0,,,,,,,sngl,resources/DB.BMP,resources/Empty.png,WildCard_Ex,-0.275,-0.025925954,1,0,0,1.3275,optionLeft,45,12590,6,11,0,11,0,1,,,,,,,,,,,,,,,,,,,,,,,,,,,,,,,,,,,,,,,
,,,,,,,,2023-08-06_08h21.22.905,HF_wild_card,2022.2.4,Win32,60.04202942,5bc58a439d9a7c0001cfa90e,64ce5acb97489d65b14ecc7a,64cf492e37db3658e28334e0,,,,,,,decisionTrl,resources/DP.BMP,resources/DBN.BMP,Door3,-0.287962935,-0.066666667,1,0,0,2.2777,optionLeft,70,12660,6,12,0,12,0,1,,,,,,,,,,,,,,,,,,,,,,,,,,,,,,,,,,,,,,,
,,,,,,,,2023-08-06_08h21.22.905,HF_wild_card,2022.2.4,Win32,60.04202942,5bc58a439d9a7c0001cfa90e,64ce5acb97489d65b14ecc7a,64cf492e37db3658e28334e0,,,,,,,sngl,resources/DB.BMP,resources/Empty.png,WildCard_Ex,-0.286111111,-0.050925954,1,0,0,1.4113,optionLeft,55,12715,6,13,0,13,0,1,,,,,,,,,,,,,,,,,,,,,,,,,,,,,,,,,,,,,,,
,,,,,,,,2023-08-06_08h21.22.905,HF_wild_card,2022.2.4,Win32,60.04202942,5bc58a439d9a7c0001cfa90e,64ce5acb97489d65b14ecc7a,64cf492e37db3658e28334e0,,,,,,,decisionTrl,resources/DB.BMP,resources/DBN.BMP,Door4,0.310185242,0.011111111,1,0,0,1.5945,optionRight,60,12775,6,14,0,14,0,1,,,,,,,,,,,,,,,,,,,,,,,,,,,,,,,,,,,,,,,
,,,,,,,,2023-08-06_08h21.22.905,HF_wild_card,2022.2.4,Win32,60.04202942,5bc58a439d9a7c0001cfa90e,64ce5acb97489d65b14ecc7a,64cf492e37db3658e28334e0,,,,,,,sngl,resources/DP.BMP,resources/Empty.png,Door3,-0.379629601,-0.036111111,1,0,0,1.2947,optionLeft,70,12845,6,15,0,15,0,1,,,,,,,,,,,,,,,,,,,,,,,,,,,,,,,,,,,,,,,
,,,,,,,,2023-08-06_08h21.22.905,HF_wild_card,2022.2.4,Win32,60.04202942,5bc58a439d9a7c0001cfa90e,64ce5acb97489d65b14ecc7a,64cf492e37db3658e28334e0,,,,,,,ctch,resources/DBN.BMP,resources/DG.BMP,Door4,-0.360185157,-0.02129631,1,0,0,2.074,optionLeft,60,12905,6,16,0,16,0,1,,,,,,,,,,,,,,,,,,,,,,,,,,,,,,,,,,,,,,,
,,,,,,,,2023-08-06_08h21.22.905,HF_wild_card,2022.2.4,Win32,60.04202942,5bc58a439d9a7c0001cfa90e,64ce5acb97489d65b14ecc7a,64cf492e37db3658e28334e0,,,,,,,decisionTrl,resources/DP.BMP,resources/DBN.BMP,Door4,0.321296353,0.012962935,1,0,0,2.2783,optionRight,60,12965,6,17,0,17,0,1,,,,,,,,,,,,,,,,,,,,,,,,,,,,,,,,,,,,,,,
,,,,,,,,2023-08-06_08h21.22.905,HF_wild_card,2022.2.4,Win32,60.04202942,5bc58a439d9a7c0001cfa90e,64ce5acb97489d65b14ecc7a,64cf492e37db3658e28334e0,,,,,,,decisionTrl,resources/DR.BMP,resources/DG.BMP,Door1,0.337963019,-0.018518533,1,0,0,2.1108,optionRight,30,12995,6,18,0,18,0,1,,,,,,,,,,,,,,,,,,,,,,,,,,,,,,,,,,,,,,,
,,,,,,,,2023-08-06_08h21.22.905,HF_wild_card,2022.2.4,Win32,60.04202942,5bc58a439d9a7c0001cfa90e,64ce5acb97489d65b14ecc7a,64cf492e37db3658e28334e0,,,,,,,sngl,resources/Empty.png,resources/DB.BMP,WildCard_Ex,0.295370399,-0.019444444,1,0,0,1.3778,optionRight,45,13040,6,19,0,19,0,1,,,,,,,,,,,,,,,,,,,,,,,,,,,,,,,,,,,,,,,
,,,,,,,,2023-08-06_08h21.22.905,HF_wild_card,2022.2.4,Win32,60.04202942,5bc58a439d9a7c0001cfa90e,64ce5acb97489d65b14ecc7a,64cf492e37db3658e28334e0,,,,,,,ctch,resources/DBN.BMP,resources/DG.BMP,Door4,-0.342592578,-0.045370399,1,0,0,1.6118,optionLeft,80,13120,6,20,0,20,0,1,,,,,,,,,,,,,,,,,,,,,,,,,,,,,,,,,,,,,,,
,,,,,,,,2023-08-06_08h21.22.905,HF_wild_card,2022.2.4,Win32,60.04202942,5bc58a439d9a7c0001cfa90e,64ce5acb97489d65b14ecc7a,64cf492e37db3658e28334e0,,,,,,,decisionTrl,resources/DBN.BMP,resources/DP.BMP,Door3,0.370370399,-0.013888889,1,0,0,1.7617,optionRight,70,13190,6,21,0,21,0,1,,,,,,,,,,,,,,,,,,,,,,,,,,,,,,,,,,,,,,,
,,,,,,,,2023-08-06_08h21.22.905,HF_wild_card,2022.2.4,Win32,60.04202942,5bc58a439d9a7c0001cfa90e,64ce5acb97489d65b14ecc7a,64cf492e37db3658e28334e0,,,,,,,decisionTrl,resources/DG.BMP,resources/DB.BMP,WildCard_Ex,0.271296353,-0.02129631,1,0,0,1.8117,optionRight,45,13235,6,22,0,22,0,1,,,,,,,,,,,,,,,,,,,,,,,,,,,,,,,,,,,,,,,
,,,,,,,,2023-08-06_08h21.22.905,HF_wild_card,2022.2.4,Win32,60.04202942,5bc58a439d9a7c0001cfa90e,64ce5acb97489d65b14ecc7a,64cf492e37db3658e28334e0,,,,,,,sngl,resources/Empty.png,resources/DR.BMP,Door2,0.309259288,-0.020370399,1,0,0,2.1117,optionRight,40,13275,6,23,0,23,0,1,,,,,,,,,,,,,,,,,,,,,,,,,,,,,,,,,,,,,,,
,,,,,,,,2023-08-06_08h21.22.905,HF_wild_card,2022.2.4,Win32,60.04202942,5bc58a439d9a7c0001cfa90e,64ce5acb97489d65b14ecc7a,64cf492e37db3658e28334e0,,,,,,,sngl,resources/DR.BMP,resources/Empty.png,Door2,-0.360185157,-0.061111111,1,0,0,1.3285,optionLeft,20,13295,6,24,0,24,0,1,,,,,,,,,,,,,,,,,,,,,,,,,,,,,,,,,,,,,,,
,,,,,,,,2023-08-06_08h21.22.905,HF_wild_card,2022.2.4,Win32,60.04202942,5bc58a439d9a7c0001cfa90e,64ce5acb97489d65b14ecc7a,64cf492e37db3658e28334e0,,,,,,,decisionTrl,resources/DBN.BMP,resources/DP.BMP,Door3,0.447222222,-0.019444444,1,0,0,1.8774,optionRight,70,13365,6,25,0,25,0,1,,,,,,,,,,,,,,,,,,,,,,,,,,,,,,,,,,,,,,,
,,,,,,,,2023-08-06_08h21.22.905,HF_wild_card,2022.2.4,Win32,60.04202942,5bc58a439d9a7c0001cfa90e,64ce5acb97489d65b14ecc7a,64cf492e37db3658e28334e0,,,,,,,ctch,resources/DR.BMP,resources/DP.BMP,Door3,0.30648151,-0.032407422,1,0,0,1.3951,optionRight,70,13435,6,26,0,26,0,1,,,,,,,,,,,,,,,,,,,,,,,,,,,,,,,,,,,,,,,
,,,,,,,,2023-08-06_08h21.22.905,HF_wild_card,2022.2.4,Win32,60.04202942,5bc58a439d9a7c0001cfa90e,64ce5acb97489d65b14ecc7a,64cf492e37db3658e28334e0,,,,,,,decisionTrl,resources/DBN.BMP,resources/DP.BMP,Door3,0.377777778,-0.098148176,1,0,0,2.9777,optionRight,70,13505,6,27,0,27,0,1,,,,,,,,,,,,,,,,,,,,,,,,,,,,,,,,,,,,,,,
,,,,,,,,2023-08-06_08h21.22.905,HF_wild_card,2022.2.4,Win32,60.04202942,5bc58a439d9a7c0001cfa90e,64ce5acb97489d65b14ecc7a,64cf492e37db3658e28334e0,,,,,,,decisionTrl,resources/DG.BMP,resources/DR.BMP,Door1,-0.301851824,-0.014814843,1,0,0,1.6061,optionLeft,30,13535,6,28,0,28,0,1,,,,,,,,,,,,,,,,,,,,,,,,,,,,,,,,,,,,,,,
,,,,,,,,2023-08-06_08h21.22.905,HF_wild_card,2022.2.4,Win32,60.04202942,5bc58a439d9a7c0001cfa90e,64ce5acb97489d65b14ecc7a,64cf492e37db3658e28334e0,,,,,,,decisionTrl,resources/DP.BMP,resources/DBN.BMP,Door4,0.350925954,-0.014814843,1,0,0,1.5383,optionRight,80,13615,6,29,0,29,0,1,,,,,,,,,,,,,,,,,,,,,,,,,,,,,,,,,,,,,,,
,,,,,,,,2023-08-06_08h21.22.905,HF_wild_card,2022.2.4,Win32,60.04202942,5bc58a439d9a7c0001cfa90e,64ce5acb97489d65b14ecc7a,64cf492e37db3658e28334e0,,,,,,,decisionTrl,resources/DR.BMP,resources/DG.BMP,Door1,0.351851908,0.012037023,1,0,0,2.0786,optionRight,30,13645,6,30,0,30,0,1,,,,,,,,,,,,,,,,,,,,,,,,,,,,,,,,,,,,,,,
,,,,,,,,2023-08-06_08h21.22.905,HF_wild_card,2022.2.4,Win32,60.04202942,5bc58a439d9a7c0001cfa90e,64ce5acb97489d65b14ecc7a,64cf492e37db3658e28334e0,,,,,,,decisionTrl,resources/DBN.BMP,resources/DB.BMP,Door4,-0.32870369,-0.037037065,1,0,0,1.8117,optionLeft,80,13725,6,31,0,31,0,1,,,,,,,,,,,,,,,,,,,,,,,,,,,,,,,,,,,,,,,
,,,,,,,,2023-08-06_08h21.22.905,HF_wild_card,2022.2.4,Win32,60.04202942,5bc58a439d9a7c0001cfa90e,64ce5acb97489d65b14ecc7a,64cf492e37db3658e28334e0,,,,,,,sngl,resources/Empty.png,resources/DG.BMP,Door1,0.448148176,0.009259245,1,0,0,1.2731,optionRight,30,13755,6,32,0,32,0,1,,,,,,,,,,,,,,,,,,,,,,,,,,,,,,,,,,,,,,,
,,,,,,,,2023-08-06_08h21.22.905,HF_wild_card,2022.2.4,Win32,60.04202942,5bc58a439d9a7c0001cfa90e,64ce5acb97489d65b14ecc7a,64cf492e37db3658e28334e0,,,,,,,ctch,resources/DG.BMP,resources/DBN.BMP,Door4,0.335185242,-0.001851866,1,0,0,1.4945,optionRight,80,13835,6,33,0,33,0,1,,,,,,,,,,,,,,,,,,,,,,,,,,,,,,,,,,,,,,,
,,,,,,,,2023-08-06_08h21.22.905,HF_wild_card,2022.2.4,Win32,60.04202942,5bc58a439d9a7c0001cfa90e,64ce5acb97489d65b14ecc7a,64cf492e37db3658e28334e0,,,,,,,sngl,resources/Empty.png,resources/DBN.BMP,Door4,0.275,0.008333333,1,0,0,1.2107,optionRight,80,13915,6,34,0,34,0,1,,,,,,,,,,,,,,,,,,,,,,,,,,,,,,,,,,,,,,,
,,,,,,,,2023-08-06_08h21.22.905,HF_wild_card,2022.2.4,Win32,60.04202942,5bc58a439d9a7c0001cfa90e,64ce5acb97489d65b14ecc7a,64cf492e37db3658e28334e0,,,,,,,ctch,resources/DP.BMP,resources/DR.BMP,Door3,-0.37870369,-0.059259288,1,0,0,1.5782,optionLeft,70,13985,6,35,0,35,0,1,,,,,,,,,,,,,,,,,,,,,,,,,,,,,,,,,,,,,,,
,,,,,,,,2023-08-06_08h21.22.905,HF_wild_card,2022.2.4,Win32,60.04202942,5bc58a439d9a7c0001cfa90e,64ce5acb97489d65b14ecc7a,64cf492e37db3658e28334e0,,,,,,,decisionTrl,resources/DG.BMP,resources/DR.BMP,Door1,-0.292592578,-0.079629644,1,0,0,2.4107,optionLeft,30,14015,6,36,0,36,0,1,,,,,,,,,,,,,,,,,,,,,,,,,,,,,,,,,,,,,,,
,,,,,,,,2023-08-06_08h21.22.905,HF_wild_card,2022.2.4,Win32,60.04202942,5bc58a439d9a7c0001cfa90e,64ce5acb97489d65b14ecc7a,64cf492e37db3658e28334e0,,,,,,,decisionTrl,resources/DP.BMP,resources/DBN.BMP,Door4,0.373148176,-0.010185199,1,0,0,3.728,optionRight,60,14075,6,37,0,37,0,1,,,,,,,,,,,,,,,,,,,,,,,,,,,,,,,,,,,,,,,
,,,,,,,,2023-08-06_08h21.22.905,HF_wild_card,2022.2.4,Win32,60.04202942,5bc58a439d9a7c0001cfa90e,64ce5acb97489d65b14ecc7a,64cf492e37db3658e28334e0,,,,,,,decisionTrl,resources/DBN.BMP,resources/DP.BMP,Door3,0.377777778,-0.101851866,1,0,0,2.5613,optionRight,70,14145,6,38,0,38,0,1,,,,,,,,,,,,,,,,,,,,,,,,,,,,,,,,,,,,,,,
,,,,,,,,2023-08-06_08h21.22.905,HF_wild_card,2022.2.4,Win32,60.04202942,5bc58a439d9a7c0001cfa90e,64ce5acb97489d65b14ecc7a,64cf492e37db3658e28334e0,,,,,,,ctch,resources/DG.BMP,resources/DBN.BMP,Door4,0.342592621,-0.016666667,1,0,0,1.3945,optionRight,60,14205,6,39,0,39,0,1,,,,,,,,,,,,,,,,,,,,,,,,,,,,,,,,,,,,,,,
,,,,,,,,2023-08-06_08h21.22.905,HF_wild_card,2022.2.4,Win32,60.04202942,5bc58a439d9a7c0001cfa90e,64ce5acb97489d65b14ecc7a,64cf492e37db3658e28334e0,,,,,,,decisionTrl,resources/DR.BMP,resources/DG.BMP,Door1,0.361111111,-0.000925954,1,0,0,1.7108,optionRight,30,14235,6,40,0,40,0,1,,,,,,,,,,,,,,,,,,,,,,,,,,,,,,,,,,,,,,,
,,,,,,,,2023-08-06_08h21.22.905,HF_wild_card,2022.2.4,Win32,60.04202942,5bc58a439d9a7c0001cfa90e,64ce5acb97489d65b14ecc7a,64cf492e37db3658e28334e0,,,,,,,ctch,resources/DR.BMP,resources/DP.BMP,Door3,0.25648151,-0.044444444,1,0,0,1.3451,optionRight,70,14305,6,41,0,41,0,1,,,,,,,,,,,,,,,,,,,,,,,,,,,,,,,,,,,,,,,
,,,,,,,,2023-08-06_08h21.22.905,HF_wild_card,2022.2.4,Win32,60.04202942,5bc58a439d9a7c0001cfa90e,64ce5acb97489d65b14ecc7a,64cf492e37db3658e28334e0,,,,,,,sngl,resources/Empty.png,resources/DP.BMP,Door3,0.332407464,-0.007407422,1,0,0,1.2387,optionRight,70,14375,6,42,0,42,0,1,,,,,,,,,,,,,,,,,,,,,,,,,,,,,,,,,,,,,,,
,,,,,,,,2023-08-06_08h21.22.905,HF_wild_card,2022.2.4,Win32,60.04202942,5bc58a439d9a7c0001cfa90e,64ce5acb97489d65b14ecc7a,64cf492e37db3658e28334e0,,,,,,,decisionTrl,resources/DG.BMP,resources/DR.BMP,Door1,-0.288888889,-0.054629644,1,0,0,3.19,optionLeft,30,14405,6,43,0,43,0,1,,,,,,,,,,,,,,,,,,,,,,,,,,,,,,,,,,,,,,,
,,,,,,,,2023-08-06_08h21.22.905,HF_wild_card,2022.2.4,Win32,60.04202942,5bc58a439d9a7c0001cfa90e,64ce5acb97489d65b14ecc7a,64cf492e37db3658e28334e0,,,,,,,,,,,,,,,,,,,,,,,,,,5,0,5,0,1,,,,,,,,,,,,,,,,,,,,,,,,,,,,,,,,,,
,,,,,,,,2023-08-06_08h21.22.905,HF_wild_card,2022.2.4,Win32,60.04202942,5bc58a439d9a7c0001cfa90e,64ce5acb97489d65b14ecc7a,64cf492e37db3658e28334e0,,,,,,,decisionTrl,resources/DP.BMP,resources/DBN.BMP,Door3,-0.373148134,-0.018518533,1,0,0,2.7119,optionLeft,70,14475,7,0,0,0,0,1,,,,,,,,,,,,,,,,,,,,,,,,,,,,,,,,,,,,,,,
,,,,,,,,2023-08-06_08h21.22.905,HF_wild_card,2022.2.4,Win32,60.04202942,5bc58a439d9a7c0001cfa90e,64ce5acb97489d65b14ecc7a,64cf492e37db3658e28334e0,,,,,,,decisionTrl,resources/DR.BMP,resources/DG.BMP,Door1,0.360185242,-0.045370399,1,0,0,1.6153,optionRight,30,14505,7,1,0,1,0,1,,,,,,,,,,,,,,,,,,,,,,,,,,,,,,,,,,,,,,,
,,,,,,,,2023-08-06_08h21.22.905,HF_wild_card,2022.2.4,Win32,60.04202942,5bc58a439d9a7c0001cfa90e,64ce5acb97489d65b14ecc7a,64cf492e37db3658e28334e0,,,,,,,decisionTrl,resources/DR.BMP,resources/DG.BMP,Door1,0.390740797,-0.025925954,1,0,0,1.4155,optionRight,30,14535,7,2,0,2,0,1,,,,,,,,,,,,,,,,,,,,,,,,,,,,,,,,,,,,,,,
,,,,,,,,2023-08-06_08h21.22.905,HF_wild_card,2022.2.4,Win32,60.04202942,5bc58a439d9a7c0001cfa90e,64ce5acb97489d65b14ecc7a,64cf492e37db3658e28334e0,,,,,,,ctch,resources/DR.BMP,resources/DP.BMP,Door3,0.337037065,-0.038888889,1,0,0,1.5983,optionRight,70,14605,7,3,0,3,0,1,,,,,,,,,,,,,,,,,,,,,,,,,,,,,,,,,,,,,,,
,,,,,,,,2023-08-06_08h21.22.905,HF_wild_card,2022.2.4,Win32,60.04202942,5bc58a439d9a7c0001cfa90e,64ce5acb97489d65b14ecc7a,64cf492e37db3658e28334e0,,,,,,,decisionTrl,resources/DG.BMP,resources/DR.BMP,Door1,-0.37870369,-0.014814843,1,0,0,1.698,optionLeft,30,14635,7,4,0,4,0,1,,,,,,,,,,,,,,,,,,,,,,,,,,,,,,,,,,,,,,,
,,,,,,,,2023-08-06_08h21.22.905,HF_wild_card,2022.2.4,Win32,60.04202942,5bc58a439d9a7c0001cfa90e,64ce5acb97489d65b14ecc7a,64cf492e37db3658e28334e0,,,,,,,ctch,resources/DBN.BMP,resources/DG.BMP,Door4,-0.317592578,-0.040740755,1,0,0,1.6786,optionLeft,60,14695,7,5,0,5,0,1,,,,,,,,,,,,,,,,,,,,,,,,,,,,,,,,,,,,,,,
,,,,,,,,2023-08-06_08h21.22.905,HF_wild_card,2022.2.4,Win32,60.04202942,5bc58a439d9a7c0001cfa90e,64ce5acb97489d65b14ecc7a,64cf492e37db3658e28334e0,,,,,,,ctch,resources/DG.BMP,resources/DBN.BMP,Door4,0.403703732,-0.016666667,1,0,0,1.8646,optionRight,60,14755,7,6,0,6,0,1,,,,,,,,,,,,,,,,,,,,,,,,,,,,,,,,,,,,,,,
,,,,,,,,2023-08-06_08h21.22.905,HF_wild_card,2022.2.4,Win32,60.04202942,5bc58a439d9a7c0001cfa90e,64ce5acb97489d65b14ecc7a,64cf492e37db3658e28334e0,,,,,,,decisionTrl,resources/DG.BMP,resources/DR.BMP,Door1,-0.310185157,-0.029629644,1,0,0,1.8486,optionLeft,30,14785,7,7,0,7,0,1,,,,,,,,,,,,,,,,,,,,,,,,,,,,,,,,,,,,,,,
,,,,,,,,2023-08-06_08h21.22.905,HF_wild_card,2022.2.4,Win32,60.04202942,5bc58a439d9a7c0001cfa90e,64ce5acb97489d65b14ecc7a,64cf492e37db3658e28334e0,,,,,,,decisionTrl,resources/DBN.BMP,resources/DP.BMP,Door3,0.345370399,-0.07129631,1,0,0,4.1816,optionRight,70,14855,7,8,0,8,0,1,,,,,,,,,,,,,,,,,,,,,,,,,,,,,,,,,,,,,,,
,,,,,,,,2023-08-06_08h21.22.905,HF_wild_card,2022.2.4,Win32,60.04202942,5bc58a439d9a7c0001cfa90e,64ce5acb97489d65b14ecc7a,64cf492e37db3658e28334e0,,,,,,,ctch,resources/DR.BMP,resources/DP.BMP,Door3,0.388888889,-0.028703732,1,0,0,1.3818,optionRight,70,14925,7,9,0,9,0,1,,,,,,,,,,,,,,,,,,,,,,,,,,,,,,,,,,,,,,,
,,,,,,,,2023-08-06_08h21.22.905,HF_wild_card,2022.2.4,Win32,60.04202942,5bc58a439d9a7c0001cfa90e,64ce5acb97489d65b14ecc7a,64cf492e37db3658e28334e0,,,,,,,decisionTrl,resources/DP.BMP,resources/DBN.BMP,Door4,0.395370399,-0.013888889,1,0,0,2.3416,optionRight,60,14985,7,10,0,10,0,1,,,,,,,,,,,,,,,,,,,,,,,,,,,,,,,,,,,,,,,
,,,,,,,,2023-08-06_08h21.22.905,HF_wild_card,2022.2.4,Win32,60.04202942,5bc58a439d9a7c0001cfa90e,64ce5acb97489d65b14ecc7a,64cf492e37db3658e28334e0,,,,,,,ctch,resources/DR.BMP,resources/DP.BMP,Door3,0.399074131,-0.02129631,1,0,0,1.7146,optionRight,70,15055,7,11,0,11,0,1,,,,,,,,,,,,,,,,,,,,,,,,,,,,,,,,,,,,,,,
,,,,,,,,2023-08-06_08h21.22.905,HF_wild_card,2022.2.4,Win32,60.04202942,5bc58a439d9a7c0001cfa90e,64ce5acb97489d65b14ecc7a,64cf492e37db3658e28334e0,,,,,,,decisionTrl,resources/DR.BMP,resources/DG.BMP,Door1,0.394444444,-0.024074088,1,0,0,1.615,optionRight,30,15085,7,12,0,12,0,1,,,,,,,,,,,,,,,,,,,,,,,,,,,,,,,,,,,,,,,
,,,,,,,,2023-08-06_08h21.22.905,HF_wild_card,2022.2.4,Win32,60.04202942,5bc58a439d9a7c0001cfa90e,64ce5acb97489d65b14ecc7a,64cf492e37db3658e28334e0,,,,,,,decisionTrl,resources/DBN.BMP,resources/DP.BMP,Door3,0.357407464,-0.12129631,1,0,0,2.7978,optionRight,70,15155,7,13,0,13,0,1,,,,,,,,,,,,,,,,,,,,,,,,,,,,,,,,,,,,,,,
,,,,,,,,2023-08-06_08h21.22.905,HF_wild_card,2022.2.4,Win32,60.04202942,5bc58a439d9a7c0001cfa90e,64ce5acb97489d65b14ecc7a,64cf492e37db3658e28334e0,,,,,,,decisionTrl,resources/DBN.BMP,resources/DP.BMP,Door3,0.397222222,-0.020370399,1,0,0,1.3822,optionRight,70,15225,7,14,0,14,0,1,,,,,,,,,,,,,,,,,,,,,,,,,,,,,,,,,,,,,,,
,,,,,,,,2023-08-06_08h21.22.905,HF_wild_card,2022.2.4,Win32,60.04202942,5bc58a439d9a7c0001cfa90e,64ce5acb97489d65b14ecc7a,64cf492e37db3658e28334e0,,,,,,,decisionTrl,resources/DBN.BMP,resources/DP.BMP,Door3,0.388888889,-0.014814843,1,0,0,1.3652,optionRight,70,15295,7,15,0,15,0,1,,,,,,,,,,,,,,,,,,,,,,,,,,,,,,,,,,,,,,,
,,,,,,,,2023-08-06_08h21.22.905,HF_wild_card,2022.2.4,Win32,60.04202942,5bc58a439d9a7c0001cfa90e,64ce5acb97489d65b14ecc7a,64cf492e37db3658e28334e0,,,,,,,ctch,resources/DG.BMP,resources/DBN.BMP,Door4,0.393518575,-0.008333333,1,0,0,1.5973,optionRight,80,15375,7,16,0,16,0,1,,,,,,,,,,,,,,,,,,,,,,,,,,,,,,,,,,,,,,,
,,,,,,,,2023-08-06_08h21.22.905,HF_wild_card,2022.2.4,Win32,60.04202942,5bc58a439d9a7c0001cfa90e,64ce5acb97489d65b14ecc7a,64cf492e37db3658e28334e0,,,,,,,ctch,resources/DP.BMP,resources/DR.BMP,Door3,-0.372222222,-0.033333333,1,0,0,1.4639,optionLeft,70,15445,7,17,0,17,0,1,,,,,,,,,,,,,,,,,,,,,,,,,,,,,,,,,,,,,,,
,,,,,,,,2023-08-06_08h21.22.905,HF_wild_card,2022.2.4,Win32,60.04202942,5bc58a439d9a7c0001cfa90e,64ce5acb97489d65b14ecc7a,64cf492e37db3658e28334e0,,,,,,,decisionTrl,resources/DP.BMP,resources/DBN.BMP,Door3,-0.369444444,-0.089814843,1,0,0,2.8988,optionLeft,70,15515,7,18,0,18,0,1,,,,,,,,,,,,,,,,,,,,,,,,,,,,,,,,,,,,,,,
,,,,,,,,2023-08-06_08h21.22.905,HF_wild_card,2022.2.4,Win32,60.04202942,5bc58a439d9a7c0001cfa90e,64ce5acb97489d65b14ecc7a,64cf492e37db3658e28334e0,,,,,,,ctch,resources/DBN.BMP,resources/DG.BMP,Door4,-0.367592578,-0.048148176,1,0,0,1.4318,optionLeft,60,15575,7,19,0,19,0,1,,,,,,,,,,,,,,,,,,,,,,,,,,,,,,,,,,,,,,,
,,,,,,,,2023-08-06_08h21.22.905,HF_wild_card,2022.2.4,Win32,60.04202942,5bc58a439d9a7c0001cfa90e,64ce5acb97489d65b14ecc7a,64cf492e37db3658e28334e0,,,,,,,decisionTrl,resources/DG.BMP,resources/DR.BMP,Door1,-0.350925912,-0.023148176,1,0,0,1.4483,optionLeft,30,15605,7,20,0,20,0,1,,,,,,,,,,,,,,,,,,,,,,,,,,,,,,,,,,,,,,,
,,,,,,,,2023-08-06_08h21.22.905,HF_wild_card,2022.2.4,Win32,60.04202942,5bc58a439d9a7c0001cfa90e,64ce5acb97489d65b14ecc7a,64cf492e37db3658e28334e0,,,,,,,decisionTrl,resources/DG.BMP,resources/DR.BMP,Door1,-0.280555556,-0.053703732,1,0,0,1.332,optionLeft,30,15635,7,21,0,21,0,1,,,,,,,,,,,,,,,,,,,,,,,,,,,,,,,,,,,,,,,
,,,,,,,,2023-08-06_08h21.22.905,HF_wild_card,2022.2.4,Win32,60.04202942,5bc58a439d9a7c0001cfa90e,64ce5acb97489d65b14ecc7a,64cf492e37db3658e28334e0,,,,,,,ctch,resources/DG.BMP,resources/DBN.BMP,Door4,0.392592621,-0.008333333,1,0,0,1.6475,optionRight,60,15695,7,22,0,22,0,1,,,,,,,,,,,,,,,,,,,,,,,,,,,,,,,,,,,,,,,
,,,,,,,,2023-08-06_08h21.22.905,HF_wild_card,2022.2.4,Win32,60.04202942,5bc58a439d9a7c0001cfa90e,64ce5acb97489d65b14ecc7a,64cf492e37db3658e28334e0,,,,,,,decisionTrl,resources/DG.BMP,resources/DR.BMP,Door1,-0.314814801,-0.048148176,1,0,0,1.465,optionLeft,30,15725,7,23,0,23,0,1,,,,,,,,,,,,,,,,,,,,,,,,,,,,,,,,,,,,,,,
,,,,,,,,2023-08-06_08h21.22.905,HF_wild_card,2022.2.4,Win32,60.04202942,5bc58a439d9a7c0001cfa90e,64ce5acb97489d65b14ecc7a,64cf492e37db3658e28334e0,,,,,,,decisionTrl,resources/DR.BMP,resources/DG.BMP,Door1,0.364814843,0.012037023,1,0,0,2.1488,optionRight,30,15755,7,24,0,24,0,1,,,,,,,,,,,,,,,,,,,,,,,,,,,,,,,,,,,,,,,
,,,,,,,,2023-08-06_08h21.22.905,HF_wild_card,2022.2.4,Win32,60.04202942,5bc58a439d9a7c0001cfa90e,64ce5acb97489d65b14ecc7a,64cf492e37db3658e28334e0,,,,,,,decisionTrl,resources/DBN.BMP,resources/DP.BMP,Door3,0.391666667,-0.026851866,1,0,0,2.0977,optionRight,70,15825,7,25,0,25,0,1,,,,,,,,,,,,,,,,,,,,,,,,,,,,,,,,,,,,,,,
,,,,,,,,2023-08-06_08h21.22.905,HF_wild_card,2022.2.4,Win32,60.04202942,5bc58a439d9a7c0001cfa90e,64ce5acb97489d65b14ecc7a,64cf492e37db3658e28334e0,,,,,,,decisionTrl,resources/DP.BMP,resources/DBN.BMP,Door3,-0.316666667,-0.02129631,1,0,0,1.3579,optionLeft,70,15895,7,26,0,26,0,1,,,,,,,,,,,,,,,,,,,,,,,,,,,,,,,,,,,,,,,
,,,,,,,,2023-08-06_08h21.22.905,HF_wild_card,2022.2.4,Win32,60.04202942,5bc58a439d9a7c0001cfa90e,64ce5acb97489d65b14ecc7a,64cf492e37db3658e28334e0,,,,,,,decisionTrl,resources/DP.BMP,resources/DBN.BMP,Door3,-0.312962935,-0.054629644,1,0,0,1.5659,optionLeft,70,15965,7,27,0,27,0,1,,,,,,,,,,,,,,,,,,,,,,,,,,,,,,,,,,,,,,,
,,,,,,,,2023-08-06_08h21.22.905,HF_wild_card,2022.2.4,Win32,60.04202942,5bc58a439d9a7c0001cfa90e,64ce5acb97489d65b14ecc7a,64cf492e37db3658e28334e0,,,,,,,decisionTrl,resources/DR.BMP,resources/DG.BMP,Door1,0.410185242,-0.008333333,1,0,0,1.5322,optionRight,30,15995,7,28,0,28,0,1,,,,,,,,,,,,,,,,,,,,,,,,,,,,,,,,,,,,,,,
,,,,,,,,2023-08-06_08h21.22.905,HF_wild_card,2022.2.4,Win32,60.04202942,5bc58a439d9a7c0001cfa90e,64ce5acb97489d65b14ecc7a,64cf492e37db3658e28334e0,,,,,,,decisionTrl,resources/DG.BMP,resources/DR.BMP,Door1,-0.290740712,-0.027777778,1,0,0,1.3153,optionLeft,30,16025,7,29,0,29,0,1,,,,,,,,,,,,,,,,,,,,,,,,,,,,,,,,,,,,,,,
,,,,,,,,2023-08-06_08h21.22.905,HF_wild_card,2022.2.4,Win32,60.04202942,5bc58a439d9a7c0001cfa90e,64ce5acb97489d65b14ecc7a,64cf492e37db3658e28334e0,,,,,,,decisionTrl,resources/DBN.BMP,resources/DP.BMP,Door3,0.312963019,-0.062037065,1,0,0,2.632,optionRight,70,16095,7,30,0,30,0,1,,,,,,,,,,,,,,,,,,,,,,,,,,,,,,,,,,,,,,,
,,,,,,,,2023-08-06_08h21.22.905,HF_wild_card,2022.2.4,Win32,60.04202942,5bc58a439d9a7c0001cfa90e,64ce5acb97489d65b14ecc7a,64cf492e37db3658e28334e0,,,,,,,ctch,resources/DBN.BMP,resources/DG.BMP,Door4,-0.255555556,-0.036111111,1,0,0,1.3822,optionLeft,80,16175,7,31,0,31,0,1,,,,,,,,,,,,,,,,,,,,,,,,,,,,,,,,,,,,,,,
,,,,,,,,2023-08-06_08h21.22.905,HF_wild_card,2022.2.4,Win32,60.04202942,5bc58a439d9a7c0001cfa90e,64ce5acb97489d65b14ecc7a,64cf492e37db3658e28334e0,,,,,,,ctch,resources/DP.BMP,resources/DR.BMP,Door3,-0.317592578,-0.069444444,1,0,0,1.6285,optionLeft,70,16245,7,32,0,32,0,1,,,,,,,,,,,,,,,,,,,,,,,,,,,,,,,,,,,,,,,
,,,,,,,,2023-08-06_08h21.22.905,HF_wild_card,2022.2.4,Win32,60.04202942,5bc58a439d9a7c0001cfa90e,64ce5acb97489d65b14ecc7a,64cf492e37db3658e28334e0,,,,,,,ctch,resources/DP.BMP,resources/DR.BMP,Door3,-0.301851824,-0.050925954,1,0,0,1.366,optionLeft,70,16315,7,33,0,33,0,1,,,,,,,,,,,,,,,,,,,,,,,,,,,,,,,,,,,,,,,
,,,,,,,,2023-08-06_08h21.22.905,HF_wild_card,2022.2.4,Win32,60.04202942,5bc58a439d9a7c0001cfa90e,64ce5acb97489d65b14ecc7a,64cf492e37db3658e28334e0,,,,,,,decisionTrl,resources/DR.BMP,resources/DG.BMP,Door1,0.555555556,0.035185157,1,0,0,1.5819,optionRight,30,16345,7,34,0,34,0,1,,,,,,,,,,,,,,,,,,,,,,,,,,,,,,,,,,,,,,,
,,,,,,,,2023-08-06_08h21.22.905,HF_wild_card,2022.2.4,Win32,60.04202942,5bc58a439d9a7c0001cfa90e,64ce5acb97489d65b14ecc7a,64cf492e37db3658e28334e0,,,,,,,decisionTrl,resources/DP.BMP,resources/DBN.BMP,Door3,-0.348148134,-0.033333333,1,0,0,2.9312,optionLeft,70,16415,7,35,0,35,0,1,,,,,,,,,,,,,,,,,,,,,,,,,,,,,,,,,,,,,,,
,,,,,,,,2023-08-06_08h21.22.905,HF_wild_card,2022.2.4,Win32,60.04202942,5bc58a439d9a7c0001cfa90e,64ce5acb97489d65b14ecc7a,64cf492e37db3658e28334e0,,,,,,,,,,,,,,,,,,,,,,,,,,6,0,6,0,1,,,,,,,,,,,,,,,,,,,,,,,,,,,,,,,,,,
,,,,,,,,2023-08-06_08h21.22.905,HF_wild_card,2022.2.4,Win32,60.04202942,5bc58a439d9a7c0001cfa90e,64ce5acb97489d65b14ecc7a,64cf492e37db3658e28334e0,,,,,,,,,,,,,,,,,,,,,,,,,,,,,,,4,,,,,,,,,,,,,,,,,,,,,,,,,,,,,,,,,
,,,,,,,,2023-08-06_08h21.22.905,HF_wild_card,2022.2.4,Win32,60.04202942,5bc58a439d9a7c0001cfa90e,64ce5acb97489d65b14ecc7a,64cf492e37db3658e28334e0,,,,,,,,,,,,,,,,,,,,,,,,,,,,,,,,,,,,,,,,,,,,,,,,,,,,,,,,,,,,,,,,
,,,,,,,,2023-08-06_08h21.22.905,HF_wild_card,2022.2.4,Win32,60.04202942,5bc58a439d9a7c0001cfa90e,64ce5acb97489d65b14ecc7a,64cf492e37db3658e28334e0,,,,,,,,,,,,,,,,,,,,,,,,,,,,,,,,20,Door2,resources/DR.BMP,0,0,0,0,1,,,,,,,,,,,,,,,,,,,,,,,,,
,,,,,,,,2023-08-06_08h21.22.905,HF_wild_card,2022.2.4,Win32,60.04202942,5bc58a439d9a7c0001cfa90e,64ce5acb97489d65b14ecc7a,64cf492e37db3658e28334e0,,,,,,,,,,,,,,,,,,,,,,,,,,,,,,,,45,WC_extreme,resources/DB.BMP,1,0,1,0,1,,,,,,,,,,,,,,,,,,,,,,,,,
,,,,,,,,2023-08-06_08h21.22.905,HF_wild_card,2022.2.4,Win32,60.04202942,5bc58a439d9a7c0001cfa90e,64ce5acb97489d65b14ecc7a,64cf492e37db3658e28334e0,,,,,,,,,,,,,,,,,,,,,,,,,,,,,,,,70,Door3,resources/DP.BMP,2,0,2,0,1,,,,,,,,,,,,,,,,,,,,,,,,,
,,,,,,,,2023-08-06_08h21.22.905,HF_wild_card,2022.2.4,Win32,60.04202942,5bc58a439d9a7c0001cfa90e,64ce5acb97489d65b14ecc7a,64cf492e37db3658e28334e0,,,,,,,,,,,,,,,,,,,,,,,,,,,,,,,,55,WC_nonExtreme,resources/DY.BMP,3,0,3,0,1,,,,,,,,,,,,,,,,,,,,,,,,,
,,,,,,,,2023-08-06_08h21.22.905,HF_wild_card,2022.2.4,Win32,60.04202942,5bc58a439d9a7c0001cfa90e,64ce5acb97489d65b14ecc7a,64cf492e37db3658e28334e0,,,,,,,,,,,,,,,,,,,,,,,,,,,,,,,,30,Door1,resources/DG.BMP,4,0,4,0,1,,,,,,,,,,,,,,,,,,,,,,,,,
,,,,,,,,2023-08-06_08h21.22.905,HF_wild_card,2022.2.4,Win32,60.04202942,5bc58a439d9a7c0001cfa90e,64ce5acb97489d65b14ecc7a,64cf492e37db3658e28334e0,,,,,,,,,,,,,,,,,,,,,,,,,,,,,,,,70,Door4,resources/DBN.BMP,5,0,5,0,1,,,,,,,,,,,,,,,,,,,,,,,,,
,,,,,,,,2023-08-06_08h21.22.905,HF_wild_card,2022.2.4,Win32,60.04202942,5bc58a439d9a7c0001cfa90e,64ce5acb97489d65b14ecc7a,64cf492e37db3658e28334e0,,,,,,,,,,,,,,,,,,,,,,,,,,,,,,,,,,,,,,,,,,,,,,,,,,,,,,,,,,,,,,,,
