Condition,Low fixed image (Door1),Low risky image (Door2),High fixed image (Door3),High risky image (Door4),Extreme Wild Card,NonExtreme Wild Card,,date,expName,psychopyVersion,OS,frameRate,PROLIFIC_PID,STUDY_ID,SESSION_ID,mouse_2.x,mouse_2.y,mouse_2.leftButton,mouse_2.midButton,mouse_2.rightButton,mouse_2.clicked_name,Trial Type,Left Option Image,Right Option Image,Chosen Door,mouse.x,mouse.y,mouse.leftButton,mouse.midButton,mouse.rightButton,mouse.time,mouse.clicked_name,Feedback,Cumulative Reward,Block,trial.thisRepN,trial.thisTrialN,trial.thisN,trial.thisIndex,trial.ran,blocks.thisRepN,blocks.thisTrialN,blocks.thisN,blocks.thisIndex,blocks.ran,Money conversion,First Outcome Reported,Shown Door (First Outcome),Displayed Image (First Outcome),outcomes.thisRepN,outcomes.thisTrialN,outcomes.thisN,outcomes.thisIndex,outcomes.ran,judgments.thisRepN,judgments.thisTrialN,judgments.thisN,judgments.thisIndex,judgments.ran,freqMouse.x,freqMouse.y,freqMouse.leftButton,freqMouse.midButton,freqMouse.rightButton,freqMouse.clicked_name,FQJ for first outcome,FQJ for second outcome,Shown Door,Displayed Image,trials.thisRepN,trials.thisTrialN,trials.thisN,trials.thisIndex,trials.ran,judgBlock.thisRepN,judgBlock.thisTrialN,judgBlock.thisN,judgBlock.thisIndex,judgBlock.ran
0,resources/DG.BMP,resources/DY.BMP,resources/DP.BMP,resources/DB.BMP,resources/DR.BMP,resources/DBN.BMP,,2023-08-06_08h19.01.203,HF_wild_card,2022.2.4,MacIntel,58.82352941,64135be84e85d83aff484ef4,64ce5acb97489d65b14ecc7a,64cf495275e78ea91669569c,,,,,,,,,,,,,,,,,,,,,,,,,,,,,,,,,,,,,,,,,,,,,,,,,,,,,,,,,,,,,,,,
,,,,,,,,2023-08-06_08h19.01.203,HF_wild_card,2022.2.4,MacIntel,58.82352941,64135be84e85d83aff484ef4,64ce5acb97489d65b14ecc7a,64cf495275e78ea91669569c,0.004677268,-0.430776427,1,0,0,agree,,,,,,,,,,,,,,,,,,,,,,,,,,,,,,,,,,,,,,,,,,,,,,,,,,,,,,,,,,
,,,,,,,,2023-08-06_08h19.01.203,HF_wild_card,2022.2.4,MacIntel,58.82352941,64135be84e85d83aff484ef4,64ce5acb97489d65b14ecc7a,64cf495275e78ea91669569c,,,,,,,,,,,,,,,,,,,,,,,,,,,,,,,,,,,,,,,,,,,,,,,,,,,,,,,,,,,,,,,,
,,,,,,,,2023-08-06_08h19.01.203,HF_wild_card,2022.2.4,MacIntel,58.82352941,64135be84e85d83aff484ef4,64ce5acb97489d65b14ecc7a,64cf495275e78ea91669569c,,,,,,,ctch,resources/DP.BMP,resources/DY.BMP,Door2,0.420018709,0.030402245,1,0,0,3.504,optionRight,40,40,1,0,0,0,0,1,,,,,,,,,,,,,,,,,,,,,,,,,,,,,,,,,,,,,,,
,,,,,,,,2023-08-06_08h19.01.203,HF_wild_card,2022.2.4,MacIntel,58.82352941,64135be84e85d83aff484ef4,64ce5acb97489d65b14ecc7a,64cf495275e78ea91669569c,,,,,,,decisionTrl,resources/DY.BMP,resources/DG.BMP,Door2,-0.153414406,0.019176801,1,0,0,3.774,optionLeft,40,80,1,1,0,1,0,1,,,,,,,,,,,,,,,,,,,,,,,,,,,,,,,,,,,,,,,
,,,,,,,,2023-08-06_08h19.01.203,HF_wild_card,2022.2.4,MacIntel,58.82352941,64135be84e85d83aff484ef4,64ce5acb97489d65b14ecc7a,64cf495275e78ea91669569c,,,,,,,decisionTrl,resources/DB.BMP,resources/DP.BMP,Door3,0.329279701,0.014499532,1,0,0,1.193,optionRight,70,150,1,2,0,2,0,1,,,,,,,,,,,,,,,,,,,,,,,,,,,,,,,,,,,,,,,
,,,,,,,,2023-08-06_08h19.01.203,HF_wild_card,2022.2.4,MacIntel,58.82352941,64135be84e85d83aff484ef4,64ce5acb97489d65b14ecc7a,64cf495275e78ea91669569c,,,,,,,decisionTrl,resources/DG.BMP,resources/DY.BMP,Door1,-0.241347053,0.040692236,1,0,0,1.376,optionLeft,30,180,1,3,0,3,0,1,,,,,,,,,,,,,,,,,,,,,,,,,,,,,,,,,,,,,,,
,,,,,,,,2023-08-06_08h19.01.203,HF_wild_card,2022.2.4,MacIntel,58.82352941,64135be84e85d83aff484ef4,64ce5acb97489d65b14ecc7a,64cf495275e78ea91669569c,,,,,,,decisionTrl,resources/DB.BMP,resources/DR.BMP,WildCard_Ex,0.32647334,-0.029466791,1,0,0,3.878,optionRight,95,275,1,4,0,4,0,1,,,,,,,,,,,,,,,,,,,,,,,,,,,,,,,,,,,,,,,
,,,,,,,,2023-08-06_08h19.01.203,HF_wild_card,2022.2.4,MacIntel,58.82352941,64135be84e85d83aff484ef4,64ce5acb97489d65b14ecc7a,64cf495275e78ea91669569c,,,,,,,ctch,resources/DG.BMP,resources/DB.BMP,Door4,0.366697848,0.030402245,1,0,0,1.675,optionRight,60,335,1,5,0,5,0,1,,,,,,,,,,,,,,,,,,,,,,,,,,,,,,,,,,,,,,,
,,,,,,,,2023-08-06_08h19.01.203,HF_wild_card,2022.2.4,MacIntel,58.82352941,64135be84e85d83aff484ef4,64ce5acb97489d65b14ecc7a,64cf495275e78ea91669569c,,,,,,,decisionTrl,resources/DR.BMP,resources/DY.BMP,WildCard_Ex,-0.165575304,0.079045837,1,0,0,2.629,optionLeft,95,430,1,6,0,6,0,1,,,,,,,,,,,,,,,,,,,,,,,,,,,,,,,,,,,,,,,
,,,,,,,,2023-08-06_08h19.01.203,HF_wild_card,2022.2.4,MacIntel,58.82352941,64135be84e85d83aff484ef4,64ce5acb97489d65b14ecc7a,64cf495275e78ea91669569c,,,,,,,decisionTrl,resources/DG.BMP,resources/DY.BMP,Door1,-0.185219832,0.018241347,1,0,0,2.097,optionLeft,30,460,1,7,0,7,0,1,,,,,,,,,,,,,,,,,,,,,,,,,,,,,,,,,,,,,,,
,,,,,,,,2023-08-06_08h19.01.203,HF_wild_card,2022.2.4,MacIntel,58.82352941,64135be84e85d83aff484ef4,64ce5acb97489d65b14ecc7a,64cf495275e78ea91669569c,,,,,,,decisionTrl,resources/DG.BMP,resources/DY.BMP,Door2,0.35453695,0.011693171,1,0,0,1.297,optionRight,40,500,1,8,0,8,0,1,,,,,,,,,,,,,,,,,,,,,,,,,,,,,,,,,,,,,,,
,,,,,,,,2023-08-06_08h19.01.203,HF_wild_card,2022.2.4,MacIntel,58.82352941,64135be84e85d83aff484ef4,64ce5acb97489d65b14ecc7a,64cf495275e78ea91669569c,,,,,,,ctch,resources/DB.BMP,resources/DG.BMP,Door4,-0.226379794,0.030402245,1,0,0,2.626,optionLeft,60,560,1,9,0,9,0,1,,,,,,,,,,,,,,,,,,,,,,,,,,,,,,,,,,,,,,,
,,,,,,,,2023-08-06_08h19.01.203,HF_wild_card,2022.2.4,MacIntel,58.82352941,64135be84e85d83aff484ef4,64ce5acb97489d65b14ecc7a,64cf495275e78ea91669569c,,,,,,,sngl,resources/Empty.png,resources/DY.BMP,Door2,0.317118803,-0.002338634,1,0,0,1.577,optionRight,20,580,1,10,0,10,0,1,,,,,,,,,,,,,,,,,,,,,,,,,,,,,,,,,,,,,,,
,,,,,,,,2023-08-06_08h19.01.203,HF_wild_card,2022.2.4,MacIntel,58.82352941,64135be84e85d83aff484ef4,64ce5acb97489d65b14ecc7a,64cf495275e78ea91669569c,,,,,,,decisionTrl,resources/DG.BMP,resources/DR.BMP,WildCard_Ex,0.222637979,-0.004209542,1,0,0,1.56,optionRight,5,585,1,11,0,11,0,1,,,,,,,,,,,,,,,,,,,,,,,,,,,,,,,,,,,,,,,
,,,,,,,,2023-08-06_08h19.01.203,HF_wild_card,2022.2.4,MacIntel,58.82352941,64135be84e85d83aff484ef4,64ce5acb97489d65b14ecc7a,64cf495275e78ea91669569c,,,,,,,sngl,resources/DR.BMP,resources/Empty.png,WildCard_Ex,-0.21515435,0.038821328,1,0,0,0.81,optionLeft,95,680,1,12,0,12,0,1,,,,,,,,,,,,,,,,,,,,,,,,,,,,,,,,,,,,,,,
,,,,,,,,2023-08-06_08h19.01.203,HF_wild_card,2022.2.4,MacIntel,58.82352941,64135be84e85d83aff484ef4,64ce5acb97489d65b14ecc7a,64cf495275e78ea91669569c,,,,,,,decisionTrl,resources/DY.BMP,resources/DG.BMP,Door1,0.26847521,-0.021047708,1,0,0,2.227,optionRight,30,710,1,13,0,13,0,1,,,,,,,,,,,,,,,,,,,,,,,,,,,,,,,,,,,,,,,
,,,,,,,,2023-08-06_08h19.01.203,HF_wild_card,2022.2.4,MacIntel,58.82352941,64135be84e85d83aff484ef4,64ce5acb97489d65b14ecc7a,64cf495275e78ea91669569c,,,,,,,decisionTrl,resources/DP.BMP,resources/DB.BMP,Door3,-0.328344247,0.004209542,1,0,0,1.678,optionLeft,70,780,1,14,0,14,0,1,,,,,,,,,,,,,,,,,,,,,,,,,,,,,,,,,,,,,,,
,,,,,,,,2023-08-06_08h19.01.203,HF_wild_card,2022.2.4,MacIntel,58.82352941,64135be84e85d83aff484ef4,64ce5acb97489d65b14ecc7a,64cf495275e78ea91669569c,,,,,,,sngl,resources/DP.BMP,resources/Empty.png,Door3,-0.225444341,0.015434986,1,0,0,0.777,optionLeft,70,850,1,15,0,15,0,1,,,,,,,,,,,,,,,,,,,,,,,,,,,,,,,,,,,,,,,
,,,,,,,,2023-08-06_08h19.01.203,HF_wild_card,2022.2.4,MacIntel,58.82352941,64135be84e85d83aff484ef4,64ce5acb97489d65b14ecc7a,64cf495275e78ea91669569c,,,,,,,sngl,resources/Empty.png,resources/DR.BMP,WildCard_Ex,0.286248831,0.00888681,1,0,0,1.029,optionRight,5,855,1,16,0,16,0,1,,,,,,,,,,,,,,,,,,,,,,,,,,,,,,,,,,,,,,,
,,,,,,,,2023-08-06_08h19.01.203,HF_wild_card,2022.2.4,MacIntel,58.82352941,64135be84e85d83aff484ef4,64ce5acb97489d65b14ecc7a,64cf495275e78ea91669569c,,,,,,,decisionTrl,resources/DP.BMP,resources/DB.BMP,Door4,0.432179607,0.005144995,1,0,0,2.828,optionRight,60,915,1,17,0,17,0,1,,,,,,,,,,,,,,,,,,,,,,,,,,,,,,,,,,,,,,,
,,,,,,,,2023-08-06_08h19.01.203,HF_wild_card,2022.2.4,MacIntel,58.82352941,64135be84e85d83aff484ef4,64ce5acb97489d65b14ecc7a,64cf495275e78ea91669569c,,,,,,,sngl,resources/DY.BMP,resources/Empty.png,Door2,-0.349859682,0.009822264,1,0,0,0.711,optionLeft,40,955,1,18,0,18,0,1,,,,,,,,,,,,,,,,,,,,,,,,,,,,,,,,,,,,,,,
,,,,,,,,2023-08-06_08h19.01.203,HF_wild_card,2022.2.4,MacIntel,58.82352941,64135be84e85d83aff484ef4,64ce5acb97489d65b14ecc7a,64cf495275e78ea91669569c,,,,,,,sngl,resources/Empty.png,resources/DG.BMP,Door1,0.327408793,0.009822264,1,0,0,1.212,optionRight,30,985,1,19,0,19,0,1,,,,,,,,,,,,,,,,,,,,,,,,,,,,,,,,,,,,,,,
,,,,,,,,2023-08-06_08h19.01.203,HF_wild_card,2022.2.4,MacIntel,58.82352941,64135be84e85d83aff484ef4,64ce5acb97489d65b14ecc7a,64cf495275e78ea91669569c,,,,,,,sngl,resources/Empty.png,resources/DR.BMP,WildCard_Ex,0.418147802,0.050982226,1,0,0,0.894,optionRight,95,1080,1,20,0,20,0,1,,,,,,,,,,,,,,,,,,,,,,,,,,,,,,,,,,,,,,,
,,,,,,,,2023-08-06_08h19.01.203,HF_wild_card,2022.2.4,MacIntel,58.82352941,64135be84e85d83aff484ef4,64ce5acb97489d65b14ecc7a,64cf495275e78ea91669569c,,,,,,,sngl,resources/DR.BMP,resources/Empty.png,WildCard_Ex,-0.327408793,0.001403181,1,0,0,0.727,optionLeft,5,1085,1,21,0,21,0,1,,,,,,,,,,,,,,,,,,,,,,,,,,,,,,,,,,,,,,,
,,,,,,,,2023-08-06_08h19.01.203,HF_wild_card,2022.2.4,MacIntel,58.82352941,64135be84e85d83aff484ef4,64ce5acb97489d65b14ecc7a,64cf495275e78ea91669569c,,,,,,,ctch,resources/DY.BMP,resources/DP.BMP,Door3,0.401309635,0.010757717,1,0,0,1.31,optionRight,70,1155,1,22,0,22,0,1,,,,,,,,,,,,,,,,,,,,,,,,,,,,,,,,,,,,,,,
,,,,,,,,2023-08-06_08h19.01.203,HF_wild_card,2022.2.4,MacIntel,58.82352941,64135be84e85d83aff484ef4,64ce5acb97489d65b14ecc7a,64cf495275e78ea91669569c,,,,,,,ctch,resources/DB.BMP,resources/DG.BMP,Door1,0.306828812,0.021047708,1,0,0,1.294,optionRight,30,1185,1,23,0,23,0,1,,,,,,,,,,,,,,,,,,,,,,,,,,,,,,,,,,,,,,,
,,,,,,,,2023-08-06_08h19.01.203,HF_wild_card,2022.2.4,MacIntel,58.82352941,64135be84e85d83aff484ef4,64ce5acb97489d65b14ecc7a,64cf495275e78ea91669569c,,,,,,,decisionTrl,resources/DB.BMP,resources/DP.BMP,Door3,0.333956969,0.00888681,1,0,0,0.862,optionRight,70,1255,1,24,0,24,0,1,,,,,,,,,,,,,,,,,,,,,,,,,,,,,,,,,,,,,,,
,,,,,,,,2023-08-06_08h19.01.203,HF_wild_card,2022.2.4,MacIntel,58.82352941,64135be84e85d83aff484ef4,64ce5acb97489d65b14ecc7a,64cf495275e78ea91669569c,,,,,,,decisionTrl,resources/DB.BMP,resources/DP.BMP,Door3,0.351730589,0.018241347,1,0,0,0.679,optionRight,70,1325,1,25,0,25,0,1,,,,,,,,,,,,,,,,,,,,,,,,,,,,,,,,,,,,,,,
,,,,,,,,2023-08-06_08h19.01.203,HF_wild_card,2022.2.4,MacIntel,58.82352941,64135be84e85d83aff484ef4,64ce5acb97489d65b14ecc7a,64cf495275e78ea91669569c,,,,,,,decisionTrl,resources/DP.BMP,resources/DB.BMP,Door3,-0.276894294,0.004209542,1,0,0,0.795,optionLeft,70,1395,1,26,0,26,0,1,,,,,,,,,,,,,,,,,,,,,,,,,,,,,,,,,,,,,,,
,,,,,,,,2023-08-06_08h19.01.203,HF_wild_card,2022.2.4,MacIntel,58.82352941,64135be84e85d83aff484ef4,64ce5acb97489d65b14ecc7a,64cf495275e78ea91669569c,,,,,,,sngl,resources/Empty.png,resources/DB.BMP,Door4,0.287184284,-0.029466791,1,0,0,0.894,optionRight,60,1455,1,27,0,27,0,1,,,,,,,,,,,,,,,,,,,,,,,,,,,,,,,,,,,,,,,
,,,,,,,,2023-08-06_08h19.01.203,HF_wild_card,2022.2.4,MacIntel,58.82352941,64135be84e85d83aff484ef4,64ce5acb97489d65b14ecc7a,64cf495275e78ea91669569c,,,,,,,decisionTrl,resources/DR.BMP,resources/DB.BMP,WildCard_Ex,-0.351730589,0.015434986,1,0,0,1.928,optionLeft,95,1550,1,28,0,28,0,1,,,,,,,,,,,,,,,,,,,,,,,,,,,,,,,,,,,,,,,
,,,,,,,,2023-08-06_08h19.01.203,HF_wild_card,2022.2.4,MacIntel,58.82352941,64135be84e85d83aff484ef4,64ce5acb97489d65b14ecc7a,64cf495275e78ea91669569c,,,,,,,decisionTrl,resources/DG.BMP,resources/DY.BMP,Door1,-0.3797942,-0.002338634,1,0,0,1.227,optionLeft,30,1580,1,29,0,29,0,1,,,,,,,,,,,,,,,,,,,,,,,,,,,,,,,,,,,,,,,
,,,,,,,,2023-08-06_08h19.01.203,HF_wild_card,2022.2.4,MacIntel,58.82352941,64135be84e85d83aff484ef4,64ce5acb97489d65b14ecc7a,64cf495275e78ea91669569c,,,,,,,decisionTrl,resources/DY.BMP,resources/DR.BMP,WildCard_Ex,0.373246024,-0.000467727,1,0,0,1.427,optionRight,5,1585,1,30,0,30,0,1,,,,,,,,,,,,,,,,,,,,,,,,,,,,,,,,,,,,,,,
,,,,,,,,2023-08-06_08h19.01.203,HF_wild_card,2022.2.4,MacIntel,58.82352941,64135be84e85d83aff484ef4,64ce5acb97489d65b14ecc7a,64cf495275e78ea91669569c,,,,,,,ctch,resources/DY.BMP,resources/DP.BMP,Door3,0.333021515,-0.006080449,1,0,0,0.996,optionRight,70,1655,1,31,0,31,0,1,,,,,,,,,,,,,,,,,,,,,,,,,,,,,,,,,,,,,,,
,,,,,,,,2023-08-06_08h19.01.203,HF_wild_card,2022.2.4,MacIntel,58.82352941,64135be84e85d83aff484ef4,64ce5acb97489d65b14ecc7a,64cf495275e78ea91669569c,,,,,,,decisionTrl,resources/DY.BMP,resources/DG.BMP,Door1,0.263797942,0.060336763,1,0,0,2.714,optionRight,30,1685,1,32,0,32,0,1,,,,,,,,,,,,,,,,,,,,,,,,,,,,,,,,,,,,,,,
,,,,,,,,2023-08-06_08h19.01.203,HF_wild_card,2022.2.4,MacIntel,58.82352941,64135be84e85d83aff484ef4,64ce5acb97489d65b14ecc7a,64cf495275e78ea91669569c,,,,,,,decisionTrl,resources/DR.BMP,resources/DG.BMP,WildCard_Ex,-0.532273152,-0.021047708,1,0,0,1.096,optionLeft,95,1780,1,33,0,33,0,1,,,,,,,,,,,,,,,,,,,,,,,,,,,,,,,,,,,,,,,
,,,,,,,,2023-08-06_08h19.01.203,HF_wild_card,2022.2.4,MacIntel,58.82352941,64135be84e85d83aff484ef4,64ce5acb97489d65b14ecc7a,64cf495275e78ea91669569c,,,,,,,ctch,resources/DP.BMP,resources/DY.BMP,Door3,-0.464920486,-0.033208606,1,0,0,0.96,optionLeft,70,1850,1,34,0,34,0,1,,,,,,,,,,,,,,,,,,,,,,,,,,,,,,,,,,,,,,,
,,,,,,,,2023-08-06_08h19.01.203,HF_wild_card,2022.2.4,MacIntel,58.82352941,64135be84e85d83aff484ef4,64ce5acb97489d65b14ecc7a,64cf495275e78ea91669569c,,,,,,,decisionTrl,resources/DR.BMP,resources/DP.BMP,Door3,0.400374181,-0.021983162,1,0,0,0.778,optionRight,70,1920,1,35,0,35,0,1,,,,,,,,,,,,,,,,,,,,,,,,,,,,,,,,,,,,,,,
,,,,,,,,2023-08-06_08h19.01.203,HF_wild_card,2022.2.4,MacIntel,58.82352941,64135be84e85d83aff484ef4,64ce5acb97489d65b14ecc7a,64cf495275e78ea91669569c,,,,,,,decisionTrl,resources/DY.BMP,resources/DG.BMP,Door1,0.278765201,-0.017305893,1,0,0,1.812,optionRight,30,1950,1,36,0,36,0,1,,,,,,,,,,,,,,,,,,,,,,,,,,,,,,,,,,,,,,,
,,,,,,,,2023-08-06_08h19.01.203,HF_wild_card,2022.2.4,MacIntel,58.82352941,64135be84e85d83aff484ef4,64ce5acb97489d65b14ecc7a,64cf495275e78ea91669569c,,,,,,,ctch,resources/DG.BMP,resources/DB.BMP,Door1,-0.226379794,0.003274088,1,0,0,1.312,optionLeft,30,1980,1,37,0,37,0,1,,,,,,,,,,,,,,,,,,,,,,,,,,,,,,,,,,,,,,,
,,,,,,,,2023-08-06_08h19.01.203,HF_wild_card,2022.2.4,MacIntel,58.82352941,64135be84e85d83aff484ef4,64ce5acb97489d65b14ecc7a,64cf495275e78ea91669569c,,,,,,,sngl,resources/DB.BMP,resources/Empty.png,Door4,-0.270346118,-0.025724977,1,0,0,0.677,optionLeft,80,2060,1,38,0,38,0,1,,,,,,,,,,,,,,,,,,,,,,,,,,,,,,,,,,,,,,,
,,,,,,,,2023-08-06_08h19.01.203,HF_wild_card,2022.2.4,MacIntel,58.82352941,64135be84e85d83aff484ef4,64ce5acb97489d65b14ecc7a,64cf495275e78ea91669569c,,,,,,,decisionTrl,resources/DP.BMP,resources/DB.BMP,Door3,-0.31898971,0.025724977,1,0,0,1.481,optionLeft,70,2130,1,39,0,39,0,1,,,,,,,,,,,,,,,,,,,,,,,,,,,,,,,,,,,,,,,
,,,,,,,,2023-08-06_08h19.01.203,HF_wild_card,2022.2.4,MacIntel,58.82352941,64135be84e85d83aff484ef4,64ce5acb97489d65b14ecc7a,64cf495275e78ea91669569c,,,,,,,decisionTrl,resources/DB.BMP,resources/DP.BMP,Door4,-0.579045837,-0.061272217,1,0,0,1.161,optionLeft,80,2210,1,40,0,40,0,1,,,,,,,,,,,,,,,,,,,,,,,,,,,,,,,,,,,,,,,
,,,,,,,,2023-08-06_08h19.01.203,HF_wild_card,2022.2.4,MacIntel,58.82352941,64135be84e85d83aff484ef4,64ce5acb97489d65b14ecc7a,64cf495275e78ea91669569c,,,,,,,sngl,resources/Empty.png,resources/DP.BMP,Door3,0.327408793,-0.02666043,1,0,0,0.912,optionRight,70,2280,1,41,0,41,0,1,,,,,,,,,,,,,,,,,,,,,,,,,,,,,,,,,,,,,,,
,,,,,,,,2023-08-06_08h19.01.203,HF_wild_card,2022.2.4,MacIntel,58.82352941,64135be84e85d83aff484ef4,64ce5acb97489d65b14ecc7a,64cf495275e78ea91669569c,,,,,,,decisionTrl,resources/DP.BMP,resources/DR.BMP,WildCard_Ex,0.35453695,-0.061272217,1,0,0,1.711,optionRight,95,2375,1,42,0,42,0,1,,,,,,,,,,,,,,,,,,,,,,,,,,,,,,,,,,,,,,,
,,,,,,,,2023-08-06_08h19.01.203,HF_wild_card,2022.2.4,MacIntel,58.82352941,64135be84e85d83aff484ef4,64ce5acb97489d65b14ecc7a,64cf495275e78ea91669569c,,,,,,,sngl,resources/DG.BMP,resources/Empty.png,Door1,-0.267539757,0.019176801,1,0,0,0.796,optionLeft,30,2405,1,43,0,43,0,1,,,,,,,,,,,,,,,,,,,,,,,,,,,,,,,,,,,,,,,
,,,,,,,,2023-08-06_08h19.01.203,HF_wild_card,2022.2.4,MacIntel,58.82352941,64135be84e85d83aff484ef4,64ce5acb97489d65b14ecc7a,64cf495275e78ea91669569c,,,,,,,,,,,,,,,,,,,,,,,,,,0,0,0,0,1,,,,,,,,,,,,,,,,,,,,,,,,,,,,,,,,,,
,,,,,,,,2023-08-06_08h19.01.203,HF_wild_card,2022.2.4,MacIntel,58.82352941,64135be84e85d83aff484ef4,64ce5acb97489d65b14ecc7a,64cf495275e78ea91669569c,,,,,,,decisionTrl,resources/DR.BMP,resources/DY.BMP,WildCard_Ex,-0.364826941,-0.108044902,1,0,0,1.104,optionLeft,5,2410,2,0,0,0,0,1,,,,,,,,,,,,,,,,,,,,,,,,,,,,,,,,,,,,,,,
,,,,,,,,2023-08-06_08h19.01.203,HF_wild_card,2022.2.4,MacIntel,58.82352941,64135be84e85d83aff484ef4,64ce5acb97489d65b14ecc7a,64cf495275e78ea91669569c,,,,,,,sngl,resources/Empty.png,resources/DR.BMP,WildCard_Ex,0.349859682,-0.006080449,1,0,0,0.563,optionRight,95,2505,2,1,0,1,0,1,,,,,,,,,,,,,,,,,,,,,,,,,,,,,,,,,,,,,,,
,,,,,,,,2023-08-06_08h19.01.203,HF_wild_card,2022.2.4,MacIntel,58.82352941,64135be84e85d83aff484ef4,64ce5acb97489d65b14ecc7a,64cf495275e78ea91669569c,,,,,,,ctch,resources/DP.BMP,resources/DY.BMP,Door3,-0.338634238,0.047240412,1,0,0,1.363,optionLeft,70,2575,2,2,0,2,0,1,,,,,,,,,,,,,,,,,,,,,,,,,,,,,,,,,,,,,,,
,,,,,,,,2023-08-06_08h19.01.203,HF_wild_card,2022.2.4,MacIntel,58.82352941,64135be84e85d83aff484ef4,64ce5acb97489d65b14ecc7a,64cf495275e78ea91669569c,,,,,,,sngl,resources/Empty.png,resources/DP.BMP,Door3,0.303086997,0.027595884,1,0,0,0.727,optionRight,70,2645,2,3,0,3,0,1,,,,,,,,,,,,,,,,,,,,,,,,,,,,,,,,,,,,,,,
,,,,,,,,2023-08-06_08h19.01.203,HF_wild_card,2022.2.4,MacIntel,58.82352941,64135be84e85d83aff484ef4,64ce5acb97489d65b14ecc7a,64cf495275e78ea91669569c,,,,,,,decisionTrl,resources/DY.BMP,resources/DR.BMP,WildCard_Ex,0.243217961,-0.002338634,1,0,0,1.144,optionRight,5,2650,2,4,0,4,0,1,,,,,,,,,,,,,,,,,,,,,,,,,,,,,,,,,,,,,,,
,,,,,,,,2023-08-06_08h19.01.203,HF_wild_card,2022.2.4,MacIntel,58.82352941,64135be84e85d83aff484ef4,64ce5acb97489d65b14ecc7a,64cf495275e78ea91669569c,,,,,,,decisionTrl,resources/DB.BMP,resources/DR.BMP,Door4,-0.360149673,0.032273152,1,0,0,1.212,optionLeft,80,2730,2,5,0,5,0,1,,,,,,,,,,,,,,,,,,,,,,,,,,,,,,,,,,,,,,,
,,,,,,,,2023-08-06_08h19.01.203,HF_wild_card,2022.2.4,MacIntel,58.82352941,64135be84e85d83aff484ef4,64ce5acb97489d65b14ecc7a,64cf495275e78ea91669569c,,,,,,,sngl,resources/DR.BMP,resources/Empty.png,WildCard_Ex,-0.36202058,0.010757717,1,0,0,0.712,optionLeft,95,2825,2,6,0,6,0,1,,,,,,,,,,,,,,,,,,,,,,,,,,,,,,,,,,,,,,,
,,,,,,,,2023-08-06_08h19.01.203,HF_wild_card,2022.2.4,MacIntel,58.82352941,64135be84e85d83aff484ef4,64ce5acb97489d65b14ecc7a,64cf495275e78ea91669569c,,,,,,,sngl,resources/DY.BMP,resources/Empty.png,Door2,-0.259120674,0.024789523,1,0,0,1.244,optionLeft,20,2845,2,7,0,7,0,1,,,,,,,,,,,,,,,,,,,,,,,,,,,,,,,,,,,,,,,
,,,,,,,,2023-08-06_08h19.01.203,HF_wild_card,2022.2.4,MacIntel,58.82352941,64135be84e85d83aff484ef4,64ce5acb97489d65b14ecc7a,64cf495275e78ea91669569c,,,,,,,decisionTrl,resources/DG.BMP,resources/DY.BMP,Door1,-0.360149673,-0.001403181,1,0,0,1.078,optionLeft,30,2875,2,8,0,8,0,1,,,,,,,,,,,,,,,,,,,,,,,,,,,,,,,,,,,,,,,
,,,,,,,,2023-08-06_08h19.01.203,HF_wild_card,2022.2.4,MacIntel,58.82352941,64135be84e85d83aff484ef4,64ce5acb97489d65b14ecc7a,64cf495275e78ea91669569c,,,,,,,decisionTrl,resources/DP.BMP,resources/DB.BMP,Door3,-0.362956034,0.057530402,1,0,0,0.778,optionLeft,70,2945,2,9,0,9,0,1,,,,,,,,,,,,,,,,,,,,,,,,,,,,,,,,,,,,,,,
,,,,,,,,2023-08-06_08h19.01.203,HF_wild_card,2022.2.4,MacIntel,58.82352941,64135be84e85d83aff484ef4,64ce5acb97489d65b14ecc7a,64cf495275e78ea91669569c,,,,,,,sngl,resources/Empty.png,resources/DY.BMP,Door2,0.231057063,0.005144995,1,0,0,0.728,optionRight,40,2985,2,10,0,10,0,1,,,,,,,,,,,,,,,,,,,,,,,,,,,,,,,,,,,,,,,
,,,,,,,,2023-08-06_08h19.01.203,HF_wild_card,2022.2.4,MacIntel,58.82352941,64135be84e85d83aff484ef4,64ce5acb97489d65b14ecc7a,64cf495275e78ea91669569c,,,,,,,ctch,resources/DY.BMP,resources/DP.BMP,Door3,0.410664172,0.010757717,1,0,0,0.962,optionRight,70,3055,2,11,0,11,0,1,,,,,,,,,,,,,,,,,,,,,,,,,,,,,,,,,,,,,,,
,,,,,,,,2023-08-06_08h19.01.203,HF_wild_card,2022.2.4,MacIntel,58.82352941,64135be84e85d83aff484ef4,64ce5acb97489d65b14ecc7a,64cf495275e78ea91669569c,,,,,,,sngl,resources/DG.BMP,resources/Empty.png,Door1,-0.42282507,0.019176801,1,0,0,0.646,optionLeft,30,3085,2,12,0,12,0,1,,,,,,,,,,,,,,,,,,,,,,,,,,,,,,,,,,,,,,,
,,,,,,,,2023-08-06_08h19.01.203,HF_wild_card,2022.2.4,MacIntel,58.82352941,64135be84e85d83aff484ef4,64ce5acb97489d65b14ecc7a,64cf495275e78ea91669569c,,,,,,,decisionTrl,resources/DY.BMP,resources/DG.BMP,Door1,0.270346118,0.021047708,1,0,0,2.128,optionRight,30,3115,2,13,0,13,0,1,,,,,,,,,,,,,,,,,,,,,,,,,,,,,,,,,,,,,,,
,,,,,,,,2023-08-06_08h19.01.203,HF_wild_card,2022.2.4,MacIntel,58.82352941,64135be84e85d83aff484ef4,64ce5acb97489d65b14ecc7a,64cf495275e78ea91669569c,,,,,,,decisionTrl,resources/DP.BMP,resources/DB.BMP,Door3,-0.277829747,0.009822264,1,0,0,0.812,optionLeft,70,3185,2,14,0,14,0,1,,,,,,,,,,,,,,,,,,,,,,,,,,,,,,,,,,,,,,,
,,,,,,,,2023-08-06_08h19.01.203,HF_wild_card,2022.2.4,MacIntel,58.82352941,64135be84e85d83aff484ef4,64ce5acb97489d65b14ecc7a,64cf495275e78ea91669569c,,,,,,,ctch,resources/DG.BMP,resources/DB.BMP,Door4,0.237605239,-0.001403181,1,0,0,1.094,optionRight,80,3265,2,15,0,15,0,1,,,,,,,,,,,,,,,,,,,,,,,,,,,,,,,,,,,,,,,
,,,,,,,,2023-08-06_08h19.01.203,HF_wild_card,2022.2.4,MacIntel,58.82352941,64135be84e85d83aff484ef4,64ce5acb97489d65b14ecc7a,64cf495275e78ea91669569c,,,,,,,decisionTrl,resources/DY.BMP,resources/DG.BMP,Door1,0.199251637,-0.005144995,1,0,0,1.178,optionRight,30,3295,2,16,0,16,0,1,,,,,,,,,,,,,,,,,,,,,,,,,,,,,,,,,,,,,,,
,,,,,,,,2023-08-06_08h19.01.203,HF_wild_card,2022.2.4,MacIntel,58.82352941,64135be84e85d83aff484ef4,64ce5acb97489d65b14ecc7a,64cf495275e78ea91669569c,,,,,,,ctch,resources/DP.BMP,resources/DY.BMP,Door3,-0.355472404,0.049111319,1,0,0,0.86,optionLeft,70,3365,2,17,0,17,0,1,,,,,,,,,,,,,,,,,,,,,,,,,,,,,,,,,,,,,,,
,,,,,,,,2023-08-06_08h19.01.203,HF_wild_card,2022.2.4,MacIntel,58.82352941,64135be84e85d83aff484ef4,64ce5acb97489d65b14ecc7a,64cf495275e78ea91669569c,,,,,,,decisionTrl,resources/DB.BMP,resources/DP.BMP,Door4,-0.479887746,0.065949486,1,0,0,4.628,optionLeft,80,3445,2,18,0,18,0,1,,,,,,,,,,,,,,,,,,,,,,,,,,,,,,,,,,,,,,,
,,,,,,,,2023-08-06_08h19.01.203,HF_wild_card,2022.2.4,MacIntel,58.82352941,64135be84e85d83aff484ef4,64ce5acb97489d65b14ecc7a,64cf495275e78ea91669569c,,,,,,,decisionTrl,resources/DP.BMP,resources/DB.BMP,Door4,0.391955098,-0.046304958,1,0,0,1.512,optionRight,80,3525,2,19,0,19,0,1,,,,,,,,,,,,,,,,,,,,,,,,,,,,,,,,,,,,,,,
,,,,,,,,2023-08-06_08h19.01.203,HF_wild_card,2022.2.4,MacIntel,58.82352941,64135be84e85d83aff484ef4,64ce5acb97489d65b14ecc7a,64cf495275e78ea91669569c,,,,,,,decisionTrl,resources/DP.BMP,resources/DR.BMP,WildCard_Ex,0.415341441,0.045369504,1,0,0,1.161,optionRight,95,3620,2,20,0,20,0,1,,,,,,,,,,,,,,,,,,,,,,,,,,,,,,,,,,,,,,,
,,,,,,,,2023-08-06_08h19.01.203,HF_wild_card,2022.2.4,MacIntel,58.82352941,64135be84e85d83aff484ef4,64ce5acb97489d65b14ecc7a,64cf495275e78ea91669569c,,,,,,,decisionTrl,resources/DG.BMP,resources/DR.BMP,WildCard_Ex,0.518241347,0.040692236,1,0,0,0.677,optionRight,95,3715,2,21,0,21,0,1,,,,,,,,,,,,,,,,,,,,,,,,,,,,,,,,,,,,,,,
,,,,,,,,2023-08-06_08h19.01.203,HF_wild_card,2022.2.4,MacIntel,58.82352941,64135be84e85d83aff484ef4,64ce5acb97489d65b14ecc7a,64cf495275e78ea91669569c,,,,,,,decisionTrl,resources/DY.BMP,resources/DG.BMP,Door2,-0.383536015,-0.094013096,1,0,0,2.611,optionLeft,20,3735,2,22,0,22,0,1,,,,,,,,,,,,,,,,,,,,,,,,,,,,,,,,,,,,,,,
,,,,,,,,2023-08-06_08h19.01.203,HF_wild_card,2022.2.4,MacIntel,58.82352941,64135be84e85d83aff484ef4,64ce5acb97489d65b14ecc7a,64cf495275e78ea91669569c,,,,,,,decisionTrl,resources/DB.BMP,resources/DP.BMP,Door3,0.348924228,-0.013564079,1,0,0,0.776,optionRight,70,3805,2,23,0,23,0,1,,,,,,,,,,,,,,,,,,,,,,,,,,,,,,,,,,,,,,,
,,,,,,,,2023-08-06_08h19.01.203,HF_wild_card,2022.2.4,MacIntel,58.82352941,64135be84e85d83aff484ef4,64ce5acb97489d65b14ecc7a,64cf495275e78ea91669569c,,,,,,,decisionTrl,resources/DB.BMP,resources/DP.BMP,Door4,-0.382600561,-0.015434986,1,0,0,0.594,optionLeft,60,3865,2,24,0,24,0,1,,,,,,,,,,,,,,,,,,,,,,,,,,,,,,,,,,,,,,,
,,,,,,,,2023-08-06_08h19.01.203,HF_wild_card,2022.2.4,MacIntel,58.82352941,64135be84e85d83aff484ef4,64ce5acb97489d65b14ecc7a,64cf495275e78ea91669569c,,,,,,,sngl,resources/Empty.png,resources/DB.BMP,Door4,0.20767072,0.001403181,1,0,0,0.694,optionRight,80,3945,2,25,0,25,0,1,,,,,,,,,,,,,,,,,,,,,,,,,,,,,,,,,,,,,,,
,,,,,,,,2023-08-06_08h19.01.203,HF_wild_card,2022.2.4,MacIntel,58.82352941,64135be84e85d83aff484ef4,64ce5acb97489d65b14ecc7a,64cf495275e78ea91669569c,,,,,,,decisionTrl,resources/DP.BMP,resources/DB.BMP,Door4,0.668849392,0.007015903,1,0,0,1.511,optionRight,60,4005,2,26,0,26,0,1,,,,,,,,,,,,,,,,,,,,,,,,,,,,,,,,,,,,,,,
,,,,,,,,2023-08-06_08h19.01.203,HF_wild_card,2022.2.4,MacIntel,58.82352941,64135be84e85d83aff484ef4,64ce5acb97489d65b14ecc7a,64cf495275e78ea91669569c,,,,,,,decisionTrl,resources/DG.BMP,resources/DY.BMP,Door1,-0.509822264,-0.021983162,1,0,0,1.527,optionLeft,30,4035,2,27,0,27,0,1,,,,,,,,,,,,,,,,,,,,,,,,,,,,,,,,,,,,,,,
,,,,,,,,2023-08-06_08h19.01.203,HF_wild_card,2022.2.4,MacIntel,58.82352941,64135be84e85d83aff484ef4,64ce5acb97489d65b14ecc7a,64cf495275e78ea91669569c,,,,,,,decisionTrl,resources/DG.BMP,resources/DY.BMP,Door1,-0.256314312,0.019176801,1,0,0,1.059,optionLeft,30,4065,2,28,0,28,0,1,,,,,,,,,,,,,,,,,,,,,,,,,,,,,,,,,,,,,,,
,,,,,,,,2023-08-06_08h19.01.203,HF_wild_card,2022.2.4,MacIntel,58.82352941,64135be84e85d83aff484ef4,64ce5acb97489d65b14ecc7a,64cf495275e78ea91669569c,,,,,,,decisionTrl,resources/DG.BMP,resources/DY.BMP,Door1,-0.446211413,0.027595884,1,0,0,0.681,optionLeft,30,4095,2,29,0,29,0,1,,,,,,,,,,,,,,,,,,,,,,,,,,,,,,,,,,,,,,,
,,,,,,,,2023-08-06_08h19.01.203,HF_wild_card,2022.2.4,MacIntel,58.82352941,64135be84e85d83aff484ef4,64ce5acb97489d65b14ecc7a,64cf495275e78ea91669569c,,,,,,,decisionTrl,resources/DB.BMP,resources/DP.BMP,Door4,-0.420018709,0.073433115,1,0,0,1.928,optionLeft,80,4175,2,30,0,30,0,1,,,,,,,,,,,,,,,,,,,,,,,,,,,,,,,,,,,,,,,
,,,,,,,,2023-08-06_08h19.01.203,HF_wild_card,2022.2.4,MacIntel,58.82352941,64135be84e85d83aff484ef4,64ce5acb97489d65b14ecc7a,64cf495275e78ea91669569c,,,,,,,ctch,resources/DY.BMP,resources/DP.BMP,Door3,0.30121609,-0.01637044,1,0,0,1.045,optionRight,70,4245,2,31,0,31,0,1,,,,,,,,,,,,,,,,,,,,,,,,,,,,,,,,,,,,,,,
,,,,,,,,2023-08-06_08h19.01.203,HF_wild_card,2022.2.4,MacIntel,58.82352941,64135be84e85d83aff484ef4,64ce5acb97489d65b14ecc7a,64cf495275e78ea91669569c,,,,,,,ctch,resources/DG.BMP,resources/DB.BMP,Door4,0.31150608,0.004209542,1,0,0,0.81,optionRight,60,4305,2,32,0,32,0,1,,,,,,,,,,,,,,,,,,,,,,,,,,,,,,,,,,,,,,,
,,,,,,,,2023-08-06_08h19.01.203,HF_wild_card,2022.2.4,MacIntel,58.82352941,64135be84e85d83aff484ef4,64ce5acb97489d65b14ecc7a,64cf495275e78ea91669569c,,,,,,,ctch,resources/DB.BMP,resources/DG.BMP,Door4,-0.282507016,0.004209542,1,0,0,0.913,optionLeft,60,4365,2,33,0,33,0,1,,,,,,,,,,,,,,,,,,,,,,,,,,,,,,,,,,,,,,,
,,,,,,,,2023-08-06_08h19.01.203,HF_wild_card,2022.2.4,MacIntel,58.82352941,64135be84e85d83aff484ef4,64ce5acb97489d65b14ecc7a,64cf495275e78ea91669569c,,,,,,,decisionTrl,resources/DR.BMP,resources/DP.BMP,WildCard_Ex,-0.303086997,0.01637044,1,0,0,0.845,optionLeft,5,4370,2,34,0,34,0,1,,,,,,,,,,,,,,,,,,,,,,,,,,,,,,,,,,,,,,,
,,,,,,,,2023-08-06_08h19.01.203,HF_wild_card,2022.2.4,MacIntel,58.82352941,64135be84e85d83aff484ef4,64ce5acb97489d65b14ecc7a,64cf495275e78ea91669569c,,,,,,,decisionTrl,resources/DR.BMP,resources/DB.BMP,WildCard_Ex,-0.185219832,0.031337699,1,0,0,2.529,optionLeft,5,4375,2,35,0,35,0,1,,,,,,,,,,,,,,,,,,,,,,,,,,,,,,,,,,,,,,,
,,,,,,,,2023-08-06_08h19.01.203,HF_wild_card,2022.2.4,MacIntel,58.82352941,64135be84e85d83aff484ef4,64ce5acb97489d65b14ecc7a,64cf495275e78ea91669569c,,,,,,,sngl,resources/DP.BMP,resources/Empty.png,Door3,-0.331150608,0.004209542,1,0,0,0.713,optionLeft,70,4445,2,36,0,36,0,1,,,,,,,,,,,,,,,,,,,,,,,,,,,,,,,,,,,,,,,
,,,,,,,,2023-08-06_08h19.01.203,HF_wild_card,2022.2.4,MacIntel,58.82352941,64135be84e85d83aff484ef4,64ce5acb97489d65b14ecc7a,64cf495275e78ea91669569c,,,,,,,decisionTrl,resources/DY.BMP,resources/DG.BMP,Door1,0.367633302,0.060336763,1,0,0,6.945,optionRight,30,4475,2,37,0,37,0,1,,,,,,,,,,,,,,,,,,,,,,,,,,,,,,,,,,,,,,,
,,,,,,,,2023-08-06_08h19.01.203,HF_wild_card,2022.2.4,MacIntel,58.82352941,64135be84e85d83aff484ef4,64ce5acb97489d65b14ecc7a,64cf495275e78ea91669569c,,,,,,,sngl,resources/DB.BMP,resources/Empty.png,Door4,-0.296538821,-0.015434986,1,0,0,0.662,optionLeft,60,4535,2,38,0,38,0,1,,,,,,,,,,,,,,,,,,,,,,,,,,,,,,,,,,,,,,,
,,,,,,,,2023-08-06_08h19.01.203,HF_wild_card,2022.2.4,MacIntel,58.82352941,64135be84e85d83aff484ef4,64ce5acb97489d65b14ecc7a,64cf495275e78ea91669569c,,,,,,,ctch,resources/DB.BMP,resources/DG.BMP,Door4,-0.380729654,0.007015903,1,0,0,1.212,optionLeft,80,4615,2,39,0,39,0,1,,,,,,,,,,,,,,,,,,,,,,,,,,,,,,,,,,,,,,,
,,,,,,,,2023-08-06_08h19.01.203,HF_wild_card,2022.2.4,MacIntel,58.82352941,64135be84e85d83aff484ef4,64ce5acb97489d65b14ecc7a,64cf495275e78ea91669569c,,,,,,,sngl,resources/Empty.png,resources/DG.BMP,Door1,0.282507016,-0.017305893,1,0,0,0.894,optionRight,30,4645,2,40,0,40,0,1,,,,,,,,,,,,,,,,,,,,,,,,,,,,,,,,,,,,,,,
,,,,,,,,2023-08-06_08h19.01.203,HF_wild_card,2022.2.4,MacIntel,58.82352941,64135be84e85d83aff484ef4,64ce5acb97489d65b14ecc7a,64cf495275e78ea91669569c,,,,,,,sngl,resources/Empty.png,resources/DR.BMP,WildCard_Ex,0.294667914,0.011693171,1,0,0,0.729,optionRight,5,4650,2,41,0,41,0,1,,,,,,,,,,,,,,,,,,,,,,,,,,,,,,,,,,,,,,,
,,,,,,,,2023-08-06_08h19.01.203,HF_wild_card,2022.2.4,MacIntel,58.82352941,64135be84e85d83aff484ef4,64ce5acb97489d65b14ecc7a,64cf495275e78ea91669569c,,,,,,,decisionTrl,resources/DR.BMP,resources/DG.BMP,WildCard_Ex,-0.361085126,-0.005144995,1,0,0,1.378,optionLeft,95,4745,2,42,0,42,0,1,,,,,,,,,,,,,,,,,,,,,,,,,,,,,,,,,,,,,,,
,,,,,,,,2023-08-06_08h19.01.203,HF_wild_card,2022.2.4,MacIntel,58.82352941,64135be84e85d83aff484ef4,64ce5acb97489d65b14ecc7a,64cf495275e78ea91669569c,,,,,,,sngl,resources/DR.BMP,resources/Empty.png,WildCard_Ex,-0.337698784,0.019176801,1,0,0,0.661,optionLeft,5,4750,2,43,0,43,0,1,,,,,,,,,,,,,,,,,,,,,,,,,,,,,,,,,,,,,,,
,,,,,,,,2023-08-06_08h19.01.203,HF_wild_card,2022.2.4,MacIntel,58.82352941,64135be84e85d83aff484ef4,64ce5acb97489d65b14ecc7a,64cf495275e78ea91669569c,,,,,,,,,,,,,,,,,,,,,,,,,,1,0,1,0,1,,,,,,,,,,,,,,,,,,,,,,,,,,,,,,,,,,
,,,,,,,,2023-08-06_08h19.01.203,HF_wild_card,2022.2.4,MacIntel,58.82352941,64135be84e85d83aff484ef4,64ce5acb97489d65b14ecc7a,64cf495275e78ea91669569c,,,,,,,decisionTrl,resources/DY.BMP,resources/DG.BMP,Door1,0.298409729,-0.111786717,1,0,0,1.642,optionRight,30,4780,3,0,0,0,0,1,,,,,,,,,,,,,,,,,,,,,,,,,,,,,,,,,,,,,,,
,,,,,,,,2023-08-06_08h19.01.203,HF_wild_card,2022.2.4,MacIntel,58.82352941,64135be84e85d83aff484ef4,64ce5acb97489d65b14ecc7a,64cf495275e78ea91669569c,,,,,,,decisionTrl,resources/DP.BMP,resources/DB.BMP,Door3,-0.328344247,0.076239476,1,0,0,0.728,optionLeft,70,4850,3,1,0,1,0,1,,,,,,,,,,,,,,,,,,,,,,,,,,,,,,,,,,,,,,,
,,,,,,,,2023-08-06_08h19.01.203,HF_wild_card,2022.2.4,MacIntel,58.82352941,64135be84e85d83aff484ef4,64ce5acb97489d65b14ecc7a,64cf495275e78ea91669569c,,,,,,,decisionTrl,resources/DY.BMP,resources/DG.BMP,Door1,0.247895229,0.021047708,1,0,0,1.546,optionRight,30,4880,3,2,0,2,0,1,,,,,,,,,,,,,,,,,,,,,,,,,,,,,,,,,,,,,,,
,,,,,,,,2023-08-06_08h19.01.203,HF_wild_card,2022.2.4,MacIntel,58.82352941,64135be84e85d83aff484ef4,64ce5acb97489d65b14ecc7a,64cf495275e78ea91669569c,,,,,,,sngl,resources/Empty.png,resources/DR.BMP,WildCard_Ex,0.329279701,0.039756782,1,0,0,0.692,optionRight,95,4975,3,3,0,3,0,1,,,,,,,,,,,,,,,,,,,,,,,,,,,,,,,,,,,,,,,
,,,,,,,,2023-08-06_08h19.01.203,HF_wild_card,2022.2.4,MacIntel,58.82352941,64135be84e85d83aff484ef4,64ce5acb97489d65b14ecc7a,64cf495275e78ea91669569c,,,,,,,sngl,resources/Empty.png,resources/DY.BMP,Door2,0.157156221,-0.000467727,1,0,0,0.897,optionRight,20,4995,3,4,0,4,0,1,,,,,,,,,,,,,,,,,,,,,,,,,,,,,,,,,,,,,,,
,,,,,,,,2023-08-06_08h19.01.203,HF_wild_card,2022.2.4,MacIntel,58.82352941,64135be84e85d83aff484ef4,64ce5acb97489d65b14ecc7a,64cf495275e78ea91669569c,,,,,,,decisionTrl,resources/DG.BMP,resources/DY.BMP,Door1,-0.350795136,0.036950421,1,0,0,0.712,optionLeft,30,5025,3,5,0,5,0,1,,,,,,,,,,,,,,,,,,,,,,,,,,,,,,,,,,,,,,,
,,,,,,,,2023-08-06_08h19.01.203,HF_wild_card,2022.2.4,MacIntel,58.82352941,64135be84e85d83aff484ef4,64ce5acb97489d65b14ecc7a,64cf495275e78ea91669569c,,,,,,,ctch,resources/DY.BMP,resources/DP.BMP,Door3,0.364826941,-0.000467727,1,0,0,0.759,optionRight,70,5095,3,6,0,6,0,1,,,,,,,,,,,,,,,,,,,,,,,,,,,,,,,,,,,,,,,
,,,,,,,,2023-08-06_08h19.01.203,HF_wild_card,2022.2.4,MacIntel,58.82352941,64135be84e85d83aff484ef4,64ce5acb97489d65b14ecc7a,64cf495275e78ea91669569c,,,,,,,decisionTrl,resources/DB.BMP,resources/DP.BMP,Door3,0.205799813,0.017305893,1,0,0,2.627,optionRight,70,5165,3,7,0,7,0,1,,,,,,,,,,,,,,,,,,,,,,,,,,,,,,,,,,,,,,,
,,,,,,,,2023-08-06_08h19.01.203,HF_wild_card,2022.2.4,MacIntel,58.82352941,64135be84e85d83aff484ef4,64ce5acb97489d65b14ecc7a,64cf495275e78ea91669569c,,,,,,,ctch,resources/DP.BMP,resources/DY.BMP,Door3,-0.521983162,0.00888681,1,0,0,0.645,optionLeft,70,5235,3,8,0,8,0,1,,,,,,,,,,,,,,,,,,,,,,,,,,,,,,,,,,,,,,,
,,,,,,,,2023-08-06_08h19.01.203,HF_wild_card,2022.2.4,MacIntel,58.82352941,64135be84e85d83aff484ef4,64ce5acb97489d65b14ecc7a,64cf495275e78ea91669569c,,,,,,,decisionTrl,resources/DG.BMP,resources/DY.BMP,Door2,0.42282507,0.002338634,1,0,0,1.663,optionRight,40,5275,3,9,0,9,0,1,,,,,,,,,,,,,,,,,,,,,,,,,,,,,,,,,,,,,,,
,,,,,,,,2023-08-06_08h19.01.203,HF_wild_card,2022.2.4,MacIntel,58.82352941,64135be84e85d83aff484ef4,64ce5acb97489d65b14ecc7a,64cf495275e78ea91669569c,,,,,,,decisionTrl,resources/DG.BMP,resources/DY.BMP,Door2,0.420954163,0.029466791,1,0,0,0.729,optionRight,40,5315,3,10,0,10,0,1,,,,,,,,,,,,,,,,,,,,,,,,,,,,,,,,,,,,,,,
,,,,,,,,2023-08-06_08h19.01.203,HF_wild_card,2022.2.4,MacIntel,58.82352941,64135be84e85d83aff484ef4,64ce5acb97489d65b14ecc7a,64cf495275e78ea91669569c,,,,,,,decisionTrl,resources/DP.BMP,resources/DB.BMP,Door4,0.340505145,-0.007951356,1,0,0,1.346,optionRight,80,5395,3,11,0,11,0,1,,,,,,,,,,,,,,,,,,,,,,,,,,,,,,,,,,,,,,,
,,,,,,,,2023-08-06_08h19.01.203,HF_wild_card,2022.2.4,MacIntel,58.82352941,64135be84e85d83aff484ef4,64ce5acb97489d65b14ecc7a,64cf495275e78ea91669569c,,,,,,,decisionTrl,resources/DR.BMP,resources/DP.BMP,WildCard_Ex,-0.478952292,0.037885875,1,0,0,1.045,optionLeft,5,5400,3,12,0,12,0,1,,,,,,,,,,,,,,,,,,,,,,,,,,,,,,,,,,,,,,,
,,,,,,,,2023-08-06_08h19.01.203,HF_wild_card,2022.2.4,MacIntel,58.82352941,64135be84e85d83aff484ef4,64ce5acb97489d65b14ecc7a,64cf495275e78ea91669569c,,,,,,,sngl,resources/DP.BMP,resources/Empty.png,Door3,-0.294667914,0.031337699,1,0,0,0.713,optionLeft,70,5470,3,13,0,13,0,1,,,,,,,,,,,,,,,,,,,,,,,,,,,,,,,,,,,,,,,
,,,,,,,,2023-08-06_08h19.01.203,HF_wild_card,2022.2.4,MacIntel,58.82352941,64135be84e85d83aff484ef4,64ce5acb97489d65b14ecc7a,64cf495275e78ea91669569c,,,,,,,sngl,resources/Empty.png,resources/DB.BMP,Door4,0.383536015,0.055659495,1,0,0,0.66,optionRight,60,5530,3,14,0,14,0,1,,,,,,,,,,,,,,,,,,,,,,,,,,,,,,,,,,,,,,,
,,,,,,,,2023-08-06_08h19.01.203,HF_wild_card,2022.2.4,MacIntel,58.82352941,64135be84e85d83aff484ef4,64ce5acb97489d65b14ecc7a,64cf495275e78ea91669569c,,,,,,,sngl,resources/Empty.png,resources/DP.BMP,Door3,0.282507016,0.017305893,1,0,0,0.694,optionRight,70,5600,3,15,0,15,0,1,,,,,,,,,,,,,,,,,,,,,,,,,,,,,,,,,,,,,,,
,,,,,,,,2023-08-06_08h19.01.203,HF_wild_card,2022.2.4,MacIntel,58.82352941,64135be84e85d83aff484ef4,64ce5acb97489d65b14ecc7a,64cf495275e78ea91669569c,,,,,,,decisionTrl,resources/DP.BMP,resources/DB.BMP,Door4,0.321796071,0.007951356,1,0,0,3.127,optionRight,80,5680,3,16,0,16,0,1,,,,,,,,,,,,,,,,,,,,,,,,,,,,,,,,,,,,,,,
,,,,,,,,2023-08-06_08h19.01.203,HF_wild_card,2022.2.4,MacIntel,58.82352941,64135be84e85d83aff484ef4,64ce5acb97489d65b14ecc7a,64cf495275e78ea91669569c,,,,,,,decisionTrl,resources/DR.BMP,resources/DB.BMP,Door4,0.416276894,-0.01637044,1,0,0,1.663,optionRight,60,5740,3,17,0,17,0,1,,,,,,,,,,,,,,,,,,,,,,,,,,,,,,,,,,,,,,,
,,,,,,,,2023-08-06_08h19.01.203,HF_wild_card,2022.2.4,MacIntel,58.82352941,64135be84e85d83aff484ef4,64ce5acb97489d65b14ecc7a,64cf495275e78ea91669569c,,,,,,,decisionTrl,resources/DP.BMP,resources/DB.BMP,Door4,0.332086062,0.010757717,1,0,0,1.429,optionRight,80,5820,3,18,0,18,0,1,,,,,,,,,,,,,,,,,,,,,,,,,,,,,,,,,,,,,,,
,,,,,,,,2023-08-06_08h19.01.203,HF_wild_card,2022.2.4,MacIntel,58.82352941,64135be84e85d83aff484ef4,64ce5acb97489d65b14ecc7a,64cf495275e78ea91669569c,,,,,,,sngl,resources/DR.BMP,resources/Empty.png,WildCard_Ex,-0.282507016,0.001403181,1,0,0,0.793,optionLeft,5,5825,3,19,0,19,0,1,,,,,,,,,,,,,,,,,,,,,,,,,,,,,,,,,,,,,,,
,,,,,,,,2023-08-06_08h19.01.203,HF_wild_card,2022.2.4,MacIntel,58.82352941,64135be84e85d83aff484ef4,64ce5acb97489d65b14ecc7a,64cf495275e78ea91669569c,,,,,,,sngl,resources/Empty.png,resources/DG.BMP,Door1,0.319925164,-0.00888681,1,0,0,0.763,optionRight,30,5855,3,20,0,20,0,1,,,,,,,,,,,,,,,,,,,,,,,,,,,,,,,,,,,,,,,
,,,,,,,,2023-08-06_08h19.01.203,HF_wild_card,2022.2.4,MacIntel,58.82352941,64135be84e85d83aff484ef4,64ce5acb97489d65b14ecc7a,64cf495275e78ea91669569c,,,,,,,decisionTrl,resources/DY.BMP,resources/DR.BMP,WildCard_Ex,0.487371375,-0.014499532,1,0,0,1.594,optionRight,95,5950,3,21,0,21,0,1,,,,,,,,,,,,,,,,,,,,,,,,,,,,,,,,,,,,,,,
,,,,,,,,2023-08-06_08h19.01.203,HF_wild_card,2022.2.4,MacIntel,58.82352941,64135be84e85d83aff484ef4,64ce5acb97489d65b14ecc7a,64cf495275e78ea91669569c,,,,,,,decisionTrl,resources/DB.BMP,resources/DR.BMP,Door4,-0.2404116,-0.00888681,1,0,0,1.761,optionLeft,80,6030,3,22,0,22,0,1,,,,,,,,,,,,,,,,,,,,,,,,,,,,,,,,,,,,,,,
,,,,,,,,2023-08-06_08h19.01.203,HF_wild_card,2022.2.4,MacIntel,58.82352941,64135be84e85d83aff484ef4,64ce5acb97489d65b14ecc7a,64cf495275e78ea91669569c,,,,,,,decisionTrl,resources/DY.BMP,resources/DG.BMP,Door2,-0.251637044,0.044434051,1,0,0,2.145,optionLeft,40,6070,3,23,0,23,0,1,,,,,,,,,,,,,,,,,,,,,,,,,,,,,,,,,,,,,,,
,,,,,,,,2023-08-06_08h19.01.203,HF_wild_card,2022.2.4,MacIntel,58.82352941,64135be84e85d83aff484ef4,64ce5acb97489d65b14ecc7a,64cf495275e78ea91669569c,,,,,,,ctch,resources/DP.BMP,resources/DY.BMP,Door3,-0.394761459,0.038821328,1,0,0,1.692,optionLeft,70,6140,3,24,0,24,0,1,,,,,,,,,,,,,,,,,,,,,,,,,,,,,,,,,,,,,,,
,,,,,,,,2023-08-06_08h19.01.203,HF_wild_card,2022.2.4,MacIntel,58.82352941,64135be84e85d83aff484ef4,64ce5acb97489d65b14ecc7a,64cf495275e78ea91669569c,,,,,,,ctch,resources/DY.BMP,resources/DP.BMP,Door3,0.533208606,-0.031337699,1,0,0,1.046,optionRight,70,6210,3,25,0,25,0,1,,,,,,,,,,,,,,,,,,,,,,,,,,,,,,,,,,,,,,,
,,,,,,,,2023-08-06_08h19.01.203,HF_wild_card,2022.2.4,MacIntel,58.82352941,64135be84e85d83aff484ef4,64ce5acb97489d65b14ecc7a,64cf495275e78ea91669569c,,,,,,,decisionTrl,resources/DR.BMP,resources/DY.BMP,Door2,0.280636109,0.012628625,1,0,0,2.345,optionRight,20,6230,3,26,0,26,0,1,,,,,,,,,,,,,,,,,,,,,,,,,,,,,,,,,,,,,,,
,,,,,,,,2023-08-06_08h19.01.203,HF_wild_card,2022.2.4,MacIntel,58.82352941,64135be84e85d83aff484ef4,64ce5acb97489d65b14ecc7a,64cf495275e78ea91669569c,,,,,,,ctch,resources/DB.BMP,resources/DG.BMP,Door4,-0.546304958,0.028531338,1,0,0,0.628,optionLeft,80,6310,3,27,0,27,0,1,,,,,,,,,,,,,,,,,,,,,,,,,,,,,,,,,,,,,,,
,,,,,,,,2023-08-06_08h19.01.203,HF_wild_card,2022.2.4,MacIntel,58.82352941,64135be84e85d83aff484ef4,64ce5acb97489d65b14ecc7a,64cf495275e78ea91669569c,,,,,,,sngl,resources/DY.BMP,resources/Empty.png,Door2,-0.290926099,0.029466791,1,0,0,0.644,optionLeft,40,6350,3,28,0,28,0,1,,,,,,,,,,,,,,,,,,,,,,,,,,,,,,,,,,,,,,,
,,,,,,,,2023-08-06_08h19.01.203,HF_wild_card,2022.2.4,MacIntel,58.82352941,64135be84e85d83aff484ef4,64ce5acb97489d65b14ecc7a,64cf495275e78ea91669569c,,,,,,,sngl,resources/DR.BMP,resources/Empty.png,WildCard_Ex,-0.303086997,0.021047708,1,0,0,0.648,optionLeft,95,6445,3,29,0,29,0,1,,,,,,,,,,,,,,,,,,,,,,,,,,,,,,,,,,,,,,,
,,,,,,,,2023-08-06_08h19.01.203,HF_wild_card,2022.2.4,MacIntel,58.82352941,64135be84e85d83aff484ef4,64ce5acb97489d65b14ecc7a,64cf495275e78ea91669569c,,,,,,,sngl,resources/DG.BMP,resources/Empty.png,Door1,-0.279700655,0.005144995,1,0,0,0.661,optionLeft,30,6475,3,30,0,30,0,1,,,,,,,,,,,,,,,,,,,,,,,,,,,,,,,,,,,,,,,
,,,,,,,,2023-08-06_08h19.01.203,HF_wild_card,2022.2.4,MacIntel,58.82352941,64135be84e85d83aff484ef4,64ce5acb97489d65b14ecc7a,64cf495275e78ea91669569c,,,,,,,ctch,resources/DG.BMP,resources/DB.BMP,Door4,0.205799813,0.001403181,1,0,0,1.144,optionRight,80,6555,3,31,0,31,0,1,,,,,,,,,,,,,,,,,,,,,,,,,,,,,,,,,,,,,,,
,,,,,,,,2023-08-06_08h19.01.203,HF_wild_card,2022.2.4,MacIntel,58.82352941,64135be84e85d83aff484ef4,64ce5acb97489d65b14ecc7a,64cf495275e78ea91669569c,,,,,,,decisionTrl,resources/DG.BMP,resources/DY.BMP,Door1,-0.287184284,0.043498597,1,0,0,1.363,optionLeft,30,6585,3,32,0,32,0,1,,,,,,,,,,,,,,,,,,,,,,,,,,,,,,,,,,,,,,,
,,,,,,,,2023-08-06_08h19.01.203,HF_wild_card,2022.2.4,MacIntel,58.82352941,64135be84e85d83aff484ef4,64ce5acb97489d65b14ecc7a,64cf495275e78ea91669569c,,,,,,,sngl,resources/Empty.png,resources/DR.BMP,WildCard_Ex,0.294667914,-0.030402245,1,0,0,0.628,optionRight,5,6590,3,33,0,33,0,1,,,,,,,,,,,,,,,,,,,,,,,,,,,,,,,,,,,,,,,
,,,,,,,,2023-08-06_08h19.01.203,HF_wild_card,2022.2.4,MacIntel,58.82352941,64135be84e85d83aff484ef4,64ce5acb97489d65b14ecc7a,64cf495275e78ea91669569c,,,,,,,decisionTrl,resources/DP.BMP,resources/DR.BMP,Door3,-0.32647334,0.006080449,1,0,0,1.044,optionLeft,70,6660,3,34,0,34,0,1,,,,,,,,,,,,,,,,,,,,,,,,,,,,,,,,,,,,,,,
,,,,,,,,2023-08-06_08h19.01.203,HF_wild_card,2022.2.4,MacIntel,58.82352941,64135be84e85d83aff484ef4,64ce5acb97489d65b14ecc7a,64cf495275e78ea91669569c,,,,,,,sngl,resources/DB.BMP,resources/Empty.png,Door4,-0.247895229,0.030402245,1,0,0,0.809,optionLeft,80,6740,3,35,0,35,0,1,,,,,,,,,,,,,,,,,,,,,,,,,,,,,,,,,,,,,,,
,,,,,,,,2023-08-06_08h19.01.203,HF_wild_card,2022.2.4,MacIntel,58.82352941,64135be84e85d83aff484ef4,64ce5acb97489d65b14ecc7a,64cf495275e78ea91669569c,,,,,,,decisionTrl,resources/DB.BMP,resources/DP.BMP,Door3,0.289990645,-0.036950421,1,0,0,2.214,optionRight,70,6810,3,36,0,36,0,1,,,,,,,,,,,,,,,,,,,,,,,,,,,,,,,,,,,,,,,
,,,,,,,,2023-08-06_08h19.01.203,HF_wild_card,2022.2.4,MacIntel,58.82352941,64135be84e85d83aff484ef4,64ce5acb97489d65b14ecc7a,64cf495275e78ea91669569c,,,,,,,decisionTrl,resources/DR.BMP,resources/DG.BMP,WildCard_Ex,-0.337698784,0.007951356,1,0,0,1.511,optionLeft,5,6815,3,37,0,37,0,1,,,,,,,,,,,,,,,,,,,,,,,,,,,,,,,,,,,,,,,
,,,,,,,,2023-08-06_08h19.01.203,HF_wild_card,2022.2.4,MacIntel,58.82352941,64135be84e85d83aff484ef4,64ce5acb97489d65b14ecc7a,64cf495275e78ea91669569c,,,,,,,decisionTrl,resources/DB.BMP,resources/DP.BMP,Door3,0.262862488,0.007015903,1,0,0,0.644,optionRight,70,6885,3,38,0,38,0,1,,,,,,,,,,,,,,,,,,,,,,,,,,,,,,,,,,,,,,,
,,,,,,,,2023-08-06_08h19.01.203,HF_wild_card,2022.2.4,MacIntel,58.82352941,64135be84e85d83aff484ef4,64ce5acb97489d65b14ecc7a,64cf495275e78ea91669569c,,,,,,,decisionTrl,resources/DB.BMP,resources/DP.BMP,Door3,0.178671656,0.000467727,1,0,0,1.947,optionRight,70,6955,3,39,0,39,0,1,,,,,,,,,,,,,,,,,,,,,,,,,,,,,,,,,,,,,,,
,,,,,,,,2023-08-06_08h19.01.203,HF_wild_card,2022.2.4,MacIntel,58.82352941,64135be84e85d83aff484ef4,64ce5acb97489d65b14ecc7a,64cf495275e78ea91669569c,,,,,,,ctch,resources/DB.BMP,resources/DG.BMP,Door4,-0.374181478,-0.007951356,1,0,0,1.475,optionLeft,80,7035,3,40,0,40,0,1,,,,,,,,,,,,,,,,,,,,,,,,,,,,,,,,,,,,,,,
,,,,,,,,2023-08-06_08h19.01.203,HF_wild_card,2022.2.4,MacIntel,58.82352941,64135be84e85d83aff484ef4,64ce5acb97489d65b14ecc7a,64cf495275e78ea91669569c,,,,,,,ctch,resources/DG.BMP,resources/DB.BMP,Door4,0.291861553,-0.021047708,1,0,0,1.212,optionRight,80,7115,3,41,0,41,0,1,,,,,,,,,,,,,,,,,,,,,,,,,,,,,,,,,,,,,,,
,,,,,,,,2023-08-06_08h19.01.203,HF_wild_card,2022.2.4,MacIntel,58.82352941,64135be84e85d83aff484ef4,64ce5acb97489d65b14ecc7a,64cf495275e78ea91669569c,,,,,,,decisionTrl,resources/DY.BMP,resources/DG.BMP,Door2,-0.505144995,0.005144995,1,0,0,2.477,optionLeft,40,7155,3,42,0,42,0,1,,,,,,,,,,,,,,,,,,,,,,,,,,,,,,,,,,,,,,,
,,,,,,,,2023-08-06_08h19.01.203,HF_wild_card,2022.2.4,MacIntel,58.82352941,64135be84e85d83aff484ef4,64ce5acb97489d65b14ecc7a,64cf495275e78ea91669569c,,,,,,,decisionTrl,resources/DG.BMP,resources/DR.BMP,Door1,-0.267539757,0.02666043,1,0,0,1.127,optionLeft,30,7185,3,43,0,43,0,1,,,,,,,,,,,,,,,,,,,,,,,,,,,,,,,,,,,,,,,
,,,,,,,,2023-08-06_08h19.01.203,HF_wild_card,2022.2.4,MacIntel,58.82352941,64135be84e85d83aff484ef4,64ce5acb97489d65b14ecc7a,64cf495275e78ea91669569c,,,,,,,,,,,,,,,,,,,,,,,,,,2,0,2,0,1,,,,,,,,,,,,,,,,,,,,,,,,,,,,,,,,,,
,,,,,,,,2023-08-06_08h19.01.203,HF_wild_card,2022.2.4,MacIntel,58.82352941,64135be84e85d83aff484ef4,64ce5acb97489d65b14ecc7a,64cf495275e78ea91669569c,,,,,,,decisionTrl,resources/DBN.BMP,resources/DP.BMP,WildCard_NonEx,-0.366697848,0.004209542,1,0,0,1.459,optionLeft,55,7240,4,0,0,0,0,1,,,,,,,,,,,,,,,,,,,,,,,,,,,,,,,,,,,,,,,
,,,,,,,,2023-08-06_08h19.01.203,HF_wild_card,2022.2.4,MacIntel,58.82352941,64135be84e85d83aff484ef4,64ce5acb97489d65b14ecc7a,64cf495275e78ea91669569c,,,,,,,decisionTrl,resources/DY.BMP,resources/DG.BMP,Door2,-0.535079514,0.050046773,1,0,0,2.212,optionLeft,40,7280,4,1,0,1,0,1,,,,,,,,,,,,,,,,,,,,,,,,,,,,,,,,,,,,,,,
,,,,,,,,2023-08-06_08h19.01.203,HF_wild_card,2022.2.4,MacIntel,58.82352941,64135be84e85d83aff484ef4,64ce5acb97489d65b14ecc7a,64cf495275e78ea91669569c,,,,,,,sngl,resources/Empty.png,resources/DY.BMP,Door2,0.351730589,0.002338634,1,0,0,0.678,optionRight,40,7320,4,2,0,2,0,1,,,,,,,,,,,,,,,,,,,,,,,,,,,,,,,,,,,,,,,
,,,,,,,,2023-08-06_08h19.01.203,HF_wild_card,2022.2.4,MacIntel,58.82352941,64135be84e85d83aff484ef4,64ce5acb97489d65b14ecc7a,64cf495275e78ea91669569c,,,,,,,decisionTrl,resources/DP.BMP,resources/DBN.BMP,WildCard_NonEx,0.433115061,0.05940131,1,0,0,1.813,optionRight,45,7365,4,3,0,3,0,1,,,,,,,,,,,,,,,,,,,,,,,,,,,,,,,,,,,,,,,
,,,,,,,,2023-08-06_08h19.01.203,HF_wild_card,2022.2.4,MacIntel,58.82352941,64135be84e85d83aff484ef4,64ce5acb97489d65b14ecc7a,64cf495275e78ea91669569c,,,,,,,decisionTrl,resources/DB.BMP,resources/DP.BMP,Door3,0.317118803,-0.004209542,1,0,0,1.428,optionRight,70,7435,4,4,0,4,0,1,,,,,,,,,,,,,,,,,,,,,,,,,,,,,,,,,,,,,,,
,,,,,,,,2023-08-06_08h19.01.203,HF_wild_card,2022.2.4,MacIntel,58.82352941,64135be84e85d83aff484ef4,64ce5acb97489d65b14ecc7a,64cf495275e78ea91669569c,,,,,,,ctch,resources/DP.BMP,resources/DY.BMP,Door3,-0.535079514,0.019176801,1,0,0,0.895,optionLeft,70,7505,4,5,0,5,0,1,,,,,,,,,,,,,,,,,,,,,,,,,,,,,,,,,,,,,,,
,,,,,,,,2023-08-06_08h19.01.203,HF_wild_card,2022.2.4,MacIntel,58.82352941,64135be84e85d83aff484ef4,64ce5acb97489d65b14ecc7a,64cf495275e78ea91669569c,,,,,,,ctch,resources/DP.BMP,resources/DY.BMP,Door3,-0.334892423,0.021983162,1,0,0,0.661,optionLeft,70,7575,4,6,0,6,0,1,,,,,,,,,,,,,,,,,,,,,,,,,,,,,,,,,,,,,,,
,,,,,,,,2023-08-06_08h19.01.203,HF_wild_card,2022.2.4,MacIntel,58.82352941,64135be84e85d83aff484ef4,64ce5acb97489d65b14ecc7a,64cf495275e78ea91669569c,,,,,,,sngl,resources/DB.BMP,resources/Empty.png,Door4,-0.391955098,0.056594949,1,0,0,0.597,optionLeft,60,7635,4,7,0,7,0,1,,,,,,,,,,,,,,,,,,,,,,,,,,,,,,,,,,,,,,,
,,,,,,,,2023-08-06_08h19.01.203,HF_wild_card,2022.2.4,MacIntel,58.82352941,64135be84e85d83aff484ef4,64ce5acb97489d65b14ecc7a,64cf495275e78ea91669569c,,,,,,,decisionTrl,resources/DP.BMP,resources/DB.BMP,Door3,-0.410664172,0.045369504,1,0,0,0.859,optionLeft,70,7705,4,8,0,8,0,1,,,,,,,,,,,,,,,,,,,,,,,,,,,,,,,,,,,,,,,
,,,,,,,,2023-08-06_08h19.01.203,HF_wild_card,2022.2.4,MacIntel,58.82352941,64135be84e85d83aff484ef4,64ce5acb97489d65b14ecc7a,64cf495275e78ea91669569c,,,,,,,sngl,resources/DBN.BMP,resources/Empty.png,WildCard_NonEx,-0.3797942,0.057530402,1,0,0,0.659,optionLeft,45,7750,4,9,0,9,0,1,,,,,,,,,,,,,,,,,,,,,,,,,,,,,,,,,,,,,,,
,,,,,,,,2023-08-06_08h19.01.203,HF_wild_card,2022.2.4,MacIntel,58.82352941,64135be84e85d83aff484ef4,64ce5acb97489d65b14ecc7a,64cf495275e78ea91669569c,,,,,,,decisionTrl,resources/DY.BMP,resources/DBN.BMP,WildCard_NonEx,0.317118803,-0.003274088,1,0,0,2.372,optionRight,55,7805,4,10,0,10,0,1,,,,,,,,,,,,,,,,,,,,,,,,,,,,,,,,,,,,,,,
,,,,,,,,2023-08-06_08h19.01.203,HF_wild_card,2022.2.4,MacIntel,58.82352941,64135be84e85d83aff484ef4,64ce5acb97489d65b14ecc7a,64cf495275e78ea91669569c,,,,,,,decisionTrl,resources/DP.BMP,resources/DB.BMP,Door3,-0.333021515,0.065949486,1,0,0,0.893,optionLeft,70,7875,4,11,0,11,0,1,,,,,,,,,,,,,,,,,,,,,,,,,,,,,,,,,,,,,,,
,,,,,,,,2023-08-06_08h19.01.203,HF_wild_card,2022.2.4,MacIntel,58.82352941,64135be84e85d83aff484ef4,64ce5acb97489d65b14ecc7a,64cf495275e78ea91669569c,,,,,,,decisionTrl,resources/DP.BMP,resources/DB.BMP,Door3,-0.403180543,0.027595884,1,0,0,0.745,optionLeft,70,7945,4,12,0,12,0,1,,,,,,,,,,,,,,,,,,,,,,,,,,,,,,,,,,,,,,,
,,,,,,,,2023-08-06_08h19.01.203,HF_wild_card,2022.2.4,MacIntel,58.82352941,64135be84e85d83aff484ef4,64ce5acb97489d65b14ecc7a,64cf495275e78ea91669569c,,,,,,,decisionTrl,resources/DB.BMP,resources/DP.BMP,Door3,0.458372311,0.02666043,1,0,0,0.71,optionRight,70,8015,4,13,0,13,0,1,,,,,,,,,,,,,,,,,,,,,,,,,,,,,,,,,,,,,,,
,,,,,,,,2023-08-06_08h19.01.203,HF_wild_card,2022.2.4,MacIntel,58.82352941,64135be84e85d83aff484ef4,64ce5acb97489d65b14ecc7a,64cf495275e78ea91669569c,,,,,,,ctch,resources/DG.BMP,resources/DB.BMP,Door4,0.453695042,-0.027595884,1,0,0,1.348,optionRight,60,8075,4,14,0,14,0,1,,,,,,,,,,,,,,,,,,,,,,,,,,,,,,,,,,,,,,,
,,,,,,,,2023-08-06_08h19.01.203,HF_wild_card,2022.2.4,MacIntel,58.82352941,64135be84e85d83aff484ef4,64ce5acb97489d65b14ecc7a,64cf495275e78ea91669569c,,,,,,,decisionTrl,resources/DG.BMP,resources/DY.BMP,Door1,-0.393826006,-0.014499532,1,0,0,0.795,optionLeft,30,8105,4,15,0,15,0,1,,,,,,,,,,,,,,,,,,,,,,,,,,,,,,,,,,,,,,,
,,,,,,,,2023-08-06_08h19.01.203,HF_wild_card,2022.2.4,MacIntel,58.82352941,64135be84e85d83aff484ef4,64ce5acb97489d65b14ecc7a,64cf495275e78ea91669569c,,,,,,,sngl,resources/Empty.png,resources/DBN.BMP,WildCard_NonEx,0.330215154,0.017305893,1,0,0,0.762,optionRight,55,8160,4,16,0,16,0,1,,,,,,,,,,,,,,,,,,,,,,,,,,,,,,,,,,,,,,,
,,,,,,,,2023-08-06_08h19.01.203,HF_wild_card,2022.2.4,MacIntel,58.82352941,64135be84e85d83aff484ef4,64ce5acb97489d65b14ecc7a,64cf495275e78ea91669569c,,,,,,,decisionTrl,resources/DBN.BMP,resources/DG.BMP,WildCard_NonEx,-0.288119738,0.039756782,1,0,0,0.761,optionLeft,55,8215,4,17,0,17,0,1,,,,,,,,,,,,,,,,,,,,,,,,,,,,,,,,,,,,,,,
,,,,,,,,2023-08-06_08h19.01.203,HF_wild_card,2022.2.4,MacIntel,58.82352941,64135be84e85d83aff484ef4,64ce5acb97489d65b14ecc7a,64cf495275e78ea91669569c,,,,,,,sngl,resources/Empty.png,resources/DG.BMP,Door1,0.376987839,0.043498597,1,0,0,0.661,optionRight,30,8245,4,18,0,18,0,1,,,,,,,,,,,,,,,,,,,,,,,,,,,,,,,,,,,,,,,
,,,,,,,,2023-08-06_08h19.01.203,HF_wild_card,2022.2.4,MacIntel,58.82352941,64135be84e85d83aff484ef4,64ce5acb97489d65b14ecc7a,64cf495275e78ea91669569c,,,,,,,ctch,resources/DY.BMP,resources/DP.BMP,Door3,0.48362956,0.010757717,1,0,0,1.196,optionRight,70,8315,4,19,0,19,0,1,,,,,,,,,,,,,,,,,,,,,,,,,,,,,,,,,,,,,,,
,,,,,,,,2023-08-06_08h19.01.203,HF_wild_card,2022.2.4,MacIntel,58.82352941,64135be84e85d83aff484ef4,64ce5acb97489d65b14ecc7a,64cf495275e78ea91669569c,,,,,,,decisionTrl,resources/DY.BMP,resources/DG.BMP,Door2,-0.356407858,0.036950421,1,0,0,0.945,optionLeft,40,8355,4,20,0,20,0,1,,,,,,,,,,,,,,,,,,,,,,,,,,,,,,,,,,,,,,,
,,,,,,,,2023-08-06_08h19.01.203,HF_wild_card,2022.2.4,MacIntel,58.82352941,64135be84e85d83aff484ef4,64ce5acb97489d65b14ecc7a,64cf495275e78ea91669569c,,,,,,,sngl,resources/DY.BMP,resources/Empty.png,Door2,-0.230121609,0.001403181,1,0,0,0.679,optionLeft,20,8375,4,21,0,21,0,1,,,,,,,,,,,,,,,,,,,,,,,,,,,,,,,,,,,,,,,
,,,,,,,,2023-08-06_08h19.01.203,HF_wild_card,2022.2.4,MacIntel,58.82352941,64135be84e85d83aff484ef4,64ce5acb97489d65b14ecc7a,64cf495275e78ea91669569c,,,,,,,decisionTrl,resources/DP.BMP,resources/DB.BMP,Door3,-0.249766137,0.036014967,1,0,0,1.045,optionLeft,70,8445,4,22,0,22,0,1,,,,,,,,,,,,,,,,,,,,,,,,,,,,,,,,,,,,,,,
,,,,,,,,2023-08-06_08h19.01.203,HF_wild_card,2022.2.4,MacIntel,58.82352941,64135be84e85d83aff484ef4,64ce5acb97489d65b14ecc7a,64cf495275e78ea91669569c,,,,,,,decisionTrl,resources/DB.BMP,resources/DP.BMP,Door3,0.333956969,0.007951356,1,0,0,0.896,optionRight,70,8515,4,23,0,23,0,1,,,,,,,,,,,,,,,,,,,,,,,,,,,,,,,,,,,,,,,
,,,,,,,,2023-08-06_08h19.01.203,HF_wild_card,2022.2.4,MacIntel,58.82352941,64135be84e85d83aff484ef4,64ce5acb97489d65b14ecc7a,64cf495275e78ea91669569c,,,,,,,decisionTrl,resources/DBN.BMP,resources/DB.BMP,WildCard_NonEx,-0.316183349,0.052853134,1,0,0,0.628,optionLeft,55,8570,4,24,0,24,0,1,,,,,,,,,,,,,,,,,,,,,,,,,,,,,,,,,,,,,,,
,,,,,,,,2023-08-06_08h19.01.203,HF_wild_card,2022.2.4,MacIntel,58.82352941,64135be84e85d83aff484ef4,64ce5acb97489d65b14ecc7a,64cf495275e78ea91669569c,,,,,,,sngl,resources/DG.BMP,resources/Empty.png,Door1,-0.315247895,0.021047708,1,0,0,0.596,optionLeft,30,8600,4,25,0,25,0,1,,,,,,,,,,,,,,,,,,,,,,,,,,,,,,,,,,,,,,,
,,,,,,,,2023-08-06_08h19.01.203,HF_wild_card,2022.2.4,MacIntel,58.82352941,64135be84e85d83aff484ef4,64ce5acb97489d65b14ecc7a,64cf495275e78ea91669569c,,,,,,,sngl,resources/DP.BMP,resources/Empty.png,Door3,-0.360149673,0.007015903,1,0,0,0.609,optionLeft,70,8670,4,26,0,26,0,1,,,,,,,,,,,,,,,,,,,,,,,,,,,,,,,,,,,,,,,
,,,,,,,,2023-08-06_08h19.01.203,HF_wild_card,2022.2.4,MacIntel,58.82352941,64135be84e85d83aff484ef4,64ce5acb97489d65b14ecc7a,64cf495275e78ea91669569c,,,,,,,decisionTrl,resources/DB.BMP,resources/DBN.BMP,WildCard_NonEx,0.338634238,0.005144995,1,0,0,0.777,optionRight,45,8715,4,27,0,27,0,1,,,,,,,,,,,,,,,,,,,,,,,,,,,,,,,,,,,,,,,
,,,,,,,,2023-08-06_08h19.01.203,HF_wild_card,2022.2.4,MacIntel,58.82352941,64135be84e85d83aff484ef4,64ce5acb97489d65b14ecc7a,64cf495275e78ea91669569c,,,,,,,decisionTrl,resources/DG.BMP,resources/DY.BMP,Door1,-0.194574369,0.05191768,1,0,0,1.411,optionLeft,30,8745,4,28,0,28,0,1,,,,,,,,,,,,,,,,,,,,,,,,,,,,,,,,,,,,,,,
,,,,,,,,2023-08-06_08h19.01.203,HF_wild_card,2022.2.4,MacIntel,58.82352941,64135be84e85d83aff484ef4,64ce5acb97489d65b14ecc7a,64cf495275e78ea91669569c,,,,,,,sngl,resources/DBN.BMP,resources/Empty.png,WildCard_NonEx,-0.244153414,0.037885875,1,0,0,0.643,optionLeft,55,8800,4,29,0,29,0,1,,,,,,,,,,,,,,,,,,,,,,,,,,,,,,,,,,,,,,,
,,,,,,,,2023-08-06_08h19.01.203,HF_wild_card,2022.2.4,MacIntel,58.82352941,64135be84e85d83aff484ef4,64ce5acb97489d65b14ecc7a,64cf495275e78ea91669569c,,,,,,,ctch,resources/DB.BMP,resources/DG.BMP,Door4,-0.36950421,0.021047708,1,0,0,1.093,optionLeft,60,8860,4,30,0,30,0,1,,,,,,,,,,,,,,,,,,,,,,,,,,,,,,,,,,,,,,,
,,,,,,,,2023-08-06_08h19.01.203,HF_wild_card,2022.2.4,MacIntel,58.82352941,64135be84e85d83aff484ef4,64ce5acb97489d65b14ecc7a,64cf495275e78ea91669569c,,,,,,,sngl,resources/Empty.png,resources/DB.BMP,Door4,0.33676333,-0.011693171,1,0,0,0.76,optionRight,80,8940,4,31,0,31,0,1,,,,,,,,,,,,,,,,,,,,,,,,,,,,,,,,,,,,,,,
,,,,,,,,2023-08-06_08h19.01.203,HF_wild_card,2022.2.4,MacIntel,58.82352941,64135be84e85d83aff484ef4,64ce5acb97489d65b14ecc7a,64cf495275e78ea91669569c,,,,,,,decisionTrl,resources/DBN.BMP,resources/DY.BMP,WildCard_NonEx,-0.235734331,0.048175865,1,0,0,0.662,optionLeft,55,8995,4,32,0,32,0,1,,,,,,,,,,,,,,,,,,,,,,,,,,,,,,,,,,,,,,,
,,,,,,,,2023-08-06_08h19.01.203,HF_wild_card,2022.2.4,MacIntel,58.82352941,64135be84e85d83aff484ef4,64ce5acb97489d65b14ecc7a,64cf495275e78ea91669569c,,,,,,,decisionTrl,resources/DY.BMP,resources/DG.BMP,Door1,0.253507951,-0.038821328,1,0,0,1.194,optionRight,30,9025,4,33,0,33,0,1,,,,,,,,,,,,,,,,,,,,,,,,,,,,,,,,,,,,,,,
,,,,,,,,2023-08-06_08h19.01.203,HF_wild_card,2022.2.4,MacIntel,58.82352941,64135be84e85d83aff484ef4,64ce5acb97489d65b14ecc7a,64cf495275e78ea91669569c,,,,,,,decisionTrl,resources/DY.BMP,resources/DG.BMP,Door2,-0.328344247,-0.005144995,1,0,0,0.595,optionLeft,20,9045,4,34,0,34,0,1,,,,,,,,,,,,,,,,,,,,,,,,,,,,,,,,,,,,,,,
,,,,,,,,2023-08-06_08h19.01.203,HF_wild_card,2022.2.4,MacIntel,58.82352941,64135be84e85d83aff484ef4,64ce5acb97489d65b14ecc7a,64cf495275e78ea91669569c,,,,,,,ctch,resources/DB.BMP,resources/DG.BMP,Door4,-0.254443405,0.048175865,1,0,0,1.029,optionLeft,60,9105,4,35,0,35,0,1,,,,,,,,,,,,,,,,,,,,,,,,,,,,,,,,,,,,,,,
,,,,,,,,2023-08-06_08h19.01.203,HF_wild_card,2022.2.4,MacIntel,58.82352941,64135be84e85d83aff484ef4,64ce5acb97489d65b14ecc7a,64cf495275e78ea91669569c,,,,,,,sngl,resources/Empty.png,resources/DP.BMP,Door3,0.362956034,0.044434051,1,0,0,0.694,optionRight,70,9175,4,36,0,36,0,1,,,,,,,,,,,,,,,,,,,,,,,,,,,,,,,,,,,,,,,
,,,,,,,,2023-08-06_08h19.01.203,HF_wild_card,2022.2.4,MacIntel,58.82352941,64135be84e85d83aff484ef4,64ce5acb97489d65b14ecc7a,64cf495275e78ea91669569c,,,,,,,ctch,resources/DG.BMP,resources/DB.BMP,Door4,0.305893358,0.007951356,1,0,0,1.612,optionRight,80,9255,4,37,0,37,0,1,,,,,,,,,,,,,,,,,,,,,,,,,,,,,,,,,,,,,,,
,,,,,,,,2023-08-06_08h19.01.203,HF_wild_card,2022.2.4,MacIntel,58.82352941,64135be84e85d83aff484ef4,64ce5acb97489d65b14ecc7a,64cf495275e78ea91669569c,,,,,,,ctch,resources/DY.BMP,resources/DP.BMP,Door3,0.255378859,0.00888681,1,0,0,0.778,optionRight,70,9325,4,38,0,38,0,1,,,,,,,,,,,,,,,,,,,,,,,,,,,,,,,,,,,,,,,
,,,,,,,,2023-08-06_08h19.01.203,HF_wild_card,2022.2.4,MacIntel,58.82352941,64135be84e85d83aff484ef4,64ce5acb97489d65b14ecc7a,64cf495275e78ea91669569c,,,,,,,decisionTrl,resources/DG.BMP,resources/DY.BMP,Door2,0.214218896,0.005144995,1,0,0,2.064,optionRight,40,9365,4,39,0,39,0,1,,,,,,,,,,,,,,,,,,,,,,,,,,,,,,,,,,,,,,,
,,,,,,,,2023-08-06_08h19.01.203,HF_wild_card,2022.2.4,MacIntel,58.82352941,64135be84e85d83aff484ef4,64ce5acb97489d65b14ecc7a,64cf495275e78ea91669569c,,,,,,,decisionTrl,resources/DG.BMP,resources/DBN.BMP,WildCard_NonEx,0.361085126,0.004209542,1,0,0,0.895,optionRight,45,9410,4,40,0,40,0,1,,,,,,,,,,,,,,,,,,,,,,,,,,,,,,,,,,,,,,,
,,,,,,,,2023-08-06_08h19.01.203,HF_wild_card,2022.2.4,MacIntel,58.82352941,64135be84e85d83aff484ef4,64ce5acb97489d65b14ecc7a,64cf495275e78ea91669569c,,,,,,,decisionTrl,resources/DG.BMP,resources/DY.BMP,Door1,-0.380729654,0.006080449,1,0,0,1.363,optionLeft,30,9440,4,41,0,41,0,1,,,,,,,,,,,,,,,,,,,,,,,,,,,,,,,,,,,,,,,
,,,,,,,,2023-08-06_08h19.01.203,HF_wild_card,2022.2.4,MacIntel,58.82352941,64135be84e85d83aff484ef4,64ce5acb97489d65b14ecc7a,64cf495275e78ea91669569c,,,,,,,decisionTrl,resources/DB.BMP,resources/DP.BMP,Door3,0.307764266,0.029466791,1,0,0,1.545,optionRight,70,9510,4,42,0,42,0,1,,,,,,,,,,,,,,,,,,,,,,,,,,,,,,,,,,,,,,,
,,,,,,,,2023-08-06_08h19.01.203,HF_wild_card,2022.2.4,MacIntel,58.82352941,64135be84e85d83aff484ef4,64ce5acb97489d65b14ecc7a,64cf495275e78ea91669569c,,,,,,,sngl,resources/Empty.png,resources/DBN.BMP,WildCard_NonEx,0.319925164,0.039756782,1,0,0,0.662,optionRight,45,9555,4,43,0,43,0,1,,,,,,,,,,,,,,,,,,,,,,,,,,,,,,,,,,,,,,,
,,,,,,,,2023-08-06_08h19.01.203,HF_wild_card,2022.2.4,MacIntel,58.82352941,64135be84e85d83aff484ef4,64ce5acb97489d65b14ecc7a,64cf495275e78ea91669569c,,,,,,,,,,,,,,,,,,,,,,,,,,3,0,3,0,1,,,,,,,,,,,,,,,,,,,,,,,,,,,,,,,,,,
,,,,,,,,2023-08-06_08h19.01.203,HF_wild_card,2022.2.4,MacIntel,58.82352941,64135be84e85d83aff484ef4,64ce5acb97489d65b14ecc7a,64cf495275e78ea91669569c,,,,,,,decisionTrl,resources/DBN.BMP,resources/DG.BMP,WildCard_NonEx,-0.425631431,0.006080449,1,0,0,3.023,optionLeft,45,9600,5,0,0,0,0,1,,,,,,,,,,,,,,,,,,,,,,,,,,,,,,,,,,,,,,,
,,,,,,,,2023-08-06_08h19.01.203,HF_wild_card,2022.2.4,MacIntel,58.82352941,64135be84e85d83aff484ef4,64ce5acb97489d65b14ecc7a,64cf495275e78ea91669569c,,,,,,,ctch,resources/DB.BMP,resources/DG.BMP,Door4,-0.350795136,0.017305893,1,0,0,1.26,optionLeft,80,9680,5,1,0,1,0,1,,,,,,,,,,,,,,,,,,,,,,,,,,,,,,,,,,,,,,,
,,,,,,,,2023-08-06_08h19.01.203,HF_wild_card,2022.2.4,MacIntel,58.82352941,64135be84e85d83aff484ef4,64ce5acb97489d65b14ecc7a,64cf495275e78ea91669569c,,,,,,,sngl,resources/DY.BMP,resources/Empty.png,Door2,-0.223573433,-0.012628625,1,0,0,0.712,optionLeft,40,9720,5,2,0,2,0,1,,,,,,,,,,,,,,,,,,,,,,,,,,,,,,,,,,,,,,,
,,,,,,,,2023-08-06_08h19.01.203,HF_wild_card,2022.2.4,MacIntel,58.82352941,64135be84e85d83aff484ef4,64ce5acb97489d65b14ecc7a,64cf495275e78ea91669569c,,,,,,,decisionTrl,resources/DY.BMP,resources/DG.BMP,Door1,0.366697848,0.032273152,1,0,0,2.245,optionRight,30,9750,5,3,0,3,0,1,,,,,,,,,,,,,,,,,,,,,,,,,,,,,,,,,,,,,,,
,,,,,,,,2023-08-06_08h19.01.203,HF_wild_card,2022.2.4,MacIntel,58.82352941,64135be84e85d83aff484ef4,64ce5acb97489d65b14ecc7a,64cf495275e78ea91669569c,,,,,,,decisionTrl,resources/DY.BMP,resources/DG.BMP,Door1,0.313376988,-0.039756782,1,0,0,1.194,optionRight,30,9780,5,4,0,4,0,1,,,,,,,,,,,,,,,,,,,,,,,,,,,,,,,,,,,,,,,
,,,,,,,,2023-08-06_08h19.01.203,HF_wild_card,2022.2.4,MacIntel,58.82352941,64135be84e85d83aff484ef4,64ce5acb97489d65b14ecc7a,64cf495275e78ea91669569c,,,,,,,decisionTrl,resources/DB.BMP,resources/DP.BMP,Door3,0.460243218,0.065014032,1,0,0,0.912,optionRight,70,9850,5,5,0,5,0,1,,,,,,,,,,,,,,,,,,,,,,,,,,,,,,,,,,,,,,,
,,,,,,,,2023-08-06_08h19.01.203,HF_wild_card,2022.2.4,MacIntel,58.82352941,64135be84e85d83aff484ef4,64ce5acb97489d65b14ecc7a,64cf495275e78ea91669569c,,,,,,,decisionTrl,resources/DB.BMP,resources/DP.BMP,Door4,-0.418147802,0.004209542,1,0,0,0.829,optionLeft,60,9910,5,6,0,6,0,1,,,,,,,,,,,,,,,,,,,,,,,,,,,,,,,,,,,,,,,
,,,,,,,,2023-08-06_08h19.01.203,HF_wild_card,2022.2.4,MacIntel,58.82352941,64135be84e85d83aff484ef4,64ce5acb97489d65b14ecc7a,64cf495275e78ea91669569c,,,,,,,decisionTrl,resources/DB.BMP,resources/DBN.BMP,WildCard_NonEx,0.350795136,-0.003274088,1,0,0,0.795,optionRight,55,9965,5,7,0,7,0,1,,,,,,,,,,,,,,,,,,,,,,,,,,,,,,,,,,,,,,,
,,,,,,,,2023-08-06_08h19.01.203,HF_wild_card,2022.2.4,MacIntel,58.82352941,64135be84e85d83aff484ef4,64ce5acb97489d65b14ecc7a,64cf495275e78ea91669569c,,,,,,,decisionTrl,resources/DG.BMP,resources/DY.BMP,Door2,0.299345182,0.024789523,1,0,0,2.147,optionRight,40,10005,5,8,0,8,0,1,,,,,,,,,,,,,,,,,,,,,,,,,,,,,,,,,,,,,,,
,,,,,,,,2023-08-06_08h19.01.203,HF_wild_card,2022.2.4,MacIntel,58.82352941,64135be84e85d83aff484ef4,64ce5acb97489d65b14ecc7a,64cf495275e78ea91669569c,,,,,,,ctch,resources/DP.BMP,resources/DY.BMP,Door3,-0.342376052,0.010757717,1,0,0,0.676,optionLeft,70,10075,5,9,0,9,0,1,,,,,,,,,,,,,,,,,,,,,,,,,,,,,,,,,,,,,,,
,,,,,,,,2023-08-06_08h19.01.203,HF_wild_card,2022.2.4,MacIntel,58.82352941,64135be84e85d83aff484ef4,64ce5acb97489d65b14ecc7a,64cf495275e78ea91669569c,,,,,,,ctch,resources/DG.BMP,resources/DB.BMP,Door1,-0.287184284,0.031337699,1,0,0,1.246,optionLeft,30,10105,5,10,0,10,0,1,,,,,,,,,,,,,,,,,,,,,,,,,,,,,,,,,,,,,,,
,,,,,,,,2023-08-06_08h19.01.203,HF_wild_card,2022.2.4,MacIntel,58.82352941,64135be84e85d83aff484ef4,64ce5acb97489d65b14ecc7a,64cf495275e78ea91669569c,,,,,,,ctch,resources/DG.BMP,resources/DB.BMP,Door4,0.3797942,0.042563143,1,0,0,0.812,optionRight,60,10165,5,11,0,11,0,1,,,,,,,,,,,,,,,,,,,,,,,,,,,,,,,,,,,,,,,
,,,,,,,,2023-08-06_08h19.01.203,HF_wild_card,2022.2.4,MacIntel,58.82352941,64135be84e85d83aff484ef4,64ce5acb97489d65b14ecc7a,64cf495275e78ea91669569c,,,,,,,decisionTrl,resources/DG.BMP,resources/DY.BMP,Door1,-0.302151543,0.005144995,1,0,0,1.028,optionLeft,30,10195,5,12,0,12,0,1,,,,,,,,,,,,,,,,,,,,,,,,,,,,,,,,,,,,,,,
,,,,,,,,2023-08-06_08h19.01.203,HF_wild_card,2022.2.4,MacIntel,58.82352941,64135be84e85d83aff484ef4,64ce5acb97489d65b14ecc7a,64cf495275e78ea91669569c,,,,,,,sngl,resources/Empty.png,resources/DBN.BMP,WildCard_NonEx,0.366697848,0.049111319,1,0,0,0.644,optionRight,55,10250,5,13,0,13,0,1,,,,,,,,,,,,,,,,,,,,,,,,,,,,,,,,,,,,,,,
,,,,,,,,2023-08-06_08h19.01.203,HF_wild_card,2022.2.4,MacIntel,58.82352941,64135be84e85d83aff484ef4,64ce5acb97489d65b14ecc7a,64cf495275e78ea91669569c,,,,,,,decisionTrl,resources/DB.BMP,resources/DP.BMP,Door3,0.332086062,-0.013564079,1,0,0,1.26,optionRight,70,10320,5,14,0,14,0,1,,,,,,,,,,,,,,,,,,,,,,,,,,,,,,,,,,,,,,,
,,,,,,,,2023-08-06_08h19.01.203,HF_wild_card,2022.2.4,MacIntel,58.82352941,64135be84e85d83aff484ef4,64ce5acb97489d65b14ecc7a,64cf495275e78ea91669569c,,,,,,,sngl,resources/DBN.BMP,resources/Empty.png,WildCard_NonEx,-0.282507016,-0.00888681,1,0,0,0.762,optionLeft,45,10365,5,15,0,15,0,1,,,,,,,,,,,,,,,,,,,,,,,,,,,,,,,,,,,,,,,
,,,,,,,,2023-08-06_08h19.01.203,HF_wild_card,2022.2.4,MacIntel,58.82352941,64135be84e85d83aff484ef4,64ce5acb97489d65b14ecc7a,64cf495275e78ea91669569c,,,,,,,sngl,resources/Empty.png,resources/DG.BMP,Door1,0.245088868,0.004209542,1,0,0,0.679,optionRight,30,10395,5,16,0,16,0,1,,,,,,,,,,,,,,,,,,,,,,,,,,,,,,,,,,,,,,,
,,,,,,,,2023-08-06_08h19.01.203,HF_wild_card,2022.2.4,MacIntel,58.82352941,64135be84e85d83aff484ef4,64ce5acb97489d65b14ecc7a,64cf495275e78ea91669569c,,,,,,,decisionTrl,resources/DY.BMP,resources/DG.BMP,Door2,-0.228250702,0.036950421,1,0,0,1.661,optionLeft,40,10435,5,17,0,17,0,1,,,,,,,,,,,,,,,,,,,,,,,,,,,,,,,,,,,,,,,
,,,,,,,,2023-08-06_08h19.01.203,HF_wild_card,2022.2.4,MacIntel,58.82352941,64135be84e85d83aff484ef4,64ce5acb97489d65b14ecc7a,64cf495275e78ea91669569c,,,,,,,decisionTrl,resources/DY.BMP,resources/DBN.BMP,WildCard_NonEx,0.372310571,0.072497661,1,0,0,0.91,optionRight,55,10490,5,18,0,18,0,1,,,,,,,,,,,,,,,,,,,,,,,,,,,,,,,,,,,,,,,
,,,,,,,,2023-08-06_08h19.01.203,HF_wild_card,2022.2.4,MacIntel,58.82352941,64135be84e85d83aff484ef4,64ce5acb97489d65b14ecc7a,64cf495275e78ea91669569c,,,,,,,ctch,resources/DP.BMP,resources/DY.BMP,Door3,-0.281571562,0.013564079,1,0,0,0.847,optionLeft,70,10560,5,19,0,19,0,1,,,,,,,,,,,,,,,,,,,,,,,,,,,,,,,,,,,,,,,
,,,,,,,,2023-08-06_08h19.01.203,HF_wild_card,2022.2.4,MacIntel,58.82352941,64135be84e85d83aff484ef4,64ce5acb97489d65b14ecc7a,64cf495275e78ea91669569c,,,,,,,decisionTrl,resources/DB.BMP,resources/DP.BMP,Door3,0.304022451,0.00888681,1,0,0,1.261,optionRight,70,10630,5,20,0,20,0,1,,,,,,,,,,,,,,,,,,,,,,,,,,,,,,,,,,,,,,,
,,,,,,,,2023-08-06_08h19.01.203,HF_wild_card,2022.2.4,MacIntel,58.82352941,64135be84e85d83aff484ef4,64ce5acb97489d65b14ecc7a,64cf495275e78ea91669569c,,,,,,,decisionTrl,resources/DG.BMP,resources/DY.BMP,Door2,0.42282507,0.023854069,1,0,0,2.561,optionRight,20,10650,5,21,0,21,0,1,,,,,,,,,,,,,,,,,,,,,,,,,,,,,,,,,,,,,,,
,,,,,,,,2023-08-06_08h19.01.203,HF_wild_card,2022.2.4,MacIntel,58.82352941,64135be84e85d83aff484ef4,64ce5acb97489d65b14ecc7a,64cf495275e78ea91669569c,,,,,,,decisionTrl,resources/DP.BMP,resources/DB.BMP,Door3,-0.420018709,-0.017305893,1,0,0,0.761,optionLeft,70,10720,5,22,0,22,0,1,,,,,,,,,,,,,,,,,,,,,,,,,,,,,,,,,,,,,,,
,,,,,,,,2023-08-06_08h19.01.203,HF_wild_card,2022.2.4,MacIntel,58.82352941,64135be84e85d83aff484ef4,64ce5acb97489d65b14ecc7a,64cf495275e78ea91669569c,,,,,,,ctch,resources/DB.BMP,resources/DG.BMP,Door4,-0.289990645,0.036950421,1,0,0,1.096,optionLeft,80,10800,5,23,0,23,0,1,,,,,,,,,,,,,,,,,,,,,,,,,,,,,,,,,,,,,,,
,,,,,,,,2023-08-06_08h19.01.203,HF_wild_card,2022.2.4,MacIntel,58.82352941,64135be84e85d83aff484ef4,64ce5acb97489d65b14ecc7a,64cf495275e78ea91669569c,,,,,,,sngl,resources/Empty.png,resources/DY.BMP,Door2,0.307764266,0.054724041,1,0,0,0.644,optionRight,20,10820,5,24,0,24,0,1,,,,,,,,,,,,,,,,,,,,,,,,,,,,,,,,,,,,,,,
,,,,,,,,2023-08-06_08h19.01.203,HF_wild_card,2022.2.4,MacIntel,58.82352941,64135be84e85d83aff484ef4,64ce5acb97489d65b14ecc7a,64cf495275e78ea91669569c,,,,,,,ctch,resources/DY.BMP,resources/DP.BMP,Door3,0.511693171,-0.064078578,1,0,0,1.262,optionRight,70,10890,5,25,0,25,0,1,,,,,,,,,,,,,,,,,,,,,,,,,,,,,,,,,,,,,,,
,,,,,,,,2023-08-06_08h19.01.203,HF_wild_card,2022.2.4,MacIntel,58.82352941,64135be84e85d83aff484ef4,64ce5acb97489d65b14ecc7a,64cf495275e78ea91669569c,,,,,,,sngl,resources/Empty.png,resources/DBN.BMP,WildCard_NonEx,0.277829747,0.030402245,1,0,0,0.711,optionRight,45,10935,5,26,0,26,0,1,,,,,,,,,,,,,,,,,,,,,,,,,,,,,,,,,,,,,,,
,,,,,,,,2023-08-06_08h19.01.203,HF_wild_card,2022.2.4,MacIntel,58.82352941,64135be84e85d83aff484ef4,64ce5acb97489d65b14ecc7a,64cf495275e78ea91669569c,,,,,,,decisionTrl,resources/DP.BMP,resources/DB.BMP,Door3,-0.302151543,-0.044434051,1,0,0,1.028,optionLeft,70,11005,5,27,0,27,0,1,,,,,,,,,,,,,,,,,,,,,,,,,,,,,,,,,,,,,,,
,,,,,,,,2023-08-06_08h19.01.203,HF_wild_card,2022.2.4,MacIntel,58.82352941,64135be84e85d83aff484ef4,64ce5acb97489d65b14ecc7a,64cf495275e78ea91669569c,,,,,,,decisionTrl,resources/DY.BMP,resources/DG.BMP,Door2,-0.286248831,0.065949486,1,0,0,1.845,optionLeft,40,11045,5,28,0,28,0,1,,,,,,,,,,,,,,,,,,,,,,,,,,,,,,,,,,,,,,,
,,,,,,,,2023-08-06_08h19.01.203,HF_wild_card,2022.2.4,MacIntel,58.82352941,64135be84e85d83aff484ef4,64ce5acb97489d65b14ecc7a,64cf495275e78ea91669569c,,,,,,,sngl,resources/DBN.BMP,resources/Empty.png,WildCard_NonEx,-0.267539757,0.042563143,1,0,0,0.695,optionLeft,55,11100,5,29,0,29,0,1,,,,,,,,,,,,,,,,,,,,,,,,,,,,,,,,,,,,,,,
,,,,,,,,2023-08-06_08h19.01.203,HF_wild_card,2022.2.4,MacIntel,58.82352941,64135be84e85d83aff484ef4,64ce5acb97489d65b14ecc7a,64cf495275e78ea91669569c,,,,,,,decisionTrl,resources/DBN.BMP,resources/DB.BMP,WildCard_NonEx,-0.324602432,0.058465856,1,0,0,0.829,optionLeft,45,11145,5,30,0,30,0,1,,,,,,,,,,,,,,,,,,,,,,,,,,,,,,,,,,,,,,,
,,,,,,,,2023-08-06_08h19.01.203,HF_wild_card,2022.2.4,MacIntel,58.82352941,64135be84e85d83aff484ef4,64ce5acb97489d65b14ecc7a,64cf495275e78ea91669569c,,,,,,,sngl,resources/DP.BMP,resources/Empty.png,Door3,-0.281571562,0.036950421,1,0,0,0.729,optionLeft,70,11215,5,31,0,31,0,1,,,,,,,,,,,,,,,,,,,,,,,,,,,,,,,,,,,,,,,
,,,,,,,,2023-08-06_08h19.01.203,HF_wild_card,2022.2.4,MacIntel,58.82352941,64135be84e85d83aff484ef4,64ce5acb97489d65b14ecc7a,64cf495275e78ea91669569c,,,,,,,sngl,resources/DB.BMP,resources/Empty.png,Door4,-0.338634238,0.039756782,1,0,0,0.63,optionLeft,80,11295,5,32,0,32,0,1,,,,,,,,,,,,,,,,,,,,,,,,,,,,,,,,,,,,,,,
,,,,,,,,2023-08-06_08h19.01.203,HF_wild_card,2022.2.4,MacIntel,58.82352941,64135be84e85d83aff484ef4,64ce5acb97489d65b14ecc7a,64cf495275e78ea91669569c,,,,,,,ctch,resources/DY.BMP,resources/DP.BMP,Door3,0.449953227,0.00888681,1,0,0,0.859,optionRight,70,11365,5,33,0,33,0,1,,,,,,,,,,,,,,,,,,,,,,,,,,,,,,,,,,,,,,,
,,,,,,,,2023-08-06_08h19.01.203,HF_wild_card,2022.2.4,MacIntel,58.82352941,64135be84e85d83aff484ef4,64ce5acb97489d65b14ecc7a,64cf495275e78ea91669569c,,,,,,,decisionTrl,resources/DG.BMP,resources/DBN.BMP,WildCard_NonEx,0.372310571,0.005144995,1,0,0,0.848,optionRight,55,11420,5,34,0,34,0,1,,,,,,,,,,,,,,,,,,,,,,,,,,,,,,,,,,,,,,,
,,,,,,,,2023-08-06_08h19.01.203,HF_wild_card,2022.2.4,MacIntel,58.82352941,64135be84e85d83aff484ef4,64ce5acb97489d65b14ecc7a,64cf495275e78ea91669569c,,,,,,,decisionTrl,resources/DG.BMP,resources/DY.BMP,Door2,0.220767072,-0.032273152,1,0,0,1.413,optionRight,20,11440,5,35,0,35,0,1,,,,,,,,,,,,,,,,,,,,,,,,,,,,,,,,,,,,,,,
,,,,,,,,2023-08-06_08h19.01.203,HF_wild_card,2022.2.4,MacIntel,58.82352941,64135be84e85d83aff484ef4,64ce5acb97489d65b14ecc7a,64cf495275e78ea91669569c,,,,,,,decisionTrl,resources/DP.BMP,resources/DBN.BMP,Door3,-0.234798877,0.03414406,1,0,0,1.328,optionLeft,70,11510,5,36,0,36,0,1,,,,,,,,,,,,,,,,,,,,,,,,,,,,,,,,,,,,,,,
,,,,,,,,2023-08-06_08h19.01.203,HF_wild_card,2022.2.4,MacIntel,58.82352941,64135be84e85d83aff484ef4,64ce5acb97489d65b14ecc7a,64cf495275e78ea91669569c,,,,,,,decisionTrl,resources/DBN.BMP,resources/DP.BMP,WildCard_NonEx,-0.406922357,0.081852198,1,0,0,0.795,optionLeft,45,11555,5,37,0,37,0,1,,,,,,,,,,,,,,,,,,,,,,,,,,,,,,,,,,,,,,,
,,,,,,,,2023-08-06_08h19.01.203,HF_wild_card,2022.2.4,MacIntel,58.82352941,64135be84e85d83aff484ef4,64ce5acb97489d65b14ecc7a,64cf495275e78ea91669569c,,,,,,,sngl,resources/DG.BMP,resources/Empty.png,Door1,-0.214218896,0.021983162,1,0,0,0.611,optionLeft,30,11585,5,38,0,38,0,1,,,,,,,,,,,,,,,,,,,,,,,,,,,,,,,,,,,,,,,
,,,,,,,,2023-08-06_08h19.01.203,HF_wild_card,2022.2.4,MacIntel,58.82352941,64135be84e85d83aff484ef4,64ce5acb97489d65b14ecc7a,64cf495275e78ea91669569c,,,,,,,decisionTrl,resources/DP.BMP,resources/DB.BMP,Door3,-0.270346118,0.020112254,1,0,0,3.095,optionLeft,70,11655,5,39,0,39,0,1,,,,,,,,,,,,,,,,,,,,,,,,,,,,,,,,,,,,,,,
,,,,,,,,2023-08-06_08h19.01.203,HF_wild_card,2022.2.4,MacIntel,58.82352941,64135be84e85d83aff484ef4,64ce5acb97489d65b14ecc7a,64cf495275e78ea91669569c,,,,,,,decisionTrl,resources/DBN.BMP,resources/DY.BMP,WildCard_NonEx,-0.466791394,0.064078578,1,0,0,0.894,optionLeft,55,11710,5,40,0,40,0,1,,,,,,,,,,,,,,,,,,,,,,,,,,,,,,,,,,,,,,,
,,,,,,,,2023-08-06_08h19.01.203,HF_wild_card,2022.2.4,MacIntel,58.82352941,64135be84e85d83aff484ef4,64ce5acb97489d65b14ecc7a,64cf495275e78ea91669569c,,,,,,,decisionTrl,resources/DP.BMP,resources/DB.BMP,Door4,0.25818522,-0.006080449,1,0,0,1.247,optionRight,60,11770,5,41,0,41,0,1,,,,,,,,,,,,,,,,,,,,,,,,,,,,,,,,,,,,,,,
,,,,,,,,2023-08-06_08h19.01.203,HF_wild_card,2022.2.4,MacIntel,58.82352941,64135be84e85d83aff484ef4,64ce5acb97489d65b14ecc7a,64cf495275e78ea91669569c,,,,,,,sngl,resources/Empty.png,resources/DP.BMP,Door3,0.42282507,0.03414406,1,0,0,0.929,optionRight,70,11840,5,42,0,42,0,1,,,,,,,,,,,,,,,,,,,,,,,,,,,,,,,,,,,,,,,
,,,,,,,,2023-08-06_08h19.01.203,HF_wild_card,2022.2.4,MacIntel,58.82352941,64135be84e85d83aff484ef4,64ce5acb97489d65b14ecc7a,64cf495275e78ea91669569c,,,,,,,sngl,resources/Empty.png,resources/DB.BMP,Door4,0.318054256,0.049111319,1,0,0,0.761,optionRight,60,11900,5,43,0,43,0,1,,,,,,,,,,,,,,,,,,,,,,,,,,,,,,,,,,,,,,,
,,,,,,,,2023-08-06_08h19.01.203,HF_wild_card,2022.2.4,MacIntel,58.82352941,64135be84e85d83aff484ef4,64ce5acb97489d65b14ecc7a,64cf495275e78ea91669569c,,,,,,,,,,,,,,,,,,,,,,,,,,4,0,4,0,1,,,,,,,,,,,,,,,,,,,,,,,,,,,,,,,,,,
,,,,,,,,2023-08-06_08h19.01.203,HF_wild_card,2022.2.4,MacIntel,58.82352941,64135be84e85d83aff484ef4,64ce5acb97489d65b14ecc7a,64cf495275e78ea91669569c,,,,,,,decisionTrl,resources/DY.BMP,resources/DG.BMP,Door1,0.358278765,-0.103367633,1,0,0,1.79,optionRight,30,11930,6,0,0,0,0,1,,,,,,,,,,,,,,,,,,,,,,,,,,,,,,,,,,,,,,,
,,,,,,,,2023-08-06_08h19.01.203,HF_wild_card,2022.2.4,MacIntel,58.82352941,64135be84e85d83aff484ef4,64ce5acb97489d65b14ecc7a,64cf495275e78ea91669569c,,,,,,,ctch,resources/DY.BMP,resources/DP.BMP,Door3,0.367633302,0.014499532,1,0,0,1.214,optionRight,70,12000,6,1,0,1,0,1,,,,,,,,,,,,,,,,,,,,,,,,,,,,,,,,,,,,,,,
,,,,,,,,2023-08-06_08h19.01.203,HF_wild_card,2022.2.4,MacIntel,58.82352941,64135be84e85d83aff484ef4,64ce5acb97489d65b14ecc7a,64cf495275e78ea91669569c,,,,,,,ctch,resources/DP.BMP,resources/DY.BMP,Door3,-0.416276894,0.02666043,1,0,0,0.896,optionLeft,70,12070,6,2,0,2,0,1,,,,,,,,,,,,,,,,,,,,,,,,,,,,,,,,,,,,,,,
,,,,,,,,2023-08-06_08h19.01.203,HF_wild_card,2022.2.4,MacIntel,58.82352941,64135be84e85d83aff484ef4,64ce5acb97489d65b14ecc7a,64cf495275e78ea91669569c,,,,,,,decisionTrl,resources/DG.BMP,resources/DY.BMP,Door1,-0.233863424,0.028531338,1,0,0,1.346,optionLeft,30,12100,6,3,0,3,0,1,,,,,,,,,,,,,,,,,,,,,,,,,,,,,,,,,,,,,,,
,,,,,,,,2023-08-06_08h19.01.203,HF_wild_card,2022.2.4,MacIntel,58.82352941,64135be84e85d83aff484ef4,64ce5acb97489d65b14ecc7a,64cf495275e78ea91669569c,,,,,,,sngl,resources/DP.BMP,resources/Empty.png,Door3,-0.390084191,0.063143124,1,0,0,1.478,optionLeft,70,12170,6,4,0,4,0,1,,,,,,,,,,,,,,,,,,,,,,,,,,,,,,,,,,,,,,,
,,,,,,,,2023-08-06_08h19.01.203,HF_wild_card,2022.2.4,MacIntel,58.82352941,64135be84e85d83aff484ef4,64ce5acb97489d65b14ecc7a,64cf495275e78ea91669569c,,,,,,,ctch,resources/DG.BMP,resources/DB.BMP,Door4,0.392890552,-0.028531338,1,0,0,0.995,optionRight,80,12250,6,5,0,5,0,1,,,,,,,,,,,,,,,,,,,,,,,,,,,,,,,,,,,,,,,
,,,,,,,,2023-08-06_08h19.01.203,HF_wild_card,2022.2.4,MacIntel,58.82352941,64135be84e85d83aff484ef4,64ce5acb97489d65b14ecc7a,64cf495275e78ea91669569c,,,,,,,decisionTrl,resources/DG.BMP,resources/DY.BMP,Door1,-0.32647334,0.039756782,1,0,0,1.677,optionLeft,30,12280,6,6,0,6,0,1,,,,,,,,,,,,,,,,,,,,,,,,,,,,,,,,,,,,,,,
,,,,,,,,2023-08-06_08h19.01.203,HF_wild_card,2022.2.4,MacIntel,58.82352941,64135be84e85d83aff484ef4,64ce5acb97489d65b14ecc7a,64cf495275e78ea91669569c,,,,,,,sngl,resources/Empty.png,resources/DG.BMP,Door1,0.371375117,-0.001403181,1,0,0,0.678,optionRight,30,12310,6,7,0,7,0,1,,,,,,,,,,,,,,,,,,,,,,,,,,,,,,,,,,,,,,,
,,,,,,,,2023-08-06_08h19.01.203,HF_wild_card,2022.2.4,MacIntel,58.82352941,64135be84e85d83aff484ef4,64ce5acb97489d65b14ecc7a,64cf495275e78ea91669569c,,,,,,,sngl,resources/DB.BMP,resources/Empty.png,Door4,-0.297474275,0.040692236,1,0,0,0.611,optionLeft,60,12370,6,8,0,8,0,1,,,,,,,,,,,,,,,,,,,,,,,,,,,,,,,,,,,,,,,
,,,,,,,,2023-08-06_08h19.01.203,HF_wild_card,2022.2.4,MacIntel,58.82352941,64135be84e85d83aff484ef4,64ce5acb97489d65b14ecc7a,64cf495275e78ea91669569c,,,,,,,decisionTrl,resources/DB.BMP,resources/DP.BMP,Door4,-0.417212348,0.108980355,1,0,0,1.365,optionLeft,60,12430,6,9,0,9,0,1,,,,,,,,,,,,,,,,,,,,,,,,,,,,,,,,,,,,,,,
,,,,,,,,2023-08-06_08h19.01.203,HF_wild_card,2022.2.4,MacIntel,58.82352941,64135be84e85d83aff484ef4,64ce5acb97489d65b14ecc7a,64cf495275e78ea91669569c,,,,,,,decisionTrl,resources/DP.BMP,resources/DBN.BMP,Door3,-0.407857811,0.047240412,1,0,0,1.128,optionLeft,70,12500,6,10,0,10,0,1,,,,,,,,,,,,,,,,,,,,,,,,,,,,,,,,,,,,,,,
,,,,,,,,2023-08-06_08h19.01.203,HF_wild_card,2022.2.4,MacIntel,58.82352941,64135be84e85d83aff484ef4,64ce5acb97489d65b14ecc7a,64cf495275e78ea91669569c,,,,,,,decisionTrl,resources/DP.BMP,resources/DB.BMP,Door3,-0.425631431,-0.012628625,1,0,0,1.129,optionLeft,70,12570,6,11,0,11,0,1,,,,,,,,,,,,,,,,,,,,,,,,,,,,,,,,,,,,,,,
,,,,,,,,2023-08-06_08h19.01.203,HF_wild_card,2022.2.4,MacIntel,58.82352941,64135be84e85d83aff484ef4,64ce5acb97489d65b14ecc7a,64cf495275e78ea91669569c,,,,,,,sngl,resources/DY.BMP,resources/Empty.png,Door2,-0.231992516,0.017305893,1,0,0,0.644,optionLeft,20,12590,6,12,0,12,0,1,,,,,,,,,,,,,,,,,,,,,,,,,,,,,,,,,,,,,,,
,,,,,,,,2023-08-06_08h19.01.203,HF_wild_card,2022.2.4,MacIntel,58.82352941,64135be84e85d83aff484ef4,64ce5acb97489d65b14ecc7a,64cf495275e78ea91669569c,,,,,,,decisionTrl,resources/DG.BMP,resources/DBN.BMP,WildCard_NonEx,0.281571562,0.007951356,1,0,0,1.261,optionRight,45,12635,6,13,0,13,0,1,,,,,,,,,,,,,,,,,,,,,,,,,,,,,,,,,,,,,,,
,,,,,,,,2023-08-06_08h19.01.203,HF_wild_card,2022.2.4,MacIntel,58.82352941,64135be84e85d83aff484ef4,64ce5acb97489d65b14ecc7a,64cf495275e78ea91669569c,,,,,,,decisionTrl,resources/DY.BMP,resources/DG.BMP,Door1,0.202993452,-0.004209542,1,0,0,1.377,optionRight,30,12665,6,14,0,14,0,1,,,,,,,,,,,,,,,,,,,,,,,,,,,,,,,,,,,,,,,
,,,,,,,,2023-08-06_08h19.01.203,HF_wild_card,2022.2.4,MacIntel,58.82352941,64135be84e85d83aff484ef4,64ce5acb97489d65b14ecc7a,64cf495275e78ea91669569c,,,,,,,ctch,resources/DB.BMP,resources/DG.BMP,Door4,-0.220767072,-0.001403181,1,0,0,1.295,optionLeft,80,12745,6,15,0,15,0,1,,,,,,,,,,,,,,,,,,,,,,,,,,,,,,,,,,,,,,,
,,,,,,,,2023-08-06_08h19.01.203,HF_wild_card,2022.2.4,MacIntel,58.82352941,64135be84e85d83aff484ef4,64ce5acb97489d65b14ecc7a,64cf495275e78ea91669569c,,,,,,,decisionTrl,resources/DB.BMP,resources/DP.BMP,Door3,0.316183349,-0.036014967,1,0,0,1.595,optionRight,70,12815,6,16,0,16,0,1,,,,,,,,,,,,,,,,,,,,,,,,,,,,,,,,,,,,,,,
,,,,,,,,2023-08-06_08h19.01.203,HF_wild_card,2022.2.4,MacIntel,58.82352941,64135be84e85d83aff484ef4,64ce5acb97489d65b14ecc7a,64cf495275e78ea91669569c,,,,,,,ctch,resources/DB.BMP,resources/DG.BMP,Door4,-0.363891487,0.009822264,1,0,0,0.961,optionLeft,80,12895,6,17,0,17,0,1,,,,,,,,,,,,,,,,,,,,,,,,,,,,,,,,,,,,,,,
,,,,,,,,2023-08-06_08h19.01.203,HF_wild_card,2022.2.4,MacIntel,58.82352941,64135be84e85d83aff484ef4,64ce5acb97489d65b14ecc7a,64cf495275e78ea91669569c,,,,,,,decisionTrl,resources/DB.BMP,resources/DP.BMP,Door3,0.284377923,-0.041627689,1,0,0,1.478,optionRight,70,12965,6,18,0,18,0,1,,,,,,,,,,,,,,,,,,,,,,,,,,,,,,,,,,,,,,,
,,,,,,,,2023-08-06_08h19.01.203,HF_wild_card,2022.2.4,MacIntel,58.82352941,64135be84e85d83aff484ef4,64ce5acb97489d65b14ecc7a,64cf495275e78ea91669569c,,,,,,,decisionTrl,resources/DG.BMP,resources/DY.BMP,Door1,-0.362956034,-0.000467727,1,0,0,2.128,optionLeft,30,12995,6,19,0,19,0,1,,,,,,,,,,,,,,,,,,,,,,,,,,,,,,,,,,,,,,,
,,,,,,,,2023-08-06_08h19.01.203,HF_wild_card,2022.2.4,MacIntel,58.82352941,64135be84e85d83aff484ef4,64ce5acb97489d65b14ecc7a,64cf495275e78ea91669569c,,,,,,,decisionTrl,resources/DB.BMP,resources/DBN.BMP,Door4,-0.318054256,0.010757717,1,0,0,1.446,optionLeft,80,13075,6,20,0,20,0,1,,,,,,,,,,,,,,,,,,,,,,,,,,,,,,,,,,,,,,,
,,,,,,,,2023-08-06_08h19.01.203,HF_wild_card,2022.2.4,MacIntel,58.82352941,64135be84e85d83aff484ef4,64ce5acb97489d65b14ecc7a,64cf495275e78ea91669569c,,,,,,,decisionTrl,resources/DBN.BMP,resources/DY.BMP,WildCard_NonEx,-0.287184284,0.056594949,1,0,0,0.929,optionLeft,45,13120,6,21,0,21,0,1,,,,,,,,,,,,,,,,,,,,,,,,,,,,,,,,,,,,,,,
,,,,,,,,2023-08-06_08h19.01.203,HF_wild_card,2022.2.4,MacIntel,58.82352941,64135be84e85d83aff484ef4,64ce5acb97489d65b14ecc7a,64cf495275e78ea91669569c,,,,,,,ctch,resources/DG.BMP,resources/DB.BMP,Door4,0.318054256,-0.002338634,1,0,0,1.279,optionRight,80,13200,6,22,0,22,0,1,,,,,,,,,,,,,,,,,,,,,,,,,,,,,,,,,,,,,,,
,,,,,,,,2023-08-06_08h19.01.203,HF_wild_card,2022.2.4,MacIntel,58.82352941,64135be84e85d83aff484ef4,64ce5acb97489d65b14ecc7a,64cf495275e78ea91669569c,,,,,,,decisionTrl,resources/DY.BMP,resources/DG.BMP,Door1,0.220767072,0.030402245,1,0,0,1.263,optionRight,30,13230,6,23,0,23,0,1,,,,,,,,,,,,,,,,,,,,,,,,,,,,,,,,,,,,,,,
,,,,,,,,2023-08-06_08h19.01.203,HF_wild_card,2022.2.4,MacIntel,58.82352941,64135be84e85d83aff484ef4,64ce5acb97489d65b14ecc7a,64cf495275e78ea91669569c,,,,,,,decisionTrl,resources/DP.BMP,resources/DB.BMP,Door3,-0.281571562,0.032273152,1,0,0,0.729,optionLeft,70,13300,6,24,0,24,0,1,,,,,,,,,,,,,,,,,,,,,,,,,,,,,,,,,,,,,,,
,,,,,,,,2023-08-06_08h19.01.203,HF_wild_card,2022.2.4,MacIntel,58.82352941,64135be84e85d83aff484ef4,64ce5acb97489d65b14ecc7a,64cf495275e78ea91669569c,,,,,,,sngl,resources/Empty.png,resources/DBN.BMP,WildCard_NonEx,0.321796071,0.009822264,1,0,0,0.629,optionRight,45,13345,6,25,0,25,0,1,,,,,,,,,,,,,,,,,,,,,,,,,,,,,,,,,,,,,,,
,,,,,,,,2023-08-06_08h19.01.203,HF_wild_card,2022.2.4,MacIntel,58.82352941,64135be84e85d83aff484ef4,64ce5acb97489d65b14ecc7a,64cf495275e78ea91669569c,,,,,,,sngl,resources/DBN.BMP,resources/Empty.png,WildCard_NonEx,-0.278765201,-0.002338634,1,0,0,1.745,optionLeft,45,13390,6,26,0,26,0,1,,,,,,,,,,,,,,,,,,,,,,,,,,,,,,,,,,,,,,,
,,,,,,,,2023-08-06_08h19.01.203,HF_wild_card,2022.2.4,MacIntel,58.82352941,64135be84e85d83aff484ef4,64ce5acb97489d65b14ecc7a,64cf495275e78ea91669569c,,,,,,,decisionTrl,resources/DP.BMP,resources/DB.BMP,Door3,-0.385406922,0.014499532,1,0,0,1.178,optionLeft,70,13460,6,27,0,27,0,1,,,,,,,,,,,,,,,,,,,,,,,,,,,,,,,,,,,,,,,
,,,,,,,,2023-08-06_08h19.01.203,HF_wild_card,2022.2.4,MacIntel,58.82352941,64135be84e85d83aff484ef4,64ce5acb97489d65b14ecc7a,64cf495275e78ea91669569c,,,,,,,decisionTrl,resources/DY.BMP,resources/DG.BMP,Door1,0.317118803,0.05191768,1,0,0,1.21,optionRight,30,13490,6,28,0,28,0,1,,,,,,,,,,,,,,,,,,,,,,,,,,,,,,,,,,,,,,,
,,,,,,,,2023-08-06_08h19.01.203,HF_wild_card,2022.2.4,MacIntel,58.82352941,64135be84e85d83aff484ef4,64ce5acb97489d65b14ecc7a,64cf495275e78ea91669569c,,,,,,,sngl,resources/Empty.png,resources/DBN.BMP,WildCard_NonEx,0.227315248,-0.00888681,1,0,0,0.829,optionRight,55,13545,6,29,0,29,0,1,,,,,,,,,,,,,,,,,,,,,,,,,,,,,,,,,,,,,,,
,,,,,,,,2023-08-06_08h19.01.203,HF_wild_card,2022.2.4,MacIntel,58.82352941,64135be84e85d83aff484ef4,64ce5acb97489d65b14ecc7a,64cf495275e78ea91669569c,,,,,,,sngl,resources/DG.BMP,resources/Empty.png,Door1,-0.209541628,0.020112254,1,0,0,0.761,optionLeft,30,13575,6,30,0,30,0,1,,,,,,,,,,,,,,,,,,,,,,,,,,,,,,,,,,,,,,,
,,,,,,,,2023-08-06_08h19.01.203,HF_wild_card,2022.2.4,MacIntel,58.82352941,64135be84e85d83aff484ef4,64ce5acb97489d65b14ecc7a,64cf495275e78ea91669569c,,,,,,,sngl,resources/Empty.png,resources/DB.BMP,Door4,0.289055192,0.021047708,1,0,0,0.678,optionRight,80,13655,6,31,0,31,0,1,,,,,,,,,,,,,,,,,,,,,,,,,,,,,,,,,,,,,,,
,,,,,,,,2023-08-06_08h19.01.203,HF_wild_card,2022.2.4,MacIntel,58.82352941,64135be84e85d83aff484ef4,64ce5acb97489d65b14ecc7a,64cf495275e78ea91669569c,,,,,,,sngl,resources/Empty.png,resources/DY.BMP,Door2,0.372310571,-0.001403181,1,0,0,1.246,optionRight,40,13695,6,32,0,32,0,1,,,,,,,,,,,,,,,,,,,,,,,,,,,,,,,,,,,,,,,
,,,,,,,,2023-08-06_08h19.01.203,HF_wild_card,2022.2.4,MacIntel,58.82352941,64135be84e85d83aff484ef4,64ce5acb97489d65b14ecc7a,64cf495275e78ea91669569c,,,,,,,decisionTrl,resources/DP.BMP,resources/DB.BMP,Door3,-0.309635173,-0.010757717,1,0,0,1.779,optionLeft,70,13765,6,33,0,33,0,1,,,,,,,,,,,,,,,,,,,,,,,,,,,,,,,,,,,,,,,
,,,,,,,,2023-08-06_08h19.01.203,HF_wild_card,2022.2.4,MacIntel,58.82352941,64135be84e85d83aff484ef4,64ce5acb97489d65b14ecc7a,64cf495275e78ea91669569c,,,,,,,decisionTrl,resources/DBN.BMP,resources/DB.BMP,Door4,0.382600561,-0.082787652,1,0,0,0.912,optionRight,80,13845,6,34,0,34,0,1,,,,,,,,,,,,,,,,,,,,,,,,,,,,,,,,,,,,,,,
,,,,,,,,2023-08-06_08h19.01.203,HF_wild_card,2022.2.4,MacIntel,58.82352941,64135be84e85d83aff484ef4,64ce5acb97489d65b14ecc7a,64cf495275e78ea91669569c,,,,,,,decisionTrl,resources/DB.BMP,resources/DP.BMP,Door4,-0.251637044,0.004209542,1,0,0,0.912,optionLeft,80,13925,6,35,0,35,0,1,,,,,,,,,,,,,,,,,,,,,,,,,,,,,,,,,,,,,,,
,,,,,,,,2023-08-06_08h19.01.203,HF_wild_card,2022.2.4,MacIntel,58.82352941,64135be84e85d83aff484ef4,64ce5acb97489d65b14ecc7a,64cf495275e78ea91669569c,,,,,,,decisionTrl,resources/DG.BMP,resources/DY.BMP,Door2,0.224508887,-0.004209542,1,0,0,1.33,optionRight,40,13965,6,36,0,36,0,1,,,,,,,,,,,,,,,,,,,,,,,,,,,,,,,,,,,,,,,
,,,,,,,,2023-08-06_08h19.01.203,HF_wild_card,2022.2.4,MacIntel,58.82352941,64135be84e85d83aff484ef4,64ce5acb97489d65b14ecc7a,64cf495275e78ea91669569c,,,,,,,sngl,resources/Empty.png,resources/DP.BMP,Door3,0.244153414,0.018241347,1,0,0,0.778,optionRight,70,14035,6,37,0,37,0,1,,,,,,,,,,,,,,,,,,,,,,,,,,,,,,,,,,,,,,,
,,,,,,,,2023-08-06_08h19.01.203,HF_wild_card,2022.2.4,MacIntel,58.82352941,64135be84e85d83aff484ef4,64ce5acb97489d65b14ecc7a,64cf495275e78ea91669569c,,,,,,,ctch,resources/DY.BMP,resources/DP.BMP,Door3,0.339569691,-0.011693171,1,0,0,1.046,optionRight,70,14105,6,38,0,38,0,1,,,,,,,,,,,,,,,,,,,,,,,,,,,,,,,,,,,,,,,
,,,,,,,,2023-08-06_08h19.01.203,HF_wild_card,2022.2.4,MacIntel,58.82352941,64135be84e85d83aff484ef4,64ce5acb97489d65b14ecc7a,64cf495275e78ea91669569c,,,,,,,decisionTrl,resources/DBN.BMP,resources/DP.BMP,Door3,0.249766137,-0.012628625,1,0,0,1.397,optionRight,70,14175,6,39,0,39,0,1,,,,,,,,,,,,,,,,,,,,,,,,,,,,,,,,,,,,,,,
,,,,,,,,2023-08-06_08h19.01.203,HF_wild_card,2022.2.4,MacIntel,58.82352941,64135be84e85d83aff484ef4,64ce5acb97489d65b14ecc7a,64cf495275e78ea91669569c,,,,,,,ctch,resources/DP.BMP,resources/DY.BMP,Door3,-0.281571562,0.044434051,1,0,0,0.763,optionLeft,70,14245,6,40,0,40,0,1,,,,,,,,,,,,,,,,,,,,,,,,,,,,,,,,,,,,,,,
,,,,,,,,2023-08-06_08h19.01.203,HF_wild_card,2022.2.4,MacIntel,58.82352941,64135be84e85d83aff484ef4,64ce5acb97489d65b14ecc7a,64cf495275e78ea91669569c,,,,,,,sngl,resources/DBN.BMP,resources/Empty.png,WildCard_NonEx,-0.291861553,-0.007951356,1,0,0,0.879,optionLeft,55,14300,6,41,0,41,0,1,,,,,,,,,,,,,,,,,,,,,,,,,,,,,,,,,,,,,,,
,,,,,,,,2023-08-06_08h19.01.203,HF_wild_card,2022.2.4,MacIntel,58.82352941,64135be84e85d83aff484ef4,64ce5acb97489d65b14ecc7a,64cf495275e78ea91669569c,,,,,,,decisionTrl,resources/DBN.BMP,resources/DG.BMP,Door1,0.245088868,-0.011693171,1,0,0,1.712,optionRight,30,14330,6,42,0,42,0,1,,,,,,,,,,,,,,,,,,,,,,,,,,,,,,,,,,,,,,,
,,,,,,,,2023-08-06_08h19.01.203,HF_wild_card,2022.2.4,MacIntel,58.82352941,64135be84e85d83aff484ef4,64ce5acb97489d65b14ecc7a,64cf495275e78ea91669569c,,,,,,,decisionTrl,resources/DY.BMP,resources/DBN.BMP,WildCard_NonEx,0.447146866,0.025724977,1,0,0,1.213,optionRight,45,14375,6,43,0,43,0,1,,,,,,,,,,,,,,,,,,,,,,,,,,,,,,,,,,,,,,,
,,,,,,,,2023-08-06_08h19.01.203,HF_wild_card,2022.2.4,MacIntel,58.82352941,64135be84e85d83aff484ef4,64ce5acb97489d65b14ecc7a,64cf495275e78ea91669569c,,,,,,,,,,,,,,,,,,,,,,,,,,5,0,5,0,1,,,,,,,,,,,,,,,,,,,,,,,,,,,,,,,,,,
,,,,,,,,2023-08-06_08h19.01.203,HF_wild_card,2022.2.4,MacIntel,58.82352941,64135be84e85d83aff484ef4,64ce5acb97489d65b14ecc7a,64cf495275e78ea91669569c,,,,,,,decisionTrl,resources/DP.BMP,resources/DB.BMP,Door3,-0.316183349,-0.09494855,1,0,0,3.106,optionLeft,70,14445,7,0,0,0,0,1,,,,,,,,,,,,,,,,,,,,,,,,,,,,,,,,,,,,,,,
,,,,,,,,2023-08-06_08h19.01.203,HF_wild_card,2022.2.4,MacIntel,58.82352941,64135be84e85d83aff484ef4,64ce5acb97489d65b14ecc7a,64cf495275e78ea91669569c,,,,,,,ctch,resources/DP.BMP,resources/DY.BMP,Door3,-0.335827877,0.067820393,1,0,0,0.832,optionLeft,70,14515,7,1,0,1,0,1,,,,,,,,,,,,,,,,,,,,,,,,,,,,,,,,,,,,,,,
,,,,,,,,2023-08-06_08h19.01.203,HF_wild_card,2022.2.4,MacIntel,58.82352941,64135be84e85d83aff484ef4,64ce5acb97489d65b14ecc7a,64cf495275e78ea91669569c,,,,,,,ctch,resources/DG.BMP,resources/DB.BMP,Door4,0.495790458,0.056594949,1,0,0,1.23,optionRight,60,14575,7,2,0,2,0,1,,,,,,,,,,,,,,,,,,,,,,,,,,,,,,,,,,,,,,,
,,,,,,,,2023-08-06_08h19.01.203,HF_wild_card,2022.2.4,MacIntel,58.82352941,64135be84e85d83aff484ef4,64ce5acb97489d65b14ecc7a,64cf495275e78ea91669569c,,,,,,,decisionTrl,resources/DG.BMP,resources/DY.BMP,Door1,-0.262862488,0.037885875,1,0,0,0.831,optionLeft,30,14605,7,3,0,3,0,1,,,,,,,,,,,,,,,,,,,,,,,,,,,,,,,,,,,,,,,
,,,,,,,,2023-08-06_08h19.01.203,HF_wild_card,2022.2.4,MacIntel,58.82352941,64135be84e85d83aff484ef4,64ce5acb97489d65b14ecc7a,64cf495275e78ea91669569c,,,,,,,decisionTrl,resources/DP.BMP,resources/DB.BMP,Door3,-0.339569691,0.023854069,1,0,0,1.048,optionLeft,70,14675,7,4,0,4,0,1,,,,,,,,,,,,,,,,,,,,,,,,,,,,,,,,,,,,,,,
,,,,,,,,2023-08-06_08h19.01.203,HF_wild_card,2022.2.4,MacIntel,58.82352941,64135be84e85d83aff484ef4,64ce5acb97489d65b14ecc7a,64cf495275e78ea91669569c,,,,,,,ctch,resources/DP.BMP,resources/DY.BMP,Door3,-0.417212348,0.020112254,1,0,0,0.814,optionLeft,70,14745,7,5,0,5,0,1,,,,,,,,,,,,,,,,,,,,,,,,,,,,,,,,,,,,,,,
,,,,,,,,2023-08-06_08h19.01.203,HF_wild_card,2022.2.4,MacIntel,58.82352941,64135be84e85d83aff484ef4,64ce5acb97489d65b14ecc7a,64cf495275e78ea91669569c,,,,,,,decisionTrl,resources/DB.BMP,resources/DP.BMP,Door3,0.342376052,0.011693171,1,0,0,1.182,optionRight,70,14815,7,6,0,6,0,1,,,,,,,,,,,,,,,,,,,,,,,,,,,,,,,,,,,,,,,
,,,,,,,,2023-08-06_08h19.01.203,HF_wild_card,2022.2.4,MacIntel,58.82352941,64135be84e85d83aff484ef4,64ce5acb97489d65b14ecc7a,64cf495275e78ea91669569c,,,,,,,decisionTrl,resources/DY.BMP,resources/DG.BMP,Door2,-0.302151543,0.032273152,1,0,0,1.249,optionLeft,20,14835,7,7,0,7,0,1,,,,,,,,,,,,,,,,,,,,,,,,,,,,,,,,,,,,,,,
,,,,,,,,2023-08-06_08h19.01.203,HF_wild_card,2022.2.4,MacIntel,58.82352941,64135be84e85d83aff484ef4,64ce5acb97489d65b14ecc7a,64cf495275e78ea91669569c,,,,,,,ctch,resources/DY.BMP,resources/DP.BMP,Door3,0.267539757,0.001403181,1,0,0,0.849,optionRight,70,14905,7,8,0,8,0,1,,,,,,,,,,,,,,,,,,,,,,,,,,,,,,,,,,,,,,,
,,,,,,,,2023-08-06_08h19.01.203,HF_wild_card,2022.2.4,MacIntel,58.82352941,64135be84e85d83aff484ef4,64ce5acb97489d65b14ecc7a,64cf495275e78ea91669569c,,,,,,,decisionTrl,resources/DB.BMP,resources/DP.BMP,Door3,0.314312442,0.015434986,1,0,0,1.047,optionRight,70,14975,7,9,0,9,0,1,,,,,,,,,,,,,,,,,,,,,,,,,,,,,,,,,,,,,,,
,,,,,,,,2023-08-06_08h19.01.203,HF_wild_card,2022.2.4,MacIntel,58.82352941,64135be84e85d83aff484ef4,64ce5acb97489d65b14ecc7a,64cf495275e78ea91669569c,,,,,,,decisionTrl,resources/DB.BMP,resources/DP.BMP,Door3,0.233863424,0.032273152,1,0,0,0.798,optionRight,70,15045,7,10,0,10,0,1,,,,,,,,,,,,,,,,,,,,,,,,,,,,,,,,,,,,,,,
,,,,,,,,2023-08-06_08h19.01.203,HF_wild_card,2022.2.4,MacIntel,58.82352941,64135be84e85d83aff484ef4,64ce5acb97489d65b14ecc7a,64cf495275e78ea91669569c,,,,,,,decisionTrl,resources/DB.BMP,resources/DP.BMP,Door3,0.231992516,0.019176801,1,0,0,0.682,optionRight,70,15115,7,11,0,11,0,1,,,,,,,,,,,,,,,,,,,,,,,,,,,,,,,,,,,,,,,
,,,,,,,,2023-08-06_08h19.01.203,HF_wild_card,2022.2.4,MacIntel,58.82352941,64135be84e85d83aff484ef4,64ce5acb97489d65b14ecc7a,64cf495275e78ea91669569c,,,,,,,decisionTrl,resources/DG.BMP,resources/DY.BMP,Door2,0.187090739,0.002338634,1,0,0,1.449,optionRight,20,15135,7,12,0,12,0,1,,,,,,,,,,,,,,,,,,,,,,,,,,,,,,,,,,,,,,,
,,,,,,,,2023-08-06_08h19.01.203,HF_wild_card,2022.2.4,MacIntel,58.82352941,64135be84e85d83aff484ef4,64ce5acb97489d65b14ecc7a,64cf495275e78ea91669569c,,,,,,,decisionTrl,resources/DG.BMP,resources/DY.BMP,Door2,0.244153414,-0.005144995,1,0,0,1.432,optionRight,40,15175,7,13,0,13,0,1,,,,,,,,,,,,,,,,,,,,,,,,,,,,,,,,,,,,,,,
,,,,,,,,2023-08-06_08h19.01.203,HF_wild_card,2022.2.4,MacIntel,58.82352941,64135be84e85d83aff484ef4,64ce5acb97489d65b14ecc7a,64cf495275e78ea91669569c,,,,,,,decisionTrl,resources/DP.BMP,resources/DB.BMP,Door3,-0.381665108,0.015434986,1,0,0,0.965,optionLeft,70,15245,7,14,0,14,0,1,,,,,,,,,,,,,,,,,,,,,,,,,,,,,,,,,,,,,,,
,,,,,,,,2023-08-06_08h19.01.203,HF_wild_card,2022.2.4,MacIntel,58.82352941,64135be84e85d83aff484ef4,64ce5acb97489d65b14ecc7a,64cf495275e78ea91669569c,,,,,,,decisionTrl,resources/DG.BMP,resources/DY.BMP,Door1,-0.359214219,0.029466791,1,0,0,0.982,optionLeft,30,15275,7,15,0,15,0,1,,,,,,,,,,,,,,,,,,,,,,,,,,,,,,,,,,,,,,,
,,,,,,,,2023-08-06_08h19.01.203,HF_wild_card,2022.2.4,MacIntel,58.82352941,64135be84e85d83aff484ef4,64ce5acb97489d65b14ecc7a,64cf495275e78ea91669569c,,,,,,,ctch,resources/DB.BMP,resources/DG.BMP,Door4,-0.264733396,-0.003274088,1,0,0,1.115,optionLeft,80,15355,7,16,0,16,0,1,,,,,,,,,,,,,,,,,,,,,,,,,,,,,,,,,,,,,,,
,,,,,,,,2023-08-06_08h19.01.203,HF_wild_card,2022.2.4,MacIntel,58.82352941,64135be84e85d83aff484ef4,64ce5acb97489d65b14ecc7a,64cf495275e78ea91669569c,,,,,,,decisionTrl,resources/DY.BMP,resources/DG.BMP,Door1,0.305893358,0.063143124,1,0,0,1.016,optionRight,30,15385,7,17,0,17,0,1,,,,,,,,,,,,,,,,,,,,,,,,,,,,,,,,,,,,,,,
,,,,,,,,2023-08-06_08h19.01.203,HF_wild_card,2022.2.4,MacIntel,58.82352941,64135be84e85d83aff484ef4,64ce5acb97489d65b14ecc7a,64cf495275e78ea91669569c,,,,,,,decisionTrl,resources/DY.BMP,resources/DG.BMP,Door1,0.363891487,0.007951356,1,0,0,1.2,optionRight,30,15415,7,18,0,18,0,1,,,,,,,,,,,,,,,,,,,,,,,,,,,,,,,,,,,,,,,
,,,,,,,,2023-08-06_08h19.01.203,HF_wild_card,2022.2.4,MacIntel,58.82352941,64135be84e85d83aff484ef4,64ce5acb97489d65b14ecc7a,64cf495275e78ea91669569c,,,,,,,decisionTrl,resources/DB.BMP,resources/DP.BMP,Door3,0.300280636,-0.002338634,1,0,0,1.115,optionRight,70,15485,7,19,0,19,0,1,,,,,,,,,,,,,,,,,,,,,,,,,,,,,,,,,,,,,,,
,,,,,,,,2023-08-06_08h19.01.203,HF_wild_card,2022.2.4,MacIntel,58.82352941,64135be84e85d83aff484ef4,64ce5acb97489d65b14ecc7a,64cf495275e78ea91669569c,,,,,,,decisionTrl,resources/DY.BMP,resources/DG.BMP,Door2,-0.408793265,-0.011693171,1,0,0,1.849,optionLeft,40,15525,7,20,0,20,0,1,,,,,,,,,,,,,,,,,,,,,,,,,,,,,,,,,,,,,,,
,,,,,,,,2023-08-06_08h19.01.203,HF_wild_card,2022.2.4,MacIntel,58.82352941,64135be84e85d83aff484ef4,64ce5acb97489d65b14ecc7a,64cf495275e78ea91669569c,,,,,,,decisionTrl,resources/DY.BMP,resources/DG.BMP,Door2,-0.308699719,0.01637044,1,0,0,0.915,optionLeft,40,15565,7,21,0,21,0,1,,,,,,,,,,,,,,,,,,,,,,,,,,,,,,,,,,,,,,,
,,,,,,,,2023-08-06_08h19.01.203,HF_wild_card,2022.2.4,MacIntel,58.82352941,64135be84e85d83aff484ef4,64ce5acb97489d65b14ecc7a,64cf495275e78ea91669569c,,,,,,,ctch,resources/DY.BMP,resources/DP.BMP,Door3,0.308699719,-0.029466791,1,0,0,1.082,optionRight,70,15635,7,22,0,22,0,1,,,,,,,,,,,,,,,,,,,,,,,,,,,,,,,,,,,,,,,
,,,,,,,,2023-08-06_08h19.01.203,HF_wild_card,2022.2.4,MacIntel,58.82352941,64135be84e85d83aff484ef4,64ce5acb97489d65b14ecc7a,64cf495275e78ea91669569c,,,,,,,ctch,resources/DY.BMP,resources/DP.BMP,Door3,0.319925164,0.003274088,1,0,0,0.733,optionRight,70,15705,7,23,0,23,0,1,,,,,,,,,,,,,,,,,,,,,,,,,,,,,,,,,,,,,,,
,,,,,,,,2023-08-06_08h19.01.203,HF_wild_card,2022.2.4,MacIntel,58.82352941,64135be84e85d83aff484ef4,64ce5acb97489d65b14ecc7a,64cf495275e78ea91669569c,,,,,,,decisionTrl,resources/DP.BMP,resources/DB.BMP,Door3,-0.345182413,-0.000467727,1,0,0,0.931,optionLeft,70,15775,7,24,0,24,0,1,,,,,,,,,,,,,,,,,,,,,,,,,,,,,,,,,,,,,,,
,,,,,,,,2023-08-06_08h19.01.203,HF_wild_card,2022.2.4,MacIntel,58.82352941,64135be84e85d83aff484ef4,64ce5acb97489d65b14ecc7a,64cf495275e78ea91669569c,,,,,,,ctch,resources/DG.BMP,resources/DB.BMP,Door4,0.313376988,0.009822264,1,0,0,0.782,optionRight,80,15855,7,25,0,25,0,1,,,,,,,,,,,,,,,,,,,,,,,,,,,,,,,,,,,,,,,
,,,,,,,,2023-08-06_08h19.01.203,HF_wild_card,2022.2.4,MacIntel,58.82352941,64135be84e85d83aff484ef4,64ce5acb97489d65b14ecc7a,64cf495275e78ea91669569c,,,,,,,decisionTrl,resources/DP.BMP,resources/DB.BMP,Door3,-0.373246024,0.022918616,1,0,0,0.848,optionLeft,70,15925,7,26,0,26,0,1,,,,,,,,,,,,,,,,,,,,,,,,,,,,,,,,,,,,,,,
,,,,,,,,2023-08-06_08h19.01.203,HF_wild_card,2022.2.4,MacIntel,58.82352941,64135be84e85d83aff484ef4,64ce5acb97489d65b14ecc7a,64cf495275e78ea91669569c,,,,,,,ctch,resources/DB.BMP,resources/DG.BMP,Door4,-0.241347053,0.001403181,1,0,0,1.281,optionLeft,60,15985,7,27,0,27,0,1,,,,,,,,,,,,,,,,,,,,,,,,,,,,,,,,,,,,,,,
,,,,,,,,2023-08-06_08h19.01.203,HF_wild_card,2022.2.4,MacIntel,58.82352941,64135be84e85d83aff484ef4,64ce5acb97489d65b14ecc7a,64cf495275e78ea91669569c,,,,,,,ctch,resources/DP.BMP,resources/DY.BMP,Door3,-0.399438728,-0.032273152,1,0,0,0.699,optionLeft,70,16055,7,28,0,28,0,1,,,,,,,,,,,,,,,,,,,,,,,,,,,,,,,,,,,,,,,
,,,,,,,,2023-08-06_08h19.01.203,HF_wild_card,2022.2.4,MacIntel,58.82352941,64135be84e85d83aff484ef4,64ce5acb97489d65b14ecc7a,64cf495275e78ea91669569c,,,,,,,decisionTrl,resources/DG.BMP,resources/DY.BMP,Door1,-0.322731525,-0.020112254,1,0,0,1.132,optionLeft,30,16085,7,29,0,29,0,1,,,,,,,,,,,,,,,,,,,,,,,,,,,,,,,,,,,,,,,
,,,,,,,,2023-08-06_08h19.01.203,HF_wild_card,2022.2.4,MacIntel,58.82352941,64135be84e85d83aff484ef4,64ce5acb97489d65b14ecc7a,64cf495275e78ea91669569c,,,,,,,ctch,resources/DB.BMP,resources/DG.BMP,Door4,-0.391955098,-0.004209542,1,0,0,0.932,optionLeft,60,16145,7,30,0,30,0,1,,,,,,,,,,,,,,,,,,,,,,,,,,,,,,,,,,,,,,,
,,,,,,,,2023-08-06_08h19.01.203,HF_wild_card,2022.2.4,MacIntel,58.82352941,64135be84e85d83aff484ef4,64ce5acb97489d65b14ecc7a,64cf495275e78ea91669569c,,,,,,,decisionTrl,resources/DG.BMP,resources/DY.BMP,Door1,-0.390084191,-0.035079514,1,0,0,0.748,optionLeft,30,16175,7,31,0,31,0,1,,,,,,,,,,,,,,,,,,,,,,,,,,,,,,,,,,,,,,,
,,,,,,,,2023-08-06_08h19.01.203,HF_wild_card,2022.2.4,MacIntel,58.82352941,64135be84e85d83aff484ef4,64ce5acb97489d65b14ecc7a,64cf495275e78ea91669569c,,,,,,,decisionTrl,resources/DY.BMP,resources/DG.BMP,Door2,-0.335827877,0.015434986,1,0,0,0.731,optionLeft,40,16215,7,32,0,32,0,1,,,,,,,,,,,,,,,,,,,,,,,,,,,,,,,,,,,,,,,
,,,,,,,,2023-08-06_08h19.01.203,HF_wild_card,2022.2.4,MacIntel,58.82352941,64135be84e85d83aff484ef4,64ce5acb97489d65b14ecc7a,64cf495275e78ea91669569c,,,,,,,decisionTrl,resources/DB.BMP,resources/DP.BMP,Door3,0.38727783,-0.027595884,1,0,0,1.016,optionRight,70,16285,7,33,0,33,0,1,,,,,,,,,,,,,,,,,,,,,,,,,,,,,,,,,,,,,,,
,,,,,,,,2023-08-06_08h19.01.203,HF_wild_card,2022.2.4,MacIntel,58.82352941,64135be84e85d83aff484ef4,64ce5acb97489d65b14ecc7a,64cf495275e78ea91669569c,,,,,,,ctch,resources/DG.BMP,resources/DB.BMP,Door4,0.355472404,-0.030402245,1,0,0,1.782,optionRight,60,16345,7,34,0,34,0,1,,,,,,,,,,,,,,,,,,,,,,,,,,,,,,,,,,,,,,,
,,,,,,,,2023-08-06_08h19.01.203,HF_wild_card,2022.2.4,MacIntel,58.82352941,64135be84e85d83aff484ef4,64ce5acb97489d65b14ecc7a,64cf495275e78ea91669569c,,,,,,,decisionTrl,resources/DP.BMP,resources/DB.BMP,Door3,-0.371375117,-0.035079514,1,0,0,2.666,optionLeft,70,16415,7,35,0,35,0,1,,,,,,,,,,,,,,,,,,,,,,,,,,,,,,,,,,,,,,,
,,,,,,,,2023-08-06_08h19.01.203,HF_wild_card,2022.2.4,MacIntel,58.82352941,64135be84e85d83aff484ef4,64ce5acb97489d65b14ecc7a,64cf495275e78ea91669569c,,,,,,,,,,,,,,,,,,,,,,,,,,6,0,6,0,1,,,,,,,,,,,,,,,,,,,,,,,,,,,,,,,,,,
,,,,,,,,2023-08-06_08h19.01.203,HF_wild_card,2022.2.4,MacIntel,58.82352941,64135be84e85d83aff484ef4,64ce5acb97489d65b14ecc7a,64cf495275e78ea91669569c,,,,,,,,,,,,,,,,,,,,,,,,,,,,,,,4,,,,,,,,,,,,,,,,,,,,,,,,,,,,,,,,,
,,,,,,,,2023-08-06_08h19.01.203,HF_wild_card,2022.2.4,MacIntel,58.82352941,64135be84e85d83aff484ef4,64ce5acb97489d65b14ecc7a,64cf495275e78ea91669569c,,,,,,,,,,,,,,,,,,,,,,,,,,,,,,,,,,,,,,,,,,,,,,,,,,,,,,,,,,,,,,,,
,,,,,,,,2023-08-06_08h19.01.203,HF_wild_card,2022.2.4,MacIntel,58.82352941,64135be84e85d83aff484ef4,64ce5acb97489d65b14ecc7a,64cf495275e78ea91669569c,,,,,,,,,,,,,,,,,,,,,,,,,,,,,,,,80,Door3,resources/DP.BMP,0,0,0,0,1,,,,,,,,,,,,,,,,,,,,,,,,,
,,,,,,,,2023-08-06_08h19.01.203,HF_wild_card,2022.2.4,MacIntel,58.82352941,64135be84e85d83aff484ef4,64ce5acb97489d65b14ecc7a,64cf495275e78ea91669569c,,,,,,,,,,,,,,,,,,,,,,,,,,,,,,,,30,Door1,resources/DG.BMP,1,0,1,0,1,,,,,,,,,,,,,,,,,,,,,,,,,
,,,,,,,,2023-08-06_08h19.01.203,HF_wild_card,2022.2.4,MacIntel,58.82352941,64135be84e85d83aff484ef4,64ce5acb97489d65b14ecc7a,64cf495275e78ea91669569c,,,,,,,,,,,,,,,,,,,,,,,,,,,,,,,,40,Door2,resources/DY.BMP,2,0,2,0,1,,,,,,,,,,,,,,,,,,,,,,,,,
,,,,,,,,2023-08-06_08h19.01.203,HF_wild_card,2022.2.4,MacIntel,58.82352941,64135be84e85d83aff484ef4,64ce5acb97489d65b14ecc7a,64cf495275e78ea91669569c,,,,,,,,,,,,,,,,,,,,,,,,,,,,,,,,55,WC_nonExtreme,resources/DBN.BMP,3,0,3,0,1,,,,,,,,,,,,,,,,,,,,,,,,,
