Condition,Low fixed image (Door1),Low risky image (Door2),High fixed image (Door3),High risky image (Door4),Extreme Wild Card,NonExtreme Wild Card,,date,expName,psychopyVersion,OS,frameRate,PROLIFIC_PID,STUDY_ID,SESSION_ID,mouse_2.x,mouse_2.y,mouse_2.leftButton,mouse_2.midButton,mouse_2.rightButton,mouse_2.clicked_name,Trial Type,Left Option Image,Right Option Image,Chosen Door,mouse.x,mouse.y,mouse.leftButton,mouse.midButton,mouse.rightButton,mouse.time,mouse.clicked_name,Feedback,Cumulative Reward,Block,trial.thisRepN,trial.thisTrialN,trial.thisN,trial.thisIndex,trial.ran,blocks.thisRepN,blocks.thisTrialN,blocks.thisN,blocks.thisIndex,blocks.ran,Money conversion,First Outcome Reported,Shown Door (First Outcome),Displayed Image (First Outcome),outcomes.thisRepN,outcomes.thisTrialN,outcomes.thisN,outcomes.thisIndex,outcomes.ran,judgments.thisRepN,judgments.thisTrialN,judgments.thisN,judgments.thisIndex,judgments.ran,freqMouse.x,freqMouse.y,freqMouse.leftButton,freqMouse.midButton,freqMouse.rightButton,freqMouse.clicked_name,FQJ for first outcome,FQJ for second outcome,Shown Door,Displayed Image,trials.thisRepN,trials.thisTrialN,trials.thisN,trials.thisIndex,trials.ran,judgBlock.thisRepN,judgBlock.thisTrialN,judgBlock.thisN,judgBlock.thisIndex,judgBlock.ran
0,resources/DR.BMP,resources/DY.BMP,resources/DB.BMP,resources/DP.BMP,resources/DG.BMP,resources/DBN.BMP,,2023-08-16_08h49.07.545,HF_wild_card,2022.2.4,MacIntel,55.55555556,6027d7c787d2e926857eafc5,64d2fd46c836a06233681665,64dc7f4fb1882173e1f02fda,,,,,,,,,,,,,,,,,,,,,,,,,,,,,,,,,,,,,,,,,,,,,,,,,,,,,,,,,,,,,,,,
,,,,,,,,2023-08-16_08h49.07.545,HF_wild_card,2022.2.4,MacIntel,55.55555556,6027d7c787d2e926857eafc5,64d2fd46c836a06233681665,64dc7f4fb1882173e1f02fda,-0.002222222,-0.427777778,1,0,0,agree,,,,,,,,,,,,,,,,,,,,,,,,,,,,,,,,,,,,,,,,,,,,,,,,,,,,,,,,,,
,,,,,,,,2023-08-16_08h49.07.545,HF_wild_card,2022.2.4,MacIntel,55.55555556,6027d7c787d2e926857eafc5,64d2fd46c836a06233681665,64dc7f4fb1882173e1f02fda,,,,,,,,,,,,,,,,,,,,,,,,,,,,,,,,,,,,,,,,,,,,,,,,,,,,,,,,,,,,,,,,
,,,,,,,,2023-08-16_08h49.07.545,HF_wild_card,2022.2.4,MacIntel,55.55555556,6027d7c787d2e926857eafc5,64d2fd46c836a06233681665,64dc7f4fb1882173e1f02fda,,,,,,,ctch,resources/DB.BMP,resources/DY.BMP,Door2,0.214444444,-0.004444444,1,0,0,3.986,optionRight,20,20,1,0,0,0,0,1,,,,,,,,,,,,,,,,,,,,,,,,,,,,,,,,,,,,,,,
,,,,,,,,2023-08-16_08h49.07.545,HF_wild_card,2022.2.4,MacIntel,55.55555556,6027d7c787d2e926857eafc5,64d2fd46c836a06233681665,64dc7f4fb1882173e1f02fda,,,,,,,decisionTrl,resources/DR.BMP,resources/DY.BMP,Door2,0.144444444,0.001111111,1,0,0,1.977,optionRight,20,40,1,1,0,1,0,1,,,,,,,,,,,,,,,,,,,,,,,,,,,,,,,,,,,,,,,
,,,,,,,,2023-08-16_08h49.07.545,HF_wild_card,2022.2.4,MacIntel,55.55555556,6027d7c787d2e926857eafc5,64d2fd46c836a06233681665,64dc7f4fb1882173e1f02fda,,,,,,,sngl,resources/DG.BMP,resources/Empty.png,WildCard_Ex,-0.234444444,-0.003333333,1,0,0,1.077,optionLeft,95,135,1,2,0,2,0,1,,,,,,,,,,,,,,,,,,,,,,,,,,,,,,,,,,,,,,,
,,,,,,,,2023-08-16_08h49.07.545,HF_wild_card,2022.2.4,MacIntel,55.55555556,6027d7c787d2e926857eafc5,64d2fd46c836a06233681665,64dc7f4fb1882173e1f02fda,,,,,,,decisionTrl,resources/DB.BMP,resources/DP.BMP,Door3,-0.174444444,-0.005555556,1,0,0,2.478,optionLeft,70,205,1,3,0,3,0,1,,,,,,,,,,,,,,,,,,,,,,,,,,,,,,,,,,,,,,,
,,,,,,,,2023-08-16_08h49.07.545,HF_wild_card,2022.2.4,MacIntel,55.55555556,6027d7c787d2e926857eafc5,64d2fd46c836a06233681665,64dc7f4fb1882173e1f02fda,,,,,,,decisionTrl,resources/DG.BMP,resources/DB.BMP,WildCard_Ex,-0.121111111,-0.005555556,1,0,0,2.126,optionLeft,95,300,1,4,0,4,0,1,,,,,,,,,,,,,,,,,,,,,,,,,,,,,,,,,,,,,,,
,,,,,,,,2023-08-16_08h49.07.545,HF_wild_card,2022.2.4,MacIntel,55.55555556,6027d7c787d2e926857eafc5,64d2fd46c836a06233681665,64dc7f4fb1882173e1f02fda,,,,,,,decisionTrl,resources/DY.BMP,resources/DR.BMP,Door1,0.111111111,-0.008888889,1,0,0,2.311,optionRight,30,330,1,5,0,5,0,1,,,,,,,,,,,,,,,,,,,,,,,,,,,,,,,,,,,,,,,
,,,,,,,,2023-08-16_08h49.07.545,HF_wild_card,2022.2.4,MacIntel,55.55555556,6027d7c787d2e926857eafc5,64d2fd46c836a06233681665,64dc7f4fb1882173e1f02fda,,,,,,,decisionTrl,resources/DR.BMP,resources/DY.BMP,Door2,0.103333333,0.005555556,1,0,0,1.741,optionRight,20,350,1,6,0,6,0,1,,,,,,,,,,,,,,,,,,,,,,,,,,,,,,,,,,,,,,,
,,,,,,,,2023-08-16_08h49.07.545,HF_wild_card,2022.2.4,MacIntel,55.55555556,6027d7c787d2e926857eafc5,64d2fd46c836a06233681665,64dc7f4fb1882173e1f02fda,,,,,,,sngl,resources/DP.BMP,resources/Empty.png,Door4,-0.114444444,-0.021111111,1,0,0,1.529,optionLeft,80,430,1,7,0,7,0,1,,,,,,,,,,,,,,,,,,,,,,,,,,,,,,,,,,,,,,,
,,,,,,,,2023-08-16_08h49.07.545,HF_wild_card,2022.2.4,MacIntel,55.55555556,6027d7c787d2e926857eafc5,64d2fd46c836a06233681665,64dc7f4fb1882173e1f02fda,,,,,,,sngl,resources/DB.BMP,resources/Empty.png,Door3,-0.117777778,-0.017777778,1,0,0,1.112,optionLeft,70,500,1,8,0,8,0,1,,,,,,,,,,,,,,,,,,,,,,,,,,,,,,,,,,,,,,,
,,,,,,,,2023-08-16_08h49.07.545,HF_wild_card,2022.2.4,MacIntel,55.55555556,6027d7c787d2e926857eafc5,64d2fd46c836a06233681665,64dc7f4fb1882173e1f02fda,,,,,,,sngl,resources/Empty.png,resources/DR.BMP,Door1,0.14,-0.014444444,1,0,0,1.028,optionRight,30,530,1,9,0,9,0,1,,,,,,,,,,,,,,,,,,,,,,,,,,,,,,,,,,,,,,,
,,,,,,,,2023-08-16_08h49.07.545,HF_wild_card,2022.2.4,MacIntel,55.55555556,6027d7c787d2e926857eafc5,64d2fd46c836a06233681665,64dc7f4fb1882173e1f02fda,,,,,,,ctch,resources/DR.BMP,resources/DP.BMP,Door4,0.133333333,-0.003333333,1,0,0,1.996,optionRight,80,610,1,10,0,10,0,1,,,,,,,,,,,,,,,,,,,,,,,,,,,,,,,,,,,,,,,
,,,,,,,,2023-08-16_08h49.07.545,HF_wild_card,2022.2.4,MacIntel,55.55555556,6027d7c787d2e926857eafc5,64d2fd46c836a06233681665,64dc7f4fb1882173e1f02fda,,,,,,,decisionTrl,resources/DG.BMP,resources/DR.BMP,WildCard_Ex,-0.131111111,-0.031111111,1,0,0,1.896,optionLeft,5,615,1,11,0,11,0,1,,,,,,,,,,,,,,,,,,,,,,,,,,,,,,,,,,,,,,,
,,,,,,,,2023-08-16_08h49.07.545,HF_wild_card,2022.2.4,MacIntel,55.55555556,6027d7c787d2e926857eafc5,64d2fd46c836a06233681665,64dc7f4fb1882173e1f02fda,,,,,,,sngl,resources/Empty.png,resources/DG.BMP,WildCard_Ex,0.105555556,-0.016666667,1,0,0,1.145,optionRight,95,710,1,12,0,12,0,1,,,,,,,,,,,,,,,,,,,,,,,,,,,,,,,,,,,,,,,
,,,,,,,,2023-08-16_08h49.07.545,HF_wild_card,2022.2.4,MacIntel,55.55555556,6027d7c787d2e926857eafc5,64d2fd46c836a06233681665,64dc7f4fb1882173e1f02fda,,,,,,,decisionTrl,resources/DY.BMP,resources/DG.BMP,Door2,-0.125555556,-0.023333333,1,0,0,1.394,optionLeft,20,730,1,13,0,13,0,1,,,,,,,,,,,,,,,,,,,,,,,,,,,,,,,,,,,,,,,
,,,,,,,,2023-08-16_08h49.07.545,HF_wild_card,2022.2.4,MacIntel,55.55555556,6027d7c787d2e926857eafc5,64d2fd46c836a06233681665,64dc7f4fb1882173e1f02fda,,,,,,,sngl,resources/DG.BMP,resources/Empty.png,WildCard_Ex,-0.118888889,-0.031111111,1,0,0,1.195,optionLeft,5,735,1,14,0,14,0,1,,,,,,,,,,,,,,,,,,,,,,,,,,,,,,,,,,,,,,,
,,,,,,,,2023-08-16_08h49.07.545,HF_wild_card,2022.2.4,MacIntel,55.55555556,6027d7c787d2e926857eafc5,64d2fd46c836a06233681665,64dc7f4fb1882173e1f02fda,,,,,,,decisionTrl,resources/DY.BMP,resources/DR.BMP,Door1,0.125555556,-0.005555556,1,0,0,1.761,optionRight,30,765,1,15,0,15,0,1,,,,,,,,,,,,,,,,,,,,,,,,,,,,,,,,,,,,,,,
,,,,,,,,2023-08-16_08h49.07.545,HF_wild_card,2022.2.4,MacIntel,55.55555556,6027d7c787d2e926857eafc5,64d2fd46c836a06233681665,64dc7f4fb1882173e1f02fda,,,,,,,sngl,resources/DR.BMP,resources/Empty.png,Door1,-0.143333333,-0.022222222,1,0,0,0.895,optionLeft,30,795,1,16,0,16,0,1,,,,,,,,,,,,,,,,,,,,,,,,,,,,,,,,,,,,,,,
,,,,,,,,2023-08-16_08h49.07.545,HF_wild_card,2022.2.4,MacIntel,55.55555556,6027d7c787d2e926857eafc5,64d2fd46c836a06233681665,64dc7f4fb1882173e1f02fda,,,,,,,decisionTrl,resources/DR.BMP,resources/DY.BMP,Door1,-0.164444444,-0.021111111,1,0,0,1.446,optionLeft,30,825,1,17,0,17,0,1,,,,,,,,,,,,,,,,,,,,,,,,,,,,,,,,,,,,,,,
,,,,,,,,2023-08-16_08h49.07.545,HF_wild_card,2022.2.4,MacIntel,55.55555556,6027d7c787d2e926857eafc5,64d2fd46c836a06233681665,64dc7f4fb1882173e1f02fda,,,,,,,ctch,resources/DP.BMP,resources/DR.BMP,Door4,-0.146666667,-0.017777778,1,0,0,1.228,optionLeft,60,885,1,18,0,18,0,1,,,,,,,,,,,,,,,,,,,,,,,,,,,,,,,,,,,,,,,
,,,,,,,,2023-08-16_08h49.07.545,HF_wild_card,2022.2.4,MacIntel,55.55555556,6027d7c787d2e926857eafc5,64d2fd46c836a06233681665,64dc7f4fb1882173e1f02fda,,,,,,,sngl,resources/Empty.png,resources/DB.BMP,Door3,0.138888889,0.006666667,1,0,0,0.96,optionRight,70,955,1,19,0,19,0,1,,,,,,,,,,,,,,,,,,,,,,,,,,,,,,,,,,,,,,,
,,,,,,,,2023-08-16_08h49.07.545,HF_wild_card,2022.2.4,MacIntel,55.55555556,6027d7c787d2e926857eafc5,64d2fd46c836a06233681665,64dc7f4fb1882173e1f02fda,,,,,,,decisionTrl,resources/DP.BMP,resources/DB.BMP,Door3,0.17,0.003333333,1,0,0,0.945,optionRight,70,1025,1,20,0,20,0,1,,,,,,,,,,,,,,,,,,,,,,,,,,,,,,,,,,,,,,,
,,,,,,,,2023-08-16_08h49.07.545,HF_wild_card,2022.2.4,MacIntel,55.55555556,6027d7c787d2e926857eafc5,64d2fd46c836a06233681665,64dc7f4fb1882173e1f02fda,,,,,,,decisionTrl,resources/DP.BMP,resources/DB.BMP,Door3,0.117777778,0.007777778,1,0,0,0.896,optionRight,70,1095,1,21,0,21,0,1,,,,,,,,,,,,,,,,,,,,,,,,,,,,,,,,,,,,,,,
,,,,,,,,2023-08-16_08h49.07.545,HF_wild_card,2022.2.4,MacIntel,55.55555556,6027d7c787d2e926857eafc5,64d2fd46c836a06233681665,64dc7f4fb1882173e1f02fda,,,,,,,sngl,resources/Empty.png,resources/DP.BMP,Door4,0.127777778,0.011111111,1,0,0,0.779,optionRight,60,1155,1,22,0,22,0,1,,,,,,,,,,,,,,,,,,,,,,,,,,,,,,,,,,,,,,,
,,,,,,,,2023-08-16_08h49.07.545,HF_wild_card,2022.2.4,MacIntel,55.55555556,6027d7c787d2e926857eafc5,64d2fd46c836a06233681665,64dc7f4fb1882173e1f02fda,,,,,,,decisionTrl,resources/DB.BMP,resources/DP.BMP,Door3,-0.125555556,-0.011111111,1,0,0,1.211,optionLeft,70,1225,1,23,0,23,0,1,,,,,,,,,,,,,,,,,,,,,,,,,,,,,,,,,,,,,,,
,,,,,,,,2023-08-16_08h49.07.545,HF_wild_card,2022.2.4,MacIntel,55.55555556,6027d7c787d2e926857eafc5,64d2fd46c836a06233681665,64dc7f4fb1882173e1f02fda,,,,,,,decisionTrl,resources/DG.BMP,resources/DY.BMP,Door2,0.122222222,0.003333333,1,0,0,1.929,optionRight,20,1245,1,24,0,24,0,1,,,,,,,,,,,,,,,,,,,,,,,,,,,,,,,,,,,,,,,
,,,,,,,,2023-08-16_08h49.07.545,HF_wild_card,2022.2.4,MacIntel,55.55555556,6027d7c787d2e926857eafc5,64d2fd46c836a06233681665,64dc7f4fb1882173e1f02fda,,,,,,,ctch,resources/DP.BMP,resources/DR.BMP,Door1,0.104444444,0,1,0,0,1.746,optionRight,30,1275,1,25,0,25,0,1,,,,,,,,,,,,,,,,,,,,,,,,,,,,,,,,,,,,,,,
,,,,,,,,2023-08-16_08h49.07.545,HF_wild_card,2022.2.4,MacIntel,55.55555556,6027d7c787d2e926857eafc5,64d2fd46c836a06233681665,64dc7f4fb1882173e1f02fda,,,,,,,ctch,resources/DY.BMP,resources/DB.BMP,Door3,0.144444444,-0.006666667,1,0,0,1.16,optionRight,70,1345,1,26,0,26,0,1,,,,,,,,,,,,,,,,,,,,,,,,,,,,,,,,,,,,,,,
,,,,,,,,2023-08-16_08h49.07.545,HF_wild_card,2022.2.4,MacIntel,55.55555556,6027d7c787d2e926857eafc5,64d2fd46c836a06233681665,64dc7f4fb1882173e1f02fda,,,,,,,decisionTrl,resources/DR.BMP,resources/DY.BMP,Door1,-0.146666667,-0.031111111,1,0,0,2.477,optionLeft,30,1375,1,27,0,27,0,1,,,,,,,,,,,,,,,,,,,,,,,,,,,,,,,,,,,,,,,
,,,,,,,,2023-08-16_08h49.07.545,HF_wild_card,2022.2.4,MacIntel,55.55555556,6027d7c787d2e926857eafc5,64d2fd46c836a06233681665,64dc7f4fb1882173e1f02fda,,,,,,,ctch,resources/DR.BMP,resources/DP.BMP,Door4,0.124444444,0.011111111,1,0,0,0.829,optionRight,80,1455,1,28,0,28,0,1,,,,,,,,,,,,,,,,,,,,,,,,,,,,,,,,,,,,,,,
,,,,,,,,2023-08-16_08h49.07.545,HF_wild_card,2022.2.4,MacIntel,55.55555556,6027d7c787d2e926857eafc5,64d2fd46c836a06233681665,64dc7f4fb1882173e1f02fda,,,,,,,decisionTrl,resources/DP.BMP,resources/DB.BMP,Door4,-0.121111111,-0.008888889,1,0,0,1.244,optionLeft,60,1515,1,29,0,29,0,1,,,,,,,,,,,,,,,,,,,,,,,,,,,,,,,,,,,,,,,
,,,,,,,,2023-08-16_08h49.07.545,HF_wild_card,2022.2.4,MacIntel,55.55555556,6027d7c787d2e926857eafc5,64d2fd46c836a06233681665,64dc7f4fb1882173e1f02fda,,,,,,,decisionTrl,resources/DP.BMP,resources/DG.BMP,Door4,-0.143333333,-0.02,1,0,0,1.163,optionLeft,80,1595,1,30,0,30,0,1,,,,,,,,,,,,,,,,,,,,,,,,,,,,,,,,,,,,,,,
,,,,,,,,2023-08-16_08h49.07.545,HF_wild_card,2022.2.4,MacIntel,55.55555556,6027d7c787d2e926857eafc5,64d2fd46c836a06233681665,64dc7f4fb1882173e1f02fda,,,,,,,sngl,resources/DY.BMP,resources/Empty.png,Door2,-0.118888889,-0.015555556,1,0,0,0.929,optionLeft,40,1635,1,31,0,31,0,1,,,,,,,,,,,,,,,,,,,,,,,,,,,,,,,,,,,,,,,
,,,,,,,,2023-08-16_08h49.07.545,HF_wild_card,2022.2.4,MacIntel,55.55555556,6027d7c787d2e926857eafc5,64d2fd46c836a06233681665,64dc7f4fb1882173e1f02fda,,,,,,,ctch,resources/DB.BMP,resources/DY.BMP,Door3,-0.116666667,-0.015555556,1,0,0,0.997,optionLeft,70,1705,1,32,0,32,0,1,,,,,,,,,,,,,,,,,,,,,,,,,,,,,,,,,,,,,,,
,,,,,,,,2023-08-16_08h49.07.545,HF_wild_card,2022.2.4,MacIntel,55.55555556,6027d7c787d2e926857eafc5,64d2fd46c836a06233681665,64dc7f4fb1882173e1f02fda,,,,,,,sngl,resources/Empty.png,resources/DG.BMP,WildCard_Ex,0.135555556,-0.01,1,0,0,0.962,optionRight,5,1710,1,33,0,33,0,1,,,,,,,,,,,,,,,,,,,,,,,,,,,,,,,,,,,,,,,
,,,,,,,,2023-08-16_08h49.07.545,HF_wild_card,2022.2.4,MacIntel,55.55555556,6027d7c787d2e926857eafc5,64d2fd46c836a06233681665,64dc7f4fb1882173e1f02fda,,,,,,,decisionTrl,resources/DY.BMP,resources/DR.BMP,Door2,-0.131111111,-0.007777778,1,0,0,1.962,optionLeft,40,1750,1,34,0,34,0,1,,,,,,,,,,,,,,,,,,,,,,,,,,,,,,,,,,,,,,,
,,,,,,,,2023-08-16_08h49.07.545,HF_wild_card,2022.2.4,MacIntel,55.55555556,6027d7c787d2e926857eafc5,64d2fd46c836a06233681665,64dc7f4fb1882173e1f02fda,,,,,,,decisionTrl,resources/DP.BMP,resources/DB.BMP,Door4,-0.121111111,-0.003333333,1,0,0,1.446,optionLeft,60,1810,1,35,0,35,0,1,,,,,,,,,,,,,,,,,,,,,,,,,,,,,,,,,,,,,,,
,,,,,,,,2023-08-16_08h49.07.545,HF_wild_card,2022.2.4,MacIntel,55.55555556,6027d7c787d2e926857eafc5,64d2fd46c836a06233681665,64dc7f4fb1882173e1f02fda,,,,,,,decisionTrl,resources/DY.BMP,resources/DR.BMP,Door2,-0.128888889,-0.008888889,1,0,0,2.885,optionLeft,20,1830,1,36,0,36,0,1,,,,,,,,,,,,,,,,,,,,,,,,,,,,,,,,,,,,,,,
,,,,,,,,2023-08-16_08h49.07.545,HF_wild_card,2022.2.4,MacIntel,55.55555556,6027d7c787d2e926857eafc5,64d2fd46c836a06233681665,64dc7f4fb1882173e1f02fda,,,,,,,decisionTrl,resources/DR.BMP,resources/DG.BMP,Door1,-0.146666667,-0.001111111,1,0,0,0.995,optionLeft,30,1860,1,37,0,37,0,1,,,,,,,,,,,,,,,,,,,,,,,,,,,,,,,,,,,,,,,
,,,,,,,,2023-08-16_08h49.07.545,HF_wild_card,2022.2.4,MacIntel,55.55555556,6027d7c787d2e926857eafc5,64d2fd46c836a06233681665,64dc7f4fb1882173e1f02fda,,,,,,,decisionTrl,resources/DB.BMP,resources/DP.BMP,Door4,0.115555556,-0.002222222,1,0,0,1.396,optionRight,80,1940,1,38,0,38,0,1,,,,,,,,,,,,,,,,,,,,,,,,,,,,,,,,,,,,,,,
,,,,,,,,2023-08-16_08h49.07.545,HF_wild_card,2022.2.4,MacIntel,55.55555556,6027d7c787d2e926857eafc5,64d2fd46c836a06233681665,64dc7f4fb1882173e1f02fda,,,,,,,decisionTrl,resources/DB.BMP,resources/DP.BMP,Door4,0.145555556,-0.002222222,1,0,0,1.33,optionRight,80,2020,1,39,0,39,0,1,,,,,,,,,,,,,,,,,,,,,,,,,,,,,,,,,,,,,,,
,,,,,,,,2023-08-16_08h49.07.545,HF_wild_card,2022.2.4,MacIntel,55.55555556,6027d7c787d2e926857eafc5,64d2fd46c836a06233681665,64dc7f4fb1882173e1f02fda,,,,,,,decisionTrl,resources/DB.BMP,resources/DG.BMP,Door3,-0.15,-0.005555556,1,0,0,1.477,optionLeft,70,2090,1,40,0,40,0,1,,,,,,,,,,,,,,,,,,,,,,,,,,,,,,,,,,,,,,,
,,,,,,,,2023-08-16_08h49.07.545,HF_wild_card,2022.2.4,MacIntel,55.55555556,6027d7c787d2e926857eafc5,64d2fd46c836a06233681665,64dc7f4fb1882173e1f02fda,,,,,,,decisionTrl,resources/DG.BMP,resources/DP.BMP,Door4,0.121111111,0.003333333,1,0,0,1.378,optionRight,80,2170,1,41,0,41,0,1,,,,,,,,,,,,,,,,,,,,,,,,,,,,,,,,,,,,,,,
,,,,,,,,2023-08-16_08h49.07.545,HF_wild_card,2022.2.4,MacIntel,55.55555556,6027d7c787d2e926857eafc5,64d2fd46c836a06233681665,64dc7f4fb1882173e1f02fda,,,,,,,ctch,resources/DY.BMP,resources/DB.BMP,Door3,0.105555556,0.008888889,1,0,0,3.063,optionRight,70,2240,1,42,0,42,0,1,,,,,,,,,,,,,,,,,,,,,,,,,,,,,,,,,,,,,,,
,,,,,,,,2023-08-16_08h49.07.545,HF_wild_card,2022.2.4,MacIntel,55.55555556,6027d7c787d2e926857eafc5,64d2fd46c836a06233681665,64dc7f4fb1882173e1f02fda,,,,,,,sngl,resources/Empty.png,resources/DY.BMP,Door2,0.135555556,0.023333333,1,0,0,0.978,optionRight,20,2260,1,43,0,43,0,1,,,,,,,,,,,,,,,,,,,,,,,,,,,,,,,,,,,,,,,
,,,,,,,,2023-08-16_08h49.07.545,HF_wild_card,2022.2.4,MacIntel,55.55555556,6027d7c787d2e926857eafc5,64d2fd46c836a06233681665,64dc7f4fb1882173e1f02fda,,,,,,,,,,,,,,,,,,,,,,,,,,0,0,0,0,1,,,,,,,,,,,,,,,,,,,,,,,,,,,,,,,,,,
,,,,,,,,2023-08-16_08h49.07.545,HF_wild_card,2022.2.4,MacIntel,55.55555556,6027d7c787d2e926857eafc5,64d2fd46c836a06233681665,64dc7f4fb1882173e1f02fda,,,,,,,ctch,resources/DP.BMP,resources/DR.BMP,Door4,-0.126666667,-0.094444444,1,0,0,2.441,optionLeft,80,2340,2,0,0,0,0,1,,,,,,,,,,,,,,,,,,,,,,,,,,,,,,,,,,,,,,,
,,,,,,,,2023-08-16_08h49.07.545,HF_wild_card,2022.2.4,MacIntel,55.55555556,6027d7c787d2e926857eafc5,64d2fd46c836a06233681665,64dc7f4fb1882173e1f02fda,,,,,,,decisionTrl,resources/DY.BMP,resources/DR.BMP,Door1,0.148888889,0.005555556,1,0,0,2.477,optionRight,30,2370,2,1,0,1,0,1,,,,,,,,,,,,,,,,,,,,,,,,,,,,,,,,,,,,,,,
,,,,,,,,2023-08-16_08h49.07.545,HF_wild_card,2022.2.4,MacIntel,55.55555556,6027d7c787d2e926857eafc5,64d2fd46c836a06233681665,64dc7f4fb1882173e1f02fda,,,,,,,ctch,resources/DB.BMP,resources/DY.BMP,Door3,-0.116666667,0.002222222,1,0,0,1.078,optionLeft,70,2440,2,2,0,2,0,1,,,,,,,,,,,,,,,,,,,,,,,,,,,,,,,,,,,,,,,
,,,,,,,,2023-08-16_08h49.07.545,HF_wild_card,2022.2.4,MacIntel,55.55555556,6027d7c787d2e926857eafc5,64d2fd46c836a06233681665,64dc7f4fb1882173e1f02fda,,,,,,,sngl,resources/DP.BMP,resources/Empty.png,Door4,-0.133333333,-0.004444444,1,0,0,0.762,optionLeft,60,2500,2,3,0,3,0,1,,,,,,,,,,,,,,,,,,,,,,,,,,,,,,,,,,,,,,,
,,,,,,,,2023-08-16_08h49.07.545,HF_wild_card,2022.2.4,MacIntel,55.55555556,6027d7c787d2e926857eafc5,64d2fd46c836a06233681665,64dc7f4fb1882173e1f02fda,,,,,,,ctch,resources/DY.BMP,resources/DB.BMP,Door3,0.114444444,0.024444444,1,0,0,0.93,optionRight,70,2570,2,4,0,4,0,1,,,,,,,,,,,,,,,,,,,,,,,,,,,,,,,,,,,,,,,
,,,,,,,,2023-08-16_08h49.07.545,HF_wild_card,2022.2.4,MacIntel,55.55555556,6027d7c787d2e926857eafc5,64d2fd46c836a06233681665,64dc7f4fb1882173e1f02fda,,,,,,,sngl,resources/DG.BMP,resources/Empty.png,WildCard_Ex,-0.124444444,-0.003333333,1,0,0,1.046,optionLeft,95,2665,2,5,0,5,0,1,,,,,,,,,,,,,,,,,,,,,,,,,,,,,,,,,,,,,,,
,,,,,,,,2023-08-16_08h49.07.545,HF_wild_card,2022.2.4,MacIntel,55.55555556,6027d7c787d2e926857eafc5,64d2fd46c836a06233681665,64dc7f4fb1882173e1f02fda,,,,,,,decisionTrl,resources/DR.BMP,resources/DY.BMP,Door1,-0.133333333,0.011111111,1,0,0,1.929,optionLeft,30,2695,2,6,0,6,0,1,,,,,,,,,,,,,,,,,,,,,,,,,,,,,,,,,,,,,,,
,,,,,,,,2023-08-16_08h49.07.545,HF_wild_card,2022.2.4,MacIntel,55.55555556,6027d7c787d2e926857eafc5,64d2fd46c836a06233681665,64dc7f4fb1882173e1f02fda,,,,,,,sngl,resources/Empty.png,resources/DP.BMP,Door4,0.157777778,0.013333333,1,0,0,0.878,optionRight,80,2775,2,7,0,7,0,1,,,,,,,,,,,,,,,,,,,,,,,,,,,,,,,,,,,,,,,
,,,,,,,,2023-08-16_08h49.07.545,HF_wild_card,2022.2.4,MacIntel,55.55555556,6027d7c787d2e926857eafc5,64d2fd46c836a06233681665,64dc7f4fb1882173e1f02fda,,,,,,,decisionTrl,resources/DR.BMP,resources/DY.BMP,Door1,-0.146666667,0.011111111,1,0,0,1.162,optionLeft,30,2805,2,8,0,8,0,1,,,,,,,,,,,,,,,,,,,,,,,,,,,,,,,,,,,,,,,
,,,,,,,,2023-08-16_08h49.07.545,HF_wild_card,2022.2.4,MacIntel,55.55555556,6027d7c787d2e926857eafc5,64d2fd46c836a06233681665,64dc7f4fb1882173e1f02fda,,,,,,,sngl,resources/DG.BMP,resources/Empty.png,WildCard_Ex,-0.133333333,0.013333333,1,0,0,0.693,optionLeft,5,2810,2,9,0,9,0,1,,,,,,,,,,,,,,,,,,,,,,,,,,,,,,,,,,,,,,,
,,,,,,,,2023-08-16_08h49.07.545,HF_wild_card,2022.2.4,MacIntel,55.55555556,6027d7c787d2e926857eafc5,64d2fd46c836a06233681665,64dc7f4fb1882173e1f02fda,,,,,,,decisionTrl,resources/DP.BMP,resources/DB.BMP,Door4,-0.133333333,0.01,1,0,0,1.33,optionLeft,60,2870,2,10,0,10,0,1,,,,,,,,,,,,,,,,,,,,,,,,,,,,,,,,,,,,,,,
,,,,,,,,2023-08-16_08h49.07.545,HF_wild_card,2022.2.4,MacIntel,55.55555556,6027d7c787d2e926857eafc5,64d2fd46c836a06233681665,64dc7f4fb1882173e1f02fda,,,,,,,decisionTrl,resources/DY.BMP,resources/DR.BMP,Door1,0.132222222,0.016666667,1,0,0,0.995,optionRight,30,2900,2,11,0,11,0,1,,,,,,,,,,,,,,,,,,,,,,,,,,,,,,,,,,,,,,,
,,,,,,,,2023-08-16_08h49.07.545,HF_wild_card,2022.2.4,MacIntel,55.55555556,6027d7c787d2e926857eafc5,64d2fd46c836a06233681665,64dc7f4fb1882173e1f02fda,,,,,,,decisionTrl,resources/DY.BMP,resources/DG.BMP,WildCard_Ex,0.148888889,0.015555556,1,0,0,0.912,optionRight,5,2905,2,12,0,12,0,1,,,,,,,,,,,,,,,,,,,,,,,,,,,,,,,,,,,,,,,
,,,,,,,,2023-08-16_08h49.07.545,HF_wild_card,2022.2.4,MacIntel,55.55555556,6027d7c787d2e926857eafc5,64d2fd46c836a06233681665,64dc7f4fb1882173e1f02fda,,,,,,,decisionTrl,resources/DB.BMP,resources/DP.BMP,Door4,0.157777778,0.011111111,1,0,0,1.279,optionRight,60,2965,2,13,0,13,0,1,,,,,,,,,,,,,,,,,,,,,,,,,,,,,,,,,,,,,,,
,,,,,,,,2023-08-16_08h49.07.545,HF_wild_card,2022.2.4,MacIntel,55.55555556,6027d7c787d2e926857eafc5,64d2fd46c836a06233681665,64dc7f4fb1882173e1f02fda,,,,,,,sngl,resources/Empty.png,resources/DG.BMP,WildCard_Ex,0.155555556,0.008888889,1,0,0,0.845,optionRight,95,3060,2,14,0,14,0,1,,,,,,,,,,,,,,,,,,,,,,,,,,,,,,,,,,,,,,,
,,,,,,,,2023-08-16_08h49.07.545,HF_wild_card,2022.2.4,MacIntel,55.55555556,6027d7c787d2e926857eafc5,64d2fd46c836a06233681665,64dc7f4fb1882173e1f02fda,,,,,,,decisionTrl,resources/DY.BMP,resources/DR.BMP,Door2,-0.158888889,-0.011111111,1,0,0,0.962,optionLeft,40,3100,2,15,0,15,0,1,,,,,,,,,,,,,,,,,,,,,,,,,,,,,,,,,,,,,,,
,,,,,,,,2023-08-16_08h49.07.545,HF_wild_card,2022.2.4,MacIntel,55.55555556,6027d7c787d2e926857eafc5,64d2fd46c836a06233681665,64dc7f4fb1882173e1f02fda,,,,,,,decisionTrl,resources/DB.BMP,resources/DP.BMP,Door3,-0.144444444,-0.005555556,1,0,0,0.945,optionLeft,70,3170,2,16,0,16,0,1,,,,,,,,,,,,,,,,,,,,,,,,,,,,,,,,,,,,,,,
,,,,,,,,2023-08-16_08h49.07.545,HF_wild_card,2022.2.4,MacIntel,55.55555556,6027d7c787d2e926857eafc5,64d2fd46c836a06233681665,64dc7f4fb1882173e1f02fda,,,,,,,decisionTrl,resources/DB.BMP,resources/DP.BMP,Door3,-0.131111111,-0.013333333,1,0,0,0.794,optionLeft,70,3240,2,17,0,17,0,1,,,,,,,,,,,,,,,,,,,,,,,,,,,,,,,,,,,,,,,
,,,,,,,,2023-08-16_08h49.07.545,HF_wild_card,2022.2.4,MacIntel,55.55555556,6027d7c787d2e926857eafc5,64d2fd46c836a06233681665,64dc7f4fb1882173e1f02fda,,,,,,,ctch,resources/DR.BMP,resources/DP.BMP,Door4,0.126666667,0.007777778,1,0,0,0.795,optionRight,60,3300,2,18,0,18,0,1,,,,,,,,,,,,,,,,,,,,,,,,,,,,,,,,,,,,,,,
,,,,,,,,2023-08-16_08h49.07.545,HF_wild_card,2022.2.4,MacIntel,55.55555556,6027d7c787d2e926857eafc5,64d2fd46c836a06233681665,64dc7f4fb1882173e1f02fda,,,,,,,ctch,resources/DR.BMP,resources/DP.BMP,Door4,0.142222222,0.01,1,0,0,0.813,optionRight,60,3360,2,19,0,19,0,1,,,,,,,,,,,,,,,,,,,,,,,,,,,,,,,,,,,,,,,
,,,,,,,,2023-08-16_08h49.07.545,HF_wild_card,2022.2.4,MacIntel,55.55555556,6027d7c787d2e926857eafc5,64d2fd46c836a06233681665,64dc7f4fb1882173e1f02fda,,,,,,,decisionTrl,resources/DB.BMP,resources/DG.BMP,WildCard_Ex,0.155555556,0.014444444,1,0,0,0.878,optionRight,5,3365,2,20,0,20,0,1,,,,,,,,,,,,,,,,,,,,,,,,,,,,,,,,,,,,,,,
,,,,,,,,2023-08-16_08h49.07.545,HF_wild_card,2022.2.4,MacIntel,55.55555556,6027d7c787d2e926857eafc5,64d2fd46c836a06233681665,64dc7f4fb1882173e1f02fda,,,,,,,sngl,resources/Empty.png,resources/DY.BMP,Door2,0.123333333,0.003333333,1,0,0,0.845,optionRight,40,3405,2,21,0,21,0,1,,,,,,,,,,,,,,,,,,,,,,,,,,,,,,,,,,,,,,,
,,,,,,,,2023-08-16_08h49.07.545,HF_wild_card,2022.2.4,MacIntel,55.55555556,6027d7c787d2e926857eafc5,64d2fd46c836a06233681665,64dc7f4fb1882173e1f02fda,,,,,,,decisionTrl,resources/DR.BMP,resources/DG.BMP,WildCard_Ex,0.157777778,0.026666667,1,0,0,0.863,optionRight,5,3410,2,22,0,22,0,1,,,,,,,,,,,,,,,,,,,,,,,,,,,,,,,,,,,,,,,
,,,,,,,,2023-08-16_08h49.07.545,HF_wild_card,2022.2.4,MacIntel,55.55555556,6027d7c787d2e926857eafc5,64d2fd46c836a06233681665,64dc7f4fb1882173e1f02fda,,,,,,,ctch,resources/DP.BMP,resources/DR.BMP,Door4,-0.146666667,0.011111111,1,0,0,0.945,optionLeft,80,3490,2,23,0,23,0,1,,,,,,,,,,,,,,,,,,,,,,,,,,,,,,,,,,,,,,,
,,,,,,,,2023-08-16_08h49.07.545,HF_wild_card,2022.2.4,MacIntel,55.55555556,6027d7c787d2e926857eafc5,64d2fd46c836a06233681665,64dc7f4fb1882173e1f02fda,,,,,,,decisionTrl,resources/DG.BMP,resources/DR.BMP,WildCard_Ex,-0.154444444,0.004444444,1,0,0,0.779,optionLeft,95,3585,2,24,0,24,0,1,,,,,,,,,,,,,,,,,,,,,,,,,,,,,,,,,,,,,,,
,,,,,,,,2023-08-16_08h49.07.545,HF_wild_card,2022.2.4,MacIntel,55.55555556,6027d7c787d2e926857eafc5,64d2fd46c836a06233681665,64dc7f4fb1882173e1f02fda,,,,,,,decisionTrl,resources/DP.BMP,resources/DB.BMP,Door4,-0.153333333,-0.017777778,1,0,0,1.143,optionLeft,60,3645,2,25,0,25,0,1,,,,,,,,,,,,,,,,,,,,,,,,,,,,,,,,,,,,,,,
,,,,,,,,2023-08-16_08h49.07.545,HF_wild_card,2022.2.4,MacIntel,55.55555556,6027d7c787d2e926857eafc5,64d2fd46c836a06233681665,64dc7f4fb1882173e1f02fda,,,,,,,ctch,resources/DB.BMP,resources/DY.BMP,Door3,-0.136666667,0.01,1,0,0,1.295,optionLeft,70,3715,2,26,0,26,0,1,,,,,,,,,,,,,,,,,,,,,,,,,,,,,,,,,,,,,,,
,,,,,,,,2023-08-16_08h49.07.545,HF_wild_card,2022.2.4,MacIntel,55.55555556,6027d7c787d2e926857eafc5,64d2fd46c836a06233681665,64dc7f4fb1882173e1f02fda,,,,,,,decisionTrl,resources/DP.BMP,resources/DB.BMP,Door3,0.152222222,0.004444444,1,0,0,1.029,optionRight,70,3785,2,27,0,27,0,1,,,,,,,,,,,,,,,,,,,,,,,,,,,,,,,,,,,,,,,
,,,,,,,,2023-08-16_08h49.07.545,HF_wild_card,2022.2.4,MacIntel,55.55555556,6027d7c787d2e926857eafc5,64d2fd46c836a06233681665,64dc7f4fb1882173e1f02fda,,,,,,,sngl,resources/DR.BMP,resources/Empty.png,Door1,-0.142222222,0.018888889,1,0,0,0.844,optionLeft,30,3815,2,28,0,28,0,1,,,,,,,,,,,,,,,,,,,,,,,,,,,,,,,,,,,,,,,
,,,,,,,,2023-08-16_08h49.07.545,HF_wild_card,2022.2.4,MacIntel,55.55555556,6027d7c787d2e926857eafc5,64d2fd46c836a06233681665,64dc7f4fb1882173e1f02fda,,,,,,,decisionTrl,resources/DG.BMP,resources/DY.BMP,WildCard_Ex,-0.126666667,0.015555556,1,0,0,0.962,optionLeft,5,3820,2,29,0,29,0,1,,,,,,,,,,,,,,,,,,,,,,,,,,,,,,,,,,,,,,,
,,,,,,,,2023-08-16_08h49.07.545,HF_wild_card,2022.2.4,MacIntel,55.55555556,6027d7c787d2e926857eafc5,64d2fd46c836a06233681665,64dc7f4fb1882173e1f02fda,,,,,,,decisionTrl,resources/DG.BMP,resources/DB.BMP,WildCard_Ex,-0.142222222,0.021111111,1,0,0,0.696,optionLeft,5,3825,2,30,0,30,0,1,,,,,,,,,,,,,,,,,,,,,,,,,,,,,,,,,,,,,,,
,,,,,,,,2023-08-16_08h49.07.545,HF_wild_card,2022.2.4,MacIntel,55.55555556,6027d7c787d2e926857eafc5,64d2fd46c836a06233681665,64dc7f4fb1882173e1f02fda,,,,,,,ctch,resources/DY.BMP,resources/DB.BMP,Door3,0.125555556,0.032222222,1,0,0,0.914,optionRight,70,3895,2,31,0,31,0,1,,,,,,,,,,,,,,,,,,,,,,,,,,,,,,,,,,,,,,,
,,,,,,,,2023-08-16_08h49.07.545,HF_wild_card,2022.2.4,MacIntel,55.55555556,6027d7c787d2e926857eafc5,64d2fd46c836a06233681665,64dc7f4fb1882173e1f02fda,,,,,,,decisionTrl,resources/DR.BMP,resources/DY.BMP,Door1,-0.114444444,0.026666667,1,0,0,1.996,optionLeft,30,3925,2,32,0,32,0,1,,,,,,,,,,,,,,,,,,,,,,,,,,,,,,,,,,,,,,,
,,,,,,,,2023-08-16_08h49.07.545,HF_wild_card,2022.2.4,MacIntel,55.55555556,6027d7c787d2e926857eafc5,64d2fd46c836a06233681665,64dc7f4fb1882173e1f02fda,,,,,,,sngl,resources/Empty.png,resources/DR.BMP,Door1,0.15,0.015555556,1,0,0,0.644,optionRight,30,3955,2,33,0,33,0,1,,,,,,,,,,,,,,,,,,,,,,,,,,,,,,,,,,,,,,,
,,,,,,,,2023-08-16_08h49.07.545,HF_wild_card,2022.2.4,MacIntel,55.55555556,6027d7c787d2e926857eafc5,64d2fd46c836a06233681665,64dc7f4fb1882173e1f02fda,,,,,,,decisionTrl,resources/DR.BMP,resources/DY.BMP,Door2,0.118888889,0.025555556,1,0,0,1.11,optionRight,40,3995,2,34,0,34,0,1,,,,,,,,,,,,,,,,,,,,,,,,,,,,,,,,,,,,,,,
,,,,,,,,2023-08-16_08h49.07.545,HF_wild_card,2022.2.4,MacIntel,55.55555556,6027d7c787d2e926857eafc5,64d2fd46c836a06233681665,64dc7f4fb1882173e1f02fda,,,,,,,sngl,resources/Empty.png,resources/DB.BMP,Door3,0.163333333,0.028888889,1,0,0,0.679,optionRight,70,4065,2,35,0,35,0,1,,,,,,,,,,,,,,,,,,,,,,,,,,,,,,,,,,,,,,,
,,,,,,,,2023-08-16_08h49.07.545,HF_wild_card,2022.2.4,MacIntel,55.55555556,6027d7c787d2e926857eafc5,64d2fd46c836a06233681665,64dc7f4fb1882173e1f02fda,,,,,,,sngl,resources/Empty.png,resources/DG.BMP,WildCard_Ex,0.142222222,0.014444444,1,0,0,0.979,optionRight,5,4070,2,36,0,36,0,1,,,,,,,,,,,,,,,,,,,,,,,,,,,,,,,,,,,,,,,
,,,,,,,,2023-08-16_08h49.07.545,HF_wild_card,2022.2.4,MacIntel,55.55555556,6027d7c787d2e926857eafc5,64d2fd46c836a06233681665,64dc7f4fb1882173e1f02fda,,,,,,,sngl,resources/DY.BMP,resources/Empty.png,Door2,-0.126666667,0.011111111,1,0,0,0.796,optionLeft,20,4090,2,37,0,37,0,1,,,,,,,,,,,,,,,,,,,,,,,,,,,,,,,,,,,,,,,
,,,,,,,,2023-08-16_08h49.07.545,HF_wild_card,2022.2.4,MacIntel,55.55555556,6027d7c787d2e926857eafc5,64d2fd46c836a06233681665,64dc7f4fb1882173e1f02fda,,,,,,,decisionTrl,resources/DG.BMP,resources/DP.BMP,WildCard_Ex,-0.154444444,0.001111111,1,0,0,0.679,optionLeft,95,4185,2,38,0,38,0,1,,,,,,,,,,,,,,,,,,,,,,,,,,,,,,,,,,,,,,,
,,,,,,,,2023-08-16_08h49.07.545,HF_wild_card,2022.2.4,MacIntel,55.55555556,6027d7c787d2e926857eafc5,64d2fd46c836a06233681665,64dc7f4fb1882173e1f02fda,,,,,,,sngl,resources/DB.BMP,resources/Empty.png,Door3,-0.144444444,0.003333333,1,0,0,0.713,optionLeft,70,4255,2,39,0,39,0,1,,,,,,,,,,,,,,,,,,,,,,,,,,,,,,,,,,,,,,,
,,,,,,,,2023-08-16_08h49.07.545,HF_wild_card,2022.2.4,MacIntel,55.55555556,6027d7c787d2e926857eafc5,64d2fd46c836a06233681665,64dc7f4fb1882173e1f02fda,,,,,,,decisionTrl,resources/DP.BMP,resources/DB.BMP,Door4,-0.161111111,-0.004444444,1,0,0,0.962,optionLeft,80,4335,2,40,0,40,0,1,,,,,,,,,,,,,,,,,,,,,,,,,,,,,,,,,,,,,,,
,,,,,,,,2023-08-16_08h49.07.545,HF_wild_card,2022.2.4,MacIntel,55.55555556,6027d7c787d2e926857eafc5,64d2fd46c836a06233681665,64dc7f4fb1882173e1f02fda,,,,,,,decisionTrl,resources/DB.BMP,resources/DP.BMP,Door4,0.114444444,0.001111111,1,0,0,1.577,optionRight,80,4415,2,41,0,41,0,1,,,,,,,,,,,,,,,,,,,,,,,,,,,,,,,,,,,,,,,
,,,,,,,,2023-08-16_08h49.07.545,HF_wild_card,2022.2.4,MacIntel,55.55555556,6027d7c787d2e926857eafc5,64d2fd46c836a06233681665,64dc7f4fb1882173e1f02fda,,,,,,,decisionTrl,resources/DY.BMP,resources/DR.BMP,Door2,-0.131111111,0.011111111,1,0,0,1.529,optionLeft,20,4435,2,42,0,42,0,1,,,,,,,,,,,,,,,,,,,,,,,,,,,,,,,,,,,,,,,
,,,,,,,,2023-08-16_08h49.07.545,HF_wild_card,2022.2.4,MacIntel,55.55555556,6027d7c787d2e926857eafc5,64d2fd46c836a06233681665,64dc7f4fb1882173e1f02fda,,,,,,,decisionTrl,resources/DP.BMP,resources/DG.BMP,WildCard_Ex,0.114444444,0.012222222,1,0,0,1.18,optionRight,95,4530,2,43,0,43,0,1,,,,,,,,,,,,,,,,,,,,,,,,,,,,,,,,,,,,,,,
,,,,,,,,2023-08-16_08h49.07.545,HF_wild_card,2022.2.4,MacIntel,55.55555556,6027d7c787d2e926857eafc5,64d2fd46c836a06233681665,64dc7f4fb1882173e1f02fda,,,,,,,,,,,,,,,,,,,,,,,,,,1,0,1,0,1,,,,,,,,,,,,,,,,,,,,,,,,,,,,,,,,,,
,,,,,,,,2023-08-16_08h49.07.545,HF_wild_card,2022.2.4,MacIntel,55.55555556,6027d7c787d2e926857eafc5,64d2fd46c836a06233681665,64dc7f4fb1882173e1f02fda,,,,,,,decisionTrl,resources/DR.BMP,resources/DY.BMP,Door1,-0.105555556,-0.057777778,1,0,0,1.362,optionLeft,30,4560,3,0,0,0,0,1,,,,,,,,,,,,,,,,,,,,,,,,,,,,,,,,,,,,,,,
,,,,,,,,2023-08-16_08h49.07.545,HF_wild_card,2022.2.4,MacIntel,55.55555556,6027d7c787d2e926857eafc5,64d2fd46c836a06233681665,64dc7f4fb1882173e1f02fda,,,,,,,ctch,resources/DY.BMP,resources/DB.BMP,Door3,0.12,0.014444444,1,0,0,1.196,optionRight,70,4630,3,1,0,1,0,1,,,,,,,,,,,,,,,,,,,,,,,,,,,,,,,,,,,,,,,
,,,,,,,,2023-08-16_08h49.07.545,HF_wild_card,2022.2.4,MacIntel,55.55555556,6027d7c787d2e926857eafc5,64d2fd46c836a06233681665,64dc7f4fb1882173e1f02fda,,,,,,,decisionTrl,resources/DR.BMP,resources/DY.BMP,Door2,0.147777778,0.017777778,1,0,0,1.011,optionRight,20,4650,3,2,0,2,0,1,,,,,,,,,,,,,,,,,,,,,,,,,,,,,,,,,,,,,,,
,,,,,,,,2023-08-16_08h49.07.545,HF_wild_card,2022.2.4,MacIntel,55.55555556,6027d7c787d2e926857eafc5,64d2fd46c836a06233681665,64dc7f4fb1882173e1f02fda,,,,,,,decisionTrl,resources/DY.BMP,resources/DG.BMP,WildCard_Ex,0.116666667,0.016666667,1,0,0,0.845,optionRight,5,4655,3,3,0,3,0,1,,,,,,,,,,,,,,,,,,,,,,,,,,,,,,,,,,,,,,,
,,,,,,,,2023-08-16_08h49.07.545,HF_wild_card,2022.2.4,MacIntel,55.55555556,6027d7c787d2e926857eafc5,64d2fd46c836a06233681665,64dc7f4fb1882173e1f02fda,,,,,,,decisionTrl,resources/DY.BMP,resources/DR.BMP,Door2,-0.127777778,0.018888889,1,0,0,0.963,optionLeft,40,4695,3,4,0,4,0,1,,,,,,,,,,,,,,,,,,,,,,,,,,,,,,,,,,,,,,,
,,,,,,,,2023-08-16_08h49.07.545,HF_wild_card,2022.2.4,MacIntel,55.55555556,6027d7c787d2e926857eafc5,64d2fd46c836a06233681665,64dc7f4fb1882173e1f02fda,,,,,,,sngl,resources/Empty.png,resources/DG.BMP,WildCard_Ex,0.152222222,0.013333333,1,0,0,0.629,optionRight,95,4790,3,5,0,5,0,1,,,,,,,,,,,,,,,,,,,,,,,,,,,,,,,,,,,,,,,
,,,,,,,,2023-08-16_08h49.07.545,HF_wild_card,2022.2.4,MacIntel,55.55555556,6027d7c787d2e926857eafc5,64d2fd46c836a06233681665,64dc7f4fb1882173e1f02fda,,,,,,,sngl,resources/Empty.png,resources/DG.BMP,WildCard_Ex,0.171111111,0.018888889,1,0,0,0.612,optionRight,5,4795,3,6,0,6,0,1,,,,,,,,,,,,,,,,,,,,,,,,,,,,,,,,,,,,,,,
,,,,,,,,2023-08-16_08h49.07.545,HF_wild_card,2022.2.4,MacIntel,55.55555556,6027d7c787d2e926857eafc5,64d2fd46c836a06233681665,64dc7f4fb1882173e1f02fda,,,,,,,decisionTrl,resources/DP.BMP,resources/DB.BMP,Door4,-0.14,0.031111111,1,0,0,0.962,optionLeft,60,4855,3,7,0,7,0,1,,,,,,,,,,,,,,,,,,,,,,,,,,,,,,,,,,,,,,,
,,,,,,,,2023-08-16_08h49.07.545,HF_wild_card,2022.2.4,MacIntel,55.55555556,6027d7c787d2e926857eafc5,64d2fd46c836a06233681665,64dc7f4fb1882173e1f02fda,,,,,,,decisionTrl,resources/DG.BMP,resources/DR.BMP,WildCard_Ex,-0.168888889,0.021111111,1,0,0,0.729,optionLeft,95,4950,3,8,0,8,0,1,,,,,,,,,,,,,,,,,,,,,,,,,,,,,,,,,,,,,,,
,,,,,,,,2023-08-16_08h49.07.545,HF_wild_card,2022.2.4,MacIntel,55.55555556,6027d7c787d2e926857eafc5,64d2fd46c836a06233681665,64dc7f4fb1882173e1f02fda,,,,,,,sngl,resources/DG.BMP,resources/Empty.png,WildCard_Ex,-0.147777778,0.024444444,1,0,0,0.712,optionLeft,5,4955,3,9,0,9,0,1,,,,,,,,,,,,,,,,,,,,,,,,,,,,,,,,,,,,,,,
,,,,,,,,2023-08-16_08h49.07.545,HF_wild_card,2022.2.4,MacIntel,55.55555556,6027d7c787d2e926857eafc5,64d2fd46c836a06233681665,64dc7f4fb1882173e1f02fda,,,,,,,decisionTrl,resources/DB.BMP,resources/DP.BMP,Door3,-0.131111111,0.041111111,1,0,0,1.494,optionLeft,70,5025,3,10,0,10,0,1,,,,,,,,,,,,,,,,,,,,,,,,,,,,,,,,,,,,,,,
,,,,,,,,2023-08-16_08h49.07.545,HF_wild_card,2022.2.4,MacIntel,55.55555556,6027d7c787d2e926857eafc5,64d2fd46c836a06233681665,64dc7f4fb1882173e1f02fda,,,,,,,sngl,resources/DR.BMP,resources/Empty.png,Door1,-0.138888889,0.042222222,1,0,0,0.695,optionLeft,30,5055,3,11,0,11,0,1,,,,,,,,,,,,,,,,,,,,,,,,,,,,,,,,,,,,,,,
,,,,,,,,2023-08-16_08h49.07.545,HF_wild_card,2022.2.4,MacIntel,55.55555556,6027d7c787d2e926857eafc5,64d2fd46c836a06233681665,64dc7f4fb1882173e1f02fda,,,,,,,ctch,resources/DR.BMP,resources/DP.BMP,Door4,0.132222222,0.037777778,1,0,0,0.646,optionRight,60,5115,3,12,0,12,0,1,,,,,,,,,,,,,,,,,,,,,,,,,,,,,,,,,,,,,,,
,,,,,,,,2023-08-16_08h49.07.545,HF_wild_card,2022.2.4,MacIntel,55.55555556,6027d7c787d2e926857eafc5,64d2fd46c836a06233681665,64dc7f4fb1882173e1f02fda,,,,,,,sngl,resources/Empty.png,resources/DY.BMP,Door2,0.132222222,0.022222222,1,0,0,0.629,optionRight,20,5135,3,13,0,13,0,1,,,,,,,,,,,,,,,,,,,,,,,,,,,,,,,,,,,,,,,
,,,,,,,,2023-08-16_08h49.07.545,HF_wild_card,2022.2.4,MacIntel,55.55555556,6027d7c787d2e926857eafc5,64d2fd46c836a06233681665,64dc7f4fb1882173e1f02fda,,,,,,,decisionTrl,resources/DP.BMP,resources/DB.BMP,Door4,-0.152222222,0.035555556,1,0,0,0.862,optionLeft,80,5215,3,14,0,14,0,1,,,,,,,,,,,,,,,,,,,,,,,,,,,,,,,,,,,,,,,
,,,,,,,,2023-08-16_08h49.07.545,HF_wild_card,2022.2.4,MacIntel,55.55555556,6027d7c787d2e926857eafc5,64d2fd46c836a06233681665,64dc7f4fb1882173e1f02fda,,,,,,,decisionTrl,resources/DP.BMP,resources/DG.BMP,WildCard_Ex,0.107777778,0.018888889,1,0,0,0.913,optionRight,95,5310,3,15,0,15,0,1,,,,,,,,,,,,,,,,,,,,,,,,,,,,,,,,,,,,,,,
,,,,,,,,2023-08-16_08h49.07.545,HF_wild_card,2022.2.4,MacIntel,55.55555556,6027d7c787d2e926857eafc5,64d2fd46c836a06233681665,64dc7f4fb1882173e1f02fda,,,,,,,ctch,resources/DP.BMP,resources/DR.BMP,Door4,-0.124444444,0.03,1,0,0,1.097,optionLeft,60,5370,3,16,0,16,0,1,,,,,,,,,,,,,,,,,,,,,,,,,,,,,,,,,,,,,,,
,,,,,,,,2023-08-16_08h49.07.545,HF_wild_card,2022.2.4,MacIntel,55.55555556,6027d7c787d2e926857eafc5,64d2fd46c836a06233681665,64dc7f4fb1882173e1f02fda,,,,,,,sngl,resources/DP.BMP,resources/Empty.png,Door4,-0.125555556,0.02,1,0,0,0.781,optionLeft,80,5450,3,17,0,17,0,1,,,,,,,,,,,,,,,,,,,,,,,,,,,,,,,,,,,,,,,
,,,,,,,,2023-08-16_08h49.07.545,HF_wild_card,2022.2.4,MacIntel,55.55555556,6027d7c787d2e926857eafc5,64d2fd46c836a06233681665,64dc7f4fb1882173e1f02fda,,,,,,,decisionTrl,resources/DB.BMP,resources/DP.BMP,Door4,0.13,0.024444444,1,0,0,1.428,optionRight,60,5510,3,18,0,18,0,1,,,,,,,,,,,,,,,,,,,,,,,,,,,,,,,,,,,,,,,
,,,,,,,,2023-08-16_08h49.07.545,HF_wild_card,2022.2.4,MacIntel,55.55555556,6027d7c787d2e926857eafc5,64d2fd46c836a06233681665,64dc7f4fb1882173e1f02fda,,,,,,,decisionTrl,resources/DY.BMP,resources/DR.BMP,Door2,-0.124444444,0.025555556,1,0,0,1.412,optionLeft,40,5550,3,19,0,19,0,1,,,,,,,,,,,,,,,,,,,,,,,,,,,,,,,,,,,,,,,
,,,,,,,,2023-08-16_08h49.07.545,HF_wild_card,2022.2.4,MacIntel,55.55555556,6027d7c787d2e926857eafc5,64d2fd46c836a06233681665,64dc7f4fb1882173e1f02fda,,,,,,,ctch,resources/DB.BMP,resources/DY.BMP,Door3,-0.106666667,0.042222222,1,0,0,0.946,optionLeft,70,5620,3,20,0,20,0,1,,,,,,,,,,,,,,,,,,,,,,,,,,,,,,,,,,,,,,,
,,,,,,,,2023-08-16_08h49.07.545,HF_wild_card,2022.2.4,MacIntel,55.55555556,6027d7c787d2e926857eafc5,64d2fd46c836a06233681665,64dc7f4fb1882173e1f02fda,,,,,,,ctch,resources/DR.BMP,resources/DP.BMP,Door4,0.095555556,0.03,1,0,0,0.762,optionRight,80,5700,3,21,0,21,0,1,,,,,,,,,,,,,,,,,,,,,,,,,,,,,,,,,,,,,,,
,,,,,,,,2023-08-16_08h49.07.545,HF_wild_card,2022.2.4,MacIntel,55.55555556,6027d7c787d2e926857eafc5,64d2fd46c836a06233681665,64dc7f4fb1882173e1f02fda,,,,,,,decisionTrl,resources/DG.BMP,resources/DP.BMP,WildCard_Ex,-0.15,0.008888889,1,0,0,0.73,optionLeft,5,5705,3,22,0,22,0,1,,,,,,,,,,,,,,,,,,,,,,,,,,,,,,,,,,,,,,,
,,,,,,,,2023-08-16_08h49.07.545,HF_wild_card,2022.2.4,MacIntel,55.55555556,6027d7c787d2e926857eafc5,64d2fd46c836a06233681665,64dc7f4fb1882173e1f02fda,,,,,,,sngl,resources/DG.BMP,resources/Empty.png,WildCard_Ex,-0.13,0.007777778,1,0,0,0.663,optionLeft,95,5800,3,23,0,23,0,1,,,,,,,,,,,,,,,,,,,,,,,,,,,,,,,,,,,,,,,
,,,,,,,,2023-08-16_08h49.07.545,HF_wild_card,2022.2.4,MacIntel,55.55555556,6027d7c787d2e926857eafc5,64d2fd46c836a06233681665,64dc7f4fb1882173e1f02fda,,,,,,,sngl,resources/DB.BMP,resources/Empty.png,Door3,-0.128888889,0.012222222,1,0,0,0.679,optionLeft,70,5870,3,24,0,24,0,1,,,,,,,,,,,,,,,,,,,,,,,,,,,,,,,,,,,,,,,
,,,,,,,,2023-08-16_08h49.07.545,HF_wild_card,2022.2.4,MacIntel,55.55555556,6027d7c787d2e926857eafc5,64d2fd46c836a06233681665,64dc7f4fb1882173e1f02fda,,,,,,,sngl,resources/DY.BMP,resources/Empty.png,Door2,-0.147777778,0.01,1,0,0,0.612,optionLeft,40,5910,3,25,0,25,0,1,,,,,,,,,,,,,,,,,,,,,,,,,,,,,,,,,,,,,,,
,,,,,,,,2023-08-16_08h49.07.545,HF_wild_card,2022.2.4,MacIntel,55.55555556,6027d7c787d2e926857eafc5,64d2fd46c836a06233681665,64dc7f4fb1882173e1f02fda,,,,,,,decisionTrl,resources/DR.BMP,resources/DY.BMP,Door1,-0.117777778,0.01,1,0,0,0.696,optionLeft,30,5940,3,26,0,26,0,1,,,,,,,,,,,,,,,,,,,,,,,,,,,,,,,,,,,,,,,
,,,,,,,,2023-08-16_08h49.07.545,HF_wild_card,2022.2.4,MacIntel,55.55555556,6027d7c787d2e926857eafc5,64d2fd46c836a06233681665,64dc7f4fb1882173e1f02fda,,,,,,,decisionTrl,resources/DP.BMP,resources/DB.BMP,Door4,-0.128888889,0.022222222,1,0,0,0.81,optionLeft,60,6000,3,27,0,27,0,1,,,,,,,,,,,,,,,,,,,,,,,,,,,,,,,,,,,,,,,
,,,,,,,,2023-08-16_08h49.07.545,HF_wild_card,2022.2.4,MacIntel,55.55555556,6027d7c787d2e926857eafc5,64d2fd46c836a06233681665,64dc7f4fb1882173e1f02fda,,,,,,,ctch,resources/DP.BMP,resources/DR.BMP,Door4,-0.122222222,0.023333333,1,0,0,0.629,optionLeft,80,6080,3,28,0,28,0,1,,,,,,,,,,,,,,,,,,,,,,,,,,,,,,,,,,,,,,,
,,,,,,,,2023-08-16_08h49.07.545,HF_wild_card,2022.2.4,MacIntel,55.55555556,6027d7c787d2e926857eafc5,64d2fd46c836a06233681665,64dc7f4fb1882173e1f02fda,,,,,,,decisionTrl,resources/DB.BMP,resources/DP.BMP,Door4,0.147777778,0.048888889,1,0,0,1.261,optionRight,80,6160,3,29,0,29,0,1,,,,,,,,,,,,,,,,,,,,,,,,,,,,,,,,,,,,,,,
,,,,,,,,2023-08-16_08h49.07.545,HF_wild_card,2022.2.4,MacIntel,55.55555556,6027d7c787d2e926857eafc5,64d2fd46c836a06233681665,64dc7f4fb1882173e1f02fda,,,,,,,ctch,resources/DB.BMP,resources/DY.BMP,Door3,-0.138888889,0.02,1,0,0,1.078,optionLeft,70,6230,3,30,0,30,0,1,,,,,,,,,,,,,,,,,,,,,,,,,,,,,,,,,,,,,,,
,,,,,,,,2023-08-16_08h49.07.545,HF_wild_card,2022.2.4,MacIntel,55.55555556,6027d7c787d2e926857eafc5,64d2fd46c836a06233681665,64dc7f4fb1882173e1f02fda,,,,,,,decisionTrl,resources/DY.BMP,resources/DR.BMP,Door1,0.108888889,0.042222222,1,0,0,1.729,optionRight,30,6260,3,31,0,31,0,1,,,,,,,,,,,,,,,,,,,,,,,,,,,,,,,,,,,,,,,
,,,,,,,,2023-08-16_08h49.07.545,HF_wild_card,2022.2.4,MacIntel,55.55555556,6027d7c787d2e926857eafc5,64d2fd46c836a06233681665,64dc7f4fb1882173e1f02fda,,,,,,,sngl,resources/Empty.png,resources/DR.BMP,Door1,0.144444444,0.042222222,1,0,0,0.645,optionRight,30,6290,3,32,0,32,0,1,,,,,,,,,,,,,,,,,,,,,,,,,,,,,,,,,,,,,,,
,,,,,,,,2023-08-16_08h49.07.545,HF_wild_card,2022.2.4,MacIntel,55.55555556,6027d7c787d2e926857eafc5,64d2fd46c836a06233681665,64dc7f4fb1882173e1f02fda,,,,,,,decisionTrl,resources/DR.BMP,resources/DG.BMP,WildCard_Ex,0.141111111,0.038888889,1,0,0,0.713,optionRight,5,6295,3,33,0,33,0,1,,,,,,,,,,,,,,,,,,,,,,,,,,,,,,,,,,,,,,,
,,,,,,,,2023-08-16_08h49.07.545,HF_wild_card,2022.2.4,MacIntel,55.55555556,6027d7c787d2e926857eafc5,64d2fd46c836a06233681665,64dc7f4fb1882173e1f02fda,,,,,,,decisionTrl,resources/DG.BMP,resources/DY.BMP,WildCard_Ex,-0.134444444,0.021111111,1,0,0,0.712,optionLeft,5,6300,3,34,0,34,0,1,,,,,,,,,,,,,,,,,,,,,,,,,,,,,,,,,,,,,,,
,,,,,,,,2023-08-16_08h49.07.545,HF_wild_card,2022.2.4,MacIntel,55.55555556,6027d7c787d2e926857eafc5,64d2fd46c836a06233681665,64dc7f4fb1882173e1f02fda,,,,,,,sngl,resources/Empty.png,resources/DP.BMP,Door4,0.153333333,0.055555556,1,0,0,0.662,optionRight,60,6360,3,35,0,35,0,1,,,,,,,,,,,,,,,,,,,,,,,,,,,,,,,,,,,,,,,
,,,,,,,,2023-08-16_08h49.07.545,HF_wild_card,2022.2.4,MacIntel,55.55555556,6027d7c787d2e926857eafc5,64d2fd46c836a06233681665,64dc7f4fb1882173e1f02fda,,,,,,,decisionTrl,resources/DY.BMP,resources/DR.BMP,Door2,-0.108888889,0.013333333,1,0,0,1.079,optionLeft,40,6400,3,36,0,36,0,1,,,,,,,,,,,,,,,,,,,,,,,,,,,,,,,,,,,,,,,
,,,,,,,,2023-08-16_08h49.07.545,HF_wild_card,2022.2.4,MacIntel,55.55555556,6027d7c787d2e926857eafc5,64d2fd46c836a06233681665,64dc7f4fb1882173e1f02fda,,,,,,,decisionTrl,resources/DP.BMP,resources/DB.BMP,Door4,-0.134444444,0.013333333,1,0,0,1.144,optionLeft,80,6480,3,37,0,37,0,1,,,,,,,,,,,,,,,,,,,,,,,,,,,,,,,,,,,,,,,
,,,,,,,,2023-08-16_08h49.07.545,HF_wild_card,2022.2.4,MacIntel,55.55555556,6027d7c787d2e926857eafc5,64d2fd46c836a06233681665,64dc7f4fb1882173e1f02fda,,,,,,,decisionTrl,resources/DR.BMP,resources/DY.BMP,Door2,0.123333333,0.021111111,1,0,0,1.578,optionRight,20,6500,3,38,0,38,0,1,,,,,,,,,,,,,,,,,,,,,,,,,,,,,,,,,,,,,,,
,,,,,,,,2023-08-16_08h49.07.545,HF_wild_card,2022.2.4,MacIntel,55.55555556,6027d7c787d2e926857eafc5,64d2fd46c836a06233681665,64dc7f4fb1882173e1f02fda,,,,,,,decisionTrl,resources/DB.BMP,resources/DP.BMP,Door4,0.12,0.024444444,1,0,0,1.329,optionRight,60,6560,3,39,0,39,0,1,,,,,,,,,,,,,,,,,,,,,,,,,,,,,,,,,,,,,,,
,,,,,,,,2023-08-16_08h49.07.545,HF_wild_card,2022.2.4,MacIntel,55.55555556,6027d7c787d2e926857eafc5,64d2fd46c836a06233681665,64dc7f4fb1882173e1f02fda,,,,,,,sngl,resources/Empty.png,resources/DB.BMP,Door3,0.125555556,0.026666667,1,0,0,0.729,optionRight,70,6630,3,40,0,40,0,1,,,,,,,,,,,,,,,,,,,,,,,,,,,,,,,,,,,,,,,
,,,,,,,,2023-08-16_08h49.07.545,HF_wild_card,2022.2.4,MacIntel,55.55555556,6027d7c787d2e926857eafc5,64d2fd46c836a06233681665,64dc7f4fb1882173e1f02fda,,,,,,,decisionTrl,resources/DG.BMP,resources/DB.BMP,WildCard_Ex,-0.124444444,0.007777778,1,0,0,0.762,optionLeft,95,6725,3,41,0,41,0,1,,,,,,,,,,,,,,,,,,,,,,,,,,,,,,,,,,,,,,,
,,,,,,,,2023-08-16_08h49.07.545,HF_wild_card,2022.2.4,MacIntel,55.55555556,6027d7c787d2e926857eafc5,64d2fd46c836a06233681665,64dc7f4fb1882173e1f02fda,,,,,,,ctch,resources/DY.BMP,resources/DB.BMP,Door3,0.108888889,0.016666667,1,0,0,1.229,optionRight,70,6795,3,42,0,42,0,1,,,,,,,,,,,,,,,,,,,,,,,,,,,,,,,,,,,,,,,
,,,,,,,,2023-08-16_08h49.07.545,HF_wild_card,2022.2.4,MacIntel,55.55555556,6027d7c787d2e926857eafc5,64d2fd46c836a06233681665,64dc7f4fb1882173e1f02fda,,,,,,,decisionTrl,resources/DB.BMP,resources/DG.BMP,WildCard_Ex,0.108888889,0.033333333,1,0,0,0.729,optionRight,95,6890,3,43,0,43,0,1,,,,,,,,,,,,,,,,,,,,,,,,,,,,,,,,,,,,,,,
,,,,,,,,2023-08-16_08h49.07.545,HF_wild_card,2022.2.4,MacIntel,55.55555556,6027d7c787d2e926857eafc5,64d2fd46c836a06233681665,64dc7f4fb1882173e1f02fda,,,,,,,,,,,,,,,,,,,,,,,,,,2,0,2,0,1,,,,,,,,,,,,,,,,,,,,,,,,,,,,,,,,,,
,,,,,,,,2023-08-16_08h49.07.545,HF_wild_card,2022.2.4,MacIntel,55.55555556,6027d7c787d2e926857eafc5,64d2fd46c836a06233681665,64dc7f4fb1882173e1f02fda,,,,,,,decisionTrl,resources/DR.BMP,resources/DY.BMP,Door1,-0.126666667,-0.021111111,1,0,0,1.377,optionLeft,30,6920,4,0,0,0,0,1,,,,,,,,,,,,,,,,,,,,,,,,,,,,,,,,,,,,,,,
,,,,,,,,2023-08-16_08h49.07.545,HF_wild_card,2022.2.4,MacIntel,55.55555556,6027d7c787d2e926857eafc5,64d2fd46c836a06233681665,64dc7f4fb1882173e1f02fda,,,,,,,decisionTrl,resources/DB.BMP,resources/DP.BMP,Door4,0.134444444,0.02,1,0,0,0.745,optionRight,60,6980,4,1,0,1,0,1,,,,,,,,,,,,,,,,,,,,,,,,,,,,,,,,,,,,,,,
,,,,,,,,2023-08-16_08h49.07.545,HF_wild_card,2022.2.4,MacIntel,55.55555556,6027d7c787d2e926857eafc5,64d2fd46c836a06233681665,64dc7f4fb1882173e1f02fda,,,,,,,decisionTrl,resources/DR.BMP,resources/DY.BMP,Door1,-0.146666667,0.03,1,0,0,0.812,optionLeft,30,7010,4,2,0,2,0,1,,,,,,,,,,,,,,,,,,,,,,,,,,,,,,,,,,,,,,,
,,,,,,,,2023-08-16_08h49.07.545,HF_wild_card,2022.2.4,MacIntel,55.55555556,6027d7c787d2e926857eafc5,64d2fd46c836a06233681665,64dc7f4fb1882173e1f02fda,,,,,,,ctch,resources/DB.BMP,resources/DY.BMP,Door3,-0.122222222,0.012222222,1,0,0,1.429,optionLeft,70,7080,4,3,0,3,0,1,,,,,,,,,,,,,,,,,,,,,,,,,,,,,,,,,,,,,,,
,,,,,,,,2023-08-16_08h49.07.545,HF_wild_card,2022.2.4,MacIntel,55.55555556,6027d7c787d2e926857eafc5,64d2fd46c836a06233681665,64dc7f4fb1882173e1f02fda,,,,,,,sngl,resources/Empty.png,resources/DP.BMP,Door4,0.16,0.015555556,1,0,0,0.613,optionRight,80,7160,4,4,0,4,0,1,,,,,,,,,,,,,,,,,,,,,,,,,,,,,,,,,,,,,,,
,,,,,,,,2023-08-16_08h49.07.545,HF_wild_card,2022.2.4,MacIntel,55.55555556,6027d7c787d2e926857eafc5,64d2fd46c836a06233681665,64dc7f4fb1882173e1f02fda,,,,,,,decisionTrl,resources/DP.BMP,resources/DB.BMP,Door4,-0.111111111,0.023333333,1,0,0,0.695,optionLeft,60,7220,4,5,0,5,0,1,,,,,,,,,,,,,,,,,,,,,,,,,,,,,,,,,,,,,,,
,,,,,,,,2023-08-16_08h49.07.545,HF_wild_card,2022.2.4,MacIntel,55.55555556,6027d7c787d2e926857eafc5,64d2fd46c836a06233681665,64dc7f4fb1882173e1f02fda,,,,,,,decisionTrl,resources/DY.BMP,resources/DR.BMP,Door1,0.128888889,0.025555556,1,0,0,1.346,optionRight,30,7250,4,6,0,6,0,1,,,,,,,,,,,,,,,,,,,,,,,,,,,,,,,,,,,,,,,
,,,,,,,,2023-08-16_08h49.07.545,HF_wild_card,2022.2.4,MacIntel,55.55555556,6027d7c787d2e926857eafc5,64d2fd46c836a06233681665,64dc7f4fb1882173e1f02fda,,,,,,,decisionTrl,resources/DP.BMP,resources/DB.BMP,Door4,-0.117777778,0.031111111,1,0,0,0.913,optionLeft,80,7330,4,7,0,7,0,1,,,,,,,,,,,,,,,,,,,,,,,,,,,,,,,,,,,,,,,
,,,,,,,,2023-08-16_08h49.07.545,HF_wild_card,2022.2.4,MacIntel,55.55555556,6027d7c787d2e926857eafc5,64d2fd46c836a06233681665,64dc7f4fb1882173e1f02fda,,,,,,,sngl,resources/DBN.BMP,resources/Empty.png,WildCard_NonEx,-0.114444444,0.02,1,0,0,2.028,optionLeft,45,7375,4,8,0,8,0,1,,,,,,,,,,,,,,,,,,,,,,,,,,,,,,,,,,,,,,,
,,,,,,,,2023-08-16_08h49.07.545,HF_wild_card,2022.2.4,MacIntel,55.55555556,6027d7c787d2e926857eafc5,64d2fd46c836a06233681665,64dc7f4fb1882173e1f02fda,,,,,,,decisionTrl,resources/DBN.BMP,resources/DY.BMP,WildCard_NonEx,-0.128888889,0.013333333,1,0,0,1.279,optionLeft,45,7420,4,9,0,9,0,1,,,,,,,,,,,,,,,,,,,,,,,,,,,,,,,,,,,,,,,
,,,,,,,,2023-08-16_08h49.07.545,HF_wild_card,2022.2.4,MacIntel,55.55555556,6027d7c787d2e926857eafc5,64d2fd46c836a06233681665,64dc7f4fb1882173e1f02fda,,,,,,,sngl,resources/Empty.png,resources/DR.BMP,Door1,0.112222222,-0.017777778,1,0,0,1.029,optionRight,30,7450,4,10,0,10,0,1,,,,,,,,,,,,,,,,,,,,,,,,,,,,,,,,,,,,,,,
,,,,,,,,2023-08-16_08h49.07.545,HF_wild_card,2022.2.4,MacIntel,55.55555556,6027d7c787d2e926857eafc5,64d2fd46c836a06233681665,64dc7f4fb1882173e1f02fda,,,,,,,sngl,resources/DY.BMP,resources/Empty.png,Door2,-0.132222222,-0.005555556,1,0,0,0.879,optionLeft,20,7470,4,11,0,11,0,1,,,,,,,,,,,,,,,,,,,,,,,,,,,,,,,,,,,,,,,
,,,,,,,,2023-08-16_08h49.07.545,HF_wild_card,2022.2.4,MacIntel,55.55555556,6027d7c787d2e926857eafc5,64d2fd46c836a06233681665,64dc7f4fb1882173e1f02fda,,,,,,,sngl,resources/DBN.BMP,resources/Empty.png,WildCard_NonEx,-0.123333333,-0.005555556,1,0,0,0.763,optionLeft,55,7525,4,12,0,12,0,1,,,,,,,,,,,,,,,,,,,,,,,,,,,,,,,,,,,,,,,
,,,,,,,,2023-08-16_08h49.07.545,HF_wild_card,2022.2.4,MacIntel,55.55555556,6027d7c787d2e926857eafc5,64d2fd46c836a06233681665,64dc7f4fb1882173e1f02fda,,,,,,,decisionTrl,resources/DY.BMP,resources/DR.BMP,Door2,-0.125555556,-0.005555556,1,0,0,0.879,optionLeft,20,7545,4,13,0,13,0,1,,,,,,,,,,,,,,,,,,,,,,,,,,,,,,,,,,,,,,,
,,,,,,,,2023-08-16_08h49.07.545,HF_wild_card,2022.2.4,MacIntel,55.55555556,6027d7c787d2e926857eafc5,64d2fd46c836a06233681665,64dc7f4fb1882173e1f02fda,,,,,,,ctch,resources/DY.BMP,resources/DB.BMP,Door3,0.126666667,0.013333333,1,0,0,1.379,optionRight,70,7615,4,14,0,14,0,1,,,,,,,,,,,,,,,,,,,,,,,,,,,,,,,,,,,,,,,
,,,,,,,,2023-08-16_08h49.07.545,HF_wild_card,2022.2.4,MacIntel,55.55555556,6027d7c787d2e926857eafc5,64d2fd46c836a06233681665,64dc7f4fb1882173e1f02fda,,,,,,,decisionTrl,resources/DR.BMP,resources/DBN.BMP,WildCard_NonEx,0.155555556,0.04,1,0,0,0.931,optionRight,45,7660,4,15,0,15,0,1,,,,,,,,,,,,,,,,,,,,,,,,,,,,,,,,,,,,,,,
,,,,,,,,2023-08-16_08h49.07.545,HF_wild_card,2022.2.4,MacIntel,55.55555556,6027d7c787d2e926857eafc5,64d2fd46c836a06233681665,64dc7f4fb1882173e1f02fda,,,,,,,sngl,resources/Empty.png,resources/DBN.BMP,WildCard_NonEx,0.126666667,-0.002222222,1,0,0,0.811,optionRight,45,7705,4,16,0,16,0,1,,,,,,,,,,,,,,,,,,,,,,,,,,,,,,,,,,,,,,,
,,,,,,,,2023-08-16_08h49.07.545,HF_wild_card,2022.2.4,MacIntel,55.55555556,6027d7c787d2e926857eafc5,64d2fd46c836a06233681665,64dc7f4fb1882173e1f02fda,,,,,,,ctch,resources/DY.BMP,resources/DB.BMP,Door3,0.123333333,-0.001111111,1,0,0,3.291,optionRight,70,7775,4,17,0,17,0,1,,,,,,,,,,,,,,,,,,,,,,,,,,,,,,,,,,,,,,,
,,,,,,,,2023-08-16_08h49.07.545,HF_wild_card,2022.2.4,MacIntel,55.55555556,6027d7c787d2e926857eafc5,64d2fd46c836a06233681665,64dc7f4fb1882173e1f02fda,,,,,,,decisionTrl,resources/DBN.BMP,resources/DB.BMP,Door3,0.217777778,0.016666667,1,0,0,1.329,optionRight,70,7845,4,18,0,18,0,1,,,,,,,,,,,,,,,,,,,,,,,,,,,,,,,,,,,,,,,
,,,,,,,,2023-08-16_08h49.07.545,HF_wild_card,2022.2.4,MacIntel,55.55555556,6027d7c787d2e926857eafc5,64d2fd46c836a06233681665,64dc7f4fb1882173e1f02fda,,,,,,,decisionTrl,resources/DY.BMP,resources/DBN.BMP,WildCard_NonEx,0.131111111,-0.005555556,1,0,0,1.161,optionRight,45,7890,4,19,0,19,0,1,,,,,,,,,,,,,,,,,,,,,,,,,,,,,,,,,,,,,,,
,,,,,,,,2023-08-16_08h49.07.545,HF_wild_card,2022.2.4,MacIntel,55.55555556,6027d7c787d2e926857eafc5,64d2fd46c836a06233681665,64dc7f4fb1882173e1f02fda,,,,,,,sngl,resources/DP.BMP,resources/Empty.png,Door4,-0.131111111,-0.02,1,0,0,0.829,optionLeft,60,7950,4,20,0,20,0,1,,,,,,,,,,,,,,,,,,,,,,,,,,,,,,,,,,,,,,,
,,,,,,,,2023-08-16_08h49.07.545,HF_wild_card,2022.2.4,MacIntel,55.55555556,6027d7c787d2e926857eafc5,64d2fd46c836a06233681665,64dc7f4fb1882173e1f02fda,,,,,,,ctch,resources/DP.BMP,resources/DR.BMP,Door4,-0.13,-0.015555556,1,0,0,1.312,optionLeft,80,8030,4,21,0,21,0,1,,,,,,,,,,,,,,,,,,,,,,,,,,,,,,,,,,,,,,,
,,,,,,,,2023-08-16_08h49.07.545,HF_wild_card,2022.2.4,MacIntel,55.55555556,6027d7c787d2e926857eafc5,64d2fd46c836a06233681665,64dc7f4fb1882173e1f02fda,,,,,,,decisionTrl,resources/DR.BMP,resources/DY.BMP,Door1,-0.137777778,0,1,0,0,1.63,optionLeft,30,8060,4,22,0,22,0,1,,,,,,,,,,,,,,,,,,,,,,,,,,,,,,,,,,,,,,,
,,,,,,,,2023-08-16_08h49.07.545,HF_wild_card,2022.2.4,MacIntel,55.55555556,6027d7c787d2e926857eafc5,64d2fd46c836a06233681665,64dc7f4fb1882173e1f02fda,,,,,,,sngl,resources/Empty.png,resources/DBN.BMP,WildCard_NonEx,0.111111111,-0.02,1,0,0,0.91,optionRight,55,8115,4,23,0,23,0,1,,,,,,,,,,,,,,,,,,,,,,,,,,,,,,,,,,,,,,,
,,,,,,,,2023-08-16_08h49.07.545,HF_wild_card,2022.2.4,MacIntel,55.55555556,6027d7c787d2e926857eafc5,64d2fd46c836a06233681665,64dc7f4fb1882173e1f02fda,,,,,,,ctch,resources/DR.BMP,resources/DP.BMP,Door4,0.104444444,-0.001111111,1,0,0,1.094,optionRight,80,8195,4,24,0,24,0,1,,,,,,,,,,,,,,,,,,,,,,,,,,,,,,,,,,,,,,,
,,,,,,,,2023-08-16_08h49.07.545,HF_wild_card,2022.2.4,MacIntel,55.55555556,6027d7c787d2e926857eafc5,64d2fd46c836a06233681665,64dc7f4fb1882173e1f02fda,,,,,,,decisionTrl,resources/DBN.BMP,resources/DP.BMP,Door4,0.134444444,0.016666667,1,0,0,1.679,optionRight,60,8255,4,25,0,25,0,1,,,,,,,,,,,,,,,,,,,,,,,,,,,,,,,,,,,,,,,
,,,,,,,,2023-08-16_08h49.07.545,HF_wild_card,2022.2.4,MacIntel,55.55555556,6027d7c787d2e926857eafc5,64d2fd46c836a06233681665,64dc7f4fb1882173e1f02fda,,,,,,,decisionTrl,resources/DP.BMP,resources/DB.BMP,Door4,-0.107777778,0,1,0,0,1.979,optionLeft,60,8315,4,26,0,26,0,1,,,,,,,,,,,,,,,,,,,,,,,,,,,,,,,,,,,,,,,
,,,,,,,,2023-08-16_08h49.07.545,HF_wild_card,2022.2.4,MacIntel,55.55555556,6027d7c787d2e926857eafc5,64d2fd46c836a06233681665,64dc7f4fb1882173e1f02fda,,,,,,,ctch,resources/DR.BMP,resources/DP.BMP,Door4,0.127777778,0.002222222,1,0,0,1.013,optionRight,60,8375,4,27,0,27,0,1,,,,,,,,,,,,,,,,,,,,,,,,,,,,,,,,,,,,,,,
,,,,,,,,2023-08-16_08h49.07.545,HF_wild_card,2022.2.4,MacIntel,55.55555556,6027d7c787d2e926857eafc5,64d2fd46c836a06233681665,64dc7f4fb1882173e1f02fda,,,,,,,decisionTrl,resources/DY.BMP,resources/DR.BMP,Door2,-0.118888889,0.005555556,1,0,0,2.062,optionLeft,40,8415,4,28,0,28,0,1,,,,,,,,,,,,,,,,,,,,,,,,,,,,,,,,,,,,,,,
,,,,,,,,2023-08-16_08h49.07.545,HF_wild_card,2022.2.4,MacIntel,55.55555556,6027d7c787d2e926857eafc5,64d2fd46c836a06233681665,64dc7f4fb1882173e1f02fda,,,,,,,decisionTrl,resources/DB.BMP,resources/DP.BMP,Door3,-0.112222222,0.003333333,1,0,0,1.013,optionLeft,70,8485,4,29,0,29,0,1,,,,,,,,,,,,,,,,,,,,,,,,,,,,,,,,,,,,,,,
,,,,,,,,2023-08-16_08h49.07.545,HF_wild_card,2022.2.4,MacIntel,55.55555556,6027d7c787d2e926857eafc5,64d2fd46c836a06233681665,64dc7f4fb1882173e1f02fda,,,,,,,decisionTrl,resources/DY.BMP,resources/DR.BMP,Door2,-0.135555556,-0.016666667,1,0,0,1.928,optionLeft,20,8505,4,30,0,30,0,1,,,,,,,,,,,,,,,,,,,,,,,,,,,,,,,,,,,,,,,
,,,,,,,,2023-08-16_08h49.07.545,HF_wild_card,2022.2.4,MacIntel,55.55555556,6027d7c787d2e926857eafc5,64d2fd46c836a06233681665,64dc7f4fb1882173e1f02fda,,,,,,,sngl,resources/Empty.png,resources/DB.BMP,Door3,0.147777778,0.002222222,1,0,0,0.711,optionRight,70,8575,4,31,0,31,0,1,,,,,,,,,,,,,,,,,,,,,,,,,,,,,,,,,,,,,,,
,,,,,,,,2023-08-16_08h49.07.545,HF_wild_card,2022.2.4,MacIntel,55.55555556,6027d7c787d2e926857eafc5,64d2fd46c836a06233681665,64dc7f4fb1882173e1f02fda,,,,,,,decisionTrl,resources/DR.BMP,resources/DY.BMP,Door1,-0.123333333,0.013333333,1,0,0,1.546,optionLeft,30,8605,4,32,0,32,0,1,,,,,,,,,,,,,,,,,,,,,,,,,,,,,,,,,,,,,,,
,,,,,,,,2023-08-16_08h49.07.545,HF_wild_card,2022.2.4,MacIntel,55.55555556,6027d7c787d2e926857eafc5,64d2fd46c836a06233681665,64dc7f4fb1882173e1f02fda,,,,,,,decisionTrl,resources/DB.BMP,resources/DBN.BMP,WildCard_NonEx,0.153333333,0.008888889,1,0,0,0.829,optionRight,55,8660,4,33,0,33,0,1,,,,,,,,,,,,,,,,,,,,,,,,,,,,,,,,,,,,,,,
,,,,,,,,2023-08-16_08h49.07.545,HF_wild_card,2022.2.4,MacIntel,55.55555556,6027d7c787d2e926857eafc5,64d2fd46c836a06233681665,64dc7f4fb1882173e1f02fda,,,,,,,ctch,resources/DP.BMP,resources/DR.BMP,Door4,-0.122222222,-0.006666667,1,0,0,0.963,optionLeft,80,8740,4,34,0,34,0,1,,,,,,,,,,,,,,,,,,,,,,,,,,,,,,,,,,,,,,,
,,,,,,,,2023-08-16_08h49.07.545,HF_wild_card,2022.2.4,MacIntel,55.55555556,6027d7c787d2e926857eafc5,64d2fd46c836a06233681665,64dc7f4fb1882173e1f02fda,,,,,,,sngl,resources/DB.BMP,resources/Empty.png,Door3,-0.123333333,-0.002222222,1,0,0,0.812,optionLeft,70,8810,4,35,0,35,0,1,,,,,,,,,,,,,,,,,,,,,,,,,,,,,,,,,,,,,,,
,,,,,,,,2023-08-16_08h49.07.545,HF_wild_card,2022.2.4,MacIntel,55.55555556,6027d7c787d2e926857eafc5,64d2fd46c836a06233681665,64dc7f4fb1882173e1f02fda,,,,,,,sngl,resources/DR.BMP,resources/Empty.png,Door1,-0.131111111,0.011111111,1,0,0,0.63,optionLeft,30,8840,4,36,0,36,0,1,,,,,,,,,,,,,,,,,,,,,,,,,,,,,,,,,,,,,,,
,,,,,,,,2023-08-16_08h49.07.545,HF_wild_card,2022.2.4,MacIntel,55.55555556,6027d7c787d2e926857eafc5,64d2fd46c836a06233681665,64dc7f4fb1882173e1f02fda,,,,,,,decisionTrl,resources/DBN.BMP,resources/DR.BMP,WildCard_NonEx,-0.153333333,0.033333333,1,0,0,0.796,optionLeft,55,8895,4,37,0,37,0,1,,,,,,,,,,,,,,,,,,,,,,,,,,,,,,,,,,,,,,,
,,,,,,,,2023-08-16_08h49.07.545,HF_wild_card,2022.2.4,MacIntel,55.55555556,6027d7c787d2e926857eafc5,64d2fd46c836a06233681665,64dc7f4fb1882173e1f02fda,,,,,,,decisionTrl,resources/DB.BMP,resources/DP.BMP,Door4,0.125555556,-0.006666667,1,0,0,2.063,optionRight,60,8955,4,38,0,38,0,1,,,,,,,,,,,,,,,,,,,,,,,,,,,,,,,,,,,,,,,
,,,,,,,,2023-08-16_08h49.07.545,HF_wild_card,2022.2.4,MacIntel,55.55555556,6027d7c787d2e926857eafc5,64d2fd46c836a06233681665,64dc7f4fb1882173e1f02fda,,,,,,,decisionTrl,resources/DP.BMP,resources/DBN.BMP,Door4,-0.122222222,-0.011111111,1,0,0,1.211,optionLeft,60,9015,4,39,0,39,0,1,,,,,,,,,,,,,,,,,,,,,,,,,,,,,,,,,,,,,,,
,,,,,,,,2023-08-16_08h49.07.545,HF_wild_card,2022.2.4,MacIntel,55.55555556,6027d7c787d2e926857eafc5,64d2fd46c836a06233681665,64dc7f4fb1882173e1f02fda,,,,,,,ctch,resources/DB.BMP,resources/DY.BMP,Door3,-0.118888889,-0.014444444,1,0,0,1.429,optionLeft,70,9085,4,40,0,40,0,1,,,,,,,,,,,,,,,,,,,,,,,,,,,,,,,,,,,,,,,
,,,,,,,,2023-08-16_08h49.07.545,HF_wild_card,2022.2.4,MacIntel,55.55555556,6027d7c787d2e926857eafc5,64d2fd46c836a06233681665,64dc7f4fb1882173e1f02fda,,,,,,,decisionTrl,resources/DB.BMP,resources/DP.BMP,Door4,0.198888889,0.002222222,1,0,0,2.062,optionRight,80,9165,4,41,0,41,0,1,,,,,,,,,,,,,,,,,,,,,,,,,,,,,,,,,,,,,,,
,,,,,,,,2023-08-16_08h49.07.545,HF_wild_card,2022.2.4,MacIntel,55.55555556,6027d7c787d2e926857eafc5,64d2fd46c836a06233681665,64dc7f4fb1882173e1f02fda,,,,,,,sngl,resources/Empty.png,resources/DY.BMP,Door2,0.143333333,0.007777778,1,0,0,1.112,optionRight,40,9205,4,42,0,42,0,1,,,,,,,,,,,,,,,,,,,,,,,,,,,,,,,,,,,,,,,
,,,,,,,,2023-08-16_08h49.07.545,HF_wild_card,2022.2.4,MacIntel,55.55555556,6027d7c787d2e926857eafc5,64d2fd46c836a06233681665,64dc7f4fb1882173e1f02fda,,,,,,,decisionTrl,resources/DP.BMP,resources/DB.BMP,Door4,-0.131111111,-0.017777778,1,0,0,1.046,optionLeft,80,9285,4,43,0,43,0,1,,,,,,,,,,,,,,,,,,,,,,,,,,,,,,,,,,,,,,,
,,,,,,,,2023-08-16_08h49.07.545,HF_wild_card,2022.2.4,MacIntel,55.55555556,6027d7c787d2e926857eafc5,64d2fd46c836a06233681665,64dc7f4fb1882173e1f02fda,,,,,,,,,,,,,,,,,,,,,,,,,,3,0,3,0,1,,,,,,,,,,,,,,,,,,,,,,,,,,,,,,,,,,
,,,,,,,,2023-08-16_08h49.07.545,HF_wild_card,2022.2.4,MacIntel,55.55555556,6027d7c787d2e926857eafc5,64d2fd46c836a06233681665,64dc7f4fb1882173e1f02fda,,,,,,,decisionTrl,resources/DB.BMP,resources/DP.BMP,Door4,0.156666667,-0.037777778,1,0,0,1.492,optionRight,80,9365,5,0,0,0,0,1,,,,,,,,,,,,,,,,,,,,,,,,,,,,,,,,,,,,,,,
,,,,,,,,2023-08-16_08h49.07.545,HF_wild_card,2022.2.4,MacIntel,55.55555556,6027d7c787d2e926857eafc5,64d2fd46c836a06233681665,64dc7f4fb1882173e1f02fda,,,,,,,decisionTrl,resources/DB.BMP,resources/DP.BMP,Door4,0.132222222,-0.004444444,1,0,0,0.978,optionRight,80,9445,5,1,0,1,0,1,,,,,,,,,,,,,,,,,,,,,,,,,,,,,,,,,,,,,,,
,,,,,,,,2023-08-16_08h49.07.545,HF_wild_card,2022.2.4,MacIntel,55.55555556,6027d7c787d2e926857eafc5,64d2fd46c836a06233681665,64dc7f4fb1882173e1f02fda,,,,,,,sngl,resources/DBN.BMP,resources/Empty.png,WildCard_NonEx,-0.131111111,0.004444444,1,0,0,0.712,optionLeft,45,9490,5,2,0,2,0,1,,,,,,,,,,,,,,,,,,,,,,,,,,,,,,,,,,,,,,,
,,,,,,,,2023-08-16_08h49.07.545,HF_wild_card,2022.2.4,MacIntel,55.55555556,6027d7c787d2e926857eafc5,64d2fd46c836a06233681665,64dc7f4fb1882173e1f02fda,,,,,,,sngl,resources/Empty.png,resources/DBN.BMP,WildCard_NonEx,0.141111111,0.012222222,1,0,0,0.762,optionRight,55,9545,5,3,0,3,0,1,,,,,,,,,,,,,,,,,,,,,,,,,,,,,,,,,,,,,,,
,,,,,,,,2023-08-16_08h49.07.545,HF_wild_card,2022.2.4,MacIntel,55.55555556,6027d7c787d2e926857eafc5,64d2fd46c836a06233681665,64dc7f4fb1882173e1f02fda,,,,,,,sngl,resources/DY.BMP,resources/Empty.png,Door2,-0.135555556,0.001111111,1,0,0,0.729,optionLeft,40,9585,5,4,0,4,0,1,,,,,,,,,,,,,,,,,,,,,,,,,,,,,,,,,,,,,,,
,,,,,,,,2023-08-16_08h49.07.545,HF_wild_card,2022.2.4,MacIntel,55.55555556,6027d7c787d2e926857eafc5,64d2fd46c836a06233681665,64dc7f4fb1882173e1f02fda,,,,,,,ctch,resources/DY.BMP,resources/DB.BMP,Door3,0.103333333,-0.003333333,1,0,0,1.313,optionRight,70,9655,5,5,0,5,0,1,,,,,,,,,,,,,,,,,,,,,,,,,,,,,,,,,,,,,,,
,,,,,,,,2023-08-16_08h49.07.545,HF_wild_card,2022.2.4,MacIntel,55.55555556,6027d7c787d2e926857eafc5,64d2fd46c836a06233681665,64dc7f4fb1882173e1f02fda,,,,,,,decisionTrl,resources/DP.BMP,resources/DB.BMP,Door4,-0.136666667,-0.001111111,1,0,0,0.879,optionLeft,60,9715,5,6,0,6,0,1,,,,,,,,,,,,,,,,,,,,,,,,,,,,,,,,,,,,,,,
,,,,,,,,2023-08-16_08h49.07.545,HF_wild_card,2022.2.4,MacIntel,55.55555556,6027d7c787d2e926857eafc5,64d2fd46c836a06233681665,64dc7f4fb1882173e1f02fda,,,,,,,ctch,resources/DP.BMP,resources/DR.BMP,Door4,-0.136666667,0.008888889,1,0,0,0.813,optionLeft,80,9795,5,7,0,7,0,1,,,,,,,,,,,,,,,,,,,,,,,,,,,,,,,,,,,,,,,
,,,,,,,,2023-08-16_08h49.07.545,HF_wild_card,2022.2.4,MacIntel,55.55555556,6027d7c787d2e926857eafc5,64d2fd46c836a06233681665,64dc7f4fb1882173e1f02fda,,,,,,,sngl,resources/Empty.png,resources/DR.BMP,Door1,0.15,0.004444444,1,0,0,0.813,optionRight,30,9825,5,8,0,8,0,1,,,,,,,,,,,,,,,,,,,,,,,,,,,,,,,,,,,,,,,
,,,,,,,,2023-08-16_08h49.07.545,HF_wild_card,2022.2.4,MacIntel,55.55555556,6027d7c787d2e926857eafc5,64d2fd46c836a06233681665,64dc7f4fb1882173e1f02fda,,,,,,,sngl,resources/DB.BMP,resources/Empty.png,Door3,-0.131111111,-0.003333333,1,0,0,0.661,optionLeft,70,9895,5,9,0,9,0,1,,,,,,,,,,,,,,,,,,,,,,,,,,,,,,,,,,,,,,,
,,,,,,,,2023-08-16_08h49.07.545,HF_wild_card,2022.2.4,MacIntel,55.55555556,6027d7c787d2e926857eafc5,64d2fd46c836a06233681665,64dc7f4fb1882173e1f02fda,,,,,,,decisionTrl,resources/DP.BMP,resources/DBN.BMP,WildCard_NonEx,0.137777778,0.027777778,1,0,0,0.995,optionRight,55,9950,5,10,0,10,0,1,,,,,,,,,,,,,,,,,,,,,,,,,,,,,,,,,,,,,,,
,,,,,,,,2023-08-16_08h49.07.545,HF_wild_card,2022.2.4,MacIntel,55.55555556,6027d7c787d2e926857eafc5,64d2fd46c836a06233681665,64dc7f4fb1882173e1f02fda,,,,,,,sngl,resources/Empty.png,resources/DB.BMP,Door3,0.183333333,0.043333333,1,0,0,0.612,optionRight,70,10020,5,11,0,11,0,1,,,,,,,,,,,,,,,,,,,,,,,,,,,,,,,,,,,,,,,
,,,,,,,,2023-08-16_08h49.07.545,HF_wild_card,2022.2.4,MacIntel,55.55555556,6027d7c787d2e926857eafc5,64d2fd46c836a06233681665,64dc7f4fb1882173e1f02fda,,,,,,,decisionTrl,resources/DP.BMP,resources/DB.BMP,Door4,-0.127777778,-0.001111111,1,0,0,0.745,optionLeft,80,10100,5,12,0,12,0,1,,,,,,,,,,,,,,,,,,,,,,,,,,,,,,,,,,,,,,,
,,,,,,,,2023-08-16_08h49.07.545,HF_wild_card,2022.2.4,MacIntel,55.55555556,6027d7c787d2e926857eafc5,64d2fd46c836a06233681665,64dc7f4fb1882173e1f02fda,,,,,,,decisionTrl,resources/DBN.BMP,resources/DY.BMP,WildCard_NonEx,-0.125555556,0.01,1,0,0,0.762,optionLeft,45,10145,5,13,0,13,0,1,,,,,,,,,,,,,,,,,,,,,,,,,,,,,,,,,,,,,,,
,,,,,,,,2023-08-16_08h49.07.545,HF_wild_card,2022.2.4,MacIntel,55.55555556,6027d7c787d2e926857eafc5,64d2fd46c836a06233681665,64dc7f4fb1882173e1f02fda,,,,,,,sngl,resources/DBN.BMP,resources/Empty.png,WildCard_NonEx,-0.122222222,0.013333333,1,0,0,0.646,optionLeft,55,10200,5,14,0,14,0,1,,,,,,,,,,,,,,,,,,,,,,,,,,,,,,,,,,,,,,,
,,,,,,,,2023-08-16_08h49.07.545,HF_wild_card,2022.2.4,MacIntel,55.55555556,6027d7c787d2e926857eafc5,64d2fd46c836a06233681665,64dc7f4fb1882173e1f02fda,,,,,,,sngl,resources/Empty.png,resources/DP.BMP,Door4,0.134444444,0.008888889,1,0,0,0.779,optionRight,60,10260,5,15,0,15,0,1,,,,,,,,,,,,,,,,,,,,,,,,,,,,,,,,,,,,,,,
,,,,,,,,2023-08-16_08h49.07.545,HF_wild_card,2022.2.4,MacIntel,55.55555556,6027d7c787d2e926857eafc5,64d2fd46c836a06233681665,64dc7f4fb1882173e1f02fda,,,,,,,decisionTrl,resources/DB.BMP,resources/DBN.BMP,WildCard_NonEx,0.135555556,-0.002222222,1,0,0,1.813,optionRight,55,10315,5,16,0,16,0,1,,,,,,,,,,,,,,,,,,,,,,,,,,,,,,,,,,,,,,,
,,,,,,,,2023-08-16_08h49.07.545,HF_wild_card,2022.2.4,MacIntel,55.55555556,6027d7c787d2e926857eafc5,64d2fd46c836a06233681665,64dc7f4fb1882173e1f02fda,,,,,,,sngl,resources/DP.BMP,resources/Empty.png,Door4,-0.125555556,0.002222222,1,0,0,0.878,optionLeft,80,10395,5,17,0,17,0,1,,,,,,,,,,,,,,,,,,,,,,,,,,,,,,,,,,,,,,,
,,,,,,,,2023-08-16_08h49.07.545,HF_wild_card,2022.2.4,MacIntel,55.55555556,6027d7c787d2e926857eafc5,64d2fd46c836a06233681665,64dc7f4fb1882173e1f02fda,,,,,,,decisionTrl,resources/DR.BMP,resources/DY.BMP,Door2,0.102222222,-0.003333333,1,0,0,1.795,optionRight,40,10435,5,18,0,18,0,1,,,,,,,,,,,,,,,,,,,,,,,,,,,,,,,,,,,,,,,
,,,,,,,,2023-08-16_08h49.07.545,HF_wild_card,2022.2.4,MacIntel,55.55555556,6027d7c787d2e926857eafc5,64d2fd46c836a06233681665,64dc7f4fb1882173e1f02fda,,,,,,,ctch,resources/DR.BMP,resources/DP.BMP,Door4,0.137777778,-0.002222222,1,0,0,1.313,optionRight,80,10515,5,19,0,19,0,1,,,,,,,,,,,,,,,,,,,,,,,,,,,,,,,,,,,,,,,
,,,,,,,,2023-08-16_08h49.07.545,HF_wild_card,2022.2.4,MacIntel,55.55555556,6027d7c787d2e926857eafc5,64d2fd46c836a06233681665,64dc7f4fb1882173e1f02fda,,,,,,,decisionTrl,resources/DR.BMP,resources/DY.BMP,Door1,-0.121111111,0.003333333,1,0,0,1.262,optionLeft,30,10545,5,20,0,20,0,1,,,,,,,,,,,,,,,,,,,,,,,,,,,,,,,,,,,,,,,
,,,,,,,,2023-08-16_08h49.07.545,HF_wild_card,2022.2.4,MacIntel,55.55555556,6027d7c787d2e926857eafc5,64d2fd46c836a06233681665,64dc7f4fb1882173e1f02fda,,,,,,,decisionTrl,resources/DY.BMP,resources/DR.BMP,Door2,-0.13,0.003333333,1,0,0,1.396,optionLeft,20,10565,5,21,0,21,0,1,,,,,,,,,,,,,,,,,,,,,,,,,,,,,,,,,,,,,,,
,,,,,,,,2023-08-16_08h49.07.545,HF_wild_card,2022.2.4,MacIntel,55.55555556,6027d7c787d2e926857eafc5,64d2fd46c836a06233681665,64dc7f4fb1882173e1f02fda,,,,,,,decisionTrl,resources/DR.BMP,resources/DY.BMP,Door1,-0.138888889,-0.001111111,1,0,0,0.978,optionLeft,30,10595,5,22,0,22,0,1,,,,,,,,,,,,,,,,,,,,,,,,,,,,,,,,,,,,,,,
,,,,,,,,2023-08-16_08h49.07.545,HF_wild_card,2022.2.4,MacIntel,55.55555556,6027d7c787d2e926857eafc5,64d2fd46c836a06233681665,64dc7f4fb1882173e1f02fda,,,,,,,ctch,resources/DY.BMP,resources/DB.BMP,Door3,0.13,0.014444444,1,0,0,1.079,optionRight,70,10665,5,23,0,23,0,1,,,,,,,,,,,,,,,,,,,,,,,,,,,,,,,,,,,,,,,
,,,,,,,,2023-08-16_08h49.07.545,HF_wild_card,2022.2.4,MacIntel,55.55555556,6027d7c787d2e926857eafc5,64d2fd46c836a06233681665,64dc7f4fb1882173e1f02fda,,,,,,,decisionTrl,resources/DR.BMP,resources/DY.BMP,Door1,-0.163333333,0.006666667,1,0,0,1.544,optionLeft,30,10695,5,24,0,24,0,1,,,,,,,,,,,,,,,,,,,,,,,,,,,,,,,,,,,,,,,
,,,,,,,,2023-08-16_08h49.07.545,HF_wild_card,2022.2.4,MacIntel,55.55555556,6027d7c787d2e926857eafc5,64d2fd46c836a06233681665,64dc7f4fb1882173e1f02fda,,,,,,,decisionTrl,resources/DR.BMP,resources/DBN.BMP,WildCard_NonEx,0.137777778,0.002222222,1,0,0,0.812,optionRight,45,10740,5,25,0,25,0,1,,,,,,,,,,,,,,,,,,,,,,,,,,,,,,,,,,,,,,,
,,,,,,,,2023-08-16_08h49.07.545,HF_wild_card,2022.2.4,MacIntel,55.55555556,6027d7c787d2e926857eafc5,64d2fd46c836a06233681665,64dc7f4fb1882173e1f02fda,,,,,,,decisionTrl,resources/DY.BMP,resources/DR.BMP,Door1,0.112222222,-0.003333333,1,0,0,1.879,optionRight,30,10770,5,26,0,26,0,1,,,,,,,,,,,,,,,,,,,,,,,,,,,,,,,,,,,,,,,
,,,,,,,,2023-08-16_08h49.07.545,HF_wild_card,2022.2.4,MacIntel,55.55555556,6027d7c787d2e926857eafc5,64d2fd46c836a06233681665,64dc7f4fb1882173e1f02fda,,,,,,,decisionTrl,resources/DY.BMP,resources/DR.BMP,Door1,0.124444444,-0.002222222,1,0,0,1.029,optionRight,30,10800,5,27,0,27,0,1,,,,,,,,,,,,,,,,,,,,,,,,,,,,,,,,,,,,,,,
,,,,,,,,2023-08-16_08h49.07.545,HF_wild_card,2022.2.4,MacIntel,55.55555556,6027d7c787d2e926857eafc5,64d2fd46c836a06233681665,64dc7f4fb1882173e1f02fda,,,,,,,sngl,resources/Empty.png,resources/DBN.BMP,WildCard_NonEx,0.107777778,-0.004444444,1,0,0,0.796,optionRight,45,10845,5,28,0,28,0,1,,,,,,,,,,,,,,,,,,,,,,,,,,,,,,,,,,,,,,,
,,,,,,,,2023-08-16_08h49.07.545,HF_wild_card,2022.2.4,MacIntel,55.55555556,6027d7c787d2e926857eafc5,64d2fd46c836a06233681665,64dc7f4fb1882173e1f02fda,,,,,,,sngl,resources/DR.BMP,resources/Empty.png,Door1,-0.135555556,-0.007777778,1,0,0,0.746,optionLeft,30,10875,5,29,0,29,0,1,,,,,,,,,,,,,,,,,,,,,,,,,,,,,,,,,,,,,,,
,,,,,,,,2023-08-16_08h49.07.545,HF_wild_card,2022.2.4,MacIntel,55.55555556,6027d7c787d2e926857eafc5,64d2fd46c836a06233681665,64dc7f4fb1882173e1f02fda,,,,,,,decisionTrl,resources/DP.BMP,resources/DB.BMP,Door4,-0.142222222,-0.005555556,1,0,0,1.029,optionLeft,80,10955,5,30,0,30,0,1,,,,,,,,,,,,,,,,,,,,,,,,,,,,,,,,,,,,,,,
,,,,,,,,2023-08-16_08h49.07.545,HF_wild_card,2022.2.4,MacIntel,55.55555556,6027d7c787d2e926857eafc5,64d2fd46c836a06233681665,64dc7f4fb1882173e1f02fda,,,,,,,decisionTrl,resources/DB.BMP,resources/DP.BMP,Door4,0.153333333,0.003333333,1,0,0,0.912,optionRight,60,11015,5,31,0,31,0,1,,,,,,,,,,,,,,,,,,,,,,,,,,,,,,,,,,,,,,,
,,,,,,,,2023-08-16_08h49.07.545,HF_wild_card,2022.2.4,MacIntel,55.55555556,6027d7c787d2e926857eafc5,64d2fd46c836a06233681665,64dc7f4fb1882173e1f02fda,,,,,,,decisionTrl,resources/DY.BMP,resources/DBN.BMP,WildCard_NonEx,0.11,0.002222222,1,0,0,1.193,optionRight,45,11060,5,32,0,32,0,1,,,,,,,,,,,,,,,,,,,,,,,,,,,,,,,,,,,,,,,
,,,,,,,,2023-08-16_08h49.07.545,HF_wild_card,2022.2.4,MacIntel,55.55555556,6027d7c787d2e926857eafc5,64d2fd46c836a06233681665,64dc7f4fb1882173e1f02fda,,,,,,,ctch,resources/DB.BMP,resources/DY.BMP,Door3,-0.123333333,-0.011111111,1,0,0,1.195,optionLeft,70,11130,5,33,0,33,0,1,,,,,,,,,,,,,,,,,,,,,,,,,,,,,,,,,,,,,,,
,,,,,,,,2023-08-16_08h49.07.545,HF_wild_card,2022.2.4,MacIntel,55.55555556,6027d7c787d2e926857eafc5,64d2fd46c836a06233681665,64dc7f4fb1882173e1f02fda,,,,,,,ctch,resources/DB.BMP,resources/DY.BMP,Door3,-0.138888889,-0.022222222,1,0,0,1.195,optionLeft,70,11200,5,34,0,34,0,1,,,,,,,,,,,,,,,,,,,,,,,,,,,,,,,,,,,,,,,
,,,,,,,,2023-08-16_08h49.07.545,HF_wild_card,2022.2.4,MacIntel,55.55555556,6027d7c787d2e926857eafc5,64d2fd46c836a06233681665,64dc7f4fb1882173e1f02fda,,,,,,,ctch,resources/DR.BMP,resources/DP.BMP,Door4,0.104444444,0.018888889,1,0,0,0.862,optionRight,60,11260,5,35,0,35,0,1,,,,,,,,,,,,,,,,,,,,,,,,,,,,,,,,,,,,,,,
,,,,,,,,2023-08-16_08h49.07.545,HF_wild_card,2022.2.4,MacIntel,55.55555556,6027d7c787d2e926857eafc5,64d2fd46c836a06233681665,64dc7f4fb1882173e1f02fda,,,,,,,decisionTrl,resources/DBN.BMP,resources/DR.BMP,WildCard_NonEx,-0.112222222,-0.008888889,1,0,0,1.596,optionLeft,55,11315,5,36,0,36,0,1,,,,,,,,,,,,,,,,,,,,,,,,,,,,,,,,,,,,,,,
,,,,,,,,2023-08-16_08h49.07.545,HF_wild_card,2022.2.4,MacIntel,55.55555556,6027d7c787d2e926857eafc5,64d2fd46c836a06233681665,64dc7f4fb1882173e1f02fda,,,,,,,decisionTrl,resources/DY.BMP,resources/DR.BMP,Door1,0.133333333,0.006666667,1,0,0,2.178,optionRight,30,11345,5,37,0,37,0,1,,,,,,,,,,,,,,,,,,,,,,,,,,,,,,,,,,,,,,,
,,,,,,,,2023-08-16_08h49.07.545,HF_wild_card,2022.2.4,MacIntel,55.55555556,6027d7c787d2e926857eafc5,64d2fd46c836a06233681665,64dc7f4fb1882173e1f02fda,,,,,,,decisionTrl,resources/DB.BMP,resources/DP.BMP,Door4,0.134444444,0.005555556,1,0,0,1.229,optionRight,80,11425,5,38,0,38,0,1,,,,,,,,,,,,,,,,,,,,,,,,,,,,,,,,,,,,,,,
,,,,,,,,2023-08-16_08h49.07.545,HF_wild_card,2022.2.4,MacIntel,55.55555556,6027d7c787d2e926857eafc5,64d2fd46c836a06233681665,64dc7f4fb1882173e1f02fda,,,,,,,decisionTrl,resources/DBN.BMP,resources/DP.BMP,Door4,0.136666667,-0.003333333,1,0,0,1.646,optionRight,80,11505,5,39,0,39,0,1,,,,,,,,,,,,,,,,,,,,,,,,,,,,,,,,,,,,,,,
,,,,,,,,2023-08-16_08h49.07.545,HF_wild_card,2022.2.4,MacIntel,55.55555556,6027d7c787d2e926857eafc5,64d2fd46c836a06233681665,64dc7f4fb1882173e1f02fda,,,,,,,decisionTrl,resources/DBN.BMP,resources/DB.BMP,Door3,0.108888889,-0.01,1,0,0,1.211,optionRight,70,11575,5,40,0,40,0,1,,,,,,,,,,,,,,,,,,,,,,,,,,,,,,,,,,,,,,,
,,,,,,,,2023-08-16_08h49.07.545,HF_wild_card,2022.2.4,MacIntel,55.55555556,6027d7c787d2e926857eafc5,64d2fd46c836a06233681665,64dc7f4fb1882173e1f02fda,,,,,,,ctch,resources/DP.BMP,resources/DR.BMP,Door4,-0.112222222,-0.012222222,1,0,0,1.262,optionLeft,60,11635,5,41,0,41,0,1,,,,,,,,,,,,,,,,,,,,,,,,,,,,,,,,,,,,,,,
,,,,,,,,2023-08-16_08h49.07.545,HF_wild_card,2022.2.4,MacIntel,55.55555556,6027d7c787d2e926857eafc5,64d2fd46c836a06233681665,64dc7f4fb1882173e1f02fda,,,,,,,sngl,resources/Empty.png,resources/DY.BMP,Door2,0.128888889,-0.014444444,1,0,0,0.929,optionRight,20,11655,5,42,0,42,0,1,,,,,,,,,,,,,,,,,,,,,,,,,,,,,,,,,,,,,,,
,,,,,,,,2023-08-16_08h49.07.545,HF_wild_card,2022.2.4,MacIntel,55.55555556,6027d7c787d2e926857eafc5,64d2fd46c836a06233681665,64dc7f4fb1882173e1f02fda,,,,,,,decisionTrl,resources/DP.BMP,resources/DB.BMP,Door4,-0.136666667,-0.027777778,1,0,0,0.896,optionLeft,80,11735,5,43,0,43,0,1,,,,,,,,,,,,,,,,,,,,,,,,,,,,,,,,,,,,,,,
,,,,,,,,2023-08-16_08h49.07.545,HF_wild_card,2022.2.4,MacIntel,55.55555556,6027d7c787d2e926857eafc5,64d2fd46c836a06233681665,64dc7f4fb1882173e1f02fda,,,,,,,,,,,,,,,,,,,,,,,,,,4,0,4,0,1,,,,,,,,,,,,,,,,,,,,,,,,,,,,,,,,,,
,,,,,,,,2023-08-16_08h49.07.545,HF_wild_card,2022.2.4,MacIntel,55.55555556,6027d7c787d2e926857eafc5,64d2fd46c836a06233681665,64dc7f4fb1882173e1f02fda,,,,,,,decisionTrl,resources/DR.BMP,resources/DY.BMP,Door1,-0.131111111,-0.125555556,1,0,0,1.727,optionLeft,30,11765,6,0,0,0,0,1,,,,,,,,,,,,,,,,,,,,,,,,,,,,,,,,,,,,,,,
,,,,,,,,2023-08-16_08h49.07.545,HF_wild_card,2022.2.4,MacIntel,55.55555556,6027d7c787d2e926857eafc5,64d2fd46c836a06233681665,64dc7f4fb1882173e1f02fda,,,,,,,decisionTrl,resources/DP.BMP,resources/DB.BMP,Door4,-0.131111111,-0.025555556,1,0,0,1.063,optionLeft,80,11845,6,1,0,1,0,1,,,,,,,,,,,,,,,,,,,,,,,,,,,,,,,,,,,,,,,
,,,,,,,,2023-08-16_08h49.07.545,HF_wild_card,2022.2.4,MacIntel,55.55555556,6027d7c787d2e926857eafc5,64d2fd46c836a06233681665,64dc7f4fb1882173e1f02fda,,,,,,,ctch,resources/DY.BMP,resources/DB.BMP,Door3,0.101111111,0.003333333,1,0,0,1.178,optionRight,70,11915,6,2,0,2,0,1,,,,,,,,,,,,,,,,,,,,,,,,,,,,,,,,,,,,,,,
,,,,,,,,2023-08-16_08h49.07.545,HF_wild_card,2022.2.4,MacIntel,55.55555556,6027d7c787d2e926857eafc5,64d2fd46c836a06233681665,64dc7f4fb1882173e1f02fda,,,,,,,ctch,resources/DY.BMP,resources/DB.BMP,Door3,0.124444444,0.003333333,1,0,0,1.03,optionRight,70,11985,6,3,0,3,0,1,,,,,,,,,,,,,,,,,,,,,,,,,,,,,,,,,,,,,,,
,,,,,,,,2023-08-16_08h49.07.545,HF_wild_card,2022.2.4,MacIntel,55.55555556,6027d7c787d2e926857eafc5,64d2fd46c836a06233681665,64dc7f4fb1882173e1f02fda,,,,,,,decisionTrl,resources/DBN.BMP,resources/DR.BMP,WildCard_NonEx,-0.125555556,-0.007777778,1,0,0,1.363,optionLeft,45,12030,6,4,0,4,0,1,,,,,,,,,,,,,,,,,,,,,,,,,,,,,,,,,,,,,,,
,,,,,,,,2023-08-16_08h49.07.545,HF_wild_card,2022.2.4,MacIntel,55.55555556,6027d7c787d2e926857eafc5,64d2fd46c836a06233681665,64dc7f4fb1882173e1f02fda,,,,,,,decisionTrl,resources/DB.BMP,resources/DP.BMP,Door4,0.133333333,-0.001111111,1,0,0,1.046,optionRight,60,12090,6,5,0,5,0,1,,,,,,,,,,,,,,,,,,,,,,,,,,,,,,,,,,,,,,,
,,,,,,,,2023-08-16_08h49.07.545,HF_wild_card,2022.2.4,MacIntel,55.55555556,6027d7c787d2e926857eafc5,64d2fd46c836a06233681665,64dc7f4fb1882173e1f02fda,,,,,,,sngl,resources/Empty.png,resources/DR.BMP,Door1,0.182222222,0.015555556,1,0,0,0.679,optionRight,30,12120,6,6,0,6,0,1,,,,,,,,,,,,,,,,,,,,,,,,,,,,,,,,,,,,,,,
,,,,,,,,2023-08-16_08h49.07.545,HF_wild_card,2022.2.4,MacIntel,55.55555556,6027d7c787d2e926857eafc5,64d2fd46c836a06233681665,64dc7f4fb1882173e1f02fda,,,,,,,decisionTrl,resources/DP.BMP,resources/DB.BMP,Door4,-0.118888889,0.01,1,0,0,0.796,optionLeft,60,12180,6,7,0,7,0,1,,,,,,,,,,,,,,,,,,,,,,,,,,,,,,,,,,,,,,,
,,,,,,,,2023-08-16_08h49.07.545,HF_wild_card,2022.2.4,MacIntel,55.55555556,6027d7c787d2e926857eafc5,64d2fd46c836a06233681665,64dc7f4fb1882173e1f02fda,,,,,,,decisionTrl,resources/DP.BMP,resources/DB.BMP,Door4,-0.127777778,0.011111111,1,0,0,0.695,optionLeft,60,12240,6,8,0,8,0,1,,,,,,,,,,,,,,,,,,,,,,,,,,,,,,,,,,,,,,,
,,,,,,,,2023-08-16_08h49.07.545,HF_wild_card,2022.2.4,MacIntel,55.55555556,6027d7c787d2e926857eafc5,64d2fd46c836a06233681665,64dc7f4fb1882173e1f02fda,,,,,,,decisionTrl,resources/DBN.BMP,resources/DY.BMP,WildCard_NonEx,-0.117777778,0.001111111,1,0,0,1.094,optionLeft,45,12285,6,9,0,9,0,1,,,,,,,,,,,,,,,,,,,,,,,,,,,,,,,,,,,,,,,
,,,,,,,,2023-08-16_08h49.07.545,HF_wild_card,2022.2.4,MacIntel,55.55555556,6027d7c787d2e926857eafc5,64d2fd46c836a06233681665,64dc7f4fb1882173e1f02fda,,,,,,,decisionTrl,resources/DR.BMP,resources/DY.BMP,Door1,-0.136666667,-0.024444444,1,0,0,1.328,optionLeft,30,12315,6,10,0,10,0,1,,,,,,,,,,,,,,,,,,,,,,,,,,,,,,,,,,,,,,,
,,,,,,,,2023-08-16_08h49.07.545,HF_wild_card,2022.2.4,MacIntel,55.55555556,6027d7c787d2e926857eafc5,64d2fd46c836a06233681665,64dc7f4fb1882173e1f02fda,,,,,,,decisionTrl,resources/DBN.BMP,resources/DB.BMP,Door3,0.16,0.018888889,1,0,0,1.561,optionRight,70,12385,6,11,0,11,0,1,,,,,,,,,,,,,,,,,,,,,,,,,,,,,,,,,,,,,,,
,,,,,,,,2023-08-16_08h49.07.545,HF_wild_card,2022.2.4,MacIntel,55.55555556,6027d7c787d2e926857eafc5,64d2fd46c836a06233681665,64dc7f4fb1882173e1f02fda,,,,,,,decisionTrl,resources/DY.BMP,resources/DR.BMP,Door1,0.164444444,-0.016666667,1,0,0,1.197,optionRight,30,12415,6,12,0,12,0,1,,,,,,,,,,,,,,,,,,,,,,,,,,,,,,,,,,,,,,,
,,,,,,,,2023-08-16_08h49.07.545,HF_wild_card,2022.2.4,MacIntel,55.55555556,6027d7c787d2e926857eafc5,64d2fd46c836a06233681665,64dc7f4fb1882173e1f02fda,,,,,,,decisionTrl,resources/DB.BMP,resources/DP.BMP,Door4,0.135555556,-0.031111111,1,0,0,1.044,optionRight,60,12475,6,13,0,13,0,1,,,,,,,,,,,,,,,,,,,,,,,,,,,,,,,,,,,,,,,
,,,,,,,,2023-08-16_08h49.07.545,HF_wild_card,2022.2.4,MacIntel,55.55555556,6027d7c787d2e926857eafc5,64d2fd46c836a06233681665,64dc7f4fb1882173e1f02fda,,,,,,,sngl,resources/DR.BMP,resources/Empty.png,Door1,-0.122222222,-0.028888889,1,0,0,0.629,optionLeft,30,12505,6,14,0,14,0,1,,,,,,,,,,,,,,,,,,,,,,,,,,,,,,,,,,,,,,,
,,,,,,,,2023-08-16_08h49.07.545,HF_wild_card,2022.2.4,MacIntel,55.55555556,6027d7c787d2e926857eafc5,64d2fd46c836a06233681665,64dc7f4fb1882173e1f02fda,,,,,,,sngl,resources/DBN.BMP,resources/Empty.png,WildCard_NonEx,-0.114444444,-0.016666667,1,0,0,0.629,optionLeft,45,12550,6,15,0,15,0,1,,,,,,,,,,,,,,,,,,,,,,,,,,,,,,,,,,,,,,,
,,,,,,,,2023-08-16_08h49.07.545,HF_wild_card,2022.2.4,MacIntel,55.55555556,6027d7c787d2e926857eafc5,64d2fd46c836a06233681665,64dc7f4fb1882173e1f02fda,,,,,,,decisionTrl,resources/DR.BMP,resources/DBN.BMP,WildCard_NonEx,0.116666667,-0.012222222,1,0,0,1.212,optionRight,55,12605,6,16,0,16,0,1,,,,,,,,,,,,,,,,,,,,,,,,,,,,,,,,,,,,,,,
,,,,,,,,2023-08-16_08h49.07.545,HF_wild_card,2022.2.4,MacIntel,55.55555556,6027d7c787d2e926857eafc5,64d2fd46c836a06233681665,64dc7f4fb1882173e1f02fda,,,,,,,ctch,resources/DR.BMP,resources/DP.BMP,Door4,0.108888889,-0.014444444,1,0,0,0.862,optionRight,60,12665,6,17,0,17,0,1,,,,,,,,,,,,,,,,,,,,,,,,,,,,,,,,,,,,,,,
,,,,,,,,2023-08-16_08h49.07.545,HF_wild_card,2022.2.4,MacIntel,55.55555556,6027d7c787d2e926857eafc5,64d2fd46c836a06233681665,64dc7f4fb1882173e1f02fda,,,,,,,ctch,resources/DP.BMP,resources/DR.BMP,Door4,-0.137777778,-0.017777778,1,0,0,2.196,optionLeft,60,12725,6,18,0,18,0,1,,,,,,,,,,,,,,,,,,,,,,,,,,,,,,,,,,,,,,,
,,,,,,,,2023-08-16_08h49.07.545,HF_wild_card,2022.2.4,MacIntel,55.55555556,6027d7c787d2e926857eafc5,64d2fd46c836a06233681665,64dc7f4fb1882173e1f02fda,,,,,,,sngl,resources/Empty.png,resources/DB.BMP,Door3,0.107777778,-0.018888889,1,0,0,0.794,optionRight,70,12795,6,19,0,19,0,1,,,,,,,,,,,,,,,,,,,,,,,,,,,,,,,,,,,,,,,
,,,,,,,,2023-08-16_08h49.07.545,HF_wild_card,2022.2.4,MacIntel,55.55555556,6027d7c787d2e926857eafc5,64d2fd46c836a06233681665,64dc7f4fb1882173e1f02fda,,,,,,,decisionTrl,resources/DB.BMP,resources/DP.BMP,Door4,0.106666667,-0.021111111,1,0,0,1.13,optionRight,60,12855,6,20,0,20,0,1,,,,,,,,,,,,,,,,,,,,,,,,,,,,,,,,,,,,,,,
,,,,,,,,2023-08-16_08h49.07.545,HF_wild_card,2022.2.4,MacIntel,55.55555556,6027d7c787d2e926857eafc5,64d2fd46c836a06233681665,64dc7f4fb1882173e1f02fda,,,,,,,decisionTrl,resources/DY.BMP,resources/DR.BMP,Door1,0.12,-0.003333333,1,0,0,1.396,optionRight,30,12885,6,21,0,21,0,1,,,,,,,,,,,,,,,,,,,,,,,,,,,,,,,,,,,,,,,
,,,,,,,,2023-08-16_08h49.07.545,HF_wild_card,2022.2.4,MacIntel,55.55555556,6027d7c787d2e926857eafc5,64d2fd46c836a06233681665,64dc7f4fb1882173e1f02fda,,,,,,,decisionTrl,resources/DB.BMP,resources/DBN.BMP,WildCard_NonEx,0.131111111,-0.007777778,1,0,0,0.963,optionRight,45,12930,6,22,0,22,0,1,,,,,,,,,,,,,,,,,,,,,,,,,,,,,,,,,,,,,,,
,,,,,,,,2023-08-16_08h49.07.545,HF_wild_card,2022.2.4,MacIntel,55.55555556,6027d7c787d2e926857eafc5,64d2fd46c836a06233681665,64dc7f4fb1882173e1f02fda,,,,,,,sngl,resources/Empty.png,resources/DBN.BMP,WildCard_NonEx,0.123333333,-0.014444444,1,0,0,0.827,optionRight,55,12985,6,23,0,23,0,1,,,,,,,,,,,,,,,,,,,,,,,,,,,,,,,,,,,,,,,
,,,,,,,,2023-08-16_08h49.07.545,HF_wild_card,2022.2.4,MacIntel,55.55555556,6027d7c787d2e926857eafc5,64d2fd46c836a06233681665,64dc7f4fb1882173e1f02fda,,,,,,,ctch,resources/DP.BMP,resources/DR.BMP,Door4,-0.141111111,-0.012222222,1,0,0,0.945,optionLeft,60,13045,6,24,0,24,0,1,,,,,,,,,,,,,,,,,,,,,,,,,,,,,,,,,,,,,,,
,,,,,,,,2023-08-16_08h49.07.545,HF_wild_card,2022.2.4,MacIntel,55.55555556,6027d7c787d2e926857eafc5,64d2fd46c836a06233681665,64dc7f4fb1882173e1f02fda,,,,,,,sngl,resources/DBN.BMP,resources/Empty.png,WildCard_NonEx,-0.127777778,-0.003333333,1,0,0,0.712,optionLeft,55,13100,6,25,0,25,0,1,,,,,,,,,,,,,,,,,,,,,,,,,,,,,,,,,,,,,,,
,,,,,,,,2023-08-16_08h49.07.545,HF_wild_card,2022.2.4,MacIntel,55.55555556,6027d7c787d2e926857eafc5,64d2fd46c836a06233681665,64dc7f4fb1882173e1f02fda,,,,,,,sngl,resources/DY.BMP,resources/Empty.png,Door2,-0.12,-0.001111111,1,0,0,0.762,optionLeft,20,13120,6,26,0,26,0,1,,,,,,,,,,,,,,,,,,,,,,,,,,,,,,,,,,,,,,,
,,,,,,,,2023-08-16_08h49.07.545,HF_wild_card,2022.2.4,MacIntel,55.55555556,6027d7c787d2e926857eafc5,64d2fd46c836a06233681665,64dc7f4fb1882173e1f02fda,,,,,,,decisionTrl,resources/DY.BMP,resources/DBN.BMP,WildCard_NonEx,0.137777778,0.011111111,1,0,0,0.845,optionRight,45,13165,6,27,0,27,0,1,,,,,,,,,,,,,,,,,,,,,,,,,,,,,,,,,,,,,,,
,,,,,,,,2023-08-16_08h49.07.545,HF_wild_card,2022.2.4,MacIntel,55.55555556,6027d7c787d2e926857eafc5,64d2fd46c836a06233681665,64dc7f4fb1882173e1f02fda,,,,,,,decisionTrl,resources/DY.BMP,resources/DR.BMP,Door1,0.11,0.002222222,1,0,0,1.029,optionRight,30,13195,6,28,0,28,0,1,,,,,,,,,,,,,,,,,,,,,,,,,,,,,,,,,,,,,,,
,,,,,,,,2023-08-16_08h49.07.545,HF_wild_card,2022.2.4,MacIntel,55.55555556,6027d7c787d2e926857eafc5,64d2fd46c836a06233681665,64dc7f4fb1882173e1f02fda,,,,,,,decisionTrl,resources/DP.BMP,resources/DB.BMP,Door4,-0.114444444,-0.004444444,1,0,0,0.846,optionLeft,80,13275,6,29,0,29,0,1,,,,,,,,,,,,,,,,,,,,,,,,,,,,,,,,,,,,,,,
,,,,,,,,2023-08-16_08h49.07.545,HF_wild_card,2022.2.4,MacIntel,55.55555556,6027d7c787d2e926857eafc5,64d2fd46c836a06233681665,64dc7f4fb1882173e1f02fda,,,,,,,decisionTrl,resources/DR.BMP,resources/DY.BMP,Door1,-0.17,-0.027777778,1,0,0,1.396,optionLeft,30,13305,6,30,0,30,0,1,,,,,,,,,,,,,,,,,,,,,,,,,,,,,,,,,,,,,,,
,,,,,,,,2023-08-16_08h49.07.545,HF_wild_card,2022.2.4,MacIntel,55.55555556,6027d7c787d2e926857eafc5,64d2fd46c836a06233681665,64dc7f4fb1882173e1f02fda,,,,,,,decisionTrl,resources/DP.BMP,resources/DBN.BMP,Door4,-0.148888889,0.002222222,1,0,0,1.446,optionLeft,80,13385,6,31,0,31,0,1,,,,,,,,,,,,,,,,,,,,,,,,,,,,,,,,,,,,,,,
,,,,,,,,2023-08-16_08h49.07.545,HF_wild_card,2022.2.4,MacIntel,55.55555556,6027d7c787d2e926857eafc5,64d2fd46c836a06233681665,64dc7f4fb1882173e1f02fda,,,,,,,decisionTrl,resources/DB.BMP,resources/DP.BMP,Door4,0.104444444,-0.007777778,1,0,0,0.861,optionRight,60,13445,6,32,0,32,0,1,,,,,,,,,,,,,,,,,,,,,,,,,,,,,,,,,,,,,,,
,,,,,,,,2023-08-16_08h49.07.545,HF_wild_card,2022.2.4,MacIntel,55.55555556,6027d7c787d2e926857eafc5,64d2fd46c836a06233681665,64dc7f4fb1882173e1f02fda,,,,,,,sngl,resources/Empty.png,resources/DY.BMP,Door2,0.108888889,-0.005555556,1,0,0,0.795,optionRight,40,13485,6,33,0,33,0,1,,,,,,,,,,,,,,,,,,,,,,,,,,,,,,,,,,,,,,,
,,,,,,,,2023-08-16_08h49.07.545,HF_wild_card,2022.2.4,MacIntel,55.55555556,6027d7c787d2e926857eafc5,64d2fd46c836a06233681665,64dc7f4fb1882173e1f02fda,,,,,,,ctch,resources/DB.BMP,resources/DY.BMP,Door3,-0.126666667,-0.005555556,1,0,0,1.063,optionLeft,70,13555,6,34,0,34,0,1,,,,,,,,,,,,,,,,,,,,,,,,,,,,,,,,,,,,,,,
,,,,,,,,2023-08-16_08h49.07.545,HF_wild_card,2022.2.4,MacIntel,55.55555556,6027d7c787d2e926857eafc5,64d2fd46c836a06233681665,64dc7f4fb1882173e1f02fda,,,,,,,sngl,resources/Empty.png,resources/DP.BMP,Door4,0.14,-0.012222222,1,0,0,0.797,optionRight,80,13635,6,35,0,35,0,1,,,,,,,,,,,,,,,,,,,,,,,,,,,,,,,,,,,,,,,
,,,,,,,,2023-08-16_08h49.07.545,HF_wild_card,2022.2.4,MacIntel,55.55555556,6027d7c787d2e926857eafc5,64d2fd46c836a06233681665,64dc7f4fb1882173e1f02fda,,,,,,,sngl,resources/DP.BMP,resources/Empty.png,Door4,-0.132222222,-0.012222222,1,0,0,0.779,optionLeft,60,13695,6,36,0,36,0,1,,,,,,,,,,,,,,,,,,,,,,,,,,,,,,,,,,,,,,,
,,,,,,,,2023-08-16_08h49.07.545,HF_wild_card,2022.2.4,MacIntel,55.55555556,6027d7c787d2e926857eafc5,64d2fd46c836a06233681665,64dc7f4fb1882173e1f02fda,,,,,,,decisionTrl,resources/DR.BMP,resources/DY.BMP,Door1,-0.123333333,-0.015555556,1,0,0,3.197,optionLeft,30,13725,6,37,0,37,0,1,,,,,,,,,,,,,,,,,,,,,,,,,,,,,,,,,,,,,,,
,,,,,,,,2023-08-16_08h49.07.545,HF_wild_card,2022.2.4,MacIntel,55.55555556,6027d7c787d2e926857eafc5,64d2fd46c836a06233681665,64dc7f4fb1882173e1f02fda,,,,,,,ctch,resources/DR.BMP,resources/DP.BMP,Door4,0.142222222,-0.014444444,1,0,0,1.013,optionRight,80,13805,6,38,0,38,0,1,,,,,,,,,,,,,,,,,,,,,,,,,,,,,,,,,,,,,,,
,,,,,,,,2023-08-16_08h49.07.545,HF_wild_card,2022.2.4,MacIntel,55.55555556,6027d7c787d2e926857eafc5,64d2fd46c836a06233681665,64dc7f4fb1882173e1f02fda,,,,,,,decisionTrl,resources/DBN.BMP,resources/DP.BMP,Door4,0.121111111,-0.004444444,1,0,0,1.079,optionRight,60,13865,6,39,0,39,0,1,,,,,,,,,,,,,,,,,,,,,,,,,,,,,,,,,,,,,,,
,,,,,,,,2023-08-16_08h49.07.545,HF_wild_card,2022.2.4,MacIntel,55.55555556,6027d7c787d2e926857eafc5,64d2fd46c836a06233681665,64dc7f4fb1882173e1f02fda,,,,,,,sngl,resources/Empty.png,resources/DBN.BMP,WildCard_NonEx,0.126666667,-0.003333333,1,0,0,0.847,optionRight,45,13910,6,40,0,40,0,1,,,,,,,,,,,,,,,,,,,,,,,,,,,,,,,,,,,,,,,
,,,,,,,,2023-08-16_08h49.07.545,HF_wild_card,2022.2.4,MacIntel,55.55555556,6027d7c787d2e926857eafc5,64d2fd46c836a06233681665,64dc7f4fb1882173e1f02fda,,,,,,,ctch,resources/DB.BMP,resources/DY.BMP,Door3,-0.124444444,0.001111111,1,0,0,1.129,optionLeft,70,13980,6,41,0,41,0,1,,,,,,,,,,,,,,,,,,,,,,,,,,,,,,,,,,,,,,,
,,,,,,,,2023-08-16_08h49.07.545,HF_wild_card,2022.2.4,MacIntel,55.55555556,6027d7c787d2e926857eafc5,64d2fd46c836a06233681665,64dc7f4fb1882173e1f02fda,,,,,,,sngl,resources/DB.BMP,resources/Empty.png,Door3,-0.124444444,0.004444444,1,0,0,0.712,optionLeft,70,14050,6,42,0,42,0,1,,,,,,,,,,,,,,,,,,,,,,,,,,,,,,,,,,,,,,,
,,,,,,,,2023-08-16_08h49.07.545,HF_wild_card,2022.2.4,MacIntel,55.55555556,6027d7c787d2e926857eafc5,64d2fd46c836a06233681665,64dc7f4fb1882173e1f02fda,,,,,,,decisionTrl,resources/DY.BMP,resources/DR.BMP,Door1,0.117777778,0.014444444,1,0,0,2.245,optionRight,30,14080,6,43,0,43,0,1,,,,,,,,,,,,,,,,,,,,,,,,,,,,,,,,,,,,,,,
,,,,,,,,2023-08-16_08h49.07.545,HF_wild_card,2022.2.4,MacIntel,55.55555556,6027d7c787d2e926857eafc5,64d2fd46c836a06233681665,64dc7f4fb1882173e1f02fda,,,,,,,,,,,,,,,,,,,,,,,,,,5,0,5,0,1,,,,,,,,,,,,,,,,,,,,,,,,,,,,,,,,,,
,,,,,,,,2023-08-16_08h49.07.545,HF_wild_card,2022.2.4,MacIntel,55.55555556,6027d7c787d2e926857eafc5,64d2fd46c836a06233681665,64dc7f4fb1882173e1f02fda,,,,,,,ctch,resources/DY.BMP,resources/DB.BMP,Door3,0.14,-0.08,1,0,0,1.394,optionRight,70,14150,7,0,0,0,0,1,,,,,,,,,,,,,,,,,,,,,,,,,,,,,,,,,,,,,,,
,,,,,,,,2023-08-16_08h49.07.545,HF_wild_card,2022.2.4,MacIntel,55.55555556,6027d7c787d2e926857eafc5,64d2fd46c836a06233681665,64dc7f4fb1882173e1f02fda,,,,,,,decisionTrl,resources/DR.BMP,resources/DY.BMP,Door1,-0.132222222,0.003333333,1,0,0,1.565,optionLeft,30,14180,7,1,0,1,0,1,,,,,,,,,,,,,,,,,,,,,,,,,,,,,,,,,,,,,,,
,,,,,,,,2023-08-16_08h49.07.545,HF_wild_card,2022.2.4,MacIntel,55.55555556,6027d7c787d2e926857eafc5,64d2fd46c836a06233681665,64dc7f4fb1882173e1f02fda,,,,,,,decisionTrl,resources/DP.BMP,resources/DB.BMP,Door4,-0.138888889,0.006666667,1,0,0,1.599,optionLeft,60,14240,7,2,0,2,0,1,,,,,,,,,,,,,,,,,,,,,,,,,,,,,,,,,,,,,,,
,,,,,,,,2023-08-16_08h49.07.545,HF_wild_card,2022.2.4,MacIntel,55.55555556,6027d7c787d2e926857eafc5,64d2fd46c836a06233681665,64dc7f4fb1882173e1f02fda,,,,,,,ctch,resources/DY.BMP,resources/DB.BMP,Door3,0.107777778,0.002222222,1,0,0,1.415,optionRight,70,14310,7,3,0,3,0,1,,,,,,,,,,,,,,,,,,,,,,,,,,,,,,,,,,,,,,,
,,,,,,,,2023-08-16_08h49.07.545,HF_wild_card,2022.2.4,MacIntel,55.55555556,6027d7c787d2e926857eafc5,64d2fd46c836a06233681665,64dc7f4fb1882173e1f02fda,,,,,,,decisionTrl,resources/DP.BMP,resources/DB.BMP,Door4,-0.117777778,-0.007777778,1,0,0,1.133,optionLeft,80,14390,7,4,0,4,0,1,,,,,,,,,,,,,,,,,,,,,,,,,,,,,,,,,,,,,,,
,,,,,,,,2023-08-16_08h49.07.545,HF_wild_card,2022.2.4,MacIntel,55.55555556,6027d7c787d2e926857eafc5,64d2fd46c836a06233681665,64dc7f4fb1882173e1f02fda,,,,,,,decisionTrl,resources/DB.BMP,resources/DP.BMP,Door4,0.122222222,-0.001111111,1,0,0,1.166,optionRight,60,14450,7,5,0,5,0,1,,,,,,,,,,,,,,,,,,,,,,,,,,,,,,,,,,,,,,,
,,,,,,,,2023-08-16_08h49.07.545,HF_wild_card,2022.2.4,MacIntel,55.55555556,6027d7c787d2e926857eafc5,64d2fd46c836a06233681665,64dc7f4fb1882173e1f02fda,,,,,,,decisionTrl,resources/DR.BMP,resources/DY.BMP,Door1,-0.108888889,-0.005555556,1,0,0,1.333,optionLeft,30,14480,7,6,0,6,0,1,,,,,,,,,,,,,,,,,,,,,,,,,,,,,,,,,,,,,,,
,,,,,,,,2023-08-16_08h49.07.545,HF_wild_card,2022.2.4,MacIntel,55.55555556,6027d7c787d2e926857eafc5,64d2fd46c836a06233681665,64dc7f4fb1882173e1f02fda,,,,,,,decisionTrl,resources/DB.BMP,resources/DP.BMP,Door4,0.143333333,-0.014444444,1,0,0,1.749,optionRight,60,14540,7,7,0,7,0,1,,,,,,,,,,,,,,,,,,,,,,,,,,,,,,,,,,,,,,,
,,,,,,,,2023-08-16_08h49.07.545,HF_wild_card,2022.2.4,MacIntel,55.55555556,6027d7c787d2e926857eafc5,64d2fd46c836a06233681665,64dc7f4fb1882173e1f02fda,,,,,,,decisionTrl,resources/DB.BMP,resources/DP.BMP,Door4,0.117777778,-0.013333333,1,0,0,0.916,optionRight,80,14620,7,8,0,8,0,1,,,,,,,,,,,,,,,,,,,,,,,,,,,,,,,,,,,,,,,
,,,,,,,,2023-08-16_08h49.07.545,HF_wild_card,2022.2.4,MacIntel,55.55555556,6027d7c787d2e926857eafc5,64d2fd46c836a06233681665,64dc7f4fb1882173e1f02fda,,,,,,,decisionTrl,resources/DY.BMP,resources/DR.BMP,Door1,0.148888889,0.005555556,1,0,0,1.632,optionRight,30,14650,7,9,0,9,0,1,,,,,,,,,,,,,,,,,,,,,,,,,,,,,,,,,,,,,,,
,,,,,,,,2023-08-16_08h49.07.545,HF_wild_card,2022.2.4,MacIntel,55.55555556,6027d7c787d2e926857eafc5,64d2fd46c836a06233681665,64dc7f4fb1882173e1f02fda,,,,,,,decisionTrl,resources/DR.BMP,resources/DY.BMP,Door1,-0.127777778,-0.002222222,1,0,0,1.182,optionLeft,30,14680,7,10,0,10,0,1,,,,,,,,,,,,,,,,,,,,,,,,,,,,,,,,,,,,,,,
,,,,,,,,2023-08-16_08h49.07.545,HF_wild_card,2022.2.4,MacIntel,55.55555556,6027d7c787d2e926857eafc5,64d2fd46c836a06233681665,64dc7f4fb1882173e1f02fda,,,,,,,decisionTrl,resources/DB.BMP,resources/DP.BMP,Door4,0.144444444,0.007777778,1,0,0,1.099,optionRight,60,14740,7,11,0,11,0,1,,,,,,,,,,,,,,,,,,,,,,,,,,,,,,,,,,,,,,,
,,,,,,,,2023-08-16_08h49.07.545,HF_wild_card,2022.2.4,MacIntel,55.55555556,6027d7c787d2e926857eafc5,64d2fd46c836a06233681665,64dc7f4fb1882173e1f02fda,,,,,,,ctch,resources/DR.BMP,resources/DP.BMP,Door4,0.15,0.002222222,1,0,0,0.95,optionRight,60,14800,7,12,0,12,0,1,,,,,,,,,,,,,,,,,,,,,,,,,,,,,,,,,,,,,,,
,,,,,,,,2023-08-16_08h49.07.545,HF_wild_card,2022.2.4,MacIntel,55.55555556,6027d7c787d2e926857eafc5,64d2fd46c836a06233681665,64dc7f4fb1882173e1f02fda,,,,,,,ctch,resources/DP.BMP,resources/DR.BMP,Door4,-0.126666667,0.01,1,0,0,1.264,optionLeft,60,14860,7,13,0,13,0,1,,,,,,,,,,,,,,,,,,,,,,,,,,,,,,,,,,,,,,,
,,,,,,,,2023-08-16_08h49.07.545,HF_wild_card,2022.2.4,MacIntel,55.55555556,6027d7c787d2e926857eafc5,64d2fd46c836a06233681665,64dc7f4fb1882173e1f02fda,,,,,,,decisionTrl,resources/DY.BMP,resources/DR.BMP,Door1,0.107777778,0.013333333,1,0,0,1.383,optionRight,30,14890,7,14,0,14,0,1,,,,,,,,,,,,,,,,,,,,,,,,,,,,,,,,,,,,,,,
,,,,,,,,2023-08-16_08h49.07.545,HF_wild_card,2022.2.4,MacIntel,55.55555556,6027d7c787d2e926857eafc5,64d2fd46c836a06233681665,64dc7f4fb1882173e1f02fda,,,,,,,decisionTrl,resources/DP.BMP,resources/DB.BMP,Door4,-0.13,-0.001111111,1,0,0,0.932,optionLeft,80,14970,7,15,0,15,0,1,,,,,,,,,,,,,,,,,,,,,,,,,,,,,,,,,,,,,,,
,,,,,,,,2023-08-16_08h49.07.545,HF_wild_card,2022.2.4,MacIntel,55.55555556,6027d7c787d2e926857eafc5,64d2fd46c836a06233681665,64dc7f4fb1882173e1f02fda,,,,,,,ctch,resources/DB.BMP,resources/DY.BMP,Door3,-0.114444444,-0.008888889,1,0,0,1.149,optionLeft,70,15040,7,16,0,16,0,1,,,,,,,,,,,,,,,,,,,,,,,,,,,,,,,,,,,,,,,
,,,,,,,,2023-08-16_08h49.07.545,HF_wild_card,2022.2.4,MacIntel,55.55555556,6027d7c787d2e926857eafc5,64d2fd46c836a06233681665,64dc7f4fb1882173e1f02fda,,,,,,,ctch,resources/DP.BMP,resources/DR.BMP,Door4,-0.125555556,-0.006666667,1,0,0,1.032,optionLeft,60,15100,7,17,0,17,0,1,,,,,,,,,,,,,,,,,,,,,,,,,,,,,,,,,,,,,,,
,,,,,,,,2023-08-16_08h49.07.545,HF_wild_card,2022.2.4,MacIntel,55.55555556,6027d7c787d2e926857eafc5,64d2fd46c836a06233681665,64dc7f4fb1882173e1f02fda,,,,,,,ctch,resources/DP.BMP,resources/DR.BMP,Door4,-0.132222222,-0.011111111,1,0,0,0.932,optionLeft,60,15160,7,18,0,18,0,1,,,,,,,,,,,,,,,,,,,,,,,,,,,,,,,,,,,,,,,
,,,,,,,,2023-08-16_08h49.07.545,HF_wild_card,2022.2.4,MacIntel,55.55555556,6027d7c787d2e926857eafc5,64d2fd46c836a06233681665,64dc7f4fb1882173e1f02fda,,,,,,,decisionTrl,resources/DP.BMP,resources/DB.BMP,Door4,-0.122222222,-0.01,1,0,0,0.865,optionLeft,80,15240,7,19,0,19,0,1,,,,,,,,,,,,,,,,,,,,,,,,,,,,,,,,,,,,,,,
,,,,,,,,2023-08-16_08h49.07.545,HF_wild_card,2022.2.4,MacIntel,55.55555556,6027d7c787d2e926857eafc5,64d2fd46c836a06233681665,64dc7f4fb1882173e1f02fda,,,,,,,decisionTrl,resources/DP.BMP,resources/DB.BMP,Door4,-0.136666667,-0.01,1,0,0,0.783,optionLeft,80,15320,7,20,0,20,0,1,,,,,,,,,,,,,,,,,,,,,,,,,,,,,,,,,,,,,,,
,,,,,,,,2023-08-16_08h49.07.545,HF_wild_card,2022.2.4,MacIntel,55.55555556,6027d7c787d2e926857eafc5,64d2fd46c836a06233681665,64dc7f4fb1882173e1f02fda,,,,,,,decisionTrl,resources/DR.BMP,resources/DY.BMP,Door1,-0.121111111,-0.008888889,1,0,0,1.149,optionLeft,30,15350,7,21,0,21,0,1,,,,,,,,,,,,,,,,,,,,,,,,,,,,,,,,,,,,,,,
,,,,,,,,2023-08-16_08h49.07.545,HF_wild_card,2022.2.4,MacIntel,55.55555556,6027d7c787d2e926857eafc5,64d2fd46c836a06233681665,64dc7f4fb1882173e1f02fda,,,,,,,ctch,resources/DB.BMP,resources/DY.BMP,Door3,-0.113333333,0.001111111,1,0,0,1.166,optionLeft,70,15420,7,22,0,22,0,1,,,,,,,,,,,,,,,,,,,,,,,,,,,,,,,,,,,,,,,
,,,,,,,,2023-08-16_08h49.07.545,HF_wild_card,2022.2.4,MacIntel,55.55555556,6027d7c787d2e926857eafc5,64d2fd46c836a06233681665,64dc7f4fb1882173e1f02fda,,,,,,,ctch,resources/DR.BMP,resources/DP.BMP,Door4,0.116666667,-0.007777778,1,0,0,1.066,optionRight,80,15500,7,23,0,23,0,1,,,,,,,,,,,,,,,,,,,,,,,,,,,,,,,,,,,,,,,
,,,,,,,,2023-08-16_08h49.07.545,HF_wild_card,2022.2.4,MacIntel,55.55555556,6027d7c787d2e926857eafc5,64d2fd46c836a06233681665,64dc7f4fb1882173e1f02fda,,,,,,,decisionTrl,resources/DY.BMP,resources/DR.BMP,Door1,0.12,0.002222222,1,0,0,1.699,optionRight,30,15530,7,24,0,24,0,1,,,,,,,,,,,,,,,,,,,,,,,,,,,,,,,,,,,,,,,
,,,,,,,,2023-08-16_08h49.07.545,HF_wild_card,2022.2.4,MacIntel,55.55555556,6027d7c787d2e926857eafc5,64d2fd46c836a06233681665,64dc7f4fb1882173e1f02fda,,,,,,,decisionTrl,resources/DB.BMP,resources/DP.BMP,Door4,0.136666667,-0.002222222,1,0,0,0.849,optionRight,80,15610,7,25,0,25,0,1,,,,,,,,,,,,,,,,,,,,,,,,,,,,,,,,,,,,,,,
,,,,,,,,2023-08-16_08h49.07.545,HF_wild_card,2022.2.4,MacIntel,55.55555556,6027d7c787d2e926857eafc5,64d2fd46c836a06233681665,64dc7f4fb1882173e1f02fda,,,,,,,decisionTrl,resources/DY.BMP,resources/DR.BMP,Door1,0.136666667,-0.006666667,1,0,0,1.032,optionRight,30,15640,7,26,0,26,0,1,,,,,,,,,,,,,,,,,,,,,,,,,,,,,,,,,,,,,,,
,,,,,,,,2023-08-16_08h49.07.545,HF_wild_card,2022.2.4,MacIntel,55.55555556,6027d7c787d2e926857eafc5,64d2fd46c836a06233681665,64dc7f4fb1882173e1f02fda,,,,,,,decisionTrl,resources/DR.BMP,resources/DY.BMP,Door1,-0.108888889,-0.011111111,1,0,0,1.049,optionLeft,30,15670,7,27,0,27,0,1,,,,,,,,,,,,,,,,,,,,,,,,,,,,,,,,,,,,,,,
,,,,,,,,2023-08-16_08h49.07.545,HF_wild_card,2022.2.4,MacIntel,55.55555556,6027d7c787d2e926857eafc5,64d2fd46c836a06233681665,64dc7f4fb1882173e1f02fda,,,,,,,decisionTrl,resources/DY.BMP,resources/DR.BMP,Door1,0.141111111,0.007777778,1,0,0,0.732,optionRight,30,15700,7,28,0,28,0,1,,,,,,,,,,,,,,,,,,,,,,,,,,,,,,,,,,,,,,,
,,,,,,,,2023-08-16_08h49.07.545,HF_wild_card,2022.2.4,MacIntel,55.55555556,6027d7c787d2e926857eafc5,64d2fd46c836a06233681665,64dc7f4fb1882173e1f02fda,,,,,,,decisionTrl,resources/DY.BMP,resources/DR.BMP,Door1,0.123333333,0.014444444,1,0,0,0.7,optionRight,30,15730,7,29,0,29,0,1,,,,,,,,,,,,,,,,,,,,,,,,,,,,,,,,,,,,,,,
,,,,,,,,2023-08-16_08h49.07.545,HF_wild_card,2022.2.4,MacIntel,55.55555556,6027d7c787d2e926857eafc5,64d2fd46c836a06233681665,64dc7f4fb1882173e1f02fda,,,,,,,ctch,resources/DY.BMP,resources/DB.BMP,Door3,0.118888889,0.013333333,1,0,0,1.599,optionRight,70,15800,7,30,0,30,0,1,,,,,,,,,,,,,,,,,,,,,,,,,,,,,,,,,,,,,,,
,,,,,,,,2023-08-16_08h49.07.545,HF_wild_card,2022.2.4,MacIntel,55.55555556,6027d7c787d2e926857eafc5,64d2fd46c836a06233681665,64dc7f4fb1882173e1f02fda,,,,,,,decisionTrl,resources/DP.BMP,resources/DB.BMP,Door4,-0.11,0.003333333,1,0,0,1.117,optionLeft,60,15860,7,31,0,31,0,1,,,,,,,,,,,,,,,,,,,,,,,,,,,,,,,,,,,,,,,
,,,,,,,,2023-08-16_08h49.07.545,HF_wild_card,2022.2.4,MacIntel,55.55555556,6027d7c787d2e926857eafc5,64d2fd46c836a06233681665,64dc7f4fb1882173e1f02fda,,,,,,,decisionTrl,resources/DR.BMP,resources/DY.BMP,Door1,-0.114444444,-0.011111111,1,0,0,1.516,optionLeft,30,15890,7,32,0,32,0,1,,,,,,,,,,,,,,,,,,,,,,,,,,,,,,,,,,,,,,,
,,,,,,,,2023-08-16_08h49.07.545,HF_wild_card,2022.2.4,MacIntel,55.55555556,6027d7c787d2e926857eafc5,64d2fd46c836a06233681665,64dc7f4fb1882173e1f02fda,,,,,,,ctch,resources/DR.BMP,resources/DP.BMP,Door4,0.124444444,-0.006666667,1,0,0,0.814,optionRight,80,15970,7,33,0,33,0,1,,,,,,,,,,,,,,,,,,,,,,,,,,,,,,,,,,,,,,,
,,,,,,,,2023-08-16_08h49.07.545,HF_wild_card,2022.2.4,MacIntel,55.55555556,6027d7c787d2e926857eafc5,64d2fd46c836a06233681665,64dc7f4fb1882173e1f02fda,,,,,,,ctch,resources/DB.BMP,resources/DY.BMP,Door3,-0.107777778,-0.008888889,1,0,0,0.765,optionLeft,70,16040,7,34,0,34,0,1,,,,,,,,,,,,,,,,,,,,,,,,,,,,,,,,,,,,,,,
,,,,,,,,2023-08-16_08h49.07.545,HF_wild_card,2022.2.4,MacIntel,55.55555556,6027d7c787d2e926857eafc5,64d2fd46c836a06233681665,64dc7f4fb1882173e1f02fda,,,,,,,decisionTrl,resources/DB.BMP,resources/DP.BMP,Door4,0.124444444,-0.004444444,1,0,0,0.816,optionRight,80,16120,7,35,0,35,0,1,,,,,,,,,,,,,,,,,,,,,,,,,,,,,,,,,,,,,,,
,,,,,,,,2023-08-16_08h49.07.545,HF_wild_card,2022.2.4,MacIntel,55.55555556,6027d7c787d2e926857eafc5,64d2fd46c836a06233681665,64dc7f4fb1882173e1f02fda,,,,,,,,,,,,,,,,,,,,,,,,,,6,0,6,0,1,,,,,,,,,,,,,,,,,,,,,,,,,,,,,,,,,,
,,,,,,,,2023-08-16_08h49.07.545,HF_wild_card,2022.2.4,MacIntel,55.55555556,6027d7c787d2e926857eafc5,64d2fd46c836a06233681665,64dc7f4fb1882173e1f02fda,,,,,,,,,,,,,,,,,,,,,,,,,,,,,,,4,,,,,,,,,,,,,,,,,,,,,,,,,,,,,,,,,
,,,,,,,,2023-08-16_08h49.07.545,HF_wild_card,2022.2.4,MacIntel,55.55555556,6027d7c787d2e926857eafc5,64d2fd46c836a06233681665,64dc7f4fb1882173e1f02fda,,,,,,,,,,,,,,,,,,,,,,,,,,,,,,,,,,,,,,,,,,,,,,,,,,,,,,,,,,,,,,,,
,,,,,,,,2023-08-16_08h49.07.545,HF_wild_card,2022.2.4,MacIntel,55.55555556,6027d7c787d2e926857eafc5,64d2fd46c836a06233681665,64dc7f4fb1882173e1f02fda,,,,,,,,,,,,,,,,,,,,,,,,,,,,,,,,45,WC_nonExtreme,resources/DBN.BMP,0,0,0,0,1,,,,,,,,,,,,,,,,,,,,,,,,,
,,,,,,,,2023-08-16_08h49.07.545,HF_wild_card,2022.2.4,MacIntel,55.55555556,6027d7c787d2e926857eafc5,64d2fd46c836a06233681665,64dc7f4fb1882173e1f02fda,,,,,,,,,,,,,,,,,,,,,,,,,,,,,,,,5,WC_extreme,resources/DG.BMP,1,0,1,0,1,,,,,,,,,,,,,,,,,,,,,,,,,
,,,,,,,,2023-08-16_08h49.07.545,HF_wild_card,2022.2.4,MacIntel,55.55555556,6027d7c787d2e926857eafc5,64d2fd46c836a06233681665,64dc7f4fb1882173e1f02fda,,,,,,,,,,,,,,,,,,,,,,,,,,,,,,,,60,Door3,resources/DB.BMP,2,0,2,0,1,,,,,,,,,,,,,,,,,,,,,,,,,
,,,,,,,,2023-08-16_08h49.07.545,HF_wild_card,2022.2.4,MacIntel,55.55555556,6027d7c787d2e926857eafc5,64d2fd46c836a06233681665,64dc7f4fb1882173e1f02fda,,,,,,,,,,,,,,,,,,,,,,,,,,,,,,,,20,Door2,resources/DY.BMP,3,0,3,0,1,,,,,,,,,,,,,,,,,,,,,,,,,
,,,,,,,,2023-08-16_08h49.07.545,HF_wild_card,2022.2.4,MacIntel,55.55555556,6027d7c787d2e926857eafc5,64d2fd46c836a06233681665,64dc7f4fb1882173e1f02fda,,,,,,,,,,,,,,,,,,,,,,,,,,,,,,,,80,Door4,resources/DP.BMP,4,0,4,0,1,,,,,,,,,,,,,,,,,,,,,,,,,
