Condition,Low fixed image (Door1),Low risky image (Door2),High fixed image (Door3),High risky image (Door4),NonExtreme Wild Card 1,NonExtreme Wild Card 2,,date,expName,psychopyVersion,OS,frameRate,PROLIFIC_PID,STUDY_ID,SESSION_ID,mouse_2.x,mouse_2.y,mouse_2.leftButton,mouse_2.midButton,mouse_2.rightButton,mouse_2.clicked_name,Trial Type,Left Option Image,Right Option Image,Chosen Door,mouse.x,mouse.y,mouse.leftButton,mouse.midButton,mouse.rightButton,mouse.time,mouse.clicked_name,Feedback,Cumulative Reward,Block,trial.thisRepN,trial.thisTrialN,trial.thisN,trial.thisIndex,trial.ran,blocks.thisRepN,blocks.thisTrialN,blocks.thisN,blocks.thisIndex,blocks.ran,Money conversion,First Outcome Reported,Shown Door (First Outcome),Displayed Image (First Outcome),outcomes.thisRepN,outcomes.thisTrialN,outcomes.thisN,outcomes.thisIndex,outcomes.ran,judgments.thisRepN,judgments.thisTrialN,judgments.thisN,judgments.thisIndex,judgments.ran,freqMouse.x,freqMouse.y,freqMouse.leftButton,freqMouse.midButton,freqMouse.rightButton,freqMouse.clicked_name,FQJ for first outcome,FQJ for second outcome,Shown Door,Displayed Image,trials.thisRepN,trials.thisTrialN,trials.thisN,trials.thisIndex,trials.ran,judgBlock.thisRepN,judgBlock.thisTrialN,judgBlock.thisN,judgBlock.thisIndex,judgBlock.ran
2,resources/DP.BMP,resources/DG.BMP,resources/DBN.BMP,resources/DR.BMP,resources/DY.BMP,resources/DB.BMP,,2023-08-06_08h23.14.246,HF_wild_card,2022.2.4,Win32,59.75500448,5ace82e135eccf0001a11c96,64ce5acb97489d65b14ecc7a,64cf49a01ef27e1f87418d38,,,,,,,,,,,,,,,,,,,,,,,,,,,,,,,,,,,,,,,,,,,,,,,,,,,,,,,,,,,,,,,,
,,,,,,,,2023-08-06_08h23.14.246,HF_wild_card,2022.2.4,Win32,59.75500448,5ace82e135eccf0001a11c96,64ce5acb97489d65b14ecc7a,64cf49a01ef27e1f87418d38,0.010289146,-0.422115118,1,0,0,agree,,,,,,,,,,,,,,,,,,,,,,,,,,,,,,,,,,,,,,,,,,,,,,,,,,,,,,,,,,
,,,,,,,,2023-08-06_08h23.14.246,HF_wild_card,2022.2.4,Win32,59.75500448,5ace82e135eccf0001a11c96,64ce5acb97489d65b14ecc7a,64cf49a01ef27e1f87418d38,,,,,,,,,,,,,,,,,,,,,,,,,,,,,,,,,,,,,,,,,,,,,,,,,,,,,,,,,,,,,,,,
,,,,,,,,2023-08-06_08h23.14.246,HF_wild_card,2022.2.4,Win32,59.75500448,5ace82e135eccf0001a11c96,64ce5acb97489d65b14ecc7a,64cf49a01ef27e1f87418d38,,,,,,,ctch,resources/DP.BMP,resources/DR.BMP,Door4,0.385386732,-0.023573824,1,0,0,7.5433,optionRight,80,80,1,0,0,0,0,1,,,,,,,,,,,,,,,,,,,,,,,,,,,,,,,,,,,,,,,
,,,,,,,,2023-08-06_08h23.14.246,HF_wild_card,2022.2.4,Win32,59.75500448,5ace82e135eccf0001a11c96,64ce5acb97489d65b14ecc7a,64cf49a01ef27e1f87418d38,,,,,,,sngl,resources/DB.BMP,resources/Empty.png,WildCard_NonEx,-0.362203778,0.028523049,1,0,0,1.1768,optionLeft,55,135,1,1,0,1,0,1,,,,,,,,,,,,,,,,,,,,,,,,,,,,,,,,,,,,,,,
,,,,,,,,2023-08-06_08h23.14.246,HF_wild_card,2022.2.4,Win32,59.75500448,5ace82e135eccf0001a11c96,64ce5acb97489d65b14ecc7a,64cf49a01ef27e1f87418d38,,,,,,,decisionTrl,resources/DR.BMP,resources/DBN.BMP,Door3,0.304636608,0.02722063,1,0,0,1.5479,optionRight,70,205,1,2,0,2,0,1,,,,,,,,,,,,,,,,,,,,,,,,,,,,,,,,,,,,,,,
,,,,,,,,2023-08-06_08h23.14.246,HF_wild_card,2022.2.4,Win32,59.75500448,5ace82e135eccf0001a11c96,64ce5acb97489d65b14ecc7a,64cf49a01ef27e1f87418d38,,,,,,,sngl,resources/DBN.BMP,resources/Empty.png,Door3,-0.383042475,0.023313375,1,0,0,1.3473,optionLeft,70,275,1,3,0,3,0,1,,,,,,,,,,,,,,,,,,,,,,,,,,,,,,,,,,,,,,,
,,,,,,,,2023-08-06_08h23.14.246,HF_wild_card,2022.2.4,Win32,59.75500448,5ace82e135eccf0001a11c96,64ce5acb97489d65b14ecc7a,64cf49a01ef27e1f87418d38,,,,,,,ctch,resources/DP.BMP,resources/DR.BMP,Door1,-0.353086761,-0.011851969,1,0,0,2.0361,optionLeft,30,305,1,4,0,4,0,1,,,,,,,,,,,,,,,,,,,,,,,,,,,,,,,,,,,,,,,
,,,,,,,,2023-08-06_08h23.14.246,HF_wild_card,2022.2.4,Win32,59.75500448,5ace82e135eccf0001a11c96,64ce5acb97489d65b14ecc7a,64cf49a01ef27e1f87418d38,,,,,,,ctch,resources/DBN.BMP,resources/DG.BMP,Door2,0.33589474,0.02722063,1,0,0,2.2949,optionRight,20,325,1,5,0,5,0,1,,,,,,,,,,,,,,,,,,,,,,,,,,,,,,,,,,,,,,,
,,,,,,,,2023-08-06_08h23.14.246,HF_wild_card,2022.2.4,Win32,59.75500448,5ace82e135eccf0001a11c96,64ce5acb97489d65b14ecc7a,64cf49a01ef27e1f87418d38,,,,,,,decisionTrl,resources/DP.BMP,resources/DG.BMP,Door1,-0.364808572,-0.002735083,1,0,0,5.0595,optionLeft,30,355,1,6,0,6,0,1,,,,,,,,,,,,,,,,,,,,,,,,,,,,,,,,,,,,,,,
,,,,,,,,2023-08-06_08h23.14.246,HF_wild_card,2022.2.4,Win32,59.75500448,5ace82e135eccf0001a11c96,64ce5acb97489d65b14ecc7a,64cf49a01ef27e1f87418d38,,,,,,,decisionTrl,resources/DG.BMP,resources/DP.BMP,Door2,-0.317921373,0.020708538,1,0,0,1.7141,optionLeft,20,375,1,7,0,7,0,1,,,,,,,,,,,,,,,,,,,,,,,,,,,,,,,,,,,,,,,
,,,,,,,,2023-08-06_08h23.14.246,HF_wild_card,2022.2.4,Win32,59.75500448,5ace82e135eccf0001a11c96,64ce5acb97489d65b14ecc7a,64cf49a01ef27e1f87418d38,,,,,,,decisionTrl,resources/DB.BMP,resources/DR.BMP,WildCard_NonEx,-0.401276378,-0.010549594,1,0,0,5.5669,optionLeft,55,430,1,8,0,8,0,1,,,,,,,,,,,,,,,,,,,,,,,,,,,,,,,,,,,,,,,
,,,,,,,,2023-08-06_08h23.14.246,HF_wild_card,2022.2.4,Win32,59.75500448,5ace82e135eccf0001a11c96,64ce5acb97489d65b14ecc7a,64cf49a01ef27e1f87418d38,,,,,,,decisionTrl,resources/DBN.BMP,resources/DR.BMP,Door4,0.39971338,-0.019666568,1,0,0,2.592,optionRight,80,510,1,9,0,9,0,1,,,,,,,,,,,,,,,,,,,,,,,,,,,,,,,,,,,,,,,
,,,,,,,,2023-08-06_08h23.14.246,HF_wild_card,2022.2.4,Win32,59.75500448,5ace82e135eccf0001a11c96,64ce5acb97489d65b14ecc7a,64cf49a01ef27e1f87418d38,,,,,,,decisionTrl,resources/DBN.BMP,resources/DR.BMP,Door4,0.376269846,-0.000130203,1,0,0,2.1017,optionRight,60,570,1,10,0,10,0,1,,,,,,,,,,,,,,,,,,,,,,,,,,,,,,,,,,,,,,,
,,,,,,,,2023-08-06_08h23.14.246,HF_wild_card,2022.2.4,Win32,59.75500448,5ace82e135eccf0001a11c96,64ce5acb97489d65b14ecc7a,64cf49a01ef27e1f87418d38,,,,,,,decisionTrl,resources/DB.BMP,resources/DP.BMP,WildCard_NonEx,-0.396066704,0.011591564,1,0,0,1.9013,optionLeft,55,625,1,11,0,11,0,1,,,,,,,,,,,,,,,,,,,,,,,,,,,,,,,,,,,,,,,
,,,,,,,,2023-08-06_08h23.14.246,HF_wild_card,2022.2.4,Win32,59.75500448,5ace82e135eccf0001a11c96,64ce5acb97489d65b14ecc7a,64cf49a01ef27e1f87418d38,,,,,,,sngl,resources/Empty.png,resources/DR.BMP,Door4,0.376269846,-0.011851969,1,0,0,0.986,optionRight,60,685,1,12,0,12,0,1,,,,,,,,,,,,,,,,,,,,,,,,,,,,,,,,,,,,,,,
,,,,,,,,2023-08-06_08h23.14.246,HF_wild_card,2022.2.4,Win32,59.75500448,5ace82e135eccf0001a11c96,64ce5acb97489d65b14ecc7a,64cf49a01ef27e1f87418d38,,,,,,,decisionTrl,resources/DB.BMP,resources/DBN.BMP,Door3,0.358035899,0.020708538,1,0,0,1.9108,optionRight,70,755,1,13,0,13,0,1,,,,,,,,,,,,,,,,,,,,,,,,,,,,,,,,,,,,,,,
,,,,,,,,2023-08-06_08h23.14.246,HF_wild_card,2022.2.4,Win32,59.75500448,5ace82e135eccf0001a11c96,64ce5acb97489d65b14ecc7a,64cf49a01ef27e1f87418d38,,,,,,,sngl,resources/Empty.png,resources/DB.BMP,WildCard_NonEx,0.350221388,-0.017061731,1,0,0,0.7524,optionRight,45,800,1,14,0,14,0,1,,,,,,,,,,,,,,,,,,,,,,,,,,,,,,,,,,,,,,,
,,,,,,,,2023-08-06_08h23.14.246,HF_wild_card,2022.2.4,Win32,59.75500448,5ace82e135eccf0001a11c96,64ce5acb97489d65b14ecc7a,64cf49a01ef27e1f87418d38,,,,,,,decisionTrl,resources/DR.BMP,resources/DBN.BMP,Door4,-0.388252149,0.045454621,1,0,0,2.4301,optionLeft,80,880,1,15,0,15,0,1,,,,,,,,,,,,,,,,,,,,,,,,,,,,,,,,,,,,,,,
,,,,,,,,2023-08-06_08h23.14.246,HF_wild_card,2022.2.4,Win32,59.75500448,5ace82e135eccf0001a11c96,64ce5acb97489d65b14ecc7a,64cf49a01ef27e1f87418d38,,,,,,,decisionTrl,resources/DR.BMP,resources/DBN.BMP,Door4,-0.419510325,0.05196667,1,0,0,1.0317,optionLeft,80,960,1,16,0,16,0,1,,,,,,,,,,,,,,,,,,,,,,,,,,,,,,,,,,,,,,,
,,,,,,,,2023-08-06_08h23.14.246,HF_wild_card,2022.2.4,Win32,59.75500448,5ace82e135eccf0001a11c96,64ce5acb97489d65b14ecc7a,64cf49a01ef27e1f87418d38,,,,,,,decisionTrl,resources/DP.BMP,resources/DG.BMP,Door1,-0.381740056,0.024615793,1,0,0,2.8091,optionLeft,30,990,1,17,0,17,0,1,,,,,,,,,,,,,,,,,,,,,,,,,,,,,,,,,,,,,,,
,,,,,,,,2023-08-06_08h23.14.246,HF_wild_card,2022.2.4,Win32,59.75500448,5ace82e135eccf0001a11c96,64ce5acb97489d65b14ecc7a,64cf49a01ef27e1f87418d38,,,,,,,ctch,resources/DR.BMP,resources/DP.BMP,Door4,-0.397369122,0.074107916,1,0,0,1.3481,optionLeft,60,1050,1,18,0,18,0,1,,,,,,,,,,,,,,,,,,,,,,,,,,,,,,,,,,,,,,,
,,,,,,,,2023-08-06_08h23.14.246,HF_wild_card,2022.2.4,Win32,59.75500448,5ace82e135eccf0001a11c96,64ce5acb97489d65b14ecc7a,64cf49a01ef27e1f87418d38,,,,,,,decisionTrl,resources/DG.BMP,resources/DP.BMP,Door2,-0.324433466,0.015498864,1,0,0,2.1081,optionLeft,40,1090,1,19,0,19,0,1,,,,,,,,,,,,,,,,,,,,,,,,,,,,,,,,,,,,,,,
,,,,,,,,2023-08-06_08h23.14.246,HF_wild_card,2022.2.4,Win32,59.75500448,5ace82e135eccf0001a11c96,64ce5acb97489d65b14ecc7a,64cf49a01ef27e1f87418d38,,,,,,,ctch,resources/DG.BMP,resources/DBN.BMP,Door3,0.346314089,0.031127973,1,0,0,1.8343,optionRight,70,1160,1,20,0,20,0,1,,,,,,,,,,,,,,,,,,,,,,,,,,,,,,,,,,,,,,,
,,,,,,,,2023-08-06_08h23.14.246,HF_wild_card,2022.2.4,Win32,59.75500448,5ace82e135eccf0001a11c96,64ce5acb97489d65b14ecc7a,64cf49a01ef27e1f87418d38,,,,,,,decisionTrl,resources/DR.BMP,resources/DBN.BMP,Door4,-0.368715827,0.02722063,1,0,0,1.8463,optionLeft,80,1240,1,21,0,21,0,1,,,,,,,,,,,,,,,,,,,,,,,,,,,,,,,,,,,,,,,
,,,,,,,,2023-08-06_08h23.14.246,HF_wild_card,2022.2.4,Win32,59.75500448,5ace82e135eccf0001a11c96,64ce5acb97489d65b14ecc7a,64cf49a01ef27e1f87418d38,,,,,,,decisionTrl,resources/DR.BMP,resources/DB.BMP,Door4,-0.364808572,0.044152159,1,0,0,1.741,optionLeft,80,1320,1,22,0,22,0,1,,,,,,,,,,,,,,,,,,,,,,,,,,,,,,,,,,,,,,,
,,,,,,,,2023-08-06_08h23.14.246,HF_wild_card,2022.2.4,Win32,59.75500448,5ace82e135eccf0001a11c96,64ce5acb97489d65b14ecc7a,64cf49a01ef27e1f87418d38,,,,,,,decisionTrl,resources/DG.BMP,resources/DB.BMP,WildCard_NonEx,0.397108455,0.016801326,1,0,0,1.5135,optionRight,45,1365,1,23,0,23,0,1,,,,,,,,,,,,,,,,,,,,,,,,,,,,,,,,,,,,,,,
,,,,,,,,2023-08-06_08h23.14.246,HF_wild_card,2022.2.4,Win32,59.75500448,5ace82e135eccf0001a11c96,64ce5acb97489d65b14ecc7a,64cf49a01ef27e1f87418d38,,,,,,,ctch,resources/DBN.BMP,resources/DG.BMP,Door3,-0.328340722,0.081922384,1,0,0,1.9497,optionLeft,70,1435,1,24,0,24,0,1,,,,,,,,,,,,,,,,,,,,,,,,,,,,,,,,,,,,,,,
,,,,,,,,2023-08-06_08h23.14.246,HF_wild_card,2022.2.4,Win32,59.75500448,5ace82e135eccf0001a11c96,64ce5acb97489d65b14ecc7a,64cf49a01ef27e1f87418d38,,,,,,,ctch,resources/DG.BMP,resources/DBN.BMP,Door3,0.303334146,0.040244859,1,0,0,1.3493,optionRight,70,1505,1,25,0,25,0,1,,,,,,,,,,,,,,,,,,,,,,,,,,,,,,,,,,,,,,,
,,,,,,,,2023-08-06_08h23.14.246,HF_wild_card,2022.2.4,Win32,59.75500448,5ace82e135eccf0001a11c96,64ce5acb97489d65b14ecc7a,64cf49a01ef27e1f87418d38,,,,,,,sngl,resources/Empty.png,resources/DP.BMP,Door1,0.309846282,0.048059414,1,0,0,1.164,optionRight,30,1535,1,26,0,26,0,1,,,,,,,,,,,,,,,,,,,,,,,,,,,,,,,,,,,,,,,
,,,,,,,,2023-08-06_08h23.14.246,HF_wild_card,2022.2.4,Win32,59.75500448,5ace82e135eccf0001a11c96,64ce5acb97489d65b14ecc7a,64cf49a01ef27e1f87418d38,,,,,,,sngl,resources/DR.BMP,resources/Empty.png,Door4,-0.393461867,0.036337604,1,0,0,1.5401,optionLeft,80,1615,1,27,0,27,0,1,,,,,,,,,,,,,,,,,,,,,,,,,,,,,,,,,,,,,,,
,,,,,,,,2023-08-06_08h23.14.246,HF_wild_card,2022.2.4,Win32,59.75500448,5ace82e135eccf0001a11c96,64ce5acb97489d65b14ecc7a,64cf49a01ef27e1f87418d38,,,,,,,sngl,resources/DP.BMP,resources/Empty.png,Door1,-0.423417581,0.036337604,1,0,0,0.848,optionLeft,30,1645,1,28,0,28,0,1,,,,,,,,,,,,,,,,,,,,,,,,,,,,,,,,,,,,,,,
,,,,,,,,2023-08-06_08h23.14.246,HF_wild_card,2022.2.4,Win32,59.75500448,5ace82e135eccf0001a11c96,64ce5acb97489d65b14ecc7a,64cf49a01ef27e1f87418d38,,,,,,,decisionTrl,resources/DG.BMP,resources/DP.BMP,Door2,-0.410393351,0.019406119,1,0,0,3.1242,optionLeft,20,1665,1,29,0,29,0,1,,,,,,,,,,,,,,,,,,,,,,,,,,,,,,,,,,,,,,,
,,,,,,,,2023-08-06_08h23.14.246,HF_wild_card,2022.2.4,Win32,59.75500448,5ace82e135eccf0001a11c96,64ce5acb97489d65b14ecc7a,64cf49a01ef27e1f87418d38,,,,,,,decisionTrl,resources/DBN.BMP,resources/DB.BMP,Door3,-0.445558739,0.083224802,1,0,0,1.5804,optionLeft,70,1735,1,30,0,30,0,1,,,,,,,,,,,,,,,,,,,,,,,,,,,,,,,,,,,,,,,
,,,,,,,,2023-08-06_08h23.14.246,HF_wild_card,2022.2.4,Win32,59.75500448,5ace82e135eccf0001a11c96,64ce5acb97489d65b14ecc7a,64cf49a01ef27e1f87418d38,,,,,,,decisionTrl,resources/DB.BMP,resources/DG.BMP,WildCard_NonEx,-0.376530426,0.014196401,1,0,0,1.8497,optionLeft,45,1780,1,31,0,31,0,1,,,,,,,,,,,,,,,,,,,,,,,,,,,,,,,,,,,,,,,
,,,,,,,,2023-08-06_08h23.14.246,HF_wild_card,2022.2.4,Win32,59.75500448,5ace82e135eccf0001a11c96,64ce5acb97489d65b14ecc7a,64cf49a01ef27e1f87418d38,,,,,,,sngl,resources/DB.BMP,resources/Empty.png,WildCard_NonEx,-0.316618911,-0.011851969,1,0,0,0.7385,optionLeft,45,1825,1,32,0,32,0,1,,,,,,,,,,,,,,,,,,,,,,,,,,,,,,,,,,,,,,,
,,,,,,,,2023-08-06_08h23.14.246,HF_wild_card,2022.2.4,Win32,59.75500448,5ace82e135eccf0001a11c96,64ce5acb97489d65b14ecc7a,64cf49a01ef27e1f87418d38,,,,,,,sngl,resources/DG.BMP,resources/Empty.png,Door2,-0.321828629,0.06368848,1,0,0,0.6869,optionLeft,40,1865,1,33,0,33,0,1,,,,,,,,,,,,,,,,,,,,,,,,,,,,,,,,,,,,,,,
,,,,,,,,2023-08-06_08h23.14.246,HF_wild_card,2022.2.4,Win32,59.75500448,5ace82e135eccf0001a11c96,64ce5acb97489d65b14ecc7a,64cf49a01ef27e1f87418d38,,,,,,,decisionTrl,resources/DP.BMP,resources/DB.BMP,WildCard_NonEx,0.458322432,-0.024876242,1,0,0,3.6352,optionRight,45,1910,1,34,0,34,0,1,,,,,,,,,,,,,,,,,,,,,,,,,,,,,,,,,,,,,,,
,,,,,,,,2023-08-06_08h23.14.246,HF_wild_card,2022.2.4,Win32,59.75500448,5ace82e135eccf0001a11c96,64ce5acb97489d65b14ecc7a,64cf49a01ef27e1f87418d38,,,,,,,decisionTrl,resources/DBN.BMP,resources/DR.BMP,Door4,0.408830266,0.008986727,1,0,0,1.5501,optionRight,80,1990,1,35,0,35,0,1,,,,,,,,,,,,,,,,,,,,,,,,,,,,,,,,,,,,,,,
,,,,,,,,2023-08-06_08h23.14.246,HF_wild_card,2022.2.4,Win32,59.75500448,5ace82e135eccf0001a11c96,64ce5acb97489d65b14ecc7a,64cf49a01ef27e1f87418d38,,,,,,,decisionTrl,resources/DP.BMP,resources/DG.BMP,Door2,0.328080229,-0.007944757,1,0,0,11.4206,optionRight,40,2030,1,36,0,36,0,1,,,,,,,,,,,,,,,,,,,,,,,,,,,,,,,,,,,,,,,
,,,,,,,,2023-08-06_08h23.14.246,HF_wild_card,2022.2.4,Win32,59.75500448,5ace82e135eccf0001a11c96,64ce5acb97489d65b14ecc7a,64cf49a01ef27e1f87418d38,,,,,,,decisionTrl,resources/DG.BMP,resources/DP.BMP,Door1,0.393201331,-0.010549594,1,0,0,2.3465,optionRight,30,2060,1,37,0,37,0,1,,,,,,,,,,,,,,,,,,,,,,,,,,,,,,,,,,,,,,,
,,,,,,,,2023-08-06_08h23.14.246,HF_wild_card,2022.2.4,Win32,59.75500448,5ace82e135eccf0001a11c96,64ce5acb97489d65b14ecc7a,64cf49a01ef27e1f87418d38,,,,,,,sngl,resources/Empty.png,resources/DG.BMP,Door2,0.39971338,0.008986727,1,0,0,6.653,optionRight,20,2080,1,38,0,38,0,1,,,,,,,,,,,,,,,,,,,,,,,,,,,,,,,,,,,,,,,
,,,,,,,,2023-08-06_08h23.14.246,HF_wild_card,2022.2.4,Win32,59.75500448,5ace82e135eccf0001a11c96,64ce5acb97489d65b14ecc7a,64cf49a01ef27e1f87418d38,,,,,,,decisionTrl,resources/DBN.BMP,resources/DR.BMP,Door4,0.394503618,0.042849696,1,0,0,1.5157,optionRight,80,2160,1,39,0,39,0,1,,,,,,,,,,,,,,,,,,,,,,,,,,,,,,,,,,,,,,,
,,,,,,,,2023-08-06_08h23.14.246,HF_wild_card,2022.2.4,Win32,59.75500448,5ace82e135eccf0001a11c96,64ce5acb97489d65b14ecc7a,64cf49a01ef27e1f87418d38,,,,,,,ctch,resources/DR.BMP,resources/DP.BMP,Door4,-0.385647312,0.022010956,1,0,0,1.5812,optionLeft,80,2240,1,40,0,40,0,1,,,,,,,,,,,,,,,,,,,,,,,,,,,,,,,,,,,,,,,
,,,,,,,,2023-08-06_08h23.14.246,HF_wild_card,2022.2.4,Win32,59.75500448,5ace82e135eccf0001a11c96,64ce5acb97489d65b14ecc7a,64cf49a01ef27e1f87418d38,,,,,,,decisionTrl,resources/DP.BMP,resources/DG.BMP,Door1,-0.349179549,0.011591564,1,0,0,2.9894,optionLeft,30,2270,1,41,0,41,0,1,,,,,,,,,,,,,,,,,,,,,,,,,,,,,,,,,,,,,,,
,,,,,,,,2023-08-06_08h23.14.246,HF_wild_card,2022.2.4,Win32,59.75500448,5ace82e135eccf0001a11c96,64ce5acb97489d65b14ecc7a,64cf49a01ef27e1f87418d38,,,,,,,sngl,resources/Empty.png,resources/DBN.BMP,Door3,0.338499577,0.045454621,1,0,0,0.9975,optionRight,70,2340,1,42,0,42,0,1,,,,,,,,,,,,,,,,,,,,,,,,,,,,,,,,,,,,,,,
,,,,,,,,2023-08-06_08h23.14.246,HF_wild_card,2022.2.4,Win32,59.75500448,5ace82e135eccf0001a11c96,64ce5acb97489d65b14ecc7a,64cf49a01ef27e1f87418d38,,,,,,,sngl,resources/Empty.png,resources/DB.BMP,WildCard_NonEx,0.363245573,0.037640022,1,0,0,0.8525,optionRight,55,2395,1,43,0,43,0,1,,,,,,,,,,,,,,,,,,,,,,,,,,,,,,,,,,,,,,,
,,,,,,,,2023-08-06_08h23.14.246,HF_wild_card,2022.2.4,Win32,59.75500448,5ace82e135eccf0001a11c96,64ce5acb97489d65b14ecc7a,64cf49a01ef27e1f87418d38,,,,,,,,,,,,,,,,,,,,,,,,,,0,0,0,0,1,,,,,,,,,,,,,,,,,,,,,,,,,,,,,,,,,,
,,,,,,,,2023-08-06_08h23.14.246,HF_wild_card,2022.2.4,Win32,59.75500448,5ace82e135eccf0001a11c96,64ce5acb97489d65b14ecc7a,64cf49a01ef27e1f87418d38,,,,,,,ctch,resources/DR.BMP,resources/DP.BMP,Door4,-0.375227964,0.058478806,1,0,0,1.6228,optionLeft,60,2455,2,0,0,0,0,1,,,,,,,,,,,,,,,,,,,,,,,,,,,,,,,,,,,,,,,
,,,,,,,,2023-08-06_08h23.14.246,HF_wild_card,2022.2.4,Win32,59.75500448,5ace82e135eccf0001a11c96,64ce5acb97489d65b14ecc7a,64cf49a01ef27e1f87418d38,,,,,,,sngl,resources/DBN.BMP,resources/Empty.png,Door3,-0.350481924,0.054571507,1,0,0,1.1793,optionLeft,70,2525,2,1,0,1,0,1,,,,,,,,,,,,,,,,,,,,,,,,,,,,,,,,,,,,,,,
,,,,,,,,2023-08-06_08h23.14.246,HF_wild_card,2022.2.4,Win32,59.75500448,5ace82e135eccf0001a11c96,64ce5acb97489d65b14ecc7a,64cf49a01ef27e1f87418d38,,,,,,,decisionTrl,resources/DB.BMP,resources/DG.BMP,WildCard_NonEx,-0.282755942,0.028523049,1,0,0,1.4635,optionLeft,45,2570,2,2,0,2,0,1,,,,,,,,,,,,,,,,,,,,,,,,,,,,,,,,,,,,,,,
,,,,,,,,2023-08-06_08h23.14.246,HF_wild_card,2022.2.4,Win32,59.75500448,5ace82e135eccf0001a11c96,64ce5acb97489d65b14ecc7a,64cf49a01ef27e1f87418d38,,,,,,,decisionTrl,resources/DR.BMP,resources/DBN.BMP,Door4,-0.347877131,0.06368848,1,0,0,1.6502,optionLeft,80,2650,2,3,0,3,0,1,,,,,,,,,,,,,,,,,,,,,,,,,,,,,,,,,,,,,,,
,,,,,,,,2023-08-06_08h23.14.246,HF_wild_card,2022.2.4,Win32,59.75500448,5ace82e135eccf0001a11c96,64ce5acb97489d65b14ecc7a,64cf49a01ef27e1f87418d38,,,,,,,decisionTrl,resources/DBN.BMP,resources/DR.BMP,Door4,0.29682201,0.005079472,1,0,0,1.2548,optionRight,60,2710,2,4,0,4,0,1,,,,,,,,,,,,,,,,,,,,,,,,,,,,,,,,,,,,,,,
,,,,,,,,2023-08-06_08h23.14.246,HF_wild_card,2022.2.4,Win32,59.75500448,5ace82e135eccf0001a11c96,64ce5acb97489d65b14ecc7a,64cf49a01ef27e1f87418d38,,,,,,,decisionTrl,resources/DR.BMP,resources/DBN.BMP,Door4,-0.337457695,0.024615793,1,0,0,1.7084,optionLeft,60,2770,2,5,0,5,0,1,,,,,,,,,,,,,,,,,,,,,,,,,,,,,,,,,,,,,,,
,,,,,,,,2023-08-06_08h23.14.246,HF_wild_card,2022.2.4,Win32,59.75500448,5ace82e135eccf0001a11c96,64ce5acb97489d65b14ecc7a,64cf49a01ef27e1f87418d38,,,,,,,ctch,resources/DBN.BMP,resources/DG.BMP,Door3,-0.397369122,0.049361833,1,0,0,1.198,optionLeft,70,2840,2,6,0,6,0,1,,,,,,,,,,,,,,,,,,,,,,,,,,,,,,,,,,,,,,,
,,,,,,,,2023-08-06_08h23.14.246,HF_wild_card,2022.2.4,Win32,59.75500448,5ace82e135eccf0001a11c96,64ce5acb97489d65b14ecc7a,64cf49a01ef27e1f87418d38,,,,,,,ctch,resources/DR.BMP,resources/DP.BMP,Door4,-0.364808572,0.035035185,1,0,0,1.4396,optionLeft,60,2900,2,7,0,7,0,1,,,,,,,,,,,,,,,,,,,,,,,,,,,,,,,,,,,,,,,
,,,,,,,,2023-08-06_08h23.14.246,HF_wild_card,2022.2.4,Win32,59.75500448,5ace82e135eccf0001a11c96,64ce5acb97489d65b14ecc7a,64cf49a01ef27e1f87418d38,,,,,,,sngl,resources/DB.BMP,resources/Empty.png,WildCard_NonEx,-0.379135219,0.05196667,1,0,0,0.7068,optionLeft,45,2945,2,8,0,8,0,1,,,,,,,,,,,,,,,,,,,,,,,,,,,,,,,,,,,,,,,
,,,,,,,,2023-08-06_08h23.14.246,HF_wild_card,2022.2.4,Win32,59.75500448,5ace82e135eccf0001a11c96,64ce5acb97489d65b14ecc7a,64cf49a01ef27e1f87418d38,,,,,,,decisionTrl,resources/DR.BMP,resources/DB.BMP,Door4,-0.43644181,0.084527221,1,0,0,1.2221,optionLeft,60,3005,2,9,0,9,0,1,,,,,,,,,,,,,,,,,,,,,,,,,,,,,,,,,,,,,,,
,,,,,,,,2023-08-06_08h23.14.246,HF_wild_card,2022.2.4,Win32,59.75500448,5ace82e135eccf0001a11c96,64ce5acb97489d65b14ecc7a,64cf49a01ef27e1f87418d38,,,,,,,ctch,resources/DP.BMP,resources/DR.BMP,Door4,0.355431062,0.003777053,1,0,0,1.3813,optionRight,80,3085,2,10,0,10,0,1,,,,,,,,,,,,,,,,,,,,,,,,,,,,,,,,,,,,,,,
,,,,,,,,2023-08-06_08h23.14.246,HF_wild_card,2022.2.4,Win32,59.75500448,5ace82e135eccf0001a11c96,64ce5acb97489d65b14ecc7a,64cf49a01ef27e1f87418d38,,,,,,,sngl,resources/DB.BMP,resources/Empty.png,WildCard_NonEx,-0.334852858,0.036337604,1,0,0,0.9195,optionLeft,55,3140,2,11,0,11,0,1,,,,,,,,,,,,,,,,,,,,,,,,,,,,,,,,,,,,,,,
,,,,,,,,2023-08-06_08h23.14.246,HF_wild_card,2022.2.4,Win32,59.75500448,5ace82e135eccf0001a11c96,64ce5acb97489d65b14ecc7a,64cf49a01ef27e1f87418d38,,,,,,,decisionTrl,resources/DP.BMP,resources/DG.BMP,Door2,0.36845516,0.005079472,1,0,0,2.327,optionRight,40,3180,2,12,0,12,0,1,,,,,,,,,,,,,,,,,,,,,,,,,,,,,,,,,,,,,,,
,,,,,,,,2023-08-06_08h23.14.246,HF_wild_card,2022.2.4,Win32,59.75500448,5ace82e135eccf0001a11c96,64ce5acb97489d65b14ecc7a,64cf49a01ef27e1f87418d38,,,,,,,decisionTrl,resources/DBN.BMP,resources/DB.BMP,Door3,-0.299687427,0.06368848,1,0,0,1.1841,optionLeft,70,3250,2,13,0,13,0,1,,,,,,,,,,,,,,,,,,,,,,,,,,,,,,,,,,,,,,,
,,,,,,,,2023-08-06_08h23.14.246,HF_wild_card,2022.2.4,Win32,59.75500448,5ace82e135eccf0001a11c96,64ce5acb97489d65b14ecc7a,64cf49a01ef27e1f87418d38,,,,,,,decisionTrl,resources/DB.BMP,resources/DR.BMP,Door4,0.364548036,0.001172216,1,0,0,1.1093,optionRight,60,3310,2,14,0,14,0,1,,,,,,,,,,,,,,,,,,,,,,,,,,,,,,,,,,,,,,,
,,,,,,,,2023-08-06_08h23.14.246,HF_wild_card,2022.2.4,Win32,59.75500448,5ace82e135eccf0001a11c96,64ce5acb97489d65b14ecc7a,64cf49a01ef27e1f87418d38,,,,,,,decisionTrl,resources/DP.BMP,resources/DG.BMP,Door2,0.372362547,0.016801326,1,0,0,1.5743,optionRight,40,3350,2,15,0,15,0,1,,,,,,,,,,,,,,,,,,,,,,,,,,,,,,,,,,,,,,,
,,,,,,,,2023-08-06_08h23.14.246,HF_wild_card,2022.2.4,Win32,59.75500448,5ace82e135eccf0001a11c96,64ce5acb97489d65b14ecc7a,64cf49a01ef27e1f87418d38,,,,,,,decisionTrl,resources/DG.BMP,resources/DP.BMP,Door2,-0.267126876,0.057176344,1,0,0,1.5249,optionLeft,40,3390,2,16,0,16,0,1,,,,,,,,,,,,,,,,,,,,,,,,,,,,,,,,,,,,,,,
,,,,,,,,2023-08-06_08h23.14.246,HF_wild_card,2022.2.4,Win32,59.75500448,5ace82e135eccf0001a11c96,64ce5acb97489d65b14ecc7a,64cf49a01ef27e1f87418d38,,,,,,,sngl,resources/Empty.png,resources/DBN.BMP,Door3,0.308543733,0.002474678,1,0,0,0.8978,optionRight,70,3460,2,17,0,17,0,1,,,,,,,,,,,,,,,,,,,,,,,,,,,,,,,,,,,,,,,
,,,,,,,,2023-08-06_08h23.14.246,HF_wild_card,2022.2.4,Win32,59.75500448,5ace82e135eccf0001a11c96,64ce5acb97489d65b14ecc7a,64cf49a01ef27e1f87418d38,,,,,,,decisionTrl,resources/DP.BMP,resources/DG.BMP,Door1,-0.32964314,0.038942441,1,0,0,3.7426,optionLeft,30,3490,2,18,0,18,0,1,,,,,,,,,,,,,,,,,,,,,,,,,,,,,,,,,,,,,,,
,,,,,,,,2023-08-06_08h23.14.246,HF_wild_card,2022.2.4,Win32,59.75500448,5ace82e135eccf0001a11c96,64ce5acb97489d65b14ecc7a,64cf49a01ef27e1f87418d38,,,,,,,ctch,resources/DP.BMP,resources/DR.BMP,Door4,0.402318304,0.025918212,1,0,0,1.3611,optionRight,80,3570,2,19,0,19,0,1,,,,,,,,,,,,,,,,,,,,,,,,,,,,,,,,,,,,,,,
,,,,,,,,2023-08-06_08h23.14.246,HF_wild_card,2022.2.4,Win32,59.75500448,5ace82e135eccf0001a11c96,64ce5acb97489d65b14ecc7a,64cf49a01ef27e1f87418d38,,,,,,,sngl,resources/DR.BMP,resources/Empty.png,Door4,-0.38694973,0.048059414,1,0,0,0.6951,optionLeft,60,3630,2,20,0,20,0,1,,,,,,,,,,,,,,,,,,,,,,,,,,,,,,,,,,,,,,,
,,,,,,,,2023-08-06_08h23.14.246,HF_wild_card,2022.2.4,Win32,59.75500448,5ace82e135eccf0001a11c96,64ce5acb97489d65b14ecc7a,64cf49a01ef27e1f87418d38,,,,,,,decisionTrl,resources/DG.BMP,resources/DB.BMP,WildCard_NonEx,0.385386732,0.010289146,1,0,0,1.7287,optionRight,55,3685,2,21,0,21,0,1,,,,,,,,,,,,,,,,,,,,,,,,,,,,,,,,,,,,,,,
,,,,,,,,2023-08-06_08h23.14.246,HF_wild_card,2022.2.4,Win32,59.75500448,5ace82e135eccf0001a11c96,64ce5acb97489d65b14ecc7a,64cf49a01ef27e1f87418d38,,,,,,,decisionTrl,resources/DG.BMP,resources/DP.BMP,Door2,-0.355691598,0.054571507,1,0,0,1.586,optionLeft,20,3705,2,22,0,22,0,1,,,,,,,,,,,,,,,,,,,,,,,,,,,,,,,,,,,,,,,
,,,,,,,,2023-08-06_08h23.14.246,HF_wild_card,2022.2.4,Win32,59.75500448,5ace82e135eccf0001a11c96,64ce5acb97489d65b14ecc7a,64cf49a01ef27e1f87418d38,,,,,,,ctch,resources/DBN.BMP,resources/DG.BMP,Door3,-0.312711656,0.070200573,1,0,0,0.9701,optionLeft,70,3775,2,23,0,23,0,1,,,,,,,,,,,,,,,,,,,,,,,,,,,,,,,,,,,,,,,
,,,,,,,,2023-08-06_08h23.14.246,HF_wild_card,2022.2.4,Win32,59.75500448,5ace82e135eccf0001a11c96,64ce5acb97489d65b14ecc7a,64cf49a01ef27e1f87418d38,,,,,,,sngl,resources/DP.BMP,resources/Empty.png,Door1,-0.407788514,0.06368848,1,0,0,0.6439,optionLeft,30,3805,2,24,0,24,0,1,,,,,,,,,,,,,,,,,,,,,,,,,,,,,,,,,,,,,,,
,,,,,,,,2023-08-06_08h23.14.246,HF_wild_card,2022.2.4,Win32,59.75500448,5ace82e135eccf0001a11c96,64ce5acb97489d65b14ecc7a,64cf49a01ef27e1f87418d38,,,,,,,decisionTrl,resources/DP.BMP,resources/DG.BMP,Door2,0.397108455,0.002474678,1,0,0,2.0183,optionRight,40,3845,2,25,0,25,0,1,,,,,,,,,,,,,,,,,,,,,,,,,,,,,,,,,,,,,,,
,,,,,,,,2023-08-06_08h23.14.246,HF_wild_card,2022.2.4,Win32,59.75500448,5ace82e135eccf0001a11c96,64ce5acb97489d65b14ecc7a,64cf49a01ef27e1f87418d38,,,,,,,sngl,resources/Empty.png,resources/DB.BMP,WildCard_NonEx,0.334592278,0.020708538,1,0,0,0.8633,optionRight,45,3890,2,26,0,26,0,1,,,,,,,,,,,,,,,,,,,,,,,,,,,,,,,,,,,,,,,
,,,,,,,,2023-08-06_08h23.14.246,HF_wild_card,2022.2.4,Win32,59.75500448,5ace82e135eccf0001a11c96,64ce5acb97489d65b14ecc7a,64cf49a01ef27e1f87418d38,,,,,,,sngl,resources/Empty.png,resources/DB.BMP,WildCard_NonEx,0.36845516,0.003777053,1,0,0,0.7813,optionRight,55,3945,2,27,0,27,0,1,,,,,,,,,,,,,,,,,,,,,,,,,,,,,,,,,,,,,,,
,,,,,,,,2023-08-06_08h23.14.246,HF_wild_card,2022.2.4,Win32,59.75500448,5ace82e135eccf0001a11c96,64ce5acb97489d65b14ecc7a,64cf49a01ef27e1f87418d38,,,,,,,decisionTrl,resources/DR.BMP,resources/DBN.BMP,Door4,-0.264522039,0.036337604,1,0,0,1.4557,optionLeft,80,4025,2,28,0,28,0,1,,,,,,,,,,,,,,,,,,,,,,,,,,,,,,,,,,,,,,,
,,,,,,,,2023-08-06_08h23.14.246,HF_wild_card,2022.2.4,Win32,59.75500448,5ace82e135eccf0001a11c96,64ce5acb97489d65b14ecc7a,64cf49a01ef27e1f87418d38,,,,,,,decisionTrl,resources/DG.BMP,resources/DP.BMP,Door2,-0.267126876,0.019406119,1,0,0,1.3395,optionLeft,20,4045,2,29,0,29,0,1,,,,,,,,,,,,,,,,,,,,,,,,,,,,,,,,,,,,,,,
,,,,,,,,2023-08-06_08h23.14.246,HF_wild_card,2022.2.4,Win32,59.75500448,5ace82e135eccf0001a11c96,64ce5acb97489d65b14ecc7a,64cf49a01ef27e1f87418d38,,,,,,,sngl,resources/Empty.png,resources/DR.BMP,Door4,0.255144529,0.019406119,1,0,0,0.7249,optionRight,80,4125,2,30,0,30,0,1,,,,,,,,,,,,,,,,,,,,,,,,,,,,,,,,,,,,,,,
,,,,,,,,2023-08-06_08h23.14.246,HF_wild_card,2022.2.4,Win32,59.75500448,5ace82e135eccf0001a11c96,64ce5acb97489d65b14ecc7a,64cf49a01ef27e1f87418d38,,,,,,,decisionTrl,resources/DG.BMP,resources/DP.BMP,Door2,-0.243683255,0.037640022,1,0,0,1.2906,optionLeft,20,4145,2,31,0,31,0,1,,,,,,,,,,,,,,,,,,,,,,,,,,,,,,,,,,,,,,,
,,,,,,,,2023-08-06_08h23.14.246,HF_wild_card,2022.2.4,Win32,59.75500448,5ace82e135eccf0001a11c96,64ce5acb97489d65b14ecc7a,64cf49a01ef27e1f87418d38,,,,,,,decisionTrl,resources/DB.BMP,resources/DP.BMP,WildCard_NonEx,-0.302292264,0.045454621,1,0,0,1.021,optionLeft,45,4190,2,32,0,32,0,1,,,,,,,,,,,,,,,,,,,,,,,,,,,,,,,,,,,,,,,
,,,,,,,,2023-08-06_08h23.14.246,HF_wild_card,2022.2.4,Win32,59.75500448,5ace82e135eccf0001a11c96,64ce5acb97489d65b14ecc7a,64cf49a01ef27e1f87418d38,,,,,,,decisionTrl,resources/DBN.BMP,resources/DR.BMP,Door4,0.308543733,0.008986727,1,0,0,1.3611,optionRight,60,4250,2,33,0,33,0,1,,,,,,,,,,,,,,,,,,,,,,,,,,,,,,,,,,,,,,,
,,,,,,,,2023-08-06_08h23.14.246,HF_wild_card,2022.2.4,Win32,59.75500448,5ace82e135eccf0001a11c96,64ce5acb97489d65b14ecc7a,64cf49a01ef27e1f87418d38,,,,,,,decisionTrl,resources/DB.BMP,resources/DBN.BMP,Door3,0.419249789,0.061083643,1,0,0,2.1852,optionRight,70,4320,2,34,0,34,0,1,,,,,,,,,,,,,,,,,,,,,,,,,,,,,,,,,,,,,,,
,,,,,,,,2023-08-06_08h23.14.246,HF_wild_card,2022.2.4,Win32,59.75500448,5ace82e135eccf0001a11c96,64ce5acb97489d65b14ecc7a,64cf49a01ef27e1f87418d38,,,,,,,ctch,resources/DG.BMP,resources/DBN.BMP,Door3,0.269471177,0.074107916,1,0,0,0.863,optionRight,70,4390,2,35,0,35,0,1,,,,,,,,,,,,,,,,,,,,,,,,,,,,,,,,,,,,,,,
,,,,,,,,2023-08-06_08h23.14.246,HF_wild_card,2022.2.4,Win32,59.75500448,5ace82e135eccf0001a11c96,64ce5acb97489d65b14ecc7a,64cf49a01ef27e1f87418d38,,,,,,,decisionTrl,resources/DR.BMP,resources/DBN.BMP,Door3,0.305938983,0.067595736,1,0,0,1.4066,optionRight,70,4460,2,36,0,36,0,1,,,,,,,,,,,,,,,,,,,,,,,,,,,,,,,,,,,,,,,
,,,,,,,,2023-08-06_08h23.14.246,HF_wild_card,2022.2.4,Win32,59.75500448,5ace82e135eccf0001a11c96,64ce5acb97489d65b14ecc7a,64cf49a01ef27e1f87418d38,,,,,,,decisionTrl,resources/DBN.BMP,resources/DR.BMP,Door3,-0.429929673,0.106668423,1,0,0,0.9643,optionLeft,70,4530,2,37,0,37,0,1,,,,,,,,,,,,,,,,,,,,,,,,,,,,,,,,,,,,,,,
,,,,,,,,2023-08-06_08h23.14.246,HF_wild_card,2022.2.4,Win32,59.75500448,5ace82e135eccf0001a11c96,64ce5acb97489d65b14ecc7a,64cf49a01ef27e1f87418d38,,,,,,,sngl,resources/DG.BMP,resources/Empty.png,Door2,-0.370018246,0.037640022,1,0,0,1.8848,optionLeft,20,4550,2,38,0,38,0,1,,,,,,,,,,,,,,,,,,,,,,,,,,,,,,,,,,,,,,,
,,,,,,,,2023-08-06_08h23.14.246,HF_wild_card,2022.2.4,Win32,59.75500448,5ace82e135eccf0001a11c96,64ce5acb97489d65b14ecc7a,64cf49a01ef27e1f87418d38,,,,,,,decisionTrl,resources/DBN.BMP,resources/DR.BMP,Door4,0.339801865,0.070200573,1,0,0,1.4596,optionRight,80,4630,2,39,0,39,0,1,,,,,,,,,,,,,,,,,,,,,,,,,,,,,,,,,,,,,,,
,,,,,,,,2023-08-06_08h23.14.246,HF_wild_card,2022.2.4,Win32,59.75500448,5ace82e135eccf0001a11c96,64ce5acb97489d65b14ecc7a,64cf49a01ef27e1f87418d38,,,,,,,sngl,resources/Empty.png,resources/DP.BMP,Door1,0.342406789,0.036337604,1,0,0,0.8704,optionRight,30,4660,2,40,0,40,0,1,,,,,,,,,,,,,,,,,,,,,,,,,,,,,,,,,,,,,,,
,,,,,,,,2023-08-06_08h23.14.246,HF_wild_card,2022.2.4,Win32,59.75500448,5ace82e135eccf0001a11c96,64ce5acb97489d65b14ecc7a,64cf49a01ef27e1f87418d38,,,,,,,ctch,resources/DG.BMP,resources/DBN.BMP,Door3,0.337197028,0.078015128,1,0,0,1.1432,optionRight,70,4730,2,41,0,41,0,1,,,,,,,,,,,,,,,,,,,,,,,,,,,,,,,,,,,,,,,
,,,,,,,,2023-08-06_08h23.14.246,HF_wild_card,2022.2.4,Win32,59.75500448,5ace82e135eccf0001a11c96,64ce5acb97489d65b14ecc7a,64cf49a01ef27e1f87418d38,,,,,,,sngl,resources/Empty.png,resources/DG.BMP,Door2,0.433576436,-0.00533992,1,0,0,1.0213,optionRight,40,4770,2,42,0,42,0,1,,,,,,,,,,,,,,,,,,,,,,,,,,,,,,,,,,,,,,,
,,,,,,,,2023-08-06_08h23.14.246,HF_wild_card,2022.2.4,Win32,59.75500448,5ace82e135eccf0001a11c96,64ce5acb97489d65b14ecc7a,64cf49a01ef27e1f87418d38,,,,,,,decisionTrl,resources/DP.BMP,resources/DB.BMP,WildCard_NonEx,0.377572221,0.041547278,1,0,0,1.5436,optionRight,45,4815,2,43,0,43,0,1,,,,,,,,,,,,,,,,,,,,,,,,,,,,,,,,,,,,,,,
,,,,,,,,2023-08-06_08h23.14.246,HF_wild_card,2022.2.4,Win32,59.75500448,5ace82e135eccf0001a11c96,64ce5acb97489d65b14ecc7a,64cf49a01ef27e1f87418d38,,,,,,,,,,,,,,,,,,,,,,,,,,1,0,1,0,1,,,,,,,,,,,,,,,,,,,,,,,,,,,,,,,,,,
,,,,,,,,2023-08-06_08h23.14.246,HF_wild_card,2022.2.4,Win32,59.75500448,5ace82e135eccf0001a11c96,64ce5acb97489d65b14ecc7a,64cf49a01ef27e1f87418d38,,,,,,,sngl,resources/DG.BMP,resources/Empty.png,Door2,-0.362203778,0.035035185,1,0,0,0.7174,optionLeft,40,4855,3,0,0,0,0,1,,,,,,,,,,,,,,,,,,,,,,,,,,,,,,,,,,,,,,,
,,,,,,,,2023-08-06_08h23.14.246,HF_wild_card,2022.2.4,Win32,59.75500448,5ace82e135eccf0001a11c96,64ce5acb97489d65b14ecc7a,64cf49a01ef27e1f87418d38,,,,,,,decisionTrl,resources/DBN.BMP,resources/DB.BMP,Door3,-0.363506197,0.115785353,1,0,0,1.0419,optionLeft,70,4925,3,1,0,1,0,1,,,,,,,,,,,,,,,,,,,,,,,,,,,,,,,,,,,,,,,
,,,,,,,,2023-08-06_08h23.14.246,HF_wild_card,2022.2.4,Win32,59.75500448,5ace82e135eccf0001a11c96,64ce5acb97489d65b14ecc7a,64cf49a01ef27e1f87418d38,,,,,,,ctch,resources/DBN.BMP,resources/DG.BMP,Door3,-0.333550483,0.066293317,1,0,0,0.9388,optionLeft,70,4995,3,2,0,2,0,1,,,,,,,,,,,,,,,,,,,,,,,,,,,,,,,,,,,,,,,
,,,,,,,,2023-08-06_08h23.14.246,HF_wild_card,2022.2.4,Win32,59.75500448,5ace82e135eccf0001a11c96,64ce5acb97489d65b14ecc7a,64cf49a01ef27e1f87418d38,,,,,,,decisionTrl,resources/DR.BMP,resources/DBN.BMP,Door4,-0.364808572,0.093644194,1,0,0,1.3594,optionLeft,60,5055,3,3,0,3,0,1,,,,,,,,,,,,,,,,,,,,,,,,,,,,,,,,,,,,,,,
,,,,,,,,2023-08-06_08h23.14.246,HF_wild_card,2022.2.4,Win32,59.75500448,5ace82e135eccf0001a11c96,64ce5acb97489d65b14ecc7a,64cf49a01ef27e1f87418d38,,,,,,,decisionTrl,resources/DP.BMP,resources/DG.BMP,Door2,0.397108455,0.058478806,1,0,0,1.3895,optionRight,20,5075,3,4,0,4,0,1,,,,,,,,,,,,,,,,,,,,,,,,,,,,,,,,,,,,,,,
,,,,,,,,2023-08-06_08h23.14.246,HF_wild_card,2022.2.4,Win32,59.75500448,5ace82e135eccf0001a11c96,64ce5acb97489d65b14ecc7a,64cf49a01ef27e1f87418d38,,,,,,,sngl,resources/DB.BMP,resources/Empty.png,WildCard_NonEx,-0.435139435,0.074107916,1,0,0,0.8148,optionLeft,55,5130,3,5,0,5,0,1,,,,,,,,,,,,,,,,,,,,,,,,,,,,,,,,,,,,,,,
,,,,,,,,2023-08-06_08h23.14.246,HF_wild_card,2022.2.4,Win32,59.75500448,5ace82e135eccf0001a11c96,64ce5acb97489d65b14ecc7a,64cf49a01ef27e1f87418d38,,,,,,,decisionTrl,resources/DR.BMP,resources/DBN.BMP,Door4,-0.347877131,0.040244859,1,0,0,1.5821,optionLeft,60,5190,3,6,0,6,0,1,,,,,,,,,,,,,,,,,,,,,,,,,,,,,,,,,,,,,,,
,,,,,,,,2023-08-06_08h23.14.246,HF_wild_card,2022.2.4,Win32,59.75500448,5ace82e135eccf0001a11c96,64ce5acb97489d65b14ecc7a,64cf49a01ef27e1f87418d38,,,,,,,ctch,resources/DR.BMP,resources/DP.BMP,Door4,-0.426022418,0.049361833,1,0,0,1.0094,optionLeft,80,5270,3,7,0,7,0,1,,,,,,,,,,,,,,,,,,,,,,,,,,,,,,,,,,,,,,,
,,,,,,,,2023-08-06_08h23.14.246,HF_wild_card,2022.2.4,Win32,59.75500448,5ace82e135eccf0001a11c96,64ce5acb97489d65b14ecc7a,64cf49a01ef27e1f87418d38,,,,,,,decisionTrl,resources/DP.BMP,resources/DB.BMP,WildCard_NonEx,0.354128512,0.040244859,1,0,0,2.1427,optionRight,55,5325,3,8,0,8,0,1,,,,,,,,,,,,,,,,,,,,,,,,,,,,,,,,,,,,,,,
,,,,,,,,2023-08-06_08h23.14.246,HF_wild_card,2022.2.4,Win32,59.75500448,5ace82e135eccf0001a11c96,64ce5acb97489d65b14ecc7a,64cf49a01ef27e1f87418d38,,,,,,,decisionTrl,resources/DR.BMP,resources/DB.BMP,Door4,-0.402578797,0.085829639,1,0,0,1.1154,optionLeft,60,5385,3,9,0,9,0,1,,,,,,,,,,,,,,,,,,,,,,,,,,,,,,,,,,,,,,,
,,,,,,,,2023-08-06_08h23.14.246,HF_wild_card,2022.2.4,Win32,59.75500448,5ace82e135eccf0001a11c96,64ce5acb97489d65b14ecc7a,64cf49a01ef27e1f87418d38,,,,,,,decisionTrl,resources/DB.BMP,resources/DG.BMP,WildCard_NonEx,-0.39085703,0.066293317,1,0,0,2.6694,optionLeft,45,5430,3,10,0,10,0,1,,,,,,,,,,,,,,,,,,,,,,,,,,,,,,,,,,,,,,,
,,,,,,,,2023-08-06_08h23.14.246,HF_wild_card,2022.2.4,Win32,59.75500448,5ace82e135eccf0001a11c96,64ce5acb97489d65b14ecc7a,64cf49a01ef27e1f87418d38,,,,,,,sngl,resources/Empty.png,resources/DP.BMP,Door1,0.389294031,0.014196401,1,0,0,1.0989,optionRight,30,5460,3,11,0,11,0,1,,,,,,,,,,,,,,,,,,,,,,,,,,,,,,,,,,,,,,,
,,,,,,,,2023-08-06_08h23.14.246,HF_wild_card,2022.2.4,Win32,59.75500448,5ace82e135eccf0001a11c96,64ce5acb97489d65b14ecc7a,64cf49a01ef27e1f87418d38,,,,,,,decisionTrl,resources/DR.BMP,resources/DBN.BMP,Door3,0.350221388,0.091039357,1,0,0,1.3597,optionRight,70,5530,3,12,0,12,0,1,,,,,,,,,,,,,,,,,,,,,,,,,,,,,,,,,,,,,,,
,,,,,,,,2023-08-06_08h23.14.246,HF_wild_card,2022.2.4,Win32,59.75500448,5ace82e135eccf0001a11c96,64ce5acb97489d65b14ecc7a,64cf49a01ef27e1f87418d38,,,,,,,decisionTrl,resources/DB.BMP,resources/DR.BMP,Door4,0.328080229,0.042849696,1,0,0,1.533,optionRight,80,5610,3,13,0,13,0,1,,,,,,,,,,,,,,,,,,,,,,,,,,,,,,,,,,,,,,,
,,,,,,,,2023-08-06_08h23.14.246,HF_wild_card,2022.2.4,Win32,59.75500448,5ace82e135eccf0001a11c96,64ce5acb97489d65b14ecc7a,64cf49a01ef27e1f87418d38,,,,,,,decisionTrl,resources/DG.BMP,resources/DP.BMP,Door2,-0.349179549,0.072805454,1,0,0,2.3616,optionLeft,40,5650,3,14,0,14,0,1,,,,,,,,,,,,,,,,,,,,,,,,,,,,,,,,,,,,,,,
,,,,,,,,2023-08-06_08h23.14.246,HF_wild_card,2022.2.4,Win32,59.75500448,5ace82e135eccf0001a11c96,64ce5acb97489d65b14ecc7a,64cf49a01ef27e1f87418d38,,,,,,,sngl,resources/DP.BMP,resources/Empty.png,Door1,-0.343969788,0.061083643,1,0,0,0.8578,optionLeft,30,5680,3,15,0,15,0,1,,,,,,,,,,,,,,,,,,,,,,,,,,,,,,,,,,,,,,,
,,,,,,,,2023-08-06_08h23.14.246,HF_wild_card,2022.2.4,Win32,59.75500448,5ace82e135eccf0001a11c96,64ce5acb97489d65b14ecc7a,64cf49a01ef27e1f87418d38,,,,,,,decisionTrl,resources/DP.BMP,resources/DG.BMP,Door2,0.29682201,0.044152159,1,0,0,1.0144,optionRight,40,5720,3,16,0,16,0,1,,,,,,,,,,,,,,,,,,,,,,,,,,,,,,,,,,,,,,,
,,,,,,,,2023-08-06_08h23.14.246,HF_wild_card,2022.2.4,Win32,59.75500448,5ace82e135eccf0001a11c96,64ce5acb97489d65b14ecc7a,64cf49a01ef27e1f87418d38,,,,,,,ctch,resources/DBN.BMP,resources/DG.BMP,Door3,-0.377832844,0.080619965,1,0,0,1.0303,optionLeft,70,5790,3,17,0,17,0,1,,,,,,,,,,,,,,,,,,,,,,,,,,,,,,,,,,,,,,,
,,,,,,,,2023-08-06_08h23.14.246,HF_wild_card,2022.2.4,Win32,59.75500448,5ace82e135eccf0001a11c96,64ce5acb97489d65b14ecc7a,64cf49a01ef27e1f87418d38,,,,,,,decisionTrl,resources/DP.BMP,resources/DG.BMP,Door2,0.446600622,0.05196667,1,0,0,1.5559,optionRight,40,5830,3,18,0,18,0,1,,,,,,,,,,,,,,,,,,,,,,,,,,,,,,,,,,,,,,,
,,,,,,,,2023-08-06_08h23.14.246,HF_wild_card,2022.2.4,Win32,59.75500448,5ace82e135eccf0001a11c96,64ce5acb97489d65b14ecc7a,64cf49a01ef27e1f87418d38,,,,,,,decisionTrl,resources/DBN.BMP,resources/DR.BMP,Door4,0.354128512,0.008986727,1,0,0,1.5081,optionRight,60,5890,3,19,0,19,0,1,,,,,,,,,,,,,,,,,,,,,,,,,,,,,,,,,,,,,,,
,,,,,,,,2023-08-06_08h23.14.246,HF_wild_card,2022.2.4,Win32,59.75500448,5ace82e135eccf0001a11c96,64ce5acb97489d65b14ecc7a,64cf49a01ef27e1f87418d38,,,,,,,decisionTrl,resources/DR.BMP,resources/DBN.BMP,Door3,0.365850323,0.081922384,1,0,0,1.0112,optionRight,70,5960,3,20,0,20,0,1,,,,,,,,,,,,,,,,,,,,,,,,,,,,,,,,,,,,,,,
,,,,,,,,2023-08-06_08h23.14.246,HF_wild_card,2022.2.4,Win32,59.75500448,5ace82e135eccf0001a11c96,64ce5acb97489d65b14ecc7a,64cf49a01ef27e1f87418d38,,,,,,,decisionTrl,resources/DBN.BMP,resources/DR.BMP,Door3,-0.351784343,0.06368848,1,0,0,1.6336,optionLeft,70,6030,3,21,0,21,0,1,,,,,,,,,,,,,,,,,,,,,,,,,,,,,,,,,,,,,,,
,,,,,,,,2023-08-06_08h23.14.246,HF_wild_card,2022.2.4,Win32,59.75500448,5ace82e135eccf0001a11c96,64ce5acb97489d65b14ecc7a,64cf49a01ef27e1f87418d38,,,,,,,sngl,resources/Empty.png,resources/DBN.BMP,Door3,0.318963256,0.064990899,1,0,0,0.8401,optionRight,70,6100,3,22,0,22,0,1,,,,,,,,,,,,,,,,,,,,,,,,,,,,,,,,,,,,,,,
,,,,,,,,2023-08-06_08h23.14.246,HF_wild_card,2022.2.4,Win32,59.75500448,5ace82e135eccf0001a11c96,64ce5acb97489d65b14ecc7a,64cf49a01ef27e1f87418d38,,,,,,,ctch,resources/DG.BMP,resources/DBN.BMP,Door3,0.352826225,0.038942441,1,0,0,0.8035,optionRight,70,6170,3,23,0,23,0,1,,,,,,,,,,,,,,,,,,,,,,,,,,,,,,,,,,,,,,,
,,,,,,,,2023-08-06_08h23.14.246,HF_wild_card,2022.2.4,Win32,59.75500448,5ace82e135eccf0001a11c96,64ce5acb97489d65b14ecc7a,64cf49a01ef27e1f87418d38,,,,,,,sngl,resources/DR.BMP,resources/Empty.png,Door4,-0.414300607,0.049361833,1,0,0,0.6899,optionLeft,80,6250,3,24,0,24,0,1,,,,,,,,,,,,,,,,,,,,,,,,,,,,,,,,,,,,,,,
,,,,,,,,2023-08-06_08h23.14.246,HF_wild_card,2022.2.4,Win32,59.75500448,5ace82e135eccf0001a11c96,64ce5acb97489d65b14ecc7a,64cf49a01ef27e1f87418d38,,,,,,,sngl,resources/DBN.BMP,resources/Empty.png,Door3,-0.372623083,0.054571507,1,0,0,0.8981,optionLeft,70,6320,3,25,0,25,0,1,,,,,,,,,,,,,,,,,,,,,,,,,,,,,,,,,,,,,,,
,,,,,,,,2023-08-06_08h23.14.246,HF_wild_card,2022.2.4,Win32,59.75500448,5ace82e135eccf0001a11c96,64ce5acb97489d65b14ecc7a,64cf49a01ef27e1f87418d38,,,,,,,decisionTrl,resources/DG.BMP,resources/DP.BMP,Door2,-0.401276378,0.072805454,1,0,0,1.3053,optionLeft,40,6360,3,26,0,26,0,1,,,,,,,,,,,,,,,,,,,,,,,,,,,,,,,,,,,,,,,
,,,,,,,,2023-08-06_08h23.14.246,HF_wild_card,2022.2.4,Win32,59.75500448,5ace82e135eccf0001a11c96,64ce5acb97489d65b14ecc7a,64cf49a01ef27e1f87418d38,,,,,,,decisionTrl,resources/DG.BMP,resources/DP.BMP,Door2,-0.35438918,0.058478806,1,0,0,1.1659,optionLeft,20,6380,3,27,0,27,0,1,,,,,,,,,,,,,,,,,,,,,,,,,,,,,,,,,,,,,,,
,,,,,,,,2023-08-06_08h23.14.246,HF_wild_card,2022.2.4,Win32,59.75500448,5ace82e135eccf0001a11c96,64ce5acb97489d65b14ecc7a,64cf49a01ef27e1f87418d38,,,,,,,sngl,resources/Empty.png,resources/DB.BMP,WildCard_NonEx,0.285100287,0.028523049,1,0,0,0.8145,optionRight,45,6425,3,28,0,28,0,1,,,,,,,,,,,,,,,,,,,,,,,,,,,,,,,,,,,,,,,
,,,,,,,,2023-08-06_08h23.14.246,HF_wild_card,2022.2.4,Win32,59.75500448,5ace82e135eccf0001a11c96,64ce5acb97489d65b14ecc7a,64cf49a01ef27e1f87418d38,,,,,,,ctch,resources/DP.BMP,resources/DR.BMP,Door4,0.32287038,0.032430348,1,0,0,1.7452,optionRight,60,6485,3,29,0,29,0,1,,,,,,,,,,,,,,,,,,,,,,,,,,,,,,,,,,,,,,,
,,,,,,,,2023-08-06_08h23.14.246,HF_wild_card,2022.2.4,Win32,59.75500448,5ace82e135eccf0001a11c96,64ce5acb97489d65b14ecc7a,64cf49a01ef27e1f87418d38,,,,,,,sngl,resources/Empty.png,resources/DB.BMP,WildCard_NonEx,0.361943198,0.020708538,1,0,0,0.7477,optionRight,55,6540,3,30,0,30,0,1,,,,,,,,,,,,,,,,,,,,,,,,,,,,,,,,,,,,,,,
,,,,,,,,2023-08-06_08h23.14.246,HF_wild_card,2022.2.4,Win32,59.75500448,5ace82e135eccf0001a11c96,64ce5acb97489d65b14ecc7a,64cf49a01ef27e1f87418d38,,,,,,,decisionTrl,resources/DBN.BMP,resources/DR.BMP,Door4,0.309846282,0.041547278,1,0,0,1.38,optionRight,60,6600,3,31,0,31,0,1,,,,,,,,,,,,,,,,,,,,,,,,,,,,,,,,,,,,,,,
,,,,,,,,2023-08-06_08h23.14.246,HF_wild_card,2022.2.4,Win32,59.75500448,5ace82e135eccf0001a11c96,64ce5acb97489d65b14ecc7a,64cf49a01ef27e1f87418d38,,,,,,,decisionTrl,resources/DB.BMP,resources/DP.BMP,WildCard_NonEx,-0.379135219,0.050664251,1,0,0,1.1215,optionLeft,45,6645,3,32,0,32,0,1,,,,,,,,,,,,,,,,,,,,,,,,,,,,,,,,,,,,,,,
,,,,,,,,2023-08-06_08h23.14.246,HF_wild_card,2022.2.4,Win32,59.75500448,5ace82e135eccf0001a11c96,64ce5acb97489d65b14ecc7a,64cf49a01ef27e1f87418d38,,,,,,,decisionTrl,resources/DBN.BMP,resources/DR.BMP,Door4,0.334592278,-0.001432665,1,0,0,1.9851,optionRight,60,6705,3,33,0,33,0,1,,,,,,,,,,,,,,,,,,,,,,,,,,,,,,,,,,,,,,,
,,,,,,,,2023-08-06_08h23.14.246,HF_wild_card,2022.2.4,Win32,59.75500448,5ace82e135eccf0001a11c96,64ce5acb97489d65b14ecc7a,64cf49a01ef27e1f87418d38,,,,,,,sngl,resources/Empty.png,resources/DR.BMP,Door4,0.29682201,0.014196401,1,0,0,0.7305,optionRight,60,6765,3,34,0,34,0,1,,,,,,,,,,,,,,,,,,,,,,,,,,,,,,,,,,,,,,,
,,,,,,,,2023-08-06_08h23.14.246,HF_wild_card,2022.2.4,Win32,59.75500448,5ace82e135eccf0001a11c96,64ce5acb97489d65b14ecc7a,64cf49a01ef27e1f87418d38,,,,,,,decisionTrl,resources/DG.BMP,resources/DB.BMP,WildCard_NonEx,0.360640736,-0.00533992,1,0,0,1.1671,optionRight,45,6810,3,35,0,35,0,1,,,,,,,,,,,,,,,,,,,,,,,,,,,,,,,,,,,,,,,
,,,,,,,,2023-08-06_08h23.14.246,HF_wild_card,2022.2.4,Win32,59.75500448,5ace82e135eccf0001a11c96,64ce5acb97489d65b14ecc7a,64cf49a01ef27e1f87418d38,,,,,,,decisionTrl,resources/DB.BMP,resources/DBN.BMP,Door3,0.331987441,0.019406119,1,0,0,0.8136,optionRight,70,6880,3,36,0,36,0,1,,,,,,,,,,,,,,,,,,,,,,,,,,,,,,,,,,,,,,,
,,,,,,,,2023-08-06_08h23.14.246,HF_wild_card,2022.2.4,Win32,59.75500448,5ace82e135eccf0001a11c96,64ce5acb97489d65b14ecc7a,64cf49a01ef27e1f87418d38,,,,,,,ctch,resources/DG.BMP,resources/DBN.BMP,Door3,0.321568093,0.075410291,1,0,0,0.8651,optionRight,70,6950,3,37,0,37,0,1,,,,,,,,,,,,,,,,,,,,,,,,,,,,,,,,,,,,,,,
,,,,,,,,2023-08-06_08h23.14.246,HF_wild_card,2022.2.4,Win32,59.75500448,5ace82e135eccf0001a11c96,64ce5acb97489d65b14ecc7a,64cf49a01ef27e1f87418d38,,,,,,,decisionTrl,resources/DP.BMP,resources/DG.BMP,Door2,0.38147952,0.070200573,1,0,0,1.5222,optionRight,40,6990,3,38,0,38,0,1,,,,,,,,,,,,,,,,,,,,,,,,,,,,,,,,,,,,,,,
,,,,,,,,2023-08-06_08h23.14.246,HF_wild_card,2022.2.4,Win32,59.75500448,5ace82e135eccf0001a11c96,64ce5acb97489d65b14ecc7a,64cf49a01ef27e1f87418d38,,,,,,,decisionTrl,resources/DG.BMP,resources/DP.BMP,Door2,-0.358296435,0.05196667,1,0,0,1.0925,optionLeft,20,7010,3,39,0,39,0,1,,,,,,,,,,,,,,,,,,,,,,,,,,,,,,,,,,,,,,,
,,,,,,,,2023-08-06_08h23.14.246,HF_wild_card,2022.2.4,Win32,59.75500448,5ace82e135eccf0001a11c96,64ce5acb97489d65b14ecc7a,64cf49a01ef27e1f87418d38,,,,,,,ctch,resources/DP.BMP,resources/DR.BMP,Door4,0.371060084,0.06368848,1,0,0,1.3821,optionRight,80,7090,3,40,0,40,0,1,,,,,,,,,,,,,,,,,,,,,,,,,,,,,,,,,,,,,,,
,,,,,,,,2023-08-06_08h23.14.246,HF_wild_card,2022.2.4,Win32,59.75500448,5ace82e135eccf0001a11c96,64ce5acb97489d65b14ecc7a,64cf49a01ef27e1f87418d38,,,,,,,sngl,resources/Empty.png,resources/DG.BMP,Door2,0.356733437,0.042849696,1,0,0,1.0912,optionRight,20,7110,3,41,0,41,0,1,,,,,,,,,,,,,,,,,,,,,,,,,,,,,,,,,,,,,,,
,,,,,,,,2023-08-06_08h23.14.246,HF_wild_card,2022.2.4,Win32,59.75500448,5ace82e135eccf0001a11c96,64ce5acb97489d65b14ecc7a,64cf49a01ef27e1f87418d38,,,,,,,sngl,resources/DB.BMP,resources/Empty.png,WildCard_NonEx,-0.383042475,0.096249031,1,0,0,0.9994,optionLeft,45,7155,3,42,0,42,0,1,,,,,,,,,,,,,,,,,,,,,,,,,,,,,,,,,,,,,,,
,,,,,,,,2023-08-06_08h23.14.246,HF_wild_card,2022.2.4,Win32,59.75500448,5ace82e135eccf0001a11c96,64ce5acb97489d65b14ecc7a,64cf49a01ef27e1f87418d38,,,,,,,ctch,resources/DR.BMP,resources/DP.BMP,Door4,-0.459885387,0.062386062,1,0,0,1.1869,optionLeft,60,7215,3,43,0,43,0,1,,,,,,,,,,,,,,,,,,,,,,,,,,,,,,,,,,,,,,,
,,,,,,,,2023-08-06_08h23.14.246,HF_wild_card,2022.2.4,Win32,59.75500448,5ace82e135eccf0001a11c96,64ce5acb97489d65b14ecc7a,64cf49a01ef27e1f87418d38,,,,,,,,,,,,,,,,,,,,,,,,,,2,0,2,0,1,,,,,,,,,,,,,,,,,,,,,,,,,,,,,,,,,,
,,,,,,,,2023-08-06_08h23.14.246,HF_wild_card,2022.2.4,Win32,59.75500448,5ace82e135eccf0001a11c96,64ce5acb97489d65b14ecc7a,64cf49a01ef27e1f87418d38,,,,,,,decisionTrl,resources/DR.BMP,resources/DY.BMP,WildCard_Ex,0.397108455,0.012893983,1,0,0,1.5944,optionRight,45,7260,4,0,0,0,0,1,,,,,,,,,,,,,,,,,,,,,,,,,,,,,,,,,,,,,,,
,,,,,,,,2023-08-06_08h23.14.246,HF_wild_card,2022.2.4,Win32,59.75500448,5ace82e135eccf0001a11c96,64ce5acb97489d65b14ecc7a,64cf49a01ef27e1f87418d38,,,,,,,decisionTrl,resources/DBN.BMP,resources/DR.BMP,Door4,0.333289903,-0.037900471,1,0,0,1.7148,optionRight,60,7320,4,1,0,1,0,1,,,,,,,,,,,,,,,,,,,,,,,,,,,,,,,,,,,,,,,
,,,,,,,,2023-08-06_08h23.14.246,HF_wild_card,2022.2.4,Win32,59.75500448,5ace82e135eccf0001a11c96,64ce5acb97489d65b14ecc7a,64cf49a01ef27e1f87418d38,,,,,,,sngl,resources/DY.BMP,resources/Empty.png,WildCard_Ex,-0.3088044,0.059781269,1,0,0,0.6801,optionLeft,55,7375,4,2,0,2,0,1,,,,,,,,,,,,,,,,,,,,,,,,,,,,,,,,,,,,,,,
,,,,,,,,2023-08-06_08h23.14.246,HF_wild_card,2022.2.4,Win32,59.75500448,5ace82e135eccf0001a11c96,64ce5acb97489d65b14ecc7a,64cf49a01ef27e1f87418d38,,,,,,,decisionTrl,resources/DR.BMP,resources/DBN.BMP,Door3,0.326777767,0.036337604,1,0,0,1.7,optionRight,70,7445,4,3,0,3,0,1,,,,,,,,,,,,,,,,,,,,,,,,,,,,,,,,,,,,,,,
,,,,,,,,2023-08-06_08h23.14.246,HF_wild_card,2022.2.4,Win32,59.75500448,5ace82e135eccf0001a11c96,64ce5acb97489d65b14ecc7a,64cf49a01ef27e1f87418d38,,,,,,,ctch,resources/DP.BMP,resources/DR.BMP,Door4,0.377572221,0.029825511,1,0,0,1.0922,optionRight,60,7505,4,4,0,4,0,1,,,,,,,,,,,,,,,,,,,,,,,,,,,,,,,,,,,,,,,
,,,,,,,,2023-08-06_08h23.14.246,HF_wild_card,2022.2.4,Win32,59.75500448,5ace82e135eccf0001a11c96,64ce5acb97489d65b14ecc7a,64cf49a01ef27e1f87418d38,,,,,,,decisionTrl,resources/DBN.BMP,resources/DR.BMP,Door3,-0.38694973,0.141833833,1,0,0,1.0849,optionLeft,70,7575,4,5,0,5,0,1,,,,,,,,,,,,,,,,,,,,,,,,,,,,,,,,,,,,,,,
,,,,,,,,2023-08-06_08h23.14.246,HF_wild_card,2022.2.4,Win32,59.75500448,5ace82e135eccf0001a11c96,64ce5acb97489d65b14ecc7a,64cf49a01ef27e1f87418d38,,,,,,,decisionTrl,resources/DY.BMP,resources/DG.BMP,WildCard_Ex,-0.278848686,0.078015128,1,0,0,2.3202,optionLeft,45,7620,4,6,0,6,0,1,,,,,,,,,,,,,,,,,,,,,,,,,,,,,,,,,,,,,,,
,,,,,,,,2023-08-06_08h23.14.246,HF_wild_card,2022.2.4,Win32,59.75500448,5ace82e135eccf0001a11c96,64ce5acb97489d65b14ecc7a,64cf49a01ef27e1f87418d38,,,,,,,ctch,resources/DG.BMP,resources/DBN.BMP,Door3,0.341104415,0.078015128,1,0,0,1.3323,optionRight,70,7690,4,7,0,7,0,1,,,,,,,,,,,,,,,,,,,,,,,,,,,,,,,,,,,,,,,
,,,,,,,,2023-08-06_08h23.14.246,HF_wild_card,2022.2.4,Win32,59.75500448,5ace82e135eccf0001a11c96,64ce5acb97489d65b14ecc7a,64cf49a01ef27e1f87418d38,,,,,,,decisionTrl,resources/DP.BMP,resources/DG.BMP,Door2,0.33589474,0.029825511,1,0,0,1.4442,optionRight,20,7710,4,8,0,8,0,1,,,,,,,,,,,,,,,,,,,,,,,,,,,,,,,,,,,,,,,
,,,,,,,,2023-08-06_08h23.14.246,HF_wild_card,2022.2.4,Win32,59.75500448,5ace82e135eccf0001a11c96,64ce5acb97489d65b14ecc7a,64cf49a01ef27e1f87418d38,,,,,,,decisionTrl,resources/DBN.BMP,resources/DR.BMP,Door3,-0.409090933,0.124902326,1,0,0,1.0223,optionLeft,70,7780,4,9,0,9,0,1,,,,,,,,,,,,,,,,,,,,,,,,,,,,,,,,,,,,,,,
,,,,,,,,2023-08-06_08h23.14.246,HF_wild_card,2022.2.4,Win32,59.75500448,5ace82e135eccf0001a11c96,64ce5acb97489d65b14ecc7a,64cf49a01ef27e1f87418d38,,,,,,,decisionTrl,resources/DG.BMP,resources/DP.BMP,Door1,0.401015842,0.019406119,1,0,0,1.7346,optionRight,30,7810,4,10,0,10,0,1,,,,,,,,,,,,,,,,,,,,,,,,,,,,,,,,,,,,,,,
,,,,,,,,2023-08-06_08h23.14.246,HF_wild_card,2022.2.4,Win32,59.75500448,5ace82e135eccf0001a11c96,64ce5acb97489d65b14ecc7a,64cf49a01ef27e1f87418d38,,,,,,,sngl,resources/DBN.BMP,resources/Empty.png,Door3,-0.333550483,0.094946613,1,0,0,0.7578,optionLeft,70,7880,4,11,0,11,0,1,,,,,,,,,,,,,,,,,,,,,,,,,,,,,,,,,,,,,,,
,,,,,,,,2023-08-06_08h23.14.246,HF_wild_card,2022.2.4,Win32,59.75500448,5ace82e135eccf0001a11c96,64ce5acb97489d65b14ecc7a,64cf49a01ef27e1f87418d38,,,,,,,sngl,resources/Empty.png,resources/DP.BMP,Door1,0.330685066,0.003777053,1,0,0,0.7625,optionRight,30,7910,4,12,0,12,0,1,,,,,,,,,,,,,,,,,,,,,,,,,,,,,,,,,,,,,,,
,,,,,,,,2023-08-06_08h23.14.246,HF_wild_card,2022.2.4,Win32,59.75500448,5ace82e135eccf0001a11c96,64ce5acb97489d65b14ecc7a,64cf49a01ef27e1f87418d38,,,,,,,decisionTrl,resources/DBN.BMP,resources/DY.BMP,Door3,-0.298385008,0.048059414,1,0,0,1.7625,optionLeft,70,7980,4,13,0,13,0,1,,,,,,,,,,,,,,,,,,,,,,,,,,,,,,,,,,,,,,,
,,,,,,,,2023-08-06_08h23.14.246,HF_wild_card,2022.2.4,Win32,59.75500448,5ace82e135eccf0001a11c96,64ce5acb97489d65b14ecc7a,64cf49a01ef27e1f87418d38,,,,,,,ctch,resources/DR.BMP,resources/DP.BMP,Door4,-0.290570541,0.048059414,1,0,0,1.7571,optionLeft,60,8040,4,14,0,14,0,1,,,,,,,,,,,,,,,,,,,,,,,,,,,,,,,,,,,,,,,
,,,,,,,,2023-08-06_08h23.14.246,HF_wild_card,2022.2.4,Win32,59.75500448,5ace82e135eccf0001a11c96,64ce5acb97489d65b14ecc7a,64cf49a01ef27e1f87418d38,,,,,,,decisionTrl,resources/DBN.BMP,resources/DR.BMP,Door3,-0.345272206,0.092341776,1,0,0,1.2071,optionLeft,70,8110,4,15,0,15,0,1,,,,,,,,,,,,,,,,,,,,,,,,,,,,,,,,,,,,,,,
,,,,,,,,2023-08-06_08h23.14.246,HF_wild_card,2022.2.4,Win32,59.75500448,5ace82e135eccf0001a11c96,64ce5acb97489d65b14ecc7a,64cf49a01ef27e1f87418d38,,,,,,,decisionTrl,resources/DP.BMP,resources/DY.BMP,WildCard_Ex,0.397108455,-0.027481035,1,0,0,1.6289,optionRight,55,8165,4,16,0,16,0,1,,,,,,,,,,,,,,,,,,,,,,,,,,,,,,,,,,,,,,,
,,,,,,,,2023-08-06_08h23.14.246,HF_wild_card,2022.2.4,Win32,59.75500448,5ace82e135eccf0001a11c96,64ce5acb97489d65b14ecc7a,64cf49a01ef27e1f87418d38,,,,,,,decisionTrl,resources/DG.BMP,resources/DY.BMP,WildCard_Ex,0.311148657,0.001172216,1,0,0,1.0832,optionRight,45,8210,4,17,0,17,0,1,,,,,,,,,,,,,,,,,,,,,,,,,,,,,,,,,,,,,,,
,,,,,,,,2023-08-06_08h23.14.246,HF_wild_card,2022.2.4,Win32,59.75500448,5ace82e135eccf0001a11c96,64ce5acb97489d65b14ecc7a,64cf49a01ef27e1f87418d38,,,,,,,decisionTrl,resources/DG.BMP,resources/DP.BMP,Door2,-0.341364951,0.080619965,1,0,0,2.0362,optionLeft,20,8230,4,18,0,18,0,1,,,,,,,,,,,,,,,,,,,,,,,,,,,,,,,,,,,,,,,
,,,,,,,,2023-08-06_08h23.14.246,HF_wild_card,2022.2.4,Win32,59.75500448,5ace82e135eccf0001a11c96,64ce5acb97489d65b14ecc7a,64cf49a01ef27e1f87418d38,,,,,,,sngl,resources/DG.BMP,resources/Empty.png,Door2,-0.420812787,0.100156287,1,0,0,1.0757,optionLeft,20,8250,4,19,0,19,0,1,,,,,,,,,,,,,,,,,,,,,,,,,,,,,,,,,,,,,,,
,,,,,,,,2023-08-06_08h23.14.246,HF_wild_card,2022.2.4,Win32,59.75500448,5ace82e135eccf0001a11c96,64ce5acb97489d65b14ecc7a,64cf49a01ef27e1f87418d38,,,,,,,ctch,resources/DBN.BMP,resources/DG.BMP,Door3,-0.333550483,0.105366005,1,0,0,0.95,optionLeft,70,8320,4,20,0,20,0,1,,,,,,,,,,,,,,,,,,,,,,,,,,,,,,,,,,,,,,,
,,,,,,,,2023-08-06_08h23.14.246,HF_wild_card,2022.2.4,Win32,59.75500448,5ace82e135eccf0001a11c96,64ce5acb97489d65b14ecc7a,64cf49a01ef27e1f87418d38,,,,,,,decisionTrl,resources/DR.BMP,resources/DBN.BMP,Door3,0.328080229,0.091039357,1,0,0,1.143,optionRight,70,8390,4,21,0,21,0,1,,,,,,,,,,,,,,,,,,,,,,,,,,,,,,,,,,,,,,,
,,,,,,,,2023-08-06_08h23.14.246,HF_wild_card,2022.2.4,Win32,59.75500448,5ace82e135eccf0001a11c96,64ce5acb97489d65b14ecc7a,64cf49a01ef27e1f87418d38,,,,,,,decisionTrl,resources/DY.BMP,resources/DBN.BMP,Door3,0.248632393,0.068898155,1,0,0,1.037,optionRight,70,8460,4,22,0,22,0,1,,,,,,,,,,,,,,,,,,,,,,,,,,,,,,,,,,,,,,,
,,,,,,,,2023-08-06_08h23.14.246,HF_wild_card,2022.2.4,Win32,59.75500448,5ace82e135eccf0001a11c96,64ce5acb97489d65b14ecc7a,64cf49a01ef27e1f87418d38,,,,,,,sngl,resources/Empty.png,resources/DR.BMP,Door4,0.219979098,0.02722063,1,0,0,0.8075,optionRight,80,8540,4,23,0,23,0,1,,,,,,,,,,,,,,,,,,,,,,,,,,,,,,,,,,,,,,,
,,,,,,,,2023-08-06_08h23.14.246,HF_wild_card,2022.2.4,Win32,59.75500448,5ace82e135eccf0001a11c96,64ce5acb97489d65b14ecc7a,64cf49a01ef27e1f87418d38,,,,,,,sngl,resources/DP.BMP,resources/Empty.png,Door1,-0.337457695,0.050664251,1,0,0,0.7635,optionLeft,30,8570,4,24,0,24,0,1,,,,,,,,,,,,,,,,,,,,,,,,,,,,,,,,,,,,,,,
,,,,,,,,2023-08-06_08h23.14.246,HF_wild_card,2022.2.4,Win32,59.75500448,5ace82e135eccf0001a11c96,64ce5acb97489d65b14ecc7a,64cf49a01ef27e1f87418d38,,,,,,,sngl,resources/Empty.png,resources/DG.BMP,Door2,0.345011714,0.032430348,1,0,0,0.8756,optionRight,40,8610,4,25,0,25,0,1,,,,,,,,,,,,,,,,,,,,,,,,,,,,,,,,,,,,,,,
,,,,,,,,2023-08-06_08h23.14.246,HF_wild_card,2022.2.4,Win32,59.75500448,5ace82e135eccf0001a11c96,64ce5acb97489d65b14ecc7a,64cf49a01ef27e1f87418d38,,,,,,,ctch,resources/DP.BMP,resources/DR.BMP,Door4,0.350221388,0.040244859,1,0,0,1.9672,optionRight,80,8690,4,26,0,26,0,1,,,,,,,,,,,,,,,,,,,,,,,,,,,,,,,,,,,,,,,
,,,,,,,,2023-08-06_08h23.14.246,HF_wild_card,2022.2.4,Win32,59.75500448,5ace82e135eccf0001a11c96,64ce5acb97489d65b14ecc7a,64cf49a01ef27e1f87418d38,,,,,,,sngl,resources/Empty.png,resources/DY.BMP,WildCard_Ex,0.270773639,0.038942441,1,0,0,1.7073,optionRight,55,8745,4,27,0,27,0,1,,,,,,,,,,,,,,,,,,,,,,,,,,,,,,,,,,,,,,,
,,,,,,,,2023-08-06_08h23.14.246,HF_wild_card,2022.2.4,Win32,59.75500448,5ace82e135eccf0001a11c96,64ce5acb97489d65b14ecc7a,64cf49a01ef27e1f87418d38,,,,,,,sngl,resources/Empty.png,resources/DBN.BMP,Door3,0.29682201,0.079317547,1,0,0,0.9091,optionRight,70,8815,4,28,0,28,0,1,,,,,,,,,,,,,,,,,,,,,,,,,,,,,,,,,,,,,,,
,,,,,,,,2023-08-06_08h23.14.246,HF_wild_card,2022.2.4,Win32,59.75500448,5ace82e135eccf0001a11c96,64ce5acb97489d65b14ecc7a,64cf49a01ef27e1f87418d38,,,,,,,decisionTrl,resources/DP.BMP,resources/DG.BMP,Door1,-0.439046647,0.074107916,1,0,0,2.3271,optionLeft,30,8845,4,29,0,29,0,1,,,,,,,,,,,,,,,,,,,,,,,,,,,,,,,,,,,,,,,
,,,,,,,,2023-08-06_08h23.14.246,HF_wild_card,2022.2.4,Win32,59.75500448,5ace82e135eccf0001a11c96,64ce5acb97489d65b14ecc7a,64cf49a01ef27e1f87418d38,,,,,,,decisionTrl,resources/DP.BMP,resources/DG.BMP,Door1,-0.291872915,0.06368848,1,0,0,1.9526,optionLeft,30,8875,4,30,0,30,0,1,,,,,,,,,,,,,,,,,,,,,,,,,,,,,,,,,,,,,,,
,,,,,,,,2023-08-06_08h23.14.246,HF_wild_card,2022.2.4,Win32,59.75500448,5ace82e135eccf0001a11c96,64ce5acb97489d65b14ecc7a,64cf49a01ef27e1f87418d38,,,,,,,decisionTrl,resources/DR.BMP,resources/DBN.BMP,Door3,0.339801865,0.062386062,1,0,0,1.2825,optionRight,70,8945,4,31,0,31,0,1,,,,,,,,,,,,,,,,,,,,,,,,,,,,,,,,,,,,,,,
,,,,,,,,2023-08-06_08h23.14.246,HF_wild_card,2022.2.4,Win32,59.75500448,5ace82e135eccf0001a11c96,64ce5acb97489d65b14ecc7a,64cf49a01ef27e1f87418d38,,,,,,,sngl,resources/Empty.png,resources/DY.BMP,WildCard_Ex,0.331987441,0.035035185,1,0,0,0.8018,optionRight,45,8990,4,32,0,32,0,1,,,,,,,,,,,,,,,,,,,,,,,,,,,,,,,,,,,,,,,
,,,,,,,,2023-08-06_08h23.14.246,HF_wild_card,2022.2.4,Win32,59.75500448,5ace82e135eccf0001a11c96,64ce5acb97489d65b14ecc7a,64cf49a01ef27e1f87418d38,,,,,,,decisionTrl,resources/DG.BMP,resources/DP.BMP,Door2,-0.302292264,0.074107916,1,0,0,2.4277,optionLeft,20,9010,4,33,0,33,0,1,,,,,,,,,,,,,,,,,,,,,,,,,,,,,,,,,,,,,,,
,,,,,,,,2023-08-06_08h23.14.246,HF_wild_card,2022.2.4,Win32,59.75500448,5ace82e135eccf0001a11c96,64ce5acb97489d65b14ecc7a,64cf49a01ef27e1f87418d38,,,,,,,decisionTrl,resources/DR.BMP,resources/DBN.BMP,Door3,0.342406789,0.053269088,1,0,0,1.0216,optionRight,70,9080,4,34,0,34,0,1,,,,,,,,,,,,,,,,,,,,,,,,,,,,,,,,,,,,,,,
,,,,,,,,2023-08-06_08h23.14.246,HF_wild_card,2022.2.4,Win32,59.75500448,5ace82e135eccf0001a11c96,64ce5acb97489d65b14ecc7a,64cf49a01ef27e1f87418d38,,,,,,,ctch,resources/DBN.BMP,resources/DG.BMP,Door3,-0.407788514,0.098853868,1,0,0,1.3405,optionLeft,70,9150,4,35,0,35,0,1,,,,,,,,,,,,,,,,,,,,,,,,,,,,,,,,,,,,,,,
,,,,,,,,2023-08-06_08h23.14.246,HF_wild_card,2022.2.4,Win32,59.75500448,5ace82e135eccf0001a11c96,64ce5acb97489d65b14ecc7a,64cf49a01ef27e1f87418d38,,,,,,,ctch,resources/DG.BMP,resources/DBN.BMP,Door3,0.286402661,0.117087815,1,0,0,1.0051,optionRight,70,9220,4,36,0,36,0,1,,,,,,,,,,,,,,,,,,,,,,,,,,,,,,,,,,,,,,,
,,,,,,,,2023-08-06_08h23.14.246,HF_wild_card,2022.2.4,Win32,59.75500448,5ace82e135eccf0001a11c96,64ce5acb97489d65b14ecc7a,64cf49a01ef27e1f87418d38,,,,,,,decisionTrl,resources/DY.BMP,resources/DP.BMP,WildCard_Ex,-0.370018246,0.100156287,1,0,0,1.2727,optionLeft,55,9275,4,37,0,37,0,1,,,,,,,,,,,,,,,,,,,,,,,,,,,,,,,,,,,,,,,
,,,,,,,,2023-08-06_08h23.14.246,HF_wild_card,2022.2.4,Win32,59.75500448,5ace82e135eccf0001a11c96,64ce5acb97489d65b14ecc7a,64cf49a01ef27e1f87418d38,,,,,,,sngl,resources/DR.BMP,resources/Empty.png,Door4,-0.310106819,0.080619965,1,0,0,0.9205,optionLeft,60,9335,4,38,0,38,0,1,,,,,,,,,,,,,,,,,,,,,,,,,,,,,,,,,,,,,,,
,,,,,,,,2023-08-06_08h23.14.246,HF_wild_card,2022.2.4,Win32,59.75500448,5ace82e135eccf0001a11c96,64ce5acb97489d65b14ecc7a,64cf49a01ef27e1f87418d38,,,,,,,decisionTrl,resources/DY.BMP,resources/DR.BMP,Door4,0.272076014,0.062386062,1,0,0,2.2957,optionRight,80,9415,4,39,0,39,0,1,,,,,,,,,,,,,,,,,,,,,,,,,,,,,,,,,,,,,,,
,,,,,,,,2023-08-06_08h23.14.246,HF_wild_card,2022.2.4,Win32,59.75500448,5ace82e135eccf0001a11c96,64ce5acb97489d65b14ecc7a,64cf49a01ef27e1f87418d38,,,,,,,decisionTrl,resources/DG.BMP,resources/DP.BMP,Door1,0.415342489,0.029825511,1,0,0,2.5317,optionRight,30,9445,4,40,0,40,0,1,,,,,,,,,,,,,,,,,,,,,,,,,,,,,,,,,,,,,,,
,,,,,,,,2023-08-06_08h23.14.246,HF_wild_card,2022.2.4,Win32,59.75500448,5ace82e135eccf0001a11c96,64ce5acb97489d65b14ecc7a,64cf49a01ef27e1f87418d38,,,,,,,sngl,resources/DY.BMP,resources/Empty.png,WildCard_Ex,-0.338760114,0.044152159,1,0,0,0.7282,optionLeft,45,9490,4,41,0,41,0,1,,,,,,,,,,,,,,,,,,,,,,,,,,,,,,,,,,,,,,,
,,,,,,,,2023-08-06_08h23.14.246,HF_wild_card,2022.2.4,Win32,59.75500448,5ace82e135eccf0001a11c96,64ce5acb97489d65b14ecc7a,64cf49a01ef27e1f87418d38,,,,,,,ctch,resources/DR.BMP,resources/DP.BMP,Door4,-0.381740056,0.038942441,1,0,0,1.723,optionLeft,80,9570,4,42,0,42,0,1,,,,,,,,,,,,,,,,,,,,,,,,,,,,,,,,,,,,,,,
,,,,,,,,2023-08-06_08h23.14.246,HF_wild_card,2022.2.4,Win32,59.75500448,5ace82e135eccf0001a11c96,64ce5acb97489d65b14ecc7a,64cf49a01ef27e1f87418d38,,,,,,,decisionTrl,resources/DP.BMP,resources/DG.BMP,Door1,-0.35438918,0.05196667,1,0,0,1.6778,optionLeft,30,9600,4,43,0,43,0,1,,,,,,,,,,,,,,,,,,,,,,,,,,,,,,,,,,,,,,,
,,,,,,,,2023-08-06_08h23.14.246,HF_wild_card,2022.2.4,Win32,59.75500448,5ace82e135eccf0001a11c96,64ce5acb97489d65b14ecc7a,64cf49a01ef27e1f87418d38,,,,,,,,,,,,,,,,,,,,,,,,,,3,0,3,0,1,,,,,,,,,,,,,,,,,,,,,,,,,,,,,,,,,,
,,,,,,,,2023-08-06_08h23.14.246,HF_wild_card,2022.2.4,Win32,59.75500448,5ace82e135eccf0001a11c96,64ce5acb97489d65b14ecc7a,64cf49a01ef27e1f87418d38,,,,,,,decisionTrl,resources/DY.BMP,resources/DR.BMP,Door4,0.408830266,-0.026178617,1,0,0,2.0105,optionRight,60,9660,5,0,0,0,0,1,,,,,,,,,,,,,,,,,,,,,,,,,,,,,,,,,,,,,,,
,,,,,,,,2023-08-06_08h23.14.246,HF_wild_card,2022.2.4,Win32,59.75500448,5ace82e135eccf0001a11c96,64ce5acb97489d65b14ecc7a,64cf49a01ef27e1f87418d38,,,,,,,ctch,resources/DG.BMP,resources/DBN.BMP,Door3,0.321568093,0.10927326,1,0,0,1.072,optionRight,70,9730,5,1,0,1,0,1,,,,,,,,,,,,,,,,,,,,,,,,,,,,,,,,,,,,,,,
,,,,,,,,2023-08-06_08h23.14.246,HF_wild_card,2022.2.4,Win32,59.75500448,5ace82e135eccf0001a11c96,64ce5acb97489d65b14ecc7a,64cf49a01ef27e1f87418d38,,,,,,,sngl,resources/Empty.png,resources/DG.BMP,Door2,0.298124472,0.062386062,1,0,0,0.8409,optionRight,20,9750,5,2,0,2,0,1,,,,,,,,,,,,,,,,,,,,,,,,,,,,,,,,,,,,,,,
,,,,,,,,2023-08-06_08h23.14.246,HF_wild_card,2022.2.4,Win32,59.75500448,5ace82e135eccf0001a11c96,64ce5acb97489d65b14ecc7a,64cf49a01ef27e1f87418d38,,,,,,,decisionTrl,resources/DP.BMP,resources/DG.BMP,Door1,-0.343969788,0.057176344,1,0,0,0.8812,optionLeft,30,9780,5,3,0,3,0,1,,,,,,,,,,,,,,,,,,,,,,,,,,,,,,,,,,,,,,,
,,,,,,,,2023-08-06_08h23.14.246,HF_wild_card,2022.2.4,Win32,59.75500448,5ace82e135eccf0001a11c96,64ce5acb97489d65b14ecc7a,64cf49a01ef27e1f87418d38,,,,,,,decisionTrl,resources/DG.BMP,resources/DP.BMP,Door1,0.292914798,0.028523049,1,0,0,1.0157,optionRight,30,9810,5,4,0,4,0,1,,,,,,,,,,,,,,,,,,,,,,,,,,,,,,,,,,,,,,,
,,,,,,,,2023-08-06_08h23.14.246,HF_wild_card,2022.2.4,Win32,59.75500448,5ace82e135eccf0001a11c96,64ce5acb97489d65b14ecc7a,64cf49a01ef27e1f87418d38,,,,,,,decisionTrl,resources/DP.BMP,resources/DY.BMP,WildCard_Ex,0.308543733,0.032430348,1,0,0,1.0956,optionRight,55,9865,5,5,0,5,0,1,,,,,,,,,,,,,,,,,,,,,,,,,,,,,,,,,,,,,,,
,,,,,,,,2023-08-06_08h23.14.246,HF_wild_card,2022.2.4,Win32,59.75500448,5ace82e135eccf0001a11c96,64ce5acb97489d65b14ecc7a,64cf49a01ef27e1f87418d38,,,,,,,decisionTrl,resources/DY.BMP,resources/DG.BMP,WildCard_Ex,-0.364808572,0.075410291,1,0,0,1.373,optionLeft,55,9920,5,6,0,6,0,1,,,,,,,,,,,,,,,,,,,,,,,,,,,,,,,,,,,,,,,
,,,,,,,,2023-08-06_08h23.14.246,HF_wild_card,2022.2.4,Win32,59.75500448,5ace82e135eccf0001a11c96,64ce5acb97489d65b14ecc7a,64cf49a01ef27e1f87418d38,,,,,,,decisionTrl,resources/DY.BMP,resources/DBN.BMP,Door3,0.420552164,0.072805454,1,0,0,0.9489,optionRight,70,9990,5,7,0,7,0,1,,,,,,,,,,,,,,,,,,,,,,,,,,,,,,,,,,,,,,,
,,,,,,,,2023-08-06_08h23.14.246,HF_wild_card,2022.2.4,Win32,59.75500448,5ace82e135eccf0001a11c96,64ce5acb97489d65b14ecc7a,64cf49a01ef27e1f87418d38,,,,,,,decisionTrl,resources/DG.BMP,resources/DP.BMP,Door1,0.347616551,0.045454621,1,0,0,1.3977,optionRight,30,10020,5,8,0,8,0,1,,,,,,,,,,,,,,,,,,,,,,,,,,,,,,,,,,,,,,,
,,,,,,,,2023-08-06_08h23.14.246,HF_wild_card,2022.2.4,Win32,59.75500448,5ace82e135eccf0001a11c96,64ce5acb97489d65b14ecc7a,64cf49a01ef27e1f87418d38,,,,,,,decisionTrl,resources/DBN.BMP,resources/DR.BMP,Door3,-0.355691598,0.113180516,1,0,0,2.408,optionLeft,70,10090,5,9,0,9,0,1,,,,,,,,,,,,,,,,,,,,,,,,,,,,,,,,,,,,,,,
,,,,,,,,2023-08-06_08h23.14.246,HF_wild_card,2022.2.4,Win32,59.75500448,5ace82e135eccf0001a11c96,64ce5acb97489d65b14ecc7a,64cf49a01ef27e1f87418d38,,,,,,,sngl,resources/DG.BMP,resources/Empty.png,Door2,-0.341364951,0.041547278,1,0,0,0.8386,optionLeft,40,10130,5,10,0,10,0,1,,,,,,,,,,,,,,,,,,,,,,,,,,,,,,,,,,,,,,,
,,,,,,,,2023-08-06_08h23.14.246,HF_wild_card,2022.2.4,Win32,59.75500448,5ace82e135eccf0001a11c96,64ce5acb97489d65b14ecc7a,64cf49a01ef27e1f87418d38,,,,,,,decisionTrl,resources/DP.BMP,resources/DG.BMP,Door1,-0.399973959,0.058478806,1,0,0,0.8238,optionLeft,30,10160,5,11,0,11,0,1,,,,,,,,,,,,,,,,,,,,,,,,,,,,,,,,,,,,,,,
,,,,,,,,2023-08-06_08h23.14.246,HF_wild_card,2022.2.4,Win32,59.75500448,5ace82e135eccf0001a11c96,64ce5acb97489d65b14ecc7a,64cf49a01ef27e1f87418d38,,,,,,,ctch,resources/DBN.BMP,resources/DG.BMP,Door3,-0.454675713,0.105366005,1,0,0,1.1126,optionLeft,70,10230,5,12,0,12,0,1,,,,,,,,,,,,,,,,,,,,,,,,,,,,,,,,,,,,,,,
,,,,,,,,2023-08-06_08h23.14.246,HF_wild_card,2022.2.4,Win32,59.75500448,5ace82e135eccf0001a11c96,64ce5acb97489d65b14ecc7a,64cf49a01ef27e1f87418d38,,,,,,,sngl,resources/Empty.png,resources/DY.BMP,WildCard_Ex,0.407527978,0.035035185,1,0,0,0.6627,optionRight,45,10275,5,13,0,13,0,1,,,,,,,,,,,,,,,,,,,,,,,,,,,,,,,,,,,,,,,
,,,,,,,,2023-08-06_08h23.14.246,HF_wild_card,2022.2.4,Win32,59.75500448,5ace82e135eccf0001a11c96,64ce5acb97489d65b14ecc7a,64cf49a01ef27e1f87418d38,,,,,,,decisionTrl,resources/DP.BMP,resources/DG.BMP,Door1,-0.38694973,0.015498864,1,0,0,1.322,optionLeft,30,10305,5,14,0,14,0,1,,,,,,,,,,,,,,,,,,,,,,,,,,,,,,,,,,,,,,,
,,,,,,,,2023-08-06_08h23.14.246,HF_wild_card,2022.2.4,Win32,59.75500448,5ace82e135eccf0001a11c96,64ce5acb97489d65b14ecc7a,64cf49a01ef27e1f87418d38,,,,,,,decisionTrl,resources/DR.BMP,resources/DY.BMP,Door4,-0.39085703,0.038942441,1,0,0,1.5646,optionLeft,60,10365,5,15,0,15,0,1,,,,,,,,,,,,,,,,,,,,,,,,,,,,,,,,,,,,,,,
,,,,,,,,2023-08-06_08h23.14.246,HF_wild_card,2022.2.4,Win32,59.75500448,5ace82e135eccf0001a11c96,64ce5acb97489d65b14ecc7a,64cf49a01ef27e1f87418d38,,,,,,,sngl,resources/Empty.png,resources/DP.BMP,Door1,0.300729309,0.00638189,1,0,0,0.6935,optionRight,30,10395,5,16,0,16,0,1,,,,,,,,,,,,,,,,,,,,,,,,,,,,,,,,,,,,,,,
,,,,,,,,2023-08-06_08h23.14.246,HF_wild_card,2022.2.4,Win32,59.75500448,5ace82e135eccf0001a11c96,64ce5acb97489d65b14ecc7a,64cf49a01ef27e1f87418d38,,,,,,,decisionTrl,resources/DY.BMP,resources/DP.BMP,WildCard_Ex,-0.295780171,0.040244859,1,0,0,2.3132,optionLeft,55,10450,5,17,0,17,0,1,,,,,,,,,,,,,,,,,,,,,,,,,,,,,,,,,,,,,,,
,,,,,,,,2023-08-06_08h23.14.246,HF_wild_card,2022.2.4,Win32,59.75500448,5ace82e135eccf0001a11c96,64ce5acb97489d65b14ecc7a,64cf49a01ef27e1f87418d38,,,,,,,sngl,resources/DY.BMP,resources/Empty.png,WildCard_Ex,-0.316618911,0.045454621,1,0,0,0.6135,optionLeft,55,10505,5,18,0,18,0,1,,,,,,,,,,,,,,,,,,,,,,,,,,,,,,,,,,,,,,,
,,,,,,,,2023-08-06_08h23.14.246,HF_wild_card,2022.2.4,Win32,59.75500448,5ace82e135eccf0001a11c96,64ce5acb97489d65b14ecc7a,64cf49a01ef27e1f87418d38,,,,,,,sngl,resources/DR.BMP,resources/Empty.png,Door4,-0.325735885,0.045454621,1,0,0,0.6694,optionLeft,80,10585,5,19,0,19,0,1,,,,,,,,,,,,,,,,,,,,,,,,,,,,,,,,,,,,,,,
,,,,,,,,2023-08-06_08h23.14.246,HF_wild_card,2022.2.4,Win32,59.75500448,5ace82e135eccf0001a11c96,64ce5acb97489d65b14ecc7a,64cf49a01ef27e1f87418d38,,,,,,,decisionTrl,resources/DG.BMP,resources/DP.BMP,Door1,0.312451119,0.046756996,1,0,0,1.4938,optionRight,30,10615,5,20,0,20,0,1,,,,,,,,,,,,,,,,,,,,,,,,,,,,,,,,,,,,,,,
,,,,,,,,2023-08-06_08h23.14.246,HF_wild_card,2022.2.4,Win32,59.75500448,5ace82e135eccf0001a11c96,64ce5acb97489d65b14ecc7a,64cf49a01ef27e1f87418d38,,,,,,,ctch,resources/DR.BMP,resources/DP.BMP,Door4,-0.358296435,0.053269088,1,0,0,1.3922,optionLeft,60,10675,5,21,0,21,0,1,,,,,,,,,,,,,,,,,,,,,,,,,,,,,,,,,,,,,,,
,,,,,,,,2023-08-06_08h23.14.246,HF_wild_card,2022.2.4,Win32,59.75500448,5ace82e135eccf0001a11c96,64ce5acb97489d65b14ecc7a,64cf49a01ef27e1f87418d38,,,,,,,sngl,resources/DBN.BMP,resources/Empty.png,Door3,-0.291872915,0.066293317,1,0,0,0.8584,optionLeft,70,10745,5,22,0,22,0,1,,,,,,,,,,,,,,,,,,,,,,,,,,,,,,,,,,,,,,,
,,,,,,,,2023-08-06_08h23.14.246,HF_wild_card,2022.2.4,Win32,59.75500448,5ace82e135eccf0001a11c96,64ce5acb97489d65b14ecc7a,64cf49a01ef27e1f87418d38,,,,,,,ctch,resources/DBN.BMP,resources/DG.BMP,Door3,-0.321828629,0.068898155,1,0,0,0.8017,optionLeft,70,10815,5,23,0,23,0,1,,,,,,,,,,,,,,,,,,,,,,,,,,,,,,,,,,,,,,,
,,,,,,,,2023-08-06_08h23.14.246,HF_wild_card,2022.2.4,Win32,59.75500448,5ace82e135eccf0001a11c96,64ce5acb97489d65b14ecc7a,64cf49a01ef27e1f87418d38,,,,,,,sngl,resources/DY.BMP,resources/Empty.png,WildCard_Ex,-0.368715827,0.096249031,1,0,0,0.6571,optionLeft,45,10860,5,24,0,24,0,1,,,,,,,,,,,,,,,,,,,,,,,,,,,,,,,,,,,,,,,
,,,,,,,,2023-08-06_08h23.14.246,HF_wild_card,2022.2.4,Win32,59.75500448,5ace82e135eccf0001a11c96,64ce5acb97489d65b14ecc7a,64cf49a01ef27e1f87418d38,,,,,,,ctch,resources/DR.BMP,resources/DP.BMP,Door4,-0.370018246,0.114482934,1,0,0,1.1998,optionLeft,80,10940,5,25,0,25,0,1,,,,,,,,,,,,,,,,,,,,,,,,,,,,,,,,,,,,,,,
,,,,,,,,2023-08-06_08h23.14.246,HF_wild_card,2022.2.4,Win32,59.75500448,5ace82e135eccf0001a11c96,64ce5acb97489d65b14ecc7a,64cf49a01ef27e1f87418d38,,,,,,,decisionTrl,resources/DBN.BMP,resources/DR.BMP,Door3,-0.509377466,0.136624137,1,0,0,0.8942,optionLeft,70,11010,5,26,0,26,0,1,,,,,,,,,,,,,,,,,,,,,,,,,,,,,,,,,,,,,,,
,,,,,,,,2023-08-06_08h23.14.246,HF_wild_card,2022.2.4,Win32,59.75500448,5ace82e135eccf0001a11c96,64ce5acb97489d65b14ecc7a,64cf49a01ef27e1f87418d38,,,,,,,decisionTrl,resources/DBN.BMP,resources/DR.BMP,Door3,-0.319223836,0.059781269,1,0,0,0.9982,optionLeft,70,11080,5,27,0,27,0,1,,,,,,,,,,,,,,,,,,,,,,,,,,,,,,,,,,,,,,,
,,,,,,,,2023-08-06_08h23.14.246,HF_wild_card,2022.2.4,Win32,59.75500448,5ace82e135eccf0001a11c96,64ce5acb97489d65b14ecc7a,64cf49a01ef27e1f87418d38,,,,,,,decisionTrl,resources/DR.BMP,resources/DBN.BMP,Door3,0.329382604,0.042849696,1,0,0,0.781,optionRight,70,11150,5,28,0,28,0,1,,,,,,,,,,,,,,,,,,,,,,,,,,,,,,,,,,,,,,,
,,,,,,,,2023-08-06_08h23.14.246,HF_wild_card,2022.2.4,Win32,59.75500448,5ace82e135eccf0001a11c96,64ce5acb97489d65b14ecc7a,64cf49a01ef27e1f87418d38,,,,,,,sngl,resources/Empty.png,resources/DR.BMP,Door4,0.292914798,0.032430348,1,0,0,0.7245,optionRight,60,11210,5,29,0,29,0,1,,,,,,,,,,,,,,,,,,,,,,,,,,,,,,,,,,,,,,,
,,,,,,,,2023-08-06_08h23.14.246,HF_wild_card,2022.2.4,Win32,59.75500448,5ace82e135eccf0001a11c96,64ce5acb97489d65b14ecc7a,64cf49a01ef27e1f87418d38,,,,,,,decisionTrl,resources/DBN.BMP,resources/DR.BMP,Door3,-0.285360779,0.081922384,1,0,0,0.662,optionLeft,70,11280,5,30,0,30,0,1,,,,,,,,,,,,,,,,,,,,,,,,,,,,,,,,,,,,,,,
,,,,,,,,2023-08-06_08h23.14.246,HF_wild_card,2022.2.4,Win32,59.75500448,5ace82e135eccf0001a11c96,64ce5acb97489d65b14ecc7a,64cf49a01ef27e1f87418d38,,,,,,,decisionTrl,resources/DR.BMP,resources/DBN.BMP,Door3,0.313753582,0.081922384,1,0,0,0.8483,optionRight,70,11350,5,31,0,31,0,1,,,,,,,,,,,,,,,,,,,,,,,,,,,,,,,,,,,,,,,
,,,,,,,,2023-08-06_08h23.14.246,HF_wild_card,2022.2.4,Win32,59.75500448,5ace82e135eccf0001a11c96,64ce5acb97489d65b14ecc7a,64cf49a01ef27e1f87418d38,,,,,,,decisionTrl,resources/DG.BMP,resources/DP.BMP,Door1,0.36845516,0.007684309,1,0,0,1.1503,optionRight,30,11380,5,32,0,32,0,1,,,,,,,,,,,,,,,,,,,,,,,,,,,,,,,,,,,,,,,
,,,,,,,,2023-08-06_08h23.14.246,HF_wild_card,2022.2.4,Win32,59.75500448,5ace82e135eccf0001a11c96,64ce5acb97489d65b14ecc7a,64cf49a01ef27e1f87418d38,,,,,,,decisionTrl,resources/DBN.BMP,resources/DY.BMP,Door3,-0.362203778,0.098853868,1,0,0,1.3569,optionLeft,70,11450,5,33,0,33,0,1,,,,,,,,,,,,,,,,,,,,,,,,,,,,,,,,,,,,,,,
,,,,,,,,2023-08-06_08h23.14.246,HF_wild_card,2022.2.4,Win32,59.75500448,5ace82e135eccf0001a11c96,64ce5acb97489d65b14ecc7a,64cf49a01ef27e1f87418d38,,,,,,,ctch,resources/DP.BMP,resources/DR.BMP,Door4,0.374967384,0.016801326,1,0,0,1.7516,optionRight,60,11510,5,34,0,34,0,1,,,,,,,,,,,,,,,,,,,,,,,,,,,,,,,,,,,,,,,
,,,,,,,,2023-08-06_08h23.14.246,HF_wild_card,2022.2.4,Win32,59.75500448,5ace82e135eccf0001a11c96,64ce5acb97489d65b14ecc7a,64cf49a01ef27e1f87418d38,,,,,,,sngl,resources/Empty.png,resources/DY.BMP,WildCard_Ex,0.29682201,-0.000130203,1,0,0,0.7299,optionRight,55,11565,5,35,0,35,0,1,,,,,,,,,,,,,,,,,,,,,,,,,,,,,,,,,,,,,,,
,,,,,,,,2023-08-06_08h23.14.246,HF_wild_card,2022.2.4,Win32,59.75500448,5ace82e135eccf0001a11c96,64ce5acb97489d65b14ecc7a,64cf49a01ef27e1f87418d38,,,,,,,sngl,resources/Empty.png,resources/DBN.BMP,Door3,0.450507921,-0.020968986,1,0,0,0.6291,optionRight,70,11635,5,36,0,36,0,1,,,,,,,,,,,,,,,,,,,,,,,,,,,,,,,,,,,,,,,
,,,,,,,,2023-08-06_08h23.14.246,HF_wild_card,2022.2.4,Win32,59.75500448,5ace82e135eccf0001a11c96,64ce5acb97489d65b14ecc7a,64cf49a01ef27e1f87418d38,,,,,,,ctch,resources/DP.BMP,resources/DR.BMP,Door4,0.33589474,0.070200573,1,0,0,1.4826,optionRight,80,11715,5,37,0,37,0,1,,,,,,,,,,,,,,,,,,,,,,,,,,,,,,,,,,,,,,,
,,,,,,,,2023-08-06_08h23.14.246,HF_wild_card,2022.2.4,Win32,59.75500448,5ace82e135eccf0001a11c96,64ce5acb97489d65b14ecc7a,64cf49a01ef27e1f87418d38,,,,,,,decisionTrl,resources/DP.BMP,resources/DG.BMP,Door1,-0.327038303,0.057176344,1,0,0,1.8295,optionLeft,30,11745,5,38,0,38,0,1,,,,,,,,,,,,,,,,,,,,,,,,,,,,,,,,,,,,,,,
,,,,,,,,2023-08-06_08h23.14.246,HF_wild_card,2022.2.4,Win32,59.75500448,5ace82e135eccf0001a11c96,64ce5acb97489d65b14ecc7a,64cf49a01ef27e1f87418d38,,,,,,,decisionTrl,resources/DG.BMP,resources/DY.BMP,WildCard_Ex,0.331987441,0.048059414,1,0,0,1.296,optionRight,45,11790,5,39,0,39,0,1,,,,,,,,,,,,,,,,,,,,,,,,,,,,,,,,,,,,,,,
,,,,,,,,2023-08-06_08h23.14.246,HF_wild_card,2022.2.4,Win32,59.75500448,5ace82e135eccf0001a11c96,64ce5acb97489d65b14ecc7a,64cf49a01ef27e1f87418d38,,,,,,,ctch,resources/DG.BMP,resources/DBN.BMP,Door3,0.352826225,0.011591564,1,0,0,1.2487,optionRight,70,11860,5,40,0,40,0,1,,,,,,,,,,,,,,,,,,,,,,,,,,,,,,,,,,,,,,,
,,,,,,,,2023-08-06_08h23.14.246,HF_wild_card,2022.2.4,Win32,59.75500448,5ace82e135eccf0001a11c96,64ce5acb97489d65b14ecc7a,64cf49a01ef27e1f87418d38,,,,,,,sngl,resources/DP.BMP,resources/Empty.png,Door1,-0.282755942,0.032430348,1,0,0,0.6785,optionLeft,30,11890,5,41,0,41,0,1,,,,,,,,,,,,,,,,,,,,,,,,,,,,,,,,,,,,,,,
,,,,,,,,2023-08-06_08h23.14.246,HF_wild_card,2022.2.4,Win32,59.75500448,5ace82e135eccf0001a11c96,64ce5acb97489d65b14ecc7a,64cf49a01ef27e1f87418d38,,,,,,,decisionTrl,resources/DR.BMP,resources/DBN.BMP,Door3,0.339801865,0.046756996,1,0,0,0.9257,optionRight,70,11960,5,42,0,42,0,1,,,,,,,,,,,,,,,,,,,,,,,,,,,,,,,,,,,,,,,
,,,,,,,,2023-08-06_08h23.14.246,HF_wild_card,2022.2.4,Win32,59.75500448,5ace82e135eccf0001a11c96,64ce5acb97489d65b14ecc7a,64cf49a01ef27e1f87418d38,,,,,,,decisionTrl,resources/DR.BMP,resources/DBN.BMP,Door3,0.330685066,0.09755145,1,0,0,1.0489,optionRight,70,12030,5,43,0,43,0,1,,,,,,,,,,,,,,,,,,,,,,,,,,,,,,,,,,,,,,,
,,,,,,,,2023-08-06_08h23.14.246,HF_wild_card,2022.2.4,Win32,59.75500448,5ace82e135eccf0001a11c96,64ce5acb97489d65b14ecc7a,64cf49a01ef27e1f87418d38,,,,,,,,,,,,,,,,,,,,,,,,,,4,0,4,0,1,,,,,,,,,,,,,,,,,,,,,,,,,,,,,,,,,,
,,,,,,,,2023-08-06_08h23.14.246,HF_wild_card,2022.2.4,Win32,59.75500448,5ace82e135eccf0001a11c96,64ce5acb97489d65b14ecc7a,64cf49a01ef27e1f87418d38,,,,,,,decisionTrl,resources/DP.BMP,resources/DG.BMP,Door2,0.343709252,0.050664251,1,0,0,3.1825,optionRight,40,12070,6,0,0,0,0,1,,,,,,,,,,,,,,,,,,,,,,,,,,,,,,,,,,,,,,,
,,,,,,,,2023-08-06_08h23.14.246,HF_wild_card,2022.2.4,Win32,59.75500448,5ace82e135eccf0001a11c96,64ce5acb97489d65b14ecc7a,64cf49a01ef27e1f87418d38,,,,,,,decisionTrl,resources/DG.BMP,resources/DY.BMP,WildCard_Ex,0.394503618,-0.062646511,1,0,0,1.1225,optionRight,55,12125,6,1,0,1,0,1,,,,,,,,,,,,,,,,,,,,,,,,,,,,,,,,,,,,,,,
,,,,,,,,2023-08-06_08h23.14.246,HF_wild_card,2022.2.4,Win32,59.75500448,5ace82e135eccf0001a11c96,64ce5acb97489d65b14ecc7a,64cf49a01ef27e1f87418d38,,,,,,,decisionTrl,resources/DBN.BMP,resources/DR.BMP,Door4,0.361943198,-0.045715026,1,0,0,1.4457,optionRight,60,12185,6,2,0,2,0,1,,,,,,,,,,,,,,,,,,,,,,,,,,,,,,,,,,,,,,,
,,,,,,,,2023-08-06_08h23.14.246,HF_wild_card,2022.2.4,Win32,59.75500448,5ace82e135eccf0001a11c96,64ce5acb97489d65b14ecc7a,64cf49a01ef27e1f87418d38,,,,,,,ctch,resources/DBN.BMP,resources/DG.BMP,Door3,-0.482026589,0.16657985,1,0,0,1.154,optionLeft,70,12255,6,3,0,3,0,1,,,,,,,,,,,,,,,,,,,,,,,,,,,,,,,,,,,,,,,
,,,,,,,,2023-08-06_08h23.14.246,HF_wild_card,2022.2.4,Win32,59.75500448,5ace82e135eccf0001a11c96,64ce5acb97489d65b14ecc7a,64cf49a01ef27e1f87418d38,,,,,,,sngl,resources/Empty.png,resources/DP.BMP,Door1,0.295519635,0.028523049,1,0,0,0.7038,optionRight,30,12285,6,4,0,4,0,1,,,,,,,,,,,,,,,,,,,,,,,,,,,,,,,,,,,,,,,
,,,,,,,,2023-08-06_08h23.14.246,HF_wild_card,2022.2.4,Win32,59.75500448,5ace82e135eccf0001a11c96,64ce5acb97489d65b14ecc7a,64cf49a01ef27e1f87418d38,,,,,,,ctch,resources/DR.BMP,resources/DP.BMP,Door4,-0.287965616,0.050664251,1,0,0,1.5002,optionLeft,60,12345,6,5,0,5,0,1,,,,,,,,,,,,,,,,,,,,,,,,,,,,,,,,,,,,,,,
,,,,,,,,2023-08-06_08h23.14.246,HF_wild_card,2022.2.4,Win32,59.75500448,5ace82e135eccf0001a11c96,64ce5acb97489d65b14ecc7a,64cf49a01ef27e1f87418d38,,,,,,,sngl,resources/DY.BMP,resources/Empty.png,WildCard_Ex,-0.268429294,0.037640022,1,0,0,0.691,optionLeft,45,12390,6,6,0,6,0,1,,,,,,,,,,,,,,,,,,,,,,,,,,,,,,,,,,,,,,,
,,,,,,,,2023-08-06_08h23.14.246,HF_wild_card,2022.2.4,Win32,59.75500448,5ace82e135eccf0001a11c96,64ce5acb97489d65b14ecc7a,64cf49a01ef27e1f87418d38,,,,,,,sngl,resources/Empty.png,resources/DG.BMP,Door2,0.342406789,0.010289146,1,0,0,0.6802,optionRight,40,12430,6,7,0,7,0,1,,,,,,,,,,,,,,,,,,,,,,,,,,,,,,,,,,,,,,,
,,,,,,,,2023-08-06_08h23.14.246,HF_wild_card,2022.2.4,Win32,59.75500448,5ace82e135eccf0001a11c96,64ce5acb97489d65b14ecc7a,64cf49a01ef27e1f87418d38,,,,,,,ctch,resources/DG.BMP,resources/DBN.BMP,Door3,0.36975771,0.010289146,1,0,0,1.1324,optionRight,70,12500,6,8,0,8,0,1,,,,,,,,,,,,,,,,,,,,,,,,,,,,,,,,,,,,,,,
,,,,,,,,2023-08-06_08h23.14.246,HF_wild_card,2022.2.4,Win32,59.75500448,5ace82e135eccf0001a11c96,64ce5acb97489d65b14ecc7a,64cf49a01ef27e1f87418d38,,,,,,,decisionTrl,resources/DY.BMP,resources/DP.BMP,WildCard_Ex,-0.385647312,0.076712709,1,0,0,1.4894,optionLeft,55,12555,6,9,0,9,0,1,,,,,,,,,,,,,,,,,,,,,,,,,,,,,,,,,,,,,,,
,,,,,,,,2023-08-06_08h23.14.246,HF_wild_card,2022.2.4,Win32,59.75500448,5ace82e135eccf0001a11c96,64ce5acb97489d65b14ecc7a,64cf49a01ef27e1f87418d38,,,,,,,sngl,resources/Empty.png,resources/DBN.BMP,Door3,0.350221388,-0.015759312,1,0,0,0.6305,optionRight,70,12625,6,10,0,10,0,1,,,,,,,,,,,,,,,,,,,,,,,,,,,,,,,,,,,,,,,
,,,,,,,,2023-08-06_08h23.14.246,HF_wild_card,2022.2.4,Win32,59.75500448,5ace82e135eccf0001a11c96,64ce5acb97489d65b14ecc7a,64cf49a01ef27e1f87418d38,,,,,,,decisionTrl,resources/DP.BMP,resources/DY.BMP,WildCard_Ex,0.343709252,-0.013154388,1,0,0,1.5169,optionRight,55,12680,6,11,0,11,0,1,,,,,,,,,,,,,,,,,,,,,,,,,,,,,,,,,,,,,,,
,,,,,,,,2023-08-06_08h23.14.246,HF_wild_card,2022.2.4,Win32,59.75500448,5ace82e135eccf0001a11c96,64ce5acb97489d65b14ecc7a,64cf49a01ef27e1f87418d38,,,,,,,sngl,resources/DR.BMP,resources/Empty.png,Door4,-0.32964314,0.035035185,1,0,0,0.6435,optionLeft,60,12740,6,12,0,12,0,1,,,,,,,,,,,,,,,,,,,,,,,,,,,,,,,,,,,,,,,
,,,,,,,,2023-08-06_08h23.14.246,HF_wild_card,2022.2.4,Win32,59.75500448,5ace82e135eccf0001a11c96,64ce5acb97489d65b14ecc7a,64cf49a01ef27e1f87418d38,,,,,,,sngl,resources/Empty.png,resources/DY.BMP,WildCard_Ex,0.244725181,0.046756996,1,0,0,0.8087,optionRight,55,12795,6,13,0,13,0,1,,,,,,,,,,,,,,,,,,,,,,,,,,,,,,,,,,,,,,,
,,,,,,,,2023-08-06_08h23.14.246,HF_wild_card,2022.2.4,Win32,59.75500448,5ace82e135eccf0001a11c96,64ce5acb97489d65b14ecc7a,64cf49a01ef27e1f87418d38,,,,,,,decisionTrl,resources/DBN.BMP,resources/DR.BMP,Door3,-0.375227964,0.081922384,1,0,0,1.4496,optionLeft,70,12865,6,14,0,14,0,1,,,,,,,,,,,,,,,,,,,,,,,,,,,,,,,,,,,,,,,
,,,,,,,,2023-08-06_08h23.14.246,HF_wild_card,2022.2.4,Win32,59.75500448,5ace82e135eccf0001a11c96,64ce5acb97489d65b14ecc7a,64cf49a01ef27e1f87418d38,,,,,,,sngl,resources/Empty.png,resources/DR.BMP,Door4,0.286402661,0.02722063,1,0,0,0.6582,optionRight,80,12945,6,15,0,15,0,1,,,,,,,,,,,,,,,,,,,,,,,,,,,,,,,,,,,,,,,
,,,,,,,,2023-08-06_08h23.14.246,HF_wild_card,2022.2.4,Win32,59.75500448,5ace82e135eccf0001a11c96,64ce5acb97489d65b14ecc7a,64cf49a01ef27e1f87418d38,,,,,,,decisionTrl,resources/DY.BMP,resources/DR.BMP,Door4,0.372362547,0.037640022,1,0,0,1.1974,optionRight,80,13025,6,16,0,16,0,1,,,,,,,,,,,,,,,,,,,,,,,,,,,,,,,,,,,,,,,
,,,,,,,,2023-08-06_08h23.14.246,HF_wild_card,2022.2.4,Win32,59.75500448,5ace82e135eccf0001a11c96,64ce5acb97489d65b14ecc7a,64cf49a01ef27e1f87418d38,,,,,,,decisionTrl,resources/DG.BMP,resources/DP.BMP,Door2,-0.347877131,0.059781269,1,0,0,2.899,optionLeft,20,13045,6,17,0,17,0,1,,,,,,,,,,,,,,,,,,,,,,,,,,,,,,,,,,,,,,,
,,,,,,,,2023-08-06_08h23.14.246,HF_wild_card,2022.2.4,Win32,59.75500448,5ace82e135eccf0001a11c96,64ce5acb97489d65b14ecc7a,64cf49a01ef27e1f87418d38,,,,,,,sngl,resources/DY.BMP,resources/Empty.png,WildCard_Ex,-0.435139435,0.081922384,1,0,0,1.1002,optionLeft,55,13100,6,18,0,18,0,1,,,,,,,,,,,,,,,,,,,,,,,,,,,,,,,,,,,,,,,
,,,,,,,,2023-08-06_08h23.14.246,HF_wild_card,2022.2.4,Win32,59.75500448,5ace82e135eccf0001a11c96,64ce5acb97489d65b14ecc7a,64cf49a01ef27e1f87418d38,,,,,,,decisionTrl,resources/DBN.BMP,resources/DR.BMP,Door4,0.358035899,-0.036598053,1,0,0,1.3932,optionRight,80,13180,6,19,0,19,0,1,,,,,,,,,,,,,,,,,,,,,,,,,,,,,,,,,,,,,,,
,,,,,,,,2023-08-06_08h23.14.246,HF_wild_card,2022.2.4,Win32,59.75500448,5ace82e135eccf0001a11c96,64ce5acb97489d65b14ecc7a,64cf49a01ef27e1f87418d38,,,,,,,decisionTrl,resources/DBN.BMP,resources/DR.BMP,Door4,0.279890438,0.019406119,1,0,0,0.7817,optionRight,80,13260,6,20,0,20,0,1,,,,,,,,,,,,,,,,,,,,,,,,,,,,,,,,,,,,,,,
,,,,,,,,2023-08-06_08h23.14.246,HF_wild_card,2022.2.4,Win32,59.75500448,5ace82e135eccf0001a11c96,64ce5acb97489d65b14ecc7a,64cf49a01ef27e1f87418d38,,,,,,,decisionTrl,resources/DP.BMP,resources/DG.BMP,Door1,-0.375227964,0.053269088,1,0,0,3.0123,optionLeft,30,13290,6,21,0,21,0,1,,,,,,,,,,,,,,,,,,,,,,,,,,,,,,,,,,,,,,,
,,,,,,,,2023-08-06_08h23.14.246,HF_wild_card,2022.2.4,Win32,59.75500448,5ace82e135eccf0001a11c96,64ce5acb97489d65b14ecc7a,64cf49a01ef27e1f87418d38,,,,,,,ctch,resources/DP.BMP,resources/DR.BMP,Door4,0.386689194,0.031127973,1,0,0,1.4343,optionRight,60,13350,6,22,0,22,0,1,,,,,,,,,,,,,,,,,,,,,,,,,,,,,,,,,,,,,,,
,,,,,,,,2023-08-06_08h23.14.246,HF_wild_card,2022.2.4,Win32,59.75500448,5ace82e135eccf0001a11c96,64ce5acb97489d65b14ecc7a,64cf49a01ef27e1f87418d38,,,,,,,decisionTrl,resources/DY.BMP,resources/DG.BMP,WildCard_Ex,-0.35438918,0.072805454,1,0,0,1.4399,optionLeft,45,13395,6,23,0,23,0,1,,,,,,,,,,,,,,,,,,,,,,,,,,,,,,,,,,,,,,,
,,,,,,,,2023-08-06_08h23.14.246,HF_wild_card,2022.2.4,Win32,59.75500448,5ace82e135eccf0001a11c96,64ce5acb97489d65b14ecc7a,64cf49a01ef27e1f87418d38,,,,,,,decisionTrl,resources/DR.BMP,resources/DBN.BMP,Door4,-0.349179549,0.046756996,1,0,0,1.0825,optionLeft,80,13475,6,24,0,24,0,1,,,,,,,,,,,,,,,,,,,,,,,,,,,,,,,,,,,,,,,
,,,,,,,,2023-08-06_08h23.14.246,HF_wild_card,2022.2.4,Win32,59.75500448,5ace82e135eccf0001a11c96,64ce5acb97489d65b14ecc7a,64cf49a01ef27e1f87418d38,,,,,,,decisionTrl,resources/DG.BMP,resources/DP.BMP,Door2,-0.3088044,0.092341776,1,0,0,2.1634,optionLeft,20,13495,6,25,0,25,0,1,,,,,,,,,,,,,,,,,,,,,,,,,,,,,,,,,,,,,,,
,,,,,,,,2023-08-06_08h23.14.246,HF_wild_card,2022.2.4,Win32,59.75500448,5ace82e135eccf0001a11c96,64ce5acb97489d65b14ecc7a,64cf49a01ef27e1f87418d38,,,,,,,sngl,resources/Empty.png,resources/DY.BMP,WildCard_Ex,0.279890438,0.038942441,1,0,0,0.721,optionRight,45,13540,6,26,0,26,0,1,,,,,,,,,,,,,,,,,,,,,,,,,,,,,,,,,,,,,,,
,,,,,,,,2023-08-06_08h23.14.246,HF_wild_card,2022.2.4,Win32,59.75500448,5ace82e135eccf0001a11c96,64ce5acb97489d65b14ecc7a,64cf49a01ef27e1f87418d38,,,,,,,decisionTrl,resources/DBN.BMP,resources/DY.BMP,Door3,-0.427324836,0.101458749,1,0,0,0.8579,optionLeft,70,13610,6,27,0,27,0,1,,,,,,,,,,,,,,,,,,,,,,,,,,,,,,,,,,,,,,,
,,,,,,,,2023-08-06_08h23.14.246,HF_wild_card,2022.2.4,Win32,59.75500448,5ace82e135eccf0001a11c96,64ce5acb97489d65b14ecc7a,64cf49a01ef27e1f87418d38,,,,,,,ctch,resources/DP.BMP,resources/DR.BMP,Door4,0.372362547,0.012893983,1,0,0,1.4275,optionRight,60,13670,6,28,0,28,0,1,,,,,,,,,,,,,,,,,,,,,,,,,,,,,,,,,,,,,,,
,,,,,,,,2023-08-06_08h23.14.246,HF_wild_card,2022.2.4,Win32,59.75500448,5ace82e135eccf0001a11c96,64ce5acb97489d65b14ecc7a,64cf49a01ef27e1f87418d38,,,,,,,decisionTrl,resources/DP.BMP,resources/DG.BMP,Door1,-0.370018246,0.081922384,1,0,0,1.4059,optionLeft,30,13700,6,29,0,29,0,1,,,,,,,,,,,,,,,,,,,,,,,,,,,,,,,,,,,,,,,
,,,,,,,,2023-08-06_08h23.14.246,HF_wild_card,2022.2.4,Win32,59.75500448,5ace82e135eccf0001a11c96,64ce5acb97489d65b14ecc7a,64cf49a01ef27e1f87418d38,,,,,,,decisionTrl,resources/DR.BMP,resources/DBN.BMP,Door4,-0.355691598,0.059781269,1,0,0,1.423,optionLeft,60,13760,6,30,0,30,0,1,,,,,,,,,,,,,,,,,,,,,,,,,,,,,,,,,,,,,,,
,,,,,,,,2023-08-06_08h23.14.246,HF_wild_card,2022.2.4,Win32,59.75500448,5ace82e135eccf0001a11c96,64ce5acb97489d65b14ecc7a,64cf49a01ef27e1f87418d38,,,,,,,decisionTrl,resources/DP.BMP,resources/DG.BMP,Door1,-0.424719999,0.081922384,1,0,0,1.1274,optionLeft,30,13790,6,31,0,31,0,1,,,,,,,,,,,,,,,,,,,,,,,,,,,,,,,,,,,,,,,
,,,,,,,,2023-08-06_08h23.14.246,HF_wild_card,2022.2.4,Win32,59.75500448,5ace82e135eccf0001a11c96,64ce5acb97489d65b14ecc7a,64cf49a01ef27e1f87418d38,,,,,,,decisionTrl,resources/DR.BMP,resources/DBN.BMP,Door4,-0.405183677,0.062386062,1,0,0,1.2188,optionLeft,60,13850,6,32,0,32,0,1,,,,,,,,,,,,,,,,,,,,,,,,,,,,,,,,,,,,,,,
,,,,,,,,2023-08-06_08h23.14.246,HF_wild_card,2022.2.4,Win32,59.75500448,5ace82e135eccf0001a11c96,64ce5acb97489d65b14ecc7a,64cf49a01ef27e1f87418d38,,,,,,,ctch,resources/DBN.BMP,resources/DG.BMP,Door3,-0.43253451,0.089736938,1,0,0,0.7524,optionLeft,70,13920,6,33,0,33,0,1,,,,,,,,,,,,,,,,,,,,,,,,,,,,,,,,,,,,,,,
,,,,,,,,2023-08-06_08h23.14.246,HF_wild_card,2022.2.4,Win32,59.75500448,5ace82e135eccf0001a11c96,64ce5acb97489d65b14ecc7a,64cf49a01ef27e1f87418d38,,,,,,,ctch,resources/DG.BMP,resources/DBN.BMP,Door3,0.339801865,0.071502992,1,0,0,0.8437,optionRight,70,13990,6,34,0,34,0,1,,,,,,,,,,,,,,,,,,,,,,,,,,,,,,,,,,,,,,,
,,,,,,,,2023-08-06_08h23.14.246,HF_wild_card,2022.2.4,Win32,59.75500448,5ace82e135eccf0001a11c96,64ce5acb97489d65b14ecc7a,64cf49a01ef27e1f87418d38,,,,,,,decisionTrl,resources/DR.BMP,resources/DBN.BMP,Door4,-0.41169577,0.085829639,1,0,0,2.1684,optionLeft,80,14070,6,35,0,35,0,1,,,,,,,,,,,,,,,,,,,,,,,,,,,,,,,,,,,,,,,
,,,,,,,,2023-08-06_08h23.14.246,HF_wild_card,2022.2.4,Win32,59.75500448,5ace82e135eccf0001a11c96,64ce5acb97489d65b14ecc7a,64cf49a01ef27e1f87418d38,,,,,,,decisionTrl,resources/DR.BMP,resources/DY.BMP,Door4,-0.307501981,0.059781269,1,0,0,0.7571,optionLeft,80,14150,6,36,0,36,0,1,,,,,,,,,,,,,,,,,,,,,,,,,,,,,,,,,,,,,,,
,,,,,,,,2023-08-06_08h23.14.246,HF_wild_card,2022.2.4,Win32,59.75500448,5ace82e135eccf0001a11c96,64ce5acb97489d65b14ecc7a,64cf49a01ef27e1f87418d38,,,,,,,sngl,resources/DP.BMP,resources/Empty.png,Door1,-0.276243893,0.028523049,1,0,0,0.6639,optionLeft,30,14180,6,37,0,37,0,1,,,,,,,,,,,,,,,,,,,,,,,,,,,,,,,,,,,,,,,
,,,,,,,,2023-08-06_08h23.14.246,HF_wild_card,2022.2.4,Win32,59.75500448,5ace82e135eccf0001a11c96,64ce5acb97489d65b14ecc7a,64cf49a01ef27e1f87418d38,,,,,,,sngl,resources/DG.BMP,resources/Empty.png,Door2,-0.27233655,0.037640022,1,0,0,0.6248,optionLeft,20,14200,6,38,0,38,0,1,,,,,,,,,,,,,,,,,,,,,,,,,,,,,,,,,,,,,,,
,,,,,,,,2023-08-06_08h23.14.246,HF_wild_card,2022.2.4,Win32,59.75500448,5ace82e135eccf0001a11c96,64ce5acb97489d65b14ecc7a,64cf49a01ef27e1f87418d38,,,,,,,decisionTrl,resources/DG.BMP,resources/DP.BMP,Door1,0.371060084,0.05196667,1,0,0,2.2262,optionRight,30,14230,6,39,0,39,0,1,,,,,,,,,,,,,,,,,,,,,,,,,,,,,,,,,,,,,,,
,,,,,,,,2023-08-06_08h23.14.246,HF_wild_card,2022.2.4,Win32,59.75500448,5ace82e135eccf0001a11c96,64ce5acb97489d65b14ecc7a,64cf49a01ef27e1f87418d38,,,,,,,decisionTrl,resources/DY.BMP,resources/DBN.BMP,Door3,0.347616551,0.068898155,1,0,0,0.9885,optionRight,70,14300,6,40,0,40,0,1,,,,,,,,,,,,,,,,,,,,,,,,,,,,,,,,,,,,,,,
,,,,,,,,2023-08-06_08h23.14.246,HF_wild_card,2022.2.4,Win32,59.75500448,5ace82e135eccf0001a11c96,64ce5acb97489d65b14ecc7a,64cf49a01ef27e1f87418d38,,,,,,,decisionTrl,resources/DG.BMP,resources/DP.BMP,Door1,0.281192987,0.094946613,1,0,0,1.5595,optionRight,30,14330,6,41,0,41,0,1,,,,,,,,,,,,,,,,,,,,,,,,,,,,,,,,,,,,,,,
,,,,,,,,2023-08-06_08h23.14.246,HF_wild_card,2022.2.4,Win32,59.75500448,5ace82e135eccf0001a11c96,64ce5acb97489d65b14ecc7a,64cf49a01ef27e1f87418d38,,,,,,,sngl,resources/DBN.BMP,resources/Empty.png,Door3,-0.324433466,0.087132101,1,0,0,0.6494,optionLeft,70,14400,6,42,0,42,0,1,,,,,,,,,,,,,,,,,,,,,,,,,,,,,,,,,,,,,,,
,,,,,,,,2023-08-06_08h23.14.246,HF_wild_card,2022.2.4,Win32,59.75500448,5ace82e135eccf0001a11c96,64ce5acb97489d65b14ecc7a,64cf49a01ef27e1f87418d38,,,,,,,ctch,resources/DR.BMP,resources/DP.BMP,Door4,-0.324433466,0.06368848,1,0,0,1.0876,optionLeft,60,14460,6,43,0,43,0,1,,,,,,,,,,,,,,,,,,,,,,,,,,,,,,,,,,,,,,,
,,,,,,,,2023-08-06_08h23.14.246,HF_wild_card,2022.2.4,Win32,59.75500448,5ace82e135eccf0001a11c96,64ce5acb97489d65b14ecc7a,64cf49a01ef27e1f87418d38,,,,,,,,,,,,,,,,,,,,,,,,,,5,0,5,0,1,,,,,,,,,,,,,,,,,,,,,,,,,,,,,,,,,,
,,,,,,,,2023-08-06_08h23.14.246,HF_wild_card,2022.2.4,Win32,59.75500448,5ace82e135eccf0001a11c96,64ce5acb97489d65b14ecc7a,64cf49a01ef27e1f87418d38,,,,,,,ctch,resources/DBN.BMP,resources/DG.BMP,Door3,-0.482026589,0.107970842,1,0,0,1.1026,optionLeft,70,14530,7,0,0,0,0,1,,,,,,,,,,,,,,,,,,,,,,,,,,,,,,,,,,,,,,,
,,,,,,,,2023-08-06_08h23.14.246,HF_wild_card,2022.2.4,Win32,59.75500448,5ace82e135eccf0001a11c96,64ce5acb97489d65b14ecc7a,64cf49a01ef27e1f87418d38,,,,,,,ctch,resources/DG.BMP,resources/DBN.BMP,Door3,0.423156913,0.098853868,1,0,0,0.8155,optionRight,70,14600,7,1,0,1,0,1,,,,,,,,,,,,,,,,,,,,,,,,,,,,,,,,,,,,,,,
,,,,,,,,2023-08-06_08h23.14.246,HF_wild_card,2022.2.4,Win32,59.75500448,5ace82e135eccf0001a11c96,64ce5acb97489d65b14ecc7a,64cf49a01ef27e1f87418d38,,,,,,,ctch,resources/DG.BMP,resources/DBN.BMP,Door3,0.407527978,0.111878097,1,0,0,0.7151,optionRight,70,14670,7,2,0,2,0,1,,,,,,,,,,,,,,,,,,,,,,,,,,,,,,,,,,,,,,,
,,,,,,,,2023-08-06_08h23.14.246,HF_wild_card,2022.2.4,Win32,59.75500448,5ace82e135eccf0001a11c96,64ce5acb97489d65b14ecc7a,64cf49a01ef27e1f87418d38,,,,,,,decisionTrl,resources/DG.BMP,resources/DP.BMP,Door1,0.343709252,0.033732767,1,0,0,1.3358,optionRight,30,14700,7,3,0,3,0,1,,,,,,,,,,,,,,,,,,,,,,,,,,,,,,,,,,,,,,,
,,,,,,,,2023-08-06_08h23.14.246,HF_wild_card,2022.2.4,Win32,59.75500448,5ace82e135eccf0001a11c96,64ce5acb97489d65b14ecc7a,64cf49a01ef27e1f87418d38,,,,,,,decisionTrl,resources/DR.BMP,resources/DBN.BMP,Door3,0.341104415,0.075410291,1,0,0,0.8662,optionRight,70,14770,7,4,0,4,0,1,,,,,,,,,,,,,,,,,,,,,,,,,,,,,,,,,,,,,,,
,,,,,,,,2023-08-06_08h23.14.246,HF_wild_card,2022.2.4,Win32,59.75500448,5ace82e135eccf0001a11c96,64ce5acb97489d65b14ecc7a,64cf49a01ef27e1f87418d38,,,,,,,decisionTrl,resources/DG.BMP,resources/DP.BMP,Door1,0.410132815,-0.054831956,1,0,0,1.3537,optionRight,30,14800,7,5,0,5,0,1,,,,,,,,,,,,,,,,,,,,,,,,,,,,,,,,,,,,,,,
,,,,,,,,2023-08-06_08h23.14.246,HF_wild_card,2022.2.4,Win32,59.75500448,5ace82e135eccf0001a11c96,64ce5acb97489d65b14ecc7a,64cf49a01ef27e1f87418d38,,,,,,,ctch,resources/DBN.BMP,resources/DG.BMP,Door3,-0.328340722,0.074107916,1,0,0,0.7166,optionLeft,70,14870,7,6,0,6,0,1,,,,,,,,,,,,,,,,,,,,,,,,,,,,,,,,,,,,,,,
,,,,,,,,2023-08-06_08h23.14.246,HF_wild_card,2022.2.4,Win32,59.75500448,5ace82e135eccf0001a11c96,64ce5acb97489d65b14ecc7a,64cf49a01ef27e1f87418d38,,,,,,,decisionTrl,resources/DP.BMP,resources/DG.BMP,Door1,-0.316618911,0.066293317,1,0,0,2.4051,optionLeft,30,14900,7,7,0,7,0,1,,,,,,,,,,,,,,,,,,,,,,,,,,,,,,,,,,,,,,,
,,,,,,,,2023-08-06_08h23.14.246,HF_wild_card,2022.2.4,Win32,59.75500448,5ace82e135eccf0001a11c96,64ce5acb97489d65b14ecc7a,64cf49a01ef27e1f87418d38,,,,,,,ctch,resources/DBN.BMP,resources/DG.BMP,Door3,-0.333550483,0.098853868,1,0,0,0.7496,optionLeft,70,14970,7,8,0,8,0,1,,,,,,,,,,,,,,,,,,,,,,,,,,,,,,,,,,,,,,,
,,,,,,,,2023-08-06_08h23.14.246,HF_wild_card,2022.2.4,Win32,59.75500448,5ace82e135eccf0001a11c96,64ce5acb97489d65b14ecc7a,64cf49a01ef27e1f87418d38,,,,,,,ctch,resources/DP.BMP,resources/DR.BMP,Door4,0.337197028,-0.00533992,1,0,0,1.1175,optionRight,80,15050,7,9,0,9,0,1,,,,,,,,,,,,,,,,,,,,,,,,,,,,,,,,,,,,,,,
,,,,,,,,2023-08-06_08h23.14.246,HF_wild_card,2022.2.4,Win32,59.75500448,5ace82e135eccf0001a11c96,64ce5acb97489d65b14ecc7a,64cf49a01ef27e1f87418d38,,,,,,,decisionTrl,resources/DR.BMP,resources/DBN.BMP,Door3,0.363245573,0.05196667,1,0,0,1.1169,optionRight,70,15120,7,10,0,10,0,1,,,,,,,,,,,,,,,,,,,,,,,,,,,,,,,,,,,,,,,
,,,,,,,,2023-08-06_08h23.14.246,HF_wild_card,2022.2.4,Win32,59.75500448,5ace82e135eccf0001a11c96,64ce5acb97489d65b14ecc7a,64cf49a01ef27e1f87418d38,,,,,,,decisionTrl,resources/DBN.BMP,resources/DR.BMP,Door3,-0.39085703,0.106668423,1,0,0,1.0849,optionLeft,70,15190,7,11,0,11,0,1,,,,,,,,,,,,,,,,,,,,,,,,,,,,,,,,,,,,,,,
,,,,,,,,2023-08-06_08h23.14.246,HF_wild_card,2022.2.4,Win32,59.75500448,5ace82e135eccf0001a11c96,64ce5acb97489d65b14ecc7a,64cf49a01ef27e1f87418d38,,,,,,,decisionTrl,resources/DG.BMP,resources/DP.BMP,Door1,0.329382604,-0.033993215,1,0,0,1.1672,optionRight,30,15220,7,12,0,12,0,1,,,,,,,,,,,,,,,,,,,,,,,,,,,,,,,,,,,,,,,
,,,,,,,,2023-08-06_08h23.14.246,HF_wild_card,2022.2.4,Win32,59.75500448,5ace82e135eccf0001a11c96,64ce5acb97489d65b14ecc7a,64cf49a01ef27e1f87418d38,,,,,,,decisionTrl,resources/DBN.BMP,resources/DR.BMP,Door3,-0.346574669,0.091039357,1,0,0,0.6822,optionLeft,70,15290,7,13,0,13,0,1,,,,,,,,,,,,,,,,,,,,,,,,,,,,,,,,,,,,,,,
,,,,,,,,2023-08-06_08h23.14.246,HF_wild_card,2022.2.4,Win32,59.75500448,5ace82e135eccf0001a11c96,64ce5acb97489d65b14ecc7a,64cf49a01ef27e1f87418d38,,,,,,,decisionTrl,resources/DR.BMP,resources/DBN.BMP,Door3,0.331987441,0.02722063,1,0,0,0.8311,optionRight,70,15360,7,14,0,14,0,1,,,,,,,,,,,,,,,,,,,,,,,,,,,,,,,,,,,,,,,
,,,,,,,,2023-08-06_08h23.14.246,HF_wild_card,2022.2.4,Win32,59.75500448,5ace82e135eccf0001a11c96,64ce5acb97489d65b14ecc7a,64cf49a01ef27e1f87418d38,,,,,,,decisionTrl,resources/DP.BMP,resources/DG.BMP,Door1,-0.356994017,0.070200573,1,0,0,1.2177,optionLeft,30,15390,7,15,0,15,0,1,,,,,,,,,,,,,,,,,,,,,,,,,,,,,,,,,,,,,,,
,,,,,,,,2023-08-06_08h23.14.246,HF_wild_card,2022.2.4,Win32,59.75500448,5ace82e135eccf0001a11c96,64ce5acb97489d65b14ecc7a,64cf49a01ef27e1f87418d38,,,,,,,decisionTrl,resources/DBN.BMP,resources/DR.BMP,Door3,-0.439046647,0.107970842,1,0,0,0.9154,optionLeft,70,15460,7,16,0,16,0,1,,,,,,,,,,,,,,,,,,,,,,,,,,,,,,,,,,,,,,,
,,,,,,,,2023-08-06_08h23.14.246,HF_wild_card,2022.2.4,Win32,59.75500448,5ace82e135eccf0001a11c96,64ce5acb97489d65b14ecc7a,64cf49a01ef27e1f87418d38,,,,,,,decisionTrl,resources/DP.BMP,resources/DG.BMP,Door1,-0.35438918,0.037640022,1,0,0,1.3025,optionLeft,30,15490,7,17,0,17,0,1,,,,,,,,,,,,,,,,,,,,,,,,,,,,,,,,,,,,,,,
,,,,,,,,2023-08-06_08h23.14.246,HF_wild_card,2022.2.4,Win32,59.75500448,5ace82e135eccf0001a11c96,64ce5acb97489d65b14ecc7a,64cf49a01ef27e1f87418d38,,,,,,,ctch,resources/DP.BMP,resources/DR.BMP,Door1,-0.356994017,0.054571507,1,0,0,1.0346,optionLeft,30,15520,7,18,0,18,0,1,,,,,,,,,,,,,,,,,,,,,,,,,,,,,,,,,,,,,,,
,,,,,,,,2023-08-06_08h23.14.246,HF_wild_card,2022.2.4,Win32,59.75500448,5ace82e135eccf0001a11c96,64ce5acb97489d65b14ecc7a,64cf49a01ef27e1f87418d38,,,,,,,ctch,resources/DR.BMP,resources/DP.BMP,Door4,-0.428627255,0.054571507,1,0,0,1.1176,optionLeft,80,15600,7,19,0,19,0,1,,,,,,,,,,,,,,,,,,,,,,,,,,,,,,,,,,,,,,,
,,,,,,,,2023-08-06_08h23.14.246,HF_wild_card,2022.2.4,Win32,59.75500448,5ace82e135eccf0001a11c96,64ce5acb97489d65b14ecc7a,64cf49a01ef27e1f87418d38,,,,,,,decisionTrl,resources/DP.BMP,resources/DG.BMP,Door1,-0.336155277,0.031127973,1,0,0,1.2184,optionLeft,30,15630,7,20,0,20,0,1,,,,,,,,,,,,,,,,,,,,,,,,,,,,,,,,,,,,,,,
,,,,,,,,2023-08-06_08h23.14.246,HF_wild_card,2022.2.4,Win32,59.75500448,5ace82e135eccf0001a11c96,64ce5acb97489d65b14ecc7a,64cf49a01ef27e1f87418d38,,,,,,,decisionTrl,resources/DG.BMP,resources/DP.BMP,Door1,0.358035899,0.028523049,1,0,0,1.1664,optionRight,30,15660,7,21,0,21,0,1,,,,,,,,,,,,,,,,,,,,,,,,,,,,,,,,,,,,,,,
,,,,,,,,2023-08-06_08h23.14.246,HF_wild_card,2022.2.4,Win32,59.75500448,5ace82e135eccf0001a11c96,64ce5acb97489d65b14ecc7a,64cf49a01ef27e1f87418d38,,,,,,,ctch,resources/DR.BMP,resources/DP.BMP,Door4,-0.392159492,0.049361833,1,0,0,0.6815,optionLeft,60,15720,7,22,0,22,0,1,,,,,,,,,,,,,,,,,,,,,,,,,,,,,,,,,,,,,,,
,,,,,,,,2023-08-06_08h23.14.246,HF_wild_card,2022.2.4,Win32,59.75500448,5ace82e135eccf0001a11c96,64ce5acb97489d65b14ecc7a,64cf49a01ef27e1f87418d38,,,,,,,decisionTrl,resources/DP.BMP,resources/DG.BMP,Door1,-0.396066704,0.054571507,1,0,0,1.0978,optionLeft,30,15750,7,23,0,23,0,1,,,,,,,,,,,,,,,,,,,,,,,,,,,,,,,,,,,,,,,
,,,,,,,,2023-08-06_08h23.14.246,HF_wild_card,2022.2.4,Win32,59.75500448,5ace82e135eccf0001a11c96,64ce5acb97489d65b14ecc7a,64cf49a01ef27e1f87418d38,,,,,,,ctch,resources/DG.BMP,resources/DBN.BMP,Door3,0.331987441,0.040244859,1,0,0,0.8663,optionRight,70,15820,7,24,0,24,0,1,,,,,,,,,,,,,,,,,,,,,,,,,,,,,,,,,,,,,,,
,,,,,,,,2023-08-06_08h23.14.246,HF_wild_card,2022.2.4,Win32,59.75500448,5ace82e135eccf0001a11c96,64ce5acb97489d65b14ecc7a,64cf49a01ef27e1f87418d38,,,,,,,decisionTrl,resources/DR.BMP,resources/DBN.BMP,Door3,0.337197028,0.054571507,1,0,0,0.8329,optionRight,70,15890,7,25,0,25,0,1,,,,,,,,,,,,,,,,,,,,,,,,,,,,,,,,,,,,,,,
,,,,,,,,2023-08-06_08h23.14.246,HF_wild_card,2022.2.4,Win32,59.75500448,5ace82e135eccf0001a11c96,64ce5acb97489d65b14ecc7a,64cf49a01ef27e1f87418d38,,,,,,,decisionTrl,resources/DR.BMP,resources/DBN.BMP,Door3,0.395806168,0.062386062,1,0,0,0.6185,optionRight,70,15960,7,26,0,26,0,1,,,,,,,,,,,,,,,,,,,,,,,,,,,,,,,,,,,,,,,
,,,,,,,,2023-08-06_08h23.14.246,HF_wild_card,2022.2.4,Win32,59.75500448,5ace82e135eccf0001a11c96,64ce5acb97489d65b14ecc7a,64cf49a01ef27e1f87418d38,,,,,,,ctch,resources/DR.BMP,resources/DP.BMP,Door4,-0.333550483,0.075410291,1,0,0,1.2175,optionLeft,80,16040,7,27,0,27,0,1,,,,,,,,,,,,,,,,,,,,,,,,,,,,,,,,,,,,,,,
,,,,,,,,2023-08-06_08h23.14.246,HF_wild_card,2022.2.4,Win32,59.75500448,5ace82e135eccf0001a11c96,64ce5acb97489d65b14ecc7a,64cf49a01ef27e1f87418d38,,,,,,,decisionTrl,resources/DG.BMP,resources/DP.BMP,Door1,0.333289903,0.008986727,1,0,0,1.2008,optionRight,30,16070,7,28,0,28,0,1,,,,,,,,,,,,,,,,,,,,,,,,,,,,,,,,,,,,,,,
,,,,,,,,2023-08-06_08h23.14.246,HF_wild_card,2022.2.4,Win32,59.75500448,5ace82e135eccf0001a11c96,64ce5acb97489d65b14ecc7a,64cf49a01ef27e1f87418d38,,,,,,,decisionTrl,resources/DBN.BMP,resources/DR.BMP,Door3,-0.332248021,0.093644194,1,0,0,1.0346,optionLeft,70,16140,7,29,0,29,0,1,,,,,,,,,,,,,,,,,,,,,,,,,,,,,,,,,,,,,,,
,,,,,,,,2023-08-06_08h23.14.246,HF_wild_card,2022.2.4,Win32,59.75500448,5ace82e135eccf0001a11c96,64ce5acb97489d65b14ecc7a,64cf49a01ef27e1f87418d38,,,,,,,decisionTrl,resources/DBN.BMP,resources/DR.BMP,Door4,0.259051828,0.010289146,1,0,0,1.0852,optionRight,60,16200,7,30,0,30,0,1,,,,,,,,,,,,,,,,,,,,,,,,,,,,,,,,,,,,,,,
,,,,,,,,2023-08-06_08h23.14.246,HF_wild_card,2022.2.4,Win32,59.75500448,5ace82e135eccf0001a11c96,64ce5acb97489d65b14ecc7a,64cf49a01ef27e1f87418d38,,,,,,,decisionTrl,resources/DR.BMP,resources/DBN.BMP,Door4,-0.325735885,0.06368848,1,0,0,1.4569,optionLeft,80,16280,7,31,0,31,0,1,,,,,,,,,,,,,,,,,,,,,,,,,,,,,,,,,,,,,,,
,,,,,,,,2023-08-06_08h23.14.246,HF_wild_card,2022.2.4,Win32,59.75500448,5ace82e135eccf0001a11c96,64ce5acb97489d65b14ecc7a,64cf49a01ef27e1f87418d38,,,,,,,decisionTrl,resources/DP.BMP,resources/DG.BMP,Door1,-0.41169577,0.076712709,1,0,0,1.1817,optionLeft,30,16310,7,32,0,32,0,1,,,,,,,,,,,,,,,,,,,,,,,,,,,,,,,,,,,,,,,
,,,,,,,,2023-08-06_08h23.14.246,HF_wild_card,2022.2.4,Win32,59.75500448,5ace82e135eccf0001a11c96,64ce5acb97489d65b14ecc7a,64cf49a01ef27e1f87418d38,,,,,,,decisionTrl,resources/DG.BMP,resources/DP.BMP,Door1,0.281192987,0.002474678,1,0,0,1.1833,optionRight,30,16340,7,33,0,33,0,1,,,,,,,,,,,,,,,,,,,,,,,,,,,,,,,,,,,,,,,
,,,,,,,,2023-08-06_08h23.14.246,HF_wild_card,2022.2.4,Win32,59.75500448,5ace82e135eccf0001a11c96,64ce5acb97489d65b14ecc7a,64cf49a01ef27e1f87418d38,,,,,,,ctch,resources/DP.BMP,resources/DR.BMP,Door4,0.315055956,0.018103701,1,0,0,1.0662,optionRight,80,16420,7,34,0,34,0,1,,,,,,,,,,,,,,,,,,,,,,,,,,,,,,,,,,,,,,,
,,,,,,,,2023-08-06_08h23.14.246,HF_wild_card,2022.2.4,Win32,59.75500448,5ace82e135eccf0001a11c96,64ce5acb97489d65b14ecc7a,64cf49a01ef27e1f87418d38,,,,,,,decisionTrl,resources/DBN.BMP,resources/DR.BMP,Door3,-0.302292264,0.113180516,1,0,0,1.5392,optionLeft,70,16490,7,35,0,35,0,1,,,,,,,,,,,,,,,,,,,,,,,,,,,,,,,,,,,,,,,
,,,,,,,,2023-08-06_08h23.14.246,HF_wild_card,2022.2.4,Win32,59.75500448,5ace82e135eccf0001a11c96,64ce5acb97489d65b14ecc7a,64cf49a01ef27e1f87418d38,,,,,,,,,,,,,,,,,,,,,,,,,,6,0,6,0,1,,,,,,,,,,,,,,,,,,,,,,,,,,,,,,,,,,
,,,,,,,,2023-08-06_08h23.14.246,HF_wild_card,2022.2.4,Win32,59.75500448,5ace82e135eccf0001a11c96,64ce5acb97489d65b14ecc7a,64cf49a01ef27e1f87418d38,,,,,,,,,,,,,,,,,,,,,,,,,,,,,,,4,,,,,,,,,,,,,,,,,,,,,,,,,,,,,,,,,
,,,,,,,,2023-08-06_08h23.14.246,HF_wild_card,2022.2.4,Win32,59.75500448,5ace82e135eccf0001a11c96,64ce5acb97489d65b14ecc7a,64cf49a01ef27e1f87418d38,,,,,,,,,,,,,,,,,,,,,,,,,,,,,,,,,,,,,,,,,,,,,,,,,,,,,,,,,,,,,,,,
,,,,,,,,2023-08-06_08h23.14.246,HF_wild_card,2022.2.4,Win32,59.75500448,5ace82e135eccf0001a11c96,64ce5acb97489d65b14ecc7a,64cf49a01ef27e1f87418d38,,,,,,,,,,,,,,,,,,,,,,,,,,,,,,,,55,WC_extreme,resources/DY.BMP,0,0,0,0,1,,,,,,,,,,,,,,,,,,,,,,,,,
,,,,,,,,2023-08-06_08h23.14.246,HF_wild_card,2022.2.4,Win32,59.75500448,5ace82e135eccf0001a11c96,64ce5acb97489d65b14ecc7a,64cf49a01ef27e1f87418d38,,,,,,,,,,,,,,,,,,,,,,,,,,,,,,,,60,Door4,resources/DR.BMP,1,0,1,0,1,,,,,,,,,,,,,,,,,,,,,,,,,
,,,,,,,,2023-08-06_08h23.14.246,HF_wild_card,2022.2.4,Win32,59.75500448,5ace82e135eccf0001a11c96,64ce5acb97489d65b14ecc7a,64cf49a01ef27e1f87418d38,,,,,,,,,,,,,,,,,,,,,,,,,,,,,,,,20,Door2,resources/DG.BMP,2,0,2,0,1,,,,,,,,,,,,,,,,,,,,,,,,,
,,,,,,,,2023-08-06_08h23.14.246,HF_wild_card,2022.2.4,Win32,59.75500448,5ace82e135eccf0001a11c96,64ce5acb97489d65b14ecc7a,64cf49a01ef27e1f87418d38,,,,,,,,,,,,,,,,,,,,,,,,,,,,,,,,70,Door3,resources/DBN.BMP,3,0,3,0,1,,,,,,,,,,,,,,,,,,,,,,,,,
,,,,,,,,2023-08-06_08h23.14.246,HF_wild_card,2022.2.4,Win32,59.75500448,5ace82e135eccf0001a11c96,64ce5acb97489d65b14ecc7a,64cf49a01ef27e1f87418d38,,,,,,,,,,,,,,,,,,,,,,,,,,,,,,,,40,WC_nonExtreme,resources/DB.BMP,4,0,4,0,1,,,,,,,,,,,,,,,,,,,,,,,,,
,,,,,,,,2023-08-06_08h23.14.246,HF_wild_card,2022.2.4,Win32,59.75500448,5ace82e135eccf0001a11c96,64ce5acb97489d65b14ecc7a,64cf49a01ef27e1f87418d38,,,,,,,,,,,,,,,,,,,,,,,,,,,,,,,,30,Door1,resources/DP.BMP,5,0,5,0,1,,,,,,,,,,,,,,,,,,,,,,,,,
,,,,,,,,2023-08-06_08h23.14.246,HF_wild_card,2022.2.4,Win32,59.75500448,5ace82e135eccf0001a11c96,64ce5acb97489d65b14ecc7a,64cf49a01ef27e1f87418d38,,,,,,,,,,,,,,,,,,,,,,,,,,,,,,,,,,,,,,,,,,,,,,,,,,,,,,,,,,,,,,,,
