Condition,Low fixed image (Door1),Low risky image (Door2),High fixed image (Door3),High risky image (Door4),Extreme Wild Card,NonExtreme Wild Card,,date,expName,psychopyVersion,OS,frameRate,PROLIFIC_PID,STUDY_ID,SESSION_ID,mouse_2.x,mouse_2.y,mouse_2.leftButton,mouse_2.midButton,mouse_2.rightButton,mouse_2.clicked_name,Trial Type,Left Option Image,Right Option Image,Chosen Door,mouse.x,mouse.y,mouse.leftButton,mouse.midButton,mouse.rightButton,mouse.time,mouse.clicked_name,Feedback,Cumulative Reward,Block,trial.thisRepN,trial.thisTrialN,trial.thisN,trial.thisIndex,trial.ran,blocks.thisRepN,blocks.thisTrialN,blocks.thisN,blocks.thisIndex,blocks.ran,Money conversion,First Outcome Reported,Shown Door (First Outcome),Displayed Image (First Outcome),outcomes.thisRepN,outcomes.thisTrialN,outcomes.thisN,outcomes.thisIndex,outcomes.ran,judgments.thisRepN,judgments.thisTrialN,judgments.thisN,judgments.thisIndex,judgments.ran,freqMouse.x,freqMouse.y,freqMouse.leftButton,freqMouse.midButton,freqMouse.rightButton,freqMouse.clicked_name,FQJ for first outcome,FQJ for second outcome,Shown Door,Displayed Image,trials.thisRepN,trials.thisTrialN,trials.thisN,trials.thisIndex,trials.ran,judgBlock.thisRepN,judgBlock.thisTrialN,judgBlock.thisN,judgBlock.thisIndex,judgBlock.ran
0,resources/DP.BMP,resources/DB.BMP,resources/DG.BMP,resources/DR.BMP,resources/DY.BMP,resources/DBN.BMP,,2023-08-16_08h35.02.375,HF_wild_card,2022.2.4,Win32,59.18210333,5e56a4d1df03b70525535774,64d2fd46c836a06233681665,64dc7c10d51aec2c7bc546f9,,,,,,,,,,,,,,,,,,,,,,,,,,,,,,,,,,,,,,,,,,,,,,,,,,,,,,,,,,,,,,,,
,,,,,,,,2023-08-16_08h35.02.375,HF_wild_card,2022.2.4,Win32,59.18210333,5e56a4d1df03b70525535774,64d2fd46c836a06233681665,64dc7c10d51aec2c7bc546f9,0.010416667,-0.415364583,1,0,0,agree,,,,,,,,,,,,,,,,,,,,,,,,,,,,,,,,,,,,,,,,,,,,,,,,,,,,,,,,,,
,,,,,,,,2023-08-16_08h35.02.375,HF_wild_card,2022.2.4,Win32,59.18210333,5e56a4d1df03b70525535774,64d2fd46c836a06233681665,64dc7c10d51aec2c7bc546f9,,,,,,,,,,,,,,,,,,,,,,,,,,,,,,,,,,,,,,,,,,,,,,,,,,,,,,,,,,,,,,,,
,,,,,,,,2023-08-16_08h35.02.375,HF_wild_card,2022.2.4,Win32,59.18210333,5e56a4d1df03b70525535774,64d2fd46c836a06233681665,64dc7c10d51aec2c7bc546f9,,,,,,,sngl,resources/Empty.png,resources/DY.BMP,WildCard_Ex,0.33203125,-0.166666667,1,0,0,1.8586,optionRight,5,5,1,0,0,0,0,1,,,,,,,,,,,,,,,,,,,,,,,,,,,,,,,,,,,,,,,
,,,,,,,,2023-08-16_08h35.02.375,HF_wild_card,2022.2.4,Win32,59.18210333,5e56a4d1df03b70525535774,64d2fd46c836a06233681665,64dc7c10d51aec2c7bc546f9,,,,,,,sngl,resources/DR.BMP,resources/Empty.png,Door4,-0.23046875,-0.078125,1,0,0,1.1602,optionLeft,80,85,1,1,0,1,0,1,,,,,,,,,,,,,,,,,,,,,,,,,,,,,,,,,,,,,,,
,,,,,,,,2023-08-16_08h35.02.375,HF_wild_card,2022.2.4,Win32,59.18210333,5e56a4d1df03b70525535774,64d2fd46c836a06233681665,64dc7c10d51aec2c7bc546f9,,,,,,,decisionTrl,resources/DG.BMP,resources/DR.BMP,Door3,-0.173177083,-0.0546875,1,0,0,1.6435,optionLeft,70,155,1,2,0,2,0,1,,,,,,,,,,,,,,,,,,,,,,,,,,,,,,,,,,,,,,,
,,,,,,,,2023-08-16_08h35.02.375,HF_wild_card,2022.2.4,Win32,59.18210333,5e56a4d1df03b70525535774,64d2fd46c836a06233681665,64dc7c10d51aec2c7bc546f9,,,,,,,ctch,resources/DG.BMP,resources/DB.BMP,Door2,0.114583333,0.01953125,1,0,0,1.3737,optionRight,40,195,1,3,0,3,0,1,,,,,,,,,,,,,,,,,,,,,,,,,,,,,,,,,,,,,,,
,,,,,,,,2023-08-16_08h35.02.375,HF_wild_card,2022.2.4,Win32,59.18210333,5e56a4d1df03b70525535774,64d2fd46c836a06233681665,64dc7c10d51aec2c7bc546f9,,,,,,,decisionTrl,resources/DB.BMP,resources/DP.BMP,Door2,-0.216145833,-0.044270833,1,0,0,1.1157,optionLeft,40,235,1,4,0,4,0,1,,,,,,,,,,,,,,,,,,,,,,,,,,,,,,,,,,,,,,,
,,,,,,,,2023-08-16_08h35.02.375,HF_wild_card,2022.2.4,Win32,59.18210333,5e56a4d1df03b70525535774,64d2fd46c836a06233681665,64dc7c10d51aec2c7bc546f9,,,,,,,decisionTrl,resources/DB.BMP,resources/DY.BMP,WildCard_Ex,0.182291667,0.006510417,1,0,0,1.0461,optionRight,95,330,1,5,0,5,0,1,,,,,,,,,,,,,,,,,,,,,,,,,,,,,,,,,,,,,,,
,,,,,,,,2023-08-16_08h35.02.375,HF_wild_card,2022.2.4,Win32,59.18210333,5e56a4d1df03b70525535774,64d2fd46c836a06233681665,64dc7c10d51aec2c7bc546f9,,,,,,,ctch,resources/DP.BMP,resources/DR.BMP,Door4,0.140625,0.005208333,1,0,0,1.0313,optionRight,60,390,1,6,0,6,0,1,,,,,,,,,,,,,,,,,,,,,,,,,,,,,,,,,,,,,,,
,,,,,,,,2023-08-16_08h35.02.375,HF_wild_card,2022.2.4,Win32,59.18210333,5e56a4d1df03b70525535774,64d2fd46c836a06233681665,64dc7c10d51aec2c7bc546f9,,,,,,,ctch,resources/DR.BMP,resources/DP.BMP,Door4,-0.147135417,-0.05859375,1,0,0,1.5373,optionLeft,60,450,1,7,0,7,0,1,,,,,,,,,,,,,,,,,,,,,,,,,,,,,,,,,,,,,,,
,,,,,,,,2023-08-16_08h35.02.375,HF_wild_card,2022.2.4,Win32,59.18210333,5e56a4d1df03b70525535774,64d2fd46c836a06233681665,64dc7c10d51aec2c7bc546f9,,,,,,,decisionTrl,resources/DB.BMP,resources/DP.BMP,Door1,0.135416667,0.013020833,1,0,0,1.0096,optionRight,30,480,1,8,0,8,0,1,,,,,,,,,,,,,,,,,,,,,,,,,,,,,,,,,,,,,,,
,,,,,,,,2023-08-16_08h35.02.375,HF_wild_card,2022.2.4,Win32,59.18210333,5e56a4d1df03b70525535774,64d2fd46c836a06233681665,64dc7c10d51aec2c7bc546f9,,,,,,,decisionTrl,resources/DY.BMP,resources/DP.BMP,Door1,0.182291667,0.03515625,1,0,0,1.2103,optionRight,30,510,1,9,0,9,0,1,,,,,,,,,,,,,,,,,,,,,,,,,,,,,,,,,,,,,,,
,,,,,,,,2023-08-16_08h35.02.375,HF_wild_card,2022.2.4,Win32,59.18210333,5e56a4d1df03b70525535774,64d2fd46c836a06233681665,64dc7c10d51aec2c7bc546f9,,,,,,,decisionTrl,resources/DP.BMP,resources/DB.BMP,Door2,0.24609375,0.01953125,1,0,0,1.8017,optionRight,20,530,1,10,0,10,0,1,,,,,,,,,,,,,,,,,,,,,,,,,,,,,,,,,,,,,,,
,,,,,,,,2023-08-16_08h35.02.375,HF_wild_card,2022.2.4,Win32,59.18210333,5e56a4d1df03b70525535774,64d2fd46c836a06233681665,64dc7c10d51aec2c7bc546f9,,,,,,,decisionTrl,resources/DP.BMP,resources/DB.BMP,Door1,-0.161458333,-0.00390625,1,0,0,1.2605,optionLeft,30,560,1,11,0,11,0,1,,,,,,,,,,,,,,,,,,,,,,,,,,,,,,,,,,,,,,,
,,,,,,,,2023-08-16_08h35.02.375,HF_wild_card,2022.2.4,Win32,59.18210333,5e56a4d1df03b70525535774,64d2fd46c836a06233681665,64dc7c10d51aec2c7bc546f9,,,,,,,ctch,resources/DP.BMP,resources/DR.BMP,Door1,-0.177083333,-0.001302083,1,0,0,0.9943,optionLeft,30,590,1,12,0,12,0,1,,,,,,,,,,,,,,,,,,,,,,,,,,,,,,,,,,,,,,,
,,,,,,,,2023-08-16_08h35.02.375,HF_wild_card,2022.2.4,Win32,59.18210333,5e56a4d1df03b70525535774,64d2fd46c836a06233681665,64dc7c10d51aec2c7bc546f9,,,,,,,ctch,resources/DB.BMP,resources/DG.BMP,Door3,0.141927083,0.014322917,1,0,0,0.7176,optionRight,70,660,1,13,0,13,0,1,,,,,,,,,,,,,,,,,,,,,,,,,,,,,,,,,,,,,,,
,,,,,,,,2023-08-16_08h35.02.375,HF_wild_card,2022.2.4,Win32,59.18210333,5e56a4d1df03b70525535774,64d2fd46c836a06233681665,64dc7c10d51aec2c7bc546f9,,,,,,,sngl,resources/DY.BMP,resources/Empty.png,WildCard_Ex,-0.119791667,-0.03515625,1,0,0,0.8078,optionLeft,5,665,1,14,0,14,0,1,,,,,,,,,,,,,,,,,,,,,,,,,,,,,,,,,,,,,,,
,,,,,,,,2023-08-16_08h35.02.375,HF_wild_card,2022.2.4,Win32,59.18210333,5e56a4d1df03b70525535774,64d2fd46c836a06233681665,64dc7c10d51aec2c7bc546f9,,,,,,,sngl,resources/Empty.png,resources/DP.BMP,Door1,0.106770833,0.022135417,1,0,0,0.9767,optionRight,30,695,1,15,0,15,0,1,,,,,,,,,,,,,,,,,,,,,,,,,,,,,,,,,,,,,,,
,,,,,,,,2023-08-16_08h35.02.375,HF_wild_card,2022.2.4,Win32,59.18210333,5e56a4d1df03b70525535774,64d2fd46c836a06233681665,64dc7c10d51aec2c7bc546f9,,,,,,,decisionTrl,resources/DY.BMP,resources/DG.BMP,Door3,0.114583333,0.022135417,1,0,0,1.1258,optionRight,70,765,1,16,0,16,0,1,,,,,,,,,,,,,,,,,,,,,,,,,,,,,,,,,,,,,,,
,,,,,,,,2023-08-16_08h35.02.375,HF_wild_card,2022.2.4,Win32,59.18210333,5e56a4d1df03b70525535774,64d2fd46c836a06233681665,64dc7c10d51aec2c7bc546f9,,,,,,,decisionTrl,resources/DR.BMP,resources/DG.BMP,Door3,0.171875,0.057291667,1,0,0,0.9505,optionRight,70,835,1,17,0,17,0,1,,,,,,,,,,,,,,,,,,,,,,,,,,,,,,,,,,,,,,,
,,,,,,,,2023-08-16_08h35.02.375,HF_wild_card,2022.2.4,Win32,59.18210333,5e56a4d1df03b70525535774,64d2fd46c836a06233681665,64dc7c10d51aec2c7bc546f9,,,,,,,decisionTrl,resources/DR.BMP,resources/DG.BMP,Door3,0.186197917,0.049479167,1,0,0,1.1074,optionRight,70,905,1,18,0,18,0,1,,,,,,,,,,,,,,,,,,,,,,,,,,,,,,,,,,,,,,,
,,,,,,,,2023-08-16_08h35.02.375,HF_wild_card,2022.2.4,Win32,59.18210333,5e56a4d1df03b70525535774,64d2fd46c836a06233681665,64dc7c10d51aec2c7bc546f9,,,,,,,sngl,resources/DG.BMP,resources/Empty.png,Door3,-0.139322917,-0.057291667,1,0,0,1.209,optionLeft,70,975,1,19,0,19,0,1,,,,,,,,,,,,,,,,,,,,,,,,,,,,,,,,,,,,,,,
,,,,,,,,2023-08-16_08h35.02.375,HF_wild_card,2022.2.4,Win32,59.18210333,5e56a4d1df03b70525535774,64d2fd46c836a06233681665,64dc7c10d51aec2c7bc546f9,,,,,,,ctch,resources/DB.BMP,resources/DG.BMP,Door3,0.108072917,0.024739583,1,0,0,1.1358,optionRight,70,1045,1,20,0,20,0,1,,,,,,,,,,,,,,,,,,,,,,,,,,,,,,,,,,,,,,,
,,,,,,,,2023-08-16_08h35.02.375,HF_wild_card,2022.2.4,Win32,59.18210333,5e56a4d1df03b70525535774,64d2fd46c836a06233681665,64dc7c10d51aec2c7bc546f9,,,,,,,ctch,resources/DR.BMP,resources/DP.BMP,Door1,0.182291667,0.05078125,1,0,0,1.1087,optionRight,30,1075,1,21,0,21,0,1,,,,,,,,,,,,,,,,,,,,,,,,,,,,,,,,,,,,,,,
,,,,,,,,2023-08-16_08h35.02.375,HF_wild_card,2022.2.4,Win32,59.18210333,5e56a4d1df03b70525535774,64d2fd46c836a06233681665,64dc7c10d51aec2c7bc546f9,,,,,,,sngl,resources/Empty.png,resources/DY.BMP,WildCard_Ex,0.15234375,0.033854167,1,0,0,0.8379,optionRight,95,1170,1,22,0,22,0,1,,,,,,,,,,,,,,,,,,,,,,,,,,,,,,,,,,,,,,,
,,,,,,,,2023-08-16_08h35.02.375,HF_wild_card,2022.2.4,Win32,59.18210333,5e56a4d1df03b70525535774,64d2fd46c836a06233681665,64dc7c10d51aec2c7bc546f9,,,,,,,decisionTrl,resources/DG.BMP,resources/DR.BMP,Door4,0.127604167,0.03515625,1,0,0,0.7706,optionRight,80,1250,1,23,0,23,0,1,,,,,,,,,,,,,,,,,,,,,,,,,,,,,,,,,,,,,,,
,,,,,,,,2023-08-16_08h35.02.375,HF_wild_card,2022.2.4,Win32,59.18210333,5e56a4d1df03b70525535774,64d2fd46c836a06233681665,64dc7c10d51aec2c7bc546f9,,,,,,,sngl,resources/Empty.png,resources/DG.BMP,Door3,0.162760417,0.036458333,1,0,0,0.7613,optionRight,70,1320,1,24,0,24,0,1,,,,,,,,,,,,,,,,,,,,,,,,,,,,,,,,,,,,,,,
,,,,,,,,2023-08-16_08h35.02.375,HF_wild_card,2022.2.4,Win32,59.18210333,5e56a4d1df03b70525535774,64d2fd46c836a06233681665,64dc7c10d51aec2c7bc546f9,,,,,,,ctch,resources/DG.BMP,resources/DB.BMP,Door2,0.182291667,0.028645833,1,0,0,1.26,optionRight,20,1340,1,25,0,25,0,1,,,,,,,,,,,,,,,,,,,,,,,,,,,,,,,,,,,,,,,
,,,,,,,,2023-08-16_08h35.02.375,HF_wild_card,2022.2.4,Win32,59.18210333,5e56a4d1df03b70525535774,64d2fd46c836a06233681665,64dc7c10d51aec2c7bc546f9,,,,,,,decisionTrl,resources/DP.BMP,resources/DY.BMP,Door1,-0.111979167,-0.04296875,1,0,0,0.8305,optionLeft,30,1370,1,26,0,26,0,1,,,,,,,,,,,,,,,,,,,,,,,,,,,,,,,,,,,,,,,
,,,,,,,,2023-08-16_08h35.02.375,HF_wild_card,2022.2.4,Win32,59.18210333,5e56a4d1df03b70525535774,64d2fd46c836a06233681665,64dc7c10d51aec2c7bc546f9,,,,,,,decisionTrl,resources/DP.BMP,resources/DB.BMP,Door1,-0.157552083,-0.065104167,1,0,0,0.8099,optionLeft,30,1400,1,27,0,27,0,1,,,,,,,,,,,,,,,,,,,,,,,,,,,,,,,,,,,,,,,
,,,,,,,,2023-08-16_08h35.02.375,HF_wild_card,2022.2.4,Win32,59.18210333,5e56a4d1df03b70525535774,64d2fd46c836a06233681665,64dc7c10d51aec2c7bc546f9,,,,,,,decisionTrl,resources/DR.BMP,resources/DY.BMP,WildCard_Ex,0.151041667,0.022135417,1,0,0,0.7141,optionRight,95,1495,1,28,0,28,0,1,,,,,,,,,,,,,,,,,,,,,,,,,,,,,,,,,,,,,,,
,,,,,,,,2023-08-16_08h35.02.375,HF_wild_card,2022.2.4,Win32,59.18210333,5e56a4d1df03b70525535774,64d2fd46c836a06233681665,64dc7c10d51aec2c7bc546f9,,,,,,,decisionTrl,resources/DB.BMP,resources/DP.BMP,Door1,0.143229167,0.04296875,1,0,0,0.7662,optionRight,30,1525,1,29,0,29,0,1,,,,,,,,,,,,,,,,,,,,,,,,,,,,,,,,,,,,,,,
,,,,,,,,2023-08-16_08h35.02.375,HF_wild_card,2022.2.4,Win32,59.18210333,5e56a4d1df03b70525535774,64d2fd46c836a06233681665,64dc7c10d51aec2c7bc546f9,,,,,,,decisionTrl,resources/DR.BMP,resources/DG.BMP,Door3,0.122395833,0.0078125,1,0,0,1.332,optionRight,70,1595,1,30,0,30,0,1,,,,,,,,,,,,,,,,,,,,,,,,,,,,,,,,,,,,,,,
,,,,,,,,2023-08-16_08h35.02.375,HF_wild_card,2022.2.4,Win32,59.18210333,5e56a4d1df03b70525535774,64d2fd46c836a06233681665,64dc7c10d51aec2c7bc546f9,,,,,,,decisionTrl,resources/DG.BMP,resources/DY.BMP,WildCard_Ex,0.139322917,0.032552083,1,0,0,0.8172,optionRight,95,1690,1,31,0,31,0,1,,,,,,,,,,,,,,,,,,,,,,,,,,,,,,,,,,,,,,,
,,,,,,,,2023-08-16_08h35.02.375,HF_wild_card,2022.2.4,Win32,59.18210333,5e56a4d1df03b70525535774,64d2fd46c836a06233681665,64dc7c10d51aec2c7bc546f9,,,,,,,decisionTrl,resources/DG.BMP,resources/DR.BMP,Door4,0.196614583,0.059895833,1,0,0,1.3086,optionRight,80,1770,1,32,0,32,0,1,,,,,,,,,,,,,,,,,,,,,,,,,,,,,,,,,,,,,,,
,,,,,,,,2023-08-16_08h35.02.375,HF_wild_card,2022.2.4,Win32,59.18210333,5e56a4d1df03b70525535774,64d2fd46c836a06233681665,64dc7c10d51aec2c7bc546f9,,,,,,,decisionTrl,resources/DY.BMP,resources/DR.BMP,Door4,0.170572917,0.048177083,1,0,0,1.2032,optionRight,80,1850,1,33,0,33,0,1,,,,,,,,,,,,,,,,,,,,,,,,,,,,,,,,,,,,,,,
,,,,,,,,2023-08-16_08h35.02.375,HF_wild_card,2022.2.4,Win32,59.18210333,5e56a4d1df03b70525535774,64d2fd46c836a06233681665,64dc7c10d51aec2c7bc546f9,,,,,,,sngl,resources/Empty.png,resources/DB.BMP,Door2,0.1171875,0.024739583,1,0,0,0.7264,optionRight,20,1870,1,34,0,34,0,1,,,,,,,,,,,,,,,,,,,,,,,,,,,,,,,,,,,,,,,
,,,,,,,,2023-08-16_08h35.02.375,HF_wild_card,2022.2.4,Win32,59.18210333,5e56a4d1df03b70525535774,64d2fd46c836a06233681665,64dc7c10d51aec2c7bc546f9,,,,,,,sngl,resources/DB.BMP,resources/Empty.png,Door2,-0.1328125,-0.041666667,1,0,0,1.3297,optionLeft,40,1910,1,35,0,35,0,1,,,,,,,,,,,,,,,,,,,,,,,,,,,,,,,,,,,,,,,
,,,,,,,,2023-08-16_08h35.02.375,HF_wild_card,2022.2.4,Win32,59.18210333,5e56a4d1df03b70525535774,64d2fd46c836a06233681665,64dc7c10d51aec2c7bc546f9,,,,,,,decisionTrl,resources/DY.BMP,resources/DB.BMP,Door2,0.12109375,0.046875,1,0,0,2.0159,optionRight,20,1930,1,36,0,36,0,1,,,,,,,,,,,,,,,,,,,,,,,,,,,,,,,,,,,,,,,
,,,,,,,,2023-08-16_08h35.02.375,HF_wild_card,2022.2.4,Win32,59.18210333,5e56a4d1df03b70525535774,64d2fd46c836a06233681665,64dc7c10d51aec2c7bc546f9,,,,,,,decisionTrl,resources/DG.BMP,resources/DR.BMP,Door4,0.119791667,-0.005208333,1,0,0,1.6012,optionRight,80,2010,1,37,0,37,0,1,,,,,,,,,,,,,,,,,,,,,,,,,,,,,,,,,,,,,,,
,,,,,,,,2023-08-16_08h35.02.375,HF_wild_card,2022.2.4,Win32,59.18210333,5e56a4d1df03b70525535774,64d2fd46c836a06233681665,64dc7c10d51aec2c7bc546f9,,,,,,,decisionTrl,resources/DP.BMP,resources/DB.BMP,Door2,0.108072917,-0.001302083,1,0,0,0.8926,optionRight,40,2050,1,38,0,38,0,1,,,,,,,,,,,,,,,,,,,,,,,,,,,,,,,,,,,,,,,
,,,,,,,,2023-08-16_08h35.02.375,HF_wild_card,2022.2.4,Win32,59.18210333,5e56a4d1df03b70525535774,64d2fd46c836a06233681665,64dc7c10d51aec2c7bc546f9,,,,,,,sngl,resources/DY.BMP,resources/Empty.png,WildCard_Ex,-0.123697917,-0.033854167,1,0,0,1.0263,optionLeft,95,2145,1,39,0,39,0,1,,,,,,,,,,,,,,,,,,,,,,,,,,,,,,,,,,,,,,,
,,,,,,,,2023-08-16_08h35.02.375,HF_wild_card,2022.2.4,Win32,59.18210333,5e56a4d1df03b70525535774,64d2fd46c836a06233681665,64dc7c10d51aec2c7bc546f9,,,,,,,sngl,resources/Empty.png,resources/DR.BMP,Door4,0.236979167,0.020833333,1,0,0,1.8641,optionRight,60,2205,1,40,0,40,0,1,,,,,,,,,,,,,,,,,,,,,,,,,,,,,,,,,,,,,,,
,,,,,,,,2023-08-16_08h35.02.375,HF_wild_card,2022.2.4,Win32,59.18210333,5e56a4d1df03b70525535774,64d2fd46c836a06233681665,64dc7c10d51aec2c7bc546f9,,,,,,,sngl,resources/DP.BMP,resources/Empty.png,Door1,-0.13671875,0.03515625,1,0,0,0.8735,optionLeft,30,2235,1,41,0,41,0,1,,,,,,,,,,,,,,,,,,,,,,,,,,,,,,,,,,,,,,,
,,,,,,,,2023-08-16_08h35.02.375,HF_wild_card,2022.2.4,Win32,59.18210333,5e56a4d1df03b70525535774,64d2fd46c836a06233681665,64dc7c10d51aec2c7bc546f9,,,,,,,decisionTrl,resources/DR.BMP,resources/DG.BMP,Door4,-0.122395833,0.0078125,1,0,0,1.0599,optionLeft,60,2295,1,42,0,42,0,1,,,,,,,,,,,,,,,,,,,,,,,,,,,,,,,,,,,,,,,
,,,,,,,,2023-08-16_08h35.02.375,HF_wild_card,2022.2.4,Win32,59.18210333,5e56a4d1df03b70525535774,64d2fd46c836a06233681665,64dc7c10d51aec2c7bc546f9,,,,,,,decisionTrl,resources/DB.BMP,resources/DP.BMP,Door1,0.130208333,0.001302083,1,0,0,0.9632,optionRight,30,2325,1,43,0,43,0,1,,,,,,,,,,,,,,,,,,,,,,,,,,,,,,,,,,,,,,,
,,,,,,,,2023-08-16_08h35.02.375,HF_wild_card,2022.2.4,Win32,59.18210333,5e56a4d1df03b70525535774,64d2fd46c836a06233681665,64dc7c10d51aec2c7bc546f9,,,,,,,,,,,,,,,,,,,,,,,,,,0,0,0,0,1,,,,,,,,,,,,,,,,,,,,,,,,,,,,,,,,,,
,,,,,,,,2023-08-16_08h35.02.375,HF_wild_card,2022.2.4,Win32,59.18210333,5e56a4d1df03b70525535774,64d2fd46c836a06233681665,64dc7c10d51aec2c7bc546f9,,,,,,,decisionTrl,resources/DP.BMP,resources/DY.BMP,WildCard_Ex,0.21875,-0.177083333,1,0,0,1.0991,optionRight,95,2420,2,0,0,0,0,1,,,,,,,,,,,,,,,,,,,,,,,,,,,,,,,,,,,,,,,
,,,,,,,,2023-08-16_08h35.02.375,HF_wild_card,2022.2.4,Win32,59.18210333,5e56a4d1df03b70525535774,64d2fd46c836a06233681665,64dc7c10d51aec2c7bc546f9,,,,,,,decisionTrl,resources/DG.BMP,resources/DR.BMP,Door4,0.247395833,0.009114583,1,0,0,0.8676,optionRight,60,2480,2,1,0,1,0,1,,,,,,,,,,,,,,,,,,,,,,,,,,,,,,,,,,,,,,,
,,,,,,,,2023-08-16_08h35.02.375,HF_wild_card,2022.2.4,Win32,59.18210333,5e56a4d1df03b70525535774,64d2fd46c836a06233681665,64dc7c10d51aec2c7bc546f9,,,,,,,decisionTrl,resources/DG.BMP,resources/DY.BMP,Door3,-0.216145833,-0.022135417,1,0,0,0.6617,optionLeft,70,2550,2,2,0,2,0,1,,,,,,,,,,,,,,,,,,,,,,,,,,,,,,,,,,,,,,,
,,,,,,,,2023-08-16_08h35.02.375,HF_wild_card,2022.2.4,Win32,59.18210333,5e56a4d1df03b70525535774,64d2fd46c836a06233681665,64dc7c10d51aec2c7bc546f9,,,,,,,sngl,resources/DY.BMP,resources/Empty.png,WildCard_Ex,-0.153645833,-0.0078125,1,0,0,0.6843,optionLeft,5,2555,2,3,0,3,0,1,,,,,,,,,,,,,,,,,,,,,,,,,,,,,,,,,,,,,,,
,,,,,,,,2023-08-16_08h35.02.375,HF_wild_card,2022.2.4,Win32,59.18210333,5e56a4d1df03b70525535774,64d2fd46c836a06233681665,64dc7c10d51aec2c7bc546f9,,,,,,,ctch,resources/DB.BMP,resources/DG.BMP,Door2,-0.166666667,-0.03515625,1,0,0,0.7139,optionLeft,40,2595,2,4,0,4,0,1,,,,,,,,,,,,,,,,,,,,,,,,,,,,,,,,,,,,,,,
,,,,,,,,2023-08-16_08h35.02.375,HF_wild_card,2022.2.4,Win32,59.18210333,5e56a4d1df03b70525535774,64d2fd46c836a06233681665,64dc7c10d51aec2c7bc546f9,,,,,,,decisionTrl,resources/DB.BMP,resources/DP.BMP,Door2,-0.12890625,-0.033854167,1,0,0,0.7294,optionLeft,20,2615,2,5,0,5,0,1,,,,,,,,,,,,,,,,,,,,,,,,,,,,,,,,,,,,,,,
,,,,,,,,2023-08-16_08h35.02.375,HF_wild_card,2022.2.4,Win32,59.18210333,5e56a4d1df03b70525535774,64d2fd46c836a06233681665,64dc7c10d51aec2c7bc546f9,,,,,,,decisionTrl,resources/DR.BMP,resources/DG.BMP,Door3,0.123697917,0.022135417,1,0,0,0.6591,optionRight,70,2685,2,6,0,6,0,1,,,,,,,,,,,,,,,,,,,,,,,,,,,,,,,,,,,,,,,
,,,,,,,,2023-08-16_08h35.02.375,HF_wild_card,2022.2.4,Win32,59.18210333,5e56a4d1df03b70525535774,64d2fd46c836a06233681665,64dc7c10d51aec2c7bc546f9,,,,,,,sngl,resources/Empty.png,resources/DB.BMP,Door2,0.11328125,0.016927083,1,0,0,0.6921,optionRight,40,2725,2,7,0,7,0,1,,,,,,,,,,,,,,,,,,,,,,,,,,,,,,,,,,,,,,,
,,,,,,,,2023-08-16_08h35.02.375,HF_wild_card,2022.2.4,Win32,59.18210333,5e56a4d1df03b70525535774,64d2fd46c836a06233681665,64dc7c10d51aec2c7bc546f9,,,,,,,decisionTrl,resources/DY.BMP,resources/DG.BMP,Door3,0.12890625,-0.005208333,1,0,0,0.8434,optionRight,70,2795,2,8,0,8,0,1,,,,,,,,,,,,,,,,,,,,,,,,,,,,,,,,,,,,,,,
,,,,,,,,2023-08-16_08h35.02.375,HF_wild_card,2022.2.4,Win32,59.18210333,5e56a4d1df03b70525535774,64d2fd46c836a06233681665,64dc7c10d51aec2c7bc546f9,,,,,,,sngl,resources/Empty.png,resources/DY.BMP,WildCard_Ex,0.171875,0.018229167,1,0,0,1.2597,optionRight,5,2800,2,9,0,9,0,1,,,,,,,,,,,,,,,,,,,,,,,,,,,,,,,,,,,,,,,
,,,,,,,,2023-08-16_08h35.02.375,HF_wild_card,2022.2.4,Win32,59.18210333,5e56a4d1df03b70525535774,64d2fd46c836a06233681665,64dc7c10d51aec2c7bc546f9,,,,,,,sngl,resources/DY.BMP,resources/Empty.png,WildCard_Ex,-0.123697917,-0.048177083,1,0,0,0.8847,optionLeft,95,2895,2,10,0,10,0,1,,,,,,,,,,,,,,,,,,,,,,,,,,,,,,,,,,,,,,,
,,,,,,,,2023-08-16_08h35.02.375,HF_wild_card,2022.2.4,Win32,59.18210333,5e56a4d1df03b70525535774,64d2fd46c836a06233681665,64dc7c10d51aec2c7bc546f9,,,,,,,ctch,resources/DP.BMP,resources/DR.BMP,Door4,0.151041667,-0.037760417,1,0,0,1.4156,optionRight,80,2975,2,11,0,11,0,1,,,,,,,,,,,,,,,,,,,,,,,,,,,,,,,,,,,,,,,
,,,,,,,,2023-08-16_08h35.02.375,HF_wild_card,2022.2.4,Win32,59.18210333,5e56a4d1df03b70525535774,64d2fd46c836a06233681665,64dc7c10d51aec2c7bc546f9,,,,,,,sngl,resources/Empty.png,resources/DG.BMP,Door3,0.131510417,-0.03125,1,0,0,0.7499,optionRight,70,3045,2,12,0,12,0,1,,,,,,,,,,,,,,,,,,,,,,,,,,,,,,,,,,,,,,,
,,,,,,,,2023-08-16_08h35.02.375,HF_wild_card,2022.2.4,Win32,59.18210333,5e56a4d1df03b70525535774,64d2fd46c836a06233681665,64dc7c10d51aec2c7bc546f9,,,,,,,decisionTrl,resources/DY.BMP,resources/DB.BMP,Door2,0.1484375,0.00390625,1,0,0,0.9705,optionRight,40,3085,2,13,0,13,0,1,,,,,,,,,,,,,,,,,,,,,,,,,,,,,,,,,,,,,,,
,,,,,,,,2023-08-16_08h35.02.375,HF_wild_card,2022.2.4,Win32,59.18210333,5e56a4d1df03b70525535774,64d2fd46c836a06233681665,64dc7c10d51aec2c7bc546f9,,,,,,,ctch,resources/DG.BMP,resources/DB.BMP,Door3,-0.205729167,-0.006510417,1,0,0,0.7072,optionLeft,70,3155,2,14,0,14,0,1,,,,,,,,,,,,,,,,,,,,,,,,,,,,,,,,,,,,,,,
,,,,,,,,2023-08-16_08h35.02.375,HF_wild_card,2022.2.4,Win32,59.18210333,5e56a4d1df03b70525535774,64d2fd46c836a06233681665,64dc7c10d51aec2c7bc546f9,,,,,,,decisionTrl,resources/DB.BMP,resources/DP.BMP,Door2,-0.212239583,-0.028645833,1,0,0,0.7138,optionLeft,40,3195,2,15,0,15,0,1,,,,,,,,,,,,,,,,,,,,,,,,,,,,,,,,,,,,,,,
,,,,,,,,2023-08-16_08h35.02.375,HF_wild_card,2022.2.4,Win32,59.18210333,5e56a4d1df03b70525535774,64d2fd46c836a06233681665,64dc7c10d51aec2c7bc546f9,,,,,,,sngl,resources/Empty.png,resources/DY.BMP,WildCard_Ex,0.131510417,0.006510417,1,0,0,0.9089,optionRight,95,3290,2,16,0,16,0,1,,,,,,,,,,,,,,,,,,,,,,,,,,,,,,,,,,,,,,,
,,,,,,,,2023-08-16_08h35.02.375,HF_wild_card,2022.2.4,Win32,59.18210333,5e56a4d1df03b70525535774,64d2fd46c836a06233681665,64dc7c10d51aec2c7bc546f9,,,,,,,decisionTrl,resources/DY.BMP,resources/DR.BMP,Door4,0.149739583,-0.00390625,1,0,0,0.9935,optionRight,80,3370,2,17,0,17,0,1,,,,,,,,,,,,,,,,,,,,,,,,,,,,,,,,,,,,,,,
,,,,,,,,2023-08-16_08h35.02.375,HF_wild_card,2022.2.4,Win32,59.18210333,5e56a4d1df03b70525535774,64d2fd46c836a06233681665,64dc7c10d51aec2c7bc546f9,,,,,,,ctch,resources/DP.BMP,resources/DR.BMP,Door4,0.123697917,0.006510417,1,0,0,0.8764,optionRight,80,3450,2,18,0,18,0,1,,,,,,,,,,,,,,,,,,,,,,,,,,,,,,,,,,,,,,,
,,,,,,,,2023-08-16_08h35.02.375,HF_wild_card,2022.2.4,Win32,59.18210333,5e56a4d1df03b70525535774,64d2fd46c836a06233681665,64dc7c10d51aec2c7bc546f9,,,,,,,sngl,resources/Empty.png,resources/DR.BMP,Door4,0.134114583,0.01171875,1,0,0,1.3019,optionRight,80,3530,2,19,0,19,0,1,,,,,,,,,,,,,,,,,,,,,,,,,,,,,,,,,,,,,,,
,,,,,,,,2023-08-16_08h35.02.375,HF_wild_card,2022.2.4,Win32,59.18210333,5e56a4d1df03b70525535774,64d2fd46c836a06233681665,64dc7c10d51aec2c7bc546f9,,,,,,,decisionTrl,resources/DR.BMP,resources/DG.BMP,Door3,0.138020833,0.001302083,1,0,0,1.0917,optionRight,70,3600,2,20,0,20,0,1,,,,,,,,,,,,,,,,,,,,,,,,,,,,,,,,,,,,,,,
,,,,,,,,2023-08-16_08h35.02.375,HF_wild_card,2022.2.4,Win32,59.18210333,5e56a4d1df03b70525535774,64d2fd46c836a06233681665,64dc7c10d51aec2c7bc546f9,,,,,,,ctch,resources/DG.BMP,resources/DB.BMP,Door2,0.16015625,0.013020833,1,0,0,0.9618,optionRight,40,3640,2,21,0,21,0,1,,,,,,,,,,,,,,,,,,,,,,,,,,,,,,,,,,,,,,,
,,,,,,,,2023-08-16_08h35.02.375,HF_wild_card,2022.2.4,Win32,59.18210333,5e56a4d1df03b70525535774,64d2fd46c836a06233681665,64dc7c10d51aec2c7bc546f9,,,,,,,ctch,resources/DR.BMP,resources/DP.BMP,Door4,-0.13671875,-0.002604167,1,0,0,0.9415,optionLeft,60,3700,2,22,0,22,0,1,,,,,,,,,,,,,,,,,,,,,,,,,,,,,,,,,,,,,,,
,,,,,,,,2023-08-16_08h35.02.375,HF_wild_card,2022.2.4,Win32,59.18210333,5e56a4d1df03b70525535774,64d2fd46c836a06233681665,64dc7c10d51aec2c7bc546f9,,,,,,,sngl,resources/DG.BMP,resources/Empty.png,Door3,-0.119791667,-0.009114583,1,0,0,0.8604,optionLeft,70,3770,2,23,0,23,0,1,,,,,,,,,,,,,,,,,,,,,,,,,,,,,,,,,,,,,,,
,,,,,,,,2023-08-16_08h35.02.375,HF_wild_card,2022.2.4,Win32,59.18210333,5e56a4d1df03b70525535774,64d2fd46c836a06233681665,64dc7c10d51aec2c7bc546f9,,,,,,,decisionTrl,resources/DR.BMP,resources/DG.BMP,Door4,-0.1640625,-0.049479167,1,0,0,1.0143,optionLeft,60,3830,2,24,0,24,0,1,,,,,,,,,,,,,,,,,,,,,,,,,,,,,,,,,,,,,,,
,,,,,,,,2023-08-16_08h35.02.375,HF_wild_card,2022.2.4,Win32,59.18210333,5e56a4d1df03b70525535774,64d2fd46c836a06233681665,64dc7c10d51aec2c7bc546f9,,,,,,,decisionTrl,resources/DP.BMP,resources/DB.BMP,Door1,-0.138020833,-0.01953125,1,0,0,0.6918,optionLeft,30,3860,2,25,0,25,0,1,,,,,,,,,,,,,,,,,,,,,,,,,,,,,,,,,,,,,,,
,,,,,,,,2023-08-16_08h35.02.375,HF_wild_card,2022.2.4,Win32,59.18210333,5e56a4d1df03b70525535774,64d2fd46c836a06233681665,64dc7c10d51aec2c7bc546f9,,,,,,,ctch,resources/DB.BMP,resources/DG.BMP,Door3,0.122395833,-0.009114583,1,0,0,0.9474,optionRight,70,3930,2,26,0,26,0,1,,,,,,,,,,,,,,,,,,,,,,,,,,,,,,,,,,,,,,,
,,,,,,,,2023-08-16_08h35.02.375,HF_wild_card,2022.2.4,Win32,59.18210333,5e56a4d1df03b70525535774,64d2fd46c836a06233681665,64dc7c10d51aec2c7bc546f9,,,,,,,decisionTrl,resources/DB.BMP,resources/DP.BMP,Door1,0.135416667,-0.006510417,1,0,0,0.843,optionRight,30,3960,2,27,0,27,0,1,,,,,,,,,,,,,,,,,,,,,,,,,,,,,,,,,,,,,,,
,,,,,,,,2023-08-16_08h35.02.375,HF_wild_card,2022.2.4,Win32,59.18210333,5e56a4d1df03b70525535774,64d2fd46c836a06233681665,64dc7c10d51aec2c7bc546f9,,,,,,,decisionTrl,resources/DR.BMP,resources/DG.BMP,Door3,0.12890625,0.001302083,1,0,0,0.7609,optionRight,70,4030,2,28,0,28,0,1,,,,,,,,,,,,,,,,,,,,,,,,,,,,,,,,,,,,,,,
,,,,,,,,2023-08-16_08h35.02.375,HF_wild_card,2022.2.4,Win32,59.18210333,5e56a4d1df03b70525535774,64d2fd46c836a06233681665,64dc7c10d51aec2c7bc546f9,,,,,,,decisionTrl,resources/DR.BMP,resources/DY.BMP,WildCard_Ex,0.13671875,0.006510417,1,0,0,1.6289,optionRight,5,4035,2,29,0,29,0,1,,,,,,,,,,,,,,,,,,,,,,,,,,,,,,,,,,,,,,,
,,,,,,,,2023-08-16_08h35.02.375,HF_wild_card,2022.2.4,Win32,59.18210333,5e56a4d1df03b70525535774,64d2fd46c836a06233681665,64dc7c10d51aec2c7bc546f9,,,,,,,sngl,resources/DB.BMP,resources/Empty.png,Door2,-0.18359375,-0.045572917,1,0,0,1.043,optionLeft,20,4055,2,30,0,30,0,1,,,,,,,,,,,,,,,,,,,,,,,,,,,,,,,,,,,,,,,
,,,,,,,,2023-08-16_08h35.02.375,HF_wild_card,2022.2.4,Win32,59.18210333,5e56a4d1df03b70525535774,64d2fd46c836a06233681665,64dc7c10d51aec2c7bc546f9,,,,,,,sngl,resources/DP.BMP,resources/Empty.png,Door1,-0.161458333,-0.029947917,1,0,0,1.275,optionLeft,30,4085,2,31,0,31,0,1,,,,,,,,,,,,,,,,,,,,,,,,,,,,,,,,,,,,,,,
,,,,,,,,2023-08-16_08h35.02.375,HF_wild_card,2022.2.4,Win32,59.18210333,5e56a4d1df03b70525535774,64d2fd46c836a06233681665,64dc7c10d51aec2c7bc546f9,,,,,,,decisionTrl,resources/DG.BMP,resources/DR.BMP,Door4,0.15234375,-0.002604167,1,0,0,1.1775,optionRight,60,4145,2,32,0,32,0,1,,,,,,,,,,,,,,,,,,,,,,,,,,,,,,,,,,,,,,,
,,,,,,,,2023-08-16_08h35.02.375,HF_wild_card,2022.2.4,Win32,59.18210333,5e56a4d1df03b70525535774,64d2fd46c836a06233681665,64dc7c10d51aec2c7bc546f9,,,,,,,decisionTrl,resources/DB.BMP,resources/DP.BMP,Door2,-0.109375,-0.015625,1,0,0,0.7097,optionLeft,40,4185,2,33,0,33,0,1,,,,,,,,,,,,,,,,,,,,,,,,,,,,,,,,,,,,,,,
,,,,,,,,2023-08-16_08h35.02.375,HF_wild_card,2022.2.4,Win32,59.18210333,5e56a4d1df03b70525535774,64d2fd46c836a06233681665,64dc7c10d51aec2c7bc546f9,,,,,,,decisionTrl,resources/DB.BMP,resources/DY.BMP,WildCard_Ex,0.1796875,0.0234375,1,0,0,0.7635,optionRight,95,4280,2,34,0,34,0,1,,,,,,,,,,,,,,,,,,,,,,,,,,,,,,,,,,,,,,,
,,,,,,,,2023-08-16_08h35.02.375,HF_wild_card,2022.2.4,Win32,59.18210333,5e56a4d1df03b70525535774,64d2fd46c836a06233681665,64dc7c10d51aec2c7bc546f9,,,,,,,sngl,resources/DR.BMP,resources/Empty.png,Door4,-0.165364583,-0.046875,1,0,0,0.8756,optionLeft,60,4340,2,35,0,35,0,1,,,,,,,,,,,,,,,,,,,,,,,,,,,,,,,,,,,,,,,
,,,,,,,,2023-08-16_08h35.02.375,HF_wild_card,2022.2.4,Win32,59.18210333,5e56a4d1df03b70525535774,64d2fd46c836a06233681665,64dc7c10d51aec2c7bc546f9,,,,,,,decisionTrl,resources/DY.BMP,resources/DP.BMP,Door1,0.138020833,0.016927083,1,0,0,0.924,optionRight,30,4370,2,36,0,36,0,1,,,,,,,,,,,,,,,,,,,,,,,,,,,,,,,,,,,,,,,
,,,,,,,,2023-08-16_08h35.02.375,HF_wild_card,2022.2.4,Win32,59.18210333,5e56a4d1df03b70525535774,64d2fd46c836a06233681665,64dc7c10d51aec2c7bc546f9,,,,,,,decisionTrl,resources/DP.BMP,resources/DB.BMP,Door2,0.170572917,0.041666667,1,0,0,0.861,optionRight,40,4410,2,37,0,37,0,1,,,,,,,,,,,,,,,,,,,,,,,,,,,,,,,,,,,,,,,
,,,,,,,,2023-08-16_08h35.02.375,HF_wild_card,2022.2.4,Win32,59.18210333,5e56a4d1df03b70525535774,64d2fd46c836a06233681665,64dc7c10d51aec2c7bc546f9,,,,,,,sngl,resources/Empty.png,resources/DP.BMP,Door1,0.182291667,0.024739583,1,0,0,0.8954,optionRight,30,4440,2,38,0,38,0,1,,,,,,,,,,,,,,,,,,,,,,,,,,,,,,,,,,,,,,,
,,,,,,,,2023-08-16_08h35.02.375,HF_wild_card,2022.2.4,Win32,59.18210333,5e56a4d1df03b70525535774,64d2fd46c836a06233681665,64dc7c10d51aec2c7bc546f9,,,,,,,ctch,resources/DR.BMP,resources/DP.BMP,Door1,0.154947917,0.002604167,1,0,0,0.9736,optionRight,30,4470,2,39,0,39,0,1,,,,,,,,,,,,,,,,,,,,,,,,,,,,,,,,,,,,,,,
,,,,,,,,2023-08-16_08h35.02.375,HF_wild_card,2022.2.4,Win32,59.18210333,5e56a4d1df03b70525535774,64d2fd46c836a06233681665,64dc7c10d51aec2c7bc546f9,,,,,,,decisionTrl,resources/DG.BMP,resources/DR.BMP,Door3,-0.100260417,-0.002604167,1,0,0,1.0457,optionLeft,70,4540,2,40,0,40,0,1,,,,,,,,,,,,,,,,,,,,,,,,,,,,,,,,,,,,,,,
,,,,,,,,2023-08-16_08h35.02.375,HF_wild_card,2022.2.4,Win32,59.18210333,5e56a4d1df03b70525535774,64d2fd46c836a06233681665,64dc7c10d51aec2c7bc546f9,,,,,,,decisionTrl,resources/DP.BMP,resources/DB.BMP,Door1,-0.1875,-0.01171875,1,0,0,0.7741,optionLeft,30,4570,2,41,0,41,0,1,,,,,,,,,,,,,,,,,,,,,,,,,,,,,,,,,,,,,,,
,,,,,,,,2023-08-16_08h35.02.375,HF_wild_card,2022.2.4,Win32,59.18210333,5e56a4d1df03b70525535774,64d2fd46c836a06233681665,64dc7c10d51aec2c7bc546f9,,,,,,,decisionTrl,resources/DP.BMP,resources/DB.BMP,Door1,-0.162760417,-0.018229167,1,0,0,0.9109,optionLeft,30,4600,2,42,0,42,0,1,,,,,,,,,,,,,,,,,,,,,,,,,,,,,,,,,,,,,,,
,,,,,,,,2023-08-16_08h35.02.375,HF_wild_card,2022.2.4,Win32,59.18210333,5e56a4d1df03b70525535774,64d2fd46c836a06233681665,64dc7c10d51aec2c7bc546f9,,,,,,,decisionTrl,resources/DG.BMP,resources/DR.BMP,Door4,0.1328125,-0.01171875,1,0,0,0.8466,optionRight,80,4680,2,43,0,43,0,1,,,,,,,,,,,,,,,,,,,,,,,,,,,,,,,,,,,,,,,
,,,,,,,,2023-08-16_08h35.02.375,HF_wild_card,2022.2.4,Win32,59.18210333,5e56a4d1df03b70525535774,64d2fd46c836a06233681665,64dc7c10d51aec2c7bc546f9,,,,,,,,,,,,,,,,,,,,,,,,,,1,0,1,0,1,,,,,,,,,,,,,,,,,,,,,,,,,,,,,,,,,,
,,,,,,,,2023-08-16_08h35.02.375,HF_wild_card,2022.2.4,Win32,59.18210333,5e56a4d1df03b70525535774,64d2fd46c836a06233681665,64dc7c10d51aec2c7bc546f9,,,,,,,ctch,resources/DP.BMP,resources/DR.BMP,Door1,-0.145833333,-0.231770833,1,0,0,1.1091,optionLeft,30,4710,3,0,0,0,0,1,,,,,,,,,,,,,,,,,,,,,,,,,,,,,,,,,,,,,,,
,,,,,,,,2023-08-16_08h35.02.375,HF_wild_card,2022.2.4,Win32,59.18210333,5e56a4d1df03b70525535774,64d2fd46c836a06233681665,64dc7c10d51aec2c7bc546f9,,,,,,,decisionTrl,resources/DP.BMP,resources/DB.BMP,Door2,0.12890625,-0.006510417,1,0,0,0.8142,optionRight,20,4730,3,1,0,1,0,1,,,,,,,,,,,,,,,,,,,,,,,,,,,,,,,,,,,,,,,
,,,,,,,,2023-08-16_08h35.02.375,HF_wild_card,2022.2.4,Win32,59.18210333,5e56a4d1df03b70525535774,64d2fd46c836a06233681665,64dc7c10d51aec2c7bc546f9,,,,,,,sngl,resources/DP.BMP,resources/Empty.png,Door1,-0.203125,-0.044270833,1,0,0,0.9533,optionLeft,30,4760,3,2,0,2,0,1,,,,,,,,,,,,,,,,,,,,,,,,,,,,,,,,,,,,,,,
,,,,,,,,2023-08-16_08h35.02.375,HF_wild_card,2022.2.4,Win32,59.18210333,5e56a4d1df03b70525535774,64d2fd46c836a06233681665,64dc7c10d51aec2c7bc546f9,,,,,,,decisionTrl,resources/DY.BMP,resources/DG.BMP,Door3,0.122395833,0.005208333,1,0,0,1.1465,optionRight,70,4830,3,3,0,3,0,1,,,,,,,,,,,,,,,,,,,,,,,,,,,,,,,,,,,,,,,
,,,,,,,,2023-08-16_08h35.02.375,HF_wild_card,2022.2.4,Win32,59.18210333,5e56a4d1df03b70525535774,64d2fd46c836a06233681665,64dc7c10d51aec2c7bc546f9,,,,,,,decisionTrl,resources/DP.BMP,resources/DB.BMP,Door1,-0.15625,-0.040364583,1,0,0,0.7578,optionLeft,30,4860,3,4,0,4,0,1,,,,,,,,,,,,,,,,,,,,,,,,,,,,,,,,,,,,,,,
,,,,,,,,2023-08-16_08h35.02.375,HF_wild_card,2022.2.4,Win32,59.18210333,5e56a4d1df03b70525535774,64d2fd46c836a06233681665,64dc7c10d51aec2c7bc546f9,,,,,,,ctch,resources/DR.BMP,resources/DP.BMP,Door4,-0.154947917,-0.033854167,1,0,0,0.6842,optionLeft,80,4940,3,5,0,5,0,1,,,,,,,,,,,,,,,,,,,,,,,,,,,,,,,,,,,,,,,
,,,,,,,,2023-08-16_08h35.02.375,HF_wild_card,2022.2.4,Win32,59.18210333,5e56a4d1df03b70525535774,64d2fd46c836a06233681665,64dc7c10d51aec2c7bc546f9,,,,,,,sngl,resources/Empty.png,resources/DP.BMP,Door1,0.109375,0.002604167,1,0,0,0.8737,optionRight,30,4970,3,6,0,6,0,1,,,,,,,,,,,,,,,,,,,,,,,,,,,,,,,,,,,,,,,
,,,,,,,,2023-08-16_08h35.02.375,HF_wild_card,2022.2.4,Win32,59.18210333,5e56a4d1df03b70525535774,64d2fd46c836a06233681665,64dc7c10d51aec2c7bc546f9,,,,,,,decisionTrl,resources/DG.BMP,resources/DR.BMP,Door3,-0.140625,-0.02734375,1,0,0,0.78,optionLeft,70,5040,3,7,0,7,0,1,,,,,,,,,,,,,,,,,,,,,,,,,,,,,,,,,,,,,,,
,,,,,,,,2023-08-16_08h35.02.375,HF_wild_card,2022.2.4,Win32,59.18210333,5e56a4d1df03b70525535774,64d2fd46c836a06233681665,64dc7c10d51aec2c7bc546f9,,,,,,,sngl,resources/DY.BMP,resources/Empty.png,WildCard_Ex,-0.21875,-0.03125,1,0,0,0.9254,optionLeft,5,5045,3,8,0,8,0,1,,,,,,,,,,,,,,,,,,,,,,,,,,,,,,,,,,,,,,,
,,,,,,,,2023-08-16_08h35.02.375,HF_wild_card,2022.2.4,Win32,59.18210333,5e56a4d1df03b70525535774,64d2fd46c836a06233681665,64dc7c10d51aec2c7bc546f9,,,,,,,decisionTrl,resources/DB.BMP,resources/DP.BMP,Door1,0.119791667,0.009114583,1,0,0,0.877,optionRight,30,5075,3,9,0,9,0,1,,,,,,,,,,,,,,,,,,,,,,,,,,,,,,,,,,,,,,,
,,,,,,,,2023-08-16_08h35.02.375,HF_wild_card,2022.2.4,Win32,59.18210333,5e56a4d1df03b70525535774,64d2fd46c836a06233681665,64dc7c10d51aec2c7bc546f9,,,,,,,sngl,resources/Empty.png,resources/DG.BMP,Door3,0.151041667,0.01953125,1,0,0,0.8314,optionRight,70,5145,3,10,0,10,0,1,,,,,,,,,,,,,,,,,,,,,,,,,,,,,,,,,,,,,,,
,,,,,,,,2023-08-16_08h35.02.375,HF_wild_card,2022.2.4,Win32,59.18210333,5e56a4d1df03b70525535774,64d2fd46c836a06233681665,64dc7c10d51aec2c7bc546f9,,,,,,,decisionTrl,resources/DR.BMP,resources/DG.BMP,Door3,0.153645833,0.037760417,1,0,0,0.8717,optionRight,70,5215,3,11,0,11,0,1,,,,,,,,,,,,,,,,,,,,,,,,,,,,,,,,,,,,,,,
,,,,,,,,2023-08-16_08h35.02.375,HF_wild_card,2022.2.4,Win32,59.18210333,5e56a4d1df03b70525535774,64d2fd46c836a06233681665,64dc7c10d51aec2c7bc546f9,,,,,,,sngl,resources/Empty.png,resources/DY.BMP,WildCard_Ex,0.165364583,0.052083333,1,0,0,0.8883,optionRight,5,5220,3,12,0,12,0,1,,,,,,,,,,,,,,,,,,,,,,,,,,,,,,,,,,,,,,,
,,,,,,,,2023-08-16_08h35.02.375,HF_wild_card,2022.2.4,Win32,59.18210333,5e56a4d1df03b70525535774,64d2fd46c836a06233681665,64dc7c10d51aec2c7bc546f9,,,,,,,decisionTrl,resources/DG.BMP,resources/DY.BMP,WildCard_Ex,0.143229167,0.015625,1,0,0,0.9099,optionRight,95,5315,3,13,0,13,0,1,,,,,,,,,,,,,,,,,,,,,,,,,,,,,,,,,,,,,,,
,,,,,,,,2023-08-16_08h35.02.375,HF_wild_card,2022.2.4,Win32,59.18210333,5e56a4d1df03b70525535774,64d2fd46c836a06233681665,64dc7c10d51aec2c7bc546f9,,,,,,,sngl,resources/Empty.png,resources/DB.BMP,Door2,0.134114583,0.032552083,1,0,0,0.8371,optionRight,20,5335,3,14,0,14,0,1,,,,,,,,,,,,,,,,,,,,,,,,,,,,,,,,,,,,,,,
,,,,,,,,2023-08-16_08h35.02.375,HF_wild_card,2022.2.4,Win32,59.18210333,5e56a4d1df03b70525535774,64d2fd46c836a06233681665,64dc7c10d51aec2c7bc546f9,,,,,,,sngl,resources/DY.BMP,resources/Empty.png,WildCard_Ex,-0.18359375,-0.016927083,1,0,0,0.9782,optionLeft,95,5430,3,15,0,15,0,1,,,,,,,,,,,,,,,,,,,,,,,,,,,,,,,,,,,,,,,
,,,,,,,,2023-08-16_08h35.02.375,HF_wild_card,2022.2.4,Win32,59.18210333,5e56a4d1df03b70525535774,64d2fd46c836a06233681665,64dc7c10d51aec2c7bc546f9,,,,,,,decisionTrl,resources/DR.BMP,resources/DG.BMP,Door4,-0.186197917,0,1,0,0,1.0122,optionLeft,80,5510,3,16,0,16,0,1,,,,,,,,,,,,,,,,,,,,,,,,,,,,,,,,,,,,,,,
,,,,,,,,2023-08-16_08h35.02.375,HF_wild_card,2022.2.4,Win32,59.18210333,5e56a4d1df03b70525535774,64d2fd46c836a06233681665,64dc7c10d51aec2c7bc546f9,,,,,,,decisionTrl,resources/DB.BMP,resources/DY.BMP,WildCard_Ex,0.138020833,0.020833333,1,0,0,0.7422,optionRight,5,5515,3,17,0,17,0,1,,,,,,,,,,,,,,,,,,,,,,,,,,,,,,,,,,,,,,,
,,,,,,,,2023-08-16_08h35.02.375,HF_wild_card,2022.2.4,Win32,59.18210333,5e56a4d1df03b70525535774,64d2fd46c836a06233681665,64dc7c10d51aec2c7bc546f9,,,,,,,decisionTrl,resources/DP.BMP,resources/DY.BMP,WildCard_Ex,0.15625,0.029947917,1,0,0,0.8737,optionRight,5,5520,3,18,0,18,0,1,,,,,,,,,,,,,,,,,,,,,,,,,,,,,,,,,,,,,,,
,,,,,,,,2023-08-16_08h35.02.375,HF_wild_card,2022.2.4,Win32,59.18210333,5e56a4d1df03b70525535774,64d2fd46c836a06233681665,64dc7c10d51aec2c7bc546f9,,,,,,,ctch,resources/DG.BMP,resources/DB.BMP,Door2,0.138020833,0.016927083,1,0,0,0.7453,optionRight,20,5540,3,19,0,19,0,1,,,,,,,,,,,,,,,,,,,,,,,,,,,,,,,,,,,,,,,
,,,,,,,,2023-08-16_08h35.02.375,HF_wild_card,2022.2.4,Win32,59.18210333,5e56a4d1df03b70525535774,64d2fd46c836a06233681665,64dc7c10d51aec2c7bc546f9,,,,,,,ctch,resources/DP.BMP,resources/DR.BMP,Door1,-0.108072917,-0.005208333,1,0,0,1.0836,optionLeft,30,5570,3,20,0,20,0,1,,,,,,,,,,,,,,,,,,,,,,,,,,,,,,,,,,,,,,,
,,,,,,,,2023-08-16_08h35.02.375,HF_wild_card,2022.2.4,Win32,59.18210333,5e56a4d1df03b70525535774,64d2fd46c836a06233681665,64dc7c10d51aec2c7bc546f9,,,,,,,decisionTrl,resources/DG.BMP,resources/DR.BMP,Door4,0.125,0.015625,1,0,0,0.9457,optionRight,60,5630,3,21,0,21,0,1,,,,,,,,,,,,,,,,,,,,,,,,,,,,,,,,,,,,,,,
,,,,,,,,2023-08-16_08h35.02.375,HF_wild_card,2022.2.4,Win32,59.18210333,5e56a4d1df03b70525535774,64d2fd46c836a06233681665,64dc7c10d51aec2c7bc546f9,,,,,,,sngl,resources/Empty.png,resources/DY.BMP,WildCard_Ex,0.145833333,0.02734375,1,0,0,0.9637,optionRight,95,5725,3,22,0,22,0,1,,,,,,,,,,,,,,,,,,,,,,,,,,,,,,,,,,,,,,,
,,,,,,,,2023-08-16_08h35.02.375,HF_wild_card,2022.2.4,Win32,59.18210333,5e56a4d1df03b70525535774,64d2fd46c836a06233681665,64dc7c10d51aec2c7bc546f9,,,,,,,decisionTrl,resources/DP.BMP,resources/DB.BMP,Door1,-0.138020833,0.00390625,1,0,0,1.1997,optionLeft,30,5755,3,23,0,23,0,1,,,,,,,,,,,,,,,,,,,,,,,,,,,,,,,,,,,,,,,
,,,,,,,,2023-08-16_08h35.02.375,HF_wild_card,2022.2.4,Win32,59.18210333,5e56a4d1df03b70525535774,64d2fd46c836a06233681665,64dc7c10d51aec2c7bc546f9,,,,,,,sngl,resources/DB.BMP,resources/Empty.png,Door2,-0.173177083,-0.010416667,1,0,0,0.8468,optionLeft,40,5795,3,24,0,24,0,1,,,,,,,,,,,,,,,,,,,,,,,,,,,,,,,,,,,,,,,
,,,,,,,,2023-08-16_08h35.02.375,HF_wild_card,2022.2.4,Win32,59.18210333,5e56a4d1df03b70525535774,64d2fd46c836a06233681665,64dc7c10d51aec2c7bc546f9,,,,,,,decisionTrl,resources/DY.BMP,resources/DB.BMP,WildCard_Ex,-0.2734375,-0.018229167,1,0,0,1.1157,optionLeft,5,5800,3,25,0,25,0,1,,,,,,,,,,,,,,,,,,,,,,,,,,,,,,,,,,,,,,,
,,,,,,,,2023-08-16_08h35.02.375,HF_wild_card,2022.2.4,Win32,59.18210333,5e56a4d1df03b70525535774,64d2fd46c836a06233681665,64dc7c10d51aec2c7bc546f9,,,,,,,decisionTrl,resources/DB.BMP,resources/DP.BMP,Door1,0.173177083,0.03125,1,0,0,0.9654,optionRight,30,5830,3,26,0,26,0,1,,,,,,,,,,,,,,,,,,,,,,,,,,,,,,,,,,,,,,,
,,,,,,,,2023-08-16_08h35.02.375,HF_wild_card,2022.2.4,Win32,59.18210333,5e56a4d1df03b70525535774,64d2fd46c836a06233681665,64dc7c10d51aec2c7bc546f9,,,,,,,ctch,resources/DB.BMP,resources/DG.BMP,Door2,-0.135416667,-0.001302083,1,0,0,0.7412,optionLeft,20,5850,3,27,0,27,0,1,,,,,,,,,,,,,,,,,,,,,,,,,,,,,,,,,,,,,,,
,,,,,,,,2023-08-16_08h35.02.375,HF_wild_card,2022.2.4,Win32,59.18210333,5e56a4d1df03b70525535774,64d2fd46c836a06233681665,64dc7c10d51aec2c7bc546f9,,,,,,,decisionTrl,resources/DB.BMP,resources/DP.BMP,Door1,0.186197917,0.005208333,1,0,0,1.01,optionRight,30,5880,3,28,0,28,0,1,,,,,,,,,,,,,,,,,,,,,,,,,,,,,,,,,,,,,,,
,,,,,,,,2023-08-16_08h35.02.375,HF_wild_card,2022.2.4,Win32,59.18210333,5e56a4d1df03b70525535774,64d2fd46c836a06233681665,64dc7c10d51aec2c7bc546f9,,,,,,,decisionTrl,resources/DY.BMP,resources/DP.BMP,WildCard_Ex,-0.108072917,-0.001302083,1,0,0,0.7007,optionLeft,5,5885,3,29,0,29,0,1,,,,,,,,,,,,,,,,,,,,,,,,,,,,,,,,,,,,,,,
,,,,,,,,2023-08-16_08h35.02.375,HF_wild_card,2022.2.4,Win32,59.18210333,5e56a4d1df03b70525535774,64d2fd46c836a06233681665,64dc7c10d51aec2c7bc546f9,,,,,,,ctch,resources/DB.BMP,resources/DG.BMP,Door2,-0.141927083,-0.014322917,1,0,0,1.0078,optionLeft,20,5905,3,30,0,30,0,1,,,,,,,,,,,,,,,,,,,,,,,,,,,,,,,,,,,,,,,
,,,,,,,,2023-08-16_08h35.02.375,HF_wild_card,2022.2.4,Win32,59.18210333,5e56a4d1df03b70525535774,64d2fd46c836a06233681665,64dc7c10d51aec2c7bc546f9,,,,,,,decisionTrl,resources/DB.BMP,resources/DP.BMP,Door2,-0.174479167,-0.01953125,1,0,0,0.678,optionLeft,20,5925,3,31,0,31,0,1,,,,,,,,,,,,,,,,,,,,,,,,,,,,,,,,,,,,,,,
,,,,,,,,2023-08-16_08h35.02.375,HF_wild_card,2022.2.4,Win32,59.18210333,5e56a4d1df03b70525535774,64d2fd46c836a06233681665,64dc7c10d51aec2c7bc546f9,,,,,,,decisionTrl,resources/DG.BMP,resources/DR.BMP,Door3,-0.186197917,-0.01953125,1,0,0,0.7449,optionLeft,70,5995,3,32,0,32,0,1,,,,,,,,,,,,,,,,,,,,,,,,,,,,,,,,,,,,,,,
,,,,,,,,2023-08-16_08h35.02.375,HF_wild_card,2022.2.4,Win32,59.18210333,5e56a4d1df03b70525535774,64d2fd46c836a06233681665,64dc7c10d51aec2c7bc546f9,,,,,,,decisionTrl,resources/DR.BMP,resources/DG.BMP,Door4,-0.125,-0.0078125,1,0,0,0.7481,optionLeft,80,6075,3,33,0,33,0,1,,,,,,,,,,,,,,,,,,,,,,,,,,,,,,,,,,,,,,,
,,,,,,,,2023-08-16_08h35.02.375,HF_wild_card,2022.2.4,Win32,59.18210333,5e56a4d1df03b70525535774,64d2fd46c836a06233681665,64dc7c10d51aec2c7bc546f9,,,,,,,ctch,resources/DG.BMP,resources/DB.BMP,Door3,-0.131510417,-0.009114583,1,0,0,0.7297,optionLeft,70,6145,3,34,0,34,0,1,,,,,,,,,,,,,,,,,,,,,,,,,,,,,,,,,,,,,,,
,,,,,,,,2023-08-16_08h35.02.375,HF_wild_card,2022.2.4,Win32,59.18210333,5e56a4d1df03b70525535774,64d2fd46c836a06233681665,64dc7c10d51aec2c7bc546f9,,,,,,,decisionTrl,resources/DR.BMP,resources/DG.BMP,Door4,-0.123697917,-0.009114583,1,0,0,0.8126,optionLeft,60,6205,3,35,0,35,0,1,,,,,,,,,,,,,,,,,,,,,,,,,,,,,,,,,,,,,,,
,,,,,,,,2023-08-16_08h35.02.375,HF_wild_card,2022.2.4,Win32,59.18210333,5e56a4d1df03b70525535774,64d2fd46c836a06233681665,64dc7c10d51aec2c7bc546f9,,,,,,,sngl,resources/Empty.png,resources/DR.BMP,Door4,0.184895833,0.03515625,1,0,0,1.1271,optionRight,60,6265,3,36,0,36,0,1,,,,,,,,,,,,,,,,,,,,,,,,,,,,,,,,,,,,,,,
,,,,,,,,2023-08-16_08h35.02.375,HF_wild_card,2022.2.4,Win32,59.18210333,5e56a4d1df03b70525535774,64d2fd46c836a06233681665,64dc7c10d51aec2c7bc546f9,,,,,,,sngl,resources/DR.BMP,resources/Empty.png,Door4,-0.15625,0,1,0,0,0.8846,optionLeft,80,6345,3,37,0,37,0,1,,,,,,,,,,,,,,,,,,,,,,,,,,,,,,,,,,,,,,,
,,,,,,,,2023-08-16_08h35.02.375,HF_wild_card,2022.2.4,Win32,59.18210333,5e56a4d1df03b70525535774,64d2fd46c836a06233681665,64dc7c10d51aec2c7bc546f9,,,,,,,decisionTrl,resources/DG.BMP,resources/DR.BMP,Door3,-0.259114583,0.020833333,1,0,0,0.9687,optionLeft,70,6415,3,38,0,38,0,1,,,,,,,,,,,,,,,,,,,,,,,,,,,,,,,,,,,,,,,
,,,,,,,,2023-08-16_08h35.02.375,HF_wild_card,2022.2.4,Win32,59.18210333,5e56a4d1df03b70525535774,64d2fd46c836a06233681665,64dc7c10d51aec2c7bc546f9,,,,,,,decisionTrl,resources/DY.BMP,resources/DR.BMP,WildCard_Ex,-0.111979167,0.01953125,1,0,0,0.727,optionLeft,95,6510,3,39,0,39,0,1,,,,,,,,,,,,,,,,,,,,,,,,,,,,,,,,,,,,,,,
,,,,,,,,2023-08-16_08h35.02.375,HF_wild_card,2022.2.4,Win32,59.18210333,5e56a4d1df03b70525535774,64d2fd46c836a06233681665,64dc7c10d51aec2c7bc546f9,,,,,,,decisionTrl,resources/DR.BMP,resources/DY.BMP,Door4,-0.161458333,-0.010416667,1,0,0,0.7256,optionLeft,60,6570,3,40,0,40,0,1,,,,,,,,,,,,,,,,,,,,,,,,,,,,,,,,,,,,,,,
,,,,,,,,2023-08-16_08h35.02.375,HF_wild_card,2022.2.4,Win32,59.18210333,5e56a4d1df03b70525535774,64d2fd46c836a06233681665,64dc7c10d51aec2c7bc546f9,,,,,,,sngl,resources/DG.BMP,resources/Empty.png,Door3,-0.127604167,-0.014322917,1,0,0,1.0754,optionLeft,70,6640,3,41,0,41,0,1,,,,,,,,,,,,,,,,,,,,,,,,,,,,,,,,,,,,,,,
,,,,,,,,2023-08-16_08h35.02.375,HF_wild_card,2022.2.4,Win32,59.18210333,5e56a4d1df03b70525535774,64d2fd46c836a06233681665,64dc7c10d51aec2c7bc546f9,,,,,,,decisionTrl,resources/DP.BMP,resources/DB.BMP,Door2,0.126302083,0.009114583,1,0,0,1.1279,optionRight,20,6660,3,42,0,42,0,1,,,,,,,,,,,,,,,,,,,,,,,,,,,,,,,,,,,,,,,
,,,,,,,,2023-08-16_08h35.02.375,HF_wild_card,2022.2.4,Win32,59.18210333,5e56a4d1df03b70525535774,64d2fd46c836a06233681665,64dc7c10d51aec2c7bc546f9,,,,,,,ctch,resources/DR.BMP,resources/DP.BMP,Door4,-0.11328125,0.00390625,1,0,0,0.8923,optionLeft,60,6720,3,43,0,43,0,1,,,,,,,,,,,,,,,,,,,,,,,,,,,,,,,,,,,,,,,
,,,,,,,,2023-08-16_08h35.02.375,HF_wild_card,2022.2.4,Win32,59.18210333,5e56a4d1df03b70525535774,64d2fd46c836a06233681665,64dc7c10d51aec2c7bc546f9,,,,,,,,,,,,,,,,,,,,,,,,,,2,0,2,0,1,,,,,,,,,,,,,,,,,,,,,,,,,,,,,,,,,,
,,,,,,,,2023-08-16_08h35.02.375,HF_wild_card,2022.2.4,Win32,59.18210333,5e56a4d1df03b70525535774,64d2fd46c836a06233681665,64dc7c10d51aec2c7bc546f9,,,,,,,decisionTrl,resources/DG.BMP,resources/DR.BMP,Door3,-0.174479167,-0.079427083,1,0,0,1.9391,optionLeft,70,6790,4,0,0,0,0,1,,,,,,,,,,,,,,,,,,,,,,,,,,,,,,,,,,,,,,,
,,,,,,,,2023-08-16_08h35.02.375,HF_wild_card,2022.2.4,Win32,59.18210333,5e56a4d1df03b70525535774,64d2fd46c836a06233681665,64dc7c10d51aec2c7bc546f9,,,,,,,sngl,resources/Empty.png,resources/DP.BMP,Door1,0.12109375,-0.002604167,1,0,0,0.775,optionRight,30,6820,4,1,0,1,0,1,,,,,,,,,,,,,,,,,,,,,,,,,,,,,,,,,,,,,,,
,,,,,,,,2023-08-16_08h35.02.375,HF_wild_card,2022.2.4,Win32,59.18210333,5e56a4d1df03b70525535774,64d2fd46c836a06233681665,64dc7c10d51aec2c7bc546f9,,,,,,,sngl,resources/Empty.png,resources/DB.BMP,Door2,0.127604167,-0.024739583,1,0,0,0.8759,optionRight,40,6860,4,2,0,2,0,1,,,,,,,,,,,,,,,,,,,,,,,,,,,,,,,,,,,,,,,
,,,,,,,,2023-08-16_08h35.02.375,HF_wild_card,2022.2.4,Win32,59.18210333,5e56a4d1df03b70525535774,64d2fd46c836a06233681665,64dc7c10d51aec2c7bc546f9,,,,,,,sngl,resources/DP.BMP,resources/Empty.png,Door1,-0.145833333,0.03125,1,0,0,1.3999,optionLeft,30,6890,4,3,0,3,0,1,,,,,,,,,,,,,,,,,,,,,,,,,,,,,,,,,,,,,,,
,,,,,,,,2023-08-16_08h35.02.375,HF_wild_card,2022.2.4,Win32,59.18210333,5e56a4d1df03b70525535774,64d2fd46c836a06233681665,64dc7c10d51aec2c7bc546f9,,,,,,,ctch,resources/DG.BMP,resources/DB.BMP,Door3,-0.13671875,0.032552083,1,0,0,1.0027,optionLeft,70,6960,4,4,0,4,0,1,,,,,,,,,,,,,,,,,,,,,,,,,,,,,,,,,,,,,,,
,,,,,,,,2023-08-16_08h35.02.375,HF_wild_card,2022.2.4,Win32,59.18210333,5e56a4d1df03b70525535774,64d2fd46c836a06233681665,64dc7c10d51aec2c7bc546f9,,,,,,,decisionTrl,resources/DR.BMP,resources/DBN.BMP,WildCard_NonEx,0.122395833,0.0078125,1,0,0,1.129,optionRight,45,7005,4,5,0,5,0,1,,,,,,,,,,,,,,,,,,,,,,,,,,,,,,,,,,,,,,,
,,,,,,,,2023-08-16_08h35.02.375,HF_wild_card,2022.2.4,Win32,59.18210333,5e56a4d1df03b70525535774,64d2fd46c836a06233681665,64dc7c10d51aec2c7bc546f9,,,,,,,ctch,resources/DP.BMP,resources/DR.BMP,Door1,-0.15625,0.044270833,1,0,0,1.0006,optionLeft,30,7035,4,6,0,6,0,1,,,,,,,,,,,,,,,,,,,,,,,,,,,,,,,,,,,,,,,
,,,,,,,,2023-08-16_08h35.02.375,HF_wild_card,2022.2.4,Win32,59.18210333,5e56a4d1df03b70525535774,64d2fd46c836a06233681665,64dc7c10d51aec2c7bc546f9,,,,,,,decisionTrl,resources/DP.BMP,resources/DB.BMP,Door2,0.141927083,0.009114583,1,0,0,0.827,optionRight,40,7075,4,7,0,7,0,1,,,,,,,,,,,,,,,,,,,,,,,,,,,,,,,,,,,,,,,
,,,,,,,,2023-08-16_08h35.02.375,HF_wild_card,2022.2.4,Win32,59.18210333,5e56a4d1df03b70525535774,64d2fd46c836a06233681665,64dc7c10d51aec2c7bc546f9,,,,,,,decisionTrl,resources/DP.BMP,resources/DB.BMP,Door1,-0.16796875,0.045572917,1,0,0,1.0123,optionLeft,30,7105,4,8,0,8,0,1,,,,,,,,,,,,,,,,,,,,,,,,,,,,,,,,,,,,,,,
,,,,,,,,2023-08-16_08h35.02.375,HF_wild_card,2022.2.4,Win32,59.18210333,5e56a4d1df03b70525535774,64d2fd46c836a06233681665,64dc7c10d51aec2c7bc546f9,,,,,,,ctch,resources/DB.BMP,resources/DG.BMP,Door2,-0.135416667,0.053385417,1,0,0,0.9844,optionLeft,40,7145,4,9,0,9,0,1,,,,,,,,,,,,,,,,,,,,,,,,,,,,,,,,,,,,,,,
,,,,,,,,2023-08-16_08h35.02.375,HF_wild_card,2022.2.4,Win32,59.18210333,5e56a4d1df03b70525535774,64d2fd46c836a06233681665,64dc7c10d51aec2c7bc546f9,,,,,,,decisionTrl,resources/DG.BMP,resources/DR.BMP,Door3,-0.12890625,0.048177083,1,0,0,0.8424,optionLeft,70,7215,4,10,0,10,0,1,,,,,,,,,,,,,,,,,,,,,,,,,,,,,,,,,,,,,,,
,,,,,,,,2023-08-16_08h35.02.375,HF_wild_card,2022.2.4,Win32,59.18210333,5e56a4d1df03b70525535774,64d2fd46c836a06233681665,64dc7c10d51aec2c7bc546f9,,,,,,,decisionTrl,resources/DB.BMP,resources/DP.BMP,Door1,0.17578125,-0.024739583,1,0,0,0.896,optionRight,30,7245,4,11,0,11,0,1,,,,,,,,,,,,,,,,,,,,,,,,,,,,,,,,,,,,,,,
,,,,,,,,2023-08-16_08h35.02.375,HF_wild_card,2022.2.4,Win32,59.18210333,5e56a4d1df03b70525535774,64d2fd46c836a06233681665,64dc7c10d51aec2c7bc546f9,,,,,,,decisionTrl,resources/DP.BMP,resources/DBN.BMP,WildCard_NonEx,0.12890625,-0.03125,1,0,0,0.7793,optionRight,55,7300,4,12,0,12,0,1,,,,,,,,,,,,,,,,,,,,,,,,,,,,,,,,,,,,,,,
,,,,,,,,2023-08-16_08h35.02.375,HF_wild_card,2022.2.4,Win32,59.18210333,5e56a4d1df03b70525535774,64d2fd46c836a06233681665,64dc7c10d51aec2c7bc546f9,,,,,,,sngl,resources/DBN.BMP,resources/Empty.png,WildCard_NonEx,-0.147135417,0.005208333,1,0,0,0.9092,optionLeft,45,7345,4,13,0,13,0,1,,,,,,,,,,,,,,,,,,,,,,,,,,,,,,,,,,,,,,,
,,,,,,,,2023-08-16_08h35.02.375,HF_wild_card,2022.2.4,Win32,59.18210333,5e56a4d1df03b70525535774,64d2fd46c836a06233681665,64dc7c10d51aec2c7bc546f9,,,,,,,ctch,resources/DP.BMP,resources/DR.BMP,Door1,-0.135416667,0.084635417,1,0,0,1.6065,optionLeft,30,7375,4,14,0,14,0,1,,,,,,,,,,,,,,,,,,,,,,,,,,,,,,,,,,,,,,,
,,,,,,,,2023-08-16_08h35.02.375,HF_wild_card,2022.2.4,Win32,59.18210333,5e56a4d1df03b70525535774,64d2fd46c836a06233681665,64dc7c10d51aec2c7bc546f9,,,,,,,sngl,resources/DG.BMP,resources/Empty.png,Door3,-0.15234375,0.080729167,1,0,0,0.7815,optionLeft,70,7445,4,15,0,15,0,1,,,,,,,,,,,,,,,,,,,,,,,,,,,,,,,,,,,,,,,
,,,,,,,,2023-08-16_08h35.02.375,HF_wild_card,2022.2.4,Win32,59.18210333,5e56a4d1df03b70525535774,64d2fd46c836a06233681665,64dc7c10d51aec2c7bc546f9,,,,,,,decisionTrl,resources/DR.BMP,resources/DG.BMP,Door4,-0.165364583,0.07421875,1,0,0,0.9849,optionLeft,60,7505,4,16,0,16,0,1,,,,,,,,,,,,,,,,,,,,,,,,,,,,,,,,,,,,,,,
,,,,,,,,2023-08-16_08h35.02.375,HF_wild_card,2022.2.4,Win32,59.18210333,5e56a4d1df03b70525535774,64d2fd46c836a06233681665,64dc7c10d51aec2c7bc546f9,,,,,,,ctch,resources/DR.BMP,resources/DP.BMP,Door4,-0.171875,0.069010417,1,0,0,0.8005,optionLeft,80,7585,4,17,0,17,0,1,,,,,,,,,,,,,,,,,,,,,,,,,,,,,,,,,,,,,,,
,,,,,,,,2023-08-16_08h35.02.375,HF_wild_card,2022.2.4,Win32,59.18210333,5e56a4d1df03b70525535774,64d2fd46c836a06233681665,64dc7c10d51aec2c7bc546f9,,,,,,,decisionTrl,resources/DG.BMP,resources/DBN.BMP,Door3,-0.13671875,0.067708333,1,0,0,0.9929,optionLeft,70,7655,4,18,0,18,0,1,,,,,,,,,,,,,,,,,,,,,,,,,,,,,,,,,,,,,,,
,,,,,,,,2023-08-16_08h35.02.375,HF_wild_card,2022.2.4,Win32,59.18210333,5e56a4d1df03b70525535774,64d2fd46c836a06233681665,64dc7c10d51aec2c7bc546f9,,,,,,,sngl,resources/Empty.png,resources/DG.BMP,Door3,0.147135417,-0.055989583,1,0,0,0.9592,optionRight,70,7725,4,19,0,19,0,1,,,,,,,,,,,,,,,,,,,,,,,,,,,,,,,,,,,,,,,
,,,,,,,,2023-08-16_08h35.02.375,HF_wild_card,2022.2.4,Win32,59.18210333,5e56a4d1df03b70525535774,64d2fd46c836a06233681665,64dc7c10d51aec2c7bc546f9,,,,,,,decisionTrl,resources/DB.BMP,resources/DP.BMP,Door2,-0.111979167,0.016927083,1,0,0,0.8668,optionLeft,20,7745,4,20,0,20,0,1,,,,,,,,,,,,,,,,,,,,,,,,,,,,,,,,,,,,,,,
,,,,,,,,2023-08-16_08h35.02.375,HF_wild_card,2022.2.4,Win32,59.18210333,5e56a4d1df03b70525535774,64d2fd46c836a06233681665,64dc7c10d51aec2c7bc546f9,,,,,,,sngl,resources/Empty.png,resources/DR.BMP,Door4,0.141927083,-0.026041667,1,0,0,0.9379,optionRight,80,7825,4,21,0,21,0,1,,,,,,,,,,,,,,,,,,,,,,,,,,,,,,,,,,,,,,,
,,,,,,,,2023-08-16_08h35.02.375,HF_wild_card,2022.2.4,Win32,59.18210333,5e56a4d1df03b70525535774,64d2fd46c836a06233681665,64dc7c10d51aec2c7bc546f9,,,,,,,ctch,resources/DG.BMP,resources/DB.BMP,Door2,0.139322917,-0.032552083,1,0,0,1.1657,optionRight,20,7845,4,22,0,22,0,1,,,,,,,,,,,,,,,,,,,,,,,,,,,,,,,,,,,,,,,
,,,,,,,,2023-08-16_08h35.02.375,HF_wild_card,2022.2.4,Win32,59.18210333,5e56a4d1df03b70525535774,64d2fd46c836a06233681665,64dc7c10d51aec2c7bc546f9,,,,,,,ctch,resources/DR.BMP,resources/DP.BMP,Door1,0.15234375,-0.016927083,1,0,0,0.778,optionRight,30,7875,4,23,0,23,0,1,,,,,,,,,,,,,,,,,,,,,,,,,,,,,,,,,,,,,,,
,,,,,,,,2023-08-16_08h35.02.375,HF_wild_card,2022.2.4,Win32,59.18210333,5e56a4d1df03b70525535774,64d2fd46c836a06233681665,64dc7c10d51aec2c7bc546f9,,,,,,,ctch,resources/DB.BMP,resources/DG.BMP,Door3,0.201822917,-0.026041667,1,0,0,0.7621,optionRight,70,7945,4,24,0,24,0,1,,,,,,,,,,,,,,,,,,,,,,,,,,,,,,,,,,,,,,,
,,,,,,,,2023-08-16_08h35.02.375,HF_wild_card,2022.2.4,Win32,59.18210333,5e56a4d1df03b70525535774,64d2fd46c836a06233681665,64dc7c10d51aec2c7bc546f9,,,,,,,decisionTrl,resources/DBN.BMP,resources/DP.BMP,Door1,0.17578125,-0.00390625,1,0,0,0.8269,optionRight,30,7975,4,25,0,25,0,1,,,,,,,,,,,,,,,,,,,,,,,,,,,,,,,,,,,,,,,
,,,,,,,,2023-08-16_08h35.02.375,HF_wild_card,2022.2.4,Win32,59.18210333,5e56a4d1df03b70525535774,64d2fd46c836a06233681665,64dc7c10d51aec2c7bc546f9,,,,,,,decisionTrl,resources/DR.BMP,resources/DG.BMP,Door3,0.158854167,-0.015625,1,0,0,0.742,optionRight,70,8045,4,26,0,26,0,1,,,,,,,,,,,,,,,,,,,,,,,,,,,,,,,,,,,,,,,
,,,,,,,,2023-08-16_08h35.02.375,HF_wild_card,2022.2.4,Win32,59.18210333,5e56a4d1df03b70525535774,64d2fd46c836a06233681665,64dc7c10d51aec2c7bc546f9,,,,,,,decisionTrl,resources/DBN.BMP,resources/DB.BMP,Door2,0.13671875,-0.014322917,1,0,0,1.1046,optionRight,20,8065,4,27,0,27,0,1,,,,,,,,,,,,,,,,,,,,,,,,,,,,,,,,,,,,,,,
,,,,,,,,2023-08-16_08h35.02.375,HF_wild_card,2022.2.4,Win32,59.18210333,5e56a4d1df03b70525535774,64d2fd46c836a06233681665,64dc7c10d51aec2c7bc546f9,,,,,,,sngl,resources/DBN.BMP,resources/Empty.png,WildCard_NonEx,-0.170572917,0.045572917,1,0,0,0.7983,optionLeft,55,8120,4,28,0,28,0,1,,,,,,,,,,,,,,,,,,,,,,,,,,,,,,,,,,,,,,,
,,,,,,,,2023-08-16_08h35.02.375,HF_wild_card,2022.2.4,Win32,59.18210333,5e56a4d1df03b70525535774,64d2fd46c836a06233681665,64dc7c10d51aec2c7bc546f9,,,,,,,decisionTrl,resources/DR.BMP,resources/DG.BMP,Door4,-0.139322917,0.09765625,1,0,0,0.8359,optionLeft,80,8200,4,29,0,29,0,1,,,,,,,,,,,,,,,,,,,,,,,,,,,,,,,,,,,,,,,
,,,,,,,,2023-08-16_08h35.02.375,HF_wild_card,2022.2.4,Win32,59.18210333,5e56a4d1df03b70525535774,64d2fd46c836a06233681665,64dc7c10d51aec2c7bc546f9,,,,,,,decisionTrl,resources/DB.BMP,resources/DBN.BMP,Door2,-0.109375,0.079427083,1,0,0,0.9184,optionLeft,40,8240,4,30,0,30,0,1,,,,,,,,,,,,,,,,,,,,,,,,,,,,,,,,,,,,,,,
,,,,,,,,2023-08-16_08h35.02.375,HF_wild_card,2022.2.4,Win32,59.18210333,5e56a4d1df03b70525535774,64d2fd46c836a06233681665,64dc7c10d51aec2c7bc546f9,,,,,,,sngl,resources/Empty.png,resources/DBN.BMP,WildCard_NonEx,0.125,0.006510417,1,0,0,1.1943,optionRight,55,8295,4,31,0,31,0,1,,,,,,,,,,,,,,,,,,,,,,,,,,,,,,,,,,,,,,,
,,,,,,,,2023-08-16_08h35.02.375,HF_wild_card,2022.2.4,Win32,59.18210333,5e56a4d1df03b70525535774,64d2fd46c836a06233681665,64dc7c10d51aec2c7bc546f9,,,,,,,decisionTrl,resources/DG.BMP,resources/DR.BMP,Door4,0.109375,-0.006510417,1,0,0,0.959,optionRight,80,8375,4,32,0,32,0,1,,,,,,,,,,,,,,,,,,,,,,,,,,,,,,,,,,,,,,,
,,,,,,,,2023-08-16_08h35.02.375,HF_wild_card,2022.2.4,Win32,59.18210333,5e56a4d1df03b70525535774,64d2fd46c836a06233681665,64dc7c10d51aec2c7bc546f9,,,,,,,sngl,resources/Empty.png,resources/DBN.BMP,WildCard_NonEx,0.123697917,-0.0078125,1,0,0,0.7109,optionRight,45,8420,4,33,0,33,0,1,,,,,,,,,,,,,,,,,,,,,,,,,,,,,,,,,,,,,,,
,,,,,,,,2023-08-16_08h35.02.375,HF_wild_card,2022.2.4,Win32,59.18210333,5e56a4d1df03b70525535774,64d2fd46c836a06233681665,64dc7c10d51aec2c7bc546f9,,,,,,,decisionTrl,resources/DP.BMP,resources/DB.BMP,Door1,-0.147135417,0.0390625,1,0,0,0.7767,optionLeft,30,8450,4,34,0,34,0,1,,,,,,,,,,,,,,,,,,,,,,,,,,,,,,,,,,,,,,,
,,,,,,,,2023-08-16_08h35.02.375,HF_wild_card,2022.2.4,Win32,59.18210333,5e56a4d1df03b70525535774,64d2fd46c836a06233681665,64dc7c10d51aec2c7bc546f9,,,,,,,decisionTrl,resources/DP.BMP,resources/DB.BMP,Door1,-0.126302083,0.01953125,1,0,0,0.8638,optionLeft,30,8480,4,35,0,35,0,1,,,,,,,,,,,,,,,,,,,,,,,,,,,,,,,,,,,,,,,
,,,,,,,,2023-08-16_08h35.02.375,HF_wild_card,2022.2.4,Win32,59.18210333,5e56a4d1df03b70525535774,64d2fd46c836a06233681665,64dc7c10d51aec2c7bc546f9,,,,,,,decisionTrl,resources/DBN.BMP,resources/DR.BMP,Door4,0.118489583,-0.024739583,1,0,0,0.9495,optionRight,60,8540,4,36,0,36,0,1,,,,,,,,,,,,,,,,,,,,,,,,,,,,,,,,,,,,,,,
,,,,,,,,2023-08-16_08h35.02.375,HF_wild_card,2022.2.4,Win32,59.18210333,5e56a4d1df03b70525535774,64d2fd46c836a06233681665,64dc7c10d51aec2c7bc546f9,,,,,,,decisionTrl,resources/DBN.BMP,resources/DG.BMP,WildCard_NonEx,-0.2578125,0.092447917,1,0,0,0.9601,optionLeft,45,8585,4,37,0,37,0,1,,,,,,,,,,,,,,,,,,,,,,,,,,,,,,,,,,,,,,,
,,,,,,,,2023-08-16_08h35.02.375,HF_wild_card,2022.2.4,Win32,59.18210333,5e56a4d1df03b70525535774,64d2fd46c836a06233681665,64dc7c10d51aec2c7bc546f9,,,,,,,decisionTrl,resources/DB.BMP,resources/DP.BMP,Door1,0.14453125,0.005208333,1,0,0,2.8614,optionRight,30,8615,4,38,0,38,0,1,,,,,,,,,,,,,,,,,,,,,,,,,,,,,,,,,,,,,,,
,,,,,,,,2023-08-16_08h35.02.375,HF_wild_card,2022.2.4,Win32,59.18210333,5e56a4d1df03b70525535774,64d2fd46c836a06233681665,64dc7c10d51aec2c7bc546f9,,,,,,,decisionTrl,resources/DB.BMP,resources/DP.BMP,Door2,-0.127604167,0.032552083,1,0,0,1.1285,optionLeft,40,8655,4,39,0,39,0,1,,,,,,,,,,,,,,,,,,,,,,,,,,,,,,,,,,,,,,,
,,,,,,,,2023-08-16_08h35.02.375,HF_wild_card,2022.2.4,Win32,59.18210333,5e56a4d1df03b70525535774,64d2fd46c836a06233681665,64dc7c10d51aec2c7bc546f9,,,,,,,sngl,resources/DB.BMP,resources/Empty.png,Door2,-0.12890625,0.095052083,1,0,0,1.7406,optionLeft,20,8675,4,40,0,40,0,1,,,,,,,,,,,,,,,,,,,,,,,,,,,,,,,,,,,,,,,
,,,,,,,,2023-08-16_08h35.02.375,HF_wild_card,2022.2.4,Win32,59.18210333,5e56a4d1df03b70525535774,64d2fd46c836a06233681665,64dc7c10d51aec2c7bc546f9,,,,,,,sngl,resources/DR.BMP,resources/Empty.png,Door4,-0.1171875,0.08984375,1,0,0,1.0328,optionLeft,60,8735,4,41,0,41,0,1,,,,,,,,,,,,,,,,,,,,,,,,,,,,,,,,,,,,,,,
,,,,,,,,2023-08-16_08h35.02.375,HF_wild_card,2022.2.4,Win32,59.18210333,5e56a4d1df03b70525535774,64d2fd46c836a06233681665,64dc7c10d51aec2c7bc546f9,,,,,,,decisionTrl,resources/DG.BMP,resources/DR.BMP,Door4,0.138020833,0.018229167,1,0,0,1.0282,optionRight,80,8815,4,42,0,42,0,1,,,,,,,,,,,,,,,,,,,,,,,,,,,,,,,,,,,,,,,
,,,,,,,,2023-08-16_08h35.02.375,HF_wild_card,2022.2.4,Win32,59.18210333,5e56a4d1df03b70525535774,64d2fd46c836a06233681665,64dc7c10d51aec2c7bc546f9,,,,,,,decisionTrl,resources/DR.BMP,resources/DG.BMP,Door4,-0.13671875,0.067708333,1,0,0,1.0506,optionLeft,60,8875,4,43,0,43,0,1,,,,,,,,,,,,,,,,,,,,,,,,,,,,,,,,,,,,,,,
,,,,,,,,2023-08-16_08h35.02.375,HF_wild_card,2022.2.4,Win32,59.18210333,5e56a4d1df03b70525535774,64d2fd46c836a06233681665,64dc7c10d51aec2c7bc546f9,,,,,,,,,,,,,,,,,,,,,,,,,,3,0,3,0,1,,,,,,,,,,,,,,,,,,,,,,,,,,,,,,,,,,
,,,,,,,,2023-08-16_08h35.02.375,HF_wild_card,2022.2.4,Win32,59.18210333,5e56a4d1df03b70525535774,64d2fd46c836a06233681665,64dc7c10d51aec2c7bc546f9,,,,,,,decisionTrl,resources/DG.BMP,resources/DR.BMP,Door3,-0.126302083,-0.153645833,1,0,0,1.4209,optionLeft,70,8945,5,0,0,0,0,1,,,,,,,,,,,,,,,,,,,,,,,,,,,,,,,,,,,,,,,
,,,,,,,,2023-08-16_08h35.02.375,HF_wild_card,2022.2.4,Win32,59.18210333,5e56a4d1df03b70525535774,64d2fd46c836a06233681665,64dc7c10d51aec2c7bc546f9,,,,,,,ctch,resources/DB.BMP,resources/DG.BMP,Door2,-0.1875,0.020833333,1,0,0,0.7192,optionLeft,20,8965,5,1,0,1,0,1,,,,,,,,,,,,,,,,,,,,,,,,,,,,,,,,,,,,,,,
,,,,,,,,2023-08-16_08h35.02.375,HF_wild_card,2022.2.4,Win32,59.18210333,5e56a4d1df03b70525535774,64d2fd46c836a06233681665,64dc7c10d51aec2c7bc546f9,,,,,,,decisionTrl,resources/DR.BMP,resources/DG.BMP,Door4,-0.16015625,0.020833333,1,0,0,0.6751,optionLeft,80,9045,5,2,0,2,0,1,,,,,,,,,,,,,,,,,,,,,,,,,,,,,,,,,,,,,,,
,,,,,,,,2023-08-16_08h35.02.375,HF_wild_card,2022.2.4,Win32,59.18210333,5e56a4d1df03b70525535774,64d2fd46c836a06233681665,64dc7c10d51aec2c7bc546f9,,,,,,,sngl,resources/Empty.png,resources/DB.BMP,Door2,0.16015625,0.016927083,1,0,0,0.9616,optionRight,20,9065,5,3,0,3,0,1,,,,,,,,,,,,,,,,,,,,,,,,,,,,,,,,,,,,,,,
,,,,,,,,2023-08-16_08h35.02.375,HF_wild_card,2022.2.4,Win32,59.18210333,5e56a4d1df03b70525535774,64d2fd46c836a06233681665,64dc7c10d51aec2c7bc546f9,,,,,,,decisionTrl,resources/DG.BMP,resources/DR.BMP,Door3,-0.158854167,0.040364583,1,0,0,0.9765,optionLeft,70,9135,5,4,0,4,0,1,,,,,,,,,,,,,,,,,,,,,,,,,,,,,,,,,,,,,,,
,,,,,,,,2023-08-16_08h35.02.375,HF_wild_card,2022.2.4,Win32,59.18210333,5e56a4d1df03b70525535774,64d2fd46c836a06233681665,64dc7c10d51aec2c7bc546f9,,,,,,,decisionTrl,resources/DR.BMP,resources/DG.BMP,Door4,-0.110677083,0.0390625,1,0,0,0.7524,optionLeft,80,9215,5,5,0,5,0,1,,,,,,,,,,,,,,,,,,,,,,,,,,,,,,,,,,,,,,,
,,,,,,,,2023-08-16_08h35.02.375,HF_wild_card,2022.2.4,Win32,59.18210333,5e56a4d1df03b70525535774,64d2fd46c836a06233681665,64dc7c10d51aec2c7bc546f9,,,,,,,decisionTrl,resources/DG.BMP,resources/DR.BMP,Door3,-0.115885417,0.0078125,1,0,0,0.7314,optionLeft,70,9285,5,6,0,6,0,1,,,,,,,,,,,,,,,,,,,,,,,,,,,,,,,,,,,,,,,
,,,,,,,,2023-08-16_08h35.02.375,HF_wild_card,2022.2.4,Win32,59.18210333,5e56a4d1df03b70525535774,64d2fd46c836a06233681665,64dc7c10d51aec2c7bc546f9,,,,,,,sngl,resources/Empty.png,resources/DG.BMP,Door3,0.12890625,0.001302083,1,0,0,0.9489,optionRight,70,9355,5,7,0,7,0,1,,,,,,,,,,,,,,,,,,,,,,,,,,,,,,,,,,,,,,,
,,,,,,,,2023-08-16_08h35.02.375,HF_wild_card,2022.2.4,Win32,59.18210333,5e56a4d1df03b70525535774,64d2fd46c836a06233681665,64dc7c10d51aec2c7bc546f9,,,,,,,decisionTrl,resources/DP.BMP,resources/DB.BMP,Door1,-0.12890625,0.01953125,1,0,0,1.0847,optionLeft,30,9385,5,8,0,8,0,1,,,,,,,,,,,,,,,,,,,,,,,,,,,,,,,,,,,,,,,
,,,,,,,,2023-08-16_08h35.02.375,HF_wild_card,2022.2.4,Win32,59.18210333,5e56a4d1df03b70525535774,64d2fd46c836a06233681665,64dc7c10d51aec2c7bc546f9,,,,,,,decisionTrl,resources/DBN.BMP,resources/DP.BMP,WildCard_NonEx,-0.118489583,0.033854167,1,0,0,1.1665,optionLeft,55,9440,5,9,0,9,0,1,,,,,,,,,,,,,,,,,,,,,,,,,,,,,,,,,,,,,,,
,,,,,,,,2023-08-16_08h35.02.375,HF_wild_card,2022.2.4,Win32,59.18210333,5e56a4d1df03b70525535774,64d2fd46c836a06233681665,64dc7c10d51aec2c7bc546f9,,,,,,,sngl,resources/Empty.png,resources/DBN.BMP,WildCard_NonEx,0.131510417,0.03125,1,0,0,0.8791,optionRight,55,9495,5,10,0,10,0,1,,,,,,,,,,,,,,,,,,,,,,,,,,,,,,,,,,,,,,,
,,,,,,,,2023-08-16_08h35.02.375,HF_wild_card,2022.2.4,Win32,59.18210333,5e56a4d1df03b70525535774,64d2fd46c836a06233681665,64dc7c10d51aec2c7bc546f9,,,,,,,decisionTrl,resources/DR.BMP,resources/DBN.BMP,WildCard_NonEx,0.178385417,0.059895833,1,0,0,1.0996,optionRight,45,9540,5,11,0,11,0,1,,,,,,,,,,,,,,,,,,,,,,,,,,,,,,,,,,,,,,,
,,,,,,,,2023-08-16_08h35.02.375,HF_wild_card,2022.2.4,Win32,59.18210333,5e56a4d1df03b70525535774,64d2fd46c836a06233681665,64dc7c10d51aec2c7bc546f9,,,,,,,decisionTrl,resources/DB.BMP,resources/DP.BMP,Door2,-0.125,0.0546875,1,0,0,1.1102,optionLeft,20,9560,5,12,0,12,0,1,,,,,,,,,,,,,,,,,,,,,,,,,,,,,,,,,,,,,,,
,,,,,,,,2023-08-16_08h35.02.375,HF_wild_card,2022.2.4,Win32,59.18210333,5e56a4d1df03b70525535774,64d2fd46c836a06233681665,64dc7c10d51aec2c7bc546f9,,,,,,,ctch,resources/DP.BMP,resources/DR.BMP,Door1,-0.141927083,0.015625,1,0,0,0.7088,optionLeft,30,9590,5,13,0,13,0,1,,,,,,,,,,,,,,,,,,,,,,,,,,,,,,,,,,,,,,,
,,,,,,,,2023-08-16_08h35.02.375,HF_wild_card,2022.2.4,Win32,59.18210333,5e56a4d1df03b70525535774,64d2fd46c836a06233681665,64dc7c10d51aec2c7bc546f9,,,,,,,decisionTrl,resources/DR.BMP,resources/DG.BMP,Door4,-0.15625,0.024739583,1,0,0,0.9773,optionLeft,80,9670,5,14,0,14,0,1,,,,,,,,,,,,,,,,,,,,,,,,,,,,,,,,,,,,,,,
,,,,,,,,2023-08-16_08h35.02.375,HF_wild_card,2022.2.4,Win32,59.18210333,5e56a4d1df03b70525535774,64d2fd46c836a06233681665,64dc7c10d51aec2c7bc546f9,,,,,,,ctch,resources/DG.BMP,resources/DB.BMP,Door3,-0.1328125,0,1,0,0,0.9121,optionLeft,70,9740,5,15,0,15,0,1,,,,,,,,,,,,,,,,,,,,,,,,,,,,,,,,,,,,,,,
,,,,,,,,2023-08-16_08h35.02.375,HF_wild_card,2022.2.4,Win32,59.18210333,5e56a4d1df03b70525535774,64d2fd46c836a06233681665,64dc7c10d51aec2c7bc546f9,,,,,,,decisionTrl,resources/DB.BMP,resources/DBN.BMP,Door2,-0.1328125,-0.002604167,1,0,0,0.7483,optionLeft,20,9760,5,16,0,16,0,1,,,,,,,,,,,,,,,,,,,,,,,,,,,,,,,,,,,,,,,
,,,,,,,,2023-08-16_08h35.02.375,HF_wild_card,2022.2.4,Win32,59.18210333,5e56a4d1df03b70525535774,64d2fd46c836a06233681665,64dc7c10d51aec2c7bc546f9,,,,,,,sngl,resources/DB.BMP,resources/Empty.png,Door2,-0.125,0.006510417,1,0,0,0.829,optionLeft,40,9800,5,17,0,17,0,1,,,,,,,,,,,,,,,,,,,,,,,,,,,,,,,,,,,,,,,
,,,,,,,,2023-08-16_08h35.02.375,HF_wild_card,2022.2.4,Win32,59.18210333,5e56a4d1df03b70525535774,64d2fd46c836a06233681665,64dc7c10d51aec2c7bc546f9,,,,,,,decisionTrl,resources/DG.BMP,resources/DR.BMP,Door3,-0.114583333,-0.001302083,1,0,0,0.8156,optionLeft,70,9870,5,18,0,18,0,1,,,,,,,,,,,,,,,,,,,,,,,,,,,,,,,,,,,,,,,
,,,,,,,,2023-08-16_08h35.02.375,HF_wild_card,2022.2.4,Win32,59.18210333,5e56a4d1df03b70525535774,64d2fd46c836a06233681665,64dc7c10d51aec2c7bc546f9,,,,,,,decisionTrl,resources/DP.BMP,resources/DBN.BMP,Door1,-0.151041667,-0.00390625,1,0,0,0.9449,optionLeft,30,9900,5,19,0,19,0,1,,,,,,,,,,,,,,,,,,,,,,,,,,,,,,,,,,,,,,,
,,,,,,,,2023-08-16_08h35.02.375,HF_wild_card,2022.2.4,Win32,59.18210333,5e56a4d1df03b70525535774,64d2fd46c836a06233681665,64dc7c10d51aec2c7bc546f9,,,,,,,decisionTrl,resources/DBN.BMP,resources/DR.BMP,WildCard_NonEx,-0.161458333,0.014322917,1,0,0,0.8463,optionLeft,45,9945,5,20,0,20,0,1,,,,,,,,,,,,,,,,,,,,,,,,,,,,,,,,,,,,,,,
,,,,,,,,2023-08-16_08h35.02.375,HF_wild_card,2022.2.4,Win32,59.18210333,5e56a4d1df03b70525535774,64d2fd46c836a06233681665,64dc7c10d51aec2c7bc546f9,,,,,,,decisionTrl,resources/DP.BMP,resources/DB.BMP,Door1,-0.135416667,0.01171875,1,0,0,1.0224,optionLeft,30,9975,5,21,0,21,0,1,,,,,,,,,,,,,,,,,,,,,,,,,,,,,,,,,,,,,,,
,,,,,,,,2023-08-16_08h35.02.375,HF_wild_card,2022.2.4,Win32,59.18210333,5e56a4d1df03b70525535774,64d2fd46c836a06233681665,64dc7c10d51aec2c7bc546f9,,,,,,,decisionTrl,resources/DBN.BMP,resources/DB.BMP,WildCard_NonEx,-0.149739583,-0.0078125,1,0,0,0.8436,optionLeft,55,10030,5,22,0,22,0,1,,,,,,,,,,,,,,,,,,,,,,,,,,,,,,,,,,,,,,,
,,,,,,,,2023-08-16_08h35.02.375,HF_wild_card,2022.2.4,Win32,59.18210333,5e56a4d1df03b70525535774,64d2fd46c836a06233681665,64dc7c10d51aec2c7bc546f9,,,,,,,sngl,resources/Empty.png,resources/DR.BMP,Door4,0.140625,0.006510417,1,0,0,1.0293,optionRight,60,10090,5,23,0,23,0,1,,,,,,,,,,,,,,,,,,,,,,,,,,,,,,,,,,,,,,,
,,,,,,,,2023-08-16_08h35.02.375,HF_wild_card,2022.2.4,Win32,59.18210333,5e56a4d1df03b70525535774,64d2fd46c836a06233681665,64dc7c10d51aec2c7bc546f9,,,,,,,decisionTrl,resources/DP.BMP,resources/DB.BMP,Door1,-0.12109375,0.010416667,1,0,0,0.7413,optionLeft,30,10120,5,24,0,24,0,1,,,,,,,,,,,,,,,,,,,,,,,,,,,,,,,,,,,,,,,
,,,,,,,,2023-08-16_08h35.02.375,HF_wild_card,2022.2.4,Win32,59.18210333,5e56a4d1df03b70525535774,64d2fd46c836a06233681665,64dc7c10d51aec2c7bc546f9,,,,,,,decisionTrl,resources/DB.BMP,resources/DP.BMP,Door1,0.154947917,0.010416667,1,0,0,0.6961,optionRight,30,10150,5,25,0,25,0,1,,,,,,,,,,,,,,,,,,,,,,,,,,,,,,,,,,,,,,,
,,,,,,,,2023-08-16_08h35.02.375,HF_wild_card,2022.2.4,Win32,59.18210333,5e56a4d1df03b70525535774,64d2fd46c836a06233681665,64dc7c10d51aec2c7bc546f9,,,,,,,decisionTrl,resources/DR.BMP,resources/DG.BMP,Door4,-0.158854167,0.01171875,1,0,0,0.7344,optionLeft,60,10210,5,26,0,26,0,1,,,,,,,,,,,,,,,,,,,,,,,,,,,,,,,,,,,,,,,
,,,,,,,,2023-08-16_08h35.02.375,HF_wild_card,2022.2.4,Win32,59.18210333,5e56a4d1df03b70525535774,64d2fd46c836a06233681665,64dc7c10d51aec2c7bc546f9,,,,,,,ctch,resources/DR.BMP,resources/DP.BMP,Door4,-0.16796875,0.002604167,1,0,0,0.7322,optionLeft,60,10270,5,27,0,27,0,1,,,,,,,,,,,,,,,,,,,,,,,,,,,,,,,,,,,,,,,
,,,,,,,,2023-08-16_08h35.02.375,HF_wild_card,2022.2.4,Win32,59.18210333,5e56a4d1df03b70525535774,64d2fd46c836a06233681665,64dc7c10d51aec2c7bc546f9,,,,,,,sngl,resources/DG.BMP,resources/Empty.png,Door3,-0.130208333,-0.0078125,1,0,0,0.8454,optionLeft,70,10340,5,28,0,28,0,1,,,,,,,,,,,,,,,,,,,,,,,,,,,,,,,,,,,,,,,
,,,,,,,,2023-08-16_08h35.02.375,HF_wild_card,2022.2.4,Win32,59.18210333,5e56a4d1df03b70525535774,64d2fd46c836a06233681665,64dc7c10d51aec2c7bc546f9,,,,,,,decisionTrl,resources/DB.BMP,resources/DP.BMP,Door2,-0.1484375,-0.010416667,1,0,0,0.8772,optionLeft,20,10360,5,29,0,29,0,1,,,,,,,,,,,,,,,,,,,,,,,,,,,,,,,,,,,,,,,
,,,,,,,,2023-08-16_08h35.02.375,HF_wild_card,2022.2.4,Win32,59.18210333,5e56a4d1df03b70525535774,64d2fd46c836a06233681665,64dc7c10d51aec2c7bc546f9,,,,,,,ctch,resources/DP.BMP,resources/DR.BMP,Door4,0.13671875,0.010416667,1,0,0,0.7293,optionRight,60,10420,5,30,0,30,0,1,,,,,,,,,,,,,,,,,,,,,,,,,,,,,,,,,,,,,,,
,,,,,,,,2023-08-16_08h35.02.375,HF_wild_card,2022.2.4,Win32,59.18210333,5e56a4d1df03b70525535774,64d2fd46c836a06233681665,64dc7c10d51aec2c7bc546f9,,,,,,,sngl,resources/DBN.BMP,resources/Empty.png,WildCard_NonEx,-0.130208333,0.0078125,1,0,0,1.0986,optionLeft,45,10465,5,31,0,31,0,1,,,,,,,,,,,,,,,,,,,,,,,,,,,,,,,,,,,,,,,
,,,,,,,,2023-08-16_08h35.02.375,HF_wild_card,2022.2.4,Win32,59.18210333,5e56a4d1df03b70525535774,64d2fd46c836a06233681665,64dc7c10d51aec2c7bc546f9,,,,,,,sngl,resources/Empty.png,resources/DP.BMP,Door1,0.12109375,0.00390625,1,0,0,0.8149,optionRight,30,10495,5,32,0,32,0,1,,,,,,,,,,,,,,,,,,,,,,,,,,,,,,,,,,,,,,,
,,,,,,,,2023-08-16_08h35.02.375,HF_wild_card,2022.2.4,Win32,59.18210333,5e56a4d1df03b70525535774,64d2fd46c836a06233681665,64dc7c10d51aec2c7bc546f9,,,,,,,ctch,resources/DG.BMP,resources/DB.BMP,Door2,0.122395833,0.00390625,1,0,0,1.2121,optionRight,20,10515,5,33,0,33,0,1,,,,,,,,,,,,,,,,,,,,,,,,,,,,,,,,,,,,,,,
,,,,,,,,2023-08-16_08h35.02.375,HF_wild_card,2022.2.4,Win32,59.18210333,5e56a4d1df03b70525535774,64d2fd46c836a06233681665,64dc7c10d51aec2c7bc546f9,,,,,,,ctch,resources/DR.BMP,resources/DP.BMP,Door4,-0.10546875,0.015625,1,0,0,0.7363,optionLeft,80,10595,5,34,0,34,0,1,,,,,,,,,,,,,,,,,,,,,,,,,,,,,,,,,,,,,,,
,,,,,,,,2023-08-16_08h35.02.375,HF_wild_card,2022.2.4,Win32,59.18210333,5e56a4d1df03b70525535774,64d2fd46c836a06233681665,64dc7c10d51aec2c7bc546f9,,,,,,,sngl,resources/Empty.png,resources/DBN.BMP,WildCard_NonEx,0.106770833,0,1,0,0,0.8935,optionRight,45,10640,5,35,0,35,0,1,,,,,,,,,,,,,,,,,,,,,,,,,,,,,,,,,,,,,,,
,,,,,,,,2023-08-16_08h35.02.375,HF_wild_card,2022.2.4,Win32,59.18210333,5e56a4d1df03b70525535774,64d2fd46c836a06233681665,64dc7c10d51aec2c7bc546f9,,,,,,,decisionTrl,resources/DBN.BMP,resources/DG.BMP,WildCard_NonEx,-0.125,-0.015625,1,0,0,0.9302,optionLeft,45,10685,5,36,0,36,0,1,,,,,,,,,,,,,,,,,,,,,,,,,,,,,,,,,,,,,,,
,,,,,,,,2023-08-16_08h35.02.375,HF_wild_card,2022.2.4,Win32,59.18210333,5e56a4d1df03b70525535774,64d2fd46c836a06233681665,64dc7c10d51aec2c7bc546f9,,,,,,,decisionTrl,resources/DB.BMP,resources/DP.BMP,Door1,0.11328125,0.001302083,1,0,0,1.3792,optionRight,30,10715,5,37,0,37,0,1,,,,,,,,,,,,,,,,,,,,,,,,,,,,,,,,,,,,,,,
,,,,,,,,2023-08-16_08h35.02.375,HF_wild_card,2022.2.4,Win32,59.18210333,5e56a4d1df03b70525535774,64d2fd46c836a06233681665,64dc7c10d51aec2c7bc546f9,,,,,,,ctch,resources/DB.BMP,resources/DG.BMP,Door2,-0.119791667,0.03125,1,0,0,0.9238,optionLeft,40,10755,5,38,0,38,0,1,,,,,,,,,,,,,,,,,,,,,,,,,,,,,,,,,,,,,,,
,,,,,,,,2023-08-16_08h35.02.375,HF_wild_card,2022.2.4,Win32,59.18210333,5e56a4d1df03b70525535774,64d2fd46c836a06233681665,64dc7c10d51aec2c7bc546f9,,,,,,,sngl,resources/DR.BMP,resources/Empty.png,Door4,-0.122395833,0,1,0,0,1.0773,optionLeft,80,10835,5,39,0,39,0,1,,,,,,,,,,,,,,,,,,,,,,,,,,,,,,,,,,,,,,,
,,,,,,,,2023-08-16_08h35.02.375,HF_wild_card,2022.2.4,Win32,59.18210333,5e56a4d1df03b70525535774,64d2fd46c836a06233681665,64dc7c10d51aec2c7bc546f9,,,,,,,sngl,resources/DP.BMP,resources/Empty.png,Door1,-0.13671875,0.044270833,1,0,0,1.0959,optionLeft,30,10865,5,40,0,40,0,1,,,,,,,,,,,,,,,,,,,,,,,,,,,,,,,,,,,,,,,
,,,,,,,,2023-08-16_08h35.02.375,HF_wild_card,2022.2.4,Win32,59.18210333,5e56a4d1df03b70525535774,64d2fd46c836a06233681665,64dc7c10d51aec2c7bc546f9,,,,,,,sngl,resources/DBN.BMP,resources/Empty.png,WildCard_NonEx,-0.106770833,0.049479167,1,0,0,1.1774,optionLeft,55,10920,5,41,0,41,0,1,,,,,,,,,,,,,,,,,,,,,,,,,,,,,,,,,,,,,,,
,,,,,,,,2023-08-16_08h35.02.375,HF_wild_card,2022.2.4,Win32,59.18210333,5e56a4d1df03b70525535774,64d2fd46c836a06233681665,64dc7c10d51aec2c7bc546f9,,,,,,,decisionTrl,resources/DG.BMP,resources/DBN.BMP,WildCard_NonEx,0.131510417,0.020833333,1,0,0,0.9759,optionRight,55,10975,5,42,0,42,0,1,,,,,,,,,,,,,,,,,,,,,,,,,,,,,,,,,,,,,,,
,,,,,,,,2023-08-16_08h35.02.375,HF_wild_card,2022.2.4,Win32,59.18210333,5e56a4d1df03b70525535774,64d2fd46c836a06233681665,64dc7c10d51aec2c7bc546f9,,,,,,,decisionTrl,resources/DP.BMP,resources/DB.BMP,Door1,-0.1484375,0.087239583,1,0,0,1.22,optionLeft,30,11005,5,43,0,43,0,1,,,,,,,,,,,,,,,,,,,,,,,,,,,,,,,,,,,,,,,
,,,,,,,,2023-08-16_08h35.02.375,HF_wild_card,2022.2.4,Win32,59.18210333,5e56a4d1df03b70525535774,64d2fd46c836a06233681665,64dc7c10d51aec2c7bc546f9,,,,,,,,,,,,,,,,,,,,,,,,,,4,0,4,0,1,,,,,,,,,,,,,,,,,,,,,,,,,,,,,,,,,,
,,,,,,,,2023-08-16_08h35.02.375,HF_wild_card,2022.2.4,Win32,59.18210333,5e56a4d1df03b70525535774,64d2fd46c836a06233681665,64dc7c10d51aec2c7bc546f9,,,,,,,ctch,resources/DB.BMP,resources/DG.BMP,Door2,-0.123697917,-0.173177083,1,0,0,1.4293,optionLeft,40,11045,6,0,0,0,0,1,,,,,,,,,,,,,,,,,,,,,,,,,,,,,,,,,,,,,,,
,,,,,,,,2023-08-16_08h35.02.375,HF_wild_card,2022.2.4,Win32,59.18210333,5e56a4d1df03b70525535774,64d2fd46c836a06233681665,64dc7c10d51aec2c7bc546f9,,,,,,,sngl,resources/DR.BMP,resources/Empty.png,Door4,-0.153645833,-0.0234375,1,0,0,0.8204,optionLeft,60,11105,6,1,0,1,0,1,,,,,,,,,,,,,,,,,,,,,,,,,,,,,,,,,,,,,,,
,,,,,,,,2023-08-16_08h35.02.375,HF_wild_card,2022.2.4,Win32,59.18210333,5e56a4d1df03b70525535774,64d2fd46c836a06233681665,64dc7c10d51aec2c7bc546f9,,,,,,,decisionTrl,resources/DG.BMP,resources/DR.BMP,Door3,-0.161458333,-0.024739583,1,0,0,0.7795,optionLeft,70,11175,6,2,0,2,0,1,,,,,,,,,,,,,,,,,,,,,,,,,,,,,,,,,,,,,,,
,,,,,,,,2023-08-16_08h35.02.375,HF_wild_card,2022.2.4,Win32,59.18210333,5e56a4d1df03b70525535774,64d2fd46c836a06233681665,64dc7c10d51aec2c7bc546f9,,,,,,,decisionTrl,resources/DB.BMP,resources/DP.BMP,Door1,0.134114583,-0.001302083,1,0,0,1.062,optionRight,30,11205,6,3,0,3,0,1,,,,,,,,,,,,,,,,,,,,,,,,,,,,,,,,,,,,,,,
,,,,,,,,2023-08-16_08h35.02.375,HF_wild_card,2022.2.4,Win32,59.18210333,5e56a4d1df03b70525535774,64d2fd46c836a06233681665,64dc7c10d51aec2c7bc546f9,,,,,,,decisionTrl,resources/DR.BMP,resources/DG.BMP,Door4,-0.143229167,0.006510417,1,0,0,1.6902,optionLeft,80,11285,6,4,0,4,0,1,,,,,,,,,,,,,,,,,,,,,,,,,,,,,,,,,,,,,,,
,,,,,,,,2023-08-16_08h35.02.375,HF_wild_card,2022.2.4,Win32,59.18210333,5e56a4d1df03b70525535774,64d2fd46c836a06233681665,64dc7c10d51aec2c7bc546f9,,,,,,,decisionTrl,resources/DG.BMP,resources/DR.BMP,Door4,0.140625,0.01171875,1,0,0,1.0466,optionRight,80,11365,6,5,0,5,0,1,,,,,,,,,,,,,,,,,,,,,,,,,,,,,,,,,,,,,,,
,,,,,,,,2023-08-16_08h35.02.375,HF_wild_card,2022.2.4,Win32,59.18210333,5e56a4d1df03b70525535774,64d2fd46c836a06233681665,64dc7c10d51aec2c7bc546f9,,,,,,,sngl,resources/Empty.png,resources/DBN.BMP,WildCard_NonEx,0.16796875,0.024739583,1,0,0,0.8554,optionRight,45,11410,6,6,0,6,0,1,,,,,,,,,,,,,,,,,,,,,,,,,,,,,,,,,,,,,,,
,,,,,,,,2023-08-16_08h35.02.375,HF_wild_card,2022.2.4,Win32,59.18210333,5e56a4d1df03b70525535774,64d2fd46c836a06233681665,64dc7c10d51aec2c7bc546f9,,,,,,,decisionTrl,resources/DR.BMP,resources/DG.BMP,Door4,-0.186197917,-0.03515625,1,0,0,1.2089,optionLeft,60,11470,6,7,0,7,0,1,,,,,,,,,,,,,,,,,,,,,,,,,,,,,,,,,,,,,,,
,,,,,,,,2023-08-16_08h35.02.375,HF_wild_card,2022.2.4,Win32,59.18210333,5e56a4d1df03b70525535774,64d2fd46c836a06233681665,64dc7c10d51aec2c7bc546f9,,,,,,,sngl,resources/Empty.png,resources/DP.BMP,Door1,0.118489583,0.013020833,1,0,0,1.4298,optionRight,30,11500,6,8,0,8,0,1,,,,,,,,,,,,,,,,,,,,,,,,,,,,,,,,,,,,,,,
,,,,,,,,2023-08-16_08h35.02.375,HF_wild_card,2022.2.4,Win32,59.18210333,5e56a4d1df03b70525535774,64d2fd46c836a06233681665,64dc7c10d51aec2c7bc546f9,,,,,,,sngl,resources/Empty.png,resources/DBN.BMP,WildCard_NonEx,0.123697917,0.015625,1,0,0,1.4599,optionRight,55,11555,6,9,0,9,0,1,,,,,,,,,,,,,,,,,,,,,,,,,,,,,,,,,,,,,,,
,,,,,,,,2023-08-16_08h35.02.375,HF_wild_card,2022.2.4,Win32,59.18210333,5e56a4d1df03b70525535774,64d2fd46c836a06233681665,64dc7c10d51aec2c7bc546f9,,,,,,,sngl,resources/DG.BMP,resources/Empty.png,Door3,-0.114583333,0.005208333,1,0,0,1.2863,optionLeft,70,11625,6,10,0,10,0,1,,,,,,,,,,,,,,,,,,,,,,,,,,,,,,,,,,,,,,,
,,,,,,,,2023-08-16_08h35.02.375,HF_wild_card,2022.2.4,Win32,59.18210333,5e56a4d1df03b70525535774,64d2fd46c836a06233681665,64dc7c10d51aec2c7bc546f9,,,,,,,decisionTrl,resources/DBN.BMP,resources/DR.BMP,Door4,0.122395833,0.0234375,1,0,0,1.0124,optionRight,80,11705,6,11,0,11,0,1,,,,,,,,,,,,,,,,,,,,,,,,,,,,,,,,,,,,,,,
,,,,,,,,2023-08-16_08h35.02.375,HF_wild_card,2022.2.4,Win32,59.18210333,5e56a4d1df03b70525535774,64d2fd46c836a06233681665,64dc7c10d51aec2c7bc546f9,,,,,,,ctch,resources/DG.BMP,resources/DB.BMP,Door3,-0.135416667,0.01171875,1,0,0,0.8492,optionLeft,70,11775,6,12,0,12,0,1,,,,,,,,,,,,,,,,,,,,,,,,,,,,,,,,,,,,,,,
,,,,,,,,2023-08-16_08h35.02.375,HF_wild_card,2022.2.4,Win32,59.18210333,5e56a4d1df03b70525535774,64d2fd46c836a06233681665,64dc7c10d51aec2c7bc546f9,,,,,,,sngl,resources/Empty.png,resources/DB.BMP,Door2,0.153645833,0.006510417,1,0,0,0.9254,optionRight,40,11815,6,13,0,13,0,1,,,,,,,,,,,,,,,,,,,,,,,,,,,,,,,,,,,,,,,
,,,,,,,,2023-08-16_08h35.02.375,HF_wild_card,2022.2.4,Win32,59.18210333,5e56a4d1df03b70525535774,64d2fd46c836a06233681665,64dc7c10d51aec2c7bc546f9,,,,,,,decisionTrl,resources/DB.BMP,resources/DP.BMP,Door2,-0.126302083,-0.002604167,1,0,0,2.981,optionLeft,40,11855,6,14,0,14,0,1,,,,,,,,,,,,,,,,,,,,,,,,,,,,,,,,,,,,,,,
,,,,,,,,2023-08-16_08h35.02.375,HF_wild_card,2022.2.4,Win32,59.18210333,5e56a4d1df03b70525535774,64d2fd46c836a06233681665,64dc7c10d51aec2c7bc546f9,,,,,,,decisionTrl,resources/DG.BMP,resources/DR.BMP,Door4,0.1328125,-0.00390625,1,0,0,4.424,optionRight,60,11915,6,15,0,15,0,1,,,,,,,,,,,,,,,,,,,,,,,,,,,,,,,,,,,,,,,
,,,,,,,,2023-08-16_08h35.02.375,HF_wild_card,2022.2.4,Win32,59.18210333,5e56a4d1df03b70525535774,64d2fd46c836a06233681665,64dc7c10d51aec2c7bc546f9,,,,,,,decisionTrl,resources/DR.BMP,resources/DG.BMP,Door4,-0.12109375,0.020833333,1,0,0,1.6975,optionLeft,80,11995,6,16,0,16,0,1,,,,,,,,,,,,,,,,,,,,,,,,,,,,,,,,,,,,,,,
,,,,,,,,2023-08-16_08h35.02.375,HF_wild_card,2022.2.4,Win32,59.18210333,5e56a4d1df03b70525535774,64d2fd46c836a06233681665,64dc7c10d51aec2c7bc546f9,,,,,,,decisionTrl,resources/DP.BMP,resources/DB.BMP,Door1,-0.123697917,0.014322917,1,0,0,0.7773,optionLeft,30,12025,6,17,0,17,0,1,,,,,,,,,,,,,,,,,,,,,,,,,,,,,,,,,,,,,,,
,,,,,,,,2023-08-16_08h35.02.375,HF_wild_card,2022.2.4,Win32,59.18210333,5e56a4d1df03b70525535774,64d2fd46c836a06233681665,64dc7c10d51aec2c7bc546f9,,,,,,,sngl,resources/DB.BMP,resources/Empty.png,Door2,-0.134114583,0.005208333,1,0,0,1.0258,optionLeft,20,12045,6,18,0,18,0,1,,,,,,,,,,,,,,,,,,,,,,,,,,,,,,,,,,,,,,,
,,,,,,,,2023-08-16_08h35.02.375,HF_wild_card,2022.2.4,Win32,59.18210333,5e56a4d1df03b70525535774,64d2fd46c836a06233681665,64dc7c10d51aec2c7bc546f9,,,,,,,sngl,resources/Empty.png,resources/DG.BMP,Door3,0.109375,0.002604167,1,0,0,1.0934,optionRight,70,12115,6,19,0,19,0,1,,,,,,,,,,,,,,,,,,,,,,,,,,,,,,,,,,,,,,,
,,,,,,,,2023-08-16_08h35.02.375,HF_wild_card,2022.2.4,Win32,59.18210333,5e56a4d1df03b70525535774,64d2fd46c836a06233681665,64dc7c10d51aec2c7bc546f9,,,,,,,sngl,resources/DP.BMP,resources/Empty.png,Door1,-0.13671875,0.015625,1,0,0,1.144,optionLeft,30,12145,6,20,0,20,0,1,,,,,,,,,,,,,,,,,,,,,,,,,,,,,,,,,,,,,,,
,,,,,,,,2023-08-16_08h35.02.375,HF_wild_card,2022.2.4,Win32,59.18210333,5e56a4d1df03b70525535774,64d2fd46c836a06233681665,64dc7c10d51aec2c7bc546f9,,,,,,,ctch,resources/DR.BMP,resources/DP.BMP,Door1,0.122395833,0.03125,1,0,0,0.8778,optionRight,30,12175,6,21,0,21,0,1,,,,,,,,,,,,,,,,,,,,,,,,,,,,,,,,,,,,,,,
,,,,,,,,2023-08-16_08h35.02.375,HF_wild_card,2022.2.4,Win32,59.18210333,5e56a4d1df03b70525535774,64d2fd46c836a06233681665,64dc7c10d51aec2c7bc546f9,,,,,,,decisionTrl,resources/DBN.BMP,resources/DP.BMP,WildCard_NonEx,-0.17578125,0.005208333,1,0,0,0.8942,optionLeft,45,12220,6,22,0,22,0,1,,,,,,,,,,,,,,,,,,,,,,,,,,,,,,,,,,,,,,,
,,,,,,,,2023-08-16_08h35.02.375,HF_wild_card,2022.2.4,Win32,59.18210333,5e56a4d1df03b70525535774,64d2fd46c836a06233681665,64dc7c10d51aec2c7bc546f9,,,,,,,ctch,resources/DG.BMP,resources/DB.BMP,Door3,-0.149739583,-0.009114583,1,0,0,0.6416,optionLeft,70,12290,6,23,0,23,0,1,,,,,,,,,,,,,,,,,,,,,,,,,,,,,,,,,,,,,,,
,,,,,,,,2023-08-16_08h35.02.375,HF_wild_card,2022.2.4,Win32,59.18210333,5e56a4d1df03b70525535774,64d2fd46c836a06233681665,64dc7c10d51aec2c7bc546f9,,,,,,,decisionTrl,resources/DG.BMP,resources/DBN.BMP,WildCard_NonEx,0.205729167,0.020833333,1,0,0,1.4103,optionRight,55,12345,6,24,0,24,0,1,,,,,,,,,,,,,,,,,,,,,,,,,,,,,,,,,,,,,,,
,,,,,,,,2023-08-16_08h35.02.375,HF_wild_card,2022.2.4,Win32,59.18210333,5e56a4d1df03b70525535774,64d2fd46c836a06233681665,64dc7c10d51aec2c7bc546f9,,,,,,,ctch,resources/DR.BMP,resources/DP.BMP,Door4,-0.1171875,-0.018229167,1,0,0,0.7432,optionLeft,80,12425,6,25,0,25,0,1,,,,,,,,,,,,,,,,,,,,,,,,,,,,,,,,,,,,,,,
,,,,,,,,2023-08-16_08h35.02.375,HF_wild_card,2022.2.4,Win32,59.18210333,5e56a4d1df03b70525535774,64d2fd46c836a06233681665,64dc7c10d51aec2c7bc546f9,,,,,,,decisionTrl,resources/DR.BMP,resources/DBN.BMP,Door4,0.098958333,0.001302083,1,0,0,1.1793,optionLeft,60,12485,6,26,0,26,0,1,,,,,,,,,,,,,,,,,,,,,,,,,,,,,,,,,,,,,,,
,,,,,,,,2023-08-16_08h35.02.375,HF_wild_card,2022.2.4,Win32,59.18210333,5e56a4d1df03b70525535774,64d2fd46c836a06233681665,64dc7c10d51aec2c7bc546f9,,,,,,,decisionTrl,resources/DG.BMP,resources/DR.BMP,Door3,-0.134114583,0,1,0,0,1.9268,optionLeft,70,12555,6,27,0,27,0,1,,,,,,,,,,,,,,,,,,,,,,,,,,,,,,,,,,,,,,,
,,,,,,,,2023-08-16_08h35.02.375,HF_wild_card,2022.2.4,Win32,59.18210333,5e56a4d1df03b70525535774,64d2fd46c836a06233681665,64dc7c10d51aec2c7bc546f9,,,,,,,decisionTrl,resources/DB.BMP,resources/DP.BMP,Door2,-0.110677083,0.005208333,1,0,0,0.7644,optionLeft,40,12595,6,28,0,28,0,1,,,,,,,,,,,,,,,,,,,,,,,,,,,,,,,,,,,,,,,
,,,,,,,,2023-08-16_08h35.02.375,HF_wild_card,2022.2.4,Win32,59.18210333,5e56a4d1df03b70525535774,64d2fd46c836a06233681665,64dc7c10d51aec2c7bc546f9,,,,,,,ctch,resources/DB.BMP,resources/DG.BMP,Door2,-0.110677083,0.029947917,1,0,0,1.1611,optionLeft,40,12635,6,29,0,29,0,1,,,,,,,,,,,,,,,,,,,,,,,,,,,,,,,,,,,,,,,
,,,,,,,,2023-08-16_08h35.02.375,HF_wild_card,2022.2.4,Win32,59.18210333,5e56a4d1df03b70525535774,64d2fd46c836a06233681665,64dc7c10d51aec2c7bc546f9,,,,,,,decisionTrl,resources/DB.BMP,resources/DBN.BMP,WildCard_NonEx,0.1171875,0.001302083,1,0,0,0.8274,optionRight,55,12690,6,30,0,30,0,1,,,,,,,,,,,,,,,,,,,,,,,,,,,,,,,,,,,,,,,
,,,,,,,,2023-08-16_08h35.02.375,HF_wild_card,2022.2.4,Win32,59.18210333,5e56a4d1df03b70525535774,64d2fd46c836a06233681665,64dc7c10d51aec2c7bc546f9,,,,,,,sngl,resources/Empty.png,resources/DR.BMP,Door4,0.123697917,-0.013020833,1,0,0,0.7723,optionRight,80,12770,6,31,0,31,0,1,,,,,,,,,,,,,,,,,,,,,,,,,,,,,,,,,,,,,,,
,,,,,,,,2023-08-16_08h35.02.375,HF_wild_card,2022.2.4,Win32,59.18210333,5e56a4d1df03b70525535774,64d2fd46c836a06233681665,64dc7c10d51aec2c7bc546f9,,,,,,,ctch,resources/DP.BMP,resources/DR.BMP,Door1,-0.149739583,0.01953125,1,0,0,0.9862,optionLeft,30,12800,6,32,0,32,0,1,,,,,,,,,,,,,,,,,,,,,,,,,,,,,,,,,,,,,,,
,,,,,,,,2023-08-16_08h35.02.375,HF_wild_card,2022.2.4,Win32,59.18210333,5e56a4d1df03b70525535774,64d2fd46c836a06233681665,64dc7c10d51aec2c7bc546f9,,,,,,,decisionTrl,resources/DBN.BMP,resources/DG.BMP,WildCard_NonEx,-0.1328125,0.045572917,1,0,0,2.8948,optionLeft,55,12855,6,33,0,33,0,1,,,,,,,,,,,,,,,,,,,,,,,,,,,,,,,,,,,,,,,
,,,,,,,,2023-08-16_08h35.02.375,HF_wild_card,2022.2.4,Win32,59.18210333,5e56a4d1df03b70525535774,64d2fd46c836a06233681665,64dc7c10d51aec2c7bc546f9,,,,,,,ctch,resources/DP.BMP,resources/DR.BMP,Door4,0.165364583,-0.01953125,1,0,0,2.1781,optionRight,60,12915,6,34,0,34,0,1,,,,,,,,,,,,,,,,,,,,,,,,,,,,,,,,,,,,,,,
,,,,,,,,2023-08-16_08h35.02.375,HF_wild_card,2022.2.4,Win32,59.18210333,5e56a4d1df03b70525535774,64d2fd46c836a06233681665,64dc7c10d51aec2c7bc546f9,,,,,,,decisionTrl,resources/DP.BMP,resources/DBN.BMP,WildCard_NonEx,0.1953125,-0.015625,1,0,0,0.8589,optionRight,45,12960,6,35,0,35,0,1,,,,,,,,,,,,,,,,,,,,,,,,,,,,,,,,,,,,,,,
,,,,,,,,2023-08-16_08h35.02.375,HF_wild_card,2022.2.4,Win32,59.18210333,5e56a4d1df03b70525535774,64d2fd46c836a06233681665,64dc7c10d51aec2c7bc546f9,,,,,,,decisionTrl,resources/DP.BMP,resources/DB.BMP,Door2,0.171875,-0.024739583,1,0,0,0.8616,optionRight,40,13000,6,36,0,36,0,1,,,,,,,,,,,,,,,,,,,,,,,,,,,,,,,,,,,,,,,
,,,,,,,,2023-08-16_08h35.02.375,HF_wild_card,2022.2.4,Win32,59.18210333,5e56a4d1df03b70525535774,64d2fd46c836a06233681665,64dc7c10d51aec2c7bc546f9,,,,,,,sngl,resources/DBN.BMP,resources/Empty.png,WildCard_NonEx,-0.12109375,-0.009114583,1,0,0,1.0939,optionLeft,45,13045,6,37,0,37,0,1,,,,,,,,,,,,,,,,,,,,,,,,,,,,,,,,,,,,,,,
,,,,,,,,2023-08-16_08h35.02.375,HF_wild_card,2022.2.4,Win32,59.18210333,5e56a4d1df03b70525535774,64d2fd46c836a06233681665,64dc7c10d51aec2c7bc546f9,,,,,,,decisionTrl,resources/DP.BMP,resources/DB.BMP,Door2,0.182291667,0.00390625,1,0,0,1.166,optionRight,20,13065,6,38,0,38,0,1,,,,,,,,,,,,,,,,,,,,,,,,,,,,,,,,,,,,,,,
,,,,,,,,2023-08-16_08h35.02.375,HF_wild_card,2022.2.4,Win32,59.18210333,5e56a4d1df03b70525535774,64d2fd46c836a06233681665,64dc7c10d51aec2c7bc546f9,,,,,,,decisionTrl,resources/DB.BMP,resources/DP.BMP,Door2,-0.125,-0.014322917,1,0,0,0.6969,optionLeft,40,13105,6,39,0,39,0,1,,,,,,,,,,,,,,,,,,,,,,,,,,,,,,,,,,,,,,,
,,,,,,,,2023-08-16_08h35.02.375,HF_wild_card,2022.2.4,Win32,59.18210333,5e56a4d1df03b70525535774,64d2fd46c836a06233681665,64dc7c10d51aec2c7bc546f9,,,,,,,sngl,resources/DBN.BMP,resources/Empty.png,WildCard_NonEx,-0.153645833,-0.057291667,1,0,0,0.9236,optionLeft,55,13160,6,40,0,40,0,1,,,,,,,,,,,,,,,,,,,,,,,,,,,,,,,,,,,,,,,
,,,,,,,,2023-08-16_08h35.02.375,HF_wild_card,2022.2.4,Win32,59.18210333,5e56a4d1df03b70525535774,64d2fd46c836a06233681665,64dc7c10d51aec2c7bc546f9,,,,,,,decisionTrl,resources/DBN.BMP,resources/DB.BMP,Door2,0.12109375,-0.006510417,1,0,0,1.3259,optionRight,40,13200,6,41,0,41,0,1,,,,,,,,,,,,,,,,,,,,,,,,,,,,,,,,,,,,,,,
,,,,,,,,2023-08-16_08h35.02.375,HF_wild_card,2022.2.4,Win32,59.18210333,5e56a4d1df03b70525535774,64d2fd46c836a06233681665,64dc7c10d51aec2c7bc546f9,,,,,,,decisionTrl,resources/DR.BMP,resources/DG.BMP,Door4,-0.12890625,0.009114583,1,0,0,1.1261,optionLeft,60,13260,6,42,0,42,0,1,,,,,,,,,,,,,,,,,,,,,,,,,,,,,,,,,,,,,,,
,,,,,,,,2023-08-16_08h35.02.375,HF_wild_card,2022.2.4,Win32,59.18210333,5e56a4d1df03b70525535774,64d2fd46c836a06233681665,64dc7c10d51aec2c7bc546f9,,,,,,,decisionTrl,resources/DP.BMP,resources/DB.BMP,Door1,-0.151041667,-0.002604167,1,0,0,0.8346,optionLeft,30,13290,6,43,0,43,0,1,,,,,,,,,,,,,,,,,,,,,,,,,,,,,,,,,,,,,,,
,,,,,,,,2023-08-16_08h35.02.375,HF_wild_card,2022.2.4,Win32,59.18210333,5e56a4d1df03b70525535774,64d2fd46c836a06233681665,64dc7c10d51aec2c7bc546f9,,,,,,,,,,,,,,,,,,,,,,,,,,5,0,5,0,1,,,,,,,,,,,,,,,,,,,,,,,,,,,,,,,,,,
,,,,,,,,2023-08-16_08h35.02.375,HF_wild_card,2022.2.4,Win32,59.18210333,5e56a4d1df03b70525535774,64d2fd46c836a06233681665,64dc7c10d51aec2c7bc546f9,,,,,,,decisionTrl,resources/DP.BMP,resources/DB.BMP,Door1,-0.166666667,-0.153645833,1,0,0,1.5441,optionLeft,30,13320,7,0,0,0,0,1,,,,,,,,,,,,,,,,,,,,,,,,,,,,,,,,,,,,,,,
,,,,,,,,2023-08-16_08h35.02.375,HF_wild_card,2022.2.4,Win32,59.18210333,5e56a4d1df03b70525535774,64d2fd46c836a06233681665,64dc7c10d51aec2c7bc546f9,,,,,,,decisionTrl,resources/DG.BMP,resources/DR.BMP,Door4,0.12890625,-0.020833333,1,0,0,0.9649,optionRight,60,13380,7,1,0,1,0,1,,,,,,,,,,,,,,,,,,,,,,,,,,,,,,,,,,,,,,,
,,,,,,,,2023-08-16_08h35.02.375,HF_wild_card,2022.2.4,Win32,59.18210333,5e56a4d1df03b70525535774,64d2fd46c836a06233681665,64dc7c10d51aec2c7bc546f9,,,,,,,ctch,resources/DB.BMP,resources/DG.BMP,Door3,0.122395833,-0.022135417,1,0,0,0.7975,optionRight,70,13450,7,2,0,2,0,1,,,,,,,,,,,,,,,,,,,,,,,,,,,,,,,,,,,,,,,
,,,,,,,,2023-08-16_08h35.02.375,HF_wild_card,2022.2.4,Win32,59.18210333,5e56a4d1df03b70525535774,64d2fd46c836a06233681665,64dc7c10d51aec2c7bc546f9,,,,,,,ctch,resources/DR.BMP,resources/DP.BMP,Door1,0.127604167,0.014322917,1,0,0,0.7131,optionRight,30,13480,7,3,0,3,0,1,,,,,,,,,,,,,,,,,,,,,,,,,,,,,,,,,,,,,,,
,,,,,,,,2023-08-16_08h35.02.375,HF_wild_card,2022.2.4,Win32,59.18210333,5e56a4d1df03b70525535774,64d2fd46c836a06233681665,64dc7c10d51aec2c7bc546f9,,,,,,,decisionTrl,resources/DR.BMP,resources/DG.BMP,Door3,0.161458333,0.005208333,1,0,0,0.7371,optionRight,70,13550,7,4,0,4,0,1,,,,,,,,,,,,,,,,,,,,,,,,,,,,,,,,,,,,,,,
,,,,,,,,2023-08-16_08h35.02.375,HF_wild_card,2022.2.4,Win32,59.18210333,5e56a4d1df03b70525535774,64d2fd46c836a06233681665,64dc7c10d51aec2c7bc546f9,,,,,,,decisionTrl,resources/DP.BMP,resources/DB.BMP,Door1,-0.21484375,0.0234375,1,0,0,0.8125,optionLeft,30,13580,7,5,0,5,0,1,,,,,,,,,,,,,,,,,,,,,,,,,,,,,,,,,,,,,,,
,,,,,,,,2023-08-16_08h35.02.375,HF_wild_card,2022.2.4,Win32,59.18210333,5e56a4d1df03b70525535774,64d2fd46c836a06233681665,64dc7c10d51aec2c7bc546f9,,,,,,,decisionTrl,resources/DG.BMP,resources/DR.BMP,Door3,-0.171875,0.033854167,1,0,0,0.7458,optionLeft,70,13650,7,6,0,6,0,1,,,,,,,,,,,,,,,,,,,,,,,,,,,,,,,,,,,,,,,
,,,,,,,,2023-08-16_08h35.02.375,HF_wild_card,2022.2.4,Win32,59.18210333,5e56a4d1df03b70525535774,64d2fd46c836a06233681665,64dc7c10d51aec2c7bc546f9,,,,,,,decisionTrl,resources/DB.BMP,resources/DP.BMP,Door2,-0.154947917,0.03125,1,0,0,0.7127,optionLeft,40,13690,7,7,0,7,0,1,,,,,,,,,,,,,,,,,,,,,,,,,,,,,,,,,,,,,,,
,,,,,,,,2023-08-16_08h35.02.375,HF_wild_card,2022.2.4,Win32,59.18210333,5e56a4d1df03b70525535774,64d2fd46c836a06233681665,64dc7c10d51aec2c7bc546f9,,,,,,,decisionTrl,resources/DG.BMP,resources/DR.BMP,Door4,0.140625,0.013020833,1,0,0,0.7655,optionRight,60,13750,7,8,0,8,0,1,,,,,,,,,,,,,,,,,,,,,,,,,,,,,,,,,,,,,,,
,,,,,,,,2023-08-16_08h35.02.375,HF_wild_card,2022.2.4,Win32,59.18210333,5e56a4d1df03b70525535774,64d2fd46c836a06233681665,64dc7c10d51aec2c7bc546f9,,,,,,,decisionTrl,resources/DR.BMP,resources/DG.BMP,Door3,0.135416667,-0.01171875,1,0,0,0.9967,optionRight,70,13820,7,9,0,9,0,1,,,,,,,,,,,,,,,,,,,,,,,,,,,,,,,,,,,,,,,
,,,,,,,,2023-08-16_08h35.02.375,HF_wild_card,2022.2.4,Win32,59.18210333,5e56a4d1df03b70525535774,64d2fd46c836a06233681665,64dc7c10d51aec2c7bc546f9,,,,,,,decisionTrl,resources/DP.BMP,resources/DB.BMP,Door1,-0.18359375,0.044270833,1,0,0,1.2178,optionLeft,30,13850,7,10,0,10,0,1,,,,,,,,,,,,,,,,,,,,,,,,,,,,,,,,,,,,,,,
,,,,,,,,2023-08-16_08h35.02.375,HF_wild_card,2022.2.4,Win32,59.18210333,5e56a4d1df03b70525535774,64d2fd46c836a06233681665,64dc7c10d51aec2c7bc546f9,,,,,,,decisionTrl,resources/DB.BMP,resources/DP.BMP,Door2,-0.138020833,0.036458333,1,0,0,0.8968,optionLeft,20,13870,7,11,0,11,0,1,,,,,,,,,,,,,,,,,,,,,,,,,,,,,,,,,,,,,,,
,,,,,,,,2023-08-16_08h35.02.375,HF_wild_card,2022.2.4,Win32,59.18210333,5e56a4d1df03b70525535774,64d2fd46c836a06233681665,64dc7c10d51aec2c7bc546f9,,,,,,,ctch,resources/DG.BMP,resources/DB.BMP,Door3,-0.149739583,0.029947917,1,0,0,0.9933,optionLeft,70,13940,7,12,0,12,0,1,,,,,,,,,,,,,,,,,,,,,,,,,,,,,,,,,,,,,,,
,,,,,,,,2023-08-16_08h35.02.375,HF_wild_card,2022.2.4,Win32,59.18210333,5e56a4d1df03b70525535774,64d2fd46c836a06233681665,64dc7c10d51aec2c7bc546f9,,,,,,,decisionTrl,resources/DR.BMP,resources/DG.BMP,Door3,0.135416667,-0.05078125,1,0,0,0.7293,optionRight,70,14010,7,13,0,13,0,1,,,,,,,,,,,,,,,,,,,,,,,,,,,,,,,,,,,,,,,
,,,,,,,,2023-08-16_08h35.02.375,HF_wild_card,2022.2.4,Win32,59.18210333,5e56a4d1df03b70525535774,64d2fd46c836a06233681665,64dc7c10d51aec2c7bc546f9,,,,,,,ctch,resources/DG.BMP,resources/DB.BMP,Door3,-0.173177083,0.055989583,1,0,0,0.9414,optionLeft,70,14080,7,14,0,14,0,1,,,,,,,,,,,,,,,,,,,,,,,,,,,,,,,,,,,,,,,
,,,,,,,,2023-08-16_08h35.02.375,HF_wild_card,2022.2.4,Win32,59.18210333,5e56a4d1df03b70525535774,64d2fd46c836a06233681665,64dc7c10d51aec2c7bc546f9,,,,,,,ctch,resources/DR.BMP,resources/DP.BMP,Door4,-0.104166667,0.0078125,1,0,0,0.7115,optionLeft,80,14160,7,15,0,15,0,1,,,,,,,,,,,,,,,,,,,,,,,,,,,,,,,,,,,,,,,
,,,,,,,,2023-08-16_08h35.02.375,HF_wild_card,2022.2.4,Win32,59.18210333,5e56a4d1df03b70525535774,64d2fd46c836a06233681665,64dc7c10d51aec2c7bc546f9,,,,,,,decisionTrl,resources/DR.BMP,resources/DG.BMP,Door3,0.177083333,0.00390625,1,0,0,0.765,optionRight,70,14230,7,16,0,16,0,1,,,,,,,,,,,,,,,,,,,,,,,,,,,,,,,,,,,,,,,
,,,,,,,,2023-08-16_08h35.02.375,HF_wild_card,2022.2.4,Win32,59.18210333,5e56a4d1df03b70525535774,64d2fd46c836a06233681665,64dc7c10d51aec2c7bc546f9,,,,,,,decisionTrl,resources/DB.BMP,resources/DP.BMP,Door2,-0.11328125,0.01953125,1,0,0,0.912,optionLeft,20,14250,7,17,0,17,0,1,,,,,,,,,,,,,,,,,,,,,,,,,,,,,,,,,,,,,,,
,,,,,,,,2023-08-16_08h35.02.375,HF_wild_card,2022.2.4,Win32,59.18210333,5e56a4d1df03b70525535774,64d2fd46c836a06233681665,64dc7c10d51aec2c7bc546f9,,,,,,,decisionTrl,resources/DR.BMP,resources/DG.BMP,Door3,0.126302083,-0.009114583,1,0,0,0.9629,optionRight,70,14320,7,18,0,18,0,1,,,,,,,,,,,,,,,,,,,,,,,,,,,,,,,,,,,,,,,
,,,,,,,,2023-08-16_08h35.02.375,HF_wild_card,2022.2.4,Win32,59.18210333,5e56a4d1df03b70525535774,64d2fd46c836a06233681665,64dc7c10d51aec2c7bc546f9,,,,,,,decisionTrl,resources/DG.BMP,resources/DR.BMP,Door4,0.1484375,-0.020833333,1,0,0,1.0618,optionRight,60,14380,7,19,0,19,0,1,,,,,,,,,,,,,,,,,,,,,,,,,,,,,,,,,,,,,,,
,,,,,,,,2023-08-16_08h35.02.375,HF_wild_card,2022.2.4,Win32,59.18210333,5e56a4d1df03b70525535774,64d2fd46c836a06233681665,64dc7c10d51aec2c7bc546f9,,,,,,,ctch,resources/DG.BMP,resources/DB.BMP,Door3,-0.1328125,-0.002604167,1,0,0,1.2487,optionLeft,70,14450,7,20,0,20,0,1,,,,,,,,,,,,,,,,,,,,,,,,,,,,,,,,,,,,,,,
,,,,,,,,2023-08-16_08h35.02.375,HF_wild_card,2022.2.4,Win32,59.18210333,5e56a4d1df03b70525535774,64d2fd46c836a06233681665,64dc7c10d51aec2c7bc546f9,,,,,,,decisionTrl,resources/DP.BMP,resources/DB.BMP,Door1,-0.115885417,-0.001302083,1,0,0,0.7961,optionLeft,30,14480,7,21,0,21,0,1,,,,,,,,,,,,,,,,,,,,,,,,,,,,,,,,,,,,,,,
,,,,,,,,2023-08-16_08h35.02.375,HF_wild_card,2022.2.4,Win32,59.18210333,5e56a4d1df03b70525535774,64d2fd46c836a06233681665,64dc7c10d51aec2c7bc546f9,,,,,,,ctch,resources/DB.BMP,resources/DG.BMP,Door2,-0.15234375,0.014322917,1,0,0,0.7935,optionLeft,20,14500,7,22,0,22,0,1,,,,,,,,,,,,,,,,,,,,,,,,,,,,,,,,,,,,,,,
,,,,,,,,2023-08-16_08h35.02.375,HF_wild_card,2022.2.4,Win32,59.18210333,5e56a4d1df03b70525535774,64d2fd46c836a06233681665,64dc7c10d51aec2c7bc546f9,,,,,,,ctch,resources/DP.BMP,resources/DR.BMP,Door4,0.149739583,0.001302083,1,0,0,0.9122,optionRight,60,14560,7,23,0,23,0,1,,,,,,,,,,,,,,,,,,,,,,,,,,,,,,,,,,,,,,,
,,,,,,,,2023-08-16_08h35.02.375,HF_wild_card,2022.2.4,Win32,59.18210333,5e56a4d1df03b70525535774,64d2fd46c836a06233681665,64dc7c10d51aec2c7bc546f9,,,,,,,ctch,resources/DR.BMP,resources/DP.BMP,Door1,0.127604167,0.0234375,1,0,0,0.8126,optionRight,30,14590,7,24,0,24,0,1,,,,,,,,,,,,,,,,,,,,,,,,,,,,,,,,,,,,,,,
,,,,,,,,2023-08-16_08h35.02.375,HF_wild_card,2022.2.4,Win32,59.18210333,5e56a4d1df03b70525535774,64d2fd46c836a06233681665,64dc7c10d51aec2c7bc546f9,,,,,,,decisionTrl,resources/DB.BMP,resources/DP.BMP,Door1,0.16015625,0.026041667,1,0,0,0.9147,optionRight,30,14620,7,25,0,25,0,1,,,,,,,,,,,,,,,,,,,,,,,,,,,,,,,,,,,,,,,
,,,,,,,,2023-08-16_08h35.02.375,HF_wild_card,2022.2.4,Win32,59.18210333,5e56a4d1df03b70525535774,64d2fd46c836a06233681665,64dc7c10d51aec2c7bc546f9,,,,,,,decisionTrl,resources/DB.BMP,resources/DP.BMP,Door2,-0.134114583,-0.03125,1,0,0,0.7968,optionLeft,40,14660,7,26,0,26,0,1,,,,,,,,,,,,,,,,,,,,,,,,,,,,,,,,,,,,,,,
,,,,,,,,2023-08-16_08h35.02.375,HF_wild_card,2022.2.4,Win32,59.18210333,5e56a4d1df03b70525535774,64d2fd46c836a06233681665,64dc7c10d51aec2c7bc546f9,,,,,,,ctch,resources/DB.BMP,resources/DG.BMP,Door2,-0.13671875,-0.01171875,1,0,0,0.7291,optionLeft,20,14680,7,27,0,27,0,1,,,,,,,,,,,,,,,,,,,,,,,,,,,,,,,,,,,,,,,
,,,,,,,,2023-08-16_08h35.02.375,HF_wild_card,2022.2.4,Win32,59.18210333,5e56a4d1df03b70525535774,64d2fd46c836a06233681665,64dc7c10d51aec2c7bc546f9,,,,,,,ctch,resources/DP.BMP,resources/DR.BMP,Door1,-0.153645833,0.005208333,1,0,0,0.7693,optionLeft,30,14710,7,28,0,28,0,1,,,,,,,,,,,,,,,,,,,,,,,,,,,,,,,,,,,,,,,
,,,,,,,,2023-08-16_08h35.02.375,HF_wild_card,2022.2.4,Win32,59.18210333,5e56a4d1df03b70525535774,64d2fd46c836a06233681665,64dc7c10d51aec2c7bc546f9,,,,,,,ctch,resources/DP.BMP,resources/DR.BMP,Door4,0.125,0.024739583,1,0,0,0.7796,optionRight,60,14770,7,29,0,29,0,1,,,,,,,,,,,,,,,,,,,,,,,,,,,,,,,,,,,,,,,
,,,,,,,,2023-08-16_08h35.02.375,HF_wild_card,2022.2.4,Win32,59.18210333,5e56a4d1df03b70525535774,64d2fd46c836a06233681665,64dc7c10d51aec2c7bc546f9,,,,,,,decisionTrl,resources/DP.BMP,resources/DB.BMP,Door2,0.106770833,0.014322917,1,0,0,0.8615,optionRight,40,14810,7,30,0,30,0,1,,,,,,,,,,,,,,,,,,,,,,,,,,,,,,,,,,,,,,,
,,,,,,,,2023-08-16_08h35.02.375,HF_wild_card,2022.2.4,Win32,59.18210333,5e56a4d1df03b70525535774,64d2fd46c836a06233681665,64dc7c10d51aec2c7bc546f9,,,,,,,decisionTrl,resources/DP.BMP,resources/DB.BMP,Door1,-0.1328125,-0.04296875,1,0,0,1.1127,optionLeft,30,14840,7,31,0,31,0,1,,,,,,,,,,,,,,,,,,,,,,,,,,,,,,,,,,,,,,,
,,,,,,,,2023-08-16_08h35.02.375,HF_wild_card,2022.2.4,Win32,59.18210333,5e56a4d1df03b70525535774,64d2fd46c836a06233681665,64dc7c10d51aec2c7bc546f9,,,,,,,decisionTrl,resources/DB.BMP,resources/DP.BMP,Door1,0.149739583,0.03515625,1,0,0,0.78,optionRight,30,14870,7,32,0,32,0,1,,,,,,,,,,,,,,,,,,,,,,,,,,,,,,,,,,,,,,,
,,,,,,,,2023-08-16_08h35.02.375,HF_wild_card,2022.2.4,Win32,59.18210333,5e56a4d1df03b70525535774,64d2fd46c836a06233681665,64dc7c10d51aec2c7bc546f9,,,,,,,decisionTrl,resources/DG.BMP,resources/DR.BMP,Door4,0.130208333,0.028645833,1,0,0,1.18,optionRight,80,14950,7,33,0,33,0,1,,,,,,,,,,,,,,,,,,,,,,,,,,,,,,,,,,,,,,,
,,,,,,,,2023-08-16_08h35.02.375,HF_wild_card,2022.2.4,Win32,59.18210333,5e56a4d1df03b70525535774,64d2fd46c836a06233681665,64dc7c10d51aec2c7bc546f9,,,,,,,decisionTrl,resources/DR.BMP,resources/DG.BMP,Door3,0.111979167,0.001302083,1,0,0,0.5827,optionRight,70,15020,7,34,0,34,0,1,,,,,,,,,,,,,,,,,,,,,,,,,,,,,,,,,,,,,,,
,,,,,,,,2023-08-16_08h35.02.375,HF_wild_card,2022.2.4,Win32,59.18210333,5e56a4d1df03b70525535774,64d2fd46c836a06233681665,64dc7c10d51aec2c7bc546f9,,,,,,,decisionTrl,resources/DG.BMP,resources/DR.BMP,Door4,0.12890625,0.0078125,1,0,0,0.7617,optionRight,60,15080,7,35,0,35,0,1,,,,,,,,,,,,,,,,,,,,,,,,,,,,,,,,,,,,,,,
,,,,,,,,2023-08-16_08h35.02.375,HF_wild_card,2022.2.4,Win32,59.18210333,5e56a4d1df03b70525535774,64d2fd46c836a06233681665,64dc7c10d51aec2c7bc546f9,,,,,,,,,,,,,,,,,,,,,,,,,,6,0,6,0,1,,,,,,,,,,,,,,,,,,,,,,,,,,,,,,,,,,
,,,,,,,,2023-08-16_08h35.02.375,HF_wild_card,2022.2.4,Win32,59.18210333,5e56a4d1df03b70525535774,64d2fd46c836a06233681665,64dc7c10d51aec2c7bc546f9,,,,,,,,,,,,,,,,,,,,,,,,,,,,,,,3,,,,,,,,,,,,,,,,,,,,,,,,,,,,,,,,,
,,,,,,,,2023-08-16_08h35.02.375,HF_wild_card,2022.2.4,Win32,59.18210333,5e56a4d1df03b70525535774,64d2fd46c836a06233681665,64dc7c10d51aec2c7bc546f9,,,,,,,,,,,,,,,,,,,,,,,,,,,,,,,,,,,,,,,,,,,,,,,,,,,,,,,,,,,,,,,,
,,,,,,,,2023-08-16_08h35.02.375,HF_wild_card,2022.2.4,Win32,59.18210333,5e56a4d1df03b70525535774,64d2fd46c836a06233681665,64dc7c10d51aec2c7bc546f9,,,,,,,,,,,,,,,,,,,,,,,,,,,,,,,,40,Door2,resources/DB.BMP,0,0,0,0,1,,,,,,,,,,,,,,,,,,,,,,,,,
,,,,,,,,2023-08-16_08h35.02.375,HF_wild_card,2022.2.4,Win32,59.18210333,5e56a4d1df03b70525535774,64d2fd46c836a06233681665,64dc7c10d51aec2c7bc546f9,,,,,,,,,,,,,,,,,,,,,,,,,,,,,,,,30,WC_nonExtreme,resources/DBN.BMP,1,0,1,0,1,,,,,,,,,,,,,,,,,,,,,,,,,
,,,,,,,,2023-08-16_08h35.02.375,HF_wild_card,2022.2.4,Win32,59.18210333,5e56a4d1df03b70525535774,64d2fd46c836a06233681665,64dc7c10d51aec2c7bc546f9,,,,,,,,,,,,,,,,,,,,,,,,,,,,,,,,70,Door3,resources/DG.BMP,2,0,2,0,1,,,,,,,,,,,,,,,,,,,,,,,,,
,,,,,,,,2023-08-16_08h35.02.375,HF_wild_card,2022.2.4,Win32,59.18210333,5e56a4d1df03b70525535774,64d2fd46c836a06233681665,64dc7c10d51aec2c7bc546f9,,,,,,,,,,,,,,,,,,,,,,,,,,,,,,,,90,WC_extreme,resources/DY.BMP,3,0,3,0,1,,,,,,,,,,,,,,,,,,,,,,,,,
,,,,,,,,2023-08-16_08h35.02.375,HF_wild_card,2022.2.4,Win32,59.18210333,5e56a4d1df03b70525535774,64d2fd46c836a06233681665,64dc7c10d51aec2c7bc546f9,,,,,,,,,,,,,,,,,,,,,,,,,,,,,,,,70,Door1,resources/DP.BMP,4,0,4,0,1,,,,,,,,,,,,,,,,,,,,,,,,,
,,,,,,,,2023-08-16_08h35.02.375,HF_wild_card,2022.2.4,Win32,59.18210333,5e56a4d1df03b70525535774,64d2fd46c836a06233681665,64dc7c10d51aec2c7bc546f9,,,,,,,,,,,,,,,,,,,,,,,,,,,,,,,,70,Door4,resources/DR.BMP,5,0,5,0,1,,,,,,,,,,,,,,,,,,,,,,,,,
,,,,,,,,2023-08-16_08h35.02.375,HF_wild_card,2022.2.4,Win32,59.18210333,5e56a4d1df03b70525535774,64d2fd46c836a06233681665,64dc7c10d51aec2c7bc546f9,,,,,,,,,,,,,,,,,,,,,,,,,,,,,,,,,,,,,,,,,,,,,,,,,,,,,,,,,,,,,,,,
,,,,,,,,2023-08-16_08h35.02.375,HF_wild_card,2022.2.4,Win32,59.18210333,5e56a4d1df03b70525535774,64d2fd46c836a06233681665,64dc7c10d51aec2c7bc546f9,,,,,,,,,,,,,,,,,,,,,,,,,,,,,,,,,,,,,,,,0,0,0,0,1,,,,,,,,,,,,,,,,,,,,
,,,,,,,,2023-08-16_08h35.02.375,HF_wild_card,2022.2.4,Win32,59.18210333,5e56a4d1df03b70525535774,64d2fd46c836a06233681665,64dc7c10d51aec2c7bc546f9,,,,,,,,,,,,,,,,,,,,,,,,,,,,,,,,,,,,,,,,1,0,1,0,1,,,,,,,,,,,,,,,,,,,,
