Condition,Low fixed image (Door1),Low risky image (Door2),High fixed image (Door3),High risky image (Door4),Extreme Wild Card,NonExtreme Wild Card,,date,expName,psychopyVersion,OS,frameRate,PROLIFIC_PID,STUDY_ID,SESSION_ID,mouse_2.x,mouse_2.y,mouse_2.leftButton,mouse_2.midButton,mouse_2.rightButton,mouse_2.clicked_name,Trial Type,Left Option Image,Right Option Image,Chosen Door,mouse.x,mouse.y,mouse.leftButton,mouse.midButton,mouse.rightButton,mouse.time,mouse.clicked_name,Feedback,Cumulative Reward,Block,trial.thisRepN,trial.thisTrialN,trial.thisN,trial.thisIndex,trial.ran,blocks.thisRepN,blocks.thisTrialN,blocks.thisN,blocks.thisIndex,blocks.ran,Money conversion,First Outcome Reported,Shown Door (First Outcome),Displayed Image (First Outcome),outcomes.thisRepN,outcomes.thisTrialN,outcomes.thisN,outcomes.thisIndex,outcomes.ran,judgments.thisRepN,judgments.thisTrialN,judgments.thisN,judgments.thisIndex,judgments.ran,freqMouse.x,freqMouse.y,freqMouse.leftButton,freqMouse.midButton,freqMouse.rightButton,freqMouse.clicked_name,FQJ for first outcome,FQJ for second outcome,Shown Door,Displayed Image,trials.thisRepN,trials.thisTrialN,trials.thisN,trials.thisIndex,trials.ran,judgBlock.thisRepN,judgBlock.thisTrialN,judgBlock.thisN,judgBlock.thisIndex,judgBlock.ran
0,resources/DY.BMP,resources/DB.BMP,resources/DR.BMP,resources/DP.BMP,resources/DBN.BMP,resources/DG.BMP,,2023-08-06_08h29.03.328,HF_wild_card,2022.2.4,Win32,59.7193192,5ec1250ae718fe3ed494c474,64ce5acb97489d65b14ecc7a,64cf4b31fc6df899ebb115b3,,,,,,,,,,,,,,,,,,,,,,,,,,,,,,,,,,,,,,,,,,,,,,,,,,,,,,,,,,,,,,,,
,,,,,,,,2023-08-06_08h29.03.328,HF_wild_card,2022.2.4,Win32,59.7193192,5ec1250ae718fe3ed494c474,64ce5acb97489d65b14ecc7a,64cf4b31fc6df899ebb115b3,-0.010833333,-0.431666667,1,0,0,agree,,,,,,,,,,,,,,,,,,,,,,,,,,,,,,,,,,,,,,,,,,,,,,,,,,,,,,,,,,
,,,,,,,,2023-08-06_08h29.03.328,HF_wild_card,2022.2.4,Win32,59.7193192,5ec1250ae718fe3ed494c474,64ce5acb97489d65b14ecc7a,64cf4b31fc6df899ebb115b3,,,,,,,,,,,,,,,,,,,,,,,,,,,,,,,,,,,,,,,,,,,,,,,,,,,,,,,,,,,,,,,,
,,,,,,,,2023-08-06_08h29.03.328,HF_wild_card,2022.2.4,Win32,59.7193192,5ec1250ae718fe3ed494c474,64ce5acb97489d65b14ecc7a,64cf4b31fc6df899ebb115b3,,,,,,,decisionTrl,resources/DP.BMP,resources/DR.BMP,Door4,-0.280833333,0.041666667,1,0,0,3.6198,optionLeft,60,60,1,0,0,0,0,1,,,,,,,,,,,,,,,,,,,,,,,,,,,,,,,,,,,,,,,
,,,,,,,,2023-08-06_08h29.03.328,HF_wild_card,2022.2.4,Win32,59.7193192,5ec1250ae718fe3ed494c474,64ce5acb97489d65b14ecc7a,64cf4b31fc6df899ebb115b3,,,,,,,sngl,resources/DR.BMP,resources/Empty.png,Door3,-0.328333333,-0.069166667,1,0,0,2.0461,optionLeft,70,130,1,1,0,1,0,1,,,,,,,,,,,,,,,,,,,,,,,,,,,,,,,,,,,,,,,
,,,,,,,,2023-08-06_08h29.03.328,HF_wild_card,2022.2.4,Win32,59.7193192,5ec1250ae718fe3ed494c474,64ce5acb97489d65b14ecc7a,64cf4b31fc6df899ebb115b3,,,,,,,sngl,resources/Empty.png,resources/DY.BMP,Door1,0.254166667,-0.02,1,0,0,0.9824,optionRight,30,160,1,2,0,2,0,1,,,,,,,,,,,,,,,,,,,,,,,,,,,,,,,,,,,,,,,
,,,,,,,,2023-08-06_08h29.03.328,HF_wild_card,2022.2.4,Win32,59.7193192,5ec1250ae718fe3ed494c474,64ce5acb97489d65b14ecc7a,64cf4b31fc6df899ebb115b3,,,,,,,decisionTrl,resources/DP.BMP,resources/DR.BMP,Door3,0.339166667,-0.008333333,1,0,0,1.315,optionRight,70,230,1,3,0,3,0,1,,,,,,,,,,,,,,,,,,,,,,,,,,,,,,,,,,,,,,,
,,,,,,,,2023-08-06_08h29.03.328,HF_wild_card,2022.2.4,Win32,59.7193192,5ec1250ae718fe3ed494c474,64ce5acb97489d65b14ecc7a,64cf4b31fc6df899ebb115b3,,,,,,,sngl,resources/DY.BMP,resources/Empty.png,Door1,-0.2875,-0.006666667,1,0,0,1.7856,optionLeft,30,260,1,4,0,4,0,1,,,,,,,,,,,,,,,,,,,,,,,,,,,,,,,,,,,,,,,
,,,,,,,,2023-08-06_08h29.03.328,HF_wild_card,2022.2.4,Win32,59.7193192,5ec1250ae718fe3ed494c474,64ce5acb97489d65b14ecc7a,64cf4b31fc6df899ebb115b3,,,,,,,decisionTrl,resources/DBN.BMP,resources/DR.BMP,WildCard_Ex,-0.391666667,0.009166667,1,0,0,1.3365,optionLeft,95,355,1,5,0,5,0,1,,,,,,,,,,,,,,,,,,,,,,,,,,,,,,,,,,,,,,,
,,,,,,,,2023-08-06_08h29.03.328,HF_wild_card,2022.2.4,Win32,59.7193192,5ec1250ae718fe3ed494c474,64ce5acb97489d65b14ecc7a,64cf4b31fc6df899ebb115b3,,,,,,,decisionTrl,resources/DBN.BMP,resources/DP.BMP,WildCard_Ex,-0.396666667,-0.004166667,1,0,0,1.4779,optionLeft,95,450,1,6,0,6,0,1,,,,,,,,,,,,,,,,,,,,,,,,,,,,,,,,,,,,,,,
,,,,,,,,2023-08-06_08h29.03.328,HF_wild_card,2022.2.4,Win32,59.7193192,5ec1250ae718fe3ed494c474,64ce5acb97489d65b14ecc7a,64cf4b31fc6df899ebb115b3,,,,,,,decisionTrl,resources/DR.BMP,resources/DBN.BMP,WildCard_Ex,0.370833333,-0.005833333,1,0,0,1.3493,optionRight,5,455,1,7,0,7,0,1,,,,,,,,,,,,,,,,,,,,,,,,,,,,,,,,,,,,,,,
,,,,,,,,2023-08-06_08h29.03.328,HF_wild_card,2022.2.4,Win32,59.7193192,5ec1250ae718fe3ed494c474,64ce5acb97489d65b14ecc7a,64cf4b31fc6df899ebb115b3,,,,,,,decisionTrl,resources/DP.BMP,resources/DR.BMP,Door3,0.350833333,-0.040833333,1,0,0,2.1657,optionRight,70,525,1,8,0,8,0,1,,,,,,,,,,,,,,,,,,,,,,,,,,,,,,,,,,,,,,,
,,,,,,,,2023-08-06_08h29.03.328,HF_wild_card,2022.2.4,Win32,59.7193192,5ec1250ae718fe3ed494c474,64ce5acb97489d65b14ecc7a,64cf4b31fc6df899ebb115b3,,,,,,,ctch,resources/DY.BMP,resources/DP.BMP,Door4,0.375833333,-0.065,1,0,0,4.2361,optionRight,60,585,1,9,0,9,0,1,,,,,,,,,,,,,,,,,,,,,,,,,,,,,,,,,,,,,,,
,,,,,,,,2023-08-06_08h29.03.328,HF_wild_card,2022.2.4,Win32,59.7193192,5ec1250ae718fe3ed494c474,64ce5acb97489d65b14ecc7a,64cf4b31fc6df899ebb115b3,,,,,,,decisionTrl,resources/DB.BMP,resources/DBN.BMP,Door2,-0.413333333,-0.0425,1,0,0,1.403,optionLeft,40,625,1,10,0,10,0,1,,,,,,,,,,,,,,,,,,,,,,,,,,,,,,,,,,,,,,,
,,,,,,,,2023-08-06_08h29.03.328,HF_wild_card,2022.2.4,Win32,59.7193192,5ec1250ae718fe3ed494c474,64ce5acb97489d65b14ecc7a,64cf4b31fc6df899ebb115b3,,,,,,,decisionTrl,resources/DY.BMP,resources/DBN.BMP,WildCard_Ex,0.405833333,-0.01,1,0,0,0.9348,optionRight,5,630,1,11,0,11,0,1,,,,,,,,,,,,,,,,,,,,,,,,,,,,,,,,,,,,,,,
,,,,,,,,2023-08-06_08h29.03.328,HF_wild_card,2022.2.4,Win32,59.7193192,5ec1250ae718fe3ed494c474,64ce5acb97489d65b14ecc7a,64cf4b31fc6df899ebb115b3,,,,,,,ctch,resources/DR.BMP,resources/DB.BMP,Door3,-0.36,-0.028333333,1,0,0,2.4662,optionLeft,70,700,1,12,0,12,0,1,,,,,,,,,,,,,,,,,,,,,,,,,,,,,,,,,,,,,,,
,,,,,,,,2023-08-06_08h29.03.328,HF_wild_card,2022.2.4,Win32,59.7193192,5ec1250ae718fe3ed494c474,64ce5acb97489d65b14ecc7a,64cf4b31fc6df899ebb115b3,,,,,,,sngl,resources/Empty.png,resources/DBN.BMP,WildCard_Ex,0.354166667,-0.02,1,0,0,1.3193,optionRight,5,705,1,13,0,13,0,1,,,,,,,,,,,,,,,,,,,,,,,,,,,,,,,,,,,,,,,
,,,,,,,,2023-08-06_08h29.03.328,HF_wild_card,2022.2.4,Win32,59.7193192,5ec1250ae718fe3ed494c474,64ce5acb97489d65b14ecc7a,64cf4b31fc6df899ebb115b3,,,,,,,decisionTrl,resources/DY.BMP,resources/DB.BMP,Door1,-0.363333333,-0.011666667,1,0,0,1.8479,optionLeft,30,735,1,14,0,14,0,1,,,,,,,,,,,,,,,,,,,,,,,,,,,,,,,,,,,,,,,
,,,,,,,,2023-08-06_08h29.03.328,HF_wild_card,2022.2.4,Win32,59.7193192,5ec1250ae718fe3ed494c474,64ce5acb97489d65b14ecc7a,64cf4b31fc6df899ebb115b3,,,,,,,sngl,resources/Empty.png,resources/DR.BMP,Door3,0.355833333,-0.029166667,1,0,0,1.066,optionRight,70,805,1,15,0,15,0,1,,,,,,,,,,,,,,,,,,,,,,,,,,,,,,,,,,,,,,,
,,,,,,,,2023-08-06_08h29.03.328,HF_wild_card,2022.2.4,Win32,59.7193192,5ec1250ae718fe3ed494c474,64ce5acb97489d65b14ecc7a,64cf4b31fc6df899ebb115b3,,,,,,,decisionTrl,resources/DBN.BMP,resources/DY.BMP,Door1,0.3675,-0.029166667,1,0,0,1.5003,optionRight,30,835,1,16,0,16,0,1,,,,,,,,,,,,,,,,,,,,,,,,,,,,,,,,,,,,,,,
,,,,,,,,2023-08-06_08h29.03.328,HF_wild_card,2022.2.4,Win32,59.7193192,5ec1250ae718fe3ed494c474,64ce5acb97489d65b14ecc7a,64cf4b31fc6df899ebb115b3,,,,,,,sngl,resources/Empty.png,resources/DBN.BMP,WildCard_Ex,0.39,-0.0275,1,0,0,0.9461,optionRight,95,930,1,17,0,17,0,1,,,,,,,,,,,,,,,,,,,,,,,,,,,,,,,,,,,,,,,
,,,,,,,,2023-08-06_08h29.03.328,HF_wild_card,2022.2.4,Win32,59.7193192,5ec1250ae718fe3ed494c474,64ce5acb97489d65b14ecc7a,64cf4b31fc6df899ebb115b3,,,,,,,decisionTrl,resources/DY.BMP,resources/DB.BMP,Door2,0.3825,-0.028333333,1,0,0,1.645,optionRight,20,950,1,18,0,18,0,1,,,,,,,,,,,,,,,,,,,,,,,,,,,,,,,,,,,,,,,
,,,,,,,,2023-08-06_08h29.03.328,HF_wild_card,2022.2.4,Win32,59.7193192,5ec1250ae718fe3ed494c474,64ce5acb97489d65b14ecc7a,64cf4b31fc6df899ebb115b3,,,,,,,sngl,resources/DP.BMP,resources/Empty.png,Door4,-0.365833333,-0.048333333,1,0,0,1.2658,optionLeft,80,1030,1,19,0,19,0,1,,,,,,,,,,,,,,,,,,,,,,,,,,,,,,,,,,,,,,,
,,,,,,,,2023-08-06_08h29.03.328,HF_wild_card,2022.2.4,Win32,59.7193192,5ec1250ae718fe3ed494c474,64ce5acb97489d65b14ecc7a,64cf4b31fc6df899ebb115b3,,,,,,,decisionTrl,resources/DB.BMP,resources/DY.BMP,Door1,0.379166667,-0.030833333,1,0,0,1.948,optionRight,30,1060,1,20,0,20,0,1,,,,,,,,,,,,,,,,,,,,,,,,,,,,,,,,,,,,,,,
,,,,,,,,2023-08-06_08h29.03.328,HF_wild_card,2022.2.4,Win32,59.7193192,5ec1250ae718fe3ed494c474,64ce5acb97489d65b14ecc7a,64cf4b31fc6df899ebb115b3,,,,,,,decisionTrl,resources/DY.BMP,resources/DB.BMP,Door2,0.343333333,-0.028333333,1,0,0,1.0794,optionRight,20,1080,1,21,0,21,0,1,,,,,,,,,,,,,,,,,,,,,,,,,,,,,,,,,,,,,,,
,,,,,,,,2023-08-06_08h29.03.328,HF_wild_card,2022.2.4,Win32,59.7193192,5ec1250ae718fe3ed494c474,64ce5acb97489d65b14ecc7a,64cf4b31fc6df899ebb115b3,,,,,,,decisionTrl,resources/DR.BMP,resources/DP.BMP,Door3,-0.37,-0.043333333,1,0,0,1.3838,optionLeft,70,1150,1,22,0,22,0,1,,,,,,,,,,,,,,,,,,,,,,,,,,,,,,,,,,,,,,,
,,,,,,,,2023-08-06_08h29.03.328,HF_wild_card,2022.2.4,Win32,59.7193192,5ec1250ae718fe3ed494c474,64ce5acb97489d65b14ecc7a,64cf4b31fc6df899ebb115b3,,,,,,,sngl,resources/DB.BMP,resources/Empty.png,Door2,-0.408333333,-0.04,1,0,0,1.3462,optionLeft,40,1190,1,23,0,23,0,1,,,,,,,,,,,,,,,,,,,,,,,,,,,,,,,,,,,,,,,
,,,,,,,,2023-08-06_08h29.03.328,HF_wild_card,2022.2.4,Win32,59.7193192,5ec1250ae718fe3ed494c474,64ce5acb97489d65b14ecc7a,64cf4b31fc6df899ebb115b3,,,,,,,ctch,resources/DP.BMP,resources/DY.BMP,Door1,0.378333333,-0.040833333,1,0,0,1.9279,optionRight,30,1220,1,24,0,24,0,1,,,,,,,,,,,,,,,,,,,,,,,,,,,,,,,,,,,,,,,
,,,,,,,,2023-08-06_08h29.03.328,HF_wild_card,2022.2.4,Win32,59.7193192,5ec1250ae718fe3ed494c474,64ce5acb97489d65b14ecc7a,64cf4b31fc6df899ebb115b3,,,,,,,decisionTrl,resources/DB.BMP,resources/DY.BMP,Door2,-0.381666667,-0.03,1,0,0,1.6665,optionLeft,40,1260,1,25,0,25,0,1,,,,,,,,,,,,,,,,,,,,,,,,,,,,,,,,,,,,,,,
,,,,,,,,2023-08-06_08h29.03.328,HF_wild_card,2022.2.4,Win32,59.7193192,5ec1250ae718fe3ed494c474,64ce5acb97489d65b14ecc7a,64cf4b31fc6df899ebb115b3,,,,,,,ctch,resources/DB.BMP,resources/DR.BMP,Door3,0.376666667,-0.046666667,1,0,0,1.3992,optionRight,70,1330,1,26,0,26,0,1,,,,,,,,,,,,,,,,,,,,,,,,,,,,,,,,,,,,,,,
,,,,,,,,2023-08-06_08h29.03.328,HF_wild_card,2022.2.4,Win32,59.7193192,5ec1250ae718fe3ed494c474,64ce5acb97489d65b14ecc7a,64cf4b31fc6df899ebb115b3,,,,,,,decisionTrl,resources/DB.BMP,resources/DY.BMP,Door2,-0.39,-0.048333333,1,0,0,3.2679,optionLeft,20,1350,1,27,0,27,0,1,,,,,,,,,,,,,,,,,,,,,,,,,,,,,,,,,,,,,,,
,,,,,,,,2023-08-06_08h29.03.328,HF_wild_card,2022.2.4,Win32,59.7193192,5ec1250ae718fe3ed494c474,64ce5acb97489d65b14ecc7a,64cf4b31fc6df899ebb115b3,,,,,,,sngl,resources/DBN.BMP,resources/Empty.png,WildCard_Ex,-0.418333333,-0.01,1,0,0,1.1115,optionLeft,5,1355,1,28,0,28,0,1,,,,,,,,,,,,,,,,,,,,,,,,,,,,,,,,,,,,,,,
,,,,,,,,2023-08-06_08h29.03.328,HF_wild_card,2022.2.4,Win32,59.7193192,5ec1250ae718fe3ed494c474,64ce5acb97489d65b14ecc7a,64cf4b31fc6df899ebb115b3,,,,,,,decisionTrl,resources/DY.BMP,resources/DB.BMP,Door1,-0.375833333,-0.035,1,0,0,1.9971,optionLeft,30,1385,1,29,0,29,0,1,,,,,,,,,,,,,,,,,,,,,,,,,,,,,,,,,,,,,,,
,,,,,,,,2023-08-06_08h29.03.328,HF_wild_card,2022.2.4,Win32,59.7193192,5ec1250ae718fe3ed494c474,64ce5acb97489d65b14ecc7a,64cf4b31fc6df899ebb115b3,,,,,,,decisionTrl,resources/DR.BMP,resources/DP.BMP,Door4,0.400833333,-0.06,1,0,0,1.547,optionRight,80,1465,1,30,0,30,0,1,,,,,,,,,,,,,,,,,,,,,,,,,,,,,,,,,,,,,,,
,,,,,,,,2023-08-06_08h29.03.328,HF_wild_card,2022.2.4,Win32,59.7193192,5ec1250ae718fe3ed494c474,64ce5acb97489d65b14ecc7a,64cf4b31fc6df899ebb115b3,,,,,,,ctch,resources/DB.BMP,resources/DR.BMP,Door3,0.384166667,-0.0375,1,0,0,1.1324,optionRight,70,1535,1,31,0,31,0,1,,,,,,,,,,,,,,,,,,,,,,,,,,,,,,,,,,,,,,,
,,,,,,,,2023-08-06_08h29.03.328,HF_wild_card,2022.2.4,Win32,59.7193192,5ec1250ae718fe3ed494c474,64ce5acb97489d65b14ecc7a,64cf4b31fc6df899ebb115b3,,,,,,,ctch,resources/DY.BMP,resources/DP.BMP,Door4,0.423333333,-0.015833333,1,0,0,1.2497,optionRight,80,1615,1,32,0,32,0,1,,,,,,,,,,,,,,,,,,,,,,,,,,,,,,,,,,,,,,,
,,,,,,,,2023-08-06_08h29.03.328,HF_wild_card,2022.2.4,Win32,59.7193192,5ec1250ae718fe3ed494c474,64ce5acb97489d65b14ecc7a,64cf4b31fc6df899ebb115b3,,,,,,,sngl,resources/Empty.png,resources/DP.BMP,Door4,0.373333333,-0.040833333,1,0,0,1.1144,optionRight,60,1675,1,33,0,33,0,1,,,,,,,,,,,,,,,,,,,,,,,,,,,,,,,,,,,,,,,
,,,,,,,,2023-08-06_08h29.03.328,HF_wild_card,2022.2.4,Win32,59.7193192,5ec1250ae718fe3ed494c474,64ce5acb97489d65b14ecc7a,64cf4b31fc6df899ebb115b3,,,,,,,decisionTrl,resources/DB.BMP,resources/DY.BMP,Door1,0.398333333,-0.04,1,0,0,1.4975,optionRight,30,1705,1,34,0,34,0,1,,,,,,,,,,,,,,,,,,,,,,,,,,,,,,,,,,,,,,,
,,,,,,,,2023-08-06_08h29.03.328,HF_wild_card,2022.2.4,Win32,59.7193192,5ec1250ae718fe3ed494c474,64ce5acb97489d65b14ecc7a,64cf4b31fc6df899ebb115b3,,,,,,,sngl,resources/Empty.png,resources/DB.BMP,Door2,0.3525,-0.043333333,1,0,0,1.6002,optionRight,20,1725,1,35,0,35,0,1,,,,,,,,,,,,,,,,,,,,,,,,,,,,,,,,,,,,,,,
,,,,,,,,2023-08-06_08h29.03.328,HF_wild_card,2022.2.4,Win32,59.7193192,5ec1250ae718fe3ed494c474,64ce5acb97489d65b14ecc7a,64cf4b31fc6df899ebb115b3,,,,,,,ctch,resources/DR.BMP,resources/DB.BMP,Door3,-0.380833333,-0.0225,1,0,0,1.2439,optionLeft,70,1795,1,36,0,36,0,1,,,,,,,,,,,,,,,,,,,,,,,,,,,,,,,,,,,,,,,
,,,,,,,,2023-08-06_08h29.03.328,HF_wild_card,2022.2.4,Win32,59.7193192,5ec1250ae718fe3ed494c474,64ce5acb97489d65b14ecc7a,64cf4b31fc6df899ebb115b3,,,,,,,decisionTrl,resources/DBN.BMP,resources/DB.BMP,WildCard_Ex,-0.398333333,-0.028333333,1,0,0,1.2984,optionLeft,5,1800,1,37,0,37,0,1,,,,,,,,,,,,,,,,,,,,,,,,,,,,,,,,,,,,,,,
,,,,,,,,2023-08-06_08h29.03.328,HF_wild_card,2022.2.4,Win32,59.7193192,5ec1250ae718fe3ed494c474,64ce5acb97489d65b14ecc7a,64cf4b31fc6df899ebb115b3,,,,,,,decisionTrl,resources/DR.BMP,resources/DP.BMP,Door4,0.360833333,-0.045833333,1,0,0,1.1796,optionRight,60,1860,1,38,0,38,0,1,,,,,,,,,,,,,,,,,,,,,,,,,,,,,,,,,,,,,,,
,,,,,,,,2023-08-06_08h29.03.328,HF_wild_card,2022.2.4,Win32,59.7193192,5ec1250ae718fe3ed494c474,64ce5acb97489d65b14ecc7a,64cf4b31fc6df899ebb115b3,,,,,,,ctch,resources/DP.BMP,resources/DY.BMP,Door4,-0.393333333,-0.053333333,1,0,0,1.2327,optionLeft,80,1940,1,39,0,39,0,1,,,,,,,,,,,,,,,,,,,,,,,,,,,,,,,,,,,,,,,
,,,,,,,,2023-08-06_08h29.03.328,HF_wild_card,2022.2.4,Win32,59.7193192,5ec1250ae718fe3ed494c474,64ce5acb97489d65b14ecc7a,64cf4b31fc6df899ebb115b3,,,,,,,decisionTrl,resources/DP.BMP,resources/DR.BMP,Door3,0.350833333,-0.045,1,0,0,1.1156,optionRight,70,2010,1,40,0,40,0,1,,,,,,,,,,,,,,,,,,,,,,,,,,,,,,,,,,,,,,,
,,,,,,,,2023-08-06_08h29.03.328,HF_wild_card,2022.2.4,Win32,59.7193192,5ec1250ae718fe3ed494c474,64ce5acb97489d65b14ecc7a,64cf4b31fc6df899ebb115b3,,,,,,,sngl,resources/DBN.BMP,resources/Empty.png,WildCard_Ex,-0.373333333,-0.001666667,1,0,0,1.2329,optionLeft,95,2105,1,41,0,41,0,1,,,,,,,,,,,,,,,,,,,,,,,,,,,,,,,,,,,,,,,
,,,,,,,,2023-08-06_08h29.03.328,HF_wild_card,2022.2.4,Win32,59.7193192,5ec1250ae718fe3ed494c474,64ce5acb97489d65b14ecc7a,64cf4b31fc6df899ebb115b3,,,,,,,decisionTrl,resources/DR.BMP,resources/DP.BMP,Door3,-0.438333333,-0.0225,1,0,0,1.2495,optionLeft,70,2175,1,42,0,42,0,1,,,,,,,,,,,,,,,,,,,,,,,,,,,,,,,,,,,,,,,
,,,,,,,,2023-08-06_08h29.03.328,HF_wild_card,2022.2.4,Win32,59.7193192,5ec1250ae718fe3ed494c474,64ce5acb97489d65b14ecc7a,64cf4b31fc6df899ebb115b3,,,,,,,decisionTrl,resources/DP.BMP,resources/DBN.BMP,Door4,-0.380833333,-0.021666667,1,0,0,1.2475,optionLeft,80,2255,1,43,0,43,0,1,,,,,,,,,,,,,,,,,,,,,,,,,,,,,,,,,,,,,,,
,,,,,,,,2023-08-06_08h29.03.328,HF_wild_card,2022.2.4,Win32,59.7193192,5ec1250ae718fe3ed494c474,64ce5acb97489d65b14ecc7a,64cf4b31fc6df899ebb115b3,,,,,,,,,,,,,,,,,,,,,,,,,,0,0,0,0,1,,,,,,,,,,,,,,,,,,,,,,,,,,,,,,,,,,
,,,,,,,,2023-08-06_08h29.03.328,HF_wild_card,2022.2.4,Win32,59.7193192,5ec1250ae718fe3ed494c474,64ce5acb97489d65b14ecc7a,64cf4b31fc6df899ebb115b3,,,,,,,sngl,resources/DR.BMP,resources/Empty.png,Door3,-0.379166667,-0.038333333,1,0,0,1.0745,optionLeft,70,2325,2,0,0,0,0,1,,,,,,,,,,,,,,,,,,,,,,,,,,,,,,,,,,,,,,,
,,,,,,,,2023-08-06_08h29.03.328,HF_wild_card,2022.2.4,Win32,59.7193192,5ec1250ae718fe3ed494c474,64ce5acb97489d65b14ecc7a,64cf4b31fc6df899ebb115b3,,,,,,,sngl,resources/Empty.png,resources/DBN.BMP,WildCard_Ex,0.3675,-0.006666667,1,0,0,1.0494,optionRight,5,2330,2,1,0,1,0,1,,,,,,,,,,,,,,,,,,,,,,,,,,,,,,,,,,,,,,,
,,,,,,,,2023-08-06_08h29.03.328,HF_wild_card,2022.2.4,Win32,59.7193192,5ec1250ae718fe3ed494c474,64ce5acb97489d65b14ecc7a,64cf4b31fc6df899ebb115b3,,,,,,,ctch,resources/DY.BMP,resources/DP.BMP,Door4,0.383333333,-0.0475,1,0,0,1.1328,optionRight,60,2390,2,2,0,2,0,1,,,,,,,,,,,,,,,,,,,,,,,,,,,,,,,,,,,,,,,
,,,,,,,,2023-08-06_08h29.03.328,HF_wild_card,2022.2.4,Win32,59.7193192,5ec1250ae718fe3ed494c474,64ce5acb97489d65b14ecc7a,64cf4b31fc6df899ebb115b3,,,,,,,decisionTrl,resources/DBN.BMP,resources/DB.BMP,WildCard_Ex,-0.375833333,-0.04,1,0,0,1.7337,optionLeft,95,2485,2,3,0,3,0,1,,,,,,,,,,,,,,,,,,,,,,,,,,,,,,,,,,,,,,,
,,,,,,,,2023-08-06_08h29.03.328,HF_wild_card,2022.2.4,Win32,59.7193192,5ec1250ae718fe3ed494c474,64ce5acb97489d65b14ecc7a,64cf4b31fc6df899ebb115b3,,,,,,,decisionTrl,resources/DB.BMP,resources/DY.BMP,Door1,0.39,-0.030833333,1,0,0,1.0822,optionRight,30,2515,2,4,0,4,0,1,,,,,,,,,,,,,,,,,,,,,,,,,,,,,,,,,,,,,,,
,,,,,,,,2023-08-06_08h29.03.328,HF_wild_card,2022.2.4,Win32,59.7193192,5ec1250ae718fe3ed494c474,64ce5acb97489d65b14ecc7a,64cf4b31fc6df899ebb115b3,,,,,,,decisionTrl,resources/DB.BMP,resources/DY.BMP,Door2,-0.369166667,-0.0225,1,0,0,1.365,optionLeft,40,2555,2,5,0,5,0,1,,,,,,,,,,,,,,,,,,,,,,,,,,,,,,,,,,,,,,,
,,,,,,,,2023-08-06_08h29.03.328,HF_wild_card,2022.2.4,Win32,59.7193192,5ec1250ae718fe3ed494c474,64ce5acb97489d65b14ecc7a,64cf4b31fc6df899ebb115b3,,,,,,,decisionTrl,resources/DBN.BMP,resources/DR.BMP,Door3,0.373333333,-0.035833333,1,0,0,1.4328,optionRight,70,2625,2,6,0,6,0,1,,,,,,,,,,,,,,,,,,,,,,,,,,,,,,,,,,,,,,,
,,,,,,,,2023-08-06_08h29.03.328,HF_wild_card,2022.2.4,Win32,59.7193192,5ec1250ae718fe3ed494c474,64ce5acb97489d65b14ecc7a,64cf4b31fc6df899ebb115b3,,,,,,,decisionTrl,resources/DR.BMP,resources/DBN.BMP,Door3,-0.36,-0.021666667,1,0,0,1.166,optionLeft,70,2695,2,7,0,7,0,1,,,,,,,,,,,,,,,,,,,,,,,,,,,,,,,,,,,,,,,
,,,,,,,,2023-08-06_08h29.03.328,HF_wild_card,2022.2.4,Win32,59.7193192,5ec1250ae718fe3ed494c474,64ce5acb97489d65b14ecc7a,64cf4b31fc6df899ebb115b3,,,,,,,ctch,resources/DB.BMP,resources/DR.BMP,Door3,0.3825,-0.020833333,1,0,0,1.1961,optionRight,70,2765,2,8,0,8,0,1,,,,,,,,,,,,,,,,,,,,,,,,,,,,,,,,,,,,,,,
,,,,,,,,2023-08-06_08h29.03.328,HF_wild_card,2022.2.4,Win32,59.7193192,5ec1250ae718fe3ed494c474,64ce5acb97489d65b14ecc7a,64cf4b31fc6df899ebb115b3,,,,,,,decisionTrl,resources/DR.BMP,resources/DP.BMP,Door3,-0.368333333,-0.041666667,1,0,0,2.5494,optionLeft,70,2835,2,9,0,9,0,1,,,,,,,,,,,,,,,,,,,,,,,,,,,,,,,,,,,,,,,
,,,,,,,,2023-08-06_08h29.03.328,HF_wild_card,2022.2.4,Win32,59.7193192,5ec1250ae718fe3ed494c474,64ce5acb97489d65b14ecc7a,64cf4b31fc6df899ebb115b3,,,,,,,decisionTrl,resources/DP.BMP,resources/DBN.BMP,Door4,-0.37,-0.046666667,1,0,0,1.0128,optionLeft,60,2895,2,10,0,10,0,1,,,,,,,,,,,,,,,,,,,,,,,,,,,,,,,,,,,,,,,
,,,,,,,,2023-08-06_08h29.03.328,HF_wild_card,2022.2.4,Win32,59.7193192,5ec1250ae718fe3ed494c474,64ce5acb97489d65b14ecc7a,64cf4b31fc6df899ebb115b3,,,,,,,decisionTrl,resources/DBN.BMP,resources/DY.BMP,WildCard_Ex,-0.423333333,-0.039166667,1,0,0,1.3482,optionLeft,5,2900,2,11,0,11,0,1,,,,,,,,,,,,,,,,,,,,,,,,,,,,,,,,,,,,,,,
,,,,,,,,2023-08-06_08h29.03.328,HF_wild_card,2022.2.4,Win32,59.7193192,5ec1250ae718fe3ed494c474,64ce5acb97489d65b14ecc7a,64cf4b31fc6df899ebb115b3,,,,,,,ctch,resources/DR.BMP,resources/DB.BMP,Door3,-0.375833333,-0.018333333,1,0,0,1.2316,optionLeft,70,2970,2,12,0,12,0,1,,,,,,,,,,,,,,,,,,,,,,,,,,,,,,,,,,,,,,,
,,,,,,,,2023-08-06_08h29.03.328,HF_wild_card,2022.2.4,Win32,59.7193192,5ec1250ae718fe3ed494c474,64ce5acb97489d65b14ecc7a,64cf4b31fc6df899ebb115b3,,,,,,,sngl,resources/Empty.png,resources/DB.BMP,Door2,0.3825,-0.028333333,1,0,0,1.1154,optionRight,40,3010,2,13,0,13,0,1,,,,,,,,,,,,,,,,,,,,,,,,,,,,,,,,,,,,,,,
,,,,,,,,2023-08-06_08h29.03.328,HF_wild_card,2022.2.4,Win32,59.7193192,5ec1250ae718fe3ed494c474,64ce5acb97489d65b14ecc7a,64cf4b31fc6df899ebb115b3,,,,,,,decisionTrl,resources/DY.BMP,resources/DBN.BMP,WildCard_Ex,0.395833333,-0.036666667,1,0,0,2.3341,optionRight,95,3105,2,14,0,14,0,1,,,,,,,,,,,,,,,,,,,,,,,,,,,,,,,,,,,,,,,
,,,,,,,,2023-08-06_08h29.03.328,HF_wild_card,2022.2.4,Win32,59.7193192,5ec1250ae718fe3ed494c474,64ce5acb97489d65b14ecc7a,64cf4b31fc6df899ebb115b3,,,,,,,sngl,resources/DP.BMP,resources/Empty.png,Door4,-0.379166667,-0.060833333,1,0,0,1.1313,optionLeft,60,3165,2,15,0,15,0,1,,,,,,,,,,,,,,,,,,,,,,,,,,,,,,,,,,,,,,,
,,,,,,,,2023-08-06_08h29.03.328,HF_wild_card,2022.2.4,Win32,59.7193192,5ec1250ae718fe3ed494c474,64ce5acb97489d65b14ecc7a,64cf4b31fc6df899ebb115b3,,,,,,,decisionTrl,resources/DY.BMP,resources/DB.BMP,Door1,-0.3675,-0.064166667,1,0,0,1.8487,optionLeft,30,3195,2,16,0,16,0,1,,,,,,,,,,,,,,,,,,,,,,,,,,,,,,,,,,,,,,,
,,,,,,,,2023-08-06_08h29.03.328,HF_wild_card,2022.2.4,Win32,59.7193192,5ec1250ae718fe3ed494c474,64ce5acb97489d65b14ecc7a,64cf4b31fc6df899ebb115b3,,,,,,,decisionTrl,resources/DB.BMP,resources/DY.BMP,Door2,-0.374166667,-0.065,1,0,0,1.5801,optionLeft,20,3215,2,17,0,17,0,1,,,,,,,,,,,,,,,,,,,,,,,,,,,,,,,,,,,,,,,
,,,,,,,,2023-08-06_08h29.03.328,HF_wild_card,2022.2.4,Win32,59.7193192,5ec1250ae718fe3ed494c474,64ce5acb97489d65b14ecc7a,64cf4b31fc6df899ebb115b3,,,,,,,ctch,resources/DP.BMP,resources/DY.BMP,Door4,-0.39,-0.076666667,1,0,0,1.6976,optionLeft,80,3295,2,18,0,18,0,1,,,,,,,,,,,,,,,,,,,,,,,,,,,,,,,,,,,,,,,
,,,,,,,,2023-08-06_08h29.03.328,HF_wild_card,2022.2.4,Win32,59.7193192,5ec1250ae718fe3ed494c474,64ce5acb97489d65b14ecc7a,64cf4b31fc6df899ebb115b3,,,,,,,decisionTrl,resources/DR.BMP,resources/DP.BMP,Door4,0.41,-0.066666667,1,0,0,0.9792,optionRight,80,3375,2,19,0,19,0,1,,,,,,,,,,,,,,,,,,,,,,,,,,,,,,,,,,,,,,,
,,,,,,,,2023-08-06_08h29.03.328,HF_wild_card,2022.2.4,Win32,59.7193192,5ec1250ae718fe3ed494c474,64ce5acb97489d65b14ecc7a,64cf4b31fc6df899ebb115b3,,,,,,,decisionTrl,resources/DP.BMP,resources/DR.BMP,Door4,-0.390833333,-0.044166667,1,0,0,0.9312,optionLeft,80,3455,2,20,0,20,0,1,,,,,,,,,,,,,,,,,,,,,,,,,,,,,,,,,,,,,,,
,,,,,,,,2023-08-06_08h29.03.328,HF_wild_card,2022.2.4,Win32,59.7193192,5ec1250ae718fe3ed494c474,64ce5acb97489d65b14ecc7a,64cf4b31fc6df899ebb115b3,,,,,,,decisionTrl,resources/DY.BMP,resources/DB.BMP,Door1,-0.365,-0.0475,1,0,0,1.6485,optionLeft,30,3485,2,21,0,21,0,1,,,,,,,,,,,,,,,,,,,,,,,,,,,,,,,,,,,,,,,
,,,,,,,,2023-08-06_08h29.03.328,HF_wild_card,2022.2.4,Win32,59.7193192,5ec1250ae718fe3ed494c474,64ce5acb97489d65b14ecc7a,64cf4b31fc6df899ebb115b3,,,,,,,decisionTrl,resources/DR.BMP,resources/DP.BMP,Door4,0.399166667,-0.050833333,1,0,0,1.0641,optionRight,60,3545,2,22,0,22,0,1,,,,,,,,,,,,,,,,,,,,,,,,,,,,,,,,,,,,,,,
,,,,,,,,2023-08-06_08h29.03.328,HF_wild_card,2022.2.4,Win32,59.7193192,5ec1250ae718fe3ed494c474,64ce5acb97489d65b14ecc7a,64cf4b31fc6df899ebb115b3,,,,,,,ctch,resources/DY.BMP,resources/DP.BMP,Door4,0.394166667,-0.065833333,1,0,0,1.1661,optionRight,60,3605,2,23,0,23,0,1,,,,,,,,,,,,,,,,,,,,,,,,,,,,,,,,,,,,,,,
,,,,,,,,2023-08-06_08h29.03.328,HF_wild_card,2022.2.4,Win32,59.7193192,5ec1250ae718fe3ed494c474,64ce5acb97489d65b14ecc7a,64cf4b31fc6df899ebb115b3,,,,,,,ctch,resources/DP.BMP,resources/DY.BMP,Door4,-0.395833333,-0.0625,1,0,0,1.1451,optionLeft,60,3665,2,24,0,24,0,1,,,,,,,,,,,,,,,,,,,,,,,,,,,,,,,,,,,,,,,
,,,,,,,,2023-08-06_08h29.03.328,HF_wild_card,2022.2.4,Win32,59.7193192,5ec1250ae718fe3ed494c474,64ce5acb97489d65b14ecc7a,64cf4b31fc6df899ebb115b3,,,,,,,sngl,resources/Empty.png,resources/DY.BMP,Door1,0.401666667,-0.046666667,1,0,0,1.3487,optionRight,30,3695,2,25,0,25,0,1,,,,,,,,,,,,,,,,,,,,,,,,,,,,,,,,,,,,,,,
,,,,,,,,2023-08-06_08h29.03.328,HF_wild_card,2022.2.4,Win32,59.7193192,5ec1250ae718fe3ed494c474,64ce5acb97489d65b14ecc7a,64cf4b31fc6df899ebb115b3,,,,,,,decisionTrl,resources/DP.BMP,resources/DR.BMP,Door4,-0.404166667,-0.070833333,1,0,0,2.0004,optionLeft,80,3775,2,26,0,26,0,1,,,,,,,,,,,,,,,,,,,,,,,,,,,,,,,,,,,,,,,
,,,,,,,,2023-08-06_08h29.03.328,HF_wild_card,2022.2.4,Win32,59.7193192,5ec1250ae718fe3ed494c474,64ce5acb97489d65b14ecc7a,64cf4b31fc6df899ebb115b3,,,,,,,decisionTrl,resources/DR.BMP,resources/DP.BMP,Door4,0.394166667,-0.061666667,1,0,0,1.4648,optionRight,60,3835,2,27,0,27,0,1,,,,,,,,,,,,,,,,,,,,,,,,,,,,,,,,,,,,,,,
,,,,,,,,2023-08-06_08h29.03.328,HF_wild_card,2022.2.4,Win32,59.7193192,5ec1250ae718fe3ed494c474,64ce5acb97489d65b14ecc7a,64cf4b31fc6df899ebb115b3,,,,,,,decisionTrl,resources/DY.BMP,resources/DB.BMP,Door1,-0.369166667,-0.044166667,1,0,0,1.4506,optionLeft,30,3865,2,28,0,28,0,1,,,,,,,,,,,,,,,,,,,,,,,,,,,,,,,,,,,,,,,
,,,,,,,,2023-08-06_08h29.03.328,HF_wild_card,2022.2.4,Win32,59.7193192,5ec1250ae718fe3ed494c474,64ce5acb97489d65b14ecc7a,64cf4b31fc6df899ebb115b3,,,,,,,ctch,resources/DR.BMP,resources/DB.BMP,Door3,-0.390833333,-0.05,1,0,0,1.367,optionLeft,70,3935,2,29,0,29,0,1,,,,,,,,,,,,,,,,,,,,,,,,,,,,,,,,,,,,,,,
,,,,,,,,2023-08-06_08h29.03.328,HF_wild_card,2022.2.4,Win32,59.7193192,5ec1250ae718fe3ed494c474,64ce5acb97489d65b14ecc7a,64cf4b31fc6df899ebb115b3,,,,,,,decisionTrl,resources/DP.BMP,resources/DR.BMP,Door4,-0.410833333,-0.0575,1,0,0,1.3116,optionLeft,80,4015,2,30,0,30,0,1,,,,,,,,,,,,,,,,,,,,,,,,,,,,,,,,,,,,,,,
,,,,,,,,2023-08-06_08h29.03.328,HF_wild_card,2022.2.4,Win32,59.7193192,5ec1250ae718fe3ed494c474,64ce5acb97489d65b14ecc7a,64cf4b31fc6df899ebb115b3,,,,,,,sngl,resources/DY.BMP,resources/Empty.png,Door1,-0.3675,-0.044166667,1,0,0,1.3166,optionLeft,30,4045,2,31,0,31,0,1,,,,,,,,,,,,,,,,,,,,,,,,,,,,,,,,,,,,,,,
,,,,,,,,2023-08-06_08h29.03.328,HF_wild_card,2022.2.4,Win32,59.7193192,5ec1250ae718fe3ed494c474,64ce5acb97489d65b14ecc7a,64cf4b31fc6df899ebb115b3,,,,,,,decisionTrl,resources/DY.BMP,resources/DB.BMP,Door1,-0.3725,-0.049166667,1,0,0,1.4484,optionLeft,30,4075,2,32,0,32,0,1,,,,,,,,,,,,,,,,,,,,,,,,,,,,,,,,,,,,,,,
,,,,,,,,2023-08-06_08h29.03.328,HF_wild_card,2022.2.4,Win32,59.7193192,5ec1250ae718fe3ed494c474,64ce5acb97489d65b14ecc7a,64cf4b31fc6df899ebb115b3,,,,,,,sngl,resources/Empty.png,resources/DR.BMP,Door3,0.38,-0.055833333,1,0,0,1.2033,optionRight,70,4145,2,33,0,33,0,1,,,,,,,,,,,,,,,,,,,,,,,,,,,,,,,,,,,,,,,
,,,,,,,,2023-08-06_08h29.03.328,HF_wild_card,2022.2.4,Win32,59.7193192,5ec1250ae718fe3ed494c474,64ce5acb97489d65b14ecc7a,64cf4b31fc6df899ebb115b3,,,,,,,decisionTrl,resources/DP.BMP,resources/DR.BMP,Door4,-0.3875,-0.071666667,1,0,0,1.2346,optionLeft,60,4205,2,34,0,34,0,1,,,,,,,,,,,,,,,,,,,,,,,,,,,,,,,,,,,,,,,
,,,,,,,,2023-08-06_08h29.03.328,HF_wild_card,2022.2.4,Win32,59.7193192,5ec1250ae718fe3ed494c474,64ce5acb97489d65b14ecc7a,64cf4b31fc6df899ebb115b3,,,,,,,decisionTrl,resources/DBN.BMP,resources/DP.BMP,Door4,0.385,-0.038333333,1,0,0,1.0823,optionRight,60,4265,2,35,0,35,0,1,,,,,,,,,,,,,,,,,,,,,,,,,,,,,,,,,,,,,,,
,,,,,,,,2023-08-06_08h29.03.328,HF_wild_card,2022.2.4,Win32,59.7193192,5ec1250ae718fe3ed494c474,64ce5acb97489d65b14ecc7a,64cf4b31fc6df899ebb115b3,,,,,,,decisionTrl,resources/DB.BMP,resources/DY.BMP,Door2,-0.440833333,-0.05,1,0,0,1.3825,optionLeft,20,4285,2,36,0,36,0,1,,,,,,,,,,,,,,,,,,,,,,,,,,,,,,,,,,,,,,,
,,,,,,,,2023-08-06_08h29.03.328,HF_wild_card,2022.2.4,Win32,59.7193192,5ec1250ae718fe3ed494c474,64ce5acb97489d65b14ecc7a,64cf4b31fc6df899ebb115b3,,,,,,,decisionTrl,resources/DB.BMP,resources/DBN.BMP,WildCard_Ex,0.3625,-0.031666667,1,0,0,1.1132,optionRight,5,4290,2,37,0,37,0,1,,,,,,,,,,,,,,,,,,,,,,,,,,,,,,,,,,,,,,,
,,,,,,,,2023-08-06_08h29.03.328,HF_wild_card,2022.2.4,Win32,59.7193192,5ec1250ae718fe3ed494c474,64ce5acb97489d65b14ecc7a,64cf4b31fc6df899ebb115b3,,,,,,,sngl,resources/DBN.BMP,resources/Empty.png,WildCard_Ex,-0.348333333,-0.051666667,1,0,0,0.8698,optionLeft,5,4295,2,38,0,38,0,1,,,,,,,,,,,,,,,,,,,,,,,,,,,,,,,,,,,,,,,
,,,,,,,,2023-08-06_08h29.03.328,HF_wild_card,2022.2.4,Win32,59.7193192,5ec1250ae718fe3ed494c474,64ce5acb97489d65b14ecc7a,64cf4b31fc6df899ebb115b3,,,,,,,sngl,resources/Empty.png,resources/DBN.BMP,WildCard_Ex,0.3825,-0.021666667,1,0,0,0.8528,optionRight,95,4390,2,39,0,39,0,1,,,,,,,,,,,,,,,,,,,,,,,,,,,,,,,,,,,,,,,
,,,,,,,,2023-08-06_08h29.03.328,HF_wild_card,2022.2.4,Win32,59.7193192,5ec1250ae718fe3ed494c474,64ce5acb97489d65b14ecc7a,64cf4b31fc6df899ebb115b3,,,,,,,ctch,resources/DB.BMP,resources/DR.BMP,Door3,0.400833333,-0.0425,1,0,0,1.6968,optionRight,70,4460,2,40,0,40,0,1,,,,,,,,,,,,,,,,,,,,,,,,,,,,,,,,,,,,,,,
,,,,,,,,2023-08-06_08h29.03.328,HF_wild_card,2022.2.4,Win32,59.7193192,5ec1250ae718fe3ed494c474,64ce5acb97489d65b14ecc7a,64cf4b31fc6df899ebb115b3,,,,,,,sngl,resources/DB.BMP,resources/Empty.png,Door2,-0.363333333,-0.020833333,1,0,0,0.9267,optionLeft,20,4480,2,41,0,41,0,1,,,,,,,,,,,,,,,,,,,,,,,,,,,,,,,,,,,,,,,
,,,,,,,,2023-08-06_08h29.03.328,HF_wild_card,2022.2.4,Win32,59.7193192,5ec1250ae718fe3ed494c474,64ce5acb97489d65b14ecc7a,64cf4b31fc6df899ebb115b3,,,,,,,sngl,resources/DBN.BMP,resources/Empty.png,WildCard_Ex,-0.404166667,-0.043333333,1,0,0,0.8669,optionLeft,95,4575,2,42,0,42,0,1,,,,,,,,,,,,,,,,,,,,,,,,,,,,,,,,,,,,,,,
,,,,,,,,2023-08-06_08h29.03.328,HF_wild_card,2022.2.4,Win32,59.7193192,5ec1250ae718fe3ed494c474,64ce5acb97489d65b14ecc7a,64cf4b31fc6df899ebb115b3,,,,,,,sngl,resources/Empty.png,resources/DP.BMP,Door4,0.369166667,-0.0475,1,0,0,1.0497,optionRight,80,4655,2,43,0,43,0,1,,,,,,,,,,,,,,,,,,,,,,,,,,,,,,,,,,,,,,,
,,,,,,,,2023-08-06_08h29.03.328,HF_wild_card,2022.2.4,Win32,59.7193192,5ec1250ae718fe3ed494c474,64ce5acb97489d65b14ecc7a,64cf4b31fc6df899ebb115b3,,,,,,,,,,,,,,,,,,,,,,,,,,1,0,1,0,1,,,,,,,,,,,,,,,,,,,,,,,,,,,,,,,,,,
,,,,,,,,2023-08-06_08h29.03.328,HF_wild_card,2022.2.4,Win32,59.7193192,5ec1250ae718fe3ed494c474,64ce5acb97489d65b14ecc7a,64cf4b31fc6df899ebb115b3,,,,,,,decisionTrl,resources/DP.BMP,resources/DBN.BMP,Door4,-0.36,-0.0225,1,0,0,1.2624,optionLeft,60,4715,3,0,0,0,0,1,,,,,,,,,,,,,,,,,,,,,,,,,,,,,,,,,,,,,,,
,,,,,,,,2023-08-06_08h29.03.328,HF_wild_card,2022.2.4,Win32,59.7193192,5ec1250ae718fe3ed494c474,64ce5acb97489d65b14ecc7a,64cf4b31fc6df899ebb115b3,,,,,,,ctch,resources/DB.BMP,resources/DR.BMP,Door3,0.3875,-0.060833333,1,0,0,0.9106,optionRight,70,4785,3,1,0,1,0,1,,,,,,,,,,,,,,,,,,,,,,,,,,,,,,,,,,,,,,,
,,,,,,,,2023-08-06_08h29.03.328,HF_wild_card,2022.2.4,Win32,59.7193192,5ec1250ae718fe3ed494c474,64ce5acb97489d65b14ecc7a,64cf4b31fc6df899ebb115b3,,,,,,,decisionTrl,resources/DB.BMP,resources/DY.BMP,Door1,0.434166667,-0.049166667,1,0,0,2.8131,optionRight,30,4815,3,2,0,2,0,1,,,,,,,,,,,,,,,,,,,,,,,,,,,,,,,,,,,,,,,
,,,,,,,,2023-08-06_08h29.03.328,HF_wild_card,2022.2.4,Win32,59.7193192,5ec1250ae718fe3ed494c474,64ce5acb97489d65b14ecc7a,64cf4b31fc6df899ebb115b3,,,,,,,decisionTrl,resources/DY.BMP,resources/DB.BMP,Door2,0.354166667,-0.025833333,1,0,0,1.5976,optionRight,20,4835,3,3,0,3,0,1,,,,,,,,,,,,,,,,,,,,,,,,,,,,,,,,,,,,,,,
,,,,,,,,2023-08-06_08h29.03.328,HF_wild_card,2022.2.4,Win32,59.7193192,5ec1250ae718fe3ed494c474,64ce5acb97489d65b14ecc7a,64cf4b31fc6df899ebb115b3,,,,,,,sngl,resources/DR.BMP,resources/Empty.png,Door3,-0.36,-0.03,1,0,0,0.799,optionLeft,70,4905,3,4,0,4,0,1,,,,,,,,,,,,,,,,,,,,,,,,,,,,,,,,,,,,,,,
,,,,,,,,2023-08-06_08h29.03.328,HF_wild_card,2022.2.4,Win32,59.7193192,5ec1250ae718fe3ed494c474,64ce5acb97489d65b14ecc7a,64cf4b31fc6df899ebb115b3,,,,,,,decisionTrl,resources/DBN.BMP,resources/DP.BMP,Door4,0.4575,-0.026666667,1,0,0,1.0805,optionRight,80,4985,3,5,0,5,0,1,,,,,,,,,,,,,,,,,,,,,,,,,,,,,,,,,,,,,,,
,,,,,,,,2023-08-06_08h29.03.328,HF_wild_card,2022.2.4,Win32,59.7193192,5ec1250ae718fe3ed494c474,64ce5acb97489d65b14ecc7a,64cf4b31fc6df899ebb115b3,,,,,,,ctch,resources/DP.BMP,resources/DY.BMP,Door4,-0.366666667,-0.051666667,1,0,0,0.7824,optionLeft,60,5045,3,6,0,6,0,1,,,,,,,,,,,,,,,,,,,,,,,,,,,,,,,,,,,,,,,
,,,,,,,,2023-08-06_08h29.03.328,HF_wild_card,2022.2.4,Win32,59.7193192,5ec1250ae718fe3ed494c474,64ce5acb97489d65b14ecc7a,64cf4b31fc6df899ebb115b3,,,,,,,sngl,resources/DY.BMP,resources/Empty.png,Door1,-0.31,-0.0275,1,0,0,0.8623,optionLeft,30,5075,3,7,0,7,0,1,,,,,,,,,,,,,,,,,,,,,,,,,,,,,,,,,,,,,,,
,,,,,,,,2023-08-06_08h29.03.328,HF_wild_card,2022.2.4,Win32,59.7193192,5ec1250ae718fe3ed494c474,64ce5acb97489d65b14ecc7a,64cf4b31fc6df899ebb115b3,,,,,,,sngl,resources/Empty.png,resources/DB.BMP,Door2,0.3025,-0.030833333,1,0,0,0.7495,optionRight,20,5095,3,8,0,8,0,1,,,,,,,,,,,,,,,,,,,,,,,,,,,,,,,,,,,,,,,
,,,,,,,,2023-08-06_08h29.03.328,HF_wild_card,2022.2.4,Win32,59.7193192,5ec1250ae718fe3ed494c474,64ce5acb97489d65b14ecc7a,64cf4b31fc6df899ebb115b3,,,,,,,ctch,resources/DY.BMP,resources/DP.BMP,Door4,0.339166667,-0.063333333,1,0,0,1.0123,optionRight,60,5155,3,9,0,9,0,1,,,,,,,,,,,,,,,,,,,,,,,,,,,,,,,,,,,,,,,
,,,,,,,,2023-08-06_08h29.03.328,HF_wild_card,2022.2.4,Win32,59.7193192,5ec1250ae718fe3ed494c474,64ce5acb97489d65b14ecc7a,64cf4b31fc6df899ebb115b3,,,,,,,sngl,resources/DB.BMP,resources/Empty.png,Door2,-0.313333333,-0.031666667,1,0,0,0.8157,optionLeft,40,5195,3,10,0,10,0,1,,,,,,,,,,,,,,,,,,,,,,,,,,,,,,,,,,,,,,,
,,,,,,,,2023-08-06_08h29.03.328,HF_wild_card,2022.2.4,Win32,59.7193192,5ec1250ae718fe3ed494c474,64ce5acb97489d65b14ecc7a,64cf4b31fc6df899ebb115b3,,,,,,,decisionTrl,resources/DY.BMP,resources/DB.BMP,Door1,-0.265,-0.0225,1,0,0,0.9039,optionLeft,30,5225,3,11,0,11,0,1,,,,,,,,,,,,,,,,,,,,,,,,,,,,,,,,,,,,,,,
,,,,,,,,2023-08-06_08h29.03.328,HF_wild_card,2022.2.4,Win32,59.7193192,5ec1250ae718fe3ed494c474,64ce5acb97489d65b14ecc7a,64cf4b31fc6df899ebb115b3,,,,,,,sngl,resources/Empty.png,resources/DP.BMP,Door4,0.384166667,-0.035833333,1,0,0,0.749,optionRight,60,5285,3,12,0,12,0,1,,,,,,,,,,,,,,,,,,,,,,,,,,,,,,,,,,,,,,,
,,,,,,,,2023-08-06_08h29.03.328,HF_wild_card,2022.2.4,Win32,59.7193192,5ec1250ae718fe3ed494c474,64ce5acb97489d65b14ecc7a,64cf4b31fc6df899ebb115b3,,,,,,,decisionTrl,resources/DP.BMP,resources/DR.BMP,Door4,-0.380833333,-0.058333333,1,0,0,1.9375,optionLeft,60,5345,3,13,0,13,0,1,,,,,,,,,,,,,,,,,,,,,,,,,,,,,,,,,,,,,,,
,,,,,,,,2023-08-06_08h29.03.328,HF_wild_card,2022.2.4,Win32,59.7193192,5ec1250ae718fe3ed494c474,64ce5acb97489d65b14ecc7a,64cf4b31fc6df899ebb115b3,,,,,,,decisionTrl,resources/DY.BMP,resources/DB.BMP,Door1,-0.350833333,-0.041666667,1,0,0,1.2163,optionLeft,30,5375,3,14,0,14,0,1,,,,,,,,,,,,,,,,,,,,,,,,,,,,,,,,,,,,,,,
,,,,,,,,2023-08-06_08h29.03.328,HF_wild_card,2022.2.4,Win32,59.7193192,5ec1250ae718fe3ed494c474,64ce5acb97489d65b14ecc7a,64cf4b31fc6df899ebb115b3,,,,,,,sngl,resources/Empty.png,resources/DBN.BMP,WildCard_Ex,0.3675,-0.050833333,1,0,0,0.7271,optionRight,5,5380,3,15,0,15,0,1,,,,,,,,,,,,,,,,,,,,,,,,,,,,,,,,,,,,,,,
,,,,,,,,2023-08-06_08h29.03.328,HF_wild_card,2022.2.4,Win32,59.7193192,5ec1250ae718fe3ed494c474,64ce5acb97489d65b14ecc7a,64cf4b31fc6df899ebb115b3,,,,,,,decisionTrl,resources/DB.BMP,resources/DY.BMP,Door1,0.416666667,-0.028333333,1,0,0,1.9716,optionRight,30,5410,3,16,0,16,0,1,,,,,,,,,,,,,,,,,,,,,,,,,,,,,,,,,,,,,,,
,,,,,,,,2023-08-06_08h29.03.328,HF_wild_card,2022.2.4,Win32,59.7193192,5ec1250ae718fe3ed494c474,64ce5acb97489d65b14ecc7a,64cf4b31fc6df899ebb115b3,,,,,,,decisionTrl,resources/DP.BMP,resources/DR.BMP,Door3,0.384166667,-0.034166667,1,0,0,1.146,optionRight,70,5480,3,17,0,17,0,1,,,,,,,,,,,,,,,,,,,,,,,,,,,,,,,,,,,,,,,
,,,,,,,,2023-08-06_08h29.03.328,HF_wild_card,2022.2.4,Win32,59.7193192,5ec1250ae718fe3ed494c474,64ce5acb97489d65b14ecc7a,64cf4b31fc6df899ebb115b3,,,,,,,decisionTrl,resources/DB.BMP,resources/DY.BMP,Door1,0.350833333,-0.0325,1,0,0,1.4336,optionRight,30,5510,3,18,0,18,0,1,,,,,,,,,,,,,,,,,,,,,,,,,,,,,,,,,,,,,,,
,,,,,,,,2023-08-06_08h29.03.328,HF_wild_card,2022.2.4,Win32,59.7193192,5ec1250ae718fe3ed494c474,64ce5acb97489d65b14ecc7a,64cf4b31fc6df899ebb115b3,,,,,,,decisionTrl,resources/DBN.BMP,resources/DR.BMP,Door3,0.371666667,-0.0375,1,0,0,1.7502,optionRight,70,5580,3,19,0,19,0,1,,,,,,,,,,,,,,,,,,,,,,,,,,,,,,,,,,,,,,,
,,,,,,,,2023-08-06_08h29.03.328,HF_wild_card,2022.2.4,Win32,59.7193192,5ec1250ae718fe3ed494c474,64ce5acb97489d65b14ecc7a,64cf4b31fc6df899ebb115b3,,,,,,,decisionTrl,resources/DBN.BMP,resources/DB.BMP,WildCard_Ex,-0.360833333,-0.016666667,1,0,0,1.6477,optionLeft,95,5675,3,20,0,20,0,1,,,,,,,,,,,,,,,,,,,,,,,,,,,,,,,,,,,,,,,
,,,,,,,,2023-08-06_08h29.03.328,HF_wild_card,2022.2.4,Win32,59.7193192,5ec1250ae718fe3ed494c474,64ce5acb97489d65b14ecc7a,64cf4b31fc6df899ebb115b3,,,,,,,ctch,resources/DB.BMP,resources/DR.BMP,Door3,0.370833333,-0.0375,1,0,0,0.9319,optionRight,70,5745,3,21,0,21,0,1,,,,,,,,,,,,,,,,,,,,,,,,,,,,,,,,,,,,,,,
,,,,,,,,2023-08-06_08h29.03.328,HF_wild_card,2022.2.4,Win32,59.7193192,5ec1250ae718fe3ed494c474,64ce5acb97489d65b14ecc7a,64cf4b31fc6df899ebb115b3,,,,,,,decisionTrl,resources/DY.BMP,resources/DB.BMP,Door1,-0.35,-0.023333333,1,0,0,1.4826,optionLeft,30,5775,3,22,0,22,0,1,,,,,,,,,,,,,,,,,,,,,,,,,,,,,,,,,,,,,,,
,,,,,,,,2023-08-06_08h29.03.328,HF_wild_card,2022.2.4,Win32,59.7193192,5ec1250ae718fe3ed494c474,64ce5acb97489d65b14ecc7a,64cf4b31fc6df899ebb115b3,,,,,,,decisionTrl,resources/DB.BMP,resources/DBN.BMP,WildCard_Ex,0.375833333,-0.051666667,1,0,0,1.0479,optionRight,5,5780,3,23,0,23,0,1,,,,,,,,,,,,,,,,,,,,,,,,,,,,,,,,,,,,,,,
,,,,,,,,2023-08-06_08h29.03.328,HF_wild_card,2022.2.4,Win32,59.7193192,5ec1250ae718fe3ed494c474,64ce5acb97489d65b14ecc7a,64cf4b31fc6df899ebb115b3,,,,,,,decisionTrl,resources/DR.BMP,resources/DP.BMP,Door4,0.3525,-0.045,1,0,0,1.1865,optionRight,60,5840,3,24,0,24,0,1,,,,,,,,,,,,,,,,,,,,,,,,,,,,,,,,,,,,,,,
,,,,,,,,2023-08-06_08h29.03.328,HF_wild_card,2022.2.4,Win32,59.7193192,5ec1250ae718fe3ed494c474,64ce5acb97489d65b14ecc7a,64cf4b31fc6df899ebb115b3,,,,,,,decisionTrl,resources/DBN.BMP,resources/DY.BMP,WildCard_Ex,-0.3875,-0.03,1,0,0,2.3945,optionLeft,95,5935,3,25,0,25,0,1,,,,,,,,,,,,,,,,,,,,,,,,,,,,,,,,,,,,,,,
,,,,,,,,2023-08-06_08h29.03.328,HF_wild_card,2022.2.4,Win32,59.7193192,5ec1250ae718fe3ed494c474,64ce5acb97489d65b14ecc7a,64cf4b31fc6df899ebb115b3,,,,,,,ctch,resources/DR.BMP,resources/DB.BMP,Door3,-0.385833333,-0.0525,1,0,0,1.0792,optionLeft,70,6005,3,26,0,26,0,1,,,,,,,,,,,,,,,,,,,,,,,,,,,,,,,,,,,,,,,
,,,,,,,,2023-08-06_08h29.03.328,HF_wild_card,2022.2.4,Win32,59.7193192,5ec1250ae718fe3ed494c474,64ce5acb97489d65b14ecc7a,64cf4b31fc6df899ebb115b3,,,,,,,decisionTrl,resources/DB.BMP,resources/DY.BMP,Door1,0.360833333,-0.051666667,1,0,0,1.1306,optionRight,30,6035,3,27,0,27,0,1,,,,,,,,,,,,,,,,,,,,,,,,,,,,,,,,,,,,,,,
,,,,,,,,2023-08-06_08h29.03.328,HF_wild_card,2022.2.4,Win32,59.7193192,5ec1250ae718fe3ed494c474,64ce5acb97489d65b14ecc7a,64cf4b31fc6df899ebb115b3,,,,,,,sngl,resources/Empty.png,resources/DY.BMP,Door1,0.408333333,-0.028333333,1,0,0,1.3433,optionRight,30,6065,3,28,0,28,0,1,,,,,,,,,,,,,,,,,,,,,,,,,,,,,,,,,,,,,,,
,,,,,,,,2023-08-06_08h29.03.328,HF_wild_card,2022.2.4,Win32,59.7193192,5ec1250ae718fe3ed494c474,64ce5acb97489d65b14ecc7a,64cf4b31fc6df899ebb115b3,,,,,,,decisionTrl,resources/DR.BMP,resources/DP.BMP,Door4,0.369166667,-0.0475,1,0,0,1.3206,optionRight,60,6125,3,29,0,29,0,1,,,,,,,,,,,,,,,,,,,,,,,,,,,,,,,,,,,,,,,
,,,,,,,,2023-08-06_08h29.03.328,HF_wild_card,2022.2.4,Win32,59.7193192,5ec1250ae718fe3ed494c474,64ce5acb97489d65b14ecc7a,64cf4b31fc6df899ebb115b3,,,,,,,decisionTrl,resources/DP.BMP,resources/DR.BMP,Door3,0.379166667,-0.045,1,0,0,1.1096,optionRight,70,6195,3,30,0,30,0,1,,,,,,,,,,,,,,,,,,,,,,,,,,,,,,,,,,,,,,,
,,,,,,,,2023-08-06_08h29.03.328,HF_wild_card,2022.2.4,Win32,59.7193192,5ec1250ae718fe3ed494c474,64ce5acb97489d65b14ecc7a,64cf4b31fc6df899ebb115b3,,,,,,,decisionTrl,resources/DR.BMP,resources/DP.BMP,Door3,-0.369166667,-0.063333333,1,0,0,1.3322,optionLeft,70,6265,3,31,0,31,0,1,,,,,,,,,,,,,,,,,,,,,,,,,,,,,,,,,,,,,,,
,,,,,,,,2023-08-06_08h29.03.328,HF_wild_card,2022.2.4,Win32,59.7193192,5ec1250ae718fe3ed494c474,64ce5acb97489d65b14ecc7a,64cf4b31fc6df899ebb115b3,,,,,,,decisionTrl,resources/DP.BMP,resources/DR.BMP,Door4,-0.375,-0.0625,1,0,0,1.7965,optionLeft,80,6345,3,32,0,32,0,1,,,,,,,,,,,,,,,,,,,,,,,,,,,,,,,,,,,,,,,
,,,,,,,,2023-08-06_08h29.03.328,HF_wild_card,2022.2.4,Win32,59.7193192,5ec1250ae718fe3ed494c474,64ce5acb97489d65b14ecc7a,64cf4b31fc6df899ebb115b3,,,,,,,decisionTrl,resources/DR.BMP,resources/DBN.BMP,WildCard_Ex,0.381666667,-0.01,1,0,0,3.108,optionRight,95,6440,3,33,0,33,0,1,,,,,,,,,,,,,,,,,,,,,,,,,,,,,,,,,,,,,,,
,,,,,,,,2023-08-06_08h29.03.328,HF_wild_card,2022.2.4,Win32,59.7193192,5ec1250ae718fe3ed494c474,64ce5acb97489d65b14ecc7a,64cf4b31fc6df899ebb115b3,,,,,,,sngl,resources/Empty.png,resources/DBN.BMP,WildCard_Ex,0.389166667,-0.014166667,1,0,0,0.8642,optionRight,95,6535,3,34,0,34,0,1,,,,,,,,,,,,,,,,,,,,,,,,,,,,,,,,,,,,,,,
,,,,,,,,2023-08-06_08h29.03.328,HF_wild_card,2022.2.4,Win32,59.7193192,5ec1250ae718fe3ed494c474,64ce5acb97489d65b14ecc7a,64cf4b31fc6df899ebb115b3,,,,,,,ctch,resources/DY.BMP,resources/DP.BMP,Door4,0.409166667,-0.0475,1,0,0,0.895,optionRight,80,6615,3,35,0,35,0,1,,,,,,,,,,,,,,,,,,,,,,,,,,,,,,,,,,,,,,,
,,,,,,,,2023-08-06_08h29.03.328,HF_wild_card,2022.2.4,Win32,59.7193192,5ec1250ae718fe3ed494c474,64ce5acb97489d65b14ecc7a,64cf4b31fc6df899ebb115b3,,,,,,,sngl,resources/Empty.png,resources/DR.BMP,Door3,0.3675,-0.045833333,1,0,0,0.9262,optionRight,70,6685,3,36,0,36,0,1,,,,,,,,,,,,,,,,,,,,,,,,,,,,,,,,,,,,,,,
,,,,,,,,2023-08-06_08h29.03.328,HF_wild_card,2022.2.4,Win32,59.7193192,5ec1250ae718fe3ed494c474,64ce5acb97489d65b14ecc7a,64cf4b31fc6df899ebb115b3,,,,,,,sngl,resources/DBN.BMP,resources/Empty.png,WildCard_Ex,-0.456666667,0.003333333,1,0,0,0.8825,optionLeft,95,6780,3,37,0,37,0,1,,,,,,,,,,,,,,,,,,,,,,,,,,,,,,,,,,,,,,,
,,,,,,,,2023-08-06_08h29.03.328,HF_wild_card,2022.2.4,Win32,59.7193192,5ec1250ae718fe3ed494c474,64ce5acb97489d65b14ecc7a,64cf4b31fc6df899ebb115b3,,,,,,,sngl,resources/DP.BMP,resources/Empty.png,Door4,-0.344166667,-0.040833333,1,0,0,0.835,optionLeft,80,6860,3,38,0,38,0,1,,,,,,,,,,,,,,,,,,,,,,,,,,,,,,,,,,,,,,,
,,,,,,,,2023-08-06_08h29.03.328,HF_wild_card,2022.2.4,Win32,59.7193192,5ec1250ae718fe3ed494c474,64ce5acb97489d65b14ecc7a,64cf4b31fc6df899ebb115b3,,,,,,,ctch,resources/DP.BMP,resources/DY.BMP,Door4,-0.391666667,-0.0425,1,0,0,0.9025,optionLeft,60,6920,3,39,0,39,0,1,,,,,,,,,,,,,,,,,,,,,,,,,,,,,,,,,,,,,,,
,,,,,,,,2023-08-06_08h29.03.328,HF_wild_card,2022.2.4,Win32,59.7193192,5ec1250ae718fe3ed494c474,64ce5acb97489d65b14ecc7a,64cf4b31fc6df899ebb115b3,,,,,,,decisionTrl,resources/DY.BMP,resources/DBN.BMP,WildCard_Ex,0.391666667,-0.015,1,0,0,1.099,optionRight,95,7015,3,40,0,40,0,1,,,,,,,,,,,,,,,,,,,,,,,,,,,,,,,,,,,,,,,
,,,,,,,,2023-08-06_08h29.03.328,HF_wild_card,2022.2.4,Win32,59.7193192,5ec1250ae718fe3ed494c474,64ce5acb97489d65b14ecc7a,64cf4b31fc6df899ebb115b3,,,,,,,ctch,resources/DR.BMP,resources/DB.BMP,Door3,-0.3975,-0.05,1,0,0,0.881,optionLeft,70,7085,3,41,0,41,0,1,,,,,,,,,,,,,,,,,,,,,,,,,,,,,,,,,,,,,,,
,,,,,,,,2023-08-06_08h29.03.328,HF_wild_card,2022.2.4,Win32,59.7193192,5ec1250ae718fe3ed494c474,64ce5acb97489d65b14ecc7a,64cf4b31fc6df899ebb115b3,,,,,,,decisionTrl,resources/DR.BMP,resources/DP.BMP,Door4,0.386666667,-0.065,1,0,0,1.329,optionRight,60,7145,3,42,0,42,0,1,,,,,,,,,,,,,,,,,,,,,,,,,,,,,,,,,,,,,,,
,,,,,,,,2023-08-06_08h29.03.328,HF_wild_card,2022.2.4,Win32,59.7193192,5ec1250ae718fe3ed494c474,64ce5acb97489d65b14ecc7a,64cf4b31fc6df899ebb115b3,,,,,,,sngl,resources/DBN.BMP,resources/Empty.png,WildCard_Ex,-0.375,-0.054166667,1,0,0,0.8025,optionLeft,5,7150,3,43,0,43,0,1,,,,,,,,,,,,,,,,,,,,,,,,,,,,,,,,,,,,,,,
,,,,,,,,2023-08-06_08h29.03.328,HF_wild_card,2022.2.4,Win32,59.7193192,5ec1250ae718fe3ed494c474,64ce5acb97489d65b14ecc7a,64cf4b31fc6df899ebb115b3,,,,,,,,,,,,,,,,,,,,,,,,,,2,0,2,0,1,,,,,,,,,,,,,,,,,,,,,,,,,,,,,,,,,,
,,,,,,,,2023-08-06_08h29.03.328,HF_wild_card,2022.2.4,Win32,59.7193192,5ec1250ae718fe3ed494c474,64ce5acb97489d65b14ecc7a,64cf4b31fc6df899ebb115b3,,,,,,,decisionTrl,resources/DB.BMP,resources/DG.BMP,WildCard_NonEx,0.390833333,-0.048333333,1,0,0,2.4797,optionRight,55,7205,4,0,0,0,0,1,,,,,,,,,,,,,,,,,,,,,,,,,,,,,,,,,,,,,,,
,,,,,,,,2023-08-06_08h29.03.328,HF_wild_card,2022.2.4,Win32,59.7193192,5ec1250ae718fe3ed494c474,64ce5acb97489d65b14ecc7a,64cf4b31fc6df899ebb115b3,,,,,,,decisionTrl,resources/DP.BMP,resources/DR.BMP,Door4,-0.401666667,-0.085,1,0,0,1.1452,optionLeft,60,7265,4,1,0,1,0,1,,,,,,,,,,,,,,,,,,,,,,,,,,,,,,,,,,,,,,,
,,,,,,,,2023-08-06_08h29.03.328,HF_wild_card,2022.2.4,Win32,59.7193192,5ec1250ae718fe3ed494c474,64ce5acb97489d65b14ecc7a,64cf4b31fc6df899ebb115b3,,,,,,,sngl,resources/DR.BMP,resources/Empty.png,Door3,-0.356666667,-0.0525,1,0,0,0.691,optionLeft,70,7335,4,2,0,2,0,1,,,,,,,,,,,,,,,,,,,,,,,,,,,,,,,,,,,,,,,
,,,,,,,,2023-08-06_08h29.03.328,HF_wild_card,2022.2.4,Win32,59.7193192,5ec1250ae718fe3ed494c474,64ce5acb97489d65b14ecc7a,64cf4b31fc6df899ebb115b3,,,,,,,decisionTrl,resources/DB.BMP,resources/DY.BMP,Door1,0.429166667,-0.075833333,1,0,0,1.4368,optionRight,30,7365,4,3,0,3,0,1,,,,,,,,,,,,,,,,,,,,,,,,,,,,,,,,,,,,,,,
,,,,,,,,2023-08-06_08h29.03.328,HF_wild_card,2022.2.4,Win32,59.7193192,5ec1250ae718fe3ed494c474,64ce5acb97489d65b14ecc7a,64cf4b31fc6df899ebb115b3,,,,,,,decisionTrl,resources/DR.BMP,resources/DP.BMP,Door4,0.41,-0.074166667,1,0,0,1.0327,optionRight,80,7445,4,4,0,4,0,1,,,,,,,,,,,,,,,,,,,,,,,,,,,,,,,,,,,,,,,
,,,,,,,,2023-08-06_08h29.03.328,HF_wild_card,2022.2.4,Win32,59.7193192,5ec1250ae718fe3ed494c474,64ce5acb97489d65b14ecc7a,64cf4b31fc6df899ebb115b3,,,,,,,decisionTrl,resources/DY.BMP,resources/DB.BMP,Door1,-0.346666667,-0.036666667,1,0,0,1.6333,optionLeft,30,7475,4,5,0,5,0,1,,,,,,,,,,,,,,,,,,,,,,,,,,,,,,,,,,,,,,,
,,,,,,,,2023-08-06_08h29.03.328,HF_wild_card,2022.2.4,Win32,59.7193192,5ec1250ae718fe3ed494c474,64ce5acb97489d65b14ecc7a,64cf4b31fc6df899ebb115b3,,,,,,,sngl,resources/Empty.png,resources/DB.BMP,Door2,0.365833333,-0.050833333,1,0,0,0.9471,optionRight,40,7515,4,6,0,6,0,1,,,,,,,,,,,,,,,,,,,,,,,,,,,,,,,,,,,,,,,
,,,,,,,,2023-08-06_08h29.03.328,HF_wild_card,2022.2.4,Win32,59.7193192,5ec1250ae718fe3ed494c474,64ce5acb97489d65b14ecc7a,64cf4b31fc6df899ebb115b3,,,,,,,sngl,resources/Empty.png,resources/DR.BMP,Door3,0.354166667,-0.035833333,1,0,0,0.8274,optionRight,70,7585,4,7,0,7,0,1,,,,,,,,,,,,,,,,,,,,,,,,,,,,,,,,,,,,,,,
,,,,,,,,2023-08-06_08h29.03.328,HF_wild_card,2022.2.4,Win32,59.7193192,5ec1250ae718fe3ed494c474,64ce5acb97489d65b14ecc7a,64cf4b31fc6df899ebb115b3,,,,,,,decisionTrl,resources/DR.BMP,resources/DG.BMP,Door3,-0.395833333,-0.058333333,1,0,0,3.5516,optionLeft,70,7655,4,8,0,8,0,1,,,,,,,,,,,,,,,,,,,,,,,,,,,,,,,,,,,,,,,
,,,,,,,,2023-08-06_08h29.03.328,HF_wild_card,2022.2.4,Win32,59.7193192,5ec1250ae718fe3ed494c474,64ce5acb97489d65b14ecc7a,64cf4b31fc6df899ebb115b3,,,,,,,decisionTrl,resources/DB.BMP,resources/DY.BMP,Door1,0.3725,-0.040833333,1,0,0,1.0862,optionRight,30,7685,4,9,0,9,0,1,,,,,,,,,,,,,,,,,,,,,,,,,,,,,,,,,,,,,,,
,,,,,,,,2023-08-06_08h29.03.328,HF_wild_card,2022.2.4,Win32,59.7193192,5ec1250ae718fe3ed494c474,64ce5acb97489d65b14ecc7a,64cf4b31fc6df899ebb115b3,,,,,,,ctch,resources/DB.BMP,resources/DR.BMP,Door3,0.41,-0.050833333,1,0,0,1.081,optionRight,70,7755,4,10,0,10,0,1,,,,,,,,,,,,,,,,,,,,,,,,,,,,,,,,,,,,,,,
,,,,,,,,2023-08-06_08h29.03.328,HF_wild_card,2022.2.4,Win32,59.7193192,5ec1250ae718fe3ed494c474,64ce5acb97489d65b14ecc7a,64cf4b31fc6df899ebb115b3,,,,,,,sngl,resources/DG.BMP,resources/Empty.png,WildCard_NonEx,-0.3275,-0.055,1,0,0,0.8359,optionLeft,45,7800,4,11,0,11,0,1,,,,,,,,,,,,,,,,,,,,,,,,,,,,,,,,,,,,,,,
,,,,,,,,2023-08-06_08h29.03.328,HF_wild_card,2022.2.4,Win32,59.7193192,5ec1250ae718fe3ed494c474,64ce5acb97489d65b14ecc7a,64cf4b31fc6df899ebb115b3,,,,,,,decisionTrl,resources/DG.BMP,resources/DP.BMP,Door4,0.395833333,-0.073333333,1,0,0,2.5134,optionRight,60,7860,4,12,0,12,0,1,,,,,,,,,,,,,,,,,,,,,,,,,,,,,,,,,,,,,,,
,,,,,,,,2023-08-06_08h29.03.328,HF_wild_card,2022.2.4,Win32,59.7193192,5ec1250ae718fe3ed494c474,64ce5acb97489d65b14ecc7a,64cf4b31fc6df899ebb115b3,,,,,,,decisionTrl,resources/DR.BMP,resources/DP.BMP,Door4,0.4025,-0.065,1,0,0,1.6171,optionRight,60,7920,4,13,0,13,0,1,,,,,,,,,,,,,,,,,,,,,,,,,,,,,,,,,,,,,,,
,,,,,,,,2023-08-06_08h29.03.328,HF_wild_card,2022.2.4,Win32,59.7193192,5ec1250ae718fe3ed494c474,64ce5acb97489d65b14ecc7a,64cf4b31fc6df899ebb115b3,,,,,,,sngl,resources/Empty.png,resources/DP.BMP,Door4,0.3825,-0.0475,1,0,0,0.8174,optionRight,80,8000,4,14,0,14,0,1,,,,,,,,,,,,,,,,,,,,,,,,,,,,,,,,,,,,,,,
,,,,,,,,2023-08-06_08h29.03.328,HF_wild_card,2022.2.4,Win32,59.7193192,5ec1250ae718fe3ed494c474,64ce5acb97489d65b14ecc7a,64cf4b31fc6df899ebb115b3,,,,,,,sngl,resources/Empty.png,resources/DG.BMP,WildCard_NonEx,0.325833333,-0.0275,1,0,0,0.8785,optionRight,45,8045,4,15,0,15,0,1,,,,,,,,,,,,,,,,,,,,,,,,,,,,,,,,,,,,,,,
,,,,,,,,2023-08-06_08h29.03.328,HF_wild_card,2022.2.4,Win32,59.7193192,5ec1250ae718fe3ed494c474,64ce5acb97489d65b14ecc7a,64cf4b31fc6df899ebb115b3,,,,,,,ctch,resources/DY.BMP,resources/DP.BMP,Door4,0.4075,-0.060833333,1,0,0,1.1996,optionRight,80,8125,4,16,0,16,0,1,,,,,,,,,,,,,,,,,,,,,,,,,,,,,,,,,,,,,,,
,,,,,,,,2023-08-06_08h29.03.328,HF_wild_card,2022.2.4,Win32,59.7193192,5ec1250ae718fe3ed494c474,64ce5acb97489d65b14ecc7a,64cf4b31fc6df899ebb115b3,,,,,,,decisionTrl,resources/DG.BMP,resources/DY.BMP,WildCard_NonEx,-0.3875,-0.039166667,1,0,0,1.431,optionLeft,45,8170,4,17,0,17,0,1,,,,,,,,,,,,,,,,,,,,,,,,,,,,,,,,,,,,,,,
,,,,,,,,2023-08-06_08h29.03.328,HF_wild_card,2022.2.4,Win32,59.7193192,5ec1250ae718fe3ed494c474,64ce5acb97489d65b14ecc7a,64cf4b31fc6df899ebb115b3,,,,,,,decisionTrl,resources/DP.BMP,resources/DR.BMP,Door4,-0.4275,-0.06,1,0,0,0.9652,optionLeft,60,8230,4,18,0,18,0,1,,,,,,,,,,,,,,,,,,,,,,,,,,,,,,,,,,,,,,,
,,,,,,,,2023-08-06_08h29.03.328,HF_wild_card,2022.2.4,Win32,59.7193192,5ec1250ae718fe3ed494c474,64ce5acb97489d65b14ecc7a,64cf4b31fc6df899ebb115b3,,,,,,,ctch,resources/DP.BMP,resources/DY.BMP,Door4,-0.384166667,-0.053333333,1,0,0,0.8451,optionLeft,60,8290,4,19,0,19,0,1,,,,,,,,,,,,,,,,,,,,,,,,,,,,,,,,,,,,,,,
,,,,,,,,2023-08-06_08h29.03.328,HF_wild_card,2022.2.4,Win32,59.7193192,5ec1250ae718fe3ed494c474,64ce5acb97489d65b14ecc7a,64cf4b31fc6df899ebb115b3,,,,,,,sngl,resources/DP.BMP,resources/Empty.png,Door4,-0.3975,-0.020833333,1,0,0,0.7523,optionLeft,60,8350,4,20,0,20,0,1,,,,,,,,,,,,,,,,,,,,,,,,,,,,,,,,,,,,,,,
,,,,,,,,2023-08-06_08h29.03.328,HF_wild_card,2022.2.4,Win32,59.7193192,5ec1250ae718fe3ed494c474,64ce5acb97489d65b14ecc7a,64cf4b31fc6df899ebb115b3,,,,,,,sngl,resources/DY.BMP,resources/Empty.png,Door1,-0.330833333,-0.056666667,1,0,0,0.8988,optionLeft,30,8380,4,21,0,21,0,1,,,,,,,,,,,,,,,,,,,,,,,,,,,,,,,,,,,,,,,
,,,,,,,,2023-08-06_08h29.03.328,HF_wild_card,2022.2.4,Win32,59.7193192,5ec1250ae718fe3ed494c474,64ce5acb97489d65b14ecc7a,64cf4b31fc6df899ebb115b3,,,,,,,decisionTrl,resources/DR.BMP,resources/DP.BMP,Door4,0.398333333,-0.025,1,0,0,1.085,optionRight,80,8460,4,22,0,22,0,1,,,,,,,,,,,,,,,,,,,,,,,,,,,,,,,,,,,,,,,
,,,,,,,,2023-08-06_08h29.03.328,HF_wild_card,2022.2.4,Win32,59.7193192,5ec1250ae718fe3ed494c474,64ce5acb97489d65b14ecc7a,64cf4b31fc6df899ebb115b3,,,,,,,decisionTrl,resources/DP.BMP,resources/DR.BMP,Door3,0.456666667,-0.05,1,0,0,1.4119,optionRight,70,8530,4,23,0,23,0,1,,,,,,,,,,,,,,,,,,,,,,,,,,,,,,,,,,,,,,,
,,,,,,,,2023-08-06_08h29.03.328,HF_wild_card,2022.2.4,Win32,59.7193192,5ec1250ae718fe3ed494c474,64ce5acb97489d65b14ecc7a,64cf4b31fc6df899ebb115b3,,,,,,,sngl,resources/Empty.png,resources/DY.BMP,Door1,0.463333333,-0.05,1,0,0,0.9121,optionRight,30,8560,4,24,0,24,0,1,,,,,,,,,,,,,,,,,,,,,,,,,,,,,,,,,,,,,,,
,,,,,,,,2023-08-06_08h29.03.328,HF_wild_card,2022.2.4,Win32,59.7193192,5ec1250ae718fe3ed494c474,64ce5acb97489d65b14ecc7a,64cf4b31fc6df899ebb115b3,,,,,,,sngl,resources/Empty.png,resources/DG.BMP,WildCard_NonEx,0.4175,-0.031666667,1,0,0,0.8484,optionRight,55,8615,4,25,0,25,0,1,,,,,,,,,,,,,,,,,,,,,,,,,,,,,,,,,,,,,,,
,,,,,,,,2023-08-06_08h29.03.328,HF_wild_card,2022.2.4,Win32,59.7193192,5ec1250ae718fe3ed494c474,64ce5acb97489d65b14ecc7a,64cf4b31fc6df899ebb115b3,,,,,,,ctch,resources/DP.BMP,resources/DY.BMP,Door4,-0.395,-0.0575,1,0,0,1.1989,optionLeft,60,8675,4,26,0,26,0,1,,,,,,,,,,,,,,,,,,,,,,,,,,,,,,,,,,,,,,,
,,,,,,,,2023-08-06_08h29.03.328,HF_wild_card,2022.2.4,Win32,59.7193192,5ec1250ae718fe3ed494c474,64ce5acb97489d65b14ecc7a,64cf4b31fc6df899ebb115b3,,,,,,,decisionTrl,resources/DG.BMP,resources/DR.BMP,Door3,0.390833333,-0.071666667,1,0,0,1.0518,optionRight,70,8745,4,27,0,27,0,1,,,,,,,,,,,,,,,,,,,,,,,,,,,,,,,,,,,,,,,
,,,,,,,,2023-08-06_08h29.03.328,HF_wild_card,2022.2.4,Win32,59.7193192,5ec1250ae718fe3ed494c474,64ce5acb97489d65b14ecc7a,64cf4b31fc6df899ebb115b3,,,,,,,decisionTrl,resources/DY.BMP,resources/DB.BMP,Door1,-0.339166667,-0.050833333,1,0,0,1.1662,optionLeft,30,8775,4,28,0,28,0,1,,,,,,,,,,,,,,,,,,,,,,,,,,,,,,,,,,,,,,,
,,,,,,,,2023-08-06_08h29.03.328,HF_wild_card,2022.2.4,Win32,59.7193192,5ec1250ae718fe3ed494c474,64ce5acb97489d65b14ecc7a,64cf4b31fc6df899ebb115b3,,,,,,,decisionTrl,resources/DY.BMP,resources/DB.BMP,Door1,-0.318333333,-0.058333333,1,0,0,1.6115,optionLeft,30,8805,4,29,0,29,0,1,,,,,,,,,,,,,,,,,,,,,,,,,,,,,,,,,,,,,,,
,,,,,,,,2023-08-06_08h29.03.328,HF_wild_card,2022.2.4,Win32,59.7193192,5ec1250ae718fe3ed494c474,64ce5acb97489d65b14ecc7a,64cf4b31fc6df899ebb115b3,,,,,,,ctch,resources/DR.BMP,resources/DB.BMP,Door3,-0.406666667,-0.05,1,0,0,1.1291,optionLeft,70,8875,4,30,0,30,0,1,,,,,,,,,,,,,,,,,,,,,,,,,,,,,,,,,,,,,,,
,,,,,,,,2023-08-06_08h29.03.328,HF_wild_card,2022.2.4,Win32,59.7193192,5ec1250ae718fe3ed494c474,64ce5acb97489d65b14ecc7a,64cf4b31fc6df899ebb115b3,,,,,,,ctch,resources/DR.BMP,resources/DB.BMP,Door3,-0.376666667,-0.055,1,0,0,0.8326,optionLeft,70,8945,4,31,0,31,0,1,,,,,,,,,,,,,,,,,,,,,,,,,,,,,,,,,,,,,,,
,,,,,,,,2023-08-06_08h29.03.328,HF_wild_card,2022.2.4,Win32,59.7193192,5ec1250ae718fe3ed494c474,64ce5acb97489d65b14ecc7a,64cf4b31fc6df899ebb115b3,,,,,,,decisionTrl,resources/DG.BMP,resources/DB.BMP,WildCard_NonEx,-0.365833333,-0.038333333,1,0,0,1.3661,optionLeft,55,9000,4,32,0,32,0,1,,,,,,,,,,,,,,,,,,,,,,,,,,,,,,,,,,,,,,,
,,,,,,,,2023-08-06_08h29.03.328,HF_wild_card,2022.2.4,Win32,59.7193192,5ec1250ae718fe3ed494c474,64ce5acb97489d65b14ecc7a,64cf4b31fc6df899ebb115b3,,,,,,,decisionTrl,resources/DP.BMP,resources/DG.BMP,Door4,-0.365833333,-0.050833333,1,0,0,1.1032,optionLeft,60,9060,4,33,0,33,0,1,,,,,,,,,,,,,,,,,,,,,,,,,,,,,,,,,,,,,,,
,,,,,,,,2023-08-06_08h29.03.328,HF_wild_card,2022.2.4,Win32,59.7193192,5ec1250ae718fe3ed494c474,64ce5acb97489d65b14ecc7a,64cf4b31fc6df899ebb115b3,,,,,,,decisionTrl,resources/DB.BMP,resources/DY.BMP,Door1,0.375,-0.034166667,1,0,0,1.1989,optionRight,30,9090,4,34,0,34,0,1,,,,,,,,,,,,,,,,,,,,,,,,,,,,,,,,,,,,,,,
,,,,,,,,2023-08-06_08h29.03.328,HF_wild_card,2022.2.4,Win32,59.7193192,5ec1250ae718fe3ed494c474,64ce5acb97489d65b14ecc7a,64cf4b31fc6df899ebb115b3,,,,,,,decisionTrl,resources/DY.BMP,resources/DB.BMP,Door2,0.345833333,-0.055,1,0,0,0.8314,optionRight,20,9110,4,35,0,35,0,1,,,,,,,,,,,,,,,,,,,,,,,,,,,,,,,,,,,,,,,
,,,,,,,,2023-08-06_08h29.03.328,HF_wild_card,2022.2.4,Win32,59.7193192,5ec1250ae718fe3ed494c474,64ce5acb97489d65b14ecc7a,64cf4b31fc6df899ebb115b3,,,,,,,sngl,resources/DB.BMP,resources/Empty.png,Door2,-0.3275,-0.0425,1,0,0,0.829,optionLeft,20,9130,4,36,0,36,0,1,,,,,,,,,,,,,,,,,,,,,,,,,,,,,,,,,,,,,,,
,,,,,,,,2023-08-06_08h29.03.328,HF_wild_card,2022.2.4,Win32,59.7193192,5ec1250ae718fe3ed494c474,64ce5acb97489d65b14ecc7a,64cf4b31fc6df899ebb115b3,,,,,,,ctch,resources/DB.BMP,resources/DR.BMP,Door3,0.355833333,-0.038333333,1,0,0,0.9606,optionRight,70,9200,4,37,0,37,0,1,,,,,,,,,,,,,,,,,,,,,,,,,,,,,,,,,,,,,,,
,,,,,,,,2023-08-06_08h29.03.328,HF_wild_card,2022.2.4,Win32,59.7193192,5ec1250ae718fe3ed494c474,64ce5acb97489d65b14ecc7a,64cf4b31fc6df899ebb115b3,,,,,,,sngl,resources/DG.BMP,resources/Empty.png,WildCard_NonEx,-0.375,-0.033333333,1,0,0,0.8953,optionLeft,55,9255,4,38,0,38,0,1,,,,,,,,,,,,,,,,,,,,,,,,,,,,,,,,,,,,,,,
,,,,,,,,2023-08-06_08h29.03.328,HF_wild_card,2022.2.4,Win32,59.7193192,5ec1250ae718fe3ed494c474,64ce5acb97489d65b14ecc7a,64cf4b31fc6df899ebb115b3,,,,,,,decisionTrl,resources/DY.BMP,resources/DG.BMP,WildCard_NonEx,0.4,-0.073333333,1,0,0,1.5612,optionRight,45,9300,4,39,0,39,0,1,,,,,,,,,,,,,,,,,,,,,,,,,,,,,,,,,,,,,,,
,,,,,,,,2023-08-06_08h29.03.328,HF_wild_card,2022.2.4,Win32,59.7193192,5ec1250ae718fe3ed494c474,64ce5acb97489d65b14ecc7a,64cf4b31fc6df899ebb115b3,,,,,,,decisionTrl,resources/DP.BMP,resources/DR.BMP,Door3,0.3775,-0.0525,1,0,0,1.6278,optionRight,70,9370,4,40,0,40,0,1,,,,,,,,,,,,,,,,,,,,,,,,,,,,,,,,,,,,,,,
,,,,,,,,2023-08-06_08h29.03.328,HF_wild_card,2022.2.4,Win32,59.7193192,5ec1250ae718fe3ed494c474,64ce5acb97489d65b14ecc7a,64cf4b31fc6df899ebb115b3,,,,,,,ctch,resources/DY.BMP,resources/DP.BMP,Door4,0.3925,-0.07,1,0,0,0.8144,optionRight,60,9430,4,41,0,41,0,1,,,,,,,,,,,,,,,,,,,,,,,,,,,,,,,,,,,,,,,
,,,,,,,,2023-08-06_08h29.03.328,HF_wild_card,2022.2.4,Win32,59.7193192,5ec1250ae718fe3ed494c474,64ce5acb97489d65b14ecc7a,64cf4b31fc6df899ebb115b3,,,,,,,decisionTrl,resources/DB.BMP,resources/DY.BMP,Door1,0.415,-0.0475,1,0,0,1.3781,optionRight,30,9460,4,42,0,42,0,1,,,,,,,,,,,,,,,,,,,,,,,,,,,,,,,,,,,,,,,
,,,,,,,,2023-08-06_08h29.03.328,HF_wild_card,2022.2.4,Win32,59.7193192,5ec1250ae718fe3ed494c474,64ce5acb97489d65b14ecc7a,64cf4b31fc6df899ebb115b3,,,,,,,decisionTrl,resources/DR.BMP,resources/DP.BMP,Door4,0.391666667,-0.07,1,0,0,1.1285,optionRight,60,9520,4,43,0,43,0,1,,,,,,,,,,,,,,,,,,,,,,,,,,,,,,,,,,,,,,,
,,,,,,,,2023-08-06_08h29.03.328,HF_wild_card,2022.2.4,Win32,59.7193192,5ec1250ae718fe3ed494c474,64ce5acb97489d65b14ecc7a,64cf4b31fc6df899ebb115b3,,,,,,,,,,,,,,,,,,,,,,,,,,3,0,3,0,1,,,,,,,,,,,,,,,,,,,,,,,,,,,,,,,,,,
,,,,,,,,2023-08-06_08h29.03.328,HF_wild_card,2022.2.4,Win32,59.7193192,5ec1250ae718fe3ed494c474,64ce5acb97489d65b14ecc7a,64cf4b31fc6df899ebb115b3,,,,,,,ctch,resources/DB.BMP,resources/DR.BMP,Door3,0.396666667,0.005,1,0,0,1.2263,optionRight,70,9590,5,0,0,0,0,1,,,,,,,,,,,,,,,,,,,,,,,,,,,,,,,,,,,,,,,
,,,,,,,,2023-08-06_08h29.03.328,HF_wild_card,2022.2.4,Win32,59.7193192,5ec1250ae718fe3ed494c474,64ce5acb97489d65b14ecc7a,64cf4b31fc6df899ebb115b3,,,,,,,ctch,resources/DP.BMP,resources/DY.BMP,Door4,-0.413333333,-0.029166667,1,0,0,0.884,optionLeft,60,9650,5,1,0,1,0,1,,,,,,,,,,,,,,,,,,,,,,,,,,,,,,,,,,,,,,,
,,,,,,,,2023-08-06_08h29.03.328,HF_wild_card,2022.2.4,Win32,59.7193192,5ec1250ae718fe3ed494c474,64ce5acb97489d65b14ecc7a,64cf4b31fc6df899ebb115b3,,,,,,,decisionTrl,resources/DP.BMP,resources/DR.BMP,Door4,-0.3875,-0.05,1,0,0,1.5131,optionLeft,80,9730,5,2,0,2,0,1,,,,,,,,,,,,,,,,,,,,,,,,,,,,,,,,,,,,,,,
,,,,,,,,2023-08-06_08h29.03.328,HF_wild_card,2022.2.4,Win32,59.7193192,5ec1250ae718fe3ed494c474,64ce5acb97489d65b14ecc7a,64cf4b31fc6df899ebb115b3,,,,,,,decisionTrl,resources/DB.BMP,resources/DG.BMP,WildCard_NonEx,0.360833333,-0.0125,1,0,0,1.0497,optionRight,55,9785,5,3,0,3,0,1,,,,,,,,,,,,,,,,,,,,,,,,,,,,,,,,,,,,,,,
,,,,,,,,2023-08-06_08h29.03.328,HF_wild_card,2022.2.4,Win32,59.7193192,5ec1250ae718fe3ed494c474,64ce5acb97489d65b14ecc7a,64cf4b31fc6df899ebb115b3,,,,,,,sngl,resources/Empty.png,resources/DB.BMP,Door2,0.351666667,-0.045833333,1,0,0,1.2496,optionRight,20,9805,5,4,0,4,0,1,,,,,,,,,,,,,,,,,,,,,,,,,,,,,,,,,,,,,,,
,,,,,,,,2023-08-06_08h29.03.328,HF_wild_card,2022.2.4,Win32,59.7193192,5ec1250ae718fe3ed494c474,64ce5acb97489d65b14ecc7a,64cf4b31fc6df899ebb115b3,,,,,,,ctch,resources/DY.BMP,resources/DP.BMP,Door4,0.3575,-0.058333333,1,0,0,1.2329,optionRight,80,9885,5,5,0,5,0,1,,,,,,,,,,,,,,,,,,,,,,,,,,,,,,,,,,,,,,,
,,,,,,,,2023-08-06_08h29.03.328,HF_wild_card,2022.2.4,Win32,59.7193192,5ec1250ae718fe3ed494c474,64ce5acb97489d65b14ecc7a,64cf4b31fc6df899ebb115b3,,,,,,,decisionTrl,resources/DB.BMP,resources/DY.BMP,Door1,0.414166667,-0.035833333,1,0,0,2.0155,optionRight,30,9915,5,6,0,6,0,1,,,,,,,,,,,,,,,,,,,,,,,,,,,,,,,,,,,,,,,
,,,,,,,,2023-08-06_08h29.03.328,HF_wild_card,2022.2.4,Win32,59.7193192,5ec1250ae718fe3ed494c474,64ce5acb97489d65b14ecc7a,64cf4b31fc6df899ebb115b3,,,,,,,sngl,resources/Empty.png,resources/DP.BMP,Door4,0.393333333,-0.038333333,1,0,0,0.8315,optionRight,60,9975,5,7,0,7,0,1,,,,,,,,,,,,,,,,,,,,,,,,,,,,,,,,,,,,,,,
,,,,,,,,2023-08-06_08h29.03.328,HF_wild_card,2022.2.4,Win32,59.7193192,5ec1250ae718fe3ed494c474,64ce5acb97489d65b14ecc7a,64cf4b31fc6df899ebb115b3,,,,,,,sngl,resources/Empty.png,resources/DY.BMP,Door1,0.3825,-0.030833333,1,0,0,1.2137,optionRight,30,10005,5,8,0,8,0,1,,,,,,,,,,,,,,,,,,,,,,,,,,,,,,,,,,,,,,,
,,,,,,,,2023-08-06_08h29.03.328,HF_wild_card,2022.2.4,Win32,59.7193192,5ec1250ae718fe3ed494c474,64ce5acb97489d65b14ecc7a,64cf4b31fc6df899ebb115b3,,,,,,,sngl,resources/Empty.png,resources/DG.BMP,WildCard_NonEx,0.44,-0.008333333,1,0,0,0.7327,optionRight,55,10060,5,9,0,9,0,1,,,,,,,,,,,,,,,,,,,,,,,,,,,,,,,,,,,,,,,
,,,,,,,,2023-08-06_08h29.03.328,HF_wild_card,2022.2.4,Win32,59.7193192,5ec1250ae718fe3ed494c474,64ce5acb97489d65b14ecc7a,64cf4b31fc6df899ebb115b3,,,,,,,decisionTrl,resources/DG.BMP,resources/DR.BMP,Door3,0.345,-0.065833333,1,0,0,1.1133,optionRight,70,10130,5,10,0,10,0,1,,,,,,,,,,,,,,,,,,,,,,,,,,,,,,,,,,,,,,,
,,,,,,,,2023-08-06_08h29.03.328,HF_wild_card,2022.2.4,Win32,59.7193192,5ec1250ae718fe3ed494c474,64ce5acb97489d65b14ecc7a,64cf4b31fc6df899ebb115b3,,,,,,,decisionTrl,resources/DP.BMP,resources/DR.BMP,Door4,-0.398333333,-0.075833333,1,0,0,2.4041,optionLeft,80,10210,5,11,0,11,0,1,,,,,,,,,,,,,,,,,,,,,,,,,,,,,,,,,,,,,,,
,,,,,,,,2023-08-06_08h29.03.328,HF_wild_card,2022.2.4,Win32,59.7193192,5ec1250ae718fe3ed494c474,64ce5acb97489d65b14ecc7a,64cf4b31fc6df899ebb115b3,,,,,,,decisionTrl,resources/DB.BMP,resources/DY.BMP,Door1,0.43,-0.036666667,1,0,0,1.1784,optionRight,30,10240,5,12,0,12,0,1,,,,,,,,,,,,,,,,,,,,,,,,,,,,,,,,,,,,,,,
,,,,,,,,2023-08-06_08h29.03.328,HF_wild_card,2022.2.4,Win32,59.7193192,5ec1250ae718fe3ed494c474,64ce5acb97489d65b14ecc7a,64cf4b31fc6df899ebb115b3,,,,,,,decisionTrl,resources/DY.BMP,resources/DB.BMP,Door1,-0.385833333,-0.028333333,1,0,0,1.3505,optionLeft,30,10270,5,13,0,13,0,1,,,,,,,,,,,,,,,,,,,,,,,,,,,,,,,,,,,,,,,
,,,,,,,,2023-08-06_08h29.03.328,HF_wild_card,2022.2.4,Win32,59.7193192,5ec1250ae718fe3ed494c474,64ce5acb97489d65b14ecc7a,64cf4b31fc6df899ebb115b3,,,,,,,decisionTrl,resources/DR.BMP,resources/DP.BMP,Door4,0.398333333,-0.053333333,1,0,0,1.1697,optionRight,60,10330,5,14,0,14,0,1,,,,,,,,,,,,,,,,,,,,,,,,,,,,,,,,,,,,,,,
,,,,,,,,2023-08-06_08h29.03.328,HF_wild_card,2022.2.4,Win32,59.7193192,5ec1250ae718fe3ed494c474,64ce5acb97489d65b14ecc7a,64cf4b31fc6df899ebb115b3,,,,,,,sngl,resources/DP.BMP,resources/Empty.png,Door4,-0.366666667,-0.0375,1,0,0,0.8295,optionLeft,80,10410,5,15,0,15,0,1,,,,,,,,,,,,,,,,,,,,,,,,,,,,,,,,,,,,,,,
,,,,,,,,2023-08-06_08h29.03.328,HF_wild_card,2022.2.4,Win32,59.7193192,5ec1250ae718fe3ed494c474,64ce5acb97489d65b14ecc7a,64cf4b31fc6df899ebb115b3,,,,,,,ctch,resources/DP.BMP,resources/DY.BMP,Door4,-0.379166667,-0.068333333,1,0,0,1.1992,optionLeft,80,10490,5,16,0,16,0,1,,,,,,,,,,,,,,,,,,,,,,,,,,,,,,,,,,,,,,,
,,,,,,,,2023-08-06_08h29.03.328,HF_wild_card,2022.2.4,Win32,59.7193192,5ec1250ae718fe3ed494c474,64ce5acb97489d65b14ecc7a,64cf4b31fc6df899ebb115b3,,,,,,,decisionTrl,resources/DG.BMP,resources/DP.BMP,Door4,0.424166667,-0.055833333,1,0,0,1.1496,optionRight,60,10550,5,17,0,17,0,1,,,,,,,,,,,,,,,,,,,,,,,,,,,,,,,,,,,,,,,
,,,,,,,,2023-08-06_08h29.03.328,HF_wild_card,2022.2.4,Win32,59.7193192,5ec1250ae718fe3ed494c474,64ce5acb97489d65b14ecc7a,64cf4b31fc6df899ebb115b3,,,,,,,ctch,resources/DY.BMP,resources/DP.BMP,Door4,0.401666667,-0.0375,1,0,0,0.8515,optionRight,60,10610,5,18,0,18,0,1,,,,,,,,,,,,,,,,,,,,,,,,,,,,,,,,,,,,,,,
,,,,,,,,2023-08-06_08h29.03.328,HF_wild_card,2022.2.4,Win32,59.7193192,5ec1250ae718fe3ed494c474,64ce5acb97489d65b14ecc7a,64cf4b31fc6df899ebb115b3,,,,,,,decisionTrl,resources/DP.BMP,resources/DG.BMP,Door4,-0.345,-0.039166667,1,0,0,1.2307,optionLeft,60,10670,5,19,0,19,0,1,,,,,,,,,,,,,,,,,,,,,,,,,,,,,,,,,,,,,,,
,,,,,,,,2023-08-06_08h29.03.328,HF_wild_card,2022.2.4,Win32,59.7193192,5ec1250ae718fe3ed494c474,64ce5acb97489d65b14ecc7a,64cf4b31fc6df899ebb115b3,,,,,,,sngl,resources/Empty.png,resources/DR.BMP,Door3,0.4375,-0.051666667,1,0,0,0.7035,optionRight,70,10740,5,20,0,20,0,1,,,,,,,,,,,,,,,,,,,,,,,,,,,,,,,,,,,,,,,
,,,,,,,,2023-08-06_08h29.03.328,HF_wild_card,2022.2.4,Win32,59.7193192,5ec1250ae718fe3ed494c474,64ce5acb97489d65b14ecc7a,64cf4b31fc6df899ebb115b3,,,,,,,decisionTrl,resources/DR.BMP,resources/DP.BMP,Door4,0.355,-0.040833333,1,0,0,0.9201,optionRight,80,10820,5,21,0,21,0,1,,,,,,,,,,,,,,,,,,,,,,,,,,,,,,,,,,,,,,,
,,,,,,,,2023-08-06_08h29.03.328,HF_wild_card,2022.2.4,Win32,59.7193192,5ec1250ae718fe3ed494c474,64ce5acb97489d65b14ecc7a,64cf4b31fc6df899ebb115b3,,,,,,,ctch,resources/DR.BMP,resources/DB.BMP,Door3,-0.394166667,-0.023333333,1,0,0,0.9823,optionLeft,70,10890,5,22,0,22,0,1,,,,,,,,,,,,,,,,,,,,,,,,,,,,,,,,,,,,,,,
,,,,,,,,2023-08-06_08h29.03.328,HF_wild_card,2022.2.4,Win32,59.7193192,5ec1250ae718fe3ed494c474,64ce5acb97489d65b14ecc7a,64cf4b31fc6df899ebb115b3,,,,,,,decisionTrl,resources/DR.BMP,resources/DP.BMP,Door4,0.399166667,-0.065833333,1,0,0,0.81,optionRight,80,10970,5,23,0,23,0,1,,,,,,,,,,,,,,,,,,,,,,,,,,,,,,,,,,,,,,,
,,,,,,,,2023-08-06_08h29.03.328,HF_wild_card,2022.2.4,Win32,59.7193192,5ec1250ae718fe3ed494c474,64ce5acb97489d65b14ecc7a,64cf4b31fc6df899ebb115b3,,,,,,,decisionTrl,resources/DY.BMP,resources/DB.BMP,Door1,-0.340833333,-0.025833333,1,0,0,0.9476,optionLeft,30,11000,5,24,0,24,0,1,,,,,,,,,,,,,,,,,,,,,,,,,,,,,,,,,,,,,,,
,,,,,,,,2023-08-06_08h29.03.328,HF_wild_card,2022.2.4,Win32,59.7193192,5ec1250ae718fe3ed494c474,64ce5acb97489d65b14ecc7a,64cf4b31fc6df899ebb115b3,,,,,,,decisionTrl,resources/DR.BMP,resources/DG.BMP,Door3,-0.405833333,-0.043333333,1,0,0,1.2327,optionLeft,70,11070,5,25,0,25,0,1,,,,,,,,,,,,,,,,,,,,,,,,,,,,,,,,,,,,,,,
,,,,,,,,2023-08-06_08h29.03.328,HF_wild_card,2022.2.4,Win32,59.7193192,5ec1250ae718fe3ed494c474,64ce5acb97489d65b14ecc7a,64cf4b31fc6df899ebb115b3,,,,,,,sngl,resources/DR.BMP,resources/Empty.png,Door3,-0.38,-0.05,1,0,0,0.8655,optionLeft,70,11140,5,26,0,26,0,1,,,,,,,,,,,,,,,,,,,,,,,,,,,,,,,,,,,,,,,
,,,,,,,,2023-08-06_08h29.03.328,HF_wild_card,2022.2.4,Win32,59.7193192,5ec1250ae718fe3ed494c474,64ce5acb97489d65b14ecc7a,64cf4b31fc6df899ebb115b3,,,,,,,sngl,resources/DB.BMP,resources/Empty.png,Door2,-0.374166667,-0.060833333,1,0,0,0.9165,optionLeft,40,11180,5,27,0,27,0,1,,,,,,,,,,,,,,,,,,,,,,,,,,,,,,,,,,,,,,,
,,,,,,,,2023-08-06_08h29.03.328,HF_wild_card,2022.2.4,Win32,59.7193192,5ec1250ae718fe3ed494c474,64ce5acb97489d65b14ecc7a,64cf4b31fc6df899ebb115b3,,,,,,,decisionTrl,resources/DY.BMP,resources/DB.BMP,Door1,-0.390833333,-0.049166667,1,0,0,1.1322,optionLeft,30,11210,5,28,0,28,0,1,,,,,,,,,,,,,,,,,,,,,,,,,,,,,,,,,,,,,,,
,,,,,,,,2023-08-06_08h29.03.328,HF_wild_card,2022.2.4,Win32,59.7193192,5ec1250ae718fe3ed494c474,64ce5acb97489d65b14ecc7a,64cf4b31fc6df899ebb115b3,,,,,,,sngl,resources/DY.BMP,resources/Empty.png,Door1,-0.396666667,-0.045,1,0,0,0.7872,optionLeft,30,11240,5,29,0,29,0,1,,,,,,,,,,,,,,,,,,,,,,,,,,,,,,,,,,,,,,,
,,,,,,,,2023-08-06_08h29.03.328,HF_wild_card,2022.2.4,Win32,59.7193192,5ec1250ae718fe3ed494c474,64ce5acb97489d65b14ecc7a,64cf4b31fc6df899ebb115b3,,,,,,,decisionTrl,resources/DY.BMP,resources/DG.BMP,WildCard_NonEx,0.348333333,-0.025,1,0,0,1.0143,optionRight,45,11285,5,30,0,30,0,1,,,,,,,,,,,,,,,,,,,,,,,,,,,,,,,,,,,,,,,
,,,,,,,,2023-08-06_08h29.03.328,HF_wild_card,2022.2.4,Win32,59.7193192,5ec1250ae718fe3ed494c474,64ce5acb97489d65b14ecc7a,64cf4b31fc6df899ebb115b3,,,,,,,decisionTrl,resources/DR.BMP,resources/DP.BMP,Door3,-0.409166667,-0.0475,1,0,0,1.5648,optionLeft,70,11355,5,31,0,31,0,1,,,,,,,,,,,,,,,,,,,,,,,,,,,,,,,,,,,,,,,
,,,,,,,,2023-08-06_08h29.03.328,HF_wild_card,2022.2.4,Win32,59.7193192,5ec1250ae718fe3ed494c474,64ce5acb97489d65b14ecc7a,64cf4b31fc6df899ebb115b3,,,,,,,decisionTrl,resources/DP.BMP,resources/DR.BMP,Door4,-0.4025,-0.0625,1,0,0,0.9457,optionLeft,80,11435,5,32,0,32,0,1,,,,,,,,,,,,,,,,,,,,,,,,,,,,,,,,,,,,,,,
,,,,,,,,2023-08-06_08h29.03.328,HF_wild_card,2022.2.4,Win32,59.7193192,5ec1250ae718fe3ed494c474,64ce5acb97489d65b14ecc7a,64cf4b31fc6df899ebb115b3,,,,,,,sngl,resources/DG.BMP,resources/Empty.png,WildCard_NonEx,-0.5,-0.034166667,1,0,0,0.6762,optionLeft,45,11480,5,33,0,33,0,1,,,,,,,,,,,,,,,,,,,,,,,,,,,,,,,,,,,,,,,
,,,,,,,,2023-08-06_08h29.03.328,HF_wild_card,2022.2.4,Win32,59.7193192,5ec1250ae718fe3ed494c474,64ce5acb97489d65b14ecc7a,64cf4b31fc6df899ebb115b3,,,,,,,ctch,resources/DB.BMP,resources/DR.BMP,Door3,0.345833333,-0.0675,1,0,0,0.9647,optionRight,70,11550,5,34,0,34,0,1,,,,,,,,,,,,,,,,,,,,,,,,,,,,,,,,,,,,,,,
,,,,,,,,2023-08-06_08h29.03.328,HF_wild_card,2022.2.4,Win32,59.7193192,5ec1250ae718fe3ed494c474,64ce5acb97489d65b14ecc7a,64cf4b31fc6df899ebb115b3,,,,,,,ctch,resources/DR.BMP,resources/DB.BMP,Door3,-0.3375,-0.0525,1,0,0,1.1547,optionLeft,70,11620,5,35,0,35,0,1,,,,,,,,,,,,,,,,,,,,,,,,,,,,,,,,,,,,,,,
,,,,,,,,2023-08-06_08h29.03.328,HF_wild_card,2022.2.4,Win32,59.7193192,5ec1250ae718fe3ed494c474,64ce5acb97489d65b14ecc7a,64cf4b31fc6df899ebb115b3,,,,,,,decisionTrl,resources/DP.BMP,resources/DR.BMP,Door4,-0.3525,-0.079166667,1,0,0,1.9665,optionLeft,60,11680,5,36,0,36,0,1,,,,,,,,,,,,,,,,,,,,,,,,,,,,,,,,,,,,,,,
,,,,,,,,2023-08-06_08h29.03.328,HF_wild_card,2022.2.4,Win32,59.7193192,5ec1250ae718fe3ed494c474,64ce5acb97489d65b14ecc7a,64cf4b31fc6df899ebb115b3,,,,,,,decisionTrl,resources/DB.BMP,resources/DY.BMP,Door1,0.2725,-0.0175,1,0,0,0.9844,optionRight,30,11710,5,37,0,37,0,1,,,,,,,,,,,,,,,,,,,,,,,,,,,,,,,,,,,,,,,
,,,,,,,,2023-08-06_08h29.03.328,HF_wild_card,2022.2.4,Win32,59.7193192,5ec1250ae718fe3ed494c474,64ce5acb97489d65b14ecc7a,64cf4b31fc6df899ebb115b3,,,,,,,decisionTrl,resources/DG.BMP,resources/DY.BMP,WildCard_NonEx,-0.364166667,-0.045833333,1,0,0,1.0311,optionLeft,55,11765,5,38,0,38,0,1,,,,,,,,,,,,,,,,,,,,,,,,,,,,,,,,,,,,,,,
,,,,,,,,2023-08-06_08h29.03.328,HF_wild_card,2022.2.4,Win32,59.7193192,5ec1250ae718fe3ed494c474,64ce5acb97489d65b14ecc7a,64cf4b31fc6df899ebb115b3,,,,,,,decisionTrl,resources/DG.BMP,resources/DB.BMP,WildCard_NonEx,-0.415,-0.036666667,1,0,0,0.9851,optionLeft,55,11820,5,39,0,39,0,1,,,,,,,,,,,,,,,,,,,,,,,,,,,,,,,,,,,,,,,
,,,,,,,,2023-08-06_08h29.03.328,HF_wild_card,2022.2.4,Win32,59.7193192,5ec1250ae718fe3ed494c474,64ce5acb97489d65b14ecc7a,64cf4b31fc6df899ebb115b3,,,,,,,decisionTrl,resources/DY.BMP,resources/DB.BMP,Door1,-0.3375,-0.0325,1,0,0,1.0267,optionLeft,30,11850,5,40,0,40,0,1,,,,,,,,,,,,,,,,,,,,,,,,,,,,,,,,,,,,,,,
,,,,,,,,2023-08-06_08h29.03.328,HF_wild_card,2022.2.4,Win32,59.7193192,5ec1250ae718fe3ed494c474,64ce5acb97489d65b14ecc7a,64cf4b31fc6df899ebb115b3,,,,,,,decisionTrl,resources/DB.BMP,resources/DY.BMP,Door1,0.32,-0.036666667,1,0,0,1.0927,optionRight,30,11880,5,41,0,41,0,1,,,,,,,,,,,,,,,,,,,,,,,,,,,,,,,,,,,,,,,
,,,,,,,,2023-08-06_08h29.03.328,HF_wild_card,2022.2.4,Win32,59.7193192,5ec1250ae718fe3ed494c474,64ce5acb97489d65b14ecc7a,64cf4b31fc6df899ebb115b3,,,,,,,sngl,resources/Empty.png,resources/DG.BMP,WildCard_NonEx,0.408333333,-0.039166667,1,0,0,0.7347,optionRight,45,11925,5,42,0,42,0,1,,,,,,,,,,,,,,,,,,,,,,,,,,,,,,,,,,,,,,,
,,,,,,,,2023-08-06_08h29.03.328,HF_wild_card,2022.2.4,Win32,59.7193192,5ec1250ae718fe3ed494c474,64ce5acb97489d65b14ecc7a,64cf4b31fc6df899ebb115b3,,,,,,,sngl,resources/DG.BMP,resources/Empty.png,WildCard_NonEx,-0.288333333,-0.05,1,0,0,0.9482,optionLeft,55,11980,5,43,0,43,0,1,,,,,,,,,,,,,,,,,,,,,,,,,,,,,,,,,,,,,,,
,,,,,,,,2023-08-06_08h29.03.328,HF_wild_card,2022.2.4,Win32,59.7193192,5ec1250ae718fe3ed494c474,64ce5acb97489d65b14ecc7a,64cf4b31fc6df899ebb115b3,,,,,,,,,,,,,,,,,,,,,,,,,,4,0,4,0,1,,,,,,,,,,,,,,,,,,,,,,,,,,,,,,,,,,
,,,,,,,,2023-08-06_08h29.03.328,HF_wild_card,2022.2.4,Win32,59.7193192,5ec1250ae718fe3ed494c474,64ce5acb97489d65b14ecc7a,64cf4b31fc6df899ebb115b3,,,,,,,ctch,resources/DB.BMP,resources/DR.BMP,Door3,0.3525,-0.035833333,1,0,0,1.0467,optionRight,70,12050,6,0,0,0,0,1,,,,,,,,,,,,,,,,,,,,,,,,,,,,,,,,,,,,,,,
,,,,,,,,2023-08-06_08h29.03.328,HF_wild_card,2022.2.4,Win32,59.7193192,5ec1250ae718fe3ed494c474,64ce5acb97489d65b14ecc7a,64cf4b31fc6df899ebb115b3,,,,,,,ctch,resources/DR.BMP,resources/DB.BMP,Door3,-0.3975,-0.053333333,1,0,0,1.0149,optionLeft,70,12120,6,1,0,1,0,1,,,,,,,,,,,,,,,,,,,,,,,,,,,,,,,,,,,,,,,
,,,,,,,,2023-08-06_08h29.03.328,HF_wild_card,2022.2.4,Win32,59.7193192,5ec1250ae718fe3ed494c474,64ce5acb97489d65b14ecc7a,64cf4b31fc6df899ebb115b3,,,,,,,decisionTrl,resources/DR.BMP,resources/DG.BMP,Door3,-0.410833333,-0.0425,1,0,0,1.1767,optionLeft,70,12190,6,2,0,2,0,1,,,,,,,,,,,,,,,,,,,,,,,,,,,,,,,,,,,,,,,
,,,,,,,,2023-08-06_08h29.03.328,HF_wild_card,2022.2.4,Win32,59.7193192,5ec1250ae718fe3ed494c474,64ce5acb97489d65b14ecc7a,64cf4b31fc6df899ebb115b3,,,,,,,sngl,resources/DG.BMP,resources/Empty.png,WildCard_NonEx,-0.385833333,-0.0675,1,0,0,0.7154,optionLeft,45,12235,6,3,0,3,0,1,,,,,,,,,,,,,,,,,,,,,,,,,,,,,,,,,,,,,,,
,,,,,,,,2023-08-06_08h29.03.328,HF_wild_card,2022.2.4,Win32,59.7193192,5ec1250ae718fe3ed494c474,64ce5acb97489d65b14ecc7a,64cf4b31fc6df899ebb115b3,,,,,,,ctch,resources/DY.BMP,resources/DP.BMP,Door4,0.378333333,-0.044166667,1,0,0,1.0107,optionRight,60,12295,6,4,0,4,0,1,,,,,,,,,,,,,,,,,,,,,,,,,,,,,,,,,,,,,,,
,,,,,,,,2023-08-06_08h29.03.328,HF_wild_card,2022.2.4,Win32,59.7193192,5ec1250ae718fe3ed494c474,64ce5acb97489d65b14ecc7a,64cf4b31fc6df899ebb115b3,,,,,,,decisionTrl,resources/DP.BMP,resources/DR.BMP,Door4,-0.345833333,-0.055833333,1,0,0,0.8457,optionLeft,80,12375,6,5,0,5,0,1,,,,,,,,,,,,,,,,,,,,,,,,,,,,,,,,,,,,,,,
,,,,,,,,2023-08-06_08h29.03.328,HF_wild_card,2022.2.4,Win32,59.7193192,5ec1250ae718fe3ed494c474,64ce5acb97489d65b14ecc7a,64cf4b31fc6df899ebb115b3,,,,,,,sngl,resources/Empty.png,resources/DR.BMP,Door3,0.2725,-0.071666667,1,0,0,0.6624,optionRight,70,12445,6,6,0,6,0,1,,,,,,,,,,,,,,,,,,,,,,,,,,,,,,,,,,,,,,,
,,,,,,,,2023-08-06_08h29.03.328,HF_wild_card,2022.2.4,Win32,59.7193192,5ec1250ae718fe3ed494c474,64ce5acb97489d65b14ecc7a,64cf4b31fc6df899ebb115b3,,,,,,,ctch,resources/DY.BMP,resources/DP.BMP,Door4,0.406666667,-0.105,1,0,0,0.7027,optionRight,80,12525,6,7,0,7,0,1,,,,,,,,,,,,,,,,,,,,,,,,,,,,,,,,,,,,,,,
,,,,,,,,2023-08-06_08h29.03.328,HF_wild_card,2022.2.4,Win32,59.7193192,5ec1250ae718fe3ed494c474,64ce5acb97489d65b14ecc7a,64cf4b31fc6df899ebb115b3,,,,,,,decisionTrl,resources/DG.BMP,resources/DR.BMP,Door3,0.3,-0.049166667,1,0,0,0.9146,optionRight,70,12595,6,8,0,8,0,1,,,,,,,,,,,,,,,,,,,,,,,,,,,,,,,,,,,,,,,
,,,,,,,,2023-08-06_08h29.03.328,HF_wild_card,2022.2.4,Win32,59.7193192,5ec1250ae718fe3ed494c474,64ce5acb97489d65b14ecc7a,64cf4b31fc6df899ebb115b3,,,,,,,decisionTrl,resources/DP.BMP,resources/DR.BMP,Door4,-0.384166667,-0.0525,1,0,0,0.8153,optionLeft,80,12675,6,9,0,9,0,1,,,,,,,,,,,,,,,,,,,,,,,,,,,,,,,,,,,,,,,
,,,,,,,,2023-08-06_08h29.03.328,HF_wild_card,2022.2.4,Win32,59.7193192,5ec1250ae718fe3ed494c474,64ce5acb97489d65b14ecc7a,64cf4b31fc6df899ebb115b3,,,,,,,sngl,resources/DY.BMP,resources/Empty.png,Door1,-0.339166667,-0.0225,1,0,0,0.6993,optionLeft,30,12705,6,10,0,10,0,1,,,,,,,,,,,,,,,,,,,,,,,,,,,,,,,,,,,,,,,
,,,,,,,,2023-08-06_08h29.03.328,HF_wild_card,2022.2.4,Win32,59.7193192,5ec1250ae718fe3ed494c474,64ce5acb97489d65b14ecc7a,64cf4b31fc6df899ebb115b3,,,,,,,sngl,resources/DB.BMP,resources/Empty.png,Door2,-0.305833333,-0.035,1,0,0,0.7606,optionLeft,20,12725,6,11,0,11,0,1,,,,,,,,,,,,,,,,,,,,,,,,,,,,,,,,,,,,,,,
,,,,,,,,2023-08-06_08h29.03.328,HF_wild_card,2022.2.4,Win32,59.7193192,5ec1250ae718fe3ed494c474,64ce5acb97489d65b14ecc7a,64cf4b31fc6df899ebb115b3,,,,,,,sngl,resources/DG.BMP,resources/Empty.png,WildCard_NonEx,-0.29,-0.0375,1,0,0,0.7613,optionLeft,55,12780,6,12,0,12,0,1,,,,,,,,,,,,,,,,,,,,,,,,,,,,,,,,,,,,,,,
,,,,,,,,2023-08-06_08h29.03.328,HF_wild_card,2022.2.4,Win32,59.7193192,5ec1250ae718fe3ed494c474,64ce5acb97489d65b14ecc7a,64cf4b31fc6df899ebb115b3,,,,,,,decisionTrl,resources/DY.BMP,resources/DB.BMP,Door1,-0.324166667,-0.064166667,1,0,0,0.9291,optionLeft,30,12810,6,13,0,13,0,1,,,,,,,,,,,,,,,,,,,,,,,,,,,,,,,,,,,,,,,
,,,,,,,,2023-08-06_08h29.03.328,HF_wild_card,2022.2.4,Win32,59.7193192,5ec1250ae718fe3ed494c474,64ce5acb97489d65b14ecc7a,64cf4b31fc6df899ebb115b3,,,,,,,sngl,resources/DP.BMP,resources/Empty.png,Door4,-0.304166667,-0.069166667,1,0,0,0.9662,optionLeft,60,12870,6,14,0,14,0,1,,,,,,,,,,,,,,,,,,,,,,,,,,,,,,,,,,,,,,,
,,,,,,,,2023-08-06_08h29.03.328,HF_wild_card,2022.2.4,Win32,59.7193192,5ec1250ae718fe3ed494c474,64ce5acb97489d65b14ecc7a,64cf4b31fc6df899ebb115b3,,,,,,,decisionTrl,resources/DG.BMP,resources/DY.BMP,WildCard_NonEx,-0.3225,-0.028333333,1,0,0,1.2727,optionLeft,45,12915,6,15,0,15,0,1,,,,,,,,,,,,,,,,,,,,,,,,,,,,,,,,,,,,,,,
,,,,,,,,2023-08-06_08h29.03.328,HF_wild_card,2022.2.4,Win32,59.7193192,5ec1250ae718fe3ed494c474,64ce5acb97489d65b14ecc7a,64cf4b31fc6df899ebb115b3,,,,,,,decisionTrl,resources/DG.BMP,resources/DP.BMP,Door4,0.398333333,-0.039166667,1,0,0,0.847,optionRight,60,12975,6,16,0,16,0,1,,,,,,,,,,,,,,,,,,,,,,,,,,,,,,,,,,,,,,,
,,,,,,,,2023-08-06_08h29.03.328,HF_wild_card,2022.2.4,Win32,59.7193192,5ec1250ae718fe3ed494c474,64ce5acb97489d65b14ecc7a,64cf4b31fc6df899ebb115b3,,,,,,,ctch,resources/DP.BMP,resources/DY.BMP,Door4,-0.350833333,-0.053333333,1,0,0,0.9698,optionLeft,80,13055,6,17,0,17,0,1,,,,,,,,,,,,,,,,,,,,,,,,,,,,,,,,,,,,,,,
,,,,,,,,2023-08-06_08h29.03.328,HF_wild_card,2022.2.4,Win32,59.7193192,5ec1250ae718fe3ed494c474,64ce5acb97489d65b14ecc7a,64cf4b31fc6df899ebb115b3,,,,,,,sngl,resources/Empty.png,resources/DP.BMP,Door4,0.301666667,-0.03,1,0,0,0.848,optionRight,80,13135,6,18,0,18,0,1,,,,,,,,,,,,,,,,,,,,,,,,,,,,,,,,,,,,,,,
,,,,,,,,2023-08-06_08h29.03.328,HF_wild_card,2022.2.4,Win32,59.7193192,5ec1250ae718fe3ed494c474,64ce5acb97489d65b14ecc7a,64cf4b31fc6df899ebb115b3,,,,,,,sngl,resources/Empty.png,resources/DG.BMP,WildCard_NonEx,0.3925,-0.045833333,1,0,0,0.8663,optionRight,55,13190,6,19,0,19,0,1,,,,,,,,,,,,,,,,,,,,,,,,,,,,,,,,,,,,,,,
,,,,,,,,2023-08-06_08h29.03.328,HF_wild_card,2022.2.4,Win32,59.7193192,5ec1250ae718fe3ed494c474,64ce5acb97489d65b14ecc7a,64cf4b31fc6df899ebb115b3,,,,,,,decisionTrl,resources/DY.BMP,resources/DB.BMP,Door1,-0.293333333,-0.050833333,1,0,0,1.3373,optionLeft,30,13220,6,20,0,20,0,1,,,,,,,,,,,,,,,,,,,,,,,,,,,,,,,,,,,,,,,
,,,,,,,,2023-08-06_08h29.03.328,HF_wild_card,2022.2.4,Win32,59.7193192,5ec1250ae718fe3ed494c474,64ce5acb97489d65b14ecc7a,64cf4b31fc6df899ebb115b3,,,,,,,decisionTrl,resources/DB.BMP,resources/DY.BMP,Door1,0.29,-0.043333333,1,0,0,0.8495,optionRight,30,13250,6,21,0,21,0,1,,,,,,,,,,,,,,,,,,,,,,,,,,,,,,,,,,,,,,,
,,,,,,,,2023-08-06_08h29.03.328,HF_wild_card,2022.2.4,Win32,59.7193192,5ec1250ae718fe3ed494c474,64ce5acb97489d65b14ecc7a,64cf4b31fc6df899ebb115b3,,,,,,,ctch,resources/DB.BMP,resources/DR.BMP,Door3,0.385,-0.0425,1,0,0,0.7363,optionRight,70,13320,6,22,0,22,0,1,,,,,,,,,,,,,,,,,,,,,,,,,,,,,,,,,,,,,,,
,,,,,,,,2023-08-06_08h29.03.328,HF_wild_card,2022.2.4,Win32,59.7193192,5ec1250ae718fe3ed494c474,64ce5acb97489d65b14ecc7a,64cf4b31fc6df899ebb115b3,,,,,,,decisionTrl,resources/DY.BMP,resources/DB.BMP,Door1,-0.33,-0.031666667,1,0,0,0.8315,optionLeft,30,13350,6,23,0,23,0,1,,,,,,,,,,,,,,,,,,,,,,,,,,,,,,,,,,,,,,,
,,,,,,,,2023-08-06_08h29.03.328,HF_wild_card,2022.2.4,Win32,59.7193192,5ec1250ae718fe3ed494c474,64ce5acb97489d65b14ecc7a,64cf4b31fc6df899ebb115b3,,,,,,,decisionTrl,resources/DR.BMP,resources/DP.BMP,Door4,0.343333333,-0.034166667,1,0,0,0.9305,optionRight,80,13430,6,24,0,24,0,1,,,,,,,,,,,,,,,,,,,,,,,,,,,,,,,,,,,,,,,
,,,,,,,,2023-08-06_08h29.03.328,HF_wild_card,2022.2.4,Win32,59.7193192,5ec1250ae718fe3ed494c474,64ce5acb97489d65b14ecc7a,64cf4b31fc6df899ebb115b3,,,,,,,ctch,resources/DP.BMP,resources/DY.BMP,Door4,-0.399166667,-0.073333333,1,0,0,0.7282,optionLeft,80,13510,6,25,0,25,0,1,,,,,,,,,,,,,,,,,,,,,,,,,,,,,,,,,,,,,,,
,,,,,,,,2023-08-06_08h29.03.328,HF_wild_card,2022.2.4,Win32,59.7193192,5ec1250ae718fe3ed494c474,64ce5acb97489d65b14ecc7a,64cf4b31fc6df899ebb115b3,,,,,,,decisionTrl,resources/DP.BMP,resources/DR.BMP,Door4,-0.353333333,-0.069166667,1,0,0,0.8129,optionLeft,80,13590,6,26,0,26,0,1,,,,,,,,,,,,,,,,,,,,,,,,,,,,,,,,,,,,,,,
,,,,,,,,2023-08-06_08h29.03.328,HF_wild_card,2022.2.4,Win32,59.7193192,5ec1250ae718fe3ed494c474,64ce5acb97489d65b14ecc7a,64cf4b31fc6df899ebb115b3,,,,,,,sngl,resources/Empty.png,resources/DG.BMP,WildCard_NonEx,0.37,-0.044166667,1,0,0,0.8158,optionRight,45,13635,6,27,0,27,0,1,,,,,,,,,,,,,,,,,,,,,,,,,,,,,,,,,,,,,,,
,,,,,,,,2023-08-06_08h29.03.328,HF_wild_card,2022.2.4,Win32,59.7193192,5ec1250ae718fe3ed494c474,64ce5acb97489d65b14ecc7a,64cf4b31fc6df899ebb115b3,,,,,,,decisionTrl,resources/DY.BMP,resources/DG.BMP,WildCard_NonEx,0.43,-0.049166667,1,0,0,0.8157,optionRight,55,13690,6,28,0,28,0,1,,,,,,,,,,,,,,,,,,,,,,,,,,,,,,,,,,,,,,,
,,,,,,,,2023-08-06_08h29.03.328,HF_wild_card,2022.2.4,Win32,59.7193192,5ec1250ae718fe3ed494c474,64ce5acb97489d65b14ecc7a,64cf4b31fc6df899ebb115b3,,,,,,,decisionTrl,resources/DB.BMP,resources/DG.BMP,WildCard_NonEx,0.3225,-0.076666667,1,0,0,0.7959,optionRight,45,13735,6,29,0,29,0,1,,,,,,,,,,,,,,,,,,,,,,,,,,,,,,,,,,,,,,,
,,,,,,,,2023-08-06_08h29.03.328,HF_wild_card,2022.2.4,Win32,59.7193192,5ec1250ae718fe3ed494c474,64ce5acb97489d65b14ecc7a,64cf4b31fc6df899ebb115b3,,,,,,,decisionTrl,resources/DB.BMP,resources/DY.BMP,Door1,0.268333333,-0.066666667,1,0,0,0.7944,optionRight,30,13765,6,30,0,30,0,1,,,,,,,,,,,,,,,,,,,,,,,,,,,,,,,,,,,,,,,
,,,,,,,,2023-08-06_08h29.03.328,HF_wild_card,2022.2.4,Win32,59.7193192,5ec1250ae718fe3ed494c474,64ce5acb97489d65b14ecc7a,64cf4b31fc6df899ebb115b3,,,,,,,sngl,resources/Empty.png,resources/DY.BMP,Door1,0.306666667,-0.04,1,0,0,0.6958,optionRight,30,13795,6,31,0,31,0,1,,,,,,,,,,,,,,,,,,,,,,,,,,,,,,,,,,,,,,,
,,,,,,,,2023-08-06_08h29.03.328,HF_wild_card,2022.2.4,Win32,59.7193192,5ec1250ae718fe3ed494c474,64ce5acb97489d65b14ecc7a,64cf4b31fc6df899ebb115b3,,,,,,,sngl,resources/Empty.png,resources/DB.BMP,Door2,0.33,-0.048333333,1,0,0,0.7347,optionRight,40,13835,6,32,0,32,0,1,,,,,,,,,,,,,,,,,,,,,,,,,,,,,,,,,,,,,,,
,,,,,,,,2023-08-06_08h29.03.328,HF_wild_card,2022.2.4,Win32,59.7193192,5ec1250ae718fe3ed494c474,64ce5acb97489d65b14ecc7a,64cf4b31fc6df899ebb115b3,,,,,,,decisionTrl,resources/DP.BMP,resources/DR.BMP,Door4,-0.346666667,-0.06,1,0,0,0.8693,optionLeft,60,13895,6,33,0,33,0,1,,,,,,,,,,,,,,,,,,,,,,,,,,,,,,,,,,,,,,,
,,,,,,,,2023-08-06_08h29.03.328,HF_wild_card,2022.2.4,Win32,59.7193192,5ec1250ae718fe3ed494c474,64ce5acb97489d65b14ecc7a,64cf4b31fc6df899ebb115b3,,,,,,,decisionTrl,resources/DB.BMP,resources/DY.BMP,Door2,-0.38,-0.0275,1,0,0,1.1361,optionLeft,40,13935,6,34,0,34,0,1,,,,,,,,,,,,,,,,,,,,,,,,,,,,,,,,,,,,,,,
,,,,,,,,2023-08-06_08h29.03.328,HF_wild_card,2022.2.4,Win32,59.7193192,5ec1250ae718fe3ed494c474,64ce5acb97489d65b14ecc7a,64cf4b31fc6df899ebb115b3,,,,,,,decisionTrl,resources/DR.BMP,resources/DP.BMP,Door4,0.305,-0.03,1,0,0,0.9977,optionRight,60,13995,6,35,0,35,0,1,,,,,,,,,,,,,,,,,,,,,,,,,,,,,,,,,,,,,,,
,,,,,,,,2023-08-06_08h29.03.328,HF_wild_card,2022.2.4,Win32,59.7193192,5ec1250ae718fe3ed494c474,64ce5acb97489d65b14ecc7a,64cf4b31fc6df899ebb115b3,,,,,,,decisionTrl,resources/DG.BMP,resources/DB.BMP,WildCard_NonEx,-0.315833333,-0.006666667,1,0,0,1.4164,optionLeft,45,14040,6,36,0,36,0,1,,,,,,,,,,,,,,,,,,,,,,,,,,,,,,,,,,,,,,,
,,,,,,,,2023-08-06_08h29.03.328,HF_wild_card,2022.2.4,Win32,59.7193192,5ec1250ae718fe3ed494c474,64ce5acb97489d65b14ecc7a,64cf4b31fc6df899ebb115b3,,,,,,,decisionTrl,resources/DR.BMP,resources/DP.BMP,Door4,0.354166667,-0.065,1,0,0,0.9504,optionRight,60,14100,6,37,0,37,0,1,,,,,,,,,,,,,,,,,,,,,,,,,,,,,,,,,,,,,,,
,,,,,,,,2023-08-06_08h29.03.328,HF_wild_card,2022.2.4,Win32,59.7193192,5ec1250ae718fe3ed494c474,64ce5acb97489d65b14ecc7a,64cf4b31fc6df899ebb115b3,,,,,,,decisionTrl,resources/DY.BMP,resources/DB.BMP,Door1,-0.376666667,-0.0425,1,0,0,1.1157,optionLeft,30,14130,6,38,0,38,0,1,,,,,,,,,,,,,,,,,,,,,,,,,,,,,,,,,,,,,,,
,,,,,,,,2023-08-06_08h29.03.328,HF_wild_card,2022.2.4,Win32,59.7193192,5ec1250ae718fe3ed494c474,64ce5acb97489d65b14ecc7a,64cf4b31fc6df899ebb115b3,,,,,,,sngl,resources/DR.BMP,resources/Empty.png,Door3,-0.2625,-0.04,1,0,0,0.6821,optionLeft,70,14200,6,39,0,39,0,1,,,,,,,,,,,,,,,,,,,,,,,,,,,,,,,,,,,,,,,
,,,,,,,,2023-08-06_08h29.03.328,HF_wild_card,2022.2.4,Win32,59.7193192,5ec1250ae718fe3ed494c474,64ce5acb97489d65b14ecc7a,64cf4b31fc6df899ebb115b3,,,,,,,decisionTrl,resources/DR.BMP,resources/DP.BMP,Door3,-0.3525,-0.045833333,1,0,0,0.7788,optionLeft,70,14270,6,40,0,40,0,1,,,,,,,,,,,,,,,,,,,,,,,,,,,,,,,,,,,,,,,
,,,,,,,,2023-08-06_08h29.03.328,HF_wild_card,2022.2.4,Win32,59.7193192,5ec1250ae718fe3ed494c474,64ce5acb97489d65b14ecc7a,64cf4b31fc6df899ebb115b3,,,,,,,decisionTrl,resources/DB.BMP,resources/DY.BMP,Door2,-0.371666667,-0.026666667,1,0,0,1.4111,optionLeft,40,14310,6,41,0,41,0,1,,,,,,,,,,,,,,,,,,,,,,,,,,,,,,,,,,,,,,,
,,,,,,,,2023-08-06_08h29.03.328,HF_wild_card,2022.2.4,Win32,59.7193192,5ec1250ae718fe3ed494c474,64ce5acb97489d65b14ecc7a,64cf4b31fc6df899ebb115b3,,,,,,,decisionTrl,resources/DP.BMP,resources/DG.BMP,Door4,-0.385833333,-0.028333333,1,0,0,1.1287,optionLeft,80,14390,6,42,0,42,0,1,,,,,,,,,,,,,,,,,,,,,,,,,,,,,,,,,,,,,,,
,,,,,,,,2023-08-06_08h29.03.328,HF_wild_card,2022.2.4,Win32,59.7193192,5ec1250ae718fe3ed494c474,64ce5acb97489d65b14ecc7a,64cf4b31fc6df899ebb115b3,,,,,,,ctch,resources/DR.BMP,resources/DB.BMP,Door3,-0.3275,-0.035833333,1,0,0,0.9485,optionLeft,70,14460,6,43,0,43,0,1,,,,,,,,,,,,,,,,,,,,,,,,,,,,,,,,,,,,,,,
,,,,,,,,2023-08-06_08h29.03.328,HF_wild_card,2022.2.4,Win32,59.7193192,5ec1250ae718fe3ed494c474,64ce5acb97489d65b14ecc7a,64cf4b31fc6df899ebb115b3,,,,,,,,,,,,,,,,,,,,,,,,,,5,0,5,0,1,,,,,,,,,,,,,,,,,,,,,,,,,,,,,,,,,,
,,,,,,,,2023-08-06_08h29.03.328,HF_wild_card,2022.2.4,Win32,59.7193192,5ec1250ae718fe3ed494c474,64ce5acb97489d65b14ecc7a,64cf4b31fc6df899ebb115b3,,,,,,,ctch,resources/DB.BMP,resources/DR.BMP,Door3,0.353333333,-0.0175,1,0,0,0.993,optionRight,70,14530,7,0,0,0,0,1,,,,,,,,,,,,,,,,,,,,,,,,,,,,,,,,,,,,,,,
,,,,,,,,2023-08-06_08h29.03.328,HF_wild_card,2022.2.4,Win32,59.7193192,5ec1250ae718fe3ed494c474,64ce5acb97489d65b14ecc7a,64cf4b31fc6df899ebb115b3,,,,,,,decisionTrl,resources/DY.BMP,resources/DB.BMP,Door1,-0.323333333,-0.054166667,1,0,0,1.1501,optionLeft,30,14560,7,1,0,1,0,1,,,,,,,,,,,,,,,,,,,,,,,,,,,,,,,,,,,,,,,
,,,,,,,,2023-08-06_08h29.03.328,HF_wild_card,2022.2.4,Win32,59.7193192,5ec1250ae718fe3ed494c474,64ce5acb97489d65b14ecc7a,64cf4b31fc6df899ebb115b3,,,,,,,ctch,resources/DP.BMP,resources/DY.BMP,Door4,-0.406666667,-0.038333333,1,0,0,1.4006,optionLeft,80,14640,7,2,0,2,0,1,,,,,,,,,,,,,,,,,,,,,,,,,,,,,,,,,,,,,,,
,,,,,,,,2023-08-06_08h29.03.328,HF_wild_card,2022.2.4,Win32,59.7193192,5ec1250ae718fe3ed494c474,64ce5acb97489d65b14ecc7a,64cf4b31fc6df899ebb115b3,,,,,,,decisionTrl,resources/DB.BMP,resources/DY.BMP,Door1,0.395833333,-0.018333333,1,0,0,1.4001,optionRight,30,14670,7,3,0,3,0,1,,,,,,,,,,,,,,,,,,,,,,,,,,,,,,,,,,,,,,,
,,,,,,,,2023-08-06_08h29.03.328,HF_wild_card,2022.2.4,Win32,59.7193192,5ec1250ae718fe3ed494c474,64ce5acb97489d65b14ecc7a,64cf4b31fc6df899ebb115b3,,,,,,,decisionTrl,resources/DR.BMP,resources/DP.BMP,Door3,-0.375,-0.0475,1,0,0,1.7194,optionLeft,70,14740,7,4,0,4,0,1,,,,,,,,,,,,,,,,,,,,,,,,,,,,,,,,,,,,,,,
,,,,,,,,2023-08-06_08h29.03.328,HF_wild_card,2022.2.4,Win32,59.7193192,5ec1250ae718fe3ed494c474,64ce5acb97489d65b14ecc7a,64cf4b31fc6df899ebb115b3,,,,,,,decisionTrl,resources/DP.BMP,resources/DR.BMP,Door3,0.3675,-0.036666667,1,0,0,1.0332,optionRight,70,14810,7,5,0,5,0,1,,,,,,,,,,,,,,,,,,,,,,,,,,,,,,,,,,,,,,,
,,,,,,,,2023-08-06_08h29.03.328,HF_wild_card,2022.2.4,Win32,59.7193192,5ec1250ae718fe3ed494c474,64ce5acb97489d65b14ecc7a,64cf4b31fc6df899ebb115b3,,,,,,,decisionTrl,resources/DY.BMP,resources/DB.BMP,Door1,-0.334166667,-0.038333333,1,0,0,1.3657,optionLeft,30,14840,7,6,0,6,0,1,,,,,,,,,,,,,,,,,,,,,,,,,,,,,,,,,,,,,,,
,,,,,,,,2023-08-06_08h29.03.328,HF_wild_card,2022.2.4,Win32,59.7193192,5ec1250ae718fe3ed494c474,64ce5acb97489d65b14ecc7a,64cf4b31fc6df899ebb115b3,,,,,,,decisionTrl,resources/DR.BMP,resources/DP.BMP,Door3,-0.3325,-0.06,1,0,0,1.3004,optionLeft,70,14910,7,7,0,7,0,1,,,,,,,,,,,,,,,,,,,,,,,,,,,,,,,,,,,,,,,
,,,,,,,,2023-08-06_08h29.03.328,HF_wild_card,2022.2.4,Win32,59.7193192,5ec1250ae718fe3ed494c474,64ce5acb97489d65b14ecc7a,64cf4b31fc6df899ebb115b3,,,,,,,ctch,resources/DR.BMP,resources/DB.BMP,Door3,-0.3775,-0.049166667,1,0,0,1.1804,optionLeft,70,14980,7,8,0,8,0,1,,,,,,,,,,,,,,,,,,,,,,,,,,,,,,,,,,,,,,,
,,,,,,,,2023-08-06_08h29.03.328,HF_wild_card,2022.2.4,Win32,59.7193192,5ec1250ae718fe3ed494c474,64ce5acb97489d65b14ecc7a,64cf4b31fc6df899ebb115b3,,,,,,,decisionTrl,resources/DP.BMP,resources/DR.BMP,Door3,0.375,-0.0475,1,0,0,1.0654,optionRight,70,15050,7,9,0,9,0,1,,,,,,,,,,,,,,,,,,,,,,,,,,,,,,,,,,,,,,,
,,,,,,,,2023-08-06_08h29.03.328,HF_wild_card,2022.2.4,Win32,59.7193192,5ec1250ae718fe3ed494c474,64ce5acb97489d65b14ecc7a,64cf4b31fc6df899ebb115b3,,,,,,,decisionTrl,resources/DR.BMP,resources/DP.BMP,Door4,0.3275,-0.0425,1,0,0,1.0603,optionRight,80,15130,7,10,0,10,0,1,,,,,,,,,,,,,,,,,,,,,,,,,,,,,,,,,,,,,,,
,,,,,,,,2023-08-06_08h29.03.328,HF_wild_card,2022.2.4,Win32,59.7193192,5ec1250ae718fe3ed494c474,64ce5acb97489d65b14ecc7a,64cf4b31fc6df899ebb115b3,,,,,,,decisionTrl,resources/DR.BMP,resources/DP.BMP,Door3,-0.358333333,-0.063333333,1,0,0,1.3831,optionLeft,70,15200,7,11,0,11,0,1,,,,,,,,,,,,,,,,,,,,,,,,,,,,,,,,,,,,,,,
,,,,,,,,2023-08-06_08h29.03.328,HF_wild_card,2022.2.4,Win32,59.7193192,5ec1250ae718fe3ed494c474,64ce5acb97489d65b14ecc7a,64cf4b31fc6df899ebb115b3,,,,,,,decisionTrl,resources/DB.BMP,resources/DY.BMP,Door1,0.45,-0.039166667,1,0,0,1.1667,optionRight,30,15230,7,12,0,12,0,1,,,,,,,,,,,,,,,,,,,,,,,,,,,,,,,,,,,,,,,
,,,,,,,,2023-08-06_08h29.03.328,HF_wild_card,2022.2.4,Win32,59.7193192,5ec1250ae718fe3ed494c474,64ce5acb97489d65b14ecc7a,64cf4b31fc6df899ebb115b3,,,,,,,decisionTrl,resources/DY.BMP,resources/DB.BMP,Door1,-0.318333333,-0.01,1,0,0,1.0298,optionLeft,30,15260,7,13,0,13,0,1,,,,,,,,,,,,,,,,,,,,,,,,,,,,,,,,,,,,,,,
,,,,,,,,2023-08-06_08h29.03.328,HF_wild_card,2022.2.4,Win32,59.7193192,5ec1250ae718fe3ed494c474,64ce5acb97489d65b14ecc7a,64cf4b31fc6df899ebb115b3,,,,,,,ctch,resources/DY.BMP,resources/DP.BMP,Door4,0.3725,-0.0225,1,0,0,1.0992,optionRight,60,15320,7,14,0,14,0,1,,,,,,,,,,,,,,,,,,,,,,,,,,,,,,,,,,,,,,,
,,,,,,,,2023-08-06_08h29.03.328,HF_wild_card,2022.2.4,Win32,59.7193192,5ec1250ae718fe3ed494c474,64ce5acb97489d65b14ecc7a,64cf4b31fc6df899ebb115b3,,,,,,,ctch,resources/DB.BMP,resources/DR.BMP,Door3,0.336666667,-0.059166667,1,0,0,1.0294,optionRight,70,15390,7,15,0,15,0,1,,,,,,,,,,,,,,,,,,,,,,,,,,,,,,,,,,,,,,,
,,,,,,,,2023-08-06_08h29.03.328,HF_wild_card,2022.2.4,Win32,59.7193192,5ec1250ae718fe3ed494c474,64ce5acb97489d65b14ecc7a,64cf4b31fc6df899ebb115b3,,,,,,,ctch,resources/DB.BMP,resources/DR.BMP,Door3,0.334166667,-0.041666667,1,0,0,0.9186,optionRight,70,15460,7,16,0,16,0,1,,,,,,,,,,,,,,,,,,,,,,,,,,,,,,,,,,,,,,,
,,,,,,,,2023-08-06_08h29.03.328,HF_wild_card,2022.2.4,Win32,59.7193192,5ec1250ae718fe3ed494c474,64ce5acb97489d65b14ecc7a,64cf4b31fc6df899ebb115b3,,,,,,,decisionTrl,resources/DP.BMP,resources/DR.BMP,Door4,-0.378333333,-0.0425,1,0,0,1.1164,optionLeft,60,15520,7,17,0,17,0,1,,,,,,,,,,,,,,,,,,,,,,,,,,,,,,,,,,,,,,,
,,,,,,,,2023-08-06_08h29.03.328,HF_wild_card,2022.2.4,Win32,59.7193192,5ec1250ae718fe3ed494c474,64ce5acb97489d65b14ecc7a,64cf4b31fc6df899ebb115b3,,,,,,,decisionTrl,resources/DP.BMP,resources/DR.BMP,Door4,-0.365833333,-0.033333333,1,0,0,0.912,optionLeft,80,15600,7,18,0,18,0,1,,,,,,,,,,,,,,,,,,,,,,,,,,,,,,,,,,,,,,,
,,,,,,,,2023-08-06_08h29.03.328,HF_wild_card,2022.2.4,Win32,59.7193192,5ec1250ae718fe3ed494c474,64ce5acb97489d65b14ecc7a,64cf4b31fc6df899ebb115b3,,,,,,,decisionTrl,resources/DB.BMP,resources/DY.BMP,Door1,0.385,-0.070833333,1,0,0,0.9962,optionRight,30,15630,7,19,0,19,0,1,,,,,,,,,,,,,,,,,,,,,,,,,,,,,,,,,,,,,,,
,,,,,,,,2023-08-06_08h29.03.328,HF_wild_card,2022.2.4,Win32,59.7193192,5ec1250ae718fe3ed494c474,64ce5acb97489d65b14ecc7a,64cf4b31fc6df899ebb115b3,,,,,,,decisionTrl,resources/DR.BMP,resources/DP.BMP,Door3,-0.420833333,-0.059166667,1,0,0,1.4004,optionLeft,70,15700,7,20,0,20,0,1,,,,,,,,,,,,,,,,,,,,,,,,,,,,,,,,,,,,,,,
,,,,,,,,2023-08-06_08h29.03.328,HF_wild_card,2022.2.4,Win32,59.7193192,5ec1250ae718fe3ed494c474,64ce5acb97489d65b14ecc7a,64cf4b31fc6df899ebb115b3,,,,,,,decisionTrl,resources/DY.BMP,resources/DB.BMP,Door1,-0.354166667,-0.018333333,1,0,0,0.8814,optionLeft,30,15730,7,21,0,21,0,1,,,,,,,,,,,,,,,,,,,,,,,,,,,,,,,,,,,,,,,
,,,,,,,,2023-08-06_08h29.03.328,HF_wild_card,2022.2.4,Win32,59.7193192,5ec1250ae718fe3ed494c474,64ce5acb97489d65b14ecc7a,64cf4b31fc6df899ebb115b3,,,,,,,ctch,resources/DR.BMP,resources/DB.BMP,Door3,-0.45,-0.039166667,1,0,0,0.9834,optionLeft,70,15800,7,22,0,22,0,1,,,,,,,,,,,,,,,,,,,,,,,,,,,,,,,,,,,,,,,
,,,,,,,,2023-08-06_08h29.03.328,HF_wild_card,2022.2.4,Win32,59.7193192,5ec1250ae718fe3ed494c474,64ce5acb97489d65b14ecc7a,64cf4b31fc6df899ebb115b3,,,,,,,ctch,resources/DP.BMP,resources/DY.BMP,Door4,-0.35,-0.033333333,1,0,0,1.3147,optionLeft,60,15860,7,23,0,23,0,1,,,,,,,,,,,,,,,,,,,,,,,,,,,,,,,,,,,,,,,
,,,,,,,,2023-08-06_08h29.03.328,HF_wild_card,2022.2.4,Win32,59.7193192,5ec1250ae718fe3ed494c474,64ce5acb97489d65b14ecc7a,64cf4b31fc6df899ebb115b3,,,,,,,decisionTrl,resources/DP.BMP,resources/DR.BMP,Door4,-0.354166667,-0.060833333,1,0,0,1.0705,optionLeft,60,15920,7,24,0,24,0,1,,,,,,,,,,,,,,,,,,,,,,,,,,,,,,,,,,,,,,,
,,,,,,,,2023-08-06_08h29.03.328,HF_wild_card,2022.2.4,Win32,59.7193192,5ec1250ae718fe3ed494c474,64ce5acb97489d65b14ecc7a,64cf4b31fc6df899ebb115b3,,,,,,,decisionTrl,resources/DB.BMP,resources/DY.BMP,Door1,0.3675,-0.061666667,1,0,0,0.9532,optionRight,30,15950,7,25,0,25,0,1,,,,,,,,,,,,,,,,,,,,,,,,,,,,,,,,,,,,,,,
,,,,,,,,2023-08-06_08h29.03.328,HF_wild_card,2022.2.4,Win32,59.7193192,5ec1250ae718fe3ed494c474,64ce5acb97489d65b14ecc7a,64cf4b31fc6df899ebb115b3,,,,,,,decisionTrl,resources/DY.BMP,resources/DB.BMP,Door1,-0.3,-0.035,1,0,0,0.9206,optionLeft,30,15980,7,26,0,26,0,1,,,,,,,,,,,,,,,,,,,,,,,,,,,,,,,,,,,,,,,
,,,,,,,,2023-08-06_08h29.03.328,HF_wild_card,2022.2.4,Win32,59.7193192,5ec1250ae718fe3ed494c474,64ce5acb97489d65b14ecc7a,64cf4b31fc6df899ebb115b3,,,,,,,decisionTrl,resources/DP.BMP,resources/DR.BMP,Door4,-0.383333333,-0.041666667,1,0,0,0.8997,optionLeft,80,16060,7,27,0,27,0,1,,,,,,,,,,,,,,,,,,,,,,,,,,,,,,,,,,,,,,,
,,,,,,,,2023-08-06_08h29.03.328,HF_wild_card,2022.2.4,Win32,59.7193192,5ec1250ae718fe3ed494c474,64ce5acb97489d65b14ecc7a,64cf4b31fc6df899ebb115b3,,,,,,,decisionTrl,resources/DR.BMP,resources/DP.BMP,Door3,-0.4175,-0.0325,1,0,0,1.2502,optionLeft,70,16130,7,28,0,28,0,1,,,,,,,,,,,,,,,,,,,,,,,,,,,,,,,,,,,,,,,
,,,,,,,,2023-08-06_08h29.03.328,HF_wild_card,2022.2.4,Win32,59.7193192,5ec1250ae718fe3ed494c474,64ce5acb97489d65b14ecc7a,64cf4b31fc6df899ebb115b3,,,,,,,ctch,resources/DR.BMP,resources/DB.BMP,Door3,-0.3275,-0.0325,1,0,0,0.9693,optionLeft,70,16200,7,29,0,29,0,1,,,,,,,,,,,,,,,,,,,,,,,,,,,,,,,,,,,,,,,
,,,,,,,,2023-08-06_08h29.03.328,HF_wild_card,2022.2.4,Win32,59.7193192,5ec1250ae718fe3ed494c474,64ce5acb97489d65b14ecc7a,64cf4b31fc6df899ebb115b3,,,,,,,decisionTrl,resources/DB.BMP,resources/DY.BMP,Door1,0.29,-0.026666667,1,0,0,1.0993,optionRight,30,16230,7,30,0,30,0,1,,,,,,,,,,,,,,,,,,,,,,,,,,,,,,,,,,,,,,,
,,,,,,,,2023-08-06_08h29.03.328,HF_wild_card,2022.2.4,Win32,59.7193192,5ec1250ae718fe3ed494c474,64ce5acb97489d65b14ecc7a,64cf4b31fc6df899ebb115b3,,,,,,,ctch,resources/DP.BMP,resources/DY.BMP,Door4,-0.355,-0.040833333,1,0,0,1.0298,optionLeft,60,16290,7,31,0,31,0,1,,,,,,,,,,,,,,,,,,,,,,,,,,,,,,,,,,,,,,,
,,,,,,,,2023-08-06_08h29.03.328,HF_wild_card,2022.2.4,Win32,59.7193192,5ec1250ae718fe3ed494c474,64ce5acb97489d65b14ecc7a,64cf4b31fc6df899ebb115b3,,,,,,,decisionTrl,resources/DY.BMP,resources/DB.BMP,Door1,-0.274166667,-0.0125,1,0,0,0.9784,optionLeft,30,16320,7,32,0,32,0,1,,,,,,,,,,,,,,,,,,,,,,,,,,,,,,,,,,,,,,,
,,,,,,,,2023-08-06_08h29.03.328,HF_wild_card,2022.2.4,Win32,59.7193192,5ec1250ae718fe3ed494c474,64ce5acb97489d65b14ecc7a,64cf4b31fc6df899ebb115b3,,,,,,,ctch,resources/DY.BMP,resources/DP.BMP,Door4,0.3375,-0.035,1,0,0,0.9883,optionRight,80,16400,7,33,0,33,0,1,,,,,,,,,,,,,,,,,,,,,,,,,,,,,,,,,,,,,,,
,,,,,,,,2023-08-06_08h29.03.328,HF_wild_card,2022.2.4,Win32,59.7193192,5ec1250ae718fe3ed494c474,64ce5acb97489d65b14ecc7a,64cf4b31fc6df899ebb115b3,,,,,,,ctch,resources/DY.BMP,resources/DP.BMP,Door4,0.291666667,-0.011666667,1,0,0,0.9966,optionRight,60,16460,7,34,0,34,0,1,,,,,,,,,,,,,,,,,,,,,,,,,,,,,,,,,,,,,,,
,,,,,,,,2023-08-06_08h29.03.328,HF_wild_card,2022.2.4,Win32,59.7193192,5ec1250ae718fe3ed494c474,64ce5acb97489d65b14ecc7a,64cf4b31fc6df899ebb115b3,,,,,,,decisionTrl,resources/DB.BMP,resources/DY.BMP,Door1,0.306666667,0,1,0,0,1.1209,optionRight,30,16490,7,35,0,35,0,1,,,,,,,,,,,,,,,,,,,,,,,,,,,,,,,,,,,,,,,
,,,,,,,,2023-08-06_08h29.03.328,HF_wild_card,2022.2.4,Win32,59.7193192,5ec1250ae718fe3ed494c474,64ce5acb97489d65b14ecc7a,64cf4b31fc6df899ebb115b3,,,,,,,,,,,,,,,,,,,,,,,,,,6,0,6,0,1,,,,,,,,,,,,,,,,,,,,,,,,,,,,,,,,,,
,,,,,,,,2023-08-06_08h29.03.328,HF_wild_card,2022.2.4,Win32,59.7193192,5ec1250ae718fe3ed494c474,64ce5acb97489d65b14ecc7a,64cf4b31fc6df899ebb115b3,,,,,,,,,,,,,,,,,,,,,,,,,,,,,,,4,,,,,,,,,,,,,,,,,,,,,,,,,,,,,,,,,
,,,,,,,,2023-08-06_08h29.03.328,HF_wild_card,2022.2.4,Win32,59.7193192,5ec1250ae718fe3ed494c474,64ce5acb97489d65b14ecc7a,64cf4b31fc6df899ebb115b3,,,,,,,,,,,,,,,,,,,,,,,,,,,,,,,,,,,,,,,,,,,,,,,,,,,,,,,,,,,,,,,,
,,,,,,,,2023-08-06_08h29.03.328,HF_wild_card,2022.2.4,Win32,59.7193192,5ec1250ae718fe3ed494c474,64ce5acb97489d65b14ecc7a,64cf4b31fc6df899ebb115b3,,,,,,,,,,,,,,,,,,,,,,,,,,,,,,,,70,Door3,resources/DR.BMP,0,0,0,0,1,,,,,,,,,,,,,,,,,,,,,,,,,
,,,,,,,,2023-08-06_08h29.03.328,HF_wild_card,2022.2.4,Win32,59.7193192,5ec1250ae718fe3ed494c474,64ce5acb97489d65b14ecc7a,64cf4b31fc6df899ebb115b3,,,,,,,,,,,,,,,,,,,,,,,,,,,,,,,,95,WC_extreme,resources/DBN.BMP,1,0,1,0,1,,,,,,,,,,,,,,,,,,,,,,,,,
,,,,,,,,2023-08-06_08h29.03.328,HF_wild_card,2022.2.4,Win32,59.7193192,5ec1250ae718fe3ed494c474,64ce5acb97489d65b14ecc7a,64cf4b31fc6df899ebb115b3,,,,,,,,,,,,,,,,,,,,,,,,,,,,,,,,20,Door2,resources/DB.BMP,2,0,2,0,1,,,,,,,,,,,,,,,,,,,,,,,,,
,,,,,,,,2023-08-06_08h29.03.328,HF_wild_card,2022.2.4,Win32,59.7193192,5ec1250ae718fe3ed494c474,64ce5acb97489d65b14ecc7a,64cf4b31fc6df899ebb115b3,,,,,,,,,,,,,,,,,,,,,,,,,,,,,,,,80,Door4,resources/DP.BMP,3,0,3,0,1,,,,,,,,,,,,,,,,,,,,,,,,,
,,,,,,,,2023-08-06_08h29.03.328,HF_wild_card,2022.2.4,Win32,59.7193192,5ec1250ae718fe3ed494c474,64ce5acb97489d65b14ecc7a,64cf4b31fc6df899ebb115b3,,,,,,,,,,,,,,,,,,,,,,,,,,,,,,,,55,WC_nonExtreme,resources/DG.BMP,4,0,4,0,1,,,,,,,,,,,,,,,,,,,,,,,,,
,,,,,,,,2023-08-06_08h29.03.328,HF_wild_card,2022.2.4,Win32,59.7193192,5ec1250ae718fe3ed494c474,64ce5acb97489d65b14ecc7a,64cf4b31fc6df899ebb115b3,,,,,,,,,,,,,,,,,,,,,,,,,,,,,,,,30,Door1,resources/DY.BMP,5,0,5,0,1,,,,,,,,,,,,,,,,,,,,,,,,,
,,,,,,,,2023-08-06_08h29.03.328,HF_wild_card,2022.2.4,Win32,59.7193192,5ec1250ae718fe3ed494c474,64ce5acb97489d65b14ecc7a,64cf4b31fc6df899ebb115b3,,,,,,,,,,,,,,,,,,,,,,,,,,,,,,,,,,,,,,,,,,,,,,,,,,,,,,,,,,,,,,,,
,,,,,,,,2023-08-06_08h29.03.328,HF_wild_card,2022.2.4,Win32,59.7193192,5ec1250ae718fe3ed494c474,64ce5acb97489d65b14ecc7a,64cf4b31fc6df899ebb115b3,,,,,,,,,,,,,,,,,,,,,,,,,,,,,,,,,,,,,,,,0,0,0,0,1,,,,,,,,,,,,,,,,,,,,
,,,,,,,,2023-08-06_08h29.03.328,HF_wild_card,2022.2.4,Win32,59.7193192,5ec1250ae718fe3ed494c474,64ce5acb97489d65b14ecc7a,64cf4b31fc6df899ebb115b3,,,,,,,,,,,,,,,,,,,,,,,,,,,,,,,,,,,,,,,,1,0,1,0,1,,,,,,,,,,,,,,,,,,,,
,,,,,,,,2023-08-06_08h29.03.328,HF_wild_card,2022.2.4,Win32,59.7193192,5ec1250ae718fe3ed494c474,64ce5acb97489d65b14ecc7a,64cf4b31fc6df899ebb115b3,,,,,,,,,,,,,,,,,,,,,,,,,,,,,,,,,,,,,,,,,,,,,-0.295,-0.400833333,1,0,0,yes,50%,50%,WC_nonExtreme,resources/DG.BMP,0,0,0,0,1,,,,,
,,,,,,,,2023-08-06_08h29.03.328,HF_wild_card,2022.2.4,Win32,59.7193192,5ec1250ae718fe3ed494c474,64ce5acb97489d65b14ecc7a,64cf4b31fc6df899ebb115b3,,,,,,,,,,,,,,,,,,,,,,,,,,,,,,,,,,,,,,,,,,,,,,,,,,,,,,,,,,,,0,0,0,0,1
,,,,,,,,2023-08-06_08h29.03.328,HF_wild_card,2022.2.4,Win32,59.7193192,5ec1250ae718fe3ed494c474,64ce5acb97489d65b14ecc7a,64cf4b31fc6df899ebb115b3,,,,,,,,,,,,,,,,,,,,,,,,,,,,,,,,,,,,,,,,0,0,0,0,1,,,,,,,,,,,,,,,,,,,,
,,,,,,,,2023-08-06_08h29.03.328,HF_wild_card,2022.2.4,Win32,59.7193192,5ec1250ae718fe3ed494c474,64ce5acb97489d65b14ecc7a,64cf4b31fc6df899ebb115b3,,,,,,,,,,,,,,,,,,,,,,,,,,,,,,,,,,,,,,,,1,0,1,0,1,,,,,,,,,,,,,,,,,,,,
