Condition,Low fixed image (Door1),Low risky image (Door2),High fixed image (Door3),High risky image (Door4),Extreme Wild Card,NonExtreme Wild Card,,date,expName,psychopyVersion,OS,frameRate,PROLIFIC_PID,STUDY_ID,SESSION_ID,mouse_2.x,mouse_2.y,mouse_2.leftButton,mouse_2.midButton,mouse_2.rightButton,mouse_2.clicked_name,Trial Type,Left Option Image,Right Option Image,Chosen Door,mouse.x,mouse.y,mouse.leftButton,mouse.midButton,mouse.rightButton,mouse.time,mouse.clicked_name,Feedback,Cumulative Reward,Block,trial.thisRepN,trial.thisTrialN,trial.thisN,trial.thisIndex,trial.ran,blocks.thisRepN,blocks.thisTrialN,blocks.thisN,blocks.thisIndex,blocks.ran,Money conversion,First Outcome Reported,Shown Door (First Outcome),Displayed Image (First Outcome),outcomes.thisRepN,outcomes.thisTrialN,outcomes.thisN,outcomes.thisIndex,outcomes.ran,judgments.thisRepN,judgments.thisTrialN,judgments.thisN,judgments.thisIndex,judgments.ran,freqMouse.x,freqMouse.y,freqMouse.leftButton,freqMouse.midButton,freqMouse.rightButton,freqMouse.clicked_name,FQJ for first outcome,FQJ for second outcome,Shown Door,Displayed Image,trials.thisRepN,trials.thisTrialN,trials.thisN,trials.thisIndex,trials.ran,judgBlock.thisRepN,judgBlock.thisTrialN,judgBlock.thisN,judgBlock.thisIndex,judgBlock.ran
1,resources/DY.BMP,resources/DR.BMP,resources/DB.BMP,resources/DP.BMP,resources/DBN.BMP,resources/DG.BMP,,2023-08-16_08h36.00.693,HF_wild_card,2022.2.4,Win32,59.81934558,5dccf219aa4314964f7461d9,64d2fd46c836a06233681665,64dc7c4379bf61fd77441185,,,,,,,,,,,,,,,,,,,,,,,,,,,,,,,,,,,,,,,,,,,,,,,,,,,,,,,,,,,,,,,,
,,,,,,,,2023-08-16_08h36.00.693,HF_wild_card,2022.2.4,Win32,59.81934558,5dccf219aa4314964f7461d9,64d2fd46c836a06233681665,64dc7c4379bf61fd77441185,-0.020833333,-0.42578125,1,0,0,agree,,,,,,,,,,,,,,,,,,,,,,,,,,,,,,,,,,,,,,,,,,,,,,,,,,,,,,,,,,
,,,,,,,,2023-08-16_08h36.00.693,HF_wild_card,2022.2.4,Win32,59.81934558,5dccf219aa4314964f7461d9,64d2fd46c836a06233681665,64dc7c4379bf61fd77441185,,,,,,,,,,,,,,,,,,,,,,,,,,,,,,,,,,,,,,,,,,,,,,,,,,,,,,,,,,,,,,,,
,,,,,,,,2023-08-16_08h36.00.693,HF_wild_card,2022.2.4,Win32,59.81934558,5dccf219aa4314964f7461d9,64d2fd46c836a06233681665,64dc7c4379bf61fd77441185,,,,,,,decisionTrl,resources/DG.BMP,resources/DY.BMP,WildCard_NonEx,-0.341145833,-0.119791667,1,0,0,1.8215,optionLeft,45,45,1,0,0,0,0,1,,,,,,,,,,,,,,,,,,,,,,,,,,,,,,,,,,,,,,,
,,,,,,,,2023-08-16_08h36.00.693,HF_wild_card,2022.2.4,Win32,59.81934558,5dccf219aa4314964f7461d9,64d2fd46c836a06233681665,64dc7c4379bf61fd77441185,,,,,,,decisionTrl,resources/DR.BMP,resources/DY.BMP,Door2,-0.424479167,-0.059895833,1,0,0,1.4025,optionLeft,20,65,1,1,0,1,0,1,,,,,,,,,,,,,,,,,,,,,,,,,,,,,,,,,,,,,,,
,,,,,,,,2023-08-16_08h36.00.693,HF_wild_card,2022.2.4,Win32,59.81934558,5dccf219aa4314964f7461d9,64d2fd46c836a06233681665,64dc7c4379bf61fd77441185,,,,,,,sngl,resources/Empty.png,resources/DG.BMP,WildCard_NonEx,0.305989583,-0.015625,1,0,0,1.4583,optionRight,55,120,1,2,0,2,0,1,,,,,,,,,,,,,,,,,,,,,,,,,,,,,,,,,,,,,,,
,,,,,,,,2023-08-16_08h36.00.693,HF_wild_card,2022.2.4,Win32,59.81934558,5dccf219aa4314964f7461d9,64d2fd46c836a06233681665,64dc7c4379bf61fd77441185,,,,,,,sngl,resources/DY.BMP,resources/Empty.png,Door1,-0.3828125,-0.002604167,1,0,0,1.0624,optionLeft,30,150,1,3,0,3,0,1,,,,,,,,,,,,,,,,,,,,,,,,,,,,,,,,,,,,,,,
,,,,,,,,2023-08-16_08h36.00.693,HF_wild_card,2022.2.4,Win32,59.81934558,5dccf219aa4314964f7461d9,64d2fd46c836a06233681665,64dc7c4379bf61fd77441185,,,,,,,decisionTrl,resources/DY.BMP,resources/DR.BMP,Door2,0.255208333,-0.083333333,1,0,0,2.3478,optionRight,20,170,1,4,0,4,0,1,,,,,,,,,,,,,,,,,,,,,,,,,,,,,,,,,,,,,,,
,,,,,,,,2023-08-16_08h36.00.693,HF_wild_card,2022.2.4,Win32,59.81934558,5dccf219aa4314964f7461d9,64d2fd46c836a06233681665,64dc7c4379bf61fd77441185,,,,,,,ctch,resources/DP.BMP,resources/DY.BMP,Door4,-0.451822917,-0.065104167,1,0,0,1.2255,optionLeft,80,250,1,5,0,5,0,1,,,,,,,,,,,,,,,,,,,,,,,,,,,,,,,,,,,,,,,
,,,,,,,,2023-08-16_08h36.00.693,HF_wild_card,2022.2.4,Win32,59.81934558,5dccf219aa4314964f7461d9,64d2fd46c836a06233681665,64dc7c4379bf61fd77441185,,,,,,,sngl,resources/DR.BMP,resources/Empty.png,Door2,-0.35546875,0.0078125,1,0,0,0.8914,optionLeft,40,290,1,6,0,6,0,1,,,,,,,,,,,,,,,,,,,,,,,,,,,,,,,,,,,,,,,
,,,,,,,,2023-08-16_08h36.00.693,HF_wild_card,2022.2.4,Win32,59.81934558,5dccf219aa4314964f7461d9,64d2fd46c836a06233681665,64dc7c4379bf61fd77441185,,,,,,,decisionTrl,resources/DY.BMP,resources/DR.BMP,Door1,-0.295572917,-0.006510417,1,0,0,1.609,optionLeft,30,320,1,7,0,7,0,1,,,,,,,,,,,,,,,,,,,,,,,,,,,,,,,,,,,,,,,
,,,,,,,,2023-08-16_08h36.00.693,HF_wild_card,2022.2.4,Win32,59.81934558,5dccf219aa4314964f7461d9,64d2fd46c836a06233681665,64dc7c4379bf61fd77441185,,,,,,,decisionTrl,resources/DY.BMP,resources/DR.BMP,Door2,0.364583333,-0.061197917,1,0,0,1.1613,optionRight,20,340,1,8,0,8,0,1,,,,,,,,,,,,,,,,,,,,,,,,,,,,,,,,,,,,,,,
,,,,,,,,2023-08-16_08h36.00.693,HF_wild_card,2022.2.4,Win32,59.81934558,5dccf219aa4314964f7461d9,64d2fd46c836a06233681665,64dc7c4379bf61fd77441185,,,,,,,decisionTrl,resources/DY.BMP,resources/DR.BMP,Door1,-0.403645833,-0.009114583,1,0,0,0.794,optionLeft,30,370,1,9,0,9,0,1,,,,,,,,,,,,,,,,,,,,,,,,,,,,,,,,,,,,,,,
,,,,,,,,2023-08-16_08h36.00.693,HF_wild_card,2022.2.4,Win32,59.81934558,5dccf219aa4314964f7461d9,64d2fd46c836a06233681665,64dc7c4379bf61fd77441185,,,,,,,decisionTrl,resources/DG.BMP,resources/DR.BMP,WildCard_NonEx,-0.319010417,-0.001302083,1,0,0,1.11,optionLeft,55,425,1,10,0,10,0,1,,,,,,,,,,,,,,,,,,,,,,,,,,,,,,,,,,,,,,,
,,,,,,,,2023-08-16_08h36.00.693,HF_wild_card,2022.2.4,Win32,59.81934558,5dccf219aa4314964f7461d9,64d2fd46c836a06233681665,64dc7c4379bf61fd77441185,,,,,,,sngl,resources/Empty.png,resources/DG.BMP,WildCard_NonEx,0.34765625,-0.001302083,1,0,0,0.8609,optionRight,45,470,1,11,0,11,0,1,,,,,,,,,,,,,,,,,,,,,,,,,,,,,,,,,,,,,,,
,,,,,,,,2023-08-16_08h36.00.693,HF_wild_card,2022.2.4,Win32,59.81934558,5dccf219aa4314964f7461d9,64d2fd46c836a06233681665,64dc7c4379bf61fd77441185,,,,,,,ctch,resources/DY.BMP,resources/DP.BMP,Door4,0.251302083,-0.033854167,1,0,0,1.6421,optionRight,60,530,1,12,0,12,0,1,,,,,,,,,,,,,,,,,,,,,,,,,,,,,,,,,,,,,,,
,,,,,,,,2023-08-16_08h36.00.693,HF_wild_card,2022.2.4,Win32,59.81934558,5dccf219aa4314964f7461d9,64d2fd46c836a06233681665,64dc7c4379bf61fd77441185,,,,,,,sngl,resources/Empty.png,resources/DY.BMP,Door1,0.342447917,-0.041666667,1,0,0,0.8934,optionRight,30,560,1,13,0,13,0,1,,,,,,,,,,,,,,,,,,,,,,,,,,,,,,,,,,,,,,,
,,,,,,,,2023-08-16_08h36.00.693,HF_wild_card,2022.2.4,Win32,59.81934558,5dccf219aa4314964f7461d9,64d2fd46c836a06233681665,64dc7c4379bf61fd77441185,,,,,,,decisionTrl,resources/DR.BMP,resources/DY.BMP,Door1,0.412760417,-0.03125,1,0,0,1.0605,optionRight,30,590,1,14,0,14,0,1,,,,,,,,,,,,,,,,,,,,,,,,,,,,,,,,,,,,,,,
,,,,,,,,2023-08-16_08h36.00.693,HF_wild_card,2022.2.4,Win32,59.81934558,5dccf219aa4314964f7461d9,64d2fd46c836a06233681665,64dc7c4379bf61fd77441185,,,,,,,sngl,resources/DG.BMP,resources/Empty.png,WildCard_NonEx,-0.3359375,0.015625,1,0,0,0.7268,optionLeft,55,645,1,15,0,15,0,1,,,,,,,,,,,,,,,,,,,,,,,,,,,,,,,,,,,,,,,
,,,,,,,,2023-08-16_08h36.00.693,HF_wild_card,2022.2.4,Win32,59.81934558,5dccf219aa4314964f7461d9,64d2fd46c836a06233681665,64dc7c4379bf61fd77441185,,,,,,,decisionTrl,resources/DY.BMP,resources/DG.BMP,WildCard_NonEx,0.467447917,-0.053385417,1,0,0,1.043,optionRight,55,700,1,16,0,16,0,1,,,,,,,,,,,,,,,,,,,,,,,,,,,,,,,,,,,,,,,
,,,,,,,,2023-08-16_08h36.00.693,HF_wild_card,2022.2.4,Win32,59.81934558,5dccf219aa4314964f7461d9,64d2fd46c836a06233681665,64dc7c4379bf61fd77441185,,,,,,,decisionTrl,resources/DR.BMP,resources/DG.BMP,WildCard_NonEx,0.303385417,-0.013020833,1,0,0,1.2259,optionRight,45,745,1,17,0,17,0,1,,,,,,,,,,,,,,,,,,,,,,,,,,,,,,,,,,,,,,,
,,,,,,,,2023-08-16_08h36.00.693,HF_wild_card,2022.2.4,Win32,59.81934558,5dccf219aa4314964f7461d9,64d2fd46c836a06233681665,64dc7c4379bf61fd77441185,,,,,,,decisionTrl,resources/DP.BMP,resources/DG.BMP,Door4,-0.341145833,-0.009114583,1,0,0,1.0764,optionLeft,60,805,1,18,0,18,0,1,,,,,,,,,,,,,,,,,,,,,,,,,,,,,,,,,,,,,,,
,,,,,,,,2023-08-16_08h36.00.693,HF_wild_card,2022.2.4,Win32,59.81934558,5dccf219aa4314964f7461d9,64d2fd46c836a06233681665,64dc7c4379bf61fd77441185,,,,,,,sngl,resources/DP.BMP,resources/Empty.png,Door4,-0.369791667,-0.01171875,1,0,0,0.7238,optionLeft,80,885,1,19,0,19,0,1,,,,,,,,,,,,,,,,,,,,,,,,,,,,,,,,,,,,,,,
,,,,,,,,2023-08-16_08h36.00.693,HF_wild_card,2022.2.4,Win32,59.81934558,5dccf219aa4314964f7461d9,64d2fd46c836a06233681665,64dc7c4379bf61fd77441185,,,,,,,decisionTrl,resources/DG.BMP,resources/DB.BMP,Door3,0.47265625,-0.09375,1,0,0,1.7605,optionRight,70,955,1,20,0,20,0,1,,,,,,,,,,,,,,,,,,,,,,,,,,,,,,,,,,,,,,,
,,,,,,,,2023-08-16_08h36.00.693,HF_wild_card,2022.2.4,Win32,59.81934558,5dccf219aa4314964f7461d9,64d2fd46c836a06233681665,64dc7c4379bf61fd77441185,,,,,,,sngl,resources/Empty.png,resources/DR.BMP,Door2,0.393229167,-0.044270833,1,0,0,0.8771,optionRight,20,975,1,21,0,21,0,1,,,,,,,,,,,,,,,,,,,,,,,,,,,,,,,,,,,,,,,
,,,,,,,,2023-08-16_08h36.00.693,HF_wild_card,2022.2.4,Win32,59.81934558,5dccf219aa4314964f7461d9,64d2fd46c836a06233681665,64dc7c4379bf61fd77441185,,,,,,,decisionTrl,resources/DB.BMP,resources/DP.BMP,Door4,0.467447917,-0.08984375,1,0,0,2.042,optionRight,80,1055,1,22,0,22,0,1,,,,,,,,,,,,,,,,,,,,,,,,,,,,,,,,,,,,,,,
,,,,,,,,2023-08-16_08h36.00.693,HF_wild_card,2022.2.4,Win32,59.81934558,5dccf219aa4314964f7461d9,64d2fd46c836a06233681665,64dc7c4379bf61fd77441185,,,,,,,ctch,resources/DR.BMP,resources/DB.BMP,Door3,0.436197917,-0.078125,1,0,0,0.9944,optionRight,70,1125,1,23,0,23,0,1,,,,,,,,,,,,,,,,,,,,,,,,,,,,,,,,,,,,,,,
,,,,,,,,2023-08-16_08h36.00.693,HF_wild_card,2022.2.4,Win32,59.81934558,5dccf219aa4314964f7461d9,64d2fd46c836a06233681665,64dc7c4379bf61fd77441185,,,,,,,decisionTrl,resources/DP.BMP,resources/DB.BMP,Door4,-0.338541667,-0.005208333,1,0,0,1.5603,optionLeft,60,1185,1,24,0,24,0,1,,,,,,,,,,,,,,,,,,,,,,,,,,,,,,,,,,,,,,,
,,,,,,,,2023-08-16_08h36.00.693,HF_wild_card,2022.2.4,Win32,59.81934558,5dccf219aa4314964f7461d9,64d2fd46c836a06233681665,64dc7c4379bf61fd77441185,,,,,,,decisionTrl,resources/DR.BMP,resources/DY.BMP,Door1,0.376302083,-0.026041667,1,0,0,1.3098,optionRight,30,1215,1,25,0,25,0,1,,,,,,,,,,,,,,,,,,,,,,,,,,,,,,,,,,,,,,,
,,,,,,,,2023-08-16_08h36.00.693,HF_wild_card,2022.2.4,Win32,59.81934558,5dccf219aa4314964f7461d9,64d2fd46c836a06233681665,64dc7c4379bf61fd77441185,,,,,,,decisionTrl,resources/DG.BMP,resources/DP.BMP,Door4,0.399739583,-0.072916667,1,0,0,1.7937,optionRight,80,1295,1,26,0,26,0,1,,,,,,,,,,,,,,,,,,,,,,,,,,,,,,,,,,,,,,,
,,,,,,,,2023-08-16_08h36.00.693,HF_wild_card,2022.2.4,Win32,59.81934558,5dccf219aa4314964f7461d9,64d2fd46c836a06233681665,64dc7c4379bf61fd77441185,,,,,,,ctch,resources/DR.BMP,resources/DB.BMP,Door3,0.2734375,-0.05859375,1,0,0,1.2768,optionRight,70,1365,1,27,0,27,0,1,,,,,,,,,,,,,,,,,,,,,,,,,,,,,,,,,,,,,,,
,,,,,,,,2023-08-16_08h36.00.693,HF_wild_card,2022.2.4,Win32,59.81934558,5dccf219aa4314964f7461d9,64d2fd46c836a06233681665,64dc7c4379bf61fd77441185,,,,,,,decisionTrl,resources/DP.BMP,resources/DB.BMP,Door4,-0.359375,0.032552083,1,0,0,1.2754,optionLeft,80,1445,1,28,0,28,0,1,,,,,,,,,,,,,,,,,,,,,,,,,,,,,,,,,,,,,,,
,,,,,,,,2023-08-16_08h36.00.693,HF_wild_card,2022.2.4,Win32,59.81934558,5dccf219aa4314964f7461d9,64d2fd46c836a06233681665,64dc7c4379bf61fd77441185,,,,,,,decisionTrl,resources/DP.BMP,resources/DB.BMP,Door4,-0.296875,0.015625,1,0,0,1.2275,optionLeft,80,1525,1,29,0,29,0,1,,,,,,,,,,,,,,,,,,,,,,,,,,,,,,,,,,,,,,,
,,,,,,,,2023-08-16_08h36.00.693,HF_wild_card,2022.2.4,Win32,59.81934558,5dccf219aa4314964f7461d9,64d2fd46c836a06233681665,64dc7c4379bf61fd77441185,,,,,,,ctch,resources/DB.BMP,resources/DR.BMP,Door3,-0.3828125,-0.006510417,1,0,0,1.2603,optionLeft,70,1595,1,30,0,30,0,1,,,,,,,,,,,,,,,,,,,,,,,,,,,,,,,,,,,,,,,
,,,,,,,,2023-08-16_08h36.00.693,HF_wild_card,2022.2.4,Win32,59.81934558,5dccf219aa4314964f7461d9,64d2fd46c836a06233681665,64dc7c4379bf61fd77441185,,,,,,,decisionTrl,resources/DR.BMP,resources/DY.BMP,Door1,0.4375,-0.037760417,1,0,0,2.8426,optionRight,30,1625,1,31,0,31,0,1,,,,,,,,,,,,,,,,,,,,,,,,,,,,,,,,,,,,,,,
,,,,,,,,2023-08-16_08h36.00.693,HF_wild_card,2022.2.4,Win32,59.81934558,5dccf219aa4314964f7461d9,64d2fd46c836a06233681665,64dc7c4379bf61fd77441185,,,,,,,decisionTrl,resources/DP.BMP,resources/DB.BMP,Door4,-0.337239583,-0.03515625,1,0,0,1.4763,optionLeft,80,1705,1,32,0,32,0,1,,,,,,,,,,,,,,,,,,,,,,,,,,,,,,,,,,,,,,,
,,,,,,,,2023-08-16_08h36.00.693,HF_wild_card,2022.2.4,Win32,59.81934558,5dccf219aa4314964f7461d9,64d2fd46c836a06233681665,64dc7c4379bf61fd77441185,,,,,,,ctch,resources/DB.BMP,resources/DR.BMP,Door3,-0.325520833,0.020833333,1,0,0,1.2097,optionLeft,70,1775,1,33,0,33,0,1,,,,,,,,,,,,,,,,,,,,,,,,,,,,,,,,,,,,,,,
,,,,,,,,2023-08-16_08h36.00.693,HF_wild_card,2022.2.4,Win32,59.81934558,5dccf219aa4314964f7461d9,64d2fd46c836a06233681665,64dc7c4379bf61fd77441185,,,,,,,decisionTrl,resources/DB.BMP,resources/DP.BMP,Door4,0.30859375,0.009114583,1,0,0,1.3432,optionRight,80,1855,1,34,0,34,0,1,,,,,,,,,,,,,,,,,,,,,,,,,,,,,,,,,,,,,,,
,,,,,,,,2023-08-16_08h36.00.693,HF_wild_card,2022.2.4,Win32,59.81934558,5dccf219aa4314964f7461d9,64d2fd46c836a06233681665,64dc7c4379bf61fd77441185,,,,,,,sngl,resources/DG.BMP,resources/Empty.png,WildCard_NonEx,-0.302083333,0.0234375,1,0,0,0.794,optionLeft,45,1900,1,35,0,35,0,1,,,,,,,,,,,,,,,,,,,,,,,,,,,,,,,,,,,,,,,
,,,,,,,,2023-08-16_08h36.00.693,HF_wild_card,2022.2.4,Win32,59.81934558,5dccf219aa4314964f7461d9,64d2fd46c836a06233681665,64dc7c4379bf61fd77441185,,,,,,,sngl,resources/Empty.png,resources/DP.BMP,Door4,0.338541667,-0.013020833,1,0,0,0.747,optionRight,60,1960,1,36,0,36,0,1,,,,,,,,,,,,,,,,,,,,,,,,,,,,,,,,,,,,,,,
,,,,,,,,2023-08-16_08h36.00.693,HF_wild_card,2022.2.4,Win32,59.81934558,5dccf219aa4314964f7461d9,64d2fd46c836a06233681665,64dc7c4379bf61fd77441185,,,,,,,sngl,resources/Empty.png,resources/DB.BMP,Door3,0.268229167,0.009114583,1,0,0,0.8274,optionRight,70,2030,1,37,0,37,0,1,,,,,,,,,,,,,,,,,,,,,,,,,,,,,,,,,,,,,,,
,,,,,,,,2023-08-16_08h36.00.693,HF_wild_card,2022.2.4,Win32,59.81934558,5dccf219aa4314964f7461d9,64d2fd46c836a06233681665,64dc7c4379bf61fd77441185,,,,,,,decisionTrl,resources/DB.BMP,resources/DG.BMP,Door3,-0.376302083,0.045572917,1,0,0,0.8605,optionLeft,70,2100,1,38,0,38,0,1,,,,,,,,,,,,,,,,,,,,,,,,,,,,,,,,,,,,,,,
,,,,,,,,2023-08-16_08h36.00.693,HF_wild_card,2022.2.4,Win32,59.81934558,5dccf219aa4314964f7461d9,64d2fd46c836a06233681665,64dc7c4379bf61fd77441185,,,,,,,ctch,resources/DP.BMP,resources/DY.BMP,Door4,-0.328125,-0.028645833,1,0,0,1.4592,optionLeft,80,2180,1,39,0,39,0,1,,,,,,,,,,,,,,,,,,,,,,,,,,,,,,,,,,,,,,,
,,,,,,,,2023-08-16_08h36.00.693,HF_wild_card,2022.2.4,Win32,59.81934558,5dccf219aa4314964f7461d9,64d2fd46c836a06233681665,64dc7c4379bf61fd77441185,,,,,,,decisionTrl,resources/DB.BMP,resources/DP.BMP,Door4,0.354166667,-0.053385417,1,0,0,2.1767,optionRight,80,2260,1,40,0,40,0,1,,,,,,,,,,,,,,,,,,,,,,,,,,,,,,,,,,,,,,,
,,,,,,,,2023-08-16_08h36.00.693,HF_wild_card,2022.2.4,Win32,59.81934558,5dccf219aa4314964f7461d9,64d2fd46c836a06233681665,64dc7c4379bf61fd77441185,,,,,,,sngl,resources/DB.BMP,resources/Empty.png,Door3,-0.37890625,-0.001302083,1,0,0,0.7586,optionLeft,70,2330,1,41,0,41,0,1,,,,,,,,,,,,,,,,,,,,,,,,,,,,,,,,,,,,,,,
,,,,,,,,2023-08-16_08h36.00.693,HF_wild_card,2022.2.4,Win32,59.81934558,5dccf219aa4314964f7461d9,64d2fd46c836a06233681665,64dc7c4379bf61fd77441185,,,,,,,decisionTrl,resources/DB.BMP,resources/DP.BMP,Door4,0.377604167,0.009114583,1,0,0,1.1432,optionRight,60,2390,1,42,0,42,0,1,,,,,,,,,,,,,,,,,,,,,,,,,,,,,,,,,,,,,,,
,,,,,,,,2023-08-16_08h36.00.693,HF_wild_card,2022.2.4,Win32,59.81934558,5dccf219aa4314964f7461d9,64d2fd46c836a06233681665,64dc7c4379bf61fd77441185,,,,,,,ctch,resources/DY.BMP,resources/DP.BMP,Door4,0.287760417,-0.020833333,1,0,0,1.0605,optionRight,60,2450,1,43,0,43,0,1,,,,,,,,,,,,,,,,,,,,,,,,,,,,,,,,,,,,,,,
,,,,,,,,2023-08-16_08h36.00.693,HF_wild_card,2022.2.4,Win32,59.81934558,5dccf219aa4314964f7461d9,64d2fd46c836a06233681665,64dc7c4379bf61fd77441185,,,,,,,,,,,,,,,,,,,,,,,,,,0,0,0,0,1,,,,,,,,,,,,,,,,,,,,,,,,,,,,,,,,,,
,,,,,,,,2023-08-16_08h36.00.693,HF_wild_card,2022.2.4,Win32,59.81934558,5dccf219aa4314964f7461d9,64d2fd46c836a06233681665,64dc7c4379bf61fd77441185,,,,,,,decisionTrl,resources/DR.BMP,resources/DY.BMP,Door1,0.497395833,-0.076822917,1,0,0,1.5245,optionRight,30,2480,2,0,0,0,0,1,,,,,,,,,,,,,,,,,,,,,,,,,,,,,,,,,,,,,,,
,,,,,,,,2023-08-16_08h36.00.693,HF_wild_card,2022.2.4,Win32,59.81934558,5dccf219aa4314964f7461d9,64d2fd46c836a06233681665,64dc7c4379bf61fd77441185,,,,,,,sngl,resources/Empty.png,resources/DR.BMP,Door2,0.35546875,-0.020833333,1,0,0,0.7417,optionRight,40,2520,2,1,0,1,0,1,,,,,,,,,,,,,,,,,,,,,,,,,,,,,,,,,,,,,,,
,,,,,,,,2023-08-16_08h36.00.693,HF_wild_card,2022.2.4,Win32,59.81934558,5dccf219aa4314964f7461d9,64d2fd46c836a06233681665,64dc7c4379bf61fd77441185,,,,,,,decisionTrl,resources/DY.BMP,resources/DR.BMP,Door1,-0.423177083,0.005208333,1,0,0,1.4928,optionLeft,30,2550,2,2,0,2,0,1,,,,,,,,,,,,,,,,,,,,,,,,,,,,,,,,,,,,,,,
,,,,,,,,2023-08-16_08h36.00.693,HF_wild_card,2022.2.4,Win32,59.81934558,5dccf219aa4314964f7461d9,64d2fd46c836a06233681665,64dc7c4379bf61fd77441185,,,,,,,decisionTrl,resources/DG.BMP,resources/DP.BMP,Door4,0.415364583,-0.005208333,1,0,0,1.1592,optionRight,80,2630,2,3,0,3,0,1,,,,,,,,,,,,,,,,,,,,,,,,,,,,,,,,,,,,,,,
,,,,,,,,2023-08-16_08h36.00.693,HF_wild_card,2022.2.4,Win32,59.81934558,5dccf219aa4314964f7461d9,64d2fd46c836a06233681665,64dc7c4379bf61fd77441185,,,,,,,decisionTrl,resources/DR.BMP,resources/DY.BMP,Door1,0.385416667,-0.013020833,1,0,0,2.1935,optionRight,30,2660,2,4,0,4,0,1,,,,,,,,,,,,,,,,,,,,,,,,,,,,,,,,,,,,,,,
,,,,,,,,2023-08-16_08h36.00.693,HF_wild_card,2022.2.4,Win32,59.81934558,5dccf219aa4314964f7461d9,64d2fd46c836a06233681665,64dc7c4379bf61fd77441185,,,,,,,sngl,resources/Empty.png,resources/DB.BMP,Door3,0.389322917,-0.01171875,1,0,0,0.7606,optionRight,70,2730,2,5,0,5,0,1,,,,,,,,,,,,,,,,,,,,,,,,,,,,,,,,,,,,,,,
,,,,,,,,2023-08-16_08h36.00.693,HF_wild_card,2022.2.4,Win32,59.81934558,5dccf219aa4314964f7461d9,64d2fd46c836a06233681665,64dc7c4379bf61fd77441185,,,,,,,decisionTrl,resources/DP.BMP,resources/DB.BMP,Door4,-0.311197917,-0.00390625,1,0,0,1.5101,optionLeft,80,2810,2,6,0,6,0,1,,,,,,,,,,,,,,,,,,,,,,,,,,,,,,,,,,,,,,,
,,,,,,,,2023-08-16_08h36.00.693,HF_wild_card,2022.2.4,Win32,59.81934558,5dccf219aa4314964f7461d9,64d2fd46c836a06233681665,64dc7c4379bf61fd77441185,,,,,,,decisionTrl,resources/DP.BMP,resources/DB.BMP,Door4,-0.291666667,-0.0234375,1,0,0,1.325,optionLeft,80,2890,2,7,0,7,0,1,,,,,,,,,,,,,,,,,,,,,,,,,,,,,,,,,,,,,,,
,,,,,,,,2023-08-16_08h36.00.693,HF_wild_card,2022.2.4,Win32,59.81934558,5dccf219aa4314964f7461d9,64d2fd46c836a06233681665,64dc7c4379bf61fd77441185,,,,,,,sngl,resources/Empty.png,resources/DP.BMP,Door4,0.325520833,-0.0234375,1,0,0,0.9599,optionRight,80,2970,2,8,0,8,0,1,,,,,,,,,,,,,,,,,,,,,,,,,,,,,,,,,,,,,,,
,,,,,,,,2023-08-16_08h36.00.693,HF_wild_card,2022.2.4,Win32,59.81934558,5dccf219aa4314964f7461d9,64d2fd46c836a06233681665,64dc7c4379bf61fd77441185,,,,,,,sngl,resources/DY.BMP,resources/Empty.png,Door1,-0.296875,-0.020833333,1,0,0,0.9253,optionLeft,30,3000,2,9,0,9,0,1,,,,,,,,,,,,,,,,,,,,,,,,,,,,,,,,,,,,,,,
,,,,,,,,2023-08-16_08h36.00.693,HF_wild_card,2022.2.4,Win32,59.81934558,5dccf219aa4314964f7461d9,64d2fd46c836a06233681665,64dc7c4379bf61fd77441185,,,,,,,decisionTrl,resources/DP.BMP,resources/DB.BMP,Door4,-0.328125,-0.044270833,1,0,0,1.543,optionLeft,80,3080,2,10,0,10,0,1,,,,,,,,,,,,,,,,,,,,,,,,,,,,,,,,,,,,,,,
,,,,,,,,2023-08-16_08h36.00.693,HF_wild_card,2022.2.4,Win32,59.81934558,5dccf219aa4314964f7461d9,64d2fd46c836a06233681665,64dc7c4379bf61fd77441185,,,,,,,ctch,resources/DB.BMP,resources/DR.BMP,Door3,-0.380208333,-0.028645833,1,0,0,0.9259,optionLeft,70,3150,2,11,0,11,0,1,,,,,,,,,,,,,,,,,,,,,,,,,,,,,,,,,,,,,,,
,,,,,,,,2023-08-16_08h36.00.693,HF_wild_card,2022.2.4,Win32,59.81934558,5dccf219aa4314964f7461d9,64d2fd46c836a06233681665,64dc7c4379bf61fd77441185,,,,,,,decisionTrl,resources/DB.BMP,resources/DG.BMP,Door3,-0.36328125,0.014322917,1,0,0,0.8795,optionLeft,70,3220,2,12,0,12,0,1,,,,,,,,,,,,,,,,,,,,,,,,,,,,,,,,,,,,,,,
,,,,,,,,2023-08-16_08h36.00.693,HF_wild_card,2022.2.4,Win32,59.81934558,5dccf219aa4314964f7461d9,64d2fd46c836a06233681665,64dc7c4379bf61fd77441185,,,,,,,sngl,resources/DG.BMP,resources/Empty.png,WildCard_NonEx,-0.305989583,0.018229167,1,0,0,0.7684,optionLeft,45,3265,2,13,0,13,0,1,,,,,,,,,,,,,,,,,,,,,,,,,,,,,,,,,,,,,,,
,,,,,,,,2023-08-16_08h36.00.693,HF_wild_card,2022.2.4,Win32,59.81934558,5dccf219aa4314964f7461d9,64d2fd46c836a06233681665,64dc7c4379bf61fd77441185,,,,,,,decisionTrl,resources/DY.BMP,resources/DR.BMP,Door1,-0.33203125,0.00390625,1,0,0,1.3235,optionLeft,30,3295,2,14,0,14,0,1,,,,,,,,,,,,,,,,,,,,,,,,,,,,,,,,,,,,,,,
,,,,,,,,2023-08-16_08h36.00.693,HF_wild_card,2022.2.4,Win32,59.81934558,5dccf219aa4314964f7461d9,64d2fd46c836a06233681665,64dc7c4379bf61fd77441185,,,,,,,ctch,resources/DR.BMP,resources/DB.BMP,Door3,0.326822917,-0.03125,1,0,0,1.2786,optionRight,70,3365,2,15,0,15,0,1,,,,,,,,,,,,,,,,,,,,,,,,,,,,,,,,,,,,,,,
,,,,,,,,2023-08-16_08h36.00.693,HF_wild_card,2022.2.4,Win32,59.81934558,5dccf219aa4314964f7461d9,64d2fd46c836a06233681665,64dc7c4379bf61fd77441185,,,,,,,ctch,resources/DY.BMP,resources/DP.BMP,Door4,0.3046875,0,1,0,0,0.7939,optionRight,80,3445,2,16,0,16,0,1,,,,,,,,,,,,,,,,,,,,,,,,,,,,,,,,,,,,,,,
,,,,,,,,2023-08-16_08h36.00.693,HF_wild_card,2022.2.4,Win32,59.81934558,5dccf219aa4314964f7461d9,64d2fd46c836a06233681665,64dc7c4379bf61fd77441185,,,,,,,ctch,resources/DP.BMP,resources/DY.BMP,Door4,-0.404947917,0.032552083,1,0,0,0.844,optionLeft,80,3525,2,17,0,17,0,1,,,,,,,,,,,,,,,,,,,,,,,,,,,,,,,,,,,,,,,
,,,,,,,,2023-08-16_08h36.00.693,HF_wild_card,2022.2.4,Win32,59.81934558,5dccf219aa4314964f7461d9,64d2fd46c836a06233681665,64dc7c4379bf61fd77441185,,,,,,,decisionTrl,resources/DY.BMP,resources/DR.BMP,Door1,-0.3359375,0.0390625,1,0,0,1.0087,optionLeft,30,3555,2,18,0,18,0,1,,,,,,,,,,,,,,,,,,,,,,,,,,,,,,,,,,,,,,,
,,,,,,,,2023-08-16_08h36.00.693,HF_wild_card,2022.2.4,Win32,59.81934558,5dccf219aa4314964f7461d9,64d2fd46c836a06233681665,64dc7c4379bf61fd77441185,,,,,,,sngl,resources/DR.BMP,resources/Empty.png,Door2,-0.282552083,0.036458333,1,0,0,0.7427,optionLeft,20,3575,2,19,0,19,0,1,,,,,,,,,,,,,,,,,,,,,,,,,,,,,,,,,,,,,,,
,,,,,,,,2023-08-16_08h36.00.693,HF_wild_card,2022.2.4,Win32,59.81934558,5dccf219aa4314964f7461d9,64d2fd46c836a06233681665,64dc7c4379bf61fd77441185,,,,,,,decisionTrl,resources/DR.BMP,resources/DY.BMP,Door1,0.380208333,-0.010416667,1,0,0,1.0771,optionRight,30,3605,2,20,0,20,0,1,,,,,,,,,,,,,,,,,,,,,,,,,,,,,,,,,,,,,,,
,,,,,,,,2023-08-16_08h36.00.693,HF_wild_card,2022.2.4,Win32,59.81934558,5dccf219aa4314964f7461d9,64d2fd46c836a06233681665,64dc7c4379bf61fd77441185,,,,,,,ctch,resources/DR.BMP,resources/DB.BMP,Door3,0.39453125,-0.024739583,1,0,0,1.5963,optionRight,70,3675,2,21,0,21,0,1,,,,,,,,,,,,,,,,,,,,,,,,,,,,,,,,,,,,,,,
,,,,,,,,2023-08-16_08h36.00.693,HF_wild_card,2022.2.4,Win32,59.81934558,5dccf219aa4314964f7461d9,64d2fd46c836a06233681665,64dc7c4379bf61fd77441185,,,,,,,decisionTrl,resources/DG.BMP,resources/DY.BMP,Door1,0.291666667,-0.091145833,1,0,0,2.9767,optionRight,30,3705,2,22,0,22,0,1,,,,,,,,,,,,,,,,,,,,,,,,,,,,,,,,,,,,,,,
,,,,,,,,2023-08-16_08h36.00.693,HF_wild_card,2022.2.4,Win32,59.81934558,5dccf219aa4314964f7461d9,64d2fd46c836a06233681665,64dc7c4379bf61fd77441185,,,,,,,decisionTrl,resources/DB.BMP,resources/DP.BMP,Door4,0.33984375,-0.015625,1,0,0,1.9597,optionRight,60,3765,2,23,0,23,0,1,,,,,,,,,,,,,,,,,,,,,,,,,,,,,,,,,,,,,,,
,,,,,,,,2023-08-16_08h36.00.693,HF_wild_card,2022.2.4,Win32,59.81934558,5dccf219aa4314964f7461d9,64d2fd46c836a06233681665,64dc7c4379bf61fd77441185,,,,,,,sngl,resources/DG.BMP,resources/Empty.png,WildCard_NonEx,-0.373697917,0.006510417,1,0,0,0.7097,optionLeft,55,3820,2,24,0,24,0,1,,,,,,,,,,,,,,,,,,,,,,,,,,,,,,,,,,,,,,,
,,,,,,,,2023-08-16_08h36.00.693,HF_wild_card,2022.2.4,Win32,59.81934558,5dccf219aa4314964f7461d9,64d2fd46c836a06233681665,64dc7c4379bf61fd77441185,,,,,,,decisionTrl,resources/DR.BMP,resources/DY.BMP,Door1,0.385416667,0.018229167,1,0,0,2.011,optionRight,30,3850,2,25,0,25,0,1,,,,,,,,,,,,,,,,,,,,,,,,,,,,,,,,,,,,,,,
,,,,,,,,2023-08-16_08h36.00.693,HF_wild_card,2022.2.4,Win32,59.81934558,5dccf219aa4314964f7461d9,64d2fd46c836a06233681665,64dc7c4379bf61fd77441185,,,,,,,decisionTrl,resources/DG.BMP,resources/DB.BMP,Door3,0.333333333,0.009114583,1,0,0,1.1272,optionRight,70,3920,2,26,0,26,0,1,,,,,,,,,,,,,,,,,,,,,,,,,,,,,,,,,,,,,,,
,,,,,,,,2023-08-16_08h36.00.693,HF_wild_card,2022.2.4,Win32,59.81934558,5dccf219aa4314964f7461d9,64d2fd46c836a06233681665,64dc7c4379bf61fd77441185,,,,,,,sngl,resources/Empty.png,resources/DG.BMP,WildCard_NonEx,0.43359375,-0.055989583,1,0,0,0.774,optionRight,55,3975,2,27,0,27,0,1,,,,,,,,,,,,,,,,,,,,,,,,,,,,,,,,,,,,,,,
,,,,,,,,2023-08-16_08h36.00.693,HF_wild_card,2022.2.4,Win32,59.81934558,5dccf219aa4314964f7461d9,64d2fd46c836a06233681665,64dc7c4379bf61fd77441185,,,,,,,decisionTrl,resources/DB.BMP,resources/DP.BMP,Door4,0.266927083,-0.0078125,1,0,0,1.5594,optionRight,60,4035,2,28,0,28,0,1,,,,,,,,,,,,,,,,,,,,,,,,,,,,,,,,,,,,,,,
,,,,,,,,2023-08-16_08h36.00.693,HF_wild_card,2022.2.4,Win32,59.81934558,5dccf219aa4314964f7461d9,64d2fd46c836a06233681665,64dc7c4379bf61fd77441185,,,,,,,sngl,resources/Empty.png,resources/DY.BMP,Door1,0.3359375,0.05078125,1,0,0,0.7618,optionRight,30,4065,2,29,0,29,0,1,,,,,,,,,,,,,,,,,,,,,,,,,,,,,,,,,,,,,,,
,,,,,,,,2023-08-16_08h36.00.693,HF_wild_card,2022.2.4,Win32,59.81934558,5dccf219aa4314964f7461d9,64d2fd46c836a06233681665,64dc7c4379bf61fd77441185,,,,,,,sngl,resources/Empty.png,resources/DG.BMP,WildCard_NonEx,0.350260417,-0.00390625,1,0,0,0.7431,optionRight,45,4110,2,30,0,30,0,1,,,,,,,,,,,,,,,,,,,,,,,,,,,,,,,,,,,,,,,
,,,,,,,,2023-08-16_08h36.00.693,HF_wild_card,2022.2.4,Win32,59.81934558,5dccf219aa4314964f7461d9,64d2fd46c836a06233681665,64dc7c4379bf61fd77441185,,,,,,,decisionTrl,resources/DB.BMP,resources/DP.BMP,Door4,0.399739583,0.014322917,1,0,0,1.0443,optionRight,80,4190,2,31,0,31,0,1,,,,,,,,,,,,,,,,,,,,,,,,,,,,,,,,,,,,,,,
,,,,,,,,2023-08-16_08h36.00.693,HF_wild_card,2022.2.4,Win32,59.81934558,5dccf219aa4314964f7461d9,64d2fd46c836a06233681665,64dc7c4379bf61fd77441185,,,,,,,ctch,resources/DY.BMP,resources/DP.BMP,Door4,0.359375,0.033854167,1,0,0,0.9098,optionRight,80,4270,2,32,0,32,0,1,,,,,,,,,,,,,,,,,,,,,,,,,,,,,,,,,,,,,,,
,,,,,,,,2023-08-16_08h36.00.693,HF_wild_card,2022.2.4,Win32,59.81934558,5dccf219aa4314964f7461d9,64d2fd46c836a06233681665,64dc7c4379bf61fd77441185,,,,,,,decisionTrl,resources/DP.BMP,resources/DG.BMP,Door4,-0.30078125,-0.010416667,1,0,0,1.1581,optionLeft,60,4330,2,33,0,33,0,1,,,,,,,,,,,,,,,,,,,,,,,,,,,,,,,,,,,,,,,
,,,,,,,,2023-08-16_08h36.00.693,HF_wild_card,2022.2.4,Win32,59.81934558,5dccf219aa4314964f7461d9,64d2fd46c836a06233681665,64dc7c4379bf61fd77441185,,,,,,,decisionTrl,resources/DG.BMP,resources/DR.BMP,WildCard_NonEx,-0.39453125,0.03125,1,0,0,1.3926,optionLeft,55,4385,2,34,0,34,0,1,,,,,,,,,,,,,,,,,,,,,,,,,,,,,,,,,,,,,,,
,,,,,,,,2023-08-16_08h36.00.693,HF_wild_card,2022.2.4,Win32,59.81934558,5dccf219aa4314964f7461d9,64d2fd46c836a06233681665,64dc7c4379bf61fd77441185,,,,,,,decisionTrl,resources/DY.BMP,resources/DR.BMP,Door1,-0.264322917,0.013020833,1,0,0,1.3935,optionLeft,30,4415,2,35,0,35,0,1,,,,,,,,,,,,,,,,,,,,,,,,,,,,,,,,,,,,,,,
,,,,,,,,2023-08-16_08h36.00.693,HF_wild_card,2022.2.4,Win32,59.81934558,5dccf219aa4314964f7461d9,64d2fd46c836a06233681665,64dc7c4379bf61fd77441185,,,,,,,ctch,resources/DP.BMP,resources/DY.BMP,Door4,-0.376302083,0.010416667,1,0,0,0.8924,optionLeft,80,4495,2,36,0,36,0,1,,,,,,,,,,,,,,,,,,,,,,,,,,,,,,,,,,,,,,,
,,,,,,,,2023-08-16_08h36.00.693,HF_wild_card,2022.2.4,Win32,59.81934558,5dccf219aa4314964f7461d9,64d2fd46c836a06233681665,64dc7c4379bf61fd77441185,,,,,,,decisionTrl,resources/DR.BMP,resources/DG.BMP,WildCard_NonEx,0.46875,-0.001302083,1,0,0,1.6936,optionRight,55,4550,2,37,0,37,0,1,,,,,,,,,,,,,,,,,,,,,,,,,,,,,,,,,,,,,,,
,,,,,,,,2023-08-16_08h36.00.693,HF_wild_card,2022.2.4,Win32,59.81934558,5dccf219aa4314964f7461d9,64d2fd46c836a06233681665,64dc7c4379bf61fd77441185,,,,,,,decisionTrl,resources/DY.BMP,resources/DG.BMP,WildCard_NonEx,0.384114583,-0.01171875,1,0,0,1.344,optionRight,55,4605,2,38,0,38,0,1,,,,,,,,,,,,,,,,,,,,,,,,,,,,,,,,,,,,,,,
,,,,,,,,2023-08-16_08h36.00.693,HF_wild_card,2022.2.4,Win32,59.81934558,5dccf219aa4314964f7461d9,64d2fd46c836a06233681665,64dc7c4379bf61fd77441185,,,,,,,ctch,resources/DB.BMP,resources/DR.BMP,Door3,-0.434895833,0.018229167,1,0,0,0.7937,optionLeft,70,4675,2,39,0,39,0,1,,,,,,,,,,,,,,,,,,,,,,,,,,,,,,,,,,,,,,,
,,,,,,,,2023-08-16_08h36.00.693,HF_wild_card,2022.2.4,Win32,59.81934558,5dccf219aa4314964f7461d9,64d2fd46c836a06233681665,64dc7c4379bf61fd77441185,,,,,,,decisionTrl,resources/DB.BMP,resources/DP.BMP,Door4,0.442708333,-0.03125,1,0,0,0.7761,optionRight,80,4755,2,40,0,40,0,1,,,,,,,,,,,,,,,,,,,,,,,,,,,,,,,,,,,,,,,
,,,,,,,,2023-08-16_08h36.00.693,HF_wild_card,2022.2.4,Win32,59.81934558,5dccf219aa4314964f7461d9,64d2fd46c836a06233681665,64dc7c4379bf61fd77441185,,,,,,,decisionTrl,resources/DP.BMP,resources/DB.BMP,Door4,-0.434895833,0.020833333,1,0,0,0.7938,optionLeft,60,4815,2,41,0,41,0,1,,,,,,,,,,,,,,,,,,,,,,,,,,,,,,,,,,,,,,,
,,,,,,,,2023-08-16_08h36.00.693,HF_wild_card,2022.2.4,Win32,59.81934558,5dccf219aa4314964f7461d9,64d2fd46c836a06233681665,64dc7c4379bf61fd77441185,,,,,,,sngl,resources/DP.BMP,resources/Empty.png,Door4,-0.369791667,0.032552083,1,0,0,0.7778,optionLeft,60,4875,2,42,0,42,0,1,,,,,,,,,,,,,,,,,,,,,,,,,,,,,,,,,,,,,,,
,,,,,,,,2023-08-16_08h36.00.693,HF_wild_card,2022.2.4,Win32,59.81934558,5dccf219aa4314964f7461d9,64d2fd46c836a06233681665,64dc7c4379bf61fd77441185,,,,,,,sngl,resources/DB.BMP,resources/Empty.png,Door3,-0.37109375,-0.0078125,1,0,0,0.7256,optionLeft,70,4945,2,43,0,43,0,1,,,,,,,,,,,,,,,,,,,,,,,,,,,,,,,,,,,,,,,
,,,,,,,,2023-08-16_08h36.00.693,HF_wild_card,2022.2.4,Win32,59.81934558,5dccf219aa4314964f7461d9,64d2fd46c836a06233681665,64dc7c4379bf61fd77441185,,,,,,,,,,,,,,,,,,,,,,,,,,1,0,1,0,1,,,,,,,,,,,,,,,,,,,,,,,,,,,,,,,,,,
,,,,,,,,2023-08-16_08h36.00.693,HF_wild_card,2022.2.4,Win32,59.81934558,5dccf219aa4314964f7461d9,64d2fd46c836a06233681665,64dc7c4379bf61fd77441185,,,,,,,sngl,resources/DG.BMP,resources/Empty.png,WildCard_NonEx,-0.325520833,-0.0859375,1,0,0,0.9266,optionLeft,45,4990,3,0,0,0,0,1,,,,,,,,,,,,,,,,,,,,,,,,,,,,,,,,,,,,,,,
,,,,,,,,2023-08-16_08h36.00.693,HF_wild_card,2022.2.4,Win32,59.81934558,5dccf219aa4314964f7461d9,64d2fd46c836a06233681665,64dc7c4379bf61fd77441185,,,,,,,decisionTrl,resources/DB.BMP,resources/DG.BMP,Door3,-0.423177083,0.055989583,1,0,0,1.0662,optionLeft,70,5060,3,1,0,1,0,1,,,,,,,,,,,,,,,,,,,,,,,,,,,,,,,,,,,,,,,
,,,,,,,,2023-08-16_08h36.00.693,HF_wild_card,2022.2.4,Win32,59.81934558,5dccf219aa4314964f7461d9,64d2fd46c836a06233681665,64dc7c4379bf61fd77441185,,,,,,,ctch,resources/DY.BMP,resources/DP.BMP,Door4,0.490885417,-0.020833333,1,0,0,0.8922,optionRight,60,5120,3,2,0,2,0,1,,,,,,,,,,,,,,,,,,,,,,,,,,,,,,,,,,,,,,,
,,,,,,,,2023-08-16_08h36.00.693,HF_wild_card,2022.2.4,Win32,59.81934558,5dccf219aa4314964f7461d9,64d2fd46c836a06233681665,64dc7c4379bf61fd77441185,,,,,,,ctch,resources/DB.BMP,resources/DR.BMP,Door3,-0.408854167,0.045572917,1,0,0,0.8421,optionLeft,70,5190,3,3,0,3,0,1,,,,,,,,,,,,,,,,,,,,,,,,,,,,,,,,,,,,,,,
,,,,,,,,2023-08-16_08h36.00.693,HF_wild_card,2022.2.4,Win32,59.81934558,5dccf219aa4314964f7461d9,64d2fd46c836a06233681665,64dc7c4379bf61fd77441185,,,,,,,decisionTrl,resources/DR.BMP,resources/DG.BMP,WildCard_NonEx,0.44921875,0.0234375,1,0,0,1.5273,optionRight,55,5245,3,4,0,4,0,1,,,,,,,,,,,,,,,,,,,,,,,,,,,,,,,,,,,,,,,
,,,,,,,,2023-08-16_08h36.00.693,HF_wild_card,2022.2.4,Win32,59.81934558,5dccf219aa4314964f7461d9,64d2fd46c836a06233681665,64dc7c4379bf61fd77441185,,,,,,,sngl,resources/Empty.png,resources/DG.BMP,WildCard_NonEx,0.36328125,-0.013020833,1,0,0,0.744,optionRight,45,5290,3,5,0,5,0,1,,,,,,,,,,,,,,,,,,,,,,,,,,,,,,,,,,,,,,,
,,,,,,,,2023-08-16_08h36.00.693,HF_wild_card,2022.2.4,Win32,59.81934558,5dccf219aa4314964f7461d9,64d2fd46c836a06233681665,64dc7c4379bf61fd77441185,,,,,,,decisionTrl,resources/DG.BMP,resources/DR.BMP,WildCard_NonEx,-0.38671875,0.055989583,1,0,0,0.7767,optionLeft,45,5335,3,6,0,6,0,1,,,,,,,,,,,,,,,,,,,,,,,,,,,,,,,,,,,,,,,
,,,,,,,,2023-08-16_08h36.00.693,HF_wild_card,2022.2.4,Win32,59.81934558,5dccf219aa4314964f7461d9,64d2fd46c836a06233681665,64dc7c4379bf61fd77441185,,,,,,,sngl,resources/Empty.png,resources/DB.BMP,Door3,0.403645833,-0.045572917,1,0,0,0.7098,optionRight,70,5405,3,7,0,7,0,1,,,,,,,,,,,,,,,,,,,,,,,,,,,,,,,,,,,,,,,
,,,,,,,,2023-08-16_08h36.00.693,HF_wild_card,2022.2.4,Win32,59.81934558,5dccf219aa4314964f7461d9,64d2fd46c836a06233681665,64dc7c4379bf61fd77441185,,,,,,,decisionTrl,resources/DP.BMP,resources/DB.BMP,Door4,-0.270833333,-0.001302083,1,0,0,1.1931,optionLeft,80,5485,3,8,0,8,0,1,,,,,,,,,,,,,,,,,,,,,,,,,,,,,,,,,,,,,,,
,,,,,,,,2023-08-16_08h36.00.693,HF_wild_card,2022.2.4,Win32,59.81934558,5dccf219aa4314964f7461d9,64d2fd46c836a06233681665,64dc7c4379bf61fd77441185,,,,,,,decisionTrl,resources/DR.BMP,resources/DY.BMP,Door1,0.415364583,0.0078125,1,0,0,2.2611,optionRight,30,5515,3,9,0,9,0,1,,,,,,,,,,,,,,,,,,,,,,,,,,,,,,,,,,,,,,,
,,,,,,,,2023-08-16_08h36.00.693,HF_wild_card,2022.2.4,Win32,59.81934558,5dccf219aa4314964f7461d9,64d2fd46c836a06233681665,64dc7c4379bf61fd77441185,,,,,,,decisionTrl,resources/DP.BMP,resources/DG.BMP,Door4,-0.45703125,0.032552083,1,0,0,0.9597,optionLeft,60,5575,3,10,0,10,0,1,,,,,,,,,,,,,,,,,,,,,,,,,,,,,,,,,,,,,,,
,,,,,,,,2023-08-16_08h36.00.693,HF_wild_card,2022.2.4,Win32,59.81934558,5dccf219aa4314964f7461d9,64d2fd46c836a06233681665,64dc7c4379bf61fd77441185,,,,,,,decisionTrl,resources/DY.BMP,resources/DR.BMP,Door1,-0.29296875,0.010416667,1,0,0,1.5068,optionLeft,30,5605,3,11,0,11,0,1,,,,,,,,,,,,,,,,,,,,,,,,,,,,,,,,,,,,,,,
,,,,,,,,2023-08-16_08h36.00.693,HF_wild_card,2022.2.4,Win32,59.81934558,5dccf219aa4314964f7461d9,64d2fd46c836a06233681665,64dc7c4379bf61fd77441185,,,,,,,decisionTrl,resources/DG.BMP,resources/DP.BMP,Door4,0.358072917,-0.026041667,1,0,0,0.877,optionRight,60,5665,3,12,0,12,0,1,,,,,,,,,,,,,,,,,,,,,,,,,,,,,,,,,,,,,,,
,,,,,,,,2023-08-16_08h36.00.693,HF_wild_card,2022.2.4,Win32,59.81934558,5dccf219aa4314964f7461d9,64d2fd46c836a06233681665,64dc7c4379bf61fd77441185,,,,,,,decisionTrl,resources/DG.BMP,resources/DB.BMP,Door3,0.28125,0.01953125,1,0,0,0.8929,optionRight,70,5735,3,13,0,13,0,1,,,,,,,,,,,,,,,,,,,,,,,,,,,,,,,,,,,,,,,
,,,,,,,,2023-08-16_08h36.00.693,HF_wild_card,2022.2.4,Win32,59.81934558,5dccf219aa4314964f7461d9,64d2fd46c836a06233681665,64dc7c4379bf61fd77441185,,,,,,,decisionTrl,resources/DR.BMP,resources/DY.BMP,Door1,0.282552083,-0.01953125,1,0,0,1.6109,optionRight,30,5765,3,14,0,14,0,1,,,,,,,,,,,,,,,,,,,,,,,,,,,,,,,,,,,,,,,
,,,,,,,,2023-08-16_08h36.00.693,HF_wild_card,2022.2.4,Win32,59.81934558,5dccf219aa4314964f7461d9,64d2fd46c836a06233681665,64dc7c4379bf61fd77441185,,,,,,,decisionTrl,resources/DY.BMP,resources/DR.BMP,Door1,-0.368489583,0.044270833,1,0,0,0.9439,optionLeft,30,5795,3,15,0,15,0,1,,,,,,,,,,,,,,,,,,,,,,,,,,,,,,,,,,,,,,,
,,,,,,,,2023-08-16_08h36.00.693,HF_wild_card,2022.2.4,Win32,59.81934558,5dccf219aa4314964f7461d9,64d2fd46c836a06233681665,64dc7c4379bf61fd77441185,,,,,,,decisionTrl,resources/DY.BMP,resources/DG.BMP,WildCard_NonEx,0.506510417,-0.045572917,1,0,0,0.8771,optionRight,45,5840,3,16,0,16,0,1,,,,,,,,,,,,,,,,,,,,,,,,,,,,,,,,,,,,,,,
,,,,,,,,2023-08-16_08h36.00.693,HF_wild_card,2022.2.4,Win32,59.81934558,5dccf219aa4314964f7461d9,64d2fd46c836a06233681665,64dc7c4379bf61fd77441185,,,,,,,decisionTrl,resources/DR.BMP,resources/DY.BMP,Door1,0.337239583,0.00390625,1,0,0,1.1762,optionRight,30,5870,3,17,0,17,0,1,,,,,,,,,,,,,,,,,,,,,,,,,,,,,,,,,,,,,,,
,,,,,,,,2023-08-16_08h36.00.693,HF_wild_card,2022.2.4,Win32,59.81934558,5dccf219aa4314964f7461d9,64d2fd46c836a06233681665,64dc7c4379bf61fd77441185,,,,,,,sngl,resources/Empty.png,resources/DP.BMP,Door4,0.369791667,-0.037760417,1,0,0,0.7603,optionRight,60,5930,3,18,0,18,0,1,,,,,,,,,,,,,,,,,,,,,,,,,,,,,,,,,,,,,,,
,,,,,,,,2023-08-16_08h36.00.693,HF_wild_card,2022.2.4,Win32,59.81934558,5dccf219aa4314964f7461d9,64d2fd46c836a06233681665,64dc7c4379bf61fd77441185,,,,,,,decisionTrl,resources/DY.BMP,resources/DR.BMP,Door2,0.3515625,0.01953125,1,0,0,1.3266,optionRight,20,5950,3,19,0,19,0,1,,,,,,,,,,,,,,,,,,,,,,,,,,,,,,,,,,,,,,,
,,,,,,,,2023-08-16_08h36.00.693,HF_wild_card,2022.2.4,Win32,59.81934558,5dccf219aa4314964f7461d9,64d2fd46c836a06233681665,64dc7c4379bf61fd77441185,,,,,,,ctch,resources/DR.BMP,resources/DB.BMP,Door3,0.329427083,0.001302083,1,0,0,0.9622,optionRight,70,6020,3,20,0,20,0,1,,,,,,,,,,,,,,,,,,,,,,,,,,,,,,,,,,,,,,,
,,,,,,,,2023-08-16_08h36.00.693,HF_wild_card,2022.2.4,Win32,59.81934558,5dccf219aa4314964f7461d9,64d2fd46c836a06233681665,64dc7c4379bf61fd77441185,,,,,,,decisionTrl,resources/DY.BMP,resources/DR.BMP,Door1,-0.38671875,0.01171875,1,0,0,1.0608,optionLeft,30,6050,3,21,0,21,0,1,,,,,,,,,,,,,,,,,,,,,,,,,,,,,,,,,,,,,,,
,,,,,,,,2023-08-16_08h36.00.693,HF_wild_card,2022.2.4,Win32,59.81934558,5dccf219aa4314964f7461d9,64d2fd46c836a06233681665,64dc7c4379bf61fd77441185,,,,,,,decisionTrl,resources/DP.BMP,resources/DB.BMP,Door4,-0.375,0.02734375,1,0,0,0.9592,optionLeft,60,6110,3,22,0,22,0,1,,,,,,,,,,,,,,,,,,,,,,,,,,,,,,,,,,,,,,,
,,,,,,,,2023-08-16_08h36.00.693,HF_wild_card,2022.2.4,Win32,59.81934558,5dccf219aa4314964f7461d9,64d2fd46c836a06233681665,64dc7c4379bf61fd77441185,,,,,,,sngl,resources/DR.BMP,resources/Empty.png,Door2,-0.36328125,0.05078125,1,0,0,0.7438,optionLeft,40,6150,3,23,0,23,0,1,,,,,,,,,,,,,,,,,,,,,,,,,,,,,,,,,,,,,,,
,,,,,,,,2023-08-16_08h36.00.693,HF_wild_card,2022.2.4,Win32,59.81934558,5dccf219aa4314964f7461d9,64d2fd46c836a06233681665,64dc7c4379bf61fd77441185,,,,,,,ctch,resources/DP.BMP,resources/DY.BMP,Door4,-0.434895833,-0.009114583,1,0,0,0.9606,optionLeft,60,6210,3,24,0,24,0,1,,,,,,,,,,,,,,,,,,,,,,,,,,,,,,,,,,,,,,,
,,,,,,,,2023-08-16_08h36.00.693,HF_wild_card,2022.2.4,Win32,59.81934558,5dccf219aa4314964f7461d9,64d2fd46c836a06233681665,64dc7c4379bf61fd77441185,,,,,,,decisionTrl,resources/DB.BMP,resources/DP.BMP,Door4,0.32421875,-0.002604167,1,0,0,0.9767,optionRight,80,6290,3,25,0,25,0,1,,,,,,,,,,,,,,,,,,,,,,,,,,,,,,,,,,,,,,,
,,,,,,,,2023-08-16_08h36.00.693,HF_wild_card,2022.2.4,Win32,59.81934558,5dccf219aa4314964f7461d9,64d2fd46c836a06233681665,64dc7c4379bf61fd77441185,,,,,,,sngl,resources/DP.BMP,resources/Empty.png,Door4,-0.42578125,0.009114583,1,0,0,0.6929,optionLeft,80,6370,3,26,0,26,0,1,,,,,,,,,,,,,,,,,,,,,,,,,,,,,,,,,,,,,,,
,,,,,,,,2023-08-16_08h36.00.693,HF_wild_card,2022.2.4,Win32,59.81934558,5dccf219aa4314964f7461d9,64d2fd46c836a06233681665,64dc7c4379bf61fd77441185,,,,,,,decisionTrl,resources/DB.BMP,resources/DP.BMP,Door4,0.377604167,-0.010416667,1,0,0,0.7349,optionRight,60,6430,3,27,0,27,0,1,,,,,,,,,,,,,,,,,,,,,,,,,,,,,,,,,,,,,,,
,,,,,,,,2023-08-16_08h36.00.693,HF_wild_card,2022.2.4,Win32,59.81934558,5dccf219aa4314964f7461d9,64d2fd46c836a06233681665,64dc7c4379bf61fd77441185,,,,,,,ctch,resources/DY.BMP,resources/DP.BMP,Door4,0.32421875,-0.03125,1,0,0,0.7625,optionRight,60,6490,3,28,0,28,0,1,,,,,,,,,,,,,,,,,,,,,,,,,,,,,,,,,,,,,,,
,,,,,,,,2023-08-16_08h36.00.693,HF_wild_card,2022.2.4,Win32,59.81934558,5dccf219aa4314964f7461d9,64d2fd46c836a06233681665,64dc7c4379bf61fd77441185,,,,,,,ctch,resources/DB.BMP,resources/DR.BMP,Door3,-0.326822917,0.00390625,1,0,0,0.7625,optionLeft,70,6560,3,29,0,29,0,1,,,,,,,,,,,,,,,,,,,,,,,,,,,,,,,,,,,,,,,
,,,,,,,,2023-08-16_08h36.00.693,HF_wild_card,2022.2.4,Win32,59.81934558,5dccf219aa4314964f7461d9,64d2fd46c836a06233681665,64dc7c4379bf61fd77441185,,,,,,,decisionTrl,resources/DB.BMP,resources/DP.BMP,Door3,-0.354166667,0.016927083,1,0,0,1.0938,optionLeft,70,6630,3,30,0,30,0,1,,,,,,,,,,,,,,,,,,,,,,,,,,,,,,,,,,,,,,,
,,,,,,,,2023-08-16_08h36.00.693,HF_wild_card,2022.2.4,Win32,59.81934558,5dccf219aa4314964f7461d9,64d2fd46c836a06233681665,64dc7c4379bf61fd77441185,,,,,,,decisionTrl,resources/DP.BMP,resources/DB.BMP,Door4,-0.403645833,0.022135417,1,0,0,0.8937,optionLeft,60,6690,3,31,0,31,0,1,,,,,,,,,,,,,,,,,,,,,,,,,,,,,,,,,,,,,,,
,,,,,,,,2023-08-16_08h36.00.693,HF_wild_card,2022.2.4,Win32,59.81934558,5dccf219aa4314964f7461d9,64d2fd46c836a06233681665,64dc7c4379bf61fd77441185,,,,,,,sngl,resources/Empty.png,resources/DR.BMP,Door2,0.4140625,0.002604167,1,0,0,0.6948,optionRight,20,6710,3,32,0,32,0,1,,,,,,,,,,,,,,,,,,,,,,,,,,,,,,,,,,,,,,,
,,,,,,,,2023-08-16_08h36.00.693,HF_wild_card,2022.2.4,Win32,59.81934558,5dccf219aa4314964f7461d9,64d2fd46c836a06233681665,64dc7c4379bf61fd77441185,,,,,,,ctch,resources/DP.BMP,resources/DY.BMP,Door4,-0.416666667,-0.01171875,1,0,0,0.6613,optionLeft,80,6790,3,33,0,33,0,1,,,,,,,,,,,,,,,,,,,,,,,,,,,,,,,,,,,,,,,
,,,,,,,,2023-08-16_08h36.00.693,HF_wild_card,2022.2.4,Win32,59.81934558,5dccf219aa4314964f7461d9,64d2fd46c836a06233681665,64dc7c4379bf61fd77441185,,,,,,,sngl,resources/DY.BMP,resources/Empty.png,Door1,-0.309895833,0.016927083,1,0,0,0.6934,optionLeft,30,6820,3,34,0,34,0,1,,,,,,,,,,,,,,,,,,,,,,,,,,,,,,,,,,,,,,,
,,,,,,,,2023-08-16_08h36.00.693,HF_wild_card,2022.2.4,Win32,59.81934558,5dccf219aa4314964f7461d9,64d2fd46c836a06233681665,64dc7c4379bf61fd77441185,,,,,,,sngl,resources/Empty.png,resources/DG.BMP,WildCard_NonEx,0.40625,-0.015625,1,0,0,0.7437,optionRight,55,6875,3,35,0,35,0,1,,,,,,,,,,,,,,,,,,,,,,,,,,,,,,,,,,,,,,,
,,,,,,,,2023-08-16_08h36.00.693,HF_wild_card,2022.2.4,Win32,59.81934558,5dccf219aa4314964f7461d9,64d2fd46c836a06233681665,64dc7c4379bf61fd77441185,,,,,,,sngl,resources/DB.BMP,resources/Empty.png,Door3,-0.372395833,0.037760417,1,0,0,0.6112,optionLeft,70,6945,3,36,0,36,0,1,,,,,,,,,,,,,,,,,,,,,,,,,,,,,,,,,,,,,,,
,,,,,,,,2023-08-16_08h36.00.693,HF_wild_card,2022.2.4,Win32,59.81934558,5dccf219aa4314964f7461d9,64d2fd46c836a06233681665,64dc7c4379bf61fd77441185,,,,,,,decisionTrl,resources/DR.BMP,resources/DY.BMP,Door1,0.372395833,-0.022135417,1,0,0,1.4266,optionRight,30,6975,3,37,0,37,0,1,,,,,,,,,,,,,,,,,,,,,,,,,,,,,,,,,,,,,,,
,,,,,,,,2023-08-16_08h36.00.693,HF_wild_card,2022.2.4,Win32,59.81934558,5dccf219aa4314964f7461d9,64d2fd46c836a06233681665,64dc7c4379bf61fd77441185,,,,,,,sngl,resources/Empty.png,resources/DY.BMP,Door1,0.309895833,0.016927083,1,0,0,0.7777,optionRight,30,7005,3,38,0,38,0,1,,,,,,,,,,,,,,,,,,,,,,,,,,,,,,,,,,,,,,,
,,,,,,,,2023-08-16_08h36.00.693,HF_wild_card,2022.2.4,Win32,59.81934558,5dccf219aa4314964f7461d9,64d2fd46c836a06233681665,64dc7c4379bf61fd77441185,,,,,,,decisionTrl,resources/DG.BMP,resources/DY.BMP,WildCard_NonEx,-0.365885417,0.024739583,1,0,0,1.2108,optionLeft,45,7050,3,39,0,39,0,1,,,,,,,,,,,,,,,,,,,,,,,,,,,,,,,,,,,,,,,
,,,,,,,,2023-08-16_08h36.00.693,HF_wild_card,2022.2.4,Win32,59.81934558,5dccf219aa4314964f7461d9,64d2fd46c836a06233681665,64dc7c4379bf61fd77441185,,,,,,,ctch,resources/DR.BMP,resources/DB.BMP,Door3,0.328125,-0.0234375,1,0,0,0.9764,optionRight,70,7120,3,40,0,40,0,1,,,,,,,,,,,,,,,,,,,,,,,,,,,,,,,,,,,,,,,
,,,,,,,,2023-08-16_08h36.00.693,HF_wild_card,2022.2.4,Win32,59.81934558,5dccf219aa4314964f7461d9,64d2fd46c836a06233681665,64dc7c4379bf61fd77441185,,,,,,,decisionTrl,resources/DB.BMP,resources/DP.BMP,Door4,0.328125,-0.0234375,1,0,0,1.0941,optionRight,60,7180,3,41,0,41,0,1,,,,,,,,,,,,,,,,,,,,,,,,,,,,,,,,,,,,,,,
,,,,,,,,2023-08-16_08h36.00.693,HF_wild_card,2022.2.4,Win32,59.81934558,5dccf219aa4314964f7461d9,64d2fd46c836a06233681665,64dc7c4379bf61fd77441185,,,,,,,sngl,resources/DG.BMP,resources/Empty.png,WildCard_NonEx,-0.321614583,0.044270833,1,0,0,0.695,optionLeft,55,7235,3,42,0,42,0,1,,,,,,,,,,,,,,,,,,,,,,,,,,,,,,,,,,,,,,,
,,,,,,,,2023-08-16_08h36.00.693,HF_wild_card,2022.2.4,Win32,59.81934558,5dccf219aa4314964f7461d9,64d2fd46c836a06233681665,64dc7c4379bf61fd77441185,,,,,,,decisionTrl,resources/DP.BMP,resources/DB.BMP,Door4,-0.399739583,0.013020833,1,0,0,0.8261,optionLeft,60,7295,3,43,0,43,0,1,,,,,,,,,,,,,,,,,,,,,,,,,,,,,,,,,,,,,,,
,,,,,,,,2023-08-16_08h36.00.693,HF_wild_card,2022.2.4,Win32,59.81934558,5dccf219aa4314964f7461d9,64d2fd46c836a06233681665,64dc7c4379bf61fd77441185,,,,,,,,,,,,,,,,,,,,,,,,,,2,0,2,0,1,,,,,,,,,,,,,,,,,,,,,,,,,,,,,,,,,,
,,,,,,,,2023-08-16_08h36.00.693,HF_wild_card,2022.2.4,Win32,59.81934558,5dccf219aa4314964f7461d9,64d2fd46c836a06233681665,64dc7c4379bf61fd77441185,,,,,,,sngl,resources/Empty.png,resources/DR.BMP,Door2,0.430989583,-0.177083333,1,0,0,0.7925,optionRight,40,7335,4,0,0,0,0,1,,,,,,,,,,,,,,,,,,,,,,,,,,,,,,,,,,,,,,,
,,,,,,,,2023-08-16_08h36.00.693,HF_wild_card,2022.2.4,Win32,59.81934558,5dccf219aa4314964f7461d9,64d2fd46c836a06233681665,64dc7c4379bf61fd77441185,,,,,,,sngl,resources/Empty.png,resources/DY.BMP,Door1,0.368489583,-0.040364583,1,0,0,0.7765,optionRight,30,7365,4,1,0,1,0,1,,,,,,,,,,,,,,,,,,,,,,,,,,,,,,,,,,,,,,,
,,,,,,,,2023-08-16_08h36.00.693,HF_wild_card,2022.2.4,Win32,59.81934558,5dccf219aa4314964f7461d9,64d2fd46c836a06233681665,64dc7c4379bf61fd77441185,,,,,,,decisionTrl,resources/DP.BMP,resources/DB.BMP,Door3,0.43359375,0.016927083,1,0,0,1.5599,optionRight,70,7435,4,2,0,2,0,1,,,,,,,,,,,,,,,,,,,,,,,,,,,,,,,,,,,,,,,
,,,,,,,,2023-08-16_08h36.00.693,HF_wild_card,2022.2.4,Win32,59.81934558,5dccf219aa4314964f7461d9,64d2fd46c836a06233681665,64dc7c4379bf61fd77441185,,,,,,,decisionTrl,resources/DP.BMP,resources/DBN.BMP,Door4,-0.4296875,0.033854167,1,0,0,0.7431,optionLeft,80,7515,4,3,0,3,0,1,,,,,,,,,,,,,,,,,,,,,,,,,,,,,,,,,,,,,,,
,,,,,,,,2023-08-16_08h36.00.693,HF_wild_card,2022.2.4,Win32,59.81934558,5dccf219aa4314964f7461d9,64d2fd46c836a06233681665,64dc7c4379bf61fd77441185,,,,,,,sngl,resources/DB.BMP,resources/Empty.png,Door3,-0.368489583,0.026041667,1,0,0,0.8302,optionLeft,70,7585,4,4,0,4,0,1,,,,,,,,,,,,,,,,,,,,,,,,,,,,,,,,,,,,,,,
,,,,,,,,2023-08-16_08h36.00.693,HF_wild_card,2022.2.4,Win32,59.81934558,5dccf219aa4314964f7461d9,64d2fd46c836a06233681665,64dc7c4379bf61fd77441185,,,,,,,decisionTrl,resources/DP.BMP,resources/DB.BMP,Door4,-0.393229167,0.01953125,1,0,0,1.6455,optionLeft,60,7645,4,5,0,5,0,1,,,,,,,,,,,,,,,,,,,,,,,,,,,,,,,,,,,,,,,
,,,,,,,,2023-08-16_08h36.00.693,HF_wild_card,2022.2.4,Win32,59.81934558,5dccf219aa4314964f7461d9,64d2fd46c836a06233681665,64dc7c4379bf61fd77441185,,,,,,,decisionTrl,resources/DP.BMP,resources/DB.BMP,Door3,0.419270833,-0.033854167,1,0,0,0.8518,optionRight,70,7715,4,6,0,6,0,1,,,,,,,,,,,,,,,,,,,,,,,,,,,,,,,,,,,,,,,
,,,,,,,,2023-08-16_08h36.00.693,HF_wild_card,2022.2.4,Win32,59.81934558,5dccf219aa4314964f7461d9,64d2fd46c836a06233681665,64dc7c4379bf61fd77441185,,,,,,,decisionTrl,resources/DR.BMP,resources/DY.BMP,Door1,0.298177083,-0.032552083,1,0,0,2.1746,optionRight,30,7745,4,7,0,7,0,1,,,,,,,,,,,,,,,,,,,,,,,,,,,,,,,,,,,,,,,
,,,,,,,,2023-08-16_08h36.00.693,HF_wild_card,2022.2.4,Win32,59.81934558,5dccf219aa4314964f7461d9,64d2fd46c836a06233681665,64dc7c4379bf61fd77441185,,,,,,,decisionTrl,resources/DY.BMP,resources/DR.BMP,Door1,-0.287760417,0.020833333,1,0,0,1.1095,optionLeft,30,7775,4,8,0,8,0,1,,,,,,,,,,,,,,,,,,,,,,,,,,,,,,,,,,,,,,,
,,,,,,,,2023-08-16_08h36.00.693,HF_wild_card,2022.2.4,Win32,59.81934558,5dccf219aa4314964f7461d9,64d2fd46c836a06233681665,64dc7c4379bf61fd77441185,,,,,,,ctch,resources/DB.BMP,resources/DR.BMP,Door3,-0.38671875,0.006510417,1,0,0,1.0433,optionLeft,70,7845,4,9,0,9,0,1,,,,,,,,,,,,,,,,,,,,,,,,,,,,,,,,,,,,,,,
,,,,,,,,2023-08-16_08h36.00.693,HF_wild_card,2022.2.4,Win32,59.81934558,5dccf219aa4314964f7461d9,64d2fd46c836a06233681665,64dc7c4379bf61fd77441185,,,,,,,decisionTrl,resources/DR.BMP,resources/DBN.BMP,WildCard_Ex,0.412760417,0.0234375,1,0,0,1.6105,optionRight,5,7850,4,10,0,10,0,1,,,,,,,,,,,,,,,,,,,,,,,,,,,,,,,,,,,,,,,
,,,,,,,,2023-08-16_08h36.00.693,HF_wild_card,2022.2.4,Win32,59.81934558,5dccf219aa4314964f7461d9,64d2fd46c836a06233681665,64dc7c4379bf61fd77441185,,,,,,,sngl,resources/DY.BMP,resources/Empty.png,Door1,-0.372395833,0.02734375,1,0,0,0.7281,optionLeft,30,7880,4,11,0,11,0,1,,,,,,,,,,,,,,,,,,,,,,,,,,,,,,,,,,,,,,,
,,,,,,,,2023-08-16_08h36.00.693,HF_wild_card,2022.2.4,Win32,59.81934558,5dccf219aa4314964f7461d9,64d2fd46c836a06233681665,64dc7c4379bf61fd77441185,,,,,,,decisionTrl,resources/DR.BMP,resources/DY.BMP,Door1,0.358072917,0.002604167,1,0,0,1.5265,optionRight,30,7910,4,12,0,12,0,1,,,,,,,,,,,,,,,,,,,,,,,,,,,,,,,,,,,,,,,
,,,,,,,,2023-08-16_08h36.00.693,HF_wild_card,2022.2.4,Win32,59.81934558,5dccf219aa4314964f7461d9,64d2fd46c836a06233681665,64dc7c4379bf61fd77441185,,,,,,,ctch,resources/DB.BMP,resources/DR.BMP,Door3,-0.403645833,0.02734375,1,0,0,1.1768,optionLeft,70,7980,4,13,0,13,0,1,,,,,,,,,,,,,,,,,,,,,,,,,,,,,,,,,,,,,,,
,,,,,,,,2023-08-16_08h36.00.693,HF_wild_card,2022.2.4,Win32,59.81934558,5dccf219aa4314964f7461d9,64d2fd46c836a06233681665,64dc7c4379bf61fd77441185,,,,,,,decisionTrl,resources/DB.BMP,resources/DP.BMP,Door4,0.35546875,-0.005208333,1,0,0,1.1945,optionRight,60,8040,4,14,0,14,0,1,,,,,,,,,,,,,,,,,,,,,,,,,,,,,,,,,,,,,,,
,,,,,,,,2023-08-16_08h36.00.693,HF_wild_card,2022.2.4,Win32,59.81934558,5dccf219aa4314964f7461d9,64d2fd46c836a06233681665,64dc7c4379bf61fd77441185,,,,,,,decisionTrl,resources/DY.BMP,resources/DR.BMP,Door1,-0.3828125,0.052083333,1,0,0,1.6107,optionLeft,30,8070,4,15,0,15,0,1,,,,,,,,,,,,,,,,,,,,,,,,,,,,,,,,,,,,,,,
,,,,,,,,2023-08-16_08h36.00.693,HF_wild_card,2022.2.4,Win32,59.81934558,5dccf219aa4314964f7461d9,64d2fd46c836a06233681665,64dc7c4379bf61fd77441185,,,,,,,sngl,resources/Empty.png,resources/DBN.BMP,WildCard_Ex,0.329427083,0.0234375,1,0,0,1.3261,optionRight,95,8165,4,16,0,16,0,1,,,,,,,,,,,,,,,,,,,,,,,,,,,,,,,,,,,,,,,
,,,,,,,,2023-08-16_08h36.00.693,HF_wild_card,2022.2.4,Win32,59.81934558,5dccf219aa4314964f7461d9,64d2fd46c836a06233681665,64dc7c4379bf61fd77441185,,,,,,,sngl,resources/DP.BMP,resources/Empty.png,Door4,-0.373697917,0.010416667,1,0,0,0.7777,optionLeft,60,8225,4,17,0,17,0,1,,,,,,,,,,,,,,,,,,,,,,,,,,,,,,,,,,,,,,,
,,,,,,,,2023-08-16_08h36.00.693,HF_wild_card,2022.2.4,Win32,59.81934558,5dccf219aa4314964f7461d9,64d2fd46c836a06233681665,64dc7c4379bf61fd77441185,,,,,,,sngl,resources/DBN.BMP,resources/Empty.png,WildCard_Ex,-0.399739583,0.0546875,1,0,0,0.7591,optionLeft,5,8230,4,18,0,18,0,1,,,,,,,,,,,,,,,,,,,,,,,,,,,,,,,,,,,,,,,
,,,,,,,,2023-08-16_08h36.00.693,HF_wild_card,2022.2.4,Win32,59.81934558,5dccf219aa4314964f7461d9,64d2fd46c836a06233681665,64dc7c4379bf61fd77441185,,,,,,,decisionTrl,resources/DR.BMP,resources/DY.BMP,Door1,0.342447917,-0.0234375,1,0,0,1.977,optionRight,30,8260,4,19,0,19,0,1,,,,,,,,,,,,,,,,,,,,,,,,,,,,,,,,,,,,,,,
,,,,,,,,2023-08-16_08h36.00.693,HF_wild_card,2022.2.4,Win32,59.81934558,5dccf219aa4314964f7461d9,64d2fd46c836a06233681665,64dc7c4379bf61fd77441185,,,,,,,decisionTrl,resources/DB.BMP,resources/DP.BMP,Door3,-0.442708333,-0.005208333,1,0,0,0.9741,optionLeft,70,8330,4,20,0,20,0,1,,,,,,,,,,,,,,,,,,,,,,,,,,,,,,,,,,,,,,,
,,,,,,,,2023-08-16_08h36.00.693,HF_wild_card,2022.2.4,Win32,59.81934558,5dccf219aa4314964f7461d9,64d2fd46c836a06233681665,64dc7c4379bf61fd77441185,,,,,,,ctch,resources/DR.BMP,resources/DB.BMP,Door3,0.34765625,-0.04296875,1,0,0,1.7245,optionRight,70,8400,4,21,0,21,0,1,,,,,,,,,,,,,,,,,,,,,,,,,,,,,,,,,,,,,,,
,,,,,,,,2023-08-16_08h36.00.693,HF_wild_card,2022.2.4,Win32,59.81934558,5dccf219aa4314964f7461d9,64d2fd46c836a06233681665,64dc7c4379bf61fd77441185,,,,,,,ctch,resources/DP.BMP,resources/DY.BMP,Door4,-0.338541667,0.009114583,1,0,0,0.777,optionLeft,80,8480,4,22,0,22,0,1,,,,,,,,,,,,,,,,,,,,,,,,,,,,,,,,,,,,,,,
,,,,,,,,2023-08-16_08h36.00.693,HF_wild_card,2022.2.4,Win32,59.81934558,5dccf219aa4314964f7461d9,64d2fd46c836a06233681665,64dc7c4379bf61fd77441185,,,,,,,decisionTrl,resources/DBN.BMP,resources/DR.BMP,WildCard_Ex,-0.364583333,0.07421875,1,0,0,1.3764,optionLeft,95,8575,4,23,0,23,0,1,,,,,,,,,,,,,,,,,,,,,,,,,,,,,,,,,,,,,,,
,,,,,,,,2023-08-16_08h36.00.693,HF_wild_card,2022.2.4,Win32,59.81934558,5dccf219aa4314964f7461d9,64d2fd46c836a06233681665,64dc7c4379bf61fd77441185,,,,,,,decisionTrl,resources/DBN.BMP,resources/DP.BMP,Door4,0.341145833,0.061197917,1,0,0,1.6099,optionRight,60,8635,4,24,0,24,0,1,,,,,,,,,,,,,,,,,,,,,,,,,,,,,,,,,,,,,,,
,,,,,,,,2023-08-16_08h36.00.693,HF_wild_card,2022.2.4,Win32,59.81934558,5dccf219aa4314964f7461d9,64d2fd46c836a06233681665,64dc7c4379bf61fd77441185,,,,,,,ctch,resources/DR.BMP,resources/DB.BMP,Door3,0.346354167,-0.015625,1,0,0,0.9435,optionRight,70,8705,4,25,0,25,0,1,,,,,,,,,,,,,,,,,,,,,,,,,,,,,,,,,,,,,,,
,,,,,,,,2023-08-16_08h36.00.693,HF_wild_card,2022.2.4,Win32,59.81934558,5dccf219aa4314964f7461d9,64d2fd46c836a06233681665,64dc7c4379bf61fd77441185,,,,,,,decisionTrl,resources/DY.BMP,resources/DR.BMP,Door1,-0.4375,0.057291667,1,0,0,1.6268,optionLeft,30,8735,4,26,0,26,0,1,,,,,,,,,,,,,,,,,,,,,,,,,,,,,,,,,,,,,,,
,,,,,,,,2023-08-16_08h36.00.693,HF_wild_card,2022.2.4,Win32,59.81934558,5dccf219aa4314964f7461d9,64d2fd46c836a06233681665,64dc7c4379bf61fd77441185,,,,,,,sngl,resources/Empty.png,resources/DP.BMP,Door4,0.4296875,-0.057291667,1,0,0,0.7271,optionRight,80,8815,4,27,0,27,0,1,,,,,,,,,,,,,,,,,,,,,,,,,,,,,,,,,,,,,,,
,,,,,,,,2023-08-16_08h36.00.693,HF_wild_card,2022.2.4,Win32,59.81934558,5dccf219aa4314964f7461d9,64d2fd46c836a06233681665,64dc7c4379bf61fd77441185,,,,,,,ctch,resources/DY.BMP,resources/DP.BMP,Door4,0.407552083,-0.016927083,1,0,0,0.8776,optionRight,60,8875,4,28,0,28,0,1,,,,,,,,,,,,,,,,,,,,,,,,,,,,,,,,,,,,,,,
,,,,,,,,2023-08-16_08h36.00.693,HF_wild_card,2022.2.4,Win32,59.81934558,5dccf219aa4314964f7461d9,64d2fd46c836a06233681665,64dc7c4379bf61fd77441185,,,,,,,sngl,resources/Empty.png,resources/DB.BMP,Door3,0.290364583,-0.018229167,1,0,0,0.678,optionRight,70,8945,4,29,0,29,0,1,,,,,,,,,,,,,,,,,,,,,,,,,,,,,,,,,,,,,,,
,,,,,,,,2023-08-16_08h36.00.693,HF_wild_card,2022.2.4,Win32,59.81934558,5dccf219aa4314964f7461d9,64d2fd46c836a06233681665,64dc7c4379bf61fd77441185,,,,,,,decisionTrl,resources/DY.BMP,resources/DBN.BMP,WildCard_Ex,0.365885417,0.0546875,1,0,0,1.0427,optionRight,95,9040,4,30,0,30,0,1,,,,,,,,,,,,,,,,,,,,,,,,,,,,,,,,,,,,,,,
,,,,,,,,2023-08-16_08h36.00.693,HF_wild_card,2022.2.4,Win32,59.81934558,5dccf219aa4314964f7461d9,64d2fd46c836a06233681665,64dc7c4379bf61fd77441185,,,,,,,sngl,resources/DBN.BMP,resources/Empty.png,WildCard_Ex,-0.380208333,0.061197917,1,0,0,0.9107,optionLeft,95,9135,4,31,0,31,0,1,,,,,,,,,,,,,,,,,,,,,,,,,,,,,,,,,,,,,,,
,,,,,,,,2023-08-16_08h36.00.693,HF_wild_card,2022.2.4,Win32,59.81934558,5dccf219aa4314964f7461d9,64d2fd46c836a06233681665,64dc7c4379bf61fd77441185,,,,,,,decisionTrl,resources/DP.BMP,resources/DB.BMP,Door3,0.311197917,0.00390625,1,0,0,1.4101,optionRight,70,9205,4,32,0,32,0,1,,,,,,,,,,,,,,,,,,,,,,,,,,,,,,,,,,,,,,,
,,,,,,,,2023-08-16_08h36.00.693,HF_wild_card,2022.2.4,Win32,59.81934558,5dccf219aa4314964f7461d9,64d2fd46c836a06233681665,64dc7c4379bf61fd77441185,,,,,,,ctch,resources/DY.BMP,resources/DP.BMP,Door4,0.3984375,-0.059895833,1,0,0,0.7418,optionRight,60,9265,4,33,0,33,0,1,,,,,,,,,,,,,,,,,,,,,,,,,,,,,,,,,,,,,,,
,,,,,,,,2023-08-16_08h36.00.693,HF_wild_card,2022.2.4,Win32,59.81934558,5dccf219aa4314964f7461d9,64d2fd46c836a06233681665,64dc7c4379bf61fd77441185,,,,,,,decisionTrl,resources/DY.BMP,resources/DR.BMP,Door1,-0.305989583,0.037760417,1,0,0,1.2419,optionLeft,30,9295,4,34,0,34,0,1,,,,,,,,,,,,,,,,,,,,,,,,,,,,,,,,,,,,,,,
,,,,,,,,2023-08-16_08h36.00.693,HF_wild_card,2022.2.4,Win32,59.81934558,5dccf219aa4314964f7461d9,64d2fd46c836a06233681665,64dc7c4379bf61fd77441185,,,,,,,sngl,resources/Empty.png,resources/DBN.BMP,WildCard_Ex,0.346354167,0.0390625,1,0,0,0.7761,optionRight,5,9300,4,35,0,35,0,1,,,,,,,,,,,,,,,,,,,,,,,,,,,,,,,,,,,,,,,
,,,,,,,,2023-08-16_08h36.00.693,HF_wild_card,2022.2.4,Win32,59.81934558,5dccf219aa4314964f7461d9,64d2fd46c836a06233681665,64dc7c4379bf61fd77441185,,,,,,,decisionTrl,resources/DB.BMP,resources/DP.BMP,Door3,-0.30859375,0.052083333,1,0,0,1.0772,optionLeft,70,9370,4,36,0,36,0,1,,,,,,,,,,,,,,,,,,,,,,,,,,,,,,,,,,,,,,,
,,,,,,,,2023-08-16_08h36.00.693,HF_wild_card,2022.2.4,Win32,59.81934558,5dccf219aa4314964f7461d9,64d2fd46c836a06233681665,64dc7c4379bf61fd77441185,,,,,,,decisionTrl,resources/DBN.BMP,resources/DY.BMP,WildCard_Ex,-0.3671875,0.091145833,1,0,0,0.7916,optionLeft,5,9375,4,37,0,37,0,1,,,,,,,,,,,,,,,,,,,,,,,,,,,,,,,,,,,,,,,
,,,,,,,,2023-08-16_08h36.00.693,HF_wild_card,2022.2.4,Win32,59.81934558,5dccf219aa4314964f7461d9,64d2fd46c836a06233681665,64dc7c4379bf61fd77441185,,,,,,,sngl,resources/DR.BMP,resources/Empty.png,Door2,-0.365885417,0.055989583,1,0,0,0.7287,optionLeft,20,9395,4,38,0,38,0,1,,,,,,,,,,,,,,,,,,,,,,,,,,,,,,,,,,,,,,,
,,,,,,,,2023-08-16_08h36.00.693,HF_wild_card,2022.2.4,Win32,59.81934558,5dccf219aa4314964f7461d9,64d2fd46c836a06233681665,64dc7c4379bf61fd77441185,,,,,,,decisionTrl,resources/DB.BMP,resources/DP.BMP,Door4,0.41796875,-0.016927083,1,0,0,0.9681,optionRight,60,9455,4,39,0,39,0,1,,,,,,,,,,,,,,,,,,,,,,,,,,,,,,,,,,,,,,,
,,,,,,,,2023-08-16_08h36.00.693,HF_wild_card,2022.2.4,Win32,59.81934558,5dccf219aa4314964f7461d9,64d2fd46c836a06233681665,64dc7c4379bf61fd77441185,,,,,,,decisionTrl,resources/DB.BMP,resources/DBN.BMP,Door3,-0.376302083,0.033854167,1,0,0,0.7202,optionLeft,70,9525,4,40,0,40,0,1,,,,,,,,,,,,,,,,,,,,,,,,,,,,,,,,,,,,,,,
,,,,,,,,2023-08-16_08h36.00.693,HF_wild_card,2022.2.4,Win32,59.81934558,5dccf219aa4314964f7461d9,64d2fd46c836a06233681665,64dc7c4379bf61fd77441185,,,,,,,ctch,resources/DP.BMP,resources/DY.BMP,Door4,-0.345052083,0.061197917,1,0,0,0.8092,optionLeft,60,9585,4,41,0,41,0,1,,,,,,,,,,,,,,,,,,,,,,,,,,,,,,,,,,,,,,,
,,,,,,,,2023-08-16_08h36.00.693,HF_wild_card,2022.2.4,Win32,59.81934558,5dccf219aa4314964f7461d9,64d2fd46c836a06233681665,64dc7c4379bf61fd77441185,,,,,,,decisionTrl,resources/DBN.BMP,resources/DB.BMP,WildCard_Ex,-0.440104167,0.1484375,1,0,0,1.061,optionLeft,5,9590,4,42,0,42,0,1,,,,,,,,,,,,,,,,,,,,,,,,,,,,,,,,,,,,,,,
,,,,,,,,2023-08-16_08h36.00.693,HF_wild_card,2022.2.4,Win32,59.81934558,5dccf219aa4314964f7461d9,64d2fd46c836a06233681665,64dc7c4379bf61fd77441185,,,,,,,decisionTrl,resources/DR.BMP,resources/DY.BMP,Door1,0.345052083,0.014322917,1,0,0,1.4437,optionRight,30,9620,4,43,0,43,0,1,,,,,,,,,,,,,,,,,,,,,,,,,,,,,,,,,,,,,,,
,,,,,,,,2023-08-16_08h36.00.693,HF_wild_card,2022.2.4,Win32,59.81934558,5dccf219aa4314964f7461d9,64d2fd46c836a06233681665,64dc7c4379bf61fd77441185,,,,,,,,,,,,,,,,,,,,,,,,,,3,0,3,0,1,,,,,,,,,,,,,,,,,,,,,,,,,,,,,,,,,,
,,,,,,,,2023-08-16_08h36.00.693,HF_wild_card,2022.2.4,Win32,59.81934558,5dccf219aa4314964f7461d9,64d2fd46c836a06233681665,64dc7c4379bf61fd77441185,,,,,,,sngl,resources/Empty.png,resources/DR.BMP,Door2,0.354166667,-0.16796875,1,0,0,0.9604,optionRight,20,9640,5,0,0,0,0,1,,,,,,,,,,,,,,,,,,,,,,,,,,,,,,,,,,,,,,,
,,,,,,,,2023-08-16_08h36.00.693,HF_wild_card,2022.2.4,Win32,59.81934558,5dccf219aa4314964f7461d9,64d2fd46c836a06233681665,64dc7c4379bf61fd77441185,,,,,,,decisionTrl,resources/DR.BMP,resources/DY.BMP,Door1,0.25,-0.005208333,1,0,0,1.3941,optionRight,30,9670,5,1,0,1,0,1,,,,,,,,,,,,,,,,,,,,,,,,,,,,,,,,,,,,,,,
,,,,,,,,2023-08-16_08h36.00.693,HF_wild_card,2022.2.4,Win32,59.81934558,5dccf219aa4314964f7461d9,64d2fd46c836a06233681665,64dc7c4379bf61fd77441185,,,,,,,ctch,resources/DP.BMP,resources/DY.BMP,Door4,-0.502604167,0.040364583,1,0,0,1.7601,optionLeft,80,9750,5,2,0,2,0,1,,,,,,,,,,,,,,,,,,,,,,,,,,,,,,,,,,,,,,,
,,,,,,,,2023-08-16_08h36.00.693,HF_wild_card,2022.2.4,Win32,59.81934558,5dccf219aa4314964f7461d9,64d2fd46c836a06233681665,64dc7c4379bf61fd77441185,,,,,,,ctch,resources/DR.BMP,resources/DB.BMP,Door3,0.407552083,0.055989583,1,0,0,0.8601,optionRight,70,9820,5,3,0,3,0,1,,,,,,,,,,,,,,,,,,,,,,,,,,,,,,,,,,,,,,,
,,,,,,,,2023-08-16_08h36.00.693,HF_wild_card,2022.2.4,Win32,59.81934558,5dccf219aa4314964f7461d9,64d2fd46c836a06233681665,64dc7c4379bf61fd77441185,,,,,,,decisionTrl,resources/DBN.BMP,resources/DP.BMP,WildCard_Ex,-0.451822917,0.102864583,1,0,0,1.247,optionLeft,95,9915,5,4,0,4,0,1,,,,,,,,,,,,,,,,,,,,,,,,,,,,,,,,,,,,,,,
,,,,,,,,2023-08-16_08h36.00.693,HF_wild_card,2022.2.4,Win32,59.81934558,5dccf219aa4314964f7461d9,64d2fd46c836a06233681665,64dc7c4379bf61fd77441185,,,,,,,decisionTrl,resources/DR.BMP,resources/DBN.BMP,WildCard_Ex,0.317708333,0.110677083,1,0,0,1.6296,optionRight,95,10010,5,5,0,5,0,1,,,,,,,,,,,,,,,,,,,,,,,,,,,,,,,,,,,,,,,
,,,,,,,,2023-08-16_08h36.00.693,HF_wild_card,2022.2.4,Win32,59.81934558,5dccf219aa4314964f7461d9,64d2fd46c836a06233681665,64dc7c4379bf61fd77441185,,,,,,,decisionTrl,resources/DP.BMP,resources/DB.BMP,Door3,0.309895833,0.041666667,1,0,0,1.4029,optionRight,70,10080,5,6,0,6,0,1,,,,,,,,,,,,,,,,,,,,,,,,,,,,,,,,,,,,,,,
,,,,,,,,2023-08-16_08h36.00.693,HF_wild_card,2022.2.4,Win32,59.81934558,5dccf219aa4314964f7461d9,64d2fd46c836a06233681665,64dc7c4379bf61fd77441185,,,,,,,sngl,resources/Empty.png,resources/DB.BMP,Door3,0.28125,-0.022135417,1,0,0,0.7215,optionRight,70,10150,5,7,0,7,0,1,,,,,,,,,,,,,,,,,,,,,,,,,,,,,,,,,,,,,,,
,,,,,,,,2023-08-16_08h36.00.693,HF_wild_card,2022.2.4,Win32,59.81934558,5dccf219aa4314964f7461d9,64d2fd46c836a06233681665,64dc7c4379bf61fd77441185,,,,,,,decisionTrl,resources/DP.BMP,resources/DB.BMP,Door4,-0.385416667,0.0234375,1,0,0,0.747,optionLeft,80,10230,5,8,0,8,0,1,,,,,,,,,,,,,,,,,,,,,,,,,,,,,,,,,,,,,,,
,,,,,,,,2023-08-16_08h36.00.693,HF_wild_card,2022.2.4,Win32,59.81934558,5dccf219aa4314964f7461d9,64d2fd46c836a06233681665,64dc7c4379bf61fd77441185,,,,,,,decisionTrl,resources/DY.BMP,resources/DR.BMP,Door1,-0.29296875,0.02734375,1,0,0,1.2232,optionLeft,30,10260,5,9,0,9,0,1,,,,,,,,,,,,,,,,,,,,,,,,,,,,,,,,,,,,,,,
,,,,,,,,2023-08-16_08h36.00.693,HF_wild_card,2022.2.4,Win32,59.81934558,5dccf219aa4314964f7461d9,64d2fd46c836a06233681665,64dc7c4379bf61fd77441185,,,,,,,sngl,resources/DR.BMP,resources/Empty.png,Door2,-0.329427083,0.028645833,1,0,0,0.6914,optionLeft,40,10300,5,10,0,10,0,1,,,,,,,,,,,,,,,,,,,,,,,,,,,,,,,,,,,,,,,
,,,,,,,,2023-08-16_08h36.00.693,HF_wild_card,2022.2.4,Win32,59.81934558,5dccf219aa4314964f7461d9,64d2fd46c836a06233681665,64dc7c4379bf61fd77441185,,,,,,,decisionTrl,resources/DY.BMP,resources/DR.BMP,Door1,-0.380208333,0.01953125,1,0,0,1.4752,optionLeft,30,10330,5,11,0,11,0,1,,,,,,,,,,,,,,,,,,,,,,,,,,,,,,,,,,,,,,,
,,,,,,,,2023-08-16_08h36.00.693,HF_wild_card,2022.2.4,Win32,59.81934558,5dccf219aa4314964f7461d9,64d2fd46c836a06233681665,64dc7c4379bf61fd77441185,,,,,,,decisionTrl,resources/DB.BMP,resources/DP.BMP,Door4,0.315104167,0.032552083,1,0,0,0.9609,optionRight,80,10410,5,12,0,12,0,1,,,,,,,,,,,,,,,,,,,,,,,,,,,,,,,,,,,,,,,
,,,,,,,,2023-08-16_08h36.00.693,HF_wild_card,2022.2.4,Win32,59.81934558,5dccf219aa4314964f7461d9,64d2fd46c836a06233681665,64dc7c4379bf61fd77441185,,,,,,,sngl,resources/Empty.png,resources/DP.BMP,Door4,0.3203125,0.005208333,1,0,0,0.9937,optionRight,60,10470,5,13,0,13,0,1,,,,,,,,,,,,,,,,,,,,,,,,,,,,,,,,,,,,,,,
,,,,,,,,2023-08-16_08h36.00.693,HF_wild_card,2022.2.4,Win32,59.81934558,5dccf219aa4314964f7461d9,64d2fd46c836a06233681665,64dc7c4379bf61fd77441185,,,,,,,decisionTrl,resources/DR.BMP,resources/DY.BMP,Door1,0.427083333,0.040364583,1,0,0,1.3744,optionRight,30,10500,5,14,0,14,0,1,,,,,,,,,,,,,,,,,,,,,,,,,,,,,,,,,,,,,,,
,,,,,,,,2023-08-16_08h36.00.693,HF_wild_card,2022.2.4,Win32,59.81934558,5dccf219aa4314964f7461d9,64d2fd46c836a06233681665,64dc7c4379bf61fd77441185,,,,,,,sngl,resources/DBN.BMP,resources/Empty.png,WildCard_Ex,-0.41015625,0.1015625,1,0,0,0.6935,optionLeft,95,10595,5,15,0,15,0,1,,,,,,,,,,,,,,,,,,,,,,,,,,,,,,,,,,,,,,,
,,,,,,,,2023-08-16_08h36.00.693,HF_wild_card,2022.2.4,Win32,59.81934558,5dccf219aa4314964f7461d9,64d2fd46c836a06233681665,64dc7c4379bf61fd77441185,,,,,,,ctch,resources/DR.BMP,resources/DB.BMP,Door3,0.40234375,0,1,0,0,1.1099,optionRight,70,10665,5,16,0,16,0,1,,,,,,,,,,,,,,,,,,,,,,,,,,,,,,,,,,,,,,,
,,,,,,,,2023-08-16_08h36.00.693,HF_wild_card,2022.2.4,Win32,59.81934558,5dccf219aa4314964f7461d9,64d2fd46c836a06233681665,64dc7c4379bf61fd77441185,,,,,,,decisionTrl,resources/DP.BMP,resources/DBN.BMP,WildCard_Ex,0.334635417,0.138020833,1,0,0,0.9765,optionRight,5,10670,5,17,0,17,0,1,,,,,,,,,,,,,,,,,,,,,,,,,,,,,,,,,,,,,,,
,,,,,,,,2023-08-16_08h36.00.693,HF_wild_card,2022.2.4,Win32,59.81934558,5dccf219aa4314964f7461d9,64d2fd46c836a06233681665,64dc7c4379bf61fd77441185,,,,,,,sngl,resources/DB.BMP,resources/Empty.png,Door3,-0.420572917,0.0546875,1,0,0,0.6435,optionLeft,70,10740,5,18,0,18,0,1,,,,,,,,,,,,,,,,,,,,,,,,,,,,,,,,,,,,,,,
,,,,,,,,2023-08-16_08h36.00.693,HF_wild_card,2022.2.4,Win32,59.81934558,5dccf219aa4314964f7461d9,64d2fd46c836a06233681665,64dc7c4379bf61fd77441185,,,,,,,ctch,resources/DB.BMP,resources/DR.BMP,Door3,-0.451822917,0.048177083,1,0,0,0.9107,optionLeft,70,10810,5,19,0,19,0,1,,,,,,,,,,,,,,,,,,,,,,,,,,,,,,,,,,,,,,,
,,,,,,,,2023-08-16_08h36.00.693,HF_wild_card,2022.2.4,Win32,59.81934558,5dccf219aa4314964f7461d9,64d2fd46c836a06233681665,64dc7c4379bf61fd77441185,,,,,,,decisionTrl,resources/DB.BMP,resources/DP.BMP,Door4,0.450520833,-0.01171875,1,0,0,1.0261,optionRight,60,10870,5,20,0,20,0,1,,,,,,,,,,,,,,,,,,,,,,,,,,,,,,,,,,,,,,,
,,,,,,,,2023-08-16_08h36.00.693,HF_wild_card,2022.2.4,Win32,59.81934558,5dccf219aa4314964f7461d9,64d2fd46c836a06233681665,64dc7c4379bf61fd77441185,,,,,,,decisionTrl,resources/DP.BMP,resources/DB.BMP,Door4,-0.376302083,0.061197917,1,0,0,0.9575,optionLeft,80,10950,5,21,0,21,0,1,,,,,,,,,,,,,,,,,,,,,,,,,,,,,,,,,,,,,,,
,,,,,,,,2023-08-16_08h36.00.693,HF_wild_card,2022.2.4,Win32,59.81934558,5dccf219aa4314964f7461d9,64d2fd46c836a06233681665,64dc7c4379bf61fd77441185,,,,,,,decisionTrl,resources/DB.BMP,resources/DP.BMP,Door4,0.364583333,0.01171875,1,0,0,0.9933,optionRight,60,11010,5,22,0,22,0,1,,,,,,,,,,,,,,,,,,,,,,,,,,,,,,,,,,,,,,,
,,,,,,,,2023-08-16_08h36.00.693,HF_wild_card,2022.2.4,Win32,59.81934558,5dccf219aa4314964f7461d9,64d2fd46c836a06233681665,64dc7c4379bf61fd77441185,,,,,,,decisionTrl,resources/DB.BMP,resources/DP.BMP,Door3,-0.3671875,0.061197917,1,0,0,0.8445,optionLeft,70,11080,5,23,0,23,0,1,,,,,,,,,,,,,,,,,,,,,,,,,,,,,,,,,,,,,,,
,,,,,,,,2023-08-16_08h36.00.693,HF_wild_card,2022.2.4,Win32,59.81934558,5dccf219aa4314964f7461d9,64d2fd46c836a06233681665,64dc7c4379bf61fd77441185,,,,,,,sngl,resources/Empty.png,resources/DBN.BMP,WildCard_Ex,0.303385417,0.044270833,1,0,0,0.8771,optionRight,5,11085,5,24,0,24,0,1,,,,,,,,,,,,,,,,,,,,,,,,,,,,,,,,,,,,,,,
,,,,,,,,2023-08-16_08h36.00.693,HF_wild_card,2022.2.4,Win32,59.81934558,5dccf219aa4314964f7461d9,64d2fd46c836a06233681665,64dc7c4379bf61fd77441185,,,,,,,decisionTrl,resources/DBN.BMP,resources/DY.BMP,WildCard_Ex,-0.466145833,0.145833333,1,0,0,0.8765,optionLeft,5,11090,5,25,0,25,0,1,,,,,,,,,,,,,,,,,,,,,,,,,,,,,,,,,,,,,,,
,,,,,,,,2023-08-16_08h36.00.693,HF_wild_card,2022.2.4,Win32,59.81934558,5dccf219aa4314964f7461d9,64d2fd46c836a06233681665,64dc7c4379bf61fd77441185,,,,,,,ctch,resources/DP.BMP,resources/DY.BMP,Door4,-0.274739583,0.048177083,1,0,0,0.9439,optionLeft,80,11170,5,26,0,26,0,1,,,,,,,,,,,,,,,,,,,,,,,,,,,,,,,,,,,,,,,
,,,,,,,,2023-08-16_08h36.00.693,HF_wild_card,2022.2.4,Win32,59.81934558,5dccf219aa4314964f7461d9,64d2fd46c836a06233681665,64dc7c4379bf61fd77441185,,,,,,,decisionTrl,resources/DY.BMP,resources/DBN.BMP,WildCard_Ex,0.361979167,0.078125,1,0,0,0.8429,optionRight,5,11175,5,27,0,27,0,1,,,,,,,,,,,,,,,,,,,,,,,,,,,,,,,,,,,,,,,
,,,,,,,,2023-08-16_08h36.00.693,HF_wild_card,2022.2.4,Win32,59.81934558,5dccf219aa4314964f7461d9,64d2fd46c836a06233681665,64dc7c4379bf61fd77441185,,,,,,,decisionTrl,resources/DR.BMP,resources/DY.BMP,Door1,0.299479167,0.0234375,1,0,0,1.1263,optionRight,30,11205,5,28,0,28,0,1,,,,,,,,,,,,,,,,,,,,,,,,,,,,,,,,,,,,,,,
,,,,,,,,2023-08-16_08h36.00.693,HF_wild_card,2022.2.4,Win32,59.81934558,5dccf219aa4314964f7461d9,64d2fd46c836a06233681665,64dc7c4379bf61fd77441185,,,,,,,sngl,resources/Empty.png,resources/DBN.BMP,WildCard_Ex,0.305989583,0.07421875,1,0,0,0.7443,optionRight,95,11300,5,29,0,29,0,1,,,,,,,,,,,,,,,,,,,,,,,,,,,,,,,,,,,,,,,
,,,,,,,,2023-08-16_08h36.00.693,HF_wild_card,2022.2.4,Win32,59.81934558,5dccf219aa4314964f7461d9,64d2fd46c836a06233681665,64dc7c4379bf61fd77441185,,,,,,,sngl,resources/DP.BMP,resources/Empty.png,Door4,-0.37890625,0.071614583,1,0,0,0.7428,optionLeft,80,11380,5,30,0,30,0,1,,,,,,,,,,,,,,,,,,,,,,,,,,,,,,,,,,,,,,,
,,,,,,,,2023-08-16_08h36.00.693,HF_wild_card,2022.2.4,Win32,59.81934558,5dccf219aa4314964f7461d9,64d2fd46c836a06233681665,64dc7c4379bf61fd77441185,,,,,,,ctch,resources/DY.BMP,resources/DP.BMP,Door4,0.388020833,0.00390625,1,0,0,0.8755,optionRight,80,11460,5,31,0,31,0,1,,,,,,,,,,,,,,,,,,,,,,,,,,,,,,,,,,,,,,,
,,,,,,,,2023-08-16_08h36.00.693,HF_wild_card,2022.2.4,Win32,59.81934558,5dccf219aa4314964f7461d9,64d2fd46c836a06233681665,64dc7c4379bf61fd77441185,,,,,,,decisionTrl,resources/DBN.BMP,resources/DR.BMP,WildCard_Ex,-0.375,0.122395833,1,0,0,0.8749,optionLeft,5,11465,5,32,0,32,0,1,,,,,,,,,,,,,,,,,,,,,,,,,,,,,,,,,,,,,,,
,,,,,,,,2023-08-16_08h36.00.693,HF_wild_card,2022.2.4,Win32,59.81934558,5dccf219aa4314964f7461d9,64d2fd46c836a06233681665,64dc7c4379bf61fd77441185,,,,,,,decisionTrl,resources/DP.BMP,resources/DB.BMP,Door3,0.350260417,-0.0078125,1,0,0,1.2772,optionRight,70,11535,5,33,0,33,0,1,,,,,,,,,,,,,,,,,,,,,,,,,,,,,,,,,,,,,,,
,,,,,,,,2023-08-16_08h36.00.693,HF_wild_card,2022.2.4,Win32,59.81934558,5dccf219aa4314964f7461d9,64d2fd46c836a06233681665,64dc7c4379bf61fd77441185,,,,,,,sngl,resources/DY.BMP,resources/Empty.png,Door1,-0.358072917,0.072916667,1,0,0,0.7437,optionLeft,30,11565,5,34,0,34,0,1,,,,,,,,,,,,,,,,,,,,,,,,,,,,,,,,,,,,,,,
,,,,,,,,2023-08-16_08h36.00.693,HF_wild_card,2022.2.4,Win32,59.81934558,5dccf219aa4314964f7461d9,64d2fd46c836a06233681665,64dc7c4379bf61fd77441185,,,,,,,sngl,resources/DBN.BMP,resources/Empty.png,WildCard_Ex,-0.3359375,0.115885417,1,0,0,0.6764,optionLeft,5,11570,5,35,0,35,0,1,,,,,,,,,,,,,,,,,,,,,,,,,,,,,,,,,,,,,,,
,,,,,,,,2023-08-16_08h36.00.693,HF_wild_card,2022.2.4,Win32,59.81934558,5dccf219aa4314964f7461d9,64d2fd46c836a06233681665,64dc7c4379bf61fd77441185,,,,,,,decisionTrl,resources/DY.BMP,resources/DR.BMP,Door1,-0.298177083,0.067708333,1,0,0,1.9764,optionLeft,30,11600,5,36,0,36,0,1,,,,,,,,,,,,,,,,,,,,,,,,,,,,,,,,,,,,,,,
,,,,,,,,2023-08-16_08h36.00.693,HF_wild_card,2022.2.4,Win32,59.81934558,5dccf219aa4314964f7461d9,64d2fd46c836a06233681665,64dc7c4379bf61fd77441185,,,,,,,ctch,resources/DB.BMP,resources/DR.BMP,Door3,-0.40234375,0.065104167,1,0,0,0.9263,optionLeft,70,11670,5,37,0,37,0,1,,,,,,,,,,,,,,,,,,,,,,,,,,,,,,,,,,,,,,,
,,,,,,,,2023-08-16_08h36.00.693,HF_wild_card,2022.2.4,Win32,59.81934558,5dccf219aa4314964f7461d9,64d2fd46c836a06233681665,64dc7c4379bf61fd77441185,,,,,,,decisionTrl,resources/DBN.BMP,resources/DB.BMP,Door3,0.266927083,0.040364583,1,0,0,1.0107,optionRight,70,11740,5,38,0,38,0,1,,,,,,,,,,,,,,,,,,,,,,,,,,,,,,,,,,,,,,,
,,,,,,,,2023-08-16_08h36.00.693,HF_wild_card,2022.2.4,Win32,59.81934558,5dccf219aa4314964f7461d9,64d2fd46c836a06233681665,64dc7c4379bf61fd77441185,,,,,,,decisionTrl,resources/DY.BMP,resources/DR.BMP,Door1,-0.333333333,0.05078125,1,0,0,1.525,optionLeft,30,11770,5,39,0,39,0,1,,,,,,,,,,,,,,,,,,,,,,,,,,,,,,,,,,,,,,,
,,,,,,,,2023-08-16_08h36.00.693,HF_wild_card,2022.2.4,Win32,59.81934558,5dccf219aa4314964f7461d9,64d2fd46c836a06233681665,64dc7c4379bf61fd77441185,,,,,,,sngl,resources/Empty.png,resources/DY.BMP,Door1,0.290364583,0.071614583,1,0,0,0.7105,optionRight,30,11800,5,40,0,40,0,1,,,,,,,,,,,,,,,,,,,,,,,,,,,,,,,,,,,,,,,
,,,,,,,,2023-08-16_08h36.00.693,HF_wild_card,2022.2.4,Win32,59.81934558,5dccf219aa4314964f7461d9,64d2fd46c836a06233681665,64dc7c4379bf61fd77441185,,,,,,,ctch,resources/DY.BMP,resources/DP.BMP,Door4,0.283854167,0.026041667,1,0,0,0.9433,optionRight,80,11880,5,41,0,41,0,1,,,,,,,,,,,,,,,,,,,,,,,,,,,,,,,,,,,,,,,
,,,,,,,,2023-08-16_08h36.00.693,HF_wild_card,2022.2.4,Win32,59.81934558,5dccf219aa4314964f7461d9,64d2fd46c836a06233681665,64dc7c4379bf61fd77441185,,,,,,,decisionTrl,resources/DB.BMP,resources/DBN.BMP,Door3,-0.440104167,0.072916667,1,0,0,1.726,optionLeft,70,11950,5,42,0,42,0,1,,,,,,,,,,,,,,,,,,,,,,,,,,,,,,,,,,,,,,,
,,,,,,,,2023-08-16_08h36.00.693,HF_wild_card,2022.2.4,Win32,59.81934558,5dccf219aa4314964f7461d9,64d2fd46c836a06233681665,64dc7c4379bf61fd77441185,,,,,,,decisionTrl,resources/DR.BMP,resources/DY.BMP,Door1,0.459635417,0.009114583,1,0,0,2.3117,optionRight,30,11980,5,43,0,43,0,1,,,,,,,,,,,,,,,,,,,,,,,,,,,,,,,,,,,,,,,
,,,,,,,,2023-08-16_08h36.00.693,HF_wild_card,2022.2.4,Win32,59.81934558,5dccf219aa4314964f7461d9,64d2fd46c836a06233681665,64dc7c4379bf61fd77441185,,,,,,,,,,,,,,,,,,,,,,,,,,4,0,4,0,1,,,,,,,,,,,,,,,,,,,,,,,,,,,,,,,,,,
,,,,,,,,2023-08-16_08h36.00.693,HF_wild_card,2022.2.4,Win32,59.81934558,5dccf219aa4314964f7461d9,64d2fd46c836a06233681665,64dc7c4379bf61fd77441185,,,,,,,decisionTrl,resources/DR.BMP,resources/DY.BMP,Door1,0.337239583,-0.02734375,1,0,0,1.5081,optionRight,30,12010,6,0,0,0,0,1,,,,,,,,,,,,,,,,,,,,,,,,,,,,,,,,,,,,,,,
,,,,,,,,2023-08-16_08h36.00.693,HF_wild_card,2022.2.4,Win32,59.81934558,5dccf219aa4314964f7461d9,64d2fd46c836a06233681665,64dc7c4379bf61fd77441185,,,,,,,decisionTrl,resources/DB.BMP,resources/DP.BMP,Door3,-0.489583333,0.053385417,1,0,0,1.5603,optionLeft,70,12080,6,1,0,1,0,1,,,,,,,,,,,,,,,,,,,,,,,,,,,,,,,,,,,,,,,
,,,,,,,,2023-08-16_08h36.00.693,HF_wild_card,2022.2.4,Win32,59.81934558,5dccf219aa4314964f7461d9,64d2fd46c836a06233681665,64dc7c4379bf61fd77441185,,,,,,,ctch,resources/DP.BMP,resources/DY.BMP,Door4,-0.412760417,0.079427083,1,0,0,0.7792,optionLeft,60,12140,6,2,0,2,0,1,,,,,,,,,,,,,,,,,,,,,,,,,,,,,,,,,,,,,,,
,,,,,,,,2023-08-16_08h36.00.693,HF_wild_card,2022.2.4,Win32,59.81934558,5dccf219aa4314964f7461d9,64d2fd46c836a06233681665,64dc7c4379bf61fd77441185,,,,,,,sngl,resources/Empty.png,resources/DY.BMP,Door1,0.364583333,0.01953125,1,0,0,0.713,optionRight,30,12170,6,3,0,3,0,1,,,,,,,,,,,,,,,,,,,,,,,,,,,,,,,,,,,,,,,
,,,,,,,,2023-08-16_08h36.00.693,HF_wild_card,2022.2.4,Win32,59.81934558,5dccf219aa4314964f7461d9,64d2fd46c836a06233681665,64dc7c4379bf61fd77441185,,,,,,,decisionTrl,resources/DB.BMP,resources/DP.BMP,Door4,0.369791667,0.075520833,1,0,0,1.0356,optionRight,80,12250,6,4,0,4,0,1,,,,,,,,,,,,,,,,,,,,,,,,,,,,,,,,,,,,,,,
,,,,,,,,2023-08-16_08h36.00.693,HF_wild_card,2022.2.4,Win32,59.81934558,5dccf219aa4314964f7461d9,64d2fd46c836a06233681665,64dc7c4379bf61fd77441185,,,,,,,decisionTrl,resources/DB.BMP,resources/DP.BMP,Door4,0.393229167,0.052083333,1,0,0,0.7808,optionRight,80,12330,6,5,0,5,0,1,,,,,,,,,,,,,,,,,,,,,,,,,,,,,,,,,,,,,,,
,,,,,,,,2023-08-16_08h36.00.693,HF_wild_card,2022.2.4,Win32,59.81934558,5dccf219aa4314964f7461d9,64d2fd46c836a06233681665,64dc7c4379bf61fd77441185,,,,,,,ctch,resources/DR.BMP,resources/DB.BMP,Door3,0.322916667,0.0234375,1,0,0,0.8294,optionRight,70,12400,6,6,0,6,0,1,,,,,,,,,,,,,,,,,,,,,,,,,,,,,,,,,,,,,,,
,,,,,,,,2023-08-16_08h36.00.693,HF_wild_card,2022.2.4,Win32,59.81934558,5dccf219aa4314964f7461d9,64d2fd46c836a06233681665,64dc7c4379bf61fd77441185,,,,,,,sngl,resources/Empty.png,resources/DBN.BMP,WildCard_Ex,0.337239583,0.052083333,1,0,0,0.8496,optionRight,95,12495,6,7,0,7,0,1,,,,,,,,,,,,,,,,,,,,,,,,,,,,,,,,,,,,,,,
,,,,,,,,2023-08-16_08h36.00.693,HF_wild_card,2022.2.4,Win32,59.81934558,5dccf219aa4314964f7461d9,64d2fd46c836a06233681665,64dc7c4379bf61fd77441185,,,,,,,decisionTrl,resources/DP.BMP,resources/DB.BMP,Door3,0.38671875,0.018229167,1,0,0,0.9795,optionRight,70,12565,6,8,0,8,0,1,,,,,,,,,,,,,,,,,,,,,,,,,,,,,,,,,,,,,,,
,,,,,,,,2023-08-16_08h36.00.693,HF_wild_card,2022.2.4,Win32,59.81934558,5dccf219aa4314964f7461d9,64d2fd46c836a06233681665,64dc7c4379bf61fd77441185,,,,,,,sngl,resources/Empty.png,resources/DR.BMP,Door2,0.384114583,-0.018229167,1,0,0,0.7136,optionRight,40,12605,6,9,0,9,0,1,,,,,,,,,,,,,,,,,,,,,,,,,,,,,,,,,,,,,,,
,,,,,,,,2023-08-16_08h36.00.693,HF_wild_card,2022.2.4,Win32,59.81934558,5dccf219aa4314964f7461d9,64d2fd46c836a06233681665,64dc7c4379bf61fd77441185,,,,,,,decisionTrl,resources/DBN.BMP,resources/DP.BMP,Door4,0.348958333,-0.03125,1,0,0,3.0019,optionRight,80,12685,6,10,0,10,0,1,,,,,,,,,,,,,,,,,,,,,,,,,,,,,,,,,,,,,,,
,,,,,,,,2023-08-16_08h36.00.693,HF_wild_card,2022.2.4,Win32,59.81934558,5dccf219aa4314964f7461d9,64d2fd46c836a06233681665,64dc7c4379bf61fd77441185,,,,,,,decisionTrl,resources/DP.BMP,resources/DBN.BMP,WildCard_Ex,0.328125,0.125,1,0,0,1.1253,optionRight,5,12690,6,11,0,11,0,1,,,,,,,,,,,,,,,,,,,,,,,,,,,,,,,,,,,,,,,
,,,,,,,,2023-08-16_08h36.00.693,HF_wild_card,2022.2.4,Win32,59.81934558,5dccf219aa4314964f7461d9,64d2fd46c836a06233681665,64dc7c4379bf61fd77441185,,,,,,,sngl,resources/DB.BMP,resources/Empty.png,Door3,-0.341145833,0.052083333,1,0,0,0.6932,optionLeft,70,12760,6,12,0,12,0,1,,,,,,,,,,,,,,,,,,,,,,,,,,,,,,,,,,,,,,,
,,,,,,,,2023-08-16_08h36.00.693,HF_wild_card,2022.2.4,Win32,59.81934558,5dccf219aa4314964f7461d9,64d2fd46c836a06233681665,64dc7c4379bf61fd77441185,,,,,,,sngl,resources/DBN.BMP,resources/Empty.png,WildCard_Ex,-0.38671875,0.151041667,1,0,0,0.7267,optionLeft,5,12765,6,13,0,13,0,1,,,,,,,,,,,,,,,,,,,,,,,,,,,,,,,,,,,,,,,
,,,,,,,,2023-08-16_08h36.00.693,HF_wild_card,2022.2.4,Win32,59.81934558,5dccf219aa4314964f7461d9,64d2fd46c836a06233681665,64dc7c4379bf61fd77441185,,,,,,,decisionTrl,resources/DY.BMP,resources/DBN.BMP,WildCard_Ex,0.299479167,0.09375,1,0,0,1.6272,optionRight,5,12770,6,14,0,14,0,1,,,,,,,,,,,,,,,,,,,,,,,,,,,,,,,,,,,,,,,
,,,,,,,,2023-08-16_08h36.00.693,HF_wild_card,2022.2.4,Win32,59.81934558,5dccf219aa4314964f7461d9,64d2fd46c836a06233681665,64dc7c4379bf61fd77441185,,,,,,,sngl,resources/DR.BMP,resources/Empty.png,Door2,-0.444010417,0.0859375,1,0,0,0.6611,optionLeft,20,12790,6,15,0,15,0,1,,,,,,,,,,,,,,,,,,,,,,,,,,,,,,,,,,,,,,,
,,,,,,,,2023-08-16_08h36.00.693,HF_wild_card,2022.2.4,Win32,59.81934558,5dccf219aa4314964f7461d9,64d2fd46c836a06233681665,64dc7c4379bf61fd77441185,,,,,,,decisionTrl,resources/DB.BMP,resources/DP.BMP,Door4,0.40625,-0.001302083,1,0,0,0.9258,optionRight,60,12850,6,16,0,16,0,1,,,,,,,,,,,,,,,,,,,,,,,,,,,,,,,,,,,,,,,
,,,,,,,,2023-08-16_08h36.00.693,HF_wild_card,2022.2.4,Win32,59.81934558,5dccf219aa4314964f7461d9,64d2fd46c836a06233681665,64dc7c4379bf61fd77441185,,,,,,,decisionTrl,resources/DR.BMP,resources/DY.BMP,Door1,0.358072917,0.044270833,1,0,0,1.9939,optionRight,30,12880,6,17,0,17,0,1,,,,,,,,,,,,,,,,,,,,,,,,,,,,,,,,,,,,,,,
,,,,,,,,2023-08-16_08h36.00.693,HF_wild_card,2022.2.4,Win32,59.81934558,5dccf219aa4314964f7461d9,64d2fd46c836a06233681665,64dc7c4379bf61fd77441185,,,,,,,sngl,resources/DBN.BMP,resources/Empty.png,WildCard_Ex,-0.419270833,0.122395833,1,0,0,0.7439,optionLeft,95,12975,6,18,0,18,0,1,,,,,,,,,,,,,,,,,,,,,,,,,,,,,,,,,,,,,,,
,,,,,,,,2023-08-16_08h36.00.693,HF_wild_card,2022.2.4,Win32,59.81934558,5dccf219aa4314964f7461d9,64d2fd46c836a06233681665,64dc7c4379bf61fd77441185,,,,,,,ctch,resources/DP.BMP,resources/DY.BMP,Door4,-0.333333333,0.0390625,1,0,0,1.3434,optionLeft,80,13055,6,19,0,19,0,1,,,,,,,,,,,,,,,,,,,,,,,,,,,,,,,,,,,,,,,
,,,,,,,,2023-08-16_08h36.00.693,HF_wild_card,2022.2.4,Win32,59.81934558,5dccf219aa4314964f7461d9,64d2fd46c836a06233681665,64dc7c4379bf61fd77441185,,,,,,,sngl,resources/Empty.png,resources/DBN.BMP,WildCard_Ex,0.446614583,0.075520833,1,0,0,0.727,optionRight,5,13060,6,20,0,20,0,1,,,,,,,,,,,,,,,,,,,,,,,,,,,,,,,,,,,,,,,
,,,,,,,,2023-08-16_08h36.00.693,HF_wild_card,2022.2.4,Win32,59.81934558,5dccf219aa4314964f7461d9,64d2fd46c836a06233681665,64dc7c4379bf61fd77441185,,,,,,,decisionTrl,resources/DY.BMP,resources/DR.BMP,Door1,-0.32421875,0.059895833,1,0,0,2.326,optionLeft,30,13090,6,21,0,21,0,1,,,,,,,,,,,,,,,,,,,,,,,,,,,,,,,,,,,,,,,
,,,,,,,,2023-08-16_08h36.00.693,HF_wild_card,2022.2.4,Win32,59.81934558,5dccf219aa4314964f7461d9,64d2fd46c836a06233681665,64dc7c4379bf61fd77441185,,,,,,,ctch,resources/DB.BMP,resources/DR.BMP,Door3,-0.446614583,0.0390625,1,0,0,1.1107,optionLeft,70,13160,6,22,0,22,0,1,,,,,,,,,,,,,,,,,,,,,,,,,,,,,,,,,,,,,,,
,,,,,,,,2023-08-16_08h36.00.693,HF_wild_card,2022.2.4,Win32,59.81934558,5dccf219aa4314964f7461d9,64d2fd46c836a06233681665,64dc7c4379bf61fd77441185,,,,,,,decisionTrl,resources/DY.BMP,resources/DR.BMP,Door1,-0.28515625,0.052083333,1,0,0,3.1099,optionLeft,30,13190,6,23,0,23,0,1,,,,,,,,,,,,,,,,,,,,,,,,,,,,,,,,,,,,,,,
,,,,,,,,2023-08-16_08h36.00.693,HF_wild_card,2022.2.4,Win32,59.81934558,5dccf219aa4314964f7461d9,64d2fd46c836a06233681665,64dc7c4379bf61fd77441185,,,,,,,decisionTrl,resources/DR.BMP,resources/DBN.BMP,WildCard_Ex,0.313802083,0.115885417,1,0,0,1.1586,optionRight,5,13195,6,24,0,24,0,1,,,,,,,,,,,,,,,,,,,,,,,,,,,,,,,,,,,,,,,
,,,,,,,,2023-08-16_08h36.00.693,HF_wild_card,2022.2.4,Win32,59.81934558,5dccf219aa4314964f7461d9,64d2fd46c836a06233681665,64dc7c4379bf61fd77441185,,,,,,,decisionTrl,resources/DBN.BMP,resources/DR.BMP,WildCard_Ex,-0.490885417,0.125,1,0,0,0.8265,optionLeft,5,13200,6,25,0,25,0,1,,,,,,,,,,,,,,,,,,,,,,,,,,,,,,,,,,,,,,,
,,,,,,,,2023-08-16_08h36.00.693,HF_wild_card,2022.2.4,Win32,59.81934558,5dccf219aa4314964f7461d9,64d2fd46c836a06233681665,64dc7c4379bf61fd77441185,,,,,,,decisionTrl,resources/DBN.BMP,resources/DY.BMP,WildCard_Ex,-0.404947917,0.17578125,1,0,0,0.909,optionLeft,95,13295,6,26,0,26,0,1,,,,,,,,,,,,,,,,,,,,,,,,,,,,,,,,,,,,,,,
,,,,,,,,2023-08-16_08h36.00.693,HF_wild_card,2022.2.4,Win32,59.81934558,5dccf219aa4314964f7461d9,64d2fd46c836a06233681665,64dc7c4379bf61fd77441185,,,,,,,decisionTrl,resources/DB.BMP,resources/DBN.BMP,Door3,-0.3359375,0.05859375,1,0,0,1.1441,optionLeft,70,13365,6,27,0,27,0,1,,,,,,,,,,,,,,,,,,,,,,,,,,,,,,,,,,,,,,,
,,,,,,,,2023-08-16_08h36.00.693,HF_wild_card,2022.2.4,Win32,59.81934558,5dccf219aa4314964f7461d9,64d2fd46c836a06233681665,64dc7c4379bf61fd77441185,,,,,,,decisionTrl,resources/DR.BMP,resources/DY.BMP,Door1,0.321614583,0.049479167,1,0,0,1.2902,optionRight,30,13395,6,28,0,28,0,1,,,,,,,,,,,,,,,,,,,,,,,,,,,,,,,,,,,,,,,
,,,,,,,,2023-08-16_08h36.00.693,HF_wild_card,2022.2.4,Win32,59.81934558,5dccf219aa4314964f7461d9,64d2fd46c836a06233681665,64dc7c4379bf61fd77441185,,,,,,,decisionTrl,resources/DY.BMP,resources/DR.BMP,Door1,-0.348958333,0.098958333,1,0,0,0.8624,optionLeft,30,13425,6,29,0,29,0,1,,,,,,,,,,,,,,,,,,,,,,,,,,,,,,,,,,,,,,,
,,,,,,,,2023-08-16_08h36.00.693,HF_wild_card,2022.2.4,Win32,59.81934558,5dccf219aa4314964f7461d9,64d2fd46c836a06233681665,64dc7c4379bf61fd77441185,,,,,,,decisionTrl,resources/DP.BMP,resources/DB.BMP,Door3,0.373697917,0.010416667,1,0,0,1.0937,optionRight,70,13495,6,30,0,30,0,1,,,,,,,,,,,,,,,,,,,,,,,,,,,,,,,,,,,,,,,
,,,,,,,,2023-08-16_08h36.00.693,HF_wild_card,2022.2.4,Win32,59.81934558,5dccf219aa4314964f7461d9,64d2fd46c836a06233681665,64dc7c4379bf61fd77441185,,,,,,,decisionTrl,resources/DP.BMP,resources/DB.BMP,Door4,-0.361979167,0.052083333,1,0,0,0.7609,optionLeft,80,13575,6,31,0,31,0,1,,,,,,,,,,,,,,,,,,,,,,,,,,,,,,,,,,,,,,,
,,,,,,,,2023-08-16_08h36.00.693,HF_wild_card,2022.2.4,Win32,59.81934558,5dccf219aa4314964f7461d9,64d2fd46c836a06233681665,64dc7c4379bf61fd77441185,,,,,,,sngl,resources/DY.BMP,resources/Empty.png,Door1,-0.303385417,0.020833333,1,0,0,0.7428,optionLeft,30,13605,6,32,0,32,0,1,,,,,,,,,,,,,,,,,,,,,,,,,,,,,,,,,,,,,,,
,,,,,,,,2023-08-16_08h36.00.693,HF_wild_card,2022.2.4,Win32,59.81934558,5dccf219aa4314964f7461d9,64d2fd46c836a06233681665,64dc7c4379bf61fd77441185,,,,,,,ctch,resources/DR.BMP,resources/DB.BMP,Door3,0.3515625,-0.0390625,1,0,0,1.1938,optionRight,70,13675,6,33,0,33,0,1,,,,,,,,,,,,,,,,,,,,,,,,,,,,,,,,,,,,,,,
,,,,,,,,2023-08-16_08h36.00.693,HF_wild_card,2022.2.4,Win32,59.81934558,5dccf219aa4314964f7461d9,64d2fd46c836a06233681665,64dc7c4379bf61fd77441185,,,,,,,sngl,resources/Empty.png,resources/DB.BMP,Door3,0.326822917,-0.013020833,1,0,0,0.7939,optionRight,70,13745,6,34,0,34,0,1,,,,,,,,,,,,,,,,,,,,,,,,,,,,,,,,,,,,,,,
,,,,,,,,2023-08-16_08h36.00.693,HF_wild_card,2022.2.4,Win32,59.81934558,5dccf219aa4314964f7461d9,64d2fd46c836a06233681665,64dc7c4379bf61fd77441185,,,,,,,decisionTrl,resources/DP.BMP,resources/DB.BMP,Door3,0.411458333,-0.01171875,1,0,0,1.2274,optionRight,70,13815,6,35,0,35,0,1,,,,,,,,,,,,,,,,,,,,,,,,,,,,,,,,,,,,,,,
,,,,,,,,2023-08-16_08h36.00.693,HF_wild_card,2022.2.4,Win32,59.81934558,5dccf219aa4314964f7461d9,64d2fd46c836a06233681665,64dc7c4379bf61fd77441185,,,,,,,sngl,resources/DP.BMP,resources/Empty.png,Door4,-0.4296875,0.001302083,1,0,0,0.7104,optionLeft,60,13875,6,36,0,36,0,1,,,,,,,,,,,,,,,,,,,,,,,,,,,,,,,,,,,,,,,
,,,,,,,,2023-08-16_08h36.00.693,HF_wild_card,2022.2.4,Win32,59.81934558,5dccf219aa4314964f7461d9,64d2fd46c836a06233681665,64dc7c4379bf61fd77441185,,,,,,,sngl,resources/Empty.png,resources/DP.BMP,Door4,0.369791667,-0.01171875,1,0,0,0.7108,optionRight,80,13955,6,37,0,37,0,1,,,,,,,,,,,,,,,,,,,,,,,,,,,,,,,,,,,,,,,
,,,,,,,,2023-08-16_08h36.00.693,HF_wild_card,2022.2.4,Win32,59.81934558,5dccf219aa4314964f7461d9,64d2fd46c836a06233681665,64dc7c4379bf61fd77441185,,,,,,,decisionTrl,resources/DY.BMP,resources/DR.BMP,Door1,-0.401041667,0.048177083,1,0,0,1.0773,optionLeft,30,13985,6,38,0,38,0,1,,,,,,,,,,,,,,,,,,,,,,,,,,,,,,,,,,,,,,,
,,,,,,,,2023-08-16_08h36.00.693,HF_wild_card,2022.2.4,Win32,59.81934558,5dccf219aa4314964f7461d9,64d2fd46c836a06233681665,64dc7c4379bf61fd77441185,,,,,,,decisionTrl,resources/DR.BMP,resources/DY.BMP,Door1,0.39453125,0.01953125,1,0,0,1.0099,optionRight,30,14015,6,39,0,39,0,1,,,,,,,,,,,,,,,,,,,,,,,,,,,,,,,,,,,,,,,
,,,,,,,,2023-08-16_08h36.00.693,HF_wild_card,2022.2.4,Win32,59.81934558,5dccf219aa4314964f7461d9,64d2fd46c836a06233681665,64dc7c4379bf61fd77441185,,,,,,,ctch,resources/DB.BMP,resources/DR.BMP,Door3,-0.35546875,0.049479167,1,0,0,0.9592,optionLeft,70,14085,6,40,0,40,0,1,,,,,,,,,,,,,,,,,,,,,,,,,,,,,,,,,,,,,,,
,,,,,,,,2023-08-16_08h36.00.693,HF_wild_card,2022.2.4,Win32,59.81934558,5dccf219aa4314964f7461d9,64d2fd46c836a06233681665,64dc7c4379bf61fd77441185,,,,,,,decisionTrl,resources/DBN.BMP,resources/DB.BMP,Door3,0.381510417,0.006510417,1,0,0,1.5935,optionRight,70,14155,6,41,0,41,0,1,,,,,,,,,,,,,,,,,,,,,,,,,,,,,,,,,,,,,,,
,,,,,,,,2023-08-16_08h36.00.693,HF_wild_card,2022.2.4,Win32,59.81934558,5dccf219aa4314964f7461d9,64d2fd46c836a06233681665,64dc7c4379bf61fd77441185,,,,,,,ctch,resources/DY.BMP,resources/DP.BMP,Door4,0.412760417,0.03125,1,0,0,1.06,optionRight,60,14215,6,42,0,42,0,1,,,,,,,,,,,,,,,,,,,,,,,,,,,,,,,,,,,,,,,
,,,,,,,,2023-08-16_08h36.00.693,HF_wild_card,2022.2.4,Win32,59.81934558,5dccf219aa4314964f7461d9,64d2fd46c836a06233681665,64dc7c4379bf61fd77441185,,,,,,,ctch,resources/DY.BMP,resources/DP.BMP,Door4,0.341145833,0.005208333,1,0,0,0.7602,optionRight,80,14295,6,43,0,43,0,1,,,,,,,,,,,,,,,,,,,,,,,,,,,,,,,,,,,,,,,
,,,,,,,,2023-08-16_08h36.00.693,HF_wild_card,2022.2.4,Win32,59.81934558,5dccf219aa4314964f7461d9,64d2fd46c836a06233681665,64dc7c4379bf61fd77441185,,,,,,,,,,,,,,,,,,,,,,,,,,5,0,5,0,1,,,,,,,,,,,,,,,,,,,,,,,,,,,,,,,,,,
,,,,,,,,2023-08-16_08h36.00.693,HF_wild_card,2022.2.4,Win32,59.81934558,5dccf219aa4314964f7461d9,64d2fd46c836a06233681665,64dc7c4379bf61fd77441185,,,,,,,ctch,resources/DR.BMP,resources/DB.BMP,Door3,0.364583333,-0.033854167,1,0,0,1.1066,optionRight,70,14365,7,0,0,0,0,1,,,,,,,,,,,,,,,,,,,,,,,,,,,,,,,,,,,,,,,
,,,,,,,,2023-08-16_08h36.00.693,HF_wild_card,2022.2.4,Win32,59.81934558,5dccf219aa4314964f7461d9,64d2fd46c836a06233681665,64dc7c4379bf61fd77441185,,,,,,,ctch,resources/DP.BMP,resources/DY.BMP,Door4,-0.420572917,0.041666667,1,0,0,0.8657,optionLeft,60,14425,7,1,0,1,0,1,,,,,,,,,,,,,,,,,,,,,,,,,,,,,,,,,,,,,,,
,,,,,,,,2023-08-16_08h36.00.693,HF_wild_card,2022.2.4,Win32,59.81934558,5dccf219aa4314964f7461d9,64d2fd46c836a06233681665,64dc7c4379bf61fd77441185,,,,,,,decisionTrl,resources/DR.BMP,resources/DY.BMP,Door1,0.391927083,-0.022135417,1,0,0,1.0292,optionRight,30,14455,7,2,0,2,0,1,,,,,,,,,,,,,,,,,,,,,,,,,,,,,,,,,,,,,,,
,,,,,,,,2023-08-16_08h36.00.693,HF_wild_card,2022.2.4,Win32,59.81934558,5dccf219aa4314964f7461d9,64d2fd46c836a06233681665,64dc7c4379bf61fd77441185,,,,,,,ctch,resources/DY.BMP,resources/DP.BMP,Door4,0.345052083,-0.01171875,1,0,0,0.8463,optionRight,60,14515,7,3,0,3,0,1,,,,,,,,,,,,,,,,,,,,,,,,,,,,,,,,,,,,,,,
,,,,,,,,2023-08-16_08h36.00.693,HF_wild_card,2022.2.4,Win32,59.81934558,5dccf219aa4314964f7461d9,64d2fd46c836a06233681665,64dc7c4379bf61fd77441185,,,,,,,decisionTrl,resources/DP.BMP,resources/DB.BMP,Door4,-0.296875,0.014322917,1,0,0,1.3144,optionLeft,60,14575,7,4,0,4,0,1,,,,,,,,,,,,,,,,,,,,,,,,,,,,,,,,,,,,,,,
,,,,,,,,2023-08-16_08h36.00.693,HF_wild_card,2022.2.4,Win32,59.81934558,5dccf219aa4314964f7461d9,64d2fd46c836a06233681665,64dc7c4379bf61fd77441185,,,,,,,ctch,resources/DR.BMP,resources/DB.BMP,Door3,0.28125,-0.010416667,1,0,0,0.7497,optionRight,70,14645,7,5,0,5,0,1,,,,,,,,,,,,,,,,,,,,,,,,,,,,,,,,,,,,,,,
,,,,,,,,2023-08-16_08h36.00.693,HF_wild_card,2022.2.4,Win32,59.81934558,5dccf219aa4314964f7461d9,64d2fd46c836a06233681665,64dc7c4379bf61fd77441185,,,,,,,decisionTrl,resources/DR.BMP,resources/DY.BMP,Door1,0.37109375,0.001302083,1,0,0,1.149,optionRight,30,14675,7,6,0,6,0,1,,,,,,,,,,,,,,,,,,,,,,,,,,,,,,,,,,,,,,,
,,,,,,,,2023-08-16_08h36.00.693,HF_wild_card,2022.2.4,Win32,59.81934558,5dccf219aa4314964f7461d9,64d2fd46c836a06233681665,64dc7c4379bf61fd77441185,,,,,,,decisionTrl,resources/DP.BMP,resources/DB.BMP,Door3,0.385416667,-0.0390625,1,0,0,1.1143,optionRight,70,14745,7,7,0,7,0,1,,,,,,,,,,,,,,,,,,,,,,,,,,,,,,,,,,,,,,,
,,,,,,,,2023-08-16_08h36.00.693,HF_wild_card,2022.2.4,Win32,59.81934558,5dccf219aa4314964f7461d9,64d2fd46c836a06233681665,64dc7c4379bf61fd77441185,,,,,,,decisionTrl,resources/DY.BMP,resources/DR.BMP,Door1,-0.381510417,0.015625,1,0,0,1.1819,optionLeft,30,14775,7,8,0,8,0,1,,,,,,,,,,,,,,,,,,,,,,,,,,,,,,,,,,,,,,,
,,,,,,,,2023-08-16_08h36.00.693,HF_wild_card,2022.2.4,Win32,59.81934558,5dccf219aa4314964f7461d9,64d2fd46c836a06233681665,64dc7c4379bf61fd77441185,,,,,,,decisionTrl,resources/DB.BMP,resources/DP.BMP,Door3,-0.364583333,0.078125,1,0,0,1.2666,optionLeft,70,14845,7,9,0,9,0,1,,,,,,,,,,,,,,,,,,,,,,,,,,,,,,,,,,,,,,,
,,,,,,,,2023-08-16_08h36.00.693,HF_wild_card,2022.2.4,Win32,59.81934558,5dccf219aa4314964f7461d9,64d2fd46c836a06233681665,64dc7c4379bf61fd77441185,,,,,,,ctch,resources/DY.BMP,resources/DP.BMP,Door4,0.3359375,-0.02734375,1,0,0,0.7393,optionRight,80,14925,7,10,0,10,0,1,,,,,,,,,,,,,,,,,,,,,,,,,,,,,,,,,,,,,,,
,,,,,,,,2023-08-16_08h36.00.693,HF_wild_card,2022.2.4,Win32,59.81934558,5dccf219aa4314964f7461d9,64d2fd46c836a06233681665,64dc7c4379bf61fd77441185,,,,,,,decisionTrl,resources/DY.BMP,resources/DR.BMP,Door1,-0.313802083,0.071614583,1,0,0,1.1825,optionLeft,30,14955,7,11,0,11,0,1,,,,,,,,,,,,,,,,,,,,,,,,,,,,,,,,,,,,,,,
,,,,,,,,2023-08-16_08h36.00.693,HF_wild_card,2022.2.4,Win32,59.81934558,5dccf219aa4314964f7461d9,64d2fd46c836a06233681665,64dc7c4379bf61fd77441185,,,,,,,decisionTrl,resources/DY.BMP,resources/DR.BMP,Door1,-0.393229167,0.08984375,1,0,0,0.7813,optionLeft,30,14985,7,12,0,12,0,1,,,,,,,,,,,,,,,,,,,,,,,,,,,,,,,,,,,,,,,
,,,,,,,,2023-08-16_08h36.00.693,HF_wild_card,2022.2.4,Win32,59.81934558,5dccf219aa4314964f7461d9,64d2fd46c836a06233681665,64dc7c4379bf61fd77441185,,,,,,,decisionTrl,resources/DR.BMP,resources/DY.BMP,Door1,0.436197917,-0.016927083,1,0,0,0.9876,optionRight,30,15015,7,13,0,13,0,1,,,,,,,,,,,,,,,,,,,,,,,,,,,,,,,,,,,,,,,
,,,,,,,,2023-08-16_08h36.00.693,HF_wild_card,2022.2.4,Win32,59.81934558,5dccf219aa4314964f7461d9,64d2fd46c836a06233681665,64dc7c4379bf61fd77441185,,,,,,,ctch,resources/DR.BMP,resources/DB.BMP,Door3,0.37109375,-0.00390625,1,0,0,0.899,optionRight,70,15085,7,14,0,14,0,1,,,,,,,,,,,,,,,,,,,,,,,,,,,,,,,,,,,,,,,
,,,,,,,,2023-08-16_08h36.00.693,HF_wild_card,2022.2.4,Win32,59.81934558,5dccf219aa4314964f7461d9,64d2fd46c836a06233681665,64dc7c4379bf61fd77441185,,,,,,,ctch,resources/DB.BMP,resources/DR.BMP,Door3,-0.373697917,0.075520833,1,0,0,0.764,optionLeft,70,15155,7,15,0,15,0,1,,,,,,,,,,,,,,,,,,,,,,,,,,,,,,,,,,,,,,,
,,,,,,,,2023-08-16_08h36.00.693,HF_wild_card,2022.2.4,Win32,59.81934558,5dccf219aa4314964f7461d9,64d2fd46c836a06233681665,64dc7c4379bf61fd77441185,,,,,,,ctch,resources/DY.BMP,resources/DP.BMP,Door4,0.415364583,0.00390625,1,0,0,0.8159,optionRight,80,15235,7,16,0,16,0,1,,,,,,,,,,,,,,,,,,,,,,,,,,,,,,,,,,,,,,,
,,,,,,,,2023-08-16_08h36.00.693,HF_wild_card,2022.2.4,Win32,59.81934558,5dccf219aa4314964f7461d9,64d2fd46c836a06233681665,64dc7c4379bf61fd77441185,,,,,,,decisionTrl,resources/DB.BMP,resources/DP.BMP,Door4,0.32421875,0.00390625,1,0,0,1.2224,optionRight,60,15295,7,17,0,17,0,1,,,,,,,,,,,,,,,,,,,,,,,,,,,,,,,,,,,,,,,
,,,,,,,,2023-08-16_08h36.00.693,HF_wild_card,2022.2.4,Win32,59.81934558,5dccf219aa4314964f7461d9,64d2fd46c836a06233681665,64dc7c4379bf61fd77441185,,,,,,,decisionTrl,resources/DB.BMP,resources/DP.BMP,Door4,0.388020833,0.002604167,1,0,0,0.7807,optionRight,60,15355,7,18,0,18,0,1,,,,,,,,,,,,,,,,,,,,,,,,,,,,,,,,,,,,,,,
,,,,,,,,2023-08-16_08h36.00.693,HF_wild_card,2022.2.4,Win32,59.81934558,5dccf219aa4314964f7461d9,64d2fd46c836a06233681665,64dc7c4379bf61fd77441185,,,,,,,decisionTrl,resources/DB.BMP,resources/DP.BMP,Door4,0.38671875,0.00390625,1,0,0,0.7891,optionRight,80,15435,7,19,0,19,0,1,,,,,,,,,,,,,,,,,,,,,,,,,,,,,,,,,,,,,,,
,,,,,,,,2023-08-16_08h36.00.693,HF_wild_card,2022.2.4,Win32,59.81934558,5dccf219aa4314964f7461d9,64d2fd46c836a06233681665,64dc7c4379bf61fd77441185,,,,,,,decisionTrl,resources/DR.BMP,resources/DY.BMP,Door1,0.342447917,0.002604167,1,0,0,0.996,optionRight,30,15465,7,20,0,20,0,1,,,,,,,,,,,,,,,,,,,,,,,,,,,,,,,,,,,,,,,
,,,,,,,,2023-08-16_08h36.00.693,HF_wild_card,2022.2.4,Win32,59.81934558,5dccf219aa4314964f7461d9,64d2fd46c836a06233681665,64dc7c4379bf61fd77441185,,,,,,,decisionTrl,resources/DY.BMP,resources/DR.BMP,Door1,-0.33203125,0.08203125,1,0,0,0.9287,optionLeft,30,15495,7,21,0,21,0,1,,,,,,,,,,,,,,,,,,,,,,,,,,,,,,,,,,,,,,,
,,,,,,,,2023-08-16_08h36.00.693,HF_wild_card,2022.2.4,Win32,59.81934558,5dccf219aa4314964f7461d9,64d2fd46c836a06233681665,64dc7c4379bf61fd77441185,,,,,,,decisionTrl,resources/DR.BMP,resources/DY.BMP,Door1,0.393229167,0.01953125,1,0,0,0.7135,optionRight,30,15525,7,22,0,22,0,1,,,,,,,,,,,,,,,,,,,,,,,,,,,,,,,,,,,,,,,
,,,,,,,,2023-08-16_08h36.00.693,HF_wild_card,2022.2.4,Win32,59.81934558,5dccf219aa4314964f7461d9,64d2fd46c836a06233681665,64dc7c4379bf61fd77441185,,,,,,,decisionTrl,resources/DY.BMP,resources/DR.BMP,Door1,-0.36328125,0.09375,1,0,0,0.7633,optionLeft,30,15555,7,23,0,23,0,1,,,,,,,,,,,,,,,,,,,,,,,,,,,,,,,,,,,,,,,
,,,,,,,,2023-08-16_08h36.00.693,HF_wild_card,2022.2.4,Win32,59.81934558,5dccf219aa4314964f7461d9,64d2fd46c836a06233681665,64dc7c4379bf61fd77441185,,,,,,,decisionTrl,resources/DP.BMP,resources/DB.BMP,Door4,-0.311197917,0.076822917,1,0,0,1.3586,optionLeft,60,15615,7,24,0,24,0,1,,,,,,,,,,,,,,,,,,,,,,,,,,,,,,,,,,,,,,,
,,,,,,,,2023-08-16_08h36.00.693,HF_wild_card,2022.2.4,Win32,59.81934558,5dccf219aa4314964f7461d9,64d2fd46c836a06233681665,64dc7c4379bf61fd77441185,,,,,,,decisionTrl,resources/DP.BMP,resources/DB.BMP,Door4,-0.377604167,0.084635417,1,0,0,0.8884,optionLeft,60,15675,7,25,0,25,0,1,,,,,,,,,,,,,,,,,,,,,,,,,,,,,,,,,,,,,,,
,,,,,,,,2023-08-16_08h36.00.693,HF_wild_card,2022.2.4,Win32,59.81934558,5dccf219aa4314964f7461d9,64d2fd46c836a06233681665,64dc7c4379bf61fd77441185,,,,,,,decisionTrl,resources/DB.BMP,resources/DP.BMP,Door4,0.420572917,0.0546875,1,0,0,1.1612,optionRight,60,15735,7,26,0,26,0,1,,,,,,,,,,,,,,,,,,,,,,,,,,,,,,,,,,,,,,,
,,,,,,,,2023-08-16_08h36.00.693,HF_wild_card,2022.2.4,Win32,59.81934558,5dccf219aa4314964f7461d9,64d2fd46c836a06233681665,64dc7c4379bf61fd77441185,,,,,,,decisionTrl,resources/DR.BMP,resources/DY.BMP,Door1,0.401041667,0.006510417,1,0,0,0.8626,optionRight,30,15765,7,27,0,27,0,1,,,,,,,,,,,,,,,,,,,,,,,,,,,,,,,,,,,,,,,
,,,,,,,,2023-08-16_08h36.00.693,HF_wild_card,2022.2.4,Win32,59.81934558,5dccf219aa4314964f7461d9,64d2fd46c836a06233681665,64dc7c4379bf61fd77441185,,,,,,,ctch,resources/DP.BMP,resources/DY.BMP,Door4,-0.518229167,0.083333333,1,0,0,0.8811,optionLeft,80,15845,7,28,0,28,0,1,,,,,,,,,,,,,,,,,,,,,,,,,,,,,,,,,,,,,,,
,,,,,,,,2023-08-16_08h36.00.693,HF_wild_card,2022.2.4,Win32,59.81934558,5dccf219aa4314964f7461d9,64d2fd46c836a06233681665,64dc7c4379bf61fd77441185,,,,,,,ctch,resources/DB.BMP,resources/DR.BMP,Door3,-0.3828125,0.055989583,1,0,0,0.9991,optionLeft,70,15915,7,29,0,29,0,1,,,,,,,,,,,,,,,,,,,,,,,,,,,,,,,,,,,,,,,
,,,,,,,,2023-08-16_08h36.00.693,HF_wild_card,2022.2.4,Win32,59.81934558,5dccf219aa4314964f7461d9,64d2fd46c836a06233681665,64dc7c4379bf61fd77441185,,,,,,,decisionTrl,resources/DB.BMP,resources/DP.BMP,Door4,0.4453125,-0.014322917,1,0,0,0.7965,optionRight,60,15975,7,30,0,30,0,1,,,,,,,,,,,,,,,,,,,,,,,,,,,,,,,,,,,,,,,
,,,,,,,,2023-08-16_08h36.00.693,HF_wild_card,2022.2.4,Win32,59.81934558,5dccf219aa4314964f7461d9,64d2fd46c836a06233681665,64dc7c4379bf61fd77441185,,,,,,,decisionTrl,resources/DY.BMP,resources/DR.BMP,Door1,-0.333333333,0.078125,1,0,0,1.0304,optionLeft,30,16005,7,31,0,31,0,1,,,,,,,,,,,,,,,,,,,,,,,,,,,,,,,,,,,,,,,
,,,,,,,,2023-08-16_08h36.00.693,HF_wild_card,2022.2.4,Win32,59.81934558,5dccf219aa4314964f7461d9,64d2fd46c836a06233681665,64dc7c4379bf61fd77441185,,,,,,,decisionTrl,resources/DP.BMP,resources/DB.BMP,Door4,-0.3203125,0.0546875,1,0,0,0.7994,optionLeft,60,16065,7,32,0,32,0,1,,,,,,,,,,,,,,,,,,,,,,,,,,,,,,,,,,,,,,,
,,,,,,,,2023-08-16_08h36.00.693,HF_wild_card,2022.2.4,Win32,59.81934558,5dccf219aa4314964f7461d9,64d2fd46c836a06233681665,64dc7c4379bf61fd77441185,,,,,,,ctch,resources/DP.BMP,resources/DY.BMP,Door4,-0.321614583,0.046875,1,0,0,0.7196,optionLeft,80,16145,7,33,0,33,0,1,,,,,,,,,,,,,,,,,,,,,,,,,,,,,,,,,,,,,,,
,,,,,,,,2023-08-16_08h36.00.693,HF_wild_card,2022.2.4,Win32,59.81934558,5dccf219aa4314964f7461d9,64d2fd46c836a06233681665,64dc7c4379bf61fd77441185,,,,,,,decisionTrl,resources/DP.BMP,resources/DB.BMP,Door4,-0.427083333,0.08984375,1,0,0,0.7711,optionLeft,60,16205,7,34,0,34,0,1,,,,,,,,,,,,,,,,,,,,,,,,,,,,,,,,,,,,,,,
,,,,,,,,2023-08-16_08h36.00.693,HF_wild_card,2022.2.4,Win32,59.81934558,5dccf219aa4314964f7461d9,64d2fd46c836a06233681665,64dc7c4379bf61fd77441185,,,,,,,ctch,resources/DB.BMP,resources/DR.BMP,Door3,-0.365885417,0.092447917,1,0,0,0.7374,optionLeft,70,16275,7,35,0,35,0,1,,,,,,,,,,,,,,,,,,,,,,,,,,,,,,,,,,,,,,,
,,,,,,,,2023-08-16_08h36.00.693,HF_wild_card,2022.2.4,Win32,59.81934558,5dccf219aa4314964f7461d9,64d2fd46c836a06233681665,64dc7c4379bf61fd77441185,,,,,,,,,,,,,,,,,,,,,,,,,,6,0,6,0,1,,,,,,,,,,,,,,,,,,,,,,,,,,,,,,,,,,
,,,,,,,,2023-08-16_08h36.00.693,HF_wild_card,2022.2.4,Win32,59.81934558,5dccf219aa4314964f7461d9,64d2fd46c836a06233681665,64dc7c4379bf61fd77441185,,,,,,,,,,,,,,,,,,,,,,,,,,,,,,,4,,,,,,,,,,,,,,,,,,,,,,,,,,,,,,,,,
,,,,,,,,2023-08-16_08h36.00.693,HF_wild_card,2022.2.4,Win32,59.81934558,5dccf219aa4314964f7461d9,64d2fd46c836a06233681665,64dc7c4379bf61fd77441185,,,,,,,,,,,,,,,,,,,,,,,,,,,,,,,,,,,,,,,,,,,,,,,,,,,,,,,,,,,,,,,,
,,,,,,,,2023-08-16_08h36.00.693,HF_wild_card,2022.2.4,Win32,59.81934558,5dccf219aa4314964f7461d9,64d2fd46c836a06233681665,64dc7c4379bf61fd77441185,,,,,,,,,,,,,,,,,,,,,,,,,,,,,,,,70,Door4,resources/DP.BMP,0,0,0,0,1,,,,,,,,,,,,,,,,,,,,,,,,,
,,,,,,,,2023-08-16_08h36.00.693,HF_wild_card,2022.2.4,Win32,59.81934558,5dccf219aa4314964f7461d9,64d2fd46c836a06233681665,64dc7c4379bf61fd77441185,,,,,,,,,,,,,,,,,,,,,,,,,,,,,,,,60,Door3,resources/DB.BMP,1,0,1,0,1,,,,,,,,,,,,,,,,,,,,,,,,,
,,,,,,,,2023-08-16_08h36.00.693,HF_wild_card,2022.2.4,Win32,59.81934558,5dccf219aa4314964f7461d9,64d2fd46c836a06233681665,64dc7c4379bf61fd77441185,,,,,,,,,,,,,,,,,,,,,,,,,,,,,,,,95,WC_extreme,resources/DBN.BMP,2,0,2,0,1,,,,,,,,,,,,,,,,,,,,,,,,,
,,,,,,,,2023-08-16_08h36.00.693,HF_wild_card,2022.2.4,Win32,59.81934558,5dccf219aa4314964f7461d9,64d2fd46c836a06233681665,64dc7c4379bf61fd77441185,,,,,,,,,,,,,,,,,,,,,,,,,,,,,,,,55,WC_nonExtreme,resources/DG.BMP,3,0,3,0,1,,,,,,,,,,,,,,,,,,,,,,,,,
,,,,,,,,2023-08-16_08h36.00.693,HF_wild_card,2022.2.4,Win32,59.81934558,5dccf219aa4314964f7461d9,64d2fd46c836a06233681665,64dc7c4379bf61fd77441185,,,,,,,,,,,,,,,,,,,,,,,,,,,,,,,,30,Door1,resources/DY.BMP,4,0,4,0,1,,,,,,,,,,,,,,,,,,,,,,,,,
,,,,,,,,2023-08-16_08h36.00.693,HF_wild_card,2022.2.4,Win32,59.81934558,5dccf219aa4314964f7461d9,64d2fd46c836a06233681665,64dc7c4379bf61fd77441185,,,,,,,,,,,,,,,,,,,,,,,,,,,,,,,,20,Door2,resources/DR.BMP,5,0,5,0,1,,,,,,,,,,,,,,,,,,,,,,,,,
,,,,,,,,2023-08-16_08h36.00.693,HF_wild_card,2022.2.4,Win32,59.81934558,5dccf219aa4314964f7461d9,64d2fd46c836a06233681665,64dc7c4379bf61fd77441185,,,,,,,,,,,,,,,,,,,,,,,,,,,,,,,,,,,,,,,,,,,,,,,,,,,,,,,,,,,,,,,,
,,,,,,,,2023-08-16_08h36.00.693,HF_wild_card,2022.2.4,Win32,59.81934558,5dccf219aa4314964f7461d9,64d2fd46c836a06233681665,64dc7c4379bf61fd77441185,,,,,,,,,,,,,,,,,,,,,,,,,,,,,,,,,,,,,,,,0,0,0,0,1,,,,,,,,,,,,,,,,,,,,
,,,,,,,,2023-08-16_08h36.00.693,HF_wild_card,2022.2.4,Win32,59.81934558,5dccf219aa4314964f7461d9,64d2fd46c836a06233681665,64dc7c4379bf61fd77441185,,,,,,,,,,,,,,,,,,,,,,,,,,,,,,,,,,,,,,,,1,0,1,0,1,,,,,,,,,,,,,,,,,,,,
