Condition,Low fixed image (Door1),Low risky image (Door2),High fixed image (Door3),High risky image (Door4),Extreme Wild Card,NonExtreme Wild Card,,date,expName,psychopyVersion,OS,frameRate,PROLIFIC_PID,STUDY_ID,SESSION_ID,mouse_2.x,mouse_2.y,mouse_2.leftButton,mouse_2.midButton,mouse_2.rightButton,mouse_2.clicked_name,Trial Type,Left Option Image,Right Option Image,Chosen Door,mouse.x,mouse.y,mouse.leftButton,mouse.midButton,mouse.rightButton,mouse.time,mouse.clicked_name,Feedback,Cumulative Reward,Block,trial.thisRepN,trial.thisTrialN,trial.thisN,trial.thisIndex,trial.ran,blocks.thisRepN,blocks.thisTrialN,blocks.thisN,blocks.thisIndex,blocks.ran,Money conversion,First Outcome Reported,Shown Door (First Outcome),Displayed Image (First Outcome),outcomes.thisRepN,outcomes.thisTrialN,outcomes.thisN,outcomes.thisIndex,outcomes.ran,judgments.thisRepN,judgments.thisTrialN,judgments.thisN,judgments.thisIndex,judgments.ran,freqMouse.x,freqMouse.y,freqMouse.leftButton,freqMouse.midButton,freqMouse.rightButton,freqMouse.clicked_name,FQJ for first outcome,FQJ for second outcome,Shown Door,Displayed Image,trials.thisRepN,trials.thisTrialN,trials.thisN,trials.thisIndex,trials.ran,judgBlock.thisRepN,judgBlock.thisTrialN,judgBlock.thisN,judgBlock.thisIndex,judgBlock.ran
0,resources/DP.BMP,resources/DG.BMP,resources/DBN.BMP,resources/DR.BMP,resources/DY.BMP,resources/DB.BMP,,2023-08-16_08h48.09.342,HF_wild_card,2022.2.4,Win32,59.94125757,63d13f8a6bae53e55ef876c2,64d2fd46c836a06233681665,64dc7f2b02f60401466f0a82,,,,,,,,,,,,,,,,,,,,,,,,,,,,,,,,,,,,,,,,,,,,,,,,,,,,,,,,,,,,,,,,
,,,,,,,,2023-08-16_08h48.09.342,HF_wild_card,2022.2.4,Win32,59.94125757,63d13f8a6bae53e55ef876c2,64d2fd46c836a06233681665,64dc7f2b02f60401466f0a82,0.009259259,-0.423148148,1,0,0,agree,,,,,,,,,,,,,,,,,,,,,,,,,,,,,,,,,,,,,,,,,,,,,,,,,,,,,,,,,,
,,,,,,,,2023-08-16_08h48.09.342,HF_wild_card,2022.2.4,Win32,59.94125757,63d13f8a6bae53e55ef876c2,64d2fd46c836a06233681665,64dc7f2b02f60401466f0a82,,,,,,,,,,,,,,,,,,,,,,,,,,,,,,,,,,,,,,,,,,,,,,,,,,,,,,,,,,,,,,,,
,,,,,,,,2023-08-16_08h48.09.342,HF_wild_card,2022.2.4,Win32,59.94125757,63d13f8a6bae53e55ef876c2,64d2fd46c836a06233681665,64dc7f2b02f60401466f0a82,,,,,,,decisionTrl,resources/DY.BMP,resources/DBN.BMP,WildCard_Ex,-0.337962963,0.000925926,1,0,0,2.2115,optionLeft,95,95,1,0,0,0,0,1,,,,,,,,,,,,,,,,,,,,,,,,,,,,,,,,,,,,,,,
,,,,,,,,2023-08-16_08h48.09.342,HF_wild_card,2022.2.4,Win32,59.94125757,63d13f8a6bae53e55ef876c2,64d2fd46c836a06233681665,64dc7f2b02f60401466f0a82,,,,,,,decisionTrl,resources/DR.BMP,resources/DBN.BMP,Door3,0.342592593,0.005555556,1,0,0,1.5637,optionRight,70,165,1,1,0,1,0,1,,,,,,,,,,,,,,,,,,,,,,,,,,,,,,,,,,,,,,,
,,,,,,,,2023-08-16_08h48.09.342,HF_wild_card,2022.2.4,Win32,59.94125757,63d13f8a6bae53e55ef876c2,64d2fd46c836a06233681665,64dc7f2b02f60401466f0a82,,,,,,,ctch,resources/DR.BMP,resources/DP.BMP,Door1,0.373148148,-0.035185185,1,0,0,0.8935,optionRight,30,195,1,2,0,2,0,1,,,,,,,,,,,,,,,,,,,,,,,,,,,,,,,,,,,,,,,
,,,,,,,,2023-08-16_08h48.09.342,HF_wild_card,2022.2.4,Win32,59.94125757,63d13f8a6bae53e55ef876c2,64d2fd46c836a06233681665,64dc7f2b02f60401466f0a82,,,,,,,decisionTrl,resources/DR.BMP,resources/DY.BMP,WildCard_Ex,0.372222222,-0.014814815,1,0,0,0.8615,optionRight,5,200,1,3,0,3,0,1,,,,,,,,,,,,,,,,,,,,,,,,,,,,,,,,,,,,,,,
,,,,,,,,2023-08-16_08h48.09.342,HF_wild_card,2022.2.4,Win32,59.94125757,63d13f8a6bae53e55ef876c2,64d2fd46c836a06233681665,64dc7f2b02f60401466f0a82,,,,,,,decisionTrl,resources/DR.BMP,resources/DBN.BMP,Door3,0.32037037,0.012962963,1,0,0,1.0937,optionRight,70,270,1,4,0,4,0,1,,,,,,,,,,,,,,,,,,,,,,,,,,,,,,,,,,,,,,,
,,,,,,,,2023-08-16_08h48.09.342,HF_wild_card,2022.2.4,Win32,59.94125757,63d13f8a6bae53e55ef876c2,64d2fd46c836a06233681665,64dc7f2b02f60401466f0a82,,,,,,,sngl,resources/DY.BMP,resources/Empty.png,WildCard_Ex,-0.426851852,-0.010185185,1,0,0,1.6605,optionLeft,95,365,1,5,0,5,0,1,,,,,,,,,,,,,,,,,,,,,,,,,,,,,,,,,,,,,,,
,,,,,,,,2023-08-16_08h48.09.342,HF_wild_card,2022.2.4,Win32,59.94125757,63d13f8a6bae53e55ef876c2,64d2fd46c836a06233681665,64dc7f2b02f60401466f0a82,,,,,,,ctch,resources/DG.BMP,resources/DBN.BMP,Door2,-0.362962963,0.001851852,1,0,0,1.1424,optionLeft,40,405,1,6,0,6,0,1,,,,,,,,,,,,,,,,,,,,,,,,,,,,,,,,,,,,,,,
,,,,,,,,2023-08-16_08h48.09.342,HF_wild_card,2022.2.4,Win32,59.94125757,63d13f8a6bae53e55ef876c2,64d2fd46c836a06233681665,64dc7f2b02f60401466f0a82,,,,,,,sngl,resources/DY.BMP,resources/Empty.png,WildCard_Ex,-0.461111111,-0.013888889,1,0,0,0.7767,optionLeft,5,410,1,7,0,7,0,1,,,,,,,,,,,,,,,,,,,,,,,,,,,,,,,,,,,,,,,
,,,,,,,,2023-08-16_08h48.09.342,HF_wild_card,2022.2.4,Win32,59.94125757,63d13f8a6bae53e55ef876c2,64d2fd46c836a06233681665,64dc7f2b02f60401466f0a82,,,,,,,decisionTrl,resources/DR.BMP,resources/DBN.BMP,Door3,0.399074074,-0.001851852,1,0,0,0.7948,optionRight,70,480,1,8,0,8,0,1,,,,,,,,,,,,,,,,,,,,,,,,,,,,,,,,,,,,,,,
,,,,,,,,2023-08-16_08h48.09.342,HF_wild_card,2022.2.4,Win32,59.94125757,63d13f8a6bae53e55ef876c2,64d2fd46c836a06233681665,64dc7f2b02f60401466f0a82,,,,,,,decisionTrl,resources/DP.BMP,resources/DG.BMP,Door1,-0.384259259,-0.026851852,1,0,0,0.8609,optionLeft,30,510,1,9,0,9,0,1,,,,,,,,,,,,,,,,,,,,,,,,,,,,,,,,,,,,,,,
,,,,,,,,2023-08-16_08h48.09.342,HF_wild_card,2022.2.4,Win32,59.94125757,63d13f8a6bae53e55ef876c2,64d2fd46c836a06233681665,64dc7f2b02f60401466f0a82,,,,,,,decisionTrl,resources/DBN.BMP,resources/DR.BMP,Door3,-0.434259259,-0.003703704,1,0,0,0.8965,optionLeft,70,580,1,10,0,10,0,1,,,,,,,,,,,,,,,,,,,,,,,,,,,,,,,,,,,,,,,
,,,,,,,,2023-08-16_08h48.09.342,HF_wild_card,2022.2.4,Win32,59.94125757,63d13f8a6bae53e55ef876c2,64d2fd46c836a06233681665,64dc7f2b02f60401466f0a82,,,,,,,decisionTrl,resources/DP.BMP,resources/DG.BMP,Door1,-0.446296296,-0.008333333,1,0,0,1.5325,optionLeft,30,610,1,11,0,11,0,1,,,,,,,,,,,,,,,,,,,,,,,,,,,,,,,,,,,,,,,
,,,,,,,,2023-08-16_08h48.09.342,HF_wild_card,2022.2.4,Win32,59.94125757,63d13f8a6bae53e55ef876c2,64d2fd46c836a06233681665,64dc7f2b02f60401466f0a82,,,,,,,decisionTrl,resources/DG.BMP,resources/DP.BMP,Door1,0.387962963,0.000925926,1,0,0,0.8283,optionRight,30,640,1,12,0,12,0,1,,,,,,,,,,,,,,,,,,,,,,,,,,,,,,,,,,,,,,,
,,,,,,,,2023-08-16_08h48.09.342,HF_wild_card,2022.2.4,Win32,59.94125757,63d13f8a6bae53e55ef876c2,64d2fd46c836a06233681665,64dc7f2b02f60401466f0a82,,,,,,,decisionTrl,resources/DBN.BMP,resources/DR.BMP,Door3,-0.382407407,0.017592593,1,0,0,0.6296,optionLeft,70,710,1,13,0,13,0,1,,,,,,,,,,,,,,,,,,,,,,,,,,,,,,,,,,,,,,,
,,,,,,,,2023-08-16_08h48.09.342,HF_wild_card,2022.2.4,Win32,59.94125757,63d13f8a6bae53e55ef876c2,64d2fd46c836a06233681665,64dc7f2b02f60401466f0a82,,,,,,,ctch,resources/DP.BMP,resources/DR.BMP,Door4,0.317592593,-0.022222222,1,0,0,0.6782,optionRight,80,790,1,14,0,14,0,1,,,,,,,,,,,,,,,,,,,,,,,,,,,,,,,,,,,,,,,
,,,,,,,,2023-08-16_08h48.09.342,HF_wild_card,2022.2.4,Win32,59.94125757,63d13f8a6bae53e55ef876c2,64d2fd46c836a06233681665,64dc7f2b02f60401466f0a82,,,,,,,ctch,resources/DP.BMP,resources/DR.BMP,Door4,0.361111111,-0.007407407,1,0,0,0.6965,optionRight,60,850,1,15,0,15,0,1,,,,,,,,,,,,,,,,,,,,,,,,,,,,,,,,,,,,,,,
,,,,,,,,2023-08-16_08h48.09.342,HF_wild_card,2022.2.4,Win32,59.94125757,63d13f8a6bae53e55ef876c2,64d2fd46c836a06233681665,64dc7f2b02f60401466f0a82,,,,,,,sngl,resources/DR.BMP,resources/Empty.png,Door4,-0.432407407,-0.005555556,1,0,0,0.6779,optionLeft,80,930,1,16,0,16,0,1,,,,,,,,,,,,,,,,,,,,,,,,,,,,,,,,,,,,,,,
,,,,,,,,2023-08-16_08h48.09.342,HF_wild_card,2022.2.4,Win32,59.94125757,63d13f8a6bae53e55ef876c2,64d2fd46c836a06233681665,64dc7f2b02f60401466f0a82,,,,,,,ctch,resources/DBN.BMP,resources/DG.BMP,Door3,-0.262962963,0.024074074,1,0,0,0.7925,optionLeft,70,1000,1,17,0,17,0,1,,,,,,,,,,,,,,,,,,,,,,,,,,,,,,,,,,,,,,,
,,,,,,,,2023-08-16_08h48.09.342,HF_wild_card,2022.2.4,Win32,59.94125757,63d13f8a6bae53e55ef876c2,64d2fd46c836a06233681665,64dc7f2b02f60401466f0a82,,,,,,,sngl,resources/Empty.png,resources/DP.BMP,Door1,0.375925926,-0.012037037,1,0,0,0.6991,optionRight,30,1030,1,18,0,18,0,1,,,,,,,,,,,,,,,,,,,,,,,,,,,,,,,,,,,,,,,
,,,,,,,,2023-08-16_08h48.09.342,HF_wild_card,2022.2.4,Win32,59.94125757,63d13f8a6bae53e55ef876c2,64d2fd46c836a06233681665,64dc7f2b02f60401466f0a82,,,,,,,decisionTrl,resources/DR.BMP,resources/DBN.BMP,Door4,-0.396296296,-0.026851852,1,0,0,0.9952,optionLeft,80,1110,1,19,0,19,0,1,,,,,,,,,,,,,,,,,,,,,,,,,,,,,,,,,,,,,,,
,,,,,,,,2023-08-16_08h48.09.342,HF_wild_card,2022.2.4,Win32,59.94125757,63d13f8a6bae53e55ef876c2,64d2fd46c836a06233681665,64dc7f2b02f60401466f0a82,,,,,,,sngl,resources/DP.BMP,resources/Empty.png,Door1,-0.303703704,-0.016666667,1,0,0,0.7101,optionLeft,30,1140,1,20,0,20,0,1,,,,,,,,,,,,,,,,,,,,,,,,,,,,,,,,,,,,,,,
,,,,,,,,2023-08-16_08h48.09.342,HF_wild_card,2022.2.4,Win32,59.94125757,63d13f8a6bae53e55ef876c2,64d2fd46c836a06233681665,64dc7f2b02f60401466f0a82,,,,,,,sngl,resources/Empty.png,resources/DY.BMP,WildCard_Ex,0.29537037,-0.012962963,1,0,0,0.6952,optionRight,95,1235,1,21,0,21,0,1,,,,,,,,,,,,,,,,,,,,,,,,,,,,,,,,,,,,,,,
,,,,,,,,2023-08-16_08h48.09.342,HF_wild_card,2022.2.4,Win32,59.94125757,63d13f8a6bae53e55ef876c2,64d2fd46c836a06233681665,64dc7f2b02f60401466f0a82,,,,,,,decisionTrl,resources/DBN.BMP,resources/DY.BMP,WildCard_Ex,0.358333333,0.006481481,1,0,0,0.5765,optionRight,5,1240,1,22,0,22,0,1,,,,,,,,,,,,,,,,,,,,,,,,,,,,,,,,,,,,,,,
,,,,,,,,2023-08-16_08h48.09.342,HF_wild_card,2022.2.4,Win32,59.94125757,63d13f8a6bae53e55ef876c2,64d2fd46c836a06233681665,64dc7f2b02f60401466f0a82,,,,,,,sngl,resources/Empty.png,resources/DY.BMP,WildCard_Ex,0.292592593,-0.013888889,1,0,0,0.6116,optionRight,5,1245,1,23,0,23,0,1,,,,,,,,,,,,,,,,,,,,,,,,,,,,,,,,,,,,,,,
,,,,,,,,2023-08-16_08h48.09.342,HF_wild_card,2022.2.4,Win32,59.94125757,63d13f8a6bae53e55ef876c2,64d2fd46c836a06233681665,64dc7f2b02f60401466f0a82,,,,,,,decisionTrl,resources/DP.BMP,resources/DG.BMP,Door1,-0.480555556,-0.018518519,1,0,0,1.6139,optionLeft,30,1275,1,24,0,24,0,1,,,,,,,,,,,,,,,,,,,,,,,,,,,,,,,,,,,,,,,
,,,,,,,,2023-08-16_08h48.09.342,HF_wild_card,2022.2.4,Win32,59.94125757,63d13f8a6bae53e55ef876c2,64d2fd46c836a06233681665,64dc7f2b02f60401466f0a82,,,,,,,decisionTrl,resources/DBN.BMP,resources/DR.BMP,Door3,-0.399074074,0.014814815,1,0,0,0.6952,optionLeft,70,1345,1,25,0,25,0,1,,,,,,,,,,,,,,,,,,,,,,,,,,,,,,,,,,,,,,,
,,,,,,,,2023-08-16_08h48.09.342,HF_wild_card,2022.2.4,Win32,59.94125757,63d13f8a6bae53e55ef876c2,64d2fd46c836a06233681665,64dc7f2b02f60401466f0a82,,,,,,,decisionTrl,resources/DG.BMP,resources/DP.BMP,Door1,0.366666667,-0.022222222,1,0,0,0.7618,optionRight,30,1375,1,26,0,26,0,1,,,,,,,,,,,,,,,,,,,,,,,,,,,,,,,,,,,,,,,
,,,,,,,,2023-08-16_08h48.09.342,HF_wild_card,2022.2.4,Win32,59.94125757,63d13f8a6bae53e55ef876c2,64d2fd46c836a06233681665,64dc7f2b02f60401466f0a82,,,,,,,sngl,resources/Empty.png,resources/DG.BMP,Door2,0.29537037,-0.003703704,1,0,0,0.5927,optionRight,20,1395,1,27,0,27,0,1,,,,,,,,,,,,,,,,,,,,,,,,,,,,,,,,,,,,,,,
,,,,,,,,2023-08-16_08h48.09.342,HF_wild_card,2022.2.4,Win32,59.94125757,63d13f8a6bae53e55ef876c2,64d2fd46c836a06233681665,64dc7f2b02f60401466f0a82,,,,,,,decisionTrl,resources/DG.BMP,resources/DP.BMP,Door2,-0.342592593,-0.000925926,1,0,0,0.7268,optionLeft,20,1415,1,28,0,28,0,1,,,,,,,,,,,,,,,,,,,,,,,,,,,,,,,,,,,,,,,
,,,,,,,,2023-08-16_08h48.09.342,HF_wild_card,2022.2.4,Win32,59.94125757,63d13f8a6bae53e55ef876c2,64d2fd46c836a06233681665,64dc7f2b02f60401466f0a82,,,,,,,sngl,resources/DBN.BMP,resources/Empty.png,Door3,-0.32037037,0.017592593,1,0,0,0.6628,optionLeft,70,1485,1,29,0,29,0,1,,,,,,,,,,,,,,,,,,,,,,,,,,,,,,,,,,,,,,,
,,,,,,,,2023-08-16_08h48.09.342,HF_wild_card,2022.2.4,Win32,59.94125757,63d13f8a6bae53e55ef876c2,64d2fd46c836a06233681665,64dc7f2b02f60401466f0a82,,,,,,,sngl,resources/DG.BMP,resources/Empty.png,Door2,-0.282407407,-0.012037037,1,0,0,0.7784,optionLeft,40,1525,1,30,0,30,0,1,,,,,,,,,,,,,,,,,,,,,,,,,,,,,,,,,,,,,,,
,,,,,,,,2023-08-16_08h48.09.342,HF_wild_card,2022.2.4,Win32,59.94125757,63d13f8a6bae53e55ef876c2,64d2fd46c836a06233681665,64dc7f2b02f60401466f0a82,,,,,,,decisionTrl,resources/DY.BMP,resources/DP.BMP,Door1,0.284259259,-0.016666667,1,0,0,0.8612,optionRight,30,1555,1,31,0,31,0,1,,,,,,,,,,,,,,,,,,,,,,,,,,,,,,,,,,,,,,,
,,,,,,,,2023-08-16_08h48.09.342,HF_wild_card,2022.2.4,Win32,59.94125757,63d13f8a6bae53e55ef876c2,64d2fd46c836a06233681665,64dc7f2b02f60401466f0a82,,,,,,,ctch,resources/DR.BMP,resources/DP.BMP,Door4,-0.325,0,1,0,0,0.8452,optionLeft,80,1635,1,32,0,32,0,1,,,,,,,,,,,,,,,,,,,,,,,,,,,,,,,,,,,,,,,
,,,,,,,,2023-08-16_08h48.09.342,HF_wild_card,2022.2.4,Win32,59.94125757,63d13f8a6bae53e55ef876c2,64d2fd46c836a06233681665,64dc7f2b02f60401466f0a82,,,,,,,sngl,resources/Empty.png,resources/DR.BMP,Door4,0.307407407,-0.017592593,1,0,0,0.6453,optionRight,60,1695,1,33,0,33,0,1,,,,,,,,,,,,,,,,,,,,,,,,,,,,,,,,,,,,,,,
,,,,,,,,2023-08-16_08h48.09.342,HF_wild_card,2022.2.4,Win32,59.94125757,63d13f8a6bae53e55ef876c2,64d2fd46c836a06233681665,64dc7f2b02f60401466f0a82,,,,,,,decisionTrl,resources/DP.BMP,resources/DG.BMP,Door1,-0.342592593,-0.012962963,1,0,0,0.6619,optionLeft,30,1725,1,34,0,34,0,1,,,,,,,,,,,,,,,,,,,,,,,,,,,,,,,,,,,,,,,
,,,,,,,,2023-08-16_08h48.09.342,HF_wild_card,2022.2.4,Win32,59.94125757,63d13f8a6bae53e55ef876c2,64d2fd46c836a06233681665,64dc7f2b02f60401466f0a82,,,,,,,decisionTrl,resources/DG.BMP,resources/DP.BMP,Door1,0.307407407,-0.000925926,1,0,0,0.5291,optionRight,30,1755,1,35,0,35,0,1,,,,,,,,,,,,,,,,,,,,,,,,,,,,,,,,,,,,,,,
,,,,,,,,2023-08-16_08h48.09.342,HF_wild_card,2022.2.4,Win32,59.94125757,63d13f8a6bae53e55ef876c2,64d2fd46c836a06233681665,64dc7f2b02f60401466f0a82,,,,,,,sngl,resources/Empty.png,resources/DBN.BMP,Door3,0.366666667,-0.010185185,1,0,0,0.5788,optionRight,70,1825,1,36,0,36,0,1,,,,,,,,,,,,,,,,,,,,,,,,,,,,,,,,,,,,,,,
,,,,,,,,2023-08-16_08h48.09.342,HF_wild_card,2022.2.4,Win32,59.94125757,63d13f8a6bae53e55ef876c2,64d2fd46c836a06233681665,64dc7f2b02f60401466f0a82,,,,,,,decisionTrl,resources/DBN.BMP,resources/DR.BMP,Door4,0.182407407,0.007407407,1,0,0,0.7119,optionRight,80,1905,1,37,0,37,0,1,,,,,,,,,,,,,,,,,,,,,,,,,,,,,,,,,,,,,,,
,,,,,,,,2023-08-16_08h48.09.342,HF_wild_card,2022.2.4,Win32,59.94125757,63d13f8a6bae53e55ef876c2,64d2fd46c836a06233681665,64dc7f2b02f60401466f0a82,,,,,,,ctch,resources/DBN.BMP,resources/DG.BMP,Door3,-0.35462963,-0.007407407,1,0,0,0.6618,optionLeft,70,1975,1,38,0,38,0,1,,,,,,,,,,,,,,,,,,,,,,,,,,,,,,,,,,,,,,,
,,,,,,,,2023-08-16_08h48.09.342,HF_wild_card,2022.2.4,Win32,59.94125757,63d13f8a6bae53e55ef876c2,64d2fd46c836a06233681665,64dc7f2b02f60401466f0a82,,,,,,,ctch,resources/DG.BMP,resources/DBN.BMP,Door3,0.336111111,-0.005555556,1,0,0,0.6624,optionRight,70,2045,1,39,0,39,0,1,,,,,,,,,,,,,,,,,,,,,,,,,,,,,,,,,,,,,,,
,,,,,,,,2023-08-16_08h48.09.342,HF_wild_card,2022.2.4,Win32,59.94125757,63d13f8a6bae53e55ef876c2,64d2fd46c836a06233681665,64dc7f2b02f60401466f0a82,,,,,,,decisionTrl,resources/DG.BMP,resources/DY.BMP,WildCard_Ex,0.412962963,-0.008333333,1,0,0,1.5162,optionRight,95,2140,1,40,0,40,0,1,,,,,,,,,,,,,,,,,,,,,,,,,,,,,,,,,,,,,,,
,,,,,,,,2023-08-16_08h48.09.342,HF_wild_card,2022.2.4,Win32,59.94125757,63d13f8a6bae53e55ef876c2,64d2fd46c836a06233681665,64dc7f2b02f60401466f0a82,,,,,,,decisionTrl,resources/DY.BMP,resources/DR.BMP,WildCard_Ex,-0.40462963,-0.001851852,1,0,0,0.6117,optionLeft,5,2145,1,41,0,41,0,1,,,,,,,,,,,,,,,,,,,,,,,,,,,,,,,,,,,,,,,
,,,,,,,,2023-08-16_08h48.09.342,HF_wild_card,2022.2.4,Win32,59.94125757,63d13f8a6bae53e55ef876c2,64d2fd46c836a06233681665,64dc7f2b02f60401466f0a82,,,,,,,decisionTrl,resources/DP.BMP,resources/DY.BMP,WildCard_Ex,0.413888889,0.005555556,1,0,0,0.6449,optionRight,95,2240,1,42,0,42,0,1,,,,,,,,,,,,,,,,,,,,,,,,,,,,,,,,,,,,,,,
,,,,,,,,2023-08-16_08h48.09.342,HF_wild_card,2022.2.4,Win32,59.94125757,63d13f8a6bae53e55ef876c2,64d2fd46c836a06233681665,64dc7f2b02f60401466f0a82,,,,,,,decisionTrl,resources/DY.BMP,resources/DG.BMP,WildCard_Ex,-0.335185185,0.011111111,1,0,0,0.6478,optionLeft,95,2335,1,43,0,43,0,1,,,,,,,,,,,,,,,,,,,,,,,,,,,,,,,,,,,,,,,
,,,,,,,,2023-08-16_08h48.09.342,HF_wild_card,2022.2.4,Win32,59.94125757,63d13f8a6bae53e55ef876c2,64d2fd46c836a06233681665,64dc7f2b02f60401466f0a82,,,,,,,,,,,,,,,,,,,,,,,,,,0,0,0,0,1,,,,,,,,,,,,,,,,,,,,,,,,,,,,,,,,,,
,,,,,,,,2023-08-16_08h48.09.342,HF_wild_card,2022.2.4,Win32,59.94125757,63d13f8a6bae53e55ef876c2,64d2fd46c836a06233681665,64dc7f2b02f60401466f0a82,,,,,,,decisionTrl,resources/DG.BMP,resources/DP.BMP,Door1,0.346296296,-0.064814815,1,0,0,1.0046,optionRight,30,2365,2,0,0,0,0,1,,,,,,,,,,,,,,,,,,,,,,,,,,,,,,,,,,,,,,,
,,,,,,,,2023-08-16_08h48.09.342,HF_wild_card,2022.2.4,Win32,59.94125757,63d13f8a6bae53e55ef876c2,64d2fd46c836a06233681665,64dc7f2b02f60401466f0a82,,,,,,,decisionTrl,resources/DP.BMP,resources/DG.BMP,Door1,-0.414814815,-0.024074074,1,0,0,1.7624,optionLeft,30,2395,2,1,0,1,0,1,,,,,,,,,,,,,,,,,,,,,,,,,,,,,,,,,,,,,,,
,,,,,,,,2023-08-16_08h48.09.342,HF_wild_card,2022.2.4,Win32,59.94125757,63d13f8a6bae53e55ef876c2,64d2fd46c836a06233681665,64dc7f2b02f60401466f0a82,,,,,,,ctch,resources/DG.BMP,resources/DBN.BMP,Door3,0.357407407,0,1,0,0,0.5777,optionRight,70,2465,2,2,0,2,0,1,,,,,,,,,,,,,,,,,,,,,,,,,,,,,,,,,,,,,,,
,,,,,,,,2023-08-16_08h48.09.342,HF_wild_card,2022.2.4,Win32,59.94125757,63d13f8a6bae53e55ef876c2,64d2fd46c836a06233681665,64dc7f2b02f60401466f0a82,,,,,,,decisionTrl,resources/DY.BMP,resources/DG.BMP,WildCard_Ex,-0.363888889,-0.007407407,1,0,0,0.7785,optionLeft,95,2560,2,3,0,3,0,1,,,,,,,,,,,,,,,,,,,,,,,,,,,,,,,,,,,,,,,
,,,,,,,,2023-08-16_08h48.09.342,HF_wild_card,2022.2.4,Win32,59.94125757,63d13f8a6bae53e55ef876c2,64d2fd46c836a06233681665,64dc7f2b02f60401466f0a82,,,,,,,ctch,resources/DG.BMP,resources/DBN.BMP,Door3,0.389814815,-0.022222222,1,0,0,0.6342,optionRight,70,2630,2,4,0,4,0,1,,,,,,,,,,,,,,,,,,,,,,,,,,,,,,,,,,,,,,,
,,,,,,,,2023-08-16_08h48.09.342,HF_wild_card,2022.2.4,Win32,59.94125757,63d13f8a6bae53e55ef876c2,64d2fd46c836a06233681665,64dc7f2b02f60401466f0a82,,,,,,,decisionTrl,resources/DR.BMP,resources/DBN.BMP,Door3,0.302777778,0.013888889,1,0,0,0.7961,optionRight,70,2700,2,5,0,5,0,1,,,,,,,,,,,,,,,,,,,,,,,,,,,,,,,,,,,,,,,
,,,,,,,,2023-08-16_08h48.09.342,HF_wild_card,2022.2.4,Win32,59.94125757,63d13f8a6bae53e55ef876c2,64d2fd46c836a06233681665,64dc7f2b02f60401466f0a82,,,,,,,decisionTrl,resources/DG.BMP,resources/DP.BMP,Door1,0.348148148,-0.015740741,1,0,0,1.1456,optionRight,30,2730,2,6,0,6,0,1,,,,,,,,,,,,,,,,,,,,,,,,,,,,,,,,,,,,,,,
,,,,,,,,2023-08-16_08h48.09.342,HF_wild_card,2022.2.4,Win32,59.94125757,63d13f8a6bae53e55ef876c2,64d2fd46c836a06233681665,64dc7f2b02f60401466f0a82,,,,,,,decisionTrl,resources/DR.BMP,resources/DBN.BMP,Door4,-0.335185185,0.001851852,1,0,0,0.7787,optionLeft,60,2790,2,7,0,7,0,1,,,,,,,,,,,,,,,,,,,,,,,,,,,,,,,,,,,,,,,
,,,,,,,,2023-08-16_08h48.09.342,HF_wild_card,2022.2.4,Win32,59.94125757,63d13f8a6bae53e55ef876c2,64d2fd46c836a06233681665,64dc7f2b02f60401466f0a82,,,,,,,ctch,resources/DP.BMP,resources/DR.BMP,Door4,0.34537037,-0.003703704,1,0,0,0.8292,optionRight,80,2870,2,8,0,8,0,1,,,,,,,,,,,,,,,,,,,,,,,,,,,,,,,,,,,,,,,
,,,,,,,,2023-08-16_08h48.09.342,HF_wild_card,2022.2.4,Win32,59.94125757,63d13f8a6bae53e55ef876c2,64d2fd46c836a06233681665,64dc7f2b02f60401466f0a82,,,,,,,sngl,resources/Empty.png,resources/DG.BMP,Door2,0.314814815,0.001851852,1,0,0,0.6454,optionRight,40,2910,2,9,0,9,0,1,,,,,,,,,,,,,,,,,,,,,,,,,,,,,,,,,,,,,,,
,,,,,,,,2023-08-16_08h48.09.342,HF_wild_card,2022.2.4,Win32,59.94125757,63d13f8a6bae53e55ef876c2,64d2fd46c836a06233681665,64dc7f2b02f60401466f0a82,,,,,,,decisionTrl,resources/DBN.BMP,resources/DR.BMP,Door3,-0.358333333,0.001851852,1,0,0,0.7467,optionLeft,70,2980,2,10,0,10,0,1,,,,,,,,,,,,,,,,,,,,,,,,,,,,,,,,,,,,,,,
,,,,,,,,2023-08-16_08h48.09.342,HF_wild_card,2022.2.4,Win32,59.94125757,63d13f8a6bae53e55ef876c2,64d2fd46c836a06233681665,64dc7f2b02f60401466f0a82,,,,,,,decisionTrl,resources/DBN.BMP,resources/DR.BMP,Door4,0.369444444,-0.017592593,1,0,0,0.5125,optionRight,80,3060,2,11,0,11,0,1,,,,,,,,,,,,,,,,,,,,,,,,,,,,,,,,,,,,,,,
,,,,,,,,2023-08-16_08h48.09.342,HF_wild_card,2022.2.4,Win32,59.94125757,63d13f8a6bae53e55ef876c2,64d2fd46c836a06233681665,64dc7f2b02f60401466f0a82,,,,,,,sngl,resources/DY.BMP,resources/Empty.png,WildCard_Ex,-0.355555556,0.006481481,1,0,0,0.5953,optionLeft,95,3155,2,12,0,12,0,1,,,,,,,,,,,,,,,,,,,,,,,,,,,,,,,,,,,,,,,
,,,,,,,,2023-08-16_08h48.09.342,HF_wild_card,2022.2.4,Win32,59.94125757,63d13f8a6bae53e55ef876c2,64d2fd46c836a06233681665,64dc7f2b02f60401466f0a82,,,,,,,ctch,resources/DBN.BMP,resources/DG.BMP,Door3,-0.422222222,0.002777778,1,0,0,0.7457,optionLeft,70,3225,2,13,0,13,0,1,,,,,,,,,,,,,,,,,,,,,,,,,,,,,,,,,,,,,,,
,,,,,,,,2023-08-16_08h48.09.342,HF_wild_card,2022.2.4,Win32,59.94125757,63d13f8a6bae53e55ef876c2,64d2fd46c836a06233681665,64dc7f2b02f60401466f0a82,,,,,,,ctch,resources/DR.BMP,resources/DP.BMP,Door4,-0.306481481,-0.007407407,1,0,0,0.6434,optionLeft,80,3305,2,14,0,14,0,1,,,,,,,,,,,,,,,,,,,,,,,,,,,,,,,,,,,,,,,
,,,,,,,,2023-08-16_08h48.09.342,HF_wild_card,2022.2.4,Win32,59.94125757,63d13f8a6bae53e55ef876c2,64d2fd46c836a06233681665,64dc7f2b02f60401466f0a82,,,,,,,sngl,resources/DBN.BMP,resources/Empty.png,Door3,-0.327777778,0.001851852,1,0,0,0.5943,optionLeft,70,3375,2,15,0,15,0,1,,,,,,,,,,,,,,,,,,,,,,,,,,,,,,,,,,,,,,,
,,,,,,,,2023-08-16_08h48.09.342,HF_wild_card,2022.2.4,Win32,59.94125757,63d13f8a6bae53e55ef876c2,64d2fd46c836a06233681665,64dc7f2b02f60401466f0a82,,,,,,,decisionTrl,resources/DP.BMP,resources/DG.BMP,Door1,-0.290740741,-0.008333333,1,0,0,0.711,optionLeft,30,3405,2,16,0,16,0,1,,,,,,,,,,,,,,,,,,,,,,,,,,,,,,,,,,,,,,,
,,,,,,,,2023-08-16_08h48.09.342,HF_wild_card,2022.2.4,Win32,59.94125757,63d13f8a6bae53e55ef876c2,64d2fd46c836a06233681665,64dc7f2b02f60401466f0a82,,,,,,,sngl,resources/DY.BMP,resources/Empty.png,WildCard_Ex,-0.394444444,-0.015740741,1,0,0,0.6284,optionLeft,5,3410,2,17,0,17,0,1,,,,,,,,,,,,,,,,,,,,,,,,,,,,,,,,,,,,,,,
,,,,,,,,2023-08-16_08h48.09.342,HF_wild_card,2022.2.4,Win32,59.94125757,63d13f8a6bae53e55ef876c2,64d2fd46c836a06233681665,64dc7f2b02f60401466f0a82,,,,,,,decisionTrl,resources/DBN.BMP,resources/DR.BMP,Door4,0.331481481,-0.013888889,1,0,0,1.5776,optionRight,80,3490,2,18,0,18,0,1,,,,,,,,,,,,,,,,,,,,,,,,,,,,,,,,,,,,,,,
,,,,,,,,2023-08-16_08h48.09.342,HF_wild_card,2022.2.4,Win32,59.94125757,63d13f8a6bae53e55ef876c2,64d2fd46c836a06233681665,64dc7f2b02f60401466f0a82,,,,,,,decisionTrl,resources/DR.BMP,resources/DBN.BMP,Door4,-0.487962963,-0.007407407,1,0,0,0.5624,optionLeft,80,3570,2,19,0,19,0,1,,,,,,,,,,,,,,,,,,,,,,,,,,,,,,,,,,,,,,,
,,,,,,,,2023-08-16_08h48.09.342,HF_wild_card,2022.2.4,Win32,59.94125757,63d13f8a6bae53e55ef876c2,64d2fd46c836a06233681665,64dc7f2b02f60401466f0a82,,,,,,,decisionTrl,resources/DG.BMP,resources/DP.BMP,Door1,0.273148148,-0.036111111,1,0,0,1.0112,optionRight,30,3600,2,20,0,20,0,1,,,,,,,,,,,,,,,,,,,,,,,,,,,,,,,,,,,,,,,
,,,,,,,,2023-08-16_08h48.09.342,HF_wild_card,2022.2.4,Win32,59.94125757,63d13f8a6bae53e55ef876c2,64d2fd46c836a06233681665,64dc7f2b02f60401466f0a82,,,,,,,ctch,resources/DP.BMP,resources/DR.BMP,Door4,0.309259259,-0.025,1,0,0,0.6965,optionRight,80,3680,2,21,0,21,0,1,,,,,,,,,,,,,,,,,,,,,,,,,,,,,,,,,,,,,,,
,,,,,,,,2023-08-16_08h48.09.342,HF_wild_card,2022.2.4,Win32,59.94125757,63d13f8a6bae53e55ef876c2,64d2fd46c836a06233681665,64dc7f2b02f60401466f0a82,,,,,,,sngl,resources/Empty.png,resources/DY.BMP,WildCard_Ex,0.283333333,-0.009259259,1,0,0,0.645,optionRight,5,3685,2,22,0,22,0,1,,,,,,,,,,,,,,,,,,,,,,,,,,,,,,,,,,,,,,,
,,,,,,,,2023-08-16_08h48.09.342,HF_wild_card,2022.2.4,Win32,59.94125757,63d13f8a6bae53e55ef876c2,64d2fd46c836a06233681665,64dc7f2b02f60401466f0a82,,,,,,,sngl,resources/DG.BMP,resources/Empty.png,Door2,-0.271296296,-0.003703704,1,0,0,0.6137,optionLeft,20,3705,2,23,0,23,0,1,,,,,,,,,,,,,,,,,,,,,,,,,,,,,,,,,,,,,,,
,,,,,,,,2023-08-16_08h48.09.342,HF_wild_card,2022.2.4,Win32,59.94125757,63d13f8a6bae53e55ef876c2,64d2fd46c836a06233681665,64dc7f2b02f60401466f0a82,,,,,,,decisionTrl,resources/DR.BMP,resources/DY.BMP,Door4,-0.343518519,-0.013888889,1,0,0,0.7954,optionLeft,60,3765,2,24,0,24,0,1,,,,,,,,,,,,,,,,,,,,,,,,,,,,,,,,,,,,,,,
,,,,,,,,2023-08-16_08h48.09.342,HF_wild_card,2022.2.4,Win32,59.94125757,63d13f8a6bae53e55ef876c2,64d2fd46c836a06233681665,64dc7f2b02f60401466f0a82,,,,,,,sngl,resources/Empty.png,resources/DP.BMP,Door1,0.312962963,-0.024074074,1,0,0,0.8281,optionRight,30,3795,2,25,0,25,0,1,,,,,,,,,,,,,,,,,,,,,,,,,,,,,,,,,,,,,,,
,,,,,,,,2023-08-16_08h48.09.342,HF_wild_card,2022.2.4,Win32,59.94125757,63d13f8a6bae53e55ef876c2,64d2fd46c836a06233681665,64dc7f2b02f60401466f0a82,,,,,,,decisionTrl,resources/DBN.BMP,resources/DY.BMP,WildCard_Ex,0.362962963,-0.002777778,1,0,0,0.5481,optionRight,95,3890,2,26,0,26,0,1,,,,,,,,,,,,,,,,,,,,,,,,,,,,,,,,,,,,,,,
,,,,,,,,2023-08-16_08h48.09.342,HF_wild_card,2022.2.4,Win32,59.94125757,63d13f8a6bae53e55ef876c2,64d2fd46c836a06233681665,64dc7f2b02f60401466f0a82,,,,,,,decisionTrl,resources/DY.BMP,resources/DR.BMP,WildCard_Ex,-0.407407407,-0.034259259,1,0,0,0.6778,optionLeft,95,3985,2,27,0,27,0,1,,,,,,,,,,,,,,,,,,,,,,,,,,,,,,,,,,,,,,,
,,,,,,,,2023-08-16_08h48.09.342,HF_wild_card,2022.2.4,Win32,59.94125757,63d13f8a6bae53e55ef876c2,64d2fd46c836a06233681665,64dc7f2b02f60401466f0a82,,,,,,,ctch,resources/DR.BMP,resources/DP.BMP,Door4,-0.294444444,-0.021296296,1,0,0,0.8492,optionLeft,80,4065,2,28,0,28,0,1,,,,,,,,,,,,,,,,,,,,,,,,,,,,,,,,,,,,,,,
,,,,,,,,2023-08-16_08h48.09.342,HF_wild_card,2022.2.4,Win32,59.94125757,63d13f8a6bae53e55ef876c2,64d2fd46c836a06233681665,64dc7f2b02f60401466f0a82,,,,,,,sngl,resources/DR.BMP,resources/Empty.png,Door4,-0.365740741,-0.024074074,1,0,0,0.6119,optionLeft,60,4125,2,29,0,29,0,1,,,,,,,,,,,,,,,,,,,,,,,,,,,,,,,,,,,,,,,
,,,,,,,,2023-08-16_08h48.09.342,HF_wild_card,2022.2.4,Win32,59.94125757,63d13f8a6bae53e55ef876c2,64d2fd46c836a06233681665,64dc7f2b02f60401466f0a82,,,,,,,sngl,resources/Empty.png,resources/DR.BMP,Door4,0.297222222,-0.025925926,1,0,0,0.5459,optionRight,80,4205,2,30,0,30,0,1,,,,,,,,,,,,,,,,,,,,,,,,,,,,,,,,,,,,,,,
,,,,,,,,2023-08-16_08h48.09.342,HF_wild_card,2022.2.4,Win32,59.94125757,63d13f8a6bae53e55ef876c2,64d2fd46c836a06233681665,64dc7f2b02f60401466f0a82,,,,,,,decisionTrl,resources/DR.BMP,resources/DBN.BMP,Door4,-0.32037037,-0.013888889,1,0,0,0.7956,optionLeft,80,4285,2,31,0,31,0,1,,,,,,,,,,,,,,,,,,,,,,,,,,,,,,,,,,,,,,,
,,,,,,,,2023-08-16_08h48.09.342,HF_wild_card,2022.2.4,Win32,59.94125757,63d13f8a6bae53e55ef876c2,64d2fd46c836a06233681665,64dc7f2b02f60401466f0a82,,,,,,,sngl,resources/DP.BMP,resources/Empty.png,Door1,-0.298148148,-0.019444444,1,0,0,0.6279,optionLeft,30,4315,2,32,0,32,0,1,,,,,,,,,,,,,,,,,,,,,,,,,,,,,,,,,,,,,,,
,,,,,,,,2023-08-16_08h48.09.342,HF_wild_card,2022.2.4,Win32,59.94125757,63d13f8a6bae53e55ef876c2,64d2fd46c836a06233681665,64dc7f2b02f60401466f0a82,,,,,,,sngl,resources/Empty.png,resources/DY.BMP,WildCard_Ex,0.337962963,-0.037037037,1,0,0,0.5278,optionRight,95,4410,2,33,0,33,0,1,,,,,,,,,,,,,,,,,,,,,,,,,,,,,,,,,,,,,,,
,,,,,,,,2023-08-16_08h48.09.342,HF_wild_card,2022.2.4,Win32,59.94125757,63d13f8a6bae53e55ef876c2,64d2fd46c836a06233681665,64dc7f2b02f60401466f0a82,,,,,,,decisionTrl,resources/DBN.BMP,resources/DR.BMP,Door3,-0.266666667,0.009259259,1,0,0,0.745,optionLeft,70,4480,2,34,0,34,0,1,,,,,,,,,,,,,,,,,,,,,,,,,,,,,,,,,,,,,,,
,,,,,,,,2023-08-16_08h48.09.342,HF_wild_card,2022.2.4,Win32,59.94125757,63d13f8a6bae53e55ef876c2,64d2fd46c836a06233681665,64dc7f2b02f60401466f0a82,,,,,,,decisionTrl,resources/DG.BMP,resources/DY.BMP,WildCard_Ex,0.281481481,-0.006481481,1,0,0,0.6455,optionRight,5,4485,2,35,0,35,0,1,,,,,,,,,,,,,,,,,,,,,,,,,,,,,,,,,,,,,,,
,,,,,,,,2023-08-16_08h48.09.342,HF_wild_card,2022.2.4,Win32,59.94125757,63d13f8a6bae53e55ef876c2,64d2fd46c836a06233681665,64dc7f2b02f60401466f0a82,,,,,,,sngl,resources/Empty.png,resources/DBN.BMP,Door3,0.289814815,-0.003703704,1,0,0,0.6955,optionRight,70,4555,2,36,0,36,0,1,,,,,,,,,,,,,,,,,,,,,,,,,,,,,,,,,,,,,,,
,,,,,,,,2023-08-16_08h48.09.342,HF_wild_card,2022.2.4,Win32,59.94125757,63d13f8a6bae53e55ef876c2,64d2fd46c836a06233681665,64dc7f2b02f60401466f0a82,,,,,,,decisionTrl,resources/DP.BMP,resources/DG.BMP,Door1,-0.268518519,-0.017592593,1,0,0,1.1134,optionLeft,30,4585,2,37,0,37,0,1,,,,,,,,,,,,,,,,,,,,,,,,,,,,,,,,,,,,,,,
,,,,,,,,2023-08-16_08h48.09.342,HF_wild_card,2022.2.4,Win32,59.94125757,63d13f8a6bae53e55ef876c2,64d2fd46c836a06233681665,64dc7f2b02f60401466f0a82,,,,,,,decisionTrl,resources/DP.BMP,resources/DY.BMP,WildCard_Ex,0.365740741,-0.024074074,1,0,0,0.6456,optionRight,5,4590,2,38,0,38,0,1,,,,,,,,,,,,,,,,,,,,,,,,,,,,,,,,,,,,,,,
,,,,,,,,2023-08-16_08h48.09.342,HF_wild_card,2022.2.4,Win32,59.94125757,63d13f8a6bae53e55ef876c2,64d2fd46c836a06233681665,64dc7f2b02f60401466f0a82,,,,,,,decisionTrl,resources/DP.BMP,resources/DG.BMP,Door1,-0.241666667,-0.003703704,1,0,0,0.6599,optionLeft,30,4620,2,39,0,39,0,1,,,,,,,,,,,,,,,,,,,,,,,,,,,,,,,,,,,,,,,
,,,,,,,,2023-08-16_08h48.09.342,HF_wild_card,2022.2.4,Win32,59.94125757,63d13f8a6bae53e55ef876c2,64d2fd46c836a06233681665,64dc7f2b02f60401466f0a82,,,,,,,decisionTrl,resources/DG.BMP,resources/DP.BMP,Door1,0.244444444,-0.025925926,1,0,0,1.0812,optionRight,30,4650,2,40,0,40,0,1,,,,,,,,,,,,,,,,,,,,,,,,,,,,,,,,,,,,,,,
,,,,,,,,2023-08-16_08h48.09.342,HF_wild_card,2022.2.4,Win32,59.94125757,63d13f8a6bae53e55ef876c2,64d2fd46c836a06233681665,64dc7f2b02f60401466f0a82,,,,,,,decisionTrl,resources/DY.BMP,resources/DP.BMP,WildCard_Ex,-0.312962963,-0.014814815,1,0,0,0.6287,optionLeft,5,4655,2,41,0,41,0,1,,,,,,,,,,,,,,,,,,,,,,,,,,,,,,,,,,,,,,,
,,,,,,,,2023-08-16_08h48.09.342,HF_wild_card,2022.2.4,Win32,59.94125757,63d13f8a6bae53e55ef876c2,64d2fd46c836a06233681665,64dc7f2b02f60401466f0a82,,,,,,,decisionTrl,resources/DY.BMP,resources/DBN.BMP,WildCard_Ex,-0.262037037,-0.013888889,1,0,0,0.5806,optionLeft,95,4750,2,42,0,42,0,1,,,,,,,,,,,,,,,,,,,,,,,,,,,,,,,,,,,,,,,
,,,,,,,,2023-08-16_08h48.09.342,HF_wild_card,2022.2.4,Win32,59.94125757,63d13f8a6bae53e55ef876c2,64d2fd46c836a06233681665,64dc7f2b02f60401466f0a82,,,,,,,ctch,resources/DBN.BMP,resources/DG.BMP,Door3,-0.249074074,-0.012962963,1,0,0,0.7784,optionLeft,70,4820,2,43,0,43,0,1,,,,,,,,,,,,,,,,,,,,,,,,,,,,,,,,,,,,,,,
,,,,,,,,2023-08-16_08h48.09.342,HF_wild_card,2022.2.4,Win32,59.94125757,63d13f8a6bae53e55ef876c2,64d2fd46c836a06233681665,64dc7f2b02f60401466f0a82,,,,,,,,,,,,,,,,,,,,,,,,,,1,0,1,0,1,,,,,,,,,,,,,,,,,,,,,,,,,,,,,,,,,,
,,,,,,,,2023-08-16_08h48.09.342,HF_wild_card,2022.2.4,Win32,59.94125757,63d13f8a6bae53e55ef876c2,64d2fd46c836a06233681665,64dc7f2b02f60401466f0a82,,,,,,,decisionTrl,resources/DY.BMP,resources/DP.BMP,WildCard_Ex,-0.291666667,-0.026851852,1,0,0,0.7212,optionLeft,95,4915,3,0,0,0,0,1,,,,,,,,,,,,,,,,,,,,,,,,,,,,,,,,,,,,,,,
,,,,,,,,2023-08-16_08h48.09.342,HF_wild_card,2022.2.4,Win32,59.94125757,63d13f8a6bae53e55ef876c2,64d2fd46c836a06233681665,64dc7f2b02f60401466f0a82,,,,,,,decisionTrl,resources/DBN.BMP,resources/DR.BMP,Door4,0.42037037,0.000925926,1,0,0,1.179,optionRight,60,4975,3,1,0,1,0,1,,,,,,,,,,,,,,,,,,,,,,,,,,,,,,,,,,,,,,,
,,,,,,,,2023-08-16_08h48.09.342,HF_wild_card,2022.2.4,Win32,59.94125757,63d13f8a6bae53e55ef876c2,64d2fd46c836a06233681665,64dc7f2b02f60401466f0a82,,,,,,,decisionTrl,resources/DBN.BMP,resources/DR.BMP,Door4,0.248148148,0.002777778,1,0,0,0.6289,optionRight,60,5035,3,2,0,2,0,1,,,,,,,,,,,,,,,,,,,,,,,,,,,,,,,,,,,,,,,
,,,,,,,,2023-08-16_08h48.09.342,HF_wild_card,2022.2.4,Win32,59.94125757,63d13f8a6bae53e55ef876c2,64d2fd46c836a06233681665,64dc7f2b02f60401466f0a82,,,,,,,decisionTrl,resources/DR.BMP,resources/DY.BMP,WildCard_Ex,0.30462963,-0.016666667,1,0,0,0.8442,optionRight,95,5130,3,3,0,3,0,1,,,,,,,,,,,,,,,,,,,,,,,,,,,,,,,,,,,,,,,
,,,,,,,,2023-08-16_08h48.09.342,HF_wild_card,2022.2.4,Win32,59.94125757,63d13f8a6bae53e55ef876c2,64d2fd46c836a06233681665,64dc7f2b02f60401466f0a82,,,,,,,sngl,resources/DY.BMP,resources/Empty.png,WildCard_Ex,-0.444444444,-0.010185185,1,0,0,0.6006,optionLeft,5,5135,3,4,0,4,0,1,,,,,,,,,,,,,,,,,,,,,,,,,,,,,,,,,,,,,,,
,,,,,,,,2023-08-16_08h48.09.342,HF_wild_card,2022.2.4,Win32,59.94125757,63d13f8a6bae53e55ef876c2,64d2fd46c836a06233681665,64dc7f2b02f60401466f0a82,,,,,,,decisionTrl,resources/DG.BMP,resources/DP.BMP,Door1,0.275925926,-0.032407407,1,0,0,0.91,optionRight,30,5165,3,5,0,5,0,1,,,,,,,,,,,,,,,,,,,,,,,,,,,,,,,,,,,,,,,
,,,,,,,,2023-08-16_08h48.09.342,HF_wild_card,2022.2.4,Win32,59.94125757,63d13f8a6bae53e55ef876c2,64d2fd46c836a06233681665,64dc7f2b02f60401466f0a82,,,,,,,decisionTrl,resources/DP.BMP,resources/DG.BMP,Door2,0.222222222,0.002777778,1,0,0,1.2308,optionRight,40,5205,3,6,0,6,0,1,,,,,,,,,,,,,,,,,,,,,,,,,,,,,,,,,,,,,,,
,,,,,,,,2023-08-16_08h48.09.342,HF_wild_card,2022.2.4,Win32,59.94125757,63d13f8a6bae53e55ef876c2,64d2fd46c836a06233681665,64dc7f2b02f60401466f0a82,,,,,,,decisionTrl,resources/DG.BMP,resources/DP.BMP,Door2,-0.389814815,-0.040740741,1,0,0,0.5453,optionLeft,40,5245,3,7,0,7,0,1,,,,,,,,,,,,,,,,,,,,,,,,,,,,,,,,,,,,,,,
,,,,,,,,2023-08-16_08h48.09.342,HF_wild_card,2022.2.4,Win32,59.94125757,63d13f8a6bae53e55ef876c2,64d2fd46c836a06233681665,64dc7f2b02f60401466f0a82,,,,,,,decisionTrl,resources/DR.BMP,resources/DBN.BMP,Door4,-0.301851852,-0.014814815,1,0,0,0.7949,optionLeft,80,5325,3,8,0,8,0,1,,,,,,,,,,,,,,,,,,,,,,,,,,,,,,,,,,,,,,,
,,,,,,,,2023-08-16_08h48.09.342,HF_wild_card,2022.2.4,Win32,59.94125757,63d13f8a6bae53e55ef876c2,64d2fd46c836a06233681665,64dc7f2b02f60401466f0a82,,,,,,,decisionTrl,resources/DP.BMP,resources/DG.BMP,Door1,-0.211111111,-0.027777778,1,0,0,0.7952,optionLeft,30,5355,3,9,0,9,0,1,,,,,,,,,,,,,,,,,,,,,,,,,,,,,,,,,,,,,,,
,,,,,,,,2023-08-16_08h48.09.342,HF_wild_card,2022.2.4,Win32,59.94125757,63d13f8a6bae53e55ef876c2,64d2fd46c836a06233681665,64dc7f2b02f60401466f0a82,,,,,,,ctch,resources/DP.BMP,resources/DR.BMP,Door4,0.348148148,-0.035185185,1,0,0,0.7455,optionRight,80,5435,3,10,0,10,0,1,,,,,,,,,,,,,,,,,,,,,,,,,,,,,,,,,,,,,,,
,,,,,,,,2023-08-16_08h48.09.342,HF_wild_card,2022.2.4,Win32,59.94125757,63d13f8a6bae53e55ef876c2,64d2fd46c836a06233681665,64dc7f2b02f60401466f0a82,,,,,,,decisionTrl,resources/DR.BMP,resources/DBN.BMP,Door4,-0.30462963,-0.040740741,1,0,0,0.6286,optionLeft,60,5495,3,11,0,11,0,1,,,,,,,,,,,,,,,,,,,,,,,,,,,,,,,,,,,,,,,
,,,,,,,,2023-08-16_08h48.09.342,HF_wild_card,2022.2.4,Win32,59.94125757,63d13f8a6bae53e55ef876c2,64d2fd46c836a06233681665,64dc7f2b02f60401466f0a82,,,,,,,decisionTrl,resources/DR.BMP,resources/DBN.BMP,Door4,-0.211111111,-0.023148148,1,0,0,0.5624,optionLeft,80,5575,3,12,0,12,0,1,,,,,,,,,,,,,,,,,,,,,,,,,,,,,,,,,,,,,,,
,,,,,,,,2023-08-16_08h48.09.342,HF_wild_card,2022.2.4,Win32,59.94125757,63d13f8a6bae53e55ef876c2,64d2fd46c836a06233681665,64dc7f2b02f60401466f0a82,,,,,,,decisionTrl,resources/DY.BMP,resources/DR.BMP,Door4,0.330555556,-0.019444444,1,0,0,0.8457,optionRight,80,5655,3,13,0,13,0,1,,,,,,,,,,,,,,,,,,,,,,,,,,,,,,,,,,,,,,,
,,,,,,,,2023-08-16_08h48.09.342,HF_wild_card,2022.2.4,Win32,59.94125757,63d13f8a6bae53e55ef876c2,64d2fd46c836a06233681665,64dc7f2b02f60401466f0a82,,,,,,,sngl,resources/Empty.png,resources/DP.BMP,Door1,0.25,-0.027777778,1,0,0,0.6452,optionRight,30,5685,3,14,0,14,0,1,,,,,,,,,,,,,,,,,,,,,,,,,,,,,,,,,,,,,,,
,,,,,,,,2023-08-16_08h48.09.342,HF_wild_card,2022.2.4,Win32,59.94125757,63d13f8a6bae53e55ef876c2,64d2fd46c836a06233681665,64dc7f2b02f60401466f0a82,,,,,,,sngl,resources/Empty.png,resources/DY.BMP,WildCard_Ex,0.266666667,-0.023148148,1,0,0,0.5452,optionRight,95,5780,3,15,0,15,0,1,,,,,,,,,,,,,,,,,,,,,,,,,,,,,,,,,,,,,,,
,,,,,,,,2023-08-16_08h48.09.342,HF_wild_card,2022.2.4,Win32,59.94125757,63d13f8a6bae53e55ef876c2,64d2fd46c836a06233681665,64dc7f2b02f60401466f0a82,,,,,,,sngl,resources/Empty.png,resources/DR.BMP,Door4,0.35462963,0.000925926,1,0,0,0.529,optionRight,60,5840,3,16,0,16,0,1,,,,,,,,,,,,,,,,,,,,,,,,,,,,,,,,,,,,,,,
,,,,,,,,2023-08-16_08h48.09.342,HF_wild_card,2022.2.4,Win32,59.94125757,63d13f8a6bae53e55ef876c2,64d2fd46c836a06233681665,64dc7f2b02f60401466f0a82,,,,,,,sngl,resources/Empty.png,resources/DY.BMP,WildCard_Ex,0.305555556,0.011111111,1,0,0,0.4451,optionRight,5,5845,3,17,0,17,0,1,,,,,,,,,,,,,,,,,,,,,,,,,,,,,,,,,,,,,,,
,,,,,,,,2023-08-16_08h48.09.342,HF_wild_card,2022.2.4,Win32,59.94125757,63d13f8a6bae53e55ef876c2,64d2fd46c836a06233681665,64dc7f2b02f60401466f0a82,,,,,,,decisionTrl,resources/DBN.BMP,resources/DR.BMP,Door4,0.267592593,0.015740741,1,0,0,0.8457,optionRight,80,5925,3,18,0,18,0,1,,,,,,,,,,,,,,,,,,,,,,,,,,,,,,,,,,,,,,,
,,,,,,,,2023-08-16_08h48.09.342,HF_wild_card,2022.2.4,Win32,59.94125757,63d13f8a6bae53e55ef876c2,64d2fd46c836a06233681665,64dc7f2b02f60401466f0a82,,,,,,,ctch,resources/DG.BMP,resources/DBN.BMP,Door3,0.29537037,0.001851852,1,0,0,0.6622,optionRight,70,5995,3,19,0,19,0,1,,,,,,,,,,,,,,,,,,,,,,,,,,,,,,,,,,,,,,,
,,,,,,,,2023-08-16_08h48.09.342,HF_wild_card,2022.2.4,Win32,59.94125757,63d13f8a6bae53e55ef876c2,64d2fd46c836a06233681665,64dc7f2b02f60401466f0a82,,,,,,,sngl,resources/DG.BMP,resources/Empty.png,Door2,-0.372222222,-0.044444444,1,0,0,0.5616,optionLeft,40,6035,3,20,0,20,0,1,,,,,,,,,,,,,,,,,,,,,,,,,,,,,,,,,,,,,,,
,,,,,,,,2023-08-16_08h48.09.342,HF_wild_card,2022.2.4,Win32,59.94125757,63d13f8a6bae53e55ef876c2,64d2fd46c836a06233681665,64dc7f2b02f60401466f0a82,,,,,,,ctch,resources/DR.BMP,resources/DP.BMP,Door4,-0.277777778,-0.006481481,1,0,0,0.7286,optionLeft,60,6095,3,21,0,21,0,1,,,,,,,,,,,,,,,,,,,,,,,,,,,,,,,,,,,,,,,
,,,,,,,,2023-08-16_08h48.09.342,HF_wild_card,2022.2.4,Win32,59.94125757,63d13f8a6bae53e55ef876c2,64d2fd46c836a06233681665,64dc7f2b02f60401466f0a82,,,,,,,sngl,resources/Empty.png,resources/DG.BMP,Door2,0.387037037,-0.013888889,1,0,0,0.5122,optionRight,20,6115,3,22,0,22,0,1,,,,,,,,,,,,,,,,,,,,,,,,,,,,,,,,,,,,,,,
,,,,,,,,2023-08-16_08h48.09.342,HF_wild_card,2022.2.4,Win32,59.94125757,63d13f8a6bae53e55ef876c2,64d2fd46c836a06233681665,64dc7f2b02f60401466f0a82,,,,,,,decisionTrl,resources/DBN.BMP,resources/DR.BMP,Door4,0.225,0.010185185,1,0,0,0.7622,optionRight,60,6175,3,23,0,23,0,1,,,,,,,,,,,,,,,,,,,,,,,,,,,,,,,,,,,,,,,
,,,,,,,,2023-08-16_08h48.09.342,HF_wild_card,2022.2.4,Win32,59.94125757,63d13f8a6bae53e55ef876c2,64d2fd46c836a06233681665,64dc7f2b02f60401466f0a82,,,,,,,sngl,resources/DP.BMP,resources/Empty.png,Door1,-0.374074074,-0.04537037,1,0,0,0.5937,optionLeft,30,6205,3,24,0,24,0,1,,,,,,,,,,,,,,,,,,,,,,,,,,,,,,,,,,,,,,,
,,,,,,,,2023-08-16_08h48.09.342,HF_wild_card,2022.2.4,Win32,59.94125757,63d13f8a6bae53e55ef876c2,64d2fd46c836a06233681665,64dc7f2b02f60401466f0a82,,,,,,,decisionTrl,resources/DBN.BMP,resources/DY.BMP,Door3,-0.164814815,-0.006481481,1,0,0,0.76,optionLeft,70,6275,3,25,0,25,0,1,,,,,,,,,,,,,,,,,,,,,,,,,,,,,,,,,,,,,,,
,,,,,,,,2023-08-16_08h48.09.342,HF_wild_card,2022.2.4,Win32,59.94125757,63d13f8a6bae53e55ef876c2,64d2fd46c836a06233681665,64dc7f2b02f60401466f0a82,,,,,,,ctch,resources/DP.BMP,resources/DR.BMP,Door4,0.319444444,-0.010185185,1,0,0,0.8175,optionRight,60,6335,3,26,0,26,0,1,,,,,,,,,,,,,,,,,,,,,,,,,,,,,,,,,,,,,,,
,,,,,,,,2023-08-16_08h48.09.342,HF_wild_card,2022.2.4,Win32,59.94125757,63d13f8a6bae53e55ef876c2,64d2fd46c836a06233681665,64dc7f2b02f60401466f0a82,,,,,,,decisionTrl,resources/DG.BMP,resources/DP.BMP,Door1,0.236111111,0.02962963,1,0,0,0.6799,optionRight,30,6365,3,27,0,27,0,1,,,,,,,,,,,,,,,,,,,,,,,,,,,,,,,,,,,,,,,
,,,,,,,,2023-08-16_08h48.09.342,HF_wild_card,2022.2.4,Win32,59.94125757,63d13f8a6bae53e55ef876c2,64d2fd46c836a06233681665,64dc7f2b02f60401466f0a82,,,,,,,sngl,resources/DY.BMP,resources/Empty.png,WildCard_Ex,-0.408333333,0.014814815,1,0,0,0.6254,optionLeft,95,6460,3,28,0,28,0,1,,,,,,,,,,,,,,,,,,,,,,,,,,,,,,,,,,,,,,,
,,,,,,,,2023-08-16_08h48.09.342,HF_wild_card,2022.2.4,Win32,59.94125757,63d13f8a6bae53e55ef876c2,64d2fd46c836a06233681665,64dc7f2b02f60401466f0a82,,,,,,,decisionTrl,resources/DP.BMP,resources/DG.BMP,Door2,0.322222222,0.017592593,1,0,0,0.7007,optionRight,20,6480,3,29,0,29,0,1,,,,,,,,,,,,,,,,,,,,,,,,,,,,,,,,,,,,,,,
,,,,,,,,2023-08-16_08h48.09.342,HF_wild_card,2022.2.4,Win32,59.94125757,63d13f8a6bae53e55ef876c2,64d2fd46c836a06233681665,64dc7f2b02f60401466f0a82,,,,,,,decisionTrl,resources/DY.BMP,resources/DBN.BMP,WildCard_Ex,-0.318518519,-0.012962963,1,0,0,0.5271,optionLeft,5,6485,3,30,0,30,0,1,,,,,,,,,,,,,,,,,,,,,,,,,,,,,,,,,,,,,,,
,,,,,,,,2023-08-16_08h48.09.342,HF_wild_card,2022.2.4,Win32,59.94125757,63d13f8a6bae53e55ef876c2,64d2fd46c836a06233681665,64dc7f2b02f60401466f0a82,,,,,,,sngl,resources/Empty.png,resources/DBN.BMP,Door3,0.339814815,0.003703704,1,0,0,0.5789,optionRight,70,6555,3,31,0,31,0,1,,,,,,,,,,,,,,,,,,,,,,,,,,,,,,,,,,,,,,,
,,,,,,,,2023-08-16_08h48.09.342,HF_wild_card,2022.2.4,Win32,59.94125757,63d13f8a6bae53e55ef876c2,64d2fd46c836a06233681665,64dc7f2b02f60401466f0a82,,,,,,,decisionTrl,resources/DP.BMP,resources/DY.BMP,WildCard_Ex,0.325925926,0.005555556,1,0,0,0.7127,optionRight,95,6650,3,32,0,32,0,1,,,,,,,,,,,,,,,,,,,,,,,,,,,,,,,,,,,,,,,
,,,,,,,,2023-08-16_08h48.09.342,HF_wild_card,2022.2.4,Win32,59.94125757,63d13f8a6bae53e55ef876c2,64d2fd46c836a06233681665,64dc7f2b02f60401466f0a82,,,,,,,decisionTrl,resources/DR.BMP,resources/DBN.BMP,Door3,0.3,0.047222222,1,0,0,0.7786,optionRight,70,6720,3,33,0,33,0,1,,,,,,,,,,,,,,,,,,,,,,,,,,,,,,,,,,,,,,,
,,,,,,,,2023-08-16_08h48.09.342,HF_wild_card,2022.2.4,Win32,59.94125757,63d13f8a6bae53e55ef876c2,64d2fd46c836a06233681665,64dc7f2b02f60401466f0a82,,,,,,,decisionTrl,resources/DG.BMP,resources/DY.BMP,WildCard_Ex,0.387962963,0.006481481,1,0,0,0.5124,optionRight,5,6725,3,34,0,34,0,1,,,,,,,,,,,,,,,,,,,,,,,,,,,,,,,,,,,,,,,
,,,,,,,,2023-08-16_08h48.09.342,HF_wild_card,2022.2.4,Win32,59.94125757,63d13f8a6bae53e55ef876c2,64d2fd46c836a06233681665,64dc7f2b02f60401466f0a82,,,,,,,ctch,resources/DR.BMP,resources/DP.BMP,Door4,-0.369444444,-0.007407407,1,0,0,0.9116,optionLeft,60,6785,3,35,0,35,0,1,,,,,,,,,,,,,,,,,,,,,,,,,,,,,,,,,,,,,,,
,,,,,,,,2023-08-16_08h48.09.342,HF_wild_card,2022.2.4,Win32,59.94125757,63d13f8a6bae53e55ef876c2,64d2fd46c836a06233681665,64dc7f2b02f60401466f0a82,,,,,,,ctch,resources/DG.BMP,resources/DBN.BMP,Door3,0.387037037,0.02962963,1,0,0,0.5826,optionRight,70,6855,3,36,0,36,0,1,,,,,,,,,,,,,,,,,,,,,,,,,,,,,,,,,,,,,,,
,,,,,,,,2023-08-16_08h48.09.342,HF_wild_card,2022.2.4,Win32,59.94125757,63d13f8a6bae53e55ef876c2,64d2fd46c836a06233681665,64dc7f2b02f60401466f0a82,,,,,,,sngl,resources/DBN.BMP,resources/Empty.png,Door3,-0.362037037,-0.002777778,1,0,0,0.528,optionLeft,70,6925,3,37,0,37,0,1,,,,,,,,,,,,,,,,,,,,,,,,,,,,,,,,,,,,,,,
,,,,,,,,2023-08-16_08h48.09.342,HF_wild_card,2022.2.4,Win32,59.94125757,63d13f8a6bae53e55ef876c2,64d2fd46c836a06233681665,64dc7f2b02f60401466f0a82,,,,,,,sngl,resources/DR.BMP,resources/Empty.png,Door4,-0.364814815,0.000925926,1,0,0,0.5109,optionLeft,80,7005,3,38,0,38,0,1,,,,,,,,,,,,,,,,,,,,,,,,,,,,,,,,,,,,,,,
,,,,,,,,2023-08-16_08h48.09.342,HF_wild_card,2022.2.4,Win32,59.94125757,63d13f8a6bae53e55ef876c2,64d2fd46c836a06233681665,64dc7f2b02f60401466f0a82,,,,,,,decisionTrl,resources/DG.BMP,resources/DP.BMP,Door1,0.27962963,0.007407407,1,0,0,0.6955,optionRight,30,7035,3,39,0,39,0,1,,,,,,,,,,,,,,,,,,,,,,,,,,,,,,,,,,,,,,,
,,,,,,,,2023-08-16_08h48.09.342,HF_wild_card,2022.2.4,Win32,59.94125757,63d13f8a6bae53e55ef876c2,64d2fd46c836a06233681665,64dc7f2b02f60401466f0a82,,,,,,,ctch,resources/DBN.BMP,resources/DG.BMP,Door3,-0.348148148,0.011111111,1,0,0,0.5952,optionLeft,70,7105,3,40,0,40,0,1,,,,,,,,,,,,,,,,,,,,,,,,,,,,,,,,,,,,,,,
,,,,,,,,2023-08-16_08h48.09.342,HF_wild_card,2022.2.4,Win32,59.94125757,63d13f8a6bae53e55ef876c2,64d2fd46c836a06233681665,64dc7f2b02f60401466f0a82,,,,,,,decisionTrl,resources/DP.BMP,resources/DG.BMP,Door1,-0.301851852,-0.012037037,1,0,0,0.5608,optionLeft,30,7135,3,41,0,41,0,1,,,,,,,,,,,,,,,,,,,,,,,,,,,,,,,,,,,,,,,
,,,,,,,,2023-08-16_08h48.09.342,HF_wild_card,2022.2.4,Win32,59.94125757,63d13f8a6bae53e55ef876c2,64d2fd46c836a06233681665,64dc7f2b02f60401466f0a82,,,,,,,ctch,resources/DBN.BMP,resources/DG.BMP,Door2,0.298148148,0.002777778,1,0,0,0.6135,optionRight,40,7175,3,42,0,42,0,1,,,,,,,,,,,,,,,,,,,,,,,,,,,,,,,,,,,,,,,
,,,,,,,,2023-08-16_08h48.09.342,HF_wild_card,2022.2.4,Win32,59.94125757,63d13f8a6bae53e55ef876c2,64d2fd46c836a06233681665,64dc7f2b02f60401466f0a82,,,,,,,decisionTrl,resources/DY.BMP,resources/DG.BMP,WildCard_Ex,-0.344444444,-0.00462963,1,0,0,0.7274,optionLeft,5,7180,3,43,0,43,0,1,,,,,,,,,,,,,,,,,,,,,,,,,,,,,,,,,,,,,,,
,,,,,,,,2023-08-16_08h48.09.342,HF_wild_card,2022.2.4,Win32,59.94125757,63d13f8a6bae53e55ef876c2,64d2fd46c836a06233681665,64dc7f2b02f60401466f0a82,,,,,,,,,,,,,,,,,,,,,,,,,,2,0,2,0,1,,,,,,,,,,,,,,,,,,,,,,,,,,,,,,,,,,
,,,,,,,,2023-08-16_08h48.09.342,HF_wild_card,2022.2.4,Win32,59.94125757,63d13f8a6bae53e55ef876c2,64d2fd46c836a06233681665,64dc7f2b02f60401466f0a82,,,,,,,decisionTrl,resources/DB.BMP,resources/DR.BMP,WildCard_NonEx,-0.312037037,-0.064814815,1,0,0,1.2253,optionLeft,45,7225,4,0,0,0,0,1,,,,,,,,,,,,,,,,,,,,,,,,,,,,,,,,,,,,,,,
,,,,,,,,2023-08-16_08h48.09.342,HF_wild_card,2022.2.4,Win32,59.94125757,63d13f8a6bae53e55ef876c2,64d2fd46c836a06233681665,64dc7f2b02f60401466f0a82,,,,,,,decisionTrl,resources/DP.BMP,resources/DG.BMP,Door1,-0.27962963,0,1,0,0,0.8116,optionLeft,30,7255,4,1,0,1,0,1,,,,,,,,,,,,,,,,,,,,,,,,,,,,,,,,,,,,,,,
,,,,,,,,2023-08-16_08h48.09.342,HF_wild_card,2022.2.4,Win32,59.94125757,63d13f8a6bae53e55ef876c2,64d2fd46c836a06233681665,64dc7f2b02f60401466f0a82,,,,,,,decisionTrl,resources/DP.BMP,resources/DB.BMP,WildCard_NonEx,0.255555556,-0.000925926,1,0,0,0.6788,optionRight,55,7310,4,2,0,2,0,1,,,,,,,,,,,,,,,,,,,,,,,,,,,,,,,,,,,,,,,
,,,,,,,,2023-08-16_08h48.09.342,HF_wild_card,2022.2.4,Win32,59.94125757,63d13f8a6bae53e55ef876c2,64d2fd46c836a06233681665,64dc7f2b02f60401466f0a82,,,,,,,decisionTrl,resources/DB.BMP,resources/DBN.BMP,WildCard_NonEx,-0.362962963,0,1,0,0,0.6455,optionLeft,55,7365,4,3,0,3,0,1,,,,,,,,,,,,,,,,,,,,,,,,,,,,,,,,,,,,,,,
,,,,,,,,2023-08-16_08h48.09.342,HF_wild_card,2022.2.4,Win32,59.94125757,63d13f8a6bae53e55ef876c2,64d2fd46c836a06233681665,64dc7f2b02f60401466f0a82,,,,,,,decisionTrl,resources/DBN.BMP,resources/DR.BMP,Door3,-0.302777778,0.011111111,1,0,0,0.6594,optionLeft,70,7435,4,4,0,4,0,1,,,,,,,,,,,,,,,,,,,,,,,,,,,,,,,,,,,,,,,
,,,,,,,,2023-08-16_08h48.09.342,HF_wild_card,2022.2.4,Win32,59.94125757,63d13f8a6bae53e55ef876c2,64d2fd46c836a06233681665,64dc7f2b02f60401466f0a82,,,,,,,decisionTrl,resources/DR.BMP,resources/DBN.BMP,Door4,-0.289814815,0.005555556,1,0,0,0.8623,optionLeft,80,7515,4,5,0,5,0,1,,,,,,,,,,,,,,,,,,,,,,,,,,,,,,,,,,,,,,,
,,,,,,,,2023-08-16_08h48.09.342,HF_wild_card,2022.2.4,Win32,59.94125757,63d13f8a6bae53e55ef876c2,64d2fd46c836a06233681665,64dc7f2b02f60401466f0a82,,,,,,,sngl,resources/Empty.png,resources/DB.BMP,WildCard_NonEx,0.239814815,-0.003703704,1,0,0,0.5789,optionRight,55,7570,4,6,0,6,0,1,,,,,,,,,,,,,,,,,,,,,,,,,,,,,,,,,,,,,,,
,,,,,,,,2023-08-16_08h48.09.342,HF_wild_card,2022.2.4,Win32,59.94125757,63d13f8a6bae53e55ef876c2,64d2fd46c836a06233681665,64dc7f2b02f60401466f0a82,,,,,,,decisionTrl,resources/DR.BMP,resources/DBN.BMP,Door4,-0.321296296,-0.008333333,1,0,0,0.762,optionLeft,60,7630,4,7,0,7,0,1,,,,,,,,,,,,,,,,,,,,,,,,,,,,,,,,,,,,,,,
,,,,,,,,2023-08-16_08h48.09.342,HF_wild_card,2022.2.4,Win32,59.94125757,63d13f8a6bae53e55ef876c2,64d2fd46c836a06233681665,64dc7f2b02f60401466f0a82,,,,,,,sngl,resources/Empty.png,resources/DBN.BMP,Door3,0.25462963,-0.001851852,1,0,0,0.5142,optionRight,70,7700,4,8,0,8,0,1,,,,,,,,,,,,,,,,,,,,,,,,,,,,,,,,,,,,,,,
,,,,,,,,2023-08-16_08h48.09.342,HF_wild_card,2022.2.4,Win32,59.94125757,63d13f8a6bae53e55ef876c2,64d2fd46c836a06233681665,64dc7f2b02f60401466f0a82,,,,,,,decisionTrl,resources/DP.BMP,resources/DG.BMP,Door1,-0.355555556,-0.012962963,1,0,0,1.7445,optionLeft,30,7730,4,9,0,9,0,1,,,,,,,,,,,,,,,,,,,,,,,,,,,,,,,,,,,,,,,
,,,,,,,,2023-08-16_08h48.09.342,HF_wild_card,2022.2.4,Win32,59.94125757,63d13f8a6bae53e55ef876c2,64d2fd46c836a06233681665,64dc7f2b02f60401466f0a82,,,,,,,decisionTrl,resources/DB.BMP,resources/DP.BMP,WildCard_NonEx,-0.29537037,-0.007407407,1,0,0,0.662,optionLeft,45,7775,4,10,0,10,0,1,,,,,,,,,,,,,,,,,,,,,,,,,,,,,,,,,,,,,,,
,,,,,,,,2023-08-16_08h48.09.342,HF_wild_card,2022.2.4,Win32,59.94125757,63d13f8a6bae53e55ef876c2,64d2fd46c836a06233681665,64dc7f2b02f60401466f0a82,,,,,,,decisionTrl,resources/DG.BMP,resources/DP.BMP,Door1,0.213888889,0.00462963,1,0,0,0.5958,optionRight,30,7805,4,11,0,11,0,1,,,,,,,,,,,,,,,,,,,,,,,,,,,,,,,,,,,,,,,
,,,,,,,,2023-08-16_08h48.09.342,HF_wild_card,2022.2.4,Win32,59.94125757,63d13f8a6bae53e55ef876c2,64d2fd46c836a06233681665,64dc7f2b02f60401466f0a82,,,,,,,sngl,resources/DG.BMP,resources/Empty.png,Door2,-0.275,0.002777778,1,0,0,0.5603,optionLeft,20,7825,4,12,0,12,0,1,,,,,,,,,,,,,,,,,,,,,,,,,,,,,,,,,,,,,,,
,,,,,,,,2023-08-16_08h48.09.342,HF_wild_card,2022.2.4,Win32,59.94125757,63d13f8a6bae53e55ef876c2,64d2fd46c836a06233681665,64dc7f2b02f60401466f0a82,,,,,,,sngl,resources/DBN.BMP,resources/Empty.png,Door3,-0.386111111,-0.000925926,1,0,0,0.4954,optionLeft,70,7895,4,13,0,13,0,1,,,,,,,,,,,,,,,,,,,,,,,,,,,,,,,,,,,,,,,
,,,,,,,,2023-08-16_08h48.09.342,HF_wild_card,2022.2.4,Win32,59.94125757,63d13f8a6bae53e55ef876c2,64d2fd46c836a06233681665,64dc7f2b02f60401466f0a82,,,,,,,decisionTrl,resources/DP.BMP,resources/DG.BMP,Door1,-0.249074074,0.005555556,1,0,0,1.2291,optionLeft,30,7925,4,14,0,14,0,1,,,,,,,,,,,,,,,,,,,,,,,,,,,,,,,,,,,,,,,
,,,,,,,,2023-08-16_08h48.09.342,HF_wild_card,2022.2.4,Win32,59.94125757,63d13f8a6bae53e55ef876c2,64d2fd46c836a06233681665,64dc7f2b02f60401466f0a82,,,,,,,decisionTrl,resources/DBN.BMP,resources/DB.BMP,Door3,-0.263888889,0.011111111,1,0,0,1.4949,optionLeft,70,7995,4,15,0,15,0,1,,,,,,,,,,,,,,,,,,,,,,,,,,,,,,,,,,,,,,,
,,,,,,,,2023-08-16_08h48.09.342,HF_wild_card,2022.2.4,Win32,59.94125757,63d13f8a6bae53e55ef876c2,64d2fd46c836a06233681665,64dc7f2b02f60401466f0a82,,,,,,,sngl,resources/Empty.png,resources/DB.BMP,WildCard_NonEx,0.271296296,0.012037037,1,0,0,0.6127,optionRight,45,8040,4,16,0,16,0,1,,,,,,,,,,,,,,,,,,,,,,,,,,,,,,,,,,,,,,,
,,,,,,,,2023-08-16_08h48.09.342,HF_wild_card,2022.2.4,Win32,59.94125757,63d13f8a6bae53e55ef876c2,64d2fd46c836a06233681665,64dc7f2b02f60401466f0a82,,,,,,,ctch,resources/DP.BMP,resources/DR.BMP,Door4,0.242592593,0.00462963,1,0,0,1.0123,optionRight,80,8120,4,17,0,17,0,1,,,,,,,,,,,,,,,,,,,,,,,,,,,,,,,,,,,,,,,
,,,,,,,,2023-08-16_08h48.09.342,HF_wild_card,2022.2.4,Win32,59.94125757,63d13f8a6bae53e55ef876c2,64d2fd46c836a06233681665,64dc7f2b02f60401466f0a82,,,,,,,ctch,resources/DG.BMP,resources/DBN.BMP,Door3,0.249074074,0.008333333,1,0,0,0.8623,optionRight,70,8190,4,18,0,18,0,1,,,,,,,,,,,,,,,,,,,,,,,,,,,,,,,,,,,,,,,
,,,,,,,,2023-08-16_08h48.09.342,HF_wild_card,2022.2.4,Win32,59.94125757,63d13f8a6bae53e55ef876c2,64d2fd46c836a06233681665,64dc7f2b02f60401466f0a82,,,,,,,ctch,resources/DBN.BMP,resources/DG.BMP,Door3,-0.363888889,0.001851852,1,0,0,0.6954,optionLeft,70,8260,4,19,0,19,0,1,,,,,,,,,,,,,,,,,,,,,,,,,,,,,,,,,,,,,,,
,,,,,,,,2023-08-16_08h48.09.342,HF_wild_card,2022.2.4,Win32,59.94125757,63d13f8a6bae53e55ef876c2,64d2fd46c836a06233681665,64dc7f2b02f60401466f0a82,,,,,,,decisionTrl,resources/DP.BMP,resources/DG.BMP,Door2,0.246296296,0.005555556,1,0,0,1.2122,optionRight,20,8280,4,20,0,20,0,1,,,,,,,,,,,,,,,,,,,,,,,,,,,,,,,,,,,,,,,
,,,,,,,,2023-08-16_08h48.09.342,HF_wild_card,2022.2.4,Win32,59.94125757,63d13f8a6bae53e55ef876c2,64d2fd46c836a06233681665,64dc7f2b02f60401466f0a82,,,,,,,decisionTrl,resources/DBN.BMP,resources/DR.BMP,Door4,0.275925926,0.001851852,1,0,0,0.9098,optionRight,60,8340,4,21,0,21,0,1,,,,,,,,,,,,,,,,,,,,,,,,,,,,,,,,,,,,,,,
,,,,,,,,2023-08-16_08h48.09.342,HF_wild_card,2022.2.4,Win32,59.94125757,63d13f8a6bae53e55ef876c2,64d2fd46c836a06233681665,64dc7f2b02f60401466f0a82,,,,,,,decisionTrl,resources/DB.BMP,resources/DG.BMP,WildCard_NonEx,-0.305555556,-0.013888889,1,0,0,1.048,optionLeft,45,8385,4,22,0,22,0,1,,,,,,,,,,,,,,,,,,,,,,,,,,,,,,,,,,,,,,,
,,,,,,,,2023-08-16_08h48.09.342,HF_wild_card,2022.2.4,Win32,59.94125757,63d13f8a6bae53e55ef876c2,64d2fd46c836a06233681665,64dc7f2b02f60401466f0a82,,,,,,,decisionTrl,resources/DG.BMP,resources/DP.BMP,Door2,-0.237962963,0,1,0,0,0.6293,optionLeft,20,8405,4,23,0,23,0,1,,,,,,,,,,,,,,,,,,,,,,,,,,,,,,,,,,,,,,,
,,,,,,,,2023-08-16_08h48.09.342,HF_wild_card,2022.2.4,Win32,59.94125757,63d13f8a6bae53e55ef876c2,64d2fd46c836a06233681665,64dc7f2b02f60401466f0a82,,,,,,,sngl,resources/Empty.png,resources/DR.BMP,Door4,0.298148148,-0.002777778,1,0,0,0.5622,optionRight,80,8485,4,24,0,24,0,1,,,,,,,,,,,,,,,,,,,,,,,,,,,,,,,,,,,,,,,
,,,,,,,,2023-08-16_08h48.09.342,HF_wild_card,2022.2.4,Win32,59.94125757,63d13f8a6bae53e55ef876c2,64d2fd46c836a06233681665,64dc7f2b02f60401466f0a82,,,,,,,ctch,resources/DR.BMP,resources/DP.BMP,Door4,-0.322222222,0.006481481,1,0,0,0.8142,optionLeft,60,8545,4,25,0,25,0,1,,,,,,,,,,,,,,,,,,,,,,,,,,,,,,,,,,,,,,,
,,,,,,,,2023-08-16_08h48.09.342,HF_wild_card,2022.2.4,Win32,59.94125757,63d13f8a6bae53e55ef876c2,64d2fd46c836a06233681665,64dc7f2b02f60401466f0a82,,,,,,,ctch,resources/DG.BMP,resources/DBN.BMP,Door3,0.310185185,0.009259259,1,0,0,0.5958,optionRight,70,8615,4,26,0,26,0,1,,,,,,,,,,,,,,,,,,,,,,,,,,,,,,,,,,,,,,,
,,,,,,,,2023-08-16_08h48.09.342,HF_wild_card,2022.2.4,Win32,59.94125757,63d13f8a6bae53e55ef876c2,64d2fd46c836a06233681665,64dc7f2b02f60401466f0a82,,,,,,,sngl,resources/DP.BMP,resources/Empty.png,Door1,-0.385185185,-0.022222222,1,0,0,0.5762,optionLeft,30,8645,4,27,0,27,0,1,,,,,,,,,,,,,,,,,,,,,,,,,,,,,,,,,,,,,,,
,,,,,,,,2023-08-16_08h48.09.342,HF_wild_card,2022.2.4,Win32,59.94125757,63d13f8a6bae53e55ef876c2,64d2fd46c836a06233681665,64dc7f2b02f60401466f0a82,,,,,,,decisionTrl,resources/DR.BMP,resources/DBN.BMP,Door3,0.252777778,0.02037037,1,0,0,0.5782,optionRight,70,8715,4,28,0,28,0,1,,,,,,,,,,,,,,,,,,,,,,,,,,,,,,,,,,,,,,,
,,,,,,,,2023-08-16_08h48.09.342,HF_wild_card,2022.2.4,Win32,59.94125757,63d13f8a6bae53e55ef876c2,64d2fd46c836a06233681665,64dc7f2b02f60401466f0a82,,,,,,,ctch,resources/DR.BMP,resources/DP.BMP,Door4,-0.313888889,-0.003703704,1,0,0,0.5934,optionLeft,60,8775,4,29,0,29,0,1,,,,,,,,,,,,,,,,,,,,,,,,,,,,,,,,,,,,,,,
,,,,,,,,2023-08-16_08h48.09.342,HF_wild_card,2022.2.4,Win32,59.94125757,63d13f8a6bae53e55ef876c2,64d2fd46c836a06233681665,64dc7f2b02f60401466f0a82,,,,,,,ctch,resources/DP.BMP,resources/DR.BMP,Door4,0.275925926,0.000925926,1,0,0,0.628,optionRight,80,8855,4,30,0,30,0,1,,,,,,,,,,,,,,,,,,,,,,,,,,,,,,,,,,,,,,,
,,,,,,,,2023-08-16_08h48.09.342,HF_wild_card,2022.2.4,Win32,59.94125757,63d13f8a6bae53e55ef876c2,64d2fd46c836a06233681665,64dc7f2b02f60401466f0a82,,,,,,,decisionTrl,resources/DG.BMP,resources/DP.BMP,Door1,0.138888889,0.000925926,1,0,0,1.0131,optionRight,30,8885,4,31,0,31,0,1,,,,,,,,,,,,,,,,,,,,,,,,,,,,,,,,,,,,,,,
,,,,,,,,2023-08-16_08h48.09.342,HF_wild_card,2022.2.4,Win32,59.94125757,63d13f8a6bae53e55ef876c2,64d2fd46c836a06233681665,64dc7f2b02f60401466f0a82,,,,,,,decisionTrl,resources/DR.BMP,resources/DB.BMP,WildCard_NonEx,0.151851852,0.002777778,1,0,0,0.9621,optionRight,45,8930,4,32,0,32,0,1,,,,,,,,,,,,,,,,,,,,,,,,,,,,,,,,,,,,,,,
,,,,,,,,2023-08-16_08h48.09.342,HF_wild_card,2022.2.4,Win32,59.94125757,63d13f8a6bae53e55ef876c2,64d2fd46c836a06233681665,64dc7f2b02f60401466f0a82,,,,,,,ctch,resources/DBN.BMP,resources/DG.BMP,Door3,-0.347222222,0.012037037,1,0,0,0.6779,optionLeft,70,9000,4,33,0,33,0,1,,,,,,,,,,,,,,,,,,,,,,,,,,,,,,,,,,,,,,,
,,,,,,,,2023-08-16_08h48.09.342,HF_wild_card,2022.2.4,Win32,59.94125757,63d13f8a6bae53e55ef876c2,64d2fd46c836a06233681665,64dc7f2b02f60401466f0a82,,,,,,,decisionTrl,resources/DBN.BMP,resources/DR.BMP,Door3,-0.176851852,-0.003703704,1,0,0,0.6458,optionLeft,70,9070,4,34,0,34,0,1,,,,,,,,,,,,,,,,,,,,,,,,,,,,,,,,,,,,,,,
,,,,,,,,2023-08-16_08h48.09.342,HF_wild_card,2022.2.4,Win32,59.94125757,63d13f8a6bae53e55ef876c2,64d2fd46c836a06233681665,64dc7f2b02f60401466f0a82,,,,,,,sngl,resources/Empty.png,resources/DG.BMP,Door2,0.232407407,0.008333333,1,0,0,0.5618,optionRight,40,9110,4,35,0,35,0,1,,,,,,,,,,,,,,,,,,,,,,,,,,,,,,,,,,,,,,,
,,,,,,,,2023-08-16_08h48.09.342,HF_wild_card,2022.2.4,Win32,59.94125757,63d13f8a6bae53e55ef876c2,64d2fd46c836a06233681665,64dc7f2b02f60401466f0a82,,,,,,,sngl,resources/Empty.png,resources/DP.BMP,Door1,0.293518519,0.012037037,1,0,0,0.5134,optionRight,30,9140,4,36,0,36,0,1,,,,,,,,,,,,,,,,,,,,,,,,,,,,,,,,,,,,,,,
,,,,,,,,2023-08-16_08h48.09.342,HF_wild_card,2022.2.4,Win32,59.94125757,63d13f8a6bae53e55ef876c2,64d2fd46c836a06233681665,64dc7f2b02f60401466f0a82,,,,,,,decisionTrl,resources/DG.BMP,resources/DP.BMP,Door1,0.312962963,0.016666667,1,0,0,0.7124,optionRight,30,9170,4,37,0,37,0,1,,,,,,,,,,,,,,,,,,,,,,,,,,,,,,,,,,,,,,,
,,,,,,,,2023-08-16_08h48.09.342,HF_wild_card,2022.2.4,Win32,59.94125757,63d13f8a6bae53e55ef876c2,64d2fd46c836a06233681665,64dc7f2b02f60401466f0a82,,,,,,,decisionTrl,resources/DR.BMP,resources/DBN.BMP,Door3,0.235185185,0.019444444,1,0,0,0.7449,optionRight,70,9240,4,38,0,38,0,1,,,,,,,,,,,,,,,,,,,,,,,,,,,,,,,,,,,,,,,
,,,,,,,,2023-08-16_08h48.09.342,HF_wild_card,2022.2.4,Win32,59.94125757,63d13f8a6bae53e55ef876c2,64d2fd46c836a06233681665,64dc7f2b02f60401466f0a82,,,,,,,sngl,resources/DB.BMP,resources/Empty.png,WildCard_NonEx,-0.352777778,0,1,0,0,0.5616,optionLeft,55,9295,4,39,0,39,0,1,,,,,,,,,,,,,,,,,,,,,,,,,,,,,,,,,,,,,,,
,,,,,,,,2023-08-16_08h48.09.342,HF_wild_card,2022.2.4,Win32,59.94125757,63d13f8a6bae53e55ef876c2,64d2fd46c836a06233681665,64dc7f2b02f60401466f0a82,,,,,,,decisionTrl,resources/DBN.BMP,resources/DR.BMP,Door3,-0.214814815,0.003703704,1,0,0,0.7788,optionLeft,70,9365,4,40,0,40,0,1,,,,,,,,,,,,,,,,,,,,,,,,,,,,,,,,,,,,,,,
,,,,,,,,2023-08-16_08h48.09.342,HF_wild_card,2022.2.4,Win32,59.94125757,63d13f8a6bae53e55ef876c2,64d2fd46c836a06233681665,64dc7f2b02f60401466f0a82,,,,,,,sngl,resources/DR.BMP,resources/Empty.png,Door4,-0.321296296,-0.006481481,1,0,0,0.5784,optionLeft,60,9425,4,41,0,41,0,1,,,,,,,,,,,,,,,,,,,,,,,,,,,,,,,,,,,,,,,
,,,,,,,,2023-08-16_08h48.09.342,HF_wild_card,2022.2.4,Win32,59.94125757,63d13f8a6bae53e55ef876c2,64d2fd46c836a06233681665,64dc7f2b02f60401466f0a82,,,,,,,decisionTrl,resources/DG.BMP,resources/DB.BMP,WildCard_NonEx,0.331481481,0.006481481,1,0,0,0.845,optionRight,45,9470,4,42,0,42,0,1,,,,,,,,,,,,,,,,,,,,,,,,,,,,,,,,,,,,,,,
,,,,,,,,2023-08-16_08h48.09.342,HF_wild_card,2022.2.4,Win32,59.94125757,63d13f8a6bae53e55ef876c2,64d2fd46c836a06233681665,64dc7f2b02f60401466f0a82,,,,,,,sngl,resources/DB.BMP,resources/Empty.png,WildCard_NonEx,-0.274074074,-0.005555556,1,0,0,0.5663,optionLeft,45,9515,4,43,0,43,0,1,,,,,,,,,,,,,,,,,,,,,,,,,,,,,,,,,,,,,,,
,,,,,,,,2023-08-16_08h48.09.342,HF_wild_card,2022.2.4,Win32,59.94125757,63d13f8a6bae53e55ef876c2,64d2fd46c836a06233681665,64dc7f2b02f60401466f0a82,,,,,,,,,,,,,,,,,,,,,,,,,,3,0,3,0,1,,,,,,,,,,,,,,,,,,,,,,,,,,,,,,,,,,
,,,,,,,,2023-08-16_08h48.09.342,HF_wild_card,2022.2.4,Win32,59.94125757,63d13f8a6bae53e55ef876c2,64d2fd46c836a06233681665,64dc7f2b02f60401466f0a82,,,,,,,decisionTrl,resources/DBN.BMP,resources/DB.BMP,Door3,-0.255555556,0.018518519,1,0,0,2.0425,optionLeft,70,9585,5,0,0,0,0,1,,,,,,,,,,,,,,,,,,,,,,,,,,,,,,,,,,,,,,,
,,,,,,,,2023-08-16_08h48.09.342,HF_wild_card,2022.2.4,Win32,59.94125757,63d13f8a6bae53e55ef876c2,64d2fd46c836a06233681665,64dc7f2b02f60401466f0a82,,,,,,,decisionTrl,resources/DP.BMP,resources/DG.BMP,Door1,-0.344444444,-0.009259259,1,0,0,1.1956,optionLeft,30,9615,5,1,0,1,0,1,,,,,,,,,,,,,,,,,,,,,,,,,,,,,,,,,,,,,,,
,,,,,,,,2023-08-16_08h48.09.342,HF_wild_card,2022.2.4,Win32,59.94125757,63d13f8a6bae53e55ef876c2,64d2fd46c836a06233681665,64dc7f2b02f60401466f0a82,,,,,,,sngl,resources/DG.BMP,resources/Empty.png,Door2,-0.326851852,0.008333333,1,0,0,0.5622,optionLeft,40,9655,5,2,0,2,0,1,,,,,,,,,,,,,,,,,,,,,,,,,,,,,,,,,,,,,,,
,,,,,,,,2023-08-16_08h48.09.342,HF_wild_card,2022.2.4,Win32,59.94125757,63d13f8a6bae53e55ef876c2,64d2fd46c836a06233681665,64dc7f2b02f60401466f0a82,,,,,,,sngl,resources/DBN.BMP,resources/Empty.png,Door3,-0.323148148,0.001851852,1,0,0,0.5468,optionLeft,70,9725,5,3,0,3,0,1,,,,,,,,,,,,,,,,,,,,,,,,,,,,,,,,,,,,,,,
,,,,,,,,2023-08-16_08h48.09.342,HF_wild_card,2022.2.4,Win32,59.94125757,63d13f8a6bae53e55ef876c2,64d2fd46c836a06233681665,64dc7f2b02f60401466f0a82,,,,,,,ctch,resources/DG.BMP,resources/DBN.BMP,Door3,0.3,0.012037037,1,0,0,0.9618,optionRight,70,9795,5,4,0,4,0,1,,,,,,,,,,,,,,,,,,,,,,,,,,,,,,,,,,,,,,,
,,,,,,,,2023-08-16_08h48.09.342,HF_wild_card,2022.2.4,Win32,59.94125757,63d13f8a6bae53e55ef876c2,64d2fd46c836a06233681665,64dc7f2b02f60401466f0a82,,,,,,,sngl,resources/Empty.png,resources/DP.BMP,Door1,0.351851852,-0.00462963,1,0,0,0.5117,optionRight,30,9825,5,5,0,5,0,1,,,,,,,,,,,,,,,,,,,,,,,,,,,,,,,,,,,,,,,
,,,,,,,,2023-08-16_08h48.09.342,HF_wild_card,2022.2.4,Win32,59.94125757,63d13f8a6bae53e55ef876c2,64d2fd46c836a06233681665,64dc7f2b02f60401466f0a82,,,,,,,decisionTrl,resources/DBN.BMP,resources/DR.BMP,Door4,0.305555556,0.034259259,1,0,0,0.9116,optionRight,80,9905,5,6,0,6,0,1,,,,,,,,,,,,,,,,,,,,,,,,,,,,,,,,,,,,,,,
,,,,,,,,2023-08-16_08h48.09.342,HF_wild_card,2022.2.4,Win32,59.94125757,63d13f8a6bae53e55ef876c2,64d2fd46c836a06233681665,64dc7f2b02f60401466f0a82,,,,,,,sngl,resources/Empty.png,resources/DBN.BMP,Door3,0.284259259,-0.007407407,1,0,0,0.5135,optionRight,70,9975,5,7,0,7,0,1,,,,,,,,,,,,,,,,,,,,,,,,,,,,,,,,,,,,,,,
,,,,,,,,2023-08-16_08h48.09.342,HF_wild_card,2022.2.4,Win32,59.94125757,63d13f8a6bae53e55ef876c2,64d2fd46c836a06233681665,64dc7f2b02f60401466f0a82,,,,,,,decisionTrl,resources/DBN.BMP,resources/DR.BMP,Door4,0.322222222,0.011111111,1,0,0,0.5806,optionRight,60,10035,5,8,0,8,0,1,,,,,,,,,,,,,,,,,,,,,,,,,,,,,,,,,,,,,,,
,,,,,,,,2023-08-16_08h48.09.342,HF_wild_card,2022.2.4,Win32,59.94125757,63d13f8a6bae53e55ef876c2,64d2fd46c836a06233681665,64dc7f2b02f60401466f0a82,,,,,,,decisionTrl,resources/DR.BMP,resources/DBN.BMP,Door4,-0.300925926,-0.02037037,1,0,0,0.5626,optionLeft,80,10115,5,9,0,9,0,1,,,,,,,,,,,,,,,,,,,,,,,,,,,,,,,,,,,,,,,
,,,,,,,,2023-08-16_08h48.09.342,HF_wild_card,2022.2.4,Win32,59.94125757,63d13f8a6bae53e55ef876c2,64d2fd46c836a06233681665,64dc7f2b02f60401466f0a82,,,,,,,ctch,resources/DG.BMP,resources/DBN.BMP,Door3,0.321296296,-0.002777778,1,0,0,0.6294,optionRight,70,10185,5,10,0,10,0,1,,,,,,,,,,,,,,,,,,,,,,,,,,,,,,,,,,,,,,,
,,,,,,,,2023-08-16_08h48.09.342,HF_wild_card,2022.2.4,Win32,59.94125757,63d13f8a6bae53e55ef876c2,64d2fd46c836a06233681665,64dc7f2b02f60401466f0a82,,,,,,,decisionTrl,resources/DR.BMP,resources/DBN.BMP,Door4,-0.202777778,-0.018518519,1,0,0,0.7622,optionLeft,60,10245,5,11,0,11,0,1,,,,,,,,,,,,,,,,,,,,,,,,,,,,,,,,,,,,,,,
,,,,,,,,2023-08-16_08h48.09.342,HF_wild_card,2022.2.4,Win32,59.94125757,63d13f8a6bae53e55ef876c2,64d2fd46c836a06233681665,64dc7f2b02f60401466f0a82,,,,,,,decisionTrl,resources/DR.BMP,resources/DBN.BMP,Door4,-0.346296296,-0.027777778,1,0,0,0.6445,optionLeft,80,10325,5,12,0,12,0,1,,,,,,,,,,,,,,,,,,,,,,,,,,,,,,,,,,,,,,,
,,,,,,,,2023-08-16_08h48.09.342,HF_wild_card,2022.2.4,Win32,59.94125757,63d13f8a6bae53e55ef876c2,64d2fd46c836a06233681665,64dc7f2b02f60401466f0a82,,,,,,,ctch,resources/DR.BMP,resources/DP.BMP,Door4,-0.238888889,-0.014814815,1,0,0,0.6118,optionLeft,80,10405,5,13,0,13,0,1,,,,,,,,,,,,,,,,,,,,,,,,,,,,,,,,,,,,,,,
,,,,,,,,2023-08-16_08h48.09.342,HF_wild_card,2022.2.4,Win32,59.94125757,63d13f8a6bae53e55ef876c2,64d2fd46c836a06233681665,64dc7f2b02f60401466f0a82,,,,,,,decisionTrl,resources/DG.BMP,resources/DP.BMP,Door1,0.427777778,-0.015740741,1,0,0,0.9621,optionRight,30,10435,5,14,0,14,0,1,,,,,,,,,,,,,,,,,,,,,,,,,,,,,,,,,,,,,,,
,,,,,,,,2023-08-16_08h48.09.342,HF_wild_card,2022.2.4,Win32,59.94125757,63d13f8a6bae53e55ef876c2,64d2fd46c836a06233681665,64dc7f2b02f60401466f0a82,,,,,,,decisionTrl,resources/DBN.BMP,resources/DR.BMP,Door4,0.325,-0.014814815,1,0,0,0.5992,optionRight,60,10495,5,15,0,15,0,1,,,,,,,,,,,,,,,,,,,,,,,,,,,,,,,,,,,,,,,
,,,,,,,,2023-08-16_08h48.09.342,HF_wild_card,2022.2.4,Win32,59.94125757,63d13f8a6bae53e55ef876c2,64d2fd46c836a06233681665,64dc7f2b02f60401466f0a82,,,,,,,ctch,resources/DP.BMP,resources/DR.BMP,Door4,0.337962963,-0.017592593,1,0,0,0.5453,optionRight,60,10555,5,16,0,16,0,1,,,,,,,,,,,,,,,,,,,,,,,,,,,,,,,,,,,,,,,
,,,,,,,,2023-08-16_08h48.09.342,HF_wild_card,2022.2.4,Win32,59.94125757,63d13f8a6bae53e55ef876c2,64d2fd46c836a06233681665,64dc7f2b02f60401466f0a82,,,,,,,decisionTrl,resources/DR.BMP,resources/DBN.BMP,Door3,0.224074074,-0.005555556,1,0,0,0.7111,optionRight,70,10625,5,17,0,17,0,1,,,,,,,,,,,,,,,,,,,,,,,,,,,,,,,,,,,,,,,
,,,,,,,,2023-08-16_08h48.09.342,HF_wild_card,2022.2.4,Win32,59.94125757,63d13f8a6bae53e55ef876c2,64d2fd46c836a06233681665,64dc7f2b02f60401466f0a82,,,,,,,decisionTrl,resources/DG.BMP,resources/DP.BMP,Door2,-0.334259259,-0.023148148,1,0,0,1.2792,optionLeft,20,10645,5,18,0,18,0,1,,,,,,,,,,,,,,,,,,,,,,,,,,,,,,,,,,,,,,,
,,,,,,,,2023-08-16_08h48.09.342,HF_wild_card,2022.2.4,Win32,59.94125757,63d13f8a6bae53e55ef876c2,64d2fd46c836a06233681665,64dc7f2b02f60401466f0a82,,,,,,,sngl,resources/DB.BMP,resources/Empty.png,WildCard_NonEx,-0.227777778,-0.006481481,1,0,0,0.5449,optionLeft,55,10700,5,19,0,19,0,1,,,,,,,,,,,,,,,,,,,,,,,,,,,,,,,,,,,,,,,
,,,,,,,,2023-08-16_08h48.09.342,HF_wild_card,2022.2.4,Win32,59.94125757,63d13f8a6bae53e55ef876c2,64d2fd46c836a06233681665,64dc7f2b02f60401466f0a82,,,,,,,sngl,resources/Empty.png,resources/DG.BMP,Door2,0.264814815,0.006481481,1,0,0,0.6008,optionRight,20,10720,5,20,0,20,0,1,,,,,,,,,,,,,,,,,,,,,,,,,,,,,,,,,,,,,,,
,,,,,,,,2023-08-16_08h48.09.342,HF_wild_card,2022.2.4,Win32,59.94125757,63d13f8a6bae53e55ef876c2,64d2fd46c836a06233681665,64dc7f2b02f60401466f0a82,,,,,,,decisionTrl,resources/DP.BMP,resources/DG.BMP,Door1,-0.275,-0.017592593,1,0,0,0.6124,optionLeft,30,10750,5,21,0,21,0,1,,,,,,,,,,,,,,,,,,,,,,,,,,,,,,,,,,,,,,,
,,,,,,,,2023-08-16_08h48.09.342,HF_wild_card,2022.2.4,Win32,59.94125757,63d13f8a6bae53e55ef876c2,64d2fd46c836a06233681665,64dc7f2b02f60401466f0a82,,,,,,,sngl,resources/Empty.png,resources/DR.BMP,Door4,0.260185185,-0.022222222,1,0,0,0.5317,optionRight,60,10810,5,22,0,22,0,1,,,,,,,,,,,,,,,,,,,,,,,,,,,,,,,,,,,,,,,
,,,,,,,,2023-08-16_08h48.09.342,HF_wild_card,2022.2.4,Win32,59.94125757,63d13f8a6bae53e55ef876c2,64d2fd46c836a06233681665,64dc7f2b02f60401466f0a82,,,,,,,decisionTrl,resources/DG.BMP,resources/DP.BMP,Door1,0.25462963,0.000925926,1,0,0,1.1274,optionRight,30,10840,5,23,0,23,0,1,,,,,,,,,,,,,,,,,,,,,,,,,,,,,,,,,,,,,,,
,,,,,,,,2023-08-16_08h48.09.342,HF_wild_card,2022.2.4,Win32,59.94125757,63d13f8a6bae53e55ef876c2,64d2fd46c836a06233681665,64dc7f2b02f60401466f0a82,,,,,,,sngl,resources/DB.BMP,resources/Empty.png,WildCard_NonEx,-0.362037037,0.00462963,1,0,0,5.5478,optionLeft,45,10885,5,24,0,24,0,1,,,,,,,,,,,,,,,,,,,,,,,,,,,,,,,,,,,,,,,
,,,,,,,,2023-08-16_08h48.09.342,HF_wild_card,2022.2.4,Win32,59.94125757,63d13f8a6bae53e55ef876c2,64d2fd46c836a06233681665,64dc7f2b02f60401466f0a82,,,,,,,sngl,resources/DR.BMP,resources/Empty.png,Door4,-0.268518519,-0.02037037,1,0,0,0.5952,optionLeft,80,10965,5,25,0,25,0,1,,,,,,,,,,,,,,,,,,,,,,,,,,,,,,,,,,,,,,,
,,,,,,,,2023-08-16_08h48.09.342,HF_wild_card,2022.2.4,Win32,59.94125757,63d13f8a6bae53e55ef876c2,64d2fd46c836a06233681665,64dc7f2b02f60401466f0a82,,,,,,,decisionTrl,resources/DB.BMP,resources/DP.BMP,WildCard_NonEx,-0.168518519,-0.003703704,1,0,0,0.5495,optionLeft,55,11020,5,26,0,26,0,1,,,,,,,,,,,,,,,,,,,,,,,,,,,,,,,,,,,,,,,
,,,,,,,,2023-08-16_08h48.09.342,HF_wild_card,2022.2.4,Win32,59.94125757,63d13f8a6bae53e55ef876c2,64d2fd46c836a06233681665,64dc7f2b02f60401466f0a82,,,,,,,decisionTrl,resources/DP.BMP,resources/DG.BMP,Door2,0.274074074,-0.012037037,1,0,0,0.9941,optionRight,20,11040,5,27,0,27,0,1,,,,,,,,,,,,,,,,,,,,,,,,,,,,,,,,,,,,,,,
,,,,,,,,2023-08-16_08h48.09.342,HF_wild_card,2022.2.4,Win32,59.94125757,63d13f8a6bae53e55ef876c2,64d2fd46c836a06233681665,64dc7f2b02f60401466f0a82,,,,,,,sngl,resources/Empty.png,resources/DB.BMP,WildCard_NonEx,0.306481481,-0.001851852,1,0,0,0.512,optionRight,55,11095,5,28,0,28,0,1,,,,,,,,,,,,,,,,,,,,,,,,,,,,,,,,,,,,,,,
,,,,,,,,2023-08-16_08h48.09.342,HF_wild_card,2022.2.4,Win32,59.94125757,63d13f8a6bae53e55ef876c2,64d2fd46c836a06233681665,64dc7f2b02f60401466f0a82,,,,,,,sngl,resources/Empty.png,resources/DB.BMP,WildCard_NonEx,0.375925926,0.019444444,1,0,0,0.3952,optionRight,45,11140,5,29,0,29,0,1,,,,,,,,,,,,,,,,,,,,,,,,,,,,,,,,,,,,,,,
,,,,,,,,2023-08-16_08h48.09.342,HF_wild_card,2022.2.4,Win32,59.94125757,63d13f8a6bae53e55ef876c2,64d2fd46c836a06233681665,64dc7f2b02f60401466f0a82,,,,,,,decisionTrl,resources/DB.BMP,resources/DG.BMP,WildCard_NonEx,-0.157407407,0.000925926,1,0,0,0.6784,optionLeft,55,11195,5,30,0,30,0,1,,,,,,,,,,,,,,,,,,,,,,,,,,,,,,,,,,,,,,,
,,,,,,,,2023-08-16_08h48.09.342,HF_wild_card,2022.2.4,Win32,59.94125757,63d13f8a6bae53e55ef876c2,64d2fd46c836a06233681665,64dc7f2b02f60401466f0a82,,,,,,,ctch,resources/DBN.BMP,resources/DG.BMP,Door3,-0.296296296,-0.003703704,1,0,0,0.7949,optionLeft,70,11265,5,31,0,31,0,1,,,,,,,,,,,,,,,,,,,,,,,,,,,,,,,,,,,,,,,
,,,,,,,,2023-08-16_08h48.09.342,HF_wild_card,2022.2.4,Win32,59.94125757,63d13f8a6bae53e55ef876c2,64d2fd46c836a06233681665,64dc7f2b02f60401466f0a82,,,,,,,decisionTrl,resources/DG.BMP,resources/DP.BMP,Door1,0.258333333,-0.033333333,1,0,0,0.8455,optionRight,30,11295,5,32,0,32,0,1,,,,,,,,,,,,,,,,,,,,,,,,,,,,,,,,,,,,,,,
,,,,,,,,2023-08-16_08h48.09.342,HF_wild_card,2022.2.4,Win32,59.94125757,63d13f8a6bae53e55ef876c2,64d2fd46c836a06233681665,64dc7f2b02f60401466f0a82,,,,,,,sngl,resources/DP.BMP,resources/Empty.png,Door1,-0.323148148,-0.027777778,1,0,0,0.5114,optionLeft,30,11325,5,33,0,33,0,1,,,,,,,,,,,,,,,,,,,,,,,,,,,,,,,,,,,,,,,
,,,,,,,,2023-08-16_08h48.09.342,HF_wild_card,2022.2.4,Win32,59.94125757,63d13f8a6bae53e55ef876c2,64d2fd46c836a06233681665,64dc7f2b02f60401466f0a82,,,,,,,decisionTrl,resources/DR.BMP,resources/DB.BMP,WildCard_NonEx,0.359259259,-0.017592593,1,0,0,0.6615,optionRight,55,11380,5,34,0,34,0,1,,,,,,,,,,,,,,,,,,,,,,,,,,,,,,,,,,,,,,,
,,,,,,,,2023-08-16_08h48.09.342,HF_wild_card,2022.2.4,Win32,59.94125757,63d13f8a6bae53e55ef876c2,64d2fd46c836a06233681665,64dc7f2b02f60401466f0a82,,,,,,,decisionTrl,resources/DB.BMP,resources/DR.BMP,Door4,0.387962963,0.005555556,1,0,0,0.4952,optionRight,80,11460,5,35,0,35,0,1,,,,,,,,,,,,,,,,,,,,,,,,,,,,,,,,,,,,,,,
,,,,,,,,2023-08-16_08h48.09.342,HF_wild_card,2022.2.4,Win32,59.94125757,63d13f8a6bae53e55ef876c2,64d2fd46c836a06233681665,64dc7f2b02f60401466f0a82,,,,,,,decisionTrl,resources/DBN.BMP,resources/DR.BMP,Door4,0.457407407,-0.009259259,1,0,0,0.481,optionRight,80,11540,5,36,0,36,0,1,,,,,,,,,,,,,,,,,,,,,,,,,,,,,,,,,,,,,,,
,,,,,,,,2023-08-16_08h48.09.342,HF_wild_card,2022.2.4,Win32,59.94125757,63d13f8a6bae53e55ef876c2,64d2fd46c836a06233681665,64dc7f2b02f60401466f0a82,,,,,,,ctch,resources/DR.BMP,resources/DP.BMP,Door4,-0.27962963,-0.019444444,1,0,0,0.7141,optionLeft,80,11620,5,37,0,37,0,1,,,,,,,,,,,,,,,,,,,,,,,,,,,,,,,,,,,,,,,
,,,,,,,,2023-08-16_08h48.09.342,HF_wild_card,2022.2.4,Win32,59.94125757,63d13f8a6bae53e55ef876c2,64d2fd46c836a06233681665,64dc7f2b02f60401466f0a82,,,,,,,decisionTrl,resources/DP.BMP,resources/DB.BMP,WildCard_NonEx,0.312037037,-0.000925926,1,0,0,0.6114,optionRight,45,11665,5,38,0,38,0,1,,,,,,,,,,,,,,,,,,,,,,,,,,,,,,,,,,,,,,,
,,,,,,,,2023-08-16_08h48.09.342,HF_wild_card,2022.2.4,Win32,59.94125757,63d13f8a6bae53e55ef876c2,64d2fd46c836a06233681665,64dc7f2b02f60401466f0a82,,,,,,,decisionTrl,resources/DP.BMP,resources/DG.BMP,Door1,-0.285185185,-0.02962963,1,0,0,0.5438,optionLeft,30,11695,5,39,0,39,0,1,,,,,,,,,,,,,,,,,,,,,,,,,,,,,,,,,,,,,,,
,,,,,,,,2023-08-16_08h48.09.342,HF_wild_card,2022.2.4,Win32,59.94125757,63d13f8a6bae53e55ef876c2,64d2fd46c836a06233681665,64dc7f2b02f60401466f0a82,,,,,,,ctch,resources/DBN.BMP,resources/DG.BMP,Door3,-0.275,-0.017592593,1,0,0,0.5786,optionLeft,70,11765,5,40,0,40,0,1,,,,,,,,,,,,,,,,,,,,,,,,,,,,,,,,,,,,,,,
,,,,,,,,2023-08-16_08h48.09.342,HF_wild_card,2022.2.4,Win32,59.94125757,63d13f8a6bae53e55ef876c2,64d2fd46c836a06233681665,64dc7f2b02f60401466f0a82,,,,,,,ctch,resources/DP.BMP,resources/DR.BMP,Door4,0.306481481,-0.012962963,1,0,0,0.5932,optionRight,80,11845,5,41,0,41,0,1,,,,,,,,,,,,,,,,,,,,,,,,,,,,,,,,,,,,,,,
,,,,,,,,2023-08-16_08h48.09.342,HF_wild_card,2022.2.4,Win32,59.94125757,63d13f8a6bae53e55ef876c2,64d2fd46c836a06233681665,64dc7f2b02f60401466f0a82,,,,,,,decisionTrl,resources/DB.BMP,resources/DBN.BMP,Door3,0.210185185,0.012962963,1,0,0,0.9788,optionRight,70,11915,5,42,0,42,0,1,,,,,,,,,,,,,,,,,,,,,,,,,,,,,,,,,,,,,,,
,,,,,,,,2023-08-16_08h48.09.342,HF_wild_card,2022.2.4,Win32,59.94125757,63d13f8a6bae53e55ef876c2,64d2fd46c836a06233681665,64dc7f2b02f60401466f0a82,,,,,,,decisionTrl,resources/DG.BMP,resources/DB.BMP,WildCard_NonEx,0.244444444,-0.017592593,1,0,0,0.8083,optionRight,55,11970,5,43,0,43,0,1,,,,,,,,,,,,,,,,,,,,,,,,,,,,,,,,,,,,,,,
,,,,,,,,2023-08-16_08h48.09.342,HF_wild_card,2022.2.4,Win32,59.94125757,63d13f8a6bae53e55ef876c2,64d2fd46c836a06233681665,64dc7f2b02f60401466f0a82,,,,,,,,,,,,,,,,,,,,,,,,,,4,0,4,0,1,,,,,,,,,,,,,,,,,,,,,,,,,,,,,,,,,,
,,,,,,,,2023-08-16_08h48.09.342,HF_wild_card,2022.2.4,Win32,59.94125757,63d13f8a6bae53e55ef876c2,64d2fd46c836a06233681665,64dc7f2b02f60401466f0a82,,,,,,,decisionTrl,resources/DP.BMP,resources/DG.BMP,Door2,0.350925926,-0.07962963,1,0,0,2.2885,optionRight,40,12010,6,0,0,0,0,1,,,,,,,,,,,,,,,,,,,,,,,,,,,,,,,,,,,,,,,
,,,,,,,,2023-08-16_08h48.09.342,HF_wild_card,2022.2.4,Win32,59.94125757,63d13f8a6bae53e55ef876c2,64d2fd46c836a06233681665,64dc7f2b02f60401466f0a82,,,,,,,decisionTrl,resources/DB.BMP,resources/DP.BMP,WildCard_NonEx,-0.459259259,-0.044444444,1,0,0,0.6621,optionLeft,45,12055,6,1,0,1,0,1,,,,,,,,,,,,,,,,,,,,,,,,,,,,,,,,,,,,,,,
,,,,,,,,2023-08-16_08h48.09.342,HF_wild_card,2022.2.4,Win32,59.94125757,63d13f8a6bae53e55ef876c2,64d2fd46c836a06233681665,64dc7f2b02f60401466f0a82,,,,,,,decisionTrl,resources/DB.BMP,resources/DG.BMP,WildCard_NonEx,-0.314814815,-0.007407407,1,0,0,0.5786,optionLeft,55,12110,6,2,0,2,0,1,,,,,,,,,,,,,,,,,,,,,,,,,,,,,,,,,,,,,,,
,,,,,,,,2023-08-16_08h48.09.342,HF_wild_card,2022.2.4,Win32,59.94125757,63d13f8a6bae53e55ef876c2,64d2fd46c836a06233681665,64dc7f2b02f60401466f0a82,,,,,,,sngl,resources/Empty.png,resources/DBN.BMP,Door3,0.269444444,0.010185185,1,0,0,0.5281,optionRight,70,12180,6,3,0,3,0,1,,,,,,,,,,,,,,,,,,,,,,,,,,,,,,,,,,,,,,,
,,,,,,,,2023-08-16_08h48.09.342,HF_wild_card,2022.2.4,Win32,59.94125757,63d13f8a6bae53e55ef876c2,64d2fd46c836a06233681665,64dc7f2b02f60401466f0a82,,,,,,,decisionTrl,resources/DBN.BMP,resources/DR.BMP,Door3,-0.342592593,-0.00462963,1,0,0,1.0284,optionLeft,70,12250,6,4,0,4,0,1,,,,,,,,,,,,,,,,,,,,,,,,,,,,,,,,,,,,,,,
,,,,,,,,2023-08-16_08h48.09.342,HF_wild_card,2022.2.4,Win32,59.94125757,63d13f8a6bae53e55ef876c2,64d2fd46c836a06233681665,64dc7f2b02f60401466f0a82,,,,,,,decisionTrl,resources/DP.BMP,resources/DG.BMP,Door1,-0.306481481,-0.025925926,1,0,0,0.662,optionLeft,30,12280,6,5,0,5,0,1,,,,,,,,,,,,,,,,,,,,,,,,,,,,,,,,,,,,,,,
,,,,,,,,2023-08-16_08h48.09.342,HF_wild_card,2022.2.4,Win32,59.94125757,63d13f8a6bae53e55ef876c2,64d2fd46c836a06233681665,64dc7f2b02f60401466f0a82,,,,,,,decisionTrl,resources/DP.BMP,resources/DG.BMP,Door2,0.230555556,-0.002777778,1,0,0,0.7325,optionRight,40,12320,6,6,0,6,0,1,,,,,,,,,,,,,,,,,,,,,,,,,,,,,,,,,,,,,,,
,,,,,,,,2023-08-16_08h48.09.342,HF_wild_card,2022.2.4,Win32,59.94125757,63d13f8a6bae53e55ef876c2,64d2fd46c836a06233681665,64dc7f2b02f60401466f0a82,,,,,,,sngl,resources/DB.BMP,resources/Empty.png,WildCard_NonEx,-0.290740741,-0.008333333,1,0,0,0.4948,optionLeft,45,12365,6,7,0,7,0,1,,,,,,,,,,,,,,,,,,,,,,,,,,,,,,,,,,,,,,,
,,,,,,,,2023-08-16_08h48.09.342,HF_wild_card,2022.2.4,Win32,59.94125757,63d13f8a6bae53e55ef876c2,64d2fd46c836a06233681665,64dc7f2b02f60401466f0a82,,,,,,,sngl,resources/DG.BMP,resources/Empty.png,Door2,-0.322222222,-0.024074074,1,0,0,0.4825,optionLeft,20,12385,6,8,0,8,0,1,,,,,,,,,,,,,,,,,,,,,,,,,,,,,,,,,,,,,,,
,,,,,,,,2023-08-16_08h48.09.342,HF_wild_card,2022.2.4,Win32,59.94125757,63d13f8a6bae53e55ef876c2,64d2fd46c836a06233681665,64dc7f2b02f60401466f0a82,,,,,,,decisionTrl,resources/DBN.BMP,resources/DR.BMP,Door3,-0.375,-0.007407407,1,0,0,0.6768,optionLeft,70,12455,6,9,0,9,0,1,,,,,,,,,,,,,,,,,,,,,,,,,,,,,,,,,,,,,,,
,,,,,,,,2023-08-16_08h48.09.342,HF_wild_card,2022.2.4,Win32,59.94125757,63d13f8a6bae53e55ef876c2,64d2fd46c836a06233681665,64dc7f2b02f60401466f0a82,,,,,,,decisionTrl,resources/DB.BMP,resources/DR.BMP,Door4,0.378703704,-0.009259259,1,0,0,0.495,optionRight,80,12535,6,10,0,10,0,1,,,,,,,,,,,,,,,,,,,,,,,,,,,,,,,,,,,,,,,
,,,,,,,,2023-08-16_08h48.09.342,HF_wild_card,2022.2.4,Win32,59.94125757,63d13f8a6bae53e55ef876c2,64d2fd46c836a06233681665,64dc7f2b02f60401466f0a82,,,,,,,sngl,resources/DB.BMP,resources/Empty.png,WildCard_NonEx,-0.253703704,-0.007407407,1,0,0,0.5147,optionLeft,55,12590,6,11,0,11,0,1,,,,,,,,,,,,,,,,,,,,,,,,,,,,,,,,,,,,,,,
,,,,,,,,2023-08-16_08h48.09.342,HF_wild_card,2022.2.4,Win32,59.94125757,63d13f8a6bae53e55ef876c2,64d2fd46c836a06233681665,64dc7f2b02f60401466f0a82,,,,,,,sngl,resources/Empty.png,resources/DG.BMP,Door2,0.326851852,0.016666667,1,0,0,0.5624,optionRight,40,12630,6,12,0,12,0,1,,,,,,,,,,,,,,,,,,,,,,,,,,,,,,,,,,,,,,,
,,,,,,,,2023-08-16_08h48.09.342,HF_wild_card,2022.2.4,Win32,59.94125757,63d13f8a6bae53e55ef876c2,64d2fd46c836a06233681665,64dc7f2b02f60401466f0a82,,,,,,,ctch,resources/DP.BMP,resources/DR.BMP,Door4,0.407407407,0.007407407,1,0,0,0.7605,optionRight,80,12710,6,13,0,13,0,1,,,,,,,,,,,,,,,,,,,,,,,,,,,,,,,,,,,,,,,
,,,,,,,,2023-08-16_08h48.09.342,HF_wild_card,2022.2.4,Win32,59.94125757,63d13f8a6bae53e55ef876c2,64d2fd46c836a06233681665,64dc7f2b02f60401466f0a82,,,,,,,decisionTrl,resources/DG.BMP,resources/DP.BMP,Door1,0.275925926,-0.006481481,1,0,0,0.6447,optionRight,30,12740,6,14,0,14,0,1,,,,,,,,,,,,,,,,,,,,,,,,,,,,,,,,,,,,,,,
,,,,,,,,2023-08-16_08h48.09.342,HF_wild_card,2022.2.4,Win32,59.94125757,63d13f8a6bae53e55ef876c2,64d2fd46c836a06233681665,64dc7f2b02f60401466f0a82,,,,,,,ctch,resources/DR.BMP,resources/DP.BMP,Door4,-0.292592593,-0.006481481,1,0,0,0.5263,optionLeft,80,12820,6,15,0,15,0,1,,,,,,,,,,,,,,,,,,,,,,,,,,,,,,,,,,,,,,,
,,,,,,,,2023-08-16_08h48.09.342,HF_wild_card,2022.2.4,Win32,59.94125757,63d13f8a6bae53e55ef876c2,64d2fd46c836a06233681665,64dc7f2b02f60401466f0a82,,,,,,,decisionTrl,resources/DR.BMP,resources/DBN.BMP,Door4,-0.456481481,-0.015740741,1,0,0,0.4932,optionLeft,80,12900,6,16,0,16,0,1,,,,,,,,,,,,,,,,,,,,,,,,,,,,,,,,,,,,,,,
,,,,,,,,2023-08-16_08h48.09.342,HF_wild_card,2022.2.4,Win32,59.94125757,63d13f8a6bae53e55ef876c2,64d2fd46c836a06233681665,64dc7f2b02f60401466f0a82,,,,,,,ctch,resources/DBN.BMP,resources/DG.BMP,Door3,-0.317592593,-0.009259259,1,0,0,0.5281,optionLeft,70,12970,6,17,0,17,0,1,,,,,,,,,,,,,,,,,,,,,,,,,,,,,,,,,,,,,,,
,,,,,,,,2023-08-16_08h48.09.342,HF_wild_card,2022.2.4,Win32,59.94125757,63d13f8a6bae53e55ef876c2,64d2fd46c836a06233681665,64dc7f2b02f60401466f0a82,,,,,,,decisionTrl,resources/DBN.BMP,resources/DR.BMP,Door4,0.221296296,-0.011111111,1,0,0,1.3472,optionRight,80,13050,6,18,0,18,0,1,,,,,,,,,,,,,,,,,,,,,,,,,,,,,,,,,,,,,,,
,,,,,,,,2023-08-16_08h48.09.342,HF_wild_card,2022.2.4,Win32,59.94125757,63d13f8a6bae53e55ef876c2,64d2fd46c836a06233681665,64dc7f2b02f60401466f0a82,,,,,,,decisionTrl,resources/DP.BMP,resources/DG.BMP,Door1,-0.381481481,-0.003703704,1,0,0,0.7504,optionLeft,30,13080,6,19,0,19,0,1,,,,,,,,,,,,,,,,,,,,,,,,,,,,,,,,,,,,,,,
,,,,,,,,2023-08-16_08h48.09.342,HF_wild_card,2022.2.4,Win32,59.94125757,63d13f8a6bae53e55ef876c2,64d2fd46c836a06233681665,64dc7f2b02f60401466f0a82,,,,,,,decisionTrl,resources/DBN.BMP,resources/DB.BMP,Door3,-0.269444444,0.021296296,1,0,0,1.0128,optionLeft,70,13150,6,20,0,20,0,1,,,,,,,,,,,,,,,,,,,,,,,,,,,,,,,,,,,,,,,
,,,,,,,,2023-08-16_08h48.09.342,HF_wild_card,2022.2.4,Win32,59.94125757,63d13f8a6bae53e55ef876c2,64d2fd46c836a06233681665,64dc7f2b02f60401466f0a82,,,,,,,ctch,resources/DG.BMP,resources/DBN.BMP,Door3,0.399074074,0.001851852,1,0,0,0.6135,optionRight,70,13220,6,21,0,21,0,1,,,,,,,,,,,,,,,,,,,,,,,,,,,,,,,,,,,,,,,
,,,,,,,,2023-08-16_08h48.09.342,HF_wild_card,2022.2.4,Win32,59.94125757,63d13f8a6bae53e55ef876c2,64d2fd46c836a06233681665,64dc7f2b02f60401466f0a82,,,,,,,sngl,resources/Empty.png,resources/DB.BMP,WildCard_NonEx,0.355555556,0.018518519,1,0,0,0.4958,optionRight,45,13265,6,22,0,22,0,1,,,,,,,,,,,,,,,,,,,,,,,,,,,,,,,,,,,,,,,
,,,,,,,,2023-08-16_08h48.09.342,HF_wild_card,2022.2.4,Win32,59.94125757,63d13f8a6bae53e55ef876c2,64d2fd46c836a06233681665,64dc7f2b02f60401466f0a82,,,,,,,sngl,resources/DP.BMP,resources/Empty.png,Door1,-0.27037037,-0.010185185,1,0,0,0.6962,optionLeft,30,13295,6,23,0,23,0,1,,,,,,,,,,,,,,,,,,,,,,,,,,,,,,,,,,,,,,,
,,,,,,,,2023-08-16_08h48.09.342,HF_wild_card,2022.2.4,Win32,59.94125757,63d13f8a6bae53e55ef876c2,64d2fd46c836a06233681665,64dc7f2b02f60401466f0a82,,,,,,,sngl,resources/DBN.BMP,resources/Empty.png,Door3,-0.27962963,0.034259259,1,0,0,0.6115,optionLeft,70,13365,6,24,0,24,0,1,,,,,,,,,,,,,,,,,,,,,,,,,,,,,,,,,,,,,,,
,,,,,,,,2023-08-16_08h48.09.342,HF_wild_card,2022.2.4,Win32,59.94125757,63d13f8a6bae53e55ef876c2,64d2fd46c836a06233681665,64dc7f2b02f60401466f0a82,,,,,,,decisionTrl,resources/DBN.BMP,resources/DR.BMP,Door4,0.358333333,0.005555556,1,0,0,0.529,optionRight,60,13425,6,25,0,25,0,1,,,,,,,,,,,,,,,,,,,,,,,,,,,,,,,,,,,,,,,
,,,,,,,,2023-08-16_08h48.09.342,HF_wild_card,2022.2.4,Win32,59.94125757,63d13f8a6bae53e55ef876c2,64d2fd46c836a06233681665,64dc7f2b02f60401466f0a82,,,,,,,decisionTrl,resources/DR.BMP,resources/DBN.BMP,Door4,-0.340740741,0.022222222,1,0,0,0.5276,optionLeft,60,13485,6,26,0,26,0,1,,,,,,,,,,,,,,,,,,,,,,,,,,,,,,,,,,,,,,,
,,,,,,,,2023-08-16_08h48.09.342,HF_wild_card,2022.2.4,Win32,59.94125757,63d13f8a6bae53e55ef876c2,64d2fd46c836a06233681665,64dc7f2b02f60401466f0a82,,,,,,,decisionTrl,resources/DB.BMP,resources/DBN.BMP,Door3,0.118518519,-0.003703704,1,0,0,1.0802,optionRight,70,13555,6,27,0,27,0,1,,,,,,,,,,,,,,,,,,,,,,,,,,,,,,,,,,,,,,,
,,,,,,,,2023-08-16_08h48.09.342,HF_wild_card,2022.2.4,Win32,59.94125757,63d13f8a6bae53e55ef876c2,64d2fd46c836a06233681665,64dc7f2b02f60401466f0a82,,,,,,,sngl,resources/Empty.png,resources/DP.BMP,Door1,0.280555556,-0.005555556,1,0,0,0.6107,optionRight,30,13585,6,28,0,28,0,1,,,,,,,,,,,,,,,,,,,,,,,,,,,,,,,,,,,,,,,
,,,,,,,,2023-08-16_08h48.09.342,HF_wild_card,2022.2.4,Win32,59.94125757,63d13f8a6bae53e55ef876c2,64d2fd46c836a06233681665,64dc7f2b02f60401466f0a82,,,,,,,ctch,resources/DR.BMP,resources/DP.BMP,Door4,-0.276851852,-0.001851852,1,0,0,0.7119,optionLeft,80,13665,6,29,0,29,0,1,,,,,,,,,,,,,,,,,,,,,,,,,,,,,,,,,,,,,,,
,,,,,,,,2023-08-16_08h48.09.342,HF_wild_card,2022.2.4,Win32,59.94125757,63d13f8a6bae53e55ef876c2,64d2fd46c836a06233681665,64dc7f2b02f60401466f0a82,,,,,,,decisionTrl,resources/DG.BMP,resources/DP.BMP,Door1,0.291666667,0.011111111,1,0,0,0.6282,optionRight,30,13695,6,30,0,30,0,1,,,,,,,,,,,,,,,,,,,,,,,,,,,,,,,,,,,,,,,
,,,,,,,,2023-08-16_08h48.09.342,HF_wild_card,2022.2.4,Win32,59.94125757,63d13f8a6bae53e55ef876c2,64d2fd46c836a06233681665,64dc7f2b02f60401466f0a82,,,,,,,decisionTrl,resources/DR.BMP,resources/DBN.BMP,Door4,-0.292592593,0.011111111,1,0,0,0.6275,optionLeft,60,13755,6,31,0,31,0,1,,,,,,,,,,,,,,,,,,,,,,,,,,,,,,,,,,,,,,,
,,,,,,,,2023-08-16_08h48.09.342,HF_wild_card,2022.2.4,Win32,59.94125757,63d13f8a6bae53e55ef876c2,64d2fd46c836a06233681665,64dc7f2b02f60401466f0a82,,,,,,,ctch,resources/DP.BMP,resources/DR.BMP,Door4,0.292592593,-0.006481481,1,0,0,0.6155,optionRight,60,13815,6,32,0,32,0,1,,,,,,,,,,,,,,,,,,,,,,,,,,,,,,,,,,,,,,,
,,,,,,,,2023-08-16_08h48.09.342,HF_wild_card,2022.2.4,Win32,59.94125757,63d13f8a6bae53e55ef876c2,64d2fd46c836a06233681665,64dc7f2b02f60401466f0a82,,,,,,,decisionTrl,resources/DR.BMP,resources/DBN.BMP,Door4,-0.268518519,-0.003703704,1,0,0,0.5779,optionLeft,60,13875,6,33,0,33,0,1,,,,,,,,,,,,,,,,,,,,,,,,,,,,,,,,,,,,,,,
,,,,,,,,2023-08-16_08h48.09.342,HF_wild_card,2022.2.4,Win32,59.94125757,63d13f8a6bae53e55ef876c2,64d2fd46c836a06233681665,64dc7f2b02f60401466f0a82,,,,,,,sngl,resources/DR.BMP,resources/Empty.png,Door4,-0.358333333,-0.016666667,1,0,0,0.5441,optionLeft,60,13935,6,34,0,34,0,1,,,,,,,,,,,,,,,,,,,,,,,,,,,,,,,,,,,,,,,
,,,,,,,,2023-08-16_08h48.09.342,HF_wild_card,2022.2.4,Win32,59.94125757,63d13f8a6bae53e55ef876c2,64d2fd46c836a06233681665,64dc7f2b02f60401466f0a82,,,,,,,decisionTrl,resources/DR.BMP,resources/DB.BMP,Door4,-0.347222222,-0.021296296,1,0,0,0.4949,optionLeft,80,14015,6,35,0,35,0,1,,,,,,,,,,,,,,,,,,,,,,,,,,,,,,,,,,,,,,,
,,,,,,,,2023-08-16_08h48.09.342,HF_wild_card,2022.2.4,Win32,59.94125757,63d13f8a6bae53e55ef876c2,64d2fd46c836a06233681665,64dc7f2b02f60401466f0a82,,,,,,,decisionTrl,resources/DG.BMP,resources/DP.BMP,Door1,0.196296296,-0.001851852,1,0,0,0.661,optionRight,30,14045,6,36,0,36,0,1,,,,,,,,,,,,,,,,,,,,,,,,,,,,,,,,,,,,,,,
,,,,,,,,2023-08-16_08h48.09.342,HF_wild_card,2022.2.4,Win32,59.94125757,63d13f8a6bae53e55ef876c2,64d2fd46c836a06233681665,64dc7f2b02f60401466f0a82,,,,,,,sngl,resources/Empty.png,resources/DR.BMP,Door4,0.364814815,-0.007407407,1,0,0,0.4614,optionRight,80,14125,6,37,0,37,0,1,,,,,,,,,,,,,,,,,,,,,,,,,,,,,,,,,,,,,,,
,,,,,,,,2023-08-16_08h48.09.342,HF_wild_card,2022.2.4,Win32,59.94125757,63d13f8a6bae53e55ef876c2,64d2fd46c836a06233681665,64dc7f2b02f60401466f0a82,,,,,,,ctch,resources/DBN.BMP,resources/DG.BMP,Door3,-0.3,0.00462963,1,0,0,0.644,optionLeft,70,14195,6,38,0,38,0,1,,,,,,,,,,,,,,,,,,,,,,,,,,,,,,,,,,,,,,,
,,,,,,,,2023-08-16_08h48.09.342,HF_wild_card,2022.2.4,Win32,59.94125757,63d13f8a6bae53e55ef876c2,64d2fd46c836a06233681665,64dc7f2b02f60401466f0a82,,,,,,,decisionTrl,resources/DG.BMP,resources/DB.BMP,WildCard_NonEx,0.394444444,-0.005555556,1,0,0,0.5638,optionRight,45,14240,6,39,0,39,0,1,,,,,,,,,,,,,,,,,,,,,,,,,,,,,,,,,,,,,,,
,,,,,,,,2023-08-16_08h48.09.342,HF_wild_card,2022.2.4,Win32,59.94125757,63d13f8a6bae53e55ef876c2,64d2fd46c836a06233681665,64dc7f2b02f60401466f0a82,,,,,,,decisionTrl,resources/DP.BMP,resources/DB.BMP,WildCard_NonEx,0.292592593,-0.003703704,1,0,0,1.8286,optionRight,55,14295,6,40,0,40,0,1,,,,,,,,,,,,,,,,,,,,,,,,,,,,,,,,,,,,,,,
,,,,,,,,2023-08-16_08h48.09.342,HF_wild_card,2022.2.4,Win32,59.94125757,63d13f8a6bae53e55ef876c2,64d2fd46c836a06233681665,64dc7f2b02f60401466f0a82,,,,,,,sngl,resources/Empty.png,resources/DB.BMP,WildCard_NonEx,0.300925926,0.006481481,1,0,0,0.5124,optionRight,55,14350,6,41,0,41,0,1,,,,,,,,,,,,,,,,,,,,,,,,,,,,,,,,,,,,,,,
,,,,,,,,2023-08-16_08h48.09.342,HF_wild_card,2022.2.4,Win32,59.94125757,63d13f8a6bae53e55ef876c2,64d2fd46c836a06233681665,64dc7f2b02f60401466f0a82,,,,,,,decisionTrl,resources/DG.BMP,resources/DP.BMP,Door1,0.368518519,0.016666667,1,0,0,1.0615,optionRight,30,14380,6,42,0,42,0,1,,,,,,,,,,,,,,,,,,,,,,,,,,,,,,,,,,,,,,,
,,,,,,,,2023-08-16_08h48.09.342,HF_wild_card,2022.2.4,Win32,59.94125757,63d13f8a6bae53e55ef876c2,64d2fd46c836a06233681665,64dc7f2b02f60401466f0a82,,,,,,,ctch,resources/DG.BMP,resources/DBN.BMP,Door3,0.275,0.005555556,1,0,0,2.8119,optionRight,70,14450,6,43,0,43,0,1,,,,,,,,,,,,,,,,,,,,,,,,,,,,,,,,,,,,,,,
,,,,,,,,2023-08-16_08h48.09.342,HF_wild_card,2022.2.4,Win32,59.94125757,63d13f8a6bae53e55ef876c2,64d2fd46c836a06233681665,64dc7f2b02f60401466f0a82,,,,,,,,,,,,,,,,,,,,,,,,,,5,0,5,0,1,,,,,,,,,,,,,,,,,,,,,,,,,,,,,,,,,,
,,,,,,,,2023-08-16_08h48.09.342,HF_wild_card,2022.2.4,Win32,59.94125757,63d13f8a6bae53e55ef876c2,64d2fd46c836a06233681665,64dc7f2b02f60401466f0a82,,,,,,,ctch,resources/DR.BMP,resources/DP.BMP,Door4,-0.315740741,-0.041666667,1,0,0,0.7574,optionLeft,80,14530,7,0,0,0,0,1,,,,,,,,,,,,,,,,,,,,,,,,,,,,,,,,,,,,,,,
,,,,,,,,2023-08-16_08h48.09.342,HF_wild_card,2022.2.4,Win32,59.94125757,63d13f8a6bae53e55ef876c2,64d2fd46c836a06233681665,64dc7f2b02f60401466f0a82,,,,,,,ctch,resources/DG.BMP,resources/DBN.BMP,Door3,0.207407407,0.002777778,1,0,0,0.7142,optionRight,70,14600,7,1,0,1,0,1,,,,,,,,,,,,,,,,,,,,,,,,,,,,,,,,,,,,,,,
,,,,,,,,2023-08-16_08h48.09.342,HF_wild_card,2022.2.4,Win32,59.94125757,63d13f8a6bae53e55ef876c2,64d2fd46c836a06233681665,64dc7f2b02f60401466f0a82,,,,,,,decisionTrl,resources/DBN.BMP,resources/DR.BMP,Door4,0.343518519,-0.011111111,1,0,0,1.383,optionRight,80,14680,7,2,0,2,0,1,,,,,,,,,,,,,,,,,,,,,,,,,,,,,,,,,,,,,,,
,,,,,,,,2023-08-16_08h48.09.342,HF_wild_card,2022.2.4,Win32,59.94125757,63d13f8a6bae53e55ef876c2,64d2fd46c836a06233681665,64dc7f2b02f60401466f0a82,,,,,,,decisionTrl,resources/DG.BMP,resources/DP.BMP,Door1,0.259259259,0.001851852,1,0,0,0.849,optionRight,30,14710,7,3,0,3,0,1,,,,,,,,,,,,,,,,,,,,,,,,,,,,,,,,,,,,,,,
,,,,,,,,2023-08-16_08h48.09.342,HF_wild_card,2022.2.4,Win32,59.94125757,63d13f8a6bae53e55ef876c2,64d2fd46c836a06233681665,64dc7f2b02f60401466f0a82,,,,,,,decisionTrl,resources/DBN.BMP,resources/DR.BMP,Door4,0.259259259,0.00462963,1,0,0,0.7968,optionRight,60,14770,7,4,0,4,0,1,,,,,,,,,,,,,,,,,,,,,,,,,,,,,,,,,,,,,,,
,,,,,,,,2023-08-16_08h48.09.342,HF_wild_card,2022.2.4,Win32,59.94125757,63d13f8a6bae53e55ef876c2,64d2fd46c836a06233681665,64dc7f2b02f60401466f0a82,,,,,,,ctch,resources/DP.BMP,resources/DR.BMP,Door4,0.332407407,-0.00462963,1,0,0,0.6796,optionRight,60,14830,7,5,0,5,0,1,,,,,,,,,,,,,,,,,,,,,,,,,,,,,,,,,,,,,,,
,,,,,,,,2023-08-16_08h48.09.342,HF_wild_card,2022.2.4,Win32,59.94125757,63d13f8a6bae53e55ef876c2,64d2fd46c836a06233681665,64dc7f2b02f60401466f0a82,,,,,,,decisionTrl,resources/DG.BMP,resources/DP.BMP,Door1,0.264814815,-0.001851852,1,0,0,0.8623,optionRight,30,14860,7,6,0,6,0,1,,,,,,,,,,,,,,,,,,,,,,,,,,,,,,,,,,,,,,,
,,,,,,,,2023-08-16_08h48.09.342,HF_wild_card,2022.2.4,Win32,59.94125757,63d13f8a6bae53e55ef876c2,64d2fd46c836a06233681665,64dc7f2b02f60401466f0a82,,,,,,,decisionTrl,resources/DP.BMP,resources/DG.BMP,Door1,-0.293518519,-0.006481481,1,0,0,0.733,optionLeft,30,14890,7,7,0,7,0,1,,,,,,,,,,,,,,,,,,,,,,,,,,,,,,,,,,,,,,,
,,,,,,,,2023-08-16_08h48.09.342,HF_wild_card,2022.2.4,Win32,59.94125757,63d13f8a6bae53e55ef876c2,64d2fd46c836a06233681665,64dc7f2b02f60401466f0a82,,,,,,,decisionTrl,resources/DR.BMP,resources/DBN.BMP,Door4,-0.275925926,-0.015740741,1,0,0,0.7629,optionLeft,60,14950,7,8,0,8,0,1,,,,,,,,,,,,,,,,,,,,,,,,,,,,,,,,,,,,,,,
,,,,,,,,2023-08-16_08h48.09.342,HF_wild_card,2022.2.4,Win32,59.94125757,63d13f8a6bae53e55ef876c2,64d2fd46c836a06233681665,64dc7f2b02f60401466f0a82,,,,,,,decisionTrl,resources/DR.BMP,resources/DBN.BMP,Door4,-0.353703704,-0.035185185,1,0,0,0.6312,optionLeft,60,15010,7,9,0,9,0,1,,,,,,,,,,,,,,,,,,,,,,,,,,,,,,,,,,,,,,,
,,,,,,,,2023-08-16_08h48.09.342,HF_wild_card,2022.2.4,Win32,59.94125757,63d13f8a6bae53e55ef876c2,64d2fd46c836a06233681665,64dc7f2b02f60401466f0a82,,,,,,,decisionTrl,resources/DBN.BMP,resources/DR.BMP,Door4,0.264814815,0.001851852,1,0,0,0.5982,optionRight,60,15070,7,10,0,10,0,1,,,,,,,,,,,,,,,,,,,,,,,,,,,,,,,,,,,,,,,
,,,,,,,,2023-08-16_08h48.09.342,HF_wild_card,2022.2.4,Win32,59.94125757,63d13f8a6bae53e55ef876c2,64d2fd46c836a06233681665,64dc7f2b02f60401466f0a82,,,,,,,decisionTrl,resources/DBN.BMP,resources/DR.BMP,Door4,0.35,0.005555556,1,0,0,0.6474,optionRight,80,15150,7,11,0,11,0,1,,,,,,,,,,,,,,,,,,,,,,,,,,,,,,,,,,,,,,,
,,,,,,,,2023-08-16_08h48.09.342,HF_wild_card,2022.2.4,Win32,59.94125757,63d13f8a6bae53e55ef876c2,64d2fd46c836a06233681665,64dc7f2b02f60401466f0a82,,,,,,,decisionTrl,resources/DP.BMP,resources/DG.BMP,Door2,0.272222222,0.003703704,1,0,0,1.0158,optionRight,20,15170,7,12,0,12,0,1,,,,,,,,,,,,,,,,,,,,,,,,,,,,,,,,,,,,,,,
,,,,,,,,2023-08-16_08h48.09.342,HF_wild_card,2022.2.4,Win32,59.94125757,63d13f8a6bae53e55ef876c2,64d2fd46c836a06233681665,64dc7f2b02f60401466f0a82,,,,,,,decisionTrl,resources/DP.BMP,resources/DG.BMP,Door1,-0.224074074,-0.000925926,1,0,0,0.5972,optionLeft,30,15200,7,13,0,13,0,1,,,,,,,,,,,,,,,,,,,,,,,,,,,,,,,,,,,,,,,
,,,,,,,,2023-08-16_08h48.09.342,HF_wild_card,2022.2.4,Win32,59.94125757,63d13f8a6bae53e55ef876c2,64d2fd46c836a06233681665,64dc7f2b02f60401466f0a82,,,,,,,ctch,resources/DG.BMP,resources/DBN.BMP,Door3,0.359259259,-0.001851852,1,0,0,0.6466,optionRight,70,15270,7,14,0,14,0,1,,,,,,,,,,,,,,,,,,,,,,,,,,,,,,,,,,,,,,,
,,,,,,,,2023-08-16_08h48.09.342,HF_wild_card,2022.2.4,Win32,59.94125757,63d13f8a6bae53e55ef876c2,64d2fd46c836a06233681665,64dc7f2b02f60401466f0a82,,,,,,,decisionTrl,resources/DR.BMP,resources/DBN.BMP,Door3,0.319444444,0.000925926,1,0,0,1.431,optionRight,70,15340,7,15,0,15,0,1,,,,,,,,,,,,,,,,,,,,,,,,,,,,,,,,,,,,,,,
,,,,,,,,2023-08-16_08h48.09.342,HF_wild_card,2022.2.4,Win32,59.94125757,63d13f8a6bae53e55ef876c2,64d2fd46c836a06233681665,64dc7f2b02f60401466f0a82,,,,,,,decisionTrl,resources/DP.BMP,resources/DG.BMP,Door1,-0.327777778,-0.005555556,1,0,0,0.7282,optionLeft,30,15370,7,16,0,16,0,1,,,,,,,,,,,,,,,,,,,,,,,,,,,,,,,,,,,,,,,
,,,,,,,,2023-08-16_08h48.09.342,HF_wild_card,2022.2.4,Win32,59.94125757,63d13f8a6bae53e55ef876c2,64d2fd46c836a06233681665,64dc7f2b02f60401466f0a82,,,,,,,decisionTrl,resources/DG.BMP,resources/DP.BMP,Door1,0.361111111,0.011111111,1,0,0,0.6136,optionRight,30,15400,7,17,0,17,0,1,,,,,,,,,,,,,,,,,,,,,,,,,,,,,,,,,,,,,,,
,,,,,,,,2023-08-16_08h48.09.342,HF_wild_card,2022.2.4,Win32,59.94125757,63d13f8a6bae53e55ef876c2,64d2fd46c836a06233681665,64dc7f2b02f60401466f0a82,,,,,,,ctch,resources/DP.BMP,resources/DR.BMP,Door4,0.419444444,0.012962963,1,0,0,0.6464,optionRight,60,15460,7,18,0,18,0,1,,,,,,,,,,,,,,,,,,,,,,,,,,,,,,,,,,,,,,,
,,,,,,,,2023-08-16_08h48.09.342,HF_wild_card,2022.2.4,Win32,59.94125757,63d13f8a6bae53e55ef876c2,64d2fd46c836a06233681665,64dc7f2b02f60401466f0a82,,,,,,,decisionTrl,resources/DG.BMP,resources/DP.BMP,Door1,0.413888889,0.019444444,1,0,0,0.6627,optionRight,30,15490,7,19,0,19,0,1,,,,,,,,,,,,,,,,,,,,,,,,,,,,,,,,,,,,,,,
,,,,,,,,2023-08-16_08h48.09.342,HF_wild_card,2022.2.4,Win32,59.94125757,63d13f8a6bae53e55ef876c2,64d2fd46c836a06233681665,64dc7f2b02f60401466f0a82,,,,,,,decisionTrl,resources/DP.BMP,resources/DG.BMP,Door2,0.281481481,0.030555556,1,0,0,0.9133,optionRight,40,15530,7,20,0,20,0,1,,,,,,,,,,,,,,,,,,,,,,,,,,,,,,,,,,,,,,,
,,,,,,,,2023-08-16_08h48.09.342,HF_wild_card,2022.2.4,Win32,59.94125757,63d13f8a6bae53e55ef876c2,64d2fd46c836a06233681665,64dc7f2b02f60401466f0a82,,,,,,,decisionTrl,resources/DG.BMP,resources/DP.BMP,Door1,0.278703704,-0.006481481,1,0,0,0.5958,optionRight,30,15560,7,21,0,21,0,1,,,,,,,,,,,,,,,,,,,,,,,,,,,,,,,,,,,,,,,
,,,,,,,,2023-08-16_08h48.09.342,HF_wild_card,2022.2.4,Win32,59.94125757,63d13f8a6bae53e55ef876c2,64d2fd46c836a06233681665,64dc7f2b02f60401466f0a82,,,,,,,ctch,resources/DP.BMP,resources/DR.BMP,Door4,0.37962963,-0.007407407,1,0,0,0.6135,optionRight,80,15640,7,22,0,22,0,1,,,,,,,,,,,,,,,,,,,,,,,,,,,,,,,,,,,,,,,
,,,,,,,,2023-08-16_08h48.09.342,HF_wild_card,2022.2.4,Win32,59.94125757,63d13f8a6bae53e55ef876c2,64d2fd46c836a06233681665,64dc7f2b02f60401466f0a82,,,,,,,decisionTrl,resources/DR.BMP,resources/DBN.BMP,Door4,-0.411111111,-0.009259259,1,0,0,0.8494,optionLeft,80,15720,7,23,0,23,0,1,,,,,,,,,,,,,,,,,,,,,,,,,,,,,,,,,,,,,,,
,,,,,,,,2023-08-16_08h48.09.342,HF_wild_card,2022.2.4,Win32,59.94125757,63d13f8a6bae53e55ef876c2,64d2fd46c836a06233681665,64dc7f2b02f60401466f0a82,,,,,,,ctch,resources/DBN.BMP,resources/DG.BMP,Door3,-0.328703704,-0.009259259,1,0,0,0.6466,optionLeft,70,15790,7,24,0,24,0,1,,,,,,,,,,,,,,,,,,,,,,,,,,,,,,,,,,,,,,,
,,,,,,,,2023-08-16_08h48.09.342,HF_wild_card,2022.2.4,Win32,59.94125757,63d13f8a6bae53e55ef876c2,64d2fd46c836a06233681665,64dc7f2b02f60401466f0a82,,,,,,,decisionTrl,resources/DBN.BMP,resources/DR.BMP,Door3,-0.335185185,0.015740741,1,0,0,1.1663,optionLeft,70,15860,7,25,0,25,0,1,,,,,,,,,,,,,,,,,,,,,,,,,,,,,,,,,,,,,,,
,,,,,,,,2023-08-16_08h48.09.342,HF_wild_card,2022.2.4,Win32,59.94125757,63d13f8a6bae53e55ef876c2,64d2fd46c836a06233681665,64dc7f2b02f60401466f0a82,,,,,,,ctch,resources/DR.BMP,resources/DP.BMP,Door4,-0.315740741,0.010185185,1,0,0,0.581,optionLeft,60,15920,7,26,0,26,0,1,,,,,,,,,,,,,,,,,,,,,,,,,,,,,,,,,,,,,,,
,,,,,,,,2023-08-16_08h48.09.342,HF_wild_card,2022.2.4,Win32,59.94125757,63d13f8a6bae53e55ef876c2,64d2fd46c836a06233681665,64dc7f2b02f60401466f0a82,,,,,,,ctch,resources/DBN.BMP,resources/DG.BMP,Door3,-0.45462963,0.007407407,1,0,0,0.5325,optionLeft,70,15990,7,27,0,27,0,1,,,,,,,,,,,,,,,,,,,,,,,,,,,,,,,,,,,,,,,
,,,,,,,,2023-08-16_08h48.09.342,HF_wild_card,2022.2.4,Win32,59.94125757,63d13f8a6bae53e55ef876c2,64d2fd46c836a06233681665,64dc7f2b02f60401466f0a82,,,,,,,decisionTrl,resources/DBN.BMP,resources/DR.BMP,Door3,-0.25,0.001851852,1,0,0,0.5621,optionLeft,70,16060,7,28,0,28,0,1,,,,,,,,,,,,,,,,,,,,,,,,,,,,,,,,,,,,,,,
,,,,,,,,2023-08-16_08h48.09.342,HF_wild_card,2022.2.4,Win32,59.94125757,63d13f8a6bae53e55ef876c2,64d2fd46c836a06233681665,64dc7f2b02f60401466f0a82,,,,,,,ctch,resources/DG.BMP,resources/DBN.BMP,Door3,0.3,-0.007407407,1,0,0,0.5326,optionRight,70,16130,7,29,0,29,0,1,,,,,,,,,,,,,,,,,,,,,,,,,,,,,,,,,,,,,,,
,,,,,,,,2023-08-16_08h48.09.342,HF_wild_card,2022.2.4,Win32,59.94125757,63d13f8a6bae53e55ef876c2,64d2fd46c836a06233681665,64dc7f2b02f60401466f0a82,,,,,,,ctch,resources/DBN.BMP,resources/DG.BMP,Door3,-0.232407407,0.014814815,1,0,0,0.5299,optionLeft,70,16200,7,30,0,30,0,1,,,,,,,,,,,,,,,,,,,,,,,,,,,,,,,,,,,,,,,
,,,,,,,,2023-08-16_08h48.09.342,HF_wild_card,2022.2.4,Win32,59.94125757,63d13f8a6bae53e55ef876c2,64d2fd46c836a06233681665,64dc7f2b02f60401466f0a82,,,,,,,decisionTrl,resources/DG.BMP,resources/DP.BMP,Door1,0.301851852,0.007407407,1,0,0,1.2969,optionRight,30,16230,7,31,0,31,0,1,,,,,,,,,,,,,,,,,,,,,,,,,,,,,,,,,,,,,,,
,,,,,,,,2023-08-16_08h48.09.342,HF_wild_card,2022.2.4,Win32,59.94125757,63d13f8a6bae53e55ef876c2,64d2fd46c836a06233681665,64dc7f2b02f60401466f0a82,,,,,,,decisionTrl,resources/DR.BMP,resources/DBN.BMP,Door4,-0.334259259,0.011111111,1,0,0,0.5968,optionLeft,80,16310,7,32,0,32,0,1,,,,,,,,,,,,,,,,,,,,,,,,,,,,,,,,,,,,,,,
,,,,,,,,2023-08-16_08h48.09.342,HF_wild_card,2022.2.4,Win32,59.94125757,63d13f8a6bae53e55ef876c2,64d2fd46c836a06233681665,64dc7f2b02f60401466f0a82,,,,,,,decisionTrl,resources/DR.BMP,resources/DBN.BMP,Door4,-0.297222222,0.007407407,1,0,0,0.4975,optionLeft,60,16370,7,33,0,33,0,1,,,,,,,,,,,,,,,,,,,,,,,,,,,,,,,,,,,,,,,
,,,,,,,,2023-08-16_08h48.09.342,HF_wild_card,2022.2.4,Win32,59.94125757,63d13f8a6bae53e55ef876c2,64d2fd46c836a06233681665,64dc7f2b02f60401466f0a82,,,,,,,decisionTrl,resources/DP.BMP,resources/DG.BMP,Door1,-0.374074074,0.031481481,1,0,0,1.5323,optionLeft,30,16400,7,34,0,34,0,1,,,,,,,,,,,,,,,,,,,,,,,,,,,,,,,,,,,,,,,
,,,,,,,,2023-08-16_08h48.09.342,HF_wild_card,2022.2.4,Win32,59.94125757,63d13f8a6bae53e55ef876c2,64d2fd46c836a06233681665,64dc7f2b02f60401466f0a82,,,,,,,ctch,resources/DR.BMP,resources/DP.BMP,Door4,-0.318518519,-0.012037037,1,0,0,0.6338,optionLeft,60,16460,7,35,0,35,0,1,,,,,,,,,,,,,,,,,,,,,,,,,,,,,,,,,,,,,,,
,,,,,,,,2023-08-16_08h48.09.342,HF_wild_card,2022.2.4,Win32,59.94125757,63d13f8a6bae53e55ef876c2,64d2fd46c836a06233681665,64dc7f2b02f60401466f0a82,,,,,,,,,,,,,,,,,,,,,,,,,,6,0,6,0,1,,,,,,,,,,,,,,,,,,,,,,,,,,,,,,,,,,
,,,,,,,,2023-08-16_08h48.09.342,HF_wild_card,2022.2.4,Win32,59.94125757,63d13f8a6bae53e55ef876c2,64d2fd46c836a06233681665,64dc7f2b02f60401466f0a82,,,,,,,,,,,,,,,,,,,,,,,,,,,,,,,4,,,,,,,,,,,,,,,,,,,,,,,,,,,,,,,,,
,,,,,,,,2023-08-16_08h48.09.342,HF_wild_card,2022.2.4,Win32,59.94125757,63d13f8a6bae53e55ef876c2,64d2fd46c836a06233681665,64dc7f2b02f60401466f0a82,,,,,,,,,,,,,,,,,,,,,,,,,,,,,,,,,,,,,,,,,,,,,,,,,,,,,,,,,,,,,,,,
,,,,,,,,2023-08-16_08h48.09.342,HF_wild_card,2022.2.4,Win32,59.94125757,63d13f8a6bae53e55ef876c2,64d2fd46c836a06233681665,64dc7f2b02f60401466f0a82,,,,,,,,,,,,,,,,,,,,,,,,,,,,,,,,80,Door4,resources/DR.BMP,0,0,0,0,1,,,,,,,,,,,,,,,,,,,,,,,,,
,,,,,,,,2023-08-16_08h48.09.342,HF_wild_card,2022.2.4,Win32,59.94125757,63d13f8a6bae53e55ef876c2,64d2fd46c836a06233681665,64dc7f2b02f60401466f0a82,,,,,,,,,,,,,,,,,,,,,,,,,,,,,,,,30,Door2,resources/DG.BMP,1,0,1,0,1,,,,,,,,,,,,,,,,,,,,,,,,,
,,,,,,,,2023-08-16_08h48.09.342,HF_wild_card,2022.2.4,Win32,59.94125757,63d13f8a6bae53e55ef876c2,64d2fd46c836a06233681665,64dc7f2b02f60401466f0a82,,,,,,,,,,,,,,,,,,,,,,,,,,,,,,,,70,Door3,resources/DBN.BMP,2,0,2,0,1,,,,,,,,,,,,,,,,,,,,,,,,,
,,,,,,,,2023-08-16_08h48.09.342,HF_wild_card,2022.2.4,Win32,59.94125757,63d13f8a6bae53e55ef876c2,64d2fd46c836a06233681665,64dc7f2b02f60401466f0a82,,,,,,,,,,,,,,,,,,,,,,,,,,,,,,,,55,WC_nonExtreme,resources/DB.BMP,3,0,3,0,1,,,,,,,,,,,,,,,,,,,,,,,,,
,,,,,,,,2023-08-16_08h48.09.342,HF_wild_card,2022.2.4,Win32,59.94125757,63d13f8a6bae53e55ef876c2,64d2fd46c836a06233681665,64dc7f2b02f60401466f0a82,,,,,,,,,,,,,,,,,,,,,,,,,,,,,,,,95,WC_extreme,resources/DY.BMP,4,0,4,0,1,,,,,,,,,,,,,,,,,,,,,,,,,
,,,,,,,,2023-08-16_08h48.09.342,HF_wild_card,2022.2.4,Win32,59.94125757,63d13f8a6bae53e55ef876c2,64d2fd46c836a06233681665,64dc7f2b02f60401466f0a82,,,,,,,,,,,,,,,,,,,,,,,,,,,,,,,,40,Door1,resources/DP.BMP,5,0,5,0,1,,,,,,,,,,,,,,,,,,,,,,,,,
,,,,,,,,2023-08-16_08h48.09.342,HF_wild_card,2022.2.4,Win32,59.94125757,63d13f8a6bae53e55ef876c2,64d2fd46c836a06233681665,64dc7f2b02f60401466f0a82,,,,,,,,,,,,,,,,,,,,,,,,,,,,,,,,,,,,,,,,,,,,,,,,,,,,,,,,,,,,,,,,
