Condition,Low fixed image (Door1),Low risky image (Door2),High fixed image (Door3),High risky image (Door4),Extreme Wild Card,NonExtreme Wild Card,,date,expName,psychopyVersion,OS,frameRate,PROLIFIC_PID,STUDY_ID,SESSION_ID,mouse_2.x,mouse_2.y,mouse_2.leftButton,mouse_2.midButton,mouse_2.rightButton,mouse_2.clicked_name,Trial Type,Left Option Image,Right Option Image,Chosen Door,mouse.x,mouse.y,mouse.leftButton,mouse.midButton,mouse.rightButton,mouse.time,mouse.clicked_name,Feedback,Cumulative Reward,Block,trial.thisRepN,trial.thisTrialN,trial.thisN,trial.thisIndex,trial.ran,blocks.thisRepN,blocks.thisTrialN,blocks.thisN,blocks.thisIndex,blocks.ran,Money conversion,First Outcome Reported,Shown Door (First Outcome),Displayed Image (First Outcome),outcomes.thisRepN,outcomes.thisTrialN,outcomes.thisN,outcomes.thisIndex,outcomes.ran,judgments.thisRepN,judgments.thisTrialN,judgments.thisN,judgments.thisIndex,judgments.ran,freqMouse.x,freqMouse.y,freqMouse.leftButton,freqMouse.midButton,freqMouse.rightButton,freqMouse.clicked_name,FQJ for first outcome,FQJ for second outcome,Shown Door,Displayed Image,trials.thisRepN,trials.thisTrialN,trials.thisN,trials.thisIndex,trials.ran,judgBlock.thisRepN,judgBlock.thisTrialN,judgBlock.thisN,judgBlock.thisIndex,judgBlock.ran
0,resources/DY.BMP,resources/DB.BMP,resources/DP.BMP,resources/DBN.BMP,resources/DR.BMP,resources/DG.BMP,,2023-08-03_06h45.36.521,HF_wild_card,2022.2.4,Linux x86_64,61.42506143,605e9cc770aa6d1947d02bfa,64b543b0a84ad6ab4a25b86a,64cb357fbbe96171de70dd4d,,,,,,,,,,,,,,,,,,,,,,,,,,,,,,,,,,,,,,,,,,,,,,,,,,,,,,,,,,,,,,,,
,,,,,,,,2023-08-03_06h45.36.521,HF_wild_card,2022.2.4,Linux x86_64,61.42506143,605e9cc770aa6d1947d02bfa,64b543b0a84ad6ab4a25b86a,64cb357fbbe96171de70dd4d,0.002777778,-0.430555556,1,0,0,agree,,,,,,,,,,,,,,,,,,,,,,,,,,,,,,,,,,,,,,,,,,,,,,,,,,,,,,,,,,
,,,,,,,,2023-08-03_06h45.36.521,HF_wild_card,2022.2.4,Linux x86_64,61.42506143,605e9cc770aa6d1947d02bfa,64b543b0a84ad6ab4a25b86a,64cb357fbbe96171de70dd4d,,,,,,,,,,,,,,,,,,,,,,,,,,,,,,,,,,,,,,,,,,,,,,,,,,,,,,,,,,,,,,,,
,,,,,,,,2023-08-03_06h45.36.521,HF_wild_card,2022.2.4,Linux x86_64,61.42506143,605e9cc770aa6d1947d02bfa,64b543b0a84ad6ab4a25b86a,64cb357fbbe96171de70dd4d,,,,,,,ctch,resources/DY.BMP,resources/DBN.BMP,Door1,-0.327777778,-0.037037037,1,0,0,4.524,optionLeft,30,30,1,0,0,0,0,1,,,,,,,,,,,,,,,,,,,,,,,,,,,,,,,,,,,,,,,
,,,,,,,,2023-08-03_06h45.36.521,HF_wild_card,2022.2.4,Linux x86_64,61.42506143,605e9cc770aa6d1947d02bfa,64b543b0a84ad6ab4a25b86a,64cb357fbbe96171de70dd4d,,,,,,,decisionTrl,resources/DY.BMP,resources/DB.BMP,Door1,-0.359259259,0.010185185,1,0,0,1.711,optionLeft,30,60,1,1,0,1,0,1,,,,,,,,,,,,,,,,,,,,,,,,,,,,,,,,,,,,,,,
,,,,,,,,2023-08-03_06h45.36.521,HF_wild_card,2022.2.4,Linux x86_64,61.42506143,605e9cc770aa6d1947d02bfa,64b543b0a84ad6ab4a25b86a,64cb357fbbe96171de70dd4d,,,,,,,decisionTrl,resources/DY.BMP,resources/DB.BMP,Door2,0.346296296,0.031481481,1,0,0,0.785,optionRight,20,80,1,2,0,2,0,1,,,,,,,,,,,,,,,,,,,,,,,,,,,,,,,,,,,,,,,
,,,,,,,,2023-08-03_06h45.36.521,HF_wild_card,2022.2.4,Linux x86_64,61.42506143,605e9cc770aa6d1947d02bfa,64b543b0a84ad6ab4a25b86a,64cb357fbbe96171de70dd4d,,,,,,,decisionTrl,resources/DB.BMP,resources/DY.BMP,Door1,0.259259259,0.003703704,1,0,0,0.902,optionRight,30,110,1,3,0,3,0,1,,,,,,,,,,,,,,,,,,,,,,,,,,,,,,,,,,,,,,,
,,,,,,,,2023-08-03_06h45.36.521,HF_wild_card,2022.2.4,Linux x86_64,61.42506143,605e9cc770aa6d1947d02bfa,64b543b0a84ad6ab4a25b86a,64cb357fbbe96171de70dd4d,,,,,,,decisionTrl,resources/DB.BMP,resources/DY.BMP,Door1,0.416666667,0.015740741,1,0,0,0.769,optionRight,30,140,1,4,0,4,0,1,,,,,,,,,,,,,,,,,,,,,,,,,,,,,,,,,,,,,,,
,,,,,,,,2023-08-03_06h45.36.521,HF_wild_card,2022.2.4,Linux x86_64,61.42506143,605e9cc770aa6d1947d02bfa,64b543b0a84ad6ab4a25b86a,64cb357fbbe96171de70dd4d,,,,,,,sngl,resources/DBN.BMP,resources/Empty.png,Door4,0.446296296,0.003703704,1,0,0,2.356,optionLeft,80,220,1,5,0,5,0,1,,,,,,,,,,,,,,,,,,,,,,,,,,,,,,,,,,,,,,,
,,,,,,,,2023-08-03_06h45.36.521,HF_wild_card,2022.2.4,Linux x86_64,61.42506143,605e9cc770aa6d1947d02bfa,64b543b0a84ad6ab4a25b86a,64cb357fbbe96171de70dd4d,,,,,,,decisionTrl,resources/DBN.BMP,resources/DR.BMP,WildCard_Ex,0.399074074,-0.010185185,1,0,0,1.206,optionRight,95,315,1,6,0,6,0,1,,,,,,,,,,,,,,,,,,,,,,,,,,,,,,,,,,,,,,,
,,,,,,,,2023-08-03_06h45.36.521,HF_wild_card,2022.2.4,Linux x86_64,61.42506143,605e9cc770aa6d1947d02bfa,64b543b0a84ad6ab4a25b86a,64cb357fbbe96171de70dd4d,,,,,,,decisionTrl,resources/DP.BMP,resources/DBN.BMP,Door3,-0.378703704,-0.009259259,1,0,0,1.168,optionLeft,70,385,1,7,0,7,0,1,,,,,,,,,,,,,,,,,,,,,,,,,,,,,,,,,,,,,,,
,,,,,,,,2023-08-03_06h45.36.521,HF_wild_card,2022.2.4,Linux x86_64,61.42506143,605e9cc770aa6d1947d02bfa,64b543b0a84ad6ab4a25b86a,64cb357fbbe96171de70dd4d,,,,,,,sngl,resources/Empty.png,resources/DBN.BMP,Door4,0.410185185,-0.002777778,1,0,0,0.872,optionRight,60,445,1,8,0,8,0,1,,,,,,,,,,,,,,,,,,,,,,,,,,,,,,,,,,,,,,,
,,,,,,,,2023-08-03_06h45.36.521,HF_wild_card,2022.2.4,Linux x86_64,61.42506143,605e9cc770aa6d1947d02bfa,64b543b0a84ad6ab4a25b86a,64cb357fbbe96171de70dd4d,,,,,,,sngl,resources/DB.BMP,resources/Empty.png,Door2,-0.346296296,-0.028703704,1,0,0,1.165,optionLeft,40,485,1,9,0,9,0,1,,,,,,,,,,,,,,,,,,,,,,,,,,,,,,,,,,,,,,,
,,,,,,,,2023-08-03_06h45.36.521,HF_wild_card,2022.2.4,Linux x86_64,61.42506143,605e9cc770aa6d1947d02bfa,64b543b0a84ad6ab4a25b86a,64cb357fbbe96171de70dd4d,,,,,,,decisionTrl,resources/DY.BMP,resources/DR.BMP,WildCard_Ex,0.423148148,-0.04537037,1,0,0,3.298,optionRight,5,490,1,10,0,10,0,1,,,,,,,,,,,,,,,,,,,,,,,,,,,,,,,,,,,,,,,
,,,,,,,,2023-08-03_06h45.36.521,HF_wild_card,2022.2.4,Linux x86_64,61.42506143,605e9cc770aa6d1947d02bfa,64b543b0a84ad6ab4a25b86a,64cb357fbbe96171de70dd4d,,,,,,,decisionTrl,resources/DBN.BMP,resources/DP.BMP,Door4,-0.367592593,0.012962963,1,0,0,1.647,optionLeft,80,570,1,11,0,11,0,1,,,,,,,,,,,,,,,,,,,,,,,,,,,,,,,,,,,,,,,
,,,,,,,,2023-08-03_06h45.36.521,HF_wild_card,2022.2.4,Linux x86_64,61.42506143,605e9cc770aa6d1947d02bfa,64b543b0a84ad6ab4a25b86a,64cb357fbbe96171de70dd4d,,,,,,,sngl,resources/DP.BMP,resources/Empty.png,Door3,-0.316666667,-0.030555556,1,0,0,0.806,optionLeft,70,640,1,12,0,12,0,1,,,,,,,,,,,,,,,,,,,,,,,,,,,,,,,,,,,,,,,
,,,,,,,,2023-08-03_06h45.36.521,HF_wild_card,2022.2.4,Linux x86_64,61.42506143,605e9cc770aa6d1947d02bfa,64b543b0a84ad6ab4a25b86a,64cb357fbbe96171de70dd4d,,,,,,,ctch,resources/DP.BMP,resources/DB.BMP,Door3,-0.407407407,-0.049074074,1,0,0,1.283,optionLeft,70,710,1,13,0,13,0,1,,,,,,,,,,,,,,,,,,,,,,,,,,,,,,,,,,,,,,,
,,,,,,,,2023-08-03_06h45.36.521,HF_wild_card,2022.2.4,Linux x86_64,61.42506143,605e9cc770aa6d1947d02bfa,64b543b0a84ad6ab4a25b86a,64cb357fbbe96171de70dd4d,,,,,,,decisionTrl,resources/DY.BMP,resources/DB.BMP,Door2,0.315740741,-0.012037037,1,0,0,1.717,optionRight,40,750,1,14,0,14,0,1,,,,,,,,,,,,,,,,,,,,,,,,,,,,,,,,,,,,,,,
,,,,,,,,2023-08-03_06h45.36.521,HF_wild_card,2022.2.4,Linux x86_64,61.42506143,605e9cc770aa6d1947d02bfa,64b543b0a84ad6ab4a25b86a,64cb357fbbe96171de70dd4d,,,,,,,decisionTrl,resources/DR.BMP,resources/DBN.BMP,Door4,0.346296296,-0.044444444,1,0,0,1.667,optionRight,60,810,1,15,0,15,0,1,,,,,,,,,,,,,,,,,,,,,,,,,,,,,,,,,,,,,,,
,,,,,,,,2023-08-03_06h45.36.521,HF_wild_card,2022.2.4,Linux x86_64,61.42506143,605e9cc770aa6d1947d02bfa,64b543b0a84ad6ab4a25b86a,64cb357fbbe96171de70dd4d,,,,,,,decisionTrl,resources/DB.BMP,resources/DR.BMP,WildCard_Ex,0.311111111,-0.009259259,1,0,0,0.994,optionRight,95,905,1,16,0,16,0,1,,,,,,,,,,,,,,,,,,,,,,,,,,,,,,,,,,,,,,,
,,,,,,,,2023-08-03_06h45.36.521,HF_wild_card,2022.2.4,Linux x86_64,61.42506143,605e9cc770aa6d1947d02bfa,64b543b0a84ad6ab4a25b86a,64cb357fbbe96171de70dd4d,,,,,,,decisionTrl,resources/DR.BMP,resources/DP.BMP,WildCard_Ex,-0.323148148,-0.009259259,1,0,0,0.808,optionLeft,5,910,1,17,0,17,0,1,,,,,,,,,,,,,,,,,,,,,,,,,,,,,,,,,,,,,,,
,,,,,,,,2023-08-03_06h45.36.521,HF_wild_card,2022.2.4,Linux x86_64,61.42506143,605e9cc770aa6d1947d02bfa,64b543b0a84ad6ab4a25b86a,64cb357fbbe96171de70dd4d,,,,,,,ctch,resources/DBN.BMP,resources/DY.BMP,Door4,-0.20462963,-0.040740741,1,0,0,1.371,optionLeft,80,990,1,18,0,18,0,1,,,,,,,,,,,,,,,,,,,,,,,,,,,,,,,,,,,,,,,
,,,,,,,,2023-08-03_06h45.36.521,HF_wild_card,2022.2.4,Linux x86_64,61.42506143,605e9cc770aa6d1947d02bfa,64b543b0a84ad6ab4a25b86a,64cb357fbbe96171de70dd4d,,,,,,,sngl,resources/DR.BMP,resources/Empty.png,WildCard_Ex,-0.246296296,0.001851852,1,0,0,0.846,optionLeft,95,1085,1,19,0,19,0,1,,,,,,,,,,,,,,,,,,,,,,,,,,,,,,,,,,,,,,,
,,,,,,,,2023-08-03_06h45.36.521,HF_wild_card,2022.2.4,Linux x86_64,61.42506143,605e9cc770aa6d1947d02bfa,64b543b0a84ad6ab4a25b86a,64cb357fbbe96171de70dd4d,,,,,,,decisionTrl,resources/DBN.BMP,resources/DP.BMP,Door3,0.367592593,-0.042592593,1,0,0,1.122,optionRight,70,1155,1,20,0,20,0,1,,,,,,,,,,,,,,,,,,,,,,,,,,,,,,,,,,,,,,,
,,,,,,,,2023-08-03_06h45.36.521,HF_wild_card,2022.2.4,Linux x86_64,61.42506143,605e9cc770aa6d1947d02bfa,64b543b0a84ad6ab4a25b86a,64cb357fbbe96171de70dd4d,,,,,,,decisionTrl,resources/DR.BMP,resources/DB.BMP,WildCard_Ex,-0.338888889,-0.016666667,1,0,0,1.058,optionLeft,95,1250,1,21,0,21,0,1,,,,,,,,,,,,,,,,,,,,,,,,,,,,,,,,,,,,,,,
,,,,,,,,2023-08-03_06h45.36.521,HF_wild_card,2022.2.4,Linux x86_64,61.42506143,605e9cc770aa6d1947d02bfa,64b543b0a84ad6ab4a25b86a,64cb357fbbe96171de70dd4d,,,,,,,ctch,resources/DB.BMP,resources/DP.BMP,Door3,0.358333333,0.02962963,1,0,0,1.37,optionRight,70,1320,1,22,0,22,0,1,,,,,,,,,,,,,,,,,,,,,,,,,,,,,,,,,,,,,,,
,,,,,,,,2023-08-03_06h45.36.521,HF_wild_card,2022.2.4,Linux x86_64,61.42506143,605e9cc770aa6d1947d02bfa,64b543b0a84ad6ab4a25b86a,64cb357fbbe96171de70dd4d,,,,,,,sngl,resources/Empty.png,resources/DR.BMP,WildCard_Ex,0.318518519,-0.031481481,1,0,0,0.706,optionRight,95,1415,1,23,0,23,0,1,,,,,,,,,,,,,,,,,,,,,,,,,,,,,,,,,,,,,,,
,,,,,,,,2023-08-03_06h45.36.521,HF_wild_card,2022.2.4,Linux x86_64,61.42506143,605e9cc770aa6d1947d02bfa,64b543b0a84ad6ab4a25b86a,64cb357fbbe96171de70dd4d,,,,,,,decisionTrl,resources/DB.BMP,resources/DY.BMP,Door1,0.190740741,-0.047222222,1,0,0,1.295,optionRight,30,1445,1,24,0,24,0,1,,,,,,,,,,,,,,,,,,,,,,,,,,,,,,,,,,,,,,,
,,,,,,,,2023-08-03_06h45.36.521,HF_wild_card,2022.2.4,Linux x86_64,61.42506143,605e9cc770aa6d1947d02bfa,64b543b0a84ad6ab4a25b86a,64cb357fbbe96171de70dd4d,,,,,,,ctch,resources/DP.BMP,resources/DB.BMP,Door3,-0.30462963,-0.019444444,1,0,0,0.92,optionLeft,70,1515,1,25,0,25,0,1,,,,,,,,,,,,,,,,,,,,,,,,,,,,,,,,,,,,,,,
,,,,,,,,2023-08-03_06h45.36.521,HF_wild_card,2022.2.4,Linux x86_64,61.42506143,605e9cc770aa6d1947d02bfa,64b543b0a84ad6ab4a25b86a,64cb357fbbe96171de70dd4d,,,,,,,decisionTrl,resources/DBN.BMP,resources/DP.BMP,Door3,0.243518519,-0.037962963,1,0,0,0.682,optionRight,70,1585,1,26,0,26,0,1,,,,,,,,,,,,,,,,,,,,,,,,,,,,,,,,,,,,,,,
,,,,,,,,2023-08-03_06h45.36.521,HF_wild_card,2022.2.4,Linux x86_64,61.42506143,605e9cc770aa6d1947d02bfa,64b543b0a84ad6ab4a25b86a,64cb357fbbe96171de70dd4d,,,,,,,decisionTrl,resources/DR.BMP,resources/DY.BMP,WildCard_Ex,-0.271296296,-0.028703704,1,0,0,1.419,optionLeft,95,1680,1,27,0,27,0,1,,,,,,,,,,,,,,,,,,,,,,,,,,,,,,,,,,,,,,,
,,,,,,,,2023-08-03_06h45.36.521,HF_wild_card,2022.2.4,Linux x86_64,61.42506143,605e9cc770aa6d1947d02bfa,64b543b0a84ad6ab4a25b86a,64cb357fbbe96171de70dd4d,,,,,,,decisionTrl,resources/DP.BMP,resources/DBN.BMP,Door4,0.217592593,-0.018518519,1,0,0,0.774,optionRight,60,1740,1,28,0,28,0,1,,,,,,,,,,,,,,,,,,,,,,,,,,,,,,,,,,,,,,,
,,,,,,,,2023-08-03_06h45.36.521,HF_wild_card,2022.2.4,Linux x86_64,61.42506143,605e9cc770aa6d1947d02bfa,64b543b0a84ad6ab4a25b86a,64cb357fbbe96171de70dd4d,,,,,,,sngl,resources/Empty.png,resources/DP.BMP,Door3,0.355555556,-0.010185185,1,0,0,0.758,optionRight,70,1810,1,29,0,29,0,1,,,,,,,,,,,,,,,,,,,,,,,,,,,,,,,,,,,,,,,
,,,,,,,,2023-08-03_06h45.36.521,HF_wild_card,2022.2.4,Linux x86_64,61.42506143,605e9cc770aa6d1947d02bfa,64b543b0a84ad6ab4a25b86a,64cb357fbbe96171de70dd4d,,,,,,,sngl,resources/DY.BMP,resources/Empty.png,Door1,-0.336111111,-0.025,1,0,0,0.75,optionLeft,30,1840,1,30,0,30,0,1,,,,,,,,,,,,,,,,,,,,,,,,,,,,,,,,,,,,,,,
,,,,,,,,2023-08-03_06h45.36.521,HF_wild_card,2022.2.4,Linux x86_64,61.42506143,605e9cc770aa6d1947d02bfa,64b543b0a84ad6ab4a25b86a,64cb357fbbe96171de70dd4d,,,,,,,decisionTrl,resources/DP.BMP,resources/DBN.BMP,Door4,0.313888889,-0.028703704,1,0,0,1.186,optionRight,60,1900,1,31,0,31,0,1,,,,,,,,,,,,,,,,,,,,,,,,,,,,,,,,,,,,,,,
,,,,,,,,2023-08-03_06h45.36.521,HF_wild_card,2022.2.4,Linux x86_64,61.42506143,605e9cc770aa6d1947d02bfa,64b543b0a84ad6ab4a25b86a,64cb357fbbe96171de70dd4d,,,,,,,ctch,resources/DY.BMP,resources/DBN.BMP,Door4,0.367592593,0.026851852,1,0,0,1.15,optionRight,80,1980,1,32,0,32,0,1,,,,,,,,,,,,,,,,,,,,,,,,,,,,,,,,,,,,,,,
,,,,,,,,2023-08-03_06h45.36.521,HF_wild_card,2022.2.4,Linux x86_64,61.42506143,605e9cc770aa6d1947d02bfa,64b543b0a84ad6ab4a25b86a,64cb357fbbe96171de70dd4d,,,,,,,decisionTrl,resources/DBN.BMP,resources/DP.BMP,Door3,0.322222222,0.011111111,1,0,0,1.566,optionRight,70,2050,1,33,0,33,0,1,,,,,,,,,,,,,,,,,,,,,,,,,,,,,,,,,,,,,,,
,,,,,,,,2023-08-03_06h45.36.521,HF_wild_card,2022.2.4,Linux x86_64,61.42506143,605e9cc770aa6d1947d02bfa,64b543b0a84ad6ab4a25b86a,64cb357fbbe96171de70dd4d,,,,,,,decisionTrl,resources/DY.BMP,resources/DB.BMP,Door2,0.190740741,-0.049074074,1,0,0,1.551,optionRight,40,2090,1,34,0,34,0,1,,,,,,,,,,,,,,,,,,,,,,,,,,,,,,,,,,,,,,,
,,,,,,,,2023-08-03_06h45.36.521,HF_wild_card,2022.2.4,Linux x86_64,61.42506143,605e9cc770aa6d1947d02bfa,64b543b0a84ad6ab4a25b86a,64cb357fbbe96171de70dd4d,,,,,,,sngl,resources/Empty.png,resources/DR.BMP,WildCard_Ex,0.327777778,0.009259259,1,0,0,0.723,optionRight,5,2095,1,35,0,35,0,1,,,,,,,,,,,,,,,,,,,,,,,,,,,,,,,,,,,,,,,
,,,,,,,,2023-08-03_06h45.36.521,HF_wild_card,2022.2.4,Linux x86_64,61.42506143,605e9cc770aa6d1947d02bfa,64b543b0a84ad6ab4a25b86a,64cb357fbbe96171de70dd4d,,,,,,,decisionTrl,resources/DP.BMP,resources/DBN.BMP,Door4,0.333333333,-0.010185185,1,0,0,1.555,optionRight,60,2155,1,36,0,36,0,1,,,,,,,,,,,,,,,,,,,,,,,,,,,,,,,,,,,,,,,
,,,,,,,,2023-08-03_06h45.36.521,HF_wild_card,2022.2.4,Linux x86_64,61.42506143,605e9cc770aa6d1947d02bfa,64b543b0a84ad6ab4a25b86a,64cb357fbbe96171de70dd4d,,,,,,,ctch,resources/DB.BMP,resources/DP.BMP,Door2,-0.288888889,-0.078703704,1,0,0,2.719,optionLeft,40,2195,1,37,0,37,0,1,,,,,,,,,,,,,,,,,,,,,,,,,,,,,,,,,,,,,,,
,,,,,,,,2023-08-03_06h45.36.521,HF_wild_card,2022.2.4,Linux x86_64,61.42506143,605e9cc770aa6d1947d02bfa,64b543b0a84ad6ab4a25b86a,64cb357fbbe96171de70dd4d,,,,,,,sngl,resources/Empty.png,resources/DB.BMP,Door2,0.365740741,0.017592593,1,0,0,0.742,optionRight,20,2215,1,38,0,38,0,1,,,,,,,,,,,,,,,,,,,,,,,,,,,,,,,,,,,,,,,
,,,,,,,,2023-08-03_06h45.36.521,HF_wild_card,2022.2.4,Linux x86_64,61.42506143,605e9cc770aa6d1947d02bfa,64b543b0a84ad6ab4a25b86a,64cb357fbbe96171de70dd4d,,,,,,,decisionTrl,resources/DP.BMP,resources/DR.BMP,WildCard_Ex,0.398148148,-0.023148148,1,0,0,1.008,optionRight,5,2220,1,39,0,39,0,1,,,,,,,,,,,,,,,,,,,,,,,,,,,,,,,,,,,,,,,
,,,,,,,,2023-08-03_06h45.36.521,HF_wild_card,2022.2.4,Linux x86_64,61.42506143,605e9cc770aa6d1947d02bfa,64b543b0a84ad6ab4a25b86a,64cb357fbbe96171de70dd4d,,,,,,,sngl,resources/DR.BMP,resources/Empty.png,WildCard_Ex,-0.346296296,-0.003703704,1,0,0,0.701,optionLeft,5,2225,1,40,0,40,0,1,,,,,,,,,,,,,,,,,,,,,,,,,,,,,,,,,,,,,,,
,,,,,,,,2023-08-03_06h45.36.521,HF_wild_card,2022.2.4,Linux x86_64,61.42506143,605e9cc770aa6d1947d02bfa,64b543b0a84ad6ab4a25b86a,64cb357fbbe96171de70dd4d,,,,,,,decisionTrl,resources/DB.BMP,resources/DY.BMP,Door1,0.264814815,-0.02037037,1,0,0,1.338,optionRight,30,2255,1,41,0,41,0,1,,,,,,,,,,,,,,,,,,,,,,,,,,,,,,,,,,,,,,,
,,,,,,,,2023-08-03_06h45.36.521,HF_wild_card,2022.2.4,Linux x86_64,61.42506143,605e9cc770aa6d1947d02bfa,64b543b0a84ad6ab4a25b86a,64cb357fbbe96171de70dd4d,,,,,,,ctch,resources/DBN.BMP,resources/DY.BMP,Door4,-0.369444444,0.037962963,1,0,0,0.736,optionLeft,60,2315,1,42,0,42,0,1,,,,,,,,,,,,,,,,,,,,,,,,,,,,,,,,,,,,,,,
,,,,,,,,2023-08-03_06h45.36.521,HF_wild_card,2022.2.4,Linux x86_64,61.42506143,605e9cc770aa6d1947d02bfa,64b543b0a84ad6ab4a25b86a,64cb357fbbe96171de70dd4d,,,,,,,sngl,resources/Empty.png,resources/DY.BMP,Door1,0.343518519,-0.007407407,1,0,0,0.716,optionRight,30,2345,1,43,0,43,0,1,,,,,,,,,,,,,,,,,,,,,,,,,,,,,,,,,,,,,,,
,,,,,,,,2023-08-03_06h45.36.521,HF_wild_card,2022.2.4,Linux x86_64,61.42506143,605e9cc770aa6d1947d02bfa,64b543b0a84ad6ab4a25b86a,64cb357fbbe96171de70dd4d,,,,,,,,,,,,,,,,,,,,,,,,,,0,0,0,0,1,,,,,,,,,,,,,,,,,,,,,,,,,,,,,,,,,,
,,,,,,,,2023-08-03_06h45.36.521,HF_wild_card,2022.2.4,Linux x86_64,61.42506143,605e9cc770aa6d1947d02bfa,64b543b0a84ad6ab4a25b86a,64cb357fbbe96171de70dd4d,,,,,,,ctch,resources/DBN.BMP,resources/DY.BMP,Door4,-0.321296296,-0.05,1,0,0,1.346,optionLeft,80,2425,2,0,0,0,0,1,,,,,,,,,,,,,,,,,,,,,,,,,,,,,,,,,,,,,,,
,,,,,,,,2023-08-03_06h45.36.521,HF_wild_card,2022.2.4,Linux x86_64,61.42506143,605e9cc770aa6d1947d02bfa,64b543b0a84ad6ab4a25b86a,64cb357fbbe96171de70dd4d,,,,,,,ctch,resources/DB.BMP,resources/DP.BMP,Door3,0.267592593,-0.036111111,1,0,0,1.073,optionRight,70,2495,2,1,0,1,0,1,,,,,,,,,,,,,,,,,,,,,,,,,,,,,,,,,,,,,,,
,,,,,,,,2023-08-03_06h45.36.521,HF_wild_card,2022.2.4,Linux x86_64,61.42506143,605e9cc770aa6d1947d02bfa,64b543b0a84ad6ab4a25b86a,64cb357fbbe96171de70dd4d,,,,,,,sngl,resources/Empty.png,resources/DB.BMP,Door2,0.217592593,0.022222222,1,0,0,0.876,optionRight,40,2535,2,2,0,2,0,1,,,,,,,,,,,,,,,,,,,,,,,,,,,,,,,,,,,,,,,
,,,,,,,,2023-08-03_06h45.36.521,HF_wild_card,2022.2.4,Linux x86_64,61.42506143,605e9cc770aa6d1947d02bfa,64b543b0a84ad6ab4a25b86a,64cb357fbbe96171de70dd4d,,,,,,,decisionTrl,resources/DY.BMP,resources/DB.BMP,Door2,0.390740741,-0.038888889,1,0,0,0.984,optionRight,40,2575,2,3,0,3,0,1,,,,,,,,,,,,,,,,,,,,,,,,,,,,,,,,,,,,,,,
,,,,,,,,2023-08-03_06h45.36.521,HF_wild_card,2022.2.4,Linux x86_64,61.42506143,605e9cc770aa6d1947d02bfa,64b543b0a84ad6ab4a25b86a,64cb357fbbe96171de70dd4d,,,,,,,ctch,resources/DBN.BMP,resources/DY.BMP,Door4,-0.367592593,0.010185185,1,0,0,0.871,optionLeft,60,2635,2,4,0,4,0,1,,,,,,,,,,,,,,,,,,,,,,,,,,,,,,,,,,,,,,,
,,,,,,,,2023-08-03_06h45.36.521,HF_wild_card,2022.2.4,Linux x86_64,61.42506143,605e9cc770aa6d1947d02bfa,64b543b0a84ad6ab4a25b86a,64cb357fbbe96171de70dd4d,,,,,,,decisionTrl,resources/DR.BMP,resources/DP.BMP,WildCard_Ex,-0.32037037,-0.024074074,1,0,0,1.362,optionLeft,95,2730,2,5,0,5,0,1,,,,,,,,,,,,,,,,,,,,,,,,,,,,,,,,,,,,,,,
,,,,,,,,2023-08-03_06h45.36.521,HF_wild_card,2022.2.4,Linux x86_64,61.42506143,605e9cc770aa6d1947d02bfa,64b543b0a84ad6ab4a25b86a,64cb357fbbe96171de70dd4d,,,,,,,decisionTrl,resources/DR.BMP,resources/DY.BMP,WildCard_Ex,-0.251851852,-0.006481481,1,0,0,0.868,optionLeft,95,2825,2,6,0,6,0,1,,,,,,,,,,,,,,,,,,,,,,,,,,,,,,,,,,,,,,,
,,,,,,,,2023-08-03_06h45.36.521,HF_wild_card,2022.2.4,Linux x86_64,61.42506143,605e9cc770aa6d1947d02bfa,64b543b0a84ad6ab4a25b86a,64cb357fbbe96171de70dd4d,,,,,,,decisionTrl,resources/DB.BMP,resources/DY.BMP,Door2,-0.244444444,-0.02962963,1,0,0,1.779,optionLeft,40,2865,2,7,0,7,0,1,,,,,,,,,,,,,,,,,,,,,,,,,,,,,,,,,,,,,,,
,,,,,,,,2023-08-03_06h45.36.521,HF_wild_card,2022.2.4,Linux x86_64,61.42506143,605e9cc770aa6d1947d02bfa,64b543b0a84ad6ab4a25b86a,64cb357fbbe96171de70dd4d,,,,,,,sngl,resources/Empty.png,resources/DP.BMP,Door3,0.192592593,-0.011111111,1,0,0,0.702,optionRight,70,2935,2,8,0,8,0,1,,,,,,,,,,,,,,,,,,,,,,,,,,,,,,,,,,,,,,,
,,,,,,,,2023-08-03_06h45.36.521,HF_wild_card,2022.2.4,Linux x86_64,61.42506143,605e9cc770aa6d1947d02bfa,64b543b0a84ad6ab4a25b86a,64cb357fbbe96171de70dd4d,,,,,,,decisionTrl,resources/DY.BMP,resources/DR.BMP,WildCard_Ex,0.326851852,-0.031481481,1,0,0,1.28,optionRight,5,2940,2,9,0,9,0,1,,,,,,,,,,,,,,,,,,,,,,,,,,,,,,,,,,,,,,,
,,,,,,,,2023-08-03_06h45.36.521,HF_wild_card,2022.2.4,Linux x86_64,61.42506143,605e9cc770aa6d1947d02bfa,64b543b0a84ad6ab4a25b86a,64cb357fbbe96171de70dd4d,,,,,,,sngl,resources/DY.BMP,resources/Empty.png,Door1,-0.234259259,-0.002777778,1,0,0,0.66,optionLeft,30,2970,2,10,0,10,0,1,,,,,,,,,,,,,,,,,,,,,,,,,,,,,,,,,,,,,,,
,,,,,,,,2023-08-03_06h45.36.521,HF_wild_card,2022.2.4,Linux x86_64,61.42506143,605e9cc770aa6d1947d02bfa,64b543b0a84ad6ab4a25b86a,64cb357fbbe96171de70dd4d,,,,,,,sngl,resources/DP.BMP,resources/Empty.png,Door3,-0.25462963,-0.003703704,1,0,0,0.728,optionLeft,70,3040,2,11,0,11,0,1,,,,,,,,,,,,,,,,,,,,,,,,,,,,,,,,,,,,,,,
,,,,,,,,2023-08-03_06h45.36.521,HF_wild_card,2022.2.4,Linux x86_64,61.42506143,605e9cc770aa6d1947d02bfa,64b543b0a84ad6ab4a25b86a,64cb357fbbe96171de70dd4d,,,,,,,decisionTrl,resources/DB.BMP,resources/DR.BMP,WildCard_Ex,0.371296296,-0.035185185,1,0,0,1.594,optionRight,95,3135,2,12,0,12,0,1,,,,,,,,,,,,,,,,,,,,,,,,,,,,,,,,,,,,,,,
,,,,,,,,2023-08-03_06h45.36.521,HF_wild_card,2022.2.4,Linux x86_64,61.42506143,605e9cc770aa6d1947d02bfa,64b543b0a84ad6ab4a25b86a,64cb357fbbe96171de70dd4d,,,,,,,decisionTrl,resources/DB.BMP,resources/DY.BMP,Door2,-0.246296296,-0.069444444,1,0,0,1.428,optionLeft,20,3155,2,13,0,13,0,1,,,,,,,,,,,,,,,,,,,,,,,,,,,,,,,,,,,,,,,
,,,,,,,,2023-08-03_06h45.36.521,HF_wild_card,2022.2.4,Linux x86_64,61.42506143,605e9cc770aa6d1947d02bfa,64b543b0a84ad6ab4a25b86a,64cb357fbbe96171de70dd4d,,,,,,,ctch,resources/DP.BMP,resources/DB.BMP,Door3,-0.318518519,0.005555556,1,0,0,1.241,optionLeft,70,3225,2,14,0,14,0,1,,,,,,,,,,,,,,,,,,,,,,,,,,,,,,,,,,,,,,,
,,,,,,,,2023-08-03_06h45.36.521,HF_wild_card,2022.2.4,Linux x86_64,61.42506143,605e9cc770aa6d1947d02bfa,64b543b0a84ad6ab4a25b86a,64cb357fbbe96171de70dd4d,,,,,,,decisionTrl,resources/DBN.BMP,resources/DP.BMP,Door4,-0.325,0.009259259,1,0,0,1.198,optionLeft,80,3305,2,15,0,15,0,1,,,,,,,,,,,,,,,,,,,,,,,,,,,,,,,,,,,,,,,
,,,,,,,,2023-08-03_06h45.36.521,HF_wild_card,2022.2.4,Linux x86_64,61.42506143,605e9cc770aa6d1947d02bfa,64b543b0a84ad6ab4a25b86a,64cb357fbbe96171de70dd4d,,,,,,,decisionTrl,resources/DR.BMP,resources/DBN.BMP,Door4,0.276851852,-0.031481481,1,0,0,1.288,optionRight,60,3365,2,16,0,16,0,1,,,,,,,,,,,,,,,,,,,,,,,,,,,,,,,,,,,,,,,
,,,,,,,,2023-08-03_06h45.36.521,HF_wild_card,2022.2.4,Linux x86_64,61.42506143,605e9cc770aa6d1947d02bfa,64b543b0a84ad6ab4a25b86a,64cb357fbbe96171de70dd4d,,,,,,,sngl,resources/Empty.png,resources/DY.BMP,Door1,0.273148148,-0.012037037,1,0,0,0.73,optionRight,30,3395,2,17,0,17,0,1,,,,,,,,,,,,,,,,,,,,,,,,,,,,,,,,,,,,,,,
,,,,,,,,2023-08-03_06h45.36.521,HF_wild_card,2022.2.4,Linux x86_64,61.42506143,605e9cc770aa6d1947d02bfa,64b543b0a84ad6ab4a25b86a,64cb357fbbe96171de70dd4d,,,,,,,decisionTrl,resources/DY.BMP,resources/DB.BMP,Door2,0.294444444,-0.00462963,1,0,0,1.107,optionRight,20,3415,2,18,0,18,0,1,,,,,,,,,,,,,,,,,,,,,,,,,,,,,,,,,,,,,,,
,,,,,,,,2023-08-03_06h45.36.521,HF_wild_card,2022.2.4,Linux x86_64,61.42506143,605e9cc770aa6d1947d02bfa,64b543b0a84ad6ab4a25b86a,64cb357fbbe96171de70dd4d,,,,,,,decisionTrl,resources/DP.BMP,resources/DBN.BMP,Door4,0.337962963,0.017592593,1,0,0,1.342,optionRight,60,3475,2,19,0,19,0,1,,,,,,,,,,,,,,,,,,,,,,,,,,,,,,,,,,,,,,,
,,,,,,,,2023-08-03_06h45.36.521,HF_wild_card,2022.2.4,Linux x86_64,61.42506143,605e9cc770aa6d1947d02bfa,64b543b0a84ad6ab4a25b86a,64cb357fbbe96171de70dd4d,,,,,,,sngl,resources/Empty.png,resources/DBN.BMP,Door4,0.301851852,0.000925926,1,0,0,0.716,optionRight,80,3555,2,20,0,20,0,1,,,,,,,,,,,,,,,,,,,,,,,,,,,,,,,,,,,,,,,
,,,,,,,,2023-08-03_06h45.36.521,HF_wild_card,2022.2.4,Linux x86_64,61.42506143,605e9cc770aa6d1947d02bfa,64b543b0a84ad6ab4a25b86a,64cb357fbbe96171de70dd4d,,,,,,,decisionTrl,resources/DP.BMP,resources/DBN.BMP,Door4,0.315740741,-0.02037037,1,0,0,0.863,optionRight,80,3635,2,21,0,21,0,1,,,,,,,,,,,,,,,,,,,,,,,,,,,,,,,,,,,,,,,
,,,,,,,,2023-08-03_06h45.36.521,HF_wild_card,2022.2.4,Linux x86_64,61.42506143,605e9cc770aa6d1947d02bfa,64b543b0a84ad6ab4a25b86a,64cb357fbbe96171de70dd4d,,,,,,,sngl,resources/DB.BMP,resources/Empty.png,Door2,-0.262037037,-0.013888889,1,0,0,0.721,optionLeft,20,3655,2,22,0,22,0,1,,,,,,,,,,,,,,,,,,,,,,,,,,,,,,,,,,,,,,,
,,,,,,,,2023-08-03_06h45.36.521,HF_wild_card,2022.2.4,Linux x86_64,61.42506143,605e9cc770aa6d1947d02bfa,64b543b0a84ad6ab4a25b86a,64cb357fbbe96171de70dd4d,,,,,,,sngl,resources/Empty.png,resources/DR.BMP,WildCard_Ex,0.335185185,0.011111111,1,0,0,0.661,optionRight,5,3660,2,23,0,23,0,1,,,,,,,,,,,,,,,,,,,,,,,,,,,,,,,,,,,,,,,
,,,,,,,,2023-08-03_06h45.36.521,HF_wild_card,2022.2.4,Linux x86_64,61.42506143,605e9cc770aa6d1947d02bfa,64b543b0a84ad6ab4a25b86a,64cb357fbbe96171de70dd4d,,,,,,,decisionTrl,resources/DY.BMP,resources/DB.BMP,Door2,0.375925926,-0.075,1,0,0,1.672,optionRight,20,3680,2,24,0,24,0,1,,,,,,,,,,,,,,,,,,,,,,,,,,,,,,,,,,,,,,,
,,,,,,,,2023-08-03_06h45.36.521,HF_wild_card,2022.2.4,Linux x86_64,61.42506143,605e9cc770aa6d1947d02bfa,64b543b0a84ad6ab4a25b86a,64cb357fbbe96171de70dd4d,,,,,,,sngl,resources/DBN.BMP,resources/Empty.png,Door4,-0.290740741,-0.035185185,1,0,0,0.77,optionLeft,60,3740,2,25,0,25,0,1,,,,,,,,,,,,,,,,,,,,,,,,,,,,,,,,,,,,,,,
,,,,,,,,2023-08-03_06h45.36.521,HF_wild_card,2022.2.4,Linux x86_64,61.42506143,605e9cc770aa6d1947d02bfa,64b543b0a84ad6ab4a25b86a,64cb357fbbe96171de70dd4d,,,,,,,ctch,resources/DY.BMP,resources/DBN.BMP,Door4,0.317592593,-0.012037037,1,0,0,0.711,optionRight,80,3820,2,26,0,26,0,1,,,,,,,,,,,,,,,,,,,,,,,,,,,,,,,,,,,,,,,
,,,,,,,,2023-08-03_06h45.36.521,HF_wild_card,2022.2.4,Linux x86_64,61.42506143,605e9cc770aa6d1947d02bfa,64b543b0a84ad6ab4a25b86a,64cb357fbbe96171de70dd4d,,,,,,,sngl,resources/DR.BMP,resources/Empty.png,WildCard_Ex,-0.313888889,-0.035185185,1,0,0,0.748,optionLeft,5,3825,2,27,0,27,0,1,,,,,,,,,,,,,,,,,,,,,,,,,,,,,,,,,,,,,,,
,,,,,,,,2023-08-03_06h45.36.521,HF_wild_card,2022.2.4,Linux x86_64,61.42506143,605e9cc770aa6d1947d02bfa,64b543b0a84ad6ab4a25b86a,64cb357fbbe96171de70dd4d,,,,,,,decisionTrl,resources/DBN.BMP,resources/DP.BMP,Door4,-0.239814815,-0.014814815,1,0,0,1.383,optionLeft,80,3905,2,28,0,28,0,1,,,,,,,,,,,,,,,,,,,,,,,,,,,,,,,,,,,,,,,
,,,,,,,,2023-08-03_06h45.36.521,HF_wild_card,2022.2.4,Linux x86_64,61.42506143,605e9cc770aa6d1947d02bfa,64b543b0a84ad6ab4a25b86a,64cb357fbbe96171de70dd4d,,,,,,,decisionTrl,resources/DBN.BMP,resources/DR.BMP,Door4,-0.327777778,-0.024074074,1,0,0,1.278,optionLeft,80,3985,2,29,0,29,0,1,,,,,,,,,,,,,,,,,,,,,,,,,,,,,,,,,,,,,,,
,,,,,,,,2023-08-03_06h45.36.521,HF_wild_card,2022.2.4,Linux x86_64,61.42506143,605e9cc770aa6d1947d02bfa,64b543b0a84ad6ab4a25b86a,64cb357fbbe96171de70dd4d,,,,,,,decisionTrl,resources/DP.BMP,resources/DBN.BMP,Door4,0.401851852,-0.024074074,1,0,0,1.703,optionRight,80,4065,2,30,0,30,0,1,,,,,,,,,,,,,,,,,,,,,,,,,,,,,,,,,,,,,,,
,,,,,,,,2023-08-03_06h45.36.521,HF_wild_card,2022.2.4,Linux x86_64,61.42506143,605e9cc770aa6d1947d02bfa,64b543b0a84ad6ab4a25b86a,64cb357fbbe96171de70dd4d,,,,,,,sngl,resources/DR.BMP,resources/Empty.png,WildCard_Ex,-0.351851852,-0.02037037,1,0,0,0.738,optionLeft,95,4160,2,31,0,31,0,1,,,,,,,,,,,,,,,,,,,,,,,,,,,,,,,,,,,,,,,
,,,,,,,,2023-08-03_06h45.36.521,HF_wild_card,2022.2.4,Linux x86_64,61.42506143,605e9cc770aa6d1947d02bfa,64b543b0a84ad6ab4a25b86a,64cb357fbbe96171de70dd4d,,,,,,,decisionTrl,resources/DB.BMP,resources/DY.BMP,Door2,-0.210185185,-0.058333333,1,0,0,1.949,optionLeft,40,4200,2,32,0,32,0,1,,,,,,,,,,,,,,,,,,,,,,,,,,,,,,,,,,,,,,,
,,,,,,,,2023-08-03_06h45.36.521,HF_wild_card,2022.2.4,Linux x86_64,61.42506143,605e9cc770aa6d1947d02bfa,64b543b0a84ad6ab4a25b86a,64cb357fbbe96171de70dd4d,,,,,,,decisionTrl,resources/DBN.BMP,resources/DP.BMP,Door4,-0.241666667,-0.049074074,1,0,0,1.331,optionLeft,80,4280,2,33,0,33,0,1,,,,,,,,,,,,,,,,,,,,,,,,,,,,,,,,,,,,,,,
,,,,,,,,2023-08-03_06h45.36.521,HF_wild_card,2022.2.4,Linux x86_64,61.42506143,605e9cc770aa6d1947d02bfa,64b543b0a84ad6ab4a25b86a,64cb357fbbe96171de70dd4d,,,,,,,decisionTrl,resources/DP.BMP,resources/DBN.BMP,Door4,0.361111111,-0.002777778,1,0,0,1.004,optionRight,60,4340,2,34,0,34,0,1,,,,,,,,,,,,,,,,,,,,,,,,,,,,,,,,,,,,,,,
,,,,,,,,2023-08-03_06h45.36.521,HF_wild_card,2022.2.4,Linux x86_64,61.42506143,605e9cc770aa6d1947d02bfa,64b543b0a84ad6ab4a25b86a,64cb357fbbe96171de70dd4d,,,,,,,decisionTrl,resources/DY.BMP,resources/DB.BMP,Door2,0.312037037,-0.008333333,1,0,0,1.248,optionRight,40,4380,2,35,0,35,0,1,,,,,,,,,,,,,,,,,,,,,,,,,,,,,,,,,,,,,,,
,,,,,,,,2023-08-03_06h45.36.521,HF_wild_card,2022.2.4,Linux x86_64,61.42506143,605e9cc770aa6d1947d02bfa,64b543b0a84ad6ab4a25b86a,64cb357fbbe96171de70dd4d,,,,,,,ctch,resources/DY.BMP,resources/DBN.BMP,Door4,0.313888889,-0.023148148,1,0,0,0.879,optionRight,60,4440,2,36,0,36,0,1,,,,,,,,,,,,,,,,,,,,,,,,,,,,,,,,,,,,,,,
,,,,,,,,2023-08-03_06h45.36.521,HF_wild_card,2022.2.4,Linux x86_64,61.42506143,605e9cc770aa6d1947d02bfa,64b543b0a84ad6ab4a25b86a,64cb357fbbe96171de70dd4d,,,,,,,decisionTrl,resources/DR.BMP,resources/DB.BMP,WildCard_Ex,-0.313888889,-0.007407407,1,0,0,1.058,optionLeft,5,4445,2,37,0,37,0,1,,,,,,,,,,,,,,,,,,,,,,,,,,,,,,,,,,,,,,,
,,,,,,,,2023-08-03_06h45.36.521,HF_wild_card,2022.2.4,Linux x86_64,61.42506143,605e9cc770aa6d1947d02bfa,64b543b0a84ad6ab4a25b86a,64cb357fbbe96171de70dd4d,,,,,,,ctch,resources/DB.BMP,resources/DP.BMP,Door3,0.32962963,-0.027777778,1,0,0,1.382,optionRight,70,4515,2,38,0,38,0,1,,,,,,,,,,,,,,,,,,,,,,,,,,,,,,,,,,,,,,,
,,,,,,,,2023-08-03_06h45.36.521,HF_wild_card,2022.2.4,Linux x86_64,61.42506143,605e9cc770aa6d1947d02bfa,64b543b0a84ad6ab4a25b86a,64cb357fbbe96171de70dd4d,,,,,,,decisionTrl,resources/DB.BMP,resources/DY.BMP,Door1,0.332407407,-0.031481481,1,0,0,1.055,optionRight,30,4545,2,39,0,39,0,1,,,,,,,,,,,,,,,,,,,,,,,,,,,,,,,,,,,,,,,
,,,,,,,,2023-08-03_06h45.36.521,HF_wild_card,2022.2.4,Linux x86_64,61.42506143,605e9cc770aa6d1947d02bfa,64b543b0a84ad6ab4a25b86a,64cb357fbbe96171de70dd4d,,,,,,,decisionTrl,resources/DP.BMP,resources/DR.BMP,WildCard_Ex,0.393518519,-0.02037037,1,0,0,1.142,optionRight,95,4640,2,40,0,40,0,1,,,,,,,,,,,,,,,,,,,,,,,,,,,,,,,,,,,,,,,
,,,,,,,,2023-08-03_06h45.36.521,HF_wild_card,2022.2.4,Linux x86_64,61.42506143,605e9cc770aa6d1947d02bfa,64b543b0a84ad6ab4a25b86a,64cb357fbbe96171de70dd4d,,,,,,,ctch,resources/DP.BMP,resources/DB.BMP,Door3,-0.300925926,-0.028703704,1,0,0,2.645,optionLeft,70,4710,2,41,0,41,0,1,,,,,,,,,,,,,,,,,,,,,,,,,,,,,,,,,,,,,,,
,,,,,,,,2023-08-03_06h45.36.521,HF_wild_card,2022.2.4,Linux x86_64,61.42506143,605e9cc770aa6d1947d02bfa,64b543b0a84ad6ab4a25b86a,64cb357fbbe96171de70dd4d,,,,,,,sngl,resources/Empty.png,resources/DR.BMP,WildCard_Ex,0.299074074,0.010185185,1,0,0,0.759,optionRight,95,4805,2,42,0,42,0,1,,,,,,,,,,,,,,,,,,,,,,,,,,,,,,,,,,,,,,,
,,,,,,,,2023-08-03_06h45.36.521,HF_wild_card,2022.2.4,Linux x86_64,61.42506143,605e9cc770aa6d1947d02bfa,64b543b0a84ad6ab4a25b86a,64cb357fbbe96171de70dd4d,,,,,,,decisionTrl,resources/DBN.BMP,resources/DP.BMP,Door4,-0.264814815,-0.081481481,1,0,0,2.313,optionLeft,80,4885,2,43,0,43,0,1,,,,,,,,,,,,,,,,,,,,,,,,,,,,,,,,,,,,,,,
,,,,,,,,2023-08-03_06h45.36.521,HF_wild_card,2022.2.4,Linux x86_64,61.42506143,605e9cc770aa6d1947d02bfa,64b543b0a84ad6ab4a25b86a,64cb357fbbe96171de70dd4d,,,,,,,,,,,,,,,,,,,,,,,,,,1,0,1,0,1,,,,,,,,,,,,,,,,,,,,,,,,,,,,,,,,,,
,,,,,,,,2023-08-03_06h45.36.521,HF_wild_card,2022.2.4,Linux x86_64,61.42506143,605e9cc770aa6d1947d02bfa,64b543b0a84ad6ab4a25b86a,64cb357fbbe96171de70dd4d,,,,,,,ctch,resources/DB.BMP,resources/DP.BMP,Door3,0.400925926,-0.069444444,1,0,0,1.196,optionRight,70,4955,3,0,0,0,0,1,,,,,,,,,,,,,,,,,,,,,,,,,,,,,,,,,,,,,,,
,,,,,,,,2023-08-03_06h45.36.521,HF_wild_card,2022.2.4,Linux x86_64,61.42506143,605e9cc770aa6d1947d02bfa,64b543b0a84ad6ab4a25b86a,64cb357fbbe96171de70dd4d,,,,,,,decisionTrl,resources/DB.BMP,resources/DY.BMP,Door2,-0.281481481,-0.037962963,1,0,0,2.231,optionLeft,40,4995,3,1,0,1,0,1,,,,,,,,,,,,,,,,,,,,,,,,,,,,,,,,,,,,,,,
,,,,,,,,2023-08-03_06h45.36.521,HF_wild_card,2022.2.4,Linux x86_64,61.42506143,605e9cc770aa6d1947d02bfa,64b543b0a84ad6ab4a25b86a,64cb357fbbe96171de70dd4d,,,,,,,decisionTrl,resources/DY.BMP,resources/DB.BMP,Door2,0.421296296,-0.044444444,1,0,0,1.482,optionRight,40,5035,3,2,0,2,0,1,,,,,,,,,,,,,,,,,,,,,,,,,,,,,,,,,,,,,,,
,,,,,,,,2023-08-03_06h45.36.521,HF_wild_card,2022.2.4,Linux x86_64,61.42506143,605e9cc770aa6d1947d02bfa,64b543b0a84ad6ab4a25b86a,64cb357fbbe96171de70dd4d,,,,,,,sngl,resources/DR.BMP,resources/Empty.png,WildCard_Ex,-0.324074074,-0.027777778,1,0,0,1.243,optionLeft,95,5130,3,3,0,3,0,1,,,,,,,,,,,,,,,,,,,,,,,,,,,,,,,,,,,,,,,
,,,,,,,,2023-08-03_06h45.36.521,HF_wild_card,2022.2.4,Linux x86_64,61.42506143,605e9cc770aa6d1947d02bfa,64b543b0a84ad6ab4a25b86a,64cb357fbbe96171de70dd4d,,,,,,,decisionTrl,resources/DB.BMP,resources/DY.BMP,Door1,0.367592593,-0.037962963,1,0,0,2.611,optionRight,30,5160,3,4,0,4,0,1,,,,,,,,,,,,,,,,,,,,,,,,,,,,,,,,,,,,,,,
,,,,,,,,2023-08-03_06h45.36.521,HF_wild_card,2022.2.4,Linux x86_64,61.42506143,605e9cc770aa6d1947d02bfa,64b543b0a84ad6ab4a25b86a,64cb357fbbe96171de70dd4d,,,,,,,decisionTrl,resources/DY.BMP,resources/DB.BMP,Door2,0.271296296,-0.047222222,1,0,0,1.121,optionRight,20,5180,3,5,0,5,0,1,,,,,,,,,,,,,,,,,,,,,,,,,,,,,,,,,,,,,,,
,,,,,,,,2023-08-03_06h45.36.521,HF_wild_card,2022.2.4,Linux x86_64,61.42506143,605e9cc770aa6d1947d02bfa,64b543b0a84ad6ab4a25b86a,64cb357fbbe96171de70dd4d,,,,,,,sngl,resources/DY.BMP,resources/Empty.png,Door1,-0.202777778,-0.012962963,1,0,0,0.674,optionLeft,30,5210,3,6,0,6,0,1,,,,,,,,,,,,,,,,,,,,,,,,,,,,,,,,,,,,,,,
,,,,,,,,2023-08-03_06h45.36.521,HF_wild_card,2022.2.4,Linux x86_64,61.42506143,605e9cc770aa6d1947d02bfa,64b543b0a84ad6ab4a25b86a,64cb357fbbe96171de70dd4d,,,,,,,sngl,resources/Empty.png,resources/DY.BMP,Door1,0.423148148,-0.171296296,1,0,0,9.945,optionRight,30,5240,3,7,0,7,0,1,,,,,,,,,,,,,,,,,,,,,,,,,,,,,,,,,,,,,,,
,,,,,,,,2023-08-03_06h45.36.521,HF_wild_card,2022.2.4,Linux x86_64,61.42506143,605e9cc770aa6d1947d02bfa,64b543b0a84ad6ab4a25b86a,64cb357fbbe96171de70dd4d,,,,,,,sngl,resources/Empty.png,resources/DB.BMP,Door2,0.291666667,-0.000925926,1,0,0,0.695,optionRight,20,5260,3,8,0,8,0,1,,,,,,,,,,,,,,,,,,,,,,,,,,,,,,,,,,,,,,,
,,,,,,,,2023-08-03_06h45.36.521,HF_wild_card,2022.2.4,Linux x86_64,61.42506143,605e9cc770aa6d1947d02bfa,64b543b0a84ad6ab4a25b86a,64cb357fbbe96171de70dd4d,,,,,,,ctch,resources/DP.BMP,resources/DB.BMP,Door3,-0.363888889,-0.030555556,1,0,0,1.038,optionLeft,70,5330,3,9,0,9,0,1,,,,,,,,,,,,,,,,,,,,,,,,,,,,,,,,,,,,,,,
,,,,,,,,2023-08-03_06h45.36.521,HF_wild_card,2022.2.4,Linux x86_64,61.42506143,605e9cc770aa6d1947d02bfa,64b543b0a84ad6ab4a25b86a,64cb357fbbe96171de70dd4d,,,,,,,decisionTrl,resources/DP.BMP,resources/DBN.BMP,Door4,0.434259259,-0.087962963,1,0,0,2.068,optionRight,60,5390,3,10,0,10,0,1,,,,,,,,,,,,,,,,,,,,,,,,,,,,,,,,,,,,,,,
,,,,,,,,2023-08-03_06h45.36.521,HF_wild_card,2022.2.4,Linux x86_64,61.42506143,605e9cc770aa6d1947d02bfa,64b543b0a84ad6ab4a25b86a,64cb357fbbe96171de70dd4d,,,,,,,sngl,resources/DR.BMP,resources/Empty.png,WildCard_Ex,-0.367592593,-0.048148148,1,0,0,0.763,optionLeft,5,5395,3,11,0,11,0,1,,,,,,,,,,,,,,,,,,,,,,,,,,,,,,,,,,,,,,,
,,,,,,,,2023-08-03_06h45.36.521,HF_wild_card,2022.2.4,Linux x86_64,61.42506143,605e9cc770aa6d1947d02bfa,64b543b0a84ad6ab4a25b86a,64cb357fbbe96171de70dd4d,,,,,,,decisionTrl,resources/DP.BMP,resources/DBN.BMP,Door4,0.313888889,-0.044444444,1,0,0,1.003,optionRight,80,5475,3,12,0,12,0,1,,,,,,,,,,,,,,,,,,,,,,,,,,,,,,,,,,,,,,,
,,,,,,,,2023-08-03_06h45.36.521,HF_wild_card,2022.2.4,Linux x86_64,61.42506143,605e9cc770aa6d1947d02bfa,64b543b0a84ad6ab4a25b86a,64cb357fbbe96171de70dd4d,,,,,,,decisionTrl,resources/DBN.BMP,resources/DP.BMP,Door3,0.496296296,-0.027777778,1,0,0,1.196,optionRight,70,5545,3,13,0,13,0,1,,,,,,,,,,,,,,,,,,,,,,,,,,,,,,,,,,,,,,,
,,,,,,,,2023-08-03_06h45.36.521,HF_wild_card,2022.2.4,Linux x86_64,61.42506143,605e9cc770aa6d1947d02bfa,64b543b0a84ad6ab4a25b86a,64cb357fbbe96171de70dd4d,,,,,,,ctch,resources/DBN.BMP,resources/DY.BMP,Door4,-0.242592593,-0.039814815,1,0,0,1.712,optionLeft,60,5605,3,14,0,14,0,1,,,,,,,,,,,,,,,,,,,,,,,,,,,,,,,,,,,,,,,
,,,,,,,,2023-08-03_06h45.36.521,HF_wild_card,2022.2.4,Linux x86_64,61.42506143,605e9cc770aa6d1947d02bfa,64b543b0a84ad6ab4a25b86a,64cb357fbbe96171de70dd4d,,,,,,,decisionTrl,resources/DR.BMP,resources/DP.BMP,Door3,0.45,-0.035185185,1,0,0,1.7,optionRight,70,5675,3,15,0,15,0,1,,,,,,,,,,,,,,,,,,,,,,,,,,,,,,,,,,,,,,,
,,,,,,,,2023-08-03_06h45.36.521,HF_wild_card,2022.2.4,Linux x86_64,61.42506143,605e9cc770aa6d1947d02bfa,64b543b0a84ad6ab4a25b86a,64cb357fbbe96171de70dd4d,,,,,,,sngl,resources/Empty.png,resources/DR.BMP,WildCard_Ex,0.29537037,-0.018518519,1,0,0,0.743,optionRight,95,5770,3,16,0,16,0,1,,,,,,,,,,,,,,,,,,,,,,,,,,,,,,,,,,,,,,,
,,,,,,,,2023-08-03_06h45.36.521,HF_wild_card,2022.2.4,Linux x86_64,61.42506143,605e9cc770aa6d1947d02bfa,64b543b0a84ad6ab4a25b86a,64cb357fbbe96171de70dd4d,,,,,,,sngl,resources/Empty.png,resources/DBN.BMP,Door4,0.367592593,0.028703704,1,0,0,1.235,optionRight,60,5830,3,17,0,17,0,1,,,,,,,,,,,,,,,,,,,,,,,,,,,,,,,,,,,,,,,
,,,,,,,,2023-08-03_06h45.36.521,HF_wild_card,2022.2.4,Linux x86_64,61.42506143,605e9cc770aa6d1947d02bfa,64b543b0a84ad6ab4a25b86a,64cb357fbbe96171de70dd4d,,,,,,,decisionTrl,resources/DR.BMP,resources/DB.BMP,Door2,0.362037037,-0.076851852,1,0,0,1.395,optionRight,40,5870,3,18,0,18,0,1,,,,,,,,,,,,,,,,,,,,,,,,,,,,,,,,,,,,,,,
,,,,,,,,2023-08-03_06h45.36.521,HF_wild_card,2022.2.4,Linux x86_64,61.42506143,605e9cc770aa6d1947d02bfa,64b543b0a84ad6ab4a25b86a,64cb357fbbe96171de70dd4d,,,,,,,sngl,resources/Empty.png,resources/DP.BMP,Door3,0.248148148,-0.018518519,1,0,0,0.664,optionRight,70,5940,3,19,0,19,0,1,,,,,,,,,,,,,,,,,,,,,,,,,,,,,,,,,,,,,,,
,,,,,,,,2023-08-03_06h45.36.521,HF_wild_card,2022.2.4,Linux x86_64,61.42506143,605e9cc770aa6d1947d02bfa,64b543b0a84ad6ab4a25b86a,64cb357fbbe96171de70dd4d,,,,,,,sngl,resources/Empty.png,resources/DR.BMP,WildCard_Ex,0.356481481,0.013888889,1,0,0,0.705,optionRight,5,5945,3,20,0,20,0,1,,,,,,,,,,,,,,,,,,,,,,,,,,,,,,,,,,,,,,,
,,,,,,,,2023-08-03_06h45.36.521,HF_wild_card,2022.2.4,Linux x86_64,61.42506143,605e9cc770aa6d1947d02bfa,64b543b0a84ad6ab4a25b86a,64cb357fbbe96171de70dd4d,,,,,,,sngl,resources/DB.BMP,resources/Empty.png,Door2,-0.335185185,-0.036111111,1,0,0,0.723,optionLeft,40,5985,3,21,0,21,0,1,,,,,,,,,,,,,,,,,,,,,,,,,,,,,,,,,,,,,,,
,,,,,,,,2023-08-03_06h45.36.521,HF_wild_card,2022.2.4,Linux x86_64,61.42506143,605e9cc770aa6d1947d02bfa,64b543b0a84ad6ab4a25b86a,64cb357fbbe96171de70dd4d,,,,,,,decisionTrl,resources/DB.BMP,resources/DR.BMP,WildCard_Ex,0.406481481,-0.05462963,1,0,0,2.018,optionRight,5,5990,3,22,0,22,0,1,,,,,,,,,,,,,,,,,,,,,,,,,,,,,,,,,,,,,,,
,,,,,,,,2023-08-03_06h45.36.521,HF_wild_card,2022.2.4,Linux x86_64,61.42506143,605e9cc770aa6d1947d02bfa,64b543b0a84ad6ab4a25b86a,64cb357fbbe96171de70dd4d,,,,,,,ctch,resources/DBN.BMP,resources/DY.BMP,Door4,-0.27962963,-0.001851852,1,0,0,1.487,optionLeft,80,6070,3,23,0,23,0,1,,,,,,,,,,,,,,,,,,,,,,,,,,,,,,,,,,,,,,,
,,,,,,,,2023-08-03_06h45.36.521,HF_wild_card,2022.2.4,Linux x86_64,61.42506143,605e9cc770aa6d1947d02bfa,64b543b0a84ad6ab4a25b86a,64cb357fbbe96171de70dd4d,,,,,,,decisionTrl,resources/DBN.BMP,resources/DR.BMP,Door4,-0.299074074,-0.052777778,1,0,0,1.488,optionLeft,60,6130,3,24,0,24,0,1,,,,,,,,,,,,,,,,,,,,,,,,,,,,,,,,,,,,,,,
,,,,,,,,2023-08-03_06h45.36.521,HF_wild_card,2022.2.4,Linux x86_64,61.42506143,605e9cc770aa6d1947d02bfa,64b543b0a84ad6ab4a25b86a,64cb357fbbe96171de70dd4d,,,,,,,decisionTrl,resources/DY.BMP,resources/DB.BMP,Door2,0.353703704,-0.04537037,1,0,0,1.718,optionRight,40,6170,3,25,0,25,0,1,,,,,,,,,,,,,,,,,,,,,,,,,,,,,,,,,,,,,,,
,,,,,,,,2023-08-03_06h45.36.521,HF_wild_card,2022.2.4,Linux x86_64,61.42506143,605e9cc770aa6d1947d02bfa,64b543b0a84ad6ab4a25b86a,64cb357fbbe96171de70dd4d,,,,,,,decisionTrl,resources/DR.BMP,resources/DBN.BMP,WildCard_Ex,-0.368518519,0.001851852,1,0,0,0.945,optionLeft,95,6265,3,26,0,26,0,1,,,,,,,,,,,,,,,,,,,,,,,,,,,,,,,,,,,,,,,
,,,,,,,,2023-08-03_06h45.36.521,HF_wild_card,2022.2.4,Linux x86_64,61.42506143,605e9cc770aa6d1947d02bfa,64b543b0a84ad6ab4a25b86a,64cb357fbbe96171de70dd4d,,,,,,,sngl,resources/DP.BMP,resources/Empty.png,Door3,-0.264814815,-0.028703704,1,0,0,0.729,optionLeft,70,6335,3,27,0,27,0,1,,,,,,,,,,,,,,,,,,,,,,,,,,,,,,,,,,,,,,,
,,,,,,,,2023-08-03_06h45.36.521,HF_wild_card,2022.2.4,Linux x86_64,61.42506143,605e9cc770aa6d1947d02bfa,64b543b0a84ad6ab4a25b86a,64cb357fbbe96171de70dd4d,,,,,,,decisionTrl,resources/DP.BMP,resources/DBN.BMP,Door3,-0.284259259,-0.025925926,1,0,0,0.87,optionLeft,70,6405,3,28,0,28,0,1,,,,,,,,,,,,,,,,,,,,,,,,,,,,,,,,,,,,,,,
,,,,,,,,2023-08-03_06h45.36.521,HF_wild_card,2022.2.4,Linux x86_64,61.42506143,605e9cc770aa6d1947d02bfa,64b543b0a84ad6ab4a25b86a,64cb357fbbe96171de70dd4d,,,,,,,decisionTrl,resources/DBN.BMP,resources/DP.BMP,Door4,-0.178703704,-0.030555556,1,0,0,2.074,optionLeft,60,6465,3,29,0,29,0,1,,,,,,,,,,,,,,,,,,,,,,,,,,,,,,,,,,,,,,,
,,,,,,,,2023-08-03_06h45.36.521,HF_wild_card,2022.2.4,Linux x86_64,61.42506143,605e9cc770aa6d1947d02bfa,64b543b0a84ad6ab4a25b86a,64cb357fbbe96171de70dd4d,,,,,,,decisionTrl,resources/DB.BMP,resources/DY.BMP,Door2,-0.328703704,-0.036111111,1,0,0,1.258,optionLeft,40,6505,3,30,0,30,0,1,,,,,,,,,,,,,,,,,,,,,,,,,,,,,,,,,,,,,,,
,,,,,,,,2023-08-03_06h45.36.521,HF_wild_card,2022.2.4,Linux x86_64,61.42506143,605e9cc770aa6d1947d02bfa,64b543b0a84ad6ab4a25b86a,64cb357fbbe96171de70dd4d,,,,,,,ctch,resources/DY.BMP,resources/DBN.BMP,Door4,0.401851852,-0.010185185,1,0,0,1.114,optionRight,80,6585,3,31,0,31,0,1,,,,,,,,,,,,,,,,,,,,,,,,,,,,,,,,,,,,,,,
,,,,,,,,2023-08-03_06h45.36.521,HF_wild_card,2022.2.4,Linux x86_64,61.42506143,605e9cc770aa6d1947d02bfa,64b543b0a84ad6ab4a25b86a,64cb357fbbe96171de70dd4d,,,,,,,decisionTrl,resources/DP.BMP,resources/DBN.BMP,Door4,0.453703704,0.038888889,1,0,0,1.042,optionRight,60,6645,3,32,0,32,0,1,,,,,,,,,,,,,,,,,,,,,,,,,,,,,,,,,,,,,,,
,,,,,,,,2023-08-03_06h45.36.521,HF_wild_card,2022.2.4,Linux x86_64,61.42506143,605e9cc770aa6d1947d02bfa,64b543b0a84ad6ab4a25b86a,64cb357fbbe96171de70dd4d,,,,,,,decisionTrl,resources/DR.BMP,resources/DY.BMP,WildCard_Ex,-0.453703704,-0.036111111,1,0,0,1.006,optionLeft,5,6650,3,33,0,33,0,1,,,,,,,,,,,,,,,,,,,,,,,,,,,,,,,,,,,,,,,
,,,,,,,,2023-08-03_06h45.36.521,HF_wild_card,2022.2.4,Linux x86_64,61.42506143,605e9cc770aa6d1947d02bfa,64b543b0a84ad6ab4a25b86a,64cb357fbbe96171de70dd4d,,,,,,,decisionTrl,resources/DY.BMP,resources/DR.BMP,WildCard_Ex,0.274074074,-0.009259259,1,0,0,0.716,optionRight,95,6745,3,34,0,34,0,1,,,,,,,,,,,,,,,,,,,,,,,,,,,,,,,,,,,,,,,
,,,,,,,,2023-08-03_06h45.36.521,HF_wild_card,2022.2.4,Linux x86_64,61.42506143,605e9cc770aa6d1947d02bfa,64b543b0a84ad6ab4a25b86a,64cb357fbbe96171de70dd4d,,,,,,,decisionTrl,resources/DP.BMP,resources/DR.BMP,WildCard_Ex,0.296296296,-0.018518519,1,0,0,0.707,optionRight,5,6750,3,35,0,35,0,1,,,,,,,,,,,,,,,,,,,,,,,,,,,,,,,,,,,,,,,
,,,,,,,,2023-08-03_06h45.36.521,HF_wild_card,2022.2.4,Linux x86_64,61.42506143,605e9cc770aa6d1947d02bfa,64b543b0a84ad6ab4a25b86a,64cb357fbbe96171de70dd4d,,,,,,,decisionTrl,resources/DB.BMP,resources/DY.BMP,Door2,-0.287962963,-0.064814815,1,0,0,1.913,optionLeft,40,6790,3,36,0,36,0,1,,,,,,,,,,,,,,,,,,,,,,,,,,,,,,,,,,,,,,,
,,,,,,,,2023-08-03_06h45.36.521,HF_wild_card,2022.2.4,Linux x86_64,61.42506143,605e9cc770aa6d1947d02bfa,64b543b0a84ad6ab4a25b86a,64cb357fbbe96171de70dd4d,,,,,,,ctch,resources/DB.BMP,resources/DP.BMP,Door3,0.375,0.005555556,1,0,0,1.368,optionRight,70,6860,3,37,0,37,0,1,,,,,,,,,,,,,,,,,,,,,,,,,,,,,,,,,,,,,,,
,,,,,,,,2023-08-03_06h45.36.521,HF_wild_card,2022.2.4,Linux x86_64,61.42506143,605e9cc770aa6d1947d02bfa,64b543b0a84ad6ab4a25b86a,64cb357fbbe96171de70dd4d,,,,,,,sngl,resources/DBN.BMP,resources/Empty.png,Door4,-0.300925926,-0.011111111,1,0,0,0.714,optionLeft,80,6940,3,38,0,38,0,1,,,,,,,,,,,,,,,,,,,,,,,,,,,,,,,,,,,,,,,
,,,,,,,,2023-08-03_06h45.36.521,HF_wild_card,2022.2.4,Linux x86_64,61.42506143,605e9cc770aa6d1947d02bfa,64b543b0a84ad6ab4a25b86a,64cb357fbbe96171de70dd4d,,,,,,,decisionTrl,resources/DBN.BMP,resources/DP.BMP,Door4,-0.339814815,-0.02962963,1,0,0,0.848,optionLeft,80,7020,3,39,0,39,0,1,,,,,,,,,,,,,,,,,,,,,,,,,,,,,,,,,,,,,,,
,,,,,,,,2023-08-03_06h45.36.521,HF_wild_card,2022.2.4,Linux x86_64,61.42506143,605e9cc770aa6d1947d02bfa,64b543b0a84ad6ab4a25b86a,64cb357fbbe96171de70dd4d,,,,,,,decisionTrl,resources/DY.BMP,resources/DB.BMP,Door1,-0.250925926,-0.014814815,1,0,0,1.404,optionLeft,30,7050,3,40,0,40,0,1,,,,,,,,,,,,,,,,,,,,,,,,,,,,,,,,,,,,,,,
,,,,,,,,2023-08-03_06h45.36.521,HF_wild_card,2022.2.4,Linux x86_64,61.42506143,605e9cc770aa6d1947d02bfa,64b543b0a84ad6ab4a25b86a,64cb357fbbe96171de70dd4d,,,,,,,ctch,resources/DY.BMP,resources/DBN.BMP,Door4,0.362037037,0.002777778,1,0,0,0.736,optionRight,80,7130,3,41,0,41,0,1,,,,,,,,,,,,,,,,,,,,,,,,,,,,,,,,,,,,,,,
,,,,,,,,2023-08-03_06h45.36.521,HF_wild_card,2022.2.4,Linux x86_64,61.42506143,605e9cc770aa6d1947d02bfa,64b543b0a84ad6ab4a25b86a,64cb357fbbe96171de70dd4d,,,,,,,decisionTrl,resources/DBN.BMP,resources/DP.BMP,Door4,-0.175,-0.002777778,1,0,0,0.917,optionLeft,80,7210,3,42,0,42,0,1,,,,,,,,,,,,,,,,,,,,,,,,,,,,,,,,,,,,,,,
,,,,,,,,2023-08-03_06h45.36.521,HF_wild_card,2022.2.4,Linux x86_64,61.42506143,605e9cc770aa6d1947d02bfa,64b543b0a84ad6ab4a25b86a,64cb357fbbe96171de70dd4d,,,,,,,ctch,resources/DP.BMP,resources/DB.BMP,Door3,-0.247222222,-0.040740741,1,0,0,1.247,optionLeft,70,7280,3,43,0,43,0,1,,,,,,,,,,,,,,,,,,,,,,,,,,,,,,,,,,,,,,,
,,,,,,,,2023-08-03_06h45.36.521,HF_wild_card,2022.2.4,Linux x86_64,61.42506143,605e9cc770aa6d1947d02bfa,64b543b0a84ad6ab4a25b86a,64cb357fbbe96171de70dd4d,,,,,,,,,,,,,,,,,,,,,,,,,,2,0,2,0,1,,,,,,,,,,,,,,,,,,,,,,,,,,,,,,,,,,
,,,,,,,,2023-08-03_06h45.36.521,HF_wild_card,2022.2.4,Linux x86_64,61.42506143,605e9cc770aa6d1947d02bfa,64b543b0a84ad6ab4a25b86a,64cb357fbbe96171de70dd4d,,,,,,,decisionTrl,resources/DP.BMP,resources/DBN.BMP,Door4,0.39537037,-0.066666667,1,0,0,0.876,optionRight,60,7340,4,0,0,0,0,1,,,,,,,,,,,,,,,,,,,,,,,,,,,,,,,,,,,,,,,
,,,,,,,,2023-08-03_06h45.36.521,HF_wild_card,2022.2.4,Linux x86_64,61.42506143,605e9cc770aa6d1947d02bfa,64b543b0a84ad6ab4a25b86a,64cb357fbbe96171de70dd4d,,,,,,,decisionTrl,resources/DB.BMP,resources/DY.BMP,Door2,-0.325,-0.02962963,1,0,0,1.187,optionLeft,20,7360,4,1,0,1,0,1,,,,,,,,,,,,,,,,,,,,,,,,,,,,,,,,,,,,,,,
,,,,,,,,2023-08-03_06h45.36.521,HF_wild_card,2022.2.4,Linux x86_64,61.42506143,605e9cc770aa6d1947d02bfa,64b543b0a84ad6ab4a25b86a,64cb357fbbe96171de70dd4d,,,,,,,sngl,resources/Empty.png,resources/DG.BMP,WildCard_NonEx,0.39537037,0.007407407,1,0,0,0.712,optionRight,55,7415,4,2,0,2,0,1,,,,,,,,,,,,,,,,,,,,,,,,,,,,,,,,,,,,,,,
,,,,,,,,2023-08-03_06h45.36.521,HF_wild_card,2022.2.4,Linux x86_64,61.42506143,605e9cc770aa6d1947d02bfa,64b543b0a84ad6ab4a25b86a,64cb357fbbe96171de70dd4d,,,,,,,sngl,resources/DBN.BMP,resources/Empty.png,Door4,-0.273148148,-0.007407407,1,0,0,0.774,optionLeft,60,7475,4,3,0,3,0,1,,,,,,,,,,,,,,,,,,,,,,,,,,,,,,,,,,,,,,,
,,,,,,,,2023-08-03_06h45.36.521,HF_wild_card,2022.2.4,Linux x86_64,61.42506143,605e9cc770aa6d1947d02bfa,64b543b0a84ad6ab4a25b86a,64cb357fbbe96171de70dd4d,,,,,,,decisionTrl,resources/DBN.BMP,resources/DP.BMP,Door4,-0.256481481,-0.049074074,1,0,0,1.617,optionLeft,80,7555,4,4,0,4,0,1,,,,,,,,,,,,,,,,,,,,,,,,,,,,,,,,,,,,,,,
,,,,,,,,2023-08-03_06h45.36.521,HF_wild_card,2022.2.4,Linux x86_64,61.42506143,605e9cc770aa6d1947d02bfa,64b543b0a84ad6ab4a25b86a,64cb357fbbe96171de70dd4d,,,,,,,sngl,resources/DP.BMP,resources/Empty.png,Door3,-0.314814815,-0.056481481,1,0,0,0.718,optionLeft,70,7625,4,5,0,5,0,1,,,,,,,,,,,,,,,,,,,,,,,,,,,,,,,,,,,,,,,
,,,,,,,,2023-08-03_06h45.36.521,HF_wild_card,2022.2.4,Linux x86_64,61.42506143,605e9cc770aa6d1947d02bfa,64b543b0a84ad6ab4a25b86a,64cb357fbbe96171de70dd4d,,,,,,,decisionTrl,resources/DG.BMP,resources/DY.BMP,WildCard_NonEx,-0.301851852,-0.013888889,1,0,0,1.074,optionLeft,45,7670,4,6,0,6,0,1,,,,,,,,,,,,,,,,,,,,,,,,,,,,,,,,,,,,,,,
,,,,,,,,2023-08-03_06h45.36.521,HF_wild_card,2022.2.4,Linux x86_64,61.42506143,605e9cc770aa6d1947d02bfa,64b543b0a84ad6ab4a25b86a,64cb357fbbe96171de70dd4d,,,,,,,decisionTrl,resources/DG.BMP,resources/DB.BMP,Door2,0.414814815,-0.010185185,1,0,0,1.076,optionRight,20,7690,4,7,0,7,0,1,,,,,,,,,,,,,,,,,,,,,,,,,,,,,,,,,,,,,,,
,,,,,,,,2023-08-03_06h45.36.521,HF_wild_card,2022.2.4,Linux x86_64,61.42506143,605e9cc770aa6d1947d02bfa,64b543b0a84ad6ab4a25b86a,64cb357fbbe96171de70dd4d,,,,,,,decisionTrl,resources/DP.BMP,resources/DBN.BMP,Door4,0.402777778,-0.012037037,1,0,0,1.703,optionRight,80,7770,4,8,0,8,0,1,,,,,,,,,,,,,,,,,,,,,,,,,,,,,,,,,,,,,,,
,,,,,,,,2023-08-03_06h45.36.521,HF_wild_card,2022.2.4,Linux x86_64,61.42506143,605e9cc770aa6d1947d02bfa,64b543b0a84ad6ab4a25b86a,64cb357fbbe96171de70dd4d,,,,,,,decisionTrl,resources/DY.BMP,resources/DB.BMP,Door1,-0.349074074,-0.018518519,1,0,0,0.847,optionLeft,30,7800,4,9,0,9,0,1,,,,,,,,,,,,,,,,,,,,,,,,,,,,,,,,,,,,,,,
,,,,,,,,2023-08-03_06h45.36.521,HF_wild_card,2022.2.4,Linux x86_64,61.42506143,605e9cc770aa6d1947d02bfa,64b543b0a84ad6ab4a25b86a,64cb357fbbe96171de70dd4d,,,,,,,ctch,resources/DY.BMP,resources/DBN.BMP,Door4,0.301851852,-0.012037037,1,0,0,0.711,optionRight,60,7860,4,10,0,10,0,1,,,,,,,,,,,,,,,,,,,,,,,,,,,,,,,,,,,,,,,
,,,,,,,,2023-08-03_06h45.36.521,HF_wild_card,2022.2.4,Linux x86_64,61.42506143,605e9cc770aa6d1947d02bfa,64b543b0a84ad6ab4a25b86a,64cb357fbbe96171de70dd4d,,,,,,,sngl,resources/DG.BMP,resources/Empty.png,WildCard_NonEx,-0.336111111,-0.016666667,1,0,0,0.735,optionLeft,55,7915,4,11,0,11,0,1,,,,,,,,,,,,,,,,,,,,,,,,,,,,,,,,,,,,,,,
,,,,,,,,2023-08-03_06h45.36.521,HF_wild_card,2022.2.4,Linux x86_64,61.42506143,605e9cc770aa6d1947d02bfa,64b543b0a84ad6ab4a25b86a,64cb357fbbe96171de70dd4d,,,,,,,decisionTrl,resources/DY.BMP,resources/DB.BMP,Door2,0.213888889,-0.030555556,1,0,0,1.768,optionRight,40,7955,4,12,0,12,0,1,,,,,,,,,,,,,,,,,,,,,,,,,,,,,,,,,,,,,,,
,,,,,,,,2023-08-03_06h45.36.521,HF_wild_card,2022.2.4,Linux x86_64,61.42506143,605e9cc770aa6d1947d02bfa,64b543b0a84ad6ab4a25b86a,64cb357fbbe96171de70dd4d,,,,,,,decisionTrl,resources/DP.BMP,resources/DBN.BMP,Door4,0.355555556,0.009259259,1,0,0,0.829,optionRight,60,8015,4,13,0,13,0,1,,,,,,,,,,,,,,,,,,,,,,,,,,,,,,,,,,,,,,,
,,,,,,,,2023-08-03_06h45.36.521,HF_wild_card,2022.2.4,Linux x86_64,61.42506143,605e9cc770aa6d1947d02bfa,64b543b0a84ad6ab4a25b86a,64cb357fbbe96171de70dd4d,,,,,,,decisionTrl,resources/DBN.BMP,resources/DP.BMP,Door4,-0.305555556,-0.064814815,1,0,0,1.403,optionLeft,80,8095,4,14,0,14,0,1,,,,,,,,,,,,,,,,,,,,,,,,,,,,,,,,,,,,,,,
,,,,,,,,2023-08-03_06h45.36.521,HF_wild_card,2022.2.4,Linux x86_64,61.42506143,605e9cc770aa6d1947d02bfa,64b543b0a84ad6ab4a25b86a,64cb357fbbe96171de70dd4d,,,,,,,sngl,resources/Empty.png,resources/DY.BMP,Door1,0.275,0.000925926,1,0,0,0.665,optionRight,30,8125,4,15,0,15,0,1,,,,,,,,,,,,,,,,,,,,,,,,,,,,,,,,,,,,,,,
,,,,,,,,2023-08-03_06h45.36.521,HF_wild_card,2022.2.4,Linux x86_64,61.42506143,605e9cc770aa6d1947d02bfa,64b543b0a84ad6ab4a25b86a,64cb357fbbe96171de70dd4d,,,,,,,ctch,resources/DP.BMP,resources/DB.BMP,Door3,-0.376851852,-0.024074074,1,0,0,1.305,optionLeft,70,8195,4,16,0,16,0,1,,,,,,,,,,,,,,,,,,,,,,,,,,,,,,,,,,,,,,,
,,,,,,,,2023-08-03_06h45.36.521,HF_wild_card,2022.2.4,Linux x86_64,61.42506143,605e9cc770aa6d1947d02bfa,64b543b0a84ad6ab4a25b86a,64cb357fbbe96171de70dd4d,,,,,,,decisionTrl,resources/DY.BMP,resources/DB.BMP,Door2,0.219444444,-0.064814815,1,0,0,1.24,optionRight,40,8235,4,17,0,17,0,1,,,,,,,,,,,,,,,,,,,,,,,,,,,,,,,,,,,,,,,
,,,,,,,,2023-08-03_06h45.36.521,HF_wild_card,2022.2.4,Linux x86_64,61.42506143,605e9cc770aa6d1947d02bfa,64b543b0a84ad6ab4a25b86a,64cb357fbbe96171de70dd4d,,,,,,,decisionTrl,resources/DB.BMP,resources/DG.BMP,WildCard_NonEx,0.282407407,-0.063888889,1,0,0,1.02,optionRight,45,8280,4,18,0,18,0,1,,,,,,,,,,,,,,,,,,,,,,,,,,,,,,,,,,,,,,,
,,,,,,,,2023-08-03_06h45.36.521,HF_wild_card,2022.2.4,Linux x86_64,61.42506143,605e9cc770aa6d1947d02bfa,64b543b0a84ad6ab4a25b86a,64cb357fbbe96171de70dd4d,,,,,,,ctch,resources/DB.BMP,resources/DP.BMP,Door3,0.237037037,-0.066666667,1,0,0,1.267,optionRight,70,8350,4,19,0,19,0,1,,,,,,,,,,,,,,,,,,,,,,,,,,,,,,,,,,,,,,,
,,,,,,,,2023-08-03_06h45.36.521,HF_wild_card,2022.2.4,Linux x86_64,61.42506143,605e9cc770aa6d1947d02bfa,64b543b0a84ad6ab4a25b86a,64cb357fbbe96171de70dd4d,,,,,,,sngl,resources/DG.BMP,resources/Empty.png,WildCard_NonEx,-0.25,-0.012037037,1,0,0,0.71,optionLeft,45,8395,4,20,0,20,0,1,,,,,,,,,,,,,,,,,,,,,,,,,,,,,,,,,,,,,,,
,,,,,,,,2023-08-03_06h45.36.521,HF_wild_card,2022.2.4,Linux x86_64,61.42506143,605e9cc770aa6d1947d02bfa,64b543b0a84ad6ab4a25b86a,64cb357fbbe96171de70dd4d,,,,,,,decisionTrl,resources/DBN.BMP,resources/DG.BMP,Door4,-0.348148148,-0.009259259,1,0,0,1.011,optionLeft,80,8475,4,21,0,21,0,1,,,,,,,,,,,,,,,,,,,,,,,,,,,,,,,,,,,,,,,
,,,,,,,,2023-08-03_06h45.36.521,HF_wild_card,2022.2.4,Linux x86_64,61.42506143,605e9cc770aa6d1947d02bfa,64b543b0a84ad6ab4a25b86a,64cb357fbbe96171de70dd4d,,,,,,,decisionTrl,resources/DP.BMP,resources/DG.BMP,WildCard_NonEx,0.344444444,-0.032407407,1,0,0,1.287,optionRight,45,8520,4,22,0,22,0,1,,,,,,,,,,,,,,,,,,,,,,,,,,,,,,,,,,,,,,,
,,,,,,,,2023-08-03_06h45.36.521,HF_wild_card,2022.2.4,Linux x86_64,61.42506143,605e9cc770aa6d1947d02bfa,64b543b0a84ad6ab4a25b86a,64cb357fbbe96171de70dd4d,,,,,,,decisionTrl,resources/DBN.BMP,resources/DP.BMP,Door3,0.311111111,-0.028703704,1,0,0,0.714,optionRight,70,8590,4,23,0,23,0,1,,,,,,,,,,,,,,,,,,,,,,,,,,,,,,,,,,,,,,,
,,,,,,,,2023-08-03_06h45.36.521,HF_wild_card,2022.2.4,Linux x86_64,61.42506143,605e9cc770aa6d1947d02bfa,64b543b0a84ad6ab4a25b86a,64cb357fbbe96171de70dd4d,,,,,,,sngl,resources/Empty.png,resources/DG.BMP,WildCard_NonEx,0.361111111,-0.032407407,1,0,0,0.679,optionRight,45,8635,4,24,0,24,0,1,,,,,,,,,,,,,,,,,,,,,,,,,,,,,,,,,,,,,,,
,,,,,,,,2023-08-03_06h45.36.521,HF_wild_card,2022.2.4,Linux x86_64,61.42506143,605e9cc770aa6d1947d02bfa,64b543b0a84ad6ab4a25b86a,64cb357fbbe96171de70dd4d,,,,,,,sngl,resources/Empty.png,resources/DBN.BMP,Door4,0.399074074,-0.016666667,1,0,0,0.684,optionRight,80,8715,4,25,0,25,0,1,,,,,,,,,,,,,,,,,,,,,,,,,,,,,,,,,,,,,,,
,,,,,,,,2023-08-03_06h45.36.521,HF_wild_card,2022.2.4,Linux x86_64,61.42506143,605e9cc770aa6d1947d02bfa,64b543b0a84ad6ab4a25b86a,64cb357fbbe96171de70dd4d,,,,,,,decisionTrl,resources/DB.BMP,resources/DY.BMP,Door2,-0.182407407,-0.016666667,1,0,0,1.58,optionLeft,20,8735,4,26,0,26,0,1,,,,,,,,,,,,,,,,,,,,,,,,,,,,,,,,,,,,,,,
,,,,,,,,2023-08-03_06h45.36.521,HF_wild_card,2022.2.4,Linux x86_64,61.42506143,605e9cc770aa6d1947d02bfa,64b543b0a84ad6ab4a25b86a,64cb357fbbe96171de70dd4d,,,,,,,decisionTrl,resources/DB.BMP,resources/DY.BMP,Door1,0.323148148,-0.012962963,1,0,0,1.348,optionRight,30,8765,4,27,0,27,0,1,,,,,,,,,,,,,,,,,,,,,,,,,,,,,,,,,,,,,,,
,,,,,,,,2023-08-03_06h45.36.521,HF_wild_card,2022.2.4,Linux x86_64,61.42506143,605e9cc770aa6d1947d02bfa,64b543b0a84ad6ab4a25b86a,64cb357fbbe96171de70dd4d,,,,,,,ctch,resources/DBN.BMP,resources/DY.BMP,Door4,-0.316666667,-0.023148148,1,0,0,1.111,optionLeft,60,8825,4,28,0,28,0,1,,,,,,,,,,,,,,,,,,,,,,,,,,,,,,,,,,,,,,,
,,,,,,,,2023-08-03_06h45.36.521,HF_wild_card,2022.2.4,Linux x86_64,61.42506143,605e9cc770aa6d1947d02bfa,64b543b0a84ad6ab4a25b86a,64cb357fbbe96171de70dd4d,,,,,,,decisionTrl,resources/DG.BMP,resources/DBN.BMP,Door4,0.334259259,0.025925926,1,0,0,1.143,optionRight,80,8905,4,29,0,29,0,1,,,,,,,,,,,,,,,,,,,,,,,,,,,,,,,,,,,,,,,
,,,,,,,,2023-08-03_06h45.36.521,HF_wild_card,2022.2.4,Linux x86_64,61.42506143,605e9cc770aa6d1947d02bfa,64b543b0a84ad6ab4a25b86a,64cb357fbbe96171de70dd4d,,,,,,,decisionTrl,resources/DY.BMP,resources/DB.BMP,Door2,0.393518519,0.009259259,1,0,0,1.504,optionRight,20,8925,4,30,0,30,0,1,,,,,,,,,,,,,,,,,,,,,,,,,,,,,,,,,,,,,,,
,,,,,,,,2023-08-03_06h45.36.521,HF_wild_card,2022.2.4,Linux x86_64,61.42506143,605e9cc770aa6d1947d02bfa,64b543b0a84ad6ab4a25b86a,64cb357fbbe96171de70dd4d,,,,,,,sngl,resources/DY.BMP,resources/Empty.png,Door1,-0.250925926,-0.033333333,1,0,0,0.709,optionLeft,30,8955,4,31,0,31,0,1,,,,,,,,,,,,,,,,,,,,,,,,,,,,,,,,,,,,,,,
,,,,,,,,2023-08-03_06h45.36.521,HF_wild_card,2022.2.4,Linux x86_64,61.42506143,605e9cc770aa6d1947d02bfa,64b543b0a84ad6ab4a25b86a,64cb357fbbe96171de70dd4d,,,,,,,decisionTrl,resources/DY.BMP,resources/DG.BMP,WildCard_NonEx,0.348148148,-0.036111111,1,0,0,0.864,optionRight,45,9000,4,32,0,32,0,1,,,,,,,,,,,,,,,,,,,,,,,,,,,,,,,,,,,,,,,
,,,,,,,,2023-08-03_06h45.36.521,HF_wild_card,2022.2.4,Linux x86_64,61.42506143,605e9cc770aa6d1947d02bfa,64b543b0a84ad6ab4a25b86a,64cb357fbbe96171de70dd4d,,,,,,,decisionTrl,resources/DG.BMP,resources/DP.BMP,Door3,0.35462963,-0.007407407,1,0,0,0.924,optionRight,70,9070,4,33,0,33,0,1,,,,,,,,,,,,,,,,,,,,,,,,,,,,,,,,,,,,,,,
,,,,,,,,2023-08-03_06h45.36.521,HF_wild_card,2022.2.4,Linux x86_64,61.42506143,605e9cc770aa6d1947d02bfa,64b543b0a84ad6ab4a25b86a,64cb357fbbe96171de70dd4d,,,,,,,sngl,resources/DB.BMP,resources/Empty.png,Door2,-0.287962963,-0.051851852,1,0,0,0.711,optionLeft,20,9090,4,34,0,34,0,1,,,,,,,,,,,,,,,,,,,,,,,,,,,,,,,,,,,,,,,
,,,,,,,,2023-08-03_06h45.36.521,HF_wild_card,2022.2.4,Linux x86_64,61.42506143,605e9cc770aa6d1947d02bfa,64b543b0a84ad6ab4a25b86a,64cb357fbbe96171de70dd4d,,,,,,,ctch,resources/DBN.BMP,resources/DY.BMP,Door4,-0.316666667,-0.025,1,0,0,1.244,optionLeft,80,9170,4,35,0,35,0,1,,,,,,,,,,,,,,,,,,,,,,,,,,,,,,,,,,,,,,,
,,,,,,,,2023-08-03_06h45.36.521,HF_wild_card,2022.2.4,Linux x86_64,61.42506143,605e9cc770aa6d1947d02bfa,64b543b0a84ad6ab4a25b86a,64cb357fbbe96171de70dd4d,,,,,,,ctch,resources/DP.BMP,resources/DB.BMP,Door3,-0.349074074,-0.025925926,1,0,0,0.919,optionLeft,70,9240,4,36,0,36,0,1,,,,,,,,,,,,,,,,,,,,,,,,,,,,,,,,,,,,,,,
,,,,,,,,2023-08-03_06h45.36.521,HF_wild_card,2022.2.4,Linux x86_64,61.42506143,605e9cc770aa6d1947d02bfa,64b543b0a84ad6ab4a25b86a,64cb357fbbe96171de70dd4d,,,,,,,decisionTrl,resources/DP.BMP,resources/DBN.BMP,Door4,0.294444444,0.008333333,1,0,0,0.889,optionRight,60,9300,4,37,0,37,0,1,,,,,,,,,,,,,,,,,,,,,,,,,,,,,,,,,,,,,,,
,,,,,,,,2023-08-03_06h45.36.521,HF_wild_card,2022.2.4,Linux x86_64,61.42506143,605e9cc770aa6d1947d02bfa,64b543b0a84ad6ab4a25b86a,64cb357fbbe96171de70dd4d,,,,,,,sngl,resources/Empty.png,resources/DB.BMP,Door2,0.267592593,-0.001851852,1,0,0,0.704,optionRight,40,9340,4,38,0,38,0,1,,,,,,,,,,,,,,,,,,,,,,,,,,,,,,,,,,,,,,,
,,,,,,,,2023-08-03_06h45.36.521,HF_wild_card,2022.2.4,Linux x86_64,61.42506143,605e9cc770aa6d1947d02bfa,64b543b0a84ad6ab4a25b86a,64cb357fbbe96171de70dd4d,,,,,,,sngl,resources/Empty.png,resources/DP.BMP,Door3,0.280555556,-0.025,1,0,0,0.72,optionRight,70,9410,4,39,0,39,0,1,,,,,,,,,,,,,,,,,,,,,,,,,,,,,,,,,,,,,,,
,,,,,,,,2023-08-03_06h45.36.521,HF_wild_card,2022.2.4,Linux x86_64,61.42506143,605e9cc770aa6d1947d02bfa,64b543b0a84ad6ab4a25b86a,64cb357fbbe96171de70dd4d,,,,,,,decisionTrl,resources/DB.BMP,resources/DY.BMP,Door2,-0.230555556,-0.052777778,1,0,0,2.11,optionLeft,20,9430,4,40,0,40,0,1,,,,,,,,,,,,,,,,,,,,,,,,,,,,,,,,,,,,,,,
,,,,,,,,2023-08-03_06h45.36.521,HF_wild_card,2022.2.4,Linux x86_64,61.42506143,605e9cc770aa6d1947d02bfa,64b543b0a84ad6ab4a25b86a,64cb357fbbe96171de70dd4d,,,,,,,ctch,resources/DY.BMP,resources/DBN.BMP,Door4,0.397222222,-0.000925926,1,0,0,1.134,optionRight,80,9510,4,41,0,41,0,1,,,,,,,,,,,,,,,,,,,,,,,,,,,,,,,,,,,,,,,
,,,,,,,,2023-08-03_06h45.36.521,HF_wild_card,2022.2.4,Linux x86_64,61.42506143,605e9cc770aa6d1947d02bfa,64b543b0a84ad6ab4a25b86a,64cb357fbbe96171de70dd4d,,,,,,,ctch,resources/DB.BMP,resources/DP.BMP,Door3,0.338888889,-0.017592593,1,0,0,0.873,optionRight,70,9580,4,42,0,42,0,1,,,,,,,,,,,,,,,,,,,,,,,,,,,,,,,,,,,,,,,
,,,,,,,,2023-08-03_06h45.36.521,HF_wild_card,2022.2.4,Linux x86_64,61.42506143,605e9cc770aa6d1947d02bfa,64b543b0a84ad6ab4a25b86a,64cb357fbbe96171de70dd4d,,,,,,,decisionTrl,resources/DBN.BMP,resources/DP.BMP,Door4,-0.363888889,-0.091666667,1,0,0,0.997,optionLeft,60,9640,4,43,0,43,0,1,,,,,,,,,,,,,,,,,,,,,,,,,,,,,,,,,,,,,,,
,,,,,,,,2023-08-03_06h45.36.521,HF_wild_card,2022.2.4,Linux x86_64,61.42506143,605e9cc770aa6d1947d02bfa,64b543b0a84ad6ab4a25b86a,64cb357fbbe96171de70dd4d,,,,,,,,,,,,,,,,,,,,,,,,,,3,0,3,0,1,,,,,,,,,,,,,,,,,,,,,,,,,,,,,,,,,,
,,,,,,,,2023-08-03_06h45.36.521,HF_wild_card,2022.2.4,Linux x86_64,61.42506143,605e9cc770aa6d1947d02bfa,64b543b0a84ad6ab4a25b86a,64cb357fbbe96171de70dd4d,,,,,,,ctch,resources/DBN.BMP,resources/DY.BMP,Door4,-0.287962963,-0.062962963,1,0,0,0.895,optionLeft,60,9700,5,0,0,0,0,1,,,,,,,,,,,,,,,,,,,,,,,,,,,,,,,,,,,,,,,
,,,,,,,,2023-08-03_06h45.36.521,HF_wild_card,2022.2.4,Linux x86_64,61.42506143,605e9cc770aa6d1947d02bfa,64b543b0a84ad6ab4a25b86a,64cb357fbbe96171de70dd4d,,,,,,,sngl,resources/Empty.png,resources/DBN.BMP,Door4,0.272222222,-0.013888889,1,0,0,0.674,optionRight,60,9760,5,1,0,1,0,1,,,,,,,,,,,,,,,,,,,,,,,,,,,,,,,,,,,,,,,
,,,,,,,,2023-08-03_06h45.36.521,HF_wild_card,2022.2.4,Linux x86_64,61.42506143,605e9cc770aa6d1947d02bfa,64b543b0a84ad6ab4a25b86a,64cb357fbbe96171de70dd4d,,,,,,,decisionTrl,resources/DBN.BMP,resources/DP.BMP,Door4,-0.326851852,-0.014814815,1,0,0,0.823,optionLeft,60,9820,5,2,0,2,0,1,,,,,,,,,,,,,,,,,,,,,,,,,,,,,,,,,,,,,,,
,,,,,,,,2023-08-03_06h45.36.521,HF_wild_card,2022.2.4,Linux x86_64,61.42506143,605e9cc770aa6d1947d02bfa,64b543b0a84ad6ab4a25b86a,64cb357fbbe96171de70dd4d,,,,,,,decisionTrl,resources/DP.BMP,resources/DBN.BMP,Door3,-0.206481481,-0.017592593,1,0,0,0.705,optionLeft,70,9890,5,3,0,3,0,1,,,,,,,,,,,,,,,,,,,,,,,,,,,,,,,,,,,,,,,
,,,,,,,,2023-08-03_06h45.36.521,HF_wild_card,2022.2.4,Linux x86_64,61.42506143,605e9cc770aa6d1947d02bfa,64b543b0a84ad6ab4a25b86a,64cb357fbbe96171de70dd4d,,,,,,,ctch,resources/DBN.BMP,resources/DY.BMP,Door4,-0.228703704,-0.019444444,1,0,0,0.701,optionLeft,60,9950,5,4,0,4,0,1,,,,,,,,,,,,,,,,,,,,,,,,,,,,,,,,,,,,,,,
,,,,,,,,2023-08-03_06h45.36.521,HF_wild_card,2022.2.4,Linux x86_64,61.42506143,605e9cc770aa6d1947d02bfa,64b543b0a84ad6ab4a25b86a,64cb357fbbe96171de70dd4d,,,,,,,decisionTrl,resources/DP.BMP,resources/DBN.BMP,Door4,0.262037037,-0.043518519,1,0,0,0.985,optionRight,60,10010,5,5,0,5,0,1,,,,,,,,,,,,,,,,,,,,,,,,,,,,,,,,,,,,,,,
,,,,,,,,2023-08-03_06h45.36.521,HF_wild_card,2022.2.4,Linux x86_64,61.42506143,605e9cc770aa6d1947d02bfa,64b543b0a84ad6ab4a25b86a,64cb357fbbe96171de70dd4d,,,,,,,decisionTrl,resources/DY.BMP,resources/DB.BMP,Door2,0.365740741,-0.047222222,1,0,0,1.165,optionRight,40,10050,5,6,0,6,0,1,,,,,,,,,,,,,,,,,,,,,,,,,,,,,,,,,,,,,,,
,,,,,,,,2023-08-03_06h45.36.521,HF_wild_card,2022.2.4,Linux x86_64,61.42506143,605e9cc770aa6d1947d02bfa,64b543b0a84ad6ab4a25b86a,64cb357fbbe96171de70dd4d,,,,,,,sngl,resources/DBN.BMP,resources/Empty.png,Door4,-0.186111111,-0.001851852,1,0,0,0.849,optionLeft,80,10130,5,7,0,7,0,1,,,,,,,,,,,,,,,,,,,,,,,,,,,,,,,,,,,,,,,
,,,,,,,,2023-08-03_06h45.36.521,HF_wild_card,2022.2.4,Linux x86_64,61.42506143,605e9cc770aa6d1947d02bfa,64b543b0a84ad6ab4a25b86a,64cb357fbbe96171de70dd4d,,,,,,,sngl,resources/Empty.png,resources/DB.BMP,Door2,0.342592593,0.000925926,1,0,0,0.687,optionRight,20,10150,5,8,0,8,0,1,,,,,,,,,,,,,,,,,,,,,,,,,,,,,,,,,,,,,,,
,,,,,,,,2023-08-03_06h45.36.521,HF_wild_card,2022.2.4,Linux x86_64,61.42506143,605e9cc770aa6d1947d02bfa,64b543b0a84ad6ab4a25b86a,64cb357fbbe96171de70dd4d,,,,,,,sngl,resources/DY.BMP,resources/Empty.png,Door1,-0.227777778,-0.038888889,1,0,0,0.652,optionLeft,30,10180,5,9,0,9,0,1,,,,,,,,,,,,,,,,,,,,,,,,,,,,,,,,,,,,,,,
,,,,,,,,2023-08-03_06h45.36.521,HF_wild_card,2022.2.4,Linux x86_64,61.42506143,605e9cc770aa6d1947d02bfa,64b543b0a84ad6ab4a25b86a,64cb357fbbe96171de70dd4d,,,,,,,decisionTrl,resources/DY.BMP,resources/DG.BMP,WildCard_NonEx,0.324074074,-0.02037037,1,0,0,0.843,optionRight,55,10235,5,10,0,10,0,1,,,,,,,,,,,,,,,,,,,,,,,,,,,,,,,,,,,,,,,
,,,,,,,,2023-08-03_06h45.36.521,HF_wild_card,2022.2.4,Linux x86_64,61.42506143,605e9cc770aa6d1947d02bfa,64b543b0a84ad6ab4a25b86a,64cb357fbbe96171de70dd4d,,,,,,,decisionTrl,resources/DB.BMP,resources/DY.BMP,Door1,0.381481481,-0.042592593,1,0,0,1.703,optionRight,30,10265,5,11,0,11,0,1,,,,,,,,,,,,,,,,,,,,,,,,,,,,,,,,,,,,,,,
,,,,,,,,2023-08-03_06h45.36.521,HF_wild_card,2022.2.4,Linux x86_64,61.42506143,605e9cc770aa6d1947d02bfa,64b543b0a84ad6ab4a25b86a,64cb357fbbe96171de70dd4d,,,,,,,decisionTrl,resources/DB.BMP,resources/DY.BMP,Door1,0.366666667,0.012037037,1,0,0,1.362,optionRight,30,10295,5,12,0,12,0,1,,,,,,,,,,,,,,,,,,,,,,,,,,,,,,,,,,,,,,,
,,,,,,,,2023-08-03_06h45.36.521,HF_wild_card,2022.2.4,Linux x86_64,61.42506143,605e9cc770aa6d1947d02bfa,64b543b0a84ad6ab4a25b86a,64cb357fbbe96171de70dd4d,,,,,,,ctch,resources/DY.BMP,resources/DBN.BMP,Door4,0.342592593,-0.023148148,1,0,0,0.889,optionRight,80,10375,5,13,0,13,0,1,,,,,,,,,,,,,,,,,,,,,,,,,,,,,,,,,,,,,,,
,,,,,,,,2023-08-03_06h45.36.521,HF_wild_card,2022.2.4,Linux x86_64,61.42506143,605e9cc770aa6d1947d02bfa,64b543b0a84ad6ab4a25b86a,64cb357fbbe96171de70dd4d,,,,,,,decisionTrl,resources/DY.BMP,resources/DB.BMP,Door2,0.387962963,-0.046296296,1,0,0,1.106,optionRight,40,10415,5,14,0,14,0,1,,,,,,,,,,,,,,,,,,,,,,,,,,,,,,,,,,,,,,,
,,,,,,,,2023-08-03_06h45.36.521,HF_wild_card,2022.2.4,Linux x86_64,61.42506143,605e9cc770aa6d1947d02bfa,64b543b0a84ad6ab4a25b86a,64cb357fbbe96171de70dd4d,,,,,,,decisionTrl,resources/DBN.BMP,resources/DP.BMP,Door3,0.397222222,-0.003703704,1,0,0,6.582,optionRight,70,10485,5,15,0,15,0,1,,,,,,,,,,,,,,,,,,,,,,,,,,,,,,,,,,,,,,,
,,,,,,,,2023-08-03_06h45.36.521,HF_wild_card,2022.2.4,Linux x86_64,61.42506143,605e9cc770aa6d1947d02bfa,64b543b0a84ad6ab4a25b86a,64cb357fbbe96171de70dd4d,,,,,,,sngl,resources/DG.BMP,resources/Empty.png,WildCard_NonEx,-0.216666667,-0.014814815,1,0,0,0.605,optionLeft,55,10540,5,16,0,16,0,1,,,,,,,,,,,,,,,,,,,,,,,,,,,,,,,,,,,,,,,
,,,,,,,,2023-08-03_06h45.36.521,HF_wild_card,2022.2.4,Linux x86_64,61.42506143,605e9cc770aa6d1947d02bfa,64b543b0a84ad6ab4a25b86a,64cb357fbbe96171de70dd4d,,,,,,,sngl,resources/Empty.png,resources/DY.BMP,Door1,0.346296296,0.012962963,1,0,0,0.607,optionRight,30,10570,5,17,0,17,0,1,,,,,,,,,,,,,,,,,,,,,,,,,,,,,,,,,,,,,,,
,,,,,,,,2023-08-03_06h45.36.521,HF_wild_card,2022.2.4,Linux x86_64,61.42506143,605e9cc770aa6d1947d02bfa,64b543b0a84ad6ab4a25b86a,64cb357fbbe96171de70dd4d,,,,,,,decisionTrl,resources/DBN.BMP,resources/DG.BMP,Door4,-0.303703704,-0.00462963,1,0,0,0.804,optionLeft,80,10650,5,18,0,18,0,1,,,,,,,,,,,,,,,,,,,,,,,,,,,,,,,,,,,,,,,
,,,,,,,,2023-08-03_06h45.36.521,HF_wild_card,2022.2.4,Linux x86_64,61.42506143,605e9cc770aa6d1947d02bfa,64b543b0a84ad6ab4a25b86a,64cb357fbbe96171de70dd4d,,,,,,,sngl,resources/DP.BMP,resources/Empty.png,Door3,-0.169444444,-0.005555556,1,0,0,0.687,optionLeft,70,10720,5,19,0,19,0,1,,,,,,,,,,,,,,,,,,,,,,,,,,,,,,,,,,,,,,,
,,,,,,,,2023-08-03_06h45.36.521,HF_wild_card,2022.2.4,Linux x86_64,61.42506143,605e9cc770aa6d1947d02bfa,64b543b0a84ad6ab4a25b86a,64cb357fbbe96171de70dd4d,,,,,,,decisionTrl,resources/DB.BMP,resources/DY.BMP,Door1,0.294444444,-0.042592593,1,0,0,1.143,optionRight,30,10750,5,20,0,20,0,1,,,,,,,,,,,,,,,,,,,,,,,,,,,,,,,,,,,,,,,
,,,,,,,,2023-08-03_06h45.36.521,HF_wild_card,2022.2.4,Linux x86_64,61.42506143,605e9cc770aa6d1947d02bfa,64b543b0a84ad6ab4a25b86a,64cb357fbbe96171de70dd4d,,,,,,,decisionTrl,resources/DB.BMP,resources/DG.BMP,WildCard_NonEx,0.376851852,-0.025925926,1,0,0,1.116,optionRight,45,10795,5,21,0,21,0,1,,,,,,,,,,,,,,,,,,,,,,,,,,,,,,,,,,,,,,,
,,,,,,,,2023-08-03_06h45.36.521,HF_wild_card,2022.2.4,Linux x86_64,61.42506143,605e9cc770aa6d1947d02bfa,64b543b0a84ad6ab4a25b86a,64cb357fbbe96171de70dd4d,,,,,,,sngl,resources/Empty.png,resources/DG.BMP,WildCard_NonEx,0.286111111,-0.011111111,1,0,0,1.135,optionRight,45,10840,5,22,0,22,0,1,,,,,,,,,,,,,,,,,,,,,,,,,,,,,,,,,,,,,,,
,,,,,,,,2023-08-03_06h45.36.521,HF_wild_card,2022.2.4,Linux x86_64,61.42506143,605e9cc770aa6d1947d02bfa,64b543b0a84ad6ab4a25b86a,64cb357fbbe96171de70dd4d,,,,,,,decisionTrl,resources/DBN.BMP,resources/DP.BMP,Door4,-0.281481481,-0.011111111,1,0,0,1.122,optionLeft,60,10900,5,23,0,23,0,1,,,,,,,,,,,,,,,,,,,,,,,,,,,,,,,,,,,,,,,
,,,,,,,,2023-08-03_06h45.36.521,HF_wild_card,2022.2.4,Linux x86_64,61.42506143,605e9cc770aa6d1947d02bfa,64b543b0a84ad6ab4a25b86a,64cb357fbbe96171de70dd4d,,,,,,,sngl,resources/DB.BMP,resources/Empty.png,Door2,-0.27962963,-0.001851852,1,0,0,0.665,optionLeft,40,10940,5,24,0,24,0,1,,,,,,,,,,,,,,,,,,,,,,,,,,,,,,,,,,,,,,,
,,,,,,,,2023-08-03_06h45.36.521,HF_wild_card,2022.2.4,Linux x86_64,61.42506143,605e9cc770aa6d1947d02bfa,64b543b0a84ad6ab4a25b86a,64cb357fbbe96171de70dd4d,,,,,,,ctch,resources/DB.BMP,resources/DP.BMP,Door3,0.377777778,0.012962963,1,0,0,0.693,optionRight,70,11010,5,25,0,25,0,1,,,,,,,,,,,,,,,,,,,,,,,,,,,,,,,,,,,,,,,
,,,,,,,,2023-08-03_06h45.36.521,HF_wild_card,2022.2.4,Linux x86_64,61.42506143,605e9cc770aa6d1947d02bfa,64b543b0a84ad6ab4a25b86a,64cb357fbbe96171de70dd4d,,,,,,,decisionTrl,resources/DG.BMP,resources/DP.BMP,Door3,0.314814815,-0.036111111,1,0,0,0.785,optionRight,70,11080,5,26,0,26,0,1,,,,,,,,,,,,,,,,,,,,,,,,,,,,,,,,,,,,,,,
,,,,,,,,2023-08-03_06h45.36.521,HF_wild_card,2022.2.4,Linux x86_64,61.42506143,605e9cc770aa6d1947d02bfa,64b543b0a84ad6ab4a25b86a,64cb357fbbe96171de70dd4d,,,,,,,ctch,resources/DB.BMP,resources/DP.BMP,Door3,0.334259259,-0.010185185,1,0,0,0.733,optionRight,70,11150,5,27,0,27,0,1,,,,,,,,,,,,,,,,,,,,,,,,,,,,,,,,,,,,,,,
,,,,,,,,2023-08-03_06h45.36.521,HF_wild_card,2022.2.4,Linux x86_64,61.42506143,605e9cc770aa6d1947d02bfa,64b543b0a84ad6ab4a25b86a,64cb357fbbe96171de70dd4d,,,,,,,sngl,resources/DG.BMP,resources/Empty.png,WildCard_NonEx,-0.277777778,-0.006481481,1,0,0,0.695,optionLeft,45,11195,5,28,0,28,0,1,,,,,,,,,,,,,,,,,,,,,,,,,,,,,,,,,,,,,,,
,,,,,,,,2023-08-03_06h45.36.521,HF_wild_card,2022.2.4,Linux x86_64,61.42506143,605e9cc770aa6d1947d02bfa,64b543b0a84ad6ab4a25b86a,64cb357fbbe96171de70dd4d,,,,,,,decisionTrl,resources/DP.BMP,resources/DBN.BMP,Door4,0.366666667,0.006481481,1,0,0,0.749,optionRight,80,11275,5,29,0,29,0,1,,,,,,,,,,,,,,,,,,,,,,,,,,,,,,,,,,,,,,,
,,,,,,,,2023-08-03_06h45.36.521,HF_wild_card,2022.2.4,Linux x86_64,61.42506143,605e9cc770aa6d1947d02bfa,64b543b0a84ad6ab4a25b86a,64cb357fbbe96171de70dd4d,,,,,,,ctch,resources/DY.BMP,resources/DBN.BMP,Door4,0.346296296,-0.00462963,1,0,0,0.751,optionRight,60,11335,5,30,0,30,0,1,,,,,,,,,,,,,,,,,,,,,,,,,,,,,,,,,,,,,,,
,,,,,,,,2023-08-03_06h45.36.521,HF_wild_card,2022.2.4,Linux x86_64,61.42506143,605e9cc770aa6d1947d02bfa,64b543b0a84ad6ab4a25b86a,64cb357fbbe96171de70dd4d,,,,,,,decisionTrl,resources/DBN.BMP,resources/DP.BMP,Door4,-0.364814815,-0.081481481,1,0,0,1.085,optionLeft,60,11395,5,31,0,31,0,1,,,,,,,,,,,,,,,,,,,,,,,,,,,,,,,,,,,,,,,
,,,,,,,,2023-08-03_06h45.36.521,HF_wild_card,2022.2.4,Linux x86_64,61.42506143,605e9cc770aa6d1947d02bfa,64b543b0a84ad6ab4a25b86a,64cb357fbbe96171de70dd4d,,,,,,,ctch,resources/DP.BMP,resources/DB.BMP,Door3,-0.305555556,-0.089814815,1,0,0,1.6,optionLeft,70,11465,5,32,0,32,0,1,,,,,,,,,,,,,,,,,,,,,,,,,,,,,,,,,,,,,,,
,,,,,,,,2023-08-03_06h45.36.521,HF_wild_card,2022.2.4,Linux x86_64,61.42506143,605e9cc770aa6d1947d02bfa,64b543b0a84ad6ab4a25b86a,64cb357fbbe96171de70dd4d,,,,,,,ctch,resources/DP.BMP,resources/DB.BMP,Door3,-0.312962963,-0.036111111,1,0,0,0.853,optionLeft,70,11535,5,33,0,33,0,1,,,,,,,,,,,,,,,,,,,,,,,,,,,,,,,,,,,,,,,
,,,,,,,,2023-08-03_06h45.36.521,HF_wild_card,2022.2.4,Linux x86_64,61.42506143,605e9cc770aa6d1947d02bfa,64b543b0a84ad6ab4a25b86a,64cb357fbbe96171de70dd4d,,,,,,,decisionTrl,resources/DB.BMP,resources/DY.BMP,Door2,-0.306481481,-0.062037037,1,0,0,1.149,optionLeft,40,11575,5,34,0,34,0,1,,,,,,,,,,,,,,,,,,,,,,,,,,,,,,,,,,,,,,,
,,,,,,,,2023-08-03_06h45.36.521,HF_wild_card,2022.2.4,Linux x86_64,61.42506143,605e9cc770aa6d1947d02bfa,64b543b0a84ad6ab4a25b86a,64cb357fbbe96171de70dd4d,,,,,,,decisionTrl,resources/DG.BMP,resources/DY.BMP,WildCard_NonEx,-0.283333333,-0.078703704,1,0,0,1.615,optionLeft,55,11630,5,35,0,35,0,1,,,,,,,,,,,,,,,,,,,,,,,,,,,,,,,,,,,,,,,
,,,,,,,,2023-08-03_06h45.36.521,HF_wild_card,2022.2.4,Linux x86_64,61.42506143,605e9cc770aa6d1947d02bfa,64b543b0a84ad6ab4a25b86a,64cb357fbbe96171de70dd4d,,,,,,,decisionTrl,resources/DY.BMP,resources/DB.BMP,Door1,-0.222222222,-0.085185185,1,0,0,1.672,optionLeft,30,11660,5,36,0,36,0,1,,,,,,,,,,,,,,,,,,,,,,,,,,,,,,,,,,,,,,,
,,,,,,,,2023-08-03_06h45.36.521,HF_wild_card,2022.2.4,Linux x86_64,61.42506143,605e9cc770aa6d1947d02bfa,64b543b0a84ad6ab4a25b86a,64cb357fbbe96171de70dd4d,,,,,,,sngl,resources/Empty.png,resources/DG.BMP,WildCard_NonEx,0.363888889,-0.024074074,1,0,0,0.678,optionRight,55,11715,5,37,0,37,0,1,,,,,,,,,,,,,,,,,,,,,,,,,,,,,,,,,,,,,,,
,,,,,,,,2023-08-03_06h45.36.521,HF_wild_card,2022.2.4,Linux x86_64,61.42506143,605e9cc770aa6d1947d02bfa,64b543b0a84ad6ab4a25b86a,64cb357fbbe96171de70dd4d,,,,,,,sngl,resources/Empty.png,resources/DP.BMP,Door3,0.400925926,-0.031481481,1,0,0,0.724,optionRight,70,11785,5,38,0,38,0,1,,,,,,,,,,,,,,,,,,,,,,,,,,,,,,,,,,,,,,,
,,,,,,,,2023-08-03_06h45.36.521,HF_wild_card,2022.2.4,Linux x86_64,61.42506143,605e9cc770aa6d1947d02bfa,64b543b0a84ad6ab4a25b86a,64cb357fbbe96171de70dd4d,,,,,,,decisionTrl,resources/DG.BMP,resources/DBN.BMP,Door4,0.335185185,-0.006481481,1,0,0,0.908,optionRight,80,11865,5,39,0,39,0,1,,,,,,,,,,,,,,,,,,,,,,,,,,,,,,,,,,,,,,,
,,,,,,,,2023-08-03_06h45.36.521,HF_wild_card,2022.2.4,Linux x86_64,61.42506143,605e9cc770aa6d1947d02bfa,64b543b0a84ad6ab4a25b86a,64cb357fbbe96171de70dd4d,,,,,,,decisionTrl,resources/DG.BMP,resources/DB.BMP,WildCard_NonEx,-0.336111111,-0.038888889,1,0,0,1.086,optionLeft,45,11910,5,40,0,40,0,1,,,,,,,,,,,,,,,,,,,,,,,,,,,,,,,,,,,,,,,
,,,,,,,,2023-08-03_06h45.36.521,HF_wild_card,2022.2.4,Linux x86_64,61.42506143,605e9cc770aa6d1947d02bfa,64b543b0a84ad6ab4a25b86a,64cb357fbbe96171de70dd4d,,,,,,,decisionTrl,resources/DP.BMP,resources/DG.BMP,Door3,-0.344444444,-0.057407407,1,0,0,0.905,optionLeft,70,11980,5,41,0,41,0,1,,,,,,,,,,,,,,,,,,,,,,,,,,,,,,,,,,,,,,,
,,,,,,,,2023-08-03_06h45.36.521,HF_wild_card,2022.2.4,Linux x86_64,61.42506143,605e9cc770aa6d1947d02bfa,64b543b0a84ad6ab4a25b86a,64cb357fbbe96171de70dd4d,,,,,,,decisionTrl,resources/DP.BMP,resources/DBN.BMP,Door4,0.391666667,0.018518519,1,0,0,1.043,optionRight,60,12040,5,42,0,42,0,1,,,,,,,,,,,,,,,,,,,,,,,,,,,,,,,,,,,,,,,
,,,,,,,,2023-08-03_06h45.36.521,HF_wild_card,2022.2.4,Linux x86_64,61.42506143,605e9cc770aa6d1947d02bfa,64b543b0a84ad6ab4a25b86a,64cb357fbbe96171de70dd4d,,,,,,,decisionTrl,resources/DY.BMP,resources/DB.BMP,Door2,0.287037037,-0.030555556,1,0,0,1.521,optionRight,40,12080,5,43,0,43,0,1,,,,,,,,,,,,,,,,,,,,,,,,,,,,,,,,,,,,,,,
,,,,,,,,2023-08-03_06h45.36.521,HF_wild_card,2022.2.4,Linux x86_64,61.42506143,605e9cc770aa6d1947d02bfa,64b543b0a84ad6ab4a25b86a,64cb357fbbe96171de70dd4d,,,,,,,,,,,,,,,,,,,,,,,,,,4,0,4,0,1,,,,,,,,,,,,,,,,,,,,,,,,,,,,,,,,,,
,,,,,,,,2023-08-03_06h45.36.521,HF_wild_card,2022.2.4,Linux x86_64,61.42506143,605e9cc770aa6d1947d02bfa,64b543b0a84ad6ab4a25b86a,64cb357fbbe96171de70dd4d,,,,,,,decisionTrl,resources/DG.BMP,resources/DP.BMP,Door3,0.34537037,-0.027777778,1,0,0,1.648,optionRight,70,12150,6,0,0,0,0,1,,,,,,,,,,,,,,,,,,,,,,,,,,,,,,,,,,,,,,,
,,,,,,,,2023-08-03_06h45.36.521,HF_wild_card,2022.2.4,Linux x86_64,61.42506143,605e9cc770aa6d1947d02bfa,64b543b0a84ad6ab4a25b86a,64cb357fbbe96171de70dd4d,,,,,,,decisionTrl,resources/DBN.BMP,resources/DP.BMP,Door3,0.277777778,0.000925926,1,0,0,0.823,optionRight,70,12220,6,1,0,1,0,1,,,,,,,,,,,,,,,,,,,,,,,,,,,,,,,,,,,,,,,
,,,,,,,,2023-08-03_06h45.36.521,HF_wild_card,2022.2.4,Linux x86_64,61.42506143,605e9cc770aa6d1947d02bfa,64b543b0a84ad6ab4a25b86a,64cb357fbbe96171de70dd4d,,,,,,,sngl,resources/DBN.BMP,resources/Empty.png,Door4,-0.371296296,-0.060185185,1,0,0,0.684,optionLeft,60,12280,6,2,0,2,0,1,,,,,,,,,,,,,,,,,,,,,,,,,,,,,,,,,,,,,,,
,,,,,,,,2023-08-03_06h45.36.521,HF_wild_card,2022.2.4,Linux x86_64,61.42506143,605e9cc770aa6d1947d02bfa,64b543b0a84ad6ab4a25b86a,64cb357fbbe96171de70dd4d,,,,,,,sngl,resources/DG.BMP,resources/Empty.png,WildCard_NonEx,-0.297222222,-0.037037037,1,0,0,0.663,optionLeft,45,12325,6,3,0,3,0,1,,,,,,,,,,,,,,,,,,,,,,,,,,,,,,,,,,,,,,,
,,,,,,,,2023-08-03_06h45.36.521,HF_wild_card,2022.2.4,Linux x86_64,61.42506143,605e9cc770aa6d1947d02bfa,64b543b0a84ad6ab4a25b86a,64cb357fbbe96171de70dd4d,,,,,,,decisionTrl,resources/DB.BMP,resources/DY.BMP,Door1,0.389814815,-0.012962963,1,0,0,1.232,optionRight,30,12355,6,4,0,4,0,1,,,,,,,,,,,,,,,,,,,,,,,,,,,,,,,,,,,,,,,
,,,,,,,,2023-08-03_06h45.36.521,HF_wild_card,2022.2.4,Linux x86_64,61.42506143,605e9cc770aa6d1947d02bfa,64b543b0a84ad6ab4a25b86a,64cb357fbbe96171de70dd4d,,,,,,,sngl,resources/DG.BMP,resources/Empty.png,WildCard_NonEx,-0.287037037,-0.017592593,1,0,0,0.9,optionLeft,55,12410,6,5,0,5,0,1,,,,,,,,,,,,,,,,,,,,,,,,,,,,,,,,,,,,,,,
,,,,,,,,2023-08-03_06h45.36.521,HF_wild_card,2022.2.4,Linux x86_64,61.42506143,605e9cc770aa6d1947d02bfa,64b543b0a84ad6ab4a25b86a,64cb357fbbe96171de70dd4d,,,,,,,decisionTrl,resources/DB.BMP,resources/DG.BMP,WildCard_NonEx,0.431481481,-0.028703704,1,0,0,0.822,optionRight,45,12455,6,6,0,6,0,1,,,,,,,,,,,,,,,,,,,,,,,,,,,,,,,,,,,,,,,
,,,,,,,,2023-08-03_06h45.36.521,HF_wild_card,2022.2.4,Linux x86_64,61.42506143,605e9cc770aa6d1947d02bfa,64b543b0a84ad6ab4a25b86a,64cb357fbbe96171de70dd4d,,,,,,,decisionTrl,resources/DB.BMP,resources/DY.BMP,Door1,0.402777778,-0.00462963,1,0,0,1.229,optionRight,30,12485,6,7,0,7,0,1,,,,,,,,,,,,,,,,,,,,,,,,,,,,,,,,,,,,,,,
,,,,,,,,2023-08-03_06h45.36.521,HF_wild_card,2022.2.4,Linux x86_64,61.42506143,605e9cc770aa6d1947d02bfa,64b543b0a84ad6ab4a25b86a,64cb357fbbe96171de70dd4d,,,,,,,sngl,resources/Empty.png,resources/DBN.BMP,Door4,0.355555556,0.018518519,1,0,0,0.626,optionRight,80,12565,6,8,0,8,0,1,,,,,,,,,,,,,,,,,,,,,,,,,,,,,,,,,,,,,,,
,,,,,,,,2023-08-03_06h45.36.521,HF_wild_card,2022.2.4,Linux x86_64,61.42506143,605e9cc770aa6d1947d02bfa,64b543b0a84ad6ab4a25b86a,64cb357fbbe96171de70dd4d,,,,,,,decisionTrl,resources/DY.BMP,resources/DB.BMP,Door2,0.314814815,-0.010185185,1,0,0,1.061,optionRight,20,12585,6,9,0,9,0,1,,,,,,,,,,,,,,,,,,,,,,,,,,,,,,,,,,,,,,,
,,,,,,,,2023-08-03_06h45.36.521,HF_wild_card,2022.2.4,Linux x86_64,61.42506143,605e9cc770aa6d1947d02bfa,64b543b0a84ad6ab4a25b86a,64cb357fbbe96171de70dd4d,,,,,,,decisionTrl,resources/DY.BMP,resources/DG.BMP,Door1,-0.34537037,-0.05,1,0,0,1.301,optionLeft,30,12615,6,10,0,10,0,1,,,,,,,,,,,,,,,,,,,,,,,,,,,,,,,,,,,,,,,
,,,,,,,,2023-08-03_06h45.36.521,HF_wild_card,2022.2.4,Linux x86_64,61.42506143,605e9cc770aa6d1947d02bfa,64b543b0a84ad6ab4a25b86a,64cb357fbbe96171de70dd4d,,,,,,,decisionTrl,resources/DY.BMP,resources/DB.BMP,Door2,0.45462963,-0.011111111,1,0,0,0.969,optionRight,20,12635,6,11,0,11,0,1,,,,,,,,,,,,,,,,,,,,,,,,,,,,,,,,,,,,,,,
,,,,,,,,2023-08-03_06h45.36.521,HF_wild_card,2022.2.4,Linux x86_64,61.42506143,605e9cc770aa6d1947d02bfa,64b543b0a84ad6ab4a25b86a,64cb357fbbe96171de70dd4d,,,,,,,ctch,resources/DB.BMP,resources/DP.BMP,Door3,0.339814815,-0.037962963,1,0,0,0.718,optionRight,70,12705,6,12,0,12,0,1,,,,,,,,,,,,,,,,,,,,,,,,,,,,,,,,,,,,,,,
,,,,,,,,2023-08-03_06h45.36.521,HF_wild_card,2022.2.4,Linux x86_64,61.42506143,605e9cc770aa6d1947d02bfa,64b543b0a84ad6ab4a25b86a,64cb357fbbe96171de70dd4d,,,,,,,ctch,resources/DBN.BMP,resources/DY.BMP,Door4,-0.343518519,-0.062037037,1,0,0,0.794,optionLeft,60,12765,6,13,0,13,0,1,,,,,,,,,,,,,,,,,,,,,,,,,,,,,,,,,,,,,,,
,,,,,,,,2023-08-03_06h45.36.521,HF_wild_card,2022.2.4,Linux x86_64,61.42506143,605e9cc770aa6d1947d02bfa,64b543b0a84ad6ab4a25b86a,64cb357fbbe96171de70dd4d,,,,,,,decisionTrl,resources/DB.BMP,resources/DY.BMP,Door2,-0.386111111,-0.114814815,1,0,0,1.633,optionLeft,20,12785,6,14,0,14,0,1,,,,,,,,,,,,,,,,,,,,,,,,,,,,,,,,,,,,,,,
,,,,,,,,2023-08-03_06h45.36.521,HF_wild_card,2022.2.4,Linux x86_64,61.42506143,605e9cc770aa6d1947d02bfa,64b543b0a84ad6ab4a25b86a,64cb357fbbe96171de70dd4d,,,,,,,decisionTrl,resources/DP.BMP,resources/DG.BMP,Door3,-0.217592593,-0.017592593,1,0,0,0.754,optionLeft,70,12855,6,15,0,15,0,1,,,,,,,,,,,,,,,,,,,,,,,,,,,,,,,,,,,,,,,
,,,,,,,,2023-08-03_06h45.36.521,HF_wild_card,2022.2.4,Linux x86_64,61.42506143,605e9cc770aa6d1947d02bfa,64b543b0a84ad6ab4a25b86a,64cb357fbbe96171de70dd4d,,,,,,,sngl,resources/Empty.png,resources/DG.BMP,WildCard_NonEx,0.351851852,0.011111111,1,0,0,0.739,optionRight,45,12900,6,16,0,16,0,1,,,,,,,,,,,,,,,,,,,,,,,,,,,,,,,,,,,,,,,
,,,,,,,,2023-08-03_06h45.36.521,HF_wild_card,2022.2.4,Linux x86_64,61.42506143,605e9cc770aa6d1947d02bfa,64b543b0a84ad6ab4a25b86a,64cb357fbbe96171de70dd4d,,,,,,,ctch,resources/DY.BMP,resources/DBN.BMP,Door4,0.277777778,-0.012962963,1,0,0,0.926,optionRight,60,12960,6,17,0,17,0,1,,,,,,,,,,,,,,,,,,,,,,,,,,,,,,,,,,,,,,,
,,,,,,,,2023-08-03_06h45.36.521,HF_wild_card,2022.2.4,Linux x86_64,61.42506143,605e9cc770aa6d1947d02bfa,64b543b0a84ad6ab4a25b86a,64cb357fbbe96171de70dd4d,,,,,,,sngl,resources/DB.BMP,resources/Empty.png,Door2,-0.22037037,-0.059259259,1,0,0,0.625,optionLeft,20,12980,6,18,0,18,0,1,,,,,,,,,,,,,,,,,,,,,,,,,,,,,,,,,,,,,,,
,,,,,,,,2023-08-03_06h45.36.521,HF_wild_card,2022.2.4,Linux x86_64,61.42506143,605e9cc770aa6d1947d02bfa,64b543b0a84ad6ab4a25b86a,64cb357fbbe96171de70dd4d,,,,,,,ctch,resources/DB.BMP,resources/DP.BMP,Door3,0.369444444,0.007407407,1,0,0,0.683,optionRight,70,13050,6,19,0,19,0,1,,,,,,,,,,,,,,,,,,,,,,,,,,,,,,,,,,,,,,,
,,,,,,,,2023-08-03_06h45.36.521,HF_wild_card,2022.2.4,Linux x86_64,61.42506143,605e9cc770aa6d1947d02bfa,64b543b0a84ad6ab4a25b86a,64cb357fbbe96171de70dd4d,,,,,,,decisionTrl,resources/DP.BMP,resources/DBN.BMP,Door3,-0.303703704,-0.049074074,1,0,0,0.943,optionLeft,70,13120,6,20,0,20,0,1,,,,,,,,,,,,,,,,,,,,,,,,,,,,,,,,,,,,,,,
,,,,,,,,2023-08-03_06h45.36.521,HF_wild_card,2022.2.4,Linux x86_64,61.42506143,605e9cc770aa6d1947d02bfa,64b543b0a84ad6ab4a25b86a,64cb357fbbe96171de70dd4d,,,,,,,decisionTrl,resources/DG.BMP,resources/DY.BMP,WildCard_NonEx,-0.285185185,-0.025925926,1,0,0,0.85,optionLeft,55,13175,6,21,0,21,0,1,,,,,,,,,,,,,,,,,,,,,,,,,,,,,,,,,,,,,,,
,,,,,,,,2023-08-03_06h45.36.521,HF_wild_card,2022.2.4,Linux x86_64,61.42506143,605e9cc770aa6d1947d02bfa,64b543b0a84ad6ab4a25b86a,64cb357fbbe96171de70dd4d,,,,,,,sngl,resources/Empty.png,resources/DG.BMP,WildCard_NonEx,0.314814815,0.019444444,1,0,0,0.707,optionRight,55,13230,6,22,0,22,0,1,,,,,,,,,,,,,,,,,,,,,,,,,,,,,,,,,,,,,,,
,,,,,,,,2023-08-03_06h45.36.521,HF_wild_card,2022.2.4,Linux x86_64,61.42506143,605e9cc770aa6d1947d02bfa,64b543b0a84ad6ab4a25b86a,64cb357fbbe96171de70dd4d,,,,,,,sngl,resources/Empty.png,resources/DB.BMP,Door2,0.25,-0.000925926,1,0,0,0.839,optionRight,40,13270,6,23,0,23,0,1,,,,,,,,,,,,,,,,,,,,,,,,,,,,,,,,,,,,,,,
,,,,,,,,2023-08-03_06h45.36.521,HF_wild_card,2022.2.4,Linux x86_64,61.42506143,605e9cc770aa6d1947d02bfa,64b543b0a84ad6ab4a25b86a,64cb357fbbe96171de70dd4d,,,,,,,sngl,resources/Empty.png,resources/DP.BMP,Door3,0.334259259,-0.005555556,1,0,0,0.807,optionRight,70,13340,6,24,0,24,0,1,,,,,,,,,,,,,,,,,,,,,,,,,,,,,,,,,,,,,,,
,,,,,,,,2023-08-03_06h45.36.521,HF_wild_card,2022.2.4,Linux x86_64,61.42506143,605e9cc770aa6d1947d02bfa,64b543b0a84ad6ab4a25b86a,64cb357fbbe96171de70dd4d,,,,,,,ctch,resources/DY.BMP,resources/DBN.BMP,Door4,0.291666667,0.016666667,1,0,0,0.8,optionRight,80,13420,6,25,0,25,0,1,,,,,,,,,,,,,,,,,,,,,,,,,,,,,,,,,,,,,,,
,,,,,,,,2023-08-03_06h45.36.521,HF_wild_card,2022.2.4,Linux x86_64,61.42506143,605e9cc770aa6d1947d02bfa,64b543b0a84ad6ab4a25b86a,64cb357fbbe96171de70dd4d,,,,,,,decisionTrl,resources/DBN.BMP,resources/DP.BMP,Door4,-0.277777778,-0.060185185,1,0,0,0.773,optionLeft,60,13480,6,26,0,26,0,1,,,,,,,,,,,,,,,,,,,,,,,,,,,,,,,,,,,,,,,
,,,,,,,,2023-08-03_06h45.36.521,HF_wild_card,2022.2.4,Linux x86_64,61.42506143,605e9cc770aa6d1947d02bfa,64b543b0a84ad6ab4a25b86a,64cb357fbbe96171de70dd4d,,,,,,,decisionTrl,resources/DY.BMP,resources/DB.BMP,Door2,0.326851852,-0.030555556,1,0,0,1.697,optionRight,40,13520,6,27,0,27,0,1,,,,,,,,,,,,,,,,,,,,,,,,,,,,,,,,,,,,,,,
,,,,,,,,2023-08-03_06h45.36.521,HF_wild_card,2022.2.4,Linux x86_64,61.42506143,605e9cc770aa6d1947d02bfa,64b543b0a84ad6ab4a25b86a,64cb357fbbe96171de70dd4d,,,,,,,decisionTrl,resources/DP.BMP,resources/DBN.BMP,Door4,0.385185185,-0.023148148,1,0,0,1.224,optionRight,60,13580,6,28,0,28,0,1,,,,,,,,,,,,,,,,,,,,,,,,,,,,,,,,,,,,,,,
,,,,,,,,2023-08-03_06h45.36.521,HF_wild_card,2022.2.4,Linux x86_64,61.42506143,605e9cc770aa6d1947d02bfa,64b543b0a84ad6ab4a25b86a,64cb357fbbe96171de70dd4d,,,,,,,sngl,resources/Empty.png,resources/DY.BMP,Door1,0.301851852,0.001851852,1,0,0,0.717,optionRight,30,13610,6,29,0,29,0,1,,,,,,,,,,,,,,,,,,,,,,,,,,,,,,,,,,,,,,,
,,,,,,,,2023-08-03_06h45.36.521,HF_wild_card,2022.2.4,Linux x86_64,61.42506143,605e9cc770aa6d1947d02bfa,64b543b0a84ad6ab4a25b86a,64cb357fbbe96171de70dd4d,,,,,,,decisionTrl,resources/DG.BMP,resources/DB.BMP,WildCard_NonEx,-0.273148148,-0.126851852,1,0,0,1.835,optionLeft,45,13655,6,30,0,30,0,1,,,,,,,,,,,,,,,,,,,,,,,,,,,,,,,,,,,,,,,
,,,,,,,,2023-08-03_06h45.36.521,HF_wild_card,2022.2.4,Linux x86_64,61.42506143,605e9cc770aa6d1947d02bfa,64b543b0a84ad6ab4a25b86a,64cb357fbbe96171de70dd4d,,,,,,,sngl,resources/DY.BMP,resources/Empty.png,Door1,-0.228703704,-0.030555556,1,0,0,0.722,optionLeft,30,13685,6,31,0,31,0,1,,,,,,,,,,,,,,,,,,,,,,,,,,,,,,,,,,,,,,,
,,,,,,,,2023-08-03_06h45.36.521,HF_wild_card,2022.2.4,Linux x86_64,61.42506143,605e9cc770aa6d1947d02bfa,64b543b0a84ad6ab4a25b86a,64cb357fbbe96171de70dd4d,,,,,,,ctch,resources/DP.BMP,resources/DB.BMP,Door3,-0.212962963,-0.066666667,1,0,0,2.386,optionLeft,70,13755,6,32,0,32,0,1,,,,,,,,,,,,,,,,,,,,,,,,,,,,,,,,,,,,,,,
,,,,,,,,2023-08-03_06h45.36.521,HF_wild_card,2022.2.4,Linux x86_64,61.42506143,605e9cc770aa6d1947d02bfa,64b543b0a84ad6ab4a25b86a,64cb357fbbe96171de70dd4d,,,,,,,decisionTrl,resources/DB.BMP,resources/DY.BMP,Door2,-0.271296296,-0.052777778,1,0,0,3.338,optionLeft,20,13775,6,33,0,33,0,1,,,,,,,,,,,,,,,,,,,,,,,,,,,,,,,,,,,,,,,
,,,,,,,,2023-08-03_06h45.36.521,HF_wild_card,2022.2.4,Linux x86_64,61.42506143,605e9cc770aa6d1947d02bfa,64b543b0a84ad6ab4a25b86a,64cb357fbbe96171de70dd4d,,,,,,,decisionTrl,resources/DBN.BMP,resources/DP.BMP,Door4,-0.286111111,-0.041666667,1,0,0,0.914,optionLeft,80,13855,6,34,0,34,0,1,,,,,,,,,,,,,,,,,,,,,,,,,,,,,,,,,,,,,,,
,,,,,,,,2023-08-03_06h45.36.521,HF_wild_card,2022.2.4,Linux x86_64,61.42506143,605e9cc770aa6d1947d02bfa,64b543b0a84ad6ab4a25b86a,64cb357fbbe96171de70dd4d,,,,,,,decisionTrl,resources/DP.BMP,resources/DBN.BMP,Door4,0.288888889,-0.003703704,1,0,0,0.741,optionRight,80,13935,6,35,0,35,0,1,,,,,,,,,,,,,,,,,,,,,,,,,,,,,,,,,,,,,,,
,,,,,,,,2023-08-03_06h45.36.521,HF_wild_card,2022.2.4,Linux x86_64,61.42506143,605e9cc770aa6d1947d02bfa,64b543b0a84ad6ab4a25b86a,64cb357fbbe96171de70dd4d,,,,,,,sngl,resources/DP.BMP,resources/Empty.png,Door3,-0.299074074,-0.043518519,1,0,0,0.674,optionLeft,70,14005,6,36,0,36,0,1,,,,,,,,,,,,,,,,,,,,,,,,,,,,,,,,,,,,,,,
,,,,,,,,2023-08-03_06h45.36.521,HF_wild_card,2022.2.4,Linux x86_64,61.42506143,605e9cc770aa6d1947d02bfa,64b543b0a84ad6ab4a25b86a,64cb357fbbe96171de70dd4d,,,,,,,decisionTrl,resources/DP.BMP,resources/DBN.BMP,Door4,0.347222222,-0.040740741,1,0,0,0.858,optionRight,60,14065,6,37,0,37,0,1,,,,,,,,,,,,,,,,,,,,,,,,,,,,,,,,,,,,,,,
,,,,,,,,2023-08-03_06h45.36.521,HF_wild_card,2022.2.4,Linux x86_64,61.42506143,605e9cc770aa6d1947d02bfa,64b543b0a84ad6ab4a25b86a,64cb357fbbe96171de70dd4d,,,,,,,ctch,resources/DBN.BMP,resources/DY.BMP,Door4,-0.2,-0.037037037,1,0,0,0.825,optionLeft,60,14125,6,38,0,38,0,1,,,,,,,,,,,,,,,,,,,,,,,,,,,,,,,,,,,,,,,
,,,,,,,,2023-08-03_06h45.36.521,HF_wild_card,2022.2.4,Linux x86_64,61.42506143,605e9cc770aa6d1947d02bfa,64b543b0a84ad6ab4a25b86a,64cb357fbbe96171de70dd4d,,,,,,,ctch,resources/DP.BMP,resources/DB.BMP,Door3,-0.223148148,-0.014814815,1,0,0,1.035,optionLeft,70,14195,6,39,0,39,0,1,,,,,,,,,,,,,,,,,,,,,,,,,,,,,,,,,,,,,,,
,,,,,,,,2023-08-03_06h45.36.521,HF_wild_card,2022.2.4,Linux x86_64,61.42506143,605e9cc770aa6d1947d02bfa,64b543b0a84ad6ab4a25b86a,64cb357fbbe96171de70dd4d,,,,,,,decisionTrl,resources/DY.BMP,resources/DB.BMP,Door2,0.334259259,-0.050925926,1,0,0,1.399,optionRight,20,14215,6,40,0,40,0,1,,,,,,,,,,,,,,,,,,,,,,,,,,,,,,,,,,,,,,,
,,,,,,,,2023-08-03_06h45.36.521,HF_wild_card,2022.2.4,Linux x86_64,61.42506143,605e9cc770aa6d1947d02bfa,64b543b0a84ad6ab4a25b86a,64cb357fbbe96171de70dd4d,,,,,,,decisionTrl,resources/DBN.BMP,resources/DP.BMP,Door4,-0.247222222,-0.051851852,1,0,0,0.924,optionLeft,60,14275,6,41,0,41,0,1,,,,,,,,,,,,,,,,,,,,,,,,,,,,,,,,,,,,,,,
,,,,,,,,2023-08-03_06h45.36.521,HF_wild_card,2022.2.4,Linux x86_64,61.42506143,605e9cc770aa6d1947d02bfa,64b543b0a84ad6ab4a25b86a,64cb357fbbe96171de70dd4d,,,,,,,decisionTrl,resources/DG.BMP,resources/DBN.BMP,Door4,0.290740741,-0.017592593,1,0,0,1.453,optionRight,60,14335,6,42,0,42,0,1,,,,,,,,,,,,,,,,,,,,,,,,,,,,,,,,,,,,,,,
,,,,,,,,2023-08-03_06h45.36.521,HF_wild_card,2022.2.4,Linux x86_64,61.42506143,605e9cc770aa6d1947d02bfa,64b543b0a84ad6ab4a25b86a,64cb357fbbe96171de70dd4d,,,,,,,decisionTrl,resources/DBN.BMP,resources/DG.BMP,Door4,-0.362962963,-0.088888889,1,0,0,2.25,optionLeft,80,14415,6,43,0,43,0,1,,,,,,,,,,,,,,,,,,,,,,,,,,,,,,,,,,,,,,,
,,,,,,,,2023-08-03_06h45.36.521,HF_wild_card,2022.2.4,Linux x86_64,61.42506143,605e9cc770aa6d1947d02bfa,64b543b0a84ad6ab4a25b86a,64cb357fbbe96171de70dd4d,,,,,,,,,,,,,,,,,,,,,,,,,,5,0,5,0,1,,,,,,,,,,,,,,,,,,,,,,,,,,,,,,,,,,
,,,,,,,,2023-08-03_06h45.36.521,HF_wild_card,2022.2.4,Linux x86_64,61.42506143,605e9cc770aa6d1947d02bfa,64b543b0a84ad6ab4a25b86a,64cb357fbbe96171de70dd4d,,,,,,,decisionTrl,resources/DY.BMP,resources/DB.BMP,Door2,0.394444444,-0.062962963,1,0,0,2.206,optionRight,40,14455,7,0,0,0,0,1,,,,,,,,,,,,,,,,,,,,,,,,,,,,,,,,,,,,,,,
,,,,,,,,2023-08-03_06h45.36.521,HF_wild_card,2022.2.4,Linux x86_64,61.42506143,605e9cc770aa6d1947d02bfa,64b543b0a84ad6ab4a25b86a,64cb357fbbe96171de70dd4d,,,,,,,ctch,resources/DBN.BMP,resources/DY.BMP,Door4,-0.292592593,-0.025925926,1,0,0,4.947,optionLeft,80,14535,7,1,0,1,0,1,,,,,,,,,,,,,,,,,,,,,,,,,,,,,,,,,,,,,,,
,,,,,,,,2023-08-03_06h45.36.521,HF_wild_card,2022.2.4,Linux x86_64,61.42506143,605e9cc770aa6d1947d02bfa,64b543b0a84ad6ab4a25b86a,64cb357fbbe96171de70dd4d,,,,,,,decisionTrl,resources/DB.BMP,resources/DY.BMP,Door2,-0.374074074,-0.014814815,1,0,0,2.917,optionLeft,40,14575,7,2,0,2,0,1,,,,,,,,,,,,,,,,,,,,,,,,,,,,,,,,,,,,,,,
,,,,,,,,2023-08-03_06h45.36.521,HF_wild_card,2022.2.4,Linux x86_64,61.42506143,605e9cc770aa6d1947d02bfa,64b543b0a84ad6ab4a25b86a,64cb357fbbe96171de70dd4d,,,,,,,ctch,resources/DY.BMP,resources/DBN.BMP,Door4,0.336111111,0.042592593,1,0,0,1.14,optionRight,60,14635,7,3,0,3,0,1,,,,,,,,,,,,,,,,,,,,,,,,,,,,,,,,,,,,,,,
,,,,,,,,2023-08-03_06h45.36.521,HF_wild_card,2022.2.4,Linux x86_64,61.42506143,605e9cc770aa6d1947d02bfa,64b543b0a84ad6ab4a25b86a,64cb357fbbe96171de70dd4d,,,,,,,decisionTrl,resources/DY.BMP,resources/DB.BMP,Door2,0.325,-0.010185185,1,0,0,2.209,optionRight,40,14675,7,4,0,4,0,1,,,,,,,,,,,,,,,,,,,,,,,,,,,,,,,,,,,,,,,
,,,,,,,,2023-08-03_06h45.36.521,HF_wild_card,2022.2.4,Linux x86_64,61.42506143,605e9cc770aa6d1947d02bfa,64b543b0a84ad6ab4a25b86a,64cb357fbbe96171de70dd4d,,,,,,,decisionTrl,resources/DBN.BMP,resources/DP.BMP,Door4,-0.278703704,-0.030555556,1,0,0,0.781,optionLeft,80,14755,7,5,0,5,0,1,,,,,,,,,,,,,,,,,,,,,,,,,,,,,,,,,,,,,,,
,,,,,,,,2023-08-03_06h45.36.521,HF_wild_card,2022.2.4,Linux x86_64,61.42506143,605e9cc770aa6d1947d02bfa,64b543b0a84ad6ab4a25b86a,64cb357fbbe96171de70dd4d,,,,,,,decisionTrl,resources/DP.BMP,resources/DBN.BMP,Door4,0.318518519,0.002777778,1,0,0,0.81,optionRight,80,14835,7,6,0,6,0,1,,,,,,,,,,,,,,,,,,,,,,,,,,,,,,,,,,,,,,,
,,,,,,,,2023-08-03_06h45.36.521,HF_wild_card,2022.2.4,Linux x86_64,61.42506143,605e9cc770aa6d1947d02bfa,64b543b0a84ad6ab4a25b86a,64cb357fbbe96171de70dd4d,,,,,,,ctch,resources/DBN.BMP,resources/DY.BMP,Door4,-0.287962963,-0.032407407,1,0,0,0.927,optionLeft,80,14915,7,7,0,7,0,1,,,,,,,,,,,,,,,,,,,,,,,,,,,,,,,,,,,,,,,
,,,,,,,,2023-08-03_06h45.36.521,HF_wild_card,2022.2.4,Linux x86_64,61.42506143,605e9cc770aa6d1947d02bfa,64b543b0a84ad6ab4a25b86a,64cb357fbbe96171de70dd4d,,,,,,,decisionTrl,resources/DBN.BMP,resources/DP.BMP,Door4,-0.22962963,-0.022222222,1,0,0,0.831,optionLeft,60,14975,7,8,0,8,0,1,,,,,,,,,,,,,,,,,,,,,,,,,,,,,,,,,,,,,,,
,,,,,,,,2023-08-03_06h45.36.521,HF_wild_card,2022.2.4,Linux x86_64,61.42506143,605e9cc770aa6d1947d02bfa,64b543b0a84ad6ab4a25b86a,64cb357fbbe96171de70dd4d,,,,,,,decisionTrl,resources/DP.BMP,resources/DBN.BMP,Door4,0.337962963,-0.026851852,1,0,0,0.956,optionRight,60,15035,7,9,0,9,0,1,,,,,,,,,,,,,,,,,,,,,,,,,,,,,,,,,,,,,,,
,,,,,,,,2023-08-03_06h45.36.521,HF_wild_card,2022.2.4,Linux x86_64,61.42506143,605e9cc770aa6d1947d02bfa,64b543b0a84ad6ab4a25b86a,64cb357fbbe96171de70dd4d,,,,,,,decisionTrl,resources/DBN.BMP,resources/DP.BMP,Door4,-0.278703704,-0.047222222,1,0,0,0.81,optionLeft,80,15115,7,10,0,10,0,1,,,,,,,,,,,,,,,,,,,,,,,,,,,,,,,,,,,,,,,
,,,,,,,,2023-08-03_06h45.36.521,HF_wild_card,2022.2.4,Linux x86_64,61.42506143,605e9cc770aa6d1947d02bfa,64b543b0a84ad6ab4a25b86a,64cb357fbbe96171de70dd4d,,,,,,,decisionTrl,resources/DP.BMP,resources/DBN.BMP,Door4,0.300925926,0.005555556,1,0,0,0.816,optionRight,60,15175,7,11,0,11,0,1,,,,,,,,,,,,,,,,,,,,,,,,,,,,,,,,,,,,,,,
,,,,,,,,2023-08-03_06h45.36.521,HF_wild_card,2022.2.4,Linux x86_64,61.42506143,605e9cc770aa6d1947d02bfa,64b543b0a84ad6ab4a25b86a,64cb357fbbe96171de70dd4d,,,,,,,decisionTrl,resources/DBN.BMP,resources/DP.BMP,Door4,-0.275,-0.005555556,1,0,0,1.043,optionLeft,80,15255,7,12,0,12,0,1,,,,,,,,,,,,,,,,,,,,,,,,,,,,,,,,,,,,,,,
,,,,,,,,2023-08-03_06h45.36.521,HF_wild_card,2022.2.4,Linux x86_64,61.42506143,605e9cc770aa6d1947d02bfa,64b543b0a84ad6ab4a25b86a,64cb357fbbe96171de70dd4d,,,,,,,ctch,resources/DY.BMP,resources/DBN.BMP,Door4,0.312962963,0.001851852,1,0,0,0.786,optionRight,80,15335,7,13,0,13,0,1,,,,,,,,,,,,,,,,,,,,,,,,,,,,,,,,,,,,,,,
,,,,,,,,2023-08-03_06h45.36.521,HF_wild_card,2022.2.4,Linux x86_64,61.42506143,605e9cc770aa6d1947d02bfa,64b543b0a84ad6ab4a25b86a,64cb357fbbe96171de70dd4d,,,,,,,ctch,resources/DB.BMP,resources/DP.BMP,Door3,0.314814815,-0.051851852,1,0,0,5.159,optionRight,70,15405,7,14,0,14,0,1,,,,,,,,,,,,,,,,,,,,,,,,,,,,,,,,,,,,,,,
,,,,,,,,2023-08-03_06h45.36.521,HF_wild_card,2022.2.4,Linux x86_64,61.42506143,605e9cc770aa6d1947d02bfa,64b543b0a84ad6ab4a25b86a,64cb357fbbe96171de70dd4d,,,,,,,decisionTrl,resources/DP.BMP,resources/DBN.BMP,Door4,0.338888889,0.012037037,1,0,0,0.742,optionRight,80,15485,7,15,0,15,0,1,,,,,,,,,,,,,,,,,,,,,,,,,,,,,,,,,,,,,,,
,,,,,,,,2023-08-03_06h45.36.521,HF_wild_card,2022.2.4,Linux x86_64,61.42506143,605e9cc770aa6d1947d02bfa,64b543b0a84ad6ab4a25b86a,64cb357fbbe96171de70dd4d,,,,,,,decisionTrl,resources/DB.BMP,resources/DY.BMP,Door1,0.374074074,-0.02962963,1,0,0,1.597,optionRight,30,15515,7,16,0,16,0,1,,,,,,,,,,,,,,,,,,,,,,,,,,,,,,,,,,,,,,,
,,,,,,,,2023-08-03_06h45.36.521,HF_wild_card,2022.2.4,Linux x86_64,61.42506143,605e9cc770aa6d1947d02bfa,64b543b0a84ad6ab4a25b86a,64cb357fbbe96171de70dd4d,,,,,,,decisionTrl,resources/DY.BMP,resources/DB.BMP,Door1,-0.317592593,-0.053703704,1,0,0,1.257,optionLeft,30,15545,7,17,0,17,0,1,,,,,,,,,,,,,,,,,,,,,,,,,,,,,,,,,,,,,,,
,,,,,,,,2023-08-03_06h45.36.521,HF_wild_card,2022.2.4,Linux x86_64,61.42506143,605e9cc770aa6d1947d02bfa,64b543b0a84ad6ab4a25b86a,64cb357fbbe96171de70dd4d,,,,,,,ctch,resources/DB.BMP,resources/DP.BMP,Door3,0.339814815,0.000925926,1,0,0,0.785,optionRight,70,15615,7,18,0,18,0,1,,,,,,,,,,,,,,,,,,,,,,,,,,,,,,,,,,,,,,,
,,,,,,,,2023-08-03_06h45.36.521,HF_wild_card,2022.2.4,Linux x86_64,61.42506143,605e9cc770aa6d1947d02bfa,64b543b0a84ad6ab4a25b86a,64cb357fbbe96171de70dd4d,,,,,,,ctch,resources/DP.BMP,resources/DB.BMP,Door3,-0.268518519,-0.04537037,1,0,0,2.702,optionLeft,70,15685,7,19,0,19,0,1,,,,,,,,,,,,,,,,,,,,,,,,,,,,,,,,,,,,,,,
,,,,,,,,2023-08-03_06h45.36.521,HF_wild_card,2022.2.4,Linux x86_64,61.42506143,605e9cc770aa6d1947d02bfa,64b543b0a84ad6ab4a25b86a,64cb357fbbe96171de70dd4d,,,,,,,decisionTrl,resources/DB.BMP,resources/DY.BMP,Door1,0.378703704,-0.016666667,1,0,0,1.761,optionRight,30,15715,7,20,0,20,0,1,,,,,,,,,,,,,,,,,,,,,,,,,,,,,,,,,,,,,,,
,,,,,,,,2023-08-03_06h45.36.521,HF_wild_card,2022.2.4,Linux x86_64,61.42506143,605e9cc770aa6d1947d02bfa,64b543b0a84ad6ab4a25b86a,64cb357fbbe96171de70dd4d,,,,,,,decisionTrl,resources/DY.BMP,resources/DB.BMP,Door1,-0.273148148,-0.030555556,1,0,0,0.918,optionLeft,30,15745,7,21,0,21,0,1,,,,,,,,,,,,,,,,,,,,,,,,,,,,,,,,,,,,,,,
,,,,,,,,2023-08-03_06h45.36.521,HF_wild_card,2022.2.4,Linux x86_64,61.42506143,605e9cc770aa6d1947d02bfa,64b543b0a84ad6ab4a25b86a,64cb357fbbe96171de70dd4d,,,,,,,ctch,resources/DY.BMP,resources/DBN.BMP,Door4,0.335185185,0.005555556,1,0,0,0.849,optionRight,60,15805,7,22,0,22,0,1,,,,,,,,,,,,,,,,,,,,,,,,,,,,,,,,,,,,,,,
,,,,,,,,2023-08-03_06h45.36.521,HF_wild_card,2022.2.4,Linux x86_64,61.42506143,605e9cc770aa6d1947d02bfa,64b543b0a84ad6ab4a25b86a,64cb357fbbe96171de70dd4d,,,,,,,ctch,resources/DP.BMP,resources/DB.BMP,Door3,-0.241666667,-0.065740741,1,0,0,0.979,optionLeft,70,15875,7,23,0,23,0,1,,,,,,,,,,,,,,,,,,,,,,,,,,,,,,,,,,,,,,,
,,,,,,,,2023-08-03_06h45.36.521,HF_wild_card,2022.2.4,Linux x86_64,61.42506143,605e9cc770aa6d1947d02bfa,64b543b0a84ad6ab4a25b86a,64cb357fbbe96171de70dd4d,,,,,,,decisionTrl,resources/DY.BMP,resources/DB.BMP,Door1,-0.246296296,-0.092592593,1,0,0,1.629,optionLeft,30,15905,7,24,0,24,0,1,,,,,,,,,,,,,,,,,,,,,,,,,,,,,,,,,,,,,,,
,,,,,,,,2023-08-03_06h45.36.521,HF_wild_card,2022.2.4,Linux x86_64,61.42506143,605e9cc770aa6d1947d02bfa,64b543b0a84ad6ab4a25b86a,64cb357fbbe96171de70dd4d,,,,,,,decisionTrl,resources/DB.BMP,resources/DY.BMP,Door1,0.493518519,0.006481481,1,0,0,0.844,optionRight,30,15935,7,25,0,25,0,1,,,,,,,,,,,,,,,,,,,,,,,,,,,,,,,,,,,,,,,
,,,,,,,,2023-08-03_06h45.36.521,HF_wild_card,2022.2.4,Linux x86_64,61.42506143,605e9cc770aa6d1947d02bfa,64b543b0a84ad6ab4a25b86a,64cb357fbbe96171de70dd4d,,,,,,,decisionTrl,resources/DY.BMP,resources/DB.BMP,Door1,-0.234259259,-0.032407407,1,0,0,0.815,optionLeft,30,15965,7,26,0,26,0,1,,,,,,,,,,,,,,,,,,,,,,,,,,,,,,,,,,,,,,,
,,,,,,,,2023-08-03_06h45.36.521,HF_wild_card,2022.2.4,Linux x86_64,61.42506143,605e9cc770aa6d1947d02bfa,64b543b0a84ad6ab4a25b86a,64cb357fbbe96171de70dd4d,,,,,,,ctch,resources/DBN.BMP,resources/DY.BMP,Door4,-0.356481481,-0.068518519,1,0,0,0.989,optionLeft,60,16025,7,27,0,27,0,1,,,,,,,,,,,,,,,,,,,,,,,,,,,,,,,,,,,,,,,
,,,,,,,,2023-08-03_06h45.36.521,HF_wild_card,2022.2.4,Linux x86_64,61.42506143,605e9cc770aa6d1947d02bfa,64b543b0a84ad6ab4a25b86a,64cb357fbbe96171de70dd4d,,,,,,,decisionTrl,resources/DB.BMP,resources/DY.BMP,Door1,0.325925926,-0.035185185,1,0,0,2.016,optionRight,30,16055,7,28,0,28,0,1,,,,,,,,,,,,,,,,,,,,,,,,,,,,,,,,,,,,,,,
,,,,,,,,2023-08-03_06h45.36.521,HF_wild_card,2022.2.4,Linux x86_64,61.42506143,605e9cc770aa6d1947d02bfa,64b543b0a84ad6ab4a25b86a,64cb357fbbe96171de70dd4d,,,,,,,ctch,resources/DB.BMP,resources/DP.BMP,Door3,0.253703704,0.005555556,1,0,0,0.718,optionRight,70,16125,7,29,0,29,0,1,,,,,,,,,,,,,,,,,,,,,,,,,,,,,,,,,,,,,,,
,,,,,,,,2023-08-03_06h45.36.521,HF_wild_card,2022.2.4,Linux x86_64,61.42506143,605e9cc770aa6d1947d02bfa,64b543b0a84ad6ab4a25b86a,64cb357fbbe96171de70dd4d,,,,,,,decisionTrl,resources/DBN.BMP,resources/DP.BMP,Door4,-0.283333333,-0.034259259,1,0,0,0.854,optionLeft,60,16185,7,30,0,30,0,1,,,,,,,,,,,,,,,,,,,,,,,,,,,,,,,,,,,,,,,
,,,,,,,,2023-08-03_06h45.36.521,HF_wild_card,2022.2.4,Linux x86_64,61.42506143,605e9cc770aa6d1947d02bfa,64b543b0a84ad6ab4a25b86a,64cb357fbbe96171de70dd4d,,,,,,,ctch,resources/DP.BMP,resources/DB.BMP,Door3,-0.232407407,-0.042592593,1,0,0,0.754,optionLeft,70,16255,7,31,0,31,0,1,,,,,,,,,,,,,,,,,,,,,,,,,,,,,,,,,,,,,,,
,,,,,,,,2023-08-03_06h45.36.521,HF_wild_card,2022.2.4,Linux x86_64,61.42506143,605e9cc770aa6d1947d02bfa,64b543b0a84ad6ab4a25b86a,64cb357fbbe96171de70dd4d,,,,,,,decisionTrl,resources/DP.BMP,resources/DBN.BMP,Door4,0.350925926,-0.040740741,1,0,0,2.244,optionRight,60,16315,7,32,0,32,0,1,,,,,,,,,,,,,,,,,,,,,,,,,,,,,,,,,,,,,,,
,,,,,,,,2023-08-03_06h45.36.521,HF_wild_card,2022.2.4,Linux x86_64,61.42506143,605e9cc770aa6d1947d02bfa,64b543b0a84ad6ab4a25b86a,64cb357fbbe96171de70dd4d,,,,,,,decisionTrl,resources/DBN.BMP,resources/DP.BMP,Door4,-0.246296296,-0.075925926,1,0,0,4.968,optionLeft,80,16395,7,33,0,33,0,1,,,,,,,,,,,,,,,,,,,,,,,,,,,,,,,,,,,,,,,
,,,,,,,,2023-08-03_06h45.36.521,HF_wild_card,2022.2.4,Linux x86_64,61.42506143,605e9cc770aa6d1947d02bfa,64b543b0a84ad6ab4a25b86a,64cb357fbbe96171de70dd4d,,,,,,,decisionTrl,resources/DP.BMP,resources/DBN.BMP,Door4,0.313888889,0.010185185,1,0,0,0.815,optionRight,60,16455,7,34,0,34,0,1,,,,,,,,,,,,,,,,,,,,,,,,,,,,,,,,,,,,,,,
,,,,,,,,2023-08-03_06h45.36.521,HF_wild_card,2022.2.4,Linux x86_64,61.42506143,605e9cc770aa6d1947d02bfa,64b543b0a84ad6ab4a25b86a,64cb357fbbe96171de70dd4d,,,,,,,decisionTrl,resources/DB.BMP,resources/DY.BMP,Door1,0.32037037,-0.059259259,1,0,0,2.318,optionRight,30,16485,7,35,0,35,0,1,,,,,,,,,,,,,,,,,,,,,,,,,,,,,,,,,,,,,,,
,,,,,,,,2023-08-03_06h45.36.521,HF_wild_card,2022.2.4,Linux x86_64,61.42506143,605e9cc770aa6d1947d02bfa,64b543b0a84ad6ab4a25b86a,64cb357fbbe96171de70dd4d,,,,,,,,,,,,,,,,,,,,,,,,,,6,0,6,0,1,,,,,,,,,,,,,,,,,,,,,,,,,,,,,,,,,,
,,,,,,,,2023-08-03_06h45.36.521,HF_wild_card,2022.2.4,Linux x86_64,61.42506143,605e9cc770aa6d1947d02bfa,64b543b0a84ad6ab4a25b86a,64cb357fbbe96171de70dd4d,,,,,,,,,,,,,,,,,,,,,,,,,,,,,,,4,,,,,,,,,,,,,,,,,,,,,,,,,,,,,,,,,
