Condition,Low fixed image (Door1),Low risky image (Door2),High fixed image (Door3),High risky image (Door4),Extreme Wild Card,NonExtreme Wild Card,,date,expName,psychopyVersion,OS,frameRate,PROLIFIC_PID,STUDY_ID,SESSION_ID,mouse_2.x,mouse_2.y,mouse_2.leftButton,mouse_2.midButton,mouse_2.rightButton,mouse_2.clicked_name,Trial Type,Left Option Image,Right Option Image,Chosen Door,mouse.x,mouse.y,mouse.leftButton,mouse.midButton,mouse.rightButton,mouse.time,mouse.clicked_name,Feedback,Cumulative Reward,Block,trial.thisRepN,trial.thisTrialN,trial.thisN,trial.thisIndex,trial.ran,blocks.thisRepN,blocks.thisTrialN,blocks.thisN,blocks.thisIndex,blocks.ran,Money conversion,First Outcome Reported,Shown Door (First Outcome),Displayed Image (First Outcome),outcomes.thisRepN,outcomes.thisTrialN,outcomes.thisN,outcomes.thisIndex,outcomes.ran,judgments.thisRepN,judgments.thisTrialN,judgments.thisN,judgments.thisIndex,judgments.ran,freqMouse.x,freqMouse.y,freqMouse.leftButton,freqMouse.midButton,freqMouse.rightButton,freqMouse.clicked_name,FQJ for first outcome,FQJ for second outcome,Shown Door,Displayed Image,trials.thisRepN,trials.thisTrialN,trials.thisN,trials.thisIndex,trials.ran,judgBlock.thisRepN,judgBlock.thisTrialN,judgBlock.thisN,judgBlock.thisIndex,judgBlock.ran
0,resources/DP.BMP,resources/DBN.BMP,resources/DB.BMP,resources/DY.BMP,resources/DG.BMP,resources/DR.BMP,,2023-08-16_08h41.06.241,HF_wild_card,2022.2.4,Win32,60.02040694,5aec1707c09cd900015d7408,64d2fd46c836a06233681665,64dc7d5a7a6b0686ea53d29c,,,,,,,,,,,,,,,,,,,,,,,,,,,,,,,,,,,,,,,,,,,,,,,,,,,,,,,,,,,,,,,,
,,,,,,,,2023-08-16_08h41.06.241,HF_wild_card,2022.2.4,Win32,60.02040694,5aec1707c09cd900015d7408,64d2fd46c836a06233681665,64dc7d5a7a6b0686ea53d29c,0,-0.419774011,1,0,0,agree,,,,,,,,,,,,,,,,,,,,,,,,,,,,,,,,,,,,,,,,,,,,,,,,,,,,,,,,,,
,,,,,,,,2023-08-16_08h41.06.241,HF_wild_card,2022.2.4,Win32,60.02040694,5aec1707c09cd900015d7408,64d2fd46c836a06233681665,64dc7d5a7a6b0686ea53d29c,,,,,,,,,,,,,,,,,,,,,,,,,,,,,,,,,,,,,,,,,,,,,,,,,,,,,,,,,,,,,,,,
,,,,,,,,2023-08-16_08h41.06.241,HF_wild_card,2022.2.4,Win32,60.02040694,5aec1707c09cd900015d7408,64d2fd46c836a06233681665,64dc7d5a7a6b0686ea53d29c,,,,,,,decisionTrl,resources/DG.BMP,resources/DP.BMP,WildCard_Ex,-0.352542373,-0.118079096,1,0,0,2.1585,optionLeft,5,5,1,0,0,0,0,1,,,,,,,,,,,,,,,,,,,,,,,,,,,,,,,,,,,,,,,
,,,,,,,,2023-08-16_08h41.06.241,HF_wild_card,2022.2.4,Win32,60.02040694,5aec1707c09cd900015d7408,64d2fd46c836a06233681665,64dc7d5a7a6b0686ea53d29c,,,,,,,decisionTrl,resources/DP.BMP,resources/DBN.BMP,Door1,-0.442937853,-0.150847458,1,0,0,2.0594,optionLeft,30,35,1,1,0,1,0,1,,,,,,,,,,,,,,,,,,,,,,,,,,,,,,,,,,,,,,,
,,,,,,,,2023-08-16_08h41.06.241,HF_wild_card,2022.2.4,Win32,60.02040694,5aec1707c09cd900015d7408,64d2fd46c836a06233681665,64dc7d5a7a6b0686ea53d29c,,,,,,,decisionTrl,resources/DY.BMP,resources/DB.BMP,Door4,-0.331073446,-0.087570621,1,0,0,1.8781,optionLeft,60,95,1,2,0,2,0,1,,,,,,,,,,,,,,,,,,,,,,,,,,,,,,,,,,,,,,,
,,,,,,,,2023-08-16_08h41.06.241,HF_wild_card,2022.2.4,Win32,60.02040694,5aec1707c09cd900015d7408,64d2fd46c836a06233681665,64dc7d5a7a6b0686ea53d29c,,,,,,,sngl,resources/DY.BMP,resources/Empty.png,Door4,-0.281355932,-0.092090395,1,0,0,1.1944,optionLeft,80,175,1,3,0,3,0,1,,,,,,,,,,,,,,,,,,,,,,,,,,,,,,,,,,,,,,,
,,,,,,,,2023-08-16_08h41.06.241,HF_wild_card,2022.2.4,Win32,60.02040694,5aec1707c09cd900015d7408,64d2fd46c836a06233681665,64dc7d5a7a6b0686ea53d29c,,,,,,,decisionTrl,resources/DG.BMP,resources/DBN.BMP,Door2,0.44519774,-0.069491525,1,0,0,0.8436,optionRight,40,215,1,4,0,4,0,1,,,,,,,,,,,,,,,,,,,,,,,,,,,,,,,,,,,,,,,
,,,,,,,,2023-08-16_08h41.06.241,HF_wild_card,2022.2.4,Win32,60.02040694,5aec1707c09cd900015d7408,64d2fd46c836a06233681665,64dc7d5a7a6b0686ea53d29c,,,,,,,decisionTrl,resources/DY.BMP,resources/DB.BMP,Door4,-0.338983051,-0.043502825,1,0,0,0.8941,optionLeft,80,295,1,5,0,5,0,1,,,,,,,,,,,,,,,,,,,,,,,,,,,,,,,,,,,,,,,
,,,,,,,,2023-08-16_08h41.06.241,HF_wild_card,2022.2.4,Win32,60.02040694,5aec1707c09cd900015d7408,64d2fd46c836a06233681665,64dc7d5a7a6b0686ea53d29c,,,,,,,decisionTrl,resources/DB.BMP,resources/DG.BMP,Door3,-0.301694915,-0.05480226,1,0,0,1.4265,optionLeft,70,365,1,6,0,6,0,1,,,,,,,,,,,,,,,,,,,,,,,,,,,,,,,,,,,,,,,
,,,,,,,,2023-08-16_08h41.06.241,HF_wild_card,2022.2.4,Win32,60.02040694,5aec1707c09cd900015d7408,64d2fd46c836a06233681665,64dc7d5a7a6b0686ea53d29c,,,,,,,sngl,resources/Empty.png,resources/DY.BMP,Door4,0.493785311,-0.094350282,1,0,0,0.8339,optionRight,60,425,1,7,0,7,0,1,,,,,,,,,,,,,,,,,,,,,,,,,,,,,,,,,,,,,,,
,,,,,,,,2023-08-16_08h41.06.241,HF_wild_card,2022.2.4,Win32,60.02040694,5aec1707c09cd900015d7408,64d2fd46c836a06233681665,64dc7d5a7a6b0686ea53d29c,,,,,,,decisionTrl,resources/DG.BMP,resources/DY.BMP,Door4,0.363841808,-0.052542373,1,0,0,1.4633,optionRight,60,485,1,8,0,8,0,1,,,,,,,,,,,,,,,,,,,,,,,,,,,,,,,,,,,,,,,
,,,,,,,,2023-08-16_08h41.06.241,HF_wild_card,2022.2.4,Win32,60.02040694,5aec1707c09cd900015d7408,64d2fd46c836a06233681665,64dc7d5a7a6b0686ea53d29c,,,,,,,ctch,resources/DB.BMP,resources/DBN.BMP,Door2,0.33220339,-0.024293785,1,0,0,1.142,optionRight,40,525,1,9,0,9,0,1,,,,,,,,,,,,,,,,,,,,,,,,,,,,,,,,,,,,,,,
,,,,,,,,2023-08-16_08h41.06.241,HF_wild_card,2022.2.4,Win32,60.02040694,5aec1707c09cd900015d7408,64d2fd46c836a06233681665,64dc7d5a7a6b0686ea53d29c,,,,,,,sngl,resources/Empty.png,resources/DBN.BMP,Door2,0.384180791,-0.048022599,1,0,0,0.9346,optionRight,20,545,1,10,0,10,0,1,,,,,,,,,,,,,,,,,,,,,,,,,,,,,,,,,,,,,,,
,,,,,,,,2023-08-16_08h41.06.241,HF_wild_card,2022.2.4,Win32,60.02040694,5aec1707c09cd900015d7408,64d2fd46c836a06233681665,64dc7d5a7a6b0686ea53d29c,,,,,,,decisionTrl,resources/DY.BMP,resources/DB.BMP,Door3,0.346892655,-0.057062147,1,0,0,1.5476,optionRight,70,615,1,11,0,11,0,1,,,,,,,,,,,,,,,,,,,,,,,,,,,,,,,,,,,,,,,
,,,,,,,,2023-08-16_08h41.06.241,HF_wild_card,2022.2.4,Win32,60.02040694,5aec1707c09cd900015d7408,64d2fd46c836a06233681665,64dc7d5a7a6b0686ea53d29c,,,,,,,sngl,resources/Empty.png,resources/DG.BMP,WildCard_Ex,0.44180791,0.005084746,1,0,0,0.916,optionRight,95,710,1,12,0,12,0,1,,,,,,,,,,,,,,,,,,,,,,,,,,,,,,,,,,,,,,,
,,,,,,,,2023-08-16_08h41.06.241,HF_wild_card,2022.2.4,Win32,60.02040694,5aec1707c09cd900015d7408,64d2fd46c836a06233681665,64dc7d5a7a6b0686ea53d29c,,,,,,,ctch,resources/DP.BMP,resources/DY.BMP,Door1,-0.338983051,-0.053672316,1,0,0,1.735,optionLeft,30,740,1,13,0,13,0,1,,,,,,,,,,,,,,,,,,,,,,,,,,,,,,,,,,,,,,,
,,,,,,,,2023-08-16_08h41.06.241,HF_wild_card,2022.2.4,Win32,60.02040694,5aec1707c09cd900015d7408,64d2fd46c836a06233681665,64dc7d5a7a6b0686ea53d29c,,,,,,,sngl,resources/DP.BMP,resources/Empty.png,Door1,-0.418079096,-0.006214689,1,0,0,0.7577,optionLeft,30,770,1,14,0,14,0,1,,,,,,,,,,,,,,,,,,,,,,,,,,,,,,,,,,,,,,,
,,,,,,,,2023-08-16_08h41.06.241,HF_wild_card,2022.2.4,Win32,60.02040694,5aec1707c09cd900015d7408,64d2fd46c836a06233681665,64dc7d5a7a6b0686ea53d29c,,,,,,,sngl,resources/Empty.png,resources/DP.BMP,Door1,0.371751412,-0.043502825,1,0,0,0.9946,optionRight,30,800,1,15,0,15,0,1,,,,,,,,,,,,,,,,,,,,,,,,,,,,,,,,,,,,,,,
,,,,,,,,2023-08-16_08h41.06.241,HF_wild_card,2022.2.4,Win32,60.02040694,5aec1707c09cd900015d7408,64d2fd46c836a06233681665,64dc7d5a7a6b0686ea53d29c,,,,,,,sngl,resources/DG.BMP,resources/Empty.png,WildCard_Ex,-0.496045198,-0.01299435,1,0,0,0.6397,optionLeft,95,895,1,16,0,16,0,1,,,,,,,,,,,,,,,,,,,,,,,,,,,,,,,,,,,,,,,
,,,,,,,,2023-08-16_08h41.06.241,HF_wild_card,2022.2.4,Win32,60.02040694,5aec1707c09cd900015d7408,64d2fd46c836a06233681665,64dc7d5a7a6b0686ea53d29c,,,,,,,sngl,resources/DBN.BMP,resources/Empty.png,Door2,-0.293785311,-0.026553672,1,0,0,0.6766,optionLeft,40,935,1,17,0,17,0,1,,,,,,,,,,,,,,,,,,,,,,,,,,,,,,,,,,,,,,,
,,,,,,,,2023-08-16_08h41.06.241,HF_wild_card,2022.2.4,Win32,60.02040694,5aec1707c09cd900015d7408,64d2fd46c836a06233681665,64dc7d5a7a6b0686ea53d29c,,,,,,,decisionTrl,resources/DP.BMP,resources/DBN.BMP,Door1,-0.242937853,-0.043502825,1,0,0,0.9593,optionLeft,30,965,1,18,0,18,0,1,,,,,,,,,,,,,,,,,,,,,,,,,,,,,,,,,,,,,,,
,,,,,,,,2023-08-16_08h41.06.241,HF_wild_card,2022.2.4,Win32,60.02040694,5aec1707c09cd900015d7408,64d2fd46c836a06233681665,64dc7d5a7a6b0686ea53d29c,,,,,,,decisionTrl,resources/DBN.BMP,resources/DP.BMP,Door2,-0.271186441,-0.033333333,1,0,0,0.6819,optionLeft,20,985,1,19,0,19,0,1,,,,,,,,,,,,,,,,,,,,,,,,,,,,,,,,,,,,,,,
,,,,,,,,2023-08-16_08h41.06.241,HF_wild_card,2022.2.4,Win32,60.02040694,5aec1707c09cd900015d7408,64d2fd46c836a06233681665,64dc7d5a7a6b0686ea53d29c,,,,,,,sngl,resources/DG.BMP,resources/Empty.png,WildCard_Ex,-0.235028249,-0.03220339,1,0,0,0.6596,optionLeft,5,990,1,20,0,20,0,1,,,,,,,,,,,,,,,,,,,,,,,,,,,,,,,,,,,,,,,
,,,,,,,,2023-08-16_08h41.06.241,HF_wild_card,2022.2.4,Win32,60.02040694,5aec1707c09cd900015d7408,64d2fd46c836a06233681665,64dc7d5a7a6b0686ea53d29c,,,,,,,sngl,resources/Empty.png,resources/DB.BMP,Door3,0.527683616,-0.109039548,1,0,0,0.5934,optionRight,70,1060,1,21,0,21,0,1,,,,,,,,,,,,,,,,,,,,,,,,,,,,,,,,,,,,,,,
,,,,,,,,2023-08-16_08h41.06.241,HF_wild_card,2022.2.4,Win32,60.02040694,5aec1707c09cd900015d7408,64d2fd46c836a06233681665,64dc7d5a7a6b0686ea53d29c,,,,,,,ctch,resources/DBN.BMP,resources/DB.BMP,Door3,0.315254237,-0.052542373,1,0,0,1.1305,optionRight,70,1130,1,22,0,22,0,1,,,,,,,,,,,,,,,,,,,,,,,,,,,,,,,,,,,,,,,
,,,,,,,,2023-08-16_08h41.06.241,HF_wild_card,2022.2.4,Win32,60.02040694,5aec1707c09cd900015d7408,64d2fd46c836a06233681665,64dc7d5a7a6b0686ea53d29c,,,,,,,decisionTrl,resources/DY.BMP,resources/DG.BMP,Door4,-0.271186441,-0.024293785,1,0,0,0.7863,optionLeft,80,1210,1,23,0,23,0,1,,,,,,,,,,,,,,,,,,,,,,,,,,,,,,,,,,,,,,,
,,,,,,,,2023-08-16_08h41.06.241,HF_wild_card,2022.2.4,Win32,60.02040694,5aec1707c09cd900015d7408,64d2fd46c836a06233681665,64dc7d5a7a6b0686ea53d29c,,,,,,,decisionTrl,resources/DB.BMP,resources/DY.BMP,Door4,0.376271186,-0.071751412,1,0,0,0.6478,optionRight,80,1290,1,24,0,24,0,1,,,,,,,,,,,,,,,,,,,,,,,,,,,,,,,,,,,,,,,
,,,,,,,,2023-08-16_08h41.06.241,HF_wild_card,2022.2.4,Win32,60.02040694,5aec1707c09cd900015d7408,64d2fd46c836a06233681665,64dc7d5a7a6b0686ea53d29c,,,,,,,decisionTrl,resources/DBN.BMP,resources/DG.BMP,WildCard_Ex,0.35819209,-0.03220339,1,0,0,1.0092,optionRight,5,1295,1,25,0,25,0,1,,,,,,,,,,,,,,,,,,,,,,,,,,,,,,,,,,,,,,,
,,,,,,,,2023-08-16_08h41.06.241,HF_wild_card,2022.2.4,Win32,60.02040694,5aec1707c09cd900015d7408,64d2fd46c836a06233681665,64dc7d5a7a6b0686ea53d29c,,,,,,,sngl,resources/Empty.png,resources/DG.BMP,WildCard_Ex,0.376271186,-0.000564972,1,0,0,0.7268,optionRight,5,1300,1,26,0,26,0,1,,,,,,,,,,,,,,,,,,,,,,,,,,,,,,,,,,,,,,,
,,,,,,,,2023-08-16_08h41.06.241,HF_wild_card,2022.2.4,Win32,60.02040694,5aec1707c09cd900015d7408,64d2fd46c836a06233681665,64dc7d5a7a6b0686ea53d29c,,,,,,,sngl,resources/DB.BMP,resources/Empty.png,Door3,-0.33559322,-0.034463277,1,0,0,0.6713,optionLeft,70,1370,1,27,0,27,0,1,,,,,,,,,,,,,,,,,,,,,,,,,,,,,,,,,,,,,,,
,,,,,,,,2023-08-16_08h41.06.241,HF_wild_card,2022.2.4,Win32,60.02040694,5aec1707c09cd900015d7408,64d2fd46c836a06233681665,64dc7d5a7a6b0686ea53d29c,,,,,,,decisionTrl,resources/DG.BMP,resources/DB.BMP,WildCard_Ex,-0.296045198,-0.05480226,1,0,0,0.8222,optionLeft,5,1375,1,28,0,28,0,1,,,,,,,,,,,,,,,,,,,,,,,,,,,,,,,,,,,,,,,
,,,,,,,,2023-08-16_08h41.06.241,HF_wild_card,2022.2.4,Win32,60.02040694,5aec1707c09cd900015d7408,64d2fd46c836a06233681665,64dc7d5a7a6b0686ea53d29c,,,,,,,decisionTrl,resources/DBN.BMP,resources/DP.BMP,Door2,-0.341242938,-0.049152542,1,0,0,0.8676,optionLeft,40,1415,1,29,0,29,0,1,,,,,,,,,,,,,,,,,,,,,,,,,,,,,,,,,,,,,,,
,,,,,,,,2023-08-16_08h41.06.241,HF_wild_card,2022.2.4,Win32,60.02040694,5aec1707c09cd900015d7408,64d2fd46c836a06233681665,64dc7d5a7a6b0686ea53d29c,,,,,,,ctch,resources/DY.BMP,resources/DP.BMP,Door1,0.346892655,-0.085310734,1,0,0,0.8158,optionRight,30,1445,1,30,0,30,0,1,,,,,,,,,,,,,,,,,,,,,,,,,,,,,,,,,,,,,,,
,,,,,,,,2023-08-16_08h41.06.241,HF_wild_card,2022.2.4,Win32,60.02040694,5aec1707c09cd900015d7408,64d2fd46c836a06233681665,64dc7d5a7a6b0686ea53d29c,,,,,,,decisionTrl,resources/DB.BMP,resources/DY.BMP,Door4,0.323163842,-0.041242938,1,0,0,0.8419,optionRight,80,1525,1,31,0,31,0,1,,,,,,,,,,,,,,,,,,,,,,,,,,,,,,,,,,,,,,,
,,,,,,,,2023-08-16_08h41.06.241,HF_wild_card,2022.2.4,Win32,60.02040694,5aec1707c09cd900015d7408,64d2fd46c836a06233681665,64dc7d5a7a6b0686ea53d29c,,,,,,,ctch,resources/DB.BMP,resources/DBN.BMP,Door3,-0.343502825,-0.01299435,1,0,0,1.5449,optionLeft,70,1595,1,32,0,32,0,1,,,,,,,,,,,,,,,,,,,,,,,,,,,,,,,,,,,,,,,
,,,,,,,,2023-08-16_08h41.06.241,HF_wild_card,2022.2.4,Win32,60.02040694,5aec1707c09cd900015d7408,64d2fd46c836a06233681665,64dc7d5a7a6b0686ea53d29c,,,,,,,ctch,resources/DP.BMP,resources/DY.BMP,Door4,0.41920904,0.002824859,1,0,0,0.9081,optionRight,60,1655,1,33,0,33,0,1,,,,,,,,,,,,,,,,,,,,,,,,,,,,,,,,,,,,,,,
,,,,,,,,2023-08-16_08h41.06.241,HF_wild_card,2022.2.4,Win32,60.02040694,5aec1707c09cd900015d7408,64d2fd46c836a06233681665,64dc7d5a7a6b0686ea53d29c,,,,,,,decisionTrl,resources/DBN.BMP,resources/DP.BMP,Door2,-0.329943503,-0.029943503,1,0,0,1.3813,optionLeft,20,1675,1,34,0,34,0,1,,,,,,,,,,,,,,,,,,,,,,,,,,,,,,,,,,,,,,,
,,,,,,,,2023-08-16_08h41.06.241,HF_wild_card,2022.2.4,Win32,60.02040694,5aec1707c09cd900015d7408,64d2fd46c836a06233681665,64dc7d5a7a6b0686ea53d29c,,,,,,,ctch,resources/DY.BMP,resources/DP.BMP,Door4,-0.366101695,-0.03220339,1,0,0,0.8158,optionLeft,60,1735,1,35,0,35,0,1,,,,,,,,,,,,,,,,,,,,,,,,,,,,,,,,,,,,,,,
,,,,,,,,2023-08-16_08h41.06.241,HF_wild_card,2022.2.4,Win32,60.02040694,5aec1707c09cd900015d7408,64d2fd46c836a06233681665,64dc7d5a7a6b0686ea53d29c,,,,,,,decisionTrl,resources/DB.BMP,resources/DY.BMP,Door4,0.352542373,-0.057062147,1,0,0,0.769,optionRight,80,1815,1,36,0,36,0,1,,,,,,,,,,,,,,,,,,,,,,,,,,,,,,,,,,,,,,,
,,,,,,,,2023-08-16_08h41.06.241,HF_wild_card,2022.2.4,Win32,60.02040694,5aec1707c09cd900015d7408,64d2fd46c836a06233681665,64dc7d5a7a6b0686ea53d29c,,,,,,,decisionTrl,resources/DP.BMP,resources/DBN.BMP,Door1,-0.24180791,-0.048022599,1,0,0,1.7284,optionLeft,30,1845,1,37,0,37,0,1,,,,,,,,,,,,,,,,,,,,,,,,,,,,,,,,,,,,,,,
,,,,,,,,2023-08-16_08h41.06.241,HF_wild_card,2022.2.4,Win32,60.02040694,5aec1707c09cd900015d7408,64d2fd46c836a06233681665,64dc7d5a7a6b0686ea53d29c,,,,,,,ctch,resources/DBN.BMP,resources/DB.BMP,Door3,0.328813559,-0.040112994,1,0,0,0.957,optionRight,70,1915,1,38,0,38,0,1,,,,,,,,,,,,,,,,,,,,,,,,,,,,,,,,,,,,,,,
,,,,,,,,2023-08-16_08h41.06.241,HF_wild_card,2022.2.4,Win32,60.02040694,5aec1707c09cd900015d7408,64d2fd46c836a06233681665,64dc7d5a7a6b0686ea53d29c,,,,,,,decisionTrl,resources/DP.BMP,resources/DG.BMP,WildCard_Ex,0.292655367,-0.03559322,1,0,0,1.7258,optionRight,95,2010,1,39,0,39,0,1,,,,,,,,,,,,,,,,,,,,,,,,,,,,,,,,,,,,,,,
,,,,,,,,2023-08-16_08h41.06.241,HF_wild_card,2022.2.4,Win32,60.02040694,5aec1707c09cd900015d7408,64d2fd46c836a06233681665,64dc7d5a7a6b0686ea53d29c,,,,,,,decisionTrl,resources/DP.BMP,resources/DBN.BMP,Door1,-0.284745763,-0.045762712,1,0,0,1.4496,optionLeft,30,2040,1,40,0,40,0,1,,,,,,,,,,,,,,,,,,,,,,,,,,,,,,,,,,,,,,,
,,,,,,,,2023-08-16_08h41.06.241,HF_wild_card,2022.2.4,Win32,60.02040694,5aec1707c09cd900015d7408,64d2fd46c836a06233681665,64dc7d5a7a6b0686ea53d29c,,,,,,,decisionTrl,resources/DBN.BMP,resources/DP.BMP,Door1,0.351412429,-0.049152542,1,0,0,0.9794,optionRight,30,2070,1,41,0,41,0,1,,,,,,,,,,,,,,,,,,,,,,,,,,,,,,,,,,,,,,,
,,,,,,,,2023-08-16_08h41.06.241,HF_wild_card,2022.2.4,Win32,60.02040694,5aec1707c09cd900015d7408,64d2fd46c836a06233681665,64dc7d5a7a6b0686ea53d29c,,,,,,,decisionTrl,resources/DY.BMP,resources/DB.BMP,Door4,-0.294915254,-0.044632768,1,0,0,0.8758,optionLeft,60,2130,1,42,0,42,0,1,,,,,,,,,,,,,,,,,,,,,,,,,,,,,,,,,,,,,,,
,,,,,,,,2023-08-16_08h41.06.241,HF_wild_card,2022.2.4,Win32,60.02040694,5aec1707c09cd900015d7408,64d2fd46c836a06233681665,64dc7d5a7a6b0686ea53d29c,,,,,,,decisionTrl,resources/DB.BMP,resources/DY.BMP,Door4,0.416949153,-0.034463277,1,0,0,0.6457,optionRight,60,2190,1,43,0,43,0,1,,,,,,,,,,,,,,,,,,,,,,,,,,,,,,,,,,,,,,,
,,,,,,,,2023-08-16_08h41.06.241,HF_wild_card,2022.2.4,Win32,60.02040694,5aec1707c09cd900015d7408,64d2fd46c836a06233681665,64dc7d5a7a6b0686ea53d29c,,,,,,,,,,,,,,,,,,,,,,,,,,0,0,0,0,1,,,,,,,,,,,,,,,,,,,,,,,,,,,,,,,,,,
,,,,,,,,2023-08-16_08h41.06.241,HF_wild_card,2022.2.4,Win32,60.02040694,5aec1707c09cd900015d7408,64d2fd46c836a06233681665,64dc7d5a7a6b0686ea53d29c,,,,,,,decisionTrl,resources/DY.BMP,resources/DG.BMP,Door4,-0.361581921,-0.044632768,1,0,0,3.9329,optionLeft,80,2270,2,0,0,0,0,1,,,,,,,,,,,,,,,,,,,,,,,,,,,,,,,,,,,,,,,
,,,,,,,,2023-08-16_08h41.06.241,HF_wild_card,2022.2.4,Win32,60.02040694,5aec1707c09cd900015d7408,64d2fd46c836a06233681665,64dc7d5a7a6b0686ea53d29c,,,,,,,decisionTrl,resources/DY.BMP,resources/DB.BMP,Door3,0.363841808,-0.005084746,1,0,0,0.6448,optionRight,70,2340,2,1,0,1,0,1,,,,,,,,,,,,,,,,,,,,,,,,,,,,,,,,,,,,,,,
,,,,,,,,2023-08-16_08h41.06.241,HF_wild_card,2022.2.4,Win32,60.02040694,5aec1707c09cd900015d7408,64d2fd46c836a06233681665,64dc7d5a7a6b0686ea53d29c,,,,,,,ctch,resources/DBN.BMP,resources/DB.BMP,Door3,0.342372881,-0.019774011,1,0,0,1.5182,optionRight,70,2410,2,2,0,2,0,1,,,,,,,,,,,,,,,,,,,,,,,,,,,,,,,,,,,,,,,
,,,,,,,,2023-08-16_08h41.06.241,HF_wild_card,2022.2.4,Win32,60.02040694,5aec1707c09cd900015d7408,64d2fd46c836a06233681665,64dc7d5a7a6b0686ea53d29c,,,,,,,decisionTrl,resources/DP.BMP,resources/DBN.BMP,Door2,0.357062147,-0.002824859,1,0,0,1.229,optionRight,40,2450,2,3,0,3,0,1,,,,,,,,,,,,,,,,,,,,,,,,,,,,,,,,,,,,,,,
,,,,,,,,2023-08-16_08h41.06.241,HF_wild_card,2022.2.4,Win32,60.02040694,5aec1707c09cd900015d7408,64d2fd46c836a06233681665,64dc7d5a7a6b0686ea53d29c,,,,,,,sngl,resources/Empty.png,resources/DG.BMP,WildCard_Ex,0.472316384,-0.044632768,1,0,0,1.1621,optionRight,95,2545,2,4,0,4,0,1,,,,,,,,,,,,,,,,,,,,,,,,,,,,,,,,,,,,,,,
,,,,,,,,2023-08-16_08h41.06.241,HF_wild_card,2022.2.4,Win32,60.02040694,5aec1707c09cd900015d7408,64d2fd46c836a06233681665,64dc7d5a7a6b0686ea53d29c,,,,,,,sngl,resources/DP.BMP,resources/Empty.png,Door1,-0.318644068,-0.023163842,1,0,0,1.0262,optionLeft,30,2575,2,5,0,5,0,1,,,,,,,,,,,,,,,,,,,,,,,,,,,,,,,,,,,,,,,
,,,,,,,,2023-08-16_08h41.06.241,HF_wild_card,2022.2.4,Win32,60.02040694,5aec1707c09cd900015d7408,64d2fd46c836a06233681665,64dc7d5a7a6b0686ea53d29c,,,,,,,sngl,resources/Empty.png,resources/DB.BMP,Door3,0.357062147,-0.027683616,1,0,0,0.7601,optionRight,70,2645,2,6,0,6,0,1,,,,,,,,,,,,,,,,,,,,,,,,,,,,,,,,,,,,,,,
,,,,,,,,2023-08-16_08h41.06.241,HF_wild_card,2022.2.4,Win32,60.02040694,5aec1707c09cd900015d7408,64d2fd46c836a06233681665,64dc7d5a7a6b0686ea53d29c,,,,,,,decisionTrl,resources/DP.BMP,resources/DBN.BMP,Door1,-0.4,-0.027683616,1,0,0,1.9156,optionLeft,30,2675,2,7,0,7,0,1,,,,,,,,,,,,,,,,,,,,,,,,,,,,,,,,,,,,,,,
,,,,,,,,2023-08-16_08h41.06.241,HF_wild_card,2022.2.4,Win32,60.02040694,5aec1707c09cd900015d7408,64d2fd46c836a06233681665,64dc7d5a7a6b0686ea53d29c,,,,,,,sngl,resources/Empty.png,resources/DBN.BMP,Door2,0.46779661,-0.022033898,1,0,0,0.7195,optionRight,40,2715,2,8,0,8,0,1,,,,,,,,,,,,,,,,,,,,,,,,,,,,,,,,,,,,,,,
,,,,,,,,2023-08-16_08h41.06.241,HF_wild_card,2022.2.4,Win32,60.02040694,5aec1707c09cd900015d7408,64d2fd46c836a06233681665,64dc7d5a7a6b0686ea53d29c,,,,,,,decisionTrl,resources/DBN.BMP,resources/DP.BMP,Door1,0.386440678,-0.05480226,1,0,0,0.8995,optionRight,30,2745,2,9,0,9,0,1,,,,,,,,,,,,,,,,,,,,,,,,,,,,,,,,,,,,,,,
,,,,,,,,2023-08-16_08h41.06.241,HF_wild_card,2022.2.4,Win32,60.02040694,5aec1707c09cd900015d7408,64d2fd46c836a06233681665,64dc7d5a7a6b0686ea53d29c,,,,,,,sngl,resources/Empty.png,resources/DP.BMP,Door1,0.334463277,-0.05480226,1,0,0,0.7783,optionRight,30,2775,2,10,0,10,0,1,,,,,,,,,,,,,,,,,,,,,,,,,,,,,,,,,,,,,,,
,,,,,,,,2023-08-16_08h41.06.241,HF_wild_card,2022.2.4,Win32,60.02040694,5aec1707c09cd900015d7408,64d2fd46c836a06233681665,64dc7d5a7a6b0686ea53d29c,,,,,,,ctch,resources/DB.BMP,resources/DBN.BMP,Door3,-0.375141243,-0.042372881,1,0,0,0.8757,optionLeft,70,2845,2,11,0,11,0,1,,,,,,,,,,,,,,,,,,,,,,,,,,,,,,,,,,,,,,,
,,,,,,,,2023-08-16_08h41.06.241,HF_wild_card,2022.2.4,Win32,60.02040694,5aec1707c09cd900015d7408,64d2fd46c836a06233681665,64dc7d5a7a6b0686ea53d29c,,,,,,,decisionTrl,resources/DB.BMP,resources/DY.BMP,Door4,0.355932203,-0.033333333,1,0,0,1.6589,optionRight,80,2925,2,12,0,12,0,1,,,,,,,,,,,,,,,,,,,,,,,,,,,,,,,,,,,,,,,
,,,,,,,,2023-08-16_08h41.06.241,HF_wild_card,2022.2.4,Win32,60.02040694,5aec1707c09cd900015d7408,64d2fd46c836a06233681665,64dc7d5a7a6b0686ea53d29c,,,,,,,sngl,resources/Empty.png,resources/DY.BMP,Door4,0.374011299,-0.03220339,1,0,0,1.0949,optionRight,80,3005,2,13,0,13,0,1,,,,,,,,,,,,,,,,,,,,,,,,,,,,,,,,,,,,,,,
,,,,,,,,2023-08-16_08h41.06.241,HF_wild_card,2022.2.4,Win32,60.02040694,5aec1707c09cd900015d7408,64d2fd46c836a06233681665,64dc7d5a7a6b0686ea53d29c,,,,,,,ctch,resources/DP.BMP,resources/DY.BMP,Door4,0.388700565,-0.015254237,1,0,0,0.7239,optionRight,80,3085,2,14,0,14,0,1,,,,,,,,,,,,,,,,,,,,,,,,,,,,,,,,,,,,,,,
,,,,,,,,2023-08-16_08h41.06.241,HF_wild_card,2022.2.4,Win32,60.02040694,5aec1707c09cd900015d7408,64d2fd46c836a06233681665,64dc7d5a7a6b0686ea53d29c,,,,,,,decisionTrl,resources/DG.BMP,resources/DB.BMP,Door3,0.303954802,-0.023163842,1,0,0,0.8479,optionRight,70,3155,2,15,0,15,0,1,,,,,,,,,,,,,,,,,,,,,,,,,,,,,,,,,,,,,,,
,,,,,,,,2023-08-16_08h41.06.241,HF_wild_card,2022.2.4,Win32,60.02040694,5aec1707c09cd900015d7408,64d2fd46c836a06233681665,64dc7d5a7a6b0686ea53d29c,,,,,,,ctch,resources/DY.BMP,resources/DP.BMP,Door4,-0.411299435,-0.063841808,1,0,0,0.8854,optionLeft,80,3235,2,16,0,16,0,1,,,,,,,,,,,,,,,,,,,,,,,,,,,,,,,,,,,,,,,
,,,,,,,,2023-08-16_08h41.06.241,HF_wild_card,2022.2.4,Win32,60.02040694,5aec1707c09cd900015d7408,64d2fd46c836a06233681665,64dc7d5a7a6b0686ea53d29c,,,,,,,sngl,resources/DG.BMP,resources/Empty.png,WildCard_Ex,-0.327683616,-0.044632768,1,0,0,1.0266,optionLeft,95,3330,2,17,0,17,0,1,,,,,,,,,,,,,,,,,,,,,,,,,,,,,,,,,,,,,,,
,,,,,,,,2023-08-16_08h41.06.241,HF_wild_card,2022.2.4,Win32,60.02040694,5aec1707c09cd900015d7408,64d2fd46c836a06233681665,64dc7d5a7a6b0686ea53d29c,,,,,,,sngl,resources/DB.BMP,resources/Empty.png,Door3,-0.359322034,-0.05819209,1,0,0,2.5039,optionLeft,70,3400,2,18,0,18,0,1,,,,,,,,,,,,,,,,,,,,,,,,,,,,,,,,,,,,,,,
,,,,,,,,2023-08-16_08h41.06.241,HF_wild_card,2022.2.4,Win32,60.02040694,5aec1707c09cd900015d7408,64d2fd46c836a06233681665,64dc7d5a7a6b0686ea53d29c,,,,,,,decisionTrl,resources/DP.BMP,resources/DG.BMP,WildCard_Ex,0.389830508,-0.040112994,1,0,0,1.9778,optionRight,95,3495,2,19,0,19,0,1,,,,,,,,,,,,,,,,,,,,,,,,,,,,,,,,,,,,,,,
,,,,,,,,2023-08-16_08h41.06.241,HF_wild_card,2022.2.4,Win32,60.02040694,5aec1707c09cd900015d7408,64d2fd46c836a06233681665,64dc7d5a7a6b0686ea53d29c,,,,,,,sngl,resources/Empty.png,resources/DG.BMP,WildCard_Ex,0.282485876,-0.01299435,1,0,0,1.0446,optionRight,5,3500,2,20,0,20,0,1,,,,,,,,,,,,,,,,,,,,,,,,,,,,,,,,,,,,,,,
,,,,,,,,2023-08-16_08h41.06.241,HF_wild_card,2022.2.4,Win32,60.02040694,5aec1707c09cd900015d7408,64d2fd46c836a06233681665,64dc7d5a7a6b0686ea53d29c,,,,,,,decisionTrl,resources/DG.BMP,resources/DP.BMP,WildCard_Ex,-0.386440678,-0.016384181,1,0,0,0.694,optionLeft,5,3505,2,21,0,21,0,1,,,,,,,,,,,,,,,,,,,,,,,,,,,,,,,,,,,,,,,
,,,,,,,,2023-08-16_08h41.06.241,HF_wild_card,2022.2.4,Win32,60.02040694,5aec1707c09cd900015d7408,64d2fd46c836a06233681665,64dc7d5a7a6b0686ea53d29c,,,,,,,ctch,resources/DBN.BMP,resources/DB.BMP,Door3,0.33559322,-0.043502825,1,0,0,0.7931,optionRight,70,3575,2,22,0,22,0,1,,,,,,,,,,,,,,,,,,,,,,,,,,,,,,,,,,,,,,,
,,,,,,,,2023-08-16_08h41.06.241,HF_wild_card,2022.2.4,Win32,60.02040694,5aec1707c09cd900015d7408,64d2fd46c836a06233681665,64dc7d5a7a6b0686ea53d29c,,,,,,,decisionTrl,resources/DP.BMP,resources/DBN.BMP,Door2,0.324293785,-0.016384181,1,0,0,1.1441,optionRight,40,3615,2,23,0,23,0,1,,,,,,,,,,,,,,,,,,,,,,,,,,,,,,,,,,,,,,,
,,,,,,,,2023-08-16_08h41.06.241,HF_wild_card,2022.2.4,Win32,60.02040694,5aec1707c09cd900015d7408,64d2fd46c836a06233681665,64dc7d5a7a6b0686ea53d29c,,,,,,,ctch,resources/DB.BMP,resources/DBN.BMP,Door3,-0.362711864,-0.014124294,1,0,0,0.7808,optionLeft,70,3685,2,24,0,24,0,1,,,,,,,,,,,,,,,,,,,,,,,,,,,,,,,,,,,,,,,
,,,,,,,,2023-08-16_08h41.06.241,HF_wild_card,2022.2.4,Win32,60.02040694,5aec1707c09cd900015d7408,64d2fd46c836a06233681665,64dc7d5a7a6b0686ea53d29c,,,,,,,decisionTrl,resources/DY.BMP,resources/DB.BMP,Door4,-0.341242938,-0.052542373,1,0,0,1.4171,optionLeft,80,3765,2,25,0,25,0,1,,,,,,,,,,,,,,,,,,,,,,,,,,,,,,,,,,,,,,,
,,,,,,,,2023-08-16_08h41.06.241,HF_wild_card,2022.2.4,Win32,60.02040694,5aec1707c09cd900015d7408,64d2fd46c836a06233681665,64dc7d5a7a6b0686ea53d29c,,,,,,,sngl,resources/DY.BMP,resources/Empty.png,Door4,-0.423728814,-0.020903955,1,0,0,0.6095,optionLeft,60,3825,2,26,0,26,0,1,,,,,,,,,,,,,,,,,,,,,,,,,,,,,,,,,,,,,,,
,,,,,,,,2023-08-16_08h41.06.241,HF_wild_card,2022.2.4,Win32,60.02040694,5aec1707c09cd900015d7408,64d2fd46c836a06233681665,64dc7d5a7a6b0686ea53d29c,,,,,,,sngl,resources/DG.BMP,resources/Empty.png,WildCard_Ex,-0.325423729,-0.01299435,1,0,0,0.8095,optionLeft,5,3830,2,27,0,27,0,1,,,,,,,,,,,,,,,,,,,,,,,,,,,,,,,,,,,,,,,
,,,,,,,,2023-08-16_08h41.06.241,HF_wild_card,2022.2.4,Win32,60.02040694,5aec1707c09cd900015d7408,64d2fd46c836a06233681665,64dc7d5a7a6b0686ea53d29c,,,,,,,sngl,resources/DBN.BMP,resources/Empty.png,Door2,-0.317514124,0.006214689,1,0,0,0.6762,optionLeft,20,3850,2,28,0,28,0,1,,,,,,,,,,,,,,,,,,,,,,,,,,,,,,,,,,,,,,,
,,,,,,,,2023-08-16_08h41.06.241,HF_wild_card,2022.2.4,Win32,60.02040694,5aec1707c09cd900015d7408,64d2fd46c836a06233681665,64dc7d5a7a6b0686ea53d29c,,,,,,,decisionTrl,resources/DY.BMP,resources/DB.BMP,Door4,-0.404519774,-0.071751412,1,0,0,1.4126,optionLeft,60,3910,2,29,0,29,0,1,,,,,,,,,,,,,,,,,,,,,,,,,,,,,,,,,,,,,,,
,,,,,,,,2023-08-16_08h41.06.241,HF_wild_card,2022.2.4,Win32,60.02040694,5aec1707c09cd900015d7408,64d2fd46c836a06233681665,64dc7d5a7a6b0686ea53d29c,,,,,,,decisionTrl,resources/DBN.BMP,resources/DP.BMP,Door1,0.436158192,-0.050282486,1,0,0,1.0317,optionRight,30,3940,2,30,0,30,0,1,,,,,,,,,,,,,,,,,,,,,,,,,,,,,,,,,,,,,,,
,,,,,,,,2023-08-16_08h41.06.241,HF_wild_card,2022.2.4,Win32,60.02040694,5aec1707c09cd900015d7408,64d2fd46c836a06233681665,64dc7d5a7a6b0686ea53d29c,,,,,,,decisionTrl,resources/DBN.BMP,resources/DP.BMP,Door1,0.368361582,-0.088700565,1,0,0,0.9221,optionRight,30,3970,2,31,0,31,0,1,,,,,,,,,,,,,,,,,,,,,,,,,,,,,,,,,,,,,,,
,,,,,,,,2023-08-16_08h41.06.241,HF_wild_card,2022.2.4,Win32,60.02040694,5aec1707c09cd900015d7408,64d2fd46c836a06233681665,64dc7d5a7a6b0686ea53d29c,,,,,,,decisionTrl,resources/DP.BMP,resources/DBN.BMP,Door2,0.333333333,-0.043502825,1,0,0,0.6779,optionRight,20,3990,2,32,0,32,0,1,,,,,,,,,,,,,,,,,,,,,,,,,,,,,,,,,,,,,,,
,,,,,,,,2023-08-16_08h41.06.241,HF_wild_card,2022.2.4,Win32,60.02040694,5aec1707c09cd900015d7408,64d2fd46c836a06233681665,64dc7d5a7a6b0686ea53d29c,,,,,,,decisionTrl,resources/DB.BMP,resources/DY.BMP,Door4,0.53559322,-0.115819209,1,0,0,1.2941,optionRight,80,4070,2,33,0,33,0,1,,,,,,,,,,,,,,,,,,,,,,,,,,,,,,,,,,,,,,,
,,,,,,,,2023-08-16_08h41.06.241,HF_wild_card,2022.2.4,Win32,60.02040694,5aec1707c09cd900015d7408,64d2fd46c836a06233681665,64dc7d5a7a6b0686ea53d29c,,,,,,,decisionTrl,resources/DY.BMP,resources/DB.BMP,Door4,-0.337853107,-0.044632768,1,0,0,0.8274,optionLeft,60,4130,2,34,0,34,0,1,,,,,,,,,,,,,,,,,,,,,,,,,,,,,,,,,,,,,,,
,,,,,,,,2023-08-16_08h41.06.241,HF_wild_card,2022.2.4,Win32,60.02040694,5aec1707c09cd900015d7408,64d2fd46c836a06233681665,64dc7d5a7a6b0686ea53d29c,,,,,,,decisionTrl,resources/DG.BMP,resources/DBN.BMP,WildCard_Ex,-0.363841808,-0.057062147,1,0,0,13.6739,optionLeft,95,4225,2,35,0,35,0,1,,,,,,,,,,,,,,,,,,,,,,,,,,,,,,,,,,,,,,,
,,,,,,,,2023-08-16_08h41.06.241,HF_wild_card,2022.2.4,Win32,60.02040694,5aec1707c09cd900015d7408,64d2fd46c836a06233681665,64dc7d5a7a6b0686ea53d29c,,,,,,,decisionTrl,resources/DB.BMP,resources/DY.BMP,Door4,0.33559322,-0.072881356,1,0,0,1.6921,optionRight,60,4285,2,36,0,36,0,1,,,,,,,,,,,,,,,,,,,,,,,,,,,,,,,,,,,,,,,
,,,,,,,,2023-08-16_08h41.06.241,HF_wild_card,2022.2.4,Win32,60.02040694,5aec1707c09cd900015d7408,64d2fd46c836a06233681665,64dc7d5a7a6b0686ea53d29c,,,,,,,ctch,resources/DP.BMP,resources/DY.BMP,Door4,0.390960452,-0.051412429,1,0,0,1.0438,optionRight,60,4345,2,37,0,37,0,1,,,,,,,,,,,,,,,,,,,,,,,,,,,,,,,,,,,,,,,
,,,,,,,,2023-08-16_08h41.06.241,HF_wild_card,2022.2.4,Win32,60.02040694,5aec1707c09cd900015d7408,64d2fd46c836a06233681665,64dc7d5a7a6b0686ea53d29c,,,,,,,ctch,resources/DY.BMP,resources/DP.BMP,Door4,-0.357062147,-0.068361582,1,0,0,0.6787,optionLeft,60,4405,2,38,0,38,0,1,,,,,,,,,,,,,,,,,,,,,,,,,,,,,,,,,,,,,,,
,,,,,,,,2023-08-16_08h41.06.241,HF_wild_card,2022.2.4,Win32,60.02040694,5aec1707c09cd900015d7408,64d2fd46c836a06233681665,64dc7d5a7a6b0686ea53d29c,,,,,,,decisionTrl,resources/DBN.BMP,resources/DP.BMP,Door2,-0.325423729,-0.029943503,1,0,0,1.5449,optionLeft,40,4445,2,39,0,39,0,1,,,,,,,,,,,,,,,,,,,,,,,,,,,,,,,,,,,,,,,
,,,,,,,,2023-08-16_08h41.06.241,HF_wild_card,2022.2.4,Win32,60.02040694,5aec1707c09cd900015d7408,64d2fd46c836a06233681665,64dc7d5a7a6b0686ea53d29c,,,,,,,decisionTrl,resources/DBN.BMP,resources/DG.BMP,Door2,-0.411299435,-0.025423729,1,0,0,0.7929,optionLeft,20,4465,2,40,0,40,0,1,,,,,,,,,,,,,,,,,,,,,,,,,,,,,,,,,,,,,,,
,,,,,,,,2023-08-16_08h41.06.241,HF_wild_card,2022.2.4,Win32,60.02040694,5aec1707c09cd900015d7408,64d2fd46c836a06233681665,64dc7d5a7a6b0686ea53d29c,,,,,,,decisionTrl,resources/DB.BMP,resources/DY.BMP,Door4,0.338983051,-0.055932203,1,0,0,0.678,optionRight,60,4525,2,41,0,41,0,1,,,,,,,,,,,,,,,,,,,,,,,,,,,,,,,,,,,,,,,
,,,,,,,,2023-08-16_08h41.06.241,HF_wild_card,2022.2.4,Win32,60.02040694,5aec1707c09cd900015d7408,64d2fd46c836a06233681665,64dc7d5a7a6b0686ea53d29c,,,,,,,decisionTrl,resources/DB.BMP,resources/DG.BMP,Door3,-0.302824859,-0.017514124,1,0,0,0.6447,optionLeft,70,4595,2,42,0,42,0,1,,,,,,,,,,,,,,,,,,,,,,,,,,,,,,,,,,,,,,,
,,,,,,,,2023-08-16_08h41.06.241,HF_wild_card,2022.2.4,Win32,60.02040694,5aec1707c09cd900015d7408,64d2fd46c836a06233681665,64dc7d5a7a6b0686ea53d29c,,,,,,,decisionTrl,resources/DG.BMP,resources/DY.BMP,WildCard_Ex,-0.302824859,-0.079661017,1,0,0,1.0577,optionLeft,95,4690,2,43,0,43,0,1,,,,,,,,,,,,,,,,,,,,,,,,,,,,,,,,,,,,,,,
,,,,,,,,2023-08-16_08h41.06.241,HF_wild_card,2022.2.4,Win32,60.02040694,5aec1707c09cd900015d7408,64d2fd46c836a06233681665,64dc7d5a7a6b0686ea53d29c,,,,,,,,,,,,,,,,,,,,,,,,,,1,0,1,0,1,,,,,,,,,,,,,,,,,,,,,,,,,,,,,,,,,,
,,,,,,,,2023-08-16_08h41.06.241,HF_wild_card,2022.2.4,Win32,60.02040694,5aec1707c09cd900015d7408,64d2fd46c836a06233681665,64dc7d5a7a6b0686ea53d29c,,,,,,,ctch,resources/DBN.BMP,resources/DB.BMP,Door3,0.413559322,-0.026553672,1,0,0,1.3064,optionRight,70,4760,3,0,0,0,0,1,,,,,,,,,,,,,,,,,,,,,,,,,,,,,,,,,,,,,,,
,,,,,,,,2023-08-16_08h41.06.241,HF_wild_card,2022.2.4,Win32,60.02040694,5aec1707c09cd900015d7408,64d2fd46c836a06233681665,64dc7d5a7a6b0686ea53d29c,,,,,,,sngl,resources/Empty.png,resources/DP.BMP,Door1,0.411299435,0.01299435,1,0,0,0.7107,optionRight,30,4790,3,1,0,1,0,1,,,,,,,,,,,,,,,,,,,,,,,,,,,,,,,,,,,,,,,
,,,,,,,,2023-08-16_08h41.06.241,HF_wild_card,2022.2.4,Win32,60.02040694,5aec1707c09cd900015d7408,64d2fd46c836a06233681665,64dc7d5a7a6b0686ea53d29c,,,,,,,decisionTrl,resources/DG.BMP,resources/DB.BMP,Door3,0.428248588,-0.034463277,1,0,0,1.0451,optionRight,70,4860,3,2,0,2,0,1,,,,,,,,,,,,,,,,,,,,,,,,,,,,,,,,,,,,,,,
,,,,,,,,2023-08-16_08h41.06.241,HF_wild_card,2022.2.4,Win32,60.02040694,5aec1707c09cd900015d7408,64d2fd46c836a06233681665,64dc7d5a7a6b0686ea53d29c,,,,,,,ctch,resources/DP.BMP,resources/DY.BMP,Door4,0.378531073,-0.040112994,1,0,0,1.1455,optionRight,80,4940,3,3,0,3,0,1,,,,,,,,,,,,,,,,,,,,,,,,,,,,,,,,,,,,,,,
,,,,,,,,2023-08-16_08h41.06.241,HF_wild_card,2022.2.4,Win32,60.02040694,5aec1707c09cd900015d7408,64d2fd46c836a06233681665,64dc7d5a7a6b0686ea53d29c,,,,,,,ctch,resources/DB.BMP,resources/DBN.BMP,Door3,-0.401129944,-0.003954802,1,0,0,0.7111,optionLeft,70,5010,3,4,0,4,0,1,,,,,,,,,,,,,,,,,,,,,,,,,,,,,,,,,,,,,,,
,,,,,,,,2023-08-16_08h41.06.241,HF_wild_card,2022.2.4,Win32,60.02040694,5aec1707c09cd900015d7408,64d2fd46c836a06233681665,64dc7d5a7a6b0686ea53d29c,,,,,,,decisionTrl,resources/DY.BMP,resources/DB.BMP,Door3,0.315254237,-0.00960452,1,0,0,0.595,optionRight,70,5080,3,5,0,5,0,1,,,,,,,,,,,,,,,,,,,,,,,,,,,,,,,,,,,,,,,
,,,,,,,,2023-08-16_08h41.06.241,HF_wild_card,2022.2.4,Win32,60.02040694,5aec1707c09cd900015d7408,64d2fd46c836a06233681665,64dc7d5a7a6b0686ea53d29c,,,,,,,decisionTrl,resources/DY.BMP,resources/DG.BMP,Door4,-0.325423729,-0.043502825,1,0,0,0.6105,optionLeft,60,5140,3,6,0,6,0,1,,,,,,,,,,,,,,,,,,,,,,,,,,,,,,,,,,,,,,,
,,,,,,,,2023-08-16_08h41.06.241,HF_wild_card,2022.2.4,Win32,60.02040694,5aec1707c09cd900015d7408,64d2fd46c836a06233681665,64dc7d5a7a6b0686ea53d29c,,,,,,,sngl,resources/DB.BMP,resources/Empty.png,Door3,-0.293785311,-0.045762712,1,0,0,0.7946,optionLeft,70,5210,3,7,0,7,0,1,,,,,,,,,,,,,,,,,,,,,,,,,,,,,,,,,,,,,,,
,,,,,,,,2023-08-16_08h41.06.241,HF_wild_card,2022.2.4,Win32,60.02040694,5aec1707c09cd900015d7408,64d2fd46c836a06233681665,64dc7d5a7a6b0686ea53d29c,,,,,,,decisionTrl,resources/DP.BMP,resources/DBN.BMP,Door2,0.337853107,-0.037853107,1,0,0,1.0774,optionRight,40,5250,3,8,0,8,0,1,,,,,,,,,,,,,,,,,,,,,,,,,,,,,,,,,,,,,,,
,,,,,,,,2023-08-16_08h41.06.241,HF_wild_card,2022.2.4,Win32,60.02040694,5aec1707c09cd900015d7408,64d2fd46c836a06233681665,64dc7d5a7a6b0686ea53d29c,,,,,,,decisionTrl,resources/DBN.BMP,resources/DP.BMP,Door2,-0.283615819,-0.05480226,1,0,0,0.6593,optionLeft,40,5290,3,9,0,9,0,1,,,,,,,,,,,,,,,,,,,,,,,,,,,,,,,,,,,,,,,
,,,,,,,,2023-08-16_08h41.06.241,HF_wild_card,2022.2.4,Win32,60.02040694,5aec1707c09cd900015d7408,64d2fd46c836a06233681665,64dc7d5a7a6b0686ea53d29c,,,,,,,decisionTrl,resources/DBN.BMP,resources/DG.BMP,WildCard_Ex,0.327683616,-0.03559322,1,0,0,0.6554,optionRight,5,5295,3,10,0,10,0,1,,,,,,,,,,,,,,,,,,,,,,,,,,,,,,,,,,,,,,,
,,,,,,,,2023-08-16_08h41.06.241,HF_wild_card,2022.2.4,Win32,60.02040694,5aec1707c09cd900015d7408,64d2fd46c836a06233681665,64dc7d5a7a6b0686ea53d29c,,,,,,,sngl,resources/DP.BMP,resources/Empty.png,Door1,-0.324293785,-0.052542373,1,0,0,0.7456,optionLeft,30,5325,3,11,0,11,0,1,,,,,,,,,,,,,,,,,,,,,,,,,,,,,,,,,,,,,,,
,,,,,,,,2023-08-16_08h41.06.241,HF_wild_card,2022.2.4,Win32,60.02040694,5aec1707c09cd900015d7408,64d2fd46c836a06233681665,64dc7d5a7a6b0686ea53d29c,,,,,,,decisionTrl,resources/DG.BMP,resources/DBN.BMP,WildCard_Ex,-0.333333333,-0.076271186,1,0,0,1.6772,optionLeft,95,5420,3,12,0,12,0,1,,,,,,,,,,,,,,,,,,,,,,,,,,,,,,,,,,,,,,,
,,,,,,,,2023-08-16_08h41.06.241,HF_wild_card,2022.2.4,Win32,60.02040694,5aec1707c09cd900015d7408,64d2fd46c836a06233681665,64dc7d5a7a6b0686ea53d29c,,,,,,,decisionTrl,resources/DP.BMP,resources/DBN.BMP,Door1,-0.33559322,-0.069491525,1,0,0,1.1438,optionLeft,30,5450,3,13,0,13,0,1,,,,,,,,,,,,,,,,,,,,,,,,,,,,,,,,,,,,,,,
,,,,,,,,2023-08-16_08h41.06.241,HF_wild_card,2022.2.4,Win32,60.02040694,5aec1707c09cd900015d7408,64d2fd46c836a06233681665,64dc7d5a7a6b0686ea53d29c,,,,,,,sngl,resources/Empty.png,resources/DBN.BMP,Door2,0.277966102,-0.015254237,1,0,0,0.9604,optionRight,20,5470,3,14,0,14,0,1,,,,,,,,,,,,,,,,,,,,,,,,,,,,,,,,,,,,,,,
,,,,,,,,2023-08-16_08h41.06.241,HF_wild_card,2022.2.4,Win32,60.02040694,5aec1707c09cd900015d7408,64d2fd46c836a06233681665,64dc7d5a7a6b0686ea53d29c,,,,,,,ctch,resources/DB.BMP,resources/DBN.BMP,Door3,-0.387570621,-0.05480226,1,0,0,0.695,optionLeft,70,5540,3,15,0,15,0,1,,,,,,,,,,,,,,,,,,,,,,,,,,,,,,,,,,,,,,,
,,,,,,,,2023-08-16_08h41.06.241,HF_wild_card,2022.2.4,Win32,60.02040694,5aec1707c09cd900015d7408,64d2fd46c836a06233681665,64dc7d5a7a6b0686ea53d29c,,,,,,,decisionTrl,resources/DG.BMP,resources/DP.BMP,WildCard_Ex,-0.322033898,-0.024293785,1,0,0,1.0071,optionLeft,5,5545,3,16,0,16,0,1,,,,,,,,,,,,,,,,,,,,,,,,,,,,,,,,,,,,,,,
,,,,,,,,2023-08-16_08h41.06.241,HF_wild_card,2022.2.4,Win32,60.02040694,5aec1707c09cd900015d7408,64d2fd46c836a06233681665,64dc7d5a7a6b0686ea53d29c,,,,,,,sngl,resources/Empty.png,resources/DB.BMP,Door3,0.383050847,-0.038983051,1,0,0,0.7276,optionRight,70,5615,3,17,0,17,0,1,,,,,,,,,,,,,,,,,,,,,,,,,,,,,,,,,,,,,,,
,,,,,,,,2023-08-16_08h41.06.241,HF_wild_card,2022.2.4,Win32,60.02040694,5aec1707c09cd900015d7408,64d2fd46c836a06233681665,64dc7d5a7a6b0686ea53d29c,,,,,,,decisionTrl,resources/DB.BMP,resources/DG.BMP,WildCard_Ex,0.316384181,-0.064971751,1,0,0,0.9647,optionRight,95,5710,3,18,0,18,0,1,,,,,,,,,,,,,,,,,,,,,,,,,,,,,,,,,,,,,,,
,,,,,,,,2023-08-16_08h41.06.241,HF_wild_card,2022.2.4,Win32,60.02040694,5aec1707c09cd900015d7408,64d2fd46c836a06233681665,64dc7d5a7a6b0686ea53d29c,,,,,,,ctch,resources/DY.BMP,resources/DP.BMP,Door4,-0.385310734,-0.043502825,1,0,0,0.7246,optionLeft,80,5790,3,19,0,19,0,1,,,,,,,,,,,,,,,,,,,,,,,,,,,,,,,,,,,,,,,
,,,,,,,,2023-08-16_08h41.06.241,HF_wild_card,2022.2.4,Win32,60.02040694,5aec1707c09cd900015d7408,64d2fd46c836a06233681665,64dc7d5a7a6b0686ea53d29c,,,,,,,sngl,resources/DG.BMP,resources/Empty.png,WildCard_Ex,-0.333333333,-0.05480226,1,0,0,0.8469,optionLeft,95,5885,3,20,0,20,0,1,,,,,,,,,,,,,,,,,,,,,,,,,,,,,,,,,,,,,,,
,,,,,,,,2023-08-16_08h41.06.241,HF_wild_card,2022.2.4,Win32,60.02040694,5aec1707c09cd900015d7408,64d2fd46c836a06233681665,64dc7d5a7a6b0686ea53d29c,,,,,,,decisionTrl,resources/DBN.BMP,resources/DP.BMP,Door2,-0.275706215,-0.060451977,1,0,0,1.0848,optionLeft,20,5905,3,21,0,21,0,1,,,,,,,,,,,,,,,,,,,,,,,,,,,,,,,,,,,,,,,
,,,,,,,,2023-08-16_08h41.06.241,HF_wild_card,2022.2.4,Win32,60.02040694,5aec1707c09cd900015d7408,64d2fd46c836a06233681665,64dc7d5a7a6b0686ea53d29c,,,,,,,decisionTrl,resources/DB.BMP,resources/DY.BMP,Door4,0.396610169,-0.020903955,1,0,0,0.8402,optionRight,80,5985,3,22,0,22,0,1,,,,,,,,,,,,,,,,,,,,,,,,,,,,,,,,,,,,,,,
,,,,,,,,2023-08-16_08h41.06.241,HF_wild_card,2022.2.4,Win32,60.02040694,5aec1707c09cd900015d7408,64d2fd46c836a06233681665,64dc7d5a7a6b0686ea53d29c,,,,,,,decisionTrl,resources/DP.BMP,resources/DBN.BMP,Door1,-0.367231638,-0.092090395,1,0,0,1.4138,optionLeft,30,6015,3,23,0,23,0,1,,,,,,,,,,,,,,,,,,,,,,,,,,,,,,,,,,,,,,,
,,,,,,,,2023-08-16_08h41.06.241,HF_wild_card,2022.2.4,Win32,60.02040694,5aec1707c09cd900015d7408,64d2fd46c836a06233681665,64dc7d5a7a6b0686ea53d29c,,,,,,,decisionTrl,resources/DBN.BMP,resources/DP.BMP,Door2,-0.383050847,-0.097740113,1,0,0,1.1315,optionLeft,40,6055,3,24,0,24,0,1,,,,,,,,,,,,,,,,,,,,,,,,,,,,,,,,,,,,,,,
,,,,,,,,2023-08-16_08h41.06.241,HF_wild_card,2022.2.4,Win32,60.02040694,5aec1707c09cd900015d7408,64d2fd46c836a06233681665,64dc7d5a7a6b0686ea53d29c,,,,,,,sngl,resources/DY.BMP,resources/Empty.png,Door4,-0.306214689,-0.124858757,1,0,0,1.1172,optionLeft,80,6135,3,25,0,25,0,1,,,,,,,,,,,,,,,,,,,,,,,,,,,,,,,,,,,,,,,
,,,,,,,,2023-08-16_08h41.06.241,HF_wild_card,2022.2.4,Win32,60.02040694,5aec1707c09cd900015d7408,64d2fd46c836a06233681665,64dc7d5a7a6b0686ea53d29c,,,,,,,ctch,resources/DY.BMP,resources/DP.BMP,Door1,0.403389831,-0.092090395,1,0,0,0.7106,optionRight,30,6165,3,26,0,26,0,1,,,,,,,,,,,,,,,,,,,,,,,,,,,,,,,,,,,,,,,
,,,,,,,,2023-08-16_08h41.06.241,HF_wild_card,2022.2.4,Win32,60.02040694,5aec1707c09cd900015d7408,64d2fd46c836a06233681665,64dc7d5a7a6b0686ea53d29c,,,,,,,sngl,resources/Empty.png,resources/DY.BMP,Door4,0.340112994,-0.044632768,1,0,0,0.9739,optionRight,60,6225,3,27,0,27,0,1,,,,,,,,,,,,,,,,,,,,,,,,,,,,,,,,,,,,,,,
,,,,,,,,2023-08-16_08h41.06.241,HF_wild_card,2022.2.4,Win32,60.02040694,5aec1707c09cd900015d7408,64d2fd46c836a06233681665,64dc7d5a7a6b0686ea53d29c,,,,,,,decisionTrl,resources/DY.BMP,resources/DB.BMP,Door4,-0.293785311,-0.048022599,1,0,0,0.7016,optionLeft,80,6305,3,28,0,28,0,1,,,,,,,,,,,,,,,,,,,,,,,,,,,,,,,,,,,,,,,
,,,,,,,,2023-08-16_08h41.06.241,HF_wild_card,2022.2.4,Win32,60.02040694,5aec1707c09cd900015d7408,64d2fd46c836a06233681665,64dc7d5a7a6b0686ea53d29c,,,,,,,sngl,resources/Empty.png,resources/DG.BMP,WildCard_Ex,0.410169492,-0.034463277,1,0,0,0.6231,optionRight,5,6310,3,29,0,29,0,1,,,,,,,,,,,,,,,,,,,,,,,,,,,,,,,,,,,,,,,
,,,,,,,,2023-08-16_08h41.06.241,HF_wild_card,2022.2.4,Win32,60.02040694,5aec1707c09cd900015d7408,64d2fd46c836a06233681665,64dc7d5a7a6b0686ea53d29c,,,,,,,decisionTrl,resources/DY.BMP,resources/DB.BMP,Door4,-0.293785311,-0.041242938,1,0,0,0.7113,optionLeft,60,6370,3,30,0,30,0,1,,,,,,,,,,,,,,,,,,,,,,,,,,,,,,,,,,,,,,,
,,,,,,,,2023-08-16_08h41.06.241,HF_wild_card,2022.2.4,Win32,60.02040694,5aec1707c09cd900015d7408,64d2fd46c836a06233681665,64dc7d5a7a6b0686ea53d29c,,,,,,,sngl,resources/Empty.png,resources/DG.BMP,WildCard_Ex,0.35480226,-0.069491525,1,0,0,0.6632,optionRight,95,6465,3,31,0,31,0,1,,,,,,,,,,,,,,,,,,,,,,,,,,,,,,,,,,,,,,,
,,,,,,,,2023-08-16_08h41.06.241,HF_wild_card,2022.2.4,Win32,60.02040694,5aec1707c09cd900015d7408,64d2fd46c836a06233681665,64dc7d5a7a6b0686ea53d29c,,,,,,,decisionTrl,resources/DB.BMP,resources/DY.BMP,Door3,-0.26779661,-0.066101695,1,0,0,0.9616,optionLeft,70,6535,3,32,0,32,0,1,,,,,,,,,,,,,,,,,,,,,,,,,,,,,,,,,,,,,,,
,,,,,,,,2023-08-16_08h41.06.241,HF_wild_card,2022.2.4,Win32,60.02040694,5aec1707c09cd900015d7408,64d2fd46c836a06233681665,64dc7d5a7a6b0686ea53d29c,,,,,,,decisionTrl,resources/DB.BMP,resources/DY.BMP,Door3,-0.33220339,-0.042372881,1,0,0,0.5934,optionLeft,70,6605,3,33,0,33,0,1,,,,,,,,,,,,,,,,,,,,,,,,,,,,,,,,,,,,,,,
,,,,,,,,2023-08-16_08h41.06.241,HF_wild_card,2022.2.4,Win32,60.02040694,5aec1707c09cd900015d7408,64d2fd46c836a06233681665,64dc7d5a7a6b0686ea53d29c,,,,,,,decisionTrl,resources/DBN.BMP,resources/DP.BMP,Door1,0.390960452,-0.144067797,1,0,0,0.9627,optionRight,30,6635,3,34,0,34,0,1,,,,,,,,,,,,,,,,,,,,,,,,,,,,,,,,,,,,,,,
,,,,,,,,2023-08-16_08h41.06.241,HF_wild_card,2022.2.4,Win32,60.02040694,5aec1707c09cd900015d7408,64d2fd46c836a06233681665,64dc7d5a7a6b0686ea53d29c,,,,,,,decisionTrl,resources/DP.BMP,resources/DG.BMP,WildCard_Ex,0.263276836,-0.027683616,1,0,0,1.6631,optionRight,5,6640,3,35,0,35,0,1,,,,,,,,,,,,,,,,,,,,,,,,,,,,,,,,,,,,,,,
,,,,,,,,2023-08-16_08h41.06.241,HF_wild_card,2022.2.4,Win32,60.02040694,5aec1707c09cd900015d7408,64d2fd46c836a06233681665,64dc7d5a7a6b0686ea53d29c,,,,,,,decisionTrl,resources/DG.BMP,resources/DY.BMP,Door4,0.438418079,-0.083050847,1,0,0,0.9123,optionRight,60,6700,3,36,0,36,0,1,,,,,,,,,,,,,,,,,,,,,,,,,,,,,,,,,,,,,,,
,,,,,,,,2023-08-16_08h41.06.241,HF_wild_card,2022.2.4,Win32,60.02040694,5aec1707c09cd900015d7408,64d2fd46c836a06233681665,64dc7d5a7a6b0686ea53d29c,,,,,,,sngl,resources/DG.BMP,resources/Empty.png,WildCard_Ex,-0.436158192,-0.088700565,1,0,0,0.6955,optionLeft,5,6705,3,37,0,37,0,1,,,,,,,,,,,,,,,,,,,,,,,,,,,,,,,,,,,,,,,
,,,,,,,,2023-08-16_08h41.06.241,HF_wild_card,2022.2.4,Win32,60.02040694,5aec1707c09cd900015d7408,64d2fd46c836a06233681665,64dc7d5a7a6b0686ea53d29c,,,,,,,decisionTrl,resources/DP.BMP,resources/DBN.BMP,Door2,0.458757062,-0.051412429,1,0,0,1.2586,optionRight,40,6745,3,38,0,38,0,1,,,,,,,,,,,,,,,,,,,,,,,,,,,,,,,,,,,,,,,
,,,,,,,,2023-08-16_08h41.06.241,HF_wild_card,2022.2.4,Win32,60.02040694,5aec1707c09cd900015d7408,64d2fd46c836a06233681665,64dc7d5a7a6b0686ea53d29c,,,,,,,ctch,resources/DP.BMP,resources/DY.BMP,Door4,0.420338983,-0.078531073,1,0,0,0.9944,optionRight,60,6805,3,39,0,39,0,1,,,,,,,,,,,,,,,,,,,,,,,,,,,,,,,,,,,,,,,
,,,,,,,,2023-08-16_08h41.06.241,HF_wild_card,2022.2.4,Win32,60.02040694,5aec1707c09cd900015d7408,64d2fd46c836a06233681665,64dc7d5a7a6b0686ea53d29c,,,,,,,sngl,resources/DBN.BMP,resources/Empty.png,Door2,-0.308474576,-0.075141243,1,0,0,0.8961,optionLeft,40,6845,3,40,0,40,0,1,,,,,,,,,,,,,,,,,,,,,,,,,,,,,,,,,,,,,,,
,,,,,,,,2023-08-16_08h41.06.241,HF_wild_card,2022.2.4,Win32,60.02040694,5aec1707c09cd900015d7408,64d2fd46c836a06233681665,64dc7d5a7a6b0686ea53d29c,,,,,,,decisionTrl,resources/DB.BMP,resources/DY.BMP,Door4,0.474576271,-0.025423729,1,0,0,0.9082,optionRight,80,6925,3,41,0,41,0,1,,,,,,,,,,,,,,,,,,,,,,,,,,,,,,,,,,,,,,,
,,,,,,,,2023-08-16_08h41.06.241,HF_wild_card,2022.2.4,Win32,60.02040694,5aec1707c09cd900015d7408,64d2fd46c836a06233681665,64dc7d5a7a6b0686ea53d29c,,,,,,,ctch,resources/DBN.BMP,resources/DB.BMP,Door3,0.359322034,-0.053672316,1,0,0,0.7609,optionRight,70,6995,3,42,0,42,0,1,,,,,,,,,,,,,,,,,,,,,,,,,,,,,,,,,,,,,,,
,,,,,,,,2023-08-16_08h41.06.241,HF_wild_card,2022.2.4,Win32,60.02040694,5aec1707c09cd900015d7408,64d2fd46c836a06233681665,64dc7d5a7a6b0686ea53d29c,,,,,,,decisionTrl,resources/DY.BMP,resources/DB.BMP,Door3,0.455367232,-0.081920904,1,0,0,1.3418,optionRight,70,7065,3,43,0,43,0,1,,,,,,,,,,,,,,,,,,,,,,,,,,,,,,,,,,,,,,,
,,,,,,,,2023-08-16_08h41.06.241,HF_wild_card,2022.2.4,Win32,60.02040694,5aec1707c09cd900015d7408,64d2fd46c836a06233681665,64dc7d5a7a6b0686ea53d29c,,,,,,,,,,,,,,,,,,,,,,,,,,2,0,2,0,1,,,,,,,,,,,,,,,,,,,,,,,,,,,,,,,,,,
,,,,,,,,2023-08-16_08h41.06.241,HF_wild_card,2022.2.4,Win32,60.02040694,5aec1707c09cd900015d7408,64d2fd46c836a06233681665,64dc7d5a7a6b0686ea53d29c,,,,,,,ctch,resources/DY.BMP,resources/DP.BMP,Door4,-0.367231638,-0.097740113,1,0,0,1.3327,optionLeft,80,7145,4,0,0,0,0,1,,,,,,,,,,,,,,,,,,,,,,,,,,,,,,,,,,,,,,,
,,,,,,,,2023-08-16_08h41.06.241,HF_wild_card,2022.2.4,Win32,60.02040694,5aec1707c09cd900015d7408,64d2fd46c836a06233681665,64dc7d5a7a6b0686ea53d29c,,,,,,,sngl,resources/Empty.png,resources/DBN.BMP,Door2,0.394350282,-0.001694915,1,0,0,0.5347,optionRight,40,7185,4,1,0,1,0,1,,,,,,,,,,,,,,,,,,,,,,,,,,,,,,,,,,,,,,,
,,,,,,,,2023-08-16_08h41.06.241,HF_wild_card,2022.2.4,Win32,60.02040694,5aec1707c09cd900015d7408,64d2fd46c836a06233681665,64dc7d5a7a6b0686ea53d29c,,,,,,,sngl,resources/DY.BMP,resources/Empty.png,Door4,-0.388700565,-0.028813559,1,0,0,0.6481,optionLeft,60,7245,4,2,0,2,0,1,,,,,,,,,,,,,,,,,,,,,,,,,,,,,,,,,,,,,,,
,,,,,,,,2023-08-16_08h41.06.241,HF_wild_card,2022.2.4,Win32,60.02040694,5aec1707c09cd900015d7408,64d2fd46c836a06233681665,64dc7d5a7a6b0686ea53d29c,,,,,,,sngl,resources/Empty.png,resources/DR.BMP,WildCard_NonEx,0.372881356,-0.044632768,1,0,0,0.6608,optionRight,55,7300,4,3,0,3,0,1,,,,,,,,,,,,,,,,,,,,,,,,,,,,,,,,,,,,,,,
,,,,,,,,2023-08-16_08h41.06.241,HF_wild_card,2022.2.4,Win32,60.02040694,5aec1707c09cd900015d7408,64d2fd46c836a06233681665,64dc7d5a7a6b0686ea53d29c,,,,,,,decisionTrl,resources/DBN.BMP,resources/DP.BMP,Door1,0.344632768,-0.066101695,1,0,0,2.0275,optionRight,30,7330,4,4,0,4,0,1,,,,,,,,,,,,,,,,,,,,,,,,,,,,,,,,,,,,,,,
,,,,,,,,2023-08-16_08h41.06.241,HF_wild_card,2022.2.4,Win32,60.02040694,5aec1707c09cd900015d7408,64d2fd46c836a06233681665,64dc7d5a7a6b0686ea53d29c,,,,,,,decisionTrl,resources/DY.BMP,resources/DB.BMP,Door4,-0.375141243,-0.029943503,1,0,0,0.6207,optionLeft,80,7410,4,5,0,5,0,1,,,,,,,,,,,,,,,,,,,,,,,,,,,,,,,,,,,,,,,
,,,,,,,,2023-08-16_08h41.06.241,HF_wild_card,2022.2.4,Win32,60.02040694,5aec1707c09cd900015d7408,64d2fd46c836a06233681665,64dc7d5a7a6b0686ea53d29c,,,,,,,decisionTrl,resources/DB.BMP,resources/DR.BMP,Door3,-0.315254237,-0.05819209,1,0,0,0.8422,optionLeft,70,7480,4,6,0,6,0,1,,,,,,,,,,,,,,,,,,,,,,,,,,,,,,,,,,,,,,,
,,,,,,,,2023-08-16_08h41.06.241,HF_wild_card,2022.2.4,Win32,60.02040694,5aec1707c09cd900015d7408,64d2fd46c836a06233681665,64dc7d5a7a6b0686ea53d29c,,,,,,,decisionTrl,resources/DB.BMP,resources/DY.BMP,Door4,0.324293785,-0.063841808,1,0,0,1.0479,optionRight,80,7560,4,7,0,7,0,1,,,,,,,,,,,,,,,,,,,,,,,,,,,,,,,,,,,,,,,
,,,,,,,,2023-08-16_08h41.06.241,HF_wild_card,2022.2.4,Win32,60.02040694,5aec1707c09cd900015d7408,64d2fd46c836a06233681665,64dc7d5a7a6b0686ea53d29c,,,,,,,decisionTrl,resources/DP.BMP,resources/DBN.BMP,Door1,-0.31299435,-0.053672316,1,0,0,0.8279,optionLeft,30,7590,4,8,0,8,0,1,,,,,,,,,,,,,,,,,,,,,,,,,,,,,,,,,,,,,,,
,,,,,,,,2023-08-16_08h41.06.241,HF_wild_card,2022.2.4,Win32,60.02040694,5aec1707c09cd900015d7408,64d2fd46c836a06233681665,64dc7d5a7a6b0686ea53d29c,,,,,,,decisionTrl,resources/DBN.BMP,resources/DP.BMP,Door1,0.383050847,-0.110169492,1,0,0,0.7291,optionRight,30,7620,4,9,0,9,0,1,,,,,,,,,,,,,,,,,,,,,,,,,,,,,,,,,,,,,,,
,,,,,,,,2023-08-16_08h41.06.241,HF_wild_card,2022.2.4,Win32,60.02040694,5aec1707c09cd900015d7408,64d2fd46c836a06233681665,64dc7d5a7a6b0686ea53d29c,,,,,,,decisionTrl,resources/DP.BMP,resources/DBN.BMP,Door1,-0.325423729,-0.062711864,1,0,0,5.5793,optionLeft,30,7650,4,10,0,10,0,1,,,,,,,,,,,,,,,,,,,,,,,,,,,,,,,,,,,,,,,
,,,,,,,,2023-08-16_08h41.06.241,HF_wild_card,2022.2.4,Win32,60.02040694,5aec1707c09cd900015d7408,64d2fd46c836a06233681665,64dc7d5a7a6b0686ea53d29c,,,,,,,decisionTrl,resources/DP.BMP,resources/DR.BMP,WildCard_NonEx,0.366101695,-0.049152542,1,0,0,0.68,optionRight,55,7705,4,11,0,11,0,1,,,,,,,,,,,,,,,,,,,,,,,,,,,,,,,,,,,,,,,
,,,,,,,,2023-08-16_08h41.06.241,HF_wild_card,2022.2.4,Win32,60.02040694,5aec1707c09cd900015d7408,64d2fd46c836a06233681665,64dc7d5a7a6b0686ea53d29c,,,,,,,decisionTrl,resources/DY.BMP,resources/DR.BMP,WildCard_NonEx,0.378531073,-0.046892655,1,0,0,0.879,optionRight,45,7750,4,12,0,12,0,1,,,,,,,,,,,,,,,,,,,,,,,,,,,,,,,,,,,,,,,
,,,,,,,,2023-08-16_08h41.06.241,HF_wild_card,2022.2.4,Win32,60.02040694,5aec1707c09cd900015d7408,64d2fd46c836a06233681665,64dc7d5a7a6b0686ea53d29c,,,,,,,decisionTrl,resources/DBN.BMP,resources/DR.BMP,WildCard_NonEx,0.475706215,-0.07740113,1,0,0,0.9123,optionRight,45,7795,4,13,0,13,0,1,,,,,,,,,,,,,,,,,,,,,,,,,,,,,,,,,,,,,,,
,,,,,,,,2023-08-16_08h41.06.241,HF_wild_card,2022.2.4,Win32,60.02040694,5aec1707c09cd900015d7408,64d2fd46c836a06233681665,64dc7d5a7a6b0686ea53d29c,,,,,,,ctch,resources/DY.BMP,resources/DP.BMP,Door4,-0.29039548,-0.041242938,1,0,0,0.6412,optionLeft,60,7855,4,14,0,14,0,1,,,,,,,,,,,,,,,,,,,,,,,,,,,,,,,,,,,,,,,
,,,,,,,,2023-08-16_08h41.06.241,HF_wild_card,2022.2.4,Win32,60.02040694,5aec1707c09cd900015d7408,64d2fd46c836a06233681665,64dc7d5a7a6b0686ea53d29c,,,,,,,sngl,resources/DB.BMP,resources/Empty.png,Door3,-0.289265537,-0.020903955,1,0,0,0.9623,optionLeft,70,7925,4,15,0,15,0,1,,,,,,,,,,,,,,,,,,,,,,,,,,,,,,,,,,,,,,,
,,,,,,,,2023-08-16_08h41.06.241,HF_wild_card,2022.2.4,Win32,60.02040694,5aec1707c09cd900015d7408,64d2fd46c836a06233681665,64dc7d5a7a6b0686ea53d29c,,,,,,,sngl,resources/DR.BMP,resources/Empty.png,WildCard_NonEx,-0.450847458,-0.023163842,1,0,0,0.6918,optionLeft,45,7970,4,16,0,16,0,1,,,,,,,,,,,,,,,,,,,,,,,,,,,,,,,,,,,,,,,
,,,,,,,,2023-08-16_08h41.06.241,HF_wild_card,2022.2.4,Win32,60.02040694,5aec1707c09cd900015d7408,64d2fd46c836a06233681665,64dc7d5a7a6b0686ea53d29c,,,,,,,decisionTrl,resources/DY.BMP,resources/DB.BMP,Door3,0.343502825,-0.017514124,1,0,0,0.6452,optionRight,70,8040,4,17,0,17,0,1,,,,,,,,,,,,,,,,,,,,,,,,,,,,,,,,,,,,,,,
,,,,,,,,2023-08-16_08h41.06.241,HF_wild_card,2022.2.4,Win32,60.02040694,5aec1707c09cd900015d7408,64d2fd46c836a06233681665,64dc7d5a7a6b0686ea53d29c,,,,,,,decisionTrl,resources/DB.BMP,resources/DY.BMP,Door4,0.345762712,-0.064971751,1,0,0,0.8299,optionRight,60,8100,4,18,0,18,0,1,,,,,,,,,,,,,,,,,,,,,,,,,,,,,,,,,,,,,,,
,,,,,,,,2023-08-16_08h41.06.241,HF_wild_card,2022.2.4,Win32,60.02040694,5aec1707c09cd900015d7408,64d2fd46c836a06233681665,64dc7d5a7a6b0686ea53d29c,,,,,,,decisionTrl,resources/DY.BMP,resources/DB.BMP,Door4,-0.277966102,-0.050282486,1,0,0,0.7103,optionLeft,80,8180,4,19,0,19,0,1,,,,,,,,,,,,,,,,,,,,,,,,,,,,,,,,,,,,,,,
,,,,,,,,2023-08-16_08h41.06.241,HF_wild_card,2022.2.4,Win32,60.02040694,5aec1707c09cd900015d7408,64d2fd46c836a06233681665,64dc7d5a7a6b0686ea53d29c,,,,,,,decisionTrl,resources/DR.BMP,resources/DBN.BMP,WildCard_NonEx,-0.342372881,-0.081920904,1,0,0,0.8434,optionLeft,45,8225,4,20,0,20,0,1,,,,,,,,,,,,,,,,,,,,,,,,,,,,,,,,,,,,,,,
,,,,,,,,2023-08-16_08h41.06.241,HF_wild_card,2022.2.4,Win32,60.02040694,5aec1707c09cd900015d7408,64d2fd46c836a06233681665,64dc7d5a7a6b0686ea53d29c,,,,,,,ctch,resources/DB.BMP,resources/DBN.BMP,Door2,0.425988701,-0.01299435,1,0,0,1.3947,optionRight,20,8245,4,21,0,21,0,1,,,,,,,,,,,,,,,,,,,,,,,,,,,,,,,,,,,,,,,
,,,,,,,,2023-08-16_08h41.06.241,HF_wild_card,2022.2.4,Win32,60.02040694,5aec1707c09cd900015d7408,64d2fd46c836a06233681665,64dc7d5a7a6b0686ea53d29c,,,,,,,decisionTrl,resources/DBN.BMP,resources/DP.BMP,Door2,-0.343502825,-0.027683616,1,0,0,0.7104,optionLeft,20,8265,4,22,0,22,0,1,,,,,,,,,,,,,,,,,,,,,,,,,,,,,,,,,,,,,,,
,,,,,,,,2023-08-16_08h41.06.241,HF_wild_card,2022.2.4,Win32,60.02040694,5aec1707c09cd900015d7408,64d2fd46c836a06233681665,64dc7d5a7a6b0686ea53d29c,,,,,,,ctch,resources/DP.BMP,resources/DY.BMP,Door4,0.284745763,-0.002824859,1,0,0,0.5948,optionRight,60,8325,4,23,0,23,0,1,,,,,,,,,,,,,,,,,,,,,,,,,,,,,,,,,,,,,,,
,,,,,,,,2023-08-16_08h41.06.241,HF_wild_card,2022.2.4,Win32,60.02040694,5aec1707c09cd900015d7408,64d2fd46c836a06233681665,64dc7d5a7a6b0686ea53d29c,,,,,,,decisionTrl,resources/DY.BMP,resources/DB.BMP,Door4,-0.255367232,-0.049152542,1,0,0,0.8276,optionLeft,80,8405,4,24,0,24,0,1,,,,,,,,,,,,,,,,,,,,,,,,,,,,,,,,,,,,,,,
,,,,,,,,2023-08-16_08h41.06.241,HF_wild_card,2022.2.4,Win32,60.02040694,5aec1707c09cd900015d7408,64d2fd46c836a06233681665,64dc7d5a7a6b0686ea53d29c,,,,,,,decisionTrl,resources/DB.BMP,resources/DY.BMP,Door4,0.371751412,-0.063841808,1,0,0,0.6455,optionRight,60,8465,4,25,0,25,0,1,,,,,,,,,,,,,,,,,,,,,,,,,,,,,,,,,,,,,,,
,,,,,,,,2023-08-16_08h41.06.241,HF_wild_card,2022.2.4,Win32,60.02040694,5aec1707c09cd900015d7408,64d2fd46c836a06233681665,64dc7d5a7a6b0686ea53d29c,,,,,,,sngl,resources/Empty.png,resources/DP.BMP,Door1,0.416949153,-0.072881356,1,0,0,0.6445,optionRight,30,8495,4,26,0,26,0,1,,,,,,,,,,,,,,,,,,,,,,,,,,,,,,,,,,,,,,,
,,,,,,,,2023-08-16_08h41.06.241,HF_wild_card,2022.2.4,Win32,60.02040694,5aec1707c09cd900015d7408,64d2fd46c836a06233681665,64dc7d5a7a6b0686ea53d29c,,,,,,,sngl,resources/Empty.png,resources/DR.BMP,WildCard_NonEx,0.411299435,-0.033333333,1,0,0,0.6458,optionRight,45,8540,4,27,0,27,0,1,,,,,,,,,,,,,,,,,,,,,,,,,,,,,,,,,,,,,,,
,,,,,,,,2023-08-16_08h41.06.241,HF_wild_card,2022.2.4,Win32,60.02040694,5aec1707c09cd900015d7408,64d2fd46c836a06233681665,64dc7d5a7a6b0686ea53d29c,,,,,,,sngl,resources/Empty.png,resources/DB.BMP,Door3,0.310734463,-0.055932203,1,0,0,0.7929,optionRight,70,8610,4,28,0,28,0,1,,,,,,,,,,,,,,,,,,,,,,,,,,,,,,,,,,,,,,,
,,,,,,,,2023-08-16_08h41.06.241,HF_wild_card,2022.2.4,Win32,60.02040694,5aec1707c09cd900015d7408,64d2fd46c836a06233681665,64dc7d5a7a6b0686ea53d29c,,,,,,,decisionTrl,resources/DR.BMP,resources/DP.BMP,WildCard_NonEx,-0.4,-0.018644068,1,0,0,0.7106,optionLeft,55,8665,4,29,0,29,0,1,,,,,,,,,,,,,,,,,,,,,,,,,,,,,,,,,,,,,,,
,,,,,,,,2023-08-16_08h41.06.241,HF_wild_card,2022.2.4,Win32,60.02040694,5aec1707c09cd900015d7408,64d2fd46c836a06233681665,64dc7d5a7a6b0686ea53d29c,,,,,,,sngl,resources/DP.BMP,resources/Empty.png,Door1,-0.323163842,-0.045762712,1,0,0,0.8252,optionLeft,30,8695,4,30,0,30,0,1,,,,,,,,,,,,,,,,,,,,,,,,,,,,,,,,,,,,,,,
,,,,,,,,2023-08-16_08h41.06.241,HF_wild_card,2022.2.4,Win32,60.02040694,5aec1707c09cd900015d7408,64d2fd46c836a06233681665,64dc7d5a7a6b0686ea53d29c,,,,,,,sngl,resources/DBN.BMP,resources/Empty.png,Door2,-0.254237288,-0.044632768,1,0,0,0.6584,optionLeft,20,8715,4,31,0,31,0,1,,,,,,,,,,,,,,,,,,,,,,,,,,,,,,,,,,,,,,,
,,,,,,,,2023-08-16_08h41.06.241,HF_wild_card,2022.2.4,Win32,60.02040694,5aec1707c09cd900015d7408,64d2fd46c836a06233681665,64dc7d5a7a6b0686ea53d29c,,,,,,,decisionTrl,resources/DP.BMP,resources/DBN.BMP,Door2,0.395480226,-0.052542373,1,0,0,0.6593,optionRight,20,8735,4,32,0,32,0,1,,,,,,,,,,,,,,,,,,,,,,,,,,,,,,,,,,,,,,,
,,,,,,,,2023-08-16_08h41.06.241,HF_wild_card,2022.2.4,Win32,60.02040694,5aec1707c09cd900015d7408,64d2fd46c836a06233681665,64dc7d5a7a6b0686ea53d29c,,,,,,,ctch,resources/DBN.BMP,resources/DB.BMP,Door3,0.363841808,-0.055932203,1,0,0,0.9286,optionRight,70,8805,4,33,0,33,0,1,,,,,,,,,,,,,,,,,,,,,,,,,,,,,,,,,,,,,,,
,,,,,,,,2023-08-16_08h41.06.241,HF_wild_card,2022.2.4,Win32,60.02040694,5aec1707c09cd900015d7408,64d2fd46c836a06233681665,64dc7d5a7a6b0686ea53d29c,,,,,,,ctch,resources/DB.BMP,resources/DBN.BMP,Door3,-0.30960452,-0.042372881,1,0,0,0.8936,optionLeft,70,8875,4,34,0,34,0,1,,,,,,,,,,,,,,,,,,,,,,,,,,,,,,,,,,,,,,,
,,,,,,,,2023-08-16_08h41.06.241,HF_wild_card,2022.2.4,Win32,60.02040694,5aec1707c09cd900015d7408,64d2fd46c836a06233681665,64dc7d5a7a6b0686ea53d29c,,,,,,,ctch,resources/DBN.BMP,resources/DB.BMP,Door3,0.288135593,-0.018644068,1,0,0,0.6274,optionRight,70,8945,4,35,0,35,0,1,,,,,,,,,,,,,,,,,,,,,,,,,,,,,,,,,,,,,,,
,,,,,,,,2023-08-16_08h41.06.241,HF_wild_card,2022.2.4,Win32,60.02040694,5aec1707c09cd900015d7408,64d2fd46c836a06233681665,64dc7d5a7a6b0686ea53d29c,,,,,,,sngl,resources/Empty.png,resources/DY.BMP,Door4,0.386440678,-0.026553672,1,0,0,0.6269,optionRight,80,9025,4,36,0,36,0,1,,,,,,,,,,,,,,,,,,,,,,,,,,,,,,,,,,,,,,,
,,,,,,,,2023-08-16_08h41.06.241,HF_wild_card,2022.2.4,Win32,60.02040694,5aec1707c09cd900015d7408,64d2fd46c836a06233681665,64dc7d5a7a6b0686ea53d29c,,,,,,,decisionTrl,resources/DB.BMP,resources/DY.BMP,Door4,0.327683616,-0.003954802,1,0,0,0.5619,optionRight,80,9105,4,37,0,37,0,1,,,,,,,,,,,,,,,,,,,,,,,,,,,,,,,,,,,,,,,
,,,,,,,,2023-08-16_08h41.06.241,HF_wild_card,2022.2.4,Win32,60.02040694,5aec1707c09cd900015d7408,64d2fd46c836a06233681665,64dc7d5a7a6b0686ea53d29c,,,,,,,sngl,resources/DR.BMP,resources/Empty.png,WildCard_NonEx,-0.484745763,-0.048022599,1,0,0,0.6277,optionLeft,55,9160,4,38,0,38,0,1,,,,,,,,,,,,,,,,,,,,,,,,,,,,,,,,,,,,,,,
,,,,,,,,2023-08-16_08h41.06.241,HF_wild_card,2022.2.4,Win32,60.02040694,5aec1707c09cd900015d7408,64d2fd46c836a06233681665,64dc7d5a7a6b0686ea53d29c,,,,,,,ctch,resources/DP.BMP,resources/DY.BMP,Door4,0.350282486,-0.053672316,1,0,0,0.6107,optionRight,60,9220,4,39,0,39,0,1,,,,,,,,,,,,,,,,,,,,,,,,,,,,,,,,,,,,,,,
,,,,,,,,2023-08-16_08h41.06.241,HF_wild_card,2022.2.4,Win32,60.02040694,5aec1707c09cd900015d7408,64d2fd46c836a06233681665,64dc7d5a7a6b0686ea53d29c,,,,,,,decisionTrl,resources/DP.BMP,resources/DBN.BMP,Door1,-0.431638418,-0.043502825,1,0,0,0.7114,optionLeft,30,9250,4,40,0,40,0,1,,,,,,,,,,,,,,,,,,,,,,,,,,,,,,,,,,,,,,,
,,,,,,,,2023-08-16_08h41.06.241,HF_wild_card,2022.2.4,Win32,60.02040694,5aec1707c09cd900015d7408,64d2fd46c836a06233681665,64dc7d5a7a6b0686ea53d29c,,,,,,,decisionTrl,resources/DR.BMP,resources/DB.BMP,Door3,0.296045198,-0.020903955,1,0,0,0.6768,optionRight,70,9320,4,41,0,41,0,1,,,,,,,,,,,,,,,,,,,,,,,,,,,,,,,,,,,,,,,
,,,,,,,,2023-08-16_08h41.06.241,HF_wild_card,2022.2.4,Win32,60.02040694,5aec1707c09cd900015d7408,64d2fd46c836a06233681665,64dc7d5a7a6b0686ea53d29c,,,,,,,decisionTrl,resources/DBN.BMP,resources/DP.BMP,Door1,0.355932203,-0.049152542,1,0,0,1.0289,optionRight,30,9350,4,42,0,42,0,1,,,,,,,,,,,,,,,,,,,,,,,,,,,,,,,,,,,,,,,
,,,,,,,,2023-08-16_08h41.06.241,HF_wild_card,2022.2.4,Win32,60.02040694,5aec1707c09cd900015d7408,64d2fd46c836a06233681665,64dc7d5a7a6b0686ea53d29c,,,,,,,decisionTrl,resources/DR.BMP,resources/DY.BMP,WildCard_NonEx,-0.324293785,-0.057062147,1,0,0,0.5778,optionLeft,45,9395,4,43,0,43,0,1,,,,,,,,,,,,,,,,,,,,,,,,,,,,,,,,,,,,,,,
,,,,,,,,2023-08-16_08h41.06.241,HF_wild_card,2022.2.4,Win32,60.02040694,5aec1707c09cd900015d7408,64d2fd46c836a06233681665,64dc7d5a7a6b0686ea53d29c,,,,,,,,,,,,,,,,,,,,,,,,,,3,0,3,0,1,,,,,,,,,,,,,,,,,,,,,,,,,,,,,,,,,,
,,,,,,,,2023-08-16_08h41.06.241,HF_wild_card,2022.2.4,Win32,60.02040694,5aec1707c09cd900015d7408,64d2fd46c836a06233681665,64dc7d5a7a6b0686ea53d29c,,,,,,,decisionTrl,resources/DB.BMP,resources/DY.BMP,Door4,0.363841808,-0.151977401,1,0,0,0.8311,optionRight,80,9475,5,0,0,0,0,1,,,,,,,,,,,,,,,,,,,,,,,,,,,,,,,,,,,,,,,
,,,,,,,,2023-08-16_08h41.06.241,HF_wild_card,2022.2.4,Win32,60.02040694,5aec1707c09cd900015d7408,64d2fd46c836a06233681665,64dc7d5a7a6b0686ea53d29c,,,,,,,decisionTrl,resources/DR.BMP,resources/DB.BMP,WildCard_NonEx,-0.305084746,-0.066101695,1,0,0,0.8262,optionLeft,55,9530,5,1,0,1,0,1,,,,,,,,,,,,,,,,,,,,,,,,,,,,,,,,,,,,,,,
,,,,,,,,2023-08-16_08h41.06.241,HF_wild_card,2022.2.4,Win32,60.02040694,5aec1707c09cd900015d7408,64d2fd46c836a06233681665,64dc7d5a7a6b0686ea53d29c,,,,,,,sngl,resources/Empty.png,resources/DBN.BMP,Door2,0.381920904,-0.036723164,1,0,0,0.5907,optionRight,20,9550,5,2,0,2,0,1,,,,,,,,,,,,,,,,,,,,,,,,,,,,,,,,,,,,,,,
,,,,,,,,2023-08-16_08h41.06.241,HF_wild_card,2022.2.4,Win32,60.02040694,5aec1707c09cd900015d7408,64d2fd46c836a06233681665,64dc7d5a7a6b0686ea53d29c,,,,,,,decisionTrl,resources/DBN.BMP,resources/DR.BMP,WildCard_NonEx,0.550282486,-0.072881356,1,0,0,0.7433,optionRight,45,9595,5,3,0,3,0,1,,,,,,,,,,,,,,,,,,,,,,,,,,,,,,,,,,,,,,,
,,,,,,,,2023-08-16_08h41.06.241,HF_wild_card,2022.2.4,Win32,60.02040694,5aec1707c09cd900015d7408,64d2fd46c836a06233681665,64dc7d5a7a6b0686ea53d29c,,,,,,,decisionTrl,resources/DY.BMP,resources/DB.BMP,Door4,-0.324293785,-0.023163842,1,0,0,0.6089,optionLeft,60,9655,5,4,0,4,0,1,,,,,,,,,,,,,,,,,,,,,,,,,,,,,,,,,,,,,,,
,,,,,,,,2023-08-16_08h41.06.241,HF_wild_card,2022.2.4,Win32,60.02040694,5aec1707c09cd900015d7408,64d2fd46c836a06233681665,64dc7d5a7a6b0686ea53d29c,,,,,,,sngl,resources/DY.BMP,resources/Empty.png,Door4,-0.427118644,-0.016384181,1,0,0,0.6911,optionLeft,80,9735,5,5,0,5,0,1,,,,,,,,,,,,,,,,,,,,,,,,,,,,,,,,,,,,,,,
,,,,,,,,2023-08-16_08h41.06.241,HF_wild_card,2022.2.4,Win32,60.02040694,5aec1707c09cd900015d7408,64d2fd46c836a06233681665,64dc7d5a7a6b0686ea53d29c,,,,,,,sngl,resources/DP.BMP,resources/Empty.png,Door1,-0.375141243,-0.019774011,1,0,0,0.6602,optionLeft,30,9765,5,6,0,6,0,1,,,,,,,,,,,,,,,,,,,,,,,,,,,,,,,,,,,,,,,
,,,,,,,,2023-08-16_08h41.06.241,HF_wild_card,2022.2.4,Win32,60.02040694,5aec1707c09cd900015d7408,64d2fd46c836a06233681665,64dc7d5a7a6b0686ea53d29c,,,,,,,decisionTrl,resources/DP.BMP,resources/DBN.BMP,Door1,-0.349152542,-0.063841808,1,0,0,0.826,optionLeft,30,9795,5,7,0,7,0,1,,,,,,,,,,,,,,,,,,,,,,,,,,,,,,,,,,,,,,,
,,,,,,,,2023-08-16_08h41.06.241,HF_wild_card,2022.2.4,Win32,60.02040694,5aec1707c09cd900015d7408,64d2fd46c836a06233681665,64dc7d5a7a6b0686ea53d29c,,,,,,,decisionTrl,resources/DP.BMP,resources/DBN.BMP,Door2,0.418079096,-0.05480226,1,0,0,0.6462,optionRight,20,9815,5,8,0,8,0,1,,,,,,,,,,,,,,,,,,,,,,,,,,,,,,,,,,,,,,,
,,,,,,,,2023-08-16_08h41.06.241,HF_wild_card,2022.2.4,Win32,60.02040694,5aec1707c09cd900015d7408,64d2fd46c836a06233681665,64dc7d5a7a6b0686ea53d29c,,,,,,,sngl,resources/Empty.png,resources/DR.BMP,WildCard_NonEx,0.416949153,-0.049152542,1,0,0,1.6128,optionRight,45,9860,5,9,0,9,0,1,,,,,,,,,,,,,,,,,,,,,,,,,,,,,,,,,,,,,,,
,,,,,,,,2023-08-16_08h41.06.241,HF_wild_card,2022.2.4,Win32,60.02040694,5aec1707c09cd900015d7408,64d2fd46c836a06233681665,64dc7d5a7a6b0686ea53d29c,,,,,,,decisionTrl,resources/DBN.BMP,resources/DP.BMP,Door2,-0.270056497,-0.022033898,1,0,0,0.6982,optionLeft,40,9900,5,10,0,10,0,1,,,,,,,,,,,,,,,,,,,,,,,,,,,,,,,,,,,,,,,
,,,,,,,,2023-08-16_08h41.06.241,HF_wild_card,2022.2.4,Win32,60.02040694,5aec1707c09cd900015d7408,64d2fd46c836a06233681665,64dc7d5a7a6b0686ea53d29c,,,,,,,decisionTrl,resources/DP.BMP,resources/DR.BMP,WildCard_NonEx,0.326553672,-0.008474576,1,0,0,0.6602,optionRight,45,9945,5,11,0,11,0,1,,,,,,,,,,,,,,,,,,,,,,,,,,,,,,,,,,,,,,,
,,,,,,,,2023-08-16_08h41.06.241,HF_wild_card,2022.2.4,Win32,60.02040694,5aec1707c09cd900015d7408,64d2fd46c836a06233681665,64dc7d5a7a6b0686ea53d29c,,,,,,,sngl,resources/DB.BMP,resources/Empty.png,Door3,-0.273446328,-0.031073446,1,0,0,0.6126,optionLeft,70,10015,5,12,0,12,0,1,,,,,,,,,,,,,,,,,,,,,,,,,,,,,,,,,,,,,,,
,,,,,,,,2023-08-16_08h41.06.241,HF_wild_card,2022.2.4,Win32,60.02040694,5aec1707c09cd900015d7408,64d2fd46c836a06233681665,64dc7d5a7a6b0686ea53d29c,,,,,,,sngl,resources/Empty.png,resources/DB.BMP,Door3,0.31299435,-0.022033898,1,0,0,0.6439,optionRight,70,10085,5,13,0,13,0,1,,,,,,,,,,,,,,,,,,,,,,,,,,,,,,,,,,,,,,,
,,,,,,,,2023-08-16_08h41.06.241,HF_wild_card,2022.2.4,Win32,60.02040694,5aec1707c09cd900015d7408,64d2fd46c836a06233681665,64dc7d5a7a6b0686ea53d29c,,,,,,,decisionTrl,resources/DR.BMP,resources/DBN.BMP,WildCard_NonEx,-0.288135593,-0.028813559,1,0,0,0.6041,optionLeft,55,10140,5,14,0,14,0,1,,,,,,,,,,,,,,,,,,,,,,,,,,,,,,,,,,,,,,,
,,,,,,,,2023-08-16_08h41.06.241,HF_wild_card,2022.2.4,Win32,60.02040694,5aec1707c09cd900015d7408,64d2fd46c836a06233681665,64dc7d5a7a6b0686ea53d29c,,,,,,,ctch,resources/DP.BMP,resources/DY.BMP,Door4,0.262146893,-0.041242938,1,0,0,0.5436,optionRight,80,10220,5,15,0,15,0,1,,,,,,,,,,,,,,,,,,,,,,,,,,,,,,,,,,,,,,,
,,,,,,,,2023-08-16_08h41.06.241,HF_wild_card,2022.2.4,Win32,60.02040694,5aec1707c09cd900015d7408,64d2fd46c836a06233681665,64dc7d5a7a6b0686ea53d29c,,,,,,,decisionTrl,resources/DB.BMP,resources/DY.BMP,Door3,-0.306214689,-0.063841808,1,0,0,0.9374,optionLeft,70,10290,5,16,0,16,0,1,,,,,,,,,,,,,,,,,,,,,,,,,,,,,,,,,,,,,,,
,,,,,,,,2023-08-16_08h41.06.241,HF_wild_card,2022.2.4,Win32,60.02040694,5aec1707c09cd900015d7408,64d2fd46c836a06233681665,64dc7d5a7a6b0686ea53d29c,,,,,,,sngl,resources/Empty.png,resources/DY.BMP,Door4,0.470056497,-0.062711864,1,0,0,0.6335,optionRight,60,10350,5,17,0,17,0,1,,,,,,,,,,,,,,,,,,,,,,,,,,,,,,,,,,,,,,,
,,,,,,,,2023-08-16_08h41.06.241,HF_wild_card,2022.2.4,Win32,60.02040694,5aec1707c09cd900015d7408,64d2fd46c836a06233681665,64dc7d5a7a6b0686ea53d29c,,,,,,,decisionTrl,resources/DY.BMP,resources/DR.BMP,Door4,-0.268926554,-0.03220339,1,0,0,4.6567,optionLeft,60,10410,5,18,0,18,0,1,,,,,,,,,,,,,,,,,,,,,,,,,,,,,,,,,,,,,,,
,,,,,,,,2023-08-16_08h41.06.241,HF_wild_card,2022.2.4,Win32,60.02040694,5aec1707c09cd900015d7408,64d2fd46c836a06233681665,64dc7d5a7a6b0686ea53d29c,,,,,,,decisionTrl,resources/DBN.BMP,resources/DP.BMP,Door1,0.396610169,-0.05819209,1,0,0,1.1032,optionRight,30,10440,5,19,0,19,0,1,,,,,,,,,,,,,,,,,,,,,,,,,,,,,,,,,,,,,,,
,,,,,,,,2023-08-16_08h41.06.241,HF_wild_card,2022.2.4,Win32,60.02040694,5aec1707c09cd900015d7408,64d2fd46c836a06233681665,64dc7d5a7a6b0686ea53d29c,,,,,,,ctch,resources/DBN.BMP,resources/DB.BMP,Door2,-0.291525424,-0.049152542,1,0,0,0.6612,optionLeft,20,10460,5,20,0,20,0,1,,,,,,,,,,,,,,,,,,,,,,,,,,,,,,,,,,,,,,,
,,,,,,,,2023-08-16_08h41.06.241,HF_wild_card,2022.2.4,Win32,60.02040694,5aec1707c09cd900015d7408,64d2fd46c836a06233681665,64dc7d5a7a6b0686ea53d29c,,,,,,,decisionTrl,resources/DR.BMP,resources/DP.BMP,Door1,0.334463277,-0.061581921,1,0,0,0.6112,optionRight,30,10490,5,21,0,21,0,1,,,,,,,,,,,,,,,,,,,,,,,,,,,,,,,,,,,,,,,
,,,,,,,,2023-08-16_08h41.06.241,HF_wild_card,2022.2.4,Win32,60.02040694,5aec1707c09cd900015d7408,64d2fd46c836a06233681665,64dc7d5a7a6b0686ea53d29c,,,,,,,decisionTrl,resources/DB.BMP,resources/DY.BMP,Door3,-0.250847458,-0.005084746,1,0,0,0.5721,optionLeft,70,10560,5,22,0,22,0,1,,,,,,,,,,,,,,,,,,,,,,,,,,,,,,,,,,,,,,,
,,,,,,,,2023-08-16_08h41.06.241,HF_wild_card,2022.2.4,Win32,60.02040694,5aec1707c09cd900015d7408,64d2fd46c836a06233681665,64dc7d5a7a6b0686ea53d29c,,,,,,,ctch,resources/DY.BMP,resources/DP.BMP,Door4,-0.305084746,-0.015254237,1,0,0,0.7243,optionLeft,80,10640,5,23,0,23,0,1,,,,,,,,,,,,,,,,,,,,,,,,,,,,,,,,,,,,,,,
,,,,,,,,2023-08-16_08h41.06.241,HF_wild_card,2022.2.4,Win32,60.02040694,5aec1707c09cd900015d7408,64d2fd46c836a06233681665,64dc7d5a7a6b0686ea53d29c,,,,,,,decisionTrl,resources/DB.BMP,resources/DY.BMP,Door4,0.318644068,-0.026553672,1,0,0,0.6118,optionRight,80,10720,5,24,0,24,0,1,,,,,,,,,,,,,,,,,,,,,,,,,,,,,,,,,,,,,,,
,,,,,,,,2023-08-16_08h41.06.241,HF_wild_card,2022.2.4,Win32,60.02040694,5aec1707c09cd900015d7408,64d2fd46c836a06233681665,64dc7d5a7a6b0686ea53d29c,,,,,,,decisionTrl,resources/DP.BMP,resources/DBN.BMP,Door1,-0.328813559,-0.043502825,1,0,0,0.7418,optionLeft,30,10750,5,25,0,25,0,1,,,,,,,,,,,,,,,,,,,,,,,,,,,,,,,,,,,,,,,
,,,,,,,,2023-08-16_08h41.06.241,HF_wild_card,2022.2.4,Win32,60.02040694,5aec1707c09cd900015d7408,64d2fd46c836a06233681665,64dc7d5a7a6b0686ea53d29c,,,,,,,sngl,resources/Empty.png,resources/DR.BMP,WildCard_NonEx,0.393220339,-0.076271186,1,0,0,0.944,optionRight,55,10805,5,26,0,26,0,1,,,,,,,,,,,,,,,,,,,,,,,,,,,,,,,,,,,,,,,
,,,,,,,,2023-08-16_08h41.06.241,HF_wild_card,2022.2.4,Win32,60.02040694,5aec1707c09cd900015d7408,64d2fd46c836a06233681665,64dc7d5a7a6b0686ea53d29c,,,,,,,ctch,resources/DP.BMP,resources/DY.BMP,Door4,0.308474576,-0.024293785,1,0,0,0.6446,optionRight,80,10885,5,27,0,27,0,1,,,,,,,,,,,,,,,,,,,,,,,,,,,,,,,,,,,,,,,
,,,,,,,,2023-08-16_08h41.06.241,HF_wild_card,2022.2.4,Win32,60.02040694,5aec1707c09cd900015d7408,64d2fd46c836a06233681665,64dc7d5a7a6b0686ea53d29c,,,,,,,ctch,resources/DB.BMP,resources/DBN.BMP,Door3,-0.338983051,-0.049152542,1,0,0,0.7442,optionLeft,70,10955,5,28,0,28,0,1,,,,,,,,,,,,,,,,,,,,,,,,,,,,,,,,,,,,,,,
,,,,,,,,2023-08-16_08h41.06.241,HF_wild_card,2022.2.4,Win32,60.02040694,5aec1707c09cd900015d7408,64d2fd46c836a06233681665,64dc7d5a7a6b0686ea53d29c,,,,,,,decisionTrl,resources/DR.BMP,resources/DY.BMP,Door4,0.384180791,-0.055932203,1,0,0,0.5274,optionRight,80,11035,5,29,0,29,0,1,,,,,,,,,,,,,,,,,,,,,,,,,,,,,,,,,,,,,,,
,,,,,,,,2023-08-16_08h41.06.241,HF_wild_card,2022.2.4,Win32,60.02040694,5aec1707c09cd900015d7408,64d2fd46c836a06233681665,64dc7d5a7a6b0686ea53d29c,,,,,,,sngl,resources/DR.BMP,resources/Empty.png,WildCard_NonEx,-0.268926554,-0.03220339,1,0,0,0.6934,optionLeft,45,11080,5,30,0,30,0,1,,,,,,,,,,,,,,,,,,,,,,,,,,,,,,,,,,,,,,,
,,,,,,,,2023-08-16_08h41.06.241,HF_wild_card,2022.2.4,Win32,60.02040694,5aec1707c09cd900015d7408,64d2fd46c836a06233681665,64dc7d5a7a6b0686ea53d29c,,,,,,,decisionTrl,resources/DY.BMP,resources/DB.BMP,Door4,-0.420338983,-0.006214689,1,0,0,0.9955,optionLeft,80,11160,5,31,0,31,0,1,,,,,,,,,,,,,,,,,,,,,,,,,,,,,,,,,,,,,,,
,,,,,,,,2023-08-16_08h41.06.241,HF_wild_card,2022.2.4,Win32,60.02040694,5aec1707c09cd900015d7408,64d2fd46c836a06233681665,64dc7d5a7a6b0686ea53d29c,,,,,,,decisionTrl,resources/DBN.BMP,resources/DP.BMP,Door2,-0.329943503,-0.067231638,1,0,0,1.5773,optionLeft,20,11180,5,32,0,32,0,1,,,,,,,,,,,,,,,,,,,,,,,,,,,,,,,,,,,,,,,
,,,,,,,,2023-08-16_08h41.06.241,HF_wild_card,2022.2.4,Win32,60.02040694,5aec1707c09cd900015d7408,64d2fd46c836a06233681665,64dc7d5a7a6b0686ea53d29c,,,,,,,decisionTrl,resources/DY.BMP,resources/DB.BMP,Door3,0.276836158,-0.043502825,1,0,0,0.7444,optionRight,70,11250,5,33,0,33,0,1,,,,,,,,,,,,,,,,,,,,,,,,,,,,,,,,,,,,,,,
,,,,,,,,2023-08-16_08h41.06.241,HF_wild_card,2022.2.4,Win32,60.02040694,5aec1707c09cd900015d7408,64d2fd46c836a06233681665,64dc7d5a7a6b0686ea53d29c,,,,,,,sngl,resources/DBN.BMP,resources/Empty.png,Door2,-0.374011299,-0.010734463,1,0,0,0.5613,optionLeft,40,11290,5,34,0,34,0,1,,,,,,,,,,,,,,,,,,,,,,,,,,,,,,,,,,,,,,,
,,,,,,,,2023-08-16_08h41.06.241,HF_wild_card,2022.2.4,Win32,60.02040694,5aec1707c09cd900015d7408,64d2fd46c836a06233681665,64dc7d5a7a6b0686ea53d29c,,,,,,,decisionTrl,resources/DP.BMP,resources/DBN.BMP,Door1,-0.327683616,-0.074011299,1,0,0,1.2942,optionLeft,30,11320,5,35,0,35,0,1,,,,,,,,,,,,,,,,,,,,,,,,,,,,,,,,,,,,,,,
,,,,,,,,2023-08-16_08h41.06.241,HF_wild_card,2022.2.4,Win32,60.02040694,5aec1707c09cd900015d7408,64d2fd46c836a06233681665,64dc7d5a7a6b0686ea53d29c,,,,,,,decisionTrl,resources/DB.BMP,resources/DR.BMP,Door3,-0.308474576,-0.05480226,1,0,0,1.6083,optionLeft,70,11390,5,36,0,36,0,1,,,,,,,,,,,,,,,,,,,,,,,,,,,,,,,,,,,,,,,
,,,,,,,,2023-08-16_08h41.06.241,HF_wild_card,2022.2.4,Win32,60.02040694,5aec1707c09cd900015d7408,64d2fd46c836a06233681665,64dc7d5a7a6b0686ea53d29c,,,,,,,ctch,resources/DY.BMP,resources/DP.BMP,Door4,-0.355932203,-0.029943503,1,0,0,0.7458,optionLeft,80,11470,5,37,0,37,0,1,,,,,,,,,,,,,,,,,,,,,,,,,,,,,,,,,,,,,,,
,,,,,,,,2023-08-16_08h41.06.241,HF_wild_card,2022.2.4,Win32,60.02040694,5aec1707c09cd900015d7408,64d2fd46c836a06233681665,64dc7d5a7a6b0686ea53d29c,,,,,,,decisionTrl,resources/DY.BMP,resources/DB.BMP,Door4,-0.420338983,-0.05819209,1,0,0,1.2616,optionLeft,80,11550,5,38,0,38,0,1,,,,,,,,,,,,,,,,,,,,,,,,,,,,,,,,,,,,,,,
,,,,,,,,2023-08-16_08h41.06.241,HF_wild_card,2022.2.4,Win32,60.02040694,5aec1707c09cd900015d7408,64d2fd46c836a06233681665,64dc7d5a7a6b0686ea53d29c,,,,,,,ctch,resources/DBN.BMP,resources/DB.BMP,Door3,0.345762712,-0.050282486,1,0,0,0.8998,optionRight,70,11620,5,39,0,39,0,1,,,,,,,,,,,,,,,,,,,,,,,,,,,,,,,,,,,,,,,
,,,,,,,,2023-08-16_08h41.06.241,HF_wild_card,2022.2.4,Win32,60.02040694,5aec1707c09cd900015d7408,64d2fd46c836a06233681665,64dc7d5a7a6b0686ea53d29c,,,,,,,sngl,resources/Empty.png,resources/DP.BMP,Door1,0.344632768,-0.051412429,1,0,0,0.976,optionRight,30,11650,5,40,0,40,0,1,,,,,,,,,,,,,,,,,,,,,,,,,,,,,,,,,,,,,,,
,,,,,,,,2023-08-16_08h41.06.241,HF_wild_card,2022.2.4,Win32,60.02040694,5aec1707c09cd900015d7408,64d2fd46c836a06233681665,64dc7d5a7a6b0686ea53d29c,,,,,,,ctch,resources/DB.BMP,resources/DBN.BMP,Door3,-0.333333333,-0.024293785,1,0,0,0.9039,optionLeft,70,11720,5,41,0,41,0,1,,,,,,,,,,,,,,,,,,,,,,,,,,,,,,,,,,,,,,,
,,,,,,,,2023-08-16_08h41.06.241,HF_wild_card,2022.2.4,Win32,60.02040694,5aec1707c09cd900015d7408,64d2fd46c836a06233681665,64dc7d5a7a6b0686ea53d29c,,,,,,,sngl,resources/DR.BMP,resources/Empty.png,WildCard_NonEx,-0.277966102,-0.024293785,1,0,0,0.8466,optionLeft,55,11775,5,42,0,42,0,1,,,,,,,,,,,,,,,,,,,,,,,,,,,,,,,,,,,,,,,
,,,,,,,,2023-08-16_08h41.06.241,HF_wild_card,2022.2.4,Win32,60.02040694,5aec1707c09cd900015d7408,64d2fd46c836a06233681665,64dc7d5a7a6b0686ea53d29c,,,,,,,decisionTrl,resources/DBN.BMP,resources/DP.BMP,Door1,0.350282486,-0.066101695,1,0,0,0.9594,optionRight,30,11805,5,43,0,43,0,1,,,,,,,,,,,,,,,,,,,,,,,,,,,,,,,,,,,,,,,
,,,,,,,,2023-08-16_08h41.06.241,HF_wild_card,2022.2.4,Win32,60.02040694,5aec1707c09cd900015d7408,64d2fd46c836a06233681665,64dc7d5a7a6b0686ea53d29c,,,,,,,,,,,,,,,,,,,,,,,,,,4,0,4,0,1,,,,,,,,,,,,,,,,,,,,,,,,,,,,,,,,,,
,,,,,,,,2023-08-16_08h41.06.241,HF_wild_card,2022.2.4,Win32,60.02040694,5aec1707c09cd900015d7408,64d2fd46c836a06233681665,64dc7d5a7a6b0686ea53d29c,,,,,,,decisionTrl,resources/DR.BMP,resources/DBN.BMP,Door2,0.305084746,-0.026553672,1,0,0,1.8141,optionRight,20,11825,6,0,0,0,0,1,,,,,,,,,,,,,,,,,,,,,,,,,,,,,,,,,,,,,,,
,,,,,,,,2023-08-16_08h41.06.241,HF_wild_card,2022.2.4,Win32,60.02040694,5aec1707c09cd900015d7408,64d2fd46c836a06233681665,64dc7d5a7a6b0686ea53d29c,,,,,,,decisionTrl,resources/DR.BMP,resources/DY.BMP,Door4,0.506214689,-0.063841808,1,0,0,0.7444,optionRight,60,11885,6,1,0,1,0,1,,,,,,,,,,,,,,,,,,,,,,,,,,,,,,,,,,,,,,,
,,,,,,,,2023-08-16_08h41.06.241,HF_wild_card,2022.2.4,Win32,60.02040694,5aec1707c09cd900015d7408,64d2fd46c836a06233681665,64dc7d5a7a6b0686ea53d29c,,,,,,,decisionTrl,resources/DBN.BMP,resources/DP.BMP,Door2,-0.303954802,-0.027683616,1,0,0,1.1375,optionLeft,40,11925,6,2,0,2,0,1,,,,,,,,,,,,,,,,,,,,,,,,,,,,,,,,,,,,,,,
,,,,,,,,2023-08-16_08h41.06.241,HF_wild_card,2022.2.4,Win32,60.02040694,5aec1707c09cd900015d7408,64d2fd46c836a06233681665,64dc7d5a7a6b0686ea53d29c,,,,,,,ctch,resources/DY.BMP,resources/DP.BMP,Door4,-0.414689266,-0.019774011,1,0,0,0.6274,optionLeft,80,12005,6,3,0,3,0,1,,,,,,,,,,,,,,,,,,,,,,,,,,,,,,,,,,,,,,,
,,,,,,,,2023-08-16_08h41.06.241,HF_wild_card,2022.2.4,Win32,60.02040694,5aec1707c09cd900015d7408,64d2fd46c836a06233681665,64dc7d5a7a6b0686ea53d29c,,,,,,,decisionTrl,resources/DR.BMP,resources/DB.BMP,Door3,0.372881356,-0.027683616,1,0,0,0.6281,optionRight,70,12075,6,4,0,4,0,1,,,,,,,,,,,,,,,,,,,,,,,,,,,,,,,,,,,,,,,
,,,,,,,,2023-08-16_08h41.06.241,HF_wild_card,2022.2.4,Win32,60.02040694,5aec1707c09cd900015d7408,64d2fd46c836a06233681665,64dc7d5a7a6b0686ea53d29c,,,,,,,sngl,resources/Empty.png,resources/DB.BMP,Door3,0.319774011,-0.01299435,1,0,0,0.5763,optionRight,70,12145,6,5,0,5,0,1,,,,,,,,,,,,,,,,,,,,,,,,,,,,,,,,,,,,,,,
,,,,,,,,2023-08-16_08h41.06.241,HF_wild_card,2022.2.4,Win32,60.02040694,5aec1707c09cd900015d7408,64d2fd46c836a06233681665,64dc7d5a7a6b0686ea53d29c,,,,,,,sngl,resources/DY.BMP,resources/Empty.png,Door4,-0.251977401,-0.085310734,1,0,0,0.6601,optionLeft,60,12205,6,6,0,6,0,1,,,,,,,,,,,,,,,,,,,,,,,,,,,,,,,,,,,,,,,
,,,,,,,,2023-08-16_08h41.06.241,HF_wild_card,2022.2.4,Win32,60.02040694,5aec1707c09cd900015d7408,64d2fd46c836a06233681665,64dc7d5a7a6b0686ea53d29c,,,,,,,sngl,resources/Empty.png,resources/DR.BMP,WildCard_NonEx,0.458757062,-0.059322034,1,0,0,0.6784,optionRight,45,12250,6,7,0,7,0,1,,,,,,,,,,,,,,,,,,,,,,,,,,,,,,,,,,,,,,,
,,,,,,,,2023-08-16_08h41.06.241,HF_wild_card,2022.2.4,Win32,60.02040694,5aec1707c09cd900015d7408,64d2fd46c836a06233681665,64dc7d5a7a6b0686ea53d29c,,,,,,,ctch,resources/DB.BMP,resources/DBN.BMP,Door3,-0.334463277,-0.023163842,1,0,0,0.6762,optionLeft,70,12320,6,8,0,8,0,1,,,,,,,,,,,,,,,,,,,,,,,,,,,,,,,,,,,,,,,
,,,,,,,,2023-08-16_08h41.06.241,HF_wild_card,2022.2.4,Win32,60.02040694,5aec1707c09cd900015d7408,64d2fd46c836a06233681665,64dc7d5a7a6b0686ea53d29c,,,,,,,sngl,resources/DP.BMP,resources/Empty.png,Door1,-0.250847458,-0.046892655,1,0,0,1.1286,optionLeft,30,12350,6,9,0,9,0,1,,,,,,,,,,,,,,,,,,,,,,,,,,,,,,,,,,,,,,,
,,,,,,,,2023-08-16_08h41.06.241,HF_wild_card,2022.2.4,Win32,60.02040694,5aec1707c09cd900015d7408,64d2fd46c836a06233681665,64dc7d5a7a6b0686ea53d29c,,,,,,,decisionTrl,resources/DBN.BMP,resources/DR.BMP,Door2,-0.239548023,-0.018644068,1,0,0,0.9988,optionLeft,40,12390,6,10,0,10,0,1,,,,,,,,,,,,,,,,,,,,,,,,,,,,,,,,,,,,,,,
,,,,,,,,2023-08-16_08h41.06.241,HF_wild_card,2022.2.4,Win32,60.02040694,5aec1707c09cd900015d7408,64d2fd46c836a06233681665,64dc7d5a7a6b0686ea53d29c,,,,,,,sngl,resources/DB.BMP,resources/Empty.png,Door3,-0.318644068,-0.031073446,1,0,0,0.6432,optionLeft,70,12460,6,11,0,11,0,1,,,,,,,,,,,,,,,,,,,,,,,,,,,,,,,,,,,,,,,
,,,,,,,,2023-08-16_08h41.06.241,HF_wild_card,2022.2.4,Win32,60.02040694,5aec1707c09cd900015d7408,64d2fd46c836a06233681665,64dc7d5a7a6b0686ea53d29c,,,,,,,decisionTrl,resources/DY.BMP,resources/DB.BMP,Door3,0.247457627,-0.001694915,1,0,0,0.6594,optionRight,70,12530,6,12,0,12,0,1,,,,,,,,,,,,,,,,,,,,,,,,,,,,,,,,,,,,,,,
,,,,,,,,2023-08-16_08h41.06.241,HF_wild_card,2022.2.4,Win32,60.02040694,5aec1707c09cd900015d7408,64d2fd46c836a06233681665,64dc7d5a7a6b0686ea53d29c,,,,,,,decisionTrl,resources/DB.BMP,resources/DR.BMP,Door3,-0.364971751,-0.031073446,1,0,0,0.8602,optionLeft,70,12600,6,13,0,13,0,1,,,,,,,,,,,,,,,,,,,,,,,,,,,,,,,,,,,,,,,
,,,,,,,,2023-08-16_08h41.06.241,HF_wild_card,2022.2.4,Win32,60.02040694,5aec1707c09cd900015d7408,64d2fd46c836a06233681665,64dc7d5a7a6b0686ea53d29c,,,,,,,ctch,resources/DBN.BMP,resources/DB.BMP,Door3,0.334463277,-0.025423729,1,0,0,0.6919,optionRight,70,12670,6,14,0,14,0,1,,,,,,,,,,,,,,,,,,,,,,,,,,,,,,,,,,,,,,,
,,,,,,,,2023-08-16_08h41.06.241,HF_wild_card,2022.2.4,Win32,60.02040694,5aec1707c09cd900015d7408,64d2fd46c836a06233681665,64dc7d5a7a6b0686ea53d29c,,,,,,,ctch,resources/DP.BMP,resources/DY.BMP,Door4,0.298305085,-0.031073446,1,0,0,7.6253,optionRight,60,12730,6,15,0,15,0,1,,,,,,,,,,,,,,,,,,,,,,,,,,,,,,,,,,,,,,,
,,,,,,,,2023-08-16_08h41.06.241,HF_wild_card,2022.2.4,Win32,60.02040694,5aec1707c09cd900015d7408,64d2fd46c836a06233681665,64dc7d5a7a6b0686ea53d29c,,,,,,,decisionTrl,resources/DY.BMP,resources/DB.BMP,Door4,-0.359322034,-0.072881356,1,0,0,0.7934,optionLeft,60,12790,6,16,0,16,0,1,,,,,,,,,,,,,,,,,,,,,,,,,,,,,,,,,,,,,,,
,,,,,,,,2023-08-16_08h41.06.241,HF_wild_card,2022.2.4,Win32,60.02040694,5aec1707c09cd900015d7408,64d2fd46c836a06233681665,64dc7d5a7a6b0686ea53d29c,,,,,,,decisionTrl,resources/DB.BMP,resources/DY.BMP,Door3,-0.242937853,-0.010734463,1,0,0,0.6132,optionLeft,70,12860,6,17,0,17,0,1,,,,,,,,,,,,,,,,,,,,,,,,,,,,,,,,,,,,,,,
,,,,,,,,2023-08-16_08h41.06.241,HF_wild_card,2022.2.4,Win32,60.02040694,5aec1707c09cd900015d7408,64d2fd46c836a06233681665,64dc7d5a7a6b0686ea53d29c,,,,,,,sngl,resources/Empty.png,resources/DP.BMP,Door1,0.362711864,-0.046892655,1,0,0,0.6361,optionRight,30,12890,6,18,0,18,0,1,,,,,,,,,,,,,,,,,,,,,,,,,,,,,,,,,,,,,,,
,,,,,,,,2023-08-16_08h41.06.241,HF_wild_card,2022.2.4,Win32,60.02040694,5aec1707c09cd900015d7408,64d2fd46c836a06233681665,64dc7d5a7a6b0686ea53d29c,,,,,,,sngl,resources/DBN.BMP,resources/Empty.png,Door2,-0.306214689,0.016384181,1,0,0,0.6445,optionLeft,20,12910,6,19,0,19,0,1,,,,,,,,,,,,,,,,,,,,,,,,,,,,,,,,,,,,,,,
,,,,,,,,2023-08-16_08h41.06.241,HF_wild_card,2022.2.4,Win32,60.02040694,5aec1707c09cd900015d7408,64d2fd46c836a06233681665,64dc7d5a7a6b0686ea53d29c,,,,,,,decisionTrl,resources/DBN.BMP,resources/DP.BMP,Door1,0.331073446,-0.053672316,1,0,0,1.0115,optionRight,30,12940,6,20,0,20,0,1,,,,,,,,,,,,,,,,,,,,,,,,,,,,,,,,,,,,,,,
,,,,,,,,2023-08-16_08h41.06.241,HF_wild_card,2022.2.4,Win32,60.02040694,5aec1707c09cd900015d7408,64d2fd46c836a06233681665,64dc7d5a7a6b0686ea53d29c,,,,,,,ctch,resources/DP.BMP,resources/DY.BMP,Door4,0.31299435,-0.023163842,1,0,0,0.7101,optionRight,80,13020,6,21,0,21,0,1,,,,,,,,,,,,,,,,,,,,,,,,,,,,,,,,,,,,,,,
,,,,,,,,2023-08-16_08h41.06.241,HF_wild_card,2022.2.4,Win32,60.02040694,5aec1707c09cd900015d7408,64d2fd46c836a06233681665,64dc7d5a7a6b0686ea53d29c,,,,,,,decisionTrl,resources/DB.BMP,resources/DY.BMP,Door3,-0.386440678,-0.025423729,1,0,0,0.5593,optionLeft,70,13090,6,22,0,22,0,1,,,,,,,,,,,,,,,,,,,,,,,,,,,,,,,,,,,,,,,
,,,,,,,,2023-08-16_08h41.06.241,HF_wild_card,2022.2.4,Win32,60.02040694,5aec1707c09cd900015d7408,64d2fd46c836a06233681665,64dc7d5a7a6b0686ea53d29c,,,,,,,decisionTrl,resources/DBN.BMP,resources/DP.BMP,Door2,-0.433898305,-0.027683616,1,0,0,0.9272,optionLeft,20,13110,6,23,0,23,0,1,,,,,,,,,,,,,,,,,,,,,,,,,,,,,,,,,,,,,,,
,,,,,,,,2023-08-16_08h41.06.241,HF_wild_card,2022.2.4,Win32,60.02040694,5aec1707c09cd900015d7408,64d2fd46c836a06233681665,64dc7d5a7a6b0686ea53d29c,,,,,,,decisionTrl,resources/DY.BMP,resources/DB.BMP,Door4,-0.291525424,-0.014124294,1,0,0,0.5747,optionLeft,60,13170,6,24,0,24,0,1,,,,,,,,,,,,,,,,,,,,,,,,,,,,,,,,,,,,,,,
,,,,,,,,2023-08-16_08h41.06.241,HF_wild_card,2022.2.4,Win32,60.02040694,5aec1707c09cd900015d7408,64d2fd46c836a06233681665,64dc7d5a7a6b0686ea53d29c,,,,,,,decisionTrl,resources/DY.BMP,resources/DB.BMP,Door3,0.262146893,-0.015254237,1,0,0,0.5779,optionRight,70,13240,6,25,0,25,0,1,,,,,,,,,,,,,,,,,,,,,,,,,,,,,,,,,,,,,,,
,,,,,,,,2023-08-16_08h41.06.241,HF_wild_card,2022.2.4,Win32,60.02040694,5aec1707c09cd900015d7408,64d2fd46c836a06233681665,64dc7d5a7a6b0686ea53d29c,,,,,,,decisionTrl,resources/DBN.BMP,resources/DP.BMP,Door1,0.257627119,-0.064971751,1,0,0,1.2102,optionRight,30,13270,6,26,0,26,0,1,,,,,,,,,,,,,,,,,,,,,,,,,,,,,,,,,,,,,,,
,,,,,,,,2023-08-16_08h41.06.241,HF_wild_card,2022.2.4,Win32,60.02040694,5aec1707c09cd900015d7408,64d2fd46c836a06233681665,64dc7d5a7a6b0686ea53d29c,,,,,,,decisionTrl,resources/DB.BMP,resources/DY.BMP,Door3,-0.456497175,-0.025423729,1,0,0,0.9129,optionLeft,70,13340,6,27,0,27,0,1,,,,,,,,,,,,,,,,,,,,,,,,,,,,,,,,,,,,,,,
,,,,,,,,2023-08-16_08h41.06.241,HF_wild_card,2022.2.4,Win32,60.02040694,5aec1707c09cd900015d7408,64d2fd46c836a06233681665,64dc7d5a7a6b0686ea53d29c,,,,,,,ctch,resources/DBN.BMP,resources/DB.BMP,Door3,0.451977401,0.006214689,1,0,0,0.7917,optionRight,70,13410,6,28,0,28,0,1,,,,,,,,,,,,,,,,,,,,,,,,,,,,,,,,,,,,,,,
,,,,,,,,2023-08-16_08h41.06.241,HF_wild_card,2022.2.4,Win32,60.02040694,5aec1707c09cd900015d7408,64d2fd46c836a06233681665,64dc7d5a7a6b0686ea53d29c,,,,,,,sngl,resources/Empty.png,resources/DR.BMP,WildCard_NonEx,0.404519774,0.016384181,1,0,0,1.9444,optionRight,55,13465,6,29,0,29,0,1,,,,,,,,,,,,,,,,,,,,,,,,,,,,,,,,,,,,,,,
,,,,,,,,2023-08-16_08h41.06.241,HF_wild_card,2022.2.4,Win32,60.02040694,5aec1707c09cd900015d7408,64d2fd46c836a06233681665,64dc7d5a7a6b0686ea53d29c,,,,,,,decisionTrl,resources/DP.BMP,resources/DR.BMP,WildCard_NonEx,0.351412429,-0.028813559,1,0,0,0.9127,optionRight,55,13520,6,30,0,30,0,1,,,,,,,,,,,,,,,,,,,,,,,,,,,,,,,,,,,,,,,
,,,,,,,,2023-08-16_08h41.06.241,HF_wild_card,2022.2.4,Win32,60.02040694,5aec1707c09cd900015d7408,64d2fd46c836a06233681665,64dc7d5a7a6b0686ea53d29c,,,,,,,decisionTrl,resources/DR.BMP,resources/DP.BMP,WildCard_NonEx,-0.310734463,-0.025423729,1,0,0,0.9288,optionLeft,55,13575,6,31,0,31,0,1,,,,,,,,,,,,,,,,,,,,,,,,,,,,,,,,,,,,,,,
,,,,,,,,2023-08-16_08h41.06.241,HF_wild_card,2022.2.4,Win32,60.02040694,5aec1707c09cd900015d7408,64d2fd46c836a06233681665,64dc7d5a7a6b0686ea53d29c,,,,,,,ctch,resources/DB.BMP,resources/DBN.BMP,Door3,-0.30960452,-0.011864407,1,0,0,0.8257,optionLeft,70,13645,6,32,0,32,0,1,,,,,,,,,,,,,,,,,,,,,,,,,,,,,,,,,,,,,,,
,,,,,,,,2023-08-16_08h41.06.241,HF_wild_card,2022.2.4,Win32,60.02040694,5aec1707c09cd900015d7408,64d2fd46c836a06233681665,64dc7d5a7a6b0686ea53d29c,,,,,,,sngl,resources/DR.BMP,resources/Empty.png,WildCard_NonEx,-0.307344633,-0.027683616,1,0,0,0.6598,optionLeft,45,13690,6,33,0,33,0,1,,,,,,,,,,,,,,,,,,,,,,,,,,,,,,,,,,,,,,,
,,,,,,,,2023-08-16_08h41.06.241,HF_wild_card,2022.2.4,Win32,60.02040694,5aec1707c09cd900015d7408,64d2fd46c836a06233681665,64dc7d5a7a6b0686ea53d29c,,,,,,,sngl,resources/DR.BMP,resources/Empty.png,WildCard_NonEx,-0.355932203,-0.00960452,1,0,0,0.6601,optionLeft,55,13745,6,34,0,34,0,1,,,,,,,,,,,,,,,,,,,,,,,,,,,,,,,,,,,,,,,
,,,,,,,,2023-08-16_08h41.06.241,HF_wild_card,2022.2.4,Win32,60.02040694,5aec1707c09cd900015d7408,64d2fd46c836a06233681665,64dc7d5a7a6b0686ea53d29c,,,,,,,decisionTrl,resources/DP.BMP,resources/DBN.BMP,Door2,0.257627119,-0.000564972,1,0,0,1.008,optionRight,40,13785,6,35,0,35,0,1,,,,,,,,,,,,,,,,,,,,,,,,,,,,,,,,,,,,,,,
,,,,,,,,2023-08-16_08h41.06.241,HF_wild_card,2022.2.4,Win32,60.02040694,5aec1707c09cd900015d7408,64d2fd46c836a06233681665,64dc7d5a7a6b0686ea53d29c,,,,,,,decisionTrl,resources/DP.BMP,resources/DBN.BMP,Door1,-0.363841808,-0.025423729,1,0,0,0.7283,optionLeft,30,13815,6,36,0,36,0,1,,,,,,,,,,,,,,,,,,,,,,,,,,,,,,,,,,,,,,,
,,,,,,,,2023-08-16_08h41.06.241,HF_wild_card,2022.2.4,Win32,60.02040694,5aec1707c09cd900015d7408,64d2fd46c836a06233681665,64dc7d5a7a6b0686ea53d29c,,,,,,,ctch,resources/DY.BMP,resources/DP.BMP,Door4,-0.433898305,-0.016384181,1,0,0,0.7431,optionLeft,80,13895,6,37,0,37,0,1,,,,,,,,,,,,,,,,,,,,,,,,,,,,,,,,,,,,,,,
,,,,,,,,2023-08-16_08h41.06.241,HF_wild_card,2022.2.4,Win32,60.02040694,5aec1707c09cd900015d7408,64d2fd46c836a06233681665,64dc7d5a7a6b0686ea53d29c,,,,,,,decisionTrl,resources/DY.BMP,resources/DR.BMP,Door4,-0.271186441,0.000564972,1,0,0,0.6116,optionLeft,80,13975,6,38,0,38,0,1,,,,,,,,,,,,,,,,,,,,,,,,,,,,,,,,,,,,,,,
,,,,,,,,2023-08-16_08h41.06.241,HF_wild_card,2022.2.4,Win32,60.02040694,5aec1707c09cd900015d7408,64d2fd46c836a06233681665,64dc7d5a7a6b0686ea53d29c,,,,,,,sngl,resources/Empty.png,resources/DBN.BMP,Door2,0.26779661,-0.017514124,1,0,0,0.6754,optionRight,40,14015,6,39,0,39,0,1,,,,,,,,,,,,,,,,,,,,,,,,,,,,,,,,,,,,,,,
,,,,,,,,2023-08-16_08h41.06.241,HF_wild_card,2022.2.4,Win32,60.02040694,5aec1707c09cd900015d7408,64d2fd46c836a06233681665,64dc7d5a7a6b0686ea53d29c,,,,,,,decisionTrl,resources/DB.BMP,resources/DY.BMP,Door4,0.360451977,-0.016384181,1,0,0,0.8278,optionRight,60,14075,6,40,0,40,0,1,,,,,,,,,,,,,,,,,,,,,,,,,,,,,,,,,,,,,,,
,,,,,,,,2023-08-16_08h41.06.241,HF_wild_card,2022.2.4,Win32,60.02040694,5aec1707c09cd900015d7408,64d2fd46c836a06233681665,64dc7d5a7a6b0686ea53d29c,,,,,,,decisionTrl,resources/DP.BMP,resources/DBN.BMP,Door1,-0.372881356,-0.064971751,1,0,0,1.1275,optionLeft,30,14105,6,41,0,41,0,1,,,,,,,,,,,,,,,,,,,,,,,,,,,,,,,,,,,,,,,
,,,,,,,,2023-08-16_08h41.06.241,HF_wild_card,2022.2.4,Win32,60.02040694,5aec1707c09cd900015d7408,64d2fd46c836a06233681665,64dc7d5a7a6b0686ea53d29c,,,,,,,decisionTrl,resources/DP.BMP,resources/DBN.BMP,Door1,-0.390960452,-0.055932203,1,0,0,0.712,optionLeft,30,14135,6,42,0,42,0,1,,,,,,,,,,,,,,,,,,,,,,,,,,,,,,,,,,,,,,,
,,,,,,,,2023-08-16_08h41.06.241,HF_wild_card,2022.2.4,Win32,60.02040694,5aec1707c09cd900015d7408,64d2fd46c836a06233681665,64dc7d5a7a6b0686ea53d29c,,,,,,,sngl,resources/Empty.png,resources/DY.BMP,Door4,0.390960452,-0.008474576,1,0,0,0.7088,optionRight,80,14215,6,43,0,43,0,1,,,,,,,,,,,,,,,,,,,,,,,,,,,,,,,,,,,,,,,
,,,,,,,,2023-08-16_08h41.06.241,HF_wild_card,2022.2.4,Win32,60.02040694,5aec1707c09cd900015d7408,64d2fd46c836a06233681665,64dc7d5a7a6b0686ea53d29c,,,,,,,,,,,,,,,,,,,,,,,,,,5,0,5,0,1,,,,,,,,,,,,,,,,,,,,,,,,,,,,,,,,,,
,,,,,,,,2023-08-16_08h41.06.241,HF_wild_card,2022.2.4,Win32,60.02040694,5aec1707c09cd900015d7408,64d2fd46c836a06233681665,64dc7d5a7a6b0686ea53d29c,,,,,,,decisionTrl,resources/DB.BMP,resources/DY.BMP,Door3,-0.395480226,-0.068361582,1,0,0,1.5546,optionLeft,70,14285,7,0,0,0,0,1,,,,,,,,,,,,,,,,,,,,,,,,,,,,,,,,,,,,,,,
,,,,,,,,2023-08-16_08h41.06.241,HF_wild_card,2022.2.4,Win32,60.02040694,5aec1707c09cd900015d7408,64d2fd46c836a06233681665,64dc7d5a7a6b0686ea53d29c,,,,,,,decisionTrl,resources/DY.BMP,resources/DB.BMP,Door3,0.31299435,-0.053672316,1,0,0,0.7989,optionRight,70,14355,7,1,0,1,0,1,,,,,,,,,,,,,,,,,,,,,,,,,,,,,,,,,,,,,,,
,,,,,,,,2023-08-16_08h41.06.241,HF_wild_card,2022.2.4,Win32,60.02040694,5aec1707c09cd900015d7408,64d2fd46c836a06233681665,64dc7d5a7a6b0686ea53d29c,,,,,,,decisionTrl,resources/DBN.BMP,resources/DP.BMP,Door2,-0.351412429,0.002824859,1,0,0,1.2121,optionLeft,20,14375,7,2,0,2,0,1,,,,,,,,,,,,,,,,,,,,,,,,,,,,,,,,,,,,,,,
,,,,,,,,2023-08-16_08h41.06.241,HF_wild_card,2022.2.4,Win32,60.02040694,5aec1707c09cd900015d7408,64d2fd46c836a06233681665,64dc7d5a7a6b0686ea53d29c,,,,,,,decisionTrl,resources/DBN.BMP,resources/DP.BMP,Door1,0.340112994,-0.087570621,1,0,0,0.9317,optionRight,30,14405,7,3,0,3,0,1,,,,,,,,,,,,,,,,,,,,,,,,,,,,,,,,,,,,,,,
,,,,,,,,2023-08-16_08h41.06.241,HF_wild_card,2022.2.4,Win32,60.02040694,5aec1707c09cd900015d7408,64d2fd46c836a06233681665,64dc7d5a7a6b0686ea53d29c,,,,,,,ctch,resources/DP.BMP,resources/DY.BMP,Door4,0.414689266,-0.076271186,1,0,0,0.8789,optionRight,60,14465,7,4,0,4,0,1,,,,,,,,,,,,,,,,,,,,,,,,,,,,,,,,,,,,,,,
,,,,,,,,2023-08-16_08h41.06.241,HF_wild_card,2022.2.4,Win32,60.02040694,5aec1707c09cd900015d7408,64d2fd46c836a06233681665,64dc7d5a7a6b0686ea53d29c,,,,,,,decisionTrl,resources/DP.BMP,resources/DBN.BMP,Door1,-0.301694915,-0.059322034,1,0,0,1.1631,optionLeft,30,14495,7,5,0,5,0,1,,,,,,,,,,,,,,,,,,,,,,,,,,,,,,,,,,,,,,,
,,,,,,,,2023-08-16_08h41.06.241,HF_wild_card,2022.2.4,Win32,60.02040694,5aec1707c09cd900015d7408,64d2fd46c836a06233681665,64dc7d5a7a6b0686ea53d29c,,,,,,,decisionTrl,resources/DP.BMP,resources/DBN.BMP,Door1,-0.398870056,-0.038983051,1,0,0,0.8656,optionLeft,30,14525,7,6,0,6,0,1,,,,,,,,,,,,,,,,,,,,,,,,,,,,,,,,,,,,,,,
,,,,,,,,2023-08-16_08h41.06.241,HF_wild_card,2022.2.4,Win32,60.02040694,5aec1707c09cd900015d7408,64d2fd46c836a06233681665,64dc7d5a7a6b0686ea53d29c,,,,,,,decisionTrl,resources/DY.BMP,resources/DB.BMP,Door3,0.301694915,-0.046892655,1,0,0,1.4986,optionRight,70,14595,7,7,0,7,0,1,,,,,,,,,,,,,,,,,,,,,,,,,,,,,,,,,,,,,,,
,,,,,,,,2023-08-16_08h41.06.241,HF_wild_card,2022.2.4,Win32,60.02040694,5aec1707c09cd900015d7408,64d2fd46c836a06233681665,64dc7d5a7a6b0686ea53d29c,,,,,,,decisionTrl,resources/DB.BMP,resources/DY.BMP,Door4,0.349152542,-0.034463277,1,0,0,0.697,optionRight,80,14675,7,8,0,8,0,1,,,,,,,,,,,,,,,,,,,,,,,,,,,,,,,,,,,,,,,
,,,,,,,,2023-08-16_08h41.06.241,HF_wild_card,2022.2.4,Win32,60.02040694,5aec1707c09cd900015d7408,64d2fd46c836a06233681665,64dc7d5a7a6b0686ea53d29c,,,,,,,decisionTrl,resources/DBN.BMP,resources/DP.BMP,Door1,0.378531073,-0.078531073,1,0,0,0.9956,optionRight,30,14705,7,9,0,9,0,1,,,,,,,,,,,,,,,,,,,,,,,,,,,,,,,,,,,,,,,
,,,,,,,,2023-08-16_08h41.06.241,HF_wild_card,2022.2.4,Win32,60.02040694,5aec1707c09cd900015d7408,64d2fd46c836a06233681665,64dc7d5a7a6b0686ea53d29c,,,,,,,decisionTrl,resources/DP.BMP,resources/DBN.BMP,Door2,0.334463277,-0.044632768,1,0,0,0.9468,optionRight,20,14725,7,10,0,10,0,1,,,,,,,,,,,,,,,,,,,,,,,,,,,,,,,,,,,,,,,
,,,,,,,,2023-08-16_08h41.06.241,HF_wild_card,2022.2.4,Win32,60.02040694,5aec1707c09cd900015d7408,64d2fd46c836a06233681665,64dc7d5a7a6b0686ea53d29c,,,,,,,ctch,resources/DBN.BMP,resources/DB.BMP,Door3,0.388700565,-0.034463277,1,0,0,0.8289,optionRight,70,14795,7,11,0,11,0,1,,,,,,,,,,,,,,,,,,,,,,,,,,,,,,,,,,,,,,,
,,,,,,,,2023-08-16_08h41.06.241,HF_wild_card,2022.2.4,Win32,60.02040694,5aec1707c09cd900015d7408,64d2fd46c836a06233681665,64dc7d5a7a6b0686ea53d29c,,,,,,,ctch,resources/DB.BMP,resources/DBN.BMP,Door3,-0.428248588,-0.03559322,1,0,0,0.6741,optionLeft,70,14865,7,12,0,12,0,1,,,,,,,,,,,,,,,,,,,,,,,,,,,,,,,,,,,,,,,
,,,,,,,,2023-08-16_08h41.06.241,HF_wild_card,2022.2.4,Win32,60.02040694,5aec1707c09cd900015d7408,64d2fd46c836a06233681665,64dc7d5a7a6b0686ea53d29c,,,,,,,decisionTrl,resources/DBN.BMP,resources/DP.BMP,Door1,0.423728814,-0.066101695,1,0,0,1.4159,optionRight,30,14895,7,13,0,13,0,1,,,,,,,,,,,,,,,,,,,,,,,,,,,,,,,,,,,,,,,
,,,,,,,,2023-08-16_08h41.06.241,HF_wild_card,2022.2.4,Win32,60.02040694,5aec1707c09cd900015d7408,64d2fd46c836a06233681665,64dc7d5a7a6b0686ea53d29c,,,,,,,decisionTrl,resources/DB.BMP,resources/DY.BMP,Door3,-0.33559322,-0.066101695,1,0,0,1.4442,optionLeft,70,14965,7,14,0,14,0,1,,,,,,,,,,,,,,,,,,,,,,,,,,,,,,,,,,,,,,,
,,,,,,,,2023-08-16_08h41.06.241,HF_wild_card,2022.2.4,Win32,60.02040694,5aec1707c09cd900015d7408,64d2fd46c836a06233681665,64dc7d5a7a6b0686ea53d29c,,,,,,,decisionTrl,resources/DBN.BMP,resources/DP.BMP,Door2,-0.341242938,-0.019774011,1,0,0,0.8441,optionLeft,20,14985,7,15,0,15,0,1,,,,,,,,,,,,,,,,,,,,,,,,,,,,,,,,,,,,,,,
,,,,,,,,2023-08-16_08h41.06.241,HF_wild_card,2022.2.4,Win32,60.02040694,5aec1707c09cd900015d7408,64d2fd46c836a06233681665,64dc7d5a7a6b0686ea53d29c,,,,,,,ctch,resources/DBN.BMP,resources/DB.BMP,Door3,0.447457627,-0.067231638,1,0,0,2.4755,optionRight,70,15055,7,16,0,16,0,1,,,,,,,,,,,,,,,,,,,,,,,,,,,,,,,,,,,,,,,
,,,,,,,,2023-08-16_08h41.06.241,HF_wild_card,2022.2.4,Win32,60.02040694,5aec1707c09cd900015d7408,64d2fd46c836a06233681665,64dc7d5a7a6b0686ea53d29c,,,,,,,decisionTrl,resources/DP.BMP,resources/DBN.BMP,Door1,-0.395480226,-0.101129944,1,0,0,1.1118,optionLeft,30,15085,7,17,0,17,0,1,,,,,,,,,,,,,,,,,,,,,,,,,,,,,,,,,,,,,,,
,,,,,,,,2023-08-16_08h41.06.241,HF_wild_card,2022.2.4,Win32,60.02040694,5aec1707c09cd900015d7408,64d2fd46c836a06233681665,64dc7d5a7a6b0686ea53d29c,,,,,,,ctch,resources/DB.BMP,resources/DBN.BMP,Door3,-0.430508475,-0.033333333,1,0,0,0.9126,optionLeft,70,15155,7,18,0,18,0,1,,,,,,,,,,,,,,,,,,,,,,,,,,,,,,,,,,,,,,,
,,,,,,,,2023-08-16_08h41.06.241,HF_wild_card,2022.2.4,Win32,60.02040694,5aec1707c09cd900015d7408,64d2fd46c836a06233681665,64dc7d5a7a6b0686ea53d29c,,,,,,,decisionTrl,resources/DY.BMP,resources/DB.BMP,Door3,0.370621469,0.007344633,1,0,0,1.1127,optionRight,70,15225,7,19,0,19,0,1,,,,,,,,,,,,,,,,,,,,,,,,,,,,,,,,,,,,,,,
,,,,,,,,2023-08-16_08h41.06.241,HF_wild_card,2022.2.4,Win32,60.02040694,5aec1707c09cd900015d7408,64d2fd46c836a06233681665,64dc7d5a7a6b0686ea53d29c,,,,,,,ctch,resources/DP.BMP,resources/DY.BMP,Door4,0.456497175,-0.025423729,1,0,0,1.0462,optionRight,60,15285,7,20,0,20,0,1,,,,,,,,,,,,,,,,,,,,,,,,,,,,,,,,,,,,,,,
,,,,,,,,2023-08-16_08h41.06.241,HF_wild_card,2022.2.4,Win32,60.02040694,5aec1707c09cd900015d7408,64d2fd46c836a06233681665,64dc7d5a7a6b0686ea53d29c,,,,,,,ctch,resources/DY.BMP,resources/DP.BMP,Door4,-0.414689266,-0.044632768,1,0,0,0.7466,optionLeft,80,15365,7,21,0,21,0,1,,,,,,,,,,,,,,,,,,,,,,,,,,,,,,,,,,,,,,,
,,,,,,,,2023-08-16_08h41.06.241,HF_wild_card,2022.2.4,Win32,60.02040694,5aec1707c09cd900015d7408,64d2fd46c836a06233681665,64dc7d5a7a6b0686ea53d29c,,,,,,,ctch,resources/DY.BMP,resources/DP.BMP,Door4,-0.35819209,-0.016384181,1,0,0,0.6964,optionLeft,80,15445,7,22,0,22,0,1,,,,,,,,,,,,,,,,,,,,,,,,,,,,,,,,,,,,,,,
,,,,,,,,2023-08-16_08h41.06.241,HF_wild_card,2022.2.4,Win32,60.02040694,5aec1707c09cd900015d7408,64d2fd46c836a06233681665,64dc7d5a7a6b0686ea53d29c,,,,,,,decisionTrl,resources/DBN.BMP,resources/DP.BMP,Door1,0.33220339,-0.019774011,1,0,0,0.878,optionRight,30,15475,7,23,0,23,0,1,,,,,,,,,,,,,,,,,,,,,,,,,,,,,,,,,,,,,,,
,,,,,,,,2023-08-16_08h41.06.241,HF_wild_card,2022.2.4,Win32,60.02040694,5aec1707c09cd900015d7408,64d2fd46c836a06233681665,64dc7d5a7a6b0686ea53d29c,,,,,,,decisionTrl,resources/DP.BMP,resources/DBN.BMP,Door1,-0.42259887,-0.034463277,1,0,0,0.829,optionLeft,30,15505,7,24,0,24,0,1,,,,,,,,,,,,,,,,,,,,,,,,,,,,,,,,,,,,,,,
,,,,,,,,2023-08-16_08h41.06.241,HF_wild_card,2022.2.4,Win32,60.02040694,5aec1707c09cd900015d7408,64d2fd46c836a06233681665,64dc7d5a7a6b0686ea53d29c,,,,,,,ctch,resources/DP.BMP,resources/DY.BMP,Door4,0.292655367,-0.041242938,1,0,0,0.7764,optionRight,60,15565,7,25,0,25,0,1,,,,,,,,,,,,,,,,,,,,,,,,,,,,,,,,,,,,,,,
,,,,,,,,2023-08-16_08h41.06.241,HF_wild_card,2022.2.4,Win32,60.02040694,5aec1707c09cd900015d7408,64d2fd46c836a06233681665,64dc7d5a7a6b0686ea53d29c,,,,,,,decisionTrl,resources/DY.BMP,resources/DB.BMP,Door4,-0.405649718,-0.022033898,1,0,0,0.7779,optionLeft,60,15625,7,26,0,26,0,1,,,,,,,,,,,,,,,,,,,,,,,,,,,,,,,,,,,,,,,
,,,,,,,,2023-08-16_08h41.06.241,HF_wild_card,2022.2.4,Win32,60.02040694,5aec1707c09cd900015d7408,64d2fd46c836a06233681665,64dc7d5a7a6b0686ea53d29c,,,,,,,decisionTrl,resources/DB.BMP,resources/DY.BMP,Door3,-0.351412429,-0.01299435,1,0,0,1.1464,optionLeft,70,15695,7,27,0,27,0,1,,,,,,,,,,,,,,,,,,,,,,,,,,,,,,,,,,,,,,,
,,,,,,,,2023-08-16_08h41.06.241,HF_wild_card,2022.2.4,Win32,60.02040694,5aec1707c09cd900015d7408,64d2fd46c836a06233681665,64dc7d5a7a6b0686ea53d29c,,,,,,,ctch,resources/DB.BMP,resources/DBN.BMP,Door3,-0.4,-0.034463277,1,0,0,0.7805,optionLeft,70,15765,7,28,0,28,0,1,,,,,,,,,,,,,,,,,,,,,,,,,,,,,,,,,,,,,,,
,,,,,,,,2023-08-16_08h41.06.241,HF_wild_card,2022.2.4,Win32,60.02040694,5aec1707c09cd900015d7408,64d2fd46c836a06233681665,64dc7d5a7a6b0686ea53d29c,,,,,,,ctch,resources/DY.BMP,resources/DP.BMP,Door4,-0.346892655,-0.059322034,1,0,0,0.7964,optionLeft,80,15845,7,29,0,29,0,1,,,,,,,,,,,,,,,,,,,,,,,,,,,,,,,,,,,,,,,
,,,,,,,,2023-08-16_08h41.06.241,HF_wild_card,2022.2.4,Win32,60.02040694,5aec1707c09cd900015d7408,64d2fd46c836a06233681665,64dc7d5a7a6b0686ea53d29c,,,,,,,decisionTrl,resources/DB.BMP,resources/DY.BMP,Door4,0.291525424,-0.041242938,1,0,0,0.7284,optionRight,80,15925,7,30,0,30,0,1,,,,,,,,,,,,,,,,,,,,,,,,,,,,,,,,,,,,,,,
,,,,,,,,2023-08-16_08h41.06.241,HF_wild_card,2022.2.4,Win32,60.02040694,5aec1707c09cd900015d7408,64d2fd46c836a06233681665,64dc7d5a7a6b0686ea53d29c,,,,,,,ctch,resources/DBN.BMP,resources/DB.BMP,Door3,0.318644068,-0.011864407,1,0,0,0.6773,optionRight,70,15995,7,31,0,31,0,1,,,,,,,,,,,,,,,,,,,,,,,,,,,,,,,,,,,,,,,
,,,,,,,,2023-08-16_08h41.06.241,HF_wild_card,2022.2.4,Win32,60.02040694,5aec1707c09cd900015d7408,64d2fd46c836a06233681665,64dc7d5a7a6b0686ea53d29c,,,,,,,decisionTrl,resources/DY.BMP,resources/DB.BMP,Door3,0.348022599,-0.087570621,1,0,0,1.2307,optionRight,70,16065,7,32,0,32,0,1,,,,,,,,,,,,,,,,,,,,,,,,,,,,,,,,,,,,,,,
,,,,,,,,2023-08-16_08h41.06.241,HF_wild_card,2022.2.4,Win32,60.02040694,5aec1707c09cd900015d7408,64d2fd46c836a06233681665,64dc7d5a7a6b0686ea53d29c,,,,,,,decisionTrl,resources/DP.BMP,resources/DBN.BMP,Door1,-0.268926554,-0.050282486,1,0,0,1.7109,optionLeft,30,16095,7,33,0,33,0,1,,,,,,,,,,,,,,,,,,,,,,,,,,,,,,,,,,,,,,,
,,,,,,,,2023-08-16_08h41.06.241,HF_wild_card,2022.2.4,Win32,60.02040694,5aec1707c09cd900015d7408,64d2fd46c836a06233681665,64dc7d5a7a6b0686ea53d29c,,,,,,,decisionTrl,resources/DY.BMP,resources/DB.BMP,Door3,0.297175141,-0.029943503,1,0,0,0.8609,optionRight,70,16165,7,34,0,34,0,1,,,,,,,,,,,,,,,,,,,,,,,,,,,,,,,,,,,,,,,
,,,,,,,,2023-08-16_08h41.06.241,HF_wild_card,2022.2.4,Win32,60.02040694,5aec1707c09cd900015d7408,64d2fd46c836a06233681665,64dc7d5a7a6b0686ea53d29c,,,,,,,decisionTrl,resources/DB.BMP,resources/DY.BMP,Door4,0.368361582,-0.020903955,1,0,0,0.6284,optionRight,60,16225,7,35,0,35,0,1,,,,,,,,,,,,,,,,,,,,,,,,,,,,,,,,,,,,,,,
,,,,,,,,2023-08-16_08h41.06.241,HF_wild_card,2022.2.4,Win32,60.02040694,5aec1707c09cd900015d7408,64d2fd46c836a06233681665,64dc7d5a7a6b0686ea53d29c,,,,,,,,,,,,,,,,,,,,,,,,,,6,0,6,0,1,,,,,,,,,,,,,,,,,,,,,,,,,,,,,,,,,,
,,,,,,,,2023-08-16_08h41.06.241,HF_wild_card,2022.2.4,Win32,60.02040694,5aec1707c09cd900015d7408,64d2fd46c836a06233681665,64dc7d5a7a6b0686ea53d29c,,,,,,,,,,,,,,,,,,,,,,,,,,,,,,,4,,,,,,,,,,,,,,,,,,,,,,,,,,,,,,,,,
,,,,,,,,2023-08-16_08h41.06.241,HF_wild_card,2022.2.4,Win32,60.02040694,5aec1707c09cd900015d7408,64d2fd46c836a06233681665,64dc7d5a7a6b0686ea53d29c,,,,,,,,,,,,,,,,,,,,,,,,,,,,,,,,,,,,,,,,,,,,,,,,,,,,,,,,,,,,,,,,
,,,,,,,,2023-08-16_08h41.06.241,HF_wild_card,2022.2.4,Win32,60.02040694,5aec1707c09cd900015d7408,64d2fd46c836a06233681665,64dc7d5a7a6b0686ea53d29c,,,,,,,,,,,,,,,,,,,,,,,,,,,,,,,,30,Door2,resources/DBN.BMP,0,0,0,0,1,,,,,,,,,,,,,,,,,,,,,,,,,
,,,,,,,,2023-08-16_08h41.06.241,HF_wild_card,2022.2.4,Win32,60.02040694,5aec1707c09cd900015d7408,64d2fd46c836a06233681665,64dc7d5a7a6b0686ea53d29c,,,,,,,,,,,,,,,,,,,,,,,,,,,,,,,,40,WC_nonExtreme,resources/DR.BMP,1,0,1,0,1,,,,,,,,,,,,,,,,,,,,,,,,,
,,,,,,,,2023-08-16_08h41.06.241,HF_wild_card,2022.2.4,Win32,60.02040694,5aec1707c09cd900015d7408,64d2fd46c836a06233681665,64dc7d5a7a6b0686ea53d29c,,,,,,,,,,,,,,,,,,,,,,,,,,,,,,,,40,WC_extreme,resources/DG.BMP,2,0,2,0,1,,,,,,,,,,,,,,,,,,,,,,,,,
,,,,,,,,2023-08-16_08h41.06.241,HF_wild_card,2022.2.4,Win32,60.02040694,5aec1707c09cd900015d7408,64d2fd46c836a06233681665,64dc7d5a7a6b0686ea53d29c,,,,,,,,,,,,,,,,,,,,,,,,,,,,,,,,70,Door4,resources/DY.BMP,3,0,3,0,1,,,,,,,,,,,,,,,,,,,,,,,,,
,,,,,,,,2023-08-16_08h41.06.241,HF_wild_card,2022.2.4,Win32,60.02040694,5aec1707c09cd900015d7408,64d2fd46c836a06233681665,64dc7d5a7a6b0686ea53d29c,,,,,,,,,,,,,,,,,,,,,,,,,,,,,,,,70,Door3,resources/DB.BMP,4,0,4,0,1,,,,,,,,,,,,,,,,,,,,,,,,,
,,,,,,,,2023-08-16_08h41.06.241,HF_wild_card,2022.2.4,Win32,60.02040694,5aec1707c09cd900015d7408,64d2fd46c836a06233681665,64dc7d5a7a6b0686ea53d29c,,,,,,,,,,,,,,,,,,,,,,,,,,,,,,,,30,Door1,resources/DP.BMP,5,0,5,0,1,,,,,,,,,,,,,,,,,,,,,,,,,
