Condition,Low fixed image (Door1),Low risky image (Door2),High fixed image (Door3),High risky image (Door4),Extreme Wild Card,NonExtreme Wild Card,,date,expName,psychopyVersion,OS,frameRate,PROLIFIC_PID,STUDY_ID,SESSION_ID,mouse_2.x,mouse_2.y,mouse_2.leftButton,mouse_2.midButton,mouse_2.rightButton,mouse_2.clicked_name,Trial Type,Left Option Image,Right Option Image,Chosen Door,mouse.x,mouse.y,mouse.leftButton,mouse.midButton,mouse.rightButton,mouse.time,mouse.clicked_name,Feedback,Cumulative Reward,Block,trial.thisRepN,trial.thisTrialN,trial.thisN,trial.thisIndex,trial.ran,blocks.thisRepN,blocks.thisTrialN,blocks.thisN,blocks.thisIndex,blocks.ran,Money conversion,First Outcome Reported,Shown Door (First Outcome),Displayed Image (First Outcome),outcomes.thisRepN,outcomes.thisTrialN,outcomes.thisN,outcomes.thisIndex,outcomes.ran,judgments.thisRepN,judgments.thisTrialN,judgments.thisN,judgments.thisIndex,judgments.ran,freqMouse.x,freqMouse.y,freqMouse.leftButton,freqMouse.midButton,freqMouse.rightButton,freqMouse.clicked_name,FQJ for first outcome,FQJ for second outcome,Shown Door,Displayed Image,trials.thisRepN,trials.thisTrialN,trials.thisN,trials.thisIndex,trials.ran,judgBlock.thisRepN,judgBlock.thisTrialN,judgBlock.thisN,judgBlock.thisIndex,judgBlock.ran
1,resources/DBN.BMP,resources/DG.BMP,resources/DP.BMP,resources/DY.BMP,resources/DR.BMP,resources/DB.BMP,,2023-08-16_08h46.47.432,HF_wild_card,2022.2.4,Win32,59.99880002,6310c063bd0cce86b0289d20,64d2fd46c836a06233681665,64dc7eafc030f419ae44118a,,,,,,,,,,,,,,,,,,,,,,,,,,,,,,,,,,,,,,,,,,,,,,,,,,,,,,,,,,,,,,,,
,,,,,,,,2023-08-16_08h46.47.432,HF_wild_card,2022.2.4,Win32,59.99880002,6310c063bd0cce86b0289d20,64d2fd46c836a06233681665,64dc7eafc030f419ae44118a,0.030555556,-0.423148148,1,0,0,agree,,,,,,,,,,,,,,,,,,,,,,,,,,,,,,,,,,,,,,,,,,,,,,,,,,,,,,,,,,
,,,,,,,,2023-08-16_08h46.47.432,HF_wild_card,2022.2.4,Win32,59.99880002,6310c063bd0cce86b0289d20,64d2fd46c836a06233681665,64dc7eafc030f419ae44118a,,,,,,,,,,,,,,,,,,,,,,,,,,,,,,,,,,,,,,,,,,,,,,,,,,,,,,,,,,,,,,,,
,,,,,,,,2023-08-16_08h46.47.432,HF_wild_card,2022.2.4,Win32,59.99880002,6310c063bd0cce86b0289d20,64d2fd46c836a06233681665,64dc7eafc030f419ae44118a,,,,,,,sngl,resources/DP.BMP,resources/Empty.png,Door3,-0.335185185,-0.05462963,1,0,0,0.7335,optionLeft,70,70,1,0,0,0,0,1,,,,,,,,,,,,,,,,,,,,,,,,,,,,,,,,,,,,,,,
,,,,,,,,2023-08-16_08h46.47.432,HF_wild_card,2022.2.4,Win32,59.99880002,6310c063bd0cce86b0289d20,64d2fd46c836a06233681665,64dc7eafc030f419ae44118a,,,,,,,decisionTrl,resources/DY.BMP,resources/DP.BMP,Door3,0.298148148,-0.068518519,1,0,0,0.6146,optionRight,70,140,1,1,0,1,0,1,,,,,,,,,,,,,,,,,,,,,,,,,,,,,,,,,,,,,,,
,,,,,,,,2023-08-16_08h46.47.432,HF_wild_card,2022.2.4,Win32,59.99880002,6310c063bd0cce86b0289d20,64d2fd46c836a06233681665,64dc7eafc030f419ae44118a,,,,,,,decisionTrl,resources/DBN.BMP,resources/DG.BMP,Door2,0.440740741,-0.009259259,1,0,0,0.8482,optionRight,40,180,1,2,0,2,0,1,,,,,,,,,,,,,,,,,,,,,,,,,,,,,,,,,,,,,,,
,,,,,,,,2023-08-16_08h46.47.432,HF_wild_card,2022.2.4,Win32,59.99880002,6310c063bd0cce86b0289d20,64d2fd46c836a06233681665,64dc7eafc030f419ae44118a,,,,,,,sngl,resources/DY.BMP,resources/Empty.png,Door4,-0.258333333,-0.019444444,1,0,0,0.5315,optionLeft,80,260,1,3,0,3,0,1,,,,,,,,,,,,,,,,,,,,,,,,,,,,,,,,,,,,,,,
,,,,,,,,2023-08-16_08h46.47.432,HF_wild_card,2022.2.4,Win32,59.99880002,6310c063bd0cce86b0289d20,64d2fd46c836a06233681665,64dc7eafc030f419ae44118a,,,,,,,decisionTrl,resources/DG.BMP,resources/DBN.BMP,Door1,0.390740741,0.028703704,1,0,0,1.4811,optionRight,30,290,1,4,0,4,0,1,,,,,,,,,,,,,,,,,,,,,,,,,,,,,,,,,,,,,,,
,,,,,,,,2023-08-16_08h46.47.432,HF_wild_card,2022.2.4,Win32,59.99880002,6310c063bd0cce86b0289d20,64d2fd46c836a06233681665,64dc7eafc030f419ae44118a,,,,,,,sngl,resources/Empty.png,resources/DB.BMP,WildCard_NonEx,0.430555556,-0.021296296,1,0,0,0.515,optionRight,45,335,1,5,0,5,0,1,,,,,,,,,,,,,,,,,,,,,,,,,,,,,,,,,,,,,,,
,,,,,,,,2023-08-16_08h46.47.432,HF_wild_card,2022.2.4,Win32,59.99880002,6310c063bd0cce86b0289d20,64d2fd46c836a06233681665,64dc7eafc030f419ae44118a,,,,,,,decisionTrl,resources/DY.BMP,resources/DB.BMP,Door4,-0.299074074,-0.016666667,1,0,0,2.2651,optionLeft,60,395,1,6,0,6,0,1,,,,,,,,,,,,,,,,,,,,,,,,,,,,,,,,,,,,,,,
,,,,,,,,2023-08-16_08h46.47.432,HF_wild_card,2022.2.4,Win32,59.99880002,6310c063bd0cce86b0289d20,64d2fd46c836a06233681665,64dc7eafc030f419ae44118a,,,,,,,decisionTrl,resources/DP.BMP,resources/DY.BMP,Door3,-0.262962963,0.001851852,1,0,0,0.7486,optionLeft,70,465,1,7,0,7,0,1,,,,,,,,,,,,,,,,,,,,,,,,,,,,,,,,,,,,,,,
,,,,,,,,2023-08-16_08h46.47.432,HF_wild_card,2022.2.4,Win32,59.99880002,6310c063bd0cce86b0289d20,64d2fd46c836a06233681665,64dc7eafc030f419ae44118a,,,,,,,sngl,resources/Empty.png,resources/DP.BMP,Door3,0.360185185,-0.003703704,1,0,0,0.4988,optionRight,70,535,1,8,0,8,0,1,,,,,,,,,,,,,,,,,,,,,,,,,,,,,,,,,,,,,,,
,,,,,,,,2023-08-16_08h46.47.432,HF_wild_card,2022.2.4,Win32,59.99880002,6310c063bd0cce86b0289d20,64d2fd46c836a06233681665,64dc7eafc030f419ae44118a,,,,,,,sngl,resources/DBN.BMP,resources/Empty.png,Door1,-0.214814815,0.002777778,1,0,0,0.6151,optionLeft,30,565,1,9,0,9,0,1,,,,,,,,,,,,,,,,,,,,,,,,,,,,,,,,,,,,,,,
,,,,,,,,2023-08-16_08h46.47.432,HF_wild_card,2022.2.4,Win32,59.99880002,6310c063bd0cce86b0289d20,64d2fd46c836a06233681665,64dc7eafc030f419ae44118a,,,,,,,decisionTrl,resources/DB.BMP,resources/DY.BMP,Door4,0.475925926,0.001851852,1,0,0,1.1986,optionRight,60,625,1,10,0,10,0,1,,,,,,,,,,,,,,,,,,,,,,,,,,,,,,,,,,,,,,,
,,,,,,,,2023-08-16_08h46.47.432,HF_wild_card,2022.2.4,Win32,59.99880002,6310c063bd0cce86b0289d20,64d2fd46c836a06233681665,64dc7eafc030f419ae44118a,,,,,,,ctch,resources/DY.BMP,resources/DBN.BMP,Door4,-0.265740741,0.017592593,1,0,0,0.8155,optionLeft,60,685,1,11,0,11,0,1,,,,,,,,,,,,,,,,,,,,,,,,,,,,,,,,,,,,,,,
,,,,,,,,2023-08-16_08h46.47.432,HF_wild_card,2022.2.4,Win32,59.99880002,6310c063bd0cce86b0289d20,64d2fd46c836a06233681665,64dc7eafc030f419ae44118a,,,,,,,ctch,resources/DG.BMP,resources/DP.BMP,Door3,0.435185185,0.002777778,1,0,0,0.8987,optionRight,70,755,1,12,0,12,0,1,,,,,,,,,,,,,,,,,,,,,,,,,,,,,,,,,,,,,,,
,,,,,,,,2023-08-16_08h46.47.432,HF_wild_card,2022.2.4,Win32,59.99880002,6310c063bd0cce86b0289d20,64d2fd46c836a06233681665,64dc7eafc030f419ae44118a,,,,,,,decisionTrl,resources/DG.BMP,resources/DBN.BMP,Door2,-0.324074074,0.00462963,1,0,0,0.7321,optionLeft,20,775,1,13,0,13,0,1,,,,,,,,,,,,,,,,,,,,,,,,,,,,,,,,,,,,,,,
,,,,,,,,2023-08-16_08h46.47.432,HF_wild_card,2022.2.4,Win32,59.99880002,6310c063bd0cce86b0289d20,64d2fd46c836a06233681665,64dc7eafc030f419ae44118a,,,,,,,sngl,resources/Empty.png,resources/DY.BMP,Door4,0.325925926,0.005555556,1,0,0,0.4654,optionRight,60,835,1,14,0,14,0,1,,,,,,,,,,,,,,,,,,,,,,,,,,,,,,,,,,,,,,,
,,,,,,,,2023-08-16_08h46.47.432,HF_wild_card,2022.2.4,Win32,59.99880002,6310c063bd0cce86b0289d20,64d2fd46c836a06233681665,64dc7eafc030f419ae44118a,,,,,,,decisionTrl,resources/DY.BMP,resources/DP.BMP,Door3,0.265740741,0.018518519,1,0,0,0.7048,optionRight,70,905,1,15,0,15,0,1,,,,,,,,,,,,,,,,,,,,,,,,,,,,,,,,,,,,,,,
,,,,,,,,2023-08-16_08h46.47.432,HF_wild_card,2022.2.4,Win32,59.99880002,6310c063bd0cce86b0289d20,64d2fd46c836a06233681665,64dc7eafc030f419ae44118a,,,,,,,sngl,resources/Empty.png,resources/DB.BMP,WildCard_NonEx,0.163888889,0.003703704,1,0,0,0.6074,optionRight,55,960,1,16,0,16,0,1,,,,,,,,,,,,,,,,,,,,,,,,,,,,,,,,,,,,,,,
,,,,,,,,2023-08-16_08h46.47.432,HF_wild_card,2022.2.4,Win32,59.99880002,6310c063bd0cce86b0289d20,64d2fd46c836a06233681665,64dc7eafc030f419ae44118a,,,,,,,sngl,resources/Empty.png,resources/DG.BMP,Door2,0.572222222,-0.143518519,1,0,0,0.5754,optionRight,20,980,1,17,0,17,0,1,,,,,,,,,,,,,,,,,,,,,,,,,,,,,,,,,,,,,,,
,,,,,,,,2023-08-16_08h46.47.432,HF_wild_card,2022.2.4,Win32,59.99880002,6310c063bd0cce86b0289d20,64d2fd46c836a06233681665,64dc7eafc030f419ae44118a,,,,,,,decisionTrl,resources/DBN.BMP,resources/DB.BMP,WildCard_NonEx,0.380555556,-0.022222222,1,0,0,0.8811,optionRight,55,1035,1,18,0,18,0,1,,,,,,,,,,,,,,,,,,,,,,,,,,,,,,,,,,,,,,,
,,,,,,,,2023-08-16_08h46.47.432,HF_wild_card,2022.2.4,Win32,59.99880002,6310c063bd0cce86b0289d20,64d2fd46c836a06233681665,64dc7eafc030f419ae44118a,,,,,,,decisionTrl,resources/DB.BMP,resources/DP.BMP,Door3,0.525925926,-0.009259259,1,0,0,0.7644,optionRight,70,1105,1,19,0,19,0,1,,,,,,,,,,,,,,,,,,,,,,,,,,,,,,,,,,,,,,,
,,,,,,,,2023-08-16_08h46.47.432,HF_wild_card,2022.2.4,Win32,59.99880002,6310c063bd0cce86b0289d20,64d2fd46c836a06233681665,64dc7eafc030f419ae44118a,,,,,,,sngl,resources/DB.BMP,resources/Empty.png,WildCard_NonEx,-0.237962963,-0.022222222,1,0,0,0.5986,optionLeft,45,1150,1,20,0,20,0,1,,,,,,,,,,,,,,,,,,,,,,,,,,,,,,,,,,,,,,,
,,,,,,,,2023-08-16_08h46.47.432,HF_wild_card,2022.2.4,Win32,59.99880002,6310c063bd0cce86b0289d20,64d2fd46c836a06233681665,64dc7eafc030f419ae44118a,,,,,,,ctch,resources/DBN.BMP,resources/DY.BMP,Door4,0.374074074,-0.017592593,1,0,0,0.9315,optionRight,60,1210,1,21,0,21,0,1,,,,,,,,,,,,,,,,,,,,,,,,,,,,,,,,,,,,,,,
,,,,,,,,2023-08-16_08h46.47.432,HF_wild_card,2022.2.4,Win32,59.99880002,6310c063bd0cce86b0289d20,64d2fd46c836a06233681665,64dc7eafc030f419ae44118a,,,,,,,sngl,resources/Empty.png,resources/DBN.BMP,Door1,0.350925926,0.022222222,1,0,0,0.4558,optionRight,30,1240,1,22,0,22,0,1,,,,,,,,,,,,,,,,,,,,,,,,,,,,,,,,,,,,,,,
,,,,,,,,2023-08-16_08h46.47.432,HF_wild_card,2022.2.4,Win32,59.99880002,6310c063bd0cce86b0289d20,64d2fd46c836a06233681665,64dc7eafc030f419ae44118a,,,,,,,decisionTrl,resources/DBN.BMP,resources/DG.BMP,Door2,0.30462963,-0.016666667,1,0,0,0.6646,optionRight,20,1260,1,23,0,23,0,1,,,,,,,,,,,,,,,,,,,,,,,,,,,,,,,,,,,,,,,
,,,,,,,,2023-08-16_08h46.47.432,HF_wild_card,2022.2.4,Win32,59.99880002,6310c063bd0cce86b0289d20,64d2fd46c836a06233681665,64dc7eafc030f419ae44118a,,,,,,,decisionTrl,resources/DP.BMP,resources/DY.BMP,Door3,-0.22962963,0.002777778,1,0,0,0.6642,optionLeft,70,1330,1,24,0,24,0,1,,,,,,,,,,,,,,,,,,,,,,,,,,,,,,,,,,,,,,,
,,,,,,,,2023-08-16_08h46.47.432,HF_wild_card,2022.2.4,Win32,59.99880002,6310c063bd0cce86b0289d20,64d2fd46c836a06233681665,64dc7eafc030f419ae44118a,,,,,,,decisionTrl,resources/DG.BMP,resources/DBN.BMP,Door1,0.431481481,-0.017592593,1,0,0,0.6153,optionRight,30,1360,1,25,0,25,0,1,,,,,,,,,,,,,,,,,,,,,,,,,,,,,,,,,,,,,,,
,,,,,,,,2023-08-16_08h46.47.432,HF_wild_card,2022.2.4,Win32,59.99880002,6310c063bd0cce86b0289d20,64d2fd46c836a06233681665,64dc7eafc030f419ae44118a,,,,,,,decisionTrl,resources/DG.BMP,resources/DBN.BMP,Door2,-0.230555556,0.022222222,1,0,0,0.5427,optionLeft,40,1400,1,26,0,26,0,1,,,,,,,,,,,,,,,,,,,,,,,,,,,,,,,,,,,,,,,
,,,,,,,,2023-08-16_08h46.47.432,HF_wild_card,2022.2.4,Win32,59.99880002,6310c063bd0cce86b0289d20,64d2fd46c836a06233681665,64dc7eafc030f419ae44118a,,,,,,,decisionTrl,resources/DY.BMP,resources/DP.BMP,Door3,0.464814815,-0.062962963,1,0,0,0.8388,optionRight,70,1470,1,27,0,27,0,1,,,,,,,,,,,,,,,,,,,,,,,,,,,,,,,,,,,,,,,
,,,,,,,,2023-08-16_08h46.47.432,HF_wild_card,2022.2.4,Win32,59.99880002,6310c063bd0cce86b0289d20,64d2fd46c836a06233681665,64dc7eafc030f419ae44118a,,,,,,,ctch,resources/DP.BMP,resources/DG.BMP,Door3,-0.235721703,0.039979232,1,0,0,0.675,optionLeft,70,1540,1,28,0,28,0,1,,,,,,,,,,,,,,,,,,,,,,,,,,,,,,,,,,,,,,,
,,,,,,,,2023-08-16_08h46.47.432,HF_wild_card,2022.2.4,Win32,59.99880002,6310c063bd0cce86b0289d20,64d2fd46c836a06233681665,64dc7eafc030f419ae44118a,,,,,,,decisionTrl,resources/DP.BMP,resources/DY.BMP,Door3,-0.33748702,0.028556594,1,0,0,1.308,optionLeft,70,1610,1,29,0,29,0,1,,,,,,,,,,,,,,,,,,,,,,,,,,,,,,,,,,,,,,,
,,,,,,,,2023-08-16_08h46.47.432,HF_wild_card,2022.2.4,Win32,59.99880002,6310c063bd0cce86b0289d20,64d2fd46c836a06233681665,64dc7eafc030f419ae44118a,,,,,,,decisionTrl,resources/DBN.BMP,resources/DG.BMP,Door1,-0.327102804,0.070093458,1,0,0,1.0254,optionLeft,30,1640,1,30,0,30,0,1,,,,,,,,,,,,,,,,,,,,,,,,,,,,,,,,,,,,,,,
,,,,,,,,2023-08-16_08h46.47.432,HF_wild_card,2022.2.4,Win32,59.99880002,6310c063bd0cce86b0289d20,64d2fd46c836a06233681665,64dc7eafc030f419ae44118a,,,,,,,decisionTrl,resources/DB.BMP,resources/DG.BMP,WildCard_NonEx,-0.36344756,0.014018692,1,0,0,0.9321,optionLeft,55,1695,1,31,0,31,0,1,,,,,,,,,,,,,,,,,,,,,,,,,,,,,,,,,,,,,,,
,,,,,,,,2023-08-16_08h46.47.432,HF_wild_card,2022.2.4,Win32,59.99880002,6310c063bd0cce86b0289d20,64d2fd46c836a06233681665,64dc7eafc030f419ae44118a,,,,,,,decisionTrl,resources/DP.BMP,resources/DY.BMP,Door3,-0.213914849,-0.011941848,1,0,0,0.5981,optionLeft,70,1765,1,32,0,32,0,1,,,,,,,,,,,,,,,,,,,,,,,,,,,,,,,,,,,,,,,
,,,,,,,,2023-08-16_08h46.47.432,HF_wild_card,2022.2.4,Win32,59.99880002,6310c063bd0cce86b0289d20,64d2fd46c836a06233681665,64dc7eafc030f419ae44118a,,,,,,,decisionTrl,resources/DBN.BMP,resources/DG.BMP,Door1,-0.258566978,0.00674974,1,0,0,0.8486,optionLeft,30,1795,1,33,0,33,0,1,,,,,,,,,,,,,,,,,,,,,,,,,,,,,,,,,,,,,,,
,,,,,,,,2023-08-16_08h46.47.432,HF_wild_card,2022.2.4,Win32,59.99880002,6310c063bd0cce86b0289d20,64d2fd46c836a06233681665,64dc7eafc030f419ae44118a,,,,,,,ctch,resources/DY.BMP,resources/DBN.BMP,Door1,0.369678089,-0.018172378,1,0,0,1.1988,optionRight,30,1825,1,34,0,34,0,1,,,,,,,,,,,,,,,,,,,,,,,,,,,,,,,,,,,,,,,
,,,,,,,,2023-08-16_08h46.47.432,HF_wild_card,2022.2.4,Win32,59.99880002,6310c063bd0cce86b0289d20,64d2fd46c836a06233681665,64dc7eafc030f419ae44118a,,,,,,,ctch,resources/DG.BMP,resources/DP.BMP,Door3,0.264797508,0.017133956,1,0,0,0.7316,optionRight,70,1895,1,35,0,35,0,1,,,,,,,,,,,,,,,,,,,,,,,,,,,,,,,,,,,,,,,
,,,,,,,,2023-08-16_08h46.47.432,HF_wild_card,2022.2.4,Win32,59.99880002,6310c063bd0cce86b0289d20,64d2fd46c836a06233681665,64dc7eafc030f419ae44118a,,,,,,,decisionTrl,resources/DY.BMP,resources/DP.BMP,Door3,0.28556594,0.005711319,1,0,0,0.6079,optionRight,70,1965,1,36,0,36,0,1,,,,,,,,,,,,,,,,,,,,,,,,,,,,,,,,,,,,,,,
,,,,,,,,2023-08-16_08h46.47.432,HF_wild_card,2022.2.4,Win32,59.99880002,6310c063bd0cce86b0289d20,64d2fd46c836a06233681665,64dc7eafc030f419ae44118a,,,,,,,ctch,resources/DP.BMP,resources/DG.BMP,Door3,-0.220145379,0.017133956,1,0,0,0.5979,optionLeft,70,2035,1,37,0,37,0,1,,,,,,,,,,,,,,,,,,,,,,,,,,,,,,,,,,,,,,,
,,,,,,,,2023-08-16_08h46.47.432,HF_wild_card,2022.2.4,Win32,59.99880002,6310c063bd0cce86b0289d20,64d2fd46c836a06233681665,64dc7eafc030f419ae44118a,,,,,,,decisionTrl,resources/DB.BMP,resources/DBN.BMP,Door1,0.321910696,0.048286604,1,0,0,0.898,optionRight,30,2065,1,38,0,38,0,1,,,,,,,,,,,,,,,,,,,,,,,,,,,,,,,,,,,,,,,
,,,,,,,,2023-08-16_08h46.47.432,HF_wild_card,2022.2.4,Win32,59.99880002,6310c063bd0cce86b0289d20,64d2fd46c836a06233681665,64dc7eafc030f419ae44118a,,,,,,,decisionTrl,resources/DP.BMP,resources/DB.BMP,Door3,-0.391484943,-0.01298027,1,0,0,0.8818,optionLeft,70,2135,1,39,0,39,0,1,,,,,,,,,,,,,,,,,,,,,,,,,,,,,,,,,,,,,,,
,,,,,,,,2023-08-16_08h46.47.432,HF_wild_card,2022.2.4,Win32,59.99880002,6310c063bd0cce86b0289d20,64d2fd46c836a06233681665,64dc7eafc030f419ae44118a,,,,,,,sngl,resources/DG.BMP,resources/Empty.png,Door2,-0.220145379,-0.023364486,1,0,0,0.5483,optionLeft,40,2175,1,40,0,40,0,1,,,,,,,,,,,,,,,,,,,,,,,,,,,,,,,,,,,,,,,
,,,,,,,,2023-08-16_08h46.47.432,HF_wild_card,2022.2.4,Win32,59.99880002,6310c063bd0cce86b0289d20,64d2fd46c836a06233681665,64dc7eafc030f419ae44118a,,,,,,,sngl,resources/DB.BMP,resources/Empty.png,WildCard_NonEx,-0.234683281,-0.035825545,1,0,0,0.9986,optionLeft,55,2230,1,41,0,41,0,1,,,,,,,,,,,,,,,,,,,,,,,,,,,,,,,,,,,,,,,
,,,,,,,,2023-08-16_08h46.47.432,HF_wild_card,2022.2.4,Win32,59.99880002,6310c063bd0cce86b0289d20,64d2fd46c836a06233681665,64dc7eafc030f419ae44118a,,,,,,,ctch,resources/DBN.BMP,resources/DY.BMP,Door1,-0.476635514,-0.026479751,1,0,0,0.9985,optionLeft,30,2260,1,42,0,42,0,1,,,,,,,,,,,,,,,,,,,,,,,,,,,,,,,,,,,,,,,
,,,,,,,,2023-08-16_08h46.47.432,HF_wild_card,2022.2.4,Win32,59.99880002,6310c063bd0cce86b0289d20,64d2fd46c836a06233681665,64dc7eafc030f419ae44118a,,,,,,,decisionTrl,resources/DG.BMP,resources/DB.BMP,Door2,-0.258566978,-0.025441329,1,0,0,0.9321,optionLeft,40,2300,1,43,0,43,0,1,,,,,,,,,,,,,,,,,,,,,,,,,,,,,,,,,,,,,,,
,,,,,,,,2023-08-16_08h46.47.432,HF_wild_card,2022.2.4,Win32,59.99880002,6310c063bd0cce86b0289d20,64d2fd46c836a06233681665,64dc7eafc030f419ae44118a,,,,,,,,,,,,,,,,,,,,,,,,,,0,0,0,0,1,,,,,,,,,,,,,,,,,,,,,,,,,,,,,,,,,,
,,,,,,,,2023-08-16_08h46.47.432,HF_wild_card,2022.2.4,Win32,59.99880002,6310c063bd0cce86b0289d20,64d2fd46c836a06233681665,64dc7eafc030f419ae44118a,,,,,,,decisionTrl,resources/DP.BMP,resources/DY.BMP,Door3,-0.356178609,-0.08463136,1,0,0,1.3473,optionLeft,70,2370,2,0,0,0,0,1,,,,,,,,,,,,,,,,,,,,,,,,,,,,,,,,,,,,,,,
,,,,,,,,2023-08-16_08h46.47.432,HF_wild_card,2022.2.4,Win32,59.99880002,6310c063bd0cce86b0289d20,64d2fd46c836a06233681665,64dc7eafc030f419ae44118a,,,,,,,sngl,resources/Empty.png,resources/DY.BMP,Door4,0.237798546,-0.025441329,1,0,0,0.6649,optionRight,80,2450,2,1,0,1,0,1,,,,,,,,,,,,,,,,,,,,,,,,,,,,,,,,,,,,,,,
,,,,,,,,2023-08-16_08h46.47.432,HF_wild_card,2022.2.4,Win32,59.99880002,6310c063bd0cce86b0289d20,64d2fd46c836a06233681665,64dc7eafc030f419ae44118a,,,,,,,ctch,resources/DP.BMP,resources/DG.BMP,Door3,-0.326064382,-0.024402908,1,0,0,1.0971,optionLeft,70,2520,2,2,0,2,0,1,,,,,,,,,,,,,,,,,,,,,,,,,,,,,,,,,,,,,,,
,,,,,,,,2023-08-16_08h46.47.432,HF_wild_card,2022.2.4,Win32,59.99880002,6310c063bd0cce86b0289d20,64d2fd46c836a06233681665,64dc7eafc030f419ae44118a,,,,,,,decisionTrl,resources/DG.BMP,resources/DBN.BMP,Door2,-0.272066459,-0.002596054,1,0,0,1.582,optionLeft,20,2540,2,3,0,3,0,1,,,,,,,,,,,,,,,,,,,,,,,,,,,,,,,,,,,,,,,
,,,,,,,,2023-08-16_08h46.47.432,HF_wild_card,2022.2.4,Win32,59.99880002,6310c063bd0cce86b0289d20,64d2fd46c836a06233681665,64dc7eafc030f419ae44118a,,,,,,,decisionTrl,resources/DB.BMP,resources/DBN.BMP,WildCard_NonEx,-0.573208723,-0.063862928,1,0,0,1.4486,optionLeft,55,2595,2,4,0,4,0,1,,,,,,,,,,,,,,,,,,,,,,,,,,,,,,,,,,,,,,,
,,,,,,,,2023-08-16_08h46.47.432,HF_wild_card,2022.2.4,Win32,59.99880002,6310c063bd0cce86b0289d20,64d2fd46c836a06233681665,64dc7eafc030f419ae44118a,,,,,,,decisionTrl,resources/DY.BMP,resources/DP.BMP,Door4,-0.264797508,-0.035825545,1,0,0,1.1155,optionLeft,80,2675,2,5,0,5,0,1,,,,,,,,,,,,,,,,,,,,,,,,,,,,,,,,,,,,,,,
,,,,,,,,2023-08-16_08h46.47.432,HF_wild_card,2022.2.4,Win32,59.99880002,6310c063bd0cce86b0289d20,64d2fd46c836a06233681665,64dc7eafc030f419ae44118a,,,,,,,decisionTrl,resources/DB.BMP,resources/DY.BMP,Door4,0.250259605,0.010903427,1,0,0,0.5652,optionRight,60,2735,2,6,0,6,0,1,,,,,,,,,,,,,,,,,,,,,,,,,,,,,,,,,,,,,,,
,,,,,,,,2023-08-16_08h46.47.432,HF_wild_card,2022.2.4,Win32,59.99880002,6310c063bd0cce86b0289d20,64d2fd46c836a06233681665,64dc7eafc030f419ae44118a,,,,,,,decisionTrl,resources/DP.BMP,resources/DY.BMP,Door4,0.328141225,-0.01298027,1,0,0,0.8652,optionRight,80,2815,2,7,0,7,0,1,,,,,,,,,,,,,,,,,,,,,,,,,,,,,,,,,,,,,,,
,,,,,,,,2023-08-16_08h46.47.432,HF_wild_card,2022.2.4,Win32,59.99880002,6310c063bd0cce86b0289d20,64d2fd46c836a06233681665,64dc7eafc030f419ae44118a,,,,,,,ctch,resources/DY.BMP,resources/DBN.BMP,Door4,-0.334371755,-0.055555556,1,0,0,0.8814,optionLeft,60,2875,2,8,0,8,0,1,,,,,,,,,,,,,,,,,,,,,,,,,,,,,,,,,,,,,,,
,,,,,,,,2023-08-16_08h46.47.432,HF_wild_card,2022.2.4,Win32,59.99880002,6310c063bd0cce86b0289d20,64d2fd46c836a06233681665,64dc7eafc030f419ae44118a,,,,,,,sngl,resources/DBN.BMP,resources/Empty.png,Door1,-0.248182762,-0.027518172,1,0,0,0.6318,optionLeft,30,2905,2,9,0,9,0,1,,,,,,,,,,,,,,,,,,,,,,,,,,,,,,,,,,,,,,,
,,,,,,,,2023-08-16_08h46.47.432,HF_wild_card,2022.2.4,Win32,59.99880002,6310c063bd0cce86b0289d20,64d2fd46c836a06233681665,64dc7eafc030f419ae44118a,,,,,,,decisionTrl,resources/DY.BMP,resources/DP.BMP,Door4,-0.348909657,-0.027518172,1,0,0,0.9488,optionLeft,60,2965,2,10,0,10,0,1,,,,,,,,,,,,,,,,,,,,,,,,,,,,,,,,,,,,,,,
,,,,,,,,2023-08-16_08h46.47.432,HF_wild_card,2022.2.4,Win32,59.99880002,6310c063bd0cce86b0289d20,64d2fd46c836a06233681665,64dc7eafc030f419ae44118a,,,,,,,decisionTrl,resources/DB.BMP,resources/DP.BMP,Door3,0.361370717,-0.008826584,1,0,0,1.3485,optionRight,70,3035,2,11,0,11,0,1,,,,,,,,,,,,,,,,,,,,,,,,,,,,,,,,,,,,,,,
,,,,,,,,2023-08-16_08h46.47.432,HF_wild_card,2022.2.4,Win32,59.99880002,6310c063bd0cce86b0289d20,64d2fd46c836a06233681665,64dc7eafc030f419ae44118a,,,,,,,sngl,resources/DP.BMP,resources/Empty.png,Door3,-0.304257529,-0.03894081,1,0,0,0.4819,optionLeft,70,3105,2,12,0,12,0,1,,,,,,,,,,,,,,,,,,,,,,,,,,,,,,,,,,,,,,,
,,,,,,,,2023-08-16_08h46.47.432,HF_wild_card,2022.2.4,Win32,59.99880002,6310c063bd0cce86b0289d20,64d2fd46c836a06233681665,64dc7eafc030f419ae44118a,,,,,,,decisionTrl,resources/DBN.BMP,resources/DG.BMP,Door2,0.323987539,-0.020249221,1,0,0,1.0151,optionRight,40,3145,2,13,0,13,0,1,,,,,,,,,,,,,,,,,,,,,,,,,,,,,,,,,,,,,,,
,,,,,,,,2023-08-16_08h46.47.432,HF_wild_card,2022.2.4,Win32,59.99880002,6310c063bd0cce86b0289d20,64d2fd46c836a06233681665,64dc7eafc030f419ae44118a,,,,,,,decisionTrl,resources/DY.BMP,resources/DB.BMP,Door4,-0.224299065,-0.046209761,1,0,0,1.3315,optionLeft,60,3205,2,14,0,14,0,1,,,,,,,,,,,,,,,,,,,,,,,,,,,,,,,,,,,,,,,
,,,,,,,,2023-08-16_08h46.47.432,HF_wild_card,2022.2.4,Win32,59.99880002,6310c063bd0cce86b0289d20,64d2fd46c836a06233681665,64dc7eafc030f419ae44118a,,,,,,,sngl,resources/Empty.png,resources/DB.BMP,WildCard_NonEx,0.299065421,0.010903427,1,0,0,0.5817,optionRight,55,3260,2,15,0,15,0,1,,,,,,,,,,,,,,,,,,,,,,,,,,,,,,,,,,,,,,,
,,,,,,,,2023-08-16_08h46.47.432,HF_wild_card,2022.2.4,Win32,59.99880002,6310c063bd0cce86b0289d20,64d2fd46c836a06233681665,64dc7eafc030f419ae44118a,,,,,,,ctch,resources/DG.BMP,resources/DP.BMP,Door3,0.306334372,-0.007788162,1,0,0,1.7988,optionRight,70,3330,2,16,0,16,0,1,,,,,,,,,,,,,,,,,,,,,,,,,,,,,,,,,,,,,,,
,,,,,,,,2023-08-16_08h46.47.432,HF_wild_card,2022.2.4,Win32,59.99880002,6310c063bd0cce86b0289d20,64d2fd46c836a06233681665,64dc7eafc030f419ae44118a,,,,,,,decisionTrl,resources/DP.BMP,resources/DY.BMP,Door3,-0.269989616,-0.036863967,1,0,0,0.6157,optionLeft,70,3400,2,17,0,17,0,1,,,,,,,,,,,,,,,,,,,,,,,,,,,,,,,,,,,,,,,
,,,,,,,,2023-08-16_08h46.47.432,HF_wild_card,2022.2.4,Win32,59.99880002,6310c063bd0cce86b0289d20,64d2fd46c836a06233681665,64dc7eafc030f419ae44118a,,,,,,,decisionTrl,resources/DBN.BMP,resources/DG.BMP,Door2,0.354101765,0.024402908,1,0,0,0.9264,optionRight,20,3420,2,18,0,18,0,1,,,,,,,,,,,,,,,,,,,,,,,,,,,,,,,,,,,,,,,
,,,,,,,,2023-08-16_08h46.47.432,HF_wild_card,2022.2.4,Win32,59.99880002,6310c063bd0cce86b0289d20,64d2fd46c836a06233681665,64dc7eafc030f419ae44118a,,,,,,,decisionTrl,resources/DBN.BMP,resources/DG.BMP,Door1,-0.33125649,0.020249221,1,0,0,0.8489,optionLeft,30,3450,2,19,0,19,0,1,,,,,,,,,,,,,,,,,,,,,,,,,,,,,,,,,,,,,,,
,,,,,,,,2023-08-16_08h46.47.432,HF_wild_card,2022.2.4,Win32,59.99880002,6310c063bd0cce86b0289d20,64d2fd46c836a06233681665,64dc7eafc030f419ae44118a,,,,,,,decisionTrl,resources/DBN.BMP,resources/DB.BMP,Door1,-0.325025961,-0.003634476,1,0,0,0.582,optionLeft,30,3480,2,20,0,20,0,1,,,,,,,,,,,,,,,,,,,,,,,,,,,,,,,,,,,,,,,
,,,,,,,,2023-08-16_08h46.47.432,HF_wild_card,2022.2.4,Win32,59.99880002,6310c063bd0cce86b0289d20,64d2fd46c836a06233681665,64dc7eafc030f419ae44118a,,,,,,,ctch,resources/DP.BMP,resources/DG.BMP,Door3,-0.226375909,-0.018172378,1,0,0,1.3491,optionLeft,70,3550,2,21,0,21,0,1,,,,,,,,,,,,,,,,,,,,,,,,,,,,,,,,,,,,,,,
,,,,,,,,2023-08-16_08h46.47.432,HF_wild_card,2022.2.4,Win32,59.99880002,6310c063bd0cce86b0289d20,64d2fd46c836a06233681665,64dc7eafc030f419ae44118a,,,,,,,decisionTrl,resources/DG.BMP,resources/DBN.BMP,Door1,0.326064382,0.028556594,1,0,0,1.299,optionRight,30,3580,2,22,0,22,0,1,,,,,,,,,,,,,,,,,,,,,,,,,,,,,,,,,,,,,,,
,,,,,,,,2023-08-16_08h46.47.432,HF_wild_card,2022.2.4,Win32,59.99880002,6310c063bd0cce86b0289d20,64d2fd46c836a06233681665,64dc7eafc030f419ae44118a,,,,,,,sngl,resources/Empty.png,resources/DB.BMP,WildCard_NonEx,0.313603323,0.016095535,1,0,0,0.5651,optionRight,45,3625,2,23,0,23,0,1,,,,,,,,,,,,,,,,,,,,,,,,,,,,,,,,,,,,,,,
,,,,,,,,2023-08-16_08h46.47.432,HF_wild_card,2022.2.4,Win32,59.99880002,6310c063bd0cce86b0289d20,64d2fd46c836a06233681665,64dc7eafc030f419ae44118a,,,,,,,sngl,resources/DB.BMP,resources/Empty.png,WildCard_NonEx,-0.277258567,-0.0192108,1,0,0,0.482,optionLeft,45,3670,2,24,0,24,0,1,,,,,,,,,,,,,,,,,,,,,,,,,,,,,,,,,,,,,,,
,,,,,,,,2023-08-16_08h46.47.432,HF_wild_card,2022.2.4,Win32,59.99880002,6310c063bd0cce86b0289d20,64d2fd46c836a06233681665,64dc7eafc030f419ae44118a,,,,,,,sngl,resources/Empty.png,resources/DP.BMP,Door3,0.483904465,-0.004672897,1,0,0,0.5321,optionRight,70,3740,2,25,0,25,0,1,,,,,,,,,,,,,,,,,,,,,,,,,,,,,,,,,,,,,,,
,,,,,,,,2023-08-16_08h46.47.432,HF_wild_card,2022.2.4,Win32,59.99880002,6310c063bd0cce86b0289d20,64d2fd46c836a06233681665,64dc7eafc030f419ae44118a,,,,,,,sngl,resources/DG.BMP,resources/Empty.png,Door2,-0.226375909,-0.0192108,1,0,0,0.6819,optionLeft,20,3760,2,26,0,26,0,1,,,,,,,,,,,,,,,,,,,,,,,,,,,,,,,,,,,,,,,
,,,,,,,,2023-08-16_08h46.47.432,HF_wild_card,2022.2.4,Win32,59.99880002,6310c063bd0cce86b0289d20,64d2fd46c836a06233681665,64dc7eafc030f419ae44118a,,,,,,,decisionTrl,resources/DG.BMP,resources/DBN.BMP,Door1,0.342679128,0.009865005,1,0,0,1.016,optionRight,30,3790,2,27,0,27,0,1,,,,,,,,,,,,,,,,,,,,,,,,,,,,,,,,,,,,,,,
,,,,,,,,2023-08-16_08h46.47.432,HF_wild_card,2022.2.4,Win32,59.99880002,6310c063bd0cce86b0289d20,64d2fd46c836a06233681665,64dc7eafc030f419ae44118a,,,,,,,decisionTrl,resources/DB.BMP,resources/DG.BMP,Door2,0.206645898,0.028556594,1,0,0,1.5816,optionRight,20,3810,2,28,0,28,0,1,,,,,,,,,,,,,,,,,,,,,,,,,,,,,,,,,,,,,,,
,,,,,,,,2023-08-16_08h46.47.432,HF_wild_card,2022.2.4,Win32,59.99880002,6310c063bd0cce86b0289d20,64d2fd46c836a06233681665,64dc7eafc030f419ae44118a,,,,,,,ctch,resources/DBN.BMP,resources/DY.BMP,Door4,0.301142264,0.021287643,1,0,0,1.1321,optionRight,60,3870,2,29,0,29,0,1,,,,,,,,,,,,,,,,,,,,,,,,,,,,,,,,,,,,,,,
,,,,,,,,2023-08-16_08h46.47.432,HF_wild_card,2022.2.4,Win32,59.99880002,6310c063bd0cce86b0289d20,64d2fd46c836a06233681665,64dc7eafc030f419ae44118a,,,,,,,decisionTrl,resources/DP.BMP,resources/DY.BMP,Door4,0.314641745,-0.026479751,1,0,0,1.2651,optionRight,80,3950,2,30,0,30,0,1,,,,,,,,,,,,,,,,,,,,,,,,,,,,,,,,,,,,,,,
,,,,,,,,2023-08-16_08h46.47.432,HF_wild_card,2022.2.4,Win32,59.99880002,6310c063bd0cce86b0289d20,64d2fd46c836a06233681665,64dc7eafc030f419ae44118a,,,,,,,decisionTrl,resources/DY.BMP,resources/DP.BMP,Door4,-0.255451713,-0.048286604,1,0,0,0.8819,optionLeft,60,4010,2,31,0,31,0,1,,,,,,,,,,,,,,,,,,,,,,,,,,,,,,,,,,,,,,,
,,,,,,,,2023-08-16_08h46.47.432,HF_wild_card,2022.2.4,Win32,59.99880002,6310c063bd0cce86b0289d20,64d2fd46c836a06233681665,64dc7eafc030f419ae44118a,,,,,,,decisionTrl,resources/DG.BMP,resources/DBN.BMP,Door1,0.373831776,0.035825545,1,0,0,1.5988,optionRight,30,4040,2,32,0,32,0,1,,,,,,,,,,,,,,,,,,,,,,,,,,,,,,,,,,,,,,,
,,,,,,,,2023-08-16_08h46.47.432,HF_wild_card,2022.2.4,Win32,59.99880002,6310c063bd0cce86b0289d20,64d2fd46c836a06233681665,64dc7eafc030f419ae44118a,,,,,,,decisionTrl,resources/DY.BMP,resources/DP.BMP,Door3,0.606438214,-0.044132918,1,0,0,1.0489,optionRight,70,4110,2,33,0,33,0,1,,,,,,,,,,,,,,,,,,,,,,,,,,,,,,,,,,,,,,,
,,,,,,,,2023-08-16_08h46.47.432,HF_wild_card,2022.2.4,Win32,59.99880002,6310c063bd0cce86b0289d20,64d2fd46c836a06233681665,64dc7eafc030f419ae44118a,,,,,,,ctch,resources/DBN.BMP,resources/DY.BMP,Door4,0.365524403,0.010903427,1,0,0,0.5155,optionRight,60,4170,2,34,0,34,0,1,,,,,,,,,,,,,,,,,,,,,,,,,,,,,,,,,,,,,,,
,,,,,,,,2023-08-16_08h46.47.432,HF_wild_card,2022.2.4,Win32,59.99880002,6310c063bd0cce86b0289d20,64d2fd46c836a06233681665,64dc7eafc030f419ae44118a,,,,,,,decisionTrl,resources/DP.BMP,resources/DB.BMP,WildCard_NonEx,0.3894081,0.027518172,1,0,0,1.3821,optionRight,55,4225,2,35,0,35,0,1,,,,,,,,,,,,,,,,,,,,,,,,,,,,,,,,,,,,,,,
,,,,,,,,2023-08-16_08h46.47.432,HF_wild_card,2022.2.4,Win32,59.99880002,6310c063bd0cce86b0289d20,64d2fd46c836a06233681665,64dc7eafc030f419ae44118a,,,,,,,sngl,resources/Empty.png,resources/DBN.BMP,Door1,0.345794393,0.022326064,1,0,0,0.5484,optionRight,30,4255,2,36,0,36,0,1,,,,,,,,,,,,,,,,,,,,,,,,,,,,,,,,,,,,,,,
,,,,,,,,2023-08-16_08h46.47.432,HF_wild_card,2022.2.4,Win32,59.99880002,6310c063bd0cce86b0289d20,64d2fd46c836a06233681665,64dc7eafc030f419ae44118a,,,,,,,sngl,resources/Empty.png,resources/DG.BMP,Door2,0.403946002,0.0192108,1,0,0,0.532,optionRight,40,4295,2,37,0,37,0,1,,,,,,,,,,,,,,,,,,,,,,,,,,,,,,,,,,,,,,,
,,,,,,,,2023-08-16_08h46.47.432,HF_wild_card,2022.2.4,Win32,59.99880002,6310c063bd0cce86b0289d20,64d2fd46c836a06233681665,64dc7eafc030f419ae44118a,,,,,,,decisionTrl,resources/DBN.BMP,resources/DG.BMP,Door1,-0.210799585,0.048286604,1,0,0,1.4656,optionLeft,30,4325,2,38,0,38,0,1,,,,,,,,,,,,,,,,,,,,,,,,,,,,,,,,,,,,,,,
,,,,,,,,2023-08-16_08h46.47.432,HF_wild_card,2022.2.4,Win32,59.99880002,6310c063bd0cce86b0289d20,64d2fd46c836a06233681665,64dc7eafc030f419ae44118a,,,,,,,ctch,resources/DY.BMP,resources/DBN.BMP,Door4,-0.187954309,-0.023364486,1,0,0,1.1485,optionLeft,60,4385,2,39,0,39,0,1,,,,,,,,,,,,,,,,,,,,,,,,,,,,,,,,,,,,,,,
,,,,,,,,2023-08-16_08h46.47.432,HF_wild_card,2022.2.4,Win32,59.99880002,6310c063bd0cce86b0289d20,64d2fd46c836a06233681665,64dc7eafc030f419ae44118a,,,,,,,decisionTrl,resources/DG.BMP,resources/DB.BMP,Door2,-0.247144341,-0.0192108,1,0,0,0.8152,optionLeft,40,4425,2,40,0,40,0,1,,,,,,,,,,,,,,,,,,,,,,,,,,,,,,,,,,,,,,,
,,,,,,,,2023-08-16_08h46.47.432,HF_wild_card,2022.2.4,Win32,59.99880002,6310c063bd0cce86b0289d20,64d2fd46c836a06233681665,64dc7eafc030f419ae44118a,,,,,,,sngl,resources/DB.BMP,resources/Empty.png,WildCard_NonEx,-0.273104881,-0.000519211,1,0,0,0.4489,optionLeft,55,4480,2,41,0,41,0,1,,,,,,,,,,,,,,,,,,,,,,,,,,,,,,,,,,,,,,,
,,,,,,,,2023-08-16_08h46.47.432,HF_wild_card,2022.2.4,Win32,59.99880002,6310c063bd0cce86b0289d20,64d2fd46c836a06233681665,64dc7eafc030f419ae44118a,,,,,,,sngl,resources/DY.BMP,resources/Empty.png,Door4,-0.521287643,-0.041017653,1,0,0,0.4825,optionLeft,60,4540,2,42,0,42,0,1,,,,,,,,,,,,,,,,,,,,,,,,,,,,,,,,,,,,,,,
,,,,,,,,2023-08-16_08h46.47.432,HF_wild_card,2022.2.4,Win32,59.99880002,6310c063bd0cce86b0289d20,64d2fd46c836a06233681665,64dc7eafc030f419ae44118a,,,,,,,ctch,resources/DG.BMP,resources/DP.BMP,Door3,0.436137072,-0.007788162,1,0,0,1.9488,optionRight,70,4610,2,43,0,43,0,1,,,,,,,,,,,,,,,,,,,,,,,,,,,,,,,,,,,,,,,
,,,,,,,,2023-08-16_08h46.47.432,HF_wild_card,2022.2.4,Win32,59.99880002,6310c063bd0cce86b0289d20,64d2fd46c836a06233681665,64dc7eafc030f419ae44118a,,,,,,,,,,,,,,,,,,,,,,,,,,1,0,1,0,1,,,,,,,,,,,,,,,,,,,,,,,,,,,,,,,,,,
,,,,,,,,2023-08-16_08h46.47.432,HF_wild_card,2022.2.4,Win32,59.99880002,6310c063bd0cce86b0289d20,64d2fd46c836a06233681665,64dc7eafc030f419ae44118a,,,,,,,decisionTrl,resources/DBN.BMP,resources/DG.BMP,Door1,-0.202492212,-0.060747664,1,0,0,3.2747,optionLeft,30,4640,3,0,0,0,0,1,,,,,,,,,,,,,,,,,,,,,,,,,,,,,,,,,,,,,,,
,,,,,,,,2023-08-16_08h46.47.432,HF_wild_card,2022.2.4,Win32,59.99880002,6310c063bd0cce86b0289d20,64d2fd46c836a06233681665,64dc7eafc030f419ae44118a,,,,,,,decisionTrl,resources/DB.BMP,resources/DG.BMP,WildCard_NonEx,-0.225337487,-0.031671859,1,0,0,1.0817,optionLeft,55,4695,3,1,0,1,0,1,,,,,,,,,,,,,,,,,,,,,,,,,,,,,,,,,,,,,,,
,,,,,,,,2023-08-16_08h46.47.432,HF_wild_card,2022.2.4,Win32,59.99880002,6310c063bd0cce86b0289d20,64d2fd46c836a06233681665,64dc7eafc030f419ae44118a,,,,,,,ctch,resources/DY.BMP,resources/DBN.BMP,Door4,-0.130841121,-0.011941848,1,0,0,0.7304,optionLeft,60,4755,3,2,0,2,0,1,,,,,,,,,,,,,,,,,,,,,,,,,,,,,,,,,,,,,,,
,,,,,,,,2023-08-16_08h46.47.432,HF_wild_card,2022.2.4,Win32,59.99880002,6310c063bd0cce86b0289d20,64d2fd46c836a06233681665,64dc7eafc030f419ae44118a,,,,,,,decisionTrl,resources/DP.BMP,resources/DY.BMP,Door4,0.2596054,-0.024402908,1,0,0,1.2974,optionRight,60,4815,3,3,0,3,0,1,,,,,,,,,,,,,,,,,,,,,,,,,,,,,,,,,,,,,,,
,,,,,,,,2023-08-16_08h46.47.432,HF_wild_card,2022.2.4,Win32,59.99880002,6310c063bd0cce86b0289d20,64d2fd46c836a06233681665,64dc7eafc030f419ae44118a,,,,,,,ctch,resources/DBN.BMP,resources/DY.BMP,Door4,0.399792316,-0.041017653,1,0,0,0.6469,optionRight,80,4895,3,4,0,4,0,1,,,,,,,,,,,,,,,,,,,,,,,,,,,,,,,,,,,,,,,
,,,,,,,,2023-08-16_08h46.47.432,HF_wild_card,2022.2.4,Win32,59.99880002,6310c063bd0cce86b0289d20,64d2fd46c836a06233681665,64dc7eafc030f419ae44118a,,,,,,,decisionTrl,resources/DBN.BMP,resources/DG.BMP,Door2,0.390446521,-0.005711319,1,0,0,1.5142,optionRight,20,4915,3,5,0,5,0,1,,,,,,,,,,,,,,,,,,,,,,,,,,,,,,,,,,,,,,,
,,,,,,,,2023-08-16_08h46.47.432,HF_wild_card,2022.2.4,Win32,59.99880002,6310c063bd0cce86b0289d20,64d2fd46c836a06233681665,64dc7eafc030f419ae44118a,,,,,,,sngl,resources/DY.BMP,resources/Empty.png,Door4,-0.192107996,-0.017133956,1,0,0,0.4821,optionLeft,80,4995,3,6,0,6,0,1,,,,,,,,,,,,,,,,,,,,,,,,,,,,,,,,,,,,,,,
,,,,,,,,2023-08-16_08h46.47.432,HF_wild_card,2022.2.4,Win32,59.99880002,6310c063bd0cce86b0289d20,64d2fd46c836a06233681665,64dc7eafc030f419ae44118a,,,,,,,sngl,resources/Empty.png,resources/DP.BMP,Door3,0.48701973,0.003634476,1,0,0,0.4987,optionRight,70,5065,3,7,0,7,0,1,,,,,,,,,,,,,,,,,,,,,,,,,,,,,,,,,,,,,,,
,,,,,,,,2023-08-16_08h46.47.432,HF_wild_card,2022.2.4,Win32,59.99880002,6310c063bd0cce86b0289d20,64d2fd46c836a06233681665,64dc7eafc030f419ae44118a,,,,,,,sngl,resources/Empty.png,resources/DBN.BMP,Door1,0.355140187,0.056593977,1,0,0,0.5319,optionRight,30,5095,3,8,0,8,0,1,,,,,,,,,,,,,,,,,,,,,,,,,,,,,,,,,,,,,,,
,,,,,,,,2023-08-16_08h46.47.432,HF_wild_card,2022.2.4,Win32,59.99880002,6310c063bd0cce86b0289d20,64d2fd46c836a06233681665,64dc7eafc030f419ae44118a,,,,,,,decisionTrl,resources/DP.BMP,resources/DY.BMP,Door3,-0.23364486,0.002596054,1,0,0,0.7156,optionLeft,70,5165,3,9,0,9,0,1,,,,,,,,,,,,,,,,,,,,,,,,,,,,,,,,,,,,,,,
,,,,,,,,2023-08-16_08h46.47.432,HF_wild_card,2022.2.4,Win32,59.99880002,6310c063bd0cce86b0289d20,64d2fd46c836a06233681665,64dc7eafc030f419ae44118a,,,,,,,ctch,resources/DP.BMP,resources/DG.BMP,Door3,-0.18172378,-0.002596054,1,0,0,0.6331,optionLeft,70,5235,3,10,0,10,0,1,,,,,,,,,,,,,,,,,,,,,,,,,,,,,,,,,,,,,,,
,,,,,,,,2023-08-16_08h46.47.432,HF_wild_card,2022.2.4,Win32,59.99880002,6310c063bd0cce86b0289d20,64d2fd46c836a06233681665,64dc7eafc030f419ae44118a,,,,,,,sngl,resources/DG.BMP,resources/Empty.png,Door2,-0.171339564,-0.003634476,1,0,0,0.4653,optionLeft,40,5275,3,11,0,11,0,1,,,,,,,,,,,,,,,,,,,,,,,,,,,,,,,,,,,,,,,
,,,,,,,,2023-08-16_08h46.47.432,HF_wild_card,2022.2.4,Win32,59.99880002,6310c063bd0cce86b0289d20,64d2fd46c836a06233681665,64dc7eafc030f419ae44118a,,,,,,,decisionTrl,resources/DG.BMP,resources/DBN.BMP,Door1,0.255451713,0.051401869,1,0,0,1.3004,optionRight,30,5305,3,12,0,12,0,1,,,,,,,,,,,,,,,,,,,,,,,,,,,,,,,,,,,,,,,
,,,,,,,,2023-08-16_08h46.47.432,HF_wild_card,2022.2.4,Win32,59.99880002,6310c063bd0cce86b0289d20,64d2fd46c836a06233681665,64dc7eafc030f419ae44118a,,,,,,,decisionTrl,resources/DBN.BMP,resources/DB.BMP,WildCard_NonEx,0.440290758,0.025441329,1,0,0,0.8325,optionRight,55,5360,3,13,0,13,0,1,,,,,,,,,,,,,,,,,,,,,,,,,,,,,,,,,,,,,,,
,,,,,,,,2023-08-16_08h46.47.432,HF_wild_card,2022.2.4,Win32,59.99880002,6310c063bd0cce86b0289d20,64d2fd46c836a06233681665,64dc7eafc030f419ae44118a,,,,,,,decisionTrl,resources/DG.BMP,resources/DB.BMP,WildCard_NonEx,0.37694704,0.008826584,1,0,0,0.8639,optionRight,55,5415,3,14,0,14,0,1,,,,,,,,,,,,,,,,,,,,,,,,,,,,,,,,,,,,,,,
,,,,,,,,2023-08-16_08h46.47.432,HF_wild_card,2022.2.4,Win32,59.99880002,6310c063bd0cce86b0289d20,64d2fd46c836a06233681665,64dc7eafc030f419ae44118a,,,,,,,decisionTrl,resources/DY.BMP,resources/DB.BMP,Door4,-0.249221184,-0.011941848,1,0,0,0.9139,optionLeft,60,5475,3,15,0,15,0,1,,,,,,,,,,,,,,,,,,,,,,,,,,,,,,,,,,,,,,,
,,,,,,,,2023-08-16_08h46.47.432,HF_wild_card,2022.2.4,Win32,59.99880002,6310c063bd0cce86b0289d20,64d2fd46c836a06233681665,64dc7eafc030f419ae44118a,,,,,,,ctch,resources/DG.BMP,resources/DP.BMP,Door3,0.298026999,0.021287643,1,0,0,1.0815,optionRight,70,5545,3,16,0,16,0,1,,,,,,,,,,,,,,,,,,,,,,,,,,,,,,,,,,,,,,,
,,,,,,,,2023-08-16_08h46.47.432,HF_wild_card,2022.2.4,Win32,59.99880002,6310c063bd0cce86b0289d20,64d2fd46c836a06233681665,64dc7eafc030f419ae44118a,,,,,,,sngl,resources/Empty.png,resources/DB.BMP,WildCard_NonEx,0.354101765,0.016095535,1,0,0,0.5003,optionRight,55,5600,3,17,0,17,0,1,,,,,,,,,,,,,,,,,,,,,,,,,,,,,,,,,,,,,,,
,,,,,,,,2023-08-16_08h46.47.432,HF_wild_card,2022.2.4,Win32,59.99880002,6310c063bd0cce86b0289d20,64d2fd46c836a06233681665,64dc7eafc030f419ae44118a,,,,,,,sngl,resources/DBN.BMP,resources/Empty.png,Door1,-0.200415369,-0.00674974,1,0,0,0.732,optionLeft,30,5630,3,18,0,18,0,1,,,,,,,,,,,,,,,,,,,,,,,,,,,,,,,,,,,,,,,
,,,,,,,,2023-08-16_08h46.47.432,HF_wild_card,2022.2.4,Win32,59.99880002,6310c063bd0cce86b0289d20,64d2fd46c836a06233681665,64dc7eafc030f419ae44118a,,,,,,,decisionTrl,resources/DB.BMP,resources/DP.BMP,Door3,0.317757009,0.021287643,1,0,0,1.0987,optionRight,70,5700,3,19,0,19,0,1,,,,,,,,,,,,,,,,,,,,,,,,,,,,,,,,,,,,,,,
,,,,,,,,2023-08-16_08h46.47.432,HF_wild_card,2022.2.4,Win32,59.99880002,6310c063bd0cce86b0289d20,64d2fd46c836a06233681665,64dc7eafc030f419ae44118a,,,,,,,ctch,resources/DG.BMP,resources/DP.BMP,Door3,0.605399792,0.024402908,1,0,0,1.0814,optionRight,70,5770,3,20,0,20,0,1,,,,,,,,,,,,,,,,,,,,,,,,,,,,,,,,,,,,,,,
,,,,,,,,2023-08-16_08h46.47.432,HF_wild_card,2022.2.4,Win32,59.99880002,6310c063bd0cce86b0289d20,64d2fd46c836a06233681665,64dc7eafc030f419ae44118a,,,,,,,decisionTrl,resources/DG.BMP,resources/DBN.BMP,Door1,0.403946002,0.03894081,1,0,0,0.9151,optionRight,30,5800,3,21,0,21,0,1,,,,,,,,,,,,,,,,,,,,,,,,,,,,,,,,,,,,,,,
,,,,,,,,2023-08-16_08h46.47.432,HF_wild_card,2022.2.4,Win32,59.99880002,6310c063bd0cce86b0289d20,64d2fd46c836a06233681665,64dc7eafc030f419ae44118a,,,,,,,decisionTrl,resources/DY.BMP,resources/DP.BMP,Door3,0.310488058,-0.002596054,1,0,0,0.9003,optionRight,70,5870,3,22,0,22,0,1,,,,,,,,,,,,,,,,,,,,,,,,,,,,,,,,,,,,,,,
,,,,,,,,2023-08-16_08h46.47.432,HF_wild_card,2022.2.4,Win32,59.99880002,6310c063bd0cce86b0289d20,64d2fd46c836a06233681665,64dc7eafc030f419ae44118a,,,,,,,decisionTrl,resources/DB.BMP,resources/DY.BMP,WildCard_NonEx,-0.336448598,-0.027518172,1,0,0,0.9472,optionLeft,45,5915,3,23,0,23,0,1,,,,,,,,,,,,,,,,,,,,,,,,,,,,,,,,,,,,,,,
,,,,,,,,2023-08-16_08h46.47.432,HF_wild_card,2022.2.4,Win32,59.99880002,6310c063bd0cce86b0289d20,64d2fd46c836a06233681665,64dc7eafc030f419ae44118a,,,,,,,sngl,resources/DP.BMP,resources/Empty.png,Door3,-0.22741433,-0.028556594,1,0,0,0.6152,optionLeft,70,5985,3,24,0,24,0,1,,,,,,,,,,,,,,,,,,,,,,,,,,,,,,,,,,,,,,,
,,,,,,,,2023-08-16_08h46.47.432,HF_wild_card,2022.2.4,Win32,59.99880002,6310c063bd0cce86b0289d20,64d2fd46c836a06233681665,64dc7eafc030f419ae44118a,,,,,,,decisionTrl,resources/DBN.BMP,resources/DG.BMP,Door1,-0.211838006,-0.039979232,1,0,0,1.0985,optionLeft,30,6015,3,25,0,25,0,1,,,,,,,,,,,,,,,,,,,,,,,,,,,,,,,,,,,,,,,
,,,,,,,,2023-08-16_08h46.47.432,HF_wild_card,2022.2.4,Win32,59.99880002,6310c063bd0cce86b0289d20,64d2fd46c836a06233681665,64dc7eafc030f419ae44118a,,,,,,,decisionTrl,resources/DG.BMP,resources/DBN.BMP,Door1,0.344755971,0.026479751,1,0,0,0.6483,optionRight,30,6045,3,26,0,26,0,1,,,,,,,,,,,,,,,,,,,,,,,,,,,,,,,,,,,,,,,
,,,,,,,,2023-08-16_08h46.47.432,HF_wild_card,2022.2.4,Win32,59.99880002,6310c063bd0cce86b0289d20,64d2fd46c836a06233681665,64dc7eafc030f419ae44118a,,,,,,,decisionTrl,resources/DP.BMP,resources/DY.BMP,Door4,0.184839045,-0.010903427,1,0,0,1.0145,optionRight,80,6125,3,27,0,27,0,1,,,,,,,,,,,,,,,,,,,,,,,,,,,,,,,,,,,,,,,
,,,,,,,,2023-08-16_08h46.47.432,HF_wild_card,2022.2.4,Win32,59.99880002,6310c063bd0cce86b0289d20,64d2fd46c836a06233681665,64dc7eafc030f419ae44118a,,,,,,,decisionTrl,resources/DBN.BMP,resources/DG.BMP,Door1,-0.347871236,-0.005711319,1,0,0,1.0472,optionLeft,30,6155,3,28,0,28,0,1,,,,,,,,,,,,,,,,,,,,,,,,,,,,,,,,,,,,,,,
,,,,,,,,2023-08-16_08h46.47.432,HF_wild_card,2022.2.4,Win32,59.99880002,6310c063bd0cce86b0289d20,64d2fd46c836a06233681665,64dc7eafc030f419ae44118a,,,,,,,decisionTrl,resources/DB.BMP,resources/DBN.BMP,WildCard_NonEx,-0.199376947,-0.027518172,1,0,0,0.9971,optionLeft,45,6200,3,29,0,29,0,1,,,,,,,,,,,,,,,,,,,,,,,,,,,,,,,,,,,,,,,
,,,,,,,,2023-08-16_08h46.47.432,HF_wild_card,2022.2.4,Win32,59.99880002,6310c063bd0cce86b0289d20,64d2fd46c836a06233681665,64dc7eafc030f419ae44118a,,,,,,,ctch,resources/DY.BMP,resources/DBN.BMP,Door4,-0.250259605,-0.029595016,1,0,0,0.8472,optionLeft,80,6280,3,30,0,30,0,1,,,,,,,,,,,,,,,,,,,,,,,,,,,,,,,,,,,,,,,
,,,,,,,,2023-08-16_08h46.47.432,HF_wild_card,2022.2.4,Win32,59.99880002,6310c063bd0cce86b0289d20,64d2fd46c836a06233681665,64dc7eafc030f419ae44118a,,,,,,,decisionTrl,resources/DP.BMP,resources/DB.BMP,Door3,-0.204569055,-0.025441329,1,0,0,1.5665,optionLeft,70,6350,3,31,0,31,0,1,,,,,,,,,,,,,,,,,,,,,,,,,,,,,,,,,,,,,,,
,,,,,,,,2023-08-16_08h46.47.432,HF_wild_card,2022.2.4,Win32,59.99880002,6310c063bd0cce86b0289d20,64d2fd46c836a06233681665,64dc7eafc030f419ae44118a,,,,,,,decisionTrl,resources/DY.BMP,resources/DP.BMP,Door4,-0.298026999,-0.024402908,1,0,0,0.8492,optionLeft,60,6410,3,32,0,32,0,1,,,,,,,,,,,,,,,,,,,,,,,,,,,,,,,,,,,,,,,
,,,,,,,,2023-08-16_08h46.47.432,HF_wild_card,2022.2.4,Win32,59.99880002,6310c063bd0cce86b0289d20,64d2fd46c836a06233681665,64dc7eafc030f419ae44118a,,,,,,,decisionTrl,resources/DP.BMP,resources/DY.BMP,Door4,0.30529595,0.014018692,1,0,0,1.2816,optionRight,80,6490,3,33,0,33,0,1,,,,,,,,,,,,,,,,,,,,,,,,,,,,,,,,,,,,,,,
,,,,,,,,2023-08-16_08h46.47.432,HF_wild_card,2022.2.4,Win32,59.99880002,6310c063bd0cce86b0289d20,64d2fd46c836a06233681665,64dc7eafc030f419ae44118a,,,,,,,sngl,resources/DB.BMP,resources/Empty.png,WildCard_NonEx,-0.281412253,-0.009865005,1,0,0,0.5497,optionLeft,45,6535,3,34,0,34,0,1,,,,,,,,,,,,,,,,,,,,,,,,,,,,,,,,,,,,,,,
,,,,,,,,2023-08-16_08h46.47.432,HF_wild_card,2022.2.4,Win32,59.99880002,6310c063bd0cce86b0289d20,64d2fd46c836a06233681665,64dc7eafc030f419ae44118a,,,,,,,ctch,resources/DBN.BMP,resources/DY.BMP,Door4,0.300103842,0.051401869,1,0,0,1.1819,optionRight,60,6595,3,35,0,35,0,1,,,,,,,,,,,,,,,,,,,,,,,,,,,,,,,,,,,,,,,
,,,,,,,,2023-08-16_08h46.47.432,HF_wild_card,2022.2.4,Win32,59.99880002,6310c063bd0cce86b0289d20,64d2fd46c836a06233681665,64dc7eafc030f419ae44118a,,,,,,,sngl,resources/Empty.png,resources/DY.BMP,Door4,0.280373832,0.022326064,1,0,0,0.4488,optionRight,60,6655,3,36,0,36,0,1,,,,,,,,,,,,,,,,,,,,,,,,,,,,,,,,,,,,,,,
,,,,,,,,2023-08-16_08h46.47.432,HF_wild_card,2022.2.4,Win32,59.99880002,6310c063bd0cce86b0289d20,64d2fd46c836a06233681665,64dc7eafc030f419ae44118a,,,,,,,decisionTrl,resources/DY.BMP,resources/DP.BMP,Door4,-0.306334372,-0.024402908,1,0,0,1.1338,optionLeft,60,6715,3,37,0,37,0,1,,,,,,,,,,,,,,,,,,,,,,,,,,,,,,,,,,,,,,,
,,,,,,,,2023-08-16_08h46.47.432,HF_wild_card,2022.2.4,Win32,59.99880002,6310c063bd0cce86b0289d20,64d2fd46c836a06233681665,64dc7eafc030f419ae44118a,,,,,,,ctch,resources/DP.BMP,resources/DG.BMP,Door3,-0.255451713,-0.017133956,1,0,0,0.7467,optionLeft,70,6785,3,38,0,38,0,1,,,,,,,,,,,,,,,,,,,,,,,,,,,,,,,,,,,,,,,
,,,,,,,,2023-08-16_08h46.47.432,HF_wild_card,2022.2.4,Win32,59.99880002,6310c063bd0cce86b0289d20,64d2fd46c836a06233681665,64dc7eafc030f419ae44118a,,,,,,,sngl,resources/Empty.png,resources/DG.BMP,Door2,0.338525441,0.011941848,1,0,0,0.4985,optionRight,20,6805,3,39,0,39,0,1,,,,,,,,,,,,,,,,,,,,,,,,,,,,,,,,,,,,,,,
,,,,,,,,2023-08-16_08h46.47.432,HF_wild_card,2022.2.4,Win32,59.99880002,6310c063bd0cce86b0289d20,64d2fd46c836a06233681665,64dc7eafc030f419ae44118a,,,,,,,decisionTrl,resources/DG.BMP,resources/DBN.BMP,Door1,0.248182762,0.021287643,1,0,0,0.6492,optionRight,30,6835,3,40,0,40,0,1,,,,,,,,,,,,,,,,,,,,,,,,,,,,,,,,,,,,,,,
,,,,,,,,2023-08-16_08h46.47.432,HF_wild_card,2022.2.4,Win32,59.99880002,6310c063bd0cce86b0289d20,64d2fd46c836a06233681665,64dc7eafc030f419ae44118a,,,,,,,sngl,resources/Empty.png,resources/DB.BMP,WildCard_NonEx,0.220145379,0.008826584,1,0,0,0.5171,optionRight,45,6880,3,41,0,41,0,1,,,,,,,,,,,,,,,,,,,,,,,,,,,,,,,,,,,,,,,
,,,,,,,,2023-08-16_08h46.47.432,HF_wild_card,2022.2.4,Win32,59.99880002,6310c063bd0cce86b0289d20,64d2fd46c836a06233681665,64dc7eafc030f419ae44118a,,,,,,,decisionTrl,resources/DY.BMP,resources/DP.BMP,Door3,0.194184839,0.000519211,1,0,0,1.2968,optionRight,70,6950,3,42,0,42,0,1,,,,,,,,,,,,,,,,,,,,,,,,,,,,,,,,,,,,,,,
,,,,,,,,2023-08-16_08h46.47.432,HF_wild_card,2022.2.4,Win32,59.99880002,6310c063bd0cce86b0289d20,64d2fd46c836a06233681665,64dc7eafc030f419ae44118a,,,,,,,sngl,resources/DB.BMP,resources/Empty.png,WildCard_NonEx,-0.272066459,-0.015057113,1,0,0,0.5485,optionLeft,55,7005,3,43,0,43,0,1,,,,,,,,,,,,,,,,,,,,,,,,,,,,,,,,,,,,,,,
,,,,,,,,2023-08-16_08h46.47.432,HF_wild_card,2022.2.4,Win32,59.99880002,6310c063bd0cce86b0289d20,64d2fd46c836a06233681665,64dc7eafc030f419ae44118a,,,,,,,,,,,,,,,,,,,,,,,,,,2,0,2,0,1,,,,,,,,,,,,,,,,,,,,,,,,,,,,,,,,,,
,,,,,,,,2023-08-16_08h46.47.432,HF_wild_card,2022.2.4,Win32,59.99880002,6310c063bd0cce86b0289d20,64d2fd46c836a06233681665,64dc7eafc030f419ae44118a,,,,,,,sngl,resources/DBN.BMP,resources/Empty.png,Door1,-0.442367601,-0.008826584,1,0,0,0.558,optionLeft,30,7035,4,0,0,0,0,1,,,,,,,,,,,,,,,,,,,,,,,,,,,,,,,,,,,,,,,
,,,,,,,,2023-08-16_08h46.47.432,HF_wild_card,2022.2.4,Win32,59.99880002,6310c063bd0cce86b0289d20,64d2fd46c836a06233681665,64dc7eafc030f419ae44118a,,,,,,,decisionTrl,resources/DP.BMP,resources/DR.BMP,WildCard_Ex,0.408099688,-0.048286604,1,0,0,1.3988,optionRight,95,7130,4,1,0,1,0,1,,,,,,,,,,,,,,,,,,,,,,,,,,,,,,,,,,,,,,,
,,,,,,,,2023-08-16_08h46.47.432,HF_wild_card,2022.2.4,Win32,59.99880002,6310c063bd0cce86b0289d20,64d2fd46c836a06233681665,64dc7eafc030f419ae44118a,,,,,,,sngl,resources/DR.BMP,resources/Empty.png,WildCard_Ex,-0.302180685,-0.033748702,1,0,0,0.4154,optionLeft,5,7135,4,2,0,2,0,1,,,,,,,,,,,,,,,,,,,,,,,,,,,,,,,,,,,,,,,
,,,,,,,,2023-08-16_08h46.47.432,HF_wild_card,2022.2.4,Win32,59.99880002,6310c063bd0cce86b0289d20,64d2fd46c836a06233681665,64dc7eafc030f419ae44118a,,,,,,,sngl,resources/DR.BMP,resources/Empty.png,WildCard_Ex,-0.252336449,-0.016095535,1,0,0,0.6487,optionLeft,95,7230,4,3,0,3,0,1,,,,,,,,,,,,,,,,,,,,,,,,,,,,,,,,,,,,,,,
,,,,,,,,2023-08-16_08h46.47.432,HF_wild_card,2022.2.4,Win32,59.99880002,6310c063bd0cce86b0289d20,64d2fd46c836a06233681665,64dc7eafc030f419ae44118a,,,,,,,decisionTrl,resources/DP.BMP,resources/DY.BMP,Door4,0.37694704,-0.016095535,1,0,0,1.2321,optionRight,80,7310,4,4,0,4,0,1,,,,,,,,,,,,,,,,,,,,,,,,,,,,,,,,,,,,,,,
,,,,,,,,2023-08-16_08h46.47.432,HF_wild_card,2022.2.4,Win32,59.99880002,6310c063bd0cce86b0289d20,64d2fd46c836a06233681665,64dc7eafc030f419ae44118a,,,,,,,sngl,resources/Empty.png,resources/DP.BMP,Door3,0.561786085,-0.043094496,1,0,0,0.5157,optionRight,70,7380,4,5,0,5,0,1,,,,,,,,,,,,,,,,,,,,,,,,,,,,,,,,,,,,,,,
,,,,,,,,2023-08-16_08h46.47.432,HF_wild_card,2022.2.4,Win32,59.99880002,6310c063bd0cce86b0289d20,64d2fd46c836a06233681665,64dc7eafc030f419ae44118a,,,,,,,decisionTrl,resources/DY.BMP,resources/DP.BMP,Door3,0.277258567,0.041017653,1,0,0,1.2654,optionRight,70,7450,4,6,0,6,0,1,,,,,,,,,,,,,,,,,,,,,,,,,,,,,,,,,,,,,,,
,,,,,,,,2023-08-16_08h46.47.432,HF_wild_card,2022.2.4,Win32,59.99880002,6310c063bd0cce86b0289d20,64d2fd46c836a06233681665,64dc7eafc030f419ae44118a,,,,,,,ctch,resources/DBN.BMP,resources/DY.BMP,Door4,0.281412253,0.026479751,1,0,0,0.5819,optionRight,80,7530,4,7,0,7,0,1,,,,,,,,,,,,,,,,,,,,,,,,,,,,,,,,,,,,,,,
,,,,,,,,2023-08-16_08h46.47.432,HF_wild_card,2022.2.4,Win32,59.99880002,6310c063bd0cce86b0289d20,64d2fd46c836a06233681665,64dc7eafc030f419ae44118a,,,,,,,ctch,resources/DBN.BMP,resources/DY.BMP,Door4,0.401869159,0.017133956,1,0,0,0.615,optionRight,80,7610,4,8,0,8,0,1,,,,,,,,,,,,,,,,,,,,,,,,,,,,,,,,,,,,,,,
,,,,,,,,2023-08-16_08h46.47.432,HF_wild_card,2022.2.4,Win32,59.99880002,6310c063bd0cce86b0289d20,64d2fd46c836a06233681665,64dc7eafc030f419ae44118a,,,,,,,decisionTrl,resources/DP.BMP,resources/DY.BMP,Door4,0.420560748,-0.014018692,1,0,0,0.632,optionRight,60,7670,4,9,0,9,0,1,,,,,,,,,,,,,,,,,,,,,,,,,,,,,,,,,,,,,,,
,,,,,,,,2023-08-16_08h46.47.432,HF_wild_card,2022.2.4,Win32,59.99880002,6310c063bd0cce86b0289d20,64d2fd46c836a06233681665,64dc7eafc030f419ae44118a,,,,,,,decisionTrl,resources/DG.BMP,resources/DBN.BMP,Door1,0.417445483,0.021287643,1,0,0,1.2489,optionRight,30,7700,4,10,0,10,0,1,,,,,,,,,,,,,,,,,,,,,,,,,,,,,,,,,,,,,,,
,,,,,,,,2023-08-16_08h46.47.432,HF_wild_card,2022.2.4,Win32,59.99880002,6310c063bd0cce86b0289d20,64d2fd46c836a06233681665,64dc7eafc030f419ae44118a,,,,,,,decisionTrl,resources/DY.BMP,resources/DR.BMP,WildCard_Ex,0.317757009,-0.03894081,1,0,0,0.9988,optionRight,5,7705,4,11,0,11,0,1,,,,,,,,,,,,,,,,,,,,,,,,,,,,,,,,,,,,,,,
,,,,,,,,2023-08-16_08h46.47.432,HF_wild_card,2022.2.4,Win32,59.99880002,6310c063bd0cce86b0289d20,64d2fd46c836a06233681665,64dc7eafc030f419ae44118a,,,,,,,decisionTrl,resources/DG.BMP,resources/DBN.BMP,Door1,0.514018692,0.042056075,1,0,0,0.8321,optionRight,30,7735,4,12,0,12,0,1,,,,,,,,,,,,,,,,,,,,,,,,,,,,,,,,,,,,,,,
,,,,,,,,2023-08-16_08h46.47.432,HF_wild_card,2022.2.4,Win32,59.99880002,6310c063bd0cce86b0289d20,64d2fd46c836a06233681665,64dc7eafc030f419ae44118a,,,,,,,decisionTrl,resources/DR.BMP,resources/DP.BMP,Door3,0.403946002,-0.024402908,1,0,0,0.9321,optionRight,70,7805,4,13,0,13,0,1,,,,,,,,,,,,,,,,,,,,,,,,,,,,,,,,,,,,,,,
,,,,,,,,2023-08-16_08h46.47.432,HF_wild_card,2022.2.4,Win32,59.99880002,6310c063bd0cce86b0289d20,64d2fd46c836a06233681665,64dc7eafc030f419ae44118a,,,,,,,sngl,resources/Empty.png,resources/DY.BMP,Door4,0.393561786,0.029595016,1,0,0,0.4821,optionRight,80,7885,4,14,0,14,0,1,,,,,,,,,,,,,,,,,,,,,,,,,,,,,,,,,,,,,,,
,,,,,,,,2023-08-16_08h46.47.432,HF_wild_card,2022.2.4,Win32,59.99880002,6310c063bd0cce86b0289d20,64d2fd46c836a06233681665,64dc7eafc030f419ae44118a,,,,,,,decisionTrl,resources/DG.BMP,resources/DBN.BMP,Door1,0.470404984,0.034787124,1,0,0,0.7322,optionRight,30,7915,4,15,0,15,0,1,,,,,,,,,,,,,,,,,,,,,,,,,,,,,,,,,,,,,,,
,,,,,,,,2023-08-16_08h46.47.432,HF_wild_card,2022.2.4,Win32,59.99880002,6310c063bd0cce86b0289d20,64d2fd46c836a06233681665,64dc7eafc030f419ae44118a,,,,,,,ctch,resources/DP.BMP,resources/DG.BMP,Door3,-0.251298027,0.027518172,1,0,0,1.732,optionLeft,70,7985,4,16,0,16,0,1,,,,,,,,,,,,,,,,,,,,,,,,,,,,,,,,,,,,,,,
,,,,,,,,2023-08-16_08h46.47.432,HF_wild_card,2022.2.4,Win32,59.99880002,6310c063bd0cce86b0289d20,64d2fd46c836a06233681665,64dc7eafc030f419ae44118a,,,,,,,ctch,resources/DY.BMP,resources/DBN.BMP,Door4,-0.234683281,-0.037902388,1,0,0,0.8488,optionLeft,80,8065,4,17,0,17,0,1,,,,,,,,,,,,,,,,,,,,,,,,,,,,,,,,,,,,,,,
,,,,,,,,2023-08-16_08h46.47.432,HF_wild_card,2022.2.4,Win32,59.99880002,6310c063bd0cce86b0289d20,64d2fd46c836a06233681665,64dc7eafc030f419ae44118a,,,,,,,decisionTrl,resources/DBN.BMP,resources/DG.BMP,Door1,-0.440290758,0.010903427,1,0,0,1.5819,optionLeft,30,8095,4,18,0,18,0,1,,,,,,,,,,,,,,,,,,,,,,,,,,,,,,,,,,,,,,,
,,,,,,,,2023-08-16_08h46.47.432,HF_wild_card,2022.2.4,Win32,59.99880002,6310c063bd0cce86b0289d20,64d2fd46c836a06233681665,64dc7eafc030f419ae44118a,,,,,,,ctch,resources/DG.BMP,resources/DP.BMP,Door3,0.364485981,0.014018692,1,0,0,1.3656,optionRight,70,8165,4,19,0,19,0,1,,,,,,,,,,,,,,,,,,,,,,,,,,,,,,,,,,,,,,,
,,,,,,,,2023-08-16_08h46.47.432,HF_wild_card,2022.2.4,Win32,59.99880002,6310c063bd0cce86b0289d20,64d2fd46c836a06233681665,64dc7eafc030f419ae44118a,,,,,,,decisionTrl,resources/DR.BMP,resources/DY.BMP,Door4,0.273104881,-0.024402908,1,0,0,1.0652,optionRight,80,8245,4,20,0,20,0,1,,,,,,,,,,,,,,,,,,,,,,,,,,,,,,,,,,,,,,,
,,,,,,,,2023-08-16_08h46.47.432,HF_wild_card,2022.2.4,Win32,59.99880002,6310c063bd0cce86b0289d20,64d2fd46c836a06233681665,64dc7eafc030f419ae44118a,,,,,,,sngl,resources/Empty.png,resources/DR.BMP,WildCard_Ex,0.366562825,-0.023364486,1,0,0,0.7489,optionRight,95,8340,4,21,0,21,0,1,,,,,,,,,,,,,,,,,,,,,,,,,,,,,,,,,,,,,,,
,,,,,,,,2023-08-16_08h46.47.432,HF_wild_card,2022.2.4,Win32,59.99880002,6310c063bd0cce86b0289d20,64d2fd46c836a06233681665,64dc7eafc030f419ae44118a,,,,,,,sngl,resources/DG.BMP,resources/Empty.png,Door2,-0.316718588,-0.008826584,1,0,0,0.732,optionLeft,20,8360,4,22,0,22,0,1,,,,,,,,,,,,,,,,,,,,,,,,,,,,,,,,,,,,,,,
,,,,,,,,2023-08-16_08h46.47.432,HF_wild_card,2022.2.4,Win32,59.99880002,6310c063bd0cce86b0289d20,64d2fd46c836a06233681665,64dc7eafc030f419ae44118a,,,,,,,decisionTrl,resources/DR.BMP,resources/DG.BMP,Door2,0.414330218,-0.041017653,1,0,0,0.8818,optionRight,40,8400,4,23,0,23,0,1,,,,,,,,,,,,,,,,,,,,,,,,,,,,,,,,,,,,,,,
,,,,,,,,2023-08-16_08h46.47.432,HF_wild_card,2022.2.4,Win32,59.99880002,6310c063bd0cce86b0289d20,64d2fd46c836a06233681665,64dc7eafc030f419ae44118a,,,,,,,decisionTrl,resources/DY.BMP,resources/DP.BMP,Door3,0.235721703,-0.022326064,1,0,0,1.7654,optionRight,70,8470,4,24,0,24,0,1,,,,,,,,,,,,,,,,,,,,,,,,,,,,,,,,,,,,,,,
,,,,,,,,2023-08-16_08h46.47.432,HF_wild_card,2022.2.4,Win32,59.99880002,6310c063bd0cce86b0289d20,64d2fd46c836a06233681665,64dc7eafc030f419ae44118a,,,,,,,decisionTrl,resources/DP.BMP,resources/DY.BMP,Door4,0.245067497,-0.023364486,1,0,0,1.082,optionRight,80,8550,4,25,0,25,0,1,,,,,,,,,,,,,,,,,,,,,,,,,,,,,,,,,,,,,,,
,,,,,,,,2023-08-16_08h46.47.432,HF_wild_card,2022.2.4,Win32,59.99880002,6310c063bd0cce86b0289d20,64d2fd46c836a06233681665,64dc7eafc030f419ae44118a,,,,,,,sngl,resources/Empty.png,resources/DR.BMP,WildCard_Ex,0.362409138,-0.010903427,1,0,0,0.5321,optionRight,5,8555,4,26,0,26,0,1,,,,,,,,,,,,,,,,,,,,,,,,,,,,,,,,,,,,,,,
,,,,,,,,2023-08-16_08h46.47.432,HF_wild_card,2022.2.4,Win32,59.99880002,6310c063bd0cce86b0289d20,64d2fd46c836a06233681665,64dc7eafc030f419ae44118a,,,,,,,sngl,resources/DP.BMP,resources/Empty.png,Door3,-0.462097612,-0.003634476,1,0,0,0.5154,optionLeft,70,8625,4,27,0,27,0,1,,,,,,,,,,,,,,,,,,,,,,,,,,,,,,,,,,,,,,,
,,,,,,,,2023-08-16_08h46.47.432,HF_wild_card,2022.2.4,Win32,59.99880002,6310c063bd0cce86b0289d20,64d2fd46c836a06233681665,64dc7eafc030f419ae44118a,,,,,,,decisionTrl,resources/DBN.BMP,resources/DR.BMP,WildCard_Ex,0.364485981,-0.004672897,1,0,0,1.9488,optionRight,95,8720,4,28,0,28,0,1,,,,,,,,,,,,,,,,,,,,,,,,,,,,,,,,,,,,,,,
,,,,,,,,2023-08-16_08h46.47.432,HF_wild_card,2022.2.4,Win32,59.99880002,6310c063bd0cce86b0289d20,64d2fd46c836a06233681665,64dc7eafc030f419ae44118a,,,,,,,ctch,resources/DG.BMP,resources/DP.BMP,Door3,0.345794393,-0.01298027,1,0,0,1.3989,optionRight,70,8790,4,29,0,29,0,1,,,,,,,,,,,,,,,,,,,,,,,,,,,,,,,,,,,,,,,
,,,,,,,,2023-08-16_08h46.47.432,HF_wild_card,2022.2.4,Win32,59.99880002,6310c063bd0cce86b0289d20,64d2fd46c836a06233681665,64dc7eafc030f419ae44118a,,,,,,,decisionTrl,resources/DG.BMP,resources/DR.BMP,Door2,-0.215991693,-0.0192108,1,0,0,1.1652,optionLeft,40,8830,4,30,0,30,0,1,,,,,,,,,,,,,,,,,,,,,,,,,,,,,,,,,,,,,,,
,,,,,,,,2023-08-16_08h46.47.432,HF_wild_card,2022.2.4,Win32,59.99880002,6310c063bd0cce86b0289d20,64d2fd46c836a06233681665,64dc7eafc030f419ae44118a,,,,,,,decisionTrl,resources/DBN.BMP,resources/DG.BMP,Door1,-0.315680166,-0.002596054,1,0,0,1.3655,optionLeft,30,8860,4,31,0,31,0,1,,,,,,,,,,,,,,,,,,,,,,,,,,,,,,,,,,,,,,,
,,,,,,,,2023-08-16_08h46.47.432,HF_wild_card,2022.2.4,Win32,59.99880002,6310c063bd0cce86b0289d20,64d2fd46c836a06233681665,64dc7eafc030f419ae44118a,,,,,,,sngl,resources/Empty.png,resources/DG.BMP,Door2,0.266874351,0.002596054,1,0,0,0.5154,optionRight,40,8900,4,32,0,32,0,1,,,,,,,,,,,,,,,,,,,,,,,,,,,,,,,,,,,,,,,
,,,,,,,,2023-08-16_08h46.47.432,HF_wild_card,2022.2.4,Win32,59.99880002,6310c063bd0cce86b0289d20,64d2fd46c836a06233681665,64dc7eafc030f419ae44118a,,,,,,,decisionTrl,resources/DBN.BMP,resources/DG.BMP,Door1,-0.266874351,-0.009865005,1,0,0,0.9989,optionLeft,30,8930,4,33,0,33,0,1,,,,,,,,,,,,,,,,,,,,,,,,,,,,,,,,,,,,,,,
,,,,,,,,2023-08-16_08h46.47.432,HF_wild_card,2022.2.4,Win32,59.99880002,6310c063bd0cce86b0289d20,64d2fd46c836a06233681665,64dc7eafc030f419ae44118a,,,,,,,decisionTrl,resources/DBN.BMP,resources/DG.BMP,Door1,-0.236760125,-0.014018692,1,0,0,0.649,optionLeft,30,8960,4,34,0,34,0,1,,,,,,,,,,,,,,,,,,,,,,,,,,,,,,,,,,,,,,,
,,,,,,,,2023-08-16_08h46.47.432,HF_wild_card,2022.2.4,Win32,59.99880002,6310c063bd0cce86b0289d20,64d2fd46c836a06233681665,64dc7eafc030f419ae44118a,,,,,,,decisionTrl,resources/DG.BMP,resources/DBN.BMP,Door1,0.275181724,0.01298027,1,0,0,0.5988,optionRight,30,8990,4,35,0,35,0,1,,,,,,,,,,,,,,,,,,,,,,,,,,,,,,,,,,,,,,,
,,,,,,,,2023-08-16_08h46.47.432,HF_wild_card,2022.2.4,Win32,59.99880002,6310c063bd0cce86b0289d20,64d2fd46c836a06233681665,64dc7eafc030f419ae44118a,,,,,,,ctch,resources/DY.BMP,resources/DBN.BMP,Door4,-0.234683281,-0.022326064,1,0,0,1.2822,optionLeft,60,9050,4,36,0,36,0,1,,,,,,,,,,,,,,,,,,,,,,,,,,,,,,,,,,,,,,,
,,,,,,,,2023-08-16_08h46.47.432,HF_wild_card,2022.2.4,Win32,59.99880002,6310c063bd0cce86b0289d20,64d2fd46c836a06233681665,64dc7eafc030f419ae44118a,,,,,,,decisionTrl,resources/DR.BMP,resources/DBN.BMP,WildCard_Ex,-0.282450675,-0.017133956,1,0,0,1.5152,optionLeft,95,9145,4,37,0,37,0,1,,,,,,,,,,,,,,,,,,,,,,,,,,,,,,,,,,,,,,,
,,,,,,,,2023-08-16_08h46.47.432,HF_wild_card,2022.2.4,Win32,59.99880002,6310c063bd0cce86b0289d20,64d2fd46c836a06233681665,64dc7eafc030f419ae44118a,,,,,,,ctch,resources/DP.BMP,resources/DG.BMP,Door3,-0.334371755,-0.022326064,1,0,0,1.1323,optionLeft,70,9215,4,38,0,38,0,1,,,,,,,,,,,,,,,,,,,,,,,,,,,,,,,,,,,,,,,
,,,,,,,,2023-08-16_08h46.47.432,HF_wild_card,2022.2.4,Win32,59.99880002,6310c063bd0cce86b0289d20,64d2fd46c836a06233681665,64dc7eafc030f419ae44118a,,,,,,,sngl,resources/Empty.png,resources/DBN.BMP,Door1,0.374870197,-0.007788162,1,0,0,0.5322,optionRight,30,9245,4,39,0,39,0,1,,,,,,,,,,,,,,,,,,,,,,,,,,,,,,,,,,,,,,,
,,,,,,,,2023-08-16_08h46.47.432,HF_wild_card,2022.2.4,Win32,59.99880002,6310c063bd0cce86b0289d20,64d2fd46c836a06233681665,64dc7eafc030f419ae44118a,,,,,,,decisionTrl,resources/DP.BMP,resources/DY.BMP,Door4,0.322949117,-0.027518172,1,0,0,1.1321,optionRight,60,9305,4,40,0,40,0,1,,,,,,,,,,,,,,,,,,,,,,,,,,,,,,,,,,,,,,,
,,,,,,,,2023-08-16_08h46.47.432,HF_wild_card,2022.2.4,Win32,59.99880002,6310c063bd0cce86b0289d20,64d2fd46c836a06233681665,64dc7eafc030f419ae44118a,,,,,,,sngl,resources/DY.BMP,resources/Empty.png,Door4,-0.210799585,-0.046209761,1,0,0,0.482,optionLeft,60,9365,4,41,0,41,0,1,,,,,,,,,,,,,,,,,,,,,,,,,,,,,,,,,,,,,,,
,,,,,,,,2023-08-16_08h46.47.432,HF_wild_card,2022.2.4,Win32,59.99880002,6310c063bd0cce86b0289d20,64d2fd46c836a06233681665,64dc7eafc030f419ae44118a,,,,,,,decisionTrl,resources/DY.BMP,resources/DP.BMP,Door3,0.153686397,-0.003634476,1,0,0,1.3489,optionRight,70,9435,4,42,0,42,0,1,,,,,,,,,,,,,,,,,,,,,,,,,,,,,,,,,,,,,,,
,,,,,,,,2023-08-16_08h46.47.432,HF_wild_card,2022.2.4,Win32,59.99880002,6310c063bd0cce86b0289d20,64d2fd46c836a06233681665,64dc7eafc030f419ae44118a,,,,,,,decisionTrl,resources/DY.BMP,resources/DP.BMP,Door4,-0.177570093,-0.030633437,1,0,0,0.9821,optionLeft,80,9515,4,43,0,43,0,1,,,,,,,,,,,,,,,,,,,,,,,,,,,,,,,,,,,,,,,
,,,,,,,,2023-08-16_08h46.47.432,HF_wild_card,2022.2.4,Win32,59.99880002,6310c063bd0cce86b0289d20,64d2fd46c836a06233681665,64dc7eafc030f419ae44118a,,,,,,,,,,,,,,,,,,,,,,,,,,3,0,3,0,1,,,,,,,,,,,,,,,,,,,,,,,,,,,,,,,,,,
,,,,,,,,2023-08-16_08h46.47.432,HF_wild_card,2022.2.4,Win32,59.99880002,6310c063bd0cce86b0289d20,64d2fd46c836a06233681665,64dc7eafc030f419ae44118a,,,,,,,decisionTrl,resources/DP.BMP,resources/DY.BMP,Door3,-0.365524403,-0.023364486,1,0,0,1.7973,optionLeft,70,9585,5,0,0,0,0,1,,,,,,,,,,,,,,,,,,,,,,,,,,,,,,,,,,,,,,,
,,,,,,,,2023-08-16_08h46.47.432,HF_wild_card,2022.2.4,Win32,59.99880002,6310c063bd0cce86b0289d20,64d2fd46c836a06233681665,64dc7eafc030f419ae44118a,,,,,,,sngl,resources/DR.BMP,resources/Empty.png,WildCard_Ex,-0.234683281,-0.03894081,1,0,0,0.632,optionLeft,95,9680,5,1,0,1,0,1,,,,,,,,,,,,,,,,,,,,,,,,,,,,,,,,,,,,,,,
,,,,,,,,2023-08-16_08h46.47.432,HF_wild_card,2022.2.4,Win32,59.99880002,6310c063bd0cce86b0289d20,64d2fd46c836a06233681665,64dc7eafc030f419ae44118a,,,,,,,decisionTrl,resources/DBN.BMP,resources/DG.BMP,Door1,-0.322949117,-0.007788162,1,0,0,1.7821,optionLeft,30,9710,5,2,0,2,0,1,,,,,,,,,,,,,,,,,,,,,,,,,,,,,,,,,,,,,,,
,,,,,,,,2023-08-16_08h46.47.432,HF_wild_card,2022.2.4,Win32,59.99880002,6310c063bd0cce86b0289d20,64d2fd46c836a06233681665,64dc7eafc030f419ae44118a,,,,,,,decisionTrl,resources/DBN.BMP,resources/DG.BMP,Door1,-0.332294912,-0.029595016,1,0,0,0.9323,optionLeft,30,9740,5,3,0,3,0,1,,,,,,,,,,,,,,,,,,,,,,,,,,,,,,,,,,,,,,,
,,,,,,,,2023-08-16_08h46.47.432,HF_wild_card,2022.2.4,Win32,59.99880002,6310c063bd0cce86b0289d20,64d2fd46c836a06233681665,64dc7eafc030f419ae44118a,,,,,,,decisionTrl,resources/DR.BMP,resources/DG.BMP,WildCard_Ex,-0.184839045,-0.0192108,1,0,0,1.7823,optionLeft,5,9745,5,4,0,4,0,1,,,,,,,,,,,,,,,,,,,,,,,,,,,,,,,,,,,,,,,
,,,,,,,,2023-08-16_08h46.47.432,HF_wild_card,2022.2.4,Win32,59.99880002,6310c063bd0cce86b0289d20,64d2fd46c836a06233681665,64dc7eafc030f419ae44118a,,,,,,,decisionTrl,resources/DG.BMP,resources/DBN.BMP,Door1,0.298026999,-0.026479751,1,0,0,1.0989,optionRight,30,9775,5,5,0,5,0,1,,,,,,,,,,,,,,,,,,,,,,,,,,,,,,,,,,,,,,,
,,,,,,,,2023-08-16_08h46.47.432,HF_wild_card,2022.2.4,Win32,59.99880002,6310c063bd0cce86b0289d20,64d2fd46c836a06233681665,64dc7eafc030f419ae44118a,,,,,,,decisionTrl,resources/DP.BMP,resources/DY.BMP,Door3,-0.281412253,-0.043094496,1,0,0,2.5986,optionLeft,70,9845,5,6,0,6,0,1,,,,,,,,,,,,,,,,,,,,,,,,,,,,,,,,,,,,,,,
,,,,,,,,2023-08-16_08h46.47.432,HF_wild_card,2022.2.4,Win32,59.99880002,6310c063bd0cce86b0289d20,64d2fd46c836a06233681665,64dc7eafc030f419ae44118a,,,,,,,decisionTrl,resources/DP.BMP,resources/DR.BMP,Door3,-0.296988577,-0.024402908,1,0,0,1.0321,optionLeft,70,9915,5,7,0,7,0,1,,,,,,,,,,,,,,,,,,,,,,,,,,,,,,,,,,,,,,,
,,,,,,,,2023-08-16_08h46.47.432,HF_wild_card,2022.2.4,Win32,59.99880002,6310c063bd0cce86b0289d20,64d2fd46c836a06233681665,64dc7eafc030f419ae44118a,,,,,,,sngl,resources/Empty.png,resources/DY.BMP,Door4,0.313603323,0.005711319,1,0,0,0.5656,optionRight,60,9975,5,8,0,8,0,1,,,,,,,,,,,,,,,,,,,,,,,,,,,,,,,,,,,,,,,
,,,,,,,,2023-08-16_08h46.47.432,HF_wild_card,2022.2.4,Win32,59.99880002,6310c063bd0cce86b0289d20,64d2fd46c836a06233681665,64dc7eafc030f419ae44118a,,,,,,,decisionTrl,resources/DR.BMP,resources/DY.BMP,Door4,0.238836968,-0.015057113,1,0,0,1.0489,optionRight,60,10035,5,9,0,9,0,1,,,,,,,,,,,,,,,,,,,,,,,,,,,,,,,,,,,,,,,
,,,,,,,,2023-08-16_08h46.47.432,HF_wild_card,2022.2.4,Win32,59.99880002,6310c063bd0cce86b0289d20,64d2fd46c836a06233681665,64dc7eafc030f419ae44118a,,,,,,,ctch,resources/DG.BMP,resources/DP.BMP,Door3,0.28556594,-0.018172378,1,0,0,1.2987,optionRight,70,10105,5,10,0,10,0,1,,,,,,,,,,,,,,,,,,,,,,,,,,,,,,,,,,,,,,,
,,,,,,,,2023-08-16_08h46.47.432,HF_wild_card,2022.2.4,Win32,59.99880002,6310c063bd0cce86b0289d20,64d2fd46c836a06233681665,64dc7eafc030f419ae44118a,,,,,,,ctch,resources/DY.BMP,resources/DBN.BMP,Door4,-0.266874351,-0.03894081,1,0,0,1.0821,optionLeft,80,10185,5,11,0,11,0,1,,,,,,,,,,,,,,,,,,,,,,,,,,,,,,,,,,,,,,,
,,,,,,,,2023-08-16_08h46.47.432,HF_wild_card,2022.2.4,Win32,59.99880002,6310c063bd0cce86b0289d20,64d2fd46c836a06233681665,64dc7eafc030f419ae44118a,,,,,,,ctch,resources/DBN.BMP,resources/DY.BMP,Door4,0.289719626,-0.009865005,1,0,0,0.6322,optionRight,60,10245,5,12,0,12,0,1,,,,,,,,,,,,,,,,,,,,,,,,,,,,,,,,,,,,,,,
,,,,,,,,2023-08-16_08h46.47.432,HF_wild_card,2022.2.4,Win32,59.99880002,6310c063bd0cce86b0289d20,64d2fd46c836a06233681665,64dc7eafc030f419ae44118a,,,,,,,sngl,resources/DP.BMP,resources/Empty.png,Door3,-0.276220145,-0.018172378,1,0,0,0.5317,optionLeft,70,10315,5,13,0,13,0,1,,,,,,,,,,,,,,,,,,,,,,,,,,,,,,,,,,,,,,,
,,,,,,,,2023-08-16_08h46.47.432,HF_wild_card,2022.2.4,Win32,59.99880002,6310c063bd0cce86b0289d20,64d2fd46c836a06233681665,64dc7eafc030f419ae44118a,,,,,,,sngl,resources/DY.BMP,resources/Empty.png,Door4,-0.25337487,-0.024402908,1,0,0,0.6989,optionLeft,80,10395,5,14,0,14,0,1,,,,,,,,,,,,,,,,,,,,,,,,,,,,,,,,,,,,,,,
,,,,,,,,2023-08-16_08h46.47.432,HF_wild_card,2022.2.4,Win32,59.99880002,6310c063bd0cce86b0289d20,64d2fd46c836a06233681665,64dc7eafc030f419ae44118a,,,,,,,ctch,resources/DP.BMP,resources/DG.BMP,Door3,-0.257528557,-0.041017653,1,0,0,1.2489,optionLeft,70,10465,5,15,0,15,0,1,,,,,,,,,,,,,,,,,,,,,,,,,,,,,,,,,,,,,,,
,,,,,,,,2023-08-16_08h46.47.432,HF_wild_card,2022.2.4,Win32,59.99880002,6310c063bd0cce86b0289d20,64d2fd46c836a06233681665,64dc7eafc030f419ae44118a,,,,,,,sngl,resources/DR.BMP,resources/Empty.png,WildCard_Ex,-0.288681205,-0.033748702,1,0,0,0.4653,optionLeft,5,10470,5,16,0,16,0,1,,,,,,,,,,,,,,,,,,,,,,,,,,,,,,,,,,,,,,,
,,,,,,,,2023-08-16_08h46.47.432,HF_wild_card,2022.2.4,Win32,59.99880002,6310c063bd0cce86b0289d20,64d2fd46c836a06233681665,64dc7eafc030f419ae44118a,,,,,,,decisionTrl,resources/DBN.BMP,resources/DG.BMP,Door2,0.334371755,-0.014018692,1,0,0,0.7321,optionRight,20,10490,5,17,0,17,0,1,,,,,,,,,,,,,,,,,,,,,,,,,,,,,,,,,,,,,,,
,,,,,,,,2023-08-16_08h46.47.432,HF_wild_card,2022.2.4,Win32,59.99880002,6310c063bd0cce86b0289d20,64d2fd46c836a06233681665,64dc7eafc030f419ae44118a,,,,,,,sngl,resources/DG.BMP,resources/Empty.png,Door2,-0.137071651,-0.026479751,1,0,0,0.4486,optionLeft,40,10530,5,18,0,18,0,1,,,,,,,,,,,,,,,,,,,,,,,,,,,,,,,,,,,,,,,
,,,,,,,,2023-08-16_08h46.47.432,HF_wild_card,2022.2.4,Win32,59.99880002,6310c063bd0cce86b0289d20,64d2fd46c836a06233681665,64dc7eafc030f419ae44118a,,,,,,,decisionTrl,resources/DBN.BMP,resources/DR.BMP,WildCard_Ex,0.27933541,0.000519211,1,0,0,1.0154,optionRight,5,10535,5,19,0,19,0,1,,,,,,,,,,,,,,,,,,,,,,,,,,,,,,,,,,,,,,,
,,,,,,,,2023-08-16_08h46.47.432,HF_wild_card,2022.2.4,Win32,59.99880002,6310c063bd0cce86b0289d20,64d2fd46c836a06233681665,64dc7eafc030f419ae44118a,,,,,,,decisionTrl,resources/DY.BMP,resources/DR.BMP,Door4,-0.340602285,-0.017133956,1,0,0,1.0821,optionLeft,60,10595,5,20,0,20,0,1,,,,,,,,,,,,,,,,,,,,,,,,,,,,,,,,,,,,,,,
,,,,,,,,2023-08-16_08h46.47.432,HF_wild_card,2022.2.4,Win32,59.99880002,6310c063bd0cce86b0289d20,64d2fd46c836a06233681665,64dc7eafc030f419ae44118a,,,,,,,ctch,resources/DP.BMP,resources/DG.BMP,Door3,-0.260643821,-0.046209761,1,0,0,1.0319,optionLeft,70,10665,5,21,0,21,0,1,,,,,,,,,,,,,,,,,,,,,,,,,,,,,,,,,,,,,,,
,,,,,,,,2023-08-16_08h46.47.432,HF_wild_card,2022.2.4,Win32,59.99880002,6310c063bd0cce86b0289d20,64d2fd46c836a06233681665,64dc7eafc030f419ae44118a,,,,,,,sngl,resources/Empty.png,resources/DG.BMP,Door2,0.447559709,-0.007788162,1,0,0,0.7155,optionRight,20,10685,5,22,0,22,0,1,,,,,,,,,,,,,,,,,,,,,,,,,,,,,,,,,,,,,,,
,,,,,,,,2023-08-16_08h46.47.432,HF_wild_card,2022.2.4,Win32,59.99880002,6310c063bd0cce86b0289d20,64d2fd46c836a06233681665,64dc7eafc030f419ae44118a,,,,,,,ctch,resources/DY.BMP,resources/DBN.BMP,Door4,-0.262720665,-0.024402908,1,0,0,0.9985,optionLeft,80,10765,5,23,0,23,0,1,,,,,,,,,,,,,,,,,,,,,,,,,,,,,,,,,,,,,,,
,,,,,,,,2023-08-16_08h46.47.432,HF_wild_card,2022.2.4,Win32,59.99880002,6310c063bd0cce86b0289d20,64d2fd46c836a06233681665,64dc7eafc030f419ae44118a,,,,,,,decisionTrl,resources/DG.BMP,resources/DBN.BMP,Door1,0.360332295,0.003634476,1,0,0,0.9145,optionRight,30,10795,5,24,0,24,0,1,,,,,,,,,,,,,,,,,,,,,,,,,,,,,,,,,,,,,,,
,,,,,,,,2023-08-16_08h46.47.432,HF_wild_card,2022.2.4,Win32,59.99880002,6310c063bd0cce86b0289d20,64d2fd46c836a06233681665,64dc7eafc030f419ae44118a,,,,,,,decisionTrl,resources/DG.BMP,resources/DR.BMP,Door2,-0.193146417,-0.027518172,1,0,0,0.8265,optionLeft,40,10835,5,25,0,25,0,1,,,,,,,,,,,,,,,,,,,,,,,,,,,,,,,,,,,,,,,
,,,,,,,,2023-08-16_08h46.47.432,HF_wild_card,2022.2.4,Win32,59.99880002,6310c063bd0cce86b0289d20,64d2fd46c836a06233681665,64dc7eafc030f419ae44118a,,,,,,,decisionTrl,resources/DR.BMP,resources/DBN.BMP,WildCard_Ex,-0.350986501,-0.029595016,1,0,0,1.0154,optionLeft,95,10930,5,26,0,26,0,1,,,,,,,,,,,,,,,,,,,,,,,,,,,,,,,,,,,,,,,
,,,,,,,,2023-08-16_08h46.47.432,HF_wild_card,2022.2.4,Win32,59.99880002,6310c063bd0cce86b0289d20,64d2fd46c836a06233681665,64dc7eafc030f419ae44118a,,,,,,,decisionTrl,resources/DY.BMP,resources/DP.BMP,Door3,0.301142264,-0.018172378,1,0,0,1.7653,optionRight,70,11000,5,27,0,27,0,1,,,,,,,,,,,,,,,,,,,,,,,,,,,,,,,,,,,,,,,
,,,,,,,,2023-08-16_08h46.47.432,HF_wild_card,2022.2.4,Win32,59.99880002,6310c063bd0cce86b0289d20,64d2fd46c836a06233681665,64dc7eafc030f419ae44118a,,,,,,,decisionTrl,resources/DY.BMP,resources/DP.BMP,Door3,0.292834891,-0.011941848,1,0,0,0.6646,optionRight,70,11070,5,28,0,28,0,1,,,,,,,,,,,,,,,,,,,,,,,,,,,,,,,,,,,,,,,
,,,,,,,,2023-08-16_08h46.47.432,HF_wild_card,2022.2.4,Win32,59.99880002,6310c063bd0cce86b0289d20,64d2fd46c836a06233681665,64dc7eafc030f419ae44118a,,,,,,,ctch,resources/DG.BMP,resources/DP.BMP,Door3,0.316718588,0.021287643,1,0,0,0.5658,optionRight,70,11140,5,29,0,29,0,1,,,,,,,,,,,,,,,,,,,,,,,,,,,,,,,,,,,,,,,
,,,,,,,,2023-08-16_08h46.47.432,HF_wild_card,2022.2.4,Win32,59.99880002,6310c063bd0cce86b0289d20,64d2fd46c836a06233681665,64dc7eafc030f419ae44118a,,,,,,,decisionTrl,resources/DY.BMP,resources/DP.BMP,Door3,0.281412253,0.035825545,1,0,0,0.9989,optionRight,70,11210,5,30,0,30,0,1,,,,,,,,,,,,,,,,,,,,,,,,,,,,,,,,,,,,,,,
,,,,,,,,2023-08-16_08h46.47.432,HF_wild_card,2022.2.4,Win32,59.99880002,6310c063bd0cce86b0289d20,64d2fd46c836a06233681665,64dc7eafc030f419ae44118a,,,,,,,sngl,resources/Empty.png,resources/DR.BMP,WildCard_Ex,0.274143302,0.030633437,1,0,0,0.6487,optionRight,5,11215,5,31,0,31,0,1,,,,,,,,,,,,,,,,,,,,,,,,,,,,,,,,,,,,,,,
,,,,,,,,2023-08-16_08h46.47.432,HF_wild_card,2022.2.4,Win32,59.99880002,6310c063bd0cce86b0289d20,64d2fd46c836a06233681665,64dc7eafc030f419ae44118a,,,,,,,sngl,resources/Empty.png,resources/DR.BMP,WildCard_Ex,0.4807892,0.024402908,1,0,0,0.4655,optionRight,95,11310,5,32,0,32,0,1,,,,,,,,,,,,,,,,,,,,,,,,,,,,,,,,,,,,,,,
,,,,,,,,2023-08-16_08h46.47.432,HF_wild_card,2022.2.4,Win32,59.99880002,6310c063bd0cce86b0289d20,64d2fd46c836a06233681665,64dc7eafc030f419ae44118a,,,,,,,decisionTrl,resources/DY.BMP,resources/DP.BMP,Door4,-0.255451713,-0.014018692,1,0,0,1.0155,optionLeft,80,11390,5,33,0,33,0,1,,,,,,,,,,,,,,,,,,,,,,,,,,,,,,,,,,,,,,,
,,,,,,,,2023-08-16_08h46.47.432,HF_wild_card,2022.2.4,Win32,59.99880002,6310c063bd0cce86b0289d20,64d2fd46c836a06233681665,64dc7eafc030f419ae44118a,,,,,,,decisionTrl,resources/DG.BMP,resources/DBN.BMP,Door2,-0.240913811,-0.011941848,1,0,0,1.1822,optionLeft,20,11410,5,34,0,34,0,1,,,,,,,,,,,,,,,,,,,,,,,,,,,,,,,,,,,,,,,
,,,,,,,,2023-08-16_08h46.47.432,HF_wild_card,2022.2.4,Win32,59.99880002,6310c063bd0cce86b0289d20,64d2fd46c836a06233681665,64dc7eafc030f419ae44118a,,,,,,,sngl,resources/DBN.BMP,resources/Empty.png,Door1,-0.296988577,-0.016095535,1,0,0,0.4653,optionLeft,30,11440,5,35,0,35,0,1,,,,,,,,,,,,,,,,,,,,,,,,,,,,,,,,,,,,,,,
,,,,,,,,2023-08-16_08h46.47.432,HF_wild_card,2022.2.4,Win32,59.99880002,6310c063bd0cce86b0289d20,64d2fd46c836a06233681665,64dc7eafc030f419ae44118a,,,,,,,sngl,resources/Empty.png,resources/DBN.BMP,Door1,0.3894081,0.035825545,1,0,0,0.4988,optionRight,30,11470,5,36,0,36,0,1,,,,,,,,,,,,,,,,,,,,,,,,,,,,,,,,,,,,,,,
,,,,,,,,2023-08-16_08h46.47.432,HF_wild_card,2022.2.4,Win32,59.99880002,6310c063bd0cce86b0289d20,64d2fd46c836a06233681665,64dc7eafc030f419ae44118a,,,,,,,decisionTrl,resources/DP.BMP,resources/DY.BMP,Door3,-0.443406023,-0.031671859,1,0,0,1.4155,optionLeft,70,11540,5,37,0,37,0,1,,,,,,,,,,,,,,,,,,,,,,,,,,,,,,,,,,,,,,,
,,,,,,,,2023-08-16_08h46.47.432,HF_wild_card,2022.2.4,Win32,59.99880002,6310c063bd0cce86b0289d20,64d2fd46c836a06233681665,64dc7eafc030f419ae44118a,,,,,,,sngl,resources/Empty.png,resources/DP.BMP,Door3,0.313603323,0.00674974,1,0,0,0.4654,optionRight,70,11610,5,38,0,38,0,1,,,,,,,,,,,,,,,,,,,,,,,,,,,,,,,,,,,,,,,
,,,,,,,,2023-08-16_08h46.47.432,HF_wild_card,2022.2.4,Win32,59.99880002,6310c063bd0cce86b0289d20,64d2fd46c836a06233681665,64dc7eafc030f419ae44118a,,,,,,,decisionTrl,resources/DR.BMP,resources/DP.BMP,Door3,0.423676012,0.035825545,1,0,0,0.9655,optionRight,70,11680,5,39,0,39,0,1,,,,,,,,,,,,,,,,,,,,,,,,,,,,,,,,,,,,,,,
,,,,,,,,2023-08-16_08h46.47.432,HF_wild_card,2022.2.4,Win32,59.99880002,6310c063bd0cce86b0289d20,64d2fd46c836a06233681665,64dc7eafc030f419ae44118a,,,,,,,ctch,resources/DBN.BMP,resources/DY.BMP,Door4,0.282450675,0.008826584,1,0,0,0.8153,optionRight,60,11740,5,40,0,40,0,1,,,,,,,,,,,,,,,,,,,,,,,,,,,,,,,,,,,,,,,
,,,,,,,,2023-08-16_08h46.47.432,HF_wild_card,2022.2.4,Win32,59.99880002,6310c063bd0cce86b0289d20,64d2fd46c836a06233681665,64dc7eafc030f419ae44118a,,,,,,,decisionTrl,resources/DG.BMP,resources/DBN.BMP,Door1,0.339563863,-0.008826584,1,0,0,2.1487,optionRight,30,11770,5,41,0,41,0,1,,,,,,,,,,,,,,,,,,,,,,,,,,,,,,,,,,,,,,,
,,,,,,,,2023-08-16_08h46.47.432,HF_wild_card,2022.2.4,Win32,59.99880002,6310c063bd0cce86b0289d20,64d2fd46c836a06233681665,64dc7eafc030f419ae44118a,,,,,,,decisionTrl,resources/DBN.BMP,resources/DG.BMP,Door1,-0.325025961,-0.000519211,1,0,0,0.9988,optionLeft,30,11800,5,42,0,42,0,1,,,,,,,,,,,,,,,,,,,,,,,,,,,,,,,,,,,,,,,
,,,,,,,,2023-08-16_08h46.47.432,HF_wild_card,2022.2.4,Win32,59.99880002,6310c063bd0cce86b0289d20,64d2fd46c836a06233681665,64dc7eafc030f419ae44118a,,,,,,,decisionTrl,resources/DP.BMP,resources/DY.BMP,Door3,-0.267912773,-0.014018692,1,0,0,1.9649,optionLeft,70,11870,5,43,0,43,0,1,,,,,,,,,,,,,,,,,,,,,,,,,,,,,,,,,,,,,,,
,,,,,,,,2023-08-16_08h46.47.432,HF_wild_card,2022.2.4,Win32,59.99880002,6310c063bd0cce86b0289d20,64d2fd46c836a06233681665,64dc7eafc030f419ae44118a,,,,,,,,,,,,,,,,,,,,,,,,,,4,0,4,0,1,,,,,,,,,,,,,,,,,,,,,,,,,,,,,,,,,,
,,,,,,,,2023-08-16_08h46.47.432,HF_wild_card,2022.2.4,Win32,59.99880002,6310c063bd0cce86b0289d20,64d2fd46c836a06233681665,64dc7eafc030f419ae44118a,,,,,,,decisionTrl,resources/DY.BMP,resources/DP.BMP,Door4,-0.236760125,-0.046209761,1,0,0,1.4813,optionLeft,60,11930,6,0,0,0,0,1,,,,,,,,,,,,,,,,,,,,,,,,,,,,,,,,,,,,,,,
,,,,,,,,2023-08-16_08h46.47.432,HF_wild_card,2022.2.4,Win32,59.99880002,6310c063bd0cce86b0289d20,64d2fd46c836a06233681665,64dc7eafc030f419ae44118a,,,,,,,decisionTrl,resources/DR.BMP,resources/DBN.BMP,WildCard_Ex,-0.228452752,-0.031671859,1,0,0,1.4154,optionLeft,5,11935,6,1,0,1,0,1,,,,,,,,,,,,,,,,,,,,,,,,,,,,,,,,,,,,,,,
,,,,,,,,2023-08-16_08h46.47.432,HF_wild_card,2022.2.4,Win32,59.99880002,6310c063bd0cce86b0289d20,64d2fd46c836a06233681665,64dc7eafc030f419ae44118a,,,,,,,decisionTrl,resources/DY.BMP,resources/DP.BMP,Door3,0.278296989,-0.015057113,1,0,0,1.0155,optionRight,70,12005,6,2,0,2,0,1,,,,,,,,,,,,,,,,,,,,,,,,,,,,,,,,,,,,,,,
,,,,,,,,2023-08-16_08h46.47.432,HF_wild_card,2022.2.4,Win32,59.99880002,6310c063bd0cce86b0289d20,64d2fd46c836a06233681665,64dc7eafc030f419ae44118a,,,,,,,decisionTrl,resources/DR.BMP,resources/DG.BMP,Door2,0.282450675,-0.005711319,1,0,0,1.1819,optionRight,40,12045,6,3,0,3,0,1,,,,,,,,,,,,,,,,,,,,,,,,,,,,,,,,,,,,,,,
,,,,,,,,2023-08-16_08h46.47.432,HF_wild_card,2022.2.4,Win32,59.99880002,6310c063bd0cce86b0289d20,64d2fd46c836a06233681665,64dc7eafc030f419ae44118a,,,,,,,ctch,resources/DG.BMP,resources/DP.BMP,Door3,0.247144341,-0.000519211,1,0,0,1.5821,optionRight,70,12115,6,4,0,4,0,1,,,,,,,,,,,,,,,,,,,,,,,,,,,,,,,,,,,,,,,
,,,,,,,,2023-08-16_08h46.47.432,HF_wild_card,2022.2.4,Win32,59.99880002,6310c063bd0cce86b0289d20,64d2fd46c836a06233681665,64dc7eafc030f419ae44118a,,,,,,,ctch,resources/DP.BMP,resources/DG.BMP,Door3,-0.427829699,-0.030633437,1,0,0,1.3318,optionLeft,70,12185,6,5,0,5,0,1,,,,,,,,,,,,,,,,,,,,,,,,,,,,,,,,,,,,,,,
,,,,,,,,2023-08-16_08h46.47.432,HF_wild_card,2022.2.4,Win32,59.99880002,6310c063bd0cce86b0289d20,64d2fd46c836a06233681665,64dc7eafc030f419ae44118a,,,,,,,decisionTrl,resources/DP.BMP,resources/DY.BMP,Door4,0.272066459,-0.021287643,1,0,0,0.9151,optionRight,80,12265,6,6,0,6,0,1,,,,,,,,,,,,,,,,,,,,,,,,,,,,,,,,,,,,,,,
,,,,,,,,2023-08-16_08h46.47.432,HF_wild_card,2022.2.4,Win32,59.99880002,6310c063bd0cce86b0289d20,64d2fd46c836a06233681665,64dc7eafc030f419ae44118a,,,,,,,sngl,resources/DBN.BMP,resources/Empty.png,Door1,-0.225337487,-0.004672897,1,0,0,0.5822,optionLeft,30,12295,6,7,0,7,0,1,,,,,,,,,,,,,,,,,,,,,,,,,,,,,,,,,,,,,,,
,,,,,,,,2023-08-16_08h46.47.432,HF_wild_card,2022.2.4,Win32,59.99880002,6310c063bd0cce86b0289d20,64d2fd46c836a06233681665,64dc7eafc030f419ae44118a,,,,,,,decisionTrl,resources/DG.BMP,resources/DBN.BMP,Door1,0.257528557,-0.029595016,1,0,0,1.4823,optionRight,30,12325,6,8,0,8,0,1,,,,,,,,,,,,,,,,,,,,,,,,,,,,,,,,,,,,,,,
,,,,,,,,2023-08-16_08h46.47.432,HF_wild_card,2022.2.4,Win32,59.99880002,6310c063bd0cce86b0289d20,64d2fd46c836a06233681665,64dc7eafc030f419ae44118a,,,,,,,sngl,resources/DP.BMP,resources/Empty.png,Door3,-0.27933541,-0.055555556,1,0,0,0.482,optionLeft,70,12395,6,9,0,9,0,1,,,,,,,,,,,,,,,,,,,,,,,,,,,,,,,,,,,,,,,
,,,,,,,,2023-08-16_08h46.47.432,HF_wild_card,2022.2.4,Win32,59.99880002,6310c063bd0cce86b0289d20,64d2fd46c836a06233681665,64dc7eafc030f419ae44118a,,,,,,,ctch,resources/DBN.BMP,resources/DY.BMP,Door4,0.2596054,0.000519211,1,0,0,2.4656,optionRight,80,12475,6,10,0,10,0,1,,,,,,,,,,,,,,,,,,,,,,,,,,,,,,,,,,,,,,,
,,,,,,,,2023-08-16_08h46.47.432,HF_wild_card,2022.2.4,Win32,59.99880002,6310c063bd0cce86b0289d20,64d2fd46c836a06233681665,64dc7eafc030f419ae44118a,,,,,,,decisionTrl,resources/DBN.BMP,resources/DG.BMP,Door1,-0.313603323,0.005711319,1,0,0,1.3097,optionLeft,30,12505,6,11,0,11,0,1,,,,,,,,,,,,,,,,,,,,,,,,,,,,,,,,,,,,,,,
,,,,,,,,2023-08-16_08h46.47.432,HF_wild_card,2022.2.4,Win32,59.99880002,6310c063bd0cce86b0289d20,64d2fd46c836a06233681665,64dc7eafc030f419ae44118a,,,,,,,decisionTrl,resources/DG.BMP,resources/DBN.BMP,Door1,0.293873313,0.063862928,1,0,0,1.2149,optionRight,30,12535,6,12,0,12,0,1,,,,,,,,,,,,,,,,,,,,,,,,,,,,,,,,,,,,,,,
,,,,,,,,2023-08-16_08h46.47.432,HF_wild_card,2022.2.4,Win32,59.99880002,6310c063bd0cce86b0289d20,64d2fd46c836a06233681665,64dc7eafc030f419ae44118a,,,,,,,decisionTrl,resources/DBN.BMP,resources/DR.BMP,WildCard_Ex,0.408099688,0.034787124,1,0,0,0.865,optionRight,95,12630,6,13,0,13,0,1,,,,,,,,,,,,,,,,,,,,,,,,,,,,,,,,,,,,,,,
,,,,,,,,2023-08-16_08h46.47.432,HF_wild_card,2022.2.4,Win32,59.99880002,6310c063bd0cce86b0289d20,64d2fd46c836a06233681665,64dc7eafc030f419ae44118a,,,,,,,decisionTrl,resources/DY.BMP,resources/DP.BMP,Door4,-0.264797508,-0.057632399,1,0,0,1.1657,optionLeft,80,12710,6,14,0,14,0,1,,,,,,,,,,,,,,,,,,,,,,,,,,,,,,,,,,,,,,,
,,,,,,,,2023-08-16_08h46.47.432,HF_wild_card,2022.2.4,Win32,59.99880002,6310c063bd0cce86b0289d20,64d2fd46c836a06233681665,64dc7eafc030f419ae44118a,,,,,,,sngl,resources/Empty.png,resources/DG.BMP,Door2,0.302180685,-0.007788162,1,0,0,0.5489,optionRight,40,12750,6,15,0,15,0,1,,,,,,,,,,,,,,,,,,,,,,,,,,,,,,,,,,,,,,,
,,,,,,,,2023-08-16_08h46.47.432,HF_wild_card,2022.2.4,Win32,59.99880002,6310c063bd0cce86b0289d20,64d2fd46c836a06233681665,64dc7eafc030f419ae44118a,,,,,,,sngl,resources/DG.BMP,resources/Empty.png,Door2,-0.287642783,-0.00674974,1,0,0,0.7654,optionLeft,20,12770,6,16,0,16,0,1,,,,,,,,,,,,,,,,,,,,,,,,,,,,,,,,,,,,,,,
,,,,,,,,2023-08-16_08h46.47.432,HF_wild_card,2022.2.4,Win32,59.99880002,6310c063bd0cce86b0289d20,64d2fd46c836a06233681665,64dc7eafc030f419ae44118a,,,,,,,decisionTrl,resources/DG.BMP,resources/DR.BMP,WildCard_Ex,0.269989616,0.033748702,1,0,0,0.8488,optionRight,95,12865,6,17,0,17,0,1,,,,,,,,,,,,,,,,,,,,,,,,,,,,,,,,,,,,,,,
,,,,,,,,2023-08-16_08h46.47.432,HF_wild_card,2022.2.4,Win32,59.99880002,6310c063bd0cce86b0289d20,64d2fd46c836a06233681665,64dc7eafc030f419ae44118a,,,,,,,sngl,resources/DR.BMP,resources/Empty.png,WildCard_Ex,-0.241952233,-0.0192108,1,0,0,0.5654,optionLeft,95,12960,6,18,0,18,0,1,,,,,,,,,,,,,,,,,,,,,,,,,,,,,,,,,,,,,,,
,,,,,,,,2023-08-16_08h46.47.432,HF_wild_card,2022.2.4,Win32,59.99880002,6310c063bd0cce86b0289d20,64d2fd46c836a06233681665,64dc7eafc030f419ae44118a,,,,,,,decisionTrl,resources/DP.BMP,resources/DY.BMP,Door4,0.286604361,0.00674974,1,0,0,1.8318,optionRight,80,13040,6,19,0,19,0,1,,,,,,,,,,,,,,,,,,,,,,,,,,,,,,,,,,,,,,,
,,,,,,,,2023-08-16_08h46.47.432,HF_wild_card,2022.2.4,Win32,59.99880002,6310c063bd0cce86b0289d20,64d2fd46c836a06233681665,64dc7eafc030f419ae44118a,,,,,,,sngl,resources/Empty.png,resources/DR.BMP,WildCard_Ex,0.255451713,-0.001557632,1,0,0,0.6322,optionRight,95,13135,6,20,0,20,0,1,,,,,,,,,,,,,,,,,,,,,,,,,,,,,,,,,,,,,,,
,,,,,,,,2023-08-16_08h46.47.432,HF_wild_card,2022.2.4,Win32,59.99880002,6310c063bd0cce86b0289d20,64d2fd46c836a06233681665,64dc7eafc030f419ae44118a,,,,,,,sngl,resources/Empty.png,resources/DP.BMP,Door3,0.240913811,0.025441329,1,0,0,0.5487,optionRight,70,13205,6,21,0,21,0,1,,,,,,,,,,,,,,,,,,,,,,,,,,,,,,,,,,,,,,,
,,,,,,,,2023-08-16_08h46.47.432,HF_wild_card,2022.2.4,Win32,59.99880002,6310c063bd0cce86b0289d20,64d2fd46c836a06233681665,64dc7eafc030f419ae44118a,,,,,,,decisionTrl,resources/DBN.BMP,resources/DG.BMP,Door1,-0.404984424,0.035825545,1,0,0,0.9822,optionLeft,30,13235,6,22,0,22,0,1,,,,,,,,,,,,,,,,,,,,,,,,,,,,,,,,,,,,,,,
,,,,,,,,2023-08-16_08h46.47.432,HF_wild_card,2022.2.4,Win32,59.99880002,6310c063bd0cce86b0289d20,64d2fd46c836a06233681665,64dc7eafc030f419ae44118a,,,,,,,sngl,resources/DY.BMP,resources/Empty.png,Door4,-0.300103842,-0.037902388,1,0,0,0.5823,optionLeft,60,13295,6,23,0,23,0,1,,,,,,,,,,,,,,,,,,,,,,,,,,,,,,,,,,,,,,,
,,,,,,,,2023-08-16_08h46.47.432,HF_wild_card,2022.2.4,Win32,59.99880002,6310c063bd0cce86b0289d20,64d2fd46c836a06233681665,64dc7eafc030f419ae44118a,,,,,,,decisionTrl,resources/DP.BMP,resources/DR.BMP,Door3,-0.343717549,-0.050363448,1,0,0,1.2653,optionLeft,70,13365,6,24,0,24,0,1,,,,,,,,,,,,,,,,,,,,,,,,,,,,,,,,,,,,,,,
,,,,,,,,2023-08-16_08h46.47.432,HF_wild_card,2022.2.4,Win32,59.99880002,6310c063bd0cce86b0289d20,64d2fd46c836a06233681665,64dc7eafc030f419ae44118a,,,,,,,decisionTrl,resources/DG.BMP,resources/DBN.BMP,Door1,0.444444444,0.036863967,1,0,0,1.0654,optionRight,30,13395,6,25,0,25,0,1,,,,,,,,,,,,,,,,,,,,,,,,,,,,,,,,,,,,,,,
,,,,,,,,2023-08-16_08h46.47.432,HF_wild_card,2022.2.4,Win32,59.99880002,6310c063bd0cce86b0289d20,64d2fd46c836a06233681665,64dc7eafc030f419ae44118a,,,,,,,ctch,resources/DY.BMP,resources/DBN.BMP,Door4,-0.248182762,-0.007788162,1,0,0,0.799,optionLeft,60,13455,6,26,0,26,0,1,,,,,,,,,,,,,,,,,,,,,,,,,,,,,,,,,,,,,,,
,,,,,,,,2023-08-16_08h46.47.432,HF_wild_card,2022.2.4,Win32,59.99880002,6310c063bd0cce86b0289d20,64d2fd46c836a06233681665,64dc7eafc030f419ae44118a,,,,,,,sngl,resources/Empty.png,resources/DR.BMP,WildCard_Ex,0.256490135,0.037902388,1,0,0,0.5319,optionRight,5,13460,6,27,0,27,0,1,,,,,,,,,,,,,,,,,,,,,,,,,,,,,,,,,,,,,,,
,,,,,,,,2023-08-16_08h46.47.432,HF_wild_card,2022.2.4,Win32,59.99880002,6310c063bd0cce86b0289d20,64d2fd46c836a06233681665,64dc7eafc030f419ae44118a,,,,,,,ctch,resources/DG.BMP,resources/DP.BMP,Door3,0.333333333,0.039979232,1,0,0,1.0322,optionRight,70,13530,6,28,0,28,0,1,,,,,,,,,,,,,,,,,,,,,,,,,,,,,,,,,,,,,,,
,,,,,,,,2023-08-16_08h46.47.432,HF_wild_card,2022.2.4,Win32,59.99880002,6310c063bd0cce86b0289d20,64d2fd46c836a06233681665,64dc7eafc030f419ae44118a,,,,,,,decisionTrl,resources/DY.BMP,resources/DP.BMP,Door4,-0.321910696,-0.060747664,1,0,0,1.0489,optionLeft,60,13590,6,29,0,29,0,1,,,,,,,,,,,,,,,,,,,,,,,,,,,,,,,,,,,,,,,
,,,,,,,,2023-08-16_08h46.47.432,HF_wild_card,2022.2.4,Win32,59.99880002,6310c063bd0cce86b0289d20,64d2fd46c836a06233681665,64dc7eafc030f419ae44118a,,,,,,,ctch,resources/DY.BMP,resources/DBN.BMP,Door4,-0.313603323,-0.048286604,1,0,0,0.7655,optionLeft,80,13670,6,30,0,30,0,1,,,,,,,,,,,,,,,,,,,,,,,,,,,,,,,,,,,,,,,
,,,,,,,,2023-08-16_08h46.47.432,HF_wild_card,2022.2.4,Win32,59.99880002,6310c063bd0cce86b0289d20,64d2fd46c836a06233681665,64dc7eafc030f419ae44118a,,,,,,,decisionTrl,resources/DY.BMP,resources/DR.BMP,Door4,-0.330218069,-0.03271028,1,0,0,1.082,optionLeft,80,13750,6,31,0,31,0,1,,,,,,,,,,,,,,,,,,,,,,,,,,,,,,,,,,,,,,,
,,,,,,,,2023-08-16_08h46.47.432,HF_wild_card,2022.2.4,Win32,59.99880002,6310c063bd0cce86b0289d20,64d2fd46c836a06233681665,64dc7eafc030f419ae44118a,,,,,,,sngl,resources/Empty.png,resources/DY.BMP,Door4,0.41536864,0.023364486,1,0,0,0.4153,optionRight,80,13830,6,32,0,32,0,1,,,,,,,,,,,,,,,,,,,,,,,,,,,,,,,,,,,,,,,
,,,,,,,,2023-08-16_08h46.47.432,HF_wild_card,2022.2.4,Win32,59.99880002,6310c063bd0cce86b0289d20,64d2fd46c836a06233681665,64dc7eafc030f419ae44118a,,,,,,,decisionTrl,resources/DR.BMP,resources/DY.BMP,Door4,0.371754933,0.060747664,1,0,0,0.8988,optionRight,80,13910,6,33,0,33,0,1,,,,,,,,,,,,,,,,,,,,,,,,,,,,,,,,,,,,,,,
,,,,,,,,2023-08-16_08h46.47.432,HF_wild_card,2022.2.4,Win32,59.99880002,6310c063bd0cce86b0289d20,64d2fd46c836a06233681665,64dc7eafc030f419ae44118a,,,,,,,ctch,resources/DBN.BMP,resources/DY.BMP,Door4,0.439252336,0.069055036,1,0,0,0.4652,optionRight,80,13990,6,34,0,34,0,1,,,,,,,,,,,,,,,,,,,,,,,,,,,,,,,,,,,,,,,
,,,,,,,,2023-08-16_08h46.47.432,HF_wild_card,2022.2.4,Win32,59.99880002,6310c063bd0cce86b0289d20,64d2fd46c836a06233681665,64dc7eafc030f419ae44118a,,,,,,,sngl,resources/DR.BMP,resources/Empty.png,WildCard_Ex,-0.296988577,-0.042056075,1,0,0,0.5156,optionLeft,5,13995,6,35,0,35,0,1,,,,,,,,,,,,,,,,,,,,,,,,,,,,,,,,,,,,,,,
,,,,,,,,2023-08-16_08h46.47.432,HF_wild_card,2022.2.4,Win32,59.99880002,6310c063bd0cce86b0289d20,64d2fd46c836a06233681665,64dc7eafc030f419ae44118a,,,,,,,decisionTrl,resources/DR.BMP,resources/DP.BMP,Door3,0.304257529,0.000519211,1,0,0,0.8154,optionRight,70,14065,6,36,0,36,0,1,,,,,,,,,,,,,,,,,,,,,,,,,,,,,,,,,,,,,,,
,,,,,,,,2023-08-16_08h46.47.432,HF_wild_card,2022.2.4,Win32,59.99880002,6310c063bd0cce86b0289d20,64d2fd46c836a06233681665,64dc7eafc030f419ae44118a,,,,,,,decisionTrl,resources/DBN.BMP,resources/DG.BMP,Door1,-0.379023884,-0.0192108,1,0,0,1.0989,optionLeft,30,14095,6,37,0,37,0,1,,,,,,,,,,,,,,,,,,,,,,,,,,,,,,,,,,,,,,,
,,,,,,,,2023-08-16_08h46.47.432,HF_wild_card,2022.2.4,Win32,59.99880002,6310c063bd0cce86b0289d20,64d2fd46c836a06233681665,64dc7eafc030f419ae44118a,,,,,,,decisionTrl,resources/DBN.BMP,resources/DG.BMP,Door1,-0.388369678,0.007788162,1,0,0,0.8822,optionLeft,30,14125,6,38,0,38,0,1,,,,,,,,,,,,,,,,,,,,,,,,,,,,,,,,,,,,,,,
,,,,,,,,2023-08-16_08h46.47.432,HF_wild_card,2022.2.4,Win32,59.99880002,6310c063bd0cce86b0289d20,64d2fd46c836a06233681665,64dc7eafc030f419ae44118a,,,,,,,decisionTrl,resources/DP.BMP,resources/DY.BMP,Door4,0.323987539,0.001557632,1,0,0,0.8821,optionRight,60,14185,6,39,0,39,0,1,,,,,,,,,,,,,,,,,,,,,,,,,,,,,,,,,,,,,,,
,,,,,,,,2023-08-16_08h46.47.432,HF_wild_card,2022.2.4,Win32,59.99880002,6310c063bd0cce86b0289d20,64d2fd46c836a06233681665,64dc7eafc030f419ae44118a,,,,,,,sngl,resources/Empty.png,resources/DBN.BMP,Door1,0.245067497,0.021287643,1,0,0,0.4821,optionRight,30,14215,6,40,0,40,0,1,,,,,,,,,,,,,,,,,,,,,,,,,,,,,,,,,,,,,,,
,,,,,,,,2023-08-16_08h46.47.432,HF_wild_card,2022.2.4,Win32,59.99880002,6310c063bd0cce86b0289d20,64d2fd46c836a06233681665,64dc7eafc030f419ae44118a,,,,,,,decisionTrl,resources/DG.BMP,resources/DBN.BMP,Door1,0.46105919,0.011941848,1,0,0,0.8489,optionRight,30,14245,6,41,0,41,0,1,,,,,,,,,,,,,,,,,,,,,,,,,,,,,,,,,,,,,,,
,,,,,,,,2023-08-16_08h46.47.432,HF_wild_card,2022.2.4,Win32,59.99880002,6310c063bd0cce86b0289d20,64d2fd46c836a06233681665,64dc7eafc030f419ae44118a,,,,,,,ctch,resources/DP.BMP,resources/DG.BMP,Door3,-0.349948079,-0.043094496,1,0,0,0.8657,optionLeft,70,14315,6,42,0,42,0,1,,,,,,,,,,,,,,,,,,,,,,,,,,,,,,,,,,,,,,,
,,,,,,,,2023-08-16_08h46.47.432,HF_wild_card,2022.2.4,Win32,59.99880002,6310c063bd0cce86b0289d20,64d2fd46c836a06233681665,64dc7eafc030f419ae44118a,,,,,,,decisionTrl,resources/DP.BMP,resources/DY.BMP,Door4,0.387331256,0.001557632,1,0,0,0.9652,optionRight,60,14375,6,43,0,43,0,1,,,,,,,,,,,,,,,,,,,,,,,,,,,,,,,,,,,,,,,
,,,,,,,,2023-08-16_08h46.47.432,HF_wild_card,2022.2.4,Win32,59.99880002,6310c063bd0cce86b0289d20,64d2fd46c836a06233681665,64dc7eafc030f419ae44118a,,,,,,,,,,,,,,,,,,,,,,,,,,5,0,5,0,1,,,,,,,,,,,,,,,,,,,,,,,,,,,,,,,,,,
,,,,,,,,2023-08-16_08h46.47.432,HF_wild_card,2022.2.4,Win32,59.99880002,6310c063bd0cce86b0289d20,64d2fd46c836a06233681665,64dc7eafc030f419ae44118a,,,,,,,decisionTrl,resources/DBN.BMP,resources/DG.BMP,Door1,-0.271028037,-0.043094496,1,0,0,1.0412,optionLeft,30,14405,7,0,0,0,0,1,,,,,,,,,,,,,,,,,,,,,,,,,,,,,,,,,,,,,,,
,,,,,,,,2023-08-16_08h46.47.432,HF_wild_card,2022.2.4,Win32,59.99880002,6310c063bd0cce86b0289d20,64d2fd46c836a06233681665,64dc7eafc030f419ae44118a,,,,,,,ctch,resources/DY.BMP,resources/DBN.BMP,Door4,-0.273104881,-0.025441329,1,0,0,0.9659,optionLeft,60,14465,7,1,0,1,0,1,,,,,,,,,,,,,,,,,,,,,,,,,,,,,,,,,,,,,,,
,,,,,,,,2023-08-16_08h46.47.432,HF_wild_card,2022.2.4,Win32,59.99880002,6310c063bd0cce86b0289d20,64d2fd46c836a06233681665,64dc7eafc030f419ae44118a,,,,,,,ctch,resources/DG.BMP,resources/DP.BMP,Door3,0.287642783,-0.008826584,1,0,0,1.666,optionRight,70,14535,7,2,0,2,0,1,,,,,,,,,,,,,,,,,,,,,,,,,,,,,,,,,,,,,,,
,,,,,,,,2023-08-16_08h46.47.432,HF_wild_card,2022.2.4,Win32,59.99880002,6310c063bd0cce86b0289d20,64d2fd46c836a06233681665,64dc7eafc030f419ae44118a,,,,,,,decisionTrl,resources/DG.BMP,resources/DBN.BMP,Door1,0.379023884,-0.014018692,1,0,0,0.9828,optionRight,30,14565,7,3,0,3,0,1,,,,,,,,,,,,,,,,,,,,,,,,,,,,,,,,,,,,,,,
,,,,,,,,2023-08-16_08h46.47.432,HF_wild_card,2022.2.4,Win32,59.99880002,6310c063bd0cce86b0289d20,64d2fd46c836a06233681665,64dc7eafc030f419ae44118a,,,,,,,decisionTrl,resources/DP.BMP,resources/DY.BMP,Door4,0.325025961,-0.036863967,1,0,0,1.7662,optionRight,60,14625,7,4,0,4,0,1,,,,,,,,,,,,,,,,,,,,,,,,,,,,,,,,,,,,,,,
,,,,,,,,2023-08-16_08h46.47.432,HF_wild_card,2022.2.4,Win32,59.99880002,6310c063bd0cce86b0289d20,64d2fd46c836a06233681665,64dc7eafc030f419ae44118a,,,,,,,ctch,resources/DP.BMP,resources/DG.BMP,Door3,-0.254413292,-0.034787124,1,0,0,0.8326,optionLeft,70,14695,7,5,0,5,0,1,,,,,,,,,,,,,,,,,,,,,,,,,,,,,,,,,,,,,,,
,,,,,,,,2023-08-16_08h46.47.432,HF_wild_card,2022.2.4,Win32,59.99880002,6310c063bd0cce86b0289d20,64d2fd46c836a06233681665,64dc7eafc030f419ae44118a,,,,,,,decisionTrl,resources/DBN.BMP,resources/DG.BMP,Door1,-0.208722741,-0.005711319,1,0,0,0.8328,optionLeft,30,14725,7,6,0,6,0,1,,,,,,,,,,,,,,,,,,,,,,,,,,,,,,,,,,,,,,,
,,,,,,,,2023-08-16_08h46.47.432,HF_wild_card,2022.2.4,Win32,59.99880002,6310c063bd0cce86b0289d20,64d2fd46c836a06233681665,64dc7eafc030f419ae44118a,,,,,,,decisionTrl,resources/DBN.BMP,resources/DG.BMP,Door1,-0.215991693,-0.021287643,1,0,0,0.6494,optionLeft,30,14755,7,7,0,7,0,1,,,,,,,,,,,,,,,,,,,,,,,,,,,,,,,,,,,,,,,
,,,,,,,,2023-08-16_08h46.47.432,HF_wild_card,2022.2.4,Win32,59.99880002,6310c063bd0cce86b0289d20,64d2fd46c836a06233681665,64dc7eafc030f419ae44118a,,,,,,,ctch,resources/DY.BMP,resources/DBN.BMP,Door4,-0.267912773,-0.031671859,1,0,0,1.0827,optionLeft,80,14835,7,8,0,8,0,1,,,,,,,,,,,,,,,,,,,,,,,,,,,,,,,,,,,,,,,
,,,,,,,,2023-08-16_08h46.47.432,HF_wild_card,2022.2.4,Win32,59.99880002,6310c063bd0cce86b0289d20,64d2fd46c836a06233681665,64dc7eafc030f419ae44118a,,,,,,,ctch,resources/DG.BMP,resources/DP.BMP,Door3,0.291796469,-0.015057113,1,0,0,1.3658,optionRight,70,14905,7,9,0,9,0,1,,,,,,,,,,,,,,,,,,,,,,,,,,,,,,,,,,,,,,,
,,,,,,,,2023-08-16_08h46.47.432,HF_wild_card,2022.2.4,Win32,59.99880002,6310c063bd0cce86b0289d20,64d2fd46c836a06233681665,64dc7eafc030f419ae44118a,,,,,,,decisionTrl,resources/DBN.BMP,resources/DG.BMP,Door1,-0.204569055,-0.0192108,1,0,0,0.8492,optionLeft,30,14935,7,10,0,10,0,1,,,,,,,,,,,,,,,,,,,,,,,,,,,,,,,,,,,,,,,
,,,,,,,,2023-08-16_08h46.47.432,HF_wild_card,2022.2.4,Win32,59.99880002,6310c063bd0cce86b0289d20,64d2fd46c836a06233681665,64dc7eafc030f419ae44118a,,,,,,,decisionTrl,resources/DY.BMP,resources/DP.BMP,Door3,0.288681205,0.005711319,1,0,0,1.5328,optionRight,70,15005,7,11,0,11,0,1,,,,,,,,,,,,,,,,,,,,,,,,,,,,,,,,,,,,,,,
,,,,,,,,2023-08-16_08h46.47.432,HF_wild_card,2022.2.4,Win32,59.99880002,6310c063bd0cce86b0289d20,64d2fd46c836a06233681665,64dc7eafc030f419ae44118a,,,,,,,decisionTrl,resources/DG.BMP,resources/DBN.BMP,Door1,0.307372793,0.024402908,1,0,0,0.966,optionRight,30,15035,7,12,0,12,0,1,,,,,,,,,,,,,,,,,,,,,,,,,,,,,,,,,,,,,,,
,,,,,,,,2023-08-16_08h46.47.432,HF_wild_card,2022.2.4,Win32,59.99880002,6310c063bd0cce86b0289d20,64d2fd46c836a06233681665,64dc7eafc030f419ae44118a,,,,,,,decisionTrl,resources/DG.BMP,resources/DBN.BMP,Door1,0.308411215,0.034787124,1,0,0,1.0328,optionRight,30,15065,7,13,0,13,0,1,,,,,,,,,,,,,,,,,,,,,,,,,,,,,,,,,,,,,,,
,,,,,,,,2023-08-16_08h46.47.432,HF_wild_card,2022.2.4,Win32,59.99880002,6310c063bd0cce86b0289d20,64d2fd46c836a06233681665,64dc7eafc030f419ae44118a,,,,,,,decisionTrl,resources/DP.BMP,resources/DY.BMP,Door4,0.273104881,0.005711319,1,0,0,2.0493,optionRight,60,15125,7,14,0,14,0,1,,,,,,,,,,,,,,,,,,,,,,,,,,,,,,,,,,,,,,,
,,,,,,,,2023-08-16_08h46.47.432,HF_wild_card,2022.2.4,Win32,59.99880002,6310c063bd0cce86b0289d20,64d2fd46c836a06233681665,64dc7eafc030f419ae44118a,,,,,,,ctch,resources/DP.BMP,resources/DG.BMP,Door3,-0.271028037,-0.050363448,1,0,0,1.0492,optionLeft,70,15195,7,15,0,15,0,1,,,,,,,,,,,,,,,,,,,,,,,,,,,,,,,,,,,,,,,
,,,,,,,,2023-08-16_08h46.47.432,HF_wild_card,2022.2.4,Win32,59.99880002,6310c063bd0cce86b0289d20,64d2fd46c836a06233681665,64dc7eafc030f419ae44118a,,,,,,,decisionTrl,resources/DY.BMP,resources/DP.BMP,Door3,0.295950156,-0.01298027,1,0,0,1.3494,optionRight,70,15265,7,16,0,16,0,1,,,,,,,,,,,,,,,,,,,,,,,,,,,,,,,,,,,,,,,
,,,,,,,,2023-08-16_08h46.47.432,HF_wild_card,2022.2.4,Win32,59.99880002,6310c063bd0cce86b0289d20,64d2fd46c836a06233681665,64dc7eafc030f419ae44118a,,,,,,,decisionTrl,resources/DP.BMP,resources/DY.BMP,Door4,0.232606438,-0.017133956,1,0,0,0.6993,optionRight,60,15325,7,17,0,17,0,1,,,,,,,,,,,,,,,,,,,,,,,,,,,,,,,,,,,,,,,
,,,,,,,,2023-08-16_08h46.47.432,HF_wild_card,2022.2.4,Win32,59.99880002,6310c063bd0cce86b0289d20,64d2fd46c836a06233681665,64dc7eafc030f419ae44118a,,,,,,,ctch,resources/DBN.BMP,resources/DY.BMP,Door4,0.267912773,-0.011941848,1,0,0,0.8495,optionRight,60,15385,7,18,0,18,0,1,,,,,,,,,,,,,,,,,,,,,,,,,,,,,,,,,,,,,,,
,,,,,,,,2023-08-16_08h46.47.432,HF_wild_card,2022.2.4,Win32,59.99880002,6310c063bd0cce86b0289d20,64d2fd46c836a06233681665,64dc7eafc030f419ae44118a,,,,,,,decisionTrl,resources/DY.BMP,resources/DP.BMP,Door3,0.261682243,-0.010903427,1,0,0,1.5823,optionRight,70,15455,7,19,0,19,0,1,,,,,,,,,,,,,,,,,,,,,,,,,,,,,,,,,,,,,,,
,,,,,,,,2023-08-16_08h46.47.432,HF_wild_card,2022.2.4,Win32,59.99880002,6310c063bd0cce86b0289d20,64d2fd46c836a06233681665,64dc7eafc030f419ae44118a,,,,,,,decisionTrl,resources/DY.BMP,resources/DP.BMP,Door3,0.249221184,-0.008826584,1,0,0,0.6664,optionRight,70,15525,7,20,0,20,0,1,,,,,,,,,,,,,,,,,,,,,,,,,,,,,,,,,,,,,,,
,,,,,,,,2023-08-16_08h46.47.432,HF_wild_card,2022.2.4,Win32,59.99880002,6310c063bd0cce86b0289d20,64d2fd46c836a06233681665,64dc7eafc030f419ae44118a,,,,,,,decisionTrl,resources/DBN.BMP,resources/DG.BMP,Door1,-0.256490135,-0.034787124,1,0,0,0.7827,optionLeft,30,15555,7,21,0,21,0,1,,,,,,,,,,,,,,,,,,,,,,,,,,,,,,,,,,,,,,,
,,,,,,,,2023-08-16_08h46.47.432,HF_wild_card,2022.2.4,Win32,59.99880002,6310c063bd0cce86b0289d20,64d2fd46c836a06233681665,64dc7eafc030f419ae44118a,,,,,,,ctch,resources/DY.BMP,resources/DBN.BMP,Door4,-0.284527518,-0.041017653,1,0,0,0.9661,optionLeft,80,15635,7,22,0,22,0,1,,,,,,,,,,,,,,,,,,,,,,,,,,,,,,,,,,,,,,,
,,,,,,,,2023-08-16_08h46.47.432,HF_wild_card,2022.2.4,Win32,59.99880002,6310c063bd0cce86b0289d20,64d2fd46c836a06233681665,64dc7eafc030f419ae44118a,,,,,,,decisionTrl,resources/DG.BMP,resources/DBN.BMP,Door1,0.2596054,0.020249221,1,0,0,0.916,optionRight,30,15665,7,23,0,23,0,1,,,,,,,,,,,,,,,,,,,,,,,,,,,,,,,,,,,,,,,
,,,,,,,,2023-08-16_08h46.47.432,HF_wild_card,2022.2.4,Win32,59.99880002,6310c063bd0cce86b0289d20,64d2fd46c836a06233681665,64dc7eafc030f419ae44118a,,,,,,,decisionTrl,resources/DY.BMP,resources/DP.BMP,Door3,0.200415369,0.009865005,1,0,0,1.1493,optionRight,70,15735,7,24,0,24,0,1,,,,,,,,,,,,,,,,,,,,,,,,,,,,,,,,,,,,,,,
,,,,,,,,2023-08-16_08h46.47.432,HF_wild_card,2022.2.4,Win32,59.99880002,6310c063bd0cce86b0289d20,64d2fd46c836a06233681665,64dc7eafc030f419ae44118a,,,,,,,decisionTrl,resources/DP.BMP,resources/DY.BMP,Door4,0.264797508,0.01298027,1,0,0,0.6494,optionRight,80,15815,7,25,0,25,0,1,,,,,,,,,,,,,,,,,,,,,,,,,,,,,,,,,,,,,,,
,,,,,,,,2023-08-16_08h46.47.432,HF_wild_card,2022.2.4,Win32,59.99880002,6310c063bd0cce86b0289d20,64d2fd46c836a06233681665,64dc7eafc030f419ae44118a,,,,,,,ctch,resources/DG.BMP,resources/DP.BMP,Door3,0.296988577,0.025441329,1,0,0,1.3159,optionRight,70,15885,7,26,0,26,0,1,,,,,,,,,,,,,,,,,,,,,,,,,,,,,,,,,,,,,,,
,,,,,,,,2023-08-16_08h46.47.432,HF_wild_card,2022.2.4,Win32,59.99880002,6310c063bd0cce86b0289d20,64d2fd46c836a06233681665,64dc7eafc030f419ae44118a,,,,,,,decisionTrl,resources/DP.BMP,resources/DY.BMP,Door4,0.264797508,0.020249221,1,0,0,0.966,optionRight,80,15965,7,27,0,27,0,1,,,,,,,,,,,,,,,,,,,,,,,,,,,,,,,,,,,,,,,
,,,,,,,,2023-08-16_08h46.47.432,HF_wild_card,2022.2.4,Win32,59.99880002,6310c063bd0cce86b0289d20,64d2fd46c836a06233681665,64dc7eafc030f419ae44118a,,,,,,,decisionTrl,resources/DP.BMP,resources/DY.BMP,Door4,0.380062305,0.061786085,1,0,0,0.5495,optionRight,80,16045,7,28,0,28,0,1,,,,,,,,,,,,,,,,,,,,,,,,,,,,,,,,,,,,,,,
,,,,,,,,2023-08-16_08h46.47.432,HF_wild_card,2022.2.4,Win32,59.99880002,6310c063bd0cce86b0289d20,64d2fd46c836a06233681665,64dc7eafc030f419ae44118a,,,,,,,decisionTrl,resources/DBN.BMP,resources/DG.BMP,Door1,-0.17549325,-0.010903427,1,0,0,0.7827,optionLeft,30,16075,7,29,0,29,0,1,,,,,,,,,,,,,,,,,,,,,,,,,,,,,,,,,,,,,,,
,,,,,,,,2023-08-16_08h46.47.432,HF_wild_card,2022.2.4,Win32,59.99880002,6310c063bd0cce86b0289d20,64d2fd46c836a06233681665,64dc7eafc030f419ae44118a,,,,,,,ctch,resources/DBN.BMP,resources/DY.BMP,Door4,0.278296989,0.030633437,1,0,0,0.7661,optionRight,60,16135,7,30,0,30,0,1,,,,,,,,,,,,,,,,,,,,,,,,,,,,,,,,,,,,,,,
,,,,,,,,2023-08-16_08h46.47.432,HF_wild_card,2022.2.4,Win32,59.99880002,6310c063bd0cce86b0289d20,64d2fd46c836a06233681665,64dc7eafc030f419ae44118a,,,,,,,decisionTrl,resources/DG.BMP,resources/DBN.BMP,Door1,0.323987539,0.025441329,1,0,0,0.8326,optionRight,30,16165,7,31,0,31,0,1,,,,,,,,,,,,,,,,,,,,,,,,,,,,,,,,,,,,,,,
,,,,,,,,2023-08-16_08h46.47.432,HF_wild_card,2022.2.4,Win32,59.99880002,6310c063bd0cce86b0289d20,64d2fd46c836a06233681665,64dc7eafc030f419ae44118a,,,,,,,decisionTrl,resources/DG.BMP,resources/DBN.BMP,Door1,0.399792316,0.031671859,1,0,0,0.5495,optionRight,30,16195,7,32,0,32,0,1,,,,,,,,,,,,,,,,,,,,,,,,,,,,,,,,,,,,,,,
,,,,,,,,2023-08-16_08h46.47.432,HF_wild_card,2022.2.4,Win32,59.99880002,6310c063bd0cce86b0289d20,64d2fd46c836a06233681665,64dc7eafc030f419ae44118a,,,,,,,ctch,resources/DP.BMP,resources/DG.BMP,Door3,-0.38317757,0.008826584,1,0,0,0.9576,optionLeft,70,16265,7,33,0,33,0,1,,,,,,,,,,,,,,,,,,,,,,,,,,,,,,,,,,,,,,,
,,,,,,,,2023-08-16_08h46.47.432,HF_wild_card,2022.2.4,Win32,59.99880002,6310c063bd0cce86b0289d20,64d2fd46c836a06233681665,64dc7eafc030f419ae44118a,,,,,,,decisionTrl,resources/DY.BMP,resources/DP.BMP,Door3,0.252336449,0.017133956,1,0,0,1.2826,optionRight,70,16335,7,34,0,34,0,1,,,,,,,,,,,,,,,,,,,,,,,,,,,,,,,,,,,,,,,
,,,,,,,,2023-08-16_08h46.47.432,HF_wild_card,2022.2.4,Win32,59.99880002,6310c063bd0cce86b0289d20,64d2fd46c836a06233681665,64dc7eafc030f419ae44118a,,,,,,,ctch,resources/DBN.BMP,resources/DY.BMP,Door4,0.310488058,-0.022326064,1,0,0,0.5816,optionRight,60,16395,7,35,0,35,0,1,,,,,,,,,,,,,,,,,,,,,,,,,,,,,,,,,,,,,,,
,,,,,,,,2023-08-16_08h46.47.432,HF_wild_card,2022.2.4,Win32,59.99880002,6310c063bd0cce86b0289d20,64d2fd46c836a06233681665,64dc7eafc030f419ae44118a,,,,,,,,,,,,,,,,,,,,,,,,,,6,0,6,0,1,,,,,,,,,,,,,,,,,,,,,,,,,,,,,,,,,,
,,,,,,,,2023-08-16_08h46.47.432,HF_wild_card,2022.2.4,Win32,59.99880002,6310c063bd0cce86b0289d20,64d2fd46c836a06233681665,64dc7eafc030f419ae44118a,,,,,,,,,,,,,,,,,,,,,,,,,,,,,,,4,,,,,,,,,,,,,,,,,,,,,,,,,,,,,,,,,
,,,,,,,,2023-08-16_08h46.47.432,HF_wild_card,2022.2.4,Win32,59.99880002,6310c063bd0cce86b0289d20,64d2fd46c836a06233681665,64dc7eafc030f419ae44118a,,,,,,,,,,,,,,,,,,,,,,,,,,,,,,,,,,,,,,,,,,,,,,,,,,,,,,,,,,,,,,,,
,,,,,,,,2023-08-16_08h46.47.432,HF_wild_card,2022.2.4,Win32,59.99880002,6310c063bd0cce86b0289d20,64d2fd46c836a06233681665,64dc7eafc030f419ae44118a,,,,,,,,,,,,,,,,,,,,,,,,,,,,,,,,40,Door2,resources/DG.BMP,0,0,0,0,1,,,,,,,,,,,,,,,,,,,,,,,,,
,,,,,,,,2023-08-16_08h46.47.432,HF_wild_card,2022.2.4,Win32,59.99880002,6310c063bd0cce86b0289d20,64d2fd46c836a06233681665,64dc7eafc030f419ae44118a,,,,,,,,,,,,,,,,,,,,,,,,,,,,,,,,55,WC_nonExtreme,resources/DB.BMP,1,0,1,0,1,,,,,,,,,,,,,,,,,,,,,,,,,
,,,,,,,,2023-08-16_08h46.47.432,HF_wild_card,2022.2.4,Win32,59.99880002,6310c063bd0cce86b0289d20,64d2fd46c836a06233681665,64dc7eafc030f419ae44118a,,,,,,,,,,,,,,,,,,,,,,,,,,,,,,,,5,WC_extreme,resources/DR.BMP,2,0,2,0,1,,,,,,,,,,,,,,,,,,,,,,,,,
,,,,,,,,2023-08-16_08h46.47.432,HF_wild_card,2022.2.4,Win32,59.99880002,6310c063bd0cce86b0289d20,64d2fd46c836a06233681665,64dc7eafc030f419ae44118a,,,,,,,,,,,,,,,,,,,,,,,,,,,,,,,,80,Door4,resources/DY.BMP,3,0,3,0,1,,,,,,,,,,,,,,,,,,,,,,,,,
,,,,,,,,2023-08-16_08h46.47.432,HF_wild_card,2022.2.4,Win32,59.99880002,6310c063bd0cce86b0289d20,64d2fd46c836a06233681665,64dc7eafc030f419ae44118a,,,,,,,,,,,,,,,,,,,,,,,,,,,,,,,,30,Door1,resources/DBN.BMP,4,0,4,0,1,,,,,,,,,,,,,,,,,,,,,,,,,
,,,,,,,,2023-08-16_08h46.47.432,HF_wild_card,2022.2.4,Win32,59.99880002,6310c063bd0cce86b0289d20,64d2fd46c836a06233681665,64dc7eafc030f419ae44118a,,,,,,,,,,,,,,,,,,,,,,,,,,,,,,,,70,Door3,resources/DP.BMP,5,0,5,0,1,,,,,,,,,,,,,,,,,,,,,,,,,
,,,,,,,,2023-08-16_08h46.47.432,HF_wild_card,2022.2.4,Win32,59.99880002,6310c063bd0cce86b0289d20,64d2fd46c836a06233681665,64dc7eafc030f419ae44118a,,,,,,,,,,,,,,,,,,,,,,,,,,,,,,,,,,,,,,,,,,,,,,,,,,,,,,,,,,,,,,,,
