Condition,Low fixed image (Door1),Low risky image (Door2),High fixed image (Door3),High risky image (Door4),Extreme Wild Card,NonExtreme Wild Card,,date,expName,psychopyVersion,OS,frameRate,PROLIFIC_PID,STUDY_ID,SESSION_ID,mouse_2.x,mouse_2.y,mouse_2.leftButton,mouse_2.midButton,mouse_2.rightButton,mouse_2.clicked_name,Trial Type,Left Option Image,Right Option Image,Chosen Door,mouse.x,mouse.y,mouse.leftButton,mouse.midButton,mouse.rightButton,mouse.time,mouse.clicked_name,Feedback,Cumulative Reward,Block,trial.thisRepN,trial.thisTrialN,trial.thisN,trial.thisIndex,trial.ran,blocks.thisRepN,blocks.thisTrialN,blocks.thisN,blocks.thisIndex,blocks.ran,Money conversion,First Outcome Reported,Shown Door (First Outcome),Displayed Image (First Outcome),outcomes.thisRepN,outcomes.thisTrialN,outcomes.thisN,outcomes.thisIndex,outcomes.ran,judgments.thisRepN,judgments.thisTrialN,judgments.thisN,judgments.thisIndex,judgments.ran,freqMouse.x,freqMouse.y,freqMouse.leftButton,freqMouse.midButton,freqMouse.rightButton,freqMouse.clicked_name,FQJ for first outcome,FQJ for second outcome,Shown Door,Displayed Image,trials.thisRepN,trials.thisTrialN,trials.thisN,trials.thisIndex,trials.ran,judgBlock.thisRepN,judgBlock.thisTrialN,judgBlock.thisN,judgBlock.thisIndex,judgBlock.ran
0,resources/DY.BMP,resources/DR.BMP,resources/DBN.BMP,resources/DB.BMP,resources/DP.BMP,resources/DG.BMP,,2023-08-16_08h44.30.840,HF_wild_card,2022.2.4,Win32,59.97720866,5641c95d17bdbe00102a0b51,64d2fd46c836a06233681665,64dc7e4ec85895763d4e5777,,,,,,,,,,,,,,,,,,,,,,,,,,,,,,,,,,,,,,,,,,,,,,,,,,,,,,,,,,,,,,,,
,,,,,,,,2023-08-16_08h44.30.840,HF_wild_card,2022.2.4,Win32,59.97720866,5641c95d17bdbe00102a0b51,64d2fd46c836a06233681665,64dc7e4ec85895763d4e5777,0.011038274,-0.415547269,1,0,0,agree,,,,,,,,,,,,,,,,,,,,,,,,,,,,,,,,,,,,,,,,,,,,,,,,,,,,,,,,,,
,,,,,,,,2023-08-16_08h44.30.840,HF_wild_card,2022.2.4,Win32,59.97720866,5641c95d17bdbe00102a0b51,64d2fd46c836a06233681665,64dc7e4ec85895763d4e5777,,,,,,,,,,,,,,,,,,,,,,,,,,,,,,,,,,,,,,,,,,,,,,,,,,,,,,,,,,,,,,,,
,,,,,,,,2023-08-16_08h44.30.840,HF_wild_card,2022.2.4,Win32,59.97720866,5641c95d17bdbe00102a0b51,64d2fd46c836a06233681665,64dc7e4ec85895763d4e5777,,,,,,,decisionTrl,resources/DP.BMP,resources/DB.BMP,WildCard_Ex,-0.376340676,-0.09731339,1,0,0,2.545,optionLeft,95,95,1,0,0,0,0,1,,,,,,,,,,,,,,,,,,,,,,,,,,,,,,,,,,,,,,,
,,,,,,,,2023-08-16_08h44.30.840,HF_wild_card,2022.2.4,Win32,59.97720866,5641c95d17bdbe00102a0b51,64d2fd46c836a06233681665,64dc7e4ec85895763d4e5777,,,,,,,decisionTrl,resources/DY.BMP,resources/DP.BMP,Door1,-0.285535745,-0.049828179,1,0,0,1.5806,optionLeft,30,125,1,1,0,1,0,1,,,,,,,,,,,,,,,,,,,,,,,,,,,,,,,,,,,,,,,
,,,,,,,,2023-08-16_08h44.30.840,HF_wild_card,2022.2.4,Win32,59.97720866,5641c95d17bdbe00102a0b51,64d2fd46c836a06233681665,64dc7e4ec85895763d4e5777,,,,,,,ctch,resources/DR.BMP,resources/DBN.BMP,Door2,-0.375507648,-0.034832931,1,0,0,0.8992,optionLeft,20,145,1,2,0,2,0,1,,,,,,,,,,,,,,,,,,,,,,,,,,,,,,,,,,,,,,,
,,,,,,,,2023-08-16_08h44.30.840,HF_wild_card,2022.2.4,Win32,59.97720866,5641c95d17bdbe00102a0b51,64d2fd46c836a06233681665,64dc7e4ec85895763d4e5777,,,,,,,ctch,resources/DY.BMP,resources/DB.BMP,Door4,0.46006455,-0.006508389,1,0,0,0.7981,optionRight,60,205,1,3,0,3,0,1,,,,,,,,,,,,,,,,,,,,,,,,,,,,,,,,,,,,,,,
,,,,,,,,2023-08-16_08h44.30.840,HF_wild_card,2022.2.4,Win32,59.97720866,5641c95d17bdbe00102a0b51,64d2fd46c836a06233681665,64dc7e4ec85895763d4e5777,,,,,,,decisionTrl,resources/DBN.BMP,resources/DB.BMP,Door3,-0.450484198,0.004321541,1,0,0,0.4978,optionLeft,70,275,1,4,0,4,0,1,,,,,,,,,,,,,,,,,,,,,,,,,,,,,,,,,,,,,,,
,,,,,,,,2023-08-16_08h44.30.840,HF_wild_card,2022.2.4,Win32,59.97720866,5641c95d17bdbe00102a0b51,64d2fd46c836a06233681665,64dc7e4ec85895763d4e5777,,,,,,,decisionTrl,resources/DB.BMP,resources/DBN.BMP,Door3,0.354264337,0.033479112,1,0,0,0.6476,optionRight,70,345,1,5,0,5,0,1,,,,,,,,,,,,,,,,,,,,,,,,,,,,,,,,,,,,,,,
,,,,,,,,2023-08-16_08h44.30.840,HF_wild_card,2022.2.4,Win32,59.97720866,5641c95d17bdbe00102a0b51,64d2fd46c836a06233681665,64dc7e4ec85895763d4e5777,,,,,,,decisionTrl,resources/DP.BMP,resources/DBN.BMP,WildCard_Ex,-0.338019372,-0.031500573,1,0,0,0.6474,optionLeft,95,440,1,6,0,6,0,1,,,,,,,,,,,,,,,,,,,,,,,,,,,,,,,,,,,,,,,
,,,,,,,,2023-08-16_08h44.30.840,HF_wild_card,2022.2.4,Win32,59.97720866,5641c95d17bdbe00102a0b51,64d2fd46c836a06233681665,64dc7e4ec85895763d4e5777,,,,,,,decisionTrl,resources/DBN.BMP,resources/DP.BMP,WildCard_Ex,0.367593492,-0.032333671,1,0,0,1.0476,optionRight,5,445,1,7,0,7,0,1,,,,,,,,,,,,,,,,,,,,,,,,,,,,,,,,,,,,,,,
,,,,,,,,2023-08-16_08h44.30.840,HF_wild_card,2022.2.4,Win32,59.97720866,5641c95d17bdbe00102a0b51,64d2fd46c836a06233681665,64dc7e4ec85895763d4e5777,,,,,,,ctch,resources/DB.BMP,resources/DY.BMP,Door4,-0.455482649,0.000156188,1,0,0,0.6155,optionLeft,60,505,1,8,0,8,0,1,,,,,,,,,,,,,,,,,,,,,,,,,,,,,,,,,,,,,,,
,,,,,,,,2023-08-16_08h44.30.840,HF_wild_card,2022.2.4,Win32,59.97720866,5641c95d17bdbe00102a0b51,64d2fd46c836a06233681665,64dc7e4ec85895763d4e5777,,,,,,,sngl,resources/Empty.png,resources/DY.BMP,Door1,0.447568494,0.011819217,1,0,0,0.6484,optionRight,30,535,1,9,0,9,0,1,,,,,,,,,,,,,,,,,,,,,,,,,,,,,,,,,,,,,,,
,,,,,,,,2023-08-16_08h44.30.840,HF_wild_card,2022.2.4,Win32,59.97720866,5641c95d17bdbe00102a0b51,64d2fd46c836a06233681665,64dc7e4ec85895763d4e5777,,,,,,,decisionTrl,resources/DR.BMP,resources/DP.BMP,Door2,-0.318858668,0.044309007,1,0,0,0.6322,optionLeft,40,575,1,10,0,10,0,1,,,,,,,,,,,,,,,,,,,,,,,,,,,,,,,,,,,,,,,
,,,,,,,,2023-08-16_08h44.30.840,HF_wild_card,2022.2.4,Win32,59.97720866,5641c95d17bdbe00102a0b51,64d2fd46c836a06233681665,64dc7e4ec85895763d4e5777,,,,,,,ctch,resources/DBN.BMP,resources/DR.BMP,Door3,-0.310527893,0.006820766,1,0,0,0.699,optionLeft,70,645,1,11,0,11,0,1,,,,,,,,,,,,,,,,,,,,,,,,,,,,,,,,,,,,,,,
,,,,,,,,2023-08-16_08h44.30.840,HF_wild_card,2022.2.4,Win32,59.97720866,5641c95d17bdbe00102a0b51,64d2fd46c836a06233681665,64dc7e4ec85895763d4e5777,,,,,,,decisionTrl,resources/DR.BMP,resources/DY.BMP,Door1,0.347599759,0.016817598,1,0,0,0.8143,optionRight,30,675,1,12,0,12,0,1,,,,,,,,,,,,,,,,,,,,,,,,,,,,,,,,,,,,,,,
,,,,,,,,2023-08-16_08h44.30.840,HF_wild_card,2022.2.4,Win32,59.97720866,5641c95d17bdbe00102a0b51,64d2fd46c836a06233681665,64dc7e4ec85895763d4e5777,,,,,,,decisionTrl,resources/DY.BMP,resources/DR.BMP,Door2,0.289284618,0.023482245,1,0,0,0.7654,optionRight,40,715,1,13,0,13,0,1,,,,,,,,,,,,,,,,,,,,,,,,,,,,,,,,,,,,,,,
,,,,,,,,2023-08-16_08h44.30.840,HF_wild_card,2022.2.4,Win32,59.97720866,5641c95d17bdbe00102a0b51,64d2fd46c836a06233681665,64dc7e4ec85895763d4e5777,,,,,,,decisionTrl,resources/DY.BMP,resources/DR.BMP,Door1,-0.373008422,-0.019837614,1,0,0,0.8154,optionLeft,30,745,1,14,0,14,0,1,,,,,,,,,,,,,,,,,,,,,,,,,,,,,,,,,,,,,,,
,,,,,,,,2023-08-16_08h44.30.840,HF_wild_card,2022.2.4,Win32,59.97720866,5641c95d17bdbe00102a0b51,64d2fd46c836a06233681665,64dc7e4ec85895763d4e5777,,,,,,,sngl,resources/DP.BMP,resources/Empty.png,WildCard_Ex,-0.393835253,-0.03816522,1,0,0,0.5979,optionLeft,5,750,1,15,0,15,0,1,,,,,,,,,,,,,,,,,,,,,,,,,,,,,,,,,,,,,,,
,,,,,,,,2023-08-16_08h44.30.840,HF_wild_card,2022.2.4,Win32,59.97720866,5641c95d17bdbe00102a0b51,64d2fd46c836a06233681665,64dc7e4ec85895763d4e5777,,,,,,,decisionTrl,resources/DB.BMP,resources/DBN.BMP,Door3,0.382588914,0.029313759,1,0,0,0.5978,optionRight,70,820,1,16,0,16,0,1,,,,,,,,,,,,,,,,,,,,,,,,,,,,,,,,,,,,,,,
,,,,,,,,2023-08-16_08h44.30.840,HF_wild_card,2022.2.4,Win32,59.97720866,5641c95d17bdbe00102a0b51,64d2fd46c836a06233681665,64dc7e4ec85895763d4e5777,,,,,,,decisionTrl,resources/DB.BMP,resources/DP.BMP,WildCard_Ex,0.435072577,0.018483794,1,0,0,0.7657,optionRight,5,825,1,17,0,17,0,1,,,,,,,,,,,,,,,,,,,,,,,,,,,,,,,,,,,,,,,
,,,,,,,,2023-08-16_08h44.30.840,HF_wild_card,2022.2.4,Win32,59.97720866,5641c95d17bdbe00102a0b51,64d2fd46c836a06233681665,64dc7e4ec85895763d4e5777,,,,,,,decisionTrl,resources/DY.BMP,resources/DR.BMP,Door2,0.336769899,0.000989252,1,0,0,1.165,optionRight,40,865,1,18,0,18,0,1,,,,,,,,,,,,,,,,,,,,,,,,,,,,,,,,,,,,,,,
,,,,,,,,2023-08-16_08h44.30.840,HF_wild_card,2022.2.4,Win32,59.97720866,5641c95d17bdbe00102a0b51,64d2fd46c836a06233681665,64dc7e4ec85895763d4e5777,,,,,,,ctch,resources/DR.BMP,resources/DBN.BMP,Door3,0.453400183,0.058471295,1,0,0,0.6137,optionRight,70,935,1,19,0,19,0,1,,,,,,,,,,,,,,,,,,,,,,,,,,,,,,,,,,,,,,,
,,,,,,,,2023-08-16_08h44.30.840,HF_wild_card,2022.2.4,Win32,59.97720866,5641c95d17bdbe00102a0b51,64d2fd46c836a06233681665,64dc7e4ec85895763d4e5777,,,,,,,sngl,resources/Empty.png,resources/DP.BMP,WildCard_Ex,0.305946097,0.033479112,1,0,0,0.5981,optionRight,95,1030,1,20,0,20,0,1,,,,,,,,,,,,,,,,,,,,,,,,,,,,,,,,,,,,,,,
,,,,,,,,2023-08-16_08h44.30.840,HF_wild_card,2022.2.4,Win32,59.97720866,5641c95d17bdbe00102a0b51,64d2fd46c836a06233681665,64dc7e4ec85895763d4e5777,,,,,,,ctch,resources/DB.BMP,resources/DY.BMP,Door4,-0.349682365,-0.029001417,1,0,0,0.6817,optionLeft,80,1110,1,21,0,21,0,1,,,,,,,,,,,,,,,,,,,,,,,,,,,,,,,,,,,,,,,
,,,,,,,,2023-08-16_08h44.30.840,HF_wild_card,2022.2.4,Win32,59.97720866,5641c95d17bdbe00102a0b51,64d2fd46c836a06233681665,64dc7e4ec85895763d4e5777,,,,,,,decisionTrl,resources/DY.BMP,resources/DR.BMP,Door2,0.340935252,0.02098302,1,0,0,0.5646,optionRight,40,1150,1,22,0,22,0,1,,,,,,,,,,,,,,,,,,,,,,,,,,,,,,,,,,,,,,,
,,,,,,,,2023-08-16_08h44.30.840,HF_wild_card,2022.2.4,Win32,59.97720866,5641c95d17bdbe00102a0b51,64d2fd46c836a06233681665,64dc7e4ec85895763d4e5777,,,,,,,decisionTrl,resources/DBN.BMP,resources/DB.BMP,Door3,-0.246381272,-0.024002932,1,0,0,0.9978,optionLeft,70,1220,1,23,0,23,0,1,,,,,,,,,,,,,,,,,,,,,,,,,,,,,,,,,,,,,,,
,,,,,,,,2023-08-16_08h44.30.840,HF_wild_card,2022.2.4,Win32,59.97720866,5641c95d17bdbe00102a0b51,64d2fd46c836a06233681665,64dc7e4ec85895763d4e5777,,,,,,,decisionTrl,resources/DBN.BMP,resources/DB.BMP,Door3,-0.231385955,-0.033166735,1,0,0,0.9815,optionLeft,70,1290,1,24,0,24,0,1,,,,,,,,,,,,,,,,,,,,,,,,,,,,,,,,,,,,,,,
,,,,,,,,2023-08-16_08h44.30.840,HF_wild_card,2022.2.4,Win32,59.97720866,5641c95d17bdbe00102a0b51,64d2fd46c836a06233681665,64dc7e4ec85895763d4e5777,,,,,,,sngl,resources/DBN.BMP,resources/Empty.png,Door3,-0.445485783,0.000989252,1,0,0,0.5978,optionLeft,70,1360,1,25,0,25,0,1,,,,,,,,,,,,,,,,,,,,,,,,,,,,,,,,,,,,,,,
,,,,,,,,2023-08-16_08h44.30.840,HF_wild_card,2022.2.4,Win32,59.97720866,5641c95d17bdbe00102a0b51,64d2fd46c836a06233681665,64dc7e4ec85895763d4e5777,,,,,,,decisionTrl,resources/DBN.BMP,resources/DB.BMP,Door4,0.301780744,-0.000676875,1,0,0,0.9987,optionRight,80,1440,1,26,0,26,0,1,,,,,,,,,,,,,,,,,,,,,,,,,,,,,,,,,,,,,,,
,,,,,,,,2023-08-16_08h44.30.840,HF_wild_card,2022.2.4,Win32,59.97720866,5641c95d17bdbe00102a0b51,64d2fd46c836a06233681665,64dc7e4ec85895763d4e5777,,,,,,,decisionTrl,resources/DR.BMP,resources/DY.BMP,Door2,-0.369676133,0.021816083,1,0,0,0.9961,optionLeft,40,1480,1,27,0,27,0,1,,,,,,,,,,,,,,,,,,,,,,,,,,,,,,,,,,,,,,,
,,,,,,,,2023-08-16_08h44.30.840,HF_wild_card,2022.2.4,Win32,59.97720866,5641c95d17bdbe00102a0b51,64d2fd46c836a06233681665,64dc7e4ec85895763d4e5777,,,,,,,decisionTrl,resources/DR.BMP,resources/DY.BMP,Door1,0.357596731,0.007653795,1,0,0,0.5465,optionRight,30,1510,1,28,0,28,0,1,,,,,,,,,,,,,,,,,,,,,,,,,,,,,,,,,,,,,,,
,,,,,,,,2023-08-16_08h44.30.840,HF_wild_card,2022.2.4,Win32,59.97720866,5641c95d17bdbe00102a0b51,64d2fd46c836a06233681665,64dc7e4ec85895763d4e5777,,,,,,,ctch,resources/DBN.BMP,resources/DR.BMP,Door3,-0.295532646,0.002655414,1,0,0,0.5985,optionLeft,70,1580,1,29,0,29,0,1,,,,,,,,,,,,,,,,,,,,,,,,,,,,,,,,,,,,,,,
,,,,,,,,2023-08-16_08h44.30.840,HF_wild_card,2022.2.4,Win32,59.97720866,5641c95d17bdbe00102a0b51,64d2fd46c836a06233681665,64dc7e4ec85895763d4e5777,,,,,,,decisionTrl,resources/DB.BMP,resources/DBN.BMP,Door3,0.43340624,0.01265228,1,0,0,0.6993,optionRight,70,1650,1,30,0,30,0,1,,,,,,,,,,,,,,,,,,,,,,,,,,,,,,,,,,,,,,,
,,,,,,,,2023-08-16_08h44.30.840,HF_wild_card,2022.2.4,Win32,59.97720866,5641c95d17bdbe00102a0b51,64d2fd46c836a06233681665,64dc7e4ec85895763d4e5777,,,,,,,decisionTrl,resources/DB.BMP,resources/DBN.BMP,Door3,0.35259828,-0.018171417,1,0,0,0.7819,optionRight,70,1720,1,31,0,31,0,1,,,,,,,,,,,,,,,,,,,,,,,,,,,,,,,,,,,,,,,
,,,,,,,,2023-08-16_08h44.30.840,HF_wild_card,2022.2.4,Win32,59.97720866,5641c95d17bdbe00102a0b51,64d2fd46c836a06233681665,64dc7e4ec85895763d4e5777,,,,,,,sngl,resources/Empty.png,resources/DBN.BMP,Door3,0.28262025,0.029313759,1,0,0,0.565,optionRight,70,1790,1,32,0,32,0,1,,,,,,,,,,,,,,,,,,,,,,,,,,,,,,,,,,,,,,,
,,,,,,,,2023-08-16_08h44.30.840,HF_wild_card,2022.2.4,Win32,59.97720866,5641c95d17bdbe00102a0b51,64d2fd46c836a06233681665,64dc7e4ec85895763d4e5777,,,,,,,sngl,resources/Empty.png,resources/DR.BMP,Door2,0.544204974,-0.009840678,1,0,0,0.8132,optionRight,20,1810,1,33,0,33,0,1,,,,,,,,,,,,,,,,,,,,,,,,,,,,,,,,,,,,,,,
,,,,,,,,2023-08-16_08h44.30.840,HF_wild_card,2022.2.4,Win32,59.97720866,5641c95d17bdbe00102a0b51,64d2fd46c836a06233681665,64dc7e4ec85895763d4e5777,,,,,,,sngl,resources/Empty.png,resources/DB.BMP,Door4,0.342601309,0.005987703,1,0,0,0.5481,optionRight,60,1870,1,34,0,34,0,1,,,,,,,,,,,,,,,,,,,,,,,,,,,,,,,,,,,,,,,
,,,,,,,,2023-08-16_08h44.30.840,HF_wild_card,2022.2.4,Win32,59.97720866,5641c95d17bdbe00102a0b51,64d2fd46c836a06233681665,64dc7e4ec85895763d4e5777,,,,,,,sngl,resources/DB.BMP,resources/Empty.png,Door4,-0.212225321,0.002655414,1,0,0,0.6651,optionLeft,80,1950,1,35,0,35,0,1,,,,,,,,,,,,,,,,,,,,,,,,,,,,,,,,,,,,,,,
,,,,,,,,2023-08-16_08h44.30.840,HF_wild_card,2022.2.4,Win32,59.97720866,5641c95d17bdbe00102a0b51,64d2fd46c836a06233681665,64dc7e4ec85895763d4e5777,,,,,,,decisionTrl,resources/DP.BMP,resources/DY.BMP,WildCard_Ex,-0.348016239,-0.021503706,1,0,0,0.6986,optionLeft,95,2045,1,36,0,36,0,1,,,,,,,,,,,,,,,,,,,,,,,,,,,,,,,,,,,,,,,
,,,,,,,,2023-08-16_08h44.30.840,HF_wild_card,2022.2.4,Win32,59.97720866,5641c95d17bdbe00102a0b51,64d2fd46c836a06233681665,64dc7e4ec85895763d4e5777,,,,,,,sngl,resources/DP.BMP,resources/Empty.png,WildCard_Ex,-0.203894616,-0.016505326,1,0,0,0.6814,optionLeft,95,2140,1,37,0,37,0,1,,,,,,,,,,,,,,,,,,,,,,,,,,,,,,,,,,,,,,,
,,,,,,,,2023-08-16_08h44.30.840,HF_wild_card,2022.2.4,Win32,59.97720866,5641c95d17bdbe00102a0b51,64d2fd46c836a06233681665,64dc7e4ec85895763d4e5777,,,,,,,decisionTrl,resources/DP.BMP,resources/DR.BMP,WildCard_Ex,-0.173070814,0.000156188,1,0,0,0.5979,optionLeft,95,2235,1,38,0,38,0,1,,,,,,,,,,,,,,,,,,,,,,,,,,,,,,,,,,,,,,,
,,,,,,,,2023-08-16_08h44.30.840,HF_wild_card,2022.2.4,Win32,59.97720866,5641c95d17bdbe00102a0b51,64d2fd46c836a06233681665,64dc7e4ec85895763d4e5777,,,,,,,sngl,resources/DY.BMP,resources/Empty.png,Door1,-0.248880533,-0.009840678,1,0,0,0.6651,optionLeft,30,2265,1,39,0,39,0,1,,,,,,,,,,,,,,,,,,,,,,,,,,,,,,,,,,,,,,,
,,,,,,,,2023-08-16_08h44.30.840,HF_wild_card,2022.2.4,Win32,59.97720866,5641c95d17bdbe00102a0b51,64d2fd46c836a06233681665,64dc7e4ec85895763d4e5777,,,,,,,sngl,resources/Empty.png,resources/DP.BMP,WildCard_Ex,0.360095816,-0.014839129,1,0,0,0.6315,optionRight,5,2270,1,40,0,40,0,1,,,,,,,,,,,,,,,,,,,,,,,,,,,,,,,,,,,,,,,
,,,,,,,,2023-08-16_08h44.30.840,HF_wild_card,2022.2.4,Win32,59.97720866,5641c95d17bdbe00102a0b51,64d2fd46c836a06233681665,64dc7e4ec85895763d4e5777,,,,,,,sngl,resources/DR.BMP,resources/Empty.png,Door2,-0.254712047,-0.005675326,1,0,0,0.6157,optionLeft,40,2310,1,41,0,41,0,1,,,,,,,,,,,,,,,,,,,,,,,,,,,,,,,,,,,,,,,
,,,,,,,,2023-08-16_08h44.30.840,HF_wild_card,2022.2.4,Win32,59.97720866,5641c95d17bdbe00102a0b51,64d2fd46c836a06233681665,64dc7e4ec85895763d4e5777,,,,,,,decisionTrl,resources/DR.BMP,resources/DY.BMP,Door2,-0.249713631,-0.019837614,1,0,0,0.9318,optionLeft,40,2350,1,42,0,42,0,1,,,,,,,,,,,,,,,,,,,,,,,,,,,,,,,,,,,,,,,
,,,,,,,,2023-08-16_08h44.30.840,HF_wild_card,2022.2.4,Win32,59.97720866,5641c95d17bdbe00102a0b51,64d2fd46c836a06233681665,64dc7e4ec85895763d4e5777,,,,,,,ctch,resources/DY.BMP,resources/DB.BMP,Door1,-0.264708878,0.00182228,1,0,0,0.5817,optionLeft,30,2380,1,43,0,43,0,1,,,,,,,,,,,,,,,,,,,,,,,,,,,,,,,,,,,,,,,
,,,,,,,,2023-08-16_08h44.30.840,HF_wild_card,2022.2.4,Win32,59.97720866,5641c95d17bdbe00102a0b51,64d2fd46c836a06233681665,64dc7e4ec85895763d4e5777,,,,,,,,,,,,,,,,,,,,,,,,,,0,0,0,0,1,,,,,,,,,,,,,,,,,,,,,,,,,,,,,,,,,,
,,,,,,,,2023-08-16_08h44.30.840,HF_wild_card,2022.2.4,Win32,59.97720866,5641c95d17bdbe00102a0b51,64d2fd46c836a06233681665,64dc7e4ec85895763d4e5777,,,,,,,ctch,resources/DR.BMP,resources/DBN.BMP,Door3,0.544204974,-0.0031761,1,0,0,0.892,optionRight,70,2450,2,0,0,0,0,1,,,,,,,,,,,,,,,,,,,,,,,,,,,,,,,,,,,,,,,
,,,,,,,,2023-08-16_08h44.30.840,HF_wild_card,2022.2.4,Win32,59.97720866,5641c95d17bdbe00102a0b51,64d2fd46c836a06233681665,64dc7e4ec85895763d4e5777,,,,,,,decisionTrl,resources/DR.BMP,resources/DY.BMP,Door2,-0.224721378,0.005987703,1,0,0,0.5656,optionLeft,20,2470,2,1,0,1,0,1,,,,,,,,,,,,,,,,,,,,,,,,,,,,,,,,,,,,,,,
,,,,,,,,2023-08-16_08h44.30.840,HF_wild_card,2022.2.4,Win32,59.97720866,5641c95d17bdbe00102a0b51,64d2fd46c836a06233681665,64dc7e4ec85895763d4e5777,,,,,,,decisionTrl,resources/DBN.BMP,resources/DB.BMP,Door3,-0.314693315,0.013485344,1,0,0,0.8149,optionLeft,70,2540,2,2,0,2,0,1,,,,,,,,,,,,,,,,,,,,,,,,,,,,,,,,,,,,,,,
,,,,,,,,2023-08-16_08h44.30.840,HF_wild_card,2022.2.4,Win32,59.97720866,5641c95d17bdbe00102a0b51,64d2fd46c836a06233681665,64dc7e4ec85895763d4e5777,,,,,,,sngl,resources/DR.BMP,resources/Empty.png,Door2,-0.450484198,0.004321541,1,0,0,0.5153,optionLeft,20,2560,2,3,0,3,0,1,,,,,,,,,,,,,,,,,,,,,,,,,,,,,,,,,,,,,,,
,,,,,,,,2023-08-16_08h44.30.840,HF_wild_card,2022.2.4,Win32,59.97720866,5641c95d17bdbe00102a0b51,64d2fd46c836a06233681665,64dc7e4ec85895763d4e5777,,,,,,,decisionTrl,resources/DR.BMP,resources/DY.BMP,Door2,-0.26137659,0.00182228,1,0,0,1.3323,optionLeft,20,2580,2,4,0,4,0,1,,,,,,,,,,,,,,,,,,,,,,,,,,,,,,,,,,,,,,,
,,,,,,,,2023-08-16_08h44.30.840,HF_wild_card,2022.2.4,Win32,59.97720866,5641c95d17bdbe00102a0b51,64d2fd46c836a06233681665,64dc7e4ec85895763d4e5777,,,,,,,decisionTrl,resources/DB.BMP,resources/DBN.BMP,Door3,0.417577929,-0.004842262,1,0,0,0.5982,optionRight,70,2650,2,5,0,5,0,1,,,,,,,,,,,,,,,,,,,,,,,,,,,,,,,,,,,,,,,
,,,,,,,,2023-08-16_08h44.30.840,HF_wild_card,2022.2.4,Win32,59.97720866,5641c95d17bdbe00102a0b51,64d2fd46c836a06233681665,64dc7e4ec85895763d4e5777,,,,,,,sngl,resources/Empty.png,resources/DR.BMP,Door2,0.24513173,-0.000676875,1,0,0,0.6506,optionRight,40,2690,2,6,0,6,0,1,,,,,,,,,,,,,,,,,,,,,,,,,,,,,,,,,,,,,,,
,,,,,,,,2023-08-16_08h44.30.840,HF_wild_card,2022.2.4,Win32,59.97720866,5641c95d17bdbe00102a0b51,64d2fd46c836a06233681665,64dc7e4ec85895763d4e5777,,,,,,,decisionTrl,resources/DY.BMP,resources/DR.BMP,Door1,-0.208059969,-0.014006065,1,0,0,0.7484,optionLeft,30,2720,2,7,0,7,0,1,,,,,,,,,,,,,,,,,,,,,,,,,,,,,,,,,,,,,,,
,,,,,,,,2023-08-16_08h44.30.840,HF_wild_card,2022.2.4,Win32,59.97720866,5641c95d17bdbe00102a0b51,64d2fd46c836a06233681665,64dc7e4ec85895763d4e5777,,,,,,,ctch,resources/DBN.BMP,resources/DR.BMP,Door3,-0.233885181,-0.000676875,1,0,0,0.9823,optionLeft,70,2790,2,8,0,8,0,1,,,,,,,,,,,,,,,,,,,,,,,,,,,,,,,,,,,,,,,
,,,,,,,,2023-08-16_08h44.30.840,HF_wild_card,2022.2.4,Win32,59.97720866,5641c95d17bdbe00102a0b51,64d2fd46c836a06233681665,64dc7e4ec85895763d4e5777,,,,,,,sngl,resources/Empty.png,resources/DP.BMP,WildCard_Ex,0.297615462,0.004321541,1,0,0,0.6631,optionRight,5,2795,2,9,0,9,0,1,,,,,,,,,,,,,,,,,,,,,,,,,,,,,,,,,,,,,,,
,,,,,,,,2023-08-16_08h44.30.840,HF_wild_card,2022.2.4,Win32,59.97720866,5641c95d17bdbe00102a0b51,64d2fd46c836a06233681665,64dc7e4ec85895763d4e5777,,,,,,,sngl,resources/Empty.png,resources/DB.BMP,Door4,0.225137997,0.007653795,1,0,0,0.6297,optionRight,80,2875,2,10,0,10,0,1,,,,,,,,,,,,,,,,,,,,,,,,,,,,,,,,,,,,,,,
,,,,,,,,2023-08-16_08h44.30.840,HF_wild_card,2022.2.4,Win32,59.97720866,5641c95d17bdbe00102a0b51,64d2fd46c836a06233681665,64dc7e4ec85895763d4e5777,,,,,,,decisionTrl,resources/DBN.BMP,resources/DB.BMP,Door3,-0.304696449,-0.010673811,1,0,0,0.6147,optionLeft,70,2945,2,11,0,11,0,1,,,,,,,,,,,,,,,,,,,,,,,,,,,,,,,,,,,,,,,
,,,,,,,,2023-08-16_08h44.30.840,HF_wild_card,2022.2.4,Win32,59.97720866,5641c95d17bdbe00102a0b51,64d2fd46c836a06233681665,64dc7e4ec85895763d4e5777,,,,,,,decisionTrl,resources/DBN.BMP,resources/DB.BMP,Door3,-0.186400039,-0.002343037,1,0,0,0.5503,optionLeft,70,3015,2,12,0,12,0,1,,,,,,,,,,,,,,,,,,,,,,,,,,,,,,,,,,,,,,,
,,,,,,,,2023-08-16_08h44.30.840,HF_wild_card,2022.2.4,Win32,59.97720866,5641c95d17bdbe00102a0b51,64d2fd46c836a06233681665,64dc7e4ec85895763d4e5777,,,,,,,sngl,resources/DY.BMP,resources/Empty.png,Door1,-0.232219089,0.011819217,1,0,0,0.5818,optionLeft,30,3045,2,13,0,13,0,1,,,,,,,,,,,,,,,,,,,,,,,,,,,,,,,,,,,,,,,
,,,,,,,,2023-08-16_08h44.30.840,HF_wild_card,2022.2.4,Win32,59.97720866,5641c95d17bdbe00102a0b51,64d2fd46c836a06233681665,64dc7e4ec85895763d4e5777,,,,,,,sngl,resources/DBN.BMP,resources/Empty.png,Door3,-0.288867999,0.005154639,1,0,0,0.4991,optionLeft,70,3115,2,14,0,14,0,1,,,,,,,,,,,,,,,,,,,,,,,,,,,,,,,,,,,,,,,
,,,,,,,,2023-08-16_08h44.30.840,HF_wild_card,2022.2.4,Win32,59.97720866,5641c95d17bdbe00102a0b51,64d2fd46c836a06233681665,64dc7e4ec85895763d4e5777,,,,,,,decisionTrl,resources/DP.BMP,resources/DBN.BMP,Door3,0.27179011,0.034312175,1,0,0,0.6325,optionRight,70,3185,2,15,0,15,0,1,,,,,,,,,,,,,,,,,,,,,,,,,,,,,,,,,,,,,,,
,,,,,,,,2023-08-16_08h44.30.840,HF_wild_card,2022.2.4,Win32,59.97720866,5641c95d17bdbe00102a0b51,64d2fd46c836a06233681665,64dc7e4ec85895763d4e5777,,,,,,,decisionTrl,resources/DR.BMP,resources/DY.BMP,Door1,0.344267435,-0.015672192,1,0,0,0.9822,optionRight,30,3215,2,16,0,16,0,1,,,,,,,,,,,,,,,,,,,,,,,,,,,,,,,,,,,,,,,
,,,,,,,,2023-08-16_08h44.30.840,HF_wild_card,2022.2.4,Win32,59.97720866,5641c95d17bdbe00102a0b51,64d2fd46c836a06233681665,64dc7e4ec85895763d4e5777,,,,,,,decisionTrl,resources/DR.BMP,resources/DP.BMP,Door2,-0.202228419,-0.037332087,1,0,0,0.8156,optionLeft,40,3255,2,17,0,17,0,1,,,,,,,,,,,,,,,,,,,,,,,,,,,,,,,,,,,,,,,
,,,,,,,,2023-08-16_08h44.30.840,HF_wild_card,2022.2.4,Win32,59.97720866,5641c95d17bdbe00102a0b51,64d2fd46c836a06233681665,64dc7e4ec85895763d4e5777,,,,,,,decisionTrl,resources/DY.BMP,resources/DR.BMP,Door2,0.367593492,0.003488477,1,0,0,1.0148,optionRight,20,3275,2,18,0,18,0,1,,,,,,,,,,,,,,,,,,,,,,,,,,,,,,,,,,,,,,,
,,,,,,,,2023-08-16_08h44.30.840,HF_wild_card,2022.2.4,Win32,59.97720866,5641c95d17bdbe00102a0b51,64d2fd46c836a06233681665,64dc7e4ec85895763d4e5777,,,,,,,decisionTrl,resources/DB.BMP,resources/DP.BMP,WildCard_Ex,0.285119265,-0.02733522,1,0,0,0.7806,optionRight,95,3370,2,19,0,19,0,1,,,,,,,,,,,,,,,,,,,,,,,,,,,,,,,,,,,,,,,
,,,,,,,,2023-08-16_08h44.30.840,HF_wild_card,2022.2.4,Win32,59.97720866,5641c95d17bdbe00102a0b51,64d2fd46c836a06233681665,64dc7e4ec85895763d4e5777,,,,,,,sngl,resources/Empty.png,resources/DY.BMP,Door1,0.323440604,0.023482245,1,0,0,0.6652,optionRight,30,3400,2,20,0,20,0,1,,,,,,,,,,,,,,,,,,,,,,,,,,,,,,,,,,,,,,,
,,,,,,,,2023-08-16_08h44.30.840,HF_wild_card,2022.2.4,Win32,59.97720866,5641c95d17bdbe00102a0b51,64d2fd46c836a06233681665,64dc7e4ec85895763d4e5777,,,,,,,ctch,resources/DY.BMP,resources/DB.BMP,Door4,0.425908774,0.009319991,1,0,0,1.1472,optionRight,80,3480,2,21,0,21,0,1,,,,,,,,,,,,,,,,,,,,,,,,,,,,,,,,,,,,,,,
,,,,,,,,2023-08-16_08h44.30.840,HF_wild_card,2022.2.4,Win32,59.97720866,5641c95d17bdbe00102a0b51,64d2fd46c836a06233681665,64dc7e4ec85895763d4e5777,,,,,,,ctch,resources/DR.BMP,resources/DBN.BMP,Door3,0.218473419,0.035978337,1,0,0,0.5317,optionRight,70,3550,2,22,0,22,0,1,,,,,,,,,,,,,,,,,,,,,,,,,,,,,,,,,,,,,,,
,,,,,,,,2023-08-16_08h44.30.840,HF_wild_card,2022.2.4,Win32,59.97720866,5641c95d17bdbe00102a0b51,64d2fd46c836a06233681665,64dc7e4ec85895763d4e5777,,,,,,,ctch,resources/DBN.BMP,resources/DR.BMP,Door3,-0.403832085,0.015984569,1,0,0,0.7645,optionLeft,70,3620,2,23,0,23,0,1,,,,,,,,,,,,,,,,,,,,,,,,,,,,,,,,,,,,,,,
,,,,,,,,2023-08-16_08h44.30.840,HF_wild_card,2022.2.4,Win32,59.97720866,5641c95d17bdbe00102a0b51,64d2fd46c836a06233681665,64dc7e4ec85895763d4e5777,,,,,,,ctch,resources/DB.BMP,resources/DY.BMP,Door4,-0.243048984,-0.016505326,1,0,0,0.7481,optionLeft,60,3680,2,24,0,24,0,1,,,,,,,,,,,,,,,,,,,,,,,,,,,,,,,,,,,,,,,
,,,,,,,,2023-08-16_08h44.30.840,HF_wild_card,2022.2.4,Win32,59.97720866,5641c95d17bdbe00102a0b51,64d2fd46c836a06233681665,64dc7e4ec85895763d4e5777,,,,,,,decisionTrl,resources/DB.BMP,resources/DBN.BMP,Door3,0.377590324,0.041809851,1,0,0,0.548,optionRight,70,3750,2,25,0,25,0,1,,,,,,,,,,,,,,,,,,,,,,,,,,,,,,,,,,,,,,,
,,,,,,,,2023-08-16_08h44.30.840,HF_wild_card,2022.2.4,Win32,59.97720866,5641c95d17bdbe00102a0b51,64d2fd46c836a06233681665,64dc7e4ec85895763d4e5777,,,,,,,decisionTrl,resources/DY.BMP,resources/DR.BMP,Door2,0.16932222,0.005987703,1,0,0,0.8817,optionRight,20,3770,2,26,0,26,0,1,,,,,,,,,,,,,,,,,,,,,,,,,,,,,,,,,,,,,,,
,,,,,,,,2023-08-16_08h44.30.840,HF_wild_card,2022.2.4,Win32,59.97720866,5641c95d17bdbe00102a0b51,64d2fd46c836a06233681665,64dc7e4ec85895763d4e5777,,,,,,,decisionTrl,resources/DP.BMP,resources/DR.BMP,WildCard_Ex,-0.260543526,0.007653795,1,0,0,0.6311,optionLeft,95,3865,2,27,0,27,0,1,,,,,,,,,,,,,,,,,,,,,,,,,,,,,,,,,,,,,,,
,,,,,,,,2023-08-16_08h44.30.840,HF_wild_card,2022.2.4,Win32,59.97720866,5641c95d17bdbe00102a0b51,64d2fd46c836a06233681665,64dc7e4ec85895763d4e5777,,,,,,,decisionTrl,resources/DR.BMP,resources/DY.BMP,Door2,-0.212225321,-0.008174551,1,0,0,0.7145,optionLeft,20,3885,2,28,0,28,0,1,,,,,,,,,,,,,,,,,,,,,,,,,,,,,,,,,,,,,,,
,,,,,,,,2023-08-16_08h44.30.840,HF_wild_card,2022.2.4,Win32,59.97720866,5641c95d17bdbe00102a0b51,64d2fd46c836a06233681665,64dc7e4ec85895763d4e5777,,,,,,,decisionTrl,resources/DY.BMP,resources/DR.BMP,Door2,0.266791659,0.014318442,1,0,0,0.7645,optionRight,20,3905,2,29,0,29,0,1,,,,,,,,,,,,,,,,,,,,,,,,,,,,,,,,,,,,,,,
,,,,,,,,2023-08-16_08h44.30.840,HF_wild_card,2022.2.4,Win32,59.97720866,5641c95d17bdbe00102a0b51,64d2fd46c836a06233681665,64dc7e4ec85895763d4e5777,,,,,,,ctch,resources/DB.BMP,resources/DY.BMP,Door4,-0.170571658,-0.006508389,1,0,0,0.6152,optionLeft,80,3985,2,30,0,30,0,1,,,,,,,,,,,,,,,,,,,,,,,,,,,,,,,,,,,,,,,
,,,,,,,,2023-08-16_08h44.30.840,HF_wild_card,2022.2.4,Win32,59.97720866,5641c95d17bdbe00102a0b51,64d2fd46c836a06233681665,64dc7e4ec85895763d4e5777,,,,,,,sngl,resources/DB.BMP,resources/Empty.png,Door4,-0.210559054,-0.024835995,1,0,0,0.5635,optionLeft,60,4045,2,31,0,31,0,1,,,,,,,,,,,,,,,,,,,,,,,,,,,,,,,,,,,,,,,
,,,,,,,,2023-08-16_08h44.30.840,HF_wild_card,2022.2.4,Win32,59.97720866,5641c95d17bdbe00102a0b51,64d2fd46c836a06233681665,64dc7e4ec85895763d4e5777,,,,,,,decisionTrl,resources/DBN.BMP,resources/DP.BMP,Door3,-0.262209723,-0.021503706,1,0,0,0.8642,optionLeft,70,4115,2,32,0,32,0,1,,,,,,,,,,,,,,,,,,,,,,,,,,,,,,,,,,,,,,,
,,,,,,,,2023-08-16_08h44.30.840,HF_wild_card,2022.2.4,Win32,59.97720866,5641c95d17bdbe00102a0b51,64d2fd46c836a06233681665,64dc7e4ec85895763d4e5777,,,,,,,sngl,resources/Empty.png,resources/DBN.BMP,Door3,0.289284618,-0.012339903,1,0,0,0.5125,optionRight,70,4185,2,33,0,33,0,1,,,,,,,,,,,,,,,,,,,,,,,,,,,,,,,,,,,,,,,
,,,,,,,,2023-08-16_08h44.30.840,HF_wild_card,2022.2.4,Win32,59.97720866,5641c95d17bdbe00102a0b51,64d2fd46c836a06233681665,64dc7e4ec85895763d4e5777,,,,,,,decisionTrl,resources/DB.BMP,resources/DBN.BMP,Door3,0.326772928,0.021816083,1,0,0,0.5978,optionRight,70,4255,2,34,0,34,0,1,,,,,,,,,,,,,,,,,,,,,,,,,,,,,,,,,,,,,,,
,,,,,,,,2023-08-16_08h44.30.840,HF_wild_card,2022.2.4,Win32,59.97720866,5641c95d17bdbe00102a0b51,64d2fd46c836a06233681665,64dc7e4ec85895763d4e5777,,,,,,,sngl,resources/DP.BMP,resources/Empty.png,WildCard_Ex,-0.377173774,-0.014839129,1,0,0,0.6335,optionLeft,95,4350,2,35,0,35,0,1,,,,,,,,,,,,,,,,,,,,,,,,,,,,,,,,,,,,,,,
,,,,,,,,2023-08-16_08h44.30.840,HF_wild_card,2022.2.4,Win32,59.97720866,5641c95d17bdbe00102a0b51,64d2fd46c836a06233681665,64dc7e4ec85895763d4e5777,,,,,,,sngl,resources/DP.BMP,resources/Empty.png,WildCard_Ex,-0.190565461,-0.012339903,1,0,0,0.5305,optionLeft,5,4355,2,36,0,36,0,1,,,,,,,,,,,,,,,,,,,,,,,,,,,,,,,,,,,,,,,
,,,,,,,,2023-08-16_08h44.30.840,HF_wild_card,2022.2.4,Win32,59.97720866,5641c95d17bdbe00102a0b51,64d2fd46c836a06233681665,64dc7e4ec85895763d4e5777,,,,,,,decisionTrl,resources/DY.BMP,resources/DP.BMP,WildCard_Ex,0.377590324,0.000156188,1,0,0,0.665,optionRight,95,4450,2,37,0,37,0,1,,,,,,,,,,,,,,,,,,,,,,,,,,,,,,,,,,,,,,,
,,,,,,,,2023-08-16_08h44.30.840,HF_wild_card,2022.2.4,Win32,59.97720866,5641c95d17bdbe00102a0b51,64d2fd46c836a06233681665,64dc7e4ec85895763d4e5777,,,,,,,decisionTrl,resources/DP.BMP,resources/DB.BMP,WildCard_Ex,-0.363844619,0.003488477,1,0,0,0.7666,optionLeft,5,4455,2,38,0,38,0,1,,,,,,,,,,,,,,,,,,,,,,,,,,,,,,,,,,,,,,,
,,,,,,,,2023-08-16_08h44.30.840,HF_wild_card,2022.2.4,Win32,59.97720866,5641c95d17bdbe00102a0b51,64d2fd46c836a06233681665,64dc7e4ec85895763d4e5777,,,,,,,decisionTrl,resources/DB.BMP,resources/DBN.BMP,Door3,0.380922717,0.019316858,1,0,0,0.5485,optionRight,70,4525,2,39,0,39,0,1,,,,,,,,,,,,,,,,,,,,,,,,,,,,,,,,,,,,,,,
,,,,,,,,2023-08-16_08h44.30.840,HF_wild_card,2022.2.4,Win32,59.97720866,5641c95d17bdbe00102a0b51,64d2fd46c836a06233681665,64dc7e4ec85895763d4e5777,,,,,,,sngl,resources/Empty.png,resources/DP.BMP,WildCard_Ex,0.190148912,-0.021503706,1,0,0,0.6327,optionRight,95,4620,2,40,0,40,0,1,,,,,,,,,,,,,,,,,,,,,,,,,,,,,,,,,,,,,,,
,,,,,,,,2023-08-16_08h44.30.840,HF_wild_card,2022.2.4,Win32,59.97720866,5641c95d17bdbe00102a0b51,64d2fd46c836a06233681665,64dc7e4ec85895763d4e5777,,,,,,,decisionTrl,resources/DP.BMP,resources/DY.BMP,WildCard_Ex,-0.241382892,-0.037332087,1,0,0,0.5982,optionLeft,5,4625,2,41,0,41,0,1,,,,,,,,,,,,,,,,,,,,,,,,,,,,,,,,,,,,,,,
,,,,,,,,2023-08-16_08h44.30.840,HF_wild_card,2022.2.4,Win32,59.97720866,5641c95d17bdbe00102a0b51,64d2fd46c836a06233681665,64dc7e4ec85895763d4e5777,,,,,,,ctch,resources/DY.BMP,resources/DB.BMP,Door4,0.221805813,0.018483794,1,0,0,0.8147,optionRight,80,4705,2,42,0,42,0,1,,,,,,,,,,,,,,,,,,,,,,,,,,,,,,,,,,,,,,,
,,,,,,,,2023-08-16_08h44.30.840,HF_wild_card,2022.2.4,Win32,59.97720866,5641c95d17bdbe00102a0b51,64d2fd46c836a06233681665,64dc7e4ec85895763d4e5777,,,,,,,decisionTrl,resources/DBN.BMP,resources/DB.BMP,Door3,-0.328022471,-0.006508389,1,0,0,0.8648,optionLeft,70,4775,2,43,0,43,0,1,,,,,,,,,,,,,,,,,,,,,,,,,,,,,,,,,,,,,,,
,,,,,,,,2023-08-16_08h44.30.840,HF_wild_card,2022.2.4,Win32,59.97720866,5641c95d17bdbe00102a0b51,64d2fd46c836a06233681665,64dc7e4ec85895763d4e5777,,,,,,,,,,,,,,,,,,,,,,,,,,1,0,1,0,1,,,,,,,,,,,,,,,,,,,,,,,,,,,,,,,,,,
,,,,,,,,2023-08-16_08h44.30.840,HF_wild_card,2022.2.4,Win32,59.97720866,5641c95d17bdbe00102a0b51,64d2fd46c836a06233681665,64dc7e4ec85895763d4e5777,,,,,,,decisionTrl,resources/DB.BMP,resources/DBN.BMP,Door3,0.511715394,-0.075653461,1,0,0,0.8253,optionRight,70,4845,3,0,0,0,0,1,,,,,,,,,,,,,,,,,,,,,,,,,,,,,,,,,,,,,,,
,,,,,,,,2023-08-16_08h44.30.840,HF_wild_card,2022.2.4,Win32,59.97720866,5641c95d17bdbe00102a0b51,64d2fd46c836a06233681665,64dc7e4ec85895763d4e5777,,,,,,,sngl,resources/Empty.png,resources/DR.BMP,Door2,0.177652855,0.003488477,1,0,0,0.6815,optionRight,20,4865,3,1,0,1,0,1,,,,,,,,,,,,,,,,,,,,,,,,,,,,,,,,,,,,,,,
,,,,,,,,2023-08-16_08h44.30.840,HF_wild_card,2022.2.4,Win32,59.97720866,5641c95d17bdbe00102a0b51,64d2fd46c836a06233681665,64dc7e4ec85895763d4e5777,,,,,,,decisionTrl,resources/DY.BMP,resources/DR.BMP,Door2,0.329272153,0.01265228,1,0,0,0.8321,optionRight,20,4885,3,2,0,2,0,1,,,,,,,,,,,,,,,,,,,,,,,,,,,,,,,,,,,,,,,
,,,,,,,,2023-08-16_08h44.30.840,HF_wild_card,2022.2.4,Win32,59.97720866,5641c95d17bdbe00102a0b51,64d2fd46c836a06233681665,64dc7e4ec85895763d4e5777,,,,,,,sngl,resources/Empty.png,resources/DB.BMP,Door4,0.300114548,0.007653795,1,0,0,0.6481,optionRight,60,4945,3,3,0,3,0,1,,,,,,,,,,,,,,,,,,,,,,,,,,,,,,,,,,,,,,,
,,,,,,,,2023-08-16_08h44.30.840,HF_wild_card,2022.2.4,Win32,59.97720866,5641c95d17bdbe00102a0b51,64d2fd46c836a06233681665,64dc7e4ec85895763d4e5777,,,,,,,decisionTrl,resources/DR.BMP,resources/DP.BMP,WildCard_Ex,0.28262025,0.022649147,1,0,0,1.281,optionRight,95,5040,3,4,0,4,0,1,,,,,,,,,,,,,,,,,,,,,,,,,,,,,,,,,,,,,,,
,,,,,,,,2023-08-16_08h44.30.840,HF_wild_card,2022.2.4,Win32,59.97720866,5641c95d17bdbe00102a0b51,64d2fd46c836a06233681665,64dc7e4ec85895763d4e5777,,,,,,,decisionTrl,resources/DBN.BMP,resources/DP.BMP,Door3,-0.263042786,0.005987703,1,0,0,0.4813,optionLeft,70,5110,3,5,0,5,0,1,,,,,,,,,,,,,,,,,,,,,,,,,,,,,,,,,,,,,,,
,,,,,,,,2023-08-16_08h44.30.840,HF_wild_card,2022.2.4,Win32,59.97720866,5641c95d17bdbe00102a0b51,64d2fd46c836a06233681665,64dc7e4ec85895763d4e5777,,,,,,,decisionTrl,resources/DR.BMP,resources/DY.BMP,Door2,-0.173070814,-0.015672192,1,0,0,0.6155,optionLeft,20,5130,3,6,0,6,0,1,,,,,,,,,,,,,,,,,,,,,,,,,,,,,,,,,,,,,,,
,,,,,,,,2023-08-16_08h44.30.840,HF_wild_card,2022.2.4,Win32,59.97720866,5641c95d17bdbe00102a0b51,64d2fd46c836a06233681665,64dc7e4ec85895763d4e5777,,,,,,,decisionTrl,resources/DBN.BMP,resources/DB.BMP,Door3,-0.138914897,-0.008174551,1,0,0,0.6573,optionLeft,70,5200,3,7,0,7,0,1,,,,,,,,,,,,,,,,,,,,,,,,,,,,,,,,,,,,,,,
,,,,,,,,2023-08-16_08h44.30.840,HF_wild_card,2022.2.4,Win32,59.97720866,5641c95d17bdbe00102a0b51,64d2fd46c836a06233681665,64dc7e4ec85895763d4e5777,,,,,,,sngl,resources/DP.BMP,resources/Empty.png,WildCard_Ex,-0.17473701,-0.017338354,1,0,0,0.5485,optionLeft,95,5295,3,8,0,8,0,1,,,,,,,,,,,,,,,,,,,,,,,,,,,,,,,,,,,,,,,
,,,,,,,,2023-08-16_08h44.30.840,HF_wild_card,2022.2.4,Win32,59.97720866,5641c95d17bdbe00102a0b51,64d2fd46c836a06233681665,64dc7e4ec85895763d4e5777,,,,,,,decisionTrl,resources/DBN.BMP,resources/DB.BMP,Door3,-0.197230039,-0.01150684,1,0,0,0.5984,optionLeft,70,5365,3,9,0,9,0,1,,,,,,,,,,,,,,,,,,,,,,,,,,,,,,,,,,,,,,,
,,,,,,,,2023-08-16_08h44.30.840,HF_wild_card,2022.2.4,Win32,59.97720866,5641c95d17bdbe00102a0b51,64d2fd46c836a06233681665,64dc7e4ec85895763d4e5777,,,,,,,sngl,resources/DP.BMP,resources/Empty.png,WildCard_Ex,-0.151411024,-0.015672192,1,0,0,0.5488,optionLeft,5,5370,3,10,0,10,0,1,,,,,,,,,,,,,,,,,,,,,,,,,,,,,,,,,,,,,,,
,,,,,,,,2023-08-16_08h44.30.840,HF_wild_card,2022.2.4,Win32,59.97720866,5641c95d17bdbe00102a0b51,64d2fd46c836a06233681665,64dc7e4ec85895763d4e5777,,,,,,,decisionTrl,resources/DB.BMP,resources/DBN.BMP,Door3,0.290117716,0.000156188,1,0,0,0.7323,optionRight,70,5440,3,11,0,11,0,1,,,,,,,,,,,,,,,,,,,,,,,,,,,,,,,,,,,,,,,
,,,,,,,,2023-08-16_08h44.30.840,HF_wild_card,2022.2.4,Win32,59.97720866,5641c95d17bdbe00102a0b51,64d2fd46c836a06233681665,64dc7e4ec85895763d4e5777,,,,,,,sngl,resources/Empty.png,resources/DP.BMP,WildCard_Ex,0.202645039,-0.001510008,1,0,0,0.6978,optionRight,95,5535,3,12,0,12,0,1,,,,,,,,,,,,,,,,,,,,,,,,,,,,,,,,,,,,,,,
,,,,,,,,2023-08-16_08h44.30.840,HF_wild_card,2022.2.4,Win32,59.97720866,5641c95d17bdbe00102a0b51,64d2fd46c836a06233681665,64dc7e4ec85895763d4e5777,,,,,,,decisionTrl,resources/DP.BMP,resources/DB.BMP,WildCard_Ex,-0.198896166,-0.008174551,1,0,0,0.6655,optionLeft,95,5630,3,13,0,13,0,1,,,,,,,,,,,,,,,,,,,,,,,,,,,,,,,,,,,,,,,
,,,,,,,,2023-08-16_08h44.30.840,HF_wild_card,2022.2.4,Win32,59.97720866,5641c95d17bdbe00102a0b51,64d2fd46c836a06233681665,64dc7e4ec85895763d4e5777,,,,,,,decisionTrl,resources/DY.BMP,resources/DP.BMP,WildCard_Ex,0.226804124,0.000156188,1,0,0,0.648,optionRight,5,5635,3,14,0,14,0,1,,,,,,,,,,,,,,,,,,,,,,,,,,,,,,,,,,,,,,,
,,,,,,,,2023-08-16_08h44.30.840,HF_wild_card,2022.2.4,Win32,59.97720866,5641c95d17bdbe00102a0b51,64d2fd46c836a06233681665,64dc7e4ec85895763d4e5777,,,,,,,sngl,resources/Empty.png,resources/DP.BMP,WildCard_Ex,0.215141235,0.005154639,1,0,0,0.5818,optionRight,5,5640,3,15,0,15,0,1,,,,,,,,,,,,,,,,,,,,,,,,,,,,,,,,,,,,,,,
,,,,,,,,2023-08-16_08h44.30.840,HF_wild_card,2022.2.4,Win32,59.97720866,5641c95d17bdbe00102a0b51,64d2fd46c836a06233681665,64dc7e4ec85895763d4e5777,,,,,,,decisionTrl,resources/DY.BMP,resources/DR.BMP,Door1,-0.216390708,-0.021503706,1,0,0,0.8643,optionLeft,30,5670,3,16,0,16,0,1,,,,,,,,,,,,,,,,,,,,,,,,,,,,,,,,,,,,,,,
,,,,,,,,2023-08-16_08h44.30.840,HF_wild_card,2022.2.4,Win32,59.97720866,5641c95d17bdbe00102a0b51,64d2fd46c836a06233681665,64dc7e4ec85895763d4e5777,,,,,,,ctch,resources/DR.BMP,resources/DBN.BMP,Door3,0.301780744,0.000156188,1,0,0,0.5316,optionRight,70,5740,3,17,0,17,0,1,,,,,,,,,,,,,,,,,,,,,,,,,,,,,,,,,,,,,,,
,,,,,,,,2023-08-16_08h44.30.840,HF_wild_card,2022.2.4,Win32,59.97720866,5641c95d17bdbe00102a0b51,64d2fd46c836a06233681665,64dc7e4ec85895763d4e5777,,,,,,,sngl,resources/DB.BMP,resources/Empty.png,Door4,-0.198896166,0.006820766,1,0,0,0.5646,optionLeft,80,5820,3,18,0,18,0,1,,,,,,,,,,,,,,,,,,,,,,,,,,,,,,,,,,,,,,,
,,,,,,,,2023-08-16_08h44.30.840,HF_wild_card,2022.2.4,Win32,59.97720866,5641c95d17bdbe00102a0b51,64d2fd46c836a06233681665,64dc7e4ec85895763d4e5777,,,,,,,decisionTrl,resources/DR.BMP,resources/DY.BMP,Door2,-0.246381272,-0.023169868,1,0,0,0.7823,optionLeft,40,5860,3,19,0,19,0,1,,,,,,,,,,,,,,,,,,,,,,,,,,,,,,,,,,,,,,,
,,,,,,,,2023-08-16_08h44.30.840,HF_wild_card,2022.2.4,Win32,59.97720866,5641c95d17bdbe00102a0b51,64d2fd46c836a06233681665,64dc7e4ec85895763d4e5777,,,,,,,ctch,resources/DY.BMP,resources/DB.BMP,Door4,0.236801025,-0.007341523,1,0,0,0.6653,optionRight,80,5940,3,20,0,20,0,1,,,,,,,,,,,,,,,,,,,,,,,,,,,,,,,,,,,,,,,
,,,,,,,,2023-08-16_08h44.30.840,HF_wild_card,2022.2.4,Win32,59.97720866,5641c95d17bdbe00102a0b51,64d2fd46c836a06233681665,64dc7e4ec85895763d4e5777,,,,,,,decisionTrl,resources/DP.BMP,resources/DR.BMP,WildCard_Ex,-0.221389124,-0.038998284,1,0,0,0.6657,optionLeft,95,6035,3,21,0,21,0,1,,,,,,,,,,,,,,,,,,,,,,,,,,,,,,,,,,,,,,,
,,,,,,,,2023-08-16_08h44.30.840,HF_wild_card,2022.2.4,Win32,59.97720866,5641c95d17bdbe00102a0b51,64d2fd46c836a06233681665,64dc7e4ec85895763d4e5777,,,,,,,decisionTrl,resources/DB.BMP,resources/DBN.BMP,Door3,0.254295533,0.005154639,1,0,0,0.7322,optionRight,70,6105,3,22,0,22,0,1,,,,,,,,,,,,,,,,,,,,,,,,,,,,,,,,,,,,,,,
,,,,,,,,2023-08-16_08h44.30.840,HF_wild_card,2022.2.4,Win32,59.97720866,5641c95d17bdbe00102a0b51,64d2fd46c836a06233681665,64dc7e4ec85895763d4e5777,,,,,,,decisionTrl,resources/DP.BMP,resources/DY.BMP,WildCard_Ex,-0.333020921,-0.033999798,1,0,0,0.9314,optionLeft,5,6110,3,23,0,23,0,1,,,,,,,,,,,,,,,,,,,,,,,,,,,,,,,,,,,,,,,
,,,,,,,,2023-08-16_08h44.30.840,HF_wild_card,2022.2.4,Win32,59.97720866,5641c95d17bdbe00102a0b51,64d2fd46c836a06233681665,64dc7e4ec85895763d4e5777,,,,,,,ctch,resources/DB.BMP,resources/DY.BMP,Door1,0.295116237,0.00182228,1,0,0,1.8656,optionRight,30,6140,3,24,0,24,0,1,,,,,,,,,,,,,,,,,,,,,,,,,,,,,,,,,,,,,,,
,,,,,,,,2023-08-16_08h44.30.840,HF_wild_card,2022.2.4,Win32,59.97720866,5641c95d17bdbe00102a0b51,64d2fd46c836a06233681665,64dc7e4ec85895763d4e5777,,,,,,,ctch,resources/DBN.BMP,resources/DR.BMP,Door3,-0.226387575,-0.041497474,1,0,0,0.6149,optionLeft,70,6210,3,25,0,25,0,1,,,,,,,,,,,,,,,,,,,,,,,,,,,,,,,,,,,,,,,
,,,,,,,,2023-08-16_08h44.30.840,HF_wild_card,2022.2.4,Win32,59.97720866,5641c95d17bdbe00102a0b51,64d2fd46c836a06233681665,64dc7e4ec85895763d4e5777,,,,,,,decisionTrl,resources/DBN.BMP,resources/DB.BMP,Door3,-0.203061518,-0.009007615,1,0,0,0.4627,optionLeft,70,6280,3,26,0,26,0,1,,,,,,,,,,,,,,,,,,,,,,,,,,,,,,,,,,,,,,,
,,,,,,,,2023-08-16_08h44.30.840,HF_wild_card,2022.2.4,Win32,59.97720866,5641c95d17bdbe00102a0b51,64d2fd46c836a06233681665,64dc7e4ec85895763d4e5777,,,,,,,sngl,resources/DY.BMP,resources/Empty.png,Door1,-0.229719863,-0.005675326,1,0,0,0.4154,optionLeft,30,6310,3,27,0,27,0,1,,,,,,,,,,,,,,,,,,,,,,,,,,,,,,,,,,,,,,,
,,,,,,,,2023-08-16_08h44.30.840,HF_wild_card,2022.2.4,Win32,59.97720866,5641c95d17bdbe00102a0b51,64d2fd46c836a06233681665,64dc7e4ec85895763d4e5777,,,,,,,ctch,resources/DBN.BMP,resources/DR.BMP,Door3,-0.323024055,-0.040664376,1,0,0,0.5986,optionLeft,70,6380,3,28,0,28,0,1,,,,,,,,,,,,,,,,,,,,,,,,,,,,,,,,,,,,,,,
,,,,,,,,2023-08-16_08h44.30.840,HF_wild_card,2022.2.4,Win32,59.97720866,5641c95d17bdbe00102a0b51,64d2fd46c836a06233681665,64dc7e4ec85895763d4e5777,,,,,,,ctch,resources/DR.BMP,resources/DBN.BMP,Door3,0.3151099,0.015984569,1,0,0,0.6319,optionRight,70,6450,3,29,0,29,0,1,,,,,,,,,,,,,,,,,,,,,,,,,,,,,,,,,,,,,,,
,,,,,,,,2023-08-16_08h44.30.840,HF_wild_card,2022.2.4,Win32,59.97720866,5641c95d17bdbe00102a0b51,64d2fd46c836a06233681665,64dc7e4ec85895763d4e5777,,,,,,,decisionTrl,resources/DR.BMP,resources/DY.BMP,Door2,-0.164740039,-0.019837614,1,0,0,0.5324,optionLeft,40,6490,3,30,0,30,0,1,,,,,,,,,,,,,,,,,,,,,,,,,,,,,,,,,,,,,,,
,,,,,,,,2023-08-16_08h44.30.840,HF_wild_card,2022.2.4,Win32,59.97720866,5641c95d17bdbe00102a0b51,64d2fd46c836a06233681665,64dc7e4ec85895763d4e5777,,,,,,,decisionTrl,resources/DB.BMP,resources/DBN.BMP,Door3,0.228470321,0.004321541,1,0,0,0.4478,optionRight,70,6560,3,31,0,31,0,1,,,,,,,,,,,,,,,,,,,,,,,,,,,,,,,,,,,,,,,
,,,,,,,,2023-08-16_08h44.30.840,HF_wild_card,2022.2.4,Win32,59.97720866,5641c95d17bdbe00102a0b51,64d2fd46c836a06233681665,64dc7e4ec85895763d4e5777,,,,,,,sngl,resources/DR.BMP,resources/Empty.png,Door2,-0.178902433,-0.012339903,1,0,0,0.4483,optionLeft,40,6600,3,32,0,32,0,1,,,,,,,,,,,,,,,,,,,,,,,,,,,,,,,,,,,,,,,
,,,,,,,,2023-08-16_08h44.30.840,HF_wild_card,2022.2.4,Win32,59.97720866,5641c95d17bdbe00102a0b51,64d2fd46c836a06233681665,64dc7e4ec85895763d4e5777,,,,,,,sngl,resources/Empty.png,resources/DY.BMP,Door1,0.615016242,-0.021503706,1,0,0,0.6487,optionRight,30,6630,3,33,0,33,0,1,,,,,,,,,,,,,,,,,,,,,,,,,,,,,,,,,,,,,,,
,,,,,,,,2023-08-16_08h44.30.840,HF_wild_card,2022.2.4,Win32,59.97720866,5641c95d17bdbe00102a0b51,64d2fd46c836a06233681665,64dc7e4ec85895763d4e5777,,,,,,,sngl,resources/DBN.BMP,resources/Empty.png,Door3,-0.2288868,-0.019004481,1,0,0,0.8468,optionLeft,70,6700,3,34,0,34,0,1,,,,,,,,,,,,,,,,,,,,,,,,,,,,,,,,,,,,,,,
,,,,,,,,2023-08-16_08h44.30.840,HF_wild_card,2022.2.4,Win32,59.97720866,5641c95d17bdbe00102a0b51,64d2fd46c836a06233681665,64dc7e4ec85895763d4e5777,,,,,,,decisionTrl,resources/DP.BMP,resources/DBN.BMP,Door3,0.299281589,0.017650731,1,0,0,0.6629,optionRight,70,6770,3,35,0,35,0,1,,,,,,,,,,,,,,,,,,,,,,,,,,,,,,,,,,,,,,,
,,,,,,,,2023-08-16_08h44.30.840,HF_wild_card,2022.2.4,Win32,59.97720866,5641c95d17bdbe00102a0b51,64d2fd46c836a06233681665,64dc7e4ec85895763d4e5777,,,,,,,decisionTrl,resources/DR.BMP,resources/DY.BMP,Door2,-0.198896166,-0.024835995,1,0,0,0.6645,optionLeft,20,6790,3,36,0,36,0,1,,,,,,,,,,,,,,,,,,,,,,,,,,,,,,,,,,,,,,,
,,,,,,,,2023-08-16_08h44.30.840,HF_wild_card,2022.2.4,Win32,59.97720866,5641c95d17bdbe00102a0b51,64d2fd46c836a06233681665,64dc7e4ec85895763d4e5777,,,,,,,decisionTrl,resources/DBN.BMP,resources/DB.BMP,Door3,-0.252212787,-0.01150684,1,0,0,0.6002,optionLeft,70,6860,3,37,0,37,0,1,,,,,,,,,,,,,,,,,,,,,,,,,,,,,,,,,,,,,,,
,,,,,,,,2023-08-16_08h44.30.840,HF_wild_card,2022.2.4,Win32,59.97720866,5641c95d17bdbe00102a0b51,64d2fd46c836a06233681665,64dc7e4ec85895763d4e5777,,,,,,,decisionTrl,resources/DY.BMP,resources/DR.BMP,Door2,0.329272153,-0.004842262,1,0,0,0.9985,optionRight,40,6900,3,38,0,38,0,1,,,,,,,,,,,,,,,,,,,,,,,,,,,,,,,,,,,,,,,
,,,,,,,,2023-08-16_08h44.30.840,HF_wild_card,2022.2.4,Win32,59.97720866,5641c95d17bdbe00102a0b51,64d2fd46c836a06233681665,64dc7e4ec85895763d4e5777,,,,,,,ctch,resources/DY.BMP,resources/DB.BMP,Door4,0.344267435,0.005987703,1,0,0,1.1657,optionRight,80,6980,3,39,0,39,0,1,,,,,,,,,,,,,,,,,,,,,,,,,,,,,,,,,,,,,,,
,,,,,,,,2023-08-16_08h44.30.840,HF_wild_card,2022.2.4,Win32,59.97720866,5641c95d17bdbe00102a0b51,64d2fd46c836a06233681665,64dc7e4ec85895763d4e5777,,,,,,,sngl,resources/Empty.png,resources/DBN.BMP,Door3,0.361762083,-0.004009164,1,0,0,0.7483,optionRight,70,7050,3,40,0,40,0,1,,,,,,,,,,,,,,,,,,,,,,,,,,,,,,,,,,,,,,,
,,,,,,,,2023-08-16_08h44.30.840,HF_wild_card,2022.2.4,Win32,59.97720866,5641c95d17bdbe00102a0b51,64d2fd46c836a06233681665,64dc7e4ec85895763d4e5777,,,,,,,decisionTrl,resources/DY.BMP,resources/DR.BMP,Door1,-0.19139842,-0.008174551,1,0,0,0.784,optionLeft,30,7080,3,41,0,41,0,1,,,,,,,,,,,,,,,,,,,,,,,,,,,,,,,,,,,,,,,
,,,,,,,,2023-08-16_08h44.30.840,HF_wild_card,2022.2.4,Win32,59.97720866,5641c95d17bdbe00102a0b51,64d2fd46c836a06233681665,64dc7e4ec85895763d4e5777,,,,,,,ctch,resources/DB.BMP,resources/DY.BMP,Door4,-0.273039653,-0.008174551,1,0,0,0.6947,optionLeft,80,7160,3,42,0,42,0,1,,,,,,,,,,,,,,,,,,,,,,,,,,,,,,,,,,,,,,,
,,,,,,,,2023-08-16_08h44.30.840,HF_wild_card,2022.2.4,Win32,59.97720866,5641c95d17bdbe00102a0b51,64d2fd46c836a06233681665,64dc7e4ec85895763d4e5777,,,,,,,decisionTrl,resources/DB.BMP,resources/DP.BMP,WildCard_Ex,0.435905535,0.005154639,1,0,0,0.4986,optionRight,95,7255,3,43,0,43,0,1,,,,,,,,,,,,,,,,,,,,,,,,,,,,,,,,,,,,,,,
,,,,,,,,2023-08-16_08h44.30.840,HF_wild_card,2022.2.4,Win32,59.97720866,5641c95d17bdbe00102a0b51,64d2fd46c836a06233681665,64dc7e4ec85895763d4e5777,,,,,,,,,,,,,,,,,,,,,,,,,,2,0,2,0,1,,,,,,,,,,,,,,,,,,,,,,,,,,,,,,,,,,
,,,,,,,,2023-08-16_08h44.30.840,HF_wild_card,2022.2.4,Win32,59.97720866,5641c95d17bdbe00102a0b51,64d2fd46c836a06233681665,64dc7e4ec85895763d4e5777,,,,,,,decisionTrl,resources/DG.BMP,resources/DR.BMP,Door2,0.319275252,-0.108976349,1,0,0,0.6585,optionRight,40,7295,4,0,0,0,0,1,,,,,,,,,,,,,,,,,,,,,,,,,,,,,,,,,,,,,,,
,,,,,,,,2023-08-16_08h44.30.840,HF_wild_card,2022.2.4,Win32,59.97720866,5641c95d17bdbe00102a0b51,64d2fd46c836a06233681665,64dc7e4ec85895763d4e5777,,,,,,,decisionTrl,resources/DY.BMP,resources/DG.BMP,WildCard_NonEx,0.277621589,0.017650731,1,0,0,0.7301,optionRight,45,7340,4,1,0,1,0,1,,,,,,,,,,,,,,,,,,,,,,,,,,,,,,,,,,,,,,,
,,,,,,,,2023-08-16_08h44.30.840,HF_wild_card,2022.2.4,Win32,59.97720866,5641c95d17bdbe00102a0b51,64d2fd46c836a06233681665,64dc7e4ec85895763d4e5777,,,,,,,sngl,resources/Empty.png,resources/DG.BMP,WildCard_NonEx,0.258461025,-0.015672192,1,0,0,0.5491,optionRight,45,7385,4,2,0,2,0,1,,,,,,,,,,,,,,,,,,,,,,,,,,,,,,,,,,,,,,,
,,,,,,,,2023-08-16_08h44.30.840,HF_wild_card,2022.2.4,Win32,59.97720866,5641c95d17bdbe00102a0b51,64d2fd46c836a06233681665,64dc7e4ec85895763d4e5777,,,,,,,sngl,resources/DB.BMP,resources/Empty.png,Door4,-0.242215955,0.003488477,1,0,0,0.4646,optionLeft,60,7445,4,3,0,3,0,1,,,,,,,,,,,,,,,,,,,,,,,,,,,,,,,,,,,,,,,
,,,,,,,,2023-08-16_08h44.30.840,HF_wild_card,2022.2.4,Win32,59.97720866,5641c95d17bdbe00102a0b51,64d2fd46c836a06233681665,64dc7e4ec85895763d4e5777,,,,,,,decisionTrl,resources/DB.BMP,resources/DBN.BMP,Door4,-0.283036484,-0.016505326,1,0,0,0.5481,optionLeft,60,7505,4,4,0,4,0,1,,,,,,,,,,,,,,,,,,,,,,,,,,,,,,,,,,,,,,,
,,,,,,,,2023-08-16_08h44.30.840,HF_wild_card,2022.2.4,Win32,59.97720866,5641c95d17bdbe00102a0b51,64d2fd46c836a06233681665,64dc7e4ec85895763d4e5777,,,,,,,sngl,resources/Empty.png,resources/DY.BMP,Door1,0.36842666,0.028480661,1,0,0,0.5815,optionRight,30,7535,4,5,0,5,0,1,,,,,,,,,,,,,,,,,,,,,,,,,,,,,,,,,,,,,,,
,,,,,,,,2023-08-16_08h44.30.840,HF_wild_card,2022.2.4,Win32,59.97720866,5641c95d17bdbe00102a0b51,64d2fd46c836a06233681665,64dc7e4ec85895763d4e5777,,,,,,,decisionTrl,resources/DR.BMP,resources/DY.BMP,Door1,0.448401592,-0.033166735,1,0,0,0.8324,optionRight,30,7565,4,6,0,6,0,1,,,,,,,,,,,,,,,,,,,,,,,,,,,,,,,,,,,,,,,
,,,,,,,,2023-08-16_08h44.30.840,HF_wild_card,2022.2.4,Win32,59.97720866,5641c95d17bdbe00102a0b51,64d2fd46c836a06233681665,64dc7e4ec85895763d4e5777,,,,,,,decisionTrl,resources/DG.BMP,resources/DB.BMP,Door4,0.357596731,-0.010673811,1,0,0,1.0314,optionRight,80,7645,4,7,0,7,0,1,,,,,,,,,,,,,,,,,,,,,,,,,,,,,,,,,,,,,,,
,,,,,,,,2023-08-16_08h44.30.840,HF_wild_card,2022.2.4,Win32,59.97720866,5641c95d17bdbe00102a0b51,64d2fd46c836a06233681665,64dc7e4ec85895763d4e5777,,,,,,,decisionTrl,resources/DR.BMP,resources/DY.BMP,Door1,0.380922717,0.006820766,1,0,0,1.0483,optionRight,30,7675,4,8,0,8,0,1,,,,,,,,,,,,,,,,,,,,,,,,,,,,,,,,,,,,,,,
,,,,,,,,2023-08-16_08h44.30.840,HF_wild_card,2022.2.4,Win32,59.97720866,5641c95d17bdbe00102a0b51,64d2fd46c836a06233681665,64dc7e4ec85895763d4e5777,,,,,,,ctch,resources/DY.BMP,resources/DB.BMP,Door1,-0.157242503,0.000156188,1,0,0,0.6151,optionLeft,30,7705,4,9,0,9,0,1,,,,,,,,,,,,,,,,,,,,,,,,,,,,,,,,,,,,,,,
,,,,,,,,2023-08-16_08h44.30.840,HF_wild_card,2022.2.4,Win32,59.97720866,5641c95d17bdbe00102a0b51,64d2fd46c836a06233681665,64dc7e4ec85895763d4e5777,,,,,,,decisionTrl,resources/DBN.BMP,resources/DB.BMP,Door3,-0.230552927,-0.029834446,1,0,0,0.598,optionLeft,70,7775,4,10,0,10,0,1,,,,,,,,,,,,,,,,,,,,,,,,,,,,,,,,,,,,,,,
,,,,,,,,2023-08-16_08h44.30.840,HF_wild_card,2022.2.4,Win32,59.97720866,5641c95d17bdbe00102a0b51,64d2fd46c836a06233681665,64dc7e4ec85895763d4e5777,,,,,,,decisionTrl,resources/DG.BMP,resources/DBN.BMP,Door3,0.339268985,0.016817598,1,0,0,0.6653,optionRight,70,7845,4,11,0,11,0,1,,,,,,,,,,,,,,,,,,,,,,,,,,,,,,,,,,,,,,,
,,,,,,,,2023-08-16_08h44.30.840,HF_wild_card,2022.2.4,Win32,59.97720866,5641c95d17bdbe00102a0b51,64d2fd46c836a06233681665,64dc7e4ec85895763d4e5777,,,,,,,decisionTrl,resources/DR.BMP,resources/DY.BMP,Door2,-0.251379758,0.019316858,1,0,0,1.0646,optionLeft,20,7865,4,12,0,12,0,1,,,,,,,,,,,,,,,,,,,,,,,,,,,,,,,,,,,,,,,
,,,,,,,,2023-08-16_08h44.30.840,HF_wild_card,2022.2.4,Win32,59.97720866,5641c95d17bdbe00102a0b51,64d2fd46c836a06233681665,64dc7e4ec85895763d4e5777,,,,,,,decisionTrl,resources/DBN.BMP,resources/DB.BMP,Door3,-0.249713631,0.017650731,1,0,0,0.5526,optionLeft,70,7935,4,13,0,13,0,1,,,,,,,,,,,,,,,,,,,,,,,,,,,,,,,,,,,,,,,
,,,,,,,,2023-08-16_08h44.30.840,HF_wild_card,2022.2.4,Win32,59.97720866,5641c95d17bdbe00102a0b51,64d2fd46c836a06233681665,64dc7e4ec85895763d4e5777,,,,,,,ctch,resources/DB.BMP,resources/DY.BMP,Door4,-0.298031801,-0.004842262,1,0,0,0.7152,optionLeft,60,7995,4,14,0,14,0,1,,,,,,,,,,,,,,,,,,,,,,,,,,,,,,,,,,,,,,,
,,,,,,,,2023-08-16_08h44.30.840,HF_wild_card,2022.2.4,Win32,59.97720866,5641c95d17bdbe00102a0b51,64d2fd46c836a06233681665,64dc7e4ec85895763d4e5777,,,,,,,sngl,resources/DR.BMP,resources/Empty.png,Door2,-0.190565461,-0.023169868,1,0,0,0.5145,optionLeft,20,8015,4,15,0,15,0,1,,,,,,,,,,,,,,,,,,,,,,,,,,,,,,,,,,,,,,,
,,,,,,,,2023-08-16_08h44.30.840,HF_wild_card,2022.2.4,Win32,59.97720866,5641c95d17bdbe00102a0b51,64d2fd46c836a06233681665,64dc7e4ec85895763d4e5777,,,,,,,decisionTrl,resources/DB.BMP,resources/DBN.BMP,Door3,0.27179011,0.010153055,1,0,0,0.6156,optionRight,70,8085,4,16,0,16,0,1,,,,,,,,,,,,,,,,,,,,,,,,,,,,,,,,,,,,,,,
,,,,,,,,2023-08-16_08h44.30.840,HF_wild_card,2022.2.4,Win32,59.97720866,5641c95d17bdbe00102a0b51,64d2fd46c836a06233681665,64dc7e4ec85895763d4e5777,,,,,,,ctch,resources/DB.BMP,resources/DY.BMP,Door4,-0.178902433,-0.002343037,1,0,0,0.6486,optionLeft,60,8145,4,17,0,17,0,1,,,,,,,,,,,,,,,,,,,,,,,,,,,,,,,,,,,,,,,
,,,,,,,,2023-08-16_08h44.30.840,HF_wild_card,2022.2.4,Win32,59.97720866,5641c95d17bdbe00102a0b51,64d2fd46c836a06233681665,64dc7e4ec85895763d4e5777,,,,,,,decisionTrl,resources/DY.BMP,resources/DR.BMP,Door2,0.221805813,-0.005675326,1,0,0,0.6324,optionRight,20,8165,4,18,0,18,0,1,,,,,,,,,,,,,,,,,,,,,,,,,,,,,,,,,,,,,,,
,,,,,,,,2023-08-16_08h44.30.840,HF_wild_card,2022.2.4,Win32,59.97720866,5641c95d17bdbe00102a0b51,64d2fd46c836a06233681665,64dc7e4ec85895763d4e5777,,,,,,,ctch,resources/DBN.BMP,resources/DR.BMP,Door3,-0.238050603,-0.029834446,1,0,0,0.4964,optionLeft,70,8235,4,19,0,19,0,1,,,,,,,,,,,,,,,,,,,,,,,,,,,,,,,,,,,,,,,
,,,,,,,,2023-08-16_08h44.30.840,HF_wild_card,2022.2.4,Win32,59.97720866,5641c95d17bdbe00102a0b51,64d2fd46c836a06233681665,64dc7e4ec85895763d4e5777,,,,,,,decisionTrl,resources/DB.BMP,resources/DG.BMP,Door4,-0.236384441,-0.02233677,1,0,0,0.9313,optionLeft,60,8295,4,20,0,20,0,1,,,,,,,,,,,,,,,,,,,,,,,,,,,,,,,,,,,,,,,
,,,,,,,,2023-08-16_08h44.30.840,HF_wild_card,2022.2.4,Win32,59.97720866,5641c95d17bdbe00102a0b51,64d2fd46c836a06233681665,64dc7e4ec85895763d4e5777,,,,,,,decisionTrl,resources/DR.BMP,resources/DY.BMP,Door2,-0.246381272,-0.048995115,1,0,0,0.7317,optionLeft,20,8315,4,21,0,21,0,1,,,,,,,,,,,,,,,,,,,,,,,,,,,,,,,,,,,,,,,
,,,,,,,,2023-08-16_08h44.30.840,HF_wild_card,2022.2.4,Win32,59.97720866,5641c95d17bdbe00102a0b51,64d2fd46c836a06233681665,64dc7e4ec85895763d4e5777,,,,,,,decisionTrl,resources/DY.BMP,resources/DR.BMP,Door1,-0.281370392,-0.032333671,1,0,0,0.8837,optionLeft,30,8345,4,22,0,22,0,1,,,,,,,,,,,,,,,,,,,,,,,,,,,,,,,,,,,,,,,
,,,,,,,,2023-08-16_08h44.30.840,HF_wild_card,2022.2.4,Win32,59.97720866,5641c95d17bdbe00102a0b51,64d2fd46c836a06233681665,64dc7e4ec85895763d4e5777,,,,,,,sngl,resources/Empty.png,resources/DG.BMP,WildCard_NonEx,0.220139546,0.010153055,1,0,0,0.6317,optionRight,55,8400,4,23,0,23,0,1,,,,,,,,,,,,,,,,,,,,,,,,,,,,,,,,,,,,,,,
,,,,,,,,2023-08-16_08h44.30.840,HF_wild_card,2022.2.4,Win32,59.97720866,5641c95d17bdbe00102a0b51,64d2fd46c836a06233681665,64dc7e4ec85895763d4e5777,,,,,,,sngl,resources/DBN.BMP,resources/Empty.png,Door3,-0.247214406,0.010153055,1,0,0,0.5643,optionLeft,70,8470,4,24,0,24,0,1,,,,,,,,,,,,,,,,,,,,,,,,,,,,,,,,,,,,,,,
,,,,,,,,2023-08-16_08h44.30.840,HF_wild_card,2022.2.4,Win32,59.97720866,5641c95d17bdbe00102a0b51,64d2fd46c836a06233681665,64dc7e4ec85895763d4e5777,,,,,,,ctch,resources/DBN.BMP,resources/DR.BMP,Door3,-0.193064616,-0.001510008,1,0,0,0.565,optionLeft,70,8540,4,25,0,25,0,1,,,,,,,,,,,,,,,,,,,,,,,,,,,,,,,,,,,,,,,
,,,,,,,,2023-08-16_08h44.30.840,HF_wild_card,2022.2.4,Win32,59.97720866,5641c95d17bdbe00102a0b51,64d2fd46c836a06233681665,64dc7e4ec85895763d4e5777,,,,,,,sngl,resources/Empty.png,resources/DBN.BMP,Door3,0.176819757,-0.006508389,1,0,0,0.6152,optionRight,70,8610,4,26,0,26,0,1,,,,,,,,,,,,,,,,,,,,,,,,,,,,,,,,,,,,,,,
,,,,,,,,2023-08-16_08h44.30.840,HF_wild_card,2022.2.4,Win32,59.97720866,5641c95d17bdbe00102a0b51,64d2fd46c836a06233681665,64dc7e4ec85895763d4e5777,,,,,,,sngl,resources/Empty.png,resources/DR.BMP,Door2,0.272623139,-0.016505326,1,0,0,0.5986,optionRight,40,8650,4,27,0,27,0,1,,,,,,,,,,,,,,,,,,,,,,,,,,,,,,,,,,,,,,,
,,,,,,,,2023-08-16_08h44.30.840,HF_wild_card,2022.2.4,Win32,59.97720866,5641c95d17bdbe00102a0b51,64d2fd46c836a06233681665,64dc7e4ec85895763d4e5777,,,,,,,sngl,resources/DG.BMP,resources/Empty.png,WildCard_NonEx,-0.245548244,-0.004842262,1,0,0,0.4656,optionLeft,55,8705,4,28,0,28,0,1,,,,,,,,,,,,,,,,,,,,,,,,,,,,,,,,,,,,,,,
,,,,,,,,2023-08-16_08h44.30.840,HF_wild_card,2022.2.4,Win32,59.97720866,5641c95d17bdbe00102a0b51,64d2fd46c836a06233681665,64dc7e4ec85895763d4e5777,,,,,,,decisionTrl,resources/DB.BMP,resources/DBN.BMP,Door3,0.24513173,-0.000676875,1,0,0,0.5131,optionRight,70,8775,4,29,0,29,0,1,,,,,,,,,,,,,,,,,,,,,,,,,,,,,,,,,,,,,,,
,,,,,,,,2023-08-16_08h44.30.840,HF_wild_card,2022.2.4,Win32,59.97720866,5641c95d17bdbe00102a0b51,64d2fd46c836a06233681665,64dc7e4ec85895763d4e5777,,,,,,,ctch,resources/DR.BMP,resources/DBN.BMP,Door3,0.197646588,0.018483794,1,0,0,0.6157,optionRight,70,8845,4,30,0,30,0,1,,,,,,,,,,,,,,,,,,,,,,,,,,,,,,,,,,,,,,,
,,,,,,,,2023-08-16_08h44.30.840,HF_wild_card,2022.2.4,Win32,59.97720866,5641c95d17bdbe00102a0b51,64d2fd46c836a06233681665,64dc7e4ec85895763d4e5777,,,,,,,decisionTrl,resources/DB.BMP,resources/DBN.BMP,Door3,0.321774477,0.006820766,1,0,0,0.5296,optionRight,70,8915,4,31,0,31,0,1,,,,,,,,,,,,,,,,,,,,,,,,,,,,,,,,,,,,,,,
,,,,,,,,2023-08-16_08h44.30.840,HF_wild_card,2022.2.4,Win32,59.97720866,5641c95d17bdbe00102a0b51,64d2fd46c836a06233681665,64dc7e4ec85895763d4e5777,,,,,,,decisionTrl,resources/DG.BMP,resources/DY.BMP,WildCard_NonEx,-0.308028738,-0.055659763,1,0,0,0.7647,optionLeft,55,8970,4,32,0,32,0,1,,,,,,,,,,,,,,,,,,,,,,,,,,,,,,,,,,,,,,,
,,,,,,,,2023-08-16_08h44.30.840,HF_wild_card,2022.2.4,Win32,59.97720866,5641c95d17bdbe00102a0b51,64d2fd46c836a06233681665,64dc7e4ec85895763d4e5777,,,,,,,sngl,resources/Empty.png,resources/DB.BMP,Door4,0.353431448,-0.079818813,1,0,0,0.4823,optionRight,80,9050,4,33,0,33,0,1,,,,,,,,,,,,,,,,,,,,,,,,,,,,,,,,,,,,,,,
,,,,,,,,2023-08-16_08h44.30.840,HF_wild_card,2022.2.4,Win32,59.97720866,5641c95d17bdbe00102a0b51,64d2fd46c836a06233681665,64dc7e4ec85895763d4e5777,,,,,,,ctch,resources/DY.BMP,resources/DB.BMP,Door4,0.171821306,-0.028168284,1,0,0,0.465,optionRight,60,9110,4,34,0,34,0,1,,,,,,,,,,,,,,,,,,,,,,,,,,,,,,,,,,,,,,,
,,,,,,,,2023-08-16_08h44.30.840,HF_wild_card,2022.2.4,Win32,59.97720866,5641c95d17bdbe00102a0b51,64d2fd46c836a06233681665,64dc7e4ec85895763d4e5777,,,,,,,decisionTrl,resources/DY.BMP,resources/DR.BMP,Door2,0.265125532,-0.012339903,1,0,0,0.8977,optionRight,20,9130,4,35,0,35,0,1,,,,,,,,,,,,,,,,,,,,,,,,,,,,,,,,,,,,,,,
,,,,,,,,2023-08-16_08h44.30.840,HF_wild_card,2022.2.4,Win32,59.97720866,5641c95d17bdbe00102a0b51,64d2fd46c836a06233681665,64dc7e4ec85895763d4e5777,,,,,,,decisionTrl,resources/DBN.BMP,resources/DB.BMP,Door3,-0.138081799,-0.026502157,1,0,0,0.7478,optionLeft,70,9200,4,36,0,36,0,1,,,,,,,,,,,,,,,,,,,,,,,,,,,,,,,,,,,,,,,
,,,,,,,,2023-08-16_08h44.30.840,HF_wild_card,2022.2.4,Win32,59.97720866,5641c95d17bdbe00102a0b51,64d2fd46c836a06233681665,64dc7e4ec85895763d4e5777,,,,,,,sngl,resources/DY.BMP,resources/Empty.png,Door1,-0.329688633,-0.008174551,1,0,0,0.7322,optionLeft,30,9230,4,37,0,37,0,1,,,,,,,,,,,,,,,,,,,,,,,,,,,,,,,,,,,,,,,
,,,,,,,,2023-08-16_08h44.30.840,HF_wild_card,2022.2.4,Win32,59.97720866,5641c95d17bdbe00102a0b51,64d2fd46c836a06233681665,64dc7e4ec85895763d4e5777,,,,,,,decisionTrl,resources/DR.BMP,resources/DG.BMP,WildCard_NonEx,0.215141235,0.006820766,1,0,0,0.5649,optionRight,45,9275,4,38,0,38,0,1,,,,,,,,,,,,,,,,,,,,,,,,,,,,,,,,,,,,,,,
,,,,,,,,2023-08-16_08h44.30.840,HF_wild_card,2022.2.4,Win32,59.97720866,5641c95d17bdbe00102a0b51,64d2fd46c836a06233681665,64dc7e4ec85895763d4e5777,,,,,,,decisionTrl,resources/DBN.BMP,resources/DG.BMP,Door3,-0.239716695,-0.017338354,1,0,0,0.4806,optionLeft,70,9345,4,39,0,39,0,1,,,,,,,,,,,,,,,,,,,,,,,,,,,,,,,,,,,,,,,
,,,,,,,,2023-08-16_08h44.30.840,HF_wild_card,2022.2.4,Win32,59.97720866,5641c95d17bdbe00102a0b51,64d2fd46c836a06233681665,64dc7e4ec85895763d4e5777,,,,,,,sngl,resources/DG.BMP,resources/Empty.png,WildCard_NonEx,-0.222222222,-0.016505326,1,0,0,0.5144,optionLeft,45,9390,4,40,0,40,0,1,,,,,,,,,,,,,,,,,,,,,,,,,,,,,,,,,,,,,,,
,,,,,,,,2023-08-16_08h44.30.840,HF_wild_card,2022.2.4,Win32,59.97720866,5641c95d17bdbe00102a0b51,64d2fd46c836a06233681665,64dc7e4ec85895763d4e5777,,,,,,,decisionTrl,resources/DY.BMP,resources/DR.BMP,Door1,-0.243048984,-0.028168284,1,0,0,0.5978,optionLeft,30,9420,4,41,0,41,0,1,,,,,,,,,,,,,,,,,,,,,,,,,,,,,,,,,,,,,,,
,,,,,,,,2023-08-16_08h44.30.840,HF_wild_card,2022.2.4,Win32,59.97720866,5641c95d17bdbe00102a0b51,64d2fd46c836a06233681665,64dc7e4ec85895763d4e5777,,,,,,,ctch,resources/DR.BMP,resources/DBN.BMP,Door3,0.187649826,-0.125637828,1,0,0,0.6665,optionRight,70,9490,4,42,0,42,0,1,,,,,,,,,,,,,,,,,,,,,,,,,,,,,,,,,,,,,,,
,,,,,,,,2023-08-16_08h44.30.840,HF_wild_card,2022.2.4,Win32,59.97720866,5641c95d17bdbe00102a0b51,64d2fd46c836a06233681665,64dc7e4ec85895763d4e5777,,,,,,,decisionTrl,resources/DBN.BMP,resources/DB.BMP,Door3,-0.243882047,-0.013172967,1,0,0,0.4809,optionLeft,70,9560,4,43,0,43,0,1,,,,,,,,,,,,,,,,,,,,,,,,,,,,,,,,,,,,,,,
,,,,,,,,2023-08-16_08h44.30.840,HF_wild_card,2022.2.4,Win32,59.97720866,5641c95d17bdbe00102a0b51,64d2fd46c836a06233681665,64dc7e4ec85895763d4e5777,,,,,,,,,,,,,,,,,,,,,,,,,,3,0,3,0,1,,,,,,,,,,,,,,,,,,,,,,,,,,,,,,,,,,
,,,,,,,,2023-08-16_08h44.30.840,HF_wild_card,2022.2.4,Win32,59.97720866,5641c95d17bdbe00102a0b51,64d2fd46c836a06233681665,64dc7e4ec85895763d4e5777,,,,,,,decisionTrl,resources/DB.BMP,resources/DBN.BMP,Door3,0.387587225,-0.185619096,1,0,0,1.2473,optionRight,70,9630,5,0,0,0,0,1,,,,,,,,,,,,,,,,,,,,,,,,,,,,,,,,,,,,,,,
,,,,,,,,2023-08-16_08h44.30.840,HF_wild_card,2022.2.4,Win32,59.97720866,5641c95d17bdbe00102a0b51,64d2fd46c836a06233681665,64dc7e4ec85895763d4e5777,,,,,,,decisionTrl,resources/DB.BMP,resources/DBN.BMP,Door3,0.291783843,-0.015672192,1,0,0,0.5297,optionRight,70,9700,5,1,0,1,0,1,,,,,,,,,,,,,,,,,,,,,,,,,,,,,,,,,,,,,,,
,,,,,,,,2023-08-16_08h44.30.840,HF_wild_card,2022.2.4,Win32,59.97720866,5641c95d17bdbe00102a0b51,64d2fd46c836a06233681665,64dc7e4ec85895763d4e5777,,,,,,,ctch,resources/DR.BMP,resources/DBN.BMP,Door3,0.273456237,-0.013172967,1,0,0,0.5315,optionRight,70,9770,5,2,0,2,0,1,,,,,,,,,,,,,,,,,,,,,,,,,,,,,,,,,,,,,,,
,,,,,,,,2023-08-16_08h44.30.840,HF_wild_card,2022.2.4,Win32,59.97720866,5641c95d17bdbe00102a0b51,64d2fd46c836a06233681665,64dc7e4ec85895763d4e5777,,,,,,,decisionTrl,resources/DR.BMP,resources/DG.BMP,WildCard_NonEx,0.253462504,-0.0031761,1,0,0,0.8823,optionRight,45,9815,5,3,0,3,0,1,,,,,,,,,,,,,,,,,,,,,,,,,,,,,,,,,,,,,,,
,,,,,,,,2023-08-16_08h44.30.840,HF_wild_card,2022.2.4,Win32,59.97720866,5641c95d17bdbe00102a0b51,64d2fd46c836a06233681665,64dc7e4ec85895763d4e5777,,,,,,,sngl,resources/Empty.png,resources/DG.BMP,WildCard_NonEx,0.221805813,-0.029834446,1,0,0,0.5651,optionRight,45,9860,5,4,0,4,0,1,,,,,,,,,,,,,,,,,,,,,,,,,,,,,,,,,,,,,,,
,,,,,,,,2023-08-16_08h44.30.840,HF_wild_card,2022.2.4,Win32,59.97720866,5641c95d17bdbe00102a0b51,64d2fd46c836a06233681665,64dc7e4ec85895763d4e5777,,,,,,,ctch,resources/DY.BMP,resources/DB.BMP,Door4,0.345933562,0.005987703,1,0,0,0.7648,optionRight,80,9940,5,5,0,5,0,1,,,,,,,,,,,,,,,,,,,,,,,,,,,,,,,,,,,,,,,
,,,,,,,,2023-08-16_08h44.30.840,HF_wild_card,2022.2.4,Win32,59.97720866,5641c95d17bdbe00102a0b51,64d2fd46c836a06233681665,64dc7e4ec85895763d4e5777,,,,,,,decisionTrl,resources/DY.BMP,resources/DR.BMP,Door2,0.172654404,-0.006508389,1,0,0,0.6296,optionRight,40,9980,5,6,0,6,0,1,,,,,,,,,,,,,,,,,,,,,,,,,,,,,,,,,,,,,,,
,,,,,,,,2023-08-16_08h44.30.840,HF_wild_card,2022.2.4,Win32,59.97720866,5641c95d17bdbe00102a0b51,64d2fd46c836a06233681665,64dc7e4ec85895763d4e5777,,,,,,,ctch,resources/DY.BMP,resources/DB.BMP,Door4,0.281786942,0.000156188,1,0,0,0.7332,optionRight,60,10040,5,7,0,7,0,1,,,,,,,,,,,,,,,,,,,,,,,,,,,,,,,,,,,,,,,
,,,,,,,,2023-08-16_08h44.30.840,HF_wild_card,2022.2.4,Win32,59.97720866,5641c95d17bdbe00102a0b51,64d2fd46c836a06233681665,64dc7e4ec85895763d4e5777,,,,,,,sngl,resources/Empty.png,resources/DY.BMP,Door1,0.251796447,0.000156188,1,0,0,0.5651,optionRight,30,10070,5,8,0,8,0,1,,,,,,,,,,,,,,,,,,,,,,,,,,,,,,,,,,,,,,,
,,,,,,,,2023-08-16_08h44.30.840,HF_wild_card,2022.2.4,Win32,59.97720866,5641c95d17bdbe00102a0b51,64d2fd46c836a06233681665,64dc7e4ec85895763d4e5777,,,,,,,ctch,resources/DB.BMP,resources/DY.BMP,Door1,0.145162995,0.029313759,1,0,0,0.9467,optionRight,30,10100,5,9,0,9,0,1,,,,,,,,,,,,,,,,,,,,,,,,,,,,,,,,,,,,,,,
,,,,,,,,2023-08-16_08h44.30.840,HF_wild_card,2022.2.4,Win32,59.97720866,5641c95d17bdbe00102a0b51,64d2fd46c836a06233681665,64dc7e4ec85895763d4e5777,,,,,,,decisionTrl,resources/DBN.BMP,resources/DB.BMP,Door3,-0.221389124,-0.028168284,1,0,0,0.498,optionLeft,70,10170,5,10,0,10,0,1,,,,,,,,,,,,,,,,,,,,,,,,,,,,,,,,,,,,,,,
,,,,,,,,2023-08-16_08h44.30.840,HF_wild_card,2022.2.4,Win32,59.97720866,5641c95d17bdbe00102a0b51,64d2fd46c836a06233681665,64dc7e4ec85895763d4e5777,,,,,,,decisionTrl,resources/DY.BMP,resources/DR.BMP,Door2,0.32010842,-0.019837614,1,0,0,0.6645,optionRight,40,10210,5,11,0,11,0,1,,,,,,,,,,,,,,,,,,,,,,,,,,,,,,,,,,,,,,,
,,,,,,,,2023-08-16_08h44.30.840,HF_wild_card,2022.2.4,Win32,59.97720866,5641c95d17bdbe00102a0b51,64d2fd46c836a06233681665,64dc7e4ec85895763d4e5777,,,,,,,ctch,resources/DBN.BMP,resources/DR.BMP,Door3,-0.268874301,-0.0031761,1,0,0,0.4324,optionLeft,70,10280,5,12,0,12,0,1,,,,,,,,,,,,,,,,,,,,,,,,,,,,,,,,,,,,,,,
,,,,,,,,2023-08-16_08h44.30.840,HF_wild_card,2022.2.4,Win32,59.97720866,5641c95d17bdbe00102a0b51,64d2fd46c836a06233681665,64dc7e4ec85895763d4e5777,,,,,,,sngl,resources/Empty.png,resources/DR.BMP,Door2,0.324273773,-0.000676875,1,0,0,0.5819,optionRight,20,10300,5,13,0,13,0,1,,,,,,,,,,,,,,,,,,,,,,,,,,,,,,,,,,,,,,,
,,,,,,,,2023-08-16_08h44.30.840,HF_wild_card,2022.2.4,Win32,59.97720866,5641c95d17bdbe00102a0b51,64d2fd46c836a06233681665,64dc7e4ec85895763d4e5777,,,,,,,decisionTrl,resources/DR.BMP,resources/DY.BMP,Door2,-0.247214406,-0.033166735,1,0,0,0.548,optionLeft,20,10320,5,14,0,14,0,1,,,,,,,,,,,,,,,,,,,,,,,,,,,,,,,,,,,,,,,
,,,,,,,,2023-08-16_08h44.30.840,HF_wild_card,2022.2.4,Win32,59.97720866,5641c95d17bdbe00102a0b51,64d2fd46c836a06233681665,64dc7e4ec85895763d4e5777,,,,,,,decisionTrl,resources/DG.BMP,resources/DBN.BMP,Door3,0.197646588,0.007653795,1,0,0,0.5481,optionRight,70,10390,5,15,0,15,0,1,,,,,,,,,,,,,,,,,,,,,,,,,,,,,,,,,,,,,,,
,,,,,,,,2023-08-16_08h44.30.840,HF_wild_card,2022.2.4,Win32,59.97720866,5641c95d17bdbe00102a0b51,64d2fd46c836a06233681665,64dc7e4ec85895763d4e5777,,,,,,,sngl,resources/DR.BMP,resources/Empty.png,Door2,-0.171404757,-0.012339903,1,0,0,0.5652,optionLeft,40,10430,5,16,0,16,0,1,,,,,,,,,,,,,,,,,,,,,,,,,,,,,,,,,,,,,,,
,,,,,,,,2023-08-16_08h44.30.840,HF_wild_card,2022.2.4,Win32,59.97720866,5641c95d17bdbe00102a0b51,64d2fd46c836a06233681665,64dc7e4ec85895763d4e5777,,,,,,,sngl,resources/DY.BMP,resources/Empty.png,Door1,-0.200562223,-0.005675326,1,0,0,0.4987,optionLeft,30,10460,5,17,0,17,0,1,,,,,,,,,,,,,,,,,,,,,,,,,,,,,,,,,,,,,,,
,,,,,,,,2023-08-16_08h44.30.840,HF_wild_card,2022.2.4,Win32,59.97720866,5641c95d17bdbe00102a0b51,64d2fd46c836a06233681665,64dc7e4ec85895763d4e5777,,,,,,,decisionTrl,resources/DBN.BMP,resources/DB.BMP,Door3,-0.151411024,-0.013172967,1,0,0,0.5645,optionLeft,70,10530,5,18,0,18,0,1,,,,,,,,,,,,,,,,,,,,,,,,,,,,,,,,,,,,,,,
,,,,,,,,2023-08-16_08h44.30.840,HF_wild_card,2022.2.4,Win32,59.97720866,5641c95d17bdbe00102a0b51,64d2fd46c836a06233681665,64dc7e4ec85895763d4e5777,,,,,,,sngl,resources/Empty.png,resources/DB.BMP,Door4,0.268457786,-0.000676875,1,0,0,0.5495,optionRight,60,10590,5,19,0,19,0,1,,,,,,,,,,,,,,,,,,,,,,,,,,,,,,,,,,,,,,,
,,,,,,,,2023-08-16_08h44.30.840,HF_wild_card,2022.2.4,Win32,59.97720866,5641c95d17bdbe00102a0b51,64d2fd46c836a06233681665,64dc7e4ec85895763d4e5777,,,,,,,decisionTrl,resources/DB.BMP,resources/DBN.BMP,Door3,0.273456237,-0.009007615,1,0,0,0.6649,optionRight,70,10660,5,20,0,20,0,1,,,,,,,,,,,,,,,,,,,,,,,,,,,,,,,,,,,,,,,
,,,,,,,,2023-08-16_08h44.30.840,HF_wild_card,2022.2.4,Win32,59.97720866,5641c95d17bdbe00102a0b51,64d2fd46c836a06233681665,64dc7e4ec85895763d4e5777,,,,,,,decisionTrl,resources/DG.BMP,resources/DB.BMP,WildCard_NonEx,-0.286368843,-0.009007615,1,0,0,0.7099,optionLeft,55,10715,5,21,0,21,0,1,,,,,,,,,,,,,,,,,,,,,,,,,,,,,,,,,,,,,,,
,,,,,,,,2023-08-16_08h44.30.840,HF_wild_card,2022.2.4,Win32,59.97720866,5641c95d17bdbe00102a0b51,64d2fd46c836a06233681665,64dc7e4ec85895763d4e5777,,,,,,,sngl,resources/DG.BMP,resources/Empty.png,WildCard_NonEx,-0.250546695,-0.018171417,1,0,0,0.4985,optionLeft,45,10760,5,22,0,22,0,1,,,,,,,,,,,,,,,,,,,,,,,,,,,,,,,,,,,,,,,
,,,,,,,,2023-08-16_08h44.30.840,HF_wild_card,2022.2.4,Win32,59.97720866,5641c95d17bdbe00102a0b51,64d2fd46c836a06233681665,64dc7e4ec85895763d4e5777,,,,,,,decisionTrl,resources/DY.BMP,resources/DG.BMP,WildCard_NonEx,0.342601309,0.016817598,1,0,0,0.8483,optionRight,45,10805,5,23,0,23,0,1,,,,,,,,,,,,,,,,,,,,,,,,,,,,,,,,,,,,,,,
,,,,,,,,2023-08-16_08h44.30.840,HF_wild_card,2022.2.4,Win32,59.97720866,5641c95d17bdbe00102a0b51,64d2fd46c836a06233681665,64dc7e4ec85895763d4e5777,,,,,,,decisionTrl,resources/DBN.BMP,resources/DB.BMP,Door3,-0.314693315,-0.033999798,1,0,0,0.5818,optionLeft,70,10875,5,24,0,24,0,1,,,,,,,,,,,,,,,,,,,,,,,,,,,,,,,,,,,,,,,
,,,,,,,,2023-08-16_08h44.30.840,HF_wild_card,2022.2.4,Win32,59.97720866,5641c95d17bdbe00102a0b51,64d2fd46c836a06233681665,64dc7e4ec85895763d4e5777,,,,,,,ctch,resources/DB.BMP,resources/DY.BMP,Door4,-0.287201907,0.005154639,1,0,0,0.5476,optionLeft,60,10935,5,25,0,25,0,1,,,,,,,,,,,,,,,,,,,,,,,,,,,,,,,,,,,,,,,
,,,,,,,,2023-08-16_08h44.30.840,HF_wild_card,2022.2.4,Win32,59.97720866,5641c95d17bdbe00102a0b51,64d2fd46c836a06233681665,64dc7e4ec85895763d4e5777,,,,,,,sngl,resources/DG.BMP,resources/Empty.png,WildCard_NonEx,-0.262209723,0.004321541,1,0,0,0.5316,optionLeft,55,10990,5,26,0,26,0,1,,,,,,,,,,,,,,,,,,,,,,,,,,,,,,,,,,,,,,,
,,,,,,,,2023-08-16_08h44.30.840,HF_wild_card,2022.2.4,Win32,59.97720866,5641c95d17bdbe00102a0b51,64d2fd46c836a06233681665,64dc7e4ec85895763d4e5777,,,,,,,decisionTrl,resources/DR.BMP,resources/DY.BMP,Door2,-0.27720504,-0.037332087,1,0,0,0.6319,optionLeft,20,11010,5,27,0,27,0,1,,,,,,,,,,,,,,,,,,,,,,,,,,,,,,,,,,,,,,,
,,,,,,,,2023-08-16_08h44.30.840,HF_wild_card,2022.2.4,Win32,59.97720866,5641c95d17bdbe00102a0b51,64d2fd46c836a06233681665,64dc7e4ec85895763d4e5777,,,,,,,ctch,resources/DR.BMP,resources/DBN.BMP,Door3,0.214308067,-0.008174551,1,0,0,0.5985,optionRight,70,11080,5,28,0,28,0,1,,,,,,,,,,,,,,,,,,,,,,,,,,,,,,,,,,,,,,,
,,,,,,,,2023-08-16_08h44.30.840,HF_wild_card,2022.2.4,Win32,59.97720866,5641c95d17bdbe00102a0b51,64d2fd46c836a06233681665,64dc7e4ec85895763d4e5777,,,,,,,decisionTrl,resources/DR.BMP,resources/DY.BMP,Door1,0.249297222,-0.007341523,1,0,0,0.4645,optionRight,30,11110,5,29,0,29,0,1,,,,,,,,,,,,,,,,,,,,,,,,,,,,,,,,,,,,,,,
,,,,,,,,2023-08-16_08h44.30.840,HF_wild_card,2022.2.4,Win32,59.97720866,5641c95d17bdbe00102a0b51,64d2fd46c836a06233681665,64dc7e4ec85895763d4e5777,,,,,,,sngl,resources/Empty.png,resources/DBN.BMP,Door3,0.371758844,0.01265228,1,0,0,0.531,optionRight,70,11180,5,30,0,30,0,1,,,,,,,,,,,,,,,,,,,,,,,,,,,,,,,,,,,,,,,
,,,,,,,,2023-08-16_08h44.30.840,HF_wild_card,2022.2.4,Win32,59.97720866,5641c95d17bdbe00102a0b51,64d2fd46c836a06233681665,64dc7e4ec85895763d4e5777,,,,,,,sngl,resources/DB.BMP,resources/Empty.png,Door4,-0.203894616,-0.031500573,1,0,0,0.467,optionLeft,80,11260,5,31,0,31,0,1,,,,,,,,,,,,,,,,,,,,,,,,,,,,,,,,,,,,,,,
,,,,,,,,2023-08-16_08h44.30.840,HF_wild_card,2022.2.4,Win32,59.97720866,5641c95d17bdbe00102a0b51,64d2fd46c836a06233681665,64dc7e4ec85895763d4e5777,,,,,,,sngl,resources/DBN.BMP,resources/Empty.png,Door3,-0.285535745,-0.001510008,1,0,0,0.5152,optionLeft,70,11330,5,32,0,32,0,1,,,,,,,,,,,,,,,,,,,,,,,,,,,,,,,,,,,,,,,
,,,,,,,,2023-08-16_08h44.30.840,HF_wild_card,2022.2.4,Win32,59.97720866,5641c95d17bdbe00102a0b51,64d2fd46c836a06233681665,64dc7e4ec85895763d4e5777,,,,,,,decisionTrl,resources/DR.BMP,resources/DY.BMP,Door1,0.322607646,-0.023169868,1,0,0,0.634,optionRight,30,11360,5,33,0,33,0,1,,,,,,,,,,,,,,,,,,,,,,,,,,,,,,,,,,,,,,,
,,,,,,,,2023-08-16_08h44.30.840,HF_wild_card,2022.2.4,Win32,59.97720866,5641c95d17bdbe00102a0b51,64d2fd46c836a06233681665,64dc7e4ec85895763d4e5777,,,,,,,decisionTrl,resources/DG.BMP,resources/DR.BMP,WildCard_NonEx,-0.215557575,0.019316858,1,0,0,0.5481,optionLeft,45,11405,5,34,0,34,0,1,,,,,,,,,,,,,,,,,,,,,,,,,,,,,,,,,,,,,,,
,,,,,,,,2023-08-16_08h44.30.840,HF_wild_card,2022.2.4,Win32,59.97720866,5641c95d17bdbe00102a0b51,64d2fd46c836a06233681665,64dc7e4ec85895763d4e5777,,,,,,,decisionTrl,resources/DB.BMP,resources/DBN.BMP,Door3,0.417577929,-0.015672192,1,0,0,0.4819,optionRight,70,11475,5,35,0,35,0,1,,,,,,,,,,,,,,,,,,,,,,,,,,,,,,,,,,,,,,,
,,,,,,,,2023-08-16_08h44.30.840,HF_wild_card,2022.2.4,Win32,59.97720866,5641c95d17bdbe00102a0b51,64d2fd46c836a06233681665,64dc7e4ec85895763d4e5777,,,,,,,ctch,resources/DBN.BMP,resources/DR.BMP,Door3,-0.293866484,-0.048995115,1,0,0,0.5652,optionLeft,70,11545,5,36,0,36,0,1,,,,,,,,,,,,,,,,,,,,,,,,,,,,,,,,,,,,,,,
,,,,,,,,2023-08-16_08h44.30.840,HF_wild_card,2022.2.4,Win32,59.97720866,5641c95d17bdbe00102a0b51,64d2fd46c836a06233681665,64dc7e4ec85895763d4e5777,,,,,,,decisionTrl,resources/DBN.BMP,resources/DB.BMP,Door3,-0.357180042,-0.025669128,1,0,0,0.5145,optionLeft,70,11615,5,37,0,37,0,1,,,,,,,,,,,,,,,,,,,,,,,,,,,,,,,,,,,,,,,
,,,,,,,,2023-08-16_08h44.30.840,HF_wild_card,2022.2.4,Win32,59.97720866,5641c95d17bdbe00102a0b51,64d2fd46c836a06233681665,64dc7e4ec85895763d4e5777,,,,,,,decisionTrl,resources/DG.BMP,resources/DY.BMP,Door1,0.345100604,-0.025669128,1,0,0,0.5982,optionRight,30,11645,5,38,0,38,0,1,,,,,,,,,,,,,,,,,,,,,,,,,,,,,,,,,,,,,,,
,,,,,,,,2023-08-16_08h44.30.840,HF_wild_card,2022.2.4,Win32,59.97720866,5641c95d17bdbe00102a0b51,64d2fd46c836a06233681665,64dc7e4ec85895763d4e5777,,,,,,,decisionTrl,resources/DY.BMP,resources/DR.BMP,Door1,-0.255545075,-0.025669128,1,0,0,0.5483,optionLeft,30,11675,5,39,0,39,0,1,,,,,,,,,,,,,,,,,,,,,,,,,,,,,,,,,,,,,,,
,,,,,,,,2023-08-16_08h44.30.840,HF_wild_card,2022.2.4,Win32,59.97720866,5641c95d17bdbe00102a0b51,64d2fd46c836a06233681665,64dc7e4ec85895763d4e5777,,,,,,,sngl,resources/Empty.png,resources/DG.BMP,WildCard_NonEx,0.243465603,-0.0031761,1,0,0,0.448,optionRight,55,11730,5,40,0,40,0,1,,,,,,,,,,,,,,,,,,,,,,,,,,,,,,,,,,,,,,,
,,,,,,,,2023-08-16_08h44.30.840,HF_wild_card,2022.2.4,Win32,59.97720866,5641c95d17bdbe00102a0b51,64d2fd46c836a06233681665,64dc7e4ec85895763d4e5777,,,,,,,decisionTrl,resources/DBN.BMP,resources/DG.BMP,Door3,-0.211392222,-0.007341523,1,0,0,0.4478,optionLeft,70,11800,5,41,0,41,0,1,,,,,,,,,,,,,,,,,,,,,,,,,,,,,,,,,,,,,,,
,,,,,,,,2023-08-16_08h44.30.840,HF_wild_card,2022.2.4,Win32,59.97720866,5641c95d17bdbe00102a0b51,64d2fd46c836a06233681665,64dc7e4ec85895763d4e5777,,,,,,,decisionTrl,resources/DB.BMP,resources/DG.BMP,Door4,-0.333020921,-0.02233677,1,0,0,0.4794,optionLeft,80,11880,5,42,0,42,0,1,,,,,,,,,,,,,,,,,,,,,,,,,,,,,,,,,,,,,,,
,,,,,,,,2023-08-16_08h44.30.840,HF_wild_card,2022.2.4,Win32,59.97720866,5641c95d17bdbe00102a0b51,64d2fd46c836a06233681665,64dc7e4ec85895763d4e5777,,,,,,,decisionTrl,resources/DY.BMP,resources/DR.BMP,Door1,-0.361345394,-0.009007615,1,0,0,0.4651,optionLeft,30,11910,5,43,0,43,0,1,,,,,,,,,,,,,,,,,,,,,,,,,,,,,,,,,,,,,,,
,,,,,,,,2023-08-16_08h44.30.840,HF_wild_card,2022.2.4,Win32,59.97720866,5641c95d17bdbe00102a0b51,64d2fd46c836a06233681665,64dc7e4ec85895763d4e5777,,,,,,,,,,,,,,,,,,,,,,,,,,4,0,4,0,1,,,,,,,,,,,,,,,,,,,,,,,,,,,,,,,,,,
,,,,,,,,2023-08-16_08h44.30.840,HF_wild_card,2022.2.4,Win32,59.97720866,5641c95d17bdbe00102a0b51,64d2fd46c836a06233681665,64dc7e4ec85895763d4e5777,,,,,,,decisionTrl,resources/DG.BMP,resources/DB.BMP,Door4,0.445069338,-0.09231494,1,0,0,1.1424,optionRight,80,11990,6,0,0,0,0,1,,,,,,,,,,,,,,,,,,,,,,,,,,,,,,,,,,,,,,,
,,,,,,,,2023-08-16_08h44.30.840,HF_wild_card,2022.2.4,Win32,59.97720866,5641c95d17bdbe00102a0b51,64d2fd46c836a06233681665,64dc7e4ec85895763d4e5777,,,,,,,sngl,resources/DG.BMP,resources/Empty.png,WildCard_NonEx,-0.250546695,-0.033166735,1,0,0,0.4989,optionLeft,55,12045,6,1,0,1,0,1,,,,,,,,,,,,,,,,,,,,,,,,,,,,,,,,,,,,,,,
,,,,,,,,2023-08-16_08h44.30.840,HF_wild_card,2022.2.4,Win32,59.97720866,5641c95d17bdbe00102a0b51,64d2fd46c836a06233681665,64dc7e4ec85895763d4e5777,,,,,,,sngl,resources/DBN.BMP,resources/Empty.png,Door3,-0.267208139,-0.014839129,1,0,0,0.4825,optionLeft,70,12115,6,2,0,2,0,1,,,,,,,,,,,,,,,,,,,,,,,,,,,,,,,,,,,,,,,
,,,,,,,,2023-08-16_08h44.30.840,HF_wild_card,2022.2.4,Win32,59.97720866,5641c95d17bdbe00102a0b51,64d2fd46c836a06233681665,64dc7e4ec85895763d4e5777,,,,,,,sngl,resources/DB.BMP,resources/Empty.png,Door4,-0.33635321,-0.042330538,1,0,0,0.5151,optionLeft,60,12175,6,3,0,3,0,1,,,,,,,,,,,,,,,,,,,,,,,,,,,,,,,,,,,,,,,
,,,,,,,,2023-08-16_08h44.30.840,HF_wild_card,2022.2.4,Win32,59.97720866,5641c95d17bdbe00102a0b51,64d2fd46c836a06233681665,64dc7e4ec85895763d4e5777,,,,,,,sngl,resources/Empty.png,resources/DG.BMP,WildCard_NonEx,0.228470321,-0.056492826,1,0,0,0.7816,optionRight,55,12230,6,4,0,4,0,1,,,,,,,,,,,,,,,,,,,,,,,,,,,,,,,,,,,,,,,
,,,,,,,,2023-08-16_08h44.30.840,HF_wild_card,2022.2.4,Win32,59.97720866,5641c95d17bdbe00102a0b51,64d2fd46c836a06233681665,64dc7e4ec85895763d4e5777,,,,,,,ctch,resources/DBN.BMP,resources/DR.BMP,Door3,-0.280537329,-0.030667509,1,0,0,0.5156,optionLeft,70,12300,6,5,0,5,0,1,,,,,,,,,,,,,,,,,,,,,,,,,,,,,,,,,,,,,,,
,,,,,,,,2023-08-16_08h44.30.840,HF_wild_card,2022.2.4,Win32,59.97720866,5641c95d17bdbe00102a0b51,64d2fd46c836a06233681665,64dc7e4ec85895763d4e5777,,,,,,,decisionTrl,resources/DR.BMP,resources/DY.BMP,Door1,0.255128631,-0.033999798,1,0,0,0.5638,optionRight,30,12330,6,6,0,6,0,1,,,,,,,,,,,,,,,,,,,,,,,,,,,,,,,,,,,,,,,
,,,,,,,,2023-08-16_08h44.30.840,HF_wild_card,2022.2.4,Win32,59.97720866,5641c95d17bdbe00102a0b51,64d2fd46c836a06233681665,64dc7e4ec85895763d4e5777,,,,,,,decisionTrl,resources/DB.BMP,resources/DBN.BMP,Door3,0.384254971,-0.032333671,1,0,0,0.6148,optionRight,70,12400,6,7,0,7,0,1,,,,,,,,,,,,,,,,,,,,,,,,,,,,,,,,,,,,,,,
,,,,,,,,2023-08-16_08h44.30.840,HF_wild_card,2022.2.4,Win32,59.97720866,5641c95d17bdbe00102a0b51,64d2fd46c836a06233681665,64dc7e4ec85895763d4e5777,,,,,,,decisionTrl,resources/DG.BMP,resources/DY.BMP,WildCard_NonEx,-0.252212787,-0.005675326,1,0,0,0.8305,optionLeft,45,12445,6,8,0,8,0,1,,,,,,,,,,,,,,,,,,,,,,,,,,,,,,,,,,,,,,,
,,,,,,,,2023-08-16_08h44.30.840,HF_wild_card,2022.2.4,Win32,59.97720866,5641c95d17bdbe00102a0b51,64d2fd46c836a06233681665,64dc7e4ec85895763d4e5777,,,,,,,sngl,resources/Empty.png,resources/DG.BMP,WildCard_NonEx,0.405914831,-0.002343037,1,0,0,0.5486,optionRight,45,12490,6,9,0,9,0,1,,,,,,,,,,,,,,,,,,,,,,,,,,,,,,,,,,,,,,,
,,,,,,,,2023-08-16_08h44.30.840,HF_wild_card,2022.2.4,Win32,59.97720866,5641c95d17bdbe00102a0b51,64d2fd46c836a06233681665,64dc7e4ec85895763d4e5777,,,,,,,sngl,resources/Empty.png,resources/DY.BMP,Door1,0.265958561,-0.015672192,1,0,0,0.4977,optionRight,30,12520,6,10,0,10,0,1,,,,,,,,,,,,,,,,,,,,,,,,,,,,,,,,,,,,,,,
,,,,,,,,2023-08-16_08h44.30.840,HF_wild_card,2022.2.4,Win32,59.97720866,5641c95d17bdbe00102a0b51,64d2fd46c836a06233681665,64dc7e4ec85895763d4e5777,,,,,,,decisionTrl,resources/DR.BMP,resources/DY.BMP,Door1,0.319275252,-0.030667509,1,0,0,0.8485,optionRight,30,12550,6,11,0,11,0,1,,,,,,,,,,,,,,,,,,,,,,,,,,,,,,,,,,,,,,,
,,,,,,,,2023-08-16_08h44.30.840,HF_wild_card,2022.2.4,Win32,59.97720866,5641c95d17bdbe00102a0b51,64d2fd46c836a06233681665,64dc7e4ec85895763d4e5777,,,,,,,decisionTrl,resources/DR.BMP,resources/DY.BMP,Door2,-0.242215955,-0.048162052,1,0,0,0.5014,optionLeft,20,12570,6,12,0,12,0,1,,,,,,,,,,,,,,,,,,,,,,,,,,,,,,,,,,,,,,,
,,,,,,,,2023-08-16_08h44.30.840,HF_wild_card,2022.2.4,Win32,59.97720866,5641c95d17bdbe00102a0b51,64d2fd46c836a06233681665,64dc7e4ec85895763d4e5777,,,,,,,sngl,resources/DY.BMP,resources/Empty.png,Door1,-0.305529512,-0.016505326,1,0,0,0.4811,optionLeft,30,12600,6,13,0,13,0,1,,,,,,,,,,,,,,,,,,,,,,,,,,,,,,,,,,,,,,,
,,,,,,,,2023-08-16_08h44.30.840,HF_wild_card,2022.2.4,Win32,59.97720866,5641c95d17bdbe00102a0b51,64d2fd46c836a06233681665,64dc7e4ec85895763d4e5777,,,,,,,decisionTrl,resources/DY.BMP,resources/DR.BMP,Door2,0.233468841,-0.037332087,1,0,0,0.8319,optionRight,40,12640,6,14,0,14,0,1,,,,,,,,,,,,,,,,,,,,,,,,,,,,,,,,,,,,,,,
,,,,,,,,2023-08-16_08h44.30.840,HF_wild_card,2022.2.4,Win32,59.97720866,5641c95d17bdbe00102a0b51,64d2fd46c836a06233681665,64dc7e4ec85895763d4e5777,,,,,,,sngl,resources/Empty.png,resources/DBN.BMP,Door3,0.228470321,-0.012339903,1,0,0,0.5666,optionRight,70,12710,6,15,0,15,0,1,,,,,,,,,,,,,,,,,,,,,,,,,,,,,,,,,,,,,,,
,,,,,,,,2023-08-16_08h44.30.840,HF_wild_card,2022.2.4,Win32,59.97720866,5641c95d17bdbe00102a0b51,64d2fd46c836a06233681665,64dc7e4ec85895763d4e5777,,,,,,,ctch,resources/DB.BMP,resources/DY.BMP,Door1,0.347599759,0.002655414,1,0,0,0.931,optionRight,30,12740,6,16,0,16,0,1,,,,,,,,,,,,,,,,,,,,,,,,,,,,,,,,,,,,,,,
,,,,,,,,2023-08-16_08h44.30.840,HF_wild_card,2022.2.4,Win32,59.97720866,5641c95d17bdbe00102a0b51,64d2fd46c836a06233681665,64dc7e4ec85895763d4e5777,,,,,,,decisionTrl,resources/DB.BMP,resources/DBN.BMP,Door3,0.23930025,-0.029001417,1,0,0,0.6129,optionRight,70,12810,6,17,0,17,0,1,,,,,,,,,,,,,,,,,,,,,,,,,,,,,,,,,,,,,,,
,,,,,,,,2023-08-16_08h44.30.840,HF_wild_card,2022.2.4,Win32,59.97720866,5641c95d17bdbe00102a0b51,64d2fd46c836a06233681665,64dc7e4ec85895763d4e5777,,,,,,,sngl,resources/Empty.png,resources/DB.BMP,Door4,0.283453138,0.002655414,1,0,0,0.4767,optionRight,80,12890,6,18,0,18,0,1,,,,,,,,,,,,,,,,,,,,,,,,,,,,,,,,,,,,,,,
,,,,,,,,2023-08-16_08h44.30.840,HF_wild_card,2022.2.4,Win32,59.97720866,5641c95d17bdbe00102a0b51,64d2fd46c836a06233681665,64dc7e4ec85895763d4e5777,,,,,,,decisionTrl,resources/DB.BMP,resources/DBN.BMP,Door3,0.280120815,0.005154639,1,0,0,0.4152,optionRight,70,12960,6,19,0,19,0,1,,,,,,,,,,,,,,,,,,,,,,,,,,,,,,,,,,,,,,,
,,,,,,,,2023-08-16_08h44.30.840,HF_wild_card,2022.2.4,Win32,59.97720866,5641c95d17bdbe00102a0b51,64d2fd46c836a06233681665,64dc7e4ec85895763d4e5777,,,,,,,sngl,resources/DR.BMP,resources/Empty.png,Door2,-0.157242503,-0.006508389,1,0,0,0.5986,optionLeft,20,12980,6,20,0,20,0,1,,,,,,,,,,,,,,,,,,,,,,,,,,,,,,,,,,,,,,,
,,,,,,,,2023-08-16_08h44.30.840,HF_wild_card,2022.2.4,Win32,59.97720866,5641c95d17bdbe00102a0b51,64d2fd46c836a06233681665,64dc7e4ec85895763d4e5777,,,,,,,decisionTrl,resources/DG.BMP,resources/DR.BMP,Door2,0.256794758,0.002655414,1,0,0,0.5002,optionRight,20,13000,6,21,0,21,0,1,,,,,,,,,,,,,,,,,,,,,,,,,,,,,,,,,,,,,,,
,,,,,,,,2023-08-16_08h44.30.840,HF_wild_card,2022.2.4,Win32,59.97720866,5641c95d17bdbe00102a0b51,64d2fd46c836a06233681665,64dc7e4ec85895763d4e5777,,,,,,,decisionTrl,resources/DY.BMP,resources/DR.BMP,Door1,-0.259710498,-0.024835995,1,0,0,0.4983,optionLeft,30,13030,6,22,0,22,0,1,,,,,,,,,,,,,,,,,,,,,,,,,,,,,,,,,,,,,,,
,,,,,,,,2023-08-16_08h44.30.840,HF_wild_card,2022.2.4,Win32,59.97720866,5641c95d17bdbe00102a0b51,64d2fd46c836a06233681665,64dc7e4ec85895763d4e5777,,,,,,,decisionTrl,resources/DB.BMP,resources/DBN.BMP,Door3,0.38508807,-0.001510008,1,0,0,0.4985,optionRight,70,13100,6,23,0,23,0,1,,,,,,,,,,,,,,,,,,,,,,,,,,,,,,,,,,,,,,,
,,,,,,,,2023-08-16_08h44.30.840,HF_wild_card,2022.2.4,Win32,59.97720866,5641c95d17bdbe00102a0b51,64d2fd46c836a06233681665,64dc7e4ec85895763d4e5777,,,,,,,sngl,resources/DG.BMP,resources/Empty.png,WildCard_NonEx,-0.315526379,-0.038998284,1,0,0,0.4485,optionLeft,45,13145,6,24,0,24,0,1,,,,,,,,,,,,,,,,,,,,,,,,,,,,,,,,,,,,,,,
,,,,,,,,2023-08-16_08h44.30.840,HF_wild_card,2022.2.4,Win32,59.97720866,5641c95d17bdbe00102a0b51,64d2fd46c836a06233681665,64dc7e4ec85895763d4e5777,,,,,,,ctch,resources/DY.BMP,resources/DB.BMP,Door4,0.267624828,0.000989252,1,0,0,0.5507,optionRight,80,13225,6,25,0,25,0,1,,,,,,,,,,,,,,,,,,,,,,,,,,,,,,,,,,,,,,,
,,,,,,,,2023-08-16_08h44.30.840,HF_wild_card,2022.2.4,Win32,59.97720866,5641c95d17bdbe00102a0b51,64d2fd46c836a06233681665,64dc7e4ec85895763d4e5777,,,,,,,ctch,resources/DBN.BMP,resources/DR.BMP,Door3,-0.310527893,-0.058991982,1,0,0,0.5302,optionLeft,70,13295,6,26,0,26,0,1,,,,,,,,,,,,,,,,,,,,,,,,,,,,,,,,,,,,,,,
,,,,,,,,2023-08-16_08h44.30.840,HF_wild_card,2022.2.4,Win32,59.97720866,5641c95d17bdbe00102a0b51,64d2fd46c836a06233681665,64dc7e4ec85895763d4e5777,,,,,,,decisionTrl,resources/DBN.BMP,resources/DB.BMP,Door3,-0.249713631,-0.018171417,1,0,0,0.4653,optionLeft,70,13365,6,27,0,27,0,1,,,,,,,,,,,,,,,,,,,,,,,,,,,,,,,,,,,,,,,
,,,,,,,,2023-08-16_08h44.30.840,HF_wild_card,2022.2.4,Win32,59.97720866,5641c95d17bdbe00102a0b51,64d2fd46c836a06233681665,64dc7e4ec85895763d4e5777,,,,,,,decisionTrl,resources/DG.BMP,resources/DBN.BMP,Door3,0.412579479,0.004321541,1,0,0,0.5795,optionRight,70,13435,6,28,0,28,0,1,,,,,,,,,,,,,,,,,,,,,,,,,,,,,,,,,,,,,,,
,,,,,,,,2023-08-16_08h44.30.840,HF_wild_card,2022.2.4,Win32,59.97720866,5641c95d17bdbe00102a0b51,64d2fd46c836a06233681665,64dc7e4ec85895763d4e5777,,,,,,,decisionTrl,resources/DBN.BMP,resources/DB.BMP,Door3,-0.231385955,-0.007341523,1,0,0,0.4979,optionLeft,70,13505,6,29,0,29,0,1,,,,,,,,,,,,,,,,,,,,,,,,,,,,,,,,,,,,,,,
,,,,,,,,2023-08-16_08h44.30.840,HF_wild_card,2022.2.4,Win32,59.97720866,5641c95d17bdbe00102a0b51,64d2fd46c836a06233681665,64dc7e4ec85895763d4e5777,,,,,,,ctch,resources/DR.BMP,resources/DBN.BMP,Door3,0.22347187,-0.009840678,1,0,0,0.5816,optionRight,70,13575,6,30,0,30,0,1,,,,,,,,,,,,,,,,,,,,,,,,,,,,,,,,,,,,,,,
,,,,,,,,2023-08-16_08h44.30.840,HF_wild_card,2022.2.4,Win32,59.97720866,5641c95d17bdbe00102a0b51,64d2fd46c836a06233681665,64dc7e4ec85895763d4e5777,,,,,,,decisionTrl,resources/DBN.BMP,resources/DB.BMP,Door3,-0.263042786,-0.014006065,1,0,0,0.4316,optionLeft,70,13645,6,31,0,31,0,1,,,,,,,,,,,,,,,,,,,,,,,,,,,,,,,,,,,,,,,
,,,,,,,,2023-08-16_08h44.30.840,HF_wild_card,2022.2.4,Win32,59.97720866,5641c95d17bdbe00102a0b51,64d2fd46c836a06233681665,64dc7e4ec85895763d4e5777,,,,,,,decisionTrl,resources/DBN.BMP,resources/DB.BMP,Door3,-0.234718314,-0.019004481,1,0,0,0.4317,optionLeft,70,13715,6,32,0,32,0,1,,,,,,,,,,,,,,,,,,,,,,,,,,,,,,,,,,,,,,,
,,,,,,,,2023-08-16_08h44.30.840,HF_wild_card,2022.2.4,Win32,59.97720866,5641c95d17bdbe00102a0b51,64d2fd46c836a06233681665,64dc7e4ec85895763d4e5777,,,,,,,decisionTrl,resources/DY.BMP,resources/DR.BMP,Door1,-0.217223772,-0.049828179,1,0,0,0.515,optionLeft,30,13745,6,33,0,33,0,1,,,,,,,,,,,,,,,,,,,,,,,,,,,,,,,,,,,,,,,
,,,,,,,,2023-08-16_08h44.30.840,HF_wild_card,2022.2.4,Win32,59.97720866,5641c95d17bdbe00102a0b51,64d2fd46c836a06233681665,64dc7e4ec85895763d4e5777,,,,,,,ctch,resources/DR.BMP,resources/DBN.BMP,Door3,0.290117716,-0.004842262,1,0,0,0.5971,optionRight,70,13815,6,34,0,34,0,1,,,,,,,,,,,,,,,,,,,,,,,,,,,,,,,,,,,,,,,
,,,,,,,,2023-08-16_08h44.30.840,HF_wild_card,2022.2.4,Win32,59.97720866,5641c95d17bdbe00102a0b51,64d2fd46c836a06233681665,64dc7e4ec85895763d4e5777,,,,,,,decisionTrl,resources/DY.BMP,resources/DR.BMP,Door1,-0.163907011,0.004321541,1,0,0,0.5321,optionLeft,30,13845,6,35,0,35,0,1,,,,,,,,,,,,,,,,,,,,,,,,,,,,,,,,,,,,,,,
,,,,,,,,2023-08-16_08h44.30.840,HF_wild_card,2022.2.4,Win32,59.97720866,5641c95d17bdbe00102a0b51,64d2fd46c836a06233681665,64dc7e4ec85895763d4e5777,,,,,,,ctch,resources/DY.BMP,resources/DB.BMP,Door4,0.286785602,0.015151506,1,0,0,0.8655,optionRight,60,13905,6,36,0,36,0,1,,,,,,,,,,,,,,,,,,,,,,,,,,,,,,,,,,,,,,,
,,,,,,,,2023-08-16_08h44.30.840,HF_wild_card,2022.2.4,Win32,59.97720866,5641c95d17bdbe00102a0b51,64d2fd46c836a06233681665,64dc7e4ec85895763d4e5777,,,,,,,decisionTrl,resources/DBN.BMP,resources/DG.BMP,Door3,-0.281370392,-0.02233677,1,0,0,0.832,optionLeft,70,13975,6,37,0,37,0,1,,,,,,,,,,,,,,,,,,,,,,,,,,,,,,,,,,,,,,,
,,,,,,,,2023-08-16_08h44.30.840,HF_wild_card,2022.2.4,Win32,59.97720866,5641c95d17bdbe00102a0b51,64d2fd46c836a06233681665,64dc7e4ec85895763d4e5777,,,,,,,sngl,resources/Empty.png,resources/DR.BMP,Door2,0.332604617,-0.0031761,1,0,0,0.5467,optionRight,40,14015,6,38,0,38,0,1,,,,,,,,,,,,,,,,,,,,,,,,,,,,,,,,,,,,,,,
,,,,,,,,2023-08-16_08h44.30.840,HF_wild_card,2022.2.4,Win32,59.97720866,5641c95d17bdbe00102a0b51,64d2fd46c836a06233681665,64dc7e4ec85895763d4e5777,,,,,,,decisionTrl,resources/DR.BMP,resources/DY.BMP,Door1,0.32593983,0.005987703,1,0,0,0.8979,optionRight,30,14045,6,39,0,39,0,1,,,,,,,,,,,,,,,,,,,,,,,,,,,,,,,,,,,,,,,
,,,,,,,,2023-08-16_08h44.30.840,HF_wild_card,2022.2.4,Win32,59.97720866,5641c95d17bdbe00102a0b51,64d2fd46c836a06233681665,64dc7e4ec85895763d4e5777,,,,,,,decisionTrl,resources/DB.BMP,resources/DG.BMP,Door4,-0.255545075,0.008486928,1,0,0,0.5633,optionLeft,60,14105,6,40,0,40,0,1,,,,,,,,,,,,,,,,,,,,,,,,,,,,,,,,,,,,,,,
,,,,,,,,2023-08-16_08h44.30.840,HF_wild_card,2022.2.4,Win32,59.97720866,5641c95d17bdbe00102a0b51,64d2fd46c836a06233681665,64dc7e4ec85895763d4e5777,,,,,,,ctch,resources/DB.BMP,resources/DY.BMP,Door4,-0.189732223,-0.043996734,1,0,0,0.6296,optionLeft,60,14165,6,41,0,41,0,1,,,,,,,,,,,,,,,,,,,,,,,,,,,,,,,,,,,,,,,
,,,,,,,,2023-08-16_08h44.30.840,HF_wild_card,2022.2.4,Win32,59.97720866,5641c95d17bdbe00102a0b51,64d2fd46c836a06233681665,64dc7e4ec85895763d4e5777,,,,,,,decisionTrl,resources/DY.BMP,resources/DG.BMP,WildCard_NonEx,0.190148912,0.007653795,1,0,0,0.7151,optionRight,45,14210,6,42,0,42,0,1,,,,,,,,,,,,,,,,,,,,,,,,,,,,,,,,,,,,,,,
,,,,,,,,2023-08-16_08h44.30.840,HF_wild_card,2022.2.4,Win32,59.97720866,5641c95d17bdbe00102a0b51,64d2fd46c836a06233681665,64dc7e4ec85895763d4e5777,,,,,,,decisionTrl,resources/DR.BMP,resources/DG.BMP,WildCard_NonEx,0.205977432,-0.009840678,1,0,0,0.7823,optionRight,55,14265,6,43,0,43,0,1,,,,,,,,,,,,,,,,,,,,,,,,,,,,,,,,,,,,,,,
,,,,,,,,2023-08-16_08h44.30.840,HF_wild_card,2022.2.4,Win32,59.97720866,5641c95d17bdbe00102a0b51,64d2fd46c836a06233681665,64dc7e4ec85895763d4e5777,,,,,,,,,,,,,,,,,,,,,,,,,,5,0,5,0,1,,,,,,,,,,,,,,,,,,,,,,,,,,,,,,,,,,
,,,,,,,,2023-08-16_08h44.30.840,HF_wild_card,2022.2.4,Win32,59.97720866,5641c95d17bdbe00102a0b51,64d2fd46c836a06233681665,64dc7e4ec85895763d4e5777,,,,,,,decisionTrl,resources/DY.BMP,resources/DR.BMP,Door2,0.247630955,-0.130636348,1,0,0,1.1078,optionRight,20,14285,7,0,0,0,0,1,,,,,,,,,,,,,,,,,,,,,,,,,,,,,,,,,,,,,,,
,,,,,,,,2023-08-16_08h44.30.840,HF_wild_card,2022.2.4,Win32,59.97720866,5641c95d17bdbe00102a0b51,64d2fd46c836a06233681665,64dc7e4ec85895763d4e5777,,,,,,,decisionTrl,resources/DR.BMP,resources/DY.BMP,Door2,-0.246381272,-0.03566596,1,0,0,0.5987,optionLeft,40,14325,7,1,0,1,0,1,,,,,,,,,,,,,,,,,,,,,,,,,,,,,,,,,,,,,,,
,,,,,,,,2023-08-16_08h44.30.840,HF_wild_card,2022.2.4,Win32,59.97720866,5641c95d17bdbe00102a0b51,64d2fd46c836a06233681665,64dc7e4ec85895763d4e5777,,,,,,,ctch,resources/DBN.BMP,resources/DR.BMP,Door3,-0.186400039,0.005154639,1,0,0,0.6651,optionLeft,70,14395,7,2,0,2,0,1,,,,,,,,,,,,,,,,,,,,,,,,,,,,,,,,,,,,,,,
,,,,,,,,2023-08-16_08h44.30.840,HF_wild_card,2022.2.4,Win32,59.97720866,5641c95d17bdbe00102a0b51,64d2fd46c836a06233681665,64dc7e4ec85895763d4e5777,,,,,,,decisionTrl,resources/DY.BMP,resources/DR.BMP,Door2,0.360928915,0.008486928,1,0,0,0.8494,optionRight,20,14415,7,3,0,3,0,1,,,,,,,,,,,,,,,,,,,,,,,,,,,,,,,,,,,,,,,
,,,,,,,,2023-08-16_08h44.30.840,HF_wild_card,2022.2.4,Win32,59.97720866,5641c95d17bdbe00102a0b51,64d2fd46c836a06233681665,64dc7e4ec85895763d4e5777,,,,,,,decisionTrl,resources/DB.BMP,resources/DBN.BMP,Door3,0.29344997,0.006820766,1,0,0,0.5801,optionRight,70,14485,7,4,0,4,0,1,,,,,,,,,,,,,,,,,,,,,,,,,,,,,,,,,,,,,,,
,,,,,,,,2023-08-16_08h44.30.840,HF_wild_card,2022.2.4,Win32,59.97720866,5641c95d17bdbe00102a0b51,64d2fd46c836a06233681665,64dc7e4ec85895763d4e5777,,,,,,,decisionTrl,resources/DY.BMP,resources/DR.BMP,Door1,-0.183900813,-0.025669128,1,0,0,0.8983,optionLeft,30,14515,7,5,0,5,0,1,,,,,,,,,,,,,,,,,,,,,,,,,,,,,,,,,,,,,,,
,,,,,,,,2023-08-16_08h44.30.840,HF_wild_card,2022.2.4,Win32,59.97720866,5641c95d17bdbe00102a0b51,64d2fd46c836a06233681665,64dc7e4ec85895763d4e5777,,,,,,,decisionTrl,resources/DBN.BMP,resources/DB.BMP,Door3,-0.327189407,-0.001510008,1,0,0,0.498,optionLeft,70,14585,7,6,0,6,0,1,,,,,,,,,,,,,,,,,,,,,,,,,,,,,,,,,,,,,,,
,,,,,,,,2023-08-16_08h44.30.840,HF_wild_card,2022.2.4,Win32,59.97720866,5641c95d17bdbe00102a0b51,64d2fd46c836a06233681665,64dc7e4ec85895763d4e5777,,,,,,,ctch,resources/DY.BMP,resources/DB.BMP,Door4,0.617515398,-0.005675326,1,0,0,0.5829,optionRight,80,14665,7,7,0,7,0,1,,,,,,,,,,,,,,,,,,,,,,,,,,,,,,,,,,,,,,,
,,,,,,,,2023-08-16_08h44.30.840,HF_wild_card,2022.2.4,Win32,59.97720866,5641c95d17bdbe00102a0b51,64d2fd46c836a06233681665,64dc7e4ec85895763d4e5777,,,,,,,decisionTrl,resources/DY.BMP,resources/DR.BMP,Door2,0.193481236,-0.017338354,1,0,0,0.7659,optionRight,20,14685,7,8,0,8,0,1,,,,,,,,,,,,,,,,,,,,,,,,,,,,,,,,,,,,,,,
,,,,,,,,2023-08-16_08h44.30.840,HF_wild_card,2022.2.4,Win32,59.97720866,5641c95d17bdbe00102a0b51,64d2fd46c836a06233681665,64dc7e4ec85895763d4e5777,,,,,,,ctch,resources/DBN.BMP,resources/DR.BMP,Door3,-0.203061518,-0.01150684,1,0,0,0.6992,optionLeft,70,14755,7,9,0,9,0,1,,,,,,,,,,,,,,,,,,,,,,,,,,,,,,,,,,,,,,,
,,,,,,,,2023-08-16_08h44.30.840,HF_wild_card,2022.2.4,Win32,59.97720866,5641c95d17bdbe00102a0b51,64d2fd46c836a06233681665,64dc7e4ec85895763d4e5777,,,,,,,decisionTrl,resources/DY.BMP,resources/DR.BMP,Door1,-0.260543526,-0.021503706,1,0,0,1.2327,optionLeft,30,14785,7,10,0,10,0,1,,,,,,,,,,,,,,,,,,,,,,,,,,,,,,,,,,,,,,,
,,,,,,,,2023-08-16_08h44.30.840,HF_wild_card,2022.2.4,Win32,59.97720866,5641c95d17bdbe00102a0b51,64d2fd46c836a06233681665,64dc7e4ec85895763d4e5777,,,,,,,ctch,resources/DY.BMP,resources/DB.BMP,Door1,-0.28803497,-0.020670643,1,0,0,0.5838,optionLeft,30,14815,7,11,0,11,0,1,,,,,,,,,,,,,,,,,,,,,,,,,,,,,,,,,,,,,,,
,,,,,,,,2023-08-16_08h44.30.840,HF_wild_card,2022.2.4,Win32,59.97720866,5641c95d17bdbe00102a0b51,64d2fd46c836a06233681665,64dc7e4ec85895763d4e5777,,,,,,,decisionTrl,resources/DBN.BMP,resources/DB.BMP,Door4,0.244298701,-0.008174551,1,0,0,0.5323,optionRight,80,14895,7,12,0,12,0,1,,,,,,,,,,,,,,,,,,,,,,,,,,,,,,,,,,,,,,,
,,,,,,,,2023-08-16_08h44.30.840,HF_wild_card,2022.2.4,Win32,59.97720866,5641c95d17bdbe00102a0b51,64d2fd46c836a06233681665,64dc7e4ec85895763d4e5777,,,,,,,decisionTrl,resources/DR.BMP,resources/DY.BMP,Door1,0.241799476,-0.004842262,1,0,0,0.784,optionRight,30,14925,7,13,0,13,0,1,,,,,,,,,,,,,,,,,,,,,,,,,,,,,,,,,,,,,,,
,,,,,,,,2023-08-16_08h44.30.840,HF_wild_card,2022.2.4,Win32,59.97720866,5641c95d17bdbe00102a0b51,64d2fd46c836a06233681665,64dc7e4ec85895763d4e5777,,,,,,,decisionTrl,resources/DR.BMP,resources/DY.BMP,Door1,0.150994475,-0.004009164,1,0,0,0.6822,optionRight,30,14955,7,14,0,14,0,1,,,,,,,,,,,,,,,,,,,,,,,,,,,,,,,,,,,,,,,
,,,,,,,,2023-08-16_08h44.30.840,HF_wild_card,2022.2.4,Win32,59.97720866,5641c95d17bdbe00102a0b51,64d2fd46c836a06233681665,64dc7e4ec85895763d4e5777,,,,,,,ctch,resources/DR.BMP,resources/DBN.BMP,Door3,0.255128631,-0.005675326,1,0,0,0.5987,optionRight,70,15025,7,15,0,15,0,1,,,,,,,,,,,,,,,,,,,,,,,,,,,,,,,,,,,,,,,
,,,,,,,,2023-08-16_08h44.30.840,HF_wild_card,2022.2.4,Win32,59.97720866,5641c95d17bdbe00102a0b51,64d2fd46c836a06233681665,64dc7e4ec85895763d4e5777,,,,,,,ctch,resources/DB.BMP,resources/DY.BMP,Door4,-0.235551273,-0.039831312,1,0,0,0.7658,optionLeft,60,15085,7,16,0,16,0,1,,,,,,,,,,,,,,,,,,,,,,,,,,,,,,,,,,,,,,,
,,,,,,,,2023-08-16_08h44.30.840,HF_wild_card,2022.2.4,Win32,59.97720866,5641c95d17bdbe00102a0b51,64d2fd46c836a06233681665,64dc7e4ec85895763d4e5777,,,,,,,ctch,resources/DR.BMP,resources/DBN.BMP,Door3,0.287618491,-0.014006065,1,0,0,0.6641,optionRight,70,15155,7,17,0,17,0,1,,,,,,,,,,,,,,,,,,,,,,,,,,,,,,,,,,,,,,,
,,,,,,,,2023-08-16_08h44.30.840,HF_wild_card,2022.2.4,Win32,59.97720866,5641c95d17bdbe00102a0b51,64d2fd46c836a06233681665,64dc7e4ec85895763d4e5777,,,,,,,decisionTrl,resources/DR.BMP,resources/DY.BMP,Door2,-0.19139842,0.015151506,1,0,0,0.7827,optionLeft,40,15195,7,18,0,18,0,1,,,,,,,,,,,,,,,,,,,,,,,,,,,,,,,,,,,,,,,
,,,,,,,,2023-08-16_08h44.30.840,HF_wild_card,2022.2.4,Win32,59.97720866,5641c95d17bdbe00102a0b51,64d2fd46c836a06233681665,64dc7e4ec85895763d4e5777,,,,,,,ctch,resources/DY.BMP,resources/DB.BMP,Door4,0.312610674,-0.058158918,1,0,0,0.6649,optionRight,80,15275,7,19,0,19,0,1,,,,,,,,,,,,,,,,,,,,,,,,,,,,,,,,,,,,,,,
,,,,,,,,2023-08-16_08h44.30.840,HF_wild_card,2022.2.4,Win32,59.97720866,5641c95d17bdbe00102a0b51,64d2fd46c836a06233681665,64dc7e4ec85895763d4e5777,,,,,,,decisionTrl,resources/DB.BMP,resources/DBN.BMP,Door3,0.38508807,-0.015672192,1,0,0,0.5493,optionRight,70,15345,7,20,0,20,0,1,,,,,,,,,,,,,,,,,,,,,,,,,,,,,,,,,,,,,,,
,,,,,,,,2023-08-16_08h44.30.840,HF_wild_card,2022.2.4,Win32,59.97720866,5641c95d17bdbe00102a0b51,64d2fd46c836a06233681665,64dc7e4ec85895763d4e5777,,,,,,,ctch,resources/DR.BMP,resources/DBN.BMP,Door3,0.233468841,0.000156188,1,0,0,0.5486,optionRight,70,15415,7,21,0,21,0,1,,,,,,,,,,,,,,,,,,,,,,,,,,,,,,,,,,,,,,,
,,,,,,,,2023-08-16_08h44.30.840,HF_wild_card,2022.2.4,Win32,59.97720866,5641c95d17bdbe00102a0b51,64d2fd46c836a06233681665,64dc7e4ec85895763d4e5777,,,,,,,decisionTrl,resources/DBN.BMP,resources/DB.BMP,Door3,-0.2288868,-0.043163706,1,0,0,0.7153,optionLeft,70,15485,7,22,0,22,0,1,,,,,,,,,,,,,,,,,,,,,,,,,,,,,,,,,,,,,,,
,,,,,,,,2023-08-16_08h44.30.840,HF_wild_card,2022.2.4,Win32,59.97720866,5641c95d17bdbe00102a0b51,64d2fd46c836a06233681665,64dc7e4ec85895763d4e5777,,,,,,,decisionTrl,resources/DB.BMP,resources/DBN.BMP,Door3,0.311777716,-0.009007615,1,0,0,0.4969,optionRight,70,15555,7,23,0,23,0,1,,,,,,,,,,,,,,,,,,,,,,,,,,,,,,,,,,,,,,,
,,,,,,,,2023-08-16_08h44.30.840,HF_wild_card,2022.2.4,Win32,59.97720866,5641c95d17bdbe00102a0b51,64d2fd46c836a06233681665,64dc7e4ec85895763d4e5777,,,,,,,decisionTrl,resources/DB.BMP,resources/DBN.BMP,Door4,-0.255545075,-0.025669128,1,0,0,0.4826,optionLeft,60,15615,7,24,0,24,0,1,,,,,,,,,,,,,,,,,,,,,,,,,,,,,,,,,,,,,,,
,,,,,,,,2023-08-16_08h44.30.840,HF_wild_card,2022.2.4,Win32,59.97720866,5641c95d17bdbe00102a0b51,64d2fd46c836a06233681665,64dc7e4ec85895763d4e5777,,,,,,,ctch,resources/DBN.BMP,resources/DR.BMP,Door3,-0.343017788,-0.042330538,1,0,0,0.6473,optionLeft,70,15685,7,25,0,25,0,1,,,,,,,,,,,,,,,,,,,,,,,,,,,,,,,,,,,,,,,
,,,,,,,,2023-08-16_08h44.30.840,HF_wild_card,2022.2.4,Win32,59.97720866,5641c95d17bdbe00102a0b51,64d2fd46c836a06233681665,64dc7e4ec85895763d4e5777,,,,,,,decisionTrl,resources/DBN.BMP,resources/DB.BMP,Door3,-0.268041237,-0.025669128,1,0,0,0.5994,optionLeft,70,15755,7,26,0,26,0,1,,,,,,,,,,,,,,,,,,,,,,,,,,,,,,,,,,,,,,,
,,,,,,,,2023-08-16_08h44.30.840,HF_wild_card,2022.2.4,Win32,59.97720866,5641c95d17bdbe00102a0b51,64d2fd46c836a06233681665,64dc7e4ec85895763d4e5777,,,,,,,decisionTrl,resources/DY.BMP,resources/DR.BMP,Door1,-0.412162859,-0.029001417,1,0,0,0.8657,optionLeft,30,15785,7,27,0,27,0,1,,,,,,,,,,,,,,,,,,,,,,,,,,,,,,,,,,,,,,,
,,,,,,,,2023-08-16_08h44.30.840,HF_wild_card,2022.2.4,Win32,59.97720866,5641c95d17bdbe00102a0b51,64d2fd46c836a06233681665,64dc7e4ec85895763d4e5777,,,,,,,decisionTrl,resources/DBN.BMP,resources/DB.BMP,Door3,-0.303030287,-0.028168284,1,0,0,0.5152,optionLeft,70,15855,7,28,0,28,0,1,,,,,,,,,,,,,,,,,,,,,,,,,,,,,,,,,,,,,,,
,,,,,,,,2023-08-16_08h44.30.840,HF_wild_card,2022.2.4,Win32,59.97720866,5641c95d17bdbe00102a0b51,64d2fd46c836a06233681665,64dc7e4ec85895763d4e5777,,,,,,,decisionTrl,resources/DB.BMP,resources/DBN.BMP,Door3,0.248464053,-0.009840678,1,0,0,0.6824,optionRight,70,15925,7,29,0,29,0,1,,,,,,,,,,,,,,,,,,,,,,,,,,,,,,,,,,,,,,,
,,,,,,,,2023-08-16_08h44.30.840,HF_wild_card,2022.2.4,Win32,59.97720866,5641c95d17bdbe00102a0b51,64d2fd46c836a06233681665,64dc7e4ec85895763d4e5777,,,,,,,decisionTrl,resources/DB.BMP,resources/DBN.BMP,Door3,0.280120815,-0.03816522,1,0,0,0.6333,optionRight,70,15995,7,30,0,30,0,1,,,,,,,,,,,,,,,,,,,,,,,,,,,,,,,,,,,,,,,
,,,,,,,,2023-08-16_08h44.30.840,HF_wild_card,2022.2.4,Win32,59.97720866,5641c95d17bdbe00102a0b51,64d2fd46c836a06233681665,64dc7e4ec85895763d4e5777,,,,,,,ctch,resources/DB.BMP,resources/DY.BMP,Door4,-0.268874301,-0.071488143,1,0,0,0.7497,optionLeft,80,16075,7,31,0,31,0,1,,,,,,,,,,,,,,,,,,,,,,,,,,,,,,,,,,,,,,,
,,,,,,,,2023-08-16_08h44.30.840,HF_wild_card,2022.2.4,Win32,59.97720866,5641c95d17bdbe00102a0b51,64d2fd46c836a06233681665,64dc7e4ec85895763d4e5777,,,,,,,decisionTrl,resources/DBN.BMP,resources/DB.BMP,Door3,-0.272206589,-0.034832931,1,0,0,0.533,optionLeft,70,16145,7,32,0,32,0,1,,,,,,,,,,,,,,,,,,,,,,,,,,,,,,,,,,,,,,,
,,,,,,,,2023-08-16_08h44.30.840,HF_wild_card,2022.2.4,Win32,59.97720866,5641c95d17bdbe00102a0b51,64d2fd46c836a06233681665,64dc7e4ec85895763d4e5777,,,,,,,ctch,resources/DB.BMP,resources/DY.BMP,Door4,-0.298031801,-0.041497474,1,0,0,0.6492,optionLeft,80,16225,7,33,0,33,0,1,,,,,,,,,,,,,,,,,,,,,,,,,,,,,,,,,,,,,,,
,,,,,,,,2023-08-16_08h44.30.840,HF_wild_card,2022.2.4,Win32,59.97720866,5641c95d17bdbe00102a0b51,64d2fd46c836a06233681665,64dc7e4ec85895763d4e5777,,,,,,,decisionTrl,resources/DR.BMP,resources/DY.BMP,Door1,0.369259619,-0.045662826,1,0,0,0.8994,optionRight,30,16255,7,34,0,34,0,1,,,,,,,,,,,,,,,,,,,,,,,,,,,,,,,,,,,,,,,
,,,,,,,,2023-08-16_08h44.30.840,HF_wild_card,2022.2.4,Win32,59.97720866,5641c95d17bdbe00102a0b51,64d2fd46c836a06233681665,64dc7e4ec85895763d4e5777,,,,,,,decisionTrl,resources/DR.BMP,resources/DY.BMP,Door2,-0.193064616,-0.037332087,1,0,0,1.1162,optionLeft,20,16275,7,35,0,35,0,1,,,,,,,,,,,,,,,,,,,,,,,,,,,,,,,,,,,,,,,
,,,,,,,,2023-08-16_08h44.30.840,HF_wild_card,2022.2.4,Win32,59.97720866,5641c95d17bdbe00102a0b51,64d2fd46c836a06233681665,64dc7e4ec85895763d4e5777,,,,,,,,,,,,,,,,,,,,,,,,,,6,0,6,0,1,,,,,,,,,,,,,,,,,,,,,,,,,,,,,,,,,,
,,,,,,,,2023-08-16_08h44.30.840,HF_wild_card,2022.2.4,Win32,59.97720866,5641c95d17bdbe00102a0b51,64d2fd46c836a06233681665,64dc7e4ec85895763d4e5777,,,,,,,,,,,,,,,,,,,,,,,,,,,,,,,4,,,,,,,,,,,,,,,,,,,,,,,,,,,,,,,,,
,,,,,,,,2023-08-16_08h44.30.840,HF_wild_card,2022.2.4,Win32,59.97720866,5641c95d17bdbe00102a0b51,64d2fd46c836a06233681665,64dc7e4ec85895763d4e5777,,,,,,,,,,,,,,,,,,,,,,,,,,,,,,,,,,,,,,,,,,,,,,,,,,,,,,,,,,,,,,,,
,,,,,,,,2023-08-16_08h44.30.840,HF_wild_card,2022.2.4,Win32,59.97720866,5641c95d17bdbe00102a0b51,64d2fd46c836a06233681665,64dc7e4ec85895763d4e5777,,,,,,,,,,,,,,,,,,,,,,,,,,,,,,,,30,Door1,resources/DY.BMP,0,0,0,0,1,,,,,,,,,,,,,,,,,,,,,,,,,
,,,,,,,,2023-08-16_08h44.30.840,HF_wild_card,2022.2.4,Win32,59.97720866,5641c95d17bdbe00102a0b51,64d2fd46c836a06233681665,64dc7e4ec85895763d4e5777,,,,,,,,,,,,,,,,,,,,,,,,,,,,,,,,70,Door3,resources/DBN.BMP,1,0,1,0,1,,,,,,,,,,,,,,,,,,,,,,,,,
,,,,,,,,2023-08-16_08h44.30.840,HF_wild_card,2022.2.4,Win32,59.97720866,5641c95d17bdbe00102a0b51,64d2fd46c836a06233681665,64dc7e4ec85895763d4e5777,,,,,,,,,,,,,,,,,,,,,,,,,,,,,,,,55,WC_nonExtreme,resources/DG.BMP,2,0,2,0,1,,,,,,,,,,,,,,,,,,,,,,,,,
,,,,,,,,2023-08-16_08h44.30.840,HF_wild_card,2022.2.4,Win32,59.97720866,5641c95d17bdbe00102a0b51,64d2fd46c836a06233681665,64dc7e4ec85895763d4e5777,,,,,,,,,,,,,,,,,,,,,,,,,,,,,,,,60,Door4,resources/DB.BMP,3,0,3,0,1,,,,,,,,,,,,,,,,,,,,,,,,,
,,,,,,,,2023-08-16_08h44.30.840,HF_wild_card,2022.2.4,Win32,59.97720866,5641c95d17bdbe00102a0b51,64d2fd46c836a06233681665,64dc7e4ec85895763d4e5777,,,,,,,,,,,,,,,,,,,,,,,,,,,,,,,,30,Door2,resources/DR.BMP,4,0,4,0,1,,,,,,,,,,,,,,,,,,,,,,,,,
,,,,,,,,2023-08-16_08h44.30.840,HF_wild_card,2022.2.4,Win32,59.97720866,5641c95d17bdbe00102a0b51,64d2fd46c836a06233681665,64dc7e4ec85895763d4e5777,,,,,,,,,,,,,,,,,,,,,,,,,,,,,,,,95,WC_extreme,resources/DP.BMP,5,0,5,0,1,,,,,,,,,,,,,,,,,,,,,,,,,
,,,,,,,,2023-08-16_08h44.30.840,HF_wild_card,2022.2.4,Win32,59.97720866,5641c95d17bdbe00102a0b51,64d2fd46c836a06233681665,64dc7e4ec85895763d4e5777,,,,,,,,,,,,,,,,,,,,,,,,,,,,,,,,,,,,,,,,,,,,,,,,,,,,,,,,,,,,,,,,
