Condition,Low fixed image (Door1),Low risky image (Door2),High fixed image (Door3),High risky image (Door4),NonExtreme Wild Card 1,NonExtreme Wild Card 2,,date,expName,psychopyVersion,OS,frameRate,PROLIFIC_PID,STUDY_ID,SESSION_ID,mouse_2.x,mouse_2.y,mouse_2.leftButton,mouse_2.midButton,mouse_2.rightButton,mouse_2.clicked_name,Trial Type,Left Option Image,Right Option Image,Chosen Door,mouse.x,mouse.y,mouse.leftButton,mouse.midButton,mouse.rightButton,mouse.time,mouse.clicked_name,Feedback,Cumulative Reward,Block,trial.thisRepN,trial.thisTrialN,trial.thisN,trial.thisIndex,trial.ran,blocks.thisRepN,blocks.thisTrialN,blocks.thisN,blocks.thisIndex,blocks.ran,Money conversion,First Outcome Reported,Shown Door (First Outcome),Displayed Image (First Outcome),outcomes.thisRepN,outcomes.thisTrialN,outcomes.thisN,outcomes.thisIndex,outcomes.ran,judgments.thisRepN,judgments.thisTrialN,judgments.thisN,judgments.thisIndex,judgments.ran,freqMouse.x,freqMouse.y,freqMouse.leftButton,freqMouse.midButton,freqMouse.rightButton,freqMouse.clicked_name,FQJ for first outcome,FQJ for second outcome,Shown Door,Displayed Image,trials.thisRepN,trials.thisTrialN,trials.thisN,trials.thisIndex,trials.ran,judgBlock.thisRepN,judgBlock.thisTrialN,judgBlock.thisN,judgBlock.thisIndex,judgBlock.ran
2,resources/DB.BMP,resources/DY.BMP,resources/DP.BMP,resources/DG.BMP,resources/DBN.BMP,resources/DR.BMP,,2023-08-16_08h31.58.744,HF_wild_card,2022.2.4,Win32,59.88741167,63d7714e038e3cdd0833f4e1,64d2fd46c836a06233681665,64dc7af359cbf0e3e6133be9,,,,,,,,,,,,,,,,,,,,,,,,,,,,,,,,,,,,,,,,,,,,,,,,,,,,,,,,,,,,,,,,
,,,,,,,,2023-08-16_08h31.58.744,HF_wild_card,2022.2.4,Win32,59.88741167,63d7714e038e3cdd0833f4e1,64d2fd46c836a06233681665,64dc7af359cbf0e3e6133be9,0.020370399,-0.416666667,1,0,0,agree,,,,,,,,,,,,,,,,,,,,,,,,,,,,,,,,,,,,,,,,,,,,,,,,,,,,,,,,,,
,,,,,,,,2023-08-16_08h31.58.744,HF_wild_card,2022.2.4,Win32,59.88741167,63d7714e038e3cdd0833f4e1,64d2fd46c836a06233681665,64dc7af359cbf0e3e6133be9,,,,,,,,,,,,,,,,,,,,,,,,,,,,,,,,,,,,,,,,,,,,,,,,,,,,,,,,,,,,,,,,
,,,,,,,,2023-08-16_08h31.58.744,HF_wild_card,2022.2.4,Win32,59.88741167,63d7714e038e3cdd0833f4e1,64d2fd46c836a06233681665,64dc7af359cbf0e3e6133be9,,,,,,,decisionTrl,resources/DG.BMP,resources/DR.BMP,WildCard_NonEx,0.508333333,-0.036111111,1,0,0,2.171,optionRight,45,45,1,0,0,0,0,1,,,,,,,,,,,,,,,,,,,,,,,,,,,,,,,,,,,,,,,
,,,,,,,,2023-08-16_08h31.58.744,HF_wild_card,2022.2.4,Win32,59.88741167,63d7714e038e3cdd0833f4e1,64d2fd46c836a06233681665,64dc7af359cbf0e3e6133be9,,,,,,,ctch,resources/DG.BMP,resources/DB.BMP,Door1,0.391666667,-0.117592621,1,0,0,1.5432,optionRight,30,75,1,1,0,1,0,1,,,,,,,,,,,,,,,,,,,,,,,,,,,,,,,,,,,,,,,
,,,,,,,,2023-08-16_08h31.58.744,HF_wild_card,2022.2.4,Win32,59.88741167,63d7714e038e3cdd0833f4e1,64d2fd46c836a06233681665,64dc7af359cbf0e3e6133be9,,,,,,,sngl,resources/Empty.png,resources/DY.BMP,Door2,0.387963019,0.001851824,1,0,0,1.4137,optionRight,20,95,1,2,0,2,0,1,,,,,,,,,,,,,,,,,,,,,,,,,,,,,,,,,,,,,,,
,,,,,,,,2023-08-16_08h31.58.744,HF_wild_card,2022.2.4,Win32,59.88741167,63d7714e038e3cdd0833f4e1,64d2fd46c836a06233681665,64dc7af359cbf0e3e6133be9,,,,,,,decisionTrl,resources/DR.BMP,resources/DB.BMP,WildCard_NonEx,-0.249074046,-0.037037065,1,0,0,1.6277,optionLeft,45,140,1,3,0,3,0,1,,,,,,,,,,,,,,,,,,,,,,,,,,,,,,,,,,,,,,,
,,,,,,,,2023-08-16_08h31.58.744,HF_wild_card,2022.2.4,Win32,59.88741167,63d7714e038e3cdd0833f4e1,64d2fd46c836a06233681665,64dc7af359cbf0e3e6133be9,,,,,,,decisionTrl,resources/DG.BMP,resources/DP.BMP,Door3,0.386111111,-0.083333333,1,0,0,0.878,optionRight,70,210,1,4,0,4,0,1,,,,,,,,,,,,,,,,,,,,,,,,,,,,,,,,,,,,,,,
,,,,,,,,2023-08-16_08h31.58.744,HF_wild_card,2022.2.4,Win32,59.88741167,63d7714e038e3cdd0833f4e1,64d2fd46c836a06233681665,64dc7af359cbf0e3e6133be9,,,,,,,sngl,resources/DR.BMP,resources/Empty.png,WildCard_NonEx,-0.25,-0.057407422,1,0,0,0.8625,optionLeft,55,265,1,5,0,5,0,1,,,,,,,,,,,,,,,,,,,,,,,,,,,,,,,,,,,,,,,
,,,,,,,,2023-08-16_08h31.58.744,HF_wild_card,2022.2.4,Win32,59.88741167,63d7714e038e3cdd0833f4e1,64d2fd46c836a06233681665,64dc7af359cbf0e3e6133be9,,,,,,,decisionTrl,resources/DP.BMP,resources/DG.BMP,Door3,-0.219444444,-0.059259288,1,0,0,0.9459,optionLeft,70,335,1,6,0,6,0,1,,,,,,,,,,,,,,,,,,,,,,,,,,,,,,,,,,,,,,,
,,,,,,,,2023-08-16_08h31.58.744,HF_wild_card,2022.2.4,Win32,59.88741167,63d7714e038e3cdd0833f4e1,64d2fd46c836a06233681665,64dc7af359cbf0e3e6133be9,,,,,,,sngl,resources/DG.BMP,resources/Empty.png,Door4,-0.250925912,-0.060185199,1,0,0,0.828,optionLeft,80,415,1,7,0,7,0,1,,,,,,,,,,,,,,,,,,,,,,,,,,,,,,,,,,,,,,,
,,,,,,,,2023-08-16_08h31.58.744,HF_wild_card,2022.2.4,Win32,59.88741167,63d7714e038e3cdd0833f4e1,64d2fd46c836a06233681665,64dc7af359cbf0e3e6133be9,,,,,,,decisionTrl,resources/DB.BMP,resources/DY.BMP,Door2,0.337037065,-0.091666667,1,0,0,1.2293,optionRight,20,435,1,8,0,8,0,1,,,,,,,,,,,,,,,,,,,,,,,,,,,,,,,,,,,,,,,
,,,,,,,,2023-08-16_08h31.58.744,HF_wild_card,2022.2.4,Win32,59.88741167,63d7714e038e3cdd0833f4e1,64d2fd46c836a06233681665,64dc7af359cbf0e3e6133be9,,,,,,,decisionTrl,resources/DB.BMP,resources/DR.BMP,Door1,-0.287962935,-0.012962977,1,0,0,0.8124,optionLeft,30,465,1,9,0,9,0,1,,,,,,,,,,,,,,,,,,,,,,,,,,,,,,,,,,,,,,,
,,,,,,,,2023-08-16_08h31.58.744,HF_wild_card,2022.2.4,Win32,59.88741167,63d7714e038e3cdd0833f4e1,64d2fd46c836a06233681665,64dc7af359cbf0e3e6133be9,,,,,,,decisionTrl,resources/DR.BMP,resources/DP.BMP,Door3,0.33148151,-0.052777778,1,0,0,0.6607,optionRight,70,535,1,10,0,10,0,1,,,,,,,,,,,,,,,,,,,,,,,,,,,,,,,,,,,,,,,
,,,,,,,,2023-08-16_08h31.58.744,HF_wild_card,2022.2.4,Win32,59.88741167,63d7714e038e3cdd0833f4e1,64d2fd46c836a06233681665,64dc7af359cbf0e3e6133be9,,,,,,,sngl,resources/Empty.png,resources/DG.BMP,Door4,0.285185242,-0.043518533,1,0,0,0.6463,optionRight,60,595,1,11,0,11,0,1,,,,,,,,,,,,,,,,,,,,,,,,,,,,,,,,,,,,,,,
,,,,,,,,2023-08-16_08h31.58.744,HF_wild_card,2022.2.4,Win32,59.88741167,63d7714e038e3cdd0833f4e1,64d2fd46c836a06233681665,64dc7af359cbf0e3e6133be9,,,,,,,decisionTrl,resources/DR.BMP,resources/DY.BMP,Door2,0.298148176,-0.058333333,1,0,0,1.079,optionRight,20,615,1,12,0,12,0,1,,,,,,,,,,,,,,,,,,,,,,,,,,,,,,,,,,,,,,,
,,,,,,,,2023-08-16_08h31.58.744,HF_wild_card,2022.2.4,Win32,59.88741167,63d7714e038e3cdd0833f4e1,64d2fd46c836a06233681665,64dc7af359cbf0e3e6133be9,,,,,,,ctch,resources/DY.BMP,resources/DP.BMP,Door3,0.310185242,-0.040740755,1,0,0,0.8395,optionRight,70,685,1,13,0,13,0,1,,,,,,,,,,,,,,,,,,,,,,,,,,,,,,,,,,,,,,,
,,,,,,,,2023-08-16_08h31.58.744,HF_wild_card,2022.2.4,Win32,59.88741167,63d7714e038e3cdd0833f4e1,64d2fd46c836a06233681665,64dc7af359cbf0e3e6133be9,,,,,,,decisionTrl,resources/DB.BMP,resources/DY.BMP,Door1,-0.208333333,-0.03148151,1,0,0,1.1534,optionLeft,30,715,1,14,0,14,0,1,,,,,,,,,,,,,,,,,,,,,,,,,,,,,,,,,,,,,,,
,,,,,,,,2023-08-16_08h31.58.744,HF_wild_card,2022.2.4,Win32,59.88741167,63d7714e038e3cdd0833f4e1,64d2fd46c836a06233681665,64dc7af359cbf0e3e6133be9,,,,,,,ctch,resources/DP.BMP,resources/DY.BMP,Door3,-0.184259245,-0.047222222,1,0,0,0.9036,optionLeft,70,785,1,15,0,15,0,1,,,,,,,,,,,,,,,,,,,,,,,,,,,,,,,,,,,,,,,
,,,,,,,,2023-08-16_08h31.58.744,HF_wild_card,2022.2.4,Win32,59.88741167,63d7714e038e3cdd0833f4e1,64d2fd46c836a06233681665,64dc7af359cbf0e3e6133be9,,,,,,,decisionTrl,resources/DB.BMP,resources/DY.BMP,Door1,-0.215740712,0.000925912,1,0,0,1.18,optionLeft,30,815,1,16,0,16,0,1,,,,,,,,,,,,,,,,,,,,,,,,,,,,,,,,,,,,,,,
,,,,,,,,2023-08-16_08h31.58.744,HF_wild_card,2022.2.4,Win32,59.88741167,63d7714e038e3cdd0833f4e1,64d2fd46c836a06233681665,64dc7af359cbf0e3e6133be9,,,,,,,sngl,resources/DR.BMP,resources/Empty.png,WildCard_NonEx,-0.240740712,0.002777778,1,0,0,0.7139,optionLeft,45,860,1,17,0,17,0,1,,,,,,,,,,,,,,,,,,,,,,,,,,,,,,,,,,,,,,,
,,,,,,,,2023-08-16_08h31.58.744,HF_wild_card,2022.2.4,Win32,59.88741167,63d7714e038e3cdd0833f4e1,64d2fd46c836a06233681665,64dc7af359cbf0e3e6133be9,,,,,,,ctch,resources/DB.BMP,resources/DG.BMP,Door4,0.428703732,-0.050925954,1,0,0,1.0466,optionRight,60,920,1,18,0,18,0,1,,,,,,,,,,,,,,,,,,,,,,,,,,,,,,,,,,,,,,,
,,,,,,,,2023-08-16_08h31.58.744,HF_wild_card,2022.2.4,Win32,59.88741167,63d7714e038e3cdd0833f4e1,64d2fd46c836a06233681665,64dc7af359cbf0e3e6133be9,,,,,,,decisionTrl,resources/DR.BMP,resources/DG.BMP,WildCard_NonEx,-0.196296268,0,1,0,0,0.8798,optionLeft,55,975,1,19,0,19,0,1,,,,,,,,,,,,,,,,,,,,,,,,,,,,,,,,,,,,,,,
,,,,,,,,2023-08-16_08h31.58.744,HF_wild_card,2022.2.4,Win32,59.88741167,63d7714e038e3cdd0833f4e1,64d2fd46c836a06233681665,64dc7af359cbf0e3e6133be9,,,,,,,ctch,resources/DP.BMP,resources/DY.BMP,Door3,-0.207407379,-0.029629644,1,0,0,1.0125,optionLeft,70,1045,1,20,0,20,0,1,,,,,,,,,,,,,,,,,,,,,,,,,,,,,,,,,,,,,,,
,,,,,,,,2023-08-16_08h31.58.744,HF_wild_card,2022.2.4,Win32,59.88741167,63d7714e038e3cdd0833f4e1,64d2fd46c836a06233681665,64dc7af359cbf0e3e6133be9,,,,,,,sngl,resources/Empty.png,resources/DP.BMP,Door3,0.276851908,-0.077777778,1,0,0,0.78,optionRight,70,1115,1,21,0,21,0,1,,,,,,,,,,,,,,,,,,,,,,,,,,,,,,,,,,,,,,,
,,,,,,,,2023-08-16_08h31.58.744,HF_wild_card,2022.2.4,Win32,59.88741167,63d7714e038e3cdd0833f4e1,64d2fd46c836a06233681665,64dc7af359cbf0e3e6133be9,,,,,,,decisionTrl,resources/DY.BMP,resources/DB.BMP,Door1,0.20648151,0.022222222,1,0,0,1.0295,optionRight,30,1145,1,22,0,22,0,1,,,,,,,,,,,,,,,,,,,,,,,,,,,,,,,,,,,,,,,
,,,,,,,,2023-08-16_08h31.58.744,HF_wild_card,2022.2.4,Win32,59.88741167,63d7714e038e3cdd0833f4e1,64d2fd46c836a06233681665,64dc7af359cbf0e3e6133be9,,,,,,,decisionTrl,resources/DB.BMP,resources/DY.BMP,Door1,-0.186111111,-0.032407422,1,0,0,0.6622,optionLeft,30,1175,1,23,0,23,0,1,,,,,,,,,,,,,,,,,,,,,,,,,,,,,,,,,,,,,,,
,,,,,,,,2023-08-16_08h31.58.744,HF_wild_card,2022.2.4,Win32,59.88741167,63d7714e038e3cdd0833f4e1,64d2fd46c836a06233681665,64dc7af359cbf0e3e6133be9,,,,,,,decisionTrl,resources/DY.BMP,resources/DB.BMP,Door1,0.265740797,-0.059259288,1,0,0,0.6624,optionRight,30,1205,1,24,0,24,0,1,,,,,,,,,,,,,,,,,,,,,,,,,,,,,,,,,,,,,,,
,,,,,,,,2023-08-16_08h31.58.744,HF_wild_card,2022.2.4,Win32,59.88741167,63d7714e038e3cdd0833f4e1,64d2fd46c836a06233681665,64dc7af359cbf0e3e6133be9,,,,,,,sngl,resources/Empty.png,resources/DR.BMP,WildCard_NonEx,0.222222222,-0.050925954,1,0,0,0.7975,optionRight,45,1250,1,25,0,25,0,1,,,,,,,,,,,,,,,,,,,,,,,,,,,,,,,,,,,,,,,
,,,,,,,,2023-08-16_08h31.58.744,HF_wild_card,2022.2.4,Win32,59.88741167,63d7714e038e3cdd0833f4e1,64d2fd46c836a06233681665,64dc7af359cbf0e3e6133be9,,,,,,,decisionTrl,resources/DP.BMP,resources/DR.BMP,Door3,-0.209259245,0.002777778,1,0,0,0.763,optionLeft,70,1320,1,26,0,26,0,1,,,,,,,,,,,,,,,,,,,,,,,,,,,,,,,,,,,,,,,
,,,,,,,,2023-08-16_08h31.58.744,HF_wild_card,2022.2.4,Win32,59.88741167,63d7714e038e3cdd0833f4e1,64d2fd46c836a06233681665,64dc7af359cbf0e3e6133be9,,,,,,,decisionTrl,resources/DY.BMP,resources/DB.BMP,Door1,0.261111111,0.001851824,1,0,0,0.9298,optionRight,30,1350,1,27,0,27,0,1,,,,,,,,,,,,,,,,,,,,,,,,,,,,,,,,,,,,,,,
,,,,,,,,2023-08-16_08h31.58.744,HF_wild_card,2022.2.4,Win32,59.88741167,63d7714e038e3cdd0833f4e1,64d2fd46c836a06233681665,64dc7af359cbf0e3e6133be9,,,,,,,decisionTrl,resources/DP.BMP,resources/DG.BMP,Door3,-0.179629601,-0.022222222,1,0,0,0.8787,optionLeft,70,1420,1,28,0,28,0,1,,,,,,,,,,,,,,,,,,,,,,,,,,,,,,,,,,,,,,,
,,,,,,,,2023-08-16_08h31.58.744,HF_wild_card,2022.2.4,Win32,59.88741167,63d7714e038e3cdd0833f4e1,64d2fd46c836a06233681665,64dc7af359cbf0e3e6133be9,,,,,,,sngl,resources/DB.BMP,resources/Empty.png,Door1,-0.188888889,-0.03148151,1,0,0,0.7459,optionLeft,30,1450,1,29,0,29,0,1,,,,,,,,,,,,,,,,,,,,,,,,,,,,,,,,,,,,,,,
,,,,,,,,2023-08-16_08h31.58.744,HF_wild_card,2022.2.4,Win32,59.88741167,63d7714e038e3cdd0833f4e1,64d2fd46c836a06233681665,64dc7af359cbf0e3e6133be9,,,,,,,decisionTrl,resources/DP.BMP,resources/DG.BMP,Door4,0.383333333,-0.104629644,1,0,0,1.2966,optionRight,80,1530,1,30,0,30,0,1,,,,,,,,,,,,,,,,,,,,,,,,,,,,,,,,,,,,,,,
,,,,,,,,2023-08-16_08h31.58.744,HF_wild_card,2022.2.4,Win32,59.88741167,63d7714e038e3cdd0833f4e1,64d2fd46c836a06233681665,64dc7af359cbf0e3e6133be9,,,,,,,ctch,resources/DG.BMP,resources/DB.BMP,Door4,-0.194444444,-0.032407422,1,0,0,0.6297,optionLeft,80,1610,1,31,0,31,0,1,,,,,,,,,,,,,,,,,,,,,,,,,,,,,,,,,,,,,,,
,,,,,,,,2023-08-16_08h31.58.744,HF_wild_card,2022.2.4,Win32,59.88741167,63d7714e038e3cdd0833f4e1,64d2fd46c836a06233681665,64dc7af359cbf0e3e6133be9,,,,,,,decisionTrl,resources/DG.BMP,resources/DP.BMP,Door4,-0.191666667,-0.043518533,1,0,0,0.6964,optionLeft,80,1690,1,32,0,32,0,1,,,,,,,,,,,,,,,,,,,,,,,,,,,,,,,,,,,,,,,
,,,,,,,,2023-08-16_08h31.58.744,HF_wild_card,2022.2.4,Win32,59.88741167,63d7714e038e3cdd0833f4e1,64d2fd46c836a06233681665,64dc7af359cbf0e3e6133be9,,,,,,,decisionTrl,resources/DG.BMP,resources/DP.BMP,Door4,-0.188888889,-0.037962977,1,0,0,0.5459,optionLeft,60,1750,1,33,0,33,0,1,,,,,,,,,,,,,,,,,,,,,,,,,,,,,,,,,,,,,,,
,,,,,,,,2023-08-16_08h31.58.744,HF_wild_card,2022.2.4,Win32,59.88741167,63d7714e038e3cdd0833f4e1,64d2fd46c836a06233681665,64dc7af359cbf0e3e6133be9,,,,,,,sngl,resources/DP.BMP,resources/Empty.png,Door3,-0.199074046,-0.032407422,1,0,0,0.6459,optionLeft,70,1820,1,34,0,34,0,1,,,,,,,,,,,,,,,,,,,,,,,,,,,,,,,,,,,,,,,
,,,,,,,,2023-08-16_08h31.58.744,HF_wild_card,2022.2.4,Win32,59.88741167,63d7714e038e3cdd0833f4e1,64d2fd46c836a06233681665,64dc7af359cbf0e3e6133be9,,,,,,,sngl,resources/Empty.png,resources/DB.BMP,Door1,0.229629686,-0.043518533,1,0,0,1.1293,optionRight,30,1850,1,35,0,35,0,1,,,,,,,,,,,,,,,,,,,,,,,,,,,,,,,,,,,,,,,
,,,,,,,,2023-08-16_08h31.58.744,HF_wild_card,2022.2.4,Win32,59.88741167,63d7714e038e3cdd0833f4e1,64d2fd46c836a06233681665,64dc7af359cbf0e3e6133be9,,,,,,,sngl,resources/DY.BMP,resources/Empty.png,Door2,-0.221296268,-0.029629644,1,0,0,0.6456,optionLeft,40,1890,1,36,0,36,0,1,,,,,,,,,,,,,,,,,,,,,,,,,,,,,,,,,,,,,,,
,,,,,,,,2023-08-16_08h31.58.744,HF_wild_card,2022.2.4,Win32,59.88741167,63d7714e038e3cdd0833f4e1,64d2fd46c836a06233681665,64dc7af359cbf0e3e6133be9,,,,,,,decisionTrl,resources/DG.BMP,resources/DP.BMP,Door4,-0.157407379,-0.028703732,1,0,0,1.2957,optionLeft,60,1950,1,37,0,37,0,1,,,,,,,,,,,,,,,,,,,,,,,,,,,,,,,,,,,,,,,
,,,,,,,,2023-08-16_08h31.58.744,HF_wild_card,2022.2.4,Win32,59.88741167,63d7714e038e3cdd0833f4e1,64d2fd46c836a06233681665,64dc7af359cbf0e3e6133be9,,,,,,,ctch,resources/DB.BMP,resources/DG.BMP,Door1,-0.159259203,-0.024074088,1,0,0,0.8616,optionLeft,30,1980,1,38,0,38,0,1,,,,,,,,,,,,,,,,,,,,,,,,,,,,,,,,,,,,,,,
,,,,,,,,2023-08-16_08h31.58.744,HF_wild_card,2022.2.4,Win32,59.88741167,63d7714e038e3cdd0833f4e1,64d2fd46c836a06233681665,64dc7af359cbf0e3e6133be9,,,,,,,decisionTrl,resources/DP.BMP,resources/DG.BMP,Door4,0.378703732,-0.093518533,1,0,0,0.8477,optionRight,60,2040,1,39,0,39,0,1,,,,,,,,,,,,,,,,,,,,,,,,,,,,,,,,,,,,,,,
,,,,,,,,2023-08-16_08h31.58.744,HF_wild_card,2022.2.4,Win32,59.88741167,63d7714e038e3cdd0833f4e1,64d2fd46c836a06233681665,64dc7af359cbf0e3e6133be9,,,,,,,ctch,resources/DY.BMP,resources/DP.BMP,Door3,0.425925954,0.014814801,1,0,0,1.2227,optionRight,70,2110,1,40,0,40,0,1,,,,,,,,,,,,,,,,,,,,,,,,,,,,,,,,,,,,,,,
,,,,,,,,2023-08-16_08h31.58.744,HF_wild_card,2022.2.4,Win32,59.88741167,63d7714e038e3cdd0833f4e1,64d2fd46c836a06233681665,64dc7af359cbf0e3e6133be9,,,,,,,sngl,resources/Empty.png,resources/DR.BMP,WildCard_NonEx,0.376851908,-0.064814843,1,0,0,0.8624,optionRight,55,2165,1,41,0,41,0,1,,,,,,,,,,,,,,,,,,,,,,,,,,,,,,,,,,,,,,,
,,,,,,,,2023-08-16_08h31.58.744,HF_wild_card,2022.2.4,Win32,59.88741167,63d7714e038e3cdd0833f4e1,64d2fd46c836a06233681665,64dc7af359cbf0e3e6133be9,,,,,,,decisionTrl,resources/DY.BMP,resources/DB.BMP,Door1,0.246296353,-0.075,1,0,0,1.0792,optionRight,30,2195,1,42,0,42,0,1,,,,,,,,,,,,,,,,,,,,,,,,,,,,,,,,,,,,,,,
,,,,,,,,2023-08-16_08h31.58.744,HF_wild_card,2022.2.4,Win32,59.88741167,63d7714e038e3cdd0833f4e1,64d2fd46c836a06233681665,64dc7af359cbf0e3e6133be9,,,,,,,decisionTrl,resources/DY.BMP,resources/DR.BMP,WildCard_NonEx,0.243518575,-0.043518533,1,0,0,0.9947,optionRight,45,2240,1,43,0,43,0,1,,,,,,,,,,,,,,,,,,,,,,,,,,,,,,,,,,,,,,,
,,,,,,,,2023-08-16_08h31.58.744,HF_wild_card,2022.2.4,Win32,59.88741167,63d7714e038e3cdd0833f4e1,64d2fd46c836a06233681665,64dc7af359cbf0e3e6133be9,,,,,,,,,,,,,,,,,,,,,,,,,,0,0,0,0,1,,,,,,,,,,,,,,,,,,,,,,,,,,,,,,,,,,
,,,,,,,,2023-08-16_08h31.58.744,HF_wild_card,2022.2.4,Win32,59.88741167,63d7714e038e3cdd0833f4e1,64d2fd46c836a06233681665,64dc7af359cbf0e3e6133be9,,,,,,,decisionTrl,resources/DR.BMP,resources/DP.BMP,Door3,0.35,-0.03148151,1,0,0,1.7356,optionRight,70,2310,2,0,0,0,0,1,,,,,,,,,,,,,,,,,,,,,,,,,,,,,,,,,,,,,,,
,,,,,,,,2023-08-16_08h31.58.744,HF_wild_card,2022.2.4,Win32,59.88741167,63d7714e038e3cdd0833f4e1,64d2fd46c836a06233681665,64dc7af359cbf0e3e6133be9,,,,,,,decisionTrl,resources/DR.BMP,resources/DY.BMP,WildCard_NonEx,-0.273148134,-0.075925954,1,0,0,0.7628,optionLeft,45,2355,2,1,0,1,0,1,,,,,,,,,,,,,,,,,,,,,,,,,,,,,,,,,,,,,,,
,,,,,,,,2023-08-16_08h31.58.744,HF_wild_card,2022.2.4,Win32,59.88741167,63d7714e038e3cdd0833f4e1,64d2fd46c836a06233681665,64dc7af359cbf0e3e6133be9,,,,,,,sngl,resources/DY.BMP,resources/Empty.png,Door2,-0.19351849,-0.047222222,1,0,0,0.7127,optionLeft,20,2375,2,2,0,2,0,1,,,,,,,,,,,,,,,,,,,,,,,,,,,,,,,,,,,,,,,
,,,,,,,,2023-08-16_08h31.58.744,HF_wild_card,2022.2.4,Win32,59.88741167,63d7714e038e3cdd0833f4e1,64d2fd46c836a06233681665,64dc7af359cbf0e3e6133be9,,,,,,,ctch,resources/DB.BMP,resources/DG.BMP,Door4,0.401851908,-0.015740755,1,0,0,1.2966,optionRight,80,2455,2,3,0,3,0,1,,,,,,,,,,,,,,,,,,,,,,,,,,,,,,,,,,,,,,,
,,,,,,,,2023-08-16_08h31.58.744,HF_wild_card,2022.2.4,Win32,59.88741167,63d7714e038e3cdd0833f4e1,64d2fd46c836a06233681665,64dc7af359cbf0e3e6133be9,,,,,,,decisionTrl,resources/DP.BMP,resources/DG.BMP,Door4,0.28148151,-0.005555556,1,0,0,1.4508,optionRight,80,2535,2,4,0,4,0,1,,,,,,,,,,,,,,,,,,,,,,,,,,,,,,,,,,,,,,,
,,,,,,,,2023-08-16_08h31.58.744,HF_wild_card,2022.2.4,Win32,59.88741167,63d7714e038e3cdd0833f4e1,64d2fd46c836a06233681665,64dc7af359cbf0e3e6133be9,,,,,,,decisionTrl,resources/DP.BMP,resources/DG.BMP,Door4,0.301851908,-0.035185199,1,0,0,0.697,optionRight,80,2615,2,5,0,5,0,1,,,,,,,,,,,,,,,,,,,,,,,,,,,,,,,,,,,,,,,
,,,,,,,,2023-08-16_08h31.58.744,HF_wild_card,2022.2.4,Win32,59.88741167,63d7714e038e3cdd0833f4e1,64d2fd46c836a06233681665,64dc7af359cbf0e3e6133be9,,,,,,,decisionTrl,resources/DG.BMP,resources/DP.BMP,Door4,-0.313888889,-0.033333333,1,0,0,0.9627,optionLeft,80,2695,2,6,0,6,0,1,,,,,,,,,,,,,,,,,,,,,,,,,,,,,,,,,,,,,,,
,,,,,,,,2023-08-16_08h31.58.744,HF_wild_card,2022.2.4,Win32,59.88741167,63d7714e038e3cdd0833f4e1,64d2fd46c836a06233681665,64dc7af359cbf0e3e6133be9,,,,,,,decisionTrl,resources/DY.BMP,resources/DB.BMP,Door1,0.194444444,-0.04629631,1,0,0,1.7307,optionRight,30,2725,2,7,0,7,0,1,,,,,,,,,,,,,,,,,,,,,,,,,,,,,,,,,,,,,,,
,,,,,,,,2023-08-16_08h31.58.744,HF_wild_card,2022.2.4,Win32,59.88741167,63d7714e038e3cdd0833f4e1,64d2fd46c836a06233681665,64dc7af359cbf0e3e6133be9,,,,,,,decisionTrl,resources/DB.BMP,resources/DR.BMP,WildCard_NonEx,0.185185242,0.010185157,1,0,0,1.8127,optionRight,45,2770,2,8,0,8,0,1,,,,,,,,,,,,,,,,,,,,,,,,,,,,,,,,,,,,,,,
,,,,,,,,2023-08-16_08h31.58.744,HF_wild_card,2022.2.4,Win32,59.88741167,63d7714e038e3cdd0833f4e1,64d2fd46c836a06233681665,64dc7af359cbf0e3e6133be9,,,,,,,sngl,resources/Empty.png,resources/DB.BMP,Door1,0.257407464,0.015740712,1,0,0,0.496,optionRight,30,2800,2,9,0,9,0,1,,,,,,,,,,,,,,,,,,,,,,,,,,,,,,,,,,,,,,,
,,,,,,,,2023-08-16_08h31.58.744,HF_wild_card,2022.2.4,Win32,59.88741167,63d7714e038e3cdd0833f4e1,64d2fd46c836a06233681665,64dc7af359cbf0e3e6133be9,,,,,,,decisionTrl,resources/DB.BMP,resources/DY.BMP,Door1,-0.256481467,0.024074046,1,0,0,0.6786,optionLeft,30,2830,2,10,0,10,0,1,,,,,,,,,,,,,,,,,,,,,,,,,,,,,,,,,,,,,,,
,,,,,,,,2023-08-16_08h31.58.744,HF_wild_card,2022.2.4,Win32,59.88741167,63d7714e038e3cdd0833f4e1,64d2fd46c836a06233681665,64dc7af359cbf0e3e6133be9,,,,,,,decisionTrl,resources/DB.BMP,resources/DY.BMP,Door1,-0.207407379,0.026851824,1,0,0,0.5449,optionLeft,30,2860,2,11,0,11,0,1,,,,,,,,,,,,,,,,,,,,,,,,,,,,,,,,,,,,,,,
,,,,,,,,2023-08-16_08h31.58.744,HF_wild_card,2022.2.4,Win32,59.88741167,63d7714e038e3cdd0833f4e1,64d2fd46c836a06233681665,64dc7af359cbf0e3e6133be9,,,,,,,decisionTrl,resources/DY.BMP,resources/DB.BMP,Door1,0.277777778,0.019444444,1,0,0,0.8786,optionRight,30,2890,2,12,0,12,0,1,,,,,,,,,,,,,,,,,,,,,,,,,,,,,,,,,,,,,,,
,,,,,,,,2023-08-16_08h31.58.744,HF_wild_card,2022.2.4,Win32,59.88741167,63d7714e038e3cdd0833f4e1,64d2fd46c836a06233681665,64dc7af359cbf0e3e6133be9,,,,,,,ctch,resources/DG.BMP,resources/DB.BMP,Door4,-0.215740712,-0.004629644,1,0,0,0.8474,optionLeft,60,2950,2,13,0,13,0,1,,,,,,,,,,,,,,,,,,,,,,,,,,,,,,,,,,,,,,,
,,,,,,,,2023-08-16_08h31.58.744,HF_wild_card,2022.2.4,Win32,59.88741167,63d7714e038e3cdd0833f4e1,64d2fd46c836a06233681665,64dc7af359cbf0e3e6133be9,,,,,,,sngl,resources/Empty.png,resources/DR.BMP,WildCard_NonEx,0.276851908,-0.003703732,1,0,0,0.5965,optionRight,45,2995,2,14,0,14,0,1,,,,,,,,,,,,,,,,,,,,,,,,,,,,,,,,,,,,,,,
,,,,,,,,2023-08-16_08h31.58.744,HF_wild_card,2022.2.4,Win32,59.88741167,63d7714e038e3cdd0833f4e1,64d2fd46c836a06233681665,64dc7af359cbf0e3e6133be9,,,,,,,decisionTrl,resources/DR.BMP,resources/DG.BMP,Door4,0.25,0.015740712,1,0,0,1.2453,optionRight,60,3055,2,15,0,15,0,1,,,,,,,,,,,,,,,,,,,,,,,,,,,,,,,,,,,,,,,
,,,,,,,,2023-08-16_08h31.58.744,HF_wild_card,2022.2.4,Win32,59.88741167,63d7714e038e3cdd0833f4e1,64d2fd46c836a06233681665,64dc7af359cbf0e3e6133be9,,,,,,,decisionTrl,resources/DY.BMP,resources/DB.BMP,Door1,0.254629686,0.01851849,1,0,0,0.6636,optionRight,30,3085,2,16,0,16,0,1,,,,,,,,,,,,,,,,,,,,,,,,,,,,,,,,,,,,,,,
,,,,,,,,2023-08-16_08h31.58.744,HF_wild_card,2022.2.4,Win32,59.88741167,63d7714e038e3cdd0833f4e1,64d2fd46c836a06233681665,64dc7af359cbf0e3e6133be9,,,,,,,decisionTrl,resources/DP.BMP,resources/DG.BMP,Door4,0.263888889,-0.025925954,1,0,0,1.1957,optionRight,80,3165,2,17,0,17,0,1,,,,,,,,,,,,,,,,,,,,,,,,,,,,,,,,,,,,,,,
,,,,,,,,2023-08-16_08h31.58.744,HF_wild_card,2022.2.4,Win32,59.88741167,63d7714e038e3cdd0833f4e1,64d2fd46c836a06233681665,64dc7af359cbf0e3e6133be9,,,,,,,decisionTrl,resources/DG.BMP,resources/DP.BMP,Door4,-0.275925912,-0.028703732,1,0,0,0.8803,optionLeft,60,3225,2,18,0,18,0,1,,,,,,,,,,,,,,,,,,,,,,,,,,,,,,,,,,,,,,,
,,,,,,,,2023-08-16_08h31.58.744,HF_wild_card,2022.2.4,Win32,59.88741167,63d7714e038e3cdd0833f4e1,64d2fd46c836a06233681665,64dc7af359cbf0e3e6133be9,,,,,,,decisionTrl,resources/DG.BMP,resources/DR.BMP,Door4,-0.211111111,0.021296268,1,0,0,0.7462,optionLeft,60,3285,2,19,0,19,0,1,,,,,,,,,,,,,,,,,,,,,,,,,,,,,,,,,,,,,,,
,,,,,,,,2023-08-16_08h31.58.744,HF_wild_card,2022.2.4,Win32,59.88741167,63d7714e038e3cdd0833f4e1,64d2fd46c836a06233681665,64dc7af359cbf0e3e6133be9,,,,,,,decisionTrl,resources/DG.BMP,resources/DP.BMP,Door4,-0.199074046,0.045370356,1,0,0,0.8626,optionLeft,80,3365,2,20,0,20,0,1,,,,,,,,,,,,,,,,,,,,,,,,,,,,,,,,,,,,,,,
,,,,,,,,2023-08-16_08h31.58.744,HF_wild_card,2022.2.4,Win32,59.88741167,63d7714e038e3cdd0833f4e1,64d2fd46c836a06233681665,64dc7af359cbf0e3e6133be9,,,,,,,sngl,resources/Empty.png,resources/DP.BMP,Door3,0.215740797,-0.002777778,1,0,0,0.4977,optionRight,70,3435,2,21,0,21,0,1,,,,,,,,,,,,,,,,,,,,,,,,,,,,,,,,,,,,,,,
,,,,,,,,2023-08-16_08h31.58.744,HF_wild_card,2022.2.4,Win32,59.88741167,63d7714e038e3cdd0833f4e1,64d2fd46c836a06233681665,64dc7af359cbf0e3e6133be9,,,,,,,decisionTrl,resources/DY.BMP,resources/DB.BMP,Door1,0.185185242,0.004629601,1,0,0,0.9136,optionRight,30,3465,2,22,0,22,0,1,,,,,,,,,,,,,,,,,,,,,,,,,,,,,,,,,,,,,,,
,,,,,,,,2023-08-16_08h31.58.744,HF_wild_card,2022.2.4,Win32,59.88741167,63d7714e038e3cdd0833f4e1,64d2fd46c836a06233681665,64dc7af359cbf0e3e6133be9,,,,,,,sngl,resources/Empty.png,resources/DY.BMP,Door2,0.187037065,-0.001851866,1,0,0,0.5697,optionRight,40,3505,2,23,0,23,0,1,,,,,,,,,,,,,,,,,,,,,,,,,,,,,,,,,,,,,,,
,,,,,,,,2023-08-16_08h31.58.744,HF_wild_card,2022.2.4,Win32,59.88741167,63d7714e038e3cdd0833f4e1,64d2fd46c836a06233681665,64dc7af359cbf0e3e6133be9,,,,,,,decisionTrl,resources/DR.BMP,resources/DB.BMP,WildCard_NonEx,-0.199074046,0.004629601,1,0,0,0.913,optionLeft,45,3550,2,24,0,24,0,1,,,,,,,,,,,,,,,,,,,,,,,,,,,,,,,,,,,,,,,
,,,,,,,,2023-08-16_08h31.58.744,HF_wild_card,2022.2.4,Win32,59.88741167,63d7714e038e3cdd0833f4e1,64d2fd46c836a06233681665,64dc7af359cbf0e3e6133be9,,,,,,,ctch,resources/DP.BMP,resources/DY.BMP,Door3,-0.250925912,0,1,0,0,1.7786,optionLeft,70,3620,2,25,0,25,0,1,,,,,,,,,,,,,,,,,,,,,,,,,,,,,,,,,,,,,,,
,,,,,,,,2023-08-16_08h31.58.744,HF_wild_card,2022.2.4,Win32,59.88741167,63d7714e038e3cdd0833f4e1,64d2fd46c836a06233681665,64dc7af359cbf0e3e6133be9,,,,,,,decisionTrl,resources/DY.BMP,resources/DR.BMP,WildCard_NonEx,0.187037065,0.008333333,1,0,0,0.8957,optionRight,45,3665,2,26,0,26,0,1,,,,,,,,,,,,,,,,,,,,,,,,,,,,,,,,,,,,,,,
,,,,,,,,2023-08-16_08h31.58.744,HF_wild_card,2022.2.4,Win32,59.88741167,63d7714e038e3cdd0833f4e1,64d2fd46c836a06233681665,64dc7af359cbf0e3e6133be9,,,,,,,sngl,resources/Empty.png,resources/DR.BMP,WildCard_NonEx,0.161111111,-0.018518533,1,0,0,1.0413,optionRight,55,3720,2,27,0,27,0,1,,,,,,,,,,,,,,,,,,,,,,,,,,,,,,,,,,,,,,,
,,,,,,,,2023-08-16_08h31.58.744,HF_wild_card,2022.2.4,Win32,59.88741167,63d7714e038e3cdd0833f4e1,64d2fd46c836a06233681665,64dc7af359cbf0e3e6133be9,,,,,,,ctch,resources/DB.BMP,resources/DG.BMP,Door4,0.213888889,0.020370356,1,0,0,1.3182,optionRight,80,3800,2,28,0,28,0,1,,,,,,,,,,,,,,,,,,,,,,,,,,,,,,,,,,,,,,,
,,,,,,,,2023-08-16_08h31.58.744,HF_wild_card,2022.2.4,Win32,59.88741167,63d7714e038e3cdd0833f4e1,64d2fd46c836a06233681665,64dc7af359cbf0e3e6133be9,,,,,,,decisionTrl,resources/DP.BMP,resources/DG.BMP,Door4,0.236111111,0.02870369,1,0,0,0.679,optionRight,80,3880,2,29,0,29,0,1,,,,,,,,,,,,,,,,,,,,,,,,,,,,,,,,,,,,,,,
,,,,,,,,2023-08-16_08h31.58.744,HF_wild_card,2022.2.4,Win32,59.88741167,63d7714e038e3cdd0833f4e1,64d2fd46c836a06233681665,64dc7af359cbf0e3e6133be9,,,,,,,sngl,resources/Empty.png,resources/DG.BMP,Door4,0.200925954,0.002777778,1,0,0,0.4957,optionRight,80,3960,2,30,0,30,0,1,,,,,,,,,,,,,,,,,,,,,,,,,,,,,,,,,,,,,,,
,,,,,,,,2023-08-16_08h31.58.744,HF_wild_card,2022.2.4,Win32,59.88741167,63d7714e038e3cdd0833f4e1,64d2fd46c836a06233681665,64dc7af359cbf0e3e6133be9,,,,,,,sngl,resources/DB.BMP,resources/Empty.png,Door1,-0.200925912,0.020370356,1,0,0,0.6456,optionLeft,30,3990,2,31,0,31,0,1,,,,,,,,,,,,,,,,,,,,,,,,,,,,,,,,,,,,,,,
,,,,,,,,2023-08-16_08h31.58.744,HF_wild_card,2022.2.4,Win32,59.88741167,63d7714e038e3cdd0833f4e1,64d2fd46c836a06233681665,64dc7af359cbf0e3e6133be9,,,,,,,ctch,resources/DY.BMP,resources/DP.BMP,Door3,0.242592621,0.006481467,1,0,0,0.6524,optionRight,70,4060,2,32,0,32,0,1,,,,,,,,,,,,,,,,,,,,,,,,,,,,,,,,,,,,,,,
,,,,,,,,2023-08-16_08h31.58.744,HF_wild_card,2022.2.4,Win32,59.88741167,63d7714e038e3cdd0833f4e1,64d2fd46c836a06233681665,64dc7af359cbf0e3e6133be9,,,,,,,sngl,resources/DG.BMP,resources/Empty.png,Door4,-0.2,-0.016666667,1,0,0,0.5799,optionLeft,60,4120,2,33,0,33,0,1,,,,,,,,,,,,,,,,,,,,,,,,,,,,,,,,,,,,,,,
,,,,,,,,2023-08-16_08h31.58.744,HF_wild_card,2022.2.4,Win32,59.88741167,63d7714e038e3cdd0833f4e1,64d2fd46c836a06233681665,64dc7af359cbf0e3e6133be9,,,,,,,sngl,resources/DR.BMP,resources/Empty.png,WildCard_NonEx,-0.187037023,-0.005555556,1,0,0,0.6453,optionLeft,45,4165,2,34,0,34,0,1,,,,,,,,,,,,,,,,,,,,,,,,,,,,,,,,,,,,,,,
,,,,,,,,2023-08-16_08h31.58.744,HF_wild_card,2022.2.4,Win32,59.88741167,63d7714e038e3cdd0833f4e1,64d2fd46c836a06233681665,64dc7af359cbf0e3e6133be9,,,,,,,decisionTrl,resources/DG.BMP,resources/DP.BMP,Door4,-0.199074046,-0.012962977,1,0,0,1.2781,optionLeft,60,4225,2,35,0,35,0,1,,,,,,,,,,,,,,,,,,,,,,,,,,,,,,,,,,,,,,,
,,,,,,,,2023-08-16_08h31.58.744,HF_wild_card,2022.2.4,Win32,59.88741167,63d7714e038e3cdd0833f4e1,64d2fd46c836a06233681665,64dc7af359cbf0e3e6133be9,,,,,,,decisionTrl,resources/DB.BMP,resources/DY.BMP,Door1,-0.181481467,-0.010185199,1,0,0,1.2019,optionLeft,30,4255,2,36,0,36,0,1,,,,,,,,,,,,,,,,,,,,,,,,,,,,,,,,,,,,,,,
,,,,,,,,2023-08-16_08h31.58.744,HF_wild_card,2022.2.4,Win32,59.88741167,63d7714e038e3cdd0833f4e1,64d2fd46c836a06233681665,64dc7af359cbf0e3e6133be9,,,,,,,sngl,resources/DR.BMP,resources/Empty.png,WildCard_NonEx,-0.199074046,-0.000925954,1,0,0,0.6128,optionLeft,55,4310,2,37,0,37,0,1,,,,,,,,,,,,,,,,,,,,,,,,,,,,,,,,,,,,,,,
,,,,,,,,2023-08-16_08h31.58.744,HF_wild_card,2022.2.4,Win32,59.88741167,63d7714e038e3cdd0833f4e1,64d2fd46c836a06233681665,64dc7af359cbf0e3e6133be9,,,,,,,decisionTrl,resources/DP.BMP,resources/DR.BMP,WildCard_NonEx,0.201851908,0.015740712,1,0,0,1.3454,optionRight,45,4355,2,38,0,38,0,1,,,,,,,,,,,,,,,,,,,,,,,,,,,,,,,,,,,,,,,
,,,,,,,,2023-08-16_08h31.58.744,HF_wild_card,2022.2.4,Win32,59.88741167,63d7714e038e3cdd0833f4e1,64d2fd46c836a06233681665,64dc7af359cbf0e3e6133be9,,,,,,,ctch,resources/DP.BMP,resources/DY.BMP,Door3,-0.241666667,-0.049074088,1,0,0,0.6129,optionLeft,70,4425,2,39,0,39,0,1,,,,,,,,,,,,,,,,,,,,,,,,,,,,,,,,,,,,,,,
,,,,,,,,2023-08-16_08h31.58.744,HF_wild_card,2022.2.4,Win32,59.88741167,63d7714e038e3cdd0833f4e1,64d2fd46c836a06233681665,64dc7af359cbf0e3e6133be9,,,,,,,ctch,resources/DG.BMP,resources/DB.BMP,Door1,0.328703732,-0.008333333,1,0,0,3.3614,optionRight,30,4455,2,40,0,40,0,1,,,,,,,,,,,,,,,,,,,,,,,,,,,,,,,,,,,,,,,
,,,,,,,,2023-08-16_08h31.58.744,HF_wild_card,2022.2.4,Win32,59.88741167,63d7714e038e3cdd0833f4e1,64d2fd46c836a06233681665,64dc7af359cbf0e3e6133be9,,,,,,,decisionTrl,resources/DB.BMP,resources/DY.BMP,Door1,-0.214814801,0.002777778,1,0,0,0.9629,optionLeft,30,4485,2,41,0,41,0,1,,,,,,,,,,,,,,,,,,,,,,,,,,,,,,,,,,,,,,,
,,,,,,,,2023-08-16_08h31.58.744,HF_wild_card,2022.2.4,Win32,59.88741167,63d7714e038e3cdd0833f4e1,64d2fd46c836a06233681665,64dc7af359cbf0e3e6133be9,,,,,,,ctch,resources/DY.BMP,resources/DP.BMP,Door3,0.169444444,-0.022222222,1,0,0,1.0281,optionRight,70,4555,2,42,0,42,0,1,,,,,,,,,,,,,,,,,,,,,,,,,,,,,,,,,,,,,,,
,,,,,,,,2023-08-16_08h31.58.744,HF_wild_card,2022.2.4,Win32,59.88741167,63d7714e038e3cdd0833f4e1,64d2fd46c836a06233681665,64dc7af359cbf0e3e6133be9,,,,,,,sngl,resources/DP.BMP,resources/Empty.png,Door3,-0.240740712,-0.000925954,1,0,0,0.4958,optionLeft,70,4625,2,43,0,43,0,1,,,,,,,,,,,,,,,,,,,,,,,,,,,,,,,,,,,,,,,
,,,,,,,,2023-08-16_08h31.58.744,HF_wild_card,2022.2.4,Win32,59.88741167,63d7714e038e3cdd0833f4e1,64d2fd46c836a06233681665,64dc7af359cbf0e3e6133be9,,,,,,,,,,,,,,,,,,,,,,,,,,1,0,1,0,1,,,,,,,,,,,,,,,,,,,,,,,,,,,,,,,,,,
,,,,,,,,2023-08-16_08h31.58.744,HF_wild_card,2022.2.4,Win32,59.88741167,63d7714e038e3cdd0833f4e1,64d2fd46c836a06233681665,64dc7af359cbf0e3e6133be9,,,,,,,decisionTrl,resources/DP.BMP,resources/DG.BMP,Door3,-0.263888889,0.01851849,1,0,0,1.3264,optionLeft,70,4695,3,0,0,0,0,1,,,,,,,,,,,,,,,,,,,,,,,,,,,,,,,,,,,,,,,
,,,,,,,,2023-08-16_08h31.58.744,HF_wild_card,2022.2.4,Win32,59.88741167,63d7714e038e3cdd0833f4e1,64d2fd46c836a06233681665,64dc7af359cbf0e3e6133be9,,,,,,,ctch,resources/DP.BMP,resources/DY.BMP,Door3,-0.231481467,-0.012037065,1,0,0,0.7282,optionLeft,70,4765,3,1,0,1,0,1,,,,,,,,,,,,,,,,,,,,,,,,,,,,,,,,,,,,,,,
,,,,,,,,2023-08-16_08h31.58.744,HF_wild_card,2022.2.4,Win32,59.88741167,63d7714e038e3cdd0833f4e1,64d2fd46c836a06233681665,64dc7af359cbf0e3e6133be9,,,,,,,decisionTrl,resources/DG.BMP,resources/DP.BMP,Door3,0.291666667,0.008333333,1,0,0,2.1952,optionRight,70,4835,3,2,0,2,0,1,,,,,,,,,,,,,,,,,,,,,,,,,,,,,,,,,,,,,,,
,,,,,,,,2023-08-16_08h31.58.744,HF_wild_card,2022.2.4,Win32,59.88741167,63d7714e038e3cdd0833f4e1,64d2fd46c836a06233681665,64dc7af359cbf0e3e6133be9,,,,,,,decisionTrl,resources/DR.BMP,resources/DG.BMP,Door4,0.3,-0.003703732,1,0,0,1.3092,optionRight,60,4895,3,3,0,3,0,1,,,,,,,,,,,,,,,,,,,,,,,,,,,,,,,,,,,,,,,
,,,,,,,,2023-08-16_08h31.58.744,HF_wild_card,2022.2.4,Win32,59.88741167,63d7714e038e3cdd0833f4e1,64d2fd46c836a06233681665,64dc7af359cbf0e3e6133be9,,,,,,,sngl,resources/Empty.png,resources/DG.BMP,Door4,0.272222222,-0.059259288,1,0,0,0.5789,optionRight,60,4955,3,4,0,4,0,1,,,,,,,,,,,,,,,,,,,,,,,,,,,,,,,,,,,,,,,
,,,,,,,,2023-08-16_08h31.58.744,HF_wild_card,2022.2.4,Win32,59.88741167,63d7714e038e3cdd0833f4e1,64d2fd46c836a06233681665,64dc7af359cbf0e3e6133be9,,,,,,,ctch,resources/DY.BMP,resources/DP.BMP,Door3,0.385185242,-0.125925954,1,0,0,1.4783,optionRight,70,5025,3,5,0,5,0,1,,,,,,,,,,,,,,,,,,,,,,,,,,,,,,,,,,,,,,,
,,,,,,,,2023-08-16_08h31.58.744,HF_wild_card,2022.2.4,Win32,59.88741167,63d7714e038e3cdd0833f4e1,64d2fd46c836a06233681665,64dc7af359cbf0e3e6133be9,,,,,,,decisionTrl,resources/DY.BMP,resources/DB.BMP,Door1,0.246296353,0.035185157,1,0,0,1.072,optionRight,30,5055,3,6,0,6,0,1,,,,,,,,,,,,,,,,,,,,,,,,,,,,,,,,,,,,,,,
,,,,,,,,2023-08-16_08h31.58.744,HF_wild_card,2022.2.4,Win32,59.88741167,63d7714e038e3cdd0833f4e1,64d2fd46c836a06233681665,64dc7af359cbf0e3e6133be9,,,,,,,sngl,resources/Empty.png,resources/DY.BMP,Door2,0.35,-0.017592621,1,0,0,0.8715,optionRight,20,5075,3,7,0,7,0,1,,,,,,,,,,,,,,,,,,,,,,,,,,,,,,,,,,,,,,,
,,,,,,,,2023-08-16_08h31.58.744,HF_wild_card,2022.2.4,Win32,59.88741167,63d7714e038e3cdd0833f4e1,64d2fd46c836a06233681665,64dc7af359cbf0e3e6133be9,,,,,,,decisionTrl,resources/DP.BMP,resources/DG.BMP,Door3,-0.257407379,-0.025925954,1,0,0,1.3331,optionLeft,70,5145,3,8,0,8,0,1,,,,,,,,,,,,,,,,,,,,,,,,,,,,,,,,,,,,,,,
,,,,,,,,2023-08-16_08h31.58.744,HF_wild_card,2022.2.4,Win32,59.88741167,63d7714e038e3cdd0833f4e1,64d2fd46c836a06233681665,64dc7af359cbf0e3e6133be9,,,,,,,decisionTrl,resources/DY.BMP,resources/DR.BMP,WildCard_NonEx,0.320370399,-0.033333333,1,0,0,1.2498,optionRight,45,5190,3,9,0,9,0,1,,,,,,,,,,,,,,,,,,,,,,,,,,,,,,,,,,,,,,,
,,,,,,,,2023-08-16_08h31.58.744,HF_wild_card,2022.2.4,Win32,59.88741167,63d7714e038e3cdd0833f4e1,64d2fd46c836a06233681665,64dc7af359cbf0e3e6133be9,,,,,,,sngl,resources/Empty.png,resources/DR.BMP,WildCard_NonEx,0.287963019,-0.065740755,1,0,0,0.5969,optionRight,55,5245,3,10,0,10,0,1,,,,,,,,,,,,,,,,,,,,,,,,,,,,,,,,,,,,,,,
,,,,,,,,2023-08-16_08h31.58.744,HF_wild_card,2022.2.4,Win32,59.88741167,63d7714e038e3cdd0833f4e1,64d2fd46c836a06233681665,64dc7af359cbf0e3e6133be9,,,,,,,decisionTrl,resources/DG.BMP,resources/DR.BMP,Door4,-0.229629601,-0.025,1,0,0,0.8959,optionLeft,60,5305,3,11,0,11,0,1,,,,,,,,,,,,,,,,,,,,,,,,,,,,,,,,,,,,,,,
,,,,,,,,2023-08-16_08h31.58.744,HF_wild_card,2022.2.4,Win32,59.88741167,63d7714e038e3cdd0833f4e1,64d2fd46c836a06233681665,64dc7af359cbf0e3e6133be9,,,,,,,decisionTrl,resources/DB.BMP,resources/DY.BMP,Door1,-0.212962935,0.033333333,1,0,0,0.7468,optionLeft,30,5335,3,12,0,12,0,1,,,,,,,,,,,,,,,,,,,,,,,,,,,,,,,,,,,,,,,
,,,,,,,,2023-08-16_08h31.58.744,HF_wild_card,2022.2.4,Win32,59.88741167,63d7714e038e3cdd0833f4e1,64d2fd46c836a06233681665,64dc7af359cbf0e3e6133be9,,,,,,,sngl,resources/DB.BMP,resources/Empty.png,Door1,-0.208333333,-0.009259288,1,0,0,0.5454,optionLeft,30,5365,3,13,0,13,0,1,,,,,,,,,,,,,,,,,,,,,,,,,,,,,,,,,,,,,,,
,,,,,,,,2023-08-16_08h31.58.744,HF_wild_card,2022.2.4,Win32,59.88741167,63d7714e038e3cdd0833f4e1,64d2fd46c836a06233681665,64dc7af359cbf0e3e6133be9,,,,,,,decisionTrl,resources/DG.BMP,resources/DP.BMP,Door3,0.234259288,-0.061111111,1,0,0,2.0289,optionRight,70,5435,3,14,0,14,0,1,,,,,,,,,,,,,,,,,,,,,,,,,,,,,,,,,,,,,,,
,,,,,,,,2023-08-16_08h31.58.744,HF_wild_card,2022.2.4,Win32,59.88741167,63d7714e038e3cdd0833f4e1,64d2fd46c836a06233681665,64dc7af359cbf0e3e6133be9,,,,,,,decisionTrl,resources/DP.BMP,resources/DG.BMP,Door4,0.221296353,0.000925912,1,0,0,0.6455,optionRight,80,5515,3,15,0,15,0,1,,,,,,,,,,,,,,,,,,,,,,,,,,,,,,,,,,,,,,,
,,,,,,,,2023-08-16_08h31.58.744,HF_wild_card,2022.2.4,Win32,59.88741167,63d7714e038e3cdd0833f4e1,64d2fd46c836a06233681665,64dc7af359cbf0e3e6133be9,,,,,,,decisionTrl,resources/DY.BMP,resources/DB.BMP,Door1,0.238888889,-0.009259288,1,0,0,0.9133,optionRight,30,5545,3,16,0,16,0,1,,,,,,,,,,,,,,,,,,,,,,,,,,,,,,,,,,,,,,,
,,,,,,,,2023-08-16_08h31.58.744,HF_wild_card,2022.2.4,Win32,59.88741167,63d7714e038e3cdd0833f4e1,64d2fd46c836a06233681665,64dc7af359cbf0e3e6133be9,,,,,,,ctch,resources/DB.BMP,resources/DG.BMP,Door4,0.211111111,-0.02129631,1,0,0,0.592,optionRight,60,5605,3,17,0,17,0,1,,,,,,,,,,,,,,,,,,,,,,,,,,,,,,,,,,,,,,,
,,,,,,,,2023-08-16_08h31.58.744,HF_wild_card,2022.2.4,Win32,59.88741167,63d7714e038e3cdd0833f4e1,64d2fd46c836a06233681665,64dc7af359cbf0e3e6133be9,,,,,,,sngl,resources/DG.BMP,resources/Empty.png,Door4,-0.209259245,-0.011111111,1,0,0,0.6075,optionLeft,80,5685,3,18,0,18,0,1,,,,,,,,,,,,,,,,,,,,,,,,,,,,,,,,,,,,,,,
,,,,,,,,2023-08-16_08h31.58.744,HF_wild_card,2022.2.4,Win32,59.88741167,63d7714e038e3cdd0833f4e1,64d2fd46c836a06233681665,64dc7af359cbf0e3e6133be9,,,,,,,ctch,resources/DG.BMP,resources/DB.BMP,Door4,-0.201851824,0.004629601,1,0,0,0.7476,optionLeft,60,5745,3,19,0,19,0,1,,,,,,,,,,,,,,,,,,,,,,,,,,,,,,,,,,,,,,,
,,,,,,,,2023-08-16_08h31.58.744,HF_wild_card,2022.2.4,Win32,59.88741167,63d7714e038e3cdd0833f4e1,64d2fd46c836a06233681665,64dc7af359cbf0e3e6133be9,,,,,,,decisionTrl,resources/DB.BMP,resources/DY.BMP,Door1,-0.238888889,-0.025925954,1,0,0,0.8093,optionLeft,30,5775,3,20,0,20,0,1,,,,,,,,,,,,,,,,,,,,,,,,,,,,,,,,,,,,,,,
,,,,,,,,2023-08-16_08h31.58.744,HF_wild_card,2022.2.4,Win32,59.88741167,63d7714e038e3cdd0833f4e1,64d2fd46c836a06233681665,64dc7af359cbf0e3e6133be9,,,,,,,sngl,resources/DR.BMP,resources/Empty.png,WildCard_NonEx,-0.207407379,-0.017592621,1,0,0,0.5431,optionLeft,45,5820,3,21,0,21,0,1,,,,,,,,,,,,,,,,,,,,,,,,,,,,,,,,,,,,,,,
,,,,,,,,2023-08-16_08h31.58.744,HF_wild_card,2022.2.4,Win32,59.88741167,63d7714e038e3cdd0833f4e1,64d2fd46c836a06233681665,64dc7af359cbf0e3e6133be9,,,,,,,sngl,resources/DP.BMP,resources/Empty.png,Door3,-0.185185157,-0.011111111,1,0,0,0.4966,optionLeft,70,5890,3,22,0,22,0,1,,,,,,,,,,,,,,,,,,,,,,,,,,,,,,,,,,,,,,,
,,,,,,,,2023-08-16_08h31.58.744,HF_wild_card,2022.2.4,Win32,59.88741167,63d7714e038e3cdd0833f4e1,64d2fd46c836a06233681665,64dc7af359cbf0e3e6133be9,,,,,,,sngl,resources/Empty.png,resources/DR.BMP,WildCard_NonEx,0.212037065,-0.042592621,1,0,0,0.646,optionRight,45,5935,3,23,0,23,0,1,,,,,,,,,,,,,,,,,,,,,,,,,,,,,,,,,,,,,,,
,,,,,,,,2023-08-16_08h31.58.744,HF_wild_card,2022.2.4,Win32,59.88741167,63d7714e038e3cdd0833f4e1,64d2fd46c836a06233681665,64dc7af359cbf0e3e6133be9,,,,,,,decisionTrl,resources/DY.BMP,resources/DB.BMP,Door1,0.229629686,-0.051851866,1,0,0,1.1459,optionRight,30,5965,3,24,0,24,0,1,,,,,,,,,,,,,,,,,,,,,,,,,,,,,,,,,,,,,,,
,,,,,,,,2023-08-16_08h31.58.744,HF_wild_card,2022.2.4,Win32,59.88741167,63d7714e038e3cdd0833f4e1,64d2fd46c836a06233681665,64dc7af359cbf0e3e6133be9,,,,,,,decisionTrl,resources/DB.BMP,resources/DY.BMP,Door1,-0.187962935,-0.016666667,1,0,0,0.6947,optionLeft,30,5995,3,25,0,25,0,1,,,,,,,,,,,,,,,,,,,,,,,,,,,,,,,,,,,,,,,
,,,,,,,,2023-08-16_08h31.58.744,HF_wild_card,2022.2.4,Win32,59.88741167,63d7714e038e3cdd0833f4e1,64d2fd46c836a06233681665,64dc7af359cbf0e3e6133be9,,,,,,,decisionTrl,resources/DR.BMP,resources/DB.BMP,WildCard_NonEx,-0.184259245,-0.025,1,0,0,0.5819,optionLeft,45,6040,3,26,0,26,0,1,,,,,,,,,,,,,,,,,,,,,,,,,,,,,,,,,,,,,,,
,,,,,,,,2023-08-16_08h31.58.744,HF_wild_card,2022.2.4,Win32,59.88741167,63d7714e038e3cdd0833f4e1,64d2fd46c836a06233681665,64dc7af359cbf0e3e6133be9,,,,,,,decisionTrl,resources/DG.BMP,resources/DP.BMP,Door3,0.190740797,-0.067592621,1,0,0,0.7747,optionRight,70,6110,3,27,0,27,0,1,,,,,,,,,,,,,,,,,,,,,,,,,,,,,,,,,,,,,,,
,,,,,,,,2023-08-16_08h31.58.744,HF_wild_card,2022.2.4,Win32,59.88741167,63d7714e038e3cdd0833f4e1,64d2fd46c836a06233681665,64dc7af359cbf0e3e6133be9,,,,,,,sngl,resources/Empty.png,resources/DB.BMP,Door1,0.177777778,-0.065740755,1,0,0,0.679,optionRight,30,6140,3,28,0,28,0,1,,,,,,,,,,,,,,,,,,,,,,,,,,,,,,,,,,,,,,,
,,,,,,,,2023-08-16_08h31.58.744,HF_wild_card,2022.2.4,Win32,59.88741167,63d7714e038e3cdd0833f4e1,64d2fd46c836a06233681665,64dc7af359cbf0e3e6133be9,,,,,,,decisionTrl,resources/DY.BMP,resources/DB.BMP,Door2,-0.199074046,-0.019444444,1,0,0,0.8136,optionLeft,40,6180,3,29,0,29,0,1,,,,,,,,,,,,,,,,,,,,,,,,,,,,,,,,,,,,,,,
,,,,,,,,2023-08-16_08h31.58.744,HF_wild_card,2022.2.4,Win32,59.88741167,63d7714e038e3cdd0833f4e1,64d2fd46c836a06233681665,64dc7af359cbf0e3e6133be9,,,,,,,decisionTrl,resources/DR.BMP,resources/DP.BMP,Door3,0.238888889,-0.038888889,1,0,0,0.7784,optionRight,70,6250,3,30,0,30,0,1,,,,,,,,,,,,,,,,,,,,,,,,,,,,,,,,,,,,,,,
,,,,,,,,2023-08-16_08h31.58.744,HF_wild_card,2022.2.4,Win32,59.88741167,63d7714e038e3cdd0833f4e1,64d2fd46c836a06233681665,64dc7af359cbf0e3e6133be9,,,,,,,sngl,resources/DR.BMP,resources/Empty.png,WildCard_NonEx,-0.216666667,-0.007407422,1,0,0,0.4637,optionLeft,55,6305,3,31,0,31,0,1,,,,,,,,,,,,,,,,,,,,,,,,,,,,,,,,,,,,,,,
,,,,,,,,2023-08-16_08h31.58.744,HF_wild_card,2022.2.4,Win32,59.88741167,63d7714e038e3cdd0833f4e1,64d2fd46c836a06233681665,64dc7af359cbf0e3e6133be9,,,,,,,decisionTrl,resources/DG.BMP,resources/DP.BMP,Door4,-0.155555556,-0.028703732,1,0,0,1.0934,optionLeft,60,6365,3,32,0,32,0,1,,,,,,,,,,,,,,,,,,,,,,,,,,,,,,,,,,,,,,,
,,,,,,,,2023-08-16_08h31.58.744,HF_wild_card,2022.2.4,Win32,59.88741167,63d7714e038e3cdd0833f4e1,64d2fd46c836a06233681665,64dc7af359cbf0e3e6133be9,,,,,,,ctch,resources/DY.BMP,resources/DP.BMP,Door3,0.20648151,-0.02129631,1,0,0,0.7292,optionRight,70,6435,3,33,0,33,0,1,,,,,,,,,,,,,,,,,,,,,,,,,,,,,,,,,,,,,,,
,,,,,,,,2023-08-16_08h31.58.744,HF_wild_card,2022.2.4,Win32,59.88741167,63d7714e038e3cdd0833f4e1,64d2fd46c836a06233681665,64dc7af359cbf0e3e6133be9,,,,,,,ctch,resources/DP.BMP,resources/DY.BMP,Door3,-0.195370356,-0.014814843,1,0,0,0.5285,optionLeft,70,6505,3,34,0,34,0,1,,,,,,,,,,,,,,,,,,,,,,,,,,,,,,,,,,,,,,,
,,,,,,,,2023-08-16_08h31.58.744,HF_wild_card,2022.2.4,Win32,59.88741167,63d7714e038e3cdd0833f4e1,64d2fd46c836a06233681665,64dc7af359cbf0e3e6133be9,,,,,,,sngl,resources/Empty.png,resources/DP.BMP,Door3,0.164814843,-0.020370399,1,0,0,0.5131,optionRight,70,6575,3,35,0,35,0,1,,,,,,,,,,,,,,,,,,,,,,,,,,,,,,,,,,,,,,,
,,,,,,,,2023-08-16_08h31.58.744,HF_wild_card,2022.2.4,Win32,59.88741167,63d7714e038e3cdd0833f4e1,64d2fd46c836a06233681665,64dc7af359cbf0e3e6133be9,,,,,,,decisionTrl,resources/DR.BMP,resources/DY.BMP,WildCard_NonEx,-0.217592578,0.021296268,1,0,0,1.3123,optionLeft,45,6620,3,36,0,36,0,1,,,,,,,,,,,,,,,,,,,,,,,,,,,,,,,,,,,,,,,
,,,,,,,,2023-08-16_08h31.58.744,HF_wild_card,2022.2.4,Win32,59.88741167,63d7714e038e3cdd0833f4e1,64d2fd46c836a06233681665,64dc7af359cbf0e3e6133be9,,,,,,,ctch,resources/DB.BMP,resources/DG.BMP,Door4,0.189814843,-0.032407422,1,0,0,1.2453,optionRight,80,6700,3,37,0,37,0,1,,,,,,,,,,,,,,,,,,,,,,,,,,,,,,,,,,,,,,,
,,,,,,,,2023-08-16_08h31.58.744,HF_wild_card,2022.2.4,Win32,59.88741167,63d7714e038e3cdd0833f4e1,64d2fd46c836a06233681665,64dc7af359cbf0e3e6133be9,,,,,,,decisionTrl,resources/DP.BMP,resources/DG.BMP,Door4,0.290740797,-0.004629644,1,0,0,0.6536,optionRight,60,6760,3,38,0,38,0,1,,,,,,,,,,,,,,,,,,,,,,,,,,,,,,,,,,,,,,,
,,,,,,,,2023-08-16_08h31.58.744,HF_wild_card,2022.2.4,Win32,59.88741167,63d7714e038e3cdd0833f4e1,64d2fd46c836a06233681665,64dc7af359cbf0e3e6133be9,,,,,,,ctch,resources/DG.BMP,resources/DB.BMP,Door4,-0.21851849,-0.019444444,1,0,0,1.0294,optionLeft,60,6820,3,39,0,39,0,1,,,,,,,,,,,,,,,,,,,,,,,,,,,,,,,,,,,,,,,
,,,,,,,,2023-08-16_08h31.58.744,HF_wild_card,2022.2.4,Win32,59.88741167,63d7714e038e3cdd0833f4e1,64d2fd46c836a06233681665,64dc7af359cbf0e3e6133be9,,,,,,,decisionTrl,resources/DB.BMP,resources/DY.BMP,Door1,-0.214814801,0.033333333,1,0,0,1.2507,optionLeft,30,6850,3,40,0,40,0,1,,,,,,,,,,,,,,,,,,,,,,,,,,,,,,,,,,,,,,,
,,,,,,,,2023-08-16_08h31.58.744,HF_wild_card,2022.2.4,Win32,59.88741167,63d7714e038e3cdd0833f4e1,64d2fd46c836a06233681665,64dc7af359cbf0e3e6133be9,,,,,,,decisionTrl,resources/DP.BMP,resources/DR.BMP,Door3,-0.181481467,-0.001851866,1,0,0,0.914,optionLeft,70,6920,3,41,0,41,0,1,,,,,,,,,,,,,,,,,,,,,,,,,,,,,,,,,,,,,,,
,,,,,,,,2023-08-16_08h31.58.744,HF_wild_card,2022.2.4,Win32,59.88741167,63d7714e038e3cdd0833f4e1,64d2fd46c836a06233681665,64dc7af359cbf0e3e6133be9,,,,,,,decisionTrl,resources/DB.BMP,resources/DR.BMP,Door1,-0.175,-0.017592621,1,0,0,0.4457,optionLeft,30,6950,3,42,0,42,0,1,,,,,,,,,,,,,,,,,,,,,,,,,,,,,,,,,,,,,,,
,,,,,,,,2023-08-16_08h31.58.744,HF_wild_card,2022.2.4,Win32,59.88741167,63d7714e038e3cdd0833f4e1,64d2fd46c836a06233681665,64dc7af359cbf0e3e6133be9,,,,,,,sngl,resources/DY.BMP,resources/Empty.png,Door2,-0.2,0.033333333,1,0,0,0.5959,optionLeft,40,6990,3,43,0,43,0,1,,,,,,,,,,,,,,,,,,,,,,,,,,,,,,,,,,,,,,,
,,,,,,,,2023-08-16_08h31.58.744,HF_wild_card,2022.2.4,Win32,59.88741167,63d7714e038e3cdd0833f4e1,64d2fd46c836a06233681665,64dc7af359cbf0e3e6133be9,,,,,,,,,,,,,,,,,,,,,,,,,,2,0,2,0,1,,,,,,,,,,,,,,,,,,,,,,,,,,,,,,,,,,
,,,,,,,,2023-08-16_08h31.58.744,HF_wild_card,2022.2.4,Win32,59.88741167,63d7714e038e3cdd0833f4e1,64d2fd46c836a06233681665,64dc7af359cbf0e3e6133be9,,,,,,,ctch,resources/DG.BMP,resources/DB.BMP,Door4,-0.230555556,-0.04629631,1,0,0,1.2805,optionLeft,60,7050,4,0,0,0,0,1,,,,,,,,,,,,,,,,,,,,,,,,,,,,,,,,,,,,,,,
,,,,,,,,2023-08-16_08h31.58.744,HF_wild_card,2022.2.4,Win32,59.88741167,63d7714e038e3cdd0833f4e1,64d2fd46c836a06233681665,64dc7af359cbf0e3e6133be9,,,,,,,ctch,resources/DY.BMP,resources/DP.BMP,Door3,0.259259288,0.004629601,1,0,0,1.1889,optionRight,70,7120,4,1,0,1,0,1,,,,,,,,,,,,,,,,,,,,,,,,,,,,,,,,,,,,,,,
,,,,,,,,2023-08-16_08h31.58.744,HF_wild_card,2022.2.4,Win32,59.88741167,63d7714e038e3cdd0833f4e1,64d2fd46c836a06233681665,64dc7af359cbf0e3e6133be9,,,,,,,ctch,resources/DB.BMP,resources/DG.BMP,Door4,0.342592621,0.013888889,1,0,0,1.5951,optionRight,60,7180,4,2,0,2,0,1,,,,,,,,,,,,,,,,,,,,,,,,,,,,,,,,,,,,,,,
,,,,,,,,2023-08-16_08h31.58.744,HF_wild_card,2022.2.4,Win32,59.88741167,63d7714e038e3cdd0833f4e1,64d2fd46c836a06233681665,64dc7af359cbf0e3e6133be9,,,,,,,decisionTrl,resources/DG.BMP,resources/DBN.BMP,Door4,-0.294444444,-0.008333333,1,0,0,0.5455,optionLeft,80,7260,4,3,0,3,0,1,,,,,,,,,,,,,,,,,,,,,,,,,,,,,,,,,,,,,,,
,,,,,,,,2023-08-16_08h31.58.744,HF_wild_card,2022.2.4,Win32,59.88741167,63d7714e038e3cdd0833f4e1,64d2fd46c836a06233681665,64dc7af359cbf0e3e6133be9,,,,,,,sngl,resources/Empty.png,resources/DY.BMP,Door2,0.255555556,-0.087962977,1,0,0,0.5625,optionRight,40,7300,4,4,0,4,0,1,,,,,,,,,,,,,,,,,,,,,,,,,,,,,,,,,,,,,,,
,,,,,,,,2023-08-16_08h31.58.744,HF_wild_card,2022.2.4,Win32,59.88741167,63d7714e038e3cdd0833f4e1,64d2fd46c836a06233681665,64dc7af359cbf0e3e6133be9,,,,,,,sngl,resources/Empty.png,resources/DB.BMP,Door1,0.403703732,-0.017592621,1,0,0,0.9794,optionRight,30,7330,4,5,0,5,0,1,,,,,,,,,,,,,,,,,,,,,,,,,,,,,,,,,,,,,,,
,,,,,,,,2023-08-16_08h31.58.744,HF_wild_card,2022.2.4,Win32,59.88741167,63d7714e038e3cdd0833f4e1,64d2fd46c836a06233681665,64dc7af359cbf0e3e6133be9,,,,,,,sngl,resources/DG.BMP,resources/Empty.png,Door4,-0.299074046,-0.012962977,1,0,0,0.5442,optionLeft,60,7390,4,6,0,6,0,1,,,,,,,,,,,,,,,,,,,,,,,,,,,,,,,,,,,,,,,
,,,,,,,,2023-08-16_08h31.58.744,HF_wild_card,2022.2.4,Win32,59.88741167,63d7714e038e3cdd0833f4e1,64d2fd46c836a06233681665,64dc7af359cbf0e3e6133be9,,,,,,,sngl,resources/Empty.png,resources/DP.BMP,Door3,0.25648151,-0.05648151,1,0,0,0.7293,optionRight,70,7460,4,7,0,7,0,1,,,,,,,,,,,,,,,,,,,,,,,,,,,,,,,,,,,,,,,
,,,,,,,,2023-08-16_08h31.58.744,HF_wild_card,2022.2.4,Win32,59.88741167,63d7714e038e3cdd0833f4e1,64d2fd46c836a06233681665,64dc7af359cbf0e3e6133be9,,,,,,,sngl,resources/DBN.BMP,resources/Empty.png,WildCard_Ex,-0.267592578,-0.030555556,1,0,0,0.5786,optionLeft,45,7505,4,8,0,8,0,1,,,,,,,,,,,,,,,,,,,,,,,,,,,,,,,,,,,,,,,
,,,,,,,,2023-08-16_08h31.58.744,HF_wild_card,2022.2.4,Win32,59.88741167,63d7714e038e3cdd0833f4e1,64d2fd46c836a06233681665,64dc7af359cbf0e3e6133be9,,,,,,,decisionTrl,resources/DP.BMP,resources/DG.BMP,Door3,-0.230555556,0,1,0,0,0.8625,optionLeft,70,7575,4,9,0,9,0,1,,,,,,,,,,,,,,,,,,,,,,,,,,,,,,,,,,,,,,,
,,,,,,,,2023-08-16_08h31.58.744,HF_wild_card,2022.2.4,Win32,59.88741167,63d7714e038e3cdd0833f4e1,64d2fd46c836a06233681665,64dc7af359cbf0e3e6133be9,,,,,,,decisionTrl,resources/DG.BMP,resources/DP.BMP,Door3,0.293518575,-0.035185199,1,0,0,0.996,optionRight,70,7645,4,10,0,10,0,1,,,,,,,,,,,,,,,,,,,,,,,,,,,,,,,,,,,,,,,
,,,,,,,,2023-08-16_08h31.58.744,HF_wild_card,2022.2.4,Win32,59.88741167,63d7714e038e3cdd0833f4e1,64d2fd46c836a06233681665,64dc7af359cbf0e3e6133be9,,,,,,,decisionTrl,resources/DY.BMP,resources/DB.BMP,Door1,0.275925954,-0.054629644,1,0,0,1.1969,optionRight,30,7675,4,11,0,11,0,1,,,,,,,,,,,,,,,,,,,,,,,,,,,,,,,,,,,,,,,
,,,,,,,,2023-08-16_08h31.58.744,HF_wild_card,2022.2.4,Win32,59.88741167,63d7714e038e3cdd0833f4e1,64d2fd46c836a06233681665,64dc7af359cbf0e3e6133be9,,,,,,,decisionTrl,resources/DY.BMP,resources/DB.BMP,Door1,0.235185242,-0.024074088,1,0,0,0.8292,optionRight,30,7705,4,12,0,12,0,1,,,,,,,,,,,,,,,,,,,,,,,,,,,,,,,,,,,,,,,
,,,,,,,,2023-08-16_08h31.58.744,HF_wild_card,2022.2.4,Win32,59.88741167,63d7714e038e3cdd0833f4e1,64d2fd46c836a06233681665,64dc7af359cbf0e3e6133be9,,,,,,,sngl,resources/DP.BMP,resources/Empty.png,Door3,-0.282407379,-0.004629644,1,0,0,0.4969,optionLeft,70,7775,4,13,0,13,0,1,,,,,,,,,,,,,,,,,,,,,,,,,,,,,,,,,,,,,,,
,,,,,,,,2023-08-16_08h31.58.744,HF_wild_card,2022.2.4,Win32,59.88741167,63d7714e038e3cdd0833f4e1,64d2fd46c836a06233681665,64dc7af359cbf0e3e6133be9,,,,,,,decisionTrl,resources/DP.BMP,resources/DG.BMP,Door3,-0.283333333,-0.053703732,1,0,0,0.8471,optionLeft,70,7845,4,14,0,14,0,1,,,,,,,,,,,,,,,,,,,,,,,,,,,,,,,,,,,,,,,
,,,,,,,,2023-08-16_08h31.58.744,HF_wild_card,2022.2.4,Win32,59.88741167,63d7714e038e3cdd0833f4e1,64d2fd46c836a06233681665,64dc7af359cbf0e3e6133be9,,,,,,,sngl,resources/DBN.BMP,resources/Empty.png,WildCard_Ex,-0.264814801,-0.000925954,1,0,0,0.5964,optionLeft,55,7900,4,15,0,15,0,1,,,,,,,,,,,,,,,,,,,,,,,,,,,,,,,,,,,,,,,
,,,,,,,,2023-08-16_08h31.58.744,HF_wild_card,2022.2.4,Win32,59.88741167,63d7714e038e3cdd0833f4e1,64d2fd46c836a06233681665,64dc7af359cbf0e3e6133be9,,,,,,,decisionTrl,resources/DG.BMP,resources/DP.BMP,Door4,-0.270370356,-0.024074088,1,0,0,1.1114,optionLeft,60,7960,4,16,0,16,0,1,,,,,,,,,,,,,,,,,,,,,,,,,,,,,,,,,,,,,,,
,,,,,,,,2023-08-16_08h31.58.744,HF_wild_card,2022.2.4,Win32,59.88741167,63d7714e038e3cdd0833f4e1,64d2fd46c836a06233681665,64dc7af359cbf0e3e6133be9,,,,,,,decisionTrl,resources/DP.BMP,resources/DBN.BMP,Door3,-0.265740712,-0.073148176,1,0,0,1.594,optionLeft,70,8030,4,17,0,17,0,1,,,,,,,,,,,,,,,,,,,,,,,,,,,,,,,,,,,,,,,
,,,,,,,,2023-08-16_08h31.58.744,HF_wild_card,2022.2.4,Win32,59.88741167,63d7714e038e3cdd0833f4e1,64d2fd46c836a06233681665,64dc7af359cbf0e3e6133be9,,,,,,,decisionTrl,resources/DP.BMP,resources/DG.BMP,Door3,-0.327777778,-0.022222222,1,0,0,0.5808,optionLeft,70,8100,4,18,0,18,0,1,,,,,,,,,,,,,,,,,,,,,,,,,,,,,,,,,,,,,,,
,,,,,,,,2023-08-16_08h31.58.744,HF_wild_card,2022.2.4,Win32,59.88741167,63d7714e038e3cdd0833f4e1,64d2fd46c836a06233681665,64dc7af359cbf0e3e6133be9,,,,,,,decisionTrl,resources/DBN.BMP,resources/DY.BMP,WildCard_Ex,-0.292592578,-0.036111111,1,0,0,1.277,optionLeft,45,8145,4,19,0,19,0,1,,,,,,,,,,,,,,,,,,,,,,,,,,,,,,,,,,,,,,,
,,,,,,,,2023-08-16_08h31.58.744,HF_wild_card,2022.2.4,Win32,59.88741167,63d7714e038e3cdd0833f4e1,64d2fd46c836a06233681665,64dc7af359cbf0e3e6133be9,,,,,,,decisionTrl,resources/DBN.BMP,resources/DP.BMP,Door3,0.424074131,-0.139814843,1,0,0,1.4144,optionRight,70,8215,4,20,0,20,0,1,,,,,,,,,,,,,,,,,,,,,,,,,,,,,,,,,,,,,,,
,,,,,,,,2023-08-16_08h31.58.744,HF_wild_card,2022.2.4,Win32,59.88741167,63d7714e038e3cdd0833f4e1,64d2fd46c836a06233681665,64dc7af359cbf0e3e6133be9,,,,,,,decisionTrl,resources/DB.BMP,resources/DY.BMP,Door1,-0.24351849,-0.028703732,1,0,0,0.8639,optionLeft,30,8245,4,21,0,21,0,1,,,,,,,,,,,,,,,,,,,,,,,,,,,,,,,,,,,,,,,
,,,,,,,,2023-08-16_08h31.58.744,HF_wild_card,2022.2.4,Win32,59.88741167,63d7714e038e3cdd0833f4e1,64d2fd46c836a06233681665,64dc7af359cbf0e3e6133be9,,,,,,,sngl,resources/DY.BMP,resources/Empty.png,Door2,-0.213888889,-0.051851866,1,0,0,0.5307,optionLeft,20,8265,4,22,0,22,0,1,,,,,,,,,,,,,,,,,,,,,,,,,,,,,,,,,,,,,,,
,,,,,,,,2023-08-16_08h31.58.744,HF_wild_card,2022.2.4,Win32,59.88741167,63d7714e038e3cdd0833f4e1,64d2fd46c836a06233681665,64dc7af359cbf0e3e6133be9,,,,,,,decisionTrl,resources/DG.BMP,resources/DP.BMP,Door3,0.422222222,-0.028703732,1,0,0,1.0801,optionRight,70,8335,4,23,0,23,0,1,,,,,,,,,,,,,,,,,,,,,,,,,,,,,,,,,,,,,,,
,,,,,,,,2023-08-16_08h31.58.744,HF_wild_card,2022.2.4,Win32,59.88741167,63d7714e038e3cdd0833f4e1,64d2fd46c836a06233681665,64dc7af359cbf0e3e6133be9,,,,,,,decisionTrl,resources/DY.BMP,resources/DBN.BMP,WildCard_Ex,0.188888889,-0.036111111,1,0,0,1.6197,optionRight,55,8390,4,24,0,24,0,1,,,,,,,,,,,,,,,,,,,,,,,,,,,,,,,,,,,,,,,
,,,,,,,,2023-08-16_08h31.58.744,HF_wild_card,2022.2.4,Win32,59.88741167,63d7714e038e3cdd0833f4e1,64d2fd46c836a06233681665,64dc7af359cbf0e3e6133be9,,,,,,,ctch,resources/DP.BMP,resources/DY.BMP,Door3,-0.304629601,-0.062037065,1,0,0,0.8942,optionLeft,70,8460,4,25,0,25,0,1,,,,,,,,,,,,,,,,,,,,,,,,,,,,,,,,,,,,,,,
,,,,,,,,2023-08-16_08h31.58.744,HF_wild_card,2022.2.4,Win32,59.88741167,63d7714e038e3cdd0833f4e1,64d2fd46c836a06233681665,64dc7af359cbf0e3e6133be9,,,,,,,sngl,resources/Empty.png,resources/DG.BMP,Door4,0.325925954,-0.083333333,1,0,0,0.5426,optionRight,80,8540,4,26,0,26,0,1,,,,,,,,,,,,,,,,,,,,,,,,,,,,,,,,,,,,,,,
,,,,,,,,2023-08-16_08h31.58.744,HF_wild_card,2022.2.4,Win32,59.88741167,63d7714e038e3cdd0833f4e1,64d2fd46c836a06233681665,64dc7af359cbf0e3e6133be9,,,,,,,ctch,resources/DP.BMP,resources/DY.BMP,Door3,-0.245370356,-0.050925954,1,0,0,0.8138,optionLeft,70,8610,4,27,0,27,0,1,,,,,,,,,,,,,,,,,,,,,,,,,,,,,,,,,,,,,,,
,,,,,,,,2023-08-16_08h31.58.744,HF_wild_card,2022.2.4,Win32,59.88741167,63d7714e038e3cdd0833f4e1,64d2fd46c836a06233681665,64dc7af359cbf0e3e6133be9,,,,,,,decisionTrl,resources/DB.BMP,resources/DY.BMP,Door1,-0.289814801,-0.022222222,1,0,0,1.1629,optionLeft,30,8640,4,28,0,28,0,1,,,,,,,,,,,,,,,,,,,,,,,,,,,,,,,,,,,,,,,
,,,,,,,,2023-08-16_08h31.58.744,HF_wild_card,2022.2.4,Win32,59.88741167,63d7714e038e3cdd0833f4e1,64d2fd46c836a06233681665,64dc7af359cbf0e3e6133be9,,,,,,,sngl,resources/Empty.png,resources/DBN.BMP,WildCard_Ex,0.223148176,-0.072222222,1,0,0,0.7287,optionRight,55,8695,4,29,0,29,0,1,,,,,,,,,,,,,,,,,,,,,,,,,,,,,,,,,,,,,,,
,,,,,,,,2023-08-16_08h31.58.744,HF_wild_card,2022.2.4,Win32,59.88741167,63d7714e038e3cdd0833f4e1,64d2fd46c836a06233681665,64dc7af359cbf0e3e6133be9,,,,,,,decisionTrl,resources/DB.BMP,resources/DY.BMP,Door1,-0.207407379,-0.070370399,1,0,0,0.981,optionLeft,30,8725,4,30,0,30,0,1,,,,,,,,,,,,,,,,,,,,,,,,,,,,,,,,,,,,,,,
,,,,,,,,2023-08-16_08h31.58.744,HF_wild_card,2022.2.4,Win32,59.88741167,63d7714e038e3cdd0833f4e1,64d2fd46c836a06233681665,64dc7af359cbf0e3e6133be9,,,,,,,decisionTrl,resources/DY.BMP,resources/DB.BMP,Door1,0.272222222,-0.054629644,1,0,0,1.0625,optionRight,30,8755,4,31,0,31,0,1,,,,,,,,,,,,,,,,,,,,,,,,,,,,,,,,,,,,,,,
,,,,,,,,2023-08-16_08h31.58.744,HF_wild_card,2022.2.4,Win32,59.88741167,63d7714e038e3cdd0833f4e1,64d2fd46c836a06233681665,64dc7af359cbf0e3e6133be9,,,,,,,ctch,resources/DY.BMP,resources/DP.BMP,Door3,0.225925954,-0.067592621,1,0,0,0.9798,optionRight,70,8825,4,32,0,32,0,1,,,,,,,,,,,,,,,,,,,,,,,,,,,,,,,,,,,,,,,
,,,,,,,,2023-08-16_08h31.58.744,HF_wild_card,2022.2.4,Win32,59.88741167,63d7714e038e3cdd0833f4e1,64d2fd46c836a06233681665,64dc7af359cbf0e3e6133be9,,,,,,,decisionTrl,resources/DBN.BMP,resources/DG.BMP,Door4,0.203703732,-0.091666667,1,0,0,1.9409,optionRight,60,8885,4,33,0,33,0,1,,,,,,,,,,,,,,,,,,,,,,,,,,,,,,,,,,,,,,,
,,,,,,,,2023-08-16_08h31.58.744,HF_wild_card,2022.2.4,Win32,59.88741167,63d7714e038e3cdd0833f4e1,64d2fd46c836a06233681665,64dc7af359cbf0e3e6133be9,,,,,,,ctch,resources/DG.BMP,resources/DB.BMP,Door4,-0.263888889,-0.050925954,1,0,0,0.6455,optionLeft,80,8965,4,34,0,34,0,1,,,,,,,,,,,,,,,,,,,,,,,,,,,,,,,,,,,,,,,
,,,,,,,,2023-08-16_08h31.58.744,HF_wild_card,2022.2.4,Win32,59.88741167,63d7714e038e3cdd0833f4e1,64d2fd46c836a06233681665,64dc7af359cbf0e3e6133be9,,,,,,,sngl,resources/DB.BMP,resources/Empty.png,Door1,-0.200925912,0.013888889,1,0,0,0.5408,optionLeft,30,8995,4,35,0,35,0,1,,,,,,,,,,,,,,,,,,,,,,,,,,,,,,,,,,,,,,,
,,,,,,,,2023-08-16_08h31.58.744,HF_wild_card,2022.2.4,Win32,59.88741167,63d7714e038e3cdd0833f4e1,64d2fd46c836a06233681665,64dc7af359cbf0e3e6133be9,,,,,,,sngl,resources/Empty.png,resources/DBN.BMP,WildCard_Ex,0.309259288,-0.092592621,1,0,0,0.5623,optionRight,45,9040,4,36,0,36,0,1,,,,,,,,,,,,,,,,,,,,,,,,,,,,,,,,,,,,,,,
,,,,,,,,2023-08-16_08h31.58.744,HF_wild_card,2022.2.4,Win32,59.88741167,63d7714e038e3cdd0833f4e1,64d2fd46c836a06233681665,64dc7af359cbf0e3e6133be9,,,,,,,ctch,resources/DB.BMP,resources/DG.BMP,Door4,0.210185242,-0.062962977,1,0,0,1.063,optionRight,60,9100,4,37,0,37,0,1,,,,,,,,,,,,,,,,,,,,,,,,,,,,,,,,,,,,,,,
,,,,,,,,2023-08-16_08h31.58.744,HF_wild_card,2022.2.4,Win32,59.88741167,63d7714e038e3cdd0833f4e1,64d2fd46c836a06233681665,64dc7af359cbf0e3e6133be9,,,,,,,decisionTrl,resources/DB.BMP,resources/DY.BMP,Door1,-0.271296268,-0.020370399,1,0,0,0.7957,optionLeft,30,9130,4,38,0,38,0,1,,,,,,,,,,,,,,,,,,,,,,,,,,,,,,,,,,,,,,,
,,,,,,,,2023-08-16_08h31.58.744,HF_wild_card,2022.2.4,Win32,59.88741167,63d7714e038e3cdd0833f4e1,64d2fd46c836a06233681665,64dc7af359cbf0e3e6133be9,,,,,,,decisionTrl,resources/DBN.BMP,resources/DB.BMP,WildCard_Ex,-0.262037023,0.006481467,1,0,0,1.162,optionLeft,55,9185,4,39,0,39,0,1,,,,,,,,,,,,,,,,,,,,,,,,,,,,,,,,,,,,,,,
,,,,,,,,2023-08-16_08h31.58.744,HF_wild_card,2022.2.4,Win32,59.88741167,63d7714e038e3cdd0833f4e1,64d2fd46c836a06233681665,64dc7af359cbf0e3e6133be9,,,,,,,decisionTrl,resources/DB.BMP,resources/DBN.BMP,WildCard_Ex,0.237037065,-0.054629644,1,0,0,0.7554,optionRight,55,9240,4,40,0,40,0,1,,,,,,,,,,,,,,,,,,,,,,,,,,,,,,,,,,,,,,,
,,,,,,,,2023-08-16_08h31.58.744,HF_wild_card,2022.2.4,Win32,59.88741167,63d7714e038e3cdd0833f4e1,64d2fd46c836a06233681665,64dc7af359cbf0e3e6133be9,,,,,,,decisionTrl,resources/DG.BMP,resources/DP.BMP,Door4,-0.267592578,-0.055555556,1,0,0,1.3454,optionLeft,80,9320,4,41,0,41,0,1,,,,,,,,,,,,,,,,,,,,,,,,,,,,,,,,,,,,,,,
,,,,,,,,2023-08-16_08h31.58.744,HF_wild_card,2022.2.4,Win32,59.88741167,63d7714e038e3cdd0833f4e1,64d2fd46c836a06233681665,64dc7af359cbf0e3e6133be9,,,,,,,decisionTrl,resources/DP.BMP,resources/DG.BMP,Door4,0.254629686,-0.102777778,1,0,0,0.5576,optionRight,60,9380,4,42,0,42,0,1,,,,,,,,,,,,,,,,,,,,,,,,,,,,,,,,,,,,,,,
,,,,,,,,2023-08-16_08h31.58.744,HF_wild_card,2022.2.4,Win32,59.88741167,63d7714e038e3cdd0833f4e1,64d2fd46c836a06233681665,64dc7af359cbf0e3e6133be9,,,,,,,decisionTrl,resources/DY.BMP,resources/DB.BMP,Door1,0.247222222,-0.107407422,1,0,0,0.9304,optionRight,30,9410,4,43,0,43,0,1,,,,,,,,,,,,,,,,,,,,,,,,,,,,,,,,,,,,,,,
,,,,,,,,2023-08-16_08h31.58.744,HF_wild_card,2022.2.4,Win32,59.88741167,63d7714e038e3cdd0833f4e1,64d2fd46c836a06233681665,64dc7af359cbf0e3e6133be9,,,,,,,,,,,,,,,,,,,,,,,,,,3,0,3,0,1,,,,,,,,,,,,,,,,,,,,,,,,,,,,,,,,,,
,,,,,,,,2023-08-16_08h31.58.744,HF_wild_card,2022.2.4,Win32,59.88741167,63d7714e038e3cdd0833f4e1,64d2fd46c836a06233681665,64dc7af359cbf0e3e6133be9,,,,,,,ctch,resources/DP.BMP,resources/DY.BMP,Door3,-0.473148134,-0.099074088,1,0,0,17.5031,optionLeft,70,9480,5,0,0,0,0,1,,,,,,,,,,,,,,,,,,,,,,,,,,,,,,,,,,,,,,,
,,,,,,,,2023-08-16_08h31.58.744,HF_wild_card,2022.2.4,Win32,59.88741167,63d7714e038e3cdd0833f4e1,64d2fd46c836a06233681665,64dc7af359cbf0e3e6133be9,,,,,,,decisionTrl,resources/DY.BMP,resources/DB.BMP,Door1,0.411111111,-0.101851866,1,0,0,2.3967,optionRight,30,9510,5,1,0,1,0,1,,,,,,,,,,,,,,,,,,,,,,,,,,,,,,,,,,,,,,,
,,,,,,,,2023-08-16_08h31.58.744,HF_wild_card,2022.2.4,Win32,59.88741167,63d7714e038e3cdd0833f4e1,64d2fd46c836a06233681665,64dc7af359cbf0e3e6133be9,,,,,,,decisionTrl,resources/DB.BMP,resources/DY.BMP,Door1,-0.264814801,-0.084259288,1,0,0,0.5679,optionLeft,30,9540,5,2,0,2,0,1,,,,,,,,,,,,,,,,,,,,,,,,,,,,,,,,,,,,,,,
,,,,,,,,2023-08-16_08h31.58.744,HF_wild_card,2022.2.4,Win32,59.88741167,63d7714e038e3cdd0833f4e1,64d2fd46c836a06233681665,64dc7af359cbf0e3e6133be9,,,,,,,decisionTrl,resources/DG.BMP,resources/DBN.BMP,Door4,-0.252777778,-0.105555556,1,0,0,1.2445,optionLeft,60,9600,5,3,0,3,0,1,,,,,,,,,,,,,,,,,,,,,,,,,,,,,,,,,,,,,,,
,,,,,,,,2023-08-16_08h31.58.744,HF_wild_card,2022.2.4,Win32,59.88741167,63d7714e038e3cdd0833f4e1,64d2fd46c836a06233681665,64dc7af359cbf0e3e6133be9,,,,,,,decisionTrl,resources/DY.BMP,resources/DB.BMP,Door1,0.248148176,-0.055555556,1,0,0,0.911,optionRight,30,9630,5,4,0,4,0,1,,,,,,,,,,,,,,,,,,,,,,,,,,,,,,,,,,,,,,,
,,,,,,,,2023-08-16_08h31.58.744,HF_wild_card,2022.2.4,Win32,59.88741167,63d7714e038e3cdd0833f4e1,64d2fd46c836a06233681665,64dc7af359cbf0e3e6133be9,,,,,,,decisionTrl,resources/DG.BMP,resources/DP.BMP,Door4,-0.36851849,-0.060185199,1,0,0,1.3622,optionLeft,80,9710,5,5,0,5,0,1,,,,,,,,,,,,,,,,,,,,,,,,,,,,,,,,,,,,,,,
,,,,,,,,2023-08-16_08h31.58.744,HF_wild_card,2022.2.4,Win32,59.88741167,63d7714e038e3cdd0833f4e1,64d2fd46c836a06233681665,64dc7af359cbf0e3e6133be9,,,,,,,sngl,resources/Empty.png,resources/DBN.BMP,WildCard_Ex,0.287037065,0.010185157,1,0,0,0.5461,optionRight,45,9755,5,6,0,6,0,1,,,,,,,,,,,,,,,,,,,,,,,,,,,,,,,,,,,,,,,
,,,,,,,,2023-08-16_08h31.58.744,HF_wild_card,2022.2.4,Win32,59.88741167,63d7714e038e3cdd0833f4e1,64d2fd46c836a06233681665,64dc7af359cbf0e3e6133be9,,,,,,,decisionTrl,resources/DBN.BMP,resources/DY.BMP,WildCard_Ex,-0.225925912,-0.079629644,1,0,0,0.8614,optionLeft,55,9810,5,7,0,7,0,1,,,,,,,,,,,,,,,,,,,,,,,,,,,,,,,,,,,,,,,
,,,,,,,,2023-08-16_08h31.58.744,HF_wild_card,2022.2.4,Win32,59.88741167,63d7714e038e3cdd0833f4e1,64d2fd46c836a06233681665,64dc7af359cbf0e3e6133be9,,,,,,,decisionTrl,resources/DY.BMP,resources/DBN.BMP,WildCard_Ex,0.357407464,-0.19629631,1,0,0,1.1341,optionRight,45,9855,5,8,0,8,0,1,,,,,,,,,,,,,,,,,,,,,,,,,,,,,,,,,,,,,,,
,,,,,,,,2023-08-16_08h31.58.744,HF_wild_card,2022.2.4,Win32,59.88741167,63d7714e038e3cdd0833f4e1,64d2fd46c836a06233681665,64dc7af359cbf0e3e6133be9,,,,,,,sngl,resources/DY.BMP,resources/Empty.png,Door2,-0.280555556,-0.087962977,1,0,0,0.5791,optionLeft,40,9895,5,9,0,9,0,1,,,,,,,,,,,,,,,,,,,,,,,,,,,,,,,,,,,,,,,
,,,,,,,,2023-08-16_08h31.58.744,HF_wild_card,2022.2.4,Win32,59.88741167,63d7714e038e3cdd0833f4e1,64d2fd46c836a06233681665,64dc7af359cbf0e3e6133be9,,,,,,,ctch,resources/DG.BMP,resources/DB.BMP,Door4,-0.220370356,-0.083333333,1,0,0,4.0732,optionLeft,80,9975,5,10,0,10,0,1,,,,,,,,,,,,,,,,,,,,,,,,,,,,,,,,,,,,,,,
,,,,,,,,2023-08-16_08h31.58.744,HF_wild_card,2022.2.4,Win32,59.88741167,63d7714e038e3cdd0833f4e1,64d2fd46c836a06233681665,64dc7af359cbf0e3e6133be9,,,,,,,decisionTrl,resources/DBN.BMP,resources/DB.BMP,WildCard_Ex,-0.292592578,-0.047222222,1,0,0,2.6953,optionLeft,45,10020,5,11,0,11,0,1,,,,,,,,,,,,,,,,,,,,,,,,,,,,,,,,,,,,,,,
,,,,,,,,2023-08-16_08h31.58.744,HF_wild_card,2022.2.4,Win32,59.88741167,63d7714e038e3cdd0833f4e1,64d2fd46c836a06233681665,64dc7af359cbf0e3e6133be9,,,,,,,decisionTrl,resources/DB.BMP,resources/DY.BMP,Door1,-0.199074046,-0.023148176,1,0,0,0.8292,optionLeft,30,10050,5,12,0,12,0,1,,,,,,,,,,,,,,,,,,,,,,,,,,,,,,,,,,,,,,,
,,,,,,,,2023-08-16_08h31.58.744,HF_wild_card,2022.2.4,Win32,59.88741167,63d7714e038e3cdd0833f4e1,64d2fd46c836a06233681665,64dc7af359cbf0e3e6133be9,,,,,,,ctch,resources/DB.BMP,resources/DG.BMP,Door1,-0.212037023,-0.080555556,1,0,0,0.525,optionLeft,30,10080,5,13,0,13,0,1,,,,,,,,,,,,,,,,,,,,,,,,,,,,,,,,,,,,,,,
,,,,,,,,2023-08-16_08h31.58.744,HF_wild_card,2022.2.4,Win32,59.88741167,63d7714e038e3cdd0833f4e1,64d2fd46c836a06233681665,64dc7af359cbf0e3e6133be9,,,,,,,decisionTrl,resources/DB.BMP,resources/DBN.BMP,WildCard_Ex,0.366666667,-0.034259288,1,0,0,0.9293,optionRight,55,10135,5,14,0,14,0,1,,,,,,,,,,,,,,,,,,,,,,,,,,,,,,,,,,,,,,,
,,,,,,,,2023-08-16_08h31.58.744,HF_wild_card,2022.2.4,Win32,59.88741167,63d7714e038e3cdd0833f4e1,64d2fd46c836a06233681665,64dc7af359cbf0e3e6133be9,,,,,,,decisionTrl,resources/DG.BMP,resources/DP.BMP,Door4,-0.275,-0.097222222,1,0,0,0.9622,optionLeft,60,10195,5,15,0,15,0,1,,,,,,,,,,,,,,,,,,,,,,,,,,,,,,,,,,,,,,,
,,,,,,,,2023-08-16_08h31.58.744,HF_wild_card,2022.2.4,Win32,59.88741167,63d7714e038e3cdd0833f4e1,64d2fd46c836a06233681665,64dc7af359cbf0e3e6133be9,,,,,,,sngl,resources/Empty.png,resources/DBN.BMP,WildCard_Ex,0.378703732,-0.087962977,1,0,0,0.5042,optionRight,55,10250,5,16,0,16,0,1,,,,,,,,,,,,,,,,,,,,,,,,,,,,,,,,,,,,,,,
,,,,,,,,2023-08-16_08h31.58.744,HF_wild_card,2022.2.4,Win32,59.88741167,63d7714e038e3cdd0833f4e1,64d2fd46c836a06233681665,64dc7af359cbf0e3e6133be9,,,,,,,sngl,resources/Empty.png,resources/DB.BMP,Door1,0.346296353,-0.057407422,1,0,0,0.5081,optionRight,30,10280,5,17,0,17,0,1,,,,,,,,,,,,,,,,,,,,,,,,,,,,,,,,,,,,,,,
,,,,,,,,2023-08-16_08h31.58.744,HF_wild_card,2022.2.4,Win32,59.88741167,63d7714e038e3cdd0833f4e1,64d2fd46c836a06233681665,64dc7af359cbf0e3e6133be9,,,,,,,decisionTrl,resources/DY.BMP,resources/DB.BMP,Door1,0.359259288,-0.067592621,1,0,0,0.8305,optionRight,30,10310,5,18,0,18,0,1,,,,,,,,,,,,,,,,,,,,,,,,,,,,,,,,,,,,,,,
,,,,,,,,2023-08-16_08h31.58.744,HF_wild_card,2022.2.4,Win32,59.88741167,63d7714e038e3cdd0833f4e1,64d2fd46c836a06233681665,64dc7af359cbf0e3e6133be9,,,,,,,ctch,resources/DB.BMP,resources/DG.BMP,Door4,0.348148176,-0.059259288,1,0,0,0.747,optionRight,80,10390,5,19,0,19,0,1,,,,,,,,,,,,,,,,,,,,,,,,,,,,,,,,,,,,,,,
,,,,,,,,2023-08-16_08h31.58.744,HF_wild_card,2022.2.4,Win32,59.88741167,63d7714e038e3cdd0833f4e1,64d2fd46c836a06233681665,64dc7af359cbf0e3e6133be9,,,,,,,sngl,resources/DBN.BMP,resources/Empty.png,WildCard_Ex,-0.206481467,-0.084259288,1,0,0,0.5417,optionLeft,55,10445,5,20,0,20,0,1,,,,,,,,,,,,,,,,,,,,,,,,,,,,,,,,,,,,,,,
,,,,,,,,2023-08-16_08h31.58.744,HF_wild_card,2022.2.4,Win32,59.88741167,63d7714e038e3cdd0833f4e1,64d2fd46c836a06233681665,64dc7af359cbf0e3e6133be9,,,,,,,decisionTrl,resources/DP.BMP,resources/DG.BMP,Door4,0.286111111,-0.09629631,1,0,0,0.5361,optionRight,60,10505,5,21,0,21,0,1,,,,,,,,,,,,,,,,,,,,,,,,,,,,,,,,,,,,,,,
,,,,,,,,2023-08-16_08h31.58.744,HF_wild_card,2022.2.4,Win32,59.88741167,63d7714e038e3cdd0833f4e1,64d2fd46c836a06233681665,64dc7af359cbf0e3e6133be9,,,,,,,decisionTrl,resources/DP.BMP,resources/DBN.BMP,Door3,-0.217592578,-0.099074088,1,0,0,0.4723,optionLeft,70,10575,5,22,0,22,0,1,,,,,,,,,,,,,,,,,,,,,,,,,,,,,,,,,,,,,,,
,,,,,,,,2023-08-16_08h31.58.744,HF_wild_card,2022.2.4,Win32,59.88741167,63d7714e038e3cdd0833f4e1,64d2fd46c836a06233681665,64dc7af359cbf0e3e6133be9,,,,,,,decisionTrl,resources/DP.BMP,resources/DG.BMP,Door3,-0.206481467,-0.085185199,1,0,0,0.5032,optionLeft,70,10645,5,23,0,23,0,1,,,,,,,,,,,,,,,,,,,,,,,,,,,,,,,,,,,,,,,
,,,,,,,,2023-08-16_08h31.58.744,HF_wild_card,2022.2.4,Win32,59.88741167,63d7714e038e3cdd0833f4e1,64d2fd46c836a06233681665,64dc7af359cbf0e3e6133be9,,,,,,,decisionTrl,resources/DG.BMP,resources/DP.BMP,Door3,0.314814843,-0.074074088,1,0,0,0.5276,optionRight,70,10715,5,24,0,24,0,1,,,,,,,,,,,,,,,,,,,,,,,,,,,,,,,,,,,,,,,
,,,,,,,,2023-08-16_08h31.58.744,HF_wild_card,2022.2.4,Win32,59.88741167,63d7714e038e3cdd0833f4e1,64d2fd46c836a06233681665,64dc7af359cbf0e3e6133be9,,,,,,,sngl,resources/DBN.BMP,resources/Empty.png,WildCard_Ex,-0.161111111,-0.054629644,1,0,0,0.9954,optionLeft,45,10760,5,25,0,25,0,1,,,,,,,,,,,,,,,,,,,,,,,,,,,,,,,,,,,,,,,
,,,,,,,,2023-08-16_08h31.58.744,HF_wild_card,2022.2.4,Win32,59.88741167,63d7714e038e3cdd0833f4e1,64d2fd46c836a06233681665,64dc7af359cbf0e3e6133be9,,,,,,,ctch,resources/DY.BMP,resources/DP.BMP,Door3,0.302777778,-0.137962977,1,0,0,0.8041,optionRight,70,10830,5,26,0,26,0,1,,,,,,,,,,,,,,,,,,,,,,,,,,,,,,,,,,,,,,,
,,,,,,,,2023-08-16_08h31.58.744,HF_wild_card,2022.2.4,Win32,59.88741167,63d7714e038e3cdd0833f4e1,64d2fd46c836a06233681665,64dc7af359cbf0e3e6133be9,,,,,,,decisionTrl,resources/DB.BMP,resources/DY.BMP,Door1,-0.296296268,-0.100925954,1,0,0,0.9799,optionLeft,30,10860,5,27,0,27,0,1,,,,,,,,,,,,,,,,,,,,,,,,,,,,,,,,,,,,,,,
,,,,,,,,2023-08-16_08h31.58.744,HF_wild_card,2022.2.4,Win32,59.88741167,63d7714e038e3cdd0833f4e1,64d2fd46c836a06233681665,64dc7af359cbf0e3e6133be9,,,,,,,decisionTrl,resources/DG.BMP,resources/DP.BMP,Door4,-0.210185157,-0.09629631,1,0,0,0.6522,optionLeft,80,10940,5,28,0,28,0,1,,,,,,,,,,,,,,,,,,,,,,,,,,,,,,,,,,,,,,,
,,,,,,,,2023-08-16_08h31.58.744,HF_wild_card,2022.2.4,Win32,59.88741167,63d7714e038e3cdd0833f4e1,64d2fd46c836a06233681665,64dc7af359cbf0e3e6133be9,,,,,,,ctch,resources/DY.BMP,resources/DP.BMP,Door3,0.317592621,-0.080555556,1,0,0,0.6637,optionRight,70,11010,5,29,0,29,0,1,,,,,,,,,,,,,,,,,,,,,,,,,,,,,,,,,,,,,,,
,,,,,,,,2023-08-16_08h31.58.744,HF_wild_card,2022.2.4,Win32,59.88741167,63d7714e038e3cdd0833f4e1,64d2fd46c836a06233681665,64dc7af359cbf0e3e6133be9,,,,,,,sngl,resources/Empty.png,resources/DG.BMP,Door4,0.315740797,-0.087962977,1,0,0,0.5799,optionRight,60,11070,5,30,0,30,0,1,,,,,,,,,,,,,,,,,,,,,,,,,,,,,,,,,,,,,,,
,,,,,,,,2023-08-16_08h31.58.744,HF_wild_card,2022.2.4,Win32,59.88741167,63d7714e038e3cdd0833f4e1,64d2fd46c836a06233681665,64dc7af359cbf0e3e6133be9,,,,,,,sngl,resources/Empty.png,resources/DP.BMP,Door3,0.304629686,-0.080555556,1,0,0,0.5293,optionRight,70,11140,5,31,0,31,0,1,,,,,,,,,,,,,,,,,,,,,,,,,,,,,,,,,,,,,,,
,,,,,,,,2023-08-16_08h31.58.744,HF_wild_card,2022.2.4,Win32,59.88741167,63d7714e038e3cdd0833f4e1,64d2fd46c836a06233681665,64dc7af359cbf0e3e6133be9,,,,,,,sngl,resources/DB.BMP,resources/Empty.png,Door1,-0.20370369,-0.062962977,1,0,0,0.5348,optionLeft,30,11170,5,32,0,32,0,1,,,,,,,,,,,,,,,,,,,,,,,,,,,,,,,,,,,,,,,
,,,,,,,,2023-08-16_08h31.58.744,HF_wild_card,2022.2.4,Win32,59.88741167,63d7714e038e3cdd0833f4e1,64d2fd46c836a06233681665,64dc7af359cbf0e3e6133be9,,,,,,,decisionTrl,resources/DY.BMP,resources/DB.BMP,Door1,0.279629686,-0.094444444,1,0,0,0.5288,optionRight,30,11200,5,33,0,33,0,1,,,,,,,,,,,,,,,,,,,,,,,,,,,,,,,,,,,,,,,
,,,,,,,,2023-08-16_08h31.58.744,HF_wild_card,2022.2.4,Win32,59.88741167,63d7714e038e3cdd0833f4e1,64d2fd46c836a06233681665,64dc7af359cbf0e3e6133be9,,,,,,,decisionTrl,resources/DBN.BMP,resources/DG.BMP,Door4,0.350925954,-0.114814843,1,0,0,1.1125,optionRight,60,11260,5,34,0,34,0,1,,,,,,,,,,,,,,,,,,,,,,,,,,,,,,,,,,,,,,,
,,,,,,,,2023-08-16_08h31.58.744,HF_wild_card,2022.2.4,Win32,59.88741167,63d7714e038e3cdd0833f4e1,64d2fd46c836a06233681665,64dc7af359cbf0e3e6133be9,,,,,,,decisionTrl,resources/DP.BMP,resources/DG.BMP,Door3,-0.199074046,-0.118518533,1,0,0,0.9685,optionLeft,70,11330,5,35,0,35,0,1,,,,,,,,,,,,,,,,,,,,,,,,,,,,,,,,,,,,,,,
,,,,,,,,2023-08-16_08h31.58.744,HF_wild_card,2022.2.4,Win32,59.88741167,63d7714e038e3cdd0833f4e1,64d2fd46c836a06233681665,64dc7af359cbf0e3e6133be9,,,,,,,decisionTrl,resources/DP.BMP,resources/DG.BMP,Door4,0.247222222,-0.008333333,1,0,0,0.8874,optionRight,80,11410,5,36,0,36,0,1,,,,,,,,,,,,,,,,,,,,,,,,,,,,,,,,,,,,,,,
,,,,,,,,2023-08-16_08h31.58.744,HF_wild_card,2022.2.4,Win32,59.88741167,63d7714e038e3cdd0833f4e1,64d2fd46c836a06233681665,64dc7af359cbf0e3e6133be9,,,,,,,sngl,resources/DP.BMP,resources/Empty.png,Door3,-0.210185157,-0.100925954,1,0,0,0.5054,optionLeft,70,11480,5,37,0,37,0,1,,,,,,,,,,,,,,,,,,,,,,,,,,,,,,,,,,,,,,,
,,,,,,,,2023-08-16_08h31.58.744,HF_wild_card,2022.2.4,Win32,59.88741167,63d7714e038e3cdd0833f4e1,64d2fd46c836a06233681665,64dc7af359cbf0e3e6133be9,,,,,,,sngl,resources/Empty.png,resources/DY.BMP,Door2,0.359259288,-0.128703732,1,0,0,4.661,optionRight,20,11500,5,38,0,38,0,1,,,,,,,,,,,,,,,,,,,,,,,,,,,,,,,,,,,,,,,
,,,,,,,,2023-08-16_08h31.58.744,HF_wild_card,2022.2.4,Win32,59.88741167,63d7714e038e3cdd0833f4e1,64d2fd46c836a06233681665,64dc7af359cbf0e3e6133be9,,,,,,,ctch,resources/DG.BMP,resources/DB.BMP,Door4,-0.25370369,-0.073148176,1,0,0,0.9948,optionLeft,80,11580,5,39,0,39,0,1,,,,,,,,,,,,,,,,,,,,,,,,,,,,,,,,,,,,,,,
,,,,,,,,2023-08-16_08h31.58.744,HF_wild_card,2022.2.4,Win32,59.88741167,63d7714e038e3cdd0833f4e1,64d2fd46c836a06233681665,64dc7af359cbf0e3e6133be9,,,,,,,decisionTrl,resources/DB.BMP,resources/DY.BMP,Door1,-0.347222222,-0.107407422,1,0,0,1.1506,optionLeft,30,11610,5,40,0,40,0,1,,,,,,,,,,,,,,,,,,,,,,,,,,,,,,,,,,,,,,,
,,,,,,,,2023-08-16_08h31.58.744,HF_wild_card,2022.2.4,Win32,59.88741167,63d7714e038e3cdd0833f4e1,64d2fd46c836a06233681665,64dc7af359cbf0e3e6133be9,,,,,,,ctch,resources/DP.BMP,resources/DY.BMP,Door2,0.405555556,-0.265740797,1,0,0,0.4801,optionRight,40,11650,5,41,0,41,0,1,,,,,,,,,,,,,,,,,,,,,,,,,,,,,,,,,,,,,,,
,,,,,,,,2023-08-16_08h31.58.744,HF_wild_card,2022.2.4,Win32,59.88741167,63d7714e038e3cdd0833f4e1,64d2fd46c836a06233681665,64dc7af359cbf0e3e6133be9,,,,,,,decisionTrl,resources/DBN.BMP,resources/DP.BMP,Door3,0.314814843,-0.227777778,1,0,0,0.6862,optionRight,70,11720,5,42,0,42,0,1,,,,,,,,,,,,,,,,,,,,,,,,,,,,,,,,,,,,,,,
,,,,,,,,2023-08-16_08h31.58.744,HF_wild_card,2022.2.4,Win32,59.88741167,63d7714e038e3cdd0833f4e1,64d2fd46c836a06233681665,64dc7af359cbf0e3e6133be9,,,,,,,sngl,resources/DG.BMP,resources/Empty.png,Door4,-0.205555556,-0.08148151,1,0,0,0.4456,optionLeft,80,11800,5,43,0,43,0,1,,,,,,,,,,,,,,,,,,,,,,,,,,,,,,,,,,,,,,,
,,,,,,,,2023-08-16_08h31.58.744,HF_wild_card,2022.2.4,Win32,59.88741167,63d7714e038e3cdd0833f4e1,64d2fd46c836a06233681665,64dc7af359cbf0e3e6133be9,,,,,,,,,,,,,,,,,,,,,,,,,,4,0,4,0,1,,,,,,,,,,,,,,,,,,,,,,,,,,,,,,,,,,
,,,,,,,,2023-08-16_08h31.58.744,HF_wild_card,2022.2.4,Win32,59.88741167,63d7714e038e3cdd0833f4e1,64d2fd46c836a06233681665,64dc7af359cbf0e3e6133be9,,,,,,,sngl,resources/Empty.png,resources/DBN.BMP,WildCard_Ex,0.278703732,-0.048148176,1,0,0,1.8581,optionRight,55,11855,6,0,0,0,0,1,,,,,,,,,,,,,,,,,,,,,,,,,,,,,,,,,,,,,,,
,,,,,,,,2023-08-16_08h31.58.744,HF_wild_card,2022.2.4,Win32,59.88741167,63d7714e038e3cdd0833f4e1,64d2fd46c836a06233681665,64dc7af359cbf0e3e6133be9,,,,,,,decisionTrl,resources/DP.BMP,resources/DBN.BMP,Door3,-0.232407379,-0.086111111,1,0,0,0.7796,optionLeft,70,11925,6,1,0,1,0,1,,,,,,,,,,,,,,,,,,,,,,,,,,,,,,,,,,,,,,,
,,,,,,,,2023-08-16_08h31.58.744,HF_wild_card,2022.2.4,Win32,59.88741167,63d7714e038e3cdd0833f4e1,64d2fd46c836a06233681665,64dc7af359cbf0e3e6133be9,,,,,,,decisionTrl,resources/DB.BMP,resources/DY.BMP,Door1,-0.208333333,-0.099074088,1,0,0,0.9969,optionLeft,30,11955,6,2,0,2,0,1,,,,,,,,,,,,,,,,,,,,,,,,,,,,,,,,,,,,,,,
,,,,,,,,2023-08-16_08h31.58.744,HF_wild_card,2022.2.4,Win32,59.88741167,63d7714e038e3cdd0833f4e1,64d2fd46c836a06233681665,64dc7af359cbf0e3e6133be9,,,,,,,decisionTrl,resources/DG.BMP,resources/DP.BMP,Door4,-0.212037023,-0.100925954,1,0,0,1.0464,optionLeft,60,12015,6,3,0,3,0,1,,,,,,,,,,,,,,,,,,,,,,,,,,,,,,,,,,,,,,,
,,,,,,,,2023-08-16_08h31.58.744,HF_wild_card,2022.2.4,Win32,59.88741167,63d7714e038e3cdd0833f4e1,64d2fd46c836a06233681665,64dc7af359cbf0e3e6133be9,,,,,,,decisionTrl,resources/DB.BMP,resources/DY.BMP,Door2,0.332407464,-0.132407422,1,0,0,0.9447,optionRight,20,12035,6,4,0,4,0,1,,,,,,,,,,,,,,,,,,,,,,,,,,,,,,,,,,,,,,,
,,,,,,,,2023-08-16_08h31.58.744,HF_wild_card,2022.2.4,Win32,59.88741167,63d7714e038e3cdd0833f4e1,64d2fd46c836a06233681665,64dc7af359cbf0e3e6133be9,,,,,,,decisionTrl,resources/DG.BMP,resources/DP.BMP,Door3,0.262037065,-0.10648151,1,0,0,0.9463,optionRight,70,12105,6,5,0,5,0,1,,,,,,,,,,,,,,,,,,,,,,,,,,,,,,,,,,,,,,,
,,,,,,,,2023-08-16_08h31.58.744,HF_wild_card,2022.2.4,Win32,59.88741167,63d7714e038e3cdd0833f4e1,64d2fd46c836a06233681665,64dc7af359cbf0e3e6133be9,,,,,,,decisionTrl,resources/DY.BMP,resources/DBN.BMP,Door2,-0.196296268,-0.105555556,1,0,0,0.7625,optionLeft,20,12125,6,6,0,6,0,1,,,,,,,,,,,,,,,,,,,,,,,,,,,,,,,,,,,,,,,
,,,,,,,,2023-08-16_08h31.58.744,HF_wild_card,2022.2.4,Win32,59.88741167,63d7714e038e3cdd0833f4e1,64d2fd46c836a06233681665,64dc7af359cbf0e3e6133be9,,,,,,,sngl,resources/DBN.BMP,resources/Empty.png,WildCard_Ex,-0.19351849,-0.125925954,1,0,0,0.5297,optionLeft,55,12180,6,7,0,7,0,1,,,,,,,,,,,,,,,,,,,,,,,,,,,,,,,,,,,,,,,
,,,,,,,,2023-08-16_08h31.58.744,HF_wild_card,2022.2.4,Win32,59.88741167,63d7714e038e3cdd0833f4e1,64d2fd46c836a06233681665,64dc7af359cbf0e3e6133be9,,,,,,,sngl,resources/Empty.png,resources/DB.BMP,Door1,0.33148151,-0.115740755,1,0,0,0.5125,optionRight,30,12210,6,8,0,8,0,1,,,,,,,,,,,,,,,,,,,,,,,,,,,,,,,,,,,,,,,
,,,,,,,,2023-08-16_08h31.58.744,HF_wild_card,2022.2.4,Win32,59.88741167,63d7714e038e3cdd0833f4e1,64d2fd46c836a06233681665,64dc7af359cbf0e3e6133be9,,,,,,,decisionTrl,resources/DB.BMP,resources/DY.BMP,Door1,-0.222222222,-0.133333333,1,0,0,0.863,optionLeft,30,12240,6,9,0,9,0,1,,,,,,,,,,,,,,,,,,,,,,,,,,,,,,,,,,,,,,,
,,,,,,,,2023-08-16_08h31.58.744,HF_wild_card,2022.2.4,Win32,59.88741167,63d7714e038e3cdd0833f4e1,64d2fd46c836a06233681665,64dc7af359cbf0e3e6133be9,,,,,,,decisionTrl,resources/DY.BMP,resources/DB.BMP,Door1,0.316666667,-0.137037065,1,0,0,0.8465,optionRight,30,12270,6,10,0,10,0,1,,,,,,,,,,,,,,,,,,,,,,,,,,,,,,,,,,,,,,,
,,,,,,,,2023-08-16_08h31.58.744,HF_wild_card,2022.2.4,Win32,59.88741167,63d7714e038e3cdd0833f4e1,64d2fd46c836a06233681665,64dc7af359cbf0e3e6133be9,,,,,,,decisionTrl,resources/DY.BMP,resources/DB.BMP,Door1,0.292592621,-0.112962977,1,0,0,0.6289,optionRight,30,12300,6,11,0,11,0,1,,,,,,,,,,,,,,,,,,,,,,,,,,,,,,,,,,,,,,,
,,,,,,,,2023-08-16_08h31.58.744,HF_wild_card,2022.2.4,Win32,59.88741167,63d7714e038e3cdd0833f4e1,64d2fd46c836a06233681665,64dc7af359cbf0e3e6133be9,,,,,,,ctch,resources/DY.BMP,resources/DP.BMP,Door3,0.297222222,-0.130555556,1,0,0,0.6622,optionRight,70,12370,6,12,0,12,0,1,,,,,,,,,,,,,,,,,,,,,,,,,,,,,,,,,,,,,,,
,,,,,,,,2023-08-16_08h31.58.744,HF_wild_card,2022.2.4,Win32,59.88741167,63d7714e038e3cdd0833f4e1,64d2fd46c836a06233681665,64dc7af359cbf0e3e6133be9,,,,,,,decisionTrl,resources/DBN.BMP,resources/DY.BMP,WildCard_Ex,-0.194444444,-0.092592621,1,0,0,1.362,optionLeft,55,12425,6,13,0,13,0,1,,,,,,,,,,,,,,,,,,,,,,,,,,,,,,,,,,,,,,,
,,,,,,,,2023-08-16_08h31.58.744,HF_wild_card,2022.2.4,Win32,59.88741167,63d7714e038e3cdd0833f4e1,64d2fd46c836a06233681665,64dc7af359cbf0e3e6133be9,,,,,,,sngl,resources/Empty.png,resources/DP.BMP,Door3,0.296296353,-0.125,1,0,0,0.529,optionRight,70,12495,6,14,0,14,0,1,,,,,,,,,,,,,,,,,,,,,,,,,,,,,,,,,,,,,,,
,,,,,,,,2023-08-16_08h31.58.744,HF_wild_card,2022.2.4,Win32,59.88741167,63d7714e038e3cdd0833f4e1,64d2fd46c836a06233681665,64dc7af359cbf0e3e6133be9,,,,,,,decisionTrl,resources/DP.BMP,resources/DG.BMP,Door4,0.251851908,-0.127777778,1,0,0,1.0447,optionRight,60,12555,6,15,0,15,0,1,,,,,,,,,,,,,,,,,,,,,,,,,,,,,,,,,,,,,,,
,,,,,,,,2023-08-16_08h31.58.744,HF_wild_card,2022.2.4,Win32,59.88741167,63d7714e038e3cdd0833f4e1,64d2fd46c836a06233681665,64dc7af359cbf0e3e6133be9,,,,,,,sngl,resources/DB.BMP,resources/Empty.png,Door1,-0.222222222,-0.091666667,1,0,0,0.4285,optionLeft,30,12585,6,16,0,16,0,1,,,,,,,,,,,,,,,,,,,,,,,,,,,,,,,,,,,,,,,
,,,,,,,,2023-08-16_08h31.58.744,HF_wild_card,2022.2.4,Win32,59.88741167,63d7714e038e3cdd0833f4e1,64d2fd46c836a06233681665,64dc7af359cbf0e3e6133be9,,,,,,,decisionTrl,resources/DB.BMP,resources/DBN.BMP,Door1,-0.217592578,-0.105555556,1,0,0,0.6778,optionLeft,30,12615,6,17,0,17,0,1,,,,,,,,,,,,,,,,,,,,,,,,,,,,,,,,,,,,,,,
,,,,,,,,2023-08-16_08h31.58.744,HF_wild_card,2022.2.4,Win32,59.88741167,63d7714e038e3cdd0833f4e1,64d2fd46c836a06233681665,64dc7af359cbf0e3e6133be9,,,,,,,ctch,resources/DG.BMP,resources/DB.BMP,Door4,-0.186111111,-0.104629644,1,0,0,0.5958,optionLeft,60,12675,6,18,0,18,0,1,,,,,,,,,,,,,,,,,,,,,,,,,,,,,,,,,,,,,,,
,,,,,,,,2023-08-16_08h31.58.744,HF_wild_card,2022.2.4,Win32,59.88741167,63d7714e038e3cdd0833f4e1,64d2fd46c836a06233681665,64dc7af359cbf0e3e6133be9,,,,,,,sngl,resources/DP.BMP,resources/Empty.png,Door3,-0.19351849,-0.110185199,1,0,0,0.4124,optionLeft,70,12745,6,19,0,19,0,1,,,,,,,,,,,,,,,,,,,,,,,,,,,,,,,,,,,,,,,
,,,,,,,,2023-08-16_08h31.58.744,HF_wild_card,2022.2.4,Win32,59.88741167,63d7714e038e3cdd0833f4e1,64d2fd46c836a06233681665,64dc7af359cbf0e3e6133be9,,,,,,,decisionTrl,resources/DP.BMP,resources/DG.BMP,Door3,-0.186111111,-0.1,1,0,0,0.6968,optionLeft,70,12815,6,20,0,20,0,1,,,,,,,,,,,,,,,,,,,,,,,,,,,,,,,,,,,,,,,
,,,,,,,,2023-08-16_08h31.58.744,HF_wild_card,2022.2.4,Win32,59.88741167,63d7714e038e3cdd0833f4e1,64d2fd46c836a06233681665,64dc7af359cbf0e3e6133be9,,,,,,,decisionTrl,resources/DG.BMP,resources/DP.BMP,Door3,0.307407464,-0.221296353,1,0,0,0.7126,optionRight,70,12885,6,21,0,21,0,1,,,,,,,,,,,,,,,,,,,,,,,,,,,,,,,,,,,,,,,
,,,,,,,,2023-08-16_08h31.58.744,HF_wild_card,2022.2.4,Win32,59.88741167,63d7714e038e3cdd0833f4e1,64d2fd46c836a06233681665,64dc7af359cbf0e3e6133be9,,,,,,,decisionTrl,resources/DY.BMP,resources/DB.BMP,Door2,-0.151851824,-0.083333333,1,0,0,0.3794,optionLeft,40,12925,6,22,0,22,0,1,,,,,,,,,,,,,,,,,,,,,,,,,,,,,,,,,,,,,,,
,,,,,,,,2023-08-16_08h31.58.744,HF_wild_card,2022.2.4,Win32,59.88741167,63d7714e038e3cdd0833f4e1,64d2fd46c836a06233681665,64dc7af359cbf0e3e6133be9,,,,,,,decisionTrl,resources/DBN.BMP,resources/DG.BMP,WildCard_Ex,-0.219444444,-0.091666667,1,0,0,0.746,optionLeft,55,12980,6,23,0,23,0,1,,,,,,,,,,,,,,,,,,,,,,,,,,,,,,,,,,,,,,,
,,,,,,,,2023-08-16_08h31.58.744,HF_wild_card,2022.2.4,Win32,59.88741167,63d7714e038e3cdd0833f4e1,64d2fd46c836a06233681665,64dc7af359cbf0e3e6133be9,,,,,,,decisionTrl,resources/DBN.BMP,resources/DB.BMP,Door1,0.382407464,-0.168518533,1,0,0,0.645,optionRight,30,13010,6,24,0,24,0,1,,,,,,,,,,,,,,,,,,,,,,,,,,,,,,,,,,,,,,,
,,,,,,,,2023-08-16_08h31.58.744,HF_wild_card,2022.2.4,Win32,59.88741167,63d7714e038e3cdd0833f4e1,64d2fd46c836a06233681665,64dc7af359cbf0e3e6133be9,,,,,,,decisionTrl,resources/DG.BMP,resources/DP.BMP,Door4,-0.148148092,-0.083333333,1,0,0,0.7134,optionLeft,60,13070,6,25,0,25,0,1,,,,,,,,,,,,,,,,,,,,,,,,,,,,,,,,,,,,,,,
,,,,,,,,2023-08-16_08h31.58.744,HF_wild_card,2022.2.4,Win32,59.88741167,63d7714e038e3cdd0833f4e1,64d2fd46c836a06233681665,64dc7af359cbf0e3e6133be9,,,,,,,sngl,resources/DG.BMP,resources/Empty.png,Door4,-0.196296268,-0.097222222,1,0,0,0.5132,optionLeft,60,13130,6,26,0,26,0,1,,,,,,,,,,,,,,,,,,,,,,,,,,,,,,,,,,,,,,,
,,,,,,,,2023-08-16_08h31.58.744,HF_wild_card,2022.2.4,Win32,59.88741167,63d7714e038e3cdd0833f4e1,64d2fd46c836a06233681665,64dc7af359cbf0e3e6133be9,,,,,,,ctch,resources/DY.BMP,resources/DP.BMP,Door3,0.440740797,-0.190740755,1,0,0,0.4798,optionRight,70,13200,6,27,0,27,0,1,,,,,,,,,,,,,,,,,,,,,,,,,,,,,,,,,,,,,,,
,,,,,,,,2023-08-16_08h31.58.744,HF_wild_card,2022.2.4,Win32,59.88741167,63d7714e038e3cdd0833f4e1,64d2fd46c836a06233681665,64dc7af359cbf0e3e6133be9,,,,,,,sngl,resources/DY.BMP,resources/Empty.png,Door2,-0.175,-0.102777778,1,0,0,0.5112,optionLeft,20,13220,6,28,0,28,0,1,,,,,,,,,,,,,,,,,,,,,,,,,,,,,,,,,,,,,,,
,,,,,,,,2023-08-16_08h31.58.744,HF_wild_card,2022.2.4,Win32,59.88741167,63d7714e038e3cdd0833f4e1,64d2fd46c836a06233681665,64dc7af359cbf0e3e6133be9,,,,,,,ctch,resources/DB.BMP,resources/DG.BMP,Door4,0.341666667,-0.175925954,1,0,0,0.7127,optionRight,60,13280,6,29,0,29,0,1,,,,,,,,,,,,,,,,,,,,,,,,,,,,,,,,,,,,,,,
,,,,,,,,2023-08-16_08h31.58.744,HF_wild_card,2022.2.4,Win32,59.88741167,63d7714e038e3cdd0833f4e1,64d2fd46c836a06233681665,64dc7af359cbf0e3e6133be9,,,,,,,ctch,resources/DB.BMP,resources/DG.BMP,Door4,0.336111111,-0.17129631,1,0,0,0.7136,optionRight,80,13360,6,30,0,30,0,1,,,,,,,,,,,,,,,,,,,,,,,,,,,,,,,,,,,,,,,
,,,,,,,,2023-08-16_08h31.58.744,HF_wild_card,2022.2.4,Win32,59.88741167,63d7714e038e3cdd0833f4e1,64d2fd46c836a06233681665,64dc7af359cbf0e3e6133be9,,,,,,,sngl,resources/Empty.png,resources/DG.BMP,Door4,0.351851908,-0.184259288,1,0,0,0.4612,optionRight,80,13440,6,31,0,31,0,1,,,,,,,,,,,,,,,,,,,,,,,,,,,,,,,,,,,,,,,
,,,,,,,,2023-08-16_08h31.58.744,HF_wild_card,2022.2.4,Win32,59.88741167,63d7714e038e3cdd0833f4e1,64d2fd46c836a06233681665,64dc7af359cbf0e3e6133be9,,,,,,,decisionTrl,resources/DY.BMP,resources/DB.BMP,Door1,0.375925954,-0.164814843,1,0,0,0.7108,optionRight,30,13470,6,32,0,32,0,1,,,,,,,,,,,,,,,,,,,,,,,,,,,,,,,,,,,,,,,
,,,,,,,,2023-08-16_08h31.58.744,HF_wild_card,2022.2.4,Win32,59.88741167,63d7714e038e3cdd0833f4e1,64d2fd46c836a06233681665,64dc7af359cbf0e3e6133be9,,,,,,,decisionTrl,resources/DP.BMP,resources/DG.BMP,Door3,-0.165740712,-0.104629644,1,0,0,0.6788,optionLeft,70,13540,6,33,0,33,0,1,,,,,,,,,,,,,,,,,,,,,,,,,,,,,,,,,,,,,,,
,,,,,,,,2023-08-16_08h31.58.744,HF_wild_card,2022.2.4,Win32,59.88741167,63d7714e038e3cdd0833f4e1,64d2fd46c836a06233681665,64dc7af359cbf0e3e6133be9,,,,,,,sngl,resources/DBN.BMP,resources/Empty.png,WildCard_Ex,-0.169444444,-0.101851866,1,0,0,0.4779,optionLeft,45,13585,6,34,0,34,0,1,,,,,,,,,,,,,,,,,,,,,,,,,,,,,,,,,,,,,,,
,,,,,,,,2023-08-16_08h31.58.744,HF_wild_card,2022.2.4,Win32,59.88741167,63d7714e038e3cdd0833f4e1,64d2fd46c836a06233681665,64dc7af359cbf0e3e6133be9,,,,,,,decisionTrl,resources/DG.BMP,resources/DBN.BMP,Door4,-0.150925869,-0.098148176,1,0,0,0.6798,optionLeft,60,13645,6,35,0,35,0,1,,,,,,,,,,,,,,,,,,,,,,,,,,,,,,,,,,,,,,,
,,,,,,,,2023-08-16_08h31.58.744,HF_wild_card,2022.2.4,Win32,59.88741167,63d7714e038e3cdd0833f4e1,64d2fd46c836a06233681665,64dc7af359cbf0e3e6133be9,,,,,,,ctch,resources/DP.BMP,resources/DY.BMP,Door3,-0.171296268,-0.124074088,1,0,0,0.8125,optionLeft,70,13715,6,36,0,36,0,1,,,,,,,,,,,,,,,,,,,,,,,,,,,,,,,,,,,,,,,
,,,,,,,,2023-08-16_08h31.58.744,HF_wild_card,2022.2.4,Win32,59.88741167,63d7714e038e3cdd0833f4e1,64d2fd46c836a06233681665,64dc7af359cbf0e3e6133be9,,,,,,,ctch,resources/DG.BMP,resources/DB.BMP,Door4,-0.159259203,-0.098148176,1,0,0,0.8291,optionLeft,60,13775,6,37,0,37,0,1,,,,,,,,,,,,,,,,,,,,,,,,,,,,,,,,,,,,,,,
,,,,,,,,2023-08-16_08h31.58.744,HF_wild_card,2022.2.4,Win32,59.88741167,63d7714e038e3cdd0833f4e1,64d2fd46c836a06233681665,64dc7af359cbf0e3e6133be9,,,,,,,sngl,resources/Empty.png,resources/DY.BMP,Door2,0.389814843,-0.17129631,1,0,0,1.3709,optionRight,40,13815,6,38,0,38,0,1,,,,,,,,,,,,,,,,,,,,,,,,,,,,,,,,,,,,,,,
,,,,,,,,2023-08-16_08h31.58.744,HF_wild_card,2022.2.4,Win32,59.88741167,63d7714e038e3cdd0833f4e1,64d2fd46c836a06233681665,64dc7af359cbf0e3e6133be9,,,,,,,sngl,resources/Empty.png,resources/DBN.BMP,WildCard_Ex,0.373148176,-0.18148151,1,0,0,0.4638,optionRight,45,13860,6,39,0,39,0,1,,,,,,,,,,,,,,,,,,,,,,,,,,,,,,,,,,,,,,,
,,,,,,,,2023-08-16_08h31.58.744,HF_wild_card,2022.2.4,Win32,59.88741167,63d7714e038e3cdd0833f4e1,64d2fd46c836a06233681665,64dc7af359cbf0e3e6133be9,,,,,,,decisionTrl,resources/DB.BMP,resources/DY.BMP,Door1,-0.176851824,-0.115740755,1,0,0,0.9304,optionLeft,30,13890,6,40,0,40,0,1,,,,,,,,,,,,,,,,,,,,,,,,,,,,,,,,,,,,,,,
,,,,,,,,2023-08-16_08h31.58.744,HF_wild_card,2022.2.4,Win32,59.88741167,63d7714e038e3cdd0833f4e1,64d2fd46c836a06233681665,64dc7af359cbf0e3e6133be9,,,,,,,ctch,resources/DP.BMP,resources/DY.BMP,Door3,-0.175925869,-0.109259288,1,0,0,0.7288,optionLeft,70,13960,6,41,0,41,0,1,,,,,,,,,,,,,,,,,,,,,,,,,,,,,,,,,,,,,,,
,,,,,,,,2023-08-16_08h31.58.744,HF_wild_card,2022.2.4,Win32,59.88741167,63d7714e038e3cdd0833f4e1,64d2fd46c836a06233681665,64dc7af359cbf0e3e6133be9,,,,,,,decisionTrl,resources/DBN.BMP,resources/DP.BMP,Door3,0.330555556,-0.195370399,1,0,0,0.5964,optionRight,70,14030,6,42,0,42,0,1,,,,,,,,,,,,,,,,,,,,,,,,,,,,,,,,,,,,,,,
,,,,,,,,2023-08-16_08h31.58.744,HF_wild_card,2022.2.4,Win32,59.88741167,63d7714e038e3cdd0833f4e1,64d2fd46c836a06233681665,64dc7af359cbf0e3e6133be9,,,,,,,decisionTrl,resources/DP.BMP,resources/DG.BMP,Door3,-0.134259203,-0.125,1,0,0,1.3159,optionLeft,70,14100,6,43,0,43,0,1,,,,,,,,,,,,,,,,,,,,,,,,,,,,,,,,,,,,,,,
,,,,,,,,2023-08-16_08h31.58.744,HF_wild_card,2022.2.4,Win32,59.88741167,63d7714e038e3cdd0833f4e1,64d2fd46c836a06233681665,64dc7af359cbf0e3e6133be9,,,,,,,,,,,,,,,,,,,,,,,,,,5,0,5,0,1,,,,,,,,,,,,,,,,,,,,,,,,,,,,,,,,,,
,,,,,,,,2023-08-16_08h31.58.744,HF_wild_card,2022.2.4,Win32,59.88741167,63d7714e038e3cdd0833f4e1,64d2fd46c836a06233681665,64dc7af359cbf0e3e6133be9,,,,,,,decisionTrl,resources/DG.BMP,resources/DP.BMP,Door3,0.303703732,-0.177777778,1,0,0,1.2893,optionRight,70,14170,7,0,0,0,0,1,,,,,,,,,,,,,,,,,,,,,,,,,,,,,,,,,,,,,,,
,,,,,,,,2023-08-16_08h31.58.744,HF_wild_card,2022.2.4,Win32,59.88741167,63d7714e038e3cdd0833f4e1,64d2fd46c836a06233681665,64dc7af359cbf0e3e6133be9,,,,,,,decisionTrl,resources/DB.BMP,resources/DY.BMP,Door1,-0.229629601,-0.138888889,1,0,0,0.8148,optionLeft,30,14200,7,1,0,1,0,1,,,,,,,,,,,,,,,,,,,,,,,,,,,,,,,,,,,,,,,
,,,,,,,,2023-08-16_08h31.58.744,HF_wild_card,2022.2.4,Win32,59.88741167,63d7714e038e3cdd0833f4e1,64d2fd46c836a06233681665,64dc7af359cbf0e3e6133be9,,,,,,,decisionTrl,resources/DY.BMP,resources/DB.BMP,Door1,0.380555556,-0.193518533,1,0,0,1.0655,optionRight,30,14230,7,2,0,2,0,1,,,,,,,,,,,,,,,,,,,,,,,,,,,,,,,,,,,,,,,
,,,,,,,,2023-08-16_08h31.58.744,HF_wild_card,2022.2.4,Win32,59.88741167,63d7714e038e3cdd0833f4e1,64d2fd46c836a06233681665,64dc7af359cbf0e3e6133be9,,,,,,,decisionTrl,resources/DB.BMP,resources/DY.BMP,Door1,-0.244444444,-0.151851866,1,0,0,0.6475,optionLeft,30,14260,7,3,0,3,0,1,,,,,,,,,,,,,,,,,,,,,,,,,,,,,,,,,,,,,,,
,,,,,,,,2023-08-16_08h31.58.744,HF_wild_card,2022.2.4,Win32,59.88741167,63d7714e038e3cdd0833f4e1,64d2fd46c836a06233681665,64dc7af359cbf0e3e6133be9,,,,,,,decisionTrl,resources/DP.BMP,resources/DG.BMP,Door3,-0.246296268,-0.140740755,1,0,0,1.0145,optionLeft,70,14330,7,4,0,4,0,1,,,,,,,,,,,,,,,,,,,,,,,,,,,,,,,,,,,,,,,
,,,,,,,,2023-08-16_08h31.58.744,HF_wild_card,2022.2.4,Win32,59.88741167,63d7714e038e3cdd0833f4e1,64d2fd46c836a06233681665,64dc7af359cbf0e3e6133be9,,,,,,,ctch,resources/DY.BMP,resources/DP.BMP,Door3,0.329629686,-0.252777778,1,0,0,0.6149,optionRight,70,14400,7,5,0,5,0,1,,,,,,,,,,,,,,,,,,,,,,,,,,,,,,,,,,,,,,,
,,,,,,,,2023-08-16_08h31.58.744,HF_wild_card,2022.2.4,Win32,59.88741167,63d7714e038e3cdd0833f4e1,64d2fd46c836a06233681665,64dc7af359cbf0e3e6133be9,,,,,,,decisionTrl,resources/DG.BMP,resources/DP.BMP,Door4,-0.209259245,-0.09629631,1,0,0,0.8154,optionLeft,80,14480,7,6,0,6,0,1,,,,,,,,,,,,,,,,,,,,,,,,,,,,,,,,,,,,,,,
,,,,,,,,2023-08-16_08h31.58.744,HF_wild_card,2022.2.4,Win32,59.88741167,63d7714e038e3cdd0833f4e1,64d2fd46c836a06233681665,64dc7af359cbf0e3e6133be9,,,,,,,ctch,resources/DP.BMP,resources/DY.BMP,Door3,-0.186111111,-0.1,1,0,0,0.5656,optionLeft,70,14550,7,7,0,7,0,1,,,,,,,,,,,,,,,,,,,,,,,,,,,,,,,,,,,,,,,
,,,,,,,,2023-08-16_08h31.58.744,HF_wild_card,2022.2.4,Win32,59.88741167,63d7714e038e3cdd0833f4e1,64d2fd46c836a06233681665,64dc7af359cbf0e3e6133be9,,,,,,,decisionTrl,resources/DP.BMP,resources/DG.BMP,Door3,-0.187962935,-0.141666667,1,0,0,0.8811,optionLeft,70,14620,7,8,0,8,0,1,,,,,,,,,,,,,,,,,,,,,,,,,,,,,,,,,,,,,,,
,,,,,,,,2023-08-16_08h31.58.744,HF_wild_card,2022.2.4,Win32,59.88741167,63d7714e038e3cdd0833f4e1,64d2fd46c836a06233681665,64dc7af359cbf0e3e6133be9,,,,,,,ctch,resources/DG.BMP,resources/DB.BMP,Door4,-0.225925912,-0.132407422,1,0,0,1.1645,optionLeft,60,14680,7,9,0,9,0,1,,,,,,,,,,,,,,,,,,,,,,,,,,,,,,,,,,,,,,,
,,,,,,,,2023-08-16_08h31.58.744,HF_wild_card,2022.2.4,Win32,59.88741167,63d7714e038e3cdd0833f4e1,64d2fd46c836a06233681665,64dc7af359cbf0e3e6133be9,,,,,,,ctch,resources/DP.BMP,resources/DY.BMP,Door3,-0.185185157,-0.112962977,1,0,0,0.5813,optionLeft,70,14750,7,10,0,10,0,1,,,,,,,,,,,,,,,,,,,,,,,,,,,,,,,,,,,,,,,
,,,,,,,,2023-08-16_08h31.58.744,HF_wild_card,2022.2.4,Win32,59.88741167,63d7714e038e3cdd0833f4e1,64d2fd46c836a06233681665,64dc7af359cbf0e3e6133be9,,,,,,,decisionTrl,resources/DG.BMP,resources/DP.BMP,Door3,0.280555556,-0.190740755,1,0,0,0.9815,optionRight,70,14820,7,11,0,11,0,1,,,,,,,,,,,,,,,,,,,,,,,,,,,,,,,,,,,,,,,
,,,,,,,,2023-08-16_08h31.58.744,HF_wild_card,2022.2.4,Win32,59.88741167,63d7714e038e3cdd0833f4e1,64d2fd46c836a06233681665,64dc7af359cbf0e3e6133be9,,,,,,,decisionTrl,resources/DP.BMP,resources/DG.BMP,Door3,-0.185185157,-0.082407422,1,0,0,0.6154,optionLeft,70,14890,7,12,0,12,0,1,,,,,,,,,,,,,,,,,,,,,,,,,,,,,,,,,,,,,,,
,,,,,,,,2023-08-16_08h31.58.744,HF_wild_card,2022.2.4,Win32,59.88741167,63d7714e038e3cdd0833f4e1,64d2fd46c836a06233681665,64dc7af359cbf0e3e6133be9,,,,,,,decisionTrl,resources/DB.BMP,resources/DY.BMP,Door1,-0.182407379,-0.087962977,1,0,0,0.7487,optionLeft,30,14920,7,13,0,13,0,1,,,,,,,,,,,,,,,,,,,,,,,,,,,,,,,,,,,,,,,
,,,,,,,,2023-08-16_08h31.58.744,HF_wild_card,2022.2.4,Win32,59.88741167,63d7714e038e3cdd0833f4e1,64d2fd46c836a06233681665,64dc7af359cbf0e3e6133be9,,,,,,,decisionTrl,resources/DP.BMP,resources/DG.BMP,Door3,-0.169444444,-0.091666667,1,0,0,0.6159,optionLeft,70,14990,7,14,0,14,0,1,,,,,,,,,,,,,,,,,,,,,,,,,,,,,,,,,,,,,,,
,,,,,,,,2023-08-16_08h31.58.744,HF_wild_card,2022.2.4,Win32,59.88741167,63d7714e038e3cdd0833f4e1,64d2fd46c836a06233681665,64dc7af359cbf0e3e6133be9,,,,,,,ctch,resources/DB.BMP,resources/DG.BMP,Door1,-0.165740712,-0.083333333,1,0,0,0.7144,optionLeft,30,15020,7,15,0,15,0,1,,,,,,,,,,,,,,,,,,,,,,,,,,,,,,,,,,,,,,,
,,,,,,,,2023-08-16_08h31.58.744,HF_wild_card,2022.2.4,Win32,59.88741167,63d7714e038e3cdd0833f4e1,64d2fd46c836a06233681665,64dc7af359cbf0e3e6133be9,,,,,,,decisionTrl,resources/DY.BMP,resources/DB.BMP,Door1,0.324074131,-0.162037065,1,0,0,0.8655,optionRight,30,15050,7,16,0,16,0,1,,,,,,,,,,,,,,,,,,,,,,,,,,,,,,,,,,,,,,,
,,,,,,,,2023-08-16_08h31.58.744,HF_wild_card,2022.2.4,Win32,59.88741167,63d7714e038e3cdd0833f4e1,64d2fd46c836a06233681665,64dc7af359cbf0e3e6133be9,,,,,,,ctch,resources/DB.BMP,resources/DG.BMP,Door1,-0.191666667,-0.128703732,1,0,0,0.8643,optionLeft,30,15080,7,17,0,17,0,1,,,,,,,,,,,,,,,,,,,,,,,,,,,,,,,,,,,,,,,
,,,,,,,,2023-08-16_08h31.58.744,HF_wild_card,2022.2.4,Win32,59.88741167,63d7714e038e3cdd0833f4e1,64d2fd46c836a06233681665,64dc7af359cbf0e3e6133be9,,,,,,,decisionTrl,resources/DB.BMP,resources/DY.BMP,Door1,-0.147222222,-0.091666667,1,0,0,0.6298,optionLeft,30,15110,7,18,0,18,0,1,,,,,,,,,,,,,,,,,,,,,,,,,,,,,,,,,,,,,,,
,,,,,,,,2023-08-16_08h31.58.744,HF_wild_card,2022.2.4,Win32,59.88741167,63d7714e038e3cdd0833f4e1,64d2fd46c836a06233681665,64dc7af359cbf0e3e6133be9,,,,,,,ctch,resources/DY.BMP,resources/DP.BMP,Door3,0.339814843,-0.200925954,1,0,0,0.7646,optionRight,70,15180,7,19,0,19,0,1,,,,,,,,,,,,,,,,,,,,,,,,,,,,,,,,,,,,,,,
,,,,,,,,2023-08-16_08h31.58.744,HF_wild_card,2022.2.4,Win32,59.88741167,63d7714e038e3cdd0833f4e1,64d2fd46c836a06233681665,64dc7af359cbf0e3e6133be9,,,,,,,decisionTrl,resources/DG.BMP,resources/DP.BMP,Door4,-0.159259203,-0.143518533,1,0,0,0.6811,optionLeft,60,15240,7,20,0,20,0,1,,,,,,,,,,,,,,,,,,,,,,,,,,,,,,,,,,,,,,,
,,,,,,,,2023-08-16_08h31.58.744,HF_wild_card,2022.2.4,Win32,59.88741167,63d7714e038e3cdd0833f4e1,64d2fd46c836a06233681665,64dc7af359cbf0e3e6133be9,,,,,,,decisionTrl,resources/DY.BMP,resources/DB.BMP,Door1,0.380555556,-0.180555556,1,0,0,0.6147,optionRight,30,15270,7,21,0,21,0,1,,,,,,,,,,,,,,,,,,,,,,,,,,,,,,,,,,,,,,,
,,,,,,,,2023-08-16_08h31.58.744,HF_wild_card,2022.2.4,Win32,59.88741167,63d7714e038e3cdd0833f4e1,64d2fd46c836a06233681665,64dc7af359cbf0e3e6133be9,,,,,,,decisionTrl,resources/DY.BMP,resources/DB.BMP,Door1,0.30648151,-0.122222222,1,0,0,0.7823,optionRight,30,15300,7,22,0,22,0,1,,,,,,,,,,,,,,,,,,,,,,,,,,,,,,,,,,,,,,,
,,,,,,,,2023-08-16_08h31.58.744,HF_wild_card,2022.2.4,Win32,59.88741167,63d7714e038e3cdd0833f4e1,64d2fd46c836a06233681665,64dc7af359cbf0e3e6133be9,,,,,,,decisionTrl,resources/DB.BMP,resources/DY.BMP,Door1,-0.173148092,-0.078703732,1,0,0,0.6322,optionLeft,30,15330,7,23,0,23,0,1,,,,,,,,,,,,,,,,,,,,,,,,,,,,,,,,,,,,,,,
,,,,,,,,2023-08-16_08h31.58.744,HF_wild_card,2022.2.4,Win32,59.88741167,63d7714e038e3cdd0833f4e1,64d2fd46c836a06233681665,64dc7af359cbf0e3e6133be9,,,,,,,decisionTrl,resources/DP.BMP,resources/DG.BMP,Door3,-0.238888889,-0.124074088,1,0,0,0.948,optionLeft,70,15400,7,24,0,24,0,1,,,,,,,,,,,,,,,,,,,,,,,,,,,,,,,,,,,,,,,
,,,,,,,,2023-08-16_08h31.58.744,HF_wild_card,2022.2.4,Win32,59.88741167,63d7714e038e3cdd0833f4e1,64d2fd46c836a06233681665,64dc7af359cbf0e3e6133be9,,,,,,,ctch,resources/DY.BMP,resources/DP.BMP,Door3,0.363888889,-0.202777778,1,0,0,0.6984,optionRight,70,15470,7,25,0,25,0,1,,,,,,,,,,,,,,,,,,,,,,,,,,,,,,,,,,,,,,,
,,,,,,,,2023-08-16_08h31.58.744,HF_wild_card,2022.2.4,Win32,59.88741167,63d7714e038e3cdd0833f4e1,64d2fd46c836a06233681665,64dc7af359cbf0e3e6133be9,,,,,,,decisionTrl,resources/DB.BMP,resources/DY.BMP,Door1,-0.19351849,-0.118518533,1,0,0,0.8318,optionLeft,30,15500,7,26,0,26,0,1,,,,,,,,,,,,,,,,,,,,,,,,,,,,,,,,,,,,,,,
,,,,,,,,2023-08-16_08h31.58.744,HF_wild_card,2022.2.4,Win32,59.88741167,63d7714e038e3cdd0833f4e1,64d2fd46c836a06233681665,64dc7af359cbf0e3e6133be9,,,,,,,ctch,resources/DG.BMP,resources/DB.BMP,Door4,-0.174074046,-0.117592621,1,0,0,0.7655,optionLeft,60,15560,7,27,0,27,0,1,,,,,,,,,,,,,,,,,,,,,,,,,,,,,,,,,,,,,,,
,,,,,,,,2023-08-16_08h31.58.744,HF_wild_card,2022.2.4,Win32,59.88741167,63d7714e038e3cdd0833f4e1,64d2fd46c836a06233681665,64dc7af359cbf0e3e6133be9,,,,,,,decisionTrl,resources/DG.BMP,resources/DP.BMP,Door3,0.370370399,-0.19629631,1,0,0,0.883,optionRight,70,15630,7,28,0,28,0,1,,,,,,,,,,,,,,,,,,,,,,,,,,,,,,,,,,,,,,,
,,,,,,,,2023-08-16_08h31.58.744,HF_wild_card,2022.2.4,Win32,59.88741167,63d7714e038e3cdd0833f4e1,64d2fd46c836a06233681665,64dc7af359cbf0e3e6133be9,,,,,,,ctch,resources/DG.BMP,resources/DB.BMP,Door4,-0.172222222,-0.125925954,1,0,0,1.2367,optionLeft,60,15690,7,29,0,29,0,1,,,,,,,,,,,,,,,,,,,,,,,,,,,,,,,,,,,,,,,
,,,,,,,,2023-08-16_08h31.58.744,HF_wild_card,2022.2.4,Win32,59.88741167,63d7714e038e3cdd0833f4e1,64d2fd46c836a06233681665,64dc7af359cbf0e3e6133be9,,,,,,,decisionTrl,resources/DY.BMP,resources/DB.BMP,Door1,0.273148176,-0.03148151,1,0,0,0.9142,optionRight,30,15720,7,30,0,30,0,1,,,,,,,,,,,,,,,,,,,,,,,,,,,,,,,,,,,,,,,
,,,,,,,,2023-08-16_08h31.58.744,HF_wild_card,2022.2.4,Win32,59.88741167,63d7714e038e3cdd0833f4e1,64d2fd46c836a06233681665,64dc7af359cbf0e3e6133be9,,,,,,,decisionTrl,resources/DP.BMP,resources/DG.BMP,Door3,-0.195370356,-0.128703732,1,0,0,1.1482,optionLeft,70,15790,7,31,0,31,0,1,,,,,,,,,,,,,,,,,,,,,,,,,,,,,,,,,,,,,,,
,,,,,,,,2023-08-16_08h31.58.744,HF_wild_card,2022.2.4,Win32,59.88741167,63d7714e038e3cdd0833f4e1,64d2fd46c836a06233681665,64dc7af359cbf0e3e6133be9,,,,,,,ctch,resources/DB.BMP,resources/DG.BMP,Door4,0.270370399,-0.162962977,1,0,0,0.9168,optionRight,80,15870,7,32,0,32,0,1,,,,,,,,,,,,,,,,,,,,,,,,,,,,,,,,,,,,,,,
,,,,,,,,2023-08-16_08h31.58.744,HF_wild_card,2022.2.4,Win32,59.88741167,63d7714e038e3cdd0833f4e1,64d2fd46c836a06233681665,64dc7af359cbf0e3e6133be9,,,,,,,decisionTrl,resources/DG.BMP,resources/DP.BMP,Door4,-0.262037023,-0.115740755,1,0,0,0.7983,optionLeft,80,15950,7,33,0,33,0,1,,,,,,,,,,,,,,,,,,,,,,,,,,,,,,,,,,,,,,,
,,,,,,,,2023-08-16_08h31.58.744,HF_wild_card,2022.2.4,Win32,59.88741167,63d7714e038e3cdd0833f4e1,64d2fd46c836a06233681665,64dc7af359cbf0e3e6133be9,,,,,,,ctch,resources/DP.BMP,resources/DY.BMP,Door3,-0.225,-0.128703732,1,0,0,0.6513,optionLeft,70,16020,7,34,0,34,0,1,,,,,,,,,,,,,,,,,,,,,,,,,,,,,,,,,,,,,,,
,,,,,,,,2023-08-16_08h31.58.744,HF_wild_card,2022.2.4,Win32,59.88741167,63d7714e038e3cdd0833f4e1,64d2fd46c836a06233681665,64dc7af359cbf0e3e6133be9,,,,,,,decisionTrl,resources/DY.BMP,resources/DB.BMP,Door1,0.339814843,-0.176851866,1,0,0,0.6642,optionRight,30,16050,7,35,0,35,0,1,,,,,,,,,,,,,,,,,,,,,,,,,,,,,,,,,,,,,,,
,,,,,,,,2023-08-16_08h31.58.744,HF_wild_card,2022.2.4,Win32,59.88741167,63d7714e038e3cdd0833f4e1,64d2fd46c836a06233681665,64dc7af359cbf0e3e6133be9,,,,,,,,,,,,,,,,,,,,,,,,,,6,0,6,0,1,,,,,,,,,,,,,,,,,,,,,,,,,,,,,,,,,,
,,,,,,,,2023-08-16_08h31.58.744,HF_wild_card,2022.2.4,Win32,59.88741167,63d7714e038e3cdd0833f4e1,64d2fd46c836a06233681665,64dc7af359cbf0e3e6133be9,,,,,,,,,,,,,,,,,,,,,,,,,,,,,,,4,,,,,,,,,,,,,,,,,,,,,,,,,,,,,,,,,
,,,,,,,,2023-08-16_08h31.58.744,HF_wild_card,2022.2.4,Win32,59.88741167,63d7714e038e3cdd0833f4e1,64d2fd46c836a06233681665,64dc7af359cbf0e3e6133be9,,,,,,,,,,,,,,,,,,,,,,,,,,,,,,,,,,,,,,,,,,,,,,,,,,,,,,,,,,,,,,,,
,,,,,,,,2023-08-16_08h31.58.744,HF_wild_card,2022.2.4,Win32,59.88741167,63d7714e038e3cdd0833f4e1,64d2fd46c836a06233681665,64dc7af359cbf0e3e6133be9,,,,,,,,,,,,,,,,,,,,,,,,,,,,,,,,60,Door4,resources/DG.BMP,0,0,0,0,1,,,,,,,,,,,,,,,,,,,,,,,,,
,,,,,,,,2023-08-16_08h31.58.744,HF_wild_card,2022.2.4,Win32,59.88741167,63d7714e038e3cdd0833f4e1,64d2fd46c836a06233681665,64dc7af359cbf0e3e6133be9,,,,,,,,,,,,,,,,,,,,,,,,,,,,,,,,70,Door3,resources/DP.BMP,1,0,1,0,1,,,,,,,,,,,,,,,,,,,,,,,,,
,,,,,,,,2023-08-16_08h31.58.744,HF_wild_card,2022.2.4,Win32,59.88741167,63d7714e038e3cdd0833f4e1,64d2fd46c836a06233681665,64dc7af359cbf0e3e6133be9,,,,,,,,,,,,,,,,,,,,,,,,,,,,,,,,55,Door1,resources/DB.BMP,2,0,2,0,1,,,,,,,,,,,,,,,,,,,,,,,,,
,,,,,,,,2023-08-16_08h31.58.744,HF_wild_card,2022.2.4,Win32,59.88741167,63d7714e038e3cdd0833f4e1,64d2fd46c836a06233681665,64dc7af359cbf0e3e6133be9,,,,,,,,,,,,,,,,,,,,,,,,,,,,,,,,20,Door2,resources/DY.BMP,3,0,3,0,1,,,,,,,,,,,,,,,,,,,,,,,,,
,,,,,,,,2023-08-16_08h31.58.744,HF_wild_card,2022.2.4,Win32,59.88741167,63d7714e038e3cdd0833f4e1,64d2fd46c836a06233681665,64dc7af359cbf0e3e6133be9,,,,,,,,,,,,,,,,,,,,,,,,,,,,,,,,45,WC_extreme,resources/DBN.BMP,4,0,4,0,1,,,,,,,,,,,,,,,,,,,,,,,,,
,,,,,,,,2023-08-16_08h31.58.744,HF_wild_card,2022.2.4,Win32,59.88741167,63d7714e038e3cdd0833f4e1,64d2fd46c836a06233681665,64dc7af359cbf0e3e6133be9,,,,,,,,,,,,,,,,,,,,,,,,,,,,,,,,60,WC_nonExtreme,resources/DR.BMP,5,0,5,0,1,,,,,,,,,,,,,,,,,,,,,,,,,
,,,,,,,,2023-08-16_08h31.58.744,HF_wild_card,2022.2.4,Win32,59.88741167,63d7714e038e3cdd0833f4e1,64d2fd46c836a06233681665,64dc7af359cbf0e3e6133be9,,,,,,,,,,,,,,,,,,,,,,,,,,,,,,,,,,,,,,,,,,,,,,,,,,,,,,,,,,,,,,,,
