Condition,Low fixed image (Door1),Low risky image (Door2),High fixed image (Door3),High risky image (Door4),NonExtreme Wild Card 1,NonExtreme Wild Card 2,,date,expName,psychopyVersion,OS,frameRate,PROLIFIC_PID,STUDY_ID,SESSION_ID,mouse_2.x,mouse_2.y,mouse_2.leftButton,mouse_2.midButton,mouse_2.rightButton,mouse_2.clicked_name,Trial Type,Left Option Image,Right Option Image,Chosen Door,mouse.x,mouse.y,mouse.leftButton,mouse.midButton,mouse.rightButton,mouse.time,mouse.clicked_name,Feedback,Cumulative Reward,Block,trial.thisRepN,trial.thisTrialN,trial.thisN,trial.thisIndex,trial.ran,blocks.thisRepN,blocks.thisTrialN,blocks.thisN,blocks.thisIndex,blocks.ran,Money conversion,First Outcome Reported,Shown Door (First Outcome),Displayed Image (First Outcome),outcomes.thisRepN,outcomes.thisTrialN,outcomes.thisN,outcomes.thisIndex,outcomes.ran,judgments.thisRepN,judgments.thisTrialN,judgments.thisN,judgments.thisIndex,judgments.ran,freqMouse.x,freqMouse.y,freqMouse.leftButton,freqMouse.midButton,freqMouse.rightButton,freqMouse.clicked_name,FQJ for first outcome,FQJ for second outcome,Shown Door,Displayed Image,trials.thisRepN,trials.thisTrialN,trials.thisN,trials.thisIndex,trials.ran,judgBlock.thisRepN,judgBlock.thisTrialN,judgBlock.thisN,judgBlock.thisIndex,judgBlock.ran
2,resources/DG.BMP,resources/DP.BMP,resources/DB.BMP,resources/DR.BMP,resources/DBN.BMP,resources/DY.BMP,,2023-08-24_08h10.52.291,HF_wild_card,2022.2.4,Win32,59.98080614,634d98bd566df98eb0e95314,64e63663dbcaf322d2eec8da,64e70269cbfa0cfac04f5ff8,,,,,,,,,,,,,,,,,,,,,,,,,,,,,,,,,,,,,,,,,,,,,,,,,,,,,,,,,,,,,,,,
,,,,,,,,2023-08-24_08h10.52.291,HF_wild_card,2022.2.4,Win32,59.98080614,634d98bd566df98eb0e95314,64e63663dbcaf322d2eec8da,64e70269cbfa0cfac04f5ff8,-0.025416667,-0.431111145,1,0,0,agree,,,,,,,,,,,,,,,,,,,,,,,,,,,,,,,,,,,,,,,,,,,,,,,,,,,,,,,,,,
,,,,,,,,2023-08-24_08h10.52.291,HF_wild_card,2022.2.4,Win32,59.98080614,634d98bd566df98eb0e95314,64e63663dbcaf322d2eec8da,64e70269cbfa0cfac04f5ff8,,,,,,,,,,,,,,,,,,,,,,,,,,,,,,,,,,,,,,,,,,,,,,,,,,,,,,,,,,,,,,,,
,,,,,,,,2023-08-24_08h10.52.291,HF_wild_card,2022.2.4,Win32,59.98080614,634d98bd566df98eb0e95314,64e63663dbcaf322d2eec8da,64e70269cbfa0cfac04f5ff8,,,,,,,ctch,resources/DG.BMP,resources/DR.BMP,Door1,-0.247638855,-0.204444478,1,0,0,4.1039,optionLeft,30,30,1,0,0,0,0,1,,,,,,,,,,,,,,,,,,,,,,,,,,,,,,,,,,,,,,,
,,,,,,,,2023-08-24_08h10.52.291,HF_wild_card,2022.2.4,Win32,59.98080614,634d98bd566df98eb0e95314,64e63663dbcaf322d2eec8da,64e70269cbfa0cfac04f5ff8,,,,,,,decisionTrl,resources/DP.BMP,resources/DG.BMP,Door1,0.226805623,-0.051111145,1,0,0,1.9826,optionRight,30,60,1,1,0,1,0,1,,,,,,,,,,,,,,,,,,,,,,,,,,,,,,,,,,,,,,,
,,,,,,,,2023-08-24_08h10.52.291,HF_wild_card,2022.2.4,Win32,59.98080614,634d98bd566df98eb0e95314,64e63663dbcaf322d2eec8da,64e70269cbfa0cfac04f5ff8,,,,,,,ctch,resources/DB.BMP,resources/DP.BMP,Door3,-0.319861094,-0.05,1,0,0,2.3172,optionLeft,70,130,1,2,0,2,0,1,,,,,,,,,,,,,,,,,,,,,,,,,,,,,,,,,,,,,,,
,,,,,,,,2023-08-24_08h10.52.291,HF_wild_card,2022.2.4,Win32,59.98080614,634d98bd566df98eb0e95314,64e63663dbcaf322d2eec8da,64e70269cbfa0cfac04f5ff8,,,,,,,sngl,resources/DY.BMP,resources/Empty.png,WildCard_NonEx,-0.207638855,-0.041111145,1,0,0,1.4265,optionLeft,45,175,1,3,0,3,0,1,,,,,,,,,,,,,,,,,,,,,,,,,,,,,,,,,,,,,,,
,,,,,,,,2023-08-24_08h10.52.291,HF_wild_card,2022.2.4,Win32,59.98080614,634d98bd566df98eb0e95314,64e63663dbcaf322d2eec8da,64e70269cbfa0cfac04f5ff8,,,,,,,decisionTrl,resources/DG.BMP,resources/DP.BMP,Door2,0.37347229,0.07,1,0,0,1.9258,optionRight,40,215,1,4,0,4,0,1,,,,,,,,,,,,,,,,,,,,,,,,,,,,,,,,,,,,,,,
,,,,,,,,2023-08-24_08h10.52.291,HF_wild_card,2022.2.4,Win32,59.98080614,634d98bd566df98eb0e95314,64e63663dbcaf322d2eec8da,64e70269cbfa0cfac04f5ff8,,,,,,,sngl,resources/DR.BMP,resources/Empty.png,Door4,-0.260972188,-0.045555573,1,0,0,0.9319,optionLeft,80,295,1,5,0,5,0,1,,,,,,,,,,,,,,,,,,,,,,,,,,,,,,,,,,,,,,,
,,,,,,,,2023-08-24_08h10.52.291,HF_wild_card,2022.2.4,Win32,59.98080614,634d98bd566df98eb0e95314,64e63663dbcaf322d2eec8da,64e70269cbfa0cfac04f5ff8,,,,,,,decisionTrl,resources/DY.BMP,resources/DB.BMP,Door3,0.360138957,0.045555522,1,0,0,2.6841,optionRight,70,365,1,6,0,6,0,1,,,,,,,,,,,,,,,,,,,,,,,,,,,,,,,,,,,,,,,
,,,,,,,,2023-08-24_08h10.52.291,HF_wild_card,2022.2.4,Win32,59.98080614,634d98bd566df98eb0e95314,64e63663dbcaf322d2eec8da,64e70269cbfa0cfac04f5ff8,,,,,,,decisionTrl,resources/DG.BMP,resources/DP.BMP,Door1,-0.176527761,-0.023333333,1,0,0,1.7103,optionLeft,30,395,1,7,0,7,0,1,,,,,,,,,,,,,,,,,,,,,,,,,,,,,,,,,,,,,,,
,,,,,,,,2023-08-24_08h10.52.291,HF_wild_card,2022.2.4,Win32,59.98080614,634d98bd566df98eb0e95314,64e63663dbcaf322d2eec8da,64e70269cbfa0cfac04f5ff8,,,,,,,decisionTrl,resources/DR.BMP,resources/DB.BMP,Door4,-0.264305522,-0.012222239,1,0,0,1.3326,optionLeft,80,475,1,8,0,8,0,1,,,,,,,,,,,,,,,,,,,,,,,,,,,,,,,,,,,,,,,
,,,,,,,,2023-08-24_08h10.52.291,HF_wild_card,2022.2.4,Win32,59.98080614,634d98bd566df98eb0e95314,64e63663dbcaf322d2eec8da,64e70269cbfa0cfac04f5ff8,,,,,,,sngl,resources/Empty.png,resources/DR.BMP,Door4,0.27125,-0.024444478,1,0,0,0.9654,optionRight,60,535,1,9,0,9,0,1,,,,,,,,,,,,,,,,,,,,,,,,,,,,,,,,,,,,,,,
,,,,,,,,2023-08-24_08h10.52.291,HF_wild_card,2022.2.4,Win32,59.98080614,634d98bd566df98eb0e95314,64e63663dbcaf322d2eec8da,64e70269cbfa0cfac04f5ff8,,,,,,,decisionTrl,resources/DR.BMP,resources/DB.BMP,Door3,0.30125,0.001111094,1,0,0,1.7579,optionRight,70,605,1,10,0,10,0,1,,,,,,,,,,,,,,,,,,,,,,,,,,,,,,,,,,,,,,,
,,,,,,,,2023-08-24_08h10.52.291,HF_wild_card,2022.2.4,Win32,59.98080614,634d98bd566df98eb0e95314,64e63663dbcaf322d2eec8da,64e70269cbfa0cfac04f5ff8,,,,,,,decisionTrl,resources/DY.BMP,resources/DP.BMP,WildCard_NonEx,-0.229861094,-0.015555573,1,0,0,0.8421,optionLeft,55,660,1,11,0,11,0,1,,,,,,,,,,,,,,,,,,,,,,,,,,,,,,,,,,,,,,,
,,,,,,,,2023-08-24_08h10.52.291,HF_wild_card,2022.2.4,Win32,59.98080614,634d98bd566df98eb0e95314,64e63663dbcaf322d2eec8da,64e70269cbfa0cfac04f5ff8,,,,,,,decisionTrl,resources/DP.BMP,resources/DG.BMP,Door2,-0.326527761,-0.08,1,0,0,1.7943,optionLeft,20,680,1,12,0,12,0,1,,,,,,,,,,,,,,,,,,,,,,,,,,,,,,,,,,,,,,,
,,,,,,,,2023-08-24_08h10.52.291,HF_wild_card,2022.2.4,Win32,59.98080614,634d98bd566df98eb0e95314,64e63663dbcaf322d2eec8da,64e70269cbfa0cfac04f5ff8,,,,,,,sngl,resources/Empty.png,resources/DY.BMP,WildCard_NonEx,0.316805623,-0.035555573,1,0,0,0.8145,optionRight,55,735,1,13,0,13,0,1,,,,,,,,,,,,,,,,,,,,,,,,,,,,,,,,,,,,,,,
,,,,,,,,2023-08-24_08h10.52.291,HF_wild_card,2022.2.4,Win32,59.98080614,634d98bd566df98eb0e95314,64e63663dbcaf322d2eec8da,64e70269cbfa0cfac04f5ff8,,,,,,,decisionTrl,resources/DG.BMP,resources/DP.BMP,Door2,0.337916667,-0.041111145,1,0,0,1.708,optionRight,40,775,1,14,0,14,0,1,,,,,,,,,,,,,,,,,,,,,,,,,,,,,,,,,,,,,,,
,,,,,,,,2023-08-24_08h10.52.291,HF_wild_card,2022.2.4,Win32,59.98080614,634d98bd566df98eb0e95314,64e63663dbcaf322d2eec8da,64e70269cbfa0cfac04f5ff8,,,,,,,ctch,resources/DP.BMP,resources/DB.BMP,Door3,0.265694478,-0.034444478,1,0,0,1.0139,optionRight,70,845,1,15,0,15,0,1,,,,,,,,,,,,,,,,,,,,,,,,,,,,,,,,,,,,,,,
,,,,,,,,2023-08-24_08h10.52.291,HF_wild_card,2022.2.4,Win32,59.98080614,634d98bd566df98eb0e95314,64e63663dbcaf322d2eec8da,64e70269cbfa0cfac04f5ff8,,,,,,,sngl,resources/Empty.png,resources/DG.BMP,Door1,0.29125,-0.076666667,1,0,0,0.9945,optionRight,30,875,1,16,0,16,0,1,,,,,,,,,,,,,,,,,,,,,,,,,,,,,,,,,,,,,,,
,,,,,,,,2023-08-24_08h10.52.291,HF_wild_card,2022.2.4,Win32,59.98080614,634d98bd566df98eb0e95314,64e63663dbcaf322d2eec8da,64e70269cbfa0cfac04f5ff8,,,,,,,ctch,resources/DR.BMP,resources/DG.BMP,Door1,0.274583333,-0.077777812,1,0,0,0.76,optionRight,30,905,1,17,0,17,0,1,,,,,,,,,,,,,,,,,,,,,,,,,,,,,,,,,,,,,,,
,,,,,,,,2023-08-24_08h10.52.291,HF_wild_card,2022.2.4,Win32,59.98080614,634d98bd566df98eb0e95314,64e63663dbcaf322d2eec8da,64e70269cbfa0cfac04f5ff8,,,,,,,decisionTrl,resources/DP.BMP,resources/DG.BMP,Door1,0.350138957,-0.043333333,1,0,0,0.7088,optionRight,30,935,1,18,0,18,0,1,,,,,,,,,,,,,,,,,,,,,,,,,,,,,,,,,,,,,,,
,,,,,,,,2023-08-24_08h10.52.291,HF_wild_card,2022.2.4,Win32,59.98080614,634d98bd566df98eb0e95314,64e63663dbcaf322d2eec8da,64e70269cbfa0cfac04f5ff8,,,,,,,decisionTrl,resources/DB.BMP,resources/DY.BMP,Door3,-0.319861094,-0.021111145,1,0,0,2.4749,optionLeft,70,1005,1,19,0,19,0,1,,,,,,,,,,,,,,,,,,,,,,,,,,,,,,,,,,,,,,,
,,,,,,,,2023-08-24_08h10.52.291,HF_wild_card,2022.2.4,Win32,59.98080614,634d98bd566df98eb0e95314,64e63663dbcaf322d2eec8da,64e70269cbfa0cfac04f5ff8,,,,,,,ctch,resources/DR.BMP,resources/DG.BMP,Door1,0.32125,-0.003333333,1,0,0,1.6789,optionRight,30,1035,1,20,0,20,0,1,,,,,,,,,,,,,,,,,,,,,,,,,,,,,,,,,,,,,,,
,,,,,,,,2023-08-24_08h10.52.291,HF_wild_card,2022.2.4,Win32,59.98080614,634d98bd566df98eb0e95314,64e63663dbcaf322d2eec8da,64e70269cbfa0cfac04f5ff8,,,,,,,ctch,resources/DG.BMP,resources/DR.BMP,Door4,0.145694478,0.003333333,1,0,0,1.1606,optionRight,80,1115,1,21,0,21,0,1,,,,,,,,,,,,,,,,,,,,,,,,,,,,,,,,,,,,,,,
,,,,,,,,2023-08-24_08h10.52.291,HF_wild_card,2022.2.4,Win32,59.98080614,634d98bd566df98eb0e95314,64e63663dbcaf322d2eec8da,64e70269cbfa0cfac04f5ff8,,,,,,,decisionTrl,resources/DY.BMP,resources/DR.BMP,WildCard_NonEx,-0.339861094,-0.051111145,1,0,0,1.9867,optionLeft,55,1170,1,22,0,22,0,1,,,,,,,,,,,,,,,,,,,,,,,,,,,,,,,,,,,,,,,
,,,,,,,,2023-08-24_08h10.52.291,HF_wild_card,2022.2.4,Win32,59.98080614,634d98bd566df98eb0e95314,64e63663dbcaf322d2eec8da,64e70269cbfa0cfac04f5ff8,,,,,,,ctch,resources/DP.BMP,resources/DB.BMP,Door3,0.26347229,-0.062222239,1,0,0,0.8861,optionRight,70,1240,1,23,0,23,0,1,,,,,,,,,,,,,,,,,,,,,,,,,,,,,,,,,,,,,,,
,,,,,,,,2023-08-24_08h10.52.291,HF_wild_card,2022.2.4,Win32,59.98080614,634d98bd566df98eb0e95314,64e63663dbcaf322d2eec8da,64e70269cbfa0cfac04f5ff8,,,,,,,decisionTrl,resources/DG.BMP,resources/DP.BMP,Door1,-0.210972188,-0.122222239,1,0,0,1.1477,optionLeft,30,1270,1,24,0,24,0,1,,,,,,,,,,,,,,,,,,,,,,,,,,,,,,,,,,,,,,,
,,,,,,,,2023-08-24_08h10.52.291,HF_wild_card,2022.2.4,Win32,59.98080614,634d98bd566df98eb0e95314,64e63663dbcaf322d2eec8da,64e70269cbfa0cfac04f5ff8,,,,,,,decisionTrl,resources/DR.BMP,resources/DY.BMP,WildCard_NonEx,0.274583333,-0.042222239,1,0,0,1.6264,optionRight,45,1315,1,25,0,25,0,1,,,,,,,,,,,,,,,,,,,,,,,,,,,,,,,,,,,,,,,
,,,,,,,,2023-08-24_08h10.52.291,HF_wild_card,2022.2.4,Win32,59.98080614,634d98bd566df98eb0e95314,64e63663dbcaf322d2eec8da,64e70269cbfa0cfac04f5ff8,,,,,,,sngl,resources/DG.BMP,resources/Empty.png,Door1,-0.229861094,0.018888855,1,0,0,0.7963,optionLeft,30,1345,1,26,0,26,0,1,,,,,,,,,,,,,,,,,,,,,,,,,,,,,,,,,,,,,,,
,,,,,,,,2023-08-24_08h10.52.291,HF_wild_card,2022.2.4,Win32,59.98080614,634d98bd566df98eb0e95314,64e63663dbcaf322d2eec8da,64e70269cbfa0cfac04f5ff8,,,,,,,sngl,resources/DP.BMP,resources/Empty.png,Door2,-0.292083333,-0.044444478,1,0,0,0.7776,optionLeft,40,1385,1,27,0,27,0,1,,,,,,,,,,,,,,,,,,,,,,,,,,,,,,,,,,,,,,,
,,,,,,,,2023-08-24_08h10.52.291,HF_wild_card,2022.2.4,Win32,59.98080614,634d98bd566df98eb0e95314,64e63663dbcaf322d2eec8da,64e70269cbfa0cfac04f5ff8,,,,,,,sngl,resources/Empty.png,resources/DB.BMP,Door3,0.264583333,-0.067777812,1,0,0,0.8501,optionRight,70,1455,1,28,0,28,0,1,,,,,,,,,,,,,,,,,,,,,,,,,,,,,,,,,,,,,,,
,,,,,,,,2023-08-24_08h10.52.291,HF_wild_card,2022.2.4,Win32,59.98080614,634d98bd566df98eb0e95314,64e63663dbcaf322d2eec8da,64e70269cbfa0cfac04f5ff8,,,,,,,decisionTrl,resources/DR.BMP,resources/DB.BMP,Door4,-0.224305522,-0.044444478,1,0,0,0.759,optionLeft,60,1515,1,29,0,29,0,1,,,,,,,,,,,,,,,,,,,,,,,,,,,,,,,,,,,,,,,
,,,,,,,,2023-08-24_08h10.52.291,HF_wild_card,2022.2.4,Win32,59.98080614,634d98bd566df98eb0e95314,64e63663dbcaf322d2eec8da,64e70269cbfa0cfac04f5ff8,,,,,,,decisionTrl,resources/DB.BMP,resources/DR.BMP,Door4,0.30125,-0.026666667,1,0,0,0.7436,optionRight,60,1575,1,30,0,30,0,1,,,,,,,,,,,,,,,,,,,,,,,,,,,,,,,,,,,,,,,
,,,,,,,,2023-08-24_08h10.52.291,HF_wild_card,2022.2.4,Win32,59.98080614,634d98bd566df98eb0e95314,64e63663dbcaf322d2eec8da,64e70269cbfa0cfac04f5ff8,,,,,,,sngl,resources/Empty.png,resources/DY.BMP,WildCard_NonEx,0.29347229,-0.033333333,1,0,0,1.0105,optionRight,45,1620,1,31,0,31,0,1,,,,,,,,,,,,,,,,,,,,,,,,,,,,,,,,,,,,,,,
,,,,,,,,2023-08-24_08h10.52.291,HF_wild_card,2022.2.4,Win32,59.98080614,634d98bd566df98eb0e95314,64e63663dbcaf322d2eec8da,64e70269cbfa0cfac04f5ff8,,,,,,,sngl,resources/DB.BMP,resources/Empty.png,Door3,-0.283194427,-0.012222239,1,0,0,0.9164,optionLeft,70,1690,1,32,0,32,0,1,,,,,,,,,,,,,,,,,,,,,,,,,,,,,,,,,,,,,,,
,,,,,,,,2023-08-24_08h10.52.291,HF_wild_card,2022.2.4,Win32,59.98080614,634d98bd566df98eb0e95314,64e63663dbcaf322d2eec8da,64e70269cbfa0cfac04f5ff8,,,,,,,sngl,resources/DY.BMP,resources/Empty.png,WildCard_NonEx,-0.292083333,-0.035555573,1,0,0,1.3281,optionLeft,55,1745,1,33,0,33,0,1,,,,,,,,,,,,,,,,,,,,,,,,,,,,,,,,,,,,,,,
,,,,,,,,2023-08-24_08h10.52.291,HF_wild_card,2022.2.4,Win32,59.98080614,634d98bd566df98eb0e95314,64e63663dbcaf322d2eec8da,64e70269cbfa0cfac04f5ff8,,,,,,,decisionTrl,resources/DR.BMP,resources/DB.BMP,Door3,0.375694478,-0.085555573,1,0,0,0.9768,optionRight,70,1815,1,34,0,34,0,1,,,,,,,,,,,,,,,,,,,,,,,,,,,,,,,,,,,,,,,
,,,,,,,,2023-08-24_08h10.52.291,HF_wild_card,2022.2.4,Win32,59.98080614,634d98bd566df98eb0e95314,64e63663dbcaf322d2eec8da,64e70269cbfa0cfac04f5ff8,,,,,,,decisionTrl,resources/DB.BMP,resources/DR.BMP,Door3,-0.215416667,-0.033333333,1,0,0,0.9041,optionLeft,70,1885,1,35,0,35,0,1,,,,,,,,,,,,,,,,,,,,,,,,,,,,,,,,,,,,,,,
,,,,,,,,2023-08-24_08h10.52.291,HF_wild_card,2022.2.4,Win32,59.98080614,634d98bd566df98eb0e95314,64e63663dbcaf322d2eec8da,64e70269cbfa0cfac04f5ff8,,,,,,,decisionTrl,resources/DB.BMP,resources/DR.BMP,Door4,0.285694478,-0.028888906,1,0,0,0.9475,optionRight,80,1965,1,36,0,36,0,1,,,,,,,,,,,,,,,,,,,,,,,,,,,,,,,,,,,,,,,
,,,,,,,,2023-08-24_08h10.52.291,HF_wild_card,2022.2.4,Win32,59.98080614,634d98bd566df98eb0e95314,64e63663dbcaf322d2eec8da,64e70269cbfa0cfac04f5ff8,,,,,,,decisionTrl,resources/DP.BMP,resources/DG.BMP,Door2,-0.166527761,-0.036666667,1,0,0,0.8512,optionLeft,20,1985,1,37,0,37,0,1,,,,,,,,,,,,,,,,,,,,,,,,,,,,,,,,,,,,,,,
,,,,,,,,2023-08-24_08h10.52.291,HF_wild_card,2022.2.4,Win32,59.98080614,634d98bd566df98eb0e95314,64e63663dbcaf322d2eec8da,64e70269cbfa0cfac04f5ff8,,,,,,,sngl,resources/Empty.png,resources/DP.BMP,Door2,0.340138957,-0.065555573,1,0,0,0.7167,optionRight,20,2005,1,38,0,38,0,1,,,,,,,,,,,,,,,,,,,,,,,,,,,,,,,,,,,,,,,
,,,,,,,,2023-08-24_08h10.52.291,HF_wild_card,2022.2.4,Win32,59.98080614,634d98bd566df98eb0e95314,64e63663dbcaf322d2eec8da,64e70269cbfa0cfac04f5ff8,,,,,,,decisionTrl,resources/DP.BMP,resources/DY.BMP,Door2,-0.253194427,-0.026666667,1,0,0,0.759,optionLeft,40,2045,1,39,0,39,0,1,,,,,,,,,,,,,,,,,,,,,,,,,,,,,,,,,,,,,,,
,,,,,,,,2023-08-24_08h10.52.291,HF_wild_card,2022.2.4,Win32,59.98080614,634d98bd566df98eb0e95314,64e63663dbcaf322d2eec8da,64e70269cbfa0cfac04f5ff8,,,,,,,ctch,resources/DB.BMP,resources/DP.BMP,Door2,0.307916667,-0.074444478,1,0,0,0.7759,optionRight,40,2085,1,40,0,40,0,1,,,,,,,,,,,,,,,,,,,,,,,,,,,,,,,,,,,,,,,
,,,,,,,,2023-08-24_08h10.52.291,HF_wild_card,2022.2.4,Win32,59.98080614,634d98bd566df98eb0e95314,64e63663dbcaf322d2eec8da,64e70269cbfa0cfac04f5ff8,,,,,,,decisionTrl,resources/DY.BMP,resources/DG.BMP,WildCard_NonEx,-0.262083333,-0.034444478,1,0,0,1.2819,optionLeft,55,2140,1,41,0,41,0,1,,,,,,,,,,,,,,,,,,,,,,,,,,,,,,,,,,,,,,,
,,,,,,,,2023-08-24_08h10.52.291,HF_wild_card,2022.2.4,Win32,59.98080614,634d98bd566df98eb0e95314,64e63663dbcaf322d2eec8da,64e70269cbfa0cfac04f5ff8,,,,,,,decisionTrl,resources/DB.BMP,resources/DR.BMP,Door3,-0.219861094,0,1,0,0,1.5008,optionLeft,70,2210,1,42,0,42,0,1,,,,,,,,,,,,,,,,,,,,,,,,,,,,,,,,,,,,,,,
,,,,,,,,2023-08-24_08h10.52.291,HF_wild_card,2022.2.4,Win32,59.98080614,634d98bd566df98eb0e95314,64e63663dbcaf322d2eec8da,64e70269cbfa0cfac04f5ff8,,,,,,,decisionTrl,resources/DG.BMP,resources/DY.BMP,Door1,-0.272083333,-0.072222239,1,0,0,2.2419,optionLeft,30,2240,1,43,0,43,0,1,,,,,,,,,,,,,,,,,,,,,,,,,,,,,,,,,,,,,,,
,,,,,,,,2023-08-24_08h10.52.291,HF_wild_card,2022.2.4,Win32,59.98080614,634d98bd566df98eb0e95314,64e63663dbcaf322d2eec8da,64e70269cbfa0cfac04f5ff8,,,,,,,,,,,,,,,,,,,,,,,,,,0,0,0,0,1,,,,,,,,,,,,,,,,,,,,,,,,,,,,,,,,,,
,,,,,,,,2023-08-24_08h10.52.291,HF_wild_card,2022.2.4,Win32,59.98080614,634d98bd566df98eb0e95314,64e63663dbcaf322d2eec8da,64e70269cbfa0cfac04f5ff8,,,,,,,decisionTrl,resources/DR.BMP,resources/DB.BMP,Door3,0.28347229,-0.16,1,0,0,1.1863,optionRight,70,2310,2,0,0,0,0,1,,,,,,,,,,,,,,,,,,,,,,,,,,,,,,,,,,,,,,,
,,,,,,,,2023-08-24_08h10.52.291,HF_wild_card,2022.2.4,Win32,59.98080614,634d98bd566df98eb0e95314,64e63663dbcaf322d2eec8da,64e70269cbfa0cfac04f5ff8,,,,,,,sngl,resources/DP.BMP,resources/Empty.png,Door2,-0.247638855,-0.001111145,1,0,0,0.9323,optionLeft,20,2330,2,1,0,1,0,1,,,,,,,,,,,,,,,,,,,,,,,,,,,,,,,,,,,,,,,
,,,,,,,,2023-08-24_08h10.52.291,HF_wild_card,2022.2.4,Win32,59.98080614,634d98bd566df98eb0e95314,64e63663dbcaf322d2eec8da,64e70269cbfa0cfac04f5ff8,,,,,,,sngl,resources/DR.BMP,resources/Empty.png,Door4,-0.300972188,0.002222188,1,0,0,0.8617,optionLeft,60,2390,2,2,0,2,0,1,,,,,,,,,,,,,,,,,,,,,,,,,,,,,,,,,,,,,,,
,,,,,,,,2023-08-24_08h10.52.291,HF_wild_card,2022.2.4,Win32,59.98080614,634d98bd566df98eb0e95314,64e63663dbcaf322d2eec8da,64e70269cbfa0cfac04f5ff8,,,,,,,decisionTrl,resources/DY.BMP,resources/DB.BMP,WildCard_NonEx,-0.26875,-0.034444478,1,0,0,0.97,optionLeft,55,2445,2,3,0,3,0,1,,,,,,,,,,,,,,,,,,,,,,,,,,,,,,,,,,,,,,,
,,,,,,,,2023-08-24_08h10.52.291,HF_wild_card,2022.2.4,Win32,59.98080614,634d98bd566df98eb0e95314,64e63663dbcaf322d2eec8da,64e70269cbfa0cfac04f5ff8,,,,,,,decisionTrl,resources/DB.BMP,resources/DR.BMP,Door4,0.162361145,-0.047777812,1,0,0,0.9439,optionRight,60,2505,2,4,0,4,0,1,,,,,,,,,,,,,,,,,,,,,,,,,,,,,,,,,,,,,,,
,,,,,,,,2023-08-24_08h10.52.291,HF_wild_card,2022.2.4,Win32,59.98080614,634d98bd566df98eb0e95314,64e63663dbcaf322d2eec8da,64e70269cbfa0cfac04f5ff8,,,,,,,decisionTrl,resources/DR.BMP,resources/DB.BMP,Door4,-0.182083333,-0.003333333,1,0,0,0.7032,optionLeft,60,2565,2,5,0,5,0,1,,,,,,,,,,,,,,,,,,,,,,,,,,,,,,,,,,,,,,,
,,,,,,,,2023-08-24_08h10.52.291,HF_wild_card,2022.2.4,Win32,59.98080614,634d98bd566df98eb0e95314,64e63663dbcaf322d2eec8da,64e70269cbfa0cfac04f5ff8,,,,,,,ctch,resources/DB.BMP,resources/DP.BMP,Door3,-0.17875,-0.022222239,1,0,0,1.1688,optionLeft,70,2635,2,6,0,6,0,1,,,,,,,,,,,,,,,,,,,,,,,,,,,,,,,,,,,,,,,
,,,,,,,,2023-08-24_08h10.52.291,HF_wild_card,2022.2.4,Win32,59.98080614,634d98bd566df98eb0e95314,64e63663dbcaf322d2eec8da,64e70269cbfa0cfac04f5ff8,,,,,,,decisionTrl,resources/DG.BMP,resources/DY.BMP,WildCard_NonEx,0.280138957,-0.097777812,1,0,0,1.7944,optionRight,55,2690,2,7,0,7,0,1,,,,,,,,,,,,,,,,,,,,,,,,,,,,,,,,,,,,,,,
,,,,,,,,2023-08-24_08h10.52.291,HF_wild_card,2022.2.4,Win32,59.98080614,634d98bd566df98eb0e95314,64e63663dbcaf322d2eec8da,64e70269cbfa0cfac04f5ff8,,,,,,,decisionTrl,resources/DR.BMP,resources/DB.BMP,Door3,0.262361145,-0.087777812,1,0,0,1.5765,optionRight,70,2760,2,8,0,8,0,1,,,,,,,,,,,,,,,,,,,,,,,,,,,,,,,,,,,,,,,
,,,,,,,,2023-08-24_08h10.52.291,HF_wild_card,2022.2.4,Win32,59.98080614,634d98bd566df98eb0e95314,64e63663dbcaf322d2eec8da,64e70269cbfa0cfac04f5ff8,,,,,,,decisionTrl,resources/DP.BMP,resources/DG.BMP,Door2,-0.202083333,0.003333333,1,0,0,2.3097,optionLeft,40,2800,2,9,0,9,0,1,,,,,,,,,,,,,,,,,,,,,,,,,,,,,,,,,,,,,,,
,,,,,,,,2023-08-24_08h10.52.291,HF_wild_card,2022.2.4,Win32,59.98080614,634d98bd566df98eb0e95314,64e63663dbcaf322d2eec8da,64e70269cbfa0cfac04f5ff8,,,,,,,decisionTrl,resources/DG.BMP,resources/DP.BMP,Door2,0.256805623,-0.021111145,1,0,0,0.861,optionRight,40,2840,2,10,0,10,0,1,,,,,,,,,,,,,,,,,,,,,,,,,,,,,,,,,,,,,,,
,,,,,,,,2023-08-24_08h10.52.291,HF_wild_card,2022.2.4,Win32,59.98080614,634d98bd566df98eb0e95314,64e63663dbcaf322d2eec8da,64e70269cbfa0cfac04f5ff8,,,,,,,decisionTrl,resources/DB.BMP,resources/DR.BMP,Door3,-0.18875,-0.002222239,1,0,0,0.6809,optionLeft,70,2910,2,11,0,11,0,1,,,,,,,,,,,,,,,,,,,,,,,,,,,,,,,,,,,,,,,
,,,,,,,,2023-08-24_08h10.52.291,HF_wild_card,2022.2.4,Win32,59.98080614,634d98bd566df98eb0e95314,64e63663dbcaf322d2eec8da,64e70269cbfa0cfac04f5ff8,,,,,,,sngl,resources/Empty.png,resources/DG.BMP,Door1,0.23125,0.066666667,1,0,0,0.9835,optionRight,30,2940,2,12,0,12,0,1,,,,,,,,,,,,,,,,,,,,,,,,,,,,,,,,,,,,,,,
,,,,,,,,2023-08-24_08h10.52.291,HF_wild_card,2022.2.4,Win32,59.98080614,634d98bd566df98eb0e95314,64e63663dbcaf322d2eec8da,64e70269cbfa0cfac04f5ff8,,,,,,,sngl,resources/Empty.png,resources/DY.BMP,WildCard_NonEx,0.194583333,0.027777761,1,0,0,0.844,optionRight,45,2985,2,13,0,13,0,1,,,,,,,,,,,,,,,,,,,,,,,,,,,,,,,,,,,,,,,
,,,,,,,,2023-08-24_08h10.52.291,HF_wild_card,2022.2.4,Win32,59.98080614,634d98bd566df98eb0e95314,64e63663dbcaf322d2eec8da,64e70269cbfa0cfac04f5ff8,,,,,,,ctch,resources/DR.BMP,resources/DG.BMP,Door4,-0.225416667,-0.027777812,1,0,0,0.8268,optionLeft,80,3065,2,14,0,14,0,1,,,,,,,,,,,,,,,,,,,,,,,,,,,,,,,,,,,,,,,
,,,,,,,,2023-08-24_08h10.52.291,HF_wild_card,2022.2.4,Win32,59.98080614,634d98bd566df98eb0e95314,64e63663dbcaf322d2eec8da,64e70269cbfa0cfac04f5ff8,,,,,,,sngl,resources/Empty.png,resources/DP.BMP,Door2,0.23347229,-0.031111145,1,0,0,0.9454,optionRight,40,3105,2,15,0,15,0,1,,,,,,,,,,,,,,,,,,,,,,,,,,,,,,,,,,,,,,,
,,,,,,,,2023-08-24_08h10.52.291,HF_wild_card,2022.2.4,Win32,59.98080614,634d98bd566df98eb0e95314,64e63663dbcaf322d2eec8da,64e70269cbfa0cfac04f5ff8,,,,,,,decisionTrl,resources/DG.BMP,resources/DP.BMP,Door1,-0.153194427,0.004444427,1,0,0,0.7813,optionLeft,30,3135,2,16,0,16,0,1,,,,,,,,,,,,,,,,,,,,,,,,,,,,,,,,,,,,,,,
,,,,,,,,2023-08-24_08h10.52.291,HF_wild_card,2022.2.4,Win32,59.98080614,634d98bd566df98eb0e95314,64e63663dbcaf322d2eec8da,64e70269cbfa0cfac04f5ff8,,,,,,,decisionTrl,resources/DR.BMP,resources/DB.BMP,Door3,0.16125,-0.003333333,1,0,0,0.7765,optionRight,70,3205,2,17,0,17,0,1,,,,,,,,,,,,,,,,,,,,,,,,,,,,,,,,,,,,,,,
,,,,,,,,2023-08-24_08h10.52.291,HF_wild_card,2022.2.4,Win32,59.98080614,634d98bd566df98eb0e95314,64e63663dbcaf322d2eec8da,64e70269cbfa0cfac04f5ff8,,,,,,,ctch,resources/DP.BMP,resources/DB.BMP,Door3,0.234583333,-0.025555573,1,0,0,0.8487,optionRight,70,3275,2,18,0,18,0,1,,,,,,,,,,,,,,,,,,,,,,,,,,,,,,,,,,,,,,,
,,,,,,,,2023-08-24_08h10.52.291,HF_wild_card,2022.2.4,Win32,59.98080614,634d98bd566df98eb0e95314,64e63663dbcaf322d2eec8da,64e70269cbfa0cfac04f5ff8,,,,,,,decisionTrl,resources/DY.BMP,resources/DG.BMP,Door1,0.244583333,-0.041111145,1,0,0,0.8137,optionRight,30,3305,2,19,0,19,0,1,,,,,,,,,,,,,,,,,,,,,,,,,,,,,,,,,,,,,,,
,,,,,,,,2023-08-24_08h10.52.291,HF_wild_card,2022.2.4,Win32,59.98080614,634d98bd566df98eb0e95314,64e63663dbcaf322d2eec8da,64e70269cbfa0cfac04f5ff8,,,,,,,sngl,resources/DG.BMP,resources/Empty.png,Door1,-0.186527761,-0.016666667,1,0,0,0.8503,optionLeft,30,3335,2,20,0,20,0,1,,,,,,,,,,,,,,,,,,,,,,,,,,,,,,,,,,,,,,,
,,,,,,,,2023-08-24_08h10.52.291,HF_wild_card,2022.2.4,Win32,59.98080614,634d98bd566df98eb0e95314,64e63663dbcaf322d2eec8da,64e70269cbfa0cfac04f5ff8,,,,,,,ctch,resources/DG.BMP,resources/DR.BMP,Door4,0.192361145,0.024444427,1,0,0,1.1472,optionRight,60,3395,2,21,0,21,0,1,,,,,,,,,,,,,,,,,,,,,,,,,,,,,,,,,,,,,,,
,,,,,,,,2023-08-24_08h10.52.291,HF_wild_card,2022.2.4,Win32,59.98080614,634d98bd566df98eb0e95314,64e63663dbcaf322d2eec8da,64e70269cbfa0cfac04f5ff8,,,,,,,decisionTrl,resources/DP.BMP,resources/DY.BMP,Door2,-0.180972188,-0.044444478,1,0,0,0.9774,optionLeft,20,3415,2,22,0,22,0,1,,,,,,,,,,,,,,,,,,,,,,,,,,,,,,,,,,,,,,,
,,,,,,,,2023-08-24_08h10.52.291,HF_wild_card,2022.2.4,Win32,59.98080614,634d98bd566df98eb0e95314,64e63663dbcaf322d2eec8da,64e70269cbfa0cfac04f5ff8,,,,,,,sngl,resources/Empty.png,resources/DR.BMP,Door4,0.206805623,-0.013333333,1,0,0,1.0309,optionRight,80,3495,2,23,0,23,0,1,,,,,,,,,,,,,,,,,,,,,,,,,,,,,,,,,,,,,,,
,,,,,,,,2023-08-24_08h10.52.291,HF_wild_card,2022.2.4,Win32,59.98080614,634d98bd566df98eb0e95314,64e63663dbcaf322d2eec8da,64e70269cbfa0cfac04f5ff8,,,,,,,sngl,resources/DY.BMP,resources/Empty.png,WildCard_NonEx,-0.279861094,-0.037777812,1,0,0,0.9432,optionLeft,45,3540,2,24,0,24,0,1,,,,,,,,,,,,,,,,,,,,,,,,,,,,,,,,,,,,,,,
,,,,,,,,2023-08-24_08h10.52.291,HF_wild_card,2022.2.4,Win32,59.98080614,634d98bd566df98eb0e95314,64e63663dbcaf322d2eec8da,64e70269cbfa0cfac04f5ff8,,,,,,,decisionTrl,resources/DB.BMP,resources/DY.BMP,WildCard_NonEx,0.246805623,-0.015555573,1,0,0,0.827,optionRight,55,3595,2,25,0,25,0,1,,,,,,,,,,,,,,,,,,,,,,,,,,,,,,,,,,,,,,,
,,,,,,,,2023-08-24_08h10.52.291,HF_wild_card,2022.2.4,Win32,59.98080614,634d98bd566df98eb0e95314,64e63663dbcaf322d2eec8da,64e70269cbfa0cfac04f5ff8,,,,,,,decisionTrl,resources/DP.BMP,resources/DG.BMP,Door2,-0.185416667,-0.021111145,1,0,0,0.7442,optionLeft,40,3635,2,26,0,26,0,1,,,,,,,,,,,,,,,,,,,,,,,,,,,,,,,,,,,,,,,
,,,,,,,,2023-08-24_08h10.52.291,HF_wild_card,2022.2.4,Win32,59.98080614,634d98bd566df98eb0e95314,64e63663dbcaf322d2eec8da,64e70269cbfa0cfac04f5ff8,,,,,,,sngl,resources/Empty.png,resources/DB.BMP,Door3,0.182361145,-0.018888906,1,0,0,0.8766,optionRight,70,3705,2,27,0,27,0,1,,,,,,,,,,,,,,,,,,,,,,,,,,,,,,,,,,,,,,,
,,,,,,,,2023-08-24_08h10.52.291,HF_wild_card,2022.2.4,Win32,59.98080614,634d98bd566df98eb0e95314,64e63663dbcaf322d2eec8da,64e70269cbfa0cfac04f5ff8,,,,,,,sngl,resources/DY.BMP,resources/Empty.png,WildCard_NonEx,-0.137638855,-0.01,1,0,0,0.8321,optionLeft,55,3760,2,28,0,28,0,1,,,,,,,,,,,,,,,,,,,,,,,,,,,,,,,,,,,,,,,
,,,,,,,,2023-08-24_08h10.52.291,HF_wild_card,2022.2.4,Win32,59.98080614,634d98bd566df98eb0e95314,64e63663dbcaf322d2eec8da,64e70269cbfa0cfac04f5ff8,,,,,,,ctch,resources/DG.BMP,resources/DR.BMP,Door4,0.149027812,-0.02,1,0,0,0.8361,optionRight,60,3820,2,29,0,29,0,1,,,,,,,,,,,,,,,,,,,,,,,,,,,,,,,,,,,,,,,
,,,,,,,,2023-08-24_08h10.52.291,HF_wild_card,2022.2.4,Win32,59.98080614,634d98bd566df98eb0e95314,64e63663dbcaf322d2eec8da,64e70269cbfa0cfac04f5ff8,,,,,,,decisionTrl,resources/DY.BMP,resources/DR.BMP,WildCard_NonEx,-0.175416667,-0.005555573,1,0,0,1.0292,optionLeft,55,3875,2,30,0,30,0,1,,,,,,,,,,,,,,,,,,,,,,,,,,,,,,,,,,,,,,,
,,,,,,,,2023-08-24_08h10.52.291,HF_wild_card,2022.2.4,Win32,59.98080614,634d98bd566df98eb0e95314,64e63663dbcaf322d2eec8da,64e70269cbfa0cfac04f5ff8,,,,,,,decisionTrl,resources/DP.BMP,resources/DG.BMP,Door1,0.226805623,0.014444427,1,0,0,0.8096,optionRight,30,3905,2,31,0,31,0,1,,,,,,,,,,,,,,,,,,,,,,,,,,,,,,,,,,,,,,,
,,,,,,,,2023-08-24_08h10.52.291,HF_wild_card,2022.2.4,Win32,59.98080614,634d98bd566df98eb0e95314,64e63663dbcaf322d2eec8da,64e70269cbfa0cfac04f5ff8,,,,,,,decisionTrl,resources/DR.BMP,resources/DY.BMP,Door4,-0.167638855,-0.006666667,1,0,0,0.7976,optionLeft,80,3985,2,32,0,32,0,1,,,,,,,,,,,,,,,,,,,,,,,,,,,,,,,,,,,,,,,
,,,,,,,,2023-08-24_08h10.52.291,HF_wild_card,2022.2.4,Win32,59.98080614,634d98bd566df98eb0e95314,64e63663dbcaf322d2eec8da,64e70269cbfa0cfac04f5ff8,,,,,,,decisionTrl,resources/DB.BMP,resources/DR.BMP,Door4,0.195694478,0.01,1,0,0,0.7439,optionRight,60,4045,2,33,0,33,0,1,,,,,,,,,,,,,,,,,,,,,,,,,,,,,,,,,,,,,,,
,,,,,,,,2023-08-24_08h10.52.291,HF_wild_card,2022.2.4,Win32,59.98080614,634d98bd566df98eb0e95314,64e63663dbcaf322d2eec8da,64e70269cbfa0cfac04f5ff8,,,,,,,decisionTrl,resources/DB.BMP,resources/DR.BMP,Door3,-0.206527761,-0.025555573,1,0,0,0.7993,optionLeft,70,4115,2,34,0,34,0,1,,,,,,,,,,,,,,,,,,,,,,,,,,,,,,,,,,,,,,,
,,,,,,,,2023-08-24_08h10.52.291,HF_wild_card,2022.2.4,Win32,59.98080614,634d98bd566df98eb0e95314,64e63663dbcaf322d2eec8da,64e70269cbfa0cfac04f5ff8,,,,,,,decisionTrl,resources/DG.BMP,resources/DP.BMP,Door2,0.210138957,-0.043333333,1,0,0,0.8422,optionRight,20,4135,2,35,0,35,0,1,,,,,,,,,,,,,,,,,,,,,,,,,,,,,,,,,,,,,,,
,,,,,,,,2023-08-24_08h10.52.291,HF_wild_card,2022.2.4,Win32,59.98080614,634d98bd566df98eb0e95314,64e63663dbcaf322d2eec8da,64e70269cbfa0cfac04f5ff8,,,,,,,decisionTrl,resources/DP.BMP,resources/DG.BMP,Door2,-0.219861094,-0.017777812,1,0,0,0.78,optionLeft,40,4175,2,36,0,36,0,1,,,,,,,,,,,,,,,,,,,,,,,,,,,,,,,,,,,,,,,
,,,,,,,,2023-08-24_08h10.52.291,HF_wild_card,2022.2.4,Win32,59.98080614,634d98bd566df98eb0e95314,64e63663dbcaf322d2eec8da,64e70269cbfa0cfac04f5ff8,,,,,,,sngl,resources/DB.BMP,resources/Empty.png,Door3,-0.147638855,-0.026666667,1,0,0,1.064,optionLeft,70,4245,2,37,0,37,0,1,,,,,,,,,,,,,,,,,,,,,,,,,,,,,,,,,,,,,,,
,,,,,,,,2023-08-24_08h10.52.291,HF_wild_card,2022.2.4,Win32,59.98080614,634d98bd566df98eb0e95314,64e63663dbcaf322d2eec8da,64e70269cbfa0cfac04f5ff8,,,,,,,ctch,resources/DR.BMP,resources/DG.BMP,Door1,0.170138957,-0.002222239,1,0,0,0.9929,optionRight,30,4275,2,38,0,38,0,1,,,,,,,,,,,,,,,,,,,,,,,,,,,,,,,,,,,,,,,
,,,,,,,,2023-08-24_08h10.52.291,HF_wild_card,2022.2.4,Win32,59.98080614,634d98bd566df98eb0e95314,64e63663dbcaf322d2eec8da,64e70269cbfa0cfac04f5ff8,,,,,,,ctch,resources/DP.BMP,resources/DB.BMP,Door2,-0.144305522,0.003333333,1,0,0,0.8277,optionLeft,20,4295,2,39,0,39,0,1,,,,,,,,,,,,,,,,,,,,,,,,,,,,,,,,,,,,,,,
,,,,,,,,2023-08-24_08h10.52.291,HF_wild_card,2022.2.4,Win32,59.98080614,634d98bd566df98eb0e95314,64e63663dbcaf322d2eec8da,64e70269cbfa0cfac04f5ff8,,,,,,,decisionTrl,resources/DG.BMP,resources/DP.BMP,Door2,0.206805623,-0.053333333,1,0,0,0.7589,optionRight,40,4335,2,40,0,40,0,1,,,,,,,,,,,,,,,,,,,,,,,,,,,,,,,,,,,,,,,
,,,,,,,,2023-08-24_08h10.52.291,HF_wild_card,2022.2.4,Win32,59.98080614,634d98bd566df98eb0e95314,64e63663dbcaf322d2eec8da,64e70269cbfa0cfac04f5ff8,,,,,,,decisionTrl,resources/DY.BMP,resources/DP.BMP,Door2,0.209027812,-0.052222239,1,0,0,0.8101,optionRight,40,4375,2,41,0,41,0,1,,,,,,,,,,,,,,,,,,,,,,,,,,,,,,,,,,,,,,,
,,,,,,,,2023-08-24_08h10.52.291,HF_wild_card,2022.2.4,Win32,59.98080614,634d98bd566df98eb0e95314,64e63663dbcaf322d2eec8da,64e70269cbfa0cfac04f5ff8,,,,,,,ctch,resources/DB.BMP,resources/DP.BMP,Door3,-0.142083333,0.005555522,1,0,0,0.7597,optionLeft,70,4445,2,42,0,42,0,1,,,,,,,,,,,,,,,,,,,,,,,,,,,,,,,,,,,,,,,
,,,,,,,,2023-08-24_08h10.52.291,HF_wild_card,2022.2.4,Win32,59.98080614,634d98bd566df98eb0e95314,64e63663dbcaf322d2eec8da,64e70269cbfa0cfac04f5ff8,,,,,,,sngl,resources/Empty.png,resources/DY.BMP,WildCard_NonEx,0.284583333,-0.068888906,1,0,0,0.7791,optionRight,55,4500,2,43,0,43,0,1,,,,,,,,,,,,,,,,,,,,,,,,,,,,,,,,,,,,,,,
,,,,,,,,2023-08-24_08h10.52.291,HF_wild_card,2022.2.4,Win32,59.98080614,634d98bd566df98eb0e95314,64e63663dbcaf322d2eec8da,64e70269cbfa0cfac04f5ff8,,,,,,,,,,,,,,,,,,,,,,,,,,1,0,1,0,1,,,,,,,,,,,,,,,,,,,,,,,,,,,,,,,,,,
,,,,,,,,2023-08-24_08h10.52.291,HF_wild_card,2022.2.4,Win32,59.98080614,634d98bd566df98eb0e95314,64e63663dbcaf322d2eec8da,64e70269cbfa0cfac04f5ff8,,,,,,,decisionTrl,resources/DY.BMP,resources/DB.BMP,Door3,0.226805623,-0.081111145,1,0,0,1.9504,optionRight,70,4570,3,0,0,0,0,1,,,,,,,,,,,,,,,,,,,,,,,,,,,,,,,,,,,,,,,
,,,,,,,,2023-08-24_08h10.52.291,HF_wild_card,2022.2.4,Win32,59.98080614,634d98bd566df98eb0e95314,64e63663dbcaf322d2eec8da,64e70269cbfa0cfac04f5ff8,,,,,,,decisionTrl,resources/DY.BMP,resources/DR.BMP,WildCard_NonEx,-0.214305522,-0.068888906,1,0,0,2.0857,optionLeft,55,4625,3,1,0,1,0,1,,,,,,,,,,,,,,,,,,,,,,,,,,,,,,,,,,,,,,,
,,,,,,,,2023-08-24_08h10.52.291,HF_wild_card,2022.2.4,Win32,59.98080614,634d98bd566df98eb0e95314,64e63663dbcaf322d2eec8da,64e70269cbfa0cfac04f5ff8,,,,,,,ctch,resources/DR.BMP,resources/DG.BMP,Door1,0.252361145,-0.092222239,1,0,0,6.225,optionRight,30,4655,3,2,0,2,0,1,,,,,,,,,,,,,,,,,,,,,,,,,,,,,,,,,,,,,,,
,,,,,,,,2023-08-24_08h10.52.291,HF_wild_card,2022.2.4,Win32,59.98080614,634d98bd566df98eb0e95314,64e63663dbcaf322d2eec8da,64e70269cbfa0cfac04f5ff8,,,,,,,sngl,resources/DR.BMP,resources/Empty.png,Door4,-0.294305522,0.017777761,1,0,0,0.8944,optionLeft,80,4735,3,3,0,3,0,1,,,,,,,,,,,,,,,,,,,,,,,,,,,,,,,,,,,,,,,
,,,,,,,,2023-08-24_08h10.52.291,HF_wild_card,2022.2.4,Win32,59.98080614,634d98bd566df98eb0e95314,64e63663dbcaf322d2eec8da,64e70269cbfa0cfac04f5ff8,,,,,,,decisionTrl,resources/DR.BMP,resources/DY.BMP,Door4,-0.307638855,0.001111094,1,0,0,1.0143,optionLeft,80,4815,3,4,0,4,0,1,,,,,,,,,,,,,,,,,,,,,,,,,,,,,,,,,,,,,,,
,,,,,,,,2023-08-24_08h10.52.291,HF_wild_card,2022.2.4,Win32,59.98080614,634d98bd566df98eb0e95314,64e63663dbcaf322d2eec8da,64e70269cbfa0cfac04f5ff8,,,,,,,decisionTrl,resources/DG.BMP,resources/DP.BMP,Door2,0.374583333,-0.074444478,1,0,0,1.6895,optionRight,20,4835,3,5,0,5,0,1,,,,,,,,,,,,,,,,,,,,,,,,,,,,,,,,,,,,,,,
,,,,,,,,2023-08-24_08h10.52.291,HF_wild_card,2022.2.4,Win32,59.98080614,634d98bd566df98eb0e95314,64e63663dbcaf322d2eec8da,64e70269cbfa0cfac04f5ff8,,,,,,,ctch,resources/DB.BMP,resources/DP.BMP,Door3,-0.257638855,0.001111094,1,0,0,0.9265,optionLeft,70,4905,3,6,0,6,0,1,,,,,,,,,,,,,,,,,,,,,,,,,,,,,,,,,,,,,,,
,,,,,,,,2023-08-24_08h10.52.291,HF_wild_card,2022.2.4,Win32,59.98080614,634d98bd566df98eb0e95314,64e63663dbcaf322d2eec8da,64e70269cbfa0cfac04f5ff8,,,,,,,decisionTrl,resources/DB.BMP,resources/DR.BMP,Door3,-0.156527761,-0.025555573,1,0,0,1.6424,optionLeft,70,4975,3,7,0,7,0,1,,,,,,,,,,,,,,,,,,,,,,,,,,,,,,,,,,,,,,,
,,,,,,,,2023-08-24_08h10.52.291,HF_wild_card,2022.2.4,Win32,59.98080614,634d98bd566df98eb0e95314,64e63663dbcaf322d2eec8da,64e70269cbfa0cfac04f5ff8,,,,,,,decisionTrl,resources/DB.BMP,resources/DR.BMP,Door3,-0.21875,0.001111094,1,0,0,1.0276,optionLeft,70,5045,3,8,0,8,0,1,,,,,,,,,,,,,,,,,,,,,,,,,,,,,,,,,,,,,,,
,,,,,,,,2023-08-24_08h10.52.291,HF_wild_card,2022.2.4,Win32,59.98080614,634d98bd566df98eb0e95314,64e63663dbcaf322d2eec8da,64e70269cbfa0cfac04f5ff8,,,,,,,sngl,resources/DG.BMP,resources/Empty.png,Door1,-0.240972188,0.008888855,1,0,0,0.961,optionLeft,30,5075,3,9,0,9,0,1,,,,,,,,,,,,,,,,,,,,,,,,,,,,,,,,,,,,,,,
,,,,,,,,2023-08-24_08h10.52.291,HF_wild_card,2022.2.4,Win32,59.98080614,634d98bd566df98eb0e95314,64e63663dbcaf322d2eec8da,64e70269cbfa0cfac04f5ff8,,,,,,,decisionTrl,resources/DB.BMP,resources/DY.BMP,Door3,-0.276527761,-0.021111145,1,0,0,1.0605,optionLeft,70,5145,3,10,0,10,0,1,,,,,,,,,,,,,,,,,,,,,,,,,,,,,,,,,,,,,,,
,,,,,,,,2023-08-24_08h10.52.291,HF_wild_card,2022.2.4,Win32,59.98080614,634d98bd566df98eb0e95314,64e63663dbcaf322d2eec8da,64e70269cbfa0cfac04f5ff8,,,,,,,decisionTrl,resources/DY.BMP,resources/DP.BMP,Door2,0.15125,0.001111094,1,0,0,2.0688,optionRight,20,5165,3,11,0,11,0,1,,,,,,,,,,,,,,,,,,,,,,,,,,,,,,,,,,,,,,,
,,,,,,,,2023-08-24_08h10.52.291,HF_wild_card,2022.2.4,Win32,59.98080614,634d98bd566df98eb0e95314,64e63663dbcaf322d2eec8da,64e70269cbfa0cfac04f5ff8,,,,,,,decisionTrl,resources/DB.BMP,resources/DR.BMP,Door3,-0.17875,-0.008888906,1,0,0,0.8416,optionLeft,70,5235,3,12,0,12,0,1,,,,,,,,,,,,,,,,,,,,,,,,,,,,,,,,,,,,,,,
,,,,,,,,2023-08-24_08h10.52.291,HF_wild_card,2022.2.4,Win32,59.98080614,634d98bd566df98eb0e95314,64e63663dbcaf322d2eec8da,64e70269cbfa0cfac04f5ff8,,,,,,,sngl,resources/DY.BMP,resources/Empty.png,WildCard_NonEx,-0.206527761,-0.003333333,1,0,0,0.9016,optionLeft,45,5280,3,13,0,13,0,1,,,,,,,,,,,,,,,,,,,,,,,,,,,,,,,,,,,,,,,
,,,,,,,,2023-08-24_08h10.52.291,HF_wild_card,2022.2.4,Win32,59.98080614,634d98bd566df98eb0e95314,64e63663dbcaf322d2eec8da,64e70269cbfa0cfac04f5ff8,,,,,,,ctch,resources/DB.BMP,resources/DP.BMP,Door3,-0.244305522,-0.013333333,1,0,0,0.8949,optionLeft,70,5350,3,14,0,14,0,1,,,,,,,,,,,,,,,,,,,,,,,,,,,,,,,,,,,,,,,
,,,,,,,,2023-08-24_08h10.52.291,HF_wild_card,2022.2.4,Win32,59.98080614,634d98bd566df98eb0e95314,64e63663dbcaf322d2eec8da,64e70269cbfa0cfac04f5ff8,,,,,,,decisionTrl,resources/DG.BMP,resources/DY.BMP,Door1,-0.209861094,0.012222188,1,0,0,2.4176,optionLeft,30,5380,3,15,0,15,0,1,,,,,,,,,,,,,,,,,,,,,,,,,,,,,,,,,,,,,,,
,,,,,,,,2023-08-24_08h10.52.291,HF_wild_card,2022.2.4,Win32,59.98080614,634d98bd566df98eb0e95314,64e63663dbcaf322d2eec8da,64e70269cbfa0cfac04f5ff8,,,,,,,decisionTrl,resources/DR.BMP,resources/DB.BMP,Door3,0.316805623,0.026666667,1,0,0,1.1682,optionRight,70,5450,3,16,0,16,0,1,,,,,,,,,,,,,,,,,,,,,,,,,,,,,,,,,,,,,,,
,,,,,,,,2023-08-24_08h10.52.291,HF_wild_card,2022.2.4,Win32,59.98080614,634d98bd566df98eb0e95314,64e63663dbcaf322d2eec8da,64e70269cbfa0cfac04f5ff8,,,,,,,ctch,resources/DG.BMP,resources/DR.BMP,Door4,0.19347229,-0.04,1,0,0,1.776,optionRight,80,5530,3,17,0,17,0,1,,,,,,,,,,,,,,,,,,,,,,,,,,,,,,,,,,,,,,,
,,,,,,,,2023-08-24_08h10.52.291,HF_wild_card,2022.2.4,Win32,59.98080614,634d98bd566df98eb0e95314,64e63663dbcaf322d2eec8da,64e70269cbfa0cfac04f5ff8,,,,,,,decisionTrl,resources/DR.BMP,resources/DB.BMP,Door4,-0.21875,-0.015555573,1,0,0,0.942,optionLeft,80,5610,3,18,0,18,0,1,,,,,,,,,,,,,,,,,,,,,,,,,,,,,,,,,,,,,,,
,,,,,,,,2023-08-24_08h10.52.291,HF_wild_card,2022.2.4,Win32,59.98080614,634d98bd566df98eb0e95314,64e63663dbcaf322d2eec8da,64e70269cbfa0cfac04f5ff8,,,,,,,sngl,resources/Empty.png,resources/DP.BMP,Door2,0.210138957,-0.024444478,1,0,0,1.0774,optionRight,20,5630,3,19,0,19,0,1,,,,,,,,,,,,,,,,,,,,,,,,,,,,,,,,,,,,,,,
,,,,,,,,2023-08-24_08h10.52.291,HF_wild_card,2022.2.4,Win32,59.98080614,634d98bd566df98eb0e95314,64e63663dbcaf322d2eec8da,64e70269cbfa0cfac04f5ff8,,,,,,,sngl,resources/Empty.png,resources/DY.BMP,WildCard_NonEx,0.204583333,-0.034444478,1,0,0,1.0291,optionRight,55,5685,3,20,0,20,0,1,,,,,,,,,,,,,,,,,,,,,,,,,,,,,,,,,,,,,,,
,,,,,,,,2023-08-24_08h10.52.291,HF_wild_card,2022.2.4,Win32,59.98080614,634d98bd566df98eb0e95314,64e63663dbcaf322d2eec8da,64e70269cbfa0cfac04f5ff8,,,,,,,decisionTrl,resources/DP.BMP,resources/DG.BMP,Door2,-0.167638855,-0.001111145,1,0,0,2.2945,optionLeft,20,5705,3,21,0,21,0,1,,,,,,,,,,,,,,,,,,,,,,,,,,,,,,,,,,,,,,,
,,,,,,,,2023-08-24_08h10.52.291,HF_wild_card,2022.2.4,Win32,59.98080614,634d98bd566df98eb0e95314,64e63663dbcaf322d2eec8da,64e70269cbfa0cfac04f5ff8,,,,,,,sngl,resources/Empty.png,resources/DR.BMP,Door4,0.312361145,-0.028888906,1,0,0,0.9285,optionRight,60,5765,3,22,0,22,0,1,,,,,,,,,,,,,,,,,,,,,,,,,,,,,,,,,,,,,,,
,,,,,,,,2023-08-24_08h10.52.291,HF_wild_card,2022.2.4,Win32,59.98080614,634d98bd566df98eb0e95314,64e63663dbcaf322d2eec8da,64e70269cbfa0cfac04f5ff8,,,,,,,sngl,resources/Empty.png,resources/DB.BMP,Door3,0.345694478,0.002222188,1,0,0,0.8814,optionRight,70,5835,3,23,0,23,0,1,,,,,,,,,,,,,,,,,,,,,,,,,,,,,,,,,,,,,,,
,,,,,,,,2023-08-24_08h10.52.291,HF_wild_card,2022.2.4,Win32,59.98080614,634d98bd566df98eb0e95314,64e63663dbcaf322d2eec8da,64e70269cbfa0cfac04f5ff8,,,,,,,sngl,resources/DP.BMP,resources/Empty.png,Door2,-0.23875,-0.004444478,1,0,0,0.9777,optionLeft,40,5875,3,24,0,24,0,1,,,,,,,,,,,,,,,,,,,,,,,,,,,,,,,,,,,,,,,
,,,,,,,,2023-08-24_08h10.52.291,HF_wild_card,2022.2.4,Win32,59.98080614,634d98bd566df98eb0e95314,64e63663dbcaf322d2eec8da,64e70269cbfa0cfac04f5ff8,,,,,,,decisionTrl,resources/DP.BMP,resources/DY.BMP,WildCard_NonEx,0.257916667,-0.04,1,0,0,1.1471,optionRight,45,5920,3,25,0,25,0,1,,,,,,,,,,,,,,,,,,,,,,,,,,,,,,,,,,,,,,,
,,,,,,,,2023-08-24_08h10.52.291,HF_wild_card,2022.2.4,Win32,59.98080614,634d98bd566df98eb0e95314,64e63663dbcaf322d2eec8da,64e70269cbfa0cfac04f5ff8,,,,,,,decisionTrl,resources/DR.BMP,resources/DB.BMP,Door3,0.310138957,0.053333333,1,0,0,1.1394,optionRight,70,5990,3,26,0,26,0,1,,,,,,,,,,,,,,,,,,,,,,,,,,,,,,,,,,,,,,,
,,,,,,,,2023-08-24_08h10.52.291,HF_wild_card,2022.2.4,Win32,59.98080614,634d98bd566df98eb0e95314,64e63663dbcaf322d2eec8da,64e70269cbfa0cfac04f5ff8,,,,,,,sngl,resources/Empty.png,resources/DG.BMP,Door1,0.440138957,-0.028888906,1,0,0,1.0543,optionRight,30,6020,3,27,0,27,0,1,,,,,,,,,,,,,,,,,,,,,,,,,,,,,,,,,,,,,,,
,,,,,,,,2023-08-24_08h10.52.291,HF_wild_card,2022.2.4,Win32,59.98080614,634d98bd566df98eb0e95314,64e63663dbcaf322d2eec8da,64e70269cbfa0cfac04f5ff8,,,,,,,ctch,resources/DP.BMP,resources/DB.BMP,Door3,0.257916667,-0.045555573,1,0,0,1.4615,optionRight,70,6090,3,28,0,28,0,1,,,,,,,,,,,,,,,,,,,,,,,,,,,,,,,,,,,,,,,
,,,,,,,,2023-08-24_08h10.52.291,HF_wild_card,2022.2.4,Win32,59.98080614,634d98bd566df98eb0e95314,64e63663dbcaf322d2eec8da,64e70269cbfa0cfac04f5ff8,,,,,,,ctch,resources/DR.BMP,resources/DG.BMP,Door4,-0.176527761,-0.022222239,1,0,0,1.6271,optionLeft,60,6150,3,29,0,29,0,1,,,,,,,,,,,,,,,,,,,,,,,,,,,,,,,,,,,,,,,
,,,,,,,,2023-08-24_08h10.52.291,HF_wild_card,2022.2.4,Win32,59.98080614,634d98bd566df98eb0e95314,64e63663dbcaf322d2eec8da,64e70269cbfa0cfac04f5ff8,,,,,,,ctch,resources/DG.BMP,resources/DR.BMP,Door4,0.246805623,-0.02,1,0,0,1.6852,optionRight,80,6230,3,30,0,30,0,1,,,,,,,,,,,,,,,,,,,,,,,,,,,,,,,,,,,,,,,
,,,,,,,,2023-08-24_08h10.52.291,HF_wild_card,2022.2.4,Win32,59.98080614,634d98bd566df98eb0e95314,64e63663dbcaf322d2eec8da,64e70269cbfa0cfac04f5ff8,,,,,,,decisionTrl,resources/DR.BMP,resources/DB.BMP,Door3,0.194583333,-0.06,1,0,0,1.3285,optionRight,70,6300,3,31,0,31,0,1,,,,,,,,,,,,,,,,,,,,,,,,,,,,,,,,,,,,,,,
,,,,,,,,2023-08-24_08h10.52.291,HF_wild_card,2022.2.4,Win32,59.98080614,634d98bd566df98eb0e95314,64e63663dbcaf322d2eec8da,64e70269cbfa0cfac04f5ff8,,,,,,,decisionTrl,resources/DG.BMP,resources/DP.BMP,Door2,0.294583333,-0.041111145,1,0,0,2.2631,optionRight,40,6340,3,32,0,32,0,1,,,,,,,,,,,,,,,,,,,,,,,,,,,,,,,,,,,,,,,
,,,,,,,,2023-08-24_08h10.52.291,HF_wild_card,2022.2.4,Win32,59.98080614,634d98bd566df98eb0e95314,64e63663dbcaf322d2eec8da,64e70269cbfa0cfac04f5ff8,,,,,,,decisionTrl,resources/DG.BMP,resources/DP.BMP,Door1,-0.203194427,-0.018888906,1,0,0,1.0056,optionLeft,30,6370,3,33,0,33,0,1,,,,,,,,,,,,,,,,,,,,,,,,,,,,,,,,,,,,,,,
,,,,,,,,2023-08-24_08h10.52.291,HF_wild_card,2022.2.4,Win32,59.98080614,634d98bd566df98eb0e95314,64e63663dbcaf322d2eec8da,64e70269cbfa0cfac04f5ff8,,,,,,,decisionTrl,resources/DP.BMP,resources/DG.BMP,Door1,0.267916667,-0.003333333,1,0,0,1.8691,optionRight,30,6400,3,34,0,34,0,1,,,,,,,,,,,,,,,,,,,,,,,,,,,,,,,,,,,,,,,
,,,,,,,,2023-08-24_08h10.52.291,HF_wild_card,2022.2.4,Win32,59.98080614,634d98bd566df98eb0e95314,64e63663dbcaf322d2eec8da,64e70269cbfa0cfac04f5ff8,,,,,,,decisionTrl,resources/DG.BMP,resources/DP.BMP,Door2,0.300138957,0.022222188,1,0,0,1.0929,optionRight,20,6420,3,35,0,35,0,1,,,,,,,,,,,,,,,,,,,,,,,,,,,,,,,,,,,,,,,
,,,,,,,,2023-08-24_08h10.52.291,HF_wild_card,2022.2.4,Win32,59.98080614,634d98bd566df98eb0e95314,64e63663dbcaf322d2eec8da,64e70269cbfa0cfac04f5ff8,,,,,,,decisionTrl,resources/DB.BMP,resources/DR.BMP,Door4,0.312361145,-0.008888906,1,0,0,1.8107,optionRight,80,6500,3,36,0,36,0,1,,,,,,,,,,,,,,,,,,,,,,,,,,,,,,,,,,,,,,,
,,,,,,,,2023-08-24_08h10.52.291,HF_wild_card,2022.2.4,Win32,59.98080614,634d98bd566df98eb0e95314,64e63663dbcaf322d2eec8da,64e70269cbfa0cfac04f5ff8,,,,,,,decisionTrl,resources/DP.BMP,resources/DG.BMP,Door2,-0.170972188,-0.044444478,1,0,0,1.7878,optionLeft,20,6520,3,37,0,37,0,1,,,,,,,,,,,,,,,,,,,,,,,,,,,,,,,,,,,,,,,
,,,,,,,,2023-08-24_08h10.52.291,HF_wild_card,2022.2.4,Win32,59.98080614,634d98bd566df98eb0e95314,64e63663dbcaf322d2eec8da,64e70269cbfa0cfac04f5ff8,,,,,,,decisionTrl,resources/DP.BMP,resources/DG.BMP,Door1,0.276805623,-0.007777812,1,0,0,1.0092,optionRight,30,6550,3,38,0,38,0,1,,,,,,,,,,,,,,,,,,,,,,,,,,,,,,,,,,,,,,,
,,,,,,,,2023-08-24_08h10.52.291,HF_wild_card,2022.2.4,Win32,59.98080614,634d98bd566df98eb0e95314,64e63663dbcaf322d2eec8da,64e70269cbfa0cfac04f5ff8,,,,,,,ctch,resources/DP.BMP,resources/DB.BMP,Door3,0.23347229,-0.026666667,1,0,0,1.3982,optionRight,70,6620,3,39,0,39,0,1,,,,,,,,,,,,,,,,,,,,,,,,,,,,,,,,,,,,,,,
,,,,,,,,2023-08-24_08h10.52.291,HF_wild_card,2022.2.4,Win32,59.98080614,634d98bd566df98eb0e95314,64e63663dbcaf322d2eec8da,64e70269cbfa0cfac04f5ff8,,,,,,,sngl,resources/Empty.png,resources/DY.BMP,WildCard_NonEx,0.354583333,0.07,1,0,0,0.8436,optionRight,45,6665,3,40,0,40,0,1,,,,,,,,,,,,,,,,,,,,,,,,,,,,,,,,,,,,,,,
,,,,,,,,2023-08-24_08h10.52.291,HF_wild_card,2022.2.4,Win32,59.98080614,634d98bd566df98eb0e95314,64e63663dbcaf322d2eec8da,64e70269cbfa0cfac04f5ff8,,,,,,,sngl,resources/DY.BMP,resources/Empty.png,WildCard_NonEx,-0.233194427,0.022222188,1,0,0,0.8495,optionLeft,55,6720,3,41,0,41,0,1,,,,,,,,,,,,,,,,,,,,,,,,,,,,,,,,,,,,,,,
,,,,,,,,2023-08-24_08h10.52.291,HF_wild_card,2022.2.4,Win32,59.98080614,634d98bd566df98eb0e95314,64e63663dbcaf322d2eec8da,64e70269cbfa0cfac04f5ff8,,,,,,,decisionTrl,resources/DY.BMP,resources/DG.BMP,Door1,0.294583333,0.105555547,1,0,0,1.0269,optionRight,30,6750,3,42,0,42,0,1,,,,,,,,,,,,,,,,,,,,,,,,,,,,,,,,,,,,,,,
,,,,,,,,2023-08-24_08h10.52.291,HF_wild_card,2022.2.4,Win32,59.98080614,634d98bd566df98eb0e95314,64e63663dbcaf322d2eec8da,64e70269cbfa0cfac04f5ff8,,,,,,,sngl,resources/DB.BMP,resources/Empty.png,Door3,-0.264305522,0.003333333,1,0,0,0.7399,optionLeft,70,6820,3,43,0,43,0,1,,,,,,,,,,,,,,,,,,,,,,,,,,,,,,,,,,,,,,,
,,,,,,,,2023-08-24_08h10.52.291,HF_wild_card,2022.2.4,Win32,59.98080614,634d98bd566df98eb0e95314,64e63663dbcaf322d2eec8da,64e70269cbfa0cfac04f5ff8,,,,,,,,,,,,,,,,,,,,,,,,,,2,0,2,0,1,,,,,,,,,,,,,,,,,,,,,,,,,,,,,,,,,,
,,,,,,,,2023-08-24_08h10.52.291,HF_wild_card,2022.2.4,Win32,59.98080614,634d98bd566df98eb0e95314,64e63663dbcaf322d2eec8da,64e70269cbfa0cfac04f5ff8,,,,,,,decisionTrl,resources/DG.BMP,resources/DP.BMP,Door2,0.31347229,-0.038888906,1,0,0,1.9741,optionRight,40,6860,4,0,0,0,0,1,,,,,,,,,,,,,,,,,,,,,,,,,,,,,,,,,,,,,,,
,,,,,,,,2023-08-24_08h10.52.291,HF_wild_card,2022.2.4,Win32,59.98080614,634d98bd566df98eb0e95314,64e63663dbcaf322d2eec8da,64e70269cbfa0cfac04f5ff8,,,,,,,ctch,resources/DB.BMP,resources/DP.BMP,Door3,-0.272083333,-0.077777812,1,0,0,1.2558,optionLeft,70,6930,4,1,0,1,0,1,,,,,,,,,,,,,,,,,,,,,,,,,,,,,,,,,,,,,,,
,,,,,,,,2023-08-24_08h10.52.291,HF_wild_card,2022.2.4,Win32,59.98080614,634d98bd566df98eb0e95314,64e63663dbcaf322d2eec8da,64e70269cbfa0cfac04f5ff8,,,,,,,sngl,resources/Empty.png,resources/DR.BMP,Door4,0.234583333,0.013333333,1,0,0,0.9706,optionRight,80,7010,4,2,0,2,0,1,,,,,,,,,,,,,,,,,,,,,,,,,,,,,,,,,,,,,,,
,,,,,,,,2023-08-24_08h10.52.291,HF_wild_card,2022.2.4,Win32,59.98080614,634d98bd566df98eb0e95314,64e63663dbcaf322d2eec8da,64e70269cbfa0cfac04f5ff8,,,,,,,decisionTrl,resources/DBN.BMP,resources/DG.BMP,WildCard_Ex,-0.209861094,-0.015555573,1,0,0,4.2168,optionLeft,45,7055,4,3,0,3,0,1,,,,,,,,,,,,,,,,,,,,,,,,,,,,,,,,,,,,,,,
,,,,,,,,2023-08-24_08h10.52.291,HF_wild_card,2022.2.4,Win32,59.98080614,634d98bd566df98eb0e95314,64e63663dbcaf322d2eec8da,64e70269cbfa0cfac04f5ff8,,,,,,,decisionTrl,resources/DP.BMP,resources/DG.BMP,Door1,0.22125,0.012222188,1,0,0,1.9556,optionRight,30,7085,4,4,0,4,0,1,,,,,,,,,,,,,,,,,,,,,,,,,,,,,,,,,,,,,,,
,,,,,,,,2023-08-24_08h10.52.291,HF_wild_card,2022.2.4,Win32,59.98080614,634d98bd566df98eb0e95314,64e63663dbcaf322d2eec8da,64e70269cbfa0cfac04f5ff8,,,,,,,sngl,resources/DBN.BMP,resources/Empty.png,WildCard_Ex,-0.244305522,0.005555522,1,0,0,0.9215,optionLeft,55,7140,4,5,0,5,0,1,,,,,,,,,,,,,,,,,,,,,,,,,,,,,,,,,,,,,,,
,,,,,,,,2023-08-24_08h10.52.291,HF_wild_card,2022.2.4,Win32,59.98080614,634d98bd566df98eb0e95314,64e63663dbcaf322d2eec8da,64e70269cbfa0cfac04f5ff8,,,,,,,ctch,resources/DR.BMP,resources/DG.BMP,Door4,-0.282083333,-0.061111145,1,0,0,2.0602,optionLeft,80,7220,4,6,0,6,0,1,,,,,,,,,,,,,,,,,,,,,,,,,,,,,,,,,,,,,,,
,,,,,,,,2023-08-24_08h10.52.291,HF_wild_card,2022.2.4,Win32,59.98080614,634d98bd566df98eb0e95314,64e63663dbcaf322d2eec8da,64e70269cbfa0cfac04f5ff8,,,,,,,ctch,resources/DG.BMP,resources/DR.BMP,Door4,0.245694478,-0.005555573,1,0,0,1.5883,optionRight,80,7300,4,7,0,7,0,1,,,,,,,,,,,,,,,,,,,,,,,,,,,,,,,,,,,,,,,
,,,,,,,,2023-08-24_08h10.52.291,HF_wild_card,2022.2.4,Win32,59.98080614,634d98bd566df98eb0e95314,64e63663dbcaf322d2eec8da,64e70269cbfa0cfac04f5ff8,,,,,,,decisionTrl,resources/DG.BMP,resources/DP.BMP,Door2,0.247916667,0.022222188,1,0,0,3.1533,optionRight,20,7320,4,8,0,8,0,1,,,,,,,,,,,,,,,,,,,,,,,,,,,,,,,,,,,,,,,
,,,,,,,,2023-08-24_08h10.52.291,HF_wild_card,2022.2.4,Win32,59.98080614,634d98bd566df98eb0e95314,64e63663dbcaf322d2eec8da,64e70269cbfa0cfac04f5ff8,,,,,,,sngl,resources/Empty.png,resources/DB.BMP,Door3,0.32347229,0.076666667,1,0,0,0.9385,optionRight,70,7390,4,9,0,9,0,1,,,,,,,,,,,,,,,,,,,,,,,,,,,,,,,,,,,,,,,
,,,,,,,,2023-08-24_08h10.52.291,HF_wild_card,2022.2.4,Win32,59.98080614,634d98bd566df98eb0e95314,64e63663dbcaf322d2eec8da,64e70269cbfa0cfac04f5ff8,,,,,,,sngl,resources/DR.BMP,resources/Empty.png,Door4,-0.304305522,0.073333333,1,0,0,0.8962,optionLeft,60,7450,4,10,0,10,0,1,,,,,,,,,,,,,,,,,,,,,,,,,,,,,,,,,,,,,,,
,,,,,,,,2023-08-24_08h10.52.291,HF_wild_card,2022.2.4,Win32,59.98080614,634d98bd566df98eb0e95314,64e63663dbcaf322d2eec8da,64e70269cbfa0cfac04f5ff8,,,,,,,ctch,resources/DB.BMP,resources/DP.BMP,Door3,-0.134305522,-0.02,1,0,0,1.6807,optionLeft,70,7520,4,11,0,11,0,1,,,,,,,,,,,,,,,,,,,,,,,,,,,,,,,,,,,,,,,
,,,,,,,,2023-08-24_08h10.52.291,HF_wild_card,2022.2.4,Win32,59.98080614,634d98bd566df98eb0e95314,64e63663dbcaf322d2eec8da,64e70269cbfa0cfac04f5ff8,,,,,,,decisionTrl,resources/DB.BMP,resources/DR.BMP,Door3,-0.104305522,-0.005555573,1,0,0,1.993,optionLeft,70,7590,4,12,0,12,0,1,,,,,,,,,,,,,,,,,,,,,,,,,,,,,,,,,,,,,,,
,,,,,,,,2023-08-24_08h10.52.291,HF_wild_card,2022.2.4,Win32,59.98080614,634d98bd566df98eb0e95314,64e63663dbcaf322d2eec8da,64e70269cbfa0cfac04f5ff8,,,,,,,decisionTrl,resources/DG.BMP,resources/DP.BMP,Door2,0.285694478,0.042222188,1,0,0,4.3083,optionRight,20,7610,4,13,0,13,0,1,,,,,,,,,,,,,,,,,,,,,,,,,,,,,,,,,,,,,,,
,,,,,,,,2023-08-24_08h10.52.291,HF_wild_card,2022.2.4,Win32,59.98080614,634d98bd566df98eb0e95314,64e63663dbcaf322d2eec8da,64e70269cbfa0cfac04f5ff8,,,,,,,decisionTrl,resources/DG.BMP,resources/DBN.BMP,Door1,-0.250972188,0.023333333,1,0,0,0.8265,optionLeft,30,7640,4,14,0,14,0,1,,,,,,,,,,,,,,,,,,,,,,,,,,,,,,,,,,,,,,,
,,,,,,,,2023-08-24_08h10.52.291,HF_wild_card,2022.2.4,Win32,59.98080614,634d98bd566df98eb0e95314,64e63663dbcaf322d2eec8da,64e70269cbfa0cfac04f5ff8,,,,,,,decisionTrl,resources/DB.BMP,resources/DR.BMP,Door3,-0.277638855,-0.023333333,1,0,0,1.1065,optionLeft,70,7710,4,15,0,15,0,1,,,,,,,,,,,,,,,,,,,,,,,,,,,,,,,,,,,,,,,
,,,,,,,,2023-08-24_08h10.52.291,HF_wild_card,2022.2.4,Win32,59.98080614,634d98bd566df98eb0e95314,64e63663dbcaf322d2eec8da,64e70269cbfa0cfac04f5ff8,,,,,,,sngl,resources/Empty.png,resources/DBN.BMP,WildCard_Ex,0.200138957,0.005555522,1,0,0,1.0699,optionRight,55,7765,4,16,0,16,0,1,,,,,,,,,,,,,,,,,,,,,,,,,,,,,,,,,,,,,,,
,,,,,,,,2023-08-24_08h10.52.291,HF_wild_card,2022.2.4,Win32,59.98080614,634d98bd566df98eb0e95314,64e63663dbcaf322d2eec8da,64e70269cbfa0cfac04f5ff8,,,,,,,decisionTrl,resources/DR.BMP,resources/DB.BMP,Door3,0.215694478,0.042222188,1,0,0,1.3208,optionRight,70,7835,4,17,0,17,0,1,,,,,,,,,,,,,,,,,,,,,,,,,,,,,,,,,,,,,,,
,,,,,,,,2023-08-24_08h10.52.291,HF_wild_card,2022.2.4,Win32,59.98080614,634d98bd566df98eb0e95314,64e63663dbcaf322d2eec8da,64e70269cbfa0cfac04f5ff8,,,,,,,sngl,resources/Empty.png,resources/DBN.BMP,WildCard_Ex,0.262361145,0.048888855,1,0,0,0.9065,optionRight,45,7880,4,18,0,18,0,1,,,,,,,,,,,,,,,,,,,,,,,,,,,,,,,,,,,,,,,
,,,,,,,,2023-08-24_08h10.52.291,HF_wild_card,2022.2.4,Win32,59.98080614,634d98bd566df98eb0e95314,64e63663dbcaf322d2eec8da,64e70269cbfa0cfac04f5ff8,,,,,,,decisionTrl,resources/DR.BMP,resources/DB.BMP,Door3,0.212361145,0.043333333,1,0,0,1.2775,optionRight,70,7950,4,19,0,19,0,1,,,,,,,,,,,,,,,,,,,,,,,,,,,,,,,,,,,,,,,
,,,,,,,,2023-08-24_08h10.52.291,HF_wild_card,2022.2.4,Win32,59.98080614,634d98bd566df98eb0e95314,64e63663dbcaf322d2eec8da,64e70269cbfa0cfac04f5ff8,,,,,,,sngl,resources/DBN.BMP,resources/Empty.png,WildCard_Ex,-0.186527761,-0.004444478,1,0,0,0.9749,optionLeft,45,7995,4,20,0,20,0,1,,,,,,,,,,,,,,,,,,,,,,,,,,,,,,,,,,,,,,,
,,,,,,,,2023-08-24_08h10.52.291,HF_wild_card,2022.2.4,Win32,59.98080614,634d98bd566df98eb0e95314,64e63663dbcaf322d2eec8da,64e70269cbfa0cfac04f5ff8,,,,,,,decisionTrl,resources/DR.BMP,resources/DB.BMP,Door3,0.246805623,-0.016666667,1,0,0,1.1355,optionRight,70,8065,4,21,0,21,0,1,,,,,,,,,,,,,,,,,,,,,,,,,,,,,,,,,,,,,,,
,,,,,,,,2023-08-24_08h10.52.291,HF_wild_card,2022.2.4,Win32,59.98080614,634d98bd566df98eb0e95314,64e63663dbcaf322d2eec8da,64e70269cbfa0cfac04f5ff8,,,,,,,decisionTrl,resources/DBN.BMP,resources/DP.BMP,Door2,0.210138957,0.015555522,1,0,0,1.2134,optionRight,40,8105,4,22,0,22,0,1,,,,,,,,,,,,,,,,,,,,,,,,,,,,,,,,,,,,,,,
,,,,,,,,2023-08-24_08h10.52.291,HF_wild_card,2022.2.4,Win32,59.98080614,634d98bd566df98eb0e95314,64e63663dbcaf322d2eec8da,64e70269cbfa0cfac04f5ff8,,,,,,,decisionTrl,resources/DR.BMP,resources/DB.BMP,Door3,0.207916667,-0.038888906,1,0,0,1.2106,optionRight,70,8175,4,23,0,23,0,1,,,,,,,,,,,,,,,,,,,,,,,,,,,,,,,,,,,,,,,
,,,,,,,,2023-08-24_08h10.52.291,HF_wild_card,2022.2.4,Win32,59.98080614,634d98bd566df98eb0e95314,64e63663dbcaf322d2eec8da,64e70269cbfa0cfac04f5ff8,,,,,,,decisionTrl,resources/DP.BMP,resources/DBN.BMP,WildCard_Ex,0.297916667,0.131111094,1,0,0,2.3877,optionRight,45,8220,4,24,0,24,0,1,,,,,,,,,,,,,,,,,,,,,,,,,,,,,,,,,,,,,,,
,,,,,,,,2023-08-24_08h10.52.291,HF_wild_card,2022.2.4,Win32,59.98080614,634d98bd566df98eb0e95314,64e63663dbcaf322d2eec8da,64e70269cbfa0cfac04f5ff8,,,,,,,decisionTrl,resources/DP.BMP,resources/DG.BMP,Door1,0.289027812,0.068888855,1,0,0,2.7373,optionRight,30,8250,4,25,0,25,0,1,,,,,,,,,,,,,,,,,,,,,,,,,,,,,,,,,,,,,,,
,,,,,,,,2023-08-24_08h10.52.291,HF_wild_card,2022.2.4,Win32,59.98080614,634d98bd566df98eb0e95314,64e63663dbcaf322d2eec8da,64e70269cbfa0cfac04f5ff8,,,,,,,decisionTrl,resources/DB.BMP,resources/DBN.BMP,WildCard_Ex,0.229027812,-0.012222239,1,0,0,1.6841,optionRight,45,8295,4,26,0,26,0,1,,,,,,,,,,,,,,,,,,,,,,,,,,,,,,,,,,,,,,,
,,,,,,,,2023-08-24_08h10.52.291,HF_wild_card,2022.2.4,Win32,59.98080614,634d98bd566df98eb0e95314,64e63663dbcaf322d2eec8da,64e70269cbfa0cfac04f5ff8,,,,,,,sngl,resources/Empty.png,resources/DP.BMP,Door2,0.329027812,0.075555547,1,0,0,0.9299,optionRight,40,8335,4,27,0,27,0,1,,,,,,,,,,,,,,,,,,,,,,,,,,,,,,,,,,,,,,,
,,,,,,,,2023-08-24_08h10.52.291,HF_wild_card,2022.2.4,Win32,59.98080614,634d98bd566df98eb0e95314,64e63663dbcaf322d2eec8da,64e70269cbfa0cfac04f5ff8,,,,,,,ctch,resources/DP.BMP,resources/DB.BMP,Door3,0.356805623,0.016666667,1,0,0,0.961,optionRight,70,8405,4,28,0,28,0,1,,,,,,,,,,,,,,,,,,,,,,,,,,,,,,,,,,,,,,,
,,,,,,,,2023-08-24_08h10.52.291,HF_wild_card,2022.2.4,Win32,59.98080614,634d98bd566df98eb0e95314,64e63663dbcaf322d2eec8da,64e70269cbfa0cfac04f5ff8,,,,,,,decisionTrl,resources/DR.BMP,resources/DBN.BMP,WildCard_Ex,0.379027812,0.082222214,1,0,0,1.0779,optionRight,45,8450,4,29,0,29,0,1,,,,,,,,,,,,,,,,,,,,,,,,,,,,,,,,,,,,,,,
,,,,,,,,2023-08-24_08h10.52.291,HF_wild_card,2022.2.4,Win32,59.98080614,634d98bd566df98eb0e95314,64e63663dbcaf322d2eec8da,64e70269cbfa0cfac04f5ff8,,,,,,,ctch,resources/DR.BMP,resources/DG.BMP,Door4,-0.290972188,0.024444427,1,0,0,1.4022,optionLeft,60,8510,4,30,0,30,0,1,,,,,,,,,,,,,,,,,,,,,,,,,,,,,,,,,,,,,,,
,,,,,,,,2023-08-24_08h10.52.291,HF_wild_card,2022.2.4,Win32,59.98080614,634d98bd566df98eb0e95314,64e63663dbcaf322d2eec8da,64e70269cbfa0cfac04f5ff8,,,,,,,ctch,resources/DG.BMP,resources/DR.BMP,Door4,0.272361145,0.072222188,1,0,0,1.0293,optionRight,80,8590,4,31,0,31,0,1,,,,,,,,,,,,,,,,,,,,,,,,,,,,,,,,,,,,,,,
,,,,,,,,2023-08-24_08h10.52.291,HF_wild_card,2022.2.4,Win32,59.98080614,634d98bd566df98eb0e95314,64e63663dbcaf322d2eec8da,64e70269cbfa0cfac04f5ff8,,,,,,,decisionTrl,resources/DB.BMP,resources/DR.BMP,Door4,0.304583333,0.067777761,1,0,0,2.0152,optionRight,60,8650,4,32,0,32,0,1,,,,,,,,,,,,,,,,,,,,,,,,,,,,,,,,,,,,,,,
,,,,,,,,2023-08-24_08h10.52.291,HF_wild_card,2022.2.4,Win32,59.98080614,634d98bd566df98eb0e95314,64e63663dbcaf322d2eec8da,64e70269cbfa0cfac04f5ff8,,,,,,,decisionTrl,resources/DB.BMP,resources/DR.BMP,Door3,-0.290972188,0.087777761,1,0,0,1.4079,optionLeft,70,8720,4,33,0,33,0,1,,,,,,,,,,,,,,,,,,,,,,,,,,,,,,,,,,,,,,,
,,,,,,,,2023-08-24_08h10.52.291,HF_wild_card,2022.2.4,Win32,59.98080614,634d98bd566df98eb0e95314,64e63663dbcaf322d2eec8da,64e70269cbfa0cfac04f5ff8,,,,,,,decisionTrl,resources/DBN.BMP,resources/DR.BMP,Door4,0.177916667,-0.02,1,0,0,2.2876,optionRight,80,8800,4,34,0,34,0,1,,,,,,,,,,,,,,,,,,,,,,,,,,,,,,,,,,,,,,,
,,,,,,,,2023-08-24_08h10.52.291,HF_wild_card,2022.2.4,Win32,59.98080614,634d98bd566df98eb0e95314,64e63663dbcaf322d2eec8da,64e70269cbfa0cfac04f5ff8,,,,,,,sngl,resources/DP.BMP,resources/Empty.png,Door2,-0.279861094,-0.025555573,1,0,0,0.9375,optionLeft,20,8820,4,35,0,35,0,1,,,,,,,,,,,,,,,,,,,,,,,,,,,,,,,,,,,,,,,
,,,,,,,,2023-08-24_08h10.52.291,HF_wild_card,2022.2.4,Win32,59.98080614,634d98bd566df98eb0e95314,64e63663dbcaf322d2eec8da,64e70269cbfa0cfac04f5ff8,,,,,,,sngl,resources/DG.BMP,resources/Empty.png,Door1,-0.302083333,-0.054444478,1,0,0,0.8576,optionLeft,30,8850,4,36,0,36,0,1,,,,,,,,,,,,,,,,,,,,,,,,,,,,,,,,,,,,,,,
,,,,,,,,2023-08-24_08h10.52.291,HF_wild_card,2022.2.4,Win32,59.98080614,634d98bd566df98eb0e95314,64e63663dbcaf322d2eec8da,64e70269cbfa0cfac04f5ff8,,,,,,,decisionTrl,resources/DP.BMP,resources/DG.BMP,Door1,0.325694478,0.028888855,1,0,0,0.9442,optionRight,30,8880,4,37,0,37,0,1,,,,,,,,,,,,,,,,,,,,,,,,,,,,,,,,,,,,,,,
,,,,,,,,2023-08-24_08h10.52.291,HF_wild_card,2022.2.4,Win32,59.98080614,634d98bd566df98eb0e95314,64e63663dbcaf322d2eec8da,64e70269cbfa0cfac04f5ff8,,,,,,,decisionTrl,resources/DP.BMP,resources/DG.BMP,Door1,0.302361145,0.112222214,1,0,0,0.8065,optionRight,30,8910,4,38,0,38,0,1,,,,,,,,,,,,,,,,,,,,,,,,,,,,,,,,,,,,,,,
,,,,,,,,2023-08-24_08h10.52.291,HF_wild_card,2022.2.4,Win32,59.98080614,634d98bd566df98eb0e95314,64e63663dbcaf322d2eec8da,64e70269cbfa0cfac04f5ff8,,,,,,,sngl,resources/Empty.png,resources/DG.BMP,Door1,0.372361145,0.127777761,1,0,0,0.862,optionRight,30,8940,4,39,0,39,0,1,,,,,,,,,,,,,,,,,,,,,,,,,,,,,,,,,,,,,,,
,,,,,,,,2023-08-24_08h10.52.291,HF_wild_card,2022.2.4,Win32,59.98080614,634d98bd566df98eb0e95314,64e63663dbcaf322d2eec8da,64e70269cbfa0cfac04f5ff8,,,,,,,decisionTrl,resources/DBN.BMP,resources/DB.BMP,Door3,0.316805623,0.102222214,1,0,0,1.032,optionRight,70,9010,4,40,0,40,0,1,,,,,,,,,,,,,,,,,,,,,,,,,,,,,,,,,,,,,,,
,,,,,,,,2023-08-24_08h10.52.291,HF_wild_card,2022.2.4,Win32,59.98080614,634d98bd566df98eb0e95314,64e63663dbcaf322d2eec8da,64e70269cbfa0cfac04f5ff8,,,,,,,ctch,resources/DP.BMP,resources/DB.BMP,Door3,0.340138957,0.007777761,1,0,0,0.9528,optionRight,70,9080,4,41,0,41,0,1,,,,,,,,,,,,,,,,,,,,,,,,,,,,,,,,,,,,,,,
,,,,,,,,2023-08-24_08h10.52.291,HF_wild_card,2022.2.4,Win32,59.98080614,634d98bd566df98eb0e95314,64e63663dbcaf322d2eec8da,64e70269cbfa0cfac04f5ff8,,,,,,,sngl,resources/DB.BMP,resources/Empty.png,Door3,-0.245416667,0.005555522,1,0,0,0.9264,optionLeft,70,9150,4,42,0,42,0,1,,,,,,,,,,,,,,,,,,,,,,,,,,,,,,,,,,,,,,,
,,,,,,,,2023-08-24_08h10.52.291,HF_wild_card,2022.2.4,Win32,59.98080614,634d98bd566df98eb0e95314,64e63663dbcaf322d2eec8da,64e70269cbfa0cfac04f5ff8,,,,,,,decisionTrl,resources/DG.BMP,resources/DP.BMP,Door2,0.24125,0.013333333,1,0,0,2.3431,optionRight,20,9170,4,43,0,43,0,1,,,,,,,,,,,,,,,,,,,,,,,,,,,,,,,,,,,,,,,
,,,,,,,,2023-08-24_08h10.52.291,HF_wild_card,2022.2.4,Win32,59.98080614,634d98bd566df98eb0e95314,64e63663dbcaf322d2eec8da,64e70269cbfa0cfac04f5ff8,,,,,,,,,,,,,,,,,,,,,,,,,,3,0,3,0,1,,,,,,,,,,,,,,,,,,,,,,,,,,,,,,,,,,
,,,,,,,,2023-08-24_08h10.52.291,HF_wild_card,2022.2.4,Win32,59.98080614,634d98bd566df98eb0e95314,64e63663dbcaf322d2eec8da,64e70269cbfa0cfac04f5ff8,,,,,,,decisionTrl,resources/DBN.BMP,resources/DG.BMP,WildCard_Ex,-0.296527761,0.062222188,1,0,0,1.7415,optionLeft,55,9225,5,0,0,0,0,1,,,,,,,,,,,,,,,,,,,,,,,,,,,,,,,,,,,,,,,
,,,,,,,,2023-08-24_08h10.52.291,HF_wild_card,2022.2.4,Win32,59.98080614,634d98bd566df98eb0e95314,64e63663dbcaf322d2eec8da,64e70269cbfa0cfac04f5ff8,,,,,,,decisionTrl,resources/DBN.BMP,resources/DR.BMP,Door4,0.32125,-0.04,1,0,0,0.8854,optionRight,60,9285,5,1,0,1,0,1,,,,,,,,,,,,,,,,,,,,,,,,,,,,,,,,,,,,,,,
,,,,,,,,2023-08-24_08h10.52.291,HF_wild_card,2022.2.4,Win32,59.98080614,634d98bd566df98eb0e95314,64e63663dbcaf322d2eec8da,64e70269cbfa0cfac04f5ff8,,,,,,,ctch,resources/DG.BMP,resources/DR.BMP,Door4,0.23125,-0.027777812,1,0,0,1.1273,optionRight,60,9345,5,2,0,2,0,1,,,,,,,,,,,,,,,,,,,,,,,,,,,,,,,,,,,,,,,
,,,,,,,,2023-08-24_08h10.52.291,HF_wild_card,2022.2.4,Win32,59.98080614,634d98bd566df98eb0e95314,64e63663dbcaf322d2eec8da,64e70269cbfa0cfac04f5ff8,,,,,,,sngl,resources/Empty.png,resources/DR.BMP,Door4,0.290138957,0.035555522,1,0,0,0.9114,optionRight,60,9405,5,3,0,3,0,1,,,,,,,,,,,,,,,,,,,,,,,,,,,,,,,,,,,,,,,
,,,,,,,,2023-08-24_08h10.52.291,HF_wild_card,2022.2.4,Win32,59.98080614,634d98bd566df98eb0e95314,64e63663dbcaf322d2eec8da,64e70269cbfa0cfac04f5ff8,,,,,,,sngl,resources/Empty.png,resources/DBN.BMP,WildCard_Ex,0.187916667,-0.005555573,1,0,0,0.9769,optionRight,55,9460,5,4,0,4,0,1,,,,,,,,,,,,,,,,,,,,,,,,,,,,,,,,,,,,,,,
,,,,,,,,2023-08-24_08h10.52.291,HF_wild_card,2022.2.4,Win32,59.98080614,634d98bd566df98eb0e95314,64e63663dbcaf322d2eec8da,64e70269cbfa0cfac04f5ff8,,,,,,,decisionTrl,resources/DG.BMP,resources/DP.BMP,Door2,0.265694478,-0.016666667,1,0,0,0.9438,optionRight,40,9500,5,5,0,5,0,1,,,,,,,,,,,,,,,,,,,,,,,,,,,,,,,,,,,,,,,
,,,,,,,,2023-08-24_08h10.52.291,HF_wild_card,2022.2.4,Win32,59.98080614,634d98bd566df98eb0e95314,64e63663dbcaf322d2eec8da,64e70269cbfa0cfac04f5ff8,,,,,,,ctch,resources/DB.BMP,resources/DP.BMP,Door3,-0.189861094,-0.075555573,1,0,0,1.1978,optionLeft,70,9570,5,6,0,6,0,1,,,,,,,,,,,,,,,,,,,,,,,,,,,,,,,,,,,,,,,
,,,,,,,,2023-08-24_08h10.52.291,HF_wild_card,2022.2.4,Win32,59.98080614,634d98bd566df98eb0e95314,64e63663dbcaf322d2eec8da,64e70269cbfa0cfac04f5ff8,,,,,,,sngl,resources/DR.BMP,resources/Empty.png,Door4,-0.213194427,0.012222188,1,0,0,0.9802,optionLeft,80,9650,5,7,0,7,0,1,,,,,,,,,,,,,,,,,,,,,,,,,,,,,,,,,,,,,,,
,,,,,,,,2023-08-24_08h10.52.291,HF_wild_card,2022.2.4,Win32,59.98080614,634d98bd566df98eb0e95314,64e63663dbcaf322d2eec8da,64e70269cbfa0cfac04f5ff8,,,,,,,decisionTrl,resources/DBN.BMP,resources/DP.BMP,Door2,0.19125,-0.022222239,1,0,0,1.0421,optionRight,40,9690,5,8,0,8,0,1,,,,,,,,,,,,,,,,,,,,,,,,,,,,,,,,,,,,,,,
,,,,,,,,2023-08-24_08h10.52.291,HF_wild_card,2022.2.4,Win32,59.98080614,634d98bd566df98eb0e95314,64e63663dbcaf322d2eec8da,64e70269cbfa0cfac04f5ff8,,,,,,,decisionTrl,resources/DR.BMP,resources/DB.BMP,Door3,0.236805623,0.02,1,0,0,1.2686,optionRight,70,9760,5,9,0,9,0,1,,,,,,,,,,,,,,,,,,,,,,,,,,,,,,,,,,,,,,,
,,,,,,,,2023-08-24_08h10.52.291,HF_wild_card,2022.2.4,Win32,59.98080614,634d98bd566df98eb0e95314,64e63663dbcaf322d2eec8da,64e70269cbfa0cfac04f5ff8,,,,,,,decisionTrl,resources/DR.BMP,resources/DB.BMP,Door3,0.285694478,-0.015555573,1,0,0,2.1907,optionRight,70,9830,5,10,0,10,0,1,,,,,,,,,,,,,,,,,,,,,,,,,,,,,,,,,,,,,,,
,,,,,,,,2023-08-24_08h10.52.291,HF_wild_card,2022.2.4,Win32,59.98080614,634d98bd566df98eb0e95314,64e63663dbcaf322d2eec8da,64e70269cbfa0cfac04f5ff8,,,,,,,ctch,resources/DP.BMP,resources/DB.BMP,Door3,0.22125,-0.016666667,1,0,0,1.0589,optionRight,70,9900,5,11,0,11,0,1,,,,,,,,,,,,,,,,,,,,,,,,,,,,,,,,,,,,,,,
,,,,,,,,2023-08-24_08h10.52.291,HF_wild_card,2022.2.4,Win32,59.98080614,634d98bd566df98eb0e95314,64e63663dbcaf322d2eec8da,64e70269cbfa0cfac04f5ff8,,,,,,,decisionTrl,resources/DG.BMP,resources/DP.BMP,Door2,0.287916667,-0.012222239,1,0,0,1.1773,optionRight,20,9920,5,12,0,12,0,1,,,,,,,,,,,,,,,,,,,,,,,,,,,,,,,,,,,,,,,
,,,,,,,,2023-08-24_08h10.52.291,HF_wild_card,2022.2.4,Win32,59.98080614,634d98bd566df98eb0e95314,64e63663dbcaf322d2eec8da,64e70269cbfa0cfac04f5ff8,,,,,,,decisionTrl,resources/DP.BMP,resources/DG.BMP,Door1,0.264583333,0.02,1,0,0,1.1251,optionRight,30,9950,5,13,0,13,0,1,,,,,,,,,,,,,,,,,,,,,,,,,,,,,,,,,,,,,,,
,,,,,,,,2023-08-24_08h10.52.291,HF_wild_card,2022.2.4,Win32,59.98080614,634d98bd566df98eb0e95314,64e63663dbcaf322d2eec8da,64e70269cbfa0cfac04f5ff8,,,,,,,sngl,resources/Empty.png,resources/DBN.BMP,WildCard_Ex,0.180138957,-0.022222239,1,0,0,1.0479,optionRight,45,9995,5,14,0,14,0,1,,,,,,,,,,,,,,,,,,,,,,,,,,,,,,,,,,,,,,,
,,,,,,,,2023-08-24_08h10.52.291,HF_wild_card,2022.2.4,Win32,59.98080614,634d98bd566df98eb0e95314,64e63663dbcaf322d2eec8da,64e70269cbfa0cfac04f5ff8,,,,,,,decisionTrl,resources/DG.BMP,resources/DBN.BMP,Door1,-0.222083333,0.003333333,1,0,0,0.8445,optionLeft,30,10025,5,15,0,15,0,1,,,,,,,,,,,,,,,,,,,,,,,,,,,,,,,,,,,,,,,
,,,,,,,,2023-08-24_08h10.52.291,HF_wild_card,2022.2.4,Win32,59.98080614,634d98bd566df98eb0e95314,64e63663dbcaf322d2eec8da,64e70269cbfa0cfac04f5ff8,,,,,,,ctch,resources/DR.BMP,resources/DG.BMP,Door4,-0.272083333,-0.047777812,1,0,0,1.1439,optionLeft,80,10105,5,16,0,16,0,1,,,,,,,,,,,,,,,,,,,,,,,,,,,,,,,,,,,,,,,
,,,,,,,,2023-08-24_08h10.52.291,HF_wild_card,2022.2.4,Win32,59.98080614,634d98bd566df98eb0e95314,64e63663dbcaf322d2eec8da,64e70269cbfa0cfac04f5ff8,,,,,,,decisionTrl,resources/DB.BMP,resources/DR.BMP,Door3,-0.242083333,-0.075555573,1,0,0,1.5309,optionLeft,70,10175,5,17,0,17,0,1,,,,,,,,,,,,,,,,,,,,,,,,,,,,,,,,,,,,,,,
,,,,,,,,2023-08-24_08h10.52.291,HF_wild_card,2022.2.4,Win32,59.98080614,634d98bd566df98eb0e95314,64e63663dbcaf322d2eec8da,64e70269cbfa0cfac04f5ff8,,,,,,,decisionTrl,resources/DR.BMP,resources/DBN.BMP,Door4,-0.289861094,-0.025555573,1,0,0,1.5442,optionLeft,80,10255,5,18,0,18,0,1,,,,,,,,,,,,,,,,,,,,,,,,,,,,,,,,,,,,,,,
,,,,,,,,2023-08-24_08h10.52.291,HF_wild_card,2022.2.4,Win32,59.98080614,634d98bd566df98eb0e95314,64e63663dbcaf322d2eec8da,64e70269cbfa0cfac04f5ff8,,,,,,,decisionTrl,resources/DR.BMP,resources/DB.BMP,Door3,0.277916667,-0.004444478,1,0,0,0.9427,optionRight,70,10325,5,19,0,19,0,1,,,,,,,,,,,,,,,,,,,,,,,,,,,,,,,,,,,,,,,
,,,,,,,,2023-08-24_08h10.52.291,HF_wild_card,2022.2.4,Win32,59.98080614,634d98bd566df98eb0e95314,64e63663dbcaf322d2eec8da,64e70269cbfa0cfac04f5ff8,,,,,,,decisionTrl,resources/DP.BMP,resources/DBN.BMP,WildCard_Ex,0.22125,0.016666667,1,0,0,1.3939,optionRight,55,10380,5,20,0,20,0,1,,,,,,,,,,,,,,,,,,,,,,,,,,,,,,,,,,,,,,,
,,,,,,,,2023-08-24_08h10.52.291,HF_wild_card,2022.2.4,Win32,59.98080614,634d98bd566df98eb0e95314,64e63663dbcaf322d2eec8da,64e70269cbfa0cfac04f5ff8,,,,,,,sngl,resources/DB.BMP,resources/Empty.png,Door3,-0.235416667,-0.005555573,1,0,0,0.9098,optionLeft,70,10450,5,21,0,21,0,1,,,,,,,,,,,,,,,,,,,,,,,,,,,,,,,,,,,,,,,
,,,,,,,,2023-08-24_08h10.52.291,HF_wild_card,2022.2.4,Win32,59.98080614,634d98bd566df98eb0e95314,64e63663dbcaf322d2eec8da,64e70269cbfa0cfac04f5ff8,,,,,,,decisionTrl,resources/DP.BMP,resources/DG.BMP,Door1,0.235694478,-0.017777812,1,0,0,1.0008,optionRight,30,10480,5,22,0,22,0,1,,,,,,,,,,,,,,,,,,,,,,,,,,,,,,,,,,,,,,,
,,,,,,,,2023-08-24_08h10.52.291,HF_wild_card,2022.2.4,Win32,59.98080614,634d98bd566df98eb0e95314,64e63663dbcaf322d2eec8da,64e70269cbfa0cfac04f5ff8,,,,,,,decisionTrl,resources/DB.BMP,resources/DBN.BMP,Door3,-0.165416667,-0.02,1,0,0,1.0871,optionLeft,70,10550,5,23,0,23,0,1,,,,,,,,,,,,,,,,,,,,,,,,,,,,,,,,,,,,,,,
,,,,,,,,2023-08-24_08h10.52.291,HF_wild_card,2022.2.4,Win32,59.98080614,634d98bd566df98eb0e95314,64e63663dbcaf322d2eec8da,64e70269cbfa0cfac04f5ff8,,,,,,,ctch,resources/DP.BMP,resources/DB.BMP,Door3,0.276805623,-0.022222239,1,0,0,0.9218,optionRight,70,10620,5,24,0,24,0,1,,,,,,,,,,,,,,,,,,,,,,,,,,,,,,,,,,,,,,,
,,,,,,,,2023-08-24_08h10.52.291,HF_wild_card,2022.2.4,Win32,59.98080614,634d98bd566df98eb0e95314,64e63663dbcaf322d2eec8da,64e70269cbfa0cfac04f5ff8,,,,,,,ctch,resources/DB.BMP,resources/DP.BMP,Door3,-0.225416667,-0.001111145,1,0,0,0.9379,optionLeft,70,10690,5,25,0,25,0,1,,,,,,,,,,,,,,,,,,,,,,,,,,,,,,,,,,,,,,,
,,,,,,,,2023-08-24_08h10.52.291,HF_wild_card,2022.2.4,Win32,59.98080614,634d98bd566df98eb0e95314,64e63663dbcaf322d2eec8da,64e70269cbfa0cfac04f5ff8,,,,,,,sngl,resources/DBN.BMP,resources/Empty.png,WildCard_Ex,-0.234305522,-0.024444478,1,0,0,0.9967,optionLeft,45,10735,5,26,0,26,0,1,,,,,,,,,,,,,,,,,,,,,,,,,,,,,,,,,,,,,,,
,,,,,,,,2023-08-24_08h10.52.291,HF_wild_card,2022.2.4,Win32,59.98080614,634d98bd566df98eb0e95314,64e63663dbcaf322d2eec8da,64e70269cbfa0cfac04f5ff8,,,,,,,decisionTrl,resources/DR.BMP,resources/DB.BMP,Door4,-0.206527761,-0.038888906,1,0,0,1.3759,optionLeft,80,10815,5,27,0,27,0,1,,,,,,,,,,,,,,,,,,,,,,,,,,,,,,,,,,,,,,,
,,,,,,,,2023-08-24_08h10.52.291,HF_wild_card,2022.2.4,Win32,59.98080614,634d98bd566df98eb0e95314,64e63663dbcaf322d2eec8da,64e70269cbfa0cfac04f5ff8,,,,,,,ctch,resources/DG.BMP,resources/DR.BMP,Door4,0.249027812,-0.041111145,1,0,0,0.929,optionRight,60,10875,5,28,0,28,0,1,,,,,,,,,,,,,,,,,,,,,,,,,,,,,,,,,,,,,,,
,,,,,,,,2023-08-24_08h10.52.291,HF_wild_card,2022.2.4,Win32,59.98080614,634d98bd566df98eb0e95314,64e63663dbcaf322d2eec8da,64e70269cbfa0cfac04f5ff8,,,,,,,decisionTrl,resources/DB.BMP,resources/DR.BMP,Door3,-0.180972188,-0.024444478,1,0,0,0.8949,optionLeft,70,10945,5,29,0,29,0,1,,,,,,,,,,,,,,,,,,,,,,,,,,,,,,,,,,,,,,,
,,,,,,,,2023-08-24_08h10.52.291,HF_wild_card,2022.2.4,Win32,59.98080614,634d98bd566df98eb0e95314,64e63663dbcaf322d2eec8da,64e70269cbfa0cfac04f5ff8,,,,,,,decisionTrl,resources/DP.BMP,resources/DG.BMP,Door1,0.284583333,-0.022222239,1,0,0,0.9311,optionRight,30,10975,5,30,0,30,0,1,,,,,,,,,,,,,,,,,,,,,,,,,,,,,,,,,,,,,,,
,,,,,,,,2023-08-24_08h10.52.291,HF_wild_card,2022.2.4,Win32,59.98080614,634d98bd566df98eb0e95314,64e63663dbcaf322d2eec8da,64e70269cbfa0cfac04f5ff8,,,,,,,decisionTrl,resources/DB.BMP,resources/DR.BMP,Door3,-0.226527761,-0.006666667,1,0,0,0.842,optionLeft,70,11045,5,31,0,31,0,1,,,,,,,,,,,,,,,,,,,,,,,,,,,,,,,,,,,,,,,
,,,,,,,,2023-08-24_08h10.52.291,HF_wild_card,2022.2.4,Win32,59.98080614,634d98bd566df98eb0e95314,64e63663dbcaf322d2eec8da,64e70269cbfa0cfac04f5ff8,,,,,,,decisionTrl,resources/DP.BMP,resources/DG.BMP,Door1,0.164583333,-0.01,1,0,0,0.9789,optionRight,30,11075,5,32,0,32,0,1,,,,,,,,,,,,,,,,,,,,,,,,,,,,,,,,,,,,,,,
,,,,,,,,2023-08-24_08h10.52.291,HF_wild_card,2022.2.4,Win32,59.98080614,634d98bd566df98eb0e95314,64e63663dbcaf322d2eec8da,64e70269cbfa0cfac04f5ff8,,,,,,,sngl,resources/Empty.png,resources/DG.BMP,Door1,0.136805623,0.003333333,1,0,0,0.9261,optionRight,30,11105,5,33,0,33,0,1,,,,,,,,,,,,,,,,,,,,,,,,,,,,,,,,,,,,,,,
,,,,,,,,2023-08-24_08h10.52.291,HF_wild_card,2022.2.4,Win32,59.98080614,634d98bd566df98eb0e95314,64e63663dbcaf322d2eec8da,64e70269cbfa0cfac04f5ff8,,,,,,,sngl,resources/DBN.BMP,resources/Empty.png,WildCard_Ex,-0.250972188,0.008888855,1,0,0,0.8075,optionLeft,55,11160,5,34,0,34,0,1,,,,,,,,,,,,,,,,,,,,,,,,,,,,,,,,,,,,,,,
,,,,,,,,2023-08-24_08h10.52.291,HF_wild_card,2022.2.4,Win32,59.98080614,634d98bd566df98eb0e95314,64e63663dbcaf322d2eec8da,64e70269cbfa0cfac04f5ff8,,,,,,,ctch,resources/DR.BMP,resources/DG.BMP,Door4,-0.300972188,-0.088888906,1,0,0,1.244,optionLeft,60,11220,5,35,0,35,0,1,,,,,,,,,,,,,,,,,,,,,,,,,,,,,,,,,,,,,,,
,,,,,,,,2023-08-24_08h10.52.291,HF_wild_card,2022.2.4,Win32,59.98080614,634d98bd566df98eb0e95314,64e63663dbcaf322d2eec8da,64e70269cbfa0cfac04f5ff8,,,,,,,sngl,resources/DG.BMP,resources/Empty.png,Door1,-0.220972188,-0.002222239,1,0,0,0.9121,optionLeft,30,11250,5,36,0,36,0,1,,,,,,,,,,,,,,,,,,,,,,,,,,,,,,,,,,,,,,,
,,,,,,,,2023-08-24_08h10.52.291,HF_wild_card,2022.2.4,Win32,59.98080614,634d98bd566df98eb0e95314,64e63663dbcaf322d2eec8da,64e70269cbfa0cfac04f5ff8,,,,,,,sngl,resources/DP.BMP,resources/Empty.png,Door2,-0.235416667,-0.028888906,1,0,0,0.8945,optionLeft,40,11290,5,37,0,37,0,1,,,,,,,,,,,,,,,,,,,,,,,,,,,,,,,,,,,,,,,
,,,,,,,,2023-08-24_08h10.52.291,HF_wild_card,2022.2.4,Win32,59.98080614,634d98bd566df98eb0e95314,64e63663dbcaf322d2eec8da,64e70269cbfa0cfac04f5ff8,,,,,,,sngl,resources/Empty.png,resources/DB.BMP,Door3,0.195694478,-0.015555573,1,0,0,0.8778,optionRight,70,11360,5,38,0,38,0,1,,,,,,,,,,,,,,,,,,,,,,,,,,,,,,,,,,,,,,,
,,,,,,,,2023-08-24_08h10.52.291,HF_wild_card,2022.2.4,Win32,59.98080614,634d98bd566df98eb0e95314,64e63663dbcaf322d2eec8da,64e70269cbfa0cfac04f5ff8,,,,,,,decisionTrl,resources/DG.BMP,resources/DP.BMP,Door1,-0.284305522,0,1,0,0,1.0189,optionLeft,30,11390,5,39,0,39,0,1,,,,,,,,,,,,,,,,,,,,,,,,,,,,,,,,,,,,,,,
,,,,,,,,2023-08-24_08h10.52.291,HF_wild_card,2022.2.4,Win32,59.98080614,634d98bd566df98eb0e95314,64e63663dbcaf322d2eec8da,64e70269cbfa0cfac04f5ff8,,,,,,,decisionTrl,resources/DB.BMP,resources/DR.BMP,Door3,-0.299861094,-0.082222239,1,0,0,1.0512,optionLeft,70,11460,5,40,0,40,0,1,,,,,,,,,,,,,,,,,,,,,,,,,,,,,,,,,,,,,,,
,,,,,,,,2023-08-24_08h10.52.291,HF_wild_card,2022.2.4,Win32,59.98080614,634d98bd566df98eb0e95314,64e63663dbcaf322d2eec8da,64e70269cbfa0cfac04f5ff8,,,,,,,decisionTrl,resources/DBN.BMP,resources/DB.BMP,Door3,0.240138957,0.018888855,1,0,0,0.8313,optionRight,70,11530,5,41,0,41,0,1,,,,,,,,,,,,,,,,,,,,,,,,,,,,,,,,,,,,,,,
,,,,,,,,2023-08-24_08h10.52.291,HF_wild_card,2022.2.4,Win32,59.98080614,634d98bd566df98eb0e95314,64e63663dbcaf322d2eec8da,64e70269cbfa0cfac04f5ff8,,,,,,,decisionTrl,resources/DG.BMP,resources/DP.BMP,Door1,-0.22875,0.014444427,1,0,0,0.8105,optionLeft,30,11560,5,42,0,42,0,1,,,,,,,,,,,,,,,,,,,,,,,,,,,,,,,,,,,,,,,
,,,,,,,,2023-08-24_08h10.52.291,HF_wild_card,2022.2.4,Win32,59.98080614,634d98bd566df98eb0e95314,64e63663dbcaf322d2eec8da,64e70269cbfa0cfac04f5ff8,,,,,,,sngl,resources/Empty.png,resources/DP.BMP,Door2,0.21347229,-0.043333333,1,0,0,0.894,optionRight,20,11580,5,43,0,43,0,1,,,,,,,,,,,,,,,,,,,,,,,,,,,,,,,,,,,,,,,
,,,,,,,,2023-08-24_08h10.52.291,HF_wild_card,2022.2.4,Win32,59.98080614,634d98bd566df98eb0e95314,64e63663dbcaf322d2eec8da,64e70269cbfa0cfac04f5ff8,,,,,,,,,,,,,,,,,,,,,,,,,,4,0,4,0,1,,,,,,,,,,,,,,,,,,,,,,,,,,,,,,,,,,
,,,,,,,,2023-08-24_08h10.52.291,HF_wild_card,2022.2.4,Win32,59.98080614,634d98bd566df98eb0e95314,64e63663dbcaf322d2eec8da,64e70269cbfa0cfac04f5ff8,,,,,,,decisionTrl,resources/DG.BMP,resources/DP.BMP,Door1,-0.170972188,-0.122222239,1,0,0,1.0181,optionLeft,30,11610,6,0,0,0,0,1,,,,,,,,,,,,,,,,,,,,,,,,,,,,,,,,,,,,,,,
,,,,,,,,2023-08-24_08h10.52.291,HF_wild_card,2022.2.4,Win32,59.98080614,634d98bd566df98eb0e95314,64e63663dbcaf322d2eec8da,64e70269cbfa0cfac04f5ff8,,,,,,,sngl,resources/Empty.png,resources/DBN.BMP,WildCard_Ex,0.22347229,-0.003333333,1,0,0,0.7456,optionRight,45,11655,6,1,0,1,0,1,,,,,,,,,,,,,,,,,,,,,,,,,,,,,,,,,,,,,,,
,,,,,,,,2023-08-24_08h10.52.291,HF_wild_card,2022.2.4,Win32,59.98080614,634d98bd566df98eb0e95314,64e63663dbcaf322d2eec8da,64e70269cbfa0cfac04f5ff8,,,,,,,decisionTrl,resources/DP.BMP,resources/DG.BMP,Door2,-0.21875,0.006666667,1,0,0,0.78,optionLeft,20,11675,6,2,0,2,0,1,,,,,,,,,,,,,,,,,,,,,,,,,,,,,,,,,,,,,,,
,,,,,,,,2023-08-24_08h10.52.291,HF_wild_card,2022.2.4,Win32,59.98080614,634d98bd566df98eb0e95314,64e63663dbcaf322d2eec8da,64e70269cbfa0cfac04f5ff8,,,,,,,sngl,resources/DB.BMP,resources/Empty.png,Door3,-0.195416667,-0.014444478,1,0,0,0.9097,optionLeft,70,11745,6,3,0,3,0,1,,,,,,,,,,,,,,,,,,,,,,,,,,,,,,,,,,,,,,,
,,,,,,,,2023-08-24_08h10.52.291,HF_wild_card,2022.2.4,Win32,59.98080614,634d98bd566df98eb0e95314,64e63663dbcaf322d2eec8da,64e70269cbfa0cfac04f5ff8,,,,,,,ctch,resources/DG.BMP,resources/DR.BMP,Door4,0.315694478,-0.007777812,1,0,0,0.8095,optionRight,60,11805,6,4,0,4,0,1,,,,,,,,,,,,,,,,,,,,,,,,,,,,,,,,,,,,,,,
,,,,,,,,2023-08-24_08h10.52.291,HF_wild_card,2022.2.4,Win32,59.98080614,634d98bd566df98eb0e95314,64e63663dbcaf322d2eec8da,64e70269cbfa0cfac04f5ff8,,,,,,,ctch,resources/DP.BMP,resources/DB.BMP,Door3,0.142361145,-0.027777812,1,0,0,1.2776,optionRight,70,11875,6,5,0,5,0,1,,,,,,,,,,,,,,,,,,,,,,,,,,,,,,,,,,,,,,,
,,,,,,,,2023-08-24_08h10.52.291,HF_wild_card,2022.2.4,Win32,59.98080614,634d98bd566df98eb0e95314,64e63663dbcaf322d2eec8da,64e70269cbfa0cfac04f5ff8,,,,,,,decisionTrl,resources/DR.BMP,resources/DB.BMP,Door3,0.239027812,-0.004444478,1,0,0,0.9279,optionRight,70,11945,6,6,0,6,0,1,,,,,,,,,,,,,,,,,,,,,,,,,,,,,,,,,,,,,,,
,,,,,,,,2023-08-24_08h10.52.291,HF_wild_card,2022.2.4,Win32,59.98080614,634d98bd566df98eb0e95314,64e63663dbcaf322d2eec8da,64e70269cbfa0cfac04f5ff8,,,,,,,decisionTrl,resources/DBN.BMP,resources/DP.BMP,WildCard_Ex,-0.224305522,0,1,0,0,0.8104,optionLeft,45,11990,6,7,0,7,0,1,,,,,,,,,,,,,,,,,,,,,,,,,,,,,,,,,,,,,,,
,,,,,,,,2023-08-24_08h10.52.291,HF_wild_card,2022.2.4,Win32,59.98080614,634d98bd566df98eb0e95314,64e63663dbcaf322d2eec8da,64e70269cbfa0cfac04f5ff8,,,,,,,decisionTrl,resources/DBN.BMP,resources/DB.BMP,Door3,0.197916667,-0.002222239,1,0,0,0.8434,optionRight,70,12060,6,8,0,8,0,1,,,,,,,,,,,,,,,,,,,,,,,,,,,,,,,,,,,,,,,
,,,,,,,,2023-08-24_08h10.52.291,HF_wild_card,2022.2.4,Win32,59.98080614,634d98bd566df98eb0e95314,64e63663dbcaf322d2eec8da,64e70269cbfa0cfac04f5ff8,,,,,,,decisionTrl,resources/DG.BMP,resources/DP.BMP,Door1,-0.199861094,-0.013333333,1,0,0,0.8785,optionLeft,30,12090,6,9,0,9,0,1,,,,,,,,,,,,,,,,,,,,,,,,,,,,,,,,,,,,,,,
,,,,,,,,2023-08-24_08h10.52.291,HF_wild_card,2022.2.4,Win32,59.98080614,634d98bd566df98eb0e95314,64e63663dbcaf322d2eec8da,64e70269cbfa0cfac04f5ff8,,,,,,,decisionTrl,resources/DR.BMP,resources/DB.BMP,Door3,0.32347229,-0.021111145,1,0,0,0.7445,optionRight,70,12160,6,10,0,10,0,1,,,,,,,,,,,,,,,,,,,,,,,,,,,,,,,,,,,,,,,
,,,,,,,,2023-08-24_08h10.52.291,HF_wild_card,2022.2.4,Win32,59.98080614,634d98bd566df98eb0e95314,64e63663dbcaf322d2eec8da,64e70269cbfa0cfac04f5ff8,,,,,,,decisionTrl,resources/DP.BMP,resources/DG.BMP,Door1,0.174583333,0,1,0,0,1.3281,optionRight,30,12190,6,11,0,11,0,1,,,,,,,,,,,,,,,,,,,,,,,,,,,,,,,,,,,,,,,
,,,,,,,,2023-08-24_08h10.52.291,HF_wild_card,2022.2.4,Win32,59.98080614,634d98bd566df98eb0e95314,64e63663dbcaf322d2eec8da,64e70269cbfa0cfac04f5ff8,,,,,,,ctch,resources/DR.BMP,resources/DG.BMP,Door4,-0.164305522,0.011111094,1,0,0,0.7057,optionLeft,60,12250,6,12,0,12,0,1,,,,,,,,,,,,,,,,,,,,,,,,,,,,,,,,,,,,,,,
,,,,,,,,2023-08-24_08h10.52.291,HF_wild_card,2022.2.4,Win32,59.98080614,634d98bd566df98eb0e95314,64e63663dbcaf322d2eec8da,64e70269cbfa0cfac04f5ff8,,,,,,,ctch,resources/DG.BMP,resources/DR.BMP,Door4,0.235694478,-0.021111145,1,0,0,0.7828,optionRight,60,12310,6,13,0,13,0,1,,,,,,,,,,,,,,,,,,,,,,,,,,,,,,,,,,,,,,,
,,,,,,,,2023-08-24_08h10.52.291,HF_wild_card,2022.2.4,Win32,59.98080614,634d98bd566df98eb0e95314,64e63663dbcaf322d2eec8da,64e70269cbfa0cfac04f5ff8,,,,,,,decisionTrl,resources/DB.BMP,resources/DR.BMP,Door3,-0.174305522,0,1,0,0,0.711,optionLeft,70,12380,6,14,0,14,0,1,,,,,,,,,,,,,,,,,,,,,,,,,,,,,,,,,,,,,,,
,,,,,,,,2023-08-24_08h10.52.291,HF_wild_card,2022.2.4,Win32,59.98080614,634d98bd566df98eb0e95314,64e63663dbcaf322d2eec8da,64e70269cbfa0cfac04f5ff8,,,,,,,decisionTrl,resources/DG.BMP,resources/DP.BMP,Door2,0.27347229,-0.014444478,1,0,0,0.7469,optionRight,20,12400,6,15,0,15,0,1,,,,,,,,,,,,,,,,,,,,,,,,,,,,,,,,,,,,,,,
,,,,,,,,2023-08-24_08h10.52.291,HF_wild_card,2022.2.4,Win32,59.98080614,634d98bd566df98eb0e95314,64e63663dbcaf322d2eec8da,64e70269cbfa0cfac04f5ff8,,,,,,,ctch,resources/DR.BMP,resources/DG.BMP,Door4,-0.257638855,-0.014444478,1,0,0,0.794,optionLeft,60,12460,6,16,0,16,0,1,,,,,,,,,,,,,,,,,,,,,,,,,,,,,,,,,,,,,,,
,,,,,,,,2023-08-24_08h10.52.291,HF_wild_card,2022.2.4,Win32,59.98080614,634d98bd566df98eb0e95314,64e63663dbcaf322d2eec8da,64e70269cbfa0cfac04f5ff8,,,,,,,ctch,resources/DB.BMP,resources/DP.BMP,Door2,0.314583333,-0.018888906,1,0,0,0.7097,optionRight,20,12480,6,17,0,17,0,1,,,,,,,,,,,,,,,,,,,,,,,,,,,,,,,,,,,,,,,
,,,,,,,,2023-08-24_08h10.52.291,HF_wild_card,2022.2.4,Win32,59.98080614,634d98bd566df98eb0e95314,64e63663dbcaf322d2eec8da,64e70269cbfa0cfac04f5ff8,,,,,,,decisionTrl,resources/DG.BMP,resources/DP.BMP,Door1,-0.183194427,-0.025555573,1,0,0,0.6946,optionLeft,30,12510,6,18,0,18,0,1,,,,,,,,,,,,,,,,,,,,,,,,,,,,,,,,,,,,,,,
,,,,,,,,2023-08-24_08h10.52.291,HF_wild_card,2022.2.4,Win32,59.98080614,634d98bd566df98eb0e95314,64e63663dbcaf322d2eec8da,64e70269cbfa0cfac04f5ff8,,,,,,,decisionTrl,resources/DBN.BMP,resources/DR.BMP,Door4,0.387916667,0.017777761,1,0,0,0.8439,optionRight,60,12570,6,19,0,19,0,1,,,,,,,,,,,,,,,,,,,,,,,,,,,,,,,,,,,,,,,
,,,,,,,,2023-08-24_08h10.52.291,HF_wild_card,2022.2.4,Win32,59.98080614,634d98bd566df98eb0e95314,64e63663dbcaf322d2eec8da,64e70269cbfa0cfac04f5ff8,,,,,,,sngl,resources/Empty.png,resources/DR.BMP,Door4,0.136805623,0.017777761,1,0,0,0.8632,optionRight,80,12650,6,20,0,20,0,1,,,,,,,,,,,,,,,,,,,,,,,,,,,,,,,,,,,,,,,
,,,,,,,,2023-08-24_08h10.52.291,HF_wild_card,2022.2.4,Win32,59.98080614,634d98bd566df98eb0e95314,64e63663dbcaf322d2eec8da,64e70269cbfa0cfac04f5ff8,,,,,,,decisionTrl,resources/DR.BMP,resources/DB.BMP,Door3,0.199027812,-0.004444478,1,0,0,0.8774,optionRight,70,12720,6,21,0,21,0,1,,,,,,,,,,,,,,,,,,,,,,,,,,,,,,,,,,,,,,,
,,,,,,,,2023-08-24_08h10.52.291,HF_wild_card,2022.2.4,Win32,59.98080614,634d98bd566df98eb0e95314,64e63663dbcaf322d2eec8da,64e70269cbfa0cfac04f5ff8,,,,,,,sngl,resources/Empty.png,resources/DBN.BMP,WildCard_Ex,0.207916667,0.014444427,1,0,0,0.8658,optionRight,55,12775,6,22,0,22,0,1,,,,,,,,,,,,,,,,,,,,,,,,,,,,,,,,,,,,,,,
,,,,,,,,2023-08-24_08h10.52.291,HF_wild_card,2022.2.4,Win32,59.98080614,634d98bd566df98eb0e95314,64e63663dbcaf322d2eec8da,64e70269cbfa0cfac04f5ff8,,,,,,,sngl,resources/DG.BMP,resources/Empty.png,Door1,-0.187638855,-0.033333333,1,0,0,0.9103,optionLeft,30,12805,6,23,0,23,0,1,,,,,,,,,,,,,,,,,,,,,,,,,,,,,,,,,,,,,,,
,,,,,,,,2023-08-24_08h10.52.291,HF_wild_card,2022.2.4,Win32,59.98080614,634d98bd566df98eb0e95314,64e63663dbcaf322d2eec8da,64e70269cbfa0cfac04f5ff8,,,,,,,sngl,resources/DBN.BMP,resources/Empty.png,WildCard_Ex,-0.232083333,0.012222188,1,0,0,0.8121,optionLeft,55,12860,6,24,0,24,0,1,,,,,,,,,,,,,,,,,,,,,,,,,,,,,,,,,,,,,,,
,,,,,,,,2023-08-24_08h10.52.291,HF_wild_card,2022.2.4,Win32,59.98080614,634d98bd566df98eb0e95314,64e63663dbcaf322d2eec8da,64e70269cbfa0cfac04f5ff8,,,,,,,ctch,resources/DB.BMP,resources/DP.BMP,Door3,-0.156527761,-0.038888906,1,0,0,1.0269,optionLeft,70,12930,6,25,0,25,0,1,,,,,,,,,,,,,,,,,,,,,,,,,,,,,,,,,,,,,,,
,,,,,,,,2023-08-24_08h10.52.291,HF_wild_card,2022.2.4,Win32,59.98080614,634d98bd566df98eb0e95314,64e63663dbcaf322d2eec8da,64e70269cbfa0cfac04f5ff8,,,,,,,sngl,resources/DP.BMP,resources/Empty.png,Door2,-0.334305522,-0.034444478,1,0,0,0.8418,optionLeft,20,12950,6,26,0,26,0,1,,,,,,,,,,,,,,,,,,,,,,,,,,,,,,,,,,,,,,,
,,,,,,,,2023-08-24_08h10.52.291,HF_wild_card,2022.2.4,Win32,59.98080614,634d98bd566df98eb0e95314,64e63663dbcaf322d2eec8da,64e70269cbfa0cfac04f5ff8,,,,,,,sngl,resources/Empty.png,resources/DG.BMP,Door1,0.144583333,0.033333333,1,0,0,0.9297,optionRight,30,12980,6,27,0,27,0,1,,,,,,,,,,,,,,,,,,,,,,,,,,,,,,,,,,,,,,,
,,,,,,,,2023-08-24_08h10.52.291,HF_wild_card,2022.2.4,Win32,59.98080614,634d98bd566df98eb0e95314,64e63663dbcaf322d2eec8da,64e70269cbfa0cfac04f5ff8,,,,,,,decisionTrl,resources/DB.BMP,resources/DR.BMP,Door3,-0.159861094,-0.043333333,1,0,0,1.0776,optionLeft,70,13050,6,28,0,28,0,1,,,,,,,,,,,,,,,,,,,,,,,,,,,,,,,,,,,,,,,
,,,,,,,,2023-08-24_08h10.52.291,HF_wild_card,2022.2.4,Win32,59.98080614,634d98bd566df98eb0e95314,64e63663dbcaf322d2eec8da,64e70269cbfa0cfac04f5ff8,,,,,,,decisionTrl,resources/DB.BMP,resources/DBN.BMP,Door3,-0.206527761,0.025555522,1,0,0,0.9596,optionLeft,70,13120,6,29,0,29,0,1,,,,,,,,,,,,,,,,,,,,,,,,,,,,,,,,,,,,,,,
,,,,,,,,2023-08-24_08h10.52.291,HF_wild_card,2022.2.4,Win32,59.98080614,634d98bd566df98eb0e95314,64e63663dbcaf322d2eec8da,64e70269cbfa0cfac04f5ff8,,,,,,,decisionTrl,resources/DP.BMP,resources/DG.BMP,Door2,-0.236527761,0.032222188,1,0,0,0.9941,optionLeft,20,13140,6,30,0,30,0,1,,,,,,,,,,,,,,,,,,,,,,,,,,,,,,,,,,,,,,,
,,,,,,,,2023-08-24_08h10.52.291,HF_wild_card,2022.2.4,Win32,59.98080614,634d98bd566df98eb0e95314,64e63663dbcaf322d2eec8da,64e70269cbfa0cfac04f5ff8,,,,,,,sngl,resources/Empty.png,resources/DP.BMP,Door2,0.296805623,-0.021111145,1,0,0,0.7282,optionRight,40,13180,6,31,0,31,0,1,,,,,,,,,,,,,,,,,,,,,,,,,,,,,,,,,,,,,,,
,,,,,,,,2023-08-24_08h10.52.291,HF_wild_card,2022.2.4,Win32,59.98080614,634d98bd566df98eb0e95314,64e63663dbcaf322d2eec8da,64e70269cbfa0cfac04f5ff8,,,,,,,decisionTrl,resources/DP.BMP,resources/DG.BMP,Door1,0.149027812,-0.015555573,1,0,0,0.8677,optionRight,30,13210,6,32,0,32,0,1,,,,,,,,,,,,,,,,,,,,,,,,,,,,,,,,,,,,,,,
,,,,,,,,2023-08-24_08h10.52.291,HF_wild_card,2022.2.4,Win32,59.98080614,634d98bd566df98eb0e95314,64e63663dbcaf322d2eec8da,64e70269cbfa0cfac04f5ff8,,,,,,,decisionTrl,resources/DB.BMP,resources/DR.BMP,Door3,-0.234305522,-0.028888906,1,0,0,0.9629,optionLeft,70,13280,6,33,0,33,0,1,,,,,,,,,,,,,,,,,,,,,,,,,,,,,,,,,,,,,,,
,,,,,,,,2023-08-24_08h10.52.291,HF_wild_card,2022.2.4,Win32,59.98080614,634d98bd566df98eb0e95314,64e63663dbcaf322d2eec8da,64e70269cbfa0cfac04f5ff8,,,,,,,sngl,resources/DR.BMP,resources/Empty.png,Door4,-0.187638855,-0.043333333,1,0,0,0.9436,optionLeft,60,13340,6,34,0,34,0,1,,,,,,,,,,,,,,,,,,,,,,,,,,,,,,,,,,,,,,,
,,,,,,,,2023-08-24_08h10.52.291,HF_wild_card,2022.2.4,Win32,59.98080614,634d98bd566df98eb0e95314,64e63663dbcaf322d2eec8da,64e70269cbfa0cfac04f5ff8,,,,,,,decisionTrl,resources/DG.BMP,resources/DBN.BMP,WildCard_Ex,0.20125,-0.044444478,1,0,0,0.9263,optionRight,45,13385,6,35,0,35,0,1,,,,,,,,,,,,,,,,,,,,,,,,,,,,,,,,,,,,,,,
,,,,,,,,2023-08-24_08h10.52.291,HF_wild_card,2022.2.4,Win32,59.98080614,634d98bd566df98eb0e95314,64e63663dbcaf322d2eec8da,64e70269cbfa0cfac04f5ff8,,,,,,,decisionTrl,resources/DR.BMP,resources/DB.BMP,Door4,-0.215416667,-0.015555573,1,0,0,0.9323,optionLeft,60,13445,6,36,0,36,0,1,,,,,,,,,,,,,,,,,,,,,,,,,,,,,,,,,,,,,,,
,,,,,,,,2023-08-24_08h10.52.291,HF_wild_card,2022.2.4,Win32,59.98080614,634d98bd566df98eb0e95314,64e63663dbcaf322d2eec8da,64e70269cbfa0cfac04f5ff8,,,,,,,decisionTrl,resources/DP.BMP,resources/DBN.BMP,WildCard_Ex,0.215694478,0.006666667,1,0,0,0.7851,optionRight,55,13500,6,37,0,37,0,1,,,,,,,,,,,,,,,,,,,,,,,,,,,,,,,,,,,,,,,
,,,,,,,,2023-08-24_08h10.52.291,HF_wild_card,2022.2.4,Win32,59.98080614,634d98bd566df98eb0e95314,64e63663dbcaf322d2eec8da,64e70269cbfa0cfac04f5ff8,,,,,,,decisionTrl,resources/DBN.BMP,resources/DG.BMP,WildCard_Ex,-0.185416667,-0.004444478,1,0,0,0.8121,optionLeft,55,13555,6,38,0,38,0,1,,,,,,,,,,,,,,,,,,,,,,,,,,,,,,,,,,,,,,,
,,,,,,,,2023-08-24_08h10.52.291,HF_wild_card,2022.2.4,Win32,59.98080614,634d98bd566df98eb0e95314,64e63663dbcaf322d2eec8da,64e70269cbfa0cfac04f5ff8,,,,,,,ctch,resources/DP.BMP,resources/DB.BMP,Door3,0.240138957,-0.004444478,1,0,0,0.7976,optionRight,70,13625,6,39,0,39,0,1,,,,,,,,,,,,,,,,,,,,,,,,,,,,,,,,,,,,,,,
,,,,,,,,2023-08-24_08h10.52.291,HF_wild_card,2022.2.4,Win32,59.98080614,634d98bd566df98eb0e95314,64e63663dbcaf322d2eec8da,64e70269cbfa0cfac04f5ff8,,,,,,,decisionTrl,resources/DB.BMP,resources/DR.BMP,Door3,-0.16875,-0.072222239,1,0,0,1.3097,optionLeft,70,13695,6,40,0,40,0,1,,,,,,,,,,,,,,,,,,,,,,,,,,,,,,,,,,,,,,,
,,,,,,,,2023-08-24_08h10.52.291,HF_wild_card,2022.2.4,Win32,59.98080614,634d98bd566df98eb0e95314,64e63663dbcaf322d2eec8da,64e70269cbfa0cfac04f5ff8,,,,,,,sngl,resources/Empty.png,resources/DB.BMP,Door3,0.194583333,0.002222188,1,0,0,0.9624,optionRight,70,13765,6,41,0,41,0,1,,,,,,,,,,,,,,,,,,,,,,,,,,,,,,,,,,,,,,,
,,,,,,,,2023-08-24_08h10.52.291,HF_wild_card,2022.2.4,Win32,59.98080614,634d98bd566df98eb0e95314,64e63663dbcaf322d2eec8da,64e70269cbfa0cfac04f5ff8,,,,,,,decisionTrl,resources/DR.BMP,resources/DBN.BMP,Door4,-0.270972188,-0.013333333,1,0,0,1.0754,optionLeft,80,13845,6,42,0,42,0,1,,,,,,,,,,,,,,,,,,,,,,,,,,,,,,,,,,,,,,,
,,,,,,,,2023-08-24_08h10.52.291,HF_wild_card,2022.2.4,Win32,59.98080614,634d98bd566df98eb0e95314,64e63663dbcaf322d2eec8da,64e70269cbfa0cfac04f5ff8,,,,,,,sngl,resources/DBN.BMP,resources/Empty.png,WildCard_Ex,-0.216527761,-0.004444478,1,0,0,0.9162,optionLeft,45,13890,6,43,0,43,0,1,,,,,,,,,,,,,,,,,,,,,,,,,,,,,,,,,,,,,,,
,,,,,,,,2023-08-24_08h10.52.291,HF_wild_card,2022.2.4,Win32,59.98080614,634d98bd566df98eb0e95314,64e63663dbcaf322d2eec8da,64e70269cbfa0cfac04f5ff8,,,,,,,,,,,,,,,,,,,,,,,,,,5,0,5,0,1,,,,,,,,,,,,,,,,,,,,,,,,,,,,,,,,,,
,,,,,,,,2023-08-24_08h10.52.291,HF_wild_card,2022.2.4,Win32,59.98080614,634d98bd566df98eb0e95314,64e63663dbcaf322d2eec8da,64e70269cbfa0cfac04f5ff8,,,,,,,decisionTrl,resources/DR.BMP,resources/DB.BMP,Door3,0.21347229,-0.053333333,1,0,0,1.174,optionRight,70,13960,7,0,0,0,0,1,,,,,,,,,,,,,,,,,,,,,,,,,,,,,,,,,,,,,,,
,,,,,,,,2023-08-24_08h10.52.291,HF_wild_card,2022.2.4,Win32,59.98080614,634d98bd566df98eb0e95314,64e63663dbcaf322d2eec8da,64e70269cbfa0cfac04f5ff8,,,,,,,decisionTrl,resources/DP.BMP,resources/DG.BMP,Door2,-0.142083333,-0.051111145,1,0,0,2.0116,optionLeft,40,14000,7,1,0,1,0,1,,,,,,,,,,,,,,,,,,,,,,,,,,,,,,,,,,,,,,,
,,,,,,,,2023-08-24_08h10.52.291,HF_wild_card,2022.2.4,Win32,59.98080614,634d98bd566df98eb0e95314,64e63663dbcaf322d2eec8da,64e70269cbfa0cfac04f5ff8,,,,,,,decisionTrl,resources/DP.BMP,resources/DG.BMP,Door1,0.172361145,-0.002222239,1,0,0,1.1124,optionRight,30,14030,7,2,0,2,0,1,,,,,,,,,,,,,,,,,,,,,,,,,,,,,,,,,,,,,,,
,,,,,,,,2023-08-24_08h10.52.291,HF_wild_card,2022.2.4,Win32,59.98080614,634d98bd566df98eb0e95314,64e63663dbcaf322d2eec8da,64e70269cbfa0cfac04f5ff8,,,,,,,decisionTrl,resources/DB.BMP,resources/DR.BMP,Door3,-0.350972188,-0.018888906,1,0,0,0.9454,optionLeft,70,14100,7,3,0,3,0,1,,,,,,,,,,,,,,,,,,,,,,,,,,,,,,,,,,,,,,,
,,,,,,,,2023-08-24_08h10.52.291,HF_wild_card,2022.2.4,Win32,59.98080614,634d98bd566df98eb0e95314,64e63663dbcaf322d2eec8da,64e70269cbfa0cfac04f5ff8,,,,,,,decisionTrl,resources/DB.BMP,resources/DR.BMP,Door3,-0.243194427,-0.025555573,1,0,0,0.8124,optionLeft,70,14170,7,4,0,4,0,1,,,,,,,,,,,,,,,,,,,,,,,,,,,,,,,,,,,,,,,
,,,,,,,,2023-08-24_08h10.52.291,HF_wild_card,2022.2.4,Win32,59.98080614,634d98bd566df98eb0e95314,64e63663dbcaf322d2eec8da,64e70269cbfa0cfac04f5ff8,,,,,,,decisionTrl,resources/DG.BMP,resources/DP.BMP,Door2,0.250138957,-0.015555573,1,0,0,0.978,optionRight,20,14190,7,5,0,5,0,1,,,,,,,,,,,,,,,,,,,,,,,,,,,,,,,,,,,,,,,
,,,,,,,,2023-08-24_08h10.52.291,HF_wild_card,2022.2.4,Win32,59.98080614,634d98bd566df98eb0e95314,64e63663dbcaf322d2eec8da,64e70269cbfa0cfac04f5ff8,,,,,,,decisionTrl,resources/DG.BMP,resources/DP.BMP,Door1,-0.282083333,-0.01,1,0,0,1.0009,optionLeft,30,14220,7,6,0,6,0,1,,,,,,,,,,,,,,,,,,,,,,,,,,,,,,,,,,,,,,,
,,,,,,,,2023-08-24_08h10.52.291,HF_wild_card,2022.2.4,Win32,59.98080614,634d98bd566df98eb0e95314,64e63663dbcaf322d2eec8da,64e70269cbfa0cfac04f5ff8,,,,,,,decisionTrl,resources/DB.BMP,resources/DR.BMP,Door3,-0.269861094,-0.032222239,1,0,0,1.0786,optionLeft,70,14290,7,7,0,7,0,1,,,,,,,,,,,,,,,,,,,,,,,,,,,,,,,,,,,,,,,
,,,,,,,,2023-08-24_08h10.52.291,HF_wild_card,2022.2.4,Win32,59.98080614,634d98bd566df98eb0e95314,64e63663dbcaf322d2eec8da,64e70269cbfa0cfac04f5ff8,,,,,,,decisionTrl,resources/DB.BMP,resources/DR.BMP,Door3,-0.250972188,0,1,0,0,0.8632,optionLeft,70,14360,7,8,0,8,0,1,,,,,,,,,,,,,,,,,,,,,,,,,,,,,,,,,,,,,,,
,,,,,,,,2023-08-24_08h10.52.291,HF_wild_card,2022.2.4,Win32,59.98080614,634d98bd566df98eb0e95314,64e63663dbcaf322d2eec8da,64e70269cbfa0cfac04f5ff8,,,,,,,decisionTrl,resources/DR.BMP,resources/DB.BMP,Door3,0.292361145,0.043333333,1,0,0,0.9786,optionRight,70,14430,7,9,0,9,0,1,,,,,,,,,,,,,,,,,,,,,,,,,,,,,,,,,,,,,,,
,,,,,,,,2023-08-24_08h10.52.291,HF_wild_card,2022.2.4,Win32,59.98080614,634d98bd566df98eb0e95314,64e63663dbcaf322d2eec8da,64e70269cbfa0cfac04f5ff8,,,,,,,decisionTrl,resources/DB.BMP,resources/DR.BMP,Door3,-0.259861094,-0.011111145,1,0,0,0.9318,optionLeft,70,14500,7,10,0,10,0,1,,,,,,,,,,,,,,,,,,,,,,,,,,,,,,,,,,,,,,,
,,,,,,,,2023-08-24_08h10.52.291,HF_wild_card,2022.2.4,Win32,59.98080614,634d98bd566df98eb0e95314,64e63663dbcaf322d2eec8da,64e70269cbfa0cfac04f5ff8,,,,,,,ctch,resources/DR.BMP,resources/DG.BMP,Door4,-0.275416667,-0.052222239,1,0,0,1.0486,optionLeft,60,14560,7,11,0,11,0,1,,,,,,,,,,,,,,,,,,,,,,,,,,,,,,,,,,,,,,,
,,,,,,,,2023-08-24_08h10.52.291,HF_wild_card,2022.2.4,Win32,59.98080614,634d98bd566df98eb0e95314,64e63663dbcaf322d2eec8da,64e70269cbfa0cfac04f5ff8,,,,,,,decisionTrl,resources/DR.BMP,resources/DB.BMP,Door3,0.210138957,-0.002222239,1,0,0,0.829,optionRight,70,14630,7,12,0,12,0,1,,,,,,,,,,,,,,,,,,,,,,,,,,,,,,,,,,,,,,,
,,,,,,,,2023-08-24_08h10.52.291,HF_wild_card,2022.2.4,Win32,59.98080614,634d98bd566df98eb0e95314,64e63663dbcaf322d2eec8da,64e70269cbfa0cfac04f5ff8,,,,,,,decisionTrl,resources/DG.BMP,resources/DP.BMP,Door1,-0.254305522,0.002222188,1,0,0,0.8304,optionLeft,30,14660,7,13,0,13,0,1,,,,,,,,,,,,,,,,,,,,,,,,,,,,,,,,,,,,,,,
,,,,,,,,2023-08-24_08h10.52.291,HF_wild_card,2022.2.4,Win32,59.98080614,634d98bd566df98eb0e95314,64e63663dbcaf322d2eec8da,64e70269cbfa0cfac04f5ff8,,,,,,,ctch,resources/DG.BMP,resources/DR.BMP,Door4,0.285694478,-0.013333333,1,0,0,1.013,optionRight,60,14720,7,14,0,14,0,1,,,,,,,,,,,,,,,,,,,,,,,,,,,,,,,,,,,,,,,
,,,,,,,,2023-08-24_08h10.52.291,HF_wild_card,2022.2.4,Win32,59.98080614,634d98bd566df98eb0e95314,64e63663dbcaf322d2eec8da,64e70269cbfa0cfac04f5ff8,,,,,,,decisionTrl,resources/DP.BMP,resources/DG.BMP,Door2,-0.150972188,0.015555522,1,0,0,0.9461,optionLeft,40,14760,7,15,0,15,0,1,,,,,,,,,,,,,,,,,,,,,,,,,,,,,,,,,,,,,,,
,,,,,,,,2023-08-24_08h10.52.291,HF_wild_card,2022.2.4,Win32,59.98080614,634d98bd566df98eb0e95314,64e63663dbcaf322d2eec8da,64e70269cbfa0cfac04f5ff8,,,,,,,decisionTrl,resources/DP.BMP,resources/DG.BMP,Door1,0.259027812,0.005555522,1,0,0,0.9461,optionRight,30,14790,7,16,0,16,0,1,,,,,,,,,,,,,,,,,,,,,,,,,,,,,,,,,,,,,,,
,,,,,,,,2023-08-24_08h10.52.291,HF_wild_card,2022.2.4,Win32,59.98080614,634d98bd566df98eb0e95314,64e63663dbcaf322d2eec8da,64e70269cbfa0cfac04f5ff8,,,,,,,decisionTrl,resources/DR.BMP,resources/DB.BMP,Door4,-0.237638855,0.025555522,1,0,0,0.7993,optionLeft,80,14870,7,17,0,17,0,1,,,,,,,,,,,,,,,,,,,,,,,,,,,,,,,,,,,,,,,
,,,,,,,,2023-08-24_08h10.52.291,HF_wild_card,2022.2.4,Win32,59.98080614,634d98bd566df98eb0e95314,64e63663dbcaf322d2eec8da,64e70269cbfa0cfac04f5ff8,,,,,,,ctch,resources/DG.BMP,resources/DR.BMP,Door4,0.326805623,-0.006666667,1,0,0,0.7309,optionRight,80,14950,7,18,0,18,0,1,,,,,,,,,,,,,,,,,,,,,,,,,,,,,,,,,,,,,,,
,,,,,,,,2023-08-24_08h10.52.291,HF_wild_card,2022.2.4,Win32,59.98080614,634d98bd566df98eb0e95314,64e63663dbcaf322d2eec8da,64e70269cbfa0cfac04f5ff8,,,,,,,ctch,resources/DB.BMP,resources/DP.BMP,Door3,-0.240972188,0.002222188,1,0,0,0.8458,optionLeft,70,15020,7,19,0,19,0,1,,,,,,,,,,,,,,,,,,,,,,,,,,,,,,,,,,,,,,,
,,,,,,,,2023-08-24_08h10.52.291,HF_wild_card,2022.2.4,Win32,59.98080614,634d98bd566df98eb0e95314,64e63663dbcaf322d2eec8da,64e70269cbfa0cfac04f5ff8,,,,,,,decisionTrl,resources/DP.BMP,resources/DG.BMP,Door1,0.217916667,0.052222188,1,0,0,1.2121,optionRight,30,15050,7,20,0,20,0,1,,,,,,,,,,,,,,,,,,,,,,,,,,,,,,,,,,,,,,,
,,,,,,,,2023-08-24_08h10.52.291,HF_wild_card,2022.2.4,Win32,59.98080614,634d98bd566df98eb0e95314,64e63663dbcaf322d2eec8da,64e70269cbfa0cfac04f5ff8,,,,,,,decisionTrl,resources/DG.BMP,resources/DP.BMP,Door1,-0.222083333,0.038888855,1,0,0,0.8984,optionLeft,30,15080,7,21,0,21,0,1,,,,,,,,,,,,,,,,,,,,,,,,,,,,,,,,,,,,,,,
,,,,,,,,2023-08-24_08h10.52.291,HF_wild_card,2022.2.4,Win32,59.98080614,634d98bd566df98eb0e95314,64e63663dbcaf322d2eec8da,64e70269cbfa0cfac04f5ff8,,,,,,,ctch,resources/DP.BMP,resources/DB.BMP,Door3,0.174583333,-0.013333333,1,0,0,0.8617,optionRight,70,15150,7,22,0,22,0,1,,,,,,,,,,,,,,,,,,,,,,,,,,,,,,,,,,,,,,,
,,,,,,,,2023-08-24_08h10.52.291,HF_wild_card,2022.2.4,Win32,59.98080614,634d98bd566df98eb0e95314,64e63663dbcaf322d2eec8da,64e70269cbfa0cfac04f5ff8,,,,,,,decisionTrl,resources/DR.BMP,resources/DB.BMP,Door3,0.334583333,0.02,1,0,0,1.0944,optionRight,70,15220,7,23,0,23,0,1,,,,,,,,,,,,,,,,,,,,,,,,,,,,,,,,,,,,,,,
,,,,,,,,2023-08-24_08h10.52.291,HF_wild_card,2022.2.4,Win32,59.98080614,634d98bd566df98eb0e95314,64e63663dbcaf322d2eec8da,64e70269cbfa0cfac04f5ff8,,,,,,,decisionTrl,resources/DG.BMP,resources/DP.BMP,Door2,0.306805623,-0.002222239,1,0,0,0.9449,optionRight,40,15260,7,24,0,24,0,1,,,,,,,,,,,,,,,,,,,,,,,,,,,,,,,,,,,,,,,
,,,,,,,,2023-08-24_08h10.52.291,HF_wild_card,2022.2.4,Win32,59.98080614,634d98bd566df98eb0e95314,64e63663dbcaf322d2eec8da,64e70269cbfa0cfac04f5ff8,,,,,,,decisionTrl,resources/DB.BMP,resources/DR.BMP,Door3,-0.135416667,-0.012222239,1,0,0,1.0281,optionLeft,70,15330,7,25,0,25,0,1,,,,,,,,,,,,,,,,,,,,,,,,,,,,,,,,,,,,,,,
,,,,,,,,2023-08-24_08h10.52.291,HF_wild_card,2022.2.4,Win32,59.98080614,634d98bd566df98eb0e95314,64e63663dbcaf322d2eec8da,64e70269cbfa0cfac04f5ff8,,,,,,,decisionTrl,resources/DG.BMP,resources/DP.BMP,Door2,0.29347229,-0.004444478,1,0,0,0.9305,optionRight,40,15370,7,26,0,26,0,1,,,,,,,,,,,,,,,,,,,,,,,,,,,,,,,,,,,,,,,
,,,,,,,,2023-08-24_08h10.52.291,HF_wild_card,2022.2.4,Win32,59.98080614,634d98bd566df98eb0e95314,64e63663dbcaf322d2eec8da,64e70269cbfa0cfac04f5ff8,,,,,,,ctch,resources/DR.BMP,resources/DG.BMP,Door4,-0.163194427,0.005555522,1,0,0,0.8954,optionLeft,60,15430,7,27,0,27,0,1,,,,,,,,,,,,,,,,,,,,,,,,,,,,,,,,,,,,,,,
,,,,,,,,2023-08-24_08h10.52.291,HF_wild_card,2022.2.4,Win32,59.98080614,634d98bd566df98eb0e95314,64e63663dbcaf322d2eec8da,64e70269cbfa0cfac04f5ff8,,,,,,,decisionTrl,resources/DR.BMP,resources/DB.BMP,Door3,0.290138957,0.024444427,1,0,0,0.9948,optionRight,70,15500,7,28,0,28,0,1,,,,,,,,,,,,,,,,,,,,,,,,,,,,,,,,,,,,,,,
,,,,,,,,2023-08-24_08h10.52.291,HF_wild_card,2022.2.4,Win32,59.98080614,634d98bd566df98eb0e95314,64e63663dbcaf322d2eec8da,64e70269cbfa0cfac04f5ff8,,,,,,,ctch,resources/DG.BMP,resources/DR.BMP,Door4,0.29125,0.021111094,1,0,0,1.0283,optionRight,60,15560,7,29,0,29,0,1,,,,,,,,,,,,,,,,,,,,,,,,,,,,,,,,,,,,,,,
,,,,,,,,2023-08-24_08h10.52.291,HF_wild_card,2022.2.4,Win32,59.98080614,634d98bd566df98eb0e95314,64e63663dbcaf322d2eec8da,64e70269cbfa0cfac04f5ff8,,,,,,,ctch,resources/DB.BMP,resources/DP.BMP,Door3,-0.267638855,-0.038888906,1,0,0,1.0787,optionLeft,70,15630,7,30,0,30,0,1,,,,,,,,,,,,,,,,,,,,,,,,,,,,,,,,,,,,,,,
,,,,,,,,2023-08-24_08h10.52.291,HF_wild_card,2022.2.4,Win32,59.98080614,634d98bd566df98eb0e95314,64e63663dbcaf322d2eec8da,64e70269cbfa0cfac04f5ff8,,,,,,,ctch,resources/DP.BMP,resources/DB.BMP,Door3,0.226805623,-0.033333333,1,0,0,0.9117,optionRight,70,15700,7,31,0,31,0,1,,,,,,,,,,,,,,,,,,,,,,,,,,,,,,,,,,,,,,,
,,,,,,,,2023-08-24_08h10.52.291,HF_wild_card,2022.2.4,Win32,59.98080614,634d98bd566df98eb0e95314,64e63663dbcaf322d2eec8da,64e70269cbfa0cfac04f5ff8,,,,,,,ctch,resources/DR.BMP,resources/DG.BMP,Door4,-0.162083333,-0.012222239,1,0,0,1.0827,optionLeft,80,15780,7,32,0,32,0,1,,,,,,,,,,,,,,,,,,,,,,,,,,,,,,,,,,,,,,,
,,,,,,,,2023-08-24_08h10.52.291,HF_wild_card,2022.2.4,Win32,59.98080614,634d98bd566df98eb0e95314,64e63663dbcaf322d2eec8da,64e70269cbfa0cfac04f5ff8,,,,,,,ctch,resources/DP.BMP,resources/DB.BMP,Door3,0.25125,-0.004444478,1,0,0,0.8453,optionRight,70,15850,7,33,0,33,0,1,,,,,,,,,,,,,,,,,,,,,,,,,,,,,,,,,,,,,,,
,,,,,,,,2023-08-24_08h10.52.291,HF_wild_card,2022.2.4,Win32,59.98080614,634d98bd566df98eb0e95314,64e63663dbcaf322d2eec8da,64e70269cbfa0cfac04f5ff8,,,,,,,ctch,resources/DB.BMP,resources/DP.BMP,Door3,-0.279861094,0.023333333,1,0,0,1.0297,optionLeft,70,15920,7,34,0,34,0,1,,,,,,,,,,,,,,,,,,,,,,,,,,,,,,,,,,,,,,,
,,,,,,,,2023-08-24_08h10.52.291,HF_wild_card,2022.2.4,Win32,59.98080614,634d98bd566df98eb0e95314,64e63663dbcaf322d2eec8da,64e70269cbfa0cfac04f5ff8,,,,,,,decisionTrl,resources/DP.BMP,resources/DG.BMP,Door1,0.246805623,-0.021111145,1,0,0,0.9162,optionRight,30,15950,7,35,0,35,0,1,,,,,,,,,,,,,,,,,,,,,,,,,,,,,,,,,,,,,,,
,,,,,,,,2023-08-24_08h10.52.291,HF_wild_card,2022.2.4,Win32,59.98080614,634d98bd566df98eb0e95314,64e63663dbcaf322d2eec8da,64e70269cbfa0cfac04f5ff8,,,,,,,,,,,,,,,,,,,,,,,,,,6,0,6,0,1,,,,,,,,,,,,,,,,,,,,,,,,,,,,,,,,,,
,,,,,,,,2023-08-24_08h10.52.291,HF_wild_card,2022.2.4,Win32,59.98080614,634d98bd566df98eb0e95314,64e63663dbcaf322d2eec8da,64e70269cbfa0cfac04f5ff8,,,,,,,,,,,,,,,,,,,,,,,,,,,,,,,3,,,,,,,,,,,,,,,,,,,,,,,,,,,,,,,,,
,,,,,,,,2023-08-24_08h10.52.291,HF_wild_card,2022.2.4,Win32,59.98080614,634d98bd566df98eb0e95314,64e63663dbcaf322d2eec8da,64e70269cbfa0cfac04f5ff8,,,,,,,,,,,,,,,,,,,,,,,,,,,,,,,,,,,,,,,,,,,,,,,,,,,,,,,,,,,,,,,,
,,,,,,,,2023-08-24_08h10.52.291,HF_wild_card,2022.2.4,Win32,59.98080614,634d98bd566df98eb0e95314,64e63663dbcaf322d2eec8da,64e70269cbfa0cfac04f5ff8,,,,,,,,,,,,,,,,,,,,,,,,,,,,,,,,55,WC_extreme,resources/DBN.BMP,0,0,0,0,1,,,,,,,,,,,,,,,,,,,,,,,,,
,,,,,,,,2023-08-24_08h10.52.291,HF_wild_card,2022.2.4,Win32,59.98080614,634d98bd566df98eb0e95314,64e63663dbcaf322d2eec8da,64e70269cbfa0cfac04f5ff8,,,,,,,,,,,,,,,,,,,,,,,,,,,,,,,,30,Door1,resources/DG.BMP,1,0,1,0,1,,,,,,,,,,,,,,,,,,,,,,,,,
,,,,,,,,2023-08-24_08h10.52.291,HF_wild_card,2022.2.4,Win32,59.98080614,634d98bd566df98eb0e95314,64e63663dbcaf322d2eec8da,64e70269cbfa0cfac04f5ff8,,,,,,,,,,,,,,,,,,,,,,,,,,,,,,,,20,WC_nonExtreme,resources/DY.BMP,2,0,2,0,1,,,,,,,,,,,,,,,,,,,,,,,,,
,,,,,,,,2023-08-24_08h10.52.291,HF_wild_card,2022.2.4,Win32,59.98080614,634d98bd566df98eb0e95314,64e63663dbcaf322d2eec8da,64e70269cbfa0cfac04f5ff8,,,,,,,,,,,,,,,,,,,,,,,,,,,,,,,,45,Door2,resources/DP.BMP,3,0,3,0,1,,,,,,,,,,,,,,,,,,,,,,,,,
,,,,,,,,2023-08-24_08h10.52.291,HF_wild_card,2022.2.4,Win32,59.98080614,634d98bd566df98eb0e95314,64e63663dbcaf322d2eec8da,64e70269cbfa0cfac04f5ff8,,,,,,,,,,,,,,,,,,,,,,,,,,,,,,,,60,Door4,resources/DR.BMP,4,0,4,0,1,,,,,,,,,,,,,,,,,,,,,,,,,
,,,,,,,,2023-08-24_08h10.52.291,HF_wild_card,2022.2.4,Win32,59.98080614,634d98bd566df98eb0e95314,64e63663dbcaf322d2eec8da,64e70269cbfa0cfac04f5ff8,,,,,,,,,,,,,,,,,,,,,,,,,,,,,,,,70,Door3,resources/DB.BMP,5,0,5,0,1,,,,,,,,,,,,,,,,,,,,,,,,,
,,,,,,,,2023-08-24_08h10.52.291,HF_wild_card,2022.2.4,Win32,59.98080614,634d98bd566df98eb0e95314,64e63663dbcaf322d2eec8da,64e70269cbfa0cfac04f5ff8,,,,,,,,,,,,,,,,,,,,,,,,,,,,,,,,,,,,,,,,,,,,,,,,,,,,,,,,,,,,,,,,
,,,,,,,,2023-08-24_08h10.52.291,HF_wild_card,2022.2.4,Win32,59.98080614,634d98bd566df98eb0e95314,64e63663dbcaf322d2eec8da,64e70269cbfa0cfac04f5ff8,,,,,,,,,,,,,,,,,,,,,,,,,,,,,,,,,,,,,,,,0,0,0,0,1,,,,,,,,,,,,,,,,,,,,
