Condition,Low fixed image (Door1),Low risky image (Door2),High fixed image (Door3),High risky image (Door4),NonExtreme Wild Card 1,NonExtreme Wild Card 2,,date,expName,psychopyVersion,OS,frameRate,PROLIFIC_PID,STUDY_ID,SESSION_ID,mouse_2.x,mouse_2.y,mouse_2.leftButton,mouse_2.midButton,mouse_2.rightButton,mouse_2.clicked_name,Trial Type,Left Option Image,Right Option Image,Chosen Door,mouse.x,mouse.y,mouse.leftButton,mouse.midButton,mouse.rightButton,mouse.time,mouse.clicked_name,Feedback,Cumulative Reward,Block,trial.thisRepN,trial.thisTrialN,trial.thisN,trial.thisIndex,trial.ran,blocks.thisRepN,blocks.thisTrialN,blocks.thisN,blocks.thisIndex,blocks.ran,Money conversion,First Outcome Reported,Shown Door (First Outcome),Displayed Image (First Outcome),outcomes.thisRepN,outcomes.thisTrialN,outcomes.thisN,outcomes.thisIndex,outcomes.ran,judgments.thisRepN,judgments.thisTrialN,judgments.thisN,judgments.thisIndex,judgments.ran,freqMouse.x,freqMouse.y,freqMouse.leftButton,freqMouse.midButton,freqMouse.rightButton,freqMouse.clicked_name,FQJ for first outcome,FQJ for second outcome,Shown Door,Displayed Image,trials.thisRepN,trials.thisTrialN,trials.thisN,trials.thisIndex,trials.ran,judgBlock.thisRepN,judgBlock.thisTrialN,judgBlock.thisN,judgBlock.thisIndex,judgBlock.ran
2,resources/DB.BMP,resources/DP.BMP,resources/DBN.BMP,resources/DR.BMP,resources/DG.BMP,resources/DY.BMP,,2023-08-16_08h40.10.560,HF_wild_card,2022.2.4,Win32,60.14314067,640485331e13a7bfa4a43d46,64d2fd46c836a06233681665,64dc7d485c5711870ec86ce0,,,,,,,,,,,,,,,,,,,,,,,,,,,,,,,,,,,,,,,,,,,,,,,,,,,,,,,,,,,,,,,,
,,,,,,,,2023-08-16_08h40.10.560,HF_wild_card,2022.2.4,Win32,60.14314067,640485331e13a7bfa4a43d46,64d2fd46c836a06233681665,64dc7d485c5711870ec86ce0,-0.009259259,-0.417592578,1,0,0,agree,,,,,,,,,,,,,,,,,,,,,,,,,,,,,,,,,,,,,,,,,,,,,,,,,,,,,,,,,,
,,,,,,,,2023-08-16_08h40.10.560,HF_wild_card,2022.2.4,Win32,60.14314067,640485331e13a7bfa4a43d46,64d2fd46c836a06233681665,64dc7d485c5711870ec86ce0,,,,,,,,,,,,,,,,,,,,,,,,,,,,,,,,,,,,,,,,,,,,,,,,,,,,,,,,,,,,,,,,
,,,,,,,,2023-08-16_08h40.10.560,HF_wild_card,2022.2.4,Win32,60.14314067,640485331e13a7bfa4a43d46,64d2fd46c836a06233681665,64dc7d485c5711870ec86ce0,,,,,,,decisionTrl,resources/DBN.BMP,resources/DR.BMP,Door3,-0.297222208,-0.018518519,1,0,0,2.6673,optionLeft,70,70,1,0,0,0,0,1,,,,,,,,,,,,,,,,,,,,,,,,,,,,,,,,,,,,,,,
,,,,,,,,2023-08-16_08h40.10.560,HF_wild_card,2022.2.4,Win32,60.14314067,640485331e13a7bfa4a43d46,64d2fd46c836a06233681665,64dc7d485c5711870ec86ce0,,,,,,,decisionTrl,resources/DR.BMP,resources/DY.BMP,Door4,-0.234259217,0.013888889,1,0,0,2.374,optionLeft,60,130,1,1,0,1,0,1,,,,,,,,,,,,,,,,,,,,,,,,,,,,,,,,,,,,,,,
,,,,,,,,2023-08-16_08h40.10.560,HF_wild_card,2022.2.4,Win32,60.14314067,640485331e13a7bfa4a43d46,64d2fd46c836a06233681665,64dc7d485c5711870ec86ce0,,,,,,,decisionTrl,resources/DY.BMP,resources/DBN.BMP,WildCard_NonEx,-0.226851852,0.015740748,1,0,0,1.7923,optionLeft,45,175,1,2,0,2,0,1,,,,,,,,,,,,,,,,,,,,,,,,,,,,,,,,,,,,,,,
,,,,,,,,2023-08-16_08h40.10.560,HF_wild_card,2022.2.4,Win32,60.14314067,640485331e13a7bfa4a43d46,64d2fd46c836a06233681665,64dc7d485c5711870ec86ce0,,,,,,,sngl,resources/Empty.png,resources/DP.BMP,Door2,-0.355555534,-0.018518519,1,0,0,1.808,optionRight,20,195,1,3,0,3,0,1,,,,,,,,,,,,,,,,,,,,,,,,,,,,,,,,,,,,,,,
,,,,,,,,2023-08-16_08h40.10.560,HF_wild_card,2022.2.4,Win32,60.14314067,640485331e13a7bfa4a43d46,64d2fd46c836a06233681665,64dc7d485c5711870ec86ce0,,,,,,,decisionTrl,resources/DB.BMP,resources/DP.BMP,Door1,-0.400925919,0.0074074,1,0,0,1.4761,optionLeft,30,225,1,4,0,4,0,1,,,,,,,,,,,,,,,,,,,,,,,,,,,,,,,,,,,,,,,
,,,,,,,,2023-08-16_08h40.10.560,HF_wild_card,2022.2.4,Win32,60.14314067,640485331e13a7bfa4a43d46,64d2fd46c836a06233681665,64dc7d485c5711870ec86ce0,,,,,,,decisionTrl,resources/DP.BMP,resources/DY.BMP,WildCard_NonEx,0.246296282,0.009259259,1,0,0,1.5546,optionRight,45,270,1,5,0,5,0,1,,,,,,,,,,,,,,,,,,,,,,,,,,,,,,,,,,,,,,,
,,,,,,,,2023-08-16_08h40.10.560,HF_wild_card,2022.2.4,Win32,60.14314067,640485331e13a7bfa4a43d46,64d2fd46c836a06233681665,64dc7d485c5711870ec86ce0,,,,,,,sngl,resources/DY.BMP,resources/Empty.png,WildCard_NonEx,-0.237037023,0.009259259,1,0,0,1.278,optionLeft,55,325,1,6,0,6,0,1,,,,,,,,,,,,,,,,,,,,,,,,,,,,,,,,,,,,,,,
,,,,,,,,2023-08-16_08h40.10.560,HF_wild_card,2022.2.4,Win32,60.14314067,640485331e13a7bfa4a43d46,64d2fd46c836a06233681665,64dc7d485c5711870ec86ce0,,,,,,,decisionTrl,resources/DR.BMP,resources/DBN.BMP,Door3,0.231481481,0.005555541,1,0,0,0.9455,optionRight,70,395,1,7,0,7,0,1,,,,,,,,,,,,,,,,,,,,,,,,,,,,,,,,,,,,,,,
,,,,,,,,2023-08-16_08h40.10.560,HF_wild_card,2022.2.4,Win32,60.14314067,640485331e13a7bfa4a43d46,64d2fd46c836a06233681665,64dc7d485c5711870ec86ce0,,,,,,,decisionTrl,resources/DBN.BMP,resources/DR.BMP,Door3,-0.338888875,0.010185171,1,0,0,0.7627,optionLeft,70,465,1,8,0,8,0,1,,,,,,,,,,,,,,,,,,,,,,,,,,,,,,,,,,,,,,,
,,,,,,,,2023-08-16_08h40.10.560,HF_wild_card,2022.2.4,Win32,60.14314067,640485331e13a7bfa4a43d46,64d2fd46c836a06233681665,64dc7d485c5711870ec86ce0,,,,,,,decisionTrl,resources/DY.BMP,resources/DB.BMP,WildCard_NonEx,-0.241666653,-0.000925947,1,0,0,2.1579,optionLeft,45,510,1,9,0,9,0,1,,,,,,,,,,,,,,,,,,,,,,,,,,,,,,,,,,,,,,,
,,,,,,,,2023-08-16_08h40.10.560,HF_wild_card,2022.2.4,Win32,60.14314067,640485331e13a7bfa4a43d46,64d2fd46c836a06233681665,64dc7d485c5711870ec86ce0,,,,,,,ctch,resources/DBN.BMP,resources/DP.BMP,Door3,-0.266666624,0.0074074,1,0,0,0.8947,optionLeft,70,580,1,10,0,10,0,1,,,,,,,,,,,,,,,,,,,,,,,,,,,,,,,,,,,,,,,
,,,,,,,,2023-08-16_08h40.10.560,HF_wild_card,2022.2.4,Win32,60.14314067,640485331e13a7bfa4a43d46,64d2fd46c836a06233681665,64dc7d485c5711870ec86ce0,,,,,,,ctch,resources/DP.BMP,resources/DBN.BMP,Door3,0.173148191,0.01666666,1,0,0,0.7284,optionRight,70,650,1,11,0,11,0,1,,,,,,,,,,,,,,,,,,,,,,,,,,,,,,,,,,,,,,,
,,,,,,,,2023-08-16_08h40.10.560,HF_wild_card,2022.2.4,Win32,60.14314067,640485331e13a7bfa4a43d46,64d2fd46c836a06233681665,64dc7d485c5711870ec86ce0,,,,,,,sngl,resources/DBN.BMP,resources/Empty.png,Door3,-0.437037044,0.066666674,1,0,0,0.9444,optionLeft,70,720,1,12,0,12,0,1,,,,,,,,,,,,,,,,,,,,,,,,,,,,,,,,,,,,,,,
,,,,,,,,2023-08-16_08h40.10.560,HF_wild_card,2022.2.4,Win32,60.14314067,640485331e13a7bfa4a43d46,64d2fd46c836a06233681665,64dc7d485c5711870ec86ce0,,,,,,,ctch,resources/DB.BMP,resources/DR.BMP,Door4,0.293518561,0.015740748,1,0,0,2.5569,optionRight,80,800,1,13,0,13,0,1,,,,,,,,,,,,,,,,,,,,,,,,,,,,,,,,,,,,,,,
,,,,,,,,2023-08-16_08h40.10.560,HF_wild_card,2022.2.4,Win32,60.14314067,640485331e13a7bfa4a43d46,64d2fd46c836a06233681665,64dc7d485c5711870ec86ce0,,,,,,,sngl,resources/Empty.png,resources/DR.BMP,Door4,0.247222265,0.010185171,1,0,0,0.6513,optionRight,60,860,1,14,0,14,0,1,,,,,,,,,,,,,,,,,,,,,,,,,,,,,,,,,,,,,,,
,,,,,,,,2023-08-16_08h40.10.560,HF_wild_card,2022.2.4,Win32,60.14314067,640485331e13a7bfa4a43d46,64d2fd46c836a06233681665,64dc7d485c5711870ec86ce0,,,,,,,decisionTrl,resources/DY.BMP,resources/DP.BMP,WildCard_NonEx,-0.317592586,0.034259266,1,0,0,2.6575,optionLeft,55,915,1,15,0,15,0,1,,,,,,,,,,,,,,,,,,,,,,,,,,,,,,,,,,,,,,,
,,,,,,,,2023-08-16_08h40.10.560,HF_wild_card,2022.2.4,Win32,60.14314067,640485331e13a7bfa4a43d46,64d2fd46c836a06233681665,64dc7d485c5711870ec86ce0,,,,,,,sngl,resources/Empty.png,resources/DY.BMP,WildCard_NonEx,0.218518504,0.014814801,1,0,0,0.7627,optionRight,45,960,1,16,0,16,0,1,,,,,,,,,,,,,,,,,,,,,,,,,,,,,,,,,,,,,,,
,,,,,,,,2023-08-16_08h40.10.560,HF_wild_card,2022.2.4,Win32,60.14314067,640485331e13a7bfa4a43d46,64d2fd46c836a06233681665,64dc7d485c5711870ec86ce0,,,,,,,sngl,resources/Empty.png,resources/DY.BMP,WildCard_NonEx,0.280555584,0.010185171,1,0,0,0.6636,optionRight,55,1015,1,17,0,17,0,1,,,,,,,,,,,,,,,,,,,,,,,,,,,,,,,,,,,,,,,
,,,,,,,,2023-08-16_08h40.10.560,HF_wild_card,2022.2.4,Win32,60.14314067,640485331e13a7bfa4a43d46,64d2fd46c836a06233681665,64dc7d485c5711870ec86ce0,,,,,,,decisionTrl,resources/DY.BMP,resources/DR.BMP,Door4,0.212962963,0.01666666,1,0,0,2.1256,optionRight,80,1095,1,18,0,18,0,1,,,,,,,,,,,,,,,,,,,,,,,,,,,,,,,,,,,,,,,
,,,,,,,,2023-08-16_08h40.10.560,HF_wild_card,2022.2.4,Win32,60.14314067,640485331e13a7bfa4a43d46,64d2fd46c836a06233681665,64dc7d485c5711870ec86ce0,,,,,,,decisionTrl,resources/DP.BMP,resources/DB.BMP,Door1,0.319444444,-0.002777771,1,0,0,1.9927,optionRight,30,1125,1,19,0,19,0,1,,,,,,,,,,,,,,,,,,,,,,,,,,,,,,,,,,,,,,,
,,,,,,,,2023-08-16_08h40.10.560,HF_wild_card,2022.2.4,Win32,60.14314067,640485331e13a7bfa4a43d46,64d2fd46c836a06233681665,64dc7d485c5711870ec86ce0,,,,,,,decisionTrl,resources/DBN.BMP,resources/DY.BMP,Door3,-0.280555513,0.021296289,1,0,0,0.8122,optionLeft,70,1195,1,20,0,20,0,1,,,,,,,,,,,,,,,,,,,,,,,,,,,,,,,,,,,,,,,
,,,,,,,,2023-08-16_08h40.10.560,HF_wild_card,2022.2.4,Win32,60.14314067,640485331e13a7bfa4a43d46,64d2fd46c836a06233681665,64dc7d485c5711870ec86ce0,,,,,,,decisionTrl,resources/DBN.BMP,resources/DR.BMP,Door4,0.275000042,0.026851831,1,0,0,1.8434,optionRight,60,1255,1,21,0,21,0,1,,,,,,,,,,,,,,,,,,,,,,,,,,,,,,,,,,,,,,,
,,,,,,,,2023-08-16_08h40.10.560,HF_wild_card,2022.2.4,Win32,60.14314067,640485331e13a7bfa4a43d46,64d2fd46c836a06233681665,64dc7d485c5711870ec86ce0,,,,,,,decisionTrl,resources/DB.BMP,resources/DP.BMP,Door1,-0.306481467,0.017592571,1,0,0,1.2282,optionLeft,30,1285,1,22,0,22,0,1,,,,,,,,,,,,,,,,,,,,,,,,,,,,,,,,,,,,,,,
,,,,,,,,2023-08-16_08h40.10.560,HF_wild_card,2022.2.4,Win32,60.14314067,640485331e13a7bfa4a43d46,64d2fd46c836a06233681665,64dc7d485c5711870ec86ce0,,,,,,,ctch,resources/DR.BMP,resources/DB.BMP,Door4,-0.206481439,-0.001851859,1,0,0,1.4271,optionLeft,80,1365,1,23,0,23,0,1,,,,,,,,,,,,,,,,,,,,,,,,,,,,,,,,,,,,,,,
,,,,,,,,2023-08-16_08h40.10.560,HF_wild_card,2022.2.4,Win32,60.14314067,640485331e13a7bfa4a43d46,64d2fd46c836a06233681665,64dc7d485c5711870ec86ce0,,,,,,,decisionTrl,resources/DR.BMP,resources/DBN.BMP,Door4,-0.356481481,0.013888889,1,0,0,0.541,optionLeft,80,1445,1,24,0,24,0,1,,,,,,,,,,,,,,,,,,,,,,,,,,,,,,,,,,,,,,,
,,,,,,,,2023-08-16_08h40.10.560,HF_wild_card,2022.2.4,Win32,60.14314067,640485331e13a7bfa4a43d46,64d2fd46c836a06233681665,64dc7d485c5711870ec86ce0,,,,,,,sngl,resources/DR.BMP,resources/Empty.png,Door4,-0.265740712,0.00462963,1,0,0,0.6632,optionLeft,80,1525,1,25,0,25,0,1,,,,,,,,,,,,,,,,,,,,,,,,,,,,,,,,,,,,,,,
,,,,,,,,2023-08-16_08h40.10.560,HF_wild_card,2022.2.4,Win32,60.14314067,640485331e13a7bfa4a43d46,64d2fd46c836a06233681665,64dc7d485c5711870ec86ce0,,,,,,,sngl,resources/DY.BMP,resources/Empty.png,WildCard_NonEx,-0.242592564,0.005555541,1,0,0,1.0334,optionLeft,45,1570,1,26,0,26,0,1,,,,,,,,,,,,,,,,,,,,,,,,,,,,,,,,,,,,,,,
,,,,,,,,2023-08-16_08h40.10.560,HF_wild_card,2022.2.4,Win32,60.14314067,640485331e13a7bfa4a43d46,64d2fd46c836a06233681665,64dc7d485c5711870ec86ce0,,,,,,,decisionTrl,resources/DR.BMP,resources/DBN.BMP,Door4,-0.294444402,0.006481489,1,0,0,1.6224,optionLeft,60,1630,1,27,0,27,0,1,,,,,,,,,,,,,,,,,,,,,,,,,,,,,,,,,,,,,,,
,,,,,,,,2023-08-16_08h40.10.560,HF_wild_card,2022.2.4,Win32,60.14314067,640485331e13a7bfa4a43d46,64d2fd46c836a06233681665,64dc7d485c5711870ec86ce0,,,,,,,decisionTrl,resources/DR.BMP,resources/DBN.BMP,Door4,-0.287962949,0.01944443,1,0,0,0.7243,optionLeft,80,1710,1,28,0,28,0,1,,,,,,,,,,,,,,,,,,,,,,,,,,,,,,,,,,,,,,,
,,,,,,,,2023-08-16_08h40.10.560,HF_wild_card,2022.2.4,Win32,60.14314067,640485331e13a7bfa4a43d46,64d2fd46c836a06233681665,64dc7d485c5711870ec86ce0,,,,,,,decisionTrl,resources/DB.BMP,resources/DP.BMP,Door1,-0.212037051,-0.001851859,1,0,0,1.2947,optionLeft,30,1740,1,29,0,29,0,1,,,,,,,,,,,,,,,,,,,,,,,,,,,,,,,,,,,,,,,
,,,,,,,,2023-08-16_08h40.10.560,HF_wild_card,2022.2.4,Win32,60.14314067,640485331e13a7bfa4a43d46,64d2fd46c836a06233681665,64dc7d485c5711870ec86ce0,,,,,,,sngl,resources/DP.BMP,resources/Empty.png,Door2,-0.216666681,-0.0074074,1,0,0,0.7244,optionLeft,40,1780,1,30,0,30,0,1,,,,,,,,,,,,,,,,,,,,,,,,,,,,,,,,,,,,,,,
,,,,,,,,2023-08-16_08h40.10.560,HF_wild_card,2022.2.4,Win32,60.14314067,640485331e13a7bfa4a43d46,64d2fd46c836a06233681665,64dc7d485c5711870ec86ce0,,,,,,,decisionTrl,resources/DB.BMP,resources/DP.BMP,Door2,0.313888974,0.0074074,1,0,0,0.6299,optionRight,20,1800,1,31,0,31,0,1,,,,,,,,,,,,,,,,,,,,,,,,,,,,,,,,,,,,,,,
,,,,,,,,2023-08-16_08h40.10.560,HF_wild_card,2022.2.4,Win32,60.14314067,640485331e13a7bfa4a43d46,64d2fd46c836a06233681665,64dc7d485c5711870ec86ce0,,,,,,,decisionTrl,resources/DP.BMP,resources/DB.BMP,Door2,-0.312037044,-0.00462963,1,0,0,0.6137,optionLeft,40,1840,1,32,0,32,0,1,,,,,,,,,,,,,,,,,,,,,,,,,,,,,,,,,,,,,,,
,,,,,,,,2023-08-16_08h40.10.560,HF_wild_card,2022.2.4,Win32,60.14314067,640485331e13a7bfa4a43d46,64d2fd46c836a06233681665,64dc7d485c5711870ec86ce0,,,,,,,ctch,resources/DB.BMP,resources/DR.BMP,Door4,0.264814801,0.009259259,1,0,0,1.4883,optionRight,60,1900,1,33,0,33,0,1,,,,,,,,,,,,,,,,,,,,,,,,,,,,,,,,,,,,,,,
,,,,,,,,2023-08-16_08h40.10.560,HF_wild_card,2022.2.4,Win32,60.14314067,640485331e13a7bfa4a43d46,64d2fd46c836a06233681665,64dc7d485c5711870ec86ce0,,,,,,,sngl,resources/Empty.png,resources/DB.BMP,Door1,0.27407406,0.025925919,1,0,0,0.5466,optionRight,30,1930,1,34,0,34,0,1,,,,,,,,,,,,,,,,,,,,,,,,,,,,,,,,,,,,,,,
,,,,,,,,2023-08-16_08h40.10.560,HF_wild_card,2022.2.4,Win32,60.14314067,640485331e13a7bfa4a43d46,64d2fd46c836a06233681665,64dc7d485c5711870ec86ce0,,,,,,,sngl,resources/DB.BMP,resources/Empty.png,Door1,-0.305555556,0.012962942,1,0,0,0.6796,optionLeft,30,1960,1,35,0,35,0,1,,,,,,,,,,,,,,,,,,,,,,,,,,,,,,,,,,,,,,,
,,,,,,,,2023-08-16_08h40.10.560,HF_wild_card,2022.2.4,Win32,60.14314067,640485331e13a7bfa4a43d46,64d2fd46c836a06233681665,64dc7d485c5711870ec86ce0,,,,,,,decisionTrl,resources/DP.BMP,resources/DB.BMP,Door1,0.243518547,0.029629637,1,0,0,1.7981,optionRight,30,1990,1,36,0,36,0,1,,,,,,,,,,,,,,,,,,,,,,,,,,,,,,,,,,,,,,,
,,,,,,,,2023-08-16_08h40.10.560,HF_wild_card,2022.2.4,Win32,60.14314067,640485331e13a7bfa4a43d46,64d2fd46c836a06233681665,64dc7d485c5711870ec86ce0,,,,,,,decisionTrl,resources/DBN.BMP,resources/DR.BMP,Door4,0.292592578,0.001851859,1,0,0,0.9509,optionRight,60,2050,1,37,0,37,0,1,,,,,,,,,,,,,,,,,,,,,,,,,,,,,,,,,,,,,,,
,,,,,,,,2023-08-16_08h40.10.560,HF_wild_card,2022.2.4,Win32,60.14314067,640485331e13a7bfa4a43d46,64d2fd46c836a06233681665,64dc7d485c5711870ec86ce0,,,,,,,ctch,resources/DR.BMP,resources/DB.BMP,Door4,-0.264814801,0.002777771,1,0,0,0.79,optionLeft,80,2130,1,38,0,38,0,1,,,,,,,,,,,,,,,,,,,,,,,,,,,,,,,,,,,,,,,
,,,,,,,,2023-08-16_08h40.10.560,HF_wild_card,2022.2.4,Win32,60.14314067,640485331e13a7bfa4a43d46,64d2fd46c836a06233681665,64dc7d485c5711870ec86ce0,,,,,,,ctch,resources/DP.BMP,resources/DBN.BMP,Door3,0.315740797,0.027777778,1,0,0,0.6801,optionRight,70,2200,1,39,0,39,0,1,,,,,,,,,,,,,,,,,,,,,,,,,,,,,,,,,,,,,,,
,,,,,,,,2023-08-16_08h40.10.560,HF_wild_card,2022.2.4,Win32,60.14314067,640485331e13a7bfa4a43d46,64d2fd46c836a06233681665,64dc7d485c5711870ec86ce0,,,,,,,decisionTrl,resources/DB.BMP,resources/DY.BMP,WildCard_NonEx,0.24537037,0.022222201,1,0,0,2.1587,optionRight,55,2255,1,40,0,40,0,1,,,,,,,,,,,,,,,,,,,,,,,,,,,,,,,,,,,,,,,
,,,,,,,,2023-08-16_08h40.10.560,HF_wild_card,2022.2.4,Win32,60.14314067,640485331e13a7bfa4a43d46,64d2fd46c836a06233681665,64dc7d485c5711870ec86ce0,,,,,,,sngl,resources/Empty.png,resources/DBN.BMP,Door3,0.325000057,0.027777778,1,0,0,0.6911,optionRight,70,2325,1,41,0,41,0,1,,,,,,,,,,,,,,,,,,,,,,,,,,,,,,,,,,,,,,,
,,,,,,,,2023-08-16_08h40.10.560,HF_wild_card,2022.2.4,Win32,60.14314067,640485331e13a7bfa4a43d46,64d2fd46c836a06233681665,64dc7d485c5711870ec86ce0,,,,,,,ctch,resources/DBN.BMP,resources/DP.BMP,Door3,-0.178703661,0.003703683,1,0,0,0.7129,optionLeft,70,2395,1,42,0,42,0,1,,,,,,,,,,,,,,,,,,,,,,,,,,,,,,,,,,,,,,,
,,,,,,,,2023-08-16_08h40.10.560,HF_wild_card,2022.2.4,Win32,60.14314067,640485331e13a7bfa4a43d46,64d2fd46c836a06233681665,64dc7d485c5711870ec86ce0,,,,,,,decisionTrl,resources/DP.BMP,resources/DB.BMP,Door2,-0.223148134,-0.001851859,1,0,0,1.0123,optionLeft,20,2415,1,43,0,43,0,1,,,,,,,,,,,,,,,,,,,,,,,,,,,,,,,,,,,,,,,
,,,,,,,,2023-08-16_08h40.10.560,HF_wild_card,2022.2.4,Win32,60.14314067,640485331e13a7bfa4a43d46,64d2fd46c836a06233681665,64dc7d485c5711870ec86ce0,,,,,,,,,,,,,,,,,,,,,,,,,,0,0,0,0,1,,,,,,,,,,,,,,,,,,,,,,,,,,,,,,,,,,
,,,,,,,,2023-08-16_08h40.10.560,HF_wild_card,2022.2.4,Win32,60.14314067,640485331e13a7bfa4a43d46,64d2fd46c836a06233681665,64dc7d485c5711870ec86ce0,,,,,,,sngl,resources/Empty.png,resources/DBN.BMP,Door3,0.362962935,0.087962963,1,0,0,0.7017,optionRight,70,2485,2,0,0,0,0,1,,,,,,,,,,,,,,,,,,,,,,,,,,,,,,,,,,,,,,,
,,,,,,,,2023-08-16_08h40.10.560,HF_wild_card,2022.2.4,Win32,60.14314067,640485331e13a7bfa4a43d46,64d2fd46c836a06233681665,64dc7d485c5711870ec86ce0,,,,,,,sngl,resources/DY.BMP,resources/Empty.png,WildCard_NonEx,-0.262036995,0.017592571,1,0,0,1.0115,optionLeft,45,2530,2,1,0,1,0,1,,,,,,,,,,,,,,,,,,,,,,,,,,,,,,,,,,,,,,,
,,,,,,,,2023-08-16_08h40.10.560,HF_wild_card,2022.2.4,Win32,60.14314067,640485331e13a7bfa4a43d46,64d2fd46c836a06233681665,64dc7d485c5711870ec86ce0,,,,,,,sngl,resources/DBN.BMP,resources/Empty.png,Door3,-0.274999972,0.038888896,1,0,0,0.6972,optionLeft,70,2600,2,2,0,2,0,1,,,,,,,,,,,,,,,,,,,,,,,,,,,,,,,,,,,,,,,
,,,,,,,,2023-08-16_08h40.10.560,HF_wild_card,2022.2.4,Win32,60.14314067,640485331e13a7bfa4a43d46,64d2fd46c836a06233681665,64dc7d485c5711870ec86ce0,,,,,,,sngl,resources/Empty.png,resources/DY.BMP,WildCard_NonEx,0.295370384,0.049074067,1,0,0,0.5801,optionRight,55,2655,2,3,0,3,0,1,,,,,,,,,,,,,,,,,,,,,,,,,,,,,,,,,,,,,,,
,,,,,,,,2023-08-16_08h40.10.560,HF_wild_card,2022.2.4,Win32,60.14314067,640485331e13a7bfa4a43d46,64d2fd46c836a06233681665,64dc7d485c5711870ec86ce0,,,,,,,decisionTrl,resources/DBN.BMP,resources/DR.BMP,Door4,0.20648151,-0.011111118,1,0,0,1.1618,optionRight,60,2715,2,4,0,4,0,1,,,,,,,,,,,,,,,,,,,,,,,,,,,,,,,,,,,,,,,
,,,,,,,,2023-08-16_08h40.10.560,HF_wild_card,2022.2.4,Win32,60.14314067,640485331e13a7bfa4a43d46,64d2fd46c836a06233681665,64dc7d485c5711870ec86ce0,,,,,,,decisionTrl,resources/DR.BMP,resources/DBN.BMP,Door4,-0.200925898,-0.000925947,1,0,0,1.1278,optionLeft,60,2775,2,5,0,5,0,1,,,,,,,,,,,,,,,,,,,,,,,,,,,,,,,,,,,,,,,
,,,,,,,,2023-08-16_08h40.10.560,HF_wild_card,2022.2.4,Win32,60.14314067,640485331e13a7bfa4a43d46,64d2fd46c836a06233681665,64dc7d485c5711870ec86ce0,,,,,,,decisionTrl,resources/DB.BMP,resources/DP.BMP,Door2,0.361111111,0.009259259,1,0,0,1.1062,optionRight,20,2795,2,6,0,6,0,1,,,,,,,,,,,,,,,,,,,,,,,,,,,,,,,,,,,,,,,
,,,,,,,,2023-08-16_08h40.10.560,HF_wild_card,2022.2.4,Win32,60.14314067,640485331e13a7bfa4a43d46,64d2fd46c836a06233681665,64dc7d485c5711870ec86ce0,,,,,,,sngl,resources/Empty.png,resources/DB.BMP,Door1,0.27407406,0.020370377,1,0,0,0.4913,optionRight,30,2825,2,7,0,7,0,1,,,,,,,,,,,,,,,,,,,,,,,,,,,,,,,,,,,,,,,
,,,,,,,,2023-08-16_08h40.10.560,HF_wild_card,2022.2.4,Win32,60.14314067,640485331e13a7bfa4a43d46,64d2fd46c836a06233681665,64dc7d485c5711870ec86ce0,,,,,,,decisionTrl,resources/DP.BMP,resources/DB.BMP,Door1,0.244444459,0,1,0,0,0.7798,optionRight,30,2855,2,8,0,8,0,1,,,,,,,,,,,,,,,,,,,,,,,,,,,,,,,,,,,,,,,
,,,,,,,,2023-08-16_08h40.10.560,HF_wild_card,2022.2.4,Win32,60.14314067,640485331e13a7bfa4a43d46,64d2fd46c836a06233681665,64dc7d485c5711870ec86ce0,,,,,,,ctch,resources/DP.BMP,resources/DBN.BMP,Door3,0.259259259,0.011111118,1,0,0,0.9177,optionRight,70,2925,2,9,0,9,0,1,,,,,,,,,,,,,,,,,,,,,,,,,,,,,,,,,,,,,,,
,,,,,,,,2023-08-16_08h40.10.560,HF_wild_card,2022.2.4,Win32,60.14314067,640485331e13a7bfa4a43d46,64d2fd46c836a06233681665,64dc7d485c5711870ec86ce0,,,,,,,ctch,resources/DP.BMP,resources/DBN.BMP,Door3,0.273148148,0.047222208,1,0,0,0.5743,optionRight,70,2995,2,10,0,10,0,1,,,,,,,,,,,,,,,,,,,,,,,,,,,,,,,,,,,,,,,
,,,,,,,,2023-08-16_08h40.10.560,HF_wild_card,2022.2.4,Win32,60.14314067,640485331e13a7bfa4a43d46,64d2fd46c836a06233681665,64dc7d485c5711870ec86ce0,,,,,,,decisionTrl,resources/DBN.BMP,resources/DR.BMP,Door4,0.374074159,0.025000007,1,0,0,1.328,optionRight,60,3055,2,11,0,11,0,1,,,,,,,,,,,,,,,,,,,,,,,,,,,,,,,,,,,,,,,
,,,,,,,,2023-08-16_08h40.10.560,HF_wild_card,2022.2.4,Win32,60.14314067,640485331e13a7bfa4a43d46,64d2fd46c836a06233681665,64dc7d485c5711870ec86ce0,,,,,,,sngl,resources/Empty.png,resources/DY.BMP,WildCard_NonEx,0.363888917,0.049074067,1,0,0,0.5302,optionRight,45,3100,2,12,0,12,0,1,,,,,,,,,,,,,,,,,,,,,,,,,,,,,,,,,,,,,,,
,,,,,,,,2023-08-16_08h40.10.560,HF_wild_card,2022.2.4,Win32,60.14314067,640485331e13a7bfa4a43d46,64d2fd46c836a06233681665,64dc7d485c5711870ec86ce0,,,,,,,ctch,resources/DR.BMP,resources/DB.BMP,Door4,-0.265740712,-0.0074074,1,0,0,0.9674,optionLeft,60,3160,2,13,0,13,0,1,,,,,,,,,,,,,,,,,,,,,,,,,,,,,,,,,,,,,,,
,,,,,,,,2023-08-16_08h40.10.560,HF_wild_card,2022.2.4,Win32,60.14314067,640485331e13a7bfa4a43d46,64d2fd46c836a06233681665,64dc7d485c5711870ec86ce0,,,,,,,decisionTrl,resources/DP.BMP,resources/DB.BMP,Door2,-0.241666653,0.005555541,1,0,0,1.339,optionLeft,20,3180,2,14,0,14,0,1,,,,,,,,,,,,,,,,,,,,,,,,,,,,,,,,,,,,,,,
,,,,,,,,2023-08-16_08h40.10.560,HF_wild_card,2022.2.4,Win32,60.14314067,640485331e13a7bfa4a43d46,64d2fd46c836a06233681665,64dc7d485c5711870ec86ce0,,,,,,,decisionTrl,resources/DBN.BMP,resources/DY.BMP,Door3,-0.274999972,-0.009259259,1,0,0,0.7946,optionLeft,70,3250,2,15,0,15,0,1,,,,,,,,,,,,,,,,,,,,,,,,,,,,,,,,,,,,,,,
,,,,,,,,2023-08-16_08h40.10.560,HF_wild_card,2022.2.4,Win32,60.14314067,640485331e13a7bfa4a43d46,64d2fd46c836a06233681665,64dc7d485c5711870ec86ce0,,,,,,,sngl,resources/DB.BMP,resources/Empty.png,Door1,-0.262962977,0.001851859,1,0,0,0.768,optionLeft,30,3280,2,16,0,16,0,1,,,,,,,,,,,,,,,,,,,,,,,,,,,,,,,,,,,,,,,
,,,,,,,,2023-08-16_08h40.10.560,HF_wild_card,2022.2.4,Win32,60.14314067,640485331e13a7bfa4a43d46,64d2fd46c836a06233681665,64dc7d485c5711870ec86ce0,,,,,,,decisionTrl,resources/DR.BMP,resources/DBN.BMP,Door3,0.219444487,0.006481489,1,0,0,0.597,optionRight,70,3350,2,17,0,17,0,1,,,,,,,,,,,,,,,,,,,,,,,,,,,,,,,,,,,,,,,
,,,,,,,,2023-08-16_08h40.10.560,HF_wild_card,2022.2.4,Win32,60.14314067,640485331e13a7bfa4a43d46,64d2fd46c836a06233681665,64dc7d485c5711870ec86ce0,,,,,,,decisionTrl,resources/DB.BMP,resources/DY.BMP,WildCard_NonEx,0.212037051,0.020370377,1,0,0,1.8374,optionRight,45,3395,2,18,0,18,0,1,,,,,,,,,,,,,,,,,,,,,,,,,,,,,,,,,,,,,,,
,,,,,,,,2023-08-16_08h40.10.560,HF_wild_card,2022.2.4,Win32,60.14314067,640485331e13a7bfa4a43d46,64d2fd46c836a06233681665,64dc7d485c5711870ec86ce0,,,,,,,sngl,resources/DY.BMP,resources/Empty.png,WildCard_NonEx,-0.259259259,0.000925912,1,0,0,0.7129,optionLeft,55,3450,2,19,0,19,0,1,,,,,,,,,,,,,,,,,,,,,,,,,,,,,,,,,,,,,,,
,,,,,,,,2023-08-16_08h40.10.560,HF_wild_card,2022.2.4,Win32,60.14314067,640485331e13a7bfa4a43d46,64d2fd46c836a06233681665,64dc7d485c5711870ec86ce0,,,,,,,decisionTrl,resources/DY.BMP,resources/DP.BMP,WildCard_NonEx,-0.148148148,-0.001851859,1,0,0,0.5902,optionLeft,55,3505,2,20,0,20,0,1,,,,,,,,,,,,,,,,,,,,,,,,,,,,,,,,,,,,,,,
,,,,,,,,2023-08-16_08h40.10.560,HF_wild_card,2022.2.4,Win32,60.14314067,640485331e13a7bfa4a43d46,64d2fd46c836a06233681665,64dc7d485c5711870ec86ce0,,,,,,,decisionTrl,resources/DB.BMP,resources/DP.BMP,Door2,0.200925968,0.009259259,1,0,0,4.2701,optionRight,40,3545,2,21,0,21,0,1,,,,,,,,,,,,,,,,,,,,,,,,,,,,,,,,,,,,,,,
,,,,,,,,2023-08-16_08h40.10.560,HF_wild_card,2022.2.4,Win32,60.14314067,640485331e13a7bfa4a43d46,64d2fd46c836a06233681665,64dc7d485c5711870ec86ce0,,,,,,,ctch,resources/DR.BMP,resources/DB.BMP,Door4,-0.175925926,-0.011111118,1,0,0,1.0127,optionLeft,60,3605,2,22,0,22,0,1,,,,,,,,,,,,,,,,,,,,,,,,,,,,,,,,,,,,,,,
,,,,,,,,2023-08-16_08h40.10.560,HF_wild_card,2022.2.4,Win32,60.14314067,640485331e13a7bfa4a43d46,64d2fd46c836a06233681665,64dc7d485c5711870ec86ce0,,,,,,,decisionTrl,resources/DY.BMP,resources/DB.BMP,WildCard_NonEx,-0.203703704,-0.002777771,1,0,0,1.6103,optionLeft,45,3650,2,23,0,23,0,1,,,,,,,,,,,,,,,,,,,,,,,,,,,,,,,,,,,,,,,
,,,,,,,,2023-08-16_08h40.10.560,HF_wild_card,2022.2.4,Win32,60.14314067,640485331e13a7bfa4a43d46,64d2fd46c836a06233681665,64dc7d485c5711870ec86ce0,,,,,,,decisionTrl,resources/DR.BMP,resources/DBN.BMP,Door3,0.329629686,0.010185171,1,0,0,1.2167,optionRight,70,3720,2,24,0,24,0,1,,,,,,,,,,,,,,,,,,,,,,,,,,,,,,,,,,,,,,,
,,,,,,,,2023-08-16_08h40.10.560,HF_wild_card,2022.2.4,Win32,60.14314067,640485331e13a7bfa4a43d46,64d2fd46c836a06233681665,64dc7d485c5711870ec86ce0,,,,,,,decisionTrl,resources/DBN.BMP,resources/DR.BMP,Door3,-0.185185185,0.02870369,1,0,0,0.7963,optionLeft,70,3790,2,25,0,25,0,1,,,,,,,,,,,,,,,,,,,,,,,,,,,,,,,,,,,,,,,
,,,,,,,,2023-08-16_08h40.10.560,HF_wild_card,2022.2.4,Win32,60.14314067,640485331e13a7bfa4a43d46,64d2fd46c836a06233681665,64dc7d485c5711870ec86ce0,,,,,,,ctch,resources/DBN.BMP,resources/DP.BMP,Door3,-0.27407406,-0.008333347,1,0,0,0.5803,optionLeft,70,3860,2,26,0,26,0,1,,,,,,,,,,,,,,,,,,,,,,,,,,,,,,,,,,,,,,,
,,,,,,,,2023-08-16_08h40.10.560,HF_wild_card,2022.2.4,Win32,60.14314067,640485331e13a7bfa4a43d46,64d2fd46c836a06233681665,64dc7d485c5711870ec86ce0,,,,,,,decisionTrl,resources/DP.BMP,resources/DB.BMP,Door2,-0.309259238,0.0074074,1,0,0,2.026,optionLeft,40,3900,2,27,0,27,0,1,,,,,,,,,,,,,,,,,,,,,,,,,,,,,,,,,,,,,,,
,,,,,,,,2023-08-16_08h40.10.560,HF_wild_card,2022.2.4,Win32,60.14314067,640485331e13a7bfa4a43d46,64d2fd46c836a06233681665,64dc7d485c5711870ec86ce0,,,,,,,decisionTrl,resources/DR.BMP,resources/DY.BMP,Door4,-0.249074088,-0.0074074,1,0,0,0.8123,optionLeft,80,3980,2,28,0,28,0,1,,,,,,,,,,,,,,,,,,,,,,,,,,,,,,,,,,,,,,,
,,,,,,,,2023-08-16_08h40.10.560,HF_wild_card,2022.2.4,Win32,60.14314067,640485331e13a7bfa4a43d46,64d2fd46c836a06233681665,64dc7d485c5711870ec86ce0,,,,,,,ctch,resources/DBN.BMP,resources/DP.BMP,Door3,-0.212037051,-0.01203703,1,0,0,0.5796,optionLeft,70,4050,2,29,0,29,0,1,,,,,,,,,,,,,,,,,,,,,,,,,,,,,,,,,,,,,,,
,,,,,,,,2023-08-16_08h40.10.560,HF_wild_card,2022.2.4,Win32,60.14314067,640485331e13a7bfa4a43d46,64d2fd46c836a06233681665,64dc7d485c5711870ec86ce0,,,,,,,decisionTrl,resources/DB.BMP,resources/DP.BMP,Door1,-0.204629616,-0.025000007,1,0,0,1.7653,optionLeft,30,4080,2,30,0,30,0,1,,,,,,,,,,,,,,,,,,,,,,,,,,,,,,,,,,,,,,,
,,,,,,,,2023-08-16_08h40.10.560,HF_wild_card,2022.2.4,Win32,60.14314067,640485331e13a7bfa4a43d46,64d2fd46c836a06233681665,64dc7d485c5711870ec86ce0,,,,,,,ctch,resources/DB.BMP,resources/DR.BMP,Door4,0.20185188,0.005555541,1,0,0,1.0288,optionRight,80,4160,2,31,0,31,0,1,,,,,,,,,,,,,,,,,,,,,,,,,,,,,,,,,,,,,,,
,,,,,,,,2023-08-16_08h40.10.560,HF_wild_card,2022.2.4,Win32,60.14314067,640485331e13a7bfa4a43d46,64d2fd46c836a06233681665,64dc7d485c5711870ec86ce0,,,,,,,sngl,resources/Empty.png,resources/DP.BMP,Door2,0.233333376,-0.000925947,1,0,0,0.8173,optionRight,40,4200,2,32,0,32,0,1,,,,,,,,,,,,,,,,,,,,,,,,,,,,,,,,,,,,,,,
,,,,,,,,2023-08-16_08h40.10.560,HF_wild_card,2022.2.4,Win32,60.14314067,640485331e13a7bfa4a43d46,64d2fd46c836a06233681665,64dc7d485c5711870ec86ce0,,,,,,,sngl,resources/Empty.png,resources/DR.BMP,Door4,0.215740769,-0.015740748,1,0,0,0.5138,optionRight,80,4280,2,33,0,33,0,1,,,,,,,,,,,,,,,,,,,,,,,,,,,,,,,,,,,,,,,
,,,,,,,,2023-08-16_08h40.10.560,HF_wild_card,2022.2.4,Win32,60.14314067,640485331e13a7bfa4a43d46,64d2fd46c836a06233681665,64dc7d485c5711870ec86ce0,,,,,,,sngl,resources/DR.BMP,resources/Empty.png,Door4,-0.235185199,-0.002777771,1,0,0,0.5132,optionLeft,60,4340,2,34,0,34,0,1,,,,,,,,,,,,,,,,,,,,,,,,,,,,,,,,,,,,,,,
,,,,,,,,2023-08-16_08h40.10.560,HF_wild_card,2022.2.4,Win32,60.14314067,640485331e13a7bfa4a43d46,64d2fd46c836a06233681665,64dc7d485c5711870ec86ce0,,,,,,,decisionTrl,resources/DY.BMP,resources/DBN.BMP,Door3,0.250925912,0.029629637,1,0,0,0.9125,optionRight,70,4410,2,35,0,35,0,1,,,,,,,,,,,,,,,,,,,,,,,,,,,,,,,,,,,,,,,
,,,,,,,,2023-08-16_08h40.10.560,HF_wild_card,2022.2.4,Win32,60.14314067,640485331e13a7bfa4a43d46,64d2fd46c836a06233681665,64dc7d485c5711870ec86ce0,,,,,,,decisionTrl,resources/DP.BMP,resources/DY.BMP,WildCard_NonEx,0.214814857,0.026851831,1,0,0,1.3614,optionRight,45,4455,2,36,0,36,0,1,,,,,,,,,,,,,,,,,,,,,,,,,,,,,,,,,,,,,,,
,,,,,,,,2023-08-16_08h40.10.560,HF_wild_card,2022.2.4,Win32,60.14314067,640485331e13a7bfa4a43d46,64d2fd46c836a06233681665,64dc7d485c5711870ec86ce0,,,,,,,decisionTrl,resources/DY.BMP,resources/DR.BMP,Door4,0.225000028,0.014814801,1,0,0,0.6907,optionRight,80,4535,2,37,0,37,0,1,,,,,,,,,,,,,,,,,,,,,,,,,,,,,,,,,,,,,,,
,,,,,,,,2023-08-16_08h40.10.560,HF_wild_card,2022.2.4,Win32,60.14314067,640485331e13a7bfa4a43d46,64d2fd46c836a06233681665,64dc7d485c5711870ec86ce0,,,,,,,decisionTrl,resources/DP.BMP,resources/DB.BMP,Door1,0.257407436,0.021296289,1,0,0,1.6773,optionRight,30,4565,2,38,0,38,0,1,,,,,,,,,,,,,,,,,,,,,,,,,,,,,,,,,,,,,,,
,,,,,,,,2023-08-16_08h40.10.560,HF_wild_card,2022.2.4,Win32,60.14314067,640485331e13a7bfa4a43d46,64d2fd46c836a06233681665,64dc7d485c5711870ec86ce0,,,,,,,sngl,resources/DP.BMP,resources/Empty.png,Door2,-0.25,-0.030555548,1,0,0,0.6466,optionLeft,20,4585,2,39,0,39,0,1,,,,,,,,,,,,,,,,,,,,,,,,,,,,,,,,,,,,,,,
,,,,,,,,2023-08-16_08h40.10.560,HF_wild_card,2022.2.4,Win32,60.14314067,640485331e13a7bfa4a43d46,64d2fd46c836a06233681665,64dc7d485c5711870ec86ce0,,,,,,,decisionTrl,resources/DR.BMP,resources/DBN.BMP,Door3,0.287037037,0.026851831,1,0,0,1.0449,optionRight,70,4655,2,40,0,40,0,1,,,,,,,,,,,,,,,,,,,,,,,,,,,,,,,,,,,,,,,
,,,,,,,,2023-08-16_08h40.10.560,HF_wild_card,2022.2.4,Win32,60.14314067,640485331e13a7bfa4a43d46,64d2fd46c836a06233681665,64dc7d485c5711870ec86ce0,,,,,,,ctch,resources/DB.BMP,resources/DR.BMP,Door4,0.285185213,0.0074074,1,0,0,0.9171,optionRight,80,4735,2,41,0,41,0,1,,,,,,,,,,,,,,,,,,,,,,,,,,,,,,,,,,,,,,,
,,,,,,,,2023-08-16_08h40.10.560,HF_wild_card,2022.2.4,Win32,60.14314067,640485331e13a7bfa4a43d46,64d2fd46c836a06233681665,64dc7d485c5711870ec86ce0,,,,,,,decisionTrl,resources/DB.BMP,resources/DP.BMP,Door1,-0.118518476,-0.024074095,1,0,0,2.3591,optionLeft,30,4765,2,42,0,42,0,1,,,,,,,,,,,,,,,,,,,,,,,,,,,,,,,,,,,,,,,
,,,,,,,,2023-08-16_08h40.10.560,HF_wild_card,2022.2.4,Win32,60.14314067,640485331e13a7bfa4a43d46,64d2fd46c836a06233681665,64dc7d485c5711870ec86ce0,,,,,,,decisionTrl,resources/DBN.BMP,resources/DR.BMP,Door3,-0.350925905,-0.018518519,1,0,0,1.2947,optionLeft,70,4835,2,43,0,43,0,1,,,,,,,,,,,,,,,,,,,,,,,,,,,,,,,,,,,,,,,
,,,,,,,,2023-08-16_08h40.10.560,HF_wild_card,2022.2.4,Win32,60.14314067,640485331e13a7bfa4a43d46,64d2fd46c836a06233681665,64dc7d485c5711870ec86ce0,,,,,,,,,,,,,,,,,,,,,,,,,,1,0,1,0,1,,,,,,,,,,,,,,,,,,,,,,,,,,,,,,,,,,
,,,,,,,,2023-08-16_08h40.10.560,HF_wild_card,2022.2.4,Win32,60.14314067,640485331e13a7bfa4a43d46,64d2fd46c836a06233681665,64dc7d485c5711870ec86ce0,,,,,,,decisionTrl,resources/DB.BMP,resources/DP.BMP,Door1,-0.322222215,0.037037037,1,0,0,1.2666,optionLeft,30,4865,3,0,0,0,0,1,,,,,,,,,,,,,,,,,,,,,,,,,,,,,,,,,,,,,,,
,,,,,,,,2023-08-16_08h40.10.560,HF_wild_card,2022.2.4,Win32,60.14314067,640485331e13a7bfa4a43d46,64d2fd46c836a06233681665,64dc7d485c5711870ec86ce0,,,,,,,decisionTrl,resources/DR.BMP,resources/DBN.BMP,Door3,0.384259259,0.012962942,1,0,0,0.9122,optionRight,70,4935,3,1,0,1,0,1,,,,,,,,,,,,,,,,,,,,,,,,,,,,,,,,,,,,,,,
,,,,,,,,2023-08-16_08h40.10.560,HF_wild_card,2022.2.4,Win32,60.14314067,640485331e13a7bfa4a43d46,64d2fd46c836a06233681665,64dc7d485c5711870ec86ce0,,,,,,,decisionTrl,resources/DY.BMP,resources/DR.BMP,Door4,0.199074074,0.02870369,1,0,0,0.4624,optionRight,80,5015,3,2,0,2,0,1,,,,,,,,,,,,,,,,,,,,,,,,,,,,,,,,,,,,,,,
,,,,,,,,2023-08-16_08h40.10.560,HF_wild_card,2022.2.4,Win32,60.14314067,640485331e13a7bfa4a43d46,64d2fd46c836a06233681665,64dc7d485c5711870ec86ce0,,,,,,,decisionTrl,resources/DP.BMP,resources/DY.BMP,WildCard_NonEx,0.337037122,0.022222201,1,0,0,1.406,optionRight,55,5070,3,3,0,3,0,1,,,,,,,,,,,,,,,,,,,,,,,,,,,,,,,,,,,,,,,
,,,,,,,,2023-08-16_08h40.10.560,HF_wild_card,2022.2.4,Win32,60.14314067,640485331e13a7bfa4a43d46,64d2fd46c836a06233681665,64dc7d485c5711870ec86ce0,,,,,,,decisionTrl,resources/DR.BMP,resources/DBN.BMP,Door3,0.172222208,0.026851831,1,0,0,0.6347,optionRight,70,5140,3,4,0,4,0,1,,,,,,,,,,,,,,,,,,,,,,,,,,,,,,,,,,,,,,,
,,,,,,,,2023-08-16_08h40.10.560,HF_wild_card,2022.2.4,Win32,60.14314067,640485331e13a7bfa4a43d46,64d2fd46c836a06233681665,64dc7d485c5711870ec86ce0,,,,,,,ctch,resources/DBN.BMP,resources/DP.BMP,Door3,-0.162037037,0.020370377,1,0,0,0.8286,optionLeft,70,5210,3,5,0,5,0,1,,,,,,,,,,,,,,,,,,,,,,,,,,,,,,,,,,,,,,,
,,,,,,,,2023-08-16_08h40.10.560,HF_wild_card,2022.2.4,Win32,60.14314067,640485331e13a7bfa4a43d46,64d2fd46c836a06233681665,64dc7d485c5711870ec86ce0,,,,,,,ctch,resources/DR.BMP,resources/DB.BMP,Door4,-0.223148134,-0.000925947,1,0,0,0.7794,optionLeft,80,5290,3,6,0,6,0,1,,,,,,,,,,,,,,,,,,,,,,,,,,,,,,,,,,,,,,,
,,,,,,,,2023-08-16_08h40.10.560,HF_wild_card,2022.2.4,Win32,60.14314067,640485331e13a7bfa4a43d46,64d2fd46c836a06233681665,64dc7d485c5711870ec86ce0,,,,,,,decisionTrl,resources/DBN.BMP,resources/DY.BMP,Door3,-0.354629623,0.00462963,1,0,0,0.5471,optionLeft,70,5360,3,7,0,7,0,1,,,,,,,,,,,,,,,,,,,,,,,,,,,,,,,,,,,,,,,
,,,,,,,,2023-08-16_08h40.10.560,HF_wild_card,2022.2.4,Win32,60.14314067,640485331e13a7bfa4a43d46,64d2fd46c836a06233681665,64dc7d485c5711870ec86ce0,,,,,,,sngl,resources/DP.BMP,resources/Empty.png,Door2,-0.165740755,-0.012962977,1,0,0,0.3975,optionLeft,40,5400,3,8,0,8,0,1,,,,,,,,,,,,,,,,,,,,,,,,,,,,,,,,,,,,,,,
,,,,,,,,2023-08-16_08h40.10.560,HF_wild_card,2022.2.4,Win32,60.14314067,640485331e13a7bfa4a43d46,64d2fd46c836a06233681665,64dc7d485c5711870ec86ce0,,,,,,,ctch,resources/DB.BMP,resources/DR.BMP,Door4,0.224074116,0.017592571,1,0,0,0.5965,optionRight,80,5480,3,9,0,9,0,1,,,,,,,,,,,,,,,,,,,,,,,,,,,,,,,,,,,,,,,
,,,,,,,,2023-08-16_08h40.10.560,HF_wild_card,2022.2.4,Win32,60.14314067,640485331e13a7bfa4a43d46,64d2fd46c836a06233681665,64dc7d485c5711870ec86ce0,,,,,,,decisionTrl,resources/DR.BMP,resources/DBN.BMP,Door4,-0.202777792,-0.000925947,1,0,0,1.555,optionLeft,80,5560,3,10,0,10,0,1,,,,,,,,,,,,,,,,,,,,,,,,,,,,,,,,,,,,,,,
,,,,,,,,2023-08-16_08h40.10.560,HF_wild_card,2022.2.4,Win32,60.14314067,640485331e13a7bfa4a43d46,64d2fd46c836a06233681665,64dc7d485c5711870ec86ce0,,,,,,,ctch,resources/DR.BMP,resources/DB.BMP,Door4,-0.289814772,-0.019444466,1,0,0,0.5127,optionLeft,60,5620,3,11,0,11,0,1,,,,,,,,,,,,,,,,,,,,,,,,,,,,,,,,,,,,,,,
,,,,,,,,2023-08-16_08h40.10.560,HF_wild_card,2022.2.4,Win32,60.14314067,640485331e13a7bfa4a43d46,64d2fd46c836a06233681665,64dc7d485c5711870ec86ce0,,,,,,,decisionTrl,resources/DBN.BMP,resources/DR.BMP,Door3,-0.263888889,-0.01203703,1,0,0,0.846,optionLeft,70,5690,3,12,0,12,0,1,,,,,,,,,,,,,,,,,,,,,,,,,,,,,,,,,,,,,,,
,,,,,,,,2023-08-16_08h40.10.560,HF_wild_card,2022.2.4,Win32,60.14314067,640485331e13a7bfa4a43d46,64d2fd46c836a06233681665,64dc7d485c5711870ec86ce0,,,,,,,sngl,resources/Empty.png,resources/DB.BMP,Door1,0.200925968,0.012962942,1,0,0,0.4464,optionRight,30,5720,3,13,0,13,0,1,,,,,,,,,,,,,,,,,,,,,,,,,,,,,,,,,,,,,,,
,,,,,,,,2023-08-16_08h40.10.560,HF_wild_card,2022.2.4,Win32,60.14314067,640485331e13a7bfa4a43d46,64d2fd46c836a06233681665,64dc7d485c5711870ec86ce0,,,,,,,decisionTrl,resources/DP.BMP,resources/DB.BMP,Door1,0.20185188,0.011111118,1,0,0,0.8011,optionRight,30,5750,3,14,0,14,0,1,,,,,,,,,,,,,,,,,,,,,,,,,,,,,,,,,,,,,,,
,,,,,,,,2023-08-16_08h40.10.560,HF_wild_card,2022.2.4,Win32,60.14314067,640485331e13a7bfa4a43d46,64d2fd46c836a06233681665,64dc7d485c5711870ec86ce0,,,,,,,decisionTrl,resources/DY.BMP,resources/DB.BMP,WildCard_NonEx,-0.232407393,-0.001851859,1,0,0,1.2285,optionLeft,55,5805,3,15,0,15,0,1,,,,,,,,,,,,,,,,,,,,,,,,,,,,,,,,,,,,,,,
,,,,,,,,2023-08-16_08h40.10.560,HF_wild_card,2022.2.4,Win32,60.14314067,640485331e13a7bfa4a43d46,64d2fd46c836a06233681665,64dc7d485c5711870ec86ce0,,,,,,,decisionTrl,resources/DBN.BMP,resources/DR.BMP,Door3,-0.207407422,-0.013888889,1,0,0,1.1451,optionLeft,70,5875,3,16,0,16,0,1,,,,,,,,,,,,,,,,,,,,,,,,,,,,,,,,,,,,,,,
,,,,,,,,2023-08-16_08h40.10.560,HF_wild_card,2022.2.4,Win32,60.14314067,640485331e13a7bfa4a43d46,64d2fd46c836a06233681665,64dc7d485c5711870ec86ce0,,,,,,,decisionTrl,resources/DB.BMP,resources/DP.BMP,Door1,-0.231481481,-0.00462963,1,0,0,1.2281,optionLeft,30,5905,3,17,0,17,0,1,,,,,,,,,,,,,,,,,,,,,,,,,,,,,,,,,,,,,,,
,,,,,,,,2023-08-16_08h40.10.560,HF_wild_card,2022.2.4,Win32,60.14314067,640485331e13a7bfa4a43d46,64d2fd46c836a06233681665,64dc7d485c5711870ec86ce0,,,,,,,sngl,resources/Empty.png,resources/DP.BMP,Door2,0.224074116,0.01203703,1,0,0,0.6297,optionRight,20,5925,3,18,0,18,0,1,,,,,,,,,,,,,,,,,,,,,,,,,,,,,,,,,,,,,,,
,,,,,,,,2023-08-16_08h40.10.560,HF_wild_card,2022.2.4,Win32,60.14314067,640485331e13a7bfa4a43d46,64d2fd46c836a06233681665,64dc7d485c5711870ec86ce0,,,,,,,decisionTrl,resources/DP.BMP,resources/DB.BMP,Door1,0.258333347,0.011111118,1,0,0,0.8401,optionRight,30,5955,3,19,0,19,0,1,,,,,,,,,,,,,,,,,,,,,,,,,,,,,,,,,,,,,,,
,,,,,,,,2023-08-16_08h40.10.560,HF_wild_card,2022.2.4,Win32,60.14314067,640485331e13a7bfa4a43d46,64d2fd46c836a06233681665,64dc7d485c5711870ec86ce0,,,,,,,sngl,resources/DY.BMP,resources/Empty.png,WildCard_NonEx,-0.202777792,-0.010185206,1,0,0,0.8004,optionLeft,55,6010,3,20,0,20,0,1,,,,,,,,,,,,,,,,,,,,,,,,,,,,,,,,,,,,,,,
,,,,,,,,2023-08-16_08h40.10.560,HF_wild_card,2022.2.4,Win32,60.14314067,640485331e13a7bfa4a43d46,64d2fd46c836a06233681665,64dc7d485c5711870ec86ce0,,,,,,,ctch,resources/DB.BMP,resources/DR.BMP,Door4,0.22129631,-0.001851859,1,0,0,1.4773,optionRight,80,6090,3,21,0,21,0,1,,,,,,,,,,,,,,,,,,,,,,,,,,,,,,,,,,,,,,,
,,,,,,,,2023-08-16_08h40.10.560,HF_wild_card,2022.2.4,Win32,60.14314067,640485331e13a7bfa4a43d46,64d2fd46c836a06233681665,64dc7d485c5711870ec86ce0,,,,,,,decisionTrl,resources/DR.BMP,resources/DY.BMP,Door4,-0.231481481,-0.021296289,1,0,0,0.6463,optionLeft,60,6150,3,22,0,22,0,1,,,,,,,,,,,,,,,,,,,,,,,,,,,,,,,,,,,,,,,
,,,,,,,,2023-08-16_08h40.10.560,HF_wild_card,2022.2.4,Win32,60.14314067,640485331e13a7bfa4a43d46,64d2fd46c836a06233681665,64dc7d485c5711870ec86ce0,,,,,,,decisionTrl,resources/DBN.BMP,resources/DR.BMP,Door3,-0.349999993,-0.017592607,1,0,0,1.3615,optionLeft,70,6220,3,23,0,23,0,1,,,,,,,,,,,,,,,,,,,,,,,,,,,,,,,,,,,,,,,
,,,,,,,,2023-08-16_08h40.10.560,HF_wild_card,2022.2.4,Win32,60.14314067,640485331e13a7bfa4a43d46,64d2fd46c836a06233681665,64dc7d485c5711870ec86ce0,,,,,,,decisionTrl,resources/DP.BMP,resources/DB.BMP,Door1,0.189814815,0.003703683,1,0,0,2.4189,optionRight,30,6250,3,24,0,24,0,1,,,,,,,,,,,,,,,,,,,,,,,,,,,,,,,,,,,,,,,
,,,,,,,,2023-08-16_08h40.10.560,HF_wild_card,2022.2.4,Win32,60.14314067,640485331e13a7bfa4a43d46,64d2fd46c836a06233681665,64dc7d485c5711870ec86ce0,,,,,,,decisionTrl,resources/DY.BMP,resources/DP.BMP,WildCard_NonEx,-0.231481481,-0.031481496,1,0,0,0.8456,optionLeft,45,6295,3,25,0,25,0,1,,,,,,,,,,,,,,,,,,,,,,,,,,,,,,,,,,,,,,,
,,,,,,,,2023-08-16_08h40.10.560,HF_wild_card,2022.2.4,Win32,60.14314067,640485331e13a7bfa4a43d46,64d2fd46c836a06233681665,64dc7d485c5711870ec86ce0,,,,,,,sngl,resources/DB.BMP,resources/Empty.png,Door1,-0.158333319,-0.033333355,1,0,0,0.8238,optionLeft,30,6325,3,26,0,26,0,1,,,,,,,,,,,,,,,,,,,,,,,,,,,,,,,,,,,,,,,
,,,,,,,,2023-08-16_08h40.10.560,HF_wild_card,2022.2.4,Win32,60.14314067,640485331e13a7bfa4a43d46,64d2fd46c836a06233681665,64dc7d485c5711870ec86ce0,,,,,,,ctch,resources/DP.BMP,resources/DBN.BMP,Door3,0.375,0.017592571,1,0,0,0.6495,optionRight,70,6395,3,27,0,27,0,1,,,,,,,,,,,,,,,,,,,,,,,,,,,,,,,,,,,,,,,
,,,,,,,,2023-08-16_08h40.10.560,HF_wild_card,2022.2.4,Win32,60.14314067,640485331e13a7bfa4a43d46,64d2fd46c836a06233681665,64dc7d485c5711870ec86ce0,,,,,,,sngl,resources/DR.BMP,resources/Empty.png,Door4,-0.199074074,-0.020370377,1,0,0,0.5133,optionLeft,80,6475,3,28,0,28,0,1,,,,,,,,,,,,,,,,,,,,,,,,,,,,,,,,,,,,,,,
,,,,,,,,2023-08-16_08h40.10.560,HF_wild_card,2022.2.4,Win32,60.14314067,640485331e13a7bfa4a43d46,64d2fd46c836a06233681665,64dc7d485c5711870ec86ce0,,,,,,,sngl,resources/DY.BMP,resources/Empty.png,WildCard_NonEx,-0.217592593,-0.01666666,1,0,0,0.6631,optionLeft,45,6520,3,29,0,29,0,1,,,,,,,,,,,,,,,,,,,,,,,,,,,,,,,,,,,,,,,
,,,,,,,,2023-08-16_08h40.10.560,HF_wild_card,2022.2.4,Win32,60.14314067,640485331e13a7bfa4a43d46,64d2fd46c836a06233681665,64dc7d485c5711870ec86ce0,,,,,,,ctch,resources/DP.BMP,resources/DBN.BMP,Door3,0.178703732,-0.005555577,1,0,0,0.5633,optionRight,70,6590,3,30,0,30,0,1,,,,,,,,,,,,,,,,,,,,,,,,,,,,,,,,,,,,,,,
,,,,,,,,2023-08-16_08h40.10.560,HF_wild_card,2022.2.4,Win32,60.14314067,640485331e13a7bfa4a43d46,64d2fd46c836a06233681665,64dc7d485c5711870ec86ce0,,,,,,,sngl,resources/Empty.png,resources/DY.BMP,WildCard_NonEx,0.275925954,0.047222208,1,0,0,0.6182,optionRight,55,6645,3,31,0,31,0,1,,,,,,,,,,,,,,,,,,,,,,,,,,,,,,,,,,,,,,,
,,,,,,,,2023-08-16_08h40.10.560,HF_wild_card,2022.2.4,Win32,60.14314067,640485331e13a7bfa4a43d46,64d2fd46c836a06233681665,64dc7d485c5711870ec86ce0,,,,,,,sngl,resources/Empty.png,resources/DY.BMP,WildCard_NonEx,0.184259273,0.03148146,1,0,0,0.4355,optionRight,45,6690,3,32,0,32,0,1,,,,,,,,,,,,,,,,,,,,,,,,,,,,,,,,,,,,,,,
,,,,,,,,2023-08-16_08h40.10.560,HF_wild_card,2022.2.4,Win32,60.14314067,640485331e13a7bfa4a43d46,64d2fd46c836a06233681665,64dc7d485c5711870ec86ce0,,,,,,,decisionTrl,resources/DBN.BMP,resources/DR.BMP,Door3,-0.23055557,-0.010185206,1,0,0,0.7463,optionLeft,70,6760,3,33,0,33,0,1,,,,,,,,,,,,,,,,,,,,,,,,,,,,,,,,,,,,,,,
,,,,,,,,2023-08-16_08h40.10.560,HF_wild_card,2022.2.4,Win32,60.14314067,640485331e13a7bfa4a43d46,64d2fd46c836a06233681665,64dc7d485c5711870ec86ce0,,,,,,,decisionTrl,resources/DB.BMP,resources/DP.BMP,Door1,-0.163888861,-0.032407407,1,0,0,1.727,optionLeft,30,6790,3,34,0,34,0,1,,,,,,,,,,,,,,,,,,,,,,,,,,,,,,,,,,,,,,,
,,,,,,,,2023-08-16_08h40.10.560,HF_wild_card,2022.2.4,Win32,60.14314067,640485331e13a7bfa4a43d46,64d2fd46c836a06233681665,64dc7d485c5711870ec86ce0,,,,,,,sngl,resources/Empty.png,resources/DR.BMP,Door4,0.249074088,0.015740748,1,0,0,0.5303,optionRight,60,6850,3,35,0,35,0,1,,,,,,,,,,,,,,,,,,,,,,,,,,,,,,,,,,,,,,,
,,,,,,,,2023-08-16_08h40.10.560,HF_wild_card,2022.2.4,Win32,60.14314067,640485331e13a7bfa4a43d46,64d2fd46c836a06233681665,64dc7d485c5711870ec86ce0,,,,,,,decisionTrl,resources/DB.BMP,resources/DP.BMP,Door1,-0.218518504,-0.013888889,1,0,0,1.0453,optionLeft,30,6880,3,36,0,36,0,1,,,,,,,,,,,,,,,,,,,,,,,,,,,,,,,,,,,,,,,
,,,,,,,,2023-08-16_08h40.10.560,HF_wild_card,2022.2.4,Win32,60.14314067,640485331e13a7bfa4a43d46,64d2fd46c836a06233681665,64dc7d485c5711870ec86ce0,,,,,,,ctch,resources/DBN.BMP,resources/DP.BMP,Door3,-0.208333333,-0.015740748,1,0,0,0.6633,optionLeft,70,6950,3,37,0,37,0,1,,,,,,,,,,,,,,,,,,,,,,,,,,,,,,,,,,,,,,,
,,,,,,,,2023-08-16_08h40.10.560,HF_wild_card,2022.2.4,Win32,60.14314067,640485331e13a7bfa4a43d46,64d2fd46c836a06233681665,64dc7d485c5711870ec86ce0,,,,,,,decisionTrl,resources/DB.BMP,resources/DY.BMP,Door1,-0.319444444,-0.013888889,1,0,0,0.9624,optionLeft,30,6980,3,38,0,38,0,1,,,,,,,,,,,,,,,,,,,,,,,,,,,,,,,,,,,,,,,
,,,,,,,,2023-08-16_08h40.10.560,HF_wild_card,2022.2.4,Win32,60.14314067,640485331e13a7bfa4a43d46,64d2fd46c836a06233681665,64dc7d485c5711870ec86ce0,,,,,,,decisionTrl,resources/DY.BMP,resources/DBN.BMP,WildCard_NonEx,-0.162962949,-0.002777771,1,0,0,0.4685,optionLeft,45,7025,3,39,0,39,0,1,,,,,,,,,,,,,,,,,,,,,,,,,,,,,,,,,,,,,,,
,,,,,,,,2023-08-16_08h40.10.560,HF_wild_card,2022.2.4,Win32,60.14314067,640485331e13a7bfa4a43d46,64d2fd46c836a06233681665,64dc7d485c5711870ec86ce0,,,,,,,decisionTrl,resources/DP.BMP,resources/DB.BMP,Door1,0.22129631,0.01203703,1,0,0,1.5937,optionRight,30,7055,3,40,0,40,0,1,,,,,,,,,,,,,,,,,,,,,,,,,,,,,,,,,,,,,,,
,,,,,,,,2023-08-16_08h40.10.560,HF_wild_card,2022.2.4,Win32,60.14314067,640485331e13a7bfa4a43d46,64d2fd46c836a06233681665,64dc7d485c5711870ec86ce0,,,,,,,sngl,resources/Empty.png,resources/DBN.BMP,Door3,0.164814843,0.0074074,1,0,0,0.5802,optionRight,70,7125,3,41,0,41,0,1,,,,,,,,,,,,,,,,,,,,,,,,,,,,,,,,,,,,,,,
,,,,,,,,2023-08-16_08h40.10.560,HF_wild_card,2022.2.4,Win32,60.14314067,640485331e13a7bfa4a43d46,64d2fd46c836a06233681665,64dc7d485c5711870ec86ce0,,,,,,,sngl,resources/DBN.BMP,resources/Empty.png,Door3,-0.232407393,-0.020370377,1,0,0,0.5411,optionLeft,70,7195,3,42,0,42,0,1,,,,,,,,,,,,,,,,,,,,,,,,,,,,,,,,,,,,,,,
,,,,,,,,2023-08-16_08h40.10.560,HF_wild_card,2022.2.4,Win32,60.14314067,640485331e13a7bfa4a43d46,64d2fd46c836a06233681665,64dc7d485c5711870ec86ce0,,,,,,,decisionTrl,resources/DR.BMP,resources/DBN.BMP,Door3,0.183333362,0.022222201,1,0,0,0.5303,optionRight,70,7265,3,43,0,43,0,1,,,,,,,,,,,,,,,,,,,,,,,,,,,,,,,,,,,,,,,
,,,,,,,,2023-08-16_08h40.10.560,HF_wild_card,2022.2.4,Win32,60.14314067,640485331e13a7bfa4a43d46,64d2fd46c836a06233681665,64dc7d485c5711870ec86ce0,,,,,,,,,,,,,,,,,,,,,,,,,,2,0,2,0,1,,,,,,,,,,,,,,,,,,,,,,,,,,,,,,,,,,
,,,,,,,,2023-08-16_08h40.10.560,HF_wild_card,2022.2.4,Win32,60.14314067,640485331e13a7bfa4a43d46,64d2fd46c836a06233681665,64dc7d485c5711870ec86ce0,,,,,,,ctch,resources/DB.BMP,resources/DR.BMP,Door4,0.240740741,-0.039814808,1,0,0,0.8189,optionRight,60,7325,4,0,0,0,0,1,,,,,,,,,,,,,,,,,,,,,,,,,,,,,,,,,,,,,,,
,,,,,,,,2023-08-16_08h40.10.560,HF_wild_card,2022.2.4,Win32,60.14314067,640485331e13a7bfa4a43d46,64d2fd46c836a06233681665,64dc7d485c5711870ec86ce0,,,,,,,decisionTrl,resources/DR.BMP,resources/DG.BMP,WildCard_Ex,0.215740769,0.020370377,1,0,0,2.9677,optionRight,45,7370,4,1,0,1,0,1,,,,,,,,,,,,,,,,,,,,,,,,,,,,,,,,,,,,,,,
,,,,,,,,2023-08-16_08h40.10.560,HF_wild_card,2022.2.4,Win32,60.14314067,640485331e13a7bfa4a43d46,64d2fd46c836a06233681665,64dc7d485c5711870ec86ce0,,,,,,,ctch,resources/DR.BMP,resources/DB.BMP,Door4,-0.155555513,-0.001851859,1,0,0,0.5302,optionLeft,80,7450,4,2,0,2,0,1,,,,,,,,,,,,,,,,,,,,,,,,,,,,,,,,,,,,,,,
,,,,,,,,2023-08-16_08h40.10.560,HF_wild_card,2022.2.4,Win32,60.14314067,640485331e13a7bfa4a43d46,64d2fd46c836a06233681665,64dc7d485c5711870ec86ce0,,,,,,,decisionTrl,resources/DB.BMP,resources/DP.BMP,Door1,-0.267592607,-0.005555577,1,0,0,1.162,optionLeft,30,7480,4,3,0,3,0,1,,,,,,,,,,,,,,,,,,,,,,,,,,,,,,,,,,,,,,,
,,,,,,,,2023-08-16_08h40.10.560,HF_wild_card,2022.2.4,Win32,60.14314067,640485331e13a7bfa4a43d46,64d2fd46c836a06233681665,64dc7d485c5711870ec86ce0,,,,,,,decisionTrl,resources/DG.BMP,resources/DB.BMP,WildCard_Ex,-0.179629644,-0.013888889,1,0,0,1.1891,optionLeft,55,7535,4,4,0,4,0,1,,,,,,,,,,,,,,,,,,,,,,,,,,,,,,,,,,,,,,,
,,,,,,,,2023-08-16_08h40.10.560,HF_wild_card,2022.2.4,Win32,60.14314067,640485331e13a7bfa4a43d46,64d2fd46c836a06233681665,64dc7d485c5711870ec86ce0,,,,,,,decisionTrl,resources/DBN.BMP,resources/DR.BMP,Door3,-0.314814815,-0.00462963,1,0,0,1.2452,optionLeft,70,7605,4,5,0,5,0,1,,,,,,,,,,,,,,,,,,,,,,,,,,,,,,,,,,,,,,,
,,,,,,,,2023-08-16_08h40.10.560,HF_wild_card,2022.2.4,Win32,60.14314067,640485331e13a7bfa4a43d46,64d2fd46c836a06233681665,64dc7d485c5711870ec86ce0,,,,,,,decisionTrl,resources/DG.BMP,resources/DBN.BMP,Door3,0.157407407,0,1,0,0,1.04,optionRight,70,7675,4,6,0,6,0,1,,,,,,,,,,,,,,,,,,,,,,,,,,,,,,,,,,,,,,,
,,,,,,,,2023-08-16_08h40.10.560,HF_wild_card,2022.2.4,Win32,60.14314067,640485331e13a7bfa4a43d46,64d2fd46c836a06233681665,64dc7d485c5711870ec86ce0,,,,,,,decisionTrl,resources/DB.BMP,resources/DP.BMP,Door1,-0.273148148,-0.01203703,1,0,0,2.6578,optionLeft,30,7705,4,7,0,7,0,1,,,,,,,,,,,,,,,,,,,,,,,,,,,,,,,,,,,,,,,
,,,,,,,,2023-08-16_08h40.10.560,HF_wild_card,2022.2.4,Win32,60.14314067,640485331e13a7bfa4a43d46,64d2fd46c836a06233681665,64dc7d485c5711870ec86ce0,,,,,,,sngl,resources/Empty.png,resources/DG.BMP,WildCard_Ex,0.252777806,0.021296289,1,0,0,1.3388,optionRight,45,7750,4,8,0,8,0,1,,,,,,,,,,,,,,,,,,,,,,,,,,,,,,,,,,,,,,,
,,,,,,,,2023-08-16_08h40.10.560,HF_wild_card,2022.2.4,Win32,60.14314067,640485331e13a7bfa4a43d46,64d2fd46c836a06233681665,64dc7d485c5711870ec86ce0,,,,,,,decisionTrl,resources/DR.BMP,resources/DBN.BMP,Door3,0.202777792,0.003703683,1,0,0,1.2446,optionRight,70,7820,4,9,0,9,0,1,,,,,,,,,,,,,,,,,,,,,,,,,,,,,,,,,,,,,,,
,,,,,,,,2023-08-16_08h40.10.560,HF_wild_card,2022.2.4,Win32,60.14314067,640485331e13a7bfa4a43d46,64d2fd46c836a06233681665,64dc7d485c5711870ec86ce0,,,,,,,decisionTrl,resources/DBN.BMP,resources/DR.BMP,Door3,-0.291666667,-0.014814836,1,0,0,1.8433,optionLeft,70,7890,4,10,0,10,0,1,,,,,,,,,,,,,,,,,,,,,,,,,,,,,,,,,,,,,,,
,,,,,,,,2023-08-16_08h40.10.560,HF_wild_card,2022.2.4,Win32,60.14314067,640485331e13a7bfa4a43d46,64d2fd46c836a06233681665,64dc7d485c5711870ec86ce0,,,,,,,decisionTrl,resources/DBN.BMP,resources/DR.BMP,Door4,0.170370384,0.009259259,1,0,0,0.6634,optionRight,80,7970,4,11,0,11,0,1,,,,,,,,,,,,,,,,,,,,,,,,,,,,,,,,,,,,,,,
,,,,,,,,2023-08-16_08h40.10.560,HF_wild_card,2022.2.4,Win32,60.14314067,640485331e13a7bfa4a43d46,64d2fd46c836a06233681665,64dc7d485c5711870ec86ce0,,,,,,,decisionTrl,resources/DR.BMP,resources/DBN.BMP,Door4,-0.175925926,0.008333312,1,0,0,0.713,optionLeft,60,8030,4,12,0,12,0,1,,,,,,,,,,,,,,,,,,,,,,,,,,,,,,,,,,,,,,,
,,,,,,,,2023-08-16_08h40.10.560,HF_wild_card,2022.2.4,Win32,60.14314067,640485331e13a7bfa4a43d46,64d2fd46c836a06233681665,64dc7d485c5711870ec86ce0,,,,,,,decisionTrl,resources/DP.BMP,resources/DB.BMP,Door1,0.186111097,0.011111118,1,0,0,1.1783,optionRight,30,8060,4,13,0,13,0,1,,,,,,,,,,,,,,,,,,,,,,,,,,,,,,,,,,,,,,,
,,,,,,,,2023-08-16_08h40.10.560,HF_wild_card,2022.2.4,Win32,60.14314067,640485331e13a7bfa4a43d46,64d2fd46c836a06233681665,64dc7d485c5711870ec86ce0,,,,,,,ctch,resources/DBN.BMP,resources/DP.BMP,Door3,-0.212962963,-0.010185206,1,0,0,0.9733,optionLeft,70,8130,4,14,0,14,0,1,,,,,,,,,,,,,,,,,,,,,,,,,,,,,,,,,,,,,,,
,,,,,,,,2023-08-16_08h40.10.560,HF_wild_card,2022.2.4,Win32,60.14314067,640485331e13a7bfa4a43d46,64d2fd46c836a06233681665,64dc7d485c5711870ec86ce0,,,,,,,decisionTrl,resources/DB.BMP,resources/DP.BMP,Door1,-0.224074046,-0.022222236,1,0,0,1.7435,optionLeft,30,8160,4,15,0,15,0,1,,,,,,,,,,,,,,,,,,,,,,,,,,,,,,,,,,,,,,,
,,,,,,,,2023-08-16_08h40.10.560,HF_wild_card,2022.2.4,Win32,60.14314067,640485331e13a7bfa4a43d46,64d2fd46c836a06233681665,64dc7d485c5711870ec86ce0,,,,,,,sngl,resources/Empty.png,resources/DBN.BMP,Door3,0.250925912,0.021296289,1,0,0,0.4745,optionRight,70,8230,4,16,0,16,0,1,,,,,,,,,,,,,,,,,,,,,,,,,,,,,,,,,,,,,,,
,,,,,,,,2023-08-16_08h40.10.560,HF_wild_card,2022.2.4,Win32,60.14314067,640485331e13a7bfa4a43d46,64d2fd46c836a06233681665,64dc7d485c5711870ec86ce0,,,,,,,decisionTrl,resources/DR.BMP,resources/DBN.BMP,Door3,0.15370369,0.003703683,1,0,0,1.2118,optionRight,70,8300,4,17,0,17,0,1,,,,,,,,,,,,,,,,,,,,,,,,,,,,,,,,,,,,,,,
,,,,,,,,2023-08-16_08h40.10.560,HF_wild_card,2022.2.4,Win32,60.14314067,640485331e13a7bfa4a43d46,64d2fd46c836a06233681665,64dc7d485c5711870ec86ce0,,,,,,,decisionTrl,resources/DP.BMP,resources/DG.BMP,Door2,-0.290740755,-0.013888889,1,0,0,0.7073,optionLeft,40,8340,4,18,0,18,0,1,,,,,,,,,,,,,,,,,,,,,,,,,,,,,,,,,,,,,,,
,,,,,,,,2023-08-16_08h40.10.560,HF_wild_card,2022.2.4,Win32,60.14314067,640485331e13a7bfa4a43d46,64d2fd46c836a06233681665,64dc7d485c5711870ec86ce0,,,,,,,decisionTrl,resources/DG.BMP,resources/DP.BMP,WildCard_Ex,-0.145370342,-0.009259259,1,0,0,0.5248,optionLeft,45,8385,4,19,0,19,0,1,,,,,,,,,,,,,,,,,,,,,,,,,,,,,,,,,,,,,,,
,,,,,,,,2023-08-16_08h40.10.560,HF_wild_card,2022.2.4,Win32,60.14314067,640485331e13a7bfa4a43d46,64d2fd46c836a06233681665,64dc7d485c5711870ec86ce0,,,,,,,sngl,resources/DP.BMP,resources/Empty.png,Door2,-0.190740727,-0.011111118,1,0,0,0.7344,optionLeft,20,8405,4,20,0,20,0,1,,,,,,,,,,,,,,,,,,,,,,,,,,,,,,,,,,,,,,,
,,,,,,,,2023-08-16_08h40.10.560,HF_wild_card,2022.2.4,Win32,60.14314067,640485331e13a7bfa4a43d46,64d2fd46c836a06233681665,64dc7d485c5711870ec86ce0,,,,,,,decisionTrl,resources/DBN.BMP,resources/DR.BMP,Door3,-0.147222236,-0.01203703,1,0,0,1.2119,optionLeft,70,8475,4,21,0,21,0,1,,,,,,,,,,,,,,,,,,,,,,,,,,,,,,,,,,,,,,,
,,,,,,,,2023-08-16_08h40.10.560,HF_wild_card,2022.2.4,Win32,60.14314067,640485331e13a7bfa4a43d46,64d2fd46c836a06233681665,64dc7d485c5711870ec86ce0,,,,,,,ctch,resources/DP.BMP,resources/DBN.BMP,Door3,0.134259259,0.017592571,1,0,0,0.6241,optionRight,70,8545,4,22,0,22,0,1,,,,,,,,,,,,,,,,,,,,,,,,,,,,,,,,,,,,,,,
,,,,,,,,2023-08-16_08h40.10.560,HF_wild_card,2022.2.4,Win32,60.14314067,640485331e13a7bfa4a43d46,64d2fd46c836a06233681665,64dc7d485c5711870ec86ce0,,,,,,,sngl,resources/Empty.png,resources/DG.BMP,WildCard_Ex,0.165740755,0.010185171,1,0,0,0.7508,optionRight,55,8600,4,23,0,23,0,1,,,,,,,,,,,,,,,,,,,,,,,,,,,,,,,,,,,,,,,
,,,,,,,,2023-08-16_08h40.10.560,HF_wild_card,2022.2.4,Win32,60.14314067,640485331e13a7bfa4a43d46,64d2fd46c836a06233681665,64dc7d485c5711870ec86ce0,,,,,,,decisionTrl,resources/DP.BMP,resources/DB.BMP,Door1,0.23055557,0.003703683,1,0,0,2.2701,optionRight,30,8630,4,24,0,24,0,1,,,,,,,,,,,,,,,,,,,,,,,,,,,,,,,,,,,,,,,
,,,,,,,,2023-08-16_08h40.10.560,HF_wild_card,2022.2.4,Win32,60.14314067,640485331e13a7bfa4a43d46,64d2fd46c836a06233681665,64dc7d485c5711870ec86ce0,,,,,,,decisionTrl,resources/DBN.BMP,resources/DG.BMP,Door3,-0.220370328,0,1,0,0,1.5273,optionLeft,70,8700,4,25,0,25,0,1,,,,,,,,,,,,,,,,,,,,,,,,,,,,,,,,,,,,,,,
,,,,,,,,2023-08-16_08h40.10.560,HF_wild_card,2022.2.4,Win32,60.14314067,640485331e13a7bfa4a43d46,64d2fd46c836a06233681665,64dc7d485c5711870ec86ce0,,,,,,,sngl,resources/Empty.png,resources/DB.BMP,Door1,0.155555584,0.0074074,1,0,0,0.6299,optionRight,30,8730,4,26,0,26,0,1,,,,,,,,,,,,,,,,,,,,,,,,,,,,,,,,,,,,,,,
,,,,,,,,2023-08-16_08h40.10.560,HF_wild_card,2022.2.4,Win32,60.14314067,640485331e13a7bfa4a43d46,64d2fd46c836a06233681665,64dc7d485c5711870ec86ce0,,,,,,,sngl,resources/Empty.png,resources/DR.BMP,Door4,0.162037037,0.001851859,1,0,0,0.6008,optionRight,80,8810,4,27,0,27,0,1,,,,,,,,,,,,,,,,,,,,,,,,,,,,,,,,,,,,,,,
,,,,,,,,2023-08-16_08h40.10.560,HF_wild_card,2022.2.4,Win32,60.14314067,640485331e13a7bfa4a43d46,64d2fd46c836a06233681665,64dc7d485c5711870ec86ce0,,,,,,,decisionTrl,resources/DP.BMP,resources/DB.BMP,Door1,0.209259245,0.013888889,1,0,0,1.1617,optionRight,30,8840,4,28,0,28,0,1,,,,,,,,,,,,,,,,,,,,,,,,,,,,,,,,,,,,,,,
,,,,,,,,2023-08-16_08h40.10.560,HF_wild_card,2022.2.4,Win32,60.14314067,640485331e13a7bfa4a43d46,64d2fd46c836a06233681665,64dc7d485c5711870ec86ce0,,,,,,,decisionTrl,resources/DP.BMP,resources/DB.BMP,Door1,0.162037037,0.005555541,1,0,0,0.608,optionRight,30,8870,4,29,0,29,0,1,,,,,,,,,,,,,,,,,,,,,,,,,,,,,,,,,,,,,,,
,,,,,,,,2023-08-16_08h40.10.560,HF_wild_card,2022.2.4,Win32,60.14314067,640485331e13a7bfa4a43d46,64d2fd46c836a06233681665,64dc7d485c5711870ec86ce0,,,,,,,sngl,resources/DG.BMP,resources/Empty.png,WildCard_Ex,-0.289814772,-0.010185206,1,0,0,0.8621,optionLeft,55,8925,4,30,0,30,0,1,,,,,,,,,,,,,,,,,,,,,,,,,,,,,,,,,,,,,,,
,,,,,,,,2023-08-16_08h40.10.560,HF_wild_card,2022.2.4,Win32,60.14314067,640485331e13a7bfa4a43d46,64d2fd46c836a06233681665,64dc7d485c5711870ec86ce0,,,,,,,sngl,resources/DR.BMP,resources/Empty.png,Door4,-0.224999958,-0.006481489,1,0,0,0.4316,optionLeft,60,8985,4,31,0,31,0,1,,,,,,,,,,,,,,,,,,,,,,,,,,,,,,,,,,,,,,,
,,,,,,,,2023-08-16_08h40.10.560,HF_wild_card,2022.2.4,Win32,60.14314067,640485331e13a7bfa4a43d46,64d2fd46c836a06233681665,64dc7d485c5711870ec86ce0,,,,,,,decisionTrl,resources/DG.BMP,resources/DR.BMP,Door4,0.253703718,0.02407406,1,0,0,1.4612,optionRight,80,9065,4,32,0,32,0,1,,,,,,,,,,,,,,,,,,,,,,,,,,,,,,,,,,,,,,,
,,,,,,,,2023-08-16_08h40.10.560,HF_wild_card,2022.2.4,Win32,60.14314067,640485331e13a7bfa4a43d46,64d2fd46c836a06233681665,64dc7d485c5711870ec86ce0,,,,,,,ctch,resources/DBN.BMP,resources/DP.BMP,Door3,-0.147222236,-0.0074074,1,0,0,0.8459,optionLeft,70,9135,4,33,0,33,0,1,,,,,,,,,,,,,,,,,,,,,,,,,,,,,,,,,,,,,,,
,,,,,,,,2023-08-16_08h40.10.560,HF_wild_card,2022.2.4,Win32,60.14314067,640485331e13a7bfa4a43d46,64d2fd46c836a06233681665,64dc7d485c5711870ec86ce0,,,,,,,decisionTrl,resources/DB.BMP,resources/DG.BMP,WildCard_Ex,0.14444443,0.00462963,1,0,0,1.7437,optionRight,45,9180,4,34,0,34,0,1,,,,,,,,,,,,,,,,,,,,,,,,,,,,,,,,,,,,,,,
,,,,,,,,2023-08-16_08h40.10.560,HF_wild_card,2022.2.4,Win32,60.14314067,640485331e13a7bfa4a43d46,64d2fd46c836a06233681665,64dc7d485c5711870ec86ce0,,,,,,,decisionTrl,resources/DR.BMP,resources/DBN.BMP,Door3,0.100000028,0.002777771,1,0,0,1.4654,optionRight,70,9250,4,35,0,35,0,1,,,,,,,,,,,,,,,,,,,,,,,,,,,,,,,,,,,,,,,
,,,,,,,,2023-08-16_08h40.10.560,HF_wild_card,2022.2.4,Win32,60.14314067,640485331e13a7bfa4a43d46,64d2fd46c836a06233681665,64dc7d485c5711870ec86ce0,,,,,,,ctch,resources/DR.BMP,resources/DB.BMP,Door4,-0.194444444,-0.000925947,1,0,0,1.3777,optionLeft,80,9330,4,36,0,36,0,1,,,,,,,,,,,,,,,,,,,,,,,,,,,,,,,,,,,,,,,
,,,,,,,,2023-08-16_08h40.10.560,HF_wild_card,2022.2.4,Win32,60.14314067,640485331e13a7bfa4a43d46,64d2fd46c836a06233681665,64dc7d485c5711870ec86ce0,,,,,,,ctch,resources/DP.BMP,resources/DBN.BMP,Door3,0.175925926,0.010185171,1,0,0,1.0115,optionRight,70,9400,4,37,0,37,0,1,,,,,,,,,,,,,,,,,,,,,,,,,,,,,,,,,,,,,,,
,,,,,,,,2023-08-16_08h40.10.560,HF_wild_card,2022.2.4,Win32,60.14314067,640485331e13a7bfa4a43d46,64d2fd46c836a06233681665,64dc7d485c5711870ec86ce0,,,,,,,sngl,resources/DB.BMP,resources/Empty.png,Door1,-0.174074032,-0.005555577,1,0,0,1.0455,optionLeft,30,9430,4,38,0,38,0,1,,,,,,,,,,,,,,,,,,,,,,,,,,,,,,,,,,,,,,,
,,,,,,,,2023-08-16_08h40.10.560,HF_wild_card,2022.2.4,Win32,60.14314067,640485331e13a7bfa4a43d46,64d2fd46c836a06233681665,64dc7d485c5711870ec86ce0,,,,,,,decisionTrl,resources/DB.BMP,resources/DP.BMP,Door1,-0.233333305,-0.019444466,1,0,0,1.2785,optionLeft,30,9460,4,39,0,39,0,1,,,,,,,,,,,,,,,,,,,,,,,,,,,,,,,,,,,,,,,
,,,,,,,,2023-08-16_08h40.10.560,HF_wild_card,2022.2.4,Win32,60.14314067,640485331e13a7bfa4a43d46,64d2fd46c836a06233681665,64dc7d485c5711870ec86ce0,,,,,,,sngl,resources/Empty.png,resources/DP.BMP,Door2,0.14444443,0.01666666,1,0,0,0.502,optionRight,40,9500,4,40,0,40,0,1,,,,,,,,,,,,,,,,,,,,,,,,,,,,,,,,,,,,,,,
,,,,,,,,2023-08-16_08h40.10.560,HF_wild_card,2022.2.4,Win32,60.14314067,640485331e13a7bfa4a43d46,64d2fd46c836a06233681665,64dc7d485c5711870ec86ce0,,,,,,,sngl,resources/DBN.BMP,resources/Empty.png,Door3,-0.25,0.001851859,1,0,0,0.4636,optionLeft,70,9570,4,41,0,41,0,1,,,,,,,,,,,,,,,,,,,,,,,,,,,,,,,,,,,,,,,
,,,,,,,,2023-08-16_08h40.10.560,HF_wild_card,2022.2.4,Win32,60.14314067,640485331e13a7bfa4a43d46,64d2fd46c836a06233681665,64dc7d485c5711870ec86ce0,,,,,,,sngl,resources/DG.BMP,resources/Empty.png,WildCard_Ex,-0.133333347,-0.00462963,1,0,0,0.4291,optionLeft,45,9615,4,42,0,42,0,1,,,,,,,,,,,,,,,,,,,,,,,,,,,,,,,,,,,,,,,
,,,,,,,,2023-08-16_08h40.10.560,HF_wild_card,2022.2.4,Win32,60.14314067,640485331e13a7bfa4a43d46,64d2fd46c836a06233681665,64dc7d485c5711870ec86ce0,,,,,,,ctch,resources/DB.BMP,resources/DR.BMP,Door4,0.282407407,0.012962942,1,0,0,1.0508,optionRight,60,9675,4,43,0,43,0,1,,,,,,,,,,,,,,,,,,,,,,,,,,,,,,,,,,,,,,,
,,,,,,,,2023-08-16_08h40.10.560,HF_wild_card,2022.2.4,Win32,60.14314067,640485331e13a7bfa4a43d46,64d2fd46c836a06233681665,64dc7d485c5711870ec86ce0,,,,,,,,,,,,,,,,,,,,,,,,,,3,0,3,0,1,,,,,,,,,,,,,,,,,,,,,,,,,,,,,,,,,,
,,,,,,,,2023-08-16_08h40.10.560,HF_wild_card,2022.2.4,Win32,60.14314067,640485331e13a7bfa4a43d46,64d2fd46c836a06233681665,64dc7d485c5711870ec86ce0,,,,,,,decisionTrl,resources/DR.BMP,resources/DBN.BMP,Door3,0.169444473,0.0074074,1,0,0,1.1515,optionRight,70,9745,5,0,0,0,0,1,,,,,,,,,,,,,,,,,,,,,,,,,,,,,,,,,,,,,,,
,,,,,,,,2023-08-16_08h40.10.560,HF_wild_card,2022.2.4,Win32,60.14314067,640485331e13a7bfa4a43d46,64d2fd46c836a06233681665,64dc7d485c5711870ec86ce0,,,,,,,sngl,resources/Empty.png,resources/DP.BMP,Door2,0.146296325,-0.014814836,1,0,0,0.9126,optionRight,20,9765,5,1,0,1,0,1,,,,,,,,,,,,,,,,,,,,,,,,,,,,,,,,,,,,,,,
,,,,,,,,2023-08-16_08h40.10.560,HF_wild_card,2022.2.4,Win32,60.14314067,640485331e13a7bfa4a43d46,64d2fd46c836a06233681665,64dc7d485c5711870ec86ce0,,,,,,,decisionTrl,resources/DBN.BMP,resources/DR.BMP,Door3,-0.126851824,-0.021296289,1,0,0,0.8798,optionLeft,70,9835,5,2,0,2,0,1,,,,,,,,,,,,,,,,,,,,,,,,,,,,,,,,,,,,,,,
,,,,,,,,2023-08-16_08h40.10.560,HF_wild_card,2022.2.4,Win32,60.14314067,640485331e13a7bfa4a43d46,64d2fd46c836a06233681665,64dc7d485c5711870ec86ce0,,,,,,,decisionTrl,resources/DBN.BMP,resources/DR.BMP,Door3,-0.175000014,-0.01666666,1,0,0,0.5638,optionLeft,70,9905,5,3,0,3,0,1,,,,,,,,,,,,,,,,,,,,,,,,,,,,,,,,,,,,,,,
,,,,,,,,2023-08-16_08h40.10.560,HF_wild_card,2022.2.4,Win32,60.14314067,640485331e13a7bfa4a43d46,64d2fd46c836a06233681665,64dc7d485c5711870ec86ce0,,,,,,,decisionTrl,resources/DP.BMP,resources/DB.BMP,Door2,-0.148148148,-0.012962977,1,0,0,0.6513,optionLeft,40,9945,5,4,0,4,0,1,,,,,,,,,,,,,,,,,,,,,,,,,,,,,,,,,,,,,,,
,,,,,,,,2023-08-16_08h40.10.560,HF_wild_card,2022.2.4,Win32,60.14314067,640485331e13a7bfa4a43d46,64d2fd46c836a06233681665,64dc7d485c5711870ec86ce0,,,,,,,decisionTrl,resources/DBN.BMP,resources/DR.BMP,Door3,-0.14444443,-0.003703718,1,0,0,0.8951,optionLeft,70,10015,5,5,0,5,0,1,,,,,,,,,,,,,,,,,,,,,,,,,,,,,,,,,,,,,,,
,,,,,,,,2023-08-16_08h40.10.560,HF_wild_card,2022.2.4,Win32,60.14314067,640485331e13a7bfa4a43d46,64d2fd46c836a06233681665,64dc7d485c5711870ec86ce0,,,,,,,ctch,resources/DP.BMP,resources/DBN.BMP,Door3,0.126851894,0.023148148,1,0,0,0.6792,optionRight,70,10085,5,6,0,6,0,1,,,,,,,,,,,,,,,,,,,,,,,,,,,,,,,,,,,,,,,
,,,,,,,,2023-08-16_08h40.10.560,HF_wild_card,2022.2.4,Win32,60.14314067,640485331e13a7bfa4a43d46,64d2fd46c836a06233681665,64dc7d485c5711870ec86ce0,,,,,,,sngl,resources/DB.BMP,resources/Empty.png,Door1,-0.19722218,0.00462963,1,0,0,0.4472,optionLeft,30,10115,5,7,0,7,0,1,,,,,,,,,,,,,,,,,,,,,,,,,,,,,,,,,,,,,,,
,,,,,,,,2023-08-16_08h40.10.560,HF_wild_card,2022.2.4,Win32,60.14314067,640485331e13a7bfa4a43d46,64d2fd46c836a06233681665,64dc7d485c5711870ec86ce0,,,,,,,decisionTrl,resources/DG.BMP,resources/DB.BMP,WildCard_Ex,-0.14444443,-0.009259259,1,0,0,0.9898,optionLeft,45,10160,5,8,0,8,0,1,,,,,,,,,,,,,,,,,,,,,,,,,,,,,,,,,,,,,,,
,,,,,,,,2023-08-16_08h40.10.560,HF_wild_card,2022.2.4,Win32,60.14314067,640485331e13a7bfa4a43d46,64d2fd46c836a06233681665,64dc7d485c5711870ec86ce0,,,,,,,decisionTrl,resources/DP.BMP,resources/DB.BMP,Door1,0.262962977,0.045370349,1,0,0,1.511,optionRight,30,10190,5,9,0,9,0,1,,,,,,,,,,,,,,,,,,,,,,,,,,,,,,,,,,,,,,,
,,,,,,,,2023-08-16_08h40.10.560,HF_wild_card,2022.2.4,Win32,60.14314067,640485331e13a7bfa4a43d46,64d2fd46c836a06233681665,64dc7d485c5711870ec86ce0,,,,,,,ctch,resources/DR.BMP,resources/DB.BMP,Door4,-0.125925912,-0.025000007,1,0,0,0.9795,optionLeft,60,10250,5,10,0,10,0,1,,,,,,,,,,,,,,,,,,,,,,,,,,,,,,,,,,,,,,,
,,,,,,,,2023-08-16_08h40.10.560,HF_wild_card,2022.2.4,Win32,60.14314067,640485331e13a7bfa4a43d46,64d2fd46c836a06233681665,64dc7d485c5711870ec86ce0,,,,,,,decisionTrl,resources/DB.BMP,resources/DP.BMP,Door1,-0.088888875,-0.020370377,1,0,0,1.5768,optionLeft,30,10280,5,11,0,11,0,1,,,,,,,,,,,,,,,,,,,,,,,,,,,,,,,,,,,,,,,
,,,,,,,,2023-08-16_08h40.10.560,HF_wild_card,2022.2.4,Win32,60.14314067,640485331e13a7bfa4a43d46,64d2fd46c836a06233681665,64dc7d485c5711870ec86ce0,,,,,,,decisionTrl,resources/DB.BMP,resources/DP.BMP,Door1,-0.166666667,-0.022222236,1,0,0,0.8462,optionLeft,30,10310,5,12,0,12,0,1,,,,,,,,,,,,,,,,,,,,,,,,,,,,,,,,,,,,,,,
,,,,,,,,2023-08-16_08h40.10.560,HF_wild_card,2022.2.4,Win32,60.14314067,640485331e13a7bfa4a43d46,64d2fd46c836a06233681665,64dc7d485c5711870ec86ce0,,,,,,,decisionTrl,resources/DP.BMP,resources/DG.BMP,WildCard_Ex,0.162962949,-0.001851859,1,0,0,0.7463,optionRight,45,10355,5,13,0,13,0,1,,,,,,,,,,,,,,,,,,,,,,,,,,,,,,,,,,,,,,,
,,,,,,,,2023-08-16_08h40.10.560,HF_wild_card,2022.2.4,Win32,60.14314067,640485331e13a7bfa4a43d46,64d2fd46c836a06233681665,64dc7d485c5711870ec86ce0,,,,,,,decisionTrl,resources/DB.BMP,resources/DP.BMP,Door1,-0.15370369,-0.01666666,1,0,0,0.5969,optionLeft,30,10385,5,14,0,14,0,1,,,,,,,,,,,,,,,,,,,,,,,,,,,,,,,,,,,,,,,
,,,,,,,,2023-08-16_08h40.10.560,HF_wild_card,2022.2.4,Win32,60.14314067,640485331e13a7bfa4a43d46,64d2fd46c836a06233681665,64dc7d485c5711870ec86ce0,,,,,,,sngl,resources/DG.BMP,resources/Empty.png,WildCard_Ex,-0.266666624,-0.023148148,1,0,0,0.4131,optionLeft,45,10430,5,15,0,15,0,1,,,,,,,,,,,,,,,,,,,,,,,,,,,,,,,,,,,,,,,
,,,,,,,,2023-08-16_08h40.10.560,HF_wild_card,2022.2.4,Win32,60.14314067,640485331e13a7bfa4a43d46,64d2fd46c836a06233681665,64dc7d485c5711870ec86ce0,,,,,,,sngl,resources/Empty.png,resources/DG.BMP,WildCard_Ex,0.131481524,0.014814801,1,0,0,0.4626,optionRight,45,10475,5,16,0,16,0,1,,,,,,,,,,,,,,,,,,,,,,,,,,,,,,,,,,,,,,,
,,,,,,,,2023-08-16_08h40.10.560,HF_wild_card,2022.2.4,Win32,60.14314067,640485331e13a7bfa4a43d46,64d2fd46c836a06233681665,64dc7d485c5711870ec86ce0,,,,,,,decisionTrl,resources/DG.BMP,resources/DP.BMP,WildCard_Ex,-0.159259231,-0.010185206,1,0,0,0.4466,optionLeft,45,10520,5,17,0,17,0,1,,,,,,,,,,,,,,,,,,,,,,,,,,,,,,,,,,,,,,,
,,,,,,,,2023-08-16_08h40.10.560,HF_wild_card,2022.2.4,Win32,60.14314067,640485331e13a7bfa4a43d46,64d2fd46c836a06233681665,64dc7d485c5711870ec86ce0,,,,,,,decisionTrl,resources/DB.BMP,resources/DP.BMP,Door1,-0.155555513,-0.024074095,1,0,0,1.1617,optionLeft,30,10550,5,18,0,18,0,1,,,,,,,,,,,,,,,,,,,,,,,,,,,,,,,,,,,,,,,
,,,,,,,,2023-08-16_08h40.10.560,HF_wild_card,2022.2.4,Win32,60.14314067,640485331e13a7bfa4a43d46,64d2fd46c836a06233681665,64dc7d485c5711870ec86ce0,,,,,,,ctch,resources/DR.BMP,resources/DB.BMP,Door4,-0.137962977,-0.038888896,1,0,0,1.4277,optionLeft,80,10630,5,19,0,19,0,1,,,,,,,,,,,,,,,,,,,,,,,,,,,,,,,,,,,,,,,
,,,,,,,,2023-08-16_08h40.10.560,HF_wild_card,2022.2.4,Win32,60.14314067,640485331e13a7bfa4a43d46,64d2fd46c836a06233681665,64dc7d485c5711870ec86ce0,,,,,,,ctch,resources/DB.BMP,resources/DR.BMP,Door4,0.190740727,-0.01203703,1,0,0,1.5083,optionRight,80,10710,5,20,0,20,0,1,,,,,,,,,,,,,,,,,,,,,,,,,,,,,,,,,,,,,,,
,,,,,,,,2023-08-16_08h40.10.560,HF_wild_card,2022.2.4,Win32,60.14314067,640485331e13a7bfa4a43d46,64d2fd46c836a06233681665,64dc7d485c5711870ec86ce0,,,,,,,decisionTrl,resources/DBN.BMP,resources/DG.BMP,Door3,-0.209259245,-0.020370377,1,0,0,1.2269,optionLeft,70,10780,5,21,0,21,0,1,,,,,,,,,,,,,,,,,,,,,,,,,,,,,,,,,,,,,,,
,,,,,,,,2023-08-16_08h40.10.560,HF_wild_card,2022.2.4,Win32,60.14314067,640485331e13a7bfa4a43d46,64d2fd46c836a06233681665,64dc7d485c5711870ec86ce0,,,,,,,sngl,resources/Empty.png,resources/DG.BMP,WildCard_Ex,0.145370413,0.002777771,1,0,0,0.6676,optionRight,55,10835,5,22,0,22,0,1,,,,,,,,,,,,,,,,,,,,,,,,,,,,,,,,,,,,,,,
,,,,,,,,2023-08-16_08h40.10.560,HF_wild_card,2022.2.4,Win32,60.14314067,640485331e13a7bfa4a43d46,64d2fd46c836a06233681665,64dc7d485c5711870ec86ce0,,,,,,,sngl,resources/Empty.png,resources/DBN.BMP,Door3,0.119444459,0.002777771,1,0,0,0.5796,optionRight,70,10905,5,23,0,23,0,1,,,,,,,,,,,,,,,,,,,,,,,,,,,,,,,,,,,,,,,
,,,,,,,,2023-08-16_08h40.10.560,HF_wild_card,2022.2.4,Win32,60.14314067,640485331e13a7bfa4a43d46,64d2fd46c836a06233681665,64dc7d485c5711870ec86ce0,,,,,,,sngl,resources/Empty.png,resources/DB.BMP,Door1,0.159259302,0.003703683,1,0,0,0.7958,optionRight,30,10935,5,24,0,24,0,1,,,,,,,,,,,,,,,,,,,,,,,,,,,,,,,,,,,,,,,
,,,,,,,,2023-08-16_08h40.10.560,HF_wild_card,2022.2.4,Win32,60.14314067,640485331e13a7bfa4a43d46,64d2fd46c836a06233681665,64dc7d485c5711870ec86ce0,,,,,,,sngl,resources/Empty.png,resources/DR.BMP,Door4,0.136111153,0.009259259,1,0,0,0.4803,optionRight,60,10995,5,25,0,25,0,1,,,,,,,,,,,,,,,,,,,,,,,,,,,,,,,,,,,,,,,
,,,,,,,,2023-08-16_08h40.10.560,HF_wild_card,2022.2.4,Win32,60.14314067,640485331e13a7bfa4a43d46,64d2fd46c836a06233681665,64dc7d485c5711870ec86ce0,,,,,,,sngl,resources/DBN.BMP,resources/Empty.png,Door3,-0.17777775,-0.012962977,1,0,0,0.4634,optionLeft,70,11065,5,26,0,26,0,1,,,,,,,,,,,,,,,,,,,,,,,,,,,,,,,,,,,,,,,
,,,,,,,,2023-08-16_08h40.10.560,HF_wild_card,2022.2.4,Win32,60.14314067,640485331e13a7bfa4a43d46,64d2fd46c836a06233681665,64dc7d485c5711870ec86ce0,,,,,,,sngl,resources/DP.BMP,resources/Empty.png,Door2,-0.136111083,-0.017592607,1,0,0,0.8294,optionLeft,40,11105,5,27,0,27,0,1,,,,,,,,,,,,,,,,,,,,,,,,,,,,,,,,,,,,,,,
,,,,,,,,2023-08-16_08h40.10.560,HF_wild_card,2022.2.4,Win32,60.14314067,640485331e13a7bfa4a43d46,64d2fd46c836a06233681665,64dc7d485c5711870ec86ce0,,,,,,,decisionTrl,resources/DB.BMP,resources/DG.BMP,WildCard_Ex,0.108333376,0.011111118,1,0,0,1.112,optionRight,45,11150,5,28,0,28,0,1,,,,,,,,,,,,,,,,,,,,,,,,,,,,,,,,,,,,,,,
,,,,,,,,2023-08-16_08h40.10.560,HF_wild_card,2022.2.4,Win32,60.14314067,640485331e13a7bfa4a43d46,64d2fd46c836a06233681665,64dc7d485c5711870ec86ce0,,,,,,,decisionTrl,resources/DP.BMP,resources/DB.BMP,Door1,0.108333376,0.0074074,1,0,0,1.8314,optionRight,30,11180,5,29,0,29,0,1,,,,,,,,,,,,,,,,,,,,,,,,,,,,,,,,,,,,,,,
,,,,,,,,2023-08-16_08h40.10.560,HF_wild_card,2022.2.4,Win32,60.14314067,640485331e13a7bfa4a43d46,64d2fd46c836a06233681665,64dc7d485c5711870ec86ce0,,,,,,,ctch,resources/DBN.BMP,resources/DP.BMP,Door3,-0.283333319,0.008333312,1,0,0,0.7675,optionLeft,70,11250,5,30,0,30,0,1,,,,,,,,,,,,,,,,,,,,,,,,,,,,,,,,,,,,,,,
,,,,,,,,2023-08-16_08h40.10.560,HF_wild_card,2022.2.4,Win32,60.14314067,640485331e13a7bfa4a43d46,64d2fd46c836a06233681665,64dc7d485c5711870ec86ce0,,,,,,,decisionTrl,resources/DR.BMP,resources/DBN.BMP,Door3,0.162037037,0.011111118,1,0,0,1.5105,optionRight,70,11320,5,31,0,31,0,1,,,,,,,,,,,,,,,,,,,,,,,,,,,,,,,,,,,,,,,
,,,,,,,,2023-08-16_08h40.10.560,HF_wild_card,2022.2.4,Win32,60.14314067,640485331e13a7bfa4a43d46,64d2fd46c836a06233681665,64dc7d485c5711870ec86ce0,,,,,,,ctch,resources/DBN.BMP,resources/DP.BMP,Door3,-0.172222208,-0.024074095,1,0,0,0.7133,optionLeft,70,11390,5,32,0,32,0,1,,,,,,,,,,,,,,,,,,,,,,,,,,,,,,,,,,,,,,,
,,,,,,,,2023-08-16_08h40.10.560,HF_wild_card,2022.2.4,Win32,60.14314067,640485331e13a7bfa4a43d46,64d2fd46c836a06233681665,64dc7d485c5711870ec86ce0,,,,,,,decisionTrl,resources/DP.BMP,resources/DB.BMP,Door1,0.166666667,0.002777771,1,0,0,1.5217,optionRight,30,11420,5,33,0,33,0,1,,,,,,,,,,,,,,,,,,,,,,,,,,,,,,,,,,,,,,,
,,,,,,,,2023-08-16_08h40.10.560,HF_wild_card,2022.2.4,Win32,60.14314067,640485331e13a7bfa4a43d46,64d2fd46c836a06233681665,64dc7d485c5711870ec86ce0,,,,,,,decisionTrl,resources/DR.BMP,resources/DBN.BMP,Door3,0.174074102,-0.000925947,1,0,0,1.2496,optionRight,70,11490,5,34,0,34,0,1,,,,,,,,,,,,,,,,,,,,,,,,,,,,,,,,,,,,,,,
,,,,,,,,2023-08-16_08h40.10.560,HF_wild_card,2022.2.4,Win32,60.14314067,640485331e13a7bfa4a43d46,64d2fd46c836a06233681665,64dc7d485c5711870ec86ce0,,,,,,,decisionTrl,resources/DR.BMP,resources/DBN.BMP,Door3,0.12962963,0.00462963,1,0,0,0.6297,optionRight,70,11560,5,35,0,35,0,1,,,,,,,,,,,,,,,,,,,,,,,,,,,,,,,,,,,,,,,
,,,,,,,,2023-08-16_08h40.10.560,HF_wild_card,2022.2.4,Win32,60.14314067,640485331e13a7bfa4a43d46,64d2fd46c836a06233681665,64dc7d485c5711870ec86ce0,,,,,,,decisionTrl,resources/DG.BMP,resources/DR.BMP,Door4,0.175925926,0.006481489,1,0,0,0.8623,optionRight,80,11640,5,36,0,36,0,1,,,,,,,,,,,,,,,,,,,,,,,,,,,,,,,,,,,,,,,
,,,,,,,,2023-08-16_08h40.10.560,HF_wild_card,2022.2.4,Win32,60.14314067,640485331e13a7bfa4a43d46,64d2fd46c836a06233681665,64dc7d485c5711870ec86ce0,,,,,,,sngl,resources/DR.BMP,resources/Empty.png,Door4,-0.142592607,0.000925912,1,0,0,0.4357,optionLeft,80,11720,5,37,0,37,0,1,,,,,,,,,,,,,,,,,,,,,,,,,,,,,,,,,,,,,,,
,,,,,,,,2023-08-16_08h40.10.560,HF_wild_card,2022.2.4,Win32,60.14314067,640485331e13a7bfa4a43d46,64d2fd46c836a06233681665,64dc7d485c5711870ec86ce0,,,,,,,decisionTrl,resources/DBN.BMP,resources/DR.BMP,Door4,0.168518561,0.002777771,1,0,0,0.4633,optionRight,80,11800,5,38,0,38,0,1,,,,,,,,,,,,,,,,,,,,,,,,,,,,,,,,,,,,,,,
,,,,,,,,2023-08-16_08h40.10.560,HF_wild_card,2022.2.4,Win32,60.14314067,640485331e13a7bfa4a43d46,64d2fd46c836a06233681665,64dc7d485c5711870ec86ce0,,,,,,,ctch,resources/DP.BMP,resources/DBN.BMP,Door3,0.150000042,0.002777771,1,0,0,0.6017,optionRight,70,11870,5,39,0,39,0,1,,,,,,,,,,,,,,,,,,,,,,,,,,,,,,,,,,,,,,,
,,,,,,,,2023-08-16_08h40.10.560,HF_wild_card,2022.2.4,Win32,60.14314067,640485331e13a7bfa4a43d46,64d2fd46c836a06233681665,64dc7d485c5711870ec86ce0,,,,,,,ctch,resources/DB.BMP,resources/DR.BMP,Door4,0.163888931,0.012962942,1,0,0,0.5471,optionRight,80,11950,5,40,0,40,0,1,,,,,,,,,,,,,,,,,,,,,,,,,,,,,,,,,,,,,,,
,,,,,,,,2023-08-16_08h40.10.560,HF_wild_card,2022.2.4,Win32,60.14314067,640485331e13a7bfa4a43d46,64d2fd46c836a06233681665,64dc7d485c5711870ec86ce0,,,,,,,decisionTrl,resources/DR.BMP,resources/DG.BMP,Door4,-0.137962977,-0.011111118,1,0,0,0.4582,optionLeft,80,12030,5,41,0,41,0,1,,,,,,,,,,,,,,,,,,,,,,,,,,,,,,,,,,,,,,,
,,,,,,,,2023-08-16_08h40.10.560,HF_wild_card,2022.2.4,Win32,60.14314067,640485331e13a7bfa4a43d46,64d2fd46c836a06233681665,64dc7d485c5711870ec86ce0,,,,,,,decisionTrl,resources/DG.BMP,resources/DBN.BMP,Door3,0.141666695,0.0074074,1,0,0,0.6414,optionRight,70,12100,5,42,0,42,0,1,,,,,,,,,,,,,,,,,,,,,,,,,,,,,,,,,,,,,,,
,,,,,,,,2023-08-16_08h40.10.560,HF_wild_card,2022.2.4,Win32,60.14314067,640485331e13a7bfa4a43d46,64d2fd46c836a06233681665,64dc7d485c5711870ec86ce0,,,,,,,sngl,resources/DG.BMP,resources/Empty.png,WildCard_Ex,-0.159259231,-0.002777771,1,0,0,0.4473,optionLeft,55,12155,5,43,0,43,0,1,,,,,,,,,,,,,,,,,,,,,,,,,,,,,,,,,,,,,,,
,,,,,,,,2023-08-16_08h40.10.560,HF_wild_card,2022.2.4,Win32,60.14314067,640485331e13a7bfa4a43d46,64d2fd46c836a06233681665,64dc7d485c5711870ec86ce0,,,,,,,,,,,,,,,,,,,,,,,,,,4,0,4,0,1,,,,,,,,,,,,,,,,,,,,,,,,,,,,,,,,,,
,,,,,,,,2023-08-16_08h40.10.560,HF_wild_card,2022.2.4,Win32,60.14314067,640485331e13a7bfa4a43d46,64d2fd46c836a06233681665,64dc7d485c5711870ec86ce0,,,,,,,decisionTrl,resources/DR.BMP,resources/DG.BMP,Door4,-0.148148148,-0.056481503,1,0,0,0.82,optionLeft,60,12215,6,0,0,0,0,1,,,,,,,,,,,,,,,,,,,,,,,,,,,,,,,,,,,,,,,
,,,,,,,,2023-08-16_08h40.10.560,HF_wild_card,2022.2.4,Win32,60.14314067,640485331e13a7bfa4a43d46,64d2fd46c836a06233681665,64dc7d485c5711870ec86ce0,,,,,,,decisionTrl,resources/DP.BMP,resources/DB.BMP,Door1,0.089814857,-0.010185206,1,0,0,1.0296,optionRight,30,12245,6,1,0,1,0,1,,,,,,,,,,,,,,,,,,,,,,,,,,,,,,,,,,,,,,,
,,,,,,,,2023-08-16_08h40.10.560,HF_wild_card,2022.2.4,Win32,60.14314067,640485331e13a7bfa4a43d46,64d2fd46c836a06233681665,64dc7d485c5711870ec86ce0,,,,,,,decisionTrl,resources/DBN.BMP,resources/DR.BMP,Door4,0.318518603,-0.010185206,1,0,0,0.9291,optionRight,80,12325,6,2,0,2,0,1,,,,,,,,,,,,,,,,,,,,,,,,,,,,,,,,,,,,,,,
,,,,,,,,2023-08-16_08h40.10.560,HF_wild_card,2022.2.4,Win32,60.14314067,640485331e13a7bfa4a43d46,64d2fd46c836a06233681665,64dc7d485c5711870ec86ce0,,,,,,,sngl,resources/DB.BMP,resources/Empty.png,Door1,-0.135185171,-0.01666666,1,0,0,0.6297,optionLeft,30,12355,6,3,0,3,0,1,,,,,,,,,,,,,,,,,,,,,,,,,,,,,,,,,,,,,,,
,,,,,,,,2023-08-16_08h40.10.560,HF_wild_card,2022.2.4,Win32,60.14314067,640485331e13a7bfa4a43d46,64d2fd46c836a06233681665,64dc7d485c5711870ec86ce0,,,,,,,ctch,resources/DP.BMP,resources/DBN.BMP,Door3,0.220370399,0.030555548,1,0,0,0.6801,optionRight,70,12425,6,4,0,4,0,1,,,,,,,,,,,,,,,,,,,,,,,,,,,,,,,,,,,,,,,
,,,,,,,,2023-08-16_08h40.10.560,HF_wild_card,2022.2.4,Win32,60.14314067,640485331e13a7bfa4a43d46,64d2fd46c836a06233681665,64dc7d485c5711870ec86ce0,,,,,,,sngl,resources/Empty.png,resources/DG.BMP,WildCard_Ex,0.193518533,0.03148146,1,0,0,0.4586,optionRight,55,12480,6,5,0,5,0,1,,,,,,,,,,,,,,,,,,,,,,,,,,,,,,,,,,,,,,,
,,,,,,,,2023-08-16_08h40.10.560,HF_wild_card,2022.2.4,Win32,60.14314067,640485331e13a7bfa4a43d46,64d2fd46c836a06233681665,64dc7d485c5711870ec86ce0,,,,,,,decisionTrl,resources/DP.BMP,resources/DB.BMP,Door1,0.181481467,0.02407406,1,0,0,1.5215,optionRight,30,12510,6,6,0,6,0,1,,,,,,,,,,,,,,,,,,,,,,,,,,,,,,,,,,,,,,,
,,,,,,,,2023-08-16_08h40.10.560,HF_wild_card,2022.2.4,Win32,60.14314067,640485331e13a7bfa4a43d46,64d2fd46c836a06233681665,64dc7d485c5711870ec86ce0,,,,,,,ctch,resources/DBN.BMP,resources/DP.BMP,Door3,-0.121296282,0.008333312,1,0,0,0.4579,optionLeft,70,12580,6,7,0,7,0,1,,,,,,,,,,,,,,,,,,,,,,,,,,,,,,,,,,,,,,,
,,,,,,,,2023-08-16_08h40.10.560,HF_wild_card,2022.2.4,Win32,60.14314067,640485331e13a7bfa4a43d46,64d2fd46c836a06233681665,64dc7d485c5711870ec86ce0,,,,,,,sngl,resources/DG.BMP,resources/Empty.png,WildCard_Ex,-0.137036995,0.000925912,1,0,0,0.3967,optionLeft,55,12635,6,8,0,8,0,1,,,,,,,,,,,,,,,,,,,,,,,,,,,,,,,,,,,,,,,
,,,,,,,,2023-08-16_08h40.10.560,HF_wild_card,2022.2.4,Win32,60.14314067,640485331e13a7bfa4a43d46,64d2fd46c836a06233681665,64dc7d485c5711870ec86ce0,,,,,,,decisionTrl,resources/DB.BMP,resources/DP.BMP,Door1,-0.118518476,0.002777771,1,0,0,1.2951,optionLeft,30,12665,6,9,0,9,0,1,,,,,,,,,,,,,,,,,,,,,,,,,,,,,,,,,,,,,,,
,,,,,,,,2023-08-16_08h40.10.560,HF_wild_card,2022.2.4,Win32,60.14314067,640485331e13a7bfa4a43d46,64d2fd46c836a06233681665,64dc7d485c5711870ec86ce0,,,,,,,sngl,resources/DG.BMP,resources/Empty.png,WildCard_Ex,-0.157407407,-0.010185206,1,0,0,0.4806,optionLeft,45,12710,6,10,0,10,0,1,,,,,,,,,,,,,,,,,,,,,,,,,,,,,,,,,,,,,,,
,,,,,,,,2023-08-16_08h40.10.560,HF_wild_card,2022.2.4,Win32,60.14314067,640485331e13a7bfa4a43d46,64d2fd46c836a06233681665,64dc7d485c5711870ec86ce0,,,,,,,ctch,resources/DR.BMP,resources/DB.BMP,Door4,-0.194444444,-0.006481489,1,0,0,0.7964,optionLeft,60,12770,6,11,0,11,0,1,,,,,,,,,,,,,,,,,,,,,,,,,,,,,,,,,,,,,,,
,,,,,,,,2023-08-16_08h40.10.560,HF_wild_card,2022.2.4,Win32,60.14314067,640485331e13a7bfa4a43d46,64d2fd46c836a06233681665,64dc7d485c5711870ec86ce0,,,,,,,decisionTrl,resources/DP.BMP,resources/DG.BMP,WildCard_Ex,0.178703732,0.002777771,1,0,0,0.8461,optionRight,55,12825,6,12,0,12,0,1,,,,,,,,,,,,,,,,,,,,,,,,,,,,,,,,,,,,,,,
,,,,,,,,2023-08-16_08h40.10.560,HF_wild_card,2022.2.4,Win32,60.14314067,640485331e13a7bfa4a43d46,64d2fd46c836a06233681665,64dc7d485c5711870ec86ce0,,,,,,,sngl,resources/Empty.png,resources/DR.BMP,Door4,0.175925926,-0.000925947,1,0,0,0.5186,optionRight,80,12905,6,13,0,13,0,1,,,,,,,,,,,,,,,,,,,,,,,,,,,,,,,,,,,,,,,
,,,,,,,,2023-08-16_08h40.10.560,HF_wild_card,2022.2.4,Win32,60.14314067,640485331e13a7bfa4a43d46,64d2fd46c836a06233681665,64dc7d485c5711870ec86ce0,,,,,,,decisionTrl,resources/DB.BMP,resources/DG.BMP,WildCard_Ex,0.163888931,0.011111118,1,0,0,0.655,optionRight,55,12960,6,14,0,14,0,1,,,,,,,,,,,,,,,,,,,,,,,,,,,,,,,,,,,,,,,
,,,,,,,,2023-08-16_08h40.10.560,HF_wild_card,2022.2.4,Win32,60.14314067,640485331e13a7bfa4a43d46,64d2fd46c836a06233681665,64dc7d485c5711870ec86ce0,,,,,,,decisionTrl,resources/DBN.BMP,resources/DR.BMP,Door3,-0.122222194,-0.013888889,1,0,0,0.996,optionLeft,70,13030,6,15,0,15,0,1,,,,,,,,,,,,,,,,,,,,,,,,,,,,,,,,,,,,,,,
,,,,,,,,2023-08-16_08h40.10.560,HF_wild_card,2022.2.4,Win32,60.14314067,640485331e13a7bfa4a43d46,64d2fd46c836a06233681665,64dc7d485c5711870ec86ce0,,,,,,,sngl,resources/Empty.png,resources/DG.BMP,WildCard_Ex,0.121296282,0.002777771,1,0,0,0.6133,optionRight,45,13075,6,16,0,16,0,1,,,,,,,,,,,,,,,,,,,,,,,,,,,,,,,,,,,,,,,
,,,,,,,,2023-08-16_08h40.10.560,HF_wild_card,2022.2.4,Win32,60.14314067,640485331e13a7bfa4a43d46,64d2fd46c836a06233681665,64dc7d485c5711870ec86ce0,,,,,,,ctch,resources/DBN.BMP,resources/DP.BMP,Door3,-0.134259259,-0.003703718,1,0,0,0.4579,optionLeft,70,13145,6,17,0,17,0,1,,,,,,,,,,,,,,,,,,,,,,,,,,,,,,,,,,,,,,,
,,,,,,,,2023-08-16_08h40.10.560,HF_wild_card,2022.2.4,Win32,60.14314067,640485331e13a7bfa4a43d46,64d2fd46c836a06233681665,64dc7d485c5711870ec86ce0,,,,,,,decisionTrl,resources/DB.BMP,resources/DP.BMP,Door2,0.131481524,-0.005555577,1,0,0,0.9958,optionRight,40,13185,6,18,0,18,0,1,,,,,,,,,,,,,,,,,,,,,,,,,,,,,,,,,,,,,,,
,,,,,,,,2023-08-16_08h40.10.560,HF_wild_card,2022.2.4,Win32,60.14314067,640485331e13a7bfa4a43d46,64d2fd46c836a06233681665,64dc7d485c5711870ec86ce0,,,,,,,decisionTrl,resources/DR.BMP,resources/DBN.BMP,Door4,-0.141666624,-0.022222236,1,0,0,0.8627,optionLeft,60,13245,6,19,0,19,0,1,,,,,,,,,,,,,,,,,,,,,,,,,,,,,,,,,,,,,,,
,,,,,,,,2023-08-16_08h40.10.560,HF_wild_card,2022.2.4,Win32,60.14314067,640485331e13a7bfa4a43d46,64d2fd46c836a06233681665,64dc7d485c5711870ec86ce0,,,,,,,decisionTrl,resources/DR.BMP,resources/DBN.BMP,Door3,0.122222265,-0.0074074,1,0,0,0.4971,optionRight,70,13315,6,20,0,20,0,1,,,,,,,,,,,,,,,,,,,,,,,,,,,,,,,,,,,,,,,
,,,,,,,,2023-08-16_08h40.10.560,HF_wild_card,2022.2.4,Win32,60.14314067,640485331e13a7bfa4a43d46,64d2fd46c836a06233681665,64dc7d485c5711870ec86ce0,,,,,,,sngl,resources/DR.BMP,resources/Empty.png,Door4,-0.203703704,-0.020370377,1,0,0,0.4145,optionLeft,60,13375,6,21,0,21,0,1,,,,,,,,,,,,,,,,,,,,,,,,,,,,,,,,,,,,,,,
,,,,,,,,2023-08-16_08h40.10.560,HF_wild_card,2022.2.4,Win32,60.14314067,640485331e13a7bfa4a43d46,64d2fd46c836a06233681665,64dc7d485c5711870ec86ce0,,,,,,,decisionTrl,resources/DB.BMP,resources/DP.BMP,Door1,-0.172222208,-0.021296289,1,0,0,0.651,optionLeft,30,13405,6,22,0,22,0,1,,,,,,,,,,,,,,,,,,,,,,,,,,,,,,,,,,,,,,,
,,,,,,,,2023-08-16_08h40.10.560,HF_wild_card,2022.2.4,Win32,60.14314067,640485331e13a7bfa4a43d46,64d2fd46c836a06233681665,64dc7d485c5711870ec86ce0,,,,,,,decisionTrl,resources/DG.BMP,resources/DB.BMP,WildCard_Ex,-0.114814829,-0.010185206,1,0,0,0.9292,optionLeft,55,13460,6,23,0,23,0,1,,,,,,,,,,,,,,,,,,,,,,,,,,,,,,,,,,,,,,,
,,,,,,,,2023-08-16_08h40.10.560,HF_wild_card,2022.2.4,Win32,60.14314067,640485331e13a7bfa4a43d46,64d2fd46c836a06233681665,64dc7d485c5711870ec86ce0,,,,,,,decisionTrl,resources/DG.BMP,resources/DBN.BMP,WildCard_Ex,-0.160185143,-0.012962977,1,0,0,0.4751,optionLeft,45,13505,6,24,0,24,0,1,,,,,,,,,,,,,,,,,,,,,,,,,,,,,,,,,,,,,,,
,,,,,,,,2023-08-16_08h40.10.560,HF_wild_card,2022.2.4,Win32,60.14314067,640485331e13a7bfa4a43d46,64d2fd46c836a06233681665,64dc7d485c5711870ec86ce0,,,,,,,sngl,resources/Empty.png,resources/DB.BMP,Door1,0.191666709,-0.002777771,1,0,0,0.9342,optionRight,30,13535,6,25,0,25,0,1,,,,,,,,,,,,,,,,,,,,,,,,,,,,,,,,,,,,,,,
,,,,,,,,2023-08-16_08h40.10.560,HF_wild_card,2022.2.4,Win32,60.14314067,640485331e13a7bfa4a43d46,64d2fd46c836a06233681665,64dc7d485c5711870ec86ce0,,,,,,,decisionTrl,resources/DBN.BMP,resources/DR.BMP,Door4,0.220370399,0.010185171,1,0,0,1.4278,optionRight,80,13615,6,26,0,26,0,1,,,,,,,,,,,,,,,,,,,,,,,,,,,,,,,,,,,,,,,
,,,,,,,,2023-08-16_08h40.10.560,HF_wild_card,2022.2.4,Win32,60.14314067,640485331e13a7bfa4a43d46,64d2fd46c836a06233681665,64dc7d485c5711870ec86ce0,,,,,,,decisionTrl,resources/DR.BMP,resources/DBN.BMP,Door3,0.185185185,0.01203703,1,0,0,0.8793,optionRight,70,13685,6,27,0,27,0,1,,,,,,,,,,,,,,,,,,,,,,,,,,,,,,,,,,,,,,,
,,,,,,,,2023-08-16_08h40.10.560,HF_wild_card,2022.2.4,Win32,60.14314067,640485331e13a7bfa4a43d46,64d2fd46c836a06233681665,64dc7d485c5711870ec86ce0,,,,,,,sngl,resources/Empty.png,resources/DP.BMP,Door2,0.189814815,0.009259259,1,0,0,0.6962,optionRight,40,13725,6,28,0,28,0,1,,,,,,,,,,,,,,,,,,,,,,,,,,,,,,,,,,,,,,,
,,,,,,,,2023-08-16_08h40.10.560,HF_wild_card,2022.2.4,Win32,60.14314067,640485331e13a7bfa4a43d46,64d2fd46c836a06233681665,64dc7d485c5711870ec86ce0,,,,,,,decisionTrl,resources/DG.BMP,resources/DP.BMP,WildCard_Ex,-0.103703675,-0.001851859,1,0,0,0.6467,optionLeft,45,13770,6,29,0,29,0,1,,,,,,,,,,,,,,,,,,,,,,,,,,,,,,,,,,,,,,,
,,,,,,,,2023-08-16_08h40.10.560,HF_wild_card,2022.2.4,Win32,60.14314067,640485331e13a7bfa4a43d46,64d2fd46c836a06233681665,64dc7d485c5711870ec86ce0,,,,,,,ctch,resources/DR.BMP,resources/DB.BMP,Door4,-0.142592607,-0.009259259,1,0,0,1.2785,optionLeft,60,13830,6,30,0,30,0,1,,,,,,,,,,,,,,,,,,,,,,,,,,,,,,,,,,,,,,,
,,,,,,,,2023-08-16_08h40.10.560,HF_wild_card,2022.2.4,Win32,60.14314067,640485331e13a7bfa4a43d46,64d2fd46c836a06233681665,64dc7d485c5711870ec86ce0,,,,,,,decisionTrl,resources/DP.BMP,resources/DB.BMP,Door1,0.15370369,0.003703683,1,0,0,1.3283,optionRight,30,13860,6,31,0,31,0,1,,,,,,,,,,,,,,,,,,,,,,,,,,,,,,,,,,,,,,,
,,,,,,,,2023-08-16_08h40.10.560,HF_wild_card,2022.2.4,Win32,60.14314067,640485331e13a7bfa4a43d46,64d2fd46c836a06233681665,64dc7d485c5711870ec86ce0,,,,,,,ctch,resources/DP.BMP,resources/DBN.BMP,Door3,0.157407407,0.027777778,1,0,0,0.8832,optionRight,70,13930,6,32,0,32,0,1,,,,,,,,,,,,,,,,,,,,,,,,,,,,,,,,,,,,,,,
,,,,,,,,2023-08-16_08h40.10.560,HF_wild_card,2022.2.4,Win32,60.14314067,640485331e13a7bfa4a43d46,64d2fd46c836a06233681665,64dc7d485c5711870ec86ce0,,,,,,,decisionTrl,resources/DBN.BMP,resources/DG.BMP,Door3,-0.103703675,-0.002777771,1,0,0,1.1287,optionLeft,70,14000,6,33,0,33,0,1,,,,,,,,,,,,,,,,,,,,,,,,,,,,,,,,,,,,,,,
,,,,,,,,2023-08-16_08h40.10.560,HF_wild_card,2022.2.4,Win32,60.14314067,640485331e13a7bfa4a43d46,64d2fd46c836a06233681665,64dc7d485c5711870ec86ce0,,,,,,,ctch,resources/DB.BMP,resources/DR.BMP,Door4,0.167592578,-0.002777771,1,0,0,0.8793,optionRight,80,14080,6,34,0,34,0,1,,,,,,,,,,,,,,,,,,,,,,,,,,,,,,,,,,,,,,,
,,,,,,,,2023-08-16_08h40.10.560,HF_wild_card,2022.2.4,Win32,60.14314067,640485331e13a7bfa4a43d46,64d2fd46c836a06233681665,64dc7d485c5711870ec86ce0,,,,,,,sngl,resources/DBN.BMP,resources/Empty.png,Door3,-0.112962935,-0.0074074,1,0,0,0.6456,optionLeft,70,14150,6,35,0,35,0,1,,,,,,,,,,,,,,,,,,,,,,,,,,,,,,,,,,,,,,,
,,,,,,,,2023-08-16_08h40.10.560,HF_wild_card,2022.2.4,Win32,60.14314067,640485331e13a7bfa4a43d46,64d2fd46c836a06233681665,64dc7d485c5711870ec86ce0,,,,,,,decisionTrl,resources/DBN.BMP,resources/DR.BMP,Door4,0.162037037,-0.008333347,1,0,0,1.6938,optionRight,60,14210,6,36,0,36,0,1,,,,,,,,,,,,,,,,,,,,,,,,,,,,,,,,,,,,,,,
,,,,,,,,2023-08-16_08h40.10.560,HF_wild_card,2022.2.4,Win32,60.14314067,640485331e13a7bfa4a43d46,64d2fd46c836a06233681665,64dc7d485c5711870ec86ce0,,,,,,,decisionTrl,resources/DP.BMP,resources/DB.BMP,Door1,0.167592578,0.001851859,1,0,0,1.4915,optionRight,30,14240,6,37,0,37,0,1,,,,,,,,,,,,,,,,,,,,,,,,,,,,,,,,,,,,,,,
,,,,,,,,2023-08-16_08h40.10.560,HF_wild_card,2022.2.4,Win32,60.14314067,640485331e13a7bfa4a43d46,64d2fd46c836a06233681665,64dc7d485c5711870ec86ce0,,,,,,,decisionTrl,resources/DG.BMP,resources/DR.BMP,Door4,0.180555556,0.005555541,1,0,0,1.3779,optionRight,80,14320,6,38,0,38,0,1,,,,,,,,,,,,,,,,,,,,,,,,,,,,,,,,,,,,,,,
,,,,,,,,2023-08-16_08h40.10.560,HF_wild_card,2022.2.4,Win32,60.14314067,640485331e13a7bfa4a43d46,64d2fd46c836a06233681665,64dc7d485c5711870ec86ce0,,,,,,,sngl,resources/DP.BMP,resources/Empty.png,Door2,-0.14907406,-0.010185206,1,0,0,0.879,optionLeft,20,14340,6,39,0,39,0,1,,,,,,,,,,,,,,,,,,,,,,,,,,,,,,,,,,,,,,,
,,,,,,,,2023-08-16_08h40.10.560,HF_wild_card,2022.2.4,Win32,60.14314067,640485331e13a7bfa4a43d46,64d2fd46c836a06233681665,64dc7d485c5711870ec86ce0,,,,,,,decisionTrl,resources/DB.BMP,resources/DP.BMP,Door1,-0.163888861,-0.018518519,1,0,0,1.0449,optionLeft,30,14370,6,40,0,40,0,1,,,,,,,,,,,,,,,,,,,,,,,,,,,,,,,,,,,,,,,
,,,,,,,,2023-08-16_08h40.10.560,HF_wild_card,2022.2.4,Win32,60.14314067,640485331e13a7bfa4a43d46,64d2fd46c836a06233681665,64dc7d485c5711870ec86ce0,,,,,,,sngl,resources/Empty.png,resources/DBN.BMP,Door3,0.185185185,0.003703683,1,0,0,0.447,optionRight,70,14440,6,41,0,41,0,1,,,,,,,,,,,,,,,,,,,,,,,,,,,,,,,,,,,,,,,
,,,,,,,,2023-08-16_08h40.10.560,HF_wild_card,2022.2.4,Win32,60.14314067,640485331e13a7bfa4a43d46,64d2fd46c836a06233681665,64dc7d485c5711870ec86ce0,,,,,,,decisionTrl,resources/DR.BMP,resources/DBN.BMP,Door4,-0.097222222,-0.002777771,1,0,0,1.2327,optionLeft,80,14520,6,42,0,42,0,1,,,,,,,,,,,,,,,,,,,,,,,,,,,,,,,,,,,,,,,
,,,,,,,,2023-08-16_08h40.10.560,HF_wild_card,2022.2.4,Win32,60.14314067,640485331e13a7bfa4a43d46,64d2fd46c836a06233681665,64dc7d485c5711870ec86ce0,,,,,,,ctch,resources/DB.BMP,resources/DR.BMP,Door4,0.138888889,0.003703683,1,0,0,0.6796,optionRight,80,14600,6,43,0,43,0,1,,,,,,,,,,,,,,,,,,,,,,,,,,,,,,,,,,,,,,,
,,,,,,,,2023-08-16_08h40.10.560,HF_wild_card,2022.2.4,Win32,60.14314067,640485331e13a7bfa4a43d46,64d2fd46c836a06233681665,64dc7d485c5711870ec86ce0,,,,,,,,,,,,,,,,,,,,,,,,,,5,0,5,0,1,,,,,,,,,,,,,,,,,,,,,,,,,,,,,,,,,,
,,,,,,,,2023-08-16_08h40.10.560,HF_wild_card,2022.2.4,Win32,60.14314067,640485331e13a7bfa4a43d46,64d2fd46c836a06233681665,64dc7d485c5711870ec86ce0,,,,,,,decisionTrl,resources/DB.BMP,resources/DP.BMP,Door1,-0.136111083,-0.072222215,1,0,0,1.1073,optionLeft,30,14630,7,0,0,0,0,1,,,,,,,,,,,,,,,,,,,,,,,,,,,,,,,,,,,,,,,
,,,,,,,,2023-08-16_08h40.10.560,HF_wild_card,2022.2.4,Win32,60.14314067,640485331e13a7bfa4a43d46,64d2fd46c836a06233681665,64dc7d485c5711870ec86ce0,,,,,,,decisionTrl,resources/DB.BMP,resources/DP.BMP,Door1,-0.125925912,0.001851859,1,0,0,0.8304,optionLeft,30,14660,7,1,0,1,0,1,,,,,,,,,,,,,,,,,,,,,,,,,,,,,,,,,,,,,,,
,,,,,,,,2023-08-16_08h40.10.560,HF_wild_card,2022.2.4,Win32,60.14314067,640485331e13a7bfa4a43d46,64d2fd46c836a06233681665,64dc7d485c5711870ec86ce0,,,,,,,decisionTrl,resources/DR.BMP,resources/DBN.BMP,Door3,0.163888931,0.033333319,1,0,0,0.8627,optionRight,70,14730,7,2,0,2,0,1,,,,,,,,,,,,,,,,,,,,,,,,,,,,,,,,,,,,,,,
,,,,,,,,2023-08-16_08h40.10.560,HF_wild_card,2022.2.4,Win32,60.14314067,640485331e13a7bfa4a43d46,64d2fd46c836a06233681665,64dc7d485c5711870ec86ce0,,,,,,,decisionTrl,resources/DBN.BMP,resources/DR.BMP,Door3,-0.103703675,0.00462963,1,0,0,0.6977,optionLeft,70,14800,7,3,0,3,0,1,,,,,,,,,,,,,,,,,,,,,,,,,,,,,,,,,,,,,,,
,,,,,,,,2023-08-16_08h40.10.560,HF_wild_card,2022.2.4,Win32,60.14314067,640485331e13a7bfa4a43d46,64d2fd46c836a06233681665,64dc7d485c5711870ec86ce0,,,,,,,decisionTrl,resources/DB.BMP,resources/DP.BMP,Door1,-0.157407407,-0.001851859,1,0,0,0.7744,optionLeft,30,14830,7,4,0,4,0,1,,,,,,,,,,,,,,,,,,,,,,,,,,,,,,,,,,,,,,,
,,,,,,,,2023-08-16_08h40.10.560,HF_wild_card,2022.2.4,Win32,60.14314067,640485331e13a7bfa4a43d46,64d2fd46c836a06233681665,64dc7d485c5711870ec86ce0,,,,,,,decisionTrl,resources/DR.BMP,resources/DBN.BMP,Door4,-0.19259255,-0.011111118,1,0,0,0.5674,optionLeft,60,14890,7,5,0,5,0,1,,,,,,,,,,,,,,,,,,,,,,,,,,,,,,,,,,,,,,,
,,,,,,,,2023-08-16_08h40.10.560,HF_wild_card,2022.2.4,Win32,60.14314067,640485331e13a7bfa4a43d46,64d2fd46c836a06233681665,64dc7d485c5711870ec86ce0,,,,,,,decisionTrl,resources/DR.BMP,resources/DBN.BMP,Door4,-0.140740712,-0.001851859,1,0,0,0.5358,optionLeft,60,14950,7,6,0,6,0,1,,,,,,,,,,,,,,,,,,,,,,,,,,,,,,,,,,,,,,,
,,,,,,,,2023-08-16_08h40.10.560,HF_wild_card,2022.2.4,Win32,60.14314067,640485331e13a7bfa4a43d46,64d2fd46c836a06233681665,64dc7d485c5711870ec86ce0,,,,,,,decisionTrl,resources/DP.BMP,resources/DB.BMP,Door1,0.157407407,0.01203703,1,0,0,0.8853,optionRight,30,14980,7,7,0,7,0,1,,,,,,,,,,,,,,,,,,,,,,,,,,,,,,,,,,,,,,,
,,,,,,,,2023-08-16_08h40.10.560,HF_wild_card,2022.2.4,Win32,60.14314067,640485331e13a7bfa4a43d46,64d2fd46c836a06233681665,64dc7d485c5711870ec86ce0,,,,,,,decisionTrl,resources/DB.BMP,resources/DP.BMP,Door1,-0.148148148,0.006481489,1,0,0,0.8136,optionLeft,30,15010,7,8,0,8,0,1,,,,,,,,,,,,,,,,,,,,,,,,,,,,,,,,,,,,,,,
,,,,,,,,2023-08-16_08h40.10.560,HF_wild_card,2022.2.4,Win32,60.14314067,640485331e13a7bfa4a43d46,64d2fd46c836a06233681665,64dc7d485c5711870ec86ce0,,,,,,,ctch,resources/DR.BMP,resources/DB.BMP,Door4,-0.125,-0.000925947,1,0,0,0.8295,optionLeft,60,15070,7,9,0,9,0,1,,,,,,,,,,,,,,,,,,,,,,,,,,,,,,,,,,,,,,,
,,,,,,,,2023-08-16_08h40.10.560,HF_wild_card,2022.2.4,Win32,60.14314067,640485331e13a7bfa4a43d46,64d2fd46c836a06233681665,64dc7d485c5711870ec86ce0,,,,,,,ctch,resources/DP.BMP,resources/DBN.BMP,Door3,0.165740755,0.011111118,1,0,0,0.7191,optionRight,70,15140,7,10,0,10,0,1,,,,,,,,,,,,,,,,,,,,,,,,,,,,,,,,,,,,,,,
,,,,,,,,2023-08-16_08h40.10.560,HF_wild_card,2022.2.4,Win32,60.14314067,640485331e13a7bfa4a43d46,64d2fd46c836a06233681665,64dc7d485c5711870ec86ce0,,,,,,,ctch,resources/DR.BMP,resources/DB.BMP,Door4,-0.125,0.003703683,1,0,0,0.7305,optionLeft,80,15220,7,11,0,11,0,1,,,,,,,,,,,,,,,,,,,,,,,,,,,,,,,,,,,,,,,
,,,,,,,,2023-08-16_08h40.10.560,HF_wild_card,2022.2.4,Win32,60.14314067,640485331e13a7bfa4a43d46,64d2fd46c836a06233681665,64dc7d485c5711870ec86ce0,,,,,,,decisionTrl,resources/DBN.BMP,resources/DR.BMP,Door3,-0.109259217,0.003703683,1,0,0,1.0184,optionLeft,70,15290,7,12,0,12,0,1,,,,,,,,,,,,,,,,,,,,,,,,,,,,,,,,,,,,,,,
,,,,,,,,2023-08-16_08h40.10.560,HF_wild_card,2022.2.4,Win32,60.14314067,640485331e13a7bfa4a43d46,64d2fd46c836a06233681665,64dc7d485c5711870ec86ce0,,,,,,,ctch,resources/DP.BMP,resources/DBN.BMP,Door3,0.147222236,0.003703683,1,0,0,0.6525,optionRight,70,15360,7,13,0,13,0,1,,,,,,,,,,,,,,,,,,,,,,,,,,,,,,,,,,,,,,,
,,,,,,,,2023-08-16_08h40.10.560,HF_wild_card,2022.2.4,Win32,60.14314067,640485331e13a7bfa4a43d46,64d2fd46c836a06233681665,64dc7d485c5711870ec86ce0,,,,,,,decisionTrl,resources/DBN.BMP,resources/DR.BMP,Door4,0.164814843,0.003703683,1,0,0,0.6977,optionRight,80,15440,7,14,0,14,0,1,,,,,,,,,,,,,,,,,,,,,,,,,,,,,,,,,,,,,,,
,,,,,,,,2023-08-16_08h40.10.560,HF_wild_card,2022.2.4,Win32,60.14314067,640485331e13a7bfa4a43d46,64d2fd46c836a06233681665,64dc7d485c5711870ec86ce0,,,,,,,decisionTrl,resources/DP.BMP,resources/DB.BMP,Door1,0.14444443,0.003703683,1,0,0,1.2291,optionRight,30,15470,7,15,0,15,0,1,,,,,,,,,,,,,,,,,,,,,,,,,,,,,,,,,,,,,,,
,,,,,,,,2023-08-16_08h40.10.560,HF_wild_card,2022.2.4,Win32,60.14314067,640485331e13a7bfa4a43d46,64d2fd46c836a06233681665,64dc7d485c5711870ec86ce0,,,,,,,decisionTrl,resources/DBN.BMP,resources/DR.BMP,Door4,0.183333362,0.0074074,1,0,0,0.7688,optionRight,80,15550,7,16,0,16,0,1,,,,,,,,,,,,,,,,,,,,,,,,,,,,,,,,,,,,,,,
,,,,,,,,2023-08-16_08h40.10.560,HF_wild_card,2022.2.4,Win32,60.14314067,640485331e13a7bfa4a43d46,64d2fd46c836a06233681665,64dc7d485c5711870ec86ce0,,,,,,,decisionTrl,resources/DP.BMP,resources/DB.BMP,Door1,0.15370369,0.005555541,1,0,0,1.4164,optionRight,30,15580,7,17,0,17,0,1,,,,,,,,,,,,,,,,,,,,,,,,,,,,,,,,,,,,,,,
,,,,,,,,2023-08-16_08h40.10.560,HF_wild_card,2022.2.4,Win32,60.14314067,640485331e13a7bfa4a43d46,64d2fd46c836a06233681665,64dc7d485c5711870ec86ce0,,,,,,,ctch,resources/DB.BMP,resources/DR.BMP,Door4,0.167592578,0.00462963,1,0,0,0.7924,optionRight,60,15640,7,18,0,18,0,1,,,,,,,,,,,,,,,,,,,,,,,,,,,,,,,,,,,,,,,
,,,,,,,,2023-08-16_08h40.10.560,HF_wild_card,2022.2.4,Win32,60.14314067,640485331e13a7bfa4a43d46,64d2fd46c836a06233681665,64dc7d485c5711870ec86ce0,,,,,,,decisionTrl,resources/DBN.BMP,resources/DR.BMP,Door3,-0.148148148,0.003703683,1,0,0,1.2782,optionLeft,70,15710,7,19,0,19,0,1,,,,,,,,,,,,,,,,,,,,,,,,,,,,,,,,,,,,,,,
,,,,,,,,2023-08-16_08h40.10.560,HF_wild_card,2022.2.4,Win32,60.14314067,640485331e13a7bfa4a43d46,64d2fd46c836a06233681665,64dc7d485c5711870ec86ce0,,,,,,,decisionTrl,resources/DP.BMP,resources/DB.BMP,Door1,0.117592635,0.00462963,1,0,0,0.996,optionRight,30,15740,7,20,0,20,0,1,,,,,,,,,,,,,,,,,,,,,,,,,,,,,,,,,,,,,,,
,,,,,,,,2023-08-16_08h40.10.560,HF_wild_card,2022.2.4,Win32,60.14314067,640485331e13a7bfa4a43d46,64d2fd46c836a06233681665,64dc7d485c5711870ec86ce0,,,,,,,ctch,resources/DR.BMP,resources/DB.BMP,Door4,-0.266666624,-0.020370377,1,0,0,1.5452,optionLeft,80,15820,7,21,0,21,0,1,,,,,,,,,,,,,,,,,,,,,,,,,,,,,,,,,,,,,,,
,,,,,,,,2023-08-16_08h40.10.560,HF_wild_card,2022.2.4,Win32,60.14314067,640485331e13a7bfa4a43d46,64d2fd46c836a06233681665,64dc7d485c5711870ec86ce0,,,,,,,decisionTrl,resources/DR.BMP,resources/DBN.BMP,Door4,-0.112962935,0.0074074,1,0,0,1.2169,optionLeft,80,15900,7,22,0,22,0,1,,,,,,,,,,,,,,,,,,,,,,,,,,,,,,,,,,,,,,,
,,,,,,,,2023-08-16_08h40.10.560,HF_wild_card,2022.2.4,Win32,60.14314067,640485331e13a7bfa4a43d46,64d2fd46c836a06233681665,64dc7d485c5711870ec86ce0,,,,,,,ctch,resources/DBN.BMP,resources/DP.BMP,Door3,-0.132407365,-0.0074074,1,0,0,0.6143,optionLeft,70,15970,7,23,0,23,0,1,,,,,,,,,,,,,,,,,,,,,,,,,,,,,,,,,,,,,,,
,,,,,,,,2023-08-16_08h40.10.560,HF_wild_card,2022.2.4,Win32,60.14314067,640485331e13a7bfa4a43d46,64d2fd46c836a06233681665,64dc7d485c5711870ec86ce0,,,,,,,decisionTrl,resources/DP.BMP,resources/DB.BMP,Door1,0.133333347,-0.002777771,1,0,0,2.0934,optionRight,30,16000,7,24,0,24,0,1,,,,,,,,,,,,,,,,,,,,,,,,,,,,,,,,,,,,,,,
,,,,,,,,2023-08-16_08h40.10.560,HF_wild_card,2022.2.4,Win32,60.14314067,640485331e13a7bfa4a43d46,64d2fd46c836a06233681665,64dc7d485c5711870ec86ce0,,,,,,,ctch,resources/DBN.BMP,resources/DP.BMP,Door3,-0.138888889,-0.001851859,1,0,0,0.6641,optionLeft,70,16070,7,25,0,25,0,1,,,,,,,,,,,,,,,,,,,,,,,,,,,,,,,,,,,,,,,
,,,,,,,,2023-08-16_08h40.10.560,HF_wild_card,2022.2.4,Win32,60.14314067,640485331e13a7bfa4a43d46,64d2fd46c836a06233681665,64dc7d485c5711870ec86ce0,,,,,,,ctch,resources/DB.BMP,resources/DR.BMP,Door4,0.198148162,-0.001851859,1,0,0,0.6808,optionRight,80,16150,7,26,0,26,0,1,,,,,,,,,,,,,,,,,,,,,,,,,,,,,,,,,,,,,,,
,,,,,,,,2023-08-16_08h40.10.560,HF_wild_card,2022.2.4,Win32,60.14314067,640485331e13a7bfa4a43d46,64d2fd46c836a06233681665,64dc7d485c5711870ec86ce0,,,,,,,ctch,resources/DP.BMP,resources/DBN.BMP,Door3,0.14907406,0.030555548,1,0,0,0.6638,optionRight,70,16220,7,27,0,27,0,1,,,,,,,,,,,,,,,,,,,,,,,,,,,,,,,,,,,,,,,
,,,,,,,,2023-08-16_08h40.10.560,HF_wild_card,2022.2.4,Win32,60.14314067,640485331e13a7bfa4a43d46,64d2fd46c836a06233681665,64dc7d485c5711870ec86ce0,,,,,,,ctch,resources/DB.BMP,resources/DR.BMP,Door4,0.20185188,0.030555548,1,0,0,0.8801,optionRight,60,16280,7,28,0,28,0,1,,,,,,,,,,,,,,,,,,,,,,,,,,,,,,,,,,,,,,,
,,,,,,,,2023-08-16_08h40.10.560,HF_wild_card,2022.2.4,Win32,60.14314067,640485331e13a7bfa4a43d46,64d2fd46c836a06233681665,64dc7d485c5711870ec86ce0,,,,,,,decisionTrl,resources/DP.BMP,resources/DB.BMP,Door1,0.183333362,0.014814801,1,0,0,1.0744,optionRight,30,16310,7,29,0,29,0,1,,,,,,,,,,,,,,,,,,,,,,,,,,,,,,,,,,,,,,,
,,,,,,,,2023-08-16_08h40.10.560,HF_wild_card,2022.2.4,Win32,60.14314067,640485331e13a7bfa4a43d46,64d2fd46c836a06233681665,64dc7d485c5711870ec86ce0,,,,,,,decisionTrl,resources/DB.BMP,resources/DP.BMP,Door1,-0.151851866,-0.001851859,1,0,0,0.8634,optionLeft,30,16340,7,30,0,30,0,1,,,,,,,,,,,,,,,,,,,,,,,,,,,,,,,,,,,,,,,
,,,,,,,,2023-08-16_08h40.10.560,HF_wild_card,2022.2.4,Win32,60.14314067,640485331e13a7bfa4a43d46,64d2fd46c836a06233681665,64dc7d485c5711870ec86ce0,,,,,,,decisionTrl,resources/DR.BMP,resources/DBN.BMP,Door3,0.215740769,0.010185171,1,0,0,0.8413,optionRight,70,16410,7,31,0,31,0,1,,,,,,,,,,,,,,,,,,,,,,,,,,,,,,,,,,,,,,,
,,,,,,,,2023-08-16_08h40.10.560,HF_wild_card,2022.2.4,Win32,60.14314067,640485331e13a7bfa4a43d46,64d2fd46c836a06233681665,64dc7d485c5711870ec86ce0,,,,,,,decisionTrl,resources/DBN.BMP,resources/DR.BMP,Door3,-0.12037037,-0.00462963,1,0,0,0.7413,optionLeft,70,16480,7,32,0,32,0,1,,,,,,,,,,,,,,,,,,,,,,,,,,,,,,,,,,,,,,,
,,,,,,,,2023-08-16_08h40.10.560,HF_wild_card,2022.2.4,Win32,60.14314067,640485331e13a7bfa4a43d46,64d2fd46c836a06233681665,64dc7d485c5711870ec86ce0,,,,,,,decisionTrl,resources/DB.BMP,resources/DP.BMP,Door1,-0.143518519,-0.01203703,1,0,0,1.0583,optionLeft,30,16510,7,33,0,33,0,1,,,,,,,,,,,,,,,,,,,,,,,,,,,,,,,,,,,,,,,
,,,,,,,,2023-08-16_08h40.10.560,HF_wild_card,2022.2.4,Win32,60.14314067,640485331e13a7bfa4a43d46,64d2fd46c836a06233681665,64dc7d485c5711870ec86ce0,,,,,,,decisionTrl,resources/DR.BMP,resources/DBN.BMP,Door3,0.191666709,0.005555541,1,0,0,0.6309,optionRight,70,16580,7,34,0,34,0,1,,,,,,,,,,,,,,,,,,,,,,,,,,,,,,,,,,,,,,,
,,,,,,,,2023-08-16_08h40.10.560,HF_wild_card,2022.2.4,Win32,60.14314067,640485331e13a7bfa4a43d46,64d2fd46c836a06233681665,64dc7d485c5711870ec86ce0,,,,,,,ctch,resources/DBN.BMP,resources/DP.BMP,Door3,-0.151851866,-0.009259259,1,0,0,0.6255,optionLeft,70,16650,7,35,0,35,0,1,,,,,,,,,,,,,,,,,,,,,,,,,,,,,,,,,,,,,,,
,,,,,,,,2023-08-16_08h40.10.560,HF_wild_card,2022.2.4,Win32,60.14314067,640485331e13a7bfa4a43d46,64d2fd46c836a06233681665,64dc7d485c5711870ec86ce0,,,,,,,,,,,,,,,,,,,,,,,,,,6,0,6,0,1,,,,,,,,,,,,,,,,,,,,,,,,,,,,,,,,,,
,,,,,,,,2023-08-16_08h40.10.560,HF_wild_card,2022.2.4,Win32,60.14314067,640485331e13a7bfa4a43d46,64d2fd46c836a06233681665,64dc7d485c5711870ec86ce0,,,,,,,,,,,,,,,,,,,,,,,,,,,,,,,4,,,,,,,,,,,,,,,,,,,,,,,,,,,,,,,,,
,,,,,,,,2023-08-16_08h40.10.560,HF_wild_card,2022.2.4,Win32,60.14314067,640485331e13a7bfa4a43d46,64d2fd46c836a06233681665,64dc7d485c5711870ec86ce0,,,,,,,,,,,,,,,,,,,,,,,,,,,,,,,,,,,,,,,,,,,,,,,,,,,,,,,,,,,,,,,,
,,,,,,,,2023-08-16_08h40.10.560,HF_wild_card,2022.2.4,Win32,60.14314067,640485331e13a7bfa4a43d46,64d2fd46c836a06233681665,64dc7d485c5711870ec86ce0,,,,,,,,,,,,,,,,,,,,,,,,,,,,,,,,55,WC_nonExtreme,resources/DY.BMP,0,0,0,0,1,,,,,,,,,,,,,,,,,,,,,,,,,
,,,,,,,,2023-08-16_08h40.10.560,HF_wild_card,2022.2.4,Win32,60.14314067,640485331e13a7bfa4a43d46,64d2fd46c836a06233681665,64dc7d485c5711870ec86ce0,,,,,,,,,,,,,,,,,,,,,,,,,,,,,,,,20,Door2,resources/DP.BMP,1,0,1,0,1,,,,,,,,,,,,,,,,,,,,,,,,,
,,,,,,,,2023-08-16_08h40.10.560,HF_wild_card,2022.2.4,Win32,60.14314067,640485331e13a7bfa4a43d46,64d2fd46c836a06233681665,64dc7d485c5711870ec86ce0,,,,,,,,,,,,,,,,,,,,,,,,,,,,,,,,80,Door4,resources/DR.BMP,2,0,2,0,1,,,,,,,,,,,,,,,,,,,,,,,,,
,,,,,,,,2023-08-16_08h40.10.560,HF_wild_card,2022.2.4,Win32,60.14314067,640485331e13a7bfa4a43d46,64d2fd46c836a06233681665,64dc7d485c5711870ec86ce0,,,,,,,,,,,,,,,,,,,,,,,,,,,,,,,,55,WC_extreme,resources/DG.BMP,3,0,3,0,1,,,,,,,,,,,,,,,,,,,,,,,,,
,,,,,,,,2023-08-16_08h40.10.560,HF_wild_card,2022.2.4,Win32,60.14314067,640485331e13a7bfa4a43d46,64d2fd46c836a06233681665,64dc7d485c5711870ec86ce0,,,,,,,,,,,,,,,,,,,,,,,,,,,,,,,,70,Door3,resources/DBN.BMP,4,0,4,0,1,,,,,,,,,,,,,,,,,,,,,,,,,
,,,,,,,,2023-08-16_08h40.10.560,HF_wild_card,2022.2.4,Win32,60.14314067,640485331e13a7bfa4a43d46,64d2fd46c836a06233681665,64dc7d485c5711870ec86ce0,,,,,,,,,,,,,,,,,,,,,,,,,,,,,,,,30,Door1,resources/DB.BMP,5,0,5,0,1,,,,,,,,,,,,,,,,,,,,,,,,,
,,,,,,,,2023-08-16_08h40.10.560,HF_wild_card,2022.2.4,Win32,60.14314067,640485331e13a7bfa4a43d46,64d2fd46c836a06233681665,64dc7d485c5711870ec86ce0,,,,,,,,,,,,,,,,,,,,,,,,,,,,,,,,,,,,,,,,,,,,,,,,,,,,,,,,,,,,,,,,
