Condition,Low fixed image (Door1),Low risky image (Door2),High fixed image (Door3),High risky image (Door4),Extreme Wild Card,NonExtreme Wild Card,,date,expName,psychopyVersion,OS,frameRate,PROLIFIC_PID,STUDY_ID,SESSION_ID,mouse_2.x,mouse_2.y,mouse_2.leftButton,mouse_2.midButton,mouse_2.rightButton,mouse_2.clicked_name,Trial Type,Left Option Image,Right Option Image,Chosen Door,mouse.x,mouse.y,mouse.leftButton,mouse.midButton,mouse.rightButton,mouse.time,mouse.clicked_name,Feedback,Cumulative Reward,Block,trial.thisRepN,trial.thisTrialN,trial.thisN,trial.thisIndex,trial.ran,blocks.thisRepN,blocks.thisTrialN,blocks.thisN,blocks.thisIndex,blocks.ran,Money conversion,First Outcome Reported,Shown Door (First Outcome),Displayed Image (First Outcome),outcomes.thisRepN,outcomes.thisTrialN,outcomes.thisN,outcomes.thisIndex,outcomes.ran,judgments.thisRepN,judgments.thisTrialN,judgments.thisN,judgments.thisIndex,judgments.ran,freqMouse.x,freqMouse.y,freqMouse.leftButton,freqMouse.midButton,freqMouse.rightButton,freqMouse.clicked_name,trials.thisRepN,trials.thisTrialN,trials.thisN,trials.thisIndex,trials.ran,FQJ for first outcome,FQJ for second outcome,Shown Door,Displayed Image,judgBlock.thisRepN,judgBlock.thisTrialN,judgBlock.thisN,judgBlock.thisIndex,judgBlock.ran
0,resources/DP.BMP,resources/DY.BMP,resources/DR.BMP,resources/DBN.BMP,resources/DG.BMP,resources/DB.BMP,,2023-08-16_08h30.32.124,HF_wild_card,2022.2.4,Win32,60.29908345,600b5191a434df19524dd1a0,64d2fd46c836a06233681665,64dc7b0473c0403a94b512b6,,,,,,,,,,,,,,,,,,,,,,,,,,,,,,,,,,,,,,,,,,,,,,,,,,,,,,,,,,,,,,,,
,,,,,,,,2023-08-16_08h30.32.124,HF_wild_card,2022.2.4,Win32,60.29908345,600b5191a434df19524dd1a0,64d2fd46c836a06233681665,64dc7b0473c0403a94b512b6,0.007407464,-0.412037065,1,0,0,agree,,,,,,,,,,,,,,,,,,,,,,,,,,,,,,,,,,,,,,,,,,,,,,,,,,,,,,,,,,
,,,,,,,,2023-08-16_08h30.32.124,HF_wild_card,2022.2.4,Win32,60.29908345,600b5191a434df19524dd1a0,64d2fd46c836a06233681665,64dc7b0473c0403a94b512b6,,,,,,,,,,,,,,,,,,,,,,,,,,,,,,,,,,,,,,,,,,,,,,,,,,,,,,,,,,,,,,,,
,,,,,,,,2023-08-16_08h30.32.124,HF_wild_card,2022.2.4,Win32,60.29908345,600b5191a434df19524dd1a0,64d2fd46c836a06233681665,64dc7b0473c0403a94b512b6,,,,,,,decisionTrl,resources/DY.BMP,resources/DP.BMP,Door1,0.405555556,-0.101851866,1,0,0,1.6179,optionRight,30,30,1,0,0,0,0,1,,,,,,,,,,,,,,,,,,,,,,,,,,,,,,,,,,,,,,,
,,,,,,,,2023-08-16_08h30.32.124,HF_wild_card,2022.2.4,Win32,60.29908345,600b5191a434df19524dd1a0,64d2fd46c836a06233681665,64dc7b0473c0403a94b512b6,,,,,,,decisionTrl,resources/DY.BMP,resources/DP.BMP,Door2,-0.274074046,0.00370369,1,0,0,1.2462,optionLeft,40,70,1,1,0,1,0,1,,,,,,,,,,,,,,,,,,,,,,,,,,,,,,,,,,,,,,,
,,,,,,,,2023-08-16_08h30.32.124,HF_wild_card,2022.2.4,Win32,60.29908345,600b5191a434df19524dd1a0,64d2fd46c836a06233681665,64dc7b0473c0403a94b512b6,,,,,,,decisionTrl,resources/DR.BMP,resources/DBN.BMP,Door4,0.309259288,-0.049074088,1,0,0,1.1859,optionRight,60,130,1,2,0,2,0,1,,,,,,,,,,,,,,,,,,,,,,,,,,,,,,,,,,,,,,,
,,,,,,,,2023-08-16_08h30.32.124,HF_wild_card,2022.2.4,Win32,60.29908345,600b5191a434df19524dd1a0,64d2fd46c836a06233681665,64dc7b0473c0403a94b512b6,,,,,,,decisionTrl,resources/DP.BMP,resources/DY.BMP,Door2,0.279629686,-0.059259288,1,0,0,1.2219,optionRight,20,150,1,3,0,3,0,1,,,,,,,,,,,,,,,,,,,,,,,,,,,,,,,,,,,,,,,
,,,,,,,,2023-08-16_08h30.32.124,HF_wild_card,2022.2.4,Win32,60.29908345,600b5191a434df19524dd1a0,64d2fd46c836a06233681665,64dc7b0473c0403a94b512b6,,,,,,,ctch,resources/DP.BMP,resources/DBN.BMP,Door4,0.360185242,-0.074074088,1,0,0,4.9473,optionRight,60,210,1,4,0,4,0,1,,,,,,,,,,,,,,,,,,,,,,,,,,,,,,,,,,,,,,,
,,,,,,,,2023-08-16_08h30.32.124,HF_wild_card,2022.2.4,Win32,60.29908345,600b5191a434df19524dd1a0,64d2fd46c836a06233681665,64dc7b0473c0403a94b512b6,,,,,,,decisionTrl,resources/DBN.BMP,resources/DR.BMP,Door4,-0.436111111,-0.062962977,1,0,0,0.8676,optionLeft,80,290,1,5,0,5,0,1,,,,,,,,,,,,,,,,,,,,,,,,,,,,,,,,,,,,,,,
,,,,,,,,2023-08-16_08h30.32.124,HF_wild_card,2022.2.4,Win32,60.29908345,600b5191a434df19524dd1a0,64d2fd46c836a06233681665,64dc7b0473c0403a94b512b6,,,,,,,sngl,resources/Empty.png,resources/DG.BMP,WildCard_Ex,0.382407464,-0.100925954,1,0,0,1.3482,optionRight,5,295,1,6,0,6,0,1,,,,,,,,,,,,,,,,,,,,,,,,,,,,,,,,,,,,,,,
,,,,,,,,2023-08-16_08h30.32.124,HF_wild_card,2022.2.4,Win32,60.29908345,600b5191a434df19524dd1a0,64d2fd46c836a06233681665,64dc7b0473c0403a94b512b6,,,,,,,decisionTrl,resources/DR.BMP,resources/DBN.BMP,Door4,0.340740797,-0.085185199,1,0,0,0.9303,optionRight,80,375,1,7,0,7,0,1,,,,,,,,,,,,,,,,,,,,,,,,,,,,,,,,,,,,,,,
,,,,,,,,2023-08-16_08h30.32.124,HF_wild_card,2022.2.4,Win32,60.29908345,600b5191a434df19524dd1a0,64d2fd46c836a06233681665,64dc7b0473c0403a94b512b6,,,,,,,decisionTrl,resources/DG.BMP,resources/DY.BMP,WildCard_Ex,-0.463888889,-0.123148176,1,0,0,1.9326,optionLeft,5,380,1,8,0,8,0,1,,,,,,,,,,,,,,,,,,,,,,,,,,,,,,,,,,,,,,,
,,,,,,,,2023-08-16_08h30.32.124,HF_wild_card,2022.2.4,Win32,60.29908345,600b5191a434df19524dd1a0,64d2fd46c836a06233681665,64dc7b0473c0403a94b512b6,,,,,,,decisionTrl,resources/DP.BMP,resources/DY.BMP,Door1,-0.373148134,-0.122222222,1,0,0,0.7622,optionLeft,30,410,1,9,0,9,0,1,,,,,,,,,,,,,,,,,,,,,,,,,,,,,,,,,,,,,,,
,,,,,,,,2023-08-16_08h30.32.124,HF_wild_card,2022.2.4,Win32,60.29908345,600b5191a434df19524dd1a0,64d2fd46c836a06233681665,64dc7b0473c0403a94b512b6,,,,,,,decisionTrl,resources/DY.BMP,resources/DP.BMP,Door1,0.387037065,-0.085185199,1,0,0,0.6615,optionRight,30,440,1,10,0,10,0,1,,,,,,,,,,,,,,,,,,,,,,,,,,,,,,,,,,,,,,,
,,,,,,,,2023-08-16_08h30.32.124,HF_wild_card,2022.2.4,Win32,60.29908345,600b5191a434df19524dd1a0,64d2fd46c836a06233681665,64dc7b0473c0403a94b512b6,,,,,,,sngl,resources/Empty.png,resources/DY.BMP,Door2,0.380555556,-0.051851866,1,0,0,0.6638,optionRight,20,460,1,11,0,11,0,1,,,,,,,,,,,,,,,,,,,,,,,,,,,,,,,,,,,,,,,
,,,,,,,,2023-08-16_08h30.32.124,HF_wild_card,2022.2.4,Win32,60.29908345,600b5191a434df19524dd1a0,64d2fd46c836a06233681665,64dc7b0473c0403a94b512b6,,,,,,,sngl,resources/DG.BMP,resources/Empty.png,WildCard_Ex,-0.439814801,-0.079629644,1,0,0,0.7026,optionLeft,5,465,1,12,0,12,0,1,,,,,,,,,,,,,,,,,,,,,,,,,,,,,,,,,,,,,,,
,,,,,,,,2023-08-16_08h30.32.124,HF_wild_card,2022.2.4,Win32,60.29908345,600b5191a434df19524dd1a0,64d2fd46c836a06233681665,64dc7b0473c0403a94b512b6,,,,,,,sngl,resources/DP.BMP,resources/Empty.png,Door1,-0.391666667,-0.080555556,1,0,0,0.6789,optionLeft,30,495,1,13,0,13,0,1,,,,,,,,,,,,,,,,,,,,,,,,,,,,,,,,,,,,,,,
,,,,,,,,2023-08-16_08h30.32.124,HF_wild_card,2022.2.4,Win32,60.29908345,600b5191a434df19524dd1a0,64d2fd46c836a06233681665,64dc7b0473c0403a94b512b6,,,,,,,decisionTrl,resources/DY.BMP,resources/DG.BMP,WildCard_Ex,0.379629686,-0.085185199,1,0,0,1.3113,optionRight,5,500,1,14,0,14,0,1,,,,,,,,,,,,,,,,,,,,,,,,,,,,,,,,,,,,,,,
,,,,,,,,2023-08-16_08h30.32.124,HF_wild_card,2022.2.4,Win32,60.29908345,600b5191a434df19524dd1a0,64d2fd46c836a06233681665,64dc7b0473c0403a94b512b6,,,,,,,decisionTrl,resources/DR.BMP,resources/DG.BMP,Door3,-0.364814801,0.00370369,1,0,0,0.8054,optionLeft,70,570,1,15,0,15,0,1,,,,,,,,,,,,,,,,,,,,,,,,,,,,,,,,,,,,,,,
,,,,,,,,2023-08-16_08h30.32.124,HF_wild_card,2022.2.4,Win32,60.29908345,600b5191a434df19524dd1a0,64d2fd46c836a06233681665,64dc7b0473c0403a94b512b6,,,,,,,decisionTrl,resources/DP.BMP,resources/DY.BMP,Door1,-0.335185157,-0.010185199,1,0,0,1.8961,optionLeft,30,600,1,16,0,16,0,1,,,,,,,,,,,,,,,,,,,,,,,,,,,,,,,,,,,,,,,
,,,,,,,,2023-08-16_08h30.32.124,HF_wild_card,2022.2.4,Win32,60.29908345,600b5191a434df19524dd1a0,64d2fd46c836a06233681665,64dc7b0473c0403a94b512b6,,,,,,,decisionTrl,resources/DG.BMP,resources/DP.BMP,Door1,0.257407464,-0.064814843,1,0,0,0.8524,optionRight,30,630,1,17,0,17,0,1,,,,,,,,,,,,,,,,,,,,,,,,,,,,,,,,,,,,,,,
,,,,,,,,2023-08-16_08h30.32.124,HF_wild_card,2022.2.4,Win32,60.29908345,600b5191a434df19524dd1a0,64d2fd46c836a06233681665,64dc7b0473c0403a94b512b6,,,,,,,decisionTrl,resources/DG.BMP,resources/DR.BMP,WildCard_Ex,-0.287962935,-0.050925954,1,0,0,1.0212,optionLeft,5,635,1,18,0,18,0,1,,,,,,,,,,,,,,,,,,,,,,,,,,,,,,,,,,,,,,,
,,,,,,,,2023-08-16_08h30.32.124,HF_wild_card,2022.2.4,Win32,60.29908345,600b5191a434df19524dd1a0,64d2fd46c836a06233681665,64dc7b0473c0403a94b512b6,,,,,,,sngl,resources/Empty.png,resources/DBN.BMP,Door4,0.375925954,-0.060185199,1,0,0,0.8629,optionRight,60,695,1,19,0,19,0,1,,,,,,,,,,,,,,,,,,,,,,,,,,,,,,,,,,,,,,,
,,,,,,,,2023-08-16_08h30.32.124,HF_wild_card,2022.2.4,Win32,60.29908345,600b5191a434df19524dd1a0,64d2fd46c836a06233681665,64dc7b0473c0403a94b512b6,,,,,,,decisionTrl,resources/DBN.BMP,resources/DR.BMP,Door3,0.304629686,-0.075,1,0,0,0.6872,optionRight,70,765,1,20,0,20,0,1,,,,,,,,,,,,,,,,,,,,,,,,,,,,,,,,,,,,,,,
,,,,,,,,2023-08-16_08h30.32.124,HF_wild_card,2022.2.4,Win32,60.29908345,600b5191a434df19524dd1a0,64d2fd46c836a06233681665,64dc7b0473c0403a94b512b6,,,,,,,sngl,resources/Empty.png,resources/DR.BMP,Door3,0.312037065,-0.077777778,1,0,0,0.679,optionRight,70,835,1,21,0,21,0,1,,,,,,,,,,,,,,,,,,,,,,,,,,,,,,,,,,,,,,,
,,,,,,,,2023-08-16_08h30.32.124,HF_wild_card,2022.2.4,Win32,60.29908345,600b5191a434df19524dd1a0,64d2fd46c836a06233681665,64dc7b0473c0403a94b512b6,,,,,,,sngl,resources/DBN.BMP,resources/Empty.png,Door4,-0.275,-0.048148176,1,0,0,0.6622,optionLeft,80,915,1,22,0,22,0,1,,,,,,,,,,,,,,,,,,,,,,,,,,,,,,,,,,,,,,,
,,,,,,,,2023-08-16_08h30.32.124,HF_wild_card,2022.2.4,Win32,60.29908345,600b5191a434df19524dd1a0,64d2fd46c836a06233681665,64dc7b0473c0403a94b512b6,,,,,,,ctch,resources/DR.BMP,resources/DY.BMP,Door3,-0.454629601,-0.030555556,1,0,0,3.0389,optionLeft,70,985,1,23,0,23,0,1,,,,,,,,,,,,,,,,,,,,,,,,,,,,,,,,,,,,,,,
,,,,,,,,2023-08-16_08h30.32.124,HF_wild_card,2022.2.4,Win32,60.29908345,600b5191a434df19524dd1a0,64d2fd46c836a06233681665,64dc7b0473c0403a94b512b6,,,,,,,decisionTrl,resources/DBN.BMP,resources/DR.BMP,Door3,0.411111111,-0.074074088,1,0,0,0.7458,optionRight,70,1055,1,24,0,24,0,1,,,,,,,,,,,,,,,,,,,,,,,,,,,,,,,,,,,,,,,
,,,,,,,,2023-08-16_08h30.32.124,HF_wild_card,2022.2.4,Win32,60.29908345,600b5191a434df19524dd1a0,64d2fd46c836a06233681665,64dc7b0473c0403a94b512b6,,,,,,,sngl,resources/Empty.png,resources/DG.BMP,WildCard_Ex,0.196296353,-0.075925954,1,0,0,0.987,optionRight,95,1150,1,25,0,25,0,1,,,,,,,,,,,,,,,,,,,,,,,,,,,,,,,,,,,,,,,
,,,,,,,,2023-08-16_08h30.32.124,HF_wild_card,2022.2.4,Win32,60.29908345,600b5191a434df19524dd1a0,64d2fd46c836a06233681665,64dc7b0473c0403a94b512b6,,,,,,,decisionTrl,resources/DBN.BMP,resources/DG.BMP,WildCard_Ex,0.284259288,-0.079629644,1,0,0,0.6659,optionRight,95,1245,1,26,0,26,0,1,,,,,,,,,,,,,,,,,,,,,,,,,,,,,,,,,,,,,,,
,,,,,,,,2023-08-16_08h30.32.124,HF_wild_card,2022.2.4,Win32,60.29908345,600b5191a434df19524dd1a0,64d2fd46c836a06233681665,64dc7b0473c0403a94b512b6,,,,,,,ctch,resources/DR.BMP,resources/DY.BMP,Door3,-0.229629601,-0.032407422,1,0,0,1.297,optionLeft,70,1315,1,27,0,27,0,1,,,,,,,,,,,,,,,,,,,,,,,,,,,,,,,,,,,,,,,
,,,,,,,,2023-08-16_08h30.32.124,HF_wild_card,2022.2.4,Win32,60.29908345,600b5191a434df19524dd1a0,64d2fd46c836a06233681665,64dc7b0473c0403a94b512b6,,,,,,,ctch,resources/DY.BMP,resources/DR.BMP,Door2,-0.196296268,-0.050925954,1,0,0,0.729,optionLeft,40,1355,1,28,0,28,0,1,,,,,,,,,,,,,,,,,,,,,,,,,,,,,,,,,,,,,,,
,,,,,,,,2023-08-16_08h30.32.124,HF_wild_card,2022.2.4,Win32,60.29908345,600b5191a434df19524dd1a0,64d2fd46c836a06233681665,64dc7b0473c0403a94b512b6,,,,,,,sngl,resources/DR.BMP,resources/Empty.png,Door3,-0.388888889,-0.105555556,1,0,0,0.5389,optionLeft,70,1425,1,29,0,29,0,1,,,,,,,,,,,,,,,,,,,,,,,,,,,,,,,,,,,,,,,
,,,,,,,,2023-08-16_08h30.32.124,HF_wild_card,2022.2.4,Win32,60.29908345,600b5191a434df19524dd1a0,64d2fd46c836a06233681665,64dc7b0473c0403a94b512b6,,,,,,,ctch,resources/DBN.BMP,resources/DP.BMP,Door4,-0.150925869,-0.088888889,1,0,0,1.7574,optionLeft,60,1485,1,30,0,30,0,1,,,,,,,,,,,,,,,,,,,,,,,,,,,,,,,,,,,,,,,
,,,,,,,,2023-08-16_08h30.32.124,HF_wild_card,2022.2.4,Win32,60.29908345,600b5191a434df19524dd1a0,64d2fd46c836a06233681665,64dc7b0473c0403a94b512b6,,,,,,,decisionTrl,resources/DP.BMP,resources/DG.BMP,Door1,-0.191666667,-0.100925954,1,0,0,0.6806,optionLeft,30,1515,1,31,0,31,0,1,,,,,,,,,,,,,,,,,,,,,,,,,,,,,,,,,,,,,,,
,,,,,,,,2023-08-16_08h30.32.124,HF_wild_card,2022.2.4,Win32,60.29908345,600b5191a434df19524dd1a0,64d2fd46c836a06233681665,64dc7b0473c0403a94b512b6,,,,,,,sngl,resources/DG.BMP,resources/Empty.png,WildCard_Ex,-0.209259245,-0.084259288,1,0,0,0.5723,optionLeft,95,1610,1,32,0,32,0,1,,,,,,,,,,,,,,,,,,,,,,,,,,,,,,,,,,,,,,,
,,,,,,,,2023-08-16_08h30.32.124,HF_wild_card,2022.2.4,Win32,60.29908345,600b5191a434df19524dd1a0,64d2fd46c836a06233681665,64dc7b0473c0403a94b512b6,,,,,,,decisionTrl,resources/DR.BMP,resources/DBN.BMP,Door3,-0.148148092,-0.053703732,1,0,0,2.6458,optionLeft,70,1680,1,33,0,33,0,1,,,,,,,,,,,,,,,,,,,,,,,,,,,,,,,,,,,,,,,
,,,,,,,,2023-08-16_08h30.32.124,HF_wild_card,2022.2.4,Win32,60.29908345,600b5191a434df19524dd1a0,64d2fd46c836a06233681665,64dc7b0473c0403a94b512b6,,,,,,,decisionTrl,resources/DY.BMP,resources/DP.BMP,Door2,-0.337962935,-0.063888889,1,0,0,2.5956,optionLeft,20,1700,1,34,0,34,0,1,,,,,,,,,,,,,,,,,,,,,,,,,,,,,,,,,,,,,,,
,,,,,,,,2023-08-16_08h30.32.124,HF_wild_card,2022.2.4,Win32,60.29908345,600b5191a434df19524dd1a0,64d2fd46c836a06233681665,64dc7b0473c0403a94b512b6,,,,,,,sngl,resources/DY.BMP,resources/Empty.png,Door2,-0.305555556,-0.049074088,1,0,0,0.5976,optionLeft,40,1740,1,35,0,35,0,1,,,,,,,,,,,,,,,,,,,,,,,,,,,,,,,,,,,,,,,
,,,,,,,,2023-08-16_08h30.32.124,HF_wild_card,2022.2.4,Win32,60.29908345,600b5191a434df19524dd1a0,64d2fd46c836a06233681665,64dc7b0473c0403a94b512b6,,,,,,,decisionTrl,resources/DG.BMP,resources/DBN.BMP,Door4,0.236111111,-0.125925954,1,0,0,1.4801,optionRight,80,1820,1,36,0,36,0,1,,,,,,,,,,,,,,,,,,,,,,,,,,,,,,,,,,,,,,,
,,,,,,,,2023-08-16_08h30.32.124,HF_wild_card,2022.2.4,Win32,60.29908345,600b5191a434df19524dd1a0,64d2fd46c836a06233681665,64dc7b0473c0403a94b512b6,,,,,,,decisionTrl,resources/DP.BMP,resources/DY.BMP,Door2,0.23148151,-0.084259288,1,0,0,1.0555,optionRight,20,1840,1,37,0,37,0,1,,,,,,,,,,,,,,,,,,,,,,,,,,,,,,,,,,,,,,,
,,,,,,,,2023-08-16_08h30.32.124,HF_wild_card,2022.2.4,Win32,60.29908345,600b5191a434df19524dd1a0,64d2fd46c836a06233681665,64dc7b0473c0403a94b512b6,,,,,,,decisionTrl,resources/DBN.BMP,resources/DR.BMP,Door4,-0.194444444,-0.03148151,1,0,0,0.7803,optionLeft,60,1900,1,38,0,38,0,1,,,,,,,,,,,,,,,,,,,,,,,,,,,,,,,,,,,,,,,
,,,,,,,,2023-08-16_08h30.32.124,HF_wild_card,2022.2.4,Win32,60.29908345,600b5191a434df19524dd1a0,64d2fd46c836a06233681665,64dc7b0473c0403a94b512b6,,,,,,,ctch,resources/DP.BMP,resources/DBN.BMP,Door4,0.232407464,-0.049074088,1,0,0,0.6758,optionRight,60,1960,1,39,0,39,0,1,,,,,,,,,,,,,,,,,,,,,,,,,,,,,,,,,,,,,,,
,,,,,,,,2023-08-16_08h30.32.124,HF_wild_card,2022.2.4,Win32,60.29908345,600b5191a434df19524dd1a0,64d2fd46c836a06233681665,64dc7b0473c0403a94b512b6,,,,,,,decisionTrl,resources/DR.BMP,resources/DBN.BMP,Door3,-0.29351849,-0.055555556,1,0,0,0.5789,optionLeft,70,2030,1,40,0,40,0,1,,,,,,,,,,,,,,,,,,,,,,,,,,,,,,,,,,,,,,,
,,,,,,,,2023-08-16_08h30.32.124,HF_wild_card,2022.2.4,Win32,60.29908345,600b5191a434df19524dd1a0,64d2fd46c836a06233681665,64dc7b0473c0403a94b512b6,,,,,,,sngl,resources/Empty.png,resources/DP.BMP,Door1,0.183333333,-0.038888889,1,0,0,0.6627,optionRight,30,2060,1,41,0,41,0,1,,,,,,,,,,,,,,,,,,,,,,,,,,,,,,,,,,,,,,,
,,,,,,,,2023-08-16_08h30.32.124,HF_wild_card,2022.2.4,Win32,60.29908345,600b5191a434df19524dd1a0,64d2fd46c836a06233681665,64dc7b0473c0403a94b512b6,,,,,,,ctch,resources/DY.BMP,resources/DR.BMP,Door3,0.244444444,-0.079629644,1,0,0,1.7457,optionRight,70,2130,1,42,0,42,0,1,,,,,,,,,,,,,,,,,,,,,,,,,,,,,,,,,,,,,,,
,,,,,,,,2023-08-16_08h30.32.124,HF_wild_card,2022.2.4,Win32,60.29908345,600b5191a434df19524dd1a0,64d2fd46c836a06233681665,64dc7b0473c0403a94b512b6,,,,,,,ctch,resources/DBN.BMP,resources/DP.BMP,Door4,-0.247222222,-0.060185199,1,0,0,2.1544,optionLeft,60,2190,1,43,0,43,0,1,,,,,,,,,,,,,,,,,,,,,,,,,,,,,,,,,,,,,,,
,,,,,,,,2023-08-16_08h30.32.124,HF_wild_card,2022.2.4,Win32,60.29908345,600b5191a434df19524dd1a0,64d2fd46c836a06233681665,64dc7b0473c0403a94b512b6,,,,,,,,,,,,,,,,,,,,,,,,,,0,0,0,0,1,,,,,,,,,,,,,,,,,,,,,,,,,,,,,,,,,,
,,,,,,,,2023-08-16_08h30.32.124,HF_wild_card,2022.2.4,Win32,60.29908345,600b5191a434df19524dd1a0,64d2fd46c836a06233681665,64dc7b0473c0403a94b512b6,,,,,,,decisionTrl,resources/DP.BMP,resources/DY.BMP,Door1,-0.152777778,-0.14629631,1,0,0,1.5169,optionLeft,30,2220,2,0,0,0,0,1,,,,,,,,,,,,,,,,,,,,,,,,,,,,,,,,,,,,,,,
,,,,,,,,2023-08-16_08h30.32.124,HF_wild_card,2022.2.4,Win32,60.29908345,600b5191a434df19524dd1a0,64d2fd46c836a06233681665,64dc7b0473c0403a94b512b6,,,,,,,decisionTrl,resources/DR.BMP,resources/DG.BMP,WildCard_Ex,0.183333333,-0.074074088,1,0,0,1.4329,optionRight,5,2225,2,1,0,1,0,1,,,,,,,,,,,,,,,,,,,,,,,,,,,,,,,,,,,,,,,
,,,,,,,,2023-08-16_08h30.32.124,HF_wild_card,2022.2.4,Win32,60.29908345,600b5191a434df19524dd1a0,64d2fd46c836a06233681665,64dc7b0473c0403a94b512b6,,,,,,,sngl,resources/Empty.png,resources/DY.BMP,Door2,0.233333333,-0.037962977,1,0,0,0.62,optionRight,40,2265,2,2,0,2,0,1,,,,,,,,,,,,,,,,,,,,,,,,,,,,,,,,,,,,,,,
,,,,,,,,2023-08-16_08h30.32.124,HF_wild_card,2022.2.4,Win32,60.29908345,600b5191a434df19524dd1a0,64d2fd46c836a06233681665,64dc7b0473c0403a94b512b6,,,,,,,decisionTrl,resources/DG.BMP,resources/DR.BMP,Door3,0.160185242,-0.068518533,1,0,0,0.8793,optionRight,70,2335,2,3,0,3,0,1,,,,,,,,,,,,,,,,,,,,,,,,,,,,,,,,,,,,,,,
,,,,,,,,2023-08-16_08h30.32.124,HF_wild_card,2022.2.4,Win32,60.29908345,600b5191a434df19524dd1a0,64d2fd46c836a06233681665,64dc7b0473c0403a94b512b6,,,,,,,decisionTrl,resources/DP.BMP,resources/DY.BMP,Door1,-0.247222222,-0.075925954,1,0,0,0.7869,optionLeft,30,2365,2,4,0,4,0,1,,,,,,,,,,,,,,,,,,,,,,,,,,,,,,,,,,,,,,,
,,,,,,,,2023-08-16_08h30.32.124,HF_wild_card,2022.2.4,Win32,60.29908345,600b5191a434df19524dd1a0,64d2fd46c836a06233681665,64dc7b0473c0403a94b512b6,,,,,,,sngl,resources/DY.BMP,resources/Empty.png,Door2,-0.25370369,-0.100925954,1,0,0,0.5956,optionLeft,20,2385,2,5,0,5,0,1,,,,,,,,,,,,,,,,,,,,,,,,,,,,,,,,,,,,,,,
,,,,,,,,2023-08-16_08h30.32.124,HF_wild_card,2022.2.4,Win32,60.29908345,600b5191a434df19524dd1a0,64d2fd46c836a06233681665,64dc7b0473c0403a94b512b6,,,,,,,decisionTrl,resources/DY.BMP,resources/DG.BMP,Door2,-0.208333333,-0.045370399,1,0,0,1.7285,optionLeft,40,2425,2,6,0,6,0,1,,,,,,,,,,,,,,,,,,,,,,,,,,,,,,,,,,,,,,,
,,,,,,,,2023-08-16_08h30.32.124,HF_wild_card,2022.2.4,Win32,60.29908345,600b5191a434df19524dd1a0,64d2fd46c836a06233681665,64dc7b0473c0403a94b512b6,,,,,,,decisionTrl,resources/DR.BMP,resources/DBN.BMP,Door4,0.184259288,-0.02129631,1,0,0,1.046,optionRight,60,2485,2,7,0,7,0,1,,,,,,,,,,,,,,,,,,,,,,,,,,,,,,,,,,,,,,,
,,,,,,,,2023-08-16_08h30.32.124,HF_wild_card,2022.2.4,Win32,60.29908345,600b5191a434df19524dd1a0,64d2fd46c836a06233681665,64dc7b0473c0403a94b512b6,,,,,,,sngl,resources/Empty.png,resources/DR.BMP,Door3,0.2,-0.068518533,1,0,0,0.6723,optionRight,70,2555,2,8,0,8,0,1,,,,,,,,,,,,,,,,,,,,,,,,,,,,,,,,,,,,,,,
,,,,,,,,2023-08-16_08h30.32.124,HF_wild_card,2022.2.4,Win32,60.29908345,600b5191a434df19524dd1a0,64d2fd46c836a06233681665,64dc7b0473c0403a94b512b6,,,,,,,ctch,resources/DBN.BMP,resources/DP.BMP,Door4,-0.2,-0.043518533,1,0,0,1.3533,optionLeft,60,2615,2,9,0,9,0,1,,,,,,,,,,,,,,,,,,,,,,,,,,,,,,,,,,,,,,,
,,,,,,,,2023-08-16_08h30.32.124,HF_wild_card,2022.2.4,Win32,60.29908345,600b5191a434df19524dd1a0,64d2fd46c836a06233681665,64dc7b0473c0403a94b512b6,,,,,,,decisionTrl,resources/DY.BMP,resources/DP.BMP,Door1,0.158333333,-0.078703732,1,0,0,1.3947,optionRight,30,2645,2,10,0,10,0,1,,,,,,,,,,,,,,,,,,,,,,,,,,,,,,,,,,,,,,,
,,,,,,,,2023-08-16_08h30.32.124,HF_wild_card,2022.2.4,Win32,60.29908345,600b5191a434df19524dd1a0,64d2fd46c836a06233681665,64dc7b0473c0403a94b512b6,,,,,,,decisionTrl,resources/DY.BMP,resources/DP.BMP,Door2,-0.205555556,-0.033333333,1,0,0,0.8618,optionLeft,40,2685,2,11,0,11,0,1,,,,,,,,,,,,,,,,,,,,,,,,,,,,,,,,,,,,,,,
,,,,,,,,2023-08-16_08h30.32.124,HF_wild_card,2022.2.4,Win32,60.29908345,600b5191a434df19524dd1a0,64d2fd46c836a06233681665,64dc7b0473c0403a94b512b6,,,,,,,decisionTrl,resources/DBN.BMP,resources/DR.BMP,Door3,0.203703732,-0.048148176,1,0,0,2.1527,optionRight,70,2755,2,12,0,12,0,1,,,,,,,,,,,,,,,,,,,,,,,,,,,,,,,,,,,,,,,
,,,,,,,,2023-08-16_08h30.32.124,HF_wild_card,2022.2.4,Win32,60.29908345,600b5191a434df19524dd1a0,64d2fd46c836a06233681665,64dc7b0473c0403a94b512b6,,,,,,,sngl,resources/DG.BMP,resources/Empty.png,WildCard_Ex,-0.142592536,-0.04629631,1,0,0,0.7628,optionLeft,95,2850,2,13,0,13,0,1,,,,,,,,,,,,,,,,,,,,,,,,,,,,,,,,,,,,,,,
,,,,,,,,2023-08-16_08h30.32.124,HF_wild_card,2022.2.4,Win32,60.29908345,600b5191a434df19524dd1a0,64d2fd46c836a06233681665,64dc7b0473c0403a94b512b6,,,,,,,decisionTrl,resources/DY.BMP,resources/DP.BMP,Door1,0.155555556,-0.061111111,1,0,0,1.1383,optionRight,30,2880,2,14,0,14,0,1,,,,,,,,,,,,,,,,,,,,,,,,,,,,,,,,,,,,,,,
,,,,,,,,2023-08-16_08h30.32.124,HF_wild_card,2022.2.4,Win32,60.29908345,600b5191a434df19524dd1a0,64d2fd46c836a06233681665,64dc7b0473c0403a94b512b6,,,,,,,sngl,resources/DP.BMP,resources/Empty.png,Door1,-0.273148134,-0.062962977,1,0,0,0.5963,optionLeft,30,2910,2,15,0,15,0,1,,,,,,,,,,,,,,,,,,,,,,,,,,,,,,,,,,,,,,,
,,,,,,,,2023-08-16_08h30.32.124,HF_wild_card,2022.2.4,Win32,60.29908345,600b5191a434df19524dd1a0,64d2fd46c836a06233681665,64dc7b0473c0403a94b512b6,,,,,,,ctch,resources/DP.BMP,resources/DBN.BMP,Door4,0.163888889,-0.052777778,1,0,0,1.147,optionRight,80,2990,2,16,0,16,0,1,,,,,,,,,,,,,,,,,,,,,,,,,,,,,,,,,,,,,,,
,,,,,,,,2023-08-16_08h30.32.124,HF_wild_card,2022.2.4,Win32,60.29908345,600b5191a434df19524dd1a0,64d2fd46c836a06233681665,64dc7b0473c0403a94b512b6,,,,,,,sngl,resources/Empty.png,resources/DBN.BMP,Door4,0.257407464,-0.093518533,1,0,0,0.6886,optionRight,80,3070,2,17,0,17,0,1,,,,,,,,,,,,,,,,,,,,,,,,,,,,,,,,,,,,,,,
,,,,,,,,2023-08-16_08h30.32.124,HF_wild_card,2022.2.4,Win32,60.29908345,600b5191a434df19524dd1a0,64d2fd46c836a06233681665,64dc7b0473c0403a94b512b6,,,,,,,decisionTrl,resources/DR.BMP,resources/DBN.BMP,Door3,-0.138888889,-0.069444444,1,0,0,1.4134,optionLeft,70,3140,2,18,0,18,0,1,,,,,,,,,,,,,,,,,,,,,,,,,,,,,,,,,,,,,,,
,,,,,,,,2023-08-16_08h30.32.124,HF_wild_card,2022.2.4,Win32,60.29908345,600b5191a434df19524dd1a0,64d2fd46c836a06233681665,64dc7b0473c0403a94b512b6,,,,,,,sngl,resources/Empty.png,resources/DG.BMP,WildCard_Ex,0.212963019,-0.062037065,1,0,0,0.7727,optionRight,5,3145,2,19,0,19,0,1,,,,,,,,,,,,,,,,,,,,,,,,,,,,,,,,,,,,,,,
,,,,,,,,2023-08-16_08h30.32.124,HF_wild_card,2022.2.4,Win32,60.29908345,600b5191a434df19524dd1a0,64d2fd46c836a06233681665,64dc7b0473c0403a94b512b6,,,,,,,decisionTrl,resources/DY.BMP,resources/DP.BMP,Door2,-0.20370369,-0.044444444,1,0,0,1.0049,optionLeft,20,3165,2,20,0,20,0,1,,,,,,,,,,,,,,,,,,,,,,,,,,,,,,,,,,,,,,,
,,,,,,,,2023-08-16_08h30.32.124,HF_wild_card,2022.2.4,Win32,60.29908345,600b5191a434df19524dd1a0,64d2fd46c836a06233681665,64dc7b0473c0403a94b512b6,,,,,,,decisionTrl,resources/DG.BMP,resources/DP.BMP,Door1,0.192592621,-0.073148176,1,0,0,0.6452,optionRight,30,3195,2,21,0,21,0,1,,,,,,,,,,,,,,,,,,,,,,,,,,,,,,,,,,,,,,,
,,,,,,,,2023-08-16_08h30.32.124,HF_wild_card,2022.2.4,Win32,60.29908345,600b5191a434df19524dd1a0,64d2fd46c836a06233681665,64dc7b0473c0403a94b512b6,,,,,,,ctch,resources/DY.BMP,resources/DR.BMP,Door3,0.212037065,-0.064814843,1,0,0,0.9129,optionRight,70,3265,2,22,0,22,0,1,,,,,,,,,,,,,,,,,,,,,,,,,,,,,,,,,,,,,,,
,,,,,,,,2023-08-16_08h30.32.124,HF_wild_card,2022.2.4,Win32,60.29908345,600b5191a434df19524dd1a0,64d2fd46c836a06233681665,64dc7b0473c0403a94b512b6,,,,,,,sngl,resources/Empty.png,resources/DP.BMP,Door1,0.175925954,-0.095370399,1,0,0,0.7297,optionRight,30,3295,2,23,0,23,0,1,,,,,,,,,,,,,,,,,,,,,,,,,,,,,,,,,,,,,,,
,,,,,,,,2023-08-16_08h30.32.124,HF_wild_card,2022.2.4,Win32,60.29908345,600b5191a434df19524dd1a0,64d2fd46c836a06233681665,64dc7b0473c0403a94b512b6,,,,,,,decisionTrl,resources/DR.BMP,resources/DBN.BMP,Door4,0.265740797,-0.1,1,0,0,1.3123,optionRight,80,3375,2,24,0,24,0,1,,,,,,,,,,,,,,,,,,,,,,,,,,,,,,,,,,,,,,,
,,,,,,,,2023-08-16_08h30.32.124,HF_wild_card,2022.2.4,Win32,60.29908345,600b5191a434df19524dd1a0,64d2fd46c836a06233681665,64dc7b0473c0403a94b512b6,,,,,,,decisionTrl,resources/DP.BMP,resources/DG.BMP,WildCard_Ex,0.084259288,-0.074074088,1,0,0,1.1126,optionRight,95,3470,2,25,0,25,0,1,,,,,,,,,,,,,,,,,,,,,,,,,,,,,,,,,,,,,,,
,,,,,,,,2023-08-16_08h30.32.124,HF_wild_card,2022.2.4,Win32,60.29908345,600b5191a434df19524dd1a0,64d2fd46c836a06233681665,64dc7b0473c0403a94b512b6,,,,,,,decisionTrl,resources/DG.BMP,resources/DY.BMP,WildCard_Ex,-0.201851824,-0.044444444,1,0,0,0.9551,optionLeft,95,3565,2,26,0,26,0,1,,,,,,,,,,,,,,,,,,,,,,,,,,,,,,,,,,,,,,,
,,,,,,,,2023-08-16_08h30.32.124,HF_wild_card,2022.2.4,Win32,60.29908345,600b5191a434df19524dd1a0,64d2fd46c836a06233681665,64dc7b0473c0403a94b512b6,,,,,,,decisionTrl,resources/DP.BMP,resources/DY.BMP,Door2,0.185185242,-0.03148151,1,0,0,1.1573,optionRight,20,3585,2,27,0,27,0,1,,,,,,,,,,,,,,,,,,,,,,,,,,,,,,,,,,,,,,,
,,,,,,,,2023-08-16_08h30.32.124,HF_wild_card,2022.2.4,Win32,60.29908345,600b5191a434df19524dd1a0,64d2fd46c836a06233681665,64dc7b0473c0403a94b512b6,,,,,,,sngl,resources/DR.BMP,resources/Empty.png,Door3,-0.162036981,-0.051851866,1,0,0,0.6623,optionLeft,70,3655,2,28,0,28,0,1,,,,,,,,,,,,,,,,,,,,,,,,,,,,,,,,,,,,,,,
,,,,,,,,2023-08-16_08h30.32.124,HF_wild_card,2022.2.4,Win32,60.29908345,600b5191a434df19524dd1a0,64d2fd46c836a06233681665,64dc7b0473c0403a94b512b6,,,,,,,ctch,resources/DY.BMP,resources/DR.BMP,Door3,0.203703732,-0.083333333,1,0,0,1.5219,optionRight,70,3725,2,29,0,29,0,1,,,,,,,,,,,,,,,,,,,,,,,,,,,,,,,,,,,,,,,
,,,,,,,,2023-08-16_08h30.32.124,HF_wild_card,2022.2.4,Win32,60.29908345,600b5191a434df19524dd1a0,64d2fd46c836a06233681665,64dc7b0473c0403a94b512b6,,,,,,,ctch,resources/DP.BMP,resources/DBN.BMP,Door4,0.139814843,-0.065740755,1,0,0,0.8032,optionRight,80,3805,2,30,0,30,0,1,,,,,,,,,,,,,,,,,,,,,,,,,,,,,,,,,,,,,,,
,,,,,,,,2023-08-16_08h30.32.124,HF_wild_card,2022.2.4,Win32,60.29908345,600b5191a434df19524dd1a0,64d2fd46c836a06233681665,64dc7b0473c0403a94b512b6,,,,,,,sngl,resources/Empty.png,resources/DG.BMP,WildCard_Ex,0.198148176,-0.062962977,1,0,0,0.5873,optionRight,95,3900,2,31,0,31,0,1,,,,,,,,,,,,,,,,,,,,,,,,,,,,,,,,,,,,,,,
,,,,,,,,2023-08-16_08h30.32.124,HF_wild_card,2022.2.4,Win32,60.29908345,600b5191a434df19524dd1a0,64d2fd46c836a06233681665,64dc7b0473c0403a94b512b6,,,,,,,decisionTrl,resources/DR.BMP,resources/DBN.BMP,Door4,0.113888889,-0.066666667,1,0,0,0.9457,optionRight,60,3960,2,32,0,32,0,1,,,,,,,,,,,,,,,,,,,,,,,,,,,,,,,,,,,,,,,
,,,,,,,,2023-08-16_08h30.32.124,HF_wild_card,2022.2.4,Win32,60.29908345,600b5191a434df19524dd1a0,64d2fd46c836a06233681665,64dc7b0473c0403a94b512b6,,,,,,,decisionTrl,resources/DBN.BMP,resources/DR.BMP,Door4,-0.172222222,-0.048148176,1,0,0,0.7124,optionLeft,60,4020,2,33,0,33,0,1,,,,,,,,,,,,,,,,,,,,,,,,,,,,,,,,,,,,,,,
,,,,,,,,2023-08-16_08h30.32.124,HF_wild_card,2022.2.4,Win32,60.29908345,600b5191a434df19524dd1a0,64d2fd46c836a06233681665,64dc7b0473c0403a94b512b6,,,,,,,sngl,resources/DBN.BMP,resources/Empty.png,Door4,-0.264814801,-0.105555556,1,0,0,0.6203,optionLeft,60,4080,2,34,0,34,0,1,,,,,,,,,,,,,,,,,,,,,,,,,,,,,,,,,,,,,,,
,,,,,,,,2023-08-16_08h30.32.124,HF_wild_card,2022.2.4,Win32,60.29908345,600b5191a434df19524dd1a0,64d2fd46c836a06233681665,64dc7b0473c0403a94b512b6,,,,,,,ctch,resources/DR.BMP,resources/DY.BMP,Door3,-0.133333333,-0.060185199,1,0,0,1.2037,optionLeft,70,4150,2,35,0,35,0,1,,,,,,,,,,,,,,,,,,,,,,,,,,,,,,,,,,,,,,,
,,,,,,,,2023-08-16_08h30.32.124,HF_wild_card,2022.2.4,Win32,60.29908345,600b5191a434df19524dd1a0,64d2fd46c836a06233681665,64dc7b0473c0403a94b512b6,,,,,,,ctch,resources/DR.BMP,resources/DY.BMP,Door3,-0.137036981,-0.045370399,1,0,0,1.0059,optionLeft,70,4220,2,36,0,36,0,1,,,,,,,,,,,,,,,,,,,,,,,,,,,,,,,,,,,,,,,
,,,,,,,,2023-08-16_08h30.32.124,HF_wild_card,2022.2.4,Win32,60.29908345,600b5191a434df19524dd1a0,64d2fd46c836a06233681665,64dc7b0473c0403a94b512b6,,,,,,,decisionTrl,resources/DG.BMP,resources/DBN.BMP,WildCard_Ex,-0.187037023,-0.042592621,1,0,0,1.1275,optionLeft,95,4315,2,37,0,37,0,1,,,,,,,,,,,,,,,,,,,,,,,,,,,,,,,,,,,,,,,
,,,,,,,,2023-08-16_08h30.32.124,HF_wild_card,2022.2.4,Win32,60.29908345,600b5191a434df19524dd1a0,64d2fd46c836a06233681665,64dc7b0473c0403a94b512b6,,,,,,,decisionTrl,resources/DBN.BMP,resources/DR.BMP,Door4,-0.151851824,-0.055555556,1,0,0,1.0871,optionLeft,60,4375,2,38,0,38,0,1,,,,,,,,,,,,,,,,,,,,,,,,,,,,,,,,,,,,,,,
,,,,,,,,2023-08-16_08h30.32.124,HF_wild_card,2022.2.4,Win32,60.29908345,600b5191a434df19524dd1a0,64d2fd46c836a06233681665,64dc7b0473c0403a94b512b6,,,,,,,decisionTrl,resources/DBN.BMP,resources/DG.BMP,WildCard_Ex,0.180555556,-0.010185199,1,0,0,0.9869,optionRight,5,4380,2,39,0,39,0,1,,,,,,,,,,,,,,,,,,,,,,,,,,,,,,,,,,,,,,,
,,,,,,,,2023-08-16_08h30.32.124,HF_wild_card,2022.2.4,Win32,60.29908345,600b5191a434df19524dd1a0,64d2fd46c836a06233681665,64dc7b0473c0403a94b512b6,,,,,,,sngl,resources/DG.BMP,resources/Empty.png,WildCard_Ex,-0.104629601,-0.026851866,1,0,0,0.7378,optionLeft,5,4385,2,40,0,40,0,1,,,,,,,,,,,,,,,,,,,,,,,,,,,,,,,,,,,,,,,
,,,,,,,,2023-08-16_08h30.32.124,HF_wild_card,2022.2.4,Win32,60.29908345,600b5191a434df19524dd1a0,64d2fd46c836a06233681665,64dc7b0473c0403a94b512b6,,,,,,,ctch,resources/DBN.BMP,resources/DP.BMP,Door4,-0.205555556,-0.03148151,1,0,0,0.9121,optionLeft,80,4465,2,41,0,41,0,1,,,,,,,,,,,,,,,,,,,,,,,,,,,,,,,,,,,,,,,
,,,,,,,,2023-08-16_08h30.32.124,HF_wild_card,2022.2.4,Win32,60.29908345,600b5191a434df19524dd1a0,64d2fd46c836a06233681665,64dc7b0473c0403a94b512b6,,,,,,,decisionTrl,resources/DP.BMP,resources/DY.BMP,Door2,0.216666667,-0.05,1,0,0,1.5772,optionRight,20,4485,2,42,0,42,0,1,,,,,,,,,,,,,,,,,,,,,,,,,,,,,,,,,,,,,,,
,,,,,,,,2023-08-16_08h30.32.124,HF_wild_card,2022.2.4,Win32,60.29908345,600b5191a434df19524dd1a0,64d2fd46c836a06233681665,64dc7b0473c0403a94b512b6,,,,,,,decisionTrl,resources/DBN.BMP,resources/DR.BMP,Door4,-0.173148092,-0.033333333,1,0,0,0.6968,optionLeft,60,4545,2,43,0,43,0,1,,,,,,,,,,,,,,,,,,,,,,,,,,,,,,,,,,,,,,,
,,,,,,,,2023-08-16_08h30.32.124,HF_wild_card,2022.2.4,Win32,60.29908345,600b5191a434df19524dd1a0,64d2fd46c836a06233681665,64dc7b0473c0403a94b512b6,,,,,,,,,,,,,,,,,,,,,,,,,,1,0,1,0,1,,,,,,,,,,,,,,,,,,,,,,,,,,,,,,,,,,
,,,,,,,,2023-08-16_08h30.32.124,HF_wild_card,2022.2.4,Win32,60.29908345,600b5191a434df19524dd1a0,64d2fd46c836a06233681665,64dc7b0473c0403a94b512b6,,,,,,,sngl,resources/Empty.png,resources/DY.BMP,Door2,0.223148176,-0.094444444,1,0,0,0.9598,optionRight,20,4565,3,0,0,0,0,1,,,,,,,,,,,,,,,,,,,,,,,,,,,,,,,,,,,,,,,
,,,,,,,,2023-08-16_08h30.32.124,HF_wild_card,2022.2.4,Win32,60.29908345,600b5191a434df19524dd1a0,64d2fd46c836a06233681665,64dc7b0473c0403a94b512b6,,,,,,,decisionTrl,resources/DBN.BMP,resources/DR.BMP,Door3,0.246296353,-0.115740755,1,0,0,1.7036,optionRight,70,4635,3,1,0,1,0,1,,,,,,,,,,,,,,,,,,,,,,,,,,,,,,,,,,,,,,,
,,,,,,,,2023-08-16_08h30.32.124,HF_wild_card,2022.2.4,Win32,60.29908345,600b5191a434df19524dd1a0,64d2fd46c836a06233681665,64dc7b0473c0403a94b512b6,,,,,,,decisionTrl,resources/DP.BMP,resources/DY.BMP,Door1,-0.215740712,-0.070370399,1,0,0,1.7463,optionLeft,30,4665,3,2,0,2,0,1,,,,,,,,,,,,,,,,,,,,,,,,,,,,,,,,,,,,,,,
,,,,,,,,2023-08-16_08h30.32.124,HF_wild_card,2022.2.4,Win32,60.29908345,600b5191a434df19524dd1a0,64d2fd46c836a06233681665,64dc7b0473c0403a94b512b6,,,,,,,sngl,resources/Empty.png,resources/DR.BMP,Door3,0.153703732,-0.083333333,1,0,0,0.7459,optionRight,70,4735,3,3,0,3,0,1,,,,,,,,,,,,,,,,,,,,,,,,,,,,,,,,,,,,,,,
,,,,,,,,2023-08-16_08h30.32.124,HF_wild_card,2022.2.4,Win32,60.29908345,600b5191a434df19524dd1a0,64d2fd46c836a06233681665,64dc7b0473c0403a94b512b6,,,,,,,sngl,resources/DY.BMP,resources/Empty.png,Door2,-0.244444444,-0.078703732,1,0,0,0.7123,optionLeft,40,4775,3,4,0,4,0,1,,,,,,,,,,,,,,,,,,,,,,,,,,,,,,,,,,,,,,,
,,,,,,,,2023-08-16_08h30.32.124,HF_wild_card,2022.2.4,Win32,60.29908345,600b5191a434df19524dd1a0,64d2fd46c836a06233681665,64dc7b0473c0403a94b512b6,,,,,,,decisionTrl,resources/DY.BMP,resources/DP.BMP,Door2,-0.137962935,-0.038888889,1,0,0,0.8389,optionLeft,20,4795,3,5,0,5,0,1,,,,,,,,,,,,,,,,,,,,,,,,,,,,,,,,,,,,,,,
,,,,,,,,2023-08-16_08h30.32.124,HF_wild_card,2022.2.4,Win32,60.29908345,600b5191a434df19524dd1a0,64d2fd46c836a06233681665,64dc7b0473c0403a94b512b6,,,,,,,sngl,resources/DR.BMP,resources/Empty.png,Door3,-0.247222222,-0.087962977,1,0,0,0.6718,optionLeft,70,4865,3,6,0,6,0,1,,,,,,,,,,,,,,,,,,,,,,,,,,,,,,,,,,,,,,,
,,,,,,,,2023-08-16_08h30.32.124,HF_wild_card,2022.2.4,Win32,60.29908345,600b5191a434df19524dd1a0,64d2fd46c836a06233681665,64dc7b0473c0403a94b512b6,,,,,,,sngl,resources/Empty.png,resources/DP.BMP,Door1,0.212037065,-0.087962977,1,0,0,0.673,optionRight,30,4895,3,7,0,7,0,1,,,,,,,,,,,,,,,,,,,,,,,,,,,,,,,,,,,,,,,
,,,,,,,,2023-08-16_08h30.32.124,HF_wild_card,2022.2.4,Win32,60.29908345,600b5191a434df19524dd1a0,64d2fd46c836a06233681665,64dc7b0473c0403a94b512b6,,,,,,,decisionTrl,resources/DY.BMP,resources/DP.BMP,Door1,0.237037065,-0.054629644,1,0,0,1.5352,optionRight,30,4925,3,8,0,8,0,1,,,,,,,,,,,,,,,,,,,,,,,,,,,,,,,,,,,,,,,
,,,,,,,,2023-08-16_08h30.32.124,HF_wild_card,2022.2.4,Win32,60.29908345,600b5191a434df19524dd1a0,64d2fd46c836a06233681665,64dc7b0473c0403a94b512b6,,,,,,,decisionTrl,resources/DG.BMP,resources/DR.BMP,WildCard_Ex,-0.181481467,-0.069444444,1,0,0,1.0852,optionLeft,95,5020,3,9,0,9,0,1,,,,,,,,,,,,,,,,,,,,,,,,,,,,,,,,,,,,,,,
,,,,,,,,2023-08-16_08h30.32.124,HF_wild_card,2022.2.4,Win32,60.29908345,600b5191a434df19524dd1a0,64d2fd46c836a06233681665,64dc7b0473c0403a94b512b6,,,,,,,sngl,resources/Empty.png,resources/DG.BMP,WildCard_Ex,0.2,-0.090740755,1,0,0,0.6131,optionRight,5,5025,3,10,0,10,0,1,,,,,,,,,,,,,,,,,,,,,,,,,,,,,,,,,,,,,,,
,,,,,,,,2023-08-16_08h30.32.124,HF_wild_card,2022.2.4,Win32,60.29908345,600b5191a434df19524dd1a0,64d2fd46c836a06233681665,64dc7b0473c0403a94b512b6,,,,,,,decisionTrl,resources/DY.BMP,resources/DP.BMP,Door2,-0.162962935,-0.047222222,1,0,0,0.9953,optionLeft,20,5045,3,11,0,11,0,1,,,,,,,,,,,,,,,,,,,,,,,,,,,,,,,,,,,,,,,
,,,,,,,,2023-08-16_08h30.32.124,HF_wild_card,2022.2.4,Win32,60.29908345,600b5191a434df19524dd1a0,64d2fd46c836a06233681665,64dc7b0473c0403a94b512b6,,,,,,,sngl,resources/Empty.png,resources/DG.BMP,WildCard_Ex,0.169444444,-0.087962977,1,0,0,0.58,optionRight,95,5140,3,12,0,12,0,1,,,,,,,,,,,,,,,,,,,,,,,,,,,,,,,,,,,,,,,
,,,,,,,,2023-08-16_08h30.32.124,HF_wild_card,2022.2.4,Win32,60.29908345,600b5191a434df19524dd1a0,64d2fd46c836a06233681665,64dc7b0473c0403a94b512b6,,,,,,,sngl,resources/DBN.BMP,resources/Empty.png,Door4,-0.242592578,-0.051851866,1,0,0,0.7568,optionLeft,80,5220,3,13,0,13,0,1,,,,,,,,,,,,,,,,,,,,,,,,,,,,,,,,,,,,,,,
,,,,,,,,2023-08-16_08h30.32.124,HF_wild_card,2022.2.4,Win32,60.29908345,600b5191a434df19524dd1a0,64d2fd46c836a06233681665,64dc7b0473c0403a94b512b6,,,,,,,decisionTrl,resources/DP.BMP,resources/DG.BMP,WildCard_Ex,0.203703732,-0.049074088,1,0,0,0.6962,optionRight,95,5315,3,14,0,14,0,1,,,,,,,,,,,,,,,,,,,,,,,,,,,,,,,,,,,,,,,
,,,,,,,,2023-08-16_08h30.32.124,HF_wild_card,2022.2.4,Win32,60.29908345,600b5191a434df19524dd1a0,64d2fd46c836a06233681665,64dc7b0473c0403a94b512b6,,,,,,,ctch,resources/DY.BMP,resources/DR.BMP,Door3,0.167592621,-0.109259288,1,0,0,1.9541,optionRight,70,5385,3,15,0,15,0,1,,,,,,,,,,,,,,,,,,,,,,,,,,,,,,,,,,,,,,,
,,,,,,,,2023-08-16_08h30.32.124,HF_wild_card,2022.2.4,Win32,60.29908345,600b5191a434df19524dd1a0,64d2fd46c836a06233681665,64dc7b0473c0403a94b512b6,,,,,,,decisionTrl,resources/DG.BMP,resources/DY.BMP,WildCard_Ex,-0.124074046,-0.029629644,1,0,0,0.7356,optionLeft,5,5390,3,16,0,16,0,1,,,,,,,,,,,,,,,,,,,,,,,,,,,,,,,,,,,,,,,
,,,,,,,,2023-08-16_08h30.32.124,HF_wild_card,2022.2.4,Win32,60.29908345,600b5191a434df19524dd1a0,64d2fd46c836a06233681665,64dc7b0473c0403a94b512b6,,,,,,,ctch,resources/DR.BMP,resources/DY.BMP,Door3,-0.161111111,-0.027777778,1,0,0,0.946,optionLeft,70,5460,3,17,0,17,0,1,,,,,,,,,,,,,,,,,,,,,,,,,,,,,,,,,,,,,,,
,,,,,,,,2023-08-16_08h30.32.124,HF_wild_card,2022.2.4,Win32,60.29908345,600b5191a434df19524dd1a0,64d2fd46c836a06233681665,64dc7b0473c0403a94b512b6,,,,,,,ctch,resources/DP.BMP,resources/DBN.BMP,Door4,0.107407464,-0.035185199,1,0,0,1.4721,optionRight,80,5540,3,18,0,18,0,1,,,,,,,,,,,,,,,,,,,,,,,,,,,,,,,,,,,,,,,
,,,,,,,,2023-08-16_08h30.32.124,HF_wild_card,2022.2.4,Win32,60.29908345,600b5191a434df19524dd1a0,64d2fd46c836a06233681665,64dc7b0473c0403a94b512b6,,,,,,,decisionTrl,resources/DP.BMP,resources/DY.BMP,Door1,-0.107407379,-0.032407422,1,0,0,1.087,optionLeft,30,5570,3,19,0,19,0,1,,,,,,,,,,,,,,,,,,,,,,,,,,,,,,,,,,,,,,,
,,,,,,,,2023-08-16_08h30.32.124,HF_wild_card,2022.2.4,Win32,60.29908345,600b5191a434df19524dd1a0,64d2fd46c836a06233681665,64dc7b0473c0403a94b512b6,,,,,,,decisionTrl,resources/DP.BMP,resources/DY.BMP,Door2,0.143518575,-0.05,1,0,0,0.7213,optionRight,40,5610,3,20,0,20,0,1,,,,,,,,,,,,,,,,,,,,,,,,,,,,,,,,,,,,,,,
,,,,,,,,2023-08-16_08h30.32.124,HF_wild_card,2022.2.4,Win32,60.29908345,600b5191a434df19524dd1a0,64d2fd46c836a06233681665,64dc7b0473c0403a94b512b6,,,,,,,decisionTrl,resources/DG.BMP,resources/DBN.BMP,Door4,0.161111111,-0.061111111,1,0,0,1.0203,optionRight,60,5670,3,21,0,21,0,1,,,,,,,,,,,,,,,,,,,,,,,,,,,,,,,,,,,,,,,
,,,,,,,,2023-08-16_08h30.32.124,HF_wild_card,2022.2.4,Win32,60.29908345,600b5191a434df19524dd1a0,64d2fd46c836a06233681665,64dc7b0473c0403a94b512b6,,,,,,,sngl,resources/DG.BMP,resources/Empty.png,WildCard_Ex,-0.126851824,-0.039814843,1,0,0,0.7374,optionLeft,5,5675,3,22,0,22,0,1,,,,,,,,,,,,,,,,,,,,,,,,,,,,,,,,,,,,,,,
,,,,,,,,2023-08-16_08h30.32.124,HF_wild_card,2022.2.4,Win32,60.29908345,600b5191a434df19524dd1a0,64d2fd46c836a06233681665,64dc7b0473c0403a94b512b6,,,,,,,decisionTrl,resources/DG.BMP,resources/DP.BMP,WildCard_Ex,-0.305555556,-0.108333333,1,0,0,0.5962,optionLeft,5,5680,3,23,0,23,0,1,,,,,,,,,,,,,,,,,,,,,,,,,,,,,,,,,,,,,,,
,,,,,,,,2023-08-16_08h30.32.124,HF_wild_card,2022.2.4,Win32,60.29908345,600b5191a434df19524dd1a0,64d2fd46c836a06233681665,64dc7b0473c0403a94b512b6,,,,,,,sngl,resources/Empty.png,resources/DBN.BMP,Door4,0.203703732,-0.052777778,1,0,0,0.6384,optionRight,60,5740,3,24,0,24,0,1,,,,,,,,,,,,,,,,,,,,,,,,,,,,,,,,,,,,,,,
,,,,,,,,2023-08-16_08h30.32.124,HF_wild_card,2022.2.4,Win32,60.29908345,600b5191a434df19524dd1a0,64d2fd46c836a06233681665,64dc7b0473c0403a94b512b6,,,,,,,ctch,resources/DBN.BMP,resources/DP.BMP,Door4,-0.219444444,-0.033333333,1,0,0,0.7266,optionLeft,60,5800,3,25,0,25,0,1,,,,,,,,,,,,,,,,,,,,,,,,,,,,,,,,,,,,,,,
,,,,,,,,2023-08-16_08h30.32.124,HF_wild_card,2022.2.4,Win32,60.29908345,600b5191a434df19524dd1a0,64d2fd46c836a06233681665,64dc7b0473c0403a94b512b6,,,,,,,ctch,resources/DP.BMP,resources/DBN.BMP,Door4,0.199074131,-0.041666667,1,0,0,0.6082,optionRight,80,5880,3,26,0,26,0,1,,,,,,,,,,,,,,,,,,,,,,,,,,,,,,,,,,,,,,,
,,,,,,,,2023-08-16_08h30.32.124,HF_wild_card,2022.2.4,Win32,60.29908345,600b5191a434df19524dd1a0,64d2fd46c836a06233681665,64dc7b0473c0403a94b512b6,,,,,,,decisionTrl,resources/DY.BMP,resources/DP.BMP,Door1,0.18148151,-0.045370399,1,0,0,0.8969,optionRight,30,5910,3,27,0,27,0,1,,,,,,,,,,,,,,,,,,,,,,,,,,,,,,,,,,,,,,,
,,,,,,,,2023-08-16_08h30.32.124,HF_wild_card,2022.2.4,Win32,60.29908345,600b5191a434df19524dd1a0,64d2fd46c836a06233681665,64dc7b0473c0403a94b512b6,,,,,,,decisionTrl,resources/DR.BMP,resources/DG.BMP,Door3,-0.110185157,-0.038888889,1,0,0,1.0792,optionLeft,70,5980,3,28,0,28,0,1,,,,,,,,,,,,,,,,,,,,,,,,,,,,,,,,,,,,,,,
,,,,,,,,2023-08-16_08h30.32.124,HF_wild_card,2022.2.4,Win32,60.29908345,600b5191a434df19524dd1a0,64d2fd46c836a06233681665,64dc7b0473c0403a94b512b6,,,,,,,decisionTrl,resources/DR.BMP,resources/DBN.BMP,Door4,0.188888889,-0.045370399,1,0,0,0.7567,optionRight,80,6060,3,29,0,29,0,1,,,,,,,,,,,,,,,,,,,,,,,,,,,,,,,,,,,,,,,
,,,,,,,,2023-08-16_08h30.32.124,HF_wild_card,2022.2.4,Win32,60.29908345,600b5191a434df19524dd1a0,64d2fd46c836a06233681665,64dc7b0473c0403a94b512b6,,,,,,,sngl,resources/DG.BMP,resources/Empty.png,WildCard_Ex,-0.210185157,-0.070370399,1,0,0,0.7057,optionLeft,95,6155,3,30,0,30,0,1,,,,,,,,,,,,,,,,,,,,,,,,,,,,,,,,,,,,,,,
,,,,,,,,2023-08-16_08h30.32.124,HF_wild_card,2022.2.4,Win32,60.29908345,600b5191a434df19524dd1a0,64d2fd46c836a06233681665,64dc7b0473c0403a94b512b6,,,,,,,decisionTrl,resources/DR.BMP,resources/DBN.BMP,Door4,0.297222222,-0.04629631,1,0,0,1.9056,optionRight,60,6215,3,31,0,31,0,1,,,,,,,,,,,,,,,,,,,,,,,,,,,,,,,,,,,,,,,
,,,,,,,,2023-08-16_08h30.32.124,HF_wild_card,2022.2.4,Win32,60.29908345,600b5191a434df19524dd1a0,64d2fd46c836a06233681665,64dc7b0473c0403a94b512b6,,,,,,,decisionTrl,resources/DBN.BMP,resources/DR.BMP,Door4,-0.262037023,-0.049074088,1,0,0,1.554,optionLeft,80,6295,3,32,0,32,0,1,,,,,,,,,,,,,,,,,,,,,,,,,,,,,,,,,,,,,,,
,,,,,,,,2023-08-16_08h30.32.124,HF_wild_card,2022.2.4,Win32,60.29908345,600b5191a434df19524dd1a0,64d2fd46c836a06233681665,64dc7b0473c0403a94b512b6,,,,,,,decisionTrl,resources/DR.BMP,resources/DBN.BMP,Door4,0.241666667,-0.067592621,1,0,0,1.587,optionRight,60,6355,3,33,0,33,0,1,,,,,,,,,,,,,,,,,,,,,,,,,,,,,,,,,,,,,,,
,,,,,,,,2023-08-16_08h30.32.124,HF_wild_card,2022.2.4,Win32,60.29908345,600b5191a434df19524dd1a0,64d2fd46c836a06233681665,64dc7b0473c0403a94b512b6,,,,,,,decisionTrl,resources/DBN.BMP,resources/DG.BMP,WildCard_Ex,0.324074131,-0.099074088,1,0,0,1.0889,optionRight,5,6360,3,34,0,34,0,1,,,,,,,,,,,,,,,,,,,,,,,,,,,,,,,,,,,,,,,
,,,,,,,,2023-08-16_08h30.32.124,HF_wild_card,2022.2.4,Win32,60.29908345,600b5191a434df19524dd1a0,64d2fd46c836a06233681665,64dc7b0473c0403a94b512b6,,,,,,,decisionTrl,resources/DR.BMP,resources/DBN.BMP,Door4,0.176851908,-0.084259288,1,0,0,0.7548,optionRight,60,6420,3,35,0,35,0,1,,,,,,,,,,,,,,,,,,,,,,,,,,,,,,,,,,,,,,,
,,,,,,,,2023-08-16_08h30.32.124,HF_wild_card,2022.2.4,Win32,60.29908345,600b5191a434df19524dd1a0,64d2fd46c836a06233681665,64dc7b0473c0403a94b512b6,,,,,,,decisionTrl,resources/DBN.BMP,resources/DR.BMP,Door4,-0.35370369,-0.097222222,1,0,0,0.5699,optionLeft,80,6500,3,36,0,36,0,1,,,,,,,,,,,,,,,,,,,,,,,,,,,,,,,,,,,,,,,
,,,,,,,,2023-08-16_08h30.32.124,HF_wild_card,2022.2.4,Win32,60.29908345,600b5191a434df19524dd1a0,64d2fd46c836a06233681665,64dc7b0473c0403a94b512b6,,,,,,,decisionTrl,resources/DBN.BMP,resources/DR.BMP,Door4,-0.217592578,-0.070370399,1,0,0,0.7307,optionLeft,80,6580,3,37,0,37,0,1,,,,,,,,,,,,,,,,,,,,,,,,,,,,,,,,,,,,,,,
,,,,,,,,2023-08-16_08h30.32.124,HF_wild_card,2022.2.4,Win32,60.29908345,600b5191a434df19524dd1a0,64d2fd46c836a06233681665,64dc7b0473c0403a94b512b6,,,,,,,decisionTrl,resources/DP.BMP,resources/DY.BMP,Door1,-0.237037023,-0.059259288,1,0,0,0.8261,optionLeft,30,6610,3,38,0,38,0,1,,,,,,,,,,,,,,,,,,,,,,,,,,,,,,,,,,,,,,,
,,,,,,,,2023-08-16_08h30.32.124,HF_wild_card,2022.2.4,Win32,60.29908345,600b5191a434df19524dd1a0,64d2fd46c836a06233681665,64dc7b0473c0403a94b512b6,,,,,,,ctch,resources/DY.BMP,resources/DR.BMP,Door3,0.189814843,-0.042592621,1,0,0,1.4129,optionRight,70,6680,3,39,0,39,0,1,,,,,,,,,,,,,,,,,,,,,,,,,,,,,,,,,,,,,,,
,,,,,,,,2023-08-16_08h30.32.124,HF_wild_card,2022.2.4,Win32,60.29908345,600b5191a434df19524dd1a0,64d2fd46c836a06233681665,64dc7b0473c0403a94b512b6,,,,,,,sngl,resources/DP.BMP,resources/Empty.png,Door1,-0.242592578,-0.066666667,1,0,0,1.2964,optionLeft,30,6710,3,40,0,40,0,1,,,,,,,,,,,,,,,,,,,,,,,,,,,,,,,,,,,,,,,
,,,,,,,,2023-08-16_08h30.32.124,HF_wild_card,2022.2.4,Win32,60.29908345,600b5191a434df19524dd1a0,64d2fd46c836a06233681665,64dc7b0473c0403a94b512b6,,,,,,,decisionTrl,resources/DY.BMP,resources/DG.BMP,WildCard_Ex,0.194444444,-0.017592621,1,0,0,0.9458,optionRight,5,6715,3,41,0,41,0,1,,,,,,,,,,,,,,,,,,,,,,,,,,,,,,,,,,,,,,,
,,,,,,,,2023-08-16_08h30.32.124,HF_wild_card,2022.2.4,Win32,60.29908345,600b5191a434df19524dd1a0,64d2fd46c836a06233681665,64dc7b0473c0403a94b512b6,,,,,,,ctch,resources/DBN.BMP,resources/DP.BMP,Door4,-0.181481467,-0.045370399,1,0,0,0.6634,optionLeft,80,6795,3,42,0,42,0,1,,,,,,,,,,,,,,,,,,,,,,,,,,,,,,,,,,,,,,,
,,,,,,,,2023-08-16_08h30.32.124,HF_wild_card,2022.2.4,Win32,60.29908345,600b5191a434df19524dd1a0,64d2fd46c836a06233681665,64dc7b0473c0403a94b512b6,,,,,,,ctch,resources/DR.BMP,resources/DY.BMP,Door3,-0.171296268,-0.055555556,1,0,0,0.8471,optionLeft,70,6865,3,43,0,43,0,1,,,,,,,,,,,,,,,,,,,,,,,,,,,,,,,,,,,,,,,
,,,,,,,,2023-08-16_08h30.32.124,HF_wild_card,2022.2.4,Win32,60.29908345,600b5191a434df19524dd1a0,64d2fd46c836a06233681665,64dc7b0473c0403a94b512b6,,,,,,,,,,,,,,,,,,,,,,,,,,2,0,2,0,1,,,,,,,,,,,,,,,,,,,,,,,,,,,,,,,,,,
,,,,,,,,2023-08-16_08h30.32.124,HF_wild_card,2022.2.4,Win32,60.29908345,600b5191a434df19524dd1a0,64d2fd46c836a06233681665,64dc7b0473c0403a94b512b6,,,,,,,decisionTrl,resources/DBN.BMP,resources/DR.BMP,Door4,-0.188888889,-0.13148151,1,0,0,0.7958,optionLeft,60,6925,4,0,0,0,0,1,,,,,,,,,,,,,,,,,,,,,,,,,,,,,,,,,,,,,,,
,,,,,,,,2023-08-16_08h30.32.124,HF_wild_card,2022.2.4,Win32,60.29908345,600b5191a434df19524dd1a0,64d2fd46c836a06233681665,64dc7b0473c0403a94b512b6,,,,,,,decisionTrl,resources/DY.BMP,resources/DP.BMP,Door1,0.149074131,-0.050925954,1,0,0,0.6209,optionRight,30,6955,4,1,0,1,0,1,,,,,,,,,,,,,,,,,,,,,,,,,,,,,,,,,,,,,,,
,,,,,,,,2023-08-16_08h30.32.124,HF_wild_card,2022.2.4,Win32,60.29908345,600b5191a434df19524dd1a0,64d2fd46c836a06233681665,64dc7b0473c0403a94b512b6,,,,,,,decisionTrl,resources/DP.BMP,resources/DY.BMP,Door1,-0.238888889,-0.053703732,1,0,0,1.4627,optionLeft,30,6985,4,2,0,2,0,1,,,,,,,,,,,,,,,,,,,,,,,,,,,,,,,,,,,,,,,
,,,,,,,,2023-08-16_08h30.32.124,HF_wild_card,2022.2.4,Win32,60.29908345,600b5191a434df19524dd1a0,64d2fd46c836a06233681665,64dc7b0473c0403a94b512b6,,,,,,,sngl,resources/Empty.png,resources/DY.BMP,Door2,0.236111111,-0.048148176,1,0,0,0.5474,optionRight,40,7025,4,3,0,3,0,1,,,,,,,,,,,,,,,,,,,,,,,,,,,,,,,,,,,,,,,
,,,,,,,,2023-08-16_08h30.32.124,HF_wild_card,2022.2.4,Win32,60.29908345,600b5191a434df19524dd1a0,64d2fd46c836a06233681665,64dc7b0473c0403a94b512b6,,,,,,,decisionTrl,resources/DR.BMP,resources/DBN.BMP,Door4,0.267592621,-0.02129631,1,0,0,0.7048,optionRight,80,7105,4,4,0,4,0,1,,,,,,,,,,,,,,,,,,,,,,,,,,,,,,,,,,,,,,,
,,,,,,,,2023-08-16_08h30.32.124,HF_wild_card,2022.2.4,Win32,60.29908345,600b5191a434df19524dd1a0,64d2fd46c836a06233681665,64dc7b0473c0403a94b512b6,,,,,,,sngl,resources/Empty.png,resources/DB.BMP,WildCard_NonEx,0.245370399,-0.075925954,1,0,0,0.9966,optionRight,55,7160,4,5,0,5,0,1,,,,,,,,,,,,,,,,,,,,,,,,,,,,,,,,,,,,,,,
,,,,,,,,2023-08-16_08h30.32.124,HF_wild_card,2022.2.4,Win32,60.29908345,600b5191a434df19524dd1a0,64d2fd46c836a06233681665,64dc7b0473c0403a94b512b6,,,,,,,ctch,resources/DY.BMP,resources/DR.BMP,Door2,-0.194444444,-0.064814843,1,0,0,0.8792,optionLeft,40,7200,4,6,0,6,0,1,,,,,,,,,,,,,,,,,,,,,,,,,,,,,,,,,,,,,,,
,,,,,,,,2023-08-16_08h30.32.124,HF_wild_card,2022.2.4,Win32,60.29908345,600b5191a434df19524dd1a0,64d2fd46c836a06233681665,64dc7b0473c0403a94b512b6,,,,,,,decisionTrl,resources/DB.BMP,resources/DP.BMP,Door1,0.167592621,-0.050925954,1,0,0,0.6726,optionRight,30,7230,4,7,0,7,0,1,,,,,,,,,,,,,,,,,,,,,,,,,,,,,,,,,,,,,,,
,,,,,,,,2023-08-16_08h30.32.124,HF_wild_card,2022.2.4,Win32,60.29908345,600b5191a434df19524dd1a0,64d2fd46c836a06233681665,64dc7b0473c0403a94b512b6,,,,,,,decisionTrl,resources/DB.BMP,resources/DBN.BMP,WildCard_NonEx,-0.215740712,-0.051851866,1,0,0,0.5549,optionLeft,55,7285,4,8,0,8,0,1,,,,,,,,,,,,,,,,,,,,,,,,,,,,,,,,,,,,,,,
,,,,,,,,2023-08-16_08h30.32.124,HF_wild_card,2022.2.4,Win32,60.29908345,600b5191a434df19524dd1a0,64d2fd46c836a06233681665,64dc7b0473c0403a94b512b6,,,,,,,decisionTrl,resources/DY.BMP,resources/DP.BMP,Door1,0.186111111,-0.026851866,1,0,0,0.78,optionRight,30,7315,4,9,0,9,0,1,,,,,,,,,,,,,,,,,,,,,,,,,,,,,,,,,,,,,,,
,,,,,,,,2023-08-16_08h30.32.124,HF_wild_card,2022.2.4,Win32,60.29908345,600b5191a434df19524dd1a0,64d2fd46c836a06233681665,64dc7b0473c0403a94b512b6,,,,,,,decisionTrl,resources/DP.BMP,resources/DY.BMP,Door2,0.218518575,-0.059259288,1,0,0,0.5969,optionRight,20,7335,4,10,0,10,0,1,,,,,,,,,,,,,,,,,,,,,,,,,,,,,,,,,,,,,,,
,,,,,,,,2023-08-16_08h30.32.124,HF_wild_card,2022.2.4,Win32,60.29908345,600b5191a434df19524dd1a0,64d2fd46c836a06233681665,64dc7b0473c0403a94b512b6,,,,,,,sngl,resources/Empty.png,resources/DP.BMP,Door1,0.228703732,-0.09629631,1,0,0,0.6204,optionRight,30,7365,4,11,0,11,0,1,,,,,,,,,,,,,,,,,,,,,,,,,,,,,,,,,,,,,,,
,,,,,,,,2023-08-16_08h30.32.124,HF_wild_card,2022.2.4,Win32,60.29908345,600b5191a434df19524dd1a0,64d2fd46c836a06233681665,64dc7b0473c0403a94b512b6,,,,,,,sngl,resources/DP.BMP,resources/Empty.png,Door1,-0.212037023,-0.073148176,1,0,0,0.7542,optionLeft,30,7395,4,12,0,12,0,1,,,,,,,,,,,,,,,,,,,,,,,,,,,,,,,,,,,,,,,
,,,,,,,,2023-08-16_08h30.32.124,HF_wild_card,2022.2.4,Win32,60.29908345,600b5191a434df19524dd1a0,64d2fd46c836a06233681665,64dc7b0473c0403a94b512b6,,,,,,,sngl,resources/DR.BMP,resources/Empty.png,Door3,-0.21851849,-0.074074088,1,0,0,0.6737,optionLeft,70,7465,4,13,0,13,0,1,,,,,,,,,,,,,,,,,,,,,,,,,,,,,,,,,,,,,,,
,,,,,,,,2023-08-16_08h30.32.124,HF_wild_card,2022.2.4,Win32,60.29908345,600b5191a434df19524dd1a0,64d2fd46c836a06233681665,64dc7b0473c0403a94b512b6,,,,,,,sngl,resources/Empty.png,resources/DBN.BMP,Door4,0.225925954,-0.053703732,1,0,0,0.5802,optionRight,80,7545,4,14,0,14,0,1,,,,,,,,,,,,,,,,,,,,,,,,,,,,,,,,,,,,,,,
,,,,,,,,2023-08-16_08h30.32.124,HF_wild_card,2022.2.4,Win32,60.29908345,600b5191a434df19524dd1a0,64d2fd46c836a06233681665,64dc7b0473c0403a94b512b6,,,,,,,decisionTrl,resources/DR.BMP,resources/DBN.BMP,Door4,0.179629686,-0.035185199,1,0,0,1.1294,optionRight,80,7625,4,15,0,15,0,1,,,,,,,,,,,,,,,,,,,,,,,,,,,,,,,,,,,,,,,
,,,,,,,,2023-08-16_08h30.32.124,HF_wild_card,2022.2.4,Win32,60.29908345,600b5191a434df19524dd1a0,64d2fd46c836a06233681665,64dc7b0473c0403a94b512b6,,,,,,,sngl,resources/DY.BMP,resources/Empty.png,Door2,-0.142592536,-0.054629644,1,0,0,1.0184,optionLeft,20,7645,4,16,0,16,0,1,,,,,,,,,,,,,,,,,,,,,,,,,,,,,,,,,,,,,,,
,,,,,,,,2023-08-16_08h30.32.124,HF_wild_card,2022.2.4,Win32,60.29908345,600b5191a434df19524dd1a0,64d2fd46c836a06233681665,64dc7b0473c0403a94b512b6,,,,,,,decisionTrl,resources/DR.BMP,resources/DBN.BMP,Door4,0.130555556,-0.064814843,1,0,0,0.7791,optionRight,80,7725,4,17,0,17,0,1,,,,,,,,,,,,,,,,,,,,,,,,,,,,,,,,,,,,,,,
,,,,,,,,2023-08-16_08h30.32.124,HF_wild_card,2022.2.4,Win32,60.29908345,600b5191a434df19524dd1a0,64d2fd46c836a06233681665,64dc7b0473c0403a94b512b6,,,,,,,decisionTrl,resources/DR.BMP,resources/DB.BMP,WildCard_NonEx,0.154629686,-0.066666667,1,0,0,1.2311,optionRight,45,7770,4,18,0,18,0,1,,,,,,,,,,,,,,,,,,,,,,,,,,,,,,,,,,,,,,,
,,,,,,,,2023-08-16_08h30.32.124,HF_wild_card,2022.2.4,Win32,60.29908345,600b5191a434df19524dd1a0,64d2fd46c836a06233681665,64dc7b0473c0403a94b512b6,,,,,,,decisionTrl,resources/DBN.BMP,resources/DR.BMP,Door4,-0.297222222,-0.018518533,1,0,0,1.0053,optionLeft,80,7850,4,19,0,19,0,1,,,,,,,,,,,,,,,,,,,,,,,,,,,,,,,,,,,,,,,
,,,,,,,,2023-08-16_08h30.32.124,HF_wild_card,2022.2.4,Win32,60.29908345,600b5191a434df19524dd1a0,64d2fd46c836a06233681665,64dc7b0473c0403a94b512b6,,,,,,,decisionTrl,resources/DY.BMP,resources/DP.BMP,Door2,-0.222222222,-0.074074088,1,0,0,1.1298,optionLeft,20,7870,4,20,0,20,0,1,,,,,,,,,,,,,,,,,,,,,,,,,,,,,,,,,,,,,,,
,,,,,,,,2023-08-16_08h30.32.124,HF_wild_card,2022.2.4,Win32,60.29908345,600b5191a434df19524dd1a0,64d2fd46c836a06233681665,64dc7b0473c0403a94b512b6,,,,,,,sngl,resources/DB.BMP,resources/Empty.png,WildCard_NonEx,-0.255555556,-0.118518533,1,0,0,0.5293,optionLeft,55,7925,4,21,0,21,0,1,,,,,,,,,,,,,,,,,,,,,,,,,,,,,,,,,,,,,,,
,,,,,,,,2023-08-16_08h30.32.124,HF_wild_card,2022.2.4,Win32,60.29908345,600b5191a434df19524dd1a0,64d2fd46c836a06233681665,64dc7b0473c0403a94b512b6,,,,,,,decisionTrl,resources/DB.BMP,resources/DR.BMP,Door3,0.115740797,-0.028703732,1,0,0,0.9223,optionRight,70,7995,4,22,0,22,0,1,,,,,,,,,,,,,,,,,,,,,,,,,,,,,,,,,,,,,,,
,,,,,,,,2023-08-16_08h30.32.124,HF_wild_card,2022.2.4,Win32,60.29908345,600b5191a434df19524dd1a0,64d2fd46c836a06233681665,64dc7b0473c0403a94b512b6,,,,,,,decisionTrl,resources/DB.BMP,resources/DY.BMP,WildCard_NonEx,-0.137036981,-0.062037065,1,0,0,1.562,optionLeft,55,8050,4,23,0,23,0,1,,,,,,,,,,,,,,,,,,,,,,,,,,,,,,,,,,,,,,,
,,,,,,,,2023-08-16_08h30.32.124,HF_wild_card,2022.2.4,Win32,60.29908345,600b5191a434df19524dd1a0,64d2fd46c836a06233681665,64dc7b0473c0403a94b512b6,,,,,,,decisionTrl,resources/DY.BMP,resources/DB.BMP,WildCard_NonEx,0.183333333,-0.060185199,1,0,0,0.6538,optionRight,45,8095,4,24,0,24,0,1,,,,,,,,,,,,,,,,,,,,,,,,,,,,,,,,,,,,,,,
,,,,,,,,2023-08-16_08h30.32.124,HF_wild_card,2022.2.4,Win32,60.29908345,600b5191a434df19524dd1a0,64d2fd46c836a06233681665,64dc7b0473c0403a94b512b6,,,,,,,sngl,resources/Empty.png,resources/DB.BMP,WildCard_NonEx,0.139814843,-0.062962977,1,0,0,0.7294,optionRight,45,8140,4,25,0,25,0,1,,,,,,,,,,,,,,,,,,,,,,,,,,,,,,,,,,,,,,,
,,,,,,,,2023-08-16_08h30.32.124,HF_wild_card,2022.2.4,Win32,60.29908345,600b5191a434df19524dd1a0,64d2fd46c836a06233681665,64dc7b0473c0403a94b512b6,,,,,,,sngl,resources/DBN.BMP,resources/Empty.png,Door4,-0.164814758,-0.034259288,1,0,0,0.7846,optionLeft,60,8200,4,26,0,26,0,1,,,,,,,,,,,,,,,,,,,,,,,,,,,,,,,,,,,,,,,
,,,,,,,,2023-08-16_08h30.32.124,HF_wild_card,2022.2.4,Win32,60.29908345,600b5191a434df19524dd1a0,64d2fd46c836a06233681665,64dc7b0473c0403a94b512b6,,,,,,,decisionTrl,resources/DP.BMP,resources/DY.BMP,Door1,-0.141666667,-0.072222222,1,0,0,1.3376,optionLeft,30,8230,4,27,0,27,0,1,,,,,,,,,,,,,,,,,,,,,,,,,,,,,,,,,,,,,,,
,,,,,,,,2023-08-16_08h30.32.124,HF_wild_card,2022.2.4,Win32,60.29908345,600b5191a434df19524dd1a0,64d2fd46c836a06233681665,64dc7b0473c0403a94b512b6,,,,,,,ctch,resources/DBN.BMP,resources/DP.BMP,Door4,-0.265740712,-0.028703732,1,0,0,1.1206,optionLeft,80,8310,4,28,0,28,0,1,,,,,,,,,,,,,,,,,,,,,,,,,,,,,,,,,,,,,,,
,,,,,,,,2023-08-16_08h30.32.124,HF_wild_card,2022.2.4,Win32,60.29908345,600b5191a434df19524dd1a0,64d2fd46c836a06233681665,64dc7b0473c0403a94b512b6,,,,,,,decisionTrl,resources/DBN.BMP,resources/DR.BMP,Door3,0.152777778,-0.03148151,1,0,0,1.0223,optionRight,70,8380,4,29,0,29,0,1,,,,,,,,,,,,,,,,,,,,,,,,,,,,,,,,,,,,,,,
,,,,,,,,2023-08-16_08h30.32.124,HF_wild_card,2022.2.4,Win32,60.29908345,600b5191a434df19524dd1a0,64d2fd46c836a06233681665,64dc7b0473c0403a94b512b6,,,,,,,sngl,resources/Empty.png,resources/DR.BMP,Door3,0.120370399,-0.050925954,1,0,0,0.7062,optionRight,70,8450,4,30,0,30,0,1,,,,,,,,,,,,,,,,,,,,,,,,,,,,,,,,,,,,,,,
,,,,,,,,2023-08-16_08h30.32.124,HF_wild_card,2022.2.4,Win32,60.29908345,600b5191a434df19524dd1a0,64d2fd46c836a06233681665,64dc7b0473c0403a94b512b6,,,,,,,decisionTrl,resources/DBN.BMP,resources/DB.BMP,Door4,-0.209259245,-0.075925954,1,0,0,0.962,optionLeft,80,8530,4,31,0,31,0,1,,,,,,,,,,,,,,,,,,,,,,,,,,,,,,,,,,,,,,,
,,,,,,,,2023-08-16_08h30.32.124,HF_wild_card,2022.2.4,Win32,60.29908345,600b5191a434df19524dd1a0,64d2fd46c836a06233681665,64dc7b0473c0403a94b512b6,,,,,,,ctch,resources/DR.BMP,resources/DY.BMP,Door3,-0.212037023,-0.077777778,1,0,0,1.1625,optionLeft,70,8600,4,32,0,32,0,1,,,,,,,,,,,,,,,,,,,,,,,,,,,,,,,,,,,,,,,
,,,,,,,,2023-08-16_08h30.32.124,HF_wild_card,2022.2.4,Win32,60.29908345,600b5191a434df19524dd1a0,64d2fd46c836a06233681665,64dc7b0473c0403a94b512b6,,,,,,,ctch,resources/DR.BMP,resources/DY.BMP,Door3,-0.211111111,-0.066666667,1,0,0,0.9878,optionLeft,70,8670,4,33,0,33,0,1,,,,,,,,,,,,,,,,,,,,,,,,,,,,,,,,,,,,,,,
,,,,,,,,2023-08-16_08h30.32.124,HF_wild_card,2022.2.4,Win32,60.29908345,600b5191a434df19524dd1a0,64d2fd46c836a06233681665,64dc7b0473c0403a94b512b6,,,,,,,sngl,resources/DB.BMP,resources/Empty.png,WildCard_NonEx,-0.15,-0.066666667,1,0,0,0.712,optionLeft,45,8715,4,34,0,34,0,1,,,,,,,,,,,,,,,,,,,,,,,,,,,,,,,,,,,,,,,
,,,,,,,,2023-08-16_08h30.32.124,HF_wild_card,2022.2.4,Win32,60.29908345,600b5191a434df19524dd1a0,64d2fd46c836a06233681665,64dc7b0473c0403a94b512b6,,,,,,,decisionTrl,resources/DR.BMP,resources/DBN.BMP,Door4,0.307407464,-0.043518533,1,0,0,1.4053,optionRight,80,8795,4,35,0,35,0,1,,,,,,,,,,,,,,,,,,,,,,,,,,,,,,,,,,,,,,,
,,,,,,,,2023-08-16_08h30.32.124,HF_wild_card,2022.2.4,Win32,60.29908345,600b5191a434df19524dd1a0,64d2fd46c836a06233681665,64dc7b0473c0403a94b512b6,,,,,,,decisionTrl,resources/DBN.BMP,resources/DR.BMP,Door4,-0.142592536,-0.037962977,1,0,0,0.9782,optionLeft,60,8855,4,36,0,36,0,1,,,,,,,,,,,,,,,,,,,,,,,,,,,,,,,,,,,,,,,
,,,,,,,,2023-08-16_08h30.32.124,HF_wild_card,2022.2.4,Win32,60.29908345,600b5191a434df19524dd1a0,64d2fd46c836a06233681665,64dc7b0473c0403a94b512b6,,,,,,,ctch,resources/DP.BMP,resources/DBN.BMP,Door4,0.171296353,-0.054629644,1,0,0,0.8496,optionRight,80,8935,4,37,0,37,0,1,,,,,,,,,,,,,,,,,,,,,,,,,,,,,,,,,,,,,,,
,,,,,,,,2023-08-16_08h30.32.124,HF_wild_card,2022.2.4,Win32,60.29908345,600b5191a434df19524dd1a0,64d2fd46c836a06233681665,64dc7b0473c0403a94b512b6,,,,,,,ctch,resources/DP.BMP,resources/DBN.BMP,Door4,0.128703732,-0.092592621,1,0,0,0.8543,optionRight,60,8995,4,38,0,38,0,1,,,,,,,,,,,,,,,,,,,,,,,,,,,,,,,,,,,,,,,
,,,,,,,,2023-08-16_08h30.32.124,HF_wild_card,2022.2.4,Win32,60.29908345,600b5191a434df19524dd1a0,64d2fd46c836a06233681665,64dc7b0473c0403a94b512b6,,,,,,,decisionTrl,resources/DP.BMP,resources/DY.BMP,Door1,-0.150925869,-0.064814843,1,0,0,1.0125,optionLeft,30,9025,4,39,0,39,0,1,,,,,,,,,,,,,,,,,,,,,,,,,,,,,,,,,,,,,,,
,,,,,,,,2023-08-16_08h30.32.124,HF_wild_card,2022.2.4,Win32,60.29908345,600b5191a434df19524dd1a0,64d2fd46c836a06233681665,64dc7b0473c0403a94b512b6,,,,,,,ctch,resources/DY.BMP,resources/DR.BMP,Door3,0.121296353,-0.050925954,1,0,0,1.0125,optionRight,70,9095,4,40,0,40,0,1,,,,,,,,,,,,,,,,,,,,,,,,,,,,,,,,,,,,,,,
,,,,,,,,2023-08-16_08h30.32.124,HF_wild_card,2022.2.4,Win32,60.29908345,600b5191a434df19524dd1a0,64d2fd46c836a06233681665,64dc7b0473c0403a94b512b6,,,,,,,decisionTrl,resources/DY.BMP,resources/DP.BMP,Door1,0.250925954,-0.062037065,1,0,0,2.2469,optionRight,30,9125,4,41,0,41,0,1,,,,,,,,,,,,,,,,,,,,,,,,,,,,,,,,,,,,,,,
,,,,,,,,2023-08-16_08h30.32.124,HF_wild_card,2022.2.4,Win32,60.29908345,600b5191a434df19524dd1a0,64d2fd46c836a06233681665,64dc7b0473c0403a94b512b6,,,,,,,ctch,resources/DBN.BMP,resources/DP.BMP,Door4,-0.374074046,-0.101851866,1,0,0,0.7585,optionLeft,80,9205,4,42,0,42,0,1,,,,,,,,,,,,,,,,,,,,,,,,,,,,,,,,,,,,,,,
,,,,,,,,2023-08-16_08h30.32.124,HF_wild_card,2022.2.4,Win32,60.29908345,600b5191a434df19524dd1a0,64d2fd46c836a06233681665,64dc7b0473c0403a94b512b6,,,,,,,decisionTrl,resources/DP.BMP,resources/DB.BMP,WildCard_NonEx,0.247222222,-0.095370399,1,0,0,1.754,optionRight,55,9260,4,43,0,43,0,1,,,,,,,,,,,,,,,,,,,,,,,,,,,,,,,,,,,,,,,
,,,,,,,,2023-08-16_08h30.32.124,HF_wild_card,2022.2.4,Win32,60.29908345,600b5191a434df19524dd1a0,64d2fd46c836a06233681665,64dc7b0473c0403a94b512b6,,,,,,,,,,,,,,,,,,,,,,,,,,3,0,3,0,1,,,,,,,,,,,,,,,,,,,,,,,,,,,,,,,,,,
,,,,,,,,2023-08-16_08h30.32.124,HF_wild_card,2022.2.4,Win32,60.29908345,600b5191a434df19524dd1a0,64d2fd46c836a06233681665,64dc7b0473c0403a94b512b6,,,,,,,ctch,resources/DR.BMP,resources/DY.BMP,Door3,-0.256481467,-0.089814843,1,0,0,1.4625,optionLeft,70,9330,5,0,0,0,0,1,,,,,,,,,,,,,,,,,,,,,,,,,,,,,,,,,,,,,,,
,,,,,,,,2023-08-16_08h30.32.124,HF_wild_card,2022.2.4,Win32,60.29908345,600b5191a434df19524dd1a0,64d2fd46c836a06233681665,64dc7b0473c0403a94b512b6,,,,,,,ctch,resources/DP.BMP,resources/DBN.BMP,Door4,0.227777778,-0.070370399,1,0,0,0.6372,optionRight,60,9390,5,1,0,1,0,1,,,,,,,,,,,,,,,,,,,,,,,,,,,,,,,,,,,,,,,
,,,,,,,,2023-08-16_08h30.32.124,HF_wild_card,2022.2.4,Win32,60.29908345,600b5191a434df19524dd1a0,64d2fd46c836a06233681665,64dc7b0473c0403a94b512b6,,,,,,,decisionTrl,resources/DB.BMP,resources/DY.BMP,WildCard_NonEx,-0.235185157,-0.040740755,1,0,0,1.7867,optionLeft,55,9445,5,2,0,2,0,1,,,,,,,,,,,,,,,,,,,,,,,,,,,,,,,,,,,,,,,
,,,,,,,,2023-08-16_08h30.32.124,HF_wild_card,2022.2.4,Win32,60.29908345,600b5191a434df19524dd1a0,64d2fd46c836a06233681665,64dc7b0473c0403a94b512b6,,,,,,,sngl,resources/Empty.png,resources/DBN.BMP,Door4,0.207407464,-0.047222222,1,0,0,0.7036,optionRight,60,9505,5,3,0,3,0,1,,,,,,,,,,,,,,,,,,,,,,,,,,,,,,,,,,,,,,,
,,,,,,,,2023-08-16_08h30.32.124,HF_wild_card,2022.2.4,Win32,60.29908345,600b5191a434df19524dd1a0,64d2fd46c836a06233681665,64dc7b0473c0403a94b512b6,,,,,,,sngl,resources/Empty.png,resources/DY.BMP,Door2,0.203703732,-0.070370399,1,0,0,0.6461,optionRight,20,9525,5,4,0,4,0,1,,,,,,,,,,,,,,,,,,,,,,,,,,,,,,,,,,,,,,,
,,,,,,,,2023-08-16_08h30.32.124,HF_wild_card,2022.2.4,Win32,60.29908345,600b5191a434df19524dd1a0,64d2fd46c836a06233681665,64dc7b0473c0403a94b512b6,,,,,,,decisionTrl,resources/DBN.BMP,resources/DR.BMP,Door4,-0.129629601,-0.037037065,1,0,0,1.2537,optionLeft,80,9605,5,5,0,5,0,1,,,,,,,,,,,,,,,,,,,,,,,,,,,,,,,,,,,,,,,
,,,,,,,,2023-08-16_08h30.32.124,HF_wild_card,2022.2.4,Win32,60.29908345,600b5191a434df19524dd1a0,64d2fd46c836a06233681665,64dc7b0473c0403a94b512b6,,,,,,,decisionTrl,resources/DY.BMP,resources/DB.BMP,Door2,-0.192592578,-0.061111111,1,0,0,0.9543,optionLeft,20,9625,5,6,0,6,0,1,,,,,,,,,,,,,,,,,,,,,,,,,,,,,,,,,,,,,,,
,,,,,,,,2023-08-16_08h30.32.124,HF_wild_card,2022.2.4,Win32,60.29908345,600b5191a434df19524dd1a0,64d2fd46c836a06233681665,64dc7b0473c0403a94b512b6,,,,,,,sngl,resources/DBN.BMP,resources/Empty.png,Door4,-0.215740712,-0.09629631,1,0,0,0.6546,optionLeft,80,9705,5,7,0,7,0,1,,,,,,,,,,,,,,,,,,,,,,,,,,,,,,,,,,,,,,,
,,,,,,,,2023-08-16_08h30.32.124,HF_wild_card,2022.2.4,Win32,60.29908345,600b5191a434df19524dd1a0,64d2fd46c836a06233681665,64dc7b0473c0403a94b512b6,,,,,,,sngl,resources/Empty.png,resources/DB.BMP,WildCard_NonEx,0.140740797,-0.054629644,1,0,0,0.6111,optionRight,55,9760,5,8,0,8,0,1,,,,,,,,,,,,,,,,,,,,,,,,,,,,,,,,,,,,,,,
,,,,,,,,2023-08-16_08h30.32.124,HF_wild_card,2022.2.4,Win32,60.29908345,600b5191a434df19524dd1a0,64d2fd46c836a06233681665,64dc7b0473c0403a94b512b6,,,,,,,decisionTrl,resources/DP.BMP,resources/DB.BMP,WildCard_NonEx,0.155555556,-0.03148151,1,0,0,0.8286,optionRight,55,9815,5,9,0,9,0,1,,,,,,,,,,,,,,,,,,,,,,,,,,,,,,,,,,,,,,,
,,,,,,,,2023-08-16_08h30.32.124,HF_wild_card,2022.2.4,Win32,60.29908345,600b5191a434df19524dd1a0,64d2fd46c836a06233681665,64dc7b0473c0403a94b512b6,,,,,,,ctch,resources/DR.BMP,resources/DY.BMP,Door3,-0.196296268,-0.043518533,1,0,0,1.0877,optionLeft,70,9885,5,10,0,10,0,1,,,,,,,,,,,,,,,,,,,,,,,,,,,,,,,,,,,,,,,
,,,,,,,,2023-08-16_08h30.32.124,HF_wild_card,2022.2.4,Win32,60.29908345,600b5191a434df19524dd1a0,64d2fd46c836a06233681665,64dc7b0473c0403a94b512b6,,,,,,,decisionTrl,resources/DB.BMP,resources/DP.BMP,WildCard_NonEx,-0.180555556,-0.041666667,1,0,0,0.9525,optionLeft,55,9940,5,11,0,11,0,1,,,,,,,,,,,,,,,,,,,,,,,,,,,,,,,,,,,,,,,
,,,,,,,,2023-08-16_08h30.32.124,HF_wild_card,2022.2.4,Win32,60.29908345,600b5191a434df19524dd1a0,64d2fd46c836a06233681665,64dc7b0473c0403a94b512b6,,,,,,,ctch,resources/DY.BMP,resources/DR.BMP,Door3,0.214814843,-0.073148176,1,0,0,1.5791,optionRight,70,10010,5,12,0,12,0,1,,,,,,,,,,,,,,,,,,,,,,,,,,,,,,,,,,,,,,,
,,,,,,,,2023-08-16_08h30.32.124,HF_wild_card,2022.2.4,Win32,60.29908345,600b5191a434df19524dd1a0,64d2fd46c836a06233681665,64dc7b0473c0403a94b512b6,,,,,,,decisionTrl,resources/DR.BMP,resources/DBN.BMP,Door4,0.204629686,-0.067592621,1,0,0,0.9893,optionRight,60,10070,5,13,0,13,0,1,,,,,,,,,,,,,,,,,,,,,,,,,,,,,,,,,,,,,,,
,,,,,,,,2023-08-16_08h30.32.124,HF_wild_card,2022.2.4,Win32,60.29908345,600b5191a434df19524dd1a0,64d2fd46c836a06233681665,64dc7b0473c0403a94b512b6,,,,,,,decisionTrl,resources/DB.BMP,resources/DBN.BMP,Door4,0.201851908,-0.086111111,1,0,0,2.1866,optionRight,60,10130,5,14,0,14,0,1,,,,,,,,,,,,,,,,,,,,,,,,,,,,,,,,,,,,,,,
,,,,,,,,2023-08-16_08h30.32.124,HF_wild_card,2022.2.4,Win32,60.29908345,600b5191a434df19524dd1a0,64d2fd46c836a06233681665,64dc7b0473c0403a94b512b6,,,,,,,sngl,resources/DP.BMP,resources/Empty.png,Door1,-0.204629601,-0.082407422,1,0,0,0.6461,optionLeft,30,10160,5,15,0,15,0,1,,,,,,,,,,,,,,,,,,,,,,,,,,,,,,,,,,,,,,,
,,,,,,,,2023-08-16_08h30.32.124,HF_wild_card,2022.2.4,Win32,60.29908345,600b5191a434df19524dd1a0,64d2fd46c836a06233681665,64dc7b0473c0403a94b512b6,,,,,,,sngl,resources/DY.BMP,resources/Empty.png,Door2,-0.173148092,-0.062962977,1,0,0,0.6043,optionLeft,40,10200,5,16,0,16,0,1,,,,,,,,,,,,,,,,,,,,,,,,,,,,,,,,,,,,,,,
,,,,,,,,2023-08-16_08h30.32.124,HF_wild_card,2022.2.4,Win32,60.29908345,600b5191a434df19524dd1a0,64d2fd46c836a06233681665,64dc7b0473c0403a94b512b6,,,,,,,decisionTrl,resources/DR.BMP,resources/DBN.BMP,Door4,0.23148151,-0.060185199,1,0,0,1.8873,optionRight,60,10260,5,17,0,17,0,1,,,,,,,,,,,,,,,,,,,,,,,,,,,,,,,,,,,,,,,
,,,,,,,,2023-08-16_08h30.32.124,HF_wild_card,2022.2.4,Win32,60.29908345,600b5191a434df19524dd1a0,64d2fd46c836a06233681665,64dc7b0473c0403a94b512b6,,,,,,,decisionTrl,resources/DP.BMP,resources/DY.BMP,Door2,0.190740797,-0.113888889,1,0,0,1.5305,optionRight,20,10280,5,18,0,18,0,1,,,,,,,,,,,,,,,,,,,,,,,,,,,,,,,,,,,,,,,
,,,,,,,,2023-08-16_08h30.32.124,HF_wild_card,2022.2.4,Win32,60.29908345,600b5191a434df19524dd1a0,64d2fd46c836a06233681665,64dc7b0473c0403a94b512b6,,,,,,,sngl,resources/DB.BMP,resources/Empty.png,WildCard_NonEx,-0.165740712,-0.051851866,1,0,0,0.6462,optionLeft,45,10325,5,19,0,19,0,1,,,,,,,,,,,,,,,,,,,,,,,,,,,,,,,,,,,,,,,
,,,,,,,,2023-08-16_08h30.32.124,HF_wild_card,2022.2.4,Win32,60.29908345,600b5191a434df19524dd1a0,64d2fd46c836a06233681665,64dc7b0473c0403a94b512b6,,,,,,,sngl,resources/Empty.png,resources/DR.BMP,Door3,0.259259288,-0.12129631,1,0,0,0.597,optionRight,70,10395,5,20,0,20,0,1,,,,,,,,,,,,,,,,,,,,,,,,,,,,,,,,,,,,,,,
,,,,,,,,2023-08-16_08h30.32.124,HF_wild_card,2022.2.4,Win32,60.29908345,600b5191a434df19524dd1a0,64d2fd46c836a06233681665,64dc7b0473c0403a94b512b6,,,,,,,ctch,resources/DY.BMP,resources/DR.BMP,Door3,0.199074131,-0.040740755,1,0,0,1.297,optionRight,70,10465,5,21,0,21,0,1,,,,,,,,,,,,,,,,,,,,,,,,,,,,,,,,,,,,,,,
,,,,,,,,2023-08-16_08h30.32.124,HF_wild_card,2022.2.4,Win32,60.29908345,600b5191a434df19524dd1a0,64d2fd46c836a06233681665,64dc7b0473c0403a94b512b6,,,,,,,sngl,resources/Empty.png,resources/DB.BMP,WildCard_NonEx,0.200925954,-0.095370399,1,0,0,0.7203,optionRight,45,10510,5,22,0,22,0,1,,,,,,,,,,,,,,,,,,,,,,,,,,,,,,,,,,,,,,,
,,,,,,,,2023-08-16_08h30.32.124,HF_wild_card,2022.2.4,Win32,60.29908345,600b5191a434df19524dd1a0,64d2fd46c836a06233681665,64dc7b0473c0403a94b512b6,,,,,,,ctch,resources/DBN.BMP,resources/DP.BMP,Door4,-0.189814801,-0.039814843,1,0,0,0.837,optionLeft,60,10570,5,23,0,23,0,1,,,,,,,,,,,,,,,,,,,,,,,,,,,,,,,,,,,,,,,
,,,,,,,,2023-08-16_08h30.32.124,HF_wild_card,2022.2.4,Win32,60.29908345,600b5191a434df19524dd1a0,64d2fd46c836a06233681665,64dc7b0473c0403a94b512b6,,,,,,,decisionTrl,resources/DY.BMP,resources/DP.BMP,Door1,0.215740797,-0.000925954,1,0,0,1.042,optionRight,30,10600,5,24,0,24,0,1,,,,,,,,,,,,,,,,,,,,,,,,,,,,,,,,,,,,,,,
,,,,,,,,2023-08-16_08h30.32.124,HF_wild_card,2022.2.4,Win32,60.29908345,600b5191a434df19524dd1a0,64d2fd46c836a06233681665,64dc7b0473c0403a94b512b6,,,,,,,decisionTrl,resources/DBN.BMP,resources/DR.BMP,Door4,-0.194444444,-0.028703732,1,0,0,0.9435,optionLeft,60,10660,5,25,0,25,0,1,,,,,,,,,,,,,,,,,,,,,,,,,,,,,,,,,,,,,,,
,,,,,,,,2023-08-16_08h30.32.124,HF_wild_card,2022.2.4,Win32,60.29908345,600b5191a434df19524dd1a0,64d2fd46c836a06233681665,64dc7b0473c0403a94b512b6,,,,,,,decisionTrl,resources/DY.BMP,resources/DP.BMP,Door1,0.150925954,-0.070370399,1,0,0,1.1297,optionRight,30,10690,5,26,0,26,0,1,,,,,,,,,,,,,,,,,,,,,,,,,,,,,,,,,,,,,,,
,,,,,,,,2023-08-16_08h30.32.124,HF_wild_card,2022.2.4,Win32,60.29908345,600b5191a434df19524dd1a0,64d2fd46c836a06233681665,64dc7b0473c0403a94b512b6,,,,,,,decisionTrl,resources/DBN.BMP,resources/DB.BMP,Door4,-0.209259245,-0.035185199,1,0,0,0.8463,optionLeft,80,10770,5,27,0,27,0,1,,,,,,,,,,,,,,,,,,,,,,,,,,,,,,,,,,,,,,,
,,,,,,,,2023-08-16_08h30.32.124,HF_wild_card,2022.2.4,Win32,60.29908345,600b5191a434df19524dd1a0,64d2fd46c836a06233681665,64dc7b0473c0403a94b512b6,,,,,,,sngl,resources/Empty.png,resources/DP.BMP,Door1,0.178703732,-0.066666667,1,0,0,0.6962,optionRight,30,10800,5,28,0,28,0,1,,,,,,,,,,,,,,,,,,,,,,,,,,,,,,,,,,,,,,,
,,,,,,,,2023-08-16_08h30.32.124,HF_wild_card,2022.2.4,Win32,60.29908345,600b5191a434df19524dd1a0,64d2fd46c836a06233681665,64dc7b0473c0403a94b512b6,,,,,,,ctch,resources/DP.BMP,resources/DBN.BMP,Door4,0.210185242,-0.044444444,1,0,0,0.6755,optionRight,80,10880,5,29,0,29,0,1,,,,,,,,,,,,,,,,,,,,,,,,,,,,,,,,,,,,,,,
,,,,,,,,2023-08-16_08h30.32.124,HF_wild_card,2022.2.4,Win32,60.29908345,600b5191a434df19524dd1a0,64d2fd46c836a06233681665,64dc7b0473c0403a94b512b6,,,,,,,decisionTrl,resources/DR.BMP,resources/DBN.BMP,Door4,0.200925954,-0.027777778,1,0,0,0.6457,optionRight,80,10960,5,30,0,30,0,1,,,,,,,,,,,,,,,,,,,,,,,,,,,,,,,,,,,,,,,
,,,,,,,,2023-08-16_08h30.32.124,HF_wild_card,2022.2.4,Win32,60.29908345,600b5191a434df19524dd1a0,64d2fd46c836a06233681665,64dc7b0473c0403a94b512b6,,,,,,,decisionTrl,resources/DP.BMP,resources/DY.BMP,Door1,-0.205555556,-0.026851866,1,0,0,1.0451,optionLeft,30,10990,5,31,0,31,0,1,,,,,,,,,,,,,,,,,,,,,,,,,,,,,,,,,,,,,,,
,,,,,,,,2023-08-16_08h30.32.124,HF_wild_card,2022.2.4,Win32,60.29908345,600b5191a434df19524dd1a0,64d2fd46c836a06233681665,64dc7b0473c0403a94b512b6,,,,,,,decisionTrl,resources/DY.BMP,resources/DP.BMP,Door1,0.212963019,-0.037962977,1,0,0,0.6465,optionRight,30,11020,5,32,0,32,0,1,,,,,,,,,,,,,,,,,,,,,,,,,,,,,,,,,,,,,,,
,,,,,,,,2023-08-16_08h30.32.124,HF_wild_card,2022.2.4,Win32,60.29908345,600b5191a434df19524dd1a0,64d2fd46c836a06233681665,64dc7b0473c0403a94b512b6,,,,,,,decisionTrl,resources/DBN.BMP,resources/DR.BMP,Door4,-0.297222222,-0.072222222,1,0,0,0.8706,optionLeft,60,11080,5,33,0,33,0,1,,,,,,,,,,,,,,,,,,,,,,,,,,,,,,,,,,,,,,,
,,,,,,,,2023-08-16_08h30.32.124,HF_wild_card,2022.2.4,Win32,60.29908345,600b5191a434df19524dd1a0,64d2fd46c836a06233681665,64dc7b0473c0403a94b512b6,,,,,,,decisionTrl,resources/DP.BMP,resources/DY.BMP,Door2,0.168518575,-0.035185199,1,0,0,0.7131,optionRight,40,11120,5,34,0,34,0,1,,,,,,,,,,,,,,,,,,,,,,,,,,,,,,,,,,,,,,,
,,,,,,,,2023-08-16_08h30.32.124,HF_wild_card,2022.2.4,Win32,60.29908345,600b5191a434df19524dd1a0,64d2fd46c836a06233681665,64dc7b0473c0403a94b512b6,,,,,,,sngl,resources/DB.BMP,resources/Empty.png,WildCard_NonEx,-0.194444444,-0.060185199,1,0,0,0.6132,optionLeft,55,11175,5,35,0,35,0,1,,,,,,,,,,,,,,,,,,,,,,,,,,,,,,,,,,,,,,,
,,,,,,,,2023-08-16_08h30.32.124,HF_wild_card,2022.2.4,Win32,60.29908345,600b5191a434df19524dd1a0,64d2fd46c836a06233681665,64dc7b0473c0403a94b512b6,,,,,,,decisionTrl,resources/DR.BMP,resources/DB.BMP,Door3,-0.221296268,-0.054629644,1,0,0,1.2214,optionLeft,70,11245,5,36,0,36,0,1,,,,,,,,,,,,,,,,,,,,,,,,,,,,,,,,,,,,,,,
,,,,,,,,2023-08-16_08h30.32.124,HF_wild_card,2022.2.4,Win32,60.29908345,600b5191a434df19524dd1a0,64d2fd46c836a06233681665,64dc7b0473c0403a94b512b6,,,,,,,decisionTrl,resources/DBN.BMP,resources/DR.BMP,Door4,-0.324074046,-0.114814843,1,0,0,0.6303,optionLeft,80,11325,5,37,0,37,0,1,,,,,,,,,,,,,,,,,,,,,,,,,,,,,,,,,,,,,,,
,,,,,,,,2023-08-16_08h30.32.124,HF_wild_card,2022.2.4,Win32,60.29908345,600b5191a434df19524dd1a0,64d2fd46c836a06233681665,64dc7b0473c0403a94b512b6,,,,,,,sngl,resources/DR.BMP,resources/Empty.png,Door3,-0.165740712,-0.07129631,1,0,0,0.7117,optionLeft,70,11395,5,38,0,38,0,1,,,,,,,,,,,,,,,,,,,,,,,,,,,,,,,,,,,,,,,
,,,,,,,,2023-08-16_08h30.32.124,HF_wild_card,2022.2.4,Win32,60.29908345,600b5191a434df19524dd1a0,64d2fd46c836a06233681665,64dc7b0473c0403a94b512b6,,,,,,,decisionTrl,resources/DP.BMP,resources/DY.BMP,Door2,0.171296353,-0.062962977,1,0,0,0.9927,optionRight,20,11415,5,39,0,39,0,1,,,,,,,,,,,,,,,,,,,,,,,,,,,,,,,,,,,,,,,
,,,,,,,,2023-08-16_08h30.32.124,HF_wild_card,2022.2.4,Win32,60.29908345,600b5191a434df19524dd1a0,64d2fd46c836a06233681665,64dc7b0473c0403a94b512b6,,,,,,,ctch,resources/DBN.BMP,resources/DP.BMP,Door4,-0.369444444,-0.026851866,1,0,0,0.8963,optionLeft,80,11495,5,40,0,40,0,1,,,,,,,,,,,,,,,,,,,,,,,,,,,,,,,,,,,,,,,
,,,,,,,,2023-08-16_08h30.32.124,HF_wild_card,2022.2.4,Win32,60.29908345,600b5191a434df19524dd1a0,64d2fd46c836a06233681665,64dc7b0473c0403a94b512b6,,,,,,,decisionTrl,resources/DR.BMP,resources/DBN.BMP,Door4,0.238888889,-0.090740755,1,0,0,0.7972,optionRight,60,11555,5,41,0,41,0,1,,,,,,,,,,,,,,,,,,,,,,,,,,,,,,,,,,,,,,,
,,,,,,,,2023-08-16_08h30.32.124,HF_wild_card,2022.2.4,Win32,60.29908345,600b5191a434df19524dd1a0,64d2fd46c836a06233681665,64dc7b0473c0403a94b512b6,,,,,,,decisionTrl,resources/DY.BMP,resources/DP.BMP,Door1,0.213888889,-0.049074088,1,0,0,1.0794,optionRight,30,11585,5,42,0,42,0,1,,,,,,,,,,,,,,,,,,,,,,,,,,,,,,,,,,,,,,,
,,,,,,,,2023-08-16_08h30.32.124,HF_wild_card,2022.2.4,Win32,60.29908345,600b5191a434df19524dd1a0,64d2fd46c836a06233681665,64dc7b0473c0403a94b512b6,,,,,,,decisionTrl,resources/DB.BMP,resources/DR.BMP,WildCard_NonEx,-0.16851849,-0.063888889,1,0,0,0.8201,optionLeft,45,11630,5,43,0,43,0,1,,,,,,,,,,,,,,,,,,,,,,,,,,,,,,,,,,,,,,,
,,,,,,,,2023-08-16_08h30.32.124,HF_wild_card,2022.2.4,Win32,60.29908345,600b5191a434df19524dd1a0,64d2fd46c836a06233681665,64dc7b0473c0403a94b512b6,,,,,,,,,,,,,,,,,,,,,,,,,,4,0,4,0,1,,,,,,,,,,,,,,,,,,,,,,,,,,,,,,,,,,
,,,,,,,,2023-08-16_08h30.32.124,HF_wild_card,2022.2.4,Win32,60.29908345,600b5191a434df19524dd1a0,64d2fd46c836a06233681665,64dc7b0473c0403a94b512b6,,,,,,,decisionTrl,resources/DB.BMP,resources/DP.BMP,WildCard_NonEx,-0.250925912,-0.007407422,1,0,0,1.5441,optionLeft,55,11685,6,0,0,0,0,1,,,,,,,,,,,,,,,,,,,,,,,,,,,,,,,,,,,,,,,
,,,,,,,,2023-08-16_08h30.32.124,HF_wild_card,2022.2.4,Win32,60.29908345,600b5191a434df19524dd1a0,64d2fd46c836a06233681665,64dc7b0473c0403a94b512b6,,,,,,,decisionTrl,resources/DB.BMP,resources/DR.BMP,Door3,0.139814843,-0.039814843,1,0,0,1.3886,optionRight,70,11755,6,1,0,1,0,1,,,,,,,,,,,,,,,,,,,,,,,,,,,,,,,,,,,,,,,
,,,,,,,,2023-08-16_08h30.32.124,HF_wild_card,2022.2.4,Win32,60.29908345,600b5191a434df19524dd1a0,64d2fd46c836a06233681665,64dc7b0473c0403a94b512b6,,,,,,,sngl,resources/DR.BMP,resources/Empty.png,Door3,-0.201851824,-0.064814843,1,0,0,0.5798,optionLeft,70,11825,6,2,0,2,0,1,,,,,,,,,,,,,,,,,,,,,,,,,,,,,,,,,,,,,,,
,,,,,,,,2023-08-16_08h30.32.124,HF_wild_card,2022.2.4,Win32,60.29908345,600b5191a434df19524dd1a0,64d2fd46c836a06233681665,64dc7b0473c0403a94b512b6,,,,,,,decisionTrl,resources/DP.BMP,resources/DB.BMP,WildCard_NonEx,0.121296353,-0.060185199,1,0,0,0.9301,optionRight,55,11880,6,3,0,3,0,1,,,,,,,,,,,,,,,,,,,,,,,,,,,,,,,,,,,,,,,
,,,,,,,,2023-08-16_08h30.32.124,HF_wild_card,2022.2.4,Win32,60.29908345,600b5191a434df19524dd1a0,64d2fd46c836a06233681665,64dc7b0473c0403a94b512b6,,,,,,,decisionTrl,resources/DP.BMP,resources/DY.BMP,Door1,-0.174074046,-0.058333333,1,0,0,0.9883,optionLeft,30,11910,6,4,0,4,0,1,,,,,,,,,,,,,,,,,,,,,,,,,,,,,,,,,,,,,,,
,,,,,,,,2023-08-16_08h30.32.124,HF_wild_card,2022.2.4,Win32,60.29908345,600b5191a434df19524dd1a0,64d2fd46c836a06233681665,64dc7b0473c0403a94b512b6,,,,,,,sngl,resources/DB.BMP,resources/Empty.png,WildCard_NonEx,-0.186111111,-0.054629644,1,0,0,0.6202,optionLeft,55,11965,6,5,0,5,0,1,,,,,,,,,,,,,,,,,,,,,,,,,,,,,,,,,,,,,,,
,,,,,,,,2023-08-16_08h30.32.124,HF_wild_card,2022.2.4,Win32,60.29908345,600b5191a434df19524dd1a0,64d2fd46c836a06233681665,64dc7b0473c0403a94b512b6,,,,,,,sngl,resources/Empty.png,resources/DP.BMP,Door1,0.18148151,-0.044444444,1,0,0,0.6792,optionRight,30,11995,6,6,0,6,0,1,,,,,,,,,,,,,,,,,,,,,,,,,,,,,,,,,,,,,,,
,,,,,,,,2023-08-16_08h30.32.124,HF_wild_card,2022.2.4,Win32,60.29908345,600b5191a434df19524dd1a0,64d2fd46c836a06233681665,64dc7b0473c0403a94b512b6,,,,,,,decisionTrl,resources/DY.BMP,resources/DB.BMP,WildCard_NonEx,0.171296353,-0.037962977,1,0,0,0.8045,optionRight,45,12040,6,7,0,7,0,1,,,,,,,,,,,,,,,,,,,,,,,,,,,,,,,,,,,,,,,
,,,,,,,,2023-08-16_08h30.32.124,HF_wild_card,2022.2.4,Win32,60.29908345,600b5191a434df19524dd1a0,64d2fd46c836a06233681665,64dc7b0473c0403a94b512b6,,,,,,,sngl,resources/DB.BMP,resources/Empty.png,WildCard_NonEx,-0.192592578,-0.042592621,1,0,0,0.5793,optionLeft,45,12085,6,8,0,8,0,1,,,,,,,,,,,,,,,,,,,,,,,,,,,,,,,,,,,,,,,
,,,,,,,,2023-08-16_08h30.32.124,HF_wild_card,2022.2.4,Win32,60.29908345,600b5191a434df19524dd1a0,64d2fd46c836a06233681665,64dc7b0473c0403a94b512b6,,,,,,,decisionTrl,resources/DB.BMP,resources/DY.BMP,WildCard_NonEx,-0.179629601,-0.060185199,1,0,0,1.1882,optionLeft,45,12130,6,9,0,9,0,1,,,,,,,,,,,,,,,,,,,,,,,,,,,,,,,,,,,,,,,
,,,,,,,,2023-08-16_08h30.32.124,HF_wild_card,2022.2.4,Win32,60.29908345,600b5191a434df19524dd1a0,64d2fd46c836a06233681665,64dc7b0473c0403a94b512b6,,,,,,,sngl,resources/Empty.png,resources/DB.BMP,WildCard_NonEx,0.223148176,-0.074074088,1,0,0,0.6531,optionRight,55,12185,6,10,0,10,0,1,,,,,,,,,,,,,,,,,,,,,,,,,,,,,,,,,,,,,,,
,,,,,,,,2023-08-16_08h30.32.124,HF_wild_card,2022.2.4,Win32,60.29908345,600b5191a434df19524dd1a0,64d2fd46c836a06233681665,64dc7b0473c0403a94b512b6,,,,,,,ctch,resources/DBN.BMP,resources/DP.BMP,Door4,-0.274074046,-0.066666667,1,0,0,0.8131,optionLeft,60,12245,6,11,0,11,0,1,,,,,,,,,,,,,,,,,,,,,,,,,,,,,,,,,,,,,,,
,,,,,,,,2023-08-16_08h30.32.124,HF_wild_card,2022.2.4,Win32,60.29908345,600b5191a434df19524dd1a0,64d2fd46c836a06233681665,64dc7b0473c0403a94b512b6,,,,,,,ctch,resources/DY.BMP,resources/DR.BMP,Door3,0.132407464,-0.022222222,1,0,0,1.5443,optionRight,70,12315,6,12,0,12,0,1,,,,,,,,,,,,,,,,,,,,,,,,,,,,,,,,,,,,,,,
,,,,,,,,2023-08-16_08h30.32.124,HF_wild_card,2022.2.4,Win32,60.29908345,600b5191a434df19524dd1a0,64d2fd46c836a06233681665,64dc7b0473c0403a94b512b6,,,,,,,decisionTrl,resources/DP.BMP,resources/DY.BMP,Door1,-0.146296268,-0.03148151,1,0,0,0.8881,optionLeft,30,12345,6,13,0,13,0,1,,,,,,,,,,,,,,,,,,,,,,,,,,,,,,,,,,,,,,,
,,,,,,,,2023-08-16_08h30.32.124,HF_wild_card,2022.2.4,Win32,60.29908345,600b5191a434df19524dd1a0,64d2fd46c836a06233681665,64dc7b0473c0403a94b512b6,,,,,,,ctch,resources/DBN.BMP,resources/DP.BMP,Door4,-0.206481467,0.006481467,1,0,0,0.8555,optionLeft,60,12405,6,14,0,14,0,1,,,,,,,,,,,,,,,,,,,,,,,,,,,,,,,,,,,,,,,
,,,,,,,,2023-08-16_08h30.32.124,HF_wild_card,2022.2.4,Win32,60.29908345,600b5191a434df19524dd1a0,64d2fd46c836a06233681665,64dc7b0473c0403a94b512b6,,,,,,,ctch,resources/DR.BMP,resources/DY.BMP,Door3,-0.153703647,-0.016666667,1,0,0,1.0963,optionLeft,70,12475,6,15,0,15,0,1,,,,,,,,,,,,,,,,,,,,,,,,,,,,,,,,,,,,,,,
,,,,,,,,2023-08-16_08h30.32.124,HF_wild_card,2022.2.4,Win32,60.29908345,600b5191a434df19524dd1a0,64d2fd46c836a06233681665,64dc7b0473c0403a94b512b6,,,,,,,decisionTrl,resources/DBN.BMP,resources/DR.BMP,Door4,-0.181481467,-0.051851866,1,0,0,0.7561,optionLeft,60,12535,6,16,0,16,0,1,,,,,,,,,,,,,,,,,,,,,,,,,,,,,,,,,,,,,,,
,,,,,,,,2023-08-16_08h30.32.124,HF_wild_card,2022.2.4,Win32,60.29908345,600b5191a434df19524dd1a0,64d2fd46c836a06233681665,64dc7b0473c0403a94b512b6,,,,,,,sngl,resources/DP.BMP,resources/Empty.png,Door1,-0.183333333,-0.054629644,1,0,0,0.572,optionLeft,30,12565,6,17,0,17,0,1,,,,,,,,,,,,,,,,,,,,,,,,,,,,,,,,,,,,,,,
,,,,,,,,2023-08-16_08h30.32.124,HF_wild_card,2022.2.4,Win32,60.29908345,600b5191a434df19524dd1a0,64d2fd46c836a06233681665,64dc7b0473c0403a94b512b6,,,,,,,decisionTrl,resources/DR.BMP,resources/DBN.BMP,Door4,0.113888889,-0.011111111,1,0,0,0.7214,optionRight,60,12625,6,18,0,18,0,1,,,,,,,,,,,,,,,,,,,,,,,,,,,,,,,,,,,,,,,
,,,,,,,,2023-08-16_08h30.32.124,HF_wild_card,2022.2.4,Win32,60.29908345,600b5191a434df19524dd1a0,64d2fd46c836a06233681665,64dc7b0473c0403a94b512b6,,,,,,,sngl,resources/Empty.png,resources/DY.BMP,Door2,0.164814843,-0.026851866,1,0,0,0.6541,optionRight,40,12665,6,19,0,19,0,1,,,,,,,,,,,,,,,,,,,,,,,,,,,,,,,,,,,,,,,
,,,,,,,,2023-08-16_08h30.32.124,HF_wild_card,2022.2.4,Win32,60.29908345,600b5191a434df19524dd1a0,64d2fd46c836a06233681665,64dc7b0473c0403a94b512b6,,,,,,,decisionTrl,resources/DR.BMP,resources/DBN.BMP,Door3,-0.234259245,-0.057407422,1,0,0,0.5716,optionLeft,70,12735,6,20,0,20,0,1,,,,,,,,,,,,,,,,,,,,,,,,,,,,,,,,,,,,,,,
,,,,,,,,2023-08-16_08h30.32.124,HF_wild_card,2022.2.4,Win32,60.29908345,600b5191a434df19524dd1a0,64d2fd46c836a06233681665,64dc7b0473c0403a94b512b6,,,,,,,decisionTrl,resources/DP.BMP,resources/DY.BMP,Door2,0.197222222,-0.028703732,1,0,0,1.0803,optionRight,40,12775,6,21,0,21,0,1,,,,,,,,,,,,,,,,,,,,,,,,,,,,,,,,,,,,,,,
,,,,,,,,2023-08-16_08h30.32.124,HF_wild_card,2022.2.4,Win32,60.29908345,600b5191a434df19524dd1a0,64d2fd46c836a06233681665,64dc7b0473c0403a94b512b6,,,,,,,decisionTrl,resources/DBN.BMP,resources/DR.BMP,Door3,0.211111111,-0.069444444,1,0,0,1.372,optionRight,70,12845,6,22,0,22,0,1,,,,,,,,,,,,,,,,,,,,,,,,,,,,,,,,,,,,,,,
,,,,,,,,2023-08-16_08h30.32.124,HF_wild_card,2022.2.4,Win32,60.29908345,600b5191a434df19524dd1a0,64d2fd46c836a06233681665,64dc7b0473c0403a94b512b6,,,,,,,ctch,resources/DY.BMP,resources/DR.BMP,Door3,0.187037065,-0.064814843,1,0,0,0.8297,optionRight,70,12915,6,23,0,23,0,1,,,,,,,,,,,,,,,,,,,,,,,,,,,,,,,,,,,,,,,
,,,,,,,,2023-08-16_08h30.32.124,HF_wild_card,2022.2.4,Win32,60.29908345,600b5191a434df19524dd1a0,64d2fd46c836a06233681665,64dc7b0473c0403a94b512b6,,,,,,,sngl,resources/DBN.BMP,resources/Empty.png,Door4,-0.246296268,-0.057407422,1,0,0,0.78,optionLeft,60,12975,6,24,0,24,0,1,,,,,,,,,,,,,,,,,,,,,,,,,,,,,,,,,,,,,,,
,,,,,,,,2023-08-16_08h30.32.124,HF_wild_card,2022.2.4,Win32,60.29908345,600b5191a434df19524dd1a0,64d2fd46c836a06233681665,64dc7b0473c0403a94b512b6,,,,,,,decisionTrl,resources/DBN.BMP,resources/DR.BMP,Door3,0.246296353,-0.04629631,1,0,0,0.6394,optionRight,70,13045,6,25,0,25,0,1,,,,,,,,,,,,,,,,,,,,,,,,,,,,,,,,,,,,,,,
,,,,,,,,2023-08-16_08h30.32.124,HF_wild_card,2022.2.4,Win32,60.29908345,600b5191a434df19524dd1a0,64d2fd46c836a06233681665,64dc7b0473c0403a94b512b6,,,,,,,decisionTrl,resources/DY.BMP,resources/DP.BMP,Door2,-0.319444444,-0.10648151,1,0,0,1.0217,optionLeft,20,13065,6,26,0,26,0,1,,,,,,,,,,,,,,,,,,,,,,,,,,,,,,,,,,,,,,,
,,,,,,,,2023-08-16_08h30.32.124,HF_wild_card,2022.2.4,Win32,60.29908345,600b5191a434df19524dd1a0,64d2fd46c836a06233681665,64dc7b0473c0403a94b512b6,,,,,,,ctch,resources/DR.BMP,resources/DY.BMP,Door3,-0.169444444,-0.039814843,1,0,0,0.7298,optionLeft,70,13135,6,27,0,27,0,1,,,,,,,,,,,,,,,,,,,,,,,,,,,,,,,,,,,,,,,
,,,,,,,,2023-08-16_08h30.32.124,HF_wild_card,2022.2.4,Win32,60.29908345,600b5191a434df19524dd1a0,64d2fd46c836a06233681665,64dc7b0473c0403a94b512b6,,,,,,,sngl,resources/DY.BMP,resources/Empty.png,Door2,-0.157407379,-0.058333333,1,0,0,0.5872,optionLeft,20,13155,6,28,0,28,0,1,,,,,,,,,,,,,,,,,,,,,,,,,,,,,,,,,,,,,,,
,,,,,,,,2023-08-16_08h30.32.124,HF_wild_card,2022.2.4,Win32,60.29908345,600b5191a434df19524dd1a0,64d2fd46c836a06233681665,64dc7b0473c0403a94b512b6,,,,,,,decisionTrl,resources/DR.BMP,resources/DBN.BMP,Door4,0.213888889,-0.017592621,1,0,0,0.5955,optionRight,60,13215,6,29,0,29,0,1,,,,,,,,,,,,,,,,,,,,,,,,,,,,,,,,,,,,,,,
,,,,,,,,2023-08-16_08h30.32.124,HF_wild_card,2022.2.4,Win32,60.29908345,600b5191a434df19524dd1a0,64d2fd46c836a06233681665,64dc7b0473c0403a94b512b6,,,,,,,decisionTrl,resources/DY.BMP,resources/DP.BMP,Door2,-0.165740712,-0.065740755,1,0,0,1.1555,optionLeft,20,13235,6,30,0,30,0,1,,,,,,,,,,,,,,,,,,,,,,,,,,,,,,,,,,,,,,,
,,,,,,,,2023-08-16_08h30.32.124,HF_wild_card,2022.2.4,Win32,60.29908345,600b5191a434df19524dd1a0,64d2fd46c836a06233681665,64dc7b0473c0403a94b512b6,,,,,,,decisionTrl,resources/DR.BMP,resources/DB.BMP,Door3,-0.181481467,-0.05648151,1,0,0,0.912,optionLeft,70,13305,6,31,0,31,0,1,,,,,,,,,,,,,,,,,,,,,,,,,,,,,,,,,,,,,,,
,,,,,,,,2023-08-16_08h30.32.124,HF_wild_card,2022.2.4,Win32,60.29908345,600b5191a434df19524dd1a0,64d2fd46c836a06233681665,64dc7b0473c0403a94b512b6,,,,,,,sngl,resources/Empty.png,resources/DR.BMP,Door3,0.196296353,-0.059259288,1,0,0,0.6875,optionRight,70,13375,6,32,0,32,0,1,,,,,,,,,,,,,,,,,,,,,,,,,,,,,,,,,,,,,,,
,,,,,,,,2023-08-16_08h30.32.124,HF_wild_card,2022.2.4,Win32,60.29908345,600b5191a434df19524dd1a0,64d2fd46c836a06233681665,64dc7b0473c0403a94b512b6,,,,,,,decisionTrl,resources/DR.BMP,resources/DBN.BMP,Door4,0.202777778,-0.059259288,1,0,0,0.7286,optionRight,60,13435,6,33,0,33,0,1,,,,,,,,,,,,,,,,,,,,,,,,,,,,,,,,,,,,,,,
,,,,,,,,2023-08-16_08h30.32.124,HF_wild_card,2022.2.4,Win32,60.29908345,600b5191a434df19524dd1a0,64d2fd46c836a06233681665,64dc7b0473c0403a94b512b6,,,,,,,decisionTrl,resources/DP.BMP,resources/DY.BMP,Door1,-0.248148134,-0.078703732,1,0,0,1.1373,optionLeft,30,13465,6,34,0,34,0,1,,,,,,,,,,,,,,,,,,,,,,,,,,,,,,,,,,,,,,,
,,,,,,,,2023-08-16_08h30.32.124,HF_wild_card,2022.2.4,Win32,60.29908345,600b5191a434df19524dd1a0,64d2fd46c836a06233681665,64dc7b0473c0403a94b512b6,,,,,,,sngl,resources/Empty.png,resources/DB.BMP,WildCard_NonEx,0.167592621,-0.054629644,1,0,0,0.6167,optionRight,45,13510,6,35,0,35,0,1,,,,,,,,,,,,,,,,,,,,,,,,,,,,,,,,,,,,,,,
,,,,,,,,2023-08-16_08h30.32.124,HF_wild_card,2022.2.4,Win32,60.29908345,600b5191a434df19524dd1a0,64d2fd46c836a06233681665,64dc7b0473c0403a94b512b6,,,,,,,decisionTrl,resources/DBN.BMP,resources/DR.BMP,Door3,0.151851908,-0.043518533,1,0,0,1.0132,optionRight,70,13580,6,36,0,36,0,1,,,,,,,,,,,,,,,,,,,,,,,,,,,,,,,,,,,,,,,
,,,,,,,,2023-08-16_08h30.32.124,HF_wild_card,2022.2.4,Win32,60.29908345,600b5191a434df19524dd1a0,64d2fd46c836a06233681665,64dc7b0473c0403a94b512b6,,,,,,,decisionTrl,resources/DY.BMP,resources/DP.BMP,Door1,0.171296353,-0.072222222,1,0,0,1.33,optionRight,30,13610,6,37,0,37,0,1,,,,,,,,,,,,,,,,,,,,,,,,,,,,,,,,,,,,,,,
,,,,,,,,2023-08-16_08h30.32.124,HF_wild_card,2022.2.4,Win32,60.29908345,600b5191a434df19524dd1a0,64d2fd46c836a06233681665,64dc7b0473c0403a94b512b6,,,,,,,ctch,resources/DP.BMP,resources/DBN.BMP,Door4,0.180555556,-0.027777778,1,0,0,0.7641,optionRight,60,13670,6,38,0,38,0,1,,,,,,,,,,,,,,,,,,,,,,,,,,,,,,,,,,,,,,,
,,,,,,,,2023-08-16_08h30.32.124,HF_wild_card,2022.2.4,Win32,60.29908345,600b5191a434df19524dd1a0,64d2fd46c836a06233681665,64dc7b0473c0403a94b512b6,,,,,,,sngl,resources/Empty.png,resources/DBN.BMP,Door4,0.207407464,-0.055555556,1,0,0,0.655,optionRight,80,13750,6,39,0,39,0,1,,,,,,,,,,,,,,,,,,,,,,,,,,,,,,,,,,,,,,,
,,,,,,,,2023-08-16_08h30.32.124,HF_wild_card,2022.2.4,Win32,60.29908345,600b5191a434df19524dd1a0,64d2fd46c836a06233681665,64dc7b0473c0403a94b512b6,,,,,,,decisionTrl,resources/DB.BMP,resources/DBN.BMP,Door4,0.214814843,-0.041666667,1,0,0,1.0725,optionRight,80,13830,6,40,0,40,0,1,,,,,,,,,,,,,,,,,,,,,,,,,,,,,,,,,,,,,,,
,,,,,,,,2023-08-16_08h30.32.124,HF_wild_card,2022.2.4,Win32,60.29908345,600b5191a434df19524dd1a0,64d2fd46c836a06233681665,64dc7b0473c0403a94b512b6,,,,,,,decisionTrl,resources/DBN.BMP,resources/DB.BMP,Door4,-0.199074046,-0.12129631,1,0,0,0.6693,optionLeft,80,13910,6,41,0,41,0,1,,,,,,,,,,,,,,,,,,,,,,,,,,,,,,,,,,,,,,,
,,,,,,,,2023-08-16_08h30.32.124,HF_wild_card,2022.2.4,Win32,60.29908345,600b5191a434df19524dd1a0,64d2fd46c836a06233681665,64dc7b0473c0403a94b512b6,,,,,,,ctch,resources/DP.BMP,resources/DBN.BMP,Door4,0.145370399,-0.016666667,1,0,0,0.9039,optionRight,60,13970,6,42,0,42,0,1,,,,,,,,,,,,,,,,,,,,,,,,,,,,,,,,,,,,,,,
,,,,,,,,2023-08-16_08h30.32.124,HF_wild_card,2022.2.4,Win32,60.29908345,600b5191a434df19524dd1a0,64d2fd46c836a06233681665,64dc7b0473c0403a94b512b6,,,,,,,decisionTrl,resources/DY.BMP,resources/DP.BMP,Door1,0.228703732,-0.072222222,1,0,0,2.4722,optionRight,30,14000,6,43,0,43,0,1,,,,,,,,,,,,,,,,,,,,,,,,,,,,,,,,,,,,,,,
,,,,,,,,2023-08-16_08h30.32.124,HF_wild_card,2022.2.4,Win32,60.29908345,600b5191a434df19524dd1a0,64d2fd46c836a06233681665,64dc7b0473c0403a94b512b6,,,,,,,,,,,,,,,,,,,,,,,,,,5,0,5,0,1,,,,,,,,,,,,,,,,,,,,,,,,,,,,,,,,,,
,,,,,,,,2023-08-16_08h30.32.124,HF_wild_card,2022.2.4,Win32,60.29908345,600b5191a434df19524dd1a0,64d2fd46c836a06233681665,64dc7b0473c0403a94b512b6,,,,,,,decisionTrl,resources/DBN.BMP,resources/DR.BMP,Door4,-0.312037023,-0.05648151,1,0,0,2.3954,optionLeft,80,14080,7,0,0,0,0,1,,,,,,,,,,,,,,,,,,,,,,,,,,,,,,,,,,,,,,,
,,,,,,,,2023-08-16_08h30.32.124,HF_wild_card,2022.2.4,Win32,60.29908345,600b5191a434df19524dd1a0,64d2fd46c836a06233681665,64dc7b0473c0403a94b512b6,,,,,,,decisionTrl,resources/DP.BMP,resources/DY.BMP,Door1,-0.35370369,-0.050925954,1,0,0,1.3148,optionLeft,30,14110,7,1,0,1,0,1,,,,,,,,,,,,,,,,,,,,,,,,,,,,,,,,,,,,,,,
,,,,,,,,2023-08-16_08h30.32.124,HF_wild_card,2022.2.4,Win32,60.29908345,600b5191a434df19524dd1a0,64d2fd46c836a06233681665,64dc7b0473c0403a94b512b6,,,,,,,decisionTrl,resources/DR.BMP,resources/DBN.BMP,Door3,-0.226851824,-0.062037065,1,0,0,1.4312,optionLeft,70,14180,7,2,0,2,0,1,,,,,,,,,,,,,,,,,,,,,,,,,,,,,,,,,,,,,,,
,,,,,,,,2023-08-16_08h30.32.124,HF_wild_card,2022.2.4,Win32,60.29908345,600b5191a434df19524dd1a0,64d2fd46c836a06233681665,64dc7b0473c0403a94b512b6,,,,,,,ctch,resources/DBN.BMP,resources/DP.BMP,Door4,-0.240740712,-0.061111111,1,0,0,1.022,optionLeft,60,14240,7,3,0,3,0,1,,,,,,,,,,,,,,,,,,,,,,,,,,,,,,,,,,,,,,,
,,,,,,,,2023-08-16_08h30.32.124,HF_wild_card,2022.2.4,Win32,60.29908345,600b5191a434df19524dd1a0,64d2fd46c836a06233681665,64dc7b0473c0403a94b512b6,,,,,,,decisionTrl,resources/DR.BMP,resources/DBN.BMP,Door3,-0.192592578,-0.072222222,1,0,0,1.3232,optionLeft,70,14310,7,4,0,4,0,1,,,,,,,,,,,,,,,,,,,,,,,,,,,,,,,,,,,,,,,
,,,,,,,,2023-08-16_08h30.32.124,HF_wild_card,2022.2.4,Win32,60.29908345,600b5191a434df19524dd1a0,64d2fd46c836a06233681665,64dc7b0473c0403a94b512b6,,,,,,,ctch,resources/DR.BMP,resources/DY.BMP,Door3,-0.200925912,-0.070370399,1,0,0,1.2065,optionLeft,70,14380,7,5,0,5,0,1,,,,,,,,,,,,,,,,,,,,,,,,,,,,,,,,,,,,,,,
,,,,,,,,2023-08-16_08h30.32.124,HF_wild_card,2022.2.4,Win32,60.29908345,600b5191a434df19524dd1a0,64d2fd46c836a06233681665,64dc7b0473c0403a94b512b6,,,,,,,decisionTrl,resources/DP.BMP,resources/DY.BMP,Door1,-0.237962935,-0.09629631,1,0,0,1.8893,optionLeft,30,14410,7,6,0,6,0,1,,,,,,,,,,,,,,,,,,,,,,,,,,,,,,,,,,,,,,,
,,,,,,,,2023-08-16_08h30.32.124,HF_wild_card,2022.2.4,Win32,60.29908345,600b5191a434df19524dd1a0,64d2fd46c836a06233681665,64dc7b0473c0403a94b512b6,,,,,,,decisionTrl,resources/DY.BMP,resources/DP.BMP,Door1,0.201851908,-0.062962977,1,0,0,1.1648,optionRight,30,14440,7,7,0,7,0,1,,,,,,,,,,,,,,,,,,,,,,,,,,,,,,,,,,,,,,,
,,,,,,,,2023-08-16_08h30.32.124,HF_wild_card,2022.2.4,Win32,60.29908345,600b5191a434df19524dd1a0,64d2fd46c836a06233681665,64dc7b0473c0403a94b512b6,,,,,,,decisionTrl,resources/DP.BMP,resources/DY.BMP,Door1,-0.137036981,-0.051851866,1,0,0,1.1394,optionLeft,30,14470,7,8,0,8,0,1,,,,,,,,,,,,,,,,,,,,,,,,,,,,,,,,,,,,,,,
,,,,,,,,2023-08-16_08h30.32.124,HF_wild_card,2022.2.4,Win32,60.29908345,600b5191a434df19524dd1a0,64d2fd46c836a06233681665,64dc7b0473c0403a94b512b6,,,,,,,decisionTrl,resources/DP.BMP,resources/DY.BMP,Door2,0.172222222,-0.067592621,1,0,0,0.8247,optionRight,40,14510,7,9,0,9,0,1,,,,,,,,,,,,,,,,,,,,,,,,,,,,,,,,,,,,,,,
,,,,,,,,2023-08-16_08h30.32.124,HF_wild_card,2022.2.4,Win32,60.29908345,600b5191a434df19524dd1a0,64d2fd46c836a06233681665,64dc7b0473c0403a94b512b6,,,,,,,ctch,resources/DP.BMP,resources/DBN.BMP,Door4,0.212037065,-0.050925954,1,0,0,1.0479,optionRight,80,14590,7,10,0,10,0,1,,,,,,,,,,,,,,,,,,,,,,,,,,,,,,,,,,,,,,,
,,,,,,,,2023-08-16_08h30.32.124,HF_wild_card,2022.2.4,Win32,60.29908345,600b5191a434df19524dd1a0,64d2fd46c836a06233681665,64dc7b0473c0403a94b512b6,,,,,,,ctch,resources/DP.BMP,resources/DBN.BMP,Door4,0.247222222,-0.069444444,1,0,0,0.682,optionRight,80,14670,7,11,0,11,0,1,,,,,,,,,,,,,,,,,,,,,,,,,,,,,,,,,,,,,,,
,,,,,,,,2023-08-16_08h30.32.124,HF_wild_card,2022.2.4,Win32,60.29908345,600b5191a434df19524dd1a0,64d2fd46c836a06233681665,64dc7b0473c0403a94b512b6,,,,,,,ctch,resources/DY.BMP,resources/DR.BMP,Door3,0.203703732,-0.024074088,1,0,0,0.9991,optionRight,70,14740,7,12,0,12,0,1,,,,,,,,,,,,,,,,,,,,,,,,,,,,,,,,,,,,,,,
,,,,,,,,2023-08-16_08h30.32.124,HF_wild_card,2022.2.4,Win32,60.29908345,600b5191a434df19524dd1a0,64d2fd46c836a06233681665,64dc7b0473c0403a94b512b6,,,,,,,decisionTrl,resources/DP.BMP,resources/DY.BMP,Door1,-0.22870369,-0.080555556,1,0,0,0.8653,optionLeft,30,14770,7,13,0,13,0,1,,,,,,,,,,,,,,,,,,,,,,,,,,,,,,,,,,,,,,,
,,,,,,,,2023-08-16_08h30.32.124,HF_wild_card,2022.2.4,Win32,60.29908345,600b5191a434df19524dd1a0,64d2fd46c836a06233681665,64dc7b0473c0403a94b512b6,,,,,,,decisionTrl,resources/DY.BMP,resources/DP.BMP,Door1,0.172222222,-0.045370399,1,0,0,0.9901,optionRight,30,14800,7,14,0,14,0,1,,,,,,,,,,,,,,,,,,,,,,,,,,,,,,,,,,,,,,,
,,,,,,,,2023-08-16_08h30.32.124,HF_wild_card,2022.2.4,Win32,60.29908345,600b5191a434df19524dd1a0,64d2fd46c836a06233681665,64dc7b0473c0403a94b512b6,,,,,,,ctch,resources/DY.BMP,resources/DR.BMP,Door3,0.185185242,-0.065740755,1,0,0,0.6475,optionRight,70,14870,7,15,0,15,0,1,,,,,,,,,,,,,,,,,,,,,,,,,,,,,,,,,,,,,,,
,,,,,,,,2023-08-16_08h30.32.124,HF_wild_card,2022.2.4,Win32,60.29908345,600b5191a434df19524dd1a0,64d2fd46c836a06233681665,64dc7b0473c0403a94b512b6,,,,,,,decisionTrl,resources/DY.BMP,resources/DP.BMP,Door1,0.229629686,-0.030555556,1,0,0,0.7986,optionRight,30,14900,7,16,0,16,0,1,,,,,,,,,,,,,,,,,,,,,,,,,,,,,,,,,,,,,,,
,,,,,,,,2023-08-16_08h30.32.124,HF_wild_card,2022.2.4,Win32,60.29908345,600b5191a434df19524dd1a0,64d2fd46c836a06233681665,64dc7b0473c0403a94b512b6,,,,,,,ctch,resources/DBN.BMP,resources/DP.BMP,Door4,-0.301851824,-0.055555556,1,0,0,1.2148,optionLeft,80,14980,7,17,0,17,0,1,,,,,,,,,,,,,,,,,,,,,,,,,,,,,,,,,,,,,,,
,,,,,,,,2023-08-16_08h30.32.124,HF_wild_card,2022.2.4,Win32,60.29908345,600b5191a434df19524dd1a0,64d2fd46c836a06233681665,64dc7b0473c0403a94b512b6,,,,,,,ctch,resources/DR.BMP,resources/DY.BMP,Door3,-0.263888889,-0.098148176,1,0,0,0.781,optionLeft,70,15050,7,18,0,18,0,1,,,,,,,,,,,,,,,,,,,,,,,,,,,,,,,,,,,,,,,
,,,,,,,,2023-08-16_08h30.32.124,HF_wild_card,2022.2.4,Win32,60.29908345,600b5191a434df19524dd1a0,64d2fd46c836a06233681665,64dc7b0473c0403a94b512b6,,,,,,,decisionTrl,resources/DR.BMP,resources/DBN.BMP,Door4,0.140740797,-0.049074088,1,0,0,0.731,optionRight,80,15130,7,19,0,19,0,1,,,,,,,,,,,,,,,,,,,,,,,,,,,,,,,,,,,,,,,
,,,,,,,,2023-08-16_08h30.32.124,HF_wild_card,2022.2.4,Win32,60.29908345,600b5191a434df19524dd1a0,64d2fd46c836a06233681665,64dc7b0473c0403a94b512b6,,,,,,,decisionTrl,resources/DBN.BMP,resources/DR.BMP,Door3,0.205555556,-0.088888889,1,0,0,0.6299,optionRight,70,15200,7,20,0,20,0,1,,,,,,,,,,,,,,,,,,,,,,,,,,,,,,,,,,,,,,,
,,,,,,,,2023-08-16_08h30.32.124,HF_wild_card,2022.2.4,Win32,60.29908345,600b5191a434df19524dd1a0,64d2fd46c836a06233681665,64dc7b0473c0403a94b512b6,,,,,,,decisionTrl,resources/DR.BMP,resources/DBN.BMP,Door3,-0.159259203,-0.094444444,1,0,0,0.6308,optionLeft,70,15270,7,21,0,21,0,1,,,,,,,,,,,,,,,,,,,,,,,,,,,,,,,,,,,,,,,
,,,,,,,,2023-08-16_08h30.32.124,HF_wild_card,2022.2.4,Win32,60.29908345,600b5191a434df19524dd1a0,64d2fd46c836a06233681665,64dc7b0473c0403a94b512b6,,,,,,,decisionTrl,resources/DP.BMP,resources/DY.BMP,Door1,-0.17870369,-0.058333333,1,0,0,1.0481,optionLeft,30,15300,7,22,0,22,0,1,,,,,,,,,,,,,,,,,,,,,,,,,,,,,,,,,,,,,,,
,,,,,,,,2023-08-16_08h30.32.124,HF_wild_card,2022.2.4,Win32,60.29908345,600b5191a434df19524dd1a0,64d2fd46c836a06233681665,64dc7b0473c0403a94b512b6,,,,,,,decisionTrl,resources/DBN.BMP,resources/DR.BMP,Door3,0.175,-0.045370399,1,0,0,0.8161,optionRight,70,15370,7,23,0,23,0,1,,,,,,,,,,,,,,,,,,,,,,,,,,,,,,,,,,,,,,,
,,,,,,,,2023-08-16_08h30.32.124,HF_wild_card,2022.2.4,Win32,60.29908345,600b5191a434df19524dd1a0,64d2fd46c836a06233681665,64dc7b0473c0403a94b512b6,,,,,,,ctch,resources/DY.BMP,resources/DR.BMP,Door3,0.187037065,-0.023148176,1,0,0,0.8483,optionRight,70,15440,7,24,0,24,0,1,,,,,,,,,,,,,,,,,,,,,,,,,,,,,,,,,,,,,,,
,,,,,,,,2023-08-16_08h30.32.124,HF_wild_card,2022.2.4,Win32,60.29908345,600b5191a434df19524dd1a0,64d2fd46c836a06233681665,64dc7b0473c0403a94b512b6,,,,,,,decisionTrl,resources/DR.BMP,resources/DBN.BMP,Door3,-0.187037023,-0.053703732,1,0,0,0.915,optionLeft,70,15510,7,25,0,25,0,1,,,,,,,,,,,,,,,,,,,,,,,,,,,,,,,,,,,,,,,
,,,,,,,,2023-08-16_08h30.32.124,HF_wild_card,2022.2.4,Win32,60.29908345,600b5191a434df19524dd1a0,64d2fd46c836a06233681665,64dc7b0473c0403a94b512b6,,,,,,,ctch,resources/DR.BMP,resources/DY.BMP,Door3,-0.145370314,-0.062037065,1,0,0,0.6482,optionLeft,70,15580,7,26,0,26,0,1,,,,,,,,,,,,,,,,,,,,,,,,,,,,,,,,,,,,,,,
,,,,,,,,2023-08-16_08h30.32.124,HF_wild_card,2022.2.4,Win32,60.29908345,600b5191a434df19524dd1a0,64d2fd46c836a06233681665,64dc7b0473c0403a94b512b6,,,,,,,decisionTrl,resources/DBN.BMP,resources/DR.BMP,Door3,0.158333333,-0.014814843,1,0,0,0.7432,optionRight,70,15650,7,27,0,27,0,1,,,,,,,,,,,,,,,,,,,,,,,,,,,,,,,,,,,,,,,
,,,,,,,,2023-08-16_08h30.32.124,HF_wild_card,2022.2.4,Win32,60.29908345,600b5191a434df19524dd1a0,64d2fd46c836a06233681665,64dc7b0473c0403a94b512b6,,,,,,,decisionTrl,resources/DY.BMP,resources/DP.BMP,Door1,0.112037065,-0.067592621,1,0,0,1.0319,optionRight,30,15680,7,28,0,28,0,1,,,,,,,,,,,,,,,,,,,,,,,,,,,,,,,,,,,,,,,
,,,,,,,,2023-08-16_08h30.32.124,HF_wild_card,2022.2.4,Win32,60.29908345,600b5191a434df19524dd1a0,64d2fd46c836a06233681665,64dc7b0473c0403a94b512b6,,,,,,,ctch,resources/DP.BMP,resources/DBN.BMP,Door4,0.196296353,-0.041666667,1,0,0,0.7061,optionRight,80,15760,7,29,0,29,0,1,,,,,,,,,,,,,,,,,,,,,,,,,,,,,,,,,,,,,,,
,,,,,,,,2023-08-16_08h30.32.124,HF_wild_card,2022.2.4,Win32,60.29908345,600b5191a434df19524dd1a0,64d2fd46c836a06233681665,64dc7b0473c0403a94b512b6,,,,,,,decisionTrl,resources/DBN.BMP,resources/DR.BMP,Door4,-0.260185157,-0.030555556,1,0,0,0.6724,optionLeft,60,15820,7,30,0,30,0,1,,,,,,,,,,,,,,,,,,,,,,,,,,,,,,,,,,,,,,,
,,,,,,,,2023-08-16_08h30.32.124,HF_wild_card,2022.2.4,Win32,60.29908345,600b5191a434df19524dd1a0,64d2fd46c836a06233681665,64dc7b0473c0403a94b512b6,,,,,,,decisionTrl,resources/DY.BMP,resources/DP.BMP,Door1,0.220370399,-0.042592621,1,0,0,0.8884,optionRight,30,15850,7,31,0,31,0,1,,,,,,,,,,,,,,,,,,,,,,,,,,,,,,,,,,,,,,,
,,,,,,,,2023-08-16_08h30.32.124,HF_wild_card,2022.2.4,Win32,60.29908345,600b5191a434df19524dd1a0,64d2fd46c836a06233681665,64dc7b0473c0403a94b512b6,,,,,,,decisionTrl,resources/DBN.BMP,resources/DR.BMP,Door3,0.182407464,-0.085185199,1,0,0,1.7318,optionRight,70,15920,7,32,0,32,0,1,,,,,,,,,,,,,,,,,,,,,,,,,,,,,,,,,,,,,,,
,,,,,,,,2023-08-16_08h30.32.124,HF_wild_card,2022.2.4,Win32,60.29908345,600b5191a434df19524dd1a0,64d2fd46c836a06233681665,64dc7b0473c0403a94b512b6,,,,,,,decisionTrl,resources/DY.BMP,resources/DP.BMP,Door1,0.163888889,-0.093518533,1,0,0,1.0811,optionRight,30,15950,7,33,0,33,0,1,,,,,,,,,,,,,,,,,,,,,,,,,,,,,,,,,,,,,,,
,,,,,,,,2023-08-16_08h30.32.124,HF_wild_card,2022.2.4,Win32,60.29908345,600b5191a434df19524dd1a0,64d2fd46c836a06233681665,64dc7b0473c0403a94b512b6,,,,,,,decisionTrl,resources/DR.BMP,resources/DBN.BMP,Door3,-0.329629601,0.038888889,1,0,0,1.0722,optionLeft,70,16020,7,34,0,34,0,1,,,,,,,,,,,,,,,,,,,,,,,,,,,,,,,,,,,,,,,
,,,,,,,,2023-08-16_08h30.32.124,HF_wild_card,2022.2.4,Win32,60.29908345,600b5191a434df19524dd1a0,64d2fd46c836a06233681665,64dc7b0473c0403a94b512b6,,,,,,,ctch,resources/DBN.BMP,resources/DP.BMP,Door4,-0.309259245,-0.054629644,1,0,0,1.1909,optionLeft,80,16100,7,35,0,35,0,1,,,,,,,,,,,,,,,,,,,,,,,,,,,,,,,,,,,,,,,
,,,,,,,,2023-08-16_08h30.32.124,HF_wild_card,2022.2.4,Win32,60.29908345,600b5191a434df19524dd1a0,64d2fd46c836a06233681665,64dc7b0473c0403a94b512b6,,,,,,,,,,,,,,,,,,,,,,,,,,6,0,6,0,1,,,,,,,,,,,,,,,,,,,,,,,,,,,,,,,,,,
,,,,,,,,2023-08-16_08h30.32.124,HF_wild_card,2022.2.4,Win32,60.29908345,600b5191a434df19524dd1a0,64d2fd46c836a06233681665,64dc7b0473c0403a94b512b6,,,,,,,,,,,,,,,,,,,,,,,,,,,,,,,4,,,,,,,,,,,,,,,,,,,,,,,,,,,,,,,,,
,,,,,,,,2023-08-16_08h30.32.124,HF_wild_card,2022.2.4,Win32,60.29908345,600b5191a434df19524dd1a0,64d2fd46c836a06233681665,64dc7b0473c0403a94b512b6,,,,,,,,,,,,,,,,,,,,,,,,,,,,,,,,,,,,,,,,,,,,,,,,,,,,,,,,,,,,,,,,
,,,,,,,,2023-08-16_08h30.32.124,HF_wild_card,2022.2.4,Win32,60.29908345,600b5191a434df19524dd1a0,64d2fd46c836a06233681665,64dc7b0473c0403a94b512b6,,,,,,,,,,,,,,,,,,,,,,,,,,,,,,,,80,Door4,resources/DBN.BMP,0,0,0,0,1,,,,,,,,,,,,,,,,,,,,,,,,,
,,,,,,,,2023-08-16_08h30.32.124,HF_wild_card,2022.2.4,Win32,60.29908345,600b5191a434df19524dd1a0,64d2fd46c836a06233681665,64dc7b0473c0403a94b512b6,,,,,,,,,,,,,,,,,,,,,,,,,,,,,,,,5,WC_extreme,resources/DG.BMP,1,0,1,0,1,,,,,,,,,,,,,,,,,,,,,,,,,
,,,,,,,,2023-08-16_08h30.32.124,HF_wild_card,2022.2.4,Win32,60.29908345,600b5191a434df19524dd1a0,64d2fd46c836a06233681665,64dc7b0473c0403a94b512b6,,,,,,,,,,,,,,,,,,,,,,,,,,,,,,,,70,Door3,resources/DR.BMP,2,0,2,0,1,,,,,,,,,,,,,,,,,,,,,,,,,
,,,,,,,,2023-08-16_08h30.32.124,HF_wild_card,2022.2.4,Win32,60.29908345,600b5191a434df19524dd1a0,64d2fd46c836a06233681665,64dc7b0473c0403a94b512b6,,,,,,,,,,,,,,,,,,,,,,,,,,,,,,,,30,Door1,resources/DP.BMP,3,0,3,0,1,,,,,,,,,,,,,,,,,,,,,,,,,
,,,,,,,,2023-08-16_08h30.32.124,HF_wild_card,2022.2.4,Win32,60.29908345,600b5191a434df19524dd1a0,64d2fd46c836a06233681665,64dc7b0473c0403a94b512b6,,,,,,,,,,,,,,,,,,,,,,,,,,,,,,,,20,Door2,resources/DY.BMP,4,0,4,0,1,,,,,,,,,,,,,,,,,,,,,,,,,
,,,,,,,,2023-08-16_08h30.32.124,HF_wild_card,2022.2.4,Win32,60.29908345,600b5191a434df19524dd1a0,64d2fd46c836a06233681665,64dc7b0473c0403a94b512b6,,,,,,,,,,,,,,,,,,,,,,,,,,,,,,,,45,WC_nonExtreme,resources/DB.BMP,5,0,5,0,1,,,,,,,,,,,,,,,,,,,,,,,,,
