Condition,Low fixed image (Door1),Low risky image (Door2),High fixed image (Door3),High risky image (Door4),Extreme Wild Card,NonExtreme Wild Card,,date,expName,psychopyVersion,OS,frameRate,PROLIFIC_PID,STUDY_ID,SESSION_ID,mouse_2.x,mouse_2.y,mouse_2.leftButton,mouse_2.midButton,mouse_2.rightButton,mouse_2.clicked_name,Trial Type,Left Option Image,Right Option Image,Chosen Door,mouse.x,mouse.y,mouse.leftButton,mouse.midButton,mouse.rightButton,mouse.time,mouse.clicked_name,Feedback,Cumulative Reward,Block,trial.thisRepN,trial.thisTrialN,trial.thisN,trial.thisIndex,trial.ran,blocks.thisRepN,blocks.thisTrialN,blocks.thisN,blocks.thisIndex,blocks.ran,Money conversion,First Outcome Reported,Shown Door (First Outcome),Displayed Image (First Outcome),outcomes.thisRepN,outcomes.thisTrialN,outcomes.thisN,outcomes.thisIndex,outcomes.ran,judgments.thisRepN,judgments.thisTrialN,judgments.thisN,judgments.thisIndex,judgments.ran,freqMouse.x,freqMouse.y,freqMouse.leftButton,freqMouse.midButton,freqMouse.rightButton,freqMouse.clicked_name,FQJ for first outcome,FQJ for second outcome,Shown Door,Displayed Image,trials.thisRepN,trials.thisTrialN,trials.thisN,trials.thisIndex,trials.ran,judgBlock.thisRepN,judgBlock.thisTrialN,judgBlock.thisN,judgBlock.thisIndex,judgBlock.ran
0,resources/DP.BMP,resources/DG.BMP,resources/DY.BMP,resources/DR.BMP,resources/DBN.BMP,resources/DB.BMP,,2023-08-16_08h41.13.920,HF_wild_card,2022.2.4,Win32,59.99880002,5ca356cb72a23200160ce912,64d2fd46c836a06233681665,64dc7cb004826b18df2da83c,,,,,,,,,,,,,,,,,,,,,,,,,,,,,,,,,,,,,,,,,,,,,,,,,,,,,,,,,,,,,,,,
,,,,,,,,2023-08-16_08h41.13.920,HF_wild_card,2022.2.4,Win32,59.99880002,5ca356cb72a23200160ce912,64d2fd46c836a06233681665,64dc7cb004826b18df2da83c,0.002777806,-0.429629644,1,0,0,agree,,,,,,,,,,,,,,,,,,,,,,,,,,,,,,,,,,,,,,,,,,,,,,,,,,,,,,,,,,
,,,,,,,,2023-08-16_08h41.13.920,HF_wild_card,2022.2.4,Win32,59.99880002,5ca356cb72a23200160ce912,64d2fd46c836a06233681665,64dc7cb004826b18df2da83c,,,,,,,,,,,,,,,,,,,,,,,,,,,,,,,,,,,,,,,,,,,,,,,,,,,,,,,,,,,,,,,,
,,,,,,,,2023-08-16_08h41.13.920,HF_wild_card,2022.2.4,Win32,59.99880002,5ca356cb72a23200160ce912,64d2fd46c836a06233681665,64dc7cb004826b18df2da83c,,,,,,,sngl,resources/Empty.png,resources/DP.BMP,Door1,0.383333418,-0.087037051,1,0,0,3.4209,optionRight,30,30,1,0,0,0,0,1,,,,,,,,,,,,,,,,,,,,,,,,,,,,,,,,,,,,,,,
,,,,,,,,2023-08-16_08h41.13.920,HF_wild_card,2022.2.4,Win32,59.99880002,5ca356cb72a23200160ce912,64d2fd46c836a06233681665,64dc7cb004826b18df2da83c,,,,,,,decisionTrl,resources/DR.BMP,resources/DBN.BMP,WildCard_Ex,0.337962963,0.017592571,1,0,0,2.6114,optionRight,5,35,1,1,0,1,0,1,,,,,,,,,,,,,,,,,,,,,,,,,,,,,,,,,,,,,,,
,,,,,,,,2023-08-16_08h41.13.920,HF_wild_card,2022.2.4,Win32,59.99880002,5ca356cb72a23200160ce912,64d2fd46c836a06233681665,64dc7cb004826b18df2da83c,,,,,,,decisionTrl,resources/DBN.BMP,resources/DG.BMP,WildCard_Ex,-0.248148106,-0.00462963,1,0,0,1.795,optionLeft,95,130,1,2,0,2,0,1,,,,,,,,,,,,,,,,,,,,,,,,,,,,,,,,,,,,,,,
,,,,,,,,2023-08-16_08h41.13.920,HF_wild_card,2022.2.4,Win32,59.99880002,5ca356cb72a23200160ce912,64d2fd46c836a06233681665,64dc7cb004826b18df2da83c,,,,,,,decisionTrl,resources/DG.BMP,resources/DBN.BMP,WildCard_Ex,0.288888931,-0.032407407,1,0,0,1.2466,optionRight,5,135,1,3,0,3,0,1,,,,,,,,,,,,,,,,,,,,,,,,,,,,,,,,,,,,,,,
,,,,,,,,2023-08-16_08h41.13.920,HF_wild_card,2022.2.4,Win32,59.99880002,5ca356cb72a23200160ce912,64d2fd46c836a06233681665,64dc7cb004826b18df2da83c,,,,,,,sngl,resources/Empty.png,resources/DBN.BMP,WildCard_Ex,0.289814843,-0.053703697,1,0,0,0.8798,optionRight,5,140,1,4,0,4,0,1,,,,,,,,,,,,,,,,,,,,,,,,,,,,,,,,,,,,,,,
,,,,,,,,2023-08-16_08h41.13.920,HF_wild_card,2022.2.4,Win32,59.99880002,5ca356cb72a23200160ce912,64d2fd46c836a06233681665,64dc7cb004826b18df2da83c,,,,,,,decisionTrl,resources/DG.BMP,resources/DP.BMP,Door1,0.32222225,-0.057407414,1,0,0,1.0963,optionRight,30,170,1,5,0,5,0,1,,,,,,,,,,,,,,,,,,,,,,,,,,,,,,,,,,,,,,,
,,,,,,,,2023-08-16_08h41.13.920,HF_wild_card,2022.2.4,Win32,59.99880002,5ca356cb72a23200160ce912,64d2fd46c836a06233681665,64dc7cb004826b18df2da83c,,,,,,,decisionTrl,resources/DG.BMP,resources/DP.BMP,Door1,0.346296381,-0.068518533,1,0,0,0.8461,optionRight,30,200,1,6,0,6,0,1,,,,,,,,,,,,,,,,,,,,,,,,,,,,,,,,,,,,,,,
,,,,,,,,2023-08-16_08h41.13.920,HF_wild_card,2022.2.4,Win32,59.99880002,5ca356cb72a23200160ce912,64d2fd46c836a06233681665,64dc7cb004826b18df2da83c,,,,,,,decisionTrl,resources/DG.BMP,resources/DP.BMP,Door1,0.273148148,-0.075925933,1,0,0,0.8459,optionRight,30,230,1,7,0,7,0,1,,,,,,,,,,,,,,,,,,,,,,,,,,,,,,,,,,,,,,,
,,,,,,,,2023-08-16_08h41.13.920,HF_wild_card,2022.2.4,Win32,59.99880002,5ca356cb72a23200160ce912,64d2fd46c836a06233681665,64dc7cb004826b18df2da83c,,,,,,,sngl,resources/Empty.png,resources/DR.BMP,Door4,0.300925926,-0.075000021,1,0,0,0.7299,optionRight,60,290,1,8,0,8,0,1,,,,,,,,,,,,,,,,,,,,,,,,,,,,,,,,,,,,,,,
,,,,,,,,2023-08-16_08h41.13.920,HF_wild_card,2022.2.4,Win32,59.99880002,5ca356cb72a23200160ce912,64d2fd46c836a06233681665,64dc7cb004826b18df2da83c,,,,,,,decisionTrl,resources/DR.BMP,resources/DY.BMP,Door4,-0.383333312,-0.062037044,1,0,0,0.6106,optionLeft,60,350,1,9,0,9,0,1,,,,,,,,,,,,,,,,,,,,,,,,,,,,,,,,,,,,,,,
,,,,,,,,2023-08-16_08h41.13.920,HF_wild_card,2022.2.4,Win32,59.99880002,5ca356cb72a23200160ce912,64d2fd46c836a06233681665,64dc7cb004826b18df2da83c,,,,,,,ctch,resources/DR.BMP,resources/DP.BMP,Door4,-0.237962935,-0.047222243,1,0,0,0.5776,optionLeft,60,410,1,10,0,10,0,1,,,,,,,,,,,,,,,,,,,,,,,,,,,,,,,,,,,,,,,
,,,,,,,,2023-08-16_08h41.13.920,HF_wild_card,2022.2.4,Win32,59.99880002,5ca356cb72a23200160ce912,64d2fd46c836a06233681665,64dc7cb004826b18df2da83c,,,,,,,decisionTrl,resources/DBN.BMP,resources/DY.BMP,Door3,0.242592635,-0.017592607,1,0,0,2.0434,optionRight,70,480,1,11,0,11,0,1,,,,,,,,,,,,,,,,,,,,,,,,,,,,,,,,,,,,,,,
,,,,,,,,2023-08-16_08h41.13.920,HF_wild_card,2022.2.4,Win32,59.99880002,5ca356cb72a23200160ce912,64d2fd46c836a06233681665,64dc7cb004826b18df2da83c,,,,,,,decisionTrl,resources/DBN.BMP,resources/DR.BMP,Door4,0.211111139,-0.032407407,1,0,0,1.111,optionRight,80,560,1,12,0,12,0,1,,,,,,,,,,,,,,,,,,,,,,,,,,,,,,,,,,,,,,,
,,,,,,,,2023-08-16_08h41.13.920,HF_wild_card,2022.2.4,Win32,59.99880002,5ca356cb72a23200160ce912,64d2fd46c836a06233681665,64dc7cb004826b18df2da83c,,,,,,,ctch,resources/DY.BMP,resources/DG.BMP,Door3,-0.224074046,-0.012962977,1,0,0,0.7797,optionLeft,70,630,1,13,0,13,0,1,,,,,,,,,,,,,,,,,,,,,,,,,,,,,,,,,,,,,,,
,,,,,,,,2023-08-16_08h41.13.920,HF_wild_card,2022.2.4,Win32,59.99880002,5ca356cb72a23200160ce912,64d2fd46c836a06233681665,64dc7cb004826b18df2da83c,,,,,,,sngl,resources/DG.BMP,resources/Empty.png,Door2,0.425000085,-0.037962984,1,0,0,1.4607,optionLeft,40,670,1,14,0,14,0,1,,,,,,,,,,,,,,,,,,,,,,,,,,,,,,,,,,,,,,,
,,,,,,,,2023-08-16_08h41.13.920,HF_wild_card,2022.2.4,Win32,59.99880002,5ca356cb72a23200160ce912,64d2fd46c836a06233681665,64dc7cb004826b18df2da83c,,,,,,,decisionTrl,resources/DR.BMP,resources/DY.BMP,Door3,0.421296296,-0.024074095,1,0,0,0.7132,optionRight,70,740,1,15,0,15,0,1,,,,,,,,,,,,,,,,,,,,,,,,,,,,,,,,,,,,,,,
,,,,,,,,2023-08-16_08h41.13.920,HF_wild_card,2022.2.4,Win32,59.99880002,5ca356cb72a23200160ce912,64d2fd46c836a06233681665,64dc7cb004826b18df2da83c,,,,,,,ctch,resources/DR.BMP,resources/DP.BMP,Door4,-0.261111083,-0.032407407,1,0,0,0.8609,optionLeft,80,820,1,16,0,16,0,1,,,,,,,,,,,,,,,,,,,,,,,,,,,,,,,,,,,,,,,
,,,,,,,,2023-08-16_08h41.13.920,HF_wild_card,2022.2.4,Win32,59.99880002,5ca356cb72a23200160ce912,64d2fd46c836a06233681665,64dc7cb004826b18df2da83c,,,,,,,sngl,resources/Empty.png,resources/DBN.BMP,WildCard_Ex,0.216666681,-0.006481489,1,0,0,0.9942,optionRight,95,915,1,17,0,17,0,1,,,,,,,,,,,,,,,,,,,,,,,,,,,,,,,,,,,,,,,
,,,,,,,,2023-08-16_08h41.13.920,HF_wild_card,2022.2.4,Win32,59.99880002,5ca356cb72a23200160ce912,64d2fd46c836a06233681665,64dc7cb004826b18df2da83c,,,,,,,decisionTrl,resources/DY.BMP,resources/DR.BMP,Door4,0.198148162,-0.060185185,1,0,0,0.8283,optionRight,80,995,1,18,0,18,0,1,,,,,,,,,,,,,,,,,,,,,,,,,,,,,,,,,,,,,,,
,,,,,,,,2023-08-16_08h41.13.920,HF_wild_card,2022.2.4,Win32,59.99880002,5ca356cb72a23200160ce912,64d2fd46c836a06233681665,64dc7cb004826b18df2da83c,,,,,,,decisionTrl,resources/DY.BMP,resources/DR.BMP,Door4,0.198148162,-0.019444466,1,0,0,1.011,optionRight,60,1055,1,19,0,19,0,1,,,,,,,,,,,,,,,,,,,,,,,,,,,,,,,,,,,,,,,
,,,,,,,,2023-08-16_08h41.13.920,HF_wild_card,2022.2.4,Win32,59.99880002,5ca356cb72a23200160ce912,64d2fd46c836a06233681665,64dc7cb004826b18df2da83c,,,,,,,decisionTrl,resources/DP.BMP,resources/DG.BMP,Door2,0.152777778,-0.018518519,1,0,0,1.211,optionRight,40,1095,1,20,0,20,0,1,,,,,,,,,,,,,,,,,,,,,,,,,,,,,,,,,,,,,,,
,,,,,,,,2023-08-16_08h41.13.920,HF_wild_card,2022.2.4,Win32,59.99880002,5ca356cb72a23200160ce912,64d2fd46c836a06233681665,64dc7cb004826b18df2da83c,,,,,,,sngl,resources/DR.BMP,resources/Empty.png,Door4,-0.308333326,-0.034259266,1,0,0,0.7611,optionLeft,80,1175,1,21,0,21,0,1,,,,,,,,,,,,,,,,,,,,,,,,,,,,,,,,,,,,,,,
,,,,,,,,2023-08-16_08h41.13.920,HF_wild_card,2022.2.4,Win32,59.99880002,5ca356cb72a23200160ce912,64d2fd46c836a06233681665,64dc7cb004826b18df2da83c,,,,,,,sngl,resources/DY.BMP,resources/Empty.png,Door3,-0.22592594,-0.023148148,1,0,0,0.7071,optionLeft,70,1245,1,22,0,22,0,1,,,,,,,,,,,,,,,,,,,,,,,,,,,,,,,,,,,,,,,
,,,,,,,,2023-08-16_08h41.13.920,HF_wild_card,2022.2.4,Win32,59.99880002,5ca356cb72a23200160ce912,64d2fd46c836a06233681665,64dc7cb004826b18df2da83c,,,,,,,ctch,resources/DY.BMP,resources/DG.BMP,Door3,-0.187962921,-0.097222222,1,0,0,1.9266,optionLeft,70,1315,1,23,0,23,0,1,,,,,,,,,,,,,,,,,,,,,,,,,,,,,,,,,,,,,,,
,,,,,,,,2023-08-16_08h41.13.920,HF_wild_card,2022.2.4,Win32,59.99880002,5ca356cb72a23200160ce912,64d2fd46c836a06233681665,64dc7cb004826b18df2da83c,,,,,,,decisionTrl,resources/DP.BMP,resources/DG.BMP,Door2,0.20185188,-0.025000007,1,0,0,0.9442,optionRight,40,1355,1,24,0,24,0,1,,,,,,,,,,,,,,,,,,,,,,,,,,,,,,,,,,,,,,,
,,,,,,,,2023-08-16_08h41.13.920,HF_wild_card,2022.2.4,Win32,59.99880002,5ca356cb72a23200160ce912,64d2fd46c836a06233681665,64dc7cb004826b18df2da83c,,,,,,,sngl,resources/DBN.BMP,resources/Empty.png,WildCard_Ex,-0.188888903,-0.060185185,1,0,0,0.7426,optionLeft,5,1360,1,25,0,25,0,1,,,,,,,,,,,,,,,,,,,,,,,,,,,,,,,,,,,,,,,
,,,,,,,,2023-08-16_08h41.13.920,HF_wild_card,2022.2.4,Win32,59.99880002,5ca356cb72a23200160ce912,64d2fd46c836a06233681665,64dc7cb004826b18df2da83c,,,,,,,decisionTrl,resources/DR.BMP,resources/DY.BMP,Door4,-0.287962949,-0.104629658,1,0,0,1.7269,optionLeft,80,1440,1,26,0,26,0,1,,,,,,,,,,,,,,,,,,,,,,,,,,,,,,,,,,,,,,,
,,,,,,,,2023-08-16_08h41.13.920,HF_wild_card,2022.2.4,Win32,59.99880002,5ca356cb72a23200160ce912,64d2fd46c836a06233681665,64dc7cb004826b18df2da83c,,,,,,,sngl,resources/Empty.png,resources/DY.BMP,Door3,0.352777834,-0.053703697,1,0,0,0.6447,optionRight,70,1510,1,27,0,27,0,1,,,,,,,,,,,,,,,,,,,,,,,,,,,,,,,,,,,,,,,
,,,,,,,,2023-08-16_08h41.13.920,HF_wild_card,2022.2.4,Win32,59.99880002,5ca356cb72a23200160ce912,64d2fd46c836a06233681665,64dc7cb004826b18df2da83c,,,,,,,decisionTrl,resources/DR.BMP,resources/DY.BMP,Door4,-0.184259273,-0.013888889,1,0,0,0.5606,optionLeft,60,1570,1,28,0,28,0,1,,,,,,,,,,,,,,,,,,,,,,,,,,,,,,,,,,,,,,,
,,,,,,,,2023-08-16_08h41.13.920,HF_wild_card,2022.2.4,Win32,59.99880002,5ca356cb72a23200160ce912,64d2fd46c836a06233681665,64dc7cb004826b18df2da83c,,,,,,,decisionTrl,resources/DBN.BMP,resources/DP.BMP,Door1,0.305555556,-0.052777785,1,0,0,0.8944,optionRight,30,1600,1,29,0,29,0,1,,,,,,,,,,,,,,,,,,,,,,,,,,,,,,,,,,,,,,,
,,,,,,,,2023-08-16_08h41.13.920,HF_wild_card,2022.2.4,Win32,59.99880002,5ca356cb72a23200160ce912,64d2fd46c836a06233681665,64dc7cb004826b18df2da83c,,,,,,,decisionTrl,resources/DP.BMP,resources/DBN.BMP,Door1,-0.200925898,-0.031481496,1,0,0,0.693,optionLeft,30,1630,1,30,0,30,0,1,,,,,,,,,,,,,,,,,,,,,,,,,,,,,,,,,,,,,,,
,,,,,,,,2023-08-16_08h41.13.920,HF_wild_card,2022.2.4,Win32,59.99880002,5ca356cb72a23200160ce912,64d2fd46c836a06233681665,64dc7cb004826b18df2da83c,,,,,,,decisionTrl,resources/DY.BMP,resources/DR.BMP,Door4,0.214814857,-0.065740762,1,0,0,0.9103,optionRight,60,1690,1,31,0,31,0,1,,,,,,,,,,,,,,,,,,,,,,,,,,,,,,,,,,,,,,,
,,,,,,,,2023-08-16_08h41.13.920,HF_wild_card,2022.2.4,Win32,59.99880002,5ca356cb72a23200160ce912,64d2fd46c836a06233681665,64dc7cb004826b18df2da83c,,,,,,,sngl,resources/DBN.BMP,resources/Empty.png,WildCard_Ex,-0.171296296,-0.022222236,1,0,0,0.6107,optionLeft,95,1785,1,32,0,32,0,1,,,,,,,,,,,,,,,,,,,,,,,,,,,,,,,,,,,,,,,
,,,,,,,,2023-08-16_08h41.13.920,HF_wild_card,2022.2.4,Win32,59.99880002,5ca356cb72a23200160ce912,64d2fd46c836a06233681665,64dc7cb004826b18df2da83c,,,,,,,ctch,resources/DP.BMP,resources/DR.BMP,Door4,0.225000028,-0.042592614,1,0,0,4.0905,optionRight,80,1865,1,33,0,33,0,1,,,,,,,,,,,,,,,,,,,,,,,,,,,,,,,,,,,,,,,
,,,,,,,,2023-08-16_08h41.13.920,HF_wild_card,2022.2.4,Win32,59.99880002,5ca356cb72a23200160ce912,64d2fd46c836a06233681665,64dc7cb004826b18df2da83c,,,,,,,decisionTrl,resources/DY.BMP,resources/DR.BMP,Door4,0.157407407,-0.068518533,1,0,0,0.8274,optionRight,80,1945,1,34,0,34,0,1,,,,,,,,,,,,,,,,,,,,,,,,,,,,,,,,,,,,,,,
,,,,,,,,2023-08-16_08h41.13.920,HF_wild_card,2022.2.4,Win32,59.99880002,5ca356cb72a23200160ce912,64d2fd46c836a06233681665,64dc7cb004826b18df2da83c,,,,,,,sngl,resources/DP.BMP,resources/Empty.png,Door1,-0.169444402,-0.071296303,1,0,0,0.9421,optionLeft,30,1975,1,35,0,35,0,1,,,,,,,,,,,,,,,,,,,,,,,,,,,,,,,,,,,,,,,
,,,,,,,,2023-08-16_08h41.13.920,HF_wild_card,2022.2.4,Win32,59.99880002,5ca356cb72a23200160ce912,64d2fd46c836a06233681665,64dc7cb004826b18df2da83c,,,,,,,decisionTrl,resources/DY.BMP,resources/DBN.BMP,Door3,-0.240740741,-0.071296303,1,0,0,0.9942,optionLeft,70,2045,1,36,0,36,0,1,,,,,,,,,,,,,,,,,,,,,,,,,,,,,,,,,,,,,,,
,,,,,,,,2023-08-16_08h41.13.920,HF_wild_card,2022.2.4,Win32,59.99880002,5ca356cb72a23200160ce912,64d2fd46c836a06233681665,64dc7cb004826b18df2da83c,,,,,,,ctch,resources/DP.BMP,resources/DR.BMP,Door4,0.228703746,-0.019444466,1,0,0,0.6226,optionRight,60,2105,1,37,0,37,0,1,,,,,,,,,,,,,,,,,,,,,,,,,,,,,,,,,,,,,,,
,,,,,,,,2023-08-16_08h41.13.920,HF_wild_card,2022.2.4,Win32,59.99880002,5ca356cb72a23200160ce912,64d2fd46c836a06233681665,64dc7cb004826b18df2da83c,,,,,,,decisionTrl,resources/DP.BMP,resources/DG.BMP,Door1,-0.207407422,-0.026851866,1,0,0,0.5498,optionLeft,30,2135,1,38,0,38,0,1,,,,,,,,,,,,,,,,,,,,,,,,,,,,,,,,,,,,,,,
,,,,,,,,2023-08-16_08h41.13.920,HF_wild_card,2022.2.4,Win32,59.99880002,5ca356cb72a23200160ce912,64d2fd46c836a06233681665,64dc7cb004826b18df2da83c,,,,,,,ctch,resources/DG.BMP,resources/DY.BMP,Door3,0.261111153,-0.043518526,1,0,0,0.7335,optionRight,70,2205,1,39,0,39,0,1,,,,,,,,,,,,,,,,,,,,,,,,,,,,,,,,,,,,,,,
,,,,,,,,2023-08-16_08h41.13.920,HF_wild_card,2022.2.4,Win32,59.99880002,5ca356cb72a23200160ce912,64d2fd46c836a06233681665,64dc7cb004826b18df2da83c,,,,,,,decisionTrl,resources/DG.BMP,resources/DP.BMP,Door2,-0.252777735,-0.045370384,1,0,0,3.1472,optionLeft,20,2225,1,40,0,40,0,1,,,,,,,,,,,,,,,,,,,,,,,,,,,,,,,,,,,,,,,
,,,,,,,,2023-08-16_08h41.13.920,HF_wild_card,2022.2.4,Win32,59.99880002,5ca356cb72a23200160ce912,64d2fd46c836a06233681665,64dc7cb004826b18df2da83c,,,,,,,ctch,resources/DG.BMP,resources/DY.BMP,Door3,0.312962991,-0.064814815,1,0,0,0.7084,optionRight,70,2295,1,41,0,41,0,1,,,,,,,,,,,,,,,,,,,,,,,,,,,,,,,,,,,,,,,
,,,,,,,,2023-08-16_08h41.13.920,HF_wild_card,2022.2.4,Win32,59.99880002,5ca356cb72a23200160ce912,64d2fd46c836a06233681665,64dc7cb004826b18df2da83c,,,,,,,decisionTrl,resources/DP.BMP,resources/DG.BMP,Door2,0.18240745,-0.064814815,1,0,0,1.7289,optionRight,20,2315,1,42,0,42,0,1,,,,,,,,,,,,,,,,,,,,,,,,,,,,,,,,,,,,,,,
,,,,,,,,2023-08-16_08h41.13.920,HF_wild_card,2022.2.4,Win32,59.99880002,5ca356cb72a23200160ce912,64d2fd46c836a06233681665,64dc7cb004826b18df2da83c,,,,,,,sngl,resources/Empty.png,resources/DG.BMP,Door2,0.008333347,0.008333312,1,0,0,0.3791,optionRight,20,2335,1,43,0,43,0,1,,,,,,,,,,,,,,,,,,,,,,,,,,,,,,,,,,,,,,,
,,,,,,,,2023-08-16_08h41.13.920,HF_wild_card,2022.2.4,Win32,59.99880002,5ca356cb72a23200160ce912,64d2fd46c836a06233681665,64dc7cb004826b18df2da83c,,,,,,,,,,,,,,,,,,,,,,,,,,0,0,0,0,1,,,,,,,,,,,,,,,,,,,,,,,,,,,,,,,,,,
,,,,,,,,2023-08-16_08h41.13.920,HF_wild_card,2022.2.4,Win32,59.99880002,5ca356cb72a23200160ce912,64d2fd46c836a06233681665,64dc7cb004826b18df2da83c,,,,,,,decisionTrl,resources/DG.BMP,resources/DP.BMP,Door1,0.253703718,-0.061111132,1,0,0,1.117,optionRight,30,2365,2,0,0,0,0,1,,,,,,,,,,,,,,,,,,,,,,,,,,,,,,,,,,,,,,,
,,,,,,,,2023-08-16_08h41.13.920,HF_wild_card,2022.2.4,Win32,59.99880002,5ca356cb72a23200160ce912,64d2fd46c836a06233681665,64dc7cb004826b18df2da83c,,,,,,,decisionTrl,resources/DBN.BMP,resources/DR.BMP,Door4,0.214814857,-0.010185206,1,0,0,1.0627,optionRight,80,2445,2,1,0,1,0,1,,,,,,,,,,,,,,,,,,,,,,,,,,,,,,,,,,,,,,,
,,,,,,,,2023-08-16_08h41.13.920,HF_wild_card,2022.2.4,Win32,59.99880002,5ca356cb72a23200160ce912,64d2fd46c836a06233681665,64dc7cb004826b18df2da83c,,,,,,,sngl,resources/DP.BMP,resources/Empty.png,Door1,-0.199074074,0.013888889,1,0,0,0.6573,optionLeft,30,2475,2,2,0,2,0,1,,,,,,,,,,,,,,,,,,,,,,,,,,,,,,,,,,,,,,,
,,,,,,,,2023-08-16_08h41.13.920,HF_wild_card,2022.2.4,Win32,59.99880002,5ca356cb72a23200160ce912,64d2fd46c836a06233681665,64dc7cb004826b18df2da83c,,,,,,,ctch,resources/DP.BMP,resources/DR.BMP,Door4,0.228703746,-0.028703725,1,0,0,0.9247,optionRight,60,2535,2,3,0,3,0,1,,,,,,,,,,,,,,,,,,,,,,,,,,,,,,,,,,,,,,,
,,,,,,,,2023-08-16_08h41.13.920,HF_wild_card,2022.2.4,Win32,59.99880002,5ca356cb72a23200160ce912,64d2fd46c836a06233681665,64dc7cb004826b18df2da83c,,,,,,,decisionTrl,resources/DP.BMP,resources/DG.BMP,Door2,0.220370399,-0.032407407,1,0,0,0.9462,optionRight,20,2555,2,4,0,4,0,1,,,,,,,,,,,,,,,,,,,,,,,,,,,,,,,,,,,,,,,
,,,,,,,,2023-08-16_08h41.13.920,HF_wild_card,2022.2.4,Win32,59.99880002,5ca356cb72a23200160ce912,64d2fd46c836a06233681665,64dc7cb004826b18df2da83c,,,,,,,decisionTrl,resources/DR.BMP,resources/DY.BMP,Door4,-0.187962921,-0.026851866,1,0,0,1.2617,optionLeft,80,2635,2,5,0,5,0,1,,,,,,,,,,,,,,,,,,,,,,,,,,,,,,,,,,,,,,,
,,,,,,,,2023-08-16_08h41.13.920,HF_wild_card,2022.2.4,Win32,59.99880002,5ca356cb72a23200160ce912,64d2fd46c836a06233681665,64dc7cb004826b18df2da83c,,,,,,,decisionTrl,resources/DP.BMP,resources/DG.BMP,Door1,-0.280555513,-0.08888891,1,0,0,0.8086,optionLeft,30,2665,2,6,0,6,0,1,,,,,,,,,,,,,,,,,,,,,,,,,,,,,,,,,,,,,,,
,,,,,,,,2023-08-16_08h41.13.920,HF_wild_card,2022.2.4,Win32,59.99880002,5ca356cb72a23200160ce912,64d2fd46c836a06233681665,64dc7cb004826b18df2da83c,,,,,,,sngl,resources/DG.BMP,resources/Empty.png,Door2,0.00462963,0.009259259,1,0,0,0.4614,optionLeft,20,2685,2,7,0,7,0,1,,,,,,,,,,,,,,,,,,,,,,,,,,,,,,,,,,,,,,,
,,,,,,,,2023-08-16_08h41.13.920,HF_wild_card,2022.2.4,Win32,59.99880002,5ca356cb72a23200160ce912,64d2fd46c836a06233681665,64dc7cb004826b18df2da83c,,,,,,,sngl,resources/Empty.png,resources/DY.BMP,Door3,0.219444487,-0.005555577,1,0,0,0.791,optionRight,70,2755,2,8,0,8,0,1,,,,,,,,,,,,,,,,,,,,,,,,,,,,,,,,,,,,,,,
,,,,,,,,2023-08-16_08h41.13.920,HF_wild_card,2022.2.4,Win32,59.99880002,5ca356cb72a23200160ce912,64d2fd46c836a06233681665,64dc7cb004826b18df2da83c,,,,,,,decisionTrl,resources/DG.BMP,resources/DBN.BMP,Door2,-0.237037023,-0.037037037,1,0,0,0.9135,optionLeft,40,2795,2,9,0,9,0,1,,,,,,,,,,,,,,,,,,,,,,,,,,,,,,,,,,,,,,,
,,,,,,,,2023-08-16_08h41.13.920,HF_wild_card,2022.2.4,Win32,59.99880002,5ca356cb72a23200160ce912,64d2fd46c836a06233681665,64dc7cb004826b18df2da83c,,,,,,,decisionTrl,resources/DG.BMP,resources/DP.BMP,Door2,-0.205555527,-0.038888896,1,0,0,1.6622,optionLeft,40,2835,2,10,0,10,0,1,,,,,,,,,,,,,,,,,,,,,,,,,,,,,,,,,,,,,,,
,,,,,,,,2023-08-16_08h41.13.920,HF_wild_card,2022.2.4,Win32,59.99880002,5ca356cb72a23200160ce912,64d2fd46c836a06233681665,64dc7cb004826b18df2da83c,,,,,,,sngl,resources/Empty.png,resources/DR.BMP,Door4,0.200925968,0.026851831,1,0,0,0.8107,optionRight,80,2915,2,11,0,11,0,1,,,,,,,,,,,,,,,,,,,,,,,,,,,,,,,,,,,,,,,
,,,,,,,,2023-08-16_08h41.13.920,HF_wild_card,2022.2.4,Win32,59.99880002,5ca356cb72a23200160ce912,64d2fd46c836a06233681665,64dc7cb004826b18df2da83c,,,,,,,sngl,resources/DBN.BMP,resources/Empty.png,WildCard_Ex,-0.220370328,-0.020370377,1,0,0,0.9487,optionLeft,95,3010,2,12,0,12,0,1,,,,,,,,,,,,,,,,,,,,,,,,,,,,,,,,,,,,,,,
,,,,,,,,2023-08-16_08h41.13.920,HF_wild_card,2022.2.4,Win32,59.99880002,5ca356cb72a23200160ce912,64d2fd46c836a06233681665,64dc7cb004826b18df2da83c,,,,,,,decisionTrl,resources/DY.BMP,resources/DR.BMP,Door4,0.250925912,-0.025000007,1,0,0,0.9312,optionRight,80,3090,2,13,0,13,0,1,,,,,,,,,,,,,,,,,,,,,,,,,,,,,,,,,,,,,,,
,,,,,,,,2023-08-16_08h41.13.920,HF_wild_card,2022.2.4,Win32,59.99880002,5ca356cb72a23200160ce912,64d2fd46c836a06233681665,64dc7cb004826b18df2da83c,,,,,,,decisionTrl,resources/DBN.BMP,resources/DY.BMP,Door3,0.205555598,-0.013888889,1,0,0,1.0053,optionRight,70,3160,2,14,0,14,0,1,,,,,,,,,,,,,,,,,,,,,,,,,,,,,,,,,,,,,,,
,,,,,,,,2023-08-16_08h41.13.920,HF_wild_card,2022.2.4,Win32,59.99880002,5ca356cb72a23200160ce912,64d2fd46c836a06233681665,64dc7cb004826b18df2da83c,,,,,,,ctch,resources/DY.BMP,resources/DG.BMP,Door3,-0.196296268,0.009259259,1,0,0,1.5223,optionLeft,70,3230,2,15,0,15,0,1,,,,,,,,,,,,,,,,,,,,,,,,,,,,,,,,,,,,,,,
,,,,,,,,2023-08-16_08h41.13.920,HF_wild_card,2022.2.4,Win32,59.99880002,5ca356cb72a23200160ce912,64d2fd46c836a06233681665,64dc7cb004826b18df2da83c,,,,,,,ctch,resources/DP.BMP,resources/DR.BMP,Door4,0.17777782,-0.008333347,1,0,0,1.7279,optionRight,60,3290,2,16,0,16,0,1,,,,,,,,,,,,,,,,,,,,,,,,,,,,,,,,,,,,,,,
,,,,,,,,2023-08-16_08h41.13.920,HF_wild_card,2022.2.4,Win32,59.99880002,5ca356cb72a23200160ce912,64d2fd46c836a06233681665,64dc7cb004826b18df2da83c,,,,,,,decisionTrl,resources/DG.BMP,resources/DP.BMP,Door1,0.220370399,-0.034259266,1,0,0,4.6274,optionRight,30,3320,2,17,0,17,0,1,,,,,,,,,,,,,,,,,,,,,,,,,,,,,,,,,,,,,,,
,,,,,,,,2023-08-16_08h41.13.920,HF_wild_card,2022.2.4,Win32,59.99880002,5ca356cb72a23200160ce912,64d2fd46c836a06233681665,64dc7cb004826b18df2da83c,,,,,,,ctch,resources/DG.BMP,resources/DY.BMP,Door3,0.309259344,-0.050925926,1,0,0,5.9887,optionRight,70,3390,2,18,0,18,0,1,,,,,,,,,,,,,,,,,,,,,,,,,,,,,,,,,,,,,,,
,,,,,,,,2023-08-16_08h41.13.920,HF_wild_card,2022.2.4,Win32,59.99880002,5ca356cb72a23200160ce912,64d2fd46c836a06233681665,64dc7cb004826b18df2da83c,,,,,,,decisionTrl,resources/DP.BMP,resources/DG.BMP,Door2,0.378703788,-0.035185178,1,0,0,4.338,optionRight,20,3410,2,19,0,19,0,1,,,,,,,,,,,,,,,,,,,,,,,,,,,,,,,,,,,,,,,
,,,,,,,,2023-08-16_08h41.13.920,HF_wild_card,2022.2.4,Win32,59.99880002,5ca356cb72a23200160ce912,64d2fd46c836a06233681665,64dc7cb004826b18df2da83c,,,,,,,decisionTrl,resources/DY.BMP,resources/DR.BMP,Door4,0.209259245,-0.075000021,1,0,0,3.6938,optionRight,80,3490,2,20,0,20,0,1,,,,,,,,,,,,,,,,,,,,,,,,,,,,,,,,,,,,,,,
,,,,,,,,2023-08-16_08h41.13.920,HF_wild_card,2022.2.4,Win32,59.99880002,5ca356cb72a23200160ce912,64d2fd46c836a06233681665,64dc7cb004826b18df2da83c,,,,,,,decisionTrl,resources/DR.BMP,resources/DY.BMP,Door3,0.366666723,-0.070370392,1,0,0,1.5392,optionRight,70,3560,2,21,0,21,0,1,,,,,,,,,,,,,,,,,,,,,,,,,,,,,,,,,,,,,,,
,,,,,,,,2023-08-16_08h41.13.920,HF_wild_card,2022.2.4,Win32,59.99880002,5ca356cb72a23200160ce912,64d2fd46c836a06233681665,64dc7cb004826b18df2da83c,,,,,,,decisionTrl,resources/DY.BMP,resources/DR.BMP,Door3,-0.280555513,-0.089814822,1,0,0,3.6084,optionLeft,70,3630,2,22,0,22,0,1,,,,,,,,,,,,,,,,,,,,,,,,,,,,,,,,,,,,,,,
,,,,,,,,2023-08-16_08h41.13.920,HF_wild_card,2022.2.4,Win32,59.99880002,5ca356cb72a23200160ce912,64d2fd46c836a06233681665,64dc7cb004826b18df2da83c,,,,,,,decisionTrl,resources/DP.BMP,resources/DBN.BMP,Door1,0.003703718,0.013888889,1,0,0,1.0448,optionLeft,30,3660,2,23,0,23,0,1,,,,,,,,,,,,,,,,,,,,,,,,,,,,,,,,,,,,,,,
,,,,,,,,2023-08-16_08h41.13.920,HF_wild_card,2022.2.4,Win32,59.99880002,5ca356cb72a23200160ce912,64d2fd46c836a06233681665,64dc7cb004826b18df2da83c,,,,,,,sngl,resources/Empty.png,resources/DP.BMP,Door1,0.386111083,-0.011111118,1,0,0,0.7755,optionRight,30,3690,2,24,0,24,0,1,,,,,,,,,,,,,,,,,,,,,,,,,,,,,,,,,,,,,,,
,,,,,,,,2023-08-16_08h41.13.920,HF_wild_card,2022.2.4,Win32,59.99880002,5ca356cb72a23200160ce912,64d2fd46c836a06233681665,64dc7cb004826b18df2da83c,,,,,,,ctch,resources/DY.BMP,resources/DG.BMP,Door2,0.291666667,-0.064814815,1,0,0,5.1644,optionRight,40,3730,2,25,0,25,0,1,,,,,,,,,,,,,,,,,,,,,,,,,,,,,,,,,,,,,,,
,,,,,,,,2023-08-16_08h41.13.920,HF_wild_card,2022.2.4,Win32,59.99880002,5ca356cb72a23200160ce912,64d2fd46c836a06233681665,64dc7cb004826b18df2da83c,,,,,,,decisionTrl,resources/DP.BMP,resources/DG.BMP,Door1,-0.501851859,-0.022222236,1,0,0,3.1508,optionLeft,30,3760,2,26,0,26,0,1,,,,,,,,,,,,,,,,,,,,,,,,,,,,,,,,,,,,,,,
,,,,,,,,2023-08-16_08h41.13.920,HF_wild_card,2022.2.4,Win32,59.99880002,5ca356cb72a23200160ce912,64d2fd46c836a06233681665,64dc7cb004826b18df2da83c,,,,,,,ctch,resources/DG.BMP,resources/DY.BMP,Door2,-0.301851838,-0.032407407,1,0,0,2.0738,optionLeft,40,3800,2,27,0,27,0,1,,,,,,,,,,,,,,,,,,,,,,,,,,,,,,,,,,,,,,,
,,,,,,,,2023-08-16_08h41.13.920,HF_wild_card,2022.2.4,Win32,59.99880002,5ca356cb72a23200160ce912,64d2fd46c836a06233681665,64dc7cb004826b18df2da83c,,,,,,,sngl,resources/Empty.png,resources/DBN.BMP,WildCard_Ex,0.303703732,0.002777771,1,0,0,0.9458,optionRight,95,3895,2,28,0,28,0,1,,,,,,,,,,,,,,,,,,,,,,,,,,,,,,,,,,,,,,,
,,,,,,,,2023-08-16_08h41.13.920,HF_wild_card,2022.2.4,Win32,59.99880002,5ca356cb72a23200160ce912,64d2fd46c836a06233681665,64dc7cb004826b18df2da83c,,,,,,,decisionTrl,resources/DR.BMP,resources/DY.BMP,Door4,-0.50462963,-0.085185192,1,0,0,1.7272,optionLeft,60,3955,2,29,0,29,0,1,,,,,,,,,,,,,,,,,,,,,,,,,,,,,,,,,,,,,,,
,,,,,,,,2023-08-16_08h41.13.920,HF_wild_card,2022.2.4,Win32,59.99880002,5ca356cb72a23200160ce912,64d2fd46c836a06233681665,64dc7cb004826b18df2da83c,,,,,,,sngl,resources/DBN.BMP,resources/Empty.png,WildCard_Ex,-0.161111125,-0.062962956,1,0,0,2.493,optionLeft,5,3960,2,30,0,30,0,1,,,,,,,,,,,,,,,,,,,,,,,,,,,,,,,,,,,,,,,
,,,,,,,,2023-08-16_08h41.13.920,HF_wild_card,2022.2.4,Win32,59.99880002,5ca356cb72a23200160ce912,64d2fd46c836a06233681665,64dc7cb004826b18df2da83c,,,,,,,decisionTrl,resources/DBN.BMP,resources/DP.BMP,Door1,0.276851866,-0.012962977,1,0,0,0.7551,optionRight,30,3990,2,31,0,31,0,1,,,,,,,,,,,,,,,,,,,,,,,,,,,,,,,,,,,,,,,
,,,,,,,,2023-08-16_08h41.13.920,HF_wild_card,2022.2.4,Win32,59.99880002,5ca356cb72a23200160ce912,64d2fd46c836a06233681665,64dc7cb004826b18df2da83c,,,,,,,decisionTrl,resources/DR.BMP,resources/DBN.BMP,Door4,-0.334259245,-0.089814822,1,0,0,0.6285,optionLeft,60,4050,2,32,0,32,0,1,,,,,,,,,,,,,,,,,,,,,,,,,,,,,,,,,,,,,,,
,,,,,,,,2023-08-16_08h41.13.920,HF_wild_card,2022.2.4,Win32,59.99880002,5ca356cb72a23200160ce912,64d2fd46c836a06233681665,64dc7cb004826b18df2da83c,,,,,,,ctch,resources/DR.BMP,resources/DP.BMP,Door4,-0.228703675,-0.065740762,1,0,0,5.0096,optionLeft,80,4130,2,33,0,33,0,1,,,,,,,,,,,,,,,,,,,,,,,,,,,,,,,,,,,,,,,
,,,,,,,,2023-08-16_08h41.13.920,HF_wild_card,2022.2.4,Win32,59.99880002,5ca356cb72a23200160ce912,64d2fd46c836a06233681665,64dc7cb004826b18df2da83c,,,,,,,sngl,resources/DR.BMP,resources/Empty.png,Door4,-0.193518533,-0.00462963,1,0,0,0.6001,optionLeft,60,4190,2,34,0,34,0,1,,,,,,,,,,,,,,,,,,,,,,,,,,,,,,,,,,,,,,,
,,,,,,,,2023-08-16_08h41.13.920,HF_wild_card,2022.2.4,Win32,59.99880002,5ca356cb72a23200160ce912,64d2fd46c836a06233681665,64dc7cb004826b18df2da83c,,,,,,,decisionTrl,resources/DBN.BMP,resources/DG.BMP,Door2,0.324074074,-0.068518533,1,0,0,0.7726,optionRight,40,4230,2,35,0,35,0,1,,,,,,,,,,,,,,,,,,,,,,,,,,,,,,,,,,,,,,,
,,,,,,,,2023-08-16_08h41.13.920,HF_wild_card,2022.2.4,Win32,59.99880002,5ca356cb72a23200160ce912,64d2fd46c836a06233681665,64dc7cb004826b18df2da83c,,,,,,,decisionTrl,resources/DR.BMP,resources/DY.BMP,Door4,-0.227777764,0.005555541,1,0,0,0.6282,optionLeft,80,4310,2,36,0,36,0,1,,,,,,,,,,,,,,,,,,,,,,,,,,,,,,,,,,,,,,,
,,,,,,,,2023-08-16_08h41.13.920,HF_wild_card,2022.2.4,Win32,59.99880002,5ca356cb72a23200160ce912,64d2fd46c836a06233681665,64dc7cb004826b18df2da83c,,,,,,,sngl,resources/Empty.png,resources/DBN.BMP,WildCard_Ex,0.292592578,-0.009259259,1,0,0,1.6043,optionRight,5,4315,2,37,0,37,0,1,,,,,,,,,,,,,,,,,,,,,,,,,,,,,,,,,,,,,,,
,,,,,,,,2023-08-16_08h41.13.920,HF_wild_card,2022.2.4,Win32,59.99880002,5ca356cb72a23200160ce912,64d2fd46c836a06233681665,64dc7cb004826b18df2da83c,,,,,,,sngl,resources/Empty.png,resources/DG.BMP,Door2,0.237963005,-0.030555548,1,0,0,0.7616,optionRight,40,4355,2,38,0,38,0,1,,,,,,,,,,,,,,,,,,,,,,,,,,,,,,,,,,,,,,,
,,,,,,,,2023-08-16_08h41.13.920,HF_wild_card,2022.2.4,Win32,59.99880002,5ca356cb72a23200160ce912,64d2fd46c836a06233681665,64dc7cb004826b18df2da83c,,,,,,,decisionTrl,resources/DG.BMP,resources/DP.BMP,Door2,-0.253703718,-0.037037037,1,0,0,5.0433,optionLeft,20,4375,2,39,0,39,0,1,,,,,,,,,,,,,,,,,,,,,,,,,,,,,,,,,,,,,,,
,,,,,,,,2023-08-16_08h41.13.920,HF_wild_card,2022.2.4,Win32,59.99880002,5ca356cb72a23200160ce912,64d2fd46c836a06233681665,64dc7cb004826b18df2da83c,,,,,,,ctch,resources/DR.BMP,resources/DP.BMP,Door4,-0.285185143,-0.063888903,1,0,0,5.7229,optionLeft,80,4455,2,40,0,40,0,1,,,,,,,,,,,,,,,,,,,,,,,,,,,,,,,,,,,,,,,
,,,,,,,,2023-08-16_08h41.13.920,HF_wild_card,2022.2.4,Win32,59.99880002,5ca356cb72a23200160ce912,64d2fd46c836a06233681665,64dc7cb004826b18df2da83c,,,,,,,decisionTrl,resources/DY.BMP,resources/DBN.BMP,Door3,-0.284259231,-0.050000014,1,0,0,1.0791,optionLeft,70,4525,2,41,0,41,0,1,,,,,,,,,,,,,,,,,,,,,,,,,,,,,,,,,,,,,,,
,,,,,,,,2023-08-16_08h41.13.920,HF_wild_card,2022.2.4,Win32,59.99880002,5ca356cb72a23200160ce912,64d2fd46c836a06233681665,64dc7cb004826b18df2da83c,,,,,,,sngl,resources/DY.BMP,resources/Empty.png,Door3,-0.253703718,-0.035185178,1,0,0,0.7246,optionLeft,70,4595,2,42,0,42,0,1,,,,,,,,,,,,,,,,,,,,,,,,,,,,,,,,,,,,,,,
,,,,,,,,2023-08-16_08h41.13.920,HF_wild_card,2022.2.4,Win32,59.99880002,5ca356cb72a23200160ce912,64d2fd46c836a06233681665,64dc7cb004826b18df2da83c,,,,,,,decisionTrl,resources/DY.BMP,resources/DR.BMP,Door4,0.329629686,0.023148148,1,0,0,6.3212,optionRight,60,4655,2,43,0,43,0,1,,,,,,,,,,,,,,,,,,,,,,,,,,,,,,,,,,,,,,,
,,,,,,,,2023-08-16_08h41.13.920,HF_wild_card,2022.2.4,Win32,59.99880002,5ca356cb72a23200160ce912,64d2fd46c836a06233681665,64dc7cb004826b18df2da83c,,,,,,,,,,,,,,,,,,,,,,,,,,1,0,1,0,1,,,,,,,,,,,,,,,,,,,,,,,,,,,,,,,,,,
,,,,,,,,2023-08-16_08h41.13.920,HF_wild_card,2022.2.4,Win32,59.99880002,5ca356cb72a23200160ce912,64d2fd46c836a06233681665,64dc7cb004826b18df2da83c,,,,,,,decisionTrl,resources/DG.BMP,resources/DP.BMP,Door1,0.311111168,-0.113888917,1,0,0,4.0543,optionRight,30,4685,3,0,0,0,0,1,,,,,,,,,,,,,,,,,,,,,,,,,,,,,,,,,,,,,,,
,,,,,,,,2023-08-16_08h41.13.920,HF_wild_card,2022.2.4,Win32,59.99880002,5ca356cb72a23200160ce912,64d2fd46c836a06233681665,64dc7cb004826b18df2da83c,,,,,,,ctch,resources/DR.BMP,resources/DP.BMP,Door1,0.229629658,-0.073148162,1,0,0,4.5699,optionRight,30,4715,3,1,0,1,0,1,,,,,,,,,,,,,,,,,,,,,,,,,,,,,,,,,,,,,,,
,,,,,,,,2023-08-16_08h41.13.920,HF_wild_card,2022.2.4,Win32,59.99880002,5ca356cb72a23200160ce912,64d2fd46c836a06233681665,64dc7cb004826b18df2da83c,,,,,,,decisionTrl,resources/DR.BMP,resources/DY.BMP,Door4,-0.322222215,-0.021296289,1,0,0,3.0236,optionLeft,60,4775,3,2,0,2,0,1,,,,,,,,,,,,,,,,,,,,,,,,,,,,,,,,,,,,,,,
,,,,,,,,2023-08-16_08h41.13.920,HF_wild_card,2022.2.4,Win32,59.99880002,5ca356cb72a23200160ce912,64d2fd46c836a06233681665,64dc7cb004826b18df2da83c,,,,,,,decisionTrl,resources/DY.BMP,resources/DR.BMP,Door4,0.208333333,-0.008333347,1,0,0,1.3924,optionRight,60,4835,3,3,0,3,0,1,,,,,,,,,,,,,,,,,,,,,,,,,,,,,,,,,,,,,,,
,,,,,,,,2023-08-16_08h41.13.920,HF_wild_card,2022.2.4,Win32,59.99880002,5ca356cb72a23200160ce912,64d2fd46c836a06233681665,64dc7cb004826b18df2da83c,,,,,,,ctch,resources/DY.BMP,resources/DG.BMP,Door3,-0.137036995,-0.017592607,1,0,0,3.094,optionLeft,70,4905,3,4,0,4,0,1,,,,,,,,,,,,,,,,,,,,,,,,,,,,,,,,,,,,,,,
,,,,,,,,2023-08-16_08h41.13.920,HF_wild_card,2022.2.4,Win32,59.99880002,5ca356cb72a23200160ce912,64d2fd46c836a06233681665,64dc7cb004826b18df2da83c,,,,,,,sngl,resources/Empty.png,resources/DBN.BMP,WildCard_Ex,0.255555541,-0.022222236,1,0,0,0.6933,optionRight,5,4910,3,5,0,5,0,1,,,,,,,,,,,,,,,,,,,,,,,,,,,,,,,,,,,,,,,
,,,,,,,,2023-08-16_08h41.13.920,HF_wild_card,2022.2.4,Win32,59.99880002,5ca356cb72a23200160ce912,64d2fd46c836a06233681665,64dc7cb004826b18df2da83c,,,,,,,decisionTrl,resources/DP.BMP,resources/DG.BMP,Door1,-0.235185199,-0.027777778,1,0,0,0.6939,optionLeft,30,4940,3,6,0,6,0,1,,,,,,,,,,,,,,,,,,,,,,,,,,,,,,,,,,,,,,,
,,,,,,,,2023-08-16_08h41.13.920,HF_wild_card,2022.2.4,Win32,59.99880002,5ca356cb72a23200160ce912,64d2fd46c836a06233681665,64dc7cb004826b18df2da83c,,,,,,,sngl,resources/Empty.png,resources/DG.BMP,Door2,0.259259259,-0.029629637,1,0,0,0.544,optionRight,20,4960,3,7,0,7,0,1,,,,,,,,,,,,,,,,,,,,,,,,,,,,,,,,,,,,,,,
,,,,,,,,2023-08-16_08h41.13.920,HF_wild_card,2022.2.4,Win32,59.99880002,5ca356cb72a23200160ce912,64d2fd46c836a06233681665,64dc7cb004826b18df2da83c,,,,,,,sngl,resources/DY.BMP,resources/Empty.png,Door3,-0.17777775,-0.002777771,1,0,0,0.611,optionLeft,70,5030,3,8,0,8,0,1,,,,,,,,,,,,,,,,,,,,,,,,,,,,,,,,,,,,,,,
,,,,,,,,2023-08-16_08h41.13.920,HF_wild_card,2022.2.4,Win32,59.99880002,5ca356cb72a23200160ce912,64d2fd46c836a06233681665,64dc7cb004826b18df2da83c,,,,,,,sngl,resources/Empty.png,resources/DR.BMP,Door4,0.232407393,-0.025925919,1,0,0,0.544,optionRight,60,5090,3,9,0,9,0,1,,,,,,,,,,,,,,,,,,,,,,,,,,,,,,,,,,,,,,,
,,,,,,,,2023-08-16_08h41.13.920,HF_wild_card,2022.2.4,Win32,59.99880002,5ca356cb72a23200160ce912,64d2fd46c836a06233681665,64dc7cb004826b18df2da83c,,,,,,,decisionTrl,resources/DG.BMP,resources/DP.BMP,Door1,0.156481496,-0.087037051,1,0,0,1.742,optionRight,30,5120,3,10,0,10,0,1,,,,,,,,,,,,,,,,,,,,,,,,,,,,,,,,,,,,,,,
,,,,,,,,2023-08-16_08h41.13.920,HF_wild_card,2022.2.4,Win32,59.99880002,5ca356cb72a23200160ce912,64d2fd46c836a06233681665,64dc7cb004826b18df2da83c,,,,,,,decisionTrl,resources/DR.BMP,resources/DBN.BMP,Door4,-0.257407365,-0.027777778,1,0,0,0.812,optionLeft,60,5180,3,11,0,11,0,1,,,,,,,,,,,,,,,,,,,,,,,,,,,,,,,,,,,,,,,
,,,,,,,,2023-08-16_08h41.13.920,HF_wild_card,2022.2.4,Win32,59.99880002,5ca356cb72a23200160ce912,64d2fd46c836a06233681665,64dc7cb004826b18df2da83c,,,,,,,decisionTrl,resources/DP.BMP,resources/DBN.BMP,Door1,-0.253703718,-0.030555548,1,0,0,0.611,optionLeft,30,5210,3,12,0,12,0,1,,,,,,,,,,,,,,,,,,,,,,,,,,,,,,,,,,,,,,,
,,,,,,,,2023-08-16_08h41.13.920,HF_wild_card,2022.2.4,Win32,59.99880002,5ca356cb72a23200160ce912,64d2fd46c836a06233681665,64dc7cb004826b18df2da83c,,,,,,,sngl,resources/DBN.BMP,resources/Empty.png,WildCard_Ex,-0.23055557,-0.047222243,1,0,0,0.578,optionLeft,5,5215,3,13,0,13,0,1,,,,,,,,,,,,,,,,,,,,,,,,,,,,,,,,,,,,,,,
,,,,,,,,2023-08-16_08h41.13.920,HF_wild_card,2022.2.4,Win32,59.99880002,5ca356cb72a23200160ce912,64d2fd46c836a06233681665,64dc7cb004826b18df2da83c,,,,,,,decisionTrl,resources/DR.BMP,resources/DY.BMP,Door4,-0.23055557,-0.035185178,1,0,0,0.7611,optionLeft,80,5295,3,14,0,14,0,1,,,,,,,,,,,,,,,,,,,,,,,,,,,,,,,,,,,,,,,
,,,,,,,,2023-08-16_08h41.13.920,HF_wild_card,2022.2.4,Win32,59.99880002,5ca356cb72a23200160ce912,64d2fd46c836a06233681665,64dc7cb004826b18df2da83c,,,,,,,decisionTrl,resources/DBN.BMP,resources/DR.BMP,Door4,0.200925968,-0.062962956,1,0,0,0.6609,optionRight,80,5375,3,15,0,15,0,1,,,,,,,,,,,,,,,,,,,,,,,,,,,,,,,,,,,,,,,
,,,,,,,,2023-08-16_08h41.13.920,HF_wild_card,2022.2.4,Win32,59.99880002,5ca356cb72a23200160ce912,64d2fd46c836a06233681665,64dc7cb004826b18df2da83c,,,,,,,decisionTrl,resources/DP.BMP,resources/DG.BMP,Door1,-0.220370328,-0.049074067,1,0,0,0.6613,optionLeft,30,5405,3,16,0,16,0,1,,,,,,,,,,,,,,,,,,,,,,,,,,,,,,,,,,,,,,,
,,,,,,,,2023-08-16_08h41.13.920,HF_wild_card,2022.2.4,Win32,59.99880002,5ca356cb72a23200160ce912,64d2fd46c836a06233681665,64dc7cb004826b18df2da83c,,,,,,,sngl,resources/DR.BMP,resources/Empty.png,Door4,-0.233333305,-0.066666674,1,0,0,0.5759,optionLeft,80,5485,3,17,0,17,0,1,,,,,,,,,,,,,,,,,,,,,,,,,,,,,,,,,,,,,,,
,,,,,,,,2023-08-16_08h41.13.920,HF_wild_card,2022.2.4,Win32,59.99880002,5ca356cb72a23200160ce912,64d2fd46c836a06233681665,64dc7cb004826b18df2da83c,,,,,,,ctch,resources/DP.BMP,resources/DR.BMP,Door4,0.214814857,-0.044444437,1,0,0,1.278,optionRight,60,5545,3,18,0,18,0,1,,,,,,,,,,,,,,,,,,,,,,,,,,,,,,,,,,,,,,,
,,,,,,,,2023-08-16_08h41.13.920,HF_wild_card,2022.2.4,Win32,59.99880002,5ca356cb72a23200160ce912,64d2fd46c836a06233681665,64dc7cb004826b18df2da83c,,,,,,,decisionTrl,resources/DR.BMP,resources/DY.BMP,Door4,-0.174074032,-0.045370384,1,0,0,0.6276,optionLeft,80,5625,3,19,0,19,0,1,,,,,,,,,,,,,,,,,,,,,,,,,,,,,,,,,,,,,,,
,,,,,,,,2023-08-16_08h41.13.920,HF_wild_card,2022.2.4,Win32,59.99880002,5ca356cb72a23200160ce912,64d2fd46c836a06233681665,64dc7cb004826b18df2da83c,,,,,,,ctch,resources/DG.BMP,resources/DY.BMP,Door2,-0.191666638,-0.061111132,1,0,0,0.7101,optionLeft,40,5665,3,20,0,20,0,1,,,,,,,,,,,,,,,,,,,,,,,,,,,,,,,,,,,,,,,
,,,,,,,,2023-08-16_08h41.13.920,HF_wild_card,2022.2.4,Win32,59.99880002,5ca356cb72a23200160ce912,64d2fd46c836a06233681665,64dc7cb004826b18df2da83c,,,,,,,decisionTrl,resources/DG.BMP,resources/DP.BMP,Door1,0.187962991,-0.010185206,1,0,0,0.7283,optionRight,30,5695,3,21,0,21,0,1,,,,,,,,,,,,,,,,,,,,,,,,,,,,,,,,,,,,,,,
,,,,,,,,2023-08-16_08h41.13.920,HF_wild_card,2022.2.4,Win32,59.99880002,5ca356cb72a23200160ce912,64d2fd46c836a06233681665,64dc7cb004826b18df2da83c,,,,,,,decisionTrl,resources/DBN.BMP,resources/DY.BMP,Door3,0.215740769,-0.00462963,1,0,0,0.7109,optionRight,70,5765,3,22,0,22,0,1,,,,,,,,,,,,,,,,,,,,,,,,,,,,,,,,,,,,,,,
,,,,,,,,2023-08-16_08h41.13.920,HF_wild_card,2022.2.4,Win32,59.99880002,5ca356cb72a23200160ce912,64d2fd46c836a06233681665,64dc7cb004826b18df2da83c,,,,,,,sngl,resources/Empty.png,resources/DP.BMP,Door1,0.217592593,-0.045370384,1,0,0,0.6441,optionRight,30,5795,3,23,0,23,0,1,,,,,,,,,,,,,,,,,,,,,,,,,,,,,,,,,,,,,,,
,,,,,,,,2023-08-16_08h41.13.920,HF_wild_card,2022.2.4,Win32,59.99880002,5ca356cb72a23200160ce912,64d2fd46c836a06233681665,64dc7cb004826b18df2da83c,,,,,,,sngl,resources/DP.BMP,resources/Empty.png,Door1,-0.193518533,-0.006481489,1,0,0,0.5424,optionLeft,30,5825,3,24,0,24,0,1,,,,,,,,,,,,,,,,,,,,,,,,,,,,,,,,,,,,,,,
,,,,,,,,2023-08-16_08h41.13.920,HF_wild_card,2022.2.4,Win32,59.99880002,5ca356cb72a23200160ce912,64d2fd46c836a06233681665,64dc7cb004826b18df2da83c,,,,,,,decisionTrl,resources/DBN.BMP,resources/DP.BMP,Door1,0.288888931,-0.051851873,1,0,0,0.6782,optionRight,30,5855,3,25,0,25,0,1,,,,,,,,,,,,,,,,,,,,,,,,,,,,,,,,,,,,,,,
,,,,,,,,2023-08-16_08h41.13.920,HF_wild_card,2022.2.4,Win32,59.99880002,5ca356cb72a23200160ce912,64d2fd46c836a06233681665,64dc7cb004826b18df2da83c,,,,,,,ctch,resources/DP.BMP,resources/DR.BMP,Door1,-0.185185185,-0.017592607,1,0,0,1.0444,optionLeft,30,5885,3,26,0,26,0,1,,,,,,,,,,,,,,,,,,,,,,,,,,,,,,,,,,,,,,,
,,,,,,,,2023-08-16_08h41.13.920,HF_wild_card,2022.2.4,Win32,59.99880002,5ca356cb72a23200160ce912,64d2fd46c836a06233681665,64dc7cb004826b18df2da83c,,,,,,,decisionTrl,resources/DG.BMP,resources/DBN.BMP,Door2,-0.175000014,-0.026851866,1,0,0,0.7944,optionLeft,20,5905,3,27,0,27,0,1,,,,,,,,,,,,,,,,,,,,,,,,,,,,,,,,,,,,,,,
,,,,,,,,2023-08-16_08h41.13.920,HF_wild_card,2022.2.4,Win32,59.99880002,5ca356cb72a23200160ce912,64d2fd46c836a06233681665,64dc7cb004826b18df2da83c,,,,,,,ctch,resources/DY.BMP,resources/DG.BMP,Door2,0.172222208,-0.013888889,1,0,0,1.162,optionRight,40,5945,3,28,0,28,0,1,,,,,,,,,,,,,,,,,,,,,,,,,,,,,,,,,,,,,,,
,,,,,,,,2023-08-16_08h41.13.920,HF_wild_card,2022.2.4,Win32,59.99880002,5ca356cb72a23200160ce912,64d2fd46c836a06233681665,64dc7cb004826b18df2da83c,,,,,,,decisionTrl,resources/DG.BMP,resources/DP.BMP,Door2,-0.167592578,-0.017592607,1,0,0,0.7943,optionLeft,20,5965,3,29,0,29,0,1,,,,,,,,,,,,,,,,,,,,,,,,,,,,,,,,,,,,,,,
,,,,,,,,2023-08-16_08h41.13.920,HF_wild_card,2022.2.4,Win32,59.99880002,5ca356cb72a23200160ce912,64d2fd46c836a06233681665,64dc7cb004826b18df2da83c,,,,,,,sngl,resources/DG.BMP,resources/Empty.png,Door2,-0.200925898,-0.013888889,1,0,0,0.6785,optionLeft,40,6005,3,30,0,30,0,1,,,,,,,,,,,,,,,,,,,,,,,,,,,,,,,,,,,,,,,
,,,,,,,,2023-08-16_08h41.13.920,HF_wild_card,2022.2.4,Win32,59.99880002,5ca356cb72a23200160ce912,64d2fd46c836a06233681665,64dc7cb004826b18df2da83c,,,,,,,decisionTrl,resources/DR.BMP,resources/DY.BMP,Door4,-0.23055557,-0.026851866,1,0,0,0.6445,optionLeft,80,6085,3,31,0,31,0,1,,,,,,,,,,,,,,,,,,,,,,,,,,,,,,,,,,,,,,,
,,,,,,,,2023-08-16_08h41.13.920,HF_wild_card,2022.2.4,Win32,59.99880002,5ca356cb72a23200160ce912,64d2fd46c836a06233681665,64dc7cb004826b18df2da83c,,,,,,,sngl,resources/DBN.BMP,resources/Empty.png,WildCard_Ex,-0.223148134,-0.021296289,1,0,0,0.5773,optionLeft,95,6180,3,32,0,32,0,1,,,,,,,,,,,,,,,,,,,,,,,,,,,,,,,,,,,,,,,
,,,,,,,,2023-08-16_08h41.13.920,HF_wild_card,2022.2.4,Win32,59.99880002,5ca356cb72a23200160ce912,64d2fd46c836a06233681665,64dc7cb004826b18df2da83c,,,,,,,ctch,resources/DR.BMP,resources/DP.BMP,Door1,0.226851852,-0.018518519,1,0,0,0.6611,optionRight,30,6210,3,33,0,33,0,1,,,,,,,,,,,,,,,,,,,,,,,,,,,,,,,,,,,,,,,
,,,,,,,,2023-08-16_08h41.13.920,HF_wild_card,2022.2.4,Win32,59.99880002,5ca356cb72a23200160ce912,64d2fd46c836a06233681665,64dc7cb004826b18df2da83c,,,,,,,decisionTrl,resources/DY.BMP,resources/DBN.BMP,Door3,-0.208333333,0.009259259,1,0,0,0.5951,optionLeft,70,6280,3,34,0,34,0,1,,,,,,,,,,,,,,,,,,,,,,,,,,,,,,,,,,,,,,,
,,,,,,,,2023-08-16_08h41.13.920,HF_wild_card,2022.2.4,Win32,59.99880002,5ca356cb72a23200160ce912,64d2fd46c836a06233681665,64dc7cb004826b18df2da83c,,,,,,,ctch,resources/DG.BMP,resources/DY.BMP,Door2,-0.175000014,0.013888889,1,0,0,0.6458,optionLeft,20,6300,3,35,0,35,0,1,,,,,,,,,,,,,,,,,,,,,,,,,,,,,,,,,,,,,,,
,,,,,,,,2023-08-16_08h41.13.920,HF_wild_card,2022.2.4,Win32,59.99880002,5ca356cb72a23200160ce912,64d2fd46c836a06233681665,64dc7cb004826b18df2da83c,,,,,,,decisionTrl,resources/DY.BMP,resources/DR.BMP,Door4,0.25,-0.009259259,1,0,0,1.0613,optionRight,60,6360,3,36,0,36,0,1,,,,,,,,,,,,,,,,,,,,,,,,,,,,,,,,,,,,,,,
,,,,,,,,2023-08-16_08h41.13.920,HF_wild_card,2022.2.4,Win32,59.99880002,5ca356cb72a23200160ce912,64d2fd46c836a06233681665,64dc7cb004826b18df2da83c,,,,,,,decisionTrl,resources/DY.BMP,resources/DR.BMP,Door4,0.200925968,0.003703683,1,0,0,0.6951,optionRight,80,6440,3,37,0,37,0,1,,,,,,,,,,,,,,,,,,,,,,,,,,,,,,,,,,,,,,,
,,,,,,,,2023-08-16_08h41.13.920,HF_wild_card,2022.2.4,Win32,59.99880002,5ca356cb72a23200160ce912,64d2fd46c836a06233681665,64dc7cb004826b18df2da83c,,,,,,,decisionTrl,resources/DY.BMP,resources/DR.BMP,Door4,0.23055557,0.021296289,1,0,0,0.5449,optionRight,80,6520,3,38,0,38,0,1,,,,,,,,,,,,,,,,,,,,,,,,,,,,,,,,,,,,,,,
,,,,,,,,2023-08-16_08h41.13.920,HF_wild_card,2022.2.4,Win32,59.99880002,5ca356cb72a23200160ce912,64d2fd46c836a06233681665,64dc7cb004826b18df2da83c,,,,,,,sngl,resources/Empty.png,resources/DBN.BMP,WildCard_Ex,0.095370399,0.048148155,1,0,0,0.7773,optionRight,95,6615,3,39,0,39,0,1,,,,,,,,,,,,,,,,,,,,,,,,,,,,,,,,,,,,,,,
,,,,,,,,2023-08-16_08h41.13.920,HF_wild_card,2022.2.4,Win32,59.99880002,5ca356cb72a23200160ce912,64d2fd46c836a06233681665,64dc7cb004826b18df2da83c,,,,,,,decisionTrl,resources/DBN.BMP,resources/DG.BMP,Door2,0.258333347,0,1,0,0,0.9443,optionRight,40,6655,3,40,0,40,0,1,,,,,,,,,,,,,,,,,,,,,,,,,,,,,,,,,,,,,,,
,,,,,,,,2023-08-16_08h41.13.920,HF_wild_card,2022.2.4,Win32,59.99880002,5ca356cb72a23200160ce912,64d2fd46c836a06233681665,64dc7cb004826b18df2da83c,,,,,,,decisionTrl,resources/DP.BMP,resources/DG.BMP,Door1,-0.182407379,0.009259259,1,0,0,0.5933,optionLeft,30,6685,3,41,0,41,0,1,,,,,,,,,,,,,,,,,,,,,,,,,,,,,,,,,,,,,,,
,,,,,,,,2023-08-16_08h41.13.920,HF_wild_card,2022.2.4,Win32,59.99880002,5ca356cb72a23200160ce912,64d2fd46c836a06233681665,64dc7cb004826b18df2da83c,,,,,,,decisionTrl,resources/DP.BMP,resources/DG.BMP,Door1,-0.179629644,-0.012962977,1,0,0,0.7958,optionLeft,30,6715,3,42,0,42,0,1,,,,,,,,,,,,,,,,,,,,,,,,,,,,,,,,,,,,,,,
,,,,,,,,2023-08-16_08h41.13.920,HF_wild_card,2022.2.4,Win32,59.99880002,5ca356cb72a23200160ce912,64d2fd46c836a06233681665,64dc7cb004826b18df2da83c,,,,,,,sngl,resources/Empty.png,resources/DY.BMP,Door3,0.175000014,-0.003703718,1,0,0,0.5758,optionRight,70,6785,3,43,0,43,0,1,,,,,,,,,,,,,,,,,,,,,,,,,,,,,,,,,,,,,,,
,,,,,,,,2023-08-16_08h41.13.920,HF_wild_card,2022.2.4,Win32,59.99880002,5ca356cb72a23200160ce912,64d2fd46c836a06233681665,64dc7cb004826b18df2da83c,,,,,,,,,,,,,,,,,,,,,,,,,,2,0,2,0,1,,,,,,,,,,,,,,,,,,,,,,,,,,,,,,,,,,
,,,,,,,,2023-08-16_08h41.13.920,HF_wild_card,2022.2.4,Win32,59.99880002,5ca356cb72a23200160ce912,64d2fd46c836a06233681665,64dc7cb004826b18df2da83c,,,,,,,decisionTrl,resources/DP.BMP,resources/DG.BMP,Door2,0.22129631,-0.034259266,1,0,0,1.7538,optionRight,40,6825,4,0,0,0,0,1,,,,,,,,,,,,,,,,,,,,,,,,,,,,,,,,,,,,,,,
,,,,,,,,2023-08-16_08h41.13.920,HF_wild_card,2022.2.4,Win32,59.99880002,5ca356cb72a23200160ce912,64d2fd46c836a06233681665,64dc7cb004826b18df2da83c,,,,,,,sngl,resources/DY.BMP,resources/Empty.png,Door3,-0.174074032,-0.005555577,1,0,0,0.5107,optionLeft,70,6895,4,1,0,1,0,1,,,,,,,,,,,,,,,,,,,,,,,,,,,,,,,,,,,,,,,
,,,,,,,,2023-08-16_08h41.13.920,HF_wild_card,2022.2.4,Win32,59.99880002,5ca356cb72a23200160ce912,64d2fd46c836a06233681665,64dc7cb004826b18df2da83c,,,,,,,decisionTrl,resources/DG.BMP,resources/DP.BMP,Door1,0.18240745,-0.037962984,1,0,0,0.8941,optionRight,30,6925,4,2,0,2,0,1,,,,,,,,,,,,,,,,,,,,,,,,,,,,,,,,,,,,,,,
,,,,,,,,2023-08-16_08h41.13.920,HF_wild_card,2022.2.4,Win32,59.99880002,5ca356cb72a23200160ce912,64d2fd46c836a06233681665,64dc7cb004826b18df2da83c,,,,,,,decisionTrl,resources/DG.BMP,resources/DP.BMP,Door2,-0.212962963,-0.032407407,1,0,0,0.5964,optionLeft,40,6965,4,3,0,3,0,1,,,,,,,,,,,,,,,,,,,,,,,,,,,,,,,,,,,,,,,
,,,,,,,,2023-08-16_08h41.13.920,HF_wild_card,2022.2.4,Win32,59.99880002,5ca356cb72a23200160ce912,64d2fd46c836a06233681665,64dc7cb004826b18df2da83c,,,,,,,decisionTrl,resources/DY.BMP,resources/DR.BMP,Door4,0.214814857,-0.038888896,1,0,0,0.6947,optionRight,80,7045,4,4,0,4,0,1,,,,,,,,,,,,,,,,,,,,,,,,,,,,,,,,,,,,,,,
,,,,,,,,2023-08-16_08h41.13.920,HF_wild_card,2022.2.4,Win32,59.99880002,5ca356cb72a23200160ce912,64d2fd46c836a06233681665,64dc7cb004826b18df2da83c,,,,,,,ctch,resources/DR.BMP,resources/DP.BMP,Door4,-0.19722218,-0.018518519,1,0,0,0.6449,optionLeft,80,7125,4,5,0,5,0,1,,,,,,,,,,,,,,,,,,,,,,,,,,,,,,,,,,,,,,,
,,,,,,,,2023-08-16_08h41.13.920,HF_wild_card,2022.2.4,Win32,59.99880002,5ca356cb72a23200160ce912,64d2fd46c836a06233681665,64dc7cb004826b18df2da83c,,,,,,,sngl,resources/DP.BMP,resources/Empty.png,Door1,-0.207407422,-0.050000014,1,0,0,0.5277,optionLeft,30,7155,4,6,0,6,0,1,,,,,,,,,,,,,,,,,,,,,,,,,,,,,,,,,,,,,,,
,,,,,,,,2023-08-16_08h41.13.920,HF_wild_card,2022.2.4,Win32,59.99880002,5ca356cb72a23200160ce912,64d2fd46c836a06233681665,64dc7cb004826b18df2da83c,,,,,,,decisionTrl,resources/DY.BMP,resources/DB.BMP,Door3,-0.14444443,-0.020370377,1,0,0,1.1287,optionLeft,70,7225,4,7,0,7,0,1,,,,,,,,,,,,,,,,,,,,,,,,,,,,,,,,,,,,,,,
,,,,,,,,2023-08-16_08h41.13.920,HF_wild_card,2022.2.4,Win32,59.99880002,5ca356cb72a23200160ce912,64d2fd46c836a06233681665,64dc7cb004826b18df2da83c,,,,,,,decisionTrl,resources/DG.BMP,resources/DP.BMP,Door1,0.227777764,0.002777771,1,0,0,0.7101,optionRight,30,7255,4,8,0,8,0,1,,,,,,,,,,,,,,,,,,,,,,,,,,,,,,,,,,,,,,,
,,,,,,,,2023-08-16_08h41.13.920,HF_wild_card,2022.2.4,Win32,59.99880002,5ca356cb72a23200160ce912,64d2fd46c836a06233681665,64dc7cb004826b18df2da83c,,,,,,,ctch,resources/DP.BMP,resources/DR.BMP,Door1,-0.166666667,-0.01666666,1,0,0,1.1447,optionLeft,30,7285,4,9,0,9,0,1,,,,,,,,,,,,,,,,,,,,,,,,,,,,,,,,,,,,,,,
,,,,,,,,2023-08-16_08h41.13.920,HF_wild_card,2022.2.4,Win32,59.99880002,5ca356cb72a23200160ce912,64d2fd46c836a06233681665,64dc7cb004826b18df2da83c,,,,,,,decisionTrl,resources/DY.BMP,resources/DR.BMP,Door4,0.173148191,-0.036111125,1,0,0,0.6291,optionRight,80,7365,4,10,0,10,0,1,,,,,,,,,,,,,,,,,,,,,,,,,,,,,,,,,,,,,,,
,,,,,,,,2023-08-16_08h41.13.920,HF_wild_card,2022.2.4,Win32,59.99880002,5ca356cb72a23200160ce912,64d2fd46c836a06233681665,64dc7cb004826b18df2da83c,,,,,,,decisionTrl,resources/DB.BMP,resources/DG.BMP,WildCard_NonEx,-0.279629601,-0.038888896,1,0,0,0.9939,optionLeft,55,7420,4,11,0,11,0,1,,,,,,,,,,,,,,,,,,,,,,,,,,,,,,,,,,,,,,,
,,,,,,,,2023-08-16_08h41.13.920,HF_wild_card,2022.2.4,Win32,59.99880002,5ca356cb72a23200160ce912,64d2fd46c836a06233681665,64dc7cb004826b18df2da83c,,,,,,,sngl,resources/DR.BMP,resources/Empty.png,Door4,-0.175925926,-0.026851866,1,0,0,0.5782,optionLeft,60,7480,4,12,0,12,0,1,,,,,,,,,,,,,,,,,,,,,,,,,,,,,,,,,,,,,,,
,,,,,,,,2023-08-16_08h41.13.920,HF_wild_card,2022.2.4,Win32,59.99880002,5ca356cb72a23200160ce912,64d2fd46c836a06233681665,64dc7cb004826b18df2da83c,,,,,,,ctch,resources/DG.BMP,resources/DY.BMP,Door3,0.253703718,-0.001851859,1,0,0,0.6782,optionRight,70,7550,4,13,0,13,0,1,,,,,,,,,,,,,,,,,,,,,,,,,,,,,,,,,,,,,,,
,,,,,,,,2023-08-16_08h41.13.920,HF_wild_card,2022.2.4,Win32,59.99880002,5ca356cb72a23200160ce912,64d2fd46c836a06233681665,64dc7cb004826b18df2da83c,,,,,,,decisionTrl,resources/DR.BMP,resources/DY.BMP,Door4,-0.206481439,-0.010185206,1,0,0,0.6103,optionLeft,80,7630,4,14,0,14,0,1,,,,,,,,,,,,,,,,,,,,,,,,,,,,,,,,,,,,,,,
,,,,,,,,2023-08-16_08h41.13.920,HF_wild_card,2022.2.4,Win32,59.99880002,5ca356cb72a23200160ce912,64d2fd46c836a06233681665,64dc7cb004826b18df2da83c,,,,,,,decisionTrl,resources/DR.BMP,resources/DY.BMP,Door4,-0.194444444,-0.025000007,1,0,0,0.5621,optionLeft,80,7710,4,15,0,15,0,1,,,,,,,,,,,,,,,,,,,,,,,,,,,,,,,,,,,,,,,
,,,,,,,,2023-08-16_08h41.13.920,HF_wild_card,2022.2.4,Win32,59.99880002,5ca356cb72a23200160ce912,64d2fd46c836a06233681665,64dc7cb004826b18df2da83c,,,,,,,sngl,resources/Empty.png,resources/DP.BMP,Door1,0.305555556,-0.001851859,1,0,0,0.5773,optionRight,30,7740,4,16,0,16,0,1,,,,,,,,,,,,,,,,,,,,,,,,,,,,,,,,,,,,,,,
,,,,,,,,2023-08-16_08h41.13.920,HF_wild_card,2022.2.4,Win32,59.99880002,5ca356cb72a23200160ce912,64d2fd46c836a06233681665,64dc7cb004826b18df2da83c,,,,,,,decisionTrl,resources/DR.BMP,resources/DY.BMP,Door4,-0.194444444,-0.015740748,1,0,0,0.5776,optionLeft,80,7820,4,17,0,17,0,1,,,,,,,,,,,,,,,,,,,,,,,,,,,,,,,,,,,,,,,
,,,,,,,,2023-08-16_08h41.13.920,HF_wild_card,2022.2.4,Win32,59.99880002,5ca356cb72a23200160ce912,64d2fd46c836a06233681665,64dc7cb004826b18df2da83c,,,,,,,sngl,resources/Empty.png,resources/DG.BMP,Door2,0.212962963,0.002777771,1,0,0,0.6937,optionRight,40,7860,4,18,0,18,0,1,,,,,,,,,,,,,,,,,,,,,,,,,,,,,,,,,,,,,,,
,,,,,,,,2023-08-16_08h41.13.920,HF_wild_card,2022.2.4,Win32,59.99880002,5ca356cb72a23200160ce912,64d2fd46c836a06233681665,64dc7cb004826b18df2da83c,,,,,,,decisionTrl,resources/DB.BMP,resources/DP.BMP,WildCard_NonEx,-0.161111125,-0.013888889,1,0,0,0.7439,optionLeft,45,7905,4,19,0,19,0,1,,,,,,,,,,,,,,,,,,,,,,,,,,,,,,,,,,,,,,,
,,,,,,,,2023-08-16_08h41.13.920,HF_wild_card,2022.2.4,Win32,59.99880002,5ca356cb72a23200160ce912,64d2fd46c836a06233681665,64dc7cb004826b18df2da83c,,,,,,,decisionTrl,resources/DG.BMP,resources/DB.BMP,WildCard_NonEx,0.187962991,-0.00462963,1,0,0,0.6945,optionRight,45,7950,4,20,0,20,0,1,,,,,,,,,,,,,,,,,,,,,,,,,,,,,,,,,,,,,,,
,,,,,,,,2023-08-16_08h41.13.920,HF_wild_card,2022.2.4,Win32,59.99880002,5ca356cb72a23200160ce912,64d2fd46c836a06233681665,64dc7cb004826b18df2da83c,,,,,,,sngl,resources/DB.BMP,resources/Empty.png,WildCard_NonEx,-0.184259273,-0.01203703,1,0,0,0.5617,optionLeft,45,7995,4,21,0,21,0,1,,,,,,,,,,,,,,,,,,,,,,,,,,,,,,,,,,,,,,,
,,,,,,,,2023-08-16_08h41.13.920,HF_wild_card,2022.2.4,Win32,59.99880002,5ca356cb72a23200160ce912,64d2fd46c836a06233681665,64dc7cb004826b18df2da83c,,,,,,,sngl,resources/DB.BMP,resources/Empty.png,WildCard_NonEx,-0.172222208,-0.049074067,1,0,0,0.6447,optionLeft,55,8050,4,22,0,22,0,1,,,,,,,,,,,,,,,,,,,,,,,,,,,,,,,,,,,,,,,
,,,,,,,,2023-08-16_08h41.13.920,HF_wild_card,2022.2.4,Win32,59.99880002,5ca356cb72a23200160ce912,64d2fd46c836a06233681665,64dc7cb004826b18df2da83c,,,,,,,decisionTrl,resources/DR.BMP,resources/DY.BMP,Door4,-0.185185185,-0.018518519,1,0,0,1.2611,optionLeft,60,8110,4,23,0,23,0,1,,,,,,,,,,,,,,,,,,,,,,,,,,,,,,,,,,,,,,,
,,,,,,,,2023-08-16_08h41.13.920,HF_wild_card,2022.2.4,Win32,59.99880002,5ca356cb72a23200160ce912,64d2fd46c836a06233681665,64dc7cb004826b18df2da83c,,,,,,,sngl,resources/Empty.png,resources/DR.BMP,Door4,0.253703718,-0.009259259,1,0,0,0.5778,optionRight,80,8190,4,24,0,24,0,1,,,,,,,,,,,,,,,,,,,,,,,,,,,,,,,,,,,,,,,
,,,,,,,,2023-08-16_08h41.13.920,HF_wild_card,2022.2.4,Win32,59.99880002,5ca356cb72a23200160ce912,64d2fd46c836a06233681665,64dc7cb004826b18df2da83c,,,,,,,decisionTrl,resources/DY.BMP,resources/DR.BMP,Door4,0.223148134,0.022222201,1,0,0,0.9277,optionRight,60,8250,4,25,0,25,0,1,,,,,,,,,,,,,,,,,,,,,,,,,,,,,,,,,,,,,,,
,,,,,,,,2023-08-16_08h41.13.920,HF_wild_card,2022.2.4,Win32,59.99880002,5ca356cb72a23200160ce912,64d2fd46c836a06233681665,64dc7cb004826b18df2da83c,,,,,,,ctch,resources/DP.BMP,resources/DR.BMP,Door4,0.195370356,0.032407407,1,0,0,0.7446,optionRight,60,8310,4,26,0,26,0,1,,,,,,,,,,,,,,,,,,,,,,,,,,,,,,,,,,,,,,,
,,,,,,,,2023-08-16_08h41.13.920,HF_wild_card,2022.2.4,Win32,59.99880002,5ca356cb72a23200160ce912,64d2fd46c836a06233681665,64dc7cb004826b18df2da83c,,,,,,,ctch,resources/DR.BMP,resources/DP.BMP,Door4,-0.189814815,-0.032407407,1,0,0,0.5454,optionLeft,60,8370,4,27,0,27,0,1,,,,,,,,,,,,,,,,,,,,,,,,,,,,,,,,,,,,,,,
,,,,,,,,2023-08-16_08h41.13.920,HF_wild_card,2022.2.4,Win32,59.99880002,5ca356cb72a23200160ce912,64d2fd46c836a06233681665,64dc7cb004826b18df2da83c,,,,,,,sngl,resources/Empty.png,resources/DB.BMP,WildCard_NonEx,0.264814801,-0.045370384,1,0,0,0.6111,optionRight,45,8415,4,28,0,28,0,1,,,,,,,,,,,,,,,,,,,,,,,,,,,,,,,,,,,,,,,
,,,,,,,,2023-08-16_08h41.13.920,HF_wild_card,2022.2.4,Win32,59.99880002,5ca356cb72a23200160ce912,64d2fd46c836a06233681665,64dc7cb004826b18df2da83c,,,,,,,ctch,resources/DY.BMP,resources/DG.BMP,Door3,-0.137962977,0.013888889,1,0,0,2.5138,optionLeft,70,8485,4,29,0,29,0,1,,,,,,,,,,,,,,,,,,,,,,,,,,,,,,,,,,,,,,,
,,,,,,,,2023-08-16_08h41.13.920,HF_wild_card,2022.2.4,Win32,59.99880002,5ca356cb72a23200160ce912,64d2fd46c836a06233681665,64dc7cb004826b18df2da83c,,,,,,,decisionTrl,resources/DP.BMP,resources/DG.BMP,Door1,-0.158333319,-0.028703725,1,0,0,0.9943,optionLeft,30,8515,4,30,0,30,0,1,,,,,,,,,,,,,,,,,,,,,,,,,,,,,,,,,,,,,,,
,,,,,,,,2023-08-16_08h41.13.920,HF_wild_card,2022.2.4,Win32,59.99880002,5ca356cb72a23200160ce912,64d2fd46c836a06233681665,64dc7cb004826b18df2da83c,,,,,,,ctch,resources/DG.BMP,resources/DY.BMP,Door3,0.273148148,-0.006481489,1,0,0,1.0778,optionRight,70,8585,4,31,0,31,0,1,,,,,,,,,,,,,,,,,,,,,,,,,,,,,,,,,,,,,,,
,,,,,,,,2023-08-16_08h41.13.920,HF_wild_card,2022.2.4,Win32,59.99880002,5ca356cb72a23200160ce912,64d2fd46c836a06233681665,64dc7cb004826b18df2da83c,,,,,,,sngl,resources/Empty.png,resources/DY.BMP,Door3,0.287962949,0.015740748,1,0,0,0.5275,optionRight,70,8655,4,32,0,32,0,1,,,,,,,,,,,,,,,,,,,,,,,,,,,,,,,,,,,,,,,
,,,,,,,,2023-08-16_08h41.13.920,HF_wild_card,2022.2.4,Win32,59.99880002,5ca356cb72a23200160ce912,64d2fd46c836a06233681665,64dc7cb004826b18df2da83c,,,,,,,decisionTrl,resources/DP.BMP,resources/DB.BMP,WildCard_NonEx,0.241666653,-0.014814836,1,0,0,1.327,optionRight,55,8710,4,33,0,33,0,1,,,,,,,,,,,,,,,,,,,,,,,,,,,,,,,,,,,,,,,
,,,,,,,,2023-08-16_08h41.13.920,HF_wild_card,2022.2.4,Win32,59.99880002,5ca356cb72a23200160ce912,64d2fd46c836a06233681665,64dc7cb004826b18df2da83c,,,,,,,decisionTrl,resources/DP.BMP,resources/DG.BMP,Door1,-0.170370384,-0.012962977,1,0,0,0.8264,optionLeft,30,8740,4,34,0,34,0,1,,,,,,,,,,,,,,,,,,,,,,,,,,,,,,,,,,,,,,,
,,,,,,,,2023-08-16_08h41.13.920,HF_wild_card,2022.2.4,Win32,59.99880002,5ca356cb72a23200160ce912,64d2fd46c836a06233681665,64dc7cb004826b18df2da83c,,,,,,,sngl,resources/DG.BMP,resources/Empty.png,Door2,-0.148148148,-0.006481489,1,0,0,0.6436,optionLeft,20,8760,4,35,0,35,0,1,,,,,,,,,,,,,,,,,,,,,,,,,,,,,,,,,,,,,,,
,,,,,,,,2023-08-16_08h41.13.920,HF_wild_card,2022.2.4,Win32,59.99880002,5ca356cb72a23200160ce912,64d2fd46c836a06233681665,64dc7cb004826b18df2da83c,,,,,,,decisionTrl,resources/DG.BMP,resources/DP.BMP,Door1,0.246296282,-0.060185185,1,0,0,0.9005,optionRight,30,8790,4,36,0,36,0,1,,,,,,,,,,,,,,,,,,,,,,,,,,,,,,,,,,,,,,,
,,,,,,,,2023-08-16_08h41.13.920,HF_wild_card,2022.2.4,Win32,59.99880002,5ca356cb72a23200160ce912,64d2fd46c836a06233681665,64dc7cb004826b18df2da83c,,,,,,,decisionTrl,resources/DY.BMP,resources/DR.BMP,Door4,0.148148148,-0.017592607,1,0,0,0.8895,optionRight,80,8870,4,37,0,37,0,1,,,,,,,,,,,,,,,,,,,,,,,,,,,,,,,,,,,,,,,
,,,,,,,,2023-08-16_08h41.13.920,HF_wild_card,2022.2.4,Win32,59.99880002,5ca356cb72a23200160ce912,64d2fd46c836a06233681665,64dc7cb004826b18df2da83c,,,,,,,decisionTrl,resources/DP.BMP,resources/DG.BMP,Door2,0.189814815,0.029629637,1,0,0,1.6772,optionRight,20,8890,4,38,0,38,0,1,,,,,,,,,,,,,,,,,,,,,,,,,,,,,,,,,,,,,,,
,,,,,,,,2023-08-16_08h41.13.920,HF_wild_card,2022.2.4,Win32,59.99880002,5ca356cb72a23200160ce912,64d2fd46c836a06233681665,64dc7cb004826b18df2da83c,,,,,,,decisionTrl,resources/DB.BMP,resources/DR.BMP,WildCard_NonEx,-0.199999986,-0.037962984,1,0,0,0.798,optionLeft,55,8945,4,39,0,39,0,1,,,,,,,,,,,,,,,,,,,,,,,,,,,,,,,,,,,,,,,
,,,,,,,,2023-08-16_08h41.13.920,HF_wild_card,2022.2.4,Win32,59.99880002,5ca356cb72a23200160ce912,64d2fd46c836a06233681665,64dc7cb004826b18df2da83c,,,,,,,sngl,resources/Empty.png,resources/DB.BMP,WildCard_NonEx,0.248148176,-0.037037037,1,0,0,0.777,optionRight,55,9000,4,40,0,40,0,1,,,,,,,,,,,,,,,,,,,,,,,,,,,,,,,,,,,,,,,
,,,,,,,,2023-08-16_08h41.13.920,HF_wild_card,2022.2.4,Win32,59.99880002,5ca356cb72a23200160ce912,64d2fd46c836a06233681665,64dc7cb004826b18df2da83c,,,,,,,decisionTrl,resources/DR.BMP,resources/DB.BMP,Door4,-0.202777792,-0.025000007,1,0,0,0.6722,optionLeft,60,9060,4,41,0,41,0,1,,,,,,,,,,,,,,,,,,,,,,,,,,,,,,,,,,,,,,,
,,,,,,,,2023-08-16_08h41.13.920,HF_wild_card,2022.2.4,Win32,59.99880002,5ca356cb72a23200160ce912,64d2fd46c836a06233681665,64dc7cb004826b18df2da83c,,,,,,,decisionTrl,resources/DB.BMP,resources/DY.BMP,Door3,0.243518547,-0.042592614,1,0,0,0.6897,optionRight,70,9130,4,42,0,42,0,1,,,,,,,,,,,,,,,,,,,,,,,,,,,,,,,,,,,,,,,
,,,,,,,,2023-08-16_08h41.13.920,HF_wild_card,2022.2.4,Win32,59.99880002,5ca356cb72a23200160ce912,64d2fd46c836a06233681665,64dc7cb004826b18df2da83c,,,,,,,ctch,resources/DY.BMP,resources/DG.BMP,Door3,-0.174074032,-0.005555577,1,0,0,0.6792,optionLeft,70,9200,4,43,0,43,0,1,,,,,,,,,,,,,,,,,,,,,,,,,,,,,,,,,,,,,,,
,,,,,,,,2023-08-16_08h41.13.920,HF_wild_card,2022.2.4,Win32,59.99880002,5ca356cb72a23200160ce912,64d2fd46c836a06233681665,64dc7cb004826b18df2da83c,,,,,,,,,,,,,,,,,,,,,,,,,,3,0,3,0,1,,,,,,,,,,,,,,,,,,,,,,,,,,,,,,,,,,
,,,,,,,,2023-08-16_08h41.13.920,HF_wild_card,2022.2.4,Win32,59.99880002,5ca356cb72a23200160ce912,64d2fd46c836a06233681665,64dc7cb004826b18df2da83c,,,,,,,decisionTrl,resources/DP.BMP,resources/DG.BMP,Door2,0.192592621,-0.057407414,1,0,0,1.2694,optionRight,40,9240,5,0,0,0,0,1,,,,,,,,,,,,,,,,,,,,,,,,,,,,,,,,,,,,,,,
,,,,,,,,2023-08-16_08h41.13.920,HF_wild_card,2022.2.4,Win32,59.99880002,5ca356cb72a23200160ce912,64d2fd46c836a06233681665,64dc7cb004826b18df2da83c,,,,,,,ctch,resources/DG.BMP,resources/DY.BMP,Door3,0.167592578,-0.026851866,1,0,0,0.7849,optionRight,70,9310,5,1,0,1,0,1,,,,,,,,,,,,,,,,,,,,,,,,,,,,,,,,,,,,,,,
,,,,,,,,2023-08-16_08h41.13.920,HF_wild_card,2022.2.4,Win32,59.99880002,5ca356cb72a23200160ce912,64d2fd46c836a06233681665,64dc7cb004826b18df2da83c,,,,,,,ctch,resources/DP.BMP,resources/DR.BMP,Door4,0.150925954,-0.00462963,1,0,0,0.611,optionRight,60,9370,5,2,0,2,0,1,,,,,,,,,,,,,,,,,,,,,,,,,,,,,,,,,,,,,,,
,,,,,,,,2023-08-16_08h41.13.920,HF_wild_card,2022.2.4,Win32,59.99880002,5ca356cb72a23200160ce912,64d2fd46c836a06233681665,64dc7cb004826b18df2da83c,,,,,,,decisionTrl,resources/DP.BMP,resources/DG.BMP,Door1,-0.201851809,-0.031481496,1,0,0,0.5953,optionLeft,30,9400,5,3,0,3,0,1,,,,,,,,,,,,,,,,,,,,,,,,,,,,,,,,,,,,,,,
,,,,,,,,2023-08-16_08h41.13.920,HF_wild_card,2022.2.4,Win32,59.99880002,5ca356cb72a23200160ce912,64d2fd46c836a06233681665,64dc7cb004826b18df2da83c,,,,,,,sngl,resources/Empty.png,resources/DG.BMP,Door2,0.172222208,-0.027777778,1,0,0,0.7677,optionRight,20,9420,5,4,0,4,0,1,,,,,,,,,,,,,,,,,,,,,,,,,,,,,,,,,,,,,,,
,,,,,,,,2023-08-16_08h41.13.920,HF_wild_card,2022.2.4,Win32,59.99880002,5ca356cb72a23200160ce912,64d2fd46c836a06233681665,64dc7cb004826b18df2da83c,,,,,,,decisionTrl,resources/DR.BMP,resources/DB.BMP,Door4,-0.204629616,-0.039814808,1,0,0,1.0435,optionLeft,60,9480,5,5,0,5,0,1,,,,,,,,,,,,,,,,,,,,,,,,,,,,,,,,,,,,,,,
,,,,,,,,2023-08-16_08h41.13.920,HF_wild_card,2022.2.4,Win32,59.99880002,5ca356cb72a23200160ce912,64d2fd46c836a06233681665,64dc7cb004826b18df2da83c,,,,,,,sngl,resources/DP.BMP,resources/Empty.png,Door1,-0.239814829,-0.072222215,1,0,0,0.5999,optionLeft,30,9510,5,6,0,6,0,1,,,,,,,,,,,,,,,,,,,,,,,,,,,,,,,,,,,,,,,
,,,,,,,,2023-08-16_08h41.13.920,HF_wild_card,2022.2.4,Win32,59.99880002,5ca356cb72a23200160ce912,64d2fd46c836a06233681665,64dc7cb004826b18df2da83c,,,,,,,sngl,resources/Empty.png,resources/DP.BMP,Door1,0.159259302,0.002777771,1,0,0,0.8939,optionRight,30,9540,5,7,0,7,0,1,,,,,,,,,,,,,,,,,,,,,,,,,,,,,,,,,,,,,,,
,,,,,,,,2023-08-16_08h41.13.920,HF_wild_card,2022.2.4,Win32,59.99880002,5ca356cb72a23200160ce912,64d2fd46c836a06233681665,64dc7cb004826b18df2da83c,,,,,,,decisionTrl,resources/DG.BMP,resources/DP.BMP,Door1,0.147222236,-0.011111118,1,0,0,1.8941,optionRight,30,9570,5,8,0,8,0,1,,,,,,,,,,,,,,,,,,,,,,,,,,,,,,,,,,,,,,,
,,,,,,,,2023-08-16_08h41.13.920,HF_wild_card,2022.2.4,Win32,59.99880002,5ca356cb72a23200160ce912,64d2fd46c836a06233681665,64dc7cb004826b18df2da83c,,,,,,,sngl,resources/Empty.png,resources/DR.BMP,Door4,0.258333347,0.015740748,1,0,0,0.5774,optionRight,60,9630,5,9,0,9,0,1,,,,,,,,,,,,,,,,,,,,,,,,,,,,,,,,,,,,,,,
,,,,,,,,2023-08-16_08h41.13.920,HF_wild_card,2022.2.4,Win32,59.99880002,5ca356cb72a23200160ce912,64d2fd46c836a06233681665,64dc7cb004826b18df2da83c,,,,,,,decisionTrl,resources/DR.BMP,resources/DY.BMP,Door3,0.224074116,-0.017592607,1,0,0,0.6344,optionRight,70,9700,5,10,0,10,0,1,,,,,,,,,,,,,,,,,,,,,,,,,,,,,,,,,,,,,,,
,,,,,,,,2023-08-16_08h41.13.920,HF_wild_card,2022.2.4,Win32,59.99880002,5ca356cb72a23200160ce912,64d2fd46c836a06233681665,64dc7cb004826b18df2da83c,,,,,,,decisionTrl,resources/DY.BMP,resources/DR.BMP,Door4,0.14444443,0.001851859,1,0,0,0.5925,optionRight,60,9760,5,11,0,11,0,1,,,,,,,,,,,,,,,,,,,,,,,,,,,,,,,,,,,,,,,
,,,,,,,,2023-08-16_08h41.13.920,HF_wild_card,2022.2.4,Win32,59.99880002,5ca356cb72a23200160ce912,64d2fd46c836a06233681665,64dc7cb004826b18df2da83c,,,,,,,sngl,resources/DY.BMP,resources/Empty.png,Door3,-0.19259255,-0.01203703,1,0,0,0.5112,optionLeft,70,9830,5,12,0,12,0,1,,,,,,,,,,,,,,,,,,,,,,,,,,,,,,,,,,,,,,,
,,,,,,,,2023-08-16_08h41.13.920,HF_wild_card,2022.2.4,Win32,59.99880002,5ca356cb72a23200160ce912,64d2fd46c836a06233681665,64dc7cb004826b18df2da83c,,,,,,,ctch,resources/DR.BMP,resources/DP.BMP,Door1,0.165740755,-0.015740748,1,0,0,0.5447,optionRight,30,9860,5,13,0,13,0,1,,,,,,,,,,,,,,,,,,,,,,,,,,,,,,,,,,,,,,,
,,,,,,,,2023-08-16_08h41.13.920,HF_wild_card,2022.2.4,Win32,59.99880002,5ca356cb72a23200160ce912,64d2fd46c836a06233681665,64dc7cb004826b18df2da83c,,,,,,,decisionTrl,resources/DG.BMP,resources/DB.BMP,Door2,-0.252777735,-0.054629644,1,0,0,0.6276,optionLeft,20,9880,5,14,0,14,0,1,,,,,,,,,,,,,,,,,,,,,,,,,,,,,,,,,,,,,,,
,,,,,,,,2023-08-16_08h41.13.920,HF_wild_card,2022.2.4,Win32,59.99880002,5ca356cb72a23200160ce912,64d2fd46c836a06233681665,64dc7cb004826b18df2da83c,,,,,,,sngl,resources/DB.BMP,resources/Empty.png,WildCard_NonEx,-0.164814772,0.015740748,1,0,0,0.6779,optionLeft,55,9935,5,15,0,15,0,1,,,,,,,,,,,,,,,,,,,,,,,,,,,,,,,,,,,,,,,
,,,,,,,,2023-08-16_08h41.13.920,HF_wild_card,2022.2.4,Win32,59.99880002,5ca356cb72a23200160ce912,64d2fd46c836a06233681665,64dc7cb004826b18df2da83c,,,,,,,decisionTrl,resources/DR.BMP,resources/DY.BMP,Door4,-0.180555556,0.01203703,1,0,0,0.9787,optionLeft,60,9995,5,16,0,16,0,1,,,,,,,,,,,,,,,,,,,,,,,,,,,,,,,,,,,,,,,
,,,,,,,,2023-08-16_08h41.13.920,HF_wild_card,2022.2.4,Win32,59.99880002,5ca356cb72a23200160ce912,64d2fd46c836a06233681665,64dc7cb004826b18df2da83c,,,,,,,ctch,resources/DY.BMP,resources/DG.BMP,Door3,-0.161111125,-0.025925919,1,0,0,2.496,optionLeft,70,10065,5,17,0,17,0,1,,,,,,,,,,,,,,,,,,,,,,,,,,,,,,,,,,,,,,,
,,,,,,,,2023-08-16_08h41.13.920,HF_wild_card,2022.2.4,Win32,59.99880002,5ca356cb72a23200160ce912,64d2fd46c836a06233681665,64dc7cb004826b18df2da83c,,,,,,,sngl,resources/Empty.png,resources/DB.BMP,WildCard_NonEx,0.193518533,-0.029629637,1,0,0,0.6677,optionRight,45,10110,5,18,0,18,0,1,,,,,,,,,,,,,,,,,,,,,,,,,,,,,,,,,,,,,,,
,,,,,,,,2023-08-16_08h41.13.920,HF_wild_card,2022.2.4,Win32,59.99880002,5ca356cb72a23200160ce912,64d2fd46c836a06233681665,64dc7cb004826b18df2da83c,,,,,,,ctch,resources/DY.BMP,resources/DG.BMP,Door3,-0.217592593,-0.059259273,1,0,0,1.0609,optionLeft,70,10180,5,19,0,19,0,1,,,,,,,,,,,,,,,,,,,,,,,,,,,,,,,,,,,,,,,
,,,,,,,,2023-08-16_08h41.13.920,HF_wild_card,2022.2.4,Win32,59.99880002,5ca356cb72a23200160ce912,64d2fd46c836a06233681665,64dc7cb004826b18df2da83c,,,,,,,ctch,resources/DG.BMP,resources/DY.BMP,Door3,0.160185213,0.01666666,1,0,0,2.153,optionRight,70,10250,5,20,0,20,0,1,,,,,,,,,,,,,,,,,,,,,,,,,,,,,,,,,,,,,,,
,,,,,,,,2023-08-16_08h41.13.920,HF_wild_card,2022.2.4,Win32,59.99880002,5ca356cb72a23200160ce912,64d2fd46c836a06233681665,64dc7cb004826b18df2da83c,,,,,,,sngl,resources/Empty.png,resources/DY.BMP,Door3,0.211111139,-0.032407407,1,0,0,0.6457,optionRight,70,10320,5,21,0,21,0,1,,,,,,,,,,,,,,,,,,,,,,,,,,,,,,,,,,,,,,,
,,,,,,,,2023-08-16_08h41.13.920,HF_wild_card,2022.2.4,Win32,59.99880002,5ca356cb72a23200160ce912,64d2fd46c836a06233681665,64dc7cb004826b18df2da83c,,,,,,,decisionTrl,resources/DY.BMP,resources/DR.BMP,Door4,0.178703732,-0.005555577,1,0,0,0.9661,optionRight,60,10380,5,22,0,22,0,1,,,,,,,,,,,,,,,,,,,,,,,,,,,,,,,,,,,,,,,
,,,,,,,,2023-08-16_08h41.13.920,HF_wild_card,2022.2.4,Win32,59.99880002,5ca356cb72a23200160ce912,64d2fd46c836a06233681665,64dc7cb004826b18df2da83c,,,,,,,decisionTrl,resources/DB.BMP,resources/DG.BMP,WildCard_NonEx,-0.19259255,-0.064814815,1,0,0,2.7151,optionLeft,45,10425,5,23,0,23,0,1,,,,,,,,,,,,,,,,,,,,,,,,,,,,,,,,,,,,,,,
,,,,,,,,2023-08-16_08h41.13.920,HF_wild_card,2022.2.4,Win32,59.99880002,5ca356cb72a23200160ce912,64d2fd46c836a06233681665,64dc7cb004826b18df2da83c,,,,,,,sngl,resources/DR.BMP,resources/Empty.png,Door4,-0.141666624,-0.019444466,1,0,0,0.6119,optionLeft,80,10505,5,24,0,24,0,1,,,,,,,,,,,,,,,,,,,,,,,,,,,,,,,,,,,,,,,
,,,,,,,,2023-08-16_08h41.13.920,HF_wild_card,2022.2.4,Win32,59.99880002,5ca356cb72a23200160ce912,64d2fd46c836a06233681665,64dc7cb004826b18df2da83c,,,,,,,decisionTrl,resources/DY.BMP,resources/DB.BMP,Door3,-0.130555541,-0.026851866,1,0,0,0.6444,optionLeft,70,10575,5,25,0,25,0,1,,,,,,,,,,,,,,,,,,,,,,,,,,,,,,,,,,,,,,,
,,,,,,,,2023-08-16_08h41.13.920,HF_wild_card,2022.2.4,Win32,59.99880002,5ca356cb72a23200160ce912,64d2fd46c836a06233681665,64dc7cb004826b18df2da83c,,,,,,,decisionTrl,resources/DY.BMP,resources/DR.BMP,Door4,0.20648151,-0.01203703,1,0,0,0.9112,optionRight,80,10655,5,26,0,26,0,1,,,,,,,,,,,,,,,,,,,,,,,,,,,,,,,,,,,,,,,
,,,,,,,,2023-08-16_08h41.13.920,HF_wild_card,2022.2.4,Win32,59.99880002,5ca356cb72a23200160ce912,64d2fd46c836a06233681665,64dc7cb004826b18df2da83c,,,,,,,ctch,resources/DR.BMP,resources/DP.BMP,Door4,-0.208333333,-0.026851866,1,0,0,0.5562,optionLeft,60,10715,5,27,0,27,0,1,,,,,,,,,,,,,,,,,,,,,,,,,,,,,,,,,,,,,,,
,,,,,,,,2023-08-16_08h41.13.920,HF_wild_card,2022.2.4,Win32,59.99880002,5ca356cb72a23200160ce912,64d2fd46c836a06233681665,64dc7cb004826b18df2da83c,,,,,,,sngl,resources/Empty.png,resources/DB.BMP,WildCard_NonEx,0.147222236,-0.01666666,1,0,0,0.6292,optionRight,55,10770,5,28,0,28,0,1,,,,,,,,,,,,,,,,,,,,,,,,,,,,,,,,,,,,,,,
,,,,,,,,2023-08-16_08h41.13.920,HF_wild_card,2022.2.4,Win32,59.99880002,5ca356cb72a23200160ce912,64d2fd46c836a06233681665,64dc7cb004826b18df2da83c,,,,,,,sngl,resources/DB.BMP,resources/Empty.png,WildCard_NonEx,-0.151851866,-0.030555548,1,0,0,2.8378,optionLeft,45,10815,5,29,0,29,0,1,,,,,,,,,,,,,,,,,,,,,,,,,,,,,,,,,,,,,,,
,,,,,,,,2023-08-16_08h41.13.920,HF_wild_card,2022.2.4,Win32,59.99880002,5ca356cb72a23200160ce912,64d2fd46c836a06233681665,64dc7cb004826b18df2da83c,,,,,,,decisionTrl,resources/DB.BMP,resources/DP.BMP,WildCard_NonEx,-0.232407393,-0.027777778,1,0,0,2.4539,optionLeft,45,10860,5,30,0,30,0,1,,,,,,,,,,,,,,,,,,,,,,,,,,,,,,,,,,,,,,,
,,,,,,,,2023-08-16_08h41.13.920,HF_wild_card,2022.2.4,Win32,59.99880002,5ca356cb72a23200160ce912,64d2fd46c836a06233681665,64dc7cb004826b18df2da83c,,,,,,,decisionTrl,resources/DB.BMP,resources/DY.BMP,Door3,0.215740769,-0.00462963,1,0,0,0.8953,optionRight,70,10930,5,31,0,31,0,1,,,,,,,,,,,,,,,,,,,,,,,,,,,,,,,,,,,,,,,
,,,,,,,,2023-08-16_08h41.13.920,HF_wild_card,2022.2.4,Win32,59.99880002,5ca356cb72a23200160ce912,64d2fd46c836a06233681665,64dc7cb004826b18df2da83c,,,,,,,sngl,resources/DG.BMP,resources/Empty.png,Door2,-0.152777778,-0.074074074,1,0,0,0.7237,optionLeft,40,10970,5,32,0,32,0,1,,,,,,,,,,,,,,,,,,,,,,,,,,,,,,,,,,,,,,,
,,,,,,,,2023-08-16_08h41.13.920,HF_wild_card,2022.2.4,Win32,59.99880002,5ca356cb72a23200160ce912,64d2fd46c836a06233681665,64dc7cb004826b18df2da83c,,,,,,,decisionTrl,resources/DR.BMP,resources/DY.BMP,Door4,-0.19259255,-0.065740762,1,0,0,1.2603,optionLeft,60,11030,5,33,0,33,0,1,,,,,,,,,,,,,,,,,,,,,,,,,,,,,,,,,,,,,,,
,,,,,,,,2023-08-16_08h41.13.920,HF_wild_card,2022.2.4,Win32,59.99880002,5ca356cb72a23200160ce912,64d2fd46c836a06233681665,64dc7cb004826b18df2da83c,,,,,,,ctch,resources/DP.BMP,resources/DR.BMP,Door4,0.190740727,-0.030555548,1,0,0,0.7117,optionRight,60,11090,5,34,0,34,0,1,,,,,,,,,,,,,,,,,,,,,,,,,,,,,,,,,,,,,,,
,,,,,,,,2023-08-16_08h41.13.920,HF_wild_card,2022.2.4,Win32,59.99880002,5ca356cb72a23200160ce912,64d2fd46c836a06233681665,64dc7cb004826b18df2da83c,,,,,,,decisionTrl,resources/DP.BMP,resources/DG.BMP,Door1,-0.189814815,-0.073148162,1,0,0,1.2111,optionLeft,30,11120,5,35,0,35,0,1,,,,,,,,,,,,,,,,,,,,,,,,,,,,,,,,,,,,,,,
,,,,,,,,2023-08-16_08h41.13.920,HF_wild_card,2022.2.4,Win32,59.99880002,5ca356cb72a23200160ce912,64d2fd46c836a06233681665,64dc7cb004826b18df2da83c,,,,,,,decisionTrl,resources/DP.BMP,resources/DB.BMP,WildCard_NonEx,0.250925912,-0.018518519,1,0,0,0.9783,optionRight,45,11165,5,36,0,36,0,1,,,,,,,,,,,,,,,,,,,,,,,,,,,,,,,,,,,,,,,
,,,,,,,,2023-08-16_08h41.13.920,HF_wild_card,2022.2.4,Win32,59.99880002,5ca356cb72a23200160ce912,64d2fd46c836a06233681665,64dc7cb004826b18df2da83c,,,,,,,decisionTrl,resources/DB.BMP,resources/DR.BMP,Door4,0.23055557,-0.035185178,1,0,0,0.7109,optionRight,80,11245,5,37,0,37,0,1,,,,,,,,,,,,,,,,,,,,,,,,,,,,,,,,,,,,,,,
,,,,,,,,2023-08-16_08h41.13.920,HF_wild_card,2022.2.4,Win32,59.99880002,5ca356cb72a23200160ce912,64d2fd46c836a06233681665,64dc7cb004826b18df2da83c,,,,,,,decisionTrl,resources/DR.BMP,resources/DY.BMP,Door4,-0.250925912,-0.027777778,1,0,0,0.9461,optionLeft,80,11325,5,38,0,38,0,1,,,,,,,,,,,,,,,,,,,,,,,,,,,,,,,,,,,,,,,
,,,,,,,,2023-08-16_08h41.13.920,HF_wild_card,2022.2.4,Win32,59.99880002,5ca356cb72a23200160ce912,64d2fd46c836a06233681665,64dc7cb004826b18df2da83c,,,,,,,decisionTrl,resources/DP.BMP,resources/DG.BMP,Door1,-0.287037037,-0.061111132,1,0,0,1.1272,optionLeft,30,11355,5,39,0,39,0,1,,,,,,,,,,,,,,,,,,,,,,,,,,,,,,,,,,,,,,,
,,,,,,,,2023-08-16_08h41.13.920,HF_wild_card,2022.2.4,Win32,59.99880002,5ca356cb72a23200160ce912,64d2fd46c836a06233681665,64dc7cb004826b18df2da83c,,,,,,,decisionTrl,resources/DY.BMP,resources/DR.BMP,Door3,-0.214814787,-0.073148162,1,0,0,0.6778,optionLeft,70,11425,5,40,0,40,0,1,,,,,,,,,,,,,,,,,,,,,,,,,,,,,,,,,,,,,,,
,,,,,,,,2023-08-16_08h41.13.920,HF_wild_card,2022.2.4,Win32,59.99880002,5ca356cb72a23200160ce912,64d2fd46c836a06233681665,64dc7cb004826b18df2da83c,,,,,,,decisionTrl,resources/DG.BMP,resources/DP.BMP,Door1,0.241666653,-0.050925926,1,0,0,1.1777,optionRight,30,11455,5,41,0,41,0,1,,,,,,,,,,,,,,,,,,,,,,,,,,,,,,,,,,,,,,,
,,,,,,,,2023-08-16_08h41.13.920,HF_wild_card,2022.2.4,Win32,59.99880002,5ca356cb72a23200160ce912,64d2fd46c836a06233681665,64dc7cb004826b18df2da83c,,,,,,,decisionTrl,resources/DG.BMP,resources/DP.BMP,Door1,0.218518504,-0.01666666,1,0,0,1.0945,optionRight,30,11485,5,42,0,42,0,1,,,,,,,,,,,,,,,,,,,,,,,,,,,,,,,,,,,,,,,
,,,,,,,,2023-08-16_08h41.13.920,HF_wild_card,2022.2.4,Win32,59.99880002,5ca356cb72a23200160ce912,64d2fd46c836a06233681665,64dc7cb004826b18df2da83c,,,,,,,decisionTrl,resources/DG.BMP,resources/DP.BMP,Door1,0.204629616,-0.041666667,1,0,0,0.7787,optionRight,30,11515,5,43,0,43,0,1,,,,,,,,,,,,,,,,,,,,,,,,,,,,,,,,,,,,,,,
,,,,,,,,2023-08-16_08h41.13.920,HF_wild_card,2022.2.4,Win32,59.99880002,5ca356cb72a23200160ce912,64d2fd46c836a06233681665,64dc7cb004826b18df2da83c,,,,,,,,,,,,,,,,,,,,,,,,,,4,0,4,0,1,,,,,,,,,,,,,,,,,,,,,,,,,,,,,,,,,,
,,,,,,,,2023-08-16_08h41.13.920,HF_wild_card,2022.2.4,Win32,59.99880002,5ca356cb72a23200160ce912,64d2fd46c836a06233681665,64dc7cb004826b18df2da83c,,,,,,,sngl,resources/Empty.png,resources/DB.BMP,WildCard_NonEx,0.300000085,-0.158333319,1,0,0,1.4735,optionRight,55,11570,6,0,0,0,0,1,,,,,,,,,,,,,,,,,,,,,,,,,,,,,,,,,,,,,,,
,,,,,,,,2023-08-16_08h41.13.920,HF_wild_card,2022.2.4,Win32,59.99880002,5ca356cb72a23200160ce912,64d2fd46c836a06233681665,64dc7cb004826b18df2da83c,,,,,,,decisionTrl,resources/DY.BMP,resources/DR.BMP,Door4,0.192592621,-0.116666653,1,0,0,0.9595,optionRight,80,11650,6,1,0,1,0,1,,,,,,,,,,,,,,,,,,,,,,,,,,,,,,,,,,,,,,,
,,,,,,,,2023-08-16_08h41.13.920,HF_wild_card,2022.2.4,Win32,59.99880002,5ca356cb72a23200160ce912,64d2fd46c836a06233681665,64dc7cb004826b18df2da83c,,,,,,,ctch,resources/DY.BMP,resources/DG.BMP,Door3,-0.202777792,-0.025925919,1,0,0,1.3109,optionLeft,70,11720,6,2,0,2,0,1,,,,,,,,,,,,,,,,,,,,,,,,,,,,,,,,,,,,,,,
,,,,,,,,2023-08-16_08h41.13.920,HF_wild_card,2022.2.4,Win32,59.99880002,5ca356cb72a23200160ce912,64d2fd46c836a06233681665,64dc7cb004826b18df2da83c,,,,,,,decisionTrl,resources/DR.BMP,resources/DY.BMP,Door4,-0.273148148,-0.024074095,1,0,0,1.1606,optionLeft,60,11780,6,3,0,3,0,1,,,,,,,,,,,,,,,,,,,,,,,,,,,,,,,,,,,,,,,
,,,,,,,,2023-08-16_08h41.13.920,HF_wild_card,2022.2.4,Win32,59.99880002,5ca356cb72a23200160ce912,64d2fd46c836a06233681665,64dc7cb004826b18df2da83c,,,,,,,decisionTrl,resources/DB.BMP,resources/DG.BMP,WildCard_NonEx,-0.260185171,-0.093518504,1,0,0,1.4603,optionLeft,55,11835,6,4,0,4,0,1,,,,,,,,,,,,,,,,,,,,,,,,,,,,,,,,,,,,,,,
,,,,,,,,2023-08-16_08h41.13.920,HF_wild_card,2022.2.4,Win32,59.99880002,5ca356cb72a23200160ce912,64d2fd46c836a06233681665,64dc7cb004826b18df2da83c,,,,,,,decisionTrl,resources/DB.BMP,resources/DR.BMP,Door4,0.27870369,0.002777771,1,0,0,1.2112,optionRight,80,11915,6,5,0,5,0,1,,,,,,,,,,,,,,,,,,,,,,,,,,,,,,,,,,,,,,,
,,,,,,,,2023-08-16_08h41.13.920,HF_wild_card,2022.2.4,Win32,59.99880002,5ca356cb72a23200160ce912,64d2fd46c836a06233681665,64dc7cb004826b18df2da83c,,,,,,,decisionTrl,resources/DP.BMP,resources/DG.BMP,Door1,-0.19259255,-0.038888896,1,0,0,1.1938,optionLeft,30,11945,6,6,0,6,0,1,,,,,,,,,,,,,,,,,,,,,,,,,,,,,,,,,,,,,,,
,,,,,,,,2023-08-16_08h41.13.920,HF_wild_card,2022.2.4,Win32,59.99880002,5ca356cb72a23200160ce912,64d2fd46c836a06233681665,64dc7cb004826b18df2da83c,,,,,,,sngl,resources/Empty.png,resources/DB.BMP,WildCard_NonEx,0.240740741,-0.001851859,1,0,0,0.7107,optionRight,45,11990,6,7,0,7,0,1,,,,,,,,,,,,,,,,,,,,,,,,,,,,,,,,,,,,,,,
,,,,,,,,2023-08-16_08h41.13.920,HF_wild_card,2022.2.4,Win32,59.99880002,5ca356cb72a23200160ce912,64d2fd46c836a06233681665,64dc7cb004826b18df2da83c,,,,,,,decisionTrl,resources/DB.BMP,resources/DY.BMP,Door3,0.271296325,-0.027777778,1,0,0,1.9943,optionRight,70,12060,6,8,0,8,0,1,,,,,,,,,,,,,,,,,,,,,,,,,,,,,,,,,,,,,,,
,,,,,,,,2023-08-16_08h41.13.920,HF_wild_card,2022.2.4,Win32,59.99880002,5ca356cb72a23200160ce912,64d2fd46c836a06233681665,64dc7cb004826b18df2da83c,,,,,,,ctch,resources/DP.BMP,resources/DR.BMP,Door4,0.240740741,-0.020370377,1,0,0,0.943,optionRight,60,12120,6,9,0,9,0,1,,,,,,,,,,,,,,,,,,,,,,,,,,,,,,,,,,,,,,,
,,,,,,,,2023-08-16_08h41.13.920,HF_wild_card,2022.2.4,Win32,59.99880002,5ca356cb72a23200160ce912,64d2fd46c836a06233681665,64dc7cb004826b18df2da83c,,,,,,,decisionTrl,resources/DG.BMP,resources/DP.BMP,Door1,0.174074102,0,1,0,0,1.3608,optionRight,30,12150,6,10,0,10,0,1,,,,,,,,,,,,,,,,,,,,,,,,,,,,,,,,,,,,,,,
,,,,,,,,2023-08-16_08h41.13.920,HF_wild_card,2022.2.4,Win32,59.99880002,5ca356cb72a23200160ce912,64d2fd46c836a06233681665,64dc7cb004826b18df2da83c,,,,,,,sngl,resources/DB.BMP,resources/Empty.png,WildCard_NonEx,-0.179629644,-0.023148148,1,0,0,0.7112,optionLeft,55,12205,6,11,0,11,0,1,,,,,,,,,,,,,,,,,,,,,,,,,,,,,,,,,,,,,,,
,,,,,,,,2023-08-16_08h41.13.920,HF_wild_card,2022.2.4,Win32,59.99880002,5ca356cb72a23200160ce912,64d2fd46c836a06233681665,64dc7cb004826b18df2da83c,,,,,,,sngl,resources/Empty.png,resources/DY.BMP,Door3,0.256481524,0.010185171,1,0,0,0.6278,optionRight,70,12275,6,12,0,12,0,1,,,,,,,,,,,,,,,,,,,,,,,,,,,,,,,,,,,,,,,
,,,,,,,,2023-08-16_08h41.13.920,HF_wild_card,2022.2.4,Win32,59.99880002,5ca356cb72a23200160ce912,64d2fd46c836a06233681665,64dc7cb004826b18df2da83c,,,,,,,decisionTrl,resources/DG.BMP,resources/DP.BMP,Door2,-0.26944443,-0.074074074,1,0,0,2.0442,optionLeft,40,12315,6,13,0,13,0,1,,,,,,,,,,,,,,,,,,,,,,,,,,,,,,,,,,,,,,,
,,,,,,,,2023-08-16_08h41.13.920,HF_wild_card,2022.2.4,Win32,59.99880002,5ca356cb72a23200160ce912,64d2fd46c836a06233681665,64dc7cb004826b18df2da83c,,,,,,,decisionTrl,resources/DG.BMP,resources/DB.BMP,WildCard_NonEx,0.288888931,-0.025925919,1,0,0,1.9595,optionRight,45,12360,6,14,0,14,0,1,,,,,,,,,,,,,,,,,,,,,,,,,,,,,,,,,,,,,,,
,,,,,,,,2023-08-16_08h41.13.920,HF_wild_card,2022.2.4,Win32,59.99880002,5ca356cb72a23200160ce912,64d2fd46c836a06233681665,64dc7cb004826b18df2da83c,,,,,,,sngl,resources/Empty.png,resources/DR.BMP,Door4,0.214814857,-0.052777785,1,0,0,0.7782,optionRight,80,12440,6,15,0,15,0,1,,,,,,,,,,,,,,,,,,,,,,,,,,,,,,,,,,,,,,,
,,,,,,,,2023-08-16_08h41.13.920,HF_wild_card,2022.2.4,Win32,59.99880002,5ca356cb72a23200160ce912,64d2fd46c836a06233681665,64dc7cb004826b18df2da83c,,,,,,,ctch,resources/DG.BMP,resources/DY.BMP,Door3,0.186111097,-0.025000007,1,0,0,0.7276,optionRight,70,12510,6,16,0,16,0,1,,,,,,,,,,,,,,,,,,,,,,,,,,,,,,,,,,,,,,,
,,,,,,,,2023-08-16_08h41.13.920,HF_wild_card,2022.2.4,Win32,59.99880002,5ca356cb72a23200160ce912,64d2fd46c836a06233681665,64dc7cb004826b18df2da83c,,,,,,,sngl,resources/Empty.png,resources/DG.BMP,Door2,0.179629644,-0.021296289,1,0,0,0.6441,optionRight,40,12550,6,17,0,17,0,1,,,,,,,,,,,,,,,,,,,,,,,,,,,,,,,,,,,,,,,
,,,,,,,,2023-08-16_08h41.13.920,HF_wild_card,2022.2.4,Win32,59.99880002,5ca356cb72a23200160ce912,64d2fd46c836a06233681665,64dc7cb004826b18df2da83c,,,,,,,decisionTrl,resources/DG.BMP,resources/DP.BMP,Door1,0.185185185,-0.050000014,1,0,0,0.7779,optionRight,30,12580,6,18,0,18,0,1,,,,,,,,,,,,,,,,,,,,,,,,,,,,,,,,,,,,,,,
,,,,,,,,2023-08-16_08h41.13.920,HF_wild_card,2022.2.4,Win32,59.99880002,5ca356cb72a23200160ce912,64d2fd46c836a06233681665,64dc7cb004826b18df2da83c,,,,,,,sngl,resources/DP.BMP,resources/Empty.png,Door1,-0.270370342,-0.094444487,1,0,0,1.5612,optionLeft,30,12610,6,19,0,19,0,1,,,,,,,,,,,,,,,,,,,,,,,,,,,,,,,,,,,,,,,
,,,,,,,,2023-08-16_08h41.13.920,HF_wild_card,2022.2.4,Win32,59.99880002,5ca356cb72a23200160ce912,64d2fd46c836a06233681665,64dc7cb004826b18df2da83c,,,,,,,decisionTrl,resources/DR.BMP,resources/DY.BMP,Door4,-0.196296268,-0.026851866,1,0,0,0.628,optionLeft,60,12670,6,20,0,20,0,1,,,,,,,,,,,,,,,,,,,,,,,,,,,,,,,,,,,,,,,
,,,,,,,,2023-08-16_08h41.13.920,HF_wild_card,2022.2.4,Win32,59.99880002,5ca356cb72a23200160ce912,64d2fd46c836a06233681665,64dc7cb004826b18df2da83c,,,,,,,ctch,resources/DG.BMP,resources/DY.BMP,Door3,0.139814801,-0.001851859,1,0,0,0.7272,optionRight,70,12740,6,21,0,21,0,1,,,,,,,,,,,,,,,,,,,,,,,,,,,,,,,,,,,,,,,
,,,,,,,,2023-08-16_08h41.13.920,HF_wild_card,2022.2.4,Win32,59.99880002,5ca356cb72a23200160ce912,64d2fd46c836a06233681665,64dc7cb004826b18df2da83c,,,,,,,sngl,resources/DB.BMP,resources/Empty.png,WildCard_NonEx,-0.212037051,-0.072222215,1,0,0,0.6282,optionLeft,45,12785,6,22,0,22,0,1,,,,,,,,,,,,,,,,,,,,,,,,,,,,,,,,,,,,,,,
,,,,,,,,2023-08-16_08h41.13.920,HF_wild_card,2022.2.4,Win32,59.99880002,5ca356cb72a23200160ce912,64d2fd46c836a06233681665,64dc7cb004826b18df2da83c,,,,,,,ctch,resources/DY.BMP,resources/DG.BMP,Door2,0.148148148,-0.002777771,1,0,0,0.7105,optionRight,20,12805,6,23,0,23,0,1,,,,,,,,,,,,,,,,,,,,,,,,,,,,,,,,,,,,,,,
,,,,,,,,2023-08-16_08h41.13.920,HF_wild_card,2022.2.4,Win32,59.99880002,5ca356cb72a23200160ce912,64d2fd46c836a06233681665,64dc7cb004826b18df2da83c,,,,,,,decisionTrl,resources/DY.BMP,resources/DR.BMP,Door4,0.172222208,-0.010185206,1,0,0,0.6449,optionRight,60,12865,6,24,0,24,0,1,,,,,,,,,,,,,,,,,,,,,,,,,,,,,,,,,,,,,,,
,,,,,,,,2023-08-16_08h41.13.920,HF_wild_card,2022.2.4,Win32,59.99880002,5ca356cb72a23200160ce912,64d2fd46c836a06233681665,64dc7cb004826b18df2da83c,,,,,,,decisionTrl,resources/DB.BMP,resources/DP.BMP,WildCard_NonEx,-0.250925912,-0.062962956,1,0,0,0.9279,optionLeft,45,12910,6,25,0,25,0,1,,,,,,,,,,,,,,,,,,,,,,,,,,,,,,,,,,,,,,,
,,,,,,,,2023-08-16_08h41.13.920,HF_wild_card,2022.2.4,Win32,59.99880002,5ca356cb72a23200160ce912,64d2fd46c836a06233681665,64dc7cb004826b18df2da83c,,,,,,,ctch,resources/DP.BMP,resources/DR.BMP,Door4,0.157407407,-0.038888896,1,0,0,0.7103,optionRight,80,12990,6,26,0,26,0,1,,,,,,,,,,,,,,,,,,,,,,,,,,,,,,,,,,,,,,,
,,,,,,,,2023-08-16_08h41.13.920,HF_wild_card,2022.2.4,Win32,59.99880002,5ca356cb72a23200160ce912,64d2fd46c836a06233681665,64dc7cb004826b18df2da83c,,,,,,,sngl,resources/DY.BMP,resources/Empty.png,Door3,-0.201851809,-0.078703704,1,0,0,0.5089,optionLeft,70,13060,6,27,0,27,0,1,,,,,,,,,,,,,,,,,,,,,,,,,,,,,,,,,,,,,,,
,,,,,,,,2023-08-16_08h41.13.920,HF_wild_card,2022.2.4,Win32,59.99880002,5ca356cb72a23200160ce912,64d2fd46c836a06233681665,64dc7cb004826b18df2da83c,,,,,,,decisionTrl,resources/DP.BMP,resources/DG.BMP,Door1,-0.179629644,-0.056481503,1,0,0,1.8609,optionLeft,30,13090,6,28,0,28,0,1,,,,,,,,,,,,,,,,,,,,,,,,,,,,,,,,,,,,,,,
,,,,,,,,2023-08-16_08h41.13.920,HF_wild_card,2022.2.4,Win32,59.99880002,5ca356cb72a23200160ce912,64d2fd46c836a06233681665,64dc7cb004826b18df2da83c,,,,,,,sngl,resources/Empty.png,resources/DP.BMP,Door1,0.184259273,-0.000925947,1,0,0,0.6778,optionRight,30,13120,6,29,0,29,0,1,,,,,,,,,,,,,,,,,,,,,,,,,,,,,,,,,,,,,,,
,,,,,,,,2023-08-16_08h41.13.920,HF_wild_card,2022.2.4,Win32,59.99880002,5ca356cb72a23200160ce912,64d2fd46c836a06233681665,64dc7cb004826b18df2da83c,,,,,,,decisionTrl,resources/DG.BMP,resources/DP.BMP,Door2,-0.138888889,-0.060185185,1,0,0,1.4609,optionLeft,20,13140,6,30,0,30,0,1,,,,,,,,,,,,,,,,,,,,,,,,,,,,,,,,,,,,,,,
,,,,,,,,2023-08-16_08h41.13.920,HF_wild_card,2022.2.4,Win32,59.99880002,5ca356cb72a23200160ce912,64d2fd46c836a06233681665,64dc7cb004826b18df2da83c,,,,,,,decisionTrl,resources/DP.BMP,resources/DB.BMP,WildCard_NonEx,0.275000042,0.034259266,1,0,0,1.1593,optionRight,55,13195,6,31,0,31,0,1,,,,,,,,,,,,,,,,,,,,,,,,,,,,,,,,,,,,,,,
,,,,,,,,2023-08-16_08h41.13.920,HF_wild_card,2022.2.4,Win32,59.99880002,5ca356cb72a23200160ce912,64d2fd46c836a06233681665,64dc7cb004826b18df2da83c,,,,,,,decisionTrl,resources/DY.BMP,resources/DR.BMP,Door4,0.175000014,-0.006481489,1,0,0,0.6939,optionRight,60,13255,6,32,0,32,0,1,,,,,,,,,,,,,,,,,,,,,,,,,,,,,,,,,,,,,,,
,,,,,,,,2023-08-16_08h41.13.920,HF_wild_card,2022.2.4,Win32,59.99880002,5ca356cb72a23200160ce912,64d2fd46c836a06233681665,64dc7cb004826b18df2da83c,,,,,,,decisionTrl,resources/DR.BMP,resources/DY.BMP,Door3,0.18240745,0.00462963,1,0,0,0.6943,optionRight,70,13325,6,33,0,33,0,1,,,,,,,,,,,,,,,,,,,,,,,,,,,,,,,,,,,,,,,
,,,,,,,,2023-08-16_08h41.13.920,HF_wild_card,2022.2.4,Win32,59.99880002,5ca356cb72a23200160ce912,64d2fd46c836a06233681665,64dc7cb004826b18df2da83c,,,,,,,decisionTrl,resources/DR.BMP,resources/DY.BMP,Door4,-0.188888903,-0.054629644,1,0,0,0.5781,optionLeft,60,13385,6,34,0,34,0,1,,,,,,,,,,,,,,,,,,,,,,,,,,,,,,,,,,,,,,,
,,,,,,,,2023-08-16_08h41.13.920,HF_wild_card,2022.2.4,Win32,59.99880002,5ca356cb72a23200160ce912,64d2fd46c836a06233681665,64dc7cb004826b18df2da83c,,,,,,,sngl,resources/DR.BMP,resources/Empty.png,Door4,-0.220370328,-0.093518504,1,0,0,0.5107,optionLeft,60,13445,6,35,0,35,0,1,,,,,,,,,,,,,,,,,,,,,,,,,,,,,,,,,,,,,,,
,,,,,,,,2023-08-16_08h41.13.920,HF_wild_card,2022.2.4,Win32,59.99880002,5ca356cb72a23200160ce912,64d2fd46c836a06233681665,64dc7cb004826b18df2da83c,,,,,,,decisionTrl,resources/DY.BMP,resources/DR.BMP,Door4,0.220370399,0.001851859,1,0,0,0.896,optionRight,60,13505,6,36,0,36,0,1,,,,,,,,,,,,,,,,,,,,,,,,,,,,,,,,,,,,,,,
,,,,,,,,2023-08-16_08h41.13.920,HF_wild_card,2022.2.4,Win32,59.99880002,5ca356cb72a23200160ce912,64d2fd46c836a06233681665,64dc7cb004826b18df2da83c,,,,,,,ctch,resources/DR.BMP,resources/DP.BMP,Door4,-0.181481467,-0.022222236,1,0,0,0.5444,optionLeft,60,13565,6,37,0,37,0,1,,,,,,,,,,,,,,,,,,,,,,,,,,,,,,,,,,,,,,,
,,,,,,,,2023-08-16_08h41.13.920,HF_wild_card,2022.2.4,Win32,59.99880002,5ca356cb72a23200160ce912,64d2fd46c836a06233681665,64dc7cb004826b18df2da83c,,,,,,,decisionTrl,resources/DP.BMP,resources/DG.BMP,Door1,-0.160185143,-0.051851873,1,0,0,1.1444,optionLeft,30,13595,6,38,0,38,0,1,,,,,,,,,,,,,,,,,,,,,,,,,,,,,,,,,,,,,,,
,,,,,,,,2023-08-16_08h41.13.920,HF_wild_card,2022.2.4,Win32,59.99880002,5ca356cb72a23200160ce912,64d2fd46c836a06233681665,64dc7cb004826b18df2da83c,,,,,,,decisionTrl,resources/DP.BMP,resources/DG.BMP,Door1,-0.183333291,-0.062962956,1,0,0,0.9465,optionLeft,30,13625,6,39,0,39,0,1,,,,,,,,,,,,,,,,,,,,,,,,,,,,,,,,,,,,,,,
,,,,,,,,2023-08-16_08h41.13.920,HF_wild_card,2022.2.4,Win32,59.99880002,5ca356cb72a23200160ce912,64d2fd46c836a06233681665,64dc7cb004826b18df2da83c,,,,,,,decisionTrl,resources/DR.BMP,resources/DB.BMP,Door4,-0.194444444,-0.089814822,1,0,0,0.8944,optionLeft,80,13705,6,40,0,40,0,1,,,,,,,,,,,,,,,,,,,,,,,,,,,,,,,,,,,,,,,
,,,,,,,,2023-08-16_08h41.13.920,HF_wild_card,2022.2.4,Win32,59.99880002,5ca356cb72a23200160ce912,64d2fd46c836a06233681665,64dc7cb004826b18df2da83c,,,,,,,ctch,resources/DR.BMP,resources/DP.BMP,Door4,-0.187037009,-0.083333333,1,0,0,0.5781,optionLeft,60,13765,6,41,0,41,0,1,,,,,,,,,,,,,,,,,,,,,,,,,,,,,,,,,,,,,,,
,,,,,,,,2023-08-16_08h41.13.920,HF_wild_card,2022.2.4,Win32,59.99880002,5ca356cb72a23200160ce912,64d2fd46c836a06233681665,64dc7cb004826b18df2da83c,,,,,,,decisionTrl,resources/DY.BMP,resources/DB.BMP,Door3,-0.222222222,-0.054629644,1,0,0,0.6279,optionLeft,70,13835,6,42,0,42,0,1,,,,,,,,,,,,,,,,,,,,,,,,,,,,,,,,,,,,,,,
,,,,,,,,2023-08-16_08h41.13.920,HF_wild_card,2022.2.4,Win32,59.99880002,5ca356cb72a23200160ce912,64d2fd46c836a06233681665,64dc7cb004826b18df2da83c,,,,,,,sngl,resources/DG.BMP,resources/Empty.png,Door2,-0.167592578,-0.037037037,1,0,0,0.9273,optionLeft,20,13855,6,43,0,43,0,1,,,,,,,,,,,,,,,,,,,,,,,,,,,,,,,,,,,,,,,
,,,,,,,,2023-08-16_08h41.13.920,HF_wild_card,2022.2.4,Win32,59.99880002,5ca356cb72a23200160ce912,64d2fd46c836a06233681665,64dc7cb004826b18df2da83c,,,,,,,,,,,,,,,,,,,,,,,,,,5,0,5,0,1,,,,,,,,,,,,,,,,,,,,,,,,,,,,,,,,,,
,,,,,,,,2023-08-16_08h41.13.920,HF_wild_card,2022.2.4,Win32,59.99880002,5ca356cb72a23200160ce912,64d2fd46c836a06233681665,64dc7cb004826b18df2da83c,,,,,,,decisionTrl,resources/DG.BMP,resources/DP.BMP,Door1,0.285185213,-0.126851894,1,0,0,2.7672,optionRight,30,13885,7,0,0,0,0,1,,,,,,,,,,,,,,,,,,,,,,,,,,,,,,,,,,,,,,,
,,,,,,,,2023-08-16_08h41.13.920,HF_wild_card,2022.2.4,Win32,59.99880002,5ca356cb72a23200160ce912,64d2fd46c836a06233681665,64dc7cb004826b18df2da83c,,,,,,,ctch,resources/DY.BMP,resources/DG.BMP,Door3,-0.184259273,-0.059259273,1,0,0,1.5027,optionLeft,70,13955,7,1,0,1,0,1,,,,,,,,,,,,,,,,,,,,,,,,,,,,,,,,,,,,,,,
,,,,,,,,2023-08-16_08h41.13.920,HF_wild_card,2022.2.4,Win32,59.99880002,5ca356cb72a23200160ce912,64d2fd46c836a06233681665,64dc7cb004826b18df2da83c,,,,,,,decisionTrl,resources/DP.BMP,resources/DG.BMP,Door1,-0.148148148,-0.069444444,1,0,0,1.6432,optionLeft,30,13985,7,2,0,2,0,1,,,,,,,,,,,,,,,,,,,,,,,,,,,,,,,,,,,,,,,
,,,,,,,,2023-08-16_08h41.13.920,HF_wild_card,2022.2.4,Win32,59.99880002,5ca356cb72a23200160ce912,64d2fd46c836a06233681665,64dc7cb004826b18df2da83c,,,,,,,decisionTrl,resources/DP.BMP,resources/DG.BMP,Door1,-0.157407407,-0.044444437,1,0,0,0.9421,optionLeft,30,14015,7,3,0,3,0,1,,,,,,,,,,,,,,,,,,,,,,,,,,,,,,,,,,,,,,,
,,,,,,,,2023-08-16_08h41.13.920,HF_wild_card,2022.2.4,Win32,59.99880002,5ca356cb72a23200160ce912,64d2fd46c836a06233681665,64dc7cb004826b18df2da83c,,,,,,,decisionTrl,resources/DG.BMP,resources/DP.BMP,Door1,0.15370369,-0.001851859,1,0,0,0.73,optionRight,30,14045,7,4,0,4,0,1,,,,,,,,,,,,,,,,,,,,,,,,,,,,,,,,,,,,,,,
,,,,,,,,2023-08-16_08h41.13.920,HF_wild_card,2022.2.4,Win32,59.99880002,5ca356cb72a23200160ce912,64d2fd46c836a06233681665,64dc7cb004826b18df2da83c,,,,,,,decisionTrl,resources/DG.BMP,resources/DP.BMP,Door1,0.174074102,-0.010185206,1,0,0,0.7639,optionRight,30,14075,7,5,0,5,0,1,,,,,,,,,,,,,,,,,,,,,,,,,,,,,,,,,,,,,,,
,,,,,,,,2023-08-16_08h41.13.920,HF_wild_card,2022.2.4,Win32,59.99880002,5ca356cb72a23200160ce912,64d2fd46c836a06233681665,64dc7cb004826b18df2da83c,,,,,,,ctch,resources/DP.BMP,resources/DR.BMP,Door4,0.116666653,-0.026851866,1,0,0,0.7286,optionRight,60,14135,7,6,0,6,0,1,,,,,,,,,,,,,,,,,,,,,,,,,,,,,,,,,,,,,,,
,,,,,,,,2023-08-16_08h41.13.920,HF_wild_card,2022.2.4,Win32,59.99880002,5ca356cb72a23200160ce912,64d2fd46c836a06233681665,64dc7cb004826b18df2da83c,,,,,,,ctch,resources/DP.BMP,resources/DR.BMP,Door4,0.132407436,-0.001851859,1,0,0,0.8036,optionRight,60,14195,7,7,0,7,0,1,,,,,,,,,,,,,,,,,,,,,,,,,,,,,,,,,,,,,,,
,,,,,,,,2023-08-16_08h41.13.920,HF_wild_card,2022.2.4,Win32,59.99880002,5ca356cb72a23200160ce912,64d2fd46c836a06233681665,64dc7cb004826b18df2da83c,,,,,,,decisionTrl,resources/DR.BMP,resources/DY.BMP,Door4,-0.193518533,-0.021296289,1,0,0,0.9973,optionLeft,60,14255,7,8,0,8,0,1,,,,,,,,,,,,,,,,,,,,,,,,,,,,,,,,,,,,,,,
,,,,,,,,2023-08-16_08h41.13.920,HF_wild_card,2022.2.4,Win32,59.99880002,5ca356cb72a23200160ce912,64d2fd46c836a06233681665,64dc7cb004826b18df2da83c,,,,,,,ctch,resources/DR.BMP,resources/DP.BMP,Door4,-0.19259255,-0.014814836,1,0,0,0.6636,optionLeft,80,14335,7,9,0,9,0,1,,,,,,,,,,,,,,,,,,,,,,,,,,,,,,,,,,,,,,,
,,,,,,,,2023-08-16_08h41.13.920,HF_wild_card,2022.2.4,Win32,59.99880002,5ca356cb72a23200160ce912,64d2fd46c836a06233681665,64dc7cb004826b18df2da83c,,,,,,,decisionTrl,resources/DP.BMP,resources/DG.BMP,Door1,-0.184259273,-0.068518533,1,0,0,1.1963,optionLeft,30,14365,7,10,0,10,0,1,,,,,,,,,,,,,,,,,,,,,,,,,,,,,,,,,,,,,,,
,,,,,,,,2023-08-16_08h41.13.920,HF_wild_card,2022.2.4,Win32,59.99880002,5ca356cb72a23200160ce912,64d2fd46c836a06233681665,64dc7cb004826b18df2da83c,,,,,,,decisionTrl,resources/DG.BMP,resources/DP.BMP,Door1,0.140740783,-0.048148155,1,0,0,0.7136,optionRight,30,14395,7,11,0,11,0,1,,,,,,,,,,,,,,,,,,,,,,,,,,,,,,,,,,,,,,,
,,,,,,,,2023-08-16_08h41.13.920,HF_wild_card,2022.2.4,Win32,59.99880002,5ca356cb72a23200160ce912,64d2fd46c836a06233681665,64dc7cb004826b18df2da83c,,,,,,,decisionTrl,resources/DP.BMP,resources/DG.BMP,Door1,-0.189814815,-0.074074074,1,0,0,0.5964,optionLeft,30,14425,7,12,0,12,0,1,,,,,,,,,,,,,,,,,,,,,,,,,,,,,,,,,,,,,,,
,,,,,,,,2023-08-16_08h41.13.920,HF_wild_card,2022.2.4,Win32,59.99880002,5ca356cb72a23200160ce912,64d2fd46c836a06233681665,64dc7cb004826b18df2da83c,,,,,,,decisionTrl,resources/DR.BMP,resources/DY.BMP,Door4,-0.212037051,-0.042592614,1,0,0,1.0633,optionLeft,60,14485,7,13,0,13,0,1,,,,,,,,,,,,,,,,,,,,,,,,,,,,,,,,,,,,,,,
,,,,,,,,2023-08-16_08h41.13.920,HF_wild_card,2022.2.4,Win32,59.99880002,5ca356cb72a23200160ce912,64d2fd46c836a06233681665,64dc7cb004826b18df2da83c,,,,,,,ctch,resources/DR.BMP,resources/DP.BMP,Door4,-0.249074088,-0.10092594,1,0,0,0.5541,optionLeft,80,14565,7,14,0,14,0,1,,,,,,,,,,,,,,,,,,,,,,,,,,,,,,,,,,,,,,,
,,,,,,,,2023-08-16_08h41.13.920,HF_wild_card,2022.2.4,Win32,59.99880002,5ca356cb72a23200160ce912,64d2fd46c836a06233681665,64dc7cb004826b18df2da83c,,,,,,,ctch,resources/DY.BMP,resources/DG.BMP,Door3,-0.184259273,-0.035185178,1,0,0,0.6802,optionLeft,70,14635,7,15,0,15,0,1,,,,,,,,,,,,,,,,,,,,,,,,,,,,,,,,,,,,,,,
,,,,,,,,2023-08-16_08h41.13.920,HF_wild_card,2022.2.4,Win32,59.99880002,5ca356cb72a23200160ce912,64d2fd46c836a06233681665,64dc7cb004826b18df2da83c,,,,,,,ctch,resources/DP.BMP,resources/DR.BMP,Door4,0.136111153,-0.035185178,1,0,0,0.96,optionRight,80,14715,7,16,0,16,0,1,,,,,,,,,,,,,,,,,,,,,,,,,,,,,,,,,,,,,,,
,,,,,,,,2023-08-16_08h41.13.920,HF_wild_card,2022.2.4,Win32,59.99880002,5ca356cb72a23200160ce912,64d2fd46c836a06233681665,64dc7cb004826b18df2da83c,,,,,,,decisionTrl,resources/DG.BMP,resources/DP.BMP,Door1,0.210185228,-0.030555548,1,0,0,2.3385,optionRight,30,14745,7,17,0,17,0,1,,,,,,,,,,,,,,,,,,,,,,,,,,,,,,,,,,,,,,,
,,,,,,,,2023-08-16_08h41.13.920,HF_wild_card,2022.2.4,Win32,59.99880002,5ca356cb72a23200160ce912,64d2fd46c836a06233681665,64dc7cb004826b18df2da83c,,,,,,,decisionTrl,resources/DP.BMP,resources/DG.BMP,Door1,-0.204629616,-0.011111118,1,0,0,1.0973,optionLeft,30,14775,7,18,0,18,0,1,,,,,,,,,,,,,,,,,,,,,,,,,,,,,,,,,,,,,,,
,,,,,,,,2023-08-16_08h41.13.920,HF_wild_card,2022.2.4,Win32,59.99880002,5ca356cb72a23200160ce912,64d2fd46c836a06233681665,64dc7cb004826b18df2da83c,,,,,,,decisionTrl,resources/DY.BMP,resources/DR.BMP,Door4,0.145370413,-0.044444437,1,0,0,0.9149,optionRight,80,14855,7,19,0,19,0,1,,,,,,,,,,,,,,,,,,,,,,,,,,,,,,,,,,,,,,,
,,,,,,,,2023-08-16_08h41.13.920,HF_wild_card,2022.2.4,Win32,59.99880002,5ca356cb72a23200160ce912,64d2fd46c836a06233681665,64dc7cb004826b18df2da83c,,,,,,,ctch,resources/DG.BMP,resources/DY.BMP,Door3,0.179629644,-0.023148148,1,0,0,1.03,optionRight,70,14925,7,20,0,20,0,1,,,,,,,,,,,,,,,,,,,,,,,,,,,,,,,,,,,,,,,
,,,,,,,,2023-08-16_08h41.13.920,HF_wild_card,2022.2.4,Win32,59.99880002,5ca356cb72a23200160ce912,64d2fd46c836a06233681665,64dc7cb004826b18df2da83c,,,,,,,decisionTrl,resources/DG.BMP,resources/DP.BMP,Door1,0.214814857,-0.049074067,1,0,0,1.2472,optionRight,30,14955,7,21,0,21,0,1,,,,,,,,,,,,,,,,,,,,,,,,,,,,,,,,,,,,,,,
,,,,,,,,2023-08-16_08h41.13.920,HF_wild_card,2022.2.4,Win32,59.99880002,5ca356cb72a23200160ce912,64d2fd46c836a06233681665,64dc7cb004826b18df2da83c,,,,,,,decisionTrl,resources/DY.BMP,resources/DR.BMP,Door4,0.188888903,-0.032407407,1,0,0,1.0301,optionRight,80,15035,7,22,0,22,0,1,,,,,,,,,,,,,,,,,,,,,,,,,,,,,,,,,,,,,,,
,,,,,,,,2023-08-16_08h41.13.920,HF_wild_card,2022.2.4,Win32,59.99880002,5ca356cb72a23200160ce912,64d2fd46c836a06233681665,64dc7cb004826b18df2da83c,,,,,,,decisionTrl,resources/DY.BMP,resources/DR.BMP,Door4,0.238888917,-0.062037044,1,0,0,2.6306,optionRight,60,15095,7,23,0,23,0,1,,,,,,,,,,,,,,,,,,,,,,,,,,,,,,,,,,,,,,,
,,,,,,,,2023-08-16_08h41.13.920,HF_wild_card,2022.2.4,Win32,59.99880002,5ca356cb72a23200160ce912,64d2fd46c836a06233681665,64dc7cb004826b18df2da83c,,,,,,,decisionTrl,resources/DR.BMP,resources/DY.BMP,Door4,-0.184259273,-0.014814836,1,0,0,0.7814,optionLeft,80,15175,7,24,0,24,0,1,,,,,,,,,,,,,,,,,,,,,,,,,,,,,,,,,,,,,,,
,,,,,,,,2023-08-16_08h41.13.920,HF_wild_card,2022.2.4,Win32,59.99880002,5ca356cb72a23200160ce912,64d2fd46c836a06233681665,64dc7cb004826b18df2da83c,,,,,,,decisionTrl,resources/DY.BMP,resources/DR.BMP,Door4,0.142592607,-0.070370392,1,0,0,1.0479,optionRight,60,15235,7,25,0,25,0,1,,,,,,,,,,,,,,,,,,,,,,,,,,,,,,,,,,,,,,,
,,,,,,,,2023-08-16_08h41.13.920,HF_wild_card,2022.2.4,Win32,59.99880002,5ca356cb72a23200160ce912,64d2fd46c836a06233681665,64dc7cb004826b18df2da83c,,,,,,,decisionTrl,resources/DP.BMP,resources/DG.BMP,Door1,-0.210185157,-0.027777778,1,0,0,1.7638,optionLeft,30,15265,7,26,0,26,0,1,,,,,,,,,,,,,,,,,,,,,,,,,,,,,,,,,,,,,,,
,,,,,,,,2023-08-16_08h41.13.920,HF_wild_card,2022.2.4,Win32,59.99880002,5ca356cb72a23200160ce912,64d2fd46c836a06233681665,64dc7cb004826b18df2da83c,,,,,,,ctch,resources/DG.BMP,resources/DY.BMP,Door3,0.183333362,-0.002777771,1,0,0,2.5641,optionRight,70,15335,7,27,0,27,0,1,,,,,,,,,,,,,,,,,,,,,,,,,,,,,,,,,,,,,,,
,,,,,,,,2023-08-16_08h41.13.920,HF_wild_card,2022.2.4,Win32,59.99880002,5ca356cb72a23200160ce912,64d2fd46c836a06233681665,64dc7cb004826b18df2da83c,,,,,,,decisionTrl,resources/DR.BMP,resources/DY.BMP,Door4,-0.206481439,-0.011111118,1,0,0,0.8449,optionLeft,60,15395,7,28,0,28,0,1,,,,,,,,,,,,,,,,,,,,,,,,,,,,,,,,,,,,,,,
,,,,,,,,2023-08-16_08h41.13.920,HF_wild_card,2022.2.4,Win32,59.99880002,5ca356cb72a23200160ce912,64d2fd46c836a06233681665,64dc7cb004826b18df2da83c,,,,,,,ctch,resources/DR.BMP,resources/DP.BMP,Door4,-0.165740755,-0.049074067,1,0,0,0.7638,optionLeft,80,15475,7,29,0,29,0,1,,,,,,,,,,,,,,,,,,,,,,,,,,,,,,,,,,,,,,,
,,,,,,,,2023-08-16_08h41.13.920,HF_wild_card,2022.2.4,Win32,59.99880002,5ca356cb72a23200160ce912,64d2fd46c836a06233681665,64dc7cb004826b18df2da83c,,,,,,,decisionTrl,resources/DY.BMP,resources/DR.BMP,Door4,0.199999986,-0.027777778,1,0,0,0.7527,optionRight,80,15555,7,30,0,30,0,1,,,,,,,,,,,,,,,,,,,,,,,,,,,,,,,,,,,,,,,
,,,,,,,,2023-08-16_08h41.13.920,HF_wild_card,2022.2.4,Win32,59.99880002,5ca356cb72a23200160ce912,64d2fd46c836a06233681665,64dc7cb004826b18df2da83c,,,,,,,ctch,resources/DY.BMP,resources/DG.BMP,Door3,-0.17314812,-0.025000007,1,0,0,0.7458,optionLeft,70,15625,7,31,0,31,0,1,,,,,,,,,,,,,,,,,,,,,,,,,,,,,,,,,,,,,,,
,,,,,,,,2023-08-16_08h41.13.920,HF_wild_card,2022.2.4,Win32,59.99880002,5ca356cb72a23200160ce912,64d2fd46c836a06233681665,64dc7cb004826b18df2da83c,,,,,,,ctch,resources/DG.BMP,resources/DY.BMP,Door3,0.162037037,-0.034259266,1,0,0,1.4313,optionRight,70,15695,7,32,0,32,0,1,,,,,,,,,,,,,,,,,,,,,,,,,,,,,,,,,,,,,,,
,,,,,,,,2023-08-16_08h41.13.920,HF_wild_card,2022.2.4,Win32,59.99880002,5ca356cb72a23200160ce912,64d2fd46c836a06233681665,64dc7cb004826b18df2da83c,,,,,,,decisionTrl,resources/DR.BMP,resources/DY.BMP,Door4,-0.132407365,-0.026851866,1,0,0,0.5984,optionLeft,80,15775,7,33,0,33,0,1,,,,,,,,,,,,,,,,,,,,,,,,,,,,,,,,,,,,,,,
,,,,,,,,2023-08-16_08h41.13.920,HF_wild_card,2022.2.4,Win32,59.99880002,5ca356cb72a23200160ce912,64d2fd46c836a06233681665,64dc7cb004826b18df2da83c,,,,,,,decisionTrl,resources/DY.BMP,resources/DR.BMP,Door4,0.180555556,-0.036111125,1,0,0,0.5696,optionRight,80,15855,7,34,0,34,0,1,,,,,,,,,,,,,,,,,,,,,,,,,,,,,,,,,,,,,,,
,,,,,,,,2023-08-16_08h41.13.920,HF_wild_card,2022.2.4,Win32,59.99880002,5ca356cb72a23200160ce912,64d2fd46c836a06233681665,64dc7cb004826b18df2da83c,,,,,,,decisionTrl,resources/DR.BMP,resources/DY.BMP,Door4,-0.208333333,-0.041666667,1,0,0,0.8305,optionLeft,80,15935,7,35,0,35,0,1,,,,,,,,,,,,,,,,,,,,,,,,,,,,,,,,,,,,,,,
,,,,,,,,2023-08-16_08h41.13.920,HF_wild_card,2022.2.4,Win32,59.99880002,5ca356cb72a23200160ce912,64d2fd46c836a06233681665,64dc7cb004826b18df2da83c,,,,,,,,,,,,,,,,,,,,,,,,,,6,0,6,0,1,,,,,,,,,,,,,,,,,,,,,,,,,,,,,,,,,,
,,,,,,,,2023-08-16_08h41.13.920,HF_wild_card,2022.2.4,Win32,59.99880002,5ca356cb72a23200160ce912,64d2fd46c836a06233681665,64dc7cb004826b18df2da83c,,,,,,,,,,,,,,,,,,,,,,,,,,,,,,,3,,,,,,,,,,,,,,,,,,,,,,,,,,,,,,,,,
,,,,,,,,2023-08-16_08h41.13.920,HF_wild_card,2022.2.4,Win32,59.99880002,5ca356cb72a23200160ce912,64d2fd46c836a06233681665,64dc7cb004826b18df2da83c,,,,,,,,,,,,,,,,,,,,,,,,,,,,,,,,,,,,,,,,,,,,,,,,,,,,,,,,,,,,,,,,
,,,,,,,,2023-08-16_08h41.13.920,HF_wild_card,2022.2.4,Win32,59.99880002,5ca356cb72a23200160ce912,64d2fd46c836a06233681665,64dc7cb004826b18df2da83c,,,,,,,,,,,,,,,,,,,,,,,,,,,,,,,,50,WC_nonExtreme,resources/DB.BMP,0,0,0,0,1,,,,,,,,,,,,,,,,,,,,,,,,,
,,,,,,,,2023-08-16_08h41.13.920,HF_wild_card,2022.2.4,Win32,59.99880002,5ca356cb72a23200160ce912,64d2fd46c836a06233681665,64dc7cb004826b18df2da83c,,,,,,,,,,,,,,,,,,,,,,,,,,,,,,,,5,WC_extreme,resources/DBN.BMP,1,0,1,0,1,,,,,,,,,,,,,,,,,,,,,,,,,
,,,,,,,,2023-08-16_08h41.13.920,HF_wild_card,2022.2.4,Win32,59.99880002,5ca356cb72a23200160ce912,64d2fd46c836a06233681665,64dc7cb004826b18df2da83c,,,,,,,,,,,,,,,,,,,,,,,,,,,,,,,,60,Door3,resources/DY.BMP,2,0,2,0,1,,,,,,,,,,,,,,,,,,,,,,,,,
,,,,,,,,2023-08-16_08h41.13.920,HF_wild_card,2022.2.4,Win32,59.99880002,5ca356cb72a23200160ce912,64d2fd46c836a06233681665,64dc7cb004826b18df2da83c,,,,,,,,,,,,,,,,,,,,,,,,,,,,,,,,20,Door2,resources/DG.BMP,3,0,3,0,1,,,,,,,,,,,,,,,,,,,,,,,,,
,,,,,,,,2023-08-16_08h41.13.920,HF_wild_card,2022.2.4,Win32,59.99880002,5ca356cb72a23200160ce912,64d2fd46c836a06233681665,64dc7cb004826b18df2da83c,,,,,,,,,,,,,,,,,,,,,,,,,,,,,,,,40,Door1,resources/DP.BMP,4,0,4,0,1,,,,,,,,,,,,,,,,,,,,,,,,,
,,,,,,,,2023-08-16_08h41.13.920,HF_wild_card,2022.2.4,Win32,59.99880002,5ca356cb72a23200160ce912,64d2fd46c836a06233681665,64dc7cb004826b18df2da83c,,,,,,,,,,,,,,,,,,,,,,,,,,,,,,,,80,Door4,resources/DR.BMP,5,0,5,0,1,,,,,,,,,,,,,,,,,,,,,,,,,
,,,,,,,,2023-08-16_08h41.13.920,HF_wild_card,2022.2.4,Win32,59.99880002,5ca356cb72a23200160ce912,64d2fd46c836a06233681665,64dc7cb004826b18df2da83c,,,,,,,,,,,,,,,,,,,,,,,,,,,,,,,,,,,,,,,,,,,,,,,,,,,,,,,,,,,,,,,,
