Condition,Low fixed image (Door1),Low risky image (Door2),High fixed image (Door3),High risky image (Door4),Extreme Wild Card,NonExtreme Wild Card,,date,expName,psychopyVersion,OS,frameRate,PROLIFIC_PID,STUDY_ID,SESSION_ID,mouse_2.x,mouse_2.y,mouse_2.leftButton,mouse_2.midButton,mouse_2.rightButton,mouse_2.clicked_name,Trial Type,Left Option Image,Right Option Image,Chosen Door,mouse.x,mouse.y,mouse.leftButton,mouse.midButton,mouse.rightButton,mouse.time,mouse.clicked_name,Feedback,Cumulative Reward,Block,trial.thisRepN,trial.thisTrialN,trial.thisN,trial.thisIndex,trial.ran,blocks.thisRepN,blocks.thisTrialN,blocks.thisN,blocks.thisIndex,blocks.ran,Money conversion,First Outcome Reported,Shown Door (First Outcome),Displayed Image (First Outcome),outcomes.thisRepN,outcomes.thisTrialN,outcomes.thisN,outcomes.thisIndex,outcomes.ran,judgments.thisRepN,judgments.thisTrialN,judgments.thisN,judgments.thisIndex,judgments.ran,freqMouse.x,freqMouse.y,freqMouse.leftButton,freqMouse.midButton,freqMouse.rightButton,freqMouse.clicked_name,FQJ for first outcome,FQJ for second outcome,Shown Door,Displayed Image,trials.thisRepN,trials.thisTrialN,trials.thisN,trials.thisIndex,trials.ran,judgBlock.thisRepN,judgBlock.thisTrialN,judgBlock.thisN,judgBlock.thisIndex,judgBlock.ran
0,resources/DB.BMP,resources/DP.BMP,resources/DBN.BMP,resources/DY.BMP,resources/DR.BMP,resources/DG.BMP,,2023-08-16_08h36.51.832,HF_wild_card,2022.2.4,MacIntel,37.03703704,5c8ba607c5366c0001d022cb,64d2fd46c836a06233681665,64dc7c240fd16a25adb512a4,,,,,,,,,,,,,,,,,,,,,,,,,,,,,,,,,,,,,,,,,,,,,,,,,,,,,,,,,,,,,,,,
,,,,,,,,2023-08-16_08h36.51.832,HF_wild_card,2022.2.4,MacIntel,37.03703704,5c8ba607c5366c0001d022cb,64d2fd46c836a06233681665,64dc7c240fd16a25adb512a4,0.02970297,-0.426449788,1,0,0,agree,,,,,,,,,,,,,,,,,,,,,,,,,,,,,,,,,,,,,,,,,,,,,,,,,,,,,,,,,,
,,,,,,,,2023-08-16_08h36.51.832,HF_wild_card,2022.2.4,MacIntel,37.03703704,5c8ba607c5366c0001d022cb,64d2fd46c836a06233681665,64dc7c240fd16a25adb512a4,,,,,,,,,,,,,,,,,,,,,,,,,,,,,,,,,,,,,,,,,,,,,,,,,,,,,,,,,,,,,,,,
,,,,,,,,2023-08-16_08h36.51.832,HF_wild_card,2022.2.4,MacIntel,37.03703704,5c8ba607c5366c0001d022cb,64d2fd46c836a06233681665,64dc7c240fd16a25adb512a4,,,,,,,decisionTrl,resources/DB.BMP,resources/DR.BMP,Door1,-0.404526167,-0.054455446,1,0,0,1.739,optionLeft,30,30,1,0,0,0,0,1,,,,,,,,,,,,,,,,,,,,,,,,,,,,,,,,,,,,,,,
,,,,,,,,2023-08-16_08h36.51.832,HF_wild_card,2022.2.4,MacIntel,37.03703704,5c8ba607c5366c0001d022cb,64d2fd46c836a06233681665,64dc7c240fd16a25adb512a4,,,,,,,sngl,resources/Empty.png,resources/DB.BMP,Door1,0.339462518,-0.120933522,1,0,0,1.108,optionRight,30,60,1,1,0,1,0,1,,,,,,,,,,,,,,,,,,,,,,,,,,,,,,,,,,,,,,,
,,,,,,,,2023-08-16_08h36.51.832,HF_wild_card,2022.2.4,MacIntel,37.03703704,5c8ba607c5366c0001d022cb,64d2fd46c836a06233681665,64dc7c240fd16a25adb512a4,,,,,,,decisionTrl,resources/DY.BMP,resources/DBN.BMP,Door4,-0.299858557,-0.202970297,1,0,0,0.579,optionLeft,60,120,1,2,0,2,0,1,,,,,,,,,,,,,,,,,,,,,,,,,,,,,,,,,,,,,,,
,,,,,,,,2023-08-16_08h36.51.832,HF_wild_card,2022.2.4,MacIntel,37.03703704,5c8ba607c5366c0001d022cb,64d2fd46c836a06233681665,64dc7c240fd16a25adb512a4,,,,,,,decisionTrl,resources/DY.BMP,resources/DR.BMP,Door4,-0.271570014,-0.092644979,1,0,0,0.496,optionLeft,60,180,1,3,0,3,0,1,,,,,,,,,,,,,,,,,,,,,,,,,,,,,,,,,,,,,,,
,,,,,,,,2023-08-16_08h36.51.832,HF_wild_card,2022.2.4,MacIntel,37.03703704,5c8ba607c5366c0001d022cb,64d2fd46c836a06233681665,64dc7c240fd16a25adb512a4,,,,,,,decisionTrl,resources/DBN.BMP,resources/DY.BMP,Door3,-0.212164074,-0.048797737,1,0,0,0.548,optionLeft,70,250,1,4,0,4,0,1,,,,,,,,,,,,,,,,,,,,,,,,,,,,,,,,,,,,,,,
,,,,,,,,2023-08-16_08h36.51.832,HF_wild_card,2022.2.4,MacIntel,37.03703704,5c8ba607c5366c0001d022cb,64d2fd46c836a06233681665,64dc7c240fd16a25adb512a4,,,,,,,ctch,resources/DB.BMP,resources/DY.BMP,Door4,0.214992928,-0.177510608,1,0,0,0.678,optionRight,80,330,1,5,0,5,0,1,,,,,,,,,,,,,,,,,,,,,,,,,,,,,,,,,,,,,,,
,,,,,,,,2023-08-16_08h36.51.832,HF_wild_card,2022.2.4,MacIntel,37.03703704,5c8ba607c5366c0001d022cb,64d2fd46c836a06233681665,64dc7c240fd16a25adb512a4,,,,,,,decisionTrl,resources/DP.BMP,resources/DB.BMP,Door1,0.175388967,-0.174681754,1,0,0,1.229,optionRight,30,360,1,6,0,6,0,1,,,,,,,,,,,,,,,,,,,,,,,,,,,,,,,,,,,,,,,
,,,,,,,,2023-08-16_08h36.51.832,HF_wild_card,2022.2.4,MacIntel,37.03703704,5c8ba607c5366c0001d022cb,64d2fd46c836a06233681665,64dc7c240fd16a25adb512a4,,,,,,,sngl,resources/DR.BMP,resources/Empty.png,WildCard_Ex,-0.209335219,-0.03748232,1,0,0,0.715,optionLeft,5,365,1,7,0,7,0,1,,,,,,,,,,,,,,,,,,,,,,,,,,,,,,,,,,,,,,,
,,,,,,,,2023-08-16_08h36.51.832,HF_wild_card,2022.2.4,MacIntel,37.03703704,5c8ba607c5366c0001d022cb,64d2fd46c836a06233681665,64dc7c240fd16a25adb512a4,,,,,,,decisionTrl,resources/DB.BMP,resources/DP.BMP,Door2,0.157001414,-0.193069307,1,0,0,0.548,optionRight,40,405,1,8,0,8,0,1,,,,,,,,,,,,,,,,,,,,,,,,,,,,,,,,,,,,,,,
,,,,,,,,2023-08-16_08h36.51.832,HF_wild_card,2022.2.4,MacIntel,37.03703704,5c8ba607c5366c0001d022cb,64d2fd46c836a06233681665,64dc7c240fd16a25adb512a4,,,,,,,sngl,resources/Empty.png,resources/DR.BMP,WildCard_Ex,0.213578501,-0.177510608,1,0,0,0.707,optionRight,5,410,1,9,0,9,0,1,,,,,,,,,,,,,,,,,,,,,,,,,,,,,,,,,,,,,,,
,,,,,,,,2023-08-16_08h36.51.832,HF_wild_card,2022.2.4,MacIntel,37.03703704,5c8ba607c5366c0001d022cb,64d2fd46c836a06233681665,64dc7c240fd16a25adb512a4,,,,,,,ctch,resources/DY.BMP,resources/DB.BMP,Door4,-0.230551627,0.010608204,1,0,0,0.442,optionLeft,80,490,1,10,0,10,0,1,,,,,,,,,,,,,,,,,,,,,,,,,,,,,,,,,,,,,,,
,,,,,,,,2023-08-16_08h36.51.832,HF_wild_card,2022.2.4,MacIntel,37.03703704,5c8ba607c5366c0001d022cb,64d2fd46c836a06233681665,64dc7c240fd16a25adb512a4,,,,,,,decisionTrl,resources/DY.BMP,resources/DBN.BMP,Door4,-0.227722772,-0.048797737,1,0,0,0.462,optionLeft,80,570,1,11,0,11,0,1,,,,,,,,,,,,,,,,,,,,,,,,,,,,,,,,,,,,,,,
,,,,,,,,2023-08-16_08h36.51.832,HF_wild_card,2022.2.4,MacIntel,37.03703704,5c8ba607c5366c0001d022cb,64d2fd46c836a06233681665,64dc7c240fd16a25adb512a4,,,,,,,decisionTrl,resources/DY.BMP,resources/DBN.BMP,Door4,-0.216407355,-0.111032532,1,0,0,0.424,optionLeft,60,630,1,12,0,12,0,1,,,,,,,,,,,,,,,,,,,,,,,,,,,,,,,,,,,,,,,
,,,,,,,,2023-08-16_08h36.51.832,HF_wild_card,2022.2.4,MacIntel,37.03703704,5c8ba607c5366c0001d022cb,64d2fd46c836a06233681665,64dc7c240fd16a25adb512a4,,,,,,,decisionTrl,resources/DP.BMP,resources/DB.BMP,Door1,0.148514851,-0.174681754,1,0,0,0.479,optionRight,30,660,1,13,0,13,0,1,,,,,,,,,,,,,,,,,,,,,,,,,,,,,,,,,,,,,,,
,,,,,,,,2023-08-16_08h36.51.832,HF_wild_card,2022.2.4,MacIntel,37.03703704,5c8ba607c5366c0001d022cb,64d2fd46c836a06233681665,64dc7c240fd16a25adb512a4,,,,,,,ctch,resources/DB.BMP,resources/DY.BMP,Door1,-0.247524752,-0.103960396,1,0,0,0.829,optionLeft,30,690,1,14,0,14,0,1,,,,,,,,,,,,,,,,,,,,,,,,,,,,,,,,,,,,,,,
,,,,,,,,2023-08-16_08h36.51.832,HF_wild_card,2022.2.4,MacIntel,37.03703704,5c8ba607c5366c0001d022cb,64d2fd46c836a06233681665,64dc7c240fd16a25adb512a4,,,,,,,ctch,resources/DY.BMP,resources/DB.BMP,Door1,0.209335219,-0.136492221,1,0,0,0.346,optionRight,30,720,1,15,0,15,0,1,,,,,,,,,,,,,,,,,,,,,,,,,,,,,,,,,,,,,,,
,,,,,,,,2023-08-16_08h36.51.832,HF_wild_card,2022.2.4,MacIntel,37.03703704,5c8ba607c5366c0001d022cb,64d2fd46c836a06233681665,64dc7c240fd16a25adb512a4,,,,,,,decisionTrl,resources/DP.BMP,resources/DB.BMP,Door1,0.193776521,-0.212871287,1,0,0,0.714,optionRight,30,750,1,16,0,16,0,1,,,,,,,,,,,,,,,,,,,,,,,,,,,,,,,,,,,,,,,
,,,,,,,,2023-08-16_08h36.51.832,HF_wild_card,2022.2.4,MacIntel,37.03703704,5c8ba607c5366c0001d022cb,64d2fd46c836a06233681665,64dc7c240fd16a25adb512a4,,,,,,,decisionTrl,resources/DP.BMP,resources/DR.BMP,Door2,-0.25884017,-0.044554455,1,0,0,0.393,optionLeft,40,790,1,17,0,17,0,1,,,,,,,,,,,,,,,,,,,,,,,,,,,,,,,,,,,,,,,
,,,,,,,,2023-08-16_08h36.51.832,HF_wild_card,2022.2.4,MacIntel,37.03703704,5c8ba607c5366c0001d022cb,64d2fd46c836a06233681665,64dc7c240fd16a25adb512a4,,,,,,,decisionTrl,resources/DR.BMP,resources/DB.BMP,WildCard_Ex,-0.172560113,-0.058698727,1,0,0,0.33,optionLeft,95,885,1,18,0,18,0,1,,,,,,,,,,,,,,,,,,,,,,,,,,,,,,,,,,,,,,,
,,,,,,,,2023-08-16_08h36.51.832,HF_wild_card,2022.2.4,MacIntel,37.03703704,5c8ba607c5366c0001d022cb,64d2fd46c836a06233681665,64dc7c240fd16a25adb512a4,,,,,,,ctch,resources/DP.BMP,resources/DBN.BMP,Door2,-0.231966054,-0.026166902,1,0,0,0.33,optionLeft,40,925,1,19,0,19,0,1,,,,,,,,,,,,,,,,,,,,,,,,,,,,,,,,,,,,,,,
,,,,,,,,2023-08-16_08h36.51.832,HF_wild_card,2022.2.4,MacIntel,37.03703704,5c8ba607c5366c0001d022cb,64d2fd46c836a06233681665,64dc7c240fd16a25adb512a4,,,,,,,decisionTrl,resources/DP.BMP,resources/DB.BMP,Door1,0.223479491,-0.170438472,1,0,0,0.415,optionRight,30,955,1,20,0,20,0,1,,,,,,,,,,,,,,,,,,,,,,,,,,,,,,,,,,,,,,,
,,,,,,,,2023-08-16_08h36.51.832,HF_wild_card,2022.2.4,MacIntel,37.03703704,5c8ba607c5366c0001d022cb,64d2fd46c836a06233681665,64dc7c240fd16a25adb512a4,,,,,,,sngl,resources/DBN.BMP,resources/Empty.png,Door3,-0.31824611,-0.006364922,1,0,0,0.363,optionLeft,70,1025,1,21,0,21,0,1,,,,,,,,,,,,,,,,,,,,,,,,,,,,,,,,,,,,,,,
,,,,,,,,2023-08-16_08h36.51.832,HF_wild_card,2022.2.4,MacIntel,37.03703704,5c8ba607c5366c0001d022cb,64d2fd46c836a06233681665,64dc7c240fd16a25adb512a4,,,,,,,ctch,resources/DBN.BMP,resources/DP.BMP,Door2,0.229137199,-0.143564356,1,0,0,0.962,optionRight,20,1045,1,22,0,22,0,1,,,,,,,,,,,,,,,,,,,,,,,,,,,,,,,,,,,,,,,
,,,,,,,,2023-08-16_08h36.51.832,HF_wild_card,2022.2.4,MacIntel,37.03703704,5c8ba607c5366c0001d022cb,64d2fd46c836a06233681665,64dc7c240fd16a25adb512a4,,,,,,,decisionTrl,resources/DR.BMP,resources/DY.BMP,WildCard_Ex,-0.270155587,-0.019094767,1,0,0,0.445,optionLeft,95,1140,1,23,0,23,0,1,,,,,,,,,,,,,,,,,,,,,,,,,,,,,,,,,,,,,,,
,,,,,,,,2023-08-16_08h36.51.832,HF_wild_card,2022.2.4,MacIntel,37.03703704,5c8ba607c5366c0001d022cb,64d2fd46c836a06233681665,64dc7c240fd16a25adb512a4,,,,,,,decisionTrl,resources/DBN.BMP,resources/DR.BMP,Door3,-0.295615276,-0.074257426,1,0,0,0.464,optionLeft,70,1210,1,24,0,24,0,1,,,,,,,,,,,,,,,,,,,,,,,,,,,,,,,,,,,,,,,
,,,,,,,,2023-08-16_08h36.51.832,HF_wild_card,2022.2.4,MacIntel,37.03703704,5c8ba607c5366c0001d022cb,64d2fd46c836a06233681665,64dc7c240fd16a25adb512a4,,,,,,,decisionTrl,resources/DB.BMP,resources/DP.BMP,Door2,0.209335219,-0.130834512,1,0,0,0.652,optionRight,40,1250,1,25,0,25,0,1,,,,,,,,,,,,,,,,,,,,,,,,,,,,,,,,,,,,,,,
,,,,,,,,2023-08-16_08h36.51.832,HF_wild_card,2022.2.4,MacIntel,37.03703704,5c8ba607c5366c0001d022cb,64d2fd46c836a06233681665,64dc7c240fd16a25adb512a4,,,,,,,sngl,resources/Empty.png,resources/DBN.BMP,Door3,0.220650636,-0.103960396,1,0,0,0.745,optionRight,70,1320,1,26,0,26,0,1,,,,,,,,,,,,,,,,,,,,,,,,,,,,,,,,,,,,,,,
,,,,,,,,2023-08-16_08h36.51.832,HF_wild_card,2022.2.4,MacIntel,37.03703704,5c8ba607c5366c0001d022cb,64d2fd46c836a06233681665,64dc7c240fd16a25adb512a4,,,,,,,sngl,resources/DB.BMP,resources/Empty.png,Door1,-0.309759547,-0.070014144,1,0,0,0.395,optionLeft,30,1350,1,27,0,27,0,1,,,,,,,,,,,,,,,,,,,,,,,,,,,,,,,,,,,,,,,
,,,,,,,,2023-08-16_08h36.51.832,HF_wild_card,2022.2.4,MacIntel,37.03703704,5c8ba607c5366c0001d022cb,64d2fd46c836a06233681665,64dc7c240fd16a25adb512a4,,,,,,,decisionTrl,resources/DR.BMP,resources/DP.BMP,Door2,0.182461103,-0.143564356,1,0,0,0.481,optionRight,40,1390,1,28,0,28,0,1,,,,,,,,,,,,,,,,,,,,,,,,,,,,,,,,,,,,,,,
,,,,,,,,2023-08-16_08h36.51.832,HF_wild_card,2022.2.4,MacIntel,37.03703704,5c8ba607c5366c0001d022cb,64d2fd46c836a06233681665,64dc7c240fd16a25adb512a4,,,,,,,sngl,resources/Empty.png,resources/DP.BMP,Door2,0.178217822,-0.144978784,1,0,0,0.696,optionRight,20,1410,1,29,0,29,0,1,,,,,,,,,,,,,,,,,,,,,,,,,,,,,,,,,,,,,,,
,,,,,,,,2023-08-16_08h36.51.832,HF_wild_card,2022.2.4,MacIntel,37.03703704,5c8ba607c5366c0001d022cb,64d2fd46c836a06233681665,64dc7c240fd16a25adb512a4,,,,,,,sngl,resources/Empty.png,resources/DR.BMP,WildCard_Ex,0.216407355,-0.11669024,1,0,0,0.664,optionRight,95,1505,1,30,0,30,0,1,,,,,,,,,,,,,,,,,,,,,,,,,,,,,,,,,,,,,,,
,,,,,,,,2023-08-16_08h36.51.832,HF_wild_card,2022.2.4,MacIntel,37.03703704,5c8ba607c5366c0001d022cb,64d2fd46c836a06233681665,64dc7c240fd16a25adb512a4,,,,,,,decisionTrl,resources/DBN.BMP,resources/DY.BMP,Door3,-0.243281471,-0.044554455,1,0,0,0.385,optionLeft,70,1575,1,31,0,31,0,1,,,,,,,,,,,,,,,,,,,,,,,,,,,,,,,,,,,,,,,
,,,,,,,,2023-08-16_08h36.51.832,HF_wild_card,2022.2.4,MacIntel,37.03703704,5c8ba607c5366c0001d022cb,64d2fd46c836a06233681665,64dc7c240fd16a25adb512a4,,,,,,,decisionTrl,resources/DB.BMP,resources/DP.BMP,Door1,-0.261669024,-0.081329562,1,0,0,0.38,optionLeft,30,1605,1,32,0,32,0,1,,,,,,,,,,,,,,,,,,,,,,,,,,,,,,,,,,,,,,,
,,,,,,,,2023-08-16_08h36.51.832,HF_wild_card,2022.2.4,MacIntel,37.03703704,5c8ba607c5366c0001d022cb,64d2fd46c836a06233681665,64dc7c240fd16a25adb512a4,,,,,,,decisionTrl,resources/DBN.BMP,resources/DY.BMP,Door4,0.216407355,-0.082743989,1,0,0,0.347,optionRight,80,1685,1,33,0,33,0,1,,,,,,,,,,,,,,,,,,,,,,,,,,,,,,,,,,,,,,,
,,,,,,,,2023-08-16_08h36.51.832,HF_wild_card,2022.2.4,MacIntel,37.03703704,5c8ba607c5366c0001d022cb,64d2fd46c836a06233681665,64dc7c240fd16a25adb512a4,,,,,,,decisionTrl,resources/DBN.BMP,resources/DY.BMP,Door3,-0.198019802,0.030410184,1,0,0,0.579,optionLeft,70,1755,1,34,0,34,0,1,,,,,,,,,,,,,,,,,,,,,,,,,,,,,,,,,,,,,,,
,,,,,,,,2023-08-16_08h36.51.832,HF_wild_card,2022.2.4,MacIntel,37.03703704,5c8ba607c5366c0001d022cb,64d2fd46c836a06233681665,64dc7c240fd16a25adb512a4,,,,,,,sngl,resources/DY.BMP,resources/Empty.png,Door4,-0.277227723,-0.023338048,1,0,0,0.33,optionLeft,80,1835,1,35,0,35,0,1,,,,,,,,,,,,,,,,,,,,,,,,,,,,,,,,,,,,,,,
,,,,,,,,2023-08-16_08h36.51.832,HF_wild_card,2022.2.4,MacIntel,37.03703704,5c8ba607c5366c0001d022cb,64d2fd46c836a06233681665,64dc7c240fd16a25adb512a4,,,,,,,sngl,resources/Empty.png,resources/DY.BMP,Door4,-0.254596888,-0.003536068,1,0,0,0.317,optionRight,60,1895,1,36,0,36,0,1,,,,,,,,,,,,,,,,,,,,,,,,,,,,,,,,,,,,,,,
,,,,,,,,2023-08-16_08h36.51.832,HF_wild_card,2022.2.4,MacIntel,37.03703704,5c8ba607c5366c0001d022cb,64d2fd46c836a06233681665,64dc7c240fd16a25adb512a4,,,,,,,decisionTrl,resources/DR.BMP,resources/DBN.BMP,WildCard_Ex,-0.54738331,0.014851485,1,0,0,0.365,optionLeft,5,1900,1,37,0,37,0,1,,,,,,,,,,,,,,,,,,,,,,,,,,,,,,,,,,,,,,,
,,,,,,,,2023-08-16_08h36.51.832,HF_wild_card,2022.2.4,MacIntel,37.03703704,5c8ba607c5366c0001d022cb,64d2fd46c836a06233681665,64dc7c240fd16a25adb512a4,,,,,,,decisionTrl,resources/DB.BMP,resources/DP.BMP,Door2,0.513437058,-0.071428571,1,0,0,0.365,optionRight,40,1940,1,38,0,38,0,1,,,,,,,,,,,,,,,,,,,,,,,,,,,,,,,,,,,,,,,
,,,,,,,,2023-08-16_08h36.51.832,HF_wild_card,2022.2.4,MacIntel,37.03703704,5c8ba607c5366c0001d022cb,64d2fd46c836a06233681665,64dc7c240fd16a25adb512a4,,,,,,,ctch,resources/DP.BMP,resources/DBN.BMP,Door2,-0.438472419,-0.006364922,1,0,0,0.431,optionLeft,40,1980,1,39,0,39,0,1,,,,,,,,,,,,,,,,,,,,,,,,,,,,,,,,,,,,,,,
,,,,,,,,2023-08-16_08h36.51.832,HF_wild_card,2022.2.4,MacIntel,37.03703704,5c8ba607c5366c0001d022cb,64d2fd46c836a06233681665,64dc7c240fd16a25adb512a4,,,,,,,sngl,resources/DP.BMP,resources/Empty.png,Door2,0.56718529,-0.081329562,1,0,0,0.377,optionLeft,40,2020,1,40,0,40,0,1,,,,,,,,,,,,,,,,,,,,,,,,,,,,,,,,,,,,,,,
,,,,,,,,2023-08-16_08h36.51.832,HF_wild_card,2022.2.4,MacIntel,37.03703704,5c8ba607c5366c0001d022cb,64d2fd46c836a06233681665,64dc7c240fd16a25adb512a4,,,,,,,sngl,resources/DR.BMP,resources/Empty.png,WildCard_Ex,-0.431400283,-0.010608204,1,0,0,0.413,optionLeft,95,2115,1,41,0,41,0,1,,,,,,,,,,,,,,,,,,,,,,,,,,,,,,,,,,,,,,,
,,,,,,,,2023-08-16_08h36.51.832,HF_wild_card,2022.2.4,MacIntel,37.03703704,5c8ba607c5366c0001d022cb,64d2fd46c836a06233681665,64dc7c240fd16a25adb512a4,,,,,,,ctch,resources/DBN.BMP,resources/DP.BMP,Door3,-0.455445545,-0.034653465,1,0,0,0.63,optionLeft,70,2185,1,42,0,42,0,1,,,,,,,,,,,,,,,,,,,,,,,,,,,,,,,,,,,,,,,
,,,,,,,,2023-08-16_08h36.51.832,HF_wild_card,2022.2.4,MacIntel,37.03703704,5c8ba607c5366c0001d022cb,64d2fd46c836a06233681665,64dc7c240fd16a25adb512a4,,,,,,,decisionTrl,resources/DY.BMP,resources/DBN.BMP,Door4,-0.387553041,0.003536068,1,0,0,0.364,optionLeft,80,2265,1,43,0,43,0,1,,,,,,,,,,,,,,,,,,,,,,,,,,,,,,,,,,,,,,,
,,,,,,,,2023-08-16_08h36.51.832,HF_wild_card,2022.2.4,MacIntel,37.03703704,5c8ba607c5366c0001d022cb,64d2fd46c836a06233681665,64dc7c240fd16a25adb512a4,,,,,,,,,,,,,,,,,,,,,,,,,,0,0,0,0,1,,,,,,,,,,,,,,,,,,,,,,,,,,,,,,,,,,
,,,,,,,,2023-08-16_08h36.51.832,HF_wild_card,2022.2.4,MacIntel,37.03703704,5c8ba607c5366c0001d022cb,64d2fd46c836a06233681665,64dc7c240fd16a25adb512a4,,,,,,,decisionTrl,resources/DP.BMP,resources/DB.BMP,Door2,-0.40311174,-0.061527581,1,0,0,0.441,optionLeft,20,2285,2,0,0,0,0,1,,,,,,,,,,,,,,,,,,,,,,,,,,,,,,,,,,,,,,,
,,,,,,,,2023-08-16_08h36.51.832,HF_wild_card,2022.2.4,MacIntel,37.03703704,5c8ba607c5366c0001d022cb,64d2fd46c836a06233681665,64dc7c240fd16a25adb512a4,,,,,,,decisionTrl,resources/DY.BMP,resources/DBN.BMP,Door3,0.543140028,-0.054455446,1,0,0,0.37,optionRight,70,2355,2,1,0,1,0,1,,,,,,,,,,,,,,,,,,,,,,,,,,,,,,,,,,,,,,,
,,,,,,,,2023-08-16_08h36.51.832,HF_wild_card,2022.2.4,MacIntel,37.03703704,5c8ba607c5366c0001d022cb,64d2fd46c836a06233681665,64dc7c240fd16a25adb512a4,,,,,,,decisionTrl,resources/DR.BMP,resources/DY.BMP,Door4,0.56718529,-0.055869873,1,0,0,0.347,optionRight,60,2415,2,2,0,2,0,1,,,,,,,,,,,,,,,,,,,,,,,,,,,,,,,,,,,,,,,
,,,,,,,,2023-08-16_08h36.51.832,HF_wild_card,2022.2.4,MacIntel,37.03703704,5c8ba607c5366c0001d022cb,64d2fd46c836a06233681665,64dc7c240fd16a25adb512a4,,,,,,,sngl,resources/DR.BMP,resources/Empty.png,WildCard_Ex,-0.408769448,-0.092644979,1,0,0,0.415,optionLeft,95,2510,2,3,0,3,0,1,,,,,,,,,,,,,,,,,,,,,,,,,,,,,,,,,,,,,,,
,,,,,,,,2023-08-16_08h36.51.832,HF_wild_card,2022.2.4,MacIntel,37.03703704,5c8ba607c5366c0001d022cb,64d2fd46c836a06233681665,64dc7c240fd16a25adb512a4,,,,,,,decisionTrl,resources/DY.BMP,resources/DBN.BMP,Door4,-0.429985856,-0.102545969,1,0,0,0.414,optionLeft,60,2570,2,4,0,4,0,1,,,,,,,,,,,,,,,,,,,,,,,,,,,,,,,,,,,,,,,
,,,,,,,,2023-08-16_08h36.51.832,HF_wild_card,2022.2.4,MacIntel,37.03703704,5c8ba607c5366c0001d022cb,64d2fd46c836a06233681665,64dc7c240fd16a25adb512a4,,,,,,,decisionTrl,resources/DBN.BMP,resources/DY.BMP,Door3,-0.449787836,-0.098302687,1,0,0,0.461,optionLeft,70,2640,2,5,0,5,0,1,,,,,,,,,,,,,,,,,,,,,,,,,,,,,,,,,,,,,,,
,,,,,,,,2023-08-16_08h36.51.832,HF_wild_card,2022.2.4,MacIntel,37.03703704,5c8ba607c5366c0001d022cb,64d2fd46c836a06233681665,64dc7c240fd16a25adb512a4,,,,,,,sngl,resources/DP.BMP,resources/Empty.png,Door2,-0.438472419,-0.09688826,1,0,0,0.382,optionLeft,20,2660,2,6,0,6,0,1,,,,,,,,,,,,,,,,,,,,,,,,,,,,,,,,,,,,,,,
,,,,,,,,2023-08-16_08h36.51.832,HF_wild_card,2022.2.4,MacIntel,37.03703704,5c8ba607c5366c0001d022cb,64d2fd46c836a06233681665,64dc7c240fd16a25adb512a4,,,,,,,ctch,resources/DY.BMP,resources/DB.BMP,Door4,-0.459688826,-0.111032532,1,0,0,0.466,optionLeft,60,2720,2,7,0,7,0,1,,,,,,,,,,,,,,,,,,,,,,,,,,,,,,,,,,,,,,,
,,,,,,,,2023-08-16_08h36.51.832,HF_wild_card,2022.2.4,MacIntel,37.03703704,5c8ba607c5366c0001d022cb,64d2fd46c836a06233681665,64dc7c240fd16a25adb512a4,,,,,,,sngl,resources/DR.BMP,resources/Empty.png,WildCard_Ex,-0.397454031,-0.06718529,1,0,0,0.414,optionLeft,5,2725,2,8,0,8,0,1,,,,,,,,,,,,,,,,,,,,,,,,,,,,,,,,,,,,,,,
,,,,,,,,2023-08-16_08h36.51.832,HF_wild_card,2022.2.4,MacIntel,37.03703704,5c8ba607c5366c0001d022cb,64d2fd46c836a06233681665,64dc7c240fd16a25adb512a4,,,,,,,decisionTrl,resources/DB.BMP,resources/DP.BMP,Door2,0.57708628,-0.000707214,1,0,0,0.362,optionRight,40,2765,2,9,0,9,0,1,,,,,,,,,,,,,,,,,,,,,,,,,,,,,,,,,,,,,,,
,,,,,,,,2023-08-16_08h36.51.832,HF_wild_card,2022.2.4,MacIntel,37.03703704,5c8ba607c5366c0001d022cb,64d2fd46c836a06233681665,64dc7c240fd16a25adb512a4,,,,,,,decisionTrl,resources/DR.BMP,resources/DP.BMP,WildCard_Ex,-0.373408769,-0.023338048,1,0,0,0.365,optionLeft,5,2770,2,10,0,10,0,1,,,,,,,,,,,,,,,,,,,,,,,,,,,,,,,,,,,,,,,
,,,,,,,,2023-08-16_08h36.51.832,HF_wild_card,2022.2.4,MacIntel,37.03703704,5c8ba607c5366c0001d022cb,64d2fd46c836a06233681665,64dc7c240fd16a25adb512a4,,,,,,,sngl,resources/Empty.png,resources/DB.BMP,Door1,0.572842999,0.016265912,1,0,0,0.398,optionRight,30,2800,2,11,0,11,0,1,,,,,,,,,,,,,,,,,,,,,,,,,,,,,,,,,,,,,,,
,,,,,,,,2023-08-16_08h36.51.832,HF_wild_card,2022.2.4,MacIntel,37.03703704,5c8ba607c5366c0001d022cb,64d2fd46c836a06233681665,64dc7c240fd16a25adb512a4,,,,,,,decisionTrl,resources/DBN.BMP,resources/DY.BMP,Door3,-0.444130127,-0.074257426,1,0,0,0.364,optionLeft,70,2870,2,12,0,12,0,1,,,,,,,,,,,,,,,,,,,,,,,,,,,,,,,,,,,,,,,
,,,,,,,,2023-08-16_08h36.51.832,HF_wild_card,2022.2.4,MacIntel,37.03703704,5c8ba607c5366c0001d022cb,64d2fd46c836a06233681665,64dc7c240fd16a25adb512a4,,,,,,,sngl,resources/DB.BMP,resources/Empty.png,Door1,-0.404526167,-0.082743989,1,0,0,0.378,optionLeft,30,2900,2,13,0,13,0,1,,,,,,,,,,,,,,,,,,,,,,,,,,,,,,,,,,,,,,,
,,,,,,,,2023-08-16_08h36.51.832,HF_wild_card,2022.2.4,MacIntel,37.03703704,5c8ba607c5366c0001d022cb,64d2fd46c836a06233681665,64dc7c240fd16a25adb512a4,,,,,,,ctch,resources/DBN.BMP,resources/DP.BMP,Door3,-0.428571429,-0.101131542,1,0,0,0.449,optionLeft,70,2970,2,14,0,14,0,1,,,,,,,,,,,,,,,,,,,,,,,,,,,,,,,,,,,,,,,
,,,,,,,,2023-08-16_08h36.51.832,HF_wild_card,2022.2.4,MacIntel,37.03703704,5c8ba607c5366c0001d022cb,64d2fd46c836a06233681665,64dc7c240fd16a25adb512a4,,,,,,,decisionTrl,resources/DY.BMP,resources/DBN.BMP,Door3,0.560113154,-0.045968883,1,0,0,0.581,optionRight,70,3040,2,15,0,15,0,1,,,,,,,,,,,,,,,,,,,,,,,,,,,,,,,,,,,,,,,
,,,,,,,,2023-08-16_08h36.51.832,HF_wild_card,2022.2.4,MacIntel,37.03703704,5c8ba607c5366c0001d022cb,64d2fd46c836a06233681665,64dc7c240fd16a25adb512a4,,,,,,,ctch,resources/DB.BMP,resources/DY.BMP,Door1,-0.387553041,-0.014851485,1,0,0,0.345,optionLeft,30,3070,2,16,0,16,0,1,,,,,,,,,,,,,,,,,,,,,,,,,,,,,,,,,,,,,,,
,,,,,,,,2023-08-16_08h36.51.832,HF_wild_card,2022.2.4,MacIntel,37.03703704,5c8ba607c5366c0001d022cb,64d2fd46c836a06233681665,64dc7c240fd16a25adb512a4,,,,,,,decisionTrl,resources/DP.BMP,resources/DB.BMP,Door1,0.592644979,-0.082743989,1,0,0,0.329,optionRight,30,3100,2,17,0,17,0,1,,,,,,,,,,,,,,,,,,,,,,,,,,,,,,,,,,,,,,,
,,,,,,,,2023-08-16_08h36.51.832,HF_wild_card,2022.2.4,MacIntel,37.03703704,5c8ba607c5366c0001d022cb,64d2fd46c836a06233681665,64dc7c240fd16a25adb512a4,,,,,,,decisionTrl,resources/DY.BMP,resources/DBN.BMP,Door4,-0.367751061,0.007779349,1,0,0,0.365,optionLeft,60,3160,2,18,0,18,0,1,,,,,,,,,,,,,,,,,,,,,,,,,,,,,,,,,,,,,,,
,,,,,,,,2023-08-16_08h36.51.832,HF_wild_card,2022.2.4,MacIntel,37.03703704,5c8ba607c5366c0001d022cb,64d2fd46c836a06233681665,64dc7c240fd16a25adb512a4,,,,,,,decisionTrl,resources/DBN.BMP,resources/DY.BMP,Door3,-0.325318246,0.023338048,1,0,0,0.446,optionLeft,70,3230,2,19,0,19,0,1,,,,,,,,,,,,,,,,,,,,,,,,,,,,,,,,,,,,,,,
,,,,,,,,2023-08-16_08h36.51.832,HF_wild_card,2022.2.4,MacIntel,37.03703704,5c8ba607c5366c0001d022cb,64d2fd46c836a06233681665,64dc7c240fd16a25adb512a4,,,,,,,decisionTrl,resources/DP.BMP,resources/DB.BMP,Door2,-0.390381895,0.051626591,1,0,0,0.434,optionLeft,20,3250,2,20,0,20,0,1,,,,,,,,,,,,,,,,,,,,,,,,,,,,,,,,,,,,,,,
,,,,,,,,2023-08-16_08h36.51.832,HF_wild_card,2022.2.4,MacIntel,37.03703704,5c8ba607c5366c0001d022cb,64d2fd46c836a06233681665,64dc7c240fd16a25adb512a4,,,,,,,ctch,resources/DB.BMP,resources/DY.BMP,Door4,0.198019802,-0.173267327,1,0,0,0.462,optionRight,60,3310,2,21,0,21,0,1,,,,,,,,,,,,,,,,,,,,,,,,,,,,,,,,,,,,,,,
,,,,,,,,2023-08-16_08h36.51.832,HF_wild_card,2022.2.4,MacIntel,37.03703704,5c8ba607c5366c0001d022cb,64d2fd46c836a06233681665,64dc7c240fd16a25adb512a4,,,,,,,sngl,resources/Empty.png,resources/DP.BMP,Door2,0.195190948,-0.195898161,1,0,0,0.649,optionRight,40,3350,2,22,0,22,0,1,,,,,,,,,,,,,,,,,,,,,,,,,,,,,,,,,,,,,,,
,,,,,,,,2023-08-16_08h36.51.832,HF_wild_card,2022.2.4,MacIntel,37.03703704,5c8ba607c5366c0001d022cb,64d2fd46c836a06233681665,64dc7c240fd16a25adb512a4,,,,,,,ctch,resources/DBN.BMP,resources/DP.BMP,Door3,-0.287128713,-0.06718529,1,0,0,0.38,optionLeft,70,3420,2,23,0,23,0,1,,,,,,,,,,,,,,,,,,,,,,,,,,,,,,,,,,,,,,,
,,,,,,,,2023-08-16_08h36.51.832,HF_wild_card,2022.2.4,MacIntel,37.03703704,5c8ba607c5366c0001d022cb,64d2fd46c836a06233681665,64dc7c240fd16a25adb512a4,,,,,,,sngl,resources/DY.BMP,resources/Empty.png,Door4,-0.295615276,0.012022631,1,0,0,0.447,optionLeft,60,3480,2,24,0,24,0,1,,,,,,,,,,,,,,,,,,,,,,,,,,,,,,,,,,,,,,,
,,,,,,,,2023-08-16_08h36.51.832,HF_wild_card,2022.2.4,MacIntel,37.03703704,5c8ba607c5366c0001d022cb,64d2fd46c836a06233681665,64dc7c240fd16a25adb512a4,,,,,,,decisionTrl,resources/DB.BMP,resources/DP.BMP,Door1,-0.247524752,-0.000707214,1,0,0,0.399,optionLeft,30,3510,2,25,0,25,0,1,,,,,,,,,,,,,,,,,,,,,,,,,,,,,,,,,,,,,,,
,,,,,,,,2023-08-16_08h36.51.832,HF_wild_card,2022.2.4,MacIntel,37.03703704,5c8ba607c5366c0001d022cb,64d2fd46c836a06233681665,64dc7c240fd16a25adb512a4,,,,,,,sngl,resources/Empty.png,resources/DR.BMP,WildCard_Ex,0.247524752,-0.1718529,1,0,0,0.464,optionRight,5,3515,2,26,0,26,0,1,,,,,,,,,,,,,,,,,,,,,,,,,,,,,,,,,,,,,,,
,,,,,,,,2023-08-16_08h36.51.832,HF_wild_card,2022.2.4,MacIntel,37.03703704,5c8ba607c5366c0001d022cb,64d2fd46c836a06233681665,64dc7c240fd16a25adb512a4,,,,,,,ctch,resources/DY.BMP,resources/DB.BMP,Door4,-0.25884017,0.013437058,1,0,0,0.413,optionLeft,80,3595,2,27,0,27,0,1,,,,,,,,,,,,,,,,,,,,,,,,,,,,,,,,,,,,,,,
,,,,,,,,2023-08-16_08h36.51.832,HF_wild_card,2022.2.4,MacIntel,37.03703704,5c8ba607c5366c0001d022cb,64d2fd46c836a06233681665,64dc7c240fd16a25adb512a4,,,,,,,decisionTrl,resources/DY.BMP,resources/DR.BMP,Door4,-0.27864215,0.014851485,1,0,0,1.197,optionLeft,80,3675,2,28,0,28,0,1,,,,,,,,,,,,,,,,,,,,,,,,,,,,,,,,,,,,,,,
,,,,,,,,2023-08-16_08h36.51.832,HF_wild_card,2022.2.4,MacIntel,37.03703704,5c8ba607c5366c0001d022cb,64d2fd46c836a06233681665,64dc7c240fd16a25adb512a4,,,,,,,sngl,resources/Empty.png,resources/DBN.BMP,Door3,0.227722772,-0.144978784,1,0,0,0.565,optionRight,70,3745,2,29,0,29,0,1,,,,,,,,,,,,,,,,,,,,,,,,,,,,,,,,,,,,,,,
,,,,,,,,2023-08-16_08h36.51.832,HF_wild_card,2022.2.4,MacIntel,37.03703704,5c8ba607c5366c0001d022cb,64d2fd46c836a06233681665,64dc7c240fd16a25adb512a4,,,,,,,decisionTrl,resources/DB.BMP,resources/DP.BMP,Door1,-0.257425743,0.024752475,1,0,0,0.513,optionLeft,30,3775,2,30,0,30,0,1,,,,,,,,,,,,,,,,,,,,,,,,,,,,,,,,,,,,,,,
,,,,,,,,2023-08-16_08h36.51.832,HF_wild_card,2022.2.4,MacIntel,37.03703704,5c8ba607c5366c0001d022cb,64d2fd46c836a06233681665,64dc7c240fd16a25adb512a4,,,,,,,decisionTrl,resources/DR.BMP,resources/DBN.BMP,Door3,0.23903819,-0.126591231,1,0,0,0.448,optionRight,70,3845,2,31,0,31,0,1,,,,,,,,,,,,,,,,,,,,,,,,,,,,,,,,,,,,,,,
,,,,,,,,2023-08-16_08h36.51.832,HF_wild_card,2022.2.4,MacIntel,37.03703704,5c8ba607c5366c0001d022cb,64d2fd46c836a06233681665,64dc7c240fd16a25adb512a4,,,,,,,decisionTrl,resources/DP.BMP,resources/DB.BMP,Door2,-0.434229137,0.009193777,1,0,0,0.365,optionLeft,40,3885,2,32,0,32,0,1,,,,,,,,,,,,,,,,,,,,,,,,,,,,,,,,,,,,,,,
,,,,,,,,2023-08-16_08h36.51.832,HF_wild_card,2022.2.4,MacIntel,37.03703704,5c8ba607c5366c0001d022cb,64d2fd46c836a06233681665,64dc7c240fd16a25adb512a4,,,,,,,ctch,resources/DP.BMP,resources/DBN.BMP,Door3,0.56718529,-0.041725601,1,0,0,0.381,optionRight,70,3955,2,33,0,33,0,1,,,,,,,,,,,,,,,,,,,,,,,,,,,,,,,,,,,,,,,
,,,,,,,,2023-08-16_08h36.51.832,HF_wild_card,2022.2.4,MacIntel,37.03703704,5c8ba607c5366c0001d022cb,64d2fd46c836a06233681665,64dc7c240fd16a25adb512a4,,,,,,,decisionTrl,resources/DBN.BMP,resources/DY.BMP,Door3,-0.446958982,0.003536068,1,0,0,0.81,optionLeft,70,4025,2,34,0,34,0,1,,,,,,,,,,,,,,,,,,,,,,,,,,,,,,,,,,,,,,,
,,,,,,,,2023-08-16_08h36.51.832,HF_wild_card,2022.2.4,MacIntel,37.03703704,5c8ba607c5366c0001d022cb,64d2fd46c836a06233681665,64dc7c240fd16a25adb512a4,,,,,,,sngl,resources/Empty.png,resources/DR.BMP,WildCard_Ex,0.572842999,-0.038896747,1,0,0,0.431,optionRight,95,4120,2,35,0,35,0,1,,,,,,,,,,,,,,,,,,,,,,,,,,,,,,,,,,,,,,,
,,,,,,,,2023-08-16_08h36.51.832,HF_wild_card,2022.2.4,MacIntel,37.03703704,5c8ba607c5366c0001d022cb,64d2fd46c836a06233681665,64dc7c240fd16a25adb512a4,,,,,,,decisionTrl,resources/DP.BMP,resources/DR.BMP,WildCard_Ex,0.564356436,-0.041725601,1,0,0,0.765,optionRight,95,4215,2,36,0,36,0,1,,,,,,,,,,,,,,,,,,,,,,,,,,,,,,,,,,,,,,,
,,,,,,,,2023-08-16_08h36.51.832,HF_wild_card,2022.2.4,MacIntel,37.03703704,5c8ba607c5366c0001d022cb,64d2fd46c836a06233681665,64dc7c240fd16a25adb512a4,,,,,,,decisionTrl,resources/DR.BMP,resources/DB.BMP,WildCard_Ex,-0.471004243,0.006364922,1,0,0,0.632,optionLeft,95,4310,2,37,0,37,0,1,,,,,,,,,,,,,,,,,,,,,,,,,,,,,,,,,,,,,,,
,,,,,,,,2023-08-16_08h36.51.832,HF_wild_card,2022.2.4,MacIntel,37.03703704,5c8ba607c5366c0001d022cb,64d2fd46c836a06233681665,64dc7c240fd16a25adb512a4,,,,,,,sngl,resources/Empty.png,resources/DY.BMP,Door4,0.558698727,-0.034653465,1,0,0,0.698,optionRight,80,4390,2,38,0,38,0,1,,,,,,,,,,,,,,,,,,,,,,,,,,,,,,,,,,,,,,,
,,,,,,,,2023-08-16_08h36.51.832,HF_wild_card,2022.2.4,MacIntel,37.03703704,5c8ba607c5366c0001d022cb,64d2fd46c836a06233681665,64dc7c240fd16a25adb512a4,,,,,,,ctch,resources/DP.BMP,resources/DBN.BMP,Door3,0.591230552,-0.000707214,1,0,0,0.562,optionRight,70,4460,2,39,0,39,0,1,,,,,,,,,,,,,,,,,,,,,,,,,,,,,,,,,,,,,,,
,,,,,,,,2023-08-16_08h36.51.832,HF_wild_card,2022.2.4,MacIntel,37.03703704,5c8ba607c5366c0001d022cb,64d2fd46c836a06233681665,64dc7c240fd16a25adb512a4,,,,,,,decisionTrl,resources/DB.BMP,resources/DP.BMP,Door2,0.609618105,0.003536068,1,0,0,1.019,optionRight,40,4500,2,40,0,40,0,1,,,,,,,,,,,,,,,,,,,,,,,,,,,,,,,,,,,,,,,
,,,,,,,,2023-08-16_08h36.51.832,HF_wild_card,2022.2.4,MacIntel,37.03703704,5c8ba607c5366c0001d022cb,64d2fd46c836a06233681665,64dc7c240fd16a25adb512a4,,,,,,,decisionTrl,resources/DB.BMP,resources/DR.BMP,WildCard_Ex,0.575671853,-0.024752475,1,0,0,0.694,optionRight,95,4595,2,41,0,41,0,1,,,,,,,,,,,,,,,,,,,,,,,,,,,,,,,,,,,,,,,
,,,,,,,,2023-08-16_08h36.51.832,HF_wild_card,2022.2.4,MacIntel,37.03703704,5c8ba607c5366c0001d022cb,64d2fd46c836a06233681665,64dc7c240fd16a25adb512a4,,,,,,,sngl,resources/DBN.BMP,resources/Empty.png,Door3,-0.475247525,0.023338048,1,0,0,0.516,optionLeft,70,4665,2,42,0,42,0,1,,,,,,,,,,,,,,,,,,,,,,,,,,,,,,,,,,,,,,,
,,,,,,,,2023-08-16_08h36.51.832,HF_wild_card,2022.2.4,MacIntel,37.03703704,5c8ba607c5366c0001d022cb,64d2fd46c836a06233681665,64dc7c240fd16a25adb512a4,,,,,,,decisionTrl,resources/DBN.BMP,resources/DR.BMP,WildCard_Ex,0.571428571,-0.017680339,1,0,0,0.48,optionRight,5,4670,2,43,0,43,0,1,,,,,,,,,,,,,,,,,,,,,,,,,,,,,,,,,,,,,,,
,,,,,,,,2023-08-16_08h36.51.832,HF_wild_card,2022.2.4,MacIntel,37.03703704,5c8ba607c5366c0001d022cb,64d2fd46c836a06233681665,64dc7c240fd16a25adb512a4,,,,,,,,,,,,,,,,,,,,,,,,,,1,0,1,0,1,,,,,,,,,,,,,,,,,,,,,,,,,,,,,,,,,,
,,,,,,,,2023-08-16_08h36.51.832,HF_wild_card,2022.2.4,MacIntel,37.03703704,5c8ba607c5366c0001d022cb,64d2fd46c836a06233681665,64dc7c240fd16a25adb512a4,,,,,,,sngl,resources/DY.BMP,resources/Empty.png,Door4,-0.437057992,-0.065770863,1,0,0,0.879,optionLeft,80,4750,3,0,0,0,0,1,,,,,,,,,,,,,,,,,,,,,,,,,,,,,,,,,,,,,,,
,,,,,,,,2023-08-16_08h36.51.832,HF_wild_card,2022.2.4,MacIntel,37.03703704,5c8ba607c5366c0001d022cb,64d2fd46c836a06233681665,64dc7c240fd16a25adb512a4,,,,,,,decisionTrl,resources/DR.BMP,resources/DBN.BMP,WildCard_Ex,-0.349363508,-0.007779349,1,0,0,0.347,optionLeft,5,4755,3,1,0,1,0,1,,,,,,,,,,,,,,,,,,,,,,,,,,,,,,,,,,,,,,,
,,,,,,,,2023-08-16_08h36.51.832,HF_wild_card,2022.2.4,MacIntel,37.03703704,5c8ba607c5366c0001d022cb,64d2fd46c836a06233681665,64dc7c240fd16a25adb512a4,,,,,,,ctch,resources/DB.BMP,resources/DY.BMP,Door1,-0.490806223,-0.013437058,1,0,0,1.349,optionLeft,30,4785,3,2,0,2,0,1,,,,,,,,,,,,,,,,,,,,,,,,,,,,,,,,,,,,,,,
,,,,,,,,2023-08-16_08h36.51.832,HF_wild_card,2022.2.4,MacIntel,37.03703704,5c8ba607c5366c0001d022cb,64d2fd46c836a06233681665,64dc7c240fd16a25adb512a4,,,,,,,ctch,resources/DP.BMP,resources/DBN.BMP,Door3,0.548797737,0.091230552,1,0,0,0.448,optionRight,70,4855,3,3,0,3,0,1,,,,,,,,,,,,,,,,,,,,,,,,,,,,,,,,,,,,,,,
,,,,,,,,2023-08-16_08h36.51.832,HF_wild_card,2022.2.4,MacIntel,37.03703704,5c8ba607c5366c0001d022cb,64d2fd46c836a06233681665,64dc7c240fd16a25adb512a4,,,,,,,decisionTrl,resources/DY.BMP,resources/DBN.BMP,Door3,0.540311174,0.08698727,1,0,0,0.442,optionRight,70,4925,3,4,0,4,0,1,,,,,,,,,,,,,,,,,,,,,,,,,,,,,,,,,,,,,,,
,,,,,,,,2023-08-16_08h36.51.832,HF_wild_card,2022.2.4,MacIntel,37.03703704,5c8ba607c5366c0001d022cb,64d2fd46c836a06233681665,64dc7c240fd16a25adb512a4,,,,,,,decisionTrl,resources/DBN.BMP,resources/DY.BMP,Door3,-0.438472419,0.013437058,1,0,0,0.545,optionLeft,70,4995,3,5,0,5,0,1,,,,,,,,,,,,,,,,,,,,,,,,,,,,,,,,,,,,,,,
,,,,,,,,2023-08-16_08h36.51.832,HF_wild_card,2022.2.4,MacIntel,37.03703704,5c8ba607c5366c0001d022cb,64d2fd46c836a06233681665,64dc7c240fd16a25adb512a4,,,,,,,decisionTrl,resources/DB.BMP,resources/DP.BMP,Door2,0.230551627,-0.202970297,1,0,0,1.398,optionRight,20,5015,3,6,0,6,0,1,,,,,,,,,,,,,,,,,,,,,,,,,,,,,,,,,,,,,,,
,,,,,,,,2023-08-16_08h36.51.832,HF_wild_card,2022.2.4,MacIntel,37.03703704,5c8ba607c5366c0001d022cb,64d2fd46c836a06233681665,64dc7c240fd16a25adb512a4,,,,,,,ctch,resources/DP.BMP,resources/DBN.BMP,Door3,0.230551627,-0.128005658,1,0,0,0.615,optionRight,70,5085,3,7,0,7,0,1,,,,,,,,,,,,,,,,,,,,,,,,,,,,,,,,,,,,,,,
,,,,,,,,2023-08-16_08h36.51.832,HF_wild_card,2022.2.4,MacIntel,37.03703704,5c8ba607c5366c0001d022cb,64d2fd46c836a06233681665,64dc7c240fd16a25adb512a4,,,,,,,decisionTrl,resources/DY.BMP,resources/DBN.BMP,Door3,0.210749646,-0.169024045,1,0,0,0.597,optionRight,70,5155,3,8,0,8,0,1,,,,,,,,,,,,,,,,,,,,,,,,,,,,,,,,,,,,,,,
,,,,,,,,2023-08-16_08h36.51.832,HF_wild_card,2022.2.4,MacIntel,37.03703704,5c8ba607c5366c0001d022cb,64d2fd46c836a06233681665,64dc7c240fd16a25adb512a4,,,,,,,decisionTrl,resources/DP.BMP,resources/DB.BMP,Door1,0.233380481,-0.159123055,1,0,0,2.397,optionRight,30,5185,3,9,0,9,0,1,,,,,,,,,,,,,,,,,,,,,,,,,,,,,,,,,,,,,,,
,,,,,,,,2023-08-16_08h36.51.832,HF_wild_card,2022.2.4,MacIntel,37.03703704,5c8ba607c5366c0001d022cb,64d2fd46c836a06233681665,64dc7c240fd16a25adb512a4,,,,,,,decisionTrl,resources/DBN.BMP,resources/DR.BMP,Door3,-0.26874116,0.188826025,1,0,0,0.88,optionLeft,70,5255,3,10,0,10,0,1,,,,,,,,,,,,,,,,,,,,,,,,,,,,,,,,,,,,,,,
,,,,,,,,2023-08-16_08h36.51.832,HF_wild_card,2022.2.4,MacIntel,37.03703704,5c8ba607c5366c0001d022cb,64d2fd46c836a06233681665,64dc7c240fd16a25adb512a4,,,,,,,decisionTrl,resources/DB.BMP,resources/DR.BMP,WildCard_Ex,0.27864215,-0.092644979,1,0,0,0.881,optionRight,5,5260,3,11,0,11,0,1,,,,,,,,,,,,,,,,,,,,,,,,,,,,,,,,,,,,,,,
,,,,,,,,2023-08-16_08h36.51.832,HF_wild_card,2022.2.4,MacIntel,37.03703704,5c8ba607c5366c0001d022cb,64d2fd46c836a06233681665,64dc7c240fd16a25adb512a4,,,,,,,sngl,resources/DR.BMP,resources/Empty.png,WildCard_Ex,-0.349363508,0.095473833,1,0,0,0.544,optionLeft,95,5355,3,12,0,12,0,1,,,,,,,,,,,,,,,,,,,,,,,,,,,,,,,,,,,,,,,
,,,,,,,,2023-08-16_08h36.51.832,HF_wild_card,2022.2.4,MacIntel,37.03703704,5c8ba607c5366c0001d022cb,64d2fd46c836a06233681665,64dc7c240fd16a25adb512a4,,,,,,,ctch,resources/DBN.BMP,resources/DP.BMP,Door3,-0.219236209,-0.03748232,1,0,0,0.596,optionLeft,70,5425,3,13,0,13,0,1,,,,,,,,,,,,,,,,,,,,,,,,,,,,,,,,,,,,,,,
,,,,,,,,2023-08-16_08h36.51.832,HF_wild_card,2022.2.4,MacIntel,37.03703704,5c8ba607c5366c0001d022cb,64d2fd46c836a06233681665,64dc7c240fd16a25adb512a4,,,,,,,decisionTrl,resources/DP.BMP,resources/DR.BMP,WildCard_Ex,0.315417256,-0.169024045,1,0,0,0.85,optionRight,5,5430,3,14,0,14,0,1,,,,,,,,,,,,,,,,,,,,,,,,,,,,,,,,,,,,,,,
,,,,,,,,2023-08-16_08h36.51.832,HF_wild_card,2022.2.4,MacIntel,37.03703704,5c8ba607c5366c0001d022cb,64d2fd46c836a06233681665,64dc7c240fd16a25adb512a4,,,,,,,ctch,resources/DB.BMP,resources/DY.BMP,Door1,-0.219236209,-0.026166902,1,0,0,0.863,optionLeft,30,5460,3,15,0,15,0,1,,,,,,,,,,,,,,,,,,,,,,,,,,,,,,,,,,,,,,,
,,,,,,,,2023-08-16_08h36.51.832,HF_wild_card,2022.2.4,MacIntel,37.03703704,5c8ba607c5366c0001d022cb,64d2fd46c836a06233681665,64dc7c240fd16a25adb512a4,,,,,,,decisionTrl,resources/DY.BMP,resources/DBN.BMP,Door3,0.192362093,-0.102545969,1,0,0,0.498,optionRight,70,5530,3,16,0,16,0,1,,,,,,,,,,,,,,,,,,,,,,,,,,,,,,,,,,,,,,,
,,,,,,,,2023-08-16_08h36.51.832,HF_wild_card,2022.2.4,MacIntel,37.03703704,5c8ba607c5366c0001d022cb,64d2fd46c836a06233681665,64dc7c240fd16a25adb512a4,,,,,,,decisionTrl,resources/DP.BMP,resources/DB.BMP,Door2,-0.251768034,-0.010608204,1,0,0,1.3,optionLeft,40,5570,3,17,0,17,0,1,,,,,,,,,,,,,,,,,,,,,,,,,,,,,,,,,,,,,,,
,,,,,,,,2023-08-16_08h36.51.832,HF_wild_card,2022.2.4,MacIntel,37.03703704,5c8ba607c5366c0001d022cb,64d2fd46c836a06233681665,64dc7c240fd16a25adb512a4,,,,,,,decisionTrl,resources/DBN.BMP,resources/DY.BMP,Door3,-0.277227723,-0.041725601,1,0,0,0.515,optionLeft,70,5640,3,18,0,18,0,1,,,,,,,,,,,,,,,,,,,,,,,,,,,,,,,,,,,,,,,
,,,,,,,,2023-08-16_08h36.51.832,HF_wild_card,2022.2.4,MacIntel,37.03703704,5c8ba607c5366c0001d022cb,64d2fd46c836a06233681665,64dc7c240fd16a25adb512a4,,,,,,,sngl,resources/DB.BMP,resources/Empty.png,Door1,-0.223479491,0.006364922,1,0,0,0.48,optionLeft,30,5670,3,19,0,19,0,1,,,,,,,,,,,,,,,,,,,,,,,,,,,,,,,,,,,,,,,
,,,,,,,,2023-08-16_08h36.51.832,HF_wild_card,2022.2.4,MacIntel,37.03703704,5c8ba607c5366c0001d022cb,64d2fd46c836a06233681665,64dc7c240fd16a25adb512a4,,,,,,,sngl,resources/DP.BMP,resources/Empty.png,Door2,-0.264497878,-0.010608204,1,0,0,0.562,optionLeft,40,5710,3,20,0,20,0,1,,,,,,,,,,,,,,,,,,,,,,,,,,,,,,,,,,,,,,,
,,,,,,,,2023-08-16_08h36.51.832,HF_wild_card,2022.2.4,MacIntel,37.03703704,5c8ba607c5366c0001d022cb,64d2fd46c836a06233681665,64dc7c240fd16a25adb512a4,,,,,,,decisionTrl,resources/DY.BMP,resources/DR.BMP,WildCard_Ex,0.182461103,-0.190240453,1,0,0,0.683,optionRight,95,5805,3,21,0,21,0,1,,,,,,,,,,,,,,,,,,,,,,,,,,,,,,,,,,,,,,,
,,,,,,,,2023-08-16_08h36.51.832,HF_wild_card,2022.2.4,MacIntel,37.03703704,5c8ba607c5366c0001d022cb,64d2fd46c836a06233681665,64dc7c240fd16a25adb512a4,,,,,,,sngl,resources/Empty.png,resources/DY.BMP,Door4,0.176803395,-0.18175389,1,0,0,0.696,optionRight,60,5865,3,22,0,22,0,1,,,,,,,,,,,,,,,,,,,,,,,,,,,,,,,,,,,,,,,
,,,,,,,,2023-08-16_08h36.51.832,HF_wild_card,2022.2.4,MacIntel,37.03703704,5c8ba607c5366c0001d022cb,64d2fd46c836a06233681665,64dc7c240fd16a25adb512a4,,,,,,,decisionTrl,resources/DBN.BMP,resources/DY.BMP,Door3,-0.277227723,-0.055869873,1,0,0,0.517,optionLeft,70,5935,3,23,0,23,0,1,,,,,,,,,,,,,,,,,,,,,,,,,,,,,,,,,,,,,,,
,,,,,,,,2023-08-16_08h36.51.832,HF_wild_card,2022.2.4,MacIntel,37.03703704,5c8ba607c5366c0001d022cb,64d2fd46c836a06233681665,64dc7c240fd16a25adb512a4,,,,,,,decisionTrl,resources/DP.BMP,resources/DB.BMP,Door2,-0.523338048,-0.004950495,1,0,0,1.547,optionLeft,40,5975,3,24,0,24,0,1,,,,,,,,,,,,,,,,,,,,,,,,,,,,,,,,,,,,,,,
,,,,,,,,2023-08-16_08h36.51.832,HF_wild_card,2022.2.4,MacIntel,37.03703704,5c8ba607c5366c0001d022cb,64d2fd46c836a06233681665,64dc7c240fd16a25adb512a4,,,,,,,decisionTrl,resources/DR.BMP,resources/DP.BMP,WildCard_Ex,-0.482319661,0.004950495,1,0,0,0.932,optionLeft,5,5980,3,25,0,25,0,1,,,,,,,,,,,,,,,,,,,,,,,,,,,,,,,,,,,,,,,
,,,,,,,,2023-08-16_08h36.51.832,HF_wild_card,2022.2.4,MacIntel,37.03703704,5c8ba607c5366c0001d022cb,64d2fd46c836a06233681665,64dc7c240fd16a25adb512a4,,,,,,,ctch,resources/DY.BMP,resources/DB.BMP,Door4,-0.479490806,0.012022631,1,0,0,0.564,optionLeft,80,6060,3,26,0,26,0,1,,,,,,,,,,,,,,,,,,,,,,,,,,,,,,,,,,,,,,,
,,,,,,,,2023-08-16_08h36.51.832,HF_wild_card,2022.2.4,MacIntel,37.03703704,5c8ba607c5366c0001d022cb,64d2fd46c836a06233681665,64dc7c240fd16a25adb512a4,,,,,,,sngl,resources/Empty.png,resources/DB.BMP,Door1,0.581329562,-0.033239038,1,0,0,0.565,optionRight,30,6090,3,27,0,27,0,1,,,,,,,,,,,,,,,,,,,,,,,,,,,,,,,,,,,,,,,
,,,,,,,,2023-08-16_08h36.51.832,HF_wild_card,2022.2.4,MacIntel,37.03703704,5c8ba607c5366c0001d022cb,64d2fd46c836a06233681665,64dc7c240fd16a25adb512a4,,,,,,,sngl,resources/DBN.BMP,resources/Empty.png,Door3,-0.428571429,0.006364922,1,0,0,0.465,optionLeft,70,6160,3,28,0,28,0,1,,,,,,,,,,,,,,,,,,,,,,,,,,,,,,,,,,,,,,,
,,,,,,,,2023-08-16_08h36.51.832,HF_wild_card,2022.2.4,MacIntel,37.03703704,5c8ba607c5366c0001d022cb,64d2fd46c836a06233681665,64dc7c240fd16a25adb512a4,,,,,,,sngl,resources/Empty.png,resources/DR.BMP,WildCard_Ex,0.598302687,-0.019094767,1,0,0,0.58,optionRight,95,6255,3,29,0,29,0,1,,,,,,,,,,,,,,,,,,,,,,,,,,,,,,,,,,,,,,,
,,,,,,,,2023-08-16_08h36.51.832,HF_wild_card,2022.2.4,MacIntel,37.03703704,5c8ba607c5366c0001d022cb,64d2fd46c836a06233681665,64dc7c240fd16a25adb512a4,,,,,,,decisionTrl,resources/DP.BMP,resources/DB.BMP,Door2,-0.468175389,-0.016265912,1,0,0,1.164,optionLeft,40,6295,3,30,0,30,0,1,,,,,,,,,,,,,,,,,,,,,,,,,,,,,,,,,,,,,,,
,,,,,,,,2023-08-16_08h36.51.832,HF_wild_card,2022.2.4,MacIntel,37.03703704,5c8ba607c5366c0001d022cb,64d2fd46c836a06233681665,64dc7c240fd16a25adb512a4,,,,,,,sngl,resources/Empty.png,resources/DP.BMP,Door2,0.611032532,-0.033239038,1,0,0,0.513,optionRight,20,6315,3,31,0,31,0,1,,,,,,,,,,,,,,,,,,,,,,,,,,,,,,,,,,,,,,,
,,,,,,,,2023-08-16_08h36.51.832,HF_wild_card,2022.2.4,MacIntel,37.03703704,5c8ba607c5366c0001d022cb,64d2fd46c836a06233681665,64dc7c240fd16a25adb512a4,,,,,,,decisionTrl,resources/DBN.BMP,resources/DY.BMP,Door3,-0.459688826,0.041725601,1,0,0,0.654,optionLeft,70,6385,3,32,0,32,0,1,,,,,,,,,,,,,,,,,,,,,,,,,,,,,,,,,,,,,,,
,,,,,,,,2023-08-16_08h36.51.832,HF_wild_card,2022.2.4,MacIntel,37.03703704,5c8ba607c5366c0001d022cb,64d2fd46c836a06233681665,64dc7c240fd16a25adb512a4,,,,,,,decisionTrl,resources/DR.BMP,resources/DY.BMP,Door4,0.608203678,-0.019094767,1,0,0,0.516,optionRight,80,6465,3,33,0,33,0,1,,,,,,,,,,,,,,,,,,,,,,,,,,,,,,,,,,,,,,,
,,,,,,,,2023-08-16_08h36.51.832,HF_wild_card,2022.2.4,MacIntel,37.03703704,5c8ba607c5366c0001d022cb,64d2fd46c836a06233681665,64dc7c240fd16a25adb512a4,,,,,,,ctch,resources/DY.BMP,resources/DB.BMP,Door4,-0.459688826,0.016265912,1,0,0,0.464,optionLeft,60,6525,3,34,0,34,0,1,,,,,,,,,,,,,,,,,,,,,,,,,,,,,,,,,,,,,,,
,,,,,,,,2023-08-16_08h36.51.832,HF_wild_card,2022.2.4,MacIntel,37.03703704,5c8ba607c5366c0001d022cb,64d2fd46c836a06233681665,64dc7c240fd16a25adb512a4,,,,,,,decisionTrl,resources/DY.BMP,resources/DBN.BMP,Door3,0.629420085,0.003536068,1,0,0,0.696,optionRight,70,6595,3,35,0,35,0,1,,,,,,,,,,,,,,,,,,,,,,,,,,,,,,,,,,,,,,,
,,,,,,,,2023-08-16_08h36.51.832,HF_wild_card,2022.2.4,MacIntel,37.03703704,5c8ba607c5366c0001d022cb,64d2fd46c836a06233681665,64dc7c240fd16a25adb512a4,,,,,,,decisionTrl,resources/DB.BMP,resources/DP.BMP,Door2,0.59688826,-0.016265912,1,0,0,1.13,optionRight,20,6615,3,36,0,36,0,1,,,,,,,,,,,,,,,,,,,,,,,,,,,,,,,,,,,,,,,
,,,,,,,,2023-08-16_08h36.51.832,HF_wild_card,2022.2.4,MacIntel,37.03703704,5c8ba607c5366c0001d022cb,64d2fd46c836a06233681665,64dc7c240fd16a25adb512a4,,,,,,,ctch,resources/DBN.BMP,resources/DP.BMP,Door3,-0.513437058,0.044554455,1,0,0,0.528,optionLeft,70,6685,3,37,0,37,0,1,,,,,,,,,,,,,,,,,,,,,,,,,,,,,,,,,,,,,,,
,,,,,,,,2023-08-16_08h36.51.832,HF_wild_card,2022.2.4,MacIntel,37.03703704,5c8ba607c5366c0001d022cb,64d2fd46c836a06233681665,64dc7c240fd16a25adb512a4,,,,,,,sngl,resources/DR.BMP,resources/Empty.png,WildCard_Ex,-0.473833098,0.020509194,1,0,0,0.515,optionLeft,5,6690,3,38,0,38,0,1,,,,,,,,,,,,,,,,,,,,,,,,,,,,,,,,,,,,,,,
,,,,,,,,2023-08-16_08h36.51.832,HF_wild_card,2022.2.4,MacIntel,37.03703704,5c8ba607c5366c0001d022cb,64d2fd46c836a06233681665,64dc7c240fd16a25adb512a4,,,,,,,decisionTrl,resources/DB.BMP,resources/DP.BMP,Door2,0.598302687,-0.020509194,1,0,0,1.496,optionRight,40,6730,3,39,0,39,0,1,,,,,,,,,,,,,,,,,,,,,,,,,,,,,,,,,,,,,,,
,,,,,,,,2023-08-16_08h36.51.832,HF_wild_card,2022.2.4,MacIntel,37.03703704,5c8ba607c5366c0001d022cb,64d2fd46c836a06233681665,64dc7c240fd16a25adb512a4,,,,,,,decisionTrl,resources/DB.BMP,resources/DP.BMP,Door2,0.60678925,-0.034653465,1,0,0,0.562,optionRight,20,6750,3,40,0,40,0,1,,,,,,,,,,,,,,,,,,,,,,,,,,,,,,,,,,,,,,,
,,,,,,,,2023-08-16_08h36.51.832,HF_wild_card,2022.2.4,MacIntel,37.03703704,5c8ba607c5366c0001d022cb,64d2fd46c836a06233681665,64dc7c240fd16a25adb512a4,,,,,,,decisionTrl,resources/DR.BMP,resources/DB.BMP,WildCard_Ex,-0.414427157,0.003536068,1,0,0,1.167,optionLeft,5,6755,3,41,0,41,0,1,,,,,,,,,,,,,,,,,,,,,,,,,,,,,,,,,,,,,,,
,,,,,,,,2023-08-16_08h36.51.832,HF_wild_card,2022.2.4,MacIntel,37.03703704,5c8ba607c5366c0001d022cb,64d2fd46c836a06233681665,64dc7c240fd16a25adb512a4,,,,,,,sngl,resources/Empty.png,resources/DBN.BMP,Door3,0.60678925,-0.024752475,1,0,0,0.45,optionRight,70,6825,3,42,0,42,0,1,,,,,,,,,,,,,,,,,,,,,,,,,,,,,,,,,,,,,,,
,,,,,,,,2023-08-16_08h36.51.832,HF_wild_card,2022.2.4,MacIntel,37.03703704,5c8ba607c5366c0001d022cb,64d2fd46c836a06233681665,64dc7c240fd16a25adb512a4,,,,,,,sngl,resources/Empty.png,resources/DR.BMP,WildCard_Ex,0.620933522,0.053041018,1,0,0,0.364,optionRight,5,6830,3,43,0,43,0,1,,,,,,,,,,,,,,,,,,,,,,,,,,,,,,,,,,,,,,,
,,,,,,,,2023-08-16_08h36.51.832,HF_wild_card,2022.2.4,MacIntel,37.03703704,5c8ba607c5366c0001d022cb,64d2fd46c836a06233681665,64dc7c240fd16a25adb512a4,,,,,,,,,,,,,,,,,,,,,,,,,,2,0,2,0,1,,,,,,,,,,,,,,,,,,,,,,,,,,,,,,,,,,
,,,,,,,,2023-08-16_08h36.51.832,HF_wild_card,2022.2.4,MacIntel,37.03703704,5c8ba607c5366c0001d022cb,64d2fd46c836a06233681665,64dc7c240fd16a25adb512a4,,,,,,,sngl,resources/DP.BMP,resources/Empty.png,Door2,-0.356435644,-0.044554455,1,0,0,0.512,optionLeft,20,6850,4,0,0,0,0,1,,,,,,,,,,,,,,,,,,,,,,,,,,,,,,,,,,,,,,,
,,,,,,,,2023-08-16_08h36.51.832,HF_wild_card,2022.2.4,MacIntel,37.03703704,5c8ba607c5366c0001d022cb,64d2fd46c836a06233681665,64dc7c240fd16a25adb512a4,,,,,,,decisionTrl,resources/DP.BMP,resources/DB.BMP,Door2,-0.431400283,-0.019094767,1,0,0,0.58,optionLeft,40,6890,4,1,0,1,0,1,,,,,,,,,,,,,,,,,,,,,,,,,,,,,,,,,,,,,,,
,,,,,,,,2023-08-16_08h36.51.832,HF_wild_card,2022.2.4,MacIntel,37.03703704,5c8ba607c5366c0001d022cb,64d2fd46c836a06233681665,64dc7c240fd16a25adb512a4,,,,,,,decisionTrl,resources/DP.BMP,resources/DG.BMP,Door2,-0.444130127,-0.003536068,1,0,0,0.615,optionLeft,20,6910,4,2,0,2,0,1,,,,,,,,,,,,,,,,,,,,,,,,,,,,,,,,,,,,,,,
,,,,,,,,2023-08-16_08h36.51.832,HF_wild_card,2022.2.4,MacIntel,37.03703704,5c8ba607c5366c0001d022cb,64d2fd46c836a06233681665,64dc7c240fd16a25adb512a4,,,,,,,sngl,resources/DY.BMP,resources/Empty.png,Door4,-0.417256011,-0.044554455,1,0,0,0.451,optionLeft,60,6970,4,3,0,3,0,1,,,,,,,,,,,,,,,,,,,,,,,,,,,,,,,,,,,,,,,
,,,,,,,,2023-08-16_08h36.51.832,HF_wild_card,2022.2.4,MacIntel,37.03703704,5c8ba607c5366c0001d022cb,64d2fd46c836a06233681665,64dc7c240fd16a25adb512a4,,,,,,,ctch,resources/DY.BMP,resources/DB.BMP,Door4,-0.367751061,-0.020509194,1,0,0,0.48,optionLeft,80,7050,4,4,0,4,0,1,,,,,,,,,,,,,,,,,,,,,,,,,,,,,,,,,,,,,,,
,,,,,,,,2023-08-16_08h36.51.832,HF_wild_card,2022.2.4,MacIntel,37.03703704,5c8ba607c5366c0001d022cb,64d2fd46c836a06233681665,64dc7c240fd16a25adb512a4,,,,,,,decisionTrl,resources/DB.BMP,resources/DP.BMP,Door2,0.605374823,-0.034653465,1,0,0,1.072,optionRight,20,7070,4,5,0,5,0,1,,,,,,,,,,,,,,,,,,,,,,,,,,,,,,,,,,,,,,,
,,,,,,,,2023-08-16_08h36.51.832,HF_wild_card,2022.2.4,MacIntel,37.03703704,5c8ba607c5366c0001d022cb,64d2fd46c836a06233681665,64dc7c240fd16a25adb512a4,,,,,,,sngl,resources/Empty.png,resources/DG.BMP,WildCard_NonEx,0.598302687,-0.024752475,1,0,0,0.629,optionRight,55,7125,4,6,0,6,0,1,,,,,,,,,,,,,,,,,,,,,,,,,,,,,,,,,,,,,,,
,,,,,,,,2023-08-16_08h36.51.832,HF_wild_card,2022.2.4,MacIntel,37.03703704,5c8ba607c5366c0001d022cb,64d2fd46c836a06233681665,64dc7c240fd16a25adb512a4,,,,,,,sngl,resources/Empty.png,resources/DG.BMP,WildCard_NonEx,0.588401697,-0.006364922,1,0,0,0.566,optionRight,45,7170,4,7,0,7,0,1,,,,,,,,,,,,,,,,,,,,,,,,,,,,,,,,,,,,,,,
,,,,,,,,2023-08-16_08h36.51.832,HF_wild_card,2022.2.4,MacIntel,37.03703704,5c8ba607c5366c0001d022cb,64d2fd46c836a06233681665,64dc7c240fd16a25adb512a4,,,,,,,ctch,resources/DB.BMP,resources/DY.BMP,Door1,-0.397454031,0.023338048,1,0,0,0.429,optionLeft,30,7200,4,8,0,8,0,1,,,,,,,,,,,,,,,,,,,,,,,,,,,,,,,,,,,,,,,
,,,,,,,,2023-08-16_08h36.51.832,HF_wild_card,2022.2.4,MacIntel,37.03703704,5c8ba607c5366c0001d022cb,64d2fd46c836a06233681665,64dc7c240fd16a25adb512a4,,,,,,,decisionTrl,resources/DG.BMP,resources/DBN.BMP,Door3,0.605374823,-0.041725601,1,0,0,0.465,optionRight,70,7270,4,9,0,9,0,1,,,,,,,,,,,,,,,,,,,,,,,,,,,,,,,,,,,,,,,
,,,,,,,,2023-08-16_08h36.51.832,HF_wild_card,2022.2.4,MacIntel,37.03703704,5c8ba607c5366c0001d022cb,64d2fd46c836a06233681665,64dc7c240fd16a25adb512a4,,,,,,,sngl,resources/DBN.BMP,resources/Empty.png,Door3,-0.45261669,0.013437058,1,0,0,0.48,optionLeft,70,7340,4,10,0,10,0,1,,,,,,,,,,,,,,,,,,,,,,,,,,,,,,,,,,,,,,,
,,,,,,,,2023-08-16_08h36.51.832,HF_wild_card,2022.2.4,MacIntel,37.03703704,5c8ba607c5366c0001d022cb,64d2fd46c836a06233681665,64dc7c240fd16a25adb512a4,,,,,,,decisionTrl,resources/DB.BMP,resources/DG.BMP,Door1,-0.451202263,0.017680339,1,0,0,0.613,optionLeft,30,7370,4,11,0,11,0,1,,,,,,,,,,,,,,,,,,,,,,,,,,,,,,,,,,,,,,,
,,,,,,,,2023-08-16_08h36.51.832,HF_wild_card,2022.2.4,MacIntel,37.03703704,5c8ba607c5366c0001d022cb,64d2fd46c836a06233681665,64dc7c240fd16a25adb512a4,,,,,,,decisionTrl,resources/DB.BMP,resources/DP.BMP,Door1,-0.366336634,0.033239038,1,0,0,0.816,optionLeft,30,7400,4,12,0,12,0,1,,,,,,,,,,,,,,,,,,,,,,,,,,,,,,,,,,,,,,,
,,,,,,,,2023-08-16_08h36.51.832,HF_wild_card,2022.2.4,MacIntel,37.03703704,5c8ba607c5366c0001d022cb,64d2fd46c836a06233681665,64dc7c240fd16a25adb512a4,,,,,,,decisionTrl,resources/DBN.BMP,resources/DY.BMP,Door3,-0.353606789,0.026166902,1,0,0,0.501,optionLeft,70,7470,4,13,0,13,0,1,,,,,,,,,,,,,,,,,,,,,,,,,,,,,,,,,,,,,,,
,,,,,,,,2023-08-16_08h36.51.832,HF_wild_card,2022.2.4,MacIntel,37.03703704,5c8ba607c5366c0001d022cb,64d2fd46c836a06233681665,64dc7c240fd16a25adb512a4,,,,,,,ctch,resources/DB.BMP,resources/DY.BMP,Door1,-0.370579915,0.002121641,1,0,0,0.532,optionLeft,30,7500,4,14,0,14,0,1,,,,,,,,,,,,,,,,,,,,,,,,,,,,,,,,,,,,,,,
,,,,,,,,2023-08-16_08h36.51.832,HF_wild_card,2022.2.4,MacIntel,37.03703704,5c8ba607c5366c0001d022cb,64d2fd46c836a06233681665,64dc7c240fd16a25adb512a4,,,,,,,sngl,resources/DB.BMP,resources/Empty.png,Door1,-0.38330976,-0.014851485,1,0,0,0.483,optionLeft,30,7530,4,15,0,15,0,1,,,,,,,,,,,,,,,,,,,,,,,,,,,,,,,,,,,,,,,
,,,,,,,,2023-08-16_08h36.51.832,HF_wild_card,2022.2.4,MacIntel,37.03703704,5c8ba607c5366c0001d022cb,64d2fd46c836a06233681665,64dc7c240fd16a25adb512a4,,,,,,,decisionTrl,resources/DBN.BMP,resources/DY.BMP,Door3,-0.355021216,0.024752475,1,0,0,0.533,optionLeft,70,7600,4,16,0,16,0,1,,,,,,,,,,,,,,,,,,,,,,,,,,,,,,,,,,,,,,,
,,,,,,,,2023-08-16_08h36.51.832,HF_wild_card,2022.2.4,MacIntel,37.03703704,5c8ba607c5366c0001d022cb,64d2fd46c836a06233681665,64dc7c240fd16a25adb512a4,,,,,,,decisionTrl,resources/DG.BMP,resources/DB.BMP,Door1,0.61669024,-0.055869873,1,0,0,0.878,optionRight,30,7630,4,17,0,17,0,1,,,,,,,,,,,,,,,,,,,,,,,,,,,,,,,,,,,,,,,
,,,,,,,,2023-08-16_08h36.51.832,HF_wild_card,2022.2.4,MacIntel,37.03703704,5c8ba607c5366c0001d022cb,64d2fd46c836a06233681665,64dc7c240fd16a25adb512a4,,,,,,,decisionTrl,resources/DY.BMP,resources/DBN.BMP,Door3,0.637906648,-0.03748232,1,0,0,0.847,optionRight,70,7700,4,18,0,18,0,1,,,,,,,,,,,,,,,,,,,,,,,,,,,,,,,,,,,,,,,
,,,,,,,,2023-08-16_08h36.51.832,HF_wild_card,2022.2.4,MacIntel,37.03703704,5c8ba607c5366c0001d022cb,64d2fd46c836a06233681665,64dc7c240fd16a25adb512a4,,,,,,,decisionTrl,resources/DBN.BMP,resources/DG.BMP,Door3,-0.340876945,0.004950495,1,0,0,0.549,optionLeft,70,7770,4,19,0,19,0,1,,,,,,,,,,,,,,,,,,,,,,,,,,,,,,,,,,,,,,,
,,,,,,,,2023-08-16_08h36.51.832,HF_wild_card,2022.2.4,MacIntel,37.03703704,5c8ba607c5366c0001d022cb,64d2fd46c836a06233681665,64dc7c240fd16a25adb512a4,,,,,,,sngl,resources/Empty.png,resources/DBN.BMP,Door3,0.598302687,-0.105374823,1,0,0,0.481,optionRight,70,7840,4,20,0,20,0,1,,,,,,,,,,,,,,,,,,,,,,,,,,,,,,,,,,,,,,,
,,,,,,,,2023-08-16_08h36.51.832,HF_wild_card,2022.2.4,MacIntel,37.03703704,5c8ba607c5366c0001d022cb,64d2fd46c836a06233681665,64dc7c240fd16a25adb512a4,,,,,,,decisionTrl,resources/DP.BMP,resources/DB.BMP,Door1,0.605374823,-0.033239038,1,0,0,0.781,optionRight,30,7870,4,21,0,21,0,1,,,,,,,,,,,,,,,,,,,,,,,,,,,,,,,,,,,,,,,
,,,,,,,,2023-08-16_08h36.51.832,HF_wild_card,2022.2.4,MacIntel,37.03703704,5c8ba607c5366c0001d022cb,64d2fd46c836a06233681665,64dc7c240fd16a25adb512a4,,,,,,,sngl,resources/Empty.png,resources/DB.BMP,Door1,0.602545969,-0.06718529,1,0,0,0.547,optionRight,30,7900,4,22,0,22,0,1,,,,,,,,,,,,,,,,,,,,,,,,,,,,,,,,,,,,,,,
,,,,,,,,2023-08-16_08h36.51.832,HF_wild_card,2022.2.4,MacIntel,37.03703704,5c8ba607c5366c0001d022cb,64d2fd46c836a06233681665,64dc7c240fd16a25adb512a4,,,,,,,decisionTrl,resources/DP.BMP,resources/DB.BMP,Door1,0.125884017,-0.065770863,1,0,0,0.677,optionRight,30,7930,4,23,0,23,0,1,,,,,,,,,,,,,,,,,,,,,,,,,,,,,,,,,,,,,,,
,,,,,,,,2023-08-16_08h36.51.832,HF_wild_card,2022.2.4,MacIntel,37.03703704,5c8ba607c5366c0001d022cb,64d2fd46c836a06233681665,64dc7c240fd16a25adb512a4,,,,,,,decisionTrl,resources/DB.BMP,resources/DP.BMP,Door1,-0.26874116,-0.103960396,1,0,0,0.498,optionLeft,30,7960,4,24,0,24,0,1,,,,,,,,,,,,,,,,,,,,,,,,,,,,,,,,,,,,,,,
,,,,,,,,2023-08-16_08h36.51.832,HF_wild_card,2022.2.4,MacIntel,37.03703704,5c8ba607c5366c0001d022cb,64d2fd46c836a06233681665,64dc7c240fd16a25adb512a4,,,,,,,decisionTrl,resources/DY.BMP,resources/DG.BMP,WildCard_NonEx,0.175388967,-0.214285714,1,0,0,0.511,optionRight,45,8005,4,25,0,25,0,1,,,,,,,,,,,,,,,,,,,,,,,,,,,,,,,,,,,,,,,
,,,,,,,,2023-08-16_08h36.51.832,HF_wild_card,2022.2.4,MacIntel,37.03703704,5c8ba607c5366c0001d022cb,64d2fd46c836a06233681665,64dc7c240fd16a25adb512a4,,,,,,,decisionTrl,resources/DY.BMP,resources/DBN.BMP,Door3,0.138613861,-0.185997171,1,0,0,0.545,optionRight,70,8075,4,26,0,26,0,1,,,,,,,,,,,,,,,,,,,,,,,,,,,,,,,,,,,,,,,
,,,,,,,,2023-08-16_08h36.51.832,HF_wild_card,2022.2.4,MacIntel,37.03703704,5c8ba607c5366c0001d022cb,64d2fd46c836a06233681665,64dc7c240fd16a25adb512a4,,,,,,,ctch,resources/DP.BMP,resources/DBN.BMP,Door3,0.14427157,-0.180339463,1,0,0,0.564,optionRight,70,8145,4,27,0,27,0,1,,,,,,,,,,,,,,,,,,,,,,,,,,,,,,,,,,,,,,,
,,,,,,,,2023-08-16_08h36.51.832,HF_wild_card,2022.2.4,MacIntel,37.03703704,5c8ba607c5366c0001d022cb,64d2fd46c836a06233681665,64dc7c240fd16a25adb512a4,,,,,,,decisionTrl,resources/DY.BMP,resources/DBN.BMP,Door3,0.190947666,-0.178925035,1,0,0,0.564,optionRight,70,8215,4,28,0,28,0,1,,,,,,,,,,,,,,,,,,,,,,,,,,,,,,,,,,,,,,,
,,,,,,,,2023-08-16_08h36.51.832,HF_wild_card,2022.2.4,MacIntel,37.03703704,5c8ba607c5366c0001d022cb,64d2fd46c836a06233681665,64dc7c240fd16a25adb512a4,,,,,,,decisionTrl,resources/DBN.BMP,resources/DY.BMP,Door3,-0.319660537,0.004950495,1,0,0,0.585,optionLeft,70,8285,4,29,0,29,0,1,,,,,,,,,,,,,,,,,,,,,,,,,,,,,,,,,,,,,,,
,,,,,,,,2023-08-16_08h36.51.832,HF_wild_card,2022.2.4,MacIntel,37.03703704,5c8ba607c5366c0001d022cb,64d2fd46c836a06233681665,64dc7c240fd16a25adb512a4,,,,,,,decisionTrl,resources/DBN.BMP,resources/DY.BMP,Door3,-0.222065064,-0.034653465,1,0,0,0.497,optionLeft,70,8355,4,30,0,30,0,1,,,,,,,,,,,,,,,,,,,,,,,,,,,,,,,,,,,,,,,
,,,,,,,,2023-08-16_08h36.51.832,HF_wild_card,2022.2.4,MacIntel,37.03703704,5c8ba607c5366c0001d022cb,64d2fd46c836a06233681665,64dc7c240fd16a25adb512a4,,,,,,,decisionTrl,resources/DP.BMP,resources/DB.BMP,Door1,0.159830269,-0.200141443,1,0,0,0.78,optionRight,30,8385,4,31,0,31,0,1,,,,,,,,,,,,,,,,,,,,,,,,,,,,,,,,,,,,,,,
,,,,,,,,2023-08-16_08h36.51.832,HF_wild_card,2022.2.4,MacIntel,37.03703704,5c8ba607c5366c0001d022cb,64d2fd46c836a06233681665,64dc7c240fd16a25adb512a4,,,,,,,sngl,resources/DG.BMP,resources/Empty.png,WildCard_NonEx,-0.24893918,-0.010608204,1,0,0,0.466,optionLeft,55,8440,4,32,0,32,0,1,,,,,,,,,,,,,,,,,,,,,,,,,,,,,,,,,,,,,,,
,,,,,,,,2023-08-16_08h36.51.832,HF_wild_card,2022.2.4,MacIntel,37.03703704,5c8ba607c5366c0001d022cb,64d2fd46c836a06233681665,64dc7c240fd16a25adb512a4,,,,,,,sngl,resources/Empty.png,resources/DY.BMP,Door4,0.181046676,-0.183168317,1,0,0,3.566,optionRight,80,8520,4,33,0,33,0,1,,,,,,,,,,,,,,,,,,,,,,,,,,,,,,,,,,,,,,,
,,,,,,,,2023-08-16_08h36.51.832,HF_wild_card,2022.2.4,MacIntel,37.03703704,5c8ba607c5366c0001d022cb,64d2fd46c836a06233681665,64dc7c240fd16a25adb512a4,,,,,,,decisionTrl,resources/DG.BMP,resources/DY.BMP,WildCard_NonEx,-0.206506365,-0.03748232,1,0,0,0.6,optionLeft,55,8575,4,34,0,34,0,1,,,,,,,,,,,,,,,,,,,,,,,,,,,,,,,,,,,,,,,
,,,,,,,,2023-08-16_08h36.51.832,HF_wild_card,2022.2.4,MacIntel,37.03703704,5c8ba607c5366c0001d022cb,64d2fd46c836a06233681665,64dc7c240fd16a25adb512a4,,,,,,,decisionTrl,resources/DB.BMP,resources/DP.BMP,Door2,0.179632249,-0.235502122,1,0,0,0.812,optionRight,20,8595,4,35,0,35,0,1,,,,,,,,,,,,,,,,,,,,,,,,,,,,,,,,,,,,,,,
,,,,,,,,2023-08-16_08h36.51.832,HF_wild_card,2022.2.4,MacIntel,37.03703704,5c8ba607c5366c0001d022cb,64d2fd46c836a06233681665,64dc7c240fd16a25adb512a4,,,,,,,decisionTrl,resources/DY.BMP,resources/DBN.BMP,Door3,0.169731259,-0.204384724,1,0,0,0.648,optionRight,70,8665,4,36,0,36,0,1,,,,,,,,,,,,,,,,,,,,,,,,,,,,,,,,,,,,,,,
,,,,,,,,2023-08-16_08h36.51.832,HF_wild_card,2022.2.4,MacIntel,37.03703704,5c8ba607c5366c0001d022cb,64d2fd46c836a06233681665,64dc7c240fd16a25adb512a4,,,,,,,ctch,resources/DBN.BMP,resources/DP.BMP,Door3,-0.309759547,0.002121641,1,0,0,0.83,optionLeft,70,8735,4,37,0,37,0,1,,,,,,,,,,,,,,,,,,,,,,,,,,,,,,,,,,,,,,,
,,,,,,,,2023-08-16_08h36.51.832,HF_wild_card,2022.2.4,MacIntel,37.03703704,5c8ba607c5366c0001d022cb,64d2fd46c836a06233681665,64dc7c240fd16a25adb512a4,,,,,,,sngl,resources/DG.BMP,resources/Empty.png,WildCard_NonEx,-0.240452617,0.007779349,1,0,0,0.48,optionLeft,45,8780,4,38,0,38,0,1,,,,,,,,,,,,,,,,,,,,,,,,,,,,,,,,,,,,,,,
,,,,,,,,2023-08-16_08h36.51.832,HF_wild_card,2022.2.4,MacIntel,37.03703704,5c8ba607c5366c0001d022cb,64d2fd46c836a06233681665,64dc7c240fd16a25adb512a4,,,,,,,ctch,resources/DY.BMP,resources/DB.BMP,Door1,0.161244696,-0.183168317,1,0,0,1.085,optionRight,30,8810,4,39,0,39,0,1,,,,,,,,,,,,,,,,,,,,,,,,,,,,,,,,,,,,,,,
,,,,,,,,2023-08-16_08h36.51.832,HF_wild_card,2022.2.4,MacIntel,37.03703704,5c8ba607c5366c0001d022cb,64d2fd46c836a06233681665,64dc7c240fd16a25adb512a4,,,,,,,decisionTrl,resources/DG.BMP,resources/DP.BMP,WildCard_NonEx,-0.229137199,0.012022631,1,0,0,0.611,optionLeft,55,8865,4,40,0,40,0,1,,,,,,,,,,,,,,,,,,,,,,,,,,,,,,,,,,,,,,,
,,,,,,,,2023-08-16_08h36.51.832,HF_wild_card,2022.2.4,MacIntel,37.03703704,5c8ba607c5366c0001d022cb,64d2fd46c836a06233681665,64dc7c240fd16a25adb512a4,,,,,,,ctch,resources/DP.BMP,resources/DBN.BMP,Door3,0.199434229,-0.166195191,1,0,0,0.585,optionRight,70,8935,4,41,0,41,0,1,,,,,,,,,,,,,,,,,,,,,,,,,,,,,,,,,,,,,,,
,,,,,,,,2023-08-16_08h36.51.832,HF_wild_card,2022.2.4,MacIntel,37.03703704,5c8ba607c5366c0001d022cb,64d2fd46c836a06233681665,64dc7c240fd16a25adb512a4,,,,,,,ctch,resources/DBN.BMP,resources/DP.BMP,Door3,-0.214992928,0.019094767,1,0,0,0.495,optionLeft,70,9005,4,42,0,42,0,1,,,,,,,,,,,,,,,,,,,,,,,,,,,,,,,,,,,,,,,
,,,,,,,,2023-08-16_08h36.51.832,HF_wild_card,2022.2.4,MacIntel,37.03703704,5c8ba607c5366c0001d022cb,64d2fd46c836a06233681665,64dc7c240fd16a25adb512a4,,,,,,,sngl,resources/Empty.png,resources/DP.BMP,Door2,0.159830269,-0.135077793,1,0,0,0.744,optionRight,40,9045,4,43,0,43,0,1,,,,,,,,,,,,,,,,,,,,,,,,,,,,,,,,,,,,,,,
,,,,,,,,2023-08-16_08h36.51.832,HF_wild_card,2022.2.4,MacIntel,37.03703704,5c8ba607c5366c0001d022cb,64d2fd46c836a06233681665,64dc7c240fd16a25adb512a4,,,,,,,,,,,,,,,,,,,,,,,,,,3,0,3,0,1,,,,,,,,,,,,,,,,,,,,,,,,,,,,,,,,,,
,,,,,,,,2023-08-16_08h36.51.832,HF_wild_card,2022.2.4,MacIntel,37.03703704,5c8ba607c5366c0001d022cb,64d2fd46c836a06233681665,64dc7c240fd16a25adb512a4,,,,,,,sngl,resources/Empty.png,resources/DB.BMP,Door1,0.175388967,-0.176096181,1,0,0,0.647,optionRight,30,9075,5,0,0,0,0,1,,,,,,,,,,,,,,,,,,,,,,,,,,,,,,,,,,,,,,,
,,,,,,,,2023-08-16_08h36.51.832,HF_wild_card,2022.2.4,MacIntel,37.03703704,5c8ba607c5366c0001d022cb,64d2fd46c836a06233681665,64dc7c240fd16a25adb512a4,,,,,,,sngl,resources/DP.BMP,resources/Empty.png,Door2,-0.271570014,0.026166902,1,0,0,0.415,optionLeft,40,9115,5,1,0,1,0,1,,,,,,,,,,,,,,,,,,,,,,,,,,,,,,,,,,,,,,,
,,,,,,,,2023-08-16_08h36.51.832,HF_wild_card,2022.2.4,MacIntel,37.03703704,5c8ba607c5366c0001d022cb,64d2fd46c836a06233681665,64dc7c240fd16a25adb512a4,,,,,,,decisionTrl,resources/DG.BMP,resources/DY.BMP,WildCard_NonEx,-0.217821782,-0.002121641,1,0,0,0.764,optionLeft,45,9160,5,2,0,2,0,1,,,,,,,,,,,,,,,,,,,,,,,,,,,,,,,,,,,,,,,
,,,,,,,,2023-08-16_08h36.51.832,HF_wild_card,2022.2.4,MacIntel,37.03703704,5c8ba607c5366c0001d022cb,64d2fd46c836a06233681665,64dc7c240fd16a25adb512a4,,,,,,,sngl,resources/Empty.png,resources/DG.BMP,WildCard_NonEx,0.165487977,-0.102545969,1,0,0,0.495,optionRight,45,9205,5,3,0,3,0,1,,,,,,,,,,,,,,,,,,,,,,,,,,,,,,,,,,,,,,,
,,,,,,,,2023-08-16_08h36.51.832,HF_wild_card,2022.2.4,MacIntel,37.03703704,5c8ba607c5366c0001d022cb,64d2fd46c836a06233681665,64dc7c240fd16a25adb512a4,,,,,,,sngl,resources/DG.BMP,resources/Empty.png,WildCard_NonEx,-0.240452617,0.036067893,1,0,0,0.429,optionLeft,45,9250,5,4,0,4,0,1,,,,,,,,,,,,,,,,,,,,,,,,,,,,,,,,,,,,,,,
,,,,,,,,2023-08-16_08h36.51.832,HF_wild_card,2022.2.4,MacIntel,37.03703704,5c8ba607c5366c0001d022cb,64d2fd46c836a06233681665,64dc7c240fd16a25adb512a4,,,,,,,sngl,resources/Empty.png,resources/DP.BMP,Door2,0.188118812,-0.152050919,1,0,0,0.531,optionRight,20,9270,5,5,0,5,0,1,,,,,,,,,,,,,,,,,,,,,,,,,,,,,,,,,,,,,,,
,,,,,,,,2023-08-16_08h36.51.832,HF_wild_card,2022.2.4,MacIntel,37.03703704,5c8ba607c5366c0001d022cb,64d2fd46c836a06233681665,64dc7c240fd16a25adb512a4,,,,,,,decisionTrl,resources/DBN.BMP,resources/DG.BMP,Door3,-0.241867044,0.03748232,1,0,0,0.5,optionLeft,70,9340,5,6,0,6,0,1,,,,,,,,,,,,,,,,,,,,,,,,,,,,,,,,,,,,,,,
,,,,,,,,2023-08-16_08h36.51.832,HF_wild_card,2022.2.4,MacIntel,37.03703704,5c8ba607c5366c0001d022cb,64d2fd46c836a06233681665,64dc7c240fd16a25adb512a4,,,,,,,sngl,resources/DY.BMP,resources/Empty.png,Door4,-0.205091938,0.033239038,1,0,0,0.479,optionLeft,80,9420,5,7,0,7,0,1,,,,,,,,,,,,,,,,,,,,,,,,,,,,,,,,,,,,,,,
,,,,,,,,2023-08-16_08h36.51.832,HF_wild_card,2022.2.4,MacIntel,37.03703704,5c8ba607c5366c0001d022cb,64d2fd46c836a06233681665,64dc7c240fd16a25adb512a4,,,,,,,decisionTrl,resources/DB.BMP,resources/DP.BMP,Door2,0.161244696,-0.177510608,1,0,0,1.014,optionRight,40,9460,5,8,0,8,0,1,,,,,,,,,,,,,,,,,,,,,,,,,,,,,,,,,,,,,,,
,,,,,,,,2023-08-16_08h36.51.832,HF_wild_card,2022.2.4,MacIntel,37.03703704,5c8ba607c5366c0001d022cb,64d2fd46c836a06233681665,64dc7c240fd16a25adb512a4,,,,,,,decisionTrl,resources/DBN.BMP,resources/DY.BMP,Door3,-0.241867044,0.024752475,1,0,0,0.463,optionLeft,70,9530,5,9,0,9,0,1,,,,,,,,,,,,,,,,,,,,,,,,,,,,,,,,,,,,,,,
,,,,,,,,2023-08-16_08h36.51.832,HF_wild_card,2022.2.4,MacIntel,37.03703704,5c8ba607c5366c0001d022cb,64d2fd46c836a06233681665,64dc7c240fd16a25adb512a4,,,,,,,ctch,resources/DB.BMP,resources/DY.BMP,Door1,-0.213578501,0.021923621,1,0,0,0.626,optionLeft,30,9560,5,10,0,10,0,1,,,,,,,,,,,,,,,,,,,,,,,,,,,,,,,,,,,,,,,
,,,,,,,,2023-08-16_08h36.51.832,HF_wild_card,2022.2.4,MacIntel,37.03703704,5c8ba607c5366c0001d022cb,64d2fd46c836a06233681665,64dc7c240fd16a25adb512a4,,,,,,,decisionTrl,resources/DBN.BMP,resources/DY.BMP,Door3,-0.212164074,0.028995757,1,0,0,0.599,optionLeft,70,9630,5,11,0,11,0,1,,,,,,,,,,,,,,,,,,,,,,,,,,,,,,,,,,,,,,,
,,,,,,,,2023-08-16_08h36.51.832,HF_wild_card,2022.2.4,MacIntel,37.03703704,5c8ba607c5366c0001d022cb,64d2fd46c836a06233681665,64dc7c240fd16a25adb512a4,,,,,,,decisionTrl,resources/DBN.BMP,resources/DY.BMP,Door3,-0.205091938,-0.043140028,1,0,0,0.63,optionLeft,70,9700,5,12,0,12,0,1,,,,,,,,,,,,,,,,,,,,,,,,,,,,,,,,,,,,,,,
,,,,,,,,2023-08-16_08h36.51.832,HF_wild_card,2022.2.4,MacIntel,37.03703704,5c8ba607c5366c0001d022cb,64d2fd46c836a06233681665,64dc7c240fd16a25adb512a4,,,,,,,sngl,resources/DB.BMP,resources/Empty.png,Door1,-0.27864215,0.012022631,1,0,0,0.366,optionLeft,30,9730,5,13,0,13,0,1,,,,,,,,,,,,,,,,,,,,,,,,,,,,,,,,,,,,,,,
,,,,,,,,2023-08-16_08h36.51.832,HF_wild_card,2022.2.4,MacIntel,37.03703704,5c8ba607c5366c0001d022cb,64d2fd46c836a06233681665,64dc7c240fd16a25adb512a4,,,,,,,ctch,resources/DBN.BMP,resources/DP.BMP,Door3,-0.254596888,0.021923621,1,0,0,0.464,optionLeft,70,9800,5,14,0,14,0,1,,,,,,,,,,,,,,,,,,,,,,,,,,,,,,,,,,,,,,,
,,,,,,,,2023-08-16_08h36.51.832,HF_wild_card,2022.2.4,MacIntel,37.03703704,5c8ba607c5366c0001d022cb,64d2fd46c836a06233681665,64dc7c240fd16a25adb512a4,,,,,,,ctch,resources/DB.BMP,resources/DY.BMP,Door1,-0.210749646,0.034653465,1,0,0,0.58,optionLeft,30,9830,5,15,0,15,0,1,,,,,,,,,,,,,,,,,,,,,,,,,,,,,,,,,,,,,,,
,,,,,,,,2023-08-16_08h36.51.832,HF_wild_card,2022.2.4,MacIntel,37.03703704,5c8ba607c5366c0001d022cb,64d2fd46c836a06233681665,64dc7c240fd16a25adb512a4,,,,,,,ctch,resources/DP.BMP,resources/DBN.BMP,Door3,0.175388967,-0.150636492,1,0,0,0.415,optionRight,70,9900,5,16,0,16,0,1,,,,,,,,,,,,,,,,,,,,,,,,,,,,,,,,,,,,,,,
,,,,,,,,2023-08-16_08h36.51.832,HF_wild_card,2022.2.4,MacIntel,37.03703704,5c8ba607c5366c0001d022cb,64d2fd46c836a06233681665,64dc7c240fd16a25adb512a4,,,,,,,decisionTrl,resources/DY.BMP,resources/DG.BMP,WildCard_NonEx,0.158415842,-0.170438472,1,0,0,0.681,optionRight,55,9955,5,17,0,17,0,1,,,,,,,,,,,,,,,,,,,,,,,,,,,,,,,,,,,,,,,
,,,,,,,,2023-08-16_08h36.51.832,HF_wild_card,2022.2.4,MacIntel,37.03703704,5c8ba607c5366c0001d022cb,64d2fd46c836a06233681665,64dc7c240fd16a25adb512a4,,,,,,,decisionTrl,resources/DB.BMP,resources/DP.BMP,Door1,-0.202263083,0.006364922,1,0,0,0.611,optionLeft,30,9985,5,18,0,18,0,1,,,,,,,,,,,,,,,,,,,,,,,,,,,,,,,,,,,,,,,
,,,,,,,,2023-08-16_08h36.51.832,HF_wild_card,2022.2.4,MacIntel,37.03703704,5c8ba607c5366c0001d022cb,64d2fd46c836a06233681665,64dc7c240fd16a25adb512a4,,,,,,,ctch,resources/DP.BMP,resources/DBN.BMP,Door3,0.158415842,-0.169024045,1,0,0,0.765,optionRight,70,10055,5,19,0,19,0,1,,,,,,,,,,,,,,,,,,,,,,,,,,,,,,,,,,,,,,,
,,,,,,,,2023-08-16_08h36.51.832,HF_wild_card,2022.2.4,MacIntel,37.03703704,5c8ba607c5366c0001d022cb,64d2fd46c836a06233681665,64dc7c240fd16a25adb512a4,,,,,,,ctch,resources/DY.BMP,resources/DB.BMP,Door4,-0.214992928,0.020509194,1,0,0,1.13,optionLeft,80,10135,5,20,0,20,0,1,,,,,,,,,,,,,,,,,,,,,,,,,,,,,,,,,,,,,,,
,,,,,,,,2023-08-16_08h36.51.832,HF_wild_card,2022.2.4,MacIntel,37.03703704,5c8ba607c5366c0001d022cb,64d2fd46c836a06233681665,64dc7c240fd16a25adb512a4,,,,,,,sngl,resources/Empty.png,resources/DY.BMP,Door4,0.179632249,-0.193069307,1,0,0,0.526,optionRight,60,10195,5,21,0,21,0,1,,,,,,,,,,,,,,,,,,,,,,,,,,,,,,,,,,,,,,,
,,,,,,,,2023-08-16_08h36.51.832,HF_wild_card,2022.2.4,MacIntel,37.03703704,5c8ba607c5366c0001d022cb,64d2fd46c836a06233681665,64dc7c240fd16a25adb512a4,,,,,,,decisionTrl,resources/DBN.BMP,resources/DY.BMP,Door3,-0.256011315,0.030410184,1,0,0,0.715,optionLeft,70,10265,5,22,0,22,0,1,,,,,,,,,,,,,,,,,,,,,,,,,,,,,,,,,,,,,,,
,,,,,,,,2023-08-16_08h36.51.832,HF_wild_card,2022.2.4,MacIntel,37.03703704,5c8ba607c5366c0001d022cb,64d2fd46c836a06233681665,64dc7c240fd16a25adb512a4,,,,,,,decisionTrl,resources/DB.BMP,resources/DP.BMP,Door2,0.13437058,-0.187411598,1,0,0,0.68,optionRight,40,10305,5,23,0,23,0,1,,,,,,,,,,,,,,,,,,,,,,,,,,,,,,,,,,,,,,,
,,,,,,,,2023-08-16_08h36.51.832,HF_wild_card,2022.2.4,MacIntel,37.03703704,5c8ba607c5366c0001d022cb,64d2fd46c836a06233681665,64dc7c240fd16a25adb512a4,,,,,,,sngl,resources/Empty.png,resources/DG.BMP,WildCard_NonEx,0.189533239,-0.208628006,1,0,0,0.614,optionRight,55,10360,5,24,0,24,0,1,,,,,,,,,,,,,,,,,,,,,,,,,,,,,,,,,,,,,,,
,,,,,,,,2023-08-16_08h36.51.832,HF_wild_card,2022.2.4,MacIntel,37.03703704,5c8ba607c5366c0001d022cb,64d2fd46c836a06233681665,64dc7c240fd16a25adb512a4,,,,,,,decisionTrl,resources/DY.BMP,resources/DBN.BMP,Door3,0.155586987,-0.1718529,1,0,0,0.564,optionRight,70,10430,5,25,0,25,0,1,,,,,,,,,,,,,,,,,,,,,,,,,,,,,,,,,,,,,,,
,,,,,,,,2023-08-16_08h36.51.832,HF_wild_card,2022.2.4,MacIntel,37.03703704,5c8ba607c5366c0001d022cb,64d2fd46c836a06233681665,64dc7c240fd16a25adb512a4,,,,,,,decisionTrl,resources/DY.BMP,resources/DBN.BMP,Door3,0.169731259,-0.18175389,1,0,0,0.795,optionRight,70,10500,5,26,0,26,0,1,,,,,,,,,,,,,,,,,,,,,,,,,,,,,,,,,,,,,,,
,,,,,,,,2023-08-16_08h36.51.832,HF_wild_card,2022.2.4,MacIntel,37.03703704,5c8ba607c5366c0001d022cb,64d2fd46c836a06233681665,64dc7c240fd16a25adb512a4,,,,,,,decisionTrl,resources/DB.BMP,resources/DP.BMP,Door2,0.135785007,-0.167609618,1,0,0,0.848,optionRight,40,10540,5,27,0,27,0,1,,,,,,,,,,,,,,,,,,,,,,,,,,,,,,,,,,,,,,,
,,,,,,,,2023-08-16_08h36.51.832,HF_wild_card,2022.2.4,MacIntel,37.03703704,5c8ba607c5366c0001d022cb,64d2fd46c836a06233681665,64dc7c240fd16a25adb512a4,,,,,,,decisionTrl,resources/DG.BMP,resources/DP.BMP,WildCard_NonEx,-0.250353607,0.020509194,1,0,0,0.662,optionLeft,45,10585,5,28,0,28,0,1,,,,,,,,,,,,,,,,,,,,,,,,,,,,,,,,,,,,,,,
,,,,,,,,2023-08-16_08h36.51.832,HF_wild_card,2022.2.4,MacIntel,37.03703704,5c8ba607c5366c0001d022cb,64d2fd46c836a06233681665,64dc7c240fd16a25adb512a4,,,,,,,decisionTrl,resources/DG.BMP,resources/DB.BMP,WildCard_NonEx,-0.247524752,0.026166902,1,0,0,0.769,optionLeft,55,10640,5,29,0,29,0,1,,,,,,,,,,,,,,,,,,,,,,,,,,,,,,,,,,,,,,,
,,,,,,,,2023-08-16_08h36.51.832,HF_wild_card,2022.2.4,MacIntel,37.03703704,5c8ba607c5366c0001d022cb,64d2fd46c836a06233681665,64dc7c240fd16a25adb512a4,,,,,,,ctch,resources/DBN.BMP,resources/DP.BMP,Door3,-0.186704385,0.021923621,1,0,0,0.596,optionLeft,70,10710,5,30,0,30,0,1,,,,,,,,,,,,,,,,,,,,,,,,,,,,,,,,,,,,,,,
,,,,,,,,2023-08-16_08h36.51.832,HF_wild_card,2022.2.4,MacIntel,37.03703704,5c8ba607c5366c0001d022cb,64d2fd46c836a06233681665,64dc7c240fd16a25adb512a4,,,,,,,decisionTrl,resources/DP.BMP,resources/DG.BMP,WildCard_NonEx,0.151343706,-0.159123055,1,0,0,0.582,optionRight,45,10755,5,31,0,31,0,1,,,,,,,,,,,,,,,,,,,,,,,,,,,,,,,,,,,,,,,
,,,,,,,,2023-08-16_08h36.51.832,HF_wild_card,2022.2.4,MacIntel,37.03703704,5c8ba607c5366c0001d022cb,64d2fd46c836a06233681665,64dc7c240fd16a25adb512a4,,,,,,,decisionTrl,resources/DG.BMP,resources/DBN.BMP,Door3,0.168316832,-0.183168317,1,0,0,0.497,optionRight,70,10825,5,32,0,32,0,1,,,,,,,,,,,,,,,,,,,,,,,,,,,,,,,,,,,,,,,
,,,,,,,,2023-08-16_08h36.51.832,HF_wild_card,2022.2.4,MacIntel,37.03703704,5c8ba607c5366c0001d022cb,64d2fd46c836a06233681665,64dc7c240fd16a25adb512a4,,,,,,,decisionTrl,resources/DP.BMP,resources/DB.BMP,Door1,0.157001414,-0.159123055,1,0,0,0.834,optionRight,30,10855,5,33,0,33,0,1,,,,,,,,,,,,,,,,,,,,,,,,,,,,,,,,,,,,,,,
,,,,,,,,2023-08-16_08h36.51.832,HF_wild_card,2022.2.4,MacIntel,37.03703704,5c8ba607c5366c0001d022cb,64d2fd46c836a06233681665,64dc7c240fd16a25adb512a4,,,,,,,decisionTrl,resources/DP.BMP,resources/DB.BMP,Door1,0.162659123,-0.147807638,1,0,0,0.595,optionRight,30,10885,5,34,0,34,0,1,,,,,,,,,,,,,,,,,,,,,,,,,,,,,,,,,,,,,,,
,,,,,,,,2023-08-16_08h36.51.832,HF_wild_card,2022.2.4,MacIntel,37.03703704,5c8ba607c5366c0001d022cb,64d2fd46c836a06233681665,64dc7c240fd16a25adb512a4,,,,,,,decisionTrl,resources/DY.BMP,resources/DBN.BMP,Door3,0.199434229,-0.200141443,1,0,0,0.614,optionRight,70,10955,5,35,0,35,0,1,,,,,,,,,,,,,,,,,,,,,,,,,,,,,,,,,,,,,,,
,,,,,,,,2023-08-16_08h36.51.832,HF_wild_card,2022.2.4,MacIntel,37.03703704,5c8ba607c5366c0001d022cb,64d2fd46c836a06233681665,64dc7c240fd16a25adb512a4,,,,,,,decisionTrl,resources/DY.BMP,resources/DBN.BMP,Door3,0.188118812,-0.195898161,1,0,0,0.48,optionRight,70,11025,5,36,0,36,0,1,,,,,,,,,,,,,,,,,,,,,,,,,,,,,,,,,,,,,,,
,,,,,,,,2023-08-16_08h36.51.832,HF_wild_card,2022.2.4,MacIntel,37.03703704,5c8ba607c5366c0001d022cb,64d2fd46c836a06233681665,64dc7c240fd16a25adb512a4,,,,,,,sngl,resources/DG.BMP,resources/Empty.png,WildCard_NonEx,-0.340876945,0.043140028,1,0,0,0.496,optionLeft,55,11080,5,37,0,37,0,1,,,,,,,,,,,,,,,,,,,,,,,,,,,,,,,,,,,,,,,
,,,,,,,,2023-08-16_08h36.51.832,HF_wild_card,2022.2.4,MacIntel,37.03703704,5c8ba607c5366c0001d022cb,64d2fd46c836a06233681665,64dc7c240fd16a25adb512a4,,,,,,,ctch,resources/DY.BMP,resources/DB.BMP,Door4,-0.247524752,0.133663366,1,0,0,1.214,optionLeft,60,11140,5,38,0,38,0,1,,,,,,,,,,,,,,,,,,,,,,,,,,,,,,,,,,,,,,,
,,,,,,,,2023-08-16_08h36.51.832,HF_wild_card,2022.2.4,MacIntel,37.03703704,5c8ba607c5366c0001d022cb,64d2fd46c836a06233681665,64dc7c240fd16a25adb512a4,,,,,,,sngl,resources/DBN.BMP,resources/Empty.png,Door3,-0.305516266,0.048797737,1,0,0,0.498,optionLeft,70,11210,5,39,0,39,0,1,,,,,,,,,,,,,,,,,,,,,,,,,,,,,,,,,,,,,,,
,,,,,,,,2023-08-16_08h36.51.832,HF_wild_card,2022.2.4,MacIntel,37.03703704,5c8ba607c5366c0001d022cb,64d2fd46c836a06233681665,64dc7c240fd16a25adb512a4,,,,,,,decisionTrl,resources/DP.BMP,resources/DB.BMP,Door2,-0.342291372,-0.06718529,1,0,0,0.716,optionLeft,20,11230,5,40,0,40,0,1,,,,,,,,,,,,,,,,,,,,,,,,,,,,,,,,,,,,,,,
,,,,,,,,2023-08-16_08h36.51.832,HF_wild_card,2022.2.4,MacIntel,37.03703704,5c8ba607c5366c0001d022cb,64d2fd46c836a06233681665,64dc7c240fd16a25adb512a4,,,,,,,decisionTrl,resources/DP.BMP,resources/DB.BMP,Door1,0.121640736,-0.150636492,1,0,0,0.53,optionRight,30,11260,5,41,0,41,0,1,,,,,,,,,,,,,,,,,,,,,,,,,,,,,,,,,,,,,,,
,,,,,,,,2023-08-16_08h36.51.832,HF_wild_card,2022.2.4,MacIntel,37.03703704,5c8ba607c5366c0001d022cb,64d2fd46c836a06233681665,64dc7c240fd16a25adb512a4,,,,,,,sngl,resources/Empty.png,resources/DBN.BMP,Door3,0.145685997,-0.122347949,1,0,0,0.501,optionRight,70,11330,5,42,0,42,0,1,,,,,,,,,,,,,,,,,,,,,,,,,,,,,,,,,,,,,,,
,,,,,,,,2023-08-16_08h36.51.832,HF_wild_card,2022.2.4,MacIntel,37.03703704,5c8ba607c5366c0001d022cb,64d2fd46c836a06233681665,64dc7c240fd16a25adb512a4,,,,,,,decisionTrl,resources/DB.BMP,resources/DG.BMP,WildCard_NonEx,0.100424328,-0.115275813,1,0,0,0.913,optionRight,55,11385,5,43,0,43,0,1,,,,,,,,,,,,,,,,,,,,,,,,,,,,,,,,,,,,,,,
,,,,,,,,2023-08-16_08h36.51.832,HF_wild_card,2022.2.4,MacIntel,37.03703704,5c8ba607c5366c0001d022cb,64d2fd46c836a06233681665,64dc7c240fd16a25adb512a4,,,,,,,,,,,,,,,,,,,,,,,,,,4,0,4,0,1,,,,,,,,,,,,,,,,,,,,,,,,,,,,,,,,,,
,,,,,,,,2023-08-16_08h36.51.832,HF_wild_card,2022.2.4,MacIntel,37.03703704,5c8ba607c5366c0001d022cb,64d2fd46c836a06233681665,64dc7c240fd16a25adb512a4,,,,,,,sngl,resources/Empty.png,resources/DP.BMP,Door2,0.111739745,-0.136492221,1,0,0,0.713,optionRight,40,11425,6,0,0,0,0,1,,,,,,,,,,,,,,,,,,,,,,,,,,,,,,,,,,,,,,,
,,,,,,,,2023-08-16_08h36.51.832,HF_wild_card,2022.2.4,MacIntel,37.03703704,5c8ba607c5366c0001d022cb,64d2fd46c836a06233681665,64dc7c240fd16a25adb512a4,,,,,,,sngl,resources/Empty.png,resources/DG.BMP,WildCard_NonEx,0.155586987,-0.04738331,1,0,0,0.435,optionRight,45,11470,6,1,0,1,0,1,,,,,,,,,,,,,,,,,,,,,,,,,,,,,,,,,,,,,,,
,,,,,,,,2023-08-16_08h36.51.832,HF_wild_card,2022.2.4,MacIntel,37.03703704,5c8ba607c5366c0001d022cb,64d2fd46c836a06233681665,64dc7c240fd16a25adb512a4,,,,,,,decisionTrl,resources/DY.BMP,resources/DBN.BMP,Door3,0.138613861,-0.043140028,1,0,0,0.644,optionRight,70,11540,6,2,0,2,0,1,,,,,,,,,,,,,,,,,,,,,,,,,,,,,,,,,,,,,,,
,,,,,,,,2023-08-16_08h36.51.832,HF_wild_card,2022.2.4,MacIntel,37.03703704,5c8ba607c5366c0001d022cb,64d2fd46c836a06233681665,64dc7c240fd16a25adb512a4,,,,,,,decisionTrl,resources/DP.BMP,resources/DB.BMP,Door2,-0.243281471,0.007779349,1,0,0,0.581,optionLeft,20,11560,6,3,0,3,0,1,,,,,,,,,,,,,,,,,,,,,,,,,,,,,,,,,,,,,,,
,,,,,,,,2023-08-16_08h36.51.832,HF_wild_card,2022.2.4,MacIntel,37.03703704,5c8ba607c5366c0001d022cb,64d2fd46c836a06233681665,64dc7c240fd16a25adb512a4,,,,,,,ctch,resources/DB.BMP,resources/DY.BMP,Door4,0.138613861,-0.078500707,1,0,0,0.432,optionRight,60,11620,6,4,0,4,0,1,,,,,,,,,,,,,,,,,,,,,,,,,,,,,,,,,,,,,,,
,,,,,,,,2023-08-16_08h36.51.832,HF_wild_card,2022.2.4,MacIntel,37.03703704,5c8ba607c5366c0001d022cb,64d2fd46c836a06233681665,64dc7c240fd16a25adb512a4,,,,,,,ctch,resources/DP.BMP,resources/DBN.BMP,Door3,0.1145686,-0.060113154,1,0,0,0.531,optionRight,70,11690,6,5,0,5,0,1,,,,,,,,,,,,,,,,,,,,,,,,,,,,,,,,,,,,,,,
,,,,,,,,2023-08-16_08h36.51.832,HF_wild_card,2022.2.4,MacIntel,37.03703704,5c8ba607c5366c0001d022cb,64d2fd46c836a06233681665,64dc7c240fd16a25adb512a4,,,,,,,sngl,resources/DB.BMP,resources/Empty.png,Door1,-0.272984441,0.026166902,1,0,0,0.462,optionLeft,30,11720,6,6,0,6,0,1,,,,,,,,,,,,,,,,,,,,,,,,,,,,,,,,,,,,,,,
,,,,,,,,2023-08-16_08h36.51.832,HF_wild_card,2022.2.4,MacIntel,37.03703704,5c8ba607c5366c0001d022cb,64d2fd46c836a06233681665,64dc7c240fd16a25adb512a4,,,,,,,sngl,resources/DP.BMP,resources/Empty.png,Door2,-0.24893918,0.030410184,1,0,0,0.481,optionLeft,20,11740,6,7,0,7,0,1,,,,,,,,,,,,,,,,,,,,,,,,,,,,,,,,,,,,,,,
,,,,,,,,2023-08-16_08h36.51.832,HF_wild_card,2022.2.4,MacIntel,37.03703704,5c8ba607c5366c0001d022cb,64d2fd46c836a06233681665,64dc7c240fd16a25adb512a4,,,,,,,decisionTrl,resources/DP.BMP,resources/DG.BMP,WildCard_NonEx,0.107496464,-0.099717115,1,0,0,0.735,optionRight,55,11795,6,8,0,8,0,1,,,,,,,,,,,,,,,,,,,,,,,,,,,,,,,,,,,,,,,
,,,,,,,,2023-08-16_08h36.51.832,HF_wild_card,2022.2.4,MacIntel,37.03703704,5c8ba607c5366c0001d022cb,64d2fd46c836a06233681665,64dc7c240fd16a25adb512a4,,,,,,,ctch,resources/DB.BMP,resources/DY.BMP,Door4,0.086280057,-0.064356436,1,0,0,0.546,optionRight,80,11875,6,9,0,9,0,1,,,,,,,,,,,,,,,,,,,,,,,,,,,,,,,,,,,,,,,
,,,,,,,,2023-08-16_08h36.51.832,HF_wild_card,2022.2.4,MacIntel,37.03703704,5c8ba607c5366c0001d022cb,64d2fd46c836a06233681665,64dc7c240fd16a25adb512a4,,,,,,,sngl,resources/DG.BMP,resources/Empty.png,WildCard_NonEx,-0.388967468,0.04738331,1,0,0,0.449,optionLeft,45,11920,6,10,0,10,0,1,,,,,,,,,,,,,,,,,,,,,,,,,,,,,,,,,,,,,,,
,,,,,,,,2023-08-16_08h36.51.832,HF_wild_card,2022.2.4,MacIntel,37.03703704,5c8ba607c5366c0001d022cb,64d2fd46c836a06233681665,64dc7c240fd16a25adb512a4,,,,,,,sngl,resources/Empty.png,resources/DBN.BMP,Door3,0.162659123,-0.089816124,1,0,0,0.567,optionRight,70,11990,6,11,0,11,0,1,,,,,,,,,,,,,,,,,,,,,,,,,,,,,,,,,,,,,,,
,,,,,,,,2023-08-16_08h36.51.832,HF_wild_card,2022.2.4,MacIntel,37.03703704,5c8ba607c5366c0001d022cb,64d2fd46c836a06233681665,64dc7c240fd16a25adb512a4,,,,,,,ctch,resources/DBN.BMP,resources/DP.BMP,Door3,-0.301272984,0.040311174,1,0,0,0.48,optionLeft,70,12060,6,12,0,12,0,1,,,,,,,,,,,,,,,,,,,,,,,,,,,,,,,,,,,,,,,
,,,,,,,,2023-08-16_08h36.51.832,HF_wild_card,2022.2.4,MacIntel,37.03703704,5c8ba607c5366c0001d022cb,64d2fd46c836a06233681665,64dc7c240fd16a25adb512a4,,,,,,,decisionTrl,resources/DY.BMP,resources/DBN.BMP,Door3,0.175388967,-0.072842999,1,0,0,0.567,optionRight,70,12130,6,13,0,13,0,1,,,,,,,,,,,,,,,,,,,,,,,,,,,,,,,,,,,,,,,
,,,,,,,,2023-08-16_08h36.51.832,HF_wild_card,2022.2.4,MacIntel,37.03703704,5c8ba607c5366c0001d022cb,64d2fd46c836a06233681665,64dc7c240fd16a25adb512a4,,,,,,,sngl,resources/Empty.png,resources/DG.BMP,WildCard_NonEx,0.162659123,-0.06718529,1,0,0,0.518,optionRight,55,12185,6,14,0,14,0,1,,,,,,,,,,,,,,,,,,,,,,,,,,,,,,,,,,,,,,,
,,,,,,,,2023-08-16_08h36.51.832,HF_wild_card,2022.2.4,MacIntel,37.03703704,5c8ba607c5366c0001d022cb,64d2fd46c836a06233681665,64dc7c240fd16a25adb512a4,,,,,,,decisionTrl,resources/DBN.BMP,resources/DY.BMP,Door3,-0.306930693,0.036067893,1,0,0,0.464,optionLeft,70,12255,6,15,0,15,0,1,,,,,,,,,,,,,,,,,,,,,,,,,,,,,,,,,,,,,,,
,,,,,,,,2023-08-16_08h36.51.832,HF_wild_card,2022.2.4,MacIntel,37.03703704,5c8ba607c5366c0001d022cb,64d2fd46c836a06233681665,64dc7c240fd16a25adb512a4,,,,,,,sngl,resources/Empty.png,resources/DB.BMP,Door1,0.172560113,-0.071428571,1,0,0,0.545,optionRight,30,12285,6,16,0,16,0,1,,,,,,,,,,,,,,,,,,,,,,,,,,,,,,,,,,,,,,,
,,,,,,,,2023-08-16_08h36.51.832,HF_wild_card,2022.2.4,MacIntel,37.03703704,5c8ba607c5366c0001d022cb,64d2fd46c836a06233681665,64dc7c240fd16a25adb512a4,,,,,,,decisionTrl,resources/DP.BMP,resources/DB.BMP,Door2,-0.251768034,0.019094767,1,0,0,0.566,optionLeft,20,12305,6,17,0,17,0,1,,,,,,,,,,,,,,,,,,,,,,,,,,,,,,,,,,,,,,,
,,,,,,,,2023-08-16_08h36.51.832,HF_wild_card,2022.2.4,MacIntel,37.03703704,5c8ba607c5366c0001d022cb,64d2fd46c836a06233681665,64dc7c240fd16a25adb512a4,,,,,,,decisionTrl,resources/DP.BMP,resources/DB.BMP,Door2,-0.284299859,-0.041725601,1,0,0,0.663,optionLeft,20,12325,6,18,0,18,0,1,,,,,,,,,,,,,,,,,,,,,,,,,,,,,,,,,,,,,,,
,,,,,,,,2023-08-16_08h36.51.832,HF_wild_card,2022.2.4,MacIntel,37.03703704,5c8ba607c5366c0001d022cb,64d2fd46c836a06233681665,64dc7c240fd16a25adb512a4,,,,,,,sngl,resources/DBN.BMP,resources/Empty.png,Door3,-0.275813296,-0.003536068,1,0,0,0.677,optionLeft,70,12395,6,19,0,19,0,1,,,,,,,,,,,,,,,,,,,,,,,,,,,,,,,,,,,,,,,
,,,,,,,,2023-08-16_08h36.51.832,HF_wild_card,2022.2.4,MacIntel,37.03703704,5c8ba607c5366c0001d022cb,64d2fd46c836a06233681665,64dc7c240fd16a25adb512a4,,,,,,,ctch,resources/DY.BMP,resources/DB.BMP,Door1,0.219236209,-0.143564356,1,0,0,2.595,optionRight,30,12425,6,20,0,20,0,1,,,,,,,,,,,,,,,,,,,,,,,,,,,,,,,,,,,,,,,
,,,,,,,,2023-08-16_08h36.51.832,HF_wild_card,2022.2.4,MacIntel,37.03703704,5c8ba607c5366c0001d022cb,64d2fd46c836a06233681665,64dc7c240fd16a25adb512a4,,,,,,,ctch,resources/DP.BMP,resources/DBN.BMP,Door3,0.127298444,-0.0572843,1,0,0,0.547,optionRight,70,12495,6,21,0,21,0,1,,,,,,,,,,,,,,,,,,,,,,,,,,,,,,,,,,,,,,,
,,,,,,,,2023-08-16_08h36.51.832,HF_wild_card,2022.2.4,MacIntel,37.03703704,5c8ba607c5366c0001d022cb,64d2fd46c836a06233681665,64dc7c240fd16a25adb512a4,,,,,,,ctch,resources/DBN.BMP,resources/DP.BMP,Door3,-0.454031117,0.082743989,1,0,0,0.577,optionLeft,70,12565,6,22,0,22,0,1,,,,,,,,,,,,,,,,,,,,,,,,,,,,,,,,,,,,,,,
,,,,,,,,2023-08-16_08h36.51.832,HF_wild_card,2022.2.4,MacIntel,37.03703704,5c8ba607c5366c0001d022cb,64d2fd46c836a06233681665,64dc7c240fd16a25adb512a4,,,,,,,decisionTrl,resources/DG.BMP,resources/DY.BMP,WildCard_NonEx,-0.233380481,-0.033239038,1,0,0,0.447,optionLeft,45,12610,6,23,0,23,0,1,,,,,,,,,,,,,,,,,,,,,,,,,,,,,,,,,,,,,,,
,,,,,,,,2023-08-16_08h36.51.832,HF_wild_card,2022.2.4,MacIntel,37.03703704,5c8ba607c5366c0001d022cb,64d2fd46c836a06233681665,64dc7c240fd16a25adb512a4,,,,,,,decisionTrl,resources/DY.BMP,resources/DBN.BMP,Door3,0.178217822,-0.176096181,1,0,0,0.462,optionRight,70,12680,6,24,0,24,0,1,,,,,,,,,,,,,,,,,,,,,,,,,,,,,,,,,,,,,,,
,,,,,,,,2023-08-16_08h36.51.832,HF_wild_card,2022.2.4,MacIntel,37.03703704,5c8ba607c5366c0001d022cb,64d2fd46c836a06233681665,64dc7c240fd16a25adb512a4,,,,,,,decisionTrl,resources/DG.BMP,resources/DB.BMP,WildCard_NonEx,-0.264497878,-0.0572843,1,0,0,2.387,optionLeft,45,12725,6,25,0,25,0,1,,,,,,,,,,,,,,,,,,,,,,,,,,,,,,,,,,,,,,,
,,,,,,,,2023-08-16_08h36.51.832,HF_wild_card,2022.2.4,MacIntel,37.03703704,5c8ba607c5366c0001d022cb,64d2fd46c836a06233681665,64dc7c240fd16a25adb512a4,,,,,,,decisionTrl,resources/DP.BMP,resources/DB.BMP,Door1,0.159830269,-0.198727016,1,0,0,0.566,optionRight,30,12755,6,26,0,26,0,1,,,,,,,,,,,,,,,,,,,,,,,,,,,,,,,,,,,,,,,
,,,,,,,,2023-08-16_08h36.51.832,HF_wild_card,2022.2.4,MacIntel,37.03703704,5c8ba607c5366c0001d022cb,64d2fd46c836a06233681665,64dc7c240fd16a25adb512a4,,,,,,,decisionTrl,resources/DY.BMP,resources/DG.BMP,WildCard_NonEx,0.178217822,-0.202970297,1,0,0,0.814,optionRight,45,12800,6,27,0,27,0,1,,,,,,,,,,,,,,,,,,,,,,,,,,,,,,,,,,,,,,,
,,,,,,,,2023-08-16_08h36.51.832,HF_wild_card,2022.2.4,MacIntel,37.03703704,5c8ba607c5366c0001d022cb,64d2fd46c836a06233681665,64dc7c240fd16a25adb512a4,,,,,,,decisionTrl,resources/DY.BMP,resources/DBN.BMP,Door3,0.168316832,-0.224186704,1,0,0,0.498,optionRight,70,12870,6,28,0,28,0,1,,,,,,,,,,,,,,,,,,,,,,,,,,,,,,,,,,,,,,,
,,,,,,,,2023-08-16_08h36.51.832,HF_wild_card,2022.2.4,MacIntel,37.03703704,5c8ba607c5366c0001d022cb,64d2fd46c836a06233681665,64dc7c240fd16a25adb512a4,,,,,,,decisionTrl,resources/DB.BMP,resources/DP.BMP,Door1,-0.275813296,-0.038896747,1,0,0,0.68,optionLeft,30,12900,6,29,0,29,0,1,,,,,,,,,,,,,,,,,,,,,,,,,,,,,,,,,,,,,,,
,,,,,,,,2023-08-16_08h36.51.832,HF_wild_card,2022.2.4,MacIntel,37.03703704,5c8ba607c5366c0001d022cb,64d2fd46c836a06233681665,64dc7c240fd16a25adb512a4,,,,,,,decisionTrl,resources/DBN.BMP,resources/DY.BMP,Door3,-0.270155587,0.004950495,1,0,0,0.664,optionLeft,70,12970,6,30,0,30,0,1,,,,,,,,,,,,,,,,,,,,,,,,,,,,,,,,,,,,,,,
,,,,,,,,2023-08-16_08h36.51.832,HF_wild_card,2022.2.4,MacIntel,37.03703704,5c8ba607c5366c0001d022cb,64d2fd46c836a06233681665,64dc7c240fd16a25adb512a4,,,,,,,decisionTrl,resources/DG.BMP,resources/DP.BMP,Door2,0.195190948,-0.236916549,1,0,0,1.345,optionRight,40,13010,6,31,0,31,0,1,,,,,,,,,,,,,,,,,,,,,,,,,,,,,,,,,,,,,,,
,,,,,,,,2023-08-16_08h36.51.832,HF_wild_card,2022.2.4,MacIntel,37.03703704,5c8ba607c5366c0001d022cb,64d2fd46c836a06233681665,64dc7c240fd16a25adb512a4,,,,,,,decisionTrl,resources/DB.BMP,resources/DP.BMP,Door2,0.205091938,-0.228429986,1,0,0,0.615,optionRight,40,13050,6,32,0,32,0,1,,,,,,,,,,,,,,,,,,,,,,,,,,,,,,,,,,,,,,,
,,,,,,,,2023-08-16_08h36.51.832,HF_wild_card,2022.2.4,MacIntel,37.03703704,5c8ba607c5366c0001d022cb,64d2fd46c836a06233681665,64dc7c240fd16a25adb512a4,,,,,,,decisionTrl,resources/DBN.BMP,resources/DY.BMP,Door3,-0.240452617,-0.02758133,1,0,0,0.531,optionLeft,70,13120,6,33,0,33,0,1,,,,,,,,,,,,,,,,,,,,,,,,,,,,,,,,,,,,,,,
,,,,,,,,2023-08-16_08h36.51.832,HF_wild_card,2022.2.4,MacIntel,37.03703704,5c8ba607c5366c0001d022cb,64d2fd46c836a06233681665,64dc7c240fd16a25adb512a4,,,,,,,decisionTrl,resources/DB.BMP,resources/DP.BMP,Door2,0.181046676,-0.169024045,1,0,0,0.766,optionRight,40,13160,6,34,0,34,0,1,,,,,,,,,,,,,,,,,,,,,,,,,,,,,,,,,,,,,,,
,,,,,,,,2023-08-16_08h36.51.832,HF_wild_card,2022.2.4,MacIntel,37.03703704,5c8ba607c5366c0001d022cb,64d2fd46c836a06233681665,64dc7c240fd16a25adb512a4,,,,,,,decisionTrl,resources/DB.BMP,resources/DP.BMP,Door1,-0.202263083,-0.045968883,1,0,0,0.798,optionLeft,30,13190,6,35,0,35,0,1,,,,,,,,,,,,,,,,,,,,,,,,,,,,,,,,,,,,,,,
,,,,,,,,2023-08-16_08h36.51.832,HF_wild_card,2022.2.4,MacIntel,37.03703704,5c8ba607c5366c0001d022cb,64d2fd46c836a06233681665,64dc7c240fd16a25adb512a4,,,,,,,decisionTrl,resources/DB.BMP,resources/DG.BMP,WildCard_NonEx,0.172560113,-0.176096181,1,0,0,0.533,optionRight,55,13245,6,36,0,36,0,1,,,,,,,,,,,,,,,,,,,,,,,,,,,,,,,,,,,,,,,
,,,,,,,,2023-08-16_08h36.51.832,HF_wild_card,2022.2.4,MacIntel,37.03703704,5c8ba607c5366c0001d022cb,64d2fd46c836a06233681665,64dc7c240fd16a25adb512a4,,,,,,,decisionTrl,resources/DBN.BMP,resources/DY.BMP,Door3,-0.212164074,-0.023338048,1,0,0,0.495,optionLeft,70,13315,6,37,0,37,0,1,,,,,,,,,,,,,,,,,,,,,,,,,,,,,,,,,,,,,,,
,,,,,,,,2023-08-16_08h36.51.832,HF_wild_card,2022.2.4,MacIntel,37.03703704,5c8ba607c5366c0001d022cb,64d2fd46c836a06233681665,64dc7c240fd16a25adb512a4,,,,,,,decisionTrl,resources/DBN.BMP,resources/DG.BMP,Door3,-0.220650636,-0.030410184,1,0,0,0.542,optionLeft,70,13385,6,38,0,38,0,1,,,,,,,,,,,,,,,,,,,,,,,,,,,,,,,,,,,,,,,
,,,,,,,,2023-08-16_08h36.51.832,HF_wild_card,2022.2.4,MacIntel,37.03703704,5c8ba607c5366c0001d022cb,64d2fd46c836a06233681665,64dc7c240fd16a25adb512a4,,,,,,,sngl,resources/DG.BMP,resources/Empty.png,WildCard_NonEx,-0.210749646,-0.036067893,1,0,0,0.481,optionLeft,55,13440,6,39,0,39,0,1,,,,,,,,,,,,,,,,,,,,,,,,,,,,,,,,,,,,,,,
,,,,,,,,2023-08-16_08h36.51.832,HF_wild_card,2022.2.4,MacIntel,37.03703704,5c8ba607c5366c0001d022cb,64d2fd46c836a06233681665,64dc7c240fd16a25adb512a4,,,,,,,sngl,resources/DY.BMP,resources/Empty.png,Door4,-0.162659123,-0.055869873,1,0,0,0.547,optionLeft,60,13500,6,40,0,40,0,1,,,,,,,,,,,,,,,,,,,,,,,,,,,,,,,,,,,,,,,
,,,,,,,,2023-08-16_08h36.51.832,HF_wild_card,2022.2.4,MacIntel,37.03703704,5c8ba607c5366c0001d022cb,64d2fd46c836a06233681665,64dc7c240fd16a25adb512a4,,,,,,,decisionTrl,resources/DG.BMP,resources/DBN.BMP,Door3,0.205091938,-0.176096181,1,0,0,0.634,optionRight,70,13570,6,41,0,41,0,1,,,,,,,,,,,,,,,,,,,,,,,,,,,,,,,,,,,,,,,
,,,,,,,,2023-08-16_08h36.51.832,HF_wild_card,2022.2.4,MacIntel,37.03703704,5c8ba607c5366c0001d022cb,64d2fd46c836a06233681665,64dc7c240fd16a25adb512a4,,,,,,,ctch,resources/DY.BMP,resources/DB.BMP,Door1,0.181046676,-0.197312588,1,0,0,0.648,optionRight,30,13600,6,42,0,42,0,1,,,,,,,,,,,,,,,,,,,,,,,,,,,,,,,,,,,,,,,
,,,,,,,,2023-08-16_08h36.51.832,HF_wild_card,2022.2.4,MacIntel,37.03703704,5c8ba607c5366c0001d022cb,64d2fd46c836a06233681665,64dc7c240fd16a25adb512a4,,,,,,,sngl,resources/Empty.png,resources/DY.BMP,Door4,0.199434229,-0.153465347,1,0,0,0.515,optionRight,80,13680,6,43,0,43,0,1,,,,,,,,,,,,,,,,,,,,,,,,,,,,,,,,,,,,,,,
,,,,,,,,2023-08-16_08h36.51.832,HF_wild_card,2022.2.4,MacIntel,37.03703704,5c8ba607c5366c0001d022cb,64d2fd46c836a06233681665,64dc7c240fd16a25adb512a4,,,,,,,,,,,,,,,,,,,,,,,,,,5,0,5,0,1,,,,,,,,,,,,,,,,,,,,,,,,,,,,,,,,,,
,,,,,,,,2023-08-16_08h36.51.832,HF_wild_card,2022.2.4,MacIntel,37.03703704,5c8ba607c5366c0001d022cb,64d2fd46c836a06233681665,64dc7c240fd16a25adb512a4,,,,,,,decisionTrl,resources/DY.BMP,resources/DBN.BMP,Door3,0.140028289,-0.202970297,1,0,0,0.609,optionRight,70,13750,7,0,0,0,0,1,,,,,,,,,,,,,,,,,,,,,,,,,,,,,,,,,,,,,,,
,,,,,,,,2023-08-16_08h36.51.832,HF_wild_card,2022.2.4,MacIntel,37.03703704,5c8ba607c5366c0001d022cb,64d2fd46c836a06233681665,64dc7c240fd16a25adb512a4,,,,,,,decisionTrl,resources/DP.BMP,resources/DB.BMP,Door2,-0.223479491,-0.023338048,1,0,0,1.197,optionLeft,40,13790,7,1,0,1,0,1,,,,,,,,,,,,,,,,,,,,,,,,,,,,,,,,,,,,,,,
,,,,,,,,2023-08-16_08h36.51.832,HF_wild_card,2022.2.4,MacIntel,37.03703704,5c8ba607c5366c0001d022cb,64d2fd46c836a06233681665,64dc7c240fd16a25adb512a4,,,,,,,decisionTrl,resources/DP.BMP,resources/DB.BMP,Door2,-0.250353607,0.000707214,1,0,0,0.58,optionLeft,20,13810,7,2,0,2,0,1,,,,,,,,,,,,,,,,,,,,,,,,,,,,,,,,,,,,,,,
,,,,,,,,2023-08-16_08h36.51.832,HF_wild_card,2022.2.4,MacIntel,37.03703704,5c8ba607c5366c0001d022cb,64d2fd46c836a06233681665,64dc7c240fd16a25adb512a4,,,,,,,decisionTrl,resources/DY.BMP,resources/DBN.BMP,Door3,0.162659123,-0.161951909,1,0,0,0.5,optionRight,70,13880,7,3,0,3,0,1,,,,,,,,,,,,,,,,,,,,,,,,,,,,,,,,,,,,,,,
,,,,,,,,2023-08-16_08h36.51.832,HF_wild_card,2022.2.4,MacIntel,37.03703704,5c8ba607c5366c0001d022cb,64d2fd46c836a06233681665,64dc7c240fd16a25adb512a4,,,,,,,decisionTrl,resources/DBN.BMP,resources/DY.BMP,Door3,-0.236209335,0.013437058,1,0,0,0.488,optionLeft,70,13950,7,4,0,4,0,1,,,,,,,,,,,,,,,,,,,,,,,,,,,,,,,,,,,,,,,
,,,,,,,,2023-08-16_08h36.51.832,HF_wild_card,2022.2.4,MacIntel,37.03703704,5c8ba607c5366c0001d022cb,64d2fd46c836a06233681665,64dc7c240fd16a25adb512a4,,,,,,,ctch,resources/DBN.BMP,resources/DP.BMP,Door3,-0.217821782,0.009193777,1,0,0,0.449,optionLeft,70,14020,7,5,0,5,0,1,,,,,,,,,,,,,,,,,,,,,,,,,,,,,,,,,,,,,,,
,,,,,,,,2023-08-16_08h36.51.832,HF_wild_card,2022.2.4,MacIntel,37.03703704,5c8ba607c5366c0001d022cb,64d2fd46c836a06233681665,64dc7c240fd16a25adb512a4,,,,,,,decisionTrl,resources/DY.BMP,resources/DBN.BMP,Door3,0.190947666,-0.207213579,1,0,0,0.564,optionRight,70,14090,7,6,0,6,0,1,,,,,,,,,,,,,,,,,,,,,,,,,,,,,,,,,,,,,,,
,,,,,,,,2023-08-16_08h36.51.832,HF_wild_card,2022.2.4,MacIntel,37.03703704,5c8ba607c5366c0001d022cb,64d2fd46c836a06233681665,64dc7c240fd16a25adb512a4,,,,,,,decisionTrl,resources/DBN.BMP,resources/DY.BMP,Door3,-0.216407355,0.003536068,1,0,0,0.464,optionLeft,70,14160,7,7,0,7,0,1,,,,,,,,,,,,,,,,,,,,,,,,,,,,,,,,,,,,,,,
,,,,,,,,2023-08-16_08h36.51.832,HF_wild_card,2022.2.4,MacIntel,37.03703704,5c8ba607c5366c0001d022cb,64d2fd46c836a06233681665,64dc7c240fd16a25adb512a4,,,,,,,ctch,resources/DBN.BMP,resources/DP.BMP,Door3,-0.267326733,0.034653465,1,0,0,0.449,optionLeft,70,14230,7,8,0,8,0,1,,,,,,,,,,,,,,,,,,,,,,,,,,,,,,,,,,,,,,,
,,,,,,,,2023-08-16_08h36.51.832,HF_wild_card,2022.2.4,MacIntel,37.03703704,5c8ba607c5366c0001d022cb,64d2fd46c836a06233681665,64dc7c240fd16a25adb512a4,,,,,,,ctch,resources/DBN.BMP,resources/DP.BMP,Door3,-0.223479491,0.004950495,1,0,0,0.434,optionLeft,70,14300,7,9,0,9,0,1,,,,,,,,,,,,,,,,,,,,,,,,,,,,,,,,,,,,,,,
,,,,,,,,2023-08-16_08h36.51.832,HF_wild_card,2022.2.4,MacIntel,37.03703704,5c8ba607c5366c0001d022cb,64d2fd46c836a06233681665,64dc7c240fd16a25adb512a4,,,,,,,decisionTrl,resources/DB.BMP,resources/DP.BMP,Door2,0.12446959,-0.166195191,1,0,0,0.768,optionRight,20,14320,7,10,0,10,0,1,,,,,,,,,,,,,,,,,,,,,,,,,,,,,,,,,,,,,,,
,,,,,,,,2023-08-16_08h36.51.832,HF_wild_card,2022.2.4,MacIntel,37.03703704,5c8ba607c5366c0001d022cb,64d2fd46c836a06233681665,64dc7c240fd16a25adb512a4,,,,,,,decisionTrl,resources/DBN.BMP,resources/DY.BMP,Door3,-0.188118812,-0.009193777,1,0,0,0.515,optionLeft,70,14390,7,11,0,11,0,1,,,,,,,,,,,,,,,,,,,,,,,,,,,,,,,,,,,,,,,
,,,,,,,,2023-08-16_08h36.51.832,HF_wild_card,2022.2.4,MacIntel,37.03703704,5c8ba607c5366c0001d022cb,64d2fd46c836a06233681665,64dc7c240fd16a25adb512a4,,,,,,,decisionTrl,resources/DB.BMP,resources/DP.BMP,Door2,0.169731259,-0.159123055,1,0,0,0.665,optionRight,20,14410,7,12,0,12,0,1,,,,,,,,,,,,,,,,,,,,,,,,,,,,,,,,,,,,,,,
,,,,,,,,2023-08-16_08h36.51.832,HF_wild_card,2022.2.4,MacIntel,37.03703704,5c8ba607c5366c0001d022cb,64d2fd46c836a06233681665,64dc7c240fd16a25adb512a4,,,,,,,ctch,resources/DB.BMP,resources/DY.BMP,Door4,0.219236209,-0.18175389,1,0,0,0.712,optionRight,60,14470,7,13,0,13,0,1,,,,,,,,,,,,,,,,,,,,,,,,,,,,,,,,,,,,,,,
,,,,,,,,2023-08-16_08h36.51.832,HF_wild_card,2022.2.4,MacIntel,37.03703704,5c8ba607c5366c0001d022cb,64d2fd46c836a06233681665,64dc7c240fd16a25adb512a4,,,,,,,decisionTrl,resources/DB.BMP,resources/DP.BMP,Door2,0.158415842,-0.128005658,1,0,0,1.232,optionRight,40,14510,7,14,0,14,0,1,,,,,,,,,,,,,,,,,,,,,,,,,,,,,,,,,,,,,,,
,,,,,,,,2023-08-16_08h36.51.832,HF_wild_card,2022.2.4,MacIntel,37.03703704,5c8ba607c5366c0001d022cb,64d2fd46c836a06233681665,64dc7c240fd16a25adb512a4,,,,,,,ctch,resources/DP.BMP,resources/DBN.BMP,Door3,0.198019802,-0.190240453,1,0,0,0.565,optionRight,70,14580,7,15,0,15,0,1,,,,,,,,,,,,,,,,,,,,,,,,,,,,,,,,,,,,,,,
,,,,,,,,2023-08-16_08h36.51.832,HF_wild_card,2022.2.4,MacIntel,37.03703704,5c8ba607c5366c0001d022cb,64d2fd46c836a06233681665,64dc7c240fd16a25adb512a4,,,,,,,ctch,resources/DB.BMP,resources/DY.BMP,Door4,0.196605375,-0.160537482,1,0,0,0.679,optionRight,60,14640,7,16,0,16,0,1,,,,,,,,,,,,,,,,,,,,,,,,,,,,,,,,,,,,,,,
,,,,,,,,2023-08-16_08h36.51.832,HF_wild_card,2022.2.4,MacIntel,37.03703704,5c8ba607c5366c0001d022cb,64d2fd46c836a06233681665,64dc7c240fd16a25adb512a4,,,,,,,decisionTrl,resources/DBN.BMP,resources/DY.BMP,Door3,-0.243281471,0.024752475,1,0,0,0.564,optionLeft,70,14710,7,17,0,17,0,1,,,,,,,,,,,,,,,,,,,,,,,,,,,,,,,,,,,,,,,
,,,,,,,,2023-08-16_08h36.51.832,HF_wild_card,2022.2.4,MacIntel,37.03703704,5c8ba607c5366c0001d022cb,64d2fd46c836a06233681665,64dc7c240fd16a25adb512a4,,,,,,,decisionTrl,resources/DY.BMP,resources/DBN.BMP,Door3,0.145685997,-0.147807638,1,0,0,0.466,optionRight,70,14780,7,18,0,18,0,1,,,,,,,,,,,,,,,,,,,,,,,,,,,,,,,,,,,,,,,
,,,,,,,,2023-08-16_08h36.51.832,HF_wild_card,2022.2.4,MacIntel,37.03703704,5c8ba607c5366c0001d022cb,64d2fd46c836a06233681665,64dc7c240fd16a25adb512a4,,,,,,,decisionTrl,resources/DBN.BMP,resources/DY.BMP,Door3,-0.162659123,0.006364922,1,0,0,0.733,optionLeft,70,14850,7,19,0,19,0,1,,,,,,,,,,,,,,,,,,,,,,,,,,,,,,,,,,,,,,,
,,,,,,,,2023-08-16_08h36.51.832,HF_wild_card,2022.2.4,MacIntel,37.03703704,5c8ba607c5366c0001d022cb,64d2fd46c836a06233681665,64dc7c240fd16a25adb512a4,,,,,,,ctch,resources/DB.BMP,resources/DY.BMP,Door4,0.214992928,-0.176096181,1,0,0,0.649,optionRight,60,14910,7,20,0,20,0,1,,,,,,,,,,,,,,,,,,,,,,,,,,,,,,,,,,,,,,,
,,,,,,,,2023-08-16_08h36.51.832,HF_wild_card,2022.2.4,MacIntel,37.03703704,5c8ba607c5366c0001d022cb,64d2fd46c836a06233681665,64dc7c240fd16a25adb512a4,,,,,,,ctch,resources/DY.BMP,resources/DB.BMP,Door4,-0.209335219,0.003536068,1,0,0,0.716,optionLeft,80,14990,7,21,0,21,0,1,,,,,,,,,,,,,,,,,,,,,,,,,,,,,,,,,,,,,,,
,,,,,,,,2023-08-16_08h36.51.832,HF_wild_card,2022.2.4,MacIntel,37.03703704,5c8ba607c5366c0001d022cb,64d2fd46c836a06233681665,64dc7c240fd16a25adb512a4,,,,,,,decisionTrl,resources/DB.BMP,resources/DP.BMP,Door2,0.147100424,-0.163366337,1,0,0,0.534,optionRight,40,15030,7,22,0,22,0,1,,,,,,,,,,,,,,,,,,,,,,,,,,,,,,,,,,,,,,,
,,,,,,,,2023-08-16_08h36.51.832,HF_wild_card,2022.2.4,MacIntel,37.03703704,5c8ba607c5366c0001d022cb,64d2fd46c836a06233681665,64dc7c240fd16a25adb512a4,,,,,,,decisionTrl,resources/DY.BMP,resources/DBN.BMP,Door3,0.169731259,-0.164780764,1,0,0,0.532,optionRight,70,15100,7,23,0,23,0,1,,,,,,,,,,,,,,,,,,,,,,,,,,,,,,,,,,,,,,,
,,,,,,,,2023-08-16_08h36.51.832,HF_wild_card,2022.2.4,MacIntel,37.03703704,5c8ba607c5366c0001d022cb,64d2fd46c836a06233681665,64dc7c240fd16a25adb512a4,,,,,,,decisionTrl,resources/DB.BMP,resources/DP.BMP,Door2,0.12446959,-0.130834512,1,0,0,1.263,optionRight,20,15120,7,24,0,24,0,1,,,,,,,,,,,,,,,,,,,,,,,,,,,,,,,,,,,,,,,
,,,,,,,,2023-08-16_08h36.51.832,HF_wild_card,2022.2.4,MacIntel,37.03703704,5c8ba607c5366c0001d022cb,64d2fd46c836a06233681665,64dc7c240fd16a25adb512a4,,,,,,,decisionTrl,resources/DP.BMP,resources/DB.BMP,Door1,0.165487977,-0.177510608,1,0,0,0.563,optionRight,30,15150,7,25,0,25,0,1,,,,,,,,,,,,,,,,,,,,,,,,,,,,,,,,,,,,,,,
,,,,,,,,2023-08-16_08h36.51.832,HF_wild_card,2022.2.4,MacIntel,37.03703704,5c8ba607c5366c0001d022cb,64d2fd46c836a06233681665,64dc7c240fd16a25adb512a4,,,,,,,decisionTrl,resources/DBN.BMP,resources/DY.BMP,Door3,-0.261669024,0.024752475,1,0,0,0.601,optionLeft,70,15220,7,26,0,26,0,1,,,,,,,,,,,,,,,,,,,,,,,,,,,,,,,,,,,,,,,
,,,,,,,,2023-08-16_08h36.51.832,HF_wild_card,2022.2.4,MacIntel,37.03703704,5c8ba607c5366c0001d022cb,64d2fd46c836a06233681665,64dc7c240fd16a25adb512a4,,,,,,,decisionTrl,resources/DP.BMP,resources/DB.BMP,Door2,-0.16407355,-0.020509194,1,0,0,0.667,optionLeft,20,15240,7,27,0,27,0,1,,,,,,,,,,,,,,,,,,,,,,,,,,,,,,,,,,,,,,,
,,,,,,,,2023-08-16_08h36.51.832,HF_wild_card,2022.2.4,MacIntel,37.03703704,5c8ba607c5366c0001d022cb,64d2fd46c836a06233681665,64dc7c240fd16a25adb512a4,,,,,,,decisionTrl,resources/DP.BMP,resources/DB.BMP,Door2,-0.171145686,-0.016265912,1,0,0,0.549,optionLeft,40,15280,7,28,0,28,0,1,,,,,,,,,,,,,,,,,,,,,,,,,,,,,,,,,,,,,,,
,,,,,,,,2023-08-16_08h36.51.832,HF_wild_card,2022.2.4,MacIntel,37.03703704,5c8ba607c5366c0001d022cb,64d2fd46c836a06233681665,64dc7c240fd16a25adb512a4,,,,,,,ctch,resources/DY.BMP,resources/DB.BMP,Door4,-0.135785007,-0.051626591,1,0,0,0.7,optionLeft,80,15360,7,29,0,29,0,1,,,,,,,,,,,,,,,,,,,,,,,,,,,,,,,,,,,,,,,
,,,,,,,,2023-08-16_08h36.51.832,HF_wild_card,2022.2.4,MacIntel,37.03703704,5c8ba607c5366c0001d022cb,64d2fd46c836a06233681665,64dc7c240fd16a25adb512a4,,,,,,,ctch,resources/DP.BMP,resources/DBN.BMP,Door3,0.166902405,-0.176096181,1,0,0,0.459,optionRight,70,15430,7,30,0,30,0,1,,,,,,,,,,,,,,,,,,,,,,,,,,,,,,,,,,,,,,,
,,,,,,,,2023-08-16_08h36.51.832,HF_wild_card,2022.2.4,MacIntel,37.03703704,5c8ba607c5366c0001d022cb,64d2fd46c836a06233681665,64dc7c240fd16a25adb512a4,,,,,,,decisionTrl,resources/DY.BMP,resources/DBN.BMP,Door3,0.166902405,-0.154879774,1,0,0,0.447,optionRight,70,15500,7,31,0,31,0,1,,,,,,,,,,,,,,,,,,,,,,,,,,,,,,,,,,,,,,,
,,,,,,,,2023-08-16_08h36.51.832,HF_wild_card,2022.2.4,MacIntel,37.03703704,5c8ba607c5366c0001d022cb,64d2fd46c836a06233681665,64dc7c240fd16a25adb512a4,,,,,,,decisionTrl,resources/DP.BMP,resources/DB.BMP,Door2,-0.199434229,-0.006364922,1,0,0,0.646,optionLeft,20,15520,7,32,0,32,0,1,,,,,,,,,,,,,,,,,,,,,,,,,,,,,,,,,,,,,,,
,,,,,,,,2023-08-16_08h36.51.832,HF_wild_card,2022.2.4,MacIntel,37.03703704,5c8ba607c5366c0001d022cb,64d2fd46c836a06233681665,64dc7c240fd16a25adb512a4,,,,,,,ctch,resources/DY.BMP,resources/DB.BMP,Door4,-0.189533239,-0.021923621,1,0,0,0.564,optionLeft,60,15580,7,33,0,33,0,1,,,,,,,,,,,,,,,,,,,,,,,,,,,,,,,,,,,,,,,
,,,,,,,,2023-08-16_08h36.51.832,HF_wild_card,2022.2.4,MacIntel,37.03703704,5c8ba607c5366c0001d022cb,64d2fd46c836a06233681665,64dc7c240fd16a25adb512a4,,,,,,,ctch,resources/DP.BMP,resources/DBN.BMP,Door3,0.161244696,-0.154879774,1,0,0,0.531,optionRight,70,15650,7,34,0,34,0,1,,,,,,,,,,,,,,,,,,,,,,,,,,,,,,,,,,,,,,,
,,,,,,,,2023-08-16_08h36.51.832,HF_wild_card,2022.2.4,MacIntel,37.03703704,5c8ba607c5366c0001d022cb,64d2fd46c836a06233681665,64dc7c240fd16a25adb512a4,,,,,,,decisionTrl,resources/DB.BMP,resources/DP.BMP,Door2,0.178217822,-0.159123055,1,0,0,0.664,optionRight,40,15690,7,35,0,35,0,1,,,,,,,,,,,,,,,,,,,,,,,,,,,,,,,,,,,,,,,
,,,,,,,,2023-08-16_08h36.51.832,HF_wild_card,2022.2.4,MacIntel,37.03703704,5c8ba607c5366c0001d022cb,64d2fd46c836a06233681665,64dc7c240fd16a25adb512a4,,,,,,,,,,,,,,,,,,,,,,,,,,6,0,6,0,1,,,,,,,,,,,,,,,,,,,,,,,,,,,,,,,,,,
,,,,,,,,2023-08-16_08h36.51.832,HF_wild_card,2022.2.4,MacIntel,37.03703704,5c8ba607c5366c0001d022cb,64d2fd46c836a06233681665,64dc7c240fd16a25adb512a4,,,,,,,,,,,,,,,,,,,,,,,,,,,,,,,3,,,,,,,,,,,,,,,,,,,,,,,,,,,,,,,,,
,,,,,,,,2023-08-16_08h36.51.832,HF_wild_card,2022.2.4,MacIntel,37.03703704,5c8ba607c5366c0001d022cb,64d2fd46c836a06233681665,64dc7c240fd16a25adb512a4,,,,,,,,,,,,,,,,,,,,,,,,,,,,,,,,,,,,,,,,,,,,,,,,,,,,,,,,,,,,,,,,
,,,,,,,,2023-08-16_08h36.51.832,HF_wild_card,2022.2.4,MacIntel,37.03703704,5c8ba607c5366c0001d022cb,64d2fd46c836a06233681665,64dc7c240fd16a25adb512a4,,,,,,,,,,,,,,,,,,,,,,,,,,,,,,,,4,Door2,resources/DP.BMP,0,0,0,0,1,,,,,,,,,,,,,,,,,,,,,,,,,
,,,,,,,,2023-08-16_08h36.51.832,HF_wild_card,2022.2.4,MacIntel,37.03703704,5c8ba607c5366c0001d022cb,64d2fd46c836a06233681665,64dc7c240fd16a25adb512a4,,,,,,,,,,,,,,,,,,,,,,,,,,,,,,,,13,Door4,resources/DY.BMP,1,0,1,0,1,,,,,,,,,,,,,,,,,,,,,,,,,
,,,,,,,,2023-08-16_08h36.51.832,HF_wild_card,2022.2.4,MacIntel,37.03703704,5c8ba607c5366c0001d022cb,64d2fd46c836a06233681665,64dc7c240fd16a25adb512a4,,,,,,,,,,,,,,,,,,,,,,,,,,,,,,,,16,Door1,resources/DB.BMP,2,0,2,0,1,,,,,,,,,,,,,,,,,,,,,,,,,
,,,,,,,,2023-08-16_08h36.51.832,HF_wild_card,2022.2.4,MacIntel,37.03703704,5c8ba607c5366c0001d022cb,64d2fd46c836a06233681665,64dc7c240fd16a25adb512a4,,,,,,,,,,,,,,,,,,,,,,,,,,,,,,,,20,Door3,resources/DBN.BMP,3,0,3,0,1,,,,,,,,,,,,,,,,,,,,,,,,,
