Condition,Low fixed image (Door1),Low risky image (Door2),High fixed image (Door3),High risky image (Door4),Extreme Wild Card,NonExtreme Wild Card,,date,expName,psychopyVersion,OS,frameRate,PROLIFIC_PID,STUDY_ID,SESSION_ID,mouse_2.x,mouse_2.y,mouse_2.leftButton,mouse_2.midButton,mouse_2.rightButton,mouse_2.clicked_name,Trial Type,Left Option Image,Right Option Image,Chosen Door,mouse.x,mouse.y,mouse.leftButton,mouse.midButton,mouse.rightButton,mouse.time,mouse.clicked_name,Feedback,Cumulative Reward,Block,trial.thisRepN,trial.thisTrialN,trial.thisN,trial.thisIndex,trial.ran,blocks.thisRepN,blocks.thisTrialN,blocks.thisN,blocks.thisIndex,blocks.ran,Money conversion,First Outcome Reported,Shown Door (First Outcome),Displayed Image (First Outcome),outcomes.thisRepN,outcomes.thisTrialN,outcomes.thisN,outcomes.thisIndex,outcomes.ran,judgments.thisRepN,judgments.thisTrialN,judgments.thisN,judgments.thisIndex,judgments.ran,freqMouse.x,freqMouse.y,freqMouse.leftButton,freqMouse.midButton,freqMouse.rightButton,freqMouse.clicked_name,FQJ for first outcome,FQJ for second outcome,Shown Door,Displayed Image,trials.thisRepN,trials.thisTrialN,trials.thisN,trials.thisIndex,trials.ran,judgBlock.thisRepN,judgBlock.thisTrialN,judgBlock.thisN,judgBlock.thisIndex,judgBlock.ran
0,resources/DBN.BMP,resources/DB.BMP,resources/DY.BMP,resources/DP.BMP,resources/DR.BMP,resources/DG.BMP,,2023-08-16_08h17.31.393,HF_wild_card,2022.2.4,Win32,59.64096141,5b6eba1aaf4af50001357228,64d2fd46c836a06233681665,64dc77f64af2a539f88b8b6d,,,,,,,,,,,,,,,,,,,,,,,,,,,,,,,,,,,,,,,,,,,,,,,,,,,,,,,,,,,,,,,,
,,,,,,,,2023-08-16_08h17.31.393,HF_wild_card,2022.2.4,Win32,59.64096141,5b6eba1aaf4af50001357228,64d2fd46c836a06233681665,64dc77f64af2a539f88b8b6d,0.002405671,-0.415062939,1,0,0,agree,,,,,,,,,,,,,,,,,,,,,,,,,,,,,,,,,,,,,,,,,,,,,,,,,,,,,,,,,,
,,,,,,,,2023-08-16_08h17.31.393,HF_wild_card,2022.2.4,Win32,59.64096141,5b6eba1aaf4af50001357228,64d2fd46c836a06233681665,64dc77f64af2a539f88b8b6d,,,,,,,,,,,,,,,,,,,,,,,,,,,,,,,,,,,,,,,,,,,,,,,,,,,,,,,,,,,,,,,,
,,,,,,,,2023-08-16_08h17.31.393,HF_wild_card,2022.2.4,Win32,59.64096141,5b6eba1aaf4af50001357228,64d2fd46c836a06233681665,64dc77f64af2a539f88b8b6d,,,,,,,sngl,resources/Empty.png,resources/DP.BMP,Door4,0.343819416,-0.157846046,1,0,0,4.8109,optionRight,60,60,1,0,0,0,0,1,,,,,,,,,,,,,,,,,,,,,,,,,,,,,,,,,,,,,,,
,,,,,,,,2023-08-16_08h17.31.393,HF_wild_card,2022.2.4,Win32,59.64096141,5b6eba1aaf4af50001357228,64d2fd46c836a06233681665,64dc77f64af2a539f88b8b6d,,,,,,,ctch,resources/DP.BMP,resources/DBN.BMP,Door1,0.292005944,0.010547737,1,0,0,4.3906,optionRight,30,90,1,1,0,1,0,1,,,,,,,,,,,,,,,,,,,,,,,,,,,,,,,,,,,,,,,
,,,,,,,,2023-08-16_08h17.31.393,HF_wild_card,2022.2.4,Win32,59.64096141,5b6eba1aaf4af50001357228,64d2fd46c836a06233681665,64dc77f64af2a539f88b8b6d,,,,,,,decisionTrl,resources/DR.BMP,resources/DY.BMP,WildCard_Ex,-0.296447042,-0.054219103,1,0,0,2.8104,optionLeft,5,95,1,2,0,2,0,1,,,,,,,,,,,,,,,,,,,,,,,,,,,,,,,,,,,,,,,
,,,,,,,,2023-08-16_08h17.31.393,HF_wild_card,2022.2.4,Win32,59.64096141,5b6eba1aaf4af50001357228,64d2fd46c836a06233681665,64dc77f64af2a539f88b8b6d,,,,,,,decisionTrl,resources/DY.BMP,resources/DR.BMP,Door3,-0.301998514,-0.06717247,1,0,0,1.6428,optionLeft,70,165,1,3,0,3,0,1,,,,,,,,,,,,,,,,,,,,,,,,,,,,,,,,,,,,,,,
,,,,,,,,2023-08-16_08h17.31.393,HF_wild_card,2022.2.4,Win32,59.64096141,5b6eba1aaf4af50001357228,64d2fd46c836a06233681665,64dc77f64af2a539f88b8b6d,,,,,,,decisionTrl,resources/DP.BMP,resources/DR.BMP,Door4,-0.279792746,-0.061621038,1,0,0,2.6616,optionLeft,80,245,1,4,0,4,0,1,,,,,,,,,,,,,,,,,,,,,,,,,,,,,,,,,,,,,,,
,,,,,,,,2023-08-16_08h17.31.393,HF_wild_card,2022.2.4,Win32,59.64096141,5b6eba1aaf4af50001357228,64d2fd46c836a06233681665,64dc77f64af2a539f88b8b6d,,,,,,,decisionTrl,resources/DY.BMP,resources/DP.BMP,Door4,0.308660319,-0.048667671,1,0,0,2.6424,optionRight,80,325,1,5,0,5,0,1,,,,,,,,,,,,,,,,,,,,,,,,,,,,,,,,,,,,,,,
,,,,,,,,2023-08-16_08h17.31.393,HF_wild_card,2022.2.4,Win32,59.64096141,5b6eba1aaf4af50001357228,64d2fd46c836a06233681665,64dc77f64af2a539f88b8b6d,,,,,,,sngl,resources/DR.BMP,resources/Empty.png,WildCard_Ex,-0.277016991,-0.038490019,1,0,0,1.4614,optionLeft,5,330,1,6,0,6,0,1,,,,,,,,,,,,,,,,,,,,,,,,,,,,,,,,,,,,,,,
,,,,,,,,2023-08-16_08h17.31.393,HF_wild_card,2022.2.4,Win32,59.64096141,5b6eba1aaf4af50001357228,64d2fd46c836a06233681665,64dc77f64af2a539f88b8b6d,,,,,,,decisionTrl,resources/DR.BMP,resources/DBN.BMP,Door1,0.382679519,-0.044966703,1,0,0,1.3464,optionRight,30,360,1,7,0,7,0,1,,,,,,,,,,,,,,,,,,,,,,,,,,,,,,,,,,,,,,,
,,,,,,,,2023-08-16_08h17.31.393,HF_wild_card,2022.2.4,Win32,59.64096141,5b6eba1aaf4af50001357228,64d2fd46c836a06233681665,64dc77f64af2a539f88b8b6d,,,,,,,decisionTrl,resources/DB.BMP,resources/DBN.BMP,Door2,-0.443560309,-0.053293851,1,0,0,1.5959,optionLeft,20,380,1,8,0,8,0,1,,,,,,,,,,,,,,,,,,,,,,,,,,,,,,,,,,,,,,,
,,,,,,,,2023-08-16_08h17.31.393,HF_wild_card,2022.2.4,Win32,59.64096141,5b6eba1aaf4af50001357228,64d2fd46c836a06233681665,64dc77f64af2a539f88b8b6d,,,,,,,sngl,resources/Empty.png,resources/DR.BMP,WildCard_Ex,0.293856448,-0.007031851,1,0,0,1.2778,optionRight,95,475,1,9,0,9,0,1,,,,,,,,,,,,,,,,,,,,,,,,,,,,,,,,,,,,,,,
,,,,,,,,2023-08-16_08h17.31.393,HF_wild_card,2022.2.4,Win32,59.64096141,5b6eba1aaf4af50001357228,64d2fd46c836a06233681665,64dc77f64af2a539f88b8b6d,,,,,,,sngl,resources/DP.BMP,resources/Empty.png,Door4,-0.363989637,-0.027387115,1,0,0,1.0119,optionLeft,80,555,1,10,0,10,0,1,,,,,,,,,,,,,,,,,,,,,,,,,,,,,,,,,,,,,,,
,,,,,,,,2023-08-16_08h17.31.393,HF_wild_card,2022.2.4,Win32,59.64096141,5b6eba1aaf4af50001357228,64d2fd46c836a06233681665,64dc77f64af2a539f88b8b6d,,,,,,,sngl,resources/DB.BMP,resources/Empty.png,Door2,-0.292746114,-0.042190987,1,0,0,1.1454,optionLeft,40,595,1,11,0,11,0,1,,,,,,,,,,,,,,,,,,,,,,,,,,,,,,,,,,,,,,,
,,,,,,,,2023-08-16_08h17.31.393,HF_wild_card,2022.2.4,Win32,59.64096141,5b6eba1aaf4af50001357228,64d2fd46c836a06233681665,64dc77f64af2a539f88b8b6d,,,,,,,ctch,resources/DB.BMP,resources/DY.BMP,Door3,0.260547776,-0.050518135,1,0,0,1.9735,optionRight,70,665,1,12,0,12,0,1,,,,,,,,,,,,,,,,,,,,,,,,,,,,,,,,,,,,,,,
,,,,,,,,2023-08-16_08h17.31.393,HF_wild_card,2022.2.4,Win32,59.64096141,5b6eba1aaf4af50001357228,64d2fd46c836a06233681665,64dc77f64af2a539f88b8b6d,,,,,,,sngl,resources/DY.BMP,resources/Empty.png,Door3,-0.348260553,-0.044041451,1,0,0,0.912,optionLeft,70,735,1,13,0,13,0,1,,,,,,,,,,,,,,,,,,,,,,,,,,,,,,,,,,,,,,,
,,,,,,,,2023-08-16_08h17.31.393,HF_wild_card,2022.2.4,Win32,59.64096141,5b6eba1aaf4af50001357228,64d2fd46c836a06233681665,64dc77f64af2a539f88b8b6d,,,,,,,decisionTrl,resources/DBN.BMP,resources/DB.BMP,Door1,-0.186343415,-0.039415271,1,0,0,4.109,optionLeft,30,765,1,14,0,14,0,1,,,,,,,,,,,,,,,,,,,,,,,,,,,,,,,,,,,,,,,
,,,,,,,,2023-08-16_08h17.31.393,HF_wild_card,2022.2.4,Win32,59.64096141,5b6eba1aaf4af50001357228,64d2fd46c836a06233681665,64dc77f64af2a539f88b8b6d,,,,,,,sngl,resources/Empty.png,resources/DBN.BMP,Door1,0.297557376,-0.004256135,1,0,0,1.0971,optionRight,30,795,1,15,0,15,0,1,,,,,,,,,,,,,,,,,,,,,,,,,,,,,,,,,,,,,,,
,,,,,,,,2023-08-16_08h17.31.393,HF_wild_card,2022.2.4,Win32,59.64096141,5b6eba1aaf4af50001357228,64d2fd46c836a06233681665,64dc77f64af2a539f88b8b6d,,,,,,,decisionTrl,resources/DY.BMP,resources/DP.BMP,Door4,0.353997107,-0.024611399,1,0,0,2.1935,optionRight,80,875,1,16,0,16,0,1,,,,,,,,,,,,,,,,,,,,,,,,,,,,,,,,,,,,,,,
,,,,,,,,2023-08-16_08h17.31.393,HF_wild_card,2022.2.4,Win32,59.64096141,5b6eba1aaf4af50001357228,64d2fd46c836a06233681665,64dc77f64af2a539f88b8b6d,,,,,,,sngl,resources/Empty.png,resources/DY.BMP,Door3,0.210584809,-0.002405631,1,0,0,1.1123,optionRight,70,945,1,17,0,17,0,1,,,,,,,,,,,,,,,,,,,,,,,,,,,,,,,,,,,,,,,
,,,,,,,,2023-08-16_08h17.31.393,HF_wild_card,2022.2.4,Win32,59.64096141,5b6eba1aaf4af50001357228,64d2fd46c836a06233681665,64dc77f64af2a539f88b8b6d,,,,,,,sngl,resources/DR.BMP,resources/Empty.png,WildCard_Ex,-0.351036269,-0.008882315,1,0,0,1.1125,optionLeft,95,1040,1,18,0,18,0,1,,,,,,,,,,,,,,,,,,,,,,,,,,,,,,,,,,,,,,,
,,,,,,,,2023-08-16_08h17.31.393,HF_wild_card,2022.2.4,Win32,59.64096141,5b6eba1aaf4af50001357228,64d2fd46c836a06233681665,64dc77f64af2a539f88b8b6d,,,,,,,decisionTrl,resources/DBN.BMP,resources/DB.BMP,Door2,0.295706952,-0.025536651,1,0,0,4.1409,optionRight,20,1060,1,19,0,19,0,1,,,,,,,,,,,,,,,,,,,,,,,,,,,,,,,,,,,,,,,
,,,,,,,,2023-08-16_08h17.31.393,HF_wild_card,2022.2.4,Win32,59.64096141,5b6eba1aaf4af50001357228,64d2fd46c836a06233681665,64dc77f64af2a539f88b8b6d,,,,,,,ctch,resources/DBN.BMP,resources/DP.BMP,Door1,-0.294596578,-0.020910431,1,0,0,3.2121,optionLeft,30,1090,1,20,0,20,0,1,,,,,,,,,,,,,,,,,,,,,,,,,,,,,,,,,,,,,,,
,,,,,,,,2023-08-16_08h17.31.393,HF_wild_card,2022.2.4,Win32,59.64096141,5b6eba1aaf4af50001357228,64d2fd46c836a06233681665,64dc77f64af2a539f88b8b6d,,,,,,,decisionTrl,resources/DR.BMP,resources/DB.BMP,Door2,0.364174719,-0.020910431,1,0,0,1.6951,optionRight,20,1110,1,21,0,21,0,1,,,,,,,,,,,,,,,,,,,,,,,,,,,,,,,,,,,,,,,
,,,,,,,,2023-08-16_08h17.31.393,HF_wild_card,2022.2.4,Win32,59.64096141,5b6eba1aaf4af50001357228,64d2fd46c836a06233681665,64dc77f64af2a539f88b8b6d,,,,,,,decisionTrl,resources/DBN.BMP,resources/DB.BMP,Door1,-0.341783869,-0.041265735,1,0,0,3.2777,optionLeft,30,1140,1,22,0,22,0,1,,,,,,,,,,,,,,,,,,,,,,,,,,,,,,,,,,,,,,,
,,,,,,,,2023-08-16_08h17.31.393,HF_wild_card,2022.2.4,Win32,59.64096141,5b6eba1aaf4af50001357228,64d2fd46c836a06233681665,64dc77f64af2a539f88b8b6d,,,,,,,ctch,resources/DP.BMP,resources/DBN.BMP,Door4,-0.411176889,-0.047742419,1,0,0,1.3136,optionLeft,60,1200,1,23,0,23,0,1,,,,,,,,,,,,,,,,,,,,,,,,,,,,,,,,,,,,,,,
,,,,,,,,2023-08-16_08h17.31.393,HF_wild_card,2022.2.4,Win32,59.64096141,5b6eba1aaf4af50001357228,64d2fd46c836a06233681665,64dc77f64af2a539f88b8b6d,,,,,,,decisionTrl,resources/DB.BMP,resources/DBN.BMP,Door1,0.326239868,-0.015358999,1,0,0,2.0114,optionRight,30,1230,1,24,0,24,0,1,,,,,,,,,,,,,,,,,,,,,,,,,,,,,,,,,,,,,,,
,,,,,,,,2023-08-16_08h17.31.393,HF_wild_card,2022.2.4,Win32,59.64096141,5b6eba1aaf4af50001357228,64d2fd46c836a06233681665,64dc77f64af2a539f88b8b6d,,,,,,,decisionTrl,resources/DBN.BMP,resources/DR.BMP,Door1,-0.312176166,-0.012583283,1,0,0,1.1791,optionLeft,30,1260,1,25,0,25,0,1,,,,,,,,,,,,,,,,,,,,,,,,,,,,,,,,,,,,,,,
,,,,,,,,2023-08-16_08h17.31.393,HF_wild_card,2022.2.4,Win32,59.64096141,5b6eba1aaf4af50001357228,64d2fd46c836a06233681665,64dc77f64af2a539f88b8b6d,,,,,,,sngl,resources/DBN.BMP,resources/Empty.png,Door1,-0.241857855,-0.012583283,1,0,0,0.9417,optionLeft,30,1290,1,26,0,26,0,1,,,,,,,,,,,,,,,,,,,,,,,,,,,,,,,,,,,,,,,
,,,,,,,,2023-08-16_08h17.31.393,HF_wild_card,2022.2.4,Win32,59.64096141,5b6eba1aaf4af50001357228,64d2fd46c836a06233681665,64dc77f64af2a539f88b8b6d,,,,,,,decisionTrl,resources/DP.BMP,resources/DY.BMP,Door4,-0.260362694,-0.034789051,1,0,0,1.2622,optionLeft,60,1350,1,27,0,27,0,1,,,,,,,,,,,,,,,,,,,,,,,,,,,,,,,,,,,,,,,
,,,,,,,,2023-08-16_08h17.31.393,HF_wild_card,2022.2.4,Win32,59.64096141,5b6eba1aaf4af50001357228,64d2fd46c836a06233681665,64dc77f64af2a539f88b8b6d,,,,,,,decisionTrl,resources/DP.BMP,resources/DY.BMP,Door4,-0.285344178,-0.015358999,1,0,0,1.1467,optionLeft,80,1430,1,28,0,28,0,1,,,,,,,,,,,,,,,,,,,,,,,,,,,,,,,,,,,,,,,
,,,,,,,,2023-08-16_08h17.31.393,HF_wild_card,2022.2.4,Win32,59.64096141,5b6eba1aaf4af50001357228,64d2fd46c836a06233681665,64dc77f64af2a539f88b8b6d,,,,,,,decisionTrl,resources/DP.BMP,resources/DY.BMP,Door4,-0.305699482,-0.026461903,1,0,0,0.948,optionLeft,60,1490,1,29,0,29,0,1,,,,,,,,,,,,,,,,,,,,,,,,,,,,,,,,,,,,,,,
,,,,,,,,2023-08-16_08h17.31.393,HF_wild_card,2022.2.4,Win32,59.64096141,5b6eba1aaf4af50001357228,64d2fd46c836a06233681665,64dc77f64af2a539f88b8b6d,,,,,,,decisionTrl,resources/DR.BMP,resources/DP.BMP,Door4,0.366950475,-0.026461903,1,0,0,1.2296,optionRight,60,1550,1,30,0,30,0,1,,,,,,,,,,,,,,,,,,,,,,,,,,,,,,,,,,,,,,,
,,,,,,,,2023-08-16_08h17.31.393,HF_wild_card,2022.2.4,Win32,59.64096141,5b6eba1aaf4af50001357228,64d2fd46c836a06233681665,64dc77f64af2a539f88b8b6d,,,,,,,ctch,resources/DBN.BMP,resources/DP.BMP,Door4,0.392857211,-0.010732819,1,0,0,1.9541,optionRight,80,1630,1,31,0,31,0,1,,,,,,,,,,,,,,,,,,,,,,,,,,,,,,,,,,,,,,,
,,,,,,,,2023-08-16_08h17.31.393,HF_wild_card,2022.2.4,Win32,59.64096141,5b6eba1aaf4af50001357228,64d2fd46c836a06233681665,64dc77f64af2a539f88b8b6d,,,,,,,decisionTrl,resources/DY.BMP,resources/DP.BMP,Door4,0.282753505,0.002220549,1,0,0,1.031,optionRight,80,1710,1,32,0,32,0,1,,,,,,,,,,,,,,,,,,,,,,,,,,,,,,,,,,,,,,,
,,,,,,,,2023-08-16_08h17.31.393,HF_wild_card,2022.2.4,Win32,59.64096141,5b6eba1aaf4af50001357228,64d2fd46c836a06233681665,64dc77f64af2a539f88b8b6d,,,,,,,decisionTrl,resources/DB.BMP,resources/DBN.BMP,Door1,0.270725389,-0.016284251,1,0,0,3.0759,optionRight,30,1740,1,33,0,33,0,1,,,,,,,,,,,,,,,,,,,,,,,,,,,,,,,,,,,,,,,
,,,,,,,,2023-08-16_08h17.31.393,HF_wild_card,2022.2.4,Win32,59.64096141,5b6eba1aaf4af50001357228,64d2fd46c836a06233681665,64dc77f64af2a539f88b8b6d,,,,,,,decisionTrl,resources/DY.BMP,resources/DP.BMP,Door4,0.277202073,-0.012583283,1,0,0,1.0456,optionRight,80,1820,1,34,0,34,0,1,,,,,,,,,,,,,,,,,,,,,,,,,,,,,,,,,,,,,,,
,,,,,,,,2023-08-16_08h17.31.393,HF_wild_card,2022.2.4,Win32,59.64096141,5b6eba1aaf4af50001357228,64d2fd46c836a06233681665,64dc77f64af2a539f88b8b6d,,,,,,,decisionTrl,resources/DBN.BMP,resources/DB.BMP,Door1,-0.289970358,-0.07179869,1,0,0,1.6131,optionLeft,30,1850,1,35,0,35,0,1,,,,,,,,,,,,,,,,,,,,,,,,,,,,,,,,,,,,,,,
,,,,,,,,2023-08-16_08h17.31.393,HF_wild_card,2022.2.4,Win32,59.64096141,5b6eba1aaf4af50001357228,64d2fd46c836a06233681665,64dc77f64af2a539f88b8b6d,,,,,,,sngl,resources/Empty.png,resources/DR.BMP,WildCard_Ex,0.245743905,-0.026461903,1,0,0,1.008,optionRight,5,1855,1,36,0,36,0,1,,,,,,,,,,,,,,,,,,,,,,,,,,,,,,,,,,,,,,,
,,,,,,,,2023-08-16_08h17.31.393,HF_wild_card,2022.2.4,Win32,59.64096141,5b6eba1aaf4af50001357228,64d2fd46c836a06233681665,64dc77f64af2a539f88b8b6d,,,,,,,ctch,resources/DB.BMP,resources/DY.BMP,Door3,0.282753505,-0.049592922,1,0,0,3.1928,optionRight,70,1925,1,37,0,37,0,1,,,,,,,,,,,,,,,,,,,,,,,,,,,,,,,,,,,,,,,
,,,,,,,,2023-08-16_08h17.31.393,HF_wild_card,2022.2.4,Win32,59.64096141,5b6eba1aaf4af50001357228,64d2fd46c836a06233681665,64dc77f64af2a539f88b8b6d,,,,,,,decisionTrl,resources/DP.BMP,resources/DY.BMP,Door4,-0.273316062,-0.043116238,1,0,0,1.201,optionLeft,80,2005,1,38,0,38,0,1,,,,,,,,,,,,,,,,,,,,,,,,,,,,,,,,,,,,,,,
,,,,,,,,2023-08-16_08h17.31.393,HF_wild_card,2022.2.4,Win32,59.64096141,5b6eba1aaf4af50001357228,64d2fd46c836a06233681665,64dc77f64af2a539f88b8b6d,,,,,,,ctch,resources/DY.BMP,resources/DB.BMP,Door3,-0.242783107,-0.038490019,1,0,0,1.6949,optionLeft,70,2075,1,39,0,39,0,1,,,,,,,,,,,,,,,,,,,,,,,,,,,,,,,,,,,,,,,
,,,,,,,,2023-08-16_08h17.31.393,HF_wild_card,2022.2.4,Win32,59.64096141,5b6eba1aaf4af50001357228,64d2fd46c836a06233681665,64dc77f64af2a539f88b8b6d,,,,,,,decisionTrl,resources/DB.BMP,resources/DR.BMP,Door2,-0.34641005,-0.045891954,1,0,0,1.0734,optionLeft,20,2095,1,40,0,40,0,1,,,,,,,,,,,,,,,,,,,,,,,,,,,,,,,,,,,,,,,
,,,,,,,,2023-08-16_08h17.31.393,HF_wild_card,2022.2.4,Win32,59.64096141,5b6eba1aaf4af50001357228,64d2fd46c836a06233681665,64dc77f64af2a539f88b8b6d,,,,,,,ctch,resources/DY.BMP,resources/DB.BMP,Door3,-0.250185042,-0.048667671,1,0,0,1.9611,optionLeft,70,2165,1,41,0,41,0,1,,,,,,,,,,,,,,,,,,,,,,,,,,,,,,,,,,,,,,,
,,,,,,,,2023-08-16_08h17.31.393,HF_wild_card,2022.2.4,Win32,59.64096141,5b6eba1aaf4af50001357228,64d2fd46c836a06233681665,64dc77f64af2a539f88b8b6d,,,,,,,sngl,resources/Empty.png,resources/DB.BMP,Door2,0.337342732,-0.008882315,1,0,0,1.1633,optionRight,20,2185,1,42,0,42,0,1,,,,,,,,,,,,,,,,,,,,,,,,,,,,,,,,,,,,,,,
,,,,,,,,2023-08-16_08h17.31.393,HF_wild_card,2022.2.4,Win32,59.64096141,5b6eba1aaf4af50001357228,64d2fd46c836a06233681665,64dc77f64af2a539f88b8b6d,,,,,,,decisionTrl,resources/DB.BMP,resources/DBN.BMP,Door1,0.226313853,-0.028312367,1,0,0,1.5845,optionRight,30,2215,1,43,0,43,0,1,,,,,,,,,,,,,,,,,,,,,,,,,,,,,,,,,,,,,,,
,,,,,,,,2023-08-16_08h17.31.393,HF_wild_card,2022.2.4,Win32,59.64096141,5b6eba1aaf4af50001357228,64d2fd46c836a06233681665,64dc77f64af2a539f88b8b6d,,,,,,,,,,,,,,,,,,,,,,,,,,0,0,0,0,1,,,,,,,,,,,,,,,,,,,,,,,,,,,,,,,,,,
,,,,,,,,2023-08-16_08h17.31.393,HF_wild_card,2022.2.4,Win32,59.64096141,5b6eba1aaf4af50001357228,64d2fd46c836a06233681665,64dc77f64af2a539f88b8b6d,,,,,,,sngl,resources/Empty.png,resources/DR.BMP,WildCard_Ex,0.334567055,-0.046817167,1,0,0,1.2601,optionRight,5,2220,2,0,0,0,0,1,,,,,,,,,,,,,,,,,,,,,,,,,,,,,,,,,,,,,,,
,,,,,,,,2023-08-16_08h17.31.393,HF_wild_card,2022.2.4,Win32,59.64096141,5b6eba1aaf4af50001357228,64d2fd46c836a06233681665,64dc77f64af2a539f88b8b6d,,,,,,,decisionTrl,resources/DBN.BMP,resources/DB.BMP,Door1,-0.246484075,-0.019985219,1,0,0,1.5952,optionLeft,30,2250,2,1,0,1,0,1,,,,,,,,,,,,,,,,,,,,,,,,,,,,,,,,,,,,,,,
,,,,,,,,2023-08-16_08h17.31.393,HF_wild_card,2022.2.4,Win32,59.64096141,5b6eba1aaf4af50001357228,64d2fd46c836a06233681665,64dc77f64af2a539f88b8b6d,,,,,,,ctch,resources/DY.BMP,resources/DB.BMP,Door3,-0.211324899,-0.063471503,1,0,0,1.8435,optionLeft,70,2320,2,2,0,2,0,1,,,,,,,,,,,,,,,,,,,,,,,,,,,,,,,,,,,,,,,
,,,,,,,,2023-08-16_08h17.31.393,HF_wild_card,2022.2.4,Win32,59.64096141,5b6eba1aaf4af50001357228,64d2fd46c836a06233681665,64dc77f64af2a539f88b8b6d,,,,,,,decisionTrl,resources/DBN.BMP,resources/DB.BMP,Door1,-0.240932642,-0.010732819,1,0,0,1.1912,optionLeft,30,2350,2,3,0,3,0,1,,,,,,,,,,,,,,,,,,,,,,,,,,,,,,,,,,,,,,,
,,,,,,,,2023-08-16_08h17.31.393,HF_wild_card,2022.2.4,Win32,59.64096141,5b6eba1aaf4af50001357228,64d2fd46c836a06233681665,64dc77f64af2a539f88b8b6d,,,,,,,sngl,resources/Empty.png,resources/DY.BMP,Door3,0.229089608,-0.022760935,1,0,0,0.9618,optionRight,70,2420,2,4,0,4,0,1,,,,,,,,,,,,,,,,,,,,,,,,,,,,,,,,,,,,,,,
,,,,,,,,2023-08-16_08h17.31.393,HF_wild_card,2022.2.4,Win32,59.64096141,5b6eba1aaf4af50001357228,64d2fd46c836a06233681665,64dc77f64af2a539f88b8b6d,,,,,,,sngl,resources/DP.BMP,resources/Empty.png,Door4,-0.25388601,-0.023686187,1,0,0,0.8233,optionLeft,60,2480,2,5,0,5,0,1,,,,,,,,,,,,,,,,,,,,,,,,,,,,,,,,,,,,,,,
,,,,,,,,2023-08-16_08h17.31.393,HF_wild_card,2022.2.4,Win32,59.64096141,5b6eba1aaf4af50001357228,64d2fd46c836a06233681665,64dc77f64af2a539f88b8b6d,,,,,,,ctch,resources/DP.BMP,resources/DBN.BMP,Door4,-0.210399727,-0.039415271,1,0,0,1.0962,optionLeft,80,2560,2,6,0,6,0,1,,,,,,,,,,,,,,,,,,,,,,,,,,,,,,,,,,,,,,,
,,,,,,,,2023-08-16_08h17.31.393,HF_wild_card,2022.2.4,Win32,59.64096141,5b6eba1aaf4af50001357228,64d2fd46c836a06233681665,64dc77f64af2a539f88b8b6d,,,,,,,ctch,resources/DP.BMP,resources/DBN.BMP,Door4,-0.215951159,-0.056069606,1,0,0,0.929,optionLeft,60,2620,2,7,0,7,0,1,,,,,,,,,,,,,,,,,,,,,,,,,,,,,,,,,,,,,,,
,,,,,,,,2023-08-16_08h17.31.393,HF_wild_card,2022.2.4,Win32,59.64096141,5b6eba1aaf4af50001357228,64d2fd46c836a06233681665,64dc77f64af2a539f88b8b6d,,,,,,,decisionTrl,resources/DB.BMP,resources/DBN.BMP,Door1,0.366025223,-0.078275374,1,0,0,1.3285,optionRight,30,2650,2,8,0,8,0,1,,,,,,,,,,,,,,,,,,,,,,,,,,,,,,,,,,,,,,,
,,,,,,,,2023-08-16_08h17.31.393,HF_wild_card,2022.2.4,Win32,59.64096141,5b6eba1aaf4af50001357228,64d2fd46c836a06233681665,64dc77f64af2a539f88b8b6d,,,,,,,decisionTrl,resources/DB.BMP,resources/DBN.BMP,Door1,0.239267221,-0.037564767,1,0,0,1.263,optionRight,30,2680,2,9,0,9,0,1,,,,,,,,,,,,,,,,,,,,,,,,,,,,,,,,,,,,,,,
,,,,,,,,2023-08-16_08h17.31.393,HF_wild_card,2022.2.4,Win32,59.64096141,5b6eba1aaf4af50001357228,64d2fd46c836a06233681665,64dc77f64af2a539f88b8b6d,,,,,,,decisionTrl,resources/DBN.BMP,resources/DB.BMP,Door1,-0.275166526,-0.06717247,1,0,0,1.1273,optionLeft,30,2710,2,10,0,10,0,1,,,,,,,,,,,,,,,,,,,,,,,,,,,,,,,,,,,,,,,
,,,,,,,,2023-08-16_08h17.31.393,HF_wild_card,2022.2.4,Win32,59.64096141,5b6eba1aaf4af50001357228,64d2fd46c836a06233681665,64dc77f64af2a539f88b8b6d,,,,,,,decisionTrl,resources/DY.BMP,resources/DP.BMP,Door4,0.296632124,-0.069948187,1,0,0,2.2288,optionRight,80,2790,2,11,0,11,0,1,,,,,,,,,,,,,,,,,,,,,,,,,,,,,,,,,,,,,,,
,,,,,,,,2023-08-16_08h17.31.393,HF_wild_card,2022.2.4,Win32,59.64096141,5b6eba1aaf4af50001357228,64d2fd46c836a06233681665,64dc77f64af2a539f88b8b6d,,,,,,,ctch,resources/DBN.BMP,resources/DP.BMP,Door4,0.217986665,-0.044041451,1,0,0,0.9624,optionRight,80,2870,2,12,0,12,0,1,,,,,,,,,,,,,,,,,,,,,,,,,,,,,,,,,,,,,,,
,,,,,,,,2023-08-16_08h17.31.393,HF_wild_card,2022.2.4,Win32,59.64096141,5b6eba1aaf4af50001357228,64d2fd46c836a06233681665,64dc77f64af2a539f88b8b6d,,,,,,,decisionTrl,resources/DP.BMP,resources/DR.BMP,Door4,-0.350111018,-0.072723903,1,0,0,0.9291,optionLeft,60,2930,2,13,0,13,0,1,,,,,,,,,,,,,,,,,,,,,,,,,,,,,,,,,,,,,,,
,,,,,,,,2023-08-16_08h17.31.393,HF_wild_card,2022.2.4,Win32,59.64096141,5b6eba1aaf4af50001357228,64d2fd46c836a06233681665,64dc77f64af2a539f88b8b6d,,,,,,,sngl,resources/DB.BMP,resources/Empty.png,Door2,-0.256661726,-0.029237619,1,0,0,0.9624,optionLeft,20,2950,2,14,0,14,0,1,,,,,,,,,,,,,,,,,,,,,,,,,,,,,,,,,,,,,,,
,,,,,,,,2023-08-16_08h17.31.393,HF_wild_card,2022.2.4,Win32,59.64096141,5b6eba1aaf4af50001357228,64d2fd46c836a06233681665,64dc77f64af2a539f88b8b6d,,,,,,,decisionTrl,resources/DR.BMP,resources/DBN.BMP,Door1,0.293856448,-0.065322006,1,0,0,1.2287,optionRight,30,2980,2,15,0,15,0,1,,,,,,,,,,,,,,,,,,,,,,,,,,,,,,,,,,,,,,,
,,,,,,,,2023-08-16_08h17.31.393,HF_wild_card,2022.2.4,Win32,59.64096141,5b6eba1aaf4af50001357228,64d2fd46c836a06233681665,64dc77f64af2a539f88b8b6d,,,,,,,sngl,resources/DY.BMP,resources/Empty.png,Door3,-0.259437442,-0.035714303,1,0,0,0.8614,optionLeft,70,3050,2,16,0,16,0,1,,,,,,,,,,,,,,,,,,,,,,,,,,,,,,,,,,,,,,,
,,,,,,,,2023-08-16_08h17.31.393,HF_wild_card,2022.2.4,Win32,59.64096141,5b6eba1aaf4af50001357228,64d2fd46c836a06233681665,64dc77f64af2a539f88b8b6d,,,,,,,ctch,resources/DY.BMP,resources/DB.BMP,Door3,-0.199296783,-0.06254629,1,0,0,1.7783,optionLeft,70,3120,2,17,0,17,0,1,,,,,,,,,,,,,,,,,,,,,,,,,,,,,,,,,,,,,,,
,,,,,,,,2023-08-16_08h17.31.393,HF_wild_card,2022.2.4,Win32,59.64096141,5b6eba1aaf4af50001357228,64d2fd46c836a06233681665,64dc77f64af2a539f88b8b6d,,,,,,,decisionTrl,resources/DB.BMP,resources/DR.BMP,Door2,-0.32327903,-0.045891954,1,0,0,1.1791,optionLeft,40,3160,2,18,0,18,0,1,,,,,,,,,,,,,,,,,,,,,,,,,,,,,,,,,,,,,,,
,,,,,,,,2023-08-16_08h17.31.393,HF_wild_card,2022.2.4,Win32,59.64096141,5b6eba1aaf4af50001357228,64d2fd46c836a06233681665,64dc77f64af2a539f88b8b6d,,,,,,,decisionTrl,resources/DR.BMP,resources/DP.BMP,Door4,0.326239868,-0.040340483,1,0,0,1.0953,optionRight,80,3240,2,19,0,19,0,1,,,,,,,,,,,,,,,,,,,,,,,,,,,,,,,,,,,,,,,
,,,,,,,,2023-08-16_08h17.31.393,HF_wild_card,2022.2.4,Win32,59.64096141,5b6eba1aaf4af50001357228,64d2fd46c836a06233681665,64dc77f64af2a539f88b8b6d,,,,,,,sngl,resources/Empty.png,resources/DP.BMP,Door4,0.260547776,-0.09030349,1,0,0,0.9122,optionRight,80,3320,2,20,0,20,0,1,,,,,,,,,,,,,,,,,,,,,,,,,,,,,,,,,,,,,,,
,,,,,,,,2023-08-16_08h17.31.393,HF_wild_card,2022.2.4,Win32,59.64096141,5b6eba1aaf4af50001357228,64d2fd46c836a06233681665,64dc77f64af2a539f88b8b6d,,,,,,,decisionTrl,resources/DP.BMP,resources/DY.BMP,Door4,-0.208549223,-0.011658031,1,0,0,1.2625,optionLeft,80,3400,2,21,0,21,0,1,,,,,,,,,,,,,,,,,,,,,,,,,,,,,,,,,,,,,,,
,,,,,,,,2023-08-16_08h17.31.393,HF_wild_card,2022.2.4,Win32,59.64096141,5b6eba1aaf4af50001357228,64d2fd46c836a06233681665,64dc77f64af2a539f88b8b6d,,,,,,,sngl,resources/DR.BMP,resources/Empty.png,WildCard_Ex,-0.250185042,-0.038490019,1,0,0,0.912,optionLeft,95,3495,2,22,0,22,0,1,,,,,,,,,,,,,,,,,,,,,,,,,,,,,,,,,,,,,,,
,,,,,,,,2023-08-16_08h17.31.393,HF_wild_card,2022.2.4,Win32,59.64096141,5b6eba1aaf4af50001357228,64d2fd46c836a06233681665,64dc77f64af2a539f88b8b6d,,,,,,,decisionTrl,resources/DP.BMP,resources/DY.BMP,Door4,-0.202072539,-0.019985219,1,0,0,1.0451,optionLeft,60,3555,2,23,0,23,0,1,,,,,,,,,,,,,,,,,,,,,,,,,,,,,,,,,,,,,,,
,,,,,,,,2023-08-16_08h17.31.393,HF_wild_card,2022.2.4,Win32,59.64096141,5b6eba1aaf4af50001357228,64d2fd46c836a06233681665,64dc77f64af2a539f88b8b6d,,,,,,,decisionTrl,resources/DY.BMP,resources/DP.BMP,Door4,0.293856448,0.023501105,1,0,0,1.1124,optionRight,60,3615,2,24,0,24,0,1,,,,,,,,,,,,,,,,,,,,,,,,,,,,,,,,,,,,,,,
,,,,,,,,2023-08-16_08h17.31.393,HF_wild_card,2022.2.4,Win32,59.64096141,5b6eba1aaf4af50001357228,64d2fd46c836a06233681665,64dc77f64af2a539f88b8b6d,,,,,,,decisionTrl,resources/DR.BMP,resources/DY.BMP,Door3,0.193005181,-0.019985219,1,0,0,1.3615,optionRight,70,3685,2,25,0,25,0,1,,,,,,,,,,,,,,,,,,,,,,,,,,,,,,,,,,,,,,,
,,,,,,,,2023-08-16_08h17.31.393,HF_wild_card,2022.2.4,Win32,59.64096141,5b6eba1aaf4af50001357228,64d2fd46c836a06233681665,64dc77f64af2a539f88b8b6d,,,,,,,decisionTrl,resources/DP.BMP,resources/DY.BMP,Door4,-0.175240551,-0.06254629,1,0,0,1.1961,optionLeft,60,3745,2,26,0,26,0,1,,,,,,,,,,,,,,,,,,,,,,,,,,,,,,,,,,,,,,,
,,,,,,,,2023-08-16_08h17.31.393,HF_wild_card,2022.2.4,Win32,59.64096141,5b6eba1aaf4af50001357228,64d2fd46c836a06233681665,64dc77f64af2a539f88b8b6d,,,,,,,ctch,resources/DB.BMP,resources/DY.BMP,Door3,0.185603246,-0.028312367,1,0,0,1.5956,optionRight,70,3815,2,27,0,27,0,1,,,,,,,,,,,,,,,,,,,,,,,,,,,,,,,,,,,,,,,
,,,,,,,,2023-08-16_08h17.31.393,HF_wild_card,2022.2.4,Win32,59.64096141,5b6eba1aaf4af50001357228,64d2fd46c836a06233681665,64dc77f64af2a539f88b8b6d,,,,,,,sngl,resources/Empty.png,resources/DR.BMP,WildCard_Ex,0.264248705,-0.028312367,1,0,0,0.9618,optionRight,95,3910,2,28,0,28,0,1,,,,,,,,,,,,,,,,,,,,,,,,,,,,,,,,,,,,,,,
,,,,,,,,2023-08-16_08h17.31.393,HF_wild_card,2022.2.4,Win32,59.64096141,5b6eba1aaf4af50001357228,64d2fd46c836a06233681665,64dc77f64af2a539f88b8b6d,,,,,,,sngl,resources/DR.BMP,resources/Empty.png,WildCard_Ex,-0.258512191,-0.045891954,1,0,0,0.8625,optionLeft,5,3915,2,29,0,29,0,1,,,,,,,,,,,,,,,,,,,,,,,,,,,,,,,,,,,,,,,
,,,,,,,,2023-08-16_08h17.31.393,HF_wild_card,2022.2.4,Win32,59.64096141,5b6eba1aaf4af50001357228,64d2fd46c836a06233681665,64dc77f64af2a539f88b8b6d,,,,,,,decisionTrl,resources/DR.BMP,resources/DB.BMP,Door2,0.229089608,-0.024611399,1,0,0,1.5949,optionRight,40,3955,2,30,0,30,0,1,,,,,,,,,,,,,,,,,,,,,,,,,,,,,,,,,,,,,,,
,,,,,,,,2023-08-16_08h17.31.393,HF_wild_card,2022.2.4,Win32,59.64096141,5b6eba1aaf4af50001357228,64d2fd46c836a06233681665,64dc77f64af2a539f88b8b6d,,,,,,,decisionTrl,resources/DBN.BMP,resources/DR.BMP,Door1,-0.155810499,-0.051443387,1,0,0,1.4614,optionLeft,30,3985,2,31,0,31,0,1,,,,,,,,,,,,,,,,,,,,,,,,,,,,,,,,,,,,,,,
,,,,,,,,2023-08-16_08h17.31.393,HF_wild_card,2022.2.4,Win32,59.64096141,5b6eba1aaf4af50001357228,64d2fd46c836a06233681665,64dc77f64af2a539f88b8b6d,,,,,,,decisionTrl,resources/DP.BMP,resources/DY.BMP,Door4,-0.225203519,-0.066247219,1,0,0,1.0799,optionLeft,80,4065,2,32,0,32,0,1,,,,,,,,,,,,,,,,,,,,,,,,,,,,,,,,,,,,,,,
,,,,,,,,2023-08-16_08h17.31.393,HF_wild_card,2022.2.4,Win32,59.64096141,5b6eba1aaf4af50001357228,64d2fd46c836a06233681665,64dc77f64af2a539f88b8b6d,,,,,,,sngl,resources/Empty.png,resources/DBN.BMP,Door1,0.229089608,-0.019059967,1,0,0,0.9284,optionRight,30,4095,2,33,0,33,0,1,,,,,,,,,,,,,,,,,,,,,,,,,,,,,,,,,,,,,,,
,,,,,,,,2023-08-16_08h17.31.393,HF_wild_card,2022.2.4,Win32,59.64096141,5b6eba1aaf4af50001357228,64d2fd46c836a06233681665,64dc77f64af2a539f88b8b6d,,,,,,,ctch,resources/DB.BMP,resources/DY.BMP,Door3,0.192079929,-0.038490019,1,0,0,1.8777,optionRight,70,4165,2,34,0,34,0,1,,,,,,,,,,,,,,,,,,,,,,,,,,,,,,,,,,,,,,,
,,,,,,,,2023-08-16_08h17.31.393,HF_wild_card,2022.2.4,Win32,59.64096141,5b6eba1aaf4af50001357228,64d2fd46c836a06233681665,64dc77f64af2a539f88b8b6d,,,,,,,decisionTrl,resources/DB.BMP,resources/DBN.BMP,Door1,0.204108125,-0.003330883,1,0,0,3.0433,optionRight,30,4195,2,35,0,35,0,1,,,,,,,,,,,,,,,,,,,,,,,,,,,,,,,,,,,,,,,
,,,,,,,,2023-08-16_08h17.31.393,HF_wild_card,2022.2.4,Win32,59.64096141,5b6eba1aaf4af50001357228,64d2fd46c836a06233681665,64dc77f64af2a539f88b8b6d,,,,,,,ctch,resources/DBN.BMP,resources/DP.BMP,Door4,0.252220589,-0.069948187,1,0,0,1.4626,optionRight,80,4275,2,36,0,36,0,1,,,,,,,,,,,,,,,,,,,,,,,,,,,,,,,,,,,,,,,
,,,,,,,,2023-08-16_08h17.31.393,HF_wild_card,2022.2.4,Win32,59.64096141,5b6eba1aaf4af50001357228,64d2fd46c836a06233681665,64dc77f64af2a539f88b8b6d,,,,,,,decisionTrl,resources/DY.BMP,resources/DP.BMP,Door4,0.205033297,-0.064396754,1,0,0,1.2752,optionRight,80,4355,2,37,0,37,0,1,,,,,,,,,,,,,,,,,,,,,,,,,,,,,,,,,,,,,,,
,,,,,,,,2023-08-16_08h17.31.393,HF_wild_card,2022.2.4,Win32,59.64096141,5b6eba1aaf4af50001357228,64d2fd46c836a06233681665,64dc77f64af2a539f88b8b6d,,,,,,,decisionTrl,resources/DBN.BMP,resources/DB.BMP,Door1,-0.224278267,-0.07179869,1,0,0,1.2799,optionLeft,30,4385,2,38,0,38,0,1,,,,,,,,,,,,,,,,,,,,,,,,,,,,,,,,,,,,,,,
,,,,,,,,2023-08-16_08h17.31.393,HF_wild_card,2022.2.4,Win32,59.64096141,5b6eba1aaf4af50001357228,64d2fd46c836a06233681665,64dc77f64af2a539f88b8b6d,,,,,,,sngl,resources/DBN.BMP,resources/Empty.png,Door1,-0.314951882,-0.047742419,1,0,0,0.8807,optionLeft,30,4415,2,39,0,39,0,1,,,,,,,,,,,,,,,,,,,,,,,,,,,,,,,,,,,,,,,
,,,,,,,,2023-08-16_08h17.31.393,HF_wild_card,2022.2.4,Win32,59.64096141,5b6eba1aaf4af50001357228,64d2fd46c836a06233681665,64dc77f64af2a539f88b8b6d,,,,,,,decisionTrl,resources/DB.BMP,resources/DBN.BMP,Door2,-0.158586176,-0.040340483,1,0,0,1.2781,optionLeft,20,4435,2,40,0,40,0,1,,,,,,,,,,,,,,,,,,,,,,,,,,,,,,,,,,,,,,,
,,,,,,,,2023-08-16_08h17.31.393,HF_wild_card,2022.2.4,Win32,59.64096141,5b6eba1aaf4af50001357228,64d2fd46c836a06233681665,64dc77f64af2a539f88b8b6d,,,,,,,sngl,resources/Empty.png,resources/DB.BMP,Door2,0.213360485,-0.046817167,1,0,0,0.8787,optionRight,40,4475,2,41,0,41,0,1,,,,,,,,,,,,,,,,,,,,,,,,,,,,,,,,,,,,,,,
,,,,,,,,2023-08-16_08h17.31.393,HF_wild_card,2022.2.4,Win32,59.64096141,5b6eba1aaf4af50001357228,64d2fd46c836a06233681665,64dc77f64af2a539f88b8b6d,,,,,,,decisionTrl,resources/DY.BMP,resources/DP.BMP,Door4,0.226313853,-0.027387115,1,0,0,1.0789,optionRight,60,4535,2,42,0,42,0,1,,,,,,,,,,,,,,,,,,,,,,,,,,,,,,,,,,,,,,,
,,,,,,,,2023-08-16_08h17.31.393,HF_wild_card,2022.2.4,Win32,59.64096141,5b6eba1aaf4af50001357228,64d2fd46c836a06233681665,64dc77f64af2a539f88b8b6d,,,,,,,decisionTrl,resources/DY.BMP,resources/DR.BMP,Door3,-0.261287907,-0.051443387,1,0,0,1.229,optionLeft,70,4605,2,43,0,43,0,1,,,,,,,,,,,,,,,,,,,,,,,,,,,,,,,,,,,,,,,
,,,,,,,,2023-08-16_08h17.31.393,HF_wild_card,2022.2.4,Win32,59.64096141,5b6eba1aaf4af50001357228,64d2fd46c836a06233681665,64dc77f64af2a539f88b8b6d,,,,,,,,,,,,,,,,,,,,,,,,,,1,0,1,0,1,,,,,,,,,,,,,,,,,,,,,,,,,,,,,,,,,,
,,,,,,,,2023-08-16_08h17.31.393,HF_wild_card,2022.2.4,Win32,59.64096141,5b6eba1aaf4af50001357228,64d2fd46c836a06233681665,64dc77f64af2a539f88b8b6d,,,,,,,ctch,resources/DBN.BMP,resources/DP.BMP,Door4,0.215210989,-0.027387115,1,0,0,1.442,optionRight,80,4685,3,0,0,0,0,1,,,,,,,,,,,,,,,,,,,,,,,,,,,,,,,,,,,,,,,
,,,,,,,,2023-08-16_08h17.31.393,HF_wild_card,2022.2.4,Win32,59.64096141,5b6eba1aaf4af50001357228,64d2fd46c836a06233681665,64dc77f64af2a539f88b8b6d,,,,,,,sngl,resources/Empty.png,resources/DR.BMP,WildCard_Ex,0.215210989,0.004996305,1,0,0,0.8797,optionRight,5,4690,3,1,0,1,0,1,,,,,,,,,,,,,,,,,,,,,,,,,,,,,,,,,,,,,,,
,,,,,,,,2023-08-16_08h17.31.393,HF_wild_card,2022.2.4,Win32,59.64096141,5b6eba1aaf4af50001357228,64d2fd46c836a06233681665,64dc77f64af2a539f88b8b6d,,,,,,,sngl,resources/DB.BMP,resources/Empty.png,Door2,-0.239082139,-0.008882315,1,0,0,0.8643,optionLeft,40,4730,3,2,0,2,0,1,,,,,,,,,,,,,,,,,,,,,,,,,,,,,,,,,,,,,,,
,,,,,,,,2023-08-16_08h17.31.393,HF_wild_card,2022.2.4,Win32,59.64096141,5b6eba1aaf4af50001357228,64d2fd46c836a06233681665,64dc77f64af2a539f88b8b6d,,,,,,,decisionTrl,resources/DR.BMP,resources/DY.BMP,Door3,0.203182873,-0.028312367,1,0,0,1.2629,optionRight,70,4800,3,3,0,3,0,1,,,,,,,,,,,,,,,,,,,,,,,,,,,,,,,,,,,,,,,
,,,,,,,,2023-08-16_08h17.31.393,HF_wild_card,2022.2.4,Win32,59.64096141,5b6eba1aaf4af50001357228,64d2fd46c836a06233681665,64dc77f64af2a539f88b8b6d,,,,,,,sngl,resources/Empty.png,resources/DR.BMP,WildCard_Ex,0.186528497,-0.031088083,1,0,0,0.8465,optionRight,95,4895,3,4,0,4,0,1,,,,,,,,,,,,,,,,,,,,,,,,,,,,,,,,,,,,,,,
,,,,,,,,2023-08-16_08h17.31.393,HF_wild_card,2022.2.4,Win32,59.64096141,5b6eba1aaf4af50001357228,64d2fd46c836a06233681665,64dc77f64af2a539f88b8b6d,,,,,,,decisionTrl,resources/DR.BMP,resources/DBN.BMP,Door1,0.133789774,-0.011658031,1,0,0,2.4792,optionRight,30,4925,3,5,0,5,0,1,,,,,,,,,,,,,,,,,,,,,,,,,,,,,,,,,,,,,,,
,,,,,,,,2023-08-16_08h17.31.393,HF_wild_card,2022.2.4,Win32,59.64096141,5b6eba1aaf4af50001357228,64d2fd46c836a06233681665,64dc77f64af2a539f88b8b6d,,,,,,,ctch,resources/DB.BMP,resources/DY.BMP,Door3,0.165248021,-0.019059967,1,0,0,1.48,optionRight,70,4995,3,6,0,6,0,1,,,,,,,,,,,,,,,,,,,,,,,,,,,,,,,,,,,,,,,
,,,,,,,,2023-08-16_08h17.31.393,HF_wild_card,2022.2.4,Win32,59.64096141,5b6eba1aaf4af50001357228,64d2fd46c836a06233681665,64dc77f64af2a539f88b8b6d,,,,,,,sngl,resources/DP.BMP,resources/Empty.png,Door4,-0.222427843,-0.034789051,1,0,0,0.846,optionLeft,80,5075,3,7,0,7,0,1,,,,,,,,,,,,,,,,,,,,,,,,,,,,,,,,,,,,,,,
,,,,,,,,2023-08-16_08h17.31.393,HF_wild_card,2022.2.4,Win32,59.64096141,5b6eba1aaf4af50001357228,64d2fd46c836a06233681665,64dc77f64af2a539f88b8b6d,,,,,,,decisionTrl,resources/DY.BMP,resources/DR.BMP,Door3,-0.194670603,-0.039415271,1,0,0,1.0449,optionLeft,70,5145,3,8,0,8,0,1,,,,,,,,,,,,,,,,,,,,,,,,,,,,,,,,,,,,,,,
,,,,,,,,2023-08-16_08h17.31.393,HF_wild_card,2022.2.4,Win32,59.64096141,5b6eba1aaf4af50001357228,64d2fd46c836a06233681665,64dc77f64af2a539f88b8b6d,,,,,,,sngl,resources/Empty.png,resources/DY.BMP,Door3,0.212435233,-0.015358999,1,0,0,0.8109,optionRight,70,5215,3,9,0,9,0,1,,,,,,,,,,,,,,,,,,,,,,,,,,,,,,,,,,,,,,,
,,,,,,,,2023-08-16_08h17.31.393,HF_wild_card,2022.2.4,Win32,59.64096141,5b6eba1aaf4af50001357228,64d2fd46c836a06233681665,64dc77f64af2a539f88b8b6d,,,,,,,decisionTrl,resources/DBN.BMP,resources/DB.BMP,Door1,-0.235381171,-0.044041451,1,0,0,1.7955,optionLeft,30,5245,3,10,0,10,0,1,,,,,,,,,,,,,,,,,,,,,,,,,,,,,,,,,,,,,,,
,,,,,,,,2023-08-16_08h17.31.393,HF_wild_card,2022.2.4,Win32,59.64096141,5b6eba1aaf4af50001357228,64d2fd46c836a06233681665,64dc77f64af2a539f88b8b6d,,,,,,,decisionTrl,resources/DY.BMP,resources/DP.BMP,Door4,0.162472265,-0.002405631,1,0,0,1.4458,optionRight,80,5325,3,11,0,11,0,1,,,,,,,,,,,,,,,,,,,,,,,,,,,,,,,,,,,,,,,
,,,,,,,,2023-08-16_08h17.31.393,HF_wild_card,2022.2.4,Win32,59.64096141,5b6eba1aaf4af50001357228,64d2fd46c836a06233681665,64dc77f64af2a539f88b8b6d,,,,,,,sngl,resources/Empty.png,resources/DP.BMP,Door4,0.201332369,-0.034789051,1,0,0,0.8466,optionRight,60,5385,3,12,0,12,0,1,,,,,,,,,,,,,,,,,,,,,,,,,,,,,,,,,,,,,,,
,,,,,,,,2023-08-16_08h17.31.393,HF_wild_card,2022.2.4,Win32,59.64096141,5b6eba1aaf4af50001357228,64d2fd46c836a06233681665,64dc77f64af2a539f88b8b6d,,,,,,,decisionTrl,resources/DP.BMP,resources/DY.BMP,Door3,0.160621762,-0.030162871,1,0,0,1.3613,optionRight,70,5455,3,13,0,13,0,1,,,,,,,,,,,,,,,,,,,,,,,,,,,,,,,,,,,,,,,
,,,,,,,,2023-08-16_08h17.31.393,HF_wild_card,2022.2.4,Win32,59.64096141,5b6eba1aaf4af50001357228,64d2fd46c836a06233681665,64dc77f64af2a539f88b8b6d,,,,,,,decisionTrl,resources/DBN.BMP,resources/DB.BMP,Door1,-0.27239081,-0.070873438,1,0,0,1.213,optionLeft,30,5485,3,14,0,14,0,1,,,,,,,,,,,,,,,,,,,,,,,,,,,,,,,,,,,,,,,
,,,,,,,,2023-08-16_08h17.31.393,HF_wild_card,2022.2.4,Win32,59.64096141,5b6eba1aaf4af50001357228,64d2fd46c836a06233681665,64dc77f64af2a539f88b8b6d,,,,,,,decisionTrl,resources/DP.BMP,resources/DY.BMP,Door4,-0.235381171,-0.043116238,1,0,0,1.0796,optionLeft,60,5545,3,15,0,15,0,1,,,,,,,,,,,,,,,,,,,,,,,,,,,,,,,,,,,,,,,
,,,,,,,,2023-08-16_08h17.31.393,HF_wild_card,2022.2.4,Win32,59.64096141,5b6eba1aaf4af50001357228,64d2fd46c836a06233681665,64dc77f64af2a539f88b8b6d,,,,,,,decisionTrl,resources/DY.BMP,resources/DP.BMP,Door4,0.168023697,-0.032013335,1,0,0,0.9963,optionRight,60,5605,3,16,0,16,0,1,,,,,,,,,,,,,,,,,,,,,,,,,,,,,,,,,,,,,,,
,,,,,,,,2023-08-16_08h17.31.393,HF_wild_card,2022.2.4,Win32,59.64096141,5b6eba1aaf4af50001357228,64d2fd46c836a06233681665,64dc77f64af2a539f88b8b6d,,,,,,,ctch,resources/DP.BMP,resources/DBN.BMP,Door4,-0.202997791,-0.028312367,1,0,0,1.1621,optionLeft,60,5665,3,17,0,17,0,1,,,,,,,,,,,,,,,,,,,,,,,,,,,,,,,,,,,,,,,
,,,,,,,,2023-08-16_08h17.31.393,HF_wild_card,2022.2.4,Win32,59.64096141,5b6eba1aaf4af50001357228,64d2fd46c836a06233681665,64dc77f64af2a539f88b8b6d,,,,,,,sngl,resources/DBN.BMP,resources/Empty.png,Door1,-0.181717235,-0.042190987,1,0,0,0.8298,optionLeft,30,5695,3,18,0,18,0,1,,,,,,,,,,,,,,,,,,,,,,,,,,,,,,,,,,,,,,,
,,,,,,,,2023-08-16_08h17.31.393,HF_wild_card,2022.2.4,Win32,59.64096141,5b6eba1aaf4af50001357228,64d2fd46c836a06233681665,64dc77f64af2a539f88b8b6d,,,,,,,sngl,resources/DR.BMP,resources/Empty.png,WildCard_Ex,-0.205773467,-0.012583283,1,0,0,0.8295,optionLeft,95,5790,3,19,0,19,0,1,,,,,,,,,,,,,,,,,,,,,,,,,,,,,,,,,,,,,,,
,,,,,,,,2023-08-16_08h17.31.393,HF_wild_card,2022.2.4,Win32,59.64096141,5b6eba1aaf4af50001357228,64d2fd46c836a06233681665,64dc77f64af2a539f88b8b6d,,,,,,,decisionTrl,resources/DY.BMP,resources/DP.BMP,Door4,0.228164357,-0.032013335,1,0,0,1.0798,optionRight,60,5850,3,20,0,20,0,1,,,,,,,,,,,,,,,,,,,,,,,,,,,,,,,,,,,,,,,
,,,,,,,,2023-08-16_08h17.31.393,HF_wild_card,2022.2.4,Win32,59.64096141,5b6eba1aaf4af50001357228,64d2fd46c836a06233681665,64dc77f64af2a539f88b8b6d,,,,,,,ctch,resources/DY.BMP,resources/DB.BMP,Door3,-0.219652087,-0.095854922,1,0,0,1.1976,optionLeft,70,5920,3,21,0,21,0,1,,,,,,,,,,,,,,,,,,,,,,,,,,,,,,,,,,,,,,,
,,,,,,,,2023-08-16_08h17.31.393,HF_wild_card,2022.2.4,Win32,59.64096141,5b6eba1aaf4af50001357228,64d2fd46c836a06233681665,64dc77f64af2a539f88b8b6d,,,,,,,decisionTrl,resources/DR.BMP,resources/DB.BMP,Door2,0.217061492,-0.054219103,1,0,0,1.2622,optionRight,20,5940,3,22,0,22,0,1,,,,,,,,,,,,,,,,,,,,,,,,,,,,,,,,,,,,,,,
,,,,,,,,2023-08-16_08h17.31.393,HF_wild_card,2022.2.4,Win32,59.64096141,5b6eba1aaf4af50001357228,64d2fd46c836a06233681665,64dc77f64af2a539f88b8b6d,,,,,,,sngl,resources/DY.BMP,resources/Empty.png,Door3,-0.135455196,-0.039415271,1,0,0,0.8288,optionLeft,70,6010,3,23,0,23,0,1,,,,,,,,,,,,,,,,,,,,,,,,,,,,,,,,,,,,,,,
,,,,,,,,2023-08-16_08h17.31.393,HF_wild_card,2022.2.4,Win32,59.64096141,5b6eba1aaf4af50001357228,64d2fd46c836a06233681665,64dc77f64af2a539f88b8b6d,,,,,,,decisionTrl,resources/DY.BMP,resources/DP.BMP,Door4,0.180051813,-0.013508535,1,0,0,1.395,optionRight,60,6070,3,24,0,24,0,1,,,,,,,,,,,,,,,,,,,,,,,,,,,,,,,,,,,,,,,
,,,,,,,,2023-08-16_08h17.31.393,HF_wild_card,2022.2.4,Win32,59.64096141,5b6eba1aaf4af50001357228,64d2fd46c836a06233681665,64dc77f64af2a539f88b8b6d,,,,,,,decisionTrl,resources/DBN.BMP,resources/DB.BMP,Door1,-0.251110255,-0.089378238,1,0,0,1.1946,optionLeft,30,6100,3,25,0,25,0,1,,,,,,,,,,,,,,,,,,,,,,,,,,,,,,,,,,,,,,,
,,,,,,,,2023-08-16_08h17.31.393,HF_wild_card,2022.2.4,Win32,59.64096141,5b6eba1aaf4af50001357228,64d2fd46c836a06233681665,64dc77f64af2a539f88b8b6d,,,,,,,decisionTrl,resources/DBN.BMP,resources/DR.BMP,Door1,-0.208549223,-0.069022974,1,0,0,1.0794,optionLeft,30,6130,3,26,0,26,0,1,,,,,,,,,,,,,,,,,,,,,,,,,,,,,,,,,,,,,,,
,,,,,,,,2023-08-16_08h17.31.393,HF_wild_card,2022.2.4,Win32,59.64096141,5b6eba1aaf4af50001357228,64d2fd46c836a06233681665,64dc77f64af2a539f88b8b6d,,,,,,,decisionTrl,resources/DB.BMP,resources/DBN.BMP,Door1,0.199481865,-0.033863799,1,0,0,1.0633,optionRight,30,6160,3,27,0,27,0,1,,,,,,,,,,,,,,,,,,,,,,,,,,,,,,,,,,,,,,,
,,,,,,,,2023-08-16_08h17.31.393,HF_wild_card,2022.2.4,Win32,59.64096141,5b6eba1aaf4af50001357228,64d2fd46c836a06233681665,64dc77f64af2a539f88b8b6d,,,,,,,decisionTrl,resources/DP.BMP,resources/DY.BMP,Door4,-0.267764591,-0.059770535,1,0,0,1.0806,optionLeft,80,6240,3,28,0,28,0,1,,,,,,,,,,,,,,,,,,,,,,,,,,,,,,,,,,,,,,,
,,,,,,,,2023-08-16_08h17.31.393,HF_wild_card,2022.2.4,Win32,59.64096141,5b6eba1aaf4af50001357228,64d2fd46c836a06233681665,64dc77f64af2a539f88b8b6d,,,,,,,decisionTrl,resources/DBN.BMP,resources/DB.BMP,Door1,-0.243708359,-0.021835683,1,0,0,1.0448,optionLeft,30,6270,3,29,0,29,0,1,,,,,,,,,,,,,,,,,,,,,,,,,,,,,,,,,,,,,,,
,,,,,,,,2023-08-16_08h17.31.393,HF_wild_card,2022.2.4,Win32,59.64096141,5b6eba1aaf4af50001357228,64d2fd46c836a06233681665,64dc77f64af2a539f88b8b6d,,,,,,,ctch,resources/DB.BMP,resources/DY.BMP,Door3,0.197631441,-0.017209503,1,0,0,1.547,optionRight,70,6340,3,30,0,30,0,1,,,,,,,,,,,,,,,,,,,,,,,,,,,,,,,,,,,,,,,
,,,,,,,,2023-08-16_08h17.31.393,HF_wild_card,2022.2.4,Win32,59.64096141,5b6eba1aaf4af50001357228,64d2fd46c836a06233681665,64dc77f64af2a539f88b8b6d,,,,,,,ctch,resources/DP.BMP,resources/DBN.BMP,Door4,-0.182642487,-0.047742419,1,0,0,1.4971,optionLeft,60,6400,3,31,0,31,0,1,,,,,,,,,,,,,,,,,,,,,,,,,,,,,,,,,,,,,,,
,,,,,,,,2023-08-16_08h17.31.393,HF_wild_card,2022.2.4,Win32,59.64096141,5b6eba1aaf4af50001357228,64d2fd46c836a06233681665,64dc77f64af2a539f88b8b6d,,,,,,,decisionTrl,resources/DB.BMP,resources/DBN.BMP,Door1,0.180051813,-0.030162871,1,0,0,1.0642,optionRight,30,6430,3,32,0,32,0,1,,,,,,,,,,,,,,,,,,,,,,,,,,,,,,,,,,,,,,,
,,,,,,,,2023-08-16_08h17.31.393,HF_wild_card,2022.2.4,Win32,59.64096141,5b6eba1aaf4af50001357228,64d2fd46c836a06233681665,64dc77f64af2a539f88b8b6d,,,,,,,decisionTrl,resources/DB.BMP,resources/DR.BMP,Door2,-0.211324899,-0.025536651,1,0,0,1.8458,optionLeft,20,6450,3,33,0,33,0,1,,,,,,,,,,,,,,,,,,,,,,,,,,,,,,,,,,,,,,,
,,,,,,,,2023-08-16_08h17.31.393,HF_wild_card,2022.2.4,Win32,59.64096141,5b6eba1aaf4af50001357228,64d2fd46c836a06233681665,64dc77f64af2a539f88b8b6d,,,,,,,decisionTrl,resources/DP.BMP,resources/DR.BMP,Door4,-0.266839378,-0.051443387,1,0,0,1.1462,optionLeft,80,6530,3,34,0,34,0,1,,,,,,,,,,,,,,,,,,,,,,,,,,,,,,,,,,,,,,,
,,,,,,,,2023-08-16_08h17.31.393,HF_wild_card,2022.2.4,Win32,59.64096141,5b6eba1aaf4af50001357228,64d2fd46c836a06233681665,64dc77f64af2a539f88b8b6d,,,,,,,sngl,resources/Empty.png,resources/DBN.BMP,Door1,0.260547776,-0.044966703,1,0,0,0.8966,optionRight,30,6560,3,35,0,35,0,1,,,,,,,,,,,,,,,,,,,,,,,,,,,,,,,,,,,,,,,
,,,,,,,,2023-08-16_08h17.31.393,HF_wild_card,2022.2.4,Win32,59.64096141,5b6eba1aaf4af50001357228,64d2fd46c836a06233681665,64dc77f64af2a539f88b8b6d,,,,,,,decisionTrl,resources/DB.BMP,resources/DBN.BMP,Door1,0.151369401,-0.049592922,1,0,0,1.547,optionRight,30,6590,3,36,0,36,0,1,,,,,,,,,,,,,,,,,,,,,,,,,,,,,,,,,,,,,,,
,,,,,,,,2023-08-16_08h17.31.393,HF_wild_card,2022.2.4,Win32,59.64096141,5b6eba1aaf4af50001357228,64d2fd46c836a06233681665,64dc77f64af2a539f88b8b6d,,,,,,,ctch,resources/DBN.BMP,resources/DP.BMP,Door4,0.17357513,-0.033863799,1,0,0,1.1108,optionRight,60,6650,3,37,0,37,0,1,,,,,,,,,,,,,,,,,,,,,,,,,,,,,,,,,,,,,,,
,,,,,,,,2023-08-16_08h17.31.393,HF_wild_card,2022.2.4,Win32,59.64096141,5b6eba1aaf4af50001357228,64d2fd46c836a06233681665,64dc77f64af2a539f88b8b6d,,,,,,,decisionTrl,resources/DR.BMP,resources/DP.BMP,Door4,0.184678073,-0.054219103,1,0,0,1.2124,optionRight,60,6710,3,38,0,38,0,1,,,,,,,,,,,,,,,,,,,,,,,,,,,,,,,,,,,,,,,
,,,,,,,,2023-08-16_08h17.31.393,HF_wild_card,2022.2.4,Win32,59.64096141,5b6eba1aaf4af50001357228,64d2fd46c836a06233681665,64dc77f64af2a539f88b8b6d,,,,,,,sngl,resources/DR.BMP,resources/Empty.png,WildCard_Ex,-0.201147287,-0.025536651,1,0,0,0.848,optionLeft,5,6715,3,39,0,39,0,1,,,,,,,,,,,,,,,,,,,,,,,,,,,,,,,,,,,,,,,
,,,,,,,,2023-08-16_08h17.31.393,HF_wild_card,2022.2.4,Win32,59.64096141,5b6eba1aaf4af50001357228,64d2fd46c836a06233681665,64dc77f64af2a539f88b8b6d,,,,,,,sngl,resources/Empty.png,resources/DB.BMP,Door2,0.170799453,-0.037564767,1,0,0,0.7956,optionRight,20,6735,3,40,0,40,0,1,,,,,,,,,,,,,,,,,,,,,,,,,,,,,,,,,,,,,,,
,,,,,,,,2023-08-16_08h17.31.393,HF_wild_card,2022.2.4,Win32,59.64096141,5b6eba1aaf4af50001357228,64d2fd46c836a06233681665,64dc77f64af2a539f88b8b6d,,,,,,,decisionTrl,resources/DB.BMP,resources/DBN.BMP,Door1,0.188379001,-0.056994819,1,0,0,1.1036,optionRight,30,6765,3,41,0,41,0,1,,,,,,,,,,,,,,,,,,,,,,,,,,,,,,,,,,,,,,,
,,,,,,,,2023-08-16_08h17.31.393,HF_wild_card,2022.2.4,Win32,59.64096141,5b6eba1aaf4af50001357228,64d2fd46c836a06233681665,64dc77f64af2a539f88b8b6d,,,,,,,decisionTrl,resources/DP.BMP,resources/DY.BMP,Door4,-0.233530707,-0.064396754,1,0,0,1.0963,optionLeft,60,6825,3,42,0,42,0,1,,,,,,,,,,,,,,,,,,,,,,,,,,,,,,,,,,,,,,,
,,,,,,,,2023-08-16_08h17.31.393,HF_wild_card,2022.2.4,Win32,59.64096141,5b6eba1aaf4af50001357228,64d2fd46c836a06233681665,64dc77f64af2a539f88b8b6d,,,,,,,ctch,resources/DY.BMP,resources/DB.BMP,Door3,-0.120651324,-0.045891954,1,0,0,1.2633,optionLeft,70,6895,3,43,0,43,0,1,,,,,,,,,,,,,,,,,,,,,,,,,,,,,,,,,,,,,,,
,,,,,,,,2023-08-16_08h17.31.393,HF_wild_card,2022.2.4,Win32,59.64096141,5b6eba1aaf4af50001357228,64d2fd46c836a06233681665,64dc77f64af2a539f88b8b6d,,,,,,,,,,,,,,,,,,,,,,,,,,2,0,2,0,1,,,,,,,,,,,,,,,,,,,,,,,,,,,,,,,,,,
,,,,,,,,2023-08-16_08h17.31.393,HF_wild_card,2022.2.4,Win32,59.64096141,5b6eba1aaf4af50001357228,64d2fd46c836a06233681665,64dc77f64af2a539f88b8b6d,,,,,,,decisionTrl,resources/DP.BMP,resources/DY.BMP,Door4,-0.240932642,0.028127285,1,0,0,1.388,optionLeft,80,6975,4,0,0,0,0,1,,,,,,,,,,,,,,,,,,,,,,,,,,,,,,,,,,,,,,,
,,,,,,,,2023-08-16_08h17.31.393,HF_wild_card,2022.2.4,Win32,59.64096141,5b6eba1aaf4af50001357228,64d2fd46c836a06233681665,64dc77f64af2a539f88b8b6d,,,,,,,decisionTrl,resources/DG.BMP,resources/DP.BMP,WildCard_NonEx,-0.227979275,-0.033863799,1,0,0,1.8626,optionLeft,55,7030,4,1,0,1,0,1,,,,,,,,,,,,,,,,,,,,,,,,,,,,,,,,,,,,,,,
,,,,,,,,2023-08-16_08h17.31.393,HF_wild_card,2022.2.4,Win32,59.64096141,5b6eba1aaf4af50001357228,64d2fd46c836a06233681665,64dc77f64af2a539f88b8b6d,,,,,,,decisionTrl,resources/DBN.BMP,resources/DB.BMP,Door1,-0.179866731,-0.028312367,1,0,0,1.1952,optionLeft,30,7060,4,2,0,2,0,1,,,,,,,,,,,,,,,,,,,,,,,,,,,,,,,,,,,,,,,
,,,,,,,,2023-08-16_08h17.31.393,HF_wild_card,2022.2.4,Win32,59.64096141,5b6eba1aaf4af50001357228,64d2fd46c836a06233681665,64dc77f64af2a539f88b8b6d,,,,,,,sngl,resources/Empty.png,resources/DB.BMP,Door2,0.243893401,-0.007957063,1,0,0,0.8802,optionRight,40,7100,4,3,0,3,0,1,,,,,,,,,,,,,,,,,,,,,,,,,,,,,,,,,,,,,,,
,,,,,,,,2023-08-16_08h17.31.393,HF_wild_card,2022.2.4,Win32,59.64096141,5b6eba1aaf4af50001357228,64d2fd46c836a06233681665,64dc77f64af2a539f88b8b6d,,,,,,,decisionTrl,resources/DG.BMP,resources/DBN.BMP,WildCard_NonEx,-0.383419689,-0.019059967,1,0,0,2.0273,optionLeft,45,7145,4,4,0,4,0,1,,,,,,,,,,,,,,,,,,,,,,,,,,,,,,,,,,,,,,,
,,,,,,,,2023-08-16_08h17.31.393,HF_wild_card,2022.2.4,Win32,59.64096141,5b6eba1aaf4af50001357228,64d2fd46c836a06233681665,64dc77f64af2a539f88b8b6d,,,,,,,decisionTrl,resources/DB.BMP,resources/DG.BMP,WildCard_NonEx,0.26702446,-0.003330883,1,0,0,1.8114,optionRight,55,7200,4,5,0,5,0,1,,,,,,,,,,,,,,,,,,,,,,,,,,,,,,,,,,,,,,,
,,,,,,,,2023-08-16_08h17.31.393,HF_wild_card,2022.2.4,Win32,59.64096141,5b6eba1aaf4af50001357228,64d2fd46c836a06233681665,64dc77f64af2a539f88b8b6d,,,,,,,decisionTrl,resources/DY.BMP,resources/DP.BMP,Door4,0.143042214,-0.022760935,1,0,0,1.3274,optionRight,60,7260,4,6,0,6,0,1,,,,,,,,,,,,,,,,,,,,,,,,,,,,,,,,,,,,,,,
,,,,,,,,2023-08-16_08h17.31.393,HF_wild_card,2022.2.4,Win32,59.64096141,5b6eba1aaf4af50001357228,64d2fd46c836a06233681665,64dc77f64af2a539f88b8b6d,,,,,,,decisionTrl,resources/DP.BMP,resources/DY.BMP,Door4,-0.276091778,-0.054219103,1,0,0,1.0454,optionLeft,60,7320,4,7,0,7,0,1,,,,,,,,,,,,,,,,,,,,,,,,,,,,,,,,,,,,,,,
,,,,,,,,2023-08-16_08h17.31.393,HF_wild_card,2022.2.4,Win32,59.64096141,5b6eba1aaf4af50001357228,64d2fd46c836a06233681665,64dc77f64af2a539f88b8b6d,,,,,,,sngl,resources/DB.BMP,resources/Empty.png,Door2,-0.270540307,-0.026461903,1,0,0,0.9567,optionLeft,20,7340,4,8,0,8,0,1,,,,,,,,,,,,,,,,,,,,,,,,,,,,,,,,,,,,,,,
,,,,,,,,2023-08-16_08h17.31.393,HF_wild_card,2022.2.4,Win32,59.64096141,5b6eba1aaf4af50001357228,64d2fd46c836a06233681665,64dc77f64af2a539f88b8b6d,,,,,,,ctch,resources/DP.BMP,resources/DBN.BMP,Door4,-0.254811223,-0.001480379,1,0,0,1.5937,optionLeft,60,7400,4,9,0,9,0,1,,,,,,,,,,,,,,,,,,,,,,,,,,,,,,,,,,,,,,,
,,,,,,,,2023-08-16_08h17.31.393,HF_wild_card,2022.2.4,Win32,59.64096141,5b6eba1aaf4af50001357228,64d2fd46c836a06233681665,64dc77f64af2a539f88b8b6d,,,,,,,decisionTrl,resources/DB.BMP,resources/DBN.BMP,Door1,0.274426396,-0.004256135,1,0,0,1.2116,optionRight,30,7430,4,10,0,10,0,1,,,,,,,,,,,,,,,,,,,,,,,,,,,,,,,,,,,,,,,
,,,,,,,,2023-08-16_08h17.31.393,HF_wild_card,2022.2.4,Win32,59.64096141,5b6eba1aaf4af50001357228,64d2fd46c836a06233681665,64dc77f64af2a539f88b8b6d,,,,,,,ctch,resources/DP.BMP,resources/DBN.BMP,Door4,-0.239082139,0.003145801,1,0,0,2.7104,optionLeft,60,7490,4,11,0,11,0,1,,,,,,,,,,,,,,,,,,,,,,,,,,,,,,,,,,,,,,,
,,,,,,,,2023-08-16_08h17.31.393,HF_wild_card,2022.2.4,Win32,59.64096141,5b6eba1aaf4af50001357228,64d2fd46c836a06233681665,64dc77f64af2a539f88b8b6d,,,,,,,ctch,resources/DB.BMP,resources/DY.BMP,Door3,0.219837169,-0.011658031,1,0,0,1.9958,optionRight,70,7560,4,12,0,12,0,1,,,,,,,,,,,,,,,,,,,,,,,,,,,,,,,,,,,,,,,
,,,,,,,,2023-08-16_08h17.31.393,HF_wild_card,2022.2.4,Win32,59.64096141,5b6eba1aaf4af50001357228,64d2fd46c836a06233681665,64dc77f64af2a539f88b8b6d,,,,,,,decisionTrl,resources/DB.BMP,resources/DBN.BMP,Door1,0.240192473,-0.016284251,1,0,0,1.5621,optionRight,30,7590,4,13,0,13,0,1,,,,,,,,,,,,,,,,,,,,,,,,,,,,,,,,,,,,,,,
,,,,,,,,2023-08-16_08h17.31.393,HF_wild_card,2022.2.4,Win32,59.64096141,5b6eba1aaf4af50001357228,64d2fd46c836a06233681665,64dc77f64af2a539f88b8b6d,,,,,,,sngl,resources/Empty.png,resources/DBN.BMP,Door1,0.229089608,-0.028312367,1,0,0,0.8293,optionRight,30,7620,4,14,0,14,0,1,,,,,,,,,,,,,,,,,,,,,,,,,,,,,,,,,,,,,,,
,,,,,,,,2023-08-16_08h17.31.393,HF_wild_card,2022.2.4,Win32,59.64096141,5b6eba1aaf4af50001357228,64d2fd46c836a06233681665,64dc77f64af2a539f88b8b6d,,,,,,,ctch,resources/DBN.BMP,resources/DP.BMP,Door4,0.209659557,-0.035714303,1,0,0,1.229,optionRight,60,7680,4,15,0,15,0,1,,,,,,,,,,,,,,,,,,,,,,,,,,,,,,,,,,,,,,,
,,,,,,,,2023-08-16_08h17.31.393,HF_wild_card,2022.2.4,Win32,59.64096141,5b6eba1aaf4af50001357228,64d2fd46c836a06233681665,64dc77f64af2a539f88b8b6d,,,,,,,decisionTrl,resources/DBN.BMP,resources/DB.BMP,Door1,-0.247409326,-0.072723903,1,0,0,1.3119,optionLeft,30,7710,4,16,0,16,0,1,,,,,,,,,,,,,,,,,,,,,,,,,,,,,,,,,,,,,,,
,,,,,,,,2023-08-16_08h17.31.393,HF_wild_card,2022.2.4,Win32,59.64096141,5b6eba1aaf4af50001357228,64d2fd46c836a06233681665,64dc77f64af2a539f88b8b6d,,,,,,,decisionTrl,resources/DBN.BMP,resources/DB.BMP,Door2,0.228164357,-0.048667671,1,0,0,1.296,optionRight,20,7730,4,17,0,17,0,1,,,,,,,,,,,,,,,,,,,,,,,,,,,,,,,,,,,,,,,
,,,,,,,,2023-08-16_08h17.31.393,HF_wild_card,2022.2.4,Win32,59.64096141,5b6eba1aaf4af50001357228,64d2fd46c836a06233681665,64dc77f64af2a539f88b8b6d,,,,,,,sngl,resources/DP.BMP,resources/Empty.png,Door4,-0.25388601,-0.025536651,1,0,0,0.8452,optionLeft,60,7790,4,18,0,18,0,1,,,,,,,,,,,,,,,,,,,,,,,,,,,,,,,,,,,,,,,
,,,,,,,,2023-08-16_08h17.31.393,HF_wild_card,2022.2.4,Win32,59.64096141,5b6eba1aaf4af50001357228,64d2fd46c836a06233681665,64dc77f64af2a539f88b8b6d,,,,,,,decisionTrl,resources/DP.BMP,resources/DY.BMP,Door4,-0.27239081,-0.026461903,1,0,0,0.961,optionLeft,80,7870,4,19,0,19,0,1,,,,,,,,,,,,,,,,,,,,,,,,,,,,,,,,,,,,,,,
,,,,,,,,2023-08-16_08h17.31.393,HF_wild_card,2022.2.4,Win32,59.64096141,5b6eba1aaf4af50001357228,64d2fd46c836a06233681665,64dc77f64af2a539f88b8b6d,,,,,,,sngl,resources/Empty.png,resources/DG.BMP,WildCard_NonEx,0.192079929,-0.058845322,1,0,0,0.9125,optionRight,55,7925,4,20,0,20,0,1,,,,,,,,,,,,,,,,,,,,,,,,,,,,,,,,,,,,,,,
,,,,,,,,2023-08-16_08h17.31.393,HF_wild_card,2022.2.4,Win32,59.64096141,5b6eba1aaf4af50001357228,64d2fd46c836a06233681665,64dc77f64af2a539f88b8b6d,,,,,,,decisionTrl,resources/DY.BMP,resources/DG.BMP,Door3,-0.232605455,-0.013508535,1,0,0,2.2287,optionLeft,70,7995,4,21,0,21,0,1,,,,,,,,,,,,,,,,,,,,,,,,,,,,,,,,,,,,,,,
,,,,,,,,2023-08-16_08h17.31.393,HF_wild_card,2022.2.4,Win32,59.64096141,5b6eba1aaf4af50001357228,64d2fd46c836a06233681665,64dc77f64af2a539f88b8b6d,,,,,,,sngl,resources/DG.BMP,resources/Empty.png,WildCard_NonEx,-0.204848215,-0.011658031,1,0,0,0.891,optionLeft,45,8040,4,22,0,22,0,1,,,,,,,,,,,,,,,,,,,,,,,,,,,,,,,,,,,,,,,
,,,,,,,,2023-08-16_08h17.31.393,HF_wild_card,2022.2.4,Win32,59.64096141,5b6eba1aaf4af50001357228,64d2fd46c836a06233681665,64dc77f64af2a539f88b8b6d,,,,,,,sngl,resources/Empty.png,resources/DG.BMP,WildCard_NonEx,0.228164357,-0.032013335,1,0,0,0.8799,optionRight,45,8085,4,23,0,23,0,1,,,,,,,,,,,,,,,,,,,,,,,,,,,,,,,,,,,,,,,
,,,,,,,,2023-08-16_08h17.31.393,HF_wild_card,2022.2.4,Win32,59.64096141,5b6eba1aaf4af50001357228,64d2fd46c836a06233681665,64dc77f64af2a539f88b8b6d,,,,,,,decisionTrl,resources/DG.BMP,resources/DY.BMP,Door3,0.311435996,-0.098630678,1,0,0,1.2785,optionRight,70,8155,4,24,0,24,0,1,,,,,,,,,,,,,,,,,,,,,,,,,,,,,,,,,,,,,,,
,,,,,,,,2023-08-16_08h17.31.393,HF_wild_card,2022.2.4,Win32,59.64096141,5b6eba1aaf4af50001357228,64d2fd46c836a06233681665,64dc77f64af2a539f88b8b6d,,,,,,,ctch,resources/DBN.BMP,resources/DP.BMP,Door4,0.291080692,-0.060695787,1,0,0,1.2794,optionRight,80,8235,4,25,0,25,0,1,,,,,,,,,,,,,,,,,,,,,,,,,,,,,,,,,,,,,,,
,,,,,,,,2023-08-16_08h17.31.393,HF_wild_card,2022.2.4,Win32,59.64096141,5b6eba1aaf4af50001357228,64d2fd46c836a06233681665,64dc77f64af2a539f88b8b6d,,,,,,,decisionTrl,resources/DB.BMP,resources/DBN.BMP,Door1,0.263323453,-0.040340483,1,0,0,2.4125,optionRight,30,8265,4,26,0,26,0,1,,,,,,,,,,,,,,,,,,,,,,,,,,,,,,,,,,,,,,,
,,,,,,,,2023-08-16_08h17.31.393,HF_wild_card,2022.2.4,Win32,59.64096141,5b6eba1aaf4af50001357228,64d2fd46c836a06233681665,64dc77f64af2a539f88b8b6d,,,,,,,decisionTrl,resources/DG.BMP,resources/DB.BMP,WildCard_NonEx,-0.343634334,-0.074574406,1,0,0,1.8465,optionLeft,45,8310,4,27,0,27,0,1,,,,,,,,,,,,,,,,,,,,,,,,,,,,,,,,,,,,,,,
,,,,,,,,2023-08-16_08h17.31.393,HF_wild_card,2022.2.4,Win32,59.64096141,5b6eba1aaf4af50001357228,64d2fd46c836a06233681665,64dc77f64af2a539f88b8b6d,,,,,,,decisionTrl,resources/DP.BMP,resources/DY.BMP,Door4,-0.246484075,-0.016284251,1,0,0,1.2133,optionLeft,60,8370,4,28,0,28,0,1,,,,,,,,,,,,,,,,,,,,,,,,,,,,,,,,,,,,,,,
,,,,,,,,2023-08-16_08h17.31.393,HF_wild_card,2022.2.4,Win32,59.64096141,5b6eba1aaf4af50001357228,64d2fd46c836a06233681665,64dc77f64af2a539f88b8b6d,,,,,,,ctch,resources/DB.BMP,resources/DY.BMP,Door3,0.28090308,-0.020910431,1,0,0,1.3481,optionRight,70,8440,4,29,0,29,0,1,,,,,,,,,,,,,,,,,,,,,,,,,,,,,,,,,,,,,,,
,,,,,,,,2023-08-16_08h17.31.393,HF_wild_card,2022.2.4,Win32,59.64096141,5b6eba1aaf4af50001357228,64d2fd46c836a06233681665,64dc77f64af2a539f88b8b6d,,,,,,,ctch,resources/DY.BMP,resources/DB.BMP,Door3,-0.353811985,-0.035714303,1,0,0,1.0965,optionLeft,70,8510,4,30,0,30,0,1,,,,,,,,,,,,,,,,,,,,,,,,,,,,,,,,,,,,,,,
,,,,,,,,2023-08-16_08h17.31.393,HF_wild_card,2022.2.4,Win32,59.64096141,5b6eba1aaf4af50001357228,64d2fd46c836a06233681665,64dc77f64af2a539f88b8b6d,,,,,,,decisionTrl,resources/DBN.BMP,resources/DB.BMP,Door1,-0.188193919,-0.014433747,1,0,0,1.2784,optionLeft,30,8540,4,31,0,31,0,1,,,,,,,,,,,,,,,,,,,,,,,,,,,,,,,,,,,,,,,
,,,,,,,,2023-08-16_08h17.31.393,HF_wild_card,2022.2.4,Win32,59.64096141,5b6eba1aaf4af50001357228,64d2fd46c836a06233681665,64dc77f64af2a539f88b8b6d,,,,,,,sngl,resources/Empty.png,resources/DP.BMP,Door4,0.222612925,-0.041265735,1,0,0,0.824,optionRight,80,8620,4,32,0,32,0,1,,,,,,,,,,,,,,,,,,,,,,,,,,,,,,,,,,,,,,,
,,,,,,,,2023-08-16_08h17.31.393,HF_wild_card,2022.2.4,Win32,59.64096141,5b6eba1aaf4af50001357228,64d2fd46c836a06233681665,64dc77f64af2a539f88b8b6d,,,,,,,decisionTrl,resources/DY.BMP,resources/DP.BMP,Door4,0.250370085,-0.007031851,1,0,0,1.1125,optionRight,60,8680,4,33,0,33,0,1,,,,,,,,,,,,,,,,,,,,,,,,,,,,,,,,,,,,,,,
,,,,,,,,2023-08-16_08h17.31.393,HF_wild_card,2022.2.4,Win32,59.64096141,5b6eba1aaf4af50001357228,64d2fd46c836a06233681665,64dc77f64af2a539f88b8b6d,,,,,,,sngl,resources/DBN.BMP,resources/Empty.png,Door1,-0.256661726,0.002220549,1,0,0,0.9449,optionLeft,30,8710,4,34,0,34,0,1,,,,,,,,,,,,,,,,,,,,,,,,,,,,,,,,,,,,,,,
,,,,,,,,2023-08-16_08h17.31.393,HF_wild_card,2022.2.4,Win32,59.64096141,5b6eba1aaf4af50001357228,64d2fd46c836a06233681665,64dc77f64af2a539f88b8b6d,,,,,,,decisionTrl,resources/DB.BMP,resources/DBN.BMP,Door1,0.219837169,-0.009807567,1,0,0,1.6795,optionRight,30,8740,4,35,0,35,0,1,,,,,,,,,,,,,,,,,,,,,,,,,,,,,,,,,,,,,,,
,,,,,,,,2023-08-16_08h17.31.393,HF_wild_card,2022.2.4,Win32,59.64096141,5b6eba1aaf4af50001357228,64d2fd46c836a06233681665,64dc77f64af2a539f88b8b6d,,,,,,,ctch,resources/DY.BMP,resources/DB.BMP,Door3,-0.166913364,-0.002405631,1,0,0,2.1624,optionLeft,70,8810,4,36,0,36,0,1,,,,,,,,,,,,,,,,,,,,,,,,,,,,,,,,,,,,,,,
,,,,,,,,2023-08-16_08h17.31.393,HF_wild_card,2022.2.4,Win32,59.64096141,5b6eba1aaf4af50001357228,64d2fd46c836a06233681665,64dc77f64af2a539f88b8b6d,,,,,,,decisionTrl,resources/DY.BMP,resources/DP.BMP,Door4,0.175425633,-0.016284251,1,0,0,1.3619,optionRight,80,8890,4,37,0,37,0,1,,,,,,,,,,,,,,,,,,,,,,,,,,,,,,,,,,,,,,,
,,,,,,,,2023-08-16_08h17.31.393,HF_wild_card,2022.2.4,Win32,59.64096141,5b6eba1aaf4af50001357228,64d2fd46c836a06233681665,64dc77f64af2a539f88b8b6d,,,,,,,sngl,resources/DG.BMP,resources/Empty.png,WildCard_NonEx,-0.271465558,-0.028312367,1,0,0,0.9629,optionLeft,55,8945,4,38,0,38,0,1,,,,,,,,,,,,,,,,,,,,,,,,,,,,,,,,,,,,,,,
,,,,,,,,2023-08-16_08h17.31.393,HF_wild_card,2022.2.4,Win32,59.64096141,5b6eba1aaf4af50001357228,64d2fd46c836a06233681665,64dc77f64af2a539f88b8b6d,,,,,,,decisionTrl,resources/DY.BMP,resources/DP.BMP,Door4,0.178201389,-0.038490019,1,0,0,1.0795,optionRight,60,9005,4,39,0,39,0,1,,,,,,,,,,,,,,,,,,,,,,,,,,,,,,,,,,,,,,,
,,,,,,,,2023-08-16_08h17.31.393,HF_wild_card,2022.2.4,Win32,59.64096141,5b6eba1aaf4af50001357228,64d2fd46c836a06233681665,64dc77f64af2a539f88b8b6d,,,,,,,sngl,resources/DY.BMP,resources/Empty.png,Door3,-0.179866731,-0.015358999,1,0,0,0.8467,optionLeft,70,9075,4,40,0,40,0,1,,,,,,,,,,,,,,,,,,,,,,,,,,,,,,,,,,,,,,,
,,,,,,,,2023-08-16_08h17.31.393,HF_wild_card,2022.2.4,Win32,59.64096141,5b6eba1aaf4af50001357228,64d2fd46c836a06233681665,64dc77f64af2a539f88b8b6d,,,,,,,sngl,resources/Empty.png,resources/DY.BMP,Door3,0.177276137,-0.047742419,1,0,0,0.9635,optionRight,70,9145,4,41,0,41,0,1,,,,,,,,,,,,,,,,,,,,,,,,,,,,,,,,,,,,,,,
,,,,,,,,2023-08-16_08h17.31.393,HF_wild_card,2022.2.4,Win32,59.64096141,5b6eba1aaf4af50001357228,64d2fd46c836a06233681665,64dc77f64af2a539f88b8b6d,,,,,,,decisionTrl,resources/DP.BMP,resources/DG.BMP,Door4,-0.196521107,-0.027387115,1,0,0,1.4122,optionLeft,60,9205,4,42,0,42,0,1,,,,,,,,,,,,,,,,,,,,,,,,,,,,,,,,,,,,,,,
,,,,,,,,2023-08-16_08h17.31.393,HF_wild_card,2022.2.4,Win32,59.64096141,5b6eba1aaf4af50001357228,64d2fd46c836a06233681665,64dc77f64af2a539f88b8b6d,,,,,,,decisionTrl,resources/DBN.BMP,resources/DG.BMP,WildCard_NonEx,0.208734305,-0.029237619,1,0,0,1.3291,optionRight,45,9250,4,43,0,43,0,1,,,,,,,,,,,,,,,,,,,,,,,,,,,,,,,,,,,,,,,
,,,,,,,,2023-08-16_08h17.31.393,HF_wild_card,2022.2.4,Win32,59.64096141,5b6eba1aaf4af50001357228,64d2fd46c836a06233681665,64dc77f64af2a539f88b8b6d,,,,,,,,,,,,,,,,,,,,,,,,,,3,0,3,0,1,,,,,,,,,,,,,,,,,,,,,,,,,,,,,,,,,,
,,,,,,,,2023-08-16_08h17.31.393,HF_wild_card,2022.2.4,Win32,59.64096141,5b6eba1aaf4af50001357228,64d2fd46c836a06233681665,64dc77f64af2a539f88b8b6d,,,,,,,decisionTrl,resources/DY.BMP,resources/DG.BMP,Door3,-0.124352332,0.007772021,1,0,0,1.9262,optionLeft,70,9320,5,0,0,0,0,1,,,,,,,,,,,,,,,,,,,,,,,,,,,,,,,,,,,,,,,
,,,,,,,,2023-08-16_08h17.31.393,HF_wild_card,2022.2.4,Win32,59.64096141,5b6eba1aaf4af50001357228,64d2fd46c836a06233681665,64dc77f64af2a539f88b8b6d,,,,,,,ctch,resources/DB.BMP,resources/DY.BMP,Door3,0.242042976,-0.019985219,1,0,0,1.113,optionRight,70,9390,5,1,0,1,0,1,,,,,,,,,,,,,,,,,,,,,,,,,,,,,,,,,,,,,,,
,,,,,,,,2023-08-16_08h17.31.393,HF_wild_card,2022.2.4,Win32,59.64096141,5b6eba1aaf4af50001357228,64d2fd46c836a06233681665,64dc77f64af2a539f88b8b6d,,,,,,,decisionTrl,resources/DB.BMP,resources/DBN.BMP,Door1,0.255921596,-0.017209503,1,0,0,1.3615,optionRight,30,9420,5,2,0,2,0,1,,,,,,,,,,,,,,,,,,,,,,,,,,,,,,,,,,,,,,,
,,,,,,,,2023-08-16_08h17.31.393,HF_wild_card,2022.2.4,Win32,59.64096141,5b6eba1aaf4af50001357228,64d2fd46c836a06233681665,64dc77f64af2a539f88b8b6d,,,,,,,sngl,resources/DP.BMP,resources/Empty.png,Door4,-0.240932642,-0.006106599,1,0,0,0.8521,optionLeft,80,9500,5,3,0,3,0,1,,,,,,,,,,,,,,,,,,,,,,,,,,,,,,,,,,,,,,,
,,,,,,,,2023-08-16_08h17.31.393,HF_wild_card,2022.2.4,Win32,59.64096141,5b6eba1aaf4af50001357228,64d2fd46c836a06233681665,64dc77f64af2a539f88b8b6d,,,,,,,ctch,resources/DBN.BMP,resources/DP.BMP,Door4,0.153219826,-0.008882315,1,0,0,1.7453,optionRight,60,9560,5,4,0,4,0,1,,,,,,,,,,,,,,,,,,,,,,,,,,,,,,,,,,,,,,,
,,,,,,,,2023-08-16_08h17.31.393,HF_wild_card,2022.2.4,Win32,59.64096141,5b6eba1aaf4af50001357228,64d2fd46c836a06233681665,64dc77f64af2a539f88b8b6d,,,,,,,ctch,resources/DBN.BMP,resources/DP.BMP,Door4,0.189304253,-0.044966703,1,0,0,0.8963,optionRight,80,9640,5,5,0,5,0,1,,,,,,,,,,,,,,,,,,,,,,,,,,,,,,,,,,,,,,,
,,,,,,,,2023-08-16_08h17.31.393,HF_wild_card,2022.2.4,Win32,59.64096141,5b6eba1aaf4af50001357228,64d2fd46c836a06233681665,64dc77f64af2a539f88b8b6d,,,,,,,decisionTrl,resources/DP.BMP,resources/DY.BMP,Door4,-0.293671326,-0.033863799,1,0,0,1.1294,optionLeft,80,9720,5,6,0,6,0,1,,,,,,,,,,,,,,,,,,,,,,,,,,,,,,,,,,,,,,,
,,,,,,,,2023-08-16_08h17.31.393,HF_wild_card,2022.2.4,Win32,59.64096141,5b6eba1aaf4af50001357228,64d2fd46c836a06233681665,64dc77f64af2a539f88b8b6d,,,,,,,decisionTrl,resources/DBN.BMP,resources/DG.BMP,WildCard_NonEx,0.235566292,0.002220549,1,0,0,1.2452,optionRight,55,9775,5,7,0,7,0,1,,,,,,,,,,,,,,,,,,,,,,,,,,,,,,,,,,,,,,,
,,,,,,,,2023-08-16_08h17.31.393,HF_wild_card,2022.2.4,Win32,59.64096141,5b6eba1aaf4af50001357228,64d2fd46c836a06233681665,64dc77f64af2a539f88b8b6d,,,,,,,sngl,resources/Empty.png,resources/DBN.BMP,Door1,0.192079929,-0.011658031,1,0,0,0.8805,optionRight,30,9805,5,8,0,8,0,1,,,,,,,,,,,,,,,,,,,,,,,,,,,,,,,,,,,,,,,
,,,,,,,,2023-08-16_08h17.31.393,HF_wild_card,2022.2.4,Win32,59.64096141,5b6eba1aaf4af50001357228,64d2fd46c836a06233681665,64dc77f64af2a539f88b8b6d,,,,,,,sngl,resources/Empty.png,resources/DG.BMP,WildCard_NonEx,0.193005181,-0.038490019,1,0,0,0.8475,optionRight,45,9850,5,9,0,9,0,1,,,,,,,,,,,,,,,,,,,,,,,,,,,,,,,,,,,,,,,
,,,,,,,,2023-08-16_08h17.31.393,HF_wild_card,2022.2.4,Win32,59.64096141,5b6eba1aaf4af50001357228,64d2fd46c836a06233681665,64dc77f64af2a539f88b8b6d,,,,,,,decisionTrl,resources/DB.BMP,resources/DBN.BMP,Door1,0.176350885,-0.016284251,1,0,0,2.8781,optionRight,30,9880,5,10,0,10,0,1,,,,,,,,,,,,,,,,,,,,,,,,,,,,,,,,,,,,,,,
,,,,,,,,2023-08-16_08h17.31.393,HF_wild_card,2022.2.4,Win32,59.64096141,5b6eba1aaf4af50001357228,64d2fd46c836a06233681665,64dc77f64af2a539f88b8b6d,,,,,,,decisionTrl,resources/DP.BMP,resources/DY.BMP,Door4,-0.269615094,-0.043116238,1,0,0,1.1632,optionLeft,60,9940,5,11,0,11,0,1,,,,,,,,,,,,,,,,,,,,,,,,,,,,,,,,,,,,,,,
,,,,,,,,2023-08-16_08h17.31.393,HF_wild_card,2022.2.4,Win32,59.64096141,5b6eba1aaf4af50001357228,64d2fd46c836a06233681665,64dc77f64af2a539f88b8b6d,,,,,,,sngl,resources/DG.BMP,resources/Empty.png,WildCard_NonEx,-0.241857855,-0.042190987,1,0,0,0.8794,optionLeft,55,9995,5,12,0,12,0,1,,,,,,,,,,,,,,,,,,,,,,,,,,,,,,,,,,,,,,,
,,,,,,,,2023-08-16_08h17.31.393,HF_wild_card,2022.2.4,Win32,59.64096141,5b6eba1aaf4af50001357228,64d2fd46c836a06233681665,64dc77f64af2a539f88b8b6d,,,,,,,decisionTrl,resources/DG.BMP,resources/DY.BMP,Door3,0.192079929,-0.028312367,1,0,0,1.7443,optionRight,70,10065,5,13,0,13,0,1,,,,,,,,,,,,,,,,,,,,,,,,,,,,,,,,,,,,,,,
,,,,,,,,2023-08-16_08h17.31.393,HF_wild_card,2022.2.4,Win32,59.64096141,5b6eba1aaf4af50001357228,64d2fd46c836a06233681665,64dc77f64af2a539f88b8b6d,,,,,,,decisionTrl,resources/DB.BMP,resources/DBN.BMP,Door1,0.210584809,-0.037564767,1,0,0,2.1101,optionRight,30,10095,5,14,0,14,0,1,,,,,,,,,,,,,,,,,,,,,,,,,,,,,,,,,,,,,,,
,,,,,,,,2023-08-16_08h17.31.393,HF_wild_card,2022.2.4,Win32,59.64096141,5b6eba1aaf4af50001357228,64d2fd46c836a06233681665,64dc77f64af2a539f88b8b6d,,,,,,,sngl,resources/DY.BMP,resources/Empty.png,Door3,-0.171539544,-0.002405631,1,0,0,0.8291,optionLeft,70,10165,5,15,0,15,0,1,,,,,,,,,,,,,,,,,,,,,,,,,,,,,,,,,,,,,,,
,,,,,,,,2023-08-16_08h17.31.393,HF_wild_card,2022.2.4,Win32,59.64096141,5b6eba1aaf4af50001357228,64d2fd46c836a06233681665,64dc77f64af2a539f88b8b6d,,,,,,,decisionTrl,resources/DBN.BMP,resources/DB.BMP,Door1,-0.265914126,-0.004256135,1,0,0,1.5957,optionLeft,30,10195,5,16,0,16,0,1,,,,,,,,,,,,,,,,,,,,,,,,,,,,,,,,,,,,,,,
,,,,,,,,2023-08-16_08h17.31.393,HF_wild_card,2022.2.4,Win32,59.64096141,5b6eba1aaf4af50001357228,64d2fd46c836a06233681665,64dc77f64af2a539f88b8b6d,,,,,,,decisionTrl,resources/DB.BMP,resources/DG.BMP,WildCard_NonEx,0.259622524,-0.015358999,1,0,0,1.1466,optionRight,45,10240,5,17,0,17,0,1,,,,,,,,,,,,,,,,,,,,,,,,,,,,,,,,,,,,,,,
,,,,,,,,2023-08-16_08h17.31.393,HF_wild_card,2022.2.4,Win32,59.64096141,5b6eba1aaf4af50001357228,64d2fd46c836a06233681665,64dc77f64af2a539f88b8b6d,,,,,,,sngl,resources/Empty.png,resources/DY.BMP,Door3,0.175425633,-0.032013335,1,0,0,0.8968,optionRight,70,10310,5,18,0,18,0,1,,,,,,,,,,,,,,,,,,,,,,,,,,,,,,,,,,,,,,,
,,,,,,,,2023-08-16_08h17.31.393,HF_wild_card,2022.2.4,Win32,59.64096141,5b6eba1aaf4af50001357228,64d2fd46c836a06233681665,64dc77f64af2a539f88b8b6d,,,,,,,decisionTrl,resources/DG.BMP,resources/DP.BMP,Door4,0.195780937,-0.029237619,1,0,0,1.9951,optionRight,60,10370,5,19,0,19,0,1,,,,,,,,,,,,,,,,,,,,,,,,,,,,,,,,,,,,,,,
,,,,,,,,2023-08-16_08h17.31.393,HF_wild_card,2022.2.4,Win32,59.64096141,5b6eba1aaf4af50001357228,64d2fd46c836a06233681665,64dc77f64af2a539f88b8b6d,,,,,,,decisionTrl,resources/DY.BMP,resources/DP.BMP,Door4,0.145817969,-0.022760935,1,0,0,1.6149,optionRight,60,10430,5,20,0,20,0,1,,,,,,,,,,,,,,,,,,,,,,,,,,,,,,,,,,,,,,,
,,,,,,,,2023-08-16_08h17.31.393,HF_wild_card,2022.2.4,Win32,59.64096141,5b6eba1aaf4af50001357228,64d2fd46c836a06233681665,64dc77f64af2a539f88b8b6d,,,,,,,decisionTrl,resources/DY.BMP,resources/DP.BMP,Door4,0.229089608,-0.029237619,1,0,0,0.9288,optionRight,60,10490,5,21,0,21,0,1,,,,,,,,,,,,,,,,,,,,,,,,,,,,,,,,,,,,,,,
,,,,,,,,2023-08-16_08h17.31.393,HF_wild_card,2022.2.4,Win32,59.64096141,5b6eba1aaf4af50001357228,64d2fd46c836a06233681665,64dc77f64af2a539f88b8b6d,,,,,,,decisionTrl,resources/DBN.BMP,resources/DB.BMP,Door1,-0.250185042,-0.019985219,1,0,0,2.0623,optionLeft,30,10520,5,22,0,22,0,1,,,,,,,,,,,,,,,,,,,,,,,,,,,,,,,,,,,,,,,
,,,,,,,,2023-08-16_08h17.31.393,HF_wild_card,2022.2.4,Win32,59.64096141,5b6eba1aaf4af50001357228,64d2fd46c836a06233681665,64dc77f64af2a539f88b8b6d,,,,,,,sngl,resources/DG.BMP,resources/Empty.png,WildCard_NonEx,-0.192820099,-0.017209503,1,0,0,0.8635,optionLeft,45,10565,5,23,0,23,0,1,,,,,,,,,,,,,,,,,,,,,,,,,,,,,,,,,,,,,,,
,,,,,,,,2023-08-16_08h17.31.393,HF_wild_card,2022.2.4,Win32,59.64096141,5b6eba1aaf4af50001357228,64d2fd46c836a06233681665,64dc77f64af2a539f88b8b6d,,,,,,,ctch,resources/DP.BMP,resources/DBN.BMP,Door4,-0.301073262,-0.028312367,1,0,0,1.3465,optionLeft,80,10645,5,24,0,24,0,1,,,,,,,,,,,,,,,,,,,,,,,,,,,,,,,,,,,,,,,
,,,,,,,,2023-08-16_08h17.31.393,HF_wild_card,2022.2.4,Win32,59.64096141,5b6eba1aaf4af50001357228,64d2fd46c836a06233681665,64dc77f64af2a539f88b8b6d,,,,,,,decisionTrl,resources/DBN.BMP,resources/DB.BMP,Door1,-0.204848215,-0.029237619,1,0,0,1.3801,optionLeft,30,10675,5,25,0,25,0,1,,,,,,,,,,,,,,,,,,,,,,,,,,,,,,,,,,,,,,,
,,,,,,,,2023-08-16_08h17.31.393,HF_wild_card,2022.2.4,Win32,59.64096141,5b6eba1aaf4af50001357228,64d2fd46c836a06233681665,64dc77f64af2a539f88b8b6d,,,,,,,sngl,resources/Empty.png,resources/DB.BMP,Door2,0.206883801,-0.033863799,1,0,0,0.9298,optionRight,20,10695,5,26,0,26,0,1,,,,,,,,,,,,,,,,,,,,,,,,,,,,,,,,,,,,,,,
,,,,,,,,2023-08-16_08h17.31.393,HF_wild_card,2022.2.4,Win32,59.64096141,5b6eba1aaf4af50001357228,64d2fd46c836a06233681665,64dc77f64af2a539f88b8b6d,,,,,,,decisionTrl,resources/DG.BMP,resources/DBN.BMP,WildCard_NonEx,-0.222427843,-0.022760935,1,0,0,1.5475,optionLeft,45,10740,5,27,0,27,0,1,,,,,,,,,,,,,,,,,,,,,,,,,,,,,,,,,,,,,,,
,,,,,,,,2023-08-16_08h17.31.393,HF_wild_card,2022.2.4,Win32,59.64096141,5b6eba1aaf4af50001357228,64d2fd46c836a06233681665,64dc77f64af2a539f88b8b6d,,,,,,,decisionTrl,resources/DB.BMP,resources/DBN.BMP,Door1,0.17357513,0.028127285,1,0,0,2.4462,optionRight,30,10770,5,28,0,28,0,1,,,,,,,,,,,,,,,,,,,,,,,,,,,,,,,,,,,,,,,
,,,,,,,,2023-08-16_08h17.31.393,HF_wild_card,2022.2.4,Win32,59.64096141,5b6eba1aaf4af50001357228,64d2fd46c836a06233681665,64dc77f64af2a539f88b8b6d,,,,,,,ctch,resources/DB.BMP,resources/DY.BMP,Door3,0.23001486,-0.021835683,1,0,0,2.3119,optionRight,70,10840,5,29,0,29,0,1,,,,,,,,,,,,,,,,,,,,,,,,,,,,,,,,,,,,,,,
,,,,,,,,2023-08-16_08h17.31.393,HF_wild_card,2022.2.4,Win32,59.64096141,5b6eba1aaf4af50001357228,64d2fd46c836a06233681665,64dc77f64af2a539f88b8b6d,,,,,,,sngl,resources/DBN.BMP,resources/Empty.png,Door1,-0.240932642,-0.026461903,1,0,0,0.9456,optionLeft,30,10870,5,30,0,30,0,1,,,,,,,,,,,,,,,,,,,,,,,,,,,,,,,,,,,,,,,
,,,,,,,,2023-08-16_08h17.31.393,HF_wild_card,2022.2.4,Win32,59.64096141,5b6eba1aaf4af50001357228,64d2fd46c836a06233681665,64dc77f64af2a539f88b8b6d,,,,,,,sngl,resources/Empty.png,resources/DP.BMP,Door4,0.210584809,-0.009807567,1,0,0,0.8464,optionRight,60,10930,5,31,0,31,0,1,,,,,,,,,,,,,,,,,,,,,,,,,,,,,,,,,,,,,,,
,,,,,,,,2023-08-16_08h17.31.393,HF_wild_card,2022.2.4,Win32,59.64096141,5b6eba1aaf4af50001357228,64d2fd46c836a06233681665,64dc77f64af2a539f88b8b6d,,,,,,,sngl,resources/DB.BMP,resources/Empty.png,Door2,-0.259437442,-0.027387115,1,0,0,0.8649,optionLeft,40,10970,5,32,0,32,0,1,,,,,,,,,,,,,,,,,,,,,,,,,,,,,,,,,,,,,,,
,,,,,,,,2023-08-16_08h17.31.393,HF_wild_card,2022.2.4,Win32,59.64096141,5b6eba1aaf4af50001357228,64d2fd46c836a06233681665,64dc77f64af2a539f88b8b6d,,,,,,,decisionTrl,resources/DP.BMP,resources/DY.BMP,Door4,-0.27239081,-0.046817167,1,0,0,1.1959,optionLeft,80,11050,5,33,0,33,0,1,,,,,,,,,,,,,,,,,,,,,,,,,,,,,,,,,,,,,,,
,,,,,,,,2023-08-16_08h17.31.393,HF_wild_card,2022.2.4,Win32,59.64096141,5b6eba1aaf4af50001357228,64d2fd46c836a06233681665,64dc77f64af2a539f88b8b6d,,,,,,,decisionTrl,resources/DBN.BMP,resources/DB.BMP,Door1,-0.215951159,-0.007031851,1,0,0,1.3467,optionLeft,30,11080,5,34,0,34,0,1,,,,,,,,,,,,,,,,,,,,,,,,,,,,,,,,,,,,,,,
,,,,,,,,2023-08-16_08h17.31.393,HF_wild_card,2022.2.4,Win32,59.64096141,5b6eba1aaf4af50001357228,64d2fd46c836a06233681665,64dc77f64af2a539f88b8b6d,,,,,,,decisionTrl,resources/DP.BMP,resources/DY.BMP,Door4,-0.215951159,-0.000555167,1,0,0,1.0468,optionLeft,60,11140,5,35,0,35,0,1,,,,,,,,,,,,,,,,,,,,,,,,,,,,,,,,,,,,,,,
,,,,,,,,2023-08-16_08h17.31.393,HF_wild_card,2022.2.4,Win32,59.64096141,5b6eba1aaf4af50001357228,64d2fd46c836a06233681665,64dc77f64af2a539f88b8b6d,,,,,,,ctch,resources/DP.BMP,resources/DBN.BMP,Door4,-0.181717235,0.015173917,1,0,0,1.1481,optionLeft,80,11220,5,36,0,36,0,1,,,,,,,,,,,,,,,,,,,,,,,,,,,,,,,,,,,,,,,
,,,,,,,,2023-08-16_08h17.31.393,HF_wild_card,2022.2.4,Win32,59.64096141,5b6eba1aaf4af50001357228,64d2fd46c836a06233681665,64dc77f64af2a539f88b8b6d,,,,,,,sngl,resources/Empty.png,resources/DG.BMP,WildCard_NonEx,0.267949712,-0.034789051,1,0,0,0.93,optionRight,55,11275,5,37,0,37,0,1,,,,,,,,,,,,,,,,,,,,,,,,,,,,,,,,,,,,,,,
,,,,,,,,2023-08-16_08h17.31.393,HF_wild_card,2022.2.4,Win32,59.64096141,5b6eba1aaf4af50001357228,64d2fd46c836a06233681665,64dc77f64af2a539f88b8b6d,,,,,,,ctch,resources/DY.BMP,resources/DB.BMP,Door3,-0.203923043,-0.024611399,1,0,0,1.3968,optionLeft,70,11345,5,38,0,38,0,1,,,,,,,,,,,,,,,,,,,,,,,,,,,,,,,,,,,,,,,
,,,,,,,,2023-08-16_08h17.31.393,HF_wild_card,2022.2.4,Win32,59.64096141,5b6eba1aaf4af50001357228,64d2fd46c836a06233681665,64dc77f64af2a539f88b8b6d,,,,,,,decisionTrl,resources/DY.BMP,resources/DP.BMP,Door4,0.342894164,-0.046817167,1,0,0,1.0798,optionRight,80,11425,5,39,0,39,0,1,,,,,,,,,,,,,,,,,,,,,,,,,,,,,,,,,,,,,,,
,,,,,,,,2023-08-16_08h17.31.393,HF_wild_card,2022.2.4,Win32,59.64096141,5b6eba1aaf4af50001357228,64d2fd46c836a06233681665,64dc77f64af2a539f88b8b6d,,,,,,,decisionTrl,resources/DG.BMP,resources/DB.BMP,WildCard_NonEx,-0.30014801,-0.058845322,1,0,0,0.9628,optionLeft,55,11480,5,40,0,40,0,1,,,,,,,,,,,,,,,,,,,,,,,,,,,,,,,,,,,,,,,
,,,,,,,,2023-08-16_08h17.31.393,HF_wild_card,2022.2.4,Win32,59.64096141,5b6eba1aaf4af50001357228,64d2fd46c836a06233681665,64dc77f64af2a539f88b8b6d,,,,,,,ctch,resources/DY.BMP,resources/DB.BMP,Door3,-0.194670603,-0.056994819,1,0,0,1.08,optionLeft,70,11550,5,41,0,41,0,1,,,,,,,,,,,,,,,,,,,,,,,,,,,,,,,,,,,,,,,
,,,,,,,,2023-08-16_08h17.31.393,HF_wild_card,2022.2.4,Win32,59.64096141,5b6eba1aaf4af50001357228,64d2fd46c836a06233681665,64dc77f64af2a539f88b8b6d,,,,,,,decisionTrl,resources/DY.BMP,resources/DP.BMP,Door4,0.273501144,-0.028312367,1,0,0,1.0645,optionRight,80,11630,5,42,0,42,0,1,,,,,,,,,,,,,,,,,,,,,,,,,,,,,,,,,,,,,,,
,,,,,,,,2023-08-16_08h17.31.393,HF_wild_card,2022.2.4,Win32,59.64096141,5b6eba1aaf4af50001357228,64d2fd46c836a06233681665,64dc77f64af2a539f88b8b6d,,,,,,,decisionTrl,resources/DP.BMP,resources/DG.BMP,Door4,-0.204848215,-0.006106599,1,0,0,1.3119,optionLeft,80,11710,5,43,0,43,0,1,,,,,,,,,,,,,,,,,,,,,,,,,,,,,,,,,,,,,,,
,,,,,,,,2023-08-16_08h17.31.393,HF_wild_card,2022.2.4,Win32,59.64096141,5b6eba1aaf4af50001357228,64d2fd46c836a06233681665,64dc77f64af2a539f88b8b6d,,,,,,,,,,,,,,,,,,,,,,,,,,4,0,4,0,1,,,,,,,,,,,,,,,,,,,,,,,,,,,,,,,,,,
,,,,,,,,2023-08-16_08h17.31.393,HF_wild_card,2022.2.4,Win32,59.64096141,5b6eba1aaf4af50001357228,64d2fd46c836a06233681665,64dc77f64af2a539f88b8b6d,,,,,,,decisionTrl,resources/DB.BMP,resources/DG.BMP,WildCard_NonEx,0.293856448,-0.034789051,1,0,0,2.4568,optionRight,45,11755,6,0,0,0,0,1,,,,,,,,,,,,,,,,,,,,,,,,,,,,,,,,,,,,,,,
,,,,,,,,2023-08-16_08h17.31.393,HF_wild_card,2022.2.4,Win32,59.64096141,5b6eba1aaf4af50001357228,64d2fd46c836a06233681665,64dc77f64af2a539f88b8b6d,,,,,,,decisionTrl,resources/DP.BMP,resources/DY.BMP,Door4,-0.264988875,-0.088453026,1,0,0,1.1461,optionLeft,60,11815,6,1,0,1,0,1,,,,,,,,,,,,,,,,,,,,,,,,,,,,,,,,,,,,,,,
,,,,,,,,2023-08-16_08h17.31.393,HF_wild_card,2022.2.4,Win32,59.64096141,5b6eba1aaf4af50001357228,64d2fd46c836a06233681665,64dc77f64af2a539f88b8b6d,,,,,,,sngl,resources/Empty.png,resources/DG.BMP,WildCard_NonEx,0.306809816,-0.022760935,1,0,0,0.795,optionRight,45,11860,6,2,0,2,0,1,,,,,,,,,,,,,,,,,,,,,,,,,,,,,,,,,,,,,,,
,,,,,,,,2023-08-16_08h17.31.393,HF_wild_card,2022.2.4,Win32,59.64096141,5b6eba1aaf4af50001357228,64d2fd46c836a06233681665,64dc77f64af2a539f88b8b6d,,,,,,,sngl,resources/DP.BMP,resources/Empty.png,Door4,-0.314951882,-0.032013335,1,0,0,0.7631,optionLeft,60,11920,6,3,0,3,0,1,,,,,,,,,,,,,,,,,,,,,,,,,,,,,,,,,,,,,,,
,,,,,,,,2023-08-16_08h17.31.393,HF_wild_card,2022.2.4,Win32,59.64096141,5b6eba1aaf4af50001357228,64d2fd46c836a06233681665,64dc77f64af2a539f88b8b6d,,,,,,,ctch,resources/DY.BMP,resources/DB.BMP,Door3,-0.297372294,-0.032013335,1,0,0,1.1964,optionLeft,70,11990,6,4,0,4,0,1,,,,,,,,,,,,,,,,,,,,,,,,,,,,,,,,,,,,,,,
,,,,,,,,2023-08-16_08h17.31.393,HF_wild_card,2022.2.4,Win32,59.64096141,5b6eba1aaf4af50001357228,64d2fd46c836a06233681665,64dc77f64af2a539f88b8b6d,,,,,,,decisionTrl,resources/DBN.BMP,resources/DB.BMP,Door1,-0.270540307,0.021650601,1,0,0,1.4977,optionLeft,30,12020,6,5,0,5,0,1,,,,,,,,,,,,,,,,,,,,,,,,,,,,,,,,,,,,,,,
,,,,,,,,2023-08-16_08h17.31.393,HF_wild_card,2022.2.4,Win32,59.64096141,5b6eba1aaf4af50001357228,64d2fd46c836a06233681665,64dc77f64af2a539f88b8b6d,,,,,,,sngl,resources/DG.BMP,resources/Empty.png,WildCard_NonEx,-0.32327903,-0.023686187,1,0,0,0.7974,optionLeft,45,12065,6,6,0,6,0,1,,,,,,,,,,,,,,,,,,,,,,,,,,,,,,,,,,,,,,,
,,,,,,,,2023-08-16_08h17.31.393,HF_wild_card,2022.2.4,Win32,59.64096141,5b6eba1aaf4af50001357228,64d2fd46c836a06233681665,64dc77f64af2a539f88b8b6d,,,,,,,ctch,resources/DY.BMP,resources/DB.BMP,Door3,-0.166913364,-0.001480379,1,0,0,1.1121,optionLeft,70,12135,6,7,0,7,0,1,,,,,,,,,,,,,,,,,,,,,,,,,,,,,,,,,,,,,,,
,,,,,,,,2023-08-16_08h17.31.393,HF_wild_card,2022.2.4,Win32,59.64096141,5b6eba1aaf4af50001357228,64d2fd46c836a06233681665,64dc77f64af2a539f88b8b6d,,,,,,,decisionTrl,resources/DBN.BMP,resources/DB.BMP,Door1,-0.299222798,0.000370085,1,0,0,1.08,optionLeft,30,12165,6,8,0,8,0,1,,,,,,,,,,,,,,,,,,,,,,,,,,,,,,,,,,,,,,,
,,,,,,,,2023-08-16_08h17.31.393,HF_wild_card,2022.2.4,Win32,59.64096141,5b6eba1aaf4af50001357228,64d2fd46c836a06233681665,64dc77f64af2a539f88b8b6d,,,,,,,decisionTrl,resources/DG.BMP,resources/DP.BMP,Door4,0.251295337,-0.019985219,1,0,0,1.4948,optionRight,60,12225,6,9,0,9,0,1,,,,,,,,,,,,,,,,,,,,,,,,,,,,,,,,,,,,,,,
,,,,,,,,2023-08-16_08h17.31.393,HF_wild_card,2022.2.4,Win32,59.64096141,5b6eba1aaf4af50001357228,64d2fd46c836a06233681665,64dc77f64af2a539f88b8b6d,,,,,,,sngl,resources/Empty.png,resources/DG.BMP,WildCard_NonEx,0.222612925,-0.036639555,1,0,0,0.8456,optionRight,55,12280,6,10,0,10,0,1,,,,,,,,,,,,,,,,,,,,,,,,,,,,,,,,,,,,,,,
,,,,,,,,2023-08-16_08h17.31.393,HF_wild_card,2022.2.4,Win32,59.64096141,5b6eba1aaf4af50001357228,64d2fd46c836a06233681665,64dc77f64af2a539f88b8b6d,,,,,,,decisionTrl,resources/DB.BMP,resources/DBN.BMP,Door1,0.257772021,-0.040340483,1,0,0,1.4299,optionRight,30,12310,6,11,0,11,0,1,,,,,,,,,,,,,,,,,,,,,,,,,,,,,,,,,,,,,,,
,,,,,,,,2023-08-16_08h17.31.393,HF_wild_card,2022.2.4,Win32,59.64096141,5b6eba1aaf4af50001357228,64d2fd46c836a06233681665,64dc77f64af2a539f88b8b6d,,,,,,,decisionTrl,resources/DY.BMP,resources/DP.BMP,Door4,0.221687673,-0.031088083,1,0,0,1.079,optionRight,80,12390,6,12,0,12,0,1,,,,,,,,,,,,,,,,,,,,,,,,,,,,,,,,,,,,,,,
,,,,,,,,2023-08-16_08h17.31.393,HF_wild_card,2022.2.4,Win32,59.64096141,5b6eba1aaf4af50001357228,64d2fd46c836a06233681665,64dc77f64af2a539f88b8b6d,,,,,,,decisionTrl,resources/DBN.BMP,resources/DB.BMP,Door1,-0.171539544,-0.026461903,1,0,0,1.3288,optionLeft,30,12420,6,13,0,13,0,1,,,,,,,,,,,,,,,,,,,,,,,,,,,,,,,,,,,,,,,
,,,,,,,,2023-08-16_08h17.31.393,HF_wild_card,2022.2.4,Win32,59.64096141,5b6eba1aaf4af50001357228,64d2fd46c836a06233681665,64dc77f64af2a539f88b8b6d,,,,,,,sngl,resources/Empty.png,resources/DP.BMP,Door4,0.244818653,-0.040340483,1,0,0,0.8614,optionRight,80,12500,6,14,0,14,0,1,,,,,,,,,,,,,,,,,,,,,,,,,,,,,,,,,,,,,,,
,,,,,,,,2023-08-16_08h17.31.393,HF_wild_card,2022.2.4,Win32,59.64096141,5b6eba1aaf4af50001357228,64d2fd46c836a06233681665,64dc77f64af2a539f88b8b6d,,,,,,,sngl,resources/DY.BMP,resources/Empty.png,Door3,-0.27239081,-0.045891954,1,0,0,0.8122,optionLeft,70,12570,6,15,0,15,0,1,,,,,,,,,,,,,,,,,,,,,,,,,,,,,,,,,,,,,,,
,,,,,,,,2023-08-16_08h17.31.393,HF_wild_card,2022.2.4,Win32,59.64096141,5b6eba1aaf4af50001357228,64d2fd46c836a06233681665,64dc77f64af2a539f88b8b6d,,,,,,,decisionTrl,resources/DG.BMP,resources/DY.BMP,Door3,0.148593646,-0.032938587,1,0,0,1.2289,optionRight,70,12640,6,16,0,16,0,1,,,,,,,,,,,,,,,,,,,,,,,,,,,,,,,,,,,,,,,
,,,,,,,,2023-08-16_08h17.31.393,HF_wild_card,2022.2.4,Win32,59.64096141,5b6eba1aaf4af50001357228,64d2fd46c836a06233681665,64dc77f64af2a539f88b8b6d,,,,,,,decisionTrl,resources/DB.BMP,resources/DBN.BMP,Door1,0.186528497,-0.044966703,1,0,0,1.7896,optionRight,30,12670,6,17,0,17,0,1,,,,,,,,,,,,,,,,,,,,,,,,,,,,,,,,,,,,,,,
,,,,,,,,2023-08-16_08h17.31.393,HF_wild_card,2022.2.4,Win32,59.64096141,5b6eba1aaf4af50001357228,64d2fd46c836a06233681665,64dc77f64af2a539f88b8b6d,,,,,,,decisionTrl,resources/DY.BMP,resources/DP.BMP,Door4,0.210584809,-0.051443387,1,0,0,1.0128,optionRight,60,12730,6,18,0,18,0,1,,,,,,,,,,,,,,,,,,,,,,,,,,,,,,,,,,,,,,,
,,,,,,,,2023-08-16_08h17.31.393,HF_wild_card,2022.2.4,Win32,59.64096141,5b6eba1aaf4af50001357228,64d2fd46c836a06233681665,64dc77f64af2a539f88b8b6d,,,,,,,decisionTrl,resources/DP.BMP,resources/DY.BMP,Door4,-0.138230951,-0.032013335,1,0,0,1.1796,optionLeft,60,12790,6,19,0,19,0,1,,,,,,,,,,,,,,,,,,,,,,,,,,,,,,,,,,,,,,,
,,,,,,,,2023-08-16_08h17.31.393,HF_wild_card,2022.2.4,Win32,59.64096141,5b6eba1aaf4af50001357228,64d2fd46c836a06233681665,64dc77f64af2a539f88b8b6d,,,,,,,ctch,resources/DP.BMP,resources/DBN.BMP,Door4,-0.264063623,-0.001480379,1,0,0,1.0461,optionLeft,60,12850,6,20,0,20,0,1,,,,,,,,,,,,,,,,,,,,,,,,,,,,,,,,,,,,,,,
,,,,,,,,2023-08-16_08h17.31.393,HF_wild_card,2022.2.4,Win32,59.64096141,5b6eba1aaf4af50001357228,64d2fd46c836a06233681665,64dc77f64af2a539f88b8b6d,,,,,,,decisionTrl,resources/DP.BMP,resources/DY.BMP,Door4,-0.259437442,-0.047742419,1,0,0,0.9944,optionLeft,80,12930,6,21,0,21,0,1,,,,,,,,,,,,,,,,,,,,,,,,,,,,,,,,,,,,,,,
,,,,,,,,2023-08-16_08h17.31.393,HF_wild_card,2022.2.4,Win32,59.64096141,5b6eba1aaf4af50001357228,64d2fd46c836a06233681665,64dc77f64af2a539f88b8b6d,,,,,,,sngl,resources/Empty.png,resources/DB.BMP,Door2,0.194855685,-0.027387115,1,0,0,0.8288,optionRight,40,12970,6,22,0,22,0,1,,,,,,,,,,,,,,,,,,,,,,,,,,,,,,,,,,,,,,,
,,,,,,,,2023-08-16_08h17.31.393,HF_wild_card,2022.2.4,Win32,59.64096141,5b6eba1aaf4af50001357228,64d2fd46c836a06233681665,64dc77f64af2a539f88b8b6d,,,,,,,decisionTrl,resources/DG.BMP,resources/DBN.BMP,WildCard_NonEx,-0.197446359,-0.032013335,1,0,0,1.5123,optionLeft,45,13015,6,23,0,23,0,1,,,,,,,,,,,,,,,,,,,,,,,,,,,,,,,,,,,,,,,
,,,,,,,,2023-08-16_08h17.31.393,HF_wild_card,2022.2.4,Win32,59.64096141,5b6eba1aaf4af50001357228,64d2fd46c836a06233681665,64dc77f64af2a539f88b8b6d,,,,,,,ctch,resources/DP.BMP,resources/DBN.BMP,Door4,-0.165988112,-0.036639555,1,0,0,1.0622,optionLeft,80,13095,6,24,0,24,0,1,,,,,,,,,,,,,,,,,,,,,,,,,,,,,,,,,,,,,,,
,,,,,,,,2023-08-16_08h17.31.393,HF_wild_card,2022.2.4,Win32,59.64096141,5b6eba1aaf4af50001357228,64d2fd46c836a06233681665,64dc77f64af2a539f88b8b6d,,,,,,,decisionTrl,resources/DBN.BMP,resources/DG.BMP,WildCard_NonEx,0.241117724,-0.015358999,1,0,0,1.2792,optionRight,55,13150,6,25,0,25,0,1,,,,,,,,,,,,,,,,,,,,,,,,,,,,,,,,,,,,,,,
,,,,,,,,2023-08-16_08h17.31.393,HF_wild_card,2022.2.4,Win32,59.64096141,5b6eba1aaf4af50001357228,64d2fd46c836a06233681665,64dc77f64af2a539f88b8b6d,,,,,,,sngl,resources/Empty.png,resources/DBN.BMP,Door1,0.151369401,-0.025536651,1,0,0,0.8128,optionRight,30,13180,6,26,0,26,0,1,,,,,,,,,,,,,,,,,,,,,,,,,,,,,,,,,,,,,,,
,,,,,,,,2023-08-16_08h17.31.393,HF_wild_card,2022.2.4,Win32,59.64096141,5b6eba1aaf4af50001357228,64d2fd46c836a06233681665,64dc77f64af2a539f88b8b6d,,,,,,,decisionTrl,resources/DY.BMP,resources/DG.BMP,Door3,-0.208549223,-0.014433747,1,0,0,1.2287,optionLeft,70,13250,6,27,0,27,0,1,,,,,,,,,,,,,,,,,,,,,,,,,,,,,,,,,,,,,,,
,,,,,,,,2023-08-16_08h17.31.393,HF_wild_card,2022.2.4,Win32,59.64096141,5b6eba1aaf4af50001357228,64d2fd46c836a06233681665,64dc77f64af2a539f88b8b6d,,,,,,,decisionTrl,resources/DY.BMP,resources/DP.BMP,Door4,0.218911917,-0.035714303,1,0,0,0.98,optionRight,80,13330,6,28,0,28,0,1,,,,,,,,,,,,,,,,,,,,,,,,,,,,,,,,,,,,,,,
,,,,,,,,2023-08-16_08h17.31.393,HF_wild_card,2022.2.4,Win32,59.64096141,5b6eba1aaf4af50001357228,64d2fd46c836a06233681665,64dc77f64af2a539f88b8b6d,,,,,,,decisionTrl,resources/DP.BMP,resources/DG.BMP,Door4,-0.25388601,-0.019985219,1,0,0,0.9627,optionLeft,60,13390,6,29,0,29,0,1,,,,,,,,,,,,,,,,,,,,,,,,,,,,,,,,,,,,,,,
,,,,,,,,2023-08-16_08h17.31.393,HF_wild_card,2022.2.4,Win32,59.64096141,5b6eba1aaf4af50001357228,64d2fd46c836a06233681665,64dc77f64af2a539f88b8b6d,,,,,,,ctch,resources/DBN.BMP,resources/DP.BMP,Door4,0.279977828,-0.042190987,1,0,0,0.9637,optionRight,80,13470,6,30,0,30,0,1,,,,,,,,,,,,,,,,,,,,,,,,,,,,,,,,,,,,,,,
,,,,,,,,2023-08-16_08h17.31.393,HF_wild_card,2022.2.4,Win32,59.64096141,5b6eba1aaf4af50001357228,64d2fd46c836a06233681665,64dc77f64af2a539f88b8b6d,,,,,,,sngl,resources/DB.BMP,resources/Empty.png,Door2,-0.192820099,-0.042190987,1,0,0,0.8122,optionLeft,20,13490,6,31,0,31,0,1,,,,,,,,,,,,,,,,,,,,,,,,,,,,,,,,,,,,,,,
,,,,,,,,2023-08-16_08h17.31.393,HF_wild_card,2022.2.4,Win32,59.64096141,5b6eba1aaf4af50001357228,64d2fd46c836a06233681665,64dc77f64af2a539f88b8b6d,,,,,,,sngl,resources/DG.BMP,resources/Empty.png,WildCard_NonEx,-0.166913364,-0.022760935,1,0,0,0.796,optionLeft,55,13545,6,32,0,32,0,1,,,,,,,,,,,,,,,,,,,,,,,,,,,,,,,,,,,,,,,
,,,,,,,,2023-08-16_08h17.31.393,HF_wild_card,2022.2.4,Win32,59.64096141,5b6eba1aaf4af50001357228,64d2fd46c836a06233681665,64dc77f64af2a539f88b8b6d,,,,,,,decisionTrl,resources/DY.BMP,resources/DP.BMP,Door4,0.239267221,-0.081976342,1,0,0,0.9292,optionRight,60,13605,6,33,0,33,0,1,,,,,,,,,,,,,,,,,,,,,,,,,,,,,,,,,,,,,,,
,,,,,,,,2023-08-16_08h17.31.393,HF_wild_card,2022.2.4,Win32,59.64096141,5b6eba1aaf4af50001357228,64d2fd46c836a06233681665,64dc77f64af2a539f88b8b6d,,,,,,,ctch,resources/DB.BMP,resources/DY.BMP,Door3,0.180977065,-0.040340483,1,0,0,1.2458,optionRight,70,13675,6,34,0,34,0,1,,,,,,,,,,,,,,,,,,,,,,,,,,,,,,,,,,,,,,,
,,,,,,,,2023-08-16_08h17.31.393,HF_wild_card,2022.2.4,Win32,59.64096141,5b6eba1aaf4af50001357228,64d2fd46c836a06233681665,64dc77f64af2a539f88b8b6d,,,,,,,decisionTrl,resources/DG.BMP,resources/DB.BMP,WildCard_NonEx,-0.151184319,-0.002405631,1,0,0,1.6443,optionLeft,55,13730,6,35,0,35,0,1,,,,,,,,,,,,,,,,,,,,,,,,,,,,,,,,,,,,,,,
,,,,,,,,2023-08-16_08h17.31.393,HF_wild_card,2022.2.4,Win32,59.64096141,5b6eba1aaf4af50001357228,64d2fd46c836a06233681665,64dc77f64af2a539f88b8b6d,,,,,,,ctch,resources/DBN.BMP,resources/DP.BMP,Door4,0.243893401,-0.07642487,1,0,0,1.1622,optionRight,80,13810,6,36,0,36,0,1,,,,,,,,,,,,,,,,,,,,,,,,,,,,,,,,,,,,,,,
,,,,,,,,2023-08-16_08h17.31.393,HF_wild_card,2022.2.4,Win32,59.64096141,5b6eba1aaf4af50001357228,64d2fd46c836a06233681665,64dc77f64af2a539f88b8b6d,,,,,,,decisionTrl,resources/DP.BMP,resources/DY.BMP,Door4,-0.250185042,-0.025536651,1,0,0,0.9962,optionLeft,60,13870,6,37,0,37,0,1,,,,,,,,,,,,,,,,,,,,,,,,,,,,,,,,,,,,,,,
,,,,,,,,2023-08-16_08h17.31.393,HF_wild_card,2022.2.4,Win32,59.64096141,5b6eba1aaf4af50001357228,64d2fd46c836a06233681665,64dc77f64af2a539f88b8b6d,,,,,,,decisionTrl,resources/DBN.BMP,resources/DB.BMP,Door1,-0.154885248,-0.027387115,1,0,0,1.3448,optionLeft,30,13900,6,38,0,38,0,1,,,,,,,,,,,,,,,,,,,,,,,,,,,,,,,,,,,,,,,
,,,,,,,,2023-08-16_08h17.31.393,HF_wild_card,2022.2.4,Win32,59.64096141,5b6eba1aaf4af50001357228,64d2fd46c836a06233681665,64dc77f64af2a539f88b8b6d,,,,,,,decisionTrl,resources/DB.BMP,resources/DBN.BMP,Door2,-0.138230951,-0.019059967,1,0,0,1.778,optionLeft,40,13940,6,39,0,39,0,1,,,,,,,,,,,,,,,,,,,,,,,,,,,,,,,,,,,,,,,
,,,,,,,,2023-08-16_08h17.31.393,HF_wild_card,2022.2.4,Win32,59.64096141,5b6eba1aaf4af50001357228,64d2fd46c836a06233681665,64dc77f64af2a539f88b8b6d,,,,,,,ctch,resources/DB.BMP,resources/DY.BMP,Door3,0.181902317,-0.007957063,1,0,0,1.1607,optionRight,70,14010,6,40,0,40,0,1,,,,,,,,,,,,,,,,,,,,,,,,,,,,,,,,,,,,,,,
,,,,,,,,2023-08-16_08h17.31.393,HF_wild_card,2022.2.4,Win32,59.64096141,5b6eba1aaf4af50001357228,64d2fd46c836a06233681665,64dc77f64af2a539f88b8b6d,,,,,,,sngl,resources/Empty.png,resources/DY.BMP,Door3,0.170799453,-0.06717247,1,0,0,0.7952,optionRight,70,14080,6,41,0,41,0,1,,,,,,,,,,,,,,,,,,,,,,,,,,,,,,,,,,,,,,,
,,,,,,,,2023-08-16_08h17.31.393,HF_wild_card,2022.2.4,Win32,59.64096141,5b6eba1aaf4af50001357228,64d2fd46c836a06233681665,64dc77f64af2a539f88b8b6d,,,,,,,sngl,resources/DBN.BMP,resources/Empty.png,Door1,-0.171539544,-0.023686187,1,0,0,0.8078,optionLeft,30,14110,6,42,0,42,0,1,,,,,,,,,,,,,,,,,,,,,,,,,,,,,,,,,,,,,,,
,,,,,,,,2023-08-16_08h17.31.393,HF_wild_card,2022.2.4,Win32,59.64096141,5b6eba1aaf4af50001357228,64d2fd46c836a06233681665,64dc77f64af2a539f88b8b6d,,,,,,,decisionTrl,resources/DB.BMP,resources/DBN.BMP,Door1,0.204108125,-0.037564767,1,0,0,2.2278,optionRight,30,14140,6,43,0,43,0,1,,,,,,,,,,,,,,,,,,,,,,,,,,,,,,,,,,,,,,,
,,,,,,,,2023-08-16_08h17.31.393,HF_wild_card,2022.2.4,Win32,59.64096141,5b6eba1aaf4af50001357228,64d2fd46c836a06233681665,64dc77f64af2a539f88b8b6d,,,,,,,,,,,,,,,,,,,,,,,,,,5,0,5,0,1,,,,,,,,,,,,,,,,,,,,,,,,,,,,,,,,,,
,,,,,,,,2023-08-16_08h17.31.393,HF_wild_card,2022.2.4,Win32,59.64096141,5b6eba1aaf4af50001357228,64d2fd46c836a06233681665,64dc77f64af2a539f88b8b6d,,,,,,,decisionTrl,resources/DY.BMP,resources/DP.BMP,Door4,0.191154757,-0.026461903,1,0,0,1.3209,optionRight,80,14220,7,0,0,0,0,1,,,,,,,,,,,,,,,,,,,,,,,,,,,,,,,,,,,,,,,
,,,,,,,,2023-08-16_08h17.31.393,HF_wild_card,2022.2.4,Win32,59.64096141,5b6eba1aaf4af50001357228,64d2fd46c836a06233681665,64dc77f64af2a539f88b8b6d,,,,,,,decisionTrl,resources/DP.BMP,resources/DY.BMP,Door4,-0.195595855,-0.019985219,1,0,0,0.9975,optionLeft,80,14300,7,1,0,1,0,1,,,,,,,,,,,,,,,,,,,,,,,,,,,,,,,,,,,,,,,
,,,,,,,,2023-08-16_08h17.31.393,HF_wild_card,2022.2.4,Win32,59.64096141,5b6eba1aaf4af50001357228,64d2fd46c836a06233681665,64dc77f64af2a539f88b8b6d,,,,,,,ctch,resources/DBN.BMP,resources/DP.BMP,Door4,0.163397517,-0.009807567,1,0,0,1.1299,optionRight,60,14360,7,2,0,2,0,1,,,,,,,,,,,,,,,,,,,,,,,,,,,,,,,,,,,,,,,
,,,,,,,,2023-08-16_08h17.31.393,HF_wild_card,2022.2.4,Win32,59.64096141,5b6eba1aaf4af50001357228,64d2fd46c836a06233681665,64dc77f64af2a539f88b8b6d,,,,,,,decisionTrl,resources/DB.BMP,resources/DBN.BMP,Door1,0.14119171,-0.020910431,1,0,0,1.6799,optionRight,30,14390,7,3,0,3,0,1,,,,,,,,,,,,,,,,,,,,,,,,,,,,,,,,,,,,,,,
,,,,,,,,2023-08-16_08h17.31.393,HF_wild_card,2022.2.4,Win32,59.64096141,5b6eba1aaf4af50001357228,64d2fd46c836a06233681665,64dc77f64af2a539f88b8b6d,,,,,,,decisionTrl,resources/DBN.BMP,resources/DB.BMP,Door1,-0.159511428,-0.032938587,1,0,0,1.4464,optionLeft,30,14420,7,4,0,4,0,1,,,,,,,,,,,,,,,,,,,,,,,,,,,,,,,,,,,,,,,
,,,,,,,,2023-08-16_08h17.31.393,HF_wild_card,2022.2.4,Win32,59.64096141,5b6eba1aaf4af50001357228,64d2fd46c836a06233681665,64dc77f64af2a539f88b8b6d,,,,,,,decisionTrl,resources/DY.BMP,resources/DP.BMP,Door4,0.180051813,-0.019985219,1,0,0,1.0131,optionRight,60,14480,7,5,0,5,0,1,,,,,,,,,,,,,,,,,,,,,,,,,,,,,,,,,,,,,,,
,,,,,,,,2023-08-16_08h17.31.393,HF_wild_card,2022.2.4,Win32,59.64096141,5b6eba1aaf4af50001357228,64d2fd46c836a06233681665,64dc77f64af2a539f88b8b6d,,,,,,,decisionTrl,resources/DY.BMP,resources/DP.BMP,Door4,0.189304253,-0.033863799,1,0,0,0.9543,optionRight,80,14560,7,6,0,6,0,1,,,,,,,,,,,,,,,,,,,,,,,,,,,,,,,,,,,,,,,
,,,,,,,,2023-08-16_08h17.31.393,HF_wild_card,2022.2.4,Win32,59.64096141,5b6eba1aaf4af50001357228,64d2fd46c836a06233681665,64dc77f64af2a539f88b8b6d,,,,,,,decisionTrl,resources/DBN.BMP,resources/DB.BMP,Door1,-0.187268667,-0.013508535,1,0,0,1.4203,optionLeft,30,14590,7,7,0,7,0,1,,,,,,,,,,,,,,,,,,,,,,,,,,,,,,,,,,,,,,,
,,,,,,,,2023-08-16_08h17.31.393,HF_wild_card,2022.2.4,Win32,59.64096141,5b6eba1aaf4af50001357228,64d2fd46c836a06233681665,64dc77f64af2a539f88b8b6d,,,,,,,decisionTrl,resources/DBN.BMP,resources/DB.BMP,Door1,-0.267764591,-0.049592922,1,0,0,0.9308,optionLeft,30,14620,7,8,0,8,0,1,,,,,,,,,,,,,,,,,,,,,,,,,,,,,,,,,,,,,,,
,,,,,,,,2023-08-16_08h17.31.393,HF_wild_card,2022.2.4,Win32,59.64096141,5b6eba1aaf4af50001357228,64d2fd46c836a06233681665,64dc77f64af2a539f88b8b6d,,,,,,,decisionTrl,resources/DY.BMP,resources/DP.BMP,Door4,0.236491544,-0.022760935,1,0,0,0.9632,optionRight,60,14680,7,9,0,9,0,1,,,,,,,,,,,,,,,,,,,,,,,,,,,,,,,,,,,,,,,
,,,,,,,,2023-08-16_08h17.31.393,HF_wild_card,2022.2.4,Win32,59.64096141,5b6eba1aaf4af50001357228,64d2fd46c836a06233681665,64dc77f64af2a539f88b8b6d,,,,,,,decisionTrl,resources/DP.BMP,resources/DY.BMP,Door4,-0.214100655,-0.037564767,1,0,0,0.9971,optionLeft,80,14760,7,10,0,10,0,1,,,,,,,,,,,,,,,,,,,,,,,,,,,,,,,,,,,,,,,
,,,,,,,,2023-08-16_08h17.31.393,HF_wild_card,2022.2.4,Win32,59.64096141,5b6eba1aaf4af50001357228,64d2fd46c836a06233681665,64dc77f64af2a539f88b8b6d,,,,,,,decisionTrl,resources/DY.BMP,resources/DP.BMP,Door4,0.165248021,-0.030162871,1,0,0,0.9304,optionRight,80,14840,7,11,0,11,0,1,,,,,,,,,,,,,,,,,,,,,,,,,,,,,,,,,,,,,,,
,,,,,,,,2023-08-16_08h17.31.393,HF_wild_card,2022.2.4,Win32,59.64096141,5b6eba1aaf4af50001357228,64d2fd46c836a06233681665,64dc77f64af2a539f88b8b6d,,,,,,,decisionTrl,resources/DB.BMP,resources/DBN.BMP,Door1,0.204108125,-0.019059967,1,0,0,1.2466,optionRight,30,14870,7,12,0,12,0,1,,,,,,,,,,,,,,,,,,,,,,,,,,,,,,,,,,,,,,,
,,,,,,,,2023-08-16_08h17.31.393,HF_wild_card,2022.2.4,Win32,59.64096141,5b6eba1aaf4af50001357228,64d2fd46c836a06233681665,64dc77f64af2a539f88b8b6d,,,,,,,ctch,resources/DY.BMP,resources/DB.BMP,Door3,-0.178016307,-0.039415271,1,0,0,1.2131,optionLeft,70,14940,7,13,0,13,0,1,,,,,,,,,,,,,,,,,,,,,,,,,,,,,,,,,,,,,,,
,,,,,,,,2023-08-16_08h17.31.393,HF_wild_card,2022.2.4,Win32,59.64096141,5b6eba1aaf4af50001357228,64d2fd46c836a06233681665,64dc77f64af2a539f88b8b6d,,,,,,,ctch,resources/DP.BMP,resources/DBN.BMP,Door4,-0.17894148,-0.072723903,1,0,0,1.4457,optionLeft,60,15000,7,14,0,14,0,1,,,,,,,,,,,,,,,,,,,,,,,,,,,,,,,,,,,,,,,
,,,,,,,,2023-08-16_08h17.31.393,HF_wild_card,2022.2.4,Win32,59.64096141,5b6eba1aaf4af50001357228,64d2fd46c836a06233681665,64dc77f64af2a539f88b8b6d,,,,,,,ctch,resources/DP.BMP,resources/DBN.BMP,Door4,-0.250185042,-0.047742419,1,0,0,0.9651,optionLeft,60,15060,7,15,0,15,0,1,,,,,,,,,,,,,,,,,,,,,,,,,,,,,,,,,,,,,,,
,,,,,,,,2023-08-16_08h17.31.393,HF_wild_card,2022.2.4,Win32,59.64096141,5b6eba1aaf4af50001357228,64d2fd46c836a06233681665,64dc77f64af2a539f88b8b6d,,,,,,,decisionTrl,resources/DY.BMP,resources/DP.BMP,Door4,0.232790537,0.017024421,1,0,0,1.0308,optionRight,80,15140,7,16,0,16,0,1,,,,,,,,,,,,,,,,,,,,,,,,,,,,,,,,,,,,,,,
,,,,,,,,2023-08-16_08h17.31.393,HF_wild_card,2022.2.4,Win32,59.64096141,5b6eba1aaf4af50001357228,64d2fd46c836a06233681665,64dc77f64af2a539f88b8b6d,,,,,,,decisionTrl,resources/DP.BMP,resources/DY.BMP,Door4,-0.186343415,-0.009807567,1,0,0,0.9643,optionLeft,60,15200,7,17,0,17,0,1,,,,,,,,,,,,,,,,,,,,,,,,,,,,,,,,,,,,,,,
,,,,,,,,2023-08-16_08h17.31.393,HF_wild_card,2022.2.4,Win32,59.64096141,5b6eba1aaf4af50001357228,64d2fd46c836a06233681665,64dc77f64af2a539f88b8b6d,,,,,,,ctch,resources/DP.BMP,resources/DBN.BMP,Door4,-0.162287183,-0.003330883,1,0,0,0.9968,optionLeft,60,15260,7,18,0,18,0,1,,,,,,,,,,,,,,,,,,,,,,,,,,,,,,,,,,,,,,,
,,,,,,,,2023-08-16_08h17.31.393,HF_wild_card,2022.2.4,Win32,59.64096141,5b6eba1aaf4af50001357228,64d2fd46c836a06233681665,64dc77f64af2a539f88b8b6d,,,,,,,ctch,resources/DY.BMP,resources/DB.BMP,Door3,-0.208549223,-0.002405631,1,0,0,1.2973,optionLeft,70,15330,7,19,0,19,0,1,,,,,,,,,,,,,,,,,,,,,,,,,,,,,,,,,,,,,,,
,,,,,,,,2023-08-16_08h17.31.393,HF_wild_card,2022.2.4,Win32,59.64096141,5b6eba1aaf4af50001357228,64d2fd46c836a06233681665,64dc77f64af2a539f88b8b6d,,,,,,,ctch,resources/DB.BMP,resources/DY.BMP,Door3,0.193005181,-0.035714303,1,0,0,1.0472,optionRight,70,15400,7,20,0,20,0,1,,,,,,,,,,,,,,,,,,,,,,,,,,,,,,,,,,,,,,,
,,,,,,,,2023-08-16_08h17.31.393,HF_wild_card,2022.2.4,Win32,59.64096141,5b6eba1aaf4af50001357228,64d2fd46c836a06233681665,64dc77f64af2a539f88b8b6d,,,,,,,ctch,resources/DBN.BMP,resources/DP.BMP,Door4,0.176350885,-0.025536651,1,0,0,1.1971,optionRight,60,15460,7,21,0,21,0,1,,,,,,,,,,,,,,,,,,,,,,,,,,,,,,,,,,,,,,,
,,,,,,,,2023-08-16_08h17.31.393,HF_wild_card,2022.2.4,Win32,59.64096141,5b6eba1aaf4af50001357228,64d2fd46c836a06233681665,64dc77f64af2a539f88b8b6d,,,,,,,ctch,resources/DB.BMP,resources/DY.BMP,Door3,0.214285737,-0.040340483,1,0,0,1.0474,optionRight,70,15530,7,22,0,22,0,1,,,,,,,,,,,,,,,,,,,,,,,,,,,,,,,,,,,,,,,
,,,,,,,,2023-08-16_08h17.31.393,HF_wild_card,2022.2.4,Win32,59.64096141,5b6eba1aaf4af50001357228,64d2fd46c836a06233681665,64dc77f64af2a539f88b8b6d,,,,,,,decisionTrl,resources/DP.BMP,resources/DY.BMP,Door4,-0.169689119,-0.027387115,1,0,0,1.646,optionLeft,60,15590,7,23,0,23,0,1,,,,,,,,,,,,,,,,,,,,,,,,,,,,,,,,,,,,,,,
,,,,,,,,2023-08-16_08h17.31.393,HF_wild_card,2022.2.4,Win32,59.64096141,5b6eba1aaf4af50001357228,64d2fd46c836a06233681665,64dc77f64af2a539f88b8b6d,,,,,,,decisionTrl,resources/DP.BMP,resources/DY.BMP,Door4,-0.188193919,-0.066247219,1,0,0,0.8973,optionLeft,60,15650,7,24,0,24,0,1,,,,,,,,,,,,,,,,,,,,,,,,,,,,,,,,,,,,,,,
,,,,,,,,2023-08-16_08h17.31.393,HF_wild_card,2022.2.4,Win32,59.64096141,5b6eba1aaf4af50001357228,64d2fd46c836a06233681665,64dc77f64af2a539f88b8b6d,,,,,,,decisionTrl,resources/DP.BMP,resources/DY.BMP,Door4,-0.141006628,-0.019985219,1,0,0,0.8143,optionLeft,60,15710,7,25,0,25,0,1,,,,,,,,,,,,,,,,,,,,,,,,,,,,,,,,,,,,,,,
,,,,,,,,2023-08-16_08h17.31.393,HF_wild_card,2022.2.4,Win32,59.64096141,5b6eba1aaf4af50001357228,64d2fd46c836a06233681665,64dc77f64af2a539f88b8b6d,,,,,,,decisionTrl,resources/DBN.BMP,resources/DB.BMP,Door1,-0.135455196,-0.013508535,1,0,0,1.3801,optionLeft,30,15740,7,26,0,26,0,1,,,,,,,,,,,,,,,,,,,,,,,,,,,,,,,,,,,,,,,
,,,,,,,,2023-08-16_08h17.31.393,HF_wild_card,2022.2.4,Win32,59.64096141,5b6eba1aaf4af50001357228,64d2fd46c836a06233681665,64dc77f64af2a539f88b8b6d,,,,,,,decisionTrl,resources/DB.BMP,resources/DBN.BMP,Door1,0.150444149,-0.013508535,1,0,0,1.097,optionRight,30,15770,7,27,0,27,0,1,,,,,,,,,,,,,,,,,,,,,,,,,,,,,,,,,,,,,,,
,,,,,,,,2023-08-16_08h17.31.393,HF_wild_card,2022.2.4,Win32,59.64096141,5b6eba1aaf4af50001357228,64d2fd46c836a06233681665,64dc77f64af2a539f88b8b6d,,,,,,,decisionTrl,resources/DB.BMP,resources/DBN.BMP,Door1,0.14119171,-0.024611399,1,0,0,0.8645,optionRight,30,15800,7,28,0,28,0,1,,,,,,,,,,,,,,,,,,,,,,,,,,,,,,,,,,,,,,,
,,,,,,,,2023-08-16_08h17.31.393,HF_wild_card,2022.2.4,Win32,59.64096141,5b6eba1aaf4af50001357228,64d2fd46c836a06233681665,64dc77f64af2a539f88b8b6d,,,,,,,decisionTrl,resources/DB.BMP,resources/DBN.BMP,Door1,0.155995581,-0.036639555,1,0,0,0.8311,optionRight,30,15830,7,29,0,29,0,1,,,,,,,,,,,,,,,,,,,,,,,,,,,,,,,,,,,,,,,
,,,,,,,,2023-08-16_08h17.31.393,HF_wild_card,2022.2.4,Win32,59.64096141,5b6eba1aaf4af50001357228,64d2fd46c836a06233681665,64dc77f64af2a539f88b8b6d,,,,,,,decisionTrl,resources/DBN.BMP,resources/DB.BMP,Door1,-0.100296021,-0.013508535,1,0,0,1.3133,optionLeft,30,15860,7,30,0,30,0,1,,,,,,,,,,,,,,,,,,,,,,,,,,,,,,,,,,,,,,,
,,,,,,,,2023-08-16_08h17.31.393,HF_wild_card,2022.2.4,Win32,59.64096141,5b6eba1aaf4af50001357228,64d2fd46c836a06233681665,64dc77f64af2a539f88b8b6d,,,,,,,ctch,resources/DBN.BMP,resources/DP.BMP,Door4,0.189304253,-0.049592922,1,0,0,1.2307,optionRight,60,15920,7,31,0,31,0,1,,,,,,,,,,,,,,,,,,,,,,,,,,,,,,,,,,,,,,,
,,,,,,,,2023-08-16_08h17.31.393,HF_wild_card,2022.2.4,Win32,59.64096141,5b6eba1aaf4af50001357228,64d2fd46c836a06233681665,64dc77f64af2a539f88b8b6d,,,,,,,decisionTrl,resources/DBN.BMP,resources/DB.BMP,Door1,-0.138230951,-0.007031851,1,0,0,1.2136,optionLeft,30,15950,7,32,0,32,0,1,,,,,,,,,,,,,,,,,,,,,,,,,,,,,,,,,,,,,,,
,,,,,,,,2023-08-16_08h17.31.393,HF_wild_card,2022.2.4,Win32,59.64096141,5b6eba1aaf4af50001357228,64d2fd46c836a06233681665,64dc77f64af2a539f88b8b6d,,,,,,,decisionTrl,resources/DB.BMP,resources/DBN.BMP,Door1,0.220762421,-0.06254629,1,0,0,0.9801,optionRight,30,15980,7,33,0,33,0,1,,,,,,,,,,,,,,,,,,,,,,,,,,,,,,,,,,,,,,,
,,,,,,,,2023-08-16_08h17.31.393,HF_wild_card,2022.2.4,Win32,59.64096141,5b6eba1aaf4af50001357228,64d2fd46c836a06233681665,64dc77f64af2a539f88b8b6d,,,,,,,ctch,resources/DY.BMP,resources/DB.BMP,Door3,-0.153034744,0.011472989,1,0,0,1.2967,optionLeft,70,16050,7,34,0,34,0,1,,,,,,,,,,,,,,,,,,,,,,,,,,,,,,,,,,,,,,,
,,,,,,,,2023-08-16_08h17.31.393,HF_wild_card,2022.2.4,Win32,59.64096141,5b6eba1aaf4af50001357228,64d2fd46c836a06233681665,64dc77f64af2a539f88b8b6d,,,,,,,ctch,resources/DB.BMP,resources/DY.BMP,Door3,0.211509981,-0.011658031,1,0,0,0.9473,optionRight,70,16120,7,35,0,35,0,1,,,,,,,,,,,,,,,,,,,,,,,,,,,,,,,,,,,,,,,
,,,,,,,,2023-08-16_08h17.31.393,HF_wild_card,2022.2.4,Win32,59.64096141,5b6eba1aaf4af50001357228,64d2fd46c836a06233681665,64dc77f64af2a539f88b8b6d,,,,,,,,,,,,,,,,,,,,,,,,,,6,0,6,0,1,,,,,,,,,,,,,,,,,,,,,,,,,,,,,,,,,,
,,,,,,,,2023-08-16_08h17.31.393,HF_wild_card,2022.2.4,Win32,59.64096141,5b6eba1aaf4af50001357228,64d2fd46c836a06233681665,64dc77f64af2a539f88b8b6d,,,,,,,,,,,,,,,,,,,,,,,,,,,,,,,4,,,,,,,,,,,,,,,,,,,,,,,,,,,,,,,,,
,,,,,,,,2023-08-16_08h17.31.393,HF_wild_card,2022.2.4,Win32,59.64096141,5b6eba1aaf4af50001357228,64d2fd46c836a06233681665,64dc77f64af2a539f88b8b6d,,,,,,,,,,,,,,,,,,,,,,,,,,,,,,,,,,,,,,,,,,,,,,,,,,,,,,,,,,,,,,,,
,,,,,,,,2023-08-16_08h17.31.393,HF_wild_card,2022.2.4,Win32,59.64096141,5b6eba1aaf4af50001357228,64d2fd46c836a06233681665,64dc77f64af2a539f88b8b6d,,,,,,,,,,,,,,,,,,,,,,,,,,,,,,,,5,WC_extreme,resources/DR.BMP,0,0,0,0,1,,,,,,,,,,,,,,,,,,,,,,,,,
,,,,,,,,2023-08-16_08h17.31.393,HF_wild_card,2022.2.4,Win32,59.64096141,5b6eba1aaf4af50001357228,64d2fd46c836a06233681665,64dc77f64af2a539f88b8b6d,,,,,,,,,,,,,,,,,,,,,,,,,,,,,,,,20,Door2,resources/DB.BMP,1,0,1,0,1,,,,,,,,,,,,,,,,,,,,,,,,,
,,,,,,,,2023-08-16_08h17.31.393,HF_wild_card,2022.2.4,Win32,59.64096141,5b6eba1aaf4af50001357228,64d2fd46c836a06233681665,64dc77f64af2a539f88b8b6d,,,,,,,,,,,,,,,,,,,,,,,,,,,,,,,,80,Door4,resources/DP.BMP,2,0,2,0,1,,,,,,,,,,,,,,,,,,,,,,,,,
,,,,,,,,2023-08-16_08h17.31.393,HF_wild_card,2022.2.4,Win32,59.64096141,5b6eba1aaf4af50001357228,64d2fd46c836a06233681665,64dc77f64af2a539f88b8b6d,,,,,,,,,,,,,,,,,,,,,,,,,,,,,,,,70,Door3,resources/DY.BMP,3,0,3,0,1,,,,,,,,,,,,,,,,,,,,,,,,,
,,,,,,,,2023-08-16_08h17.31.393,HF_wild_card,2022.2.4,Win32,59.64096141,5b6eba1aaf4af50001357228,64d2fd46c836a06233681665,64dc77f64af2a539f88b8b6d,,,,,,,,,,,,,,,,,,,,,,,,,,,,,,,,30,Door1,resources/DBN.BMP,4,0,4,0,1,,,,,,,,,,,,,,,,,,,,,,,,,
,,,,,,,,2023-08-16_08h17.31.393,HF_wild_card,2022.2.4,Win32,59.64096141,5b6eba1aaf4af50001357228,64d2fd46c836a06233681665,64dc77f64af2a539f88b8b6d,,,,,,,,,,,,,,,,,,,,,,,,,,,,,,,,55,WC_nonExtreme,resources/DG.BMP,5,0,5,0,1,,,,,,,,,,,,,,,,,,,,,,,,,
,,,,,,,,2023-08-16_08h17.31.393,HF_wild_card,2022.2.4,Win32,59.64096141,5b6eba1aaf4af50001357228,64d2fd46c836a06233681665,64dc77f64af2a539f88b8b6d,,,,,,,,,,,,,,,,,,,,,,,,,,,,,,,,,,,,,,,,,,,,,,,,,,,,,,,,,,,,,,,,
