Condition,Low fixed image (Door1),Low risky image (Door2),High fixed image (Door3),High risky image (Door4),Extreme Wild Card,NonExtreme Wild Card,,date,expName,psychopyVersion,OS,frameRate,PROLIFIC_PID,STUDY_ID,SESSION_ID,mouse_2.x,mouse_2.y,mouse_2.leftButton,mouse_2.midButton,mouse_2.rightButton,mouse_2.clicked_name,Trial Type,Left Option Image,Right Option Image,Chosen Door,mouse.x,mouse.y,mouse.leftButton,mouse.midButton,mouse.rightButton,mouse.time,mouse.clicked_name,Feedback,Cumulative Reward,Block,trial.thisRepN,trial.thisTrialN,trial.thisN,trial.thisIndex,trial.ran,blocks.thisRepN,blocks.thisTrialN,blocks.thisN,blocks.thisIndex,blocks.ran,Money conversion,First Outcome Reported,Shown Door (First Outcome),Displayed Image (First Outcome),outcomes.thisRepN,outcomes.thisTrialN,outcomes.thisN,outcomes.thisIndex,outcomes.ran,judgments.thisRepN,judgments.thisTrialN,judgments.thisN,judgments.thisIndex,judgments.ran,freqMouse.x,freqMouse.y,freqMouse.leftButton,freqMouse.midButton,freqMouse.rightButton,freqMouse.clicked_name,FQJ for first outcome,FQJ for second outcome,Shown Door,Displayed Image,trials.thisRepN,trials.thisTrialN,trials.thisN,trials.thisIndex,trials.ran,judgBlock.thisRepN,judgBlock.thisTrialN,judgBlock.thisN,judgBlock.thisIndex,judgBlock.ran
1,resources/DP.BMP,resources/DG.BMP,resources/DY.BMP,resources/DBN.BMP,resources/DR.BMP,resources/DB.BMP,,2023-08-06_08h17.11.301,HF_wild_card,2022.2.4,Win32,20,613e495d5991ed54f860fe9d,64ce5acb97489d65b14ecc7a,64cf48e13ccc184204e6f744,,,,,,,,,,,,,,,,,,,,,,,,,,,,,,,,,,,,,,,,,,,,,,,,,,,,,,,,,,,,,,,,
,,,,,,,,2023-08-06_08h17.11.301,HF_wild_card,2022.2.4,Win32,20,613e495d5991ed54f860fe9d,64ce5acb97489d65b14ecc7a,64cf48e13ccc184204e6f744,0.015,-0.425,1,0,0,agree,,,,,,,,,,,,,,,,,,,,,,,,,,,,,,,,,,,,,,,,,,,,,,,,,,,,,,,,,,
,,,,,,,,2023-08-06_08h17.11.301,HF_wild_card,2022.2.4,Win32,20,613e495d5991ed54f860fe9d,64ce5acb97489d65b14ecc7a,64cf48e13ccc184204e6f744,,,,,,,,,,,,,,,,,,,,,,,,,,,,,,,,,,,,,,,,,,,,,,,,,,,,,,,,,,,,,,,,
,,,,,,,,2023-08-06_08h17.11.301,HF_wild_card,2022.2.4,Win32,20,613e495d5991ed54f860fe9d,64ce5acb97489d65b14ecc7a,64cf48e13ccc184204e6f744,,,,,,,decisionTrl,resources/DP.BMP,resources/DG.BMP,Door1,-0.29125,-0.09375,1,0,0,6.559,optionLeft,30,30,1,0,0,0,0,1,,,,,,,,,,,,,,,,,,,,,,,,,,,,,,,,,,,,,,,
,,,,,,,,2023-08-06_08h17.11.301,HF_wild_card,2022.2.4,Win32,20,613e495d5991ed54f860fe9d,64ce5acb97489d65b14ecc7a,64cf48e13ccc184204e6f744,,,,,,,decisionTrl,resources/DBN.BMP,resources/DY.BMP,Door4,-0.255,-0.07125,1,0,0,4.492,optionLeft,80,110,1,1,0,1,0,1,,,,,,,,,,,,,,,,,,,,,,,,,,,,,,,,,,,,,,,
,,,,,,,,2023-08-06_08h17.11.301,HF_wild_card,2022.2.4,Win32,20,613e495d5991ed54f860fe9d,64ce5acb97489d65b14ecc7a,64cf48e13ccc184204e6f744,,,,,,,sngl,resources/DBN.BMP,resources/Empty.png,Door4,-0.3825,-0.02875,1,0,0,1.065,optionLeft,80,190,1,2,0,2,0,1,,,,,,,,,,,,,,,,,,,,,,,,,,,,,,,,,,,,,,,
,,,,,,,,2023-08-06_08h17.11.301,HF_wild_card,2022.2.4,Win32,20,613e495d5991ed54f860fe9d,64ce5acb97489d65b14ecc7a,64cf48e13ccc184204e6f744,,,,,,,sngl,resources/Empty.png,resources/DB.BMP,WildCard_NonEx,0.45,0.01625,1,0,0,1.071,optionRight,55,245,1,3,0,3,0,1,,,,,,,,,,,,,,,,,,,,,,,,,,,,,,,,,,,,,,,
,,,,,,,,2023-08-06_08h17.11.301,HF_wild_card,2022.2.4,Win32,20,613e495d5991ed54f860fe9d,64ce5acb97489d65b14ecc7a,64cf48e13ccc184204e6f744,,,,,,,sngl,resources/Empty.png,resources/DY.BMP,Door3,0.21375,0.01625,1,0,0,0.971,optionRight,70,315,1,4,0,4,0,1,,,,,,,,,,,,,,,,,,,,,,,,,,,,,,,,,,,,,,,
,,,,,,,,2023-08-06_08h17.11.301,HF_wild_card,2022.2.4,Win32,20,613e495d5991ed54f860fe9d,64ce5acb97489d65b14ecc7a,64cf48e13ccc184204e6f744,,,,,,,sngl,resources/DB.BMP,resources/Empty.png,WildCard_NonEx,-0.21625,-0.03375,1,0,0,0.884,optionLeft,55,370,1,5,0,5,0,1,,,,,,,,,,,,,,,,,,,,,,,,,,,,,,,,,,,,,,,
,,,,,,,,2023-08-06_08h17.11.301,HF_wild_card,2022.2.4,Win32,20,613e495d5991ed54f860fe9d,64ce5acb97489d65b14ecc7a,64cf48e13ccc184204e6f744,,,,,,,sngl,resources/DP.BMP,resources/Empty.png,Door1,-0.27,-0.02875,1,0,0,2.208,optionLeft,30,400,1,6,0,6,0,1,,,,,,,,,,,,,,,,,,,,,,,,,,,,,,,,,,,,,,,
,,,,,,,,2023-08-06_08h17.11.301,HF_wild_card,2022.2.4,Win32,20,613e495d5991ed54f860fe9d,64ce5acb97489d65b14ecc7a,64cf48e13ccc184204e6f744,,,,,,,decisionTrl,resources/DG.BMP,resources/DB.BMP,Door2,-0.29625,-0.02375,1,0,0,7.622,optionLeft,20,420,1,7,0,7,0,1,,,,,,,,,,,,,,,,,,,,,,,,,,,,,,,,,,,,,,,
,,,,,,,,2023-08-06_08h17.11.301,HF_wild_card,2022.2.4,Win32,20,613e495d5991ed54f860fe9d,64ce5acb97489d65b14ecc7a,64cf48e13ccc184204e6f744,,,,,,,decisionTrl,resources/DG.BMP,resources/DP.BMP,Door1,0.20625,0.01,1,0,0,2.529,optionRight,30,450,1,8,0,8,0,1,,,,,,,,,,,,,,,,,,,,,,,,,,,,,,,,,,,,,,,
,,,,,,,,2023-08-06_08h17.11.301,HF_wild_card,2022.2.4,Win32,20,613e495d5991ed54f860fe9d,64ce5acb97489d65b14ecc7a,64cf48e13ccc184204e6f744,,,,,,,decisionTrl,resources/DP.BMP,resources/DG.BMP,Door1,-0.22875,-0.01875,1,0,0,1.61,optionLeft,30,480,1,9,0,9,0,1,,,,,,,,,,,,,,,,,,,,,,,,,,,,,,,,,,,,,,,
,,,,,,,,2023-08-06_08h17.11.301,HF_wild_card,2022.2.4,Win32,20,613e495d5991ed54f860fe9d,64ce5acb97489d65b14ecc7a,64cf48e13ccc184204e6f744,,,,,,,ctch,resources/DY.BMP,resources/DG.BMP,Door3,-0.1875,-0.0225,1,0,0,1.421,optionLeft,70,550,1,10,0,10,0,1,,,,,,,,,,,,,,,,,,,,,,,,,,,,,,,,,,,,,,,
,,,,,,,,2023-08-06_08h17.11.301,HF_wild_card,2022.2.4,Win32,20,613e495d5991ed54f860fe9d,64ce5acb97489d65b14ecc7a,64cf48e13ccc184204e6f744,,,,,,,decisionTrl,resources/DY.BMP,resources/DBN.BMP,Door4,0.35875,-0.01125,1,0,0,1.122,optionRight,80,630,1,11,0,11,0,1,,,,,,,,,,,,,,,,,,,,,,,,,,,,,,,,,,,,,,,
,,,,,,,,2023-08-06_08h17.11.301,HF_wild_card,2022.2.4,Win32,20,613e495d5991ed54f860fe9d,64ce5acb97489d65b14ecc7a,64cf48e13ccc184204e6f744,,,,,,,decisionTrl,resources/DG.BMP,resources/DP.BMP,Door1,0.2375,-0.00375,1,0,0,2.711,optionRight,30,660,1,12,0,12,0,1,,,,,,,,,,,,,,,,,,,,,,,,,,,,,,,,,,,,,,,
,,,,,,,,2023-08-06_08h17.11.301,HF_wild_card,2022.2.4,Win32,20,613e495d5991ed54f860fe9d,64ce5acb97489d65b14ecc7a,64cf48e13ccc184204e6f744,,,,,,,ctch,resources/DG.BMP,resources/DY.BMP,Door3,0.20625,0.01125,1,0,0,1.365,optionRight,70,730,1,13,0,13,0,1,,,,,,,,,,,,,,,,,,,,,,,,,,,,,,,,,,,,,,,
,,,,,,,,2023-08-06_08h17.11.301,HF_wild_card,2022.2.4,Win32,20,613e495d5991ed54f860fe9d,64ce5acb97489d65b14ecc7a,64cf48e13ccc184204e6f744,,,,,,,decisionTrl,resources/DG.BMP,resources/DP.BMP,Door1,0.235,0.02875,1,0,0,1.427,optionRight,30,760,1,14,0,14,0,1,,,,,,,,,,,,,,,,,,,,,,,,,,,,,,,,,,,,,,,
,,,,,,,,2023-08-06_08h17.11.301,HF_wild_card,2022.2.4,Win32,20,613e495d5991ed54f860fe9d,64ce5acb97489d65b14ecc7a,64cf48e13ccc184204e6f744,,,,,,,decisionTrl,resources/DB.BMP,resources/DG.BMP,WildCard_NonEx,-0.23875,-0.0075,1,0,0,1.887,optionLeft,55,815,1,15,0,15,0,1,,,,,,,,,,,,,,,,,,,,,,,,,,,,,,,,,,,,,,,
,,,,,,,,2023-08-06_08h17.11.301,HF_wild_card,2022.2.4,Win32,20,613e495d5991ed54f860fe9d,64ce5acb97489d65b14ecc7a,64cf48e13ccc184204e6f744,,,,,,,decisionTrl,resources/DB.BMP,resources/DBN.BMP,Door4,0.2425,0.00625,1,0,0,1.623,optionRight,80,895,1,16,0,16,0,1,,,,,,,,,,,,,,,,,,,,,,,,,,,,,,,,,,,,,,,
,,,,,,,,2023-08-06_08h17.11.301,HF_wild_card,2022.2.4,Win32,20,613e495d5991ed54f860fe9d,64ce5acb97489d65b14ecc7a,64cf48e13ccc184204e6f744,,,,,,,sngl,resources/Empty.png,resources/DB.BMP,WildCard_NonEx,0.29625,-0.01,1,0,0,1.004,optionRight,45,940,1,17,0,17,0,1,,,,,,,,,,,,,,,,,,,,,,,,,,,,,,,,,,,,,,,
,,,,,,,,2023-08-06_08h17.11.301,HF_wild_card,2022.2.4,Win32,20,613e495d5991ed54f860fe9d,64ce5acb97489d65b14ecc7a,64cf48e13ccc184204e6f744,,,,,,,ctch,resources/DP.BMP,resources/DBN.BMP,Door4,0.29,-0.015,1,0,0,1.338,optionRight,80,1020,1,18,0,18,0,1,,,,,,,,,,,,,,,,,,,,,,,,,,,,,,,,,,,,,,,
,,,,,,,,2023-08-06_08h17.11.301,HF_wild_card,2022.2.4,Win32,20,613e495d5991ed54f860fe9d,64ce5acb97489d65b14ecc7a,64cf48e13ccc184204e6f744,,,,,,,sngl,resources/DB.BMP,resources/Empty.png,WildCard_NonEx,-0.23875,-0.01,1,0,0,1.208,optionLeft,45,1065,1,19,0,19,0,1,,,,,,,,,,,,,,,,,,,,,,,,,,,,,,,,,,,,,,,
,,,,,,,,2023-08-06_08h17.11.301,HF_wild_card,2022.2.4,Win32,20,613e495d5991ed54f860fe9d,64ce5acb97489d65b14ecc7a,64cf48e13ccc184204e6f744,,,,,,,sngl,resources/DG.BMP,resources/Empty.png,Door2,-0.16875,-0.01125,1,0,0,1.123,optionLeft,40,1105,1,20,0,20,0,1,,,,,,,,,,,,,,,,,,,,,,,,,,,,,,,,,,,,,,,
,,,,,,,,2023-08-06_08h17.11.301,HF_wild_card,2022.2.4,Win32,20,613e495d5991ed54f860fe9d,64ce5acb97489d65b14ecc7a,64cf48e13ccc184204e6f744,,,,,,,decisionTrl,resources/DP.BMP,resources/DG.BMP,Door2,0.37,-0.01,1,0,0,2.167,optionRight,20,1125,1,21,0,21,0,1,,,,,,,,,,,,,,,,,,,,,,,,,,,,,,,,,,,,,,,
,,,,,,,,2023-08-06_08h17.11.301,HF_wild_card,2022.2.4,Win32,20,613e495d5991ed54f860fe9d,64ce5acb97489d65b14ecc7a,64cf48e13ccc184204e6f744,,,,,,,decisionTrl,resources/DG.BMP,resources/DP.BMP,Door2,-0.17875,-0.02,1,0,0,2.051,optionLeft,20,1145,1,22,0,22,0,1,,,,,,,,,,,,,,,,,,,,,,,,,,,,,,,,,,,,,,,
,,,,,,,,2023-08-06_08h17.11.301,HF_wild_card,2022.2.4,Win32,20,613e495d5991ed54f860fe9d,64ce5acb97489d65b14ecc7a,64cf48e13ccc184204e6f744,,,,,,,ctch,resources/DP.BMP,resources/DBN.BMP,Door4,0.345,0.01,1,0,0,1.124,optionRight,80,1225,1,23,0,23,0,1,,,,,,,,,,,,,,,,,,,,,,,,,,,,,,,,,,,,,,,
,,,,,,,,2023-08-06_08h17.11.301,HF_wild_card,2022.2.4,Win32,20,613e495d5991ed54f860fe9d,64ce5acb97489d65b14ecc7a,64cf48e13ccc184204e6f744,,,,,,,ctch,resources/DY.BMP,resources/DG.BMP,Door3,-0.25875,-0.00375,1,0,0,0.873,optionLeft,70,1295,1,24,0,24,0,1,,,,,,,,,,,,,,,,,,,,,,,,,,,,,,,,,,,,,,,
,,,,,,,,2023-08-06_08h17.11.301,HF_wild_card,2022.2.4,Win32,20,613e495d5991ed54f860fe9d,64ce5acb97489d65b14ecc7a,64cf48e13ccc184204e6f744,,,,,,,decisionTrl,resources/DBN.BMP,resources/DB.BMP,Door4,-0.31875,-0.02375,1,0,0,0.893,optionLeft,60,1355,1,25,0,25,0,1,,,,,,,,,,,,,,,,,,,,,,,,,,,,,,,,,,,,,,,
,,,,,,,,2023-08-06_08h17.11.301,HF_wild_card,2022.2.4,Win32,20,613e495d5991ed54f860fe9d,64ce5acb97489d65b14ecc7a,64cf48e13ccc184204e6f744,,,,,,,decisionTrl,resources/DBN.BMP,resources/DY.BMP,Door4,-0.2375,-0.00625,1,0,0,1.046,optionLeft,80,1435,1,26,0,26,0,1,,,,,,,,,,,,,,,,,,,,,,,,,,,,,,,,,,,,,,,
,,,,,,,,2023-08-06_08h17.11.301,HF_wild_card,2022.2.4,Win32,20,613e495d5991ed54f860fe9d,64ce5acb97489d65b14ecc7a,64cf48e13ccc184204e6f744,,,,,,,decisionTrl,resources/DB.BMP,resources/DP.BMP,WildCard_NonEx,-0.28625,-0.0225,1,0,0,1.928,optionLeft,45,1480,1,27,0,27,0,1,,,,,,,,,,,,,,,,,,,,,,,,,,,,,,,,,,,,,,,
,,,,,,,,2023-08-06_08h17.11.301,HF_wild_card,2022.2.4,Win32,20,613e495d5991ed54f860fe9d,64ce5acb97489d65b14ecc7a,64cf48e13ccc184204e6f744,,,,,,,sngl,resources/DY.BMP,resources/Empty.png,Door3,-0.33,-0.01625,1,0,0,1.337,optionLeft,70,1550,1,28,0,28,0,1,,,,,,,,,,,,,,,,,,,,,,,,,,,,,,,,,,,,,,,
,,,,,,,,2023-08-06_08h17.11.301,HF_wild_card,2022.2.4,Win32,20,613e495d5991ed54f860fe9d,64ce5acb97489d65b14ecc7a,64cf48e13ccc184204e6f744,,,,,,,sngl,resources/Empty.png,resources/DP.BMP,Door1,0.3,-0.02,1,0,0,1.411,optionRight,30,1580,1,29,0,29,0,1,,,,,,,,,,,,,,,,,,,,,,,,,,,,,,,,,,,,,,,
,,,,,,,,2023-08-06_08h17.11.301,HF_wild_card,2022.2.4,Win32,20,613e495d5991ed54f860fe9d,64ce5acb97489d65b14ecc7a,64cf48e13ccc184204e6f744,,,,,,,sngl,resources/Empty.png,resources/DBN.BMP,Door4,0.35125,-0.02875,1,0,0,1.022,optionRight,60,1640,1,30,0,30,0,1,,,,,,,,,,,,,,,,,,,,,,,,,,,,,,,,,,,,,,,
,,,,,,,,2023-08-06_08h17.11.301,HF_wild_card,2022.2.4,Win32,20,613e495d5991ed54f860fe9d,64ce5acb97489d65b14ecc7a,64cf48e13ccc184204e6f744,,,,,,,decisionTrl,resources/DBN.BMP,resources/DY.BMP,Door4,-0.23625,-0.00875,1,0,0,1.163,optionLeft,60,1700,1,31,0,31,0,1,,,,,,,,,,,,,,,,,,,,,,,,,,,,,,,,,,,,,,,
,,,,,,,,2023-08-06_08h17.11.301,HF_wild_card,2022.2.4,Win32,20,613e495d5991ed54f860fe9d,64ce5acb97489d65b14ecc7a,64cf48e13ccc184204e6f744,,,,,,,decisionTrl,resources/DB.BMP,resources/DY.BMP,Door3,0.29375,-0.01875,1,0,0,1.453,optionRight,70,1770,1,32,0,32,0,1,,,,,,,,,,,,,,,,,,,,,,,,,,,,,,,,,,,,,,,
,,,,,,,,2023-08-06_08h17.11.301,HF_wild_card,2022.2.4,Win32,20,613e495d5991ed54f860fe9d,64ce5acb97489d65b14ecc7a,64cf48e13ccc184204e6f744,,,,,,,ctch,resources/DBN.BMP,resources/DP.BMP,Door4,-0.20875,-0.01125,1,0,0,1.387,optionLeft,60,1830,1,33,0,33,0,1,,,,,,,,,,,,,,,,,,,,,,,,,,,,,,,,,,,,,,,
,,,,,,,,2023-08-06_08h17.11.301,HF_wild_card,2022.2.4,Win32,20,613e495d5991ed54f860fe9d,64ce5acb97489d65b14ecc7a,64cf48e13ccc184204e6f744,,,,,,,decisionTrl,resources/DBN.BMP,resources/DY.BMP,Door3,0.2875,0.0025,1,0,0,1.115,optionRight,70,1900,1,34,0,34,0,1,,,,,,,,,,,,,,,,,,,,,,,,,,,,,,,,,,,,,,,
,,,,,,,,2023-08-06_08h17.11.301,HF_wild_card,2022.2.4,Win32,20,613e495d5991ed54f860fe9d,64ce5acb97489d65b14ecc7a,64cf48e13ccc184204e6f744,,,,,,,decisionTrl,resources/DY.BMP,resources/DBN.BMP,Door3,-0.3125,-0.00625,1,0,0,1.156,optionLeft,70,1970,1,35,0,35,0,1,,,,,,,,,,,,,,,,,,,,,,,,,,,,,,,,,,,,,,,
,,,,,,,,2023-08-06_08h17.11.301,HF_wild_card,2022.2.4,Win32,20,613e495d5991ed54f860fe9d,64ce5acb97489d65b14ecc7a,64cf48e13ccc184204e6f744,,,,,,,sngl,resources/Empty.png,resources/DG.BMP,Door2,0.37125,-0.01125,1,0,0,1.315,optionRight,20,1990,1,36,0,36,0,1,,,,,,,,,,,,,,,,,,,,,,,,,,,,,,,,,,,,,,,
,,,,,,,,2023-08-06_08h17.11.301,HF_wild_card,2022.2.4,Win32,20,613e495d5991ed54f860fe9d,64ce5acb97489d65b14ecc7a,64cf48e13ccc184204e6f744,,,,,,,decisionTrl,resources/DY.BMP,resources/DB.BMP,Door3,-0.1925,-0.005,1,0,0,2.132,optionLeft,70,2060,1,37,0,37,0,1,,,,,,,,,,,,,,,,,,,,,,,,,,,,,,,,,,,,,,,
,,,,,,,,2023-08-06_08h17.11.301,HF_wild_card,2022.2.4,Win32,20,613e495d5991ed54f860fe9d,64ce5acb97489d65b14ecc7a,64cf48e13ccc184204e6f744,,,,,,,decisionTrl,resources/DP.BMP,resources/DB.BMP,WildCard_NonEx,0.28,-0.00875,1,0,0,2.164,optionRight,55,2115,1,38,0,38,0,1,,,,,,,,,,,,,,,,,,,,,,,,,,,,,,,,,,,,,,,
,,,,,,,,2023-08-06_08h17.11.301,HF_wild_card,2022.2.4,Win32,20,613e495d5991ed54f860fe9d,64ce5acb97489d65b14ecc7a,64cf48e13ccc184204e6f744,,,,,,,ctch,resources/DG.BMP,resources/DY.BMP,Door3,0.2025,-0.00875,1,0,0,1.471,optionRight,70,2185,1,39,0,39,0,1,,,,,,,,,,,,,,,,,,,,,,,,,,,,,,,,,,,,,,,
,,,,,,,,2023-08-06_08h17.11.301,HF_wild_card,2022.2.4,Win32,20,613e495d5991ed54f860fe9d,64ce5acb97489d65b14ecc7a,64cf48e13ccc184204e6f744,,,,,,,decisionTrl,resources/DP.BMP,resources/DG.BMP,Door1,-0.18875,-0.01625,1,0,0,1.822,optionLeft,30,2215,1,40,0,40,0,1,,,,,,,,,,,,,,,,,,,,,,,,,,,,,,,,,,,,,,,
,,,,,,,,2023-08-06_08h17.11.301,HF_wild_card,2022.2.4,Win32,20,613e495d5991ed54f860fe9d,64ce5acb97489d65b14ecc7a,64cf48e13ccc184204e6f744,,,,,,,ctch,resources/DBN.BMP,resources/DP.BMP,Door4,-0.18875,-0.02125,1,0,0,1.907,optionLeft,80,2295,1,41,0,41,0,1,,,,,,,,,,,,,,,,,,,,,,,,,,,,,,,,,,,,,,,
,,,,,,,,2023-08-06_08h17.11.301,HF_wild_card,2022.2.4,Win32,20,613e495d5991ed54f860fe9d,64ce5acb97489d65b14ecc7a,64cf48e13ccc184204e6f744,,,,,,,decisionTrl,resources/DY.BMP,resources/DBN.BMP,Door4,0.17875,-0.0025,1,0,0,1.477,optionRight,60,2355,1,42,0,42,0,1,,,,,,,,,,,,,,,,,,,,,,,,,,,,,,,,,,,,,,,
,,,,,,,,2023-08-06_08h17.11.301,HF_wild_card,2022.2.4,Win32,20,613e495d5991ed54f860fe9d,64ce5acb97489d65b14ecc7a,64cf48e13ccc184204e6f744,,,,,,,decisionTrl,resources/DY.BMP,resources/DBN.BMP,Door3,-0.18125,-0.00875,1,0,0,1.381,optionLeft,70,2425,1,43,0,43,0,1,,,,,,,,,,,,,,,,,,,,,,,,,,,,,,,,,,,,,,,
,,,,,,,,2023-08-06_08h17.11.301,HF_wild_card,2022.2.4,Win32,20,613e495d5991ed54f860fe9d,64ce5acb97489d65b14ecc7a,64cf48e13ccc184204e6f744,,,,,,,,,,,,,,,,,,,,,,,,,,0,0,0,0,1,,,,,,,,,,,,,,,,,,,,,,,,,,,,,,,,,,
,,,,,,,,2023-08-06_08h17.11.301,HF_wild_card,2022.2.4,Win32,20,613e495d5991ed54f860fe9d,64ce5acb97489d65b14ecc7a,64cf48e13ccc184204e6f744,,,,,,,ctch,resources/DBN.BMP,resources/DP.BMP,Door4,-0.2,-0.1125,1,0,0,1.442,optionLeft,80,2505,2,0,0,0,0,1,,,,,,,,,,,,,,,,,,,,,,,,,,,,,,,,,,,,,,,
,,,,,,,,2023-08-06_08h17.11.301,HF_wild_card,2022.2.4,Win32,20,613e495d5991ed54f860fe9d,64ce5acb97489d65b14ecc7a,64cf48e13ccc184204e6f744,,,,,,,decisionTrl,resources/DB.BMP,resources/DP.BMP,WildCard_NonEx,-0.14875,-0.01,1,0,0,1.58,optionLeft,45,2550,2,1,0,1,0,1,,,,,,,,,,,,,,,,,,,,,,,,,,,,,,,,,,,,,,,
,,,,,,,,2023-08-06_08h17.11.301,HF_wild_card,2022.2.4,Win32,20,613e495d5991ed54f860fe9d,64ce5acb97489d65b14ecc7a,64cf48e13ccc184204e6f744,,,,,,,sngl,resources/Empty.png,resources/DP.BMP,Door1,0.20875,-0.01375,1,0,0,0.872,optionRight,30,2580,2,2,0,2,0,1,,,,,,,,,,,,,,,,,,,,,,,,,,,,,,,,,,,,,,,
,,,,,,,,2023-08-06_08h17.11.301,HF_wild_card,2022.2.4,Win32,20,613e495d5991ed54f860fe9d,64ce5acb97489d65b14ecc7a,64cf48e13ccc184204e6f744,,,,,,,decisionTrl,resources/DB.BMP,resources/DG.BMP,WildCard_NonEx,-0.14125,-0.01,1,0,0,2.861,optionLeft,55,2635,2,3,0,3,0,1,,,,,,,,,,,,,,,,,,,,,,,,,,,,,,,,,,,,,,,
,,,,,,,,2023-08-06_08h17.11.301,HF_wild_card,2022.2.4,Win32,20,613e495d5991ed54f860fe9d,64ce5acb97489d65b14ecc7a,64cf48e13ccc184204e6f744,,,,,,,sngl,resources/DG.BMP,resources/Empty.png,Door2,-0.2275,-0.02875,1,0,0,0.888,optionLeft,20,2655,2,4,0,4,0,1,,,,,,,,,,,,,,,,,,,,,,,,,,,,,,,,,,,,,,,
,,,,,,,,2023-08-06_08h17.11.301,HF_wild_card,2022.2.4,Win32,20,613e495d5991ed54f860fe9d,64ce5acb97489d65b14ecc7a,64cf48e13ccc184204e6f744,,,,,,,decisionTrl,resources/DP.BMP,resources/DG.BMP,Door1,-0.20125,-0.0125,1,0,0,1.501,optionLeft,30,2685,2,5,0,5,0,1,,,,,,,,,,,,,,,,,,,,,,,,,,,,,,,,,,,,,,,
,,,,,,,,2023-08-06_08h17.11.301,HF_wild_card,2022.2.4,Win32,20,613e495d5991ed54f860fe9d,64ce5acb97489d65b14ecc7a,64cf48e13ccc184204e6f744,,,,,,,ctch,resources/DG.BMP,resources/DY.BMP,Door3,0.1575,-0.0075,1,0,0,1.363,optionRight,70,2755,2,6,0,6,0,1,,,,,,,,,,,,,,,,,,,,,,,,,,,,,,,,,,,,,,,
,,,,,,,,2023-08-06_08h17.11.301,HF_wild_card,2022.2.4,Win32,20,613e495d5991ed54f860fe9d,64ce5acb97489d65b14ecc7a,64cf48e13ccc184204e6f744,,,,,,,ctch,resources/DP.BMP,resources/DBN.BMP,Door4,0.18125,-0.02125,1,0,0,2.272,optionRight,60,2815,2,7,0,7,0,1,,,,,,,,,,,,,,,,,,,,,,,,,,,,,,,,,,,,,,,
,,,,,,,,2023-08-06_08h17.11.301,HF_wild_card,2022.2.4,Win32,20,613e495d5991ed54f860fe9d,64ce5acb97489d65b14ecc7a,64cf48e13ccc184204e6f744,,,,,,,decisionTrl,resources/DBN.BMP,resources/DY.BMP,Door4,-0.22375,-0.0125,1,0,0,0.928,optionLeft,60,2875,2,8,0,8,0,1,,,,,,,,,,,,,,,,,,,,,,,,,,,,,,,,,,,,,,,
,,,,,,,,2023-08-06_08h17.11.301,HF_wild_card,2022.2.4,Win32,20,613e495d5991ed54f860fe9d,64ce5acb97489d65b14ecc7a,64cf48e13ccc184204e6f744,,,,,,,decisionTrl,resources/DBN.BMP,resources/DB.BMP,Door4,-0.19625,-0.015,1,0,0,0.742,optionLeft,60,2935,2,9,0,9,0,1,,,,,,,,,,,,,,,,,,,,,,,,,,,,,,,,,,,,,,,
,,,,,,,,2023-08-06_08h17.11.301,HF_wild_card,2022.2.4,Win32,20,613e495d5991ed54f860fe9d,64ce5acb97489d65b14ecc7a,64cf48e13ccc184204e6f744,,,,,,,sngl,resources/Empty.png,resources/DBN.BMP,Door4,0.295,-0.01375,1,0,0,0.642,optionRight,80,3015,2,10,0,10,0,1,,,,,,,,,,,,,,,,,,,,,,,,,,,,,,,,,,,,,,,
,,,,,,,,2023-08-06_08h17.11.301,HF_wild_card,2022.2.4,Win32,20,613e495d5991ed54f860fe9d,64ce5acb97489d65b14ecc7a,64cf48e13ccc184204e6f744,,,,,,,decisionTrl,resources/DY.BMP,resources/DBN.BMP,Door3,-0.16875,-0.01625,1,0,0,1.341,optionLeft,70,3085,2,11,0,11,0,1,,,,,,,,,,,,,,,,,,,,,,,,,,,,,,,,,,,,,,,
,,,,,,,,2023-08-06_08h17.11.301,HF_wild_card,2022.2.4,Win32,20,613e495d5991ed54f860fe9d,64ce5acb97489d65b14ecc7a,64cf48e13ccc184204e6f744,,,,,,,decisionTrl,resources/DP.BMP,resources/DG.BMP,Door1,-0.2775,-0.01875,1,0,0,1.669,optionLeft,30,3115,2,12,0,12,0,1,,,,,,,,,,,,,,,,,,,,,,,,,,,,,,,,,,,,,,,
,,,,,,,,2023-08-06_08h17.11.301,HF_wild_card,2022.2.4,Win32,20,613e495d5991ed54f860fe9d,64ce5acb97489d65b14ecc7a,64cf48e13ccc184204e6f744,,,,,,,decisionTrl,resources/DP.BMP,resources/DG.BMP,Door1,-0.31125,-0.0125,1,0,0,0.851,optionLeft,30,3145,2,13,0,13,0,1,,,,,,,,,,,,,,,,,,,,,,,,,,,,,,,,,,,,,,,
,,,,,,,,2023-08-06_08h17.11.301,HF_wild_card,2022.2.4,Win32,20,613e495d5991ed54f860fe9d,64ce5acb97489d65b14ecc7a,64cf48e13ccc184204e6f744,,,,,,,sngl,resources/Empty.png,resources/DG.BMP,Door2,0.14875,-0.00875,1,0,0,1.476,optionRight,40,3185,2,14,0,14,0,1,,,,,,,,,,,,,,,,,,,,,,,,,,,,,,,,,,,,,,,
,,,,,,,,2023-08-06_08h17.11.301,HF_wild_card,2022.2.4,Win32,20,613e495d5991ed54f860fe9d,64ce5acb97489d65b14ecc7a,64cf48e13ccc184204e6f744,,,,,,,ctch,resources/DBN.BMP,resources/DP.BMP,Door4,-0.1175,-0.0175,1,0,0,1.356,optionLeft,60,3245,2,15,0,15,0,1,,,,,,,,,,,,,,,,,,,,,,,,,,,,,,,,,,,,,,,
,,,,,,,,2023-08-06_08h17.11.301,HF_wild_card,2022.2.4,Win32,20,613e495d5991ed54f860fe9d,64ce5acb97489d65b14ecc7a,64cf48e13ccc184204e6f744,,,,,,,decisionTrl,resources/DG.BMP,resources/DP.BMP,Door1,0.12,-0.01125,1,0,0,1.858,optionRight,30,3275,2,16,0,16,0,1,,,,,,,,,,,,,,,,,,,,,,,,,,,,,,,,,,,,,,,
,,,,,,,,2023-08-06_08h17.11.301,HF_wild_card,2022.2.4,Win32,20,613e495d5991ed54f860fe9d,64ce5acb97489d65b14ecc7a,64cf48e13ccc184204e6f744,,,,,,,decisionTrl,resources/DB.BMP,resources/DY.BMP,Door3,0.2025,0.0075,1,0,0,1.193,optionRight,70,3345,2,17,0,17,0,1,,,,,,,,,,,,,,,,,,,,,,,,,,,,,,,,,,,,,,,
,,,,,,,,2023-08-06_08h17.11.301,HF_wild_card,2022.2.4,Win32,20,613e495d5991ed54f860fe9d,64ce5acb97489d65b14ecc7a,64cf48e13ccc184204e6f744,,,,,,,ctch,resources/DP.BMP,resources/DBN.BMP,Door4,0.165,0.00375,1,0,0,1.097,optionRight,80,3425,2,18,0,18,0,1,,,,,,,,,,,,,,,,,,,,,,,,,,,,,,,,,,,,,,,
,,,,,,,,2023-08-06_08h17.11.301,HF_wild_card,2022.2.4,Win32,20,613e495d5991ed54f860fe9d,64ce5acb97489d65b14ecc7a,64cf48e13ccc184204e6f744,,,,,,,decisionTrl,resources/DG.BMP,resources/DP.BMP,Door1,0.14625,0.00125,1,0,0,2.948,optionRight,30,3455,2,19,0,19,0,1,,,,,,,,,,,,,,,,,,,,,,,,,,,,,,,,,,,,,,,
,,,,,,,,2023-08-06_08h17.11.301,HF_wild_card,2022.2.4,Win32,20,613e495d5991ed54f860fe9d,64ce5acb97489d65b14ecc7a,64cf48e13ccc184204e6f744,,,,,,,sngl,resources/Empty.png,resources/DB.BMP,WildCard_NonEx,0.22625,0,1,0,0,0.916,optionRight,55,3510,2,20,0,20,0,1,,,,,,,,,,,,,,,,,,,,,,,,,,,,,,,,,,,,,,,
,,,,,,,,2023-08-06_08h17.11.301,HF_wild_card,2022.2.4,Win32,20,613e495d5991ed54f860fe9d,64ce5acb97489d65b14ecc7a,64cf48e13ccc184204e6f744,,,,,,,decisionTrl,resources/DG.BMP,resources/DP.BMP,Door1,0.1825,-0.00375,1,0,0,1.994,optionRight,30,3540,2,21,0,21,0,1,,,,,,,,,,,,,,,,,,,,,,,,,,,,,,,,,,,,,,,
,,,,,,,,2023-08-06_08h17.11.301,HF_wild_card,2022.2.4,Win32,20,613e495d5991ed54f860fe9d,64ce5acb97489d65b14ecc7a,64cf48e13ccc184204e6f744,,,,,,,sngl,resources/Empty.png,resources/DY.BMP,Door3,0.16375,-0.00625,1,0,0,0.858,optionRight,70,3610,2,22,0,22,0,1,,,,,,,,,,,,,,,,,,,,,,,,,,,,,,,,,,,,,,,
,,,,,,,,2023-08-06_08h17.11.301,HF_wild_card,2022.2.4,Win32,20,613e495d5991ed54f860fe9d,64ce5acb97489d65b14ecc7a,64cf48e13ccc184204e6f744,,,,,,,ctch,resources/DY.BMP,resources/DG.BMP,Door3,-0.2575,-0.0075,1,0,0,1.466,optionLeft,70,3680,2,23,0,23,0,1,,,,,,,,,,,,,,,,,,,,,,,,,,,,,,,,,,,,,,,
,,,,,,,,2023-08-06_08h17.11.301,HF_wild_card,2022.2.4,Win32,20,613e495d5991ed54f860fe9d,64ce5acb97489d65b14ecc7a,64cf48e13ccc184204e6f744,,,,,,,sngl,resources/DY.BMP,resources/Empty.png,Door3,-0.17875,-0.01,1,0,0,0.711,optionLeft,70,3750,2,24,0,24,0,1,,,,,,,,,,,,,,,,,,,,,,,,,,,,,,,,,,,,,,,
,,,,,,,,2023-08-06_08h17.11.301,HF_wild_card,2022.2.4,Win32,20,613e495d5991ed54f860fe9d,64ce5acb97489d65b14ecc7a,64cf48e13ccc184204e6f744,,,,,,,decisionTrl,resources/DY.BMP,resources/DBN.BMP,Door3,-0.14625,-0.01,1,0,0,0.839,optionLeft,70,3820,2,25,0,25,0,1,,,,,,,,,,,,,,,,,,,,,,,,,,,,,,,,,,,,,,,
,,,,,,,,2023-08-06_08h17.11.301,HF_wild_card,2022.2.4,Win32,20,613e495d5991ed54f860fe9d,64ce5acb97489d65b14ecc7a,64cf48e13ccc184204e6f744,,,,,,,sngl,resources/DB.BMP,resources/Empty.png,WildCard_NonEx,-0.2175,-0.01375,1,0,0,0.838,optionLeft,45,3865,2,26,0,26,0,1,,,,,,,,,,,,,,,,,,,,,,,,,,,,,,,,,,,,,,,
,,,,,,,,2023-08-06_08h17.11.301,HF_wild_card,2022.2.4,Win32,20,613e495d5991ed54f860fe9d,64ce5acb97489d65b14ecc7a,64cf48e13ccc184204e6f744,,,,,,,decisionTrl,resources/DB.BMP,resources/DBN.BMP,Door4,0.2025,-0.00375,1,0,0,0.804,optionRight,60,3925,2,27,0,27,0,1,,,,,,,,,,,,,,,,,,,,,,,,,,,,,,,,,,,,,,,
,,,,,,,,2023-08-06_08h17.11.301,HF_wild_card,2022.2.4,Win32,20,613e495d5991ed54f860fe9d,64ce5acb97489d65b14ecc7a,64cf48e13ccc184204e6f744,,,,,,,decisionTrl,resources/DP.BMP,resources/DG.BMP,Door1,-0.15,-0.00875,1,0,0,1.426,optionLeft,30,3955,2,28,0,28,0,1,,,,,,,,,,,,,,,,,,,,,,,,,,,,,,,,,,,,,,,
,,,,,,,,2023-08-06_08h17.11.301,HF_wild_card,2022.2.4,Win32,20,613e495d5991ed54f860fe9d,64ce5acb97489d65b14ecc7a,64cf48e13ccc184204e6f744,,,,,,,decisionTrl,resources/DP.BMP,resources/DB.BMP,WildCard_NonEx,0.1525,-0.005,1,0,0,1.739,optionRight,55,4010,2,29,0,29,0,1,,,,,,,,,,,,,,,,,,,,,,,,,,,,,,,,,,,,,,,
,,,,,,,,2023-08-06_08h17.11.301,HF_wild_card,2022.2.4,Win32,20,613e495d5991ed54f860fe9d,64ce5acb97489d65b14ecc7a,64cf48e13ccc184204e6f744,,,,,,,ctch,resources/DY.BMP,resources/DG.BMP,Door3,-0.17125,-0.01125,1,0,0,1.078,optionLeft,70,4080,2,30,0,30,0,1,,,,,,,,,,,,,,,,,,,,,,,,,,,,,,,,,,,,,,,
,,,,,,,,2023-08-06_08h17.11.301,HF_wild_card,2022.2.4,Win32,20,613e495d5991ed54f860fe9d,64ce5acb97489d65b14ecc7a,64cf48e13ccc184204e6f744,,,,,,,decisionTrl,resources/DBN.BMP,resources/DY.BMP,Door4,-0.15125,-0.02125,1,0,0,3.056,optionLeft,80,4160,2,31,0,31,0,1,,,,,,,,,,,,,,,,,,,,,,,,,,,,,,,,,,,,,,,
,,,,,,,,2023-08-06_08h17.11.301,HF_wild_card,2022.2.4,Win32,20,613e495d5991ed54f860fe9d,64ce5acb97489d65b14ecc7a,64cf48e13ccc184204e6f744,,,,,,,sngl,resources/DP.BMP,resources/Empty.png,Door1,-0.20625,-0.03125,1,0,0,0.876,optionLeft,30,4190,2,32,0,32,0,1,,,,,,,,,,,,,,,,,,,,,,,,,,,,,,,,,,,,,,,
,,,,,,,,2023-08-06_08h17.11.301,HF_wild_card,2022.2.4,Win32,20,613e495d5991ed54f860fe9d,64ce5acb97489d65b14ecc7a,64cf48e13ccc184204e6f744,,,,,,,decisionTrl,resources/DBN.BMP,resources/DY.BMP,Door4,-0.1975,-0.0275,1,0,0,1.09,optionLeft,60,4250,2,33,0,33,0,1,,,,,,,,,,,,,,,,,,,,,,,,,,,,,,,,,,,,,,,
,,,,,,,,2023-08-06_08h17.11.301,HF_wild_card,2022.2.4,Win32,20,613e495d5991ed54f860fe9d,64ce5acb97489d65b14ecc7a,64cf48e13ccc184204e6f744,,,,,,,decisionTrl,resources/DG.BMP,resources/DP.BMP,Door1,0.17375,0.00125,1,0,0,1.09,optionRight,30,4280,2,34,0,34,0,1,,,,,,,,,,,,,,,,,,,,,,,,,,,,,,,,,,,,,,,
,,,,,,,,2023-08-06_08h17.11.301,HF_wild_card,2022.2.4,Win32,20,613e495d5991ed54f860fe9d,64ce5acb97489d65b14ecc7a,64cf48e13ccc184204e6f744,,,,,,,decisionTrl,resources/DY.BMP,resources/DBN.BMP,Door3,-0.185,-0.0025,1,0,0,0.851,optionLeft,70,4350,2,35,0,35,0,1,,,,,,,,,,,,,,,,,,,,,,,,,,,,,,,,,,,,,,,
,,,,,,,,2023-08-06_08h17.11.301,HF_wild_card,2022.2.4,Win32,20,613e495d5991ed54f860fe9d,64ce5acb97489d65b14ecc7a,64cf48e13ccc184204e6f744,,,,,,,sngl,resources/Empty.png,resources/DB.BMP,WildCard_NonEx,0.185,0.00125,1,0,0,0.656,optionRight,45,4395,2,36,0,36,0,1,,,,,,,,,,,,,,,,,,,,,,,,,,,,,,,,,,,,,,,
,,,,,,,,2023-08-06_08h17.11.301,HF_wild_card,2022.2.4,Win32,20,613e495d5991ed54f860fe9d,64ce5acb97489d65b14ecc7a,64cf48e13ccc184204e6f744,,,,,,,decisionTrl,resources/DY.BMP,resources/DBN.BMP,Door4,0.18125,0,1,0,0,2.674,optionRight,60,4455,2,37,0,37,0,1,,,,,,,,,,,,,,,,,,,,,,,,,,,,,,,,,,,,,,,
,,,,,,,,2023-08-06_08h17.11.301,HF_wild_card,2022.2.4,Win32,20,613e495d5991ed54f860fe9d,64ce5acb97489d65b14ecc7a,64cf48e13ccc184204e6f744,,,,,,,sngl,resources/DB.BMP,resources/Empty.png,WildCard_NonEx,-0.1825,-0.01,1,0,0,0.656,optionLeft,55,4510,2,38,0,38,0,1,,,,,,,,,,,,,,,,,,,,,,,,,,,,,,,,,,,,,,,
,,,,,,,,2023-08-06_08h17.11.301,HF_wild_card,2022.2.4,Win32,20,613e495d5991ed54f860fe9d,64ce5acb97489d65b14ecc7a,64cf48e13ccc184204e6f744,,,,,,,decisionTrl,resources/DG.BMP,resources/DB.BMP,WildCard_NonEx,0.18625,-0.01375,1,0,0,1.054,optionRight,55,4565,2,39,0,39,0,1,,,,,,,,,,,,,,,,,,,,,,,,,,,,,,,,,,,,,,,
,,,,,,,,2023-08-06_08h17.11.301,HF_wild_card,2022.2.4,Win32,20,613e495d5991ed54f860fe9d,64ce5acb97489d65b14ecc7a,64cf48e13ccc184204e6f744,,,,,,,decisionTrl,resources/DY.BMP,resources/DB.BMP,Door3,-0.12375,-0.01375,1,0,0,0.716,optionLeft,70,4635,2,40,0,40,0,1,,,,,,,,,,,,,,,,,,,,,,,,,,,,,,,,,,,,,,,
,,,,,,,,2023-08-06_08h17.11.301,HF_wild_card,2022.2.4,Win32,20,613e495d5991ed54f860fe9d,64ce5acb97489d65b14ecc7a,64cf48e13ccc184204e6f744,,,,,,,decisionTrl,resources/DBN.BMP,resources/DY.BMP,Door3,0.20625,-0.0025,1,0,0,1.096,optionRight,70,4705,2,41,0,41,0,1,,,,,,,,,,,,,,,,,,,,,,,,,,,,,,,,,,,,,,,
,,,,,,,,2023-08-06_08h17.11.301,HF_wild_card,2022.2.4,Win32,20,613e495d5991ed54f860fe9d,64ce5acb97489d65b14ecc7a,64cf48e13ccc184204e6f744,,,,,,,ctch,resources/DG.BMP,resources/DY.BMP,Door3,0.18,-0.005,1,0,0,0.788,optionRight,70,4775,2,42,0,42,0,1,,,,,,,,,,,,,,,,,,,,,,,,,,,,,,,,,,,,,,,
,,,,,,,,2023-08-06_08h17.11.301,HF_wild_card,2022.2.4,Win32,20,613e495d5991ed54f860fe9d,64ce5acb97489d65b14ecc7a,64cf48e13ccc184204e6f744,,,,,,,sngl,resources/DBN.BMP,resources/Empty.png,Door4,-0.17625,-0.01125,1,0,0,0.744,optionLeft,60,4835,2,43,0,43,0,1,,,,,,,,,,,,,,,,,,,,,,,,,,,,,,,,,,,,,,,
,,,,,,,,2023-08-06_08h17.11.301,HF_wild_card,2022.2.4,Win32,20,613e495d5991ed54f860fe9d,64ce5acb97489d65b14ecc7a,64cf48e13ccc184204e6f744,,,,,,,,,,,,,,,,,,,,,,,,,,1,0,1,0,1,,,,,,,,,,,,,,,,,,,,,,,,,,,,,,,,,,
,,,,,,,,2023-08-06_08h17.11.301,HF_wild_card,2022.2.4,Win32,20,613e495d5991ed54f860fe9d,64ce5acb97489d65b14ecc7a,64cf48e13ccc184204e6f744,,,,,,,decisionTrl,resources/DP.BMP,resources/DB.BMP,WildCard_NonEx,0.14375,-0.03625,1,0,0,2.776,optionRight,45,4880,3,0,0,0,0,1,,,,,,,,,,,,,,,,,,,,,,,,,,,,,,,,,,,,,,,
,,,,,,,,2023-08-06_08h17.11.301,HF_wild_card,2022.2.4,Win32,20,613e495d5991ed54f860fe9d,64ce5acb97489d65b14ecc7a,64cf48e13ccc184204e6f744,,,,,,,sngl,resources/Empty.png,resources/DG.BMP,Door2,0.17125,0,1,0,0,0.908,optionRight,20,4900,3,1,0,1,0,1,,,,,,,,,,,,,,,,,,,,,,,,,,,,,,,,,,,,,,,
,,,,,,,,2023-08-06_08h17.11.301,HF_wild_card,2022.2.4,Win32,20,613e495d5991ed54f860fe9d,64ce5acb97489d65b14ecc7a,64cf48e13ccc184204e6f744,,,,,,,sngl,resources/Empty.png,resources/DP.BMP,Door1,0.26,-0.00625,1,0,0,0.718,optionRight,30,4930,3,2,0,2,0,1,,,,,,,,,,,,,,,,,,,,,,,,,,,,,,,,,,,,,,,
,,,,,,,,2023-08-06_08h17.11.301,HF_wild_card,2022.2.4,Win32,20,613e495d5991ed54f860fe9d,64ce5acb97489d65b14ecc7a,64cf48e13ccc184204e6f744,,,,,,,decisionTrl,resources/DP.BMP,resources/DG.BMP,Door1,-0.1875,-0.01625,1,0,0,1.049,optionLeft,30,4960,3,3,0,3,0,1,,,,,,,,,,,,,,,,,,,,,,,,,,,,,,,,,,,,,,,
,,,,,,,,2023-08-06_08h17.11.301,HF_wild_card,2022.2.4,Win32,20,613e495d5991ed54f860fe9d,64ce5acb97489d65b14ecc7a,64cf48e13ccc184204e6f744,,,,,,,decisionTrl,resources/DP.BMP,resources/DG.BMP,Door1,-0.12875,-0.01625,1,0,0,0.839,optionLeft,30,4990,3,4,0,4,0,1,,,,,,,,,,,,,,,,,,,,,,,,,,,,,,,,,,,,,,,
,,,,,,,,2023-08-06_08h17.11.301,HF_wild_card,2022.2.4,Win32,20,613e495d5991ed54f860fe9d,64ce5acb97489d65b14ecc7a,64cf48e13ccc184204e6f744,,,,,,,decisionTrl,resources/DY.BMP,resources/DBN.BMP,Door3,-0.145,-0.01125,1,0,0,1.166,optionLeft,70,5060,3,5,0,5,0,1,,,,,,,,,,,,,,,,,,,,,,,,,,,,,,,,,,,,,,,
,,,,,,,,2023-08-06_08h17.11.301,HF_wild_card,2022.2.4,Win32,20,613e495d5991ed54f860fe9d,64ce5acb97489d65b14ecc7a,64cf48e13ccc184204e6f744,,,,,,,ctch,resources/DY.BMP,resources/DG.BMP,Door3,-0.16125,-0.0175,1,0,0,0.632,optionLeft,70,5130,3,6,0,6,0,1,,,,,,,,,,,,,,,,,,,,,,,,,,,,,,,,,,,,,,,
,,,,,,,,2023-08-06_08h17.11.301,HF_wild_card,2022.2.4,Win32,20,613e495d5991ed54f860fe9d,64ce5acb97489d65b14ecc7a,64cf48e13ccc184204e6f744,,,,,,,decisionTrl,resources/DBN.BMP,resources/DY.BMP,Door3,0.13125,-0.0075,1,0,0,1.41,optionRight,70,5200,3,7,0,7,0,1,,,,,,,,,,,,,,,,,,,,,,,,,,,,,,,,,,,,,,,
,,,,,,,,2023-08-06_08h17.11.301,HF_wild_card,2022.2.4,Win32,20,613e495d5991ed54f860fe9d,64ce5acb97489d65b14ecc7a,64cf48e13ccc184204e6f744,,,,,,,decisionTrl,resources/DP.BMP,resources/DG.BMP,Door1,-0.17875,-0.02125,1,0,0,1.691,optionLeft,30,5230,3,8,0,8,0,1,,,,,,,,,,,,,,,,,,,,,,,,,,,,,,,,,,,,,,,
,,,,,,,,2023-08-06_08h17.11.301,HF_wild_card,2022.2.4,Win32,20,613e495d5991ed54f860fe9d,64ce5acb97489d65b14ecc7a,64cf48e13ccc184204e6f744,,,,,,,decisionTrl,resources/DBN.BMP,resources/DY.BMP,Door4,-0.16,-0.02625,1,0,0,0.876,optionLeft,60,5290,3,9,0,9,0,1,,,,,,,,,,,,,,,,,,,,,,,,,,,,,,,,,,,,,,,
,,,,,,,,2023-08-06_08h17.11.301,HF_wild_card,2022.2.4,Win32,20,613e495d5991ed54f860fe9d,64ce5acb97489d65b14ecc7a,64cf48e13ccc184204e6f744,,,,,,,decisionTrl,resources/DP.BMP,resources/DG.BMP,Door1,-0.15875,-0.025,1,0,0,1.438,optionLeft,30,5320,3,10,0,10,0,1,,,,,,,,,,,,,,,,,,,,,,,,,,,,,,,,,,,,,,,
,,,,,,,,2023-08-06_08h17.11.301,HF_wild_card,2022.2.4,Win32,20,613e495d5991ed54f860fe9d,64ce5acb97489d65b14ecc7a,64cf48e13ccc184204e6f744,,,,,,,decisionTrl,resources/DG.BMP,resources/DP.BMP,Door1,0.2275,-0.0175,1,0,0,1.062,optionRight,30,5350,3,11,0,11,0,1,,,,,,,,,,,,,,,,,,,,,,,,,,,,,,,,,,,,,,,
,,,,,,,,2023-08-06_08h17.11.301,HF_wild_card,2022.2.4,Win32,20,613e495d5991ed54f860fe9d,64ce5acb97489d65b14ecc7a,64cf48e13ccc184204e6f744,,,,,,,ctch,resources/DY.BMP,resources/DG.BMP,Door3,-0.17,-0.01625,1,0,0,0.805,optionLeft,70,5420,3,12,0,12,0,1,,,,,,,,,,,,,,,,,,,,,,,,,,,,,,,,,,,,,,,
,,,,,,,,2023-08-06_08h17.11.301,HF_wild_card,2022.2.4,Win32,20,613e495d5991ed54f860fe9d,64ce5acb97489d65b14ecc7a,64cf48e13ccc184204e6f744,,,,,,,decisionTrl,resources/DB.BMP,resources/DBN.BMP,Door4,0.23875,0.00625,1,0,0,1.239,optionRight,80,5500,3,13,0,13,0,1,,,,,,,,,,,,,,,,,,,,,,,,,,,,,,,,,,,,,,,
,,,,,,,,2023-08-06_08h17.11.301,HF_wild_card,2022.2.4,Win32,20,613e495d5991ed54f860fe9d,64ce5acb97489d65b14ecc7a,64cf48e13ccc184204e6f744,,,,,,,ctch,resources/DP.BMP,resources/DBN.BMP,Door4,0.19,0.00375,1,0,0,0.787,optionRight,80,5580,3,14,0,14,0,1,,,,,,,,,,,,,,,,,,,,,,,,,,,,,,,,,,,,,,,
,,,,,,,,2023-08-06_08h17.11.301,HF_wild_card,2022.2.4,Win32,20,613e495d5991ed54f860fe9d,64ce5acb97489d65b14ecc7a,64cf48e13ccc184204e6f744,,,,,,,decisionTrl,resources/DB.BMP,resources/DP.BMP,WildCard_NonEx,-0.115,-0.01375,1,0,0,1.158,optionLeft,45,5625,3,15,0,15,0,1,,,,,,,,,,,,,,,,,,,,,,,,,,,,,,,,,,,,,,,
,,,,,,,,2023-08-06_08h17.11.301,HF_wild_card,2022.2.4,Win32,20,613e495d5991ed54f860fe9d,64ce5acb97489d65b14ecc7a,64cf48e13ccc184204e6f744,,,,,,,decisionTrl,resources/DG.BMP,resources/DB.BMP,WildCard_NonEx,0.23125,0,1,0,0,1.583,optionRight,55,5680,3,16,0,16,0,1,,,,,,,,,,,,,,,,,,,,,,,,,,,,,,,,,,,,,,,
,,,,,,,,2023-08-06_08h17.11.301,HF_wild_card,2022.2.4,Win32,20,613e495d5991ed54f860fe9d,64ce5acb97489d65b14ecc7a,64cf48e13ccc184204e6f744,,,,,,,sngl,resources/Empty.png,resources/DB.BMP,WildCard_NonEx,0.1875,0.01,1,0,0,0.788,optionRight,45,5725,3,17,0,17,0,1,,,,,,,,,,,,,,,,,,,,,,,,,,,,,,,,,,,,,,,
,,,,,,,,2023-08-06_08h17.11.301,HF_wild_card,2022.2.4,Win32,20,613e495d5991ed54f860fe9d,64ce5acb97489d65b14ecc7a,64cf48e13ccc184204e6f744,,,,,,,sngl,resources/DG.BMP,resources/Empty.png,Door2,-0.15,-0.01375,1,0,0,0.888,optionLeft,40,5765,3,18,0,18,0,1,,,,,,,,,,,,,,,,,,,,,,,,,,,,,,,,,,,,,,,
,,,,,,,,2023-08-06_08h17.11.301,HF_wild_card,2022.2.4,Win32,20,613e495d5991ed54f860fe9d,64ce5acb97489d65b14ecc7a,64cf48e13ccc184204e6f744,,,,,,,sngl,resources/DP.BMP,resources/Empty.png,Door1,-0.1375,-0.01,1,0,0,0.834,optionLeft,30,5795,3,19,0,19,0,1,,,,,,,,,,,,,,,,,,,,,,,,,,,,,,,,,,,,,,,
,,,,,,,,2023-08-06_08h17.11.301,HF_wild_card,2022.2.4,Win32,20,613e495d5991ed54f860fe9d,64ce5acb97489d65b14ecc7a,64cf48e13ccc184204e6f744,,,,,,,decisionTrl,resources/DG.BMP,resources/DP.BMP,Door2,-0.20375,-0.01875,1,0,0,0.71,optionLeft,40,5835,3,20,0,20,0,1,,,,,,,,,,,,,,,,,,,,,,,,,,,,,,,,,,,,,,,
,,,,,,,,2023-08-06_08h17.11.301,HF_wild_card,2022.2.4,Win32,20,613e495d5991ed54f860fe9d,64ce5acb97489d65b14ecc7a,64cf48e13ccc184204e6f744,,,,,,,ctch,resources/DBN.BMP,resources/DP.BMP,Door4,-0.15125,-0.0125,0,0,1,1.06,optionLeft,80,5915,3,21,0,21,0,1,,,,,,,,,,,,,,,,,,,,,,,,,,,,,,,,,,,,,,,
,,,,,,,,2023-08-06_08h17.11.301,HF_wild_card,2022.2.4,Win32,20,613e495d5991ed54f860fe9d,64ce5acb97489d65b14ecc7a,64cf48e13ccc184204e6f744,,,,,,,sngl,resources/DY.BMP,resources/Empty.png,Door3,0.0075,-0.02,0,0,1,0.072,optionLeft,70,5985,3,22,0,22,0,1,,,,,,,,,,,,,,,,,,,,,,,,,,,,,,,,,,,,,,,
,,,,,,,,2023-08-06_08h17.11.301,HF_wild_card,2022.2.4,Win32,20,613e495d5991ed54f860fe9d,64ce5acb97489d65b14ecc7a,64cf48e13ccc184204e6f744,,,,,,,sngl,resources/DB.BMP,resources/Empty.png,WildCard_NonEx,-0.00625,-0.01,0,0,1,0.072,optionLeft,45,6030,3,23,0,23,0,1,,,,,,,,,,,,,,,,,,,,,,,,,,,,,,,,,,,,,,,
,,,,,,,,2023-08-06_08h17.11.301,HF_wild_card,2022.2.4,Win32,20,613e495d5991ed54f860fe9d,64ce5acb97489d65b14ecc7a,64cf48e13ccc184204e6f744,,,,,,,decisionTrl,resources/DB.BMP,resources/DY.BMP,Door3,0.00375,-0.00875,0,0,1,0.083,optionRight,70,6100,3,24,0,24,0,1,,,,,,,,,,,,,,,,,,,,,,,,,,,,,,,,,,,,,,,
,,,,,,,,2023-08-06_08h17.11.301,HF_wild_card,2022.2.4,Win32,20,613e495d5991ed54f860fe9d,64ce5acb97489d65b14ecc7a,64cf48e13ccc184204e6f744,,,,,,,sngl,resources/DB.BMP,resources/Empty.png,WildCard_NonEx,-0.00125,-0.00375,0,0,1,0.075,optionLeft,55,6155,3,25,0,25,0,1,,,,,,,,,,,,,,,,,,,,,,,,,,,,,,,,,,,,,,,
,,,,,,,,2023-08-06_08h17.11.301,HF_wild_card,2022.2.4,Win32,20,613e495d5991ed54f860fe9d,64ce5acb97489d65b14ecc7a,64cf48e13ccc184204e6f744,,,,,,,decisionTrl,resources/DBN.BMP,resources/DY.BMP,Door4,-0.00375,-0.01375,0,0,1,0.074,optionLeft,60,6215,3,26,0,26,0,1,,,,,,,,,,,,,,,,,,,,,,,,,,,,,,,,,,,,,,,
,,,,,,,,2023-08-06_08h17.11.301,HF_wild_card,2022.2.4,Win32,20,613e495d5991ed54f860fe9d,64ce5acb97489d65b14ecc7a,64cf48e13ccc184204e6f744,,,,,,,sngl,resources/Empty.png,resources/DB.BMP,WildCard_NonEx,-0.01375,-0.00125,0,0,1,0.073,optionRight,55,6270,3,27,0,27,0,1,,,,,,,,,,,,,,,,,,,,,,,,,,,,,,,,,,,,,,,
,,,,,,,,2023-08-06_08h17.11.301,HF_wild_card,2022.2.4,Win32,20,613e495d5991ed54f860fe9d,64ce5acb97489d65b14ecc7a,64cf48e13ccc184204e6f744,,,,,,,decisionTrl,resources/DG.BMP,resources/DP.BMP,Door2,0.005,-0.01375,0,0,1,0.085,optionLeft,20,6290,3,28,0,28,0,1,,,,,,,,,,,,,,,,,,,,,,,,,,,,,,,,,,,,,,,
,,,,,,,,2023-08-06_08h17.11.301,HF_wild_card,2022.2.4,Win32,20,613e495d5991ed54f860fe9d,64ce5acb97489d65b14ecc7a,64cf48e13ccc184204e6f744,,,,,,,ctch,resources/DBN.BMP,resources/DP.BMP,Door4,-0.00625,-0.0125,0,0,1,0.074,optionLeft,80,6370,3,29,0,29,0,1,,,,,,,,,,,,,,,,,,,,,,,,,,,,,,,,,,,,,,,
,,,,,,,,2023-08-06_08h17.11.301,HF_wild_card,2022.2.4,Win32,20,613e495d5991ed54f860fe9d,64ce5acb97489d65b14ecc7a,64cf48e13ccc184204e6f744,,,,,,,decisionTrl,resources/DG.BMP,resources/DP.BMP,Door1,0,-0.00625,0,0,1,0.077,optionRight,30,6400,3,30,0,30,0,1,,,,,,,,,,,,,,,,,,,,,,,,,,,,,,,,,,,,,,,
,,,,,,,,2023-08-06_08h17.11.301,HF_wild_card,2022.2.4,Win32,20,613e495d5991ed54f860fe9d,64ce5acb97489d65b14ecc7a,64cf48e13ccc184204e6f744,,,,,,,ctch,resources/DP.BMP,resources/DBN.BMP,Door4,-0.0175,-0.0175,0,0,1,0.077,optionRight,60,6460,3,31,0,31,0,1,,,,,,,,,,,,,,,,,,,,,,,,,,,,,,,,,,,,,,,
,,,,,,,,2023-08-06_08h17.11.301,HF_wild_card,2022.2.4,Win32,20,613e495d5991ed54f860fe9d,64ce5acb97489d65b14ecc7a,64cf48e13ccc184204e6f744,,,,,,,decisionTrl,resources/DBN.BMP,resources/DY.BMP,Door3,-0.0075,-0.005,0,0,1,0.084,optionRight,70,6530,3,32,0,32,0,1,,,,,,,,,,,,,,,,,,,,,,,,,,,,,,,,,,,,,,,
,,,,,,,,2023-08-06_08h17.11.301,HF_wild_card,2022.2.4,Win32,20,613e495d5991ed54f860fe9d,64ce5acb97489d65b14ecc7a,64cf48e13ccc184204e6f744,,,,,,,sngl,resources/DBN.BMP,resources/Empty.png,Door4,-0.01375,-0.0125,0,0,1,0.137,optionLeft,80,6610,3,33,0,33,0,1,,,,,,,,,,,,,,,,,,,,,,,,,,,,,,,,,,,,,,,
,,,,,,,,2023-08-06_08h17.11.301,HF_wild_card,2022.2.4,Win32,20,613e495d5991ed54f860fe9d,64ce5acb97489d65b14ecc7a,64cf48e13ccc184204e6f744,,,,,,,sngl,resources/Empty.png,resources/DY.BMP,Door3,0.0125,-0.0025,0,0,1,0.071,optionRight,70,6680,3,34,0,34,0,1,,,,,,,,,,,,,,,,,,,,,,,,,,,,,,,,,,,,,,,
,,,,,,,,2023-08-06_08h17.11.301,HF_wild_card,2022.2.4,Win32,20,613e495d5991ed54f860fe9d,64ce5acb97489d65b14ecc7a,64cf48e13ccc184204e6f744,,,,,,,decisionTrl,resources/DB.BMP,resources/DG.BMP,WildCard_NonEx,-0.01375,-0.0075,0,0,1,0.099,optionLeft,45,6725,3,35,0,35,0,1,,,,,,,,,,,,,,,,,,,,,,,,,,,,,,,,,,,,,,,
,,,,,,,,2023-08-06_08h17.11.301,HF_wild_card,2022.2.4,Win32,20,613e495d5991ed54f860fe9d,64ce5acb97489d65b14ecc7a,64cf48e13ccc184204e6f744,,,,,,,sngl,resources/Empty.png,resources/DBN.BMP,Door4,0.21125,-0.00125,1,0,0,0.715,optionRight,60,6785,3,36,0,36,0,1,,,,,,,,,,,,,,,,,,,,,,,,,,,,,,,,,,,,,,,
,,,,,,,,2023-08-06_08h17.11.301,HF_wild_card,2022.2.4,Win32,20,613e495d5991ed54f860fe9d,64ce5acb97489d65b14ecc7a,64cf48e13ccc184204e6f744,,,,,,,ctch,resources/DG.BMP,resources/DY.BMP,Door3,0.11375,0,1,0,0,1.367,optionRight,70,6855,3,37,0,37,0,1,,,,,,,,,,,,,,,,,,,,,,,,,,,,,,,,,,,,,,,
,,,,,,,,2023-08-06_08h17.11.301,HF_wild_card,2022.2.4,Win32,20,613e495d5991ed54f860fe9d,64ce5acb97489d65b14ecc7a,64cf48e13ccc184204e6f744,,,,,,,decisionTrl,resources/DY.BMP,resources/DB.BMP,Door3,-0.11,-0.0125,1,0,0,0.975,optionLeft,70,6925,3,38,0,38,0,1,,,,,,,,,,,,,,,,,,,,,,,,,,,,,,,,,,,,,,,
,,,,,,,,2023-08-06_08h17.11.301,HF_wild_card,2022.2.4,Win32,20,613e495d5991ed54f860fe9d,64ce5acb97489d65b14ecc7a,64cf48e13ccc184204e6f744,,,,,,,decisionTrl,resources/DBN.BMP,resources/DB.BMP,Door4,-0.18625,-0.01875,1,0,0,1.746,optionLeft,60,6985,3,39,0,39,0,1,,,,,,,,,,,,,,,,,,,,,,,,,,,,,,,,,,,,,,,
,,,,,,,,2023-08-06_08h17.11.301,HF_wild_card,2022.2.4,Win32,20,613e495d5991ed54f860fe9d,64ce5acb97489d65b14ecc7a,64cf48e13ccc184204e6f744,,,,,,,decisionTrl,resources/DY.BMP,resources/DBN.BMP,Door3,-0.1225,-0.02,1,0,0,1.027,optionLeft,70,7055,3,40,0,40,0,1,,,,,,,,,,,,,,,,,,,,,,,,,,,,,,,,,,,,,,,
,,,,,,,,2023-08-06_08h17.11.301,HF_wild_card,2022.2.4,Win32,20,613e495d5991ed54f860fe9d,64ce5acb97489d65b14ecc7a,64cf48e13ccc184204e6f744,,,,,,,ctch,resources/DG.BMP,resources/DY.BMP,Door3,0.39125,-0.06,1,0,0,2.555,optionRight,70,7125,3,41,0,41,0,1,,,,,,,,,,,,,,,,,,,,,,,,,,,,,,,,,,,,,,,
,,,,,,,,2023-08-06_08h17.11.301,HF_wild_card,2022.2.4,Win32,20,613e495d5991ed54f860fe9d,64ce5acb97489d65b14ecc7a,64cf48e13ccc184204e6f744,,,,,,,decisionTrl,resources/DY.BMP,resources/DBN.BMP,Door3,-0.15375,-0.00125,1,0,0,1.177,optionLeft,70,7195,3,42,0,42,0,1,,,,,,,,,,,,,,,,,,,,,,,,,,,,,,,,,,,,,,,
,,,,,,,,2023-08-06_08h17.11.301,HF_wild_card,2022.2.4,Win32,20,613e495d5991ed54f860fe9d,64ce5acb97489d65b14ecc7a,64cf48e13ccc184204e6f744,,,,,,,decisionTrl,resources/DY.BMP,resources/DBN.BMP,Door3,-0.1575,-0.01125,1,0,0,0.896,optionLeft,70,7265,3,43,0,43,0,1,,,,,,,,,,,,,,,,,,,,,,,,,,,,,,,,,,,,,,,
,,,,,,,,2023-08-06_08h17.11.301,HF_wild_card,2022.2.4,Win32,20,613e495d5991ed54f860fe9d,64ce5acb97489d65b14ecc7a,64cf48e13ccc184204e6f744,,,,,,,,,,,,,,,,,,,,,,,,,,2,0,2,0,1,,,,,,,,,,,,,,,,,,,,,,,,,,,,,,,,,,
,,,,,,,,2023-08-06_08h17.11.301,HF_wild_card,2022.2.4,Win32,20,613e495d5991ed54f860fe9d,64ce5acb97489d65b14ecc7a,64cf48e13ccc184204e6f744,,,,,,,decisionTrl,resources/DG.BMP,resources/DR.BMP,WildCard_Ex,0.23375,-0.04125,1,0,0,2.422,optionRight,5,7270,4,0,0,0,0,1,,,,,,,,,,,,,,,,,,,,,,,,,,,,,,,,,,,,,,,
,,,,,,,,2023-08-06_08h17.11.301,HF_wild_card,2022.2.4,Win32,20,613e495d5991ed54f860fe9d,64ce5acb97489d65b14ecc7a,64cf48e13ccc184204e6f744,,,,,,,decisionTrl,resources/DBN.BMP,resources/DY.BMP,Door3,0.14625,0.02375,1,0,0,1.922,optionRight,70,7340,4,1,0,1,0,1,,,,,,,,,,,,,,,,,,,,,,,,,,,,,,,,,,,,,,,
,,,,,,,,2023-08-06_08h17.11.301,HF_wild_card,2022.2.4,Win32,20,613e495d5991ed54f860fe9d,64ce5acb97489d65b14ecc7a,64cf48e13ccc184204e6f744,,,,,,,decisionTrl,resources/DR.BMP,resources/DY.BMP,Door3,0.24625,0.00625,1,0,0,0.961,optionRight,70,7410,4,2,0,2,0,1,,,,,,,,,,,,,,,,,,,,,,,,,,,,,,,,,,,,,,,
,,,,,,,,2023-08-06_08h17.11.301,HF_wild_card,2022.2.4,Win32,20,613e495d5991ed54f860fe9d,64ce5acb97489d65b14ecc7a,64cf48e13ccc184204e6f744,,,,,,,decisionTrl,resources/DP.BMP,resources/DG.BMP,Door1,-0.15875,-0.00875,1,0,0,1.692,optionLeft,30,7440,4,3,0,3,0,1,,,,,,,,,,,,,,,,,,,,,,,,,,,,,,,,,,,,,,,
,,,,,,,,2023-08-06_08h17.11.301,HF_wild_card,2022.2.4,Win32,20,613e495d5991ed54f860fe9d,64ce5acb97489d65b14ecc7a,64cf48e13ccc184204e6f744,,,,,,,decisionTrl,resources/DR.BMP,resources/DBN.BMP,Door4,0.2525,-0.00625,1,0,0,1.099,optionRight,80,7520,4,4,0,4,0,1,,,,,,,,,,,,,,,,,,,,,,,,,,,,,,,,,,,,,,,
,,,,,,,,2023-08-06_08h17.11.301,HF_wild_card,2022.2.4,Win32,20,613e495d5991ed54f860fe9d,64ce5acb97489d65b14ecc7a,64cf48e13ccc184204e6f744,,,,,,,decisionTrl,resources/DP.BMP,resources/DG.BMP,Door1,-0.11375,-0.0025,1,0,0,1.661,optionLeft,30,7550,4,5,0,5,0,1,,,,,,,,,,,,,,,,,,,,,,,,,,,,,,,,,,,,,,,
,,,,,,,,2023-08-06_08h17.11.301,HF_wild_card,2022.2.4,Win32,20,613e495d5991ed54f860fe9d,64ce5acb97489d65b14ecc7a,64cf48e13ccc184204e6f744,,,,,,,decisionTrl,resources/DG.BMP,resources/DP.BMP,Door1,0.2175,-0.01875,1,0,0,0.977,optionRight,30,7580,4,6,0,6,0,1,,,,,,,,,,,,,,,,,,,,,,,,,,,,,,,,,,,,,,,
,,,,,,,,2023-08-06_08h17.11.301,HF_wild_card,2022.2.4,Win32,20,613e495d5991ed54f860fe9d,64ce5acb97489d65b14ecc7a,64cf48e13ccc184204e6f744,,,,,,,sngl,resources/DR.BMP,resources/Empty.png,WildCard_Ex,-0.28125,-0.01,1,0,0,1.362,optionLeft,5,7585,4,7,0,7,0,1,,,,,,,,,,,,,,,,,,,,,,,,,,,,,,,,,,,,,,,
,,,,,,,,2023-08-06_08h17.11.301,HF_wild_card,2022.2.4,Win32,20,613e495d5991ed54f860fe9d,64ce5acb97489d65b14ecc7a,64cf48e13ccc184204e6f744,,,,,,,ctch,resources/DY.BMP,resources/DG.BMP,Door3,-0.23375,-0.01625,1,0,0,1.415,optionLeft,70,7655,4,8,0,8,0,1,,,,,,,,,,,,,,,,,,,,,,,,,,,,,,,,,,,,,,,
,,,,,,,,2023-08-06_08h17.11.301,HF_wild_card,2022.2.4,Win32,20,613e495d5991ed54f860fe9d,64ce5acb97489d65b14ecc7a,64cf48e13ccc184204e6f744,,,,,,,ctch,resources/DP.BMP,resources/DBN.BMP,Door4,0.17,-0.01625,1,0,0,1.181,optionRight,80,7735,4,9,0,9,0,1,,,,,,,,,,,,,,,,,,,,,,,,,,,,,,,,,,,,,,,
,,,,,,,,2023-08-06_08h17.11.301,HF_wild_card,2022.2.4,Win32,20,613e495d5991ed54f860fe9d,64ce5acb97489d65b14ecc7a,64cf48e13ccc184204e6f744,,,,,,,sngl,resources/Empty.png,resources/DP.BMP,Door1,0.24125,-0.00875,1,0,0,1.211,optionRight,30,7765,4,10,0,10,0,1,,,,,,,,,,,,,,,,,,,,,,,,,,,,,,,,,,,,,,,
,,,,,,,,2023-08-06_08h17.11.301,HF_wild_card,2022.2.4,Win32,20,613e495d5991ed54f860fe9d,64ce5acb97489d65b14ecc7a,64cf48e13ccc184204e6f744,,,,,,,decisionTrl,resources/DY.BMP,resources/DBN.BMP,Door3,-0.16,-0.0075,1,0,0,1.465,optionLeft,70,7835,4,11,0,11,0,1,,,,,,,,,,,,,,,,,,,,,,,,,,,,,,,,,,,,,,,
,,,,,,,,2023-08-06_08h17.11.301,HF_wild_card,2022.2.4,Win32,20,613e495d5991ed54f860fe9d,64ce5acb97489d65b14ecc7a,64cf48e13ccc184204e6f744,,,,,,,decisionTrl,resources/DG.BMP,resources/DP.BMP,Door1,0.20625,-0.00125,1,0,0,1.478,optionRight,30,7865,4,12,0,12,0,1,,,,,,,,,,,,,,,,,,,,,,,,,,,,,,,,,,,,,,,
,,,,,,,,2023-08-06_08h17.11.301,HF_wild_card,2022.2.4,Win32,20,613e495d5991ed54f860fe9d,64ce5acb97489d65b14ecc7a,64cf48e13ccc184204e6f744,,,,,,,decisionTrl,resources/DY.BMP,resources/DBN.BMP,Door3,-0.185,-0.01375,1,0,0,1.08,optionLeft,70,7935,4,13,0,13,0,1,,,,,,,,,,,,,,,,,,,,,,,,,,,,,,,,,,,,,,,
,,,,,,,,2023-08-06_08h17.11.301,HF_wild_card,2022.2.4,Win32,20,613e495d5991ed54f860fe9d,64ce5acb97489d65b14ecc7a,64cf48e13ccc184204e6f744,,,,,,,sngl,resources/Empty.png,resources/DBN.BMP,Door4,0.2725,-0.0125,1,0,0,0.817,optionRight,80,8015,4,14,0,14,0,1,,,,,,,,,,,,,,,,,,,,,,,,,,,,,,,,,,,,,,,
,,,,,,,,2023-08-06_08h17.11.301,HF_wild_card,2022.2.4,Win32,20,613e495d5991ed54f860fe9d,64ce5acb97489d65b14ecc7a,64cf48e13ccc184204e6f744,,,,,,,sngl,resources/DR.BMP,resources/Empty.png,WildCard_Ex,-0.1775,-0.015,1,0,0,1.136,optionLeft,95,8110,4,15,0,15,0,1,,,,,,,,,,,,,,,,,,,,,,,,,,,,,,,,,,,,,,,
,,,,,,,,2023-08-06_08h17.11.301,HF_wild_card,2022.2.4,Win32,20,613e495d5991ed54f860fe9d,64ce5acb97489d65b14ecc7a,64cf48e13ccc184204e6f744,,,,,,,sngl,resources/DBN.BMP,resources/Empty.png,Door4,-0.13125,-0.01875,1,0,0,1.058,optionLeft,60,8170,4,16,0,16,0,1,,,,,,,,,,,,,,,,,,,,,,,,,,,,,,,,,,,,,,,
,,,,,,,,2023-08-06_08h17.11.301,HF_wild_card,2022.2.4,Win32,20,613e495d5991ed54f860fe9d,64ce5acb97489d65b14ecc7a,64cf48e13ccc184204e6f744,,,,,,,decisionTrl,resources/DR.BMP,resources/DP.BMP,WildCard_Ex,-0.1325,-0.0225,1,0,0,2.338,optionLeft,5,8175,4,17,0,17,0,1,,,,,,,,,,,,,,,,,,,,,,,,,,,,,,,,,,,,,,,
,,,,,,,,2023-08-06_08h17.11.301,HF_wild_card,2022.2.4,Win32,20,613e495d5991ed54f860fe9d,64ce5acb97489d65b14ecc7a,64cf48e13ccc184204e6f744,,,,,,,sngl,resources/Empty.png,resources/DY.BMP,Door3,0.21625,-0.02,1,0,0,0.75,optionRight,70,8245,4,18,0,18,0,1,,,,,,,,,,,,,,,,,,,,,,,,,,,,,,,,,,,,,,,
,,,,,,,,2023-08-06_08h17.11.301,HF_wild_card,2022.2.4,Win32,20,613e495d5991ed54f860fe9d,64ce5acb97489d65b14ecc7a,64cf48e13ccc184204e6f744,,,,,,,decisionTrl,resources/DY.BMP,resources/DBN.BMP,Door4,0.31875,0.01125,1,0,0,2.288,optionRight,60,8305,4,19,0,19,0,1,,,,,,,,,,,,,,,,,,,,,,,,,,,,,,,,,,,,,,,
,,,,,,,,2023-08-06_08h17.11.301,HF_wild_card,2022.2.4,Win32,20,613e495d5991ed54f860fe9d,64ce5acb97489d65b14ecc7a,64cf48e13ccc184204e6f744,,,,,,,ctch,resources/DBN.BMP,resources/DP.BMP,Door4,-0.2275,0.0025,1,0,0,1.339,optionLeft,80,8385,4,20,0,20,0,1,,,,,,,,,,,,,,,,,,,,,,,,,,,,,,,,,,,,,,,
,,,,,,,,2023-08-06_08h17.11.301,HF_wild_card,2022.2.4,Win32,20,613e495d5991ed54f860fe9d,64ce5acb97489d65b14ecc7a,64cf48e13ccc184204e6f744,,,,,,,ctch,resources/DG.BMP,resources/DY.BMP,Door3,0.26,-0.0125,1,0,0,1.141,optionRight,70,8455,4,21,0,21,0,1,,,,,,,,,,,,,,,,,,,,,,,,,,,,,,,,,,,,,,,
,,,,,,,,2023-08-06_08h17.11.301,HF_wild_card,2022.2.4,Win32,20,613e495d5991ed54f860fe9d,64ce5acb97489d65b14ecc7a,64cf48e13ccc184204e6f744,,,,,,,ctch,resources/DBN.BMP,resources/DP.BMP,Door4,-0.29375,-0.0125,1,0,0,1.097,optionLeft,80,8535,4,22,0,22,0,1,,,,,,,,,,,,,,,,,,,,,,,,,,,,,,,,,,,,,,,
,,,,,,,,2023-08-06_08h17.11.301,HF_wild_card,2022.2.4,Win32,20,613e495d5991ed54f860fe9d,64ce5acb97489d65b14ecc7a,64cf48e13ccc184204e6f744,,,,,,,decisionTrl,resources/DBN.BMP,resources/DY.BMP,Door3,0.2175,-0.02125,1,0,0,1.297,optionRight,70,8605,4,23,0,23,0,1,,,,,,,,,,,,,,,,,,,,,,,,,,,,,,,,,,,,,,,
,,,,,,,,2023-08-06_08h17.11.301,HF_wild_card,2022.2.4,Win32,20,613e495d5991ed54f860fe9d,64ce5acb97489d65b14ecc7a,64cf48e13ccc184204e6f744,,,,,,,ctch,resources/DY.BMP,resources/DG.BMP,Door3,-0.36375,-0.03625,1,0,0,1.309,optionLeft,70,8675,4,24,0,24,0,1,,,,,,,,,,,,,,,,,,,,,,,,,,,,,,,,,,,,,,,
,,,,,,,,2023-08-06_08h17.11.301,HF_wild_card,2022.2.4,Win32,20,613e495d5991ed54f860fe9d,64ce5acb97489d65b14ecc7a,64cf48e13ccc184204e6f744,,,,,,,sngl,resources/Empty.png,resources/DG.BMP,Door2,0.28125,-0.00375,1,0,0,2.079,optionRight,40,8715,4,25,0,25,0,1,,,,,,,,,,,,,,,,,,,,,,,,,,,,,,,,,,,,,,,
,,,,,,,,2023-08-06_08h17.11.301,HF_wild_card,2022.2.4,Win32,20,613e495d5991ed54f860fe9d,64ce5acb97489d65b14ecc7a,64cf48e13ccc184204e6f744,,,,,,,decisionTrl,resources/DR.BMP,resources/DG.BMP,Door2,0.30875,0.0025,1,0,0,1.886,optionRight,40,8755,4,26,0,26,0,1,,,,,,,,,,,,,,,,,,,,,,,,,,,,,,,,,,,,,,,
,,,,,,,,2023-08-06_08h17.11.301,HF_wild_card,2022.2.4,Win32,20,613e495d5991ed54f860fe9d,64ce5acb97489d65b14ecc7a,64cf48e13ccc184204e6f744,,,,,,,decisionTrl,resources/DBN.BMP,resources/DY.BMP,Door3,0.2275,0.0075,1,0,0,1.359,optionRight,70,8825,4,27,0,27,0,1,,,,,,,,,,,,,,,,,,,,,,,,,,,,,,,,,,,,,,,
,,,,,,,,2023-08-06_08h17.11.301,HF_wild_card,2022.2.4,Win32,20,613e495d5991ed54f860fe9d,64ce5acb97489d65b14ecc7a,64cf48e13ccc184204e6f744,,,,,,,ctch,resources/DP.BMP,resources/DBN.BMP,Door4,0.26875,0.01125,1,0,0,1.74,optionRight,80,8905,4,28,0,28,0,1,,,,,,,,,,,,,,,,,,,,,,,,,,,,,,,,,,,,,,,
,,,,,,,,2023-08-06_08h17.11.301,HF_wild_card,2022.2.4,Win32,20,613e495d5991ed54f860fe9d,64ce5acb97489d65b14ecc7a,64cf48e13ccc184204e6f744,,,,,,,decisionTrl,resources/DBN.BMP,resources/DY.BMP,Door3,0.21125,0.005,1,0,0,1.648,optionRight,70,8975,4,29,0,29,0,1,,,,,,,,,,,,,,,,,,,,,,,,,,,,,,,,,,,,,,,
,,,,,,,,2023-08-06_08h17.11.301,HF_wild_card,2022.2.4,Win32,20,613e495d5991ed54f860fe9d,64ce5acb97489d65b14ecc7a,64cf48e13ccc184204e6f744,,,,,,,decisionTrl,resources/DG.BMP,resources/DP.BMP,Door1,0.24375,-0.00375,1,0,0,1.629,optionRight,30,9005,4,30,0,30,0,1,,,,,,,,,,,,,,,,,,,,,,,,,,,,,,,,,,,,,,,
,,,,,,,,2023-08-06_08h17.11.301,HF_wild_card,2022.2.4,Win32,20,613e495d5991ed54f860fe9d,64ce5acb97489d65b14ecc7a,64cf48e13ccc184204e6f744,,,,,,,decisionTrl,resources/DY.BMP,resources/DR.BMP,Door3,-0.20125,-0.01,1,0,0,1.446,optionLeft,70,9075,4,31,0,31,0,1,,,,,,,,,,,,,,,,,,,,,,,,,,,,,,,,,,,,,,,
,,,,,,,,2023-08-06_08h17.11.301,HF_wild_card,2022.2.4,Win32,20,613e495d5991ed54f860fe9d,64ce5acb97489d65b14ecc7a,64cf48e13ccc184204e6f744,,,,,,,sngl,resources/DP.BMP,resources/Empty.png,Door1,-0.215,-0.00875,1,0,0,0.984,optionLeft,30,9105,4,32,0,32,0,1,,,,,,,,,,,,,,,,,,,,,,,,,,,,,,,,,,,,,,,
,,,,,,,,2023-08-06_08h17.11.301,HF_wild_card,2022.2.4,Win32,20,613e495d5991ed54f860fe9d,64ce5acb97489d65b14ecc7a,64cf48e13ccc184204e6f744,,,,,,,decisionTrl,resources/DP.BMP,resources/DG.BMP,Door2,0.37125,-0.0125,1,0,0,1.577,optionRight,20,9125,4,33,0,33,0,1,,,,,,,,,,,,,,,,,,,,,,,,,,,,,,,,,,,,,,,
,,,,,,,,2023-08-06_08h17.11.301,HF_wild_card,2022.2.4,Win32,20,613e495d5991ed54f860fe9d,64ce5acb97489d65b14ecc7a,64cf48e13ccc184204e6f744,,,,,,,sngl,resources/Empty.png,resources/DR.BMP,WildCard_Ex,0.37875,-0.0075,1,0,0,1.257,optionRight,95,9220,4,34,0,34,0,1,,,,,,,,,,,,,,,,,,,,,,,,,,,,,,,,,,,,,,,
,,,,,,,,2023-08-06_08h17.11.301,HF_wild_card,2022.2.4,Win32,20,613e495d5991ed54f860fe9d,64ce5acb97489d65b14ecc7a,64cf48e13ccc184204e6f744,,,,,,,sngl,resources/Empty.png,resources/DR.BMP,WildCard_Ex,0.33875,0.0025,1,0,0,0.815,optionRight,5,9225,4,35,0,35,0,1,,,,,,,,,,,,,,,,,,,,,,,,,,,,,,,,,,,,,,,
,,,,,,,,2023-08-06_08h17.11.301,HF_wild_card,2022.2.4,Win32,20,613e495d5991ed54f860fe9d,64ce5acb97489d65b14ecc7a,64cf48e13ccc184204e6f744,,,,,,,decisionTrl,resources/DY.BMP,resources/DBN.BMP,Door3,-0.31125,0.0075,1,0,0,1.88,optionLeft,70,9295,4,36,0,36,0,1,,,,,,,,,,,,,,,,,,,,,,,,,,,,,,,,,,,,,,,
,,,,,,,,2023-08-06_08h17.11.301,HF_wild_card,2022.2.4,Win32,20,613e495d5991ed54f860fe9d,64ce5acb97489d65b14ecc7a,64cf48e13ccc184204e6f744,,,,,,,decisionTrl,resources/DBN.BMP,resources/DR.BMP,Door4,-0.2625,-0.02,1,0,0,1.795,optionLeft,60,9355,4,37,0,37,0,1,,,,,,,,,,,,,,,,,,,,,,,,,,,,,,,,,,,,,,,
,,,,,,,,2023-08-06_08h17.11.301,HF_wild_card,2022.2.4,Win32,20,613e495d5991ed54f860fe9d,64ce5acb97489d65b14ecc7a,64cf48e13ccc184204e6f744,,,,,,,sngl,resources/DG.BMP,resources/Empty.png,Door2,-0.2925,-0.02875,1,0,0,1.259,optionLeft,20,9375,4,38,0,38,0,1,,,,,,,,,,,,,,,,,,,,,,,,,,,,,,,,,,,,,,,
,,,,,,,,2023-08-06_08h17.11.301,HF_wild_card,2022.2.4,Win32,20,613e495d5991ed54f860fe9d,64ce5acb97489d65b14ecc7a,64cf48e13ccc184204e6f744,,,,,,,ctch,resources/DG.BMP,resources/DY.BMP,Door3,0.2975,0.015,1,0,0,0.887,optionRight,70,9445,4,39,0,39,0,1,,,,,,,,,,,,,,,,,,,,,,,,,,,,,,,,,,,,,,,
,,,,,,,,2023-08-06_08h17.11.301,HF_wild_card,2022.2.4,Win32,20,613e495d5991ed54f860fe9d,64ce5acb97489d65b14ecc7a,64cf48e13ccc184204e6f744,,,,,,,decisionTrl,resources/DG.BMP,resources/DP.BMP,Door1,0.20875,-0.00625,1,0,0,1.494,optionRight,30,9475,4,40,0,40,0,1,,,,,,,,,,,,,,,,,,,,,,,,,,,,,,,,,,,,,,,
,,,,,,,,2023-08-06_08h17.11.301,HF_wild_card,2022.2.4,Win32,20,613e495d5991ed54f860fe9d,64ce5acb97489d65b14ecc7a,64cf48e13ccc184204e6f744,,,,,,,decisionTrl,resources/DP.BMP,resources/DR.BMP,Door1,-0.13625,-0.005,1,0,0,1.533,optionLeft,30,9505,4,41,0,41,0,1,,,,,,,,,,,,,,,,,,,,,,,,,,,,,,,,,,,,,,,
,,,,,,,,2023-08-06_08h17.11.301,HF_wild_card,2022.2.4,Win32,20,613e495d5991ed54f860fe9d,64ce5acb97489d65b14ecc7a,64cf48e13ccc184204e6f744,,,,,,,sngl,resources/DY.BMP,resources/Empty.png,Door3,-0.19125,0.00625,1,0,0,0.804,optionLeft,70,9575,4,42,0,42,0,1,,,,,,,,,,,,,,,,,,,,,,,,,,,,,,,,,,,,,,,
,,,,,,,,2023-08-06_08h17.11.301,HF_wild_card,2022.2.4,Win32,20,613e495d5991ed54f860fe9d,64ce5acb97489d65b14ecc7a,64cf48e13ccc184204e6f744,,,,,,,decisionTrl,resources/DP.BMP,resources/DG.BMP,Door1,-0.2075,-0.00625,1,0,0,1.335,optionLeft,30,9605,4,43,0,43,0,1,,,,,,,,,,,,,,,,,,,,,,,,,,,,,,,,,,,,,,,
,,,,,,,,2023-08-06_08h17.11.301,HF_wild_card,2022.2.4,Win32,20,613e495d5991ed54f860fe9d,64ce5acb97489d65b14ecc7a,64cf48e13ccc184204e6f744,,,,,,,,,,,,,,,,,,,,,,,,,,3,0,3,0,1,,,,,,,,,,,,,,,,,,,,,,,,,,,,,,,,,,
,,,,,,,,2023-08-06_08h17.11.301,HF_wild_card,2022.2.4,Win32,20,613e495d5991ed54f860fe9d,64ce5acb97489d65b14ecc7a,64cf48e13ccc184204e6f744,,,,,,,sngl,resources/DY.BMP,resources/Empty.png,Door3,-0.2975,-0.13,1,0,0,0.744,optionLeft,70,9675,5,0,0,0,0,1,,,,,,,,,,,,,,,,,,,,,,,,,,,,,,,,,,,,,,,
,,,,,,,,2023-08-06_08h17.11.301,HF_wild_card,2022.2.4,Win32,20,613e495d5991ed54f860fe9d,64ce5acb97489d65b14ecc7a,64cf48e13ccc184204e6f744,,,,,,,ctch,resources/DG.BMP,resources/DY.BMP,Door3,0.34125,0.0225,1,0,0,1.227,optionRight,70,9745,5,1,0,1,0,1,,,,,,,,,,,,,,,,,,,,,,,,,,,,,,,,,,,,,,,
,,,,,,,,2023-08-06_08h17.11.301,HF_wild_card,2022.2.4,Win32,20,613e495d5991ed54f860fe9d,64ce5acb97489d65b14ecc7a,64cf48e13ccc184204e6f744,,,,,,,ctch,resources/DY.BMP,resources/DG.BMP,Door3,-0.3175,-0.0025,1,0,0,1.379,optionLeft,70,9815,5,2,0,2,0,1,,,,,,,,,,,,,,,,,,,,,,,,,,,,,,,,,,,,,,,
,,,,,,,,2023-08-06_08h17.11.301,HF_wild_card,2022.2.4,Win32,20,613e495d5991ed54f860fe9d,64ce5acb97489d65b14ecc7a,64cf48e13ccc184204e6f744,,,,,,,sngl,resources/DR.BMP,resources/Empty.png,WildCard_Ex,-0.30125,-0.0175,1,0,0,1.041,optionLeft,95,9910,5,3,0,3,0,1,,,,,,,,,,,,,,,,,,,,,,,,,,,,,,,,,,,,,,,
,,,,,,,,2023-08-06_08h17.11.301,HF_wild_card,2022.2.4,Win32,20,613e495d5991ed54f860fe9d,64ce5acb97489d65b14ecc7a,64cf48e13ccc184204e6f744,,,,,,,sngl,resources/Empty.png,resources/DR.BMP,WildCard_Ex,0.3675,0,1,0,0,0.784,optionRight,95,10005,5,4,0,4,0,1,,,,,,,,,,,,,,,,,,,,,,,,,,,,,,,,,,,,,,,
,,,,,,,,2023-08-06_08h17.11.301,HF_wild_card,2022.2.4,Win32,20,613e495d5991ed54f860fe9d,64ce5acb97489d65b14ecc7a,64cf48e13ccc184204e6f744,,,,,,,decisionTrl,resources/DY.BMP,resources/DBN.BMP,Door3,-0.245,-0.00625,1,0,0,1.872,optionLeft,70,10075,5,5,0,5,0,1,,,,,,,,,,,,,,,,,,,,,,,,,,,,,,,,,,,,,,,
,,,,,,,,2023-08-06_08h17.11.301,HF_wild_card,2022.2.4,Win32,20,613e495d5991ed54f860fe9d,64ce5acb97489d65b14ecc7a,64cf48e13ccc184204e6f744,,,,,,,decisionTrl,resources/DY.BMP,resources/DBN.BMP,Door4,0.355,-0.015,1,0,0,0.867,optionRight,60,10135,5,6,0,6,0,1,,,,,,,,,,,,,,,,,,,,,,,,,,,,,,,,,,,,,,,
,,,,,,,,2023-08-06_08h17.11.301,HF_wild_card,2022.2.4,Win32,20,613e495d5991ed54f860fe9d,64ce5acb97489d65b14ecc7a,64cf48e13ccc184204e6f744,,,,,,,decisionTrl,resources/DR.BMP,resources/DP.BMP,WildCard_Ex,-0.1675,-0.025,1,0,0,1.216,optionLeft,5,10140,5,7,0,7,0,1,,,,,,,,,,,,,,,,,,,,,,,,,,,,,,,,,,,,,,,
,,,,,,,,2023-08-06_08h17.11.301,HF_wild_card,2022.2.4,Win32,20,613e495d5991ed54f860fe9d,64ce5acb97489d65b14ecc7a,64cf48e13ccc184204e6f744,,,,,,,decisionTrl,resources/DR.BMP,resources/DY.BMP,WildCard_Ex,-0.185,-0.03,1,0,0,2.147,optionLeft,95,10235,5,8,0,8,0,1,,,,,,,,,,,,,,,,,,,,,,,,,,,,,,,,,,,,,,,
,,,,,,,,2023-08-06_08h17.11.301,HF_wild_card,2022.2.4,Win32,20,613e495d5991ed54f860fe9d,64ce5acb97489d65b14ecc7a,64cf48e13ccc184204e6f744,,,,,,,decisionTrl,resources/DP.BMP,resources/DG.BMP,Door1,-0.19875,-0.0175,1,0,0,1.408,optionLeft,30,10265,5,9,0,9,0,1,,,,,,,,,,,,,,,,,,,,,,,,,,,,,,,,,,,,,,,
,,,,,,,,2023-08-06_08h17.11.301,HF_wild_card,2022.2.4,Win32,20,613e495d5991ed54f860fe9d,64ce5acb97489d65b14ecc7a,64cf48e13ccc184204e6f744,,,,,,,decisionTrl,resources/DBN.BMP,resources/DY.BMP,Door3,0.29625,-0.02625,1,0,0,1.709,optionRight,70,10335,5,10,0,10,0,1,,,,,,,,,,,,,,,,,,,,,,,,,,,,,,,,,,,,,,,
,,,,,,,,2023-08-06_08h17.11.301,HF_wild_card,2022.2.4,Win32,20,613e495d5991ed54f860fe9d,64ce5acb97489d65b14ecc7a,64cf48e13ccc184204e6f744,,,,,,,sngl,resources/Empty.png,resources/DP.BMP,Door1,0.31375,-0.0075,1,0,0,0.897,optionRight,30,10365,5,11,0,11,0,1,,,,,,,,,,,,,,,,,,,,,,,,,,,,,,,,,,,,,,,
,,,,,,,,2023-08-06_08h17.11.301,HF_wild_card,2022.2.4,Win32,20,613e495d5991ed54f860fe9d,64ce5acb97489d65b14ecc7a,64cf48e13ccc184204e6f744,,,,,,,sngl,resources/DP.BMP,resources/Empty.png,Door1,-0.32625,-0.01125,1,0,0,2.109,optionLeft,30,10395,5,12,0,12,0,1,,,,,,,,,,,,,,,,,,,,,,,,,,,,,,,,,,,,,,,
,,,,,,,,2023-08-06_08h17.11.301,HF_wild_card,2022.2.4,Win32,20,613e495d5991ed54f860fe9d,64ce5acb97489d65b14ecc7a,64cf48e13ccc184204e6f744,,,,,,,decisionTrl,resources/DBN.BMP,resources/DR.BMP,Door4,-0.17125,0.00875,1,0,0,1.694,optionLeft,60,10455,5,13,0,13,0,1,,,,,,,,,,,,,,,,,,,,,,,,,,,,,,,,,,,,,,,
,,,,,,,,2023-08-06_08h17.11.301,HF_wild_card,2022.2.4,Win32,20,613e495d5991ed54f860fe9d,64ce5acb97489d65b14ecc7a,64cf48e13ccc184204e6f744,,,,,,,decisionTrl,resources/DBN.BMP,resources/DY.BMP,Door3,0.21875,0.03,1,0,0,1.375,optionRight,70,10525,5,14,0,14,0,1,,,,,,,,,,,,,,,,,,,,,,,,,,,,,,,,,,,,,,,
,,,,,,,,2023-08-06_08h17.11.301,HF_wild_card,2022.2.4,Win32,20,613e495d5991ed54f860fe9d,64ce5acb97489d65b14ecc7a,64cf48e13ccc184204e6f744,,,,,,,decisionTrl,resources/DP.BMP,resources/DR.BMP,WildCard_Ex,0.25,0.00125,1,0,0,2.034,optionRight,95,10620,5,15,0,15,0,1,,,,,,,,,,,,,,,,,,,,,,,,,,,,,,,,,,,,,,,
,,,,,,,,2023-08-06_08h17.11.301,HF_wild_card,2022.2.4,Win32,20,613e495d5991ed54f860fe9d,64ce5acb97489d65b14ecc7a,64cf48e13ccc184204e6f744,,,,,,,ctch,resources/DY.BMP,resources/DG.BMP,Door3,-0.1825,0,1,0,0,2.796,optionLeft,70,10690,5,16,0,16,0,1,,,,,,,,,,,,,,,,,,,,,,,,,,,,,,,,,,,,,,,
,,,,,,,,2023-08-06_08h17.11.301,HF_wild_card,2022.2.4,Win32,20,613e495d5991ed54f860fe9d,64ce5acb97489d65b14ecc7a,64cf48e13ccc184204e6f744,,,,,,,ctch,resources/DP.BMP,resources/DBN.BMP,Door4,0.29625,-0.00375,1,0,0,1.305,optionRight,80,10770,5,17,0,17,0,1,,,,,,,,,,,,,,,,,,,,,,,,,,,,,,,,,,,,,,,
,,,,,,,,2023-08-06_08h17.11.301,HF_wild_card,2022.2.4,Win32,20,613e495d5991ed54f860fe9d,64ce5acb97489d65b14ecc7a,64cf48e13ccc184204e6f744,,,,,,,sngl,resources/DBN.BMP,resources/Empty.png,Door4,-0.21625,0.01375,1,0,0,0.843,optionLeft,80,10850,5,18,0,18,0,1,,,,,,,,,,,,,,,,,,,,,,,,,,,,,,,,,,,,,,,
,,,,,,,,2023-08-06_08h17.11.301,HF_wild_card,2022.2.4,Win32,20,613e495d5991ed54f860fe9d,64ce5acb97489d65b14ecc7a,64cf48e13ccc184204e6f744,,,,,,,sngl,resources/Empty.png,resources/DY.BMP,Door3,0.35875,-0.025,1,0,0,0.878,optionRight,70,10920,5,19,0,19,0,1,,,,,,,,,,,,,,,,,,,,,,,,,,,,,,,,,,,,,,,
,,,,,,,,2023-08-06_08h17.11.301,HF_wild_card,2022.2.4,Win32,20,613e495d5991ed54f860fe9d,64ce5acb97489d65b14ecc7a,64cf48e13ccc184204e6f744,,,,,,,sngl,resources/Empty.png,resources/DR.BMP,WildCard_Ex,0.405,-0.03375,1,0,0,0.889,optionRight,5,10925,5,20,0,20,0,1,,,,,,,,,,,,,,,,,,,,,,,,,,,,,,,,,,,,,,,
,,,,,,,,2023-08-06_08h17.11.301,HF_wild_card,2022.2.4,Win32,20,613e495d5991ed54f860fe9d,64ce5acb97489d65b14ecc7a,64cf48e13ccc184204e6f744,,,,,,,decisionTrl,resources/DG.BMP,resources/DP.BMP,Door1,0.30625,-0.005,1,0,0,1.341,optionRight,30,10955,5,21,0,21,0,1,,,,,,,,,,,,,,,,,,,,,,,,,,,,,,,,,,,,,,,
,,,,,,,,2023-08-06_08h17.11.301,HF_wild_card,2022.2.4,Win32,20,613e495d5991ed54f860fe9d,64ce5acb97489d65b14ecc7a,64cf48e13ccc184204e6f744,,,,,,,decisionTrl,resources/DG.BMP,resources/DP.BMP,Door1,0.37,-0.0125,1,0,0,0.804,optionRight,30,10985,5,22,0,22,0,1,,,,,,,,,,,,,,,,,,,,,,,,,,,,,,,,,,,,,,,
,,,,,,,,2023-08-06_08h17.11.301,HF_wild_card,2022.2.4,Win32,20,613e495d5991ed54f860fe9d,64ce5acb97489d65b14ecc7a,64cf48e13ccc184204e6f744,,,,,,,ctch,resources/DP.BMP,resources/DBN.BMP,Door4,0.405,-0.01875,1,0,0,0.801,optionRight,60,11045,5,23,0,23,0,1,,,,,,,,,,,,,,,,,,,,,,,,,,,,,,,,,,,,,,,
,,,,,,,,2023-08-06_08h17.11.301,HF_wild_card,2022.2.4,Win32,20,613e495d5991ed54f860fe9d,64ce5acb97489d65b14ecc7a,64cf48e13ccc184204e6f744,,,,,,,decisionTrl,resources/DG.BMP,resources/DP.BMP,Door1,0.47,-0.03,1,0,0,1.692,optionRight,30,11075,5,24,0,24,0,1,,,,,,,,,,,,,,,,,,,,,,,,,,,,,,,,,,,,,,,
,,,,,,,,2023-08-06_08h17.11.301,HF_wild_card,2022.2.4,Win32,20,613e495d5991ed54f860fe9d,64ce5acb97489d65b14ecc7a,64cf48e13ccc184204e6f744,,,,,,,decisionTrl,resources/DR.BMP,resources/DBN.BMP,Door4,0.2225,0.01375,1,0,0,1.636,optionRight,80,11155,5,25,0,25,0,1,,,,,,,,,,,,,,,,,,,,,,,,,,,,,,,,,,,,,,,
,,,,,,,,2023-08-06_08h17.11.301,HF_wild_card,2022.2.4,Win32,20,613e495d5991ed54f860fe9d,64ce5acb97489d65b14ecc7a,64cf48e13ccc184204e6f744,,,,,,,decisionTrl,resources/DY.BMP,resources/DBN.BMP,Door4,0.245,-0.0225,1,0,0,1.566,optionRight,80,11235,5,26,0,26,0,1,,,,,,,,,,,,,,,,,,,,,,,,,,,,,,,,,,,,,,,
,,,,,,,,2023-08-06_08h17.11.301,HF_wild_card,2022.2.4,Win32,20,613e495d5991ed54f860fe9d,64ce5acb97489d65b14ecc7a,64cf48e13ccc184204e6f744,,,,,,,sngl,resources/Empty.png,resources/DG.BMP,Door2,0.395,-0.01625,1,0,0,0.925,optionRight,20,11255,5,27,0,27,0,1,,,,,,,,,,,,,,,,,,,,,,,,,,,,,,,,,,,,,,,
,,,,,,,,2023-08-06_08h17.11.301,HF_wild_card,2022.2.4,Win32,20,613e495d5991ed54f860fe9d,64ce5acb97489d65b14ecc7a,64cf48e13ccc184204e6f744,,,,,,,ctch,resources/DG.BMP,resources/DY.BMP,Door3,0.39375,-0.015,1,0,0,1.219,optionRight,70,11325,5,28,0,28,0,1,,,,,,,,,,,,,,,,,,,,,,,,,,,,,,,,,,,,,,,
,,,,,,,,2023-08-06_08h17.11.301,HF_wild_card,2022.2.4,Win32,20,613e495d5991ed54f860fe9d,64ce5acb97489d65b14ecc7a,64cf48e13ccc184204e6f744,,,,,,,decisionTrl,resources/DBN.BMP,resources/DY.BMP,Door4,-0.215,0.00125,1,0,0,1.652,optionLeft,60,11385,5,29,0,29,0,1,,,,,,,,,,,,,,,,,,,,,,,,,,,,,,,,,,,,,,,
,,,,,,,,2023-08-06_08h17.11.301,HF_wild_card,2022.2.4,Win32,20,613e495d5991ed54f860fe9d,64ce5acb97489d65b14ecc7a,64cf48e13ccc184204e6f744,,,,,,,sngl,resources/DG.BMP,resources/Empty.png,Door2,-0.2125,0.0175,1,0,0,0.681,optionLeft,40,11425,5,30,0,30,0,1,,,,,,,,,,,,,,,,,,,,,,,,,,,,,,,,,,,,,,,
,,,,,,,,2023-08-06_08h17.11.301,HF_wild_card,2022.2.4,Win32,20,613e495d5991ed54f860fe9d,64ce5acb97489d65b14ecc7a,64cf48e13ccc184204e6f744,,,,,,,decisionTrl,resources/DY.BMP,resources/DR.BMP,WildCard_Ex,0.305,-0.02625,1,0,0,1.521,optionRight,95,11520,5,31,0,31,0,1,,,,,,,,,,,,,,,,,,,,,,,,,,,,,,,,,,,,,,,
,,,,,,,,2023-08-06_08h17.11.301,HF_wild_card,2022.2.4,Win32,20,613e495d5991ed54f860fe9d,64ce5acb97489d65b14ecc7a,64cf48e13ccc184204e6f744,,,,,,,ctch,resources/DBN.BMP,resources/DP.BMP,Door4,0,-0.01125,0,0,1,0.639,optionLeft,60,11580,5,32,0,32,0,1,,,,,,,,,,,,,,,,,,,,,,,,,,,,,,,,,,,,,,,
,,,,,,,,2023-08-06_08h17.11.301,HF_wild_card,2022.2.4,Win32,20,613e495d5991ed54f860fe9d,64ce5acb97489d65b14ecc7a,64cf48e13ccc184204e6f744,,,,,,,decisionTrl,resources/DR.BMP,resources/DG.BMP,Door2,0.26875,-0.00875,1,0,0,2.181,optionRight,40,11620,5,33,0,33,0,1,,,,,,,,,,,,,,,,,,,,,,,,,,,,,,,,,,,,,,,
,,,,,,,,2023-08-06_08h17.11.301,HF_wild_card,2022.2.4,Win32,20,613e495d5991ed54f860fe9d,64ce5acb97489d65b14ecc7a,64cf48e13ccc184204e6f744,,,,,,,decisionTrl,resources/DP.BMP,resources/DG.BMP,Door2,0.47875,-0.02,1,0,0,2.305,optionRight,40,11660,5,34,0,34,0,1,,,,,,,,,,,,,,,,,,,,,,,,,,,,,,,,,,,,,,,
,,,,,,,,2023-08-06_08h17.11.301,HF_wild_card,2022.2.4,Win32,20,613e495d5991ed54f860fe9d,64ce5acb97489d65b14ecc7a,64cf48e13ccc184204e6f744,,,,,,,decisionTrl,resources/DY.BMP,resources/DBN.BMP,Door4,0.35,0.0025,1,0,0,1.436,optionRight,80,11740,5,35,0,35,0,1,,,,,,,,,,,,,,,,,,,,,,,,,,,,,,,,,,,,,,,
,,,,,,,,2023-08-06_08h17.11.301,HF_wild_card,2022.2.4,Win32,20,613e495d5991ed54f860fe9d,64ce5acb97489d65b14ecc7a,64cf48e13ccc184204e6f744,,,,,,,decisionTrl,resources/DBN.BMP,resources/DY.BMP,Door3,0.3375,-0.005,1,0,0,1.312,optionRight,70,11810,5,36,0,36,0,1,,,,,,,,,,,,,,,,,,,,,,,,,,,,,,,,,,,,,,,
,,,,,,,,2023-08-06_08h17.11.301,HF_wild_card,2022.2.4,Win32,20,613e495d5991ed54f860fe9d,64ce5acb97489d65b14ecc7a,64cf48e13ccc184204e6f744,,,,,,,decisionTrl,resources/DP.BMP,resources/DG.BMP,Door2,0.3,0.00125,1,0,0,1.734,optionRight,40,11850,5,37,0,37,0,1,,,,,,,,,,,,,,,,,,,,,,,,,,,,,,,,,,,,,,,
,,,,,,,,2023-08-06_08h17.11.301,HF_wild_card,2022.2.4,Win32,20,613e495d5991ed54f860fe9d,64ce5acb97489d65b14ecc7a,64cf48e13ccc184204e6f744,,,,,,,decisionTrl,resources/DG.BMP,resources/DR.BMP,WildCard_Ex,0.30625,-0.0275,1,0,0,1.146,optionRight,95,11945,5,38,0,38,0,1,,,,,,,,,,,,,,,,,,,,,,,,,,,,,,,,,,,,,,,
,,,,,,,,2023-08-06_08h17.11.301,HF_wild_card,2022.2.4,Win32,20,613e495d5991ed54f860fe9d,64ce5acb97489d65b14ecc7a,64cf48e13ccc184204e6f744,,,,,,,decisionTrl,resources/DP.BMP,resources/DG.BMP,Door2,0.3375,-0.01,1,0,0,1.102,optionRight,20,11965,5,39,0,39,0,1,,,,,,,,,,,,,,,,,,,,,,,,,,,,,,,,,,,,,,,
,,,,,,,,2023-08-06_08h17.11.301,HF_wild_card,2022.2.4,Win32,20,613e495d5991ed54f860fe9d,64ce5acb97489d65b14ecc7a,64cf48e13ccc184204e6f744,,,,,,,sngl,resources/Empty.png,resources/DBN.BMP,Door4,0.3875,-0.00125,1,0,0,0.793,optionRight,60,12025,5,40,0,40,0,1,,,,,,,,,,,,,,,,,,,,,,,,,,,,,,,,,,,,,,,
,,,,,,,,2023-08-06_08h17.11.301,HF_wild_card,2022.2.4,Win32,20,613e495d5991ed54f860fe9d,64ce5acb97489d65b14ecc7a,64cf48e13ccc184204e6f744,,,,,,,ctch,resources/DBN.BMP,resources/DP.BMP,Door4,-0.26875,0.0075,1,0,0,1.194,optionLeft,80,12105,5,41,0,41,0,1,,,,,,,,,,,,,,,,,,,,,,,,,,,,,,,,,,,,,,,
,,,,,,,,2023-08-06_08h17.11.301,HF_wild_card,2022.2.4,Win32,20,613e495d5991ed54f860fe9d,64ce5acb97489d65b14ecc7a,64cf48e13ccc184204e6f744,,,,,,,decisionTrl,resources/DG.BMP,resources/DP.BMP,Door1,0.33625,-0.005,1,0,0,2.366,optionRight,30,12135,5,42,0,42,0,1,,,,,,,,,,,,,,,,,,,,,,,,,,,,,,,,,,,,,,,
,,,,,,,,2023-08-06_08h17.11.301,HF_wild_card,2022.2.4,Win32,20,613e495d5991ed54f860fe9d,64ce5acb97489d65b14ecc7a,64cf48e13ccc184204e6f744,,,,,,,sngl,resources/DR.BMP,resources/Empty.png,WildCard_Ex,-0.2575,0,1,0,0,1.586,optionLeft,5,12140,5,43,0,43,0,1,,,,,,,,,,,,,,,,,,,,,,,,,,,,,,,,,,,,,,,
,,,,,,,,2023-08-06_08h17.11.301,HF_wild_card,2022.2.4,Win32,20,613e495d5991ed54f860fe9d,64ce5acb97489d65b14ecc7a,64cf48e13ccc184204e6f744,,,,,,,,,,,,,,,,,,,,,,,,,,4,0,4,0,1,,,,,,,,,,,,,,,,,,,,,,,,,,,,,,,,,,
,,,,,,,,2023-08-06_08h17.11.301,HF_wild_card,2022.2.4,Win32,20,613e495d5991ed54f860fe9d,64ce5acb97489d65b14ecc7a,64cf48e13ccc184204e6f744,,,,,,,decisionTrl,resources/DR.BMP,resources/DP.BMP,WildCard_Ex,-0.1725,-0.0475,1,0,0,2.975,optionLeft,5,12145,6,0,0,0,0,1,,,,,,,,,,,,,,,,,,,,,,,,,,,,,,,,,,,,,,,
,,,,,,,,2023-08-06_08h17.11.301,HF_wild_card,2022.2.4,Win32,20,613e495d5991ed54f860fe9d,64ce5acb97489d65b14ecc7a,64cf48e13ccc184204e6f744,,,,,,,sngl,resources/Empty.png,resources/DR.BMP,WildCard_Ex,0.3625,-0.01125,1,0,0,0.744,optionRight,95,12240,6,1,0,1,0,1,,,,,,,,,,,,,,,,,,,,,,,,,,,,,,,,,,,,,,,
,,,,,,,,2023-08-06_08h17.11.301,HF_wild_card,2022.2.4,Win32,20,613e495d5991ed54f860fe9d,64ce5acb97489d65b14ecc7a,64cf48e13ccc184204e6f744,,,,,,,decisionTrl,resources/DR.BMP,resources/DY.BMP,Door3,-0.00375,0,0,0,1,0.613,optionRight,70,12310,6,2,0,2,0,1,,,,,,,,,,,,,,,,,,,,,,,,,,,,,,,,,,,,,,,
,,,,,,,,2023-08-06_08h17.11.301,HF_wild_card,2022.2.4,Win32,20,613e495d5991ed54f860fe9d,64ce5acb97489d65b14ecc7a,64cf48e13ccc184204e6f744,,,,,,,ctch,resources/DBN.BMP,resources/DP.BMP,Door4,-0.16625,0.00375,1,0,0,1.742,optionLeft,80,12390,6,3,0,3,0,1,,,,,,,,,,,,,,,,,,,,,,,,,,,,,,,,,,,,,,,
,,,,,,,,2023-08-06_08h17.11.301,HF_wild_card,2022.2.4,Win32,20,613e495d5991ed54f860fe9d,64ce5acb97489d65b14ecc7a,64cf48e13ccc184204e6f744,,,,,,,sngl,resources/DR.BMP,resources/Empty.png,WildCard_Ex,-0.32625,0.00625,1,0,0,0.984,optionLeft,95,12485,6,4,0,4,0,1,,,,,,,,,,,,,,,,,,,,,,,,,,,,,,,,,,,,,,,
,,,,,,,,2023-08-06_08h17.11.301,HF_wild_card,2022.2.4,Win32,20,613e495d5991ed54f860fe9d,64ce5acb97489d65b14ecc7a,64cf48e13ccc184204e6f744,,,,,,,decisionTrl,resources/DBN.BMP,resources/DY.BMP,Door3,0.2825,-0.02375,1,0,0,1.655,optionRight,70,12555,6,5,0,5,0,1,,,,,,,,,,,,,,,,,,,,,,,,,,,,,,,,,,,,,,,
,,,,,,,,2023-08-06_08h17.11.301,HF_wild_card,2022.2.4,Win32,20,613e495d5991ed54f860fe9d,64ce5acb97489d65b14ecc7a,64cf48e13ccc184204e6f744,,,,,,,sngl,resources/DG.BMP,resources/Empty.png,Door2,-0.385,0.00375,1,0,0,1.144,optionLeft,20,12575,6,6,0,6,0,1,,,,,,,,,,,,,,,,,,,,,,,,,,,,,,,,,,,,,,,
,,,,,,,,2023-08-06_08h17.11.301,HF_wild_card,2022.2.4,Win32,20,613e495d5991ed54f860fe9d,64ce5acb97489d65b14ecc7a,64cf48e13ccc184204e6f744,,,,,,,sngl,resources/DP.BMP,resources/Empty.png,Door1,-0.29375,0,1,0,0,0.718,optionLeft,30,12605,6,7,0,7,0,1,,,,,,,,,,,,,,,,,,,,,,,,,,,,,,,,,,,,,,,
,,,,,,,,2023-08-06_08h17.11.301,HF_wild_card,2022.2.4,Win32,20,613e495d5991ed54f860fe9d,64ce5acb97489d65b14ecc7a,64cf48e13ccc184204e6f744,,,,,,,decisionTrl,resources/DG.BMP,resources/DP.BMP,Door1,0.41875,-0.0275,1,0,0,1.993,optionRight,30,12635,6,8,0,8,0,1,,,,,,,,,,,,,,,,,,,,,,,,,,,,,,,,,,,,,,,
,,,,,,,,2023-08-06_08h17.11.301,HF_wild_card,2022.2.4,Win32,20,613e495d5991ed54f860fe9d,64ce5acb97489d65b14ecc7a,64cf48e13ccc184204e6f744,,,,,,,sngl,resources/DBN.BMP,resources/Empty.png,Door4,-0.19375,-0.00625,1,0,0,0.816,optionLeft,60,12695,6,9,0,9,0,1,,,,,,,,,,,,,,,,,,,,,,,,,,,,,,,,,,,,,,,
,,,,,,,,2023-08-06_08h17.11.301,HF_wild_card,2022.2.4,Win32,20,613e495d5991ed54f860fe9d,64ce5acb97489d65b14ecc7a,64cf48e13ccc184204e6f744,,,,,,,decisionTrl,resources/DG.BMP,resources/DP.BMP,Door1,0.27875,-0.02375,1,0,0,1.226,optionRight,30,12725,6,10,0,10,0,1,,,,,,,,,,,,,,,,,,,,,,,,,,,,,,,,,,,,,,,
,,,,,,,,2023-08-06_08h17.11.301,HF_wild_card,2022.2.4,Win32,20,613e495d5991ed54f860fe9d,64ce5acb97489d65b14ecc7a,64cf48e13ccc184204e6f744,,,,,,,ctch,resources/DG.BMP,resources/DY.BMP,Door3,0.2825,-0.0375,1,0,0,1.007,optionRight,70,12795,6,11,0,11,0,1,,,,,,,,,,,,,,,,,,,,,,,,,,,,,,,,,,,,,,,
,,,,,,,,2023-08-06_08h17.11.301,HF_wild_card,2022.2.4,Win32,20,613e495d5991ed54f860fe9d,64ce5acb97489d65b14ecc7a,64cf48e13ccc184204e6f744,,,,,,,decisionTrl,resources/DP.BMP,resources/DR.BMP,WildCard_Ex,0.2975,-0.05375,1,0,0,1.331,optionRight,5,12800,6,12,0,12,0,1,,,,,,,,,,,,,,,,,,,,,,,,,,,,,,,,,,,,,,,
,,,,,,,,2023-08-06_08h17.11.301,HF_wild_card,2022.2.4,Win32,20,613e495d5991ed54f860fe9d,64ce5acb97489d65b14ecc7a,64cf48e13ccc184204e6f744,,,,,,,ctch,resources/DY.BMP,resources/DG.BMP,Door3,-0.14625,-0.0075,1,0,0,2.906,optionLeft,70,12870,6,13,0,13,0,1,,,,,,,,,,,,,,,,,,,,,,,,,,,,,,,,,,,,,,,
,,,,,,,,2023-08-06_08h17.11.301,HF_wild_card,2022.2.4,Win32,20,613e495d5991ed54f860fe9d,64ce5acb97489d65b14ecc7a,64cf48e13ccc184204e6f744,,,,,,,decisionTrl,resources/DY.BMP,resources/DBN.BMP,Door4,0.22375,-0.01625,1,0,0,1.35,optionRight,80,12950,6,14,0,14,0,1,,,,,,,,,,,,,,,,,,,,,,,,,,,,,,,,,,,,,,,
,,,,,,,,2023-08-06_08h17.11.301,HF_wild_card,2022.2.4,Win32,20,613e495d5991ed54f860fe9d,64ce5acb97489d65b14ecc7a,64cf48e13ccc184204e6f744,,,,,,,ctch,resources/DY.BMP,resources/DG.BMP,Door3,-0.1675,0,1,0,0,1.074,optionLeft,70,13020,6,15,0,15,0,1,,,,,,,,,,,,,,,,,,,,,,,,,,,,,,,,,,,,,,,
,,,,,,,,2023-08-06_08h17.11.301,HF_wild_card,2022.2.4,Win32,20,613e495d5991ed54f860fe9d,64ce5acb97489d65b14ecc7a,64cf48e13ccc184204e6f744,,,,,,,ctch,resources/DBN.BMP,resources/DP.BMP,Door4,-0.23,0.00375,1,0,0,1.449,optionLeft,60,13080,6,16,0,16,0,1,,,,,,,,,,,,,,,,,,,,,,,,,,,,,,,,,,,,,,,
,,,,,,,,2023-08-06_08h17.11.301,HF_wild_card,2022.2.4,Win32,20,613e495d5991ed54f860fe9d,64ce5acb97489d65b14ecc7a,64cf48e13ccc184204e6f744,,,,,,,decisionTrl,resources/DY.BMP,resources/DBN.BMP,Door4,0.26,-0.01375,1,0,0,0.987,optionRight,80,13160,6,17,0,17,0,1,,,,,,,,,,,,,,,,,,,,,,,,,,,,,,,,,,,,,,,
,,,,,,,,2023-08-06_08h17.11.301,HF_wild_card,2022.2.4,Win32,20,613e495d5991ed54f860fe9d,64ce5acb97489d65b14ecc7a,64cf48e13ccc184204e6f744,,,,,,,sngl,resources/Empty.png,resources/DG.BMP,Door2,0.2125,-0.00375,1,0,0,0.85,optionRight,40,13200,6,18,0,18,0,1,,,,,,,,,,,,,,,,,,,,,,,,,,,,,,,,,,,,,,,
,,,,,,,,2023-08-06_08h17.11.301,HF_wild_card,2022.2.4,Win32,20,613e495d5991ed54f860fe9d,64ce5acb97489d65b14ecc7a,64cf48e13ccc184204e6f744,,,,,,,sngl,resources/Empty.png,resources/DR.BMP,WildCard_Ex,0.26875,-0.07,1,0,0,1.792,optionRight,5,13205,6,19,0,19,0,1,,,,,,,,,,,,,,,,,,,,,,,,,,,,,,,,,,,,,,,
,,,,,,,,2023-08-06_08h17.11.301,HF_wild_card,2022.2.4,Win32,20,613e495d5991ed54f860fe9d,64ce5acb97489d65b14ecc7a,64cf48e13ccc184204e6f744,,,,,,,decisionTrl,resources/DG.BMP,resources/DR.BMP,WildCard_Ex,0.2725,-0.015,1,0,0,1.015,optionRight,5,13210,6,20,0,20,0,1,,,,,,,,,,,,,,,,,,,,,,,,,,,,,,,,,,,,,,,
,,,,,,,,2023-08-06_08h17.11.301,HF_wild_card,2022.2.4,Win32,20,613e495d5991ed54f860fe9d,64ce5acb97489d65b14ecc7a,64cf48e13ccc184204e6f744,,,,,,,decisionTrl,resources/DY.BMP,resources/DBN.BMP,Door4,0.18125,-0.03375,1,0,0,1.256,optionRight,60,13270,6,21,0,21,0,1,,,,,,,,,,,,,,,,,,,,,,,,,,,,,,,,,,,,,,,
,,,,,,,,2023-08-06_08h17.11.301,HF_wild_card,2022.2.4,Win32,20,613e495d5991ed54f860fe9d,64ce5acb97489d65b14ecc7a,64cf48e13ccc184204e6f744,,,,,,,sngl,resources/DR.BMP,resources/Empty.png,WildCard_Ex,-0.185,-0.0075,1,0,0,0.913,optionLeft,5,13275,6,22,0,22,0,1,,,,,,,,,,,,,,,,,,,,,,,,,,,,,,,,,,,,,,,
,,,,,,,,2023-08-06_08h17.11.301,HF_wild_card,2022.2.4,Win32,20,613e495d5991ed54f860fe9d,64ce5acb97489d65b14ecc7a,64cf48e13ccc184204e6f744,,,,,,,decisionTrl,resources/DP.BMP,resources/DG.BMP,Door1,-0.15125,-0.025,1,0,0,1.231,optionLeft,30,13305,6,23,0,23,0,1,,,,,,,,,,,,,,,,,,,,,,,,,,,,,,,,,,,,,,,
,,,,,,,,2023-08-06_08h17.11.301,HF_wild_card,2022.2.4,Win32,20,613e495d5991ed54f860fe9d,64ce5acb97489d65b14ecc7a,64cf48e13ccc184204e6f744,,,,,,,decisionTrl,resources/DBN.BMP,resources/DR.BMP,Door4,-0.19875,-0.00875,1,0,0,1.278,optionLeft,60,13365,6,24,0,24,0,1,,,,,,,,,,,,,,,,,,,,,,,,,,,,,,,,,,,,,,,
,,,,,,,,2023-08-06_08h17.11.301,HF_wild_card,2022.2.4,Win32,20,613e495d5991ed54f860fe9d,64ce5acb97489d65b14ecc7a,64cf48e13ccc184204e6f744,,,,,,,sngl,resources/DY.BMP,resources/Empty.png,Door3,-0.21375,-0.01125,1,0,0,0.674,optionLeft,70,13435,6,25,0,25,0,1,,,,,,,,,,,,,,,,,,,,,,,,,,,,,,,,,,,,,,,
,,,,,,,,2023-08-06_08h17.11.301,HF_wild_card,2022.2.4,Win32,20,613e495d5991ed54f860fe9d,64ce5acb97489d65b14ecc7a,64cf48e13ccc184204e6f744,,,,,,,decisionTrl,resources/DBN.BMP,resources/DY.BMP,Door3,0.295,-0.03,1,0,0,1.369,optionRight,70,13505,6,26,0,26,0,1,,,,,,,,,,,,,,,,,,,,,,,,,,,,,,,,,,,,,,,
,,,,,,,,2023-08-06_08h17.11.301,HF_wild_card,2022.2.4,Win32,20,613e495d5991ed54f860fe9d,64ce5acb97489d65b14ecc7a,64cf48e13ccc184204e6f744,,,,,,,decisionTrl,resources/DBN.BMP,resources/DY.BMP,Door3,0.2625,-0.01625,1,0,0,0.728,optionRight,70,13575,6,27,0,27,0,1,,,,,,,,,,,,,,,,,,,,,,,,,,,,,,,,,,,,,,,
,,,,,,,,2023-08-06_08h17.11.301,HF_wild_card,2022.2.4,Win32,20,613e495d5991ed54f860fe9d,64ce5acb97489d65b14ecc7a,64cf48e13ccc184204e6f744,,,,,,,decisionTrl,resources/DR.BMP,resources/DBN.BMP,Door4,0.21375,-0.01,1,0,0,1.665,optionRight,60,13635,6,28,0,28,0,1,,,,,,,,,,,,,,,,,,,,,,,,,,,,,,,,,,,,,,,
,,,,,,,,2023-08-06_08h17.11.301,HF_wild_card,2022.2.4,Win32,20,613e495d5991ed54f860fe9d,64ce5acb97489d65b14ecc7a,64cf48e13ccc184204e6f744,,,,,,,sngl,resources/Empty.png,resources/DP.BMP,Door1,0.2725,-0.0225,1,0,0,0.675,optionRight,30,13665,6,29,0,29,0,1,,,,,,,,,,,,,,,,,,,,,,,,,,,,,,,,,,,,,,,
,,,,,,,,2023-08-06_08h17.11.301,HF_wild_card,2022.2.4,Win32,20,613e495d5991ed54f860fe9d,64ce5acb97489d65b14ecc7a,64cf48e13ccc184204e6f744,,,,,,,ctch,resources/DP.BMP,resources/DBN.BMP,Door4,0.28125,-0.0125,1,0,0,0.721,optionRight,80,13745,6,30,0,30,0,1,,,,,,,,,,,,,,,,,,,,,,,,,,,,,,,,,,,,,,,
,,,,,,,,2023-08-06_08h17.11.301,HF_wild_card,2022.2.4,Win32,20,613e495d5991ed54f860fe9d,64ce5acb97489d65b14ecc7a,64cf48e13ccc184204e6f744,,,,,,,decisionTrl,resources/DP.BMP,resources/DG.BMP,Door1,-0.1775,-0.0375,1,0,0,1.28,optionLeft,30,13775,6,31,0,31,0,1,,,,,,,,,,,,,,,,,,,,,,,,,,,,,,,,,,,,,,,
,,,,,,,,2023-08-06_08h17.11.301,HF_wild_card,2022.2.4,Win32,20,613e495d5991ed54f860fe9d,64ce5acb97489d65b14ecc7a,64cf48e13ccc184204e6f744,,,,,,,decisionTrl,resources/DG.BMP,resources/DP.BMP,Door1,0.265,-0.01875,1,0,0,1.451,optionRight,30,13805,6,32,0,32,0,1,,,,,,,,,,,,,,,,,,,,,,,,,,,,,,,,,,,,,,,
,,,,,,,,2023-08-06_08h17.11.301,HF_wild_card,2022.2.4,Win32,20,613e495d5991ed54f860fe9d,64ce5acb97489d65b14ecc7a,64cf48e13ccc184204e6f744,,,,,,,decisionTrl,resources/DY.BMP,resources/DR.BMP,Door3,-0.10625,-0.02625,1,0,0,1.727,optionLeft,70,13875,6,33,0,33,0,1,,,,,,,,,,,,,,,,,,,,,,,,,,,,,,,,,,,,,,,
,,,,,,,,2023-08-06_08h17.11.301,HF_wild_card,2022.2.4,Win32,20,613e495d5991ed54f860fe9d,64ce5acb97489d65b14ecc7a,64cf48e13ccc184204e6f744,,,,,,,decisionTrl,resources/DG.BMP,resources/DP.BMP,Door1,0.16875,-0.0025,1,0,0,1.337,optionRight,30,13905,6,34,0,34,0,1,,,,,,,,,,,,,,,,,,,,,,,,,,,,,,,,,,,,,,,
,,,,,,,,2023-08-06_08h17.11.301,HF_wild_card,2022.2.4,Win32,20,613e495d5991ed54f860fe9d,64ce5acb97489d65b14ecc7a,64cf48e13ccc184204e6f744,,,,,,,sngl,resources/Empty.png,resources/DY.BMP,Door3,0.25,-0.01375,1,0,0,0.736,optionRight,70,13975,6,35,0,35,0,1,,,,,,,,,,,,,,,,,,,,,,,,,,,,,,,,,,,,,,,
,,,,,,,,2023-08-06_08h17.11.301,HF_wild_card,2022.2.4,Win32,20,613e495d5991ed54f860fe9d,64ce5acb97489d65b14ecc7a,64cf48e13ccc184204e6f744,,,,,,,decisionTrl,resources/DP.BMP,resources/DG.BMP,Door1,-0.23625,-0.0175,1,0,0,0.993,optionLeft,30,14005,6,36,0,36,0,1,,,,,,,,,,,,,,,,,,,,,,,,,,,,,,,,,,,,,,,
,,,,,,,,2023-08-06_08h17.11.301,HF_wild_card,2022.2.4,Win32,20,613e495d5991ed54f860fe9d,64ce5acb97489d65b14ecc7a,64cf48e13ccc184204e6f744,,,,,,,decisionTrl,resources/DR.BMP,resources/DG.BMP,WildCard_Ex,-0.13125,-0.015,1,0,0,0.799,optionLeft,5,14010,6,37,0,37,0,1,,,,,,,,,,,,,,,,,,,,,,,,,,,,,,,,,,,,,,,
,,,,,,,,2023-08-06_08h17.11.301,HF_wild_card,2022.2.4,Win32,20,613e495d5991ed54f860fe9d,64ce5acb97489d65b14ecc7a,64cf48e13ccc184204e6f744,,,,,,,decisionTrl,resources/DP.BMP,resources/DG.BMP,Door1,-0.1325,-0.0175,1,0,0,1.504,optionLeft,30,14040,6,38,0,38,0,1,,,,,,,,,,,,,,,,,,,,,,,,,,,,,,,,,,,,,,,
,,,,,,,,2023-08-06_08h17.11.301,HF_wild_card,2022.2.4,Win32,20,613e495d5991ed54f860fe9d,64ce5acb97489d65b14ecc7a,64cf48e13ccc184204e6f744,,,,,,,decisionTrl,resources/DBN.BMP,resources/DY.BMP,Door3,0.22,-0.00875,1,0,0,1.985,optionRight,70,14110,6,39,0,39,0,1,,,,,,,,,,,,,,,,,,,,,,,,,,,,,,,,,,,,,,,
,,,,,,,,2023-08-06_08h17.11.301,HF_wild_card,2022.2.4,Win32,20,613e495d5991ed54f860fe9d,64ce5acb97489d65b14ecc7a,64cf48e13ccc184204e6f744,,,,,,,ctch,resources/DP.BMP,resources/DBN.BMP,Door4,0.2325,-0.00375,1,0,0,1.159,optionRight,60,14170,6,40,0,40,0,1,,,,,,,,,,,,,,,,,,,,,,,,,,,,,,,,,,,,,,,
,,,,,,,,2023-08-06_08h17.11.301,HF_wild_card,2022.2.4,Win32,20,613e495d5991ed54f860fe9d,64ce5acb97489d65b14ecc7a,64cf48e13ccc184204e6f744,,,,,,,ctch,resources/DG.BMP,resources/DY.BMP,Door3,0.17875,-0.00125,1,0,0,1.079,optionRight,70,14240,6,41,0,41,0,1,,,,,,,,,,,,,,,,,,,,,,,,,,,,,,,,,,,,,,,
,,,,,,,,2023-08-06_08h17.11.301,HF_wild_card,2022.2.4,Win32,20,613e495d5991ed54f860fe9d,64ce5acb97489d65b14ecc7a,64cf48e13ccc184204e6f744,,,,,,,decisionTrl,resources/DY.BMP,resources/DBN.BMP,Door4,0.185,-0.005,1,0,0,1.179,optionRight,80,14320,6,42,0,42,0,1,,,,,,,,,,,,,,,,,,,,,,,,,,,,,,,,,,,,,,,
,,,,,,,,2023-08-06_08h17.11.301,HF_wild_card,2022.2.4,Win32,20,613e495d5991ed54f860fe9d,64ce5acb97489d65b14ecc7a,64cf48e13ccc184204e6f744,,,,,,,sngl,resources/Empty.png,resources/DBN.BMP,Door4,0.22875,0,1,0,0,0.807,optionRight,80,14400,6,43,0,43,0,1,,,,,,,,,,,,,,,,,,,,,,,,,,,,,,,,,,,,,,,
,,,,,,,,2023-08-06_08h17.11.301,HF_wild_card,2022.2.4,Win32,20,613e495d5991ed54f860fe9d,64ce5acb97489d65b14ecc7a,64cf48e13ccc184204e6f744,,,,,,,,,,,,,,,,,,,,,,,,,,5,0,5,0,1,,,,,,,,,,,,,,,,,,,,,,,,,,,,,,,,,,
,,,,,,,,2023-08-06_08h17.11.301,HF_wild_card,2022.2.4,Win32,20,613e495d5991ed54f860fe9d,64ce5acb97489d65b14ecc7a,64cf48e13ccc184204e6f744,,,,,,,ctch,resources/DBN.BMP,resources/DP.BMP,Door4,-0.13375,0,1,0,0,1.176,optionLeft,60,14460,7,0,0,0,0,1,,,,,,,,,,,,,,,,,,,,,,,,,,,,,,,,,,,,,,,
,,,,,,,,2023-08-06_08h17.11.301,HF_wild_card,2022.2.4,Win32,20,613e495d5991ed54f860fe9d,64ce5acb97489d65b14ecc7a,64cf48e13ccc184204e6f744,,,,,,,ctch,resources/DG.BMP,resources/DY.BMP,Door3,0.3225,-0.02625,1,0,0,3.611,optionRight,70,14530,7,1,0,1,0,1,,,,,,,,,,,,,,,,,,,,,,,,,,,,,,,,,,,,,,,
,,,,,,,,2023-08-06_08h17.11.301,HF_wild_card,2022.2.4,Win32,20,613e495d5991ed54f860fe9d,64ce5acb97489d65b14ecc7a,64cf48e13ccc184204e6f744,,,,,,,ctch,resources/DY.BMP,resources/DG.BMP,Door3,-0.26,-0.00375,1,0,0,0.955,optionLeft,70,14600,7,2,0,2,0,1,,,,,,,,,,,,,,,,,,,,,,,,,,,,,,,,,,,,,,,
,,,,,,,,2023-08-06_08h17.11.301,HF_wild_card,2022.2.4,Win32,20,613e495d5991ed54f860fe9d,64ce5acb97489d65b14ecc7a,64cf48e13ccc184204e6f744,,,,,,,ctch,resources/DP.BMP,resources/DBN.BMP,Door4,0.2025,-0.01,1,0,0,0.95,optionRight,80,14680,7,3,0,3,0,1,,,,,,,,,,,,,,,,,,,,,,,,,,,,,,,,,,,,,,,
,,,,,,,,2023-08-06_08h17.11.301,HF_wild_card,2022.2.4,Win32,20,613e495d5991ed54f860fe9d,64ce5acb97489d65b14ecc7a,64cf48e13ccc184204e6f744,,,,,,,ctch,resources/DP.BMP,resources/DBN.BMP,Door4,0.30875,-0.005,1,0,0,0.658,optionRight,80,14760,7,4,0,4,0,1,,,,,,,,,,,,,,,,,,,,,,,,,,,,,,,,,,,,,,,
,,,,,,,,2023-08-06_08h17.11.301,HF_wild_card,2022.2.4,Win32,20,613e495d5991ed54f860fe9d,64ce5acb97489d65b14ecc7a,64cf48e13ccc184204e6f744,,,,,,,decisionTrl,resources/DY.BMP,resources/DBN.BMP,Door3,-0.1575,-0.0175,1,0,0,1.012,optionLeft,70,14830,7,5,0,5,0,1,,,,,,,,,,,,,,,,,,,,,,,,,,,,,,,,,,,,,,,
,,,,,,,,2023-08-06_08h17.11.301,HF_wild_card,2022.2.4,Win32,20,613e495d5991ed54f860fe9d,64ce5acb97489d65b14ecc7a,64cf48e13ccc184204e6f744,,,,,,,decisionTrl,resources/DBN.BMP,resources/DY.BMP,Door3,0.19375,-0.0125,1,0,0,0.711,optionRight,70,14900,7,6,0,6,0,1,,,,,,,,,,,,,,,,,,,,,,,,,,,,,,,,,,,,,,,
,,,,,,,,2023-08-06_08h17.11.301,HF_wild_card,2022.2.4,Win32,20,613e495d5991ed54f860fe9d,64ce5acb97489d65b14ecc7a,64cf48e13ccc184204e6f744,,,,,,,decisionTrl,resources/DBN.BMP,resources/DY.BMP,Door3,0.19625,-0.00375,1,0,0,0.988,optionRight,70,14970,7,7,0,7,0,1,,,,,,,,,,,,,,,,,,,,,,,,,,,,,,,,,,,,,,,
,,,,,,,,2023-08-06_08h17.11.301,HF_wild_card,2022.2.4,Win32,20,613e495d5991ed54f860fe9d,64ce5acb97489d65b14ecc7a,64cf48e13ccc184204e6f744,,,,,,,ctch,resources/DBN.BMP,resources/DP.BMP,Door4,-0.3025,0.00375,1,0,0,1.104,optionLeft,80,15050,7,8,0,8,0,1,,,,,,,,,,,,,,,,,,,,,,,,,,,,,,,,,,,,,,,
,,,,,,,,2023-08-06_08h17.11.301,HF_wild_card,2022.2.4,Win32,20,613e495d5991ed54f860fe9d,64ce5acb97489d65b14ecc7a,64cf48e13ccc184204e6f744,,,,,,,decisionTrl,resources/DP.BMP,resources/DG.BMP,Door1,-0.185,-0.01875,1,0,0,0.951,optionLeft,30,15080,7,9,0,9,0,1,,,,,,,,,,,,,,,,,,,,,,,,,,,,,,,,,,,,,,,
,,,,,,,,2023-08-06_08h17.11.301,HF_wild_card,2022.2.4,Win32,20,613e495d5991ed54f860fe9d,64ce5acb97489d65b14ecc7a,64cf48e13ccc184204e6f744,,,,,,,decisionTrl,resources/DG.BMP,resources/DP.BMP,Door1,0.285,-0.0225,1,0,0,0.788,optionRight,30,15110,7,10,0,10,0,1,,,,,,,,,,,,,,,,,,,,,,,,,,,,,,,,,,,,,,,
,,,,,,,,2023-08-06_08h17.11.301,HF_wild_card,2022.2.4,Win32,20,613e495d5991ed54f860fe9d,64ce5acb97489d65b14ecc7a,64cf48e13ccc184204e6f744,,,,,,,decisionTrl,resources/DG.BMP,resources/DP.BMP,Door1,0.2775,-0.01625,1,0,0,0.706,optionRight,30,15140,7,11,0,11,0,1,,,,,,,,,,,,,,,,,,,,,,,,,,,,,,,,,,,,,,,
,,,,,,,,2023-08-06_08h17.11.301,HF_wild_card,2022.2.4,Win32,20,613e495d5991ed54f860fe9d,64ce5acb97489d65b14ecc7a,64cf48e13ccc184204e6f744,,,,,,,decisionTrl,resources/DP.BMP,resources/DG.BMP,Door1,-0.1325,-0.01125,1,0,0,0.961,optionLeft,30,15170,7,12,0,12,0,1,,,,,,,,,,,,,,,,,,,,,,,,,,,,,,,,,,,,,,,
,,,,,,,,2023-08-06_08h17.11.301,HF_wild_card,2022.2.4,Win32,20,613e495d5991ed54f860fe9d,64ce5acb97489d65b14ecc7a,64cf48e13ccc184204e6f744,,,,,,,decisionTrl,resources/DP.BMP,resources/DG.BMP,Door1,-0.1325,-0.0075,1,0,0,0.942,optionLeft,30,15200,7,13,0,13,0,1,,,,,,,,,,,,,,,,,,,,,,,,,,,,,,,,,,,,,,,
,,,,,,,,2023-08-06_08h17.11.301,HF_wild_card,2022.2.4,Win32,20,613e495d5991ed54f860fe9d,64ce5acb97489d65b14ecc7a,64cf48e13ccc184204e6f744,,,,,,,ctch,resources/DY.BMP,resources/DG.BMP,Door3,-0.21375,-0.01,1,0,0,0.928,optionLeft,70,15270,7,14,0,14,0,1,,,,,,,,,,,,,,,,,,,,,,,,,,,,,,,,,,,,,,,
,,,,,,,,2023-08-06_08h17.11.301,HF_wild_card,2022.2.4,Win32,20,613e495d5991ed54f860fe9d,64ce5acb97489d65b14ecc7a,64cf48e13ccc184204e6f744,,,,,,,decisionTrl,resources/DP.BMP,resources/DG.BMP,Door1,-0.19625,-0.02875,1,0,0,2.292,optionLeft,30,15300,7,15,0,15,0,1,,,,,,,,,,,,,,,,,,,,,,,,,,,,,,,,,,,,,,,
,,,,,,,,2023-08-06_08h17.11.301,HF_wild_card,2022.2.4,Win32,20,613e495d5991ed54f860fe9d,64ce5acb97489d65b14ecc7a,64cf48e13ccc184204e6f744,,,,,,,decisionTrl,resources/DBN.BMP,resources/DY.BMP,Door3,0.3225,-0.025,1,0,0,1.245,optionRight,70,15370,7,16,0,16,0,1,,,,,,,,,,,,,,,,,,,,,,,,,,,,,,,,,,,,,,,
,,,,,,,,2023-08-06_08h17.11.301,HF_wild_card,2022.2.4,Win32,20,613e495d5991ed54f860fe9d,64ce5acb97489d65b14ecc7a,64cf48e13ccc184204e6f744,,,,,,,decisionTrl,resources/DG.BMP,resources/DP.BMP,Door1,0.26625,-0.00375,1,0,0,1.823,optionRight,30,15400,7,17,0,17,0,1,,,,,,,,,,,,,,,,,,,,,,,,,,,,,,,,,,,,,,,
,,,,,,,,2023-08-06_08h17.11.301,HF_wild_card,2022.2.4,Win32,20,613e495d5991ed54f860fe9d,64ce5acb97489d65b14ecc7a,64cf48e13ccc184204e6f744,,,,,,,decisionTrl,resources/DY.BMP,resources/DBN.BMP,Door4,0.3325,-0.005,1,0,0,1.319,optionRight,60,15460,7,18,0,18,0,1,,,,,,,,,,,,,,,,,,,,,,,,,,,,,,,,,,,,,,,
,,,,,,,,2023-08-06_08h17.11.301,HF_wild_card,2022.2.4,Win32,20,613e495d5991ed54f860fe9d,64ce5acb97489d65b14ecc7a,64cf48e13ccc184204e6f744,,,,,,,decisionTrl,resources/DY.BMP,resources/DBN.BMP,Door4,0.4025,-0.005,1,0,0,0.752,optionRight,60,15520,7,19,0,19,0,1,,,,,,,,,,,,,,,,,,,,,,,,,,,,,,,,,,,,,,,
,,,,,,,,2023-08-06_08h17.11.301,HF_wild_card,2022.2.4,Win32,20,613e495d5991ed54f860fe9d,64ce5acb97489d65b14ecc7a,64cf48e13ccc184204e6f744,,,,,,,ctch,resources/DBN.BMP,resources/DP.BMP,Door4,-0.21,-0.04125,1,0,0,0.7,optionLeft,60,15580,7,20,0,20,0,1,,,,,,,,,,,,,,,,,,,,,,,,,,,,,,,,,,,,,,,
,,,,,,,,2023-08-06_08h17.11.301,HF_wild_card,2022.2.4,Win32,20,613e495d5991ed54f860fe9d,64ce5acb97489d65b14ecc7a,64cf48e13ccc184204e6f744,,,,,,,decisionTrl,resources/DBN.BMP,resources/DY.BMP,Door3,0.315,-0.03375,1,0,0,1.017,optionRight,70,15650,7,21,0,21,0,1,,,,,,,,,,,,,,,,,,,,,,,,,,,,,,,,,,,,,,,
,,,,,,,,2023-08-06_08h17.11.301,HF_wild_card,2022.2.4,Win32,20,613e495d5991ed54f860fe9d,64ce5acb97489d65b14ecc7a,64cf48e13ccc184204e6f744,,,,,,,ctch,resources/DG.BMP,resources/DY.BMP,Door3,0.27625,-0.0125,1,0,0,0.765,optionRight,70,15720,7,22,0,22,0,1,,,,,,,,,,,,,,,,,,,,,,,,,,,,,,,,,,,,,,,
,,,,,,,,2023-08-06_08h17.11.301,HF_wild_card,2022.2.4,Win32,20,613e495d5991ed54f860fe9d,64ce5acb97489d65b14ecc7a,64cf48e13ccc184204e6f744,,,,,,,ctch,resources/DP.BMP,resources/DBN.BMP,Door4,0.26625,-0.0025,1,0,0,0.885,optionRight,60,15780,7,23,0,23,0,1,,,,,,,,,,,,,,,,,,,,,,,,,,,,,,,,,,,,,,,
,,,,,,,,2023-08-06_08h17.11.301,HF_wild_card,2022.2.4,Win32,20,613e495d5991ed54f860fe9d,64ce5acb97489d65b14ecc7a,64cf48e13ccc184204e6f744,,,,,,,decisionTrl,resources/DY.BMP,resources/DBN.BMP,Door4,0.26625,-0.01375,1,0,0,0.76,optionRight,60,15840,7,24,0,24,0,1,,,,,,,,,,,,,,,,,,,,,,,,,,,,,,,,,,,,,,,
,,,,,,,,2023-08-06_08h17.11.301,HF_wild_card,2022.2.4,Win32,20,613e495d5991ed54f860fe9d,64ce5acb97489d65b14ecc7a,64cf48e13ccc184204e6f744,,,,,,,decisionTrl,resources/DP.BMP,resources/DG.BMP,Door1,-0.265,-0.015,1,0,0,0.927,optionLeft,30,15870,7,25,0,25,0,1,,,,,,,,,,,,,,,,,,,,,,,,,,,,,,,,,,,,,,,
,,,,,,,,2023-08-06_08h17.11.301,HF_wild_card,2022.2.4,Win32,20,613e495d5991ed54f860fe9d,64ce5acb97489d65b14ecc7a,64cf48e13ccc184204e6f744,,,,,,,ctch,resources/DG.BMP,resources/DY.BMP,Door3,0.32,-0.01,1,0,0,0.746,optionRight,70,15940,7,26,0,26,0,1,,,,,,,,,,,,,,,,,,,,,,,,,,,,,,,,,,,,,,,
,,,,,,,,2023-08-06_08h17.11.301,HF_wild_card,2022.2.4,Win32,20,613e495d5991ed54f860fe9d,64ce5acb97489d65b14ecc7a,64cf48e13ccc184204e6f744,,,,,,,decisionTrl,resources/DY.BMP,resources/DBN.BMP,Door4,0.30125,0.0075,1,0,0,1.954,optionRight,60,16000,7,27,0,27,0,1,,,,,,,,,,,,,,,,,,,,,,,,,,,,,,,,,,,,,,,
,,,,,,,,2023-08-06_08h17.11.301,HF_wild_card,2022.2.4,Win32,20,613e495d5991ed54f860fe9d,64ce5acb97489d65b14ecc7a,64cf48e13ccc184204e6f744,,,,,,,decisionTrl,resources/DBN.BMP,resources/DY.BMP,Door3,0.22125,-0.02,1,0,0,0.825,optionRight,70,16070,7,28,0,28,0,1,,,,,,,,,,,,,,,,,,,,,,,,,,,,,,,,,,,,,,,
,,,,,,,,2023-08-06_08h17.11.301,HF_wild_card,2022.2.4,Win32,20,613e495d5991ed54f860fe9d,64ce5acb97489d65b14ecc7a,64cf48e13ccc184204e6f744,,,,,,,decisionTrl,resources/DBN.BMP,resources/DY.BMP,Door3,0.25125,-0.00875,1,0,0,0.71,optionRight,70,16140,7,29,0,29,0,1,,,,,,,,,,,,,,,,,,,,,,,,,,,,,,,,,,,,,,,
,,,,,,,,2023-08-06_08h17.11.301,HF_wild_card,2022.2.4,Win32,20,613e495d5991ed54f860fe9d,64ce5acb97489d65b14ecc7a,64cf48e13ccc184204e6f744,,,,,,,decisionTrl,resources/DG.BMP,resources/DP.BMP,Door1,0.235,-0.03,1,0,0,1.011,optionRight,30,16170,7,30,0,30,0,1,,,,,,,,,,,,,,,,,,,,,,,,,,,,,,,,,,,,,,,
,,,,,,,,2023-08-06_08h17.11.301,HF_wild_card,2022.2.4,Win32,20,613e495d5991ed54f860fe9d,64ce5acb97489d65b14ecc7a,64cf48e13ccc184204e6f744,,,,,,,decisionTrl,resources/DG.BMP,resources/DP.BMP,Door1,0.25125,-0.0175,1,0,0,0.708,optionRight,30,16200,7,31,0,31,0,1,,,,,,,,,,,,,,,,,,,,,,,,,,,,,,,,,,,,,,,
,,,,,,,,2023-08-06_08h17.11.301,HF_wild_card,2022.2.4,Win32,20,613e495d5991ed54f860fe9d,64ce5acb97489d65b14ecc7a,64cf48e13ccc184204e6f744,,,,,,,decisionTrl,resources/DP.BMP,resources/DG.BMP,Door1,-0.2725,-0.03,1,0,0,2.217,optionLeft,30,16230,7,32,0,32,0,1,,,,,,,,,,,,,,,,,,,,,,,,,,,,,,,,,,,,,,,
,,,,,,,,2023-08-06_08h17.11.301,HF_wild_card,2022.2.4,Win32,20,613e495d5991ed54f860fe9d,64ce5acb97489d65b14ecc7a,64cf48e13ccc184204e6f744,,,,,,,ctch,resources/DY.BMP,resources/DG.BMP,Door3,-0.3225,-0.00625,1,0,0,1.255,optionLeft,70,16300,7,33,0,33,0,1,,,,,,,,,,,,,,,,,,,,,,,,,,,,,,,,,,,,,,,
,,,,,,,,2023-08-06_08h17.11.301,HF_wild_card,2022.2.4,Win32,20,613e495d5991ed54f860fe9d,64ce5acb97489d65b14ecc7a,64cf48e13ccc184204e6f744,,,,,,,decisionTrl,resources/DG.BMP,resources/DP.BMP,Door1,0.2925,-0.0325,1,0,0,0.857,optionRight,30,16330,7,34,0,34,0,1,,,,,,,,,,,,,,,,,,,,,,,,,,,,,,,,,,,,,,,
,,,,,,,,2023-08-06_08h17.11.301,HF_wild_card,2022.2.4,Win32,20,613e495d5991ed54f860fe9d,64ce5acb97489d65b14ecc7a,64cf48e13ccc184204e6f744,,,,,,,decisionTrl,resources/DY.BMP,resources/DBN.BMP,Door4,0.25125,-0.02625,1,0,0,2.031,optionRight,80,16410,7,35,0,35,0,1,,,,,,,,,,,,,,,,,,,,,,,,,,,,,,,,,,,,,,,
,,,,,,,,2023-08-06_08h17.11.301,HF_wild_card,2022.2.4,Win32,20,613e495d5991ed54f860fe9d,64ce5acb97489d65b14ecc7a,64cf48e13ccc184204e6f744,,,,,,,,,,,,,,,,,,,,,,,,,,6,0,6,0,1,,,,,,,,,,,,,,,,,,,,,,,,,,,,,,,,,,
,,,,,,,,2023-08-06_08h17.11.301,HF_wild_card,2022.2.4,Win32,20,613e495d5991ed54f860fe9d,64ce5acb97489d65b14ecc7a,64cf48e13ccc184204e6f744,,,,,,,,,,,,,,,,,,,,,,,,,,,,,,,4,,,,,,,,,,,,,,,,,,,,,,,,,,,,,,,,,
,,,,,,,,2023-08-06_08h17.11.301,HF_wild_card,2022.2.4,Win32,20,613e495d5991ed54f860fe9d,64ce5acb97489d65b14ecc7a,64cf48e13ccc184204e6f744,,,,,,,,,,,,,,,,,,,,,,,,,,,,,,,,,,,,,,,,,,,,,,,,,,,,,,,,,,,,,,,,
,,,,,,,,2023-08-06_08h17.11.301,HF_wild_card,2022.2.4,Win32,20,613e495d5991ed54f860fe9d,64ce5acb97489d65b14ecc7a,64cf48e13ccc184204e6f744,,,,,,,,,,,,,,,,,,,,,,,,,,,,,,,,45,WC_nonExtreme,resources/DB.BMP,0,0,0,0,1,,,,,,,,,,,,,,,,,,,,,,,,,
,,,,,,,,2023-08-06_08h17.11.301,HF_wild_card,2022.2.4,Win32,20,613e495d5991ed54f860fe9d,64ce5acb97489d65b14ecc7a,64cf48e13ccc184204e6f744,,,,,,,,,,,,,,,,,,,,,,,,,,,,,,,,30,Door1,resources/DP.BMP,1,0,1,0,1,,,,,,,,,,,,,,,,,,,,,,,,,
,,,,,,,,2023-08-06_08h17.11.301,HF_wild_card,2022.2.4,Win32,20,613e495d5991ed54f860fe9d,64ce5acb97489d65b14ecc7a,64cf48e13ccc184204e6f744,,,,,,,,,,,,,,,,,,,,,,,,,,,,,,,,20,Door2,resources/DG.BMP,2,0,2,0,1,,,,,,,,,,,,,,,,,,,,,,,,,
,,,,,,,,2023-08-06_08h17.11.301,HF_wild_card,2022.2.4,Win32,20,613e495d5991ed54f860fe9d,64ce5acb97489d65b14ecc7a,64cf48e13ccc184204e6f744,,,,,,,,,,,,,,,,,,,,,,,,,,,,,,,,95,WC_extreme,resources/DR.BMP,3,0,3,0,1,,,,,,,,,,,,,,,,,,,,,,,,,
,,,,,,,,2023-08-06_08h17.11.301,HF_wild_card,2022.2.4,Win32,20,613e495d5991ed54f860fe9d,64ce5acb97489d65b14ecc7a,64cf48e13ccc184204e6f744,,,,,,,,,,,,,,,,,,,,,,,,,,,,,,,,80,Door4,resources/DBN.BMP,4,0,4,0,1,,,,,,,,,,,,,,,,,,,,,,,,,
,,,,,,,,2023-08-06_08h17.11.301,HF_wild_card,2022.2.4,Win32,20,613e495d5991ed54f860fe9d,64ce5acb97489d65b14ecc7a,64cf48e13ccc184204e6f744,,,,,,,,,,,,,,,,,,,,,,,,,,,,,,,,70,Door3,resources/DY.BMP,5,0,5,0,1,,,,,,,,,,,,,,,,,,,,,,,,,
,,,,,,,,2023-08-06_08h17.11.301,HF_wild_card,2022.2.4,Win32,20,613e495d5991ed54f860fe9d,64ce5acb97489d65b14ecc7a,64cf48e13ccc184204e6f744,,,,,,,,,,,,,,,,,,,,,,,,,,,,,,,,,,,,,,,,,,,,,,,,,,,,,,,,,,,,,,,,
,,,,,,,,2023-08-06_08h17.11.301,HF_wild_card,2022.2.4,Win32,20,613e495d5991ed54f860fe9d,64ce5acb97489d65b14ecc7a,64cf48e13ccc184204e6f744,,,,,,,,,,,,,,,,,,,,,,,,,,,,,,,,,,,,,,,,0,0,0,0,1,,,,,,,,,,,,,,,,,,,,
,,,,,,,,2023-08-06_08h17.11.301,HF_wild_card,2022.2.4,Win32,20,613e495d5991ed54f860fe9d,64ce5acb97489d65b14ecc7a,64cf48e13ccc184204e6f744,,,,,,,,,,,,,,,,,,,,,,,,,,,,,,,,,,,,,,,,1,0,1,0,1,,,,,,,,,,,,,,,,,,,,
,,,,,,,,2023-08-06_08h17.11.301,HF_wild_card,2022.2.4,Win32,20,613e495d5991ed54f860fe9d,64ce5acb97489d65b14ecc7a,64cf48e13ccc184204e6f744,,,,,,,,,,,,,,,,,,,,,,,,,,,,,,,,,,,,,,,,,,,,,-0.28625,-0.39875,1,0,0,yes,75%,25%,Door2,resources/DG.BMP,0,0,0,0,1,,,,,
,,,,,,,,2023-08-06_08h17.11.301,HF_wild_card,2022.2.4,Win32,20,613e495d5991ed54f860fe9d,64ce5acb97489d65b14ecc7a,64cf48e13ccc184204e6f744,,,,,,,,,,,,,,,,,,,,,,,,,,,,,,,,,,,,,,,,,,,,,,,,,,,,,,,,,,,,0,0,0,0,1
,,,,,,,,2023-08-06_08h17.11.301,HF_wild_card,2022.2.4,Win32,20,613e495d5991ed54f860fe9d,64ce5acb97489d65b14ecc7a,64cf48e13ccc184204e6f744,,,,,,,,,,,,,,,,,,,,,,,,,,,,,,,,,,,,,,,,0,0,0,0,1,,,,,,,,,,,,,,,,,,,,
,,,,,,,,2023-08-06_08h17.11.301,HF_wild_card,2022.2.4,Win32,20,613e495d5991ed54f860fe9d,64ce5acb97489d65b14ecc7a,64cf48e13ccc184204e6f744,,,,,,,,,,,,,,,,,,,,,,,,,,,,,,,,,,,,,,,,1,0,1,0,1,,,,,,,,,,,,,,,,,,,,
,,,,,,,,2023-08-06_08h17.11.301,HF_wild_card,2022.2.4,Win32,20,613e495d5991ed54f860fe9d,64ce5acb97489d65b14ecc7a,64cf48e13ccc184204e6f744,,,,,,,,,,,,,,,,,,,,,,,,,,,,,,,,,,,,,,,,,,,,,-0.28375,-0.4125,1,0,0,yes,75%,25%,WC_extreme,resources/DR.BMP,0,0,0,0,1,,,,,
,,,,,,,,2023-08-06_08h17.11.301,HF_wild_card,2022.2.4,Win32,20,613e495d5991ed54f860fe9d,64ce5acb97489d65b14ecc7a,64cf48e13ccc184204e6f744,,,,,,,,,,,,,,,,,,,,,,,,,,,,,,,,,,,,,,,,,,,,,,,,,,,,,,,,,,,,1,0,1,0,1
,,,,,,,,2023-08-06_08h17.11.301,HF_wild_card,2022.2.4,Win32,20,613e495d5991ed54f860fe9d,64ce5acb97489d65b14ecc7a,64cf48e13ccc184204e6f744,,,,,,,,,,,,,,,,,,,,,,,,,,,,,,,,,,,,,,,,0,0,0,0,1,,,,,,,,,,,,,,,,,,,,
,,,,,,,,2023-08-06_08h17.11.301,HF_wild_card,2022.2.4,Win32,20,613e495d5991ed54f860fe9d,64ce5acb97489d65b14ecc7a,64cf48e13ccc184204e6f744,,,,,,,,,,,,,,,,,,,,,,,,,,,,,,,,,,,,,,,,1,0,1,0,1,,,,,,,,,,,,,,,,,,,,
,,,,,,,,2023-08-06_08h17.11.301,HF_wild_card,2022.2.4,Win32,20,613e495d5991ed54f860fe9d,64ce5acb97489d65b14ecc7a,64cf48e13ccc184204e6f744,,,,,,,,,,,,,,,,,,,,,,,,,,,,,,,,,,,,,,,,,,,,,-0.28125,-0.41875,1,0,0,yes,75%,25%,WC_nonExtreme,resources/DB.BMP,0,0,0,0,1,,,,,
,,,,,,,,2023-08-06_08h17.11.301,HF_wild_card,2022.2.4,Win32,20,613e495d5991ed54f860fe9d,64ce5acb97489d65b14ecc7a,64cf48e13ccc184204e6f744,,,,,,,,,,,,,,,,,,,,,,,,,,,,,,,,,,,,,,,,,,,,,,,,,,,,,,,,,,,,2,0,2,0,1
,,,,,,,,2023-08-06_08h17.11.301,HF_wild_card,2022.2.4,Win32,20,613e495d5991ed54f860fe9d,64ce5acb97489d65b14ecc7a,64cf48e13ccc184204e6f744,,,,,,,,,,,,,,,,,,,,,,,,,,,,,,,,,,,,,,,,0,0,0,0,1,,,,,,,,,,,,,,,,,,,,
,,,,,,,,2023-08-06_08h17.11.301,HF_wild_card,2022.2.4,Win32,20,613e495d5991ed54f860fe9d,64ce5acb97489d65b14ecc7a,64cf48e13ccc184204e6f744,,,,,,,,,,,,,,,,,,,,,,,,,,,,,,,,,,,,,,,,1,0,1,0,1,,,,,,,,,,,,,,,,,,,,
,,,,,,,,2023-08-06_08h17.11.301,HF_wild_card,2022.2.4,Win32,20,613e495d5991ed54f860fe9d,64ce5acb97489d65b14ecc7a,64cf48e13ccc184204e6f744,,,,,,,,,,,,,,,,,,,,,,,,,,,,,,,,,,,,,,,,,,,,,-0.28125,-0.4075,1,0,0,yes,50%,50%,Door4,resources/DBN.BMP,0,0,0,0,1,,,,,
,,,,,,,,2023-08-06_08h17.11.301,HF_wild_card,2022.2.4,Win32,20,613e495d5991ed54f860fe9d,64ce5acb97489d65b14ecc7a,64cf48e13ccc184204e6f744,,,,,,,,,,,,,,,,,,,,,,,,,,,,,,,,,,,,,,,,,,,,,,,,,,,,,,,,,,,,3,0,3,0,1
,,,,,,,,2023-08-06_08h17.11.301,HF_wild_card,2022.2.4,Win32,20,613e495d5991ed54f860fe9d,64ce5acb97489d65b14ecc7a,64cf48e13ccc184204e6f744,,,,,,,,,,,,,,,,,,,,,,,,,,,,,,,,,,,,,,,,0,0,0,0,1,,,,,,,,,,,,,,,,,,,,
,,,,,,,,2023-08-06_08h17.11.301,HF_wild_card,2022.2.4,Win32,20,613e495d5991ed54f860fe9d,64ce5acb97489d65b14ecc7a,64cf48e13ccc184204e6f744,,,,,,,,,,,,,,,,,,,,,,,,,,,,,,,,,,,,,,,,1,0,1,0,1,,,,,,,,,,,,,,,,,,,,
,,,,,,,,2023-08-06_08h17.11.301,HF_wild_card,2022.2.4,Win32,20,613e495d5991ed54f860fe9d,64ce5acb97489d65b14ecc7a,64cf48e13ccc184204e6f744,,,,,,,,,,,,,,,,,,,,,,,,,,,,,,,,,,,,,,,,,,,,,-0.27,-0.41125,1,0,0,yes,0%,100%,Door3,resources/DY.BMP,0,0,0,0,1,,,,,
,,,,,,,,2023-08-06_08h17.11.301,HF_wild_card,2022.2.4,Win32,20,613e495d5991ed54f860fe9d,64ce5acb97489d65b14ecc7a,64cf48e13ccc184204e6f744,,,,,,,,,,,,,,,,,,,,,,,,,,,,,,,,,,,,,,,,,,,,,,,,,,,,,,,,,,,,4,0,4,0,1
,,,,,,,,2023-08-06_08h17.11.301,HF_wild_card,2022.2.4,Win32,20,613e495d5991ed54f860fe9d,64ce5acb97489d65b14ecc7a,64cf48e13ccc184204e6f744,,,,,,,,,,,,,,,,,,,,,,,,,,,,,,,,,,,,,,,,0,0,0,0,1,,,,,,,,,,,,,,,,,,,,
,,,,,,,,2023-08-06_08h17.11.301,HF_wild_card,2022.2.4,Win32,20,613e495d5991ed54f860fe9d,64ce5acb97489d65b14ecc7a,64cf48e13ccc184204e6f744,,,,,,,,,,,,,,,,,,,,,,,,,,,,,,,,,,,,,,,,1,0,1,0,1,,,,,,,,,,,,,,,,,,,,
,,,,,,,,2023-08-06_08h17.11.301,HF_wild_card,2022.2.4,Win32,20,613e495d5991ed54f860fe9d,64ce5acb97489d65b14ecc7a,64cf48e13ccc184204e6f744,,,,,,,,,,,,,,,,,,,,,,,,,,,,,,,,,,,,,,,,,,,,,-0.285,-0.42125,1,0,0,yes,100%,0%,Door1,resources/DP.BMP,0,0,0,0,1,,,,,
,,,,,,,,2023-08-06_08h17.11.301,HF_wild_card,2022.2.4,Win32,20,613e495d5991ed54f860fe9d,64ce5acb97489d65b14ecc7a,64cf48e13ccc184204e6f744,,,,,,,,,,,,,,,,,,,,,,,,,,,,,,,,,,,,,,,,,,,,,,,,,,,,,,,,,,,,5,0,5,0,1
,,,,,,,,2023-08-06_08h17.11.301,HF_wild_card,2022.2.4,Win32,20,613e495d5991ed54f860fe9d,64ce5acb97489d65b14ecc7a,64cf48e13ccc184204e6f744,,,,,,,,,,,,,,,,,,,,,,,,,,,,,,,,,,,,,,,,,,,,,,,,,,,,,,,,,,,,,,,,
