Condition,Low fixed image (Door1),Low risky image (Door2),High fixed image (Door3),High risky image (Door4),Extreme Wild Card,NonExtreme Wild Card,,date,expName,psychopyVersion,OS,frameRate,PROLIFIC_PID,STUDY_ID,SESSION_ID,mouse_2.x,mouse_2.y,mouse_2.leftButton,mouse_2.midButton,mouse_2.rightButton,mouse_2.clicked_name,Trial Type,Left Option Image,Right Option Image,Chosen Door,mouse.x,mouse.y,mouse.leftButton,mouse.midButton,mouse.rightButton,mouse.time,mouse.clicked_name,Feedback,Cumulative Reward,Block,trial.thisRepN,trial.thisTrialN,trial.thisN,trial.thisIndex,trial.ran,blocks.thisRepN,blocks.thisTrialN,blocks.thisN,blocks.thisIndex,blocks.ran,Money conversion,First Outcome Reported,Shown Door (First Outcome),Displayed Image (First Outcome),outcomes.thisRepN,outcomes.thisTrialN,outcomes.thisN,outcomes.thisIndex,outcomes.ran,judgments.thisRepN,judgments.thisTrialN,judgments.thisN,judgments.thisIndex,judgments.ran,freqMouse.x,freqMouse.y,freqMouse.leftButton,freqMouse.midButton,freqMouse.rightButton,freqMouse.clicked_name,FQJ for first outcome,FQJ for second outcome,Shown Door,Displayed Image,trials.thisRepN,trials.thisTrialN,trials.thisN,trials.thisIndex,trials.ran,judgBlock.thisRepN,judgBlock.thisTrialN,judgBlock.thisN,judgBlock.thisIndex,judgBlock.ran
0,resources/DBN.BMP,resources/DG.BMP,resources/DR.BMP,resources/DP.BMP,resources/DY.BMP,resources/DB.BMP,,2023-08-16_08h47.42.946,HF_wild_card,2022.2.4,Win32,60.35731531,5e95d76c8cfb0502e3db1f88,64d2fd46c836a06233681665,64dc7ee5ece5e899728bce2b,,,,,,,,,,,,,,,,,,,,,,,,,,,,,,,,,,,,,,,,,,,,,,,,,,,,,,,,,,,,,,,,
,,,,,,,,2023-08-16_08h47.42.946,HF_wild_card,2022.2.4,Win32,60.35731531,5e95d76c8cfb0502e3db1f88,64d2fd46c836a06233681665,64dc7ee5ece5e899728bce2b,0.010185242,-0.419444444,1,0,0,agree,,,,,,,,,,,,,,,,,,,,,,,,,,,,,,,,,,,,,,,,,,,,,,,,,,,,,,,,,,
,,,,,,,,2023-08-16_08h47.42.946,HF_wild_card,2022.2.4,Win32,60.35731531,5e95d76c8cfb0502e3db1f88,64d2fd46c836a06233681665,64dc7ee5ece5e899728bce2b,,,,,,,,,,,,,,,,,,,,,,,,,,,,,,,,,,,,,,,,,,,,,,,,,,,,,,,,,,,,,,,,
,,,,,,,,2023-08-16_08h47.42.946,HF_wild_card,2022.2.4,Win32,60.35731531,5e95d76c8cfb0502e3db1f88,64d2fd46c836a06233681665,64dc7ee5ece5e899728bce2b,,,,,,,decisionTrl,resources/DBN.BMP,resources/DG.BMP,Door2,0.412963019,-0.024074088,1,0,0,4.6113,optionRight,20,20,1,0,0,0,0,1,,,,,,,,,,,,,,,,,,,,,,,,,,,,,,,,,,,,,,,
,,,,,,,,2023-08-16_08h47.42.946,HF_wild_card,2022.2.4,Win32,60.35731531,5e95d76c8cfb0502e3db1f88,64d2fd46c836a06233681665,64dc7ee5ece5e899728bce2b,,,,,,,decisionTrl,resources/DG.BMP,resources/DBN.BMP,Door1,0.424074131,-0.003703732,1,0,0,2.2345,optionRight,30,50,1,1,0,1,0,1,,,,,,,,,,,,,,,,,,,,,,,,,,,,,,,,,,,,,,,
,,,,,,,,2023-08-16_08h47.42.946,HF_wild_card,2022.2.4,Win32,60.35731531,5e95d76c8cfb0502e3db1f88,64d2fd46c836a06233681665,64dc7ee5ece5e899728bce2b,,,,,,,decisionTrl,resources/DBN.BMP,resources/DG.BMP,Door1,-0.39351849,0.006481467,1,0,0,2.8491,optionLeft,30,80,1,2,0,2,0,1,,,,,,,,,,,,,,,,,,,,,,,,,,,,,,,,,,,,,,,
,,,,,,,,2023-08-16_08h47.42.946,HF_wild_card,2022.2.4,Win32,60.35731531,5e95d76c8cfb0502e3db1f88,64d2fd46c836a06233681665,64dc7ee5ece5e899728bce2b,,,,,,,decisionTrl,resources/DG.BMP,resources/DBN.BMP,Door1,0.371296353,0.02870369,1,0,0,1.1306,optionRight,30,110,1,3,0,3,0,1,,,,,,,,,,,,,,,,,,,,,,,,,,,,,,,,,,,,,,,
,,,,,,,,2023-08-16_08h47.42.946,HF_wild_card,2022.2.4,Win32,60.35731531,5e95d76c8cfb0502e3db1f88,64d2fd46c836a06233681665,64dc7ee5ece5e899728bce2b,,,,,,,ctch,resources/DR.BMP,resources/DG.BMP,Door3,-0.398148134,-0.041666667,1,0,0,1.615,optionLeft,70,180,1,4,0,4,0,1,,,,,,,,,,,,,,,,,,,,,,,,,,,,,,,,,,,,,,,
,,,,,,,,2023-08-16_08h47.42.946,HF_wild_card,2022.2.4,Win32,60.35731531,5e95d76c8cfb0502e3db1f88,64d2fd46c836a06233681665,64dc7ee5ece5e899728bce2b,,,,,,,sngl,resources/Empty.png,resources/DR.BMP,Door3,0.38148151,-0.062962977,1,0,0,0.9436,optionRight,70,250,1,5,0,5,0,1,,,,,,,,,,,,,,,,,,,,,,,,,,,,,,,,,,,,,,,
,,,,,,,,2023-08-16_08h47.42.946,HF_wild_card,2022.2.4,Win32,60.35731531,5e95d76c8cfb0502e3db1f88,64d2fd46c836a06233681665,64dc7ee5ece5e899728bce2b,,,,,,,decisionTrl,resources/DBN.BMP,resources/DY.BMP,WildCard_Ex,0.412963019,-0.058333333,1,0,0,1.3473,optionRight,95,345,1,6,0,6,0,1,,,,,,,,,,,,,,,,,,,,,,,,,,,,,,,,,,,,,,,
,,,,,,,,2023-08-16_08h47.42.946,HF_wild_card,2022.2.4,Win32,60.35731531,5e95d76c8cfb0502e3db1f88,64d2fd46c836a06233681665,64dc7ee5ece5e899728bce2b,,,,,,,decisionTrl,resources/DG.BMP,resources/DBN.BMP,Door1,0.388888889,-0.022222222,1,0,0,1.23,optionRight,30,375,1,7,0,7,0,1,,,,,,,,,,,,,,,,,,,,,,,,,,,,,,,,,,,,,,,
,,,,,,,,2023-08-16_08h47.42.946,HF_wild_card,2022.2.4,Win32,60.35731531,5e95d76c8cfb0502e3db1f88,64d2fd46c836a06233681665,64dc7ee5ece5e899728bce2b,,,,,,,decisionTrl,resources/DR.BMP,resources/DP.BMP,Door4,0.362963019,-0.034259288,1,0,0,1.2794,optionRight,60,435,1,8,0,8,0,1,,,,,,,,,,,,,,,,,,,,,,,,,,,,,,,,,,,,,,,
,,,,,,,,2023-08-16_08h47.42.946,HF_wild_card,2022.2.4,Win32,60.35731531,5e95d76c8cfb0502e3db1f88,64d2fd46c836a06233681665,64dc7ee5ece5e899728bce2b,,,,,,,ctch,resources/DBN.BMP,resources/DP.BMP,Door4,0.427777778,-0.063888889,1,0,0,1.1878,optionRight,60,495,1,9,0,9,0,1,,,,,,,,,,,,,,,,,,,,,,,,,,,,,,,,,,,,,,,
,,,,,,,,2023-08-16_08h47.42.946,HF_wild_card,2022.2.4,Win32,60.35731531,5e95d76c8cfb0502e3db1f88,64d2fd46c836a06233681665,64dc7ee5ece5e899728bce2b,,,,,,,sngl,resources/DG.BMP,resources/Empty.png,Door2,-0.382407379,-0.018518533,1,0,0,0.8964,optionLeft,40,535,1,10,0,10,0,1,,,,,,,,,,,,,,,,,,,,,,,,,,,,,,,,,,,,,,,
,,,,,,,,2023-08-16_08h47.42.946,HF_wild_card,2022.2.4,Win32,60.35731531,5e95d76c8cfb0502e3db1f88,64d2fd46c836a06233681665,64dc7ee5ece5e899728bce2b,,,,,,,decisionTrl,resources/DP.BMP,resources/DR.BMP,Door3,0.395370399,-0.064814843,1,0,0,2.0317,optionRight,70,605,1,11,0,11,0,1,,,,,,,,,,,,,,,,,,,,,,,,,,,,,,,,,,,,,,,
,,,,,,,,2023-08-16_08h47.42.946,HF_wild_card,2022.2.4,Win32,60.35731531,5e95d76c8cfb0502e3db1f88,64d2fd46c836a06233681665,64dc7ee5ece5e899728bce2b,,,,,,,decisionTrl,resources/DG.BMP,resources/DY.BMP,WildCard_Ex,0.408333333,-0.035185199,1,0,0,1.1963,optionRight,95,700,1,12,0,12,0,1,,,,,,,,,,,,,,,,,,,,,,,,,,,,,,,,,,,,,,,
,,,,,,,,2023-08-16_08h47.42.946,HF_wild_card,2022.2.4,Win32,60.35731531,5e95d76c8cfb0502e3db1f88,64d2fd46c836a06233681665,64dc7ee5ece5e899728bce2b,,,,,,,sngl,resources/Empty.png,resources/DBN.BMP,Door1,0.409259288,0.000925912,1,0,0,1.1418,optionRight,30,730,1,13,0,13,0,1,,,,,,,,,,,,,,,,,,,,,,,,,,,,,,,,,,,,,,,
,,,,,,,,2023-08-16_08h47.42.946,HF_wild_card,2022.2.4,Win32,60.35731531,5e95d76c8cfb0502e3db1f88,64d2fd46c836a06233681665,64dc7ee5ece5e899728bce2b,,,,,,,sngl,resources/DY.BMP,resources/Empty.png,WildCard_Ex,-0.388888889,-0.035185199,1,0,0,1.2304,optionLeft,5,735,1,14,0,14,0,1,,,,,,,,,,,,,,,,,,,,,,,,,,,,,,,,,,,,,,,
,,,,,,,,2023-08-16_08h47.42.946,HF_wild_card,2022.2.4,Win32,60.35731531,5e95d76c8cfb0502e3db1f88,64d2fd46c836a06233681665,64dc7ee5ece5e899728bce2b,,,,,,,ctch,resources/DG.BMP,resources/DR.BMP,Door3,0.435185242,-0.037962977,1,0,0,0.6951,optionRight,70,805,1,15,0,15,0,1,,,,,,,,,,,,,,,,,,,,,,,,,,,,,,,,,,,,,,,
,,,,,,,,2023-08-16_08h47.42.946,HF_wild_card,2022.2.4,Win32,60.35731531,5e95d76c8cfb0502e3db1f88,64d2fd46c836a06233681665,64dc7ee5ece5e899728bce2b,,,,,,,ctch,resources/DP.BMP,resources/DBN.BMP,Door1,0.451851908,0.034259245,1,0,0,1.6982,optionRight,30,835,1,16,0,16,0,1,,,,,,,,,,,,,,,,,,,,,,,,,,,,,,,,,,,,,,,
,,,,,,,,2023-08-16_08h47.42.946,HF_wild_card,2022.2.4,Win32,60.35731531,5e95d76c8cfb0502e3db1f88,64d2fd46c836a06233681665,64dc7ee5ece5e899728bce2b,,,,,,,decisionTrl,resources/DR.BMP,resources/DP.BMP,Door3,-0.379629601,-0.049074088,1,0,0,1.6298,optionLeft,70,905,1,17,0,17,0,1,,,,,,,,,,,,,,,,,,,,,,,,,,,,,,,,,,,,,,,
,,,,,,,,2023-08-16_08h47.42.946,HF_wild_card,2022.2.4,Win32,60.35731531,5e95d76c8cfb0502e3db1f88,64d2fd46c836a06233681665,64dc7ee5ece5e899728bce2b,,,,,,,ctch,resources/DG.BMP,resources/DR.BMP,Door3,0.375925954,-0.037037065,1,0,0,1.8146,optionRight,70,975,1,18,0,18,0,1,,,,,,,,,,,,,,,,,,,,,,,,,,,,,,,,,,,,,,,
,,,,,,,,2023-08-16_08h47.42.946,HF_wild_card,2022.2.4,Win32,60.35731531,5e95d76c8cfb0502e3db1f88,64d2fd46c836a06233681665,64dc7ee5ece5e899728bce2b,,,,,,,ctch,resources/DBN.BMP,resources/DP.BMP,Door4,0.411111111,-0.082407422,1,0,0,1.097,optionRight,80,1055,1,19,0,19,0,1,,,,,,,,,,,,,,,,,,,,,,,,,,,,,,,,,,,,,,,
,,,,,,,,2023-08-16_08h47.42.946,HF_wild_card,2022.2.4,Win32,60.35731531,5e95d76c8cfb0502e3db1f88,64d2fd46c836a06233681665,64dc7ee5ece5e899728bce2b,,,,,,,ctch,resources/DP.BMP,resources/DBN.BMP,Door4,-0.457407379,-0.112962977,1,0,0,0.8978,optionLeft,80,1135,1,20,0,20,0,1,,,,,,,,,,,,,,,,,,,,,,,,,,,,,,,,,,,,,,,
,,,,,,,,2023-08-16_08h47.42.946,HF_wild_card,2022.2.4,Win32,60.35731531,5e95d76c8cfb0502e3db1f88,64d2fd46c836a06233681665,64dc7ee5ece5e899728bce2b,,,,,,,decisionTrl,resources/DBN.BMP,resources/DG.BMP,Door2,0.414814843,-0.035185199,1,0,0,2.0126,optionRight,20,1155,1,21,0,21,0,1,,,,,,,,,,,,,,,,,,,,,,,,,,,,,,,,,,,,,,,
,,,,,,,,2023-08-16_08h47.42.946,HF_wild_card,2022.2.4,Win32,60.35731531,5e95d76c8cfb0502e3db1f88,64d2fd46c836a06233681665,64dc7ee5ece5e899728bce2b,,,,,,,decisionTrl,resources/DBN.BMP,resources/DG.BMP,Door1,-0.312962935,-0.007407422,1,0,0,0.8982,optionLeft,30,1185,1,22,0,22,0,1,,,,,,,,,,,,,,,,,,,,,,,,,,,,,,,,,,,,,,,
,,,,,,,,2023-08-16_08h47.42.946,HF_wild_card,2022.2.4,Win32,60.35731531,5e95d76c8cfb0502e3db1f88,64d2fd46c836a06233681665,64dc7ee5ece5e899728bce2b,,,,,,,decisionTrl,resources/DY.BMP,resources/DR.BMP,WildCard_Ex,-0.326851824,-0.043518533,1,0,0,1.0269,optionLeft,95,1280,1,23,0,23,0,1,,,,,,,,,,,,,,,,,,,,,,,,,,,,,,,,,,,,,,,
,,,,,,,,2023-08-16_08h47.42.946,HF_wild_card,2022.2.4,Win32,60.35731531,5e95d76c8cfb0502e3db1f88,64d2fd46c836a06233681665,64dc7ee5ece5e899728bce2b,,,,,,,sngl,resources/DP.BMP,resources/Empty.png,Door4,-0.402777778,-0.097222222,1,0,0,1.2471,optionLeft,80,1360,1,24,0,24,0,1,,,,,,,,,,,,,,,,,,,,,,,,,,,,,,,,,,,,,,,
,,,,,,,,2023-08-16_08h47.42.946,HF_wild_card,2022.2.4,Win32,60.35731531,5e95d76c8cfb0502e3db1f88,64d2fd46c836a06233681665,64dc7ee5ece5e899728bce2b,,,,,,,decisionTrl,resources/DR.BMP,resources/DY.BMP,WildCard_Ex,0.380555556,-0.026851866,1,0,0,1.4255,optionRight,95,1455,1,25,0,25,0,1,,,,,,,,,,,,,,,,,,,,,,,,,,,,,,,,,,,,,,,
,,,,,,,,2023-08-16_08h47.42.946,HF_wild_card,2022.2.4,Win32,60.35731531,5e95d76c8cfb0502e3db1f88,64d2fd46c836a06233681665,64dc7ee5ece5e899728bce2b,,,,,,,decisionTrl,resources/DG.BMP,resources/DBN.BMP,Door2,-0.37870369,-0.028703732,1,0,0,0.9674,optionLeft,20,1475,1,26,0,26,0,1,,,,,,,,,,,,,,,,,,,,,,,,,,,,,,,,,,,,,,,
,,,,,,,,2023-08-16_08h47.42.946,HF_wild_card,2022.2.4,Win32,60.35731531,5e95d76c8cfb0502e3db1f88,64d2fd46c836a06233681665,64dc7ee5ece5e899728bce2b,,,,,,,ctch,resources/DR.BMP,resources/DG.BMP,Door3,-0.407407379,-0.087037065,1,0,0,2.1058,optionLeft,70,1545,1,27,0,27,0,1,,,,,,,,,,,,,,,,,,,,,,,,,,,,,,,,,,,,,,,
,,,,,,,,2023-08-16_08h47.42.946,HF_wild_card,2022.2.4,Win32,60.35731531,5e95d76c8cfb0502e3db1f88,64d2fd46c836a06233681665,64dc7ee5ece5e899728bce2b,,,,,,,decisionTrl,resources/DP.BMP,resources/DR.BMP,Door4,-0.410185157,-0.079629644,1,0,0,2.3653,optionLeft,80,1625,1,28,0,28,0,1,,,,,,,,,,,,,,,,,,,,,,,,,,,,,,,,,,,,,,,
,,,,,,,,2023-08-16_08h47.42.946,HF_wild_card,2022.2.4,Win32,60.35731531,5e95d76c8cfb0502e3db1f88,64d2fd46c836a06233681665,64dc7ee5ece5e899728bce2b,,,,,,,sngl,resources/Empty.png,resources/DY.BMP,WildCard_Ex,0.398148176,-0.049074088,1,0,0,0.9782,optionRight,5,1630,1,29,0,29,0,1,,,,,,,,,,,,,,,,,,,,,,,,,,,,,,,,,,,,,,,
,,,,,,,,2023-08-16_08h47.42.946,HF_wild_card,2022.2.4,Win32,60.35731531,5e95d76c8cfb0502e3db1f88,64d2fd46c836a06233681665,64dc7ee5ece5e899728bce2b,,,,,,,sngl,resources/Empty.png,resources/DY.BMP,WildCard_Ex,0.363888889,-0.045370399,1,0,0,0.664,optionRight,95,1725,1,30,0,30,0,1,,,,,,,,,,,,,,,,,,,,,,,,,,,,,,,,,,,,,,,
,,,,,,,,2023-08-16_08h47.42.946,HF_wild_card,2022.2.4,Win32,60.35731531,5e95d76c8cfb0502e3db1f88,64d2fd46c836a06233681665,64dc7ee5ece5e899728bce2b,,,,,,,decisionTrl,resources/DP.BMP,resources/DY.BMP,WildCard_Ex,0.383333333,-0.070370399,1,0,0,0.9458,optionRight,5,1730,1,31,0,31,0,1,,,,,,,,,,,,,,,,,,,,,,,,,,,,,,,,,,,,,,,
,,,,,,,,2023-08-16_08h47.42.946,HF_wild_card,2022.2.4,Win32,60.35731531,5e95d76c8cfb0502e3db1f88,64d2fd46c836a06233681665,64dc7ee5ece5e899728bce2b,,,,,,,decisionTrl,resources/DR.BMP,resources/DP.BMP,Door4,0.393518575,-0.079629644,1,0,0,1.3275,optionRight,60,1790,1,32,0,32,0,1,,,,,,,,,,,,,,,,,,,,,,,,,,,,,,,,,,,,,,,
,,,,,,,,2023-08-16_08h47.42.946,HF_wild_card,2022.2.4,Win32,60.35731531,5e95d76c8cfb0502e3db1f88,64d2fd46c836a06233681665,64dc7ee5ece5e899728bce2b,,,,,,,decisionTrl,resources/DP.BMP,resources/DR.BMP,Door3,0.363888889,-0.035185199,1,0,0,1.1392,optionRight,70,1860,1,33,0,33,0,1,,,,,,,,,,,,,,,,,,,,,,,,,,,,,,,,,,,,,,,
,,,,,,,,2023-08-16_08h47.42.946,HF_wild_card,2022.2.4,Win32,60.35731531,5e95d76c8cfb0502e3db1f88,64d2fd46c836a06233681665,64dc7ee5ece5e899728bce2b,,,,,,,sngl,resources/Empty.png,resources/DP.BMP,Door4,0.345370399,-0.074074088,1,0,0,0.8446,optionRight,60,1920,1,34,0,34,0,1,,,,,,,,,,,,,,,,,,,,,,,,,,,,,,,,,,,,,,,
,,,,,,,,2023-08-16_08h47.42.946,HF_wild_card,2022.2.4,Win32,60.35731531,5e95d76c8cfb0502e3db1f88,64d2fd46c836a06233681665,64dc7ee5ece5e899728bce2b,,,,,,,decisionTrl,resources/DP.BMP,resources/DR.BMP,Door4,-0.398148134,-0.137037065,1,0,0,1.4296,optionLeft,60,1980,1,35,0,35,0,1,,,,,,,,,,,,,,,,,,,,,,,,,,,,,,,,,,,,,,,
,,,,,,,,2023-08-16_08h47.42.946,HF_wild_card,2022.2.4,Win32,60.35731531,5e95d76c8cfb0502e3db1f88,64d2fd46c836a06233681665,64dc7ee5ece5e899728bce2b,,,,,,,sngl,resources/DR.BMP,resources/Empty.png,Door3,-0.379629601,-0.026851866,1,0,0,1.1094,optionLeft,70,2050,1,36,0,36,0,1,,,,,,,,,,,,,,,,,,,,,,,,,,,,,,,,,,,,,,,
,,,,,,,,2023-08-16_08h47.42.946,HF_wild_card,2022.2.4,Win32,60.35731531,5e95d76c8cfb0502e3db1f88,64d2fd46c836a06233681665,64dc7ee5ece5e899728bce2b,,,,,,,decisionTrl,resources/DY.BMP,resources/DBN.BMP,WildCard_Ex,-0.387037023,-0.039814843,1,0,0,1.2654,optionLeft,95,2145,1,37,0,37,0,1,,,,,,,,,,,,,,,,,,,,,,,,,,,,,,,,,,,,,,,
,,,,,,,,2023-08-16_08h47.42.946,HF_wild_card,2022.2.4,Win32,60.35731531,5e95d76c8cfb0502e3db1f88,64d2fd46c836a06233681665,64dc7ee5ece5e899728bce2b,,,,,,,decisionTrl,resources/DY.BMP,resources/DP.BMP,WildCard_Ex,-0.392592578,-0.025925954,1,0,0,0.8471,optionLeft,5,2150,1,38,0,38,0,1,,,,,,,,,,,,,,,,,,,,,,,,,,,,,,,,,,,,,,,
,,,,,,,,2023-08-16_08h47.42.946,HF_wild_card,2022.2.4,Win32,60.35731531,5e95d76c8cfb0502e3db1f88,64d2fd46c836a06233681665,64dc7ee5ece5e899728bce2b,,,,,,,sngl,resources/Empty.png,resources/DG.BMP,Door2,0.360185242,-0.059259288,1,0,0,1.612,optionRight,20,2170,1,39,0,39,0,1,,,,,,,,,,,,,,,,,,,,,,,,,,,,,,,,,,,,,,,
,,,,,,,,2023-08-16_08h47.42.946,HF_wild_card,2022.2.4,Win32,60.35731531,5e95d76c8cfb0502e3db1f88,64d2fd46c836a06233681665,64dc7ee5ece5e899728bce2b,,,,,,,sngl,resources/DY.BMP,resources/Empty.png,WildCard_Ex,-0.454629601,-0.040740755,1,0,0,0.9094,optionLeft,95,2265,1,40,0,40,0,1,,,,,,,,,,,,,,,,,,,,,,,,,,,,,,,,,,,,,,,
,,,,,,,,2023-08-16_08h47.42.946,HF_wild_card,2022.2.4,Win32,60.35731531,5e95d76c8cfb0502e3db1f88,64d2fd46c836a06233681665,64dc7ee5ece5e899728bce2b,,,,,,,decisionTrl,resources/DR.BMP,resources/DP.BMP,Door3,-0.461111111,-0.076851866,1,0,0,2.1633,optionLeft,70,2335,1,41,0,41,0,1,,,,,,,,,,,,,,,,,,,,,,,,,,,,,,,,,,,,,,,
,,,,,,,,2023-08-16_08h47.42.946,HF_wild_card,2022.2.4,Win32,60.35731531,5e95d76c8cfb0502e3db1f88,64d2fd46c836a06233681665,64dc7ee5ece5e899728bce2b,,,,,,,decisionTrl,resources/DY.BMP,resources/DG.BMP,WildCard_Ex,-0.384259245,-0.062962977,1,0,0,1.0446,optionLeft,5,2340,1,42,0,42,0,1,,,,,,,,,,,,,,,,,,,,,,,,,,,,,,,,,,,,,,,
,,,,,,,,2023-08-16_08h47.42.946,HF_wild_card,2022.2.4,Win32,60.35731531,5e95d76c8cfb0502e3db1f88,64d2fd46c836a06233681665,64dc7ee5ece5e899728bce2b,,,,,,,sngl,resources/DBN.BMP,resources/Empty.png,Door1,-0.357407379,-0.019444444,1,0,0,0.9437,optionLeft,30,2370,1,43,0,43,0,1,,,,,,,,,,,,,,,,,,,,,,,,,,,,,,,,,,,,,,,
,,,,,,,,2023-08-16_08h47.42.946,HF_wild_card,2022.2.4,Win32,60.35731531,5e95d76c8cfb0502e3db1f88,64d2fd46c836a06233681665,64dc7ee5ece5e899728bce2b,,,,,,,,,,,,,,,,,,,,,,,,,,0,0,0,0,1,,,,,,,,,,,,,,,,,,,,,,,,,,,,,,,,,,
,,,,,,,,2023-08-16_08h47.42.946,HF_wild_card,2022.2.4,Win32,60.35731531,5e95d76c8cfb0502e3db1f88,64d2fd46c836a06233681665,64dc7ee5ece5e899728bce2b,,,,,,,ctch,resources/DG.BMP,resources/DR.BMP,Door2,-0.362037023,-0.080555556,1,0,0,1.0845,optionLeft,40,2410,2,0,0,0,0,1,,,,,,,,,,,,,,,,,,,,,,,,,,,,,,,,,,,,,,,
,,,,,,,,2023-08-16_08h47.42.946,HF_wild_card,2022.2.4,Win32,60.35731531,5e95d76c8cfb0502e3db1f88,64d2fd46c836a06233681665,64dc7ee5ece5e899728bce2b,,,,,,,decisionTrl,resources/DY.BMP,resources/DR.BMP,WildCard_Ex,-0.457407379,-0.141666667,1,0,0,1.3443,optionLeft,5,2415,2,1,0,1,0,1,,,,,,,,,,,,,,,,,,,,,,,,,,,,,,,,,,,,,,,
,,,,,,,,2023-08-16_08h47.42.946,HF_wild_card,2022.2.4,Win32,60.35731531,5e95d76c8cfb0502e3db1f88,64d2fd46c836a06233681665,64dc7ee5ece5e899728bce2b,,,,,,,decisionTrl,resources/DBN.BMP,resources/DG.BMP,Door2,0.382407464,-0.016666667,1,0,0,0.7122,optionRight,40,2455,2,2,0,2,0,1,,,,,,,,,,,,,,,,,,,,,,,,,,,,,,,,,,,,,,,
,,,,,,,,2023-08-16_08h47.42.946,HF_wild_card,2022.2.4,Win32,60.35731531,5e95d76c8cfb0502e3db1f88,64d2fd46c836a06233681665,64dc7ee5ece5e899728bce2b,,,,,,,decisionTrl,resources/DG.BMP,resources/DBN.BMP,Door2,-0.404629601,-0.027777778,1,0,0,0.5975,optionLeft,40,2495,2,3,0,3,0,1,,,,,,,,,,,,,,,,,,,,,,,,,,,,,,,,,,,,,,,
,,,,,,,,2023-08-16_08h47.42.946,HF_wild_card,2022.2.4,Win32,60.35731531,5e95d76c8cfb0502e3db1f88,64d2fd46c836a06233681665,64dc7ee5ece5e899728bce2b,,,,,,,decisionTrl,resources/DY.BMP,resources/DBN.BMP,Door1,0.384259288,-0.005555556,1,0,0,1.3718,optionRight,30,2525,2,4,0,4,0,1,,,,,,,,,,,,,,,,,,,,,,,,,,,,,,,,,,,,,,,
,,,,,,,,2023-08-16_08h47.42.946,HF_wild_card,2022.2.4,Win32,60.35731531,5e95d76c8cfb0502e3db1f88,64d2fd46c836a06233681665,64dc7ee5ece5e899728bce2b,,,,,,,sngl,resources/Empty.png,resources/DR.BMP,Door3,0.328703732,-0.064814843,1,0,0,0.7797,optionRight,70,2595,2,5,0,5,0,1,,,,,,,,,,,,,,,,,,,,,,,,,,,,,,,,,,,,,,,
,,,,,,,,2023-08-16_08h47.42.946,HF_wild_card,2022.2.4,Win32,60.35731531,5e95d76c8cfb0502e3db1f88,64d2fd46c836a06233681665,64dc7ee5ece5e899728bce2b,,,,,,,decisionTrl,resources/DG.BMP,resources/DBN.BMP,Door2,-0.327777778,-0.013888889,1,0,0,0.8114,optionLeft,40,2635,2,6,0,6,0,1,,,,,,,,,,,,,,,,,,,,,,,,,,,,,,,,,,,,,,,
,,,,,,,,2023-08-16_08h47.42.946,HF_wild_card,2022.2.4,Win32,60.35731531,5e95d76c8cfb0502e3db1f88,64d2fd46c836a06233681665,64dc7ee5ece5e899728bce2b,,,,,,,decisionTrl,resources/DBN.BMP,resources/DG.BMP,Door2,0.357407464,-0.048148176,1,0,0,0.8692,optionRight,40,2675,2,7,0,7,0,1,,,,,,,,,,,,,,,,,,,,,,,,,,,,,,,,,,,,,,,
,,,,,,,,2023-08-16_08h47.42.946,HF_wild_card,2022.2.4,Win32,60.35731531,5e95d76c8cfb0502e3db1f88,64d2fd46c836a06233681665,64dc7ee5ece5e899728bce2b,,,,,,,ctch,resources/DP.BMP,resources/DBN.BMP,Door4,-0.436111111,-0.088888889,1,0,0,0.8952,optionLeft,60,2735,2,8,0,8,0,1,,,,,,,,,,,,,,,,,,,,,,,,,,,,,,,,,,,,,,,
,,,,,,,,2023-08-16_08h47.42.946,HF_wild_card,2022.2.4,Win32,60.35731531,5e95d76c8cfb0502e3db1f88,64d2fd46c836a06233681665,64dc7ee5ece5e899728bce2b,,,,,,,sngl,resources/DG.BMP,resources/Empty.png,Door2,-0.329629601,-0.029629644,1,0,0,0.861,optionLeft,20,2755,2,9,0,9,0,1,,,,,,,,,,,,,,,,,,,,,,,,,,,,,,,,,,,,,,,
,,,,,,,,2023-08-16_08h47.42.946,HF_wild_card,2022.2.4,Win32,60.35731531,5e95d76c8cfb0502e3db1f88,64d2fd46c836a06233681665,64dc7ee5ece5e899728bce2b,,,,,,,ctch,resources/DR.BMP,resources/DG.BMP,Door2,0.368518575,-0.104629644,1,0,0,0.661,optionRight,20,2775,2,10,0,10,0,1,,,,,,,,,,,,,,,,,,,,,,,,,,,,,,,,,,,,,,,
,,,,,,,,2023-08-16_08h47.42.946,HF_wild_card,2022.2.4,Win32,60.35731531,5e95d76c8cfb0502e3db1f88,64d2fd46c836a06233681665,64dc7ee5ece5e899728bce2b,,,,,,,decisionTrl,resources/DR.BMP,resources/DP.BMP,Door3,-0.365740712,-0.023148176,1,0,0,0.7111,optionLeft,70,2845,2,11,0,11,0,1,,,,,,,,,,,,,,,,,,,,,,,,,,,,,,,,,,,,,,,
,,,,,,,,2023-08-16_08h47.42.946,HF_wild_card,2022.2.4,Win32,60.35731531,5e95d76c8cfb0502e3db1f88,64d2fd46c836a06233681665,64dc7ee5ece5e899728bce2b,,,,,,,sngl,resources/DY.BMP,resources/Empty.png,WildCard_Ex,-0.386111111,-0.044444444,1,0,0,1.1279,optionLeft,5,2850,2,12,0,12,0,1,,,,,,,,,,,,,,,,,,,,,,,,,,,,,,,,,,,,,,,
,,,,,,,,2023-08-16_08h47.42.946,HF_wild_card,2022.2.4,Win32,60.35731531,5e95d76c8cfb0502e3db1f88,64d2fd46c836a06233681665,64dc7ee5ece5e899728bce2b,,,,,,,decisionTrl,resources/DBN.BMP,resources/DG.BMP,Door2,0.335185242,-0.047222222,1,0,0,1.5708,optionRight,40,2890,2,13,0,13,0,1,,,,,,,,,,,,,,,,,,,,,,,,,,,,,,,,,,,,,,,
,,,,,,,,2023-08-16_08h47.42.946,HF_wild_card,2022.2.4,Win32,60.35731531,5e95d76c8cfb0502e3db1f88,64d2fd46c836a06233681665,64dc7ee5ece5e899728bce2b,,,,,,,decisionTrl,resources/DBN.BMP,resources/DG.BMP,Door2,0.453703732,-0.042592621,1,0,0,1.0778,optionRight,20,2910,2,14,0,14,0,1,,,,,,,,,,,,,,,,,,,,,,,,,,,,,,,,,,,,,,,
,,,,,,,,2023-08-16_08h47.42.946,HF_wild_card,2022.2.4,Win32,60.35731531,5e95d76c8cfb0502e3db1f88,64d2fd46c836a06233681665,64dc7ee5ece5e899728bce2b,,,,,,,decisionTrl,resources/DR.BMP,resources/DP.BMP,Door3,-0.339814801,-0.039814843,1,0,0,1.2808,optionLeft,70,2980,2,15,0,15,0,1,,,,,,,,,,,,,,,,,,,,,,,,,,,,,,,,,,,,,,,
,,,,,,,,2023-08-16_08h47.42.946,HF_wild_card,2022.2.4,Win32,60.35731531,5e95d76c8cfb0502e3db1f88,64d2fd46c836a06233681665,64dc7ee5ece5e899728bce2b,,,,,,,ctch,resources/DG.BMP,resources/DR.BMP,Door3,0.468518575,-0.05,1,0,0,1.2944,optionRight,70,3050,2,16,0,16,0,1,,,,,,,,,,,,,,,,,,,,,,,,,,,,,,,,,,,,,,,
,,,,,,,,2023-08-16_08h47.42.946,HF_wild_card,2022.2.4,Win32,60.35731531,5e95d76c8cfb0502e3db1f88,64d2fd46c836a06233681665,64dc7ee5ece5e899728bce2b,,,,,,,sngl,resources/Empty.png,resources/DP.BMP,Door4,0.378703732,-0.054629644,1,0,0,0.945,optionRight,80,3130,2,17,0,17,0,1,,,,,,,,,,,,,,,,,,,,,,,,,,,,,,,,,,,,,,,
,,,,,,,,2023-08-16_08h47.42.946,HF_wild_card,2022.2.4,Win32,60.35731531,5e95d76c8cfb0502e3db1f88,64d2fd46c836a06233681665,64dc7ee5ece5e899728bce2b,,,,,,,decisionTrl,resources/DG.BMP,resources/DBN.BMP,Door2,-0.400925912,-0.141666667,1,0,0,1.1273,optionLeft,40,3170,2,18,0,18,0,1,,,,,,,,,,,,,,,,,,,,,,,,,,,,,,,,,,,,,,,
,,,,,,,,2023-08-16_08h47.42.946,HF_wild_card,2022.2.4,Win32,60.35731531,5e95d76c8cfb0502e3db1f88,64d2fd46c836a06233681665,64dc7ee5ece5e899728bce2b,,,,,,,decisionTrl,resources/DR.BMP,resources/DP.BMP,Door4,0.398148176,-0.085185199,1,0,0,1.1693,optionRight,60,3230,2,19,0,19,0,1,,,,,,,,,,,,,,,,,,,,,,,,,,,,,,,,,,,,,,,
,,,,,,,,2023-08-16_08h47.42.946,HF_wild_card,2022.2.4,Win32,60.35731531,5e95d76c8cfb0502e3db1f88,64d2fd46c836a06233681665,64dc7ee5ece5e899728bce2b,,,,,,,decisionTrl,resources/DY.BMP,resources/DP.BMP,Door4,0.550926039,0.005555556,1,0,0,1.2474,optionRight,60,3290,2,20,0,20,0,1,,,,,,,,,,,,,,,,,,,,,,,,,,,,,,,,,,,,,,,
,,,,,,,,2023-08-16_08h47.42.946,HF_wild_card,2022.2.4,Win32,60.35731531,5e95d76c8cfb0502e3db1f88,64d2fd46c836a06233681665,64dc7ee5ece5e899728bce2b,,,,,,,decisionTrl,resources/DG.BMP,resources/DBN.BMP,Door1,0.383333333,-0.032407422,1,0,0,1.1137,optionRight,30,3320,2,21,0,21,0,1,,,,,,,,,,,,,,,,,,,,,,,,,,,,,,,,,,,,,,,
,,,,,,,,2023-08-16_08h47.42.946,HF_wild_card,2022.2.4,Win32,60.35731531,5e95d76c8cfb0502e3db1f88,64d2fd46c836a06233681665,64dc7ee5ece5e899728bce2b,,,,,,,sngl,resources/Empty.png,resources/DBN.BMP,Door1,0.299074131,-0.003703732,1,0,0,0.6138,optionRight,30,3350,2,22,0,22,0,1,,,,,,,,,,,,,,,,,,,,,,,,,,,,,,,,,,,,,,,
,,,,,,,,2023-08-16_08h47.42.946,HF_wild_card,2022.2.4,Win32,60.35731531,5e95d76c8cfb0502e3db1f88,64d2fd46c836a06233681665,64dc7ee5ece5e899728bce2b,,,,,,,decisionTrl,resources/DBN.BMP,resources/DY.BMP,Door1,-0.301851824,-0.051851866,1,0,0,1.1767,optionLeft,30,3380,2,23,0,23,0,1,,,,,,,,,,,,,,,,,,,,,,,,,,,,,,,,,,,,,,,
,,,,,,,,2023-08-16_08h47.42.946,HF_wild_card,2022.2.4,Win32,60.35731531,5e95d76c8cfb0502e3db1f88,64d2fd46c836a06233681665,64dc7ee5ece5e899728bce2b,,,,,,,sngl,resources/Empty.png,resources/DY.BMP,WildCard_Ex,0.367592621,-0.032407422,1,0,0,0.6449,optionRight,95,3475,2,24,0,24,0,1,,,,,,,,,,,,,,,,,,,,,,,,,,,,,,,,,,,,,,,
,,,,,,,,2023-08-16_08h47.42.946,HF_wild_card,2022.2.4,Win32,60.35731531,5e95d76c8cfb0502e3db1f88,64d2fd46c836a06233681665,64dc7ee5ece5e899728bce2b,,,,,,,sngl,resources/DY.BMP,resources/Empty.png,WildCard_Ex,-0.394444444,-0.05648151,1,0,0,0.779,optionLeft,95,3570,2,25,0,25,0,1,,,,,,,,,,,,,,,,,,,,,,,,,,,,,,,,,,,,,,,
,,,,,,,,2023-08-16_08h47.42.946,HF_wild_card,2022.2.4,Win32,60.35731531,5e95d76c8cfb0502e3db1f88,64d2fd46c836a06233681665,64dc7ee5ece5e899728bce2b,,,,,,,ctch,resources/DP.BMP,resources/DBN.BMP,Door4,-0.417592578,-0.076851866,1,0,0,1.6944,optionLeft,60,3630,2,26,0,26,0,1,,,,,,,,,,,,,,,,,,,,,,,,,,,,,,,,,,,,,,,
,,,,,,,,2023-08-16_08h47.42.946,HF_wild_card,2022.2.4,Win32,60.35731531,5e95d76c8cfb0502e3db1f88,64d2fd46c836a06233681665,64dc7ee5ece5e899728bce2b,,,,,,,decisionTrl,resources/DP.BMP,resources/DR.BMP,Door4,-0.340740712,-0.076851866,1,0,0,0.8885,optionLeft,60,3690,2,27,0,27,0,1,,,,,,,,,,,,,,,,,,,,,,,,,,,,,,,,,,,,,,,
,,,,,,,,2023-08-16_08h47.42.946,HF_wild_card,2022.2.4,Win32,60.35731531,5e95d76c8cfb0502e3db1f88,64d2fd46c836a06233681665,64dc7ee5ece5e899728bce2b,,,,,,,sngl,resources/DP.BMP,resources/Empty.png,Door4,-0.413888889,-0.066666667,1,0,0,0.6448,optionLeft,60,3750,2,28,0,28,0,1,,,,,,,,,,,,,,,,,,,,,,,,,,,,,,,,,,,,,,,
,,,,,,,,2023-08-16_08h47.42.946,HF_wild_card,2022.2.4,Win32,60.35731531,5e95d76c8cfb0502e3db1f88,64d2fd46c836a06233681665,64dc7ee5ece5e899728bce2b,,,,,,,decisionTrl,resources/DR.BMP,resources/DP.BMP,Door4,0.351851908,-0.039814843,1,0,0,1.2013,optionRight,80,3830,2,29,0,29,0,1,,,,,,,,,,,,,,,,,,,,,,,,,,,,,,,,,,,,,,,
,,,,,,,,2023-08-16_08h47.42.946,HF_wild_card,2022.2.4,Win32,60.35731531,5e95d76c8cfb0502e3db1f88,64d2fd46c836a06233681665,64dc7ee5ece5e899728bce2b,,,,,,,ctch,resources/DBN.BMP,resources/DP.BMP,Door4,0.312037065,-0.051851866,1,0,0,0.6239,optionRight,80,3910,2,30,0,30,0,1,,,,,,,,,,,,,,,,,,,,,,,,,,,,,,,,,,,,,,,
,,,,,,,,2023-08-16_08h47.42.946,HF_wild_card,2022.2.4,Win32,60.35731531,5e95d76c8cfb0502e3db1f88,64d2fd46c836a06233681665,64dc7ee5ece5e899728bce2b,,,,,,,sngl,resources/DBN.BMP,resources/Empty.png,Door1,-0.335185157,-0.00648151,1,0,0,1.3277,optionLeft,30,3940,2,31,0,31,0,1,,,,,,,,,,,,,,,,,,,,,,,,,,,,,,,,,,,,,,,
,,,,,,,,2023-08-16_08h47.42.946,HF_wild_card,2022.2.4,Win32,60.35731531,5e95d76c8cfb0502e3db1f88,64d2fd46c836a06233681665,64dc7ee5ece5e899728bce2b,,,,,,,decisionTrl,resources/DR.BMP,resources/DY.BMP,WildCard_Ex,0.340740797,-0.038888889,1,0,0,1.2748,optionRight,95,4035,2,32,0,32,0,1,,,,,,,,,,,,,,,,,,,,,,,,,,,,,,,,,,,,,,,
,,,,,,,,2023-08-16_08h47.42.946,HF_wild_card,2022.2.4,Win32,60.35731531,5e95d76c8cfb0502e3db1f88,64d2fd46c836a06233681665,64dc7ee5ece5e899728bce2b,,,,,,,sngl,resources/Empty.png,resources/DG.BMP,Door2,0.459259288,-0.014814843,1,0,0,0.6634,optionRight,40,4075,2,33,0,33,0,1,,,,,,,,,,,,,,,,,,,,,,,,,,,,,,,,,,,,,,,
,,,,,,,,2023-08-16_08h47.42.946,HF_wild_card,2022.2.4,Win32,60.35731531,5e95d76c8cfb0502e3db1f88,64d2fd46c836a06233681665,64dc7ee5ece5e899728bce2b,,,,,,,ctch,resources/DBN.BMP,resources/DP.BMP,Door4,0.308333333,-0.10648151,1,0,0,1.0145,optionRight,80,4155,2,34,0,34,0,1,,,,,,,,,,,,,,,,,,,,,,,,,,,,,,,,,,,,,,,
,,,,,,,,2023-08-16_08h47.42.946,HF_wild_card,2022.2.4,Win32,60.35731531,5e95d76c8cfb0502e3db1f88,64d2fd46c836a06233681665,64dc7ee5ece5e899728bce2b,,,,,,,decisionTrl,resources/DP.BMP,resources/DR.BMP,Door4,-0.392592578,-0.170370399,1,0,0,1.0782,optionLeft,80,4235,2,35,0,35,0,1,,,,,,,,,,,,,,,,,,,,,,,,,,,,,,,,,,,,,,,
,,,,,,,,2023-08-16_08h47.42.946,HF_wild_card,2022.2.4,Win32,60.35731531,5e95d76c8cfb0502e3db1f88,64d2fd46c836a06233681665,64dc7ee5ece5e899728bce2b,,,,,,,decisionTrl,resources/DP.BMP,resources/DR.BMP,Door4,-0.285185157,-0.107407422,1,0,0,0.7877,optionLeft,60,4295,2,36,0,36,0,1,,,,,,,,,,,,,,,,,,,,,,,,,,,,,,,,,,,,,,,
,,,,,,,,2023-08-16_08h47.42.946,HF_wild_card,2022.2.4,Win32,60.35731531,5e95d76c8cfb0502e3db1f88,64d2fd46c836a06233681665,64dc7ee5ece5e899728bce2b,,,,,,,sngl,resources/DR.BMP,resources/Empty.png,Door3,-0.291666667,-0.020370399,1,0,0,0.63,optionLeft,70,4365,2,37,0,37,0,1,,,,,,,,,,,,,,,,,,,,,,,,,,,,,,,,,,,,,,,
,,,,,,,,2023-08-16_08h47.42.946,HF_wild_card,2022.2.4,Win32,60.35731531,5e95d76c8cfb0502e3db1f88,64d2fd46c836a06233681665,64dc7ee5ece5e899728bce2b,,,,,,,sngl,resources/Empty.png,resources/DY.BMP,WildCard_Ex,0.397222222,-0.003703732,1,0,0,0.6291,optionRight,5,4370,2,38,0,38,0,1,,,,,,,,,,,,,,,,,,,,,,,,,,,,,,,,,,,,,,,
,,,,,,,,2023-08-16_08h47.42.946,HF_wild_card,2022.2.4,Win32,60.35731531,5e95d76c8cfb0502e3db1f88,64d2fd46c836a06233681665,64dc7ee5ece5e899728bce2b,,,,,,,decisionTrl,resources/DP.BMP,resources/DR.BMP,Door4,-0.332407379,-0.098148176,1,0,0,1.1775,optionLeft,80,4450,2,39,0,39,0,1,,,,,,,,,,,,,,,,,,,,,,,,,,,,,,,,,,,,,,,
,,,,,,,,2023-08-16_08h47.42.946,HF_wild_card,2022.2.4,Win32,60.35731531,5e95d76c8cfb0502e3db1f88,64d2fd46c836a06233681665,64dc7ee5ece5e899728bce2b,,,,,,,decisionTrl,resources/DP.BMP,resources/DY.BMP,WildCard_Ex,0.401851908,-0.060185199,1,0,0,0.9967,optionRight,5,4455,2,40,0,40,0,1,,,,,,,,,,,,,,,,,,,,,,,,,,,,,,,,,,,,,,,
,,,,,,,,2023-08-16_08h47.42.946,HF_wild_card,2022.2.4,Win32,60.35731531,5e95d76c8cfb0502e3db1f88,64d2fd46c836a06233681665,64dc7ee5ece5e899728bce2b,,,,,,,decisionTrl,resources/DY.BMP,resources/DG.BMP,WildCard_Ex,-0.320370356,-0.030555556,1,0,0,0.752,optionLeft,5,4460,2,41,0,41,0,1,,,,,,,,,,,,,,,,,,,,,,,,,,,,,,,,,,,,,,,
,,,,,,,,2023-08-16_08h47.42.946,HF_wild_card,2022.2.4,Win32,60.35731531,5e95d76c8cfb0502e3db1f88,64d2fd46c836a06233681665,64dc7ee5ece5e899728bce2b,,,,,,,ctch,resources/DR.BMP,resources/DG.BMP,Door2,0.412037065,-0.023148176,1,0,0,0.7137,optionRight,40,4500,2,42,0,42,0,1,,,,,,,,,,,,,,,,,,,,,,,,,,,,,,,,,,,,,,,
,,,,,,,,2023-08-16_08h47.42.946,HF_wild_card,2022.2.4,Win32,60.35731531,5e95d76c8cfb0502e3db1f88,64d2fd46c836a06233681665,64dc7ee5ece5e899728bce2b,,,,,,,decisionTrl,resources/DG.BMP,resources/DY.BMP,Door2,-0.563888889,-0.08148151,1,0,0,1.3476,optionLeft,20,4520,2,43,0,43,0,1,,,,,,,,,,,,,,,,,,,,,,,,,,,,,,,,,,,,,,,
,,,,,,,,2023-08-16_08h47.42.946,HF_wild_card,2022.2.4,Win32,60.35731531,5e95d76c8cfb0502e3db1f88,64d2fd46c836a06233681665,64dc7ee5ece5e899728bce2b,,,,,,,,,,,,,,,,,,,,,,,,,,1,0,1,0,1,,,,,,,,,,,,,,,,,,,,,,,,,,,,,,,,,,
,,,,,,,,2023-08-16_08h47.42.946,HF_wild_card,2022.2.4,Win32,60.35731531,5e95d76c8cfb0502e3db1f88,64d2fd46c836a06233681665,64dc7ee5ece5e899728bce2b,,,,,,,decisionTrl,resources/DY.BMP,resources/DG.BMP,Door2,0.430555556,-0.060185199,1,0,0,1.8929,optionRight,40,4560,3,0,0,0,0,1,,,,,,,,,,,,,,,,,,,,,,,,,,,,,,,,,,,,,,,
,,,,,,,,2023-08-16_08h47.42.946,HF_wild_card,2022.2.4,Win32,60.35731531,5e95d76c8cfb0502e3db1f88,64d2fd46c836a06233681665,64dc7ee5ece5e899728bce2b,,,,,,,sngl,resources/Empty.png,resources/DY.BMP,WildCard_Ex,0.505555556,0.013888889,1,0,0,0.5776,optionRight,95,4655,3,1,0,1,0,1,,,,,,,,,,,,,,,,,,,,,,,,,,,,,,,,,,,,,,,
,,,,,,,,2023-08-16_08h47.42.946,HF_wild_card,2022.2.4,Win32,60.35731531,5e95d76c8cfb0502e3db1f88,64d2fd46c836a06233681665,64dc7ee5ece5e899728bce2b,,,,,,,sngl,resources/Empty.png,resources/DBN.BMP,Door1,0.474074131,0.013888889,1,0,0,0.6476,optionRight,30,4685,3,2,0,2,0,1,,,,,,,,,,,,,,,,,,,,,,,,,,,,,,,,,,,,,,,
,,,,,,,,2023-08-16_08h47.42.946,HF_wild_card,2022.2.4,Win32,60.35731531,5e95d76c8cfb0502e3db1f88,64d2fd46c836a06233681665,64dc7ee5ece5e899728bce2b,,,,,,,ctch,resources/DP.BMP,resources/DBN.BMP,Door4,-0.339814801,-0.051851866,1,0,0,0.7289,optionLeft,80,4765,3,3,0,3,0,1,,,,,,,,,,,,,,,,,,,,,,,,,,,,,,,,,,,,,,,
,,,,,,,,2023-08-16_08h47.42.946,HF_wild_card,2022.2.4,Win32,60.35731531,5e95d76c8cfb0502e3db1f88,64d2fd46c836a06233681665,64dc7ee5ece5e899728bce2b,,,,,,,sngl,resources/DR.BMP,resources/Empty.png,Door3,-0.37870369,-0.057407422,1,0,0,0.5642,optionLeft,70,4835,3,4,0,4,0,1,,,,,,,,,,,,,,,,,,,,,,,,,,,,,,,,,,,,,,,
,,,,,,,,2023-08-16_08h47.42.946,HF_wild_card,2022.2.4,Win32,60.35731531,5e95d76c8cfb0502e3db1f88,64d2fd46c836a06233681665,64dc7ee5ece5e899728bce2b,,,,,,,sngl,resources/DY.BMP,resources/Empty.png,WildCard_Ex,-0.348148134,-0.04629631,1,0,0,0.5112,optionLeft,95,4930,3,5,0,5,0,1,,,,,,,,,,,,,,,,,,,,,,,,,,,,,,,,,,,,,,,
,,,,,,,,2023-08-16_08h47.42.946,HF_wild_card,2022.2.4,Win32,60.35731531,5e95d76c8cfb0502e3db1f88,64d2fd46c836a06233681665,64dc7ee5ece5e899728bce2b,,,,,,,decisionTrl,resources/DY.BMP,resources/DP.BMP,WildCard_Ex,-0.341666667,0.008333333,1,0,0,1.1825,optionLeft,5,4935,3,6,0,6,0,1,,,,,,,,,,,,,,,,,,,,,,,,,,,,,,,,,,,,,,,
,,,,,,,,2023-08-16_08h47.42.946,HF_wild_card,2022.2.4,Win32,60.35731531,5e95d76c8cfb0502e3db1f88,64d2fd46c836a06233681665,64dc7ee5ece5e899728bce2b,,,,,,,decisionTrl,resources/DBN.BMP,resources/DG.BMP,Door2,0.428703732,-0.030555556,1,0,0,0.8115,optionRight,40,4975,3,7,0,7,0,1,,,,,,,,,,,,,,,,,,,,,,,,,,,,,,,,,,,,,,,
,,,,,,,,2023-08-16_08h47.42.946,HF_wild_card,2022.2.4,Win32,60.35731531,5e95d76c8cfb0502e3db1f88,64d2fd46c836a06233681665,64dc7ee5ece5e899728bce2b,,,,,,,decisionTrl,resources/DP.BMP,resources/DR.BMP,Door4,-0.358333333,-0.051851866,1,0,0,0.7485,optionLeft,80,5055,3,8,0,8,0,1,,,,,,,,,,,,,,,,,,,,,,,,,,,,,,,,,,,,,,,
,,,,,,,,2023-08-16_08h47.42.946,HF_wild_card,2022.2.4,Win32,60.35731531,5e95d76c8cfb0502e3db1f88,64d2fd46c836a06233681665,64dc7ee5ece5e899728bce2b,,,,,,,decisionTrl,resources/DG.BMP,resources/DBN.BMP,Door2,-0.422222222,-0.111111111,1,0,0,1.8822,optionLeft,20,5075,3,9,0,9,0,1,,,,,,,,,,,,,,,,,,,,,,,,,,,,,,,,,,,,,,,
,,,,,,,,2023-08-16_08h47.42.946,HF_wild_card,2022.2.4,Win32,60.35731531,5e95d76c8cfb0502e3db1f88,64d2fd46c836a06233681665,64dc7ee5ece5e899728bce2b,,,,,,,decisionTrl,resources/DG.BMP,resources/DY.BMP,WildCard_Ex,0.345370399,-0.051851866,1,0,0,0.7968,optionRight,95,5170,3,10,0,10,0,1,,,,,,,,,,,,,,,,,,,,,,,,,,,,,,,,,,,,,,,
,,,,,,,,2023-08-16_08h47.42.946,HF_wild_card,2022.2.4,Win32,60.35731531,5e95d76c8cfb0502e3db1f88,64d2fd46c836a06233681665,64dc7ee5ece5e899728bce2b,,,,,,,sngl,resources/DY.BMP,resources/Empty.png,WildCard_Ex,-0.294444444,-0.048148176,1,0,0,0.5314,optionLeft,5,5175,3,11,0,11,0,1,,,,,,,,,,,,,,,,,,,,,,,,,,,,,,,,,,,,,,,
,,,,,,,,2023-08-16_08h47.42.946,HF_wild_card,2022.2.4,Win32,60.35731531,5e95d76c8cfb0502e3db1f88,64d2fd46c836a06233681665,64dc7ee5ece5e899728bce2b,,,,,,,sngl,resources/DBN.BMP,resources/Empty.png,Door1,-0.433333333,-0.075,1,0,0,0.5463,optionLeft,30,5205,3,12,0,12,0,1,,,,,,,,,,,,,,,,,,,,,,,,,,,,,,,,,,,,,,,
,,,,,,,,2023-08-16_08h47.42.946,HF_wild_card,2022.2.4,Win32,60.35731531,5e95d76c8cfb0502e3db1f88,64d2fd46c836a06233681665,64dc7ee5ece5e899728bce2b,,,,,,,decisionTrl,resources/DP.BMP,resources/DR.BMP,Door4,-0.512962935,-0.082407422,1,0,0,1.0279,optionLeft,60,5265,3,13,0,13,0,1,,,,,,,,,,,,,,,,,,,,,,,,,,,,,,,,,,,,,,,
,,,,,,,,2023-08-16_08h47.42.946,HF_wild_card,2022.2.4,Win32,60.35731531,5e95d76c8cfb0502e3db1f88,64d2fd46c836a06233681665,64dc7ee5ece5e899728bce2b,,,,,,,decisionTrl,resources/DR.BMP,resources/DY.BMP,Door3,-0.37870369,-0.078703732,1,0,0,0.5456,optionLeft,70,5335,3,14,0,14,0,1,,,,,,,,,,,,,,,,,,,,,,,,,,,,,,,,,,,,,,,
,,,,,,,,2023-08-16_08h47.42.946,HF_wild_card,2022.2.4,Win32,60.35731531,5e95d76c8cfb0502e3db1f88,64d2fd46c836a06233681665,64dc7ee5ece5e899728bce2b,,,,,,,sngl,resources/DG.BMP,resources/Empty.png,Door2,-0.514814801,-0.075,1,0,0,0.547,optionLeft,40,5375,3,15,0,15,0,1,,,,,,,,,,,,,,,,,,,,,,,,,,,,,,,,,,,,,,,
,,,,,,,,2023-08-16_08h47.42.946,HF_wild_card,2022.2.4,Win32,60.35731531,5e95d76c8cfb0502e3db1f88,64d2fd46c836a06233681665,64dc7ee5ece5e899728bce2b,,,,,,,ctch,resources/DP.BMP,resources/DBN.BMP,Door4,-0.512037023,-0.093518533,1,0,0,0.9799,optionLeft,80,5455,3,16,0,16,0,1,,,,,,,,,,,,,,,,,,,,,,,,,,,,,,,,,,,,,,,
,,,,,,,,2023-08-16_08h47.42.946,HF_wild_card,2022.2.4,Win32,60.35731531,5e95d76c8cfb0502e3db1f88,64d2fd46c836a06233681665,64dc7ee5ece5e899728bce2b,,,,,,,sngl,resources/Empty.png,resources/DP.BMP,Door4,0.546296353,0.02870369,1,0,0,0.8461,optionRight,60,5515,3,17,0,17,0,1,,,,,,,,,,,,,,,,,,,,,,,,,,,,,,,,,,,,,,,
,,,,,,,,2023-08-16_08h47.42.946,HF_wild_card,2022.2.4,Win32,60.35731531,5e95d76c8cfb0502e3db1f88,64d2fd46c836a06233681665,64dc7ee5ece5e899728bce2b,,,,,,,decisionTrl,resources/DG.BMP,resources/DBN.BMP,Door2,-0.310185157,-0.047222222,1,0,0,0.9318,optionLeft,20,5535,3,18,0,18,0,1,,,,,,,,,,,,,,,,,,,,,,,,,,,,,,,,,,,,,,,
,,,,,,,,2023-08-16_08h47.42.946,HF_wild_card,2022.2.4,Win32,60.35731531,5e95d76c8cfb0502e3db1f88,64d2fd46c836a06233681665,64dc7ee5ece5e899728bce2b,,,,,,,decisionTrl,resources/DBN.BMP,resources/DG.BMP,Door1,-0.298148134,-0.035185199,1,0,0,0.8299,optionLeft,30,5565,3,19,0,19,0,1,,,,,,,,,,,,,,,,,,,,,,,,,,,,,,,,,,,,,,,
,,,,,,,,2023-08-16_08h47.42.946,HF_wild_card,2022.2.4,Win32,60.35731531,5e95d76c8cfb0502e3db1f88,64d2fd46c836a06233681665,64dc7ee5ece5e899728bce2b,,,,,,,decisionTrl,resources/DBN.BMP,resources/DY.BMP,WildCard_Ex,0.38148151,-0.075925954,1,0,0,0.7958,optionRight,95,5660,3,20,0,20,0,1,,,,,,,,,,,,,,,,,,,,,,,,,,,,,,,,,,,,,,,
,,,,,,,,2023-08-16_08h47.42.946,HF_wild_card,2022.2.4,Win32,60.35731531,5e95d76c8cfb0502e3db1f88,64d2fd46c836a06233681665,64dc7ee5ece5e899728bce2b,,,,,,,ctch,resources/DR.BMP,resources/DG.BMP,Door2,0.443518575,-0.067592621,1,0,0,1.848,optionRight,40,5700,3,21,0,21,0,1,,,,,,,,,,,,,,,,,,,,,,,,,,,,,,,,,,,,,,,
,,,,,,,,2023-08-16_08h47.42.946,HF_wild_card,2022.2.4,Win32,60.35731531,5e95d76c8cfb0502e3db1f88,64d2fd46c836a06233681665,64dc7ee5ece5e899728bce2b,,,,,,,ctch,resources/DG.BMP,resources/DR.BMP,Door3,0.301851908,-0.004629644,1,0,0,0.5945,optionRight,70,5770,3,22,0,22,0,1,,,,,,,,,,,,,,,,,,,,,,,,,,,,,,,,,,,,,,,
,,,,,,,,2023-08-16_08h47.42.946,HF_wild_card,2022.2.4,Win32,60.35731531,5e95d76c8cfb0502e3db1f88,64d2fd46c836a06233681665,64dc7ee5ece5e899728bce2b,,,,,,,decisionTrl,resources/DBN.BMP,resources/DG.BMP,Door2,0.375925954,-0.038888889,1,0,0,0.8152,optionRight,40,5810,3,23,0,23,0,1,,,,,,,,,,,,,,,,,,,,,,,,,,,,,,,,,,,,,,,
,,,,,,,,2023-08-16_08h47.42.946,HF_wild_card,2022.2.4,Win32,60.35731531,5e95d76c8cfb0502e3db1f88,64d2fd46c836a06233681665,64dc7ee5ece5e899728bce2b,,,,,,,ctch,resources/DBN.BMP,resources/DP.BMP,Door4,0.375,-0.062962977,1,0,0,0.7132,optionRight,60,5870,3,24,0,24,0,1,,,,,,,,,,,,,,,,,,,,,,,,,,,,,,,,,,,,,,,
,,,,,,,,2023-08-16_08h47.42.946,HF_wild_card,2022.2.4,Win32,60.35731531,5e95d76c8cfb0502e3db1f88,64d2fd46c836a06233681665,64dc7ee5ece5e899728bce2b,,,,,,,decisionTrl,resources/DG.BMP,resources/DBN.BMP,Door2,-0.258333333,-0.08148151,1,0,0,0.6433,optionLeft,40,5910,3,25,0,25,0,1,,,,,,,,,,,,,,,,,,,,,,,,,,,,,,,,,,,,,,,
,,,,,,,,2023-08-16_08h47.42.946,HF_wild_card,2022.2.4,Win32,60.35731531,5e95d76c8cfb0502e3db1f88,64d2fd46c836a06233681665,64dc7ee5ece5e899728bce2b,,,,,,,ctch,resources/DR.BMP,resources/DG.BMP,Door3,-0.372222222,-0.153703732,1,0,0,1.762,optionLeft,70,5980,3,26,0,26,0,1,,,,,,,,,,,,,,,,,,,,,,,,,,,,,,,,,,,,,,,
,,,,,,,,2023-08-16_08h47.42.946,HF_wild_card,2022.2.4,Win32,60.35731531,5e95d76c8cfb0502e3db1f88,64d2fd46c836a06233681665,64dc7ee5ece5e899728bce2b,,,,,,,sngl,resources/Empty.png,resources/DG.BMP,Door2,0.464814843,0.056481467,1,0,0,0.6145,optionRight,20,6000,3,27,0,27,0,1,,,,,,,,,,,,,,,,,,,,,,,,,,,,,,,,,,,,,,,
,,,,,,,,2023-08-16_08h47.42.946,HF_wild_card,2022.2.4,Win32,60.35731531,5e95d76c8cfb0502e3db1f88,64d2fd46c836a06233681665,64dc7ee5ece5e899728bce2b,,,,,,,sngl,resources/Empty.png,resources/DR.BMP,Door3,0.293518575,-0.022222222,1,0,0,0.5627,optionRight,70,6070,3,28,0,28,0,1,,,,,,,,,,,,,,,,,,,,,,,,,,,,,,,,,,,,,,,
,,,,,,,,2023-08-16_08h47.42.946,HF_wild_card,2022.2.4,Win32,60.35731531,5e95d76c8cfb0502e3db1f88,64d2fd46c836a06233681665,64dc7ee5ece5e899728bce2b,,,,,,,sngl,resources/DP.BMP,resources/Empty.png,Door4,-0.356481467,-0.030555556,1,0,0,0.481,optionLeft,80,6150,3,29,0,29,0,1,,,,,,,,,,,,,,,,,,,,,,,,,,,,,,,,,,,,,,,
,,,,,,,,2023-08-16_08h47.42.946,HF_wild_card,2022.2.4,Win32,60.35731531,5e95d76c8cfb0502e3db1f88,64d2fd46c836a06233681665,64dc7ee5ece5e899728bce2b,,,,,,,decisionTrl,resources/DBN.BMP,resources/DG.BMP,Door2,0.516666667,-0.023148176,1,0,0,0.7663,optionRight,20,6170,3,30,0,30,0,1,,,,,,,,,,,,,,,,,,,,,,,,,,,,,,,,,,,,,,,
,,,,,,,,2023-08-16_08h47.42.946,HF_wild_card,2022.2.4,Win32,60.35731531,5e95d76c8cfb0502e3db1f88,64d2fd46c836a06233681665,64dc7ee5ece5e899728bce2b,,,,,,,decisionTrl,resources/DR.BMP,resources/DP.BMP,Door3,-0.367592578,-0.098148176,1,0,0,1.5321,optionLeft,70,6240,3,31,0,31,0,1,,,,,,,,,,,,,,,,,,,,,,,,,,,,,,,,,,,,,,,
,,,,,,,,2023-08-16_08h47.42.946,HF_wild_card,2022.2.4,Win32,60.35731531,5e95d76c8cfb0502e3db1f88,64d2fd46c836a06233681665,64dc7ee5ece5e899728bce2b,,,,,,,decisionTrl,resources/DG.BMP,resources/DBN.BMP,Door2,-0.325925912,-0.05,1,0,0,0.895,optionLeft,20,6260,3,32,0,32,0,1,,,,,,,,,,,,,,,,,,,,,,,,,,,,,,,,,,,,,,,
,,,,,,,,2023-08-16_08h47.42.946,HF_wild_card,2022.2.4,Win32,60.35731531,5e95d76c8cfb0502e3db1f88,64d2fd46c836a06233681665,64dc7ee5ece5e899728bce2b,,,,,,,ctch,resources/DG.BMP,resources/DR.BMP,Door3,0.325,-0.014814843,1,0,0,0.9787,optionRight,70,6330,3,33,0,33,0,1,,,,,,,,,,,,,,,,,,,,,,,,,,,,,,,,,,,,,,,
,,,,,,,,2023-08-16_08h47.42.946,HF_wild_card,2022.2.4,Win32,60.35731531,5e95d76c8cfb0502e3db1f88,64d2fd46c836a06233681665,64dc7ee5ece5e899728bce2b,,,,,,,decisionTrl,resources/DR.BMP,resources/DP.BMP,Door4,0.348148176,-0.069444444,1,0,0,1.3643,optionRight,60,6390,3,34,0,34,0,1,,,,,,,,,,,,,,,,,,,,,,,,,,,,,,,,,,,,,,,
,,,,,,,,2023-08-16_08h47.42.946,HF_wild_card,2022.2.4,Win32,60.35731531,5e95d76c8cfb0502e3db1f88,64d2fd46c836a06233681665,64dc7ee5ece5e899728bce2b,,,,,,,decisionTrl,resources/DY.BMP,resources/DBN.BMP,WildCard_Ex,-0.238888889,-0.020370399,1,0,0,1.0445,optionLeft,5,6395,3,35,0,35,0,1,,,,,,,,,,,,,,,,,,,,,,,,,,,,,,,,,,,,,,,
,,,,,,,,2023-08-16_08h47.42.946,HF_wild_card,2022.2.4,Win32,60.35731531,5e95d76c8cfb0502e3db1f88,64d2fd46c836a06233681665,64dc7ee5ece5e899728bce2b,,,,,,,decisionTrl,resources/DP.BMP,resources/DR.BMP,Door4,-0.291666667,-0.087037065,1,0,0,1.1119,optionLeft,80,6475,3,36,0,36,0,1,,,,,,,,,,,,,,,,,,,,,,,,,,,,,,,,,,,,,,,
,,,,,,,,2023-08-16_08h47.42.946,HF_wild_card,2022.2.4,Win32,60.35731531,5e95d76c8cfb0502e3db1f88,64d2fd46c836a06233681665,64dc7ee5ece5e899728bce2b,,,,,,,decisionTrl,resources/DR.BMP,resources/DP.BMP,Door4,0.365740797,-0.053703732,1,0,0,0.5965,optionRight,60,6535,3,37,0,37,0,1,,,,,,,,,,,,,,,,,,,,,,,,,,,,,,,,,,,,,,,
,,,,,,,,2023-08-16_08h47.42.946,HF_wild_card,2022.2.4,Win32,60.35731531,5e95d76c8cfb0502e3db1f88,64d2fd46c836a06233681665,64dc7ee5ece5e899728bce2b,,,,,,,ctch,resources/DBN.BMP,resources/DP.BMP,Door4,0.343518575,-0.051851866,1,0,0,0.613,optionRight,80,6615,3,38,0,38,0,1,,,,,,,,,,,,,,,,,,,,,,,,,,,,,,,,,,,,,,,
,,,,,,,,2023-08-16_08h47.42.946,HF_wild_card,2022.2.4,Win32,60.35731531,5e95d76c8cfb0502e3db1f88,64d2fd46c836a06233681665,64dc7ee5ece5e899728bce2b,,,,,,,sngl,resources/Empty.png,resources/DY.BMP,WildCard_Ex,0.294444444,-0.064814843,1,0,0,0.6624,optionRight,5,6620,3,39,0,39,0,1,,,,,,,,,,,,,,,,,,,,,,,,,,,,,,,,,,,,,,,
,,,,,,,,2023-08-16_08h47.42.946,HF_wild_card,2022.2.4,Win32,60.35731531,5e95d76c8cfb0502e3db1f88,64d2fd46c836a06233681665,64dc7ee5ece5e899728bce2b,,,,,,,decisionTrl,resources/DY.BMP,resources/DR.BMP,Door3,0.417592621,-0.058333333,1,0,0,1.0446,optionRight,70,6690,3,40,0,40,0,1,,,,,,,,,,,,,,,,,,,,,,,,,,,,,,,,,,,,,,,
,,,,,,,,2023-08-16_08h47.42.946,HF_wild_card,2022.2.4,Win32,60.35731531,5e95d76c8cfb0502e3db1f88,64d2fd46c836a06233681665,64dc7ee5ece5e899728bce2b,,,,,,,decisionTrl,resources/DP.BMP,resources/DR.BMP,Door4,-0.30370369,-0.07129631,1,0,0,1.5882,optionLeft,80,6770,3,41,0,41,0,1,,,,,,,,,,,,,,,,,,,,,,,,,,,,,,,,,,,,,,,
,,,,,,,,2023-08-16_08h47.42.946,HF_wild_card,2022.2.4,Win32,60.35731531,5e95d76c8cfb0502e3db1f88,64d2fd46c836a06233681665,64dc7ee5ece5e899728bce2b,,,,,,,decisionTrl,resources/DR.BMP,resources/DP.BMP,Door3,-0.475,-0.084259288,1,0,0,1.4132,optionLeft,70,6840,3,42,0,42,0,1,,,,,,,,,,,,,,,,,,,,,,,,,,,,,,,,,,,,,,,
,,,,,,,,2023-08-16_08h47.42.946,HF_wild_card,2022.2.4,Win32,60.35731531,5e95d76c8cfb0502e3db1f88,64d2fd46c836a06233681665,64dc7ee5ece5e899728bce2b,,,,,,,decisionTrl,resources/DP.BMP,resources/DY.BMP,WildCard_Ex,0.191666667,-0.069444444,1,0,0,2.6741,optionRight,95,6935,3,43,0,43,0,1,,,,,,,,,,,,,,,,,,,,,,,,,,,,,,,,,,,,,,,
,,,,,,,,2023-08-16_08h47.42.946,HF_wild_card,2022.2.4,Win32,60.35731531,5e95d76c8cfb0502e3db1f88,64d2fd46c836a06233681665,64dc7ee5ece5e899728bce2b,,,,,,,,,,,,,,,,,,,,,,,,,,2,0,2,0,1,,,,,,,,,,,,,,,,,,,,,,,,,,,,,,,,,,
,,,,,,,,2023-08-16_08h47.42.946,HF_wild_card,2022.2.4,Win32,60.35731531,5e95d76c8cfb0502e3db1f88,64d2fd46c836a06233681665,64dc7ee5ece5e899728bce2b,,,,,,,decisionTrl,resources/DG.BMP,resources/DBN.BMP,Door2,-0.329629601,-0.123148176,1,0,0,1.7416,optionLeft,40,6975,4,0,0,0,0,1,,,,,,,,,,,,,,,,,,,,,,,,,,,,,,,,,,,,,,,
,,,,,,,,2023-08-16_08h47.42.946,HF_wild_card,2022.2.4,Win32,60.35731531,5e95d76c8cfb0502e3db1f88,64d2fd46c836a06233681665,64dc7ee5ece5e899728bce2b,,,,,,,sngl,resources/Empty.png,resources/DP.BMP,Door4,0.397222222,0.055555556,1,0,0,0.5438,optionRight,80,7055,4,1,0,1,0,1,,,,,,,,,,,,,,,,,,,,,,,,,,,,,,,,,,,,,,,
,,,,,,,,2023-08-16_08h47.42.946,HF_wild_card,2022.2.4,Win32,60.35731531,5e95d76c8cfb0502e3db1f88,64d2fd46c836a06233681665,64dc7ee5ece5e899728bce2b,,,,,,,sngl,resources/Empty.png,resources/DR.BMP,Door3,0.217592621,-0.001851866,1,0,0,0.5301,optionRight,70,7125,4,2,0,2,0,1,,,,,,,,,,,,,,,,,,,,,,,,,,,,,,,,,,,,,,,
,,,,,,,,2023-08-16_08h47.42.946,HF_wild_card,2022.2.4,Win32,60.35731531,5e95d76c8cfb0502e3db1f88,64d2fd46c836a06233681665,64dc7ee5ece5e899728bce2b,,,,,,,decisionTrl,resources/DG.BMP,resources/DBN.BMP,Door2,-0.300925912,-0.040740755,1,0,0,1.2958,optionLeft,40,7165,4,3,0,3,0,1,,,,,,,,,,,,,,,,,,,,,,,,,,,,,,,,,,,,,,,
,,,,,,,,2023-08-16_08h47.42.946,HF_wild_card,2022.2.4,Win32,60.35731531,5e95d76c8cfb0502e3db1f88,64d2fd46c836a06233681665,64dc7ee5ece5e899728bce2b,,,,,,,decisionTrl,resources/DBN.BMP,resources/DB.BMP,WildCard_NonEx,0.379629686,-0.017592621,1,0,0,0.7948,optionRight,55,7220,4,4,0,4,0,1,,,,,,,,,,,,,,,,,,,,,,,,,,,,,,,,,,,,,,,
,,,,,,,,2023-08-16_08h47.42.946,HF_wild_card,2022.2.4,Win32,60.35731531,5e95d76c8cfb0502e3db1f88,64d2fd46c836a06233681665,64dc7ee5ece5e899728bce2b,,,,,,,ctch,resources/DBN.BMP,resources/DP.BMP,Door4,0.345370399,-0.024074088,1,0,0,1.095,optionRight,60,7280,4,5,0,5,0,1,,,,,,,,,,,,,,,,,,,,,,,,,,,,,,,,,,,,,,,
,,,,,,,,2023-08-16_08h47.42.946,HF_wild_card,2022.2.4,Win32,60.35731531,5e95d76c8cfb0502e3db1f88,64d2fd46c836a06233681665,64dc7ee5ece5e899728bce2b,,,,,,,sngl,resources/Empty.png,resources/DBN.BMP,Door1,0.268518575,-0.018518533,1,0,0,0.7162,optionRight,30,7310,4,6,0,6,0,1,,,,,,,,,,,,,,,,,,,,,,,,,,,,,,,,,,,,,,,
,,,,,,,,2023-08-16_08h47.42.946,HF_wild_card,2022.2.4,Win32,60.35731531,5e95d76c8cfb0502e3db1f88,64d2fd46c836a06233681665,64dc7ee5ece5e899728bce2b,,,,,,,sngl,resources/DG.BMP,resources/Empty.png,Door2,-0.325,-0.090740755,1,0,0,0.5487,optionLeft,20,7330,4,7,0,7,0,1,,,,,,,,,,,,,,,,,,,,,,,,,,,,,,,,,,,,,,,
,,,,,,,,2023-08-16_08h47.42.946,HF_wild_card,2022.2.4,Win32,60.35731531,5e95d76c8cfb0502e3db1f88,64d2fd46c836a06233681665,64dc7ee5ece5e899728bce2b,,,,,,,decisionTrl,resources/DR.BMP,resources/DB.BMP,WildCard_NonEx,0.339814843,-0.017592621,1,0,0,0.8469,optionRight,55,7385,4,8,0,8,0,1,,,,,,,,,,,,,,,,,,,,,,,,,,,,,,,,,,,,,,,
,,,,,,,,2023-08-16_08h47.42.946,HF_wild_card,2022.2.4,Win32,60.35731531,5e95d76c8cfb0502e3db1f88,64d2fd46c836a06233681665,64dc7ee5ece5e899728bce2b,,,,,,,decisionTrl,resources/DB.BMP,resources/DBN.BMP,WildCard_NonEx,-0.288888889,-0.101851866,1,0,0,0.5437,optionLeft,45,7430,4,9,0,9,0,1,,,,,,,,,,,,,,,,,,,,,,,,,,,,,,,,,,,,,,,
,,,,,,,,2023-08-16_08h47.42.946,HF_wild_card,2022.2.4,Win32,60.35731531,5e95d76c8cfb0502e3db1f88,64d2fd46c836a06233681665,64dc7ee5ece5e899728bce2b,,,,,,,sngl,resources/DR.BMP,resources/Empty.png,Door3,-0.398148134,-0.118518533,1,0,0,0.6285,optionLeft,70,7500,4,10,0,10,0,1,,,,,,,,,,,,,,,,,,,,,,,,,,,,,,,,,,,,,,,
,,,,,,,,2023-08-16_08h47.42.946,HF_wild_card,2022.2.4,Win32,60.35731531,5e95d76c8cfb0502e3db1f88,64d2fd46c836a06233681665,64dc7ee5ece5e899728bce2b,,,,,,,ctch,resources/DR.BMP,resources/DG.BMP,Door3,-0.305555556,-0.051851866,1,0,0,1.0956,optionLeft,70,7570,4,11,0,11,0,1,,,,,,,,,,,,,,,,,,,,,,,,,,,,,,,,,,,,,,,
,,,,,,,,2023-08-16_08h47.42.946,HF_wild_card,2022.2.4,Win32,60.35731531,5e95d76c8cfb0502e3db1f88,64d2fd46c836a06233681665,64dc7ee5ece5e899728bce2b,,,,,,,decisionTrl,resources/DBN.BMP,resources/DG.BMP,Door1,-0.407407379,-0.091666667,1,0,0,1.7606,optionLeft,30,7600,4,12,0,12,0,1,,,,,,,,,,,,,,,,,,,,,,,,,,,,,,,,,,,,,,,
,,,,,,,,2023-08-16_08h47.42.946,HF_wild_card,2022.2.4,Win32,60.35731531,5e95d76c8cfb0502e3db1f88,64d2fd46c836a06233681665,64dc7ee5ece5e899728bce2b,,,,,,,decisionTrl,resources/DR.BMP,resources/DP.BMP,Door4,0.347222222,-0.017592621,1,0,0,0.6787,optionRight,80,7680,4,13,0,13,0,1,,,,,,,,,,,,,,,,,,,,,,,,,,,,,,,,,,,,,,,
,,,,,,,,2023-08-16_08h47.42.946,HF_wild_card,2022.2.4,Win32,60.35731531,5e95d76c8cfb0502e3db1f88,64d2fd46c836a06233681665,64dc7ee5ece5e899728bce2b,,,,,,,sngl,resources/DBN.BMP,resources/Empty.png,Door1,-0.282407379,-0.076851866,1,0,0,0.6319,optionLeft,30,7710,4,14,0,14,0,1,,,,,,,,,,,,,,,,,,,,,,,,,,,,,,,,,,,,,,,
,,,,,,,,2023-08-16_08h47.42.946,HF_wild_card,2022.2.4,Win32,60.35731531,5e95d76c8cfb0502e3db1f88,64d2fd46c836a06233681665,64dc7ee5ece5e899728bce2b,,,,,,,decisionTrl,resources/DB.BMP,resources/DG.BMP,WildCard_NonEx,-0.46851849,-0.105555556,1,0,0,0.8612,optionLeft,45,7755,4,15,0,15,0,1,,,,,,,,,,,,,,,,,,,,,,,,,,,,,,,,,,,,,,,
,,,,,,,,2023-08-16_08h47.42.946,HF_wild_card,2022.2.4,Win32,60.35731531,5e95d76c8cfb0502e3db1f88,64d2fd46c836a06233681665,64dc7ee5ece5e899728bce2b,,,,,,,ctch,resources/DP.BMP,resources/DBN.BMP,Door4,-0.333333333,-0.062037065,1,0,0,0.8105,optionLeft,80,7835,4,16,0,16,0,1,,,,,,,,,,,,,,,,,,,,,,,,,,,,,,,,,,,,,,,
,,,,,,,,2023-08-16_08h47.42.946,HF_wild_card,2022.2.4,Win32,60.35731531,5e95d76c8cfb0502e3db1f88,64d2fd46c836a06233681665,64dc7ee5ece5e899728bce2b,,,,,,,decisionTrl,resources/DP.BMP,resources/DR.BMP,Door3,0.378703732,-0.042592621,1,0,0,0.7455,optionRight,70,7905,4,17,0,17,0,1,,,,,,,,,,,,,,,,,,,,,,,,,,,,,,,,,,,,,,,
,,,,,,,,2023-08-16_08h47.42.946,HF_wild_card,2022.2.4,Win32,60.35731531,5e95d76c8cfb0502e3db1f88,64d2fd46c836a06233681665,64dc7ee5ece5e899728bce2b,,,,,,,decisionTrl,resources/DG.BMP,resources/DBN.BMP,Door2,-0.366666667,-0.058333333,1,0,0,0.779,optionLeft,40,7945,4,18,0,18,0,1,,,,,,,,,,,,,,,,,,,,,,,,,,,,,,,,,,,,,,,
,,,,,,,,2023-08-16_08h47.42.946,HF_wild_card,2022.2.4,Win32,60.35731531,5e95d76c8cfb0502e3db1f88,64d2fd46c836a06233681665,64dc7ee5ece5e899728bce2b,,,,,,,decisionTrl,resources/DP.BMP,resources/DB.BMP,WildCard_NonEx,0.445370399,-0.000925954,1,0,0,0.678,optionRight,55,8000,4,19,0,19,0,1,,,,,,,,,,,,,,,,,,,,,,,,,,,,,,,,,,,,,,,
,,,,,,,,2023-08-16_08h47.42.946,HF_wild_card,2022.2.4,Win32,60.35731531,5e95d76c8cfb0502e3db1f88,64d2fd46c836a06233681665,64dc7ee5ece5e899728bce2b,,,,,,,ctch,resources/DP.BMP,resources/DBN.BMP,Door4,-0.319444444,-0.013888889,1,0,0,0.5117,optionLeft,80,8080,4,20,0,20,0,1,,,,,,,,,,,,,,,,,,,,,,,,,,,,,,,,,,,,,,,
,,,,,,,,2023-08-16_08h47.42.946,HF_wild_card,2022.2.4,Win32,60.35731531,5e95d76c8cfb0502e3db1f88,64d2fd46c836a06233681665,64dc7ee5ece5e899728bce2b,,,,,,,decisionTrl,resources/DBN.BMP,resources/DG.BMP,Door2,0.276851908,-0.025,1,0,0,0.7612,optionRight,40,8120,4,21,0,21,0,1,,,,,,,,,,,,,,,,,,,,,,,,,,,,,,,,,,,,,,,
,,,,,,,,2023-08-16_08h47.42.946,HF_wild_card,2022.2.4,Win32,60.35731531,5e95d76c8cfb0502e3db1f88,64d2fd46c836a06233681665,64dc7ee5ece5e899728bce2b,,,,,,,decisionTrl,resources/DP.BMP,resources/DR.BMP,Door4,-0.327777778,-0.060185199,1,0,0,0.844,optionLeft,60,8180,4,22,0,22,0,1,,,,,,,,,,,,,,,,,,,,,,,,,,,,,,,,,,,,,,,
,,,,,,,,2023-08-16_08h47.42.946,HF_wild_card,2022.2.4,Win32,60.35731531,5e95d76c8cfb0502e3db1f88,64d2fd46c836a06233681665,64dc7ee5ece5e899728bce2b,,,,,,,ctch,resources/DG.BMP,resources/DR.BMP,Door3,0.404629686,0.025925912,1,0,0,0.5808,optionRight,70,8250,4,23,0,23,0,1,,,,,,,,,,,,,,,,,,,,,,,,,,,,,,,,,,,,,,,
,,,,,,,,2023-08-16_08h47.42.946,HF_wild_card,2022.2.4,Win32,60.35731531,5e95d76c8cfb0502e3db1f88,64d2fd46c836a06233681665,64dc7ee5ece5e899728bce2b,,,,,,,sngl,resources/DP.BMP,resources/Empty.png,Door4,-0.438888889,-0.145370399,1,0,0,0.5441,optionLeft,60,8310,4,24,0,24,0,1,,,,,,,,,,,,,,,,,,,,,,,,,,,,,,,,,,,,,,,
,,,,,,,,2023-08-16_08h47.42.946,HF_wild_card,2022.2.4,Win32,60.35731531,5e95d76c8cfb0502e3db1f88,64d2fd46c836a06233681665,64dc7ee5ece5e899728bce2b,,,,,,,decisionTrl,resources/DR.BMP,resources/DP.BMP,Door3,-0.430555556,-0.10648151,1,0,0,1.0639,optionLeft,70,8380,4,25,0,25,0,1,,,,,,,,,,,,,,,,,,,,,,,,,,,,,,,,,,,,,,,
,,,,,,,,2023-08-16_08h47.42.946,HF_wild_card,2022.2.4,Win32,60.35731531,5e95d76c8cfb0502e3db1f88,64d2fd46c836a06233681665,64dc7ee5ece5e899728bce2b,,,,,,,decisionTrl,resources/DP.BMP,resources/DR.BMP,Door3,0.378703732,0.019444444,1,0,0,0.7941,optionRight,70,8450,4,26,0,26,0,1,,,,,,,,,,,,,,,,,,,,,,,,,,,,,,,,,,,,,,,
,,,,,,,,2023-08-16_08h47.42.946,HF_wild_card,2022.2.4,Win32,60.35731531,5e95d76c8cfb0502e3db1f88,64d2fd46c836a06233681665,64dc7ee5ece5e899728bce2b,,,,,,,sngl,resources/Empty.png,resources/DB.BMP,WildCard_NonEx,0.350925954,-0.026851866,1,0,0,0.6062,optionRight,45,8495,4,27,0,27,0,1,,,,,,,,,,,,,,,,,,,,,,,,,,,,,,,,,,,,,,,
,,,,,,,,2023-08-16_08h47.42.946,HF_wild_card,2022.2.4,Win32,60.35731531,5e95d76c8cfb0502e3db1f88,64d2fd46c836a06233681665,64dc7ee5ece5e899728bce2b,,,,,,,decisionTrl,resources/DG.BMP,resources/DBN.BMP,Door2,-0.355555556,-0.014814843,1,0,0,1.1439,optionLeft,20,8515,4,28,0,28,0,1,,,,,,,,,,,,,,,,,,,,,,,,,,,,,,,,,,,,,,,
,,,,,,,,2023-08-16_08h47.42.946,HF_wild_card,2022.2.4,Win32,60.35731531,5e95d76c8cfb0502e3db1f88,64d2fd46c836a06233681665,64dc7ee5ece5e899728bce2b,,,,,,,decisionTrl,resources/DB.BMP,resources/DP.BMP,Door4,0.289814843,-0.037037065,1,0,0,1.1126,optionRight,60,8575,4,29,0,29,0,1,,,,,,,,,,,,,,,,,,,,,,,,,,,,,,,,,,,,,,,
,,,,,,,,2023-08-16_08h47.42.946,HF_wild_card,2022.2.4,Win32,60.35731531,5e95d76c8cfb0502e3db1f88,64d2fd46c836a06233681665,64dc7ee5ece5e899728bce2b,,,,,,,sngl,resources/DB.BMP,resources/Empty.png,WildCard_NonEx,-0.433333333,-0.128703732,1,0,0,0.5795,optionLeft,45,8620,4,30,0,30,0,1,,,,,,,,,,,,,,,,,,,,,,,,,,,,,,,,,,,,,,,
,,,,,,,,2023-08-16_08h47.42.946,HF_wild_card,2022.2.4,Win32,60.35731531,5e95d76c8cfb0502e3db1f88,64d2fd46c836a06233681665,64dc7ee5ece5e899728bce2b,,,,,,,ctch,resources/DG.BMP,resources/DR.BMP,Door3,0.244444444,-0.023148176,1,0,0,2.1134,optionRight,70,8690,4,31,0,31,0,1,,,,,,,,,,,,,,,,,,,,,,,,,,,,,,,,,,,,,,,
,,,,,,,,2023-08-16_08h47.42.946,HF_wild_card,2022.2.4,Win32,60.35731531,5e95d76c8cfb0502e3db1f88,64d2fd46c836a06233681665,64dc7ee5ece5e899728bce2b,,,,,,,ctch,resources/DBN.BMP,resources/DP.BMP,Door1,-0.241666667,-0.049074088,1,0,0,1.3434,optionLeft,30,8720,4,32,0,32,0,1,,,,,,,,,,,,,,,,,,,,,,,,,,,,,,,,,,,,,,,
,,,,,,,,2023-08-16_08h47.42.946,HF_wild_card,2022.2.4,Win32,60.35731531,5e95d76c8cfb0502e3db1f88,64d2fd46c836a06233681665,64dc7ee5ece5e899728bce2b,,,,,,,ctch,resources/DR.BMP,resources/DG.BMP,Door3,-0.36851849,-0.079629644,1,0,0,0.953,optionLeft,70,8790,4,33,0,33,0,1,,,,,,,,,,,,,,,,,,,,,,,,,,,,,,,,,,,,,,,
,,,,,,,,2023-08-16_08h47.42.946,HF_wild_card,2022.2.4,Win32,60.35731531,5e95d76c8cfb0502e3db1f88,64d2fd46c836a06233681665,64dc7ee5ece5e899728bce2b,,,,,,,decisionTrl,resources/DB.BMP,resources/DR.BMP,Door3,0.273148176,-0.025925954,1,0,0,0.8769,optionRight,70,8860,4,34,0,34,0,1,,,,,,,,,,,,,,,,,,,,,,,,,,,,,,,,,,,,,,,
,,,,,,,,2023-08-16_08h47.42.946,HF_wild_card,2022.2.4,Win32,60.35731531,5e95d76c8cfb0502e3db1f88,64d2fd46c836a06233681665,64dc7ee5ece5e899728bce2b,,,,,,,decisionTrl,resources/DBN.BMP,resources/DG.BMP,Door2,0.3,-0.016666667,1,0,0,1.0115,optionRight,40,8900,4,35,0,35,0,1,,,,,,,,,,,,,,,,,,,,,,,,,,,,,,,,,,,,,,,
,,,,,,,,2023-08-16_08h47.42.946,HF_wild_card,2022.2.4,Win32,60.35731531,5e95d76c8cfb0502e3db1f88,64d2fd46c836a06233681665,64dc7ee5ece5e899728bce2b,,,,,,,sngl,resources/Empty.png,resources/DB.BMP,WildCard_NonEx,0.342592621,-0.015740755,1,0,0,0.5616,optionRight,55,8955,4,36,0,36,0,1,,,,,,,,,,,,,,,,,,,,,,,,,,,,,,,,,,,,,,,
,,,,,,,,2023-08-16_08h47.42.946,HF_wild_card,2022.2.4,Win32,60.35731531,5e95d76c8cfb0502e3db1f88,64d2fd46c836a06233681665,64dc7ee5ece5e899728bce2b,,,,,,,decisionTrl,resources/DG.BMP,resources/DB.BMP,WildCard_NonEx,0.287963019,-0.074074088,1,0,0,1.0111,optionRight,55,9010,4,37,0,37,0,1,,,,,,,,,,,,,,,,,,,,,,,,,,,,,,,,,,,,,,,
,,,,,,,,2023-08-16_08h47.42.946,HF_wild_card,2022.2.4,Win32,60.35731531,5e95d76c8cfb0502e3db1f88,64d2fd46c836a06233681665,64dc7ee5ece5e899728bce2b,,,,,,,decisionTrl,resources/DR.BMP,resources/DP.BMP,Door3,-0.258333333,-0.007407422,1,0,0,0.5276,optionLeft,70,9080,4,38,0,38,0,1,,,,,,,,,,,,,,,,,,,,,,,,,,,,,,,,,,,,,,,
,,,,,,,,2023-08-16_08h47.42.946,HF_wild_card,2022.2.4,Win32,60.35731531,5e95d76c8cfb0502e3db1f88,64d2fd46c836a06233681665,64dc7ee5ece5e899728bce2b,,,,,,,decisionTrl,resources/DP.BMP,resources/DR.BMP,Door4,-0.244444444,-0.028703732,1,0,0,0.8967,optionLeft,80,9160,4,39,0,39,0,1,,,,,,,,,,,,,,,,,,,,,,,,,,,,,,,,,,,,,,,
,,,,,,,,2023-08-16_08h47.42.946,HF_wild_card,2022.2.4,Win32,60.35731531,5e95d76c8cfb0502e3db1f88,64d2fd46c836a06233681665,64dc7ee5ece5e899728bce2b,,,,,,,sngl,resources/DB.BMP,resources/Empty.png,WildCard_NonEx,-0.202777778,-0.059259288,1,0,0,0.5467,optionLeft,55,9215,4,40,0,40,0,1,,,,,,,,,,,,,,,,,,,,,,,,,,,,,,,,,,,,,,,
,,,,,,,,2023-08-16_08h47.42.946,HF_wild_card,2022.2.4,Win32,60.35731531,5e95d76c8cfb0502e3db1f88,64d2fd46c836a06233681665,64dc7ee5ece5e899728bce2b,,,,,,,decisionTrl,resources/DBN.BMP,resources/DG.BMP,Door2,0.403703732,-0.014814843,1,0,0,0.9798,optionRight,40,9255,4,41,0,41,0,1,,,,,,,,,,,,,,,,,,,,,,,,,,,,,,,,,,,,,,,
,,,,,,,,2023-08-16_08h47.42.946,HF_wild_card,2022.2.4,Win32,60.35731531,5e95d76c8cfb0502e3db1f88,64d2fd46c836a06233681665,64dc7ee5ece5e899728bce2b,,,,,,,decisionTrl,resources/DR.BMP,resources/DP.BMP,Door4,0.286111111,-0.102777778,1,0,0,1.2046,optionRight,60,9315,4,42,0,42,0,1,,,,,,,,,,,,,,,,,,,,,,,,,,,,,,,,,,,,,,,
,,,,,,,,2023-08-16_08h47.42.946,HF_wild_card,2022.2.4,Win32,60.35731531,5e95d76c8cfb0502e3db1f88,64d2fd46c836a06233681665,64dc7ee5ece5e899728bce2b,,,,,,,sngl,resources/Empty.png,resources/DG.BMP,Door2,0.382407464,-0.028703732,1,0,0,0.62,optionRight,40,9355,4,43,0,43,0,1,,,,,,,,,,,,,,,,,,,,,,,,,,,,,,,,,,,,,,,
,,,,,,,,2023-08-16_08h47.42.946,HF_wild_card,2022.2.4,Win32,60.35731531,5e95d76c8cfb0502e3db1f88,64d2fd46c836a06233681665,64dc7ee5ece5e899728bce2b,,,,,,,,,,,,,,,,,,,,,,,,,,3,0,3,0,1,,,,,,,,,,,,,,,,,,,,,,,,,,,,,,,,,,
,,,,,,,,2023-08-16_08h47.42.946,HF_wild_card,2022.2.4,Win32,60.35731531,5e95d76c8cfb0502e3db1f88,64d2fd46c836a06233681665,64dc7ee5ece5e899728bce2b,,,,,,,decisionTrl,resources/DB.BMP,resources/DR.BMP,Door3,0.604629686,-0.001851866,1,0,0,0.9744,optionRight,70,9425,5,0,0,0,0,1,,,,,,,,,,,,,,,,,,,,,,,,,,,,,,,,,,,,,,,
,,,,,,,,2023-08-16_08h47.42.946,HF_wild_card,2022.2.4,Win32,60.35731531,5e95d76c8cfb0502e3db1f88,64d2fd46c836a06233681665,64dc7ee5ece5e899728bce2b,,,,,,,decisionTrl,resources/DBN.BMP,resources/DG.BMP,Door2,0.389814843,0.009259245,1,0,0,0.6436,optionRight,20,9445,5,1,0,1,0,1,,,,,,,,,,,,,,,,,,,,,,,,,,,,,,,,,,,,,,,
,,,,,,,,2023-08-16_08h47.42.946,HF_wild_card,2022.2.4,Win32,60.35731531,5e95d76c8cfb0502e3db1f88,64d2fd46c836a06233681665,64dc7ee5ece5e899728bce2b,,,,,,,decisionTrl,resources/DB.BMP,resources/DG.BMP,WildCard_NonEx,-0.457407379,-0.147222222,1,0,0,0.7944,optionLeft,55,9500,5,2,0,2,0,1,,,,,,,,,,,,,,,,,,,,,,,,,,,,,,,,,,,,,,,
,,,,,,,,2023-08-16_08h47.42.946,HF_wild_card,2022.2.4,Win32,60.35731531,5e95d76c8cfb0502e3db1f88,64d2fd46c836a06233681665,64dc7ee5ece5e899728bce2b,,,,,,,decisionTrl,resources/DR.BMP,resources/DP.BMP,Door3,-0.396296268,-0.148148176,1,0,0,0.9357,optionLeft,70,9570,5,3,0,3,0,1,,,,,,,,,,,,,,,,,,,,,,,,,,,,,,,,,,,,,,,
,,,,,,,,2023-08-16_08h47.42.946,HF_wild_card,2022.2.4,Win32,60.35731531,5e95d76c8cfb0502e3db1f88,64d2fd46c836a06233681665,64dc7ee5ece5e899728bce2b,,,,,,,decisionTrl,resources/DG.BMP,resources/DBN.BMP,Door2,-0.377777778,-0.142592621,1,0,0,0.8408,optionLeft,40,9610,5,4,0,4,0,1,,,,,,,,,,,,,,,,,,,,,,,,,,,,,,,,,,,,,,,
,,,,,,,,2023-08-16_08h47.42.946,HF_wild_card,2022.2.4,Win32,60.35731531,5e95d76c8cfb0502e3db1f88,64d2fd46c836a06233681665,64dc7ee5ece5e899728bce2b,,,,,,,decisionTrl,resources/DG.BMP,resources/DBN.BMP,Door2,-0.322222222,-0.033333333,1,0,0,0.911,optionLeft,40,9650,5,5,0,5,0,1,,,,,,,,,,,,,,,,,,,,,,,,,,,,,,,,,,,,,,,
,,,,,,,,2023-08-16_08h47.42.946,HF_wild_card,2022.2.4,Win32,60.35731531,5e95d76c8cfb0502e3db1f88,64d2fd46c836a06233681665,64dc7ee5ece5e899728bce2b,,,,,,,decisionTrl,resources/DG.BMP,resources/DBN.BMP,Door2,-0.237037023,-0.019444444,1,0,0,0.7251,optionLeft,40,9690,5,6,0,6,0,1,,,,,,,,,,,,,,,,,,,,,,,,,,,,,,,,,,,,,,,
,,,,,,,,2023-08-16_08h47.42.946,HF_wild_card,2022.2.4,Win32,60.35731531,5e95d76c8cfb0502e3db1f88,64d2fd46c836a06233681665,64dc7ee5ece5e899728bce2b,,,,,,,ctch,resources/DBN.BMP,resources/DP.BMP,Door4,0.357407464,-0.011111111,1,0,0,0.6778,optionRight,60,9750,5,7,0,7,0,1,,,,,,,,,,,,,,,,,,,,,,,,,,,,,,,,,,,,,,,
,,,,,,,,2023-08-16_08h47.42.946,HF_wild_card,2022.2.4,Win32,60.35731531,5e95d76c8cfb0502e3db1f88,64d2fd46c836a06233681665,64dc7ee5ece5e899728bce2b,,,,,,,ctch,resources/DP.BMP,resources/DBN.BMP,Door4,-0.366666667,-0.104629644,1,0,0,0.6715,optionLeft,80,9830,5,8,0,8,0,1,,,,,,,,,,,,,,,,,,,,,,,,,,,,,,,,,,,,,,,
,,,,,,,,2023-08-16_08h47.42.946,HF_wild_card,2022.2.4,Win32,60.35731531,5e95d76c8cfb0502e3db1f88,64d2fd46c836a06233681665,64dc7ee5ece5e899728bce2b,,,,,,,decisionTrl,resources/DB.BMP,resources/DP.BMP,Door4,0.272222222,-0.035185199,1,0,0,0.8303,optionRight,80,9910,5,9,0,9,0,1,,,,,,,,,,,,,,,,,,,,,,,,,,,,,,,,,,,,,,,
,,,,,,,,2023-08-16_08h47.42.946,HF_wild_card,2022.2.4,Win32,60.35731531,5e95d76c8cfb0502e3db1f88,64d2fd46c836a06233681665,64dc7ee5ece5e899728bce2b,,,,,,,sngl,resources/DP.BMP,resources/Empty.png,Door4,-0.272222222,-0.09629631,1,0,0,0.5461,optionLeft,80,9990,5,10,0,10,0,1,,,,,,,,,,,,,,,,,,,,,,,,,,,,,,,,,,,,,,,
,,,,,,,,2023-08-16_08h47.42.946,HF_wild_card,2022.2.4,Win32,60.35731531,5e95d76c8cfb0502e3db1f88,64d2fd46c836a06233681665,64dc7ee5ece5e899728bce2b,,,,,,,sngl,resources/DR.BMP,resources/Empty.png,Door3,-0.316666667,-0.063888889,1,0,0,0.5139,optionLeft,70,10060,5,11,0,11,0,1,,,,,,,,,,,,,,,,,,,,,,,,,,,,,,,,,,,,,,,
,,,,,,,,2023-08-16_08h47.42.946,HF_wild_card,2022.2.4,Win32,60.35731531,5e95d76c8cfb0502e3db1f88,64d2fd46c836a06233681665,64dc7ee5ece5e899728bce2b,,,,,,,decisionTrl,resources/DG.BMP,resources/DBN.BMP,Door2,-0.287962935,-0.038888889,1,0,0,0.8807,optionLeft,40,10100,5,12,0,12,0,1,,,,,,,,,,,,,,,,,,,,,,,,,,,,,,,,,,,,,,,
,,,,,,,,2023-08-16_08h47.42.946,HF_wild_card,2022.2.4,Win32,60.35731531,5e95d76c8cfb0502e3db1f88,64d2fd46c836a06233681665,64dc7ee5ece5e899728bce2b,,,,,,,decisionTrl,resources/DP.BMP,resources/DR.BMP,Door3,0.316666667,-0.004629644,1,0,0,1.0619,optionRight,70,10170,5,13,0,13,0,1,,,,,,,,,,,,,,,,,,,,,,,,,,,,,,,,,,,,,,,
,,,,,,,,2023-08-16_08h47.42.946,HF_wild_card,2022.2.4,Win32,60.35731531,5e95d76c8cfb0502e3db1f88,64d2fd46c836a06233681665,64dc7ee5ece5e899728bce2b,,,,,,,decisionTrl,resources/DBN.BMP,resources/DG.BMP,Door2,0.242592621,0.036111111,1,0,0,0.811,optionRight,20,10190,5,14,0,14,0,1,,,,,,,,,,,,,,,,,,,,,,,,,,,,,,,,,,,,,,,
,,,,,,,,2023-08-16_08h47.42.946,HF_wild_card,2022.2.4,Win32,60.35731531,5e95d76c8cfb0502e3db1f88,64d2fd46c836a06233681665,64dc7ee5ece5e899728bce2b,,,,,,,sngl,resources/Empty.png,resources/DBN.BMP,Door1,0.162037065,-0.012962977,1,0,0,0.6773,optionRight,30,10220,5,15,0,15,0,1,,,,,,,,,,,,,,,,,,,,,,,,,,,,,,,,,,,,,,,
,,,,,,,,2023-08-16_08h47.42.946,HF_wild_card,2022.2.4,Win32,60.35731531,5e95d76c8cfb0502e3db1f88,64d2fd46c836a06233681665,64dc7ee5ece5e899728bce2b,,,,,,,decisionTrl,resources/DBN.BMP,resources/DG.BMP,Door2,0.346296353,0.006481467,1,0,0,0.7452,optionRight,40,10260,5,16,0,16,0,1,,,,,,,,,,,,,,,,,,,,,,,,,,,,,,,,,,,,,,,
,,,,,,,,2023-08-16_08h47.42.946,HF_wild_card,2022.2.4,Win32,60.35731531,5e95d76c8cfb0502e3db1f88,64d2fd46c836a06233681665,64dc7ee5ece5e899728bce2b,,,,,,,sngl,resources/DBN.BMP,resources/Empty.png,Door1,-0.287037023,-0.087037065,1,0,0,0.663,optionLeft,30,10290,5,17,0,17,0,1,,,,,,,,,,,,,,,,,,,,,,,,,,,,,,,,,,,,,,,
,,,,,,,,2023-08-16_08h47.42.946,HF_wild_card,2022.2.4,Win32,60.35731531,5e95d76c8cfb0502e3db1f88,64d2fd46c836a06233681665,64dc7ee5ece5e899728bce2b,,,,,,,decisionTrl,resources/DP.BMP,resources/DB.BMP,Door4,-0.142592536,-0.029629644,1,0,0,1.0947,optionLeft,60,10350,5,18,0,18,0,1,,,,,,,,,,,,,,,,,,,,,,,,,,,,,,,,,,,,,,,
,,,,,,,,2023-08-16_08h47.42.946,HF_wild_card,2022.2.4,Win32,60.35731531,5e95d76c8cfb0502e3db1f88,64d2fd46c836a06233681665,64dc7ee5ece5e899728bce2b,,,,,,,decisionTrl,resources/DR.BMP,resources/DP.BMP,Door3,-0.524074046,-0.176851866,1,0,0,1.3956,optionLeft,70,10420,5,19,0,19,0,1,,,,,,,,,,,,,,,,,,,,,,,,,,,,,,,,,,,,,,,
,,,,,,,,2023-08-16_08h47.42.946,HF_wild_card,2022.2.4,Win32,60.35731531,5e95d76c8cfb0502e3db1f88,64d2fd46c836a06233681665,64dc7ee5ece5e899728bce2b,,,,,,,decisionTrl,resources/DP.BMP,resources/DR.BMP,Door3,0.341666667,-0.025,1,0,0,0.5035,optionRight,70,10490,5,20,0,20,0,1,,,,,,,,,,,,,,,,,,,,,,,,,,,,,,,,,,,,,,,
,,,,,,,,2023-08-16_08h47.42.946,HF_wild_card,2022.2.4,Win32,60.35731531,5e95d76c8cfb0502e3db1f88,64d2fd46c836a06233681665,64dc7ee5ece5e899728bce2b,,,,,,,sngl,resources/Empty.png,resources/DG.BMP,Door2,0.312037065,0.006481467,1,0,0,0.5136,optionRight,20,10510,5,21,0,21,0,1,,,,,,,,,,,,,,,,,,,,,,,,,,,,,,,,,,,,,,,
,,,,,,,,2023-08-16_08h47.42.946,HF_wild_card,2022.2.4,Win32,60.35731531,5e95d76c8cfb0502e3db1f88,64d2fd46c836a06233681665,64dc7ee5ece5e899728bce2b,,,,,,,sngl,resources/DB.BMP,resources/Empty.png,WildCard_NonEx,-0.315740712,-0.084259288,1,0,0,0.5939,optionLeft,55,10565,5,22,0,22,0,1,,,,,,,,,,,,,,,,,,,,,,,,,,,,,,,,,,,,,,,
,,,,,,,,2023-08-16_08h47.42.946,HF_wild_card,2022.2.4,Win32,60.35731531,5e95d76c8cfb0502e3db1f88,64d2fd46c836a06233681665,64dc7ee5ece5e899728bce2b,,,,,,,ctch,resources/DR.BMP,resources/DG.BMP,Door3,-0.334259245,-0.138888889,1,0,0,0.911,optionLeft,70,10635,5,23,0,23,0,1,,,,,,,,,,,,,,,,,,,,,,,,,,,,,,,,,,,,,,,
,,,,,,,,2023-08-16_08h47.42.946,HF_wild_card,2022.2.4,Win32,60.35731531,5e95d76c8cfb0502e3db1f88,64d2fd46c836a06233681665,64dc7ee5ece5e899728bce2b,,,,,,,decisionTrl,resources/DR.BMP,resources/DB.BMP,Door3,-0.445370356,-0.103703732,1,0,0,0.992,optionLeft,70,10705,5,24,0,24,0,1,,,,,,,,,,,,,,,,,,,,,,,,,,,,,,,,,,,,,,,
,,,,,,,,2023-08-16_08h47.42.946,HF_wild_card,2022.2.4,Win32,60.35731531,5e95d76c8cfb0502e3db1f88,64d2fd46c836a06233681665,64dc7ee5ece5e899728bce2b,,,,,,,decisionTrl,resources/DP.BMP,resources/DR.BMP,Door3,0.397222222,0.015740712,1,0,0,0.8956,optionRight,70,10775,5,25,0,25,0,1,,,,,,,,,,,,,,,,,,,,,,,,,,,,,,,,,,,,,,,
,,,,,,,,2023-08-16_08h47.42.946,HF_wild_card,2022.2.4,Win32,60.35731531,5e95d76c8cfb0502e3db1f88,64d2fd46c836a06233681665,64dc7ee5ece5e899728bce2b,,,,,,,sngl,resources/Empty.png,resources/DP.BMP,Door4,0.419444444,0.090740712,1,0,0,0.58,optionRight,60,10835,5,26,0,26,0,1,,,,,,,,,,,,,,,,,,,,,,,,,,,,,,,,,,,,,,,
,,,,,,,,2023-08-16_08h47.42.946,HF_wild_card,2022.2.4,Win32,60.35731531,5e95d76c8cfb0502e3db1f88,64d2fd46c836a06233681665,64dc7ee5ece5e899728bce2b,,,,,,,decisionTrl,resources/DR.BMP,resources/DP.BMP,Door3,-0.289814801,-0.029629644,1,0,0,0.8305,optionLeft,70,10905,5,27,0,27,0,1,,,,,,,,,,,,,,,,,,,,,,,,,,,,,,,,,,,,,,,
,,,,,,,,2023-08-16_08h47.42.946,HF_wild_card,2022.2.4,Win32,60.35731531,5e95d76c8cfb0502e3db1f88,64d2fd46c836a06233681665,64dc7ee5ece5e899728bce2b,,,,,,,decisionTrl,resources/DBN.BMP,resources/DB.BMP,WildCard_NonEx,0.364814843,0.033333333,1,0,0,1.0302,optionRight,55,10960,5,28,0,28,0,1,,,,,,,,,,,,,,,,,,,,,,,,,,,,,,,,,,,,,,,
,,,,,,,,2023-08-16_08h47.42.946,HF_wild_card,2022.2.4,Win32,60.35731531,5e95d76c8cfb0502e3db1f88,64d2fd46c836a06233681665,64dc7ee5ece5e899728bce2b,,,,,,,decisionTrl,resources/DBN.BMP,resources/DG.BMP,Door2,0.487963019,0.069444444,1,0,0,0.7525,optionRight,20,10980,5,29,0,29,0,1,,,,,,,,,,,,,,,,,,,,,,,,,,,,,,,,,,,,,,,
,,,,,,,,2023-08-16_08h47.42.946,HF_wild_card,2022.2.4,Win32,60.35731531,5e95d76c8cfb0502e3db1f88,64d2fd46c836a06233681665,64dc7ee5ece5e899728bce2b,,,,,,,ctch,resources/DG.BMP,resources/DR.BMP,Door3,0.262037065,-0.018518533,1,0,0,0.8968,optionRight,70,11050,5,30,0,30,0,1,,,,,,,,,,,,,,,,,,,,,,,,,,,,,,,,,,,,,,,
,,,,,,,,2023-08-16_08h47.42.946,HF_wild_card,2022.2.4,Win32,60.35731531,5e95d76c8cfb0502e3db1f88,64d2fd46c836a06233681665,64dc7ee5ece5e899728bce2b,,,,,,,sngl,resources/Empty.png,resources/DR.BMP,Door3,0.237963019,-0.025,1,0,0,0.5715,optionRight,70,11120,5,31,0,31,0,1,,,,,,,,,,,,,,,,,,,,,,,,,,,,,,,,,,,,,,,
,,,,,,,,2023-08-16_08h47.42.946,HF_wild_card,2022.2.4,Win32,60.35731531,5e95d76c8cfb0502e3db1f88,64d2fd46c836a06233681665,64dc7ee5ece5e899728bce2b,,,,,,,sngl,resources/DG.BMP,resources/Empty.png,Door2,-0.25,-0.083333333,1,0,0,0.565,optionLeft,40,11160,5,32,0,32,0,1,,,,,,,,,,,,,,,,,,,,,,,,,,,,,,,,,,,,,,,
,,,,,,,,2023-08-16_08h47.42.946,HF_wild_card,2022.2.4,Win32,60.35731531,5e95d76c8cfb0502e3db1f88,64d2fd46c836a06233681665,64dc7ee5ece5e899728bce2b,,,,,,,sngl,resources/DB.BMP,resources/Empty.png,WildCard_NonEx,-0.337037023,-0.132407422,1,0,0,0.5547,optionLeft,45,11205,5,33,0,33,0,1,,,,,,,,,,,,,,,,,,,,,,,,,,,,,,,,,,,,,,,
,,,,,,,,2023-08-16_08h47.42.946,HF_wild_card,2022.2.4,Win32,60.35731531,5e95d76c8cfb0502e3db1f88,64d2fd46c836a06233681665,64dc7ee5ece5e899728bce2b,,,,,,,decisionTrl,resources/DP.BMP,resources/DR.BMP,Door3,0.421296353,0.007407379,1,0,0,1.2975,optionRight,70,11275,5,34,0,34,0,1,,,,,,,,,,,,,,,,,,,,,,,,,,,,,,,,,,,,,,,
,,,,,,,,2023-08-16_08h47.42.946,HF_wild_card,2022.2.4,Win32,60.35731531,5e95d76c8cfb0502e3db1f88,64d2fd46c836a06233681665,64dc7ee5ece5e899728bce2b,,,,,,,sngl,resources/Empty.png,resources/DB.BMP,WildCard_NonEx,0.455555556,0.055555556,1,0,0,0.5706,optionRight,45,11320,5,35,0,35,0,1,,,,,,,,,,,,,,,,,,,,,,,,,,,,,,,,,,,,,,,
,,,,,,,,2023-08-16_08h47.42.946,HF_wild_card,2022.2.4,Win32,60.35731531,5e95d76c8cfb0502e3db1f88,64d2fd46c836a06233681665,64dc7ee5ece5e899728bce2b,,,,,,,decisionTrl,resources/DG.BMP,resources/DB.BMP,Door2,-0.271296268,-0.108333333,1,0,0,1.1954,optionLeft,40,11360,5,36,0,36,0,1,,,,,,,,,,,,,,,,,,,,,,,,,,,,,,,,,,,,,,,
,,,,,,,,2023-08-16_08h47.42.946,HF_wild_card,2022.2.4,Win32,60.35731531,5e95d76c8cfb0502e3db1f88,64d2fd46c836a06233681665,64dc7ee5ece5e899728bce2b,,,,,,,decisionTrl,resources/DR.BMP,resources/DP.BMP,Door3,-0.402777778,-0.147222222,1,0,0,0.9943,optionLeft,70,11430,5,37,0,37,0,1,,,,,,,,,,,,,,,,,,,,,,,,,,,,,,,,,,,,,,,
,,,,,,,,2023-08-16_08h47.42.946,HF_wild_card,2022.2.4,Win32,60.35731531,5e95d76c8cfb0502e3db1f88,64d2fd46c836a06233681665,64dc7ee5ece5e899728bce2b,,,,,,,ctch,resources/DBN.BMP,resources/DP.BMP,Door4,0.265740797,0.013888889,1,0,0,0.8954,optionRight,80,11510,5,38,0,38,0,1,,,,,,,,,,,,,,,,,,,,,,,,,,,,,,,,,,,,,,,
,,,,,,,,2023-08-16_08h47.42.946,HF_wild_card,2022.2.4,Win32,60.35731531,5e95d76c8cfb0502e3db1f88,64d2fd46c836a06233681665,64dc7ee5ece5e899728bce2b,,,,,,,sngl,resources/Empty.png,resources/DB.BMP,WildCard_NonEx,0.328703732,0.017592578,1,0,0,1.0122,optionRight,55,11565,5,39,0,39,0,1,,,,,,,,,,,,,,,,,,,,,,,,,,,,,,,,,,,,,,,
,,,,,,,,2023-08-16_08h47.42.946,HF_wild_card,2022.2.4,Win32,60.35731531,5e95d76c8cfb0502e3db1f88,64d2fd46c836a06233681665,64dc7ee5ece5e899728bce2b,,,,,,,ctch,resources/DG.BMP,resources/DR.BMP,Door3,0.201851908,-0.016666667,1,0,0,1.1343,optionRight,70,11635,5,40,0,40,0,1,,,,,,,,,,,,,,,,,,,,,,,,,,,,,,,,,,,,,,,
,,,,,,,,2023-08-16_08h47.42.946,HF_wild_card,2022.2.4,Win32,60.35731531,5e95d76c8cfb0502e3db1f88,64d2fd46c836a06233681665,64dc7ee5ece5e899728bce2b,,,,,,,ctch,resources/DP.BMP,resources/DBN.BMP,Door4,-0.276851824,-0.108333333,1,0,0,1.4114,optionLeft,60,11695,5,41,0,41,0,1,,,,,,,,,,,,,,,,,,,,,,,,,,,,,,,,,,,,,,,
,,,,,,,,2023-08-16_08h47.42.946,HF_wild_card,2022.2.4,Win32,60.35731531,5e95d76c8cfb0502e3db1f88,64d2fd46c836a06233681665,64dc7ee5ece5e899728bce2b,,,,,,,decisionTrl,resources/DB.BMP,resources/DBN.BMP,WildCard_NonEx,-0.281481467,-0.047222222,1,0,0,1.145,optionLeft,55,11750,5,42,0,42,0,1,,,,,,,,,,,,,,,,,,,,,,,,,,,,,,,,,,,,,,,
,,,,,,,,2023-08-16_08h47.42.946,HF_wild_card,2022.2.4,Win32,60.35731531,5e95d76c8cfb0502e3db1f88,64d2fd46c836a06233681665,64dc7ee5ece5e899728bce2b,,,,,,,ctch,resources/DR.BMP,resources/DG.BMP,Door3,-0.235185157,-0.069444444,1,0,0,0.9269,optionLeft,70,11820,5,43,0,43,0,1,,,,,,,,,,,,,,,,,,,,,,,,,,,,,,,,,,,,,,,
,,,,,,,,2023-08-16_08h47.42.946,HF_wild_card,2022.2.4,Win32,60.35731531,5e95d76c8cfb0502e3db1f88,64d2fd46c836a06233681665,64dc7ee5ece5e899728bce2b,,,,,,,,,,,,,,,,,,,,,,,,,,4,0,4,0,1,,,,,,,,,,,,,,,,,,,,,,,,,,,,,,,,,,
,,,,,,,,2023-08-16_08h47.42.946,HF_wild_card,2022.2.4,Win32,60.35731531,5e95d76c8cfb0502e3db1f88,64d2fd46c836a06233681665,64dc7ee5ece5e899728bce2b,,,,,,,ctch,resources/DR.BMP,resources/DG.BMP,Door3,-0.47870369,-0.194444444,1,0,0,1.2931,optionLeft,70,11890,6,0,0,0,0,1,,,,,,,,,,,,,,,,,,,,,,,,,,,,,,,,,,,,,,,
,,,,,,,,2023-08-16_08h47.42.946,HF_wild_card,2022.2.4,Win32,60.35731531,5e95d76c8cfb0502e3db1f88,64d2fd46c836a06233681665,64dc7ee5ece5e899728bce2b,,,,,,,decisionTrl,resources/DR.BMP,resources/DP.BMP,Door3,-0.21851849,0.017592578,1,0,0,0.8975,optionLeft,70,11960,6,1,0,1,0,1,,,,,,,,,,,,,,,,,,,,,,,,,,,,,,,,,,,,,,,
,,,,,,,,2023-08-16_08h47.42.946,HF_wild_card,2022.2.4,Win32,60.35731531,5e95d76c8cfb0502e3db1f88,64d2fd46c836a06233681665,64dc7ee5ece5e899728bce2b,,,,,,,sngl,resources/DB.BMP,resources/Empty.png,WildCard_NonEx,-0.281481467,-0.033333333,1,0,0,0.5344,optionLeft,45,12005,6,2,0,2,0,1,,,,,,,,,,,,,,,,,,,,,,,,,,,,,,,,,,,,,,,
,,,,,,,,2023-08-16_08h47.42.946,HF_wild_card,2022.2.4,Win32,60.35731531,5e95d76c8cfb0502e3db1f88,64d2fd46c836a06233681665,64dc7ee5ece5e899728bce2b,,,,,,,sngl,resources/DB.BMP,resources/Empty.png,WildCard_NonEx,-0.245370356,-0.038888889,1,0,0,0.5435,optionLeft,55,12060,6,3,0,3,0,1,,,,,,,,,,,,,,,,,,,,,,,,,,,,,,,,,,,,,,,
,,,,,,,,2023-08-16_08h47.42.946,HF_wild_card,2022.2.4,Win32,60.35731531,5e95d76c8cfb0502e3db1f88,64d2fd46c836a06233681665,64dc7ee5ece5e899728bce2b,,,,,,,decisionTrl,resources/DBN.BMP,resources/DG.BMP,Door2,0.377777778,-0.003703732,1,0,0,0.6561,optionRight,20,12080,6,4,0,4,0,1,,,,,,,,,,,,,,,,,,,,,,,,,,,,,,,,,,,,,,,
,,,,,,,,2023-08-16_08h47.42.946,HF_wild_card,2022.2.4,Win32,60.35731531,5e95d76c8cfb0502e3db1f88,64d2fd46c836a06233681665,64dc7ee5ece5e899728bce2b,,,,,,,decisionTrl,resources/DP.BMP,resources/DR.BMP,Door3,0.300925954,-0.049074088,1,0,0,0.8388,optionRight,70,12150,6,5,0,5,0,1,,,,,,,,,,,,,,,,,,,,,,,,,,,,,,,,,,,,,,,
,,,,,,,,2023-08-16_08h47.42.946,HF_wild_card,2022.2.4,Win32,60.35731531,5e95d76c8cfb0502e3db1f88,64d2fd46c836a06233681665,64dc7ee5ece5e899728bce2b,,,,,,,decisionTrl,resources/DG.BMP,resources/DBN.BMP,Door2,-0.335185157,-0.107407422,1,0,0,0.7456,optionLeft,40,12190,6,6,0,6,0,1,,,,,,,,,,,,,,,,,,,,,,,,,,,,,,,,,,,,,,,
,,,,,,,,2023-08-16_08h47.42.946,HF_wild_card,2022.2.4,Win32,60.35731531,5e95d76c8cfb0502e3db1f88,64d2fd46c836a06233681665,64dc7ee5ece5e899728bce2b,,,,,,,sngl,resources/Empty.png,resources/DBN.BMP,Door1,0.371296353,0.031481467,1,0,0,0.9305,optionRight,30,12220,6,7,0,7,0,1,,,,,,,,,,,,,,,,,,,,,,,,,,,,,,,,,,,,,,,
,,,,,,,,2023-08-16_08h47.42.946,HF_wild_card,2022.2.4,Win32,60.35731531,5e95d76c8cfb0502e3db1f88,64d2fd46c836a06233681665,64dc7ee5ece5e899728bce2b,,,,,,,sngl,resources/Empty.png,resources/DB.BMP,WildCard_NonEx,0.226851908,0,1,0,0,0.5801,optionRight,55,12275,6,8,0,8,0,1,,,,,,,,,,,,,,,,,,,,,,,,,,,,,,,,,,,,,,,
,,,,,,,,2023-08-16_08h47.42.946,HF_wild_card,2022.2.4,Win32,60.35731531,5e95d76c8cfb0502e3db1f88,64d2fd46c836a06233681665,64dc7ee5ece5e899728bce2b,,,,,,,sngl,resources/DP.BMP,resources/Empty.png,Door4,-0.264814801,-0.12129631,1,0,0,0.5278,optionLeft,60,12335,6,9,0,9,0,1,,,,,,,,,,,,,,,,,,,,,,,,,,,,,,,,,,,,,,,
,,,,,,,,2023-08-16_08h47.42.946,HF_wild_card,2022.2.4,Win32,60.35731531,5e95d76c8cfb0502e3db1f88,64d2fd46c836a06233681665,64dc7ee5ece5e899728bce2b,,,,,,,sngl,resources/DR.BMP,resources/Empty.png,Door3,-0.301851824,-0.090740755,1,0,0,0.5205,optionLeft,70,12405,6,10,0,10,0,1,,,,,,,,,,,,,,,,,,,,,,,,,,,,,,,,,,,,,,,
,,,,,,,,2023-08-16_08h47.42.946,HF_wild_card,2022.2.4,Win32,60.35731531,5e95d76c8cfb0502e3db1f88,64d2fd46c836a06233681665,64dc7ee5ece5e899728bce2b,,,,,,,decisionTrl,resources/DBN.BMP,resources/DG.BMP,Door1,-0.240740712,-0.079629644,1,0,0,1.4131,optionLeft,30,12435,6,11,0,11,0,1,,,,,,,,,,,,,,,,,,,,,,,,,,,,,,,,,,,,,,,
,,,,,,,,2023-08-16_08h47.42.946,HF_wild_card,2022.2.4,Win32,60.35731531,5e95d76c8cfb0502e3db1f88,64d2fd46c836a06233681665,64dc7ee5ece5e899728bce2b,,,,,,,decisionTrl,resources/DG.BMP,resources/DBN.BMP,Door2,-0.172222222,-0.039814843,1,0,0,1.3646,optionLeft,40,12475,6,12,0,12,0,1,,,,,,,,,,,,,,,,,,,,,,,,,,,,,,,,,,,,,,,
,,,,,,,,2023-08-16_08h47.42.946,HF_wild_card,2022.2.4,Win32,60.35731531,5e95d76c8cfb0502e3db1f88,64d2fd46c836a06233681665,64dc7ee5ece5e899728bce2b,,,,,,,decisionTrl,resources/DB.BMP,resources/DBN.BMP,WildCard_NonEx,-0.259259245,-0.053703732,1,0,0,1.0325,optionLeft,55,12530,6,13,0,13,0,1,,,,,,,,,,,,,,,,,,,,,,,,,,,,,,,,,,,,,,,
,,,,,,,,2023-08-16_08h47.42.946,HF_wild_card,2022.2.4,Win32,60.35731531,5e95d76c8cfb0502e3db1f88,64d2fd46c836a06233681665,64dc7ee5ece5e899728bce2b,,,,,,,decisionTrl,resources/DBN.BMP,resources/DG.BMP,Door2,0.546296353,0.084259245,1,0,0,0.6616,optionRight,40,12570,6,14,0,14,0,1,,,,,,,,,,,,,,,,,,,,,,,,,,,,,,,,,,,,,,,
,,,,,,,,2023-08-16_08h47.42.946,HF_wild_card,2022.2.4,Win32,60.35731531,5e95d76c8cfb0502e3db1f88,64d2fd46c836a06233681665,64dc7ee5ece5e899728bce2b,,,,,,,decisionTrl,resources/DP.BMP,resources/DR.BMP,Door3,0.225925954,-0.028703732,1,0,0,1.081,optionRight,70,12640,6,15,0,15,0,1,,,,,,,,,,,,,,,,,,,,,,,,,,,,,,,,,,,,,,,
,,,,,,,,2023-08-16_08h47.42.946,HF_wild_card,2022.2.4,Win32,60.35731531,5e95d76c8cfb0502e3db1f88,64d2fd46c836a06233681665,64dc7ee5ece5e899728bce2b,,,,,,,ctch,resources/DG.BMP,resources/DR.BMP,Door3,0.127777778,-0.012962977,1,0,0,1.6924,optionRight,70,12710,6,16,0,16,0,1,,,,,,,,,,,,,,,,,,,,,,,,,,,,,,,,,,,,,,,
,,,,,,,,2023-08-16_08h47.42.946,HF_wild_card,2022.2.4,Win32,60.35731531,5e95d76c8cfb0502e3db1f88,64d2fd46c836a06233681665,64dc7ee5ece5e899728bce2b,,,,,,,decisionTrl,resources/DB.BMP,resources/DR.BMP,Door3,0.35,0.004629601,1,0,0,1.048,optionRight,70,12780,6,17,0,17,0,1,,,,,,,,,,,,,,,,,,,,,,,,,,,,,,,,,,,,,,,
,,,,,,,,2023-08-16_08h47.42.946,HF_wild_card,2022.2.4,Win32,60.35731531,5e95d76c8cfb0502e3db1f88,64d2fd46c836a06233681665,64dc7ee5ece5e899728bce2b,,,,,,,sngl,resources/Empty.png,resources/DB.BMP,WildCard_NonEx,0.396296353,0.007407379,1,0,0,0.4947,optionRight,45,12825,6,18,0,18,0,1,,,,,,,,,,,,,,,,,,,,,,,,,,,,,,,,,,,,,,,
,,,,,,,,2023-08-16_08h47.42.946,HF_wild_card,2022.2.4,Win32,60.35731531,5e95d76c8cfb0502e3db1f88,64d2fd46c836a06233681665,64dc7ee5ece5e899728bce2b,,,,,,,sngl,resources/Empty.png,resources/DP.BMP,Door4,0.224074131,-0.020370399,1,0,0,0.4976,optionRight,80,12905,6,19,0,19,0,1,,,,,,,,,,,,,,,,,,,,,,,,,,,,,,,,,,,,,,,
,,,,,,,,2023-08-16_08h47.42.946,HF_wild_card,2022.2.4,Win32,60.35731531,5e95d76c8cfb0502e3db1f88,64d2fd46c836a06233681665,64dc7ee5ece5e899728bce2b,,,,,,,ctch,resources/DP.BMP,resources/DBN.BMP,Door4,-0.207407379,-0.03148151,1,0,0,0.8286,optionLeft,80,12985,6,20,0,20,0,1,,,,,,,,,,,,,,,,,,,,,,,,,,,,,,,,,,,,,,,
,,,,,,,,2023-08-16_08h47.42.946,HF_wild_card,2022.2.4,Win32,60.35731531,5e95d76c8cfb0502e3db1f88,64d2fd46c836a06233681665,64dc7ee5ece5e899728bce2b,,,,,,,decisionTrl,resources/DB.BMP,resources/DP.BMP,Door4,0.442592621,0.072222222,1,0,0,0.5279,optionRight,80,13065,6,21,0,21,0,1,,,,,,,,,,,,,,,,,,,,,,,,,,,,,,,,,,,,,,,
,,,,,,,,2023-08-16_08h47.42.946,HF_wild_card,2022.2.4,Win32,60.35731531,5e95d76c8cfb0502e3db1f88,64d2fd46c836a06233681665,64dc7ee5ece5e899728bce2b,,,,,,,decisionTrl,resources/DP.BMP,resources/DB.BMP,Door4,-0.327777778,-0.119444444,1,0,0,0.6116,optionLeft,80,13145,6,22,0,22,0,1,,,,,,,,,,,,,,,,,,,,,,,,,,,,,,,,,,,,,,,
,,,,,,,,2023-08-16_08h47.42.946,HF_wild_card,2022.2.4,Win32,60.35731531,5e95d76c8cfb0502e3db1f88,64d2fd46c836a06233681665,64dc7ee5ece5e899728bce2b,,,,,,,decisionTrl,resources/DR.BMP,resources/DP.BMP,Door4,0.421296353,0.012037023,1,0,0,0.4944,optionRight,80,13225,6,23,0,23,0,1,,,,,,,,,,,,,,,,,,,,,,,,,,,,,,,,,,,,,,,
,,,,,,,,2023-08-16_08h47.42.946,HF_wild_card,2022.2.4,Win32,60.35731531,5e95d76c8cfb0502e3db1f88,64d2fd46c836a06233681665,64dc7ee5ece5e899728bce2b,,,,,,,ctch,resources/DR.BMP,resources/DG.BMP,Door3,-0.360185157,-0.126851866,1,0,0,1.2496,optionLeft,70,13295,6,24,0,24,0,1,,,,,,,,,,,,,,,,,,,,,,,,,,,,,,,,,,,,,,,
,,,,,,,,2023-08-16_08h47.42.946,HF_wild_card,2022.2.4,Win32,60.35731531,5e95d76c8cfb0502e3db1f88,64d2fd46c836a06233681665,64dc7ee5ece5e899728bce2b,,,,,,,decisionTrl,resources/DBN.BMP,resources/DB.BMP,WildCard_NonEx,0.332407464,0.037037023,1,0,0,1.0282,optionRight,55,13350,6,25,0,25,0,1,,,,,,,,,,,,,,,,,,,,,,,,,,,,,,,,,,,,,,,
,,,,,,,,2023-08-16_08h47.42.946,HF_wild_card,2022.2.4,Win32,60.35731531,5e95d76c8cfb0502e3db1f88,64d2fd46c836a06233681665,64dc7ee5ece5e899728bce2b,,,,,,,decisionTrl,resources/DR.BMP,resources/DP.BMP,Door3,-0.304629601,-0.155555556,1,0,0,0.697,optionLeft,70,13420,6,26,0,26,0,1,,,,,,,,,,,,,,,,,,,,,,,,,,,,,,,,,,,,,,,
,,,,,,,,2023-08-16_08h47.42.946,HF_wild_card,2022.2.4,Win32,60.35731531,5e95d76c8cfb0502e3db1f88,64d2fd46c836a06233681665,64dc7ee5ece5e899728bce2b,,,,,,,decisionTrl,resources/DB.BMP,resources/DG.BMP,Door2,0.298148176,0.055555556,1,0,0,1.7142,optionRight,20,13440,6,27,0,27,0,1,,,,,,,,,,,,,,,,,,,,,,,,,,,,,,,,,,,,,,,
,,,,,,,,2023-08-16_08h47.42.946,HF_wild_card,2022.2.4,Win32,60.35731531,5e95d76c8cfb0502e3db1f88,64d2fd46c836a06233681665,64dc7ee5ece5e899728bce2b,,,,,,,sngl,resources/DG.BMP,resources/Empty.png,Door2,-0.272222222,-0.137037065,1,0,0,0.5772,optionLeft,20,13460,6,28,0,28,0,1,,,,,,,,,,,,,,,,,,,,,,,,,,,,,,,,,,,,,,,
,,,,,,,,2023-08-16_08h47.42.946,HF_wild_card,2022.2.4,Win32,60.35731531,5e95d76c8cfb0502e3db1f88,64d2fd46c836a06233681665,64dc7ee5ece5e899728bce2b,,,,,,,ctch,resources/DG.BMP,resources/DR.BMP,Door3,0.359259288,0.048148134,1,0,0,0.8118,optionRight,70,13530,6,29,0,29,0,1,,,,,,,,,,,,,,,,,,,,,,,,,,,,,,,,,,,,,,,
,,,,,,,,2023-08-16_08h47.42.946,HF_wild_card,2022.2.4,Win32,60.35731531,5e95d76c8cfb0502e3db1f88,64d2fd46c836a06233681665,64dc7ee5ece5e899728bce2b,,,,,,,sngl,resources/Empty.png,resources/DR.BMP,Door3,0.254629686,-0.002777778,1,0,0,0.5956,optionRight,70,13600,6,30,0,30,0,1,,,,,,,,,,,,,,,,,,,,,,,,,,,,,,,,,,,,,,,
,,,,,,,,2023-08-16_08h47.42.946,HF_wild_card,2022.2.4,Win32,60.35731531,5e95d76c8cfb0502e3db1f88,64d2fd46c836a06233681665,64dc7ee5ece5e899728bce2b,,,,,,,decisionTrl,resources/DG.BMP,resources/DBN.BMP,Door2,-0.206481467,-0.075,1,0,0,1.4324,optionLeft,40,13640,6,31,0,31,0,1,,,,,,,,,,,,,,,,,,,,,,,,,,,,,,,,,,,,,,,
,,,,,,,,2023-08-16_08h47.42.946,HF_wild_card,2022.2.4,Win32,60.35731531,5e95d76c8cfb0502e3db1f88,64d2fd46c836a06233681665,64dc7ee5ece5e899728bce2b,,,,,,,decisionTrl,resources/DG.BMP,resources/DB.BMP,WildCard_NonEx,0.350925954,0.025925912,1,0,0,0.9196,optionRight,55,13695,6,32,0,32,0,1,,,,,,,,,,,,,,,,,,,,,,,,,,,,,,,,,,,,,,,
,,,,,,,,2023-08-16_08h47.42.946,HF_wild_card,2022.2.4,Win32,60.35731531,5e95d76c8cfb0502e3db1f88,64d2fd46c836a06233681665,64dc7ee5ece5e899728bce2b,,,,,,,decisionTrl,resources/DG.BMP,resources/DBN.BMP,Door2,-0.316666667,-0.045370399,1,0,0,0.7471,optionLeft,20,13715,6,33,0,33,0,1,,,,,,,,,,,,,,,,,,,,,,,,,,,,,,,,,,,,,,,
,,,,,,,,2023-08-16_08h47.42.946,HF_wild_card,2022.2.4,Win32,60.35731531,5e95d76c8cfb0502e3db1f88,64d2fd46c836a06233681665,64dc7ee5ece5e899728bce2b,,,,,,,ctch,resources/DBN.BMP,resources/DP.BMP,Door4,0.480555556,-0.011111111,1,0,0,0.7817,optionRight,80,13795,6,34,0,34,0,1,,,,,,,,,,,,,,,,,,,,,,,,,,,,,,,,,,,,,,,
,,,,,,,,2023-08-16_08h47.42.946,HF_wild_card,2022.2.4,Win32,60.35731531,5e95d76c8cfb0502e3db1f88,64d2fd46c836a06233681665,64dc7ee5ece5e899728bce2b,,,,,,,decisionTrl,resources/DP.BMP,resources/DR.BMP,Door4,-0.223148134,-0.049074088,1,0,0,0.6614,optionLeft,60,13855,6,35,0,35,0,1,,,,,,,,,,,,,,,,,,,,,,,,,,,,,,,,,,,,,,,
,,,,,,,,2023-08-16_08h47.42.946,HF_wild_card,2022.2.4,Win32,60.35731531,5e95d76c8cfb0502e3db1f88,64d2fd46c836a06233681665,64dc7ee5ece5e899728bce2b,,,,,,,sngl,resources/DBN.BMP,resources/Empty.png,Door1,-0.209259245,-0.04629631,1,0,0,0.843,optionLeft,30,13885,6,36,0,36,0,1,,,,,,,,,,,,,,,,,,,,,,,,,,,,,,,,,,,,,,,
,,,,,,,,2023-08-16_08h47.42.946,HF_wild_card,2022.2.4,Win32,60.35731531,5e95d76c8cfb0502e3db1f88,64d2fd46c836a06233681665,64dc7ee5ece5e899728bce2b,,,,,,,sngl,resources/Empty.png,resources/DG.BMP,Door2,0.602777778,0.075925912,1,0,0,0.5433,optionRight,40,13925,6,37,0,37,0,1,,,,,,,,,,,,,,,,,,,,,,,,,,,,,,,,,,,,,,,
,,,,,,,,2023-08-16_08h47.42.946,HF_wild_card,2022.2.4,Win32,60.35731531,5e95d76c8cfb0502e3db1f88,64d2fd46c836a06233681665,64dc7ee5ece5e899728bce2b,,,,,,,ctch,resources/DBN.BMP,resources/DP.BMP,Door4,0.375925954,0.007407379,1,0,0,0.7817,optionRight,80,14005,6,38,0,38,0,1,,,,,,,,,,,,,,,,,,,,,,,,,,,,,,,,,,,,,,,
,,,,,,,,2023-08-16_08h47.42.946,HF_wild_card,2022.2.4,Win32,60.35731531,5e95d76c8cfb0502e3db1f88,64d2fd46c836a06233681665,64dc7ee5ece5e899728bce2b,,,,,,,decisionTrl,resources/DR.BMP,resources/DB.BMP,Door3,-0.233333333,-0.028703732,1,0,0,1.0819,optionLeft,70,14075,6,39,0,39,0,1,,,,,,,,,,,,,,,,,,,,,,,,,,,,,,,,,,,,,,,
,,,,,,,,2023-08-16_08h47.42.946,HF_wild_card,2022.2.4,Win32,60.35731531,5e95d76c8cfb0502e3db1f88,64d2fd46c836a06233681665,64dc7ee5ece5e899728bce2b,,,,,,,decisionTrl,resources/DP.BMP,resources/DR.BMP,Door3,0.285185242,0.037962935,1,0,0,0.7785,optionRight,70,14145,6,40,0,40,0,1,,,,,,,,,,,,,,,,,,,,,,,,,,,,,,,,,,,,,,,
,,,,,,,,2023-08-16_08h47.42.946,HF_wild_card,2022.2.4,Win32,60.35731531,5e95d76c8cfb0502e3db1f88,64d2fd46c836a06233681665,64dc7ee5ece5e899728bce2b,,,,,,,decisionTrl,resources/DR.BMP,resources/DP.BMP,Door4,0.462037065,0.062962935,1,0,0,0.5776,optionRight,80,14225,6,41,0,41,0,1,,,,,,,,,,,,,,,,,,,,,,,,,,,,,,,,,,,,,,,
,,,,,,,,2023-08-16_08h47.42.946,HF_wild_card,2022.2.4,Win32,60.35731531,5e95d76c8cfb0502e3db1f88,64d2fd46c836a06233681665,64dc7ee5ece5e899728bce2b,,,,,,,ctch,resources/DP.BMP,resources/DBN.BMP,Door4,-0.237962935,-0.058333333,1,0,0,0.561,optionLeft,60,14285,6,42,0,42,0,1,,,,,,,,,,,,,,,,,,,,,,,,,,,,,,,,,,,,,,,
,,,,,,,,2023-08-16_08h47.42.946,HF_wild_card,2022.2.4,Win32,60.35731531,5e95d76c8cfb0502e3db1f88,64d2fd46c836a06233681665,64dc7ee5ece5e899728bce2b,,,,,,,decisionTrl,resources/DBN.BMP,resources/DG.BMP,Door2,0.424074131,0.037962935,1,0,0,0.8783,optionRight,40,14325,6,43,0,43,0,1,,,,,,,,,,,,,,,,,,,,,,,,,,,,,,,,,,,,,,,
,,,,,,,,2023-08-16_08h47.42.946,HF_wild_card,2022.2.4,Win32,60.35731531,5e95d76c8cfb0502e3db1f88,64d2fd46c836a06233681665,64dc7ee5ece5e899728bce2b,,,,,,,,,,,,,,,,,,,,,,,,,,5,0,5,0,1,,,,,,,,,,,,,,,,,,,,,,,,,,,,,,,,,,
,,,,,,,,2023-08-16_08h47.42.946,HF_wild_card,2022.2.4,Win32,60.35731531,5e95d76c8cfb0502e3db1f88,64d2fd46c836a06233681665,64dc7ee5ece5e899728bce2b,,,,,,,decisionTrl,resources/DBN.BMP,resources/DG.BMP,Door2,0.311111111,-0.179629644,1,0,0,0.9485,optionRight,40,14365,7,0,0,0,0,1,,,,,,,,,,,,,,,,,,,,,,,,,,,,,,,,,,,,,,,
,,,,,,,,2023-08-16_08h47.42.946,HF_wild_card,2022.2.4,Win32,60.35731531,5e95d76c8cfb0502e3db1f88,64d2fd46c836a06233681665,64dc7ee5ece5e899728bce2b,,,,,,,decisionTrl,resources/DG.BMP,resources/DBN.BMP,Door1,0.236111111,-0.02129631,1,0,0,1.8131,optionRight,30,14395,7,1,0,1,0,1,,,,,,,,,,,,,,,,,,,,,,,,,,,,,,,,,,,,,,,
,,,,,,,,2023-08-16_08h47.42.946,HF_wild_card,2022.2.4,Win32,60.35731531,5e95d76c8cfb0502e3db1f88,64d2fd46c836a06233681665,64dc7ee5ece5e899728bce2b,,,,,,,ctch,resources/DR.BMP,resources/DG.BMP,Door3,-0.336111111,0.009259245,1,0,0,0.7325,optionLeft,70,14465,7,2,0,2,0,1,,,,,,,,,,,,,,,,,,,,,,,,,,,,,,,,,,,,,,,
,,,,,,,,2023-08-16_08h47.42.946,HF_wild_card,2022.2.4,Win32,60.35731531,5e95d76c8cfb0502e3db1f88,64d2fd46c836a06233681665,64dc7ee5ece5e899728bce2b,,,,,,,decisionTrl,resources/DR.BMP,resources/DP.BMP,Door4,0.266666667,-0.038888889,1,0,0,0.749,optionRight,80,14545,7,3,0,3,0,1,,,,,,,,,,,,,,,,,,,,,,,,,,,,,,,,,,,,,,,
,,,,,,,,2023-08-16_08h47.42.946,HF_wild_card,2022.2.4,Win32,60.35731531,5e95d76c8cfb0502e3db1f88,64d2fd46c836a06233681665,64dc7ee5ece5e899728bce2b,,,,,,,ctch,resources/DR.BMP,resources/DG.BMP,Door3,-0.244444444,0.017592578,1,0,0,0.7986,optionLeft,70,14615,7,4,0,4,0,1,,,,,,,,,,,,,,,,,,,,,,,,,,,,,,,,,,,,,,,
,,,,,,,,2023-08-16_08h47.42.946,HF_wild_card,2022.2.4,Win32,60.35731531,5e95d76c8cfb0502e3db1f88,64d2fd46c836a06233681665,64dc7ee5ece5e899728bce2b,,,,,,,ctch,resources/DG.BMP,resources/DR.BMP,Door3,0.347222222,0.00370369,1,0,0,0.8665,optionRight,70,14685,7,5,0,5,0,1,,,,,,,,,,,,,,,,,,,,,,,,,,,,,,,,,,,,,,,
,,,,,,,,2023-08-16_08h47.42.946,HF_wild_card,2022.2.4,Win32,60.35731531,5e95d76c8cfb0502e3db1f88,64d2fd46c836a06233681665,64dc7ee5ece5e899728bce2b,,,,,,,decisionTrl,resources/DG.BMP,resources/DBN.BMP,Door2,-0.259259245,-0.044444444,1,0,0,0.7498,optionLeft,40,14725,7,6,0,6,0,1,,,,,,,,,,,,,,,,,,,,,,,,,,,,,,,,,,,,,,,
,,,,,,,,2023-08-16_08h47.42.946,HF_wild_card,2022.2.4,Win32,60.35731531,5e95d76c8cfb0502e3db1f88,64d2fd46c836a06233681665,64dc7ee5ece5e899728bce2b,,,,,,,decisionTrl,resources/DR.BMP,resources/DP.BMP,Door4,0.247222222,-0.023148176,1,0,0,1.2486,optionRight,60,14785,7,7,0,7,0,1,,,,,,,,,,,,,,,,,,,,,,,,,,,,,,,,,,,,,,,
,,,,,,,,2023-08-16_08h47.42.946,HF_wild_card,2022.2.4,Win32,60.35731531,5e95d76c8cfb0502e3db1f88,64d2fd46c836a06233681665,64dc7ee5ece5e899728bce2b,,,,,,,decisionTrl,resources/DBN.BMP,resources/DG.BMP,Door2,0.296296353,0.006481467,1,0,0,0.6815,optionRight,40,14825,7,8,0,8,0,1,,,,,,,,,,,,,,,,,,,,,,,,,,,,,,,,,,,,,,,
,,,,,,,,2023-08-16_08h47.42.946,HF_wild_card,2022.2.4,Win32,60.35731531,5e95d76c8cfb0502e3db1f88,64d2fd46c836a06233681665,64dc7ee5ece5e899728bce2b,,,,,,,ctch,resources/DBN.BMP,resources/DP.BMP,Door4,0.282407464,-0.07129631,1,0,0,0.6832,optionRight,80,14905,7,9,0,9,0,1,,,,,,,,,,,,,,,,,,,,,,,,,,,,,,,,,,,,,,,
,,,,,,,,2023-08-16_08h47.42.946,HF_wild_card,2022.2.4,Win32,60.35731531,5e95d76c8cfb0502e3db1f88,64d2fd46c836a06233681665,64dc7ee5ece5e899728bce2b,,,,,,,ctch,resources/DG.BMP,resources/DR.BMP,Door3,0.38148151,-0.03148151,1,0,0,0.9178,optionRight,70,14975,7,10,0,10,0,1,,,,,,,,,,,,,,,,,,,,,,,,,,,,,,,,,,,,,,,
,,,,,,,,2023-08-16_08h47.42.946,HF_wild_card,2022.2.4,Win32,60.35731531,5e95d76c8cfb0502e3db1f88,64d2fd46c836a06233681665,64dc7ee5ece5e899728bce2b,,,,,,,decisionTrl,resources/DG.BMP,resources/DBN.BMP,Door1,0.237037065,0.02870369,1,0,0,1.0489,optionRight,30,15005,7,11,0,11,0,1,,,,,,,,,,,,,,,,,,,,,,,,,,,,,,,,,,,,,,,
,,,,,,,,2023-08-16_08h47.42.946,HF_wild_card,2022.2.4,Win32,60.35731531,5e95d76c8cfb0502e3db1f88,64d2fd46c836a06233681665,64dc7ee5ece5e899728bce2b,,,,,,,ctch,resources/DP.BMP,resources/DBN.BMP,Door4,-0.41851849,-0.036111111,1,0,0,0.7652,optionLeft,80,15085,7,12,0,12,0,1,,,,,,,,,,,,,,,,,,,,,,,,,,,,,,,,,,,,,,,
,,,,,,,,2023-08-16_08h47.42.946,HF_wild_card,2022.2.4,Win32,60.35731531,5e95d76c8cfb0502e3db1f88,64d2fd46c836a06233681665,64dc7ee5ece5e899728bce2b,,,,,,,ctch,resources/DR.BMP,resources/DG.BMP,Door3,-0.340740712,0,1,0,0,1.2507,optionLeft,70,15155,7,13,0,13,0,1,,,,,,,,,,,,,,,,,,,,,,,,,,,,,,,,,,,,,,,
,,,,,,,,2023-08-16_08h47.42.946,HF_wild_card,2022.2.4,Win32,60.35731531,5e95d76c8cfb0502e3db1f88,64d2fd46c836a06233681665,64dc7ee5ece5e899728bce2b,,,,,,,decisionTrl,resources/DP.BMP,resources/DR.BMP,Door4,-0.217592578,-0.005555556,1,0,0,0.9469,optionLeft,60,15215,7,14,0,14,0,1,,,,,,,,,,,,,,,,,,,,,,,,,,,,,,,,,,,,,,,
,,,,,,,,2023-08-16_08h47.42.946,HF_wild_card,2022.2.4,Win32,60.35731531,5e95d76c8cfb0502e3db1f88,64d2fd46c836a06233681665,64dc7ee5ece5e899728bce2b,,,,,,,decisionTrl,resources/DR.BMP,resources/DP.BMP,Door3,-0.362962935,-0.052777778,1,0,0,1.7987,optionLeft,70,15285,7,15,0,15,0,1,,,,,,,,,,,,,,,,,,,,,,,,,,,,,,,,,,,,,,,
,,,,,,,,2023-08-16_08h47.42.946,HF_wild_card,2022.2.4,Win32,60.35731531,5e95d76c8cfb0502e3db1f88,64d2fd46c836a06233681665,64dc7ee5ece5e899728bce2b,,,,,,,decisionTrl,resources/DR.BMP,resources/DP.BMP,Door4,0.340740797,0.02870369,1,0,0,0.8322,optionRight,80,15365,7,16,0,16,0,1,,,,,,,,,,,,,,,,,,,,,,,,,,,,,,,,,,,,,,,
,,,,,,,,2023-08-16_08h47.42.946,HF_wild_card,2022.2.4,Win32,60.35731531,5e95d76c8cfb0502e3db1f88,64d2fd46c836a06233681665,64dc7ee5ece5e899728bce2b,,,,,,,decisionTrl,resources/DP.BMP,resources/DR.BMP,Door3,0.198148176,0.004629601,1,0,0,1.0648,optionRight,70,15435,7,17,0,17,0,1,,,,,,,,,,,,,,,,,,,,,,,,,,,,,,,,,,,,,,,
,,,,,,,,2023-08-16_08h47.42.946,HF_wild_card,2022.2.4,Win32,60.35731531,5e95d76c8cfb0502e3db1f88,64d2fd46c836a06233681665,64dc7ee5ece5e899728bce2b,,,,,,,decisionTrl,resources/DP.BMP,resources/DR.BMP,Door4,-0.317592578,-0.077777778,1,0,0,0.6662,optionLeft,80,15515,7,18,0,18,0,1,,,,,,,,,,,,,,,,,,,,,,,,,,,,,,,,,,,,,,,
,,,,,,,,2023-08-16_08h47.42.946,HF_wild_card,2022.2.4,Win32,60.35731531,5e95d76c8cfb0502e3db1f88,64d2fd46c836a06233681665,64dc7ee5ece5e899728bce2b,,,,,,,ctch,resources/DBN.BMP,resources/DP.BMP,Door4,0.367592621,0.00370369,1,0,0,0.5644,optionRight,60,15575,7,19,0,19,0,1,,,,,,,,,,,,,,,,,,,,,,,,,,,,,,,,,,,,,,,
,,,,,,,,2023-08-16_08h47.42.946,HF_wild_card,2022.2.4,Win32,60.35731531,5e95d76c8cfb0502e3db1f88,64d2fd46c836a06233681665,64dc7ee5ece5e899728bce2b,,,,,,,ctch,resources/DG.BMP,resources/DR.BMP,Door3,0.237963019,-0.023148176,1,0,0,1.0312,optionRight,70,15645,7,20,0,20,0,1,,,,,,,,,,,,,,,,,,,,,,,,,,,,,,,,,,,,,,,
,,,,,,,,2023-08-16_08h47.42.946,HF_wild_card,2022.2.4,Win32,60.35731531,5e95d76c8cfb0502e3db1f88,64d2fd46c836a06233681665,64dc7ee5ece5e899728bce2b,,,,,,,decisionTrl,resources/DR.BMP,resources/DP.BMP,Door4,0.246296353,-0.011111111,1,0,0,1.0481,optionRight,80,15725,7,21,0,21,0,1,,,,,,,,,,,,,,,,,,,,,,,,,,,,,,,,,,,,,,,
,,,,,,,,2023-08-16_08h47.42.946,HF_wild_card,2022.2.4,Win32,60.35731531,5e95d76c8cfb0502e3db1f88,64d2fd46c836a06233681665,64dc7ee5ece5e899728bce2b,,,,,,,decisionTrl,resources/DP.BMP,resources/DR.BMP,Door3,0.235185242,-0.030555556,1,0,0,0.6493,optionRight,70,15795,7,22,0,22,0,1,,,,,,,,,,,,,,,,,,,,,,,,,,,,,,,,,,,,,,,
,,,,,,,,2023-08-16_08h47.42.946,HF_wild_card,2022.2.4,Win32,60.35731531,5e95d76c8cfb0502e3db1f88,64d2fd46c836a06233681665,64dc7ee5ece5e899728bce2b,,,,,,,decisionTrl,resources/DBN.BMP,resources/DG.BMP,Door1,-0.211111111,-0.035185199,1,0,0,1.1823,optionLeft,30,15825,7,23,0,23,0,1,,,,,,,,,,,,,,,,,,,,,,,,,,,,,,,,,,,,,,,
,,,,,,,,2023-08-16_08h47.42.946,HF_wild_card,2022.2.4,Win32,60.35731531,5e95d76c8cfb0502e3db1f88,64d2fd46c836a06233681665,64dc7ee5ece5e899728bce2b,,,,,,,decisionTrl,resources/DBN.BMP,resources/DG.BMP,Door2,0.185185242,-0.009259288,1,0,0,0.9841,optionRight,40,15865,7,24,0,24,0,1,,,,,,,,,,,,,,,,,,,,,,,,,,,,,,,,,,,,,,,
,,,,,,,,2023-08-16_08h47.42.946,HF_wild_card,2022.2.4,Win32,60.35731531,5e95d76c8cfb0502e3db1f88,64d2fd46c836a06233681665,64dc7ee5ece5e899728bce2b,,,,,,,ctch,resources/DBN.BMP,resources/DP.BMP,Door4,0.222222222,-0.012962977,1,0,0,0.6499,optionRight,60,15925,7,25,0,25,0,1,,,,,,,,,,,,,,,,,,,,,,,,,,,,,,,,,,,,,,,
,,,,,,,,2023-08-16_08h47.42.946,HF_wild_card,2022.2.4,Win32,60.35731531,5e95d76c8cfb0502e3db1f88,64d2fd46c836a06233681665,64dc7ee5ece5e899728bce2b,,,,,,,decisionTrl,resources/DP.BMP,resources/DR.BMP,Door3,0.323148176,0.027777778,1,0,0,1.1989,optionRight,70,15995,7,26,0,26,0,1,,,,,,,,,,,,,,,,,,,,,,,,,,,,,,,,,,,,,,,
,,,,,,,,2023-08-16_08h47.42.946,HF_wild_card,2022.2.4,Win32,60.35731531,5e95d76c8cfb0502e3db1f88,64d2fd46c836a06233681665,64dc7ee5ece5e899728bce2b,,,,,,,decisionTrl,resources/DG.BMP,resources/DBN.BMP,Door1,0.184259288,0.027777778,1,0,0,1.0301,optionRight,30,16025,7,27,0,27,0,1,,,,,,,,,,,,,,,,,,,,,,,,,,,,,,,,,,,,,,,
,,,,,,,,2023-08-16_08h47.42.946,HF_wild_card,2022.2.4,Win32,60.35731531,5e95d76c8cfb0502e3db1f88,64d2fd46c836a06233681665,64dc7ee5ece5e899728bce2b,,,,,,,decisionTrl,resources/DG.BMP,resources/DBN.BMP,Door1,0.302777778,-0.007407422,1,0,0,1.3163,optionRight,30,16055,7,28,0,28,0,1,,,,,,,,,,,,,,,,,,,,,,,,,,,,,,,,,,,,,,,
,,,,,,,,2023-08-16_08h47.42.946,HF_wild_card,2022.2.4,Win32,60.35731531,5e95d76c8cfb0502e3db1f88,64d2fd46c836a06233681665,64dc7ee5ece5e899728bce2b,,,,,,,ctch,resources/DP.BMP,resources/DBN.BMP,Door4,-0.404629601,-0.125,1,0,0,0.7659,optionLeft,60,16115,7,29,0,29,0,1,,,,,,,,,,,,,,,,,,,,,,,,,,,,,,,,,,,,,,,
,,,,,,,,2023-08-16_08h47.42.946,HF_wild_card,2022.2.4,Win32,60.35731531,5e95d76c8cfb0502e3db1f88,64d2fd46c836a06233681665,64dc7ee5ece5e899728bce2b,,,,,,,decisionTrl,resources/DR.BMP,resources/DP.BMP,Door3,-0.446296268,-0.091666667,1,0,0,1.2321,optionLeft,70,16185,7,30,0,30,0,1,,,,,,,,,,,,,,,,,,,,,,,,,,,,,,,,,,,,,,,
,,,,,,,,2023-08-16_08h47.42.946,HF_wild_card,2022.2.4,Win32,60.35731531,5e95d76c8cfb0502e3db1f88,64d2fd46c836a06233681665,64dc7ee5ece5e899728bce2b,,,,,,,decisionTrl,resources/DG.BMP,resources/DBN.BMP,Door1,0.291666667,0.025925912,1,0,0,0.9482,optionRight,30,16215,7,31,0,31,0,1,,,,,,,,,,,,,,,,,,,,,,,,,,,,,,,,,,,,,,,
,,,,,,,,2023-08-16_08h47.42.946,HF_wild_card,2022.2.4,Win32,60.35731531,5e95d76c8cfb0502e3db1f88,64d2fd46c836a06233681665,64dc7ee5ece5e899728bce2b,,,,,,,ctch,resources/DP.BMP,resources/DBN.BMP,Door4,-0.279629601,-0.028703732,1,0,0,0.951,optionLeft,60,16275,7,32,0,32,0,1,,,,,,,,,,,,,,,,,,,,,,,,,,,,,,,,,,,,,,,
,,,,,,,,2023-08-16_08h47.42.946,HF_wild_card,2022.2.4,Win32,60.35731531,5e95d76c8cfb0502e3db1f88,64d2fd46c836a06233681665,64dc7ee5ece5e899728bce2b,,,,,,,decisionTrl,resources/DBN.BMP,resources/DG.BMP,Door1,-0.47870369,-0.117592621,1,0,0,1.1166,optionLeft,30,16305,7,33,0,33,0,1,,,,,,,,,,,,,,,,,,,,,,,,,,,,,,,,,,,,,,,
,,,,,,,,2023-08-16_08h47.42.946,HF_wild_card,2022.2.4,Win32,60.35731531,5e95d76c8cfb0502e3db1f88,64d2fd46c836a06233681665,64dc7ee5ece5e899728bce2b,,,,,,,decisionTrl,resources/DP.BMP,resources/DR.BMP,Door4,-0.371296268,-0.038888889,1,0,0,1.2005,optionLeft,60,16365,7,34,0,34,0,1,,,,,,,,,,,,,,,,,,,,,,,,,,,,,,,,,,,,,,,
,,,,,,,,2023-08-16_08h47.42.946,HF_wild_card,2022.2.4,Win32,60.35731531,5e95d76c8cfb0502e3db1f88,64d2fd46c836a06233681665,64dc7ee5ece5e899728bce2b,,,,,,,decisionTrl,resources/DBN.BMP,resources/DG.BMP,Door1,-0.206481467,0.004629601,1,0,0,1.0342,optionLeft,30,16395,7,35,0,35,0,1,,,,,,,,,,,,,,,,,,,,,,,,,,,,,,,,,,,,,,,
,,,,,,,,2023-08-16_08h47.42.946,HF_wild_card,2022.2.4,Win32,60.35731531,5e95d76c8cfb0502e3db1f88,64d2fd46c836a06233681665,64dc7ee5ece5e899728bce2b,,,,,,,,,,,,,,,,,,,,,,,,,,6,0,6,0,1,,,,,,,,,,,,,,,,,,,,,,,,,,,,,,,,,,
,,,,,,,,2023-08-16_08h47.42.946,HF_wild_card,2022.2.4,Win32,60.35731531,5e95d76c8cfb0502e3db1f88,64d2fd46c836a06233681665,64dc7ee5ece5e899728bce2b,,,,,,,,,,,,,,,,,,,,,,,,,,,,,,,4,,,,,,,,,,,,,,,,,,,,,,,,,,,,,,,,,
,,,,,,,,2023-08-16_08h47.42.946,HF_wild_card,2022.2.4,Win32,60.35731531,5e95d76c8cfb0502e3db1f88,64d2fd46c836a06233681665,64dc7ee5ece5e899728bce2b,,,,,,,,,,,,,,,,,,,,,,,,,,,,,,,,,,,,,,,,,,,,,,,,,,,,,,,,,,,,,,,,
,,,,,,,,2023-08-16_08h47.42.946,HF_wild_card,2022.2.4,Win32,60.35731531,5e95d76c8cfb0502e3db1f88,64d2fd46c836a06233681665,64dc7ee5ece5e899728bce2b,,,,,,,,,,,,,,,,,,,,,,,,,,,,,,,,20,Door1,resources/DBN.BMP,0,0,0,0,1,,,,,,,,,,,,,,,,,,,,,,,,,
,,,,,,,,2023-08-16_08h47.42.946,HF_wild_card,2022.2.4,Win32,60.35731531,5e95d76c8cfb0502e3db1f88,64d2fd46c836a06233681665,64dc7ee5ece5e899728bce2b,,,,,,,,,,,,,,,,,,,,,,,,,,,,,,,,70,Door4,resources/DP.BMP,1,0,1,0,1,,,,,,,,,,,,,,,,,,,,,,,,,
,,,,,,,,2023-08-16_08h47.42.946,HF_wild_card,2022.2.4,Win32,60.35731531,5e95d76c8cfb0502e3db1f88,64d2fd46c836a06233681665,64dc7ee5ece5e899728bce2b,,,,,,,,,,,,,,,,,,,,,,,,,,,,,,,,30,Door2,resources/DG.BMP,2,0,2,0,1,,,,,,,,,,,,,,,,,,,,,,,,,
,,,,,,,,2023-08-16_08h47.42.946,HF_wild_card,2022.2.4,Win32,60.35731531,5e95d76c8cfb0502e3db1f88,64d2fd46c836a06233681665,64dc7ee5ece5e899728bce2b,,,,,,,,,,,,,,,,,,,,,,,,,,,,,,,,45,WC_nonExtreme,resources/DB.BMP,3,0,3,0,1,,,,,,,,,,,,,,,,,,,,,,,,,
,,,,,,,,2023-08-16_08h47.42.946,HF_wild_card,2022.2.4,Win32,60.35731531,5e95d76c8cfb0502e3db1f88,64d2fd46c836a06233681665,64dc7ee5ece5e899728bce2b,,,,,,,,,,,,,,,,,,,,,,,,,,,,,,,,85,WC_extreme,resources/DY.BMP,4,0,4,0,1,,,,,,,,,,,,,,,,,,,,,,,,,
,,,,,,,,2023-08-16_08h47.42.946,HF_wild_card,2022.2.4,Win32,60.35731531,5e95d76c8cfb0502e3db1f88,64d2fd46c836a06233681665,64dc7ee5ece5e899728bce2b,,,,,,,,,,,,,,,,,,,,,,,,,,,,,,,,95,Door3,resources/DR.BMP,5,0,5,0,1,,,,,,,,,,,,,,,,,,,,,,,,,
,,,,,,,,2023-08-16_08h47.42.946,HF_wild_card,2022.2.4,Win32,60.35731531,5e95d76c8cfb0502e3db1f88,64d2fd46c836a06233681665,64dc7ee5ece5e899728bce2b,,,,,,,,,,,,,,,,,,,,,,,,,,,,,,,,,,,,,,,,,,,,,,,,,,,,,,,,,,,,,,,,
