Condition,Low fixed image (Door1),Low risky image (Door2),High fixed image (Door3),High risky image (Door4),Extreme Wild Card,NonExtreme Wild Card,,date,expName,psychopyVersion,OS,frameRate,PROLIFIC_PID,STUDY_ID,SESSION_ID,mouse_2.x,mouse_2.y,mouse_2.leftButton,mouse_2.midButton,mouse_2.rightButton,mouse_2.clicked_name,Trial Type,Left Option Image,Right Option Image,Chosen Door,mouse.x,mouse.y,mouse.leftButton,mouse.midButton,mouse.rightButton,mouse.time,mouse.clicked_name,Feedback,Cumulative Reward,Block,trial.thisRepN,trial.thisTrialN,trial.thisN,trial.thisIndex,trial.ran,blocks.thisRepN,blocks.thisTrialN,blocks.thisN,blocks.thisIndex,blocks.ran,Money conversion,First Outcome Reported,Shown Door (First Outcome),Displayed Image (First Outcome),outcomes.thisRepN,outcomes.thisTrialN,outcomes.thisN,outcomes.thisIndex,outcomes.ran,judgments.thisRepN,judgments.thisTrialN,judgments.thisN,judgments.thisIndex,judgments.ran,freqMouse.x,freqMouse.y,freqMouse.leftButton,freqMouse.midButton,freqMouse.rightButton,freqMouse.clicked_name,FQJ for first outcome,FQJ for second outcome,Shown Door,Displayed Image,trials.thisRepN,trials.thisTrialN,trials.thisN,trials.thisIndex,trials.ran,judgBlock.thisRepN,judgBlock.thisTrialN,judgBlock.thisN,judgBlock.thisIndex,judgBlock.ran
1,resources/DP.BMP,resources/DR.BMP,resources/DB.BMP,resources/DY.BMP,resources/DG.BMP,resources/DBN.BMP,,2023-08-16_09h31.19.072,HF_wild_card,2022.2.4,Win32,59.86590038,574c1f935bef980010b0a080,64d2fd46c836a06233681665,64dc7f0710ede78d87d3ce03,,,,,,,,,,,,,,,,,,,,,,,,,,,,,,,,,,,,,,,,,,,,,,,,,,,,,,,,,,,,,,,,
,,,,,,,,2023-08-16_09h31.19.072,HF_wild_card,2022.2.4,Win32,59.86590038,574c1f935bef980010b0a080,64d2fd46c836a06233681665,64dc7f0710ede78d87d3ce03,0.001302083,-0.412760417,1,0,0,agree,,,,,,,,,,,,,,,,,,,,,,,,,,,,,,,,,,,,,,,,,,,,,,,,,,,,,,,,,,
,,,,,,,,2023-08-16_09h31.19.072,HF_wild_card,2022.2.4,Win32,59.86590038,574c1f935bef980010b0a080,64d2fd46c836a06233681665,64dc7f0710ede78d87d3ce03,,,,,,,,,,,,,,,,,,,,,,,,,,,,,,,,,,,,,,,,,,,,,,,,,,,,,,,,,,,,,,,,
,,,,,,,,2023-08-16_09h31.19.072,HF_wild_card,2022.2.4,Win32,59.86590038,574c1f935bef980010b0a080,64d2fd46c836a06233681665,64dc7f0710ede78d87d3ce03,,,,,,,decisionTrl,resources/DBN.BMP,resources/DY.BMP,Door4,0.365885417,-0.135416667,1,0,0,1.72,optionRight,60,60,1,0,0,0,0,1,,,,,,,,,,,,,,,,,,,,,,,,,,,,,,,,,,,,,,,
,,,,,,,,2023-08-16_09h31.19.072,HF_wild_card,2022.2.4,Win32,59.86590038,574c1f935bef980010b0a080,64d2fd46c836a06233681665,64dc7f0710ede78d87d3ce03,,,,,,,sngl,resources/Empty.png,resources/DR.BMP,Door2,0.22265625,-0.055989583,1,0,0,2.2806,optionRight,20,80,1,1,0,1,0,1,,,,,,,,,,,,,,,,,,,,,,,,,,,,,,,,,,,,,,,
,,,,,,,,2023-08-16_09h31.19.072,HF_wild_card,2022.2.4,Win32,59.86590038,574c1f935bef980010b0a080,64d2fd46c836a06233681665,64dc7f0710ede78d87d3ce03,,,,,,,decisionTrl,resources/DB.BMP,resources/DY.BMP,Door4,0.236979167,-0.061197917,1,0,0,0.9469,optionRight,80,160,1,2,0,2,0,1,,,,,,,,,,,,,,,,,,,,,,,,,,,,,,,,,,,,,,,
,,,,,,,,2023-08-16_09h31.19.072,HF_wild_card,2022.2.4,Win32,59.86590038,574c1f935bef980010b0a080,64d2fd46c836a06233681665,64dc7f0710ede78d87d3ce03,,,,,,,decisionTrl,resources/DB.BMP,resources/DY.BMP,Door4,0.16015625,-0.06640625,1,0,0,1.1091,optionRight,80,240,1,3,0,3,0,1,,,,,,,,,,,,,,,,,,,,,,,,,,,,,,,,,,,,,,,
,,,,,,,,2023-08-16_09h31.19.072,HF_wild_card,2022.2.4,Win32,59.86590038,574c1f935bef980010b0a080,64d2fd46c836a06233681665,64dc7f0710ede78d87d3ce03,,,,,,,sngl,resources/DBN.BMP,resources/Empty.png,WildCard_NonEx,-0.235677083,0.0234375,1,0,0,0.8164,optionLeft,55,295,1,4,0,4,0,1,,,,,,,,,,,,,,,,,,,,,,,,,,,,,,,,,,,,,,,
,,,,,,,,2023-08-16_09h31.19.072,HF_wild_card,2022.2.4,Win32,59.86590038,574c1f935bef980010b0a080,64d2fd46c836a06233681665,64dc7f0710ede78d87d3ce03,,,,,,,decisionTrl,resources/DB.BMP,resources/DBN.BMP,Door3,-0.18359375,0.020833333,1,0,0,1.1308,optionLeft,70,365,1,5,0,5,0,1,,,,,,,,,,,,,,,,,,,,,,,,,,,,,,,,,,,,,,,
,,,,,,,,2023-08-16_09h31.19.072,HF_wild_card,2022.2.4,Win32,59.86590038,574c1f935bef980010b0a080,64d2fd46c836a06233681665,64dc7f0710ede78d87d3ce03,,,,,,,decisionTrl,resources/DY.BMP,resources/DB.BMP,Door4,-0.149739583,0.001302083,1,0,0,1.0527,optionLeft,60,425,1,6,0,6,0,1,,,,,,,,,,,,,,,,,,,,,,,,,,,,,,,,,,,,,,,
,,,,,,,,2023-08-16_09h31.19.072,HF_wild_card,2022.2.4,Win32,59.86590038,574c1f935bef980010b0a080,64d2fd46c836a06233681665,64dc7f0710ede78d87d3ce03,,,,,,,decisionTrl,resources/DBN.BMP,resources/DR.BMP,Door2,0.225260417,-0.010416667,1,0,0,1.08,optionRight,20,445,1,7,0,7,0,1,,,,,,,,,,,,,,,,,,,,,,,,,,,,,,,,,,,,,,,
,,,,,,,,2023-08-16_09h31.19.072,HF_wild_card,2022.2.4,Win32,59.86590038,574c1f935bef980010b0a080,64d2fd46c836a06233681665,64dc7f0710ede78d87d3ce03,,,,,,,sngl,resources/Empty.png,resources/DBN.BMP,WildCard_NonEx,0.229166667,-0.044270833,1,0,0,0.7782,optionRight,45,490,1,8,0,8,0,1,,,,,,,,,,,,,,,,,,,,,,,,,,,,,,,,,,,,,,,
,,,,,,,,2023-08-16_09h31.19.072,HF_wild_card,2022.2.4,Win32,59.86590038,574c1f935bef980010b0a080,64d2fd46c836a06233681665,64dc7f0710ede78d87d3ce03,,,,,,,decisionTrl,resources/DB.BMP,resources/DY.BMP,Door3,-0.125,-0.03515625,1,0,0,1.8645,optionLeft,70,560,1,9,0,9,0,1,,,,,,,,,,,,,,,,,,,,,,,,,,,,,,,,,,,,,,,
,,,,,,,,2023-08-16_09h31.19.072,HF_wild_card,2022.2.4,Win32,59.86590038,574c1f935bef980010b0a080,64d2fd46c836a06233681665,64dc7f0710ede78d87d3ce03,,,,,,,sngl,resources/DBN.BMP,resources/Empty.png,WildCard_NonEx,-0.151041667,0.002604167,1,0,0,0.9268,optionLeft,45,605,1,10,0,10,0,1,,,,,,,,,,,,,,,,,,,,,,,,,,,,,,,,,,,,,,,
,,,,,,,,2023-08-16_09h31.19.072,HF_wild_card,2022.2.4,Win32,59.86590038,574c1f935bef980010b0a080,64d2fd46c836a06233681665,64dc7f0710ede78d87d3ce03,,,,,,,decisionTrl,resources/DR.BMP,resources/DBN.BMP,Door2,-0.240885417,0.00390625,1,0,0,0.9523,optionLeft,20,625,1,11,0,11,0,1,,,,,,,,,,,,,,,,,,,,,,,,,,,,,,,,,,,,,,,
,,,,,,,,2023-08-16_09h31.19.072,HF_wild_card,2022.2.4,Win32,59.86590038,574c1f935bef980010b0a080,64d2fd46c836a06233681665,64dc7f0710ede78d87d3ce03,,,,,,,decisionTrl,resources/DY.BMP,resources/DB.BMP,Door4,-0.114583333,-0.005208333,1,0,0,1.8002,optionLeft,60,685,1,12,0,12,0,1,,,,,,,,,,,,,,,,,,,,,,,,,,,,,,,,,,,,,,,
,,,,,,,,2023-08-16_09h31.19.072,HF_wild_card,2022.2.4,Win32,59.86590038,574c1f935bef980010b0a080,64d2fd46c836a06233681665,64dc7f0710ede78d87d3ce03,,,,,,,decisionTrl,resources/DP.BMP,resources/DR.BMP,Door2,0.302083333,-0.08984375,1,0,0,0.8297,optionRight,20,705,1,13,0,13,0,1,,,,,,,,,,,,,,,,,,,,,,,,,,,,,,,,,,,,,,,
,,,,,,,,2023-08-16_09h31.19.072,HF_wild_card,2022.2.4,Win32,59.86590038,574c1f935bef980010b0a080,64d2fd46c836a06233681665,64dc7f0710ede78d87d3ce03,,,,,,,sngl,resources/DB.BMP,resources/Empty.png,Door3,-0.145833333,-0.0078125,1,0,0,0.7325,optionLeft,70,775,1,14,0,14,0,1,,,,,,,,,,,,,,,,,,,,,,,,,,,,,,,,,,,,,,,
,,,,,,,,2023-08-16_09h31.19.072,HF_wild_card,2022.2.4,Win32,59.86590038,574c1f935bef980010b0a080,64d2fd46c836a06233681665,64dc7f0710ede78d87d3ce03,,,,,,,decisionTrl,resources/DP.BMP,resources/DR.BMP,Door1,-0.23046875,0.009114583,1,0,0,1.5442,optionLeft,30,805,1,15,0,15,0,1,,,,,,,,,,,,,,,,,,,,,,,,,,,,,,,,,,,,,,,
,,,,,,,,2023-08-16_09h31.19.072,HF_wild_card,2022.2.4,Win32,59.86590038,574c1f935bef980010b0a080,64d2fd46c836a06233681665,64dc7f0710ede78d87d3ce03,,,,,,,decisionTrl,resources/DY.BMP,resources/DB.BMP,Door3,0.291666667,-0.026041667,1,0,0,1.9637,optionRight,70,875,1,16,0,16,0,1,,,,,,,,,,,,,,,,,,,,,,,,,,,,,,,,,,,,,,,
,,,,,,,,2023-08-16_09h31.19.072,HF_wild_card,2022.2.4,Win32,59.86590038,574c1f935bef980010b0a080,64d2fd46c836a06233681665,64dc7f0710ede78d87d3ce03,,,,,,,ctch,resources/DY.BMP,resources/DP.BMP,Door1,0.1953125,-0.104166667,1,0,0,1.0692,optionRight,30,905,1,17,0,17,0,1,,,,,,,,,,,,,,,,,,,,,,,,,,,,,,,,,,,,,,,
,,,,,,,,2023-08-16_09h31.19.072,HF_wild_card,2022.2.4,Win32,59.86590038,574c1f935bef980010b0a080,64d2fd46c836a06233681665,64dc7f0710ede78d87d3ce03,,,,,,,sngl,resources/Empty.png,resources/DBN.BMP,WildCard_NonEx,0.19140625,-0.02734375,1,0,0,0.8249,optionRight,55,960,1,18,0,18,0,1,,,,,,,,,,,,,,,,,,,,,,,,,,,,,,,,,,,,,,,
,,,,,,,,2023-08-16_09h31.19.072,HF_wild_card,2022.2.4,Win32,59.86590038,574c1f935bef980010b0a080,64d2fd46c836a06233681665,64dc7f0710ede78d87d3ce03,,,,,,,sngl,resources/Empty.png,resources/DY.BMP,Door4,0.203125,-0.053385417,1,0,0,30.6919,optionRight,60,1020,1,19,0,19,0,1,,,,,,,,,,,,,,,,,,,,,,,,,,,,,,,,,,,,,,,
,,,,,,,,2023-08-16_09h31.19.072,HF_wild_card,2022.2.4,Win32,59.86590038,574c1f935bef980010b0a080,64d2fd46c836a06233681665,64dc7f0710ede78d87d3ce03,,,,,,,decisionTrl,resources/DP.BMP,resources/DBN.BMP,WildCard_NonEx,0.294270833,-0.153645833,1,0,0,12.1658,optionRight,45,1065,1,20,0,20,0,1,,,,,,,,,,,,,,,,,,,,,,,,,,,,,,,,,,,,,,,
,,,,,,,,2023-08-16_09h31.19.072,HF_wild_card,2022.2.4,Win32,59.86590038,574c1f935bef980010b0a080,64d2fd46c836a06233681665,64dc7f0710ede78d87d3ce03,,,,,,,decisionTrl,resources/DR.BMP,resources/DP.BMP,Door1,0.27734375,0.052083333,1,0,0,5.5701,optionRight,30,1095,1,21,0,21,0,1,,,,,,,,,,,,,,,,,,,,,,,,,,,,,,,,,,,,,,,
,,,,,,,,2023-08-16_09h31.19.072,HF_wild_card,2022.2.4,Win32,59.86590038,574c1f935bef980010b0a080,64d2fd46c836a06233681665,64dc7f0710ede78d87d3ce03,,,,,,,ctch,resources/DP.BMP,resources/DY.BMP,Door1,-0.263020833,-0.00390625,1,0,0,4.6203,optionLeft,30,1125,1,22,0,22,0,1,,,,,,,,,,,,,,,,,,,,,,,,,,,,,,,,,,,,,,,
,,,,,,,,2023-08-16_09h31.19.072,HF_wild_card,2022.2.4,Win32,59.86590038,574c1f935bef980010b0a080,64d2fd46c836a06233681665,64dc7f0710ede78d87d3ce03,,,,,,,ctch,resources/DP.BMP,resources/DY.BMP,Door4,0.404947917,0.040364583,1,0,0,5.183,optionRight,60,1185,1,23,0,23,0,1,,,,,,,,,,,,,,,,,,,,,,,,,,,,,,,,,,,,,,,
,,,,,,,,2023-08-16_09h31.19.072,HF_wild_card,2022.2.4,Win32,59.86590038,574c1f935bef980010b0a080,64d2fd46c836a06233681665,64dc7f0710ede78d87d3ce03,,,,,,,ctch,resources/DR.BMP,resources/DB.BMP,Door3,0.3203125,-0.01171875,1,0,0,10.0583,optionRight,70,1255,1,24,0,24,0,1,,,,,,,,,,,,,,,,,,,,,,,,,,,,,,,,,,,,,,,
,,,,,,,,2023-08-16_09h31.19.072,HF_wild_card,2022.2.4,Win32,59.86590038,574c1f935bef980010b0a080,64d2fd46c836a06233681665,64dc7f0710ede78d87d3ce03,,,,,,,sngl,resources/DP.BMP,resources/Empty.png,Door1,-0.384114583,-0.02734375,1,0,0,3.983,optionLeft,30,1285,1,25,0,25,0,1,,,,,,,,,,,,,,,,,,,,,,,,,,,,,,,,,,,,,,,
,,,,,,,,2023-08-16_09h31.19.072,HF_wild_card,2022.2.4,Win32,59.86590038,574c1f935bef980010b0a080,64d2fd46c836a06233681665,64dc7f0710ede78d87d3ce03,,,,,,,decisionTrl,resources/DR.BMP,resources/DP.BMP,Door2,-0.38671875,0.015625,1,0,0,8.4129,optionLeft,40,1325,1,26,0,26,0,1,,,,,,,,,,,,,,,,,,,,,,,,,,,,,,,,,,,,,,,
,,,,,,,,2023-08-16_09h31.19.072,HF_wild_card,2022.2.4,Win32,59.86590038,574c1f935bef980010b0a080,64d2fd46c836a06233681665,64dc7f0710ede78d87d3ce03,,,,,,,ctch,resources/DY.BMP,resources/DP.BMP,Door4,-0.216145833,0.0078125,1,0,0,8.1408,optionLeft,80,1405,1,27,0,27,0,1,,,,,,,,,,,,,,,,,,,,,,,,,,,,,,,,,,,,,,,
,,,,,,,,2023-08-16_09h31.19.072,HF_wild_card,2022.2.4,Win32,59.86590038,574c1f935bef980010b0a080,64d2fd46c836a06233681665,64dc7f0710ede78d87d3ce03,,,,,,,sngl,resources/DY.BMP,resources/Empty.png,Door4,-0.282552083,0.040364583,1,0,0,4.4261,optionLeft,80,1485,1,28,0,28,0,1,,,,,,,,,,,,,,,,,,,,,,,,,,,,,,,,,,,,,,,
,,,,,,,,2023-08-16_09h31.19.072,HF_wild_card,2022.2.4,Win32,59.86590038,574c1f935bef980010b0a080,64d2fd46c836a06233681665,64dc7f0710ede78d87d3ce03,,,,,,,ctch,resources/DB.BMP,resources/DR.BMP,Door3,-0.26171875,0.048177083,1,0,0,5.5378,optionLeft,70,1555,1,29,0,29,0,1,,,,,,,,,,,,,,,,,,,,,,,,,,,,,,,,,,,,,,,
,,,,,,,,2023-08-16_09h31.19.072,HF_wild_card,2022.2.4,Win32,59.86590038,574c1f935bef980010b0a080,64d2fd46c836a06233681665,64dc7f0710ede78d87d3ce03,,,,,,,decisionTrl,resources/DP.BMP,resources/DR.BMP,Door1,-0.286458333,-0.020833333,1,0,0,11.1202,optionLeft,30,1585,1,30,0,30,0,1,,,,,,,,,,,,,,,,,,,,,,,,,,,,,,,,,,,,,,,
,,,,,,,,2023-08-16_09h31.19.072,HF_wild_card,2022.2.4,Win32,59.86590038,574c1f935bef980010b0a080,64d2fd46c836a06233681665,64dc7f0710ede78d87d3ce03,,,,,,,decisionTrl,resources/DY.BMP,resources/DB.BMP,Door4,-0.282552083,-0.0078125,1,0,0,6.3521,optionLeft,80,1665,1,31,0,31,0,1,,,,,,,,,,,,,,,,,,,,,,,,,,,,,,,,,,,,,,,
,,,,,,,,2023-08-16_09h31.19.072,HF_wild_card,2022.2.4,Win32,59.86590038,574c1f935bef980010b0a080,64d2fd46c836a06233681665,64dc7f0710ede78d87d3ce03,,,,,,,decisionTrl,resources/DY.BMP,resources/DBN.BMP,Door4,-0.149739583,-0.020833333,1,0,0,13.6362,optionLeft,80,1745,1,32,0,32,0,1,,,,,,,,,,,,,,,,,,,,,,,,,,,,,,,,,,,,,,,
,,,,,,,,2023-08-16_09h31.19.072,HF_wild_card,2022.2.4,Win32,59.86590038,574c1f935bef980010b0a080,64d2fd46c836a06233681665,64dc7f0710ede78d87d3ce03,,,,,,,sngl,resources/Empty.png,resources/DP.BMP,Door1,0.328125,-0.032552083,1,0,0,12.2825,optionRight,30,1775,1,33,0,33,0,1,,,,,,,,,,,,,,,,,,,,,,,,,,,,,,,,,,,,,,,
,,,,,,,,2023-08-16_09h31.19.072,HF_wild_card,2022.2.4,Win32,59.86590038,574c1f935bef980010b0a080,64d2fd46c836a06233681665,64dc7f0710ede78d87d3ce03,,,,,,,ctch,resources/DR.BMP,resources/DB.BMP,Door2,-0.432291667,-0.020833333,1,0,0,10.6683,optionLeft,20,1795,1,34,0,34,0,1,,,,,,,,,,,,,,,,,,,,,,,,,,,,,,,,,,,,,,,
,,,,,,,,2023-08-16_09h31.19.072,HF_wild_card,2022.2.4,Win32,59.86590038,574c1f935bef980010b0a080,64d2fd46c836a06233681665,64dc7f0710ede78d87d3ce03,,,,,,,decisionTrl,resources/DR.BMP,resources/DP.BMP,Door1,0.416666667,-0.006510417,1,0,0,12.8869,optionRight,30,1825,1,35,0,35,0,1,,,,,,,,,,,,,,,,,,,,,,,,,,,,,,,,,,,,,,,
,,,,,,,,2023-08-16_09h31.19.072,HF_wild_card,2022.2.4,Win32,59.86590038,574c1f935bef980010b0a080,64d2fd46c836a06233681665,64dc7f0710ede78d87d3ce03,,,,,,,decisionTrl,resources/DP.BMP,resources/DR.BMP,Door2,0.270833333,-0.020833333,1,0,0,7.25,optionRight,40,1865,1,36,0,36,0,1,,,,,,,,,,,,,,,,,,,,,,,,,,,,,,,,,,,,,,,
,,,,,,,,2023-08-16_09h31.19.072,HF_wild_card,2022.2.4,Win32,59.86590038,574c1f935bef980010b0a080,64d2fd46c836a06233681665,64dc7f0710ede78d87d3ce03,,,,,,,decisionTrl,resources/DBN.BMP,resources/DB.BMP,Door3,0.201822917,0.013020833,1,0,0,7.4503,optionRight,70,1935,1,37,0,37,0,1,,,,,,,,,,,,,,,,,,,,,,,,,,,,,,,,,,,,,,,
,,,,,,,,2023-08-16_09h31.19.072,HF_wild_card,2022.2.4,Win32,59.86590038,574c1f935bef980010b0a080,64d2fd46c836a06233681665,64dc7f0710ede78d87d3ce03,,,,,,,decisionTrl,resources/DR.BMP,resources/DP.BMP,Door2,-0.328125,0.067708333,1,0,0,14.7024,optionLeft,20,1955,1,38,0,38,0,1,,,,,,,,,,,,,,,,,,,,,,,,,,,,,,,,,,,,,,,
,,,,,,,,2023-08-16_09h31.19.072,HF_wild_card,2022.2.4,Win32,59.86590038,574c1f935bef980010b0a080,64d2fd46c836a06233681665,64dc7f0710ede78d87d3ce03,,,,,,,ctch,resources/DB.BMP,resources/DR.BMP,Door3,-0.192708333,-0.006510417,1,0,0,1.9775,optionLeft,70,2025,1,39,0,39,0,1,,,,,,,,,,,,,,,,,,,,,,,,,,,,,,,,,,,,,,,
,,,,,,,,2023-08-16_09h31.19.072,HF_wild_card,2022.2.4,Win32,59.86590038,574c1f935bef980010b0a080,64d2fd46c836a06233681665,64dc7f0710ede78d87d3ce03,,,,,,,decisionTrl,resources/DBN.BMP,resources/DP.BMP,Door1,0.157552083,-0.076822917,1,0,0,2.883,optionRight,30,2055,1,40,0,40,0,1,,,,,,,,,,,,,,,,,,,,,,,,,,,,,,,,,,,,,,,
,,,,,,,,2023-08-16_09h31.19.072,HF_wild_card,2022.2.4,Win32,59.86590038,574c1f935bef980010b0a080,64d2fd46c836a06233681665,64dc7f0710ede78d87d3ce03,,,,,,,decisionTrl,resources/DB.BMP,resources/DY.BMP,Door3,-0.23828125,-0.029947917,1,0,0,1.4003,optionLeft,70,2125,1,41,0,41,0,1,,,,,,,,,,,,,,,,,,,,,,,,,,,,,,,,,,,,,,,
,,,,,,,,2023-08-16_09h31.19.072,HF_wild_card,2022.2.4,Win32,59.86590038,574c1f935bef980010b0a080,64d2fd46c836a06233681665,64dc7f0710ede78d87d3ce03,,,,,,,sngl,resources/DR.BMP,resources/Empty.png,Door2,-0.217447917,0.06640625,1,0,0,0.8529,optionLeft,40,2165,1,42,0,42,0,1,,,,,,,,,,,,,,,,,,,,,,,,,,,,,,,,,,,,,,,
,,,,,,,,2023-08-16_09h31.19.072,HF_wild_card,2022.2.4,Win32,59.86590038,574c1f935bef980010b0a080,64d2fd46c836a06233681665,64dc7f0710ede78d87d3ce03,,,,,,,sngl,resources/Empty.png,resources/DB.BMP,Door3,0.240885417,-0.0625,1,0,0,0.7933,optionRight,70,2235,1,43,0,43,0,1,,,,,,,,,,,,,,,,,,,,,,,,,,,,,,,,,,,,,,,
,,,,,,,,2023-08-16_09h31.19.072,HF_wild_card,2022.2.4,Win32,59.86590038,574c1f935bef980010b0a080,64d2fd46c836a06233681665,64dc7f0710ede78d87d3ce03,,,,,,,,,,,,,,,,,,,,,,,,,,0,0,0,0,1,,,,,,,,,,,,,,,,,,,,,,,,,,,,,,,,,,
,,,,,,,,2023-08-16_09h31.19.072,HF_wild_card,2022.2.4,Win32,59.86590038,574c1f935bef980010b0a080,64d2fd46c836a06233681665,64dc7f0710ede78d87d3ce03,,,,,,,decisionTrl,resources/DBN.BMP,resources/DP.BMP,Door1,0.533854167,0.12890625,1,0,0,1.3833,optionRight,30,2265,2,0,0,0,0,1,,,,,,,,,,,,,,,,,,,,,,,,,,,,,,,,,,,,,,,
,,,,,,,,2023-08-16_09h31.19.072,HF_wild_card,2022.2.4,Win32,59.86590038,574c1f935bef980010b0a080,64d2fd46c836a06233681665,64dc7f0710ede78d87d3ce03,,,,,,,sngl,resources/DB.BMP,resources/Empty.png,Door3,-0.2265625,-0.01953125,1,0,0,0.7758,optionLeft,70,2335,2,1,0,1,0,1,,,,,,,,,,,,,,,,,,,,,,,,,,,,,,,,,,,,,,,
,,,,,,,,2023-08-16_09h31.19.072,HF_wild_card,2022.2.4,Win32,59.86590038,574c1f935bef980010b0a080,64d2fd46c836a06233681665,64dc7f0710ede78d87d3ce03,,,,,,,ctch,resources/DP.BMP,resources/DY.BMP,Door1,-0.045572917,-0.033854167,1,0,0,1.3855,optionLeft,30,2365,2,2,0,2,0,1,,,,,,,,,,,,,,,,,,,,,,,,,,,,,,,,,,,,,,,
,,,,,,,,2023-08-16_09h31.19.072,HF_wild_card,2022.2.4,Win32,59.86590038,574c1f935bef980010b0a080,64d2fd46c836a06233681665,64dc7f0710ede78d87d3ce03,,,,,,,decisionTrl,resources/DY.BMP,resources/DBN.BMP,Door4,-0.20703125,-0.018229167,1,0,0,0.873,optionLeft,80,2445,2,3,0,3,0,1,,,,,,,,,,,,,,,,,,,,,,,,,,,,,,,,,,,,,,,
,,,,,,,,2023-08-16_09h31.19.072,HF_wild_card,2022.2.4,Win32,59.86590038,574c1f935bef980010b0a080,64d2fd46c836a06233681665,64dc7f0710ede78d87d3ce03,,,,,,,ctch,resources/DP.BMP,resources/DY.BMP,Door4,0.197916667,-0.020833333,1,0,0,1.657,optionRight,60,2505,2,4,0,4,0,1,,,,,,,,,,,,,,,,,,,,,,,,,,,,,,,,,,,,,,,
,,,,,,,,2023-08-16_09h31.19.072,HF_wild_card,2022.2.4,Win32,59.86590038,574c1f935bef980010b0a080,64d2fd46c836a06233681665,64dc7f0710ede78d87d3ce03,,,,,,,decisionTrl,resources/DBN.BMP,resources/DR.BMP,WildCard_NonEx,-0.19921875,0.013020833,1,0,0,1.4399,optionLeft,45,2550,2,5,0,5,0,1,,,,,,,,,,,,,,,,,,,,,,,,,,,,,,,,,,,,,,,
,,,,,,,,2023-08-16_09h31.19.072,HF_wild_card,2022.2.4,Win32,59.86590038,574c1f935bef980010b0a080,64d2fd46c836a06233681665,64dc7f0710ede78d87d3ce03,,,,,,,decisionTrl,resources/DB.BMP,resources/DY.BMP,Door3,-0.161458333,-0.01953125,1,0,0,0.8796,optionLeft,70,2620,2,6,0,6,0,1,,,,,,,,,,,,,,,,,,,,,,,,,,,,,,,,,,,,,,,
,,,,,,,,2023-08-16_09h31.19.072,HF_wild_card,2022.2.4,Win32,59.86590038,574c1f935bef980010b0a080,64d2fd46c836a06233681665,64dc7f0710ede78d87d3ce03,,,,,,,sngl,resources/Empty.png,resources/DR.BMP,Door2,0.153645833,-0.00390625,1,0,0,0.8357,optionRight,40,2660,2,7,0,7,0,1,,,,,,,,,,,,,,,,,,,,,,,,,,,,,,,,,,,,,,,
,,,,,,,,2023-08-16_09h31.19.072,HF_wild_card,2022.2.4,Win32,59.86590038,574c1f935bef980010b0a080,64d2fd46c836a06233681665,64dc7f0710ede78d87d3ce03,,,,,,,decisionTrl,resources/DP.BMP,resources/DBN.BMP,WildCard_NonEx,0.177083333,-0.020833333,1,0,0,1.4516,optionRight,55,2715,2,8,0,8,0,1,,,,,,,,,,,,,,,,,,,,,,,,,,,,,,,,,,,,,,,
,,,,,,,,2023-08-16_09h31.19.072,HF_wild_card,2022.2.4,Win32,59.86590038,574c1f935bef980010b0a080,64d2fd46c836a06233681665,64dc7f0710ede78d87d3ce03,,,,,,,decisionTrl,resources/DB.BMP,resources/DY.BMP,Door3,-0.161458333,-0.002604167,1,0,0,0.9537,optionLeft,70,2785,2,9,0,9,0,1,,,,,,,,,,,,,,,,,,,,,,,,,,,,,,,,,,,,,,,
,,,,,,,,2023-08-16_09h31.19.072,HF_wild_card,2022.2.4,Win32,59.86590038,574c1f935bef980010b0a080,64d2fd46c836a06233681665,64dc7f0710ede78d87d3ce03,,,,,,,decisionTrl,resources/DP.BMP,resources/DR.BMP,Door1,-0.140625,0.015625,1,0,0,1.8716,optionLeft,30,2815,2,10,0,10,0,1,,,,,,,,,,,,,,,,,,,,,,,,,,,,,,,,,,,,,,,
,,,,,,,,2023-08-16_09h31.19.072,HF_wild_card,2022.2.4,Win32,59.86590038,574c1f935bef980010b0a080,64d2fd46c836a06233681665,64dc7f0710ede78d87d3ce03,,,,,,,ctch,resources/DY.BMP,resources/DP.BMP,Door4,-0.138020833,-0.014322917,1,0,0,0.8656,optionLeft,60,2875,2,11,0,11,0,1,,,,,,,,,,,,,,,,,,,,,,,,,,,,,,,,,,,,,,,
,,,,,,,,2023-08-16_09h31.19.072,HF_wild_card,2022.2.4,Win32,59.86590038,574c1f935bef980010b0a080,64d2fd46c836a06233681665,64dc7f0710ede78d87d3ce03,,,,,,,decisionTrl,resources/DP.BMP,resources/DR.BMP,Door1,-0.143229167,-0.014322917,1,0,0,1.9544,optionLeft,30,2905,2,12,0,12,0,1,,,,,,,,,,,,,,,,,,,,,,,,,,,,,,,,,,,,,,,
,,,,,,,,2023-08-16_09h31.19.072,HF_wild_card,2022.2.4,Win32,59.86590038,574c1f935bef980010b0a080,64d2fd46c836a06233681665,64dc7f0710ede78d87d3ce03,,,,,,,sngl,resources/Empty.png,resources/DY.BMP,Door4,0.255208333,0.0078125,1,0,0,0.7503,optionRight,80,2985,2,13,0,13,0,1,,,,,,,,,,,,,,,,,,,,,,,,,,,,,,,,,,,,,,,
,,,,,,,,2023-08-16_09h31.19.072,HF_wild_card,2022.2.4,Win32,59.86590038,574c1f935bef980010b0a080,64d2fd46c836a06233681665,64dc7f0710ede78d87d3ce03,,,,,,,sngl,resources/DP.BMP,resources/Empty.png,Door1,-0.1171875,0.002604167,1,0,0,0.6584,optionLeft,30,3015,2,14,0,14,0,1,,,,,,,,,,,,,,,,,,,,,,,,,,,,,,,,,,,,,,,
,,,,,,,,2023-08-16_09h31.19.072,HF_wild_card,2022.2.4,Win32,59.86590038,574c1f935bef980010b0a080,64d2fd46c836a06233681665,64dc7f0710ede78d87d3ce03,,,,,,,sngl,resources/DBN.BMP,resources/Empty.png,WildCard_NonEx,-0.123697917,0.016927083,1,0,0,0.7268,optionLeft,55,3070,2,15,0,15,0,1,,,,,,,,,,,,,,,,,,,,,,,,,,,,,,,,,,,,,,,
,,,,,,,,2023-08-16_09h31.19.072,HF_wild_card,2022.2.4,Win32,59.86590038,574c1f935bef980010b0a080,64d2fd46c836a06233681665,64dc7f0710ede78d87d3ce03,,,,,,,decisionTrl,resources/DR.BMP,resources/DP.BMP,Door1,0.247395833,-0.016927083,1,0,0,1.4738,optionRight,30,3100,2,16,0,16,0,1,,,,,,,,,,,,,,,,,,,,,,,,,,,,,,,,,,,,,,,
,,,,,,,,2023-08-16_09h31.19.072,HF_wild_card,2022.2.4,Win32,59.86590038,574c1f935bef980010b0a080,64d2fd46c836a06233681665,64dc7f0710ede78d87d3ce03,,,,,,,ctch,resources/DR.BMP,resources/DB.BMP,Door3,0.087239583,-0.018229167,1,0,0,1.1925,optionRight,70,3170,2,17,0,17,0,1,,,,,,,,,,,,,,,,,,,,,,,,,,,,,,,,,,,,,,,
,,,,,,,,2023-08-16_09h31.19.072,HF_wild_card,2022.2.4,Win32,59.86590038,574c1f935bef980010b0a080,64d2fd46c836a06233681665,64dc7f0710ede78d87d3ce03,,,,,,,decisionTrl,resources/DR.BMP,resources/DBN.BMP,Door2,-0.157552083,0.002604167,1,0,0,0.7361,optionLeft,20,3190,2,18,0,18,0,1,,,,,,,,,,,,,,,,,,,,,,,,,,,,,,,,,,,,,,,
,,,,,,,,2023-08-16_09h31.19.072,HF_wild_card,2022.2.4,Win32,59.86590038,574c1f935bef980010b0a080,64d2fd46c836a06233681665,64dc7f0710ede78d87d3ce03,,,,,,,decisionTrl,resources/DB.BMP,resources/DY.BMP,Door3,-0.154947917,-0.00390625,1,0,0,2.0975,optionLeft,70,3260,2,19,0,19,0,1,,,,,,,,,,,,,,,,,,,,,,,,,,,,,,,,,,,,,,,
,,,,,,,,2023-08-16_09h31.19.072,HF_wild_card,2022.2.4,Win32,59.86590038,574c1f935bef980010b0a080,64d2fd46c836a06233681665,64dc7f0710ede78d87d3ce03,,,,,,,ctch,resources/DB.BMP,resources/DR.BMP,Door3,-0.140625,0.01953125,1,0,0,1.3585,optionLeft,70,3330,2,20,0,20,0,1,,,,,,,,,,,,,,,,,,,,,,,,,,,,,,,,,,,,,,,
,,,,,,,,2023-08-16_09h31.19.072,HF_wild_card,2022.2.4,Win32,59.86590038,574c1f935bef980010b0a080,64d2fd46c836a06233681665,64dc7f0710ede78d87d3ce03,,,,,,,sngl,resources/Empty.png,resources/DP.BMP,Door1,0.170572917,-0.0078125,1,0,0,0.769,optionRight,30,3360,2,21,0,21,0,1,,,,,,,,,,,,,,,,,,,,,,,,,,,,,,,,,,,,,,,
,,,,,,,,2023-08-16_09h31.19.072,HF_wild_card,2022.2.4,Win32,59.86590038,574c1f935bef980010b0a080,64d2fd46c836a06233681665,64dc7f0710ede78d87d3ce03,,,,,,,decisionTrl,resources/DB.BMP,resources/DBN.BMP,Door3,-0.169270833,0.03125,1,0,0,1.9484,optionLeft,70,3430,2,22,0,22,0,1,,,,,,,,,,,,,,,,,,,,,,,,,,,,,,,,,,,,,,,
,,,,,,,,2023-08-16_09h31.19.072,HF_wild_card,2022.2.4,Win32,59.86590038,574c1f935bef980010b0a080,64d2fd46c836a06233681665,64dc7f0710ede78d87d3ce03,,,,,,,ctch,resources/DB.BMP,resources/DR.BMP,Door3,-0.23046875,-0.024739583,1,0,0,1.7816,optionLeft,70,3500,2,23,0,23,0,1,,,,,,,,,,,,,,,,,,,,,,,,,,,,,,,,,,,,,,,
,,,,,,,,2023-08-16_09h31.19.072,HF_wild_card,2022.2.4,Win32,59.86590038,574c1f935bef980010b0a080,64d2fd46c836a06233681665,64dc7f0710ede78d87d3ce03,,,,,,,decisionTrl,resources/DY.BMP,resources/DB.BMP,Door3,0.255208333,-0.046875,1,0,0,2.0487,optionRight,70,3570,2,24,0,24,0,1,,,,,,,,,,,,,,,,,,,,,,,,,,,,,,,,,,,,,,,
,,,,,,,,2023-08-16_09h31.19.072,HF_wild_card,2022.2.4,Win32,59.86590038,574c1f935bef980010b0a080,64d2fd46c836a06233681665,64dc7f0710ede78d87d3ce03,,,,,,,sngl,resources/DY.BMP,resources/Empty.png,Door4,-0.139322917,-0.018229167,1,0,0,0.8566,optionLeft,60,3630,2,25,0,25,0,1,,,,,,,,,,,,,,,,,,,,,,,,,,,,,,,,,,,,,,,
,,,,,,,,2023-08-16_09h31.19.072,HF_wild_card,2022.2.4,Win32,59.86590038,574c1f935bef980010b0a080,64d2fd46c836a06233681665,64dc7f0710ede78d87d3ce03,,,,,,,ctch,resources/DY.BMP,resources/DP.BMP,Door4,-0.095052083,-0.05859375,1,0,0,1.8568,optionLeft,80,3710,2,26,0,26,0,1,,,,,,,,,,,,,,,,,,,,,,,,,,,,,,,,,,,,,,,
,,,,,,,,2023-08-16_09h31.19.072,HF_wild_card,2022.2.4,Win32,59.86590038,574c1f935bef980010b0a080,64d2fd46c836a06233681665,64dc7f0710ede78d87d3ce03,,,,,,,decisionTrl,resources/DBN.BMP,resources/DB.BMP,Door3,0.415364583,-0.0625,1,0,0,1.9425,optionRight,70,3780,2,27,0,27,0,1,,,,,,,,,,,,,,,,,,,,,,,,,,,,,,,,,,,,,,,
,,,,,,,,2023-08-16_09h31.19.072,HF_wild_card,2022.2.4,Win32,59.86590038,574c1f935bef980010b0a080,64d2fd46c836a06233681665,64dc7f0710ede78d87d3ce03,,,,,,,sngl,resources/DR.BMP,resources/Empty.png,Door2,-0.12109375,-0.015625,1,0,0,0.7706,optionLeft,20,3800,2,28,0,28,0,1,,,,,,,,,,,,,,,,,,,,,,,,,,,,,,,,,,,,,,,
,,,,,,,,2023-08-16_09h31.19.072,HF_wild_card,2022.2.4,Win32,59.86590038,574c1f935bef980010b0a080,64d2fd46c836a06233681665,64dc7f0710ede78d87d3ce03,,,,,,,sngl,resources/Empty.png,resources/DB.BMP,Door3,0.165364583,-0.002604167,1,0,0,0.7599,optionRight,70,3870,2,29,0,29,0,1,,,,,,,,,,,,,,,,,,,,,,,,,,,,,,,,,,,,,,,
,,,,,,,,2023-08-16_09h31.19.072,HF_wild_card,2022.2.4,Win32,59.86590038,574c1f935bef980010b0a080,64d2fd46c836a06233681665,64dc7f0710ede78d87d3ce03,,,,,,,sngl,resources/Empty.png,resources/DBN.BMP,WildCard_NonEx,0.1875,0.005208333,1,0,0,0.7953,optionRight,45,3915,2,30,0,30,0,1,,,,,,,,,,,,,,,,,,,,,,,,,,,,,,,,,,,,,,,
,,,,,,,,2023-08-16_09h31.19.072,HF_wild_card,2022.2.4,Win32,59.86590038,574c1f935bef980010b0a080,64d2fd46c836a06233681665,64dc7f0710ede78d87d3ce03,,,,,,,decisionTrl,resources/DR.BMP,resources/DP.BMP,Door1,-0.005208333,0.016927083,1,0,0,1.3178,optionRight,30,3945,2,31,0,31,0,1,,,,,,,,,,,,,,,,,,,,,,,,,,,,,,,,,,,,,,,
,,,,,,,,2023-08-16_09h31.19.072,HF_wild_card,2022.2.4,Win32,59.86590038,574c1f935bef980010b0a080,64d2fd46c836a06233681665,64dc7f0710ede78d87d3ce03,,,,,,,decisionTrl,resources/DP.BMP,resources/DR.BMP,Door1,-0.119791667,-0.04296875,1,0,0,1.5851,optionLeft,30,3975,2,32,0,32,0,1,,,,,,,,,,,,,,,,,,,,,,,,,,,,,,,,,,,,,,,
,,,,,,,,2023-08-16_09h31.19.072,HF_wild_card,2022.2.4,Win32,59.86590038,574c1f935bef980010b0a080,64d2fd46c836a06233681665,64dc7f0710ede78d87d3ce03,,,,,,,decisionTrl,resources/DY.BMP,resources/DB.BMP,Door3,-0.002604167,-0.018229167,1,0,0,1.0392,optionRight,70,4045,2,33,0,33,0,1,,,,,,,,,,,,,,,,,,,,,,,,,,,,,,,,,,,,,,,
,,,,,,,,2023-08-16_09h31.19.072,HF_wild_card,2022.2.4,Win32,59.86590038,574c1f935bef980010b0a080,64d2fd46c836a06233681665,64dc7f0710ede78d87d3ce03,,,,,,,decisionTrl,resources/DY.BMP,resources/DB.BMP,Door3,0.1640625,-0.029947917,1,0,0,1.279,optionRight,70,4115,2,34,0,34,0,1,,,,,,,,,,,,,,,,,,,,,,,,,,,,,,,,,,,,,,,
,,,,,,,,2023-08-16_09h31.19.072,HF_wild_card,2022.2.4,Win32,59.86590038,574c1f935bef980010b0a080,64d2fd46c836a06233681665,64dc7f0710ede78d87d3ce03,,,,,,,decisionTrl,resources/DBN.BMP,resources/DY.BMP,Door4,0.213541667,-0.010416667,1,0,0,1.406,optionRight,80,4195,2,35,0,35,0,1,,,,,,,,,,,,,,,,,,,,,,,,,,,,,,,,,,,,,,,
,,,,,,,,2023-08-16_09h31.19.072,HF_wild_card,2022.2.4,Win32,59.86590038,574c1f935bef980010b0a080,64d2fd46c836a06233681665,64dc7f0710ede78d87d3ce03,,,,,,,decisionTrl,resources/DR.BMP,resources/DP.BMP,Door2,-0.001302083,-0.009114583,1,0,0,0.9832,optionLeft,20,4215,2,36,0,36,0,1,,,,,,,,,,,,,,,,,,,,,,,,,,,,,,,,,,,,,,,
,,,,,,,,2023-08-16_09h31.19.072,HF_wild_card,2022.2.4,Win32,59.86590038,574c1f935bef980010b0a080,64d2fd46c836a06233681665,64dc7f0710ede78d87d3ce03,,,,,,,sngl,resources/Empty.png,resources/DBN.BMP,WildCard_NonEx,0.151041667,-0.020833333,1,0,0,0.7959,optionRight,55,4270,2,37,0,37,0,1,,,,,,,,,,,,,,,,,,,,,,,,,,,,,,,,,,,,,,,
,,,,,,,,2023-08-16_09h31.19.072,HF_wild_card,2022.2.4,Win32,59.86590038,574c1f935bef980010b0a080,64d2fd46c836a06233681665,64dc7f0710ede78d87d3ce03,,,,,,,decisionTrl,resources/DY.BMP,resources/DB.BMP,Door3,0.223958333,-0.013020833,1,0,0,1.2054,optionRight,70,4340,2,38,0,38,0,1,,,,,,,,,,,,,,,,,,,,,,,,,,,,,,,,,,,,,,,
,,,,,,,,2023-08-16_09h31.19.072,HF_wild_card,2022.2.4,Win32,59.86590038,574c1f935bef980010b0a080,64d2fd46c836a06233681665,64dc7f0710ede78d87d3ce03,,,,,,,decisionTrl,resources/DR.BMP,resources/DP.BMP,Door1,0.201822917,-0.0234375,1,0,0,1.0451,optionRight,30,4370,2,39,0,39,0,1,,,,,,,,,,,,,,,,,,,,,,,,,,,,,,,,,,,,,,,
,,,,,,,,2023-08-16_09h31.19.072,HF_wild_card,2022.2.4,Win32,59.86590038,574c1f935bef980010b0a080,64d2fd46c836a06233681665,64dc7f0710ede78d87d3ce03,,,,,,,decisionTrl,resources/DP.BMP,resources/DR.BMP,Door1,-0.221354167,-0.040364583,1,0,0,1.1472,optionLeft,30,4400,2,40,0,40,0,1,,,,,,,,,,,,,,,,,,,,,,,,,,,,,,,,,,,,,,,
,,,,,,,,2023-08-16_09h31.19.072,HF_wild_card,2022.2.4,Win32,59.86590038,574c1f935bef980010b0a080,64d2fd46c836a06233681665,64dc7f0710ede78d87d3ce03,,,,,,,decisionTrl,resources/DB.BMP,resources/DY.BMP,Door3,-0.135416667,0.002604167,1,0,0,1.4237,optionLeft,70,4470,2,41,0,41,0,1,,,,,,,,,,,,,,,,,,,,,,,,,,,,,,,,,,,,,,,
,,,,,,,,2023-08-16_09h31.19.072,HF_wild_card,2022.2.4,Win32,59.86590038,574c1f935bef980010b0a080,64d2fd46c836a06233681665,64dc7f0710ede78d87d3ce03,,,,,,,sngl,resources/DBN.BMP,resources/Empty.png,WildCard_NonEx,-0.1796875,-0.024739583,1,0,0,0.833,optionLeft,45,4515,2,42,0,42,0,1,,,,,,,,,,,,,,,,,,,,,,,,,,,,,,,,,,,,,,,
,,,,,,,,2023-08-16_09h31.19.072,HF_wild_card,2022.2.4,Win32,59.86590038,574c1f935bef980010b0a080,64d2fd46c836a06233681665,64dc7f0710ede78d87d3ce03,,,,,,,ctch,resources/DR.BMP,resources/DB.BMP,Door3,0.251302083,-0.022135417,1,0,0,1.2035,optionRight,70,4585,2,43,0,43,0,1,,,,,,,,,,,,,,,,,,,,,,,,,,,,,,,,,,,,,,,
,,,,,,,,2023-08-16_09h31.19.072,HF_wild_card,2022.2.4,Win32,59.86590038,574c1f935bef980010b0a080,64d2fd46c836a06233681665,64dc7f0710ede78d87d3ce03,,,,,,,,,,,,,,,,,,,,,,,,,,1,0,1,0,1,,,,,,,,,,,,,,,,,,,,,,,,,,,,,,,,,,
,,,,,,,,2023-08-16_09h31.19.072,HF_wild_card,2022.2.4,Win32,59.86590038,574c1f935bef980010b0a080,64d2fd46c836a06233681665,64dc7f0710ede78d87d3ce03,,,,,,,decisionTrl,resources/DP.BMP,resources/DR.BMP,Door2,0.2890625,-0.110677083,1,0,0,1.5022,optionRight,20,4605,3,0,0,0,0,1,,,,,,,,,,,,,,,,,,,,,,,,,,,,,,,,,,,,,,,
,,,,,,,,2023-08-16_09h31.19.072,HF_wild_card,2022.2.4,Win32,59.86590038,574c1f935bef980010b0a080,64d2fd46c836a06233681665,64dc7f0710ede78d87d3ce03,,,,,,,ctch,resources/DR.BMP,resources/DB.BMP,Door3,0.020833333,-0.002604167,1,0,0,0.5326,optionRight,70,4675,3,1,0,1,0,1,,,,,,,,,,,,,,,,,,,,,,,,,,,,,,,,,,,,,,,
,,,,,,,,2023-08-16_09h31.19.072,HF_wild_card,2022.2.4,Win32,59.86590038,574c1f935bef980010b0a080,64d2fd46c836a06233681665,64dc7f0710ede78d87d3ce03,,,,,,,decisionTrl,resources/DP.BMP,resources/DR.BMP,Door1,-0.134114583,-0.0234375,1,0,0,2.8486,optionLeft,30,4705,3,2,0,2,0,1,,,,,,,,,,,,,,,,,,,,,,,,,,,,,,,,,,,,,,,
,,,,,,,,2023-08-16_09h31.19.072,HF_wild_card,2022.2.4,Win32,59.86590038,574c1f935bef980010b0a080,64d2fd46c836a06233681665,64dc7f0710ede78d87d3ce03,,,,,,,sngl,resources/Empty.png,resources/DY.BMP,Door4,0.240885417,-0.02734375,1,0,0,0.7798,optionRight,60,4765,3,3,0,3,0,1,,,,,,,,,,,,,,,,,,,,,,,,,,,,,,,,,,,,,,,
,,,,,,,,2023-08-16_09h31.19.072,HF_wild_card,2022.2.4,Win32,59.86590038,574c1f935bef980010b0a080,64d2fd46c836a06233681665,64dc7f0710ede78d87d3ce03,,,,,,,decisionTrl,resources/DP.BMP,resources/DR.BMP,Door1,-0.2421875,-0.075520833,1,0,0,1.0031,optionLeft,30,4795,3,4,0,4,0,1,,,,,,,,,,,,,,,,,,,,,,,,,,,,,,,,,,,,,,,
,,,,,,,,2023-08-16_09h31.19.072,HF_wild_card,2022.2.4,Win32,59.86590038,574c1f935bef980010b0a080,64d2fd46c836a06233681665,64dc7f0710ede78d87d3ce03,,,,,,,sngl,resources/DR.BMP,resources/Empty.png,Door2,-0.145833333,-0.020833333,1,0,0,0.6605,optionLeft,40,4835,3,5,0,5,0,1,,,,,,,,,,,,,,,,,,,,,,,,,,,,,,,,,,,,,,,
,,,,,,,,2023-08-16_09h31.19.072,HF_wild_card,2022.2.4,Win32,59.86590038,574c1f935bef980010b0a080,64d2fd46c836a06233681665,64dc7f0710ede78d87d3ce03,,,,,,,decisionTrl,resources/DY.BMP,resources/DB.BMP,Door3,0.161458333,0.013020833,1,0,0,1.372,optionRight,70,4905,3,6,0,6,0,1,,,,,,,,,,,,,,,,,,,,,,,,,,,,,,,,,,,,,,,
,,,,,,,,2023-08-16_09h31.19.072,HF_wild_card,2022.2.4,Win32,59.86590038,574c1f935bef980010b0a080,64d2fd46c836a06233681665,64dc7f0710ede78d87d3ce03,,,,,,,decisionTrl,resources/DB.BMP,resources/DY.BMP,Door3,-0.127604167,-0.037760417,1,0,0,1.3005,optionLeft,70,4975,3,7,0,7,0,1,,,,,,,,,,,,,,,,,,,,,,,,,,,,,,,,,,,,,,,
,,,,,,,,2023-08-16_09h31.19.072,HF_wild_card,2022.2.4,Win32,59.86590038,574c1f935bef980010b0a080,64d2fd46c836a06233681665,64dc7f0710ede78d87d3ce03,,,,,,,sngl,resources/DB.BMP,resources/Empty.png,Door3,-0.192708333,-0.05078125,1,0,0,0.818,optionLeft,70,5045,3,8,0,8,0,1,,,,,,,,,,,,,,,,,,,,,,,,,,,,,,,,,,,,,,,
,,,,,,,,2023-08-16_09h31.19.072,HF_wild_card,2022.2.4,Win32,59.86590038,574c1f935bef980010b0a080,64d2fd46c836a06233681665,64dc7f0710ede78d87d3ce03,,,,,,,ctch,resources/DY.BMP,resources/DP.BMP,Door4,-0.084635417,-0.018229167,1,0,0,1.312,optionLeft,60,5105,3,9,0,9,0,1,,,,,,,,,,,,,,,,,,,,,,,,,,,,,,,,,,,,,,,
,,,,,,,,2023-08-16_09h31.19.072,HF_wild_card,2022.2.4,Win32,59.86590038,574c1f935bef980010b0a080,64d2fd46c836a06233681665,64dc7f0710ede78d87d3ce03,,,,,,,decisionTrl,resources/DP.BMP,resources/DBN.BMP,WildCard_NonEx,0.23046875,0.009114583,1,0,0,1.2776,optionRight,45,5150,3,10,0,10,0,1,,,,,,,,,,,,,,,,,,,,,,,,,,,,,,,,,,,,,,,
,,,,,,,,2023-08-16_09h31.19.072,HF_wild_card,2022.2.4,Win32,59.86590038,574c1f935bef980010b0a080,64d2fd46c836a06233681665,64dc7f0710ede78d87d3ce03,,,,,,,decisionTrl,resources/DBN.BMP,resources/DY.BMP,WildCard_NonEx,-0.151041667,-0.01953125,1,0,0,2.1754,optionLeft,55,5205,3,11,0,11,0,1,,,,,,,,,,,,,,,,,,,,,,,,,,,,,,,,,,,,,,,
,,,,,,,,2023-08-16_09h31.19.072,HF_wild_card,2022.2.4,Win32,59.86590038,574c1f935bef980010b0a080,64d2fd46c836a06233681665,64dc7f0710ede78d87d3ce03,,,,,,,decisionTrl,resources/DY.BMP,resources/DB.BMP,Door3,0.204427083,-0.029947917,1,0,0,1.3972,optionRight,70,5275,3,12,0,12,0,1,,,,,,,,,,,,,,,,,,,,,,,,,,,,,,,,,,,,,,,
,,,,,,,,2023-08-16_09h31.19.072,HF_wild_card,2022.2.4,Win32,59.86590038,574c1f935bef980010b0a080,64d2fd46c836a06233681665,64dc7f0710ede78d87d3ce03,,,,,,,decisionTrl,resources/DB.BMP,resources/DY.BMP,Door3,-0.186197917,-0.006510417,1,0,0,1.4807,optionLeft,70,5345,3,13,0,13,0,1,,,,,,,,,,,,,,,,,,,,,,,,,,,,,,,,,,,,,,,
,,,,,,,,2023-08-16_09h31.19.072,HF_wild_card,2022.2.4,Win32,59.86590038,574c1f935bef980010b0a080,64d2fd46c836a06233681665,64dc7f0710ede78d87d3ce03,,,,,,,decisionTrl,resources/DY.BMP,resources/DB.BMP,Door3,0.162760417,0.001302083,1,0,0,1.3026,optionRight,70,5415,3,14,0,14,0,1,,,,,,,,,,,,,,,,,,,,,,,,,,,,,,,,,,,,,,,
,,,,,,,,2023-08-16_09h31.19.072,HF_wild_card,2022.2.4,Win32,59.86590038,574c1f935bef980010b0a080,64d2fd46c836a06233681665,64dc7f0710ede78d87d3ce03,,,,,,,decisionTrl,resources/DBN.BMP,resources/DR.BMP,WildCard_NonEx,-0.217447917,-0.049479167,1,0,0,2.5827,optionLeft,45,5460,3,15,0,15,0,1,,,,,,,,,,,,,,,,,,,,,,,,,,,,,,,,,,,,,,,
,,,,,,,,2023-08-16_09h31.19.072,HF_wild_card,2022.2.4,Win32,59.86590038,574c1f935bef980010b0a080,64d2fd46c836a06233681665,64dc7f0710ede78d87d3ce03,,,,,,,ctch,resources/DP.BMP,resources/DY.BMP,Door4,0.229166667,-0.022135417,1,0,0,1.1724,optionRight,60,5520,3,16,0,16,0,1,,,,,,,,,,,,,,,,,,,,,,,,,,,,,,,,,,,,,,,
,,,,,,,,2023-08-16_09h31.19.072,HF_wild_card,2022.2.4,Win32,59.86590038,574c1f935bef980010b0a080,64d2fd46c836a06233681665,64dc7f0710ede78d87d3ce03,,,,,,,decisionTrl,resources/DR.BMP,resources/DP.BMP,Door2,-0.122395833,-0.002604167,1,0,0,2.2974,optionLeft,20,5540,3,17,0,17,0,1,,,,,,,,,,,,,,,,,,,,,,,,,,,,,,,,,,,,,,,
,,,,,,,,2023-08-16_09h31.19.072,HF_wild_card,2022.2.4,Win32,59.86590038,574c1f935bef980010b0a080,64d2fd46c836a06233681665,64dc7f0710ede78d87d3ce03,,,,,,,sngl,resources/Empty.png,resources/DBN.BMP,WildCard_NonEx,0.268229167,-0.001302083,1,0,0,0.7393,optionRight,55,5595,3,18,0,18,0,1,,,,,,,,,,,,,,,,,,,,,,,,,,,,,,,,,,,,,,,
,,,,,,,,2023-08-16_09h31.19.072,HF_wild_card,2022.2.4,Win32,59.86590038,574c1f935bef980010b0a080,64d2fd46c836a06233681665,64dc7f0710ede78d87d3ce03,,,,,,,decisionTrl,resources/DP.BMP,resources/DR.BMP,Door2,0.18359375,-0.1015625,1,0,0,2.6444,optionRight,20,5615,3,19,0,19,0,1,,,,,,,,,,,,,,,,,,,,,,,,,,,,,,,,,,,,,,,
,,,,,,,,2023-08-16_09h31.19.072,HF_wild_card,2022.2.4,Win32,59.86590038,574c1f935bef980010b0a080,64d2fd46c836a06233681665,64dc7f0710ede78d87d3ce03,,,,,,,decisionTrl,resources/DBN.BMP,resources/DB.BMP,Door3,0.290364583,-0.048177083,1,0,0,0.9343,optionRight,70,5685,3,20,0,20,0,1,,,,,,,,,,,,,,,,,,,,,,,,,,,,,,,,,,,,,,,
,,,,,,,,2023-08-16_09h31.19.072,HF_wild_card,2022.2.4,Win32,59.86590038,574c1f935bef980010b0a080,64d2fd46c836a06233681665,64dc7f0710ede78d87d3ce03,,,,,,,ctch,resources/DY.BMP,resources/DP.BMP,Door4,-0.138020833,-0.05859375,1,0,0,1.6234,optionLeft,60,5745,3,21,0,21,0,1,,,,,,,,,,,,,,,,,,,,,,,,,,,,,,,,,,,,,,,
,,,,,,,,2023-08-16_09h31.19.072,HF_wild_card,2022.2.4,Win32,59.86590038,574c1f935bef980010b0a080,64d2fd46c836a06233681665,64dc7f0710ede78d87d3ce03,,,,,,,decisionTrl,resources/DY.BMP,resources/DB.BMP,Door3,0.286458333,-0.044270833,1,0,0,1.0192,optionRight,70,5815,3,22,0,22,0,1,,,,,,,,,,,,,,,,,,,,,,,,,,,,,,,,,,,,,,,
,,,,,,,,2023-08-16_09h31.19.072,HF_wild_card,2022.2.4,Win32,59.86590038,574c1f935bef980010b0a080,64d2fd46c836a06233681665,64dc7f0710ede78d87d3ce03,,,,,,,sngl,resources/Empty.png,resources/DB.BMP,Door3,0.17578125,-0.03515625,1,0,0,1.1277,optionRight,70,5885,3,23,0,23,0,1,,,,,,,,,,,,,,,,,,,,,,,,,,,,,,,,,,,,,,,
,,,,,,,,2023-08-16_09h31.19.072,HF_wild_card,2022.2.4,Win32,59.86590038,574c1f935bef980010b0a080,64d2fd46c836a06233681665,64dc7f0710ede78d87d3ce03,,,,,,,decisionTrl,resources/DB.BMP,resources/DY.BMP,Door3,-0.149739583,-0.028645833,1,0,0,0.891,optionLeft,70,5955,3,24,0,24,0,1,,,,,,,,,,,,,,,,,,,,,,,,,,,,,,,,,,,,,,,
,,,,,,,,2023-08-16_09h31.19.072,HF_wild_card,2022.2.4,Win32,59.86590038,574c1f935bef980010b0a080,64d2fd46c836a06233681665,64dc7f0710ede78d87d3ce03,,,,,,,ctch,resources/DR.BMP,resources/DB.BMP,Door3,0.28125,0.014322917,1,0,0,0.7936,optionRight,70,6025,3,25,0,25,0,1,,,,,,,,,,,,,,,,,,,,,,,,,,,,,,,,,,,,,,,
,,,,,,,,2023-08-16_09h31.19.072,HF_wild_card,2022.2.4,Win32,59.86590038,574c1f935bef980010b0a080,64d2fd46c836a06233681665,64dc7f0710ede78d87d3ce03,,,,,,,decisionTrl,resources/DR.BMP,resources/DP.BMP,Door1,0.21875,0.01171875,1,0,0,1.6558,optionRight,30,6055,3,26,0,26,0,1,,,,,,,,,,,,,,,,,,,,,,,,,,,,,,,,,,,,,,,
,,,,,,,,2023-08-16_09h31.19.072,HF_wild_card,2022.2.4,Win32,59.86590038,574c1f935bef980010b0a080,64d2fd46c836a06233681665,64dc7f0710ede78d87d3ce03,,,,,,,decisionTrl,resources/DR.BMP,resources/DP.BMP,Door1,0.235677083,0.001302083,1,0,0,1.2297,optionRight,30,6085,3,27,0,27,0,1,,,,,,,,,,,,,,,,,,,,,,,,,,,,,,,,,,,,,,,
,,,,,,,,2023-08-16_09h31.19.072,HF_wild_card,2022.2.4,Win32,59.86590038,574c1f935bef980010b0a080,64d2fd46c836a06233681665,64dc7f0710ede78d87d3ce03,,,,,,,sngl,resources/Empty.png,resources/DR.BMP,Door2,0.205729167,-0.0078125,1,0,0,0.7828,optionRight,20,6105,3,28,0,28,0,1,,,,,,,,,,,,,,,,,,,,,,,,,,,,,,,,,,,,,,,
,,,,,,,,2023-08-16_09h31.19.072,HF_wild_card,2022.2.4,Win32,59.86590038,574c1f935bef980010b0a080,64d2fd46c836a06233681665,64dc7f0710ede78d87d3ce03,,,,,,,ctch,resources/DP.BMP,resources/DY.BMP,Door4,0.1171875,-0.022135417,1,0,0,1.6293,optionRight,60,6165,3,29,0,29,0,1,,,,,,,,,,,,,,,,,,,,,,,,,,,,,,,,,,,,,,,
,,,,,,,,2023-08-16_09h31.19.072,HF_wild_card,2022.2.4,Win32,59.86590038,574c1f935bef980010b0a080,64d2fd46c836a06233681665,64dc7f0710ede78d87d3ce03,,,,,,,decisionTrl,resources/DBN.BMP,resources/DP.BMP,WildCard_NonEx,-0.1953125,-0.046875,1,0,0,1.1077,optionLeft,45,6210,3,30,0,30,0,1,,,,,,,,,,,,,,,,,,,,,,,,,,,,,,,,,,,,,,,
,,,,,,,,2023-08-16_09h31.19.072,HF_wild_card,2022.2.4,Win32,59.86590038,574c1f935bef980010b0a080,64d2fd46c836a06233681665,64dc7f0710ede78d87d3ce03,,,,,,,sngl,resources/DBN.BMP,resources/Empty.png,WildCard_NonEx,-0.186197917,-0.0859375,1,0,0,0.7507,optionLeft,55,6265,3,31,0,31,0,1,,,,,,,,,,,,,,,,,,,,,,,,,,,,,,,,,,,,,,,
,,,,,,,,2023-08-16_09h31.19.072,HF_wild_card,2022.2.4,Win32,59.86590038,574c1f935bef980010b0a080,64d2fd46c836a06233681665,64dc7f0710ede78d87d3ce03,,,,,,,sngl,resources/DBN.BMP,resources/Empty.png,WildCard_NonEx,-0.173177083,-0.040364583,1,0,0,0.7611,optionLeft,45,6310,3,32,0,32,0,1,,,,,,,,,,,,,,,,,,,,,,,,,,,,,,,,,,,,,,,
,,,,,,,,2023-08-16_09h31.19.072,HF_wild_card,2022.2.4,Win32,59.86590038,574c1f935bef980010b0a080,64d2fd46c836a06233681665,64dc7f0710ede78d87d3ce03,,,,,,,decisionTrl,resources/DB.BMP,resources/DY.BMP,Door3,-0.19140625,-0.05859375,1,0,0,1.2483,optionLeft,70,6380,3,33,0,33,0,1,,,,,,,,,,,,,,,,,,,,,,,,,,,,,,,,,,,,,,,
,,,,,,,,2023-08-16_09h31.19.072,HF_wild_card,2022.2.4,Win32,59.86590038,574c1f935bef980010b0a080,64d2fd46c836a06233681665,64dc7f0710ede78d87d3ce03,,,,,,,decisionTrl,resources/DR.BMP,resources/DBN.BMP,WildCard_NonEx,0.118489583,-0.03125,1,0,0,1.3993,optionRight,55,6435,3,34,0,34,0,1,,,,,,,,,,,,,,,,,,,,,,,,,,,,,,,,,,,,,,,
,,,,,,,,2023-08-16_09h31.19.072,HF_wild_card,2022.2.4,Win32,59.86590038,574c1f935bef980010b0a080,64d2fd46c836a06233681665,64dc7f0710ede78d87d3ce03,,,,,,,ctch,resources/DB.BMP,resources/DR.BMP,Door3,-0.200520833,-0.024739583,1,0,0,0.9927,optionLeft,70,6505,3,35,0,35,0,1,,,,,,,,,,,,,,,,,,,,,,,,,,,,,,,,,,,,,,,
,,,,,,,,2023-08-16_09h31.19.072,HF_wild_card,2022.2.4,Win32,59.86590038,574c1f935bef980010b0a080,64d2fd46c836a06233681665,64dc7f0710ede78d87d3ce03,,,,,,,decisionTrl,resources/DY.BMP,resources/DBN.BMP,Door4,-0.149739583,-0.0234375,1,0,0,2.0542,optionLeft,60,6565,3,36,0,36,0,1,,,,,,,,,,,,,,,,,,,,,,,,,,,,,,,,,,,,,,,
,,,,,,,,2023-08-16_09h31.19.072,HF_wild_card,2022.2.4,Win32,59.86590038,574c1f935bef980010b0a080,64d2fd46c836a06233681665,64dc7f0710ede78d87d3ce03,,,,,,,ctch,resources/DB.BMP,resources/DR.BMP,Door3,-0.119791667,-0.072916667,1,0,0,3.6987,optionLeft,70,6635,3,37,0,37,0,1,,,,,,,,,,,,,,,,,,,,,,,,,,,,,,,,,,,,,,,
,,,,,,,,2023-08-16_09h31.19.072,HF_wild_card,2022.2.4,Win32,59.86590038,574c1f935bef980010b0a080,64d2fd46c836a06233681665,64dc7f0710ede78d87d3ce03,,,,,,,decisionTrl,resources/DB.BMP,resources/DBN.BMP,Door3,-0.223958333,-0.0546875,1,0,0,1.8304,optionLeft,70,6705,3,38,0,38,0,1,,,,,,,,,,,,,,,,,,,,,,,,,,,,,,,,,,,,,,,
,,,,,,,,2023-08-16_09h31.19.072,HF_wild_card,2022.2.4,Win32,59.86590038,574c1f935bef980010b0a080,64d2fd46c836a06233681665,64dc7f0710ede78d87d3ce03,,,,,,,sngl,resources/Empty.png,resources/DBN.BMP,WildCard_NonEx,0.256510417,-0.046875,1,0,0,0.7446,optionRight,45,6750,3,39,0,39,0,1,,,,,,,,,,,,,,,,,,,,,,,,,,,,,,,,,,,,,,,
,,,,,,,,2023-08-16_09h31.19.072,HF_wild_card,2022.2.4,Win32,59.86590038,574c1f935bef980010b0a080,64d2fd46c836a06233681665,64dc7f0710ede78d87d3ce03,,,,,,,decisionTrl,resources/DR.BMP,resources/DP.BMP,Door1,0.154947917,-0.002604167,1,0,0,6.5604,optionRight,30,6780,3,40,0,40,0,1,,,,,,,,,,,,,,,,,,,,,,,,,,,,,,,,,,,,,,,
,,,,,,,,2023-08-16_09h31.19.072,HF_wild_card,2022.2.4,Win32,59.86590038,574c1f935bef980010b0a080,64d2fd46c836a06233681665,64dc7f0710ede78d87d3ce03,,,,,,,sngl,resources/Empty.png,resources/DP.BMP,Door1,0.21875,-0.013020833,1,0,0,0.8506,optionRight,30,6810,3,41,0,41,0,1,,,,,,,,,,,,,,,,,,,,,,,,,,,,,,,,,,,,,,,
,,,,,,,,2023-08-16_09h31.19.072,HF_wild_card,2022.2.4,Win32,59.86590038,574c1f935bef980010b0a080,64d2fd46c836a06233681665,64dc7f0710ede78d87d3ce03,,,,,,,sngl,resources/DP.BMP,resources/Empty.png,Door1,-0.147135417,-0.048177083,1,0,0,0.7015,optionLeft,30,6840,3,42,0,42,0,1,,,,,,,,,,,,,,,,,,,,,,,,,,,,,,,,,,,,,,,
,,,,,,,,2023-08-16_09h31.19.072,HF_wild_card,2022.2.4,Win32,59.86590038,574c1f935bef980010b0a080,64d2fd46c836a06233681665,64dc7f0710ede78d87d3ce03,,,,,,,sngl,resources/DY.BMP,resources/Empty.png,Door4,-0.169270833,-0.072916667,1,0,0,0.8275,optionLeft,80,6920,3,43,0,43,0,1,,,,,,,,,,,,,,,,,,,,,,,,,,,,,,,,,,,,,,,
,,,,,,,,2023-08-16_09h31.19.072,HF_wild_card,2022.2.4,Win32,59.86590038,574c1f935bef980010b0a080,64d2fd46c836a06233681665,64dc7f0710ede78d87d3ce03,,,,,,,,,,,,,,,,,,,,,,,,,,2,0,2,0,1,,,,,,,,,,,,,,,,,,,,,,,,,,,,,,,,,,
,,,,,,,,2023-08-16_09h31.19.072,HF_wild_card,2022.2.4,Win32,59.86590038,574c1f935bef980010b0a080,64d2fd46c836a06233681665,64dc7f0710ede78d87d3ce03,,,,,,,sngl,resources/DG.BMP,resources/Empty.png,WildCard_Ex,-0.21875,-0.203125,1,0,0,2.0524,optionLeft,5,6925,4,0,0,0,0,1,,,,,,,,,,,,,,,,,,,,,,,,,,,,,,,,,,,,,,,
,,,,,,,,2023-08-16_09h31.19.072,HF_wild_card,2022.2.4,Win32,59.86590038,574c1f935bef980010b0a080,64d2fd46c836a06233681665,64dc7f0710ede78d87d3ce03,,,,,,,decisionTrl,resources/DR.BMP,resources/DP.BMP,Door1,0.305989583,-0.02734375,1,0,0,2.3308,optionRight,30,6955,4,1,0,1,0,1,,,,,,,,,,,,,,,,,,,,,,,,,,,,,,,,,,,,,,,
,,,,,,,,2023-08-16_09h31.19.072,HF_wild_card,2022.2.4,Win32,59.86590038,574c1f935bef980010b0a080,64d2fd46c836a06233681665,64dc7f0710ede78d87d3ce03,,,,,,,sngl,resources/Empty.png,resources/DP.BMP,Door1,0.208333333,-0.026041667,1,0,0,0.8108,optionRight,30,6985,4,2,0,2,0,1,,,,,,,,,,,,,,,,,,,,,,,,,,,,,,,,,,,,,,,
,,,,,,,,2023-08-16_09h31.19.072,HF_wild_card,2022.2.4,Win32,59.86590038,574c1f935bef980010b0a080,64d2fd46c836a06233681665,64dc7f0710ede78d87d3ce03,,,,,,,decisionTrl,resources/DG.BMP,resources/DB.BMP,Door3,0.205729167,0.001302083,1,0,0,2.6221,optionRight,70,7055,4,3,0,3,0,1,,,,,,,,,,,,,,,,,,,,,,,,,,,,,,,,,,,,,,,
,,,,,,,,2023-08-16_09h31.19.072,HF_wild_card,2022.2.4,Win32,59.86590038,574c1f935bef980010b0a080,64d2fd46c836a06233681665,64dc7f0710ede78d87d3ce03,,,,,,,decisionTrl,resources/DB.BMP,resources/DY.BMP,Door3,-0.22265625,-0.05078125,1,0,0,1.3878,optionLeft,70,7125,4,4,0,4,0,1,,,,,,,,,,,,,,,,,,,,,,,,,,,,,,,,,,,,,,,
,,,,,,,,2023-08-16_09h31.19.072,HF_wild_card,2022.2.4,Win32,59.86590038,574c1f935bef980010b0a080,64d2fd46c836a06233681665,64dc7f0710ede78d87d3ce03,,,,,,,decisionTrl,resources/DG.BMP,resources/DP.BMP,Door1,0.291666667,0.016927083,1,0,0,1.7236,optionRight,30,7155,4,5,0,5,0,1,,,,,,,,,,,,,,,,,,,,,,,,,,,,,,,,,,,,,,,
,,,,,,,,2023-08-16_09h31.19.072,HF_wild_card,2022.2.4,Win32,59.86590038,574c1f935bef980010b0a080,64d2fd46c836a06233681665,64dc7f0710ede78d87d3ce03,,,,,,,ctch,resources/DY.BMP,resources/DP.BMP,Door1,0.2734375,0.037760417,1,0,0,1.8844,optionRight,30,7185,4,6,0,6,0,1,,,,,,,,,,,,,,,,,,,,,,,,,,,,,,,,,,,,,,,
,,,,,,,,2023-08-16_09h31.19.072,HF_wild_card,2022.2.4,Win32,59.86590038,574c1f935bef980010b0a080,64d2fd46c836a06233681665,64dc7f0710ede78d87d3ce03,,,,,,,ctch,resources/DP.BMP,resources/DY.BMP,Door4,0.204427083,0.041666667,1,0,0,1.0962,optionRight,80,7265,4,7,0,7,0,1,,,,,,,,,,,,,,,,,,,,,,,,,,,,,,,,,,,,,,,
,,,,,,,,2023-08-16_09h31.19.072,HF_wild_card,2022.2.4,Win32,59.86590038,574c1f935bef980010b0a080,64d2fd46c836a06233681665,64dc7f0710ede78d87d3ce03,,,,,,,decisionTrl,resources/DY.BMP,resources/DB.BMP,Door3,0.140625,0.009114583,1,0,0,1.0054,optionRight,70,7335,4,8,0,8,0,1,,,,,,,,,,,,,,,,,,,,,,,,,,,,,,,,,,,,,,,
,,,,,,,,2023-08-16_09h31.19.072,HF_wild_card,2022.2.4,Win32,59.86590038,574c1f935bef980010b0a080,64d2fd46c836a06233681665,64dc7f0710ede78d87d3ce03,,,,,,,decisionTrl,resources/DY.BMP,resources/DB.BMP,Door3,0.17578125,0.005208333,1,0,0,1.4123,optionRight,70,7405,4,9,0,9,0,1,,,,,,,,,,,,,,,,,,,,,,,,,,,,,,,,,,,,,,,
,,,,,,,,2023-08-16_09h31.19.072,HF_wild_card,2022.2.4,Win32,59.86590038,574c1f935bef980010b0a080,64d2fd46c836a06233681665,64dc7f0710ede78d87d3ce03,,,,,,,decisionTrl,resources/DG.BMP,resources/DR.BMP,WildCard_Ex,0.065104167,0.010416667,1,0,0,2.1895,optionLeft,5,7410,4,10,0,10,0,1,,,,,,,,,,,,,,,,,,,,,,,,,,,,,,,,,,,,,,,
,,,,,,,,2023-08-16_09h31.19.072,HF_wild_card,2022.2.4,Win32,59.86590038,574c1f935bef980010b0a080,64d2fd46c836a06233681665,64dc7f0710ede78d87d3ce03,,,,,,,decisionTrl,resources/DY.BMP,resources/DB.BMP,Door3,0.248697917,-0.00390625,1,0,0,0.8389,optionRight,70,7480,4,11,0,11,0,1,,,,,,,,,,,,,,,,,,,,,,,,,,,,,,,,,,,,,,,
,,,,,,,,2023-08-16_09h31.19.072,HF_wild_card,2022.2.4,Win32,59.86590038,574c1f935bef980010b0a080,64d2fd46c836a06233681665,64dc7f0710ede78d87d3ce03,,,,,,,decisionTrl,resources/DP.BMP,resources/DR.BMP,Door2,0.217447917,-0.002604167,1,0,0,1.2992,optionRight,40,7520,4,12,0,12,0,1,,,,,,,,,,,,,,,,,,,,,,,,,,,,,,,,,,,,,,,
,,,,,,,,2023-08-16_09h31.19.072,HF_wild_card,2022.2.4,Win32,59.86590038,574c1f935bef980010b0a080,64d2fd46c836a06233681665,64dc7f0710ede78d87d3ce03,,,,,,,ctch,resources/DB.BMP,resources/DR.BMP,Door3,-0.13671875,-0.037760417,1,0,0,0.8663,optionLeft,70,7590,4,13,0,13,0,1,,,,,,,,,,,,,,,,,,,,,,,,,,,,,,,,,,,,,,,
,,,,,,,,2023-08-16_09h31.19.072,HF_wild_card,2022.2.4,Win32,59.86590038,574c1f935bef980010b0a080,64d2fd46c836a06233681665,64dc7f0710ede78d87d3ce03,,,,,,,decisionTrl,resources/DP.BMP,resources/DR.BMP,Door2,0.19140625,-0.01953125,1,0,0,1.0297,optionRight,40,7630,4,14,0,14,0,1,,,,,,,,,,,,,,,,,,,,,,,,,,,,,,,,,,,,,,,
,,,,,,,,2023-08-16_09h31.19.072,HF_wild_card,2022.2.4,Win32,59.86590038,574c1f935bef980010b0a080,64d2fd46c836a06233681665,64dc7f0710ede78d87d3ce03,,,,,,,decisionTrl,resources/DB.BMP,resources/DY.BMP,Door3,-0.251302083,-0.0390625,1,0,0,2.6568,optionLeft,70,7700,4,15,0,15,0,1,,,,,,,,,,,,,,,,,,,,,,,,,,,,,,,,,,,,,,,
,,,,,,,,2023-08-16_09h31.19.072,HF_wild_card,2022.2.4,Win32,59.86590038,574c1f935bef980010b0a080,64d2fd46c836a06233681665,64dc7f0710ede78d87d3ce03,,,,,,,decisionTrl,resources/DR.BMP,resources/DP.BMP,Door2,-0.2265625,-0.006510417,1,0,0,4.8193,optionLeft,20,7720,4,16,0,16,0,1,,,,,,,,,,,,,,,,,,,,,,,,,,,,,,,,,,,,,,,
,,,,,,,,2023-08-16_09h31.19.072,HF_wild_card,2022.2.4,Win32,59.86590038,574c1f935bef980010b0a080,64d2fd46c836a06233681665,64dc7f0710ede78d87d3ce03,,,,,,,decisionTrl,resources/DR.BMP,resources/DG.BMP,Door2,-0.13671875,-0.05859375,1,0,0,1.2953,optionLeft,20,7740,4,17,0,17,0,1,,,,,,,,,,,,,,,,,,,,,,,,,,,,,,,,,,,,,,,
,,,,,,,,2023-08-16_09h31.19.072,HF_wild_card,2022.2.4,Win32,59.86590038,574c1f935bef980010b0a080,64d2fd46c836a06233681665,64dc7f0710ede78d87d3ce03,,,,,,,sngl,resources/DY.BMP,resources/Empty.png,Door4,-0.092447917,-0.01171875,1,0,0,0.8249,optionLeft,60,7800,4,18,0,18,0,1,,,,,,,,,,,,,,,,,,,,,,,,,,,,,,,,,,,,,,,
,,,,,,,,2023-08-16_09h31.19.072,HF_wild_card,2022.2.4,Win32,59.86590038,574c1f935bef980010b0a080,64d2fd46c836a06233681665,64dc7f0710ede78d87d3ce03,,,,,,,decisionTrl,resources/DY.BMP,resources/DB.BMP,Door3,0.18359375,0.014322917,1,0,0,0.85,optionRight,70,7870,4,19,0,19,0,1,,,,,,,,,,,,,,,,,,,,,,,,,,,,,,,,,,,,,,,
,,,,,,,,2023-08-16_09h31.19.072,HF_wild_card,2022.2.4,Win32,59.86590038,574c1f935bef980010b0a080,64d2fd46c836a06233681665,64dc7f0710ede78d87d3ce03,,,,,,,decisionTrl,resources/DB.BMP,resources/DY.BMP,Door3,0.057291667,0.018229167,1,0,0,0.6576,optionLeft,70,7940,4,20,0,20,0,1,,,,,,,,,,,,,,,,,,,,,,,,,,,,,,,,,,,,,,,
,,,,,,,,2023-08-16_09h31.19.072,HF_wild_card,2022.2.4,Win32,59.86590038,574c1f935bef980010b0a080,64d2fd46c836a06233681665,64dc7f0710ede78d87d3ce03,,,,,,,sngl,resources/Empty.png,resources/DB.BMP,Door3,0.227864583,-0.006510417,1,0,0,3.2873,optionRight,70,8010,4,21,0,21,0,1,,,,,,,,,,,,,,,,,,,,,,,,,,,,,,,,,,,,,,,
,,,,,,,,2023-08-16_09h31.19.072,HF_wild_card,2022.2.4,Win32,59.86590038,574c1f935bef980010b0a080,64d2fd46c836a06233681665,64dc7f0710ede78d87d3ce03,,,,,,,decisionTrl,resources/DP.BMP,resources/DR.BMP,Door2,0.223958333,-0.036458333,1,0,0,1.0806,optionRight,20,8030,4,22,0,22,0,1,,,,,,,,,,,,,,,,,,,,,,,,,,,,,,,,,,,,,,,
,,,,,,,,2023-08-16_09h31.19.072,HF_wild_card,2022.2.4,Win32,59.86590038,574c1f935bef980010b0a080,64d2fd46c836a06233681665,64dc7f0710ede78d87d3ce03,,,,,,,sngl,resources/Empty.png,resources/DY.BMP,Door4,0.217447917,0.015625,1,0,0,0.8742,optionRight,80,8110,4,23,0,23,0,1,,,,,,,,,,,,,,,,,,,,,,,,,,,,,,,,,,,,,,,
,,,,,,,,2023-08-16_09h31.19.072,HF_wild_card,2022.2.4,Win32,59.86590038,574c1f935bef980010b0a080,64d2fd46c836a06233681665,64dc7f0710ede78d87d3ce03,,,,,,,decisionTrl,resources/DP.BMP,resources/DR.BMP,Door2,0.194010417,0.00390625,1,0,0,1.3937,optionRight,40,8150,4,24,0,24,0,1,,,,,,,,,,,,,,,,,,,,,,,,,,,,,,,,,,,,,,,
,,,,,,,,2023-08-16_09h31.19.072,HF_wild_card,2022.2.4,Win32,59.86590038,574c1f935bef980010b0a080,64d2fd46c836a06233681665,64dc7f0710ede78d87d3ce03,,,,,,,sngl,resources/Empty.png,resources/DG.BMP,WildCard_Ex,0.30078125,0.0234375,1,0,0,0.8165,optionRight,95,8245,4,25,0,25,0,1,,,,,,,,,,,,,,,,,,,,,,,,,,,,,,,,,,,,,,,
,,,,,,,,2023-08-16_09h31.19.072,HF_wild_card,2022.2.4,Win32,59.86590038,574c1f935bef980010b0a080,64d2fd46c836a06233681665,64dc7f0710ede78d87d3ce03,,,,,,,decisionTrl,resources/DY.BMP,resources/DG.BMP,WildCard_Ex,0.200520833,0.00390625,1,0,0,0.8388,optionRight,95,8340,4,26,0,26,0,1,,,,,,,,,,,,,,,,,,,,,,,,,,,,,,,,,,,,,,,
,,,,,,,,2023-08-16_09h31.19.072,HF_wild_card,2022.2.4,Win32,59.86590038,574c1f935bef980010b0a080,64d2fd46c836a06233681665,64dc7f0710ede78d87d3ce03,,,,,,,sngl,resources/DP.BMP,resources/Empty.png,Door1,-0.194010417,-0.013020833,1,0,0,0.886,optionLeft,30,8370,4,27,0,27,0,1,,,,,,,,,,,,,,,,,,,,,,,,,,,,,,,,,,,,,,,
,,,,,,,,2023-08-16_09h31.19.072,HF_wild_card,2022.2.4,Win32,59.86590038,574c1f935bef980010b0a080,64d2fd46c836a06233681665,64dc7f0710ede78d87d3ce03,,,,,,,sngl,resources/DG.BMP,resources/Empty.png,WildCard_Ex,-0.171875,-0.032552083,1,0,0,1.0227,optionLeft,95,8465,4,28,0,28,0,1,,,,,,,,,,,,,,,,,,,,,,,,,,,,,,,,,,,,,,,
,,,,,,,,2023-08-16_09h31.19.072,HF_wild_card,2022.2.4,Win32,59.86590038,574c1f935bef980010b0a080,64d2fd46c836a06233681665,64dc7f0710ede78d87d3ce03,,,,,,,decisionTrl,resources/DR.BMP,resources/DP.BMP,Door2,-0.1640625,-0.026041667,1,0,0,1.2908,optionLeft,20,8485,4,29,0,29,0,1,,,,,,,,,,,,,,,,,,,,,,,,,,,,,,,,,,,,,,,
,,,,,,,,2023-08-16_09h31.19.072,HF_wild_card,2022.2.4,Win32,59.86590038,574c1f935bef980010b0a080,64d2fd46c836a06233681665,64dc7f0710ede78d87d3ce03,,,,,,,ctch,resources/DY.BMP,resources/DP.BMP,Door1,0.200520833,-0.014322917,1,0,0,0.739,optionRight,30,8515,4,30,0,30,0,1,,,,,,,,,,,,,,,,,,,,,,,,,,,,,,,,,,,,,,,
,,,,,,,,2023-08-16_09h31.19.072,HF_wild_card,2022.2.4,Win32,59.86590038,574c1f935bef980010b0a080,64d2fd46c836a06233681665,64dc7f0710ede78d87d3ce03,,,,,,,ctch,resources/DB.BMP,resources/DR.BMP,Door3,-0.138020833,-0.015625,1,0,0,1.0067,optionLeft,70,8585,4,31,0,31,0,1,,,,,,,,,,,,,,,,,,,,,,,,,,,,,,,,,,,,,,,
,,,,,,,,2023-08-16_09h31.19.072,HF_wild_card,2022.2.4,Win32,59.86590038,574c1f935bef980010b0a080,64d2fd46c836a06233681665,64dc7f0710ede78d87d3ce03,,,,,,,sngl,resources/DB.BMP,resources/Empty.png,Door3,-0.190104167,0.0078125,1,0,0,0.7237,optionLeft,70,8655,4,32,0,32,0,1,,,,,,,,,,,,,,,,,,,,,,,,,,,,,,,,,,,,,,,
,,,,,,,,2023-08-16_09h31.19.072,HF_wild_card,2022.2.4,Win32,59.86590038,574c1f935bef980010b0a080,64d2fd46c836a06233681665,64dc7f0710ede78d87d3ce03,,,,,,,sngl,resources/Empty.png,resources/DR.BMP,Door2,0.251302083,-0.01953125,1,0,0,1.5383,optionRight,40,8695,4,33,0,33,0,1,,,,,,,,,,,,,,,,,,,,,,,,,,,,,,,,,,,,,,,
,,,,,,,,2023-08-16_09h31.19.072,HF_wild_card,2022.2.4,Win32,59.86590038,574c1f935bef980010b0a080,64d2fd46c836a06233681665,64dc7f0710ede78d87d3ce03,,,,,,,decisionTrl,resources/DP.BMP,resources/DG.BMP,Door1,-0.1015625,-0.013020833,1,0,0,0.91,optionLeft,30,8725,4,34,0,34,0,1,,,,,,,,,,,,,,,,,,,,,,,,,,,,,,,,,,,,,,,
,,,,,,,,2023-08-16_09h31.19.072,HF_wild_card,2022.2.4,Win32,59.86590038,574c1f935bef980010b0a080,64d2fd46c836a06233681665,64dc7f0710ede78d87d3ce03,,,,,,,decisionTrl,resources/DR.BMP,resources/DP.BMP,Door1,0.130208333,0.002604167,1,0,0,0.9175,optionRight,30,8755,4,35,0,35,0,1,,,,,,,,,,,,,,,,,,,,,,,,,,,,,,,,,,,,,,,
,,,,,,,,2023-08-16_09h31.19.072,HF_wild_card,2022.2.4,Win32,59.86590038,574c1f935bef980010b0a080,64d2fd46c836a06233681665,64dc7f0710ede78d87d3ce03,,,,,,,ctch,resources/DP.BMP,resources/DY.BMP,Door1,-0.11328125,-0.02734375,1,0,0,0.9435,optionLeft,30,8785,4,36,0,36,0,1,,,,,,,,,,,,,,,,,,,,,,,,,,,,,,,,,,,,,,,
,,,,,,,,2023-08-16_09h31.19.072,HF_wild_card,2022.2.4,Win32,59.86590038,574c1f935bef980010b0a080,64d2fd46c836a06233681665,64dc7f0710ede78d87d3ce03,,,,,,,sngl,resources/DR.BMP,resources/Empty.png,Door2,-0.14453125,-0.005208333,1,0,0,1.4281,optionLeft,20,8805,4,37,0,37,0,1,,,,,,,,,,,,,,,,,,,,,,,,,,,,,,,,,,,,,,,
,,,,,,,,2023-08-16_09h31.19.072,HF_wild_card,2022.2.4,Win32,59.86590038,574c1f935bef980010b0a080,64d2fd46c836a06233681665,64dc7f0710ede78d87d3ce03,,,,,,,decisionTrl,resources/DB.BMP,resources/DY.BMP,Door4,0.2109375,0.00390625,1,0,0,0.7916,optionRight,80,8885,4,38,0,38,0,1,,,,,,,,,,,,,,,,,,,,,,,,,,,,,,,,,,,,,,,
,,,,,,,,2023-08-16_09h31.19.072,HF_wild_card,2022.2.4,Win32,59.86590038,574c1f935bef980010b0a080,64d2fd46c836a06233681665,64dc7f0710ede78d87d3ce03,,,,,,,ctch,resources/DR.BMP,resources/DB.BMP,Door3,0.151041667,-0.032552083,1,0,0,1.055,optionRight,70,8955,4,39,0,39,0,1,,,,,,,,,,,,,,,,,,,,,,,,,,,,,,,,,,,,,,,
,,,,,,,,2023-08-16_09h31.19.072,HF_wild_card,2022.2.4,Win32,59.86590038,574c1f935bef980010b0a080,64d2fd46c836a06233681665,64dc7f0710ede78d87d3ce03,,,,,,,decisionTrl,resources/DB.BMP,resources/DG.BMP,Door3,-0.1875,-0.018229167,1,0,0,0.8743,optionLeft,70,9025,4,40,0,40,0,1,,,,,,,,,,,,,,,,,,,,,,,,,,,,,,,,,,,,,,,
,,,,,,,,2023-08-16_09h31.19.072,HF_wild_card,2022.2.4,Win32,59.86590038,574c1f935bef980010b0a080,64d2fd46c836a06233681665,64dc7f0710ede78d87d3ce03,,,,,,,sngl,resources/Empty.png,resources/DG.BMP,WildCard_Ex,0.135416667,-0.002604167,1,0,0,0.7454,optionRight,5,9030,4,41,0,41,0,1,,,,,,,,,,,,,,,,,,,,,,,,,,,,,,,,,,,,,,,
,,,,,,,,2023-08-16_09h31.19.072,HF_wild_card,2022.2.4,Win32,59.86590038,574c1f935bef980010b0a080,64d2fd46c836a06233681665,64dc7f0710ede78d87d3ce03,,,,,,,ctch,resources/DR.BMP,resources/DB.BMP,Door3,0.231770833,0.028645833,1,0,0,1.1182,optionRight,70,9100,4,42,0,42,0,1,,,,,,,,,,,,,,,,,,,,,,,,,,,,,,,,,,,,,,,
,,,,,,,,2023-08-16_09h31.19.072,HF_wild_card,2022.2.4,Win32,59.86590038,574c1f935bef980010b0a080,64d2fd46c836a06233681665,64dc7f0710ede78d87d3ce03,,,,,,,decisionTrl,resources/DG.BMP,resources/DY.BMP,WildCard_Ex,-0.1796875,0.01953125,1,0,0,1.5372,optionLeft,5,9105,4,43,0,43,0,1,,,,,,,,,,,,,,,,,,,,,,,,,,,,,,,,,,,,,,,
,,,,,,,,2023-08-16_09h31.19.072,HF_wild_card,2022.2.4,Win32,59.86590038,574c1f935bef980010b0a080,64d2fd46c836a06233681665,64dc7f0710ede78d87d3ce03,,,,,,,,,,,,,,,,,,,,,,,,,,3,0,3,0,1,,,,,,,,,,,,,,,,,,,,,,,,,,,,,,,,,,
,,,,,,,,2023-08-16_09h31.19.072,HF_wild_card,2022.2.4,Win32,59.86590038,574c1f935bef980010b0a080,64d2fd46c836a06233681665,64dc7f0710ede78d87d3ce03,,,,,,,decisionTrl,resources/DP.BMP,resources/DR.BMP,Door1,-0.197916667,-0.192708333,1,0,0,7.1937,optionLeft,30,9135,5,0,0,0,0,1,,,,,,,,,,,,,,,,,,,,,,,,,,,,,,,,,,,,,,,
,,,,,,,,2023-08-16_09h31.19.072,HF_wild_card,2022.2.4,Win32,59.86590038,574c1f935bef980010b0a080,64d2fd46c836a06233681665,64dc7f0710ede78d87d3ce03,,,,,,,decisionTrl,resources/DP.BMP,resources/DR.BMP,Door1,-0.005208333,0.00390625,1,0,0,0.4592,optionLeft,30,9165,5,1,0,1,0,1,,,,,,,,,,,,,,,,,,,,,,,,,,,,,,,,,,,,,,,
,,,,,,,,2023-08-16_09h31.19.072,HF_wild_card,2022.2.4,Win32,59.86590038,574c1f935bef980010b0a080,64d2fd46c836a06233681665,64dc7f0710ede78d87d3ce03,,,,,,,decisionTrl,resources/DY.BMP,resources/DG.BMP,WildCard_Ex,0.127604167,0.001302083,1,0,0,2.8094,optionRight,95,9260,5,2,0,2,0,1,,,,,,,,,,,,,,,,,,,,,,,,,,,,,,,,,,,,,,,
,,,,,,,,2023-08-16_09h31.19.072,HF_wild_card,2022.2.4,Win32,59.86590038,574c1f935bef980010b0a080,64d2fd46c836a06233681665,64dc7f0710ede78d87d3ce03,,,,,,,sngl,resources/Empty.png,resources/DG.BMP,WildCard_Ex,0.177083333,-0.00390625,1,0,0,0.8346,optionRight,95,9355,5,3,0,3,0,1,,,,,,,,,,,,,,,,,,,,,,,,,,,,,,,,,,,,,,,
,,,,,,,,2023-08-16_09h31.19.072,HF_wild_card,2022.2.4,Win32,59.86590038,574c1f935bef980010b0a080,64d2fd46c836a06233681665,64dc7f0710ede78d87d3ce03,,,,,,,sngl,resources/DG.BMP,resources/Empty.png,WildCard_Ex,-0.200520833,0.001302083,1,0,0,1.5128,optionLeft,95,9450,5,4,0,4,0,1,,,,,,,,,,,,,,,,,,,,,,,,,,,,,,,,,,,,,,,
,,,,,,,,2023-08-16_09h31.19.072,HF_wild_card,2022.2.4,Win32,59.86590038,574c1f935bef980010b0a080,64d2fd46c836a06233681665,64dc7f0710ede78d87d3ce03,,,,,,,sngl,resources/Empty.png,resources/DG.BMP,WildCard_Ex,0.194010417,0.001302083,1,0,0,0.6835,optionRight,5,9455,5,5,0,5,0,1,,,,,,,,,,,,,,,,,,,,,,,,,,,,,,,,,,,,,,,
,,,,,,,,2023-08-16_09h31.19.072,HF_wild_card,2022.2.4,Win32,59.86590038,574c1f935bef980010b0a080,64d2fd46c836a06233681665,64dc7f0710ede78d87d3ce03,,,,,,,ctch,resources/DB.BMP,resources/DR.BMP,Door3,-0.177083333,-0.020833333,1,0,0,1.1877,optionLeft,70,9525,5,6,0,6,0,1,,,,,,,,,,,,,,,,,,,,,,,,,,,,,,,,,,,,,,,
,,,,,,,,2023-08-16_09h31.19.072,HF_wild_card,2022.2.4,Win32,59.86590038,574c1f935bef980010b0a080,64d2fd46c836a06233681665,64dc7f0710ede78d87d3ce03,,,,,,,sngl,resources/Empty.png,resources/DP.BMP,Door1,0.259114583,-0.016927083,1,0,0,0.8465,optionRight,30,9555,5,7,0,7,0,1,,,,,,,,,,,,,,,,,,,,,,,,,,,,,,,,,,,,,,,
,,,,,,,,2023-08-16_09h31.19.072,HF_wild_card,2022.2.4,Win32,59.86590038,574c1f935bef980010b0a080,64d2fd46c836a06233681665,64dc7f0710ede78d87d3ce03,,,,,,,sngl,resources/DB.BMP,resources/Empty.png,Door3,-0.166666667,0.014322917,1,0,0,0.7539,optionLeft,70,9625,5,8,0,8,0,1,,,,,,,,,,,,,,,,,,,,,,,,,,,,,,,,,,,,,,,
,,,,,,,,2023-08-16_09h31.19.072,HF_wild_card,2022.2.4,Win32,59.86590038,574c1f935bef980010b0a080,64d2fd46c836a06233681665,64dc7f0710ede78d87d3ce03,,,,,,,decisionTrl,resources/DR.BMP,resources/DP.BMP,Door1,0.14453125,0.0078125,1,0,0,0.9861,optionRight,30,9655,5,9,0,9,0,1,,,,,,,,,,,,,,,,,,,,,,,,,,,,,,,,,,,,,,,
,,,,,,,,2023-08-16_09h31.19.072,HF_wild_card,2022.2.4,Win32,59.86590038,574c1f935bef980010b0a080,64d2fd46c836a06233681665,64dc7f0710ede78d87d3ce03,,,,,,,decisionTrl,resources/DP.BMP,resources/DR.BMP,Door2,0.296875,-0.001302083,1,0,0,1.0536,optionRight,20,9675,5,10,0,10,0,1,,,,,,,,,,,,,,,,,,,,,,,,,,,,,,,,,,,,,,,
,,,,,,,,2023-08-16_09h31.19.072,HF_wild_card,2022.2.4,Win32,59.86590038,574c1f935bef980010b0a080,64d2fd46c836a06233681665,64dc7f0710ede78d87d3ce03,,,,,,,decisionTrl,resources/DY.BMP,resources/DB.BMP,Door3,0.30078125,0.010416667,1,0,0,0.906,optionRight,70,9745,5,11,0,11,0,1,,,,,,,,,,,,,,,,,,,,,,,,,,,,,,,,,,,,,,,
,,,,,,,,2023-08-16_09h31.19.072,HF_wild_card,2022.2.4,Win32,59.86590038,574c1f935bef980010b0a080,64d2fd46c836a06233681665,64dc7f0710ede78d87d3ce03,,,,,,,sngl,resources/Empty.png,resources/DY.BMP,Door4,0.265625,-0.0390625,1,0,0,0.7087,optionRight,60,9805,5,12,0,12,0,1,,,,,,,,,,,,,,,,,,,,,,,,,,,,,,,,,,,,,,,
,,,,,,,,2023-08-16_09h31.19.072,HF_wild_card,2022.2.4,Win32,59.86590038,574c1f935bef980010b0a080,64d2fd46c836a06233681665,64dc7f0710ede78d87d3ce03,,,,,,,decisionTrl,resources/DR.BMP,resources/DP.BMP,Door2,-0.223958333,-0.01171875,1,0,0,1.2026,optionLeft,20,9825,5,13,0,13,0,1,,,,,,,,,,,,,,,,,,,,,,,,,,,,,,,,,,,,,,,
,,,,,,,,2023-08-16_09h31.19.072,HF_wild_card,2022.2.4,Win32,59.86590038,574c1f935bef980010b0a080,64d2fd46c836a06233681665,64dc7f0710ede78d87d3ce03,,,,,,,decisionTrl,resources/DP.BMP,resources/DR.BMP,Door1,-0.20703125,0.020833333,1,0,0,0.9709,optionLeft,30,9855,5,14,0,14,0,1,,,,,,,,,,,,,,,,,,,,,,,,,,,,,,,,,,,,,,,
,,,,,,,,2023-08-16_09h31.19.072,HF_wild_card,2022.2.4,Win32,59.86590038,574c1f935bef980010b0a080,64d2fd46c836a06233681665,64dc7f0710ede78d87d3ce03,,,,,,,ctch,resources/DR.BMP,resources/DB.BMP,Door3,0.19921875,-0.088541667,1,0,0,0.7406,optionRight,70,9925,5,15,0,15,0,1,,,,,,,,,,,,,,,,,,,,,,,,,,,,,,,,,,,,,,,
,,,,,,,,2023-08-16_09h31.19.072,HF_wild_card,2022.2.4,Win32,59.86590038,574c1f935bef980010b0a080,64d2fd46c836a06233681665,64dc7f0710ede78d87d3ce03,,,,,,,decisionTrl,resources/DB.BMP,resources/DG.BMP,WildCard_Ex,0.15625,-0.03125,1,0,0,0.7672,optionRight,95,10020,5,16,0,16,0,1,,,,,,,,,,,,,,,,,,,,,,,,,,,,,,,,,,,,,,,
,,,,,,,,2023-08-16_09h31.19.072,HF_wild_card,2022.2.4,Win32,59.86590038,574c1f935bef980010b0a080,64d2fd46c836a06233681665,64dc7f0710ede78d87d3ce03,,,,,,,decisionTrl,resources/DP.BMP,resources/DG.BMP,WildCard_Ex,0.16015625,-0.018229167,1,0,0,0.6594,optionRight,95,10115,5,17,0,17,0,1,,,,,,,,,,,,,,,,,,,,,,,,,,,,,,,,,,,,,,,
,,,,,,,,2023-08-16_09h31.19.072,HF_wild_card,2022.2.4,Win32,59.86590038,574c1f935bef980010b0a080,64d2fd46c836a06233681665,64dc7f0710ede78d87d3ce03,,,,,,,decisionTrl,resources/DY.BMP,resources/DB.BMP,Door3,0.174479167,-0.013020833,1,0,0,0.6831,optionRight,70,10185,5,18,0,18,0,1,,,,,,,,,,,,,,,,,,,,,,,,,,,,,,,,,,,,,,,
,,,,,,,,2023-08-16_09h31.19.072,HF_wild_card,2022.2.4,Win32,59.86590038,574c1f935bef980010b0a080,64d2fd46c836a06233681665,64dc7f0710ede78d87d3ce03,,,,,,,decisionTrl,resources/DG.BMP,resources/DP.BMP,Door1,-0.005208333,-0.009114583,1,0,0,0.1661,optionRight,30,10215,5,19,0,19,0,1,,,,,,,,,,,,,,,,,,,,,,,,,,,,,,,,,,,,,,,
,,,,,,,,2023-08-16_09h31.19.072,HF_wild_card,2022.2.4,Win32,59.86590038,574c1f935bef980010b0a080,64d2fd46c836a06233681665,64dc7f0710ede78d87d3ce03,,,,,,,decisionTrl,resources/DY.BMP,resources/DB.BMP,Door3,0.427083333,-0.0390625,1,0,0,1.1551,optionRight,70,10285,5,20,0,20,0,1,,,,,,,,,,,,,,,,,,,,,,,,,,,,,,,,,,,,,,,
,,,,,,,,2023-08-16_09h31.19.072,HF_wild_card,2022.2.4,Win32,59.86590038,574c1f935bef980010b0a080,64d2fd46c836a06233681665,64dc7f0710ede78d87d3ce03,,,,,,,ctch,resources/DY.BMP,resources/DP.BMP,Door1,0.221354167,-0.02734375,1,0,0,0.85,optionRight,30,10315,5,21,0,21,0,1,,,,,,,,,,,,,,,,,,,,,,,,,,,,,,,,,,,,,,,
,,,,,,,,2023-08-16_09h31.19.072,HF_wild_card,2022.2.4,Win32,59.86590038,574c1f935bef980010b0a080,64d2fd46c836a06233681665,64dc7f0710ede78d87d3ce03,,,,,,,sngl,resources/Empty.png,resources/DR.BMP,Door2,0.192708333,0.013020833,1,0,0,0.6536,optionRight,20,10335,5,22,0,22,0,1,,,,,,,,,,,,,,,,,,,,,,,,,,,,,,,,,,,,,,,
,,,,,,,,2023-08-16_09h31.19.072,HF_wild_card,2022.2.4,Win32,59.86590038,574c1f935bef980010b0a080,64d2fd46c836a06233681665,64dc7f0710ede78d87d3ce03,,,,,,,sngl,resources/Empty.png,resources/DB.BMP,Door3,0.190104167,0.00390625,1,0,0,0.7619,optionRight,70,10405,5,23,0,23,0,1,,,,,,,,,,,,,,,,,,,,,,,,,,,,,,,,,,,,,,,
,,,,,,,,2023-08-16_09h31.19.072,HF_wild_card,2022.2.4,Win32,59.86590038,574c1f935bef980010b0a080,64d2fd46c836a06233681665,64dc7f0710ede78d87d3ce03,,,,,,,decisionTrl,resources/DR.BMP,resources/DP.BMP,Door1,0.162760417,-0.009114583,1,0,0,0.745,optionRight,30,10435,5,24,0,24,0,1,,,,,,,,,,,,,,,,,,,,,,,,,,,,,,,,,,,,,,,
,,,,,,,,2023-08-16_09h31.19.072,HF_wild_card,2022.2.4,Win32,59.86590038,574c1f935bef980010b0a080,64d2fd46c836a06233681665,64dc7f0710ede78d87d3ce03,,,,,,,ctch,resources/DR.BMP,resources/DB.BMP,Door3,0.194010417,-0.020833333,1,0,0,0.8218,optionRight,70,10505,5,25,0,25,0,1,,,,,,,,,,,,,,,,,,,,,,,,,,,,,,,,,,,,,,,
,,,,,,,,2023-08-16_09h31.19.072,HF_wild_card,2022.2.4,Win32,59.86590038,574c1f935bef980010b0a080,64d2fd46c836a06233681665,64dc7f0710ede78d87d3ce03,,,,,,,decisionTrl,resources/DB.BMP,resources/DY.BMP,Door4,0.2421875,-0.022135417,1,0,0,0.7353,optionRight,60,10565,5,26,0,26,0,1,,,,,,,,,,,,,,,,,,,,,,,,,,,,,,,,,,,,,,,
,,,,,,,,2023-08-16_09h31.19.072,HF_wild_card,2022.2.4,Win32,59.86590038,574c1f935bef980010b0a080,64d2fd46c836a06233681665,64dc7f0710ede78d87d3ce03,,,,,,,decisionTrl,resources/DY.BMP,resources/DB.BMP,Door3,0.169270833,-0.06640625,1,0,0,0.6951,optionRight,70,10635,5,27,0,27,0,1,,,,,,,,,,,,,,,,,,,,,,,,,,,,,,,,,,,,,,,
,,,,,,,,2023-08-16_09h31.19.072,HF_wild_card,2022.2.4,Win32,59.86590038,574c1f935bef980010b0a080,64d2fd46c836a06233681665,64dc7f0710ede78d87d3ce03,,,,,,,decisionTrl,resources/DR.BMP,resources/DG.BMP,WildCard_Ex,0.23828125,0.013020833,1,0,0,1.7478,optionRight,95,10730,5,28,0,28,0,1,,,,,,,,,,,,,,,,,,,,,,,,,,,,,,,,,,,,,,,
,,,,,,,,2023-08-16_09h31.19.072,HF_wild_card,2022.2.4,Win32,59.86590038,574c1f935bef980010b0a080,64d2fd46c836a06233681665,64dc7f0710ede78d87d3ce03,,,,,,,decisionTrl,resources/DG.BMP,resources/DB.BMP,Door3,0.178385417,-0.029947917,1,0,0,0.7713,optionRight,70,10800,5,29,0,29,0,1,,,,,,,,,,,,,,,,,,,,,,,,,,,,,,,,,,,,,,,
,,,,,,,,2023-08-16_09h31.19.072,HF_wild_card,2022.2.4,Win32,59.86590038,574c1f935bef980010b0a080,64d2fd46c836a06233681665,64dc7f0710ede78d87d3ce03,,,,,,,sngl,resources/DY.BMP,resources/Empty.png,Door4,-0.14453125,-0.00390625,1,0,0,0.8661,optionLeft,80,10880,5,30,0,30,0,1,,,,,,,,,,,,,,,,,,,,,,,,,,,,,,,,,,,,,,,
,,,,,,,,2023-08-16_09h31.19.072,HF_wild_card,2022.2.4,Win32,59.86590038,574c1f935bef980010b0a080,64d2fd46c836a06233681665,64dc7f0710ede78d87d3ce03,,,,,,,decisionTrl,resources/DG.BMP,resources/DR.BMP,Door2,0.309895833,0.076822917,1,0,0,1.3708,optionRight,20,10900,5,31,0,31,0,1,,,,,,,,,,,,,,,,,,,,,,,,,,,,,,,,,,,,,,,
,,,,,,,,2023-08-16_09h31.19.072,HF_wild_card,2022.2.4,Win32,59.86590038,574c1f935bef980010b0a080,64d2fd46c836a06233681665,64dc7f0710ede78d87d3ce03,,,,,,,decisionTrl,resources/DB.BMP,resources/DY.BMP,Door3,-0.26953125,0.010416667,1,0,0,2.9221,optionLeft,70,10970,5,32,0,32,0,1,,,,,,,,,,,,,,,,,,,,,,,,,,,,,,,,,,,,,,,
,,,,,,,,2023-08-16_09h31.19.072,HF_wild_card,2022.2.4,Win32,59.86590038,574c1f935bef980010b0a080,64d2fd46c836a06233681665,64dc7f0710ede78d87d3ce03,,,,,,,decisionTrl,resources/DG.BMP,resources/DY.BMP,WildCard_Ex,-0.188802083,-0.045572917,1,0,0,2.2192,optionLeft,95,11065,5,33,0,33,0,1,,,,,,,,,,,,,,,,,,,,,,,,,,,,,,,,,,,,,,,
,,,,,,,,2023-08-16_09h31.19.072,HF_wild_card,2022.2.4,Win32,59.86590038,574c1f935bef980010b0a080,64d2fd46c836a06233681665,64dc7f0710ede78d87d3ce03,,,,,,,decisionTrl,resources/DR.BMP,resources/DP.BMP,Door2,-0.204427083,-0.037760417,1,0,0,0.932,optionLeft,20,11085,5,34,0,34,0,1,,,,,,,,,,,,,,,,,,,,,,,,,,,,,,,,,,,,,,,
,,,,,,,,2023-08-16_09h31.19.072,HF_wild_card,2022.2.4,Win32,59.86590038,574c1f935bef980010b0a080,64d2fd46c836a06233681665,64dc7f0710ede78d87d3ce03,,,,,,,ctch,resources/DB.BMP,resources/DR.BMP,Door3,-0.09765625,-0.055989583,1,0,0,1.1384,optionLeft,70,11155,5,35,0,35,0,1,,,,,,,,,,,,,,,,,,,,,,,,,,,,,,,,,,,,,,,
,,,,,,,,2023-08-16_09h31.19.072,HF_wild_card,2022.2.4,Win32,59.86590038,574c1f935bef980010b0a080,64d2fd46c836a06233681665,64dc7f0710ede78d87d3ce03,,,,,,,ctch,resources/DP.BMP,resources/DY.BMP,Door1,-0.126302083,-0.02734375,1,0,0,0.7486,optionLeft,30,11185,5,36,0,36,0,1,,,,,,,,,,,,,,,,,,,,,,,,,,,,,,,,,,,,,,,
,,,,,,,,2023-08-16_09h31.19.072,HF_wild_card,2022.2.4,Win32,59.86590038,574c1f935bef980010b0a080,64d2fd46c836a06233681665,64dc7f0710ede78d87d3ce03,,,,,,,decisionTrl,resources/DB.BMP,resources/DY.BMP,Door3,-0.221354167,0.006510417,1,0,0,0.7007,optionLeft,70,11255,5,37,0,37,0,1,,,,,,,,,,,,,,,,,,,,,,,,,,,,,,,,,,,,,,,
,,,,,,,,2023-08-16_09h31.19.072,HF_wild_card,2022.2.4,Win32,59.86590038,574c1f935bef980010b0a080,64d2fd46c836a06233681665,64dc7f0710ede78d87d3ce03,,,,,,,ctch,resources/DP.BMP,resources/DY.BMP,Door4,0.125,-0.049479167,1,0,0,1.268,optionRight,60,11315,5,38,0,38,0,1,,,,,,,,,,,,,,,,,,,,,,,,,,,,,,,,,,,,,,,
,,,,,,,,2023-08-16_09h31.19.072,HF_wild_card,2022.2.4,Win32,59.86590038,574c1f935bef980010b0a080,64d2fd46c836a06233681665,64dc7f0710ede78d87d3ce03,,,,,,,sngl,resources/DR.BMP,resources/Empty.png,Door2,-0.2109375,0.022135417,1,0,0,0.6973,optionLeft,40,11355,5,39,0,39,0,1,,,,,,,,,,,,,,,,,,,,,,,,,,,,,,,,,,,,,,,
,,,,,,,,2023-08-16_09h31.19.072,HF_wild_card,2022.2.4,Win32,59.86590038,574c1f935bef980010b0a080,64d2fd46c836a06233681665,64dc7f0710ede78d87d3ce03,,,,,,,decisionTrl,resources/DB.BMP,resources/DY.BMP,Door3,-0.260416667,0.04296875,1,0,0,0.93,optionLeft,70,11425,5,40,0,40,0,1,,,,,,,,,,,,,,,,,,,,,,,,,,,,,,,,,,,,,,,
,,,,,,,,2023-08-16_09h31.19.072,HF_wild_card,2022.2.4,Win32,59.86590038,574c1f935bef980010b0a080,64d2fd46c836a06233681665,64dc7f0710ede78d87d3ce03,,,,,,,sngl,resources/DG.BMP,resources/Empty.png,WildCard_Ex,-0.223958333,0.013020833,1,0,0,0.6366,optionLeft,5,11430,5,41,0,41,0,1,,,,,,,,,,,,,,,,,,,,,,,,,,,,,,,,,,,,,,,
,,,,,,,,2023-08-16_09h31.19.072,HF_wild_card,2022.2.4,Win32,59.86590038,574c1f935bef980010b0a080,64d2fd46c836a06233681665,64dc7f0710ede78d87d3ce03,,,,,,,ctch,resources/DY.BMP,resources/DP.BMP,Door4,-0.208333333,0.052083333,1,0,0,1.1607,optionLeft,80,11510,5,42,0,42,0,1,,,,,,,,,,,,,,,,,,,,,,,,,,,,,,,,,,,,,,,
,,,,,,,,2023-08-16_09h31.19.072,HF_wild_card,2022.2.4,Win32,59.86590038,574c1f935bef980010b0a080,64d2fd46c836a06233681665,64dc7f0710ede78d87d3ce03,,,,,,,sngl,resources/DP.BMP,resources/Empty.png,Door1,-0.149739583,0.026041667,1,0,0,0.9679,optionLeft,30,11540,5,43,0,43,0,1,,,,,,,,,,,,,,,,,,,,,,,,,,,,,,,,,,,,,,,
,,,,,,,,2023-08-16_09h31.19.072,HF_wild_card,2022.2.4,Win32,59.86590038,574c1f935bef980010b0a080,64d2fd46c836a06233681665,64dc7f0710ede78d87d3ce03,,,,,,,,,,,,,,,,,,,,,,,,,,4,0,4,0,1,,,,,,,,,,,,,,,,,,,,,,,,,,,,,,,,,,
,,,,,,,,2023-08-16_09h31.19.072,HF_wild_card,2022.2.4,Win32,59.86590038,574c1f935bef980010b0a080,64d2fd46c836a06233681665,64dc7f0710ede78d87d3ce03,,,,,,,sngl,resources/Empty.png,resources/DP.BMP,Door1,0.217447917,-0.200520833,1,0,0,0.8469,optionRight,30,11570,6,0,0,0,0,1,,,,,,,,,,,,,,,,,,,,,,,,,,,,,,,,,,,,,,,
,,,,,,,,2023-08-16_09h31.19.072,HF_wild_card,2022.2.4,Win32,59.86590038,574c1f935bef980010b0a080,64d2fd46c836a06233681665,64dc7f0710ede78d87d3ce03,,,,,,,ctch,resources/DR.BMP,resources/DB.BMP,Door3,0.1484375,-0.07421875,1,0,0,0.6999,optionRight,70,11640,6,1,0,1,0,1,,,,,,,,,,,,,,,,,,,,,,,,,,,,,,,,,,,,,,,
,,,,,,,,2023-08-16_09h31.19.072,HF_wild_card,2022.2.4,Win32,59.86590038,574c1f935bef980010b0a080,64d2fd46c836a06233681665,64dc7f0710ede78d87d3ce03,,,,,,,ctch,resources/DP.BMP,resources/DY.BMP,Door1,-0.162760417,-0.072916667,1,0,0,0.8477,optionLeft,30,11670,6,2,0,2,0,1,,,,,,,,,,,,,,,,,,,,,,,,,,,,,,,,,,,,,,,
,,,,,,,,2023-08-16_09h31.19.072,HF_wild_card,2022.2.4,Win32,59.86590038,574c1f935bef980010b0a080,64d2fd46c836a06233681665,64dc7f0710ede78d87d3ce03,,,,,,,decisionTrl,resources/DP.BMP,resources/DR.BMP,Door2,0.303385417,-0.10546875,1,0,0,0.8197,optionRight,40,11710,6,3,0,3,0,1,,,,,,,,,,,,,,,,,,,,,,,,,,,,,,,,,,,,,,,
,,,,,,,,2023-08-16_09h31.19.072,HF_wild_card,2022.2.4,Win32,59.86590038,574c1f935bef980010b0a080,64d2fd46c836a06233681665,64dc7f0710ede78d87d3ce03,,,,,,,sngl,resources/DY.BMP,resources/Empty.png,Door4,-0.138020833,-0.010416667,1,0,0,0.7369,optionLeft,60,11770,6,4,0,4,0,1,,,,,,,,,,,,,,,,,,,,,,,,,,,,,,,,,,,,,,,
,,,,,,,,2023-08-16_09h31.19.072,HF_wild_card,2022.2.4,Win32,59.86590038,574c1f935bef980010b0a080,64d2fd46c836a06233681665,64dc7f0710ede78d87d3ce03,,,,,,,decisionTrl,resources/DY.BMP,resources/DB.BMP,Door3,0.15234375,-0.009114583,1,0,0,0.6614,optionRight,70,11840,6,5,0,5,0,1,,,,,,,,,,,,,,,,,,,,,,,,,,,,,,,,,,,,,,,
,,,,,,,,2023-08-16_09h31.19.072,HF_wild_card,2022.2.4,Win32,59.86590038,574c1f935bef980010b0a080,64d2fd46c836a06233681665,64dc7f0710ede78d87d3ce03,,,,,,,decisionTrl,resources/DR.BMP,resources/DP.BMP,Door1,0.087239583,-0.02734375,1,0,0,0.7105,optionRight,30,11870,6,6,0,6,0,1,,,,,,,,,,,,,,,,,,,,,,,,,,,,,,,,,,,,,,,
,,,,,,,,2023-08-16_09h31.19.072,HF_wild_card,2022.2.4,Win32,59.86590038,574c1f935bef980010b0a080,64d2fd46c836a06233681665,64dc7f0710ede78d87d3ce03,,,,,,,sngl,resources/DG.BMP,resources/Empty.png,WildCard_Ex,-0.1875,-0.018229167,1,0,0,0.644,optionLeft,5,11875,6,7,0,7,0,1,,,,,,,,,,,,,,,,,,,,,,,,,,,,,,,,,,,,,,,
,,,,,,,,2023-08-16_09h31.19.072,HF_wild_card,2022.2.4,Win32,59.86590038,574c1f935bef980010b0a080,64d2fd46c836a06233681665,64dc7f0710ede78d87d3ce03,,,,,,,decisionTrl,resources/DR.BMP,resources/DP.BMP,Door1,0.15625,-0.009114583,1,0,0,0.7011,optionRight,30,11905,6,8,0,8,0,1,,,,,,,,,,,,,,,,,,,,,,,,,,,,,,,,,,,,,,,
,,,,,,,,2023-08-16_09h31.19.072,HF_wild_card,2022.2.4,Win32,59.86590038,574c1f935bef980010b0a080,64d2fd46c836a06233681665,64dc7f0710ede78d87d3ce03,,,,,,,sngl,resources/DG.BMP,resources/Empty.png,WildCard_Ex,-0.122395833,-0.036458333,1,0,0,0.4327,optionLeft,95,12000,6,9,0,9,0,1,,,,,,,,,,,,,,,,,,,,,,,,,,,,,,,,,,,,,,,
,,,,,,,,2023-08-16_09h31.19.072,HF_wild_card,2022.2.4,Win32,59.86590038,574c1f935bef980010b0a080,64d2fd46c836a06233681665,64dc7f0710ede78d87d3ce03,,,,,,,ctch,resources/DP.BMP,resources/DY.BMP,Door1,-0.12109375,-0.018229167,1,0,0,0.6187,optionLeft,30,12030,6,10,0,10,0,1,,,,,,,,,,,,,,,,,,,,,,,,,,,,,,,,,,,,,,,
,,,,,,,,2023-08-16_09h31.19.072,HF_wild_card,2022.2.4,Win32,59.86590038,574c1f935bef980010b0a080,64d2fd46c836a06233681665,64dc7f0710ede78d87d3ce03,,,,,,,decisionTrl,resources/DB.BMP,resources/DY.BMP,Door4,0.18359375,-0.00390625,1,0,0,0.5891,optionRight,60,12090,6,11,0,11,0,1,,,,,,,,,,,,,,,,,,,,,,,,,,,,,,,,,,,,,,,
,,,,,,,,2023-08-16_09h31.19.072,HF_wild_card,2022.2.4,Win32,59.86590038,574c1f935bef980010b0a080,64d2fd46c836a06233681665,64dc7f0710ede78d87d3ce03,,,,,,,decisionTrl,resources/DY.BMP,resources/DG.BMP,Door4,-0.110677083,0.013020833,1,0,0,0.6535,optionLeft,80,12170,6,12,0,12,0,1,,,,,,,,,,,,,,,,,,,,,,,,,,,,,,,,,,,,,,,
,,,,,,,,2023-08-16_09h31.19.072,HF_wild_card,2022.2.4,Win32,59.86590038,574c1f935bef980010b0a080,64d2fd46c836a06233681665,64dc7f0710ede78d87d3ce03,,,,,,,decisionTrl,resources/DG.BMP,resources/DR.BMP,Door2,0.221354167,0.010416667,1,0,0,0.7111,optionRight,20,12190,6,13,0,13,0,1,,,,,,,,,,,,,,,,,,,,,,,,,,,,,,,,,,,,,,,
,,,,,,,,2023-08-16_09h31.19.072,HF_wild_card,2022.2.4,Win32,59.86590038,574c1f935bef980010b0a080,64d2fd46c836a06233681665,64dc7f0710ede78d87d3ce03,,,,,,,decisionTrl,resources/DG.BMP,resources/DY.BMP,WildCard_Ex,-0.130208333,0.010416667,1,0,0,1.0856,optionLeft,5,12195,6,14,0,14,0,1,,,,,,,,,,,,,,,,,,,,,,,,,,,,,,,,,,,,,,,
,,,,,,,,2023-08-16_09h31.19.072,HF_wild_card,2022.2.4,Win32,59.86590038,574c1f935bef980010b0a080,64d2fd46c836a06233681665,64dc7f0710ede78d87d3ce03,,,,,,,decisionTrl,resources/DR.BMP,resources/DP.BMP,Door1,0.21875,-0.005208333,1,0,0,0.6472,optionRight,30,12225,6,15,0,15,0,1,,,,,,,,,,,,,,,,,,,,,,,,,,,,,,,,,,,,,,,
,,,,,,,,2023-08-16_09h31.19.072,HF_wild_card,2022.2.4,Win32,59.86590038,574c1f935bef980010b0a080,64d2fd46c836a06233681665,64dc7f0710ede78d87d3ce03,,,,,,,ctch,resources/DB.BMP,resources/DR.BMP,Door3,-0.12890625,-0.02734375,1,0,0,0.8843,optionLeft,70,12295,6,16,0,16,0,1,,,,,,,,,,,,,,,,,,,,,,,,,,,,,,,,,,,,,,,
,,,,,,,,2023-08-16_09h31.19.072,HF_wild_card,2022.2.4,Win32,59.86590038,574c1f935bef980010b0a080,64d2fd46c836a06233681665,64dc7f0710ede78d87d3ce03,,,,,,,decisionTrl,resources/DR.BMP,resources/DP.BMP,Door1,0.1796875,-0.001302083,1,0,0,0.734,optionRight,30,12325,6,17,0,17,0,1,,,,,,,,,,,,,,,,,,,,,,,,,,,,,,,,,,,,,,,
,,,,,,,,2023-08-16_09h31.19.072,HF_wild_card,2022.2.4,Win32,59.86590038,574c1f935bef980010b0a080,64d2fd46c836a06233681665,64dc7f0710ede78d87d3ce03,,,,,,,decisionTrl,resources/DR.BMP,resources/DG.BMP,Door2,-0.114583333,-0.005208333,1,0,0,0.6447,optionLeft,40,12365,6,18,0,18,0,1,,,,,,,,,,,,,,,,,,,,,,,,,,,,,,,,,,,,,,,
,,,,,,,,2023-08-16_09h31.19.072,HF_wild_card,2022.2.4,Win32,59.86590038,574c1f935bef980010b0a080,64d2fd46c836a06233681665,64dc7f0710ede78d87d3ce03,,,,,,,ctch,resources/DR.BMP,resources/DB.BMP,Door3,0.186197917,-0.024739583,1,0,0,0.6522,optionRight,70,12435,6,19,0,19,0,1,,,,,,,,,,,,,,,,,,,,,,,,,,,,,,,,,,,,,,,
,,,,,,,,2023-08-16_09h31.19.072,HF_wild_card,2022.2.4,Win32,59.86590038,574c1f935bef980010b0a080,64d2fd46c836a06233681665,64dc7f0710ede78d87d3ce03,,,,,,,ctch,resources/DB.BMP,resources/DR.BMP,Door3,-0.102864583,-0.040364583,1,0,0,0.6704,optionLeft,70,12505,6,20,0,20,0,1,,,,,,,,,,,,,,,,,,,,,,,,,,,,,,,,,,,,,,,
,,,,,,,,2023-08-16_09h31.19.072,HF_wild_card,2022.2.4,Win32,59.86590038,574c1f935bef980010b0a080,64d2fd46c836a06233681665,64dc7f0710ede78d87d3ce03,,,,,,,sngl,resources/Empty.png,resources/DR.BMP,Door2,0.130208333,-0.040364583,1,0,0,0.6616,optionRight,40,12545,6,21,0,21,0,1,,,,,,,,,,,,,,,,,,,,,,,,,,,,,,,,,,,,,,,
,,,,,,,,2023-08-16_09h31.19.072,HF_wild_card,2022.2.4,Win32,59.86590038,574c1f935bef980010b0a080,64d2fd46c836a06233681665,64dc7f0710ede78d87d3ce03,,,,,,,sngl,resources/Empty.png,resources/DG.BMP,WildCard_Ex,0.149739583,-0.036458333,1,0,0,0.702,optionRight,95,12640,6,22,0,22,0,1,,,,,,,,,,,,,,,,,,,,,,,,,,,,,,,,,,,,,,,
,,,,,,,,2023-08-16_09h31.19.072,HF_wild_card,2022.2.4,Win32,59.86590038,574c1f935bef980010b0a080,64d2fd46c836a06233681665,64dc7f0710ede78d87d3ce03,,,,,,,decisionTrl,resources/DP.BMP,resources/DR.BMP,Door2,0.201822917,-0.029947917,1,0,0,0.8979,optionRight,40,12680,6,23,0,23,0,1,,,,,,,,,,,,,,,,,,,,,,,,,,,,,,,,,,,,,,,
,,,,,,,,2023-08-16_09h31.19.072,HF_wild_card,2022.2.4,Win32,59.86590038,574c1f935bef980010b0a080,64d2fd46c836a06233681665,64dc7f0710ede78d87d3ce03,,,,,,,ctch,resources/DY.BMP,resources/DP.BMP,Door4,-0.09375,-0.0546875,1,0,0,0.6539,optionLeft,60,12740,6,24,0,24,0,1,,,,,,,,,,,,,,,,,,,,,,,,,,,,,,,,,,,,,,,
,,,,,,,,2023-08-16_09h31.19.072,HF_wild_card,2022.2.4,Win32,59.86590038,574c1f935bef980010b0a080,64d2fd46c836a06233681665,64dc7f0710ede78d87d3ce03,,,,,,,decisionTrl,resources/DY.BMP,resources/DB.BMP,Door3,0.1484375,-0.00390625,1,0,0,0.662,optionRight,70,12810,6,25,0,25,0,1,,,,,,,,,,,,,,,,,,,,,,,,,,,,,,,,,,,,,,,
,,,,,,,,2023-08-16_09h31.19.072,HF_wild_card,2022.2.4,Win32,59.86590038,574c1f935bef980010b0a080,64d2fd46c836a06233681665,64dc7f0710ede78d87d3ce03,,,,,,,sngl,resources/DP.BMP,resources/Empty.png,Door1,-0.1484375,-0.013020833,1,0,0,0.9171,optionLeft,30,12840,6,26,0,26,0,1,,,,,,,,,,,,,,,,,,,,,,,,,,,,,,,,,,,,,,,
,,,,,,,,2023-08-16_09h31.19.072,HF_wild_card,2022.2.4,Win32,59.86590038,574c1f935bef980010b0a080,64d2fd46c836a06233681665,64dc7f0710ede78d87d3ce03,,,,,,,sngl,resources/Empty.png,resources/DY.BMP,Door4,0.1171875,-0.013020833,1,0,0,0.9455,optionRight,80,12920,6,27,0,27,0,1,,,,,,,,,,,,,,,,,,,,,,,,,,,,,,,,,,,,,,,
,,,,,,,,2023-08-16_09h31.19.072,HF_wild_card,2022.2.4,Win32,59.86590038,574c1f935bef980010b0a080,64d2fd46c836a06233681665,64dc7f0710ede78d87d3ce03,,,,,,,decisionTrl,resources/DP.BMP,resources/DR.BMP,Door2,0.12890625,-0.045572917,1,0,0,0.8946,optionRight,40,12960,6,28,0,28,0,1,,,,,,,,,,,,,,,,,,,,,,,,,,,,,,,,,,,,,,,
,,,,,,,,2023-08-16_09h31.19.072,HF_wild_card,2022.2.4,Win32,59.86590038,574c1f935bef980010b0a080,64d2fd46c836a06233681665,64dc7f0710ede78d87d3ce03,,,,,,,decisionTrl,resources/DB.BMP,resources/DY.BMP,Door3,-0.17578125,-0.002604167,1,0,0,0.8278,optionLeft,70,13030,6,29,0,29,0,1,,,,,,,,,,,,,,,,,,,,,,,,,,,,,,,,,,,,,,,
,,,,,,,,2023-08-16_09h31.19.072,HF_wild_card,2022.2.4,Win32,59.86590038,574c1f935bef980010b0a080,64d2fd46c836a06233681665,64dc7f0710ede78d87d3ce03,,,,,,,decisionTrl,resources/DB.BMP,resources/DG.BMP,WildCard_Ex,-0.09765625,-0.002604167,1,0,0,1.4129,optionRight,5,13035,6,30,0,30,0,1,,,,,,,,,,,,,,,,,,,,,,,,,,,,,,,,,,,,,,,
,,,,,,,,2023-08-16_09h31.19.072,HF_wild_card,2022.2.4,Win32,59.86590038,574c1f935bef980010b0a080,64d2fd46c836a06233681665,64dc7f0710ede78d87d3ce03,,,,,,,decisionTrl,resources/DY.BMP,resources/DB.BMP,Door3,0.18359375,-0.026041667,1,0,0,0.9951,optionRight,70,13105,6,31,0,31,0,1,,,,,,,,,,,,,,,,,,,,,,,,,,,,,,,,,,,,,,,
,,,,,,,,2023-08-16_09h31.19.072,HF_wild_card,2022.2.4,Win32,59.86590038,574c1f935bef980010b0a080,64d2fd46c836a06233681665,64dc7f0710ede78d87d3ce03,,,,,,,decisionTrl,resources/DB.BMP,resources/DY.BMP,Door3,-0.11328125,-0.049479167,1,0,0,0.7324,optionLeft,70,13175,6,32,0,32,0,1,,,,,,,,,,,,,,,,,,,,,,,,,,,,,,,,,,,,,,,
,,,,,,,,2023-08-16_09h31.19.072,HF_wild_card,2022.2.4,Win32,59.86590038,574c1f935bef980010b0a080,64d2fd46c836a06233681665,64dc7f0710ede78d87d3ce03,,,,,,,sngl,resources/DB.BMP,resources/Empty.png,Door3,-0.17578125,-0.055989583,1,0,0,0.6308,optionLeft,70,13245,6,33,0,33,0,1,,,,,,,,,,,,,,,,,,,,,,,,,,,,,,,,,,,,,,,
,,,,,,,,2023-08-16_09h31.19.072,HF_wild_card,2022.2.4,Win32,59.86590038,574c1f935bef980010b0a080,64d2fd46c836a06233681665,64dc7f0710ede78d87d3ce03,,,,,,,decisionTrl,resources/DG.BMP,resources/DP.BMP,WildCard_Ex,-0.227864583,-0.013020833,1,0,0,0.9445,optionLeft,95,13340,6,34,0,34,0,1,,,,,,,,,,,,,,,,,,,,,,,,,,,,,,,,,,,,,,,
,,,,,,,,2023-08-16_09h31.19.072,HF_wild_card,2022.2.4,Win32,59.86590038,574c1f935bef980010b0a080,64d2fd46c836a06233681665,64dc7f0710ede78d87d3ce03,,,,,,,decisionTrl,resources/DP.BMP,resources/DR.BMP,Door2,0.174479167,-0.036458333,1,0,0,1.2383,optionRight,20,13360,6,35,0,35,0,1,,,,,,,,,,,,,,,,,,,,,,,,,,,,,,,,,,,,,,,
,,,,,,,,2023-08-16_09h31.19.072,HF_wild_card,2022.2.4,Win32,59.86590038,574c1f935bef980010b0a080,64d2fd46c836a06233681665,64dc7f0710ede78d87d3ce03,,,,,,,decisionTrl,resources/DG.BMP,resources/DB.BMP,WildCard_Ex,-0.141927083,-0.048177083,1,0,0,2.114,optionLeft,95,13455,6,36,0,36,0,1,,,,,,,,,,,,,,,,,,,,,,,,,,,,,,,,,,,,,,,
,,,,,,,,2023-08-16_09h31.19.072,HF_wild_card,2022.2.4,Win32,59.86590038,574c1f935bef980010b0a080,64d2fd46c836a06233681665,64dc7f0710ede78d87d3ce03,,,,,,,decisionTrl,resources/DP.BMP,resources/DG.BMP,WildCard_Ex,0.126302083,-0.06640625,1,0,0,0.8517,optionRight,5,13460,6,37,0,37,0,1,,,,,,,,,,,,,,,,,,,,,,,,,,,,,,,,,,,,,,,
,,,,,,,,2023-08-16_09h31.19.072,HF_wild_card,2022.2.4,Win32,59.86590038,574c1f935bef980010b0a080,64d2fd46c836a06233681665,64dc7f0710ede78d87d3ce03,,,,,,,sngl,resources/Empty.png,resources/DG.BMP,WildCard_Ex,0.119791667,-0.026041667,1,0,0,0.8165,optionRight,5,13465,6,38,0,38,0,1,,,,,,,,,,,,,,,,,,,,,,,,,,,,,,,,,,,,,,,
,,,,,,,,2023-08-16_09h31.19.072,HF_wild_card,2022.2.4,Win32,59.86590038,574c1f935bef980010b0a080,64d2fd46c836a06233681665,64dc7f0710ede78d87d3ce03,,,,,,,decisionTrl,resources/DY.BMP,resources/DB.BMP,Door3,0.119791667,-0.015625,1,0,0,1.1228,optionRight,70,13535,6,39,0,39,0,1,,,,,,,,,,,,,,,,,,,,,,,,,,,,,,,,,,,,,,,
,,,,,,,,2023-08-16_09h31.19.072,HF_wild_card,2022.2.4,Win32,59.86590038,574c1f935bef980010b0a080,64d2fd46c836a06233681665,64dc7f0710ede78d87d3ce03,,,,,,,decisionTrl,resources/DB.BMP,resources/DY.BMP,Door3,-0.244791667,-0.013020833,1,0,0,0.9347,optionLeft,70,13605,6,40,0,40,0,1,,,,,,,,,,,,,,,,,,,,,,,,,,,,,,,,,,,,,,,
,,,,,,,,2023-08-16_09h31.19.072,HF_wild_card,2022.2.4,Win32,59.86590038,574c1f935bef980010b0a080,64d2fd46c836a06233681665,64dc7f0710ede78d87d3ce03,,,,,,,ctch,resources/DY.BMP,resources/DP.BMP,Door4,-0.1953125,-0.006510417,1,0,0,1.5994,optionLeft,80,13685,6,41,0,41,0,1,,,,,,,,,,,,,,,,,,,,,,,,,,,,,,,,,,,,,,,
,,,,,,,,2023-08-16_09h31.19.072,HF_wild_card,2022.2.4,Win32,59.86590038,574c1f935bef980010b0a080,64d2fd46c836a06233681665,64dc7f0710ede78d87d3ce03,,,,,,,sngl,resources/DR.BMP,resources/Empty.png,Door2,-0.184895833,0.002604167,1,0,0,0.7276,optionLeft,20,13705,6,42,0,42,0,1,,,,,,,,,,,,,,,,,,,,,,,,,,,,,,,,,,,,,,,
,,,,,,,,2023-08-16_09h31.19.072,HF_wild_card,2022.2.4,Win32,59.86590038,574c1f935bef980010b0a080,64d2fd46c836a06233681665,64dc7f0710ede78d87d3ce03,,,,,,,sngl,resources/Empty.png,resources/DB.BMP,Door3,0.118489583,-0.010416667,1,0,0,0.6868,optionRight,70,13775,6,43,0,43,0,1,,,,,,,,,,,,,,,,,,,,,,,,,,,,,,,,,,,,,,,
,,,,,,,,2023-08-16_09h31.19.072,HF_wild_card,2022.2.4,Win32,59.86590038,574c1f935bef980010b0a080,64d2fd46c836a06233681665,64dc7f0710ede78d87d3ce03,,,,,,,,,,,,,,,,,,,,,,,,,,5,0,5,0,1,,,,,,,,,,,,,,,,,,,,,,,,,,,,,,,,,,
,,,,,,,,2023-08-16_09h31.19.072,HF_wild_card,2022.2.4,Win32,59.86590038,574c1f935bef980010b0a080,64d2fd46c836a06233681665,64dc7f0710ede78d87d3ce03,,,,,,,decisionTrl,resources/DR.BMP,resources/DP.BMP,Door1,0.1640625,-0.127604167,1,0,0,1.2133,optionRight,30,13805,7,0,0,0,0,1,,,,,,,,,,,,,,,,,,,,,,,,,,,,,,,,,,,,,,,
,,,,,,,,2023-08-16_09h31.19.072,HF_wild_card,2022.2.4,Win32,59.86590038,574c1f935bef980010b0a080,64d2fd46c836a06233681665,64dc7f0710ede78d87d3ce03,,,,,,,decisionTrl,resources/DP.BMP,resources/DR.BMP,Door1,-0.200520833,-0.020833333,1,0,0,2.1197,optionLeft,30,13835,7,1,0,1,0,1,,,,,,,,,,,,,,,,,,,,,,,,,,,,,,,,,,,,,,,
,,,,,,,,2023-08-16_09h31.19.072,HF_wild_card,2022.2.4,Win32,59.86590038,574c1f935bef980010b0a080,64d2fd46c836a06233681665,64dc7f0710ede78d87d3ce03,,,,,,,decisionTrl,resources/DR.BMP,resources/DP.BMP,Door1,0.122395833,-0.078125,1,0,0,0.8295,optionRight,30,13865,7,2,0,2,0,1,,,,,,,,,,,,,,,,,,,,,,,,,,,,,,,,,,,,,,,
,,,,,,,,2023-08-16_09h31.19.072,HF_wild_card,2022.2.4,Win32,59.86590038,574c1f935bef980010b0a080,64d2fd46c836a06233681665,64dc7f0710ede78d87d3ce03,,,,,,,decisionTrl,resources/DR.BMP,resources/DP.BMP,Door1,0.165364583,-0.032552083,1,0,0,1.1674,optionRight,30,13895,7,3,0,3,0,1,,,,,,,,,,,,,,,,,,,,,,,,,,,,,,,,,,,,,,,
,,,,,,,,2023-08-16_09h31.19.072,HF_wild_card,2022.2.4,Win32,59.86590038,574c1f935bef980010b0a080,64d2fd46c836a06233681665,64dc7f0710ede78d87d3ce03,,,,,,,ctch,resources/DP.BMP,resources/DY.BMP,Door4,0.130208333,-0.037760417,1,0,0,2.2949,optionRight,80,13975,7,4,0,4,0,1,,,,,,,,,,,,,,,,,,,,,,,,,,,,,,,,,,,,,,,
,,,,,,,,2023-08-16_09h31.19.072,HF_wild_card,2022.2.4,Win32,59.86590038,574c1f935bef980010b0a080,64d2fd46c836a06233681665,64dc7f0710ede78d87d3ce03,,,,,,,decisionTrl,resources/DB.BMP,resources/DY.BMP,Door3,-0.239583333,-0.001302083,1,0,0,0.8305,optionLeft,70,14045,7,5,0,5,0,1,,,,,,,,,,,,,,,,,,,,,,,,,,,,,,,,,,,,,,,
,,,,,,,,2023-08-16_09h31.19.072,HF_wild_card,2022.2.4,Win32,59.86590038,574c1f935bef980010b0a080,64d2fd46c836a06233681665,64dc7f0710ede78d87d3ce03,,,,,,,decisionTrl,resources/DB.BMP,resources/DY.BMP,Door3,-0.236979167,-0.015625,1,0,0,0.7995,optionLeft,70,14115,7,6,0,6,0,1,,,,,,,,,,,,,,,,,,,,,,,,,,,,,,,,,,,,,,,
,,,,,,,,2023-08-16_09h31.19.072,HF_wild_card,2022.2.4,Win32,59.86590038,574c1f935bef980010b0a080,64d2fd46c836a06233681665,64dc7f0710ede78d87d3ce03,,,,,,,decisionTrl,resources/DB.BMP,resources/DY.BMP,Door3,-0.26171875,0.052083333,1,0,0,1.014,optionLeft,70,14185,7,7,0,7,0,1,,,,,,,,,,,,,,,,,,,,,,,,,,,,,,,,,,,,,,,
,,,,,,,,2023-08-16_09h31.19.072,HF_wild_card,2022.2.4,Win32,59.86590038,574c1f935bef980010b0a080,64d2fd46c836a06233681665,64dc7f0710ede78d87d3ce03,,,,,,,decisionTrl,resources/DY.BMP,resources/DB.BMP,Door3,0.149739583,-0.040364583,1,0,0,1.3251,optionRight,70,14255,7,8,0,8,0,1,,,,,,,,,,,,,,,,,,,,,,,,,,,,,,,,,,,,,,,
,,,,,,,,2023-08-16_09h31.19.072,HF_wild_card,2022.2.4,Win32,59.86590038,574c1f935bef980010b0a080,64d2fd46c836a06233681665,64dc7f0710ede78d87d3ce03,,,,,,,decisionTrl,resources/DP.BMP,resources/DR.BMP,Door1,-0.188802083,-0.033854167,1,0,0,1.2262,optionLeft,30,14285,7,9,0,9,0,1,,,,,,,,,,,,,,,,,,,,,,,,,,,,,,,,,,,,,,,
,,,,,,,,2023-08-16_09h31.19.072,HF_wild_card,2022.2.4,Win32,59.86590038,574c1f935bef980010b0a080,64d2fd46c836a06233681665,64dc7f0710ede78d87d3ce03,,,,,,,decisionTrl,resources/DY.BMP,resources/DB.BMP,Door3,0.197916667,-0.0078125,1,0,0,1.2697,optionRight,70,14355,7,10,0,10,0,1,,,,,,,,,,,,,,,,,,,,,,,,,,,,,,,,,,,,,,,
,,,,,,,,2023-08-16_09h31.19.072,HF_wild_card,2022.2.4,Win32,59.86590038,574c1f935bef980010b0a080,64d2fd46c836a06233681665,64dc7f0710ede78d87d3ce03,,,,,,,ctch,resources/DB.BMP,resources/DR.BMP,Door3,-0.225260417,-0.00390625,1,0,0,1.0123,optionLeft,70,14425,7,11,0,11,0,1,,,,,,,,,,,,,,,,,,,,,,,,,,,,,,,,,,,,,,,
,,,,,,,,2023-08-16_09h31.19.072,HF_wild_card,2022.2.4,Win32,59.86590038,574c1f935bef980010b0a080,64d2fd46c836a06233681665,64dc7f0710ede78d87d3ce03,,,,,,,decisionTrl,resources/DR.BMP,resources/DP.BMP,Door1,0.186197917,0.005208333,1,0,0,0.882,optionRight,30,14455,7,12,0,12,0,1,,,,,,,,,,,,,,,,,,,,,,,,,,,,,,,,,,,,,,,
,,,,,,,,2023-08-16_09h31.19.072,HF_wild_card,2022.2.4,Win32,59.86590038,574c1f935bef980010b0a080,64d2fd46c836a06233681665,64dc7f0710ede78d87d3ce03,,,,,,,decisionTrl,resources/DY.BMP,resources/DB.BMP,Door3,0.182291667,0.002604167,1,0,0,1.4135,optionRight,70,14525,7,13,0,13,0,1,,,,,,,,,,,,,,,,,,,,,,,,,,,,,,,,,,,,,,,
,,,,,,,,2023-08-16_09h31.19.072,HF_wild_card,2022.2.4,Win32,59.86590038,574c1f935bef980010b0a080,64d2fd46c836a06233681665,64dc7f0710ede78d87d3ce03,,,,,,,decisionTrl,resources/DP.BMP,resources/DR.BMP,Door1,-0.1484375,-0.0078125,1,0,0,0.9095,optionLeft,30,14555,7,14,0,14,0,1,,,,,,,,,,,,,,,,,,,,,,,,,,,,,,,,,,,,,,,
,,,,,,,,2023-08-16_09h31.19.072,HF_wild_card,2022.2.4,Win32,59.86590038,574c1f935bef980010b0a080,64d2fd46c836a06233681665,64dc7f0710ede78d87d3ce03,,,,,,,decisionTrl,resources/DY.BMP,resources/DB.BMP,Door3,0.227864583,-0.0234375,1,0,0,1.1127,optionRight,70,14625,7,15,0,15,0,1,,,,,,,,,,,,,,,,,,,,,,,,,,,,,,,,,,,,,,,
,,,,,,,,2023-08-16_09h31.19.072,HF_wild_card,2022.2.4,Win32,59.86590038,574c1f935bef980010b0a080,64d2fd46c836a06233681665,64dc7f0710ede78d87d3ce03,,,,,,,ctch,resources/DR.BMP,resources/DB.BMP,Door3,0.22265625,-0.02734375,1,0,0,0.9308,optionRight,70,14695,7,16,0,16,0,1,,,,,,,,,,,,,,,,,,,,,,,,,,,,,,,,,,,,,,,
,,,,,,,,2023-08-16_09h31.19.072,HF_wild_card,2022.2.4,Win32,59.86590038,574c1f935bef980010b0a080,64d2fd46c836a06233681665,64dc7f0710ede78d87d3ce03,,,,,,,decisionTrl,resources/DY.BMP,resources/DB.BMP,Door3,0.15234375,-0.046875,1,0,0,0.8149,optionRight,70,14765,7,17,0,17,0,1,,,,,,,,,,,,,,,,,,,,,,,,,,,,,,,,,,,,,,,
,,,,,,,,2023-08-16_09h31.19.072,HF_wild_card,2022.2.4,Win32,59.86590038,574c1f935bef980010b0a080,64d2fd46c836a06233681665,64dc7f0710ede78d87d3ce03,,,,,,,ctch,resources/DY.BMP,resources/DP.BMP,Door4,-0.311197917,0.067708333,1,0,0,2.3505,optionLeft,60,14825,7,18,0,18,0,1,,,,,,,,,,,,,,,,,,,,,,,,,,,,,,,,,,,,,,,
,,,,,,,,2023-08-16_09h31.19.072,HF_wild_card,2022.2.4,Win32,59.86590038,574c1f935bef980010b0a080,64d2fd46c836a06233681665,64dc7f0710ede78d87d3ce03,,,,,,,ctch,resources/DR.BMP,resources/DB.BMP,Door3,0.147135417,-0.061197917,1,0,0,0.8556,optionRight,70,14895,7,19,0,19,0,1,,,,,,,,,,,,,,,,,,,,,,,,,,,,,,,,,,,,,,,
,,,,,,,,2023-08-16_09h31.19.072,HF_wild_card,2022.2.4,Win32,59.86590038,574c1f935bef980010b0a080,64d2fd46c836a06233681665,64dc7f0710ede78d87d3ce03,,,,,,,decisionTrl,resources/DB.BMP,resources/DY.BMP,Door3,-0.243489583,-0.009114583,1,0,0,0.8552,optionLeft,70,14965,7,20,0,20,0,1,,,,,,,,,,,,,,,,,,,,,,,,,,,,,,,,,,,,,,,
,,,,,,,,2023-08-16_09h31.19.072,HF_wild_card,2022.2.4,Win32,59.86590038,574c1f935bef980010b0a080,64d2fd46c836a06233681665,64dc7f0710ede78d87d3ce03,,,,,,,ctch,resources/DY.BMP,resources/DP.BMP,Door4,-0.200520833,-0.0390625,1,0,0,1.542,optionLeft,60,15025,7,21,0,21,0,1,,,,,,,,,,,,,,,,,,,,,,,,,,,,,,,,,,,,,,,
,,,,,,,,2023-08-16_09h31.19.072,HF_wild_card,2022.2.4,Win32,59.86590038,574c1f935bef980010b0a080,64d2fd46c836a06233681665,64dc7f0710ede78d87d3ce03,,,,,,,ctch,resources/DB.BMP,resources/DR.BMP,Door3,-0.197916667,-0.03515625,1,0,0,3.0763,optionLeft,70,15095,7,22,0,22,0,1,,,,,,,,,,,,,,,,,,,,,,,,,,,,,,,,,,,,,,,
,,,,,,,,2023-08-16_09h31.19.072,HF_wild_card,2022.2.4,Win32,59.86590038,574c1f935bef980010b0a080,64d2fd46c836a06233681665,64dc7f0710ede78d87d3ce03,,,,,,,ctch,resources/DR.BMP,resources/DB.BMP,Door3,0.016927083,-0.0078125,1,0,0,0.6082,optionRight,70,15165,7,23,0,23,0,1,,,,,,,,,,,,,,,,,,,,,,,,,,,,,,,,,,,,,,,
,,,,,,,,2023-08-16_09h31.19.072,HF_wild_card,2022.2.4,Win32,59.86590038,574c1f935bef980010b0a080,64d2fd46c836a06233681665,64dc7f0710ede78d87d3ce03,,,,,,,ctch,resources/DB.BMP,resources/DR.BMP,Door3,-0.21484375,0.002604167,1,0,0,0.9219,optionLeft,70,15235,7,24,0,24,0,1,,,,,,,,,,,,,,,,,,,,,,,,,,,,,,,,,,,,,,,
,,,,,,,,2023-08-16_09h31.19.072,HF_wild_card,2022.2.4,Win32,59.86590038,574c1f935bef980010b0a080,64d2fd46c836a06233681665,64dc7f0710ede78d87d3ce03,,,,,,,ctch,resources/DY.BMP,resources/DP.BMP,Door4,-0.1875,-0.01953125,1,0,0,1.2877,optionLeft,60,15295,7,25,0,25,0,1,,,,,,,,,,,,,,,,,,,,,,,,,,,,,,,,,,,,,,,
,,,,,,,,2023-08-16_09h31.19.072,HF_wild_card,2022.2.4,Win32,59.86590038,574c1f935bef980010b0a080,64d2fd46c836a06233681665,64dc7f0710ede78d87d3ce03,,,,,,,decisionTrl,resources/DP.BMP,resources/DR.BMP,Door2,0.233072917,-0.01171875,1,0,0,1.9999,optionRight,20,15315,7,26,0,26,0,1,,,,,,,,,,,,,,,,,,,,,,,,,,,,,,,,,,,,,,,
,,,,,,,,2023-08-16_09h31.19.072,HF_wild_card,2022.2.4,Win32,59.86590038,574c1f935bef980010b0a080,64d2fd46c836a06233681665,64dc7f0710ede78d87d3ce03,,,,,,,decisionTrl,resources/DP.BMP,resources/DR.BMP,Door1,-0.180989583,-0.037760417,1,0,0,0.8273,optionLeft,30,15345,7,27,0,27,0,1,,,,,,,,,,,,,,,,,,,,,,,,,,,,,,,,,,,,,,,
,,,,,,,,2023-08-16_09h31.19.072,HF_wild_card,2022.2.4,Win32,59.86590038,574c1f935bef980010b0a080,64d2fd46c836a06233681665,64dc7f0710ede78d87d3ce03,,,,,,,decisionTrl,resources/DP.BMP,resources/DR.BMP,Door1,-0.180989583,-0.0703125,1,0,0,0.7149,optionLeft,30,15375,7,28,0,28,0,1,,,,,,,,,,,,,,,,,,,,,,,,,,,,,,,,,,,,,,,
,,,,,,,,2023-08-16_09h31.19.072,HF_wild_card,2022.2.4,Win32,59.86590038,574c1f935bef980010b0a080,64d2fd46c836a06233681665,64dc7f0710ede78d87d3ce03,,,,,,,ctch,resources/DP.BMP,resources/DY.BMP,Door4,0.341145833,-0.028645833,1,0,0,1.8863,optionRight,60,15435,7,29,0,29,0,1,,,,,,,,,,,,,,,,,,,,,,,,,,,,,,,,,,,,,,,
,,,,,,,,2023-08-16_09h31.19.072,HF_wild_card,2022.2.4,Win32,59.86590038,574c1f935bef980010b0a080,64d2fd46c836a06233681665,64dc7f0710ede78d87d3ce03,,,,,,,decisionTrl,resources/DR.BMP,resources/DP.BMP,Door1,0.229166667,-0.037760417,1,0,0,1.5337,optionRight,30,15465,7,30,0,30,0,1,,,,,,,,,,,,,,,,,,,,,,,,,,,,,,,,,,,,,,,
,,,,,,,,2023-08-16_09h31.19.072,HF_wild_card,2022.2.4,Win32,59.86590038,574c1f935bef980010b0a080,64d2fd46c836a06233681665,64dc7f0710ede78d87d3ce03,,,,,,,decisionTrl,resources/DR.BMP,resources/DP.BMP,Door1,0.303385417,-0.002604167,1,0,0,0.8302,optionRight,30,15495,7,31,0,31,0,1,,,,,,,,,,,,,,,,,,,,,,,,,,,,,,,,,,,,,,,
,,,,,,,,2023-08-16_09h31.19.072,HF_wild_card,2022.2.4,Win32,59.86590038,574c1f935bef980010b0a080,64d2fd46c836a06233681665,64dc7f0710ede78d87d3ce03,,,,,,,decisionTrl,resources/DB.BMP,resources/DY.BMP,Door3,-0.23828125,0.045572917,1,0,0,1.2636,optionLeft,70,15565,7,32,0,32,0,1,,,,,,,,,,,,,,,,,,,,,,,,,,,,,,,,,,,,,,,
,,,,,,,,2023-08-16_09h31.19.072,HF_wild_card,2022.2.4,Win32,59.86590038,574c1f935bef980010b0a080,64d2fd46c836a06233681665,64dc7f0710ede78d87d3ce03,,,,,,,decisionTrl,resources/DY.BMP,resources/DB.BMP,Door3,0.27734375,-0.032552083,1,0,0,1.2914,optionRight,70,15635,7,33,0,33,0,1,,,,,,,,,,,,,,,,,,,,,,,,,,,,,,,,,,,,,,,
,,,,,,,,2023-08-16_09h31.19.072,HF_wild_card,2022.2.4,Win32,59.86590038,574c1f935bef980010b0a080,64d2fd46c836a06233681665,64dc7f0710ede78d87d3ce03,,,,,,,decisionTrl,resources/DB.BMP,resources/DY.BMP,Door3,-0.236979167,-0.01171875,1,0,0,1.3961,optionLeft,70,15705,7,34,0,34,0,1,,,,,,,,,,,,,,,,,,,,,,,,,,,,,,,,,,,,,,,
,,,,,,,,2023-08-16_09h31.19.072,HF_wild_card,2022.2.4,Win32,59.86590038,574c1f935bef980010b0a080,64d2fd46c836a06233681665,64dc7f0710ede78d87d3ce03,,,,,,,ctch,resources/DP.BMP,resources/DY.BMP,Door4,0.278645833,-0.069010417,1,0,0,1.5193,optionRight,80,15785,7,35,0,35,0,1,,,,,,,,,,,,,,,,,,,,,,,,,,,,,,,,,,,,,,,
,,,,,,,,2023-08-16_09h31.19.072,HF_wild_card,2022.2.4,Win32,59.86590038,574c1f935bef980010b0a080,64d2fd46c836a06233681665,64dc7f0710ede78d87d3ce03,,,,,,,,,,,,,,,,,,,,,,,,,,6,0,6,0,1,,,,,,,,,,,,,,,,,,,,,,,,,,,,,,,,,,
,,,,,,,,2023-08-16_09h31.19.072,HF_wild_card,2022.2.4,Win32,59.86590038,574c1f935bef980010b0a080,64d2fd46c836a06233681665,64dc7f0710ede78d87d3ce03,,,,,,,,,,,,,,,,,,,,,,,,,,,,,,,3,,,,,,,,,,,,,,,,,,,,,,,,,,,,,,,,,
,,,,,,,,2023-08-16_09h31.19.072,HF_wild_card,2022.2.4,Win32,59.86590038,574c1f935bef980010b0a080,64d2fd46c836a06233681665,64dc7f0710ede78d87d3ce03,,,,,,,,,,,,,,,,,,,,,,,,,,,,,,,,,,,,,,,,,,,,,,,,,,,,,,,,,,,,,,,,
,,,,,,,,2023-08-16_09h31.19.072,HF_wild_card,2022.2.4,Win32,59.86590038,574c1f935bef980010b0a080,64d2fd46c836a06233681665,64dc7f0710ede78d87d3ce03,,,,,,,,,,,,,,,,,,,,,,,,,,,,,,,,20,WC_extreme,resources/DG.BMP,0,0,0,0,1,,,,,,,,,,,,,,,,,,,,,,,,,
,,,,,,,,2023-08-16_09h31.19.072,HF_wild_card,2022.2.4,Win32,59.86590038,574c1f935bef980010b0a080,64d2fd46c836a06233681665,64dc7f0710ede78d87d3ce03,,,,,,,,,,,,,,,,,,,,,,,,,,,,,,,,45,WC_nonExtreme,resources/DBN.BMP,1,0,1,0,1,,,,,,,,,,,,,,,,,,,,,,,,,
,,,,,,,,2023-08-16_09h31.19.072,HF_wild_card,2022.2.4,Win32,59.86590038,574c1f935bef980010b0a080,64d2fd46c836a06233681665,64dc7f0710ede78d87d3ce03,,,,,,,,,,,,,,,,,,,,,,,,,,,,,,,,20,Door1,resources/DP.BMP,2,0,2,0,1,,,,,,,,,,,,,,,,,,,,,,,,,
,,,,,,,,2023-08-16_09h31.19.072,HF_wild_card,2022.2.4,Win32,59.86590038,574c1f935bef980010b0a080,64d2fd46c836a06233681665,64dc7f0710ede78d87d3ce03,,,,,,,,,,,,,,,,,,,,,,,,,,,,,,,,80,Door4,resources/DY.BMP,3,0,3,0,1,,,,,,,,,,,,,,,,,,,,,,,,,
,,,,,,,,2023-08-16_09h31.19.072,HF_wild_card,2022.2.4,Win32,59.86590038,574c1f935bef980010b0a080,64d2fd46c836a06233681665,64dc7f0710ede78d87d3ce03,,,,,,,,,,,,,,,,,,,,,,,,,,,,,,,,30,Door2,resources/DR.BMP,4,0,4,0,1,,,,,,,,,,,,,,,,,,,,,,,,,
,,,,,,,,2023-08-16_09h31.19.072,HF_wild_card,2022.2.4,Win32,59.86590038,574c1f935bef980010b0a080,64d2fd46c836a06233681665,64dc7f0710ede78d87d3ce03,,,,,,,,,,,,,,,,,,,,,,,,,,,,,,,,70,Door3,resources/DB.BMP,5,0,5,0,1,,,,,,,,,,,,,,,,,,,,,,,,,
,,,,,,,,2023-08-16_09h31.19.072,HF_wild_card,2022.2.4,Win32,59.86590038,574c1f935bef980010b0a080,64d2fd46c836a06233681665,64dc7f0710ede78d87d3ce03,,,,,,,,,,,,,,,,,,,,,,,,,,,,,,,,,,,,,,,,,,,,,,,,,,,,,,,,,,,,,,,,
,,,,,,,,2023-08-16_09h31.19.072,HF_wild_card,2022.2.4,Win32,59.86590038,574c1f935bef980010b0a080,64d2fd46c836a06233681665,64dc7f0710ede78d87d3ce03,,,,,,,,,,,,,,,,,,,,,,,,,,,,,,,,,,,,,,,,0,0,0,0,1,,,,,,,,,,,,,,,,,,,,
,,,,,,,,2023-08-16_09h31.19.072,HF_wild_card,2022.2.4,Win32,59.86590038,574c1f935bef980010b0a080,64d2fd46c836a06233681665,64dc7f0710ede78d87d3ce03,,,,,,,,,,,,,,,,,,,,,,,,,,,,,,,,,,,,,,,,1,0,1,0,1,,,,,,,,,,,,,,,,,,,,
