Condition,Low fixed image (Door1),Low risky image (Door2),High fixed image (Door3),High risky image (Door4),NonExtreme Wild Card 1,NonExtreme Wild Card 2,,date,expName,psychopyVersion,OS,frameRate,PROLIFIC_PID,STUDY_ID,SESSION_ID,mouse_2.x,mouse_2.y,mouse_2.leftButton,mouse_2.midButton,mouse_2.rightButton,mouse_2.clicked_name,Trial Type,Left Option Image,Right Option Image,Chosen Door,mouse.x,mouse.y,mouse.leftButton,mouse.midButton,mouse.rightButton,mouse.time,mouse.clicked_name,Feedback,Cumulative Reward,Block,trial.thisRepN,trial.thisTrialN,trial.thisN,trial.thisIndex,trial.ran,blocks.thisRepN,blocks.thisTrialN,blocks.thisN,blocks.thisIndex,blocks.ran,Money conversion,First Outcome Reported,Shown Door (First Outcome),Displayed Image (First Outcome),outcomes.thisRepN,outcomes.thisTrialN,outcomes.thisN,outcomes.thisIndex,outcomes.ran,judgments.thisRepN,judgments.thisTrialN,judgments.thisN,judgments.thisIndex,judgments.ran,freqMouse.x,freqMouse.y,freqMouse.leftButton,freqMouse.midButton,freqMouse.rightButton,freqMouse.clicked_name,FQJ for first outcome,FQJ for second outcome,Shown Door,Displayed Image,trials.thisRepN,trials.thisTrialN,trials.thisN,trials.thisIndex,trials.ran,judgBlock.thisRepN,judgBlock.thisTrialN,judgBlock.thisN,judgBlock.thisIndex,judgBlock.ran
2,resources/DG.BMP,resources/DP.BMP,resources/DY.BMP,resources/DR.BMP,resources/DBN.BMP,resources/DB.BMP,,2023-08-16_08h35.57.208,HF_wild_card,2022.2.4,Win32,59.61251863,599eedebec626e0001d53f19,64d2fd46c836a06233681665,64dc7c4c63a4fd7ffd42d9ff,,,,,,,,,,,,,,,,,,,,,,,,,,,,,,,,,,,,,,,,,,,,,,,,,,,,,,,,,,,,,,,,
,,,,,,,,2023-08-16_08h35.57.208,HF_wild_card,2022.2.4,Win32,59.61251863,599eedebec626e0001d53f19,64d2fd46c836a06233681665,64dc7c4c63a4fd7ffd42d9ff,-0.012962935,-0.411111111,1,0,0,agree,,,,,,,,,,,,,,,,,,,,,,,,,,,,,,,,,,,,,,,,,,,,,,,,,,,,,,,,,,
,,,,,,,,2023-08-16_08h35.57.208,HF_wild_card,2022.2.4,Win32,59.61251863,599eedebec626e0001d53f19,64d2fd46c836a06233681665,64dc7c4c63a4fd7ffd42d9ff,,,,,,,,,,,,,,,,,,,,,,,,,,,,,,,,,,,,,,,,,,,,,,,,,,,,,,,,,,,,,,,,
,,,,,,,,2023-08-16_08h35.57.208,HF_wild_card,2022.2.4,Win32,59.61251863,599eedebec626e0001d53f19,64d2fd46c836a06233681665,64dc7c4c63a4fd7ffd42d9ff,,,,,,,decisionTrl,resources/DG.BMP,resources/DP.BMP,Door2,0.345370399,-0.083333333,1,0,0,2.8971,optionRight,20,20,1,0,0,0,0,1,,,,,,,,,,,,,,,,,,,,,,,,,,,,,,,,,,,,,,,
,,,,,,,,2023-08-16_08h35.57.208,HF_wild_card,2022.2.4,Win32,59.61251863,599eedebec626e0001d53f19,64d2fd46c836a06233681665,64dc7c4c63a4fd7ffd42d9ff,,,,,,,sngl,resources/Empty.png,resources/DB.BMP,WildCard_NonEx,0.311111111,-0.00648151,1,0,0,3.1695,optionRight,55,75,1,1,0,1,0,1,,,,,,,,,,,,,,,,,,,,,,,,,,,,,,,,,,,,,,,
,,,,,,,,2023-08-16_08h35.57.208,HF_wild_card,2022.2.4,Win32,59.61251863,599eedebec626e0001d53f19,64d2fd46c836a06233681665,64dc7c4c63a4fd7ffd42d9ff,,,,,,,ctch,resources/DP.BMP,resources/DY.BMP,Door2,-0.399074046,-0.059259288,1,0,0,2.376,optionLeft,40,115,1,2,0,2,0,1,,,,,,,,,,,,,,,,,,,,,,,,,,,,,,,,,,,,,,,
,,,,,,,,2023-08-16_08h35.57.208,HF_wild_card,2022.2.4,Win32,59.61251863,599eedebec626e0001d53f19,64d2fd46c836a06233681665,64dc7c4c63a4fd7ffd42d9ff,,,,,,,decisionTrl,resources/DB.BMP,resources/DY.BMP,WildCard_NonEx,-0.339814801,0.010185157,1,0,0,2.3569,optionLeft,45,160,1,3,0,3,0,1,,,,,,,,,,,,,,,,,,,,,,,,,,,,,,,,,,,,,,,
,,,,,,,,2023-08-16_08h35.57.208,HF_wild_card,2022.2.4,Win32,59.61251863,599eedebec626e0001d53f19,64d2fd46c836a06233681665,64dc7c4c63a4fd7ffd42d9ff,,,,,,,decisionTrl,resources/DB.BMP,resources/DG.BMP,Door1,0.375925954,0.005555556,1,0,0,1.2588,optionRight,30,190,1,4,0,4,0,1,,,,,,,,,,,,,,,,,,,,,,,,,,,,,,,,,,,,,,,
,,,,,,,,2023-08-16_08h35.57.208,HF_wild_card,2022.2.4,Win32,59.61251863,599eedebec626e0001d53f19,64d2fd46c836a06233681665,64dc7c4c63a4fd7ffd42d9ff,,,,,,,decisionTrl,resources/DR.BMP,resources/DY.BMP,Door4,-0.319444444,-0.039814843,1,0,0,1.507,optionLeft,60,250,1,5,0,5,0,1,,,,,,,,,,,,,,,,,,,,,,,,,,,,,,,,,,,,,,,
,,,,,,,,2023-08-16_08h35.57.208,HF_wild_card,2022.2.4,Win32,59.61251863,599eedebec626e0001d53f19,64d2fd46c836a06233681665,64dc7c4c63a4fd7ffd42d9ff,,,,,,,decisionTrl,resources/DP.BMP,resources/DG.BMP,Door2,-0.382407379,-0.076851866,1,0,0,1.4424,optionLeft,40,290,1,6,0,6,0,1,,,,,,,,,,,,,,,,,,,,,,,,,,,,,,,,,,,,,,,
,,,,,,,,2023-08-16_08h35.57.208,HF_wild_card,2022.2.4,Win32,59.61251863,599eedebec626e0001d53f19,64d2fd46c836a06233681665,64dc7c4c63a4fd7ffd42d9ff,,,,,,,sngl,resources/Empty.png,resources/DY.BMP,Door3,0.424074131,-0.015740755,1,0,0,1.4533,optionRight,70,360,1,7,0,7,0,1,,,,,,,,,,,,,,,,,,,,,,,,,,,,,,,,,,,,,,,
,,,,,,,,2023-08-16_08h35.57.208,HF_wild_card,2022.2.4,Win32,59.61251863,599eedebec626e0001d53f19,64d2fd46c836a06233681665,64dc7c4c63a4fd7ffd42d9ff,,,,,,,decisionTrl,resources/DB.BMP,resources/DR.BMP,Door4,0.374074131,-0.047222222,1,0,0,1.5244,optionRight,80,440,1,8,0,8,0,1,,,,,,,,,,,,,,,,,,,,,,,,,,,,,,,,,,,,,,,
,,,,,,,,2023-08-16_08h35.57.208,HF_wild_card,2022.2.4,Win32,59.61251863,599eedebec626e0001d53f19,64d2fd46c836a06233681665,64dc7c4c63a4fd7ffd42d9ff,,,,,,,decisionTrl,resources/DP.BMP,resources/DG.BMP,Door1,0.318518575,-0.047222222,1,0,0,1.4074,optionRight,30,470,1,9,0,9,0,1,,,,,,,,,,,,,,,,,,,,,,,,,,,,,,,,,,,,,,,
,,,,,,,,2023-08-16_08h35.57.208,HF_wild_card,2022.2.4,Win32,59.61251863,599eedebec626e0001d53f19,64d2fd46c836a06233681665,64dc7c4c63a4fd7ffd42d9ff,,,,,,,decisionTrl,resources/DY.BMP,resources/DR.BMP,Door4,0.362963019,-0.08148151,1,0,0,1.2921,optionRight,80,550,1,10,0,10,0,1,,,,,,,,,,,,,,,,,,,,,,,,,,,,,,,,,,,,,,,
,,,,,,,,2023-08-16_08h35.57.208,HF_wild_card,2022.2.4,Win32,59.61251863,599eedebec626e0001d53f19,64d2fd46c836a06233681665,64dc7c4c63a4fd7ffd42d9ff,,,,,,,decisionTrl,resources/DR.BMP,resources/DY.BMP,Door3,0.413888889,-0.092592621,1,0,0,1.3084,optionRight,70,620,1,11,0,11,0,1,,,,,,,,,,,,,,,,,,,,,,,,,,,,,,,,,,,,,,,
,,,,,,,,2023-08-16_08h35.57.208,HF_wild_card,2022.2.4,Win32,59.61251863,599eedebec626e0001d53f19,64d2fd46c836a06233681665,64dc7c4c63a4fd7ffd42d9ff,,,,,,,decisionTrl,resources/DY.BMP,resources/DB.BMP,Door3,-0.337037023,-0.090740755,1,0,0,1.4239,optionLeft,70,690,1,12,0,12,0,1,,,,,,,,,,,,,,,,,,,,,,,,,,,,,,,,,,,,,,,
,,,,,,,,2023-08-16_08h35.57.208,HF_wild_card,2022.2.4,Win32,59.61251863,599eedebec626e0001d53f19,64d2fd46c836a06233681665,64dc7c4c63a4fd7ffd42d9ff,,,,,,,ctch,resources/DG.BMP,resources/DR.BMP,Door4,0.385185242,0.021296268,1,0,0,0.9911,optionRight,80,770,1,13,0,13,0,1,,,,,,,,,,,,,,,,,,,,,,,,,,,,,,,,,,,,,,,
,,,,,,,,2023-08-16_08h35.57.208,HF_wild_card,2022.2.4,Win32,59.61251863,599eedebec626e0001d53f19,64d2fd46c836a06233681665,64dc7c4c63a4fd7ffd42d9ff,,,,,,,sngl,resources/DP.BMP,resources/Empty.png,Door2,-0.298148134,-0.029629644,1,0,0,1.2087,optionLeft,40,810,1,14,0,14,0,1,,,,,,,,,,,,,,,,,,,,,,,,,,,,,,,,,,,,,,,
,,,,,,,,2023-08-16_08h35.57.208,HF_wild_card,2022.2.4,Win32,59.61251863,599eedebec626e0001d53f19,64d2fd46c836a06233681665,64dc7c4c63a4fd7ffd42d9ff,,,,,,,sngl,resources/Empty.png,resources/DP.BMP,Door2,0.318518575,0.004629601,1,0,0,0.9929,optionRight,20,830,1,15,0,15,0,1,,,,,,,,,,,,,,,,,,,,,,,,,,,,,,,,,,,,,,,
,,,,,,,,2023-08-16_08h35.57.208,HF_wild_card,2022.2.4,Win32,59.61251863,599eedebec626e0001d53f19,64d2fd46c836a06233681665,64dc7c4c63a4fd7ffd42d9ff,,,,,,,decisionTrl,resources/DG.BMP,resources/DP.BMP,Door1,-0.366666667,-0.038888889,1,0,0,2.008,optionLeft,30,860,1,16,0,16,0,1,,,,,,,,,,,,,,,,,,,,,,,,,,,,,,,,,,,,,,,
,,,,,,,,2023-08-16_08h35.57.208,HF_wild_card,2022.2.4,Win32,59.61251863,599eedebec626e0001d53f19,64d2fd46c836a06233681665,64dc7c4c63a4fd7ffd42d9ff,,,,,,,decisionTrl,resources/DY.BMP,resources/DR.BMP,Door4,0.286111111,0.012962935,1,0,0,2.2429,optionRight,80,940,1,17,0,17,0,1,,,,,,,,,,,,,,,,,,,,,,,,,,,,,,,,,,,,,,,
,,,,,,,,2023-08-16_08h35.57.208,HF_wild_card,2022.2.4,Win32,59.61251863,599eedebec626e0001d53f19,64d2fd46c836a06233681665,64dc7c4c63a4fd7ffd42d9ff,,,,,,,decisionTrl,resources/DY.BMP,resources/DR.BMP,Door4,0.292592621,-0.012962977,1,0,0,1.1208,optionRight,60,1000,1,18,0,18,0,1,,,,,,,,,,,,,,,,,,,,,,,,,,,,,,,,,,,,,,,
,,,,,,,,2023-08-16_08h35.57.208,HF_wild_card,2022.2.4,Win32,59.61251863,599eedebec626e0001d53f19,64d2fd46c836a06233681665,64dc7c4c63a4fd7ffd42d9ff,,,,,,,sngl,resources/Empty.png,resources/DG.BMP,Door1,0.300925954,0.001851824,1,0,0,1.1263,optionRight,30,1030,1,19,0,19,0,1,,,,,,,,,,,,,,,,,,,,,,,,,,,,,,,,,,,,,,,
,,,,,,,,2023-08-16_08h35.57.208,HF_wild_card,2022.2.4,Win32,59.61251863,599eedebec626e0001d53f19,64d2fd46c836a06233681665,64dc7c4c63a4fd7ffd42d9ff,,,,,,,decisionTrl,resources/DB.BMP,resources/DP.BMP,WildCard_NonEx,-0.297222222,-0.078703732,1,0,0,1.6245,optionLeft,55,1085,1,20,0,20,0,1,,,,,,,,,,,,,,,,,,,,,,,,,,,,,,,,,,,,,,,
,,,,,,,,2023-08-16_08h35.57.208,HF_wild_card,2022.2.4,Win32,59.61251863,599eedebec626e0001d53f19,64d2fd46c836a06233681665,64dc7c4c63a4fd7ffd42d9ff,,,,,,,decisionTrl,resources/DR.BMP,resources/DY.BMP,Door4,-0.329629601,-0.062037065,1,0,0,1.2745,optionLeft,80,1165,1,21,0,21,0,1,,,,,,,,,,,,,,,,,,,,,,,,,,,,,,,,,,,,,,,
,,,,,,,,2023-08-16_08h35.57.208,HF_wild_card,2022.2.4,Win32,59.61251863,599eedebec626e0001d53f19,64d2fd46c836a06233681665,64dc7c4c63a4fd7ffd42d9ff,,,,,,,decisionTrl,resources/DP.BMP,resources/DG.BMP,Door2,-0.311111111,-0.080555556,1,0,0,1.4412,optionLeft,40,1205,1,22,0,22,0,1,,,,,,,,,,,,,,,,,,,,,,,,,,,,,,,,,,,,,,,
,,,,,,,,2023-08-16_08h35.57.208,HF_wild_card,2022.2.4,Win32,59.61251863,599eedebec626e0001d53f19,64d2fd46c836a06233681665,64dc7c4c63a4fd7ffd42d9ff,,,,,,,decisionTrl,resources/DG.BMP,resources/DP.BMP,Door1,-0.339814801,-0.090740755,1,0,0,2.9724,optionLeft,30,1235,1,23,0,23,0,1,,,,,,,,,,,,,,,,,,,,,,,,,,,,,,,,,,,,,,,
,,,,,,,,2023-08-16_08h35.57.208,HF_wild_card,2022.2.4,Win32,59.61251863,599eedebec626e0001d53f19,64d2fd46c836a06233681665,64dc7c4c63a4fd7ffd42d9ff,,,,,,,ctch,resources/DR.BMP,resources/DG.BMP,Door4,-0.336111111,-0.055555556,1,0,0,1.2084,optionLeft,80,1315,1,24,0,24,0,1,,,,,,,,,,,,,,,,,,,,,,,,,,,,,,,,,,,,,,,
,,,,,,,,2023-08-16_08h35.57.208,HF_wild_card,2022.2.4,Win32,59.61251863,599eedebec626e0001d53f19,64d2fd46c836a06233681665,64dc7c4c63a4fd7ffd42d9ff,,,,,,,ctch,resources/DP.BMP,resources/DY.BMP,Door3,0.320370399,-0.028703732,1,0,0,1.6094,optionRight,70,1385,1,25,0,25,0,1,,,,,,,,,,,,,,,,,,,,,,,,,,,,,,,,,,,,,,,
,,,,,,,,2023-08-16_08h35.57.208,HF_wild_card,2022.2.4,Win32,59.61251863,599eedebec626e0001d53f19,64d2fd46c836a06233681665,64dc7c4c63a4fd7ffd42d9ff,,,,,,,decisionTrl,resources/DP.BMP,resources/DB.BMP,WildCard_NonEx,0.409259288,-0.030555556,1,0,0,1.5692,optionRight,55,1440,1,26,0,26,0,1,,,,,,,,,,,,,,,,,,,,,,,,,,,,,,,,,,,,,,,
,,,,,,,,2023-08-16_08h35.57.208,HF_wild_card,2022.2.4,Win32,59.61251863,599eedebec626e0001d53f19,64d2fd46c836a06233681665,64dc7c4c63a4fd7ffd42d9ff,,,,,,,sngl,resources/DB.BMP,resources/Empty.png,WildCard_NonEx,-0.273148134,-0.008333333,1,0,0,1.0912,optionLeft,45,1485,1,27,0,27,0,1,,,,,,,,,,,,,,,,,,,,,,,,,,,,,,,,,,,,,,,
,,,,,,,,2023-08-16_08h35.57.208,HF_wild_card,2022.2.4,Win32,59.61251863,599eedebec626e0001d53f19,64d2fd46c836a06233681665,64dc7c4c63a4fd7ffd42d9ff,,,,,,,decisionTrl,resources/DG.BMP,resources/DP.BMP,Door2,0.301851908,-0.001851866,1,0,0,1.7082,optionRight,40,1525,1,28,0,28,0,1,,,,,,,,,,,,,,,,,,,,,,,,,,,,,,,,,,,,,,,
,,,,,,,,2023-08-16_08h35.57.208,HF_wild_card,2022.2.4,Win32,59.61251863,599eedebec626e0001d53f19,64d2fd46c836a06233681665,64dc7c4c63a4fd7ffd42d9ff,,,,,,,sngl,resources/DY.BMP,resources/Empty.png,Door3,-0.381481467,0,1,0,0,1.0427,optionLeft,70,1595,1,29,0,29,0,1,,,,,,,,,,,,,,,,,,,,,,,,,,,,,,,,,,,,,,,
,,,,,,,,2023-08-16_08h35.57.208,HF_wild_card,2022.2.4,Win32,59.61251863,599eedebec626e0001d53f19,64d2fd46c836a06233681665,64dc7c4c63a4fd7ffd42d9ff,,,,,,,sngl,resources/Empty.png,resources/DR.BMP,Door4,0.362037065,0.011111111,1,0,0,0.8593,optionRight,60,1655,1,30,0,30,0,1,,,,,,,,,,,,,,,,,,,,,,,,,,,,,,,,,,,,,,,
,,,,,,,,2023-08-16_08h35.57.208,HF_wild_card,2022.2.4,Win32,59.61251863,599eedebec626e0001d53f19,64d2fd46c836a06233681665,64dc7c4c63a4fd7ffd42d9ff,,,,,,,sngl,resources/DR.BMP,resources/Empty.png,Door4,-0.335185157,0.019444444,1,0,0,1.0735,optionLeft,80,1735,1,31,0,31,0,1,,,,,,,,,,,,,,,,,,,,,,,,,,,,,,,,,,,,,,,
,,,,,,,,2023-08-16_08h35.57.208,HF_wild_card,2022.2.4,Win32,59.61251863,599eedebec626e0001d53f19,64d2fd46c836a06233681665,64dc7c4c63a4fd7ffd42d9ff,,,,,,,decisionTrl,resources/DY.BMP,resources/DR.BMP,Door4,0.287037065,-0.000925954,1,0,0,1.0768,optionRight,80,1815,1,32,0,32,0,1,,,,,,,,,,,,,,,,,,,,,,,,,,,,,,,,,,,,,,,
,,,,,,,,2023-08-16_08h35.57.208,HF_wild_card,2022.2.4,Win32,59.61251863,599eedebec626e0001d53f19,64d2fd46c836a06233681665,64dc7c4c63a4fd7ffd42d9ff,,,,,,,sngl,resources/DB.BMP,resources/Empty.png,WildCard_NonEx,-0.345370356,0.000925912,1,0,0,0.9588,optionLeft,55,1870,1,33,0,33,0,1,,,,,,,,,,,,,,,,,,,,,,,,,,,,,,,,,,,,,,,
,,,,,,,,2023-08-16_08h35.57.208,HF_wild_card,2022.2.4,Win32,59.61251863,599eedebec626e0001d53f19,64d2fd46c836a06233681665,64dc7c4c63a4fd7ffd42d9ff,,,,,,,ctch,resources/DY.BMP,resources/DP.BMP,Door3,-0.304629601,-0.014814843,1,0,0,1.2273,optionLeft,70,1940,1,34,0,34,0,1,,,,,,,,,,,,,,,,,,,,,,,,,,,,,,,,,,,,,,,
,,,,,,,,2023-08-16_08h35.57.208,HF_wild_card,2022.2.4,Win32,59.61251863,599eedebec626e0001d53f19,64d2fd46c836a06233681665,64dc7c4c63a4fd7ffd42d9ff,,,,,,,ctch,resources/DY.BMP,resources/DP.BMP,Door3,-0.387037023,0.021296268,1,0,0,1.0099,optionLeft,70,2010,1,35,0,35,0,1,,,,,,,,,,,,,,,,,,,,,,,,,,,,,,,,,,,,,,,
,,,,,,,,2023-08-16_08h35.57.208,HF_wild_card,2022.2.4,Win32,59.61251863,599eedebec626e0001d53f19,64d2fd46c836a06233681665,64dc7c4c63a4fd7ffd42d9ff,,,,,,,decisionTrl,resources/DG.BMP,resources/DB.BMP,WildCard_NonEx,0.297222222,-0.014814843,1,0,0,2.9319,optionRight,55,2065,1,36,0,36,0,1,,,,,,,,,,,,,,,,,,,,,,,,,,,,,,,,,,,,,,,
,,,,,,,,2023-08-16_08h35.57.208,HF_wild_card,2022.2.4,Win32,59.61251863,599eedebec626e0001d53f19,64d2fd46c836a06233681665,64dc7c4c63a4fd7ffd42d9ff,,,,,,,ctch,resources/DR.BMP,resources/DG.BMP,Door4,-0.375,0.020370356,1,0,0,1.1435,optionLeft,60,2125,1,37,0,37,0,1,,,,,,,,,,,,,,,,,,,,,,,,,,,,,,,,,,,,,,,
,,,,,,,,2023-08-16_08h35.57.208,HF_wild_card,2022.2.4,Win32,59.61251863,599eedebec626e0001d53f19,64d2fd46c836a06233681665,64dc7c4c63a4fd7ffd42d9ff,,,,,,,decisionTrl,resources/DR.BMP,resources/DB.BMP,Door4,-0.302777778,-0.015740755,1,0,0,1.2599,optionLeft,60,2185,1,38,0,38,0,1,,,,,,,,,,,,,,,,,,,,,,,,,,,,,,,,,,,,,,,
,,,,,,,,2023-08-16_08h35.57.208,HF_wild_card,2022.2.4,Win32,59.61251863,599eedebec626e0001d53f19,64d2fd46c836a06233681665,64dc7c4c63a4fd7ffd42d9ff,,,,,,,decisionTrl,resources/DR.BMP,resources/DY.BMP,Door3,0.335185242,-0.045370399,1,0,0,1.4077,optionRight,70,2255,1,39,0,39,0,1,,,,,,,,,,,,,,,,,,,,,,,,,,,,,,,,,,,,,,,
,,,,,,,,2023-08-16_08h35.57.208,HF_wild_card,2022.2.4,Win32,59.61251863,599eedebec626e0001d53f19,64d2fd46c836a06233681665,64dc7c4c63a4fd7ffd42d9ff,,,,,,,sngl,resources/Empty.png,resources/DB.BMP,WildCard_NonEx,0.437963019,-0.05,1,0,0,0.9432,optionRight,45,2300,1,40,0,40,0,1,,,,,,,,,,,,,,,,,,,,,,,,,,,,,,,,,,,,,,,
,,,,,,,,2023-08-16_08h35.57.208,HF_wild_card,2022.2.4,Win32,59.61251863,599eedebec626e0001d53f19,64d2fd46c836a06233681665,64dc7c4c63a4fd7ffd42d9ff,,,,,,,ctch,resources/DG.BMP,resources/DR.BMP,Door4,0.403703732,-0.040740755,1,0,0,1.4011,optionRight,60,2360,1,41,0,41,0,1,,,,,,,,,,,,,,,,,,,,,,,,,,,,,,,,,,,,,,,
,,,,,,,,2023-08-16_08h35.57.208,HF_wild_card,2022.2.4,Win32,59.61251863,599eedebec626e0001d53f19,64d2fd46c836a06233681665,64dc7c4c63a4fd7ffd42d9ff,,,,,,,decisionTrl,resources/DP.BMP,resources/DG.BMP,Door2,-0.310185157,-0.023148176,1,0,0,2.7926,optionLeft,40,2400,1,42,0,42,0,1,,,,,,,,,,,,,,,,,,,,,,,,,,,,,,,,,,,,,,,
,,,,,,,,2023-08-16_08h35.57.208,HF_wild_card,2022.2.4,Win32,59.61251863,599eedebec626e0001d53f19,64d2fd46c836a06233681665,64dc7c4c63a4fd7ffd42d9ff,,,,,,,sngl,resources/DG.BMP,resources/Empty.png,Door1,-0.269444444,0.009259245,1,0,0,0.9926,optionLeft,30,2430,1,43,0,43,0,1,,,,,,,,,,,,,,,,,,,,,,,,,,,,,,,,,,,,,,,
,,,,,,,,2023-08-16_08h35.57.208,HF_wild_card,2022.2.4,Win32,59.61251863,599eedebec626e0001d53f19,64d2fd46c836a06233681665,64dc7c4c63a4fd7ffd42d9ff,,,,,,,,,,,,,,,,,,,,,,,,,,0,0,0,0,1,,,,,,,,,,,,,,,,,,,,,,,,,,,,,,,,,,
,,,,,,,,2023-08-16_08h35.57.208,HF_wild_card,2022.2.4,Win32,59.61251863,599eedebec626e0001d53f19,64d2fd46c836a06233681665,64dc7c4c63a4fd7ffd42d9ff,,,,,,,ctch,resources/DG.BMP,resources/DR.BMP,Door4,0.338888889,-0.084259288,1,0,0,1.3914,optionRight,60,2490,2,0,0,0,0,1,,,,,,,,,,,,,,,,,,,,,,,,,,,,,,,,,,,,,,,
,,,,,,,,2023-08-16_08h35.57.208,HF_wild_card,2022.2.4,Win32,59.61251863,599eedebec626e0001d53f19,64d2fd46c836a06233681665,64dc7c4c63a4fd7ffd42d9ff,,,,,,,decisionTrl,resources/DY.BMP,resources/DR.BMP,Door4,0.345370399,-0.022222222,1,0,0,2.6918,optionRight,80,2570,2,1,0,1,0,1,,,,,,,,,,,,,,,,,,,,,,,,,,,,,,,,,,,,,,,
,,,,,,,,2023-08-16_08h35.57.208,HF_wild_card,2022.2.4,Win32,59.61251863,599eedebec626e0001d53f19,64d2fd46c836a06233681665,64dc7c4c63a4fd7ffd42d9ff,,,,,,,ctch,resources/DR.BMP,resources/DG.BMP,Door4,-0.299074046,-0.068518533,1,0,0,1.2097,optionLeft,80,2650,2,2,0,2,0,1,,,,,,,,,,,,,,,,,,,,,,,,,,,,,,,,,,,,,,,
,,,,,,,,2023-08-16_08h35.57.208,HF_wild_card,2022.2.4,Win32,59.61251863,599eedebec626e0001d53f19,64d2fd46c836a06233681665,64dc7c4c63a4fd7ffd42d9ff,,,,,,,ctch,resources/DG.BMP,resources/DR.BMP,Door4,0.325,-0.018518533,1,0,0,0.9423,optionRight,80,2730,2,3,0,3,0,1,,,,,,,,,,,,,,,,,,,,,,,,,,,,,,,,,,,,,,,
,,,,,,,,2023-08-16_08h35.57.208,HF_wild_card,2022.2.4,Win32,59.61251863,599eedebec626e0001d53f19,64d2fd46c836a06233681665,64dc7c4c63a4fd7ffd42d9ff,,,,,,,decisionTrl,resources/DY.BMP,resources/DR.BMP,Door4,0.386111111,-0.017592621,1,0,0,1.0108,optionRight,60,2790,2,4,0,4,0,1,,,,,,,,,,,,,,,,,,,,,,,,,,,,,,,,,,,,,,,
,,,,,,,,2023-08-16_08h35.57.208,HF_wild_card,2022.2.4,Win32,59.61251863,599eedebec626e0001d53f19,64d2fd46c836a06233681665,64dc7c4c63a4fd7ffd42d9ff,,,,,,,decisionTrl,resources/DG.BMP,resources/DP.BMP,Door2,0.486111111,-0.078703732,1,0,0,2.2605,optionRight,20,2810,2,5,0,5,0,1,,,,,,,,,,,,,,,,,,,,,,,,,,,,,,,,,,,,,,,
,,,,,,,,2023-08-16_08h35.57.208,HF_wild_card,2022.2.4,Win32,59.61251863,599eedebec626e0001d53f19,64d2fd46c836a06233681665,64dc7c4c63a4fd7ffd42d9ff,,,,,,,ctch,resources/DR.BMP,resources/DG.BMP,Door1,0.384259288,0.012037023,1,0,0,1.1779,optionRight,30,2840,2,6,0,6,0,1,,,,,,,,,,,,,,,,,,,,,,,,,,,,,,,,,,,,,,,
,,,,,,,,2023-08-16_08h35.57.208,HF_wild_card,2022.2.4,Win32,59.61251863,599eedebec626e0001d53f19,64d2fd46c836a06233681665,64dc7c4c63a4fd7ffd42d9ff,,,,,,,decisionTrl,resources/DR.BMP,resources/DB.BMP,WildCard_NonEx,0.371296353,-0.032407422,1,0,0,1.1617,optionRight,55,2895,2,7,0,7,0,1,,,,,,,,,,,,,,,,,,,,,,,,,,,,,,,,,,,,,,,
,,,,,,,,2023-08-16_08h35.57.208,HF_wild_card,2022.2.4,Win32,59.61251863,599eedebec626e0001d53f19,64d2fd46c836a06233681665,64dc7c4c63a4fd7ffd42d9ff,,,,,,,decisionTrl,resources/DP.BMP,resources/DG.BMP,Door1,0.422222222,-0.050925954,1,0,0,1.5606,optionRight,30,2925,2,8,0,8,0,1,,,,,,,,,,,,,,,,,,,,,,,,,,,,,,,,,,,,,,,
,,,,,,,,2023-08-16_08h35.57.208,HF_wild_card,2022.2.4,Win32,59.61251863,599eedebec626e0001d53f19,64d2fd46c836a06233681665,64dc7c4c63a4fd7ffd42d9ff,,,,,,,decisionTrl,resources/DB.BMP,resources/DY.BMP,Door3,0.287963019,-0.002777778,1,0,0,1.19,optionRight,70,2995,2,9,0,9,0,1,,,,,,,,,,,,,,,,,,,,,,,,,,,,,,,,,,,,,,,
,,,,,,,,2023-08-16_08h35.57.208,HF_wild_card,2022.2.4,Win32,59.61251863,599eedebec626e0001d53f19,64d2fd46c836a06233681665,64dc7c4c63a4fd7ffd42d9ff,,,,,,,decisionTrl,resources/DY.BMP,resources/DB.BMP,Door3,-0.397222222,-0.020370399,1,0,0,1.2776,optionLeft,70,3065,2,10,0,10,0,1,,,,,,,,,,,,,,,,,,,,,,,,,,,,,,,,,,,,,,,
,,,,,,,,2023-08-16_08h35.57.208,HF_wild_card,2022.2.4,Win32,59.61251863,599eedebec626e0001d53f19,64d2fd46c836a06233681665,64dc7c4c63a4fd7ffd42d9ff,,,,,,,decisionTrl,resources/DP.BMP,resources/DG.BMP,Door1,0.312037065,0.00370369,1,0,0,1.9416,optionRight,30,3095,2,11,0,11,0,1,,,,,,,,,,,,,,,,,,,,,,,,,,,,,,,,,,,,,,,
,,,,,,,,2023-08-16_08h35.57.208,HF_wild_card,2022.2.4,Win32,59.61251863,599eedebec626e0001d53f19,64d2fd46c836a06233681665,64dc7c4c63a4fd7ffd42d9ff,,,,,,,ctch,resources/DY.BMP,resources/DP.BMP,Door3,-0.315740712,-0.044444444,1,0,0,1.075,optionLeft,70,3165,2,12,0,12,0,1,,,,,,,,,,,,,,,,,,,,,,,,,,,,,,,,,,,,,,,
,,,,,,,,2023-08-16_08h35.57.208,HF_wild_card,2022.2.4,Win32,59.61251863,599eedebec626e0001d53f19,64d2fd46c836a06233681665,64dc7c4c63a4fd7ffd42d9ff,,,,,,,decisionTrl,resources/DG.BMP,resources/DP.BMP,Door1,-0.288888889,0.009259245,1,0,0,1.7739,optionLeft,30,3195,2,13,0,13,0,1,,,,,,,,,,,,,,,,,,,,,,,,,,,,,,,,,,,,,,,
,,,,,,,,2023-08-16_08h35.57.208,HF_wild_card,2022.2.4,Win32,59.61251863,599eedebec626e0001d53f19,64d2fd46c836a06233681665,64dc7c4c63a4fd7ffd42d9ff,,,,,,,decisionTrl,resources/DB.BMP,resources/DR.BMP,Door4,0.284259288,-0.007407422,1,0,0,0.9758,optionRight,60,3255,2,14,0,14,0,1,,,,,,,,,,,,,,,,,,,,,,,,,,,,,,,,,,,,,,,
,,,,,,,,2023-08-16_08h35.57.208,HF_wild_card,2022.2.4,Win32,59.61251863,599eedebec626e0001d53f19,64d2fd46c836a06233681665,64dc7c4c63a4fd7ffd42d9ff,,,,,,,decisionTrl,resources/DP.BMP,resources/DB.BMP,WildCard_NonEx,0.343518575,-0.057407422,1,0,0,1.2599,optionRight,55,3310,2,15,0,15,0,1,,,,,,,,,,,,,,,,,,,,,,,,,,,,,,,,,,,,,,,
,,,,,,,,2023-08-16_08h35.57.208,HF_wild_card,2022.2.4,Win32,59.61251863,599eedebec626e0001d53f19,64d2fd46c836a06233681665,64dc7c4c63a4fd7ffd42d9ff,,,,,,,decisionTrl,resources/DG.BMP,resources/DB.BMP,WildCard_NonEx,0.309259288,-0.02129631,1,0,0,1.205,optionRight,55,3365,2,16,0,16,0,1,,,,,,,,,,,,,,,,,,,,,,,,,,,,,,,,,,,,,,,
,,,,,,,,2023-08-16_08h35.57.208,HF_wild_card,2022.2.4,Win32,59.61251863,599eedebec626e0001d53f19,64d2fd46c836a06233681665,64dc7c4c63a4fd7ffd42d9ff,,,,,,,sngl,resources/Empty.png,resources/DP.BMP,Door2,0.385185242,-0.022222222,1,0,0,0.9702,optionRight,40,3405,2,17,0,17,0,1,,,,,,,,,,,,,,,,,,,,,,,,,,,,,,,,,,,,,,,
,,,,,,,,2023-08-16_08h35.57.208,HF_wild_card,2022.2.4,Win32,59.61251863,599eedebec626e0001d53f19,64d2fd46c836a06233681665,64dc7c4c63a4fd7ffd42d9ff,,,,,,,sngl,resources/Empty.png,resources/DG.BMP,Door1,0.210185242,-0.032407422,1,0,0,1.0261,optionRight,30,3435,2,18,0,18,0,1,,,,,,,,,,,,,,,,,,,,,,,,,,,,,,,,,,,,,,,
,,,,,,,,2023-08-16_08h35.57.208,HF_wild_card,2022.2.4,Win32,59.61251863,599eedebec626e0001d53f19,64d2fd46c836a06233681665,64dc7c4c63a4fd7ffd42d9ff,,,,,,,decisionTrl,resources/DP.BMP,resources/DG.BMP,Door2,-0.351851824,-0.020370399,1,0,0,1.4895,optionLeft,20,3455,2,19,0,19,0,1,,,,,,,,,,,,,,,,,,,,,,,,,,,,,,,,,,,,,,,
,,,,,,,,2023-08-16_08h35.57.208,HF_wild_card,2022.2.4,Win32,59.61251863,599eedebec626e0001d53f19,64d2fd46c836a06233681665,64dc7c4c63a4fd7ffd42d9ff,,,,,,,decisionTrl,resources/DY.BMP,resources/DR.BMP,Door4,0.380555556,-0.112962977,1,0,0,1.1504,optionRight,80,3535,2,20,0,20,0,1,,,,,,,,,,,,,,,,,,,,,,,,,,,,,,,,,,,,,,,
,,,,,,,,2023-08-16_08h35.57.208,HF_wild_card,2022.2.4,Win32,59.61251863,599eedebec626e0001d53f19,64d2fd46c836a06233681665,64dc7c4c63a4fd7ffd42d9ff,,,,,,,ctch,resources/DY.BMP,resources/DP.BMP,Door3,-0.367592578,0.017592578,1,0,0,3.4231,optionLeft,70,3605,2,21,0,21,0,1,,,,,,,,,,,,,,,,,,,,,,,,,,,,,,,,,,,,,,,
,,,,,,,,2023-08-16_08h35.57.208,HF_wild_card,2022.2.4,Win32,59.61251863,599eedebec626e0001d53f19,64d2fd46c836a06233681665,64dc7c4c63a4fd7ffd42d9ff,,,,,,,sngl,resources/DY.BMP,resources/Empty.png,Door3,-0.3,-0.012037065,1,0,0,0.9359,optionLeft,70,3675,2,22,0,22,0,1,,,,,,,,,,,,,,,,,,,,,,,,,,,,,,,,,,,,,,,
,,,,,,,,2023-08-16_08h35.57.208,HF_wild_card,2022.2.4,Win32,59.61251863,599eedebec626e0001d53f19,64d2fd46c836a06233681665,64dc7c4c63a4fd7ffd42d9ff,,,,,,,decisionTrl,resources/DB.BMP,resources/DP.BMP,WildCard_NonEx,-0.359259245,0.032407379,1,0,0,1.3532,optionLeft,45,3720,2,23,0,23,0,1,,,,,,,,,,,,,,,,,,,,,,,,,,,,,,,,,,,,,,,
,,,,,,,,2023-08-16_08h35.57.208,HF_wild_card,2022.2.4,Win32,59.61251863,599eedebec626e0001d53f19,64d2fd46c836a06233681665,64dc7c4c63a4fd7ffd42d9ff,,,,,,,decisionTrl,resources/DR.BMP,resources/DY.BMP,Door3,0.300925954,-0.068518533,1,0,0,1.942,optionRight,70,3790,2,24,0,24,0,1,,,,,,,,,,,,,,,,,,,,,,,,,,,,,,,,,,,,,,,
,,,,,,,,2023-08-16_08h35.57.208,HF_wild_card,2022.2.4,Win32,59.61251863,599eedebec626e0001d53f19,64d2fd46c836a06233681665,64dc7c4c63a4fd7ffd42d9ff,,,,,,,sngl,resources/DB.BMP,resources/Empty.png,WildCard_NonEx,-0.35370369,-0.000925954,1,0,0,0.9601,optionLeft,45,3835,2,25,0,25,0,1,,,,,,,,,,,,,,,,,,,,,,,,,,,,,,,,,,,,,,,
,,,,,,,,2023-08-16_08h35.57.208,HF_wild_card,2022.2.4,Win32,59.61251863,599eedebec626e0001d53f19,64d2fd46c836a06233681665,64dc7c4c63a4fd7ffd42d9ff,,,,,,,sngl,resources/DR.BMP,resources/Empty.png,Door4,-0.422222222,-0.030555556,1,0,0,0.9368,optionLeft,60,3895,2,26,0,26,0,1,,,,,,,,,,,,,,,,,,,,,,,,,,,,,,,,,,,,,,,
,,,,,,,,2023-08-16_08h35.57.208,HF_wild_card,2022.2.4,Win32,59.61251863,599eedebec626e0001d53f19,64d2fd46c836a06233681665,64dc7c4c63a4fd7ffd42d9ff,,,,,,,decisionTrl,resources/DR.BMP,resources/DY.BMP,Door3,0.418518575,-0.084259288,1,0,0,1.2432,optionRight,70,3965,2,27,0,27,0,1,,,,,,,,,,,,,,,,,,,,,,,,,,,,,,,,,,,,,,,
,,,,,,,,2023-08-16_08h35.57.208,HF_wild_card,2022.2.4,Win32,59.61251863,599eedebec626e0001d53f19,64d2fd46c836a06233681665,64dc7c4c63a4fd7ffd42d9ff,,,,,,,decisionTrl,resources/DR.BMP,resources/DY.BMP,Door4,-0.269444444,-0.015740755,1,0,0,2.0533,optionLeft,60,4025,2,28,0,28,0,1,,,,,,,,,,,,,,,,,,,,,,,,,,,,,,,,,,,,,,,
,,,,,,,,2023-08-16_08h35.57.208,HF_wild_card,2022.2.4,Win32,59.61251863,599eedebec626e0001d53f19,64d2fd46c836a06233681665,64dc7c4c63a4fd7ffd42d9ff,,,,,,,decisionTrl,resources/DP.BMP,resources/DG.BMP,Door1,0.352777778,-0.059259288,1,0,0,2.3241,optionRight,30,4055,2,29,0,29,0,1,,,,,,,,,,,,,,,,,,,,,,,,,,,,,,,,,,,,,,,
,,,,,,,,2023-08-16_08h35.57.208,HF_wild_card,2022.2.4,Win32,59.61251863,599eedebec626e0001d53f19,64d2fd46c836a06233681665,64dc7c4c63a4fd7ffd42d9ff,,,,,,,ctch,resources/DP.BMP,resources/DY.BMP,Door3,0.427777778,0.110185157,1,0,0,5.0365,optionRight,70,4125,2,30,0,30,0,1,,,,,,,,,,,,,,,,,,,,,,,,,,,,,,,,,,,,,,,
,,,,,,,,2023-08-16_08h35.57.208,HF_wild_card,2022.2.4,Win32,59.61251863,599eedebec626e0001d53f19,64d2fd46c836a06233681665,64dc7c4c63a4fd7ffd42d9ff,,,,,,,ctch,resources/DP.BMP,resources/DY.BMP,Door3,0.310185242,0.006481467,1,0,0,4.0397,optionRight,70,4195,2,31,0,31,0,1,,,,,,,,,,,,,,,,,,,,,,,,,,,,,,,,,,,,,,,
,,,,,,,,2023-08-16_08h35.57.208,HF_wild_card,2022.2.4,Win32,59.61251863,599eedebec626e0001d53f19,64d2fd46c836a06233681665,64dc7c4c63a4fd7ffd42d9ff,,,,,,,decisionTrl,resources/DG.BMP,resources/DP.BMP,Door1,-0.222222222,-0.029629644,1,0,0,2.0247,optionLeft,30,4225,2,32,0,32,0,1,,,,,,,,,,,,,,,,,,,,,,,,,,,,,,,,,,,,,,,
,,,,,,,,2023-08-16_08h35.57.208,HF_wild_card,2022.2.4,Win32,59.61251863,599eedebec626e0001d53f19,64d2fd46c836a06233681665,64dc7c4c63a4fd7ffd42d9ff,,,,,,,sngl,resources/DG.BMP,resources/Empty.png,Door1,-0.305555556,0.008333333,1,0,0,0.9432,optionLeft,30,4255,2,33,0,33,0,1,,,,,,,,,,,,,,,,,,,,,,,,,,,,,,,,,,,,,,,
,,,,,,,,2023-08-16_08h35.57.208,HF_wild_card,2022.2.4,Win32,59.61251863,599eedebec626e0001d53f19,64d2fd46c836a06233681665,64dc7c4c63a4fd7ffd42d9ff,,,,,,,sngl,resources/Empty.png,resources/DY.BMP,Door3,0.336111111,-0.072222222,1,0,0,0.959,optionRight,70,4325,2,34,0,34,0,1,,,,,,,,,,,,,,,,,,,,,,,,,,,,,,,,,,,,,,,
,,,,,,,,2023-08-16_08h35.57.208,HF_wild_card,2022.2.4,Win32,59.61251863,599eedebec626e0001d53f19,64d2fd46c836a06233681665,64dc7c4c63a4fd7ffd42d9ff,,,,,,,sngl,resources/Empty.png,resources/DR.BMP,Door4,0.250925954,-0.047222222,1,0,0,0.9338,optionRight,80,4405,2,35,0,35,0,1,,,,,,,,,,,,,,,,,,,,,,,,,,,,,,,,,,,,,,,
,,,,,,,,2023-08-16_08h35.57.208,HF_wild_card,2022.2.4,Win32,59.61251863,599eedebec626e0001d53f19,64d2fd46c836a06233681665,64dc7c4c63a4fd7ffd42d9ff,,,,,,,decisionTrl,resources/DR.BMP,resources/DY.BMP,Door3,0.327777778,-0.048148176,1,0,0,1.2765,optionRight,70,4475,2,36,0,36,0,1,,,,,,,,,,,,,,,,,,,,,,,,,,,,,,,,,,,,,,,
,,,,,,,,2023-08-16_08h35.57.208,HF_wild_card,2022.2.4,Win32,59.61251863,599eedebec626e0001d53f19,64d2fd46c836a06233681665,64dc7c4c63a4fd7ffd42d9ff,,,,,,,decisionTrl,resources/DG.BMP,resources/DP.BMP,Door1,-0.266666667,-0.001851866,1,0,0,1.4415,optionLeft,30,4505,2,37,0,37,0,1,,,,,,,,,,,,,,,,,,,,,,,,,,,,,,,,,,,,,,,
,,,,,,,,2023-08-16_08h35.57.208,HF_wild_card,2022.2.4,Win32,59.61251863,599eedebec626e0001d53f19,64d2fd46c836a06233681665,64dc7c4c63a4fd7ffd42d9ff,,,,,,,decisionTrl,resources/DB.BMP,resources/DG.BMP,WildCard_NonEx,-0.387037023,-0.060185199,1,0,0,9.3174,optionLeft,55,4560,2,38,0,38,0,1,,,,,,,,,,,,,,,,,,,,,,,,,,,,,,,,,,,,,,,
,,,,,,,,2023-08-16_08h35.57.208,HF_wild_card,2022.2.4,Win32,59.61251863,599eedebec626e0001d53f19,64d2fd46c836a06233681665,64dc7c4c63a4fd7ffd42d9ff,,,,,,,sngl,resources/DP.BMP,resources/Empty.png,Door2,-0.334259245,-0.014814843,1,0,0,0.8765,optionLeft,20,4580,2,39,0,39,0,1,,,,,,,,,,,,,,,,,,,,,,,,,,,,,,,,,,,,,,,
,,,,,,,,2023-08-16_08h35.57.208,HF_wild_card,2022.2.4,Win32,59.61251863,599eedebec626e0001d53f19,64d2fd46c836a06233681665,64dc7c4c63a4fd7ffd42d9ff,,,,,,,sngl,resources/Empty.png,resources/DB.BMP,WildCard_NonEx,0.404629686,0.026851824,1,0,0,0.8766,optionRight,45,4625,2,40,0,40,0,1,,,,,,,,,,,,,,,,,,,,,,,,,,,,,,,,,,,,,,,
,,,,,,,,2023-08-16_08h35.57.208,HF_wild_card,2022.2.4,Win32,59.61251863,599eedebec626e0001d53f19,64d2fd46c836a06233681665,64dc7c4c63a4fd7ffd42d9ff,,,,,,,sngl,resources/DB.BMP,resources/Empty.png,WildCard_NonEx,-0.375925912,0.006481467,1,0,0,0.7104,optionLeft,55,4680,2,41,0,41,0,1,,,,,,,,,,,,,,,,,,,,,,,,,,,,,,,,,,,,,,,
,,,,,,,,2023-08-16_08h35.57.208,HF_wild_card,2022.2.4,Win32,59.61251863,599eedebec626e0001d53f19,64d2fd46c836a06233681665,64dc7c4c63a4fd7ffd42d9ff,,,,,,,decisionTrl,resources/DY.BMP,resources/DR.BMP,Door3,-0.377777778,-0.019444444,1,0,0,1.1331,optionLeft,70,4750,2,42,0,42,0,1,,,,,,,,,,,,,,,,,,,,,,,,,,,,,,,,,,,,,,,
,,,,,,,,2023-08-16_08h35.57.208,HF_wild_card,2022.2.4,Win32,59.61251863,599eedebec626e0001d53f19,64d2fd46c836a06233681665,64dc7c4c63a4fd7ffd42d9ff,,,,,,,sngl,resources/Empty.png,resources/DB.BMP,WildCard_NonEx,0.282407464,-0.043518533,1,0,0,0.8537,optionRight,55,4805,2,43,0,43,0,1,,,,,,,,,,,,,,,,,,,,,,,,,,,,,,,,,,,,,,,
,,,,,,,,2023-08-16_08h35.57.208,HF_wild_card,2022.2.4,Win32,59.61251863,599eedebec626e0001d53f19,64d2fd46c836a06233681665,64dc7c4c63a4fd7ffd42d9ff,,,,,,,,,,,,,,,,,,,,,,,,,,1,0,1,0,1,,,,,,,,,,,,,,,,,,,,,,,,,,,,,,,,,,
,,,,,,,,2023-08-16_08h35.57.208,HF_wild_card,2022.2.4,Win32,59.61251863,599eedebec626e0001d53f19,64d2fd46c836a06233681665,64dc7c4c63a4fd7ffd42d9ff,,,,,,,decisionTrl,resources/DY.BMP,resources/DR.BMP,Door3,-0.320370356,-0.067592621,1,0,0,1.6847,optionLeft,70,4875,3,0,0,0,0,1,,,,,,,,,,,,,,,,,,,,,,,,,,,,,,,,,,,,,,,
,,,,,,,,2023-08-16_08h35.57.208,HF_wild_card,2022.2.4,Win32,59.61251863,599eedebec626e0001d53f19,64d2fd46c836a06233681665,64dc7c4c63a4fd7ffd42d9ff,,,,,,,decisionTrl,resources/DP.BMP,resources/DB.BMP,WildCard_NonEx,0.279629686,-0.012962977,1,0,0,0.9341,optionRight,45,4920,3,1,0,1,0,1,,,,,,,,,,,,,,,,,,,,,,,,,,,,,,,,,,,,,,,
,,,,,,,,2023-08-16_08h35.57.208,HF_wild_card,2022.2.4,Win32,59.61251863,599eedebec626e0001d53f19,64d2fd46c836a06233681665,64dc7c4c63a4fd7ffd42d9ff,,,,,,,decisionTrl,resources/DY.BMP,resources/DB.BMP,Door3,-0.26851849,0.012962935,1,0,0,1.0009,optionLeft,70,4990,3,2,0,2,0,1,,,,,,,,,,,,,,,,,,,,,,,,,,,,,,,,,,,,,,,
,,,,,,,,2023-08-16_08h35.57.208,HF_wild_card,2022.2.4,Win32,59.61251863,599eedebec626e0001d53f19,64d2fd46c836a06233681665,64dc7c4c63a4fd7ffd42d9ff,,,,,,,sngl,resources/DR.BMP,resources/Empty.png,Door4,-0.349074046,-0.001851866,1,0,0,0.8771,optionLeft,80,5070,3,3,0,3,0,1,,,,,,,,,,,,,,,,,,,,,,,,,,,,,,,,,,,,,,,
,,,,,,,,2023-08-16_08h35.57.208,HF_wild_card,2022.2.4,Win32,59.61251863,599eedebec626e0001d53f19,64d2fd46c836a06233681665,64dc7c4c63a4fd7ffd42d9ff,,,,,,,decisionTrl,resources/DG.BMP,resources/DP.BMP,Door1,-0.211111111,-0.037962977,1,0,0,1.1755,optionLeft,30,5100,3,4,0,4,0,1,,,,,,,,,,,,,,,,,,,,,,,,,,,,,,,,,,,,,,,
,,,,,,,,2023-08-16_08h35.57.208,HF_wild_card,2022.2.4,Win32,59.61251863,599eedebec626e0001d53f19,64d2fd46c836a06233681665,64dc7c4c63a4fd7ffd42d9ff,,,,,,,decisionTrl,resources/DP.BMP,resources/DG.BMP,Door1,0.288888889,-0.009259288,1,0,0,1.4596,optionRight,30,5130,3,5,0,5,0,1,,,,,,,,,,,,,,,,,,,,,,,,,,,,,,,,,,,,,,,
,,,,,,,,2023-08-16_08h35.57.208,HF_wild_card,2022.2.4,Win32,59.61251863,599eedebec626e0001d53f19,64d2fd46c836a06233681665,64dc7c4c63a4fd7ffd42d9ff,,,,,,,decisionTrl,resources/DY.BMP,resources/DR.BMP,Door4,0.376851908,-0.029629644,1,0,0,1.4256,optionRight,80,5210,3,6,0,6,0,1,,,,,,,,,,,,,,,,,,,,,,,,,,,,,,,,,,,,,,,
,,,,,,,,2023-08-16_08h35.57.208,HF_wild_card,2022.2.4,Win32,59.61251863,599eedebec626e0001d53f19,64d2fd46c836a06233681665,64dc7c4c63a4fd7ffd42d9ff,,,,,,,ctch,resources/DR.BMP,resources/DG.BMP,Door4,-0.419444444,0.009259245,1,0,0,0.9931,optionLeft,80,5290,3,7,0,7,0,1,,,,,,,,,,,,,,,,,,,,,,,,,,,,,,,,,,,,,,,
,,,,,,,,2023-08-16_08h35.57.208,HF_wild_card,2022.2.4,Win32,59.61251863,599eedebec626e0001d53f19,64d2fd46c836a06233681665,64dc7c4c63a4fd7ffd42d9ff,,,,,,,sngl,resources/Empty.png,resources/DB.BMP,WildCard_NonEx,0.25648151,-0.037962977,1,0,0,0.8594,optionRight,55,5345,3,8,0,8,0,1,,,,,,,,,,,,,,,,,,,,,,,,,,,,,,,,,,,,,,,
,,,,,,,,2023-08-16_08h35.57.208,HF_wild_card,2022.2.4,Win32,59.61251863,599eedebec626e0001d53f19,64d2fd46c836a06233681665,64dc7c4c63a4fd7ffd42d9ff,,,,,,,decisionTrl,resources/DR.BMP,resources/DB.BMP,Door4,-0.381481467,0.05370369,1,0,0,2.2085,optionLeft,60,5405,3,9,0,9,0,1,,,,,,,,,,,,,,,,,,,,,,,,,,,,,,,,,,,,,,,
,,,,,,,,2023-08-16_08h35.57.208,HF_wild_card,2022.2.4,Win32,59.61251863,599eedebec626e0001d53f19,64d2fd46c836a06233681665,64dc7c4c63a4fd7ffd42d9ff,,,,,,,decisionTrl,resources/DY.BMP,resources/DR.BMP,Door4,0.412037065,-0.04629631,1,0,0,1.1264,optionRight,60,5465,3,10,0,10,0,1,,,,,,,,,,,,,,,,,,,,,,,,,,,,,,,,,,,,,,,
,,,,,,,,2023-08-16_08h35.57.208,HF_wild_card,2022.2.4,Win32,59.61251863,599eedebec626e0001d53f19,64d2fd46c836a06233681665,64dc7c4c63a4fd7ffd42d9ff,,,,,,,decisionTrl,resources/DR.BMP,resources/DY.BMP,Door3,0.311111111,-0.020370399,1,0,0,0.9276,optionRight,70,5535,3,11,0,11,0,1,,,,,,,,,,,,,,,,,,,,,,,,,,,,,,,,,,,,,,,
,,,,,,,,2023-08-16_08h35.57.208,HF_wild_card,2022.2.4,Win32,59.61251863,599eedebec626e0001d53f19,64d2fd46c836a06233681665,64dc7c4c63a4fd7ffd42d9ff,,,,,,,decisionTrl,resources/DP.BMP,resources/DG.BMP,Door1,0.265740797,0.012962935,1,0,0,1.9577,optionRight,30,5565,3,12,0,12,0,1,,,,,,,,,,,,,,,,,,,,,,,,,,,,,,,,,,,,,,,
,,,,,,,,2023-08-16_08h35.57.208,HF_wild_card,2022.2.4,Win32,59.61251863,599eedebec626e0001d53f19,64d2fd46c836a06233681665,64dc7c4c63a4fd7ffd42d9ff,,,,,,,ctch,resources/DY.BMP,resources/DP.BMP,Door3,-0.338888889,0.021296268,1,0,0,0.9086,optionLeft,70,5635,3,13,0,13,0,1,,,,,,,,,,,,,,,,,,,,,,,,,,,,,,,,,,,,,,,
,,,,,,,,2023-08-16_08h35.57.208,HF_wild_card,2022.2.4,Win32,59.61251863,599eedebec626e0001d53f19,64d2fd46c836a06233681665,64dc7c4c63a4fd7ffd42d9ff,,,,,,,ctch,resources/DG.BMP,resources/DR.BMP,Door4,0.374074131,0.016666667,1,0,0,0.859,optionRight,80,5715,3,14,0,14,0,1,,,,,,,,,,,,,,,,,,,,,,,,,,,,,,,,,,,,,,,
,,,,,,,,2023-08-16_08h35.57.208,HF_wild_card,2022.2.4,Win32,59.61251863,599eedebec626e0001d53f19,64d2fd46c836a06233681665,64dc7c4c63a4fd7ffd42d9ff,,,,,,,sngl,resources/Empty.png,resources/DB.BMP,WildCard_NonEx,0.344444444,-0.004629644,1,0,0,0.8934,optionRight,45,5760,3,15,0,15,0,1,,,,,,,,,,,,,,,,,,,,,,,,,,,,,,,,,,,,,,,
,,,,,,,,2023-08-16_08h35.57.208,HF_wild_card,2022.2.4,Win32,59.61251863,599eedebec626e0001d53f19,64d2fd46c836a06233681665,64dc7c4c63a4fd7ffd42d9ff,,,,,,,decisionTrl,resources/DG.BMP,resources/DP.BMP,Door1,-0.270370356,0.008333333,1,0,0,1.3432,optionLeft,30,5790,3,16,0,16,0,1,,,,,,,,,,,,,,,,,,,,,,,,,,,,,,,,,,,,,,,
,,,,,,,,2023-08-16_08h35.57.208,HF_wild_card,2022.2.4,Win32,59.61251863,599eedebec626e0001d53f19,64d2fd46c836a06233681665,64dc7c4c63a4fd7ffd42d9ff,,,,,,,ctch,resources/DP.BMP,resources/DY.BMP,Door3,0.396296353,-0.047222222,1,0,0,0.9584,optionRight,70,5860,3,17,0,17,0,1,,,,,,,,,,,,,,,,,,,,,,,,,,,,,,,,,,,,,,,
,,,,,,,,2023-08-16_08h35.57.208,HF_wild_card,2022.2.4,Win32,59.61251863,599eedebec626e0001d53f19,64d2fd46c836a06233681665,64dc7c4c63a4fd7ffd42d9ff,,,,,,,ctch,resources/DG.BMP,resources/DR.BMP,Door4,0.274074131,0.000925912,1,0,0,0.8259,optionRight,60,5920,3,18,0,18,0,1,,,,,,,,,,,,,,,,,,,,,,,,,,,,,,,,,,,,,,,
,,,,,,,,2023-08-16_08h35.57.208,HF_wild_card,2022.2.4,Win32,59.61251863,599eedebec626e0001d53f19,64d2fd46c836a06233681665,64dc7c4c63a4fd7ffd42d9ff,,,,,,,sngl,resources/DY.BMP,resources/Empty.png,Door3,-0.295370356,0,1,0,0,0.8315,optionLeft,70,5990,3,19,0,19,0,1,,,,,,,,,,,,,,,,,,,,,,,,,,,,,,,,,,,,,,,
,,,,,,,,2023-08-16_08h35.57.208,HF_wild_card,2022.2.4,Win32,59.61251863,599eedebec626e0001d53f19,64d2fd46c836a06233681665,64dc7c4c63a4fd7ffd42d9ff,,,,,,,sngl,resources/Empty.png,resources/DY.BMP,Door3,0.240740797,-0.027777778,1,0,0,0.742,optionRight,70,6060,3,20,0,20,0,1,,,,,,,,,,,,,,,,,,,,,,,,,,,,,,,,,,,,,,,
,,,,,,,,2023-08-16_08h35.57.208,HF_wild_card,2022.2.4,Win32,59.61251863,599eedebec626e0001d53f19,64d2fd46c836a06233681665,64dc7c4c63a4fd7ffd42d9ff,,,,,,,sngl,resources/Empty.png,resources/DP.BMP,Door2,0.337037065,-0.034259288,1,0,0,0.8009,optionRight,20,6080,3,21,0,21,0,1,,,,,,,,,,,,,,,,,,,,,,,,,,,,,,,,,,,,,,,
,,,,,,,,2023-08-16_08h35.57.208,HF_wild_card,2022.2.4,Win32,59.61251863,599eedebec626e0001d53f19,64d2fd46c836a06233681665,64dc7c4c63a4fd7ffd42d9ff,,,,,,,sngl,resources/Empty.png,resources/DG.BMP,Door1,0.247222222,0.004629601,1,0,0,0.7672,optionRight,30,6110,3,22,0,22,0,1,,,,,,,,,,,,,,,,,,,,,,,,,,,,,,,,,,,,,,,
,,,,,,,,2023-08-16_08h35.57.208,HF_wild_card,2022.2.4,Win32,59.61251863,599eedebec626e0001d53f19,64d2fd46c836a06233681665,64dc7c4c63a4fd7ffd42d9ff,,,,,,,sngl,resources/DB.BMP,resources/Empty.png,WildCard_NonEx,-0.271296268,-0.026851866,1,0,0,0.8092,optionLeft,45,6155,3,23,0,23,0,1,,,,,,,,,,,,,,,,,,,,,,,,,,,,,,,,,,,,,,,
,,,,,,,,2023-08-16_08h35.57.208,HF_wild_card,2022.2.4,Win32,59.61251863,599eedebec626e0001d53f19,64d2fd46c836a06233681665,64dc7c4c63a4fd7ffd42d9ff,,,,,,,ctch,resources/DR.BMP,resources/DG.BMP,Door4,-0.329629601,-0.033333333,1,0,0,1.082,optionLeft,80,6235,3,24,0,24,0,1,,,,,,,,,,,,,,,,,,,,,,,,,,,,,,,,,,,,,,,
,,,,,,,,2023-08-16_08h35.57.208,HF_wild_card,2022.2.4,Win32,59.61251863,599eedebec626e0001d53f19,64d2fd46c836a06233681665,64dc7c4c63a4fd7ffd42d9ff,,,,,,,ctch,resources/DP.BMP,resources/DY.BMP,Door3,0.255555556,0.006481467,1,0,0,0.8093,optionRight,70,6305,3,25,0,25,0,1,,,,,,,,,,,,,,,,,,,,,,,,,,,,,,,,,,,,,,,
,,,,,,,,2023-08-16_08h35.57.208,HF_wild_card,2022.2.4,Win32,59.61251863,599eedebec626e0001d53f19,64d2fd46c836a06233681665,64dc7c4c63a4fd7ffd42d9ff,,,,,,,decisionTrl,resources/DB.BMP,resources/DG.BMP,WildCard_NonEx,-0.286111111,-0.028703732,1,0,0,1.5445,optionLeft,45,6350,3,26,0,26,0,1,,,,,,,,,,,,,,,,,,,,,,,,,,,,,,,,,,,,,,,
,,,,,,,,2023-08-16_08h35.57.208,HF_wild_card,2022.2.4,Win32,59.61251863,599eedebec626e0001d53f19,64d2fd46c836a06233681665,64dc7c4c63a4fd7ffd42d9ff,,,,,,,decisionTrl,resources/DB.BMP,resources/DR.BMP,Door4,0.259259288,0.045370356,1,0,0,1.2289,optionRight,60,6410,3,27,0,27,0,1,,,,,,,,,,,,,,,,,,,,,,,,,,,,,,,,,,,,,,,
,,,,,,,,2023-08-16_08h35.57.208,HF_wild_card,2022.2.4,Win32,59.61251863,599eedebec626e0001d53f19,64d2fd46c836a06233681665,64dc7c4c63a4fd7ffd42d9ff,,,,,,,decisionTrl,resources/DG.BMP,resources/DP.BMP,Door1,-0.32870369,-0.038888889,1,0,0,1.3089,optionLeft,30,6440,3,28,0,28,0,1,,,,,,,,,,,,,,,,,,,,,,,,,,,,,,,,,,,,,,,
,,,,,,,,2023-08-16_08h35.57.208,HF_wild_card,2022.2.4,Win32,59.61251863,599eedebec626e0001d53f19,64d2fd46c836a06233681665,64dc7c4c63a4fd7ffd42d9ff,,,,,,,decisionTrl,resources/DR.BMP,resources/DY.BMP,Door4,-0.258333333,-0.032407422,1,0,0,1.9927,optionLeft,80,6520,3,29,0,29,0,1,,,,,,,,,,,,,,,,,,,,,,,,,,,,,,,,,,,,,,,
,,,,,,,,2023-08-16_08h35.57.208,HF_wild_card,2022.2.4,Win32,59.61251863,599eedebec626e0001d53f19,64d2fd46c836a06233681665,64dc7c4c63a4fd7ffd42d9ff,,,,,,,decisionTrl,resources/DB.BMP,resources/DY.BMP,Door3,0.374074131,0.06851849,1,0,0,0.9275,optionRight,70,6590,3,30,0,30,0,1,,,,,,,,,,,,,,,,,,,,,,,,,,,,,,,,,,,,,,,
,,,,,,,,2023-08-16_08h35.57.208,HF_wild_card,2022.2.4,Win32,59.61251863,599eedebec626e0001d53f19,64d2fd46c836a06233681665,64dc7c4c63a4fd7ffd42d9ff,,,,,,,decisionTrl,resources/DY.BMP,resources/DR.BMP,Door4,0.355555556,0,1,0,0,2.0914,optionRight,80,6670,3,31,0,31,0,1,,,,,,,,,,,,,,,,,,,,,,,,,,,,,,,,,,,,,,,
,,,,,,,,2023-08-16_08h35.57.208,HF_wild_card,2022.2.4,Win32,59.61251863,599eedebec626e0001d53f19,64d2fd46c836a06233681665,64dc7c4c63a4fd7ffd42d9ff,,,,,,,sngl,resources/DG.BMP,resources/Empty.png,Door1,-0.294444444,0.017592578,1,0,0,0.7924,optionLeft,30,6700,3,32,0,32,0,1,,,,,,,,,,,,,,,,,,,,,,,,,,,,,,,,,,,,,,,
,,,,,,,,2023-08-16_08h35.57.208,HF_wild_card,2022.2.4,Win32,59.61251863,599eedebec626e0001d53f19,64d2fd46c836a06233681665,64dc7c4c63a4fd7ffd42d9ff,,,,,,,decisionTrl,resources/DR.BMP,resources/DY.BMP,Door4,-0.279629601,-0.088888889,1,0,0,1.0781,optionLeft,80,6780,3,33,0,33,0,1,,,,,,,,,,,,,,,,,,,,,,,,,,,,,,,,,,,,,,,
,,,,,,,,2023-08-16_08h35.57.208,HF_wild_card,2022.2.4,Win32,59.61251863,599eedebec626e0001d53f19,64d2fd46c836a06233681665,64dc7c4c63a4fd7ffd42d9ff,,,,,,,decisionTrl,resources/DG.BMP,resources/DP.BMP,Door1,-0.267592578,-0.040740755,1,0,0,1.9765,optionLeft,30,6810,3,34,0,34,0,1,,,,,,,,,,,,,,,,,,,,,,,,,,,,,,,,,,,,,,,
,,,,,,,,2023-08-16_08h35.57.208,HF_wild_card,2022.2.4,Win32,59.61251863,599eedebec626e0001d53f19,64d2fd46c836a06233681665,64dc7c4c63a4fd7ffd42d9ff,,,,,,,sngl,resources/DP.BMP,resources/Empty.png,Door2,-0.337037023,-0.018518533,1,0,0,0.827,optionLeft,40,6850,3,35,0,35,0,1,,,,,,,,,,,,,,,,,,,,,,,,,,,,,,,,,,,,,,,
,,,,,,,,2023-08-16_08h35.57.208,HF_wild_card,2022.2.4,Win32,59.61251863,599eedebec626e0001d53f19,64d2fd46c836a06233681665,64dc7c4c63a4fd7ffd42d9ff,,,,,,,decisionTrl,resources/DG.BMP,resources/DB.BMP,WildCard_NonEx,0.298148176,-0.022222222,1,0,0,1.0758,optionRight,55,6905,3,36,0,36,0,1,,,,,,,,,,,,,,,,,,,,,,,,,,,,,,,,,,,,,,,
,,,,,,,,2023-08-16_08h35.57.208,HF_wild_card,2022.2.4,Win32,59.61251863,599eedebec626e0001d53f19,64d2fd46c836a06233681665,64dc7c4c63a4fd7ffd42d9ff,,,,,,,decisionTrl,resources/DB.BMP,resources/DP.BMP,WildCard_NonEx,-0.35,-0.019444444,1,0,0,1.0921,optionLeft,45,6950,3,37,0,37,0,1,,,,,,,,,,,,,,,,,,,,,,,,,,,,,,,,,,,,,,,
,,,,,,,,2023-08-16_08h35.57.208,HF_wild_card,2022.2.4,Win32,59.61251863,599eedebec626e0001d53f19,64d2fd46c836a06233681665,64dc7c4c63a4fd7ffd42d9ff,,,,,,,decisionTrl,resources/DR.BMP,resources/DY.BMP,Door4,-0.309259245,-0.00648151,1,0,0,1.608,optionLeft,60,7010,3,38,0,38,0,1,,,,,,,,,,,,,,,,,,,,,,,,,,,,,,,,,,,,,,,
,,,,,,,,2023-08-16_08h35.57.208,HF_wild_card,2022.2.4,Win32,59.61251863,599eedebec626e0001d53f19,64d2fd46c836a06233681665,64dc7c4c63a4fd7ffd42d9ff,,,,,,,sngl,resources/DB.BMP,resources/Empty.png,WildCard_NonEx,-0.223148134,-0.010185199,1,0,0,0.8586,optionLeft,55,7065,3,39,0,39,0,1,,,,,,,,,,,,,,,,,,,,,,,,,,,,,,,,,,,,,,,
,,,,,,,,2023-08-16_08h35.57.208,HF_wild_card,2022.2.4,Win32,59.61251863,599eedebec626e0001d53f19,64d2fd46c836a06233681665,64dc7c4c63a4fd7ffd42d9ff,,,,,,,decisionTrl,resources/DP.BMP,resources/DG.BMP,Door1,0.3,0.086111111,1,0,0,1.5558,optionRight,30,7095,3,40,0,40,0,1,,,,,,,,,,,,,,,,,,,,,,,,,,,,,,,,,,,,,,,
,,,,,,,,2023-08-16_08h35.57.208,HF_wild_card,2022.2.4,Win32,59.61251863,599eedebec626e0001d53f19,64d2fd46c836a06233681665,64dc7c4c63a4fd7ffd42d9ff,,,,,,,sngl,resources/Empty.png,resources/DR.BMP,Door4,0.287037065,-0.012037065,1,0,0,0.8846,optionRight,60,7155,3,41,0,41,0,1,,,,,,,,,,,,,,,,,,,,,,,,,,,,,,,,,,,,,,,
,,,,,,,,2023-08-16_08h35.57.208,HF_wild_card,2022.2.4,Win32,59.61251863,599eedebec626e0001d53f19,64d2fd46c836a06233681665,64dc7c4c63a4fd7ffd42d9ff,,,,,,,decisionTrl,resources/DP.BMP,resources/DG.BMP,Door1,0.285185242,0.038888889,1,0,0,1.5743,optionRight,30,7185,3,42,0,42,0,1,,,,,,,,,,,,,,,,,,,,,,,,,,,,,,,,,,,,,,,
,,,,,,,,2023-08-16_08h35.57.208,HF_wild_card,2022.2.4,Win32,59.61251863,599eedebec626e0001d53f19,64d2fd46c836a06233681665,64dc7c4c63a4fd7ffd42d9ff,,,,,,,ctch,resources/DY.BMP,resources/DP.BMP,Door3,-0.281481467,-0.025,1,0,0,0.9003,optionLeft,70,7255,3,43,0,43,0,1,,,,,,,,,,,,,,,,,,,,,,,,,,,,,,,,,,,,,,,
,,,,,,,,2023-08-16_08h35.57.208,HF_wild_card,2022.2.4,Win32,59.61251863,599eedebec626e0001d53f19,64d2fd46c836a06233681665,64dc7c4c63a4fd7ffd42d9ff,,,,,,,,,,,,,,,,,,,,,,,,,,2,0,2,0,1,,,,,,,,,,,,,,,,,,,,,,,,,,,,,,,,,,
,,,,,,,,2023-08-16_08h35.57.208,HF_wild_card,2022.2.4,Win32,59.61251863,599eedebec626e0001d53f19,64d2fd46c836a06233681665,64dc7c4c63a4fd7ffd42d9ff,,,,,,,decisionTrl,resources/DR.BMP,resources/DY.BMP,Door4,-0.312037023,-0.013888889,1,0,0,1.813,optionLeft,60,7315,4,0,0,0,0,1,,,,,,,,,,,,,,,,,,,,,,,,,,,,,,,,,,,,,,,
,,,,,,,,2023-08-16_08h35.57.208,HF_wild_card,2022.2.4,Win32,59.61251863,599eedebec626e0001d53f19,64d2fd46c836a06233681665,64dc7c4c63a4fd7ffd42d9ff,,,,,,,decisionTrl,resources/DY.BMP,resources/DR.BMP,Door4,0.340740797,0.012962935,1,0,0,1.2409,optionRight,80,7395,4,1,0,1,0,1,,,,,,,,,,,,,,,,,,,,,,,,,,,,,,,,,,,,,,,
,,,,,,,,2023-08-16_08h35.57.208,HF_wild_card,2022.2.4,Win32,59.61251863,599eedebec626e0001d53f19,64d2fd46c836a06233681665,64dc7c4c63a4fd7ffd42d9ff,,,,,,,decisionTrl,resources/DY.BMP,resources/DR.BMP,Door4,0.299074131,-0.016666667,1,0,0,0.9097,optionRight,60,7455,4,2,0,2,0,1,,,,,,,,,,,,,,,,,,,,,,,,,,,,,,,,,,,,,,,
,,,,,,,,2023-08-16_08h35.57.208,HF_wild_card,2022.2.4,Win32,59.61251863,599eedebec626e0001d53f19,64d2fd46c836a06233681665,64dc7c4c63a4fd7ffd42d9ff,,,,,,,decisionTrl,resources/DG.BMP,resources/DP.BMP,Door1,-0.25370369,-0.008333333,1,0,0,1.0855,optionLeft,30,7485,4,3,0,3,0,1,,,,,,,,,,,,,,,,,,,,,,,,,,,,,,,,,,,,,,,
,,,,,,,,2023-08-16_08h35.57.208,HF_wild_card,2022.2.4,Win32,59.61251863,599eedebec626e0001d53f19,64d2fd46c836a06233681665,64dc7c4c63a4fd7ffd42d9ff,,,,,,,decisionTrl,resources/DP.BMP,resources/DG.BMP,Door1,0.262037065,-0.026851866,1,0,0,1.3928,optionRight,30,7515,4,4,0,4,0,1,,,,,,,,,,,,,,,,,,,,,,,,,,,,,,,,,,,,,,,
,,,,,,,,2023-08-16_08h35.57.208,HF_wild_card,2022.2.4,Win32,59.61251863,599eedebec626e0001d53f19,64d2fd46c836a06233681665,64dc7c4c63a4fd7ffd42d9ff,,,,,,,decisionTrl,resources/DP.BMP,resources/DG.BMP,Door1,0.297222222,0.035185157,1,0,0,1.0882,optionRight,30,7545,4,5,0,5,0,1,,,,,,,,,,,,,,,,,,,,,,,,,,,,,,,,,,,,,,,
,,,,,,,,2023-08-16_08h35.57.208,HF_wild_card,2022.2.4,Win32,59.61251863,599eedebec626e0001d53f19,64d2fd46c836a06233681665,64dc7c4c63a4fd7ffd42d9ff,,,,,,,sngl,resources/Empty.png,resources/DBN.BMP,WildCard_Ex,0.300925954,-0.013888889,1,0,0,2.0422,optionRight,55,7600,4,6,0,6,0,1,,,,,,,,,,,,,,,,,,,,,,,,,,,,,,,,,,,,,,,
,,,,,,,,2023-08-16_08h35.57.208,HF_wild_card,2022.2.4,Win32,59.61251863,599eedebec626e0001d53f19,64d2fd46c836a06233681665,64dc7c4c63a4fd7ffd42d9ff,,,,,,,ctch,resources/DY.BMP,resources/DP.BMP,Door3,-0.276851824,-0.027777778,1,0,0,1.0695,optionLeft,70,7670,4,7,0,7,0,1,,,,,,,,,,,,,,,,,,,,,,,,,,,,,,,,,,,,,,,
,,,,,,,,2023-08-16_08h35.57.208,HF_wild_card,2022.2.4,Win32,59.61251863,599eedebec626e0001d53f19,64d2fd46c836a06233681665,64dc7c4c63a4fd7ffd42d9ff,,,,,,,decisionTrl,resources/DP.BMP,resources/DG.BMP,Door1,0.305555556,-0.087037065,1,0,0,1.4426,optionRight,30,7700,4,8,0,8,0,1,,,,,,,,,,,,,,,,,,,,,,,,,,,,,,,,,,,,,,,
,,,,,,,,2023-08-16_08h35.57.208,HF_wild_card,2022.2.4,Win32,59.61251863,599eedebec626e0001d53f19,64d2fd46c836a06233681665,64dc7c4c63a4fd7ffd42d9ff,,,,,,,decisionTrl,resources/DY.BMP,resources/DBN.BMP,WildCard_Ex,0.271296353,-0.030555556,1,0,0,1.1754,optionRight,45,7745,4,9,0,9,0,1,,,,,,,,,,,,,,,,,,,,,,,,,,,,,,,,,,,,,,,
,,,,,,,,2023-08-16_08h35.57.208,HF_wild_card,2022.2.4,Win32,59.61251863,599eedebec626e0001d53f19,64d2fd46c836a06233681665,64dc7c4c63a4fd7ffd42d9ff,,,,,,,decisionTrl,resources/DR.BMP,resources/DY.BMP,Door4,-0.291666667,-0.042592621,1,0,0,2.2408,optionLeft,80,7825,4,10,0,10,0,1,,,,,,,,,,,,,,,,,,,,,,,,,,,,,,,,,,,,,,,
,,,,,,,,2023-08-16_08h35.57.208,HF_wild_card,2022.2.4,Win32,59.61251863,599eedebec626e0001d53f19,64d2fd46c836a06233681665,64dc7c4c63a4fd7ffd42d9ff,,,,,,,decisionTrl,resources/DR.BMP,resources/DY.BMP,Door4,-0.369444444,-0.00648151,1,0,0,0.8776,optionLeft,80,7905,4,11,0,11,0,1,,,,,,,,,,,,,,,,,,,,,,,,,,,,,,,,,,,,,,,
,,,,,,,,2023-08-16_08h35.57.208,HF_wild_card,2022.2.4,Win32,59.61251863,599eedebec626e0001d53f19,64d2fd46c836a06233681665,64dc7c4c63a4fd7ffd42d9ff,,,,,,,ctch,resources/DG.BMP,resources/DR.BMP,Door4,0.290740797,-0.003703732,1,0,0,0.8919,optionRight,80,7985,4,12,0,12,0,1,,,,,,,,,,,,,,,,,,,,,,,,,,,,,,,,,,,,,,,
,,,,,,,,2023-08-16_08h35.57.208,HF_wild_card,2022.2.4,Win32,59.61251863,599eedebec626e0001d53f19,64d2fd46c836a06233681665,64dc7c4c63a4fd7ffd42d9ff,,,,,,,ctch,resources/DP.BMP,resources/DY.BMP,Door3,0.295370399,-0.003703732,1,0,0,1.262,optionRight,70,8055,4,13,0,13,0,1,,,,,,,,,,,,,,,,,,,,,,,,,,,,,,,,,,,,,,,
,,,,,,,,2023-08-16_08h35.57.208,HF_wild_card,2022.2.4,Win32,59.61251863,599eedebec626e0001d53f19,64d2fd46c836a06233681665,64dc7c4c63a4fd7ffd42d9ff,,,,,,,decisionTrl,resources/DBN.BMP,resources/DP.BMP,WildCard_Ex,-0.341666667,-0.015740755,1,0,0,1.3406,optionLeft,55,8110,4,14,0,14,0,1,,,,,,,,,,,,,,,,,,,,,,,,,,,,,,,,,,,,,,,
,,,,,,,,2023-08-16_08h35.57.208,HF_wild_card,2022.2.4,Win32,59.61251863,599eedebec626e0001d53f19,64d2fd46c836a06233681665,64dc7c4c63a4fd7ffd42d9ff,,,,,,,decisionTrl,resources/DP.BMP,resources/DBN.BMP,WildCard_Ex,0.266666667,0.005555556,1,0,0,1.1265,optionRight,45,8155,4,15,0,15,0,1,,,,,,,,,,,,,,,,,,,,,,,,,,,,,,,,,,,,,,,
,,,,,,,,2023-08-16_08h35.57.208,HF_wild_card,2022.2.4,Win32,59.61251863,599eedebec626e0001d53f19,64d2fd46c836a06233681665,64dc7c4c63a4fd7ffd42d9ff,,,,,,,sngl,resources/DY.BMP,resources/Empty.png,Door3,-0.264814801,-0.03148151,1,0,0,0.8427,optionLeft,70,8225,4,16,0,16,0,1,,,,,,,,,,,,,,,,,,,,,,,,,,,,,,,,,,,,,,,
,,,,,,,,2023-08-16_08h35.57.208,HF_wild_card,2022.2.4,Win32,59.61251863,599eedebec626e0001d53f19,64d2fd46c836a06233681665,64dc7c4c63a4fd7ffd42d9ff,,,,,,,decisionTrl,resources/DBN.BMP,resources/DG.BMP,WildCard_Ex,-0.263888889,0.012962935,1,0,0,1.4095,optionLeft,55,8280,4,17,0,17,0,1,,,,,,,,,,,,,,,,,,,,,,,,,,,,,,,,,,,,,,,
,,,,,,,,2023-08-16_08h35.57.208,HF_wild_card,2022.2.4,Win32,59.61251863,599eedebec626e0001d53f19,64d2fd46c836a06233681665,64dc7c4c63a4fd7ffd42d9ff,,,,,,,decisionTrl,resources/DY.BMP,resources/DR.BMP,Door4,0.326851908,0.01851849,1,0,0,1.2097,optionRight,80,8360,4,18,0,18,0,1,,,,,,,,,,,,,,,,,,,,,,,,,,,,,,,,,,,,,,,
,,,,,,,,2023-08-16_08h35.57.208,HF_wild_card,2022.2.4,Win32,59.61251863,599eedebec626e0001d53f19,64d2fd46c836a06233681665,64dc7c4c63a4fd7ffd42d9ff,,,,,,,decisionTrl,resources/DR.BMP,resources/DBN.BMP,Door4,-0.320370356,0.000925912,1,0,0,0.9759,optionLeft,80,8440,4,19,0,19,0,1,,,,,,,,,,,,,,,,,,,,,,,,,,,,,,,,,,,,,,,
,,,,,,,,2023-08-16_08h35.57.208,HF_wild_card,2022.2.4,Win32,59.61251863,599eedebec626e0001d53f19,64d2fd46c836a06233681665,64dc7c4c63a4fd7ffd42d9ff,,,,,,,sngl,resources/Empty.png,resources/DR.BMP,Door4,0.315740797,0.006481467,1,0,0,0.8738,optionRight,80,8520,4,20,0,20,0,1,,,,,,,,,,,,,,,,,,,,,,,,,,,,,,,,,,,,,,,
,,,,,,,,2023-08-16_08h35.57.208,HF_wild_card,2022.2.4,Win32,59.61251863,599eedebec626e0001d53f19,64d2fd46c836a06233681665,64dc7c4c63a4fd7ffd42d9ff,,,,,,,decisionTrl,resources/DG.BMP,resources/DP.BMP,Door1,-0.281481467,-0.032407422,1,0,0,1.7925,optionLeft,30,8550,4,21,0,21,0,1,,,,,,,,,,,,,,,,,,,,,,,,,,,,,,,,,,,,,,,
,,,,,,,,2023-08-16_08h35.57.208,HF_wild_card,2022.2.4,Win32,59.61251863,599eedebec626e0001d53f19,64d2fd46c836a06233681665,64dc7c4c63a4fd7ffd42d9ff,,,,,,,decisionTrl,resources/DBN.BMP,resources/DR.BMP,Door4,0.245370399,-0.059259288,1,0,0,1.4108,optionRight,80,8630,4,22,0,22,0,1,,,,,,,,,,,,,,,,,,,,,,,,,,,,,,,,,,,,,,,
,,,,,,,,2023-08-16_08h35.57.208,HF_wild_card,2022.2.4,Win32,59.61251863,599eedebec626e0001d53f19,64d2fd46c836a06233681665,64dc7c4c63a4fd7ffd42d9ff,,,,,,,sngl,resources/Empty.png,resources/DBN.BMP,WildCard_Ex,0.216666667,-0.037962977,1,0,0,0.9035,optionRight,45,8675,4,23,0,23,0,1,,,,,,,,,,,,,,,,,,,,,,,,,,,,,,,,,,,,,,,
,,,,,,,,2023-08-16_08h35.57.208,HF_wild_card,2022.2.4,Win32,59.61251863,599eedebec626e0001d53f19,64d2fd46c836a06233681665,64dc7c4c63a4fd7ffd42d9ff,,,,,,,decisionTrl,resources/DY.BMP,resources/DR.BMP,Door4,0.277777778,-0.037037065,1,0,0,1.2939,optionRight,80,8755,4,24,0,24,0,1,,,,,,,,,,,,,,,,,,,,,,,,,,,,,,,,,,,,,,,
,,,,,,,,2023-08-16_08h35.57.208,HF_wild_card,2022.2.4,Win32,59.61251863,599eedebec626e0001d53f19,64d2fd46c836a06233681665,64dc7c4c63a4fd7ffd42d9ff,,,,,,,sngl,resources/DR.BMP,resources/Empty.png,Door4,-0.224074046,-0.005555556,1,0,0,0.9098,optionLeft,60,8815,4,25,0,25,0,1,,,,,,,,,,,,,,,,,,,,,,,,,,,,,,,,,,,,,,,
,,,,,,,,2023-08-16_08h35.57.208,HF_wild_card,2022.2.4,Win32,59.61251863,599eedebec626e0001d53f19,64d2fd46c836a06233681665,64dc7c4c63a4fd7ffd42d9ff,,,,,,,decisionTrl,resources/DR.BMP,resources/DY.BMP,Door4,-0.304629601,-0.024074088,1,0,0,1.1424,optionLeft,60,8875,4,26,0,26,0,1,,,,,,,,,,,,,,,,,,,,,,,,,,,,,,,,,,,,,,,
,,,,,,,,2023-08-16_08h35.57.208,HF_wild_card,2022.2.4,Win32,59.61251863,599eedebec626e0001d53f19,64d2fd46c836a06233681665,64dc7c4c63a4fd7ffd42d9ff,,,,,,,decisionTrl,resources/DG.BMP,resources/DBN.BMP,WildCard_Ex,0.350925954,0.025,1,0,0,1.3395,optionRight,45,8920,4,27,0,27,0,1,,,,,,,,,,,,,,,,,,,,,,,,,,,,,,,,,,,,,,,
,,,,,,,,2023-08-16_08h35.57.208,HF_wild_card,2022.2.4,Win32,59.61251863,599eedebec626e0001d53f19,64d2fd46c836a06233681665,64dc7c4c63a4fd7ffd42d9ff,,,,,,,decisionTrl,resources/DP.BMP,resources/DG.BMP,Door1,0.286111111,0.023148134,1,0,0,1.3264,optionRight,30,8950,4,28,0,28,0,1,,,,,,,,,,,,,,,,,,,,,,,,,,,,,,,,,,,,,,,
,,,,,,,,2023-08-16_08h35.57.208,HF_wild_card,2022.2.4,Win32,59.61251863,599eedebec626e0001d53f19,64d2fd46c836a06233681665,64dc7c4c63a4fd7ffd42d9ff,,,,,,,sngl,resources/Empty.png,resources/DG.BMP,Door1,0.408333333,0.005555556,1,0,0,0.9099,optionRight,30,8980,4,29,0,29,0,1,,,,,,,,,,,,,,,,,,,,,,,,,,,,,,,,,,,,,,,
,,,,,,,,2023-08-16_08h35.57.208,HF_wild_card,2022.2.4,Win32,59.61251863,599eedebec626e0001d53f19,64d2fd46c836a06233681665,64dc7c4c63a4fd7ffd42d9ff,,,,,,,sngl,resources/DBN.BMP,resources/Empty.png,WildCard_Ex,-0.259259245,-0.036111111,1,0,0,0.8085,optionLeft,45,9025,4,30,0,30,0,1,,,,,,,,,,,,,,,,,,,,,,,,,,,,,,,,,,,,,,,
,,,,,,,,2023-08-16_08h35.57.208,HF_wild_card,2022.2.4,Win32,59.61251863,599eedebec626e0001d53f19,64d2fd46c836a06233681665,64dc7c4c63a4fd7ffd42d9ff,,,,,,,sngl,resources/Empty.png,resources/DP.BMP,Door2,0.375925954,-0.016666667,1,0,0,0.8618,optionRight,40,9065,4,31,0,31,0,1,,,,,,,,,,,,,,,,,,,,,,,,,,,,,,,,,,,,,,,
,,,,,,,,2023-08-16_08h35.57.208,HF_wild_card,2022.2.4,Win32,59.61251863,599eedebec626e0001d53f19,64d2fd46c836a06233681665,64dc7c4c63a4fd7ffd42d9ff,,,,,,,ctch,resources/DP.BMP,resources/DY.BMP,Door3,0.318518575,-0.035185199,1,0,0,1.4912,optionRight,70,9135,4,32,0,32,0,1,,,,,,,,,,,,,,,,,,,,,,,,,,,,,,,,,,,,,,,
,,,,,,,,2023-08-16_08h35.57.208,HF_wild_card,2022.2.4,Win32,59.61251863,599eedebec626e0001d53f19,64d2fd46c836a06233681665,64dc7c4c63a4fd7ffd42d9ff,,,,,,,ctch,resources/DG.BMP,resources/DR.BMP,Door4,0.407407464,0.023148134,1,0,0,1.1587,optionRight,60,9195,4,33,0,33,0,1,,,,,,,,,,,,,,,,,,,,,,,,,,,,,,,,,,,,,,,
,,,,,,,,2023-08-16_08h35.57.208,HF_wild_card,2022.2.4,Win32,59.61251863,599eedebec626e0001d53f19,64d2fd46c836a06233681665,64dc7c4c63a4fd7ffd42d9ff,,,,,,,decisionTrl,resources/DG.BMP,resources/DP.BMP,Door1,-0.330555556,-0.014814843,1,0,0,1.159,optionLeft,30,9225,4,34,0,34,0,1,,,,,,,,,,,,,,,,,,,,,,,,,,,,,,,,,,,,,,,
,,,,,,,,2023-08-16_08h35.57.208,HF_wild_card,2022.2.4,Win32,59.61251863,599eedebec626e0001d53f19,64d2fd46c836a06233681665,64dc7c4c63a4fd7ffd42d9ff,,,,,,,ctch,resources/DR.BMP,resources/DG.BMP,Door4,-0.316666667,-0.005555556,1,0,0,1.1243,optionLeft,80,9305,4,35,0,35,0,1,,,,,,,,,,,,,,,,,,,,,,,,,,,,,,,,,,,,,,,
,,,,,,,,2023-08-16_08h35.57.208,HF_wild_card,2022.2.4,Win32,59.61251863,599eedebec626e0001d53f19,64d2fd46c836a06233681665,64dc7c4c63a4fd7ffd42d9ff,,,,,,,ctch,resources/DY.BMP,resources/DP.BMP,Door3,-0.321296268,-0.020370399,1,0,0,1.0922,optionLeft,70,9375,4,36,0,36,0,1,,,,,,,,,,,,,,,,,,,,,,,,,,,,,,,,,,,,,,,
,,,,,,,,2023-08-16_08h35.57.208,HF_wild_card,2022.2.4,Win32,59.61251863,599eedebec626e0001d53f19,64d2fd46c836a06233681665,64dc7c4c63a4fd7ffd42d9ff,,,,,,,sngl,resources/Empty.png,resources/DY.BMP,Door3,0.365740797,-0.060185199,1,0,0,0.8937,optionRight,70,9445,4,37,0,37,0,1,,,,,,,,,,,,,,,,,,,,,,,,,,,,,,,,,,,,,,,
,,,,,,,,2023-08-16_08h35.57.208,HF_wild_card,2022.2.4,Win32,59.61251863,599eedebec626e0001d53f19,64d2fd46c836a06233681665,64dc7c4c63a4fd7ffd42d9ff,,,,,,,decisionTrl,resources/DG.BMP,resources/DP.BMP,Door1,-0.260185157,-0.017592621,1,0,0,1.0017,optionLeft,30,9475,4,38,0,38,0,1,,,,,,,,,,,,,,,,,,,,,,,,,,,,,,,,,,,,,,,
,,,,,,,,2023-08-16_08h35.57.208,HF_wild_card,2022.2.4,Win32,59.61251863,599eedebec626e0001d53f19,64d2fd46c836a06233681665,64dc7c4c63a4fd7ffd42d9ff,,,,,,,decisionTrl,resources/DBN.BMP,resources/DY.BMP,Door3,0.278703732,-0.051851866,1,0,0,1.3416,optionRight,70,9545,4,39,0,39,0,1,,,,,,,,,,,,,,,,,,,,,,,,,,,,,,,,,,,,,,,
,,,,,,,,2023-08-16_08h35.57.208,HF_wild_card,2022.2.4,Win32,59.61251863,599eedebec626e0001d53f19,64d2fd46c836a06233681665,64dc7c4c63a4fd7ffd42d9ff,,,,,,,ctch,resources/DR.BMP,resources/DG.BMP,Door4,-0.372222222,-0.010185199,1,0,0,0.9506,optionLeft,60,9605,4,40,0,40,0,1,,,,,,,,,,,,,,,,,,,,,,,,,,,,,,,,,,,,,,,
,,,,,,,,2023-08-16_08h35.57.208,HF_wild_card,2022.2.4,Win32,59.61251863,599eedebec626e0001d53f19,64d2fd46c836a06233681665,64dc7c4c63a4fd7ffd42d9ff,,,,,,,sngl,resources/DBN.BMP,resources/Empty.png,WildCard_Ex,-0.301851824,-0.009259288,1,0,0,0.8464,optionLeft,55,9660,4,41,0,41,0,1,,,,,,,,,,,,,,,,,,,,,,,,,,,,,,,,,,,,,,,
,,,,,,,,2023-08-16_08h35.57.208,HF_wild_card,2022.2.4,Win32,59.61251863,599eedebec626e0001d53f19,64d2fd46c836a06233681665,64dc7c4c63a4fd7ffd42d9ff,,,,,,,sngl,resources/DP.BMP,resources/Empty.png,Door2,-0.290740712,-0.010185199,1,0,0,0.7937,optionLeft,20,9680,4,42,0,42,0,1,,,,,,,,,,,,,,,,,,,,,,,,,,,,,,,,,,,,,,,
,,,,,,,,2023-08-16_08h35.57.208,HF_wild_card,2022.2.4,Win32,59.61251863,599eedebec626e0001d53f19,64d2fd46c836a06233681665,64dc7c4c63a4fd7ffd42d9ff,,,,,,,sngl,resources/DG.BMP,resources/Empty.png,Door1,-0.291666667,-0.002777778,1,0,0,0.8275,optionLeft,30,9710,4,43,0,43,0,1,,,,,,,,,,,,,,,,,,,,,,,,,,,,,,,,,,,,,,,
,,,,,,,,2023-08-16_08h35.57.208,HF_wild_card,2022.2.4,Win32,59.61251863,599eedebec626e0001d53f19,64d2fd46c836a06233681665,64dc7c4c63a4fd7ffd42d9ff,,,,,,,,,,,,,,,,,,,,,,,,,,3,0,3,0,1,,,,,,,,,,,,,,,,,,,,,,,,,,,,,,,,,,
,,,,,,,,2023-08-16_08h35.57.208,HF_wild_card,2022.2.4,Win32,59.61251863,599eedebec626e0001d53f19,64d2fd46c836a06233681665,64dc7c4c63a4fd7ffd42d9ff,,,,,,,decisionTrl,resources/DR.BMP,resources/DBN.BMP,Door4,-0.472222222,-0.063888889,1,0,0,1.961,optionLeft,60,9770,5,0,0,0,0,1,,,,,,,,,,,,,,,,,,,,,,,,,,,,,,,,,,,,,,,
,,,,,,,,2023-08-16_08h35.57.208,HF_wild_card,2022.2.4,Win32,59.61251863,599eedebec626e0001d53f19,64d2fd46c836a06233681665,64dc7c4c63a4fd7ffd42d9ff,,,,,,,decisionTrl,resources/DBN.BMP,resources/DG.BMP,WildCard_Ex,-0.356481467,-0.023148176,1,0,0,1.4279,optionLeft,45,9815,5,1,0,1,0,1,,,,,,,,,,,,,,,,,,,,,,,,,,,,,,,,,,,,,,,
,,,,,,,,2023-08-16_08h35.57.208,HF_wild_card,2022.2.4,Win32,59.61251863,599eedebec626e0001d53f19,64d2fd46c836a06233681665,64dc7c4c63a4fd7ffd42d9ff,,,,,,,decisionTrl,resources/DR.BMP,resources/DY.BMP,Door4,-0.415740712,-0.02129631,1,0,0,1.5507,optionLeft,60,9875,5,2,0,2,0,1,,,,,,,,,,,,,,,,,,,,,,,,,,,,,,,,,,,,,,,
,,,,,,,,2023-08-16_08h35.57.208,HF_wild_card,2022.2.4,Win32,59.61251863,599eedebec626e0001d53f19,64d2fd46c836a06233681665,64dc7c4c63a4fd7ffd42d9ff,,,,,,,decisionTrl,resources/DG.BMP,resources/DBN.BMP,WildCard_Ex,0.327777778,0.020370356,1,0,0,1.675,optionRight,45,9920,5,3,0,3,0,1,,,,,,,,,,,,,,,,,,,,,,,,,,,,,,,,,,,,,,,
,,,,,,,,2023-08-16_08h35.57.208,HF_wild_card,2022.2.4,Win32,59.61251863,599eedebec626e0001d53f19,64d2fd46c836a06233681665,64dc7c4c63a4fd7ffd42d9ff,,,,,,,decisionTrl,resources/DR.BMP,resources/DY.BMP,Door4,-0.356481467,-0.018518533,1,0,0,1.22,optionLeft,80,10000,5,4,0,4,0,1,,,,,,,,,,,,,,,,,,,,,,,,,,,,,,,,,,,,,,,
,,,,,,,,2023-08-16_08h35.57.208,HF_wild_card,2022.2.4,Win32,59.61251863,599eedebec626e0001d53f19,64d2fd46c836a06233681665,64dc7c4c63a4fd7ffd42d9ff,,,,,,,sngl,resources/Empty.png,resources/DBN.BMP,WildCard_Ex,0.274074131,-0.000925954,1,0,0,1.4833,optionRight,55,10055,5,5,0,5,0,1,,,,,,,,,,,,,,,,,,,,,,,,,,,,,,,,,,,,,,,
,,,,,,,,2023-08-16_08h35.57.208,HF_wild_card,2022.2.4,Win32,59.61251863,599eedebec626e0001d53f19,64d2fd46c836a06233681665,64dc7c4c63a4fd7ffd42d9ff,,,,,,,decisionTrl,resources/DY.BMP,resources/DR.BMP,Door4,0.301851908,-0.000925954,1,0,0,1.3097,optionRight,60,10115,5,6,0,6,0,1,,,,,,,,,,,,,,,,,,,,,,,,,,,,,,,,,,,,,,,
,,,,,,,,2023-08-16_08h35.57.208,HF_wild_card,2022.2.4,Win32,59.61251863,599eedebec626e0001d53f19,64d2fd46c836a06233681665,64dc7c4c63a4fd7ffd42d9ff,,,,,,,decisionTrl,resources/DG.BMP,resources/DP.BMP,Door1,-0.264814801,-0.033333333,1,0,0,1.2092,optionLeft,30,10145,5,7,0,7,0,1,,,,,,,,,,,,,,,,,,,,,,,,,,,,,,,,,,,,,,,
,,,,,,,,2023-08-16_08h35.57.208,HF_wild_card,2022.2.4,Win32,59.61251863,599eedebec626e0001d53f19,64d2fd46c836a06233681665,64dc7c4c63a4fd7ffd42d9ff,,,,,,,ctch,resources/DP.BMP,resources/DY.BMP,Door3,0.283333333,0.023148134,1,0,0,1.0766,optionRight,70,10215,5,8,0,8,0,1,,,,,,,,,,,,,,,,,,,,,,,,,,,,,,,,,,,,,,,
,,,,,,,,2023-08-16_08h35.57.208,HF_wild_card,2022.2.4,Win32,59.61251863,599eedebec626e0001d53f19,64d2fd46c836a06233681665,64dc7c4c63a4fd7ffd42d9ff,,,,,,,decisionTrl,resources/DBN.BMP,resources/DR.BMP,Door4,0.247222222,0.024074046,1,0,0,1.0919,optionRight,60,10275,5,9,0,9,0,1,,,,,,,,,,,,,,,,,,,,,,,,,,,,,,,,,,,,,,,
,,,,,,,,2023-08-16_08h35.57.208,HF_wild_card,2022.2.4,Win32,59.61251863,599eedebec626e0001d53f19,64d2fd46c836a06233681665,64dc7c4c63a4fd7ffd42d9ff,,,,,,,decisionTrl,resources/DY.BMP,resources/DR.BMP,Door3,-0.30370369,-0.024074088,1,0,0,1.0763,optionLeft,70,10345,5,10,0,10,0,1,,,,,,,,,,,,,,,,,,,,,,,,,,,,,,,,,,,,,,,
,,,,,,,,2023-08-16_08h35.57.208,HF_wild_card,2022.2.4,Win32,59.61251863,599eedebec626e0001d53f19,64d2fd46c836a06233681665,64dc7c4c63a4fd7ffd42d9ff,,,,,,,decisionTrl,resources/DP.BMP,resources/DG.BMP,Door1,0.353703732,0.004629601,1,0,0,1.1923,optionRight,30,10375,5,11,0,11,0,1,,,,,,,,,,,,,,,,,,,,,,,,,,,,,,,,,,,,,,,
,,,,,,,,2023-08-16_08h35.57.208,HF_wild_card,2022.2.4,Win32,59.61251863,599eedebec626e0001d53f19,64d2fd46c836a06233681665,64dc7c4c63a4fd7ffd42d9ff,,,,,,,decisionTrl,resources/DP.BMP,resources/DG.BMP,Door1,0.346296353,0.004629601,1,0,0,1.0774,optionRight,30,10405,5,12,0,12,0,1,,,,,,,,,,,,,,,,,,,,,,,,,,,,,,,,,,,,,,,
,,,,,,,,2023-08-16_08h35.57.208,HF_wild_card,2022.2.4,Win32,59.61251863,599eedebec626e0001d53f19,64d2fd46c836a06233681665,64dc7c4c63a4fd7ffd42d9ff,,,,,,,decisionTrl,resources/DP.BMP,resources/DG.BMP,Door1,0.370370399,0.062037023,1,0,0,1.8754,optionRight,30,10435,5,13,0,13,0,1,,,,,,,,,,,,,,,,,,,,,,,,,,,,,,,,,,,,,,,
,,,,,,,,2023-08-16_08h35.57.208,HF_wild_card,2022.2.4,Win32,59.61251863,599eedebec626e0001d53f19,64d2fd46c836a06233681665,64dc7c4c63a4fd7ffd42d9ff,,,,,,,sngl,resources/DBN.BMP,resources/Empty.png,WildCard_Ex,-0.237037023,-0.009259288,1,0,0,0.8595,optionLeft,45,10480,5,14,0,14,0,1,,,,,,,,,,,,,,,,,,,,,,,,,,,,,,,,,,,,,,,
,,,,,,,,2023-08-16_08h35.57.208,HF_wild_card,2022.2.4,Win32,59.61251863,599eedebec626e0001d53f19,64d2fd46c836a06233681665,64dc7c4c63a4fd7ffd42d9ff,,,,,,,sngl,resources/DR.BMP,resources/Empty.png,Door4,-0.238888889,-0.03148151,1,0,0,0.892,optionLeft,80,10560,5,15,0,15,0,1,,,,,,,,,,,,,,,,,,,,,,,,,,,,,,,,,,,,,,,
,,,,,,,,2023-08-16_08h35.57.208,HF_wild_card,2022.2.4,Win32,59.61251863,599eedebec626e0001d53f19,64d2fd46c836a06233681665,64dc7c4c63a4fd7ffd42d9ff,,,,,,,decisionTrl,resources/DP.BMP,resources/DBN.BMP,WildCard_Ex,0.287037065,0.054629601,1,0,0,1.3599,optionRight,45,10605,5,16,0,16,0,1,,,,,,,,,,,,,,,,,,,,,,,,,,,,,,,,,,,,,,,
,,,,,,,,2023-08-16_08h35.57.208,HF_wild_card,2022.2.4,Win32,59.61251863,599eedebec626e0001d53f19,64d2fd46c836a06233681665,64dc7c4c63a4fd7ffd42d9ff,,,,,,,decisionTrl,resources/DR.BMP,resources/DY.BMP,Door4,-0.399074046,-0.047222222,1,0,0,1.8935,optionLeft,60,10665,5,17,0,17,0,1,,,,,,,,,,,,,,,,,,,,,,,,,,,,,,,,,,,,,,,
,,,,,,,,2023-08-16_08h35.57.208,HF_wild_card,2022.2.4,Win32,59.61251863,599eedebec626e0001d53f19,64d2fd46c836a06233681665,64dc7c4c63a4fd7ffd42d9ff,,,,,,,sngl,resources/DG.BMP,resources/Empty.png,Door1,-0.280555556,-0.023148176,1,0,0,0.9079,optionLeft,30,10695,5,18,0,18,0,1,,,,,,,,,,,,,,,,,,,,,,,,,,,,,,,,,,,,,,,
,,,,,,,,2023-08-16_08h35.57.208,HF_wild_card,2022.2.4,Win32,59.61251863,599eedebec626e0001d53f19,64d2fd46c836a06233681665,64dc7c4c63a4fd7ffd42d9ff,,,,,,,sngl,resources/DY.BMP,resources/Empty.png,Door3,-0.290740712,-0.044444444,1,0,0,0.8684,optionLeft,70,10765,5,19,0,19,0,1,,,,,,,,,,,,,,,,,,,,,,,,,,,,,,,,,,,,,,,
,,,,,,,,2023-08-16_08h35.57.208,HF_wild_card,2022.2.4,Win32,59.61251863,599eedebec626e0001d53f19,64d2fd46c836a06233681665,64dc7c4c63a4fd7ffd42d9ff,,,,,,,ctch,resources/DR.BMP,resources/DG.BMP,Door4,-0.332407379,-0.043518533,1,0,0,0.9703,optionLeft,60,10825,5,20,0,20,0,1,,,,,,,,,,,,,,,,,,,,,,,,,,,,,,,,,,,,,,,
,,,,,,,,2023-08-16_08h35.57.208,HF_wild_card,2022.2.4,Win32,59.61251863,599eedebec626e0001d53f19,64d2fd46c836a06233681665,64dc7c4c63a4fd7ffd42d9ff,,,,,,,ctch,resources/DP.BMP,resources/DY.BMP,Door3,0.362037065,0.007407379,1,0,0,0.9096,optionRight,70,10895,5,21,0,21,0,1,,,,,,,,,,,,,,,,,,,,,,,,,,,,,,,,,,,,,,,
,,,,,,,,2023-08-16_08h35.57.208,HF_wild_card,2022.2.4,Win32,59.61251863,599eedebec626e0001d53f19,64d2fd46c836a06233681665,64dc7c4c63a4fd7ffd42d9ff,,,,,,,sngl,resources/DBN.BMP,resources/Empty.png,WildCard_Ex,-0.306481467,-0.035185199,1,0,0,0.7765,optionLeft,55,10950,5,22,0,22,0,1,,,,,,,,,,,,,,,,,,,,,,,,,,,,,,,,,,,,,,,
,,,,,,,,2023-08-16_08h35.57.208,HF_wild_card,2022.2.4,Win32,59.61251863,599eedebec626e0001d53f19,64d2fd46c836a06233681665,64dc7c4c63a4fd7ffd42d9ff,,,,,,,decisionTrl,resources/DR.BMP,resources/DY.BMP,Door3,0.273148176,0.004629601,1,0,0,0.8363,optionRight,70,11020,5,23,0,23,0,1,,,,,,,,,,,,,,,,,,,,,,,,,,,,,,,,,,,,,,,
,,,,,,,,2023-08-16_08h35.57.208,HF_wild_card,2022.2.4,Win32,59.61251863,599eedebec626e0001d53f19,64d2fd46c836a06233681665,64dc7c4c63a4fd7ffd42d9ff,,,,,,,decisionTrl,resources/DY.BMP,resources/DR.BMP,Door3,-0.259259245,-0.043518533,1,0,0,1.1267,optionLeft,70,11090,5,24,0,24,0,1,,,,,,,,,,,,,,,,,,,,,,,,,,,,,,,,,,,,,,,
,,,,,,,,2023-08-16_08h35.57.208,HF_wild_card,2022.2.4,Win32,59.61251863,599eedebec626e0001d53f19,64d2fd46c836a06233681665,64dc7c4c63a4fd7ffd42d9ff,,,,,,,sngl,resources/Empty.png,resources/DR.BMP,Door4,0.299074131,0.029629601,1,0,0,0.8439,optionRight,60,11150,5,25,0,25,0,1,,,,,,,,,,,,,,,,,,,,,,,,,,,,,,,,,,,,,,,
,,,,,,,,2023-08-16_08h35.57.208,HF_wild_card,2022.2.4,Win32,59.61251863,599eedebec626e0001d53f19,64d2fd46c836a06233681665,64dc7c4c63a4fd7ffd42d9ff,,,,,,,sngl,resources/Empty.png,resources/DY.BMP,Door3,0.40648151,0.037037023,1,0,0,0.9269,optionRight,70,11220,5,26,0,26,0,1,,,,,,,,,,,,,,,,,,,,,,,,,,,,,,,,,,,,,,,
,,,,,,,,2023-08-16_08h35.57.208,HF_wild_card,2022.2.4,Win32,59.61251863,599eedebec626e0001d53f19,64d2fd46c836a06233681665,64dc7c4c63a4fd7ffd42d9ff,,,,,,,ctch,resources/DG.BMP,resources/DR.BMP,Door4,0.251851908,0.012962935,1,0,0,0.8763,optionRight,80,11300,5,27,0,27,0,1,,,,,,,,,,,,,,,,,,,,,,,,,,,,,,,,,,,,,,,
,,,,,,,,2023-08-16_08h35.57.208,HF_wild_card,2022.2.4,Win32,59.61251863,599eedebec626e0001d53f19,64d2fd46c836a06233681665,64dc7c4c63a4fd7ffd42d9ff,,,,,,,sngl,resources/DP.BMP,resources/Empty.png,Door2,-0.263888889,-0.019444444,1,0,0,0.7776,optionLeft,40,11340,5,28,0,28,0,1,,,,,,,,,,,,,,,,,,,,,,,,,,,,,,,,,,,,,,,
,,,,,,,,2023-08-16_08h35.57.208,HF_wild_card,2022.2.4,Win32,59.61251863,599eedebec626e0001d53f19,64d2fd46c836a06233681665,64dc7c4c63a4fd7ffd42d9ff,,,,,,,decisionTrl,resources/DY.BMP,resources/DBN.BMP,Door3,-0.292592578,-0.025,1,0,0,1.059,optionLeft,70,11410,5,29,0,29,0,1,,,,,,,,,,,,,,,,,,,,,,,,,,,,,,,,,,,,,,,
,,,,,,,,2023-08-16_08h35.57.208,HF_wild_card,2022.2.4,Win32,59.61251863,599eedebec626e0001d53f19,64d2fd46c836a06233681665,64dc7c4c63a4fd7ffd42d9ff,,,,,,,decisionTrl,resources/DBN.BMP,resources/DP.BMP,WildCard_Ex,-0.327777778,-0.054629644,1,0,0,1.049,optionLeft,45,11455,5,30,0,30,0,1,,,,,,,,,,,,,,,,,,,,,,,,,,,,,,,,,,,,,,,
,,,,,,,,2023-08-16_08h35.57.208,HF_wild_card,2022.2.4,Win32,59.61251863,599eedebec626e0001d53f19,64d2fd46c836a06233681665,64dc7c4c63a4fd7ffd42d9ff,,,,,,,decisionTrl,resources/DG.BMP,resources/DP.BMP,Door2,0.307407464,0.038888889,1,0,0,0.9262,optionRight,20,11475,5,31,0,31,0,1,,,,,,,,,,,,,,,,,,,,,,,,,,,,,,,,,,,,,,,
,,,,,,,,2023-08-16_08h35.57.208,HF_wild_card,2022.2.4,Win32,59.61251863,599eedebec626e0001d53f19,64d2fd46c836a06233681665,64dc7c4c63a4fd7ffd42d9ff,,,,,,,ctch,resources/DG.BMP,resources/DR.BMP,Door4,0.247222222,0.022222222,1,0,0,1.0417,optionRight,60,11535,5,32,0,32,0,1,,,,,,,,,,,,,,,,,,,,,,,,,,,,,,,,,,,,,,,
,,,,,,,,2023-08-16_08h35.57.208,HF_wild_card,2022.2.4,Win32,59.61251863,599eedebec626e0001d53f19,64d2fd46c836a06233681665,64dc7c4c63a4fd7ffd42d9ff,,,,,,,ctch,resources/DR.BMP,resources/DG.BMP,Door4,-0.327777778,-0.030555556,1,0,0,0.8598,optionLeft,80,11615,5,33,0,33,0,1,,,,,,,,,,,,,,,,,,,,,,,,,,,,,,,,,,,,,,,
,,,,,,,,2023-08-16_08h35.57.208,HF_wild_card,2022.2.4,Win32,59.61251863,599eedebec626e0001d53f19,64d2fd46c836a06233681665,64dc7c4c63a4fd7ffd42d9ff,,,,,,,sngl,resources/Empty.png,resources/DBN.BMP,WildCard_Ex,0.3,0.030555556,1,0,0,0.8434,optionRight,45,11660,5,34,0,34,0,1,,,,,,,,,,,,,,,,,,,,,,,,,,,,,,,,,,,,,,,
,,,,,,,,2023-08-16_08h35.57.208,HF_wild_card,2022.2.4,Win32,59.61251863,599eedebec626e0001d53f19,64d2fd46c836a06233681665,64dc7c4c63a4fd7ffd42d9ff,,,,,,,decisionTrl,resources/DG.BMP,resources/DP.BMP,Door1,-0.26851849,-0.038888889,1,0,0,1.2267,optionLeft,30,11690,5,35,0,35,0,1,,,,,,,,,,,,,,,,,,,,,,,,,,,,,,,,,,,,,,,
,,,,,,,,2023-08-16_08h35.57.208,HF_wild_card,2022.2.4,Win32,59.61251863,599eedebec626e0001d53f19,64d2fd46c836a06233681665,64dc7c4c63a4fd7ffd42d9ff,,,,,,,sngl,resources/Empty.png,resources/DP.BMP,Door2,0.279629686,0.002777778,1,0,0,0.8253,optionRight,20,11710,5,36,0,36,0,1,,,,,,,,,,,,,,,,,,,,,,,,,,,,,,,,,,,,,,,
,,,,,,,,2023-08-16_08h35.57.208,HF_wild_card,2022.2.4,Win32,59.61251863,599eedebec626e0001d53f19,64d2fd46c836a06233681665,64dc7c4c63a4fd7ffd42d9ff,,,,,,,sngl,resources/Empty.png,resources/DG.BMP,Door1,0.243518575,0.014814801,1,0,0,0.7775,optionRight,30,11740,5,37,0,37,0,1,,,,,,,,,,,,,,,,,,,,,,,,,,,,,,,,,,,,,,,
,,,,,,,,2023-08-16_08h35.57.208,HF_wild_card,2022.2.4,Win32,59.61251863,599eedebec626e0001d53f19,64d2fd46c836a06233681665,64dc7c4c63a4fd7ffd42d9ff,,,,,,,ctch,resources/DY.BMP,resources/DP.BMP,Door3,-0.306481467,-0.061111111,1,0,0,1.2084,optionLeft,70,11810,5,38,0,38,0,1,,,,,,,,,,,,,,,,,,,,,,,,,,,,,,,,,,,,,,,
,,,,,,,,2023-08-16_08h35.57.208,HF_wild_card,2022.2.4,Win32,59.61251863,599eedebec626e0001d53f19,64d2fd46c836a06233681665,64dc7c4c63a4fd7ffd42d9ff,,,,,,,ctch,resources/DY.BMP,resources/DP.BMP,Door3,-0.269444444,-0.034259288,1,0,0,1.0095,optionLeft,70,11880,5,39,0,39,0,1,,,,,,,,,,,,,,,,,,,,,,,,,,,,,,,,,,,,,,,
,,,,,,,,2023-08-16_08h35.57.208,HF_wild_card,2022.2.4,Win32,59.61251863,599eedebec626e0001d53f19,64d2fd46c836a06233681665,64dc7c4c63a4fd7ffd42d9ff,,,,,,,decisionTrl,resources/DG.BMP,resources/DP.BMP,Door1,-0.308333333,-0.005555556,1,0,0,1.9141,optionLeft,30,11910,5,40,0,40,0,1,,,,,,,,,,,,,,,,,,,,,,,,,,,,,,,,,,,,,,,
,,,,,,,,2023-08-16_08h35.57.208,HF_wild_card,2022.2.4,Win32,59.61251863,599eedebec626e0001d53f19,64d2fd46c836a06233681665,64dc7c4c63a4fd7ffd42d9ff,,,,,,,decisionTrl,resources/DP.BMP,resources/DG.BMP,Door1,0.332407464,0.064814801,1,0,0,1.2906,optionRight,30,11940,5,41,0,41,0,1,,,,,,,,,,,,,,,,,,,,,,,,,,,,,,,,,,,,,,,
,,,,,,,,2023-08-16_08h35.57.208,HF_wild_card,2022.2.4,Win32,59.61251863,599eedebec626e0001d53f19,64d2fd46c836a06233681665,64dc7c4c63a4fd7ffd42d9ff,,,,,,,decisionTrl,resources/DBN.BMP,resources/DY.BMP,Door3,0.389814843,0.050925912,1,0,0,1.7929,optionRight,70,12010,5,42,0,42,0,1,,,,,,,,,,,,,,,,,,,,,,,,,,,,,,,,,,,,,,,
,,,,,,,,2023-08-16_08h35.57.208,HF_wild_card,2022.2.4,Win32,59.61251863,599eedebec626e0001d53f19,64d2fd46c836a06233681665,64dc7c4c63a4fd7ffd42d9ff,,,,,,,decisionTrl,resources/DY.BMP,resources/DR.BMP,Door3,-0.249074046,-0.037962977,1,0,0,3.0753,optionLeft,70,12080,5,43,0,43,0,1,,,,,,,,,,,,,,,,,,,,,,,,,,,,,,,,,,,,,,,
,,,,,,,,2023-08-16_08h35.57.208,HF_wild_card,2022.2.4,Win32,59.61251863,599eedebec626e0001d53f19,64d2fd46c836a06233681665,64dc7c4c63a4fd7ffd42d9ff,,,,,,,,,,,,,,,,,,,,,,,,,,4,0,4,0,1,,,,,,,,,,,,,,,,,,,,,,,,,,,,,,,,,,
,,,,,,,,2023-08-16_08h35.57.208,HF_wild_card,2022.2.4,Win32,59.61251863,599eedebec626e0001d53f19,64d2fd46c836a06233681665,64dc7c4c63a4fd7ffd42d9ff,,,,,,,decisionTrl,resources/DY.BMP,resources/DR.BMP,Door4,0.234259288,0.001851824,1,0,0,1.4218,optionRight,60,12140,6,0,0,0,0,1,,,,,,,,,,,,,,,,,,,,,,,,,,,,,,,,,,,,,,,
,,,,,,,,2023-08-16_08h35.57.208,HF_wild_card,2022.2.4,Win32,59.61251863,599eedebec626e0001d53f19,64d2fd46c836a06233681665,64dc7c4c63a4fd7ffd42d9ff,,,,,,,decisionTrl,resources/DP.BMP,resources/DBN.BMP,WildCard_Ex,0.296296353,0.017592578,1,0,0,1.7253,optionRight,55,12195,6,1,0,1,0,1,,,,,,,,,,,,,,,,,,,,,,,,,,,,,,,,,,,,,,,
,,,,,,,,2023-08-16_08h35.57.208,HF_wild_card,2022.2.4,Win32,59.61251863,599eedebec626e0001d53f19,64d2fd46c836a06233681665,64dc7c4c63a4fd7ffd42d9ff,,,,,,,sngl,resources/Empty.png,resources/DBN.BMP,WildCard_Ex,0.327777778,0.044444444,1,0,0,0.8439,optionRight,45,12240,6,2,0,2,0,1,,,,,,,,,,,,,,,,,,,,,,,,,,,,,,,,,,,,,,,
,,,,,,,,2023-08-16_08h35.57.208,HF_wild_card,2022.2.4,Win32,59.61251863,599eedebec626e0001d53f19,64d2fd46c836a06233681665,64dc7c4c63a4fd7ffd42d9ff,,,,,,,decisionTrl,resources/DG.BMP,resources/DP.BMP,Door1,-0.329629601,-0.036111111,1,0,0,1.3494,optionLeft,30,12270,6,3,0,3,0,1,,,,,,,,,,,,,,,,,,,,,,,,,,,,,,,,,,,,,,,
,,,,,,,,2023-08-16_08h35.57.208,HF_wild_card,2022.2.4,Win32,59.61251863,599eedebec626e0001d53f19,64d2fd46c836a06233681665,64dc7c4c63a4fd7ffd42d9ff,,,,,,,decisionTrl,resources/DP.BMP,resources/DG.BMP,Door1,0.30648151,0.033333333,1,0,0,1.2867,optionRight,30,12300,6,4,0,4,0,1,,,,,,,,,,,,,,,,,,,,,,,,,,,,,,,,,,,,,,,
,,,,,,,,2023-08-16_08h35.57.208,HF_wild_card,2022.2.4,Win32,59.61251863,599eedebec626e0001d53f19,64d2fd46c836a06233681665,64dc7c4c63a4fd7ffd42d9ff,,,,,,,sngl,resources/DY.BMP,resources/Empty.png,Door3,-0.213888889,-0.018518533,1,0,0,0.8766,optionLeft,70,12370,6,5,0,5,0,1,,,,,,,,,,,,,,,,,,,,,,,,,,,,,,,,,,,,,,,
,,,,,,,,2023-08-16_08h35.57.208,HF_wild_card,2022.2.4,Win32,59.61251863,599eedebec626e0001d53f19,64d2fd46c836a06233681665,64dc7c4c63a4fd7ffd42d9ff,,,,,,,sngl,resources/Empty.png,resources/DG.BMP,Door1,0.321296353,0.017592578,1,0,0,0.942,optionRight,30,12400,6,6,0,6,0,1,,,,,,,,,,,,,,,,,,,,,,,,,,,,,,,,,,,,,,,
,,,,,,,,2023-08-16_08h35.57.208,HF_wild_card,2022.2.4,Win32,59.61251863,599eedebec626e0001d53f19,64d2fd46c836a06233681665,64dc7c4c63a4fd7ffd42d9ff,,,,,,,decisionTrl,resources/DP.BMP,resources/DG.BMP,Door1,0.275925954,0.031481467,1,0,0,1.277,optionRight,30,12430,6,7,0,7,0,1,,,,,,,,,,,,,,,,,,,,,,,,,,,,,,,,,,,,,,,
,,,,,,,,2023-08-16_08h35.57.208,HF_wild_card,2022.2.4,Win32,59.61251863,599eedebec626e0001d53f19,64d2fd46c836a06233681665,64dc7c4c63a4fd7ffd42d9ff,,,,,,,decisionTrl,resources/DBN.BMP,resources/DP.BMP,WildCard_Ex,-0.297222222,-0.037037065,1,0,0,1.4435,optionLeft,55,12485,6,8,0,8,0,1,,,,,,,,,,,,,,,,,,,,,,,,,,,,,,,,,,,,,,,
,,,,,,,,2023-08-16_08h35.57.208,HF_wild_card,2022.2.4,Win32,59.61251863,599eedebec626e0001d53f19,64d2fd46c836a06233681665,64dc7c4c63a4fd7ffd42d9ff,,,,,,,decisionTrl,resources/DR.BMP,resources/DY.BMP,Door3,0.278703732,0.033333333,1,0,0,1.7914,optionRight,70,12555,6,9,0,9,0,1,,,,,,,,,,,,,,,,,,,,,,,,,,,,,,,,,,,,,,,
,,,,,,,,2023-08-16_08h35.57.208,HF_wild_card,2022.2.4,Win32,59.61251863,599eedebec626e0001d53f19,64d2fd46c836a06233681665,64dc7c4c63a4fd7ffd42d9ff,,,,,,,decisionTrl,resources/DP.BMP,resources/DG.BMP,Door1,0.313888889,0.004629601,1,0,0,1.0912,optionRight,30,12585,6,10,0,10,0,1,,,,,,,,,,,,,,,,,,,,,,,,,,,,,,,,,,,,,,,
,,,,,,,,2023-08-16_08h35.57.208,HF_wild_card,2022.2.4,Win32,59.61251863,599eedebec626e0001d53f19,64d2fd46c836a06233681665,64dc7c4c63a4fd7ffd42d9ff,,,,,,,decisionTrl,resources/DR.BMP,resources/DY.BMP,Door3,0.325925954,0.008333333,1,0,0,1.2767,optionRight,70,12655,6,11,0,11,0,1,,,,,,,,,,,,,,,,,,,,,,,,,,,,,,,,,,,,,,,
,,,,,,,,2023-08-16_08h35.57.208,HF_wild_card,2022.2.4,Win32,59.61251863,599eedebec626e0001d53f19,64d2fd46c836a06233681665,64dc7c4c63a4fd7ffd42d9ff,,,,,,,ctch,resources/DY.BMP,resources/DP.BMP,Door3,-0.141666667,-0.025925954,1,0,0,0.9924,optionLeft,70,12725,6,12,0,12,0,1,,,,,,,,,,,,,,,,,,,,,,,,,,,,,,,,,,,,,,,
,,,,,,,,2023-08-16_08h35.57.208,HF_wild_card,2022.2.4,Win32,59.61251863,599eedebec626e0001d53f19,64d2fd46c836a06233681665,64dc7c4c63a4fd7ffd42d9ff,,,,,,,decisionTrl,resources/DG.BMP,resources/DP.BMP,Door1,-0.395370356,-0.122222222,1,0,0,1.9242,optionLeft,30,12755,6,13,0,13,0,1,,,,,,,,,,,,,,,,,,,,,,,,,,,,,,,,,,,,,,,
,,,,,,,,2023-08-16_08h35.57.208,HF_wild_card,2022.2.4,Win32,59.61251863,599eedebec626e0001d53f19,64d2fd46c836a06233681665,64dc7c4c63a4fd7ffd42d9ff,,,,,,,decisionTrl,resources/DG.BMP,resources/DP.BMP,Door1,-0.357407379,-0.066666667,1,0,0,0.9447,optionLeft,30,12785,6,14,0,14,0,1,,,,,,,,,,,,,,,,,,,,,,,,,,,,,,,,,,,,,,,
,,,,,,,,2023-08-16_08h35.57.208,HF_wild_card,2022.2.4,Win32,59.61251863,599eedebec626e0001d53f19,64d2fd46c836a06233681665,64dc7c4c63a4fd7ffd42d9ff,,,,,,,ctch,resources/DP.BMP,resources/DY.BMP,Door3,0.309259288,0.032407379,1,0,0,0.927,optionRight,70,12855,6,15,0,15,0,1,,,,,,,,,,,,,,,,,,,,,,,,,,,,,,,,,,,,,,,
,,,,,,,,2023-08-16_08h35.57.208,HF_wild_card,2022.2.4,Win32,59.61251863,599eedebec626e0001d53f19,64d2fd46c836a06233681665,64dc7c4c63a4fd7ffd42d9ff,,,,,,,ctch,resources/DG.BMP,resources/DR.BMP,Door4,0.325925954,0.025925912,1,0,0,1.442,optionRight,80,12935,6,16,0,16,0,1,,,,,,,,,,,,,,,,,,,,,,,,,,,,,,,,,,,,,,,
,,,,,,,,2023-08-16_08h35.57.208,HF_wild_card,2022.2.4,Win32,59.61251863,599eedebec626e0001d53f19,64d2fd46c836a06233681665,64dc7c4c63a4fd7ffd42d9ff,,,,,,,sngl,resources/DBN.BMP,resources/Empty.png,WildCard_Ex,-0.279629601,-0.004629644,1,0,0,0.7854,optionLeft,55,12990,6,17,0,17,0,1,,,,,,,,,,,,,,,,,,,,,,,,,,,,,,,,,,,,,,,
,,,,,,,,2023-08-16_08h35.57.208,HF_wild_card,2022.2.4,Win32,59.61251863,599eedebec626e0001d53f19,64d2fd46c836a06233681665,64dc7c4c63a4fd7ffd42d9ff,,,,,,,ctch,resources/DY.BMP,resources/DP.BMP,Door3,-0.250925912,-0.025,1,0,0,1.0451,optionLeft,70,13060,6,18,0,18,0,1,,,,,,,,,,,,,,,,,,,,,,,,,,,,,,,,,,,,,,,
,,,,,,,,2023-08-16_08h35.57.208,HF_wild_card,2022.2.4,Win32,59.61251863,599eedebec626e0001d53f19,64d2fd46c836a06233681665,64dc7c4c63a4fd7ffd42d9ff,,,,,,,decisionTrl,resources/DG.BMP,resources/DP.BMP,Door1,-0.213888889,-0.05648151,1,0,0,2.3746,optionLeft,30,13090,6,19,0,19,0,1,,,,,,,,,,,,,,,,,,,,,,,,,,,,,,,,,,,,,,,
,,,,,,,,2023-08-16_08h35.57.208,HF_wild_card,2022.2.4,Win32,59.61251863,599eedebec626e0001d53f19,64d2fd46c836a06233681665,64dc7c4c63a4fd7ffd42d9ff,,,,,,,decisionTrl,resources/DR.BMP,resources/DBN.BMP,Door4,-0.267592578,-0.025925954,1,0,0,1.0256,optionLeft,80,13170,6,20,0,20,0,1,,,,,,,,,,,,,,,,,,,,,,,,,,,,,,,,,,,,,,,
,,,,,,,,2023-08-16_08h35.57.208,HF_wild_card,2022.2.4,Win32,59.61251863,599eedebec626e0001d53f19,64d2fd46c836a06233681665,64dc7c4c63a4fd7ffd42d9ff,,,,,,,decisionTrl,resources/DR.BMP,resources/DY.BMP,Door3,0.284259288,0.008333333,1,0,0,1.626,optionRight,70,13240,6,21,0,21,0,1,,,,,,,,,,,,,,,,,,,,,,,,,,,,,,,,,,,,,,,
,,,,,,,,2023-08-16_08h35.57.208,HF_wild_card,2022.2.4,Win32,59.61251863,599eedebec626e0001d53f19,64d2fd46c836a06233681665,64dc7c4c63a4fd7ffd42d9ff,,,,,,,sngl,resources/Empty.png,resources/DY.BMP,Door3,0.353703732,0.026851824,1,0,0,0.8591,optionRight,70,13310,6,22,0,22,0,1,,,,,,,,,,,,,,,,,,,,,,,,,,,,,,,,,,,,,,,
,,,,,,,,2023-08-16_08h35.57.208,HF_wild_card,2022.2.4,Win32,59.61251863,599eedebec626e0001d53f19,64d2fd46c836a06233681665,64dc7c4c63a4fd7ffd42d9ff,,,,,,,ctch,resources/DG.BMP,resources/DR.BMP,Door4,0.305555556,0.035185157,1,0,0,0.9937,optionRight,60,13370,6,23,0,23,0,1,,,,,,,,,,,,,,,,,,,,,,,,,,,,,,,,,,,,,,,
,,,,,,,,2023-08-16_08h35.57.208,HF_wild_card,2022.2.4,Win32,59.61251863,599eedebec626e0001d53f19,64d2fd46c836a06233681665,64dc7c4c63a4fd7ffd42d9ff,,,,,,,sngl,resources/Empty.png,resources/DP.BMP,Door2,0.303703732,0.033333333,1,0,0,0.8426,optionRight,40,13410,6,24,0,24,0,1,,,,,,,,,,,,,,,,,,,,,,,,,,,,,,,,,,,,,,,
,,,,,,,,2023-08-16_08h35.57.208,HF_wild_card,2022.2.4,Win32,59.61251863,599eedebec626e0001d53f19,64d2fd46c836a06233681665,64dc7c4c63a4fd7ffd42d9ff,,,,,,,decisionTrl,resources/DBN.BMP,resources/DR.BMP,Door4,0.369444444,0.033333333,1,0,0,1.1258,optionRight,80,13490,6,25,0,25,0,1,,,,,,,,,,,,,,,,,,,,,,,,,,,,,,,,,,,,,,,
,,,,,,,,2023-08-16_08h35.57.208,HF_wild_card,2022.2.4,Win32,59.61251863,599eedebec626e0001d53f19,64d2fd46c836a06233681665,64dc7c4c63a4fd7ffd42d9ff,,,,,,,decisionTrl,resources/DY.BMP,resources/DBN.BMP,Door3,-0.234259245,-0.037962977,1,0,0,0.9089,optionLeft,70,13560,6,26,0,26,0,1,,,,,,,,,,,,,,,,,,,,,,,,,,,,,,,,,,,,,,,
,,,,,,,,2023-08-16_08h35.57.208,HF_wild_card,2022.2.4,Win32,59.61251863,599eedebec626e0001d53f19,64d2fd46c836a06233681665,64dc7c4c63a4fd7ffd42d9ff,,,,,,,decisionTrl,resources/DBN.BMP,resources/DG.BMP,Door1,0.243518575,0.022222222,1,0,0,0.9266,optionRight,30,13590,6,27,0,27,0,1,,,,,,,,,,,,,,,,,,,,,,,,,,,,,,,,,,,,,,,
,,,,,,,,2023-08-16_08h35.57.208,HF_wild_card,2022.2.4,Win32,59.61251863,599eedebec626e0001d53f19,64d2fd46c836a06233681665,64dc7c4c63a4fd7ffd42d9ff,,,,,,,decisionTrl,resources/DY.BMP,resources/DR.BMP,Door4,0.300925954,0.014814801,1,0,0,1.2055,optionRight,60,13650,6,28,0,28,0,1,,,,,,,,,,,,,,,,,,,,,,,,,,,,,,,,,,,,,,,
,,,,,,,,2023-08-16_08h35.57.208,HF_wild_card,2022.2.4,Win32,59.61251863,599eedebec626e0001d53f19,64d2fd46c836a06233681665,64dc7c4c63a4fd7ffd42d9ff,,,,,,,ctch,resources/DR.BMP,resources/DG.BMP,Door4,-0.247222222,-0.023148176,1,0,0,1.0075,optionLeft,60,13710,6,29,0,29,0,1,,,,,,,,,,,,,,,,,,,,,,,,,,,,,,,,,,,,,,,
,,,,,,,,2023-08-16_08h35.57.208,HF_wild_card,2022.2.4,Win32,59.61251863,599eedebec626e0001d53f19,64d2fd46c836a06233681665,64dc7c4c63a4fd7ffd42d9ff,,,,,,,sngl,resources/DBN.BMP,resources/Empty.png,WildCard_Ex,-0.225,-0.017592621,1,0,0,0.9092,optionLeft,45,13755,6,30,0,30,0,1,,,,,,,,,,,,,,,,,,,,,,,,,,,,,,,,,,,,,,,
,,,,,,,,2023-08-16_08h35.57.208,HF_wild_card,2022.2.4,Win32,59.61251863,599eedebec626e0001d53f19,64d2fd46c836a06233681665,64dc7c4c63a4fd7ffd42d9ff,,,,,,,sngl,resources/Empty.png,resources/DR.BMP,Door4,0.28148151,0.004629601,1,0,0,0.8929,optionRight,80,13835,6,31,0,31,0,1,,,,,,,,,,,,,,,,,,,,,,,,,,,,,,,,,,,,,,,
,,,,,,,,2023-08-16_08h35.57.208,HF_wild_card,2022.2.4,Win32,59.61251863,599eedebec626e0001d53f19,64d2fd46c836a06233681665,64dc7c4c63a4fd7ffd42d9ff,,,,,,,decisionTrl,resources/DP.BMP,resources/DG.BMP,Door1,0.397222222,0.040740712,1,0,0,2.3918,optionRight,30,13865,6,32,0,32,0,1,,,,,,,,,,,,,,,,,,,,,,,,,,,,,,,,,,,,,,,
,,,,,,,,2023-08-16_08h35.57.208,HF_wild_card,2022.2.4,Win32,59.61251863,599eedebec626e0001d53f19,64d2fd46c836a06233681665,64dc7c4c63a4fd7ffd42d9ff,,,,,,,ctch,resources/DR.BMP,resources/DG.BMP,Door4,-0.239814801,-0.040740755,1,0,0,1.3257,optionLeft,80,13945,6,33,0,33,0,1,,,,,,,,,,,,,,,,,,,,,,,,,,,,,,,,,,,,,,,
,,,,,,,,2023-08-16_08h35.57.208,HF_wild_card,2022.2.4,Win32,59.61251863,599eedebec626e0001d53f19,64d2fd46c836a06233681665,64dc7c4c63a4fd7ffd42d9ff,,,,,,,decisionTrl,resources/DY.BMP,resources/DR.BMP,Door4,0.284259288,0.014814801,1,0,0,1.0095,optionRight,60,14005,6,34,0,34,0,1,,,,,,,,,,,,,,,,,,,,,,,,,,,,,,,,,,,,,,,
,,,,,,,,2023-08-16_08h35.57.208,HF_wild_card,2022.2.4,Win32,59.61251863,599eedebec626e0001d53f19,64d2fd46c836a06233681665,64dc7c4c63a4fd7ffd42d9ff,,,,,,,decisionTrl,resources/DG.BMP,resources/DBN.BMP,WildCard_Ex,0.220370399,0.004629601,1,0,0,2.1703,optionRight,55,14060,6,35,0,35,0,1,,,,,,,,,,,,,,,,,,,,,,,,,,,,,,,,,,,,,,,
,,,,,,,,2023-08-16_08h35.57.208,HF_wild_card,2022.2.4,Win32,59.61251863,599eedebec626e0001d53f19,64d2fd46c836a06233681665,64dc7c4c63a4fd7ffd42d9ff,,,,,,,decisionTrl,resources/DY.BMP,resources/DR.BMP,Door3,-0.259259245,-0.02129631,1,0,0,1.8857,optionLeft,70,14130,6,36,0,36,0,1,,,,,,,,,,,,,,,,,,,,,,,,,,,,,,,,,,,,,,,
,,,,,,,,2023-08-16_08h35.57.208,HF_wild_card,2022.2.4,Win32,59.61251863,599eedebec626e0001d53f19,64d2fd46c836a06233681665,64dc7c4c63a4fd7ffd42d9ff,,,,,,,decisionTrl,resources/DR.BMP,resources/DY.BMP,Door3,0.287037065,-0.009259288,1,0,0,1.5588,optionRight,70,14200,6,37,0,37,0,1,,,,,,,,,,,,,,,,,,,,,,,,,,,,,,,,,,,,,,,
,,,,,,,,2023-08-16_08h35.57.208,HF_wild_card,2022.2.4,Win32,59.61251863,599eedebec626e0001d53f19,64d2fd46c836a06233681665,64dc7c4c63a4fd7ffd42d9ff,,,,,,,decisionTrl,resources/DBN.BMP,resources/DY.BMP,Door3,0.240740797,0.024074046,1,0,0,1.2925,optionRight,70,14270,6,38,0,38,0,1,,,,,,,,,,,,,,,,,,,,,,,,,,,,,,,,,,,,,,,
,,,,,,,,2023-08-16_08h35.57.208,HF_wild_card,2022.2.4,Win32,59.61251863,599eedebec626e0001d53f19,64d2fd46c836a06233681665,64dc7c4c63a4fd7ffd42d9ff,,,,,,,sngl,resources/DP.BMP,resources/Empty.png,Door2,-0.271296268,-0.037037065,1,0,0,5.7149,optionLeft,20,14290,6,39,0,39,0,1,,,,,,,,,,,,,,,,,,,,,,,,,,,,,,,,,,,,,,,
,,,,,,,,2023-08-16_08h35.57.208,HF_wild_card,2022.2.4,Win32,59.61251863,599eedebec626e0001d53f19,64d2fd46c836a06233681665,64dc7c4c63a4fd7ffd42d9ff,,,,,,,ctch,resources/DP.BMP,resources/DY.BMP,Door3,0.370370399,0.004629601,1,0,0,1.0277,optionRight,70,14360,6,40,0,40,0,1,,,,,,,,,,,,,,,,,,,,,,,,,,,,,,,,,,,,,,,
,,,,,,,,2023-08-16_08h35.57.208,HF_wild_card,2022.2.4,Win32,59.61251863,599eedebec626e0001d53f19,64d2fd46c836a06233681665,64dc7c4c63a4fd7ffd42d9ff,,,,,,,sngl,resources/DR.BMP,resources/Empty.png,Door4,-0.404629601,-0.054629644,1,0,0,0.7772,optionLeft,60,14420,6,41,0,41,0,1,,,,,,,,,,,,,,,,,,,,,,,,,,,,,,,,,,,,,,,
,,,,,,,,2023-08-16_08h35.57.208,HF_wild_card,2022.2.4,Win32,59.61251863,599eedebec626e0001d53f19,64d2fd46c836a06233681665,64dc7c4c63a4fd7ffd42d9ff,,,,,,,sngl,resources/DG.BMP,resources/Empty.png,Door1,-0.200925912,-0.007407422,1,0,0,0.8438,optionLeft,30,14450,6,42,0,42,0,1,,,,,,,,,,,,,,,,,,,,,,,,,,,,,,,,,,,,,,,
,,,,,,,,2023-08-16_08h35.57.208,HF_wild_card,2022.2.4,Win32,59.61251863,599eedebec626e0001d53f19,64d2fd46c836a06233681665,64dc7c4c63a4fd7ffd42d9ff,,,,,,,sngl,resources/Empty.png,resources/DBN.BMP,WildCard_Ex,0.345370399,0.025925912,1,0,0,0.8167,optionRight,55,14505,6,43,0,43,0,1,,,,,,,,,,,,,,,,,,,,,,,,,,,,,,,,,,,,,,,
,,,,,,,,2023-08-16_08h35.57.208,HF_wild_card,2022.2.4,Win32,59.61251863,599eedebec626e0001d53f19,64d2fd46c836a06233681665,64dc7c4c63a4fd7ffd42d9ff,,,,,,,,,,,,,,,,,,,,,,,,,,5,0,5,0,1,,,,,,,,,,,,,,,,,,,,,,,,,,,,,,,,,,
,,,,,,,,2023-08-16_08h35.57.208,HF_wild_card,2022.2.4,Win32,59.61251863,599eedebec626e0001d53f19,64d2fd46c836a06233681665,64dc7c4c63a4fd7ffd42d9ff,,,,,,,decisionTrl,resources/DG.BMP,resources/DP.BMP,Door1,-0.335185157,-0.09629631,1,0,0,1.295,optionLeft,30,14535,7,0,0,0,0,1,,,,,,,,,,,,,,,,,,,,,,,,,,,,,,,,,,,,,,,
,,,,,,,,2023-08-16_08h35.57.208,HF_wild_card,2022.2.4,Win32,59.61251863,599eedebec626e0001d53f19,64d2fd46c836a06233681665,64dc7c4c63a4fd7ffd42d9ff,,,,,,,decisionTrl,resources/DP.BMP,resources/DG.BMP,Door1,0.375,0.045370356,1,0,0,1.3443,optionRight,30,14565,7,1,0,1,0,1,,,,,,,,,,,,,,,,,,,,,,,,,,,,,,,,,,,,,,,
,,,,,,,,2023-08-16_08h35.57.208,HF_wild_card,2022.2.4,Win32,59.61251863,599eedebec626e0001d53f19,64d2fd46c836a06233681665,64dc7c4c63a4fd7ffd42d9ff,,,,,,,ctch,resources/DY.BMP,resources/DP.BMP,Door3,-0.265740712,-0.047222222,1,0,0,1.0293,optionLeft,70,14635,7,2,0,2,0,1,,,,,,,,,,,,,,,,,,,,,,,,,,,,,,,,,,,,,,,
,,,,,,,,2023-08-16_08h35.57.208,HF_wild_card,2022.2.4,Win32,59.61251863,599eedebec626e0001d53f19,64d2fd46c836a06233681665,64dc7c4c63a4fd7ffd42d9ff,,,,,,,ctch,resources/DG.BMP,resources/DR.BMP,Door4,0.335185242,0.023148134,1,0,0,0.8624,optionRight,60,14695,7,3,0,3,0,1,,,,,,,,,,,,,,,,,,,,,,,,,,,,,,,,,,,,,,,
,,,,,,,,2023-08-16_08h35.57.208,HF_wild_card,2022.2.4,Win32,59.61251863,599eedebec626e0001d53f19,64d2fd46c836a06233681665,64dc7c4c63a4fd7ffd42d9ff,,,,,,,decisionTrl,resources/DG.BMP,resources/DP.BMP,Door1,-0.248148134,-0.025925954,1,0,0,0.922,optionLeft,30,14725,7,4,0,4,0,1,,,,,,,,,,,,,,,,,,,,,,,,,,,,,,,,,,,,,,,
,,,,,,,,2023-08-16_08h35.57.208,HF_wild_card,2022.2.4,Win32,59.61251863,599eedebec626e0001d53f19,64d2fd46c836a06233681665,64dc7c4c63a4fd7ffd42d9ff,,,,,,,ctch,resources/DP.BMP,resources/DY.BMP,Door3,0.263888889,0.037962935,1,0,0,1.0957,optionRight,70,14795,7,5,0,5,0,1,,,,,,,,,,,,,,,,,,,,,,,,,,,,,,,,,,,,,,,
,,,,,,,,2023-08-16_08h35.57.208,HF_wild_card,2022.2.4,Win32,59.61251863,599eedebec626e0001d53f19,64d2fd46c836a06233681665,64dc7c4c63a4fd7ffd42d9ff,,,,,,,decisionTrl,resources/DR.BMP,resources/DY.BMP,Door4,-0.316666667,-0.041666667,1,0,0,1.1123,optionLeft,80,14875,7,6,0,6,0,1,,,,,,,,,,,,,,,,,,,,,,,,,,,,,,,,,,,,,,,
,,,,,,,,2023-08-16_08h35.57.208,HF_wild_card,2022.2.4,Win32,59.61251863,599eedebec626e0001d53f19,64d2fd46c836a06233681665,64dc7c4c63a4fd7ffd42d9ff,,,,,,,decisionTrl,resources/DY.BMP,resources/DR.BMP,Door3,-0.267592578,-0.038888889,1,0,0,1.0616,optionLeft,70,14945,7,7,0,7,0,1,,,,,,,,,,,,,,,,,,,,,,,,,,,,,,,,,,,,,,,
,,,,,,,,2023-08-16_08h35.57.208,HF_wild_card,2022.2.4,Win32,59.61251863,599eedebec626e0001d53f19,64d2fd46c836a06233681665,64dc7c4c63a4fd7ffd42d9ff,,,,,,,decisionTrl,resources/DG.BMP,resources/DP.BMP,Door1,-0.280555556,-0.037037065,1,0,0,1.0112,optionLeft,30,14975,7,8,0,8,0,1,,,,,,,,,,,,,,,,,,,,,,,,,,,,,,,,,,,,,,,
,,,,,,,,2023-08-16_08h35.57.208,HF_wild_card,2022.2.4,Win32,59.61251863,599eedebec626e0001d53f19,64d2fd46c836a06233681665,64dc7c4c63a4fd7ffd42d9ff,,,,,,,decisionTrl,resources/DY.BMP,resources/DR.BMP,Door3,-0.549074067,-0.054629644,1,0,0,3.009,optionLeft,70,15045,7,9,0,9,0,1,,,,,,,,,,,,,,,,,,,,,,,,,,,,,,,,,,,,,,,
,,,,,,,,2023-08-16_08h35.57.208,HF_wild_card,2022.2.4,Win32,59.61251863,599eedebec626e0001d53f19,64d2fd46c836a06233681665,64dc7c4c63a4fd7ffd42d9ff,,,,,,,ctch,resources/DG.BMP,resources/DR.BMP,Door4,0.38148151,0.014814801,1,0,0,1.0463,optionRight,60,15105,7,10,0,10,0,1,,,,,,,,,,,,,,,,,,,,,,,,,,,,,,,,,,,,,,,
,,,,,,,,2023-08-16_08h35.57.208,HF_wild_card,2022.2.4,Win32,59.61251863,599eedebec626e0001d53f19,64d2fd46c836a06233681665,64dc7c4c63a4fd7ffd42d9ff,,,,,,,decisionTrl,resources/DG.BMP,resources/DP.BMP,Door1,-0.334259245,-0.019444444,1,0,0,0.962,optionLeft,30,15135,7,11,0,11,0,1,,,,,,,,,,,,,,,,,,,,,,,,,,,,,,,,,,,,,,,
,,,,,,,,2023-08-16_08h35.57.208,HF_wild_card,2022.2.4,Win32,59.61251863,599eedebec626e0001d53f19,64d2fd46c836a06233681665,64dc7c4c63a4fd7ffd42d9ff,,,,,,,decisionTrl,resources/DR.BMP,resources/DY.BMP,Door3,0.354629686,-0.012962977,1,0,0,1.179,optionRight,70,15205,7,12,0,12,0,1,,,,,,,,,,,,,,,,,,,,,,,,,,,,,,,,,,,,,,,
,,,,,,,,2023-08-16_08h35.57.208,HF_wild_card,2022.2.4,Win32,59.61251863,599eedebec626e0001d53f19,64d2fd46c836a06233681665,64dc7c4c63a4fd7ffd42d9ff,,,,,,,ctch,resources/DY.BMP,resources/DP.BMP,Door3,-0.308333333,-0.029629644,1,0,0,1.0719,optionLeft,70,15275,7,13,0,13,0,1,,,,,,,,,,,,,,,,,,,,,,,,,,,,,,,,,,,,,,,
,,,,,,,,2023-08-16_08h35.57.208,HF_wild_card,2022.2.4,Win32,59.61251863,599eedebec626e0001d53f19,64d2fd46c836a06233681665,64dc7c4c63a4fd7ffd42d9ff,,,,,,,ctch,resources/DR.BMP,resources/DG.BMP,Door4,-0.294444444,-0.025925954,1,0,0,0.8795,optionLeft,80,15355,7,14,0,14,0,1,,,,,,,,,,,,,,,,,,,,,,,,,,,,,,,,,,,,,,,
,,,,,,,,2023-08-16_08h35.57.208,HF_wild_card,2022.2.4,Win32,59.61251863,599eedebec626e0001d53f19,64d2fd46c836a06233681665,64dc7c4c63a4fd7ffd42d9ff,,,,,,,decisionTrl,resources/DY.BMP,resources/DR.BMP,Door3,-0.233333333,-0.033333333,1,0,0,1.205,optionLeft,70,15425,7,15,0,15,0,1,,,,,,,,,,,,,,,,,,,,,,,,,,,,,,,,,,,,,,,
,,,,,,,,2023-08-16_08h35.57.208,HF_wild_card,2022.2.4,Win32,59.61251863,599eedebec626e0001d53f19,64d2fd46c836a06233681665,64dc7c4c63a4fd7ffd42d9ff,,,,,,,decisionTrl,resources/DP.BMP,resources/DG.BMP,Door1,0.187963019,-0.017592621,1,0,0,1.1472,optionRight,30,15455,7,16,0,16,0,1,,,,,,,,,,,,,,,,,,,,,,,,,,,,,,,,,,,,,,,
,,,,,,,,2023-08-16_08h35.57.208,HF_wild_card,2022.2.4,Win32,59.61251863,599eedebec626e0001d53f19,64d2fd46c836a06233681665,64dc7c4c63a4fd7ffd42d9ff,,,,,,,decisionTrl,resources/DY.BMP,resources/DR.BMP,Door3,-0.231481467,-0.009259288,1,0,0,1.3613,optionLeft,70,15525,7,17,0,17,0,1,,,,,,,,,,,,,,,,,,,,,,,,,,,,,,,,,,,,,,,
,,,,,,,,2023-08-16_08h35.57.208,HF_wild_card,2022.2.4,Win32,59.61251863,599eedebec626e0001d53f19,64d2fd46c836a06233681665,64dc7c4c63a4fd7ffd42d9ff,,,,,,,decisionTrl,resources/DP.BMP,resources/DG.BMP,Door1,0.296296353,0.012962935,1,0,0,1.1607,optionRight,30,15555,7,18,0,18,0,1,,,,,,,,,,,,,,,,,,,,,,,,,,,,,,,,,,,,,,,
,,,,,,,,2023-08-16_08h35.57.208,HF_wild_card,2022.2.4,Win32,59.61251863,599eedebec626e0001d53f19,64d2fd46c836a06233681665,64dc7c4c63a4fd7ffd42d9ff,,,,,,,decisionTrl,resources/DY.BMP,resources/DR.BMP,Door3,-0.295370356,-0.04629631,1,0,0,1.9277,optionLeft,70,15625,7,19,0,19,0,1,,,,,,,,,,,,,,,,,,,,,,,,,,,,,,,,,,,,,,,
,,,,,,,,2023-08-16_08h35.57.208,HF_wild_card,2022.2.4,Win32,59.61251863,599eedebec626e0001d53f19,64d2fd46c836a06233681665,64dc7c4c63a4fd7ffd42d9ff,,,,,,,decisionTrl,resources/DY.BMP,resources/DR.BMP,Door3,-0.308333333,-0.037037065,1,0,0,0.9488,optionLeft,70,15695,7,20,0,20,0,1,,,,,,,,,,,,,,,,,,,,,,,,,,,,,,,,,,,,,,,
,,,,,,,,2023-08-16_08h35.57.208,HF_wild_card,2022.2.4,Win32,59.61251863,599eedebec626e0001d53f19,64d2fd46c836a06233681665,64dc7c4c63a4fd7ffd42d9ff,,,,,,,decisionTrl,resources/DR.BMP,resources/DY.BMP,Door3,0.326851908,0.008333333,1,0,0,1.1954,optionRight,70,15765,7,21,0,21,0,1,,,,,,,,,,,,,,,,,,,,,,,,,,,,,,,,,,,,,,,
,,,,,,,,2023-08-16_08h35.57.208,HF_wild_card,2022.2.4,Win32,59.61251863,599eedebec626e0001d53f19,64d2fd46c836a06233681665,64dc7c4c63a4fd7ffd42d9ff,,,,,,,ctch,resources/DG.BMP,resources/DR.BMP,Door4,0.311111111,0.022222222,1,0,0,0.9435,optionRight,80,15845,7,22,0,22,0,1,,,,,,,,,,,,,,,,,,,,,,,,,,,,,,,,,,,,,,,
,,,,,,,,2023-08-16_08h35.57.208,HF_wild_card,2022.2.4,Win32,59.61251863,599eedebec626e0001d53f19,64d2fd46c836a06233681665,64dc7c4c63a4fd7ffd42d9ff,,,,,,,decisionTrl,resources/DG.BMP,resources/DP.BMP,Door1,-0.309259245,-0.039814843,1,0,0,0.8792,optionLeft,30,15875,7,23,0,23,0,1,,,,,,,,,,,,,,,,,,,,,,,,,,,,,,,,,,,,,,,
,,,,,,,,2023-08-16_08h35.57.208,HF_wild_card,2022.2.4,Win32,59.61251863,599eedebec626e0001d53f19,64d2fd46c836a06233681665,64dc7c4c63a4fd7ffd42d9ff,,,,,,,decisionTrl,resources/DR.BMP,resources/DY.BMP,Door3,0.333333333,0.025925912,1,0,0,1.3607,optionRight,70,15945,7,24,0,24,0,1,,,,,,,,,,,,,,,,,,,,,,,,,,,,,,,,,,,,,,,
,,,,,,,,2023-08-16_08h35.57.208,HF_wild_card,2022.2.4,Win32,59.61251863,599eedebec626e0001d53f19,64d2fd46c836a06233681665,64dc7c4c63a4fd7ffd42d9ff,,,,,,,decisionTrl,resources/DR.BMP,resources/DY.BMP,Door3,0.310185242,0.008333333,1,0,0,0.9132,optionRight,70,16015,7,25,0,25,0,1,,,,,,,,,,,,,,,,,,,,,,,,,,,,,,,,,,,,,,,
,,,,,,,,2023-08-16_08h35.57.208,HF_wild_card,2022.2.4,Win32,59.61251863,599eedebec626e0001d53f19,64d2fd46c836a06233681665,64dc7c4c63a4fd7ffd42d9ff,,,,,,,decisionTrl,resources/DG.BMP,resources/DP.BMP,Door1,-0.327777778,-0.049074088,1,0,0,1.0055,optionLeft,30,16045,7,26,0,26,0,1,,,,,,,,,,,,,,,,,,,,,,,,,,,,,,,,,,,,,,,
,,,,,,,,2023-08-16_08h35.57.208,HF_wild_card,2022.2.4,Win32,59.61251863,599eedebec626e0001d53f19,64d2fd46c836a06233681665,64dc7c4c63a4fd7ffd42d9ff,,,,,,,ctch,resources/DR.BMP,resources/DG.BMP,Door4,-0.345370356,-0.037962977,1,0,0,1.4373,optionLeft,80,16125,7,27,0,27,0,1,,,,,,,,,,,,,,,,,,,,,,,,,,,,,,,,,,,,,,,
,,,,,,,,2023-08-16_08h35.57.208,HF_wild_card,2022.2.4,Win32,59.61251863,599eedebec626e0001d53f19,64d2fd46c836a06233681665,64dc7c4c63a4fd7ffd42d9ff,,,,,,,ctch,resources/DP.BMP,resources/DY.BMP,Door3,0.295370399,0.004629601,1,0,0,0.9952,optionRight,70,16195,7,28,0,28,0,1,,,,,,,,,,,,,,,,,,,,,,,,,,,,,,,,,,,,,,,
,,,,,,,,2023-08-16_08h35.57.208,HF_wild_card,2022.2.4,Win32,59.61251863,599eedebec626e0001d53f19,64d2fd46c836a06233681665,64dc7c4c63a4fd7ffd42d9ff,,,,,,,ctch,resources/DP.BMP,resources/DY.BMP,Door3,0.259259288,-0.011111111,1,0,0,0.8963,optionRight,70,16265,7,29,0,29,0,1,,,,,,,,,,,,,,,,,,,,,,,,,,,,,,,,,,,,,,,
,,,,,,,,2023-08-16_08h35.57.208,HF_wild_card,2022.2.4,Win32,59.61251863,599eedebec626e0001d53f19,64d2fd46c836a06233681665,64dc7c4c63a4fd7ffd42d9ff,,,,,,,ctch,resources/DR.BMP,resources/DG.BMP,Door4,-0.345370356,-0.038888889,1,0,0,1.145,optionLeft,80,16345,7,30,0,30,0,1,,,,,,,,,,,,,,,,,,,,,,,,,,,,,,,,,,,,,,,
,,,,,,,,2023-08-16_08h35.57.208,HF_wild_card,2022.2.4,Win32,59.61251863,599eedebec626e0001d53f19,64d2fd46c836a06233681665,64dc7c4c63a4fd7ffd42d9ff,,,,,,,decisionTrl,resources/DP.BMP,resources/DG.BMP,Door1,0.368518575,0.023148134,1,0,0,1.1813,optionRight,30,16375,7,31,0,31,0,1,,,,,,,,,,,,,,,,,,,,,,,,,,,,,,,,,,,,,,,
,,,,,,,,2023-08-16_08h35.57.208,HF_wild_card,2022.2.4,Win32,59.61251863,599eedebec626e0001d53f19,64d2fd46c836a06233681665,64dc7c4c63a4fd7ffd42d9ff,,,,,,,ctch,resources/DY.BMP,resources/DP.BMP,Door3,-0.316666667,-0.058333333,1,0,0,0.9732,optionLeft,70,16445,7,32,0,32,0,1,,,,,,,,,,,,,,,,,,,,,,,,,,,,,,,,,,,,,,,
,,,,,,,,2023-08-16_08h35.57.208,HF_wild_card,2022.2.4,Win32,59.61251863,599eedebec626e0001d53f19,64d2fd46c836a06233681665,64dc7c4c63a4fd7ffd42d9ff,,,,,,,decisionTrl,resources/DR.BMP,resources/DY.BMP,Door3,0.323148176,0.034259245,1,0,0,1.2619,optionRight,70,16515,7,33,0,33,0,1,,,,,,,,,,,,,,,,,,,,,,,,,,,,,,,,,,,,,,,
,,,,,,,,2023-08-16_08h35.57.208,HF_wild_card,2022.2.4,Win32,59.61251863,599eedebec626e0001d53f19,64d2fd46c836a06233681665,64dc7c4c63a4fd7ffd42d9ff,,,,,,,decisionTrl,resources/DP.BMP,resources/DG.BMP,Door1,0.284259288,0.026851824,1,0,0,1.0284,optionRight,30,16545,7,34,0,34,0,1,,,,,,,,,,,,,,,,,,,,,,,,,,,,,,,,,,,,,,,
,,,,,,,,2023-08-16_08h35.57.208,HF_wild_card,2022.2.4,Win32,59.61251863,599eedebec626e0001d53f19,64d2fd46c836a06233681665,64dc7c4c63a4fd7ffd42d9ff,,,,,,,decisionTrl,resources/DP.BMP,resources/DG.BMP,Door1,0.312963019,0.017592578,1,0,0,1.0294,optionRight,30,16575,7,35,0,35,0,1,,,,,,,,,,,,,,,,,,,,,,,,,,,,,,,,,,,,,,,
,,,,,,,,2023-08-16_08h35.57.208,HF_wild_card,2022.2.4,Win32,59.61251863,599eedebec626e0001d53f19,64d2fd46c836a06233681665,64dc7c4c63a4fd7ffd42d9ff,,,,,,,,,,,,,,,,,,,,,,,,,,6,0,6,0,1,,,,,,,,,,,,,,,,,,,,,,,,,,,,,,,,,,
,,,,,,,,2023-08-16_08h35.57.208,HF_wild_card,2022.2.4,Win32,59.61251863,599eedebec626e0001d53f19,64d2fd46c836a06233681665,64dc7c4c63a4fd7ffd42d9ff,,,,,,,,,,,,,,,,,,,,,,,,,,,,,,,4,,,,,,,,,,,,,,,,,,,,,,,,,,,,,,,,,
,,,,,,,,2023-08-16_08h35.57.208,HF_wild_card,2022.2.4,Win32,59.61251863,599eedebec626e0001d53f19,64d2fd46c836a06233681665,64dc7c4c63a4fd7ffd42d9ff,,,,,,,,,,,,,,,,,,,,,,,,,,,,,,,,,,,,,,,,,,,,,,,,,,,,,,,,,,,,,,,,
,,,,,,,,2023-08-16_08h35.57.208,HF_wild_card,2022.2.4,Win32,59.61251863,599eedebec626e0001d53f19,64d2fd46c836a06233681665,64dc7c4c63a4fd7ffd42d9ff,,,,,,,,,,,,,,,,,,,,,,,,,,,,,,,,55,WC_nonExtreme,resources/DB.BMP,0,0,0,0,1,,,,,,,,,,,,,,,,,,,,,,,,,
,,,,,,,,2023-08-16_08h35.57.208,HF_wild_card,2022.2.4,Win32,59.61251863,599eedebec626e0001d53f19,64d2fd46c836a06233681665,64dc7c4c63a4fd7ffd42d9ff,,,,,,,,,,,,,,,,,,,,,,,,,,,,,,,,20,Door2,resources/DP.BMP,1,0,1,0,1,,,,,,,,,,,,,,,,,,,,,,,,,
,,,,,,,,2023-08-16_08h35.57.208,HF_wild_card,2022.2.4,Win32,59.61251863,599eedebec626e0001d53f19,64d2fd46c836a06233681665,64dc7c4c63a4fd7ffd42d9ff,,,,,,,,,,,,,,,,,,,,,,,,,,,,,,,,70,Door3,resources/DY.BMP,2,0,2,0,1,,,,,,,,,,,,,,,,,,,,,,,,,
,,,,,,,,2023-08-16_08h35.57.208,HF_wild_card,2022.2.4,Win32,59.61251863,599eedebec626e0001d53f19,64d2fd46c836a06233681665,64dc7c4c63a4fd7ffd42d9ff,,,,,,,,,,,,,,,,,,,,,,,,,,,,,,,,45,WC_extreme,resources/DBN.BMP,3,0,3,0,1,,,,,,,,,,,,,,,,,,,,,,,,,
,,,,,,,,2023-08-16_08h35.57.208,HF_wild_card,2022.2.4,Win32,59.61251863,599eedebec626e0001d53f19,64d2fd46c836a06233681665,64dc7c4c63a4fd7ffd42d9ff,,,,,,,,,,,,,,,,,,,,,,,,,,,,,,,,60,Door4,resources/DR.BMP,4,0,4,0,1,,,,,,,,,,,,,,,,,,,,,,,,,
,,,,,,,,2023-08-16_08h35.57.208,HF_wild_card,2022.2.4,Win32,59.61251863,599eedebec626e0001d53f19,64d2fd46c836a06233681665,64dc7c4c63a4fd7ffd42d9ff,,,,,,,,,,,,,,,,,,,,,,,,,,,,,,,,30,Door1,resources/DG.BMP,5,0,5,0,1,,,,,,,,,,,,,,,,,,,,,,,,,
,,,,,,,,2023-08-16_08h35.57.208,HF_wild_card,2022.2.4,Win32,59.61251863,599eedebec626e0001d53f19,64d2fd46c836a06233681665,64dc7c4c63a4fd7ffd42d9ff,,,,,,,,,,,,,,,,,,,,,,,,,,,,,,,,,,,,,,,,,,,,,,,,,,,,,,,,,,,,,,,,
