Condition,Low fixed image (Door1),Low risky image (Door2),High fixed image (Door3),High risky image (Door4),Extreme Wild Card,NonExtreme Wild Card,,date,expName,psychopyVersion,OS,frameRate,PROLIFIC_PID,STUDY_ID,SESSION_ID,mouse_2.x,mouse_2.y,mouse_2.leftButton,mouse_2.midButton,mouse_2.rightButton,mouse_2.clicked_name,Trial Type,Left Option Image,Right Option Image,Chosen Door,mouse.x,mouse.y,mouse.leftButton,mouse.midButton,mouse.rightButton,mouse.time,mouse.clicked_name,Feedback,Cumulative Reward,Block,trial.thisRepN,trial.thisTrialN,trial.thisN,trial.thisIndex,trial.ran,blocks.thisRepN,blocks.thisTrialN,blocks.thisN,blocks.thisIndex,blocks.ran,Money conversion,First Outcome Reported,Shown Door (First Outcome),Displayed Image (First Outcome),outcomes.thisRepN,outcomes.thisTrialN,outcomes.thisN,outcomes.thisIndex,outcomes.ran,judgments.thisRepN,judgments.thisTrialN,judgments.thisN,judgments.thisIndex,judgments.ran,freqMouse.x,freqMouse.y,freqMouse.leftButton,freqMouse.midButton,freqMouse.rightButton,freqMouse.clicked_name,FQJ for first outcome,FQJ for second outcome,Shown Door,Displayed Image,trials.thisRepN,trials.thisTrialN,trials.thisN,trials.thisIndex,trials.ran,judgBlock.thisRepN,judgBlock.thisTrialN,judgBlock.thisN,judgBlock.thisIndex,judgBlock.ran
0,resources/DBN.BMP,resources/DB.BMP,resources/DR.BMP,resources/DG.BMP,resources/DP.BMP,resources/DY.BMP,,2023-08-16_08h51.11.099,HF_wild_card,2022.2.4,MacIntel,60.0024001,5ebac054d63dde03790ceef8,64d2fd46c836a06233681665,64dc7f4262f34146130334b1,,,,,,,,,,,,,,,,,,,,,,,,,,,,,,,,,,,,,,,,,,,,,,,,,,,,,,,,,,,,,,,,
,,,,,,,,2023-08-16_08h51.11.099,HF_wild_card,2022.2.4,MacIntel,60.0024001,5ebac054d63dde03790ceef8,64d2fd46c836a06233681665,64dc7f4262f34146130334b1,0.007586955,-0.424332002,1,0,0,agree,,,,,,,,,,,,,,,,,,,,,,,,,,,,,,,,,,,,,,,,,,,,,,,,,,,,,,,,,,
,,,,,,,,2023-08-16_08h51.11.099,HF_wild_card,2022.2.4,MacIntel,60.0024001,5ebac054d63dde03790ceef8,64d2fd46c836a06233681665,64dc7f4262f34146130334b1,,,,,,,,,,,,,,,,,,,,,,,,,,,,,,,,,,,,,,,,,,,,,,,,,,,,,,,,,,,,,,,,
,,,,,,,,2023-08-16_08h51.11.099,HF_wild_card,2022.2.4,MacIntel,60.0024001,5ebac054d63dde03790ceef8,64d2fd46c836a06233681665,64dc7f4262f34146130334b1,,,,,,,decisionTrl,resources/DB.BMP,resources/DBN.BMP,Door1,0.350391585,-0.05053651,1,0,0,3.1979,optionRight,30,30,1,0,0,0,0,1,,,,,,,,,,,,,,,,,,,,,,,,,,,,,,,,,,,,,,,
,,,,,,,,2023-08-16_08h51.11.099,HF_wild_card,2022.2.4,MacIntel,60.0024001,5ebac054d63dde03790ceef8,64d2fd46c836a06233681665,64dc7f4262f34146130334b1,,,,,,,decisionTrl,resources/DP.BMP,resources/DG.BMP,WildCard_Ex,-0.334305897,0.022199401,1,0,0,1.4162,optionLeft,95,125,1,1,0,1,0,1,,,,,,,,,,,,,,,,,,,,,,,,,,,,,,,,,,,,,,,
,,,,,,,,2023-08-16_08h51.11.099,HF_wild_card,2022.2.4,MacIntel,60.0024001,5ebac054d63dde03790ceef8,64d2fd46c836a06233681665,64dc7f4262f34146130334b1,,,,,,,sngl,resources/DP.BMP,resources/Empty.png,WildCard_Ex,-0.305896806,-0.034762746,1,0,0,1.128,optionLeft,95,220,1,2,0,2,0,1,,,,,,,,,,,,,,,,,,,,,,,,,,,,,,,,,,,,,,,
,,,,,,,,2023-08-16_08h51.11.099,HF_wild_card,2022.2.4,MacIntel,60.0024001,5ebac054d63dde03790ceef8,64d2fd46c836a06233681665,64dc7f4262f34146130334b1,,,,,,,decisionTrl,resources/DBN.BMP,resources/DP.BMP,Door1,-0.324305129,-0.017328586,1,0,0,1.7854,optionLeft,30,250,1,3,0,3,0,1,,,,,,,,,,,,,,,,,,,,,,,,,,,,,,,,,,,,,,,
,,,,,,,,2023-08-16_08h51.11.099,HF_wild_card,2022.2.4,MacIntel,60.0024001,5ebac054d63dde03790ceef8,64d2fd46c836a06233681665,64dc7f4262f34146130334b1,,,,,,,decisionTrl,resources/DG.BMP,resources/DR.BMP,Door3,0.238789926,-0.097641854,1,0,0,2.4949,optionRight,70,320,1,4,0,4,0,1,,,,,,,,,,,,,,,,,,,,,,,,,,,,,,,,,,,,,,,
,,,,,,,,2023-08-16_08h51.11.099,HF_wild_card,2022.2.4,MacIntel,60.0024001,5ebac054d63dde03790ceef8,64d2fd46c836a06233681665,64dc7f4262f34146130334b1,,,,,,,sngl,resources/DP.BMP,resources/Empty.png,WildCard_Ex,-0.240507908,0.000167959,1,0,0,0.6051,optionLeft,5,325,1,5,0,5,0,1,,,,,,,,,,,,,,,,,,,,,,,,,,,,,,,,,,,,,,,
,,,,,,,,2023-08-16_08h51.11.099,HF_wild_card,2022.2.4,MacIntel,60.0024001,5ebac054d63dde03790ceef8,64d2fd46c836a06233681665,64dc7f4262f34146130334b1,,,,,,,ctch,resources/DBN.BMP,resources/DG.BMP,Door4,0.323009444,-0.005072366,1,0,0,1.1752,optionRight,60,385,1,6,0,6,0,1,,,,,,,,,,,,,,,,,,,,,,,,,,,,,,,,,,,,,,,
,,,,,,,,2023-08-16_08h51.11.099,HF_wild_card,2022.2.4,MacIntel,60.0024001,5ebac054d63dde03790ceef8,64d2fd46c836a06233681665,64dc7f4262f34146130334b1,,,,,,,sngl,resources/Empty.png,resources/DG.BMP,Door4,0.262443374,0.022612101,1,0,0,0.7234,optionRight,60,445,1,7,0,7,0,1,,,,,,,,,,,,,,,,,,,,,,,,,,,,,,,,,,,,,,,
,,,,,,,,2023-08-16_08h51.11.099,HF_wild_card,2022.2.4,MacIntel,60.0024001,5ebac054d63dde03790ceef8,64d2fd46c836a06233681665,64dc7f4262f34146130334b1,,,,,,,decisionTrl,resources/DG.BMP,resources/DR.BMP,Door3,0.380561847,-0.067586763,1,0,0,1.8874,optionRight,70,515,1,8,0,8,0,1,,,,,,,,,,,,,,,,,,,,,,,,,,,,,,,,,,,,,,,
,,,,,,,,2023-08-16_08h51.11.099,HF_wild_card,2022.2.4,MacIntel,60.0024001,5ebac054d63dde03790ceef8,64d2fd46c836a06233681665,64dc7f4262f34146130334b1,,,,,,,decisionTrl,resources/DB.BMP,resources/DBN.BMP,Door2,-0.188574939,-0.127116285,1,0,0,1.3075,optionLeft,20,535,1,9,0,9,0,1,,,,,,,,,,,,,,,,,,,,,,,,,,,,,,,,,,,,,,,
,,,,,,,,2023-08-16_08h51.11.099,HF_wild_card,2022.2.4,MacIntel,60.0024001,5ebac054d63dde03790ceef8,64d2fd46c836a06233681665,64dc7f4262f34146130334b1,,,,,,,ctch,resources/DG.BMP,resources/DBN.BMP,Door4,-0.281360373,0.002490594,1,0,0,1.2849,optionLeft,80,615,1,10,0,10,0,1,,,,,,,,,,,,,,,,,,,,,,,,,,,,,,,,,,,,,,,
,,,,,,,,2023-08-16_08h51.11.099,HF_wild_card,2022.2.4,MacIntel,60.0024001,5ebac054d63dde03790ceef8,64d2fd46c836a06233681665,64dc7f4262f34146130334b1,,,,,,,ctch,resources/DB.BMP,resources/DR.BMP,Door2,-0.242019541,-0.004966792,1,0,0,2.5057,optionLeft,20,635,1,11,0,11,0,1,,,,,,,,,,,,,,,,,,,,,,,,,,,,,,,,,,,,,,,
,,,,,,,,2023-08-16_08h51.11.099,HF_wild_card,2022.2.4,MacIntel,60.0024001,5ebac054d63dde03790ceef8,64d2fd46c836a06233681665,64dc7f4262f34146130334b1,,,,,,,decisionTrl,resources/DR.BMP,resources/DG.BMP,Door4,0.365383139,-0.009971975,1,0,0,1.3324,optionRight,60,695,1,12,0,12,0,1,,,,,,,,,,,,,,,,,,,,,,,,,,,,,,,,,,,,,,,
,,,,,,,,2023-08-16_08h51.11.099,HF_wild_card,2022.2.4,MacIntel,60.0024001,5ebac054d63dde03790ceef8,64d2fd46c836a06233681665,64dc7f4262f34146130334b1,,,,,,,decisionTrl,resources/DP.BMP,resources/DBN.BMP,WildCard_Ex,-0.223126536,0.013451129,1,0,0,0.9363,optionLeft,95,790,1,13,0,13,0,1,,,,,,,,,,,,,,,,,,,,,,,,,,,,,,,,,,,,,,,
,,,,,,,,2023-08-16_08h51.11.099,HF_wild_card,2022.2.4,MacIntel,60.0024001,5ebac054d63dde03790ceef8,64d2fd46c836a06233681665,64dc7f4262f34146130334b1,,,,,,,decisionTrl,resources/DR.BMP,resources/DP.BMP,WildCard_Ex,0.302000154,-0.02417652,1,0,0,0.8867,optionRight,5,795,1,14,0,14,0,1,,,,,,,,,,,,,,,,,,,,,,,,,,,,,,,,,,,,,,,
,,,,,,,,2023-08-16_08h51.11.099,HF_wild_card,2022.2.4,MacIntel,60.0024001,5ebac054d63dde03790ceef8,64d2fd46c836a06233681665,64dc7f4262f34146130334b1,,,,,,,decisionTrl,resources/DBN.BMP,resources/DB.BMP,Door1,-0.227791001,0.018912201,1,0,0,1.5798,optionLeft,30,825,1,15,0,15,0,1,,,,,,,,,,,,,,,,,,,,,,,,,,,,,,,,,,,,,,,
,,,,,,,,2023-08-16_08h51.11.099,HF_wild_card,2022.2.4,MacIntel,60.0024001,5ebac054d63dde03790ceef8,64d2fd46c836a06233681665,64dc7f4262f34146130334b1,,,,,,,decisionTrl,resources/DBN.BMP,resources/DB.BMP,Door1,-0.297978732,0.035535358,1,0,0,1.0498,optionLeft,30,855,1,16,0,16,0,1,,,,,,,,,,,,,,,,,,,,,,,,,,,,,,,,,,,,,,,
,,,,,,,,2023-08-16_08h51.11.099,HF_wild_card,2022.2.4,MacIntel,60.0024001,5ebac054d63dde03790ceef8,64d2fd46c836a06233681665,64dc7f4262f34146130334b1,,,,,,,sngl,resources/Empty.png,resources/DP.BMP,WildCard_Ex,0.300613291,-0.011493205,1,0,0,0.8785,optionRight,5,860,1,17,0,17,0,1,,,,,,,,,,,,,,,,,,,,,,,,,,,,,,,,,,,,,,,
,,,,,,,,2023-08-16_08h51.11.099,HF_wild_card,2022.2.4,MacIntel,60.0024001,5ebac054d63dde03790ceef8,64d2fd46c836a06233681665,64dc7f4262f34146130334b1,,,,,,,decisionTrl,resources/DB.BMP,resources/DP.BMP,WildCard_Ex,0.214766969,-0.002058699,1,0,0,0.6492,optionRight,5,865,1,18,0,18,0,1,,,,,,,,,,,,,,,,,,,,,,,,,,,,,,,,,,,,,,,
,,,,,,,,2023-08-16_08h51.11.099,HF_wild_card,2022.2.4,MacIntel,60.0024001,5ebac054d63dde03790ceef8,64d2fd46c836a06233681665,64dc7f4262f34146130334b1,,,,,,,ctch,resources/DR.BMP,resources/DB.BMP,Door3,-0.208302941,-0.00226025,1,0,0,0.959,optionLeft,70,935,1,19,0,19,0,1,,,,,,,,,,,,,,,,,,,,,,,,,,,,,,,,,,,,,,,
,,,,,,,,2023-08-16_08h51.11.099,HF_wild_card,2022.2.4,MacIntel,60.0024001,5ebac054d63dde03790ceef8,64d2fd46c836a06233681665,64dc7f4262f34146130334b1,,,,,,,sngl,resources/DR.BMP,resources/Empty.png,Door3,-0.226624885,-0.002922489,1,0,0,0.7021,optionLeft,70,1005,1,20,0,20,0,1,,,,,,,,,,,,,,,,,,,,,,,,,,,,,,,,,,,,,,,
,,,,,,,,2023-08-16_08h51.11.099,HF_wild_card,2022.2.4,MacIntel,60.0024001,5ebac054d63dde03790ceef8,64d2fd46c836a06233681665,64dc7f4262f34146130334b1,,,,,,,decisionTrl,resources/DB.BMP,resources/DBN.BMP,Door1,0.290233415,-0.022640894,1,0,0,2.68,optionRight,30,1035,1,21,0,21,0,1,,,,,,,,,,,,,,,,,,,,,,,,,,,,,,,,,,,,,,,
,,,,,,,,2023-08-16_08h51.11.099,HF_wild_card,2022.2.4,MacIntel,60.0024001,5ebac054d63dde03790ceef8,64d2fd46c836a06233681665,64dc7f4262f34146130334b1,,,,,,,decisionTrl,resources/DR.BMP,resources/DG.BMP,Door3,-0.176736218,-0.003570332,1,0,0,1.7318,optionLeft,70,1105,1,22,0,22,0,1,,,,,,,,,,,,,,,,,,,,,,,,,,,,,,,,,,,,,,,
,,,,,,,,2023-08-16_08h51.11.099,HF_wild_card,2022.2.4,MacIntel,60.0024001,5ebac054d63dde03790ceef8,64d2fd46c836a06233681665,64dc7f4262f34146130334b1,,,,,,,decisionTrl,resources/DB.BMP,resources/DBN.BMP,Door1,0.424101658,0.00406941,1,0,0,2.0244,optionRight,30,1135,1,23,0,23,0,1,,,,,,,,,,,,,,,,,,,,,,,,,,,,,,,,,,,,,,,
,,,,,,,,2023-08-16_08h51.11.099,HF_wild_card,2022.2.4,MacIntel,60.0024001,5ebac054d63dde03790ceef8,64d2fd46c836a06233681665,64dc7f4262f34146130334b1,,,,,,,ctch,resources/DG.BMP,resources/DBN.BMP,Door4,-0.203585688,0.007879684,1,0,0,1.3576,optionLeft,80,1215,1,24,0,24,0,1,,,,,,,,,,,,,,,,,,,,,,,,,,,,,,,,,,,,,,,
,,,,,,,,2023-08-16_08h51.11.099,HF_wild_card,2022.2.4,MacIntel,60.0024001,5ebac054d63dde03790ceef8,64d2fd46c836a06233681665,64dc7f4262f34146130334b1,,,,,,,decisionTrl,resources/DBN.BMP,resources/DB.BMP,Door1,-0.213063383,0.032991976,1,0,0,1.5246,optionLeft,30,1245,1,25,0,25,0,1,,,,,,,,,,,,,,,,,,,,,,,,,,,,,,,,,,,,,,,
,,,,,,,,2023-08-16_08h51.11.099,HF_wild_card,2022.2.4,MacIntel,60.0024001,5ebac054d63dde03790ceef8,64d2fd46c836a06233681665,64dc7f4262f34146130334b1,,,,,,,decisionTrl,resources/DR.BMP,resources/DG.BMP,Door3,-0.280774916,0.000954968,1,0,0,1.1981,optionLeft,70,1315,1,26,0,26,0,1,,,,,,,,,,,,,,,,,,,,,,,,,,,,,,,,,,,,,,,
,,,,,,,,2023-08-16_08h51.11.099,HF_wild_card,2022.2.4,MacIntel,60.0024001,5ebac054d63dde03790ceef8,64d2fd46c836a06233681665,64dc7f4262f34146130334b1,,,,,,,ctch,resources/DB.BMP,resources/DR.BMP,Door3,0.276676712,-0.062452012,1,0,0,1.5964,optionRight,70,1385,1,27,0,27,0,1,,,,,,,,,,,,,,,,,,,,,,,,,,,,,,,,,,,,,,,
,,,,,,,,2023-08-16_08h51.11.099,HF_wild_card,2022.2.4,MacIntel,60.0024001,5ebac054d63dde03790ceef8,64d2fd46c836a06233681665,64dc7f4262f34146130334b1,,,,,,,sngl,resources/DG.BMP,resources/Empty.png,Door4,-0.19740959,0.038822558,1,0,0,0.7786,optionLeft,80,1465,1,28,0,28,0,1,,,,,,,,,,,,,,,,,,,,,,,,,,,,,,,,,,,,,,,
,,,,,,,,2023-08-16_08h51.11.099,HF_wild_card,2022.2.4,MacIntel,60.0024001,5ebac054d63dde03790ceef8,64d2fd46c836a06233681665,64dc7f4262f34146130334b1,,,,,,,decisionTrl,resources/DR.BMP,resources/DG.BMP,Door4,0.237067145,-0.025678555,1,0,0,1.0449,optionRight,80,1545,1,29,0,29,0,1,,,,,,,,,,,,,,,,,,,,,,,,,,,,,,,,,,,,,,,
,,,,,,,,2023-08-16_08h51.11.099,HF_wild_card,2022.2.4,MacIntel,60.0024001,5ebac054d63dde03790ceef8,64d2fd46c836a06233681665,64dc7f4262f34146130334b1,,,,,,,ctch,resources/DR.BMP,resources/DB.BMP,Door3,-0.227459882,0.022597704,1,0,0,2.425,optionLeft,70,1615,1,30,0,30,0,1,,,,,,,,,,,,,,,,,,,,,,,,,,,,,,,,,,,,,,,
,,,,,,,,2023-08-16_08h51.11.099,HF_wild_card,2022.2.4,MacIntel,60.0024001,5ebac054d63dde03790ceef8,64d2fd46c836a06233681665,64dc7f4262f34146130334b1,,,,,,,decisionTrl,resources/DG.BMP,resources/DP.BMP,WildCard_Ex,0.267419764,-0.062826321,1,0,0,0.8641,optionRight,5,1620,1,31,0,31,0,1,,,,,,,,,,,,,,,,,,,,,,,,,,,,,,,,,,,,,,,
,,,,,,,,2023-08-16_08h51.11.099,HF_wild_card,2022.2.4,MacIntel,60.0024001,5ebac054d63dde03790ceef8,64d2fd46c836a06233681665,64dc7f4262f34146130334b1,,,,,,,sngl,resources/DBN.BMP,resources/Empty.png,Door1,-0.146892276,0.024166923,1,0,0,0.7795,optionLeft,30,1650,1,32,0,32,0,1,,,,,,,,,,,,,,,,,,,,,,,,,,,,,,,,,,,,,,,
,,,,,,,,2023-08-16_08h51.11.099,HF_wild_card,2022.2.4,MacIntel,60.0024001,5ebac054d63dde03790ceef8,64d2fd46c836a06233681665,64dc7f4262f34146130334b1,,,,,,,decisionTrl,resources/DP.BMP,resources/DR.BMP,WildCard_Ex,-0.143437116,0.00497639,1,0,0,0.9105,optionLeft,5,1655,1,33,0,33,0,1,,,,,,,,,,,,,,,,,,,,,,,,,,,,,,,,,,,,,,,
,,,,,,,,2023-08-16_08h51.11.099,HF_wild_card,2022.2.4,MacIntel,60.0024001,5ebac054d63dde03790ceef8,64d2fd46c836a06233681665,64dc7f4262f34146130334b1,,,,,,,decisionTrl,resources/DBN.BMP,resources/DB.BMP,Door1,-0.253008868,-0.01019752,1,0,0,1.5304,optionLeft,30,1685,1,34,0,34,0,1,,,,,,,,,,,,,,,,,,,,,,,,,,,,,,,,,,,,,,,
,,,,,,,,2023-08-16_08h51.11.099,HF_wild_card,2022.2.4,MacIntel,60.0024001,5ebac054d63dde03790ceef8,64d2fd46c836a06233681665,64dc7f4262f34146130334b1,,,,,,,ctch,resources/DBN.BMP,resources/DG.BMP,Door4,0.224331043,-0.017736486,1,0,0,1.3959,optionRight,60,1745,1,35,0,35,0,1,,,,,,,,,,,,,,,,,,,,,,,,,,,,,,,,,,,,,,,
,,,,,,,,2023-08-16_08h51.11.099,HF_wild_card,2022.2.4,MacIntel,60.0024001,5ebac054d63dde03790ceef8,64d2fd46c836a06233681665,64dc7f4262f34146130334b1,,,,,,,sngl,resources/Empty.png,resources/DB.BMP,Door2,0.237714988,-0.053881296,1,0,0,1.1152,optionRight,20,1765,1,36,0,36,0,1,,,,,,,,,,,,,,,,,,,,,,,,,,,,,,,,,,,,,,,
,,,,,,,,2023-08-16_08h51.11.099,HF_wild_card,2022.2.4,MacIntel,60.0024001,5ebac054d63dde03790ceef8,64d2fd46c836a06233681665,64dc7f4262f34146130334b1,,,,,,,sngl,resources/DB.BMP,resources/Empty.png,Door2,-0.226370547,0.003695101,1,0,0,0.769,optionLeft,40,1805,1,37,0,37,0,1,,,,,,,,,,,,,,,,,,,,,,,,,,,,,,,,,,,,,,,
,,,,,,,,2023-08-16_08h51.11.099,HF_wild_card,2022.2.4,MacIntel,60.0024001,5ebac054d63dde03790ceef8,64d2fd46c836a06233681665,64dc7f4262f34146130334b1,,,,,,,decisionTrl,resources/DG.BMP,resources/DR.BMP,Door3,0.224311847,0.002001113,1,0,0,1.1328,optionRight,70,1875,1,38,0,38,0,1,,,,,,,,,,,,,,,,,,,,,,,,,,,,,,,,,,,,,,,
,,,,,,,,2023-08-16_08h51.11.099,HF_wild_card,2022.2.4,MacIntel,60.0024001,5ebac054d63dde03790ceef8,64d2fd46c836a06233681665,64dc7f4262f34146130334b1,,,,,,,sngl,resources/Empty.png,resources/DR.BMP,Door3,0.272928824,-0.065571253,1,0,0,0.7457,optionRight,70,1945,1,39,0,39,0,1,,,,,,,,,,,,,,,,,,,,,,,,,,,,,,,,,,,,,,,
,,,,,,,,2023-08-16_08h51.11.099,HF_wild_card,2022.2.4,MacIntel,60.0024001,5ebac054d63dde03790ceef8,64d2fd46c836a06233681665,64dc7f4262f34146130334b1,,,,,,,sngl,resources/Empty.png,resources/DP.BMP,WildCard_Ex,0.213955966,-0.065523265,1,0,0,0.9611,optionRight,95,2040,1,40,0,40,0,1,,,,,,,,,,,,,,,,,,,,,,,,,,,,,,,,,,,,,,,
,,,,,,,,2023-08-16_08h51.11.099,HF_wild_card,2022.2.4,MacIntel,60.0024001,5ebac054d63dde03790ceef8,64d2fd46c836a06233681665,64dc7f4262f34146130334b1,,,,,,,decisionTrl,resources/DP.BMP,resources/DB.BMP,WildCard_Ex,-0.206157862,0.004712454,1,0,0,0.5788,optionLeft,95,2135,1,41,0,41,0,1,,,,,,,,,,,,,,,,,,,,,,,,,,,,,,,,,,,,,,,
,,,,,,,,2023-08-16_08h51.11.099,HF_wild_card,2022.2.4,MacIntel,60.0024001,5ebac054d63dde03790ceef8,64d2fd46c836a06233681665,64dc7f4262f34146130334b1,,,,,,,decisionTrl,resources/DG.BMP,resources/DR.BMP,Door4,-0.356476505,-0.063330198,1,0,0,1.5604,optionLeft,80,2215,1,42,0,42,0,1,,,,,,,,,,,,,,,,,,,,,,,,,,,,,,,,,,,,,,,
,,,,,,,,2023-08-16_08h51.11.099,HF_wild_card,2022.2.4,MacIntel,60.0024001,5ebac054d63dde03790ceef8,64d2fd46c836a06233681665,64dc7f4262f34146130334b1,,,,,,,sngl,resources/Empty.png,resources/DBN.BMP,Door1,0.240853424,-0.007418996,1,0,0,0.842,optionRight,30,2245,1,43,0,43,0,1,,,,,,,,,,,,,,,,,,,,,,,,,,,,,,,,,,,,,,,
,,,,,,,,2023-08-16_08h51.11.099,HF_wild_card,2022.2.4,MacIntel,60.0024001,5ebac054d63dde03790ceef8,64d2fd46c836a06233681665,64dc7f4262f34146130334b1,,,,,,,,,,,,,,,,,,,,,,,,,,0,0,0,0,1,,,,,,,,,,,,,,,,,,,,,,,,,,,,,,,,,,
,,,,,,,,2023-08-16_08h51.11.099,HF_wild_card,2022.2.4,MacIntel,60.0024001,5ebac054d63dde03790ceef8,64d2fd46c836a06233681665,64dc7f4262f34146130334b1,,,,,,,ctch,resources/DB.BMP,resources/DR.BMP,Door3,0.333283745,-0.05608396,1,0,0,1.4711,optionRight,70,2315,2,0,0,0,0,1,,,,,,,,,,,,,,,,,,,,,,,,,,,,,,,,,,,,,,,
,,,,,,,,2023-08-16_08h51.11.099,HF_wild_card,2022.2.4,MacIntel,60.0024001,5ebac054d63dde03790ceef8,64d2fd46c836a06233681665,64dc7f4262f34146130334b1,,,,,,,decisionTrl,resources/DB.BMP,resources/DBN.BMP,Door1,0.260163928,-0.016848702,1,0,0,1.5445,optionRight,30,2345,2,1,0,1,0,1,,,,,,,,,,,,,,,,,,,,,,,,,,,,,,,,,,,,,,,
,,,,,,,,2023-08-16_08h51.11.099,HF_wild_card,2022.2.4,MacIntel,60.0024001,5ebac054d63dde03790ceef8,64d2fd46c836a06233681665,64dc7f4262f34146130334b1,,,,,,,sngl,resources/DP.BMP,resources/Empty.png,WildCard_Ex,-0.175498119,-0.004534897,1,0,0,0.802,optionLeft,5,2350,2,2,0,2,0,1,,,,,,,,,,,,,,,,,,,,,,,,,,,,,,,,,,,,,,,
,,,,,,,,2023-08-16_08h51.11.099,HF_wild_card,2022.2.4,MacIntel,60.0024001,5ebac054d63dde03790ceef8,64d2fd46c836a06233681665,64dc7f4262f34146130334b1,,,,,,,sngl,resources/DBN.BMP,resources/Empty.png,Door1,-0.249779254,-0.016896691,1,0,0,0.7665,optionLeft,30,2380,2,3,0,3,0,1,,,,,,,,,,,,,,,,,,,,,,,,,,,,,,,,,,,,,,,
,,,,,,,,2023-08-16_08h51.11.099,HF_wild_card,2022.2.4,MacIntel,60.0024001,5ebac054d63dde03790ceef8,64d2fd46c836a06233681665,64dc7f4262f34146130334b1,,,,,,,ctch,resources/DB.BMP,resources/DR.BMP,Door3,0.257428593,-0.024435657,1,0,0,1.0719,optionRight,70,2450,2,4,0,4,0,1,,,,,,,,,,,,,,,,,,,,,,,,,,,,,,,,,,,,,,,
,,,,,,,,2023-08-16_08h51.11.099,HF_wild_card,2022.2.4,MacIntel,60.0024001,5ebac054d63dde03790ceef8,64d2fd46c836a06233681665,64dc7f4262f34146130334b1,,,,,,,decisionTrl,resources/DP.BMP,resources/DB.BMP,WildCard_Ex,-0.247389435,-0.021877879,1,0,0,1.0029,optionLeft,5,2455,2,5,0,5,0,1,,,,,,,,,,,,,,,,,,,,,,,,,,,,,,,,,,,,,,,
,,,,,,,,2023-08-16_08h51.11.099,HF_wild_card,2022.2.4,MacIntel,60.0024001,5ebac054d63dde03790ceef8,64d2fd46c836a06233681665,64dc7f4262f34146130334b1,,,,,,,decisionTrl,resources/DBN.BMP,resources/DB.BMP,Door1,-0.284402833,-0.015125921,1,0,0,1.472,optionLeft,30,2485,2,6,0,6,0,1,,,,,,,,,,,,,,,,,,,,,,,,,,,,,,,,,,,,,,,
,,,,,,,,2023-08-16_08h51.11.099,HF_wild_card,2022.2.4,MacIntel,60.0024001,5ebac054d63dde03790ceef8,64d2fd46c836a06233681665,64dc7f4262f34146130334b1,,,,,,,sngl,resources/DR.BMP,resources/Empty.png,Door3,-0.177393658,0.016675944,1,0,0,0.7286,optionLeft,70,2555,2,7,0,7,0,1,,,,,,,,,,,,,,,,,,,,,,,,,,,,,,,,,,,,,,,
,,,,,,,,2023-08-16_08h51.11.099,HF_wild_card,2022.2.4,MacIntel,60.0024001,5ebac054d63dde03790ceef8,64d2fd46c836a06233681665,64dc7f4262f34146130334b1,,,,,,,sngl,resources/Empty.png,resources/DBN.BMP,Door1,0.344417038,-0.009520885,1,0,0,0.8657,optionRight,30,2585,2,8,0,8,0,1,,,,,,,,,,,,,,,,,,,,,,,,,,,,,,,,,,,,,,,
,,,,,,,,2023-08-16_08h51.11.099,HF_wild_card,2022.2.4,MacIntel,60.0024001,5ebac054d63dde03790ceef8,64d2fd46c836a06233681665,64dc7f4262f34146130334b1,,,,,,,decisionTrl,resources/DB.BMP,resources/DBN.BMP,Door1,0.283567836,0.066684582,1,0,0,1.2518,optionRight,30,2615,2,9,0,9,0,1,,,,,,,,,,,,,,,,,,,,,,,,,,,,,,,,,,,,,,,
,,,,,,,,2023-08-16_08h51.11.099,HF_wild_card,2022.2.4,MacIntel,60.0024001,5ebac054d63dde03790ceef8,64d2fd46c836a06233681665,64dc7f4262f34146130334b1,,,,,,,decisionTrl,resources/DG.BMP,resources/DR.BMP,Door4,-0.243540771,-0.011781135,1,0,0,0.8257,optionLeft,80,2695,2,10,0,10,0,1,,,,,,,,,,,,,,,,,,,,,,,,,,,,,,,,,,,,,,,
,,,,,,,,2023-08-16_08h51.11.099,HF_wild_card,2022.2.4,MacIntel,60.0024001,5ebac054d63dde03790ceef8,64d2fd46c836a06233681665,64dc7f4262f34146130334b1,,,,,,,ctch,resources/DG.BMP,resources/DBN.BMP,Door4,-0.20119107,0.037877188,1,0,0,0.958,optionLeft,60,2755,2,11,0,11,0,1,,,,,,,,,,,,,,,,,,,,,,,,,,,,,,,,,,,,,,,
,,,,,,,,2023-08-16_08h51.11.099,HF_wild_card,2022.2.4,MacIntel,60.0024001,5ebac054d63dde03790ceef8,64d2fd46c836a06233681665,64dc7f4262f34146130334b1,,,,,,,decisionTrl,resources/DP.BMP,resources/DR.BMP,Door3,0.282828816,-0.007380605,1,0,0,1.3158,optionRight,70,2825,2,12,0,12,0,1,,,,,,,,,,,,,,,,,,,,,,,,,,,,,,,,,,,,,,,
,,,,,,,,2023-08-16_08h51.11.099,HF_wild_card,2022.2.4,MacIntel,60.0024001,5ebac054d63dde03790ceef8,64d2fd46c836a06233681665,64dc7f4262f34146130334b1,,,,,,,ctch,resources/DR.BMP,resources/DB.BMP,Door3,-0.192615556,0.033476658,1,0,0,1.2477,optionLeft,70,2895,2,13,0,13,0,1,,,,,,,,,,,,,,,,,,,,,,,,,,,,,,,,,,,,,,,
,,,,,,,,2023-08-16_08h51.11.099,HF_wild_card,2022.2.4,MacIntel,60.0024001,5ebac054d63dde03790ceef8,64d2fd46c836a06233681665,64dc7f4262f34146130334b1,,,,,,,decisionTrl,resources/DR.BMP,resources/DG.BMP,Door4,0.365546299,-0.053674946,1,0,0,1.1814,optionRight,60,2955,2,14,0,14,0,1,,,,,,,,,,,,,,,,,,,,,,,,,,,,,,,,,,,,,,,
,,,,,,,,2023-08-16_08h51.11.099,HF_wild_card,2022.2.4,MacIntel,60.0024001,5ebac054d63dde03790ceef8,64d2fd46c836a06233681665,64dc7f4262f34146130334b1,,,,,,,decisionTrl,resources/DR.BMP,resources/DG.BMP,Door3,-0.181520654,-0.001170915,1,0,0,1.4488,optionLeft,70,3025,2,15,0,15,0,1,,,,,,,,,,,,,,,,,,,,,,,,,,,,,,,,,,,,,,,
,,,,,,,,2023-08-16_08h51.11.099,HF_wild_card,2022.2.4,MacIntel,60.0024001,5ebac054d63dde03790ceef8,64d2fd46c836a06233681665,64dc7f4262f34146130334b1,,,,,,,decisionTrl,resources/DG.BMP,resources/DP.BMP,Door4,-0.221370163,0.013662277,1,0,0,2.6494,optionLeft,80,3105,2,16,0,16,0,1,,,,,,,,,,,,,,,,,,,,,,,,,,,,,,,,,,,,,,,
,,,,,,,,2023-08-16_08h51.11.099,HF_wild_card,2022.2.4,MacIntel,60.0024001,5ebac054d63dde03790ceef8,64d2fd46c836a06233681665,64dc7f4262f34146130334b1,,,,,,,sngl,resources/Empty.png,resources/DR.BMP,Door3,0.128704699,-0.034052518,1,0,0,0.9185,optionRight,70,3175,2,17,0,17,0,1,,,,,,,,,,,,,,,,,,,,,,,,,,,,,,,,,,,,,,,
,,,,,,,,2023-08-16_08h51.11.099,HF_wild_card,2022.2.4,MacIntel,60.0024001,5ebac054d63dde03790ceef8,64d2fd46c836a06233681665,64dc7f4262f34146130334b1,,,,,,,ctch,resources/DBN.BMP,resources/DG.BMP,Door4,0.242518619,-0.092742245,1,0,0,1.0677,optionRight,80,3255,2,18,0,18,0,1,,,,,,,,,,,,,,,,,,,,,,,,,,,,,,,,,,,,,,,
,,,,,,,,2023-08-16_08h51.11.099,HF_wild_card,2022.2.4,MacIntel,60.0024001,5ebac054d63dde03790ceef8,64d2fd46c836a06233681665,64dc7f4262f34146130334b1,,,,,,,decisionTrl,resources/DR.BMP,resources/DP.BMP,Door3,-0.21492533,0.009103386,1,0,0,0.9542,optionLeft,70,3325,2,19,0,19,0,1,,,,,,,,,,,,,,,,,,,,,,,,,,,,,,,,,,,,,,,
,,,,,,,,2023-08-16_08h51.11.099,HF_wild_card,2022.2.4,MacIntel,60.0024001,5ebac054d63dde03790ceef8,64d2fd46c836a06233681665,64dc7f4262f34146130334b1,,,,,,,decisionTrl,resources/DBN.BMP,resources/DB.BMP,Door2,0.267103041,-0.052700783,1,0,0,1.1368,optionRight,20,3345,2,20,0,20,0,1,,,,,,,,,,,,,,,,,,,,,,,,,,,,,,,,,,,,,,,
,,,,,,,,2023-08-16_08h51.11.099,HF_wild_card,2022.2.4,MacIntel,60.0024001,5ebac054d63dde03790ceef8,64d2fd46c836a06233681665,64dc7f4262f34146130334b1,,,,,,,decisionTrl,resources/DG.BMP,resources/DR.BMP,Door4,-0.171476697,0.007846092,1,0,0,1.5806,optionLeft,80,3425,2,21,0,21,0,1,,,,,,,,,,,,,,,,,,,,,,,,,,,,,,,,,,,,,,,
,,,,,,,,2023-08-16_08h51.11.099,HF_wild_card,2022.2.4,MacIntel,60.0024001,5ebac054d63dde03790ceef8,64d2fd46c836a06233681665,64dc7f4262f34146130334b1,,,,,,,decisionTrl,resources/DG.BMP,resources/DR.BMP,Door4,-0.205788352,0.040358185,1,0,0,0.8285,optionLeft,60,3485,2,22,0,22,0,1,,,,,,,,,,,,,,,,,,,,,,,,,,,,,,,,,,,,,,,
,,,,,,,,2023-08-16_08h51.11.099,HF_wild_card,2022.2.4,MacIntel,60.0024001,5ebac054d63dde03790ceef8,64d2fd46c836a06233681665,64dc7f4262f34146130334b1,,,,,,,decisionTrl,resources/DB.BMP,resources/DP.BMP,Door2,-0.224767736,0.008335573,1,0,0,1.6668,optionLeft,20,3505,2,23,0,23,0,1,,,,,,,,,,,,,,,,,,,,,,,,,,,,,,,,,,,,,,,
,,,,,,,,2023-08-16_08h51.11.099,HF_wild_card,2022.2.4,MacIntel,60.0024001,5ebac054d63dde03790ceef8,64d2fd46c836a06233681665,64dc7f4262f34146130334b1,,,,,,,sngl,resources/Empty.png,resources/DP.BMP,WildCard_Ex,0.291332348,-0.116467675,1,0,0,0.9413,optionRight,5,3510,2,24,0,24,0,1,,,,,,,,,,,,,,,,,,,,,,,,,,,,,,,,,,,,,,,
,,,,,,,,2023-08-16_08h51.11.099,HF_wild_card,2022.2.4,MacIntel,60.0024001,5ebac054d63dde03790ceef8,64d2fd46c836a06233681665,64dc7f4262f34146130334b1,,,,,,,decisionTrl,resources/DBN.BMP,resources/DP.BMP,Door1,-0.187423219,0.001367667,1,0,0,1.1577,optionLeft,30,3540,2,25,0,25,0,1,,,,,,,,,,,,,,,,,,,,,,,,,,,,,,,,,,,,,,,
,,,,,,,,2023-08-16_08h51.11.099,HF_wild_card,2022.2.4,MacIntel,60.0024001,5ebac054d63dde03790ceef8,64d2fd46c836a06233681665,64dc7f4262f34146130334b1,,,,,,,decisionTrl,resources/DB.BMP,resources/DBN.BMP,Door1,0.147636095,-0.125455889,1,0,0,1.2485,optionRight,30,3570,2,26,0,26,0,1,,,,,,,,,,,,,,,,,,,,,,,,,,,,,,,,,,,,,,,
,,,,,,,,2023-08-16_08h51.11.099,HF_wild_card,2022.2.4,MacIntel,60.0024001,5ebac054d63dde03790ceef8,64d2fd46c836a06233681665,64dc7f4262f34146130334b1,,,,,,,decisionTrl,resources/DBN.BMP,resources/DB.BMP,Door1,-0.299706311,0.049101658,1,0,0,1.3326,optionLeft,30,3600,2,27,0,27,0,1,,,,,,,,,,,,,,,,,,,,,,,,,,,,,,,,,,,,,,,
,,,,,,,,2023-08-16_08h51.11.099,HF_wild_card,2022.2.4,MacIntel,60.0024001,5ebac054d63dde03790ceef8,64d2fd46c836a06233681665,64dc7f4262f34146130334b1,,,,,,,ctch,resources/DR.BMP,resources/DB.BMP,Door3,-0.107695408,0.029503225,1,0,0,0.9536,optionLeft,70,3670,2,28,0,28,0,1,,,,,,,,,,,,,,,,,,,,,,,,,,,,,,,,,,,,,,,
,,,,,,,,2023-08-16_08h51.11.099,HF_wild_card,2022.2.4,MacIntel,60.0024001,5ebac054d63dde03790ceef8,64d2fd46c836a06233681665,64dc7f4262f34146130334b1,,,,,,,ctch,resources/DBN.BMP,resources/DG.BMP,Door4,0.239778486,-0.10501766,1,0,0,0.8022,optionRight,80,3750,2,29,0,29,0,1,,,,,,,,,,,,,,,,,,,,,,,,,,,,,,,,,,,,,,,
,,,,,,,,2023-08-16_08h51.11.099,HF_wild_card,2022.2.4,MacIntel,60.0024001,5ebac054d63dde03790ceef8,64d2fd46c836a06233681665,64dc7f4262f34146130334b1,,,,,,,decisionTrl,resources/DP.BMP,resources/DG.BMP,Door4,0.233904714,-0.116597244,1,0,0,1.0023,optionRight,80,3830,2,30,0,30,0,1,,,,,,,,,,,,,,,,,,,,,,,,,,,,,,,,,,,,,,,
,,,,,,,,2023-08-16_08h51.11.099,HF_wild_card,2022.2.4,MacIntel,60.0024001,5ebac054d63dde03790ceef8,64d2fd46c836a06233681665,64dc7f4262f34146130334b1,,,,,,,decisionTrl,resources/DG.BMP,resources/DR.BMP,Door4,-0.272180206,-0.085496007,1,0,0,1.1146,optionLeft,60,3890,2,31,0,31,0,1,,,,,,,,,,,,,,,,,,,,,,,,,,,,,,,,,,,,,,,
,,,,,,,,2023-08-16_08h51.11.099,HF_wild_card,2022.2.4,MacIntel,60.0024001,5ebac054d63dde03790ceef8,64d2fd46c836a06233681665,64dc7f4262f34146130334b1,,,,,,,sngl,resources/Empty.png,resources/DB.BMP,Door2,0.171131181,-0.022295378,1,0,0,0.9763,optionRight,40,3930,2,32,0,32,0,1,,,,,,,,,,,,,,,,,,,,,,,,,,,,,,,,,,,,,,,
,,,,,,,,2023-08-16_08h51.11.099,HF_wild_card,2022.2.4,MacIntel,60.0024001,5ebac054d63dde03790ceef8,64d2fd46c836a06233681665,64dc7f4262f34146130334b1,,,,,,,ctch,resources/DG.BMP,resources/DBN.BMP,Door4,-0.200706388,0.000815802,1,0,0,0.934,optionLeft,80,4010,2,33,0,33,0,1,,,,,,,,,,,,,,,,,,,,,,,,,,,,,,,,,,,,,,,
,,,,,,,,2023-08-16_08h51.11.099,HF_wild_card,2022.2.4,MacIntel,60.0024001,5ebac054d63dde03790ceef8,64d2fd46c836a06233681665,64dc7f4262f34146130334b1,,,,,,,sngl,resources/Empty.png,resources/DP.BMP,WildCard_Ex,0.308723318,-0.051841792,1,0,0,0.8002,optionRight,95,4105,2,34,0,34,0,1,,,,,,,,,,,,,,,,,,,,,,,,,,,,,,,,,,,,,,,
,,,,,,,,2023-08-16_08h51.11.099,HF_wild_card,2022.2.4,MacIntel,60.0024001,5ebac054d63dde03790ceef8,64d2fd46c836a06233681665,64dc7f4262f34146130334b1,,,,,,,sngl,resources/DB.BMP,resources/Empty.png,Door2,-0.190696023,-0.012313805,1,0,0,0.785,optionLeft,20,4125,2,35,0,35,0,1,,,,,,,,,,,,,,,,,,,,,,,,,,,,,,,,,,,,,,,
,,,,,,,,2023-08-16_08h51.11.099,HF_wild_card,2022.2.4,MacIntel,60.0024001,5ebac054d63dde03790ceef8,64d2fd46c836a06233681665,64dc7f4262f34146130334b1,,,,,,,decisionTrl,resources/DB.BMP,resources/DBN.BMP,Door1,0.428977273,0.021853885,1,0,0,1.2479,optionRight,30,4155,2,36,0,36,0,1,,,,,,,,,,,,,,,,,,,,,,,,,,,,,,,,,,,,,,,
,,,,,,,,2023-08-16_08h51.11.099,HF_wild_card,2022.2.4,MacIntel,60.0024001,5ebac054d63dde03790ceef8,64d2fd46c836a06233681665,64dc7f4262f34146130334b1,,,,,,,sngl,resources/DP.BMP,resources/Empty.png,WildCard_Ex,-0.198095823,0.010547835,1,0,0,0.6275,optionLeft,95,4250,2,37,0,37,0,1,,,,,,,,,,,,,,,,,,,,,,,,,,,,,,,,,,,,,,,
,,,,,,,,2023-08-16_08h51.11.099,HF_wild_card,2022.2.4,MacIntel,60.0024001,5ebac054d63dde03790ceef8,64d2fd46c836a06233681665,64dc7f4262f34146130334b1,,,,,,,decisionTrl,resources/DBN.BMP,resources/DB.BMP,Door2,0.339771768,-0.005374693,1,0,0,1.023,optionRight,40,4290,2,38,0,38,0,1,,,,,,,,,,,,,,,,,,,,,,,,,,,,,,,,,,,,,,,
,,,,,,,,2023-08-16_08h51.11.099,HF_wild_card,2022.2.4,MacIntel,60.0024001,5ebac054d63dde03790ceef8,64d2fd46c836a06233681665,64dc7f4262f34146130334b1,,,,,,,sngl,resources/DG.BMP,resources/Empty.png,Door4,-0.208010212,0.075490441,1,0,0,0.6437,optionLeft,60,4350,2,39,0,39,0,1,,,,,,,,,,,,,,,,,,,,,,,,,,,,,,,,,,,,,,,
,,,,,,,,2023-08-16_08h51.11.099,HF_wild_card,2022.2.4,MacIntel,60.0024001,5ebac054d63dde03790ceef8,64d2fd46c836a06233681665,64dc7f4262f34146130334b1,,,,,,,sngl,resources/Empty.png,resources/DG.BMP,Door4,0.224278256,-0.001554822,1,0,0,0.7261,optionRight,80,4430,2,40,0,40,0,1,,,,,,,,,,,,,,,,,,,,,,,,,,,,,,,,,,,,,,,
,,,,,,,,2023-08-16_08h51.11.099,HF_wild_card,2022.2.4,MacIntel,60.0024001,5ebac054d63dde03790ceef8,64d2fd46c836a06233681665,64dc7f4262f34146130334b1,,,,,,,decisionTrl,resources/DR.BMP,resources/DG.BMP,Door4,0.238885903,0.042224931,1,0,0,0.891,optionRight,80,4510,2,41,0,41,0,1,,,,,,,,,,,,,,,,,,,,,,,,,,,,,,,,,,,,,,,
,,,,,,,,2023-08-16_08h51.11.099,HF_wild_card,2022.2.4,MacIntel,60.0024001,5ebac054d63dde03790ceef8,64d2fd46c836a06233681665,64dc7f4262f34146130334b1,,,,,,,decisionTrl,resources/DP.BMP,resources/DBN.BMP,WildCard_Ex,-0.188291807,0.048300253,1,0,0,0.8255,optionLeft,5,4515,2,42,0,42,0,1,,,,,,,,,,,,,,,,,,,,,,,,,,,,,,,,,,,,,,,
,,,,,,,,2023-08-16_08h51.11.099,HF_wild_card,2022.2.4,MacIntel,60.0024001,5ebac054d63dde03790ceef8,64d2fd46c836a06233681665,64dc7f4262f34146130334b1,,,,,,,decisionTrl,resources/DR.BMP,resources/DG.BMP,Door4,0.233755951,-0.050584498,1,0,0,0.7621,optionRight,60,4575,2,43,0,43,0,1,,,,,,,,,,,,,,,,,,,,,,,,,,,,,,,,,,,,,,,
,,,,,,,,2023-08-16_08h51.11.099,HF_wild_card,2022.2.4,MacIntel,60.0024001,5ebac054d63dde03790ceef8,64d2fd46c836a06233681665,64dc7f4262f34146130334b1,,,,,,,,,,,,,,,,,,,,,,,,,,1,0,1,0,1,,,,,,,,,,,,,,,,,,,,,,,,,,,,,,,,,,
,,,,,,,,2023-08-16_08h51.11.099,HF_wild_card,2022.2.4,MacIntel,60.0024001,5ebac054d63dde03790ceef8,64d2fd46c836a06233681665,64dc7f4262f34146130334b1,,,,,,,sngl,resources/DP.BMP,resources/Empty.png,WildCard_Ex,-0.320965141,-0.001799562,1,0,0,0.9992,optionLeft,5,4580,3,0,0,0,0,1,,,,,,,,,,,,,,,,,,,,,,,,,,,,,,,,,,,,,,,
,,,,,,,,2023-08-16_08h51.11.099,HF_wild_card,2022.2.4,MacIntel,60.0024001,5ebac054d63dde03790ceef8,64d2fd46c836a06233681665,64dc7f4262f34146130334b1,,,,,,,sngl,resources/DP.BMP,resources/Empty.png,WildCard_Ex,-0.252624962,0.074650645,1,0,0,0.5907,optionLeft,95,4675,3,1,0,1,0,1,,,,,,,,,,,,,,,,,,,,,,,,,,,,,,,,,,,,,,,
,,,,,,,,2023-08-16_08h51.11.099,HF_wild_card,2022.2.4,MacIntel,60.0024001,5ebac054d63dde03790ceef8,64d2fd46c836a06233681665,64dc7f4262f34146130334b1,,,,,,,ctch,resources/DBN.BMP,resources/DG.BMP,Door4,0.258153217,-0.00086379,1,0,0,0.8906,optionRight,80,4755,3,2,0,2,0,1,,,,,,,,,,,,,,,,,,,,,,,,,,,,,,,,,,,,,,,
,,,,,,,,2023-08-16_08h51.11.099,HF_wild_card,2022.2.4,MacIntel,60.0024001,5ebac054d63dde03790ceef8,64d2fd46c836a06233681665,64dc7f4262f34146130334b1,,,,,,,sngl,resources/Empty.png,resources/DBN.BMP,Door1,0.237902142,-0.038995316,1,0,0,0.7065,optionRight,30,4785,3,3,0,3,0,1,,,,,,,,,,,,,,,,,,,,,,,,,,,,,,,,,,,,,,,
,,,,,,,,2023-08-16_08h51.11.099,HF_wild_card,2022.2.4,MacIntel,60.0024001,5ebac054d63dde03790ceef8,64d2fd46c836a06233681665,64dc7f4262f34146130334b1,,,,,,,sngl,resources/DB.BMP,resources/Empty.png,Door2,-0.184860642,0.028711417,1,0,0,0.6856,optionLeft,40,4825,3,4,0,4,0,1,,,,,,,,,,,,,,,,,,,,,,,,,,,,,,,,,,,,,,,
,,,,,,,,2023-08-16_08h51.11.099,HF_wild_card,2022.2.4,MacIntel,60.0024001,5ebac054d63dde03790ceef8,64d2fd46c836a06233681665,64dc7f4262f34146130334b1,,,,,,,decisionTrl,resources/DR.BMP,resources/DG.BMP,Door3,-0.152151797,0.029085726,1,0,0,0.6697,optionLeft,70,4895,3,5,0,5,0,1,,,,,,,,,,,,,,,,,,,,,,,,,,,,,,,,,,,,,,,
,,,,,,,,2023-08-16_08h51.11.099,HF_wild_card,2022.2.4,MacIntel,60.0024001,5ebac054d63dde03790ceef8,64d2fd46c836a06233681665,64dc7f4262f34146130334b1,,,,,,,ctch,resources/DG.BMP,resources/DBN.BMP,Door4,-0.222641854,0.019094556,1,0,0,0.6675,optionLeft,80,4975,3,6,0,6,0,1,,,,,,,,,,,,,,,,,,,,,,,,,,,,,,,,,,,,,,,
,,,,,,,,2023-08-16_08h51.11.099,HF_wild_card,2022.2.4,MacIntel,60.0024001,5ebac054d63dde03790ceef8,64d2fd46c836a06233681665,64dc7f4262f34146130334b1,,,,,,,decisionTrl,resources/DR.BMP,resources/DG.BMP,Door4,0.403840986,-0.114140241,1,0,0,0.7386,optionRight,60,5035,3,7,0,7,0,1,,,,,,,,,,,,,,,,,,,,,,,,,,,,,,,,,,,,,,,
,,,,,,,,2023-08-16_08h51.11.099,HF_wild_card,2022.2.4,MacIntel,60.0024001,5ebac054d63dde03790ceef8,64d2fd46c836a06233681665,64dc7f4262f34146130334b1,,,,,,,decisionTrl,resources/DG.BMP,resources/DR.BMP,Door4,-0.226360949,0.013859029,1,0,0,0.5567,optionLeft,60,5095,3,8,0,8,0,1,,,,,,,,,,,,,,,,,,,,,,,,,,,,,,,,,,,,,,,
,,,,,,,,2023-08-16_08h51.11.099,HF_wild_card,2022.2.4,MacIntel,60.0024001,5ebac054d63dde03790ceef8,64d2fd46c836a06233681665,64dc7f4262f34146130334b1,,,,,,,decisionTrl,resources/DP.BMP,resources/DB.BMP,WildCard_Ex,-0.181693412,0.027890817,1,0,0,0.7089,optionLeft,95,5190,3,9,0,9,0,1,,,,,,,,,,,,,,,,,,,,,,,,,,,,,,,,,,,,,,,
,,,,,,,,2023-08-16_08h51.11.099,HF_wild_card,2022.2.4,MacIntel,60.0024001,5ebac054d63dde03790ceef8,64d2fd46c836a06233681665,64dc7f4262f34146130334b1,,,,,,,ctch,resources/DG.BMP,resources/DBN.BMP,Door4,-0.261699555,0.089608607,1,0,0,1.7097,optionLeft,60,5250,3,10,0,10,0,1,,,,,,,,,,,,,,,,,,,,,,,,,,,,,,,,,,,,,,,
,,,,,,,,2023-08-16_08h51.11.099,HF_wild_card,2022.2.4,MacIntel,60.0024001,5ebac054d63dde03790ceef8,64d2fd46c836a06233681665,64dc7f4262f34146130334b1,,,,,,,sngl,resources/Empty.png,resources/DG.BMP,Door4,0.330778755,0.008239596,1,0,0,0.6271,optionRight,60,5310,3,11,0,11,0,1,,,,,,,,,,,,,,,,,,,,,,,,,,,,,,,,,,,,,,,
,,,,,,,,2023-08-16_08h51.11.099,HF_wild_card,2022.2.4,MacIntel,60.0024001,5ebac054d63dde03790ceef8,64d2fd46c836a06233681665,64dc7f4262f34146130334b1,,,,,,,decisionTrl,resources/DP.BMP,resources/DR.BMP,WildCard_Ex,-0.280923679,0.05522017,1,0,0,0.8003,optionLeft,95,5405,3,12,0,12,0,1,,,,,,,,,,,,,,,,,,,,,,,,,,,,,,,,,,,,,,,
,,,,,,,,2023-08-16_08h51.11.099,HF_wild_card,2022.2.4,MacIntel,60.0024001,5ebac054d63dde03790ceef8,64d2fd46c836a06233681665,64dc7f4262f34146130334b1,,,,,,,decisionTrl,resources/DBN.BMP,resources/DB.BMP,Door2,0.359139857,-0.069501497,1,0,0,0.8903,optionRight,40,5445,3,13,0,13,0,1,,,,,,,,,,,,,,,,,,,,,,,,,,,,,,,,,,,,,,,
,,,,,,,,2023-08-16_08h51.11.099,HF_wild_card,2022.2.4,MacIntel,60.0024001,5ebac054d63dde03790ceef8,64d2fd46c836a06233681665,64dc7f4262f34146130334b1,,,,,,,decisionTrl,resources/DB.BMP,resources/DBN.BMP,Door1,0.278500269,-0.033217521,1,0,0,6.7067,optionRight,30,5475,3,14,0,14,0,1,,,,,,,,,,,,,,,,,,,,,,,,,,,,,,,,,,,,,,,
,,,,,,,,2023-08-16_08h51.11.099,HF_wild_card,2022.2.4,MacIntel,60.0024001,5ebac054d63dde03790ceef8,64d2fd46c836a06233681665,64dc7f4262f34146130334b1,,,,,,,sngl,resources/DBN.BMP,resources/Empty.png,Door1,-0.19103674,0.013254377,1,0,0,0.6656,optionLeft,30,5505,3,15,0,15,0,1,,,,,,,,,,,,,,,,,,,,,,,,,,,,,,,,,,,,,,,
,,,,,,,,2023-08-16_08h51.11.099,HF_wild_card,2022.2.4,MacIntel,60.0024001,5ebac054d63dde03790ceef8,64d2fd46c836a06233681665,64dc7f4262f34146130334b1,,,,,,,sngl,resources/Empty.png,resources/DP.BMP,WildCard_Ex,0.236500883,-0.026038467,1,0,0,1.6575,optionRight,5,5510,3,16,0,16,0,1,,,,,,,,,,,,,,,,,,,,,,,,,,,,,,,,,,,,,,,
,,,,,,,,2023-08-16_08h51.11.099,HF_wild_card,2022.2.4,MacIntel,60.0024001,5ebac054d63dde03790ceef8,64d2fd46c836a06233681665,64dc7f4262f34146130334b1,,,,,,,sngl,resources/Empty.png,resources/DR.BMP,Door3,0.107306703,-0.018629069,1,0,0,0.8966,optionRight,70,5580,3,17,0,17,0,1,,,,,,,,,,,,,,,,,,,,,,,,,,,,,,,,,,,,,,,
,,,,,,,,2023-08-16_08h51.11.099,HF_wild_card,2022.2.4,MacIntel,60.0024001,5ebac054d63dde03790ceef8,64d2fd46c836a06233681665,64dc7f4262f34146130334b1,,,,,,,decisionTrl,resources/DBN.BMP,resources/DB.BMP,Door2,0.30061809,-0.073465333,1,0,0,0.8691,optionRight,20,5600,3,18,0,18,0,1,,,,,,,,,,,,,,,,,,,,,,,,,,,,,,,,,,,,,,,
,,,,,,,,2023-08-16_08h51.11.099,HF_wild_card,2022.2.4,MacIntel,60.0024001,5ebac054d63dde03790ceef8,64d2fd46c836a06233681665,64dc7f4262f34146130334b1,,,,,,,decisionTrl,resources/DB.BMP,resources/DBN.BMP,Door2,-0.297460458,0.008796261,1,0,0,6.6786,optionLeft,40,5640,3,19,0,19,0,1,,,,,,,,,,,,,,,,,,,,,,,,,,,,,,,,,,,,,,,
,,,,,,,,2023-08-16_08h51.11.099,HF_wild_card,2022.2.4,MacIntel,60.0024001,5ebac054d63dde03790ceef8,64d2fd46c836a06233681665,64dc7f4262f34146130334b1,,,,,,,ctch,resources/DR.BMP,resources/DB.BMP,Door2,0.323143811,-0.031787469,1,0,0,1.784,optionRight,40,5680,3,20,0,20,0,1,,,,,,,,,,,,,,,,,,,,,,,,,,,,,,,,,,,,,,,
,,,,,,,,2023-08-16_08h51.11.099,HF_wild_card,2022.2.4,MacIntel,60.0024001,5ebac054d63dde03790ceef8,64d2fd46c836a06233681665,64dc7f4262f34146130334b1,,,,,,,ctch,resources/DB.BMP,resources/DR.BMP,Door3,0.240440725,0.014497274,1,0,0,0.9755,optionRight,70,5750,3,21,0,21,0,1,,,,,,,,,,,,,,,,,,,,,,,,,,,,,,,,,,,,,,,
,,,,,,,,2023-08-16_08h51.11.099,HF_wild_card,2022.2.4,MacIntel,60.0024001,5ebac054d63dde03790ceef8,64d2fd46c836a06233681665,64dc7f4262f34146130334b1,,,,,,,decisionTrl,resources/DP.BMP,resources/DG.BMP,WildCard_Ex,-0.206345017,0.038812961,1,0,0,0.7343,optionLeft,5,5755,3,22,0,22,0,1,,,,,,,,,,,,,,,,,,,,,,,,,,,,,,,,,,,,,,,
,,,,,,,,2023-08-16_08h51.11.099,HF_wild_card,2022.2.4,MacIntel,60.0024001,5ebac054d63dde03790ceef8,64d2fd46c836a06233681665,64dc7f4262f34146130334b1,,,,,,,decisionTrl,resources/DG.BMP,resources/DR.BMP,Door3,0.280443796,-0.045113828,1,0,0,1.7494,optionRight,70,5825,3,23,0,23,0,1,,,,,,,,,,,,,,,,,,,,,,,,,,,,,,,,,,,,,,,
,,,,,,,,2023-08-16_08h51.11.099,HF_wild_card,2022.2.4,MacIntel,60.0024001,5ebac054d63dde03790ceef8,64d2fd46c836a06233681665,64dc7f4262f34146130334b1,,,,,,,decisionTrl,resources/DG.BMP,resources/DR.BMP,Door3,0.333600468,0.002605766,1,0,0,1.6774,optionRight,70,5895,3,24,0,24,0,1,,,,,,,,,,,,,,,,,,,,,,,,,,,,,,,,,,,,,,,
,,,,,,,,2023-08-16_08h51.11.099,HF_wild_card,2022.2.4,MacIntel,60.0024001,5ebac054d63dde03790ceef8,64d2fd46c836a06233681665,64dc7f4262f34146130334b1,,,,,,,decisionTrl,resources/DBN.BMP,resources/DB.BMP,Door2,0.201488598,-0.048386632,1,0,0,1.5481,optionRight,20,5915,3,25,0,25,0,1,,,,,,,,,,,,,,,,,,,,,,,,,,,,,,,,,,,,,,,
,,,,,,,,2023-08-16_08h51.11.099,HF_wild_card,2022.2.4,MacIntel,60.0024001,5ebac054d63dde03790ceef8,64d2fd46c836a06233681665,64dc7f4262f34146130334b1,,,,,,,ctch,resources/DB.BMP,resources/DR.BMP,Door2,-0.303415809,0.006512016,1,0,0,0.979,optionLeft,40,5955,3,26,0,26,0,1,,,,,,,,,,,,,,,,,,,,,,,,,,,,,,,,,,,,,,,
,,,,,,,,2023-08-16_08h51.11.099,HF_wild_card,2022.2.4,MacIntel,60.0024001,5ebac054d63dde03790ceef8,64d2fd46c836a06233681665,64dc7f4262f34146130334b1,,,,,,,sngl,resources/DG.BMP,resources/Empty.png,Door4,-0.220496775,-0.012121852,1,0,0,0.6442,optionLeft,80,6035,3,27,0,27,0,1,,,,,,,,,,,,,,,,,,,,,,,,,,,,,,,,,,,,,,,
,,,,,,,,2023-08-16_08h51.11.099,HF_wild_card,2022.2.4,MacIntel,60.0024001,5ebac054d63dde03790ceef8,64d2fd46c836a06233681665,64dc7f4262f34146130334b1,,,,,,,decisionTrl,resources/DBN.BMP,resources/DP.BMP,WildCard_Ex,0.265164312,-0.057797144,1,0,0,1.0222,optionRight,5,6040,3,28,0,28,0,1,,,,,,,,,,,,,,,,,,,,,,,,,,,,,,,,,,,,,,,
,,,,,,,,2023-08-16_08h51.11.099,HF_wild_card,2022.2.4,MacIntel,60.0024001,5ebac054d63dde03790ceef8,64d2fd46c836a06233681665,64dc7f4262f34146130334b1,,,,,,,decisionTrl,resources/DG.BMP,resources/DP.BMP,Door4,-0.202102849,-0.010543036,1,0,0,1.1527,optionLeft,80,6120,3,29,0,29,0,1,,,,,,,,,,,,,,,,,,,,,,,,,,,,,,,,,,,,,,,
,,,,,,,,2023-08-16_08h51.11.099,HF_wild_card,2022.2.4,MacIntel,60.0024001,5ebac054d63dde03790ceef8,64d2fd46c836a06233681665,64dc7f4262f34146130334b1,,,,,,,decisionTrl,resources/DBN.BMP,resources/DB.BMP,Door1,-0.307533208,-0.028970554,1,0,0,2.0435,optionLeft,30,6150,3,30,0,30,0,1,,,,,,,,,,,,,,,,,,,,,,,,,,,,,,,,,,,,,,,
,,,,,,,,2023-08-16_08h51.11.099,HF_wild_card,2022.2.4,MacIntel,60.0024001,5ebac054d63dde03790ceef8,64d2fd46c836a06233681665,64dc7f4262f34146130334b1,,,,,,,decisionTrl,resources/DR.BMP,resources/DP.BMP,WildCard_Ex,0.207170416,-0.074521076,1,0,0,1.0215,optionRight,95,6245,3,31,0,31,0,1,,,,,,,,,,,,,,,,,,,,,,,,,,,,,,,,,,,,,,,
,,,,,,,,2023-08-16_08h51.11.099,HF_wild_card,2022.2.4,MacIntel,60.0024001,5ebac054d63dde03790ceef8,64d2fd46c836a06233681665,64dc7f4262f34146130334b1,,,,,,,sngl,resources/DR.BMP,resources/Empty.png,Door3,-0.164312039,0.007970861,1,0,0,0.6659,optionLeft,70,6315,3,32,0,32,0,1,,,,,,,,,,,,,,,,,,,,,,,,,,,,,,,,,,,,,,,
,,,,,,,,2023-08-16_08h51.11.099,HF_wild_card,2022.2.4,MacIntel,60.0024001,5ebac054d63dde03790ceef8,64d2fd46c836a06233681665,64dc7f4262f34146130334b1,,,,,,,ctch,resources/DR.BMP,resources/DB.BMP,Door2,0.256353655,-0.046764627,1,0,0,2.0435,optionRight,40,6355,3,33,0,33,0,1,,,,,,,,,,,,,,,,,,,,,,,,,,,,,,,,,,,,,,,
,,,,,,,,2023-08-16_08h51.11.099,HF_wild_card,2022.2.4,MacIntel,60.0024001,5ebac054d63dde03790ceef8,64d2fd46c836a06233681665,64dc7f4262f34146130334b1,,,,,,,decisionTrl,resources/DR.BMP,resources/DG.BMP,Door3,-0.22545397,0.016311233,1,0,0,1.0426,optionLeft,70,6425,3,34,0,34,0,1,,,,,,,,,,,,,,,,,,,,,,,,,,,,,,,,,,,,,,,
,,,,,,,,2023-08-16_08h51.11.099,HF_wild_card,2022.2.4,MacIntel,60.0024001,5ebac054d63dde03790ceef8,64d2fd46c836a06233681665,64dc7f4262f34146130334b1,,,,,,,decisionTrl,resources/DR.BMP,resources/DG.BMP,Door3,-0.240858223,0.033951743,1,0,0,2.6073,optionLeft,70,6495,3,35,0,35,0,1,,,,,,,,,,,,,,,,,,,,,,,,,,,,,,,,,,,,,,,
,,,,,,,,2023-08-16_08h51.11.099,HF_wild_card,2022.2.4,MacIntel,60.0024001,5ebac054d63dde03790ceef8,64d2fd46c836a06233681665,64dc7f4262f34146130334b1,,,,,,,decisionTrl,resources/DB.BMP,resources/DBN.BMP,Door2,-0.242029139,-0.034081311,1,0,0,2.4145,optionLeft,20,6515,3,36,0,36,0,1,,,,,,,,,,,,,,,,,,,,,,,,,,,,,,,,,,,,,,,
,,,,,,,,2023-08-16_08h51.11.099,HF_wild_card,2022.2.4,MacIntel,60.0024001,5ebac054d63dde03790ceef8,64d2fd46c836a06233681665,64dc7f4262f34146130334b1,,,,,,,decisionTrl,resources/DG.BMP,resources/DR.BMP,Door3,0.255945754,-0.081052288,1,0,0,0.8246,optionRight,70,6585,3,37,0,37,0,1,,,,,,,,,,,,,,,,,,,,,,,,,,,,,,,,,,,,,,,
,,,,,,,,2023-08-16_08h51.11.099,HF_wild_card,2022.2.4,MacIntel,60.0024001,5ebac054d63dde03790ceef8,64d2fd46c836a06233681665,64dc7f4262f34146130334b1,,,,,,,sngl,resources/Empty.png,resources/DB.BMP,Door2,0.237906941,-0.022396153,1,0,0,0.7652,optionRight,20,6605,3,38,0,38,0,1,,,,,,,,,,,,,,,,,,,,,,,,,,,,,,,,,,,,,,,
,,,,,,,,2023-08-16_08h51.11.099,HF_wild_card,2022.2.4,MacIntel,60.0024001,5ebac054d63dde03790ceef8,64d2fd46c836a06233681665,64dc7f4262f34146130334b1,,,,,,,ctch,resources/DBN.BMP,resources/DG.BMP,Door4,0.343658822,-0.050354154,1,0,0,0.8474,optionRight,80,6685,3,39,0,39,0,1,,,,,,,,,,,,,,,,,,,,,,,,,,,,,,,,,,,,,,,
,,,,,,,,2023-08-16_08h51.11.099,HF_wild_card,2022.2.4,MacIntel,60.0024001,5ebac054d63dde03790ceef8,64d2fd46c836a06233681665,64dc7f4262f34146130334b1,,,,,,,decisionTrl,resources/DB.BMP,resources/DBN.BMP,Door2,-0.187053709,-0.03059256,1,0,0,1.7328,optionLeft,40,6725,3,40,0,40,0,1,,,,,,,,,,,,,,,,,,,,,,,,,,,,,,,,,,,,,,,
,,,,,,,,2023-08-16_08h51.11.099,HF_wild_card,2022.2.4,MacIntel,60.0024001,5ebac054d63dde03790ceef8,64d2fd46c836a06233681665,64dc7f4262f34146130334b1,,,,,,,decisionTrl,resources/DP.BMP,resources/DBN.BMP,Door1,0.202525146,0.041677864,1,0,0,1.7988,optionRight,30,6755,3,41,0,41,0,1,,,,,,,,,,,,,,,,,,,,,,,,,,,,,,,,,,,,,,,
,,,,,,,,2023-08-16_08h51.11.099,HF_wild_card,2022.2.4,MacIntel,60.0024001,5ebac054d63dde03790ceef8,64d2fd46c836a06233681665,64dc7f4262f34146130334b1,,,,,,,sngl,resources/Empty.png,resources/DP.BMP,WildCard_Ex,0.219100315,0.001669994,1,0,0,0.6477,optionRight,95,6850,3,42,0,42,0,1,,,,,,,,,,,,,,,,,,,,,,,,,,,,,,,,,,,,,,,
,,,,,,,,2023-08-16_08h51.11.099,HF_wild_card,2022.2.4,MacIntel,60.0024001,5ebac054d63dde03790ceef8,64d2fd46c836a06233681665,64dc7f4262f34146130334b1,,,,,,,decisionTrl,resources/DB.BMP,resources/DP.BMP,WildCard_Ex,0.21245873,-0.102234337,1,0,0,3.1643,optionRight,95,6945,3,43,0,43,0,1,,,,,,,,,,,,,,,,,,,,,,,,,,,,,,,,,,,,,,,
,,,,,,,,2023-08-16_08h51.11.099,HF_wild_card,2022.2.4,MacIntel,60.0024001,5ebac054d63dde03790ceef8,64d2fd46c836a06233681665,64dc7f4262f34146130334b1,,,,,,,,,,,,,,,,,,,,,,,,,,2,0,2,0,1,,,,,,,,,,,,,,,,,,,,,,,,,,,,,,,,,,
,,,,,,,,2023-08-16_08h51.11.099,HF_wild_card,2022.2.4,MacIntel,60.0024001,5ebac054d63dde03790ceef8,64d2fd46c836a06233681665,64dc7f4262f34146130334b1,,,,,,,sngl,resources/Empty.png,resources/DR.BMP,Door3,0.401129645,-0.097896192,1,0,0,0.9773,optionRight,70,7015,4,0,0,0,0,1,,,,,,,,,,,,,,,,,,,,,,,,,,,,,,,,,,,,,,,
,,,,,,,,2023-08-16_08h51.11.099,HF_wild_card,2022.2.4,MacIntel,60.0024001,5ebac054d63dde03790ceef8,64d2fd46c836a06233681665,64dc7f4262f34146130334b1,,,,,,,sngl,resources/Empty.png,resources/DG.BMP,Door4,0.210035319,-0.002581772,1,0,0,2.5704,optionRight,80,7095,4,1,0,1,0,1,,,,,,,,,,,,,,,,,,,,,,,,,,,,,,,,,,,,,,,
,,,,,,,,2023-08-16_08h51.11.099,HF_wild_card,2022.2.4,MacIntel,60.0024001,5ebac054d63dde03790ceef8,64d2fd46c836a06233681665,64dc7f4262f34146130334b1,,,,,,,decisionTrl,resources/DR.BMP,resources/DG.BMP,Door4,0.36702434,0.009578471,1,0,0,0.8667,optionRight,80,7175,4,2,0,2,0,1,,,,,,,,,,,,,,,,,,,,,,,,,,,,,,,,,,,,,,,
,,,,,,,,2023-08-16_08h51.11.099,HF_wild_card,2022.2.4,MacIntel,60.0024001,5ebac054d63dde03790ceef8,64d2fd46c836a06233681665,64dc7f4262f34146130334b1,,,,,,,sngl,resources/Empty.png,resources/DY.BMP,WildCard_NonEx,0.338212147,-0.005772996,1,0,0,1.8271,optionRight,45,7220,4,3,0,3,0,1,,,,,,,,,,,,,,,,,,,,,,,,,,,,,,,,,,,,,,,
,,,,,,,,2023-08-16_08h51.11.099,HF_wild_card,2022.2.4,MacIntel,60.0024001,5ebac054d63dde03790ceef8,64d2fd46c836a06233681665,64dc7f4262f34146130334b1,,,,,,,decisionTrl,resources/DBN.BMP,resources/DB.BMP,Door2,0.366002188,0.06295109,1,0,0,0.866,optionRight,20,7240,4,4,0,4,0,1,,,,,,,,,,,,,,,,,,,,,,,,,,,,,,,,,,,,,,,
,,,,,,,,2023-08-16_08h51.11.099,HF_wild_card,2022.2.4,MacIntel,60.0024001,5ebac054d63dde03790ceef8,64d2fd46c836a06233681665,64dc7f4262f34146130334b1,,,,,,,ctch,resources/DR.BMP,resources/DB.BMP,Door3,-0.284143696,0.016080889,1,0,0,0.6008,optionLeft,70,7310,4,5,0,5,0,1,,,,,,,,,,,,,,,,,,,,,,,,,,,,,,,,,,,,,,,
,,,,,,,,2023-08-16_08h51.11.099,HF_wild_card,2022.2.4,MacIntel,60.0024001,5ebac054d63dde03790ceef8,64d2fd46c836a06233681665,64dc7f4262f34146130334b1,,,,,,,ctch,resources/DB.BMP,resources/DR.BMP,Door3,0.297100545,-0.032166577,1,0,0,1.5208,optionRight,70,7380,4,6,0,6,0,1,,,,,,,,,,,,,,,,,,,,,,,,,,,,,,,,,,,,,,,
,,,,,,,,2023-08-16_08h51.11.099,HF_wild_card,2022.2.4,MacIntel,60.0024001,5ebac054d63dde03790ceef8,64d2fd46c836a06233681665,64dc7f4262f34146130334b1,,,,,,,decisionTrl,resources/DG.BMP,resources/DR.BMP,Door4,-0.209315494,-0.036451935,1,0,0,1.1115,optionLeft,80,7460,4,7,0,7,0,1,,,,,,,,,,,,,,,,,,,,,,,,,,,,,,,,,,,,,,,
,,,,,,,,2023-08-16_08h51.11.099,HF_wild_card,2022.2.4,MacIntel,60.0024001,5ebac054d63dde03790ceef8,64d2fd46c836a06233681665,64dc7f4262f34146130334b1,,,,,,,sngl,resources/Empty.png,resources/DB.BMP,Door2,0.24226908,-0.042551252,1,0,0,1.0318,optionRight,40,7500,4,8,0,8,0,1,,,,,,,,,,,,,,,,,,,,,,,,,,,,,,,,,,,,,,,
,,,,,,,,2023-08-16_08h51.11.099,HF_wild_card,2022.2.4,MacIntel,60.0024001,5ebac054d63dde03790ceef8,64d2fd46c836a06233681665,64dc7f4262f34146130334b1,,,,,,,decisionTrl,resources/DR.BMP,resources/DG.BMP,Door3,-0.252562577,-0.098409667,1,0,0,1.0452,optionLeft,70,7570,4,9,0,9,0,1,,,,,,,,,,,,,,,,,,,,,,,,,,,,,,,,,,,,,,,
,,,,,,,,2023-08-16_08h51.11.099,HF_wild_card,2022.2.4,MacIntel,60.0024001,5ebac054d63dde03790ceef8,64d2fd46c836a06233681665,64dc7f4262f34146130334b1,,,,,,,decisionTrl,resources/DG.BMP,resources/DR.BMP,Door3,0.126967521,0.054471553,1,0,0,2.3636,optionRight,70,7640,4,10,0,10,0,1,,,,,,,,,,,,,,,,,,,,,,,,,,,,,,,,,,,,,,,
,,,,,,,,2023-08-16_08h51.11.099,HF_wild_card,2022.2.4,MacIntel,60.0024001,5ebac054d63dde03790ceef8,64d2fd46c836a06233681665,64dc7f4262f34146130334b1,,,,,,,decisionTrl,resources/DB.BMP,resources/DY.BMP,WildCard_NonEx,0.26250096,-0.052532824,1,0,0,0.8605,optionRight,45,7685,4,11,0,11,0,1,,,,,,,,,,,,,,,,,,,,,,,,,,,,,,,,,,,,,,,
,,,,,,,,2023-08-16_08h51.11.099,HF_wild_card,2022.2.4,MacIntel,60.0024001,5ebac054d63dde03790ceef8,64d2fd46c836a06233681665,64dc7f4262f34146130334b1,,,,,,,sngl,resources/Empty.png,resources/DY.BMP,WildCard_NonEx,0.229868896,-0.004798833,1,0,0,0.6255,optionRight,55,7740,4,12,0,12,0,1,,,,,,,,,,,,,,,,,,,,,,,,,,,,,,,,,,,,,,,
,,,,,,,,2023-08-16_08h51.11.099,HF_wild_card,2022.2.4,MacIntel,60.0024001,5ebac054d63dde03790ceef8,64d2fd46c836a06233681665,64dc7f4262f34146130334b1,,,,,,,decisionTrl,resources/DBN.BMP,resources/DB.BMP,Door2,0.200322482,0.0464623,1,0,0,1.0018,optionRight,20,7760,4,13,0,13,0,1,,,,,,,,,,,,,,,,,,,,,,,,,,,,,,,,,,,,,,,
,,,,,,,,2023-08-16_08h51.11.099,HF_wild_card,2022.2.4,MacIntel,60.0024001,5ebac054d63dde03790ceef8,64d2fd46c836a06233681665,64dc7f4262f34146130334b1,,,,,,,decisionTrl,resources/DB.BMP,resources/DBN.BMP,Door1,0.215659552,0.022890433,1,0,0,0.6453,optionRight,30,7790,4,14,0,14,0,1,,,,,,,,,,,,,,,,,,,,,,,,,,,,,,,,,,,,,,,
,,,,,,,,2023-08-16_08h51.11.099,HF_wild_card,2022.2.4,MacIntel,60.0024001,5ebac054d63dde03790ceef8,64d2fd46c836a06233681665,64dc7f4262f34146130334b1,,,,,,,decisionTrl,resources/DR.BMP,resources/DG.BMP,Door4,0.23207156,-0.095348011,1,0,0,1.1983,optionRight,60,7850,4,15,0,15,0,1,,,,,,,,,,,,,,,,,,,,,,,,,,,,,,,,,,,,,,,
,,,,,,,,2023-08-16_08h51.11.099,HF_wild_card,2022.2.4,MacIntel,60.0024001,5ebac054d63dde03790ceef8,64d2fd46c836a06233681665,64dc7f4262f34146130334b1,,,,,,,decisionTrl,resources/DB.BMP,resources/DBN.BMP,Door1,0.269262515,-0.073402948,1,0,0,5.2994,optionRight,30,7880,4,16,0,16,0,1,,,,,,,,,,,,,,,,,,,,,,,,,,,,,,,,,,,,,,,
,,,,,,,,2023-08-16_08h51.11.099,HF_wild_card,2022.2.4,MacIntel,60.0024001,5ebac054d63dde03790ceef8,64d2fd46c836a06233681665,64dc7f4262f34146130334b1,,,,,,,ctch,resources/DB.BMP,resources/DR.BMP,Door3,0.302264089,-0.097152373,1,0,0,1.5786,optionRight,70,7950,4,17,0,17,0,1,,,,,,,,,,,,,,,,,,,,,,,,,,,,,,,,,,,,,,,
,,,,,,,,2023-08-16_08h51.11.099,HF_wild_card,2022.2.4,MacIntel,60.0024001,5ebac054d63dde03790ceef8,64d2fd46c836a06233681665,64dc7f4262f34146130334b1,,,,,,,decisionTrl,resources/DY.BMP,resources/DB.BMP,WildCard_NonEx,-0.350549946,-0.055368934,1,0,0,2.0417,optionLeft,55,8005,4,18,0,18,0,1,,,,,,,,,,,,,,,,,,,,,,,,,,,,,,,,,,,,,,,
,,,,,,,,2023-08-16_08h51.11.099,HF_wild_card,2022.2.4,MacIntel,60.0024001,5ebac054d63dde03790ceef8,64d2fd46c836a06233681665,64dc7f4262f34146130334b1,,,,,,,decisionTrl,resources/DG.BMP,resources/DR.BMP,Door4,-0.545584114,-0.024824363,1,0,0,5.529,optionLeft,80,8085,4,19,0,19,0,1,,,,,,,,,,,,,,,,,,,,,,,,,,,,,,,,,,,,,,,
,,,,,,,,2023-08-16_08h51.11.099,HF_wild_card,2022.2.4,MacIntel,60.0024001,5ebac054d63dde03790ceef8,64d2fd46c836a06233681665,64dc7f4262f34146130334b1,,,,,,,decisionTrl,resources/DBN.BMP,resources/DB.BMP,Door1,-0.315480075,0.003541539,1,0,0,1.7339,optionLeft,30,8115,4,20,0,20,0,1,,,,,,,,,,,,,,,,,,,,,,,,,,,,,,,,,,,,,,,
,,,,,,,,2023-08-16_08h51.11.099,HF_wild_card,2022.2.4,MacIntel,60.0024001,5ebac054d63dde03790ceef8,64d2fd46c836a06233681665,64dc7f4262f34146130334b1,,,,,,,ctch,resources/DG.BMP,resources/DBN.BMP,Door4,-0.136008523,0.06829699,1,0,0,2.2685,optionLeft,60,8175,4,21,0,21,0,1,,,,,,,,,,,,,,,,,,,,,,,,,,,,,,,,,,,,,,,
,,,,,,,,2023-08-16_08h51.11.099,HF_wild_card,2022.2.4,MacIntel,60.0024001,5ebac054d63dde03790ceef8,64d2fd46c836a06233681665,64dc7f4262f34146130334b1,,,,,,,ctch,resources/DBN.BMP,resources/DG.BMP,Door4,0.210390433,0.016767122,1,0,0,2.3154,optionRight,60,8235,4,22,0,22,0,1,,,,,,,,,,,,,,,,,,,,,,,,,,,,,,,,,,,,,,,
,,,,,,,,2023-08-16_08h51.11.099,HF_wild_card,2022.2.4,MacIntel,60.0024001,5ebac054d63dde03790ceef8,64d2fd46c836a06233681665,64dc7f4262f34146130334b1,,,,,,,decisionTrl,resources/DBN.BMP,resources/DY.BMP,WildCard_NonEx,0.413433853,-0.064980997,1,0,0,4.9665,optionRight,45,8280,4,23,0,23,0,1,,,,,,,,,,,,,,,,,,,,,,,,,,,,,,,,,,,,,,,
,,,,,,,,2023-08-16_08h51.11.099,HF_wild_card,2022.2.4,MacIntel,60.0024001,5ebac054d63dde03790ceef8,64d2fd46c836a06233681665,64dc7f4262f34146130334b1,,,,,,,decisionTrl,resources/DY.BMP,resources/DBN.BMP,WildCard_NonEx,-0.244390164,-0.053626958,1,0,0,0.7329,optionLeft,45,8325,4,24,0,24,0,1,,,,,,,,,,,,,,,,,,,,,,,,,,,,,,,,,,,,,,,
,,,,,,,,2023-08-16_08h51.11.099,HF_wild_card,2022.2.4,MacIntel,60.0024001,5ebac054d63dde03790ceef8,64d2fd46c836a06233681665,64dc7f4262f34146130334b1,,,,,,,decisionTrl,resources/DR.BMP,resources/DY.BMP,Door3,-0.342521499,0.066507025,1,0,0,1.2457,optionLeft,70,8395,4,25,0,25,0,1,,,,,,,,,,,,,,,,,,,,,,,,,,,,,,,,,,,,,,,
,,,,,,,,2023-08-16_08h51.11.099,HF_wild_card,2022.2.4,MacIntel,60.0024001,5ebac054d63dde03790ceef8,64d2fd46c836a06233681665,64dc7f4262f34146130334b1,,,,,,,decisionTrl,resources/DY.BMP,resources/DR.BMP,WildCard_NonEx,-0.201570178,0.073340564,1,0,0,0.892,optionLeft,55,8450,4,26,0,26,0,1,,,,,,,,,,,,,,,,,,,,,,,,,,,,,,,,,,,,,,,
,,,,,,,,2023-08-16_08h51.11.099,HF_wild_card,2022.2.4,MacIntel,60.0024001,5ebac054d63dde03790ceef8,64d2fd46c836a06233681665,64dc7f4262f34146130334b1,,,,,,,decisionTrl,resources/DG.BMP,resources/DY.BMP,Door4,-0.184999808,-0.000935772,1,0,0,1.9307,optionLeft,80,8530,4,27,0,27,0,1,,,,,,,,,,,,,,,,,,,,,,,,,,,,,,,,,,,,,,,
,,,,,,,,2023-08-16_08h51.11.099,HF_wild_card,2022.2.4,MacIntel,60.0024001,5ebac054d63dde03790ceef8,64d2fd46c836a06233681665,64dc7f4262f34146130334b1,,,,,,,ctch,resources/DBN.BMP,resources/DG.BMP,Door4,0.19313383,-0.019185734,1,0,0,0.756,optionRight,60,8590,4,28,0,28,0,1,,,,,,,,,,,,,,,,,,,,,,,,,,,,,,,,,,,,,,,
,,,,,,,,2023-08-16_08h51.11.099,HF_wild_card,2022.2.4,MacIntel,60.0024001,5ebac054d63dde03790ceef8,64d2fd46c836a06233681665,64dc7f4262f34146130334b1,,,,,,,decisionTrl,resources/DR.BMP,resources/DG.BMP,Door3,-0.201114289,-2.8793E-05,1,0,0,2.0882,optionLeft,70,8660,4,29,0,29,0,1,,,,,,,,,,,,,,,,,,,,,,,,,,,,,,,,,,,,,,,
,,,,,,,,2023-08-16_08h51.11.099,HF_wild_card,2022.2.4,MacIntel,60.0024001,5ebac054d63dde03790ceef8,64d2fd46c836a06233681665,64dc7f4262f34146130334b1,,,,,,,sngl,resources/DB.BMP,resources/Empty.png,Door2,-0.18532133,0.007303824,1,0,0,1.2494,optionLeft,20,8680,4,30,0,30,0,1,,,,,,,,,,,,,,,,,,,,,,,,,,,,,,,,,,,,,,,
,,,,,,,,2023-08-16_08h51.11.099,HF_wild_card,2022.2.4,MacIntel,60.0024001,5ebac054d63dde03790ceef8,64d2fd46c836a06233681665,64dc7f4262f34146130334b1,,,,,,,decisionTrl,resources/DB.BMP,resources/DBN.BMP,Door1,0.225746698,0.000767813,1,0,0,0.8711,optionRight,30,8710,4,31,0,31,0,1,,,,,,,,,,,,,,,,,,,,,,,,,,,,,,,,,,,,,,,
,,,,,,,,2023-08-16_08h51.11.099,HF_wild_card,2022.2.4,MacIntel,60.0024001,5ebac054d63dde03790ceef8,64d2fd46c836a06233681665,64dc7f4262f34146130334b1,,,,,,,sngl,resources/DY.BMP,resources/Empty.png,WildCard_NonEx,-0.163952127,-0.026240018,1,0,0,1.032,optionLeft,55,8765,4,32,0,32,0,1,,,,,,,,,,,,,,,,,,,,,,,,,,,,,,,,,,,,,,,
,,,,,,,,2023-08-16_08h51.11.099,HF_wild_card,2022.2.4,MacIntel,60.0024001,5ebac054d63dde03790ceef8,64d2fd46c836a06233681665,64dc7f4262f34146130334b1,,,,,,,sngl,resources/DY.BMP,resources/Empty.png,WildCard_NonEx,-0.194947789,-0.011157287,1,0,0,0.5671,optionLeft,45,8810,4,33,0,33,0,1,,,,,,,,,,,,,,,,,,,,,,,,,,,,,,,,,,,,,,,
,,,,,,,,2023-08-16_08h51.11.099,HF_wild_card,2022.2.4,MacIntel,60.0024001,5ebac054d63dde03790ceef8,64d2fd46c836a06233681665,64dc7f4262f34146130334b1,,,,,,,ctch,resources/DR.BMP,resources/DB.BMP,Door3,-0.427988713,-0.013508715,1,0,0,0.9329,optionLeft,70,8880,4,34,0,34,0,1,,,,,,,,,,,,,,,,,,,,,,,,,,,,,,,,,,,,,,,
,,,,,,,,2023-08-16_08h51.11.099,HF_wild_card,2022.2.4,MacIntel,60.0024001,5ebac054d63dde03790ceef8,64d2fd46c836a06233681665,64dc7f4262f34146130334b1,,,,,,,decisionTrl,resources/DB.BMP,resources/DBN.BMP,Door1,0.173055513,0.041073211,1,0,0,2.2423,optionRight,30,8910,4,35,0,35,0,1,,,,,,,,,,,,,,,,,,,,,,,,,,,,,,,,,,,,,,,
,,,,,,,,2023-08-16_08h51.11.099,HF_wild_card,2022.2.4,MacIntel,60.0024001,5ebac054d63dde03790ceef8,64d2fd46c836a06233681665,64dc7f4262f34146130334b1,,,,,,,decisionTrl,resources/DBN.BMP,resources/DB.BMP,Door1,-0.230454354,0.07023092,1,0,0,0.7987,optionLeft,30,8940,4,36,0,36,0,1,,,,,,,,,,,,,,,,,,,,,,,,,,,,,,,,,,,,,,,
,,,,,,,,2023-08-16_08h51.11.099,HF_wild_card,2022.2.4,MacIntel,60.0024001,5ebac054d63dde03790ceef8,64d2fd46c836a06233681665,64dc7f4262f34146130334b1,,,,,,,decisionTrl,resources/DY.BMP,resources/DG.BMP,Door4,0.31328221,-0.020150299,1,0,0,1.0901,optionRight,60,9000,4,37,0,37,0,1,,,,,,,,,,,,,,,,,,,,,,,,,,,,,,,,,,,,,,,
,,,,,,,,2023-08-16_08h51.11.099,HF_wild_card,2022.2.4,MacIntel,60.0024001,5ebac054d63dde03790ceef8,64d2fd46c836a06233681665,64dc7f4262f34146130334b1,,,,,,,sngl,resources/DG.BMP,resources/Empty.png,Door4,-0.175670877,0.050992399,1,0,0,0.9582,optionLeft,60,9060,4,38,0,38,0,1,,,,,,,,,,,,,,,,,,,,,,,,,,,,,,,,,,,,,,,
,,,,,,,,2023-08-16_08h51.11.099,HF_wild_card,2022.2.4,MacIntel,60.0024001,5ebac054d63dde03790ceef8,64d2fd46c836a06233681665,64dc7f4262f34146130334b1,,,,,,,decisionTrl,resources/DG.BMP,resources/DR.BMP,Door3,0.282991976,-0.039863905,1,0,0,0.9754,optionRight,70,9130,4,39,0,39,0,1,,,,,,,,,,,,,,,,,,,,,,,,,,,,,,,,,,,,,,,
,,,,,,,,2023-08-16_08h51.11.099,HF_wild_card,2022.2.4,MacIntel,60.0024001,5ebac054d63dde03790ceef8,64d2fd46c836a06233681665,64dc7f4262f34146130334b1,,,,,,,ctch,resources/DG.BMP,resources/DBN.BMP,Door4,-0.209608223,0.007874885,1,0,0,1.0011,optionLeft,80,9210,4,40,0,40,0,1,,,,,,,,,,,,,,,,,,,,,,,,,,,,,,,,,,,,,,,
,,,,,,,,2023-08-16_08h51.11.099,HF_wild_card,2022.2.4,MacIntel,60.0024001,5ebac054d63dde03790ceef8,64d2fd46c836a06233681665,64dc7f4262f34146130334b1,,,,,,,sngl,resources/DR.BMP,resources/Empty.png,Door3,-0.154340064,0.016877495,1,0,0,0.8206,optionLeft,70,9280,4,41,0,41,0,1,,,,,,,,,,,,,,,,,,,,,,,,,,,,,,,,,,,,,,,
,,,,,,,,2023-08-16_08h51.11.099,HF_wild_card,2022.2.4,MacIntel,60.0024001,5ebac054d63dde03790ceef8,64d2fd46c836a06233681665,64dc7f4262f34146130334b1,,,,,,,sngl,resources/DBN.BMP,resources/Empty.png,Door1,-0.1809208,0.067414005,1,0,0,0.8849,optionLeft,30,9310,4,42,0,42,0,1,,,,,,,,,,,,,,,,,,,,,,,,,,,,,,,,,,,,,,,
,,,,,,,,2023-08-16_08h51.11.099,HF_wild_card,2022.2.4,MacIntel,60.0024001,5ebac054d63dde03790ceef8,64d2fd46c836a06233681665,64dc7f4262f34146130334b1,,,,,,,sngl,resources/Empty.png,resources/DBN.BMP,Door1,0.280213452,-0.034407632,1,0,0,0.8003,optionRight,30,9340,4,43,0,43,0,1,,,,,,,,,,,,,,,,,,,,,,,,,,,,,,,,,,,,,,,
,,,,,,,,2023-08-16_08h51.11.099,HF_wild_card,2022.2.4,MacIntel,60.0024001,5ebac054d63dde03790ceef8,64d2fd46c836a06233681665,64dc7f4262f34146130334b1,,,,,,,,,,,,,,,,,,,,,,,,,,3,0,3,0,1,,,,,,,,,,,,,,,,,,,,,,,,,,,,,,,,,,
,,,,,,,,2023-08-16_08h51.11.099,HF_wild_card,2022.2.4,MacIntel,60.0024001,5ebac054d63dde03790ceef8,64d2fd46c836a06233681665,64dc7f4262f34146130334b1,,,,,,,ctch,resources/DG.BMP,resources/DBN.BMP,Door4,-0.373833884,-0.014430091,1,0,0,1.485,optionLeft,80,9420,5,0,0,0,0,1,,,,,,,,,,,,,,,,,,,,,,,,,,,,,,,,,,,,,,,
,,,,,,,,2023-08-16_08h51.11.099,HF_wild_card,2022.2.4,MacIntel,60.0024001,5ebac054d63dde03790ceef8,64d2fd46c836a06233681665,64dc7f4262f34146130334b1,,,,,,,decisionTrl,resources/DB.BMP,resources/DBN.BMP,Door1,0.276513552,-0.005585842,1,0,0,1.0466,optionRight,30,9450,5,1,0,1,0,1,,,,,,,,,,,,,,,,,,,,,,,,,,,,,,,,,,,,,,,
,,,,,,,,2023-08-16_08h51.11.099,HF_wild_card,2022.2.4,MacIntel,60.0024001,5ebac054d63dde03790ceef8,64d2fd46c836a06233681665,64dc7f4262f34146130334b1,,,,,,,sngl,resources/Empty.png,resources/DBN.BMP,Door1,0.2553459,0.013542307,1,0,0,0.6668,optionRight,30,9480,5,2,0,2,0,1,,,,,,,,,,,,,,,,,,,,,,,,,,,,,,,,,,,,,,,
,,,,,,,,2023-08-16_08h51.11.099,HF_wild_card,2022.2.4,MacIntel,60.0024001,5ebac054d63dde03790ceef8,64d2fd46c836a06233681665,64dc7f4262f34146130334b1,,,,,,,ctch,resources/DR.BMP,resources/DB.BMP,Door3,-0.177532824,0.034810734,1,0,0,1.2679,optionLeft,70,9550,5,3,0,3,0,1,,,,,,,,,,,,,,,,,,,,,,,,,,,,,,,,,,,,,,,
,,,,,,,,2023-08-16_08h51.11.099,HF_wild_card,2022.2.4,MacIntel,60.0024001,5ebac054d63dde03790ceef8,64d2fd46c836a06233681665,64dc7f4262f34146130334b1,,,,,,,decisionTrl,resources/DB.BMP,resources/DBN.BMP,Door1,0.267165425,-0.035448979,1,0,0,1.1976,optionRight,30,9580,5,4,0,4,0,1,,,,,,,,,,,,,,,,,,,,,,,,,,,,,,,,,,,,,,,
,,,,,,,,2023-08-16_08h51.11.099,HF_wild_card,2022.2.4,MacIntel,60.0024001,5ebac054d63dde03790ceef8,64d2fd46c836a06233681665,64dc7f4262f34146130334b1,,,,,,,decisionTrl,resources/DY.BMP,resources/DR.BMP,Door3,0.166596284,0.010576628,1,0,0,1.3981,optionRight,70,9650,5,5,0,5,0,1,,,,,,,,,,,,,,,,,,,,,,,,,,,,,,,,,,,,,,,
,,,,,,,,2023-08-16_08h51.11.099,HF_wild_card,2022.2.4,MacIntel,60.0024001,5ebac054d63dde03790ceef8,64d2fd46c836a06233681665,64dc7f4262f34146130334b1,,,,,,,decisionTrl,resources/DR.BMP,resources/DY.BMP,Door3,-0.260989327,0.009410511,1,0,0,1.0203,optionLeft,70,9720,5,6,0,6,0,1,,,,,,,,,,,,,,,,,,,,,,,,,,,,,,,,,,,,,,,
,,,,,,,,2023-08-16_08h51.11.099,HF_wild_card,2022.2.4,MacIntel,60.0024001,5ebac054d63dde03790ceef8,64d2fd46c836a06233681665,64dc7f4262f34146130334b1,,,,,,,decisionTrl,resources/DBN.BMP,resources/DB.BMP,Door1,-0.439529906,0.034110104,1,0,0,1.202,optionLeft,30,9750,5,7,0,7,0,1,,,,,,,,,,,,,,,,,,,,,,,,,,,,,,,,,,,,,,,
,,,,,,,,2023-08-16_08h51.11.099,HF_wild_card,2022.2.4,MacIntel,60.0024001,5ebac054d63dde03790ceef8,64d2fd46c836a06233681665,64dc7f4262f34146130334b1,,,,,,,decisionTrl,resources/DG.BMP,resources/DR.BMP,Door3,0.40028985,0.022688882,1,0,0,2.404,optionRight,70,9820,5,8,0,8,0,1,,,,,,,,,,,,,,,,,,,,,,,,,,,,,,,,,,,,,,,
,,,,,,,,2023-08-16_08h51.11.099,HF_wild_card,2022.2.4,MacIntel,60.0024001,5ebac054d63dde03790ceef8,64d2fd46c836a06233681665,64dc7f4262f34146130334b1,,,,,,,decisionTrl,resources/DBN.BMP,resources/DB.BMP,Door1,-0.333802019,-0.019929553,1,0,0,1.0012,optionLeft,30,9850,5,9,0,9,0,1,,,,,,,,,,,,,,,,,,,,,,,,,,,,,,,,,,,,,,,
,,,,,,,,2023-08-16_08h51.11.099,HF_wild_card,2022.2.4,MacIntel,60.0024001,5ebac054d63dde03790ceef8,64d2fd46c836a06233681665,64dc7f4262f34146130334b1,,,,,,,decisionTrl,resources/DR.BMP,resources/DG.BMP,Door3,-0.278572251,-0.001953125,1,0,0,1.7132,optionLeft,70,9920,5,10,0,10,0,1,,,,,,,,,,,,,,,,,,,,,,,,,,,,,,,,,,,,,,,
,,,,,,,,2023-08-16_08h51.11.099,HF_wild_card,2022.2.4,MacIntel,60.0024001,5ebac054d63dde03790ceef8,64d2fd46c836a06233681665,64dc7f4262f34146130334b1,,,,,,,sngl,resources/Empty.png,resources/DR.BMP,Door3,0.241702818,-0.01780367,1,0,0,0.6435,optionRight,70,9990,5,11,0,11,0,1,,,,,,,,,,,,,,,,,,,,,,,,,,,,,,,,,,,,,,,
,,,,,,,,2023-08-16_08h51.11.099,HF_wild_card,2022.2.4,MacIntel,60.0024001,5ebac054d63dde03790ceef8,64d2fd46c836a06233681665,64dc7f4262f34146130334b1,,,,,,,decisionTrl,resources/DBN.BMP,resources/DY.BMP,WildCard_NonEx,0.298780137,-0.007510174,1,0,0,1.5533,optionRight,45,10035,5,12,0,12,0,1,,,,,,,,,,,,,,,,,,,,,,,,,,,,,,,,,,,,,,,
,,,,,,,,2023-08-16_08h51.11.099,HF_wild_card,2022.2.4,MacIntel,60.0024001,5ebac054d63dde03790ceef8,64d2fd46c836a06233681665,64dc7f4262f34146130334b1,,,,,,,decisionTrl,resources/DG.BMP,resources/DR.BMP,Door4,-0.217425522,0.02323115,1,0,0,1.1734,optionLeft,80,10115,5,13,0,13,0,1,,,,,,,,,,,,,,,,,,,,,,,,,,,,,,,,,,,,,,,
,,,,,,,,2023-08-16_08h51.11.099,HF_wild_card,2022.2.4,MacIntel,60.0024001,5ebac054d63dde03790ceef8,64d2fd46c836a06233681665,64dc7f4262f34146130334b1,,,,,,,sngl,resources/DR.BMP,resources/Empty.png,Door3,-0.164959882,0.014166155,1,0,0,0.6795,optionLeft,70,10185,5,14,0,14,0,1,,,,,,,,,,,,,,,,,,,,,,,,,,,,,,,,,,,,,,,
,,,,,,,,2023-08-16_08h51.11.099,HF_wild_card,2022.2.4,MacIntel,60.0024001,5ebac054d63dde03790ceef8,64d2fd46c836a06233681665,64dc7f4262f34146130334b1,,,,,,,sngl,resources/Empty.png,resources/DG.BMP,Door4,0.26607609,0.045109029,1,0,0,0.7046,optionRight,60,10245,5,15,0,15,0,1,,,,,,,,,,,,,,,,,,,,,,,,,,,,,,,,,,,,,,,
,,,,,,,,2023-08-16_08h51.11.099,HF_wild_card,2022.2.4,MacIntel,60.0024001,5ebac054d63dde03790ceef8,64d2fd46c836a06233681665,64dc7f4262f34146130334b1,,,,,,,sngl,resources/DY.BMP,resources/Empty.png,WildCard_NonEx,-0.254654868,0.03918727,1,0,0,0.6842,optionLeft,45,10290,5,16,0,16,0,1,,,,,,,,,,,,,,,,,,,,,,,,,,,,,,,,,,,,,,,
,,,,,,,,2023-08-16_08h51.11.099,HF_wild_card,2022.2.4,MacIntel,60.0024001,5ebac054d63dde03790ceef8,64d2fd46c836a06233681665,64dc7f4262f34146130334b1,,,,,,,decisionTrl,resources/DR.BMP,resources/DG.BMP,Door4,0.465083692,-0.004103002,1,0,0,1.5535,optionRight,60,10350,5,17,0,17,0,1,,,,,,,,,,,,,,,,,,,,,,,,,,,,,,,,,,,,,,,
,,,,,,,,2023-08-16_08h51.11.099,HF_wild_card,2022.2.4,MacIntel,60.0024001,5ebac054d63dde03790ceef8,64d2fd46c836a06233681665,64dc7f4262f34146130334b1,,,,,,,ctch,resources/DBN.BMP,resources/DG.BMP,Door4,0.253632717,-0.022256987,1,0,0,0.7787,optionRight,80,10430,5,18,0,18,0,1,,,,,,,,,,,,,,,,,,,,,,,,,,,,,,,,,,,,,,,
,,,,,,,,2023-08-16_08h51.11.099,HF_wild_card,2022.2.4,MacIntel,60.0024001,5ebac054d63dde03790ceef8,64d2fd46c836a06233681665,64dc7f4262f34146130334b1,,,,,,,decisionTrl,resources/DB.BMP,resources/DY.BMP,WildCard_NonEx,0.280582962,0.020414235,1,0,0,1.4914,optionRight,45,10475,5,19,0,19,0,1,,,,,,,,,,,,,,,,,,,,,,,,,,,,,,,,,,,,,,,
,,,,,,,,2023-08-16_08h51.11.099,HF_wild_card,2022.2.4,MacIntel,60.0024001,5ebac054d63dde03790ceef8,64d2fd46c836a06233681665,64dc7f4262f34146130334b1,,,,,,,sngl,resources/Empty.png,resources/DY.BMP,WildCard_NonEx,0.205351658,0.018024416,1,0,0,0.7811,optionRight,45,10520,5,20,0,20,0,1,,,,,,,,,,,,,,,,,,,,,,,,,,,,,,,,,,,,,,,
,,,,,,,,2023-08-16_08h51.11.099,HF_wild_card,2022.2.4,MacIntel,60.0024001,5ebac054d63dde03790ceef8,64d2fd46c836a06233681665,64dc7f4262f34146130334b1,,,,,,,sngl,resources/DB.BMP,resources/Empty.png,Door2,-0.141507985,0.0082252,1,0,0,0.5706,optionLeft,40,10560,5,21,0,21,0,1,,,,,,,,,,,,,,,,,,,,,,,,,,,,,,,,,,,,,,,
,,,,,,,,2023-08-16_08h51.11.099,HF_wild_card,2022.2.4,MacIntel,60.0024001,5ebac054d63dde03790ceef8,64d2fd46c836a06233681665,64dc7f4262f34146130334b1,,,,,,,decisionTrl,resources/DY.BMP,resources/DB.BMP,WildCard_NonEx,-0.303622159,-0.0065792,1,0,0,1.1314,optionLeft,55,10615,5,22,0,22,0,1,,,,,,,,,,,,,,,,,,,,,,,,,,,,,,,,,,,,,,,
,,,,,,,,2023-08-16_08h51.11.099,HF_wild_card,2022.2.4,MacIntel,60.0024001,5ebac054d63dde03790ceef8,64d2fd46c836a06233681665,64dc7f4262f34146130334b1,,,,,,,decisionTrl,resources/DG.BMP,resources/DR.BMP,Door4,-0.226466523,-0.026393581,1,0,0,1.3749,optionLeft,80,10695,5,23,0,23,0,1,,,,,,,,,,,,,,,,,,,,,,,,,,,,,,,,,,,,,,,
,,,,,,,,2023-08-16_08h51.11.099,HF_wild_card,2022.2.4,MacIntel,60.0024001,5ebac054d63dde03790ceef8,64d2fd46c836a06233681665,64dc7f4262f34146130334b1,,,,,,,decisionTrl,resources/DBN.BMP,resources/DB.BMP,Door1,-0.23285377,-0.007500576,1,0,0,1.1609,optionLeft,30,10725,5,24,0,24,0,1,,,,,,,,,,,,,,,,,,,,,,,,,,,,,,,,,,,,,,,
,,,,,,,,2023-08-16_08h51.11.099,HF_wild_card,2022.2.4,MacIntel,60.0024001,5ebac054d63dde03790ceef8,64d2fd46c836a06233681665,64dc7f4262f34146130334b1,,,,,,,ctch,resources/DR.BMP,resources/DB.BMP,Door3,-0.164849509,-0.015577012,1,0,0,1.6039,optionLeft,70,10795,5,25,0,25,0,1,,,,,,,,,,,,,,,,,,,,,,,,,,,,,,,,,,,,,,,
,,,,,,,,2023-08-16_08h51.11.099,HF_wild_card,2022.2.4,MacIntel,60.0024001,5ebac054d63dde03790ceef8,64d2fd46c836a06233681665,64dc7f4262f34146130334b1,,,,,,,decisionTrl,resources/DB.BMP,resources/DBN.BMP,Door2,-0.194007217,0.000230344,1,0,0,1.0017,optionLeft,40,10835,5,26,0,26,0,1,,,,,,,,,,,,,,,,,,,,,,,,,,,,,,,,,,,,,,,
,,,,,,,,2023-08-16_08h51.11.099,HF_wild_card,2022.2.4,MacIntel,60.0024001,5ebac054d63dde03790ceef8,64d2fd46c836a06233681665,64dc7f4262f34146130334b1,,,,,,,sngl,resources/Empty.png,resources/DB.BMP,Door2,0.224902104,-0.036288775,1,0,0,0.7623,optionRight,20,10855,5,27,0,27,0,1,,,,,,,,,,,,,,,,,,,,,,,,,,,,,,,,,,,,,,,
,,,,,,,,2023-08-16_08h51.11.099,HF_wild_card,2022.2.4,MacIntel,60.0024001,5ebac054d63dde03790ceef8,64d2fd46c836a06233681665,64dc7f4262f34146130334b1,,,,,,,ctch,resources/DB.BMP,resources/DR.BMP,Door3,0.225549946,-0.015936924,1,0,0,1.3302,optionRight,70,10925,5,28,0,28,0,1,,,,,,,,,,,,,,,,,,,,,,,,,,,,,,,,,,,,,,,
,,,,,,,,2023-08-16_08h51.11.099,HF_wild_card,2022.2.4,MacIntel,60.0024001,5ebac054d63dde03790ceef8,64d2fd46c836a06233681665,64dc7f4262f34146130334b1,,,,,,,ctch,resources/DG.BMP,resources/DBN.BMP,Door4,-0.219666577,-0.011008523,1,0,0,1.3533,optionLeft,60,10985,5,29,0,29,0,1,,,,,,,,,,,,,,,,,,,,,,,,,,,,,,,,,,,,,,,
,,,,,,,,2023-08-16_08h51.11.099,HF_wild_card,2022.2.4,MacIntel,60.0024001,5ebac054d63dde03790ceef8,64d2fd46c836a06233681665,64dc7f4262f34146130334b1,,,,,,,decisionTrl,resources/DBN.BMP,resources/DB.BMP,Door2,0.27031346,0.024622812,1,0,0,1.8082,optionRight,20,11005,5,30,0,30,0,1,,,,,,,,,,,,,,,,,,,,,,,,,,,,,,,,,,,,,,,
,,,,,,,,2023-08-16_08h51.11.099,HF_wild_card,2022.2.4,MacIntel,60.0024001,5ebac054d63dde03790ceef8,64d2fd46c836a06233681665,64dc7f4262f34146130334b1,,,,,,,decisionTrl,resources/DG.BMP,resources/DY.BMP,Door4,-0.328345746,-0.061727388,1,0,0,1.3973,optionLeft,80,11085,5,31,0,31,0,1,,,,,,,,,,,,,,,,,,,,,,,,,,,,,,,,,,,,,,,
,,,,,,,,2023-08-16_08h51.11.099,HF_wild_card,2022.2.4,MacIntel,60.0024001,5ebac054d63dde03790ceef8,64d2fd46c836a06233681665,64dc7f4262f34146130334b1,,,,,,,sngl,resources/DY.BMP,resources/Empty.png,WildCard_NonEx,-0.153428286,-0.004198979,1,0,0,0.5882,optionLeft,55,11140,5,32,0,32,0,1,,,,,,,,,,,,,,,,,,,,,,,,,,,,,,,,,,,,,,,
,,,,,,,,2023-08-16_08h51.11.099,HF_wild_card,2022.2.4,MacIntel,60.0024001,5ebac054d63dde03790ceef8,64d2fd46c836a06233681665,64dc7f4262f34146130334b1,,,,,,,decisionTrl,resources/DG.BMP,resources/DR.BMP,Door4,-0.201195869,0.016656749,1,0,0,1.1148,optionLeft,80,11220,5,33,0,33,0,1,,,,,,,,,,,,,,,,,,,,,,,,,,,,,,,,,,,,,,,
,,,,,,,,2023-08-16_08h51.11.099,HF_wild_card,2022.2.4,MacIntel,60.0024001,5ebac054d63dde03790ceef8,64d2fd46c836a06233681665,64dc7f4262f34146130334b1,,,,,,,ctch,resources/DB.BMP,resources/DR.BMP,Door3,0.310887592,0.028591447,1,0,0,0.8234,optionRight,70,11290,5,34,0,34,0,1,,,,,,,,,,,,,,,,,,,,,,,,,,,,,,,,,,,,,,,
,,,,,,,,2023-08-16_08h51.11.099,HF_wild_card,2022.2.4,MacIntel,60.0024001,5ebac054d63dde03790ceef8,64d2fd46c836a06233681665,64dc7f4262f34146130334b1,,,,,,,sngl,resources/DG.BMP,resources/Empty.png,Door4,-0.145419034,-0.002058699,1,0,0,0.7033,optionLeft,80,11370,5,35,0,35,0,1,,,,,,,,,,,,,,,,,,,,,,,,,,,,,,,,,,,,,,,
,,,,,,,,2023-08-16_08h51.11.099,HF_wild_card,2022.2.4,MacIntel,60.0024001,5ebac054d63dde03790ceef8,64d2fd46c836a06233681665,64dc7f4262f34146130334b1,,,,,,,ctch,resources/DBN.BMP,resources/DG.BMP,Door4,0.225482763,-0.067260442,1,0,0,1.1559,optionRight,60,11430,5,36,0,36,0,1,,,,,,,,,,,,,,,,,,,,,,,,,,,,,,,,,,,,,,,
,,,,,,,,2023-08-16_08h51.11.099,HF_wild_card,2022.2.4,MacIntel,60.0024001,5ebac054d63dde03790ceef8,64d2fd46c836a06233681665,64dc7f4262f34146130334b1,,,,,,,decisionTrl,resources/DR.BMP,resources/DG.BMP,Door3,-0.260663007,0.019315303,1,0,0,1.0654,optionLeft,70,11500,5,37,0,37,0,1,,,,,,,,,,,,,,,,,,,,,,,,,,,,,,,,,,,,,,,
,,,,,,,,2023-08-16_08h51.11.099,HF_wild_card,2022.2.4,MacIntel,60.0024001,5ebac054d63dde03790ceef8,64d2fd46c836a06233681665,64dc7f4262f34146130334b1,,,,,,,sngl,resources/Empty.png,resources/DY.BMP,WildCard_NonEx,0.30419322,-0.003959037,1,0,0,0.7053,optionRight,55,11555,5,38,0,38,0,1,,,,,,,,,,,,,,,,,,,,,,,,,,,,,,,,,,,,,,,
,,,,,,,,2023-08-16_08h51.11.099,HF_wild_card,2022.2.4,MacIntel,60.0024001,5ebac054d63dde03790ceef8,64d2fd46c836a06233681665,64dc7f4262f34146130334b1,,,,,,,decisionTrl,resources/DY.BMP,resources/DBN.BMP,WildCard_NonEx,-0.184707079,-0.017870854,1,0,0,1.0674,optionLeft,55,11610,5,39,0,39,0,1,,,,,,,,,,,,,,,,,,,,,,,,,,,,,,,,,,,,,,,
,,,,,,,,2023-08-16_08h51.11.099,HF_wild_card,2022.2.4,MacIntel,60.0024001,5ebac054d63dde03790ceef8,64d2fd46c836a06233681665,64dc7f4262f34146130334b1,,,,,,,sngl,resources/DBN.BMP,resources/Empty.png,Door1,-0.181218328,0.020510212,1,0,0,0.7274,optionLeft,30,11640,5,40,0,40,0,1,,,,,,,,,,,,,,,,,,,,,,,,,,,,,,,,,,,,,,,
,,,,,,,,2023-08-16_08h51.11.099,HF_wild_card,2022.2.4,MacIntel,60.0024001,5ebac054d63dde03790ceef8,64d2fd46c836a06233681665,64dc7f4262f34146130334b1,,,,,,,decisionTrl,resources/DR.BMP,resources/DG.BMP,Door3,-0.199679438,-0.00254818,1,0,0,1.5141,optionLeft,70,11710,5,41,0,41,0,1,,,,,,,,,,,,,,,,,,,,,,,,,,,,,,,,,,,,,,,
,,,,,,,,2023-08-16_08h51.11.099,HF_wild_card,2022.2.4,MacIntel,60.0024001,5ebac054d63dde03790ceef8,64d2fd46c836a06233681665,64dc7f4262f34146130334b1,,,,,,,decisionTrl,resources/DB.BMP,resources/DBN.BMP,Door2,-0.237844556,-0.0567414,1,0,0,1.3817,optionLeft,40,11750,5,42,0,42,0,1,,,,,,,,,,,,,,,,,,,,,,,,,,,,,,,,,,,,,,,
,,,,,,,,2023-08-16_08h51.11.099,HF_wild_card,2022.2.4,MacIntel,60.0024001,5ebac054d63dde03790ceef8,64d2fd46c836a06233681665,64dc7f4262f34146130334b1,,,,,,,decisionTrl,resources/DY.BMP,resources/DG.BMP,Door4,0.298309851,-0.075524033,1,0,0,1.4644,optionRight,60,11810,5,43,0,43,0,1,,,,,,,,,,,,,,,,,,,,,,,,,,,,,,,,,,,,,,,
,,,,,,,,2023-08-16_08h51.11.099,HF_wild_card,2022.2.4,MacIntel,60.0024001,5ebac054d63dde03790ceef8,64d2fd46c836a06233681665,64dc7f4262f34146130334b1,,,,,,,,,,,,,,,,,,,,,,,,,,4,0,4,0,1,,,,,,,,,,,,,,,,,,,,,,,,,,,,,,,,,,
,,,,,,,,2023-08-16_08h51.11.099,HF_wild_card,2022.2.4,MacIntel,60.0024001,5ebac054d63dde03790ceef8,64d2fd46c836a06233681665,64dc7f4262f34146130334b1,,,,,,,ctch,resources/DB.BMP,resources/DR.BMP,Door3,0.343274916,0.017357379,1,0,0,1.8442,optionRight,70,11880,6,0,0,0,0,1,,,,,,,,,,,,,,,,,,,,,,,,,,,,,,,,,,,,,,,
,,,,,,,,2023-08-16_08h51.11.099,HF_wild_card,2022.2.4,MacIntel,60.0024001,5ebac054d63dde03790ceef8,64d2fd46c836a06233681665,64dc7f4262f34146130334b1,,,,,,,sngl,resources/DG.BMP,resources/Empty.png,Door4,-0.289647958,-0.023269541,1,0,0,2.244,optionLeft,60,11940,6,1,0,1,0,1,,,,,,,,,,,,,,,,,,,,,,,,,,,,,,,,,,,,,,,
,,,,,,,,2023-08-16_08h51.11.099,HF_wild_card,2022.2.4,MacIntel,60.0024001,5ebac054d63dde03790ceef8,64d2fd46c836a06233681665,64dc7f4262f34146130334b1,,,,,,,decisionTrl,resources/DB.BMP,resources/DBN.BMP,Door2,-0.192865095,-0.010111141,1,0,0,1.2067,optionLeft,40,11980,6,2,0,2,0,1,,,,,,,,,,,,,,,,,,,,,,,,,,,,,,,,,,,,,,,
,,,,,,,,2023-08-16_08h51.11.099,HF_wild_card,2022.2.4,MacIntel,60.0024001,5ebac054d63dde03790ceef8,64d2fd46c836a06233681665,64dc7f4262f34146130334b1,,,,,,,ctch,resources/DB.BMP,resources/DR.BMP,Door2,-0.126161318,0.089541424,1,0,0,2.7512,optionLeft,20,12000,6,3,0,3,0,1,,,,,,,,,,,,,,,,,,,,,,,,,,,,,,,,,,,,,,,
,,,,,,,,2023-08-16_08h51.11.099,HF_wild_card,2022.2.4,MacIntel,60.0024001,5ebac054d63dde03790ceef8,64d2fd46c836a06233681665,64dc7f4262f34146130334b1,,,,,,,decisionTrl,resources/DB.BMP,resources/DY.BMP,WildCard_NonEx,0.226034628,-0.077198825,1,0,0,1.5204,optionRight,55,12055,6,4,0,4,0,1,,,,,,,,,,,,,,,,,,,,,,,,,,,,,,,,,,,,,,,
,,,,,,,,2023-08-16_08h51.11.099,HF_wild_card,2022.2.4,MacIntel,60.0024001,5ebac054d63dde03790ceef8,64d2fd46c836a06233681665,64dc7f4262f34146130334b1,,,,,,,decisionTrl,resources/DB.BMP,resources/DBN.BMP,Door1,0.126372466,-0.031038851,1,0,0,3.7062,optionRight,30,12085,6,5,0,5,0,1,,,,,,,,,,,,,,,,,,,,,,,,,,,,,,,,,,,,,,,
,,,,,,,,2023-08-16_08h51.11.099,HF_wild_card,2022.2.4,MacIntel,60.0024001,5ebac054d63dde03790ceef8,64d2fd46c836a06233681665,64dc7f4262f34146130334b1,,,,,,,decisionTrl,resources/DB.BMP,resources/DBN.BMP,Door1,0.228011748,-0.021652334,1,0,0,0.7598,optionRight,30,12115,6,6,0,6,0,1,,,,,,,,,,,,,,,,,,,,,,,,,,,,,,,,,,,,,,,
,,,,,,,,2023-08-16_08h51.11.099,HF_wild_card,2022.2.4,MacIntel,60.0024001,5ebac054d63dde03790ceef8,64d2fd46c836a06233681665,64dc7f4262f34146130334b1,,,,,,,sngl,resources/DBN.BMP,resources/Empty.png,Door1,-0.236467291,0.006142506,1,0,0,0.7456,optionLeft,30,12145,6,7,0,7,0,1,,,,,,,,,,,,,,,,,,,,,,,,,,,,,,,,,,,,,,,
,,,,,,,,2023-08-16_08h51.11.099,HF_wild_card,2022.2.4,MacIntel,60.0024001,5ebac054d63dde03790ceef8,64d2fd46c836a06233681665,64dc7f4262f34146130334b1,,,,,,,decisionTrl,resources/DR.BMP,resources/DG.BMP,Door4,0.17672662,0.011670762,1,0,0,1.716,optionRight,80,12225,6,8,0,8,0,1,,,,,,,,,,,,,,,,,,,,,,,,,,,,,,,,,,,,,,,
,,,,,,,,2023-08-16_08h51.11.099,HF_wild_card,2022.2.4,MacIntel,60.0024001,5ebac054d63dde03790ceef8,64d2fd46c836a06233681665,64dc7f4262f34146130334b1,,,,,,,ctch,resources/DBN.BMP,resources/DG.BMP,Door4,0.200399263,0.036643888,1,0,0,0.7102,optionRight,60,12285,6,9,0,9,0,1,,,,,,,,,,,,,,,,,,,,,,,,,,,,,,,,,,,,,,,
,,,,,,,,2023-08-16_08h51.11.099,HF_wild_card,2022.2.4,MacIntel,60.0024001,5ebac054d63dde03790ceef8,64d2fd46c836a06233681665,64dc7f4262f34146130334b1,,,,,,,ctch,resources/DR.BMP,resources/DB.BMP,Door3,-0.226908016,0.017088644,1,0,0,0.9608,optionLeft,70,12355,6,10,0,10,0,1,,,,,,,,,,,,,,,,,,,,,,,,,,,,,,,,,,,,,,,
,,,,,,,,2023-08-16_08h51.11.099,HF_wild_card,2022.2.4,MacIntel,60.0024001,5ebac054d63dde03790ceef8,64d2fd46c836a06233681665,64dc7f4262f34146130334b1,,,,,,,sngl,resources/Empty.png,resources/DG.BMP,Door4,0.273926981,-0.038755375,1,0,0,1.2118,optionRight,80,12435,6,11,0,11,0,1,,,,,,,,,,,,,,,,,,,,,,,,,,,,,,,,,,,,,,,
,,,,,,,,2023-08-16_08h51.11.099,HF_wild_card,2022.2.4,MacIntel,60.0024001,5ebac054d63dde03790ceef8,64d2fd46c836a06233681665,64dc7f4262f34146130334b1,,,,,,,decisionTrl,resources/DR.BMP,resources/DY.BMP,Door3,-0.209790579,-0.026254415,1,0,0,7.4692,optionLeft,70,12505,6,12,0,12,0,1,,,,,,,,,,,,,,,,,,,,,,,,,,,,,,,,,,,,,,,
,,,,,,,,2023-08-16_08h51.11.099,HF_wild_card,2022.2.4,MacIntel,60.0024001,5ebac054d63dde03790ceef8,64d2fd46c836a06233681665,64dc7f4262f34146130334b1,,,,,,,sngl,resources/DY.BMP,resources/Empty.png,WildCard_NonEx,-0.234562154,0.037579661,1,0,0,0.7041,optionLeft,45,12550,6,13,0,13,0,1,,,,,,,,,,,,,,,,,,,,,,,,,,,,,,,,,,,,,,,
,,,,,,,,2023-08-16_08h51.11.099,HF_wild_card,2022.2.4,MacIntel,60.0024001,5ebac054d63dde03790ceef8,64d2fd46c836a06233681665,64dc7f4262f34146130334b1,,,,,,,decisionTrl,resources/DB.BMP,resources/DBN.BMP,Door2,-0.218841178,0.025035511,1,0,0,1.0334,optionLeft,40,12590,6,14,0,14,0,1,,,,,,,,,,,,,,,,,,,,,,,,,,,,,,,,,,,,,,,
,,,,,,,,2023-08-16_08h51.11.099,HF_wild_card,2022.2.4,MacIntel,60.0024001,5ebac054d63dde03790ceef8,64d2fd46c836a06233681665,64dc7f4262f34146130334b1,,,,,,,sngl,resources/DR.BMP,resources/Empty.png,Door3,-0.234389396,0.022213798,1,0,0,0.6855,optionLeft,70,12660,6,15,0,15,0,1,,,,,,,,,,,,,,,,,,,,,,,,,,,,,,,,,,,,,,,
,,,,,,,,2023-08-16_08h51.11.099,HF_wild_card,2022.2.4,MacIntel,60.0024001,5ebac054d63dde03790ceef8,64d2fd46c836a06233681665,64dc7f4262f34146130334b1,,,,,,,decisionTrl,resources/DBN.BMP,resources/DY.BMP,WildCard_NonEx,0.22845324,-0.021378801,1,0,0,1.2294,optionRight,55,12715,6,16,0,16,0,1,,,,,,,,,,,,,,,,,,,,,,,,,,,,,,,,,,,,,,,
,,,,,,,,2023-08-16_08h51.11.099,HF_wild_card,2022.2.4,MacIntel,60.0024001,5ebac054d63dde03790ceef8,64d2fd46c836a06233681665,64dc7f4262f34146130334b1,,,,,,,decisionTrl,resources/DY.BMP,resources/DB.BMP,WildCard_NonEx,-0.289427211,-0.054226812,1,0,0,4.728,optionLeft,55,12770,6,17,0,17,0,1,,,,,,,,,,,,,,,,,,,,,,,,,,,,,,,,,,,,,,,
,,,,,,,,2023-08-16_08h51.11.099,HF_wild_card,2022.2.4,MacIntel,60.0024001,5ebac054d63dde03790ceef8,64d2fd46c836a06233681665,64dc7f4262f34146130334b1,,,,,,,decisionTrl,resources/DR.BMP,resources/DG.BMP,Door4,0.207429553,-0.067716331,1,0,0,1.2285,optionRight,60,12830,6,18,0,18,0,1,,,,,,,,,,,,,,,,,,,,,,,,,,,,,,,,,,,,,,,
,,,,,,,,2023-08-16_08h51.11.099,HF_wild_card,2022.2.4,MacIntel,60.0024001,5ebac054d63dde03790ceef8,64d2fd46c836a06233681665,64dc7f4262f34146130334b1,,,,,,,decisionTrl,resources/DG.BMP,resources/DY.BMP,Door4,-0.308646537,0.002049102,1,0,0,1.0937,optionLeft,60,12890,6,19,0,19,0,1,,,,,,,,,,,,,,,,,,,,,,,,,,,,,,,,,,,,,,,
,,,,,,,,2023-08-16_08h51.11.099,HF_wild_card,2022.2.4,MacIntel,60.0024001,5ebac054d63dde03790ceef8,64d2fd46c836a06233681665,64dc7f4262f34146130334b1,,,,,,,decisionTrl,resources/DG.BMP,resources/DR.BMP,Door4,-0.357954545,-0.046783822,1,0,0,4.1499,optionLeft,80,12970,6,20,0,20,0,1,,,,,,,,,,,,,,,,,,,,,,,,,,,,,,,,,,,,,,,
,,,,,,,,2023-08-16_08h51.11.099,HF_wild_card,2022.2.4,MacIntel,60.0024001,5ebac054d63dde03790ceef8,64d2fd46c836a06233681665,64dc7f4262f34146130334b1,,,,,,,decisionTrl,resources/DY.BMP,resources/DG.BMP,Door4,0.265898533,-0.015217099,1,0,0,1.1545,optionRight,60,13030,6,21,0,21,0,1,,,,,,,,,,,,,,,,,,,,,,,,,,,,,,,,,,,,,,,
,,,,,,,,2023-08-16_08h51.11.099,HF_wild_card,2022.2.4,MacIntel,60.0024001,5ebac054d63dde03790ceef8,64d2fd46c836a06233681665,64dc7f4262f34146130334b1,,,,,,,ctch,resources/DG.BMP,resources/DBN.BMP,Door4,-0.361702434,0.040036663,1,0,0,0.8899,optionLeft,80,13110,6,22,0,22,0,1,,,,,,,,,,,,,,,,,,,,,,,,,,,,,,,,,,,,,,,
,,,,,,,,2023-08-16_08h51.11.099,HF_wild_card,2022.2.4,MacIntel,60.0024001,5ebac054d63dde03790ceef8,64d2fd46c836a06233681665,64dc7f4262f34146130334b1,,,,,,,sngl,resources/DB.BMP,resources/Empty.png,Door2,-0.215822712,-0.004611678,1,0,0,0.6283,optionLeft,20,13130,6,23,0,23,0,1,,,,,,,,,,,,,,,,,,,,,,,,,,,,,,,,,,,,,,,
,,,,,,,,2023-08-16_08h51.11.099,HF_wild_card,2022.2.4,MacIntel,60.0024001,5ebac054d63dde03790ceef8,64d2fd46c836a06233681665,64dc7f4262f34146130334b1,,,,,,,ctch,resources/DG.BMP,resources/DBN.BMP,Door4,-0.195921952,0.018744241,1,0,0,0.8677,optionLeft,60,13190,6,24,0,24,0,1,,,,,,,,,,,,,,,,,,,,,,,,,,,,,,,,,,,,,,,
,,,,,,,,2023-08-16_08h51.11.099,HF_wild_card,2022.2.4,MacIntel,60.0024001,5ebac054d63dde03790ceef8,64d2fd46c836a06233681665,64dc7f4262f34146130334b1,,,,,,,decisionTrl,resources/DG.BMP,resources/DR.BMP,Door3,0.256646384,0.019761594,1,0,0,2.4943,optionRight,70,13260,6,25,0,25,0,1,,,,,,,,,,,,,,,,,,,,,,,,,,,,,,,,,,,,,,,
,,,,,,,,2023-08-16_08h51.11.099,HF_wild_card,2022.2.4,MacIntel,60.0024001,5ebac054d63dde03790ceef8,64d2fd46c836a06233681665,64dc7f4262f34146130334b1,,,,,,,decisionTrl,resources/DY.BMP,resources/DBN.BMP,WildCard_NonEx,-0.308325015,0.048669764,1,0,0,1.157,optionLeft,45,13305,6,26,0,26,0,1,,,,,,,,,,,,,,,,,,,,,,,,,,,,,,,,,,,,,,,
,,,,,,,,2023-08-16_08h51.11.099,HF_wild_card,2022.2.4,MacIntel,60.0024001,5ebac054d63dde03790ceef8,64d2fd46c836a06233681665,64dc7f4262f34146130334b1,,,,,,,decisionTrl,resources/DG.BMP,resources/DR.BMP,Door4,-0.146580352,-0.008028447,1,0,0,1.9315,optionLeft,60,13365,6,27,0,27,0,1,,,,,,,,,,,,,,,,,,,,,,,,,,,,,,,,,,,,,,,
,,,,,,,,2023-08-16_08h51.11.099,HF_wild_card,2022.2.4,MacIntel,60.0024001,5ebac054d63dde03790ceef8,64d2fd46c836a06233681665,64dc7f4262f34146130334b1,,,,,,,ctch,resources/DBN.BMP,resources/DG.BMP,Door4,0.240416731,-0.040492552,1,0,0,0.7601,optionRight,60,13425,6,28,0,28,0,1,,,,,,,,,,,,,,,,,,,,,,,,,,,,,,,,,,,,,,,
,,,,,,,,2023-08-16_08h51.11.099,HF_wild_card,2022.2.4,MacIntel,60.0024001,5ebac054d63dde03790ceef8,64d2fd46c836a06233681665,64dc7f4262f34146130334b1,,,,,,,decisionTrl,resources/DBN.BMP,resources/DB.BMP,Door1,-0.141042498,-0.025750537,1,0,0,2.4514,optionLeft,30,13455,6,29,0,29,0,1,,,,,,,,,,,,,,,,,,,,,,,,,,,,,,,,,,,,,,,
,,,,,,,,2023-08-16_08h51.11.099,HF_wild_card,2022.2.4,MacIntel,60.0024001,5ebac054d63dde03790ceef8,64d2fd46c836a06233681665,64dc7f4262f34146130334b1,,,,,,,decisionTrl,resources/DY.BMP,resources/DR.BMP,Door3,0.256636786,0.001180513,1,0,0,1.6622,optionRight,70,13525,6,30,0,30,0,1,,,,,,,,,,,,,,,,,,,,,,,,,,,,,,,,,,,,,,,
,,,,,,,,2023-08-16_08h51.11.099,HF_wild_card,2022.2.4,MacIntel,60.0024001,5ebac054d63dde03790ceef8,64d2fd46c836a06233681665,64dc7f4262f34146130334b1,,,,,,,decisionTrl,resources/DR.BMP,resources/DG.BMP,Door3,-0.165636517,-0.031725084,1,0,0,1.4835,optionLeft,70,13595,6,31,0,31,0,1,,,,,,,,,,,,,,,,,,,,,,,,,,,,,,,,,,,,,,,
,,,,,,,,2023-08-16_08h51.11.099,HF_wild_card,2022.2.4,MacIntel,60.0024001,5ebac054d63dde03790ceef8,64d2fd46c836a06233681665,64dc7f4262f34146130334b1,,,,,,,decisionTrl,resources/DBN.BMP,resources/DB.BMP,Door2,0.407723242,-0.124203394,1,0,0,4.2741,optionRight,40,13635,6,32,0,32,0,1,,,,,,,,,,,,,,,,,,,,,,,,,,,,,,,,,,,,,,,
,,,,,,,,2023-08-16_08h51.11.099,HF_wild_card,2022.2.4,MacIntel,60.0024001,5ebac054d63dde03790ceef8,64d2fd46c836a06233681665,64dc7f4262f34146130334b1,,,,,,,sngl,resources/DY.BMP,resources/Empty.png,WildCard_NonEx,-0.223236909,-0.021071675,1,0,0,0.8014,optionLeft,55,13690,6,33,0,33,0,1,,,,,,,,,,,,,,,,,,,,,,,,,,,,,,,,,,,,,,,
,,,,,,,,2023-08-16_08h51.11.099,HF_wild_card,2022.2.4,MacIntel,60.0024001,5ebac054d63dde03790ceef8,64d2fd46c836a06233681665,64dc7f4262f34146130334b1,,,,,,,ctch,resources/DR.BMP,resources/DB.BMP,Door2,0.281240402,-0.078969595,1,0,0,1.6838,optionRight,20,13710,6,34,0,34,0,1,,,,,,,,,,,,,,,,,,,,,,,,,,,,,,,,,,,,,,,
,,,,,,,,2023-08-16_08h51.11.099,HF_wild_card,2022.2.4,MacIntel,60.0024001,5ebac054d63dde03790ceef8,64d2fd46c836a06233681665,64dc7f4262f34146130334b1,,,,,,,sngl,resources/Empty.png,resources/DR.BMP,Door3,0.208802019,-0.025635365,1,0,0,0.7011,optionRight,70,13780,6,35,0,35,0,1,,,,,,,,,,,,,,,,,,,,,,,,,,,,,,,,,,,,,,,
,,,,,,,,2023-08-16_08h51.11.099,HF_wild_card,2022.2.4,MacIntel,60.0024001,5ebac054d63dde03790ceef8,64d2fd46c836a06233681665,64dc7f4262f34146130334b1,,,,,,,decisionTrl,resources/DBN.BMP,resources/DB.BMP,Door1,-0.239730498,-0.036715871,1,0,0,2.0661,optionLeft,30,13810,6,36,0,36,0,1,,,,,,,,,,,,,,,,,,,,,,,,,,,,,,,,,,,,,,,
,,,,,,,,2023-08-16_08h51.11.099,HF_wild_card,2022.2.4,MacIntel,60.0024001,5ebac054d63dde03790ceef8,64d2fd46c836a06233681665,64dc7f4262f34146130334b1,,,,,,,sngl,resources/Empty.png,resources/DY.BMP,WildCard_NonEx,0.338260135,-0.059793458,1,0,0,0.8401,optionRight,55,13865,6,37,0,37,0,1,,,,,,,,,,,,,,,,,,,,,,,,,,,,,,,,,,,,,,,
,,,,,,,,2023-08-16_08h51.11.099,HF_wild_card,2022.2.4,MacIntel,60.0024001,5ebac054d63dde03790ceef8,64d2fd46c836a06233681665,64dc7f4262f34146130334b1,,,,,,,decisionTrl,resources/DBN.BMP,resources/DB.BMP,Door2,0.304270002,-0.109590947,1,0,0,1.2223,optionRight,40,13905,6,38,0,38,0,1,,,,,,,,,,,,,,,,,,,,,,,,,,,,,,,,,,,,,,,
,,,,,,,,2023-08-16_08h51.11.099,HF_wild_card,2022.2.4,MacIntel,60.0024001,5ebac054d63dde03790ceef8,64d2fd46c836a06233681665,64dc7f4262f34146130334b1,,,,,,,sngl,resources/Empty.png,resources/DB.BMP,Door2,0.173986486,-0.065979154,1,0,0,0.7838,optionRight,40,13945,6,39,0,39,0,1,,,,,,,,,,,,,,,,,,,,,,,,,,,,,,,,,,,,,,,
,,,,,,,,2023-08-16_08h51.11.099,HF_wild_card,2022.2.4,MacIntel,60.0024001,5ebac054d63dde03790ceef8,64d2fd46c836a06233681665,64dc7f4262f34146130334b1,,,,,,,sngl,resources/Empty.png,resources/DY.BMP,WildCard_NonEx,0.199583461,-0.063344595,1,0,0,0.6261,optionRight,45,13990,6,40,0,40,0,1,,,,,,,,,,,,,,,,,,,,,,,,,,,,,,,,,,,,,,,
,,,,,,,,2023-08-16_08h51.11.099,HF_wild_card,2022.2.4,MacIntel,60.0024001,5ebac054d63dde03790ceef8,64d2fd46c836a06233681665,64dc7f4262f34146130334b1,,,,,,,sngl,resources/Empty.png,resources/DBN.BMP,Door1,0.243963068,0.017755682,1,0,0,0.7943,optionRight,30,14020,6,41,0,41,0,1,,,,,,,,,,,,,,,,,,,,,,,,,,,,,,,,,,,,,,,
,,,,,,,,2023-08-16_08h51.11.099,HF_wild_card,2022.2.4,MacIntel,60.0024001,5ebac054d63dde03790ceef8,64d2fd46c836a06233681665,64dc7f4262f34146130334b1,,,,,,,decisionTrl,resources/DR.BMP,resources/DG.BMP,Door4,0.16698019,0.003675906,1,0,0,2.1824,optionRight,80,14100,6,42,0,42,0,1,,,,,,,,,,,,,,,,,,,,,,,,,,,,,,,,,,,,,,,
,,,,,,,,2023-08-16_08h51.11.099,HF_wild_card,2022.2.4,MacIntel,60.0024001,5ebac054d63dde03790ceef8,64d2fd46c836a06233681665,64dc7f4262f34146130334b1,,,,,,,decisionTrl,resources/DG.BMP,resources/DR.BMP,Door4,-0.27323115,-0.045905636,1,0,0,1.2234,optionLeft,60,14160,6,43,0,43,0,1,,,,,,,,,,,,,,,,,,,,,,,,,,,,,,,,,,,,,,,
,,,,,,,,2023-08-16_08h51.11.099,HF_wild_card,2022.2.4,MacIntel,60.0024001,5ebac054d63dde03790ceef8,64d2fd46c836a06233681665,64dc7f4262f34146130334b1,,,,,,,,,,,,,,,,,,,,,,,,,,5,0,5,0,1,,,,,,,,,,,,,,,,,,,,,,,,,,,,,,,,,,
,,,,,,,,2023-08-16_08h51.11.099,HF_wild_card,2022.2.4,MacIntel,60.0024001,5ebac054d63dde03790ceef8,64d2fd46c836a06233681665,64dc7f4262f34146130334b1,,,,,,,ctch,resources/DB.BMP,resources/DR.BMP,Door3,0.24292652,-0.036931818,1,0,0,0.9562,optionRight,70,14230,7,0,0,0,0,1,,,,,,,,,,,,,,,,,,,,,,,,,,,,,,,,,,,,,,,
,,,,,,,,2023-08-16_08h51.11.099,HF_wild_card,2022.2.4,MacIntel,60.0024001,5ebac054d63dde03790ceef8,64d2fd46c836a06233681665,64dc7f4262f34146130334b1,,,,,,,decisionTrl,resources/DR.BMP,resources/DG.BMP,Door3,-0.235901029,0.027737254,1,0,0,2.9983,optionLeft,70,14300,7,1,0,1,0,1,,,,,,,,,,,,,,,,,,,,,,,,,,,,,,,,,,,,,,,
,,,,,,,,2023-08-16_08h51.11.099,HF_wild_card,2022.2.4,MacIntel,60.0024001,5ebac054d63dde03790ceef8,64d2fd46c836a06233681665,64dc7f4262f34146130334b1,,,,,,,ctch,resources/DB.BMP,resources/DR.BMP,Door3,0.251574017,-0.029474432,1,0,0,1.0011,optionRight,70,14370,7,2,0,2,0,1,,,,,,,,,,,,,,,,,,,,,,,,,,,,,,,,,,,,,,,
,,,,,,,,2023-08-16_08h51.11.099,HF_wild_card,2022.2.4,MacIntel,60.0024001,5ebac054d63dde03790ceef8,64d2fd46c836a06233681665,64dc7f4262f34146130334b1,,,,,,,decisionTrl,resources/DB.BMP,resources/DBN.BMP,Door2,-0.173554592,0.007553363,1,0,0,2.44,optionLeft,40,14410,7,3,0,3,0,1,,,,,,,,,,,,,,,,,,,,,,,,,,,,,,,,,,,,,,,
,,,,,,,,2023-08-16_08h51.11.099,HF_wild_card,2022.2.4,MacIntel,60.0024001,5ebac054d63dde03790ceef8,64d2fd46c836a06233681665,64dc7f4262f34146130334b1,,,,,,,decisionTrl,resources/DR.BMP,resources/DG.BMP,Door4,0.295233799,-0.006008139,1,0,0,1.244,optionRight,60,14470,7,4,0,4,0,1,,,,,,,,,,,,,,,,,,,,,,,,,,,,,,,,,,,,,,,
,,,,,,,,2023-08-16_08h51.11.099,HF_wild_card,2022.2.4,MacIntel,60.0024001,5ebac054d63dde03790ceef8,64d2fd46c836a06233681665,64dc7f4262f34146130334b1,,,,,,,decisionTrl,resources/DB.BMP,resources/DBN.BMP,Door2,-0.23153889,-0.064241976,1,0,0,1.3118,optionLeft,20,14490,7,5,0,5,0,1,,,,,,,,,,,,,,,,,,,,,,,,,,,,,,,,,,,,,,,
,,,,,,,,2023-08-16_08h51.11.099,HF_wild_card,2022.2.4,MacIntel,60.0024001,5ebac054d63dde03790ceef8,64d2fd46c836a06233681665,64dc7f4262f34146130334b1,,,,,,,decisionTrl,resources/DG.BMP,resources/DR.BMP,Door4,-0.219028332,0.004659667,1,0,0,0.9979,optionLeft,60,14550,7,6,0,6,0,1,,,,,,,,,,,,,,,,,,,,,,,,,,,,,,,,,,,,,,,
,,,,,,,,2023-08-16_08h51.11.099,HF_wild_card,2022.2.4,MacIntel,60.0024001,5ebac054d63dde03790ceef8,64d2fd46c836a06233681665,64dc7f4262f34146130334b1,,,,,,,ctch,resources/DG.BMP,resources/DBN.BMP,Door4,-0.166543497,0.031729883,1,0,0,0.8906,optionLeft,60,14610,7,7,0,7,0,1,,,,,,,,,,,,,,,,,,,,,,,,,,,,,,,,,,,,,,,
,,,,,,,,2023-08-16_08h51.11.099,HF_wild_card,2022.2.4,MacIntel,60.0024001,5ebac054d63dde03790ceef8,64d2fd46c836a06233681665,64dc7f4262f34146130334b1,,,,,,,decisionTrl,resources/DG.BMP,resources/DR.BMP,Door3,0.386248464,0.030606956,1,0,0,1.0511,optionRight,70,14680,7,8,0,8,0,1,,,,,,,,,,,,,,,,,,,,,,,,,,,,,,,,,,,,,,,
,,,,,,,,2023-08-16_08h51.11.099,HF_wild_card,2022.2.4,MacIntel,60.0024001,5ebac054d63dde03790ceef8,64d2fd46c836a06233681665,64dc7f4262f34146130334b1,,,,,,,decisionTrl,resources/DG.BMP,resources/DR.BMP,Door4,-0.224638168,-0.000393504,1,0,0,0.8195,optionLeft,80,14760,7,9,0,9,0,1,,,,,,,,,,,,,,,,,,,,,,,,,,,,,,,,,,,,,,,
,,,,,,,,2023-08-16_08h51.11.099,HF_wild_card,2022.2.4,MacIntel,60.0024001,5ebac054d63dde03790ceef8,64d2fd46c836a06233681665,64dc7f4262f34146130334b1,,,,,,,ctch,resources/DR.BMP,resources/DB.BMP,Door3,-0.154815149,-0.030011901,1,0,0,1.047,optionLeft,70,14830,7,10,0,10,0,1,,,,,,,,,,,,,,,,,,,,,,,,,,,,,,,,,,,,,,,
,,,,,,,,2023-08-16_08h51.11.099,HF_wild_card,2022.2.4,MacIntel,60.0024001,5ebac054d63dde03790ceef8,64d2fd46c836a06233681665,64dc7f4262f34146130334b1,,,,,,,decisionTrl,resources/DG.BMP,resources/DR.BMP,Door3,0.22685043,0.040718097,1,0,0,1.687,optionRight,70,14900,7,11,0,11,0,1,,,,,,,,,,,,,,,,,,,,,,,,,,,,,,,,,,,,,,,
,,,,,,,,2023-08-16_08h51.11.099,HF_wild_card,2022.2.4,MacIntel,60.0024001,5ebac054d63dde03790ceef8,64d2fd46c836a06233681665,64dc7f4262f34146130334b1,,,,,,,decisionTrl,resources/DB.BMP,resources/DBN.BMP,Door2,-0.149075745,-0.022727273,1,0,0,1.3123,optionLeft,40,14940,7,12,0,12,0,1,,,,,,,,,,,,,,,,,,,,,,,,,,,,,,,,,,,,,,,
,,,,,,,,2023-08-16_08h51.11.099,HF_wild_card,2022.2.4,MacIntel,60.0024001,5ebac054d63dde03790ceef8,64d2fd46c836a06233681665,64dc7f4262f34146130334b1,,,,,,,decisionTrl,resources/DBN.BMP,resources/DB.BMP,Door2,0.19009137,-0.107335496,1,0,0,1.9098,optionRight,40,14980,7,13,0,13,0,1,,,,,,,,,,,,,,,,,,,,,,,,,,,,,,,,,,,,,,,
,,,,,,,,2023-08-16_08h51.11.099,HF_wild_card,2022.2.4,MacIntel,60.0024001,5ebac054d63dde03790ceef8,64d2fd46c836a06233681665,64dc7f4262f34146130334b1,,,,,,,decisionTrl,resources/DR.BMP,resources/DG.BMP,Door4,0.387342598,-0.104345823,1,0,0,1.949,optionRight,60,15040,7,14,0,14,0,1,,,,,,,,,,,,,,,,,,,,,,,,,,,,,,,,,,,,,,,
,,,,,,,,2023-08-16_08h51.11.099,HF_wild_card,2022.2.4,MacIntel,60.0024001,5ebac054d63dde03790ceef8,64d2fd46c836a06233681665,64dc7f4262f34146130334b1,,,,,,,decisionTrl,resources/DBN.BMP,resources/DB.BMP,Door2,0.17750883,-0.076944487,1,0,0,0.9344,optionRight,40,15080,7,15,0,15,0,1,,,,,,,,,,,,,,,,,,,,,,,,,,,,,,,,,,,,,,,
,,,,,,,,2023-08-16_08h51.11.099,HF_wild_card,2022.2.4,MacIntel,60.0024001,5ebac054d63dde03790ceef8,64d2fd46c836a06233681665,64dc7f4262f34146130334b1,,,,,,,decisionTrl,resources/DB.BMP,resources/DBN.BMP,Door2,-0.235881834,-0.022357763,1,0,0,1.1764,optionLeft,20,15100,7,16,0,16,0,1,,,,,,,,,,,,,,,,,,,,,,,,,,,,,,,,,,,,,,,
,,,,,,,,2023-08-16_08h51.11.099,HF_wild_card,2022.2.4,MacIntel,60.0024001,5ebac054d63dde03790ceef8,64d2fd46c836a06233681665,64dc7f4262f34146130334b1,,,,,,,ctch,resources/DBN.BMP,resources/DG.BMP,Door4,0.307974701,-0.073187001,1,0,0,1.0688,optionRight,80,15180,7,17,0,17,0,1,,,,,,,,,,,,,,,,,,,,,,,,,,,,,,,,,,,,,,,
,,,,,,,,2023-08-16_08h51.11.099,HF_wild_card,2022.2.4,MacIntel,60.0024001,5ebac054d63dde03790ceef8,64d2fd46c836a06233681665,64dc7f4262f34146130334b1,,,,,,,decisionTrl,resources/DR.BMP,resources/DG.BMP,Door3,-0.234754108,0.004520501,1,0,0,0.759,optionLeft,70,15250,7,18,0,18,0,1,,,,,,,,,,,,,,,,,,,,,,,,,,,,,,,,,,,,,,,
,,,,,,,,2023-08-16_08h51.11.099,HF_wild_card,2022.2.4,MacIntel,60.0024001,5ebac054d63dde03790ceef8,64d2fd46c836a06233681665,64dc7f4262f34146130334b1,,,,,,,ctch,resources/DR.BMP,resources/DB.BMP,Door3,-0.206436195,0.030501382,1,0,0,1.0704,optionLeft,70,15320,7,19,0,19,0,1,,,,,,,,,,,,,,,,,,,,,,,,,,,,,,,,,,,,,,,
,,,,,,,,2023-08-16_08h51.11.099,HF_wild_card,2022.2.4,MacIntel,60.0024001,5ebac054d63dde03790ceef8,64d2fd46c836a06233681665,64dc7f4262f34146130334b1,,,,,,,ctch,resources/DR.BMP,resources/DB.BMP,Door3,-0.237777373,0.0707252,1,0,0,1.1339,optionLeft,70,15390,7,20,0,20,0,1,,,,,,,,,,,,,,,,,,,,,,,,,,,,,,,,,,,,,,,
,,,,,,,,2023-08-16_08h51.11.099,HF_wild_card,2022.2.4,MacIntel,60.0024001,5ebac054d63dde03790ceef8,64d2fd46c836a06233681665,64dc7f4262f34146130334b1,,,,,,,decisionTrl,resources/DR.BMP,resources/DG.BMP,Door3,-0.325620009,0.040991631,1,0,0,1.7384,optionLeft,70,15460,7,21,0,21,0,1,,,,,,,,,,,,,,,,,,,,,,,,,,,,,,,,,,,,,,,
,,,,,,,,2023-08-16_08h51.11.099,HF_wild_card,2022.2.4,MacIntel,60.0024001,5ebac054d63dde03790ceef8,64d2fd46c836a06233681665,64dc7f4262f34146130334b1,,,,,,,decisionTrl,resources/DB.BMP,resources/DBN.BMP,Door2,-0.187672758,0.032454507,1,0,0,1.0263,optionLeft,20,15480,7,22,0,22,0,1,,,,,,,,,,,,,,,,,,,,,,,,,,,,,,,,,,,,,,,
,,,,,,,,2023-08-16_08h51.11.099,HF_wild_card,2022.2.4,MacIntel,60.0024001,5ebac054d63dde03790ceef8,64d2fd46c836a06233681665,64dc7f4262f34146130334b1,,,,,,,ctch,resources/DBN.BMP,resources/DG.BMP,Door4,0.344052326,0.017914043,1,0,0,1.3067,optionRight,60,15540,7,23,0,23,0,1,,,,,,,,,,,,,,,,,,,,,,,,,,,,,,,,,,,,,,,
,,,,,,,,2023-08-16_08h51.11.099,HF_wild_card,2022.2.4,MacIntel,60.0024001,5ebac054d63dde03790ceef8,64d2fd46c836a06233681665,64dc7f4262f34146130334b1,,,,,,,ctch,resources/DG.BMP,resources/DBN.BMP,Door4,-0.272420147,0.042479269,1,0,0,1.4428,optionLeft,60,15600,7,24,0,24,0,1,,,,,,,,,,,,,,,,,,,,,,,,,,,,,,,,,,,,,,,
,,,,,,,,2023-08-16_08h51.11.099,HF_wild_card,2022.2.4,MacIntel,60.0024001,5ebac054d63dde03790ceef8,64d2fd46c836a06233681665,64dc7f4262f34146130334b1,,,,,,,decisionTrl,resources/DBN.BMP,resources/DB.BMP,Door2,0.21496852,-0.090270846,1,0,0,1.7816,optionRight,20,15620,7,25,0,25,0,1,,,,,,,,,,,,,,,,,,,,,,,,,,,,,,,,,,,,,,,
,,,,,,,,2023-08-16_08h51.11.099,HF_wild_card,2022.2.4,MacIntel,60.0024001,5ebac054d63dde03790ceef8,64d2fd46c836a06233681665,64dc7f4262f34146130334b1,,,,,,,decisionTrl,resources/DB.BMP,resources/DBN.BMP,Door2,-0.216763283,-0.020462224,1,0,0,2.2654,optionLeft,40,15660,7,26,0,26,0,1,,,,,,,,,,,,,,,,,,,,,,,,,,,,,,,,,,,,,,,
,,,,,,,,2023-08-16_08h51.11.099,HF_wild_card,2022.2.4,MacIntel,60.0024001,5ebac054d63dde03790ceef8,64d2fd46c836a06233681665,64dc7f4262f34146130334b1,,,,,,,ctch,resources/DBN.BMP,resources/DG.BMP,Door4,0.270399839,-0.010106342,1,0,0,0.9569,optionRight,60,15720,7,27,0,27,0,1,,,,,,,,,,,,,,,,,,,,,,,,,,,,,,,,,,,,,,,
,,,,,,,,2023-08-16_08h51.11.099,HF_wild_card,2022.2.4,MacIntel,60.0024001,5ebac054d63dde03790ceef8,64d2fd46c836a06233681665,64dc7f4262f34146130334b1,,,,,,,ctch,resources/DB.BMP,resources/DR.BMP,Door3,0.225655521,-0.073139013,1,0,0,1.1117,optionRight,70,15790,7,28,0,28,0,1,,,,,,,,,,,,,,,,,,,,,,,,,,,,,,,,,,,,,,,
,,,,,,,,2023-08-16_08h51.11.099,HF_wild_card,2022.2.4,MacIntel,60.0024001,5ebac054d63dde03790ceef8,64d2fd46c836a06233681665,64dc7f4262f34146130334b1,,,,,,,decisionTrl,resources/DBN.BMP,resources/DB.BMP,Door2,0.311856956,-0.056261517,1,0,0,1.5479,optionRight,20,15810,7,29,0,29,0,1,,,,,,,,,,,,,,,,,,,,,,,,,,,,,,,,,,,,,,,
,,,,,,,,2023-08-16_08h51.11.099,HF_wild_card,2022.2.4,MacIntel,60.0024001,5ebac054d63dde03790ceef8,64d2fd46c836a06233681665,64dc7f4262f34146130334b1,,,,,,,decisionTrl,resources/DR.BMP,resources/DG.BMP,Door3,-0.211969249,-0.066358262,1,0,0,2.5258,optionLeft,70,15880,7,30,0,30,0,1,,,,,,,,,,,,,,,,,,,,,,,,,,,,,,,,,,,,,,,
,,,,,,,,2023-08-16_08h51.11.099,HF_wild_card,2022.2.4,MacIntel,60.0024001,5ebac054d63dde03790ceef8,64d2fd46c836a06233681665,64dc7f4262f34146130334b1,,,,,,,decisionTrl,resources/DG.BMP,resources/DR.BMP,Door3,0.272213798,-0.059678286,1,0,0,1.1555,optionRight,70,15950,7,31,0,31,0,1,,,,,,,,,,,,,,,,,,,,,,,,,,,,,,,,,,,,,,,
,,,,,,,,2023-08-16_08h51.11.099,HF_wild_card,2022.2.4,MacIntel,60.0024001,5ebac054d63dde03790ceef8,64d2fd46c836a06233681665,64dc7f4262f34146130334b1,,,,,,,decisionTrl,resources/DBN.BMP,resources/DB.BMP,Door2,0.183828893,-0.006046529,1,0,0,1.0008,optionRight,40,15990,7,32,0,32,0,1,,,,,,,,,,,,,,,,,,,,,,,,,,,,,,,,,,,,,,,
,,,,,,,,2023-08-16_08h51.11.099,HF_wild_card,2022.2.4,MacIntel,60.0024001,5ebac054d63dde03790ceef8,64d2fd46c836a06233681665,64dc7f4262f34146130334b1,,,,,,,decisionTrl,resources/DG.BMP,resources/DR.BMP,Door4,-0.282152181,-0.000259137,1,0,0,1.0043,optionLeft,80,16070,7,33,0,33,0,1,,,,,,,,,,,,,,,,,,,,,,,,,,,,,,,,,,,,,,,
,,,,,,,,2023-08-16_08h51.11.099,HF_wild_card,2022.2.4,MacIntel,60.0024001,5ebac054d63dde03790ceef8,64d2fd46c836a06233681665,64dc7f4262f34146130334b1,,,,,,,decisionTrl,resources/DBN.BMP,resources/DB.BMP,Door2,0.41245969,-0.009592867,1,0,0,0.8464,optionRight,20,16090,7,34,0,34,0,1,,,,,,,,,,,,,,,,,,,,,,,,,,,,,,,,,,,,,,,
,,,,,,,,2023-08-16_08h51.11.099,HF_wild_card,2022.2.4,MacIntel,60.0024001,5ebac054d63dde03790ceef8,64d2fd46c836a06233681665,64dc7f4262f34146130334b1,,,,,,,ctch,resources/DG.BMP,resources/DBN.BMP,Door4,-0.250350315,-0.017059851,1,0,0,1.0914,optionLeft,60,16150,7,35,0,35,0,1,,,,,,,,,,,,,,,,,,,,,,,,,,,,,,,,,,,,,,,
,,,,,,,,2023-08-16_08h51.11.099,HF_wild_card,2022.2.4,MacIntel,60.0024001,5ebac054d63dde03790ceef8,64d2fd46c836a06233681665,64dc7f4262f34146130334b1,,,,,,,,,,,,,,,,,,,,,,,,,,6,0,6,0,1,,,,,,,,,,,,,,,,,,,,,,,,,,,,,,,,,,
,,,,,,,,2023-08-16_08h51.11.099,HF_wild_card,2022.2.4,MacIntel,60.0024001,5ebac054d63dde03790ceef8,64d2fd46c836a06233681665,64dc7f4262f34146130334b1,,,,,,,,,,,,,,,,,,,,,,,,,,,,,,,4,,,,,,,,,,,,,,,,,,,,,,,,,,,,,,,,,
,,,,,,,,2023-08-16_08h51.11.099,HF_wild_card,2022.2.4,MacIntel,60.0024001,5ebac054d63dde03790ceef8,64d2fd46c836a06233681665,64dc7f4262f34146130334b1,,,,,,,,,,,,,,,,,,,,,,,,,,,,,,,,,,,,,,,,,,,,,,,,,,,,,,,,,,,,,,,,
,,,,,,,,2023-08-16_08h51.11.099,HF_wild_card,2022.2.4,MacIntel,60.0024001,5ebac054d63dde03790ceef8,64d2fd46c836a06233681665,64dc7f4262f34146130334b1,,,,,,,,,,,,,,,,,,,,,,,,,,,,,,,,70,Door3,resources/DR.BMP,0,0,0,0,1,,,,,,,,,,,,,,,,,,,,,,,,,
,,,,,,,,2023-08-16_08h51.11.099,HF_wild_card,2022.2.4,MacIntel,60.0024001,5ebac054d63dde03790ceef8,64d2fd46c836a06233681665,64dc7f4262f34146130334b1,,,,,,,,,,,,,,,,,,,,,,,,,,,,,,,,80,Door4,resources/DG.BMP,1,0,1,0,1,,,,,,,,,,,,,,,,,,,,,,,,,
,,,,,,,,2023-08-16_08h51.11.099,HF_wild_card,2022.2.4,MacIntel,60.0024001,5ebac054d63dde03790ceef8,64d2fd46c836a06233681665,64dc7f4262f34146130334b1,,,,,,,,,,,,,,,,,,,,,,,,,,,,,,,,95,WC_extreme,resources/DP.BMP,2,0,2,0,1,,,,,,,,,,,,,,,,,,,,,,,,,
,,,,,,,,2023-08-16_08h51.11.099,HF_wild_card,2022.2.4,MacIntel,60.0024001,5ebac054d63dde03790ceef8,64d2fd46c836a06233681665,64dc7f4262f34146130334b1,,,,,,,,,,,,,,,,,,,,,,,,,,,,,,,,55,WC_nonExtreme,resources/DY.BMP,3,0,3,0,1,,,,,,,,,,,,,,,,,,,,,,,,,
