Condition,Low fixed image (Door1),Low risky image (Door2),High fixed image (Door3),High risky image (Door4),Extreme Wild Card,NonExtreme Wild Card,,date,expName,psychopyVersion,OS,frameRate,PROLIFIC_PID,STUDY_ID,SESSION_ID,mouse_2.x,mouse_2.y,mouse_2.leftButton,mouse_2.midButton,mouse_2.rightButton,mouse_2.clicked_name,Trial Type,Left Option Image,Right Option Image,Chosen Door,mouse.x,mouse.y,mouse.leftButton,mouse.midButton,mouse.rightButton,mouse.time,mouse.clicked_name,Feedback,Cumulative Reward,Block,trial.thisRepN,trial.thisTrialN,trial.thisN,trial.thisIndex,trial.ran,blocks.thisRepN,blocks.thisTrialN,blocks.thisN,blocks.thisIndex,blocks.ran,Money conversion,First Outcome Reported,Shown Door (First Outcome),Displayed Image (First Outcome),outcomes.thisRepN,outcomes.thisTrialN,outcomes.thisN,outcomes.thisIndex,outcomes.ran,judgments.thisRepN,judgments.thisTrialN,judgments.thisN,judgments.thisIndex,judgments.ran,freqMouse.x,freqMouse.y,freqMouse.leftButton,freqMouse.midButton,freqMouse.rightButton,freqMouse.clicked_name,FQJ for first outcome,FQJ for second outcome,Shown Door,Displayed Image,trials.thisRepN,trials.thisTrialN,trials.thisN,trials.thisIndex,trials.ran,judgBlock.thisRepN,judgBlock.thisTrialN,judgBlock.thisN,judgBlock.thisIndex,judgBlock.ran
1,resources/DY.BMP,resources/DBN.BMP,resources/DB.BMP,resources/DR.BMP,resources/DG.BMP,resources/DP.BMP,,2023-08-16_08h38.02.021,HF_wild_card,2022.2.4,Win32,59.79788315,613b26e292cabf1dbe46791f,64d2fd46c836a06233681665,64dc7cc9792e1824bf53d2ba,,,,,,,,,,,,,,,,,,,,,,,,,,,,,,,,,,,,,,,,,,,,,,,,,,,,,,,,,,,,,,,,
,,,,,,,,2023-08-16_08h38.02.021,HF_wild_card,2022.2.4,Win32,59.79788315,613b26e292cabf1dbe46791f,64d2fd46c836a06233681665,64dc7cc9792e1824bf53d2ba,0.008333333,-0.424074074,1,0,0,agree,,,,,,,,,,,,,,,,,,,,,,,,,,,,,,,,,,,,,,,,,,,,,,,,,,,,,,,,,,
,,,,,,,,2023-08-16_08h38.02.021,HF_wild_card,2022.2.4,Win32,59.79788315,613b26e292cabf1dbe46791f,64d2fd46c836a06233681665,64dc7cc9792e1824bf53d2ba,,,,,,,,,,,,,,,,,,,,,,,,,,,,,,,,,,,,,,,,,,,,,,,,,,,,,,,,,,,,,,,,
,,,,,,,,2023-08-16_08h38.02.021,HF_wild_card,2022.2.4,Win32,59.79788315,613b26e292cabf1dbe46791f,64d2fd46c836a06233681665,64dc7cc9792e1824bf53d2ba,,,,,,,sngl,resources/DB.BMP,resources/Empty.png,Door3,-0.45462963,-0.100925926,1,0,0,2.3145,optionLeft,70,70,1,0,0,0,0,1,,,,,,,,,,,,,,,,,,,,,,,,,,,,,,,,,,,,,,,
,,,,,,,,2023-08-16_08h38.02.021,HF_wild_card,2022.2.4,Win32,59.79788315,613b26e292cabf1dbe46791f,64d2fd46c836a06233681665,64dc7cc9792e1824bf53d2ba,,,,,,,decisionTrl,resources/DBN.BMP,resources/DY.BMP,Door1,0.301851852,-0.089814815,1,0,0,2.1625,optionRight,30,100,1,1,0,1,0,1,,,,,,,,,,,,,,,,,,,,,,,,,,,,,,,,,,,,,,,
,,,,,,,,2023-08-16_08h38.02.021,HF_wild_card,2022.2.4,Win32,59.79788315,613b26e292cabf1dbe46791f,64d2fd46c836a06233681665,64dc7cc9792e1824bf53d2ba,,,,,,,decisionTrl,resources/DP.BMP,resources/DBN.BMP,WildCard_NonEx,-0.32037037,-0.003703704,1,0,0,1.5618,optionLeft,45,145,1,2,0,2,0,1,,,,,,,,,,,,,,,,,,,,,,,,,,,,,,,,,,,,,,,
,,,,,,,,2023-08-16_08h38.02.021,HF_wild_card,2022.2.4,Win32,59.79788315,613b26e292cabf1dbe46791f,64d2fd46c836a06233681665,64dc7cc9792e1824bf53d2ba,,,,,,,sngl,resources/DY.BMP,resources/Empty.png,Door1,-0.374074074,0.017592593,1,0,0,0.7957,optionLeft,30,175,1,3,0,3,0,1,,,,,,,,,,,,,,,,,,,,,,,,,,,,,,,,,,,,,,,
,,,,,,,,2023-08-16_08h38.02.021,HF_wild_card,2022.2.4,Win32,59.79788315,613b26e292cabf1dbe46791f,64d2fd46c836a06233681665,64dc7cc9792e1824bf53d2ba,,,,,,,decisionTrl,resources/DY.BMP,resources/DBN.BMP,Door2,0.296296296,-0.046296296,1,0,0,0.563,optionRight,40,215,1,4,0,4,0,1,,,,,,,,,,,,,,,,,,,,,,,,,,,,,,,,,,,,,,,
,,,,,,,,2023-08-16_08h38.02.021,HF_wild_card,2022.2.4,Win32,59.79788315,613b26e292cabf1dbe46791f,64d2fd46c836a06233681665,64dc7cc9792e1824bf53d2ba,,,,,,,decisionTrl,resources/DB.BMP,resources/DR.BMP,Door4,0.384259259,-0.123148148,1,0,0,1.0641,optionRight,80,295,1,5,0,5,0,1,,,,,,,,,,,,,,,,,,,,,,,,,,,,,,,,,,,,,,,
,,,,,,,,2023-08-16_08h38.02.021,HF_wild_card,2022.2.4,Win32,59.79788315,613b26e292cabf1dbe46791f,64d2fd46c836a06233681665,64dc7cc9792e1824bf53d2ba,,,,,,,ctch,resources/DB.BMP,resources/DBN.BMP,Door2,0.433333333,0.094444444,1,0,0,1.2959,optionRight,20,315,1,6,0,6,0,1,,,,,,,,,,,,,,,,,,,,,,,,,,,,,,,,,,,,,,,
,,,,,,,,2023-08-16_08h38.02.021,HF_wild_card,2022.2.4,Win32,59.79788315,613b26e292cabf1dbe46791f,64d2fd46c836a06233681665,64dc7cc9792e1824bf53d2ba,,,,,,,decisionTrl,resources/DBN.BMP,resources/DY.BMP,Door2,-0.283333333,-0.007407407,1,0,0,2.2305,optionLeft,40,355,1,7,0,7,0,1,,,,,,,,,,,,,,,,,,,,,,,,,,,,,,,,,,,,,,,
,,,,,,,,2023-08-16_08h38.02.021,HF_wild_card,2022.2.4,Win32,59.79788315,613b26e292cabf1dbe46791f,64d2fd46c836a06233681665,64dc7cc9792e1824bf53d2ba,,,,,,,decisionTrl,resources/DBN.BMP,resources/DP.BMP,WildCard_NonEx,0.384259259,-0.05,1,0,0,1.1976,optionRight,55,410,1,8,0,8,0,1,,,,,,,,,,,,,,,,,,,,,,,,,,,,,,,,,,,,,,,
,,,,,,,,2023-08-16_08h38.02.021,HF_wild_card,2022.2.4,Win32,59.79788315,613b26e292cabf1dbe46791f,64d2fd46c836a06233681665,64dc7cc9792e1824bf53d2ba,,,,,,,decisionTrl,resources/DR.BMP,resources/DB.BMP,Door4,-0.333333333,-0.023148148,1,0,0,0.9306,optionLeft,80,490,1,9,0,9,0,1,,,,,,,,,,,,,,,,,,,,,,,,,,,,,,,,,,,,,,,
,,,,,,,,2023-08-16_08h38.02.021,HF_wild_card,2022.2.4,Win32,59.79788315,613b26e292cabf1dbe46791f,64d2fd46c836a06233681665,64dc7cc9792e1824bf53d2ba,,,,,,,decisionTrl,resources/DY.BMP,resources/DBN.BMP,Door1,-0.263888889,-0.016666667,1,0,0,2.2137,optionLeft,30,520,1,10,0,10,0,1,,,,,,,,,,,,,,,,,,,,,,,,,,,,,,,,,,,,,,,
,,,,,,,,2023-08-16_08h38.02.021,HF_wild_card,2022.2.4,Win32,59.79788315,613b26e292cabf1dbe46791f,64d2fd46c836a06233681665,64dc7cc9792e1824bf53d2ba,,,,,,,decisionTrl,resources/DB.BMP,resources/DR.BMP,Door4,0.348148148,-0.010185185,1,0,0,1.4651,optionRight,60,580,1,11,0,11,0,1,,,,,,,,,,,,,,,,,,,,,,,,,,,,,,,,,,,,,,,
,,,,,,,,2023-08-16_08h38.02.021,HF_wild_card,2022.2.4,Win32,59.79788315,613b26e292cabf1dbe46791f,64d2fd46c836a06233681665,64dc7cc9792e1824bf53d2ba,,,,,,,decisionTrl,resources/DBN.BMP,resources/DY.BMP,Door1,0.328703704,-0.025,1,0,0,1.1137,optionRight,30,610,1,12,0,12,0,1,,,,,,,,,,,,,,,,,,,,,,,,,,,,,,,,,,,,,,,
,,,,,,,,2023-08-16_08h38.02.021,HF_wild_card,2022.2.4,Win32,59.79788315,613b26e292cabf1dbe46791f,64d2fd46c836a06233681665,64dc7cc9792e1824bf53d2ba,,,,,,,sngl,resources/DP.BMP,resources/Empty.png,WildCard_NonEx,-0.176851852,-0.044444444,1,0,0,0.7812,optionLeft,45,655,1,13,0,13,0,1,,,,,,,,,,,,,,,,,,,,,,,,,,,,,,,,,,,,,,,
,,,,,,,,2023-08-16_08h38.02.021,HF_wild_card,2022.2.4,Win32,59.79788315,613b26e292cabf1dbe46791f,64d2fd46c836a06233681665,64dc7cc9792e1824bf53d2ba,,,,,,,ctch,resources/DY.BMP,resources/DR.BMP,Door4,0.311111111,-0.035185185,1,0,0,0.9803,optionRight,80,735,1,14,0,14,0,1,,,,,,,,,,,,,,,,,,,,,,,,,,,,,,,,,,,,,,,
,,,,,,,,2023-08-16_08h38.02.021,HF_wild_card,2022.2.4,Win32,59.79788315,613b26e292cabf1dbe46791f,64d2fd46c836a06233681665,64dc7cc9792e1824bf53d2ba,,,,,,,sngl,resources/DR.BMP,resources/Empty.png,Door4,-0.257407407,-0.046296296,1,0,0,0.7267,optionLeft,80,815,1,15,0,15,0,1,,,,,,,,,,,,,,,,,,,,,,,,,,,,,,,,,,,,,,,
,,,,,,,,2023-08-16_08h38.02.021,HF_wild_card,2022.2.4,Win32,59.79788315,613b26e292cabf1dbe46791f,64d2fd46c836a06233681665,64dc7cc9792e1824bf53d2ba,,,,,,,decisionTrl,resources/DR.BMP,resources/DB.BMP,Door4,-0.328703704,-0.006481481,1,0,0,3.9319,optionLeft,60,875,1,16,0,16,0,1,,,,,,,,,,,,,,,,,,,,,,,,,,,,,,,,,,,,,,,
,,,,,,,,2023-08-16_08h38.02.021,HF_wild_card,2022.2.4,Win32,59.79788315,613b26e292cabf1dbe46791f,64d2fd46c836a06233681665,64dc7cc9792e1824bf53d2ba,,,,,,,decisionTrl,resources/DB.BMP,resources/DR.BMP,Door4,0.412037037,-0.028703704,1,0,0,0.7078,optionRight,60,935,1,17,0,17,0,1,,,,,,,,,,,,,,,,,,,,,,,,,,,,,,,,,,,,,,,
,,,,,,,,2023-08-16_08h38.02.021,HF_wild_card,2022.2.4,Win32,59.79788315,613b26e292cabf1dbe46791f,64d2fd46c836a06233681665,64dc7cc9792e1824bf53d2ba,,,,,,,ctch,resources/DBN.BMP,resources/DB.BMP,Door2,-0.515740741,-0.025,1,0,0,1.1199,optionLeft,40,975,1,18,0,18,0,1,,,,,,,,,,,,,,,,,,,,,,,,,,,,,,,,,,,,,,,
,,,,,,,,2023-08-16_08h38.02.021,HF_wild_card,2022.2.4,Win32,59.79788315,613b26e292cabf1dbe46791f,64d2fd46c836a06233681665,64dc7cc9792e1824bf53d2ba,,,,,,,decisionTrl,resources/DP.BMP,resources/DB.BMP,WildCard_NonEx,-0.459259259,-0.051851852,1,0,0,1.4569,optionLeft,55,1030,1,19,0,19,0,1,,,,,,,,,,,,,,,,,,,,,,,,,,,,,,,,,,,,,,,
,,,,,,,,2023-08-16_08h38.02.021,HF_wild_card,2022.2.4,Win32,59.79788315,613b26e292cabf1dbe46791f,64d2fd46c836a06233681665,64dc7cc9792e1824bf53d2ba,,,,,,,decisionTrl,resources/DR.BMP,resources/DP.BMP,Door4,-0.181481481,-0.041666667,1,0,0,0.6026,optionLeft,60,1090,1,20,0,20,0,1,,,,,,,,,,,,,,,,,,,,,,,,,,,,,,,,,,,,,,,
,,,,,,,,2023-08-16_08h38.02.021,HF_wild_card,2022.2.4,Win32,59.79788315,613b26e292cabf1dbe46791f,64d2fd46c836a06233681665,64dc7cc9792e1824bf53d2ba,,,,,,,decisionTrl,resources/DP.BMP,resources/DY.BMP,WildCard_NonEx,-0.227777778,-0.078703704,1,0,0,0.9305,optionLeft,55,1145,1,21,0,21,0,1,,,,,,,,,,,,,,,,,,,,,,,,,,,,,,,,,,,,,,,
,,,,,,,,2023-08-16_08h38.02.021,HF_wild_card,2022.2.4,Win32,59.79788315,613b26e292cabf1dbe46791f,64d2fd46c836a06233681665,64dc7cc9792e1824bf53d2ba,,,,,,,decisionTrl,resources/DB.BMP,resources/DP.BMP,WildCard_NonEx,0.326851852,-0.007407407,1,0,0,0.8476,optionRight,45,1190,1,22,0,22,0,1,,,,,,,,,,,,,,,,,,,,,,,,,,,,,,,,,,,,,,,
,,,,,,,,2023-08-16_08h38.02.021,HF_wild_card,2022.2.4,Win32,59.79788315,613b26e292cabf1dbe46791f,64d2fd46c836a06233681665,64dc7cc9792e1824bf53d2ba,,,,,,,decisionTrl,resources/DBN.BMP,resources/DY.BMP,Door1,0.334259259,0.076851852,1,0,0,1.2459,optionRight,30,1220,1,23,0,23,0,1,,,,,,,,,,,,,,,,,,,,,,,,,,,,,,,,,,,,,,,
,,,,,,,,2023-08-16_08h38.02.021,HF_wild_card,2022.2.4,Win32,59.79788315,613b26e292cabf1dbe46791f,64d2fd46c836a06233681665,64dc7cc9792e1824bf53d2ba,,,,,,,decisionTrl,resources/DR.BMP,resources/DB.BMP,Door4,-0.325,-0.030555556,1,0,0,0.7024,optionLeft,60,1280,1,24,0,24,0,1,,,,,,,,,,,,,,,,,,,,,,,,,,,,,,,,,,,,,,,
,,,,,,,,2023-08-16_08h38.02.021,HF_wild_card,2022.2.4,Win32,59.79788315,613b26e292cabf1dbe46791f,64d2fd46c836a06233681665,64dc7cc9792e1824bf53d2ba,,,,,,,decisionTrl,resources/DR.BMP,resources/DB.BMP,Door4,-0.302777778,-0.052777778,1,0,0,0.6306,optionLeft,60,1340,1,25,0,25,0,1,,,,,,,,,,,,,,,,,,,,,,,,,,,,,,,,,,,,,,,
,,,,,,,,2023-08-16_08h38.02.021,HF_wild_card,2022.2.4,Win32,59.79788315,613b26e292cabf1dbe46791f,64d2fd46c836a06233681665,64dc7cc9792e1824bf53d2ba,,,,,,,ctch,resources/DY.BMP,resources/DR.BMP,Door4,0.360185185,-0.005555556,1,0,0,0.6304,optionRight,60,1400,1,26,0,26,0,1,,,,,,,,,,,,,,,,,,,,,,,,,,,,,,,,,,,,,,,
,,,,,,,,2023-08-16_08h38.02.021,HF_wild_card,2022.2.4,Win32,59.79788315,613b26e292cabf1dbe46791f,64d2fd46c836a06233681665,64dc7cc9792e1824bf53d2ba,,,,,,,sngl,resources/DP.BMP,resources/Empty.png,WildCard_NonEx,-0.455555556,-0.027777778,1,0,0,0.5608,optionLeft,55,1455,1,27,0,27,0,1,,,,,,,,,,,,,,,,,,,,,,,,,,,,,,,,,,,,,,,
,,,,,,,,2023-08-16_08h38.02.021,HF_wild_card,2022.2.4,Win32,59.79788315,613b26e292cabf1dbe46791f,64d2fd46c836a06233681665,64dc7cc9792e1824bf53d2ba,,,,,,,ctch,resources/DBN.BMP,resources/DB.BMP,Door3,0.412037037,0.052777778,1,0,0,1.1589,optionRight,70,1525,1,28,0,28,0,1,,,,,,,,,,,,,,,,,,,,,,,,,,,,,,,,,,,,,,,
,,,,,,,,2023-08-16_08h38.02.021,HF_wild_card,2022.2.4,Win32,59.79788315,613b26e292cabf1dbe46791f,64d2fd46c836a06233681665,64dc7cc9792e1824bf53d2ba,,,,,,,sngl,resources/Empty.png,resources/DP.BMP,WildCard_NonEx,0.263888889,-0.025,1,0,0,0.6655,optionRight,55,1580,1,29,0,29,0,1,,,,,,,,,,,,,,,,,,,,,,,,,,,,,,,,,,,,,,,
,,,,,,,,2023-08-16_08h38.02.021,HF_wild_card,2022.2.4,Win32,59.79788315,613b26e292cabf1dbe46791f,64d2fd46c836a06233681665,64dc7cc9792e1824bf53d2ba,,,,,,,sngl,resources/DBN.BMP,resources/Empty.png,Door2,-0.175925926,-0.036111111,1,0,0,0.8135,optionLeft,40,1620,1,30,0,30,0,1,,,,,,,,,,,,,,,,,,,,,,,,,,,,,,,,,,,,,,,
,,,,,,,,2023-08-16_08h38.02.021,HF_wild_card,2022.2.4,Win32,59.79788315,613b26e292cabf1dbe46791f,64d2fd46c836a06233681665,64dc7cc9792e1824bf53d2ba,,,,,,,decisionTrl,resources/DP.BMP,resources/DR.BMP,Door4,0.293518519,0.002777778,1,0,0,0.5954,optionRight,60,1680,1,31,0,31,0,1,,,,,,,,,,,,,,,,,,,,,,,,,,,,,,,,,,,,,,,
,,,,,,,,2023-08-16_08h38.02.021,HF_wild_card,2022.2.4,Win32,59.79788315,613b26e292cabf1dbe46791f,64d2fd46c836a06233681665,64dc7cc9792e1824bf53d2ba,,,,,,,decisionTrl,resources/DY.BMP,resources/DP.BMP,WildCard_NonEx,0.238888889,-0.040740741,1,0,0,0.7635,optionRight,55,1735,1,32,0,32,0,1,,,,,,,,,,,,,,,,,,,,,,,,,,,,,,,,,,,,,,,
,,,,,,,,2023-08-16_08h38.02.021,HF_wild_card,2022.2.4,Win32,59.79788315,613b26e292cabf1dbe46791f,64d2fd46c836a06233681665,64dc7cc9792e1824bf53d2ba,,,,,,,decisionTrl,resources/DY.BMP,resources/DBN.BMP,Door1,-0.297222222,-0.043518519,1,0,0,0.7302,optionLeft,30,1765,1,33,0,33,0,1,,,,,,,,,,,,,,,,,,,,,,,,,,,,,,,,,,,,,,,
,,,,,,,,2023-08-16_08h38.02.021,HF_wild_card,2022.2.4,Win32,59.79788315,613b26e292cabf1dbe46791f,64d2fd46c836a06233681665,64dc7cc9792e1824bf53d2ba,,,,,,,decisionTrl,resources/DY.BMP,resources/DBN.BMP,Door2,0.244444444,0.027777778,1,0,0,0.8629,optionRight,40,1805,1,34,0,34,0,1,,,,,,,,,,,,,,,,,,,,,,,,,,,,,,,,,,,,,,,
,,,,,,,,2023-08-16_08h38.02.021,HF_wild_card,2022.2.4,Win32,59.79788315,613b26e292cabf1dbe46791f,64d2fd46c836a06233681665,64dc7cc9792e1824bf53d2ba,,,,,,,sngl,resources/Empty.png,resources/DR.BMP,Door4,0.284259259,-0.000925926,1,0,0,0.6302,optionRight,60,1865,1,35,0,35,0,1,,,,,,,,,,,,,,,,,,,,,,,,,,,,,,,,,,,,,,,
,,,,,,,,2023-08-16_08h38.02.021,HF_wild_card,2022.2.4,Win32,59.79788315,613b26e292cabf1dbe46791f,64d2fd46c836a06233681665,64dc7cc9792e1824bf53d2ba,,,,,,,ctch,resources/DR.BMP,resources/DY.BMP,Door4,-0.141666667,-0.002777778,1,0,0,0.5129,optionLeft,60,1925,1,36,0,36,0,1,,,,,,,,,,,,,,,,,,,,,,,,,,,,,,,,,,,,,,,
,,,,,,,,2023-08-16_08h38.02.021,HF_wild_card,2022.2.4,Win32,59.79788315,613b26e292cabf1dbe46791f,64d2fd46c836a06233681665,64dc7cc9792e1824bf53d2ba,,,,,,,decisionTrl,resources/DB.BMP,resources/DR.BMP,Door4,0.336111111,-0.008333333,1,0,0,0.5468,optionRight,80,2005,1,37,0,37,0,1,,,,,,,,,,,,,,,,,,,,,,,,,,,,,,,,,,,,,,,
,,,,,,,,2023-08-16_08h38.02.021,HF_wild_card,2022.2.4,Win32,59.79788315,613b26e292cabf1dbe46791f,64d2fd46c836a06233681665,64dc7cc9792e1824bf53d2ba,,,,,,,sngl,resources/Empty.png,resources/DB.BMP,Door3,0.390740741,-0.042592593,1,0,0,0.7805,optionRight,70,2075,1,38,0,38,0,1,,,,,,,,,,,,,,,,,,,,,,,,,,,,,,,,,,,,,,,
,,,,,,,,2023-08-16_08h38.02.021,HF_wild_card,2022.2.4,Win32,59.79788315,613b26e292cabf1dbe46791f,64d2fd46c836a06233681665,64dc7cc9792e1824bf53d2ba,,,,,,,sngl,resources/Empty.png,resources/DY.BMP,Door1,0.319444444,-0.003703704,1,0,0,0.5608,optionRight,30,2105,1,39,0,39,0,1,,,,,,,,,,,,,,,,,,,,,,,,,,,,,,,,,,,,,,,
,,,,,,,,2023-08-16_08h38.02.021,HF_wild_card,2022.2.4,Win32,59.79788315,613b26e292cabf1dbe46791f,64d2fd46c836a06233681665,64dc7cc9792e1824bf53d2ba,,,,,,,sngl,resources/Empty.png,resources/DP.BMP,WildCard_NonEx,0.301851852,0.008333333,1,0,0,0.5463,optionRight,45,2150,1,40,0,40,0,1,,,,,,,,,,,,,,,,,,,,,,,,,,,,,,,,,,,,,,,
,,,,,,,,2023-08-16_08h38.02.021,HF_wild_card,2022.2.4,Win32,59.79788315,613b26e292cabf1dbe46791f,64d2fd46c836a06233681665,64dc7cc9792e1824bf53d2ba,,,,,,,ctch,resources/DR.BMP,resources/DY.BMP,Door4,-0.327777778,-0.036111111,1,0,0,0.5297,optionLeft,80,2230,1,41,0,41,0,1,,,,,,,,,,,,,,,,,,,,,,,,,,,,,,,,,,,,,,,
,,,,,,,,2023-08-16_08h38.02.021,HF_wild_card,2022.2.4,Win32,59.79788315,613b26e292cabf1dbe46791f,64d2fd46c836a06233681665,64dc7cc9792e1824bf53d2ba,,,,,,,sngl,resources/Empty.png,resources/DBN.BMP,Door2,0.167592593,0.021296296,1,0,0,0.5955,optionRight,20,2250,1,42,0,42,0,1,,,,,,,,,,,,,,,,,,,,,,,,,,,,,,,,,,,,,,,
,,,,,,,,2023-08-16_08h38.02.021,HF_wild_card,2022.2.4,Win32,59.79788315,613b26e292cabf1dbe46791f,64d2fd46c836a06233681665,64dc7cc9792e1824bf53d2ba,,,,,,,ctch,resources/DB.BMP,resources/DBN.BMP,Door3,-0.485185185,-0.012962963,1,0,0,0.4969,optionLeft,70,2320,1,43,0,43,0,1,,,,,,,,,,,,,,,,,,,,,,,,,,,,,,,,,,,,,,,
,,,,,,,,2023-08-16_08h38.02.021,HF_wild_card,2022.2.4,Win32,59.79788315,613b26e292cabf1dbe46791f,64d2fd46c836a06233681665,64dc7cc9792e1824bf53d2ba,,,,,,,,,,,,,,,,,,,,,,,,,,0,0,0,0,1,,,,,,,,,,,,,,,,,,,,,,,,,,,,,,,,,,
,,,,,,,,2023-08-16_08h38.02.021,HF_wild_card,2022.2.4,Win32,59.79788315,613b26e292cabf1dbe46791f,64d2fd46c836a06233681665,64dc7cc9792e1824bf53d2ba,,,,,,,decisionTrl,resources/DBN.BMP,resources/DY.BMP,Door1,0.314814815,-0.031481481,1,0,0,1.894,optionRight,30,2350,2,0,0,0,0,1,,,,,,,,,,,,,,,,,,,,,,,,,,,,,,,,,,,,,,,
,,,,,,,,2023-08-16_08h38.02.021,HF_wild_card,2022.2.4,Win32,59.79788315,613b26e292cabf1dbe46791f,64d2fd46c836a06233681665,64dc7cc9792e1824bf53d2ba,,,,,,,decisionTrl,resources/DR.BMP,resources/DB.BMP,Door4,-0.278703704,-0.047222222,1,0,0,0.68,optionLeft,60,2410,2,1,0,1,0,1,,,,,,,,,,,,,,,,,,,,,,,,,,,,,,,,,,,,,,,
,,,,,,,,2023-08-16_08h38.02.021,HF_wild_card,2022.2.4,Win32,59.79788315,613b26e292cabf1dbe46791f,64d2fd46c836a06233681665,64dc7cc9792e1824bf53d2ba,,,,,,,decisionTrl,resources/DY.BMP,resources/DBN.BMP,Door1,-0.163888889,-0.049074074,1,0,0,0.5903,optionLeft,30,2440,2,2,0,2,0,1,,,,,,,,,,,,,,,,,,,,,,,,,,,,,,,,,,,,,,,
,,,,,,,,2023-08-16_08h38.02.021,HF_wild_card,2022.2.4,Win32,59.79788315,613b26e292cabf1dbe46791f,64d2fd46c836a06233681665,64dc7cc9792e1824bf53d2ba,,,,,,,sngl,resources/Empty.png,resources/DP.BMP,WildCard_NonEx,0.281481481,-0.02962963,1,0,0,0.5639,optionRight,55,2495,2,3,0,3,0,1,,,,,,,,,,,,,,,,,,,,,,,,,,,,,,,,,,,,,,,
,,,,,,,,2023-08-16_08h38.02.021,HF_wild_card,2022.2.4,Win32,59.79788315,613b26e292cabf1dbe46791f,64d2fd46c836a06233681665,64dc7cc9792e1824bf53d2ba,,,,,,,decisionTrl,resources/DY.BMP,resources/DBN.BMP,Door1,-0.52037037,0.032407407,1,0,0,1.5791,optionLeft,30,2525,2,4,0,4,0,1,,,,,,,,,,,,,,,,,,,,,,,,,,,,,,,,,,,,,,,
,,,,,,,,2023-08-16_08h38.02.021,HF_wild_card,2022.2.4,Win32,59.79788315,613b26e292cabf1dbe46791f,64d2fd46c836a06233681665,64dc7cc9792e1824bf53d2ba,,,,,,,sngl,resources/DP.BMP,resources/Empty.png,WildCard_NonEx,-0.218518519,-0.007407407,1,0,0,0.4964,optionLeft,55,2580,2,5,0,5,0,1,,,,,,,,,,,,,,,,,,,,,,,,,,,,,,,,,,,,,,,
,,,,,,,,2023-08-16_08h38.02.021,HF_wild_card,2022.2.4,Win32,59.79788315,613b26e292cabf1dbe46791f,64d2fd46c836a06233681665,64dc7cc9792e1824bf53d2ba,,,,,,,ctch,resources/DB.BMP,resources/DBN.BMP,Door3,-0.209259259,-0.026851852,1,0,0,0.6473,optionLeft,70,2650,2,6,0,6,0,1,,,,,,,,,,,,,,,,,,,,,,,,,,,,,,,,,,,,,,,
,,,,,,,,2023-08-16_08h38.02.021,HF_wild_card,2022.2.4,Win32,59.79788315,613b26e292cabf1dbe46791f,64d2fd46c836a06233681665,64dc7cc9792e1824bf53d2ba,,,,,,,ctch,resources/DB.BMP,resources/DBN.BMP,Door3,-0.450925926,-0.048148148,1,0,0,0.5306,optionLeft,70,2720,2,7,0,7,0,1,,,,,,,,,,,,,,,,,,,,,,,,,,,,,,,,,,,,,,,
,,,,,,,,2023-08-16_08h38.02.021,HF_wild_card,2022.2.4,Win32,59.79788315,613b26e292cabf1dbe46791f,64d2fd46c836a06233681665,64dc7cc9792e1824bf53d2ba,,,,,,,ctch,resources/DR.BMP,resources/DY.BMP,Door4,-0.397222222,-0.010185185,1,0,0,0.6465,optionLeft,80,2800,2,8,0,8,0,1,,,,,,,,,,,,,,,,,,,,,,,,,,,,,,,,,,,,,,,
,,,,,,,,2023-08-16_08h38.02.021,HF_wild_card,2022.2.4,Win32,59.79788315,613b26e292cabf1dbe46791f,64d2fd46c836a06233681665,64dc7cc9792e1824bf53d2ba,,,,,,,decisionTrl,resources/DP.BMP,resources/DB.BMP,WildCard_NonEx,-0.186111111,-0.022222222,1,0,0,0.8377,optionLeft,55,2855,2,9,0,9,0,1,,,,,,,,,,,,,,,,,,,,,,,,,,,,,,,,,,,,,,,
,,,,,,,,2023-08-16_08h38.02.021,HF_wild_card,2022.2.4,Win32,59.79788315,613b26e292cabf1dbe46791f,64d2fd46c836a06233681665,64dc7cc9792e1824bf53d2ba,,,,,,,sngl,resources/DR.BMP,resources/Empty.png,Door4,-0.242592593,0,1,0,0,0.5222,optionLeft,60,2915,2,10,0,10,0,1,,,,,,,,,,,,,,,,,,,,,,,,,,,,,,,,,,,,,,,
,,,,,,,,2023-08-16_08h38.02.021,HF_wild_card,2022.2.4,Win32,59.79788315,613b26e292cabf1dbe46791f,64d2fd46c836a06233681665,64dc7cc9792e1824bf53d2ba,,,,,,,decisionTrl,resources/DY.BMP,resources/DP.BMP,WildCard_NonEx,0.313888889,-0.018518519,1,0,0,2.6138,optionRight,55,2970,2,11,0,11,0,1,,,,,,,,,,,,,,,,,,,,,,,,,,,,,,,,,,,,,,,
,,,,,,,,2023-08-16_08h38.02.021,HF_wild_card,2022.2.4,Win32,59.79788315,613b26e292cabf1dbe46791f,64d2fd46c836a06233681665,64dc7cc9792e1824bf53d2ba,,,,,,,decisionTrl,resources/DB.BMP,resources/DR.BMP,Door4,0.335185185,0,1,0,0,0.5443,optionRight,60,3030,2,12,0,12,0,1,,,,,,,,,,,,,,,,,,,,,,,,,,,,,,,,,,,,,,,
,,,,,,,,2023-08-16_08h38.02.021,HF_wild_card,2022.2.4,Win32,59.79788315,613b26e292cabf1dbe46791f,64d2fd46c836a06233681665,64dc7cc9792e1824bf53d2ba,,,,,,,sngl,resources/Empty.png,resources/DY.BMP,Door1,0.15,0.021296296,1,0,0,0.5633,optionRight,30,3060,2,13,0,13,0,1,,,,,,,,,,,,,,,,,,,,,,,,,,,,,,,,,,,,,,,
,,,,,,,,2023-08-16_08h38.02.021,HF_wild_card,2022.2.4,Win32,59.79788315,613b26e292cabf1dbe46791f,64d2fd46c836a06233681665,64dc7cc9792e1824bf53d2ba,,,,,,,ctch,resources/DBN.BMP,resources/DB.BMP,Door3,0.353703704,0.027777778,1,0,0,0.6967,optionRight,70,3130,2,14,0,14,0,1,,,,,,,,,,,,,,,,,,,,,,,,,,,,,,,,,,,,,,,
,,,,,,,,2023-08-16_08h38.02.021,HF_wild_card,2022.2.4,Win32,59.79788315,613b26e292cabf1dbe46791f,64d2fd46c836a06233681665,64dc7cc9792e1824bf53d2ba,,,,,,,decisionTrl,resources/DR.BMP,resources/DP.BMP,WildCard_NonEx,0.314814815,0.013888889,1,0,0,0.6468,optionRight,45,3175,2,15,0,15,0,1,,,,,,,,,,,,,,,,,,,,,,,,,,,,,,,,,,,,,,,
,,,,,,,,2023-08-16_08h38.02.021,HF_wild_card,2022.2.4,Win32,59.79788315,613b26e292cabf1dbe46791f,64d2fd46c836a06233681665,64dc7cc9792e1824bf53d2ba,,,,,,,decisionTrl,resources/DY.BMP,resources/DBN.BMP,Door1,-0.34537037,0.036111111,1,0,0,0.6302,optionLeft,30,3205,2,16,0,16,0,1,,,,,,,,,,,,,,,,,,,,,,,,,,,,,,,,,,,,,,,
,,,,,,,,2023-08-16_08h38.02.021,HF_wild_card,2022.2.4,Win32,59.79788315,613b26e292cabf1dbe46791f,64d2fd46c836a06233681665,64dc7cc9792e1824bf53d2ba,,,,,,,decisionTrl,resources/DP.BMP,resources/DY.BMP,WildCard_NonEx,-0.24537037,0.015740741,1,0,0,0.546,optionLeft,45,3250,2,17,0,17,0,1,,,,,,,,,,,,,,,,,,,,,,,,,,,,,,,,,,,,,,,
,,,,,,,,2023-08-16_08h38.02.021,HF_wild_card,2022.2.4,Win32,59.79788315,613b26e292cabf1dbe46791f,64d2fd46c836a06233681665,64dc7cc9792e1824bf53d2ba,,,,,,,decisionTrl,resources/DR.BMP,resources/DB.BMP,Door4,-0.294444444,-0.033333333,1,0,0,0.4962,optionLeft,60,3310,2,18,0,18,0,1,,,,,,,,,,,,,,,,,,,,,,,,,,,,,,,,,,,,,,,
,,,,,,,,2023-08-16_08h38.02.021,HF_wild_card,2022.2.4,Win32,59.79788315,613b26e292cabf1dbe46791f,64d2fd46c836a06233681665,64dc7cc9792e1824bf53d2ba,,,,,,,ctch,resources/DBN.BMP,resources/DB.BMP,Door3,0.200925926,-0.034259259,1,0,0,0.6561,optionRight,70,3380,2,19,0,19,0,1,,,,,,,,,,,,,,,,,,,,,,,,,,,,,,,,,,,,,,,
,,,,,,,,2023-08-16_08h38.02.021,HF_wild_card,2022.2.4,Win32,59.79788315,613b26e292cabf1dbe46791f,64d2fd46c836a06233681665,64dc7cc9792e1824bf53d2ba,,,,,,,sngl,resources/DBN.BMP,resources/Empty.png,Door2,-0.108333333,0.006481481,1,0,0,0.514,optionLeft,20,3400,2,20,0,20,0,1,,,,,,,,,,,,,,,,,,,,,,,,,,,,,,,,,,,,,,,
,,,,,,,,2023-08-16_08h38.02.021,HF_wild_card,2022.2.4,Win32,59.79788315,613b26e292cabf1dbe46791f,64d2fd46c836a06233681665,64dc7cc9792e1824bf53d2ba,,,,,,,sngl,resources/Empty.png,resources/DP.BMP,WildCard_NonEx,0.225925926,0.006481481,1,0,0,0.529,optionRight,45,3445,2,21,0,21,0,1,,,,,,,,,,,,,,,,,,,,,,,,,,,,,,,,,,,,,,,
,,,,,,,,2023-08-16_08h38.02.021,HF_wild_card,2022.2.4,Win32,59.79788315,613b26e292cabf1dbe46791f,64d2fd46c836a06233681665,64dc7cc9792e1824bf53d2ba,,,,,,,decisionTrl,resources/DBN.BMP,resources/DY.BMP,Door1,0.282407407,0,1,0,0,0.6784,optionRight,30,3475,2,22,0,22,0,1,,,,,,,,,,,,,,,,,,,,,,,,,,,,,,,,,,,,,,,
,,,,,,,,2023-08-16_08h38.02.021,HF_wild_card,2022.2.4,Win32,59.79788315,613b26e292cabf1dbe46791f,64d2fd46c836a06233681665,64dc7cc9792e1824bf53d2ba,,,,,,,decisionTrl,resources/DBN.BMP,resources/DY.BMP,Door1,0.206481481,0.032407407,1,0,0,0.5504,optionRight,30,3505,2,23,0,23,0,1,,,,,,,,,,,,,,,,,,,,,,,,,,,,,,,,,,,,,,,
,,,,,,,,2023-08-16_08h38.02.021,HF_wild_card,2022.2.4,Win32,59.79788315,613b26e292cabf1dbe46791f,64d2fd46c836a06233681665,64dc7cc9792e1824bf53d2ba,,,,,,,decisionTrl,resources/DY.BMP,resources/DBN.BMP,Door1,-0.237962963,-0.007407407,1,0,0,0.7144,optionLeft,30,3535,2,24,0,24,0,1,,,,,,,,,,,,,,,,,,,,,,,,,,,,,,,,,,,,,,,
,,,,,,,,2023-08-16_08h38.02.021,HF_wild_card,2022.2.4,Win32,59.79788315,613b26e292cabf1dbe46791f,64d2fd46c836a06233681665,64dc7cc9792e1824bf53d2ba,,,,,,,sngl,resources/Empty.png,resources/DB.BMP,Door3,0.446296296,-0.035185185,1,0,0,0.5463,optionRight,70,3605,2,25,0,25,0,1,,,,,,,,,,,,,,,,,,,,,,,,,,,,,,,,,,,,,,,
,,,,,,,,2023-08-16_08h38.02.021,HF_wild_card,2022.2.4,Win32,59.79788315,613b26e292cabf1dbe46791f,64d2fd46c836a06233681665,64dc7cc9792e1824bf53d2ba,,,,,,,sngl,resources/Empty.png,resources/DR.BMP,Door4,0.297222222,0.044444444,1,0,0,0.53,optionRight,80,3685,2,26,0,26,0,1,,,,,,,,,,,,,,,,,,,,,,,,,,,,,,,,,,,,,,,
,,,,,,,,2023-08-16_08h38.02.021,HF_wild_card,2022.2.4,Win32,59.79788315,613b26e292cabf1dbe46791f,64d2fd46c836a06233681665,64dc7cc9792e1824bf53d2ba,,,,,,,decisionTrl,resources/DP.BMP,resources/DBN.BMP,WildCard_NonEx,-0.344444444,0.00462963,1,0,0,0.5626,optionLeft,45,3730,2,27,0,27,0,1,,,,,,,,,,,,,,,,,,,,,,,,,,,,,,,,,,,,,,,
,,,,,,,,2023-08-16_08h38.02.021,HF_wild_card,2022.2.4,Win32,59.79788315,613b26e292cabf1dbe46791f,64d2fd46c836a06233681665,64dc7cc9792e1824bf53d2ba,,,,,,,decisionTrl,resources/DBN.BMP,resources/DP.BMP,WildCard_NonEx,0.334259259,-0.000925926,1,0,0,0.5462,optionRight,55,3785,2,28,0,28,0,1,,,,,,,,,,,,,,,,,,,,,,,,,,,,,,,,,,,,,,,
,,,,,,,,2023-08-16_08h38.02.021,HF_wild_card,2022.2.4,Win32,59.79788315,613b26e292cabf1dbe46791f,64d2fd46c836a06233681665,64dc7cc9792e1824bf53d2ba,,,,,,,decisionTrl,resources/DBN.BMP,resources/DY.BMP,Door1,0.376851852,0.001851852,1,0,0,0.6796,optionRight,30,3815,2,29,0,29,0,1,,,,,,,,,,,,,,,,,,,,,,,,,,,,,,,,,,,,,,,
,,,,,,,,2023-08-16_08h38.02.021,HF_wild_card,2022.2.4,Win32,59.79788315,613b26e292cabf1dbe46791f,64d2fd46c836a06233681665,64dc7cc9792e1824bf53d2ba,,,,,,,sngl,resources/DB.BMP,resources/Empty.png,Door3,-0.152777778,-0.02037037,1,0,0,0.5294,optionLeft,70,3885,2,30,0,30,0,1,,,,,,,,,,,,,,,,,,,,,,,,,,,,,,,,,,,,,,,
,,,,,,,,2023-08-16_08h38.02.021,HF_wild_card,2022.2.4,Win32,59.79788315,613b26e292cabf1dbe46791f,64d2fd46c836a06233681665,64dc7cc9792e1824bf53d2ba,,,,,,,ctch,resources/DR.BMP,resources/DY.BMP,Door4,-0.150925926,-0.159259259,1,0,0,1.3465,optionLeft,80,3965,2,31,0,31,0,1,,,,,,,,,,,,,,,,,,,,,,,,,,,,,,,,,,,,,,,
,,,,,,,,2023-08-16_08h38.02.021,HF_wild_card,2022.2.4,Win32,59.79788315,613b26e292cabf1dbe46791f,64d2fd46c836a06233681665,64dc7cc9792e1824bf53d2ba,,,,,,,decisionTrl,resources/DB.BMP,resources/DP.BMP,WildCard_NonEx,0.271296296,0.012037037,1,0,0,1.0974,optionRight,45,4010,2,32,0,32,0,1,,,,,,,,,,,,,,,,,,,,,,,,,,,,,,,,,,,,,,,
,,,,,,,,2023-08-16_08h38.02.021,HF_wild_card,2022.2.4,Win32,59.79788315,613b26e292cabf1dbe46791f,64d2fd46c836a06233681665,64dc7cc9792e1824bf53d2ba,,,,,,,ctch,resources/DY.BMP,resources/DR.BMP,Door4,0.421296296,-0.057407407,1,0,0,0.4969,optionRight,80,4090,2,33,0,33,0,1,,,,,,,,,,,,,,,,,,,,,,,,,,,,,,,,,,,,,,,
,,,,,,,,2023-08-16_08h38.02.021,HF_wild_card,2022.2.4,Win32,59.79788315,613b26e292cabf1dbe46791f,64d2fd46c836a06233681665,64dc7cc9792e1824bf53d2ba,,,,,,,sngl,resources/DP.BMP,resources/Empty.png,WildCard_NonEx,-0.180555556,-0.018518519,1,0,0,0.4789,optionLeft,45,4135,2,34,0,34,0,1,,,,,,,,,,,,,,,,,,,,,,,,,,,,,,,,,,,,,,,
,,,,,,,,2023-08-16_08h38.02.021,HF_wild_card,2022.2.4,Win32,59.79788315,613b26e292cabf1dbe46791f,64d2fd46c836a06233681665,64dc7cc9792e1824bf53d2ba,,,,,,,sngl,resources/DY.BMP,resources/Empty.png,Door1,-0.281481481,-0.02037037,1,0,0,0.496,optionLeft,30,4165,2,35,0,35,0,1,,,,,,,,,,,,,,,,,,,,,,,,,,,,,,,,,,,,,,,
,,,,,,,,2023-08-16_08h38.02.021,HF_wild_card,2022.2.4,Win32,59.79788315,613b26e292cabf1dbe46791f,64d2fd46c836a06233681665,64dc7cc9792e1824bf53d2ba,,,,,,,decisionTrl,resources/DR.BMP,resources/DB.BMP,Door4,-0.306481481,-0.006481481,1,0,0,0.5136,optionLeft,60,4225,2,36,0,36,0,1,,,,,,,,,,,,,,,,,,,,,,,,,,,,,,,,,,,,,,,
,,,,,,,,2023-08-16_08h38.02.021,HF_wild_card,2022.2.4,Win32,59.79788315,613b26e292cabf1dbe46791f,64d2fd46c836a06233681665,64dc7cc9792e1824bf53d2ba,,,,,,,decisionTrl,resources/DP.BMP,resources/DR.BMP,Door4,0.301851852,-0.012037037,1,0,0,0.5132,optionRight,60,4285,2,37,0,37,0,1,,,,,,,,,,,,,,,,,,,,,,,,,,,,,,,,,,,,,,,
,,,,,,,,2023-08-16_08h38.02.021,HF_wild_card,2022.2.4,Win32,59.79788315,613b26e292cabf1dbe46791f,64d2fd46c836a06233681665,64dc7cc9792e1824bf53d2ba,,,,,,,decisionTrl,resources/DB.BMP,resources/DR.BMP,Door4,0.285185185,-0.056481481,1,0,0,0.5461,optionRight,80,4365,2,38,0,38,0,1,,,,,,,,,,,,,,,,,,,,,,,,,,,,,,,,,,,,,,,
,,,,,,,,2023-08-16_08h38.02.021,HF_wild_card,2022.2.4,Win32,59.79788315,613b26e292cabf1dbe46791f,64d2fd46c836a06233681665,64dc7cc9792e1824bf53d2ba,,,,,,,decisionTrl,resources/DB.BMP,resources/DR.BMP,Door4,0.310185185,-0.023148148,1,0,0,0.48,optionRight,80,4445,2,39,0,39,0,1,,,,,,,,,,,,,,,,,,,,,,,,,,,,,,,,,,,,,,,
,,,,,,,,2023-08-16_08h38.02.021,HF_wild_card,2022.2.4,Win32,59.79788315,613b26e292cabf1dbe46791f,64d2fd46c836a06233681665,64dc7cc9792e1824bf53d2ba,,,,,,,decisionTrl,resources/DB.BMP,resources/DR.BMP,Door4,0.393518519,-0.05462963,1,0,0,0.4464,optionRight,80,4525,2,40,0,40,0,1,,,,,,,,,,,,,,,,,,,,,,,,,,,,,,,,,,,,,,,
,,,,,,,,2023-08-16_08h38.02.021,HF_wild_card,2022.2.4,Win32,59.79788315,613b26e292cabf1dbe46791f,64d2fd46c836a06233681665,64dc7cc9792e1824bf53d2ba,,,,,,,sngl,resources/Empty.png,resources/DBN.BMP,Door2,0.197222222,-0.038888889,1,0,0,0.6972,optionRight,40,4565,2,41,0,41,0,1,,,,,,,,,,,,,,,,,,,,,,,,,,,,,,,,,,,,,,,
,,,,,,,,2023-08-16_08h38.02.021,HF_wild_card,2022.2.4,Win32,59.79788315,613b26e292cabf1dbe46791f,64d2fd46c836a06233681665,64dc7cc9792e1824bf53d2ba,,,,,,,ctch,resources/DY.BMP,resources/DR.BMP,Door4,0.386111111,-0.051851852,1,0,0,0.4964,optionRight,80,4645,2,42,0,42,0,1,,,,,,,,,,,,,,,,,,,,,,,,,,,,,,,,,,,,,,,
,,,,,,,,2023-08-16_08h38.02.021,HF_wild_card,2022.2.4,Win32,59.79788315,613b26e292cabf1dbe46791f,64d2fd46c836a06233681665,64dc7cc9792e1824bf53d2ba,,,,,,,decisionTrl,resources/DR.BMP,resources/DB.BMP,Door4,-0.144444444,0.014814815,1,0,0,0.5467,optionLeft,80,4725,2,43,0,43,0,1,,,,,,,,,,,,,,,,,,,,,,,,,,,,,,,,,,,,,,,
,,,,,,,,2023-08-16_08h38.02.021,HF_wild_card,2022.2.4,Win32,59.79788315,613b26e292cabf1dbe46791f,64d2fd46c836a06233681665,64dc7cc9792e1824bf53d2ba,,,,,,,,,,,,,,,,,,,,,,,,,,1,0,1,0,1,,,,,,,,,,,,,,,,,,,,,,,,,,,,,,,,,,
,,,,,,,,2023-08-16_08h38.02.021,HF_wild_card,2022.2.4,Win32,59.79788315,613b26e292cabf1dbe46791f,64d2fd46c836a06233681665,64dc7cc9792e1824bf53d2ba,,,,,,,ctch,resources/DR.BMP,resources/DY.BMP,Door4,-0.461111111,0.02962963,1,0,0,0.6448,optionLeft,60,4785,3,0,0,0,0,1,,,,,,,,,,,,,,,,,,,,,,,,,,,,,,,,,,,,,,,
,,,,,,,,2023-08-16_08h38.02.021,HF_wild_card,2022.2.4,Win32,59.79788315,613b26e292cabf1dbe46791f,64d2fd46c836a06233681665,64dc7cc9792e1824bf53d2ba,,,,,,,decisionTrl,resources/DY.BMP,resources/DP.BMP,WildCard_NonEx,0.291666667,-0.103703704,1,0,0,0.8136,optionRight,55,4840,3,1,0,1,0,1,,,,,,,,,,,,,,,,,,,,,,,,,,,,,,,,,,,,,,,
,,,,,,,,2023-08-16_08h38.02.021,HF_wild_card,2022.2.4,Win32,59.79788315,613b26e292cabf1dbe46791f,64d2fd46c836a06233681665,64dc7cc9792e1824bf53d2ba,,,,,,,decisionTrl,resources/DBN.BMP,resources/DY.BMP,Door1,0.222222222,0.009259259,1,0,0,0.698,optionRight,30,4870,3,2,0,2,0,1,,,,,,,,,,,,,,,,,,,,,,,,,,,,,,,,,,,,,,,
,,,,,,,,2023-08-16_08h38.02.021,HF_wild_card,2022.2.4,Win32,59.79788315,613b26e292cabf1dbe46791f,64d2fd46c836a06233681665,64dc7cc9792e1824bf53d2ba,,,,,,,decisionTrl,resources/DBN.BMP,resources/DP.BMP,WildCard_NonEx,0.303703704,-0.057407407,1,0,0,0.7802,optionRight,45,4915,3,3,0,3,0,1,,,,,,,,,,,,,,,,,,,,,,,,,,,,,,,,,,,,,,,
,,,,,,,,2023-08-16_08h38.02.021,HF_wild_card,2022.2.4,Win32,59.79788315,613b26e292cabf1dbe46791f,64d2fd46c836a06233681665,64dc7cc9792e1824bf53d2ba,,,,,,,sngl,resources/DR.BMP,resources/Empty.png,Door4,-0.144444444,0.025,1,0,0,0.547,optionLeft,80,4995,3,4,0,4,0,1,,,,,,,,,,,,,,,,,,,,,,,,,,,,,,,,,,,,,,,
,,,,,,,,2023-08-16_08h38.02.021,HF_wild_card,2022.2.4,Win32,59.79788315,613b26e292cabf1dbe46791f,64d2fd46c836a06233681665,64dc7cc9792e1824bf53d2ba,,,,,,,sngl,resources/DY.BMP,resources/Empty.png,Door1,-0.172222222,0.022222222,1,0,0,0.5469,optionLeft,30,5025,3,5,0,5,0,1,,,,,,,,,,,,,,,,,,,,,,,,,,,,,,,,,,,,,,,
,,,,,,,,2023-08-16_08h38.02.021,HF_wild_card,2022.2.4,Win32,59.79788315,613b26e292cabf1dbe46791f,64d2fd46c836a06233681665,64dc7cc9792e1824bf53d2ba,,,,,,,sngl,resources/DP.BMP,resources/Empty.png,WildCard_NonEx,-0.171296296,0.037037037,1,0,0,0.5463,optionLeft,45,5070,3,6,0,6,0,1,,,,,,,,,,,,,,,,,,,,,,,,,,,,,,,,,,,,,,,
,,,,,,,,2023-08-16_08h38.02.021,HF_wild_card,2022.2.4,Win32,59.79788315,613b26e292cabf1dbe46791f,64d2fd46c836a06233681665,64dc7cc9792e1824bf53d2ba,,,,,,,decisionTrl,resources/DB.BMP,resources/DR.BMP,Door4,0.326851852,-0.028703704,1,0,0,0.4961,optionRight,60,5130,3,7,0,7,0,1,,,,,,,,,,,,,,,,,,,,,,,,,,,,,,,,,,,,,,,
,,,,,,,,2023-08-16_08h38.02.021,HF_wild_card,2022.2.4,Win32,59.79788315,613b26e292cabf1dbe46791f,64d2fd46c836a06233681665,64dc7cc9792e1824bf53d2ba,,,,,,,sngl,resources/Empty.png,resources/DR.BMP,Door4,0.376851852,-0.067592593,1,0,0,0.5139,optionRight,60,5190,3,8,0,8,0,1,,,,,,,,,,,,,,,,,,,,,,,,,,,,,,,,,,,,,,,
,,,,,,,,2023-08-16_08h38.02.021,HF_wild_card,2022.2.4,Win32,59.79788315,613b26e292cabf1dbe46791f,64d2fd46c836a06233681665,64dc7cc9792e1824bf53d2ba,,,,,,,decisionTrl,resources/DB.BMP,resources/DR.BMP,Door4,0.248148148,0,1,0,0,0.5142,optionRight,60,5250,3,9,0,9,0,1,,,,,,,,,,,,,,,,,,,,,,,,,,,,,,,,,,,,,,,
,,,,,,,,2023-08-16_08h38.02.021,HF_wild_card,2022.2.4,Win32,59.79788315,613b26e292cabf1dbe46791f,64d2fd46c836a06233681665,64dc7cc9792e1824bf53d2ba,,,,,,,decisionTrl,resources/DR.BMP,resources/DB.BMP,Door4,-0.138888889,0.022222222,1,0,0,0.481,optionLeft,80,5330,3,10,0,10,0,1,,,,,,,,,,,,,,,,,,,,,,,,,,,,,,,,,,,,,,,
,,,,,,,,2023-08-16_08h38.02.021,HF_wild_card,2022.2.4,Win32,59.79788315,613b26e292cabf1dbe46791f,64d2fd46c836a06233681665,64dc7cc9792e1824bf53d2ba,,,,,,,sngl,resources/DB.BMP,resources/Empty.png,Door3,-0.232407407,-0.000925926,1,0,0,0.547,optionLeft,70,5400,3,11,0,11,0,1,,,,,,,,,,,,,,,,,,,,,,,,,,,,,,,,,,,,,,,
,,,,,,,,2023-08-16_08h38.02.021,HF_wild_card,2022.2.4,Win32,59.79788315,613b26e292cabf1dbe46791f,64d2fd46c836a06233681665,64dc7cc9792e1824bf53d2ba,,,,,,,decisionTrl,resources/DB.BMP,resources/DP.BMP,Door3,-0.281481481,0.006481481,1,0,0,0.6138,optionLeft,70,5470,3,12,0,12,0,1,,,,,,,,,,,,,,,,,,,,,,,,,,,,,,,,,,,,,,,
,,,,,,,,2023-08-16_08h38.02.021,HF_wild_card,2022.2.4,Win32,59.79788315,613b26e292cabf1dbe46791f,64d2fd46c836a06233681665,64dc7cc9792e1824bf53d2ba,,,,,,,decisionTrl,resources/DY.BMP,resources/DBN.BMP,Door1,-0.201851852,-0.006481481,1,0,0,0.5634,optionLeft,30,5500,3,13,0,13,0,1,,,,,,,,,,,,,,,,,,,,,,,,,,,,,,,,,,,,,,,
,,,,,,,,2023-08-16_08h38.02.021,HF_wild_card,2022.2.4,Win32,59.79788315,613b26e292cabf1dbe46791f,64d2fd46c836a06233681665,64dc7cc9792e1824bf53d2ba,,,,,,,decisionTrl,resources/DBN.BMP,resources/DY.BMP,Door1,0.305555556,-0.011111111,1,0,0,0.7305,optionRight,30,5530,3,14,0,14,0,1,,,,,,,,,,,,,,,,,,,,,,,,,,,,,,,,,,,,,,,
,,,,,,,,2023-08-16_08h38.02.021,HF_wild_card,2022.2.4,Win32,59.79788315,613b26e292cabf1dbe46791f,64d2fd46c836a06233681665,64dc7cc9792e1824bf53d2ba,,,,,,,ctch,resources/DY.BMP,resources/DR.BMP,Door4,0.363888889,0.015740741,1,0,0,0.8622,optionRight,80,5610,3,15,0,15,0,1,,,,,,,,,,,,,,,,,,,,,,,,,,,,,,,,,,,,,,,
,,,,,,,,2023-08-16_08h38.02.021,HF_wild_card,2022.2.4,Win32,59.79788315,613b26e292cabf1dbe46791f,64d2fd46c836a06233681665,64dc7cc9792e1824bf53d2ba,,,,,,,decisionTrl,resources/DR.BMP,resources/DP.BMP,Door4,-0.306481481,0,1,0,0,0.496,optionLeft,60,5670,3,16,0,16,0,1,,,,,,,,,,,,,,,,,,,,,,,,,,,,,,,,,,,,,,,
,,,,,,,,2023-08-16_08h38.02.021,HF_wild_card,2022.2.4,Win32,59.79788315,613b26e292cabf1dbe46791f,64d2fd46c836a06233681665,64dc7cc9792e1824bf53d2ba,,,,,,,ctch,resources/DB.BMP,resources/DBN.BMP,Door3,-0.15,0.00462963,1,0,0,0.6974,optionLeft,70,5740,3,17,0,17,0,1,,,,,,,,,,,,,,,,,,,,,,,,,,,,,,,,,,,,,,,
,,,,,,,,2023-08-16_08h38.02.021,HF_wild_card,2022.2.4,Win32,59.79788315,613b26e292cabf1dbe46791f,64d2fd46c836a06233681665,64dc7cc9792e1824bf53d2ba,,,,,,,decisionTrl,resources/DB.BMP,resources/DR.BMP,Door4,0.313888889,-0.068518519,1,0,0,0.5442,optionRight,80,5820,3,18,0,18,0,1,,,,,,,,,,,,,,,,,,,,,,,,,,,,,,,,,,,,,,,
,,,,,,,,2023-08-16_08h38.02.021,HF_wild_card,2022.2.4,Win32,59.79788315,613b26e292cabf1dbe46791f,64d2fd46c836a06233681665,64dc7cc9792e1824bf53d2ba,,,,,,,ctch,resources/DB.BMP,resources/DBN.BMP,Door3,-0.273148148,0.007407407,1,0,0,0.5142,optionLeft,70,5890,3,19,0,19,0,1,,,,,,,,,,,,,,,,,,,,,,,,,,,,,,,,,,,,,,,
,,,,,,,,2023-08-16_08h38.02.021,HF_wild_card,2022.2.4,Win32,59.79788315,613b26e292cabf1dbe46791f,64d2fd46c836a06233681665,64dc7cc9792e1824bf53d2ba,,,,,,,decisionTrl,resources/DP.BMP,resources/DB.BMP,WildCard_NonEx,-0.187962963,0.033333333,1,0,0,0.6796,optionLeft,55,5945,3,20,0,20,0,1,,,,,,,,,,,,,,,,,,,,,,,,,,,,,,,,,,,,,,,
,,,,,,,,2023-08-16_08h38.02.021,HF_wild_card,2022.2.4,Win32,59.79788315,613b26e292cabf1dbe46791f,64d2fd46c836a06233681665,64dc7cc9792e1824bf53d2ba,,,,,,,decisionTrl,resources/DR.BMP,resources/DB.BMP,Door4,-0.211111111,-0.007407407,1,0,0,0.4634,optionLeft,60,6005,3,21,0,21,0,1,,,,,,,,,,,,,,,,,,,,,,,,,,,,,,,,,,,,,,,
,,,,,,,,2023-08-16_08h38.02.021,HF_wild_card,2022.2.4,Win32,59.79788315,613b26e292cabf1dbe46791f,64d2fd46c836a06233681665,64dc7cc9792e1824bf53d2ba,,,,,,,decisionTrl,resources/DP.BMP,resources/DY.BMP,WildCard_NonEx,-0.130555556,-0.003703704,1,0,0,0.4635,optionLeft,55,6060,3,22,0,22,0,1,,,,,,,,,,,,,,,,,,,,,,,,,,,,,,,,,,,,,,,
,,,,,,,,2023-08-16_08h38.02.021,HF_wild_card,2022.2.4,Win32,59.79788315,613b26e292cabf1dbe46791f,64d2fd46c836a06233681665,64dc7cc9792e1824bf53d2ba,,,,,,,decisionTrl,resources/DY.BMP,resources/DBN.BMP,Door1,-0.214814815,-0.017592593,1,0,0,0.3795,optionLeft,30,6090,3,23,0,23,0,1,,,,,,,,,,,,,,,,,,,,,,,,,,,,,,,,,,,,,,,
,,,,,,,,2023-08-16_08h38.02.021,HF_wild_card,2022.2.4,Win32,59.79788315,613b26e292cabf1dbe46791f,64d2fd46c836a06233681665,64dc7cc9792e1824bf53d2ba,,,,,,,decisionTrl,resources/DR.BMP,resources/DB.BMP,Door4,-0.167592593,0.019444444,1,0,0,0.3807,optionLeft,80,6170,3,24,0,24,0,1,,,,,,,,,,,,,,,,,,,,,,,,,,,,,,,,,,,,,,,
,,,,,,,,2023-08-16_08h38.02.021,HF_wild_card,2022.2.4,Win32,59.79788315,613b26e292cabf1dbe46791f,64d2fd46c836a06233681665,64dc7cc9792e1824bf53d2ba,,,,,,,decisionTrl,resources/DBN.BMP,resources/DY.BMP,Door2,-0.158333333,0.009259259,1,0,0,1.0136,optionLeft,20,6190,3,25,0,25,0,1,,,,,,,,,,,,,,,,,,,,,,,,,,,,,,,,,,,,,,,
,,,,,,,,2023-08-16_08h38.02.021,HF_wild_card,2022.2.4,Win32,59.79788315,613b26e292cabf1dbe46791f,64d2fd46c836a06233681665,64dc7cc9792e1824bf53d2ba,,,,,,,sngl,resources/Empty.png,resources/DP.BMP,WildCard_NonEx,0.35,-0.073148148,1,0,0,0.5466,optionRight,55,6245,3,26,0,26,0,1,,,,,,,,,,,,,,,,,,,,,,,,,,,,,,,,,,,,,,,
,,,,,,,,2023-08-16_08h38.02.021,HF_wild_card,2022.2.4,Win32,59.79788315,613b26e292cabf1dbe46791f,64d2fd46c836a06233681665,64dc7cc9792e1824bf53d2ba,,,,,,,ctch,resources/DBN.BMP,resources/DB.BMP,Door3,0.423148148,-0.033333333,1,0,0,0.764,optionRight,70,6315,3,27,0,27,0,1,,,,,,,,,,,,,,,,,,,,,,,,,,,,,,,,,,,,,,,
,,,,,,,,2023-08-16_08h38.02.021,HF_wild_card,2022.2.4,Win32,59.79788315,613b26e292cabf1dbe46791f,64d2fd46c836a06233681665,64dc7cc9792e1824bf53d2ba,,,,,,,ctch,resources/DR.BMP,resources/DY.BMP,Door4,-0.162037037,-0.000925926,1,0,0,0.4295,optionLeft,80,6395,3,28,0,28,0,1,,,,,,,,,,,,,,,,,,,,,,,,,,,,,,,,,,,,,,,
,,,,,,,,2023-08-16_08h38.02.021,HF_wild_card,2022.2.4,Win32,59.79788315,613b26e292cabf1dbe46791f,64d2fd46c836a06233681665,64dc7cc9792e1824bf53d2ba,,,,,,,decisionTrl,resources/DBN.BMP,resources/DY.BMP,Door1,0.438888889,-0.024074074,1,0,0,0.7305,optionRight,30,6425,3,29,0,29,0,1,,,,,,,,,,,,,,,,,,,,,,,,,,,,,,,,,,,,,,,
,,,,,,,,2023-08-16_08h38.02.021,HF_wild_card,2022.2.4,Win32,59.79788315,613b26e292cabf1dbe46791f,64d2fd46c836a06233681665,64dc7cc9792e1824bf53d2ba,,,,,,,sngl,resources/Empty.png,resources/DY.BMP,Door1,0.372222222,-0.026851852,1,0,0,0.5306,optionRight,30,6455,3,30,0,30,0,1,,,,,,,,,,,,,,,,,,,,,,,,,,,,,,,,,,,,,,,
,,,,,,,,2023-08-16_08h38.02.021,HF_wild_card,2022.2.4,Win32,59.79788315,613b26e292cabf1dbe46791f,64d2fd46c836a06233681665,64dc7cc9792e1824bf53d2ba,,,,,,,ctch,resources/DY.BMP,resources/DR.BMP,Door4,0.349074074,-0.077777778,1,0,0,0.5301,optionRight,80,6535,3,31,0,31,0,1,,,,,,,,,,,,,,,,,,,,,,,,,,,,,,,,,,,,,,,
,,,,,,,,2023-08-16_08h38.02.021,HF_wild_card,2022.2.4,Win32,59.79788315,613b26e292cabf1dbe46791f,64d2fd46c836a06233681665,64dc7cc9792e1824bf53d2ba,,,,,,,sngl,resources/Empty.png,resources/DB.BMP,Door3,0.387962963,-0.005555556,1,0,0,0.5136,optionRight,70,6605,3,32,0,32,0,1,,,,,,,,,,,,,,,,,,,,,,,,,,,,,,,,,,,,,,,
,,,,,,,,2023-08-16_08h38.02.021,HF_wild_card,2022.2.4,Win32,59.79788315,613b26e292cabf1dbe46791f,64d2fd46c836a06233681665,64dc7cc9792e1824bf53d2ba,,,,,,,decisionTrl,resources/DY.BMP,resources/DBN.BMP,Door1,-0.111111111,0.010185185,1,0,0,0.4794,optionLeft,30,6635,3,33,0,33,0,1,,,,,,,,,,,,,,,,,,,,,,,,,,,,,,,,,,,,,,,
,,,,,,,,2023-08-16_08h38.02.021,HF_wild_card,2022.2.4,Win32,59.79788315,613b26e292cabf1dbe46791f,64d2fd46c836a06233681665,64dc7cc9792e1824bf53d2ba,,,,,,,decisionTrl,resources/DB.BMP,resources/DR.BMP,Door4,0.352777778,-0.008333333,1,0,0,0.662,optionRight,60,6695,3,34,0,34,0,1,,,,,,,,,,,,,,,,,,,,,,,,,,,,,,,,,,,,,,,
,,,,,,,,2023-08-16_08h38.02.021,HF_wild_card,2022.2.4,Win32,59.79788315,613b26e292cabf1dbe46791f,64d2fd46c836a06233681665,64dc7cc9792e1824bf53d2ba,,,,,,,decisionTrl,resources/DP.BMP,resources/DBN.BMP,WildCard_NonEx,-0.102777778,-0.032407407,1,0,0,0.463,optionLeft,55,6750,3,35,0,35,0,1,,,,,,,,,,,,,,,,,,,,,,,,,,,,,,,,,,,,,,,
,,,,,,,,2023-08-16_08h38.02.021,HF_wild_card,2022.2.4,Win32,59.79788315,613b26e292cabf1dbe46791f,64d2fd46c836a06233681665,64dc7cc9792e1824bf53d2ba,,,,,,,sngl,resources/Empty.png,resources/DP.BMP,WildCard_NonEx,0.303703704,0.003703704,1,0,0,0.4636,optionRight,45,6795,3,36,0,36,0,1,,,,,,,,,,,,,,,,,,,,,,,,,,,,,,,,,,,,,,,
,,,,,,,,2023-08-16_08h38.02.021,HF_wild_card,2022.2.4,Win32,59.79788315,613b26e292cabf1dbe46791f,64d2fd46c836a06233681665,64dc7cc9792e1824bf53d2ba,,,,,,,sngl,resources/DP.BMP,resources/Empty.png,WildCard_NonEx,-0.283333333,-0.018518519,1,0,0,0.4799,optionLeft,55,6850,3,37,0,37,0,1,,,,,,,,,,,,,,,,,,,,,,,,,,,,,,,,,,,,,,,
,,,,,,,,2023-08-16_08h38.02.021,HF_wild_card,2022.2.4,Win32,59.79788315,613b26e292cabf1dbe46791f,64d2fd46c836a06233681665,64dc7cc9792e1824bf53d2ba,,,,,,,ctch,resources/DBN.BMP,resources/DB.BMP,Door3,0.12962963,-0.027777778,1,0,0,0.7129,optionRight,70,6920,3,38,0,38,0,1,,,,,,,,,,,,,,,,,,,,,,,,,,,,,,,,,,,,,,,
,,,,,,,,2023-08-16_08h38.02.021,HF_wild_card,2022.2.4,Win32,59.79788315,613b26e292cabf1dbe46791f,64d2fd46c836a06233681665,64dc7cc9792e1824bf53d2ba,,,,,,,decisionTrl,resources/DR.BMP,resources/DB.BMP,Door4,-0.318518519,-0.019444444,1,0,0,0.4136,optionLeft,60,6980,3,39,0,39,0,1,,,,,,,,,,,,,,,,,,,,,,,,,,,,,,,,,,,,,,,
,,,,,,,,2023-08-16_08h38.02.021,HF_wild_card,2022.2.4,Win32,59.79788315,613b26e292cabf1dbe46791f,64d2fd46c836a06233681665,64dc7cc9792e1824bf53d2ba,,,,,,,decisionTrl,resources/DP.BMP,resources/DR.BMP,Door4,0.224074074,-0.04537037,1,0,0,0.497,optionRight,80,7060,3,40,0,40,0,1,,,,,,,,,,,,,,,,,,,,,,,,,,,,,,,,,,,,,,,
,,,,,,,,2023-08-16_08h38.02.021,HF_wild_card,2022.2.4,Win32,59.79788315,613b26e292cabf1dbe46791f,64d2fd46c836a06233681665,64dc7cc9792e1824bf53d2ba,,,,,,,decisionTrl,resources/DY.BMP,resources/DBN.BMP,Door1,-0.135185185,-0.001851852,1,0,0,0.513,optionLeft,30,7090,3,41,0,41,0,1,,,,,,,,,,,,,,,,,,,,,,,,,,,,,,,,,,,,,,,
,,,,,,,,2023-08-16_08h38.02.021,HF_wild_card,2022.2.4,Win32,59.79788315,613b26e292cabf1dbe46791f,64d2fd46c836a06233681665,64dc7cc9792e1824bf53d2ba,,,,,,,sngl,resources/DBN.BMP,resources/Empty.png,Door2,-0.169444444,-0.02037037,1,0,0,0.3958,optionLeft,40,7130,3,42,0,42,0,1,,,,,,,,,,,,,,,,,,,,,,,,,,,,,,,,,,,,,,,
,,,,,,,,2023-08-16_08h38.02.021,HF_wild_card,2022.2.4,Win32,59.79788315,613b26e292cabf1dbe46791f,64d2fd46c836a06233681665,64dc7cc9792e1824bf53d2ba,,,,,,,sngl,resources/Empty.png,resources/DBN.BMP,Door2,0.258333333,-0.066666667,1,0,0,0.4634,optionRight,20,7150,3,43,0,43,0,1,,,,,,,,,,,,,,,,,,,,,,,,,,,,,,,,,,,,,,,
,,,,,,,,2023-08-16_08h38.02.021,HF_wild_card,2022.2.4,Win32,59.79788315,613b26e292cabf1dbe46791f,64d2fd46c836a06233681665,64dc7cc9792e1824bf53d2ba,,,,,,,,,,,,,,,,,,,,,,,,,,2,0,2,0,1,,,,,,,,,,,,,,,,,,,,,,,,,,,,,,,,,,
,,,,,,,,2023-08-16_08h38.02.021,HF_wild_card,2022.2.4,Win32,59.79788315,613b26e292cabf1dbe46791f,64d2fd46c836a06233681665,64dc7cc9792e1824bf53d2ba,,,,,,,ctch,resources/DY.BMP,resources/DR.BMP,Door4,0.30462963,-0.071296296,1,0,0,0.6288,optionRight,80,7230,4,0,0,0,0,1,,,,,,,,,,,,,,,,,,,,,,,,,,,,,,,,,,,,,,,
,,,,,,,,2023-08-16_08h38.02.021,HF_wild_card,2022.2.4,Win32,59.79788315,613b26e292cabf1dbe46791f,64d2fd46c836a06233681665,64dc7cc9792e1824bf53d2ba,,,,,,,ctch,resources/DB.BMP,resources/DBN.BMP,Door3,-0.217592593,-0.051851852,1,0,0,0.4767,optionLeft,70,7300,4,1,0,1,0,1,,,,,,,,,,,,,,,,,,,,,,,,,,,,,,,,,,,,,,,
,,,,,,,,2023-08-16_08h38.02.021,HF_wild_card,2022.2.4,Win32,59.79788315,613b26e292cabf1dbe46791f,64d2fd46c836a06233681665,64dc7cc9792e1824bf53d2ba,,,,,,,ctch,resources/DR.BMP,resources/DY.BMP,Door4,-0.112037037,-0.010185185,1,0,0,0.4496,optionLeft,60,7360,4,2,0,2,0,1,,,,,,,,,,,,,,,,,,,,,,,,,,,,,,,,,,,,,,,
,,,,,,,,2023-08-16_08h38.02.021,HF_wild_card,2022.2.4,Win32,59.79788315,613b26e292cabf1dbe46791f,64d2fd46c836a06233681665,64dc7cc9792e1824bf53d2ba,,,,,,,ctch,resources/DY.BMP,resources/DR.BMP,Door4,0.198148148,0.008333333,1,0,0,0.5013,optionRight,60,7420,4,3,0,3,0,1,,,,,,,,,,,,,,,,,,,,,,,,,,,,,,,,,,,,,,,
,,,,,,,,2023-08-16_08h38.02.021,HF_wild_card,2022.2.4,Win32,59.79788315,613b26e292cabf1dbe46791f,64d2fd46c836a06233681665,64dc7cc9792e1824bf53d2ba,,,,,,,sngl,resources/Empty.png,resources/DY.BMP,Door1,0.177777778,-0.009259259,1,0,0,0.5296,optionRight,30,7450,4,4,0,4,0,1,,,,,,,,,,,,,,,,,,,,,,,,,,,,,,,,,,,,,,,
,,,,,,,,2023-08-16_08h38.02.021,HF_wild_card,2022.2.4,Win32,59.79788315,613b26e292cabf1dbe46791f,64d2fd46c836a06233681665,64dc7cc9792e1824bf53d2ba,,,,,,,sngl,resources/DBN.BMP,resources/Empty.png,Door2,-0.253703704,-0.039814815,1,0,0,0.4807,optionLeft,20,7470,4,5,0,5,0,1,,,,,,,,,,,,,,,,,,,,,,,,,,,,,,,,,,,,,,,
,,,,,,,,2023-08-16_08h38.02.021,HF_wild_card,2022.2.4,Win32,59.79788315,613b26e292cabf1dbe46791f,64d2fd46c836a06233681665,64dc7cc9792e1824bf53d2ba,,,,,,,sngl,resources/DR.BMP,resources/Empty.png,Door4,-0.203703704,0.016666667,1,0,0,0.4143,optionLeft,60,7530,4,6,0,6,0,1,,,,,,,,,,,,,,,,,,,,,,,,,,,,,,,,,,,,,,,
,,,,,,,,2023-08-16_08h38.02.021,HF_wild_card,2022.2.4,Win32,59.79788315,613b26e292cabf1dbe46791f,64d2fd46c836a06233681665,64dc7cc9792e1824bf53d2ba,,,,,,,decisionTrl,resources/DR.BMP,resources/DG.BMP,Door4,-0.373148148,0.024074074,1,0,0,0.4466,optionLeft,60,7590,4,7,0,7,0,1,,,,,,,,,,,,,,,,,,,,,,,,,,,,,,,,,,,,,,,
,,,,,,,,2023-08-16_08h38.02.021,HF_wild_card,2022.2.4,Win32,59.79788315,613b26e292cabf1dbe46791f,64d2fd46c836a06233681665,64dc7cc9792e1824bf53d2ba,,,,,,,decisionTrl,resources/DR.BMP,resources/DB.BMP,Door4,-0.365740741,-0.016666667,1,0,0,0.4469,optionLeft,60,7650,4,8,0,8,0,1,,,,,,,,,,,,,,,,,,,,,,,,,,,,,,,,,,,,,,,
,,,,,,,,2023-08-16_08h38.02.021,HF_wild_card,2022.2.4,Win32,59.79788315,613b26e292cabf1dbe46791f,64d2fd46c836a06233681665,64dc7cc9792e1824bf53d2ba,,,,,,,sngl,resources/DY.BMP,resources/Empty.png,Door1,-0.393518519,0.006481481,1,0,0,0.4137,optionLeft,30,7680,4,9,0,9,0,1,,,,,,,,,,,,,,,,,,,,,,,,,,,,,,,,,,,,,,,
,,,,,,,,2023-08-16_08h38.02.021,HF_wild_card,2022.2.4,Win32,59.79788315,613b26e292cabf1dbe46791f,64d2fd46c836a06233681665,64dc7cc9792e1824bf53d2ba,,,,,,,decisionTrl,resources/DB.BMP,resources/DG.BMP,Door3,-0.208333333,-0.037037037,1,0,0,0.4605,optionLeft,70,7750,4,10,0,10,0,1,,,,,,,,,,,,,,,,,,,,,,,,,,,,,,,,,,,,,,,
,,,,,,,,2023-08-16_08h38.02.021,HF_wild_card,2022.2.4,Win32,59.79788315,613b26e292cabf1dbe46791f,64d2fd46c836a06233681665,64dc7cc9792e1824bf53d2ba,,,,,,,sngl,resources/DG.BMP,resources/Empty.png,WildCard_Ex,-0.225925926,-0.024074074,1,0,0,0.4862,optionLeft,5,7755,4,11,0,11,0,1,,,,,,,,,,,,,,,,,,,,,,,,,,,,,,,,,,,,,,,
,,,,,,,,2023-08-16_08h38.02.021,HF_wild_card,2022.2.4,Win32,59.79788315,613b26e292cabf1dbe46791f,64d2fd46c836a06233681665,64dc7cc9792e1824bf53d2ba,,,,,,,decisionTrl,resources/DG.BMP,resources/DY.BMP,Door1,0.224074074,-0.002777778,1,0,0,0.6776,optionRight,30,7785,4,12,0,12,0,1,,,,,,,,,,,,,,,,,,,,,,,,,,,,,,,,,,,,,,,
,,,,,,,,2023-08-16_08h38.02.021,HF_wild_card,2022.2.4,Win32,59.79788315,613b26e292cabf1dbe46791f,64d2fd46c836a06233681665,64dc7cc9792e1824bf53d2ba,,,,,,,ctch,resources/DR.BMP,resources/DY.BMP,Door4,-0.341666667,-0.042592593,1,0,0,0.7807,optionLeft,80,7865,4,13,0,13,0,1,,,,,,,,,,,,,,,,,,,,,,,,,,,,,,,,,,,,,,,
,,,,,,,,2023-08-16_08h38.02.021,HF_wild_card,2022.2.4,Win32,59.79788315,613b26e292cabf1dbe46791f,64d2fd46c836a06233681665,64dc7cc9792e1824bf53d2ba,,,,,,,sngl,resources/Empty.png,resources/DB.BMP,Door3,0.262037037,0.04537037,1,0,0,0.5466,optionRight,70,7935,4,14,0,14,0,1,,,,,,,,,,,,,,,,,,,,,,,,,,,,,,,,,,,,,,,
,,,,,,,,2023-08-16_08h38.02.021,HF_wild_card,2022.2.4,Win32,59.79788315,613b26e292cabf1dbe46791f,64d2fd46c836a06233681665,64dc7cc9792e1824bf53d2ba,,,,,,,sngl,resources/Empty.png,resources/DG.BMP,WildCard_Ex,0.22037037,0.008333333,1,0,0,0.7303,optionRight,95,8030,4,15,0,15,0,1,,,,,,,,,,,,,,,,,,,,,,,,,,,,,,,,,,,,,,,
,,,,,,,,2023-08-16_08h38.02.021,HF_wild_card,2022.2.4,Win32,59.79788315,613b26e292cabf1dbe46791f,64d2fd46c836a06233681665,64dc7cc9792e1824bf53d2ba,,,,,,,decisionTrl,resources/DBN.BMP,resources/DY.BMP,Door1,0.260185185,0.006481481,1,0,0,0.7468,optionRight,30,8060,4,16,0,16,0,1,,,,,,,,,,,,,,,,,,,,,,,,,,,,,,,,,,,,,,,
,,,,,,,,2023-08-16_08h38.02.021,HF_wild_card,2022.2.4,Win32,59.79788315,613b26e292cabf1dbe46791f,64d2fd46c836a06233681665,64dc7cc9792e1824bf53d2ba,,,,,,,decisionTrl,resources/DBN.BMP,resources/DY.BMP,Door2,-0.084259259,-0.02962963,1,0,0,0.7307,optionLeft,20,8080,4,17,0,17,0,1,,,,,,,,,,,,,,,,,,,,,,,,,,,,,,,,,,,,,,,
,,,,,,,,2023-08-16_08h38.02.021,HF_wild_card,2022.2.4,Win32,59.79788315,613b26e292cabf1dbe46791f,64d2fd46c836a06233681665,64dc7cc9792e1824bf53d2ba,,,,,,,decisionTrl,resources/DR.BMP,resources/DB.BMP,Door4,-0.208333333,-0.011111111,1,0,0,0.5137,optionLeft,60,8140,4,18,0,18,0,1,,,,,,,,,,,,,,,,,,,,,,,,,,,,,,,,,,,,,,,
,,,,,,,,2023-08-16_08h38.02.021,HF_wild_card,2022.2.4,Win32,59.79788315,613b26e292cabf1dbe46791f,64d2fd46c836a06233681665,64dc7cc9792e1824bf53d2ba,,,,,,,decisionTrl,resources/DY.BMP,resources/DBN.BMP,Door1,-0.187037037,-0.02037037,1,0,0,0.9803,optionLeft,30,8170,4,19,0,19,0,1,,,,,,,,,,,,,,,,,,,,,,,,,,,,,,,,,,,,,,,
,,,,,,,,2023-08-16_08h38.02.021,HF_wild_card,2022.2.4,Win32,59.79788315,613b26e292cabf1dbe46791f,64d2fd46c836a06233681665,64dc7cc9792e1824bf53d2ba,,,,,,,decisionTrl,resources/DY.BMP,resources/DG.BMP,WildCard_Ex,0.307407407,-0.00462963,1,0,0,0.9466,optionRight,95,8265,4,20,0,20,0,1,,,,,,,,,,,,,,,,,,,,,,,,,,,,,,,,,,,,,,,
,,,,,,,,2023-08-16_08h38.02.021,HF_wild_card,2022.2.4,Win32,59.79788315,613b26e292cabf1dbe46791f,64d2fd46c836a06233681665,64dc7cc9792e1824bf53d2ba,,,,,,,decisionTrl,resources/DG.BMP,resources/DR.BMP,WildCard_Ex,-0.138888889,-0.027777778,1,0,0,0.5633,optionLeft,5,8270,4,21,0,21,0,1,,,,,,,,,,,,,,,,,,,,,,,,,,,,,,,,,,,,,,,
,,,,,,,,2023-08-16_08h38.02.021,HF_wild_card,2022.2.4,Win32,59.79788315,613b26e292cabf1dbe46791f,64d2fd46c836a06233681665,64dc7cc9792e1824bf53d2ba,,,,,,,decisionTrl,resources/DB.BMP,resources/DR.BMP,Door4,0.294444444,-0.022222222,1,0,0,0.5973,optionRight,60,8330,4,22,0,22,0,1,,,,,,,,,,,,,,,,,,,,,,,,,,,,,,,,,,,,,,,
,,,,,,,,2023-08-16_08h38.02.021,HF_wild_card,2022.2.4,Win32,59.79788315,613b26e292cabf1dbe46791f,64d2fd46c836a06233681665,64dc7cc9792e1824bf53d2ba,,,,,,,decisionTrl,resources/DBN.BMP,resources/DY.BMP,Door1,0.239814815,-0.008333333,1,0,0,0.6967,optionRight,30,8360,4,23,0,23,0,1,,,,,,,,,,,,,,,,,,,,,,,,,,,,,,,,,,,,,,,
,,,,,,,,2023-08-16_08h38.02.021,HF_wild_card,2022.2.4,Win32,59.79788315,613b26e292cabf1dbe46791f,64d2fd46c836a06233681665,64dc7cc9792e1824bf53d2ba,,,,,,,decisionTrl,resources/DB.BMP,resources/DR.BMP,Door4,0.234259259,-0.035185185,1,0,0,0.6634,optionRight,60,8420,4,24,0,24,0,1,,,,,,,,,,,,,,,,,,,,,,,,,,,,,,,,,,,,,,,
,,,,,,,,2023-08-16_08h38.02.021,HF_wild_card,2022.2.4,Win32,59.79788315,613b26e292cabf1dbe46791f,64d2fd46c836a06233681665,64dc7cc9792e1824bf53d2ba,,,,,,,decisionTrl,resources/DG.BMP,resources/DB.BMP,WildCard_Ex,-0.348148148,0.008333333,1,0,0,1.5313,optionLeft,5,8425,4,25,0,25,0,1,,,,,,,,,,,,,,,,,,,,,,,,,,,,,,,,,,,,,,,
,,,,,,,,2023-08-16_08h38.02.021,HF_wild_card,2022.2.4,Win32,59.79788315,613b26e292cabf1dbe46791f,64d2fd46c836a06233681665,64dc7cc9792e1824bf53d2ba,,,,,,,ctch,resources/DB.BMP,resources/DBN.BMP,Door3,-0.198148148,-0.021296296,1,0,0,0.6138,optionLeft,70,8495,4,26,0,26,0,1,,,,,,,,,,,,,,,,,,,,,,,,,,,,,,,,,,,,,,,
,,,,,,,,2023-08-16_08h38.02.021,HF_wild_card,2022.2.4,Win32,59.79788315,613b26e292cabf1dbe46791f,64d2fd46c836a06233681665,64dc7cc9792e1824bf53d2ba,,,,,,,decisionTrl,resources/DG.BMP,resources/DBN.BMP,WildCard_Ex,-0.005555556,0.003703704,0,0,1,0.8468,optionLeft,5,8500,4,27,0,27,0,1,,,,,,,,,,,,,,,,,,,,,,,,,,,,,,,,,,,,,,,
,,,,,,,,2023-08-16_08h38.02.021,HF_wild_card,2022.2.4,Win32,59.79788315,613b26e292cabf1dbe46791f,64d2fd46c836a06233681665,64dc7cc9792e1824bf53d2ba,,,,,,,decisionTrl,resources/DR.BMP,resources/DB.BMP,Door4,-0.262962963,-0.036111111,1,0,0,0.813,optionLeft,80,8580,4,28,0,28,0,1,,,,,,,,,,,,,,,,,,,,,,,,,,,,,,,,,,,,,,,
,,,,,,,,2023-08-16_08h38.02.021,HF_wild_card,2022.2.4,Win32,59.79788315,613b26e292cabf1dbe46791f,64d2fd46c836a06233681665,64dc7cc9792e1824bf53d2ba,,,,,,,sngl,resources/DB.BMP,resources/Empty.png,Door3,-0.20462963,-0.024074074,1,0,0,0.7459,optionLeft,70,8650,4,29,0,29,0,1,,,,,,,,,,,,,,,,,,,,,,,,,,,,,,,,,,,,,,,
,,,,,,,,2023-08-16_08h38.02.021,HF_wild_card,2022.2.4,Win32,59.79788315,613b26e292cabf1dbe46791f,64d2fd46c836a06233681665,64dc7cc9792e1824bf53d2ba,,,,,,,decisionTrl,resources/DY.BMP,resources/DBN.BMP,Door1,-0.207407407,-0.013888889,1,0,0,1.4138,optionLeft,30,8680,4,30,0,30,0,1,,,,,,,,,,,,,,,,,,,,,,,,,,,,,,,,,,,,,,,
,,,,,,,,2023-08-16_08h38.02.021,HF_wild_card,2022.2.4,Win32,59.79788315,613b26e292cabf1dbe46791f,64d2fd46c836a06233681665,64dc7cc9792e1824bf53d2ba,,,,,,,ctch,resources/DBN.BMP,resources/DB.BMP,Door3,0.286111111,0.00462963,1,0,0,0.6473,optionRight,70,8750,4,31,0,31,0,1,,,,,,,,,,,,,,,,,,,,,,,,,,,,,,,,,,,,,,,
,,,,,,,,2023-08-16_08h38.02.021,HF_wild_card,2022.2.4,Win32,59.79788315,613b26e292cabf1dbe46791f,64d2fd46c836a06233681665,64dc7cc9792e1824bf53d2ba,,,,,,,decisionTrl,resources/DB.BMP,resources/DR.BMP,Door4,0.342592593,-0.005555556,1,0,0,0.8296,optionRight,60,8810,4,32,0,32,0,1,,,,,,,,,,,,,,,,,,,,,,,,,,,,,,,,,,,,,,,
,,,,,,,,2023-08-16_08h38.02.021,HF_wild_card,2022.2.4,Win32,59.79788315,613b26e292cabf1dbe46791f,64d2fd46c836a06233681665,64dc7cc9792e1824bf53d2ba,,,,,,,decisionTrl,resources/DR.BMP,resources/DB.BMP,Door4,-0.780555556,0.014814815,1,0,0,0.8292,optionLeft,60,8870,4,33,0,33,0,1,,,,,,,,,,,,,,,,,,,,,,,,,,,,,,,,,,,,,,,
,,,,,,,,2023-08-16_08h38.02.021,HF_wild_card,2022.2.4,Win32,59.79788315,613b26e292cabf1dbe46791f,64d2fd46c836a06233681665,64dc7cc9792e1824bf53d2ba,,,,,,,sngl,resources/DG.BMP,resources/Empty.png,WildCard_Ex,-0.215740741,0.014814815,1,0,0,0.5124,optionLeft,95,8965,4,34,0,34,0,1,,,,,,,,,,,,,,,,,,,,,,,,,,,,,,,,,,,,,,,
,,,,,,,,2023-08-16_08h38.02.021,HF_wild_card,2022.2.4,Win32,59.79788315,613b26e292cabf1dbe46791f,64d2fd46c836a06233681665,64dc7cc9792e1824bf53d2ba,,,,,,,decisionTrl,resources/DY.BMP,resources/DBN.BMP,Door1,-0.237037037,-0.02037037,1,0,0,0.6462,optionLeft,30,8995,4,35,0,35,0,1,,,,,,,,,,,,,,,,,,,,,,,,,,,,,,,,,,,,,,,
,,,,,,,,2023-08-16_08h38.02.021,HF_wild_card,2022.2.4,Win32,59.79788315,613b26e292cabf1dbe46791f,64d2fd46c836a06233681665,64dc7cc9792e1824bf53d2ba,,,,,,,decisionTrl,resources/DY.BMP,resources/DBN.BMP,Door1,-0.130555556,-0.007407407,1,0,0,0.5801,optionLeft,30,9025,4,36,0,36,0,1,,,,,,,,,,,,,,,,,,,,,,,,,,,,,,,,,,,,,,,
,,,,,,,,2023-08-16_08h38.02.021,HF_wild_card,2022.2.4,Win32,59.79788315,613b26e292cabf1dbe46791f,64d2fd46c836a06233681665,64dc7cc9792e1824bf53d2ba,,,,,,,ctch,resources/DBN.BMP,resources/DB.BMP,Door3,0.307407407,-0.080555556,1,0,0,0.6472,optionRight,70,9095,4,37,0,37,0,1,,,,,,,,,,,,,,,,,,,,,,,,,,,,,,,,,,,,,,,
,,,,,,,,2023-08-16_08h38.02.021,HF_wild_card,2022.2.4,Win32,59.79788315,613b26e292cabf1dbe46791f,64d2fd46c836a06233681665,64dc7cc9792e1824bf53d2ba,,,,,,,sngl,resources/Empty.png,resources/DG.BMP,WildCard_Ex,0.219444444,0.003703704,1,0,0,0.5131,optionRight,5,9100,4,38,0,38,0,1,,,,,,,,,,,,,,,,,,,,,,,,,,,,,,,,,,,,,,,
,,,,,,,,2023-08-16_08h38.02.021,HF_wild_card,2022.2.4,Win32,59.79788315,613b26e292cabf1dbe46791f,64d2fd46c836a06233681665,64dc7cc9792e1824bf53d2ba,,,,,,,decisionTrl,resources/DBN.BMP,resources/DY.BMP,Door1,0.317592593,0,1,0,0,0.58,optionRight,30,9130,4,39,0,39,0,1,,,,,,,,,,,,,,,,,,,,,,,,,,,,,,,,,,,,,,,
,,,,,,,,2023-08-16_08h38.02.021,HF_wild_card,2022.2.4,Win32,59.79788315,613b26e292cabf1dbe46791f,64d2fd46c836a06233681665,64dc7cc9792e1824bf53d2ba,,,,,,,decisionTrl,resources/DB.BMP,resources/DR.BMP,Door4,0.196296296,-0.02962963,1,0,0,0.5468,optionRight,60,9190,4,40,0,40,0,1,,,,,,,,,,,,,,,,,,,,,,,,,,,,,,,,,,,,,,,
,,,,,,,,2023-08-16_08h38.02.021,HF_wild_card,2022.2.4,Win32,59.79788315,613b26e292cabf1dbe46791f,64d2fd46c836a06233681665,64dc7cc9792e1824bf53d2ba,,,,,,,decisionTrl,resources/DBN.BMP,resources/DG.BMP,WildCard_Ex,0.248148148,-0.047222222,1,0,0,0.7806,optionRight,95,9285,4,41,0,41,0,1,,,,,,,,,,,,,,,,,,,,,,,,,,,,,,,,,,,,,,,
,,,,,,,,2023-08-16_08h38.02.021,HF_wild_card,2022.2.4,Win32,59.79788315,613b26e292cabf1dbe46791f,64d2fd46c836a06233681665,64dc7cc9792e1824bf53d2ba,,,,,,,sngl,resources/Empty.png,resources/DBN.BMP,Door2,0.263888889,-0.039814815,1,0,0,0.5468,optionRight,40,9325,4,42,0,42,0,1,,,,,,,,,,,,,,,,,,,,,,,,,,,,,,,,,,,,,,,
,,,,,,,,2023-08-16_08h38.02.021,HF_wild_card,2022.2.4,Win32,59.79788315,613b26e292cabf1dbe46791f,64d2fd46c836a06233681665,64dc7cc9792e1824bf53d2ba,,,,,,,sngl,resources/Empty.png,resources/DR.BMP,Door4,0.287962963,-0.065740741,1,0,0,0.4793,optionRight,80,9405,4,43,0,43,0,1,,,,,,,,,,,,,,,,,,,,,,,,,,,,,,,,,,,,,,,
,,,,,,,,2023-08-16_08h38.02.021,HF_wild_card,2022.2.4,Win32,59.79788315,613b26e292cabf1dbe46791f,64d2fd46c836a06233681665,64dc7cc9792e1824bf53d2ba,,,,,,,,,,,,,,,,,,,,,,,,,,3,0,3,0,1,,,,,,,,,,,,,,,,,,,,,,,,,,,,,,,,,,
,,,,,,,,2023-08-16_08h38.02.021,HF_wild_card,2022.2.4,Win32,59.79788315,613b26e292cabf1dbe46791f,64d2fd46c836a06233681665,64dc7cc9792e1824bf53d2ba,,,,,,,decisionTrl,resources/DB.BMP,resources/DR.BMP,Door4,0.230555556,-0.187962963,1,0,0,0.5619,optionRight,60,9465,5,0,0,0,0,1,,,,,,,,,,,,,,,,,,,,,,,,,,,,,,,,,,,,,,,
,,,,,,,,2023-08-16_08h38.02.021,HF_wild_card,2022.2.4,Win32,59.79788315,613b26e292cabf1dbe46791f,64d2fd46c836a06233681665,64dc7cc9792e1824bf53d2ba,,,,,,,sngl,resources/DY.BMP,resources/Empty.png,Door1,-0.193518519,-0.078703704,1,0,0,0.5136,optionLeft,30,9495,5,1,0,1,0,1,,,,,,,,,,,,,,,,,,,,,,,,,,,,,,,,,,,,,,,
,,,,,,,,2023-08-16_08h38.02.021,HF_wild_card,2022.2.4,Win32,59.79788315,613b26e292cabf1dbe46791f,64d2fd46c836a06233681665,64dc7cc9792e1824bf53d2ba,,,,,,,decisionTrl,resources/DBN.BMP,resources/DY.BMP,Door1,0.142592593,-0.048148148,1,0,0,0.5793,optionRight,30,9525,5,2,0,2,0,1,,,,,,,,,,,,,,,,,,,,,,,,,,,,,,,,,,,,,,,
,,,,,,,,2023-08-16_08h38.02.021,HF_wild_card,2022.2.4,Win32,59.79788315,613b26e292cabf1dbe46791f,64d2fd46c836a06233681665,64dc7cc9792e1824bf53d2ba,,,,,,,sngl,resources/Empty.png,resources/DG.BMP,WildCard_Ex,0.182407407,0.007407407,1,0,0,0.4972,optionRight,95,9620,5,3,0,3,0,1,,,,,,,,,,,,,,,,,,,,,,,,,,,,,,,,,,,,,,,
,,,,,,,,2023-08-16_08h38.02.021,HF_wild_card,2022.2.4,Win32,59.79788315,613b26e292cabf1dbe46791f,64d2fd46c836a06233681665,64dc7cc9792e1824bf53d2ba,,,,,,,sngl,resources/Empty.png,resources/DB.BMP,Door3,0.210185185,-0.02962963,1,0,0,0.5395,optionRight,70,9690,5,4,0,4,0,1,,,,,,,,,,,,,,,,,,,,,,,,,,,,,,,,,,,,,,,
,,,,,,,,2023-08-16_08h38.02.021,HF_wild_card,2022.2.4,Win32,59.79788315,613b26e292cabf1dbe46791f,64d2fd46c836a06233681665,64dc7cc9792e1824bf53d2ba,,,,,,,sngl,resources/DG.BMP,resources/Empty.png,WildCard_Ex,-0.419444444,-0.017592593,1,0,0,0.5993,optionLeft,5,9695,5,5,0,5,0,1,,,,,,,,,,,,,,,,,,,,,,,,,,,,,,,,,,,,,,,
,,,,,,,,2023-08-16_08h38.02.021,HF_wild_card,2022.2.4,Win32,59.79788315,613b26e292cabf1dbe46791f,64d2fd46c836a06233681665,64dc7cc9792e1824bf53d2ba,,,,,,,decisionTrl,resources/DB.BMP,resources/DR.BMP,Door4,0.312037037,-0.062962963,1,0,0,0.4802,optionRight,60,9755,5,6,0,6,0,1,,,,,,,,,,,,,,,,,,,,,,,,,,,,,,,,,,,,,,,
,,,,,,,,2023-08-16_08h38.02.021,HF_wild_card,2022.2.4,Win32,59.79788315,613b26e292cabf1dbe46791f,64d2fd46c836a06233681665,64dc7cc9792e1824bf53d2ba,,,,,,,ctch,resources/DY.BMP,resources/DR.BMP,Door4,0.239814815,0.00462963,1,0,0,0.5138,optionRight,80,9835,5,7,0,7,0,1,,,,,,,,,,,,,,,,,,,,,,,,,,,,,,,,,,,,,,,
,,,,,,,,2023-08-16_08h38.02.021,HF_wild_card,2022.2.4,Win32,59.79788315,613b26e292cabf1dbe46791f,64d2fd46c836a06233681665,64dc7cc9792e1824bf53d2ba,,,,,,,decisionTrl,resources/DR.BMP,resources/DB.BMP,Door4,-0.287037037,-0.026851852,1,0,0,0.747,optionLeft,60,9895,5,8,0,8,0,1,,,,,,,,,,,,,,,,,,,,,,,,,,,,,,,,,,,,,,,
,,,,,,,,2023-08-16_08h38.02.021,HF_wild_card,2022.2.4,Win32,59.79788315,613b26e292cabf1dbe46791f,64d2fd46c836a06233681665,64dc7cc9792e1824bf53d2ba,,,,,,,ctch,resources/DBN.BMP,resources/DB.BMP,Door3,0.207407407,-0.009259259,1,0,0,0.5815,optionRight,70,9965,5,9,0,9,0,1,,,,,,,,,,,,,,,,,,,,,,,,,,,,,,,,,,,,,,,
,,,,,,,,2023-08-16_08h38.02.021,HF_wild_card,2022.2.4,Win32,59.79788315,613b26e292cabf1dbe46791f,64d2fd46c836a06233681665,64dc7cc9792e1824bf53d2ba,,,,,,,ctch,resources/DBN.BMP,resources/DB.BMP,Door3,0.168518519,-0.035185185,1,0,0,0.631,optionRight,70,10035,5,10,0,10,0,1,,,,,,,,,,,,,,,,,,,,,,,,,,,,,,,,,,,,,,,
,,,,,,,,2023-08-16_08h38.02.021,HF_wild_card,2022.2.4,Win32,59.79788315,613b26e292cabf1dbe46791f,64d2fd46c836a06233681665,64dc7cc9792e1824bf53d2ba,,,,,,,decisionTrl,resources/DY.BMP,resources/DBN.BMP,Door1,-0.276851852,-0.033333333,1,0,0,0.6137,optionLeft,30,10065,5,11,0,11,0,1,,,,,,,,,,,,,,,,,,,,,,,,,,,,,,,,,,,,,,,
,,,,,,,,2023-08-16_08h38.02.021,HF_wild_card,2022.2.4,Win32,59.79788315,613b26e292cabf1dbe46791f,64d2fd46c836a06233681665,64dc7cc9792e1824bf53d2ba,,,,,,,sngl,resources/Empty.png,resources/DBN.BMP,Door2,0.236111111,-0.00462963,1,0,0,0.6642,optionRight,20,10085,5,12,0,12,0,1,,,,,,,,,,,,,,,,,,,,,,,,,,,,,,,,,,,,,,,
,,,,,,,,2023-08-16_08h38.02.021,HF_wild_card,2022.2.4,Win32,59.79788315,613b26e292cabf1dbe46791f,64d2fd46c836a06233681665,64dc7cc9792e1824bf53d2ba,,,,,,,ctch,resources/DR.BMP,resources/DY.BMP,Door4,-0.214814815,-0.021296296,1,0,0,0.5465,optionLeft,60,10145,5,13,0,13,0,1,,,,,,,,,,,,,,,,,,,,,,,,,,,,,,,,,,,,,,,
,,,,,,,,2023-08-16_08h38.02.021,HF_wild_card,2022.2.4,Win32,59.79788315,613b26e292cabf1dbe46791f,64d2fd46c836a06233681665,64dc7cc9792e1824bf53d2ba,,,,,,,decisionTrl,resources/DG.BMP,resources/DR.BMP,Door4,0.172222222,-0.00462963,1,0,0,0.8805,optionRight,60,10205,5,14,0,14,0,1,,,,,,,,,,,,,,,,,,,,,,,,,,,,,,,,,,,,,,,
,,,,,,,,2023-08-16_08h38.02.021,HF_wild_card,2022.2.4,Win32,59.79788315,613b26e292cabf1dbe46791f,64d2fd46c836a06233681665,64dc7cc9792e1824bf53d2ba,,,,,,,decisionTrl,resources/DR.BMP,resources/DB.BMP,Door4,-0.348148148,-0.056481481,1,0,0,0.5822,optionLeft,80,10285,5,15,0,15,0,1,,,,,,,,,,,,,,,,,,,,,,,,,,,,,,,,,,,,,,,
,,,,,,,,2023-08-16_08h38.02.021,HF_wild_card,2022.2.4,Win32,59.79788315,613b26e292cabf1dbe46791f,64d2fd46c836a06233681665,64dc7cc9792e1824bf53d2ba,,,,,,,sngl,resources/DR.BMP,resources/Empty.png,Door4,-0.305555556,-0.033333333,1,0,0,0.4915,optionLeft,80,10365,5,16,0,16,0,1,,,,,,,,,,,,,,,,,,,,,,,,,,,,,,,,,,,,,,,
,,,,,,,,2023-08-16_08h38.02.021,HF_wild_card,2022.2.4,Win32,59.79788315,613b26e292cabf1dbe46791f,64d2fd46c836a06233681665,64dc7cc9792e1824bf53d2ba,,,,,,,decisionTrl,resources/DBN.BMP,resources/DY.BMP,Door1,0.194444444,-0.013888889,1,0,0,0.5809,optionRight,30,10395,5,17,0,17,0,1,,,,,,,,,,,,,,,,,,,,,,,,,,,,,,,,,,,,,,,
,,,,,,,,2023-08-16_08h38.02.021,HF_wild_card,2022.2.4,Win32,59.79788315,613b26e292cabf1dbe46791f,64d2fd46c836a06233681665,64dc7cc9792e1824bf53d2ba,,,,,,,decisionTrl,resources/DR.BMP,resources/DB.BMP,Door4,-0.164814815,-0.025,1,0,0,0.4759,optionLeft,60,10455,5,18,0,18,0,1,,,,,,,,,,,,,,,,,,,,,,,,,,,,,,,,,,,,,,,
,,,,,,,,2023-08-16_08h38.02.021,HF_wild_card,2022.2.4,Win32,59.79788315,613b26e292cabf1dbe46791f,64d2fd46c836a06233681665,64dc7cc9792e1824bf53d2ba,,,,,,,sngl,resources/Empty.png,resources/DG.BMP,WildCard_Ex,0.148148148,0.006481481,1,0,0,0.6639,optionRight,5,10460,5,19,0,19,0,1,,,,,,,,,,,,,,,,,,,,,,,,,,,,,,,,,,,,,,,
,,,,,,,,2023-08-16_08h38.02.021,HF_wild_card,2022.2.4,Win32,59.79788315,613b26e292cabf1dbe46791f,64d2fd46c836a06233681665,64dc7cc9792e1824bf53d2ba,,,,,,,decisionTrl,resources/DY.BMP,resources/DBN.BMP,Door1,-0.363888889,-0.031481481,1,0,0,0.528,optionLeft,30,10490,5,20,0,20,0,1,,,,,,,,,,,,,,,,,,,,,,,,,,,,,,,,,,,,,,,
,,,,,,,,2023-08-16_08h38.02.021,HF_wild_card,2022.2.4,Win32,59.79788315,613b26e292cabf1dbe46791f,64d2fd46c836a06233681665,64dc7cc9792e1824bf53d2ba,,,,,,,sngl,resources/Empty.png,resources/DY.BMP,Door1,0.146296296,-0.002777778,1,0,0,0.513,optionRight,30,10520,5,21,0,21,0,1,,,,,,,,,,,,,,,,,,,,,,,,,,,,,,,,,,,,,,,
,,,,,,,,2023-08-16_08h38.02.021,HF_wild_card,2022.2.4,Win32,59.79788315,613b26e292cabf1dbe46791f,64d2fd46c836a06233681665,64dc7cc9792e1824bf53d2ba,,,,,,,sngl,resources/Empty.png,resources/DR.BMP,Door4,0.221296296,0.005555556,1,0,0,0.5322,optionRight,60,10580,5,22,0,22,0,1,,,,,,,,,,,,,,,,,,,,,,,,,,,,,,,,,,,,,,,
,,,,,,,,2023-08-16_08h38.02.021,HF_wild_card,2022.2.4,Win32,59.79788315,613b26e292cabf1dbe46791f,64d2fd46c836a06233681665,64dc7cc9792e1824bf53d2ba,,,,,,,decisionTrl,resources/DG.BMP,resources/DY.BMP,WildCard_Ex,-0.246296296,-0.034259259,1,0,0,0.8141,optionLeft,5,10585,5,23,0,23,0,1,,,,,,,,,,,,,,,,,,,,,,,,,,,,,,,,,,,,,,,
,,,,,,,,2023-08-16_08h38.02.021,HF_wild_card,2022.2.4,Win32,59.79788315,613b26e292cabf1dbe46791f,64d2fd46c836a06233681665,64dc7cc9792e1824bf53d2ba,,,,,,,decisionTrl,resources/DY.BMP,resources/DBN.BMP,Door1,-0.219444444,-0.040740741,1,0,0,0.5811,optionLeft,30,10615,5,24,0,24,0,1,,,,,,,,,,,,,,,,,,,,,,,,,,,,,,,,,,,,,,,
,,,,,,,,2023-08-16_08h38.02.021,HF_wild_card,2022.2.4,Win32,59.79788315,613b26e292cabf1dbe46791f,64d2fd46c836a06233681665,64dc7cc9792e1824bf53d2ba,,,,,,,ctch,resources/DB.BMP,resources/DBN.BMP,Door3,-0.20462963,-0.030555556,1,0,0,0.5805,optionLeft,70,10685,5,25,0,25,0,1,,,,,,,,,,,,,,,,,,,,,,,,,,,,,,,,,,,,,,,
,,,,,,,,2023-08-16_08h38.02.021,HF_wild_card,2022.2.4,Win32,59.79788315,613b26e292cabf1dbe46791f,64d2fd46c836a06233681665,64dc7cc9792e1824bf53d2ba,,,,,,,decisionTrl,resources/DY.BMP,resources/DG.BMP,Door1,-0.371296296,-0.017592593,1,0,0,1.6734,optionLeft,30,10715,5,26,0,26,0,1,,,,,,,,,,,,,,,,,,,,,,,,,,,,,,,,,,,,,,,
,,,,,,,,2023-08-16_08h38.02.021,HF_wild_card,2022.2.4,Win32,59.79788315,613b26e292cabf1dbe46791f,64d2fd46c836a06233681665,64dc7cc9792e1824bf53d2ba,,,,,,,decisionTrl,resources/DBN.BMP,resources/DY.BMP,Door1,0.381481481,-0.050925926,1,0,0,0.6711,optionRight,30,10745,5,27,0,27,0,1,,,,,,,,,,,,,,,,,,,,,,,,,,,,,,,,,,,,,,,
,,,,,,,,2023-08-16_08h38.02.021,HF_wild_card,2022.2.4,Win32,59.79788315,613b26e292cabf1dbe46791f,64d2fd46c836a06233681665,64dc7cc9792e1824bf53d2ba,,,,,,,decisionTrl,resources/DBN.BMP,resources/DY.BMP,Door1,0.143518519,0.006481481,1,0,0,0.6443,optionRight,30,10775,5,28,0,28,0,1,,,,,,,,,,,,,,,,,,,,,,,,,,,,,,,,,,,,,,,
,,,,,,,,2023-08-16_08h38.02.021,HF_wild_card,2022.2.4,Win32,59.79788315,613b26e292cabf1dbe46791f,64d2fd46c836a06233681665,64dc7cc9792e1824bf53d2ba,,,,,,,decisionTrl,resources/DB.BMP,resources/DG.BMP,Door3,-0.313888889,-0.024074074,1,0,0,1.5302,optionLeft,70,10845,5,29,0,29,0,1,,,,,,,,,,,,,,,,,,,,,,,,,,,,,,,,,,,,,,,
,,,,,,,,2023-08-16_08h38.02.021,HF_wild_card,2022.2.4,Win32,59.79788315,613b26e292cabf1dbe46791f,64d2fd46c836a06233681665,64dc7cc9792e1824bf53d2ba,,,,,,,sngl,resources/DB.BMP,resources/Empty.png,Door3,-0.107407407,-0.00462963,1,0,0,0.5496,optionLeft,70,10915,5,30,0,30,0,1,,,,,,,,,,,,,,,,,,,,,,,,,,,,,,,,,,,,,,,
,,,,,,,,2023-08-16_08h38.02.021,HF_wild_card,2022.2.4,Win32,59.79788315,613b26e292cabf1dbe46791f,64d2fd46c836a06233681665,64dc7cc9792e1824bf53d2ba,,,,,,,decisionTrl,resources/DG.BMP,resources/DBN.BMP,WildCard_Ex,-0.15,0,1,0,0,0.8968,optionLeft,5,10920,5,31,0,31,0,1,,,,,,,,,,,,,,,,,,,,,,,,,,,,,,,,,,,,,,,
,,,,,,,,2023-08-16_08h38.02.021,HF_wild_card,2022.2.4,Win32,59.79788315,613b26e292cabf1dbe46791f,64d2fd46c836a06233681665,64dc7cc9792e1824bf53d2ba,,,,,,,decisionTrl,resources/DB.BMP,resources/DR.BMP,Door4,0.32962963,0.010185185,1,0,0,0.8134,optionRight,60,10980,5,32,0,32,0,1,,,,,,,,,,,,,,,,,,,,,,,,,,,,,,,,,,,,,,,
,,,,,,,,2023-08-16_08h38.02.021,HF_wild_card,2022.2.4,Win32,59.79788315,613b26e292cabf1dbe46791f,64d2fd46c836a06233681665,64dc7cc9792e1824bf53d2ba,,,,,,,decisionTrl,resources/DBN.BMP,resources/DG.BMP,WildCard_Ex,0.226851852,0.005555556,1,0,0,1.0808,optionRight,5,10985,5,33,0,33,0,1,,,,,,,,,,,,,,,,,,,,,,,,,,,,,,,,,,,,,,,
,,,,,,,,2023-08-16_08h38.02.021,HF_wild_card,2022.2.4,Win32,59.79788315,613b26e292cabf1dbe46791f,64d2fd46c836a06233681665,64dc7cc9792e1824bf53d2ba,,,,,,,sngl,resources/DBN.BMP,resources/Empty.png,Door2,-0.185185185,-0.012962963,1,0,0,0.646,optionLeft,40,11025,5,34,0,34,0,1,,,,,,,,,,,,,,,,,,,,,,,,,,,,,,,,,,,,,,,
,,,,,,,,2023-08-16_08h38.02.021,HF_wild_card,2022.2.4,Win32,59.79788315,613b26e292cabf1dbe46791f,64d2fd46c836a06233681665,64dc7cc9792e1824bf53d2ba,,,,,,,decisionTrl,resources/DR.BMP,resources/DB.BMP,Door4,-0.222222222,-0.032407407,1,0,0,0.7822,optionLeft,60,11085,5,35,0,35,0,1,,,,,,,,,,,,,,,,,,,,,,,,,,,,,,,,,,,,,,,
,,,,,,,,2023-08-16_08h38.02.021,HF_wild_card,2022.2.4,Win32,59.79788315,613b26e292cabf1dbe46791f,64d2fd46c836a06233681665,64dc7cc9792e1824bf53d2ba,,,,,,,sngl,resources/DG.BMP,resources/Empty.png,WildCard_Ex,-0.15,-0.016666667,1,0,0,0.5175,optionLeft,95,11180,5,36,0,36,0,1,,,,,,,,,,,,,,,,,,,,,,,,,,,,,,,,,,,,,,,
,,,,,,,,2023-08-16_08h38.02.021,HF_wild_card,2022.2.4,Win32,59.79788315,613b26e292cabf1dbe46791f,64d2fd46c836a06233681665,64dc7cc9792e1824bf53d2ba,,,,,,,ctch,resources/DB.BMP,resources/DBN.BMP,Door3,-0.14537037,-0.006481481,1,0,0,0.609,optionLeft,70,11250,5,37,0,37,0,1,,,,,,,,,,,,,,,,,,,,,,,,,,,,,,,,,,,,,,,
,,,,,,,,2023-08-16_08h38.02.021,HF_wild_card,2022.2.4,Win32,59.79788315,613b26e292cabf1dbe46791f,64d2fd46c836a06233681665,64dc7cc9792e1824bf53d2ba,,,,,,,ctch,resources/DY.BMP,resources/DR.BMP,Door4,0.27037037,-0.025925926,1,0,0,0.9836,optionRight,60,11310,5,38,0,38,0,1,,,,,,,,,,,,,,,,,,,,,,,,,,,,,,,,,,,,,,,
,,,,,,,,2023-08-16_08h38.02.021,HF_wild_card,2022.2.4,Win32,59.79788315,613b26e292cabf1dbe46791f,64d2fd46c836a06233681665,64dc7cc9792e1824bf53d2ba,,,,,,,decisionTrl,resources/DR.BMP,resources/DG.BMP,Door4,-0.576851852,-0.09537037,1,0,0,1.5972,optionLeft,60,11370,5,39,0,39,0,1,,,,,,,,,,,,,,,,,,,,,,,,,,,,,,,,,,,,,,,
,,,,,,,,2023-08-16_08h38.02.021,HF_wild_card,2022.2.4,Win32,59.79788315,613b26e292cabf1dbe46791f,64d2fd46c836a06233681665,64dc7cc9792e1824bf53d2ba,,,,,,,decisionTrl,resources/DG.BMP,resources/DB.BMP,WildCard_Ex,-0.227777778,-0.038888889,1,0,0,0.5802,optionLeft,95,11465,5,40,0,40,0,1,,,,,,,,,,,,,,,,,,,,,,,,,,,,,,,,,,,,,,,
,,,,,,,,2023-08-16_08h38.02.021,HF_wild_card,2022.2.4,Win32,59.79788315,613b26e292cabf1dbe46791f,64d2fd46c836a06233681665,64dc7cc9792e1824bf53d2ba,,,,,,,ctch,resources/DR.BMP,resources/DY.BMP,Door4,-0.309259259,-0.036111111,1,0,0,0.5298,optionLeft,60,11525,5,41,0,41,0,1,,,,,,,,,,,,,,,,,,,,,,,,,,,,,,,,,,,,,,,
,,,,,,,,2023-08-16_08h38.02.021,HF_wild_card,2022.2.4,Win32,59.79788315,613b26e292cabf1dbe46791f,64d2fd46c836a06233681665,64dc7cc9792e1824bf53d2ba,,,,,,,decisionTrl,resources/DY.BMP,resources/DBN.BMP,Door1,-0.132407407,-0.052777778,1,0,0,0.5793,optionLeft,30,11555,5,42,0,42,0,1,,,,,,,,,,,,,,,,,,,,,,,,,,,,,,,,,,,,,,,
,,,,,,,,2023-08-16_08h38.02.021,HF_wild_card,2022.2.4,Win32,59.79788315,613b26e292cabf1dbe46791f,64d2fd46c836a06233681665,64dc7cc9792e1824bf53d2ba,,,,,,,decisionTrl,resources/DB.BMP,resources/DR.BMP,Door4,0.180555556,0,1,0,0,0.8465,optionRight,60,11615,5,43,0,43,0,1,,,,,,,,,,,,,,,,,,,,,,,,,,,,,,,,,,,,,,,
,,,,,,,,2023-08-16_08h38.02.021,HF_wild_card,2022.2.4,Win32,59.79788315,613b26e292cabf1dbe46791f,64d2fd46c836a06233681665,64dc7cc9792e1824bf53d2ba,,,,,,,,,,,,,,,,,,,,,,,,,,4,0,4,0,1,,,,,,,,,,,,,,,,,,,,,,,,,,,,,,,,,,
,,,,,,,,2023-08-16_08h38.02.021,HF_wild_card,2022.2.4,Win32,59.79788315,613b26e292cabf1dbe46791f,64d2fd46c836a06233681665,64dc7cc9792e1824bf53d2ba,,,,,,,ctch,resources/DR.BMP,resources/DY.BMP,Door4,-0.101851852,-0.085185185,1,0,0,0.7214,optionLeft,80,11695,6,0,0,0,0,1,,,,,,,,,,,,,,,,,,,,,,,,,,,,,,,,,,,,,,,
,,,,,,,,2023-08-16_08h38.02.021,HF_wild_card,2022.2.4,Win32,59.79788315,613b26e292cabf1dbe46791f,64d2fd46c836a06233681665,64dc7cc9792e1824bf53d2ba,,,,,,,ctch,resources/DB.BMP,resources/DBN.BMP,Door3,-0.175925926,-0.063888889,1,0,0,0.532,optionLeft,70,11765,6,1,0,1,0,1,,,,,,,,,,,,,,,,,,,,,,,,,,,,,,,,,,,,,,,
,,,,,,,,2023-08-16_08h38.02.021,HF_wild_card,2022.2.4,Win32,59.79788315,613b26e292cabf1dbe46791f,64d2fd46c836a06233681665,64dc7cc9792e1824bf53d2ba,,,,,,,decisionTrl,resources/DB.BMP,resources/DG.BMP,Door3,-0.240740741,-0.001851852,1,0,0,0.4628,optionLeft,70,11835,6,2,0,2,0,1,,,,,,,,,,,,,,,,,,,,,,,,,,,,,,,,,,,,,,,
,,,,,,,,2023-08-16_08h38.02.021,HF_wild_card,2022.2.4,Win32,59.79788315,613b26e292cabf1dbe46791f,64d2fd46c836a06233681665,64dc7cc9792e1824bf53d2ba,,,,,,,ctch,resources/DY.BMP,resources/DR.BMP,Door4,0.323148148,-0.016666667,1,0,0,0.8639,optionRight,80,11915,6,3,0,3,0,1,,,,,,,,,,,,,,,,,,,,,,,,,,,,,,,,,,,,,,,
,,,,,,,,2023-08-16_08h38.02.021,HF_wild_card,2022.2.4,Win32,59.79788315,613b26e292cabf1dbe46791f,64d2fd46c836a06233681665,64dc7cc9792e1824bf53d2ba,,,,,,,decisionTrl,resources/DY.BMP,resources/DBN.BMP,Door1,-0.219444444,-0.010185185,1,0,0,0.5303,optionLeft,30,11945,6,4,0,4,0,1,,,,,,,,,,,,,,,,,,,,,,,,,,,,,,,,,,,,,,,
,,,,,,,,2023-08-16_08h38.02.021,HF_wild_card,2022.2.4,Win32,59.79788315,613b26e292cabf1dbe46791f,64d2fd46c836a06233681665,64dc7cc9792e1824bf53d2ba,,,,,,,decisionTrl,resources/DG.BMP,resources/DBN.BMP,WildCard_Ex,-0.177777778,-0.015740741,1,0,0,0.5309,optionLeft,95,12040,6,5,0,5,0,1,,,,,,,,,,,,,,,,,,,,,,,,,,,,,,,,,,,,,,,
,,,,,,,,2023-08-16_08h38.02.021,HF_wild_card,2022.2.4,Win32,59.79788315,613b26e292cabf1dbe46791f,64d2fd46c836a06233681665,64dc7cc9792e1824bf53d2ba,,,,,,,decisionTrl,resources/DBN.BMP,resources/DY.BMP,Door1,0.312962963,-0.02037037,1,0,0,0.6636,optionRight,30,12070,6,6,0,6,0,1,,,,,,,,,,,,,,,,,,,,,,,,,,,,,,,,,,,,,,,
,,,,,,,,2023-08-16_08h38.02.021,HF_wild_card,2022.2.4,Win32,59.79788315,613b26e292cabf1dbe46791f,64d2fd46c836a06233681665,64dc7cc9792e1824bf53d2ba,,,,,,,decisionTrl,resources/DY.BMP,resources/DBN.BMP,Door1,-0.275925926,-0.023148148,1,0,0,0.497,optionLeft,30,12100,6,7,0,7,0,1,,,,,,,,,,,,,,,,,,,,,,,,,,,,,,,,,,,,,,,
,,,,,,,,2023-08-16_08h38.02.021,HF_wild_card,2022.2.4,Win32,59.79788315,613b26e292cabf1dbe46791f,64d2fd46c836a06233681665,64dc7cc9792e1824bf53d2ba,,,,,,,sngl,resources/DG.BMP,resources/Empty.png,WildCard_Ex,-0.186111111,0.005555556,1,0,0,0.7638,optionLeft,95,12195,6,8,0,8,0,1,,,,,,,,,,,,,,,,,,,,,,,,,,,,,,,,,,,,,,,
,,,,,,,,2023-08-16_08h38.02.021,HF_wild_card,2022.2.4,Win32,59.79788315,613b26e292cabf1dbe46791f,64d2fd46c836a06233681665,64dc7cc9792e1824bf53d2ba,,,,,,,decisionTrl,resources/DBN.BMP,resources/DG.BMP,WildCard_Ex,0.352777778,-0.044444444,1,0,0,1.9059,optionRight,5,12200,6,9,0,9,0,1,,,,,,,,,,,,,,,,,,,,,,,,,,,,,,,,,,,,,,,
,,,,,,,,2023-08-16_08h38.02.021,HF_wild_card,2022.2.4,Win32,59.79788315,613b26e292cabf1dbe46791f,64d2fd46c836a06233681665,64dc7cc9792e1824bf53d2ba,,,,,,,decisionTrl,resources/DB.BMP,resources/DR.BMP,Door4,0.221296296,-0.013888889,1,0,0,0.7298,optionRight,80,12280,6,10,0,10,0,1,,,,,,,,,,,,,,,,,,,,,,,,,,,,,,,,,,,,,,,
,,,,,,,,2023-08-16_08h38.02.021,HF_wild_card,2022.2.4,Win32,59.79788315,613b26e292cabf1dbe46791f,64d2fd46c836a06233681665,64dc7cc9792e1824bf53d2ba,,,,,,,sngl,resources/Empty.png,resources/DG.BMP,WildCard_Ex,0.464814815,-0.062037037,1,0,0,0.4924,optionRight,95,12375,6,11,0,11,0,1,,,,,,,,,,,,,,,,,,,,,,,,,,,,,,,,,,,,,,,
,,,,,,,,2023-08-16_08h38.02.021,HF_wild_card,2022.2.4,Win32,59.79788315,613b26e292cabf1dbe46791f,64d2fd46c836a06233681665,64dc7cc9792e1824bf53d2ba,,,,,,,decisionTrl,resources/DR.BMP,resources/DB.BMP,Door3,0.201851852,-0.009259259,1,0,0,0.432,optionRight,70,12445,6,12,0,12,0,1,,,,,,,,,,,,,,,,,,,,,,,,,,,,,,,,,,,,,,,
,,,,,,,,2023-08-16_08h38.02.021,HF_wild_card,2022.2.4,Win32,59.79788315,613b26e292cabf1dbe46791f,64d2fd46c836a06233681665,64dc7cc9792e1824bf53d2ba,,,,,,,sngl,resources/Empty.png,resources/DR.BMP,Door4,0.178703704,-0.006481481,1,0,0,0.5306,optionRight,80,12525,6,13,0,13,0,1,,,,,,,,,,,,,,,,,,,,,,,,,,,,,,,,,,,,,,,
,,,,,,,,2023-08-16_08h38.02.021,HF_wild_card,2022.2.4,Win32,59.79788315,613b26e292cabf1dbe46791f,64d2fd46c836a06233681665,64dc7cc9792e1824bf53d2ba,,,,,,,decisionTrl,resources/DBN.BMP,resources/DY.BMP,Door1,0.106481481,-0.037962963,1,0,0,0.6307,optionRight,30,12555,6,14,0,14,0,1,,,,,,,,,,,,,,,,,,,,,,,,,,,,,,,,,,,,,,,
,,,,,,,,2023-08-16_08h38.02.021,HF_wild_card,2022.2.4,Win32,59.79788315,613b26e292cabf1dbe46791f,64d2fd46c836a06233681665,64dc7cc9792e1824bf53d2ba,,,,,,,sngl,resources/Empty.png,resources/DY.BMP,Door1,0.247222222,-0.017592593,1,0,0,0.5302,optionRight,30,12585,6,15,0,15,0,1,,,,,,,,,,,,,,,,,,,,,,,,,,,,,,,,,,,,,,,
,,,,,,,,2023-08-16_08h38.02.021,HF_wild_card,2022.2.4,Win32,59.79788315,613b26e292cabf1dbe46791f,64d2fd46c836a06233681665,64dc7cc9792e1824bf53d2ba,,,,,,,decisionTrl,resources/DR.BMP,resources/DG.BMP,Door4,-0.147222222,-0.075925926,1,0,0,0.9765,optionLeft,80,12665,6,16,0,16,0,1,,,,,,,,,,,,,,,,,,,,,,,,,,,,,,,,,,,,,,,
,,,,,,,,2023-08-16_08h38.02.021,HF_wild_card,2022.2.4,Win32,59.79788315,613b26e292cabf1dbe46791f,64d2fd46c836a06233681665,64dc7cc9792e1824bf53d2ba,,,,,,,sngl,resources/DG.BMP,resources/Empty.png,WildCard_Ex,-0.348148148,-0.032407407,1,0,0,0.5081,optionLeft,5,12670,6,17,0,17,0,1,,,,,,,,,,,,,,,,,,,,,,,,,,,,,,,,,,,,,,,
,,,,,,,,2023-08-16_08h38.02.021,HF_wild_card,2022.2.4,Win32,59.79788315,613b26e292cabf1dbe46791f,64d2fd46c836a06233681665,64dc7cc9792e1824bf53d2ba,,,,,,,ctch,resources/DBN.BMP,resources/DB.BMP,Door3,0.250925926,-0.001851852,1,0,0,0.6809,optionRight,70,12740,6,18,0,18,0,1,,,,,,,,,,,,,,,,,,,,,,,,,,,,,,,,,,,,,,,
,,,,,,,,2023-08-16_08h38.02.021,HF_wild_card,2022.2.4,Win32,59.79788315,613b26e292cabf1dbe46791f,64d2fd46c836a06233681665,64dc7cc9792e1824bf53d2ba,,,,,,,sngl,resources/DBN.BMP,resources/Empty.png,Door2,-0.189814815,-0.021296296,1,0,0,0.5336,optionLeft,20,12760,6,19,0,19,0,1,,,,,,,,,,,,,,,,,,,,,,,,,,,,,,,,,,,,,,,
,,,,,,,,2023-08-16_08h38.02.021,HF_wild_card,2022.2.4,Win32,59.79788315,613b26e292cabf1dbe46791f,64d2fd46c836a06233681665,64dc7cc9792e1824bf53d2ba,,,,,,,ctch,resources/DR.BMP,resources/DY.BMP,Door4,-0.222222222,-0.001851852,1,0,0,0.532,optionLeft,60,12820,6,20,0,20,0,1,,,,,,,,,,,,,,,,,,,,,,,,,,,,,,,,,,,,,,,
,,,,,,,,2023-08-16_08h38.02.021,HF_wild_card,2022.2.4,Win32,59.79788315,613b26e292cabf1dbe46791f,64d2fd46c836a06233681665,64dc7cc9792e1824bf53d2ba,,,,,,,ctch,resources/DB.BMP,resources/DBN.BMP,Door3,-0.208333333,-0.085185185,1,0,0,0.5039,optionLeft,70,12890,6,21,0,21,0,1,,,,,,,,,,,,,,,,,,,,,,,,,,,,,,,,,,,,,,,
,,,,,,,,2023-08-16_08h38.02.021,HF_wild_card,2022.2.4,Win32,59.79788315,613b26e292cabf1dbe46791f,64d2fd46c836a06233681665,64dc7cc9792e1824bf53d2ba,,,,,,,sngl,resources/DR.BMP,resources/Empty.png,Door4,-0.144444444,-0.033333333,1,0,0,0.4496,optionLeft,60,12950,6,22,0,22,0,1,,,,,,,,,,,,,,,,,,,,,,,,,,,,,,,,,,,,,,,
,,,,,,,,2023-08-16_08h38.02.021,HF_wild_card,2022.2.4,Win32,59.79788315,613b26e292cabf1dbe46791f,64d2fd46c836a06233681665,64dc7cc9792e1824bf53d2ba,,,,,,,decisionTrl,resources/DR.BMP,resources/DB.BMP,Door4,-0.17037037,-0.058333333,1,0,0,0.7325,optionLeft,60,13010,6,23,0,23,0,1,,,,,,,,,,,,,,,,,,,,,,,,,,,,,,,,,,,,,,,
,,,,,,,,2023-08-16_08h38.02.021,HF_wild_card,2022.2.4,Win32,59.79788315,613b26e292cabf1dbe46791f,64d2fd46c836a06233681665,64dc7cc9792e1824bf53d2ba,,,,,,,decisionTrl,resources/DB.BMP,resources/DR.BMP,Door4,0.630555556,0.049074074,1,0,0,1.0146,optionRight,60,13070,6,24,0,24,0,1,,,,,,,,,,,,,,,,,,,,,,,,,,,,,,,,,,,,,,,
,,,,,,,,2023-08-16_08h38.02.021,HF_wild_card,2022.2.4,Win32,59.79788315,613b26e292cabf1dbe46791f,64d2fd46c836a06233681665,64dc7cc9792e1824bf53d2ba,,,,,,,decisionTrl,resources/DG.BMP,resources/DR.BMP,Door4,0.269444444,-0.001851852,1,0,0,0.4971,optionRight,60,13130,6,25,0,25,0,1,,,,,,,,,,,,,,,,,,,,,,,,,,,,,,,,,,,,,,,
,,,,,,,,2023-08-16_08h38.02.021,HF_wild_card,2022.2.4,Win32,59.79788315,613b26e292cabf1dbe46791f,64d2fd46c836a06233681665,64dc7cc9792e1824bf53d2ba,,,,,,,ctch,resources/DBN.BMP,resources/DB.BMP,Door3,0.385185185,0.003703704,1,0,0,0.5475,optionRight,70,13200,6,26,0,26,0,1,,,,,,,,,,,,,,,,,,,,,,,,,,,,,,,,,,,,,,,
,,,,,,,,2023-08-16_08h38.02.021,HF_wild_card,2022.2.4,Win32,59.79788315,613b26e292cabf1dbe46791f,64d2fd46c836a06233681665,64dc7cc9792e1824bf53d2ba,,,,,,,sngl,resources/Empty.png,resources/DBN.BMP,Door2,0.321296296,-0.02037037,1,0,0,0.4967,optionRight,40,13240,6,27,0,27,0,1,,,,,,,,,,,,,,,,,,,,,,,,,,,,,,,,,,,,,,,
,,,,,,,,2023-08-16_08h38.02.021,HF_wild_card,2022.2.4,Win32,59.79788315,613b26e292cabf1dbe46791f,64d2fd46c836a06233681665,64dc7cc9792e1824bf53d2ba,,,,,,,decisionTrl,resources/DR.BMP,resources/DB.BMP,Door4,-0.271296296,-0.026851852,1,0,0,0.696,optionLeft,60,13300,6,28,0,28,0,1,,,,,,,,,,,,,,,,,,,,,,,,,,,,,,,,,,,,,,,
,,,,,,,,2023-08-16_08h38.02.021,HF_wild_card,2022.2.4,Win32,59.79788315,613b26e292cabf1dbe46791f,64d2fd46c836a06233681665,64dc7cc9792e1824bf53d2ba,,,,,,,decisionTrl,resources/DG.BMP,resources/DY.BMP,WildCard_Ex,-0.37962963,-0.053703704,1,0,0,1.3469,optionLeft,5,13305,6,29,0,29,0,1,,,,,,,,,,,,,,,,,,,,,,,,,,,,,,,,,,,,,,,
,,,,,,,,2023-08-16_08h38.02.021,HF_wild_card,2022.2.4,Win32,59.79788315,613b26e292cabf1dbe46791f,64d2fd46c836a06233681665,64dc7cc9792e1824bf53d2ba,,,,,,,decisionTrl,resources/DBN.BMP,resources/DY.BMP,Door1,0.336111111,0.02962963,1,0,0,0.549,optionRight,30,13335,6,30,0,30,0,1,,,,,,,,,,,,,,,,,,,,,,,,,,,,,,,,,,,,,,,
,,,,,,,,2023-08-16_08h38.02.021,HF_wild_card,2022.2.4,Win32,59.79788315,613b26e292cabf1dbe46791f,64d2fd46c836a06233681665,64dc7cc9792e1824bf53d2ba,,,,,,,decisionTrl,resources/DBN.BMP,resources/DY.BMP,Door1,0.553703704,-0.033333333,1,0,0,0.9198,optionRight,30,13365,6,31,0,31,0,1,,,,,,,,,,,,,,,,,,,,,,,,,,,,,,,,,,,,,,,
,,,,,,,,2023-08-16_08h38.02.021,HF_wild_card,2022.2.4,Win32,59.79788315,613b26e292cabf1dbe46791f,64d2fd46c836a06233681665,64dc7cc9792e1824bf53d2ba,,,,,,,decisionTrl,resources/DG.BMP,resources/DB.BMP,Door3,0.182407407,0.00462963,1,0,0,0.6976,optionRight,70,13435,6,32,0,32,0,1,,,,,,,,,,,,,,,,,,,,,,,,,,,,,,,,,,,,,,,
,,,,,,,,2023-08-16_08h38.02.021,HF_wild_card,2022.2.4,Win32,59.79788315,613b26e292cabf1dbe46791f,64d2fd46c836a06233681665,64dc7cc9792e1824bf53d2ba,,,,,,,ctch,resources/DY.BMP,resources/DR.BMP,Door4,0.35462963,0.039814815,1,0,0,0.5989,optionRight,80,13515,6,33,0,33,0,1,,,,,,,,,,,,,,,,,,,,,,,,,,,,,,,,,,,,,,,
,,,,,,,,2023-08-16_08h38.02.021,HF_wild_card,2022.2.4,Win32,59.79788315,613b26e292cabf1dbe46791f,64d2fd46c836a06233681665,64dc7cc9792e1824bf53d2ba,,,,,,,sngl,resources/Empty.png,resources/DG.BMP,WildCard_Ex,0.272222222,0,1,0,0,0.8141,optionRight,5,13520,6,34,0,34,0,1,,,,,,,,,,,,,,,,,,,,,,,,,,,,,,,,,,,,,,,
,,,,,,,,2023-08-16_08h38.02.021,HF_wild_card,2022.2.4,Win32,59.79788315,613b26e292cabf1dbe46791f,64d2fd46c836a06233681665,64dc7cc9792e1824bf53d2ba,,,,,,,sngl,resources/DY.BMP,resources/Empty.png,Door1,-0.19537037,-0.021296296,1,0,0,0.5638,optionLeft,30,13550,6,35,0,35,0,1,,,,,,,,,,,,,,,,,,,,,,,,,,,,,,,,,,,,,,,
,,,,,,,,2023-08-16_08h38.02.021,HF_wild_card,2022.2.4,Win32,59.79788315,613b26e292cabf1dbe46791f,64d2fd46c836a06233681665,64dc7cc9792e1824bf53d2ba,,,,,,,sngl,resources/Empty.png,resources/DB.BMP,Door3,0.288888889,-0.028703704,1,0,0,0.5131,optionRight,70,13620,6,36,0,36,0,1,,,,,,,,,,,,,,,,,,,,,,,,,,,,,,,,,,,,,,,
,,,,,,,,2023-08-16_08h38.02.021,HF_wild_card,2022.2.4,Win32,59.79788315,613b26e292cabf1dbe46791f,64d2fd46c836a06233681665,64dc7cc9792e1824bf53d2ba,,,,,,,decisionTrl,resources/DY.BMP,resources/DBN.BMP,Door1,-0.322222222,-0.024074074,1,0,0,1.1468,optionLeft,30,13650,6,37,0,37,0,1,,,,,,,,,,,,,,,,,,,,,,,,,,,,,,,,,,,,,,,
,,,,,,,,2023-08-16_08h38.02.021,HF_wild_card,2022.2.4,Win32,59.79788315,613b26e292cabf1dbe46791f,64d2fd46c836a06233681665,64dc7cc9792e1824bf53d2ba,,,,,,,decisionTrl,resources/DB.BMP,resources/DR.BMP,Door4,0.25,-0.049074074,1,0,0,0.5538,optionRight,60,13710,6,38,0,38,0,1,,,,,,,,,,,,,,,,,,,,,,,,,,,,,,,,,,,,,,,
,,,,,,,,2023-08-16_08h38.02.021,HF_wild_card,2022.2.4,Win32,59.79788315,613b26e292cabf1dbe46791f,64d2fd46c836a06233681665,64dc7cc9792e1824bf53d2ba,,,,,,,sngl,resources/DB.BMP,resources/Empty.png,Door3,-0.263888889,-0.024074074,1,0,0,0.5066,optionLeft,70,13780,6,39,0,39,0,1,,,,,,,,,,,,,,,,,,,,,,,,,,,,,,,,,,,,,,,
,,,,,,,,2023-08-16_08h38.02.021,HF_wild_card,2022.2.4,Win32,59.79788315,613b26e292cabf1dbe46791f,64d2fd46c836a06233681665,64dc7cc9792e1824bf53d2ba,,,,,,,decisionTrl,resources/DR.BMP,resources/DB.BMP,Door4,-0.225,-0.035185185,1,0,0,0.8738,optionLeft,60,13840,6,40,0,40,0,1,,,,,,,,,,,,,,,,,,,,,,,,,,,,,,,,,,,,,,,
,,,,,,,,2023-08-16_08h38.02.021,HF_wild_card,2022.2.4,Win32,59.79788315,613b26e292cabf1dbe46791f,64d2fd46c836a06233681665,64dc7cc9792e1824bf53d2ba,,,,,,,decisionTrl,resources/DY.BMP,resources/DBN.BMP,Door1,-0.346296296,-0.02962963,1,0,0,0.5374,optionLeft,30,13870,6,41,0,41,0,1,,,,,,,,,,,,,,,,,,,,,,,,,,,,,,,,,,,,,,,
,,,,,,,,2023-08-16_08h38.02.021,HF_wild_card,2022.2.4,Win32,59.79788315,613b26e292cabf1dbe46791f,64d2fd46c836a06233681665,64dc7cc9792e1824bf53d2ba,,,,,,,decisionTrl,resources/DB.BMP,resources/DR.BMP,Door4,0.251851852,-0.042592593,1,0,0,0.5533,optionRight,60,13930,6,42,0,42,0,1,,,,,,,,,,,,,,,,,,,,,,,,,,,,,,,,,,,,,,,
,,,,,,,,2023-08-16_08h38.02.021,HF_wild_card,2022.2.4,Win32,59.79788315,613b26e292cabf1dbe46791f,64d2fd46c836a06233681665,64dc7cc9792e1824bf53d2ba,,,,,,,decisionTrl,resources/DY.BMP,resources/DG.BMP,WildCard_Ex,0.275,0.041666667,1,0,0,1.5807,optionRight,5,13935,6,43,0,43,0,1,,,,,,,,,,,,,,,,,,,,,,,,,,,,,,,,,,,,,,,
,,,,,,,,2023-08-16_08h38.02.021,HF_wild_card,2022.2.4,Win32,59.79788315,613b26e292cabf1dbe46791f,64d2fd46c836a06233681665,64dc7cc9792e1824bf53d2ba,,,,,,,,,,,,,,,,,,,,,,,,,,5,0,5,0,1,,,,,,,,,,,,,,,,,,,,,,,,,,,,,,,,,,
,,,,,,,,2023-08-16_08h38.02.021,HF_wild_card,2022.2.4,Win32,59.79788315,613b26e292cabf1dbe46791f,64d2fd46c836a06233681665,64dc7cc9792e1824bf53d2ba,,,,,,,decisionTrl,resources/DB.BMP,resources/DR.BMP,Door3,-0.284259259,-0.108333333,1,0,0,1.6747,optionLeft,70,14005,7,0,0,0,0,1,,,,,,,,,,,,,,,,,,,,,,,,,,,,,,,,,,,,,,,
,,,,,,,,2023-08-16_08h38.02.021,HF_wild_card,2022.2.4,Win32,59.79788315,613b26e292cabf1dbe46791f,64d2fd46c836a06233681665,64dc7cc9792e1824bf53d2ba,,,,,,,ctch,resources/DR.BMP,resources/DY.BMP,Door4,-0.271296296,-0.05,1,0,0,0.6098,optionLeft,60,14065,7,1,0,1,0,1,,,,,,,,,,,,,,,,,,,,,,,,,,,,,,,,,,,,,,,
,,,,,,,,2023-08-16_08h38.02.021,HF_wild_card,2022.2.4,Win32,59.79788315,613b26e292cabf1dbe46791f,64d2fd46c836a06233681665,64dc7cc9792e1824bf53d2ba,,,,,,,ctch,resources/DY.BMP,resources/DR.BMP,Door4,0.337962963,-0.043518519,1,0,0,0.7987,optionRight,80,14145,7,2,0,2,0,1,,,,,,,,,,,,,,,,,,,,,,,,,,,,,,,,,,,,,,,
,,,,,,,,2023-08-16_08h38.02.021,HF_wild_card,2022.2.4,Win32,59.79788315,613b26e292cabf1dbe46791f,64d2fd46c836a06233681665,64dc7cc9792e1824bf53d2ba,,,,,,,decisionTrl,resources/DY.BMP,resources/DBN.BMP,Door1,-0.150925926,-0.026851852,1,0,0,0.5975,optionLeft,30,14175,7,3,0,3,0,1,,,,,,,,,,,,,,,,,,,,,,,,,,,,,,,,,,,,,,,
,,,,,,,,2023-08-16_08h38.02.021,HF_wild_card,2022.2.4,Win32,59.79788315,613b26e292cabf1dbe46791f,64d2fd46c836a06233681665,64dc7cc9792e1824bf53d2ba,,,,,,,decisionTrl,resources/DBN.BMP,resources/DY.BMP,Door1,0.290740741,-0.019444444,1,0,0,0.6317,optionRight,30,14205,7,4,0,4,0,1,,,,,,,,,,,,,,,,,,,,,,,,,,,,,,,,,,,,,,,
,,,,,,,,2023-08-16_08h38.02.021,HF_wild_card,2022.2.4,Win32,59.79788315,613b26e292cabf1dbe46791f,64d2fd46c836a06233681665,64dc7cc9792e1824bf53d2ba,,,,,,,ctch,resources/DBN.BMP,resources/DB.BMP,Door3,0.244444444,0.018518519,1,0,0,0.6317,optionRight,70,14275,7,5,0,5,0,1,,,,,,,,,,,,,,,,,,,,,,,,,,,,,,,,,,,,,,,
,,,,,,,,2023-08-16_08h38.02.021,HF_wild_card,2022.2.4,Win32,59.79788315,613b26e292cabf1dbe46791f,64d2fd46c836a06233681665,64dc7cc9792e1824bf53d2ba,,,,,,,ctch,resources/DBN.BMP,resources/DB.BMP,Door3,0.325,0.005555556,1,0,0,0.6158,optionRight,70,14345,7,6,0,6,0,1,,,,,,,,,,,,,,,,,,,,,,,,,,,,,,,,,,,,,,,
,,,,,,,,2023-08-16_08h38.02.021,HF_wild_card,2022.2.4,Win32,59.79788315,613b26e292cabf1dbe46791f,64d2fd46c836a06233681665,64dc7cc9792e1824bf53d2ba,,,,,,,ctch,resources/DY.BMP,resources/DR.BMP,Door4,0.269444444,-0.009259259,1,0,0,0.5657,optionRight,60,14405,7,7,0,7,0,1,,,,,,,,,,,,,,,,,,,,,,,,,,,,,,,,,,,,,,,
,,,,,,,,2023-08-16_08h38.02.021,HF_wild_card,2022.2.4,Win32,59.79788315,613b26e292cabf1dbe46791f,64d2fd46c836a06233681665,64dc7cc9792e1824bf53d2ba,,,,,,,ctch,resources/DR.BMP,resources/DY.BMP,Door4,-0.225925926,-0.024074074,1,0,0,0.5481,optionLeft,80,14485,7,8,0,8,0,1,,,,,,,,,,,,,,,,,,,,,,,,,,,,,,,,,,,,,,,
,,,,,,,,2023-08-16_08h38.02.021,HF_wild_card,2022.2.4,Win32,59.79788315,613b26e292cabf1dbe46791f,64d2fd46c836a06233681665,64dc7cc9792e1824bf53d2ba,,,,,,,decisionTrl,resources/DB.BMP,resources/DR.BMP,Door4,0.251851852,0.028703704,1,0,0,0.8324,optionRight,80,14565,7,9,0,9,0,1,,,,,,,,,,,,,,,,,,,,,,,,,,,,,,,,,,,,,,,
,,,,,,,,2023-08-16_08h38.02.021,HF_wild_card,2022.2.4,Win32,59.79788315,613b26e292cabf1dbe46791f,64d2fd46c836a06233681665,64dc7cc9792e1824bf53d2ba,,,,,,,decisionTrl,resources/DY.BMP,resources/DBN.BMP,Door1,-0.20462963,-0.042592593,1,0,0,0.5461,optionLeft,30,14595,7,10,0,10,0,1,,,,,,,,,,,,,,,,,,,,,,,,,,,,,,,,,,,,,,,
,,,,,,,,2023-08-16_08h38.02.021,HF_wild_card,2022.2.4,Win32,59.79788315,613b26e292cabf1dbe46791f,64d2fd46c836a06233681665,64dc7cc9792e1824bf53d2ba,,,,,,,decisionTrl,resources/DR.BMP,resources/DB.BMP,Door4,-0.181481481,-0.056481481,1,0,0,0.8486,optionLeft,60,14655,7,11,0,11,0,1,,,,,,,,,,,,,,,,,,,,,,,,,,,,,,,,,,,,,,,
,,,,,,,,2023-08-16_08h38.02.021,HF_wild_card,2022.2.4,Win32,59.79788315,613b26e292cabf1dbe46791f,64d2fd46c836a06233681665,64dc7cc9792e1824bf53d2ba,,,,,,,ctch,resources/DB.BMP,resources/DBN.BMP,Door3,-0.152777778,-0.035185185,1,0,0,0.5652,optionLeft,70,14725,7,12,0,12,0,1,,,,,,,,,,,,,,,,,,,,,,,,,,,,,,,,,,,,,,,
,,,,,,,,2023-08-16_08h38.02.021,HF_wild_card,2022.2.4,Win32,59.79788315,613b26e292cabf1dbe46791f,64d2fd46c836a06233681665,64dc7cc9792e1824bf53d2ba,,,,,,,decisionTrl,resources/DY.BMP,resources/DBN.BMP,Door1,-0.325,-0.037037037,1,0,0,0.7159,optionLeft,30,14755,7,13,0,13,0,1,,,,,,,,,,,,,,,,,,,,,,,,,,,,,,,,,,,,,,,
,,,,,,,,2023-08-16_08h38.02.021,HF_wild_card,2022.2.4,Win32,59.79788315,613b26e292cabf1dbe46791f,64d2fd46c836a06233681665,64dc7cc9792e1824bf53d2ba,,,,,,,ctch,resources/DB.BMP,resources/DBN.BMP,Door3,-0.196296296,-0.023148148,1,0,0,0.5308,optionLeft,70,14825,7,14,0,14,0,1,,,,,,,,,,,,,,,,,,,,,,,,,,,,,,,,,,,,,,,
,,,,,,,,2023-08-16_08h38.02.021,HF_wild_card,2022.2.4,Win32,59.79788315,613b26e292cabf1dbe46791f,64d2fd46c836a06233681665,64dc7cc9792e1824bf53d2ba,,,,,,,decisionTrl,resources/DBN.BMP,resources/DY.BMP,Door1,0.396296296,0.018518519,1,0,0,0.6327,optionRight,30,14855,7,15,0,15,0,1,,,,,,,,,,,,,,,,,,,,,,,,,,,,,,,,,,,,,,,
,,,,,,,,2023-08-16_08h38.02.021,HF_wild_card,2022.2.4,Win32,59.79788315,613b26e292cabf1dbe46791f,64d2fd46c836a06233681665,64dc7cc9792e1824bf53d2ba,,,,,,,decisionTrl,resources/DBN.BMP,resources/DY.BMP,Door1,0.40462963,0.006481481,1,0,0,0.5474,optionRight,30,14885,7,16,0,16,0,1,,,,,,,,,,,,,,,,,,,,,,,,,,,,,,,,,,,,,,,
,,,,,,,,2023-08-16_08h38.02.021,HF_wild_card,2022.2.4,Win32,59.79788315,613b26e292cabf1dbe46791f,64d2fd46c836a06233681665,64dc7cc9792e1824bf53d2ba,,,,,,,decisionTrl,resources/DY.BMP,resources/DBN.BMP,Door1,-0.172222222,-0.005555556,1,0,0,0.499,optionLeft,30,14915,7,17,0,17,0,1,,,,,,,,,,,,,,,,,,,,,,,,,,,,,,,,,,,,,,,
,,,,,,,,2023-08-16_08h38.02.021,HF_wild_card,2022.2.4,Win32,59.79788315,613b26e292cabf1dbe46791f,64d2fd46c836a06233681665,64dc7cc9792e1824bf53d2ba,,,,,,,ctch,resources/DY.BMP,resources/DR.BMP,Door4,0.234259259,-0.028703704,1,0,0,0.5383,optionRight,60,14975,7,18,0,18,0,1,,,,,,,,,,,,,,,,,,,,,,,,,,,,,,,,,,,,,,,
,,,,,,,,2023-08-16_08h38.02.021,HF_wild_card,2022.2.4,Win32,59.79788315,613b26e292cabf1dbe46791f,64d2fd46c836a06233681665,64dc7cc9792e1824bf53d2ba,,,,,,,ctch,resources/DR.BMP,resources/DY.BMP,Door4,-0.126851852,-0.000925926,1,0,0,0.4816,optionLeft,60,15035,7,19,0,19,0,1,,,,,,,,,,,,,,,,,,,,,,,,,,,,,,,,,,,,,,,
,,,,,,,,2023-08-16_08h38.02.021,HF_wild_card,2022.2.4,Win32,59.79788315,613b26e292cabf1dbe46791f,64d2fd46c836a06233681665,64dc7cc9792e1824bf53d2ba,,,,,,,decisionTrl,resources/DB.BMP,resources/DR.BMP,Door4,0.232407407,-0.011111111,1,0,0,0.5494,optionRight,80,15115,7,20,0,20,0,1,,,,,,,,,,,,,,,,,,,,,,,,,,,,,,,,,,,,,,,
,,,,,,,,2023-08-16_08h38.02.021,HF_wild_card,2022.2.4,Win32,59.79788315,613b26e292cabf1dbe46791f,64d2fd46c836a06233681665,64dc7cc9792e1824bf53d2ba,,,,,,,decisionTrl,resources/DB.BMP,resources/DR.BMP,Door4,0.212037037,-0.014814815,1,0,0,0.6493,optionRight,60,15175,7,21,0,21,0,1,,,,,,,,,,,,,,,,,,,,,,,,,,,,,,,,,,,,,,,
,,,,,,,,2023-08-16_08h38.02.021,HF_wild_card,2022.2.4,Win32,59.79788315,613b26e292cabf1dbe46791f,64d2fd46c836a06233681665,64dc7cc9792e1824bf53d2ba,,,,,,,decisionTrl,resources/DBN.BMP,resources/DY.BMP,Door1,0.278703704,0.007407407,1,0,0,0.7153,optionRight,30,15205,7,22,0,22,0,1,,,,,,,,,,,,,,,,,,,,,,,,,,,,,,,,,,,,,,,
,,,,,,,,2023-08-16_08h38.02.021,HF_wild_card,2022.2.4,Win32,59.79788315,613b26e292cabf1dbe46791f,64d2fd46c836a06233681665,64dc7cc9792e1824bf53d2ba,,,,,,,decisionTrl,resources/DR.BMP,resources/DB.BMP,Door4,-0.136111111,-0.041666667,1,0,0,0.4982,optionLeft,60,15265,7,23,0,23,0,1,,,,,,,,,,,,,,,,,,,,,,,,,,,,,,,,,,,,,,,
,,,,,,,,2023-08-16_08h38.02.021,HF_wild_card,2022.2.4,Win32,59.79788315,613b26e292cabf1dbe46791f,64d2fd46c836a06233681665,64dc7cc9792e1824bf53d2ba,,,,,,,ctch,resources/DB.BMP,resources/DBN.BMP,Door3,-0.190740741,-0.034259259,1,0,0,0.5154,optionLeft,70,15335,7,24,0,24,0,1,,,,,,,,,,,,,,,,,,,,,,,,,,,,,,,,,,,,,,,
,,,,,,,,2023-08-16_08h38.02.021,HF_wild_card,2022.2.4,Win32,59.79788315,613b26e292cabf1dbe46791f,64d2fd46c836a06233681665,64dc7cc9792e1824bf53d2ba,,,,,,,decisionTrl,resources/DR.BMP,resources/DB.BMP,Door4,-0.244444444,-0.064814815,1,0,0,0.5828,optionLeft,60,15395,7,25,0,25,0,1,,,,,,,,,,,,,,,,,,,,,,,,,,,,,,,,,,,,,,,
,,,,,,,,2023-08-16_08h38.02.021,HF_wild_card,2022.2.4,Win32,59.79788315,613b26e292cabf1dbe46791f,64d2fd46c836a06233681665,64dc7cc9792e1824bf53d2ba,,,,,,,ctch,resources/DBN.BMP,resources/DB.BMP,Door3,0.261111111,-0.002777778,1,0,0,0.6324,optionRight,70,15465,7,26,0,26,0,1,,,,,,,,,,,,,,,,,,,,,,,,,,,,,,,,,,,,,,,
,,,,,,,,2023-08-16_08h38.02.021,HF_wild_card,2022.2.4,Win32,59.79788315,613b26e292cabf1dbe46791f,64d2fd46c836a06233681665,64dc7cc9792e1824bf53d2ba,,,,,,,decisionTrl,resources/DR.BMP,resources/DB.BMP,Door4,-0.335185185,-0.078703704,1,0,0,0.9169,optionLeft,80,15545,7,27,0,27,0,1,,,,,,,,,,,,,,,,,,,,,,,,,,,,,,,,,,,,,,,
,,,,,,,,2023-08-16_08h38.02.021,HF_wild_card,2022.2.4,Win32,59.79788315,613b26e292cabf1dbe46791f,64d2fd46c836a06233681665,64dc7cc9792e1824bf53d2ba,,,,,,,decisionTrl,resources/DBN.BMP,resources/DY.BMP,Door1,0.287962963,-0.033333333,1,0,0,0.6153,optionRight,30,15575,7,28,0,28,0,1,,,,,,,,,,,,,,,,,,,,,,,,,,,,,,,,,,,,,,,
,,,,,,,,2023-08-16_08h38.02.021,HF_wild_card,2022.2.4,Win32,59.79788315,613b26e292cabf1dbe46791f,64d2fd46c836a06233681665,64dc7cc9792e1824bf53d2ba,,,,,,,decisionTrl,resources/DB.BMP,resources/DR.BMP,Door4,0.29537037,-0.055555556,1,0,0,1.532,optionRight,60,15635,7,29,0,29,0,1,,,,,,,,,,,,,,,,,,,,,,,,,,,,,,,,,,,,,,,
,,,,,,,,2023-08-16_08h38.02.021,HF_wild_card,2022.2.4,Win32,59.79788315,613b26e292cabf1dbe46791f,64d2fd46c836a06233681665,64dc7cc9792e1824bf53d2ba,,,,,,,decisionTrl,resources/DBN.BMP,resources/DY.BMP,Door1,0.326851852,0.000925926,1,0,0,0.6489,optionRight,30,15665,7,30,0,30,0,1,,,,,,,,,,,,,,,,,,,,,,,,,,,,,,,,,,,,,,,
,,,,,,,,2023-08-16_08h38.02.021,HF_wild_card,2022.2.4,Win32,59.79788315,613b26e292cabf1dbe46791f,64d2fd46c836a06233681665,64dc7cc9792e1824bf53d2ba,,,,,,,decisionTrl,resources/DB.BMP,resources/DR.BMP,Door3,-0.391666667,-0.078703704,1,0,0,3.8077,optionLeft,70,15735,7,31,0,31,0,1,,,,,,,,,,,,,,,,,,,,,,,,,,,,,,,,,,,,,,,
,,,,,,,,2023-08-16_08h38.02.021,HF_wild_card,2022.2.4,Win32,59.79788315,613b26e292cabf1dbe46791f,64d2fd46c836a06233681665,64dc7cc9792e1824bf53d2ba,,,,,,,decisionTrl,resources/DY.BMP,resources/DBN.BMP,Door1,-0.441666667,-0.137962963,1,0,0,0.532,optionLeft,30,15765,7,32,0,32,0,1,,,,,,,,,,,,,,,,,,,,,,,,,,,,,,,,,,,,,,,
,,,,,,,,2023-08-16_08h38.02.021,HF_wild_card,2022.2.4,Win32,59.79788315,613b26e292cabf1dbe46791f,64d2fd46c836a06233681665,64dc7cc9792e1824bf53d2ba,,,,,,,decisionTrl,resources/DR.BMP,resources/DB.BMP,Door4,-0.325,-0.072222222,1,0,0,0.5303,optionLeft,60,15825,7,33,0,33,0,1,,,,,,,,,,,,,,,,,,,,,,,,,,,,,,,,,,,,,,,
,,,,,,,,2023-08-16_08h38.02.021,HF_wild_card,2022.2.4,Win32,59.79788315,613b26e292cabf1dbe46791f,64d2fd46c836a06233681665,64dc7cc9792e1824bf53d2ba,,,,,,,decisionTrl,resources/DR.BMP,resources/DB.BMP,Door4,-0.214814815,-0.033333333,1,0,0,0.4479,optionLeft,60,15885,7,34,0,34,0,1,,,,,,,,,,,,,,,,,,,,,,,,,,,,,,,,,,,,,,,
,,,,,,,,2023-08-16_08h38.02.021,HF_wild_card,2022.2.4,Win32,59.79788315,613b26e292cabf1dbe46791f,64d2fd46c836a06233681665,64dc7cc9792e1824bf53d2ba,,,,,,,decisionTrl,resources/DY.BMP,resources/DBN.BMP,Door1,-0.194444444,-0.002777778,1,0,0,0.4818,optionLeft,30,15915,7,35,0,35,0,1,,,,,,,,,,,,,,,,,,,,,,,,,,,,,,,,,,,,,,,
,,,,,,,,2023-08-16_08h38.02.021,HF_wild_card,2022.2.4,Win32,59.79788315,613b26e292cabf1dbe46791f,64d2fd46c836a06233681665,64dc7cc9792e1824bf53d2ba,,,,,,,,,,,,,,,,,,,,,,,,,,6,0,6,0,1,,,,,,,,,,,,,,,,,,,,,,,,,,,,,,,,,,
,,,,,,,,2023-08-16_08h38.02.021,HF_wild_card,2022.2.4,Win32,59.79788315,613b26e292cabf1dbe46791f,64d2fd46c836a06233681665,64dc7cc9792e1824bf53d2ba,,,,,,,,,,,,,,,,,,,,,,,,,,,,,,,3,,,,,,,,,,,,,,,,,,,,,,,,,,,,,,,,,
,,,,,,,,2023-08-16_08h38.02.021,HF_wild_card,2022.2.4,Win32,59.79788315,613b26e292cabf1dbe46791f,64d2fd46c836a06233681665,64dc7cc9792e1824bf53d2ba,,,,,,,,,,,,,,,,,,,,,,,,,,,,,,,,,,,,,,,,,,,,,,,,,,,,,,,,,,,,,,,,
,,,,,,,,2023-08-16_08h38.02.021,HF_wild_card,2022.2.4,Win32,59.79788315,613b26e292cabf1dbe46791f,64d2fd46c836a06233681665,64dc7cc9792e1824bf53d2ba,,,,,,,,,,,,,,,,,,,,,,,,,,,,,,,,33,Door1,resources/DY.BMP,0,0,0,0,1,,,,,,,,,,,,,,,,,,,,,,,,,
,,,,,,,,2023-08-16_08h38.02.021,HF_wild_card,2022.2.4,Win32,59.79788315,613b26e292cabf1dbe46791f,64d2fd46c836a06233681665,64dc7cc9792e1824bf53d2ba,,,,,,,,,,,,,,,,,,,,,,,,,,,,,,,,25,WC_nonExtreme,resources/DP.BMP,1,0,1,0,1,,,,,,,,,,,,,,,,,,,,,,,,,
,,,,,,,,2023-08-16_08h38.02.021,HF_wild_card,2022.2.4,Win32,59.79788315,613b26e292cabf1dbe46791f,64d2fd46c836a06233681665,64dc7cc9792e1824bf53d2ba,,,,,,,,,,,,,,,,,,,,,,,,,,,,,,,,40,WC_extreme,resources/DG.BMP,2,0,2,0,1,,,,,,,,,,,,,,,,,,,,,,,,,
,,,,,,,,2023-08-16_08h38.02.021,HF_wild_card,2022.2.4,Win32,59.79788315,613b26e292cabf1dbe46791f,64d2fd46c836a06233681665,64dc7cc9792e1824bf53d2ba,,,,,,,,,,,,,,,,,,,,,,,,,,,,,,,,45,Door3,resources/DB.BMP,3,0,3,0,1,,,,,,,,,,,,,,,,,,,,,,,,,
,,,,,,,,2023-08-16_08h38.02.021,HF_wild_card,2022.2.4,Win32,59.79788315,613b26e292cabf1dbe46791f,64d2fd46c836a06233681665,64dc7cc9792e1824bf53d2ba,,,,,,,,,,,,,,,,,,,,,,,,,,,,,,,,60,Door4,resources/DR.BMP,4,0,4,0,1,,,,,,,,,,,,,,,,,,,,,,,,,
,,,,,,,,2023-08-16_08h38.02.021,HF_wild_card,2022.2.4,Win32,59.79788315,613b26e292cabf1dbe46791f,64d2fd46c836a06233681665,64dc7cc9792e1824bf53d2ba,,,,,,,,,,,,,,,,,,,,,,,,,,,,,,,,20,Door2,resources/DBN.BMP,5,0,5,0,1,,,,,,,,,,,,,,,,,,,,,,,,,
,,,,,,,,2023-08-16_08h38.02.021,HF_wild_card,2022.2.4,Win32,59.79788315,613b26e292cabf1dbe46791f,64d2fd46c836a06233681665,64dc7cc9792e1824bf53d2ba,,,,,,,,,,,,,,,,,,,,,,,,,,,,,,,,,,,,,,,,,,,,,,,,,,,,,,,,,,,,,,,,
