Condition,Low fixed image (Door1),Low risky image (Door2),High fixed image (Door3),High risky image (Door4),NonExtreme Wild Card 1,NonExtreme Wild Card 2,,date,expName,psychopyVersion,OS,frameRate,PROLIFIC_PID,STUDY_ID,SESSION_ID,mouse_2.x,mouse_2.y,mouse_2.leftButton,mouse_2.midButton,mouse_2.rightButton,mouse_2.clicked_name,Trial Type,Left Option Image,Right Option Image,Chosen Door,mouse.x,mouse.y,mouse.leftButton,mouse.midButton,mouse.rightButton,mouse.time,mouse.clicked_name,Feedback,Cumulative Reward,Block,trial.thisRepN,trial.thisTrialN,trial.thisN,trial.thisIndex,trial.ran,blocks.thisRepN,blocks.thisTrialN,blocks.thisN,blocks.thisIndex,blocks.ran,Money conversion,First Outcome Reported,Shown Door (First Outcome),Displayed Image (First Outcome),outcomes.thisRepN,outcomes.thisTrialN,outcomes.thisN,outcomes.thisIndex,outcomes.ran,judgments.thisRepN,judgments.thisTrialN,judgments.thisN,judgments.thisIndex,judgments.ran,freqMouse.x,freqMouse.y,freqMouse.leftButton,freqMouse.midButton,freqMouse.rightButton,freqMouse.clicked_name,FQJ for first outcome,FQJ for second outcome,Shown Door,Displayed Image,trials.thisRepN,trials.thisTrialN,trials.thisN,trials.thisIndex,trials.ran,judgBlock.thisRepN,judgBlock.thisTrialN,judgBlock.thisN,judgBlock.thisIndex,judgBlock.ran
2,resources/DB.BMP,resources/DY.BMP,resources/DG.BMP,resources/DP.BMP,resources/DBN.BMP,resources/DR.BMP,,2023-08-16_08h54.38.414,HF_wild_card,2022.2.4,Win32,59.84798612,5c77d0f62cfc0000160c1958,64d2fd46c836a06233681665,64dc7ef406164ce71a53d28c,,,,,,,,,,,,,,,,,,,,,,,,,,,,,,,,,,,,,,,,,,,,,,,,,,,,,,,,,,,,,,,,
,,,,,,,,2023-08-16_08h54.38.414,HF_wild_card,2022.2.4,Win32,59.84798612,5c77d0f62cfc0000160c1958,64d2fd46c836a06233681665,64dc7ef406164ce71a53d28c,0.002500025,-0.420833333,1,0,0,agree,,,,,,,,,,,,,,,,,,,,,,,,,,,,,,,,,,,,,,,,,,,,,,,,,,,,,,,,,,
,,,,,,,,2023-08-16_08h54.38.414,HF_wild_card,2022.2.4,Win32,59.84798612,5c77d0f62cfc0000160c1958,64d2fd46c836a06233681665,64dc7ef406164ce71a53d28c,,,,,,,,,,,,,,,,,,,,,,,,,,,,,,,,,,,,,,,,,,,,,,,,,,,,,,,,,,,,,,,,
,,,,,,,,2023-08-16_08h54.38.414,HF_wild_card,2022.2.4,Win32,59.84798612,5c77d0f62cfc0000160c1958,64d2fd46c836a06233681665,64dc7ef406164ce71a53d28c,,,,,,,decisionTrl,resources/DB.BMP,resources/DY.BMP,Door1,-0.294999981,-0.126666705,1,0,0,3.5322,optionLeft,30,30,1,0,0,0,0,1,,,,,,,,,,,,,,,,,,,,,,,,,,,,,,,,,,,,,,,
,,,,,,,,2023-08-16_08h54.38.414,HF_wild_card,2022.2.4,Win32,59.84798612,5c77d0f62cfc0000160c1958,64d2fd46c836a06233681665,64dc7ef406164ce71a53d28c,,,,,,,decisionTrl,resources/DR.BMP,resources/DG.BMP,Door3,0.355833308,-0.056666692,1,0,0,3.4783,optionRight,70,100,1,1,0,1,0,1,,,,,,,,,,,,,,,,,,,,,,,,,,,,,,,,,,,,,,,
,,,,,,,,2023-08-16_08h54.38.414,HF_wild_card,2022.2.4,Win32,59.84798612,5c77d0f62cfc0000160c1958,64d2fd46c836a06233681665,64dc7ef406164ce71a53d28c,,,,,,,ctch,resources/DG.BMP,resources/DY.BMP,Door2,0.334999975,-0.042499987,1,0,0,1.8665,optionRight,20,120,1,2,0,2,0,1,,,,,,,,,,,,,,,,,,,,,,,,,,,,,,,,,,,,,,,
,,,,,,,,2023-08-16_08h54.38.414,HF_wild_card,2022.2.4,Win32,59.84798612,5c77d0f62cfc0000160c1958,64d2fd46c836a06233681665,64dc7ef406164ce71a53d28c,,,,,,,ctch,resources/DP.BMP,resources/DB.BMP,Door1,0.383333333,-0.090833346,1,0,0,2.5811,optionRight,30,150,1,3,0,3,0,1,,,,,,,,,,,,,,,,,,,,,,,,,,,,,,,,,,,,,,,
,,,,,,,,2023-08-16_08h54.38.414,HF_wild_card,2022.2.4,Win32,59.84798612,5c77d0f62cfc0000160c1958,64d2fd46c836a06233681665,64dc7ef406164ce71a53d28c,,,,,,,sngl,resources/DP.BMP,resources/Empty.png,Door4,-0.2875,-0.101666705,1,0,0,1.2443,optionLeft,80,230,1,4,0,4,0,1,,,,,,,,,,,,,,,,,,,,,,,,,,,,,,,,,,,,,,,
,,,,,,,,2023-08-16_08h54.38.414,HF_wild_card,2022.2.4,Win32,59.84798612,5c77d0f62cfc0000160c1958,64d2fd46c836a06233681665,64dc7ef406164ce71a53d28c,,,,,,,sngl,resources/DY.BMP,resources/Empty.png,Door2,-0.204166667,-0.101666705,1,0,0,0.8803,optionLeft,40,270,1,5,0,5,0,1,,,,,,,,,,,,,,,,,,,,,,,,,,,,,,,,,,,,,,,
,,,,,,,,2023-08-16_08h54.38.414,HF_wild_card,2022.2.4,Win32,59.84798612,5c77d0f62cfc0000160c1958,64d2fd46c836a06233681665,64dc7ef406164ce71a53d28c,,,,,,,decisionTrl,resources/DY.BMP,resources/DB.BMP,Door2,-0.174166679,-0.085833359,1,0,0,1.316,optionLeft,40,310,1,6,0,6,0,1,,,,,,,,,,,,,,,,,,,,,,,,,,,,,,,,,,,,,,,
,,,,,,,,2023-08-16_08h54.38.414,HF_wild_card,2022.2.4,Win32,59.84798612,5c77d0f62cfc0000160c1958,64d2fd46c836a06233681665,64dc7ef406164ce71a53d28c,,,,,,,ctch,resources/DB.BMP,resources/DP.BMP,Door4,0.301666641,-0.065000025,1,0,0,1.3498,optionRight,60,370,1,7,0,7,0,1,,,,,,,,,,,,,,,,,,,,,,,,,,,,,,,,,,,,,,,
,,,,,,,,2023-08-16_08h54.38.414,HF_wild_card,2022.2.4,Win32,59.84798612,5c77d0f62cfc0000160c1958,64d2fd46c836a06233681665,64dc7ef406164ce71a53d28c,,,,,,,decisionTrl,resources/DB.BMP,resources/DY.BMP,Door2,0.3125,-0.099166679,1,0,0,1.1826,optionRight,40,410,1,8,0,8,0,1,,,,,,,,,,,,,,,,,,,,,,,,,,,,,,,,,,,,,,,
,,,,,,,,2023-08-16_08h54.38.414,HF_wild_card,2022.2.4,Win32,59.84798612,5c77d0f62cfc0000160c1958,64d2fd46c836a06233681665,64dc7ef406164ce71a53d28c,,,,,,,decisionTrl,resources/DY.BMP,resources/DR.BMP,Door2,-0.138333321,-0.077500025,1,0,0,1.6433,optionLeft,40,450,1,9,0,9,0,1,,,,,,,,,,,,,,,,,,,,,,,,,,,,,,,,,,,,,,,
,,,,,,,,2023-08-16_08h54.38.414,HF_wild_card,2022.2.4,Win32,59.84798612,5c77d0f62cfc0000160c1958,64d2fd46c836a06233681665,64dc7ef406164ce71a53d28c,,,,,,,sngl,resources/DR.BMP,resources/Empty.png,WildCard_NonEx,-0.207500013,-0.067499987,1,0,0,0.8157,optionLeft,45,495,1,10,0,10,0,1,,,,,,,,,,,,,,,,,,,,,,,,,,,,,,,,,,,,,,,
,,,,,,,,2023-08-16_08h54.38.414,HF_wild_card,2022.2.4,Win32,59.84798612,5c77d0f62cfc0000160c1958,64d2fd46c836a06233681665,64dc7ef406164ce71a53d28c,,,,,,,decisionTrl,resources/DP.BMP,resources/DG.BMP,Door4,-0.25,-0.086666679,1,0,0,1.1993,optionLeft,60,555,1,11,0,11,0,1,,,,,,,,,,,,,,,,,,,,,,,,,,,,,,,,,,,,,,,
,,,,,,,,2023-08-16_08h54.38.414,HF_wild_card,2022.2.4,Win32,59.84798612,5c77d0f62cfc0000160c1958,64d2fd46c836a06233681665,64dc7ef406164ce71a53d28c,,,,,,,decisionTrl,resources/DB.BMP,resources/DY.BMP,Door2,0.284166718,-0.051666705,1,0,0,1.7664,optionRight,40,595,1,12,0,12,0,1,,,,,,,,,,,,,,,,,,,,,,,,,,,,,,,,,,,,,,,
,,,,,,,,2023-08-16_08h54.38.414,HF_wild_card,2022.2.4,Win32,59.84798612,5c77d0f62cfc0000160c1958,64d2fd46c836a06233681665,64dc7ef406164ce71a53d28c,,,,,,,decisionTrl,resources/DY.BMP,resources/DB.BMP,Door1,0.341666667,-0.082500013,1,0,0,0.9326,optionRight,30,625,1,13,0,13,0,1,,,,,,,,,,,,,,,,,,,,,,,,,,,,,,,,,,,,,,,
,,,,,,,,2023-08-16_08h54.38.414,HF_wild_card,2022.2.4,Win32,59.84798612,5c77d0f62cfc0000160c1958,64d2fd46c836a06233681665,64dc7ef406164ce71a53d28c,,,,,,,sngl,resources/DR.BMP,resources/Empty.png,WildCard_NonEx,-0.257500013,-0.076666705,1,0,0,0.7822,optionLeft,55,680,1,14,0,14,0,1,,,,,,,,,,,,,,,,,,,,,,,,,,,,,,,,,,,,,,,
,,,,,,,,2023-08-16_08h54.38.414,HF_wild_card,2022.2.4,Win32,59.84798612,5c77d0f62cfc0000160c1958,64d2fd46c836a06233681665,64dc7ef406164ce71a53d28c,,,,,,,sngl,resources/DB.BMP,resources/Empty.png,Door1,-0.231666629,-0.085833359,1,0,0,0.7155,optionLeft,30,710,1,15,0,15,0,1,,,,,,,,,,,,,,,,,,,,,,,,,,,,,,,,,,,,,,,
,,,,,,,,2023-08-16_08h54.38.414,HF_wild_card,2022.2.4,Win32,59.84798612,5c77d0f62cfc0000160c1958,64d2fd46c836a06233681665,64dc7ef406164ce71a53d28c,,,,,,,decisionTrl,resources/DR.BMP,resources/DB.BMP,WildCard_NonEx,-0.2,-0.049166679,1,0,0,1.3831,optionLeft,55,765,1,16,0,16,0,1,,,,,,,,,,,,,,,,,,,,,,,,,,,,,,,,,,,,,,,
,,,,,,,,2023-08-16_08h54.38.414,HF_wild_card,2022.2.4,Win32,59.84798612,5c77d0f62cfc0000160c1958,64d2fd46c836a06233681665,64dc7ef406164ce71a53d28c,,,,,,,decisionTrl,resources/DP.BMP,resources/DG.BMP,Door4,-0.286666648,-0.078333346,1,0,0,0.9659,optionLeft,60,825,1,17,0,17,0,1,,,,,,,,,,,,,,,,,,,,,,,,,,,,,,,,,,,,,,,
,,,,,,,,2023-08-16_08h54.38.414,HF_wild_card,2022.2.4,Win32,59.84798612,5c77d0f62cfc0000160c1958,64d2fd46c836a06233681665,64dc7ef406164ce71a53d28c,,,,,,,sngl,resources/Empty.png,resources/DR.BMP,WildCard_NonEx,0.277500025,-0.004166667,1,0,0,0.8324,optionRight,45,870,1,18,0,18,0,1,,,,,,,,,,,,,,,,,,,,,,,,,,,,,,,,,,,,,,,
,,,,,,,,2023-08-16_08h54.38.414,HF_wild_card,2022.2.4,Win32,59.84798612,5c77d0f62cfc0000160c1958,64d2fd46c836a06233681665,64dc7ef406164ce71a53d28c,,,,,,,sngl,resources/Empty.png,resources/DG.BMP,Door3,0.256666692,-0.01833334,1,0,0,0.8658,optionRight,70,940,1,19,0,19,0,1,,,,,,,,,,,,,,,,,,,,,,,,,,,,,,,,,,,,,,,
,,,,,,,,2023-08-16_08h54.38.414,HF_wild_card,2022.2.4,Win32,59.84798612,5c77d0f62cfc0000160c1958,64d2fd46c836a06233681665,64dc7ef406164ce71a53d28c,,,,,,,ctch,resources/DB.BMP,resources/DP.BMP,Door4,0.290000025,-0.015833346,1,0,0,1.3159,optionRight,80,1020,1,20,0,20,0,1,,,,,,,,,,,,,,,,,,,,,,,,,,,,,,,,,,,,,,,
,,,,,,,,2023-08-16_08h54.38.414,HF_wild_card,2022.2.4,Win32,59.84798612,5c77d0f62cfc0000160c1958,64d2fd46c836a06233681665,64dc7ef406164ce71a53d28c,,,,,,,ctch,resources/DP.BMP,resources/DB.BMP,Door4,-0.220833333,-0.057500013,1,0,0,0.8157,optionLeft,60,1080,1,21,0,21,0,1,,,,,,,,,,,,,,,,,,,,,,,,,,,,,,,,,,,,,,,
,,,,,,,,2023-08-16_08h54.38.414,HF_wild_card,2022.2.4,Win32,59.84798612,5c77d0f62cfc0000160c1958,64d2fd46c836a06233681665,64dc7ef406164ce71a53d28c,,,,,,,decisionTrl,resources/DP.BMP,resources/DG.BMP,Door4,-0.194166629,-0.039166705,1,0,0,0.7997,optionLeft,80,1160,1,22,0,22,0,1,,,,,,,,,,,,,,,,,,,,,,,,,,,,,,,,,,,,,,,
,,,,,,,,2023-08-16_08h54.38.414,HF_wild_card,2022.2.4,Win32,59.84798612,5c77d0f62cfc0000160c1958,64d2fd46c836a06233681665,64dc7ef406164ce71a53d28c,,,,,,,decisionTrl,resources/DY.BMP,resources/DB.BMP,Door2,-0.189999962,-0.038333321,1,0,0,1.516,optionLeft,20,1180,1,23,0,23,0,1,,,,,,,,,,,,,,,,,,,,,,,,,,,,,,,,,,,,,,,
,,,,,,,,2023-08-16_08h54.38.414,HF_wild_card,2022.2.4,Win32,59.84798612,5c77d0f62cfc0000160c1958,64d2fd46c836a06233681665,64dc7ef406164ce71a53d28c,,,,,,,decisionTrl,resources/DY.BMP,resources/DB.BMP,Door1,0.454166667,-0.040833346,1,0,0,0.8326,optionRight,30,1210,1,24,0,24,0,1,,,,,,,,,,,,,,,,,,,,,,,,,,,,,,,,,,,,,,,
,,,,,,,,2023-08-16_08h54.38.414,HF_wild_card,2022.2.4,Win32,59.84798612,5c77d0f62cfc0000160c1958,64d2fd46c836a06233681665,64dc7ef406164ce71a53d28c,,,,,,,sngl,resources/Empty.png,resources/DP.BMP,Door4,0.395833333,-0.015833346,1,0,0,0.9494,optionRight,60,1270,1,25,0,25,0,1,,,,,,,,,,,,,,,,,,,,,,,,,,,,,,,,,,,,,,,
,,,,,,,,2023-08-16_08h54.38.414,HF_wild_card,2022.2.4,Win32,59.84798612,5c77d0f62cfc0000160c1958,64d2fd46c836a06233681665,64dc7ef406164ce71a53d28c,,,,,,,decisionTrl,resources/DB.BMP,resources/DR.BMP,Door1,-0.239999962,-0.059166654,1,0,0,0.8326,optionLeft,30,1300,1,26,0,26,0,1,,,,,,,,,,,,,,,,,,,,,,,,,,,,,,,,,,,,,,,
,,,,,,,,2023-08-16_08h54.38.414,HF_wild_card,2022.2.4,Win32,59.84798612,5c77d0f62cfc0000160c1958,64d2fd46c836a06233681665,64dc7ef406164ce71a53d28c,,,,,,,ctch,resources/DG.BMP,resources/DY.BMP,Door2,0.253333346,0,1,0,0,2.1333,optionRight,20,1320,1,27,0,27,0,1,,,,,,,,,,,,,,,,,,,,,,,,,,,,,,,,,,,,,,,
,,,,,,,,2023-08-16_08h54.38.414,HF_wild_card,2022.2.4,Win32,59.84798612,5c77d0f62cfc0000160c1958,64d2fd46c836a06233681665,64dc7ef406164ce71a53d28c,,,,,,,ctch,resources/DY.BMP,resources/DG.BMP,Door3,0.290000025,0.000833321,1,0,0,0.7988,optionRight,70,1390,1,28,0,28,0,1,,,,,,,,,,,,,,,,,,,,,,,,,,,,,,,,,,,,,,,
,,,,,,,,2023-08-16_08h54.38.414,HF_wild_card,2022.2.4,Win32,59.84798612,5c77d0f62cfc0000160c1958,64d2fd46c836a06233681665,64dc7ef406164ce71a53d28c,,,,,,,decisionTrl,resources/DG.BMP,resources/DP.BMP,Door3,-0.272500006,-0.049166679,1,0,0,0.6821,optionLeft,70,1460,1,29,0,29,0,1,,,,,,,,,,,,,,,,,,,,,,,,,,,,,,,,,,,,,,,
,,,,,,,,2023-08-16_08h54.38.414,HF_wild_card,2022.2.4,Win32,59.84798612,5c77d0f62cfc0000160c1958,64d2fd46c836a06233681665,64dc7ef406164ce71a53d28c,,,,,,,ctch,resources/DY.BMP,resources/DG.BMP,Door3,0.274166743,-0.049166679,1,0,0,1.2158,optionRight,70,1530,1,30,0,30,0,1,,,,,,,,,,,,,,,,,,,,,,,,,,,,,,,,,,,,,,,
,,,,,,,,2023-08-16_08h54.38.414,HF_wild_card,2022.2.4,Win32,59.84798612,5c77d0f62cfc0000160c1958,64d2fd46c836a06233681665,64dc7ef406164ce71a53d28c,,,,,,,decisionTrl,resources/DG.BMP,resources/DP.BMP,Door3,-0.245833333,-0.053333346,1,0,0,0.7327,optionLeft,70,1600,1,31,0,31,0,1,,,,,,,,,,,,,,,,,,,,,,,,,,,,,,,,,,,,,,,
,,,,,,,,2023-08-16_08h54.38.414,HF_wild_card,2022.2.4,Win32,59.84798612,5c77d0f62cfc0000160c1958,64d2fd46c836a06233681665,64dc7ef406164ce71a53d28c,,,,,,,decisionTrl,resources/DG.BMP,resources/DP.BMP,Door3,-0.228333346,-0.051666705,1,0,0,0.9163,optionLeft,70,1670,1,32,0,32,0,1,,,,,,,,,,,,,,,,,,,,,,,,,,,,,,,,,,,,,,,
,,,,,,,,2023-08-16_08h54.38.414,HF_wild_card,2022.2.4,Win32,59.84798612,5c77d0f62cfc0000160c1958,64d2fd46c836a06233681665,64dc7ef406164ce71a53d28c,,,,,,,decisionTrl,resources/DG.BMP,resources/DP.BMP,Door3,-0.25,-0.030000019,1,0,0,0.7657,optionLeft,70,1740,1,33,0,33,0,1,,,,,,,,,,,,,,,,,,,,,,,,,,,,,,,,,,,,,,,
,,,,,,,,2023-08-16_08h54.38.414,HF_wild_card,2022.2.4,Win32,59.84798612,5c77d0f62cfc0000160c1958,64d2fd46c836a06233681665,64dc7ef406164ce71a53d28c,,,,,,,decisionTrl,resources/DP.BMP,resources/DR.BMP,Door4,-0.239999962,-0.035000038,1,0,0,2.0666,optionLeft,60,1800,1,34,0,34,0,1,,,,,,,,,,,,,,,,,,,,,,,,,,,,,,,,,,,,,,,
,,,,,,,,2023-08-16_08h54.38.414,HF_wild_card,2022.2.4,Win32,59.84798612,5c77d0f62cfc0000160c1958,64d2fd46c836a06233681665,64dc7ef406164ce71a53d28c,,,,,,,decisionTrl,resources/DP.BMP,resources/DG.BMP,Door3,0.281666692,0.002499994,1,0,0,2.5338,optionRight,70,1870,1,35,0,35,0,1,,,,,,,,,,,,,,,,,,,,,,,,,,,,,,,,,,,,,,,
,,,,,,,,2023-08-16_08h54.38.414,HF_wild_card,2022.2.4,Win32,59.84798612,5c77d0f62cfc0000160c1958,64d2fd46c836a06233681665,64dc7ef406164ce71a53d28c,,,,,,,sngl,resources/Empty.png,resources/DB.BMP,Door1,0.27833341,0.000833321,1,0,0,0.7827,optionRight,30,1900,1,36,0,36,0,1,,,,,,,,,,,,,,,,,,,,,,,,,,,,,,,,,,,,,,,
,,,,,,,,2023-08-16_08h54.38.414,HF_wild_card,2022.2.4,Win32,59.84798612,5c77d0f62cfc0000160c1958,64d2fd46c836a06233681665,64dc7ef406164ce71a53d28c,,,,,,,sngl,resources/Empty.png,resources/DY.BMP,Door2,0.200833321,-0.008333333,1,0,0,1.0828,optionRight,20,1920,1,37,0,37,0,1,,,,,,,,,,,,,,,,,,,,,,,,,,,,,,,,,,,,,,,
,,,,,,,,2023-08-16_08h54.38.414,HF_wild_card,2022.2.4,Win32,59.84798612,5c77d0f62cfc0000160c1958,64d2fd46c836a06233681665,64dc7ef406164ce71a53d28c,,,,,,,sngl,resources/Empty.png,resources/DR.BMP,WildCard_NonEx,0.230833371,-0.002499994,1,0,0,0.7491,optionRight,55,1975,1,38,0,38,0,1,,,,,,,,,,,,,,,,,,,,,,,,,,,,,,,,,,,,,,,
,,,,,,,,2023-08-16_08h54.38.414,HF_wild_card,2022.2.4,Win32,59.84798612,5c77d0f62cfc0000160c1958,64d2fd46c836a06233681665,64dc7ef406164ce71a53d28c,,,,,,,decisionTrl,resources/DG.BMP,resources/DR.BMP,Door3,-0.3375,-0.021666686,1,0,0,1.1994,optionLeft,70,2045,1,39,0,39,0,1,,,,,,,,,,,,,,,,,,,,,,,,,,,,,,,,,,,,,,,
,,,,,,,,2023-08-16_08h54.38.414,HF_wild_card,2022.2.4,Win32,59.84798612,5c77d0f62cfc0000160c1958,64d2fd46c836a06233681665,64dc7ef406164ce71a53d28c,,,,,,,decisionTrl,resources/DR.BMP,resources/DY.BMP,WildCard_NonEx,-0.247499975,-0.01916666,1,0,0,1.1655,optionLeft,45,2090,1,40,0,40,0,1,,,,,,,,,,,,,,,,,,,,,,,,,,,,,,,,,,,,,,,
,,,,,,,,2023-08-16_08h54.38.414,HF_wild_card,2022.2.4,Win32,59.84798612,5c77d0f62cfc0000160c1958,64d2fd46c836a06233681665,64dc7ef406164ce71a53d28c,,,,,,,decisionTrl,resources/DB.BMP,resources/DY.BMP,Door1,-0.314166673,-0.042499987,1,0,0,0.7324,optionLeft,30,2120,1,41,0,41,0,1,,,,,,,,,,,,,,,,,,,,,,,,,,,,,,,,,,,,,,,
,,,,,,,,2023-08-16_08h54.38.414,HF_wild_card,2022.2.4,Win32,59.84798612,5c77d0f62cfc0000160c1958,64d2fd46c836a06233681665,64dc7ef406164ce71a53d28c,,,,,,,sngl,resources/DG.BMP,resources/Empty.png,Door3,-0.202499962,-0.029166667,1,0,0,0.732,optionLeft,70,2190,1,42,0,42,0,1,,,,,,,,,,,,,,,,,,,,,,,,,,,,,,,,,,,,,,,
,,,,,,,,2023-08-16_08h54.38.414,HF_wild_card,2022.2.4,Win32,59.84798612,5c77d0f62cfc0000160c1958,64d2fd46c836a06233681665,64dc7ef406164ce71a53d28c,,,,,,,decisionTrl,resources/DR.BMP,resources/DP.BMP,Door4,0.247500038,-0.030000019,1,0,0,1.9311,optionRight,80,2270,1,43,0,43,0,1,,,,,,,,,,,,,,,,,,,,,,,,,,,,,,,,,,,,,,,
,,,,,,,,2023-08-16_08h54.38.414,HF_wild_card,2022.2.4,Win32,59.84798612,5c77d0f62cfc0000160c1958,64d2fd46c836a06233681665,64dc7ef406164ce71a53d28c,,,,,,,,,,,,,,,,,,,,,,,,,,0,0,0,0,1,,,,,,,,,,,,,,,,,,,,,,,,,,,,,,,,,,
,,,,,,,,2023-08-16_08h54.38.414,HF_wild_card,2022.2.4,Win32,59.84798612,5c77d0f62cfc0000160c1958,64d2fd46c836a06233681665,64dc7ef406164ce71a53d28c,,,,,,,sngl,resources/Empty.png,resources/DG.BMP,Door3,0.198333359,-0.125833321,1,0,0,1.3645,optionRight,70,2340,2,0,0,0,0,1,,,,,,,,,,,,,,,,,,,,,,,,,,,,,,,,,,,,,,,
,,,,,,,,2023-08-16_08h54.38.414,HF_wild_card,2022.2.4,Win32,59.84798612,5c77d0f62cfc0000160c1958,64d2fd46c836a06233681665,64dc7ef406164ce71a53d28c,,,,,,,ctch,resources/DB.BMP,resources/DP.BMP,Door4,0.276666641,-0.040833346,1,0,0,1.3324,optionRight,80,2420,2,1,0,1,0,1,,,,,,,,,,,,,,,,,,,,,,,,,,,,,,,,,,,,,,,
,,,,,,,,2023-08-16_08h54.38.414,HF_wild_card,2022.2.4,Win32,59.84798612,5c77d0f62cfc0000160c1958,64d2fd46c836a06233681665,64dc7ef406164ce71a53d28c,,,,,,,sngl,resources/DR.BMP,resources/Empty.png,WildCard_NonEx,-0.251666641,-0.048333359,1,0,0,0.7025,optionLeft,55,2475,2,2,0,2,0,1,,,,,,,,,,,,,,,,,,,,,,,,,,,,,,,,,,,,,,,
,,,,,,,,2023-08-16_08h54.38.414,HF_wild_card,2022.2.4,Win32,59.84798612,5c77d0f62cfc0000160c1958,64d2fd46c836a06233681665,64dc7ef406164ce71a53d28c,,,,,,,sngl,resources/Empty.png,resources/DB.BMP,Door1,0.31583341,0.001666673,1,0,0,0.8156,optionRight,30,2505,2,3,0,3,0,1,,,,,,,,,,,,,,,,,,,,,,,,,,,,,,,,,,,,,,,
,,,,,,,,2023-08-16_08h54.38.414,HF_wild_card,2022.2.4,Win32,59.84798612,5c77d0f62cfc0000160c1958,64d2fd46c836a06233681665,64dc7ef406164ce71a53d28c,,,,,,,decisionTrl,resources/DB.BMP,resources/DY.BMP,Door2,0.305833308,0.028333314,1,0,0,2.2817,optionRight,20,2525,2,4,0,4,0,1,,,,,,,,,,,,,,,,,,,,,,,,,,,,,,,,,,,,,,,
,,,,,,,,2023-08-16_08h54.38.414,HF_wild_card,2022.2.4,Win32,59.84798612,5c77d0f62cfc0000160c1958,64d2fd46c836a06233681665,64dc7ef406164ce71a53d28c,,,,,,,decisionTrl,resources/DB.BMP,resources/DY.BMP,Door1,-0.272500006,-0.00666666,1,0,0,0.6637,optionLeft,30,2555,2,5,0,5,0,1,,,,,,,,,,,,,,,,,,,,,,,,,,,,,,,,,,,,,,,
,,,,,,,,2023-08-16_08h54.38.414,HF_wild_card,2022.2.4,Win32,59.84798612,5c77d0f62cfc0000160c1958,64d2fd46c836a06233681665,64dc7ef406164ce71a53d28c,,,,,,,sngl,resources/DG.BMP,resources/Empty.png,Door3,-0.264999962,-0.007500013,1,0,0,0.6665,optionLeft,70,2625,2,6,0,6,0,1,,,,,,,,,,,,,,,,,,,,,,,,,,,,,,,,,,,,,,,
,,,,,,,,2023-08-16_08h54.38.414,HF_wild_card,2022.2.4,Win32,59.84798612,5c77d0f62cfc0000160c1958,64d2fd46c836a06233681665,64dc7ef406164ce71a53d28c,,,,,,,ctch,resources/DG.BMP,resources/DY.BMP,Door3,-0.246666654,0.007499981,1,0,0,0.8827,optionLeft,70,2695,2,7,0,7,0,1,,,,,,,,,,,,,,,,,,,,,,,,,,,,,,,,,,,,,,,
,,,,,,,,2023-08-16_08h54.38.414,HF_wild_card,2022.2.4,Win32,59.84798612,5c77d0f62cfc0000160c1958,64d2fd46c836a06233681665,64dc7ef406164ce71a53d28c,,,,,,,decisionTrl,resources/DP.BMP,resources/DG.BMP,Door4,-0.325833321,-0.045000013,1,0,0,0.8823,optionLeft,60,2755,2,8,0,8,0,1,,,,,,,,,,,,,,,,,,,,,,,,,,,,,,,,,,,,,,,
,,,,,,,,2023-08-16_08h54.38.414,HF_wild_card,2022.2.4,Win32,59.84798612,5c77d0f62cfc0000160c1958,64d2fd46c836a06233681665,64dc7ef406164ce71a53d28c,,,,,,,sngl,resources/Empty.png,resources/DR.BMP,WildCard_NonEx,0.245833333,0.029166667,1,0,0,0.7822,optionRight,45,2800,2,9,0,9,0,1,,,,,,,,,,,,,,,,,,,,,,,,,,,,,,,,,,,,,,,
,,,,,,,,2023-08-16_08h54.38.414,HF_wild_card,2022.2.4,Win32,59.84798612,5c77d0f62cfc0000160c1958,64d2fd46c836a06233681665,64dc7ef406164ce71a53d28c,,,,,,,decisionTrl,resources/DP.BMP,resources/DG.BMP,Door4,-0.289999994,0.013333321,1,0,0,1.3117,optionLeft,60,2860,2,10,0,10,0,1,,,,,,,,,,,,,,,,,,,,,,,,,,,,,,,,,,,,,,,
,,,,,,,,2023-08-16_08h54.38.414,HF_wild_card,2022.2.4,Win32,59.84798612,5c77d0f62cfc0000160c1958,64d2fd46c836a06233681665,64dc7ef406164ce71a53d28c,,,,,,,ctch,resources/DP.BMP,resources/DB.BMP,Door4,-0.256666629,0.00583334,1,0,0,0.6818,optionLeft,60,2920,2,11,0,11,0,1,,,,,,,,,,,,,,,,,,,,,,,,,,,,,,,,,,,,,,,
,,,,,,,,2023-08-16_08h54.38.414,HF_wild_card,2022.2.4,Win32,59.84798612,5c77d0f62cfc0000160c1958,64d2fd46c836a06233681665,64dc7ef406164ce71a53d28c,,,,,,,decisionTrl,resources/DB.BMP,resources/DY.BMP,Door1,-0.298333327,0.009166654,1,0,0,1.4163,optionLeft,30,2950,2,12,0,12,0,1,,,,,,,,,,,,,,,,,,,,,,,,,,,,,,,,,,,,,,,
,,,,,,,,2023-08-16_08h54.38.414,HF_wild_card,2022.2.4,Win32,59.84798612,5c77d0f62cfc0000160c1958,64d2fd46c836a06233681665,64dc7ef406164ce71a53d28c,,,,,,,decisionTrl,resources/DG.BMP,resources/DP.BMP,Door4,0.235833359,0.004166667,1,0,0,1.1328,optionRight,80,3030,2,13,0,13,0,1,,,,,,,,,,,,,,,,,,,,,,,,,,,,,,,,,,,,,,,
,,,,,,,,2023-08-16_08h54.38.414,HF_wild_card,2022.2.4,Win32,59.84798612,5c77d0f62cfc0000160c1958,64d2fd46c836a06233681665,64dc7ef406164ce71a53d28c,,,,,,,decisionTrl,resources/DG.BMP,resources/DR.BMP,Door3,-0.220000013,0.01833334,1,0,0,1.0162,optionLeft,70,3100,2,14,0,14,0,1,,,,,,,,,,,,,,,,,,,,,,,,,,,,,,,,,,,,,,,
,,,,,,,,2023-08-16_08h54.38.414,HF_wild_card,2022.2.4,Win32,59.84798612,5c77d0f62cfc0000160c1958,64d2fd46c836a06233681665,64dc7ef406164ce71a53d28c,,,,,,,decisionTrl,resources/DY.BMP,resources/DB.BMP,Door1,0.266666667,0.000833321,1,0,0,0.9994,optionRight,30,3130,2,15,0,15,0,1,,,,,,,,,,,,,,,,,,,,,,,,,,,,,,,,,,,,,,,
,,,,,,,,2023-08-16_08h54.38.414,HF_wild_card,2022.2.4,Win32,59.84798612,5c77d0f62cfc0000160c1958,64d2fd46c836a06233681665,64dc7ef406164ce71a53d28c,,,,,,,decisionTrl,resources/DR.BMP,resources/DG.BMP,Door3,0.192499987,0.011666648,1,0,0,1.4664,optionRight,70,3200,2,16,0,16,0,1,,,,,,,,,,,,,,,,,,,,,,,,,,,,,,,,,,,,,,,
,,,,,,,,2023-08-16_08h54.38.414,HF_wild_card,2022.2.4,Win32,59.84798612,5c77d0f62cfc0000160c1958,64d2fd46c836a06233681665,64dc7ef406164ce71a53d28c,,,,,,,decisionTrl,resources/DR.BMP,resources/DY.BMP,WildCard_NonEx,-0.203333346,0.000833321,1,0,0,1.0992,optionLeft,45,3245,2,17,0,17,0,1,,,,,,,,,,,,,,,,,,,,,,,,,,,,,,,,,,,,,,,
,,,,,,,,2023-08-16_08h54.38.414,HF_wild_card,2022.2.4,Win32,59.84798612,5c77d0f62cfc0000160c1958,64d2fd46c836a06233681665,64dc7ef406164ce71a53d28c,,,,,,,decisionTrl,resources/DP.BMP,resources/DG.BMP,Door4,-0.274166648,-0.00583334,1,0,0,1.7998,optionLeft,60,3305,2,18,0,18,0,1,,,,,,,,,,,,,,,,,,,,,,,,,,,,,,,,,,,,,,,
,,,,,,,,2023-08-16_08h54.38.414,HF_wild_card,2022.2.4,Win32,59.84798612,5c77d0f62cfc0000160c1958,64d2fd46c836a06233681665,64dc7ef406164ce71a53d28c,,,,,,,decisionTrl,resources/DR.BMP,resources/DB.BMP,WildCard_NonEx,-0.310000006,-0.00666666,1,0,0,1.2162,optionLeft,45,3350,2,19,0,19,0,1,,,,,,,,,,,,,,,,,,,,,,,,,,,,,,,,,,,,,,,
,,,,,,,,2023-08-16_08h54.38.414,HF_wild_card,2022.2.4,Win32,59.84798612,5c77d0f62cfc0000160c1958,64d2fd46c836a06233681665,64dc7ef406164ce71a53d28c,,,,,,,decisionTrl,resources/DY.BMP,resources/DB.BMP,Door1,0.245000013,0.108333333,1,0,0,1.3161,optionRight,30,3380,2,20,0,20,0,1,,,,,,,,,,,,,,,,,,,,,,,,,,,,,,,,,,,,,,,
,,,,,,,,2023-08-16_08h54.38.414,HF_wild_card,2022.2.4,Win32,59.84798612,5c77d0f62cfc0000160c1958,64d2fd46c836a06233681665,64dc7ef406164ce71a53d28c,,,,,,,decisionTrl,resources/DB.BMP,resources/DY.BMP,Door1,-0.44333334,-0.0375,1,0,0,1.1265,optionLeft,30,3410,2,21,0,21,0,1,,,,,,,,,,,,,,,,,,,,,,,,,,,,,,,,,,,,,,,
,,,,,,,,2023-08-16_08h54.38.414,HF_wild_card,2022.2.4,Win32,59.84798612,5c77d0f62cfc0000160c1958,64d2fd46c836a06233681665,64dc7ef406164ce71a53d28c,,,,,,,sngl,resources/Empty.png,resources/DP.BMP,Door4,0.280000051,0.011666648,1,0,0,0.8826,optionRight,80,3490,2,22,0,22,0,1,,,,,,,,,,,,,,,,,,,,,,,,,,,,,,,,,,,,,,,
,,,,,,,,2023-08-16_08h54.38.414,HF_wild_card,2022.2.4,Win32,59.84798612,5c77d0f62cfc0000160c1958,64d2fd46c836a06233681665,64dc7ef406164ce71a53d28c,,,,,,,ctch,resources/DY.BMP,resources/DG.BMP,Door3,0.29083341,0.004166667,1,0,0,0.9324,optionRight,70,3560,2,23,0,23,0,1,,,,,,,,,,,,,,,,,,,,,,,,,,,,,,,,,,,,,,,
,,,,,,,,2023-08-16_08h54.38.414,HF_wild_card,2022.2.4,Win32,59.84798612,5c77d0f62cfc0000160c1958,64d2fd46c836a06233681665,64dc7ef406164ce71a53d28c,,,,,,,decisionTrl,resources/DY.BMP,resources/DR.BMP,WildCard_NonEx,0.285833359,0.001666673,1,0,0,1.7165,optionRight,45,3605,2,24,0,24,0,1,,,,,,,,,,,,,,,,,,,,,,,,,,,,,,,,,,,,,,,
,,,,,,,,2023-08-16_08h54.38.414,HF_wild_card,2022.2.4,Win32,59.84798612,5c77d0f62cfc0000160c1958,64d2fd46c836a06233681665,64dc7ef406164ce71a53d28c,,,,,,,ctch,resources/DY.BMP,resources/DG.BMP,Door3,0.260000038,0.000833321,1,0,0,1.0662,optionRight,70,3675,2,25,0,25,0,1,,,,,,,,,,,,,,,,,,,,,,,,,,,,,,,,,,,,,,,
,,,,,,,,2023-08-16_08h54.38.414,HF_wild_card,2022.2.4,Win32,59.84798612,5c77d0f62cfc0000160c1958,64d2fd46c836a06233681665,64dc7ef406164ce71a53d28c,,,,,,,sngl,resources/Empty.png,resources/DY.BMP,Door2,0.380833308,0.016666667,1,0,0,0.7826,optionRight,40,3715,2,26,0,26,0,1,,,,,,,,,,,,,,,,,,,,,,,,,,,,,,,,,,,,,,,
,,,,,,,,2023-08-16_08h54.38.414,HF_wild_card,2022.2.4,Win32,59.84798612,5c77d0f62cfc0000160c1958,64d2fd46c836a06233681665,64dc7ef406164ce71a53d28c,,,,,,,sngl,resources/DB.BMP,resources/Empty.png,Door1,-0.225,-0.013333352,1,0,0,0.866,optionLeft,30,3745,2,27,0,27,0,1,,,,,,,,,,,,,,,,,,,,,,,,,,,,,,,,,,,,,,,
,,,,,,,,2023-08-16_08h54.38.414,HF_wild_card,2022.2.4,Win32,59.84798612,5c77d0f62cfc0000160c1958,64d2fd46c836a06233681665,64dc7ef406164ce71a53d28c,,,,,,,decisionTrl,resources/DB.BMP,resources/DR.BMP,WildCard_NonEx,0.286666743,0.003333314,1,0,0,1.7669,optionRight,45,3790,2,28,0,28,0,1,,,,,,,,,,,,,,,,,,,,,,,,,,,,,,,,,,,,,,,
,,,,,,,,2023-08-16_08h54.38.414,HF_wild_card,2022.2.4,Win32,59.84798612,5c77d0f62cfc0000160c1958,64d2fd46c836a06233681665,64dc7ef406164ce71a53d28c,,,,,,,sngl,resources/Empty.png,resources/DR.BMP,WildCard_NonEx,0.218333371,0,1,0,0,0.7824,optionRight,55,3845,2,29,0,29,0,1,,,,,,,,,,,,,,,,,,,,,,,,,,,,,,,,,,,,,,,
,,,,,,,,2023-08-16_08h54.38.414,HF_wild_card,2022.2.4,Win32,59.84798612,5c77d0f62cfc0000160c1958,64d2fd46c836a06233681665,64dc7ef406164ce71a53d28c,,,,,,,decisionTrl,resources/DP.BMP,resources/DR.BMP,Door4,-0.282499981,-0.017500019,1,0,0,0.9827,optionLeft,60,3905,2,30,0,30,0,1,,,,,,,,,,,,,,,,,,,,,,,,,,,,,,,,,,,,,,,
,,,,,,,,2023-08-16_08h54.38.414,HF_wild_card,2022.2.4,Win32,59.84798612,5c77d0f62cfc0000160c1958,64d2fd46c836a06233681665,64dc7ef406164ce71a53d28c,,,,,,,sngl,resources/DR.BMP,resources/Empty.png,WildCard_NonEx,-0.270833333,-0.026666673,1,0,0,0.7824,optionLeft,45,3950,2,31,0,31,0,1,,,,,,,,,,,,,,,,,,,,,,,,,,,,,,,,,,,,,,,
,,,,,,,,2023-08-16_08h54.38.414,HF_wild_card,2022.2.4,Win32,59.84798612,5c77d0f62cfc0000160c1958,64d2fd46c836a06233681665,64dc7ef406164ce71a53d28c,,,,,,,sngl,resources/DY.BMP,resources/Empty.png,Door2,-0.157500013,-0.014999994,1,0,0,0.7826,optionLeft,20,3970,2,32,0,32,0,1,,,,,,,,,,,,,,,,,,,,,,,,,,,,,,,,,,,,,,,
,,,,,,,,2023-08-16_08h54.38.414,HF_wild_card,2022.2.4,Win32,59.84798612,5c77d0f62cfc0000160c1958,64d2fd46c836a06233681665,64dc7ef406164ce71a53d28c,,,,,,,decisionTrl,resources/DY.BMP,resources/DB.BMP,Door1,0.292500051,0.007499981,1,0,0,0.7323,optionRight,30,4000,2,33,0,33,0,1,,,,,,,,,,,,,,,,,,,,,,,,,,,,,,,,,,,,,,,
,,,,,,,,2023-08-16_08h54.38.414,HF_wild_card,2022.2.4,Win32,59.84798612,5c77d0f62cfc0000160c1958,64d2fd46c836a06233681665,64dc7ef406164ce71a53d28c,,,,,,,decisionTrl,resources/DG.BMP,resources/DP.BMP,Door4,0.299166743,0.011666648,1,0,0,0.7988,optionRight,80,4080,2,34,0,34,0,1,,,,,,,,,,,,,,,,,,,,,,,,,,,,,,,,,,,,,,,
,,,,,,,,2023-08-16_08h54.38.414,HF_wild_card,2022.2.4,Win32,59.84798612,5c77d0f62cfc0000160c1958,64d2fd46c836a06233681665,64dc7ef406164ce71a53d28c,,,,,,,decisionTrl,resources/DR.BMP,resources/DP.BMP,Door4,0.376666641,0.017499987,1,0,0,0.7325,optionRight,60,4140,2,35,0,35,0,1,,,,,,,,,,,,,,,,,,,,,,,,,,,,,,,,,,,,,,,
,,,,,,,,2023-08-16_08h54.38.414,HF_wild_card,2022.2.4,Win32,59.84798612,5c77d0f62cfc0000160c1958,64d2fd46c836a06233681665,64dc7ef406164ce71a53d28c,,,,,,,sngl,resources/DP.BMP,resources/Empty.png,Door4,-0.218333308,0.001666673,1,0,0,0.6822,optionLeft,60,4200,2,36,0,36,0,1,,,,,,,,,,,,,,,,,,,,,,,,,,,,,,,,,,,,,,,
,,,,,,,,2023-08-16_08h54.38.414,HF_wild_card,2022.2.4,Win32,59.84798612,5c77d0f62cfc0000160c1958,64d2fd46c836a06233681665,64dc7ef406164ce71a53d28c,,,,,,,decisionTrl,resources/DG.BMP,resources/DP.BMP,Door4,0.333333333,0.019999981,1,0,0,0.6657,optionRight,60,4260,2,37,0,37,0,1,,,,,,,,,,,,,,,,,,,,,,,,,,,,,,,,,,,,,,,
,,,,,,,,2023-08-16_08h54.38.414,HF_wild_card,2022.2.4,Win32,59.84798612,5c77d0f62cfc0000160c1958,64d2fd46c836a06233681665,64dc7ef406164ce71a53d28c,,,,,,,decisionTrl,resources/DP.BMP,resources/DG.BMP,Door3,0.359166718,0.033333333,1,0,0,0.6158,optionRight,70,4330,2,38,0,38,0,1,,,,,,,,,,,,,,,,,,,,,,,,,,,,,,,,,,,,,,,
,,,,,,,,2023-08-16_08h54.38.414,HF_wild_card,2022.2.4,Win32,59.84798612,5c77d0f62cfc0000160c1958,64d2fd46c836a06233681665,64dc7ef406164ce71a53d28c,,,,,,,ctch,resources/DG.BMP,resources/DY.BMP,Door3,-0.257500013,-0.015833346,1,0,0,0.7994,optionLeft,70,4400,2,39,0,39,0,1,,,,,,,,,,,,,,,,,,,,,,,,,,,,,,,,,,,,,,,
,,,,,,,,2023-08-16_08h54.38.414,HF_wild_card,2022.2.4,Win32,59.84798612,5c77d0f62cfc0000160c1958,64d2fd46c836a06233681665,64dc7ef406164ce71a53d28c,,,,,,,ctch,resources/DP.BMP,resources/DB.BMP,Door4,-0.310833327,-0.008333333,1,0,0,1.1162,optionLeft,80,4480,2,40,0,40,0,1,,,,,,,,,,,,,,,,,,,,,,,,,,,,,,,,,,,,,,,
,,,,,,,,2023-08-16_08h54.38.414,HF_wild_card,2022.2.4,Win32,59.84798612,5c77d0f62cfc0000160c1958,64d2fd46c836a06233681665,64dc7ef406164ce71a53d28c,,,,,,,ctch,resources/DB.BMP,resources/DP.BMP,Door4,0.275,0.021666654,1,0,0,1.0489,optionRight,80,4560,2,41,0,41,0,1,,,,,,,,,,,,,,,,,,,,,,,,,,,,,,,,,,,,,,,
,,,,,,,,2023-08-16_08h54.38.414,HF_wild_card,2022.2.4,Win32,59.84798612,5c77d0f62cfc0000160c1958,64d2fd46c836a06233681665,64dc7ef406164ce71a53d28c,,,,,,,decisionTrl,resources/DG.BMP,resources/DP.BMP,Door4,0.229166667,-0.002499994,1,0,0,2.4345,optionRight,80,4640,2,42,0,42,0,1,,,,,,,,,,,,,,,,,,,,,,,,,,,,,,,,,,,,,,,
,,,,,,,,2023-08-16_08h54.38.414,HF_wild_card,2022.2.4,Win32,59.84798612,5c77d0f62cfc0000160c1958,64d2fd46c836a06233681665,64dc7ef406164ce71a53d28c,,,,,,,decisionTrl,resources/DY.BMP,resources/DB.BMP,Door1,0.345000076,0.017499987,1,0,0,2.2674,optionRight,30,4670,2,43,0,43,0,1,,,,,,,,,,,,,,,,,,,,,,,,,,,,,,,,,,,,,,,
,,,,,,,,2023-08-16_08h54.38.414,HF_wild_card,2022.2.4,Win32,59.84798612,5c77d0f62cfc0000160c1958,64d2fd46c836a06233681665,64dc7ef406164ce71a53d28c,,,,,,,,,,,,,,,,,,,,,,,,,,1,0,1,0,1,,,,,,,,,,,,,,,,,,,,,,,,,,,,,,,,,,
,,,,,,,,2023-08-16_08h54.38.414,HF_wild_card,2022.2.4,Win32,59.84798612,5c77d0f62cfc0000160c1958,64d2fd46c836a06233681665,64dc7ef406164ce71a53d28c,,,,,,,decisionTrl,resources/DB.BMP,resources/DR.BMP,WildCard_NonEx,0.2875,0.041666667,1,0,0,1.3985,optionRight,45,4715,3,0,0,0,0,1,,,,,,,,,,,,,,,,,,,,,,,,,,,,,,,,,,,,,,,
,,,,,,,,2023-08-16_08h54.38.414,HF_wild_card,2022.2.4,Win32,59.84798612,5c77d0f62cfc0000160c1958,64d2fd46c836a06233681665,64dc7ef406164ce71a53d28c,,,,,,,ctch,resources/DG.BMP,resources/DY.BMP,Door3,-0.284166654,-0.026666673,1,0,0,0.7491,optionLeft,70,4785,3,1,0,1,0,1,,,,,,,,,,,,,,,,,,,,,,,,,,,,,,,,,,,,,,,
,,,,,,,,2023-08-16_08h54.38.414,HF_wild_card,2022.2.4,Win32,59.84798612,5c77d0f62cfc0000160c1958,64d2fd46c836a06233681665,64dc7ef406164ce71a53d28c,,,,,,,ctch,resources/DY.BMP,resources/DG.BMP,Door3,0.39083341,0.027499994,1,0,0,0.6818,optionRight,70,4855,3,2,0,2,0,1,,,,,,,,,,,,,,,,,,,,,,,,,,,,,,,,,,,,,,,
,,,,,,,,2023-08-16_08h54.38.414,HF_wild_card,2022.2.4,Win32,59.84798612,5c77d0f62cfc0000160c1958,64d2fd46c836a06233681665,64dc7ef406164ce71a53d28c,,,,,,,decisionTrl,resources/DP.BMP,resources/DR.BMP,Door4,-0.264166641,-0.025,1,0,0,0.7965,optionLeft,60,4915,3,3,0,3,0,1,,,,,,,,,,,,,,,,,,,,,,,,,,,,,,,,,,,,,,,
,,,,,,,,2023-08-16_08h54.38.414,HF_wild_card,2022.2.4,Win32,59.84798612,5c77d0f62cfc0000160c1958,64d2fd46c836a06233681665,64dc7ef406164ce71a53d28c,,,,,,,ctch,resources/DP.BMP,resources/DB.BMP,Door4,-0.289166673,-0.03166666,1,0,0,0.6987,optionLeft,80,4995,3,4,0,4,0,1,,,,,,,,,,,,,,,,,,,,,,,,,,,,,,,,,,,,,,,
,,,,,,,,2023-08-16_08h54.38.414,HF_wild_card,2022.2.4,Win32,59.84798612,5c77d0f62cfc0000160c1958,64d2fd46c836a06233681665,64dc7ef406164ce71a53d28c,,,,,,,decisionTrl,resources/DG.BMP,resources/DR.BMP,Door3,-0.25,-0.025833352,1,0,0,0.7324,optionLeft,70,5065,3,5,0,5,0,1,,,,,,,,,,,,,,,,,,,,,,,,,,,,,,,,,,,,,,,
,,,,,,,,2023-08-16_08h54.38.414,HF_wild_card,2022.2.4,Win32,59.84798612,5c77d0f62cfc0000160c1958,64d2fd46c836a06233681665,64dc7ef406164ce71a53d28c,,,,,,,decisionTrl,resources/DG.BMP,resources/DP.BMP,Door4,0.332500076,0.026666673,1,0,0,1.201,optionRight,80,5145,3,6,0,6,0,1,,,,,,,,,,,,,,,,,,,,,,,,,,,,,,,,,,,,,,,
,,,,,,,,2023-08-16_08h54.38.414,HF_wild_card,2022.2.4,Win32,59.84798612,5c77d0f62cfc0000160c1958,64d2fd46c836a06233681665,64dc7ef406164ce71a53d28c,,,,,,,decisionTrl,resources/DR.BMP,resources/DB.BMP,WildCard_NonEx,-0.263333321,0.00666666,1,0,0,0.8589,optionLeft,55,5200,3,7,0,7,0,1,,,,,,,,,,,,,,,,,,,,,,,,,,,,,,,,,,,,,,,
,,,,,,,,2023-08-16_08h54.38.414,HF_wild_card,2022.2.4,Win32,59.84798612,5c77d0f62cfc0000160c1958,64d2fd46c836a06233681665,64dc7ef406164ce71a53d28c,,,,,,,decisionTrl,resources/DG.BMP,resources/DP.BMP,Door4,0.277500025,0.045833333,1,0,0,2.1538,optionRight,60,5260,3,8,0,8,0,1,,,,,,,,,,,,,,,,,,,,,,,,,,,,,,,,,,,,,,,
,,,,,,,,2023-08-16_08h54.38.414,HF_wild_card,2022.2.4,Win32,59.84798612,5c77d0f62cfc0000160c1958,64d2fd46c836a06233681665,64dc7ef406164ce71a53d28c,,,,,,,decisionTrl,resources/DB.BMP,resources/DY.BMP,Door1,-0.234166654,-0.0125,1,0,0,1.2869,optionLeft,30,5290,3,9,0,9,0,1,,,,,,,,,,,,,,,,,,,,,,,,,,,,,,,,,,,,,,,
,,,,,,,,2023-08-16_08h54.38.414,HF_wild_card,2022.2.4,Win32,59.84798612,5c77d0f62cfc0000160c1958,64d2fd46c836a06233681665,64dc7ef406164ce71a53d28c,,,,,,,sngl,resources/DB.BMP,resources/Empty.png,Door1,-0.240833346,-0.0125,1,0,0,0.6989,optionLeft,30,5320,3,10,0,10,0,1,,,,,,,,,,,,,,,,,,,,,,,,,,,,,,,,,,,,,,,
,,,,,,,,2023-08-16_08h54.38.414,HF_wild_card,2022.2.4,Win32,59.84798612,5c77d0f62cfc0000160c1958,64d2fd46c836a06233681665,64dc7ef406164ce71a53d28c,,,,,,,sngl,resources/Empty.png,resources/DP.BMP,Door4,0.418333308,0.039166673,1,0,0,0.6825,optionRight,60,5380,3,11,0,11,0,1,,,,,,,,,,,,,,,,,,,,,,,,,,,,,,,,,,,,,,,
,,,,,,,,2023-08-16_08h54.38.414,HF_wild_card,2022.2.4,Win32,59.84798612,5c77d0f62cfc0000160c1958,64d2fd46c836a06233681665,64dc7ef406164ce71a53d28c,,,,,,,sngl,resources/Empty.png,resources/DG.BMP,Door3,0.301666641,0.053333314,1,0,0,0.6191,optionRight,70,5450,3,12,0,12,0,1,,,,,,,,,,,,,,,,,,,,,,,,,,,,,,,,,,,,,,,
,,,,,,,,2023-08-16_08h54.38.414,HF_wild_card,2022.2.4,Win32,59.84798612,5c77d0f62cfc0000160c1958,64d2fd46c836a06233681665,64dc7ef406164ce71a53d28c,,,,,,,decisionTrl,resources/DG.BMP,resources/DP.BMP,Door3,-0.227499962,0.004166667,1,0,0,1.025,optionLeft,70,5520,3,13,0,13,0,1,,,,,,,,,,,,,,,,,,,,,,,,,,,,,,,,,,,,,,,
,,,,,,,,2023-08-16_08h54.38.414,HF_wild_card,2022.2.4,Win32,59.84798612,5c77d0f62cfc0000160c1958,64d2fd46c836a06233681665,64dc7ef406164ce71a53d28c,,,,,,,decisionTrl,resources/DB.BMP,resources/DY.BMP,Door1,-0.284166654,-0.013333352,1,0,0,2.0099,optionLeft,30,5550,3,14,0,14,0,1,,,,,,,,,,,,,,,,,,,,,,,,,,,,,,,,,,,,,,,
,,,,,,,,2023-08-16_08h54.38.414,HF_wild_card,2022.2.4,Win32,59.84798612,5c77d0f62cfc0000160c1958,64d2fd46c836a06233681665,64dc7ef406164ce71a53d28c,,,,,,,decisionTrl,resources/DY.BMP,resources/DB.BMP,Door1,0.239166705,0.045833333,1,0,0,1.3328,optionRight,30,5580,3,15,0,15,0,1,,,,,,,,,,,,,,,,,,,,,,,,,,,,,,,,,,,,,,,
,,,,,,,,2023-08-16_08h54.38.414,HF_wild_card,2022.2.4,Win32,59.84798612,5c77d0f62cfc0000160c1958,64d2fd46c836a06233681665,64dc7ef406164ce71a53d28c,,,,,,,sngl,resources/Empty.png,resources/DR.BMP,WildCard_NonEx,0.340000025,0.047500006,1,0,0,0.6489,optionRight,55,5635,3,16,0,16,0,1,,,,,,,,,,,,,,,,,,,,,,,,,,,,,,,,,,,,,,,
,,,,,,,,2023-08-16_08h54.38.414,HF_wild_card,2022.2.4,Win32,59.84798612,5c77d0f62cfc0000160c1958,64d2fd46c836a06233681665,64dc7ef406164ce71a53d28c,,,,,,,ctch,resources/DB.BMP,resources/DP.BMP,Door4,0.2625,0.039166673,1,0,0,1.0489,optionRight,60,5695,3,17,0,17,0,1,,,,,,,,,,,,,,,,,,,,,,,,,,,,,,,,,,,,,,,
,,,,,,,,2023-08-16_08h54.38.414,HF_wild_card,2022.2.4,Win32,59.84798612,5c77d0f62cfc0000160c1958,64d2fd46c836a06233681665,64dc7ef406164ce71a53d28c,,,,,,,sngl,resources/DR.BMP,resources/Empty.png,WildCard_NonEx,-0.204166667,0.04416666,1,0,0,0.7155,optionLeft,55,5750,3,18,0,18,0,1,,,,,,,,,,,,,,,,,,,,,,,,,,,,,,,,,,,,,,,
,,,,,,,,2023-08-16_08h54.38.414,HF_wild_card,2022.2.4,Win32,59.84798612,5c77d0f62cfc0000160c1958,64d2fd46c836a06233681665,64dc7ef406164ce71a53d28c,,,,,,,decisionTrl,resources/DR.BMP,resources/DY.BMP,WildCard_NonEx,-0.40666666,-0.008333333,1,0,0,1.1324,optionLeft,55,5805,3,19,0,19,0,1,,,,,,,,,,,,,,,,,,,,,,,,,,,,,,,,,,,,,,,
,,,,,,,,2023-08-16_08h54.38.414,HF_wild_card,2022.2.4,Win32,59.84798612,5c77d0f62cfc0000160c1958,64d2fd46c836a06233681665,64dc7ef406164ce71a53d28c,,,,,,,decisionTrl,resources/DP.BMP,resources/DG.BMP,Door3,0.249166679,0.025,1,0,0,1.7996,optionRight,70,5875,3,20,0,20,0,1,,,,,,,,,,,,,,,,,,,,,,,,,,,,,,,,,,,,,,,
,,,,,,,,2023-08-16_08h54.38.414,HF_wild_card,2022.2.4,Win32,59.84798612,5c77d0f62cfc0000160c1958,64d2fd46c836a06233681665,64dc7ef406164ce71a53d28c,,,,,,,ctch,resources/DY.BMP,resources/DG.BMP,Door3,0.2,0.01833334,1,0,0,0.9341,optionRight,70,5945,3,21,0,21,0,1,,,,,,,,,,,,,,,,,,,,,,,,,,,,,,,,,,,,,,,
,,,,,,,,2023-08-16_08h54.38.414,HF_wild_card,2022.2.4,Win32,59.84798612,5c77d0f62cfc0000160c1958,64d2fd46c836a06233681665,64dc7ef406164ce71a53d28c,,,,,,,ctch,resources/DB.BMP,resources/DP.BMP,Door4,0.221666654,0.026666673,1,0,0,0.7654,optionRight,80,6025,3,22,0,22,0,1,,,,,,,,,,,,,,,,,,,,,,,,,,,,,,,,,,,,,,,
,,,,,,,,2023-08-16_08h54.38.414,HF_wild_card,2022.2.4,Win32,59.84798612,5c77d0f62cfc0000160c1958,64d2fd46c836a06233681665,64dc7ef406164ce71a53d28c,,,,,,,decisionTrl,resources/DY.BMP,resources/DR.BMP,WildCard_NonEx,0.198333359,0.023333327,1,0,0,1.5177,optionRight,55,6080,3,23,0,23,0,1,,,,,,,,,,,,,,,,,,,,,,,,,,,,,,,,,,,,,,,
,,,,,,,,2023-08-16_08h54.38.414,HF_wild_card,2022.2.4,Win32,59.84798612,5c77d0f62cfc0000160c1958,64d2fd46c836a06233681665,64dc7ef406164ce71a53d28c,,,,,,,sngl,resources/Empty.png,resources/DY.BMP,Door2,0.186666679,0.052499994,1,0,0,0.7987,optionRight,20,6100,3,24,0,24,0,1,,,,,,,,,,,,,,,,,,,,,,,,,,,,,,,,,,,,,,,
,,,,,,,,2023-08-16_08h54.38.414,HF_wild_card,2022.2.4,Win32,59.84798612,5c77d0f62cfc0000160c1958,64d2fd46c836a06233681665,64dc7ef406164ce71a53d28c,,,,,,,decisionTrl,resources/DB.BMP,resources/DY.BMP,Door1,-0.34416666,0.021666654,1,0,0,1.3975,optionLeft,30,6130,3,25,0,25,0,1,,,,,,,,,,,,,,,,,,,,,,,,,,,,,,,,,,,,,,,
,,,,,,,,2023-08-16_08h54.38.414,HF_wild_card,2022.2.4,Win32,59.84798612,5c77d0f62cfc0000160c1958,64d2fd46c836a06233681665,64dc7ef406164ce71a53d28c,,,,,,,decisionTrl,resources/DY.BMP,resources/DB.BMP,Door1,0.240833346,0.015833314,1,0,0,1.0856,optionRight,30,6160,3,26,0,26,0,1,,,,,,,,,,,,,,,,,,,,,,,,,,,,,,,,,,,,,,,
,,,,,,,,2023-08-16_08h54.38.414,HF_wild_card,2022.2.4,Win32,59.84798612,5c77d0f62cfc0000160c1958,64d2fd46c836a06233681665,64dc7ef406164ce71a53d28c,,,,,,,decisionTrl,resources/DY.BMP,resources/DB.BMP,Door1,0.229999987,0.039999994,1,0,0,0.776,optionRight,30,6190,3,27,0,27,0,1,,,,,,,,,,,,,,,,,,,,,,,,,,,,,,,,,,,,,,,
,,,,,,,,2023-08-16_08h54.38.414,HF_wild_card,2022.2.4,Win32,59.84798612,5c77d0f62cfc0000160c1958,64d2fd46c836a06233681665,64dc7ef406164ce71a53d28c,,,,,,,sngl,resources/DG.BMP,resources/Empty.png,Door3,-0.3625,-0.000833352,1,0,0,0.6468,optionLeft,70,6260,3,28,0,28,0,1,,,,,,,,,,,,,,,,,,,,,,,,,,,,,,,,,,,,,,,
,,,,,,,,2023-08-16_08h54.38.414,HF_wild_card,2022.2.4,Win32,59.84798612,5c77d0f62cfc0000160c1958,64d2fd46c836a06233681665,64dc7ef406164ce71a53d28c,,,,,,,decisionTrl,resources/DP.BMP,resources/DG.BMP,Door4,-0.26833334,-0.01916666,1,0,0,1.0152,optionLeft,80,6340,3,29,0,29,0,1,,,,,,,,,,,,,,,,,,,,,,,,,,,,,,,,,,,,,,,
,,,,,,,,2023-08-16_08h54.38.414,HF_wild_card,2022.2.4,Win32,59.84798612,5c77d0f62cfc0000160c1958,64d2fd46c836a06233681665,64dc7ef406164ce71a53d28c,,,,,,,decisionTrl,resources/DP.BMP,resources/DG.BMP,Door4,-0.282499981,-0.032500013,1,0,0,0.6326,optionLeft,60,6400,3,30,0,30,0,1,,,,,,,,,,,,,,,,,,,,,,,,,,,,,,,,,,,,,,,
,,,,,,,,2023-08-16_08h54.38.414,HF_wild_card,2022.2.4,Win32,59.84798612,5c77d0f62cfc0000160c1958,64d2fd46c836a06233681665,64dc7ef406164ce71a53d28c,,,,,,,ctch,resources/DP.BMP,resources/DB.BMP,Door4,-0.200833321,-0.017500019,1,0,0,0.8493,optionLeft,60,6460,3,31,0,31,0,1,,,,,,,,,,,,,,,,,,,,,,,,,,,,,,,,,,,,,,,
,,,,,,,,2023-08-16_08h54.38.414,HF_wild_card,2022.2.4,Win32,59.84798612,5c77d0f62cfc0000160c1958,64d2fd46c836a06233681665,64dc7ef406164ce71a53d28c,,,,,,,sngl,resources/Empty.png,resources/DB.BMP,Door1,0.225,0.01833334,1,0,0,0.7487,optionRight,30,6490,3,32,0,32,0,1,,,,,,,,,,,,,,,,,,,,,,,,,,,,,,,,,,,,,,,
,,,,,,,,2023-08-16_08h54.38.414,HF_wild_card,2022.2.4,Win32,59.84798612,5c77d0f62cfc0000160c1958,64d2fd46c836a06233681665,64dc7ef406164ce71a53d28c,,,,,,,decisionTrl,resources/DB.BMP,resources/DY.BMP,Door1,-0.159166654,-0.0125,1,0,0,1.4662,optionLeft,30,6520,3,33,0,33,0,1,,,,,,,,,,,,,,,,,,,,,,,,,,,,,,,,,,,,,,,
,,,,,,,,2023-08-16_08h54.38.414,HF_wild_card,2022.2.4,Win32,59.84798612,5c77d0f62cfc0000160c1958,64d2fd46c836a06233681665,64dc7ef406164ce71a53d28c,,,,,,,sngl,resources/DP.BMP,resources/Empty.png,Door4,-0.240833346,-0.025,1,0,0,0.9161,optionLeft,80,6600,3,34,0,34,0,1,,,,,,,,,,,,,,,,,,,,,,,,,,,,,,,,,,,,,,,
,,,,,,,,2023-08-16_08h54.38.414,HF_wild_card,2022.2.4,Win32,59.84798612,5c77d0f62cfc0000160c1958,64d2fd46c836a06233681665,64dc7ef406164ce71a53d28c,,,,,,,decisionTrl,resources/DG.BMP,resources/DP.BMP,Door4,0.220000013,0.013333321,1,0,0,1.0494,optionRight,60,6660,3,35,0,35,0,1,,,,,,,,,,,,,,,,,,,,,,,,,,,,,,,,,,,,,,,
,,,,,,,,2023-08-16_08h54.38.414,HF_wild_card,2022.2.4,Win32,59.84798612,5c77d0f62cfc0000160c1958,64d2fd46c836a06233681665,64dc7ef406164ce71a53d28c,,,,,,,sngl,resources/DY.BMP,resources/Empty.png,Door2,-0.176666641,-0.035833359,1,0,0,0.9159,optionLeft,40,6700,3,36,0,36,0,1,,,,,,,,,,,,,,,,,,,,,,,,,,,,,,,,,,,,,,,
,,,,,,,,2023-08-16_08h54.38.414,HF_wild_card,2022.2.4,Win32,59.84798612,5c77d0f62cfc0000160c1958,64d2fd46c836a06233681665,64dc7ef406164ce71a53d28c,,,,,,,ctch,resources/DG.BMP,resources/DY.BMP,Door3,-0.251666641,-0.026666673,1,0,0,0.9991,optionLeft,70,6770,3,37,0,37,0,1,,,,,,,,,,,,,,,,,,,,,,,,,,,,,,,,,,,,,,,
,,,,,,,,2023-08-16_08h54.38.414,HF_wild_card,2022.2.4,Win32,59.84798612,5c77d0f62cfc0000160c1958,64d2fd46c836a06233681665,64dc7ef406164ce71a53d28c,,,,,,,decisionTrl,resources/DY.BMP,resources/DB.BMP,Door2,-0.151666641,-0.023333327,1,0,0,3.1341,optionLeft,40,6810,3,38,0,38,0,1,,,,,,,,,,,,,,,,,,,,,,,,,,,,,,,,,,,,,,,
,,,,,,,,2023-08-16_08h54.38.414,HF_wild_card,2022.2.4,Win32,59.84798612,5c77d0f62cfc0000160c1958,64d2fd46c836a06233681665,64dc7ef406164ce71a53d28c,,,,,,,decisionTrl,resources/DR.BMP,resources/DP.BMP,Door4,0.320000076,0,1,0,0,1.2495,optionRight,60,6870,3,39,0,39,0,1,,,,,,,,,,,,,,,,,,,,,,,,,,,,,,,,,,,,,,,
,,,,,,,,2023-08-16_08h54.38.414,HF_wild_card,2022.2.4,Win32,59.84798612,5c77d0f62cfc0000160c1958,64d2fd46c836a06233681665,64dc7ef406164ce71a53d28c,,,,,,,decisionTrl,resources/DR.BMP,resources/DG.BMP,Door3,0.235000038,0.09416666,1,0,0,0.8994,optionRight,70,6940,3,40,0,40,0,1,,,,,,,,,,,,,,,,,,,,,,,,,,,,,,,,,,,,,,,
,,,,,,,,2023-08-16_08h54.38.414,HF_wild_card,2022.2.4,Win32,59.84798612,5c77d0f62cfc0000160c1958,64d2fd46c836a06233681665,64dc7ef406164ce71a53d28c,,,,,,,sngl,resources/DR.BMP,resources/Empty.png,WildCard_NonEx,-0.213333321,-0.001666673,1,0,0,0.6827,optionLeft,45,6985,3,41,0,41,0,1,,,,,,,,,,,,,,,,,,,,,,,,,,,,,,,,,,,,,,,
,,,,,,,,2023-08-16_08h54.38.414,HF_wild_card,2022.2.4,Win32,59.84798612,5c77d0f62cfc0000160c1958,64d2fd46c836a06233681665,64dc7ef406164ce71a53d28c,,,,,,,sngl,resources/Empty.png,resources/DR.BMP,WildCard_NonEx,0.190833346,0.039166673,1,0,0,0.6655,optionRight,45,7030,3,42,0,42,0,1,,,,,,,,,,,,,,,,,,,,,,,,,,,,,,,,,,,,,,,
,,,,,,,,2023-08-16_08h54.38.414,HF_wild_card,2022.2.4,Win32,59.84798612,5c77d0f62cfc0000160c1958,64d2fd46c836a06233681665,64dc7ef406164ce71a53d28c,,,,,,,decisionTrl,resources/DP.BMP,resources/DG.BMP,Door4,-0.204166667,0.008333333,1,0,0,1.3997,optionLeft,80,7110,3,43,0,43,0,1,,,,,,,,,,,,,,,,,,,,,,,,,,,,,,,,,,,,,,,
,,,,,,,,2023-08-16_08h54.38.414,HF_wild_card,2022.2.4,Win32,59.84798612,5c77d0f62cfc0000160c1958,64d2fd46c836a06233681665,64dc7ef406164ce71a53d28c,,,,,,,,,,,,,,,,,,,,,,,,,,2,0,2,0,1,,,,,,,,,,,,,,,,,,,,,,,,,,,,,,,,,,
,,,,,,,,2023-08-16_08h54.38.414,HF_wild_card,2022.2.4,Win32,59.84798612,5c77d0f62cfc0000160c1958,64d2fd46c836a06233681665,64dc7ef406164ce71a53d28c,,,,,,,decisionTrl,resources/DB.BMP,resources/DY.BMP,Door1,-0.323333327,-0.085000038,1,0,0,2.4904,optionLeft,30,7140,4,0,0,0,0,1,,,,,,,,,,,,,,,,,,,,,,,,,,,,,,,,,,,,,,,
,,,,,,,,2023-08-16_08h54.38.414,HF_wild_card,2022.2.4,Win32,59.84798612,5c77d0f62cfc0000160c1958,64d2fd46c836a06233681665,64dc7ef406164ce71a53d28c,,,,,,,decisionTrl,resources/DY.BMP,resources/DB.BMP,Door2,-0.217499987,-0.073333359,1,0,0,0.6151,optionLeft,20,7160,4,1,0,1,0,1,,,,,,,,,,,,,,,,,,,,,,,,,,,,,,,,,,,,,,,
,,,,,,,,2023-08-16_08h54.38.414,HF_wild_card,2022.2.4,Win32,59.84798612,5c77d0f62cfc0000160c1958,64d2fd46c836a06233681665,64dc7ef406164ce71a53d28c,,,,,,,sngl,resources/Empty.png,resources/DY.BMP,Door2,0.199166679,-0.016666667,1,0,0,0.6489,optionRight,40,7200,4,2,0,2,0,1,,,,,,,,,,,,,,,,,,,,,,,,,,,,,,,,,,,,,,,
,,,,,,,,2023-08-16_08h54.38.414,HF_wild_card,2022.2.4,Win32,59.84798612,5c77d0f62cfc0000160c1958,64d2fd46c836a06233681665,64dc7ef406164ce71a53d28c,,,,,,,decisionTrl,resources/DB.BMP,resources/DY.BMP,Door1,-0.171666654,-0.058333333,1,0,0,1.1208,optionLeft,30,7230,4,3,0,3,0,1,,,,,,,,,,,,,,,,,,,,,,,,,,,,,,,,,,,,,,,
,,,,,,,,2023-08-16_08h54.38.414,HF_wild_card,2022.2.4,Win32,59.84798612,5c77d0f62cfc0000160c1958,64d2fd46c836a06233681665,64dc7ef406164ce71a53d28c,,,,,,,ctch,resources/DY.BMP,resources/DG.BMP,Door3,0.257500013,-0.001666673,1,0,0,1.2688,optionRight,70,7300,4,4,0,4,0,1,,,,,,,,,,,,,,,,,,,,,,,,,,,,,,,,,,,,,,,
,,,,,,,,2023-08-16_08h54.38.414,HF_wild_card,2022.2.4,Win32,59.84798612,5c77d0f62cfc0000160c1958,64d2fd46c836a06233681665,64dc7ef406164ce71a53d28c,,,,,,,sngl,resources/DBN.BMP,resources/Empty.png,WildCard_Ex,-0.192499987,-0.024166679,1,0,0,1.5235,optionLeft,55,7355,4,5,0,5,0,1,,,,,,,,,,,,,,,,,,,,,,,,,,,,,,,,,,,,,,,
,,,,,,,,2023-08-16_08h54.38.414,HF_wild_card,2022.2.4,Win32,59.84798612,5c77d0f62cfc0000160c1958,64d2fd46c836a06233681665,64dc7ef406164ce71a53d28c,,,,,,,decisionTrl,resources/DG.BMP,resources/DP.BMP,Door4,0.246666654,-0.011666679,1,0,0,0.9593,optionRight,80,7435,4,6,0,6,0,1,,,,,,,,,,,,,,,,,,,,,,,,,,,,,,,,,,,,,,,
,,,,,,,,2023-08-16_08h54.38.414,HF_wild_card,2022.2.4,Win32,59.84798612,5c77d0f62cfc0000160c1958,64d2fd46c836a06233681665,64dc7ef406164ce71a53d28c,,,,,,,sngl,resources/Empty.png,resources/DBN.BMP,WildCard_Ex,0.235000038,0.003333314,1,0,0,0.8024,optionRight,45,7480,4,7,0,7,0,1,,,,,,,,,,,,,,,,,,,,,,,,,,,,,,,,,,,,,,,
,,,,,,,,2023-08-16_08h54.38.414,HF_wild_card,2022.2.4,Win32,59.84798612,5c77d0f62cfc0000160c1958,64d2fd46c836a06233681665,64dc7ef406164ce71a53d28c,,,,,,,decisionTrl,resources/DY.BMP,resources/DB.BMP,Door1,0.335833359,0.008333333,1,0,0,1.5665,optionRight,30,7510,4,8,0,8,0,1,,,,,,,,,,,,,,,,,,,,,,,,,,,,,,,,,,,,,,,
,,,,,,,,2023-08-16_08h54.38.414,HF_wild_card,2022.2.4,Win32,59.84798612,5c77d0f62cfc0000160c1958,64d2fd46c836a06233681665,64dc7ef406164ce71a53d28c,,,,,,,decisionTrl,resources/DB.BMP,resources/DBN.BMP,WildCard_Ex,0.194166692,-0.000833352,1,0,0,1.0304,optionRight,45,7555,4,9,0,9,0,1,,,,,,,,,,,,,,,,,,,,,,,,,,,,,,,,,,,,,,,
,,,,,,,,2023-08-16_08h54.38.414,HF_wild_card,2022.2.4,Win32,59.84798612,5c77d0f62cfc0000160c1958,64d2fd46c836a06233681665,64dc7ef406164ce71a53d28c,,,,,,,decisionTrl,resources/DBN.BMP,resources/DY.BMP,WildCard_Ex,-0.164166641,-0.026666673,1,0,0,1.0866,optionLeft,45,7600,4,10,0,10,0,1,,,,,,,,,,,,,,,,,,,,,,,,,,,,,,,,,,,,,,,
,,,,,,,,2023-08-16_08h54.38.414,HF_wild_card,2022.2.4,Win32,59.84798612,5c77d0f62cfc0000160c1958,64d2fd46c836a06233681665,64dc7ef406164ce71a53d28c,,,,,,,decisionTrl,resources/DB.BMP,resources/DY.BMP,Door1,-0.184999975,-0.036666679,1,0,0,2.2916,optionLeft,30,7630,4,11,0,11,0,1,,,,,,,,,,,,,,,,,,,,,,,,,,,,,,,,,,,,,,,
,,,,,,,,2023-08-16_08h54.38.414,HF_wild_card,2022.2.4,Win32,59.84798612,5c77d0f62cfc0000160c1958,64d2fd46c836a06233681665,64dc7ef406164ce71a53d28c,,,,,,,decisionTrl,resources/DG.BMP,resources/DP.BMP,Door4,0.260833359,0.00666666,1,0,0,1.2326,optionRight,80,7710,4,12,0,12,0,1,,,,,,,,,,,,,,,,,,,,,,,,,,,,,,,,,,,,,,,
,,,,,,,,2023-08-16_08h54.38.414,HF_wild_card,2022.2.4,Win32,59.84798612,5c77d0f62cfc0000160c1958,64d2fd46c836a06233681665,64dc7ef406164ce71a53d28c,,,,,,,ctch,resources/DY.BMP,resources/DG.BMP,Door3,0.224166679,0.010000006,1,0,0,0.7652,optionRight,70,7780,4,13,0,13,0,1,,,,,,,,,,,,,,,,,,,,,,,,,,,,,,,,,,,,,,,
,,,,,,,,2023-08-16_08h54.38.414,HF_wild_card,2022.2.4,Win32,59.84798612,5c77d0f62cfc0000160c1958,64d2fd46c836a06233681665,64dc7ef406164ce71a53d28c,,,,,,,sngl,resources/DY.BMP,resources/Empty.png,Door2,-0.178333346,0.025833321,1,0,0,0.9169,optionLeft,20,7800,4,14,0,14,0,1,,,,,,,,,,,,,,,,,,,,,,,,,,,,,,,,,,,,,,,
,,,,,,,,2023-08-16_08h54.38.414,HF_wild_card,2022.2.4,Win32,59.84798612,5c77d0f62cfc0000160c1958,64d2fd46c836a06233681665,64dc7ef406164ce71a53d28c,,,,,,,decisionTrl,resources/DP.BMP,resources/DG.BMP,Door4,-0.233333333,0.000833321,1,0,0,1.453,optionLeft,80,7880,4,15,0,15,0,1,,,,,,,,,,,,,,,,,,,,,,,,,,,,,,,,,,,,,,,
,,,,,,,,2023-08-16_08h54.38.414,HF_wild_card,2022.2.4,Win32,59.84798612,5c77d0f62cfc0000160c1958,64d2fd46c836a06233681665,64dc7ef406164ce71a53d28c,,,,,,,ctch,resources/DG.BMP,resources/DY.BMP,Door3,-0.198333295,-0.010000006,1,0,0,1.153,optionLeft,70,7950,4,16,0,16,0,1,,,,,,,,,,,,,,,,,,,,,,,,,,,,,,,,,,,,,,,
,,,,,,,,2023-08-16_08h54.38.414,HF_wild_card,2022.2.4,Win32,59.84798612,5c77d0f62cfc0000160c1958,64d2fd46c836a06233681665,64dc7ef406164ce71a53d28c,,,,,,,sngl,resources/DP.BMP,resources/Empty.png,Door4,-0.253333346,-0.002499994,1,0,0,0.8324,optionLeft,60,8010,4,17,0,17,0,1,,,,,,,,,,,,,,,,,,,,,,,,,,,,,,,,,,,,,,,
,,,,,,,,2023-08-16_08h54.38.414,HF_wild_card,2022.2.4,Win32,59.84798612,5c77d0f62cfc0000160c1958,64d2fd46c836a06233681665,64dc7ef406164ce71a53d28c,,,,,,,decisionTrl,resources/DY.BMP,resources/DB.BMP,Door1,0.188333321,0.045833333,1,0,0,2.133,optionRight,30,8040,4,18,0,18,0,1,,,,,,,,,,,,,,,,,,,,,,,,,,,,,,,,,,,,,,,
,,,,,,,,2023-08-16_08h54.38.414,HF_wild_card,2022.2.4,Win32,59.84798612,5c77d0f62cfc0000160c1958,64d2fd46c836a06233681665,64dc7ef406164ce71a53d28c,,,,,,,sngl,resources/Empty.png,resources/DBN.BMP,WildCard_Ex,0.2,0.054166667,1,0,0,0.7828,optionRight,55,8095,4,19,0,19,0,1,,,,,,,,,,,,,,,,,,,,,,,,,,,,,,,,,,,,,,,
,,,,,,,,2023-08-16_08h54.38.414,HF_wild_card,2022.2.4,Win32,59.84798612,5c77d0f62cfc0000160c1958,64d2fd46c836a06233681665,64dc7ef406164ce71a53d28c,,,,,,,decisionTrl,resources/DG.BMP,resources/DBN.BMP,Door3,-0.285000006,-0.033333333,1,0,0,1.4327,optionLeft,70,8165,4,20,0,20,0,1,,,,,,,,,,,,,,,,,,,,,,,,,,,,,,,,,,,,,,,
,,,,,,,,2023-08-16_08h54.38.414,HF_wild_card,2022.2.4,Win32,59.84798612,5c77d0f62cfc0000160c1958,64d2fd46c836a06233681665,64dc7ef406164ce71a53d28c,,,,,,,decisionTrl,resources/DBN.BMP,resources/DB.BMP,WildCard_Ex,-0.316666667,-0.029166667,1,0,0,1.2164,optionLeft,45,8210,4,21,0,21,0,1,,,,,,,,,,,,,,,,,,,,,,,,,,,,,,,,,,,,,,,
,,,,,,,,2023-08-16_08h54.38.414,HF_wild_card,2022.2.4,Win32,59.84798612,5c77d0f62cfc0000160c1958,64d2fd46c836a06233681665,64dc7ef406164ce71a53d28c,,,,,,,decisionTrl,resources/DB.BMP,resources/DY.BMP,Door1,-0.332499981,-0.05,1,0,0,1.6879,optionLeft,30,8240,4,22,0,22,0,1,,,,,,,,,,,,,,,,,,,,,,,,,,,,,,,,,,,,,,,
,,,,,,,,2023-08-16_08h54.38.414,HF_wild_card,2022.2.4,Win32,59.84798612,5c77d0f62cfc0000160c1958,64d2fd46c836a06233681665,64dc7ef406164ce71a53d28c,,,,,,,decisionTrl,resources/DP.BMP,resources/DG.BMP,Door4,-0.316666667,-0.055833371,1,0,0,1.6538,optionLeft,80,8320,4,23,0,23,0,1,,,,,,,,,,,,,,,,,,,,,,,,,,,,,,,,,,,,,,,
,,,,,,,,2023-08-16_08h54.38.414,HF_wild_card,2022.2.4,Win32,59.84798612,5c77d0f62cfc0000160c1958,64d2fd46c836a06233681665,64dc7ef406164ce71a53d28c,,,,,,,decisionTrl,resources/DY.BMP,resources/DB.BMP,Door1,0.239166705,0.040833314,1,0,0,2.1499,optionRight,30,8350,4,24,0,24,0,1,,,,,,,,,,,,,,,,,,,,,,,,,,,,,,,,,,,,,,,
,,,,,,,,2023-08-16_08h54.38.414,HF_wild_card,2022.2.4,Win32,59.84798612,5c77d0f62cfc0000160c1958,64d2fd46c836a06233681665,64dc7ef406164ce71a53d28c,,,,,,,sngl,resources/Empty.png,resources/DB.BMP,Door1,0.232500013,0.035000006,1,0,0,0.6489,optionRight,30,8380,4,25,0,25,0,1,,,,,,,,,,,,,,,,,,,,,,,,,,,,,,,,,,,,,,,
,,,,,,,,2023-08-16_08h54.38.414,HF_wild_card,2022.2.4,Win32,59.84798612,5c77d0f62cfc0000160c1958,64d2fd46c836a06233681665,64dc7ef406164ce71a53d28c,,,,,,,sngl,resources/DBN.BMP,resources/Empty.png,WildCard_Ex,-0.144166629,0.004999987,1,0,0,0.849,optionLeft,45,8425,4,26,0,26,0,1,,,,,,,,,,,,,,,,,,,,,,,,,,,,,,,,,,,,,,,
,,,,,,,,2023-08-16_08h54.38.414,HF_wild_card,2022.2.4,Win32,59.84798612,5c77d0f62cfc0000160c1958,64d2fd46c836a06233681665,64dc7ef406164ce71a53d28c,,,,,,,ctch,resources/DP.BMP,resources/DB.BMP,Door4,-0.230833308,-0.004166667,1,0,0,0.8654,optionLeft,80,8505,4,27,0,27,0,1,,,,,,,,,,,,,,,,,,,,,,,,,,,,,,,,,,,,,,,
,,,,,,,,2023-08-16_08h54.38.414,HF_wild_card,2022.2.4,Win32,59.84798612,5c77d0f62cfc0000160c1958,64d2fd46c836a06233681665,64dc7ef406164ce71a53d28c,,,,,,,sngl,resources/DB.BMP,resources/Empty.png,Door1,-0.239166641,0.09416666,1,0,0,0.8986,optionLeft,30,8535,4,28,0,28,0,1,,,,,,,,,,,,,,,,,,,,,,,,,,,,,,,,,,,,,,,
,,,,,,,,2023-08-16_08h54.38.414,HF_wild_card,2022.2.4,Win32,59.84798612,5c77d0f62cfc0000160c1958,64d2fd46c836a06233681665,64dc7ef406164ce71a53d28c,,,,,,,sngl,resources/Empty.png,resources/DP.BMP,Door4,0.255833371,0.048333327,1,0,0,0.6824,optionRight,80,8615,4,29,0,29,0,1,,,,,,,,,,,,,,,,,,,,,,,,,,,,,,,,,,,,,,,
,,,,,,,,2023-08-16_08h54.38.414,HF_wild_card,2022.2.4,Win32,59.84798612,5c77d0f62cfc0000160c1958,64d2fd46c836a06233681665,64dc7ef406164ce71a53d28c,,,,,,,decisionTrl,resources/DBN.BMP,resources/DG.BMP,Door3,0.309999975,0.059166654,1,0,0,0.9641,optionRight,70,8685,4,30,0,30,0,1,,,,,,,,,,,,,,,,,,,,,,,,,,,,,,,,,,,,,,,
,,,,,,,,2023-08-16_08h54.38.414,HF_wild_card,2022.2.4,Win32,59.84798612,5c77d0f62cfc0000160c1958,64d2fd46c836a06233681665,64dc7ef406164ce71a53d28c,,,,,,,ctch,resources/DP.BMP,resources/DB.BMP,Door4,-0.225,-0.004166667,1,0,0,0.7854,optionLeft,80,8765,4,31,0,31,0,1,,,,,,,,,,,,,,,,,,,,,,,,,,,,,,,,,,,,,,,
,,,,,,,,2023-08-16_08h54.38.414,HF_wild_card,2022.2.4,Win32,59.84798612,5c77d0f62cfc0000160c1958,64d2fd46c836a06233681665,64dc7ef406164ce71a53d28c,,,,,,,decisionTrl,resources/DBN.BMP,resources/DP.BMP,Door4,0.297499975,0.032499981,1,0,0,0.6336,optionRight,60,8825,4,32,0,32,0,1,,,,,,,,,,,,,,,,,,,,,,,,,,,,,,,,,,,,,,,
,,,,,,,,2023-08-16_08h54.38.414,HF_wild_card,2022.2.4,Win32,59.84798612,5c77d0f62cfc0000160c1958,64d2fd46c836a06233681665,64dc7ef406164ce71a53d28c,,,,,,,decisionTrl,resources/DP.BMP,resources/DG.BMP,Door4,-0.175,0.0125,1,0,0,0.7844,optionLeft,60,8885,4,33,0,33,0,1,,,,,,,,,,,,,,,,,,,,,,,,,,,,,,,,,,,,,,,
,,,,,,,,2023-08-16_08h54.38.414,HF_wild_card,2022.2.4,Win32,59.84798612,5c77d0f62cfc0000160c1958,64d2fd46c836a06233681665,64dc7ef406164ce71a53d28c,,,,,,,ctch,resources/DG.BMP,resources/DY.BMP,Door3,-0.220000013,0.007499981,1,0,0,0.7008,optionLeft,70,8955,4,34,0,34,0,1,,,,,,,,,,,,,,,,,,,,,,,,,,,,,,,,,,,,,,,
,,,,,,,,2023-08-16_08h54.38.414,HF_wild_card,2022.2.4,Win32,59.84798612,5c77d0f62cfc0000160c1958,64d2fd46c836a06233681665,64dc7ef406164ce71a53d28c,,,,,,,ctch,resources/DB.BMP,resources/DP.BMP,Door4,0.289166641,0.035833327,1,0,0,0.714,optionRight,80,9035,4,35,0,35,0,1,,,,,,,,,,,,,,,,,,,,,,,,,,,,,,,,,,,,,,,
,,,,,,,,2023-08-16_08h54.38.414,HF_wild_card,2022.2.4,Win32,59.84798612,5c77d0f62cfc0000160c1958,64d2fd46c836a06233681665,64dc7ef406164ce71a53d28c,,,,,,,sngl,resources/DG.BMP,resources/Empty.png,Door3,-0.222499975,0.007499981,1,0,0,0.6655,optionLeft,70,9105,4,36,0,36,0,1,,,,,,,,,,,,,,,,,,,,,,,,,,,,,,,,,,,,,,,
,,,,,,,,2023-08-16_08h54.38.414,HF_wild_card,2022.2.4,Win32,59.84798612,5c77d0f62cfc0000160c1958,64d2fd46c836a06233681665,64dc7ef406164ce71a53d28c,,,,,,,decisionTrl,resources/DP.BMP,resources/DBN.BMP,Door4,-0.191666667,0.015833314,1,0,0,1.0657,optionLeft,80,9185,4,37,0,37,0,1,,,,,,,,,,,,,,,,,,,,,,,,,,,,,,,,,,,,,,,
,,,,,,,,2023-08-16_08h54.38.414,HF_wild_card,2022.2.4,Win32,59.84798612,5c77d0f62cfc0000160c1958,64d2fd46c836a06233681665,64dc7ef406164ce71a53d28c,,,,,,,ctch,resources/DB.BMP,resources/DP.BMP,Door4,0.285833359,0.049166648,1,0,0,0.6491,optionRight,60,9245,4,38,0,38,0,1,,,,,,,,,,,,,,,,,,,,,,,,,,,,,,,,,,,,,,,
,,,,,,,,2023-08-16_08h54.38.414,HF_wild_card,2022.2.4,Win32,59.84798612,5c77d0f62cfc0000160c1958,64d2fd46c836a06233681665,64dc7ef406164ce71a53d28c,,,,,,,sngl,resources/Empty.png,resources/DG.BMP,Door3,0.342500051,0.064166673,1,0,0,0.632,optionRight,70,9315,4,39,0,39,0,1,,,,,,,,,,,,,,,,,,,,,,,,,,,,,,,,,,,,,,,
,,,,,,,,2023-08-16_08h54.38.414,HF_wild_card,2022.2.4,Win32,59.84798612,5c77d0f62cfc0000160c1958,64d2fd46c836a06233681665,64dc7ef406164ce71a53d28c,,,,,,,decisionTrl,resources/DG.BMP,resources/DP.BMP,Door3,-0.180833308,0.01833334,1,0,0,2.0857,optionLeft,70,9385,4,40,0,40,0,1,,,,,,,,,,,,,,,,,,,,,,,,,,,,,,,,,,,,,,,
,,,,,,,,2023-08-16_08h54.38.414,HF_wild_card,2022.2.4,Win32,59.84798612,5c77d0f62cfc0000160c1958,64d2fd46c836a06233681665,64dc7ef406164ce71a53d28c,,,,,,,decisionTrl,resources/DP.BMP,resources/DG.BMP,Door4,-0.256666629,-0.022500006,1,0,0,0.7504,optionLeft,60,9445,4,41,0,41,0,1,,,,,,,,,,,,,,,,,,,,,,,,,,,,,,,,,,,,,,,
,,,,,,,,2023-08-16_08h54.38.414,HF_wild_card,2022.2.4,Win32,59.84798612,5c77d0f62cfc0000160c1958,64d2fd46c836a06233681665,64dc7ef406164ce71a53d28c,,,,,,,decisionTrl,resources/DY.BMP,resources/DBN.BMP,WildCard_Ex,0.269166692,0.028333314,1,0,0,1.1492,optionRight,55,9500,4,42,0,42,0,1,,,,,,,,,,,,,,,,,,,,,,,,,,,,,,,,,,,,,,,
,,,,,,,,2023-08-16_08h54.38.414,HF_wild_card,2022.2.4,Win32,59.84798612,5c77d0f62cfc0000160c1958,64d2fd46c836a06233681665,64dc7ef406164ce71a53d28c,,,,,,,decisionTrl,resources/DG.BMP,resources/DP.BMP,Door4,0.295833333,0.026666673,1,0,0,0.8635,optionRight,80,9580,4,43,0,43,0,1,,,,,,,,,,,,,,,,,,,,,,,,,,,,,,,,,,,,,,,
,,,,,,,,2023-08-16_08h54.38.414,HF_wild_card,2022.2.4,Win32,59.84798612,5c77d0f62cfc0000160c1958,64d2fd46c836a06233681665,64dc7ef406164ce71a53d28c,,,,,,,,,,,,,,,,,,,,,,,,,,3,0,3,0,1,,,,,,,,,,,,,,,,,,,,,,,,,,,,,,,,,,
,,,,,,,,2023-08-16_08h54.38.414,HF_wild_card,2022.2.4,Win32,59.84798612,5c77d0f62cfc0000160c1958,64d2fd46c836a06233681665,64dc7ef406164ce71a53d28c,,,,,,,sngl,resources/DBN.BMP,resources/Empty.png,WildCard_Ex,-0.195833333,-0.074166679,1,0,0,0.7415,optionLeft,55,9635,5,0,0,0,0,1,,,,,,,,,,,,,,,,,,,,,,,,,,,,,,,,,,,,,,,
,,,,,,,,2023-08-16_08h54.38.414,HF_wild_card,2022.2.4,Win32,59.84798612,5c77d0f62cfc0000160c1958,64d2fd46c836a06233681665,64dc7ef406164ce71a53d28c,,,,,,,decisionTrl,resources/DG.BMP,resources/DP.BMP,Door4,0.272499975,-0.016666667,1,0,0,0.8917,optionRight,80,9715,5,1,0,1,0,1,,,,,,,,,,,,,,,,,,,,,,,,,,,,,,,,,,,,,,,
,,,,,,,,2023-08-16_08h54.38.414,HF_wild_card,2022.2.4,Win32,59.84798612,5c77d0f62cfc0000160c1958,64d2fd46c836a06233681665,64dc7ef406164ce71a53d28c,,,,,,,sngl,resources/Empty.png,resources/DBN.BMP,WildCard_Ex,0.208333333,-0.01833334,1,0,0,0.6957,optionRight,55,9770,5,2,0,2,0,1,,,,,,,,,,,,,,,,,,,,,,,,,,,,,,,,,,,,,,,
,,,,,,,,2023-08-16_08h54.38.414,HF_wild_card,2022.2.4,Win32,59.84798612,5c77d0f62cfc0000160c1958,64d2fd46c836a06233681665,64dc7ef406164ce71a53d28c,,,,,,,ctch,resources/DP.BMP,resources/DB.BMP,Door4,-0.3,-0.03166666,1,0,0,0.699,optionLeft,60,9830,5,3,0,3,0,1,,,,,,,,,,,,,,,,,,,,,,,,,,,,,,,,,,,,,,,
,,,,,,,,2023-08-16_08h54.38.414,HF_wild_card,2022.2.4,Win32,59.84798612,5c77d0f62cfc0000160c1958,64d2fd46c836a06233681665,64dc7ef406164ce71a53d28c,,,,,,,decisionTrl,resources/DB.BMP,resources/DY.BMP,Door1,-0.271666654,-0.041666667,1,0,0,1.7028,optionLeft,30,9860,5,4,0,4,0,1,,,,,,,,,,,,,,,,,,,,,,,,,,,,,,,,,,,,,,,
,,,,,,,,2023-08-16_08h54.38.414,HF_wild_card,2022.2.4,Win32,59.84798612,5c77d0f62cfc0000160c1958,64d2fd46c836a06233681665,64dc7ef406164ce71a53d28c,,,,,,,decisionTrl,resources/DB.BMP,resources/DY.BMP,Door1,-0.249166679,-0.015833346,1,0,0,0.6488,optionLeft,30,9890,5,5,0,5,0,1,,,,,,,,,,,,,,,,,,,,,,,,,,,,,,,,,,,,,,,
,,,,,,,,2023-08-16_08h54.38.414,HF_wild_card,2022.2.4,Win32,59.84798612,5c77d0f62cfc0000160c1958,64d2fd46c836a06233681665,64dc7ef406164ce71a53d28c,,,,,,,decisionTrl,resources/DP.BMP,resources/DG.BMP,Door4,-0.255833308,-0.035833359,1,0,0,0.8962,optionLeft,80,9970,5,6,0,6,0,1,,,,,,,,,,,,,,,,,,,,,,,,,,,,,,,,,,,,,,,
,,,,,,,,2023-08-16_08h54.38.414,HF_wild_card,2022.2.4,Win32,59.84798612,5c77d0f62cfc0000160c1958,64d2fd46c836a06233681665,64dc7ef406164ce71a53d28c,,,,,,,decisionTrl,resources/DG.BMP,resources/DP.BMP,Door4,0.290000025,-0.01916666,1,0,0,0.8823,optionRight,80,10050,5,7,0,7,0,1,,,,,,,,,,,,,,,,,,,,,,,,,,,,,,,,,,,,,,,
,,,,,,,,2023-08-16_08h54.38.414,HF_wild_card,2022.2.4,Win32,59.84798612,5c77d0f62cfc0000160c1958,64d2fd46c836a06233681665,64dc7ef406164ce71a53d28c,,,,,,,ctch,resources/DP.BMP,resources/DB.BMP,Door4,-0.190833346,-0.03166666,1,0,0,0.7159,optionLeft,60,10110,5,8,0,8,0,1,,,,,,,,,,,,,,,,,,,,,,,,,,,,,,,,,,,,,,,
,,,,,,,,2023-08-16_08h54.38.414,HF_wild_card,2022.2.4,Win32,59.84798612,5c77d0f62cfc0000160c1958,64d2fd46c836a06233681665,64dc7ef406164ce71a53d28c,,,,,,,decisionTrl,resources/DY.BMP,resources/DB.BMP,Door2,-0.136666679,-0.01833334,1,0,0,0.9535,optionLeft,40,10150,5,9,0,9,0,1,,,,,,,,,,,,,,,,,,,,,,,,,,,,,,,,,,,,,,,
,,,,,,,,2023-08-16_08h54.38.414,HF_wild_card,2022.2.4,Win32,59.84798612,5c77d0f62cfc0000160c1958,64d2fd46c836a06233681665,64dc7ef406164ce71a53d28c,,,,,,,decisionTrl,resources/DBN.BMP,resources/DG.BMP,Door3,0.3,-0.005000019,1,0,0,1.3993,optionRight,70,10220,5,10,0,10,0,1,,,,,,,,,,,,,,,,,,,,,,,,,,,,,,,,,,,,,,,
,,,,,,,,2023-08-16_08h54.38.414,HF_wild_card,2022.2.4,Win32,59.84798612,5c77d0f62cfc0000160c1958,64d2fd46c836a06233681665,64dc7ef406164ce71a53d28c,,,,,,,sngl,resources/DB.BMP,resources/Empty.png,Door1,-0.184999975,-0.0125,1,0,0,0.849,optionLeft,30,10250,5,11,0,11,0,1,,,,,,,,,,,,,,,,,,,,,,,,,,,,,,,,,,,,,,,
,,,,,,,,2023-08-16_08h54.38.414,HF_wild_card,2022.2.4,Win32,59.84798612,5c77d0f62cfc0000160c1958,64d2fd46c836a06233681665,64dc7ef406164ce71a53d28c,,,,,,,ctch,resources/DB.BMP,resources/DP.BMP,Door4,0.284999975,-0.010000006,1,0,0,0.7848,optionRight,60,10310,5,12,0,12,0,1,,,,,,,,,,,,,,,,,,,,,,,,,,,,,,,,,,,,,,,
,,,,,,,,2023-08-16_08h54.38.414,HF_wild_card,2022.2.4,Win32,59.84798612,5c77d0f62cfc0000160c1958,64d2fd46c836a06233681665,64dc7ef406164ce71a53d28c,,,,,,,sngl,resources/Empty.png,resources/DBN.BMP,WildCard_Ex,0.220000013,0.010000006,1,0,0,0.7155,optionRight,45,10355,5,13,0,13,0,1,,,,,,,,,,,,,,,,,,,,,,,,,,,,,,,,,,,,,,,
,,,,,,,,2023-08-16_08h54.38.414,HF_wild_card,2022.2.4,Win32,59.84798612,5c77d0f62cfc0000160c1958,64d2fd46c836a06233681665,64dc7ef406164ce71a53d28c,,,,,,,decisionTrl,resources/DG.BMP,resources/DBN.BMP,Door3,-0.195833333,0.024166648,1,0,0,0.8491,optionLeft,70,10425,5,14,0,14,0,1,,,,,,,,,,,,,,,,,,,,,,,,,,,,,,,,,,,,,,,
,,,,,,,,2023-08-16_08h54.38.414,HF_wild_card,2022.2.4,Win32,59.84798612,5c77d0f62cfc0000160c1958,64d2fd46c836a06233681665,64dc7ef406164ce71a53d28c,,,,,,,decisionTrl,resources/DP.BMP,resources/DG.BMP,Door4,-0.258333333,0.064166673,1,0,0,0.9576,optionLeft,80,10505,5,15,0,15,0,1,,,,,,,,,,,,,,,,,,,,,,,,,,,,,,,,,,,,,,,
,,,,,,,,2023-08-16_08h54.38.414,HF_wild_card,2022.2.4,Win32,59.84798612,5c77d0f62cfc0000160c1958,64d2fd46c836a06233681665,64dc7ef406164ce71a53d28c,,,,,,,decisionTrl,resources/DB.BMP,resources/DY.BMP,Door2,0.249166679,0.040833314,1,0,0,0.9699,optionRight,40,10545,5,16,0,16,0,1,,,,,,,,,,,,,,,,,,,,,,,,,,,,,,,,,,,,,,,
,,,,,,,,2023-08-16_08h54.38.414,HF_wild_card,2022.2.4,Win32,59.84798612,5c77d0f62cfc0000160c1958,64d2fd46c836a06233681665,64dc7ef406164ce71a53d28c,,,,,,,decisionTrl,resources/DP.BMP,resources/DG.BMP,Door4,-0.259166654,0.002499994,1,0,0,0.7657,optionLeft,80,10625,5,17,0,17,0,1,,,,,,,,,,,,,,,,,,,,,,,,,,,,,,,,,,,,,,,
,,,,,,,,2023-08-16_08h54.38.414,HF_wild_card,2022.2.4,Win32,59.84798612,5c77d0f62cfc0000160c1958,64d2fd46c836a06233681665,64dc7ef406164ce71a53d28c,,,,,,,sngl,resources/DP.BMP,resources/Empty.png,Door4,-0.274166648,-0.009166686,1,0,0,0.6822,optionLeft,80,10705,5,18,0,18,0,1,,,,,,,,,,,,,,,,,,,,,,,,,,,,,,,,,,,,,,,
,,,,,,,,2023-08-16_08h54.38.414,HF_wild_card,2022.2.4,Win32,59.84798612,5c77d0f62cfc0000160c1958,64d2fd46c836a06233681665,64dc7ef406164ce71a53d28c,,,,,,,decisionTrl,resources/DG.BMP,resources/DP.BMP,Door4,0.250833321,-0.005000019,1,0,0,1.1159,optionRight,60,10765,5,19,0,19,0,1,,,,,,,,,,,,,,,,,,,,,,,,,,,,,,,,,,,,,,,
,,,,,,,,2023-08-16_08h54.38.414,HF_wild_card,2022.2.4,Win32,59.84798612,5c77d0f62cfc0000160c1958,64d2fd46c836a06233681665,64dc7ef406164ce71a53d28c,,,,,,,ctch,resources/DB.BMP,resources/DP.BMP,Door4,0.295833333,0.010833327,1,0,0,0.9994,optionRight,80,10845,5,20,0,20,0,1,,,,,,,,,,,,,,,,,,,,,,,,,,,,,,,,,,,,,,,
,,,,,,,,2023-08-16_08h54.38.414,HF_wild_card,2022.2.4,Win32,59.84798612,5c77d0f62cfc0000160c1958,64d2fd46c836a06233681665,64dc7ef406164ce71a53d28c,,,,,,,decisionTrl,resources/DY.BMP,resources/DB.BMP,Door2,-0.208333333,0.011666648,1,0,0,1.0324,optionLeft,20,10865,5,21,0,21,0,1,,,,,,,,,,,,,,,,,,,,,,,,,,,,,,,,,,,,,,,
,,,,,,,,2023-08-16_08h54.38.414,HF_wild_card,2022.2.4,Win32,59.84798612,5c77d0f62cfc0000160c1958,64d2fd46c836a06233681665,64dc7ef406164ce71a53d28c,,,,,,,decisionTrl,resources/DB.BMP,resources/DY.BMP,Door2,0.291666667,0.004999987,1,0,0,0.7018,optionRight,20,10885,5,22,0,22,0,1,,,,,,,,,,,,,,,,,,,,,,,,,,,,,,,,,,,,,,,
,,,,,,,,2023-08-16_08h54.38.414,HF_wild_card,2022.2.4,Win32,59.84798612,5c77d0f62cfc0000160c1958,64d2fd46c836a06233681665,64dc7ef406164ce71a53d28c,,,,,,,sngl,resources/Empty.png,resources/DP.BMP,Door4,0.345000076,0.014999994,1,0,0,0.6149,optionRight,60,10945,5,23,0,23,0,1,,,,,,,,,,,,,,,,,,,,,,,,,,,,,,,,,,,,,,,
,,,,,,,,2023-08-16_08h54.38.414,HF_wild_card,2022.2.4,Win32,59.84798612,5c77d0f62cfc0000160c1958,64d2fd46c836a06233681665,64dc7ef406164ce71a53d28c,,,,,,,decisionTrl,resources/DBN.BMP,resources/DB.BMP,WildCard_Ex,-0.155833308,0.003333314,1,0,0,1.2991,optionLeft,55,11000,5,24,0,24,0,1,,,,,,,,,,,,,,,,,,,,,,,,,,,,,,,,,,,,,,,
,,,,,,,,2023-08-16_08h54.38.414,HF_wild_card,2022.2.4,Win32,59.84798612,5c77d0f62cfc0000160c1958,64d2fd46c836a06233681665,64dc7ef406164ce71a53d28c,,,,,,,decisionTrl,resources/DP.BMP,resources/DBN.BMP,Door4,-0.188333321,0.00583334,1,0,0,0.8358,optionLeft,80,11080,5,25,0,25,0,1,,,,,,,,,,,,,,,,,,,,,,,,,,,,,,,,,,,,,,,
,,,,,,,,2023-08-16_08h54.38.414,HF_wild_card,2022.2.4,Win32,59.84798612,5c77d0f62cfc0000160c1958,64d2fd46c836a06233681665,64dc7ef406164ce71a53d28c,,,,,,,decisionTrl,resources/DBN.BMP,resources/DY.BMP,WildCard_Ex,-0.175,-0.000833352,1,0,0,1.1328,optionLeft,45,11125,5,26,0,26,0,1,,,,,,,,,,,,,,,,,,,,,,,,,,,,,,,,,,,,,,,
,,,,,,,,2023-08-16_08h54.38.414,HF_wild_card,2022.2.4,Win32,59.84798612,5c77d0f62cfc0000160c1958,64d2fd46c836a06233681665,64dc7ef406164ce71a53d28c,,,,,,,ctch,resources/DY.BMP,resources/DG.BMP,Door3,0.34083341,0.0125,1,0,0,1.0543,optionRight,70,11195,5,27,0,27,0,1,,,,,,,,,,,,,,,,,,,,,,,,,,,,,,,,,,,,,,,
,,,,,,,,2023-08-16_08h54.38.414,HF_wild_card,2022.2.4,Win32,59.84798612,5c77d0f62cfc0000160c1958,64d2fd46c836a06233681665,64dc7ef406164ce71a53d28c,,,,,,,decisionTrl,resources/DY.BMP,resources/DB.BMP,Door1,0.248333359,0.021666654,1,0,0,1.7199,optionRight,30,11225,5,28,0,28,0,1,,,,,,,,,,,,,,,,,,,,,,,,,,,,,,,,,,,,,,,
,,,,,,,,2023-08-16_08h54.38.414,HF_wild_card,2022.2.4,Win32,59.84798612,5c77d0f62cfc0000160c1958,64d2fd46c836a06233681665,64dc7ef406164ce71a53d28c,,,,,,,sngl,resources/Empty.png,resources/DG.BMP,Door3,0.27833341,0.032499981,1,0,0,0.6656,optionRight,70,11295,5,29,0,29,0,1,,,,,,,,,,,,,,,,,,,,,,,,,,,,,,,,,,,,,,,
,,,,,,,,2023-08-16_08h54.38.414,HF_wild_card,2022.2.4,Win32,59.84798612,5c77d0f62cfc0000160c1958,64d2fd46c836a06233681665,64dc7ef406164ce71a53d28c,,,,,,,sngl,resources/Empty.png,resources/DY.BMP,Door2,0.224166679,0.029166667,1,0,0,0.749,optionRight,20,11315,5,30,0,30,0,1,,,,,,,,,,,,,,,,,,,,,,,,,,,,,,,,,,,,,,,
,,,,,,,,2023-08-16_08h54.38.414,HF_wild_card,2022.2.4,Win32,59.84798612,5c77d0f62cfc0000160c1958,64d2fd46c836a06233681665,64dc7ef406164ce71a53d28c,,,,,,,decisionTrl,resources/DG.BMP,resources/DP.BMP,Door4,0.245833333,0.01916666,1,0,0,0.9789,optionRight,80,11395,5,31,0,31,0,1,,,,,,,,,,,,,,,,,,,,,,,,,,,,,,,,,,,,,,,
,,,,,,,,2023-08-16_08h54.38.414,HF_wild_card,2022.2.4,Win32,59.84798612,5c77d0f62cfc0000160c1958,64d2fd46c836a06233681665,64dc7ef406164ce71a53d28c,,,,,,,decisionTrl,resources/DB.BMP,resources/DBN.BMP,WildCard_Ex,0.309166718,0.025833321,1,0,0,1.0826,optionRight,55,11450,5,32,0,32,0,1,,,,,,,,,,,,,,,,,,,,,,,,,,,,,,,,,,,,,,,
,,,,,,,,2023-08-16_08h54.38.414,HF_wild_card,2022.2.4,Win32,59.84798612,5c77d0f62cfc0000160c1958,64d2fd46c836a06233681665,64dc7ef406164ce71a53d28c,,,,,,,sngl,resources/Empty.png,resources/DB.BMP,Door1,0.193333371,0.008333333,1,0,0,0.6656,optionRight,30,11480,5,33,0,33,0,1,,,,,,,,,,,,,,,,,,,,,,,,,,,,,,,,,,,,,,,
,,,,,,,,2023-08-16_08h54.38.414,HF_wild_card,2022.2.4,Win32,59.84798612,5c77d0f62cfc0000160c1958,64d2fd46c836a06233681665,64dc7ef406164ce71a53d28c,,,,,,,sngl,resources/DBN.BMP,resources/Empty.png,WildCard_Ex,-0.193333308,0.004999987,1,0,0,0.8489,optionLeft,45,11525,5,34,0,34,0,1,,,,,,,,,,,,,,,,,,,,,,,,,,,,,,,,,,,,,,,
,,,,,,,,2023-08-16_08h54.38.414,HF_wild_card,2022.2.4,Win32,59.84798612,5c77d0f62cfc0000160c1958,64d2fd46c836a06233681665,64dc7ef406164ce71a53d28c,,,,,,,sngl,resources/DY.BMP,resources/Empty.png,Door2,-0.155833308,0.010000006,1,0,0,0.7327,optionLeft,40,11565,5,35,0,35,0,1,,,,,,,,,,,,,,,,,,,,,,,,,,,,,,,,,,,,,,,
,,,,,,,,2023-08-16_08h54.38.414,HF_wild_card,2022.2.4,Win32,59.84798612,5c77d0f62cfc0000160c1958,64d2fd46c836a06233681665,64dc7ef406164ce71a53d28c,,,,,,,decisionTrl,resources/DP.BMP,resources/DG.BMP,Door4,-0.194166629,0.019999981,1,0,0,0.933,optionLeft,80,11645,5,36,0,36,0,1,,,,,,,,,,,,,,,,,,,,,,,,,,,,,,,,,,,,,,,
,,,,,,,,2023-08-16_08h54.38.414,HF_wild_card,2022.2.4,Win32,59.84798612,5c77d0f62cfc0000160c1958,64d2fd46c836a06233681665,64dc7ef406164ce71a53d28c,,,,,,,decisionTrl,resources/DY.BMP,resources/DBN.BMP,WildCard_Ex,0.225,0.017499987,1,0,0,1.2665,optionRight,55,11700,5,37,0,37,0,1,,,,,,,,,,,,,,,,,,,,,,,,,,,,,,,,,,,,,,,
,,,,,,,,2023-08-16_08h54.38.414,HF_wild_card,2022.2.4,Win32,59.84798612,5c77d0f62cfc0000160c1958,64d2fd46c836a06233681665,64dc7ef406164ce71a53d28c,,,,,,,decisionTrl,resources/DY.BMP,resources/DB.BMP,Door2,-0.125833321,-0.017500019,1,0,0,1.1332,optionLeft,40,11740,5,38,0,38,0,1,,,,,,,,,,,,,,,,,,,,,,,,,,,,,,,,,,,,,,,
,,,,,,,,2023-08-16_08h54.38.414,HF_wild_card,2022.2.4,Win32,59.84798612,5c77d0f62cfc0000160c1958,64d2fd46c836a06233681665,64dc7ef406164ce71a53d28c,,,,,,,ctch,resources/DG.BMP,resources/DY.BMP,Door3,-0.225833321,-0.011666679,1,0,0,0.9493,optionLeft,70,11810,5,39,0,39,0,1,,,,,,,,,,,,,,,,,,,,,,,,,,,,,,,,,,,,,,,
,,,,,,,,2023-08-16_08h54.38.414,HF_wild_card,2022.2.4,Win32,59.84798612,5c77d0f62cfc0000160c1958,64d2fd46c836a06233681665,64dc7ef406164ce71a53d28c,,,,,,,sngl,resources/DG.BMP,resources/Empty.png,Door3,-0.160833295,0.001666673,1,0,0,0.6159,optionLeft,70,11880,5,40,0,40,0,1,,,,,,,,,,,,,,,,,,,,,,,,,,,,,,,,,,,,,,,
,,,,,,,,2023-08-16_08h54.38.414,HF_wild_card,2022.2.4,Win32,59.84798612,5c77d0f62cfc0000160c1958,64d2fd46c836a06233681665,64dc7ef406164ce71a53d28c,,,,,,,decisionTrl,resources/DBN.BMP,resources/DP.BMP,Door4,0.209166654,0.014999994,1,0,0,0.7822,optionRight,80,11960,5,41,0,41,0,1,,,,,,,,,,,,,,,,,,,,,,,,,,,,,,,,,,,,,,,
,,,,,,,,2023-08-16_08h54.38.414,HF_wild_card,2022.2.4,Win32,59.84798612,5c77d0f62cfc0000160c1958,64d2fd46c836a06233681665,64dc7ef406164ce71a53d28c,,,,,,,ctch,resources/DY.BMP,resources/DG.BMP,Door3,0.166666667,0.004166667,1,0,0,0.8825,optionRight,70,12030,5,42,0,42,0,1,,,,,,,,,,,,,,,,,,,,,,,,,,,,,,,,,,,,,,,
,,,,,,,,2023-08-16_08h54.38.414,HF_wild_card,2022.2.4,Win32,59.84798612,5c77d0f62cfc0000160c1958,64d2fd46c836a06233681665,64dc7ef406164ce71a53d28c,,,,,,,ctch,resources/DG.BMP,resources/DY.BMP,Door3,-0.245000013,-0.001666673,1,0,0,0.8827,optionLeft,70,12100,5,43,0,43,0,1,,,,,,,,,,,,,,,,,,,,,,,,,,,,,,,,,,,,,,,
,,,,,,,,2023-08-16_08h54.38.414,HF_wild_card,2022.2.4,Win32,59.84798612,5c77d0f62cfc0000160c1958,64d2fd46c836a06233681665,64dc7ef406164ce71a53d28c,,,,,,,,,,,,,,,,,,,,,,,,,,4,0,4,0,1,,,,,,,,,,,,,,,,,,,,,,,,,,,,,,,,,,
,,,,,,,,2023-08-16_08h54.38.414,HF_wild_card,2022.2.4,Win32,59.84798612,5c77d0f62cfc0000160c1958,64d2fd46c836a06233681665,64dc7ef406164ce71a53d28c,,,,,,,decisionTrl,resources/DY.BMP,resources/DBN.BMP,WildCard_Ex,0.369166692,0.059166654,1,0,0,1.4984,optionRight,55,12155,6,0,0,0,0,1,,,,,,,,,,,,,,,,,,,,,,,,,,,,,,,,,,,,,,,
,,,,,,,,2023-08-16_08h54.38.414,HF_wild_card,2022.2.4,Win32,59.84798612,5c77d0f62cfc0000160c1958,64d2fd46c836a06233681665,64dc7ef406164ce71a53d28c,,,,,,,decisionTrl,resources/DB.BMP,resources/DY.BMP,Door2,0.173333359,0.000833321,1,0,0,1.9664,optionRight,20,12175,6,1,0,1,0,1,,,,,,,,,,,,,,,,,,,,,,,,,,,,,,,,,,,,,,,
,,,,,,,,2023-08-16_08h54.38.414,HF_wild_card,2022.2.4,Win32,59.84798612,5c77d0f62cfc0000160c1958,64d2fd46c836a06233681665,64dc7ef406164ce71a53d28c,,,,,,,decisionTrl,resources/DBN.BMP,resources/DY.BMP,WildCard_Ex,-0.239999962,-0.030000019,1,0,0,0.8993,optionLeft,45,12220,6,2,0,2,0,1,,,,,,,,,,,,,,,,,,,,,,,,,,,,,,,,,,,,,,,
,,,,,,,,2023-08-16_08h54.38.414,HF_wild_card,2022.2.4,Win32,59.84798612,5c77d0f62cfc0000160c1958,64d2fd46c836a06233681665,64dc7ef406164ce71a53d28c,,,,,,,ctch,resources/DY.BMP,resources/DG.BMP,Door3,0.191666667,-0.00583334,1,0,0,1.1159,optionRight,70,12290,6,3,0,3,0,1,,,,,,,,,,,,,,,,,,,,,,,,,,,,,,,,,,,,,,,
,,,,,,,,2023-08-16_08h54.38.414,HF_wild_card,2022.2.4,Win32,59.84798612,5c77d0f62cfc0000160c1958,64d2fd46c836a06233681665,64dc7ef406164ce71a53d28c,,,,,,,decisionTrl,resources/DBN.BMP,resources/DP.BMP,Door4,0.207500013,0.003333314,1,0,0,0.6991,optionRight,80,12370,6,4,0,4,0,1,,,,,,,,,,,,,,,,,,,,,,,,,,,,,,,,,,,,,,,
,,,,,,,,2023-08-16_08h54.38.414,HF_wild_card,2022.2.4,Win32,59.84798612,5c77d0f62cfc0000160c1958,64d2fd46c836a06233681665,64dc7ef406164ce71a53d28c,,,,,,,sngl,resources/DBN.BMP,resources/Empty.png,WildCard_Ex,-0.183333333,-0.023333327,1,0,0,0.7661,optionLeft,45,12415,6,5,0,5,0,1,,,,,,,,,,,,,,,,,,,,,,,,,,,,,,,,,,,,,,,
,,,,,,,,2023-08-16_08h54.38.414,HF_wild_card,2022.2.4,Win32,59.84798612,5c77d0f62cfc0000160c1958,64d2fd46c836a06233681665,64dc7ef406164ce71a53d28c,,,,,,,ctch,resources/DB.BMP,resources/DP.BMP,Door4,0.185833359,-0.005000019,1,0,0,1.1829,optionRight,80,12495,6,6,0,6,0,1,,,,,,,,,,,,,,,,,,,,,,,,,,,,,,,,,,,,,,,
,,,,,,,,2023-08-16_08h54.38.414,HF_wild_card,2022.2.4,Win32,59.84798612,5c77d0f62cfc0000160c1958,64d2fd46c836a06233681665,64dc7ef406164ce71a53d28c,,,,,,,ctch,resources/DB.BMP,resources/DP.BMP,Door4,0.232500013,-0.001666673,1,0,0,0.6327,optionRight,60,12555,6,7,0,7,0,1,,,,,,,,,,,,,,,,,,,,,,,,,,,,,,,,,,,,,,,
,,,,,,,,2023-08-16_08h54.38.414,HF_wild_card,2022.2.4,Win32,59.84798612,5c77d0f62cfc0000160c1958,64d2fd46c836a06233681665,64dc7ef406164ce71a53d28c,,,,,,,sngl,resources/Empty.png,resources/DB.BMP,Door1,0.220000013,0.00666666,1,0,0,0.749,optionRight,30,12585,6,8,0,8,0,1,,,,,,,,,,,,,,,,,,,,,,,,,,,,,,,,,,,,,,,
,,,,,,,,2023-08-16_08h54.38.414,HF_wild_card,2022.2.4,Win32,59.84798612,5c77d0f62cfc0000160c1958,64d2fd46c836a06233681665,64dc7ef406164ce71a53d28c,,,,,,,sngl,resources/DG.BMP,resources/Empty.png,Door3,-0.184166654,-0.017500019,1,0,0,0.6323,optionLeft,70,12655,6,9,0,9,0,1,,,,,,,,,,,,,,,,,,,,,,,,,,,,,,,,,,,,,,,
,,,,,,,,2023-08-16_08h54.38.414,HF_wild_card,2022.2.4,Win32,59.84798612,5c77d0f62cfc0000160c1958,64d2fd46c836a06233681665,64dc7ef406164ce71a53d28c,,,,,,,sngl,resources/DY.BMP,resources/Empty.png,Door2,-0.186666679,-0.010833327,1,0,0,0.8489,optionLeft,20,12675,6,10,0,10,0,1,,,,,,,,,,,,,,,,,,,,,,,,,,,,,,,,,,,,,,,
,,,,,,,,2023-08-16_08h54.38.414,HF_wild_card,2022.2.4,Win32,59.84798612,5c77d0f62cfc0000160c1958,64d2fd46c836a06233681665,64dc7ef406164ce71a53d28c,,,,,,,decisionTrl,resources/DG.BMP,resources/DP.BMP,Door4,0.178333346,0.013333321,1,0,0,0.8656,optionRight,60,12735,6,11,0,11,0,1,,,,,,,,,,,,,,,,,,,,,,,,,,,,,,,,,,,,,,,
,,,,,,,,2023-08-16_08h54.38.414,HF_wild_card,2022.2.4,Win32,59.84798612,5c77d0f62cfc0000160c1958,64d2fd46c836a06233681665,64dc7ef406164ce71a53d28c,,,,,,,sngl,resources/DP.BMP,resources/Empty.png,Door4,-0.184999975,-0.007500013,1,0,0,0.6157,optionLeft,60,12795,6,12,0,12,0,1,,,,,,,,,,,,,,,,,,,,,,,,,,,,,,,,,,,,,,,
,,,,,,,,2023-08-16_08h54.38.414,HF_wild_card,2022.2.4,Win32,59.84798612,5c77d0f62cfc0000160c1958,64d2fd46c836a06233681665,64dc7ef406164ce71a53d28c,,,,,,,decisionTrl,resources/DY.BMP,resources/DB.BMP,Door1,0.190833346,0.007499981,1,0,0,1.834,optionRight,30,12825,6,13,0,13,0,1,,,,,,,,,,,,,,,,,,,,,,,,,,,,,,,,,,,,,,,
,,,,,,,,2023-08-16_08h54.38.414,HF_wild_card,2022.2.4,Win32,59.84798612,5c77d0f62cfc0000160c1958,64d2fd46c836a06233681665,64dc7ef406164ce71a53d28c,,,,,,,decisionTrl,resources/DP.BMP,resources/DG.BMP,Door4,-0.176666641,-0.020833333,1,0,0,1.2662,optionLeft,80,12905,6,14,0,14,0,1,,,,,,,,,,,,,,,,,,,,,,,,,,,,,,,,,,,,,,,
,,,,,,,,2023-08-16_08h54.38.414,HF_wild_card,2022.2.4,Win32,59.84798612,5c77d0f62cfc0000160c1958,64d2fd46c836a06233681665,64dc7ef406164ce71a53d28c,,,,,,,decisionTrl,resources/DP.BMP,resources/DG.BMP,Door4,-0.178333346,-0.036666679,1,0,0,0.632,optionLeft,60,12965,6,15,0,15,0,1,,,,,,,,,,,,,,,,,,,,,,,,,,,,,,,,,,,,,,,
,,,,,,,,2023-08-16_08h54.38.414,HF_wild_card,2022.2.4,Win32,59.84798612,5c77d0f62cfc0000160c1958,64d2fd46c836a06233681665,64dc7ef406164ce71a53d28c,,,,,,,decisionTrl,resources/DB.BMP,resources/DY.BMP,Door1,-0.290833314,0.04416666,1,0,0,2.0501,optionLeft,30,12995,6,16,0,16,0,1,,,,,,,,,,,,,,,,,,,,,,,,,,,,,,,,,,,,,,,
,,,,,,,,2023-08-16_08h54.38.414,HF_wild_card,2022.2.4,Win32,59.84798612,5c77d0f62cfc0000160c1958,64d2fd46c836a06233681665,64dc7ef406164ce71a53d28c,,,,,,,sngl,resources/DB.BMP,resources/Empty.png,Door1,-0.164999962,-0.011666679,1,0,0,0.599,optionLeft,30,13025,6,17,0,17,0,1,,,,,,,,,,,,,,,,,,,,,,,,,,,,,,,,,,,,,,,
,,,,,,,,2023-08-16_08h54.38.414,HF_wild_card,2022.2.4,Win32,59.84798612,5c77d0f62cfc0000160c1958,64d2fd46c836a06233681665,64dc7ef406164ce71a53d28c,,,,,,,decisionTrl,resources/DP.BMP,resources/DG.BMP,Door4,-0.193333308,-0.035833359,1,0,0,1.5005,optionLeft,60,13085,6,18,0,18,0,1,,,,,,,,,,,,,,,,,,,,,,,,,,,,,,,,,,,,,,,
,,,,,,,,2023-08-16_08h54.38.414,HF_wild_card,2022.2.4,Win32,59.84798612,5c77d0f62cfc0000160c1958,64d2fd46c836a06233681665,64dc7ef406164ce71a53d28c,,,,,,,decisionTrl,resources/DB.BMP,resources/DY.BMP,Door1,-0.225833321,-0.032500013,1,0,0,1.6658,optionLeft,30,13115,6,19,0,19,0,1,,,,,,,,,,,,,,,,,,,,,,,,,,,,,,,,,,,,,,,
,,,,,,,,2023-08-16_08h54.38.414,HF_wild_card,2022.2.4,Win32,59.84798612,5c77d0f62cfc0000160c1958,64d2fd46c836a06233681665,64dc7ef406164ce71a53d28c,,,,,,,ctch,resources/DG.BMP,resources/DY.BMP,Door3,-0.202499962,-0.013333352,1,0,0,0.8992,optionLeft,70,13185,6,20,0,20,0,1,,,,,,,,,,,,,,,,,,,,,,,,,,,,,,,,,,,,,,,
,,,,,,,,2023-08-16_08h54.38.414,HF_wild_card,2022.2.4,Win32,59.84798612,5c77d0f62cfc0000160c1958,64d2fd46c836a06233681665,64dc7ef406164ce71a53d28c,,,,,,,decisionTrl,resources/DP.BMP,resources/DBN.BMP,Door4,-0.219166629,-0.016666667,1,0,0,0.6825,optionLeft,60,13245,6,21,0,21,0,1,,,,,,,,,,,,,,,,,,,,,,,,,,,,,,,,,,,,,,,
,,,,,,,,2023-08-16_08h54.38.414,HF_wild_card,2022.2.4,Win32,59.84798612,5c77d0f62cfc0000160c1958,64d2fd46c836a06233681665,64dc7ef406164ce71a53d28c,,,,,,,decisionTrl,resources/DB.BMP,resources/DBN.BMP,WildCard_Ex,0.208333333,0.010833327,1,0,0,1.0494,optionRight,55,13300,6,22,0,22,0,1,,,,,,,,,,,,,,,,,,,,,,,,,,,,,,,,,,,,,,,
,,,,,,,,2023-08-16_08h54.38.414,HF_wild_card,2022.2.4,Win32,59.84798612,5c77d0f62cfc0000160c1958,64d2fd46c836a06233681665,64dc7ef406164ce71a53d28c,,,,,,,sngl,resources/Empty.png,resources/DY.BMP,Door2,0.203333346,0.00583334,1,0,0,0.7323,optionRight,40,13340,6,23,0,23,0,1,,,,,,,,,,,,,,,,,,,,,,,,,,,,,,,,,,,,,,,
,,,,,,,,2023-08-16_08h54.38.414,HF_wild_card,2022.2.4,Win32,59.84798612,5c77d0f62cfc0000160c1958,64d2fd46c836a06233681665,64dc7ef406164ce71a53d28c,,,,,,,ctch,resources/DG.BMP,resources/DY.BMP,Door3,-0.177499962,-0.00666666,1,0,0,0.749,optionLeft,70,13410,6,24,0,24,0,1,,,,,,,,,,,,,,,,,,,,,,,,,,,,,,,,,,,,,,,
,,,,,,,,2023-08-16_08h54.38.414,HF_wild_card,2022.2.4,Win32,59.84798612,5c77d0f62cfc0000160c1958,64d2fd46c836a06233681665,64dc7ef406164ce71a53d28c,,,,,,,ctch,resources/DP.BMP,resources/DB.BMP,Door4,-0.191666667,-0.003333346,1,0,0,0.6491,optionLeft,80,13490,6,25,0,25,0,1,,,,,,,,,,,,,,,,,,,,,,,,,,,,,,,,,,,,,,,
,,,,,,,,2023-08-16_08h54.38.414,HF_wild_card,2022.2.4,Win32,59.84798612,5c77d0f62cfc0000160c1958,64d2fd46c836a06233681665,64dc7ef406164ce71a53d28c,,,,,,,decisionTrl,resources/DY.BMP,resources/DB.BMP,Door1,0.193333371,0.002499994,1,0,0,1.5503,optionRight,30,13520,6,26,0,26,0,1,,,,,,,,,,,,,,,,,,,,,,,,,,,,,,,,,,,,,,,
,,,,,,,,2023-08-16_08h54.38.414,HF_wild_card,2022.2.4,Win32,59.84798612,5c77d0f62cfc0000160c1958,64d2fd46c836a06233681665,64dc7ef406164ce71a53d28c,,,,,,,sngl,resources/DBN.BMP,resources/Empty.png,WildCard_Ex,-0.209999975,-0.001666673,1,0,0,0.8492,optionLeft,55,13575,6,27,0,27,0,1,,,,,,,,,,,,,,,,,,,,,,,,,,,,,,,,,,,,,,,
,,,,,,,,2023-08-16_08h54.38.414,HF_wild_card,2022.2.4,Win32,59.84798612,5c77d0f62cfc0000160c1958,64d2fd46c836a06233681665,64dc7ef406164ce71a53d28c,,,,,,,sngl,resources/Empty.png,resources/DP.BMP,Door4,0.128333346,0.021666654,1,0,0,0.849,optionRight,80,13655,6,28,0,28,0,1,,,,,,,,,,,,,,,,,,,,,,,,,,,,,,,,,,,,,,,
,,,,,,,,2023-08-16_08h54.38.414,HF_wild_card,2022.2.4,Win32,59.84798612,5c77d0f62cfc0000160c1958,64d2fd46c836a06233681665,64dc7ef406164ce71a53d28c,,,,,,,ctch,resources/DY.BMP,resources/DG.BMP,Door3,0.204999987,0.0375,1,0,0,0.8996,optionRight,70,13725,6,29,0,29,0,1,,,,,,,,,,,,,,,,,,,,,,,,,,,,,,,,,,,,,,,
,,,,,,,,2023-08-16_08h54.38.414,HF_wild_card,2022.2.4,Win32,59.84798612,5c77d0f62cfc0000160c1958,64d2fd46c836a06233681665,64dc7ef406164ce71a53d28c,,,,,,,decisionTrl,resources/DG.BMP,resources/DP.BMP,Door4,0.217499987,-0.000833352,1,0,0,1.0163,optionRight,60,13785,6,30,0,30,0,1,,,,,,,,,,,,,,,,,,,,,,,,,,,,,,,,,,,,,,,
,,,,,,,,2023-08-16_08h54.38.414,HF_wild_card,2022.2.4,Win32,59.84798612,5c77d0f62cfc0000160c1958,64d2fd46c836a06233681665,64dc7ef406164ce71a53d28c,,,,,,,ctch,resources/DP.BMP,resources/DB.BMP,Door4,-0.240833346,-0.024166679,1,0,0,0.6824,optionLeft,80,13865,6,31,0,31,0,1,,,,,,,,,,,,,,,,,,,,,,,,,,,,,,,,,,,,,,,
,,,,,,,,2023-08-16_08h54.38.414,HF_wild_card,2022.2.4,Win32,59.84798612,5c77d0f62cfc0000160c1958,64d2fd46c836a06233681665,64dc7ef406164ce71a53d28c,,,,,,,decisionTrl,resources/DBN.BMP,resources/DB.BMP,WildCard_Ex,-0.248333295,-0.01833334,1,0,0,0.7326,optionLeft,55,13920,6,32,0,32,0,1,,,,,,,,,,,,,,,,,,,,,,,,,,,,,,,,,,,,,,,
,,,,,,,,2023-08-16_08h54.38.414,HF_wild_card,2022.2.4,Win32,59.84798612,5c77d0f62cfc0000160c1958,64d2fd46c836a06233681665,64dc7ef406164ce71a53d28c,,,,,,,decisionTrl,resources/DY.BMP,resources/DB.BMP,Door1,0.159166654,0.004999987,1,0,0,1.5831,optionRight,30,13950,6,33,0,33,0,1,,,,,,,,,,,,,,,,,,,,,,,,,,,,,,,,,,,,,,,
,,,,,,,,2023-08-16_08h54.38.414,HF_wild_card,2022.2.4,Win32,59.84798612,5c77d0f62cfc0000160c1958,64d2fd46c836a06233681665,64dc7ef406164ce71a53d28c,,,,,,,decisionTrl,resources/DY.BMP,resources/DB.BMP,Door1,0.122500038,0.0125,1,0,0,1.2998,optionRight,30,13980,6,34,0,34,0,1,,,,,,,,,,,,,,,,,,,,,,,,,,,,,,,,,,,,,,,
,,,,,,,,2023-08-16_08h54.38.414,HF_wild_card,2022.2.4,Win32,59.84798612,5c77d0f62cfc0000160c1958,64d2fd46c836a06233681665,64dc7ef406164ce71a53d28c,,,,,,,decisionTrl,resources/DB.BMP,resources/DY.BMP,Door1,-0.181666629,-0.021666686,1,0,0,1.4664,optionLeft,30,14010,6,35,0,35,0,1,,,,,,,,,,,,,,,,,,,,,,,,,,,,,,,,,,,,,,,
,,,,,,,,2023-08-16_08h54.38.414,HF_wild_card,2022.2.4,Win32,59.84798612,5c77d0f62cfc0000160c1958,64d2fd46c836a06233681665,64dc7ef406164ce71a53d28c,,,,,,,decisionTrl,resources/DG.BMP,resources/DP.BMP,Door4,0.165833346,0.014999994,1,0,0,1.0162,optionRight,60,14070,6,36,0,36,0,1,,,,,,,,,,,,,,,,,,,,,,,,,,,,,,,,,,,,,,,
,,,,,,,,2023-08-16_08h54.38.414,HF_wild_card,2022.2.4,Win32,59.84798612,5c77d0f62cfc0000160c1958,64d2fd46c836a06233681665,64dc7ef406164ce71a53d28c,,,,,,,decisionTrl,resources/DG.BMP,resources/DP.BMP,Door3,-0.231666629,-0.028333346,1,0,0,0.6661,optionLeft,70,14140,6,37,0,37,0,1,,,,,,,,,,,,,,,,,,,,,,,,,,,,,,,,,,,,,,,
,,,,,,,,2023-08-16_08h54.38.414,HF_wild_card,2022.2.4,Win32,59.84798612,5c77d0f62cfc0000160c1958,64d2fd46c836a06233681665,64dc7ef406164ce71a53d28c,,,,,,,decisionTrl,resources/DP.BMP,resources/DG.BMP,Door4,-0.195833333,-0.030000019,1,0,0,1.0495,optionLeft,80,14220,6,38,0,38,0,1,,,,,,,,,,,,,,,,,,,,,,,,,,,,,,,,,,,,,,,
,,,,,,,,2023-08-16_08h54.38.414,HF_wild_card,2022.2.4,Win32,59.84798612,5c77d0f62cfc0000160c1958,64d2fd46c836a06233681665,64dc7ef406164ce71a53d28c,,,,,,,sngl,resources/Empty.png,resources/DBN.BMP,WildCard_Ex,0.225,0,1,0,0,0.7154,optionRight,45,14265,6,39,0,39,0,1,,,,,,,,,,,,,,,,,,,,,,,,,,,,,,,,,,,,,,,
,,,,,,,,2023-08-16_08h54.38.414,HF_wild_card,2022.2.4,Win32,59.84798612,5c77d0f62cfc0000160c1958,64d2fd46c836a06233681665,64dc7ef406164ce71a53d28c,,,,,,,sngl,resources/Empty.png,resources/DBN.BMP,WildCard_Ex,0.222500038,0.000833321,1,0,0,0.6823,optionRight,55,14320,6,40,0,40,0,1,,,,,,,,,,,,,,,,,,,,,,,,,,,,,,,,,,,,,,,
,,,,,,,,2023-08-16_08h54.38.414,HF_wild_card,2022.2.4,Win32,59.84798612,5c77d0f62cfc0000160c1958,64d2fd46c836a06233681665,64dc7ef406164ce71a53d28c,,,,,,,decisionTrl,resources/DBN.BMP,resources/DG.BMP,Door3,0.2625,0.003333314,1,0,0,1.066,optionRight,70,14390,6,41,0,41,0,1,,,,,,,,,,,,,,,,,,,,,,,,,,,,,,,,,,,,,,,
,,,,,,,,2023-08-16_08h54.38.414,HF_wild_card,2022.2.4,Win32,59.84798612,5c77d0f62cfc0000160c1958,64d2fd46c836a06233681665,64dc7ef406164ce71a53d28c,,,,,,,sngl,resources/Empty.png,resources/DG.BMP,Door3,0.272499975,-0.005000019,1,0,0,0.599,optionRight,70,14460,6,42,0,42,0,1,,,,,,,,,,,,,,,,,,,,,,,,,,,,,,,,,,,,,,,
,,,,,,,,2023-08-16_08h54.38.414,HF_wild_card,2022.2.4,Win32,59.84798612,5c77d0f62cfc0000160c1958,64d2fd46c836a06233681665,64dc7ef406164ce71a53d28c,,,,,,,decisionTrl,resources/DG.BMP,resources/DBN.BMP,Door3,-0.199166679,-0.01833334,1,0,0,0.7824,optionLeft,70,14530,6,43,0,43,0,1,,,,,,,,,,,,,,,,,,,,,,,,,,,,,,,,,,,,,,,
,,,,,,,,2023-08-16_08h54.38.414,HF_wild_card,2022.2.4,Win32,59.84798612,5c77d0f62cfc0000160c1958,64d2fd46c836a06233681665,64dc7ef406164ce71a53d28c,,,,,,,,,,,,,,,,,,,,,,,,,,5,0,5,0,1,,,,,,,,,,,,,,,,,,,,,,,,,,,,,,,,,,
,,,,,,,,2023-08-16_08h54.38.414,HF_wild_card,2022.2.4,Win32,59.84798612,5c77d0f62cfc0000160c1958,64d2fd46c836a06233681665,64dc7ef406164ce71a53d28c,,,,,,,decisionTrl,resources/DP.BMP,resources/DG.BMP,Door4,-0.304999987,-0.073333359,1,0,0,1.1081,optionLeft,80,14610,7,0,0,0,0,1,,,,,,,,,,,,,,,,,,,,,,,,,,,,,,,,,,,,,,,
,,,,,,,,2023-08-16_08h54.38.414,HF_wild_card,2022.2.4,Win32,59.84798612,5c77d0f62cfc0000160c1958,64d2fd46c836a06233681665,64dc7ef406164ce71a53d28c,,,,,,,decisionTrl,resources/DG.BMP,resources/DP.BMP,Door4,0.27833341,0.009166654,1,0,0,0.9332,optionRight,80,14690,7,1,0,1,0,1,,,,,,,,,,,,,,,,,,,,,,,,,,,,,,,,,,,,,,,
,,,,,,,,2023-08-16_08h54.38.414,HF_wild_card,2022.2.4,Win32,59.84798612,5c77d0f62cfc0000160c1958,64d2fd46c836a06233681665,64dc7ef406164ce71a53d28c,,,,,,,decisionTrl,resources/DG.BMP,resources/DP.BMP,Door4,0.36583341,-0.001666673,1,0,0,1.1336,optionRight,60,14750,7,2,0,2,0,1,,,,,,,,,,,,,,,,,,,,,,,,,,,,,,,,,,,,,,,
,,,,,,,,2023-08-16_08h54.38.414,HF_wild_card,2022.2.4,Win32,59.84798612,5c77d0f62cfc0000160c1958,64d2fd46c836a06233681665,64dc7ef406164ce71a53d28c,,,,,,,decisionTrl,resources/DY.BMP,resources/DB.BMP,Door1,0.36583341,0.014166673,1,0,0,1.6504,optionRight,30,14780,7,3,0,3,0,1,,,,,,,,,,,,,,,,,,,,,,,,,,,,,,,,,,,,,,,
,,,,,,,,2023-08-16_08h54.38.414,HF_wild_card,2022.2.4,Win32,59.84798612,5c77d0f62cfc0000160c1958,64d2fd46c836a06233681665,64dc7ef406164ce71a53d28c,,,,,,,decisionTrl,resources/DP.BMP,resources/DG.BMP,Door4,-0.165833346,-0.023333327,1,0,0,1.2832,optionLeft,80,14860,7,4,0,4,0,1,,,,,,,,,,,,,,,,,,,,,,,,,,,,,,,,,,,,,,,
,,,,,,,,2023-08-16_08h54.38.414,HF_wild_card,2022.2.4,Win32,59.84798612,5c77d0f62cfc0000160c1958,64d2fd46c836a06233681665,64dc7ef406164ce71a53d28c,,,,,,,decisionTrl,resources/DB.BMP,resources/DY.BMP,Door1,-0.285833327,-0.024166679,1,0,0,1.4502,optionLeft,30,14890,7,5,0,5,0,1,,,,,,,,,,,,,,,,,,,,,,,,,,,,,,,,,,,,,,,
,,,,,,,,2023-08-16_08h54.38.414,HF_wild_card,2022.2.4,Win32,59.84798612,5c77d0f62cfc0000160c1958,64d2fd46c836a06233681665,64dc7ef406164ce71a53d28c,,,,,,,decisionTrl,resources/DY.BMP,resources/DB.BMP,Door1,0.240833346,-0.016666667,1,0,0,1.0665,optionRight,30,14920,7,6,0,6,0,1,,,,,,,,,,,,,,,,,,,,,,,,,,,,,,,,,,,,,,,
,,,,,,,,2023-08-16_08h54.38.414,HF_wild_card,2022.2.4,Win32,59.84798612,5c77d0f62cfc0000160c1958,64d2fd46c836a06233681665,64dc7ef406164ce71a53d28c,,,,,,,ctch,resources/DP.BMP,resources/DB.BMP,Door4,-0.209999975,-0.01916666,1,0,0,0.75,optionLeft,60,14980,7,7,0,7,0,1,,,,,,,,,,,,,,,,,,,,,,,,,,,,,,,,,,,,,,,
,,,,,,,,2023-08-16_08h54.38.414,HF_wild_card,2022.2.4,Win32,59.84798612,5c77d0f62cfc0000160c1958,64d2fd46c836a06233681665,64dc7ef406164ce71a53d28c,,,,,,,ctch,resources/DY.BMP,resources/DG.BMP,Door3,0.27833341,-0.010000006,1,0,0,0.7831,optionRight,70,15050,7,8,0,8,0,1,,,,,,,,,,,,,,,,,,,,,,,,,,,,,,,,,,,,,,,
,,,,,,,,2023-08-16_08h54.38.414,HF_wild_card,2022.2.4,Win32,59.84798612,5c77d0f62cfc0000160c1958,64d2fd46c836a06233681665,64dc7ef406164ce71a53d28c,,,,,,,decisionTrl,resources/DG.BMP,resources/DP.BMP,Door3,-0.177499962,-0.024166679,1,0,0,2.1509,optionLeft,70,15120,7,9,0,9,0,1,,,,,,,,,,,,,,,,,,,,,,,,,,,,,,,,,,,,,,,
,,,,,,,,2023-08-16_08h54.38.414,HF_wild_card,2022.2.4,Win32,59.84798612,5c77d0f62cfc0000160c1958,64d2fd46c836a06233681665,64dc7ef406164ce71a53d28c,,,,,,,ctch,resources/DB.BMP,resources/DP.BMP,Door4,0.260000038,-0.008333333,1,0,0,0.8335,optionRight,80,15200,7,10,0,10,0,1,,,,,,,,,,,,,,,,,,,,,,,,,,,,,,,,,,,,,,,
,,,,,,,,2023-08-16_08h54.38.414,HF_wild_card,2022.2.4,Win32,59.84798612,5c77d0f62cfc0000160c1958,64d2fd46c836a06233681665,64dc7ef406164ce71a53d28c,,,,,,,decisionTrl,resources/DG.BMP,resources/DP.BMP,Door4,0.254999987,-0.009166686,1,0,0,1.2835,optionRight,80,15280,7,11,0,11,0,1,,,,,,,,,,,,,,,,,,,,,,,,,,,,,,,,,,,,,,,
,,,,,,,,2023-08-16_08h54.38.414,HF_wild_card,2022.2.4,Win32,59.84798612,5c77d0f62cfc0000160c1958,64d2fd46c836a06233681665,64dc7ef406164ce71a53d28c,,,,,,,ctch,resources/DP.BMP,resources/DB.BMP,Door4,-0.215833346,-0.01833334,1,0,0,0.6827,optionLeft,80,15360,7,12,0,12,0,1,,,,,,,,,,,,,,,,,,,,,,,,,,,,,,,,,,,,,,,
,,,,,,,,2023-08-16_08h54.38.414,HF_wild_card,2022.2.4,Win32,59.84798612,5c77d0f62cfc0000160c1958,64d2fd46c836a06233681665,64dc7ef406164ce71a53d28c,,,,,,,decisionTrl,resources/DP.BMP,resources/DG.BMP,Door4,-0.175,-0.014999994,1,0,0,1.1338,optionLeft,60,15420,7,13,0,13,0,1,,,,,,,,,,,,,,,,,,,,,,,,,,,,,,,,,,,,,,,
,,,,,,,,2023-08-16_08h54.38.414,HF_wild_card,2022.2.4,Win32,59.84798612,5c77d0f62cfc0000160c1958,64d2fd46c836a06233681665,64dc7ef406164ce71a53d28c,,,,,,,ctch,resources/DG.BMP,resources/DY.BMP,Door3,-0.218333308,-0.020833333,1,0,0,0.7165,optionLeft,70,15490,7,14,0,14,0,1,,,,,,,,,,,,,,,,,,,,,,,,,,,,,,,,,,,,,,,
,,,,,,,,2023-08-16_08h54.38.414,HF_wild_card,2022.2.4,Win32,59.84798612,5c77d0f62cfc0000160c1958,64d2fd46c836a06233681665,64dc7ef406164ce71a53d28c,,,,,,,decisionTrl,resources/DP.BMP,resources/DG.BMP,Door4,-0.170000013,-0.016666667,1,0,0,1.0832,optionLeft,80,15570,7,15,0,15,0,1,,,,,,,,,,,,,,,,,,,,,,,,,,,,,,,,,,,,,,,
,,,,,,,,2023-08-16_08h54.38.414,HF_wild_card,2022.2.4,Win32,59.84798612,5c77d0f62cfc0000160c1958,64d2fd46c836a06233681665,64dc7ef406164ce71a53d28c,,,,,,,decisionTrl,resources/DB.BMP,resources/DY.BMP,Door1,-0.253333346,-0.024166679,1,0,0,1.3335,optionLeft,30,15600,7,16,0,16,0,1,,,,,,,,,,,,,,,,,,,,,,,,,,,,,,,,,,,,,,,
,,,,,,,,2023-08-16_08h54.38.414,HF_wild_card,2022.2.4,Win32,59.84798612,5c77d0f62cfc0000160c1958,64d2fd46c836a06233681665,64dc7ef406164ce71a53d28c,,,,,,,ctch,resources/DB.BMP,resources/DP.BMP,Door4,0.228333346,-0.003333346,1,0,0,0.8666,optionRight,60,15660,7,17,0,17,0,1,,,,,,,,,,,,,,,,,,,,,,,,,,,,,,,,,,,,,,,
,,,,,,,,2023-08-16_08h54.38.414,HF_wild_card,2022.2.4,Win32,59.84798612,5c77d0f62cfc0000160c1958,64d2fd46c836a06233681665,64dc7ef406164ce71a53d28c,,,,,,,decisionTrl,resources/DB.BMP,resources/DY.BMP,Door1,-0.208333333,-0.022500006,1,0,0,1.1835,optionLeft,30,15690,7,18,0,18,0,1,,,,,,,,,,,,,,,,,,,,,,,,,,,,,,,,,,,,,,,
,,,,,,,,2023-08-16_08h54.38.414,HF_wild_card,2022.2.4,Win32,59.84798612,5c77d0f62cfc0000160c1958,64d2fd46c836a06233681665,64dc7ef406164ce71a53d28c,,,,,,,decisionTrl,resources/DY.BMP,resources/DB.BMP,Door1,0.211666679,-0.00666666,1,0,0,1.0164,optionRight,30,15720,7,19,0,19,0,1,,,,,,,,,,,,,,,,,,,,,,,,,,,,,,,,,,,,,,,
,,,,,,,,2023-08-16_08h54.38.414,HF_wild_card,2022.2.4,Win32,59.84798612,5c77d0f62cfc0000160c1958,64d2fd46c836a06233681665,64dc7ef406164ce71a53d28c,,,,,,,decisionTrl,resources/DG.BMP,resources/DP.BMP,Door4,0.174166679,-0.007500013,1,0,0,1.3002,optionRight,60,15780,7,20,0,20,0,1,,,,,,,,,,,,,,,,,,,,,,,,,,,,,,,,,,,,,,,
,,,,,,,,2023-08-16_08h54.38.414,HF_wild_card,2022.2.4,Win32,59.84798612,5c77d0f62cfc0000160c1958,64d2fd46c836a06233681665,64dc7ef406164ce71a53d28c,,,,,,,ctch,resources/DG.BMP,resources/DY.BMP,Door3,-0.224166679,-0.01916666,1,0,0,0.8332,optionLeft,70,15850,7,21,0,21,0,1,,,,,,,,,,,,,,,,,,,,,,,,,,,,,,,,,,,,,,,
,,,,,,,,2023-08-16_08h54.38.414,HF_wild_card,2022.2.4,Win32,59.84798612,5c77d0f62cfc0000160c1958,64d2fd46c836a06233681665,64dc7ef406164ce71a53d28c,,,,,,,ctch,resources/DY.BMP,resources/DG.BMP,Door3,0.25,0.00583334,1,0,0,0.6664,optionRight,70,15920,7,22,0,22,0,1,,,,,,,,,,,,,,,,,,,,,,,,,,,,,,,,,,,,,,,
,,,,,,,,2023-08-16_08h54.38.414,HF_wild_card,2022.2.4,Win32,59.84798612,5c77d0f62cfc0000160c1958,64d2fd46c836a06233681665,64dc7ef406164ce71a53d28c,,,,,,,decisionTrl,resources/DY.BMP,resources/DB.BMP,Door1,0.242499987,-0.007500013,1,0,0,1.2665,optionRight,30,15950,7,23,0,23,0,1,,,,,,,,,,,,,,,,,,,,,,,,,,,,,,,,,,,,,,,
,,,,,,,,2023-08-16_08h54.38.414,HF_wild_card,2022.2.4,Win32,59.84798612,5c77d0f62cfc0000160c1958,64d2fd46c836a06233681665,64dc7ef406164ce71a53d28c,,,,,,,decisionTrl,resources/DB.BMP,resources/DY.BMP,Door1,-0.232500013,-0.017500019,1,0,0,1.0668,optionLeft,30,15980,7,24,0,24,0,1,,,,,,,,,,,,,,,,,,,,,,,,,,,,,,,,,,,,,,,
,,,,,,,,2023-08-16_08h54.38.414,HF_wild_card,2022.2.4,Win32,59.84798612,5c77d0f62cfc0000160c1958,64d2fd46c836a06233681665,64dc7ef406164ce71a53d28c,,,,,,,decisionTrl,resources/DB.BMP,resources/DY.BMP,Door1,-0.195833333,-0.015833346,1,0,0,0.7165,optionLeft,30,16010,7,25,0,25,0,1,,,,,,,,,,,,,,,,,,,,,,,,,,,,,,,,,,,,,,,
,,,,,,,,2023-08-16_08h54.38.414,HF_wild_card,2022.2.4,Win32,59.84798612,5c77d0f62cfc0000160c1958,64d2fd46c836a06233681665,64dc7ef406164ce71a53d28c,,,,,,,decisionTrl,resources/DP.BMP,resources/DG.BMP,Door3,0.247500038,0.014999994,1,0,0,0.8498,optionRight,70,16080,7,26,0,26,0,1,,,,,,,,,,,,,,,,,,,,,,,,,,,,,,,,,,,,,,,
,,,,,,,,2023-08-16_08h54.38.414,HF_wild_card,2022.2.4,Win32,59.84798612,5c77d0f62cfc0000160c1958,64d2fd46c836a06233681665,64dc7ef406164ce71a53d28c,,,,,,,ctch,resources/DB.BMP,resources/DP.BMP,Door4,0.280000051,0.00583334,1,0,0,0.7665,optionRight,80,16160,7,27,0,27,0,1,,,,,,,,,,,,,,,,,,,,,,,,,,,,,,,,,,,,,,,
,,,,,,,,2023-08-16_08h54.38.414,HF_wild_card,2022.2.4,Win32,59.84798612,5c77d0f62cfc0000160c1958,64d2fd46c836a06233681665,64dc7ef406164ce71a53d28c,,,,,,,ctch,resources/DG.BMP,resources/DY.BMP,Door3,-0.189999962,-0.00583334,1,0,0,0.6998,optionLeft,70,16230,7,28,0,28,0,1,,,,,,,,,,,,,,,,,,,,,,,,,,,,,,,,,,,,,,,
,,,,,,,,2023-08-16_08h54.38.414,HF_wild_card,2022.2.4,Win32,59.84798612,5c77d0f62cfc0000160c1958,64d2fd46c836a06233681665,64dc7ef406164ce71a53d28c,,,,,,,decisionTrl,resources/DY.BMP,resources/DB.BMP,Door1,0.206666692,0.004166667,1,0,0,1.1667,optionRight,30,16260,7,29,0,29,0,1,,,,,,,,,,,,,,,,,,,,,,,,,,,,,,,,,,,,,,,
,,,,,,,,2023-08-16_08h54.38.414,HF_wild_card,2022.2.4,Win32,59.84798612,5c77d0f62cfc0000160c1958,64d2fd46c836a06233681665,64dc7ef406164ce71a53d28c,,,,,,,ctch,resources/DP.BMP,resources/DB.BMP,Door4,-0.2,-0.017500019,1,0,0,0.7665,optionLeft,80,16340,7,30,0,30,0,1,,,,,,,,,,,,,,,,,,,,,,,,,,,,,,,,,,,,,,,
,,,,,,,,2023-08-16_08h54.38.414,HF_wild_card,2022.2.4,Win32,59.84798612,5c77d0f62cfc0000160c1958,64d2fd46c836a06233681665,64dc7ef406164ce71a53d28c,,,,,,,decisionTrl,resources/DB.BMP,resources/DY.BMP,Door1,-0.229999987,-0.03166666,1,0,0,1.2338,optionLeft,30,16370,7,31,0,31,0,1,,,,,,,,,,,,,,,,,,,,,,,,,,,,,,,,,,,,,,,
,,,,,,,,2023-08-16_08h54.38.414,HF_wild_card,2022.2.4,Win32,59.84798612,5c77d0f62cfc0000160c1958,64d2fd46c836a06233681665,64dc7ef406164ce71a53d28c,,,,,,,decisionTrl,resources/DP.BMP,resources/DG.BMP,Door4,-0.304166667,-0.030000019,1,0,0,1.3669,optionLeft,80,16450,7,32,0,32,0,1,,,,,,,,,,,,,,,,,,,,,,,,,,,,,,,,,,,,,,,
,,,,,,,,2023-08-16_08h54.38.414,HF_wild_card,2022.2.4,Win32,59.84798612,5c77d0f62cfc0000160c1958,64d2fd46c836a06233681665,64dc7ef406164ce71a53d28c,,,,,,,decisionTrl,resources/DG.BMP,resources/DP.BMP,Door4,0.305833308,-0.014999994,1,0,0,1.4503,optionRight,80,16530,7,33,0,33,0,1,,,,,,,,,,,,,,,,,,,,,,,,,,,,,,,,,,,,,,,
,,,,,,,,2023-08-16_08h54.38.414,HF_wild_card,2022.2.4,Win32,59.84798612,5c77d0f62cfc0000160c1958,64d2fd46c836a06233681665,64dc7ef406164ce71a53d28c,,,,,,,decisionTrl,resources/DY.BMP,resources/DB.BMP,Door1,0.281666692,0.004166667,1,0,0,1.667,optionRight,30,16560,7,34,0,34,0,1,,,,,,,,,,,,,,,,,,,,,,,,,,,,,,,,,,,,,,,
,,,,,,,,2023-08-16_08h54.38.414,HF_wild_card,2022.2.4,Win32,59.84798612,5c77d0f62cfc0000160c1958,64d2fd46c836a06233681665,64dc7ef406164ce71a53d28c,,,,,,,ctch,resources/DY.BMP,resources/DG.BMP,Door3,0.266666667,0.001666673,1,0,0,0.7493,optionRight,70,16630,7,35,0,35,0,1,,,,,,,,,,,,,,,,,,,,,,,,,,,,,,,,,,,,,,,
,,,,,,,,2023-08-16_08h54.38.414,HF_wild_card,2022.2.4,Win32,59.84798612,5c77d0f62cfc0000160c1958,64d2fd46c836a06233681665,64dc7ef406164ce71a53d28c,,,,,,,,,,,,,,,,,,,,,,,,,,6,0,6,0,1,,,,,,,,,,,,,,,,,,,,,,,,,,,,,,,,,,
,,,,,,,,2023-08-16_08h54.38.414,HF_wild_card,2022.2.4,Win32,59.84798612,5c77d0f62cfc0000160c1958,64d2fd46c836a06233681665,64dc7ef406164ce71a53d28c,,,,,,,,,,,,,,,,,,,,,,,,,,,,,,,4,,,,,,,,,,,,,,,,,,,,,,,,,,,,,,,,,
,,,,,,,,2023-08-16_08h54.38.414,HF_wild_card,2022.2.4,Win32,59.84798612,5c77d0f62cfc0000160c1958,64d2fd46c836a06233681665,64dc7ef406164ce71a53d28c,,,,,,,,,,,,,,,,,,,,,,,,,,,,,,,,,,,,,,,,,,,,,,,,,,,,,,,,,,,,,,,,
,,,,,,,,2023-08-16_08h54.38.414,HF_wild_card,2022.2.4,Win32,59.84798612,5c77d0f62cfc0000160c1958,64d2fd46c836a06233681665,64dc7ef406164ce71a53d28c,,,,,,,,,,,,,,,,,,,,,,,,,,,,,,,,70,Door3,resources/DG.BMP,0,0,0,0,1,,,,,,,,,,,,,,,,,,,,,,,,,
,,,,,,,,2023-08-16_08h54.38.414,HF_wild_card,2022.2.4,Win32,59.84798612,5c77d0f62cfc0000160c1958,64d2fd46c836a06233681665,64dc7ef406164ce71a53d28c,,,,,,,,,,,,,,,,,,,,,,,,,,,,,,,,20,Door2,resources/DY.BMP,1,0,1,0,1,,,,,,,,,,,,,,,,,,,,,,,,,
,,,,,,,,2023-08-16_08h54.38.414,HF_wild_card,2022.2.4,Win32,59.84798612,5c77d0f62cfc0000160c1958,64d2fd46c836a06233681665,64dc7ef406164ce71a53d28c,,,,,,,,,,,,,,,,,,,,,,,,,,,,,,,,55,WC_extreme,resources/DBN.BMP,2,0,2,0,1,,,,,,,,,,,,,,,,,,,,,,,,,
,,,,,,,,2023-08-16_08h54.38.414,HF_wild_card,2022.2.4,Win32,59.84798612,5c77d0f62cfc0000160c1958,64d2fd46c836a06233681665,64dc7ef406164ce71a53d28c,,,,,,,,,,,,,,,,,,,,,,,,,,,,,,,,45,WC_nonExtreme,resources/DR.BMP,3,0,3,0,1,,,,,,,,,,,,,,,,,,,,,,,,,
,,,,,,,,2023-08-16_08h54.38.414,HF_wild_card,2022.2.4,Win32,59.84798612,5c77d0f62cfc0000160c1958,64d2fd46c836a06233681665,64dc7ef406164ce71a53d28c,,,,,,,,,,,,,,,,,,,,,,,,,,,,,,,,30,Door1,resources/DB.BMP,4,0,4,0,1,,,,,,,,,,,,,,,,,,,,,,,,,
,,,,,,,,2023-08-16_08h54.38.414,HF_wild_card,2022.2.4,Win32,59.84798612,5c77d0f62cfc0000160c1958,64d2fd46c836a06233681665,64dc7ef406164ce71a53d28c,,,,,,,,,,,,,,,,,,,,,,,,,,,,,,,,70,Door4,resources/DP.BMP,5,0,5,0,1,,,,,,,,,,,,,,,,,,,,,,,,,
,,,,,,,,2023-08-16_08h54.38.414,HF_wild_card,2022.2.4,Win32,59.84798612,5c77d0f62cfc0000160c1958,64d2fd46c836a06233681665,64dc7ef406164ce71a53d28c,,,,,,,,,,,,,,,,,,,,,,,,,,,,,,,,,,,,,,,,,,,,,,,,,,,,,,,,,,,,,,,,
,,,,,,,,2023-08-16_08h54.38.414,HF_wild_card,2022.2.4,Win32,59.84798612,5c77d0f62cfc0000160c1958,64d2fd46c836a06233681665,64dc7ef406164ce71a53d28c,,,,,,,,,,,,,,,,,,,,,,,,,,,,,,,,,,,,,,,,0,0,0,0,1,,,,,,,,,,,,,,,,,,,,
