Condition,Low fixed image (Door1),Low risky image (Door2),High fixed image (Door3),High risky image (Door4),Extreme Wild Card,NonExtreme Wild Card,,date,expName,psychopyVersion,OS,frameRate,PROLIFIC_PID,STUDY_ID,SESSION_ID,mouse_2.x,mouse_2.y,mouse_2.leftButton,mouse_2.midButton,mouse_2.rightButton,mouse_2.clicked_name,Trial Type,Left Option Image,Right Option Image,Chosen Door,mouse.x,mouse.y,mouse.leftButton,mouse.midButton,mouse.rightButton,mouse.time,mouse.clicked_name,Feedback,Cumulative Reward,Block,trial.thisRepN,trial.thisTrialN,trial.thisN,trial.thisIndex,trial.ran,blocks.thisRepN,blocks.thisTrialN,blocks.thisN,blocks.thisIndex,blocks.ran,Money conversion,First Outcome Reported,Shown Door (First Outcome),Displayed Image (First Outcome),outcomes.thisRepN,outcomes.thisTrialN,outcomes.thisN,outcomes.thisIndex,outcomes.ran,judgments.thisRepN,judgments.thisTrialN,judgments.thisN,judgments.thisIndex,judgments.ran,freqMouse.x,freqMouse.y,freqMouse.leftButton,freqMouse.midButton,freqMouse.rightButton,freqMouse.clicked_name,FQJ for first outcome,FQJ for second outcome,Shown Door,Displayed Image,trials.thisRepN,trials.thisTrialN,trials.thisN,trials.thisIndex,trials.ran,judgBlock.thisRepN,judgBlock.thisTrialN,judgBlock.thisN,judgBlock.thisIndex,judgBlock.ran
1,resources/DG.BMP,resources/DP.BMP,resources/DB.BMP,resources/DR.BMP,resources/DBN.BMP,resources/DY.BMP,,2023-08-16_08h47.32.075,HF_wild_card,2022.2.4,Win32,55.91277607,5bcda2ee6fd72000014996e4,64d2fd46c836a06233681665,64dc7e5fe7d73c8f3e8b8b30,,,,,,,,,,,,,,,,,,,,,,,,,,,,,,,,,,,,,,,,,,,,,,,,,,,,,,,,,,,,,,,,
,,,,,,,,2023-08-16_08h47.32.075,HF_wild_card,2022.2.4,Win32,55.91277607,5bcda2ee6fd72000014996e4,64d2fd46c836a06233681665,64dc7e5fe7d73c8f3e8b8b30,-0.012738854,-0.40885935,1,0,0,agree,,,,,,,,,,,,,,,,,,,,,,,,,,,,,,,,,,,,,,,,,,,,,,,,,,,,,,,,,,
,,,,,,,,2023-08-16_08h47.32.075,HF_wild_card,2022.2.4,Win32,55.91277607,5bcda2ee6fd72000014996e4,64d2fd46c836a06233681665,64dc7e5fe7d73c8f3e8b8b30,,,,,,,,,,,,,,,,,,,,,,,,,,,,,,,,,,,,,,,,,,,,,,,,,,,,,,,,,,,,,,,,
,,,,,,,,2023-08-16_08h47.32.075,HF_wild_card,2022.2.4,Win32,55.91277607,5bcda2ee6fd72000014996e4,64d2fd46c836a06233681665,64dc7e5fe7d73c8f3e8b8b30,,,,,,,decisionTrl,resources/DB.BMP,resources/DR.BMP,Door3,-0.412970398,-0.053097865,1,0,0,3.4245,optionLeft,70,70,1,0,0,0,0,1,,,,,,,,,,,,,,,,,,,,,,,,,,,,,,,,,,,,,,,
,,,,,,,,2023-08-16_08h47.32.075,HF_wild_card,2022.2.4,Win32,55.91277607,5bcda2ee6fd72000014996e4,64d2fd46c836a06233681665,64dc7e5fe7d73c8f3e8b8b30,,,,,,,ctch,resources/DG.BMP,resources/DR.BMP,Door4,0.393051789,-0.054950806,1,0,0,2.1816,optionRight,80,150,1,1,0,1,0,1,,,,,,,,,,,,,,,,,,,,,,,,,,,,,,,,,,,,,,,
,,,,,,,,2023-08-16_08h47.32.075,HF_wild_card,2022.2.4,Win32,55.91277607,5bcda2ee6fd72000014996e4,64d2fd46c836a06233681665,64dc7e5fe7d73c8f3e8b8b30,,,,,,,decisionTrl,resources/DR.BMP,resources/DB.BMP,Door4,-0.409264592,-0.050318471,1,0,0,1.4672,optionLeft,80,230,1,2,0,2,0,1,,,,,,,,,,,,,,,,,,,,,,,,,,,,,,,,,,,,,,,
,,,,,,,,2023-08-16_08h47.32.075,HF_wild_card,2022.2.4,Win32,55.91277607,5bcda2ee6fd72000014996e4,64d2fd46c836a06233681665,64dc7e5fe7d73c8f3e8b8b30,,,,,,,sngl,resources/DY.BMP,resources/Empty.png,WildCard_NonEx,-0.389808917,-0.065141889,1,0,0,1.1761,optionLeft,45,275,1,3,0,3,0,1,,,,,,,,,,,,,,,,,,,,,,,,,,,,,,,,,,,,,,,
,,,,,,,,2023-08-16_08h47.32.075,HF_wild_card,2022.2.4,Win32,55.91277607,5bcda2ee6fd72000014996e4,64d2fd46c836a06233681665,64dc7e5fe7d73c8f3e8b8b30,,,,,,,decisionTrl,resources/DB.BMP,resources/DR.BMP,Door4,0.393978046,-0.047539156,1,0,0,1.661,optionRight,60,335,1,4,0,4,0,1,,,,,,,,,,,,,,,,,,,,,,,,,,,,,,,,,,,,,,,
,,,,,,,,2023-08-16_08h47.32.075,HF_wild_card,2022.2.4,Win32,55.91277607,5bcda2ee6fd72000014996e4,64d2fd46c836a06233681665,64dc7e5fe7d73c8f3e8b8b30,,,,,,,decisionTrl,resources/DR.BMP,resources/DB.BMP,Door3,0.383787041,-0.037348073,1,0,0,3.1547,optionRight,70,405,1,5,0,5,0,1,,,,,,,,,,,,,,,,,,,,,,,,,,,,,,,,,,,,,,,
,,,,,,,,2023-08-16_08h47.32.075,HF_wild_card,2022.2.4,Win32,55.91277607,5bcda2ee6fd72000014996e4,64d2fd46c836a06233681665,64dc7e5fe7d73c8f3e8b8b30,,,,,,,decisionTrl,resources/DR.BMP,resources/DB.BMP,Door3,0.378228177,-0.04198033,1,0,0,3.204,optionRight,70,475,1,6,0,6,0,1,,,,,,,,,,,,,,,,,,,,,,,,,,,,,,,,,,,,,,,
,,,,,,,,2023-08-16_08h47.32.075,HF_wild_card,2022.2.4,Win32,55.91277607,5bcda2ee6fd72000014996e4,64d2fd46c836a06233681665,64dc7e5fe7d73c8f3e8b8b30,,,,,,,decisionTrl,resources/DP.BMP,resources/DG.BMP,Door2,-0.39907351,-0.079038817,1,0,0,3.597,optionLeft,20,495,1,7,0,7,0,1,,,,,,,,,,,,,,,,,,,,,,,,,,,,,,,,,,,,,,,
,,,,,,,,2023-08-16_08h47.32.075,HF_wild_card,2022.2.4,Win32,55.91277607,5bcda2ee6fd72000014996e4,64d2fd46c836a06233681665,64dc7e5fe7d73c8f3e8b8b30,,,,,,,decisionTrl,resources/DG.BMP,resources/DP.BMP,Door1,-0.38239715,0.00619569,1,0,0,1.0445,optionLeft,30,525,1,8,0,8,0,1,,,,,,,,,,,,,,,,,,,,,,,,,,,,,,,,,,,,,,,
,,,,,,,,2023-08-16_08h47.32.075,HF_wild_card,2022.2.4,Win32,55.91277607,5bcda2ee6fd72000014996e4,64d2fd46c836a06233681665,64dc7e5fe7d73c8f3e8b8b30,,,,,,,sngl,resources/Empty.png,resources/DB.BMP,Door3,0.385639866,-0.053097865,1,0,0,1.3478,optionRight,70,595,1,9,0,9,0,1,,,,,,,,,,,,,,,,,,,,,,,,,,,,,,,,,,,,,,,
,,,,,,,,2023-08-16_08h47.32.075,HF_wild_card,2022.2.4,Win32,55.91277607,5bcda2ee6fd72000014996e4,64d2fd46c836a06233681665,64dc7e5fe7d73c8f3e8b8b30,,,,,,,sngl,resources/DY.BMP,resources/Empty.png,WildCard_NonEx,-0.393514762,-0.04198033,1,0,0,1.0141,optionLeft,55,650,1,10,0,10,0,1,,,,,,,,,,,,,,,,,,,,,,,,,,,,,,,,,,,,,,,
,,,,,,,,2023-08-16_08h47.32.075,HF_wild_card,2022.2.4,Win32,55.91277607,5bcda2ee6fd72000014996e4,64d2fd46c836a06233681665,64dc7e5fe7d73c8f3e8b8b30,,,,,,,sngl,resources/DR.BMP,resources/Empty.png,Door4,-0.359235669,-0.030862796,1,0,0,0.7279,optionLeft,80,730,1,11,0,11,0,1,,,,,,,,,,,,,,,,,,,,,,,,,,,,,,,,,,,,,,,
,,,,,,,,2023-08-16_08h47.32.075,HF_wild_card,2022.2.4,Win32,55.91277607,5bcda2ee6fd72000014996e4,64d2fd46c836a06233681665,64dc7e5fe7d73c8f3e8b8b30,,,,,,,sngl,resources/Empty.png,resources/DY.BMP,WildCard_NonEx,0.386566356,-0.051244962,1,0,0,1.2612,optionRight,45,775,1,12,0,12,0,1,,,,,,,,,,,,,,,,,,,,,,,,,,,,,,,,,,,,,,,
,,,,,,,,2023-08-16_08h47.32.075,HF_wild_card,2022.2.4,Win32,55.91277607,5bcda2ee6fd72000014996e4,64d2fd46c836a06233681665,64dc7e5fe7d73c8f3e8b8b30,,,,,,,decisionTrl,resources/DP.BMP,resources/DG.BMP,Door1,0.407874935,-0.013259985,1,0,0,1.9277,optionRight,30,805,1,13,0,13,0,1,,,,,,,,,,,,,,,,,,,,,,,,,,,,,,,,,,,,,,,
,,,,,,,,2023-08-16_08h47.32.075,HF_wild_card,2022.2.4,Win32,55.91277607,5bcda2ee6fd72000014996e4,64d2fd46c836a06233681665,64dc7e5fe7d73c8f3e8b8b30,,,,,,,decisionTrl,resources/DR.BMP,resources/DB.BMP,Door4,-0.406485238,-0.055877258,1,0,0,1.293,optionLeft,60,865,1,14,0,14,0,1,,,,,,,,,,,,,,,,,,,,,,,,,,,,,,,,,,,,,,,
,,,,,,,,2023-08-16_08h47.32.075,HF_wild_card,2022.2.4,Win32,55.91277607,5bcda2ee6fd72000014996e4,64d2fd46c836a06233681665,64dc7e5fe7d73c8f3e8b8b30,,,,,,,decisionTrl,resources/DB.BMP,resources/DR.BMP,Door3,-0.394441213,-0.055877258,1,0,0,0.8951,optionLeft,70,935,1,15,0,15,0,1,,,,,,,,,,,,,,,,,,,,,,,,,,,,,,,,,,,,,,,
,,,,,,,,2023-08-16_08h47.32.075,HF_wild_card,2022.2.4,Win32,55.91277607,5bcda2ee6fd72000014996e4,64d2fd46c836a06233681665,64dc7e5fe7d73c8f3e8b8b30,,,,,,,decisionTrl,resources/DP.BMP,resources/DY.BMP,WildCard_NonEx,0.420845722,-0.047539156,1,0,0,1.6321,optionRight,55,990,1,16,0,16,0,1,,,,,,,,,,,,,,,,,,,,,,,,,,,,,,,,,,,,,,,
,,,,,,,,2023-08-16_08h47.32.075,HF_wild_card,2022.2.4,Win32,55.91277607,5bcda2ee6fd72000014996e4,64d2fd46c836a06233681665,64dc7e5fe7d73c8f3e8b8b30,,,,,,,ctch,resources/DB.BMP,resources/DP.BMP,Door3,-0.408338141,-0.051244962,1,0,0,1.6488,optionLeft,70,1060,1,17,0,17,0,1,,,,,,,,,,,,,,,,,,,,,,,,,,,,,,,,,,,,,,,
,,,,,,,,2023-08-16_08h47.32.075,HF_wild_card,2022.2.4,Win32,55.91277607,5bcda2ee6fd72000014996e4,64d2fd46c836a06233681665,64dc7e5fe7d73c8f3e8b8b30,,,,,,,sngl,resources/Empty.png,resources/DR.BMP,Door4,0.39953691,-0.037348073,1,0,0,1.129,optionRight,60,1120,1,18,0,18,0,1,,,,,,,,,,,,,,,,,,,,,,,,,,,,,,,,,,,,,,,
,,,,,,,,2023-08-16_08h47.32.075,HF_wild_card,2022.2.4,Win32,55.91277607,5bcda2ee6fd72000014996e4,64d2fd46c836a06233681665,64dc7e5fe7d73c8f3e8b8b30,,,,,,,decisionTrl,resources/DY.BMP,resources/DP.BMP,Door2,0.403242638,-0.050318471,1,0,0,1.9954,optionRight,40,1160,1,19,0,19,0,1,,,,,,,,,,,,,,,,,,,,,,,,,,,,,,,,,,,,,,,
,,,,,,,,2023-08-16_08h47.32.075,HF_wild_card,2022.2.4,Win32,55.91277607,5bcda2ee6fd72000014996e4,64d2fd46c836a06233681665,64dc7e5fe7d73c8f3e8b8b30,,,,,,,decisionTrl,resources/DY.BMP,resources/DB.BMP,Door3,0.339316748,-0.030862796,1,0,0,2.5127,optionRight,70,1230,1,20,0,20,0,1,,,,,,,,,,,,,,,,,,,,,,,,,,,,,,,,,,,,,,,
,,,,,,,,2023-08-16_08h47.32.075,HF_wild_card,2022.2.4,Win32,55.91277607,5bcda2ee6fd72000014996e4,64d2fd46c836a06233681665,64dc7e5fe7d73c8f3e8b8b30,,,,,,,ctch,resources/DB.BMP,resources/DP.BMP,Door3,-0.411117534,-0.04939202,1,0,0,1.7281,optionLeft,70,1300,1,21,0,21,0,1,,,,,,,,,,,,,,,,,,,,,,,,,,,,,,,,,,,,,,,
,,,,,,,,2023-08-16_08h47.32.075,HF_wild_card,2022.2.4,Win32,55.91277607,5bcda2ee6fd72000014996e4,64d2fd46c836a06233681665,64dc7e5fe7d73c8f3e8b8b30,,,,,,,ctch,resources/DP.BMP,resources/DB.BMP,Door3,0.395830949,-0.059583103,1,0,0,1.7627,optionRight,70,1370,1,22,0,22,0,1,,,,,,,,,,,,,,,,,,,,,,,,,,,,,,,,,,,,,,,
,,,,,,,,2023-08-16_08h47.32.075,HF_wild_card,2022.2.4,Win32,55.91277607,5bcda2ee6fd72000014996e4,64d2fd46c836a06233681665,64dc7e5fe7d73c8f3e8b8b30,,,,,,,sngl,resources/Empty.png,resources/DY.BMP,WildCard_NonEx,0.37266939,-0.029009854,1,0,0,1.0303,optionRight,55,1425,1,23,0,23,0,1,,,,,,,,,,,,,,,,,,,,,,,,,,,,,,,,,,,,,,,
,,,,,,,,2023-08-16_08h47.32.075,HF_wild_card,2022.2.4,Win32,55.91277607,5bcda2ee6fd72000014996e4,64d2fd46c836a06233681665,64dc7e5fe7d73c8f3e8b8b30,,,,,,,sngl,resources/DG.BMP,resources/Empty.png,Door1,-0.362941514,-0.018818771,1,0,0,1.1886,optionLeft,30,1455,1,24,0,24,0,1,,,,,,,,,,,,,,,,,,,,,,,,,,,,,,,,,,,,,,,
,,,,,,,,2023-08-16_08h47.32.075,HF_wild_card,2022.2.4,Win32,55.91277607,5bcda2ee6fd72000014996e4,64d2fd46c836a06233681665,64dc7e5fe7d73c8f3e8b8b30,,,,,,,decisionTrl,resources/DG.BMP,resources/DP.BMP,Door2,0.393051789,-0.059583103,1,0,0,1.8396,optionRight,20,1475,1,25,0,25,0,1,,,,,,,,,,,,,,,,,,,,,,,,,,,,,,,,,,,,,,,
,,,,,,,,2023-08-16_08h47.32.075,HF_wild_card,2022.2.4,Win32,55.91277607,5bcda2ee6fd72000014996e4,64d2fd46c836a06233681665,64dc7e5fe7d73c8f3e8b8b30,,,,,,,decisionTrl,resources/DR.BMP,resources/DY.BMP,Door4,-0.395367665,-0.053097865,1,0,0,3.9782,optionLeft,80,1555,1,26,0,26,0,1,,,,,,,,,,,,,,,,,,,,,,,,,,,,,,,,,,,,,,,
,,,,,,,,2023-08-16_08h47.32.075,HF_wild_card,2022.2.4,Win32,55.91277607,5bcda2ee6fd72000014996e4,64d2fd46c836a06233681665,64dc7e5fe7d73c8f3e8b8b30,,,,,,,decisionTrl,resources/DY.BMP,resources/DR.BMP,Door4,0.371743055,-0.044759724,1,0,0,1.0791,optionRight,80,1635,1,27,0,27,0,1,,,,,,,,,,,,,,,,,,,,,,,,,,,,,,,,,,,,,,,
,,,,,,,,2023-08-16_08h47.32.075,HF_wild_card,2022.2.4,Win32,55.91277607,5bcda2ee6fd72000014996e4,64d2fd46c836a06233681665,64dc7e5fe7d73c8f3e8b8b30,,,,,,,decisionTrl,resources/DB.BMP,resources/DR.BMP,Door4,0.390272162,-0.038274486,1,0,0,1.8955,optionRight,60,1695,1,28,0,28,0,1,,,,,,,,,,,,,,,,,,,,,,,,,,,,,,,,,,,,,,,
,,,,,,,,2023-08-16_08h47.32.075,HF_wild_card,2022.2.4,Win32,55.91277607,5bcda2ee6fd72000014996e4,64d2fd46c836a06233681665,64dc7e5fe7d73c8f3e8b8b30,,,,,,,decisionTrl,resources/DG.BMP,resources/DP.BMP,Door1,-0.387029524,-0.040127389,1,0,0,2.0132,optionLeft,30,1725,1,29,0,29,0,1,,,,,,,,,,,,,,,,,,,,,,,,,,,,,,,,,,,,,,,
,,,,,,,,2023-08-16_08h47.32.075,HF_wild_card,2022.2.4,Win32,55.91277607,5bcda2ee6fd72000014996e4,64d2fd46c836a06233681665,64dc7e5fe7d73c8f3e8b8b30,,,,,,,ctch,resources/DG.BMP,resources/DR.BMP,Door4,0.368037094,-0.044759724,1,0,0,1.9457,optionRight,80,1805,1,30,0,30,0,1,,,,,,,,,,,,,,,,,,,,,,,,,,,,,,,,,,,,,,,
,,,,,,,,2023-08-16_08h47.32.075,HF_wild_card,2022.2.4,Win32,55.91277607,5bcda2ee6fd72000014996e4,64d2fd46c836a06233681665,64dc7e5fe7d73c8f3e8b8b30,,,,,,,ctch,resources/DR.BMP,resources/DG.BMP,Door4,-0.413896928,-0.055877258,1,0,0,2.1113,optionLeft,80,1885,1,31,0,31,0,1,,,,,,,,,,,,,,,,,,,,,,,,,,,,,,,,,,,,,,,
,,,,,,,,2023-08-16_08h47.32.075,HF_wild_card,2022.2.4,Win32,55.91277607,5bcda2ee6fd72000014996e4,64d2fd46c836a06233681665,64dc7e5fe7d73c8f3e8b8b30,,,,,,,sngl,resources/DB.BMP,resources/Empty.png,Door3,-0.39907351,-0.051244962,1,0,0,1.158,optionLeft,70,1955,1,32,0,32,0,1,,,,,,,,,,,,,,,,,,,,,,,,,,,,,,,,,,,,,,,
,,,,,,,,2023-08-16_08h47.32.075,HF_wild_card,2022.2.4,Win32,55.91277607,5bcda2ee6fd72000014996e4,64d2fd46c836a06233681665,64dc7e5fe7d73c8f3e8b8b30,,,,,,,decisionTrl,resources/DP.BMP,resources/DG.BMP,Door1,0.415286624,-0.006774825,1,0,0,2.0222,optionRight,30,1985,1,33,0,33,0,1,,,,,,,,,,,,,,,,,,,,,,,,,,,,,,,,,,,,,,,
,,,,,,,,2023-08-16_08h47.32.075,HF_wild_card,2022.2.4,Win32,55.91277607,5bcda2ee6fd72000014996e4,64d2fd46c836a06233681665,64dc7e5fe7d73c8f3e8b8b30,,,,,,,decisionTrl,resources/DY.BMP,resources/DG.BMP,WildCard_NonEx,-0.374985499,-0.037348073,1,0,0,1.4445,optionLeft,55,2040,1,34,0,34,0,1,,,,,,,,,,,,,,,,,,,,,,,,,,,,,,,,,,,,,,,
,,,,,,,,2023-08-16_08h47.32.075,HF_wild_card,2022.2.4,Win32,55.91277607,5bcda2ee6fd72000014996e4,64d2fd46c836a06233681665,64dc7e5fe7d73c8f3e8b8b30,,,,,,,decisionTrl,resources/DB.BMP,resources/DY.BMP,Door3,-0.418529185,-0.037348073,1,0,0,1.6554,optionLeft,70,2110,1,35,0,35,0,1,,,,,,,,,,,,,,,,,,,,,,,,,,,,,,,,,,,,,,,
,,,,,,,,2023-08-16_08h47.32.075,HF_wild_card,2022.2.4,Win32,55.91277607,5bcda2ee6fd72000014996e4,64d2fd46c836a06233681665,64dc7e5fe7d73c8f3e8b8b30,,,,,,,ctch,resources/DR.BMP,resources/DG.BMP,Door4,-0.397220607,-0.054024394,1,0,0,3.6814,optionLeft,60,2170,1,36,0,36,0,1,,,,,,,,,,,,,,,,,,,,,,,,,,,,,,,,,,,,,,,
,,,,,,,,2023-08-16_08h47.32.075,HF_wild_card,2022.2.4,Win32,55.91277607,5bcda2ee6fd72000014996e4,64d2fd46c836a06233681665,64dc7e5fe7d73c8f3e8b8b30,,,,,,,sngl,resources/Empty.png,resources/DP.BMP,Door2,0.333757962,-0.072553579,1,0,0,1.1291,optionRight,20,2190,1,37,0,37,0,1,,,,,,,,,,,,,,,,,,,,,,,,,,,,,,,,,,,,,,,
,,,,,,,,2023-08-16_08h47.32.075,HF_wild_card,2022.2.4,Win32,55.91277607,5bcda2ee6fd72000014996e4,64d2fd46c836a06233681665,64dc7e5fe7d73c8f3e8b8b30,,,,,,,sngl,resources/Empty.png,resources/DG.BMP,Door1,0.393051789,-0.039200937,1,0,0,2.5641,optionRight,30,2220,1,38,0,38,0,1,,,,,,,,,,,,,,,,,,,,,,,,,,,,,,,,,,,,,,,
,,,,,,,,2023-08-16_08h47.32.075,HF_wild_card,2022.2.4,Win32,55.91277607,5bcda2ee6fd72000014996e4,64d2fd46c836a06233681665,64dc7e5fe7d73c8f3e8b8b30,,,,,,,decisionTrl,resources/DG.BMP,resources/DY.BMP,WildCard_NonEx,0.378228177,-0.024377558,1,0,0,2.228,optionRight,45,2265,1,39,0,39,0,1,,,,,,,,,,,,,,,,,,,,,,,,,,,,,,,,,,,,,,,
,,,,,,,,2023-08-16_08h47.32.075,HF_wild_card,2022.2.4,Win32,55.91277607,5bcda2ee6fd72000014996e4,64d2fd46c836a06233681665,64dc7e5fe7d73c8f3e8b8b30,,,,,,,decisionTrl,resources/DP.BMP,resources/DG.BMP,Door1,0.393978046,-0.024377558,1,0,0,4.5709,optionRight,30,2295,1,40,0,40,0,1,,,,,,,,,,,,,,,,,,,,,,,,,,,,,,,,,,,,,,,
,,,,,,,,2023-08-16_08h47.32.075,HF_wild_card,2022.2.4,Win32,55.91277607,5bcda2ee6fd72000014996e4,64d2fd46c836a06233681665,64dc7e5fe7d73c8f3e8b8b30,,,,,,,decisionTrl,resources/DG.BMP,resources/DP.BMP,Door1,-0.356456276,-0.040127389,1,0,0,1.1129,optionLeft,30,2325,1,41,0,41,0,1,,,,,,,,,,,,,,,,,,,,,,,,,,,,,,,,,,,,,,,
,,,,,,,,2023-08-16_08h47.32.075,HF_wild_card,2022.2.4,Win32,55.91277607,5bcda2ee6fd72000014996e4,64d2fd46c836a06233681665,64dc7e5fe7d73c8f3e8b8b30,,,,,,,sngl,resources/DP.BMP,resources/Empty.png,Door2,-0.378691344,-0.062362496,1,0,0,1.0778,optionLeft,40,2365,1,42,0,42,0,1,,,,,,,,,,,,,,,,,,,,,,,,,,,,,,,,,,,,,,,
,,,,,,,,2023-08-16_08h47.32.075,HF_wild_card,2022.2.4,Win32,55.91277607,5bcda2ee6fd72000014996e4,64d2fd46c836a06233681665,64dc7e5fe7d73c8f3e8b8b30,,,,,,,ctch,resources/DP.BMP,resources/DB.BMP,Door3,0.341169807,-0.051244962,1,0,0,1.547,optionRight,70,2435,1,43,0,43,0,1,,,,,,,,,,,,,,,,,,,,,,,,,,,,,,,,,,,,,,,
,,,,,,,,2023-08-16_08h47.32.075,HF_wild_card,2022.2.4,Win32,55.91277607,5bcda2ee6fd72000014996e4,64d2fd46c836a06233681665,64dc7e5fe7d73c8f3e8b8b30,,,,,,,,,,,,,,,,,,,,,,,,,,0,0,0,0,1,,,,,,,,,,,,,,,,,,,,,,,,,,,,,,,,,,
,,,,,,,,2023-08-16_08h47.32.075,HF_wild_card,2022.2.4,Win32,55.91277607,5bcda2ee6fd72000014996e4,64d2fd46c836a06233681665,64dc7e5fe7d73c8f3e8b8b30,,,,,,,ctch,resources/DP.BMP,resources/DB.BMP,Door3,0.376375274,-0.046612627,1,0,0,1.9214,optionRight,70,2505,2,0,0,0,0,1,,,,,,,,,,,,,,,,,,,,,,,,,,,,,,,,,,,,,,,
,,,,,,,,2023-08-16_08h47.32.075,HF_wild_card,2022.2.4,Win32,55.91277607,5bcda2ee6fd72000014996e4,64d2fd46c836a06233681665,64dc7e5fe7d73c8f3e8b8b30,,,,,,,sngl,resources/Empty.png,resources/DB.BMP,Door3,0.32541986,0.000636943,1,0,0,0.846,optionRight,70,2575,2,1,0,1,0,1,,,,,,,,,,,,,,,,,,,,,,,,,,,,,,,,,,,,,,,
,,,,,,,,2023-08-16_08h47.32.075,HF_wild_card,2022.2.4,Win32,55.91277607,5bcda2ee6fd72000014996e4,64d2fd46c836a06233681665,64dc7e5fe7d73c8f3e8b8b30,,,,,,,decisionTrl,resources/DY.BMP,resources/DR.BMP,Door4,0.428257178,-0.048465568,1,0,0,1.3792,optionRight,80,2655,2,2,0,2,0,1,,,,,,,,,,,,,,,,,,,,,,,,,,,,,,,,,,,,,,,
,,,,,,,,2023-08-16_08h47.32.075,HF_wild_card,2022.2.4,Win32,55.91277607,5bcda2ee6fd72000014996e4,64d2fd46c836a06233681665,64dc7e5fe7d73c8f3e8b8b30,,,,,,,decisionTrl,resources/DY.BMP,resources/DB.BMP,Door3,0.365257934,-0.033642228,1,0,0,0.7951,optionRight,70,2725,2,3,0,3,0,1,,,,,,,,,,,,,,,,,,,,,,,,,,,,,,,,,,,,,,,
,,,,,,,,2023-08-16_08h47.32.075,HF_wild_card,2022.2.4,Win32,55.91277607,5bcda2ee6fd72000014996e4,64d2fd46c836a06233681665,64dc7e5fe7d73c8f3e8b8b30,,,,,,,decisionTrl,resources/DY.BMP,resources/DG.BMP,WildCard_NonEx,-0.390735369,-0.030862796,1,0,0,1.9632,optionLeft,55,2780,2,4,0,4,0,1,,,,,,,,,,,,,,,,,,,,,,,,,,,,,,,,,,,,,,,
,,,,,,,,2023-08-16_08h47.32.075,HF_wild_card,2022.2.4,Win32,55.91277607,5bcda2ee6fd72000014996e4,64d2fd46c836a06233681665,64dc7e5fe7d73c8f3e8b8b30,,,,,,,decisionTrl,resources/DB.BMP,resources/DR.BMP,Door3,-0.404632296,-0.041053879,1,0,0,1.5758,optionLeft,70,2850,2,5,0,5,0,1,,,,,,,,,,,,,,,,,,,,,,,,,,,,,,,,,,,,,,,
,,,,,,,,2023-08-16_08h47.32.075,HF_wild_card,2022.2.4,Win32,55.91277607,5bcda2ee6fd72000014996e4,64d2fd46c836a06233681665,64dc7e5fe7d73c8f3e8b8b30,,,,,,,sngl,resources/Empty.png,resources/DY.BMP,WildCard_NonEx,0.35136089,-0.02530401,1,0,0,0.9306,optionRight,45,2895,2,6,0,6,0,1,,,,,,,,,,,,,,,,,,,,,,,,,,,,,,,,,,,,,,,
,,,,,,,,2023-08-16_08h47.32.075,HF_wild_card,2022.2.4,Win32,55.91277607,5bcda2ee6fd72000014996e4,64d2fd46c836a06233681665,64dc7e5fe7d73c8f3e8b8b30,,,,,,,decisionTrl,resources/DR.BMP,resources/DB.BMP,Door4,-0.413896928,-0.055877258,1,0,0,5.0411,optionLeft,80,2975,2,7,0,7,0,1,,,,,,,,,,,,,,,,,,,,,,,,,,,,,,,,,,,,,,,
,,,,,,,,2023-08-16_08h47.32.075,HF_wild_card,2022.2.4,Win32,55.91277607,5bcda2ee6fd72000014996e4,64d2fd46c836a06233681665,64dc7e5fe7d73c8f3e8b8b30,,,,,,,decisionTrl,resources/DB.BMP,resources/DR.BMP,Door4,0.441227576,-0.042906782,1,0,0,0.879,optionRight,80,3055,2,8,0,8,0,1,,,,,,,,,,,,,,,,,,,,,,,,,,,,,,,,,,,,,,,
,,,,,,,,2023-08-16_08h47.32.075,HF_wild_card,2022.2.4,Win32,55.91277607,5bcda2ee6fd72000014996e4,64d2fd46c836a06233681665,64dc7e5fe7d73c8f3e8b8b30,,,,,,,decisionTrl,resources/DP.BMP,resources/DG.BMP,Door1,0.411580896,-0.044759724,1,0,0,2.3451,optionRight,30,3085,2,9,0,9,0,1,,,,,,,,,,,,,,,,,,,,,,,,,,,,,,,,,,,,,,,
,,,,,,,,2023-08-16_08h47.32.075,HF_wild_card,2022.2.4,Win32,55.91277607,5bcda2ee6fd72000014996e4,64d2fd46c836a06233681665,64dc7e5fe7d73c8f3e8b8b30,,,,,,,ctch,resources/DR.BMP,resources/DG.BMP,Door4,-0.398147058,-0.052171413,1,0,0,1.712,optionLeft,60,3145,2,10,0,10,0,1,,,,,,,,,,,,,,,,,,,,,,,,,,,,,,,,,,,,,,,
,,,,,,,,2023-08-16_08h47.32.075,HF_wild_card,2022.2.4,Win32,55.91277607,5bcda2ee6fd72000014996e4,64d2fd46c836a06233681665,64dc7e5fe7d73c8f3e8b8b30,,,,,,,sngl,resources/Empty.png,resources/DR.BMP,Door4,0.328199331,-0.026230461,1,0,0,0.8454,optionRight,80,3225,2,11,0,11,0,1,,,,,,,,,,,,,,,,,,,,,,,,,,,,,,,,,,,,,,,
,,,,,,,,2023-08-16_08h47.32.075,HF_wild_card,2022.2.4,Win32,55.91277607,5bcda2ee6fd72000014996e4,64d2fd46c836a06233681665,64dc7e5fe7d73c8f3e8b8b30,,,,,,,decisionTrl,resources/DB.BMP,resources/DR.BMP,Door3,-0.377764893,-0.036421544,1,0,0,1.6958,optionLeft,70,3295,2,12,0,12,0,1,,,,,,,,,,,,,,,,,,,,,,,,,,,,,,,,,,,,,,,
,,,,,,,,2023-08-16_08h47.32.075,HF_wild_card,2022.2.4,Win32,55.91277607,5bcda2ee6fd72000014996e4,64d2fd46c836a06233681665,64dc7e5fe7d73c8f3e8b8b30,,,,,,,ctch,resources/DP.BMP,resources/DB.BMP,Door2,-0.395367665,-0.075332972,1,0,0,1.6483,optionLeft,20,3315,2,13,0,13,0,1,,,,,,,,,,,,,,,,,,,,,,,,,,,,,,,,,,,,,,,
,,,,,,,,2023-08-16_08h47.32.075,HF_wild_card,2022.2.4,Win32,55.91277607,5bcda2ee6fd72000014996e4,64d2fd46c836a06233681665,64dc7e5fe7d73c8f3e8b8b30,,,,,,,sngl,resources/DP.BMP,resources/Empty.png,Door2,-0.411117534,-0.053097865,1,0,0,0.7322,optionLeft,20,3335,2,14,0,14,0,1,,,,,,,,,,,,,,,,,,,,,,,,,,,,,,,,,,,,,,,
,,,,,,,,2023-08-16_08h47.32.075,HF_wild_card,2022.2.4,Win32,55.91277607,5bcda2ee6fd72000014996e4,64d2fd46c836a06233681665,64dc7e5fe7d73c8f3e8b8b30,,,,,,,decisionTrl,resources/DR.BMP,resources/DB.BMP,Door4,-0.389808917,-0.062362496,1,0,0,1.5623,optionLeft,60,3395,2,15,0,15,0,1,,,,,,,,,,,,,,,,,,,,,,,,,,,,,,,,,,,,,,,
,,,,,,,,2023-08-16_08h47.32.075,HF_wild_card,2022.2.4,Win32,55.91277607,5bcda2ee6fd72000014996e4,64d2fd46c836a06233681665,64dc7e5fe7d73c8f3e8b8b30,,,,,,,sngl,resources/Empty.png,resources/DP.BMP,Door2,0.389345828,-0.060509554,1,0,0,0.9125,optionRight,40,3435,2,16,0,16,0,1,,,,,,,,,,,,,,,,,,,,,,,,,,,,,,,,,,,,,,,
,,,,,,,,2023-08-16_08h47.32.075,HF_wild_card,2022.2.4,Win32,55.91277607,5bcda2ee6fd72000014996e4,64d2fd46c836a06233681665,64dc7e5fe7d73c8f3e8b8b30,,,,,,,ctch,resources/DB.BMP,resources/DP.BMP,Door3,-0.450955414,-0.045686175,1,0,0,1.1461,optionLeft,70,3505,2,17,0,17,0,1,,,,,,,,,,,,,,,,,,,,,,,,,,,,,,,,,,,,,,,
,,,,,,,,2023-08-16_08h47.32.075,HF_wild_card,2022.2.4,Win32,55.91277607,5bcda2ee6fd72000014996e4,64d2fd46c836a06233681665,64dc7e5fe7d73c8f3e8b8b30,,,,,,,ctch,resources/DG.BMP,resources/DR.BMP,Door4,0.391198653,-0.054950806,1,0,0,1.0779,optionRight,60,3565,2,18,0,18,0,1,,,,,,,,,,,,,,,,,,,,,,,,,,,,,,,,,,,,,,,
,,,,,,,,2023-08-16_08h47.32.075,HF_wild_card,2022.2.4,Win32,55.91277607,5bcda2ee6fd72000014996e4,64d2fd46c836a06233681665,64dc7e5fe7d73c8f3e8b8b30,,,,,,,decisionTrl,resources/DB.BMP,resources/DR.BMP,Door4,0.370816487,-0.044759724,1,0,0,2.5458,optionRight,60,3625,2,19,0,19,0,1,,,,,,,,,,,,,,,,,,,,,,,,,,,,,,,,,,,,,,,
,,,,,,,,2023-08-16_08h47.32.075,HF_wild_card,2022.2.4,Win32,55.91277607,5bcda2ee6fd72000014996e4,64d2fd46c836a06233681665,64dc7e5fe7d73c8f3e8b8b30,,,,,,,sngl,resources/DB.BMP,resources/Empty.png,Door3,-0.4,-0.028083403,1,0,0,0.6786,optionLeft,70,3695,2,20,0,20,0,1,,,,,,,,,,,,,,,,,,,,,,,,,,,,,,,,,,,,,,,
,,,,,,,,2023-08-16_08h47.32.075,HF_wild_card,2022.2.4,Win32,55.91277607,5bcda2ee6fd72000014996e4,64d2fd46c836a06233681665,64dc7e5fe7d73c8f3e8b8b30,,,,,,,ctch,resources/DG.BMP,resources/DR.BMP,Door4,0.368037094,-0.048465568,1,0,0,1.0618,optionRight,80,3775,2,21,0,21,0,1,,,,,,,,,,,,,,,,,,,,,,,,,,,,,,,,,,,,,,,
,,,,,,,,2023-08-16_08h47.32.075,HF_wild_card,2022.2.4,Win32,55.91277607,5bcda2ee6fd72000014996e4,64d2fd46c836a06233681665,64dc7e5fe7d73c8f3e8b8b30,,,,,,,decisionTrl,resources/DP.BMP,resources/DY.BMP,WildCard_NonEx,0.398610342,-0.034568641,1,0,0,2.1457,optionRight,55,3830,2,22,0,22,0,1,,,,,,,,,,,,,,,,,,,,,,,,,,,,,,,,,,,,,,,
,,,,,,,,2023-08-16_08h47.32.075,HF_wild_card,2022.2.4,Win32,55.91277607,5bcda2ee6fd72000014996e4,64d2fd46c836a06233681665,64dc7e5fe7d73c8f3e8b8b30,,,,,,,sngl,resources/DY.BMP,resources/Empty.png,WildCard_NonEx,-0.402779316,-0.035495092,1,0,0,0.8286,optionLeft,45,3875,2,23,0,23,0,1,,,,,,,,,,,,,,,,,,,,,,,,,,,,,,,,,,,,,,,
,,,,,,,,2023-08-16_08h47.32.075,HF_wild_card,2022.2.4,Win32,55.91277607,5bcda2ee6fd72000014996e4,64d2fd46c836a06233681665,64dc7e5fe7d73c8f3e8b8b30,,,,,,,sngl,resources/DG.BMP,resources/Empty.png,Door1,-0.362941514,-0.024377558,1,0,0,0.895,optionLeft,30,3905,2,24,0,24,0,1,,,,,,,,,,,,,,,,,,,,,,,,,,,,,,,,,,,,,,,
,,,,,,,,2023-08-16_08h47.32.075,HF_wild_card,2022.2.4,Win32,55.91277607,5bcda2ee6fd72000014996e4,64d2fd46c836a06233681665,64dc7e5fe7d73c8f3e8b8b30,,,,,,,decisionTrl,resources/DP.BMP,resources/DG.BMP,Door1,0.37266939,-0.028083403,1,0,0,2.4114,optionRight,30,3935,2,25,0,25,0,1,,,,,,,,,,,,,,,,,,,,,,,,,,,,,,,,,,,,,,,
,,,,,,,,2023-08-16_08h47.32.075,HF_wild_card,2022.2.4,Win32,55.91277607,5bcda2ee6fd72000014996e4,64d2fd46c836a06233681665,64dc7e5fe7d73c8f3e8b8b30,,,,,,,decisionTrl,resources/DG.BMP,resources/DP.BMP,Door1,-0.363867965,-0.031789248,1,0,0,1.7641,optionLeft,30,3965,2,26,0,26,0,1,,,,,,,,,,,,,,,,,,,,,,,,,,,,,,,,,,,,,,,
,,,,,,,,2023-08-16_08h47.32.075,HF_wild_card,2022.2.4,Win32,55.91277607,5bcda2ee6fd72000014996e4,64d2fd46c836a06233681665,64dc7e5fe7d73c8f3e8b8b30,,,,,,,decisionTrl,resources/DR.BMP,resources/DB.BMP,Door4,-0.373132596,-0.039200937,1,0,0,1.8789,optionLeft,80,4045,2,27,0,27,0,1,,,,,,,,,,,,,,,,,,,,,,,,,,,,,,,,,,,,,,,
,,,,,,,,2023-08-16_08h47.32.075,HF_wild_card,2022.2.4,Win32,55.91277607,5bcda2ee6fd72000014996e4,64d2fd46c836a06233681665,64dc7e5fe7d73c8f3e8b8b30,,,,,,,decisionTrl,resources/DG.BMP,resources/DY.BMP,WildCard_NonEx,0.386566356,-0.037348073,1,0,0,2.8116,optionRight,45,4090,2,28,0,28,0,1,,,,,,,,,,,,,,,,,,,,,,,,,,,,,,,,,,,,,,,
,,,,,,,,2023-08-16_08h47.32.075,HF_wild_card,2022.2.4,Win32,55.91277607,5bcda2ee6fd72000014996e4,64d2fd46c836a06233681665,64dc7e5fe7d73c8f3e8b8b30,,,,,,,decisionTrl,resources/DG.BMP,resources/DP.BMP,Door1,-0.353676882,-0.036421544,1,0,0,1.1115,optionLeft,30,4120,2,29,0,29,0,1,,,,,,,,,,,,,,,,,,,,,,,,,,,,,,,,,,,,,,,
,,,,,,,,2023-08-16_08h47.32.075,HF_wild_card,2022.2.4,Win32,55.91277607,5bcda2ee6fd72000014996e4,64d2fd46c836a06233681665,64dc7e5fe7d73c8f3e8b8b30,,,,,,,decisionTrl,resources/DY.BMP,resources/DP.BMP,WildCard_NonEx,-0.340706406,-0.067921321,1,0,0,1.2793,optionLeft,55,4175,2,30,0,30,0,1,,,,,,,,,,,,,,,,,,,,,,,,,,,,,,,,,,,,,,,
,,,,,,,,2023-08-16_08h47.32.075,HF_wild_card,2022.2.4,Win32,55.91277607,5bcda2ee6fd72000014996e4,64d2fd46c836a06233681665,64dc7e5fe7d73c8f3e8b8b30,,,,,,,decisionTrl,resources/DP.BMP,resources/DG.BMP,Door1,0.381934138,-0.028083403,1,0,0,1.0331,optionRight,30,4205,2,31,0,31,0,1,,,,,,,,,,,,,,,,,,,,,,,,,,,,,,,,,,,,,,,
,,,,,,,,2023-08-16_08h47.32.075,HF_wild_card,2022.2.4,Win32,55.91277607,5bcda2ee6fd72000014996e4,64d2fd46c836a06233681665,64dc7e5fe7d73c8f3e8b8b30,,,,,,,sngl,resources/Empty.png,resources/DG.BMP,Door1,0.38008108,-0.029936306,1,0,0,0.7023,optionRight,30,4235,2,32,0,32,0,1,,,,,,,,,,,,,,,,,,,,,,,,,,,,,,,,,,,,,,,
,,,,,,,,2023-08-16_08h47.32.075,HF_wild_card,2022.2.4,Win32,55.91277607,5bcda2ee6fd72000014996e4,64d2fd46c836a06233681665,64dc7e5fe7d73c8f3e8b8b30,,,,,,,ctch,resources/DB.BMP,resources/DP.BMP,Door3,-0.370353203,-0.063288947,1,0,0,2.5451,optionLeft,70,4305,2,33,0,33,0,1,,,,,,,,,,,,,,,,,,,,,,,,,,,,,,,,,,,,,,,
,,,,,,,,2023-08-16_08h47.32.075,HF_wild_card,2022.2.4,Win32,55.91277607,5bcda2ee6fd72000014996e4,64d2fd46c836a06233681665,64dc7e5fe7d73c8f3e8b8b30,,,,,,,sngl,resources/Empty.png,resources/DY.BMP,WildCard_NonEx,0.347654928,-0.019745223,1,0,0,0.7424,optionRight,55,4360,2,34,0,34,0,1,,,,,,,,,,,,,,,,,,,,,,,,,,,,,,,,,,,,,,,
,,,,,,,,2023-08-16_08h47.32.075,HF_wild_card,2022.2.4,Win32,55.91277607,5bcda2ee6fd72000014996e4,64d2fd46c836a06233681665,64dc7e5fe7d73c8f3e8b8b30,,,,,,,decisionTrl,resources/DB.BMP,resources/DY.BMP,Door3,-0.42408801,-0.035495092,1,0,0,0.8288,optionLeft,70,4430,2,35,0,35,0,1,,,,,,,,,,,,,,,,,,,,,,,,,,,,,,,,,,,,,,,
,,,,,,,,2023-08-16_08h47.32.075,HF_wild_card,2022.2.4,Win32,55.91277607,5bcda2ee6fd72000014996e4,64d2fd46c836a06233681665,64dc7e5fe7d73c8f3e8b8b30,,,,,,,decisionTrl,resources/DR.BMP,resources/DB.BMP,Door3,0.366184191,-0.006774825,1,0,0,0.6461,optionRight,70,4500,2,36,0,36,0,1,,,,,,,,,,,,,,,,,,,,,,,,,,,,,,,,,,,,,,,
,,,,,,,,2023-08-16_08h47.32.075,HF_wild_card,2022.2.4,Win32,55.91277607,5bcda2ee6fd72000014996e4,64d2fd46c836a06233681665,64dc7e5fe7d73c8f3e8b8b30,,,,,,,sngl,resources/DY.BMP,resources/Empty.png,WildCard_NonEx,-0.416676321,0.000636943,1,0,0,0.8462,optionLeft,55,4555,2,37,0,37,0,1,,,,,,,,,,,,,,,,,,,,,,,,,,,,,,,,,,,,,,,
,,,,,,,,2023-08-16_08h47.32.075,HF_wild_card,2022.2.4,Win32,55.91277607,5bcda2ee6fd72000014996e4,64d2fd46c836a06233681665,64dc7e5fe7d73c8f3e8b8b30,,,,,,,decisionTrl,resources/DG.BMP,resources/DP.BMP,Door1,-0.38239715,-0.04939202,1,0,0,1.3789,optionLeft,30,4585,2,38,0,38,0,1,,,,,,,,,,,,,,,,,,,,,,,,,,,,,,,,,,,,,,,
,,,,,,,,2023-08-16_08h47.32.075,HF_wild_card,2022.2.4,Win32,55.91277607,5bcda2ee6fd72000014996e4,64d2fd46c836a06233681665,64dc7e5fe7d73c8f3e8b8b30,,,,,,,ctch,resources/DR.BMP,resources/DG.BMP,Door4,-0.436131996,-0.035495092,1,0,0,4.9553,optionLeft,80,4665,2,39,0,39,0,1,,,,,,,,,,,,,,,,,,,,,,,,,,,,,,,,,,,,,,,
,,,,,,,,2023-08-16_08h47.32.075,HF_wild_card,2022.2.4,Win32,55.91277607,5bcda2ee6fd72000014996e4,64d2fd46c836a06233681665,64dc7e5fe7d73c8f3e8b8b30,,,,,,,decisionTrl,resources/DG.BMP,resources/DP.BMP,Door1,-0.320324241,-0.04939202,1,0,0,1.229,optionLeft,30,4695,2,40,0,40,0,1,,,,,,,,,,,,,,,,,,,,,,,,,,,,,,,,,,,,,,,
,,,,,,,,2023-08-16_08h47.32.075,HF_wild_card,2022.2.4,Win32,55.91277607,5bcda2ee6fd72000014996e4,64d2fd46c836a06233681665,64dc7e5fe7d73c8f3e8b8b30,,,,,,,sngl,resources/DR.BMP,resources/Empty.png,Door4,-0.32773593,-0.031789248,1,0,0,0.7024,optionLeft,60,4755,2,41,0,41,0,1,,,,,,,,,,,,,,,,,,,,,,,,,,,,,,,,,,,,,,,
,,,,,,,,2023-08-16_08h47.32.075,HF_wild_card,2022.2.4,Win32,55.91277607,5bcda2ee6fd72000014996e4,64d2fd46c836a06233681665,64dc7e5fe7d73c8f3e8b8b30,,,,,,,decisionTrl,resources/DP.BMP,resources/DG.BMP,Door1,0.338390414,-0.02530401,1,0,0,1.0651,optionRight,30,4785,2,42,0,42,0,1,,,,,,,,,,,,,,,,,,,,,,,,,,,,,,,,,,,,,,,
,,,,,,,,2023-08-16_08h47.32.075,HF_wild_card,2022.2.4,Win32,55.91277607,5bcda2ee6fd72000014996e4,64d2fd46c836a06233681665,64dc7e5fe7d73c8f3e8b8b30,,,,,,,decisionTrl,resources/DR.BMP,resources/DY.BMP,Door4,-0.461146497,-0.04939202,1,0,0,5.1666,optionLeft,80,4865,2,43,0,43,0,1,,,,,,,,,,,,,,,,,,,,,,,,,,,,,,,,,,,,,,,
,,,,,,,,2023-08-16_08h47.32.075,HF_wild_card,2022.2.4,Win32,55.91277607,5bcda2ee6fd72000014996e4,64d2fd46c836a06233681665,64dc7e5fe7d73c8f3e8b8b30,,,,,,,,,,,,,,,,,,,,,,,,,,1,0,1,0,1,,,,,,,,,,,,,,,,,,,,,,,,,,,,,,,,,,
,,,,,,,,2023-08-16_08h47.32.075,HF_wild_card,2022.2.4,Win32,55.91277607,5bcda2ee6fd72000014996e4,64d2fd46c836a06233681665,64dc7e5fe7d73c8f3e8b8b30,,,,,,,decisionTrl,resources/DG.BMP,resources/DP.BMP,Door1,-0.334221168,-0.059583103,1,0,0,1.1097,optionLeft,30,4895,3,0,0,0,0,1,,,,,,,,,,,,,,,,,,,,,,,,,,,,,,,,,,,,,,,
,,,,,,,,2023-08-16_08h47.32.075,HF_wild_card,2022.2.4,Win32,55.91277607,5bcda2ee6fd72000014996e4,64d2fd46c836a06233681665,64dc7e5fe7d73c8f3e8b8b30,,,,,,,sngl,resources/Empty.png,resources/DP.BMP,Door2,0.569079668,-0.117023755,1,0,0,0.7486,optionRight,20,4915,3,1,0,1,0,1,,,,,,,,,,,,,,,,,,,,,,,,,,,,,,,,,,,,,,,
,,,,,,,,2023-08-16_08h47.32.075,HF_wild_card,2022.2.4,Win32,55.91277607,5bcda2ee6fd72000014996e4,64d2fd46c836a06233681665,64dc7e5fe7d73c8f3e8b8b30,,,,,,,decisionTrl,resources/DB.BMP,resources/DR.BMP,Door4,0.38100757,-0.003995392,1,0,0,1.8125,optionRight,60,4975,3,2,0,2,0,1,,,,,,,,,,,,,,,,,,,,,,,,,,,,,,,,,,,,,,,
,,,,,,,,2023-08-16_08h47.32.075,HF_wild_card,2022.2.4,Win32,55.91277607,5bcda2ee6fd72000014996e4,64d2fd46c836a06233681665,64dc7e5fe7d73c8f3e8b8b30,,,,,,,ctch,resources/DP.BMP,resources/DB.BMP,Door3,0.35136089,-0.064215477,1,0,0,1.3137,optionRight,70,5045,3,3,0,3,0,1,,,,,,,,,,,,,,,,,,,,,,,,,,,,,,,,,,,,,,,
,,,,,,,,2023-08-16_08h47.32.075,HF_wild_card,2022.2.4,Win32,55.91277607,5bcda2ee6fd72000014996e4,64d2fd46c836a06233681665,64dc7e5fe7d73c8f3e8b8b30,,,,,,,sngl,resources/DY.BMP,resources/Empty.png,WildCard_NonEx,-0.304574332,-0.057730239,1,0,0,0.7281,optionLeft,55,5100,3,4,0,4,0,1,,,,,,,,,,,,,,,,,,,,,,,,,,,,,,,,,,,,,,,
,,,,,,,,2023-08-16_08h47.32.075,HF_wild_card,2022.2.4,Win32,55.91277607,5bcda2ee6fd72000014996e4,64d2fd46c836a06233681665,64dc7e5fe7d73c8f3e8b8b30,,,,,,,ctch,resources/DP.BMP,resources/DB.BMP,Door3,0.285581941,-0.048465568,1,0,0,1.3628,optionRight,70,5170,3,5,0,5,0,1,,,,,,,,,,,,,,,,,,,,,,,,,,,,,,,,,,,,,,,
,,,,,,,,2023-08-16_08h47.32.075,HF_wild_card,2022.2.4,Win32,55.91277607,5bcda2ee6fd72000014996e4,64d2fd46c836a06233681665,64dc7e5fe7d73c8f3e8b8b30,,,,,,,decisionTrl,resources/DB.BMP,resources/DR.BMP,Door4,0.318008248,-0.043833311,1,0,0,1.1953,optionRight,80,5250,3,6,0,6,0,1,,,,,,,,,,,,,,,,,,,,,,,,,,,,,,,,,,,,,,,
,,,,,,,,2023-08-16_08h47.32.075,HF_wild_card,2022.2.4,Win32,55.91277607,5bcda2ee6fd72000014996e4,64d2fd46c836a06233681665,64dc7e5fe7d73c8f3e8b8b30,,,,,,,decisionTrl,resources/DG.BMP,resources/DP.BMP,Door1,-0.214707529,-0.075332972,1,0,0,1.8784,optionLeft,30,5280,3,7,0,7,0,1,,,,,,,,,,,,,,,,,,,,,,,,,,,,,,,,,,,,,,,
,,,,,,,,2023-08-16_08h47.32.075,HF_wild_card,2022.2.4,Win32,55.91277607,5bcda2ee6fd72000014996e4,64d2fd46c836a06233681665,64dc7e5fe7d73c8f3e8b8b30,,,,,,,decisionTrl,resources/DP.BMP,resources/DG.BMP,Door1,0.318008248,-0.054950806,1,0,0,0.7817,optionRight,30,5310,3,8,0,8,0,1,,,,,,,,,,,,,,,,,,,,,,,,,,,,,,,,,,,,,,,
,,,,,,,,2023-08-16_08h47.32.075,HF_wild_card,2022.2.4,Win32,55.91277607,5bcda2ee6fd72000014996e4,64d2fd46c836a06233681665,64dc7e5fe7d73c8f3e8b8b30,,,,,,,sngl,resources/DB.BMP,resources/Empty.png,Door3,-0.305500861,-0.005848295,1,0,0,0.8987,optionLeft,70,5380,3,9,0,9,0,1,,,,,,,,,,,,,,,,,,,,,,,,,,,,,,,,,,,,,,,
,,,,,,,,2023-08-16_08h47.32.075,HF_wild_card,2022.2.4,Win32,55.91277607,5bcda2ee6fd72000014996e4,64d2fd46c836a06233681665,64dc7e5fe7d73c8f3e8b8b30,,,,,,,decisionTrl,resources/DP.BMP,resources/DY.BMP,WildCard_NonEx,0.378228177,-0.064215477,1,0,0,2.1485,optionRight,55,5435,3,10,0,10,0,1,,,,,,,,,,,,,,,,,,,,,,,,,,,,,,,,,,,,,,,
,,,,,,,,2023-08-16_08h47.32.075,HF_wild_card,2022.2.4,Win32,55.91277607,5bcda2ee6fd72000014996e4,64d2fd46c836a06233681665,64dc7e5fe7d73c8f3e8b8b30,,,,,,,decisionTrl,resources/DR.BMP,resources/DB.BMP,Door4,-0.377764893,-0.075332972,1,0,0,0.9818,optionLeft,60,5495,3,11,0,11,0,1,,,,,,,,,,,,,,,,,,,,,,,,,,,,,,,,,,,,,,,
,,,,,,,,2023-08-16_08h47.32.075,HF_wild_card,2022.2.4,Win32,55.91277607,5bcda2ee6fd72000014996e4,64d2fd46c836a06233681665,64dc7e5fe7d73c8f3e8b8b30,,,,,,,decisionTrl,resources/DY.BMP,resources/DG.BMP,Door1,0.343022632,-0.08181821,1,0,0,1.2118,optionRight,30,5525,3,12,0,12,0,1,,,,,,,,,,,,,,,,,,,,,,,,,,,,,,,,,,,,,,,
,,,,,,,,2023-08-16_08h47.32.075,HF_wild_card,2022.2.4,Win32,55.91277607,5bcda2ee6fd72000014996e4,64d2fd46c836a06233681665,64dc7e5fe7d73c8f3e8b8b30,,,,,,,decisionTrl,resources/DB.BMP,resources/DR.BMP,Door3,-0.398147058,-0.065141889,1,0,0,1.0284,optionLeft,70,5595,3,13,0,13,0,1,,,,,,,,,,,,,,,,,,,,,,,,,,,,,,,,,,,,,,,
,,,,,,,,2023-08-16_08h47.32.075,HF_wild_card,2022.2.4,Win32,55.91277607,5bcda2ee6fd72000014996e4,64d2fd46c836a06233681665,64dc7e5fe7d73c8f3e8b8b30,,,,,,,decisionTrl,resources/DY.BMP,resources/DP.BMP,WildCard_NonEx,-0.308280255,-0.08181821,1,0,0,1.6958,optionLeft,55,5650,3,14,0,14,0,1,,,,,,,,,,,,,,,,,,,,,,,,,,,,,,,,,,,,,,,
,,,,,,,,2023-08-16_08h47.32.075,HF_wild_card,2022.2.4,Win32,55.91277607,5bcda2ee6fd72000014996e4,64d2fd46c836a06233681665,64dc7e5fe7d73c8f3e8b8b30,,,,,,,decisionTrl,resources/DG.BMP,resources/DP.BMP,Door1,-0.304574332,-0.056803709,1,0,0,5.0125,optionLeft,30,5680,3,15,0,15,0,1,,,,,,,,,,,,,,,,,,,,,,,,,,,,,,,,,,,,,,,
,,,,,,,,2023-08-16_08h47.32.075,HF_wild_card,2022.2.4,Win32,55.91277607,5bcda2ee6fd72000014996e4,64d2fd46c836a06233681665,64dc7e5fe7d73c8f3e8b8b30,,,,,,,decisionTrl,resources/DY.BMP,resources/DB.BMP,Door3,0.378228177,-0.051244962,1,0,0,1.6291,optionRight,70,5750,3,16,0,16,0,1,,,,,,,,,,,,,,,,,,,,,,,,,,,,,,,,,,,,,,,
,,,,,,,,2023-08-16_08h47.32.075,HF_wild_card,2022.2.4,Win32,55.91277607,5bcda2ee6fd72000014996e4,64d2fd46c836a06233681665,64dc7e5fe7d73c8f3e8b8b30,,,,,,,decisionTrl,resources/DY.BMP,resources/DR.BMP,Door4,0.337463923,-0.030862796,1,0,0,0.8288,optionRight,60,5810,3,17,0,17,0,1,,,,,,,,,,,,,,,,,,,,,,,,,,,,,,,,,,,,,,,
,,,,,,,,2023-08-16_08h47.32.075,HF_wild_card,2022.2.4,Win32,55.91277607,5bcda2ee6fd72000014996e4,64d2fd46c836a06233681665,64dc7e5fe7d73c8f3e8b8b30,,,,,,,ctch,resources/DB.BMP,resources/DP.BMP,Door3,-0.362941514,-0.033642228,1,0,0,2.6928,optionLeft,70,5880,3,18,0,18,0,1,,,,,,,,,,,,,,,,,,,,,,,,,,,,,,,,,,,,,,,
,,,,,,,,2023-08-16_08h47.32.075,HF_wild_card,2022.2.4,Win32,55.91277607,5bcda2ee6fd72000014996e4,64d2fd46c836a06233681665,64dc7e5fe7d73c8f3e8b8b30,,,,,,,sngl,resources/Empty.png,resources/DY.BMP,WildCard_NonEx,0.241111804,-0.026230461,1,0,0,0.6952,optionRight,55,5935,3,19,0,19,0,1,,,,,,,,,,,,,,,,,,,,,,,,,,,,,,,,,,,,,,,
,,,,,,,,2023-08-16_08h47.32.075,HF_wild_card,2022.2.4,Win32,55.91277607,5bcda2ee6fd72000014996e4,64d2fd46c836a06233681665,64dc7e5fe7d73c8f3e8b8b30,,,,,,,sngl,resources/DG.BMP,resources/Empty.png,Door1,-0.318471338,-0.021598165,1,0,0,0.6789,optionLeft,30,5965,3,20,0,20,0,1,,,,,,,,,,,,,,,,,,,,,,,,,,,,,,,,,,,,,,,
,,,,,,,,2023-08-16_08h47.32.075,HF_wild_card,2022.2.4,Win32,55.91277607,5bcda2ee6fd72000014996e4,64d2fd46c836a06233681665,64dc7e5fe7d73c8f3e8b8b30,,,,,,,decisionTrl,resources/DR.BMP,resources/DY.BMP,Door4,-0.456514162,-0.032715699,1,0,0,3.129,optionLeft,80,6045,3,21,0,21,0,1,,,,,,,,,,,,,,,,,,,,,,,,,,,,,,,,,,,,,,,
,,,,,,,,2023-08-16_08h47.32.075,HF_wild_card,2022.2.4,Win32,55.91277607,5bcda2ee6fd72000014996e4,64d2fd46c836a06233681665,64dc7e5fe7d73c8f3e8b8b30,,,,,,,decisionTrl,resources/DG.BMP,resources/DY.BMP,WildCard_NonEx,0.357846011,-0.011407082,1,0,0,1.9458,optionRight,45,6090,3,22,0,22,0,1,,,,,,,,,,,,,,,,,,,,,,,,,,,,,,,,,,,,,,,
,,,,,,,,2023-08-16_08h47.32.075,HF_wild_card,2022.2.4,Win32,55.91277607,5bcda2ee6fd72000014996e4,64d2fd46c836a06233681665,64dc7e5fe7d73c8f3e8b8b30,,,,,,,sngl,resources/Empty.png,resources/DG.BMP,Door1,0.222582541,-0.011407082,1,0,0,0.8623,optionRight,30,6120,3,23,0,23,0,1,,,,,,,,,,,,,,,,,,,,,,,,,,,,,,,,,,,,,,,
,,,,,,,,2023-08-16_08h47.32.075,HF_wild_card,2022.2.4,Win32,55.91277607,5bcda2ee6fd72000014996e4,64d2fd46c836a06233681665,64dc7e5fe7d73c8f3e8b8b30,,,,,,,decisionTrl,resources/DB.BMP,resources/DR.BMP,Door4,0.50793286,-0.068847734,1,0,0,3.3547,optionRight,80,6200,3,24,0,24,0,1,,,,,,,,,,,,,,,,,,,,,,,,,,,,,,,,,,,,,,,
,,,,,,,,2023-08-16_08h47.32.075,HF_wild_card,2022.2.4,Win32,55.91277607,5bcda2ee6fd72000014996e4,64d2fd46c836a06233681665,64dc7e5fe7d73c8f3e8b8b30,,,,,,,decisionTrl,resources/DB.BMP,resources/DY.BMP,Door3,-0.21656051,-0.053097865,1,0,0,5.0511,optionLeft,70,6270,3,25,0,25,0,1,,,,,,,,,,,,,,,,,,,,,,,,,,,,,,,,,,,,,,,
,,,,,,,,2023-08-16_08h47.32.075,HF_wild_card,2022.2.4,Win32,55.91277607,5bcda2ee6fd72000014996e4,64d2fd46c836a06233681665,64dc7e5fe7d73c8f3e8b8b30,,,,,,,decisionTrl,resources/DR.BMP,resources/DB.BMP,Door4,-0.372206067,-0.062362496,1,0,0,1.2487,optionLeft,60,6330,3,26,0,26,0,1,,,,,,,,,,,,,,,,,,,,,,,,,,,,,,,,,,,,,,,
,,,,,,,,2023-08-16_08h47.32.075,HF_wild_card,2022.2.4,Win32,55.91277607,5bcda2ee6fd72000014996e4,64d2fd46c836a06233681665,64dc7e5fe7d73c8f3e8b8b30,,,,,,,sngl,resources/Empty.png,resources/DB.BMP,Door3,0.544991541,-0.020671713,1,0,0,0.9142,optionRight,70,6400,3,27,0,27,0,1,,,,,,,,,,,,,,,,,,,,,,,,,,,,,,,,,,,,,,,
,,,,,,,,2023-08-16_08h47.32.075,HF_wild_card,2022.2.4,Win32,55.91277607,5bcda2ee6fd72000014996e4,64d2fd46c836a06233681665,64dc7e5fe7d73c8f3e8b8b30,,,,,,,sngl,resources/Empty.png,resources/DY.BMP,WildCard_NonEx,0.362478307,-0.021598165,1,0,0,0.6996,optionRight,45,6445,3,28,0,28,0,1,,,,,,,,,,,,,,,,,,,,,,,,,,,,,,,,,,,,,,,
,,,,,,,,2023-08-16_08h47.32.075,HF_wild_card,2022.2.4,Win32,55.91277607,5bcda2ee6fd72000014996e4,64d2fd46c836a06233681665,64dc7e5fe7d73c8f3e8b8b30,,,,,,,sngl,resources/DP.BMP,resources/Empty.png,Door2,-0.169310901,-0.037348073,1,0,0,0.7783,optionLeft,40,6485,3,29,0,29,0,1,,,,,,,,,,,,,,,,,,,,,,,,,,,,,,,,,,,,,,,
,,,,,,,,2023-08-16_08h47.32.075,HF_wild_card,2022.2.4,Win32,55.91277607,5bcda2ee6fd72000014996e4,64d2fd46c836a06233681665,64dc7e5fe7d73c8f3e8b8b30,,,,,,,ctch,resources/DR.BMP,resources/DG.BMP,Door4,-0.26473653,-0.045686175,1,0,0,1.0621,optionLeft,80,6565,3,30,0,30,0,1,,,,,,,,,,,,,,,,,,,,,,,,,,,,,,,,,,,,,,,
,,,,,,,,2023-08-16_08h47.32.075,HF_wild_card,2022.2.4,Win32,55.91277607,5bcda2ee6fd72000014996e4,64d2fd46c836a06233681665,64dc7e5fe7d73c8f3e8b8b30,,,,,,,decisionTrl,resources/DP.BMP,resources/DG.BMP,Door1,0.355066618,-0.012333533,1,0,0,1.2284,optionRight,30,6595,3,31,0,31,0,1,,,,,,,,,,,,,,,,,,,,,,,,,,,,,,,,,,,,,,,
,,,,,,,,2023-08-16_08h47.32.075,HF_wild_card,2022.2.4,Win32,55.91277607,5bcda2ee6fd72000014996e4,64d2fd46c836a06233681665,64dc7e5fe7d73c8f3e8b8b30,,,,,,,ctch,resources/DG.BMP,resources/DR.BMP,Door4,0.331905059,-0.016039378,1,0,0,0.9154,optionRight,60,6655,3,32,0,32,0,1,,,,,,,,,,,,,,,,,,,,,,,,,,,,,,,,,,,,,,,
,,,,,,,,2023-08-16_08h47.32.075,HF_wild_card,2022.2.4,Win32,55.91277607,5bcda2ee6fd72000014996e4,64d2fd46c836a06233681665,64dc7e5fe7d73c8f3e8b8b30,,,,,,,ctch,resources/DB.BMP,resources/DP.BMP,Door3,-0.271221691,-0.071627127,1,0,0,1.0627,optionLeft,70,6725,3,33,0,33,0,1,,,,,,,,,,,,,,,,,,,,,,,,,,,,,,,,,,,,,,,
,,,,,,,,2023-08-16_08h47.32.075,HF_wild_card,2022.2.4,Win32,55.91277607,5bcda2ee6fd72000014996e4,64d2fd46c836a06233681665,64dc7e5fe7d73c8f3e8b8b30,,,,,,,ctch,resources/DG.BMP,resources/DR.BMP,Door4,0.285581941,-0.016965907,1,0,0,0.9623,optionRight,80,6805,3,34,0,34,0,1,,,,,,,,,,,,,,,,,,,,,,,,,,,,,,,,,,,,,,,
,,,,,,,,2023-08-16_08h47.32.075,HF_wild_card,2022.2.4,Win32,55.91277607,5bcda2ee6fd72000014996e4,64d2fd46c836a06233681665,64dc7e5fe7d73c8f3e8b8b30,,,,,,,decisionTrl,resources/DP.BMP,resources/DG.BMP,Door1,0.232773624,-0.016965907,1,0,0,0.9461,optionRight,30,6835,3,35,0,35,0,1,,,,,,,,,,,,,,,,,,,,,,,,,,,,,,,,,,,,,,,
,,,,,,,,2023-08-16_08h47.32.075,HF_wild_card,2022.2.4,Win32,55.91277607,5bcda2ee6fd72000014996e4,64d2fd46c836a06233681665,64dc7e5fe7d73c8f3e8b8b30,,,,,,,decisionTrl,resources/DR.BMP,resources/DB.BMP,Door4,-0.242501423,-0.054950806,1,0,0,1.007,optionLeft,60,6895,3,36,0,36,0,1,,,,,,,,,,,,,,,,,,,,,,,,,,,,,,,,,,,,,,,
,,,,,,,,2023-08-16_08h47.32.075,HF_wild_card,2022.2.4,Win32,55.91277607,5bcda2ee6fd72000014996e4,64d2fd46c836a06233681665,64dc7e5fe7d73c8f3e8b8b30,,,,,,,sngl,resources/DY.BMP,resources/Empty.png,WildCard_NonEx,-0.134105357,-0.038274486,1,0,0,1.1461,optionLeft,45,6940,3,37,0,37,0,1,,,,,,,,,,,,,,,,,,,,,,,,,,,,,,,,,,,,,,,
,,,,,,,,2023-08-16_08h47.32.075,HF_wild_card,2022.2.4,Win32,55.91277607,5bcda2ee6fd72000014996e4,64d2fd46c836a06233681665,64dc7e5fe7d73c8f3e8b8b30,,,,,,,decisionTrl,resources/DR.BMP,resources/DB.BMP,Door3,0.30133181,0.000636943,1,0,0,1.1797,optionRight,70,7010,3,38,0,38,0,1,,,,,,,,,,,,,,,,,,,,,,,,,,,,,,,,,,,,,,,
,,,,,,,,2023-08-16_08h47.32.075,HF_wild_card,2022.2.4,Win32,55.91277607,5bcda2ee6fd72000014996e4,64d2fd46c836a06233681665,64dc7e5fe7d73c8f3e8b8b30,,,,,,,sngl,resources/Empty.png,resources/DR.BMP,Door4,0.204979769,-0.029009854,1,0,0,0.7461,optionRight,60,7070,3,39,0,39,0,1,,,,,,,,,,,,,,,,,,,,,,,,,,,,,,,,,,,,,,,
,,,,,,,,2023-08-16_08h47.32.075,HF_wild_card,2022.2.4,Win32,55.91277607,5bcda2ee6fd72000014996e4,64d2fd46c836a06233681665,64dc7e5fe7d73c8f3e8b8b30,,,,,,,decisionTrl,resources/DG.BMP,resources/DP.BMP,Door1,-0.32866242,-0.030862796,1,0,0,3.7284,optionLeft,30,7100,3,40,0,40,0,1,,,,,,,,,,,,,,,,,,,,,,,,,,,,,,,,,,,,,,,
,,,,,,,,2023-08-16_08h47.32.075,HF_wild_card,2022.2.4,Win32,55.91277607,5bcda2ee6fd72000014996e4,64d2fd46c836a06233681665,64dc7e5fe7d73c8f3e8b8b30,,,,,,,sngl,resources/DR.BMP,resources/Empty.png,Door4,-0.316618396,-0.040127389,1,0,0,1.1958,optionLeft,80,7180,3,41,0,41,0,1,,,,,,,,,,,,,,,,,,,,,,,,,,,,,,,,,,,,,,,
,,,,,,,,2023-08-16_08h47.32.075,HF_wild_card,2022.2.4,Win32,55.91277607,5bcda2ee6fd72000014996e4,64d2fd46c836a06233681665,64dc7e5fe7d73c8f3e8b8b30,,,,,,,ctch,resources/DR.BMP,resources/DG.BMP,Door4,-0.239721991,-0.02530401,1,0,0,1.4454,optionLeft,80,7260,3,42,0,42,0,1,,,,,,,,,,,,,,,,,,,,,,,,,,,,,,,,,,,,,,,
,,,,,,,,2023-08-16_08h47.32.075,HF_wild_card,2022.2.4,Win32,55.91277607,5bcda2ee6fd72000014996e4,64d2fd46c836a06233681665,64dc7e5fe7d73c8f3e8b8b30,,,,,,,decisionTrl,resources/DP.BMP,resources/DG.BMP,Door1,0.26149397,-0.00955414,1,0,0,0.9949,optionRight,30,7290,3,43,0,43,0,1,,,,,,,,,,,,,,,,,,,,,,,,,,,,,,,,,,,,,,,
,,,,,,,,2023-08-16_08h47.32.075,HF_wild_card,2022.2.4,Win32,55.91277607,5bcda2ee6fd72000014996e4,64d2fd46c836a06233681665,64dc7e5fe7d73c8f3e8b8b30,,,,,,,,,,,,,,,,,,,,,,,,,,2,0,2,0,1,,,,,,,,,,,,,,,,,,,,,,,,,,,,,,,,,,
,,,,,,,,2023-08-16_08h47.32.075,HF_wild_card,2022.2.4,Win32,55.91277607,5bcda2ee6fd72000014996e4,64d2fd46c836a06233681665,64dc7e5fe7d73c8f3e8b8b30,,,,,,,decisionTrl,resources/DG.BMP,resources/DP.BMP,Door1,-0.143369949,-0.096641589,1,0,0,7.3596,optionLeft,30,7320,4,0,0,0,0,1,,,,,,,,,,,,,,,,,,,,,,,,,,,,,,,,,,,,,,,
,,,,,,,,2023-08-16_08h47.32.075,HF_wild_card,2022.2.4,Win32,55.91277607,5bcda2ee6fd72000014996e4,64d2fd46c836a06233681665,64dc7e5fe7d73c8f3e8b8b30,,,,,,,decisionTrl,resources/DP.BMP,resources/DG.BMP,Door2,-0.177649081,-0.059583103,1,0,0,0.9993,optionLeft,20,7340,4,1,0,1,0,1,,,,,,,,,,,,,,,,,,,,,,,,,,,,,,,,,,,,,,,
,,,,,,,,2023-08-16_08h47.32.075,HF_wild_card,2022.2.4,Win32,55.91277607,5bcda2ee6fd72000014996e4,64d2fd46c836a06233681665,64dc7e5fe7d73c8f3e8b8b30,,,,,,,decisionTrl,resources/DR.BMP,resources/DB.BMP,Door4,-0.207295839,-0.064215477,1,0,0,1.1458,optionLeft,60,7400,4,2,0,2,0,1,,,,,,,,,,,,,,,,,,,,,,,,,,,,,,,,,,,,,,,
,,,,,,,,2023-08-16_08h47.32.075,HF_wild_card,2022.2.4,Win32,55.91277607,5bcda2ee6fd72000014996e4,64d2fd46c836a06233681665,64dc7e5fe7d73c8f3e8b8b30,,,,,,,sngl,resources/DB.BMP,resources/Empty.png,Door3,-0.171163882,-0.054950806,1,0,0,0.7139,optionLeft,70,7470,4,3,0,3,0,1,,,,,,,,,,,,,,,,,,,,,,,,,,,,,,,,,,,,,,,
,,,,,,,,2023-08-16_08h47.32.075,HF_wild_card,2022.2.4,Win32,55.91277607,5bcda2ee6fd72000014996e4,64d2fd46c836a06233681665,64dc7e5fe7d73c8f3e8b8b30,,,,,,,decisionTrl,resources/DB.BMP,resources/DR.BMP,Door4,0.282802548,-0.037348073,1,0,0,1.3122,optionRight,60,7530,4,4,0,4,0,1,,,,,,,,,,,,,,,,,,,,,,,,,,,,,,,,,,,,,,,
,,,,,,,,2023-08-16_08h47.32.075,HF_wild_card,2022.2.4,Win32,55.91277607,5bcda2ee6fd72000014996e4,64d2fd46c836a06233681665,64dc7e5fe7d73c8f3e8b8b30,,,,,,,decisionTrl,resources/DG.BMP,resources/DP.BMP,Door1,-0.18413428,-0.029009854,1,0,0,1.5628,optionLeft,30,7560,4,5,0,5,0,1,,,,,,,,,,,,,,,,,,,,,,,,,,,,,,,,,,,,,,,
,,,,,,,,2023-08-16_08h47.32.075,HF_wild_card,2022.2.4,Win32,55.91277607,5bcda2ee6fd72000014996e4,64d2fd46c836a06233681665,64dc7e5fe7d73c8f3e8b8b30,,,,,,,decisionTrl,resources/DG.BMP,resources/DP.BMP,Door1,-0.170237392,-0.061436044,1,0,0,1.5147,optionLeft,30,7590,4,6,0,6,0,1,,,,,,,,,,,,,,,,,,,,,,,,,,,,,,,,,,,,,,,
,,,,,,,,2023-08-16_08h47.32.075,HF_wild_card,2022.2.4,Win32,55.91277607,5bcda2ee6fd72000014996e4,64d2fd46c836a06233681665,64dc7e5fe7d73c8f3e8b8b30,,,,,,,decisionTrl,resources/DP.BMP,resources/DG.BMP,Door1,0.431962984,-0.048465568,1,0,0,1.1295,optionRight,30,7620,4,7,0,7,0,1,,,,,,,,,,,,,,,,,,,,,,,,,,,,,,,,,,,,,,,
,,,,,,,,2023-08-16_08h47.32.075,HF_wild_card,2022.2.4,Win32,55.91277607,5bcda2ee6fd72000014996e4,64d2fd46c836a06233681665,64dc7e5fe7d73c8f3e8b8b30,,,,,,,sngl,resources/DP.BMP,resources/Empty.png,Door2,-0.158193406,-0.046612627,1,0,0,0.7464,optionLeft,20,7640,4,8,0,8,0,1,,,,,,,,,,,,,,,,,,,,,,,,,,,,,,,,,,,,,,,
,,,,,,,,2023-08-16_08h47.32.075,HF_wild_card,2022.2.4,Win32,55.91277607,5bcda2ee6fd72000014996e4,64d2fd46c836a06233681665,64dc7e5fe7d73c8f3e8b8b30,,,,,,,sngl,resources/DG.BMP,resources/Empty.png,Door1,-0.198031247,-0.030862796,1,0,0,0.612,optionLeft,30,7670,4,9,0,9,0,1,,,,,,,,,,,,,,,,,,,,,,,,,,,,,,,,,,,,,,,
,,,,,,,,2023-08-16_08h47.32.075,HF_wild_card,2022.2.4,Win32,55.91277607,5bcda2ee6fd72000014996e4,64d2fd46c836a06233681665,64dc7e5fe7d73c8f3e8b8b30,,,,,,,decisionTrl,resources/DR.BMP,resources/DBN.BMP,WildCard_Ex,0.328199331,-0.04939202,1,0,0,2.0626,optionRight,95,7765,4,10,0,10,0,1,,,,,,,,,,,,,,,,,,,,,,,,,,,,,,,,,,,,,,,
,,,,,,,,2023-08-16_08h47.32.075,HF_wild_card,2022.2.4,Win32,55.91277607,5bcda2ee6fd72000014996e4,64d2fd46c836a06233681665,64dc7e5fe7d73c8f3e8b8b30,,,,,,,ctch,resources/DG.BMP,resources/DR.BMP,Door4,0.327272763,-0.003068902,1,0,0,1.5294,optionRight,60,7825,4,11,0,11,0,1,,,,,,,,,,,,,,,,,,,,,,,,,,,,,,,,,,,,,,,
,,,,,,,,2023-08-16_08h47.32.075,HF_wild_card,2022.2.4,Win32,55.91277607,5bcda2ee6fd72000014996e4,64d2fd46c836a06233681665,64dc7e5fe7d73c8f3e8b8b30,,,,,,,sngl,resources/Empty.png,resources/DBN.BMP,WildCard_Ex,0.192935783,0.017313264,1,0,0,0.7942,optionRight,5,7830,4,12,0,12,0,1,,,,,,,,,,,,,,,,,,,,,,,,,,,,,,,,,,,,,,,
,,,,,,,,2023-08-16_08h47.32.075,HF_wild_card,2022.2.4,Win32,55.91277607,5bcda2ee6fd72000014996e4,64d2fd46c836a06233681665,64dc7e5fe7d73c8f3e8b8b30,,,,,,,decisionTrl,resources/DBN.BMP,resources/DB.BMP,WildCard_Ex,-0.156340425,-0.040127389,1,0,0,2.5793,optionLeft,95,7925,4,13,0,13,0,1,,,,,,,,,,,,,,,,,,,,,,,,,,,,,,,,,,,,,,,
,,,,,,,,2023-08-16_08h47.32.075,HF_wild_card,2022.2.4,Win32,55.91277607,5bcda2ee6fd72000014996e4,64d2fd46c836a06233681665,64dc7e5fe7d73c8f3e8b8b30,,,,,,,decisionTrl,resources/DG.BMP,resources/DBN.BMP,WildCard_Ex,0.304111204,-0.012333533,1,0,0,1.2288,optionRight,5,7930,4,14,0,14,0,1,,,,,,,,,,,,,,,,,,,,,,,,,,,,,,,,,,,,,,,
,,,,,,,,2023-08-16_08h47.32.075,HF_wild_card,2022.2.4,Win32,55.91277607,5bcda2ee6fd72000014996e4,64d2fd46c836a06233681665,64dc7e5fe7d73c8f3e8b8b30,,,,,,,sngl,resources/Empty.png,resources/DBN.BMP,WildCard_Ex,0.233700114,0.024724953,1,0,0,0.8284,optionRight,95,8025,4,15,0,15,0,1,,,,,,,,,,,,,,,,,,,,,,,,,,,,,,,,,,,,,,,
,,,,,,,,2023-08-16_08h47.32.075,HF_wild_card,2022.2.4,Win32,55.91277607,5bcda2ee6fd72000014996e4,64d2fd46c836a06233681665,64dc7e5fe7d73c8f3e8b8b30,,,,,,,ctch,resources/DP.BMP,resources/DB.BMP,Door3,0.300405476,0.00619569,1,0,0,1.3885,optionRight,70,8095,4,16,0,16,0,1,,,,,,,,,,,,,,,,,,,,,,,,,,,,,,,,,,,,,,,
,,,,,,,,2023-08-16_08h47.32.075,HF_wild_card,2022.2.4,Win32,55.91277607,5bcda2ee6fd72000014996e4,64d2fd46c836a06233681665,64dc7e5fe7d73c8f3e8b8b30,,,,,,,sngl,resources/Empty.png,resources/DG.BMP,Door1,0.274464446,0.019166166,1,0,0,1.9615,optionRight,30,8125,4,17,0,17,0,1,,,,,,,,,,,,,,,,,,,,,,,,,,,,,,,,,,,,,,,
,,,,,,,,2023-08-16_08h47.32.075,HF_wild_card,2022.2.4,Win32,55.91277607,5bcda2ee6fd72000014996e4,64d2fd46c836a06233681665,64dc7e5fe7d73c8f3e8b8b30,,,,,,,sngl,resources/DBN.BMP,resources/Empty.png,WildCard_Ex,-0.157266916,-0.033642228,1,0,0,1.4288,optionLeft,5,8130,4,18,0,18,0,1,,,,,,,,,,,,,,,,,,,,,,,,,,,,,,,,,,,,,,,
,,,,,,,,2023-08-16_08h47.32.075,HF_wild_card,2022.2.4,Win32,55.91277607,5bcda2ee6fd72000014996e4,64d2fd46c836a06233681665,64dc7e5fe7d73c8f3e8b8b30,,,,,,,decisionTrl,resources/DB.BMP,resources/DBN.BMP,WildCard_Ex,0.229994231,0.022872011,1,0,0,0.6714,optionRight,95,8225,4,19,0,19,0,1,,,,,,,,,,,,,,,,,,,,,,,,,,,,,,,,,,,,,,,
,,,,,,,,2023-08-16_08h47.32.075,HF_wild_card,2022.2.4,Win32,55.91277607,5bcda2ee6fd72000014996e4,64d2fd46c836a06233681665,64dc7e5fe7d73c8f3e8b8b30,,,,,,,sngl,resources/Empty.png,resources/DP.BMP,Door2,0.192009293,0.024724953,1,0,0,0.7609,optionRight,40,8265,4,20,0,20,0,1,,,,,,,,,,,,,,,,,,,,,,,,,,,,,,,,,,,,,,,
,,,,,,,,2023-08-16_08h47.32.075,HF_wild_card,2022.2.4,Win32,55.91277607,5bcda2ee6fd72000014996e4,64d2fd46c836a06233681665,64dc7e5fe7d73c8f3e8b8b30,,,,,,,decisionTrl,resources/DR.BMP,resources/DB.BMP,Door4,-0.173943198,-0.034568641,1,0,0,1.1451,optionLeft,80,8345,4,21,0,21,0,1,,,,,,,,,,,,,,,,,,,,,,,,,,,,,,,,,,,,,,,
,,,,,,,,2023-08-16_08h47.32.075,HF_wild_card,2022.2.4,Win32,55.91277607,5bcda2ee6fd72000014996e4,64d2fd46c836a06233681665,64dc7e5fe7d73c8f3e8b8b30,,,,,,,sngl,resources/DR.BMP,resources/Empty.png,Door4,-0.160046153,-0.033642228,1,0,0,0.6534,optionLeft,60,8405,4,22,0,22,0,1,,,,,,,,,,,,,,,,,,,,,,,,,,,,,,,,,,,,,,,
,,,,,,,,2023-08-16_08h47.32.075,HF_wild_card,2022.2.4,Win32,55.91277607,5bcda2ee6fd72000014996e4,64d2fd46c836a06233681665,64dc7e5fe7d73c8f3e8b8b30,,,,,,,ctch,resources/DR.BMP,resources/DG.BMP,Door4,-0.146149343,-0.032715699,1,0,0,1.4134,optionLeft,60,8465,4,23,0,23,0,1,,,,,,,,,,,,,,,,,,,,,,,,,,,,,,,,,,,,,,,
,,,,,,,,2023-08-16_08h47.32.075,HF_wild_card,2022.2.4,Win32,55.91277607,5bcda2ee6fd72000014996e4,64d2fd46c836a06233681665,64dc7e5fe7d73c8f3e8b8b30,,,,,,,ctch,resources/DB.BMP,resources/DP.BMP,Door3,-0.175796178,-0.038274486,1,0,0,1.2283,optionLeft,70,8535,4,24,0,24,0,1,,,,,,,,,,,,,,,,,,,,,,,,,,,,,,,,,,,,,,,
,,,,,,,,2023-08-16_08h47.32.075,HF_wild_card,2022.2.4,Win32,55.91277607,5bcda2ee6fd72000014996e4,64d2fd46c836a06233681665,64dc7e5fe7d73c8f3e8b8b30,,,,,,,decisionTrl,resources/DP.BMP,resources/DG.BMP,Door1,0.255008693,-0.003068902,1,0,0,3.1288,optionRight,30,8565,4,25,0,25,0,1,,,,,,,,,,,,,,,,,,,,,,,,,,,,,,,,,,,,,,,
,,,,,,,,2023-08-16_08h47.32.075,HF_wild_card,2022.2.4,Win32,55.91277607,5bcda2ee6fd72000014996e4,64d2fd46c836a06233681665,64dc7e5fe7d73c8f3e8b8b30,,,,,,,decisionTrl,resources/DR.BMP,resources/DB.BMP,Door4,-0.237869127,-0.054024394,1,0,0,0.9551,optionLeft,60,8625,4,26,0,26,0,1,,,,,,,,,,,,,,,,,,,,,,,,,,,,,,,,,,,,,,,
,,,,,,,,2023-08-16_08h47.32.075,HF_wild_card,2022.2.4,Win32,55.91277607,5bcda2ee6fd72000014996e4,64d2fd46c836a06233681665,64dc7e5fe7d73c8f3e8b8b30,,,,,,,decisionTrl,resources/DBN.BMP,resources/DR.BMP,Door4,0.35136089,-0.030862796,1,0,0,2.4479,optionRight,60,8685,4,27,0,27,0,1,,,,,,,,,,,,,,,,,,,,,,,,,,,,,,,,,,,,,,,
,,,,,,,,2023-08-16_08h47.32.075,HF_wild_card,2022.2.4,Win32,55.91277607,5bcda2ee6fd72000014996e4,64d2fd46c836a06233681665,64dc7e5fe7d73c8f3e8b8b30,,,,,,,decisionTrl,resources/DP.BMP,resources/DG.BMP,Door1,0.260567479,0.005269239,1,0,0,1.0306,optionRight,30,8715,4,28,0,28,0,1,,,,,,,,,,,,,,,,,,,,,,,,,,,,,,,,,,,,,,,
,,,,,,,,2023-08-16_08h47.32.075,HF_wild_card,2022.2.4,Win32,55.91277607,5bcda2ee6fd72000014996e4,64d2fd46c836a06233681665,64dc7e5fe7d73c8f3e8b8b30,,,,,,,sngl,resources/Empty.png,resources/DB.BMP,Door3,0.225361935,-0.01048063,1,0,0,1.1127,optionRight,70,8785,4,29,0,29,0,1,,,,,,,,,,,,,,,,,,,,,,,,,,,,,,,,,,,,,,,
,,,,,,,,2023-08-16_08h47.32.075,HF_wild_card,2022.2.4,Win32,55.91277607,5bcda2ee6fd72000014996e4,64d2fd46c836a06233681665,64dc7e5fe7d73c8f3e8b8b30,,,,,,,ctch,resources/DR.BMP,resources/DG.BMP,Door4,-0.185060771,-0.033642228,1,0,0,1.9154,optionLeft,60,8845,4,30,0,30,0,1,,,,,,,,,,,,,,,,,,,,,,,,,,,,,,,,,,,,,,,
,,,,,,,,2023-08-16_08h47.32.075,HF_wild_card,2022.2.4,Win32,55.91277607,5bcda2ee6fd72000014996e4,64d2fd46c836a06233681665,64dc7e5fe7d73c8f3e8b8b30,,,,,,,decisionTrl,resources/DG.BMP,resources/DP.BMP,Door1,-0.242501423,-0.044759724,1,0,0,1.6125,optionLeft,30,8875,4,31,0,31,0,1,,,,,,,,,,,,,,,,,,,,,,,,,,,,,,,,,,,,,,,
,,,,,,,,2023-08-16_08h47.32.075,HF_wild_card,2022.2.4,Win32,55.91277607,5bcda2ee6fd72000014996e4,64d2fd46c836a06233681665,64dc7e5fe7d73c8f3e8b8b30,,,,,,,decisionTrl,resources/DBN.BMP,resources/DP.BMP,WildCard_Ex,-0.221192806,-0.059583103,1,0,0,1.179,optionLeft,95,8970,4,32,0,32,0,1,,,,,,,,,,,,,,,,,,,,,,,,,,,,,,,,,,,,,,,
,,,,,,,,2023-08-16_08h47.32.075,HF_wild_card,2022.2.4,Win32,55.91277607,5bcda2ee6fd72000014996e4,64d2fd46c836a06233681665,64dc7e5fe7d73c8f3e8b8b30,,,,,,,ctch,resources/DG.BMP,resources/DR.BMP,Door4,0.318934816,-0.01789232,1,0,0,5.2791,optionRight,80,9050,4,33,0,33,0,1,,,,,,,,,,,,,,,,,,,,,,,,,,,,,,,,,,,,,,,
,,,,,,,,2023-08-16_08h47.32.075,HF_wild_card,2022.2.4,Win32,55.91277607,5bcda2ee6fd72000014996e4,64d2fd46c836a06233681665,64dc7e5fe7d73c8f3e8b8b30,,,,,,,decisionTrl,resources/DB.BMP,resources/DR.BMP,Door4,0.255008693,-0.00955414,1,0,0,1.3291,optionRight,60,9110,4,34,0,34,0,1,,,,,,,,,,,,,,,,,,,,,,,,,,,,,,,,,,,,,,,
,,,,,,,,2023-08-16_08h47.32.075,HF_wild_card,2022.2.4,Win32,55.91277607,5bcda2ee6fd72000014996e4,64d2fd46c836a06233681665,64dc7e5fe7d73c8f3e8b8b30,,,,,,,sngl,resources/Empty.png,resources/DR.BMP,Door4,0.274464446,-0.00955414,1,0,0,0.9628,optionRight,80,9190,4,35,0,35,0,1,,,,,,,,,,,,,,,,,,,,,,,,,,,,,,,,,,,,,,,
,,,,,,,,2023-08-16_08h47.32.075,HF_wild_card,2022.2.4,Win32,55.91277607,5bcda2ee6fd72000014996e4,64d2fd46c836a06233681665,64dc7e5fe7d73c8f3e8b8b30,,,,,,,decisionTrl,resources/DB.BMP,resources/DR.BMP,Door4,0.226288503,-0.016965907,1,0,0,2.0602,optionRight,80,9270,4,36,0,36,0,1,,,,,,,,,,,,,,,,,,,,,,,,,,,,,,,,,,,,,,,
,,,,,,,,2023-08-16_08h47.32.075,HF_wild_card,2022.2.4,Win32,55.91277607,5bcda2ee6fd72000014996e4,64d2fd46c836a06233681665,64dc7e5fe7d73c8f3e8b8b30,,,,,,,decisionTrl,resources/DR.BMP,resources/DB.BMP,Door4,-0.232310379,-0.034568641,1,0,0,1.0126,optionLeft,60,9330,4,37,0,37,0,1,,,,,,,,,,,,,,,,,,,,,,,,,,,,,,,,,,,,,,,
,,,,,,,,2023-08-16_08h47.32.075,HF_wild_card,2022.2.4,Win32,55.91277607,5bcda2ee6fd72000014996e4,64d2fd46c836a06233681665,64dc7e5fe7d73c8f3e8b8b30,,,,,,,sngl,resources/DBN.BMP,resources/Empty.png,WildCard_Ex,-0.164678527,-0.018818771,1,0,0,4.7297,optionLeft,95,9425,4,38,0,38,0,1,,,,,,,,,,,,,,,,,,,,,,,,,,,,,,,,,,,,,,,
,,,,,,,,2023-08-16_08h47.32.075,HF_wild_card,2022.2.4,Win32,55.91277607,5bcda2ee6fd72000014996e4,64d2fd46c836a06233681665,64dc7e5fe7d73c8f3e8b8b30,,,,,,,decisionTrl,resources/DP.BMP,resources/DBN.BMP,Door2,-0.120208468,-0.039200937,1,0,0,1.9786,optionLeft,20,9445,4,39,0,39,0,1,,,,,,,,,,,,,,,,,,,,,,,,,,,,,,,,,,,,,,,
,,,,,,,,2023-08-16_08h47.32.075,HF_wild_card,2022.2.4,Win32,55.91277607,5bcda2ee6fd72000014996e4,64d2fd46c836a06233681665,64dc7e5fe7d73c8f3e8b8b30,,,,,,,ctch,resources/DB.BMP,resources/DP.BMP,Door3,-0.193398951,-0.041053879,1,0,0,3.8953,optionLeft,70,9515,4,40,0,40,0,1,,,,,,,,,,,,,,,,,,,,,,,,,,,,,,,,,,,,,,,
,,,,,,,,2023-08-16_08h47.32.075,HF_wild_card,2022.2.4,Win32,55.91277607,5bcda2ee6fd72000014996e4,64d2fd46c836a06233681665,64dc7e5fe7d73c8f3e8b8b30,,,,,,,decisionTrl,resources/DB.BMP,resources/DR.BMP,Door4,0.363404798,-0.036421544,1,0,0,1.9663,optionRight,60,9575,4,41,0,41,0,1,,,,,,,,,,,,,,,,,,,,,,,,,,,,,,,,,,,,,,,
,,,,,,,,2023-08-16_08h47.32.075,HF_wild_card,2022.2.4,Win32,55.91277607,5bcda2ee6fd72000014996e4,64d2fd46c836a06233681665,64dc7e5fe7d73c8f3e8b8b30,,,,,,,ctch,resources/DP.BMP,resources/DB.BMP,Door3,0.296699514,-0.024377558,1,0,0,2.6657,optionRight,70,9645,4,42,0,42,0,1,,,,,,,,,,,,,,,,,,,,,,,,,,,,,,,,,,,,,,,
,,,,,,,,2023-08-16_08h47.32.075,HF_wild_card,2022.2.4,Win32,55.91277607,5bcda2ee6fd72000014996e4,64d2fd46c836a06233681665,64dc7e5fe7d73c8f3e8b8b30,,,,,,,decisionTrl,resources/DBN.BMP,resources/DG.BMP,Door1,0.297626082,0.000636943,1,0,0,5.1788,optionRight,30,9675,4,43,0,43,0,1,,,,,,,,,,,,,,,,,,,,,,,,,,,,,,,,,,,,,,,
,,,,,,,,2023-08-16_08h47.32.075,HF_wild_card,2022.2.4,Win32,55.91277607,5bcda2ee6fd72000014996e4,64d2fd46c836a06233681665,64dc7e5fe7d73c8f3e8b8b30,,,,,,,,,,,,,,,,,,,,,,,,,,3,0,3,0,1,,,,,,,,,,,,,,,,,,,,,,,,,,,,,,,,,,
,,,,,,,,2023-08-16_08h47.32.075,HF_wild_card,2022.2.4,Win32,55.91277607,5bcda2ee6fd72000014996e4,64d2fd46c836a06233681665,64dc7e5fe7d73c8f3e8b8b30,,,,,,,decisionTrl,resources/DG.BMP,resources/DP.BMP,Door1,-0.18413428,-0.018818771,1,0,0,1.3276,optionLeft,30,9705,5,0,0,0,0,1,,,,,,,,,,,,,,,,,,,,,,,,,,,,,,,,,,,,,,,
,,,,,,,,2023-08-16_08h47.32.075,HF_wild_card,2022.2.4,Win32,55.91277607,5bcda2ee6fd72000014996e4,64d2fd46c836a06233681665,64dc7e5fe7d73c8f3e8b8b30,,,,,,,decisionTrl,resources/DG.BMP,resources/DP.BMP,Door1,-0.131325886,-0.028083403,1,0,0,0.7298,optionLeft,30,9735,5,1,0,1,0,1,,,,,,,,,,,,,,,,,,,,,,,,,,,,,,,,,,,,,,,
,,,,,,,,2023-08-16_08h47.32.075,HF_wild_card,2022.2.4,Win32,55.91277607,5bcda2ee6fd72000014996e4,64d2fd46c836a06233681665,64dc7e5fe7d73c8f3e8b8b30,,,,,,,decisionTrl,resources/DR.BMP,resources/DB.BMP,Door4,-0.108164405,-0.024377558,1,0,0,1.0643,optionLeft,60,9795,5,2,0,2,0,1,,,,,,,,,,,,,,,,,,,,,,,,,,,,,,,,,,,,,,,
,,,,,,,,2023-08-16_08h47.32.075,HF_wild_card,2022.2.4,Win32,55.91277607,5bcda2ee6fd72000014996e4,64d2fd46c836a06233681665,64dc7e5fe7d73c8f3e8b8b30,,,,,,,decisionTrl,resources/DBN.BMP,resources/DB.BMP,WildCard_Ex,-0.101679205,-0.042906782,1,0,0,1.246,optionLeft,95,9890,5,3,0,3,0,1,,,,,,,,,,,,,,,,,,,,,,,,,,,,,,,,,,,,,,,
,,,,,,,,2023-08-16_08h47.32.075,HF_wild_card,2022.2.4,Win32,55.91277607,5bcda2ee6fd72000014996e4,64d2fd46c836a06233681665,64dc7e5fe7d73c8f3e8b8b30,,,,,,,sngl,resources/Empty.png,resources/DR.BMP,Door4,0.164215438,-0.016039378,1,0,0,0.7855,optionRight,60,9950,5,4,0,4,0,1,,,,,,,,,,,,,,,,,,,,,,,,,,,,,,,,,,,,,,,
,,,,,,,,2023-08-16_08h47.32.075,HF_wild_card,2022.2.4,Win32,55.91277607,5bcda2ee6fd72000014996e4,64d2fd46c836a06233681665,64dc7e5fe7d73c8f3e8b8b30,,,,,,,decisionTrl,resources/DR.BMP,resources/DB.BMP,Door3,0.31430252,-0.01789232,1,0,0,1.4507,optionRight,70,10020,5,5,0,5,0,1,,,,,,,,,,,,,,,,,,,,,,,,,,,,,,,,,,,,,,,
,,,,,,,,2023-08-16_08h47.32.075,HF_wild_card,2022.2.4,Win32,55.91277607,5bcda2ee6fd72000014996e4,64d2fd46c836a06233681665,64dc7e5fe7d73c8f3e8b8b30,,,,,,,sngl,resources/DB.BMP,resources/Empty.png,Door3,-0.206369349,-0.029936306,1,0,0,0.7457,optionLeft,70,10090,5,6,0,6,0,1,,,,,,,,,,,,,,,,,,,,,,,,,,,,,,,,,,,,,,,
,,,,,,,,2023-08-16_08h47.32.075,HF_wild_card,2022.2.4,Win32,55.91277607,5bcda2ee6fd72000014996e4,64d2fd46c836a06233681665,64dc7e5fe7d73c8f3e8b8b30,,,,,,,ctch,resources/DR.BMP,resources/DG.BMP,Door4,-0.143369949,-0.035495092,1,0,0,1.5455,optionLeft,80,10170,5,7,0,7,0,1,,,,,,,,,,,,,,,,,,,,,,,,,,,,,,,,,,,,,,,
,,,,,,,,2023-08-16_08h47.32.075,HF_wild_card,2022.2.4,Win32,55.91277607,5bcda2ee6fd72000014996e4,64d2fd46c836a06233681665,64dc7e5fe7d73c8f3e8b8b30,,,,,,,decisionTrl,resources/DP.BMP,resources/DG.BMP,Door1,0.214244361,-0.031789248,1,0,0,1.3291,optionRight,30,10200,5,8,0,8,0,1,,,,,,,,,,,,,,,,,,,,,,,,,,,,,,,,,,,,,,,
,,,,,,,,2023-08-16_08h47.32.075,HF_wild_card,2022.2.4,Win32,55.91277607,5bcda2ee6fd72000014996e4,64d2fd46c836a06233681665,64dc7e5fe7d73c8f3e8b8b30,,,,,,,decisionTrl,resources/DBN.BMP,resources/DR.BMP,Door4,0.243891197,-0.031789248,1,0,0,1.6786,optionRight,80,10280,5,9,0,9,0,1,,,,,,,,,,,,,,,,,,,,,,,,,,,,,,,,,,,,,,,
,,,,,,,,2023-08-16_08h47.32.075,HF_wild_card,2022.2.4,Win32,55.91277607,5bcda2ee6fd72000014996e4,64d2fd46c836a06233681665,64dc7e5fe7d73c8f3e8b8b30,,,,,,,ctch,resources/DG.BMP,resources/DR.BMP,Door4,0.222582541,-0.023451068,1,0,0,1.1293,optionRight,60,10340,5,10,0,10,0,1,,,,,,,,,,,,,,,,,,,,,,,,,,,,,,,,,,,,,,,
,,,,,,,,2023-08-16_08h47.32.075,HF_wild_card,2022.2.4,Win32,55.91277607,5bcda2ee6fd72000014996e4,64d2fd46c836a06233681665,64dc7e5fe7d73c8f3e8b8b30,,,,,,,sngl,resources/DR.BMP,resources/Empty.png,Door4,-0.181354965,-0.028083403,1,0,0,0.7014,optionLeft,80,10420,5,11,0,11,0,1,,,,,,,,,,,,,,,,,,,,,,,,,,,,,,,,,,,,,,,
,,,,,,,,2023-08-16_08h47.32.075,HF_wild_card,2022.2.4,Win32,55.91277607,5bcda2ee6fd72000014996e4,64d2fd46c836a06233681665,64dc7e5fe7d73c8f3e8b8b30,,,,,,,decisionTrl,resources/DG.BMP,resources/DP.BMP,Door1,-0.321250653,-0.022524616,1,0,0,1.0945,optionLeft,30,10450,5,12,0,12,0,1,,,,,,,,,,,,,,,,,,,,,,,,,,,,,,,,,,,,,,,
,,,,,,,,2023-08-16_08h47.32.075,HF_wild_card,2022.2.4,Win32,55.91277607,5bcda2ee6fd72000014996e4,64d2fd46c836a06233681665,64dc7e5fe7d73c8f3e8b8b30,,,,,,,decisionTrl,resources/DP.BMP,resources/DG.BMP,Door1,0.188303565,-0.029009854,1,0,0,0.9364,optionRight,30,10480,5,13,0,13,0,1,,,,,,,,,,,,,,,,,,,,,,,,,,,,,,,,,,,,,,,
,,,,,,,,2023-08-16_08h47.32.075,HF_wild_card,2022.2.4,Win32,55.91277607,5bcda2ee6fd72000014996e4,64d2fd46c836a06233681665,64dc7e5fe7d73c8f3e8b8b30,,,,,,,decisionTrl,resources/DR.BMP,resources/DBN.BMP,WildCard_Ex,0.368963662,-0.068847734,1,0,0,1.4472,optionRight,5,10485,5,14,0,14,0,1,,,,,,,,,,,,,,,,,,,,,,,,,,,,,,,,,,,,,,,
,,,,,,,,2023-08-16_08h47.32.075,HF_wild_card,2022.2.4,Win32,55.91277607,5bcda2ee6fd72000014996e4,64d2fd46c836a06233681665,64dc7e5fe7d73c8f3e8b8b30,,,,,,,decisionTrl,resources/DB.BMP,resources/DR.BMP,Door4,0.239258979,0.002489846,1,0,0,2.8301,optionRight,60,10545,5,15,0,15,0,1,,,,,,,,,,,,,,,,,,,,,,,,,,,,,,,,,,,,,,,
,,,,,,,,2023-08-16_08h47.32.075,HF_wild_card,2022.2.4,Win32,55.91277607,5bcda2ee6fd72000014996e4,64d2fd46c836a06233681665,64dc7e5fe7d73c8f3e8b8b30,,,,,,,sngl,resources/DBN.BMP,resources/Empty.png,WildCard_Ex,-0.117429075,-0.029936306,1,0,0,1.4594,optionLeft,5,10550,5,16,0,16,0,1,,,,,,,,,,,,,,,,,,,,,,,,,,,,,,,,,,,,,,,
,,,,,,,,2023-08-16_08h47.32.075,HF_wild_card,2022.2.4,Win32,55.91277607,5bcda2ee6fd72000014996e4,64d2fd46c836a06233681665,64dc7e5fe7d73c8f3e8b8b30,,,,,,,decisionTrl,resources/DR.BMP,resources/DB.BMP,Door4,-0.227678005,-0.034568641,1,0,0,1.0627,optionLeft,80,10630,5,17,0,17,0,1,,,,,,,,,,,,,,,,,,,,,,,,,,,,,,,,,,,,,,,
,,,,,,,,2023-08-16_08h47.32.075,HF_wild_card,2022.2.4,Win32,55.91277607,5bcda2ee6fd72000014996e4,64d2fd46c836a06233681665,64dc7e5fe7d73c8f3e8b8b30,,,,,,,decisionTrl,resources/DR.BMP,resources/DB.BMP,Door4,-0.097046909,-0.036421544,1,0,0,0.7119,optionLeft,80,10710,5,18,0,18,0,1,,,,,,,,,,,,,,,,,,,,,,,,,,,,,,,,,,,,,,,
,,,,,,,,2023-08-16_08h47.32.075,HF_wild_card,2022.2.4,Win32,55.91277607,5bcda2ee6fd72000014996e4,64d2fd46c836a06233681665,64dc7e5fe7d73c8f3e8b8b30,,,,,,,decisionTrl,resources/DB.BMP,resources/DBN.BMP,WildCard_Ex,0.304111204,-0.050318471,1,0,0,0.745,optionRight,95,10805,5,19,0,19,0,1,,,,,,,,,,,,,,,,,,,,,,,,,,,,,,,,,,,,,,,
,,,,,,,,2023-08-16_08h47.32.075,HF_wild_card,2022.2.4,Win32,55.91277607,5bcda2ee6fd72000014996e4,64d2fd46c836a06233681665,64dc7e5fe7d73c8f3e8b8b30,,,,,,,sngl,resources/Empty.png,resources/DG.BMP,Door1,0.229994231,-0.033642228,1,0,0,0.7128,optionRight,30,10835,5,20,0,20,0,1,,,,,,,,,,,,,,,,,,,,,,,,,,,,,,,,,,,,,,,
,,,,,,,,2023-08-16_08h47.32.075,HF_wild_card,2022.2.4,Win32,55.91277607,5bcda2ee6fd72000014996e4,64d2fd46c836a06233681665,64dc7e5fe7d73c8f3e8b8b30,,,,,,,sngl,resources/DBN.BMP,resources/Empty.png,WildCard_Ex,-0.20914882,-0.034568641,1,0,0,3.0458,optionLeft,95,10930,5,21,0,21,0,1,,,,,,,,,,,,,,,,,,,,,,,,,,,,,,,,,,,,,,,
,,,,,,,,2023-08-16_08h47.32.075,HF_wild_card,2022.2.4,Win32,55.91277607,5bcda2ee6fd72000014996e4,64d2fd46c836a06233681665,64dc7e5fe7d73c8f3e8b8b30,,,,,,,sngl,resources/DG.BMP,resources/Empty.png,Door1,-0.230457398,-0.050318471,1,0,0,0.7418,optionLeft,30,10960,5,22,0,22,0,1,,,,,,,,,,,,,,,,,,,,,,,,,,,,,,,,,,,,,,,
,,,,,,,,2023-08-16_08h47.32.075,HF_wild_card,2022.2.4,Win32,55.91277607,5bcda2ee6fd72000014996e4,64d2fd46c836a06233681665,64dc7e5fe7d73c8f3e8b8b30,,,,,,,sngl,resources/Empty.png,resources/DP.BMP,Door2,0.239258979,-0.021598165,1,0,0,0.6217,optionRight,20,10980,5,23,0,23,0,1,,,,,,,,,,,,,,,,,,,,,,,,,,,,,,,,,,,,,,,
,,,,,,,,2023-08-16_08h47.32.075,HF_wild_card,2022.2.4,Win32,55.91277607,5bcda2ee6fd72000014996e4,64d2fd46c836a06233681665,64dc7e5fe7d73c8f3e8b8b30,,,,,,,sngl,resources/DP.BMP,resources/Empty.png,Door2,-0.185987261,-0.041053879,1,0,0,0.4856,optionLeft,40,11020,5,24,0,24,0,1,,,,,,,,,,,,,,,,,,,,,,,,,,,,,,,,,,,,,,,
,,,,,,,,2023-08-16_08h47.32.075,HF_wild_card,2022.2.4,Win32,55.91277607,5bcda2ee6fd72000014996e4,64d2fd46c836a06233681665,64dc7e5fe7d73c8f3e8b8b30,,,,,,,decisionTrl,resources/DG.BMP,resources/DP.BMP,Door2,0.215170852,-0.012333533,1,0,0,0.6626,optionRight,40,11060,5,25,0,25,0,1,,,,,,,,,,,,,,,,,,,,,,,,,,,,,,,,,,,,,,,
,,,,,,,,2023-08-16_08h47.32.075,HF_wild_card,2022.2.4,Win32,55.91277607,5bcda2ee6fd72000014996e4,64d2fd46c836a06233681665,64dc7e5fe7d73c8f3e8b8b30,,,,,,,ctch,resources/DG.BMP,resources/DR.BMP,Door4,0.292067218,-0.033642228,1,0,0,0.6701,optionRight,80,11140,5,26,0,26,0,1,,,,,,,,,,,,,,,,,,,,,,,,,,,,,,,,,,,,,,,
,,,,,,,,2023-08-16_08h47.32.075,HF_wild_card,2022.2.4,Win32,55.91277607,5bcda2ee6fd72000014996e4,64d2fd46c836a06233681665,64dc7e5fe7d73c8f3e8b8b30,,,,,,,ctch,resources/DP.BMP,resources/DB.BMP,Door3,0.282802548,-0.067921321,1,0,0,0.864,optionRight,70,11210,5,27,0,27,0,1,,,,,,,,,,,,,,,,,,,,,,,,,,,,,,,,,,,,,,,
,,,,,,,,2023-08-16_08h47.32.075,HF_wild_card,2022.2.4,Win32,55.91277607,5bcda2ee6fd72000014996e4,64d2fd46c836a06233681665,64dc7e5fe7d73c8f3e8b8b30,,,,,,,sngl,resources/Empty.png,resources/DBN.BMP,WildCard_Ex,0.165142006,-0.030862796,1,0,0,0.9378,optionRight,5,11215,5,28,0,28,0,1,,,,,,,,,,,,,,,,,,,,,,,,,,,,,,,,,,,,,,,
,,,,,,,,2023-08-16_08h47.32.075,HF_wild_card,2022.2.4,Win32,55.91277607,5bcda2ee6fd72000014996e4,64d2fd46c836a06233681665,64dc7e5fe7d73c8f3e8b8b30,,,,,,,decisionTrl,resources/DP.BMP,resources/DBN.BMP,WildCard_Ex,0.203126866,0.00619569,1,0,0,0.6661,optionRight,95,11310,5,29,0,29,0,1,,,,,,,,,,,,,,,,,,,,,,,,,,,,,,,,,,,,,,,
,,,,,,,,2023-08-16_08h47.32.075,HF_wild_card,2022.2.4,Win32,55.91277607,5bcda2ee6fd72000014996e4,64d2fd46c836a06233681665,64dc7e5fe7d73c8f3e8b8b30,,,,,,,ctch,resources/DR.BMP,resources/DG.BMP,Door4,-0.274001084,-0.01789232,1,0,0,1.5121,optionLeft,60,11370,5,30,0,30,0,1,,,,,,,,,,,,,,,,,,,,,,,,,,,,,,,,,,,,,,,
,,,,,,,,2023-08-16_08h47.32.075,HF_wild_card,2022.2.4,Win32,55.91277607,5bcda2ee6fd72000014996e4,64d2fd46c836a06233681665,64dc7e5fe7d73c8f3e8b8b30,,,,,,,sngl,resources/Empty.png,resources/DB.BMP,Door3,0.192009293,0.005269239,1,0,0,0.9625,optionRight,70,11440,5,31,0,31,0,1,,,,,,,,,,,,,,,,,,,,,,,,,,,,,,,,,,,,,,,
,,,,,,,,2023-08-16_08h47.32.075,HF_wild_card,2022.2.4,Win32,55.91277607,5bcda2ee6fd72000014996e4,64d2fd46c836a06233681665,64dc7e5fe7d73c8f3e8b8b30,,,,,,,sngl,resources/Empty.png,resources/DBN.BMP,WildCard_Ex,0.115112927,0.016386773,1,0,0,0.6386,optionRight,95,11535,5,32,0,32,0,1,,,,,,,,,,,,,,,,,,,,,,,,,,,,,,,,,,,,,,,
,,,,,,,,2023-08-16_08h47.32.075,HF_wild_card,2022.2.4,Win32,55.91277607,5bcda2ee6fd72000014996e4,64d2fd46c836a06233681665,64dc7e5fe7d73c8f3e8b8b30,,,,,,,decisionTrl,resources/DBN.BMP,resources/DG.BMP,WildCard_Ex,-0.218413412,-0.002142451,1,0,0,0.6369,optionLeft,5,11540,5,33,0,33,0,1,,,,,,,,,,,,,,,,,,,,,,,,,,,,,,,,,,,,,,,
,,,,,,,,2023-08-16_08h47.32.075,HF_wild_card,2022.2.4,Win32,55.91277607,5bcda2ee6fd72000014996e4,64d2fd46c836a06233681665,64dc7e5fe7d73c8f3e8b8b30,,,,,,,ctch,resources/DP.BMP,resources/DB.BMP,Door3,0.206832672,-0.01789232,1,0,0,1.8119,optionRight,70,11610,5,34,0,34,0,1,,,,,,,,,,,,,,,,,,,,,,,,,,,,,,,,,,,,,,,
,,,,,,,,2023-08-16_08h47.32.075,HF_wild_card,2022.2.4,Win32,55.91277607,5bcda2ee6fd72000014996e4,64d2fd46c836a06233681665,64dc7e5fe7d73c8f3e8b8b30,,,,,,,decisionTrl,resources/DB.BMP,resources/DR.BMP,Door4,0.193862196,-0.001215999,1,0,0,1.6785,optionRight,80,11690,5,35,0,35,0,1,,,,,,,,,,,,,,,,,,,,,,,,,,,,,,,,,,,,,,,
,,,,,,,,2023-08-16_08h47.32.075,HF_wild_card,2022.2.4,Win32,55.91277607,5bcda2ee6fd72000014996e4,64d2fd46c836a06233681665,64dc7e5fe7d73c8f3e8b8b30,,,,,,,ctch,resources/DB.BMP,resources/DP.BMP,Door3,-0.148002323,-0.035495092,1,0,0,1.2624,optionLeft,70,11760,5,36,0,36,0,1,,,,,,,,,,,,,,,,,,,,,,,,,,,,,,,,,,,,,,,
,,,,,,,,2023-08-16_08h47.32.075,HF_wild_card,2022.2.4,Win32,55.91277607,5bcda2ee6fd72000014996e4,64d2fd46c836a06233681665,64dc7e5fe7d73c8f3e8b8b30,,,,,,,decisionTrl,resources/DB.BMP,resources/DR.BMP,Door4,0.320787641,-0.043833311,1,0,0,0.8294,optionRight,80,11840,5,37,0,37,0,1,,,,,,,,,,,,,,,,,,,,,,,,,,,,,,,,,,,,,,,
,,,,,,,,2023-08-16_08h47.32.075,HF_wild_card,2022.2.4,Win32,55.91277607,5bcda2ee6fd72000014996e4,64d2fd46c836a06233681665,64dc7e5fe7d73c8f3e8b8b30,,,,,,,decisionTrl,resources/DBN.BMP,resources/DP.BMP,WildCard_Ex,-0.109090739,-0.020671713,1,0,0,1.112,optionLeft,5,11845,5,38,0,38,0,1,,,,,,,,,,,,,,,,,,,,,,,,,,,,,,,,,,,,,,,
,,,,,,,,2023-08-16_08h47.32.075,HF_wild_card,2022.2.4,Win32,55.91277607,5bcda2ee6fd72000014996e4,64d2fd46c836a06233681665,64dc7e5fe7d73c8f3e8b8b30,,,,,,,decisionTrl,resources/DB.BMP,resources/DR.BMP,Door3,-0.104458521,-0.040127389,1,0,0,0.8642,optionLeft,70,11915,5,39,0,39,0,1,,,,,,,,,,,,,,,,,,,,,,,,,,,,,,,,,,,,,,,
,,,,,,,,2023-08-16_08h47.32.075,HF_wild_card,2022.2.4,Win32,55.91277607,5bcda2ee6fd72000014996e4,64d2fd46c836a06233681665,64dc7e5fe7d73c8f3e8b8b30,,,,,,,decisionTrl,resources/DP.BMP,resources/DG.BMP,Door1,0.1892299,-0.028083403,1,0,0,1.2285,optionRight,30,11945,5,40,0,40,0,1,,,,,,,,,,,,,,,,,,,,,,,,,,,,,,,,,,,,,,,
,,,,,,,,2023-08-16_08h47.32.075,HF_wild_card,2022.2.4,Win32,55.91277607,5bcda2ee6fd72000014996e4,64d2fd46c836a06233681665,64dc7e5fe7d73c8f3e8b8b30,,,,,,,decisionTrl,resources/DP.BMP,resources/DG.BMP,Door1,0.188303565,-0.016039378,1,0,0,0.7548,optionRight,30,11975,5,41,0,41,0,1,,,,,,,,,,,,,,,,,,,,,,,,,,,,,,,,,,,,,,,
,,,,,,,,2023-08-16_08h47.32.075,HF_wild_card,2022.2.4,Win32,55.91277607,5bcda2ee6fd72000014996e4,64d2fd46c836a06233681665,64dc7e5fe7d73c8f3e8b8b30,,,,,,,decisionTrl,resources/DG.BMP,resources/DBN.BMP,WildCard_Ex,0.1892299,-0.006774825,1,0,0,0.7707,optionRight,5,11980,5,42,0,42,0,1,,,,,,,,,,,,,,,,,,,,,,,,,,,,,,,,,,,,,,,
,,,,,,,,2023-08-16_08h47.32.075,HF_wild_card,2022.2.4,Win32,55.91277607,5bcda2ee6fd72000014996e4,64d2fd46c836a06233681665,64dc7e5fe7d73c8f3e8b8b30,,,,,,,ctch,resources/DB.BMP,resources/DP.BMP,Door3,-0.171163882,-0.032715699,1,0,0,1.3116,optionLeft,70,12050,5,43,0,43,0,1,,,,,,,,,,,,,,,,,,,,,,,,,,,,,,,,,,,,,,,
,,,,,,,,2023-08-16_08h47.32.075,HF_wild_card,2022.2.4,Win32,55.91277607,5bcda2ee6fd72000014996e4,64d2fd46c836a06233681665,64dc7e5fe7d73c8f3e8b8b30,,,,,,,,,,,,,,,,,,,,,,,,,,4,0,4,0,1,,,,,,,,,,,,,,,,,,,,,,,,,,,,,,,,,,
,,,,,,,,2023-08-16_08h47.32.075,HF_wild_card,2022.2.4,Win32,55.91277607,5bcda2ee6fd72000014996e4,64d2fd46c836a06233681665,64dc7e5fe7d73c8f3e8b8b30,,,,,,,sngl,resources/DBN.BMP,resources/Empty.png,WildCard_Ex,-0.171163882,-0.029936306,1,0,0,0.7265,optionLeft,5,12055,6,0,0,0,0,1,,,,,,,,,,,,,,,,,,,,,,,,,,,,,,,,,,,,,,,
,,,,,,,,2023-08-16_08h47.32.075,HF_wild_card,2022.2.4,Win32,55.91277607,5bcda2ee6fd72000014996e4,64d2fd46c836a06233681665,64dc7e5fe7d73c8f3e8b8b30,,,,,,,decisionTrl,resources/DB.BMP,resources/DR.BMP,Door4,0.355066618,-0.024377558,1,0,0,0.9286,optionRight,80,12135,6,1,0,1,0,1,,,,,,,,,,,,,,,,,,,,,,,,,,,,,,,,,,,,,,,
,,,,,,,,2023-08-16_08h47.32.075,HF_wild_card,2022.2.4,Win32,55.91277607,5bcda2ee6fd72000014996e4,64d2fd46c836a06233681665,64dc7e5fe7d73c8f3e8b8b30,,,,,,,sngl,resources/Empty.png,resources/DR.BMP,Door4,0.186450506,-0.008627689,1,0,0,0.5454,optionRight,80,12215,6,2,0,2,0,1,,,,,,,,,,,,,,,,,,,,,,,,,,,,,,,,,,,,,,,
,,,,,,,,2023-08-16_08h47.32.075,HF_wild_card,2022.2.4,Win32,55.91277607,5bcda2ee6fd72000014996e4,64d2fd46c836a06233681665,64dc7e5fe7d73c8f3e8b8b30,,,,,,,sngl,resources/DR.BMP,resources/Empty.png,Door4,-0.187840086,-0.01048063,1,0,0,0.4446,optionLeft,60,12275,6,3,0,3,0,1,,,,,,,,,,,,,,,,,,,,,,,,,,,,,,,,,,,,,,,
,,,,,,,,2023-08-16_08h47.32.075,HF_wild_card,2022.2.4,Win32,55.91277607,5bcda2ee6fd72000014996e4,64d2fd46c836a06233681665,64dc7e5fe7d73c8f3e8b8b30,,,,,,,decisionTrl,resources/DG.BMP,resources/DP.BMP,Door1,-0.153561032,-0.023451068,1,0,0,1.1483,optionLeft,30,12305,6,4,0,4,0,1,,,,,,,,,,,,,,,,,,,,,,,,,,,,,,,,,,,,,,,
,,,,,,,,2023-08-16_08h47.32.075,HF_wild_card,2022.2.4,Win32,55.91277607,5bcda2ee6fd72000014996e4,64d2fd46c836a06233681665,64dc7e5fe7d73c8f3e8b8b30,,,,,,,decisionTrl,resources/DP.BMP,resources/DG.BMP,Door1,0.228141328,-0.003995392,1,0,0,0.8815,optionRight,30,12335,6,5,0,5,0,1,,,,,,,,,,,,,,,,,,,,,,,,,,,,,,,,,,,,,,,
,,,,,,,,2023-08-16_08h47.32.075,HF_wild_card,2022.2.4,Win32,55.91277607,5bcda2ee6fd72000014996e4,64d2fd46c836a06233681665,64dc7e5fe7d73c8f3e8b8b30,,,,,,,sngl,resources/DG.BMP,resources/Empty.png,Door1,-0.151708051,-0.012333533,1,0,0,0.5158,optionLeft,30,12365,6,6,0,6,0,1,,,,,,,,,,,,,,,,,,,,,,,,,,,,,,,,,,,,,,,
,,,,,,,,2023-08-16_08h47.32.075,HF_wild_card,2022.2.4,Win32,55.91277607,5bcda2ee6fd72000014996e4,64d2fd46c836a06233681665,64dc7e5fe7d73c8f3e8b8b30,,,,,,,decisionTrl,resources/DR.BMP,resources/DB.BMP,Door4,-0.174869688,-0.00955414,1,0,0,0.8124,optionLeft,80,12445,6,7,0,7,0,1,,,,,,,,,,,,,,,,,,,,,,,,,,,,,,,,,,,,,,,
,,,,,,,,2023-08-16_08h47.32.075,HF_wild_card,2022.2.4,Win32,55.91277607,5bcda2ee6fd72000014996e4,64d2fd46c836a06233681665,64dc7e5fe7d73c8f3e8b8b30,,,,,,,ctch,resources/DP.BMP,resources/DB.BMP,Door2,-0.183207712,-0.022524616,1,0,0,0.8118,optionLeft,40,12485,6,8,0,8,0,1,,,,,,,,,,,,,,,,,,,,,,,,,,,,,,,,,,,,,,,
,,,,,,,,2023-08-16_08h47.32.075,HF_wild_card,2022.2.4,Win32,55.91277607,5bcda2ee6fd72000014996e4,64d2fd46c836a06233681665,64dc7e5fe7d73c8f3e8b8b30,,,,,,,ctch,resources/DP.BMP,resources/DB.BMP,Door3,0.178112482,-0.000289548,1,0,0,0.5958,optionRight,70,12555,6,9,0,9,0,1,,,,,,,,,,,,,,,,,,,,,,,,,,,,,,,,,,,,,,,
,,,,,,,,2023-08-16_08h47.32.075,HF_wild_card,2022.2.4,Win32,55.91277607,5bcda2ee6fd72000014996e4,64d2fd46c836a06233681665,64dc7e5fe7d73c8f3e8b8b30,,,,,,,ctch,resources/DR.BMP,resources/DG.BMP,Door4,-0.132252298,-0.019745223,1,0,0,1.2957,optionLeft,80,12635,6,10,0,10,0,1,,,,,,,,,,,,,,,,,,,,,,,,,,,,,,,,,,,,,,,
,,,,,,,,2023-08-16_08h47.32.075,HF_wild_card,2022.2.4,Win32,55.91277607,5bcda2ee6fd72000014996e4,64d2fd46c836a06233681665,64dc7e5fe7d73c8f3e8b8b30,,,,,,,sngl,resources/Empty.png,resources/DBN.BMP,WildCard_Ex,0.197568079,-0.007701237,1,0,0,0.7622,optionRight,5,12640,6,11,0,11,0,1,,,,,,,,,,,,,,,,,,,,,,,,,,,,,,,,,,,,,,,
,,,,,,,,2023-08-16_08h47.32.075,HF_wild_card,2022.2.4,Win32,55.91277607,5bcda2ee6fd72000014996e4,64d2fd46c836a06233681665,64dc7e5fe7d73c8f3e8b8b30,,,,,,,decisionTrl,resources/DBN.BMP,resources/DB.BMP,WildCard_Ex,-0.162825702,-0.012333533,1,0,0,0.7117,optionLeft,95,12735,6,12,0,12,0,1,,,,,,,,,,,,,,,,,,,,,,,,,,,,,,,,,,,,,,,
,,,,,,,,2023-08-16_08h47.32.075,HF_wild_card,2022.2.4,Win32,55.91277607,5bcda2ee6fd72000014996e4,64d2fd46c836a06233681665,64dc7e5fe7d73c8f3e8b8b30,,,,,,,decisionTrl,resources/DG.BMP,resources/DP.BMP,Door1,-0.122987784,-0.035495092,1,0,0,1.2786,optionLeft,30,12765,6,13,0,13,0,1,,,,,,,,,,,,,,,,,,,,,,,,,,,,,,,,,,,,,,,
,,,,,,,,2023-08-16_08h47.32.075,HF_wild_card,2022.2.4,Win32,55.91277607,5bcda2ee6fd72000014996e4,64d2fd46c836a06233681665,64dc7e5fe7d73c8f3e8b8b30,,,,,,,decisionTrl,resources/DG.BMP,resources/DP.BMP,Door1,-0.152634619,-0.023451068,1,0,0,0.8794,optionLeft,30,12795,6,14,0,14,0,1,,,,,,,,,,,,,,,,,,,,,,,,,,,,,,,,,,,,,,,
,,,,,,,,2023-08-16_08h47.32.075,HF_wild_card,2022.2.4,Win32,55.91277607,5bcda2ee6fd72000014996e4,64d2fd46c836a06233681665,64dc7e5fe7d73c8f3e8b8b30,,,,,,,decisionTrl,resources/DBN.BMP,resources/DP.BMP,Door2,-0.06462068,-0.020671713,1,0,0,0.8456,optionRight,40,12835,6,15,0,15,0,1,,,,,,,,,,,,,,,,,,,,,,,,,,,,,,,,,,,,,,,
,,,,,,,,2023-08-16_08h47.32.075,HF_wild_card,2022.2.4,Win32,55.91277607,5bcda2ee6fd72000014996e4,64d2fd46c836a06233681665,64dc7e5fe7d73c8f3e8b8b30,,,,,,,decisionTrl,resources/DP.BMP,resources/DG.BMP,Door1,0.215170852,0.008048632,1,0,0,2.346,optionRight,30,12865,6,16,0,16,0,1,,,,,,,,,,,,,,,,,,,,,,,,,,,,,,,,,,,,,,,
,,,,,,,,2023-08-16_08h47.32.075,HF_wild_card,2022.2.4,Win32,55.91277607,5bcda2ee6fd72000014996e4,64d2fd46c836a06233681665,64dc7e5fe7d73c8f3e8b8b30,,,,,,,sngl,resources/Empty.png,resources/DG.BMP,Door1,0.162362535,0.042327725,1,0,0,0.7126,optionRight,30,12895,6,17,0,17,0,1,,,,,,,,,,,,,,,,,,,,,,,,,,,,,,,,,,,,,,,
,,,,,,,,2023-08-16_08h47.32.075,HF_wild_card,2022.2.4,Win32,55.91277607,5bcda2ee6fd72000014996e4,64d2fd46c836a06233681665,64dc7e5fe7d73c8f3e8b8b30,,,,,,,decisionTrl,resources/DG.BMP,resources/DP.BMP,Door1,-0.103532108,0.004342787,1,0,0,1.5323,optionLeft,30,12925,6,18,0,18,0,1,,,,,,,,,,,,,,,,,,,,,,,,,,,,,,,,,,,,,,,
,,,,,,,,2023-08-16_08h47.32.075,HF_wild_card,2022.2.4,Win32,55.91277607,5bcda2ee6fd72000014996e4,64d2fd46c836a06233681665,64dc7e5fe7d73c8f3e8b8b30,,,,,,,decisionTrl,resources/DP.BMP,resources/DG.BMP,Door1,0.214244361,-0.002142451,1,0,0,0.8126,optionRight,30,12955,6,19,0,19,0,1,,,,,,,,,,,,,,,,,,,,,,,,,,,,,,,,,,,,,,,
,,,,,,,,2023-08-16_08h47.32.075,HF_wild_card,2022.2.4,Win32,55.91277607,5bcda2ee6fd72000014996e4,64d2fd46c836a06233681665,64dc7e5fe7d73c8f3e8b8b30,,,,,,,ctch,resources/DG.BMP,resources/DR.BMP,Door4,0.206832672,0.011754477,1,0,0,0.8146,optionRight,60,13015,6,20,0,20,0,1,,,,,,,,,,,,,,,,,,,,,,,,,,,,,,,,,,,,,,,
,,,,,,,,2023-08-16_08h47.32.075,HF_wild_card,2022.2.4,Win32,55.91277607,5bcda2ee6fd72000014996e4,64d2fd46c836a06233681665,64dc7e5fe7d73c8f3e8b8b30,,,,,,,decisionTrl,resources/DG.BMP,resources/DBN.BMP,WildCard_Ex,0.131789286,0.00619569,1,0,0,0.7465,optionRight,95,13110,6,21,0,21,0,1,,,,,,,,,,,,,,,,,,,,,,,,,,,,,,,,,,,,,,,
,,,,,,,,2023-08-16_08h47.32.075,HF_wild_card,2022.2.4,Win32,55.91277607,5bcda2ee6fd72000014996e4,64d2fd46c836a06233681665,64dc7e5fe7d73c8f3e8b8b30,,,,,,,decisionTrl,resources/DB.BMP,resources/DR.BMP,Door4,0.423624882,0.008975084,1,0,0,1.1787,optionRight,80,13190,6,22,0,22,0,1,,,,,,,,,,,,,,,,,,,,,,,,,,,,,,,,,,,,,,,
,,,,,,,,2023-08-16_08h47.32.075,HF_wild_card,2022.2.4,Win32,55.91277607,5bcda2ee6fd72000014996e4,64d2fd46c836a06233681665,64dc7e5fe7d73c8f3e8b8b30,,,,,,,decisionTrl,resources/DB.BMP,resources/DBN.BMP,WildCard_Ex,0.204053279,0.000636943,1,0,0,1.3811,optionRight,5,13195,6,23,0,23,0,1,,,,,,,,,,,,,,,,,,,,,,,,,,,,,,,,,,,,,,,
,,,,,,,,2023-08-16_08h47.32.075,HF_wild_card,2022.2.4,Win32,55.91277607,5bcda2ee6fd72000014996e4,64d2fd46c836a06233681665,64dc7e5fe7d73c8f3e8b8b30,,,,,,,decisionTrl,resources/DP.BMP,resources/DG.BMP,Door1,0.303184713,0.008975084,1,0,0,2.0796,optionRight,30,13225,6,24,0,24,0,1,,,,,,,,,,,,,,,,,,,,,,,,,,,,,,,,,,,,,,,
,,,,,,,,2023-08-16_08h47.32.075,HF_wild_card,2022.2.4,Win32,55.91277607,5bcda2ee6fd72000014996e4,64d2fd46c836a06233681665,64dc7e5fe7d73c8f3e8b8b30,,,,,,,decisionTrl,resources/DB.BMP,resources/DR.BMP,Door4,0.249450062,0.008975084,1,0,0,0.7455,optionRight,60,13285,6,25,0,25,0,1,,,,,,,,,,,,,,,,,,,,,,,,,,,,,,,,,,,,,,,
,,,,,,,,2023-08-16_08h47.32.075,HF_wild_card,2022.2.4,Win32,55.91277607,5bcda2ee6fd72000014996e4,64d2fd46c836a06233681665,64dc7e5fe7d73c8f3e8b8b30,,,,,,,sngl,resources/DP.BMP,resources/Empty.png,Door2,-0.135031847,-0.016965907,1,0,0,1.2293,optionLeft,20,13305,6,26,0,26,0,1,,,,,,,,,,,,,,,,,,,,,,,,,,,,,,,,,,,,,,,
,,,,,,,,2023-08-16_08h47.32.075,HF_wild_card,2022.2.4,Win32,55.91277607,5bcda2ee6fd72000014996e4,64d2fd46c836a06233681665,64dc7e5fe7d73c8f3e8b8b30,,,,,,,ctch,resources/DB.BMP,resources/DP.BMP,Door3,-0.196178344,-0.035495092,1,0,0,0.9636,optionLeft,70,13375,6,27,0,27,0,1,,,,,,,,,,,,,,,,,,,,,,,,,,,,,,,,,,,,,,,
,,,,,,,,2023-08-16_08h47.32.075,HF_wild_card,2022.2.4,Win32,55.91277607,5bcda2ee6fd72000014996e4,64d2fd46c836a06233681665,64dc7e5fe7d73c8f3e8b8b30,,,,,,,sngl,resources/Empty.png,resources/DB.BMP,Door3,0.238332411,-0.016965907,1,0,0,0.5959,optionRight,70,13445,6,28,0,28,0,1,,,,,,,,,,,,,,,,,,,,,,,,,,,,,,,,,,,,,,,
,,,,,,,,2023-08-16_08h47.32.075,HF_wild_card,2022.2.4,Win32,55.91277607,5bcda2ee6fd72000014996e4,64d2fd46c836a06233681665,64dc7e5fe7d73c8f3e8b8b30,,,,,,,sngl,resources/Empty.png,resources/DBN.BMP,WildCard_Ex,0.265199775,-0.006774825,1,0,0,0.5956,optionRight,95,13540,6,29,0,29,0,1,,,,,,,,,,,,,,,,,,,,,,,,,,,,,,,,,,,,,,,
,,,,,,,,2023-08-16_08h47.32.075,HF_wild_card,2022.2.4,Win32,55.91277607,5bcda2ee6fd72000014996e4,64d2fd46c836a06233681665,64dc7e5fe7d73c8f3e8b8b30,,,,,,,sngl,resources/DB.BMP,resources/Empty.png,Door3,-0.309206706,-0.024377558,1,0,0,0.4785,optionLeft,70,13610,6,30,0,30,0,1,,,,,,,,,,,,,,,,,,,,,,,,,,,,,,,,,,,,,,,
,,,,,,,,2023-08-16_08h47.32.075,HF_wild_card,2022.2.4,Win32,55.91277607,5bcda2ee6fd72000014996e4,64d2fd46c836a06233681665,64dc7e5fe7d73c8f3e8b8b30,,,,,,,ctch,resources/DR.BMP,resources/DG.BMP,Door4,-0.170237392,-0.016039378,1,0,0,1.4121,optionLeft,60,13670,6,31,0,31,0,1,,,,,,,,,,,,,,,,,,,,,,,,,,,,,,,,,,,,,,,
,,,,,,,,2023-08-16_08h47.32.075,HF_wild_card,2022.2.4,Win32,55.91277607,5bcda2ee6fd72000014996e4,64d2fd46c836a06233681665,64dc7e5fe7d73c8f3e8b8b30,,,,,,,decisionTrl,resources/DBN.BMP,resources/DG.BMP,WildCard_Ex,-0.164678527,-0.028083403,1,0,0,1.0292,optionLeft,95,13765,6,32,0,32,0,1,,,,,,,,,,,,,,,,,,,,,,,,,,,,,,,,,,,,,,,
,,,,,,,,2023-08-16_08h47.32.075,HF_wild_card,2022.2.4,Win32,55.91277607,5bcda2ee6fd72000014996e4,64d2fd46c836a06233681665,64dc7e5fe7d73c8f3e8b8b30,,,,,,,decisionTrl,resources/DP.BMP,resources/DBN.BMP,Door2,-0.111870288,-0.029009854,1,0,0,1.2626,optionLeft,20,13785,6,33,0,33,0,1,,,,,,,,,,,,,,,,,,,,,,,,,,,,,,,,,,,,,,,
,,,,,,,,2023-08-16_08h47.32.075,HF_wild_card,2022.2.4,Win32,55.91277607,5bcda2ee6fd72000014996e4,64d2fd46c836a06233681665,64dc7e5fe7d73c8f3e8b8b30,,,,,,,decisionTrl,resources/DB.BMP,resources/DR.BMP,Door4,0.318008248,-0.015112927,1,0,0,1.4489,optionRight,80,13865,6,34,0,34,0,1,,,,,,,,,,,,,,,,,,,,,,,,,,,,,,,,,,,,,,,
,,,,,,,,2023-08-16_08h47.32.075,HF_wild_card,2022.2.4,Win32,55.91277607,5bcda2ee6fd72000014996e4,64d2fd46c836a06233681665,64dc7e5fe7d73c8f3e8b8b30,,,,,,,ctch,resources/DG.BMP,resources/DR.BMP,Door4,0.211464968,-0.006774825,1,0,0,0.8461,optionRight,60,13925,6,35,0,35,0,1,,,,,,,,,,,,,,,,,,,,,,,,,,,,,,,,,,,,,,,
,,,,,,,,2023-08-16_08h47.32.075,HF_wild_card,2022.2.4,Win32,55.91277607,5bcda2ee6fd72000014996e4,64d2fd46c836a06233681665,64dc7e5fe7d73c8f3e8b8b30,,,,,,,ctch,resources/DB.BMP,resources/DP.BMP,Door3,-0.090561555,-0.04198033,1,0,0,1.2491,optionLeft,70,13995,6,36,0,36,0,1,,,,,,,,,,,,,,,,,,,,,,,,,,,,,,,,,,,,,,,
,,,,,,,,2023-08-16_08h47.32.075,HF_wild_card,2022.2.4,Win32,55.91277607,5bcda2ee6fd72000014996e4,64d2fd46c836a06233681665,64dc7e5fe7d73c8f3e8b8b30,,,,,,,sngl,resources/DBN.BMP,resources/Empty.png,WildCard_Ex,-0.196178344,-0.029936306,1,0,0,0.6159,optionLeft,95,14090,6,37,0,37,0,1,,,,,,,,,,,,,,,,,,,,,,,,,,,,,,,,,,,,,,,
,,,,,,,,2023-08-16_08h47.32.075,HF_wild_card,2022.2.4,Win32,55.91277607,5bcda2ee6fd72000014996e4,64d2fd46c836a06233681665,64dc7e5fe7d73c8f3e8b8b30,,,,,,,decisionTrl,resources/DBN.BMP,resources/DR.BMP,Door4,0.292993631,-0.016965907,1,0,0,2.83,optionRight,80,14170,6,38,0,38,0,1,,,,,,,,,,,,,,,,,,,,,,,,,,,,,,,,,,,,,,,
,,,,,,,,2023-08-16_08h47.32.075,HF_wild_card,2022.2.4,Win32,55.91277607,5bcda2ee6fd72000014996e4,64d2fd46c836a06233681665,64dc7e5fe7d73c8f3e8b8b30,,,,,,,sngl,resources/Empty.png,resources/DP.BMP,Door2,0.26149397,0.001563394,1,0,0,0.8122,optionRight,40,14210,6,39,0,39,0,1,,,,,,,,,,,,,,,,,,,,,,,,,,,,,,,,,,,,,,,
,,,,,,,,2023-08-16_08h47.32.075,HF_wild_card,2022.2.4,Win32,55.91277607,5bcda2ee6fd72000014996e4,64d2fd46c836a06233681665,64dc7e5fe7d73c8f3e8b8b30,,,,,,,decisionTrl,resources/DR.BMP,resources/DBN.BMP,WildCard_Ex,0.223509032,0.01453387,1,0,0,3.1618,optionRight,95,14305,6,40,0,40,0,1,,,,,,,,,,,,,,,,,,,,,,,,,,,,,,,,,,,,,,,
,,,,,,,,2023-08-16_08h47.32.075,HF_wild_card,2022.2.4,Win32,55.91277607,5bcda2ee6fd72000014996e4,64d2fd46c836a06233681665,64dc7e5fe7d73c8f3e8b8b30,,,,,,,decisionTrl,resources/DR.BMP,resources/DB.BMP,Door4,-0.198957737,-0.031789248,1,0,0,0.9962,optionLeft,80,14385,6,41,0,41,0,1,,,,,,,,,,,,,,,,,,,,,,,,,,,,,,,,,,,,,,,
,,,,,,,,2023-08-16_08h47.32.075,HF_wild_card,2022.2.4,Win32,55.91277607,5bcda2ee6fd72000014996e4,64d2fd46c836a06233681665,64dc7e5fe7d73c8f3e8b8b30,,,,,,,decisionTrl,resources/DR.BMP,resources/DB.BMP,Door4,-0.124840764,-0.032715699,1,0,0,0.7915,optionLeft,60,14445,6,42,0,42,0,1,,,,,,,,,,,,,,,,,,,,,,,,,,,,,,,,,,,,,,,
,,,,,,,,2023-08-16_08h47.32.075,HF_wild_card,2022.2.4,Win32,55.91277607,5bcda2ee6fd72000014996e4,64d2fd46c836a06233681665,64dc7e5fe7d73c8f3e8b8b30,,,,,,,decisionTrl,resources/DR.BMP,resources/DB.BMP,Door4,-0.194325363,-0.029009854,1,0,0,2.3628,optionLeft,80,14525,6,43,0,43,0,1,,,,,,,,,,,,,,,,,,,,,,,,,,,,,,,,,,,,,,,
,,,,,,,,2023-08-16_08h47.32.075,HF_wild_card,2022.2.4,Win32,55.91277607,5bcda2ee6fd72000014996e4,64d2fd46c836a06233681665,64dc7e5fe7d73c8f3e8b8b30,,,,,,,,,,,,,,,,,,,,,,,,,,5,0,5,0,1,,,,,,,,,,,,,,,,,,,,,,,,,,,,,,,,,,
,,,,,,,,2023-08-16_08h47.32.075,HF_wild_card,2022.2.4,Win32,55.91277607,5bcda2ee6fd72000014996e4,64d2fd46c836a06233681665,64dc7e5fe7d73c8f3e8b8b30,,,,,,,decisionTrl,resources/DP.BMP,resources/DG.BMP,Door1,0.320787641,-0.028083403,1,0,0,1.2242,optionRight,30,14555,7,0,0,0,0,1,,,,,,,,,,,,,,,,,,,,,,,,,,,,,,,,,,,,,,,
,,,,,,,,2023-08-16_08h47.32.075,HF_wild_card,2022.2.4,Win32,55.91277607,5bcda2ee6fd72000014996e4,64d2fd46c836a06233681665,64dc7e5fe7d73c8f3e8b8b30,,,,,,,decisionTrl,resources/DB.BMP,resources/DR.BMP,Door4,0.268905659,-0.016039378,1,0,0,0.8647,optionRight,80,14635,7,1,0,1,0,1,,,,,,,,,,,,,,,,,,,,,,,,,,,,,,,,,,,,,,,
,,,,,,,,2023-08-16_08h47.32.075,HF_wild_card,2022.2.4,Win32,55.91277607,5bcda2ee6fd72000014996e4,64d2fd46c836a06233681665,64dc7e5fe7d73c8f3e8b8b30,,,,,,,decisionTrl,resources/DR.BMP,resources/DB.BMP,Door4,-0.20822233,-0.054024394,1,0,0,0.8642,optionLeft,80,14715,7,2,0,2,0,1,,,,,,,,,,,,,,,,,,,,,,,,,,,,,,,,,,,,,,,
,,,,,,,,2023-08-16_08h47.32.075,HF_wild_card,2022.2.4,Win32,55.91277607,5bcda2ee6fd72000014996e4,64d2fd46c836a06233681665,64dc7e5fe7d73c8f3e8b8b30,,,,,,,ctch,resources/DB.BMP,resources/DP.BMP,Door3,-0.185987261,-0.086450506,1,0,0,1.1976,optionLeft,70,14785,7,3,0,3,0,1,,,,,,,,,,,,,,,,,,,,,,,,,,,,,,,,,,,,,,,
,,,,,,,,2023-08-16_08h47.32.075,HF_wild_card,2022.2.4,Win32,55.91277607,5bcda2ee6fd72000014996e4,64d2fd46c836a06233681665,64dc7e5fe7d73c8f3e8b8b30,,,,,,,ctch,resources/DB.BMP,resources/DP.BMP,Door3,-0.221192806,-0.078112404,1,0,0,2.1648,optionLeft,70,14855,7,4,0,4,0,1,,,,,,,,,,,,,,,,,,,,,,,,,,,,,,,,,,,,,,,
,,,,,,,,2023-08-16_08h47.32.075,HF_wild_card,2022.2.4,Win32,55.91277607,5bcda2ee6fd72000014996e4,64d2fd46c836a06233681665,64dc7e5fe7d73c8f3e8b8b30,,,,,,,decisionTrl,resources/DG.BMP,resources/DP.BMP,Door2,0.269832227,-0.066994792,1,0,0,1.0797,optionRight,20,14875,7,5,0,5,0,1,,,,,,,,,,,,,,,,,,,,,,,,,,,,,,,,,,,,,,,
,,,,,,,,2023-08-16_08h47.32.075,HF_wild_card,2022.2.4,Win32,55.91277607,5bcda2ee6fd72000014996e4,64d2fd46c836a06233681665,64dc7e5fe7d73c8f3e8b8b30,,,,,,,decisionTrl,resources/DB.BMP,resources/DR.BMP,Door4,0.333757962,-0.039200937,1,0,0,1.1327,optionRight,80,14955,7,6,0,6,0,1,,,,,,,,,,,,,,,,,,,,,,,,,,,,,,,,,,,,,,,
,,,,,,,,2023-08-16_08h47.32.075,HF_wild_card,2022.2.4,Win32,55.91277607,5bcda2ee6fd72000014996e4,64d2fd46c836a06233681665,64dc7e5fe7d73c8f3e8b8b30,,,,,,,decisionTrl,resources/DB.BMP,resources/DR.BMP,Door3,-0.18413428,-0.042906782,1,0,0,0.9327,optionLeft,70,15025,7,7,0,7,0,1,,,,,,,,,,,,,,,,,,,,,,,,,,,,,,,,,,,,,,,
,,,,,,,,2023-08-16_08h47.32.075,HF_wild_card,2022.2.4,Win32,55.91277607,5bcda2ee6fd72000014996e4,64d2fd46c836a06233681665,64dc7e5fe7d73c8f3e8b8b30,,,,,,,decisionTrl,resources/DB.BMP,resources/DR.BMP,Door3,-0.222119296,-0.052171413,1,0,0,0.6161,optionLeft,70,15095,7,8,0,8,0,1,,,,,,,,,,,,,,,,,,,,,,,,,,,,,,,,,,,,,,,
,,,,,,,,2023-08-16_08h47.32.075,HF_wild_card,2022.2.4,Win32,55.91277607,5bcda2ee6fd72000014996e4,64d2fd46c836a06233681665,64dc7e5fe7d73c8f3e8b8b30,,,,,,,decisionTrl,resources/DP.BMP,resources/DG.BMP,Door1,0.229994231,-0.020671713,1,0,0,1.0838,optionRight,30,15125,7,9,0,9,0,1,,,,,,,,,,,,,,,,,,,,,,,,,,,,,,,,,,,,,,,
,,,,,,,,2023-08-16_08h47.32.075,HF_wild_card,2022.2.4,Win32,55.91277607,5bcda2ee6fd72000014996e4,64d2fd46c836a06233681665,64dc7e5fe7d73c8f3e8b8b30,,,,,,,decisionTrl,resources/DB.BMP,resources/DR.BMP,Door3,-0.295309779,-0.01048063,1,0,0,4.8816,optionLeft,70,15195,7,10,0,10,0,1,,,,,,,,,,,,,,,,,,,,,,,,,,,,,,,,,,,,,,,
,,,,,,,,2023-08-16_08h47.32.075,HF_wild_card,2022.2.4,Win32,55.91277607,5bcda2ee6fd72000014996e4,64d2fd46c836a06233681665,64dc7e5fe7d73c8f3e8b8b30,,,,,,,ctch,resources/DG.BMP,resources/DR.BMP,Door4,0.224435444,-0.007701237,1,0,0,0.898,optionRight,60,15255,7,11,0,11,0,1,,,,,,,,,,,,,,,,,,,,,,,,,,,,,,,,,,,,,,,
,,,,,,,,2023-08-16_08h47.32.075,HF_wild_card,2022.2.4,Win32,55.91277607,5bcda2ee6fd72000014996e4,64d2fd46c836a06233681665,64dc7e5fe7d73c8f3e8b8b30,,,,,,,ctch,resources/DG.BMP,resources/DR.BMP,Door4,0.247597003,-0.001215999,1,0,0,1.0477,optionRight,80,15335,7,12,0,12,0,1,,,,,,,,,,,,,,,,,,,,,,,,,,,,,,,,,,,,,,,
,,,,,,,,2023-08-16_08h47.32.075,HF_wild_card,2022.2.4,Win32,55.91277607,5bcda2ee6fd72000014996e4,64d2fd46c836a06233681665,64dc7e5fe7d73c8f3e8b8b30,,,,,,,decisionTrl,resources/DR.BMP,resources/DB.BMP,Door3,0.233700114,0.015460322,1,0,0,1.3825,optionRight,70,15405,7,13,0,13,0,1,,,,,,,,,,,,,,,,,,,,,,,,,,,,,,,,,,,,,,,
,,,,,,,,2023-08-16_08h47.32.075,HF_wild_card,2022.2.4,Win32,55.91277607,5bcda2ee6fd72000014996e4,64d2fd46c836a06233681665,64dc7e5fe7d73c8f3e8b8b30,,,,,,,decisionTrl,resources/DR.BMP,resources/DB.BMP,Door3,0.158656651,0.018239715,1,0,0,0.7983,optionRight,70,15475,7,14,0,14,0,1,,,,,,,,,,,,,,,,,,,,,,,,,,,,,,,,,,,,,,,
,,,,,,,,2023-08-16_08h47.32.075,HF_wild_card,2022.2.4,Win32,55.91277607,5bcda2ee6fd72000014996e4,64d2fd46c836a06233681665,64dc7e5fe7d73c8f3e8b8b30,,,,,,,decisionTrl,resources/DP.BMP,resources/DG.BMP,Door1,0.260567479,0.025651405,1,0,0,1.0145,optionRight,30,15505,7,15,0,15,0,1,,,,,,,,,,,,,,,,,,,,,,,,,,,,,,,,,,,,,,,
,,,,,,,,2023-08-16_08h47.32.075,HF_wild_card,2022.2.4,Win32,55.91277607,5bcda2ee6fd72000014996e4,64d2fd46c836a06233681665,64dc7e5fe7d73c8f3e8b8b30,,,,,,,decisionTrl,resources/DP.BMP,resources/DG.BMP,Door1,0.228141328,0.015460322,1,0,0,0.782,optionRight,30,15535,7,16,0,16,0,1,,,,,,,,,,,,,,,,,,,,,,,,,,,,,,,,,,,,,,,
,,,,,,,,2023-08-16_08h47.32.075,HF_wild_card,2022.2.4,Win32,55.91277607,5bcda2ee6fd72000014996e4,64d2fd46c836a06233681665,64dc7e5fe7d73c8f3e8b8b30,,,,,,,decisionTrl,resources/DP.BMP,resources/DG.BMP,Door1,0.278170252,0.025651405,1,0,0,0.6643,optionRight,30,15565,7,17,0,17,0,1,,,,,,,,,,,,,,,,,,,,,,,,,,,,,,,,,,,,,,,
,,,,,,,,2023-08-16_08h47.32.075,HF_wild_card,2022.2.4,Win32,55.91277607,5bcda2ee6fd72000014996e4,64d2fd46c836a06233681665,64dc7e5fe7d73c8f3e8b8b30,,,,,,,ctch,resources/DR.BMP,resources/DG.BMP,Door4,-0.220266315,-0.045686175,1,0,0,1.0154,optionLeft,60,15625,7,18,0,18,0,1,,,,,,,,,,,,,,,,,,,,,,,,,,,,,,,,,,,,,,,
,,,,,,,,2023-08-16_08h47.32.075,HF_wild_card,2022.2.4,Win32,55.91277607,5bcda2ee6fd72000014996e4,64d2fd46c836a06233681665,64dc7e5fe7d73c8f3e8b8b30,,,,,,,decisionTrl,resources/DB.BMP,resources/DR.BMP,Door3,-0.221192806,-0.041053879,1,0,0,1.3649,optionLeft,70,15695,7,19,0,19,0,1,,,,,,,,,,,,,,,,,,,,,,,,,,,,,,,,,,,,,,,
,,,,,,,,2023-08-16_08h47.32.075,HF_wild_card,2022.2.4,Win32,55.91277607,5bcda2ee6fd72000014996e4,64d2fd46c836a06233681665,64dc7e5fe7d73c8f3e8b8b30,,,,,,,decisionTrl,resources/DG.BMP,resources/DP.BMP,Door1,-0.205442936,-0.079965268,1,0,0,2.8648,optionLeft,30,15725,7,20,0,20,0,1,,,,,,,,,,,,,,,,,,,,,,,,,,,,,,,,,,,,,,,
,,,,,,,,2023-08-16_08h47.32.075,HF_wild_card,2022.2.4,Win32,55.91277607,5bcda2ee6fd72000014996e4,64d2fd46c836a06233681665,64dc7e5fe7d73c8f3e8b8b30,,,,,,,decisionTrl,resources/DR.BMP,resources/DB.BMP,Door4,-0.134105357,-0.088303487,1,0,0,2.1652,optionLeft,60,15785,7,21,0,21,0,1,,,,,,,,,,,,,,,,,,,,,,,,,,,,,,,,,,,,,,,
,,,,,,,,2023-08-16_08h47.32.075,HF_wild_card,2022.2.4,Win32,55.91277607,5bcda2ee6fd72000014996e4,64d2fd46c836a06233681665,64dc7e5fe7d73c8f3e8b8b30,,,,,,,ctch,resources/DB.BMP,resources/DP.BMP,Door3,-0.115576094,-0.082744662,1,0,0,0.847,optionLeft,70,15855,7,22,0,22,0,1,,,,,,,,,,,,,,,,,,,,,,,,,,,,,,,,,,,,,,,
,,,,,,,,2023-08-16_08h47.32.075,HF_wild_card,2022.2.4,Win32,55.91277607,5bcda2ee6fd72000014996e4,64d2fd46c836a06233681665,64dc7e5fe7d73c8f3e8b8b30,,,,,,,ctch,resources/DR.BMP,resources/DG.BMP,Door4,-0.135031847,-0.064215477,1,0,0,0.9643,optionLeft,60,15915,7,23,0,23,0,1,,,,,,,,,,,,,,,,,,,,,,,,,,,,,,,,,,,,,,,
,,,,,,,,2023-08-16_08h47.32.075,HF_wild_card,2022.2.4,Win32,55.91277607,5bcda2ee6fd72000014996e4,64d2fd46c836a06233681665,64dc7e5fe7d73c8f3e8b8b30,,,,,,,decisionTrl,resources/DR.BMP,resources/DB.BMP,Door3,0.336537355,0.009901535,1,0,0,1.0164,optionRight,70,15985,7,24,0,24,0,1,,,,,,,,,,,,,,,,,,,,,,,,,,,,,,,,,,,,,,,
,,,,,,,,2023-08-16_08h47.32.075,HF_wild_card,2022.2.4,Win32,55.91277607,5bcda2ee6fd72000014996e4,64d2fd46c836a06233681665,64dc7e5fe7d73c8f3e8b8b30,,,,,,,decisionTrl,resources/DG.BMP,resources/DP.BMP,Door1,-0.146149343,-0.059583103,1,0,0,0.9312,optionLeft,30,16015,7,25,0,25,0,1,,,,,,,,,,,,,,,,,,,,,,,,,,,,,,,,,,,,,,,
,,,,,,,,2023-08-16_08h47.32.075,HF_wild_card,2022.2.4,Win32,55.91277607,5bcda2ee6fd72000014996e4,64d2fd46c836a06233681665,64dc7e5fe7d73c8f3e8b8b30,,,,,,,decisionTrl,resources/DG.BMP,resources/DP.BMP,Door1,-0.115576094,-0.04198033,1,0,0,0.8314,optionLeft,30,16045,7,26,0,26,0,1,,,,,,,,,,,,,,,,,,,,,,,,,,,,,,,,,,,,,,,
,,,,,,,,2023-08-16_08h47.32.075,HF_wild_card,2022.2.4,Win32,55.91277607,5bcda2ee6fd72000014996e4,64d2fd46c836a06233681665,64dc7e5fe7d73c8f3e8b8b30,,,,,,,ctch,resources/DR.BMP,resources/DG.BMP,Door4,-0.156340425,-0.066068341,1,0,0,1.4317,optionLeft,60,16105,7,27,0,27,0,1,,,,,,,,,,,,,,,,,,,,,,,,,,,,,,,,,,,,,,,
,,,,,,,,2023-08-16_08h47.32.075,HF_wild_card,2022.2.4,Win32,55.91277607,5bcda2ee6fd72000014996e4,64d2fd46c836a06233681665,64dc7e5fe7d73c8f3e8b8b30,,,,,,,ctch,resources/DG.BMP,resources/DR.BMP,Door4,0.221656051,-0.018818771,1,0,0,1.0809,optionRight,80,16185,7,28,0,28,0,1,,,,,,,,,,,,,,,,,,,,,,,,,,,,,,,,,,,,,,,
,,,,,,,,2023-08-16_08h47.32.075,HF_wild_card,2022.2.4,Win32,55.91277607,5bcda2ee6fd72000014996e4,64d2fd46c836a06233681665,64dc7e5fe7d73c8f3e8b8b30,,,,,,,decisionTrl,resources/DR.BMP,resources/DB.BMP,Door3,0.243891197,-0.019745223,1,0,0,0.983,optionRight,70,16255,7,29,0,29,0,1,,,,,,,,,,,,,,,,,,,,,,,,,,,,,,,,,,,,,,,
,,,,,,,,2023-08-16_08h47.32.075,HF_wild_card,2022.2.4,Win32,55.91277607,5bcda2ee6fd72000014996e4,64d2fd46c836a06233681665,64dc7e5fe7d73c8f3e8b8b30,,,,,,,ctch,resources/DP.BMP,resources/DB.BMP,Door3,0.256861751,-0.02715699,1,0,0,0.7148,optionRight,70,16325,7,30,0,30,0,1,,,,,,,,,,,,,,,,,,,,,,,,,,,,,,,,,,,,,,,
,,,,,,,,2023-08-16_08h47.32.075,HF_wild_card,2022.2.4,Win32,55.91277607,5bcda2ee6fd72000014996e4,64d2fd46c836a06233681665,64dc7e5fe7d73c8f3e8b8b30,,,,,,,ctch,resources/DP.BMP,resources/DB.BMP,Door3,0.209612065,-0.02530401,1,0,0,0.6977,optionRight,70,16395,7,31,0,31,0,1,,,,,,,,,,,,,,,,,,,,,,,,,,,,,,,,,,,,,,,
,,,,,,,,2023-08-16_08h47.32.075,HF_wild_card,2022.2.4,Win32,55.91277607,5bcda2ee6fd72000014996e4,64d2fd46c836a06233681665,64dc7e5fe7d73c8f3e8b8b30,,,,,,,decisionTrl,resources/DG.BMP,resources/DP.BMP,Door1,-0.118355487,-0.053097865,1,0,0,0.7985,optionLeft,30,16425,7,32,0,32,0,1,,,,,,,,,,,,,,,,,,,,,,,,,,,,,,,,,,,,,,,
,,,,,,,,2023-08-16_08h47.32.075,HF_wild_card,2022.2.4,Win32,55.91277607,5bcda2ee6fd72000014996e4,64d2fd46c836a06233681665,64dc7e5fe7d73c8f3e8b8b30,,,,,,,ctch,resources/DP.BMP,resources/DB.BMP,Door3,0.213317949,-0.04198033,1,0,0,0.8645,optionRight,70,16495,7,33,0,33,0,1,,,,,,,,,,,,,,,,,,,,,,,,,,,,,,,,,,,,,,,
,,,,,,,,2023-08-16_08h47.32.075,HF_wild_card,2022.2.4,Win32,55.91277607,5bcda2ee6fd72000014996e4,64d2fd46c836a06233681665,64dc7e5fe7d73c8f3e8b8b30,,,,,,,decisionTrl,resources/DG.BMP,resources/DP.BMP,Door1,-0.118355487,-0.070700637,1,0,0,0.7971,optionLeft,30,16525,7,34,0,34,0,1,,,,,,,,,,,,,,,,,,,,,,,,,,,,,,,,,,,,,,,
,,,,,,,,2023-08-16_08h47.32.075,HF_wild_card,2022.2.4,Win32,55.91277607,5bcda2ee6fd72000014996e4,64d2fd46c836a06233681665,64dc7e5fe7d73c8f3e8b8b30,,,,,,,decisionTrl,resources/DP.BMP,resources/DG.BMP,Door2,-0.262883588,-0.095715138,1,0,0,0.7307,optionLeft,20,16545,7,35,0,35,0,1,,,,,,,,,,,,,,,,,,,,,,,,,,,,,,,,,,,,,,,
,,,,,,,,2023-08-16_08h47.32.075,HF_wild_card,2022.2.4,Win32,55.91277607,5bcda2ee6fd72000014996e4,64d2fd46c836a06233681665,64dc7e5fe7d73c8f3e8b8b30,,,,,,,,,,,,,,,,,,,,,,,,,,6,0,6,0,1,,,,,,,,,,,,,,,,,,,,,,,,,,,,,,,,,,
,,,,,,,,2023-08-16_08h47.32.075,HF_wild_card,2022.2.4,Win32,55.91277607,5bcda2ee6fd72000014996e4,64d2fd46c836a06233681665,64dc7e5fe7d73c8f3e8b8b30,,,,,,,,,,,,,,,,,,,,,,,,,,,,,,,4,,,,,,,,,,,,,,,,,,,,,,,,,,,,,,,,,
,,,,,,,,2023-08-16_08h47.32.075,HF_wild_card,2022.2.4,Win32,55.91277607,5bcda2ee6fd72000014996e4,64d2fd46c836a06233681665,64dc7e5fe7d73c8f3e8b8b30,,,,,,,,,,,,,,,,,,,,,,,,,,,,,,,,,,,,,,,,,,,,,,,,,,,,,,,,,,,,,,,,
,,,,,,,,2023-08-16_08h47.32.075,HF_wild_card,2022.2.4,Win32,55.91277607,5bcda2ee6fd72000014996e4,64d2fd46c836a06233681665,64dc7e5fe7d73c8f3e8b8b30,,,,,,,,,,,,,,,,,,,,,,,,,,,,,,,,70,Door3,resources/DB.BMP,0,0,0,0,1,,,,,,,,,,,,,,,,,,,,,,,,,
,,,,,,,,2023-08-16_08h47.32.075,HF_wild_card,2022.2.4,Win32,55.91277607,5bcda2ee6fd72000014996e4,64d2fd46c836a06233681665,64dc7e5fe7d73c8f3e8b8b30,,,,,,,,,,,,,,,,,,,,,,,,,,,,,,,,20,Door2,resources/DP.BMP,1,0,1,0,1,,,,,,,,,,,,,,,,,,,,,,,,,
,,,,,,,,2023-08-16_08h47.32.075,HF_wild_card,2022.2.4,Win32,55.91277607,5bcda2ee6fd72000014996e4,64d2fd46c836a06233681665,64dc7e5fe7d73c8f3e8b8b30,,,,,,,,,,,,,,,,,,,,,,,,,,,,,,,,80,Door4,resources/DR.BMP,2,0,2,0,1,,,,,,,,,,,,,,,,,,,,,,,,,
,,,,,,,,2023-08-16_08h47.32.075,HF_wild_card,2022.2.4,Win32,55.91277607,5bcda2ee6fd72000014996e4,64d2fd46c836a06233681665,64dc7e5fe7d73c8f3e8b8b30,,,,,,,,,,,,,,,,,,,,,,,,,,,,,,,,55,WC_nonExtreme,resources/DY.BMP,3,0,3,0,1,,,,,,,,,,,,,,,,,,,,,,,,,
,,,,,,,,2023-08-16_08h47.32.075,HF_wild_card,2022.2.4,Win32,55.91277607,5bcda2ee6fd72000014996e4,64d2fd46c836a06233681665,64dc7e5fe7d73c8f3e8b8b30,,,,,,,,,,,,,,,,,,,,,,,,,,,,,,,,30,Door1,resources/DG.BMP,4,0,4,0,1,,,,,,,,,,,,,,,,,,,,,,,,,
,,,,,,,,2023-08-16_08h47.32.075,HF_wild_card,2022.2.4,Win32,55.91277607,5bcda2ee6fd72000014996e4,64d2fd46c836a06233681665,64dc7e5fe7d73c8f3e8b8b30,,,,,,,,,,,,,,,,,,,,,,,,,,,,,,,,95,WC_extreme,resources/DBN.BMP,5,0,5,0,1,,,,,,,,,,,,,,,,,,,,,,,,,
,,,,,,,,2023-08-16_08h47.32.075,HF_wild_card,2022.2.4,Win32,55.91277607,5bcda2ee6fd72000014996e4,64d2fd46c836a06233681665,64dc7e5fe7d73c8f3e8b8b30,,,,,,,,,,,,,,,,,,,,,,,,,,,,,,,,,,,,,,,,,,,,,,,,,,,,,,,,,,,,,,,,
