Condition,Low fixed image (Door1),Low risky image (Door2),High fixed image (Door3),High risky image (Door4),Extreme Wild Card,NonExtreme Wild Card,,date,expName,psychopyVersion,OS,frameRate,PROLIFIC_PID,STUDY_ID,SESSION_ID,mouse_2.x,mouse_2.y,mouse_2.leftButton,mouse_2.midButton,mouse_2.rightButton,mouse_2.clicked_name,Trial Type,Left Option Image,Right Option Image,Chosen Door,mouse.x,mouse.y,mouse.leftButton,mouse.midButton,mouse.rightButton,mouse.time,mouse.clicked_name,Feedback,Cumulative Reward,Block,trial.thisRepN,trial.thisTrialN,trial.thisN,trial.thisIndex,trial.ran,blocks.thisRepN,blocks.thisTrialN,blocks.thisN,blocks.thisIndex,blocks.ran,Money conversion,First Outcome Reported,Shown Door (First Outcome),Displayed Image (First Outcome),outcomes.thisRepN,outcomes.thisTrialN,outcomes.thisN,outcomes.thisIndex,outcomes.ran,judgments.thisRepN,judgments.thisTrialN,judgments.thisN,judgments.thisIndex,judgments.ran,freqMouse.x,freqMouse.y,freqMouse.leftButton,freqMouse.midButton,freqMouse.rightButton,freqMouse.clicked_name,trials.thisRepN,trials.thisTrialN,trials.thisN,trials.thisIndex,trials.ran,FQJ for first outcome,FQJ for second outcome,Shown Door,Displayed Image,judgBlock.thisRepN,judgBlock.thisTrialN,judgBlock.thisN,judgBlock.thisIndex,judgBlock.ran
0,resources/DP.BMP,resources/DBN.BMP,resources/DR.BMP,resources/DY.BMP,resources/DG.BMP,resources/DB.BMP,,2023-08-06_08h12.20.991,HF_wild_card,2022.2.4,Win32,60.13590715,5cc29fbea548c00018afb7a0,64ce5acb97489d65b14ecc7a,64cf47c779638d2f13de6259,,,,,,,,,,,,,,,,,,,,,,,,,,,,,,,,,,,,,,,,,,,,,,,,,,,,,,,,,,,,,,,,
,,,,,,,,2023-08-06_08h12.20.991,HF_wild_card,2022.2.4,Win32,60.13590715,5cc29fbea548c00018afb7a0,64ce5acb97489d65b14ecc7a,64cf47c779638d2f13de6259,-0.011111083,-0.418518561,1,0,0,agree,,,,,,,,,,,,,,,,,,,,,,,,,,,,,,,,,,,,,,,,,,,,,,,,,,,,,,,,,,
,,,,,,,,2023-08-06_08h12.20.991,HF_wild_card,2022.2.4,Win32,60.13590715,5cc29fbea548c00018afb7a0,64ce5acb97489d65b14ecc7a,64cf47c779638d2f13de6259,,,,,,,,,,,,,,,,,,,,,,,,,,,,,,,,,,,,,,,,,,,,,,,,,,,,,,,,,,,,,,,,
,,,,,,,,2023-08-06_08h12.20.991,HF_wild_card,2022.2.4,Win32,60.13590715,5cc29fbea548c00018afb7a0,64ce5acb97489d65b14ecc7a,64cf47c779638d2f13de6259,,,,,,,ctch,resources/DBN.BMP,resources/DR.BMP,Door3,0.301851908,-0.116666653,1,0,0,4.3348,optionRight,70,70,1,0,0,0,0,1,,,,,,,,,,,,,,,,,,,,,,,,,,,,,,,,,,,,,,,
,,,,,,,,2023-08-06_08h12.20.991,HF_wild_card,2022.2.4,Win32,60.13590715,5cc29fbea548c00018afb7a0,64ce5acb97489d65b14ecc7a,64cf47c779638d2f13de6259,,,,,,,ctch,resources/DR.BMP,resources/DBN.BMP,Door3,-0.313888868,-0.017592607,1,0,0,2.7759,optionLeft,70,140,1,1,0,1,0,1,,,,,,,,,,,,,,,,,,,,,,,,,,,,,,,,,,,,,,,
,,,,,,,,2023-08-06_08h12.20.991,HF_wild_card,2022.2.4,Win32,60.13590715,5cc29fbea548c00018afb7a0,64ce5acb97489d65b14ecc7a,64cf47c779638d2f13de6259,,,,,,,sngl,resources/Empty.png,resources/DG.BMP,WildCard_Ex,0.33148151,0.025925919,1,0,0,1.769,optionRight,5,145,1,2,0,2,0,1,,,,,,,,,,,,,,,,,,,,,,,,,,,,,,,,,,,,,,,
,,,,,,,,2023-08-06_08h12.20.991,HF_wild_card,2022.2.4,Win32,60.13590715,5cc29fbea548c00018afb7a0,64ce5acb97489d65b14ecc7a,64cf47c779638d2f13de6259,,,,,,,sngl,resources/DG.BMP,resources/Empty.png,WildCard_Ex,-0.258333347,-0.005555577,1,0,0,1.4121,optionLeft,5,150,1,3,0,3,0,1,,,,,,,,,,,,,,,,,,,,,,,,,,,,,,,,,,,,,,,
,,,,,,,,2023-08-06_08h12.20.991,HF_wild_card,2022.2.4,Win32,60.13590715,5cc29fbea548c00018afb7a0,64ce5acb97489d65b14ecc7a,64cf47c779638d2f13de6259,,,,,,,decisionTrl,resources/DP.BMP,resources/DBN.BMP,Door1,-0.317592586,-0.055555556,1,0,0,2.3937,optionLeft,30,180,1,4,0,4,0,1,,,,,,,,,,,,,,,,,,,,,,,,,,,,,,,,,,,,,,,
,,,,,,,,2023-08-06_08h12.20.991,HF_wild_card,2022.2.4,Win32,60.13590715,5cc29fbea548c00018afb7a0,64ce5acb97489d65b14ecc7a,64cf47c779638d2f13de6259,,,,,,,decisionTrl,resources/DR.BMP,resources/DY.BMP,Door3,-0.348148134,-0.013888889,1,0,0,1.7433,optionLeft,70,250,1,5,0,5,0,1,,,,,,,,,,,,,,,,,,,,,,,,,,,,,,,,,,,,,,,
,,,,,,,,2023-08-06_08h12.20.991,HF_wild_card,2022.2.4,Win32,60.13590715,5cc29fbea548c00018afb7a0,64ce5acb97489d65b14ecc7a,64cf47c779638d2f13de6259,,,,,,,ctch,resources/DY.BMP,resources/DP.BMP,Door1,0.275000042,-0.044444437,1,0,0,2.9255,optionRight,30,280,1,6,0,6,0,1,,,,,,,,,,,,,,,,,,,,,,,,,,,,,,,,,,,,,,,
,,,,,,,,2023-08-06_08h12.20.991,HF_wild_card,2022.2.4,Win32,60.13590715,5cc29fbea548c00018afb7a0,64ce5acb97489d65b14ecc7a,64cf47c779638d2f13de6259,,,,,,,decisionTrl,resources/DY.BMP,resources/DG.BMP,Door4,-0.247222194,-0.037037037,1,0,0,4.0415,optionLeft,60,340,1,7,0,7,0,1,,,,,,,,,,,,,,,,,,,,,,,,,,,,,,,,,,,,,,,
,,,,,,,,2023-08-06_08h12.20.991,HF_wild_card,2022.2.4,Win32,60.13590715,5cc29fbea548c00018afb7a0,64ce5acb97489d65b14ecc7a,64cf47c779638d2f13de6259,,,,,,,sngl,resources/DG.BMP,resources/Empty.png,WildCard_Ex,-0.249074088,-0.005555577,1,0,0,1.3753,optionLeft,95,435,1,8,0,8,0,1,,,,,,,,,,,,,,,,,,,,,,,,,,,,,,,,,,,,,,,
,,,,,,,,2023-08-06_08h12.20.991,HF_wild_card,2022.2.4,Win32,60.13590715,5cc29fbea548c00018afb7a0,64ce5acb97489d65b14ecc7a,64cf47c779638d2f13de6259,,,,,,,decisionTrl,resources/DP.BMP,resources/DBN.BMP,Door1,-0.335185192,-0.040740755,1,0,0,2.1934,optionLeft,30,465,1,9,0,9,0,1,,,,,,,,,,,,,,,,,,,,,,,,,,,,,,,,,,,,,,,
,,,,,,,,2023-08-06_08h12.20.991,HF_wild_card,2022.2.4,Win32,60.13590715,5cc29fbea548c00018afb7a0,64ce5acb97489d65b14ecc7a,64cf47c779638d2f13de6259,,,,,,,decisionTrl,resources/DY.BMP,resources/DR.BMP,Door3,0.323148233,0.002777771,1,0,0,1.7619,optionRight,70,535,1,10,0,10,0,1,,,,,,,,,,,,,,,,,,,,,,,,,,,,,,,,,,,,,,,
,,,,,,,,2023-08-06_08h12.20.991,HF_wild_card,2022.2.4,Win32,60.13590715,5cc29fbea548c00018afb7a0,64ce5acb97489d65b14ecc7a,64cf47c779638d2f13de6259,,,,,,,decisionTrl,resources/DR.BMP,resources/DY.BMP,Door3,-0.330555563,-0.013888889,1,0,0,1.8464,optionLeft,70,605,1,11,0,11,0,1,,,,,,,,,,,,,,,,,,,,,,,,,,,,,,,,,,,,,,,
,,,,,,,,2023-08-06_08h12.20.991,HF_wild_card,2022.2.4,Win32,60.13590715,5cc29fbea548c00018afb7a0,64ce5acb97489d65b14ecc7a,64cf47c779638d2f13de6259,,,,,,,decisionTrl,resources/DG.BMP,resources/DY.BMP,WildCard_Ex,-0.277777778,0.023148148,1,0,0,4.943,optionLeft,5,610,1,12,0,12,0,1,,,,,,,,,,,,,,,,,,,,,,,,,,,,,,,,,,,,,,,
,,,,,,,,2023-08-06_08h12.20.991,HF_wild_card,2022.2.4,Win32,60.13590715,5cc29fbea548c00018afb7a0,64ce5acb97489d65b14ecc7a,64cf47c779638d2f13de6259,,,,,,,sngl,resources/Empty.png,resources/DP.BMP,Door1,0.341666751,-0.027777778,1,0,0,1.3285,optionRight,30,640,1,13,0,13,0,1,,,,,,,,,,,,,,,,,,,,,,,,,,,,,,,,,,,,,,,
,,,,,,,,2023-08-06_08h12.20.991,HF_wild_card,2022.2.4,Win32,60.13590715,5cc29fbea548c00018afb7a0,64ce5acb97489d65b14ecc7a,64cf47c779638d2f13de6259,,,,,,,decisionTrl,resources/DP.BMP,resources/DG.BMP,Door1,-0.262036995,-0.009259259,1,0,0,1.5096,optionLeft,30,670,1,14,0,14,0,1,,,,,,,,,,,,,,,,,,,,,,,,,,,,,,,,,,,,,,,
,,,,,,,,2023-08-06_08h12.20.991,HF_wild_card,2022.2.4,Win32,60.13590715,5cc29fbea548c00018afb7a0,64ce5acb97489d65b14ecc7a,64cf47c779638d2f13de6259,,,,,,,decisionTrl,resources/DY.BMP,resources/DR.BMP,Door3,0.340740769,0.03611109,1,0,0,1.3707,optionRight,70,740,1,15,0,15,0,1,,,,,,,,,,,,,,,,,,,,,,,,,,,,,,,,,,,,,,,
,,,,,,,,2023-08-06_08h12.20.991,HF_wild_card,2022.2.4,Win32,60.13590715,5cc29fbea548c00018afb7a0,64ce5acb97489d65b14ecc7a,64cf47c779638d2f13de6259,,,,,,,decisionTrl,resources/DG.BMP,resources/DR.BMP,Door3,0.323148233,-0.003703718,1,0,0,1.3944,optionRight,70,810,1,16,0,16,0,1,,,,,,,,,,,,,,,,,,,,,,,,,,,,,,,,,,,,,,,
,,,,,,,,2023-08-06_08h12.20.991,HF_wild_card,2022.2.4,Win32,60.13590715,5cc29fbea548c00018afb7a0,64ce5acb97489d65b14ecc7a,64cf47c779638d2f13de6259,,,,,,,decisionTrl,resources/DY.BMP,resources/DR.BMP,Door3,0.335185157,-0.024074095,1,0,0,1.3951,optionRight,70,880,1,17,0,17,0,1,,,,,,,,,,,,,,,,,,,,,,,,,,,,,,,,,,,,,,,
,,,,,,,,2023-08-06_08h12.20.991,HF_wild_card,2022.2.4,Win32,60.13590715,5cc29fbea548c00018afb7a0,64ce5acb97489d65b14ecc7a,64cf47c779638d2f13de6259,,,,,,,ctch,resources/DBN.BMP,resources/DR.BMP,Door3,0.289814843,-0.025925919,1,0,0,2.0267,optionRight,70,950,1,18,0,18,0,1,,,,,,,,,,,,,,,,,,,,,,,,,,,,,,,,,,,,,,,
,,,,,,,,2023-08-06_08h12.20.991,HF_wild_card,2022.2.4,Win32,60.13590715,5cc29fbea548c00018afb7a0,64ce5acb97489d65b14ecc7a,64cf47c779638d2f13de6259,,,,,,,decisionTrl,resources/DBN.BMP,resources/DP.BMP,Door1,0.318518603,0.000925912,1,0,0,1.7924,optionRight,30,980,1,19,0,19,0,1,,,,,,,,,,,,,,,,,,,,,,,,,,,,,,,,,,,,,,,
,,,,,,,,2023-08-06_08h12.20.991,HF_wild_card,2022.2.4,Win32,60.13590715,5cc29fbea548c00018afb7a0,64ce5acb97489d65b14ecc7a,64cf47c779638d2f13de6259,,,,,,,decisionTrl,resources/DBN.BMP,resources/DP.BMP,Door1,0.296296296,0.0074074,1,0,0,1.4796,optionRight,30,1010,1,20,0,20,0,1,,,,,,,,,,,,,,,,,,,,,,,,,,,,,,,,,,,,,,,
,,,,,,,,2023-08-06_08h12.20.991,HF_wild_card,2022.2.4,Win32,60.13590715,5cc29fbea548c00018afb7a0,64ce5acb97489d65b14ecc7a,64cf47c779638d2f13de6259,,,,,,,sngl,resources/DBN.BMP,resources/Empty.png,Door2,-0.299074067,-0.032407407,1,0,0,3.8599,optionLeft,40,1050,1,21,0,21,0,1,,,,,,,,,,,,,,,,,,,,,,,,,,,,,,,,,,,,,,,
,,,,,,,,2023-08-06_08h12.20.991,HF_wild_card,2022.2.4,Win32,60.13590715,5cc29fbea548c00018afb7a0,64ce5acb97489d65b14ecc7a,64cf47c779638d2f13de6259,,,,,,,decisionTrl,resources/DP.BMP,resources/DBN.BMP,Door1,-0.347222222,-0.048148155,1,0,0,1.7447,optionLeft,30,1080,1,22,0,22,0,1,,,,,,,,,,,,,,,,,,,,,,,,,,,,,,,,,,,,,,,
,,,,,,,,2023-08-06_08h12.20.991,HF_wild_card,2022.2.4,Win32,60.13590715,5cc29fbea548c00018afb7a0,64ce5acb97489d65b14ecc7a,64cf47c779638d2f13de6259,,,,,,,decisionTrl,resources/DBN.BMP,resources/DG.BMP,WildCard_Ex,0.337037122,0.012962942,1,0,0,2.4756,optionRight,5,1085,1,23,0,23,0,1,,,,,,,,,,,,,,,,,,,,,,,,,,,,,,,,,,,,,,,
,,,,,,,,2023-08-06_08h12.20.991,HF_wild_card,2022.2.4,Win32,60.13590715,5cc29fbea548c00018afb7a0,64ce5acb97489d65b14ecc7a,64cf47c779638d2f13de6259,,,,,,,decisionTrl,resources/DR.BMP,resources/DG.BMP,Door3,-0.262036995,-0.013888889,1,0,0,1.5357,optionLeft,70,1155,1,24,0,24,0,1,,,,,,,,,,,,,,,,,,,,,,,,,,,,,,,,,,,,,,,
,,,,,,,,2023-08-06_08h12.20.991,HF_wild_card,2022.2.4,Win32,60.13590715,5cc29fbea548c00018afb7a0,64ce5acb97489d65b14ecc7a,64cf47c779638d2f13de6259,,,,,,,decisionTrl,resources/DBN.BMP,resources/DP.BMP,Door1,0.284259302,-0.035185178,1,0,0,1.9767,optionRight,30,1185,1,25,0,25,0,1,,,,,,,,,,,,,,,,,,,,,,,,,,,,,,,,,,,,,,,
,,,,,,,,2023-08-06_08h12.20.991,HF_wild_card,2022.2.4,Win32,60.13590715,5cc29fbea548c00018afb7a0,64ce5acb97489d65b14ecc7a,64cf47c779638d2f13de6259,,,,,,,ctch,resources/DR.BMP,resources/DBN.BMP,Door3,-0.288888861,-0.009259259,1,0,0,1.7025,optionLeft,70,1255,1,26,0,26,0,1,,,,,,,,,,,,,,,,,,,,,,,,,,,,,,,,,,,,,,,
,,,,,,,,2023-08-06_08h12.20.991,HF_wild_card,2022.2.4,Win32,60.13590715,5cc29fbea548c00018afb7a0,64ce5acb97489d65b14ecc7a,64cf47c779638d2f13de6259,,,,,,,decisionTrl,resources/DR.BMP,resources/DY.BMP,Door3,-0.333333333,-0.009259259,1,0,0,1.2198,optionLeft,70,1325,1,27,0,27,0,1,,,,,,,,,,,,,,,,,,,,,,,,,,,,,,,,,,,,,,,
,,,,,,,,2023-08-06_08h12.20.991,HF_wild_card,2022.2.4,Win32,60.13590715,5cc29fbea548c00018afb7a0,64ce5acb97489d65b14ecc7a,64cf47c779638d2f13de6259,,,,,,,decisionTrl,resources/DY.BMP,resources/DR.BMP,Door3,0.357407464,0.037037037,1,0,0,1.1952,optionRight,70,1395,1,28,0,28,0,1,,,,,,,,,,,,,,,,,,,,,,,,,,,,,,,,,,,,,,,
,,,,,,,,2023-08-06_08h12.20.991,HF_wild_card,2022.2.4,Win32,60.13590715,5cc29fbea548c00018afb7a0,64ce5acb97489d65b14ecc7a,64cf47c779638d2f13de6259,,,,,,,sngl,resources/Empty.png,resources/DR.BMP,Door3,0.279629672,-0.01666666,1,0,0,1.2276,optionRight,70,1465,1,29,0,29,0,1,,,,,,,,,,,,,,,,,,,,,,,,,,,,,,,,,,,,,,,
,,,,,,,,2023-08-06_08h12.20.991,HF_wild_card,2022.2.4,Win32,60.13590715,5cc29fbea548c00018afb7a0,64ce5acb97489d65b14ecc7a,64cf47c779638d2f13de6259,,,,,,,decisionTrl,resources/DG.BMP,resources/DP.BMP,Door1,0.361111111,-0.01666666,1,0,0,1.9268,optionRight,30,1495,1,30,0,30,0,1,,,,,,,,,,,,,,,,,,,,,,,,,,,,,,,,,,,,,,,
,,,,,,,,2023-08-06_08h12.20.991,HF_wild_card,2022.2.4,Win32,60.13590715,5cc29fbea548c00018afb7a0,64ce5acb97489d65b14ecc7a,64cf47c779638d2f13de6259,,,,,,,decisionTrl,resources/DBN.BMP,resources/DP.BMP,Door2,-0.266666624,0.001851859,1,0,0,1.677,optionLeft,20,1515,1,31,0,31,0,1,,,,,,,,,,,,,,,,,,,,,,,,,,,,,,,,,,,,,,,
,,,,,,,,2023-08-06_08h12.20.991,HF_wild_card,2022.2.4,Win32,60.13590715,5cc29fbea548c00018afb7a0,64ce5acb97489d65b14ecc7a,64cf47c779638d2f13de6259,,,,,,,sngl,resources/Empty.png,resources/DG.BMP,WildCard_Ex,0.440740797,-0.020370377,1,0,0,1.3032,optionRight,95,1610,1,32,0,32,0,1,,,,,,,,,,,,,,,,,,,,,,,,,,,,,,,,,,,,,,,
,,,,,,,,2023-08-06_08h12.20.991,HF_wild_card,2022.2.4,Win32,60.13590715,5cc29fbea548c00018afb7a0,64ce5acb97489d65b14ecc7a,64cf47c779638d2f13de6259,,,,,,,ctch,resources/DY.BMP,resources/DP.BMP,Door1,0.305555556,-0.023148148,1,0,0,1.5361,optionRight,30,1640,1,33,0,33,0,1,,,,,,,,,,,,,,,,,,,,,,,,,,,,,,,,,,,,,,,
,,,,,,,,2023-08-06_08h12.20.991,HF_wild_card,2022.2.4,Win32,60.13590715,5cc29fbea548c00018afb7a0,64ce5acb97489d65b14ecc7a,64cf47c779638d2f13de6259,,,,,,,sngl,resources/DY.BMP,resources/Empty.png,Door4,-0.304629608,-0.030555548,1,0,0,1.5859,optionLeft,80,1720,1,34,0,34,0,1,,,,,,,,,,,,,,,,,,,,,,,,,,,,,,,,,,,,,,,
,,,,,,,,2023-08-06_08h12.20.991,HF_wild_card,2022.2.4,Win32,60.13590715,5cc29fbea548c00018afb7a0,64ce5acb97489d65b14ecc7a,64cf47c779638d2f13de6259,,,,,,,decisionTrl,resources/DP.BMP,resources/DBN.BMP,Door1,-0.301851838,-0.061111132,1,0,0,1.3606,optionLeft,30,1750,1,35,0,35,0,1,,,,,,,,,,,,,,,,,,,,,,,,,,,,,,,,,,,,,,,
,,,,,,,,2023-08-06_08h12.20.991,HF_wild_card,2022.2.4,Win32,60.13590715,5cc29fbea548c00018afb7a0,64ce5acb97489d65b14ecc7a,64cf47c779638d2f13de6259,,,,,,,sngl,resources/Empty.png,resources/DBN.BMP,Door2,0.357407464,0.01666666,1,0,0,1.2116,optionRight,20,1770,1,36,0,36,0,1,,,,,,,,,,,,,,,,,,,,,,,,,,,,,,,,,,,,,,,
,,,,,,,,2023-08-06_08h12.20.991,HF_wild_card,2022.2.4,Win32,60.13590715,5cc29fbea548c00018afb7a0,64ce5acb97489d65b14ecc7a,64cf47c779638d2f13de6259,,,,,,,ctch,resources/DP.BMP,resources/DY.BMP,Door1,-0.314814815,-0.038888896,1,0,0,1.127,optionLeft,30,1800,1,37,0,37,0,1,,,,,,,,,,,,,,,,,,,,,,,,,,,,,,,,,,,,,,,
,,,,,,,,2023-08-06_08h12.20.991,HF_wild_card,2022.2.4,Win32,60.13590715,5cc29fbea548c00018afb7a0,64ce5acb97489d65b14ecc7a,64cf47c779638d2f13de6259,,,,,,,sngl,resources/DR.BMP,resources/Empty.png,Door3,-0.327777757,-0.039814808,1,0,0,1.028,optionLeft,70,1870,1,38,0,38,0,1,,,,,,,,,,,,,,,,,,,,,,,,,,,,,,,,,,,,,,,
,,,,,,,,2023-08-06_08h12.20.991,HF_wild_card,2022.2.4,Win32,60.13590715,5cc29fbea548c00018afb7a0,64ce5acb97489d65b14ecc7a,64cf47c779638d2f13de6259,,,,,,,sngl,resources/DP.BMP,resources/Empty.png,Door1,-0.285185143,-0.041666667,1,0,0,1.147,optionLeft,30,1900,1,39,0,39,0,1,,,,,,,,,,,,,,,,,,,,,,,,,,,,,,,,,,,,,,,
,,,,,,,,2023-08-06_08h12.20.991,HF_wild_card,2022.2.4,Win32,60.13590715,5cc29fbea548c00018afb7a0,64ce5acb97489d65b14ecc7a,64cf47c779638d2f13de6259,,,,,,,decisionTrl,resources/DR.BMP,resources/DY.BMP,Door3,-0.305555556,-0.020370377,1,0,0,1.2964,optionLeft,70,1970,1,40,0,40,0,1,,,,,,,,,,,,,,,,,,,,,,,,,,,,,,,,,,,,,,,
,,,,,,,,2023-08-06_08h12.20.991,HF_wild_card,2022.2.4,Win32,60.13590715,5cc29fbea548c00018afb7a0,64ce5acb97489d65b14ecc7a,64cf47c779638d2f13de6259,,,,,,,decisionTrl,resources/DG.BMP,resources/DBN.BMP,WildCard_Ex,-0.295370384,-0.027777778,1,0,0,1.6601,optionLeft,5,1975,1,41,0,41,0,1,,,,,,,,,,,,,,,,,,,,,,,,,,,,,,,,,,,,,,,
,,,,,,,,2023-08-06_08h12.20.991,HF_wild_card,2022.2.4,Win32,60.13590715,5cc29fbea548c00018afb7a0,64ce5acb97489d65b14ecc7a,64cf47c779638d2f13de6259,,,,,,,ctch,resources/DP.BMP,resources/DY.BMP,Door1,-0.338888875,-0.070370392,1,0,0,1.2802,optionLeft,30,2005,1,42,0,42,0,1,,,,,,,,,,,,,,,,,,,,,,,,,,,,,,,,,,,,,,,
,,,,,,,,2023-08-06_08h12.20.991,HF_wild_card,2022.2.4,Win32,60.13590715,5cc29fbea548c00018afb7a0,64ce5acb97489d65b14ecc7a,64cf47c779638d2f13de6259,,,,,,,sngl,resources/Empty.png,resources/DY.BMP,Door4,0.30277775,0.01944443,1,0,0,1.4541,optionRight,60,2065,1,43,0,43,0,1,,,,,,,,,,,,,,,,,,,,,,,,,,,,,,,,,,,,,,,
,,,,,,,,2023-08-06_08h12.20.991,HF_wild_card,2022.2.4,Win32,60.13590715,5cc29fbea548c00018afb7a0,64ce5acb97489d65b14ecc7a,64cf47c779638d2f13de6259,,,,,,,,,,,,,,,,,,,,,,,,,,0,0,0,0,1,,,,,,,,,,,,,,,,,,,,,,,,,,,,,,,,,,
,,,,,,,,2023-08-06_08h12.20.991,HF_wild_card,2022.2.4,Win32,60.13590715,5cc29fbea548c00018afb7a0,64ce5acb97489d65b14ecc7a,64cf47c779638d2f13de6259,,,,,,,sngl,resources/Empty.png,resources/DP.BMP,Door1,0.346296381,-0.062962956,1,0,0,1.3718,optionRight,30,2095,2,0,0,0,0,1,,,,,,,,,,,,,,,,,,,,,,,,,,,,,,,,,,,,,,,
,,,,,,,,2023-08-06_08h12.20.991,HF_wild_card,2022.2.4,Win32,60.13590715,5cc29fbea548c00018afb7a0,64ce5acb97489d65b14ecc7a,64cf47c779638d2f13de6259,,,,,,,decisionTrl,resources/DP.BMP,resources/DG.BMP,Door1,-0.349999993,-0.020370377,1,0,0,1.7379,optionLeft,30,2125,2,1,0,1,0,1,,,,,,,,,,,,,,,,,,,,,,,,,,,,,,,,,,,,,,,
,,,,,,,,2023-08-06_08h12.20.991,HF_wild_card,2022.2.4,Win32,60.13590715,5cc29fbea548c00018afb7a0,64ce5acb97489d65b14ecc7a,64cf47c779638d2f13de6259,,,,,,,ctch,resources/DP.BMP,resources/DY.BMP,Door1,-0.321296303,-0.042592614,1,0,0,1.3615,optionLeft,30,2155,2,2,0,2,0,1,,,,,,,,,,,,,,,,,,,,,,,,,,,,,,,,,,,,,,,
,,,,,,,,2023-08-06_08h12.20.991,HF_wild_card,2022.2.4,Win32,60.13590715,5cc29fbea548c00018afb7a0,64ce5acb97489d65b14ecc7a,64cf47c779638d2f13de6259,,,,,,,decisionTrl,resources/DBN.BMP,resources/DG.BMP,Door2,-0.262962977,0.003703683,1,0,0,2.3601,optionLeft,40,2195,2,3,0,3,0,1,,,,,,,,,,,,,,,,,,,,,,,,,,,,,,,,,,,,,,,
,,,,,,,,2023-08-06_08h12.20.991,HF_wild_card,2022.2.4,Win32,60.13590715,5cc29fbea548c00018afb7a0,64ce5acb97489d65b14ecc7a,64cf47c779638d2f13de6259,,,,,,,ctch,resources/DP.BMP,resources/DY.BMP,Door1,-0.305555556,-0.003703718,1,0,0,1.161,optionLeft,30,2225,2,4,0,4,0,1,,,,,,,,,,,,,,,,,,,,,,,,,,,,,,,,,,,,,,,
,,,,,,,,2023-08-06_08h12.20.991,HF_wild_card,2022.2.4,Win32,60.13590715,5cc29fbea548c00018afb7a0,64ce5acb97489d65b14ecc7a,64cf47c779638d2f13de6259,,,,,,,decisionTrl,resources/DY.BMP,resources/DR.BMP,Door3,0.350000028,0.037962949,1,0,0,1.3185,optionRight,70,2295,2,5,0,5,0,1,,,,,,,,,,,,,,,,,,,,,,,,,,,,,,,,,,,,,,,
,,,,,,,,2023-08-06_08h12.20.991,HF_wild_card,2022.2.4,Win32,60.13590715,5cc29fbea548c00018afb7a0,64ce5acb97489d65b14ecc7a,64cf47c779638d2f13de6259,,,,,,,decisionTrl,resources/DG.BMP,resources/DY.BMP,WildCard_Ex,-0.29351849,-0.025925919,1,0,0,2.9924,optionLeft,5,2300,2,6,0,6,0,1,,,,,,,,,,,,,,,,,,,,,,,,,,,,,,,,,,,,,,,
,,,,,,,,2023-08-06_08h12.20.991,HF_wild_card,2022.2.4,Win32,60.13590715,5cc29fbea548c00018afb7a0,64ce5acb97489d65b14ecc7a,64cf47c779638d2f13de6259,,,,,,,decisionTrl,resources/DY.BMP,resources/DR.BMP,Door3,0.304629714,0.01203703,1,0,0,1.1774,optionRight,70,2370,2,7,0,7,0,1,,,,,,,,,,,,,,,,,,,,,,,,,,,,,,,,,,,,,,,
,,,,,,,,2023-08-06_08h12.20.991,HF_wild_card,2022.2.4,Win32,60.13590715,5cc29fbea548c00018afb7a0,64ce5acb97489d65b14ecc7a,64cf47c779638d2f13de6259,,,,,,,sngl,resources/Empty.png,resources/DY.BMP,Door4,0.256481524,-0.001851859,1,0,0,1.3441,optionRight,80,2450,2,8,0,8,0,1,,,,,,,,,,,,,,,,,,,,,,,,,,,,,,,,,,,,,,,
,,,,,,,,2023-08-06_08h12.20.991,HF_wild_card,2022.2.4,Win32,60.13590715,5cc29fbea548c00018afb7a0,64ce5acb97489d65b14ecc7a,64cf47c779638d2f13de6259,,,,,,,sngl,resources/Empty.png,resources/DG.BMP,WildCard_Ex,0.282407407,0.014814801,1,0,0,1.2441,optionRight,95,2545,2,9,0,9,0,1,,,,,,,,,,,,,,,,,,,,,,,,,,,,,,,,,,,,,,,
,,,,,,,,2023-08-06_08h12.20.991,HF_wild_card,2022.2.4,Win32,60.13590715,5cc29fbea548c00018afb7a0,64ce5acb97489d65b14ecc7a,64cf47c779638d2f13de6259,,,,,,,decisionTrl,resources/DR.BMP,resources/DY.BMP,Door3,-0.322222215,-0.009259259,1,0,0,1.228,optionLeft,70,2615,2,10,0,10,0,1,,,,,,,,,,,,,,,,,,,,,,,,,,,,,,,,,,,,,,,
,,,,,,,,2023-08-06_08h12.20.991,HF_wild_card,2022.2.4,Win32,60.13590715,5cc29fbea548c00018afb7a0,64ce5acb97489d65b14ecc7a,64cf47c779638d2f13de6259,,,,,,,decisionTrl,resources/DP.BMP,resources/DBN.BMP,Door1,-0.329629616,-0.043518526,1,0,0,1.3783,optionLeft,30,2645,2,11,0,11,0,1,,,,,,,,,,,,,,,,,,,,,,,,,,,,,,,,,,,,,,,
,,,,,,,,2023-08-06_08h12.20.991,HF_wild_card,2022.2.4,Win32,60.13590715,5cc29fbea548c00018afb7a0,64ce5acb97489d65b14ecc7a,64cf47c779638d2f13de6259,,,,,,,sngl,resources/Empty.png,resources/DBN.BMP,Door2,0.285185213,0.029629637,1,0,0,1.3123,optionRight,40,2685,2,12,0,12,0,1,,,,,,,,,,,,,,,,,,,,,,,,,,,,,,,,,,,,,,,
,,,,,,,,2023-08-06_08h12.20.991,HF_wild_card,2022.2.4,Win32,60.13590715,5cc29fbea548c00018afb7a0,64ce5acb97489d65b14ecc7a,64cf47c779638d2f13de6259,,,,,,,decisionTrl,resources/DR.BMP,resources/DG.BMP,Door3,-0.312037044,-0.040740755,1,0,0,1.2779,optionLeft,70,2755,2,13,0,13,0,1,,,,,,,,,,,,,,,,,,,,,,,,,,,,,,,,,,,,,,,
,,,,,,,,2023-08-06_08h12.20.991,HF_wild_card,2022.2.4,Win32,60.13590715,5cc29fbea548c00018afb7a0,64ce5acb97489d65b14ecc7a,64cf47c779638d2f13de6259,,,,,,,ctch,resources/DR.BMP,resources/DBN.BMP,Door3,-0.306481467,-0.044444437,1,0,0,1.4701,optionLeft,70,2825,2,14,0,14,0,1,,,,,,,,,,,,,,,,,,,,,,,,,,,,,,,,,,,,,,,
,,,,,,,,2023-08-06_08h12.20.991,HF_wild_card,2022.2.4,Win32,60.13590715,5cc29fbea548c00018afb7a0,64ce5acb97489d65b14ecc7a,64cf47c779638d2f13de6259,,,,,,,decisionTrl,resources/DY.BMP,resources/DG.BMP,Door4,-0.308333326,-0.055555556,1,0,0,2.0788,optionLeft,60,2885,2,15,0,15,0,1,,,,,,,,,,,,,,,,,,,,,,,,,,,,,,,,,,,,,,,
,,,,,,,,2023-08-06_08h12.20.991,HF_wild_card,2022.2.4,Win32,60.13590715,5cc29fbea548c00018afb7a0,64ce5acb97489d65b14ecc7a,64cf47c779638d2f13de6259,,,,,,,decisionTrl,resources/DR.BMP,resources/DY.BMP,Door3,-0.303703697,-0.056481503,1,0,0,1.4961,optionLeft,70,2955,2,16,0,16,0,1,,,,,,,,,,,,,,,,,,,,,,,,,,,,,,,,,,,,,,,
,,,,,,,,2023-08-06_08h12.20.991,HF_wild_card,2022.2.4,Win32,60.13590715,5cc29fbea548c00018afb7a0,64ce5acb97489d65b14ecc7a,64cf47c779638d2f13de6259,,,,,,,decisionTrl,resources/DY.BMP,resources/DR.BMP,Door3,0.296296296,0.001851859,1,0,0,1.4451,optionRight,70,3025,2,17,0,17,0,1,,,,,,,,,,,,,,,,,,,,,,,,,,,,,,,,,,,,,,,
,,,,,,,,2023-08-06_08h12.20.991,HF_wild_card,2022.2.4,Win32,60.13590715,5cc29fbea548c00018afb7a0,64ce5acb97489d65b14ecc7a,64cf47c779638d2f13de6259,,,,,,,decisionTrl,resources/DP.BMP,resources/DBN.BMP,Door2,0.293518561,0.006481489,1,0,0,1.6106,optionRight,20,3045,2,18,0,18,0,1,,,,,,,,,,,,,,,,,,,,,,,,,,,,,,,,,,,,,,,
,,,,,,,,2023-08-06_08h12.20.991,HF_wild_card,2022.2.4,Win32,60.13590715,5cc29fbea548c00018afb7a0,64ce5acb97489d65b14ecc7a,64cf47c779638d2f13de6259,,,,,,,decisionTrl,resources/DR.BMP,resources/DY.BMP,Door3,-0.284259231,-0.01666666,1,0,0,1.1282,optionLeft,70,3115,2,19,0,19,0,1,,,,,,,,,,,,,,,,,,,,,,,,,,,,,,,,,,,,,,,
,,,,,,,,2023-08-06_08h12.20.991,HF_wild_card,2022.2.4,Win32,60.13590715,5cc29fbea548c00018afb7a0,64ce5acb97489d65b14ecc7a,64cf47c779638d2f13de6259,,,,,,,ctch,resources/DY.BMP,resources/DP.BMP,Door1,0.27870369,-0.001851859,1,0,0,1.5115,optionRight,30,3145,2,20,0,20,0,1,,,,,,,,,,,,,,,,,,,,,,,,,,,,,,,,,,,,,,,
,,,,,,,,2023-08-06_08h12.20.991,HF_wild_card,2022.2.4,Win32,60.13590715,5cc29fbea548c00018afb7a0,64ce5acb97489d65b14ecc7a,64cf47c779638d2f13de6259,,,,,,,decisionTrl,resources/DG.BMP,resources/DP.BMP,Door1,0.253703718,-0.027777778,1,0,0,1.4855,optionRight,30,3175,2,21,0,21,0,1,,,,,,,,,,,,,,,,,,,,,,,,,,,,,,,,,,,,,,,
,,,,,,,,2023-08-06_08h12.20.991,HF_wild_card,2022.2.4,Win32,60.13590715,5cc29fbea548c00018afb7a0,64ce5acb97489d65b14ecc7a,64cf47c779638d2f13de6259,,,,,,,decisionTrl,resources/DP.BMP,resources/DBN.BMP,Door1,-0.288888861,-0.050925926,1,0,0,1.595,optionLeft,30,3205,2,22,0,22,0,1,,,,,,,,,,,,,,,,,,,,,,,,,,,,,,,,,,,,,,,
,,,,,,,,2023-08-06_08h12.20.991,HF_wild_card,2022.2.4,Win32,60.13590715,5cc29fbea548c00018afb7a0,64ce5acb97489d65b14ecc7a,64cf47c779638d2f13de6259,,,,,,,sngl,resources/DG.BMP,resources/Empty.png,WildCard_Ex,-0.294444402,-0.025925919,1,0,0,1.4109,optionLeft,5,3210,2,23,0,23,0,1,,,,,,,,,,,,,,,,,,,,,,,,,,,,,,,,,,,,,,,
,,,,,,,,2023-08-06_08h12.20.991,HF_wild_card,2022.2.4,Win32,60.13590715,5cc29fbea548c00018afb7a0,64ce5acb97489d65b14ecc7a,64cf47c779638d2f13de6259,,,,,,,decisionTrl,resources/DBN.BMP,resources/DP.BMP,Door1,0.335185157,-0.010185206,1,0,0,1.2436,optionRight,30,3240,2,24,0,24,0,1,,,,,,,,,,,,,,,,,,,,,,,,,,,,,,,,,,,,,,,
,,,,,,,,2023-08-06_08h12.20.991,HF_wild_card,2022.2.4,Win32,60.13590715,5cc29fbea548c00018afb7a0,64ce5acb97489d65b14ecc7a,64cf47c779638d2f13de6259,,,,,,,decisionTrl,resources/DG.BMP,resources/DR.BMP,Door3,0.352777834,0.041666667,1,0,0,1.5771,optionRight,70,3310,2,25,0,25,0,1,,,,,,,,,,,,,,,,,,,,,,,,,,,,,,,,,,,,,,,
,,,,,,,,2023-08-06_08h12.20.991,HF_wild_card,2022.2.4,Win32,60.13590715,5cc29fbea548c00018afb7a0,64ce5acb97489d65b14ecc7a,64cf47c779638d2f13de6259,,,,,,,decisionTrl,resources/DR.BMP,resources/DY.BMP,Door3,-0.320370356,-0.060185185,1,0,0,6.6397,optionLeft,70,3380,2,26,0,26,0,1,,,,,,,,,,,,,,,,,,,,,,,,,,,,,,,,,,,,,,,
,,,,,,,,2023-08-06_08h12.20.991,HF_wild_card,2022.2.4,Win32,60.13590715,5cc29fbea548c00018afb7a0,64ce5acb97489d65b14ecc7a,64cf47c779638d2f13de6259,,,,,,,ctch,resources/DBN.BMP,resources/DR.BMP,Door3,0.429629714,-0.001851859,1,0,0,1.7465,optionRight,70,3450,2,27,0,27,0,1,,,,,,,,,,,,,,,,,,,,,,,,,,,,,,,,,,,,,,,
,,,,,,,,2023-08-06_08h12.20.991,HF_wild_card,2022.2.4,Win32,60.13590715,5cc29fbea548c00018afb7a0,64ce5acb97489d65b14ecc7a,64cf47c779638d2f13de6259,,,,,,,sngl,resources/DY.BMP,resources/Empty.png,Door4,-0.288888861,-0.022222236,1,0,0,1.1875,optionLeft,60,3510,2,28,0,28,0,1,,,,,,,,,,,,,,,,,,,,,,,,,,,,,,,,,,,,,,,
,,,,,,,,2023-08-06_08h12.20.991,HF_wild_card,2022.2.4,Win32,60.13590715,5cc29fbea548c00018afb7a0,64ce5acb97489d65b14ecc7a,64cf47c779638d2f13de6259,,,,,,,decisionTrl,resources/DBN.BMP,resources/DP.BMP,Door1,0.307407379,0.029629637,1,0,0,1.1551,optionRight,30,3540,2,29,0,29,0,1,,,,,,,,,,,,,,,,,,,,,,,,,,,,,,,,,,,,,,,
,,,,,,,,2023-08-06_08h12.20.991,HF_wild_card,2022.2.4,Win32,60.13590715,5cc29fbea548c00018afb7a0,64ce5acb97489d65b14ecc7a,64cf47c779638d2f13de6259,,,,,,,sngl,resources/Empty.png,resources/DR.BMP,Door3,0.337962963,0.035185178,1,0,0,1.1449,optionRight,70,3610,2,30,0,30,0,1,,,,,,,,,,,,,,,,,,,,,,,,,,,,,,,,,,,,,,,
,,,,,,,,2023-08-06_08h12.20.991,HF_wild_card,2022.2.4,Win32,60.13590715,5cc29fbea548c00018afb7a0,64ce5acb97489d65b14ecc7a,64cf47c779638d2f13de6259,,,,,,,sngl,resources/Empty.png,resources/DG.BMP,WildCard_Ex,0.310185185,0.012962942,1,0,0,1.5122,optionRight,5,3615,2,31,0,31,0,1,,,,,,,,,,,,,,,,,,,,,,,,,,,,,,,,,,,,,,,
,,,,,,,,2023-08-06_08h12.20.991,HF_wild_card,2022.2.4,Win32,60.13590715,5cc29fbea548c00018afb7a0,64ce5acb97489d65b14ecc7a,64cf47c779638d2f13de6259,,,,,,,decisionTrl,resources/DY.BMP,resources/DR.BMP,Door3,0.333333333,0.029629637,1,0,0,1.7609,optionRight,70,3685,2,32,0,32,0,1,,,,,,,,,,,,,,,,,,,,,,,,,,,,,,,,,,,,,,,
,,,,,,,,2023-08-06_08h12.20.991,HF_wild_card,2022.2.4,Win32,60.13590715,5cc29fbea548c00018afb7a0,64ce5acb97489d65b14ecc7a,64cf47c779638d2f13de6259,,,,,,,sngl,resources/DG.BMP,resources/Empty.png,WildCard_Ex,-0.279629601,-0.002777771,1,0,0,1.211,optionLeft,95,3780,2,33,0,33,0,1,,,,,,,,,,,,,,,,,,,,,,,,,,,,,,,,,,,,,,,
,,,,,,,,2023-08-06_08h12.20.991,HF_wild_card,2022.2.4,Win32,60.13590715,5cc29fbea548c00018afb7a0,64ce5acb97489d65b14ecc7a,64cf47c779638d2f13de6259,,,,,,,sngl,resources/DP.BMP,resources/Empty.png,Door1,-0.313888868,-0.013888889,1,0,0,1.2283,optionLeft,30,3810,2,34,0,34,0,1,,,,,,,,,,,,,,,,,,,,,,,,,,,,,,,,,,,,,,,
,,,,,,,,2023-08-06_08h12.20.991,HF_wild_card,2022.2.4,Win32,60.13590715,5cc29fbea548c00018afb7a0,64ce5acb97489d65b14ecc7a,64cf47c779638d2f13de6259,,,,,,,decisionTrl,resources/DBN.BMP,resources/DP.BMP,Door1,0.340740769,0,1,0,0,1.1536,optionRight,30,3840,2,35,0,35,0,1,,,,,,,,,,,,,,,,,,,,,,,,,,,,,,,,,,,,,,,
,,,,,,,,2023-08-06_08h12.20.991,HF_wild_card,2022.2.4,Win32,60.13590715,5cc29fbea548c00018afb7a0,64ce5acb97489d65b14ecc7a,64cf47c779638d2f13de6259,,,,,,,sngl,resources/DBN.BMP,resources/Empty.png,Door2,-0.259259259,-0.002777771,1,0,0,1.2281,optionLeft,20,3860,2,36,0,36,0,1,,,,,,,,,,,,,,,,,,,,,,,,,,,,,,,,,,,,,,,
,,,,,,,,2023-08-06_08h12.20.991,HF_wild_card,2022.2.4,Win32,60.13590715,5cc29fbea548c00018afb7a0,64ce5acb97489d65b14ecc7a,64cf47c779638d2f13de6259,,,,,,,ctch,resources/DY.BMP,resources/DP.BMP,Door1,0.330555527,0.017592571,1,0,0,1.2183,optionRight,30,3890,2,37,0,37,0,1,,,,,,,,,,,,,,,,,,,,,,,,,,,,,,,,,,,,,,,
,,,,,,,,2023-08-06_08h12.20.991,HF_wild_card,2022.2.4,Win32,60.13590715,5cc29fbea548c00018afb7a0,64ce5acb97489d65b14ecc7a,64cf47c779638d2f13de6259,,,,,,,sngl,resources/DR.BMP,resources/Empty.png,Door3,-0.289814772,0.000925912,1,0,0,1.1273,optionLeft,70,3960,2,38,0,38,0,1,,,,,,,,,,,,,,,,,,,,,,,,,,,,,,,,,,,,,,,
,,,,,,,,2023-08-06_08h12.20.991,HF_wild_card,2022.2.4,Win32,60.13590715,5cc29fbea548c00018afb7a0,64ce5acb97489d65b14ecc7a,64cf47c779638d2f13de6259,,,,,,,decisionTrl,resources/DG.BMP,resources/DBN.BMP,WildCard_Ex,-0.183333291,0.013888889,1,0,0,1.9119,optionLeft,95,4055,2,39,0,39,0,1,,,,,,,,,,,,,,,,,,,,,,,,,,,,,,,,,,,,,,,
,,,,,,,,2023-08-06_08h12.20.991,HF_wild_card,2022.2.4,Win32,60.13590715,5cc29fbea548c00018afb7a0,64ce5acb97489d65b14ecc7a,64cf47c779638d2f13de6259,,,,,,,ctch,resources/DR.BMP,resources/DBN.BMP,Door3,-0.350925905,-0.048148155,1,0,0,1.4956,optionLeft,70,4125,2,40,0,40,0,1,,,,,,,,,,,,,,,,,,,,,,,,,,,,,,,,,,,,,,,
,,,,,,,,2023-08-06_08h12.20.991,HF_wild_card,2022.2.4,Win32,60.13590715,5cc29fbea548c00018afb7a0,64ce5acb97489d65b14ecc7a,64cf47c779638d2f13de6259,,,,,,,ctch,resources/DBN.BMP,resources/DR.BMP,Door3,0.306481538,0.038888896,1,0,0,1.2292,optionRight,70,4195,2,41,0,41,0,1,,,,,,,,,,,,,,,,,,,,,,,,,,,,,,,,,,,,,,,
,,,,,,,,2023-08-06_08h12.20.991,HF_wild_card,2022.2.4,Win32,60.13590715,5cc29fbea548c00018afb7a0,64ce5acb97489d65b14ecc7a,64cf47c779638d2f13de6259,,,,,,,decisionTrl,resources/DP.BMP,resources/DBN.BMP,Door1,-0.314814815,-0.031481496,1,0,0,1.0033,optionLeft,30,4225,2,42,0,42,0,1,,,,,,,,,,,,,,,,,,,,,,,,,,,,,,,,,,,,,,,
,,,,,,,,2023-08-06_08h12.20.991,HF_wild_card,2022.2.4,Win32,60.13590715,5cc29fbea548c00018afb7a0,64ce5acb97489d65b14ecc7a,64cf47c779638d2f13de6259,,,,,,,decisionTrl,resources/DBN.BMP,resources/DP.BMP,Door1,0.293518561,0.003703683,1,0,0,1.1773,optionRight,30,4255,2,43,0,43,0,1,,,,,,,,,,,,,,,,,,,,,,,,,,,,,,,,,,,,,,,
,,,,,,,,2023-08-06_08h12.20.991,HF_wild_card,2022.2.4,Win32,60.13590715,5cc29fbea548c00018afb7a0,64ce5acb97489d65b14ecc7a,64cf47c779638d2f13de6259,,,,,,,,,,,,,,,,,,,,,,,,,,1,0,1,0,1,,,,,,,,,,,,,,,,,,,,,,,,,,,,,,,,,,
,,,,,,,,2023-08-06_08h12.20.991,HF_wild_card,2022.2.4,Win32,60.13590715,5cc29fbea548c00018afb7a0,64ce5acb97489d65b14ecc7a,64cf47c779638d2f13de6259,,,,,,,decisionTrl,resources/DBN.BMP,resources/DP.BMP,Door1,0.375925982,-0.00462963,1,0,0,1.2105,optionRight,30,4285,3,0,0,0,0,1,,,,,,,,,,,,,,,,,,,,,,,,,,,,,,,,,,,,,,,
,,,,,,,,2023-08-06_08h12.20.991,HF_wild_card,2022.2.4,Win32,60.13590715,5cc29fbea548c00018afb7a0,64ce5acb97489d65b14ecc7a,64cf47c779638d2f13de6259,,,,,,,decisionTrl,resources/DR.BMP,resources/DY.BMP,Door3,-0.355555534,-0.054629644,1,0,0,1.3612,optionLeft,70,4355,3,1,0,1,0,1,,,,,,,,,,,,,,,,,,,,,,,,,,,,,,,,,,,,,,,
,,,,,,,,2023-08-06_08h12.20.991,HF_wild_card,2022.2.4,Win32,60.13590715,5cc29fbea548c00018afb7a0,64ce5acb97489d65b14ecc7a,64cf47c779638d2f13de6259,,,,,,,decisionTrl,resources/DR.BMP,resources/DY.BMP,Door3,-0.305555556,-0.025000007,1,0,0,1.3445,optionLeft,70,4425,3,2,0,2,0,1,,,,,,,,,,,,,,,,,,,,,,,,,,,,,,,,,,,,,,,
,,,,,,,,2023-08-06_08h12.20.991,HF_wild_card,2022.2.4,Win32,60.13590715,5cc29fbea548c00018afb7a0,64ce5acb97489d65b14ecc7a,64cf47c779638d2f13de6259,,,,,,,sngl,resources/Empty.png,resources/DY.BMP,Door4,0.303703732,0.015740748,1,0,0,1.1289,optionRight,60,4485,3,3,0,3,0,1,,,,,,,,,,,,,,,,,,,,,,,,,,,,,,,,,,,,,,,
,,,,,,,,2023-08-06_08h12.20.991,HF_wild_card,2022.2.4,Win32,60.13590715,5cc29fbea548c00018afb7a0,64ce5acb97489d65b14ecc7a,64cf47c779638d2f13de6259,,,,,,,sngl,resources/Empty.png,resources/DR.BMP,Door3,0.320370427,0.083333333,1,0,0,1.0117,optionRight,70,4555,3,4,0,4,0,1,,,,,,,,,,,,,,,,,,,,,,,,,,,,,,,,,,,,,,,
,,,,,,,,2023-08-06_08h12.20.991,HF_wild_card,2022.2.4,Win32,60.13590715,5cc29fbea548c00018afb7a0,64ce5acb97489d65b14ecc7a,64cf47c779638d2f13de6259,,,,,,,decisionTrl,resources/DG.BMP,resources/DR.BMP,Door3,0.288888931,0.022222201,1,0,0,1.3945,optionRight,70,4625,3,5,0,5,0,1,,,,,,,,,,,,,,,,,,,,,,,,,,,,,,,,,,,,,,,
,,,,,,,,2023-08-06_08h12.20.991,HF_wild_card,2022.2.4,Win32,60.13590715,5cc29fbea548c00018afb7a0,64ce5acb97489d65b14ecc7a,64cf47c779638d2f13de6259,,,,,,,decisionTrl,resources/DBN.BMP,resources/DP.BMP,Door1,0.309259344,0.02407406,1,0,0,1.2778,optionRight,30,4655,3,6,0,6,0,1,,,,,,,,,,,,,,,,,,,,,,,,,,,,,,,,,,,,,,,
,,,,,,,,2023-08-06_08h12.20.991,HF_wild_card,2022.2.4,Win32,60.13590715,5cc29fbea548c00018afb7a0,64ce5acb97489d65b14ecc7a,64cf47c779638d2f13de6259,,,,,,,decisionTrl,resources/DY.BMP,resources/DR.BMP,Door3,0.287962949,0.022222201,1,0,0,1.2611,optionRight,70,4725,3,7,0,7,0,1,,,,,,,,,,,,,,,,,,,,,,,,,,,,,,,,,,,,,,,
,,,,,,,,2023-08-06_08h12.20.991,HF_wild_card,2022.2.4,Win32,60.13590715,5cc29fbea548c00018afb7a0,64ce5acb97489d65b14ecc7a,64cf47c779638d2f13de6259,,,,,,,sngl,resources/Empty.png,resources/DP.BMP,Door1,0.288888931,0.015740748,1,0,0,1.0777,optionRight,30,4755,3,8,0,8,0,1,,,,,,,,,,,,,,,,,,,,,,,,,,,,,,,,,,,,,,,
,,,,,,,,2023-08-06_08h12.20.991,HF_wild_card,2022.2.4,Win32,60.13590715,5cc29fbea548c00018afb7a0,64ce5acb97489d65b14ecc7a,64cf47c779638d2f13de6259,,,,,,,ctch,resources/DY.BMP,resources/DP.BMP,Door4,-0.187962921,-0.051851873,1,0,0,2.0424,optionLeft,80,4835,3,9,0,9,0,1,,,,,,,,,,,,,,,,,,,,,,,,,,,,,,,,,,,,,,,
,,,,,,,,2023-08-06_08h12.20.991,HF_wild_card,2022.2.4,Win32,60.13590715,5cc29fbea548c00018afb7a0,64ce5acb97489d65b14ecc7a,64cf47c779638d2f13de6259,,,,,,,ctch,resources/DY.BMP,resources/DP.BMP,Door4,-0.295370384,-0.037037037,1,0,0,1.1537,optionLeft,80,4915,3,10,0,10,0,1,,,,,,,,,,,,,,,,,,,,,,,,,,,,,,,,,,,,,,,
,,,,,,,,2023-08-06_08h12.20.991,HF_wild_card,2022.2.4,Win32,60.13590715,5cc29fbea548c00018afb7a0,64ce5acb97489d65b14ecc7a,64cf47c779638d2f13de6259,,,,,,,ctch,resources/DR.BMP,resources/DBN.BMP,Door3,-0.337962963,-0.000925947,1,0,0,1.2782,optionLeft,70,4985,3,11,0,11,0,1,,,,,,,,,,,,,,,,,,,,,,,,,,,,,,,,,,,,,,,
,,,,,,,,2023-08-06_08h12.20.991,HF_wild_card,2022.2.4,Win32,60.13590715,5cc29fbea548c00018afb7a0,64ce5acb97489d65b14ecc7a,64cf47c779638d2f13de6259,,,,,,,decisionTrl,resources/DY.BMP,resources/DG.BMP,Door4,-0.156481496,-0.046296296,1,0,0,1.6439,optionLeft,60,5045,3,12,0,12,0,1,,,,,,,,,,,,,,,,,,,,,,,,,,,,,,,,,,,,,,,
,,,,,,,,2023-08-06_08h12.20.991,HF_wild_card,2022.2.4,Win32,60.13590715,5cc29fbea548c00018afb7a0,64ce5acb97489d65b14ecc7a,64cf47c779638d2f13de6259,,,,,,,decisionTrl,resources/DR.BMP,resources/DY.BMP,Door3,-0.284259231,-0.022222236,1,0,0,1.295,optionLeft,70,5115,3,13,0,13,0,1,,,,,,,,,,,,,,,,,,,,,,,,,,,,,,,,,,,,,,,
,,,,,,,,2023-08-06_08h12.20.991,HF_wild_card,2022.2.4,Win32,60.13590715,5cc29fbea548c00018afb7a0,64ce5acb97489d65b14ecc7a,64cf47c779638d2f13de6259,,,,,,,sngl,resources/DR.BMP,resources/Empty.png,Door3,-0.351851852,-0.037037037,1,0,0,1.1118,optionLeft,70,5185,3,14,0,14,0,1,,,,,,,,,,,,,,,,,,,,,,,,,,,,,,,,,,,,,,,
,,,,,,,,2023-08-06_08h12.20.991,HF_wild_card,2022.2.4,Win32,60.13590715,5cc29fbea548c00018afb7a0,64ce5acb97489d65b14ecc7a,64cf47c779638d2f13de6259,,,,,,,decisionTrl,resources/DY.BMP,resources/DR.BMP,Door3,0.30277775,0.027777778,1,0,0,1.1448,optionRight,70,5255,3,15,0,15,0,1,,,,,,,,,,,,,,,,,,,,,,,,,,,,,,,,,,,,,,,
,,,,,,,,2023-08-06_08h12.20.991,HF_wild_card,2022.2.4,Win32,60.13590715,5cc29fbea548c00018afb7a0,64ce5acb97489d65b14ecc7a,64cf47c779638d2f13de6259,,,,,,,decisionTrl,resources/DBN.BMP,resources/DG.BMP,Door2,-0.158333319,-0.037962984,1,0,0,1.6535,optionLeft,20,5275,3,16,0,16,0,1,,,,,,,,,,,,,,,,,,,,,,,,,,,,,,,,,,,,,,,
,,,,,,,,2023-08-06_08h12.20.991,HF_wild_card,2022.2.4,Win32,60.13590715,5cc29fbea548c00018afb7a0,64ce5acb97489d65b14ecc7a,64cf47c779638d2f13de6259,,,,,,,decisionTrl,resources/DP.BMP,resources/DBN.BMP,Door1,-0.287037037,-0.061111132,1,0,0,1.177,optionLeft,30,5305,3,17,0,17,0,1,,,,,,,,,,,,,,,,,,,,,,,,,,,,,,,,,,,,,,,
,,,,,,,,2023-08-06_08h12.20.991,HF_wild_card,2022.2.4,Win32,60.13590715,5cc29fbea548c00018afb7a0,64ce5acb97489d65b14ecc7a,64cf47c779638d2f13de6259,,,,,,,decisionTrl,resources/DBN.BMP,resources/DP.BMP,Door1,0.265740783,-0.013888889,1,0,0,1.2879,optionRight,30,5335,3,18,0,18,0,1,,,,,,,,,,,,,,,,,,,,,,,,,,,,,,,,,,,,,,,
,,,,,,,,2023-08-06_08h12.20.991,HF_wild_card,2022.2.4,Win32,60.13590715,5cc29fbea548c00018afb7a0,64ce5acb97489d65b14ecc7a,64cf47c779638d2f13de6259,,,,,,,decisionTrl,resources/DP.BMP,resources/DBN.BMP,Door1,-0.281481496,-0.019444466,1,0,0,1.3282,optionLeft,30,5365,3,19,0,19,0,1,,,,,,,,,,,,,,,,,,,,,,,,,,,,,,,,,,,,,,,
,,,,,,,,2023-08-06_08h12.20.991,HF_wild_card,2022.2.4,Win32,60.13590715,5cc29fbea548c00018afb7a0,64ce5acb97489d65b14ecc7a,64cf47c779638d2f13de6259,,,,,,,decisionTrl,resources/DBN.BMP,resources/DP.BMP,Door1,0.297222279,0.01666666,1,0,0,1.237,optionRight,30,5395,3,20,0,20,0,1,,,,,,,,,,,,,,,,,,,,,,,,,,,,,,,,,,,,,,,
,,,,,,,,2023-08-06_08h12.20.991,HF_wild_card,2022.2.4,Win32,60.13590715,5cc29fbea548c00018afb7a0,64ce5acb97489d65b14ecc7a,64cf47c779638d2f13de6259,,,,,,,decisionTrl,resources/DY.BMP,resources/DR.BMP,Door3,0.25,0.011111118,1,0,0,1.3273,optionRight,70,5465,3,21,0,21,0,1,,,,,,,,,,,,,,,,,,,,,,,,,,,,,,,,,,,,,,,
,,,,,,,,2023-08-06_08h12.20.991,HF_wild_card,2022.2.4,Win32,60.13590715,5cc29fbea548c00018afb7a0,64ce5acb97489d65b14ecc7a,64cf47c779638d2f13de6259,,,,,,,sngl,resources/DY.BMP,resources/Empty.png,Door4,-0.281481496,-0.018518519,1,0,0,1.1789,optionLeft,80,5545,3,22,0,22,0,1,,,,,,,,,,,,,,,,,,,,,,,,,,,,,,,,,,,,,,,
,,,,,,,,2023-08-06_08h12.20.991,HF_wild_card,2022.2.4,Win32,60.13590715,5cc29fbea548c00018afb7a0,64ce5acb97489d65b14ecc7a,64cf47c779638d2f13de6259,,,,,,,decisionTrl,resources/DP.BMP,resources/DBN.BMP,Door1,-0.262036995,-0.017592607,1,0,0,1.5445,optionLeft,30,5575,3,23,0,23,0,1,,,,,,,,,,,,,,,,,,,,,,,,,,,,,,,,,,,,,,,
,,,,,,,,2023-08-06_08h12.20.991,HF_wild_card,2022.2.4,Win32,60.13590715,5cc29fbea548c00018afb7a0,64ce5acb97489d65b14ecc7a,64cf47c779638d2f13de6259,,,,,,,ctch,resources/DP.BMP,resources/DY.BMP,Door1,-0.291666667,-0.040740755,1,0,0,1.128,optionLeft,30,5605,3,24,0,24,0,1,,,,,,,,,,,,,,,,,,,,,,,,,,,,,,,,,,,,,,,
,,,,,,,,2023-08-06_08h12.20.991,HF_wild_card,2022.2.4,Win32,60.13590715,5cc29fbea548c00018afb7a0,64ce5acb97489d65b14ecc7a,64cf47c779638d2f13de6259,,,,,,,sngl,resources/Empty.png,resources/DBN.BMP,Door2,0.265740783,0.021296289,1,0,0,1.2952,optionRight,20,5625,3,25,0,25,0,1,,,,,,,,,,,,,,,,,,,,,,,,,,,,,,,,,,,,,,,
,,,,,,,,2023-08-06_08h12.20.991,HF_wild_card,2022.2.4,Win32,60.13590715,5cc29fbea548c00018afb7a0,64ce5acb97489d65b14ecc7a,64cf47c779638d2f13de6259,,,,,,,sngl,resources/DG.BMP,resources/Empty.png,WildCard_Ex,-0.295370384,-0.029629637,1,0,0,1.0444,optionLeft,95,5720,3,26,0,26,0,1,,,,,,,,,,,,,,,,,,,,,,,,,,,,,,,,,,,,,,,
,,,,,,,,2023-08-06_08h12.20.991,HF_wild_card,2022.2.4,Win32,60.13590715,5cc29fbea548c00018afb7a0,64ce5acb97489d65b14ecc7a,64cf47c779638d2f13de6259,,,,,,,ctch,resources/DBN.BMP,resources/DR.BMP,Door3,0.345370399,0.042592578,1,0,0,5.9556,optionRight,70,5790,3,27,0,27,0,1,,,,,,,,,,,,,,,,,,,,,,,,,,,,,,,,,,,,,,,
,,,,,,,,2023-08-06_08h12.20.991,HF_wild_card,2022.2.4,Win32,60.13590715,5cc29fbea548c00018afb7a0,64ce5acb97489d65b14ecc7a,64cf47c779638d2f13de6259,,,,,,,decisionTrl,resources/DG.BMP,resources/DBN.BMP,WildCard_Ex,-0.290740755,-0.046296296,1,0,0,1.313,optionLeft,5,5795,3,28,0,28,0,1,,,,,,,,,,,,,,,,,,,,,,,,,,,,,,,,,,,,,,,
,,,,,,,,2023-08-06_08h12.20.991,HF_wild_card,2022.2.4,Win32,60.13590715,5cc29fbea548c00018afb7a0,64ce5acb97489d65b14ecc7a,64cf47c779638d2f13de6259,,,,,,,sngl,resources/Empty.png,resources/DG.BMP,WildCard_Ex,0.294444473,0.009259259,1,0,0,1.1624,optionRight,5,5800,3,29,0,29,0,1,,,,,,,,,,,,,,,,,,,,,,,,,,,,,,,,,,,,,,,
,,,,,,,,2023-08-06_08h12.20.991,HF_wild_card,2022.2.4,Win32,60.13590715,5cc29fbea548c00018afb7a0,64ce5acb97489d65b14ecc7a,64cf47c779638d2f13de6259,,,,,,,decisionTrl,resources/DP.BMP,resources/DBN.BMP,Door1,-0.285185143,-0.052777785,1,0,0,1.2113,optionLeft,30,5830,3,30,0,30,0,1,,,,,,,,,,,,,,,,,,,,,,,,,,,,,,,,,,,,,,,
,,,,,,,,2023-08-06_08h12.20.991,HF_wild_card,2022.2.4,Win32,60.13590715,5cc29fbea548c00018afb7a0,64ce5acb97489d65b14ecc7a,64cf47c779638d2f13de6259,,,,,,,ctch,resources/DR.BMP,resources/DBN.BMP,Door3,-0.279629601,-0.039814808,1,0,0,1.195,optionLeft,70,5900,3,31,0,31,0,1,,,,,,,,,,,,,,,,,,,,,,,,,,,,,,,,,,,,,,,
,,,,,,,,2023-08-06_08h12.20.991,HF_wild_card,2022.2.4,Win32,60.13590715,5cc29fbea548c00018afb7a0,64ce5acb97489d65b14ecc7a,64cf47c779638d2f13de6259,,,,,,,sngl,resources/DBN.BMP,resources/Empty.png,Door2,-0.287037037,-0.056481503,1,0,0,1.02,optionLeft,40,5940,3,32,0,32,0,1,,,,,,,,,,,,,,,,,,,,,,,,,,,,,,,,,,,,,,,
,,,,,,,,2023-08-06_08h12.20.991,HF_wild_card,2022.2.4,Win32,60.13590715,5cc29fbea548c00018afb7a0,64ce5acb97489d65b14ecc7a,64cf47c779638d2f13de6259,,,,,,,ctch,resources/DP.BMP,resources/DY.BMP,Door1,-0.260185171,-0.002777771,1,0,0,1.2533,optionLeft,30,5970,3,33,0,33,0,1,,,,,,,,,,,,,,,,,,,,,,,,,,,,,,,,,,,,,,,
,,,,,,,,2023-08-06_08h12.20.991,HF_wild_card,2022.2.4,Win32,60.13590715,5cc29fbea548c00018afb7a0,64ce5acb97489d65b14ecc7a,64cf47c779638d2f13de6259,,,,,,,ctch,resources/DBN.BMP,resources/DR.BMP,Door3,0.309259344,0.045370349,1,0,0,1.1276,optionRight,70,6040,3,34,0,34,0,1,,,,,,,,,,,,,,,,,,,,,,,,,,,,,,,,,,,,,,,
,,,,,,,,2023-08-06_08h12.20.991,HF_wild_card,2022.2.4,Win32,60.13590715,5cc29fbea548c00018afb7a0,64ce5acb97489d65b14ecc7a,64cf47c779638d2f13de6259,,,,,,,decisionTrl,resources/DR.BMP,resources/DG.BMP,Door3,-0.27870369,-0.035185178,1,0,0,1.1273,optionLeft,70,6110,3,35,0,35,0,1,,,,,,,,,,,,,,,,,,,,,,,,,,,,,,,,,,,,,,,
,,,,,,,,2023-08-06_08h12.20.991,HF_wild_card,2022.2.4,Win32,60.13590715,5cc29fbea548c00018afb7a0,64ce5acb97489d65b14ecc7a,64cf47c779638d2f13de6259,,,,,,,decisionTrl,resources/DP.BMP,resources/DG.BMP,Door1,-0.300925926,-0.034259266,1,0,0,1.5011,optionLeft,30,6140,3,36,0,36,0,1,,,,,,,,,,,,,,,,,,,,,,,,,,,,,,,,,,,,,,,
,,,,,,,,2023-08-06_08h12.20.991,HF_wild_card,2022.2.4,Win32,60.13590715,5cc29fbea548c00018afb7a0,64ce5acb97489d65b14ecc7a,64cf47c779638d2f13de6259,,,,,,,sngl,resources/DG.BMP,resources/Empty.png,WildCard_Ex,-0.324074074,-0.029629637,1,0,0,1.2362,optionLeft,5,6145,3,37,0,37,0,1,,,,,,,,,,,,,,,,,,,,,,,,,,,,,,,,,,,,,,,
,,,,,,,,2023-08-06_08h12.20.991,HF_wild_card,2022.2.4,Win32,60.13590715,5cc29fbea548c00018afb7a0,64ce5acb97489d65b14ecc7a,64cf47c779638d2f13de6259,,,,,,,sngl,resources/DP.BMP,resources/Empty.png,Door1,-0.299074067,-0.030555548,1,0,0,1.1278,optionLeft,30,6175,3,38,0,38,0,1,,,,,,,,,,,,,,,,,,,,,,,,,,,,,,,,,,,,,,,
,,,,,,,,2023-08-06_08h12.20.991,HF_wild_card,2022.2.4,Win32,60.13590715,5cc29fbea548c00018afb7a0,64ce5acb97489d65b14ecc7a,64cf47c779638d2f13de6259,,,,,,,decisionTrl,resources/DR.BMP,resources/DY.BMP,Door3,-0.275925884,-0.01666666,1,0,0,1.7776,optionLeft,70,6245,3,39,0,39,0,1,,,,,,,,,,,,,,,,,,,,,,,,,,,,,,,,,,,,,,,
,,,,,,,,2023-08-06_08h12.20.991,HF_wild_card,2022.2.4,Win32,60.13590715,5cc29fbea548c00018afb7a0,64ce5acb97489d65b14ecc7a,64cf47c779638d2f13de6259,,,,,,,sngl,resources/Empty.png,resources/DG.BMP,WildCard_Ex,0.318518603,0.034259266,1,0,0,1.062,optionRight,95,6340,3,40,0,40,0,1,,,,,,,,,,,,,,,,,,,,,,,,,,,,,,,,,,,,,,,
,,,,,,,,2023-08-06_08h12.20.991,HF_wild_card,2022.2.4,Win32,60.13590715,5cc29fbea548c00018afb7a0,64ce5acb97489d65b14ecc7a,64cf47c779638d2f13de6259,,,,,,,decisionTrl,resources/DG.BMP,resources/DP.BMP,Door1,0.308333362,-0.011111118,1,0,0,1.3946,optionRight,30,6370,3,41,0,41,0,1,,,,,,,,,,,,,,,,,,,,,,,,,,,,,,,,,,,,,,,
,,,,,,,,2023-08-06_08h12.20.991,HF_wild_card,2022.2.4,Win32,60.13590715,5cc29fbea548c00018afb7a0,64ce5acb97489d65b14ecc7a,64cf47c779638d2f13de6259,,,,,,,decisionTrl,resources/DG.BMP,resources/DY.BMP,WildCard_Ex,-0.295370384,-0.012962977,1,0,0,1.2291,optionLeft,5,6375,3,42,0,42,0,1,,,,,,,,,,,,,,,,,,,,,,,,,,,,,,,,,,,,,,,
,,,,,,,,2023-08-06_08h12.20.991,HF_wild_card,2022.2.4,Win32,60.13590715,5cc29fbea548c00018afb7a0,64ce5acb97489d65b14ecc7a,64cf47c779638d2f13de6259,,,,,,,decisionTrl,resources/DY.BMP,resources/DR.BMP,Door3,0.287962949,0.029629637,1,0,0,1.161,optionRight,70,6445,3,43,0,43,0,1,,,,,,,,,,,,,,,,,,,,,,,,,,,,,,,,,,,,,,,
,,,,,,,,2023-08-06_08h12.20.991,HF_wild_card,2022.2.4,Win32,60.13590715,5cc29fbea548c00018afb7a0,64ce5acb97489d65b14ecc7a,64cf47c779638d2f13de6259,,,,,,,,,,,,,,,,,,,,,,,,,,2,0,2,0,1,,,,,,,,,,,,,,,,,,,,,,,,,,,,,,,,,,
,,,,,,,,2023-08-06_08h12.20.991,HF_wild_card,2022.2.4,Win32,60.13590715,5cc29fbea548c00018afb7a0,64ce5acb97489d65b14ecc7a,64cf47c779638d2f13de6259,,,,,,,decisionTrl,resources/DB.BMP,resources/DP.BMP,WildCard_NonEx,-0.352777764,-0.112963005,1,0,0,1.5274,optionLeft,55,6500,4,0,0,0,0,1,,,,,,,,,,,,,,,,,,,,,,,,,,,,,,,,,,,,,,,
,,,,,,,,2023-08-06_08h12.20.991,HF_wild_card,2022.2.4,Win32,60.13590715,5cc29fbea548c00018afb7a0,64ce5acb97489d65b14ecc7a,64cf47c779638d2f13de6259,,,,,,,decisionTrl,resources/DB.BMP,resources/DBN.BMP,WildCard_NonEx,-0.297222208,-0.025925919,1,0,0,1.1603,optionLeft,55,6555,4,1,0,1,0,1,,,,,,,,,,,,,,,,,,,,,,,,,,,,,,,,,,,,,,,
,,,,,,,,2023-08-06_08h12.20.991,HF_wild_card,2022.2.4,Win32,60.13590715,5cc29fbea548c00018afb7a0,64ce5acb97489d65b14ecc7a,64cf47c779638d2f13de6259,,,,,,,sngl,resources/DB.BMP,resources/Empty.png,WildCard_NonEx,-0.273148148,0.000925912,1,0,0,1.1619,optionLeft,55,6610,4,2,0,2,0,1,,,,,,,,,,,,,,,,,,,,,,,,,,,,,,,,,,,,,,,
,,,,,,,,2023-08-06_08h12.20.991,HF_wild_card,2022.2.4,Win32,60.13590715,5cc29fbea548c00018afb7a0,64ce5acb97489d65b14ecc7a,64cf47c779638d2f13de6259,,,,,,,decisionTrl,resources/DBN.BMP,resources/DB.BMP,WildCard_NonEx,0.312962991,0.018518519,1,0,0,1.2443,optionRight,45,6655,4,3,0,3,0,1,,,,,,,,,,,,,,,,,,,,,,,,,,,,,,,,,,,,,,,
,,,,,,,,2023-08-06_08h12.20.991,HF_wild_card,2022.2.4,Win32,60.13590715,5cc29fbea548c00018afb7a0,64ce5acb97489d65b14ecc7a,64cf47c779638d2f13de6259,,,,,,,decisionTrl,resources/DBN.BMP,resources/DP.BMP,Door1,0.199074074,-0.046296296,1,0,0,1.2624,optionRight,30,6685,4,4,0,4,0,1,,,,,,,,,,,,,,,,,,,,,,,,,,,,,,,,,,,,,,,
,,,,,,,,2023-08-06_08h12.20.991,HF_wild_card,2022.2.4,Win32,60.13590715,5cc29fbea548c00018afb7a0,64ce5acb97489d65b14ecc7a,64cf47c779638d2f13de6259,,,,,,,sngl,resources/Empty.png,resources/DY.BMP,Door4,0.306481538,0.03148146,1,0,0,1.1614,optionRight,80,6765,4,5,0,5,0,1,,,,,,,,,,,,,,,,,,,,,,,,,,,,,,,,,,,,,,,
,,,,,,,,2023-08-06_08h12.20.991,HF_wild_card,2022.2.4,Win32,60.13590715,5cc29fbea548c00018afb7a0,64ce5acb97489d65b14ecc7a,64cf47c779638d2f13de6259,,,,,,,decisionTrl,resources/DR.BMP,resources/DY.BMP,Door3,-0.273148148,-0.032407407,1,0,0,1.8527,optionLeft,70,6835,4,6,0,6,0,1,,,,,,,,,,,,,,,,,,,,,,,,,,,,,,,,,,,,,,,
,,,,,,,,2023-08-06_08h12.20.991,HF_wild_card,2022.2.4,Win32,60.13590715,5cc29fbea548c00018afb7a0,64ce5acb97489d65b14ecc7a,64cf47c779638d2f13de6259,,,,,,,decisionTrl,resources/DR.BMP,resources/DY.BMP,Door3,-0.328703704,-0.046296296,1,0,0,1.2783,optionLeft,70,6905,4,7,0,7,0,1,,,,,,,,,,,,,,,,,,,,,,,,,,,,,,,,,,,,,,,
,,,,,,,,2023-08-06_08h12.20.991,HF_wild_card,2022.2.4,Win32,60.13590715,5cc29fbea548c00018afb7a0,64ce5acb97489d65b14ecc7a,64cf47c779638d2f13de6259,,,,,,,ctch,resources/DY.BMP,resources/DP.BMP,Door1,0.255555541,0.005555541,1,0,0,1.4929,optionRight,30,6935,4,8,0,8,0,1,,,,,,,,,,,,,,,,,,,,,,,,,,,,,,,,,,,,,,,
,,,,,,,,2023-08-06_08h12.20.991,HF_wild_card,2022.2.4,Win32,60.13590715,5cc29fbea548c00018afb7a0,64ce5acb97489d65b14ecc7a,64cf47c779638d2f13de6259,,,,,,,decisionTrl,resources/DB.BMP,resources/DY.BMP,WildCard_NonEx,-0.322222215,-0.087037051,1,0,0,1.3705,optionLeft,55,6990,4,9,0,9,0,1,,,,,,,,,,,,,,,,,,,,,,,,,,,,,,,,,,,,,,,
,,,,,,,,2023-08-06_08h12.20.991,HF_wild_card,2022.2.4,Win32,60.13590715,5cc29fbea548c00018afb7a0,64ce5acb97489d65b14ecc7a,64cf47c779638d2f13de6259,,,,,,,ctch,resources/DR.BMP,resources/DBN.BMP,Door3,-0.299999979,-0.037962984,1,0,0,1.2451,optionLeft,70,7060,4,10,0,10,0,1,,,,,,,,,,,,,,,,,,,,,,,,,,,,,,,,,,,,,,,
,,,,,,,,2023-08-06_08h12.20.991,HF_wild_card,2022.2.4,Win32,60.13590715,5cc29fbea548c00018afb7a0,64ce5acb97489d65b14ecc7a,64cf47c779638d2f13de6259,,,,,,,decisionTrl,resources/DB.BMP,resources/DR.BMP,Door3,0.297222279,-0.021296289,1,0,0,2.4099,optionRight,70,7130,4,11,0,11,0,1,,,,,,,,,,,,,,,,,,,,,,,,,,,,,,,,,,,,,,,
,,,,,,,,2023-08-06_08h12.20.991,HF_wild_card,2022.2.4,Win32,60.13590715,5cc29fbea548c00018afb7a0,64ce5acb97489d65b14ecc7a,64cf47c779638d2f13de6259,,,,,,,ctch,resources/DP.BMP,resources/DY.BMP,Door1,-0.299074067,-0.030555548,1,0,0,1.5948,optionLeft,30,7160,4,12,0,12,0,1,,,,,,,,,,,,,,,,,,,,,,,,,,,,,,,,,,,,,,,
,,,,,,,,2023-08-06_08h12.20.991,HF_wild_card,2022.2.4,Win32,60.13590715,5cc29fbea548c00018afb7a0,64ce5acb97489d65b14ecc7a,64cf47c779638d2f13de6259,,,,,,,sngl,resources/Empty.png,resources/DBN.BMP,Door2,0.336111139,0.055555556,1,0,0,1.0966,optionRight,40,7200,4,13,0,13,0,1,,,,,,,,,,,,,,,,,,,,,,,,,,,,,,,,,,,,,,,
,,,,,,,,2023-08-06_08h12.20.991,HF_wild_card,2022.2.4,Win32,60.13590715,5cc29fbea548c00018afb7a0,64ce5acb97489d65b14ecc7a,64cf47c779638d2f13de6259,,,,,,,decisionTrl,resources/DBN.BMP,resources/DP.BMP,Door1,0.27407406,-0.021296289,1,0,0,1.5128,optionRight,30,7230,4,14,0,14,0,1,,,,,,,,,,,,,,,,,,,,,,,,,,,,,,,,,,,,,,,
,,,,,,,,2023-08-06_08h12.20.991,HF_wild_card,2022.2.4,Win32,60.13590715,5cc29fbea548c00018afb7a0,64ce5acb97489d65b14ecc7a,64cf47c779638d2f13de6259,,,,,,,ctch,resources/DR.BMP,resources/DBN.BMP,Door3,-0.312962956,-0.045370384,1,0,0,1.1609,optionLeft,70,7300,4,15,0,15,0,1,,,,,,,,,,,,,,,,,,,,,,,,,,,,,,,,,,,,,,,
,,,,,,,,2023-08-06_08h12.20.991,HF_wild_card,2022.2.4,Win32,60.13590715,5cc29fbea548c00018afb7a0,64ce5acb97489d65b14ecc7a,64cf47c779638d2f13de6259,,,,,,,sngl,resources/Empty.png,resources/DB.BMP,WildCard_NonEx,0.329629686,0.034259266,1,0,0,1.1107,optionRight,45,7345,4,16,0,16,0,1,,,,,,,,,,,,,,,,,,,,,,,,,,,,,,,,,,,,,,,
,,,,,,,,2023-08-06_08h12.20.991,HF_wild_card,2022.2.4,Win32,60.13590715,5cc29fbea548c00018afb7a0,64ce5acb97489d65b14ecc7a,64cf47c779638d2f13de6259,,,,,,,decisionTrl,resources/DY.BMP,resources/DR.BMP,Door3,0.332407492,0.045370349,1,0,0,1.3269,optionRight,70,7415,4,17,0,17,0,1,,,,,,,,,,,,,,,,,,,,,,,,,,,,,,,,,,,,,,,
,,,,,,,,2023-08-06_08h12.20.991,HF_wild_card,2022.2.4,Win32,60.13590715,5cc29fbea548c00018afb7a0,64ce5acb97489d65b14ecc7a,64cf47c779638d2f13de6259,,,,,,,sngl,resources/DY.BMP,resources/Empty.png,Door4,-0.324999986,-0.041666667,1,0,0,1.1365,optionLeft,60,7475,4,18,0,18,0,1,,,,,,,,,,,,,,,,,,,,,,,,,,,,,,,,,,,,,,,
,,,,,,,,2023-08-06_08h12.20.991,HF_wild_card,2022.2.4,Win32,60.13590715,5cc29fbea548c00018afb7a0,64ce5acb97489d65b14ecc7a,64cf47c779638d2f13de6259,,,,,,,decisionTrl,resources/DBN.BMP,resources/DP.BMP,Door1,0.338888945,0.001851859,1,0,0,1.0937,optionRight,30,7505,4,19,0,19,0,1,,,,,,,,,,,,,,,,,,,,,,,,,,,,,,,,,,,,,,,
,,,,,,,,2023-08-06_08h12.20.991,HF_wild_card,2022.2.4,Win32,60.13590715,5cc29fbea548c00018afb7a0,64ce5acb97489d65b14ecc7a,64cf47c779638d2f13de6259,,,,,,,sngl,resources/DB.BMP,resources/Empty.png,WildCard_NonEx,-0.302777785,-0.023148148,1,0,0,1.2361,optionLeft,45,7550,4,20,0,20,0,1,,,,,,,,,,,,,,,,,,,,,,,,,,,,,,,,,,,,,,,
,,,,,,,,2023-08-06_08h12.20.991,HF_wild_card,2022.2.4,Win32,60.13590715,5cc29fbea548c00018afb7a0,64ce5acb97489d65b14ecc7a,64cf47c779638d2f13de6259,,,,,,,sngl,resources/Empty.png,resources/DR.BMP,Door3,0.361111111,0.018518519,1,0,0,1.2457,optionRight,70,7620,4,21,0,21,0,1,,,,,,,,,,,,,,,,,,,,,,,,,,,,,,,,,,,,,,,
,,,,,,,,2023-08-06_08h12.20.991,HF_wild_card,2022.2.4,Win32,60.13590715,5cc29fbea548c00018afb7a0,64ce5acb97489d65b14ecc7a,64cf47c779638d2f13de6259,,,,,,,decisionTrl,resources/DR.BMP,resources/DY.BMP,Door3,-0.352777764,-0.062962956,1,0,0,1.3952,optionLeft,70,7690,4,22,0,22,0,1,,,,,,,,,,,,,,,,,,,,,,,,,,,,,,,,,,,,,,,
,,,,,,,,2023-08-06_08h12.20.991,HF_wild_card,2022.2.4,Win32,60.13590715,5cc29fbea548c00018afb7a0,64ce5acb97489d65b14ecc7a,64cf47c779638d2f13de6259,,,,,,,decisionTrl,resources/DP.BMP,resources/DB.BMP,WildCard_NonEx,0.292592578,0.009259259,1,0,0,1.5721,optionRight,45,7735,4,23,0,23,0,1,,,,,,,,,,,,,,,,,,,,,,,,,,,,,,,,,,,,,,,
,,,,,,,,2023-08-06_08h12.20.991,HF_wild_card,2022.2.4,Win32,60.13590715,5cc29fbea548c00018afb7a0,64ce5acb97489d65b14ecc7a,64cf47c779638d2f13de6259,,,,,,,sngl,resources/Empty.png,resources/DB.BMP,WildCard_NonEx,0.337962963,0.013888889,1,0,0,1.1951,optionRight,55,7790,4,24,0,24,0,1,,,,,,,,,,,,,,,,,,,,,,,,,,,,,,,,,,,,,,,
,,,,,,,,2023-08-06_08h12.20.991,HF_wild_card,2022.2.4,Win32,60.13590715,5cc29fbea548c00018afb7a0,64ce5acb97489d65b14ecc7a,64cf47c779638d2f13de6259,,,,,,,sngl,resources/DP.BMP,resources/Empty.png,Door1,-0.29351849,-0.034259266,1,0,0,1.1365,optionLeft,30,7820,4,25,0,25,0,1,,,,,,,,,,,,,,,,,,,,,,,,,,,,,,,,,,,,,,,
,,,,,,,,2023-08-06_08h12.20.991,HF_wild_card,2022.2.4,Win32,60.13590715,5cc29fbea548c00018afb7a0,64ce5acb97489d65b14ecc7a,64cf47c779638d2f13de6259,,,,,,,decisionTrl,resources/DR.BMP,resources/DB.BMP,WildCard_NonEx,0.313888974,0.02870369,1,0,0,1.393,optionRight,45,7865,4,26,0,26,0,1,,,,,,,,,,,,,,,,,,,,,,,,,,,,,,,,,,,,,,,
,,,,,,,,2023-08-06_08h12.20.991,HF_wild_card,2022.2.4,Win32,60.13590715,5cc29fbea548c00018afb7a0,64ce5acb97489d65b14ecc7a,64cf47c779638d2f13de6259,,,,,,,sngl,resources/Empty.png,resources/DP.BMP,Door1,0.272222236,0.01203703,1,0,0,1.1286,optionRight,30,7895,4,27,0,27,0,1,,,,,,,,,,,,,,,,,,,,,,,,,,,,,,,,,,,,,,,
,,,,,,,,2023-08-06_08h12.20.991,HF_wild_card,2022.2.4,Win32,60.13590715,5cc29fbea548c00018afb7a0,64ce5acb97489d65b14ecc7a,64cf47c779638d2f13de6259,,,,,,,decisionTrl,resources/DP.BMP,resources/DBN.BMP,Door1,-0.297222208,-0.058333326,1,0,0,1.2955,optionLeft,30,7925,4,28,0,28,0,1,,,,,,,,,,,,,,,,,,,,,,,,,,,,,,,,,,,,,,,
,,,,,,,,2023-08-06_08h12.20.991,HF_wild_card,2022.2.4,Win32,60.13590715,5cc29fbea548c00018afb7a0,64ce5acb97489d65b14ecc7a,64cf47c779638d2f13de6259,,,,,,,decisionTrl,resources/DP.BMP,resources/DBN.BMP,Door1,-0.289814772,-0.026851866,1,0,0,1.2285,optionLeft,30,7955,4,29,0,29,0,1,,,,,,,,,,,,,,,,,,,,,,,,,,,,,,,,,,,,,,,
,,,,,,,,2023-08-06_08h12.20.991,HF_wild_card,2022.2.4,Win32,60.13590715,5cc29fbea548c00018afb7a0,64ce5acb97489d65b14ecc7a,64cf47c779638d2f13de6259,,,,,,,sngl,resources/DBN.BMP,resources/Empty.png,Door2,-0.350925905,-0.025925919,1,0,0,1.211,optionLeft,20,7975,4,30,0,30,0,1,,,,,,,,,,,,,,,,,,,,,,,,,,,,,,,,,,,,,,,
,,,,,,,,2023-08-06_08h12.20.991,HF_wild_card,2022.2.4,Win32,60.13590715,5cc29fbea548c00018afb7a0,64ce5acb97489d65b14ecc7a,64cf47c779638d2f13de6259,,,,,,,decisionTrl,resources/DR.BMP,resources/DY.BMP,Door3,-0.312037044,-0.024074095,1,0,0,1.3946,optionLeft,70,8045,4,31,0,31,0,1,,,,,,,,,,,,,,,,,,,,,,,,,,,,,,,,,,,,,,,
,,,,,,,,2023-08-06_08h12.20.991,HF_wild_card,2022.2.4,Win32,60.13590715,5cc29fbea548c00018afb7a0,64ce5acb97489d65b14ecc7a,64cf47c779638d2f13de6259,,,,,,,sngl,resources/DR.BMP,resources/Empty.png,Door3,-0.317592586,-0.050000014,1,0,0,1.3117,optionLeft,70,8115,4,32,0,32,0,1,,,,,,,,,,,,,,,,,,,,,,,,,,,,,,,,,,,,,,,
,,,,,,,,2023-08-06_08h12.20.991,HF_wild_card,2022.2.4,Win32,60.13590715,5cc29fbea548c00018afb7a0,64ce5acb97489d65b14ecc7a,64cf47c779638d2f13de6259,,,,,,,decisionTrl,resources/DY.BMP,resources/DB.BMP,WildCard_NonEx,0.378703788,0.010185171,1,0,0,1.278,optionRight,55,8170,4,33,0,33,0,1,,,,,,,,,,,,,,,,,,,,,,,,,,,,,,,,,,,,,,,
,,,,,,,,2023-08-06_08h12.20.991,HF_wild_card,2022.2.4,Win32,60.13590715,5cc29fbea548c00018afb7a0,64ce5acb97489d65b14ecc7a,64cf47c779638d2f13de6259,,,,,,,ctch,resources/DY.BMP,resources/DP.BMP,Door4,-0.301851838,-0.049074067,1,0,0,2.1259,optionLeft,80,8250,4,34,0,34,0,1,,,,,,,,,,,,,,,,,,,,,,,,,,,,,,,,,,,,,,,
,,,,,,,,2023-08-06_08h12.20.991,HF_wild_card,2022.2.4,Win32,60.13590715,5cc29fbea548c00018afb7a0,64ce5acb97489d65b14ecc7a,64cf47c779638d2f13de6259,,,,,,,ctch,resources/DBN.BMP,resources/DR.BMP,Door3,0.328703704,0.005555541,1,0,0,1.311,optionRight,70,8320,4,35,0,35,0,1,,,,,,,,,,,,,,,,,,,,,,,,,,,,,,,,,,,,,,,
,,,,,,,,2023-08-06_08h12.20.991,HF_wild_card,2022.2.4,Win32,60.13590715,5cc29fbea548c00018afb7a0,64ce5acb97489d65b14ecc7a,64cf47c779638d2f13de6259,,,,,,,ctch,resources/DP.BMP,resources/DY.BMP,Door1,-0.326851845,-0.075000021,1,0,0,7.9221,optionLeft,30,8350,4,36,0,36,0,1,,,,,,,,,,,,,,,,,,,,,,,,,,,,,,,,,,,,,,,
,,,,,,,,2023-08-06_08h12.20.991,HF_wild_card,2022.2.4,Win32,60.13590715,5cc29fbea548c00018afb7a0,64ce5acb97489d65b14ecc7a,64cf47c779638d2f13de6259,,,,,,,ctch,resources/DBN.BMP,resources/DR.BMP,Door3,0.306481538,0.048148155,1,0,0,3.5511,optionRight,70,8420,4,37,0,37,0,1,,,,,,,,,,,,,,,,,,,,,,,,,,,,,,,,,,,,,,,
,,,,,,,,2023-08-06_08h12.20.991,HF_wild_card,2022.2.4,Win32,60.13590715,5cc29fbea548c00018afb7a0,64ce5acb97489d65b14ecc7a,64cf47c779638d2f13de6259,,,,,,,decisionTrl,resources/DY.BMP,resources/DR.BMP,Door3,0.244444459,0.020370377,1,0,0,1.2629,optionRight,70,8490,4,38,0,38,0,1,,,,,,,,,,,,,,,,,,,,,,,,,,,,,,,,,,,,,,,
,,,,,,,,2023-08-06_08h12.20.991,HF_wild_card,2022.2.4,Win32,60.13590715,5cc29fbea548c00018afb7a0,64ce5acb97489d65b14ecc7a,64cf47c779638d2f13de6259,,,,,,,decisionTrl,resources/DP.BMP,resources/DBN.BMP,Door1,-0.331481474,-0.078703704,1,0,0,1.628,optionLeft,30,8520,4,39,0,39,0,1,,,,,,,,,,,,,,,,,,,,,,,,,,,,,,,,,,,,,,,
,,,,,,,,2023-08-06_08h12.20.991,HF_wild_card,2022.2.4,Win32,60.13590715,5cc29fbea548c00018afb7a0,64ce5acb97489d65b14ecc7a,64cf47c779638d2f13de6259,,,,,,,decisionTrl,resources/DP.BMP,resources/DBN.BMP,Door1,-0.339814822,-0.081481474,1,0,0,1.3806,optionLeft,30,8550,4,40,0,40,0,1,,,,,,,,,,,,,,,,,,,,,,,,,,,,,,,,,,,,,,,
,,,,,,,,2023-08-06_08h12.20.991,HF_wild_card,2022.2.4,Win32,60.13590715,5cc29fbea548c00018afb7a0,64ce5acb97489d65b14ecc7a,64cf47c779638d2f13de6259,,,,,,,decisionTrl,resources/DY.BMP,resources/DR.BMP,Door3,0.350926011,-0.005555577,1,0,0,1.1134,optionRight,70,8620,4,41,0,41,0,1,,,,,,,,,,,,,,,,,,,,,,,,,,,,,,,,,,,,,,,
,,,,,,,,2023-08-06_08h12.20.991,HF_wild_card,2022.2.4,Win32,60.13590715,5cc29fbea548c00018afb7a0,64ce5acb97489d65b14ecc7a,64cf47c779638d2f13de6259,,,,,,,decisionTrl,resources/DBN.BMP,resources/DP.BMP,Door1,0.32222225,0.033333319,1,0,0,1.2207,optionRight,30,8650,4,42,0,42,0,1,,,,,,,,,,,,,,,,,,,,,,,,,,,,,,,,,,,,,,,
,,,,,,,,2023-08-06_08h12.20.991,HF_wild_card,2022.2.4,Win32,60.13590715,5cc29fbea548c00018afb7a0,64ce5acb97489d65b14ecc7a,64cf47c779638d2f13de6259,,,,,,,decisionTrl,resources/DY.BMP,resources/DR.BMP,Door3,0.367592564,0.047222208,1,0,0,1.3364,optionRight,70,8720,4,43,0,43,0,1,,,,,,,,,,,,,,,,,,,,,,,,,,,,,,,,,,,,,,,
,,,,,,,,2023-08-06_08h12.20.991,HF_wild_card,2022.2.4,Win32,60.13590715,5cc29fbea548c00018afb7a0,64ce5acb97489d65b14ecc7a,64cf47c779638d2f13de6259,,,,,,,,,,,,,,,,,,,,,,,,,,3,0,3,0,1,,,,,,,,,,,,,,,,,,,,,,,,,,,,,,,,,,
,,,,,,,,2023-08-06_08h12.20.991,HF_wild_card,2022.2.4,Win32,60.13590715,5cc29fbea548c00018afb7a0,64ce5acb97489d65b14ecc7a,64cf47c779638d2f13de6259,,,,,,,decisionTrl,resources/DY.BMP,resources/DR.BMP,Door3,0.305555556,-0.053703697,1,0,0,1.2776,optionRight,70,8790,5,0,0,0,0,1,,,,,,,,,,,,,,,,,,,,,,,,,,,,,,,,,,,,,,,
,,,,,,,,2023-08-06_08h12.20.991,HF_wild_card,2022.2.4,Win32,60.13590715,5cc29fbea548c00018afb7a0,64ce5acb97489d65b14ecc7a,64cf47c779638d2f13de6259,,,,,,,decisionTrl,resources/DY.BMP,resources/DR.BMP,Door3,0.29814812,-0.041666667,1,0,0,1.255,optionRight,70,8860,5,1,0,1,0,1,,,,,,,,,,,,,,,,,,,,,,,,,,,,,,,,,,,,,,,
,,,,,,,,2023-08-06_08h12.20.991,HF_wild_card,2022.2.4,Win32,60.13590715,5cc29fbea548c00018afb7a0,64ce5acb97489d65b14ecc7a,64cf47c779638d2f13de6259,,,,,,,ctch,resources/DY.BMP,resources/DP.BMP,Door4,-0.324999986,-0.039814808,1,0,0,1.7942,optionLeft,80,8940,5,2,0,2,0,1,,,,,,,,,,,,,,,,,,,,,,,,,,,,,,,,,,,,,,,
,,,,,,,,2023-08-06_08h12.20.991,HF_wild_card,2022.2.4,Win32,60.13590715,5cc29fbea548c00018afb7a0,64ce5acb97489d65b14ecc7a,64cf47c779638d2f13de6259,,,,,,,decisionTrl,resources/DY.BMP,resources/DB.BMP,Door4,-0.291666667,-0.071296303,1,0,0,2.4027,optionLeft,60,9000,5,3,0,3,0,1,,,,,,,,,,,,,,,,,,,,,,,,,,,,,,,,,,,,,,,
,,,,,,,,2023-08-06_08h12.20.991,HF_wild_card,2022.2.4,Win32,60.13590715,5cc29fbea548c00018afb7a0,64ce5acb97489d65b14ecc7a,64cf47c779638d2f13de6259,,,,,,,decisionTrl,resources/DB.BMP,resources/DBN.BMP,WildCard_NonEx,-0.319444444,-0.005555577,1,0,0,1.7286,optionLeft,45,9045,5,4,0,4,0,1,,,,,,,,,,,,,,,,,,,,,,,,,,,,,,,,,,,,,,,
,,,,,,,,2023-08-06_08h12.20.991,HF_wild_card,2022.2.4,Win32,60.13590715,5cc29fbea548c00018afb7a0,64ce5acb97489d65b14ecc7a,64cf47c779638d2f13de6259,,,,,,,decisionTrl,resources/DP.BMP,resources/DBN.BMP,Door1,-0.326851845,-0.040740755,1,0,0,1.3289,optionLeft,30,9075,5,5,0,5,0,1,,,,,,,,,,,,,,,,,,,,,,,,,,,,,,,,,,,,,,,
,,,,,,,,2023-08-06_08h12.20.991,HF_wild_card,2022.2.4,Win32,60.13590715,5cc29fbea548c00018afb7a0,64ce5acb97489d65b14ecc7a,64cf47c779638d2f13de6259,,,,,,,sngl,resources/DB.BMP,resources/Empty.png,WildCard_NonEx,-0.305555556,-0.00462963,1,0,0,1.178,optionLeft,45,9120,5,6,0,6,0,1,,,,,,,,,,,,,,,,,,,,,,,,,,,,,,,,,,,,,,,
,,,,,,,,2023-08-06_08h12.20.991,HF_wild_card,2022.2.4,Win32,60.13590715,5cc29fbea548c00018afb7a0,64ce5acb97489d65b14ecc7a,64cf47c779638d2f13de6259,,,,,,,decisionTrl,resources/DBN.BMP,resources/DP.BMP,Door1,0.319444444,-0.006481489,1,0,0,1.0633,optionRight,30,9150,5,7,0,7,0,1,,,,,,,,,,,,,,,,,,,,,,,,,,,,,,,,,,,,,,,
,,,,,,,,2023-08-06_08h12.20.991,HF_wild_card,2022.2.4,Win32,60.13590715,5cc29fbea548c00018afb7a0,64ce5acb97489d65b14ecc7a,64cf47c779638d2f13de6259,,,,,,,decisionTrl,resources/DR.BMP,resources/DB.BMP,WildCard_NonEx,0.347222222,-0.019444466,1,0,0,1.2752,optionRight,45,9195,5,8,0,8,0,1,,,,,,,,,,,,,,,,,,,,,,,,,,,,,,,,,,,,,,,
,,,,,,,,2023-08-06_08h12.20.991,HF_wild_card,2022.2.4,Win32,60.13590715,5cc29fbea548c00018afb7a0,64ce5acb97489d65b14ecc7a,64cf47c779638d2f13de6259,,,,,,,ctch,resources/DR.BMP,resources/DBN.BMP,Door3,-0.354629623,-0.013888889,1,0,0,1.0446,optionLeft,70,9265,5,9,0,9,0,1,,,,,,,,,,,,,,,,,,,,,,,,,,,,,,,,,,,,,,,
,,,,,,,,2023-08-06_08h12.20.991,HF_wild_card,2022.2.4,Win32,60.13590715,5cc29fbea548c00018afb7a0,64ce5acb97489d65b14ecc7a,64cf47c779638d2f13de6259,,,,,,,sngl,resources/Empty.png,resources/DY.BMP,Door4,0.391666695,0.034259266,1,0,0,1.0776,optionRight,60,9325,5,10,0,10,0,1,,,,,,,,,,,,,,,,,,,,,,,,,,,,,,,,,,,,,,,
,,,,,,,,2023-08-06_08h12.20.991,HF_wild_card,2022.2.4,Win32,60.13590715,5cc29fbea548c00018afb7a0,64ce5acb97489d65b14ecc7a,64cf47c779638d2f13de6259,,,,,,,ctch,resources/DBN.BMP,resources/DR.BMP,Door3,0.346296381,0.037962949,1,0,0,1.1614,optionRight,70,9395,5,11,0,11,0,1,,,,,,,,,,,,,,,,,,,,,,,,,,,,,,,,,,,,,,,
,,,,,,,,2023-08-06_08h12.20.991,HF_wild_card,2022.2.4,Win32,60.13590715,5cc29fbea548c00018afb7a0,64ce5acb97489d65b14ecc7a,64cf47c779638d2f13de6259,,,,,,,decisionTrl,resources/DBN.BMP,resources/DP.BMP,Door1,0.316666638,0.033333319,1,0,0,1.1442,optionRight,30,9425,5,12,0,12,0,1,,,,,,,,,,,,,,,,,,,,,,,,,,,,,,,,,,,,,,,
,,,,,,,,2023-08-06_08h12.20.991,HF_wild_card,2022.2.4,Win32,60.13590715,5cc29fbea548c00018afb7a0,64ce5acb97489d65b14ecc7a,64cf47c779638d2f13de6259,,,,,,,sngl,resources/Empty.png,resources/DR.BMP,Door3,0.369444529,0.011111118,1,0,0,1.1947,optionRight,70,9495,5,13,0,13,0,1,,,,,,,,,,,,,,,,,,,,,,,,,,,,,,,,,,,,,,,
,,,,,,,,2023-08-06_08h12.20.991,HF_wild_card,2022.2.4,Win32,60.13590715,5cc29fbea548c00018afb7a0,64ce5acb97489d65b14ecc7a,64cf47c779638d2f13de6259,,,,,,,decisionTrl,resources/DB.BMP,resources/DP.BMP,WildCard_NonEx,-0.330555563,-0.043518526,1,0,0,1.894,optionLeft,45,9540,5,14,0,14,0,1,,,,,,,,,,,,,,,,,,,,,,,,,,,,,,,,,,,,,,,
,,,,,,,,2023-08-06_08h12.20.991,HF_wild_card,2022.2.4,Win32,60.13590715,5cc29fbea548c00018afb7a0,64ce5acb97489d65b14ecc7a,64cf47c779638d2f13de6259,,,,,,,decisionTrl,resources/DP.BMP,resources/DBN.BMP,Door1,-0.354629623,-0.067592586,1,0,0,1.3393,optionLeft,30,9570,5,15,0,15,0,1,,,,,,,,,,,,,,,,,,,,,,,,,,,,,,,,,,,,,,,
,,,,,,,,2023-08-06_08h12.20.991,HF_wild_card,2022.2.4,Win32,60.13590715,5cc29fbea548c00018afb7a0,64ce5acb97489d65b14ecc7a,64cf47c779638d2f13de6259,,,,,,,decisionTrl,resources/DP.BMP,resources/DBN.BMP,Door2,0.383333418,0.042592578,1,0,0,1.6277,optionRight,40,9610,5,16,0,16,0,1,,,,,,,,,,,,,,,,,,,,,,,,,,,,,,,,,,,,,,,
,,,,,,,,2023-08-06_08h12.20.991,HF_wild_card,2022.2.4,Win32,60.13590715,5cc29fbea548c00018afb7a0,64ce5acb97489d65b14ecc7a,64cf47c779638d2f13de6259,,,,,,,sngl,resources/DBN.BMP,resources/Empty.png,Door2,-0.256481453,-0.0074074,1,0,0,1.1447,optionLeft,40,9650,5,17,0,17,0,1,,,,,,,,,,,,,,,,,,,,,,,,,,,,,,,,,,,,,,,
,,,,,,,,2023-08-06_08h12.20.991,HF_wild_card,2022.2.4,Win32,60.13590715,5cc29fbea548c00018afb7a0,64ce5acb97489d65b14ecc7a,64cf47c779638d2f13de6259,,,,,,,sngl,resources/Empty.png,resources/DB.BMP,WildCard_NonEx,0.363888917,0.044444437,1,0,0,1.1028,optionRight,55,9705,5,18,0,18,0,1,,,,,,,,,,,,,,,,,,,,,,,,,,,,,,,,,,,,,,,
,,,,,,,,2023-08-06_08h12.20.991,HF_wild_card,2022.2.4,Win32,60.13590715,5cc29fbea548c00018afb7a0,64ce5acb97489d65b14ecc7a,64cf47c779638d2f13de6259,,,,,,,decisionTrl,resources/DBN.BMP,resources/DP.BMP,Door1,0.3648149,-0.008333347,1,0,0,1.1945,optionRight,30,9735,5,19,0,19,0,1,,,,,,,,,,,,,,,,,,,,,,,,,,,,,,,,,,,,,,,
,,,,,,,,2023-08-06_08h12.20.991,HF_wild_card,2022.2.4,Win32,60.13590715,5cc29fbea548c00018afb7a0,64ce5acb97489d65b14ecc7a,64cf47c779638d2f13de6259,,,,,,,ctch,resources/DY.BMP,resources/DP.BMP,Door1,0.345370399,-0.005555577,1,0,0,1.4776,optionRight,30,9765,5,20,0,20,0,1,,,,,,,,,,,,,,,,,,,,,,,,,,,,,,,,,,,,,,,
,,,,,,,,2023-08-06_08h12.20.991,HF_wild_card,2022.2.4,Win32,60.13590715,5cc29fbea548c00018afb7a0,64ce5acb97489d65b14ecc7a,64cf47c779638d2f13de6259,,,,,,,decisionTrl,resources/DBN.BMP,resources/DB.BMP,WildCard_NonEx,0.376851824,0.03611109,1,0,0,1.2447,optionRight,45,9810,5,21,0,21,0,1,,,,,,,,,,,,,,,,,,,,,,,,,,,,,,,,,,,,,,,
,,,,,,,,2023-08-06_08h12.20.991,HF_wild_card,2022.2.4,Win32,60.13590715,5cc29fbea548c00018afb7a0,64ce5acb97489d65b14ecc7a,64cf47c779638d2f13de6259,,,,,,,sngl,resources/Empty.png,resources/DBN.BMP,Door2,0.294444473,0.03148146,1,0,0,1.1757,optionRight,20,9830,5,22,0,22,0,1,,,,,,,,,,,,,,,,,,,,,,,,,,,,,,,,,,,,,,,
,,,,,,,,2023-08-06_08h12.20.991,HF_wild_card,2022.2.4,Win32,60.13590715,5cc29fbea548c00018afb7a0,64ce5acb97489d65b14ecc7a,64cf47c779638d2f13de6259,,,,,,,ctch,resources/DP.BMP,resources/DY.BMP,Door1,-0.378703683,-0.099074116,1,0,0,1.5359,optionLeft,30,9860,5,23,0,23,0,1,,,,,,,,,,,,,,,,,,,,,,,,,,,,,,,,,,,,,,,
,,,,,,,,2023-08-06_08h12.20.991,HF_wild_card,2022.2.4,Win32,60.13590715,5cc29fbea548c00018afb7a0,64ce5acb97489d65b14ecc7a,64cf47c779638d2f13de6259,,,,,,,ctch,resources/DP.BMP,resources/DY.BMP,Door1,-0.276851866,-0.043518526,1,0,0,2.0868,optionLeft,30,9890,5,24,0,24,0,1,,,,,,,,,,,,,,,,,,,,,,,,,,,,,,,,,,,,,,,
,,,,,,,,2023-08-06_08h12.20.991,HF_wild_card,2022.2.4,Win32,60.13590715,5cc29fbea548c00018afb7a0,64ce5acb97489d65b14ecc7a,64cf47c779638d2f13de6259,,,,,,,decisionTrl,resources/DR.BMP,resources/DY.BMP,Door3,-0.310185185,-0.054629644,1,0,0,1.5446,optionLeft,70,9960,5,25,0,25,0,1,,,,,,,,,,,,,,,,,,,,,,,,,,,,,,,,,,,,,,,
,,,,,,,,2023-08-06_08h12.20.991,HF_wild_card,2022.2.4,Win32,60.13590715,5cc29fbea548c00018afb7a0,64ce5acb97489d65b14ecc7a,64cf47c779638d2f13de6259,,,,,,,ctch,resources/DR.BMP,resources/DBN.BMP,Door3,-0.289814772,-0.015740748,1,0,0,1.6617,optionLeft,70,10030,5,26,0,26,0,1,,,,,,,,,,,,,,,,,,,,,,,,,,,,,,,,,,,,,,,
,,,,,,,,2023-08-06_08h12.20.991,HF_wild_card,2022.2.4,Win32,60.13590715,5cc29fbea548c00018afb7a0,64ce5acb97489d65b14ecc7a,64cf47c779638d2f13de6259,,,,,,,decisionTrl,resources/DB.BMP,resources/DY.BMP,Door4,0.337037122,0.060185185,1,0,0,2.9231,optionRight,60,10090,5,27,0,27,0,1,,,,,,,,,,,,,,,,,,,,,,,,,,,,,,,,,,,,,,,
,,,,,,,,2023-08-06_08h12.20.991,HF_wild_card,2022.2.4,Win32,60.13590715,5cc29fbea548c00018afb7a0,64ce5acb97489d65b14ecc7a,64cf47c779638d2f13de6259,,,,,,,sngl,resources/Empty.png,resources/DP.BMP,Door1,0.33148151,0.012962942,1,0,0,1.1457,optionRight,30,10120,5,28,0,28,0,1,,,,,,,,,,,,,,,,,,,,,,,,,,,,,,,,,,,,,,,
,,,,,,,,2023-08-06_08h12.20.991,HF_wild_card,2022.2.4,Win32,60.13590715,5cc29fbea548c00018afb7a0,64ce5acb97489d65b14ecc7a,64cf47c779638d2f13de6259,,,,,,,decisionTrl,resources/DY.BMP,resources/DR.BMP,Door3,0.350926011,0.030555548,1,0,0,1.3443,optionRight,70,10190,5,29,0,29,0,1,,,,,,,,,,,,,,,,,,,,,,,,,,,,,,,,,,,,,,,
,,,,,,,,2023-08-06_08h12.20.991,HF_wild_card,2022.2.4,Win32,60.13590715,5cc29fbea548c00018afb7a0,64ce5acb97489d65b14ecc7a,64cf47c779638d2f13de6259,,,,,,,ctch,resources/DBN.BMP,resources/DR.BMP,Door3,0.286111125,0.01203703,1,0,0,1.1446,optionRight,70,10260,5,30,0,30,0,1,,,,,,,,,,,,,,,,,,,,,,,,,,,,,,,,,,,,,,,
,,,,,,,,2023-08-06_08h12.20.991,HF_wild_card,2022.2.4,Win32,60.13590715,5cc29fbea548c00018afb7a0,64ce5acb97489d65b14ecc7a,64cf47c779638d2f13de6259,,,,,,,decisionTrl,resources/DR.BMP,resources/DY.BMP,Door3,-0.303703697,-0.062037044,1,0,0,1.2107,optionLeft,70,10330,5,31,0,31,0,1,,,,,,,,,,,,,,,,,,,,,,,,,,,,,,,,,,,,,,,
,,,,,,,,2023-08-06_08h12.20.991,HF_wild_card,2022.2.4,Win32,60.13590715,5cc29fbea548c00018afb7a0,64ce5acb97489d65b14ecc7a,64cf47c779638d2f13de6259,,,,,,,sngl,resources/DR.BMP,resources/Empty.png,Door3,-0.374074053,-0.071296303,1,0,0,1.0944,optionLeft,70,10400,5,32,0,32,0,1,,,,,,,,,,,,,,,,,,,,,,,,,,,,,,,,,,,,,,,
,,,,,,,,2023-08-06_08h12.20.991,HF_wild_card,2022.2.4,Win32,60.13590715,5cc29fbea548c00018afb7a0,64ce5acb97489d65b14ecc7a,64cf47c779638d2f13de6259,,,,,,,decisionTrl,resources/DB.BMP,resources/DR.BMP,Door3,0.354629658,0.044444437,1,0,0,1.1948,optionRight,70,10470,5,33,0,33,0,1,,,,,,,,,,,,,,,,,,,,,,,,,,,,,,,,,,,,,,,
,,,,,,,,2023-08-06_08h12.20.991,HF_wild_card,2022.2.4,Win32,60.13590715,5cc29fbea548c00018afb7a0,64ce5acb97489d65b14ecc7a,64cf47c779638d2f13de6259,,,,,,,sngl,resources/DY.BMP,resources/Empty.png,Door4,-0.298148155,-0.062037044,1,0,0,1.4944,optionLeft,80,10550,5,34,0,34,0,1,,,,,,,,,,,,,,,,,,,,,,,,,,,,,,,,,,,,,,,
,,,,,,,,2023-08-06_08h12.20.991,HF_wild_card,2022.2.4,Win32,60.13590715,5cc29fbea548c00018afb7a0,64ce5acb97489d65b14ecc7a,64cf47c779638d2f13de6259,,,,,,,sngl,resources/Empty.png,resources/DB.BMP,WildCard_NonEx,0.459259316,0.052777785,1,0,0,4.1335,optionRight,45,10595,5,35,0,35,0,1,,,,,,,,,,,,,,,,,,,,,,,,,,,,,,,,,,,,,,,
,,,,,,,,2023-08-06_08h12.20.991,HF_wild_card,2022.2.4,Win32,60.13590715,5cc29fbea548c00018afb7a0,64ce5acb97489d65b14ecc7a,64cf47c779638d2f13de6259,,,,,,,decisionTrl,resources/DR.BMP,resources/DY.BMP,Door3,-0.326851845,-0.048148155,1,0,0,1.4668,optionLeft,70,10665,5,36,0,36,0,1,,,,,,,,,,,,,,,,,,,,,,,,,,,,,,,,,,,,,,,
,,,,,,,,2023-08-06_08h12.20.991,HF_wild_card,2022.2.4,Win32,60.13590715,5cc29fbea548c00018afb7a0,64ce5acb97489d65b14ecc7a,64cf47c779638d2f13de6259,,,,,,,decisionTrl,resources/DR.BMP,resources/DY.BMP,Door3,-0.324999986,-0.044444437,1,0,0,1.079,optionLeft,70,10735,5,37,0,37,0,1,,,,,,,,,,,,,,,,,,,,,,,,,,,,,,,,,,,,,,,
,,,,,,,,2023-08-06_08h12.20.991,HF_wild_card,2022.2.4,Win32,60.13590715,5cc29fbea548c00018afb7a0,64ce5acb97489d65b14ecc7a,64cf47c779638d2f13de6259,,,,,,,decisionTrl,resources/DY.BMP,resources/DR.BMP,Door3,0.307407379,-0.021296289,1,0,0,1.2614,optionRight,70,10805,5,38,0,38,0,1,,,,,,,,,,,,,,,,,,,,,,,,,,,,,,,,,,,,,,,
,,,,,,,,2023-08-06_08h12.20.991,HF_wild_card,2022.2.4,Win32,60.13590715,5cc29fbea548c00018afb7a0,64ce5acb97489d65b14ecc7a,64cf47c779638d2f13de6259,,,,,,,decisionTrl,resources/DBN.BMP,resources/DP.BMP,Door2,-0.264814801,0.000925912,1,0,0,2.3104,optionLeft,20,10825,5,39,0,39,0,1,,,,,,,,,,,,,,,,,,,,,,,,,,,,,,,,,,,,,,,
,,,,,,,,2023-08-06_08h12.20.991,HF_wild_card,2022.2.4,Win32,60.13590715,5cc29fbea548c00018afb7a0,64ce5acb97489d65b14ecc7a,64cf47c779638d2f13de6259,,,,,,,decisionTrl,resources/DP.BMP,resources/DBN.BMP,Door1,-0.288888861,-0.037962984,1,0,0,1.661,optionLeft,30,10855,5,40,0,40,0,1,,,,,,,,,,,,,,,,,,,,,,,,,,,,,,,,,,,,,,,
,,,,,,,,2023-08-06_08h12.20.991,HF_wild_card,2022.2.4,Win32,60.13590715,5cc29fbea548c00018afb7a0,64ce5acb97489d65b14ecc7a,64cf47c779638d2f13de6259,,,,,,,sngl,resources/DB.BMP,resources/Empty.png,WildCard_NonEx,-0.319444444,0.001851859,1,0,0,1.3446,optionLeft,55,10910,5,41,0,41,0,1,,,,,,,,,,,,,,,,,,,,,,,,,,,,,,,,,,,,,,,
,,,,,,,,2023-08-06_08h12.20.991,HF_wild_card,2022.2.4,Win32,60.13590715,5cc29fbea548c00018afb7a0,64ce5acb97489d65b14ecc7a,64cf47c779638d2f13de6259,,,,,,,decisionTrl,resources/DP.BMP,resources/DB.BMP,WildCard_NonEx,0.339814787,0.01944443,1,0,0,1.3107,optionRight,45,10955,5,42,0,42,0,1,,,,,,,,,,,,,,,,,,,,,,,,,,,,,,,,,,,,,,,
,,,,,,,,2023-08-06_08h12.20.991,HF_wild_card,2022.2.4,Win32,60.13590715,5cc29fbea548c00018afb7a0,64ce5acb97489d65b14ecc7a,64cf47c779638d2f13de6259,,,,,,,sngl,resources/DP.BMP,resources/Empty.png,Door1,-0.29351849,-0.024074095,1,0,0,1.0538,optionLeft,30,10985,5,43,0,43,0,1,,,,,,,,,,,,,,,,,,,,,,,,,,,,,,,,,,,,,,,
,,,,,,,,2023-08-06_08h12.20.991,HF_wild_card,2022.2.4,Win32,60.13590715,5cc29fbea548c00018afb7a0,64ce5acb97489d65b14ecc7a,64cf47c779638d2f13de6259,,,,,,,,,,,,,,,,,,,,,,,,,,4,0,4,0,1,,,,,,,,,,,,,,,,,,,,,,,,,,,,,,,,,,
,,,,,,,,2023-08-06_08h12.20.991,HF_wild_card,2022.2.4,Win32,60.13590715,5cc29fbea548c00018afb7a0,64ce5acb97489d65b14ecc7a,64cf47c779638d2f13de6259,,,,,,,decisionTrl,resources/DP.BMP,resources/DBN.BMP,Door1,-0.328703704,-0.107407393,1,0,0,1.3918,optionLeft,30,11015,6,0,0,0,0,1,,,,,,,,,,,,,,,,,,,,,,,,,,,,,,,,,,,,,,,
,,,,,,,,2023-08-06_08h12.20.991,HF_wild_card,2022.2.4,Win32,60.13590715,5cc29fbea548c00018afb7a0,64ce5acb97489d65b14ecc7a,64cf47c779638d2f13de6259,,,,,,,decisionTrl,resources/DY.BMP,resources/DR.BMP,Door3,0.309259344,0.00462963,1,0,0,1.1203,optionRight,70,11085,6,1,0,1,0,1,,,,,,,,,,,,,,,,,,,,,,,,,,,,,,,,,,,,,,,
,,,,,,,,2023-08-06_08h12.20.991,HF_wild_card,2022.2.4,Win32,60.13590715,5cc29fbea548c00018afb7a0,64ce5acb97489d65b14ecc7a,64cf47c779638d2f13de6259,,,,,,,sngl,resources/Empty.png,resources/DB.BMP,WildCard_NonEx,0.365740741,0.087962963,1,0,0,1.028,optionRight,55,11140,6,2,0,2,0,1,,,,,,,,,,,,,,,,,,,,,,,,,,,,,,,,,,,,,,,
,,,,,,,,2023-08-06_08h12.20.991,HF_wild_card,2022.2.4,Win32,60.13590715,5cc29fbea548c00018afb7a0,64ce5acb97489d65b14ecc7a,64cf47c779638d2f13de6259,,,,,,,sngl,resources/DB.BMP,resources/Empty.png,WildCard_NonEx,-0.346296275,-0.027777778,1,0,0,1.1117,optionLeft,55,11195,6,3,0,3,0,1,,,,,,,,,,,,,,,,,,,,,,,,,,,,,,,,,,,,,,,
,,,,,,,,2023-08-06_08h12.20.991,HF_wild_card,2022.2.4,Win32,60.13590715,5cc29fbea548c00018afb7a0,64ce5acb97489d65b14ecc7a,64cf47c779638d2f13de6259,,,,,,,sngl,resources/DY.BMP,resources/Empty.png,Door4,-0.277777778,-0.001851859,1,0,0,0.9952,optionLeft,60,11255,6,4,0,4,0,1,,,,,,,,,,,,,,,,,,,,,,,,,,,,,,,,,,,,,,,
,,,,,,,,2023-08-06_08h12.20.991,HF_wild_card,2022.2.4,Win32,60.13590715,5cc29fbea548c00018afb7a0,64ce5acb97489d65b14ecc7a,64cf47c779638d2f13de6259,,,,,,,decisionTrl,resources/DBN.BMP,resources/DP.BMP,Door1,0.337037122,0.042592578,1,0,0,1.2455,optionRight,30,11285,6,5,0,5,0,1,,,,,,,,,,,,,,,,,,,,,,,,,,,,,,,,,,,,,,,
,,,,,,,,2023-08-06_08h12.20.991,HF_wild_card,2022.2.4,Win32,60.13590715,5cc29fbea548c00018afb7a0,64ce5acb97489d65b14ecc7a,64cf47c779638d2f13de6259,,,,,,,ctch,resources/DR.BMP,resources/DBN.BMP,Door3,-0.286111125,-0.018518519,1,0,0,1.3104,optionLeft,70,11355,6,6,0,6,0,1,,,,,,,,,,,,,,,,,,,,,,,,,,,,,,,,,,,,,,,
,,,,,,,,2023-08-06_08h12.20.991,HF_wild_card,2022.2.4,Win32,60.13590715,5cc29fbea548c00018afb7a0,64ce5acb97489d65b14ecc7a,64cf47c779638d2f13de6259,,,,,,,sngl,resources/Empty.png,resources/DR.BMP,Door3,0.292592578,0.025000007,1,0,0,1.0616,optionRight,70,11425,6,7,0,7,0,1,,,,,,,,,,,,,,,,,,,,,,,,,,,,,,,,,,,,,,,
,,,,,,,,2023-08-06_08h12.20.991,HF_wild_card,2022.2.4,Win32,60.13590715,5cc29fbea548c00018afb7a0,64ce5acb97489d65b14ecc7a,64cf47c779638d2f13de6259,,,,,,,sngl,resources/DBN.BMP,resources/Empty.png,Door2,-0.296296296,-0.013888889,1,0,0,1.1044,optionLeft,20,11445,6,8,0,8,0,1,,,,,,,,,,,,,,,,,,,,,,,,,,,,,,,,,,,,,,,
,,,,,,,,2023-08-06_08h12.20.991,HF_wild_card,2022.2.4,Win32,60.13590715,5cc29fbea548c00018afb7a0,64ce5acb97489d65b14ecc7a,64cf47c779638d2f13de6259,,,,,,,sngl,resources/DB.BMP,resources/Empty.png,WildCard_NonEx,-0.348148134,-0.09629631,1,0,0,1.3639,optionLeft,45,11490,6,9,0,9,0,1,,,,,,,,,,,,,,,,,,,,,,,,,,,,,,,,,,,,,,,
,,,,,,,,2023-08-06_08h12.20.991,HF_wild_card,2022.2.4,Win32,60.13590715,5cc29fbea548c00018afb7a0,64ce5acb97489d65b14ecc7a,64cf47c779638d2f13de6259,,,,,,,sngl,resources/DP.BMP,resources/Empty.png,Door1,-0.357407393,-0.019444466,1,0,0,1.1968,optionLeft,30,11520,6,10,0,10,0,1,,,,,,,,,,,,,,,,,,,,,,,,,,,,,,,,,,,,,,,
,,,,,,,,2023-08-06_08h12.20.991,HF_wild_card,2022.2.4,Win32,60.13590715,5cc29fbea548c00018afb7a0,64ce5acb97489d65b14ecc7a,64cf47c779638d2f13de6259,,,,,,,decisionTrl,resources/DR.BMP,resources/DY.BMP,Door3,-0.311111097,-0.01203703,1,0,0,1.3204,optionLeft,70,11590,6,11,0,11,0,1,,,,,,,,,,,,,,,,,,,,,,,,,,,,,,,,,,,,,,,
,,,,,,,,2023-08-06_08h12.20.991,HF_wild_card,2022.2.4,Win32,60.13590715,5cc29fbea548c00018afb7a0,64ce5acb97489d65b14ecc7a,64cf47c779638d2f13de6259,,,,,,,decisionTrl,resources/DP.BMP,resources/DBN.BMP,Door1,-0.404629637,-0.047222243,1,0,0,1.1131,optionLeft,30,11620,6,12,0,12,0,1,,,,,,,,,,,,,,,,,,,,,,,,,,,,,,,,,,,,,,,
,,,,,,,,2023-08-06_08h12.20.991,HF_wild_card,2022.2.4,Win32,60.13590715,5cc29fbea548c00018afb7a0,64ce5acb97489d65b14ecc7a,64cf47c779638d2f13de6259,,,,,,,decisionTrl,resources/DR.BMP,resources/DY.BMP,Door3,-0.343518504,-0.017592607,1,0,0,2.32,optionLeft,70,11690,6,13,0,13,0,1,,,,,,,,,,,,,,,,,,,,,,,,,,,,,,,,,,,,,,,
,,,,,,,,2023-08-06_08h12.20.991,HF_wild_card,2022.2.4,Win32,60.13590715,5cc29fbea548c00018afb7a0,64ce5acb97489d65b14ecc7a,64cf47c779638d2f13de6259,,,,,,,ctch,resources/DP.BMP,resources/DY.BMP,Door1,-0.364814794,-0.046296296,1,0,0,1.1284,optionLeft,30,11720,6,14,0,14,0,1,,,,,,,,,,,,,,,,,,,,,,,,,,,,,,,,,,,,,,,
,,,,,,,,2023-08-06_08h12.20.991,HF_wild_card,2022.2.4,Win32,60.13590715,5cc29fbea548c00018afb7a0,64ce5acb97489d65b14ecc7a,64cf47c779638d2f13de6259,,,,,,,ctch,resources/DY.BMP,resources/DP.BMP,Door4,-0.251851824,-0.058333326,1,0,0,4.8246,optionLeft,80,11800,6,15,0,15,0,1,,,,,,,,,,,,,,,,,,,,,,,,,,,,,,,,,,,,,,,
,,,,,,,,2023-08-06_08h12.20.991,HF_wild_card,2022.2.4,Win32,60.13590715,5cc29fbea548c00018afb7a0,64ce5acb97489d65b14ecc7a,64cf47c779638d2f13de6259,,,,,,,ctch,resources/DBN.BMP,resources/DR.BMP,Door3,0.390740712,0,1,0,0,3.6097,optionRight,70,11870,6,16,0,16,0,1,,,,,,,,,,,,,,,,,,,,,,,,,,,,,,,,,,,,,,,
,,,,,,,,2023-08-06_08h12.20.991,HF_wild_card,2022.2.4,Win32,60.13590715,5cc29fbea548c00018afb7a0,64ce5acb97489d65b14ecc7a,64cf47c779638d2f13de6259,,,,,,,decisionTrl,resources/DY.BMP,resources/DB.BMP,Door4,-0.25462963,-0.017592607,1,0,0,8.5867,optionLeft,80,11950,6,17,0,17,0,1,,,,,,,,,,,,,,,,,,,,,,,,,,,,,,,,,,,,,,,
,,,,,,,,2023-08-06_08h12.20.991,HF_wild_card,2022.2.4,Win32,60.13590715,5cc29fbea548c00018afb7a0,64ce5acb97489d65b14ecc7a,64cf47c779638d2f13de6259,,,,,,,decisionTrl,resources/DP.BMP,resources/DB.BMP,WildCard_NonEx,0.402777778,0.076851845,1,0,0,1.6631,optionRight,45,11995,6,18,0,18,0,1,,,,,,,,,,,,,,,,,,,,,,,,,,,,,,,,,,,,,,,
,,,,,,,,2023-08-06_08h12.20.991,HF_wild_card,2022.2.4,Win32,60.13590715,5cc29fbea548c00018afb7a0,64ce5acb97489d65b14ecc7a,64cf47c779638d2f13de6259,,,,,,,decisionTrl,resources/DB.BMP,resources/DBN.BMP,WildCard_NonEx,-0.37962963,-0.014814836,1,0,0,12.0863,optionLeft,55,12050,6,19,0,19,0,1,,,,,,,,,,,,,,,,,,,,,,,,,,,,,,,,,,,,,,,
,,,,,,,,2023-08-06_08h12.20.991,HF_wild_card,2022.2.4,Win32,60.13590715,5cc29fbea548c00018afb7a0,64ce5acb97489d65b14ecc7a,64cf47c779638d2f13de6259,,,,,,,decisionTrl,resources/DBN.BMP,resources/DP.BMP,Door1,0.375,0.093518504,1,0,0,2.6606,optionRight,30,12080,6,20,0,20,0,1,,,,,,,,,,,,,,,,,,,,,,,,,,,,,,,,,,,,,,,
,,,,,,,,2023-08-06_08h12.20.991,HF_wild_card,2022.2.4,Win32,60.13590715,5cc29fbea548c00018afb7a0,64ce5acb97489d65b14ecc7a,64cf47c779638d2f13de6259,,,,,,,ctch,resources/DY.BMP,resources/DP.BMP,Door4,-0.313888868,-0.019444466,1,0,0,5.2239,optionLeft,60,12140,6,21,0,21,0,1,,,,,,,,,,,,,,,,,,,,,,,,,,,,,,,,,,,,,,,
,,,,,,,,2023-08-06_08h12.20.991,HF_wild_card,2022.2.4,Win32,60.13590715,5cc29fbea548c00018afb7a0,64ce5acb97489d65b14ecc7a,64cf47c779638d2f13de6259,,,,,,,decisionTrl,resources/DY.BMP,resources/DR.BMP,Door3,0.352777834,0.054629608,1,0,0,1.4119,optionRight,70,12210,6,22,0,22,0,1,,,,,,,,,,,,,,,,,,,,,,,,,,,,,,,,,,,,,,,
,,,,,,,,2023-08-06_08h12.20.991,HF_wild_card,2022.2.4,Win32,60.13590715,5cc29fbea548c00018afb7a0,64ce5acb97489d65b14ecc7a,64cf47c779638d2f13de6259,,,,,,,decisionTrl,resources/DY.BMP,resources/DR.BMP,Door3,0.354629658,0.043518526,1,0,0,11.969,optionRight,70,12280,6,23,0,23,0,1,,,,,,,,,,,,,,,,,,,,,,,,,,,,,,,,,,,,,,,
,,,,,,,,2023-08-06_08h12.20.991,HF_wild_card,2022.2.4,Win32,60.13590715,5cc29fbea548c00018afb7a0,64ce5acb97489d65b14ecc7a,64cf47c779638d2f13de6259,,,,,,,sngl,resources/DR.BMP,resources/Empty.png,Door3,-0.335185192,0,1,0,0,1.1365,optionLeft,70,12350,6,24,0,24,0,1,,,,,,,,,,,,,,,,,,,,,,,,,,,,,,,,,,,,,,,
,,,,,,,,2023-08-06_08h12.20.991,HF_wild_card,2022.2.4,Win32,60.13590715,5cc29fbea548c00018afb7a0,64ce5acb97489d65b14ecc7a,64cf47c779638d2f13de6259,,,,,,,sngl,resources/Empty.png,resources/DBN.BMP,Door2,0.366666723,0.081481474,1,0,0,1.0616,optionRight,40,12390,6,25,0,25,0,1,,,,,,,,,,,,,,,,,,,,,,,,,,,,,,,,,,,,,,,
,,,,,,,,2023-08-06_08h12.20.991,HF_wild_card,2022.2.4,Win32,60.13590715,5cc29fbea548c00018afb7a0,64ce5acb97489d65b14ecc7a,64cf47c779638d2f13de6259,,,,,,,decisionTrl,resources/DB.BMP,resources/DY.BMP,WildCard_NonEx,-0.330555563,-0.032407407,1,0,0,1.1036,optionLeft,55,12445,6,26,0,26,0,1,,,,,,,,,,,,,,,,,,,,,,,,,,,,,,,,,,,,,,,
,,,,,,,,2023-08-06_08h12.20.991,HF_wild_card,2022.2.4,Win32,60.13590715,5cc29fbea548c00018afb7a0,64ce5acb97489d65b14ecc7a,64cf47c779638d2f13de6259,,,,,,,decisionTrl,resources/DP.BMP,resources/DBN.BMP,Door1,-0.323148127,-0.029629637,1,0,0,1.1108,optionLeft,30,12475,6,27,0,27,0,1,,,,,,,,,,,,,,,,,,,,,,,,,,,,,,,,,,,,,,,
,,,,,,,,2023-08-06_08h12.20.991,HF_wild_card,2022.2.4,Win32,60.13590715,5cc29fbea548c00018afb7a0,64ce5acb97489d65b14ecc7a,64cf47c779638d2f13de6259,,,,,,,decisionTrl,resources/DB.BMP,resources/DR.BMP,Door3,0.337962963,0.033333319,1,0,0,1.4593,optionRight,70,12545,6,28,0,28,0,1,,,,,,,,,,,,,,,,,,,,,,,,,,,,,,,,,,,,,,,
,,,,,,,,2023-08-06_08h12.20.991,HF_wild_card,2022.2.4,Win32,60.13590715,5cc29fbea548c00018afb7a0,64ce5acb97489d65b14ecc7a,64cf47c779638d2f13de6259,,,,,,,sngl,resources/Empty.png,resources/DP.BMP,Door1,0.405555584,0.015740748,1,0,0,5.8573,optionRight,30,12575,6,29,0,29,0,1,,,,,,,,,,,,,,,,,,,,,,,,,,,,,,,,,,,,,,,
,,,,,,,,2023-08-06_08h12.20.991,HF_wild_card,2022.2.4,Win32,60.13590715,5cc29fbea548c00018afb7a0,64ce5acb97489d65b14ecc7a,64cf47c779638d2f13de6259,,,,,,,sngl,resources/Empty.png,resources/DB.BMP,WildCard_NonEx,0.293518561,0.002777771,1,0,0,1.1288,optionRight,45,12620,6,30,0,30,0,1,,,,,,,,,,,,,,,,,,,,,,,,,,,,,,,,,,,,,,,
,,,,,,,,2023-08-06_08h12.20.991,HF_wild_card,2022.2.4,Win32,60.13590715,5cc29fbea548c00018afb7a0,64ce5acb97489d65b14ecc7a,64cf47c779638d2f13de6259,,,,,,,decisionTrl,resources/DBN.BMP,resources/DP.BMP,Door1,0.315740797,0.001851859,1,0,0,1.7129,optionRight,30,12650,6,31,0,31,0,1,,,,,,,,,,,,,,,,,,,,,,,,,,,,,,,,,,,,,,,
,,,,,,,,2023-08-06_08h12.20.991,HF_wild_card,2022.2.4,Win32,60.13590715,5cc29fbea548c00018afb7a0,64ce5acb97489d65b14ecc7a,64cf47c779638d2f13de6259,,,,,,,ctch,resources/DR.BMP,resources/DBN.BMP,Door3,-0.357407393,-0.014814836,1,0,0,1.2121,optionLeft,70,12720,6,32,0,32,0,1,,,,,,,,,,,,,,,,,,,,,,,,,,,,,,,,,,,,,,,
,,,,,,,,2023-08-06_08h12.20.991,HF_wild_card,2022.2.4,Win32,60.13590715,5cc29fbea548c00018afb7a0,64ce5acb97489d65b14ecc7a,64cf47c779638d2f13de6259,,,,,,,decisionTrl,resources/DBN.BMP,resources/DB.BMP,WildCard_NonEx,0.339814787,0.032407407,1,0,0,1.7777,optionRight,55,12775,6,33,0,33,0,1,,,,,,,,,,,,,,,,,,,,,,,,,,,,,,,,,,,,,,,
,,,,,,,,2023-08-06_08h12.20.991,HF_wild_card,2022.2.4,Win32,60.13590715,5cc29fbea548c00018afb7a0,64ce5acb97489d65b14ecc7a,64cf47c779638d2f13de6259,,,,,,,decisionTrl,resources/DY.BMP,resources/DR.BMP,Door3,0.342592593,0.010185171,1,0,0,1.2783,optionRight,70,12845,6,34,0,34,0,1,,,,,,,,,,,,,,,,,,,,,,,,,,,,,,,,,,,,,,,
,,,,,,,,2023-08-06_08h12.20.991,HF_wild_card,2022.2.4,Win32,60.13590715,5cc29fbea548c00018afb7a0,64ce5acb97489d65b14ecc7a,64cf47c779638d2f13de6259,,,,,,,decisionTrl,resources/DR.BMP,resources/DY.BMP,Door3,-0.354629623,-0.027777778,1,0,0,6.6737,optionLeft,70,12915,6,35,0,35,0,1,,,,,,,,,,,,,,,,,,,,,,,,,,,,,,,,,,,,,,,
,,,,,,,,2023-08-06_08h12.20.991,HF_wild_card,2022.2.4,Win32,60.13590715,5cc29fbea548c00018afb7a0,64ce5acb97489d65b14ecc7a,64cf47c779638d2f13de6259,,,,,,,decisionTrl,resources/DR.BMP,resources/DY.BMP,Door3,-0.320370356,-0.028703725,1,0,0,3.2446,optionLeft,70,12985,6,36,0,36,0,1,,,,,,,,,,,,,,,,,,,,,,,,,,,,,,,,,,,,,,,
,,,,,,,,2023-08-06_08h12.20.991,HF_wild_card,2022.2.4,Win32,60.13590715,5cc29fbea548c00018afb7a0,64ce5acb97489d65b14ecc7a,64cf47c779638d2f13de6259,,,,,,,ctch,resources/DP.BMP,resources/DY.BMP,Door1,-0.322222215,-0.061111132,1,0,0,1.2615,optionLeft,30,13015,6,37,0,37,0,1,,,,,,,,,,,,,,,,,,,,,,,,,,,,,,,,,,,,,,,
,,,,,,,,2023-08-06_08h12.20.991,HF_wild_card,2022.2.4,Win32,60.13590715,5cc29fbea548c00018afb7a0,64ce5acb97489d65b14ecc7a,64cf47c779638d2f13de6259,,,,,,,sngl,resources/Empty.png,resources/DY.BMP,Door4,0.397222307,0,1,0,0,0.954,optionRight,80,13095,6,38,0,38,0,1,,,,,,,,,,,,,,,,,,,,,,,,,,,,,,,,,,,,,,,
,,,,,,,,2023-08-06_08h12.20.991,HF_wild_card,2022.2.4,Win32,60.13590715,5cc29fbea548c00018afb7a0,64ce5acb97489d65b14ecc7a,64cf47c779638d2f13de6259,,,,,,,decisionTrl,resources/DB.BMP,resources/DP.BMP,WildCard_NonEx,-0.328703704,-0.047222243,1,0,0,1.1868,optionLeft,45,13140,6,39,0,39,0,1,,,,,,,,,,,,,,,,,,,,,,,,,,,,,,,,,,,,,,,
,,,,,,,,2023-08-06_08h12.20.991,HF_wild_card,2022.2.4,Win32,60.13590715,5cc29fbea548c00018afb7a0,64ce5acb97489d65b14ecc7a,64cf47c779638d2f13de6259,,,,,,,decisionTrl,resources/DBN.BMP,resources/DP.BMP,Door2,-0.318518497,-0.000925947,1,0,0,1.1112,optionLeft,40,13180,6,40,0,40,0,1,,,,,,,,,,,,,,,,,,,,,,,,,,,,,,,,,,,,,,,
,,,,,,,,2023-08-06_08h12.20.991,HF_wild_card,2022.2.4,Win32,60.13590715,5cc29fbea548c00018afb7a0,64ce5acb97489d65b14ecc7a,64cf47c779638d2f13de6259,,,,,,,ctch,resources/DBN.BMP,resources/DR.BMP,Door3,0.32222225,0.000925912,1,0,0,1.1367,optionRight,70,13250,6,41,0,41,0,1,,,,,,,,,,,,,,,,,,,,,,,,,,,,,,,,,,,,,,,
,,,,,,,,2023-08-06_08h12.20.991,HF_wild_card,2022.2.4,Win32,60.13590715,5cc29fbea548c00018afb7a0,64ce5acb97489d65b14ecc7a,64cf47c779638d2f13de6259,,,,,,,decisionTrl,resources/DR.BMP,resources/DB.BMP,Door3,-0.285185143,-0.032407407,1,0,0,1.1106,optionLeft,70,13320,6,42,0,42,0,1,,,,,,,,,,,,,,,,,,,,,,,,,,,,,,,,,,,,,,,
,,,,,,,,2023-08-06_08h12.20.991,HF_wild_card,2022.2.4,Win32,60.13590715,5cc29fbea548c00018afb7a0,64ce5acb97489d65b14ecc7a,64cf47c779638d2f13de6259,,,,,,,decisionTrl,resources/DP.BMP,resources/DBN.BMP,Door2,0.290740755,0.030555548,1,0,0,1.6383,optionRight,40,13360,6,43,0,43,0,1,,,,,,,,,,,,,,,,,,,,,,,,,,,,,,,,,,,,,,,
,,,,,,,,2023-08-06_08h12.20.991,HF_wild_card,2022.2.4,Win32,60.13590715,5cc29fbea548c00018afb7a0,64ce5acb97489d65b14ecc7a,64cf47c779638d2f13de6259,,,,,,,,,,,,,,,,,,,,,,,,,,5,0,5,0,1,,,,,,,,,,,,,,,,,,,,,,,,,,,,,,,,,,
,,,,,,,,2023-08-06_08h12.20.991,HF_wild_card,2022.2.4,Win32,60.13590715,5cc29fbea548c00018afb7a0,64ce5acb97489d65b14ecc7a,64cf47c779638d2f13de6259,,,,,,,decisionTrl,resources/DP.BMP,resources/DBN.BMP,Door2,0.262962977,-0.019444466,1,0,0,2.9047,optionRight,40,13400,7,0,0,0,0,1,,,,,,,,,,,,,,,,,,,,,,,,,,,,,,,,,,,,,,,
,,,,,,,,2023-08-06_08h12.20.991,HF_wild_card,2022.2.4,Win32,60.13590715,5cc29fbea548c00018afb7a0,64ce5acb97489d65b14ecc7a,64cf47c779638d2f13de6259,,,,,,,decisionTrl,resources/DY.BMP,resources/DR.BMP,Door3,0.260185171,0,1,0,0,1.2136,optionRight,70,13470,7,1,0,1,0,1,,,,,,,,,,,,,,,,,,,,,,,,,,,,,,,,,,,,,,,
,,,,,,,,2023-08-06_08h12.20.991,HF_wild_card,2022.2.4,Win32,60.13590715,5cc29fbea548c00018afb7a0,64ce5acb97489d65b14ecc7a,64cf47c779638d2f13de6259,,,,,,,ctch,resources/DBN.BMP,resources/DR.BMP,Door3,0.268518519,0.056481467,1,0,0,1.3467,optionRight,70,13540,7,2,0,2,0,1,,,,,,,,,,,,,,,,,,,,,,,,,,,,,,,,,,,,,,,
,,,,,,,,2023-08-06_08h12.20.991,HF_wild_card,2022.2.4,Win32,60.13590715,5cc29fbea548c00018afb7a0,64ce5acb97489d65b14ecc7a,64cf47c779638d2f13de6259,,,,,,,ctch,resources/DY.BMP,resources/DP.BMP,Door4,-0.287962949,-0.000925947,1,0,0,2.3705,optionLeft,80,13620,7,3,0,3,0,1,,,,,,,,,,,,,,,,,,,,,,,,,,,,,,,,,,,,,,,
,,,,,,,,2023-08-06_08h12.20.991,HF_wild_card,2022.2.4,Win32,60.13590715,5cc29fbea548c00018afb7a0,64ce5acb97489d65b14ecc7a,64cf47c779638d2f13de6259,,,,,,,ctch,resources/DR.BMP,resources/DBN.BMP,Door3,-0.328703704,-0.025000007,1,0,0,1.2051,optionLeft,70,13690,7,4,0,4,0,1,,,,,,,,,,,,,,,,,,,,,,,,,,,,,,,,,,,,,,,
,,,,,,,,2023-08-06_08h12.20.991,HF_wild_card,2022.2.4,Win32,60.13590715,5cc29fbea548c00018afb7a0,64ce5acb97489d65b14ecc7a,64cf47c779638d2f13de6259,,,,,,,ctch,resources/DY.BMP,resources/DP.BMP,Door4,-0.270370342,0.00462963,1,0,0,1.7618,optionLeft,60,13750,7,5,0,5,0,1,,,,,,,,,,,,,,,,,,,,,,,,,,,,,,,,,,,,,,,
,,,,,,,,2023-08-06_08h12.20.991,HF_wild_card,2022.2.4,Win32,60.13590715,5cc29fbea548c00018afb7a0,64ce5acb97489d65b14ecc7a,64cf47c779638d2f13de6259,,,,,,,decisionTrl,resources/DR.BMP,resources/DY.BMP,Door3,-0.323148127,0,1,0,0,1.2892,optionLeft,70,13820,7,6,0,6,0,1,,,,,,,,,,,,,,,,,,,,,,,,,,,,,,,,,,,,,,,
,,,,,,,,2023-08-06_08h12.20.991,HF_wild_card,2022.2.4,Win32,60.13590715,5cc29fbea548c00018afb7a0,64ce5acb97489d65b14ecc7a,64cf47c779638d2f13de6259,,,,,,,decisionTrl,resources/DBN.BMP,resources/DP.BMP,Door2,-0.295370384,0.006481489,1,0,0,1.7956,optionLeft,20,13840,7,7,0,7,0,1,,,,,,,,,,,,,,,,,,,,,,,,,,,,,,,,,,,,,,,
,,,,,,,,2023-08-06_08h12.20.991,HF_wild_card,2022.2.4,Win32,60.13590715,5cc29fbea548c00018afb7a0,64ce5acb97489d65b14ecc7a,64cf47c779638d2f13de6259,,,,,,,ctch,resources/DY.BMP,resources/DP.BMP,Door4,-0.256481453,-0.025000007,1,0,0,1.6802,optionLeft,80,13920,7,8,0,8,0,1,,,,,,,,,,,,,,,,,,,,,,,,,,,,,,,,,,,,,,,
,,,,,,,,2023-08-06_08h12.20.991,HF_wild_card,2022.2.4,Win32,60.13590715,5cc29fbea548c00018afb7a0,64ce5acb97489d65b14ecc7a,64cf47c779638d2f13de6259,,,,,,,decisionTrl,resources/DR.BMP,resources/DY.BMP,Door3,-0.39166666,-0.066666674,1,0,0,1.3966,optionLeft,70,13990,7,9,0,9,0,1,,,,,,,,,,,,,,,,,,,,,,,,,,,,,,,,,,,,,,,
,,,,,,,,2023-08-06_08h12.20.991,HF_wild_card,2022.2.4,Win32,60.13590715,5cc29fbea548c00018afb7a0,64ce5acb97489d65b14ecc7a,64cf47c779638d2f13de6259,,,,,,,decisionTrl,resources/DY.BMP,resources/DR.BMP,Door3,0.41851849,0.01203703,1,0,0,1.3883,optionRight,70,14060,7,10,0,10,0,1,,,,,,,,,,,,,,,,,,,,,,,,,,,,,,,,,,,,,,,
,,,,,,,,2023-08-06_08h12.20.991,HF_wild_card,2022.2.4,Win32,60.13590715,5cc29fbea548c00018afb7a0,64ce5acb97489d65b14ecc7a,64cf47c779638d2f13de6259,,,,,,,decisionTrl,resources/DBN.BMP,resources/DP.BMP,Door2,-0.253703718,-0.01203703,1,0,0,1.8294,optionLeft,40,14100,7,11,0,11,0,1,,,,,,,,,,,,,,,,,,,,,,,,,,,,,,,,,,,,,,,
,,,,,,,,2023-08-06_08h12.20.991,HF_wild_card,2022.2.4,Win32,60.13590715,5cc29fbea548c00018afb7a0,64ce5acb97489d65b14ecc7a,64cf47c779638d2f13de6259,,,,,,,decisionTrl,resources/DBN.BMP,resources/DP.BMP,Door2,-0.275925884,-0.012962977,1,0,0,1.5802,optionLeft,20,14120,7,12,0,12,0,1,,,,,,,,,,,,,,,,,,,,,,,,,,,,,,,,,,,,,,,
,,,,,,,,2023-08-06_08h12.20.991,HF_wild_card,2022.2.4,Win32,60.13590715,5cc29fbea548c00018afb7a0,64ce5acb97489d65b14ecc7a,64cf47c779638d2f13de6259,,,,,,,decisionTrl,resources/DP.BMP,resources/DBN.BMP,Door2,0.344444416,0.091666645,1,0,0,2.7458,optionRight,40,14160,7,13,0,13,0,1,,,,,,,,,,,,,,,,,,,,,,,,,,,,,,,,,,,,,,,
,,,,,,,,2023-08-06_08h12.20.991,HF_wild_card,2022.2.4,Win32,60.13590715,5cc29fbea548c00018afb7a0,64ce5acb97489d65b14ecc7a,64cf47c779638d2f13de6259,,,,,,,decisionTrl,resources/DR.BMP,resources/DY.BMP,Door3,-0.334259245,-0.038888896,1,0,0,1.4465,optionLeft,70,14230,7,14,0,14,0,1,,,,,,,,,,,,,,,,,,,,,,,,,,,,,,,,,,,,,,,
,,,,,,,,2023-08-06_08h12.20.991,HF_wild_card,2022.2.4,Win32,60.13590715,5cc29fbea548c00018afb7a0,64ce5acb97489d65b14ecc7a,64cf47c779638d2f13de6259,,,,,,,decisionTrl,resources/DP.BMP,resources/DBN.BMP,Door2,0.351851852,0.072222215,1,0,0,1.3145,optionRight,40,14270,7,15,0,15,0,1,,,,,,,,,,,,,,,,,,,,,,,,,,,,,,,,,,,,,,,
,,,,,,,,2023-08-06_08h12.20.991,HF_wild_card,2022.2.4,Win32,60.13590715,5cc29fbea548c00018afb7a0,64ce5acb97489d65b14ecc7a,64cf47c779638d2f13de6259,,,,,,,decisionTrl,resources/DBN.BMP,resources/DP.BMP,Door2,-0.307407414,-0.040740755,1,0,0,1.4298,optionLeft,20,14290,7,16,0,16,0,1,,,,,,,,,,,,,,,,,,,,,,,,,,,,,,,,,,,,,,,
,,,,,,,,2023-08-06_08h12.20.991,HF_wild_card,2022.2.4,Win32,60.13590715,5cc29fbea548c00018afb7a0,64ce5acb97489d65b14ecc7a,64cf47c779638d2f13de6259,,,,,,,ctch,resources/DBN.BMP,resources/DR.BMP,Door3,0.272222236,0.033333319,1,0,0,1.2148,optionRight,70,14360,7,17,0,17,0,1,,,,,,,,,,,,,,,,,,,,,,,,,,,,,,,,,,,,,,,
,,,,,,,,2023-08-06_08h12.20.991,HF_wild_card,2022.2.4,Win32,60.13590715,5cc29fbea548c00018afb7a0,64ce5acb97489d65b14ecc7a,64cf47c779638d2f13de6259,,,,,,,decisionTrl,resources/DR.BMP,resources/DY.BMP,Door3,-0.368518511,-0.049074067,1,0,0,6.4417,optionLeft,70,14430,7,18,0,18,0,1,,,,,,,,,,,,,,,,,,,,,,,,,,,,,,,,,,,,,,,
,,,,,,,,2023-08-06_08h12.20.991,HF_wild_card,2022.2.4,Win32,60.13590715,5cc29fbea548c00018afb7a0,64ce5acb97489d65b14ecc7a,64cf47c779638d2f13de6259,,,,,,,decisionTrl,resources/DY.BMP,resources/DR.BMP,Door3,0.381481453,-0.014814836,1,0,0,5.1263,optionRight,70,14500,7,19,0,19,0,1,,,,,,,,,,,,,,,,,,,,,,,,,,,,,,,,,,,,,,,
,,,,,,,,2023-08-06_08h12.20.991,HF_wild_card,2022.2.4,Win32,60.13590715,5cc29fbea548c00018afb7a0,64ce5acb97489d65b14ecc7a,64cf47c779638d2f13de6259,,,,,,,ctch,resources/DP.BMP,resources/DY.BMP,Door4,0.344444416,0.037962949,1,0,0,2.7217,optionRight,80,14580,7,20,0,20,0,1,,,,,,,,,,,,,,,,,,,,,,,,,,,,,,,,,,,,,,,
,,,,,,,,2023-08-06_08h12.20.991,HF_wild_card,2022.2.4,Win32,60.13590715,5cc29fbea548c00018afb7a0,64ce5acb97489d65b14ecc7a,64cf47c779638d2f13de6259,,,,,,,ctch,resources/DP.BMP,resources/DY.BMP,Door4,0.268518519,0,1,0,0,1.2138,optionRight,60,14640,7,21,0,21,0,1,,,,,,,,,,,,,,,,,,,,,,,,,,,,,,,,,,,,,,,
,,,,,,,,2023-08-06_08h12.20.991,HF_wild_card,2022.2.4,Win32,60.13590715,5cc29fbea548c00018afb7a0,64ce5acb97489d65b14ecc7a,64cf47c779638d2f13de6259,,,,,,,ctch,resources/DR.BMP,resources/DBN.BMP,Door3,-0.385185171,-0.047222243,1,0,0,1.5459,optionLeft,70,14710,7,22,0,22,0,1,,,,,,,,,,,,,,,,,,,,,,,,,,,,,,,,,,,,,,,
,,,,,,,,2023-08-06_08h12.20.991,HF_wild_card,2022.2.4,Win32,60.13590715,5cc29fbea548c00018afb7a0,64ce5acb97489d65b14ecc7a,64cf47c779638d2f13de6259,,,,,,,decisionTrl,resources/DP.BMP,resources/DBN.BMP,Door2,0.492592564,-0.022222236,1,0,0,2.0471,optionRight,20,14730,7,23,0,23,0,1,,,,,,,,,,,,,,,,,,,,,,,,,,,,,,,,,,,,,,,
,,,,,,,,2023-08-06_08h12.20.991,HF_wild_card,2022.2.4,Win32,60.13590715,5cc29fbea548c00018afb7a0,64ce5acb97489d65b14ecc7a,64cf47c779638d2f13de6259,,,,,,,decisionTrl,resources/DY.BMP,resources/DR.BMP,Door4,-0.300925926,-0.020370377,1,0,0,1.4636,optionLeft,60,14790,7,24,0,24,0,1,,,,,,,,,,,,,,,,,,,,,,,,,,,,,,,,,,,,,,,
,,,,,,,,2023-08-06_08h12.20.991,HF_wild_card,2022.2.4,Win32,60.13590715,5cc29fbea548c00018afb7a0,64ce5acb97489d65b14ecc7a,64cf47c779638d2f13de6259,,,,,,,decisionTrl,resources/DY.BMP,resources/DR.BMP,Door3,0.29814812,0.015740748,1,0,0,1.9146,optionRight,70,14860,7,25,0,25,0,1,,,,,,,,,,,,,,,,,,,,,,,,,,,,,,,,,,,,,,,
,,,,,,,,2023-08-06_08h12.20.991,HF_wild_card,2022.2.4,Win32,60.13590715,5cc29fbea548c00018afb7a0,64ce5acb97489d65b14ecc7a,64cf47c779638d2f13de6259,,,,,,,ctch,resources/DP.BMP,resources/DY.BMP,Door4,0.398148148,0.078703704,1,0,0,3.1944,optionRight,60,14920,7,26,0,26,0,1,,,,,,,,,,,,,,,,,,,,,,,,,,,,,,,,,,,,,,,
,,,,,,,,2023-08-06_08h12.20.991,HF_wild_card,2022.2.4,Win32,60.13590715,5cc29fbea548c00018afb7a0,64ce5acb97489d65b14ecc7a,64cf47c779638d2f13de6259,,,,,,,decisionTrl,resources/DP.BMP,resources/DBN.BMP,Door2,0.385185242,0.099074081,1,0,0,2.0745,optionRight,40,14960,7,27,0,27,0,1,,,,,,,,,,,,,,,,,,,,,,,,,,,,,,,,,,,,,,,
,,,,,,,,2023-08-06_08h12.20.991,HF_wild_card,2022.2.4,Win32,60.13590715,5cc29fbea548c00018afb7a0,64ce5acb97489d65b14ecc7a,64cf47c779638d2f13de6259,,,,,,,decisionTrl,resources/DBN.BMP,resources/DP.BMP,Door2,-0.344444452,-0.043518526,1,0,0,3.2704,optionLeft,40,15000,7,28,0,28,0,1,,,,,,,,,,,,,,,,,,,,,,,,,,,,,,,,,,,,,,,
,,,,,,,,2023-08-06_08h12.20.991,HF_wild_card,2022.2.4,Win32,60.13590715,5cc29fbea548c00018afb7a0,64ce5acb97489d65b14ecc7a,64cf47c779638d2f13de6259,,,,,,,decisionTrl,resources/DR.BMP,resources/DY.BMP,Door3,-0.419444437,-0.029629637,1,0,0,1.5638,optionLeft,70,15070,7,29,0,29,0,1,,,,,,,,,,,,,,,,,,,,,,,,,,,,,,,,,,,,,,,
,,,,,,,,2023-08-06_08h12.20.991,HF_wild_card,2022.2.4,Win32,60.13590715,5cc29fbea548c00018afb7a0,64ce5acb97489d65b14ecc7a,64cf47c779638d2f13de6259,,,,,,,decisionTrl,resources/DY.BMP,resources/DR.BMP,Door3,0.280555584,0.071296303,1,0,0,1.6051,optionRight,70,15140,7,30,0,30,0,1,,,,,,,,,,,,,,,,,,,,,,,,,,,,,,,,,,,,,,,
,,,,,,,,2023-08-06_08h12.20.991,HF_wild_card,2022.2.4,Win32,60.13590715,5cc29fbea548c00018afb7a0,64ce5acb97489d65b14ecc7a,64cf47c779638d2f13de6259,,,,,,,decisionTrl,resources/DR.BMP,resources/DY.BMP,Door3,-0.308333326,-0.022222236,1,0,0,1.7535,optionLeft,70,15210,7,31,0,31,0,1,,,,,,,,,,,,,,,,,,,,,,,,,,,,,,,,,,,,,,,
,,,,,,,,2023-08-06_08h12.20.991,HF_wild_card,2022.2.4,Win32,60.13590715,5cc29fbea548c00018afb7a0,64ce5acb97489d65b14ecc7a,64cf47c779638d2f13de6259,,,,,,,ctch,resources/DBN.BMP,resources/DR.BMP,Door3,0.419444473,0.044444437,1,0,0,1.2464,optionRight,70,15280,7,32,0,32,0,1,,,,,,,,,,,,,,,,,,,,,,,,,,,,,,,,,,,,,,,
,,,,,,,,2023-08-06_08h12.20.991,HF_wild_card,2022.2.4,Win32,60.13590715,5cc29fbea548c00018afb7a0,64ce5acb97489d65b14ecc7a,64cf47c779638d2f13de6259,,,,,,,decisionTrl,resources/DBN.BMP,resources/DP.BMP,Door2,-0.304629608,-0.025925919,1,0,0,2.1368,optionLeft,20,15300,7,33,0,33,0,1,,,,,,,,,,,,,,,,,,,,,,,,,,,,,,,,,,,,,,,
,,,,,,,,2023-08-06_08h12.20.991,HF_wild_card,2022.2.4,Win32,60.13590715,5cc29fbea548c00018afb7a0,64ce5acb97489d65b14ecc7a,64cf47c779638d2f13de6259,,,,,,,decisionTrl,resources/DP.BMP,resources/DBN.BMP,Door2,0.286111125,-0.001851859,1,0,0,1.8957,optionRight,20,15320,7,34,0,34,0,1,,,,,,,,,,,,,,,,,,,,,,,,,,,,,,,,,,,,,,,
,,,,,,,,2023-08-06_08h12.20.991,HF_wild_card,2022.2.4,Win32,60.13590715,5cc29fbea548c00018afb7a0,64ce5acb97489d65b14ecc7a,64cf47c779638d2f13de6259,,,,,,,ctch,resources/DR.BMP,resources/DBN.BMP,Door3,-0.389814801,-0.053703697,1,0,0,1.2371,optionLeft,70,15390,7,35,0,35,0,1,,,,,,,,,,,,,,,,,,,,,,,,,,,,,,,,,,,,,,,
,,,,,,,,2023-08-06_08h12.20.991,HF_wild_card,2022.2.4,Win32,60.13590715,5cc29fbea548c00018afb7a0,64ce5acb97489d65b14ecc7a,64cf47c779638d2f13de6259,,,,,,,,,,,,,,,,,,,,,,,,,,6,0,6,0,1,,,,,,,,,,,,,,,,,,,,,,,,,,,,,,,,,,
,,,,,,,,2023-08-06_08h12.20.991,HF_wild_card,2022.2.4,Win32,60.13590715,5cc29fbea548c00018afb7a0,64ce5acb97489d65b14ecc7a,64cf47c779638d2f13de6259,,,,,,,,,,,,,,,,,,,,,,,,,,,,,,,3,,,,,,,,,,,,,,,,,,,,,,,,,,,,,,,,,
,,,,,,,,2023-08-06_08h12.20.991,HF_wild_card,2022.2.4,Win32,60.13590715,5cc29fbea548c00018afb7a0,64ce5acb97489d65b14ecc7a,64cf47c779638d2f13de6259,,,,,,,,,,,,,,,,,,,,,,,,,,,,,,,,,,,,,,,,,,,,,,,,,,,,,,,,,,,,,,,,
,,,,,,,,2023-08-06_08h12.20.991,HF_wild_card,2022.2.4,Win32,60.13590715,5cc29fbea548c00018afb7a0,64ce5acb97489d65b14ecc7a,64cf47c779638d2f13de6259,,,,,,,,,,,,,,,,,,,,,,,,,,,,,,,,55,Door3,resources/DR.BMP,0,0,0,0,1,,,,,,,,,,,,,,,,,,,,,,,,,
,,,,,,,,2023-08-06_08h12.20.991,HF_wild_card,2022.2.4,Win32,60.13590715,5cc29fbea548c00018afb7a0,64ce5acb97489d65b14ecc7a,64cf47c779638d2f13de6259,,,,,,,,,,,,,,,,,,,,,,,,,,,,,,,,30,WC_extreme,resources/DG.BMP,1,0,1,0,1,,,,,,,,,,,,,,,,,,,,,,,,,
,,,,,,,,2023-08-06_08h12.20.991,HF_wild_card,2022.2.4,Win32,60.13590715,5cc29fbea548c00018afb7a0,64ce5acb97489d65b14ecc7a,64cf47c779638d2f13de6259,,,,,,,,,,,,,,,,,,,,,,,,,,,,,,,,40,Door2,resources/DBN.BMP,2,0,2,0,1,,,,,,,,,,,,,,,,,,,,,,,,,
,,,,,,,,2023-08-06_08h12.20.991,HF_wild_card,2022.2.4,Win32,60.13590715,5cc29fbea548c00018afb7a0,64ce5acb97489d65b14ecc7a,64cf47c779638d2f13de6259,,,,,,,,,,,,,,,,,,,,,,,,,,,,,,,,80,Door4,resources/DY.BMP,3,0,3,0,1,,,,,,,,,,,,,,,,,,,,,,,,,
,,,,,,,,2023-08-06_08h12.20.991,HF_wild_card,2022.2.4,Win32,60.13590715,5cc29fbea548c00018afb7a0,64ce5acb97489d65b14ecc7a,64cf47c779638d2f13de6259,,,,,,,,,,,,,,,,,,,,,,,,,,,,,,,,30,Door1,resources/DP.BMP,4,0,4,0,1,,,,,,,,,,,,,,,,,,,,,,,,,
,,,,,,,,2023-08-06_08h12.20.991,HF_wild_card,2022.2.4,Win32,60.13590715,5cc29fbea548c00018afb7a0,64ce5acb97489d65b14ecc7a,64cf47c779638d2f13de6259,,,,,,,,,,,,,,,,,,,,,,,,,,,,,,,,55,WC_nonExtreme,resources/DB.BMP,5,0,5,0,1,,,,,,,,,,,,,,,,,,,,,,,,,
,,,,,,,,2023-08-06_08h12.20.991,HF_wild_card,2022.2.4,Win32,60.13590715,5cc29fbea548c00018afb7a0,64ce5acb97489d65b14ecc7a,64cf47c779638d2f13de6259,,,,,,,,,,,,,,,,,,,,,,,,,,,,,,,,,,,,,,,,,,,,,,,,,,,,,,,,,,,,,,,,
