Condition,Low fixed image (Door1),Low risky image (Door2),High fixed image (Door3),High risky image (Door4),Extreme Wild Card,NonExtreme Wild Card,,date,expName,psychopyVersion,OS,frameRate,PROLIFIC_PID,STUDY_ID,SESSION_ID,mouse_2.x,mouse_2.y,mouse_2.leftButton,mouse_2.midButton,mouse_2.rightButton,mouse_2.clicked_name,Trial Type,Left Option Image,Right Option Image,Chosen Door,mouse.x,mouse.y,mouse.leftButton,mouse.midButton,mouse.rightButton,mouse.time,mouse.clicked_name,Feedback,Cumulative Reward,Block,trial.thisRepN,trial.thisTrialN,trial.thisN,trial.thisIndex,trial.ran,blocks.thisRepN,blocks.thisTrialN,blocks.thisN,blocks.thisIndex,blocks.ran,Money conversion,First Outcome Reported,Shown Door (First Outcome),Displayed Image (First Outcome),outcomes.thisRepN,outcomes.thisTrialN,outcomes.thisN,outcomes.thisIndex,outcomes.ran,judgments.thisRepN,judgments.thisTrialN,judgments.thisN,judgments.thisIndex,judgments.ran,freqMouse.x,freqMouse.y,freqMouse.leftButton,freqMouse.midButton,freqMouse.rightButton,freqMouse.clicked_name,trials.thisRepN,trials.thisTrialN,trials.thisN,trials.thisIndex,trials.ran,FQJ for first outcome,FQJ for second outcome,Shown Door,Displayed Image,judgBlock.thisRepN,judgBlock.thisTrialN,judgBlock.thisN,judgBlock.thisIndex,judgBlock.ran
0,resources/DB.BMP,resources/DG.BMP,resources/DR.BMP,resources/DP.BMP,resources/DBN.BMP,resources/DY.BMP,59ba6e9162b30d0001b7acab,2023-08-16_09h03.42.050,HF_wild_card,2022.2.4,Win32,60.0024001,59ba6e9162b30d0001b7acab,64d2fd46c836a06233681665,64dc7e031e71c1d50c779dc3,,,,,,,,,,,,,,,,,,,,,,,,,,,,,,,,,,,,,,,,,,,,,,,,,,,,,,,,,,,,,,,,
,,,,,,,59ba6e9162b30d0001b7acab,2023-08-16_09h03.42.050,HF_wild_card,2022.2.4,Win32,60.0024001,59ba6e9162b30d0001b7acab,64d2fd46c836a06233681665,64dc7e031e71c1d50c779dc3,0.002604167,-0.424479167,1,0,0,agree,,,,,,,,,,,,,,,,,,,,,,,,,,,,,,,,,,,,,,,,,,,,,,,,,,,,,,,,,,
,,,,,,,59ba6e9162b30d0001b7acab,2023-08-16_09h03.42.050,HF_wild_card,2022.2.4,Win32,60.0024001,59ba6e9162b30d0001b7acab,64d2fd46c836a06233681665,64dc7e031e71c1d50c779dc3,,,,,,,,,,,,,,,,,,,,,,,,,,,,,,,,,,,,,,,,,,,,,,,,,,,,,,,,,,,,,,,,
,,,,,,,59ba6e9162b30d0001b7acab,2023-08-16_09h03.42.050,HF_wild_card,2022.2.4,Win32,60.0024001,59ba6e9162b30d0001b7acab,64d2fd46c836a06233681665,64dc7e031e71c1d50c779dc3,,,,,,,decisionTrl,resources/DR.BMP,resources/DP.BMP,Door3,-0.350260417,-0.102864583,1,0,0,2.7945,optionLeft,70,70,1,0,0,0,0,1,,,,,,,,,,,,,,,,,,,,,,,,,,,,,,,,,,,,,,,
,,,,,,,59ba6e9162b30d0001b7acab,2023-08-16_09h03.42.050,HF_wild_card,2022.2.4,Win32,60.0024001,59ba6e9162b30d0001b7acab,64d2fd46c836a06233681665,64dc7e031e71c1d50c779dc3,,,,,,,decisionTrl,resources/DB.BMP,resources/DG.BMP,Door2,0.420572917,-0.010416667,1,0,0,2.4149,optionRight,40,110,1,1,0,1,0,1,,,,,,,,,,,,,,,,,,,,,,,,,,,,,,,,,,,,,,,
,,,,,,,59ba6e9162b30d0001b7acab,2023-08-16_09h03.42.050,HF_wild_card,2022.2.4,Win32,60.0024001,59ba6e9162b30d0001b7acab,64d2fd46c836a06233681665,64dc7e031e71c1d50c779dc3,,,,,,,ctch,resources/DP.BMP,resources/DB.BMP,Door4,-0.373697917,-0.071614583,1,0,0,2.1762,optionLeft,80,190,1,2,0,2,0,1,,,,,,,,,,,,,,,,,,,,,,,,,,,,,,,,,,,,,,,
,,,,,,,59ba6e9162b30d0001b7acab,2023-08-16_09h03.42.050,HF_wild_card,2022.2.4,Win32,60.0024001,59ba6e9162b30d0001b7acab,64d2fd46c836a06233681665,64dc7e031e71c1d50c779dc3,,,,,,,ctch,resources/DP.BMP,resources/DB.BMP,Door4,-0.341145833,-0.083333333,1,0,0,2.1616,optionLeft,80,270,1,3,0,3,0,1,,,,,,,,,,,,,,,,,,,,,,,,,,,,,,,,,,,,,,,
,,,,,,,59ba6e9162b30d0001b7acab,2023-08-16_09h03.42.050,HF_wild_card,2022.2.4,Win32,60.0024001,59ba6e9162b30d0001b7acab,64d2fd46c836a06233681665,64dc7e031e71c1d50c779dc3,,,,,,,decisionTrl,resources/DBN.BMP,resources/DB.BMP,WildCard_Ex,-0.329427083,0,1,0,0,1.8288,optionLeft,5,275,1,4,0,4,0,1,,,,,,,,,,,,,,,,,,,,,,,,,,,,,,,,,,,,,,,
,,,,,,,59ba6e9162b30d0001b7acab,2023-08-16_09h03.42.050,HF_wild_card,2022.2.4,Win32,60.0024001,59ba6e9162b30d0001b7acab,64d2fd46c836a06233681665,64dc7e031e71c1d50c779dc3,,,,,,,decisionTrl,resources/DG.BMP,resources/DBN.BMP,Door2,-0.328125,0.013020833,1,0,0,2.0797,optionLeft,40,315,1,5,0,5,0,1,,,,,,,,,,,,,,,,,,,,,,,,,,,,,,,,,,,,,,,
,,,,,,,59ba6e9162b30d0001b7acab,2023-08-16_09h03.42.050,HF_wild_card,2022.2.4,Win32,60.0024001,59ba6e9162b30d0001b7acab,64d2fd46c836a06233681665,64dc7e031e71c1d50c779dc3,,,,,,,sngl,resources/Empty.png,resources/DG.BMP,Door2,-0.044270833,-0.065104167,1,0,0,0.966,optionRight,20,335,1,6,0,6,0,1,,,,,,,,,,,,,,,,,,,,,,,,,,,,,,,,,,,,,,,
,,,,,,,59ba6e9162b30d0001b7acab,2023-08-16_09h03.42.050,HF_wild_card,2022.2.4,Win32,60.0024001,59ba6e9162b30d0001b7acab,64d2fd46c836a06233681665,64dc7e031e71c1d50c779dc3,,,,,,,decisionTrl,resources/DP.BMP,resources/DR.BMP,Door3,0.376302083,-0.032552083,1,0,0,1.4796,optionRight,70,405,1,7,0,7,0,1,,,,,,,,,,,,,,,,,,,,,,,,,,,,,,,,,,,,,,,
,,,,,,,59ba6e9162b30d0001b7acab,2023-08-16_09h03.42.050,HF_wild_card,2022.2.4,Win32,60.0024001,59ba6e9162b30d0001b7acab,64d2fd46c836a06233681665,64dc7e031e71c1d50c779dc3,,,,,,,sngl,resources/Empty.png,resources/DBN.BMP,WildCard_Ex,0.350260417,-0.03125,1,0,0,1.6536,optionRight,5,410,1,8,0,8,0,1,,,,,,,,,,,,,,,,,,,,,,,,,,,,,,,,,,,,,,,
,,,,,,,59ba6e9162b30d0001b7acab,2023-08-16_09h03.42.050,HF_wild_card,2022.2.4,Win32,60.0024001,59ba6e9162b30d0001b7acab,64d2fd46c836a06233681665,64dc7e031e71c1d50c779dc3,,,,,,,decisionTrl,resources/DB.BMP,resources/DG.BMP,Door1,-0.3671875,-0.029947917,1,0,0,2.4669,optionLeft,30,440,1,9,0,9,0,1,,,,,,,,,,,,,,,,,,,,,,,,,,,,,,,,,,,,,,,
,,,,,,,59ba6e9162b30d0001b7acab,2023-08-16_09h03.42.050,HF_wild_card,2022.2.4,Win32,60.0024001,59ba6e9162b30d0001b7acab,64d2fd46c836a06233681665,64dc7e031e71c1d50c779dc3,,,,,,,decisionTrl,resources/DBN.BMP,resources/DP.BMP,Door4,0.415364583,-0.096354167,1,0,0,1.465,optionRight,80,520,1,10,0,10,0,1,,,,,,,,,,,,,,,,,,,,,,,,,,,,,,,,,,,,,,,
,,,,,,,59ba6e9162b30d0001b7acab,2023-08-16_09h03.42.050,HF_wild_card,2022.2.4,Win32,60.0024001,59ba6e9162b30d0001b7acab,64d2fd46c836a06233681665,64dc7e031e71c1d50c779dc3,,,,,,,sngl,resources/Empty.png,resources/DR.BMP,Door3,0.372395833,-0.07421875,1,0,0,1.0961,optionRight,70,590,1,11,0,11,0,1,,,,,,,,,,,,,,,,,,,,,,,,,,,,,,,,,,,,,,,
,,,,,,,59ba6e9162b30d0001b7acab,2023-08-16_09h03.42.050,HF_wild_card,2022.2.4,Win32,60.0024001,59ba6e9162b30d0001b7acab,64d2fd46c836a06233681665,64dc7e031e71c1d50c779dc3,,,,,,,decisionTrl,resources/DG.BMP,resources/DB.BMP,Door1,0.3359375,-0.06640625,1,0,0,2.1533,optionRight,30,620,1,12,0,12,0,1,,,,,,,,,,,,,,,,,,,,,,,,,,,,,,,,,,,,,,,
,,,,,,,59ba6e9162b30d0001b7acab,2023-08-16_09h03.42.050,HF_wild_card,2022.2.4,Win32,60.0024001,59ba6e9162b30d0001b7acab,64d2fd46c836a06233681665,64dc7e031e71c1d50c779dc3,,,,,,,decisionTrl,resources/DR.BMP,resources/DP.BMP,Door3,-0.403645833,-0.005208333,1,0,0,1.0973,optionLeft,70,690,1,13,0,13,0,1,,,,,,,,,,,,,,,,,,,,,,,,,,,,,,,,,,,,,,,
,,,,,,,59ba6e9162b30d0001b7acab,2023-08-16_09h03.42.050,HF_wild_card,2022.2.4,Win32,60.0024001,59ba6e9162b30d0001b7acab,64d2fd46c836a06233681665,64dc7e031e71c1d50c779dc3,,,,,,,decisionTrl,resources/DP.BMP,resources/DBN.BMP,Door4,-0.333333333,-0.033854167,1,0,0,2.0846,optionLeft,60,750,1,14,0,14,0,1,,,,,,,,,,,,,,,,,,,,,,,,,,,,,,,,,,,,,,,
,,,,,,,59ba6e9162b30d0001b7acab,2023-08-16_09h03.42.050,HF_wild_card,2022.2.4,Win32,60.0024001,59ba6e9162b30d0001b7acab,64d2fd46c836a06233681665,64dc7e031e71c1d50c779dc3,,,,,,,decisionTrl,resources/DR.BMP,resources/DBN.BMP,Door3,-0.364583333,-0.015625,1,0,0,1.7428,optionLeft,70,820,1,15,0,15,0,1,,,,,,,,,,,,,,,,,,,,,,,,,,,,,,,,,,,,,,,
,,,,,,,59ba6e9162b30d0001b7acab,2023-08-16_09h03.42.050,HF_wild_card,2022.2.4,Win32,60.0024001,59ba6e9162b30d0001b7acab,64d2fd46c836a06233681665,64dc7e031e71c1d50c779dc3,,,,,,,sngl,resources/DP.BMP,resources/Empty.png,Door4,0.022135417,0.005208333,1,0,0,0.3198,optionLeft,80,900,1,16,0,16,0,1,,,,,,,,,,,,,,,,,,,,,,,,,,,,,,,,,,,,,,,
,,,,,,,59ba6e9162b30d0001b7acab,2023-08-16_09h03.42.050,HF_wild_card,2022.2.4,Win32,60.0024001,59ba6e9162b30d0001b7acab,64d2fd46c836a06233681665,64dc7e031e71c1d50c779dc3,,,,,,,decisionTrl,resources/DB.BMP,resources/DG.BMP,Door2,0.440104167,-0.069010417,1,0,0,2.0106,optionRight,40,940,1,17,0,17,0,1,,,,,,,,,,,,,,,,,,,,,,,,,,,,,,,,,,,,,,,
,,,,,,,59ba6e9162b30d0001b7acab,2023-08-16_09h03.42.050,HF_wild_card,2022.2.4,Win32,60.0024001,59ba6e9162b30d0001b7acab,64d2fd46c836a06233681665,64dc7e031e71c1d50c779dc3,,,,,,,sngl,resources/DB.BMP,resources/Empty.png,Door1,-0.319010417,-0.014322917,1,0,0,1.3529,optionLeft,30,970,1,18,0,18,0,1,,,,,,,,,,,,,,,,,,,,,,,,,,,,,,,,,,,,,,,
,,,,,,,59ba6e9162b30d0001b7acab,2023-08-16_09h03.42.050,HF_wild_card,2022.2.4,Win32,60.0024001,59ba6e9162b30d0001b7acab,64d2fd46c836a06233681665,64dc7e031e71c1d50c779dc3,,,,,,,ctch,resources/DG.BMP,resources/DR.BMP,Door2,-0.373697917,-0.040364583,1,0,0,1.6796,optionLeft,20,990,1,19,0,19,0,1,,,,,,,,,,,,,,,,,,,,,,,,,,,,,,,,,,,,,,,
,,,,,,,59ba6e9162b30d0001b7acab,2023-08-16_09h03.42.050,HF_wild_card,2022.2.4,Win32,60.0024001,59ba6e9162b30d0001b7acab,64d2fd46c836a06233681665,64dc7e031e71c1d50c779dc3,,,,,,,decisionTrl,resources/DP.BMP,resources/DR.BMP,Door3,0.39453125,-0.04296875,1,0,0,1.5012,optionRight,70,1060,1,20,0,20,0,1,,,,,,,,,,,,,,,,,,,,,,,,,,,,,,,,,,,,,,,
,,,,,,,59ba6e9162b30d0001b7acab,2023-08-16_09h03.42.050,HF_wild_card,2022.2.4,Win32,60.0024001,59ba6e9162b30d0001b7acab,64d2fd46c836a06233681665,64dc7e031e71c1d50c779dc3,,,,,,,decisionTrl,resources/DB.BMP,resources/DBN.BMP,Door1,-0.404947917,-0.026041667,1,0,0,1.2148,optionLeft,30,1090,1,21,0,21,0,1,,,,,,,,,,,,,,,,,,,,,,,,,,,,,,,,,,,,,,,
,,,,,,,59ba6e9162b30d0001b7acab,2023-08-16_09h03.42.050,HF_wild_card,2022.2.4,Win32,60.0024001,59ba6e9162b30d0001b7acab,64d2fd46c836a06233681665,64dc7e031e71c1d50c779dc3,,,,,,,sngl,resources/DG.BMP,resources/Empty.png,Door2,-0.395833333,-0.04296875,1,0,0,1.468,optionLeft,40,1130,1,22,0,22,0,1,,,,,,,,,,,,,,,,,,,,,,,,,,,,,,,,,,,,,,,
,,,,,,,59ba6e9162b30d0001b7acab,2023-08-16_09h03.42.050,HF_wild_card,2022.2.4,Win32,60.0024001,59ba6e9162b30d0001b7acab,64d2fd46c836a06233681665,64dc7e031e71c1d50c779dc3,,,,,,,decisionTrl,resources/DB.BMP,resources/DG.BMP,Door1,-0.365885417,-0.01171875,1,0,0,1.5467,optionLeft,30,1160,1,23,0,23,0,1,,,,,,,,,,,,,,,,,,,,,,,,,,,,,,,,,,,,,,,
,,,,,,,59ba6e9162b30d0001b7acab,2023-08-16_09h03.42.050,HF_wild_card,2022.2.4,Win32,60.0024001,59ba6e9162b30d0001b7acab,64d2fd46c836a06233681665,64dc7e031e71c1d50c779dc3,,,,,,,sngl,resources/Empty.png,resources/DP.BMP,Door4,0.360677083,-0.053385417,1,0,0,0.9299,optionRight,60,1220,1,24,0,24,0,1,,,,,,,,,,,,,,,,,,,,,,,,,,,,,,,,,,,,,,,
,,,,,,,59ba6e9162b30d0001b7acab,2023-08-16_09h03.42.050,HF_wild_card,2022.2.4,Win32,60.0024001,59ba6e9162b30d0001b7acab,64d2fd46c836a06233681665,64dc7e031e71c1d50c779dc3,,,,,,,ctch,resources/DB.BMP,resources/DP.BMP,Door4,0.455729167,-0.088541667,1,0,0,1.2141,optionRight,80,1300,1,25,0,25,0,1,,,,,,,,,,,,,,,,,,,,,,,,,,,,,,,,,,,,,,,
,,,,,,,59ba6e9162b30d0001b7acab,2023-08-16_09h03.42.050,HF_wild_card,2022.2.4,Win32,60.0024001,59ba6e9162b30d0001b7acab,64d2fd46c836a06233681665,64dc7e031e71c1d50c779dc3,,,,,,,decisionTrl,resources/DG.BMP,resources/DB.BMP,Door2,-0.295572917,-0.018229167,1,0,0,1.4803,optionLeft,40,1340,1,26,0,26,0,1,,,,,,,,,,,,,,,,,,,,,,,,,,,,,,,,,,,,,,,
,,,,,,,59ba6e9162b30d0001b7acab,2023-08-16_09h03.42.050,HF_wild_card,2022.2.4,Win32,60.0024001,59ba6e9162b30d0001b7acab,64d2fd46c836a06233681665,64dc7e031e71c1d50c779dc3,,,,,,,sngl,resources/DBN.BMP,resources/Empty.png,WildCard_Ex,-0.41015625,-0.020833333,1,0,0,1.1946,optionLeft,95,1435,1,27,0,27,0,1,,,,,,,,,,,,,,,,,,,,,,,,,,,,,,,,,,,,,,,
,,,,,,,59ba6e9162b30d0001b7acab,2023-08-16_09h03.42.050,HF_wild_card,2022.2.4,Win32,60.0024001,59ba6e9162b30d0001b7acab,64d2fd46c836a06233681665,64dc7e031e71c1d50c779dc3,,,,,,,decisionTrl,resources/DBN.BMP,resources/DG.BMP,WildCard_Ex,-0.408854167,-0.02734375,1,0,0,1.1306,optionLeft,95,1530,1,28,0,28,0,1,,,,,,,,,,,,,,,,,,,,,,,,,,,,,,,,,,,,,,,
,,,,,,,59ba6e9162b30d0001b7acab,2023-08-16_09h03.42.050,HF_wild_card,2022.2.4,Win32,60.0024001,59ba6e9162b30d0001b7acab,64d2fd46c836a06233681665,64dc7e031e71c1d50c779dc3,,,,,,,decisionTrl,resources/DR.BMP,resources/DP.BMP,Door3,-0.329427083,-0.091145833,1,0,0,5.63,optionLeft,70,1600,1,29,0,29,0,1,,,,,,,,,,,,,,,,,,,,,,,,,,,,,,,,,,,,,,,
,,,,,,,59ba6e9162b30d0001b7acab,2023-08-16_09h03.42.050,HF_wild_card,2022.2.4,Win32,60.0024001,59ba6e9162b30d0001b7acab,64d2fd46c836a06233681665,64dc7e031e71c1d50c779dc3,,,,,,,decisionTrl,resources/DBN.BMP,resources/DR.BMP,WildCard_Ex,-0.41015625,0.032552083,1,0,0,2.4627,optionLeft,95,1695,1,30,0,30,0,1,,,,,,,,,,,,,,,,,,,,,,,,,,,,,,,,,,,,,,,
,,,,,,,59ba6e9162b30d0001b7acab,2023-08-16_09h03.42.050,HF_wild_card,2022.2.4,Win32,60.0024001,59ba6e9162b30d0001b7acab,64d2fd46c836a06233681665,64dc7e031e71c1d50c779dc3,,,,,,,decisionTrl,resources/DR.BMP,resources/DP.BMP,Door3,-0.375,0.001302083,1,0,0,3.1628,optionLeft,70,1765,1,31,0,31,0,1,,,,,,,,,,,,,,,,,,,,,,,,,,,,,,,,,,,,,,,
,,,,,,,59ba6e9162b30d0001b7acab,2023-08-16_09h03.42.050,HF_wild_card,2022.2.4,Win32,60.0024001,59ba6e9162b30d0001b7acab,64d2fd46c836a06233681665,64dc7e031e71c1d50c779dc3,,,,,,,decisionTrl,resources/DG.BMP,resources/DB.BMP,Door1,0.5390625,-0.022135417,1,0,0,2.5461,optionRight,30,1795,1,32,0,32,0,1,,,,,,,,,,,,,,,,,,,,,,,,,,,,,,,,,,,,,,,
,,,,,,,59ba6e9162b30d0001b7acab,2023-08-16_09h03.42.050,HF_wild_card,2022.2.4,Win32,60.0024001,59ba6e9162b30d0001b7acab,64d2fd46c836a06233681665,64dc7e031e71c1d50c779dc3,,,,,,,ctch,resources/DB.BMP,resources/DP.BMP,Door4,0.455729167,-0.01953125,1,0,0,4.9749,optionRight,80,1875,1,33,0,33,0,1,,,,,,,,,,,,,,,,,,,,,,,,,,,,,,,,,,,,,,,
,,,,,,,59ba6e9162b30d0001b7acab,2023-08-16_09h03.42.050,HF_wild_card,2022.2.4,Win32,60.0024001,59ba6e9162b30d0001b7acab,64d2fd46c836a06233681665,64dc7e031e71c1d50c779dc3,,,,,,,sngl,resources/Empty.png,resources/DB.BMP,Door1,0.337239583,-0.032552083,1,0,0,1.3301,optionRight,30,1905,1,34,0,34,0,1,,,,,,,,,,,,,,,,,,,,,,,,,,,,,,,,,,,,,,,
,,,,,,,59ba6e9162b30d0001b7acab,2023-08-16_09h03.42.050,HF_wild_card,2022.2.4,Win32,60.0024001,59ba6e9162b30d0001b7acab,64d2fd46c836a06233681665,64dc7e031e71c1d50c779dc3,,,,,,,decisionTrl,resources/DP.BMP,resources/DR.BMP,Door3,-0.01953125,-0.0078125,1,0,0,0.2878,optionRight,70,1975,1,35,0,35,0,1,,,,,,,,,,,,,,,,,,,,,,,,,,,,,,,,,,,,,,,
,,,,,,,59ba6e9162b30d0001b7acab,2023-08-16_09h03.42.050,HF_wild_card,2022.2.4,Win32,60.0024001,59ba6e9162b30d0001b7acab,64d2fd46c836a06233681665,64dc7e031e71c1d50c779dc3,,,,,,,decisionTrl,resources/DP.BMP,resources/DR.BMP,Door3,0.419270833,-0.033854167,1,0,0,4.3521,optionRight,70,2045,1,36,0,36,0,1,,,,,,,,,,,,,,,,,,,,,,,,,,,,,,,,,,,,,,,
,,,,,,,59ba6e9162b30d0001b7acab,2023-08-16_09h03.42.050,HF_wild_card,2022.2.4,Win32,60.0024001,59ba6e9162b30d0001b7acab,64d2fd46c836a06233681665,64dc7e031e71c1d50c779dc3,,,,,,,sngl,resources/Empty.png,resources/DBN.BMP,WildCard_Ex,0.407552083,-0.049479167,1,0,0,1.5664,optionRight,95,2140,1,37,0,37,0,1,,,,,,,,,,,,,,,,,,,,,,,,,,,,,,,,,,,,,,,
,,,,,,,59ba6e9162b30d0001b7acab,2023-08-16_09h03.42.050,HF_wild_card,2022.2.4,Win32,60.0024001,59ba6e9162b30d0001b7acab,64d2fd46c836a06233681665,64dc7e031e71c1d50c779dc3,,,,,,,ctch,resources/DG.BMP,resources/DR.BMP,Door3,0.404947917,-0.048177083,1,0,0,3.8329,optionRight,70,2210,1,38,0,38,0,1,,,,,,,,,,,,,,,,,,,,,,,,,,,,,,,,,,,,,,,
,,,,,,,59ba6e9162b30d0001b7acab,2023-08-16_09h03.42.050,HF_wild_card,2022.2.4,Win32,60.0024001,59ba6e9162b30d0001b7acab,64d2fd46c836a06233681665,64dc7e031e71c1d50c779dc3,,,,,,,sngl,resources/DBN.BMP,resources/Empty.png,WildCard_Ex,-0.403645833,-0.016927083,1,0,0,1.4048,optionLeft,5,2215,1,39,0,39,0,1,,,,,,,,,,,,,,,,,,,,,,,,,,,,,,,,,,,,,,,
,,,,,,,59ba6e9162b30d0001b7acab,2023-08-16_09h03.42.050,HF_wild_card,2022.2.4,Win32,60.0024001,59ba6e9162b30d0001b7acab,64d2fd46c836a06233681665,64dc7e031e71c1d50c779dc3,,,,,,,ctch,resources/DR.BMP,resources/DG.BMP,Door3,0.018229167,-0.006510417,1,0,0,0.2558,optionLeft,70,2285,1,40,0,40,0,1,,,,,,,,,,,,,,,,,,,,,,,,,,,,,,,,,,,,,,,
,,,,,,,59ba6e9162b30d0001b7acab,2023-08-16_09h03.42.050,HF_wild_card,2022.2.4,Win32,60.0024001,59ba6e9162b30d0001b7acab,64d2fd46c836a06233681665,64dc7e031e71c1d50c779dc3,,,,,,,decisionTrl,resources/DG.BMP,resources/DB.BMP,Door1,0.459635417,-0.044270833,1,0,0,4.6657,optionRight,30,2315,1,41,0,41,0,1,,,,,,,,,,,,,,,,,,,,,,,,,,,,,,,,,,,,,,,
,,,,,,,59ba6e9162b30d0001b7acab,2023-08-16_09h03.42.050,HF_wild_card,2022.2.4,Win32,60.0024001,59ba6e9162b30d0001b7acab,64d2fd46c836a06233681665,64dc7e031e71c1d50c779dc3,,,,,,,ctch,resources/DR.BMP,resources/DG.BMP,Door3,-0.432291667,-0.045572917,1,0,0,3.6173,optionLeft,70,2385,1,42,0,42,0,1,,,,,,,,,,,,,,,,,,,,,,,,,,,,,,,,,,,,,,,
,,,,,,,59ba6e9162b30d0001b7acab,2023-08-16_09h03.42.050,HF_wild_card,2022.2.4,Win32,60.0024001,59ba6e9162b30d0001b7acab,64d2fd46c836a06233681665,64dc7e031e71c1d50c779dc3,,,,,,,sngl,resources/DR.BMP,resources/Empty.png,Door3,-0.467447917,-0.055989583,1,0,0,1.8884,optionLeft,70,2455,1,43,0,43,0,1,,,,,,,,,,,,,,,,,,,,,,,,,,,,,,,,,,,,,,,
,,,,,,,59ba6e9162b30d0001b7acab,2023-08-16_09h03.42.050,HF_wild_card,2022.2.4,Win32,60.0024001,59ba6e9162b30d0001b7acab,64d2fd46c836a06233681665,64dc7e031e71c1d50c779dc3,,,,,,,,,,,,,,,,,,,,,,,,,,0,0,0,0,1,,,,,,,,,,,,,,,,,,,,,,,,,,,,,,,,,,
,,,,,,,59ba6e9162b30d0001b7acab,2023-08-16_09h03.42.050,HF_wild_card,2022.2.4,Win32,60.0024001,59ba6e9162b30d0001b7acab,64d2fd46c836a06233681665,64dc7e031e71c1d50c779dc3,,,,,,,decisionTrl,resources/DG.BMP,resources/DB.BMP,Door2,-0.40625,-0.006510417,1,0,0,2.7242,optionLeft,20,2475,2,0,0,0,0,1,,,,,,,,,,,,,,,,,,,,,,,,,,,,,,,,,,,,,,,
,,,,,,,59ba6e9162b30d0001b7acab,2023-08-16_09h03.42.050,HF_wild_card,2022.2.4,Win32,60.0024001,59ba6e9162b30d0001b7acab,64d2fd46c836a06233681665,64dc7e031e71c1d50c779dc3,,,,,,,sngl,resources/Empty.png,resources/DG.BMP,Door2,0.407552083,-0.03515625,1,0,0,1.5792,optionRight,40,2515,2,1,0,1,0,1,,,,,,,,,,,,,,,,,,,,,,,,,,,,,,,,,,,,,,,
,,,,,,,59ba6e9162b30d0001b7acab,2023-08-16_09h03.42.050,HF_wild_card,2022.2.4,Win32,60.0024001,59ba6e9162b30d0001b7acab,64d2fd46c836a06233681665,64dc7e031e71c1d50c779dc3,,,,,,,decisionTrl,resources/DB.BMP,resources/DG.BMP,Door1,-0.3125,0.020833333,1,0,0,5.5335,optionLeft,30,2545,2,2,0,2,0,1,,,,,,,,,,,,,,,,,,,,,,,,,,,,,,,,,,,,,,,
,,,,,,,59ba6e9162b30d0001b7acab,2023-08-16_09h03.42.050,HF_wild_card,2022.2.4,Win32,60.0024001,59ba6e9162b30d0001b7acab,64d2fd46c836a06233681665,64dc7e031e71c1d50c779dc3,,,,,,,ctch,resources/DR.BMP,resources/DG.BMP,Door3,-0.369791667,0.037760417,1,0,0,3.7043,optionLeft,70,2615,2,3,0,3,0,1,,,,,,,,,,,,,,,,,,,,,,,,,,,,,,,,,,,,,,,
,,,,,,,59ba6e9162b30d0001b7acab,2023-08-16_09h03.42.050,HF_wild_card,2022.2.4,Win32,60.0024001,59ba6e9162b30d0001b7acab,64d2fd46c836a06233681665,64dc7e031e71c1d50c779dc3,,,,,,,sngl,resources/Empty.png,resources/DR.BMP,Door3,0.377604167,-0.028645833,1,0,0,1.3934,optionRight,70,2685,2,4,0,4,0,1,,,,,,,,,,,,,,,,,,,,,,,,,,,,,,,,,,,,,,,
,,,,,,,59ba6e9162b30d0001b7acab,2023-08-16_09h03.42.050,HF_wild_card,2022.2.4,Win32,60.0024001,59ba6e9162b30d0001b7acab,64d2fd46c836a06233681665,64dc7e031e71c1d50c779dc3,,,,,,,sngl,resources/DB.BMP,resources/Empty.png,Door1,-0.342447917,-0.006510417,1,0,0,1.1424,optionLeft,30,2715,2,5,0,5,0,1,,,,,,,,,,,,,,,,,,,,,,,,,,,,,,,,,,,,,,,
,,,,,,,59ba6e9162b30d0001b7acab,2023-08-16_09h03.42.050,HF_wild_card,2022.2.4,Win32,60.0024001,59ba6e9162b30d0001b7acab,64d2fd46c836a06233681665,64dc7e031e71c1d50c779dc3,,,,,,,sngl,resources/DR.BMP,resources/Empty.png,Door3,-0.4765625,-0.013020833,1,0,0,1.1105,optionLeft,70,2785,2,6,0,6,0,1,,,,,,,,,,,,,,,,,,,,,,,,,,,,,,,,,,,,,,,
,,,,,,,59ba6e9162b30d0001b7acab,2023-08-16_09h03.42.050,HF_wild_card,2022.2.4,Win32,60.0024001,59ba6e9162b30d0001b7acab,64d2fd46c836a06233681665,64dc7e031e71c1d50c779dc3,,,,,,,decisionTrl,resources/DBN.BMP,resources/DB.BMP,WildCard_Ex,-0.388020833,0.028645833,1,0,0,3.2111,optionLeft,95,2880,2,7,0,7,0,1,,,,,,,,,,,,,,,,,,,,,,,,,,,,,,,,,,,,,,,
,,,,,,,59ba6e9162b30d0001b7acab,2023-08-16_09h03.42.050,HF_wild_card,2022.2.4,Win32,60.0024001,59ba6e9162b30d0001b7acab,64d2fd46c836a06233681665,64dc7e031e71c1d50c779dc3,,,,,,,decisionTrl,resources/DP.BMP,resources/DR.BMP,Door4,-0.436197917,-0.048177083,1,0,0,5.6141,optionLeft,60,2940,2,8,0,8,0,1,,,,,,,,,,,,,,,,,,,,,,,,,,,,,,,,,,,,,,,
,,,,,,,59ba6e9162b30d0001b7acab,2023-08-16_09h03.42.050,HF_wild_card,2022.2.4,Win32,60.0024001,59ba6e9162b30d0001b7acab,64d2fd46c836a06233681665,64dc7e031e71c1d50c779dc3,,,,,,,decisionTrl,resources/DG.BMP,resources/DBN.BMP,WildCard_Ex,0.401041667,0.032552083,1,0,0,3.27,optionRight,95,3035,2,9,0,9,0,1,,,,,,,,,,,,,,,,,,,,,,,,,,,,,,,,,,,,,,,
,,,,,,,59ba6e9162b30d0001b7acab,2023-08-16_09h03.42.050,HF_wild_card,2022.2.4,Win32,60.0024001,59ba6e9162b30d0001b7acab,64d2fd46c836a06233681665,64dc7e031e71c1d50c779dc3,,,,,,,decisionTrl,resources/DBN.BMP,resources/DR.BMP,WildCard_Ex,-0.416666667,-0.005208333,1,0,0,7.9444,optionLeft,95,3130,2,10,0,10,0,1,,,,,,,,,,,,,,,,,,,,,,,,,,,,,,,,,,,,,,,
,,,,,,,59ba6e9162b30d0001b7acab,2023-08-16_09h03.42.050,HF_wild_card,2022.2.4,Win32,60.0024001,59ba6e9162b30d0001b7acab,64d2fd46c836a06233681665,64dc7e031e71c1d50c779dc3,,,,,,,sngl,resources/DG.BMP,resources/Empty.png,Door2,-0.3984375,0.005208333,1,0,0,1.5289,optionLeft,20,3150,2,11,0,11,0,1,,,,,,,,,,,,,,,,,,,,,,,,,,,,,,,,,,,,,,,
,,,,,,,59ba6e9162b30d0001b7acab,2023-08-16_09h03.42.050,HF_wild_card,2022.2.4,Win32,60.0024001,59ba6e9162b30d0001b7acab,64d2fd46c836a06233681665,64dc7e031e71c1d50c779dc3,,,,,,,decisionTrl,resources/DR.BMP,resources/DBN.BMP,WildCard_Ex,0.424479167,-0.002604167,1,0,0,8.0102,optionRight,95,3245,2,12,0,12,0,1,,,,,,,,,,,,,,,,,,,,,,,,,,,,,,,,,,,,,,,
,,,,,,,59ba6e9162b30d0001b7acab,2023-08-16_09h03.42.050,HF_wild_card,2022.2.4,Win32,60.0024001,59ba6e9162b30d0001b7acab,64d2fd46c836a06233681665,64dc7e031e71c1d50c779dc3,,,,,,,sngl,resources/Empty.png,resources/DB.BMP,Door1,0.3984375,-0.016927083,1,0,0,1.2595,optionRight,30,3275,2,13,0,13,0,1,,,,,,,,,,,,,,,,,,,,,,,,,,,,,,,,,,,,,,,
,,,,,,,59ba6e9162b30d0001b7acab,2023-08-16_09h03.42.050,HF_wild_card,2022.2.4,Win32,60.0024001,59ba6e9162b30d0001b7acab,64d2fd46c836a06233681665,64dc7e031e71c1d50c779dc3,,,,,,,decisionTrl,resources/DP.BMP,resources/DBN.BMP,WildCard_Ex,0.4296875,0.09375,1,0,0,3.392,optionRight,95,3370,2,14,0,14,0,1,,,,,,,,,,,,,,,,,,,,,,,,,,,,,,,,,,,,,,,
,,,,,,,59ba6e9162b30d0001b7acab,2023-08-16_09h03.42.050,HF_wild_card,2022.2.4,Win32,60.0024001,59ba6e9162b30d0001b7acab,64d2fd46c836a06233681665,64dc7e031e71c1d50c779dc3,,,,,,,decisionTrl,resources/DG.BMP,resources/DB.BMP,Door1,0.459635417,-0.028645833,1,0,0,3.8589,optionRight,30,3400,2,15,0,15,0,1,,,,,,,,,,,,,,,,,,,,,,,,,,,,,,,,,,,,,,,
,,,,,,,59ba6e9162b30d0001b7acab,2023-08-16_09h03.42.050,HF_wild_card,2022.2.4,Win32,60.0024001,59ba6e9162b30d0001b7acab,64d2fd46c836a06233681665,64dc7e031e71c1d50c779dc3,,,,,,,decisionTrl,resources/DR.BMP,resources/DP.BMP,Door4,0.509114583,-0.013020833,1,0,0,3.7767,optionRight,80,3480,2,16,0,16,0,1,,,,,,,,,,,,,,,,,,,,,,,,,,,,,,,,,,,,,,,
,,,,,,,59ba6e9162b30d0001b7acab,2023-08-16_09h03.42.050,HF_wild_card,2022.2.4,Win32,60.0024001,59ba6e9162b30d0001b7acab,64d2fd46c836a06233681665,64dc7e031e71c1d50c779dc3,,,,,,,ctch,resources/DR.BMP,resources/DG.BMP,Door3,-0.4296875,0.015625,1,0,0,4.9766,optionLeft,70,3550,2,17,0,17,0,1,,,,,,,,,,,,,,,,,,,,,,,,,,,,,,,,,,,,,,,
,,,,,,,59ba6e9162b30d0001b7acab,2023-08-16_09h03.42.050,HF_wild_card,2022.2.4,Win32,60.0024001,59ba6e9162b30d0001b7acab,64d2fd46c836a06233681665,64dc7e031e71c1d50c779dc3,,,,,,,sngl,resources/DBN.BMP,resources/Empty.png,WildCard_Ex,-0.467447917,0.032552083,1,0,0,1.3764,optionLeft,5,3555,2,18,0,18,0,1,,,,,,,,,,,,,,,,,,,,,,,,,,,,,,,,,,,,,,,
,,,,,,,59ba6e9162b30d0001b7acab,2023-08-16_09h03.42.050,HF_wild_card,2022.2.4,Win32,60.0024001,59ba6e9162b30d0001b7acab,64d2fd46c836a06233681665,64dc7e031e71c1d50c779dc3,,,,,,,decisionTrl,resources/DB.BMP,resources/DG.BMP,Door1,-0.4765625,0.05078125,1,0,0,4.3504,optionLeft,30,3585,2,19,0,19,0,1,,,,,,,,,,,,,,,,,,,,,,,,,,,,,,,,,,,,,,,
,,,,,,,59ba6e9162b30d0001b7acab,2023-08-16_09h03.42.050,HF_wild_card,2022.2.4,Win32,60.0024001,59ba6e9162b30d0001b7acab,64d2fd46c836a06233681665,64dc7e031e71c1d50c779dc3,,,,,,,decisionTrl,resources/DP.BMP,resources/DR.BMP,Door4,-0.489583333,0.03125,1,0,0,3.6081,optionLeft,60,3645,2,20,0,20,0,1,,,,,,,,,,,,,,,,,,,,,,,,,,,,,,,,,,,,,,,
,,,,,,,59ba6e9162b30d0001b7acab,2023-08-16_09h03.42.050,HF_wild_card,2022.2.4,Win32,60.0024001,59ba6e9162b30d0001b7acab,64d2fd46c836a06233681665,64dc7e031e71c1d50c779dc3,,,,,,,decisionTrl,resources/DG.BMP,resources/DB.BMP,Door1,0.440104167,-0.032552083,1,0,0,3.1757,optionRight,30,3675,2,21,0,21,0,1,,,,,,,,,,,,,,,,,,,,,,,,,,,,,,,,,,,,,,,
,,,,,,,59ba6e9162b30d0001b7acab,2023-08-16_09h03.42.050,HF_wild_card,2022.2.4,Win32,60.0024001,59ba6e9162b30d0001b7acab,64d2fd46c836a06233681665,64dc7e031e71c1d50c779dc3,,,,,,,ctch,resources/DB.BMP,resources/DP.BMP,Door1,-0.397135417,0.036458333,1,0,0,5.4541,optionLeft,30,3705,2,22,0,22,0,1,,,,,,,,,,,,,,,,,,,,,,,,,,,,,,,,,,,,,,,
,,,,,,,59ba6e9162b30d0001b7acab,2023-08-16_09h03.42.050,HF_wild_card,2022.2.4,Win32,60.0024001,59ba6e9162b30d0001b7acab,64d2fd46c836a06233681665,64dc7e031e71c1d50c779dc3,,,,,,,decisionTrl,resources/DBN.BMP,resources/DP.BMP,WildCard_Ex,-0.315104167,0.015625,1,0,0,3.2118,optionLeft,5,3710,2,23,0,23,0,1,,,,,,,,,,,,,,,,,,,,,,,,,,,,,,,,,,,,,,,
,,,,,,,59ba6e9162b30d0001b7acab,2023-08-16_09h03.42.050,HF_wild_card,2022.2.4,Win32,60.0024001,59ba6e9162b30d0001b7acab,64d2fd46c836a06233681665,64dc7e031e71c1d50c779dc3,,,,,,,decisionTrl,resources/DR.BMP,resources/DP.BMP,Door4,0.427083333,-0.049479167,1,0,0,3.1412,optionRight,80,3790,2,24,0,24,0,1,,,,,,,,,,,,,,,,,,,,,,,,,,,,,,,,,,,,,,,
,,,,,,,59ba6e9162b30d0001b7acab,2023-08-16_09h03.42.050,HF_wild_card,2022.2.4,Win32,60.0024001,59ba6e9162b30d0001b7acab,64d2fd46c836a06233681665,64dc7e031e71c1d50c779dc3,,,,,,,ctch,resources/DP.BMP,resources/DB.BMP,Door1,0.334635417,0.014322917,1,0,0,4.627,optionRight,30,3820,2,25,0,25,0,1,,,,,,,,,,,,,,,,,,,,,,,,,,,,,,,,,,,,,,,
,,,,,,,59ba6e9162b30d0001b7acab,2023-08-16_09h03.42.050,HF_wild_card,2022.2.4,Win32,60.0024001,59ba6e9162b30d0001b7acab,64d2fd46c836a06233681665,64dc7e031e71c1d50c779dc3,,,,,,,decisionTrl,resources/DG.BMP,resources/DB.BMP,Door1,0.470052083,-0.01171875,1,0,0,5.0645,optionRight,30,3850,2,26,0,26,0,1,,,,,,,,,,,,,,,,,,,,,,,,,,,,,,,,,,,,,,,
,,,,,,,59ba6e9162b30d0001b7acab,2023-08-16_09h03.42.050,HF_wild_card,2022.2.4,Win32,60.0024001,59ba6e9162b30d0001b7acab,64d2fd46c836a06233681665,64dc7e031e71c1d50c779dc3,,,,,,,ctch,resources/DG.BMP,resources/DR.BMP,Door3,0.419270833,-0.014322917,1,0,0,3.8783,optionRight,70,3920,2,27,0,27,0,1,,,,,,,,,,,,,,,,,,,,,,,,,,,,,,,,,,,,,,,
,,,,,,,59ba6e9162b30d0001b7acab,2023-08-16_09h03.42.050,HF_wild_card,2022.2.4,Win32,60.0024001,59ba6e9162b30d0001b7acab,64d2fd46c836a06233681665,64dc7e031e71c1d50c779dc3,,,,,,,decisionTrl,resources/DB.BMP,resources/DBN.BMP,WildCard_Ex,0.380208333,0.024739583,1,0,0,3.0426,optionRight,95,4015,2,28,0,28,0,1,,,,,,,,,,,,,,,,,,,,,,,,,,,,,,,,,,,,,,,
,,,,,,,59ba6e9162b30d0001b7acab,2023-08-16_09h03.42.050,HF_wild_card,2022.2.4,Win32,60.0024001,59ba6e9162b30d0001b7acab,64d2fd46c836a06233681665,64dc7e031e71c1d50c779dc3,,,,,,,decisionTrl,resources/DBN.BMP,resources/DG.BMP,WildCard_Ex,-0.486979167,0.001302083,1,0,0,2.7068,optionLeft,95,4110,2,29,0,29,0,1,,,,,,,,,,,,,,,,,,,,,,,,,,,,,,,,,,,,,,,
,,,,,,,59ba6e9162b30d0001b7acab,2023-08-16_09h03.42.050,HF_wild_card,2022.2.4,Win32,60.0024001,59ba6e9162b30d0001b7acab,64d2fd46c836a06233681665,64dc7e031e71c1d50c779dc3,,,,,,,decisionTrl,resources/DR.BMP,resources/DP.BMP,Door4,0.44921875,-0.0390625,1,0,0,4.477,optionRight,80,4190,2,30,0,30,0,1,,,,,,,,,,,,,,,,,,,,,,,,,,,,,,,,,,,,,,,
,,,,,,,59ba6e9162b30d0001b7acab,2023-08-16_09h03.42.050,HF_wild_card,2022.2.4,Win32,60.0024001,59ba6e9162b30d0001b7acab,64d2fd46c836a06233681665,64dc7e031e71c1d50c779dc3,,,,,,,sngl,resources/DBN.BMP,resources/Empty.png,WildCard_Ex,-0.338541667,0.04296875,1,0,0,1.1925,optionLeft,95,4285,2,31,0,31,0,1,,,,,,,,,,,,,,,,,,,,,,,,,,,,,,,,,,,,,,,
,,,,,,,59ba6e9162b30d0001b7acab,2023-08-16_09h03.42.050,HF_wild_card,2022.2.4,Win32,60.0024001,59ba6e9162b30d0001b7acab,64d2fd46c836a06233681665,64dc7e031e71c1d50c779dc3,,,,,,,sngl,resources/Empty.png,resources/DBN.BMP,WildCard_Ex,0.4296875,0.057291667,1,0,0,1.2359,optionRight,95,4380,2,32,0,32,0,1,,,,,,,,,,,,,,,,,,,,,,,,,,,,,,,,,,,,,,,
,,,,,,,59ba6e9162b30d0001b7acab,2023-08-16_09h03.42.050,HF_wild_card,2022.2.4,Win32,60.0024001,59ba6e9162b30d0001b7acab,64d2fd46c836a06233681665,64dc7e031e71c1d50c779dc3,,,,,,,sngl,resources/Empty.png,resources/DBN.BMP,WildCard_Ex,0.42578125,0.009114583,1,0,0,1.1063,optionRight,5,4385,2,33,0,33,0,1,,,,,,,,,,,,,,,,,,,,,,,,,,,,,,,,,,,,,,,
,,,,,,,59ba6e9162b30d0001b7acab,2023-08-16_09h03.42.050,HF_wild_card,2022.2.4,Win32,60.0024001,59ba6e9162b30d0001b7acab,64d2fd46c836a06233681665,64dc7e031e71c1d50c779dc3,,,,,,,sngl,resources/DP.BMP,resources/Empty.png,Door4,-0.544270833,0.015625,1,0,0,0.8747,optionLeft,60,4445,2,34,0,34,0,1,,,,,,,,,,,,,,,,,,,,,,,,,,,,,,,,,,,,,,,
,,,,,,,59ba6e9162b30d0001b7acab,2023-08-16_09h03.42.050,HF_wild_card,2022.2.4,Win32,60.0024001,59ba6e9162b30d0001b7acab,64d2fd46c836a06233681665,64dc7e031e71c1d50c779dc3,,,,,,,ctch,resources/DB.BMP,resources/DP.BMP,Door4,0.360677083,-0.010416667,1,0,0,3.4129,optionRight,60,4505,2,35,0,35,0,1,,,,,,,,,,,,,,,,,,,,,,,,,,,,,,,,,,,,,,,
,,,,,,,59ba6e9162b30d0001b7acab,2023-08-16_09h03.42.050,HF_wild_card,2022.2.4,Win32,60.0024001,59ba6e9162b30d0001b7acab,64d2fd46c836a06233681665,64dc7e031e71c1d50c779dc3,,,,,,,ctch,resources/DP.BMP,resources/DB.BMP,Door1,0.420572917,-0.069010417,1,0,0,3.1332,optionRight,30,4535,2,36,0,36,0,1,,,,,,,,,,,,,,,,,,,,,,,,,,,,,,,,,,,,,,,
,,,,,,,59ba6e9162b30d0001b7acab,2023-08-16_09h03.42.050,HF_wild_card,2022.2.4,Win32,60.0024001,59ba6e9162b30d0001b7acab,64d2fd46c836a06233681665,64dc7e031e71c1d50c779dc3,,,,,,,decisionTrl,resources/DR.BMP,resources/DP.BMP,Door4,0.447916667,-0.041666667,1,0,0,2.7735,optionRight,60,4595,2,37,0,37,0,1,,,,,,,,,,,,,,,,,,,,,,,,,,,,,,,,,,,,,,,
,,,,,,,59ba6e9162b30d0001b7acab,2023-08-16_09h03.42.050,HF_wild_card,2022.2.4,Win32,60.0024001,59ba6e9162b30d0001b7acab,64d2fd46c836a06233681665,64dc7e031e71c1d50c779dc3,,,,,,,decisionTrl,resources/DP.BMP,resources/DR.BMP,Door4,-0.444010417,0.02734375,1,0,0,2.014,optionLeft,80,4675,2,38,0,38,0,1,,,,,,,,,,,,,,,,,,,,,,,,,,,,,,,,,,,,,,,
,,,,,,,59ba6e9162b30d0001b7acab,2023-08-16_09h03.42.050,HF_wild_card,2022.2.4,Win32,60.0024001,59ba6e9162b30d0001b7acab,64d2fd46c836a06233681665,64dc7e031e71c1d50c779dc3,,,,,,,decisionTrl,resources/DB.BMP,resources/DG.BMP,Door1,-0.375,-0.063802083,1,0,0,3.4103,optionLeft,30,4705,2,39,0,39,0,1,,,,,,,,,,,,,,,,,,,,,,,,,,,,,,,,,,,,,,,
,,,,,,,59ba6e9162b30d0001b7acab,2023-08-16_09h03.42.050,HF_wild_card,2022.2.4,Win32,60.0024001,59ba6e9162b30d0001b7acab,64d2fd46c836a06233681665,64dc7e031e71c1d50c779dc3,,,,,,,decisionTrl,resources/DP.BMP,resources/DR.BMP,Door4,-0.311197917,0.037760417,1,0,0,2.8972,optionLeft,80,4785,2,40,0,40,0,1,,,,,,,,,,,,,,,,,,,,,,,,,,,,,,,,,,,,,,,
,,,,,,,59ba6e9162b30d0001b7acab,2023-08-16_09h03.42.050,HF_wild_card,2022.2.4,Win32,60.0024001,59ba6e9162b30d0001b7acab,64d2fd46c836a06233681665,64dc7e031e71c1d50c779dc3,,,,,,,sngl,resources/Empty.png,resources/DP.BMP,Door4,0.470052083,-0.022135417,1,0,0,1.1607,optionRight,80,4865,2,41,0,41,0,1,,,,,,,,,,,,,,,,,,,,,,,,,,,,,,,,,,,,,,,
,,,,,,,59ba6e9162b30d0001b7acab,2023-08-16_09h03.42.050,HF_wild_card,2022.2.4,Win32,60.0024001,59ba6e9162b30d0001b7acab,64d2fd46c836a06233681665,64dc7e031e71c1d50c779dc3,,,,,,,decisionTrl,resources/DB.BMP,resources/DG.BMP,Door1,-0.37890625,0.026041667,1,0,0,4.0607,optionLeft,30,4895,2,42,0,42,0,1,,,,,,,,,,,,,,,,,,,,,,,,,,,,,,,,,,,,,,,
,,,,,,,59ba6e9162b30d0001b7acab,2023-08-16_09h03.42.050,HF_wild_card,2022.2.4,Win32,60.0024001,59ba6e9162b30d0001b7acab,64d2fd46c836a06233681665,64dc7e031e71c1d50c779dc3,,,,,,,ctch,resources/DG.BMP,resources/DR.BMP,Door3,0.430989583,-0.032552083,1,0,0,1.7095,optionRight,70,4965,2,43,0,43,0,1,,,,,,,,,,,,,,,,,,,,,,,,,,,,,,,,,,,,,,,
,,,,,,,59ba6e9162b30d0001b7acab,2023-08-16_09h03.42.050,HF_wild_card,2022.2.4,Win32,60.0024001,59ba6e9162b30d0001b7acab,64d2fd46c836a06233681665,64dc7e031e71c1d50c779dc3,,,,,,,,,,,,,,,,,,,,,,,,,,1,0,1,0,1,,,,,,,,,,,,,,,,,,,,,,,,,,,,,,,,,,
,,,,,,,59ba6e9162b30d0001b7acab,2023-08-16_09h03.42.050,HF_wild_card,2022.2.4,Win32,60.0024001,59ba6e9162b30d0001b7acab,64d2fd46c836a06233681665,64dc7e031e71c1d50c779dc3,,,,,,,decisionTrl,resources/DR.BMP,resources/DP.BMP,Door4,0.423177083,-0.053385417,1,0,0,3.5578,optionRight,60,5025,3,0,0,0,0,1,,,,,,,,,,,,,,,,,,,,,,,,,,,,,,,,,,,,,,,
,,,,,,,59ba6e9162b30d0001b7acab,2023-08-16_09h03.42.050,HF_wild_card,2022.2.4,Win32,60.0024001,59ba6e9162b30d0001b7acab,64d2fd46c836a06233681665,64dc7e031e71c1d50c779dc3,,,,,,,decisionTrl,resources/DG.BMP,resources/DB.BMP,Door1,0.479166667,-0.015625,1,0,0,5.527,optionRight,30,5055,3,1,0,1,0,1,,,,,,,,,,,,,,,,,,,,,,,,,,,,,,,,,,,,,,,
,,,,,,,59ba6e9162b30d0001b7acab,2023-08-16_09h03.42.050,HF_wild_card,2022.2.4,Win32,60.0024001,59ba6e9162b30d0001b7acab,64d2fd46c836a06233681665,64dc7e031e71c1d50c779dc3,,,,,,,decisionTrl,resources/DBN.BMP,resources/DR.BMP,WildCard_Ex,-0.436197917,0.063802083,1,0,0,1.8762,optionLeft,95,5150,3,2,0,2,0,1,,,,,,,,,,,,,,,,,,,,,,,,,,,,,,,,,,,,,,,
,,,,,,,59ba6e9162b30d0001b7acab,2023-08-16_09h03.42.050,HF_wild_card,2022.2.4,Win32,60.0024001,59ba6e9162b30d0001b7acab,64d2fd46c836a06233681665,64dc7e031e71c1d50c779dc3,,,,,,,decisionTrl,resources/DBN.BMP,resources/DP.BMP,WildCard_Ex,-0.35546875,0.005208333,1,0,0,5.7747,optionLeft,95,5245,3,3,0,3,0,1,,,,,,,,,,,,,,,,,,,,,,,,,,,,,,,,,,,,,,,
,,,,,,,59ba6e9162b30d0001b7acab,2023-08-16_09h03.42.050,HF_wild_card,2022.2.4,Win32,60.0024001,59ba6e9162b30d0001b7acab,64d2fd46c836a06233681665,64dc7e031e71c1d50c779dc3,,,,,,,ctch,resources/DR.BMP,resources/DG.BMP,Door3,-0.412760417,-0.036458333,1,0,0,5.0116,optionLeft,70,5315,3,4,0,4,0,1,,,,,,,,,,,,,,,,,,,,,,,,,,,,,,,,,,,,,,,
,,,,,,,59ba6e9162b30d0001b7acab,2023-08-16_09h03.42.050,HF_wild_card,2022.2.4,Win32,60.0024001,59ba6e9162b30d0001b7acab,64d2fd46c836a06233681665,64dc7e031e71c1d50c779dc3,,,,,,,decisionTrl,resources/DP.BMP,resources/DBN.BMP,WildCard_Ex,0.42578125,0.01953125,1,0,0,4.7212,optionRight,95,5410,3,5,0,5,0,1,,,,,,,,,,,,,,,,,,,,,,,,,,,,,,,,,,,,,,,
,,,,,,,59ba6e9162b30d0001b7acab,2023-08-16_09h03.42.050,HF_wild_card,2022.2.4,Win32,60.0024001,59ba6e9162b30d0001b7acab,64d2fd46c836a06233681665,64dc7e031e71c1d50c779dc3,,,,,,,sngl,resources/DB.BMP,resources/Empty.png,Door1,-0.4296875,-0.001302083,1,0,0,1.0251,optionLeft,30,5440,3,6,0,6,0,1,,,,,,,,,,,,,,,,,,,,,,,,,,,,,,,,,,,,,,,
,,,,,,,59ba6e9162b30d0001b7acab,2023-08-16_09h03.42.050,HF_wild_card,2022.2.4,Win32,60.0024001,59ba6e9162b30d0001b7acab,64d2fd46c836a06233681665,64dc7e031e71c1d50c779dc3,,,,,,,decisionTrl,resources/DP.BMP,resources/DR.BMP,Door4,-0.330729167,-0.01953125,1,0,0,6.6697,optionLeft,60,5500,3,7,0,7,0,1,,,,,,,,,,,,,,,,,,,,,,,,,,,,,,,,,,,,,,,
,,,,,,,59ba6e9162b30d0001b7acab,2023-08-16_09h03.42.050,HF_wild_card,2022.2.4,Win32,60.0024001,59ba6e9162b30d0001b7acab,64d2fd46c836a06233681665,64dc7e031e71c1d50c779dc3,,,,,,,decisionTrl,resources/DR.BMP,resources/DP.BMP,Door3,-0.341145833,0.002604167,1,0,0,6.1775,optionLeft,70,5570,3,8,0,8,0,1,,,,,,,,,,,,,,,,,,,,,,,,,,,,,,,,,,,,,,,
,,,,,,,59ba6e9162b30d0001b7acab,2023-08-16_09h03.42.050,HF_wild_card,2022.2.4,Win32,60.0024001,59ba6e9162b30d0001b7acab,64d2fd46c836a06233681665,64dc7e031e71c1d50c779dc3,,,,,,,sngl,resources/DR.BMP,resources/Empty.png,Door3,-0.377604167,-0.009114583,1,0,0,0.9598,optionLeft,70,5640,3,9,0,9,0,1,,,,,,,,,,,,,,,,,,,,,,,,,,,,,,,,,,,,,,,
,,,,,,,59ba6e9162b30d0001b7acab,2023-08-16_09h03.42.050,HF_wild_card,2022.2.4,Win32,60.0024001,59ba6e9162b30d0001b7acab,64d2fd46c836a06233681665,64dc7e031e71c1d50c779dc3,,,,,,,decisionTrl,resources/DB.BMP,resources/DG.BMP,Door1,-0.454427083,0.00390625,1,0,0,3.107,optionLeft,30,5670,3,10,0,10,0,1,,,,,,,,,,,,,,,,,,,,,,,,,,,,,,,,,,,,,,,
,,,,,,,59ba6e9162b30d0001b7acab,2023-08-16_09h03.42.050,HF_wild_card,2022.2.4,Win32,60.0024001,59ba6e9162b30d0001b7acab,64d2fd46c836a06233681665,64dc7e031e71c1d50c779dc3,,,,,,,sngl,resources/Empty.png,resources/DP.BMP,Door4,0.36328125,-0.057291667,1,0,0,1.0586,optionRight,60,5730,3,11,0,11,0,1,,,,,,,,,,,,,,,,,,,,,,,,,,,,,,,,,,,,,,,
,,,,,,,59ba6e9162b30d0001b7acab,2023-08-16_09h03.42.050,HF_wild_card,2022.2.4,Win32,60.0024001,59ba6e9162b30d0001b7acab,64d2fd46c836a06233681665,64dc7e031e71c1d50c779dc3,,,,,,,ctch,resources/DB.BMP,resources/DP.BMP,Door1,0.001302083,0,1,0,0,0.7106,optionLeft,30,5760,3,12,0,12,0,1,,,,,,,,,,,,,,,,,,,,,,,,,,,,,,,,,,,,,,,
,,,,,,,59ba6e9162b30d0001b7acab,2023-08-16_09h03.42.050,HF_wild_card,2022.2.4,Win32,60.0024001,59ba6e9162b30d0001b7acab,64d2fd46c836a06233681665,64dc7e031e71c1d50c779dc3,,,,,,,decisionTrl,resources/DB.BMP,resources/DG.BMP,Door1,-0.368489583,0.005208333,1,0,0,2.4819,optionLeft,30,5790,3,13,0,13,0,1,,,,,,,,,,,,,,,,,,,,,,,,,,,,,,,,,,,,,,,
,,,,,,,59ba6e9162b30d0001b7acab,2023-08-16_09h03.42.050,HF_wild_card,2022.2.4,Win32,60.0024001,59ba6e9162b30d0001b7acab,64d2fd46c836a06233681665,64dc7e031e71c1d50c779dc3,,,,,,,ctch,resources/DR.BMP,resources/DG.BMP,Door3,-0.361979167,-0.002604167,1,0,0,2.2457,optionLeft,70,5860,3,14,0,14,0,1,,,,,,,,,,,,,,,,,,,,,,,,,,,,,,,,,,,,,,,
,,,,,,,59ba6e9162b30d0001b7acab,2023-08-16_09h03.42.050,HF_wild_card,2022.2.4,Win32,60.0024001,59ba6e9162b30d0001b7acab,64d2fd46c836a06233681665,64dc7e031e71c1d50c779dc3,,,,,,,sngl,resources/DBN.BMP,resources/Empty.png,WildCard_Ex,-0.436197917,0.016927083,1,0,0,0.9639,optionLeft,95,5955,3,15,0,15,0,1,,,,,,,,,,,,,,,,,,,,,,,,,,,,,,,,,,,,,,,
,,,,,,,59ba6e9162b30d0001b7acab,2023-08-16_09h03.42.050,HF_wild_card,2022.2.4,Win32,60.0024001,59ba6e9162b30d0001b7acab,64d2fd46c836a06233681665,64dc7e031e71c1d50c779dc3,,,,,,,sngl,resources/Empty.png,resources/DBN.BMP,WildCard_Ex,0.3515625,-0.016927083,1,0,0,0.9096,optionRight,5,5960,3,16,0,16,0,1,,,,,,,,,,,,,,,,,,,,,,,,,,,,,,,,,,,,,,,
,,,,,,,59ba6e9162b30d0001b7acab,2023-08-16_09h03.42.050,HF_wild_card,2022.2.4,Win32,60.0024001,59ba6e9162b30d0001b7acab,64d2fd46c836a06233681665,64dc7e031e71c1d50c779dc3,,,,,,,decisionTrl,resources/DR.BMP,resources/DBN.BMP,WildCard_Ex,0.40625,-0.0234375,1,0,0,3.859,optionRight,5,5965,3,17,0,17,0,1,,,,,,,,,,,,,,,,,,,,,,,,,,,,,,,,,,,,,,,
,,,,,,,59ba6e9162b30d0001b7acab,2023-08-16_09h03.42.050,HF_wild_card,2022.2.4,Win32,60.0024001,59ba6e9162b30d0001b7acab,64d2fd46c836a06233681665,64dc7e031e71c1d50c779dc3,,,,,,,sngl,resources/DG.BMP,resources/Empty.png,Door2,-0.520833333,-0.046875,1,0,0,0.9929,optionLeft,40,6005,3,18,0,18,0,1,,,,,,,,,,,,,,,,,,,,,,,,,,,,,,,,,,,,,,,
,,,,,,,59ba6e9162b30d0001b7acab,2023-08-16_09h03.42.050,HF_wild_card,2022.2.4,Win32,60.0024001,59ba6e9162b30d0001b7acab,64d2fd46c836a06233681665,64dc7e031e71c1d50c779dc3,,,,,,,sngl,resources/DBN.BMP,resources/Empty.png,WildCard_Ex,-0.45703125,0.018229167,1,0,0,0.8325,optionLeft,5,6010,3,19,0,19,0,1,,,,,,,,,,,,,,,,,,,,,,,,,,,,,,,,,,,,,,,
,,,,,,,59ba6e9162b30d0001b7acab,2023-08-16_09h03.42.050,HF_wild_card,2022.2.4,Win32,60.0024001,59ba6e9162b30d0001b7acab,64d2fd46c836a06233681665,64dc7e031e71c1d50c779dc3,,,,,,,decisionTrl,resources/DG.BMP,resources/DBN.BMP,Door2,-0.4375,-0.009114583,1,0,0,4.227,optionLeft,20,6030,3,20,0,20,0,1,,,,,,,,,,,,,,,,,,,,,,,,,,,,,,,,,,,,,,,
,,,,,,,59ba6e9162b30d0001b7acab,2023-08-16_09h03.42.050,HF_wild_card,2022.2.4,Win32,60.0024001,59ba6e9162b30d0001b7acab,64d2fd46c836a06233681665,64dc7e031e71c1d50c779dc3,,,,,,,ctch,resources/DB.BMP,resources/DP.BMP,Door4,0.524739583,-0.033854167,1,0,0,0.9133,optionRight,60,6090,3,21,0,21,0,1,,,,,,,,,,,,,,,,,,,,,,,,,,,,,,,,,,,,,,,
,,,,,,,59ba6e9162b30d0001b7acab,2023-08-16_09h03.42.050,HF_wild_card,2022.2.4,Win32,60.0024001,59ba6e9162b30d0001b7acab,64d2fd46c836a06233681665,64dc7e031e71c1d50c779dc3,,,,,,,decisionTrl,resources/DG.BMP,resources/DB.BMP,Door1,0.395833333,0.00390625,1,0,0,1.4433,optionRight,30,6120,3,22,0,22,0,1,,,,,,,,,,,,,,,,,,,,,,,,,,,,,,,,,,,,,,,
,,,,,,,59ba6e9162b30d0001b7acab,2023-08-16_09h03.42.050,HF_wild_card,2022.2.4,Win32,60.0024001,59ba6e9162b30d0001b7acab,64d2fd46c836a06233681665,64dc7e031e71c1d50c779dc3,,,,,,,decisionTrl,resources/DR.BMP,resources/DP.BMP,Door3,-0.415364583,0.009114583,1,0,0,1.3936,optionLeft,70,6190,3,23,0,23,0,1,,,,,,,,,,,,,,,,,,,,,,,,,,,,,,,,,,,,,,,
,,,,,,,59ba6e9162b30d0001b7acab,2023-08-16_09h03.42.050,HF_wild_card,2022.2.4,Win32,60.0024001,59ba6e9162b30d0001b7acab,64d2fd46c836a06233681665,64dc7e031e71c1d50c779dc3,,,,,,,decisionTrl,resources/DG.BMP,resources/DB.BMP,Door2,-0.346354167,0.015625,1,0,0,1.3269,optionLeft,20,6210,3,24,0,24,0,1,,,,,,,,,,,,,,,,,,,,,,,,,,,,,,,,,,,,,,,
,,,,,,,59ba6e9162b30d0001b7acab,2023-08-16_09h03.42.050,HF_wild_card,2022.2.4,Win32,60.0024001,59ba6e9162b30d0001b7acab,64d2fd46c836a06233681665,64dc7e031e71c1d50c779dc3,,,,,,,decisionTrl,resources/DG.BMP,resources/DB.BMP,Door1,0.385416667,-0.07421875,1,0,0,0.8945,optionRight,30,6240,3,25,0,25,0,1,,,,,,,,,,,,,,,,,,,,,,,,,,,,,,,,,,,,,,,
,,,,,,,59ba6e9162b30d0001b7acab,2023-08-16_09h03.42.050,HF_wild_card,2022.2.4,Win32,60.0024001,59ba6e9162b30d0001b7acab,64d2fd46c836a06233681665,64dc7e031e71c1d50c779dc3,,,,,,,decisionTrl,resources/DBN.BMP,resources/DG.BMP,WildCard_Ex,-0.446614583,0.041666667,1,0,0,0.8305,optionLeft,5,6245,3,26,0,26,0,1,,,,,,,,,,,,,,,,,,,,,,,,,,,,,,,,,,,,,,,
,,,,,,,59ba6e9162b30d0001b7acab,2023-08-16_09h03.42.050,HF_wild_card,2022.2.4,Win32,60.0024001,59ba6e9162b30d0001b7acab,64d2fd46c836a06233681665,64dc7e031e71c1d50c779dc3,,,,,,,sngl,resources/Empty.png,resources/DB.BMP,Door1,0.401041667,-0.05859375,1,0,0,0.8262,optionRight,30,6275,3,27,0,27,0,1,,,,,,,,,,,,,,,,,,,,,,,,,,,,,,,,,,,,,,,
,,,,,,,59ba6e9162b30d0001b7acab,2023-08-16_09h03.42.050,HF_wild_card,2022.2.4,Win32,60.0024001,59ba6e9162b30d0001b7acab,64d2fd46c836a06233681665,64dc7e031e71c1d50c779dc3,,,,,,,ctch,resources/DP.BMP,resources/DB.BMP,Door4,-0.342447917,0.022135417,1,0,0,0.7781,optionLeft,60,6335,3,28,0,28,0,1,,,,,,,,,,,,,,,,,,,,,,,,,,,,,,,,,,,,,,,
,,,,,,,59ba6e9162b30d0001b7acab,2023-08-16_09h03.42.050,HF_wild_card,2022.2.4,Win32,60.0024001,59ba6e9162b30d0001b7acab,64d2fd46c836a06233681665,64dc7e031e71c1d50c779dc3,,,,,,,ctch,resources/DG.BMP,resources/DR.BMP,Door3,0.399739583,-0.014322917,1,0,0,0.895,optionRight,70,6405,3,29,0,29,0,1,,,,,,,,,,,,,,,,,,,,,,,,,,,,,,,,,,,,,,,
,,,,,,,59ba6e9162b30d0001b7acab,2023-08-16_09h03.42.050,HF_wild_card,2022.2.4,Win32,60.0024001,59ba6e9162b30d0001b7acab,64d2fd46c836a06233681665,64dc7e031e71c1d50c779dc3,,,,,,,decisionTrl,resources/DBN.BMP,resources/DB.BMP,WildCard_Ex,-0.471354167,0.0234375,1,0,0,0.9818,optionLeft,5,6410,3,30,0,30,0,1,,,,,,,,,,,,,,,,,,,,,,,,,,,,,,,,,,,,,,,
,,,,,,,59ba6e9162b30d0001b7acab,2023-08-16_09h03.42.050,HF_wild_card,2022.2.4,Win32,60.0024001,59ba6e9162b30d0001b7acab,64d2fd46c836a06233681665,64dc7e031e71c1d50c779dc3,,,,,,,ctch,resources/DP.BMP,resources/DB.BMP,Door4,-0.381510417,-0.022135417,1,0,0,0.8472,optionLeft,60,6470,3,31,0,31,0,1,,,,,,,,,,,,,,,,,,,,,,,,,,,,,,,,,,,,,,,
,,,,,,,59ba6e9162b30d0001b7acab,2023-08-16_09h03.42.050,HF_wild_card,2022.2.4,Win32,60.0024001,59ba6e9162b30d0001b7acab,64d2fd46c836a06233681665,64dc7e031e71c1d50c779dc3,,,,,,,decisionTrl,resources/DP.BMP,resources/DR.BMP,Door4,-0.341145833,0.006510417,1,0,0,0.78,optionLeft,60,6530,3,32,0,32,0,1,,,,,,,,,,,,,,,,,,,,,,,,,,,,,,,,,,,,,,,
,,,,,,,59ba6e9162b30d0001b7acab,2023-08-16_09h03.42.050,HF_wild_card,2022.2.4,Win32,60.0024001,59ba6e9162b30d0001b7acab,64d2fd46c836a06233681665,64dc7e031e71c1d50c779dc3,,,,,,,ctch,resources/DG.BMP,resources/DR.BMP,Door3,0.447916667,-0.0859375,1,0,0,1.2137,optionRight,70,6600,3,33,0,33,0,1,,,,,,,,,,,,,,,,,,,,,,,,,,,,,,,,,,,,,,,
,,,,,,,59ba6e9162b30d0001b7acab,2023-08-16_09h03.42.050,HF_wild_card,2022.2.4,Win32,60.0024001,59ba6e9162b30d0001b7acab,64d2fd46c836a06233681665,64dc7e031e71c1d50c779dc3,,,,,,,decisionTrl,resources/DB.BMP,resources/DG.BMP,Door1,-0.337239583,-0.009114583,1,0,0,1.1298,optionLeft,30,6630,3,34,0,34,0,1,,,,,,,,,,,,,,,,,,,,,,,,,,,,,,,,,,,,,,,
,,,,,,,59ba6e9162b30d0001b7acab,2023-08-16_09h03.42.050,HF_wild_card,2022.2.4,Win32,60.0024001,59ba6e9162b30d0001b7acab,64d2fd46c836a06233681665,64dc7e031e71c1d50c779dc3,,,,,,,decisionTrl,resources/DB.BMP,resources/DBN.BMP,WildCard_Ex,0.356770833,-0.045572917,1,0,0,0.9266,optionRight,95,6725,3,35,0,35,0,1,,,,,,,,,,,,,,,,,,,,,,,,,,,,,,,,,,,,,,,
,,,,,,,59ba6e9162b30d0001b7acab,2023-08-16_09h03.42.050,HF_wild_card,2022.2.4,Win32,60.0024001,59ba6e9162b30d0001b7acab,64d2fd46c836a06233681665,64dc7e031e71c1d50c779dc3,,,,,,,decisionTrl,resources/DP.BMP,resources/DR.BMP,Door3,0.34765625,-0.0546875,1,0,0,1.127,optionRight,70,6795,3,36,0,36,0,1,,,,,,,,,,,,,,,,,,,,,,,,,,,,,,,,,,,,,,,
,,,,,,,59ba6e9162b30d0001b7acab,2023-08-16_09h03.42.050,HF_wild_card,2022.2.4,Win32,60.0024001,59ba6e9162b30d0001b7acab,64d2fd46c836a06233681665,64dc7e031e71c1d50c779dc3,,,,,,,sngl,resources/Empty.png,resources/DBN.BMP,WildCard_Ex,0.407552083,-0.018229167,1,0,0,0.7968,optionRight,95,6890,3,37,0,37,0,1,,,,,,,,,,,,,,,,,,,,,,,,,,,,,,,,,,,,,,,
,,,,,,,59ba6e9162b30d0001b7acab,2023-08-16_09h03.42.050,HF_wild_card,2022.2.4,Win32,60.0024001,59ba6e9162b30d0001b7acab,64d2fd46c836a06233681665,64dc7e031e71c1d50c779dc3,,,,,,,sngl,resources/Empty.png,resources/DR.BMP,Door3,0.412760417,0.010416667,1,0,0,0.6298,optionRight,70,6960,3,38,0,38,0,1,,,,,,,,,,,,,,,,,,,,,,,,,,,,,,,,,,,,,,,
,,,,,,,59ba6e9162b30d0001b7acab,2023-08-16_09h03.42.050,HF_wild_card,2022.2.4,Win32,60.0024001,59ba6e9162b30d0001b7acab,64d2fd46c836a06233681665,64dc7e031e71c1d50c779dc3,,,,,,,sngl,resources/Empty.png,resources/DG.BMP,Door2,0.41015625,-0.006510417,1,0,0,0.6645,optionRight,20,6980,3,39,0,39,0,1,,,,,,,,,,,,,,,,,,,,,,,,,,,,,,,,,,,,,,,
,,,,,,,59ba6e9162b30d0001b7acab,2023-08-16_09h03.42.050,HF_wild_card,2022.2.4,Win32,60.0024001,59ba6e9162b30d0001b7acab,64d2fd46c836a06233681665,64dc7e031e71c1d50c779dc3,,,,,,,decisionTrl,resources/DR.BMP,resources/DP.BMP,Door3,-0.372395833,-0.06640625,1,0,0,1.097,optionLeft,70,7050,3,40,0,40,0,1,,,,,,,,,,,,,,,,,,,,,,,,,,,,,,,,,,,,,,,
,,,,,,,59ba6e9162b30d0001b7acab,2023-08-16_09h03.42.050,HF_wild_card,2022.2.4,Win32,60.0024001,59ba6e9162b30d0001b7acab,64d2fd46c836a06233681665,64dc7e031e71c1d50c779dc3,,,,,,,sngl,resources/DP.BMP,resources/Empty.png,Door4,-0.328125,0.015625,1,0,0,0.7634,optionLeft,80,7130,3,41,0,41,0,1,,,,,,,,,,,,,,,,,,,,,,,,,,,,,,,,,,,,,,,
,,,,,,,59ba6e9162b30d0001b7acab,2023-08-16_09h03.42.050,HF_wild_card,2022.2.4,Win32,60.0024001,59ba6e9162b30d0001b7acab,64d2fd46c836a06233681665,64dc7e031e71c1d50c779dc3,,,,,,,decisionTrl,resources/DB.BMP,resources/DG.BMP,Door2,0.48046875,-0.08203125,1,0,0,0.9438,optionRight,20,7150,3,42,0,42,0,1,,,,,,,,,,,,,,,,,,,,,,,,,,,,,,,,,,,,,,,
,,,,,,,59ba6e9162b30d0001b7acab,2023-08-16_09h03.42.050,HF_wild_card,2022.2.4,Win32,60.0024001,59ba6e9162b30d0001b7acab,64d2fd46c836a06233681665,64dc7e031e71c1d50c779dc3,,,,,,,decisionTrl,resources/DP.BMP,resources/DR.BMP,Door4,-0.399739583,-0.01953125,1,0,0,0.7921,optionLeft,80,7230,3,43,0,43,0,1,,,,,,,,,,,,,,,,,,,,,,,,,,,,,,,,,,,,,,,
,,,,,,,59ba6e9162b30d0001b7acab,2023-08-16_09h03.42.050,HF_wild_card,2022.2.4,Win32,60.0024001,59ba6e9162b30d0001b7acab,64d2fd46c836a06233681665,64dc7e031e71c1d50c779dc3,,,,,,,,,,,,,,,,,,,,,,,,,,2,0,2,0,1,,,,,,,,,,,,,,,,,,,,,,,,,,,,,,,,,,
,,,,,,,59ba6e9162b30d0001b7acab,2023-08-16_09h03.42.050,HF_wild_card,2022.2.4,Win32,60.0024001,59ba6e9162b30d0001b7acab,64d2fd46c836a06233681665,64dc7e031e71c1d50c779dc3,,,,,,,sngl,resources/Empty.png,resources/DY.BMP,WildCard_NonEx,0.4140625,-0.024739583,1,0,0,3.8822,optionRight,55,7285,4,0,0,0,0,1,,,,,,,,,,,,,,,,,,,,,,,,,,,,,,,,,,,,,,,
,,,,,,,59ba6e9162b30d0001b7acab,2023-08-16_09h03.42.050,HF_wild_card,2022.2.4,Win32,60.0024001,59ba6e9162b30d0001b7acab,64d2fd46c836a06233681665,64dc7e031e71c1d50c779dc3,,,,,,,ctch,resources/DR.BMP,resources/DG.BMP,Door3,-0.484375,0,1,0,0,1.2104,optionLeft,70,7355,4,1,0,1,0,1,,,,,,,,,,,,,,,,,,,,,,,,,,,,,,,,,,,,,,,
,,,,,,,59ba6e9162b30d0001b7acab,2023-08-16_09h03.42.050,HF_wild_card,2022.2.4,Win32,60.0024001,59ba6e9162b30d0001b7acab,64d2fd46c836a06233681665,64dc7e031e71c1d50c779dc3,,,,,,,ctch,resources/DG.BMP,resources/DR.BMP,Door3,0.3984375,-0.053385417,1,0,0,1.0131,optionRight,70,7425,4,2,0,2,0,1,,,,,,,,,,,,,,,,,,,,,,,,,,,,,,,,,,,,,,,
,,,,,,,59ba6e9162b30d0001b7acab,2023-08-16_09h03.42.050,HF_wild_card,2022.2.4,Win32,60.0024001,59ba6e9162b30d0001b7acab,64d2fd46c836a06233681665,64dc7e031e71c1d50c779dc3,,,,,,,sngl,resources/DY.BMP,resources/Empty.png,WildCard_NonEx,-0.438802083,-0.010416667,1,0,0,1.7778,optionLeft,55,7480,4,3,0,3,0,1,,,,,,,,,,,,,,,,,,,,,,,,,,,,,,,,,,,,,,,
,,,,,,,59ba6e9162b30d0001b7acab,2023-08-16_09h03.42.050,HF_wild_card,2022.2.4,Win32,60.0024001,59ba6e9162b30d0001b7acab,64d2fd46c836a06233681665,64dc7e031e71c1d50c779dc3,,,,,,,decisionTrl,resources/DY.BMP,resources/DB.BMP,WildCard_NonEx,-0.459635417,0.024739583,1,0,0,3.0642,optionLeft,55,7535,4,4,0,4,0,1,,,,,,,,,,,,,,,,,,,,,,,,,,,,,,,,,,,,,,,
,,,,,,,59ba6e9162b30d0001b7acab,2023-08-16_09h03.42.050,HF_wild_card,2022.2.4,Win32,60.0024001,59ba6e9162b30d0001b7acab,64d2fd46c836a06233681665,64dc7e031e71c1d50c779dc3,,,,,,,ctch,resources/DG.BMP,resources/DR.BMP,Door3,0.447916667,-0.020833333,1,0,0,0.9942,optionRight,70,7605,4,5,0,5,0,1,,,,,,,,,,,,,,,,,,,,,,,,,,,,,,,,,,,,,,,
,,,,,,,59ba6e9162b30d0001b7acab,2023-08-16_09h03.42.050,HF_wild_card,2022.2.4,Win32,60.0024001,59ba6e9162b30d0001b7acab,64d2fd46c836a06233681665,64dc7e031e71c1d50c779dc3,,,,,,,decisionTrl,resources/DP.BMP,resources/DR.BMP,Door3,0.401041667,-0.045572917,1,0,0,0.9439,optionRight,70,7675,4,6,0,6,0,1,,,,,,,,,,,,,,,,,,,,,,,,,,,,,,,,,,,,,,,
,,,,,,,59ba6e9162b30d0001b7acab,2023-08-16_09h03.42.050,HF_wild_card,2022.2.4,Win32,60.0024001,59ba6e9162b30d0001b7acab,64d2fd46c836a06233681665,64dc7e031e71c1d50c779dc3,,,,,,,decisionTrl,resources/DG.BMP,resources/DY.BMP,WildCard_NonEx,0.385416667,-0.061197917,1,0,0,1.0771,optionRight,55,7730,4,7,0,7,0,1,,,,,,,,,,,,,,,,,,,,,,,,,,,,,,,,,,,,,,,
,,,,,,,59ba6e9162b30d0001b7acab,2023-08-16_09h03.42.050,HF_wild_card,2022.2.4,Win32,60.0024001,59ba6e9162b30d0001b7acab,64d2fd46c836a06233681665,64dc7e031e71c1d50c779dc3,,,,,,,decisionTrl,resources/DY.BMP,resources/DP.BMP,WildCard_NonEx,-0.466145833,-0.009114583,1,0,0,1.6609,optionLeft,45,7775,4,8,0,8,0,1,,,,,,,,,,,,,,,,,,,,,,,,,,,,,,,,,,,,,,,
,,,,,,,59ba6e9162b30d0001b7acab,2023-08-16_09h03.42.050,HF_wild_card,2022.2.4,Win32,60.0024001,59ba6e9162b30d0001b7acab,64d2fd46c836a06233681665,64dc7e031e71c1d50c779dc3,,,,,,,ctch,resources/DP.BMP,resources/DB.BMP,Door4,-0.3984375,0.010416667,1,0,0,0.9765,optionLeft,60,7835,4,9,0,9,0,1,,,,,,,,,,,,,,,,,,,,,,,,,,,,,,,,,,,,,,,
,,,,,,,59ba6e9162b30d0001b7acab,2023-08-16_09h03.42.050,HF_wild_card,2022.2.4,Win32,60.0024001,59ba6e9162b30d0001b7acab,64d2fd46c836a06233681665,64dc7e031e71c1d50c779dc3,,,,,,,decisionTrl,resources/DB.BMP,resources/DG.BMP,Door2,0.37890625,-0.083333333,1,0,0,1.1134,optionRight,20,7855,4,10,0,10,0,1,,,,,,,,,,,,,,,,,,,,,,,,,,,,,,,,,,,,,,,
,,,,,,,59ba6e9162b30d0001b7acab,2023-08-16_09h03.42.050,HF_wild_card,2022.2.4,Win32,60.0024001,59ba6e9162b30d0001b7acab,64d2fd46c836a06233681665,64dc7e031e71c1d50c779dc3,,,,,,,decisionTrl,resources/DG.BMP,resources/DB.BMP,Door1,0.345052083,-0.013020833,1,0,0,0.894,optionRight,30,7885,4,11,0,11,0,1,,,,,,,,,,,,,,,,,,,,,,,,,,,,,,,,,,,,,,,
,,,,,,,59ba6e9162b30d0001b7acab,2023-08-16_09h03.42.050,HF_wild_card,2022.2.4,Win32,60.0024001,59ba6e9162b30d0001b7acab,64d2fd46c836a06233681665,64dc7e031e71c1d50c779dc3,,,,,,,decisionTrl,resources/DB.BMP,resources/DG.BMP,Door1,-0.356770833,0.020833333,1,0,0,1.1598,optionLeft,30,7915,4,12,0,12,0,1,,,,,,,,,,,,,,,,,,,,,,,,,,,,,,,,,,,,,,,
,,,,,,,59ba6e9162b30d0001b7acab,2023-08-16_09h03.42.050,HF_wild_card,2022.2.4,Win32,60.0024001,59ba6e9162b30d0001b7acab,64d2fd46c836a06233681665,64dc7e031e71c1d50c779dc3,,,,,,,sngl,resources/Empty.png,resources/DG.BMP,Door2,0.43359375,-0.020833333,1,0,0,1.2256,optionRight,40,7955,4,13,0,13,0,1,,,,,,,,,,,,,,,,,,,,,,,,,,,,,,,,,,,,,,,
,,,,,,,59ba6e9162b30d0001b7acab,2023-08-16_09h03.42.050,HF_wild_card,2022.2.4,Win32,60.0024001,59ba6e9162b30d0001b7acab,64d2fd46c836a06233681665,64dc7e031e71c1d50c779dc3,,,,,,,decisionTrl,resources/DB.BMP,resources/DY.BMP,WildCard_NonEx,0.412760417,-0.0078125,1,0,0,1.3803,optionRight,55,8010,4,14,0,14,0,1,,,,,,,,,,,,,,,,,,,,,,,,,,,,,,,,,,,,,,,
,,,,,,,59ba6e9162b30d0001b7acab,2023-08-16_09h03.42.050,HF_wild_card,2022.2.4,Win32,60.0024001,59ba6e9162b30d0001b7acab,64d2fd46c836a06233681665,64dc7e031e71c1d50c779dc3,,,,,,,sngl,resources/DY.BMP,resources/Empty.png,WildCard_NonEx,-0.401041667,0.005208333,1,0,0,0.9604,optionLeft,45,8055,4,15,0,15,0,1,,,,,,,,,,,,,,,,,,,,,,,,,,,,,,,,,,,,,,,
,,,,,,,59ba6e9162b30d0001b7acab,2023-08-16_09h03.42.050,HF_wild_card,2022.2.4,Win32,60.0024001,59ba6e9162b30d0001b7acab,64d2fd46c836a06233681665,64dc7e031e71c1d50c779dc3,,,,,,,ctch,resources/DP.BMP,resources/DB.BMP,Door4,-0.424479167,-0.009114583,1,0,0,1.0262,optionLeft,80,8135,4,16,0,16,0,1,,,,,,,,,,,,,,,,,,,,,,,,,,,,,,,,,,,,,,,
,,,,,,,59ba6e9162b30d0001b7acab,2023-08-16_09h03.42.050,HF_wild_card,2022.2.4,Win32,60.0024001,59ba6e9162b30d0001b7acab,64d2fd46c836a06233681665,64dc7e031e71c1d50c779dc3,,,,,,,decisionTrl,resources/DR.BMP,resources/DP.BMP,Door3,-0.354166667,-0.02734375,1,0,0,1.5443,optionLeft,70,8205,4,17,0,17,0,1,,,,,,,,,,,,,,,,,,,,,,,,,,,,,,,,,,,,,,,
,,,,,,,59ba6e9162b30d0001b7acab,2023-08-16_09h03.42.050,HF_wild_card,2022.2.4,Win32,60.0024001,59ba6e9162b30d0001b7acab,64d2fd46c836a06233681665,64dc7e031e71c1d50c779dc3,,,,,,,decisionTrl,resources/DY.BMP,resources/DG.BMP,WildCard_NonEx,-0.3671875,0.005208333,1,0,0,0.9273,optionLeft,55,8260,4,18,0,18,0,1,,,,,,,,,,,,,,,,,,,,,,,,,,,,,,,,,,,,,,,
,,,,,,,59ba6e9162b30d0001b7acab,2023-08-16_09h03.42.050,HF_wild_card,2022.2.4,Win32,60.0024001,59ba6e9162b30d0001b7acab,64d2fd46c836a06233681665,64dc7e031e71c1d50c779dc3,,,,,,,decisionTrl,resources/DG.BMP,resources/DB.BMP,Door1,0.432291667,-0.059895833,1,0,0,1.3632,optionRight,30,8290,4,19,0,19,0,1,,,,,,,,,,,,,,,,,,,,,,,,,,,,,,,,,,,,,,,
,,,,,,,59ba6e9162b30d0001b7acab,2023-08-16_09h03.42.050,HF_wild_card,2022.2.4,Win32,60.0024001,59ba6e9162b30d0001b7acab,64d2fd46c836a06233681665,64dc7e031e71c1d50c779dc3,,,,,,,decisionTrl,resources/DB.BMP,resources/DG.BMP,Door1,-0.434895833,0.002604167,1,0,0,1.7769,optionLeft,30,8320,4,20,0,20,0,1,,,,,,,,,,,,,,,,,,,,,,,,,,,,,,,,,,,,,,,
,,,,,,,59ba6e9162b30d0001b7acab,2023-08-16_09h03.42.050,HF_wild_card,2022.2.4,Win32,60.0024001,59ba6e9162b30d0001b7acab,64d2fd46c836a06233681665,64dc7e031e71c1d50c779dc3,,,,,,,sngl,resources/DB.BMP,resources/Empty.png,Door1,-0.420572917,0.005208333,1,0,0,0.978,optionLeft,30,8350,4,21,0,21,0,1,,,,,,,,,,,,,,,,,,,,,,,,,,,,,,,,,,,,,,,
,,,,,,,59ba6e9162b30d0001b7acab,2023-08-16_09h03.42.050,HF_wild_card,2022.2.4,Win32,60.0024001,59ba6e9162b30d0001b7acab,64d2fd46c836a06233681665,64dc7e031e71c1d50c779dc3,,,,,,,decisionTrl,resources/DP.BMP,resources/DR.BMP,Door3,0.434895833,-0.092447917,1,0,0,1.2772,optionRight,70,8420,4,22,0,22,0,1,,,,,,,,,,,,,,,,,,,,,,,,,,,,,,,,,,,,,,,
,,,,,,,59ba6e9162b30d0001b7acab,2023-08-16_09h03.42.050,HF_wild_card,2022.2.4,Win32,60.0024001,59ba6e9162b30d0001b7acab,64d2fd46c836a06233681665,64dc7e031e71c1d50c779dc3,,,,,,,decisionTrl,resources/DP.BMP,resources/DR.BMP,Door3,0.412760417,-0.016927083,1,0,0,1.2244,optionRight,70,8490,4,23,0,23,0,1,,,,,,,,,,,,,,,,,,,,,,,,,,,,,,,,,,,,,,,
,,,,,,,59ba6e9162b30d0001b7acab,2023-08-16_09h03.42.050,HF_wild_card,2022.2.4,Win32,60.0024001,59ba6e9162b30d0001b7acab,64d2fd46c836a06233681665,64dc7e031e71c1d50c779dc3,,,,,,,decisionTrl,resources/DP.BMP,resources/DY.BMP,WildCard_NonEx,0.350260417,-0.072916667,1,0,0,0.9922,optionRight,45,8535,4,24,0,24,0,1,,,,,,,,,,,,,,,,,,,,,,,,,,,,,,,,,,,,,,,
,,,,,,,59ba6e9162b30d0001b7acab,2023-08-16_09h03.42.050,HF_wild_card,2022.2.4,Win32,60.0024001,59ba6e9162b30d0001b7acab,64d2fd46c836a06233681665,64dc7e031e71c1d50c779dc3,,,,,,,ctch,resources/DB.BMP,resources/DP.BMP,Door4,0.356770833,-0.022135417,1,0,0,0.994,optionRight,60,8595,4,25,0,25,0,1,,,,,,,,,,,,,,,,,,,,,,,,,,,,,,,,,,,,,,,
,,,,,,,59ba6e9162b30d0001b7acab,2023-08-16_09h03.42.050,HF_wild_card,2022.2.4,Win32,60.0024001,59ba6e9162b30d0001b7acab,64d2fd46c836a06233681665,64dc7e031e71c1d50c779dc3,,,,,,,sngl,resources/Empty.png,resources/DR.BMP,Door3,0.33984375,-0.026041667,1,0,0,0.8946,optionRight,70,8665,4,26,0,26,0,1,,,,,,,,,,,,,,,,,,,,,,,,,,,,,,,,,,,,,,,
,,,,,,,59ba6e9162b30d0001b7acab,2023-08-16_09h03.42.050,HF_wild_card,2022.2.4,Win32,60.0024001,59ba6e9162b30d0001b7acab,64d2fd46c836a06233681665,64dc7e031e71c1d50c779dc3,,,,,,,sngl,resources/Empty.png,resources/DB.BMP,Door1,0.360677083,-0.046875,1,0,0,0.8423,optionRight,30,8695,4,27,0,27,0,1,,,,,,,,,,,,,,,,,,,,,,,,,,,,,,,,,,,,,,,
,,,,,,,59ba6e9162b30d0001b7acab,2023-08-16_09h03.42.050,HF_wild_card,2022.2.4,Win32,60.0024001,59ba6e9162b30d0001b7acab,64d2fd46c836a06233681665,64dc7e031e71c1d50c779dc3,,,,,,,ctch,resources/DB.BMP,resources/DP.BMP,Door4,0.420572917,-0.03125,1,0,0,1.2075,optionRight,80,8775,4,28,0,28,0,1,,,,,,,,,,,,,,,,,,,,,,,,,,,,,,,,,,,,,,,
,,,,,,,59ba6e9162b30d0001b7acab,2023-08-16_09h03.42.050,HF_wild_card,2022.2.4,Win32,60.0024001,59ba6e9162b30d0001b7acab,64d2fd46c836a06233681665,64dc7e031e71c1d50c779dc3,,,,,,,sngl,resources/Empty.png,resources/DY.BMP,WildCard_NonEx,0.390625,-0.05078125,1,0,0,0.8439,optionRight,45,8820,4,29,0,29,0,1,,,,,,,,,,,,,,,,,,,,,,,,,,,,,,,,,,,,,,,
,,,,,,,59ba6e9162b30d0001b7acab,2023-08-16_09h03.42.050,HF_wild_card,2022.2.4,Win32,60.0024001,59ba6e9162b30d0001b7acab,64d2fd46c836a06233681665,64dc7e031e71c1d50c779dc3,,,,,,,decisionTrl,resources/DG.BMP,resources/DB.BMP,Door1,0.4296875,-0.037760417,1,0,0,1.2095,optionRight,30,8850,4,30,0,30,0,1,,,,,,,,,,,,,,,,,,,,,,,,,,,,,,,,,,,,,,,
,,,,,,,59ba6e9162b30d0001b7acab,2023-08-16_09h03.42.050,HF_wild_card,2022.2.4,Win32,60.0024001,59ba6e9162b30d0001b7acab,64d2fd46c836a06233681665,64dc7e031e71c1d50c779dc3,,,,,,,decisionTrl,resources/DR.BMP,resources/DP.BMP,Door3,-0.408854167,-0.024739583,1,0,0,0.8604,optionLeft,70,8920,4,31,0,31,0,1,,,,,,,,,,,,,,,,,,,,,,,,,,,,,,,,,,,,,,,
,,,,,,,59ba6e9162b30d0001b7acab,2023-08-16_09h03.42.050,HF_wild_card,2022.2.4,Win32,60.0024001,59ba6e9162b30d0001b7acab,64d2fd46c836a06233681665,64dc7e031e71c1d50c779dc3,,,,,,,sngl,resources/DP.BMP,resources/Empty.png,Door4,-0.467447917,0.0390625,1,0,0,0.7807,optionLeft,60,8980,4,32,0,32,0,1,,,,,,,,,,,,,,,,,,,,,,,,,,,,,,,,,,,,,,,
,,,,,,,59ba6e9162b30d0001b7acab,2023-08-16_09h03.42.050,HF_wild_card,2022.2.4,Win32,60.0024001,59ba6e9162b30d0001b7acab,64d2fd46c836a06233681665,64dc7e031e71c1d50c779dc3,,,,,,,decisionTrl,resources/DR.BMP,resources/DY.BMP,WildCard_NonEx,0.467447917,-0.013020833,1,0,0,2.3143,optionRight,45,9025,4,33,0,33,0,1,,,,,,,,,,,,,,,,,,,,,,,,,,,,,,,,,,,,,,,
,,,,,,,59ba6e9162b30d0001b7acab,2023-08-16_09h03.42.050,HF_wild_card,2022.2.4,Win32,60.0024001,59ba6e9162b30d0001b7acab,64d2fd46c836a06233681665,64dc7e031e71c1d50c779dc3,,,,,,,decisionTrl,resources/DB.BMP,resources/DG.BMP,Door1,-0.376302083,0.0078125,1,0,0,1.8308,optionLeft,30,9055,4,34,0,34,0,1,,,,,,,,,,,,,,,,,,,,,,,,,,,,,,,,,,,,,,,
,,,,,,,59ba6e9162b30d0001b7acab,2023-08-16_09h03.42.050,HF_wild_card,2022.2.4,Win32,60.0024001,59ba6e9162b30d0001b7acab,64d2fd46c836a06233681665,64dc7e031e71c1d50c779dc3,,,,,,,decisionTrl,resources/DR.BMP,resources/DP.BMP,Door3,-0.438802083,-0.084635417,1,0,0,1.3103,optionLeft,70,9125,4,35,0,35,0,1,,,,,,,,,,,,,,,,,,,,,,,,,,,,,,,,,,,,,,,
,,,,,,,59ba6e9162b30d0001b7acab,2023-08-16_09h03.42.050,HF_wild_card,2022.2.4,Win32,60.0024001,59ba6e9162b30d0001b7acab,64d2fd46c836a06233681665,64dc7e031e71c1d50c779dc3,,,,,,,decisionTrl,resources/DY.BMP,resources/DR.BMP,WildCard_NonEx,-0.35546875,0.024739583,1,0,0,1.9442,optionLeft,45,9170,4,36,0,36,0,1,,,,,,,,,,,,,,,,,,,,,,,,,,,,,,,,,,,,,,,
,,,,,,,59ba6e9162b30d0001b7acab,2023-08-16_09h03.42.050,HF_wild_card,2022.2.4,Win32,60.0024001,59ba6e9162b30d0001b7acab,64d2fd46c836a06233681665,64dc7e031e71c1d50c779dc3,,,,,,,decisionTrl,resources/DP.BMP,resources/DR.BMP,Door3,0.428385417,0.00390625,1,0,0,0.9773,optionRight,70,9240,4,37,0,37,0,1,,,,,,,,,,,,,,,,,,,,,,,,,,,,,,,,,,,,,,,
,,,,,,,59ba6e9162b30d0001b7acab,2023-08-16_09h03.42.050,HF_wild_card,2022.2.4,Win32,60.0024001,59ba6e9162b30d0001b7acab,64d2fd46c836a06233681665,64dc7e031e71c1d50c779dc3,,,,,,,decisionTrl,resources/DG.BMP,resources/DB.BMP,Door1,0.415364583,-0.009114583,1,0,0,1.1434,optionRight,30,9270,4,38,0,38,0,1,,,,,,,,,,,,,,,,,,,,,,,,,,,,,,,,,,,,,,,
,,,,,,,59ba6e9162b30d0001b7acab,2023-08-16_09h03.42.050,HF_wild_card,2022.2.4,Win32,60.0024001,59ba6e9162b30d0001b7acab,64d2fd46c836a06233681665,64dc7e031e71c1d50c779dc3,,,,,,,ctch,resources/DR.BMP,resources/DG.BMP,Door3,-0.38671875,0.010416667,1,0,0,0.9102,optionLeft,70,9340,4,39,0,39,0,1,,,,,,,,,,,,,,,,,,,,,,,,,,,,,,,,,,,,,,,
,,,,,,,59ba6e9162b30d0001b7acab,2023-08-16_09h03.42.050,HF_wild_card,2022.2.4,Win32,60.0024001,59ba6e9162b30d0001b7acab,64d2fd46c836a06233681665,64dc7e031e71c1d50c779dc3,,,,,,,sngl,resources/DR.BMP,resources/Empty.png,Door3,-0.3828125,0.01171875,1,0,0,0.8606,optionLeft,70,9410,4,40,0,40,0,1,,,,,,,,,,,,,,,,,,,,,,,,,,,,,,,,,,,,,,,
,,,,,,,59ba6e9162b30d0001b7acab,2023-08-16_09h03.42.050,HF_wild_card,2022.2.4,Win32,60.0024001,59ba6e9162b30d0001b7acab,64d2fd46c836a06233681665,64dc7e031e71c1d50c779dc3,,,,,,,decisionTrl,resources/DR.BMP,resources/DP.BMP,Door3,-0.342447917,-0.010416667,1,0,0,1.6594,optionLeft,70,9480,4,41,0,41,0,1,,,,,,,,,,,,,,,,,,,,,,,,,,,,,,,,,,,,,,,
,,,,,,,59ba6e9162b30d0001b7acab,2023-08-16_09h03.42.050,HF_wild_card,2022.2.4,Win32,60.0024001,59ba6e9162b30d0001b7acab,64d2fd46c836a06233681665,64dc7e031e71c1d50c779dc3,,,,,,,sngl,resources/Empty.png,resources/DP.BMP,Door4,0.515625,-0.055989583,1,0,0,0.7758,optionRight,80,9560,4,42,0,42,0,1,,,,,,,,,,,,,,,,,,,,,,,,,,,,,,,,,,,,,,,
,,,,,,,59ba6e9162b30d0001b7acab,2023-08-16_09h03.42.050,HF_wild_card,2022.2.4,Win32,60.0024001,59ba6e9162b30d0001b7acab,64d2fd46c836a06233681665,64dc7e031e71c1d50c779dc3,,,,,,,sngl,resources/DG.BMP,resources/Empty.png,Door2,-0.408854167,0.022135417,1,0,0,0.7607,optionLeft,20,9580,4,43,0,43,0,1,,,,,,,,,,,,,,,,,,,,,,,,,,,,,,,,,,,,,,,
,,,,,,,59ba6e9162b30d0001b7acab,2023-08-16_09h03.42.050,HF_wild_card,2022.2.4,Win32,60.0024001,59ba6e9162b30d0001b7acab,64d2fd46c836a06233681665,64dc7e031e71c1d50c779dc3,,,,,,,,,,,,,,,,,,,,,,,,,,3,0,3,0,1,,,,,,,,,,,,,,,,,,,,,,,,,,,,,,,,,,
,,,,,,,59ba6e9162b30d0001b7acab,2023-08-16_09h03.42.050,HF_wild_card,2022.2.4,Win32,60.0024001,59ba6e9162b30d0001b7acab,64d2fd46c836a06233681665,64dc7e031e71c1d50c779dc3,,,,,,,ctch,resources/DG.BMP,resources/DR.BMP,Door3,0.38671875,-0.049479167,1,0,0,1.9233,optionRight,70,9650,5,0,0,0,0,1,,,,,,,,,,,,,,,,,,,,,,,,,,,,,,,,,,,,,,,
,,,,,,,59ba6e9162b30d0001b7acab,2023-08-16_09h03.42.050,HF_wild_card,2022.2.4,Win32,60.0024001,59ba6e9162b30d0001b7acab,64d2fd46c836a06233681665,64dc7e031e71c1d50c779dc3,,,,,,,decisionTrl,resources/DP.BMP,resources/DR.BMP,Door3,0.462239583,-0.100260417,1,0,0,0.9221,optionRight,70,9720,5,1,0,1,0,1,,,,,,,,,,,,,,,,,,,,,,,,,,,,,,,,,,,,,,,
,,,,,,,59ba6e9162b30d0001b7acab,2023-08-16_09h03.42.050,HF_wild_card,2022.2.4,Win32,60.0024001,59ba6e9162b30d0001b7acab,64d2fd46c836a06233681665,64dc7e031e71c1d50c779dc3,,,,,,,decisionTrl,resources/DY.BMP,resources/DR.BMP,WildCard_NonEx,-0.434895833,0.061197917,1,0,0,0.7961,optionLeft,45,9765,5,2,0,2,0,1,,,,,,,,,,,,,,,,,,,,,,,,,,,,,,,,,,,,,,,
,,,,,,,59ba6e9162b30d0001b7acab,2023-08-16_09h03.42.050,HF_wild_card,2022.2.4,Win32,60.0024001,59ba6e9162b30d0001b7acab,64d2fd46c836a06233681665,64dc7e031e71c1d50c779dc3,,,,,,,decisionTrl,resources/DR.BMP,resources/DP.BMP,Door3,-0.369791667,-0.016927083,1,0,0,0.9321,optionLeft,70,9835,5,3,0,3,0,1,,,,,,,,,,,,,,,,,,,,,,,,,,,,,,,,,,,,,,,
,,,,,,,59ba6e9162b30d0001b7acab,2023-08-16_09h03.42.050,HF_wild_card,2022.2.4,Win32,60.0024001,59ba6e9162b30d0001b7acab,64d2fd46c836a06233681665,64dc7e031e71c1d50c779dc3,,,,,,,decisionTrl,resources/DR.BMP,resources/DP.BMP,Door3,-0.322916667,-0.020833333,1,0,0,0.8932,optionLeft,70,9905,5,4,0,4,0,1,,,,,,,,,,,,,,,,,,,,,,,,,,,,,,,,,,,,,,,
,,,,,,,59ba6e9162b30d0001b7acab,2023-08-16_09h03.42.050,HF_wild_card,2022.2.4,Win32,60.0024001,59ba6e9162b30d0001b7acab,64d2fd46c836a06233681665,64dc7e031e71c1d50c779dc3,,,,,,,decisionTrl,resources/DR.BMP,resources/DP.BMP,Door3,-0.397135417,0.015625,1,0,0,0.895,optionLeft,70,9975,5,5,0,5,0,1,,,,,,,,,,,,,,,,,,,,,,,,,,,,,,,,,,,,,,,
,,,,,,,59ba6e9162b30d0001b7acab,2023-08-16_09h03.42.050,HF_wild_card,2022.2.4,Win32,60.0024001,59ba6e9162b30d0001b7acab,64d2fd46c836a06233681665,64dc7e031e71c1d50c779dc3,,,,,,,ctch,resources/DG.BMP,resources/DR.BMP,Door3,0.47265625,-0.1328125,1,0,0,0.8316,optionRight,70,10045,5,6,0,6,0,1,,,,,,,,,,,,,,,,,,,,,,,,,,,,,,,,,,,,,,,
,,,,,,,59ba6e9162b30d0001b7acab,2023-08-16_09h03.42.050,HF_wild_card,2022.2.4,Win32,60.0024001,59ba6e9162b30d0001b7acab,64d2fd46c836a06233681665,64dc7e031e71c1d50c779dc3,,,,,,,ctch,resources/DR.BMP,resources/DG.BMP,Door3,-0.46484375,-0.015625,1,0,0,0.7618,optionLeft,70,10115,5,7,0,7,0,1,,,,,,,,,,,,,,,,,,,,,,,,,,,,,,,,,,,,,,,
,,,,,,,59ba6e9162b30d0001b7acab,2023-08-16_09h03.42.050,HF_wild_card,2022.2.4,Win32,60.0024001,59ba6e9162b30d0001b7acab,64d2fd46c836a06233681665,64dc7e031e71c1d50c779dc3,,,,,,,decisionTrl,resources/DG.BMP,resources/DB.BMP,Door1,0.342447917,-0.061197917,1,0,0,1.2452,optionRight,30,10145,5,8,0,8,0,1,,,,,,,,,,,,,,,,,,,,,,,,,,,,,,,,,,,,,,,
,,,,,,,59ba6e9162b30d0001b7acab,2023-08-16_09h03.42.050,HF_wild_card,2022.2.4,Win32,60.0024001,59ba6e9162b30d0001b7acab,64d2fd46c836a06233681665,64dc7e031e71c1d50c779dc3,,,,,,,decisionTrl,resources/DP.BMP,resources/DR.BMP,Door3,0.442708333,-0.069010417,1,0,0,1.2107,optionRight,70,10215,5,9,0,9,0,1,,,,,,,,,,,,,,,,,,,,,,,,,,,,,,,,,,,,,,,
,,,,,,,59ba6e9162b30d0001b7acab,2023-08-16_09h03.42.050,HF_wild_card,2022.2.4,Win32,60.0024001,59ba6e9162b30d0001b7acab,64d2fd46c836a06233681665,64dc7e031e71c1d50c779dc3,,,,,,,sngl,resources/DG.BMP,resources/Empty.png,Door2,-0.38671875,0.057291667,1,0,0,1.0585,optionLeft,40,10255,5,10,0,10,0,1,,,,,,,,,,,,,,,,,,,,,,,,,,,,,,,,,,,,,,,
,,,,,,,59ba6e9162b30d0001b7acab,2023-08-16_09h03.42.050,HF_wild_card,2022.2.4,Win32,60.0024001,59ba6e9162b30d0001b7acab,64d2fd46c836a06233681665,64dc7e031e71c1d50c779dc3,,,,,,,ctch,resources/DB.BMP,resources/DP.BMP,Door4,0.471354167,-0.048177083,1,0,0,0.8858,optionRight,60,10315,5,11,0,11,0,1,,,,,,,,,,,,,,,,,,,,,,,,,,,,,,,,,,,,,,,
,,,,,,,59ba6e9162b30d0001b7acab,2023-08-16_09h03.42.050,HF_wild_card,2022.2.4,Win32,60.0024001,59ba6e9162b30d0001b7acab,64d2fd46c836a06233681665,64dc7e031e71c1d50c779dc3,,,,,,,decisionTrl,resources/DP.BMP,resources/DY.BMP,WildCard_NonEx,0.390625,-0.033854167,1,0,0,0.9424,optionRight,55,10370,5,12,0,12,0,1,,,,,,,,,,,,,,,,,,,,,,,,,,,,,,,,,,,,,,,
,,,,,,,59ba6e9162b30d0001b7acab,2023-08-16_09h03.42.050,HF_wild_card,2022.2.4,Win32,60.0024001,59ba6e9162b30d0001b7acab,64d2fd46c836a06233681665,64dc7e031e71c1d50c779dc3,,,,,,,sngl,resources/DP.BMP,resources/Empty.png,Door4,-0.43359375,0.029947917,1,0,0,0.8316,optionLeft,80,10450,5,13,0,13,0,1,,,,,,,,,,,,,,,,,,,,,,,,,,,,,,,,,,,,,,,
,,,,,,,59ba6e9162b30d0001b7acab,2023-08-16_09h03.42.050,HF_wild_card,2022.2.4,Win32,60.0024001,59ba6e9162b30d0001b7acab,64d2fd46c836a06233681665,64dc7e031e71c1d50c779dc3,,,,,,,sngl,resources/Empty.png,resources/DR.BMP,Door3,0.415364583,-0.033854167,1,0,0,0.7932,optionRight,70,10520,5,14,0,14,0,1,,,,,,,,,,,,,,,,,,,,,,,,,,,,,,,,,,,,,,,
,,,,,,,59ba6e9162b30d0001b7acab,2023-08-16_09h03.42.050,HF_wild_card,2022.2.4,Win32,60.0024001,59ba6e9162b30d0001b7acab,64d2fd46c836a06233681665,64dc7e031e71c1d50c779dc3,,,,,,,decisionTrl,resources/DG.BMP,resources/DB.BMP,Door1,0.399739583,-0.006510417,1,0,0,1.1532,optionRight,30,10550,5,15,0,15,0,1,,,,,,,,,,,,,,,,,,,,,,,,,,,,,,,,,,,,,,,
,,,,,,,59ba6e9162b30d0001b7acab,2023-08-16_09h03.42.050,HF_wild_card,2022.2.4,Win32,60.0024001,59ba6e9162b30d0001b7acab,64d2fd46c836a06233681665,64dc7e031e71c1d50c779dc3,,,,,,,ctch,resources/DP.BMP,resources/DB.BMP,Door4,-0.455729167,-0.055989583,1,0,0,0.8775,optionLeft,60,10610,5,16,0,16,0,1,,,,,,,,,,,,,,,,,,,,,,,,,,,,,,,,,,,,,,,
,,,,,,,59ba6e9162b30d0001b7acab,2023-08-16_09h03.42.050,HF_wild_card,2022.2.4,Win32,60.0024001,59ba6e9162b30d0001b7acab,64d2fd46c836a06233681665,64dc7e031e71c1d50c779dc3,,,,,,,ctch,resources/DB.BMP,resources/DP.BMP,Door4,0.364583333,-0.045572917,1,0,0,0.9474,optionRight,60,10670,5,17,0,17,0,1,,,,,,,,,,,,,,,,,,,,,,,,,,,,,,,,,,,,,,,
,,,,,,,59ba6e9162b30d0001b7acab,2023-08-16_09h03.42.050,HF_wild_card,2022.2.4,Win32,60.0024001,59ba6e9162b30d0001b7acab,64d2fd46c836a06233681665,64dc7e031e71c1d50c779dc3,,,,,,,decisionTrl,resources/DP.BMP,resources/DR.BMP,Door3,0.423177083,-0.03515625,1,0,0,0.8105,optionRight,70,10740,5,18,0,18,0,1,,,,,,,,,,,,,,,,,,,,,,,,,,,,,,,,,,,,,,,
,,,,,,,59ba6e9162b30d0001b7acab,2023-08-16_09h03.42.050,HF_wild_card,2022.2.4,Win32,60.0024001,59ba6e9162b30d0001b7acab,64d2fd46c836a06233681665,64dc7e031e71c1d50c779dc3,,,,,,,decisionTrl,resources/DG.BMP,resources/DY.BMP,WildCard_NonEx,0.36328125,-0.015625,1,0,0,0.7755,optionRight,45,10785,5,19,0,19,0,1,,,,,,,,,,,,,,,,,,,,,,,,,,,,,,,,,,,,,,,
,,,,,,,59ba6e9162b30d0001b7acab,2023-08-16_09h03.42.050,HF_wild_card,2022.2.4,Win32,60.0024001,59ba6e9162b30d0001b7acab,64d2fd46c836a06233681665,64dc7e031e71c1d50c779dc3,,,,,,,decisionTrl,resources/DB.BMP,resources/DY.BMP,WildCard_NonEx,0.34375,-0.052083333,1,0,0,0.9117,optionRight,55,10840,5,20,0,20,0,1,,,,,,,,,,,,,,,,,,,,,,,,,,,,,,,,,,,,,,,
,,,,,,,59ba6e9162b30d0001b7acab,2023-08-16_09h03.42.050,HF_wild_card,2022.2.4,Win32,60.0024001,59ba6e9162b30d0001b7acab,64d2fd46c836a06233681665,64dc7e031e71c1d50c779dc3,,,,,,,sngl,resources/DR.BMP,resources/Empty.png,Door3,-0.395833333,0.01171875,1,0,0,0.7112,optionLeft,70,10910,5,21,0,21,0,1,,,,,,,,,,,,,,,,,,,,,,,,,,,,,,,,,,,,,,,
,,,,,,,59ba6e9162b30d0001b7acab,2023-08-16_09h03.42.050,HF_wild_card,2022.2.4,Win32,60.0024001,59ba6e9162b30d0001b7acab,64d2fd46c836a06233681665,64dc7e031e71c1d50c779dc3,,,,,,,sngl,resources/Empty.png,resources/DG.BMP,Door2,0.33984375,-0.079427083,1,0,0,0.694,optionRight,20,10930,5,22,0,22,0,1,,,,,,,,,,,,,,,,,,,,,,,,,,,,,,,,,,,,,,,
,,,,,,,59ba6e9162b30d0001b7acab,2023-08-16_09h03.42.050,HF_wild_card,2022.2.4,Win32,60.0024001,59ba6e9162b30d0001b7acab,64d2fd46c836a06233681665,64dc7e031e71c1d50c779dc3,,,,,,,decisionTrl,resources/DR.BMP,resources/DY.BMP,WildCard_NonEx,0.416666667,-0.020833333,1,0,0,1.277,optionRight,45,10975,5,23,0,23,0,1,,,,,,,,,,,,,,,,,,,,,,,,,,,,,,,,,,,,,,,
,,,,,,,59ba6e9162b30d0001b7acab,2023-08-16_09h03.42.050,HF_wild_card,2022.2.4,Win32,60.0024001,59ba6e9162b30d0001b7acab,64d2fd46c836a06233681665,64dc7e031e71c1d50c779dc3,,,,,,,decisionTrl,resources/DY.BMP,resources/DB.BMP,WildCard_NonEx,-0.404947917,0.005208333,1,0,0,0.7589,optionLeft,55,11030,5,24,0,24,0,1,,,,,,,,,,,,,,,,,,,,,,,,,,,,,,,,,,,,,,,
,,,,,,,59ba6e9162b30d0001b7acab,2023-08-16_09h03.42.050,HF_wild_card,2022.2.4,Win32,60.0024001,59ba6e9162b30d0001b7acab,64d2fd46c836a06233681665,64dc7e031e71c1d50c779dc3,,,,,,,sngl,resources/Empty.png,resources/DB.BMP,Door1,0.3984375,-0.072916667,1,0,0,1.0433,optionRight,30,11060,5,25,0,25,0,1,,,,,,,,,,,,,,,,,,,,,,,,,,,,,,,,,,,,,,,
,,,,,,,59ba6e9162b30d0001b7acab,2023-08-16_09h03.42.050,HF_wild_card,2022.2.4,Win32,60.0024001,59ba6e9162b30d0001b7acab,64d2fd46c836a06233681665,64dc7e031e71c1d50c779dc3,,,,,,,decisionTrl,resources/DY.BMP,resources/DP.BMP,WildCard_NonEx,-0.390625,0.00390625,1,0,0,0.7923,optionLeft,55,11115,5,26,0,26,0,1,,,,,,,,,,,,,,,,,,,,,,,,,,,,,,,,,,,,,,,
,,,,,,,59ba6e9162b30d0001b7acab,2023-08-16_09h03.42.050,HF_wild_card,2022.2.4,Win32,60.0024001,59ba6e9162b30d0001b7acab,64d2fd46c836a06233681665,64dc7e031e71c1d50c779dc3,,,,,,,decisionTrl,resources/DG.BMP,resources/DB.BMP,Door1,0.391927083,-0.067708333,1,0,0,2.0264,optionRight,30,11145,5,27,0,27,0,1,,,,,,,,,,,,,,,,,,,,,,,,,,,,,,,,,,,,,,,
,,,,,,,59ba6e9162b30d0001b7acab,2023-08-16_09h03.42.050,HF_wild_card,2022.2.4,Win32,60.0024001,59ba6e9162b30d0001b7acab,64d2fd46c836a06233681665,64dc7e031e71c1d50c779dc3,,,,,,,decisionTrl,resources/DB.BMP,resources/DG.BMP,Door1,-0.420572917,0.006510417,1,0,0,1.1464,optionLeft,30,11175,5,28,0,28,0,1,,,,,,,,,,,,,,,,,,,,,,,,,,,,,,,,,,,,,,,
,,,,,,,59ba6e9162b30d0001b7acab,2023-08-16_09h03.42.050,HF_wild_card,2022.2.4,Win32,60.0024001,59ba6e9162b30d0001b7acab,64d2fd46c836a06233681665,64dc7e031e71c1d50c779dc3,,,,,,,decisionTrl,resources/DG.BMP,resources/DB.BMP,Door1,0.00390625,-0.00390625,1,0,0,0.793,optionRight,30,11205,5,29,0,29,0,1,,,,,,,,,,,,,,,,,,,,,,,,,,,,,,,,,,,,,,,
,,,,,,,59ba6e9162b30d0001b7acab,2023-08-16_09h03.42.050,HF_wild_card,2022.2.4,Win32,60.0024001,59ba6e9162b30d0001b7acab,64d2fd46c836a06233681665,64dc7e031e71c1d50c779dc3,,,,,,,decisionTrl,resources/DP.BMP,resources/DR.BMP,Door4,-0.427083333,-0.061197917,1,0,0,2.2823,optionLeft,60,11265,5,30,0,30,0,1,,,,,,,,,,,,,,,,,,,,,,,,,,,,,,,,,,,,,,,
,,,,,,,59ba6e9162b30d0001b7acab,2023-08-16_09h03.42.050,HF_wild_card,2022.2.4,Win32,60.0024001,59ba6e9162b30d0001b7acab,64d2fd46c836a06233681665,64dc7e031e71c1d50c779dc3,,,,,,,decisionTrl,resources/DB.BMP,resources/DG.BMP,Door1,-0.484375,-0.05859375,1,0,0,1.0232,optionLeft,30,11295,5,31,0,31,0,1,,,,,,,,,,,,,,,,,,,,,,,,,,,,,,,,,,,,,,,
,,,,,,,59ba6e9162b30d0001b7acab,2023-08-16_09h03.42.050,HF_wild_card,2022.2.4,Win32,60.0024001,59ba6e9162b30d0001b7acab,64d2fd46c836a06233681665,64dc7e031e71c1d50c779dc3,,,,,,,sngl,resources/Empty.png,resources/DY.BMP,WildCard_NonEx,0.350260417,-0.045572917,1,0,0,0.7756,optionRight,45,11340,5,32,0,32,0,1,,,,,,,,,,,,,,,,,,,,,,,,,,,,,,,,,,,,,,,
,,,,,,,59ba6e9162b30d0001b7acab,2023-08-16_09h03.42.050,HF_wild_card,2022.2.4,Win32,60.0024001,59ba6e9162b30d0001b7acab,64d2fd46c836a06233681665,64dc7e031e71c1d50c779dc3,,,,,,,sngl,resources/Empty.png,resources/DP.BMP,Door4,0.40234375,-0.05078125,1,0,0,0.8991,optionRight,60,11400,5,33,0,33,0,1,,,,,,,,,,,,,,,,,,,,,,,,,,,,,,,,,,,,,,,
,,,,,,,59ba6e9162b30d0001b7acab,2023-08-16_09h03.42.050,HF_wild_card,2022.2.4,Win32,60.0024001,59ba6e9162b30d0001b7acab,64d2fd46c836a06233681665,64dc7e031e71c1d50c779dc3,,,,,,,sngl,resources/DB.BMP,resources/Empty.png,Door1,-0.444010417,-0.040364583,1,0,0,0.7083,optionLeft,30,11430,5,34,0,34,0,1,,,,,,,,,,,,,,,,,,,,,,,,,,,,,,,,,,,,,,,
,,,,,,,59ba6e9162b30d0001b7acab,2023-08-16_09h03.42.050,HF_wild_card,2022.2.4,Win32,60.0024001,59ba6e9162b30d0001b7acab,64d2fd46c836a06233681665,64dc7e031e71c1d50c779dc3,,,,,,,sngl,resources/DY.BMP,resources/Empty.png,WildCard_NonEx,-0.34375,-0.0078125,1,0,0,0.7427,optionLeft,55,11485,5,35,0,35,0,1,,,,,,,,,,,,,,,,,,,,,,,,,,,,,,,,,,,,,,,
,,,,,,,59ba6e9162b30d0001b7acab,2023-08-16_09h03.42.050,HF_wild_card,2022.2.4,Win32,60.0024001,59ba6e9162b30d0001b7acab,64d2fd46c836a06233681665,64dc7e031e71c1d50c779dc3,,,,,,,sngl,resources/Empty.png,resources/DY.BMP,WildCard_NonEx,0.36328125,-0.01953125,1,0,0,0.7783,optionRight,55,11540,5,36,0,36,0,1,,,,,,,,,,,,,,,,,,,,,,,,,,,,,,,,,,,,,,,
,,,,,,,59ba6e9162b30d0001b7acab,2023-08-16_09h03.42.050,HF_wild_card,2022.2.4,Win32,60.0024001,59ba6e9162b30d0001b7acab,64d2fd46c836a06233681665,64dc7e031e71c1d50c779dc3,,,,,,,ctch,resources/DR.BMP,resources/DG.BMP,Door3,-0.432291667,0.01171875,1,0,0,0.7293,optionLeft,70,11610,5,37,0,37,0,1,,,,,,,,,,,,,,,,,,,,,,,,,,,,,,,,,,,,,,,
,,,,,,,59ba6e9162b30d0001b7acab,2023-08-16_09h03.42.050,HF_wild_card,2022.2.4,Win32,60.0024001,59ba6e9162b30d0001b7acab,64d2fd46c836a06233681665,64dc7e031e71c1d50c779dc3,,,,,,,decisionTrl,resources/DB.BMP,resources/DG.BMP,Door1,-0.41015625,-0.03125,1,0,0,1.0624,optionLeft,30,11640,5,38,0,38,0,1,,,,,,,,,,,,,,,,,,,,,,,,,,,,,,,,,,,,,,,
,,,,,,,59ba6e9162b30d0001b7acab,2023-08-16_09h03.42.050,HF_wild_card,2022.2.4,Win32,60.0024001,59ba6e9162b30d0001b7acab,64d2fd46c836a06233681665,64dc7e031e71c1d50c779dc3,,,,,,,sngl,resources/DY.BMP,resources/Empty.png,WildCard_NonEx,-0.399739583,-0.0234375,1,0,0,0.7019,optionLeft,45,11685,5,39,0,39,0,1,,,,,,,,,,,,,,,,,,,,,,,,,,,,,,,,,,,,,,,
,,,,,,,59ba6e9162b30d0001b7acab,2023-08-16_09h03.42.050,HF_wild_card,2022.2.4,Win32,60.0024001,59ba6e9162b30d0001b7acab,64d2fd46c836a06233681665,64dc7e031e71c1d50c779dc3,,,,,,,decisionTrl,resources/DR.BMP,resources/DP.BMP,Door3,-0.360677083,0.016927083,1,0,0,0.9372,optionLeft,70,11755,5,40,0,40,0,1,,,,,,,,,,,,,,,,,,,,,,,,,,,,,,,,,,,,,,,
,,,,,,,59ba6e9162b30d0001b7acab,2023-08-16_09h03.42.050,HF_wild_card,2022.2.4,Win32,60.0024001,59ba6e9162b30d0001b7acab,64d2fd46c836a06233681665,64dc7e031e71c1d50c779dc3,,,,,,,ctch,resources/DP.BMP,resources/DB.BMP,Door4,-0.388020833,0.03125,1,0,0,0.7117,optionLeft,60,11815,5,41,0,41,0,1,,,,,,,,,,,,,,,,,,,,,,,,,,,,,,,,,,,,,,,
,,,,,,,59ba6e9162b30d0001b7acab,2023-08-16_09h03.42.050,HF_wild_card,2022.2.4,Win32,60.0024001,59ba6e9162b30d0001b7acab,64d2fd46c836a06233681665,64dc7e031e71c1d50c779dc3,,,,,,,decisionTrl,resources/DB.BMP,resources/DG.BMP,Door1,-0.309895833,0.052083333,1,0,0,1.1303,optionLeft,30,11845,5,42,0,42,0,1,,,,,,,,,,,,,,,,,,,,,,,,,,,,,,,,,,,,,,,
,,,,,,,59ba6e9162b30d0001b7acab,2023-08-16_09h03.42.050,HF_wild_card,2022.2.4,Win32,60.0024001,59ba6e9162b30d0001b7acab,64d2fd46c836a06233681665,64dc7e031e71c1d50c779dc3,,,,,,,decisionTrl,resources/DY.BMP,resources/DG.BMP,WildCard_NonEx,-0.31640625,0.036458333,1,0,0,0.7301,optionLeft,55,11900,5,43,0,43,0,1,,,,,,,,,,,,,,,,,,,,,,,,,,,,,,,,,,,,,,,
,,,,,,,59ba6e9162b30d0001b7acab,2023-08-16_09h03.42.050,HF_wild_card,2022.2.4,Win32,60.0024001,59ba6e9162b30d0001b7acab,64d2fd46c836a06233681665,64dc7e031e71c1d50c779dc3,,,,,,,,,,,,,,,,,,,,,,,,,,4,0,4,0,1,,,,,,,,,,,,,,,,,,,,,,,,,,,,,,,,,,
,,,,,,,59ba6e9162b30d0001b7acab,2023-08-16_09h03.42.050,HF_wild_card,2022.2.4,Win32,60.0024001,59ba6e9162b30d0001b7acab,64d2fd46c836a06233681665,64dc7e031e71c1d50c779dc3,,,,,,,decisionTrl,resources/DG.BMP,resources/DB.BMP,Door1,0.420572917,0.041666667,1,0,0,1.1568,optionRight,30,11930,6,0,0,0,0,1,,,,,,,,,,,,,,,,,,,,,,,,,,,,,,,,,,,,,,,
,,,,,,,59ba6e9162b30d0001b7acab,2023-08-16_09h03.42.050,HF_wild_card,2022.2.4,Win32,60.0024001,59ba6e9162b30d0001b7acab,64d2fd46c836a06233681665,64dc7e031e71c1d50c779dc3,,,,,,,decisionTrl,resources/DR.BMP,resources/DY.BMP,WildCard_NonEx,0.37890625,-0.014322917,1,0,0,0.9464,optionRight,45,11975,6,1,0,1,0,1,,,,,,,,,,,,,,,,,,,,,,,,,,,,,,,,,,,,,,,
,,,,,,,59ba6e9162b30d0001b7acab,2023-08-16_09h03.42.050,HF_wild_card,2022.2.4,Win32,60.0024001,59ba6e9162b30d0001b7acab,64d2fd46c836a06233681665,64dc7e031e71c1d50c779dc3,,,,,,,sngl,resources/Empty.png,resources/DG.BMP,Door2,0.423177083,-0.022135417,1,0,0,0.9473,optionRight,40,12015,6,2,0,2,0,1,,,,,,,,,,,,,,,,,,,,,,,,,,,,,,,,,,,,,,,
,,,,,,,59ba6e9162b30d0001b7acab,2023-08-16_09h03.42.050,HF_wild_card,2022.2.4,Win32,60.0024001,59ba6e9162b30d0001b7acab,64d2fd46c836a06233681665,64dc7e031e71c1d50c779dc3,,,,,,,decisionTrl,resources/DP.BMP,resources/DR.BMP,Door4,-0.53125,-0.080729167,1,0,0,1.0445,optionLeft,60,12075,6,3,0,3,0,1,,,,,,,,,,,,,,,,,,,,,,,,,,,,,,,,,,,,,,,
,,,,,,,59ba6e9162b30d0001b7acab,2023-08-16_09h03.42.050,HF_wild_card,2022.2.4,Win32,60.0024001,59ba6e9162b30d0001b7acab,64d2fd46c836a06233681665,64dc7e031e71c1d50c779dc3,,,,,,,ctch,resources/DP.BMP,resources/DB.BMP,Door4,-0.36328125,-0.032552083,1,0,0,0.7278,optionLeft,60,12135,6,4,0,4,0,1,,,,,,,,,,,,,,,,,,,,,,,,,,,,,,,,,,,,,,,
,,,,,,,59ba6e9162b30d0001b7acab,2023-08-16_09h03.42.050,HF_wild_card,2022.2.4,Win32,60.0024001,59ba6e9162b30d0001b7acab,64d2fd46c836a06233681665,64dc7e031e71c1d50c779dc3,,,,,,,decisionTrl,resources/DP.BMP,resources/DY.BMP,WildCard_NonEx,0.434895833,-0.100260417,1,0,0,0.8599,optionRight,55,12190,6,5,0,5,0,1,,,,,,,,,,,,,,,,,,,,,,,,,,,,,,,,,,,,,,,
,,,,,,,59ba6e9162b30d0001b7acab,2023-08-16_09h03.42.050,HF_wild_card,2022.2.4,Win32,60.0024001,59ba6e9162b30d0001b7acab,64d2fd46c836a06233681665,64dc7e031e71c1d50c779dc3,,,,,,,sngl,resources/DP.BMP,resources/Empty.png,Door4,-0.41015625,-0.006510417,1,0,0,0.711,optionLeft,60,12250,6,6,0,6,0,1,,,,,,,,,,,,,,,,,,,,,,,,,,,,,,,,,,,,,,,
,,,,,,,59ba6e9162b30d0001b7acab,2023-08-16_09h03.42.050,HF_wild_card,2022.2.4,Win32,60.0024001,59ba6e9162b30d0001b7acab,64d2fd46c836a06233681665,64dc7e031e71c1d50c779dc3,,,,,,,decisionTrl,resources/DR.BMP,resources/DP.BMP,Door3,-0.325520833,0.0078125,1,0,0,1.5976,optionLeft,70,12320,6,7,0,7,0,1,,,,,,,,,,,,,,,,,,,,,,,,,,,,,,,,,,,,,,,
,,,,,,,59ba6e9162b30d0001b7acab,2023-08-16_09h03.42.050,HF_wild_card,2022.2.4,Win32,60.0024001,59ba6e9162b30d0001b7acab,64d2fd46c836a06233681665,64dc7e031e71c1d50c779dc3,,,,,,,sngl,resources/Empty.png,resources/DY.BMP,WildCard_NonEx,0.390625,-0.015625,1,0,0,0.7775,optionRight,55,12375,6,8,0,8,0,1,,,,,,,,,,,,,,,,,,,,,,,,,,,,,,,,,,,,,,,
,,,,,,,59ba6e9162b30d0001b7acab,2023-08-16_09h03.42.050,HF_wild_card,2022.2.4,Win32,60.0024001,59ba6e9162b30d0001b7acab,64d2fd46c836a06233681665,64dc7e031e71c1d50c779dc3,,,,,,,sngl,resources/Empty.png,resources/DR.BMP,Door3,0.393229167,-0.024739583,1,0,0,0.7919,optionRight,70,12445,6,9,0,9,0,1,,,,,,,,,,,,,,,,,,,,,,,,,,,,,,,,,,,,,,,
,,,,,,,59ba6e9162b30d0001b7acab,2023-08-16_09h03.42.050,HF_wild_card,2022.2.4,Win32,60.0024001,59ba6e9162b30d0001b7acab,64d2fd46c836a06233681665,64dc7e031e71c1d50c779dc3,,,,,,,sngl,resources/Empty.png,resources/DY.BMP,WildCard_NonEx,0.37109375,-0.02734375,1,0,0,0.6799,optionRight,45,12490,6,10,0,10,0,1,,,,,,,,,,,,,,,,,,,,,,,,,,,,,,,,,,,,,,,
,,,,,,,59ba6e9162b30d0001b7acab,2023-08-16_09h03.42.050,HF_wild_card,2022.2.4,Win32,60.0024001,59ba6e9162b30d0001b7acab,64d2fd46c836a06233681665,64dc7e031e71c1d50c779dc3,,,,,,,sngl,resources/Empty.png,resources/DB.BMP,Door1,0.302083333,-0.013020833,1,0,0,0.7307,optionRight,30,12520,6,11,0,11,0,1,,,,,,,,,,,,,,,,,,,,,,,,,,,,,,,,,,,,,,,
,,,,,,,59ba6e9162b30d0001b7acab,2023-08-16_09h03.42.050,HF_wild_card,2022.2.4,Win32,60.0024001,59ba6e9162b30d0001b7acab,64d2fd46c836a06233681665,64dc7e031e71c1d50c779dc3,,,,,,,decisionTrl,resources/DP.BMP,resources/DR.BMP,Door3,0.345052083,0.014322917,1,0,0,1.5413,optionRight,70,12590,6,12,0,12,0,1,,,,,,,,,,,,,,,,,,,,,,,,,,,,,,,,,,,,,,,
,,,,,,,59ba6e9162b30d0001b7acab,2023-08-16_09h03.42.050,HF_wild_card,2022.2.4,Win32,60.0024001,59ba6e9162b30d0001b7acab,64d2fd46c836a06233681665,64dc7e031e71c1d50c779dc3,,,,,,,decisionTrl,resources/DG.BMP,resources/DY.BMP,WildCard_NonEx,0.380208333,-0.075520833,1,0,0,0.6924,optionRight,45,12635,6,13,0,13,0,1,,,,,,,,,,,,,,,,,,,,,,,,,,,,,,,,,,,,,,,
,,,,,,,59ba6e9162b30d0001b7acab,2023-08-16_09h03.42.050,HF_wild_card,2022.2.4,Win32,60.0024001,59ba6e9162b30d0001b7acab,64d2fd46c836a06233681665,64dc7e031e71c1d50c779dc3,,,,,,,decisionTrl,resources/DR.BMP,resources/DP.BMP,Door3,-0.4296875,-0.014322917,1,0,0,0.7269,optionLeft,70,12705,6,14,0,14,0,1,,,,,,,,,,,,,,,,,,,,,,,,,,,,,,,,,,,,,,,
,,,,,,,59ba6e9162b30d0001b7acab,2023-08-16_09h03.42.050,HF_wild_card,2022.2.4,Win32,60.0024001,59ba6e9162b30d0001b7acab,64d2fd46c836a06233681665,64dc7e031e71c1d50c779dc3,,,,,,,decisionTrl,resources/DB.BMP,resources/DG.BMP,Door1,-0.359375,-0.005208333,1,0,0,0.9763,optionLeft,30,12735,6,15,0,15,0,1,,,,,,,,,,,,,,,,,,,,,,,,,,,,,,,,,,,,,,,
,,,,,,,59ba6e9162b30d0001b7acab,2023-08-16_09h03.42.050,HF_wild_card,2022.2.4,Win32,60.0024001,59ba6e9162b30d0001b7acab,64d2fd46c836a06233681665,64dc7e031e71c1d50c779dc3,,,,,,,sngl,resources/Empty.png,resources/DP.BMP,Door4,0.334635417,-0.04296875,1,0,0,0.776,optionRight,80,12815,6,16,0,16,0,1,,,,,,,,,,,,,,,,,,,,,,,,,,,,,,,,,,,,,,,
,,,,,,,59ba6e9162b30d0001b7acab,2023-08-16_09h03.42.050,HF_wild_card,2022.2.4,Win32,60.0024001,59ba6e9162b30d0001b7acab,64d2fd46c836a06233681665,64dc7e031e71c1d50c779dc3,,,,,,,decisionTrl,resources/DG.BMP,resources/DB.BMP,Door1,0.001302083,-0.006510417,1,0,0,0.8774,optionRight,30,12845,6,17,0,17,0,1,,,,,,,,,,,,,,,,,,,,,,,,,,,,,,,,,,,,,,,
,,,,,,,59ba6e9162b30d0001b7acab,2023-08-16_09h03.42.050,HF_wild_card,2022.2.4,Win32,60.0024001,59ba6e9162b30d0001b7acab,64d2fd46c836a06233681665,64dc7e031e71c1d50c779dc3,,,,,,,decisionTrl,resources/DP.BMP,resources/DR.BMP,Door3,0.330729167,-0.061197917,1,0,0,1.0445,optionRight,70,12915,6,18,0,18,0,1,,,,,,,,,,,,,,,,,,,,,,,,,,,,,,,,,,,,,,,
,,,,,,,59ba6e9162b30d0001b7acab,2023-08-16_09h03.42.050,HF_wild_card,2022.2.4,Win32,60.0024001,59ba6e9162b30d0001b7acab,64d2fd46c836a06233681665,64dc7e031e71c1d50c779dc3,,,,,,,decisionTrl,resources/DG.BMP,resources/DB.BMP,Door1,0.373697917,-0.061197917,1,0,0,1.4598,optionRight,30,12945,6,19,0,19,0,1,,,,,,,,,,,,,,,,,,,,,,,,,,,,,,,,,,,,,,,
,,,,,,,59ba6e9162b30d0001b7acab,2023-08-16_09h03.42.050,HF_wild_card,2022.2.4,Win32,60.0024001,59ba6e9162b30d0001b7acab,64d2fd46c836a06233681665,64dc7e031e71c1d50c779dc3,,,,,,,decisionTrl,resources/DY.BMP,resources/DB.BMP,WildCard_NonEx,-0.401041667,0,1,0,0,0.9588,optionLeft,45,12990,6,20,0,20,0,1,,,,,,,,,,,,,,,,,,,,,,,,,,,,,,,,,,,,,,,
,,,,,,,59ba6e9162b30d0001b7acab,2023-08-16_09h03.42.050,HF_wild_card,2022.2.4,Win32,60.0024001,59ba6e9162b30d0001b7acab,64d2fd46c836a06233681665,64dc7e031e71c1d50c779dc3,,,,,,,ctch,resources/DG.BMP,resources/DR.BMP,Door3,0.361979167,-0.03515625,1,0,0,0.7774,optionRight,70,13060,6,21,0,21,0,1,,,,,,,,,,,,,,,,,,,,,,,,,,,,,,,,,,,,,,,
,,,,,,,59ba6e9162b30d0001b7acab,2023-08-16_09h03.42.050,HF_wild_card,2022.2.4,Win32,60.0024001,59ba6e9162b30d0001b7acab,64d2fd46c836a06233681665,64dc7e031e71c1d50c779dc3,,,,,,,sngl,resources/DY.BMP,resources/Empty.png,WildCard_NonEx,-0.294270833,0.00390625,1,0,0,0.743,optionLeft,45,13105,6,22,0,22,0,1,,,,,,,,,,,,,,,,,,,,,,,,,,,,,,,,,,,,,,,
,,,,,,,59ba6e9162b30d0001b7acab,2023-08-16_09h03.42.050,HF_wild_card,2022.2.4,Win32,60.0024001,59ba6e9162b30d0001b7acab,64d2fd46c836a06233681665,64dc7e031e71c1d50c779dc3,,,,,,,sngl,resources/DY.BMP,resources/Empty.png,WildCard_NonEx,-0.436197917,0.022135417,1,0,0,1.1622,optionLeft,55,13160,6,23,0,23,0,1,,,,,,,,,,,,,,,,,,,,,,,,,,,,,,,,,,,,,,,
,,,,,,,59ba6e9162b30d0001b7acab,2023-08-16_09h03.42.050,HF_wild_card,2022.2.4,Win32,60.0024001,59ba6e9162b30d0001b7acab,64d2fd46c836a06233681665,64dc7e031e71c1d50c779dc3,,,,,,,decisionTrl,resources/DB.BMP,resources/DG.BMP,Door1,-0.501302083,-0.016927083,1,0,0,1.2438,optionLeft,30,13190,6,24,0,24,0,1,,,,,,,,,,,,,,,,,,,,,,,,,,,,,,,,,,,,,,,
,,,,,,,59ba6e9162b30d0001b7acab,2023-08-16_09h03.42.050,HF_wild_card,2022.2.4,Win32,60.0024001,59ba6e9162b30d0001b7acab,64d2fd46c836a06233681665,64dc7e031e71c1d50c779dc3,,,,,,,sngl,resources/DG.BMP,resources/Empty.png,Door2,-0.407552083,-0.0078125,1,0,0,0.7593,optionLeft,20,13210,6,25,0,25,0,1,,,,,,,,,,,,,,,,,,,,,,,,,,,,,,,,,,,,,,,
,,,,,,,59ba6e9162b30d0001b7acab,2023-08-16_09h03.42.050,HF_wild_card,2022.2.4,Win32,60.0024001,59ba6e9162b30d0001b7acab,64d2fd46c836a06233681665,64dc7e031e71c1d50c779dc3,,,,,,,decisionTrl,resources/DY.BMP,resources/DR.BMP,WildCard_NonEx,-0.404947917,0.045572917,1,0,0,2.7092,optionLeft,55,13265,6,26,0,26,0,1,,,,,,,,,,,,,,,,,,,,,,,,,,,,,,,,,,,,,,,
,,,,,,,59ba6e9162b30d0001b7acab,2023-08-16_09h03.42.050,HF_wild_card,2022.2.4,Win32,60.0024001,59ba6e9162b30d0001b7acab,64d2fd46c836a06233681665,64dc7e031e71c1d50c779dc3,,,,,,,ctch,resources/DG.BMP,resources/DR.BMP,Door3,0.37109375,-0.053385417,1,0,0,0.9943,optionRight,70,13335,6,27,0,27,0,1,,,,,,,,,,,,,,,,,,,,,,,,,,,,,,,,,,,,,,,
,,,,,,,59ba6e9162b30d0001b7acab,2023-08-16_09h03.42.050,HF_wild_card,2022.2.4,Win32,60.0024001,59ba6e9162b30d0001b7acab,64d2fd46c836a06233681665,64dc7e031e71c1d50c779dc3,,,,,,,decisionTrl,resources/DG.BMP,resources/DB.BMP,Door1,0.444010417,-0.048177083,1,0,0,1.1438,optionRight,30,13365,6,28,0,28,0,1,,,,,,,,,,,,,,,,,,,,,,,,,,,,,,,,,,,,,,,
,,,,,,,59ba6e9162b30d0001b7acab,2023-08-16_09h03.42.050,HF_wild_card,2022.2.4,Win32,60.0024001,59ba6e9162b30d0001b7acab,64d2fd46c836a06233681665,64dc7e031e71c1d50c779dc3,,,,,,,sngl,resources/DR.BMP,resources/Empty.png,Door3,-0.341145833,0.01171875,1,0,0,0.6757,optionLeft,70,13435,6,29,0,29,0,1,,,,,,,,,,,,,,,,,,,,,,,,,,,,,,,,,,,,,,,
,,,,,,,59ba6e9162b30d0001b7acab,2023-08-16_09h03.42.050,HF_wild_card,2022.2.4,Win32,60.0024001,59ba6e9162b30d0001b7acab,64d2fd46c836a06233681665,64dc7e031e71c1d50c779dc3,,,,,,,ctch,resources/DB.BMP,resources/DP.BMP,Door4,0.359375,-0.036458333,1,0,0,0.7599,optionRight,80,13515,6,30,0,30,0,1,,,,,,,,,,,,,,,,,,,,,,,,,,,,,,,,,,,,,,,
,,,,,,,59ba6e9162b30d0001b7acab,2023-08-16_09h03.42.050,HF_wild_card,2022.2.4,Win32,60.0024001,59ba6e9162b30d0001b7acab,64d2fd46c836a06233681665,64dc7e031e71c1d50c779dc3,,,,,,,ctch,resources/DB.BMP,resources/DP.BMP,Door4,0.427083333,-0.041666667,1,0,0,1.0945,optionRight,80,13595,6,31,0,31,0,1,,,,,,,,,,,,,,,,,,,,,,,,,,,,,,,,,,,,,,,
,,,,,,,59ba6e9162b30d0001b7acab,2023-08-16_09h03.42.050,HF_wild_card,2022.2.4,Win32,60.0024001,59ba6e9162b30d0001b7acab,64d2fd46c836a06233681665,64dc7e031e71c1d50c779dc3,,,,,,,ctch,resources/DR.BMP,resources/DG.BMP,Door3,-0.341145833,-0.0078125,1,0,0,0.777,optionLeft,70,13665,6,32,0,32,0,1,,,,,,,,,,,,,,,,,,,,,,,,,,,,,,,,,,,,,,,
,,,,,,,59ba6e9162b30d0001b7acab,2023-08-16_09h03.42.050,HF_wild_card,2022.2.4,Win32,60.0024001,59ba6e9162b30d0001b7acab,64d2fd46c836a06233681665,64dc7e031e71c1d50c779dc3,,,,,,,ctch,resources/DR.BMP,resources/DG.BMP,Door3,-0.451822917,-0.032552083,1,0,0,0.7254,optionLeft,70,13735,6,33,0,33,0,1,,,,,,,,,,,,,,,,,,,,,,,,,,,,,,,,,,,,,,,
,,,,,,,59ba6e9162b30d0001b7acab,2023-08-16_09h03.42.050,HF_wild_card,2022.2.4,Win32,60.0024001,59ba6e9162b30d0001b7acab,64d2fd46c836a06233681665,64dc7e031e71c1d50c779dc3,,,,,,,decisionTrl,resources/DY.BMP,resources/DP.BMP,WildCard_NonEx,-0.404947917,-0.009114583,1,0,0,0.6274,optionLeft,55,13790,6,34,0,34,0,1,,,,,,,,,,,,,,,,,,,,,,,,,,,,,,,,,,,,,,,
,,,,,,,59ba6e9162b30d0001b7acab,2023-08-16_09h03.42.050,HF_wild_card,2022.2.4,Win32,60.0024001,59ba6e9162b30d0001b7acab,64d2fd46c836a06233681665,64dc7e031e71c1d50c779dc3,,,,,,,decisionTrl,resources/DR.BMP,resources/DP.BMP,Door3,-0.395833333,0.010416667,1,0,0,0.794,optionLeft,70,13860,6,35,0,35,0,1,,,,,,,,,,,,,,,,,,,,,,,,,,,,,,,,,,,,,,,
,,,,,,,59ba6e9162b30d0001b7acab,2023-08-16_09h03.42.050,HF_wild_card,2022.2.4,Win32,60.0024001,59ba6e9162b30d0001b7acab,64d2fd46c836a06233681665,64dc7e031e71c1d50c779dc3,,,,,,,decisionTrl,resources/DY.BMP,resources/DG.BMP,WildCard_NonEx,-0.329427083,-0.0078125,1,0,0,0.7772,optionLeft,55,13915,6,36,0,36,0,1,,,,,,,,,,,,,,,,,,,,,,,,,,,,,,,,,,,,,,,
,,,,,,,59ba6e9162b30d0001b7acab,2023-08-16_09h03.42.050,HF_wild_card,2022.2.4,Win32,60.0024001,59ba6e9162b30d0001b7acab,64d2fd46c836a06233681665,64dc7e031e71c1d50c779dc3,,,,,,,decisionTrl,resources/DR.BMP,resources/DP.BMP,Door3,-0.4453125,-0.01953125,1,0,0,0.6263,optionLeft,70,13985,6,37,0,37,0,1,,,,,,,,,,,,,,,,,,,,,,,,,,,,,,,,,,,,,,,
,,,,,,,59ba6e9162b30d0001b7acab,2023-08-16_09h03.42.050,HF_wild_card,2022.2.4,Win32,60.0024001,59ba6e9162b30d0001b7acab,64d2fd46c836a06233681665,64dc7e031e71c1d50c779dc3,,,,,,,decisionTrl,resources/DB.BMP,resources/DY.BMP,WildCard_NonEx,0.497395833,-0.151041667,1,0,0,0.7968,optionRight,45,14030,6,38,0,38,0,1,,,,,,,,,,,,,,,,,,,,,,,,,,,,,,,,,,,,,,,
,,,,,,,59ba6e9162b30d0001b7acab,2023-08-16_09h03.42.050,HF_wild_card,2022.2.4,Win32,60.0024001,59ba6e9162b30d0001b7acab,64d2fd46c836a06233681665,64dc7e031e71c1d50c779dc3,,,,,,,decisionTrl,resources/DB.BMP,resources/DG.BMP,Door1,-0.484375,-0.006510417,1,0,0,1.0431,optionLeft,30,14060,6,39,0,39,0,1,,,,,,,,,,,,,,,,,,,,,,,,,,,,,,,,,,,,,,,
,,,,,,,59ba6e9162b30d0001b7acab,2023-08-16_09h03.42.050,HF_wild_card,2022.2.4,Win32,60.0024001,59ba6e9162b30d0001b7acab,64d2fd46c836a06233681665,64dc7e031e71c1d50c779dc3,,,,,,,sngl,resources/DB.BMP,resources/Empty.png,Door1,-0.37109375,0.016927083,1,0,0,0.6764,optionLeft,30,14090,6,40,0,40,0,1,,,,,,,,,,,,,,,,,,,,,,,,,,,,,,,,,,,,,,,
,,,,,,,59ba6e9162b30d0001b7acab,2023-08-16_09h03.42.050,HF_wild_card,2022.2.4,Win32,60.0024001,59ba6e9162b30d0001b7acab,64d2fd46c836a06233681665,64dc7e031e71c1d50c779dc3,,,,,,,decisionTrl,resources/DB.BMP,resources/DG.BMP,Door1,-0.390625,0.032552083,1,0,0,0.697,optionLeft,30,14120,6,41,0,41,0,1,,,,,,,,,,,,,,,,,,,,,,,,,,,,,,,,,,,,,,,
,,,,,,,59ba6e9162b30d0001b7acab,2023-08-16_09h03.42.050,HF_wild_card,2022.2.4,Win32,60.0024001,59ba6e9162b30d0001b7acab,64d2fd46c836a06233681665,64dc7e031e71c1d50c779dc3,,,,,,,ctch,resources/DP.BMP,resources/DB.BMP,Door4,-0.381510417,0.03515625,1,0,0,0.5937,optionLeft,80,14200,6,42,0,42,0,1,,,,,,,,,,,,,,,,,,,,,,,,,,,,,,,,,,,,,,,
,,,,,,,59ba6e9162b30d0001b7acab,2023-08-16_09h03.42.050,HF_wild_card,2022.2.4,Win32,60.0024001,59ba6e9162b30d0001b7acab,64d2fd46c836a06233681665,64dc7e031e71c1d50c779dc3,,,,,,,decisionTrl,resources/DP.BMP,resources/DR.BMP,Door3,0.427083333,-0.07421875,1,0,0,1.1266,optionRight,70,14270,6,43,0,43,0,1,,,,,,,,,,,,,,,,,,,,,,,,,,,,,,,,,,,,,,,
,,,,,,,59ba6e9162b30d0001b7acab,2023-08-16_09h03.42.050,HF_wild_card,2022.2.4,Win32,60.0024001,59ba6e9162b30d0001b7acab,64d2fd46c836a06233681665,64dc7e031e71c1d50c779dc3,,,,,,,,,,,,,,,,,,,,,,,,,,5,0,5,0,1,,,,,,,,,,,,,,,,,,,,,,,,,,,,,,,,,,
,,,,,,,59ba6e9162b30d0001b7acab,2023-08-16_09h03.42.050,HF_wild_card,2022.2.4,Win32,60.0024001,59ba6e9162b30d0001b7acab,64d2fd46c836a06233681665,64dc7e031e71c1d50c779dc3,,,,,,,decisionTrl,resources/DB.BMP,resources/DG.BMP,Door1,-0.348958333,-0.03125,1,0,0,1.1834,optionLeft,30,14300,7,0,0,0,0,1,,,,,,,,,,,,,,,,,,,,,,,,,,,,,,,,,,,,,,,
,,,,,,,59ba6e9162b30d0001b7acab,2023-08-16_09h03.42.050,HF_wild_card,2022.2.4,Win32,60.0024001,59ba6e9162b30d0001b7acab,64d2fd46c836a06233681665,64dc7e031e71c1d50c779dc3,,,,,,,decisionTrl,resources/DP.BMP,resources/DR.BMP,Door3,0.359375,-0.024739583,1,0,0,0.9302,optionRight,70,14370,7,1,0,1,0,1,,,,,,,,,,,,,,,,,,,,,,,,,,,,,,,,,,,,,,,
,,,,,,,59ba6e9162b30d0001b7acab,2023-08-16_09h03.42.050,HF_wild_card,2022.2.4,Win32,60.0024001,59ba6e9162b30d0001b7acab,64d2fd46c836a06233681665,64dc7e031e71c1d50c779dc3,,,,,,,decisionTrl,resources/DR.BMP,resources/DP.BMP,Door3,-0.372395833,0.002604167,1,0,0,0.6819,optionLeft,70,14440,7,2,0,2,0,1,,,,,,,,,,,,,,,,,,,,,,,,,,,,,,,,,,,,,,,
,,,,,,,59ba6e9162b30d0001b7acab,2023-08-16_09h03.42.050,HF_wild_card,2022.2.4,Win32,60.0024001,59ba6e9162b30d0001b7acab,64d2fd46c836a06233681665,64dc7e031e71c1d50c779dc3,,,,,,,decisionTrl,resources/DR.BMP,resources/DP.BMP,Door3,-0.408854167,-0.013020833,1,0,0,0.7992,optionLeft,70,14510,7,3,0,3,0,1,,,,,,,,,,,,,,,,,,,,,,,,,,,,,,,,,,,,,,,
,,,,,,,59ba6e9162b30d0001b7acab,2023-08-16_09h03.42.050,HF_wild_card,2022.2.4,Win32,60.0024001,59ba6e9162b30d0001b7acab,64d2fd46c836a06233681665,64dc7e031e71c1d50c779dc3,,,,,,,decisionTrl,resources/DG.BMP,resources/DB.BMP,Door1,0.411458333,-0.06640625,1,0,0,1.1001,optionRight,30,14540,7,4,0,4,0,1,,,,,,,,,,,,,,,,,,,,,,,,,,,,,,,,,,,,,,,
,,,,,,,59ba6e9162b30d0001b7acab,2023-08-16_09h03.42.050,HF_wild_card,2022.2.4,Win32,60.0024001,59ba6e9162b30d0001b7acab,64d2fd46c836a06233681665,64dc7e031e71c1d50c779dc3,,,,,,,ctch,resources/DG.BMP,resources/DR.BMP,Door3,0.368489583,0.014322917,1,0,0,0.8296,optionRight,70,14610,7,5,0,5,0,1,,,,,,,,,,,,,,,,,,,,,,,,,,,,,,,,,,,,,,,
,,,,,,,59ba6e9162b30d0001b7acab,2023-08-16_09h03.42.050,HF_wild_card,2022.2.4,Win32,60.0024001,59ba6e9162b30d0001b7acab,64d2fd46c836a06233681665,64dc7e031e71c1d50c779dc3,,,,,,,decisionTrl,resources/DR.BMP,resources/DP.BMP,Door3,-0.475260417,-0.016927083,1,0,0,0.8955,optionLeft,70,14680,7,6,0,6,0,1,,,,,,,,,,,,,,,,,,,,,,,,,,,,,,,,,,,,,,,
,,,,,,,59ba6e9162b30d0001b7acab,2023-08-16_09h03.42.050,HF_wild_card,2022.2.4,Win32,60.0024001,59ba6e9162b30d0001b7acab,64d2fd46c836a06233681665,64dc7e031e71c1d50c779dc3,,,,,,,ctch,resources/DB.BMP,resources/DP.BMP,Door4,0.41015625,-0.03125,1,0,0,1.0138,optionRight,80,14760,7,7,0,7,0,1,,,,,,,,,,,,,,,,,,,,,,,,,,,,,,,,,,,,,,,
,,,,,,,59ba6e9162b30d0001b7acab,2023-08-16_09h03.42.050,HF_wild_card,2022.2.4,Win32,60.0024001,59ba6e9162b30d0001b7acab,64d2fd46c836a06233681665,64dc7e031e71c1d50c779dc3,,,,,,,ctch,resources/DB.BMP,resources/DP.BMP,Door4,0.368489583,-0.076822917,1,0,0,0.7824,optionRight,80,14840,7,8,0,8,0,1,,,,,,,,,,,,,,,,,,,,,,,,,,,,,,,,,,,,,,,
,,,,,,,59ba6e9162b30d0001b7acab,2023-08-16_09h03.42.050,HF_wild_card,2022.2.4,Win32,60.0024001,59ba6e9162b30d0001b7acab,64d2fd46c836a06233681665,64dc7e031e71c1d50c779dc3,,,,,,,ctch,resources/DB.BMP,resources/DP.BMP,Door4,0.3671875,-0.014322917,1,0,0,1.4159,optionRight,80,14920,7,9,0,9,0,1,,,,,,,,,,,,,,,,,,,,,,,,,,,,,,,,,,,,,,,
,,,,,,,59ba6e9162b30d0001b7acab,2023-08-16_09h03.42.050,HF_wild_card,2022.2.4,Win32,60.0024001,59ba6e9162b30d0001b7acab,64d2fd46c836a06233681665,64dc7e031e71c1d50c779dc3,,,,,,,decisionTrl,resources/DG.BMP,resources/DB.BMP,Door1,0.3203125,-0.053385417,1,0,0,1.2301,optionRight,30,14950,7,10,0,10,0,1,,,,,,,,,,,,,,,,,,,,,,,,,,,,,,,,,,,,,,,
,,,,,,,59ba6e9162b30d0001b7acab,2023-08-16_09h03.42.050,HF_wild_card,2022.2.4,Win32,60.0024001,59ba6e9162b30d0001b7acab,64d2fd46c836a06233681665,64dc7e031e71c1d50c779dc3,,,,,,,ctch,resources/DP.BMP,resources/DB.BMP,Door4,-0.438802083,-0.00390625,1,0,0,0.7781,optionLeft,60,15010,7,11,0,11,0,1,,,,,,,,,,,,,,,,,,,,,,,,,,,,,,,,,,,,,,,
,,,,,,,59ba6e9162b30d0001b7acab,2023-08-16_09h03.42.050,HF_wild_card,2022.2.4,Win32,60.0024001,59ba6e9162b30d0001b7acab,64d2fd46c836a06233681665,64dc7e031e71c1d50c779dc3,,,,,,,decisionTrl,resources/DR.BMP,resources/DP.BMP,Door3,-0.3984375,0.022135417,1,0,0,0.7987,optionLeft,70,15080,7,12,0,12,0,1,,,,,,,,,,,,,,,,,,,,,,,,,,,,,,,,,,,,,,,
,,,,,,,59ba6e9162b30d0001b7acab,2023-08-16_09h03.42.050,HF_wild_card,2022.2.4,Win32,60.0024001,59ba6e9162b30d0001b7acab,64d2fd46c836a06233681665,64dc7e031e71c1d50c779dc3,,,,,,,decisionTrl,resources/DP.BMP,resources/DR.BMP,Door4,-0.3984375,-0.052083333,1,0,0,0.9775,optionLeft,60,15140,7,13,0,13,0,1,,,,,,,,,,,,,,,,,,,,,,,,,,,,,,,,,,,,,,,
,,,,,,,59ba6e9162b30d0001b7acab,2023-08-16_09h03.42.050,HF_wild_card,2022.2.4,Win32,60.0024001,59ba6e9162b30d0001b7acab,64d2fd46c836a06233681665,64dc7e031e71c1d50c779dc3,,,,,,,decisionTrl,resources/DB.BMP,resources/DG.BMP,Door1,-0.385416667,-0.087239583,1,0,0,1.2623,optionLeft,30,15170,7,14,0,14,0,1,,,,,,,,,,,,,,,,,,,,,,,,,,,,,,,,,,,,,,,
,,,,,,,59ba6e9162b30d0001b7acab,2023-08-16_09h03.42.050,HF_wild_card,2022.2.4,Win32,60.0024001,59ba6e9162b30d0001b7acab,64d2fd46c836a06233681665,64dc7e031e71c1d50c779dc3,,,,,,,decisionTrl,resources/DG.BMP,resources/DB.BMP,Door1,0.407552083,0.014322917,1,0,0,3.2636,optionRight,30,15200,7,15,0,15,0,1,,,,,,,,,,,,,,,,,,,,,,,,,,,,,,,,,,,,,,,
,,,,,,,59ba6e9162b30d0001b7acab,2023-08-16_09h03.42.050,HF_wild_card,2022.2.4,Win32,60.0024001,59ba6e9162b30d0001b7acab,64d2fd46c836a06233681665,64dc7e031e71c1d50c779dc3,,,,,,,decisionTrl,resources/DP.BMP,resources/DR.BMP,Door4,-0.385416667,0.018229167,1,0,0,0.7483,optionLeft,80,15280,7,16,0,16,0,1,,,,,,,,,,,,,,,,,,,,,,,,,,,,,,,,,,,,,,,
,,,,,,,59ba6e9162b30d0001b7acab,2023-08-16_09h03.42.050,HF_wild_card,2022.2.4,Win32,60.0024001,59ba6e9162b30d0001b7acab,64d2fd46c836a06233681665,64dc7e031e71c1d50c779dc3,,,,,,,decisionTrl,resources/DG.BMP,resources/DB.BMP,Door1,0.420572917,0.05078125,1,0,0,2.3138,optionRight,30,15310,7,17,0,17,0,1,,,,,,,,,,,,,,,,,,,,,,,,,,,,,,,,,,,,,,,
,,,,,,,59ba6e9162b30d0001b7acab,2023-08-16_09h03.42.050,HF_wild_card,2022.2.4,Win32,60.0024001,59ba6e9162b30d0001b7acab,64d2fd46c836a06233681665,64dc7e031e71c1d50c779dc3,,,,,,,ctch,resources/DP.BMP,resources/DB.BMP,Door4,-0.423177083,-0.006510417,1,0,0,0.9135,optionLeft,60,15370,7,18,0,18,0,1,,,,,,,,,,,,,,,,,,,,,,,,,,,,,,,,,,,,,,,
,,,,,,,59ba6e9162b30d0001b7acab,2023-08-16_09h03.42.050,HF_wild_card,2022.2.4,Win32,60.0024001,59ba6e9162b30d0001b7acab,64d2fd46c836a06233681665,64dc7e031e71c1d50c779dc3,,,,,,,ctch,resources/DR.BMP,resources/DG.BMP,Door3,-0.43359375,0.005208333,1,0,0,0.796,optionLeft,70,15440,7,19,0,19,0,1,,,,,,,,,,,,,,,,,,,,,,,,,,,,,,,,,,,,,,,
,,,,,,,59ba6e9162b30d0001b7acab,2023-08-16_09h03.42.050,HF_wild_card,2022.2.4,Win32,60.0024001,59ba6e9162b30d0001b7acab,64d2fd46c836a06233681665,64dc7e031e71c1d50c779dc3,,,,,,,decisionTrl,resources/DR.BMP,resources/DP.BMP,Door3,-0.447916667,-0.028645833,1,0,0,0.6801,optionLeft,70,15510,7,20,0,20,0,1,,,,,,,,,,,,,,,,,,,,,,,,,,,,,,,,,,,,,,,
,,,,,,,59ba6e9162b30d0001b7acab,2023-08-16_09h03.42.050,HF_wild_card,2022.2.4,Win32,60.0024001,59ba6e9162b30d0001b7acab,64d2fd46c836a06233681665,64dc7e031e71c1d50c779dc3,,,,,,,decisionTrl,resources/DG.BMP,resources/DB.BMP,Door1,0.28515625,-0.08203125,1,0,0,1.1813,optionRight,30,15540,7,21,0,21,0,1,,,,,,,,,,,,,,,,,,,,,,,,,,,,,,,,,,,,,,,
