Condition,Low fixed image (Door1),Low risky image (Door2),High fixed image (Door3),High risky image (Door4),NonExtreme Wild Card 1,NonExtreme Wild Card 2,,date,expName,psychopyVersion,OS,frameRate,PROLIFIC_PID,STUDY_ID,SESSION_ID,mouse_2.x,mouse_2.y,mouse_2.leftButton,mouse_2.midButton,mouse_2.rightButton,mouse_2.clicked_name,Trial Type,Left Option Image,Right Option Image,Chosen Door,mouse.x,mouse.y,mouse.leftButton,mouse.midButton,mouse.rightButton,mouse.time,mouse.clicked_name,Feedback,Cumulative Reward,Block,trial.thisRepN,trial.thisTrialN,trial.thisN,trial.thisIndex,trial.ran,blocks.thisRepN,blocks.thisTrialN,blocks.thisN,blocks.thisIndex,blocks.ran,Money conversion,First Outcome Reported,Shown Door (First Outcome),Displayed Image (First Outcome),outcomes.thisRepN,outcomes.thisTrialN,outcomes.thisN,outcomes.thisIndex,outcomes.ran,judgments.thisRepN,judgments.thisTrialN,judgments.thisN,judgments.thisIndex,judgments.ran,freqMouse.x,freqMouse.y,freqMouse.leftButton,freqMouse.midButton,freqMouse.rightButton,freqMouse.clicked_name,FQJ for first outcome,FQJ for second outcome,Shown Door,Displayed Image,trials.thisRepN,trials.thisTrialN,trials.thisN,trials.thisIndex,trials.ran,judgBlock.thisRepN,judgBlock.thisTrialN,judgBlock.thisN,judgBlock.thisIndex,judgBlock.ran
2,resources/DBN.BMP,resources/DR.BMP,resources/DG.BMP,resources/DY.BMP,resources/DP.BMP,resources/DB.BMP,,2023-08-06_08h28.53.818,HF_wild_card,2022.2.4,Linux x86_64,60.05645307,62d6e262beee43c4b17ef059,64ce5acb97489d65b14ecc7a,64cf4b4fe598e964d2eae650,,,,,,,,,,,,,,,,,,,,,,,,,,,,,,,,,,,,,,,,,,,,,,,,,,,,,,,,,,,,,,,,
,,,,,,,,2023-08-06_08h28.53.818,HF_wild_card,2022.2.4,Linux x86_64,60.05645307,62d6e262beee43c4b17ef059,64ce5acb97489d65b14ecc7a,64cf4b4fe598e964d2eae650,0.00178345,-0.425659339,1,0,0,agree,,,,,,,,,,,,,,,,,,,,,,,,,,,,,,,,,,,,,,,,,,,,,,,,,,,,,,,,,,
,,,,,,,,2023-08-06_08h28.53.818,HF_wild_card,2022.2.4,Linux x86_64,60.05645307,62d6e262beee43c4b17ef059,64ce5acb97489d65b14ecc7a,64cf4b4fe598e964d2eae650,,,,,,,,,,,,,,,,,,,,,,,,,,,,,,,,,,,,,,,,,,,,,,,,,,,,,,,,,,,,,,,,
,,,,,,,,2023-08-06_08h28.53.818,HF_wild_card,2022.2.4,Linux x86_64,60.05645307,62d6e262beee43c4b17ef059,64ce5acb97489d65b14ecc7a,64cf4b4fe598e964d2eae650,,,,,,,decisionTrl,resources/DY.BMP,resources/DG.BMP,Door4,-0.322688977,0.063031276,1,0,0,2.8285,optionLeft,60,60,1,0,0,0,0,1,,,,,,,,,,,,,,,,,,,,,,,,,,,,,,,,,,,,,,,
,,,,,,,,2023-08-06_08h28.53.818,HF_wild_card,2022.2.4,Linux x86_64,60.05645307,62d6e262beee43c4b17ef059,64ce5acb97489d65b14ecc7a,64cf4b4fe598e964d2eae650,,,,,,,decisionTrl,resources/DG.BMP,resources/DY.BMP,Door3,-0.262097319,0.00606219,1,0,0,1.6574,optionLeft,70,130,1,1,0,1,0,1,,,,,,,,,,,,,,,,,,,,,,,,,,,,,,,,,,,,,,,
,,,,,,,,2023-08-06_08h28.53.818,HF_wild_card,2022.2.4,Linux x86_64,60.05645307,62d6e262beee43c4b17ef059,64ce5acb97489d65b14ecc7a,64cf4b4fe598e964d2eae650,,,,,,,ctch,resources/DG.BMP,resources/DR.BMP,Door2,0.389274279,-0.063050906,1,0,0,1.54,optionRight,20,150,1,2,0,2,0,1,,,,,,,,,,,,,,,,,,,,,,,,,,,,,,,,,,,,,,,
,,,,,,,,2023-08-06_08h28.53.818,HF_wild_card,2022.2.4,Linux x86_64,60.05645307,62d6e262beee43c4b17ef059,64ce5acb97489d65b14ecc7a,64cf4b4fe598e964d2eae650,,,,,,,sngl,resources/DG.BMP,resources/Empty.png,Door3,-0.342378696,0.021166126,1,0,0,1.1966,optionLeft,70,220,1,3,0,3,0,1,,,,,,,,,,,,,,,,,,,,,,,,,,,,,,,,,,,,,,,
,,,,,,,,2023-08-06_08h28.53.818,HF_wild_card,2022.2.4,Linux x86_64,60.05645307,62d6e262beee43c4b17ef059,64ce5acb97489d65b14ecc7a,64cf4b4fe598e964d2eae650,,,,,,,ctch,resources/DBN.BMP,resources/DY.BMP,Door1,-0.296864152,-0.003044963,1,0,0,2.9427,optionLeft,30,250,1,4,0,4,0,1,,,,,,,,,,,,,,,,,,,,,,,,,,,,,,,,,,,,,,,
,,,,,,,,2023-08-06_08h28.53.818,HF_wild_card,2022.2.4,Linux x86_64,60.05645307,62d6e262beee43c4b17ef059,64ce5acb97489d65b14ecc7a,64cf4b4fe598e964d2eae650,,,,,,,ctch,resources/DY.BMP,resources/DBN.BMP,Door4,-0.36305956,-0.002769907,1,0,0,1.1761,optionLeft,60,310,1,5,0,5,0,1,,,,,,,,,,,,,,,,,,,,,,,,,,,,,,,,,,,,,,,
,,,,,,,,2023-08-06_08h28.53.818,HF_wild_card,2022.2.4,Linux x86_64,60.05645307,62d6e262beee43c4b17ef059,64ce5acb97489d65b14ecc7a,64cf4b4fe598e964d2eae650,,,,,,,decisionTrl,resources/DBN.BMP,resources/DB.BMP,WildCard_NonEx,0.436640422,0.051702181,1,0,0,1.2562,optionRight,45,355,1,6,0,6,0,1,,,,,,,,,,,,,,,,,,,,,,,,,,,,,,,,,,,,,,,
,,,,,,,,2023-08-06_08h28.53.818,HF_wild_card,2022.2.4,Linux x86_64,60.05645307,62d6e262beee43c4b17ef059,64ce5acb97489d65b14ecc7a,64cf4b4fe598e964d2eae650,,,,,,,decisionTrl,resources/DR.BMP,resources/DBN.BMP,Door2,-0.414334138,0.042253971,1,0,0,2.0081,optionLeft,20,375,1,7,0,7,0,1,,,,,,,,,,,,,,,,,,,,,,,,,,,,,,,,,,,,,,,
,,,,,,,,2023-08-06_08h28.53.818,HF_wild_card,2022.2.4,Linux x86_64,60.05645307,62d6e262beee43c4b17ef059,64ce5acb97489d65b14ecc7a,64cf4b4fe598e964d2eae650,,,,,,,decisionTrl,resources/DB.BMP,resources/DG.BMP,Door3,0.381209294,-0.027467648,1,0,0,1.1919,optionRight,70,445,1,8,0,8,0,1,,,,,,,,,,,,,,,,,,,,,,,,,,,,,,,,,,,,,,,
,,,,,,,,2023-08-06_08h28.53.818,HF_wild_card,2022.2.4,Linux x86_64,60.05645307,62d6e262beee43c4b17ef059,64ce5acb97489d65b14ecc7a,64cf4b4fe598e964d2eae650,,,,,,,decisionTrl,resources/DR.BMP,resources/DBN.BMP,Door1,0.530241013,0.016367356,1,0,0,1.9739,optionRight,30,475,1,9,0,9,0,1,,,,,,,,,,,,,,,,,,,,,,,,,,,,,,,,,,,,,,,
,,,,,,,,2023-08-06_08h28.53.818,HF_wild_card,2022.2.4,Linux x86_64,60.05645307,62d6e262beee43c4b17ef059,64ce5acb97489d65b14ecc7a,64cf4b4fe598e964d2eae650,,,,,,,sngl,resources/DB.BMP,resources/Empty.png,WildCard_NonEx,-0.399244626,0.011995554,1,0,0,1.3292,optionLeft,55,530,1,10,0,10,0,1,,,,,,,,,,,,,,,,,,,,,,,,,,,,,,,,,,,,,,,
,,,,,,,,2023-08-06_08h28.53.818,HF_wild_card,2022.2.4,Linux x86_64,60.05645307,62d6e262beee43c4b17ef059,64ce5acb97489d65b14ecc7a,64cf4b4fe598e964d2eae650,,,,,,,decisionTrl,resources/DY.BMP,resources/DB.BMP,Door4,-0.371921062,-0.015318712,1,0,0,1.8078,optionLeft,60,590,1,11,0,11,0,1,,,,,,,,,,,,,,,,,,,,,,,,,,,,,,,,,,,,,,,
,,,,,,,,2023-08-06_08h28.53.818,HF_wild_card,2022.2.4,Linux x86_64,60.05645307,62d6e262beee43c4b17ef059,64ce5acb97489d65b14ecc7a,64cf4b4fe598e964d2eae650,,,,,,,decisionTrl,resources/DB.BMP,resources/DR.BMP,WildCard_NonEx,-0.213623206,-0.022734205,1,0,0,1.9733,optionLeft,45,635,1,12,0,12,0,1,,,,,,,,,,,,,,,,,,,,,,,,,,,,,,,,,,,,,,,
,,,,,,,,2023-08-06_08h28.53.818,HF_wild_card,2022.2.4,Linux x86_64,60.05645307,62d6e262beee43c4b17ef059,64ce5acb97489d65b14ecc7a,64cf4b4fe598e964d2eae650,,,,,,,decisionTrl,resources/DG.BMP,resources/DB.BMP,Door3,-0.386245728,0.025797089,1,0,0,1.426,optionLeft,70,705,1,13,0,13,0,1,,,,,,,,,,,,,,,,,,,,,,,,,,,,,,,,,,,,,,,
,,,,,,,,2023-08-06_08h28.53.818,HF_wild_card,2022.2.4,Linux x86_64,60.05645307,62d6e262beee43c4b17ef059,64ce5acb97489d65b14ecc7a,64cf4b4fe598e964d2eae650,,,,,,,ctch,resources/DY.BMP,resources/DBN.BMP,Door4,-0.383611719,0.022463163,1,0,0,1.2586,optionLeft,60,765,1,14,0,14,0,1,,,,,,,,,,,,,,,,,,,,,,,,,,,,,,,,,,,,,,,
,,,,,,,,2023-08-06_08h28.53.818,HF_wild_card,2022.2.4,Linux x86_64,60.05645307,62d6e262beee43c4b17ef059,64ce5acb97489d65b14ecc7a,64cf4b4fe598e964d2eae650,,,,,,,sngl,resources/Empty.png,resources/DBN.BMP,Door1,0.549530983,0.087278128,1,0,0,1.0255,optionRight,30,795,1,15,0,15,0,1,,,,,,,,,,,,,,,,,,,,,,,,,,,,,,,,,,,,,,,
,,,,,,,,2023-08-06_08h28.53.818,HF_wild_card,2022.2.4,Linux x86_64,60.05645307,62d6e262beee43c4b17ef059,64ce5acb97489d65b14ecc7a,64cf4b4fe598e964d2eae650,,,,,,,sngl,resources/DBN.BMP,resources/Empty.png,Door1,-0.429173311,0.074090242,1,0,0,1.1576,optionLeft,30,825,1,16,0,16,0,1,,,,,,,,,,,,,,,,,,,,,,,,,,,,,,,,,,,,,,,
,,,,,,,,2023-08-06_08h28.53.818,HF_wild_card,2022.2.4,Linux x86_64,60.05645307,62d6e262beee43c4b17ef059,64ce5acb97489d65b14ecc7a,64cf4b4fe598e964d2eae650,,,,,,,ctch,resources/DG.BMP,resources/DR.BMP,Door3,-0.479682604,-0.033918699,1,0,0,3.0725,optionLeft,70,895,1,17,0,17,0,1,,,,,,,,,,,,,,,,,,,,,,,,,,,,,,,,,,,,,,,
,,,,,,,,2023-08-06_08h28.53.818,HF_wild_card,2022.2.4,Linux x86_64,60.05645307,62d6e262beee43c4b17ef059,64ce5acb97489d65b14ecc7a,64cf4b4fe598e964d2eae650,,,,,,,ctch,resources/DBN.BMP,resources/DY.BMP,Door4,0.286621332,-0.000337561,1,0,0,1.5604,optionRight,60,955,1,18,0,18,0,1,,,,,,,,,,,,,,,,,,,,,,,,,,,,,,,,,,,,,,,
,,,,,,,,2023-08-06_08h28.53.818,HF_wild_card,2022.2.4,Linux x86_64,60.05645307,62d6e262beee43c4b17ef059,64ce5acb97489d65b14ecc7a,64cf4b4fe598e964d2eae650,,,,,,,decisionTrl,resources/DB.BMP,resources/DBN.BMP,Door1,0.353136222,-0.026887655,1,0,0,2.0078,optionRight,30,985,1,19,0,19,0,1,,,,,,,,,,,,,,,,,,,,,,,,,,,,,,,,,,,,,,,
,,,,,,,,2023-08-06_08h28.53.818,HF_wild_card,2022.2.4,Linux x86_64,60.05645307,62d6e262beee43c4b17ef059,64ce5acb97489d65b14ecc7a,64cf4b4fe598e964d2eae650,,,,,,,decisionTrl,resources/DR.BMP,resources/DBN.BMP,Door1,0.433986664,0.032846967,1,0,0,1.4258,optionRight,30,1015,1,20,0,20,0,1,,,,,,,,,,,,,,,,,,,,,,,,,,,,,,,,,,,,,,,
,,,,,,,,2023-08-06_08h28.53.818,HF_wild_card,2022.2.4,Linux x86_64,60.05645307,62d6e262beee43c4b17ef059,64ce5acb97489d65b14ecc7a,64cf4b4fe598e964d2eae650,,,,,,,decisionTrl,resources/DG.BMP,resources/DY.BMP,Door3,-0.384882569,0.005052845,1,0,0,1.2088,optionLeft,70,1085,1,21,0,21,0,1,,,,,,,,,,,,,,,,,,,,,,,,,,,,,,,,,,,,,,,
,,,,,,,,2023-08-06_08h28.53.818,HF_wild_card,2022.2.4,Linux x86_64,60.05645307,62d6e262beee43c4b17ef059,64ce5acb97489d65b14ecc7a,64cf4b4fe598e964d2eae650,,,,,,,decisionTrl,resources/DBN.BMP,resources/DR.BMP,Door1,-0.374347965,0.045256535,1,0,0,1.6229,optionLeft,30,1115,1,22,0,22,0,1,,,,,,,,,,,,,,,,,,,,,,,,,,,,,,,,,,,,,,,
,,,,,,,,2023-08-06_08h28.53.818,HF_wild_card,2022.2.4,Linux x86_64,60.05645307,62d6e262beee43c4b17ef059,64ce5acb97489d65b14ecc7a,64cf4b4fe598e964d2eae650,,,,,,,decisionTrl,resources/DB.BMP,resources/DY.BMP,Door4,0.474892934,0.039786895,1,0,0,2.1751,optionRight,60,1175,1,23,0,23,0,1,,,,,,,,,,,,,,,,,,,,,,,,,,,,,,,,,,,,,,,
,,,,,,,,2023-08-06_08h28.53.818,HF_wild_card,2022.2.4,Linux x86_64,60.05645307,62d6e262beee43c4b17ef059,64ce5acb97489d65b14ecc7a,64cf4b4fe598e964d2eae650,,,,,,,decisionTrl,resources/DG.BMP,resources/DY.BMP,Door3,-0.233869116,-0.002667109,1,0,0,1.6929,optionLeft,70,1245,1,24,0,24,0,1,,,,,,,,,,,,,,,,,,,,,,,,,,,,,,,,,,,,,,,
,,,,,,,,2023-08-06_08h28.53.818,HF_wild_card,2022.2.4,Linux x86_64,60.05645307,62d6e262beee43c4b17ef059,64ce5acb97489d65b14ecc7a,64cf4b4fe598e964d2eae650,,,,,,,decisionTrl,resources/DBN.BMP,resources/DR.BMP,Door1,-0.36683321,0.024019718,1,0,0,1.4191,optionLeft,30,1275,1,25,0,25,0,1,,,,,,,,,,,,,,,,,,,,,,,,,,,,,,,,,,,,,,,
,,,,,,,,2023-08-06_08h28.53.818,HF_wild_card,2022.2.4,Linux x86_64,60.05645307,62d6e262beee43c4b17ef059,64ce5acb97489d65b14ecc7a,64cf4b4fe598e964d2eae650,,,,,,,ctch,resources/DR.BMP,resources/DG.BMP,Door3,0.473436356,0.023237109,1,0,0,1.4915,optionRight,70,1345,1,26,0,26,0,1,,,,,,,,,,,,,,,,,,,,,,,,,,,,,,,,,,,,,,,
,,,,,,,,2023-08-06_08h28.53.818,HF_wild_card,2022.2.4,Linux x86_64,60.05645307,62d6e262beee43c4b17ef059,64ce5acb97489d65b14ecc7a,64cf4b4fe598e964d2eae650,,,,,,,ctch,resources/DR.BMP,resources/DG.BMP,Door3,0.408555031,-0.090628902,1,0,0,1.7564,optionRight,70,1415,1,27,0,27,0,1,,,,,,,,,,,,,,,,,,,,,,,,,,,,,,,,,,,,,,,
,,,,,,,,2023-08-06_08h28.53.818,HF_wild_card,2022.2.4,Linux x86_64,60.05645307,62d6e262beee43c4b17ef059,64ce5acb97489d65b14ecc7a,64cf4b4fe598e964d2eae650,,,,,,,sngl,resources/DR.BMP,resources/Empty.png,Door2,-0.459528724,0.086879293,1,0,0,1.0259,optionLeft,40,1455,1,28,0,28,0,1,,,,,,,,,,,,,,,,,,,,,,,,,,,,,,,,,,,,,,,
,,,,,,,,2023-08-06_08h28.53.818,HF_wild_card,2022.2.4,Linux x86_64,60.05645307,62d6e262beee43c4b17ef059,64ce5acb97489d65b14ecc7a,64cf4b4fe598e964d2eae650,,,,,,,decisionTrl,resources/DR.BMP,resources/DBN.BMP,Door2,-0.4014105,0.05727303,1,0,0,1.9754,optionLeft,40,1495,1,29,0,29,0,1,,,,,,,,,,,,,,,,,,,,,,,,,,,,,,,,,,,,,,,
,,,,,,,,2023-08-06_08h28.53.818,HF_wild_card,2022.2.4,Linux x86_64,60.05645307,62d6e262beee43c4b17ef059,64ce5acb97489d65b14ecc7a,64cf4b4fe598e964d2eae650,,,,,,,sngl,resources/Empty.png,resources/DB.BMP,WildCard_NonEx,0.470750809,-0.0360835,1,0,0,0.8923,optionRight,55,1550,1,30,0,30,0,1,,,,,,,,,,,,,,,,,,,,,,,,,,,,,,,,,,,,,,,
,,,,,,,,2023-08-06_08h28.53.818,HF_wild_card,2022.2.4,Linux x86_64,60.05645307,62d6e262beee43c4b17ef059,64ce5acb97489d65b14ecc7a,64cf4b4fe598e964d2eae650,,,,,,,sngl,resources/DB.BMP,resources/Empty.png,WildCard_NonEx,-0.453668714,0.048376719,1,0,0,1.1083,optionLeft,45,1595,1,31,0,31,0,1,,,,,,,,,,,,,,,,,,,,,,,,,,,,,,,,,,,,,,,
,,,,,,,,2023-08-06_08h28.53.818,HF_wild_card,2022.2.4,Linux x86_64,60.05645307,62d6e262beee43c4b17ef059,64ce5acb97489d65b14ecc7a,64cf4b4fe598e964d2eae650,,,,,,,sngl,resources/DY.BMP,resources/Empty.png,Door4,-0.584980806,0.057011763,1,0,0,1.0434,optionLeft,80,1675,1,32,0,32,0,1,,,,,,,,,,,,,,,,,,,,,,,,,,,,,,,,,,,,,,,
,,,,,,,,2023-08-06_08h28.53.818,HF_wild_card,2022.2.4,Linux x86_64,60.05645307,62d6e262beee43c4b17ef059,64ce5acb97489d65b14ecc7a,64cf4b4fe598e964d2eae650,,,,,,,decisionTrl,resources/DBN.BMP,resources/DR.BMP,Door2,0.282308499,0.015964429,1,0,0,2.8075,optionRight,20,1695,1,33,0,33,0,1,,,,,,,,,,,,,,,,,,,,,,,,,,,,,,,,,,,,,,,
,,,,,,,,2023-08-06_08h28.53.818,HF_wild_card,2022.2.4,Linux x86_64,60.05645307,62d6e262beee43c4b17ef059,64ce5acb97489d65b14ecc7a,64cf4b4fe598e964d2eae650,,,,,,,sngl,resources/Empty.png,resources/DY.BMP,Door4,0.472911358,0.009971897,1,0,0,0.892,optionRight,60,1755,1,34,0,34,0,1,,,,,,,,,,,,,,,,,,,,,,,,,,,,,,,,,,,,,,,
,,,,,,,,2023-08-06_08h28.53.818,HF_wild_card,2022.2.4,Linux x86_64,60.05645307,62d6e262beee43c4b17ef059,64ce5acb97489d65b14ecc7a,64cf4b4fe598e964d2eae650,,,,,,,sngl,resources/Empty.png,resources/DG.BMP,Door3,0.392029524,-0.009047548,1,0,0,1.1273,optionRight,70,1825,1,35,0,35,0,1,,,,,,,,,,,,,,,,,,,,,,,,,,,,,,,,,,,,,,,
,,,,,,,,2023-08-06_08h28.53.818,HF_wild_card,2022.2.4,Linux x86_64,60.05645307,62d6e262beee43c4b17ef059,64ce5acb97489d65b14ecc7a,64cf4b4fe598e964d2eae650,,,,,,,sngl,resources/Empty.png,resources/DR.BMP,Door2,0.319817464,-0.033984025,1,0,0,1.128,optionRight,20,1845,1,36,0,36,0,1,,,,,,,,,,,,,,,,,,,,,,,,,,,,,,,,,,,,,,,
,,,,,,,,2023-08-06_08h28.53.818,HF_wild_card,2022.2.4,Linux x86_64,60.05645307,62d6e262beee43c4b17ef059,64ce5acb97489d65b14ecc7a,64cf4b4fe598e964d2eae650,,,,,,,decisionTrl,resources/DR.BMP,resources/DB.BMP,WildCard_NonEx,0.399520715,-0.088392933,1,0,0,1.6102,optionRight,45,1890,1,37,0,37,0,1,,,,,,,,,,,,,,,,,,,,,,,,,,,,,,,,,,,,,,,
,,,,,,,,2023-08-06_08h28.53.818,HF_wild_card,2022.2.4,Linux x86_64,60.05645307,62d6e262beee43c4b17ef059,64ce5acb97489d65b14ecc7a,64cf4b4fe598e964d2eae650,,,,,,,decisionTrl,resources/DY.BMP,resources/DG.BMP,Door4,-0.429889043,-0.014959574,1,0,0,3.1734,optionLeft,60,1950,1,38,0,38,0,1,,,,,,,,,,,,,,,,,,,,,,,,,,,,,,,,,,,,,,,
,,,,,,,,2023-08-06_08h28.53.818,HF_wild_card,2022.2.4,Linux x86_64,60.05645307,62d6e262beee43c4b17ef059,64ce5acb97489d65b14ecc7a,64cf4b4fe598e964d2eae650,,,,,,,decisionTrl,resources/DY.BMP,resources/DG.BMP,Door3,0.45529747,0.015986085,1,0,0,1.0105,optionRight,70,2020,1,39,0,39,0,1,,,,,,,,,,,,,,,,,,,,,,,,,,,,,,,,,,,,,,,
,,,,,,,,2023-08-06_08h28.53.818,HF_wild_card,2022.2.4,Linux x86_64,60.05645307,62d6e262beee43c4b17ef059,64ce5acb97489d65b14ecc7a,64cf4b4fe598e964d2eae650,,,,,,,sngl,resources/Empty.png,resources/DB.BMP,WildCard_NonEx,0.406911135,-0.031842351,1,0,0,0.86,optionRight,45,2065,1,40,0,40,0,1,,,,,,,,,,,,,,,,,,,,,,,,,,,,,,,,,,,,,,,
,,,,,,,,2023-08-06_08h28.53.818,HF_wild_card,2022.2.4,Linux x86_64,60.05645307,62d6e262beee43c4b17ef059,64ce5acb97489d65b14ecc7a,64cf4b4fe598e964d2eae650,,,,,,,decisionTrl,resources/DG.BMP,resources/DY.BMP,Door3,-0.33876435,0.013377508,1,0,0,2.0928,optionLeft,70,2135,1,41,0,41,0,1,,,,,,,,,,,,,,,,,,,,,,,,,,,,,,,,,,,,,,,
,,,,,,,,2023-08-06_08h28.53.818,HF_wild_card,2022.2.4,Linux x86_64,60.05645307,62d6e262beee43c4b17ef059,64ce5acb97489d65b14ecc7a,64cf4b4fe598e964d2eae650,,,,,,,decisionTrl,resources/DBN.BMP,resources/DR.BMP,Door2,0.350248893,-0.007960121,1,0,0,4.9217,optionRight,20,2155,1,42,0,42,0,1,,,,,,,,,,,,,,,,,,,,,,,,,,,,,,,,,,,,,,,
,,,,,,,,2023-08-06_08h28.53.818,HF_wild_card,2022.2.4,Linux x86_64,60.05645307,62d6e262beee43c4b17ef059,64ce5acb97489d65b14ecc7a,64cf4b4fe598e964d2eae650,,,,,,,decisionTrl,resources/DY.BMP,resources/DG.BMP,Door3,0.359407425,-0.057046572,1,0,0,1.791,optionRight,70,2225,1,43,0,43,0,1,,,,,,,,,,,,,,,,,,,,,,,,,,,,,,,,,,,,,,,
,,,,,,,,2023-08-06_08h28.53.818,HF_wild_card,2022.2.4,Linux x86_64,60.05645307,62d6e262beee43c4b17ef059,64ce5acb97489d65b14ecc7a,64cf4b4fe598e964d2eae650,,,,,,,,,,,,,,,,,,,,,,,,,,0,0,0,0,1,,,,,,,,,,,,,,,,,,,,,,,,,,,,,,,,,,
,,,,,,,,2023-08-06_08h28.53.818,HF_wild_card,2022.2.4,Linux x86_64,60.05645307,62d6e262beee43c4b17ef059,64ce5acb97489d65b14ecc7a,64cf4b4fe598e964d2eae650,,,,,,,sngl,resources/DB.BMP,resources/Empty.png,WildCard_NonEx,-0.416654666,0.077425838,1,0,0,1.359,optionLeft,45,2270,2,0,0,0,0,1,,,,,,,,,,,,,,,,,,,,,,,,,,,,,,,,,,,,,,,
,,,,,,,,2023-08-06_08h28.53.818,HF_wild_card,2022.2.4,Linux x86_64,60.05645307,62d6e262beee43c4b17ef059,64ce5acb97489d65b14ecc7a,64cf4b4fe598e964d2eae650,,,,,,,sngl,resources/Empty.png,resources/DB.BMP,WildCard_NonEx,0.340083043,0.043377002,1,0,0,1.0979,optionRight,55,2325,2,1,0,1,0,1,,,,,,,,,,,,,,,,,,,,,,,,,,,,,,,,,,,,,,,
,,,,,,,,2023-08-06_08h28.53.818,HF_wild_card,2022.2.4,Linux x86_64,60.05645307,62d6e262beee43c4b17ef059,64ce5acb97489d65b14ecc7a,64cf4b4fe598e964d2eae650,,,,,,,sngl,resources/Empty.png,resources/DY.BMP,Door4,0.424416304,0.004875779,1,0,0,1.0096,optionRight,80,2405,2,2,0,2,0,1,,,,,,,,,,,,,,,,,,,,,,,,,,,,,,,,,,,,,,,
,,,,,,,,2023-08-06_08h28.53.818,HF_wild_card,2022.2.4,Linux x86_64,60.05645307,62d6e262beee43c4b17ef059,64ce5acb97489d65b14ecc7a,64cf4b4fe598e964d2eae650,,,,,,,ctch,resources/DR.BMP,resources/DG.BMP,Door3,0.332208157,-0.025698821,1,0,0,1.36,optionRight,70,2475,2,3,0,3,0,1,,,,,,,,,,,,,,,,,,,,,,,,,,,,,,,,,,,,,,,
,,,,,,,,2023-08-06_08h28.53.818,HF_wild_card,2022.2.4,Linux x86_64,60.05645307,62d6e262beee43c4b17ef059,64ce5acb97489d65b14ecc7a,64cf4b4fe598e964d2eae650,,,,,,,decisionTrl,resources/DY.BMP,resources/DB.BMP,Door4,-0.328624964,0.040557504,1,0,0,1.1427,optionLeft,80,2555,2,4,0,4,0,1,,,,,,,,,,,,,,,,,,,,,,,,,,,,,,,,,,,,,,,
,,,,,,,,2023-08-06_08h28.53.818,HF_wild_card,2022.2.4,Linux x86_64,60.05645307,62d6e262beee43c4b17ef059,64ce5acb97489d65b14ecc7a,64cf4b4fe598e964d2eae650,,,,,,,sngl,resources/Empty.png,resources/DBN.BMP,Door1,0.448318799,-0.00973475,1,0,0,0.959,optionRight,30,2585,2,5,0,5,0,1,,,,,,,,,,,,,,,,,,,,,,,,,,,,,,,,,,,,,,,
,,,,,,,,2023-08-06_08h28.53.818,HF_wild_card,2022.2.4,Linux x86_64,60.05645307,62d6e262beee43c4b17ef059,64ce5acb97489d65b14ecc7a,64cf4b4fe598e964d2eae650,,,,,,,sngl,resources/DBN.BMP,resources/Empty.png,Door1,-0.41995736,0.089824478,1,0,0,0.9777,optionLeft,30,2615,2,6,0,6,0,1,,,,,,,,,,,,,,,,,,,,,,,,,,,,,,,,,,,,,,,
,,,,,,,,2023-08-06_08h28.53.818,HF_wild_card,2022.2.4,Linux x86_64,60.05645307,62d6e262beee43c4b17ef059,64ce5acb97489d65b14ecc7a,64cf4b4fe598e964d2eae650,,,,,,,decisionTrl,resources/DY.BMP,resources/DG.BMP,Door3,0.402588288,-0.038690646,1,0,0,3.4066,optionRight,70,2685,2,7,0,7,0,1,,,,,,,,,,,,,,,,,,,,,,,,,,,,,,,,,,,,,,,
,,,,,,,,2023-08-06_08h28.53.818,HF_wild_card,2022.2.4,Linux x86_64,60.05645307,62d6e262beee43c4b17ef059,64ce5acb97489d65b14ecc7a,64cf4b4fe598e964d2eae650,,,,,,,decisionTrl,resources/DG.BMP,resources/DY.BMP,Door4,0.456224283,0.029841065,1,0,0,0.9929,optionRight,80,2765,2,8,0,8,0,1,,,,,,,,,,,,,,,,,,,,,,,,,,,,,,,,,,,,,,,
,,,,,,,,2023-08-06_08h28.53.818,HF_wild_card,2022.2.4,Linux x86_64,60.05645307,62d6e262beee43c4b17ef059,64ce5acb97489d65b14ecc7a,64cf4b4fe598e964d2eae650,,,,,,,sngl,resources/Empty.png,resources/DG.BMP,Door3,0.364144802,-0.061463753,1,0,0,1.0765,optionRight,70,2835,2,9,0,9,0,1,,,,,,,,,,,,,,,,,,,,,,,,,,,,,,,,,,,,,,,
,,,,,,,,2023-08-06_08h28.53.818,HF_wild_card,2022.2.4,Linux x86_64,60.05645307,62d6e262beee43c4b17ef059,64ce5acb97489d65b14ecc7a,64cf4b4fe598e964d2eae650,,,,,,,decisionTrl,resources/DR.BMP,resources/DB.BMP,WildCard_NonEx,0.319814285,-0.021522085,1,0,0,4.5403,optionRight,45,2880,2,10,0,10,0,1,,,,,,,,,,,,,,,,,,,,,,,,,,,,,,,,,,,,,,,
,,,,,,,,2023-08-06_08h28.53.818,HF_wild_card,2022.2.4,Linux x86_64,60.05645307,62d6e262beee43c4b17ef059,64ce5acb97489d65b14ecc7a,64cf4b4fe598e964d2eae650,,,,,,,decisionTrl,resources/DY.BMP,resources/DG.BMP,Door4,-0.306348761,-0.005296389,1,0,0,1.3773,optionLeft,80,2960,2,11,0,11,0,1,,,,,,,,,,,,,,,,,,,,,,,,,,,,,,,,,,,,,,,
,,,,,,,,2023-08-06_08h28.53.818,HF_wild_card,2022.2.4,Linux x86_64,60.05645307,62d6e262beee43c4b17ef059,64ce5acb97489d65b14ecc7a,64cf4b4fe598e964d2eae650,,,,,,,decisionTrl,resources/DG.BMP,resources/DY.BMP,Door4,0.45661068,0.053860823,1,0,0,1.0957,optionRight,80,3040,2,12,0,12,0,1,,,,,,,,,,,,,,,,,,,,,,,,,,,,,,,,,,,,,,,
,,,,,,,,2023-08-06_08h28.53.818,HF_wild_card,2022.2.4,Linux x86_64,60.05645307,62d6e262beee43c4b17ef059,64ce5acb97489d65b14ecc7a,64cf4b4fe598e964d2eae650,,,,,,,sngl,resources/DR.BMP,resources/Empty.png,Door2,-0.378635248,-0.000125488,1,0,0,1.2583,optionLeft,20,3060,2,13,0,13,0,1,,,,,,,,,,,,,,,,,,,,,,,,,,,,,,,,,,,,,,,
,,,,,,,,2023-08-06_08h28.53.818,HF_wild_card,2022.2.4,Linux x86_64,60.05645307,62d6e262beee43c4b17ef059,64ce5acb97489d65b14ecc7a,64cf4b4fe598e964d2eae650,,,,,,,sngl,resources/Empty.png,resources/DR.BMP,Door2,0.414281925,0.006135186,1,0,0,0.8764,optionRight,40,3100,2,14,0,14,0,1,,,,,,,,,,,,,,,,,,,,,,,,,,,,,,,,,,,,,,,
,,,,,,,,2023-08-06_08h28.53.818,HF_wild_card,2022.2.4,Linux x86_64,60.05645307,62d6e262beee43c4b17ef059,64ce5acb97489d65b14ecc7a,64cf4b4fe598e964d2eae650,,,,,,,sngl,resources/Empty.png,resources/DB.BMP,WildCard_NonEx,0.493125121,-0.089976033,1,0,0,1.0255,optionRight,45,3145,2,15,0,15,0,1,,,,,,,,,,,,,,,,,,,,,,,,,,,,,,,,,,,,,,,
,,,,,,,,2023-08-06_08h28.53.818,HF_wild_card,2022.2.4,Linux x86_64,60.05645307,62d6e262beee43c4b17ef059,64ce5acb97489d65b14ecc7a,64cf4b4fe598e964d2eae650,,,,,,,ctch,resources/DG.BMP,resources/DR.BMP,Door3,-0.196398497,0.003307343,1,0,0,2.2752,optionLeft,70,3215,2,16,0,16,0,1,,,,,,,,,,,,,,,,,,,,,,,,,,,,,,,,,,,,,,,
,,,,,,,,2023-08-06_08h28.53.818,HF_wild_card,2022.2.4,Linux x86_64,60.05645307,62d6e262beee43c4b17ef059,64ce5acb97489d65b14ecc7a,64cf4b4fe598e964d2eae650,,,,,,,decisionTrl,resources/DB.BMP,resources/DY.BMP,Door4,0.574678421,-0.065874139,1,0,0,1.2932,optionRight,60,3275,2,17,0,17,0,1,,,,,,,,,,,,,,,,,,,,,,,,,,,,,,,,,,,,,,,
,,,,,,,,2023-08-06_08h28.53.818,HF_wild_card,2022.2.4,Linux x86_64,60.05645307,62d6e262beee43c4b17ef059,64ce5acb97489d65b14ecc7a,64cf4b4fe598e964d2eae650,,,,,,,ctch,resources/DBN.BMP,resources/DY.BMP,Door4,0.277324041,-0.071594318,1,0,0,1.5274,optionRight,80,3355,2,18,0,18,0,1,,,,,,,,,,,,,,,,,,,,,,,,,,,,,,,,,,,,,,,
,,,,,,,,2023-08-06_08h28.53.818,HF_wild_card,2022.2.4,Linux x86_64,60.05645307,62d6e262beee43c4b17ef059,64ce5acb97489d65b14ecc7a,64cf4b4fe598e964d2eae650,,,,,,,decisionTrl,resources/DG.BMP,resources/DY.BMP,Door4,0.255396287,-0.009299437,1,0,0,1.5258,optionRight,60,3415,2,19,0,19,0,1,,,,,,,,,,,,,,,,,,,,,,,,,,,,,,,,,,,,,,,
,,,,,,,,2023-08-06_08h28.53.818,HF_wild_card,2022.2.4,Linux x86_64,60.05645307,62d6e262beee43c4b17ef059,64ce5acb97489d65b14ecc7a,64cf4b4fe598e964d2eae650,,,,,,,sngl,resources/DB.BMP,resources/Empty.png,WildCard_NonEx,-0.347757181,-0.038953463,1,0,0,2.3081,optionLeft,55,3470,2,20,0,20,0,1,,,,,,,,,,,,,,,,,,,,,,,,,,,,,,,,,,,,,,,
,,,,,,,,2023-08-06_08h28.53.818,HF_wild_card,2022.2.4,Linux x86_64,60.05645307,62d6e262beee43c4b17ef059,64ce5acb97489d65b14ecc7a,64cf4b4fe598e964d2eae650,,,,,,,decisionTrl,resources/DB.BMP,resources/DR.BMP,WildCard_NonEx,-0.299768647,-0.004723827,1,0,0,1.3256,optionLeft,45,3515,2,21,0,21,0,1,,,,,,,,,,,,,,,,,,,,,,,,,,,,,,,,,,,,,,,
,,,,,,,,2023-08-06_08h28.53.818,HF_wild_card,2022.2.4,Linux x86_64,60.05645307,62d6e262beee43c4b17ef059,64ce5acb97489d65b14ecc7a,64cf4b4fe598e964d2eae650,,,,,,,decisionTrl,resources/DR.BMP,resources/DBN.BMP,Door1,0.377382676,-0.004387339,1,0,0,3.9397,optionRight,30,3545,2,22,0,22,0,1,,,,,,,,,,,,,,,,,,,,,,,,,,,,,,,,,,,,,,,
,,,,,,,,2023-08-06_08h28.53.818,HF_wild_card,2022.2.4,Linux x86_64,60.05645307,62d6e262beee43c4b17ef059,64ce5acb97489d65b14ecc7a,64cf4b4fe598e964d2eae650,,,,,,,decisionTrl,resources/DY.BMP,resources/DG.BMP,Door3,0.514243444,-0.054455638,1,0,0,1.3419,optionRight,70,3615,2,23,0,23,0,1,,,,,,,,,,,,,,,,,,,,,,,,,,,,,,,,,,,,,,,
,,,,,,,,2023-08-06_08h28.53.818,HF_wild_card,2022.2.4,Linux x86_64,60.05645307,62d6e262beee43c4b17ef059,64ce5acb97489d65b14ecc7a,64cf4b4fe598e964d2eae650,,,,,,,decisionTrl,resources/DR.BMP,resources/DBN.BMP,Door1,0.293375572,0.023261388,1,0,0,1.943,optionRight,30,3645,2,24,0,24,0,1,,,,,,,,,,,,,,,,,,,,,,,,,,,,,,,,,,,,,,,
,,,,,,,,2023-08-06_08h28.53.818,HF_wild_card,2022.2.4,Linux x86_64,60.05645307,62d6e262beee43c4b17ef059,64ce5acb97489d65b14ecc7a,64cf4b4fe598e964d2eae650,,,,,,,decisionTrl,resources/DBN.BMP,resources/DR.BMP,Door1,-0.288344065,0.019129554,1,0,0,1.6222,optionLeft,30,3675,2,25,0,25,0,1,,,,,,,,,,,,,,,,,,,,,,,,,,,,,,,,,,,,,,,
,,,,,,,,2023-08-06_08h28.53.818,HF_wild_card,2022.2.4,Linux x86_64,60.05645307,62d6e262beee43c4b17ef059,64ce5acb97489d65b14ecc7a,64cf4b4fe598e964d2eae650,,,,,,,decisionTrl,resources/DG.BMP,resources/DB.BMP,Door3,-0.222857555,-0.038165609,1,0,0,1.9247,optionLeft,70,3745,2,26,0,26,0,1,,,,,,,,,,,,,,,,,,,,,,,,,,,,,,,,,,,,,,,
,,,,,,,,2023-08-06_08h28.53.818,HF_wild_card,2022.2.4,Linux x86_64,60.05645307,62d6e262beee43c4b17ef059,64ce5acb97489d65b14ecc7a,64cf4b4fe598e964d2eae650,,,,,,,sngl,resources/DG.BMP,resources/Empty.png,Door3,-0.419531743,0.029905279,1,0,0,1.209,optionLeft,70,3815,2,27,0,27,0,1,,,,,,,,,,,,,,,,,,,,,,,,,,,,,,,,,,,,,,,
,,,,,,,,2023-08-06_08h28.53.818,HF_wild_card,2022.2.4,Linux x86_64,60.05645307,62d6e262beee43c4b17ef059,64ce5acb97489d65b14ecc7a,64cf4b4fe598e964d2eae650,,,,,,,ctch,resources/DG.BMP,resources/DR.BMP,Door3,-0.319247762,0.002612114,1,0,0,1.5756,optionLeft,70,3885,2,28,0,28,0,1,,,,,,,,,,,,,,,,,,,,,,,,,,,,,,,,,,,,,,,
,,,,,,,,2023-08-06_08h28.53.818,HF_wild_card,2022.2.4,Linux x86_64,60.05645307,62d6e262beee43c4b17ef059,64ce5acb97489d65b14ecc7a,64cf4b4fe598e964d2eae650,,,,,,,ctch,resources/DBN.BMP,resources/DY.BMP,Door4,0.273991664,-0.012857,1,0,0,1.3094,optionRight,60,3945,2,29,0,29,0,1,,,,,,,,,,,,,,,,,,,,,,,,,,,,,,,,,,,,,,,
,,,,,,,,2023-08-06_08h28.53.818,HF_wild_card,2022.2.4,Linux x86_64,60.05645307,62d6e262beee43c4b17ef059,64ce5acb97489d65b14ecc7a,64cf4b4fe598e964d2eae650,,,,,,,decisionTrl,resources/DR.BMP,resources/DBN.BMP,Door2,-0.316563328,-0.005989552,1,0,0,3.9291,optionLeft,20,3965,2,30,0,30,0,1,,,,,,,,,,,,,,,,,,,,,,,,,,,,,,,,,,,,,,,
,,,,,,,,2023-08-06_08h28.53.818,HF_wild_card,2022.2.4,Linux x86_64,60.05645307,62d6e262beee43c4b17ef059,64ce5acb97489d65b14ecc7a,64cf4b4fe598e964d2eae650,,,,,,,decisionTrl,resources/DB.BMP,resources/DBN.BMP,WildCard_NonEx,-0.387912949,-0.024000327,1,0,0,1.5831,optionLeft,55,4020,2,31,0,31,0,1,,,,,,,,,,,,,,,,,,,,,,,,,,,,,,,,,,,,,,,
,,,,,,,,2023-08-06_08h28.53.818,HF_wild_card,2022.2.4,Linux x86_64,60.05645307,62d6e262beee43c4b17ef059,64ce5acb97489d65b14ecc7a,64cf4b4fe598e964d2eae650,,,,,,,decisionTrl,resources/DBN.BMP,resources/DR.BMP,Door1,-0.313495278,0.066157182,1,0,0,3.0731,optionLeft,30,4050,2,32,0,32,0,1,,,,,,,,,,,,,,,,,,,,,,,,,,,,,,,,,,,,,,,
,,,,,,,,2023-08-06_08h28.53.818,HF_wild_card,2022.2.4,Linux x86_64,60.05645307,62d6e262beee43c4b17ef059,64ce5acb97489d65b14ecc7a,64cf4b4fe598e964d2eae650,,,,,,,ctch,resources/DY.BMP,resources/DBN.BMP,Door4,-0.237618009,0.009721875,1,0,0,1.2929,optionLeft,80,4130,2,33,0,33,0,1,,,,,,,,,,,,,,,,,,,,,,,,,,,,,,,,,,,,,,,
,,,,,,,,2023-08-06_08h28.53.818,HF_wild_card,2022.2.4,Linux x86_64,60.05645307,62d6e262beee43c4b17ef059,64ce5acb97489d65b14ecc7a,64cf4b4fe598e964d2eae650,,,,,,,decisionTrl,resources/DG.BMP,resources/DY.BMP,Door3,-0.257465124,0.002291004,1,0,0,2.2058,optionLeft,70,4200,2,34,0,34,0,1,,,,,,,,,,,,,,,,,,,,,,,,,,,,,,,,,,,,,,,
,,,,,,,,2023-08-06_08h28.53.818,HF_wild_card,2022.2.4,Linux x86_64,60.05645307,62d6e262beee43c4b17ef059,64ce5acb97489d65b14ecc7a,64cf4b4fe598e964d2eae650,,,,,,,ctch,resources/DY.BMP,resources/DBN.BMP,Door4,-0.388006647,0.04759268,1,0,0,1.2105,optionLeft,60,4260,2,35,0,35,0,1,,,,,,,,,,,,,,,,,,,,,,,,,,,,,,,,,,,,,,,
,,,,,,,,2023-08-06_08h28.53.818,HF_wild_card,2022.2.4,Linux x86_64,60.05645307,62d6e262beee43c4b17ef059,64ce5acb97489d65b14ecc7a,64cf4b4fe598e964d2eae650,,,,,,,decisionTrl,resources/DBN.BMP,resources/DR.BMP,Door1,-0.239160617,-0.036901077,1,0,0,2.2911,optionLeft,30,4290,2,36,0,36,0,1,,,,,,,,,,,,,,,,,,,,,,,,,,,,,,,,,,,,,,,
,,,,,,,,2023-08-06_08h28.53.818,HF_wild_card,2022.2.4,Linux x86_64,60.05645307,62d6e262beee43c4b17ef059,64ce5acb97489d65b14ecc7a,64cf4b4fe598e964d2eae650,,,,,,,sngl,resources/DY.BMP,resources/Empty.png,Door4,-0.384254376,-0.050570369,1,0,0,1.1766,optionLeft,60,4350,2,37,0,37,0,1,,,,,,,,,,,,,,,,,,,,,,,,,,,,,,,,,,,,,,,
,,,,,,,,2023-08-06_08h28.53.818,HF_wild_card,2022.2.4,Linux x86_64,60.05645307,62d6e262beee43c4b17ef059,64ce5acb97489d65b14ecc7a,64cf4b4fe598e964d2eae650,,,,,,,ctch,resources/DR.BMP,resources/DG.BMP,Door3,0.288854917,0.01467824,1,0,0,1.5423,optionRight,70,4420,2,38,0,38,0,1,,,,,,,,,,,,,,,,,,,,,,,,,,,,,,,,,,,,,,,
,,,,,,,,2023-08-06_08h28.53.818,HF_wild_card,2022.2.4,Linux x86_64,60.05645307,62d6e262beee43c4b17ef059,64ce5acb97489d65b14ecc7a,64cf4b4fe598e964d2eae650,,,,,,,decisionTrl,resources/DBN.BMP,resources/DB.BMP,WildCard_NonEx,0.365607659,-0.081316074,1,0,0,3.1686,optionRight,55,4475,2,39,0,39,0,1,,,,,,,,,,,,,,,,,,,,,,,,,,,,,,,,,,,,,,,
,,,,,,,,2023-08-06_08h28.53.818,HF_wild_card,2022.2.4,Linux x86_64,60.05645307,62d6e262beee43c4b17ef059,64ce5acb97489d65b14ecc7a,64cf4b4fe598e964d2eae650,,,,,,,decisionTrl,resources/DR.BMP,resources/DBN.BMP,Door1,0.33090059,0.023294369,1,0,0,2.1084,optionRight,30,4505,2,40,0,40,0,1,,,,,,,,,,,,,,,,,,,,,,,,,,,,,,,,,,,,,,,
,,,,,,,,2023-08-06_08h28.53.818,HF_wild_card,2022.2.4,Linux x86_64,60.05645307,62d6e262beee43c4b17ef059,64ce5acb97489d65b14ecc7a,64cf4b4fe598e964d2eae650,,,,,,,decisionTrl,resources/DY.BMP,resources/DG.BMP,Door3,0.368835449,-0.076366305,1,0,0,1.959,optionRight,70,4575,2,41,0,41,0,1,,,,,,,,,,,,,,,,,,,,,,,,,,,,,,,,,,,,,,,
,,,,,,,,2023-08-06_08h28.53.818,HF_wild_card,2022.2.4,Linux x86_64,60.05645307,62d6e262beee43c4b17ef059,64ce5acb97489d65b14ecc7a,64cf4b4fe598e964d2eae650,,,,,,,decisionTrl,resources/DBN.BMP,resources/DR.BMP,Door1,-0.376474579,0.021746794,1,0,0,1.7746,optionLeft,30,4605,2,42,0,42,0,1,,,,,,,,,,,,,,,,,,,,,,,,,,,,,,,,,,,,,,,
,,,,,,,,2023-08-06_08h28.53.818,HF_wild_card,2022.2.4,Linux x86_64,60.05645307,62d6e262beee43c4b17ef059,64ce5acb97489d65b14ecc7a,64cf4b4fe598e964d2eae650,,,,,,,decisionTrl,resources/DB.BMP,resources/DG.BMP,Door3,0.451296647,-0.157911936,1,0,0,1.8254,optionRight,70,4675,2,43,0,43,0,1,,,,,,,,,,,,,,,,,,,,,,,,,,,,,,,,,,,,,,,
,,,,,,,,2023-08-06_08h28.53.818,HF_wild_card,2022.2.4,Linux x86_64,60.05645307,62d6e262beee43c4b17ef059,64ce5acb97489d65b14ecc7a,64cf4b4fe598e964d2eae650,,,,,,,,,,,,,,,,,,,,,,,,,,1,0,1,0,1,,,,,,,,,,,,,,,,,,,,,,,,,,,,,,,,,,
,,,,,,,,2023-08-06_08h28.53.818,HF_wild_card,2022.2.4,Linux x86_64,60.05645307,62d6e262beee43c4b17ef059,64ce5acb97489d65b14ecc7a,64cf4b4fe598e964d2eae650,,,,,,,ctch,resources/DR.BMP,resources/DG.BMP,Door3,0.441716194,-0.009740392,1,0,0,2.143,optionRight,70,4745,3,0,0,0,0,1,,,,,,,,,,,,,,,,,,,,,,,,,,,,,,,,,,,,,,,
,,,,,,,,2023-08-06_08h28.53.818,HF_wild_card,2022.2.4,Linux x86_64,60.05645307,62d6e262beee43c4b17ef059,64ce5acb97489d65b14ecc7a,64cf4b4fe598e964d2eae650,,,,,,,decisionTrl,resources/DBN.BMP,resources/DR.BMP,Door2,0.419038693,-0.100591381,1,0,0,1.7596,optionRight,20,4765,3,1,0,1,0,1,,,,,,,,,,,,,,,,,,,,,,,,,,,,,,,,,,,,,,,
,,,,,,,,2023-08-06_08h28.53.818,HF_wild_card,2022.2.4,Linux x86_64,60.05645307,62d6e262beee43c4b17ef059,64ce5acb97489d65b14ecc7a,64cf4b4fe598e964d2eae650,,,,,,,sngl,resources/Empty.png,resources/DB.BMP,WildCard_NonEx,0.440615416,-0.025774002,1,0,0,0.9484,optionRight,55,4820,3,2,0,2,0,1,,,,,,,,,,,,,,,,,,,,,,,,,,,,,,,,,,,,,,,
,,,,,,,,2023-08-06_08h28.53.818,HF_wild_card,2022.2.4,Linux x86_64,60.05645307,62d6e262beee43c4b17ef059,64ce5acb97489d65b14ecc7a,64cf4b4fe598e964d2eae650,,,,,,,decisionTrl,resources/DBN.BMP,resources/DR.BMP,Door1,-0.205734491,0.000937978,1,0,0,2.4506,optionLeft,30,4850,3,3,0,3,0,1,,,,,,,,,,,,,,,,,,,,,,,,,,,,,,,,,,,,,,,
,,,,,,,,2023-08-06_08h28.53.818,HF_wild_card,2022.2.4,Linux x86_64,60.05645307,62d6e262beee43c4b17ef059,64ce5acb97489d65b14ecc7a,64cf4b4fe598e964d2eae650,,,,,,,ctch,resources/DY.BMP,resources/DBN.BMP,Door4,-0.302755396,0.024943511,1,0,0,1.3242,optionLeft,60,4910,3,4,0,4,0,1,,,,,,,,,,,,,,,,,,,,,,,,,,,,,,,,,,,,,,,
,,,,,,,,2023-08-06_08h28.53.818,HF_wild_card,2022.2.4,Linux x86_64,60.05645307,62d6e262beee43c4b17ef059,64ce5acb97489d65b14ecc7a,64cf4b4fe598e964d2eae650,,,,,,,decisionTrl,resources/DB.BMP,resources/DR.BMP,WildCard_NonEx,-0.280044993,-0.057750662,1,0,0,3.3905,optionLeft,55,4965,3,5,0,5,0,1,,,,,,,,,,,,,,,,,,,,,,,,,,,,,,,,,,,,,,,
,,,,,,,,2023-08-06_08h28.53.818,HF_wild_card,2022.2.4,Linux x86_64,60.05645307,62d6e262beee43c4b17ef059,64ce5acb97489d65b14ecc7a,64cf4b4fe598e964d2eae650,,,,,,,sngl,resources/Empty.png,resources/DBN.BMP,Door1,0.426541964,-0.033666094,1,0,0,0.9589,optionRight,30,4995,3,6,0,6,0,1,,,,,,,,,,,,,,,,,,,,,,,,,,,,,,,,,,,,,,,
,,,,,,,,2023-08-06_08h28.53.818,HF_wild_card,2022.2.4,Linux x86_64,60.05645307,62d6e262beee43c4b17ef059,64ce5acb97489d65b14ecc7a,64cf4b4fe598e964d2eae650,,,,,,,decisionTrl,resources/DY.BMP,resources/DG.BMP,Door3,0.362514337,-0.032004952,1,0,0,1.5259,optionRight,70,5065,3,7,0,7,0,1,,,,,,,,,,,,,,,,,,,,,,,,,,,,,,,,,,,,,,,
,,,,,,,,2023-08-06_08h28.53.818,HF_wild_card,2022.2.4,Linux x86_64,60.05645307,62d6e262beee43c4b17ef059,64ce5acb97489d65b14ecc7a,64cf4b4fe598e964d2eae650,,,,,,,decisionTrl,resources/DR.BMP,resources/DBN.BMP,Door1,0.3892742,0.060278853,1,0,0,1.7245,optionRight,30,5095,3,8,0,8,0,1,,,,,,,,,,,,,,,,,,,,,,,,,,,,,,,,,,,,,,,
,,,,,,,,2023-08-06_08h28.53.818,HF_wild_card,2022.2.4,Linux x86_64,60.05645307,62d6e262beee43c4b17ef059,64ce5acb97489d65b14ecc7a,64cf4b4fe598e964d2eae650,,,,,,,ctch,resources/DR.BMP,resources/DG.BMP,Door3,0.108436823,-0.063451608,1,0,0,1.7583,optionRight,70,5165,3,9,0,9,0,1,,,,,,,,,,,,,,,,,,,,,,,,,,,,,,,,,,,,,,,
,,,,,,,,2023-08-06_08h28.53.818,HF_wild_card,2022.2.4,Linux x86_64,60.05645307,62d6e262beee43c4b17ef059,64ce5acb97489d65b14ecc7a,64cf4b4fe598e964d2eae650,,,,,,,decisionTrl,resources/DG.BMP,resources/DB.BMP,Door3,-0.354351044,0.000444929,1,0,0,1.5254,optionLeft,70,5235,3,10,0,10,0,1,,,,,,,,,,,,,,,,,,,,,,,,,,,,,,,,,,,,,,,
,,,,,,,,2023-08-06_08h28.53.818,HF_wild_card,2022.2.4,Linux x86_64,60.05645307,62d6e262beee43c4b17ef059,64ce5acb97489d65b14ecc7a,64cf4b4fe598e964d2eae650,,,,,,,sngl,resources/Empty.png,resources/DR.BMP,Door2,0.426837842,-0.050896486,1,0,0,1.1751,optionRight,20,5255,3,11,0,11,0,1,,,,,,,,,,,,,,,,,,,,,,,,,,,,,,,,,,,,,,,
,,,,,,,,2023-08-06_08h28.53.818,HF_wild_card,2022.2.4,Linux x86_64,60.05645307,62d6e262beee43c4b17ef059,64ce5acb97489d65b14ecc7a,64cf4b4fe598e964d2eae650,,,,,,,ctch,resources/DG.BMP,resources/DR.BMP,Door3,-0.295695186,0.014897505,1,0,0,2.3739,optionLeft,70,5325,3,12,0,12,0,1,,,,,,,,,,,,,,,,,,,,,,,,,,,,,,,,,,,,,,,
,,,,,,,,2023-08-06_08h28.53.818,HF_wild_card,2022.2.4,Linux x86_64,60.05645307,62d6e262beee43c4b17ef059,64ce5acb97489d65b14ecc7a,64cf4b4fe598e964d2eae650,,,,,,,sngl,resources/Empty.png,resources/DB.BMP,WildCard_NonEx,0.374791384,-0.048844775,1,0,0,1.0153,optionRight,45,5370,3,13,0,13,0,1,,,,,,,,,,,,,,,,,,,,,,,,,,,,,,,,,,,,,,,
,,,,,,,,2023-08-06_08h28.53.818,HF_wild_card,2022.2.4,Linux x86_64,60.05645307,62d6e262beee43c4b17ef059,64ce5acb97489d65b14ecc7a,64cf4b4fe598e964d2eae650,,,,,,,sngl,resources/Empty.png,resources/DG.BMP,Door3,0.303215424,-0.109211047,1,0,0,1.0453,optionRight,70,5440,3,14,0,14,0,1,,,,,,,,,,,,,,,,,,,,,,,,,,,,,,,,,,,,,,,
,,,,,,,,2023-08-06_08h28.53.818,HF_wild_card,2022.2.4,Linux x86_64,60.05645307,62d6e262beee43c4b17ef059,64ce5acb97489d65b14ecc7a,64cf4b4fe598e964d2eae650,,,,,,,decisionTrl,resources/DBN.BMP,resources/DB.BMP,WildCard_NonEx,0.414214293,-0.060391903,1,0,0,1.4075,optionRight,45,5485,3,15,0,15,0,1,,,,,,,,,,,,,,,,,,,,,,,,,,,,,,,,,,,,,,,
,,,,,,,,2023-08-06_08h28.53.818,HF_wild_card,2022.2.4,Linux x86_64,60.05645307,62d6e262beee43c4b17ef059,64ce5acb97489d65b14ecc7a,64cf4b4fe598e964d2eae650,,,,,,,decisionTrl,resources/DG.BMP,resources/DY.BMP,Door3,-0.281470815,-0.014337182,1,0,0,1.5255,optionLeft,70,5555,3,16,0,16,0,1,,,,,,,,,,,,,,,,,,,,,,,,,,,,,,,,,,,,,,,
,,,,,,,,2023-08-06_08h28.53.818,HF_wild_card,2022.2.4,Linux x86_64,60.05645307,62d6e262beee43c4b17ef059,64ce5acb97489d65b14ecc7a,64cf4b4fe598e964d2eae650,,,,,,,decisionTrl,resources/DR.BMP,resources/DBN.BMP,Door1,0.40091149,-0.010777036,1,0,0,1.5917,optionRight,30,5585,3,17,0,17,0,1,,,,,,,,,,,,,,,,,,,,,,,,,,,,,,,,,,,,,,,
,,,,,,,,2023-08-06_08h28.53.818,HF_wild_card,2022.2.4,Linux x86_64,60.05645307,62d6e262beee43c4b17ef059,64ce5acb97489d65b14ecc7a,64cf4b4fe598e964d2eae650,,,,,,,decisionTrl,resources/DB.BMP,resources/DG.BMP,Door3,0.335643133,-0.100942254,1,0,0,1.6087,optionRight,70,5655,3,18,0,18,0,1,,,,,,,,,,,,,,,,,,,,,,,,,,,,,,,,,,,,,,,
,,,,,,,,2023-08-06_08h28.53.818,HF_wild_card,2022.2.4,Linux x86_64,60.05645307,62d6e262beee43c4b17ef059,64ce5acb97489d65b14ecc7a,64cf4b4fe598e964d2eae650,,,,,,,ctch,resources/DG.BMP,resources/DR.BMP,Door3,-0.217753092,-0.058664997,1,0,0,2.2089,optionLeft,70,5725,3,19,0,19,0,1,,,,,,,,,,,,,,,,,,,,,,,,,,,,,,,,,,,,,,,
,,,,,,,,2023-08-06_08h28.53.818,HF_wild_card,2022.2.4,Linux x86_64,60.05645307,62d6e262beee43c4b17ef059,64ce5acb97489d65b14ecc7a,64cf4b4fe598e964d2eae650,,,,,,,ctch,resources/DBN.BMP,resources/DY.BMP,Door4,0.316135645,-0.031617602,1,0,0,1.1752,optionRight,80,5805,3,20,0,20,0,1,,,,,,,,,,,,,,,,,,,,,,,,,,,,,,,,,,,,,,,
,,,,,,,,2023-08-06_08h28.53.818,HF_wild_card,2022.2.4,Linux x86_64,60.05645307,62d6e262beee43c4b17ef059,64ce5acb97489d65b14ecc7a,64cf4b4fe598e964d2eae650,,,,,,,decisionTrl,resources/DR.BMP,resources/DB.BMP,WildCard_NonEx,0.369778156,-0.024969498,1,0,0,1.6762,optionRight,45,5850,3,21,0,21,0,1,,,,,,,,,,,,,,,,,,,,,,,,,,,,,,,,,,,,,,,
,,,,,,,,2023-08-06_08h28.53.818,HF_wild_card,2022.2.4,Linux x86_64,60.05645307,62d6e262beee43c4b17ef059,64ce5acb97489d65b14ecc7a,64cf4b4fe598e964d2eae650,,,,,,,ctch,resources/DBN.BMP,resources/DY.BMP,Door4,0.38087527,-0.028369387,1,0,0,1.042,optionRight,80,5930,3,22,0,22,0,1,,,,,,,,,,,,,,,,,,,,,,,,,,,,,,,,,,,,,,,
,,,,,,,,2023-08-06_08h28.53.818,HF_wild_card,2022.2.4,Linux x86_64,60.05645307,62d6e262beee43c4b17ef059,64ce5acb97489d65b14ecc7a,64cf4b4fe598e964d2eae650,,,,,,,decisionTrl,resources/DG.BMP,resources/DY.BMP,Door4,0.419565678,-0.029723565,1,0,0,1.2763,optionRight,60,5990,3,23,0,23,0,1,,,,,,,,,,,,,,,,,,,,,,,,,,,,,,,,,,,,,,,
,,,,,,,,2023-08-06_08h28.53.818,HF_wild_card,2022.2.4,Linux x86_64,60.05645307,62d6e262beee43c4b17ef059,64ce5acb97489d65b14ecc7a,64cf4b4fe598e964d2eae650,,,,,,,decisionTrl,resources/DY.BMP,resources/DG.BMP,Door3,0.411324342,-0.104826093,1,0,0,1.4064,optionRight,70,6060,3,24,0,24,0,1,,,,,,,,,,,,,,,,,,,,,,,,,,,,,,,,,,,,,,,
,,,,,,,,2023-08-06_08h28.53.818,HF_wild_card,2022.2.4,Linux x86_64,60.05645307,62d6e262beee43c4b17ef059,64ce5acb97489d65b14ecc7a,64cf4b4fe598e964d2eae650,,,,,,,decisionTrl,resources/DY.BMP,resources/DG.BMP,Door3,0.491084258,-0.072425683,1,0,0,1.4258,optionRight,70,6130,3,25,0,25,0,1,,,,,,,,,,,,,,,,,,,,,,,,,,,,,,,,,,,,,,,
,,,,,,,,2023-08-06_08h28.53.818,HF_wild_card,2022.2.4,Linux x86_64,60.05645307,62d6e262beee43c4b17ef059,64ce5acb97489d65b14ecc7a,64cf4b4fe598e964d2eae650,,,,,,,sngl,resources/DR.BMP,resources/Empty.png,Door2,-0.361438274,0.025191784,1,0,0,0.9755,optionLeft,40,6170,3,26,0,26,0,1,,,,,,,,,,,,,,,,,,,,,,,,,,,,,,,,,,,,,,,
,,,,,,,,2023-08-06_08h28.53.818,HF_wild_card,2022.2.4,Linux x86_64,60.05645307,62d6e262beee43c4b17ef059,64ce5acb97489d65b14ecc7a,64cf4b4fe598e964d2eae650,,,,,,,sngl,resources/DB.BMP,resources/Empty.png,WildCard_NonEx,-0.406861623,0.017497261,1,0,0,1.0582,optionLeft,55,6225,3,27,0,27,0,1,,,,,,,,,,,,,,,,,,,,,,,,,,,,,,,,,,,,,,,
,,,,,,,,2023-08-06_08h28.53.818,HF_wild_card,2022.2.4,Linux x86_64,60.05645307,62d6e262beee43c4b17ef059,64ce5acb97489d65b14ecc7a,64cf4b4fe598e964d2eae650,,,,,,,sngl,resources/DB.BMP,resources/Empty.png,WildCard_NonEx,-0.382539789,0.054374496,1,0,0,1.0104,optionLeft,45,6270,3,28,0,28,0,1,,,,,,,,,,,,,,,,,,,,,,,,,,,,,,,,,,,,,,,
,,,,,,,,2023-08-06_08h28.53.818,HF_wild_card,2022.2.4,Linux x86_64,60.05645307,62d6e262beee43c4b17ef059,64ce5acb97489d65b14ecc7a,64cf4b4fe598e964d2eae650,,,,,,,sngl,resources/Empty.png,resources/DY.BMP,Door4,0.479140123,0.02820317,1,0,0,1.0407,optionRight,60,6330,3,29,0,29,0,1,,,,,,,,,,,,,,,,,,,,,,,,,,,,,,,,,,,,,,,
,,,,,,,,2023-08-06_08h28.53.818,HF_wild_card,2022.2.4,Linux x86_64,60.05645307,62d6e262beee43c4b17ef059,64ce5acb97489d65b14ecc7a,64cf4b4fe598e964d2eae650,,,,,,,decisionTrl,resources/DG.BMP,resources/DY.BMP,Door3,-0.358969967,0.032967806,1,0,0,1.5215,optionLeft,70,6400,3,30,0,30,0,1,,,,,,,,,,,,,,,,,,,,,,,,,,,,,,,,,,,,,,,
,,,,,,,,2023-08-06_08h28.53.818,HF_wild_card,2022.2.4,Linux x86_64,60.05645307,62d6e262beee43c4b17ef059,64ce5acb97489d65b14ecc7a,64cf4b4fe598e964d2eae650,,,,,,,decisionTrl,resources/DY.BMP,resources/DB.BMP,Door4,-0.315607429,0.015738487,1,0,0,1.3586,optionLeft,60,6460,3,31,0,31,0,1,,,,,,,,,,,,,,,,,,,,,,,,,,,,,,,,,,,,,,,
,,,,,,,,2023-08-06_08h28.53.818,HF_wild_card,2022.2.4,Linux x86_64,60.05645307,62d6e262beee43c4b17ef059,64ce5acb97489d65b14ecc7a,64cf4b4fe598e964d2eae650,,,,,,,sngl,resources/DG.BMP,resources/Empty.png,Door3,-0.342024366,0.044274807,1,0,0,1.1602,optionLeft,70,6530,3,32,0,32,0,1,,,,,,,,,,,,,,,,,,,,,,,,,,,,,,,,,,,,,,,
,,,,,,,,2023-08-06_08h28.53.818,HF_wild_card,2022.2.4,Linux x86_64,60.05645307,62d6e262beee43c4b17ef059,64ce5acb97489d65b14ecc7a,64cf4b4fe598e964d2eae650,,,,,,,decisionTrl,resources/DY.BMP,resources/DG.BMP,Door3,0.312306007,-0.039352973,1,0,0,1.6077,optionRight,70,6600,3,33,0,33,0,1,,,,,,,,,,,,,,,,,,,,,,,,,,,,,,,,,,,,,,,
,,,,,,,,2023-08-06_08h28.53.818,HF_wild_card,2022.2.4,Linux x86_64,60.05645307,62d6e262beee43c4b17ef059,64ce5acb97489d65b14ecc7a,64cf4b4fe598e964d2eae650,,,,,,,decisionTrl,resources/DR.BMP,resources/DBN.BMP,Door1,0.46397845,-0.020973722,1,0,0,2.4738,optionRight,30,6630,3,34,0,34,0,1,,,,,,,,,,,,,,,,,,,,,,,,,,,,,,,,,,,,,,,
,,,,,,,,2023-08-06_08h28.53.818,HF_wild_card,2022.2.4,Linux x86_64,60.05645307,62d6e262beee43c4b17ef059,64ce5acb97489d65b14ecc7a,64cf4b4fe598e964d2eae650,,,,,,,ctch,resources/DY.BMP,resources/DBN.BMP,Door4,-0.293666999,0.004517516,1,0,0,1.4255,optionLeft,60,6690,3,35,0,35,0,1,,,,,,,,,,,,,,,,,,,,,,,,,,,,,,,,,,,,,,,
,,,,,,,,2023-08-06_08h28.53.818,HF_wild_card,2022.2.4,Linux x86_64,60.05645307,62d6e262beee43c4b17ef059,64ce5acb97489d65b14ecc7a,64cf4b4fe598e964d2eae650,,,,,,,decisionTrl,resources/DG.BMP,resources/DY.BMP,Door3,-0.296188712,0.019494613,1,0,0,1.2588,optionLeft,70,6760,3,36,0,36,0,1,,,,,,,,,,,,,,,,,,,,,,,,,,,,,,,,,,,,,,,
,,,,,,,,2023-08-06_08h28.53.818,HF_wild_card,2022.2.4,Linux x86_64,60.05645307,62d6e262beee43c4b17ef059,64ce5acb97489d65b14ecc7a,64cf4b4fe598e964d2eae650,,,,,,,decisionTrl,resources/DBN.BMP,resources/DR.BMP,Door1,-0.364334623,0.038542986,1,0,0,1.6928,optionLeft,30,6790,3,37,0,37,0,1,,,,,,,,,,,,,,,,,,,,,,,,,,,,,,,,,,,,,,,
,,,,,,,,2023-08-06_08h28.53.818,HF_wild_card,2022.2.4,Linux x86_64,60.05645307,62d6e262beee43c4b17ef059,64ce5acb97489d65b14ecc7a,64cf4b4fe598e964d2eae650,,,,,,,decisionTrl,resources/DBN.BMP,resources/DR.BMP,Door1,-0.219436487,0.00178194,1,0,0,1.2424,optionLeft,30,6820,3,38,0,38,0,1,,,,,,,,,,,,,,,,,,,,,,,,,,,,,,,,,,,,,,,
,,,,,,,,2023-08-06_08h28.53.818,HF_wild_card,2022.2.4,Linux x86_64,60.05645307,62d6e262beee43c4b17ef059,64ce5acb97489d65b14ecc7a,64cf4b4fe598e964d2eae650,,,,,,,sngl,resources/DY.BMP,resources/Empty.png,Door4,-0.372370124,-0.018707156,1,0,0,1.0747,optionLeft,80,6900,3,39,0,39,0,1,,,,,,,,,,,,,,,,,,,,,,,,,,,,,,,,,,,,,,,
,,,,,,,,2023-08-06_08h28.53.818,HF_wild_card,2022.2.4,Linux x86_64,60.05645307,62d6e262beee43c4b17ef059,64ce5acb97489d65b14ecc7a,64cf4b4fe598e964d2eae650,,,,,,,decisionTrl,resources/DB.BMP,resources/DBN.BMP,WildCard_NonEx,-0.265377204,-0.012046496,1,0,0,2.192,optionLeft,55,6955,3,40,0,40,0,1,,,,,,,,,,,,,,,,,,,,,,,,,,,,,,,,,,,,,,,
,,,,,,,,2023-08-06_08h28.53.818,HF_wild_card,2022.2.4,Linux x86_64,60.05645307,62d6e262beee43c4b17ef059,64ce5acb97489d65b14ecc7a,64cf4b4fe598e964d2eae650,,,,,,,decisionTrl,resources/DR.BMP,resources/DBN.BMP,Door1,0.386296511,-0.009207527,1,0,0,1.5921,optionRight,30,6985,3,41,0,41,0,1,,,,,,,,,,,,,,,,,,,,,,,,,,,,,,,,,,,,,,,
,,,,,,,,2023-08-06_08h28.53.818,HF_wild_card,2022.2.4,Linux x86_64,60.05645307,62d6e262beee43c4b17ef059,64ce5acb97489d65b14ecc7a,64cf4b4fe598e964d2eae650,,,,,,,sngl,resources/DBN.BMP,resources/Empty.png,Door1,-0.375003576,0.011764328,1,0,0,1.1437,optionLeft,30,7015,3,42,0,42,0,1,,,,,,,,,,,,,,,,,,,,,,,,,,,,,,,,,,,,,,,
,,,,,,,,2023-08-06_08h28.53.818,HF_wild_card,2022.2.4,Linux x86_64,60.05645307,62d6e262beee43c4b17ef059,64ce5acb97489d65b14ecc7a,64cf4b4fe598e964d2eae650,,,,,,,decisionTrl,resources/DB.BMP,resources/DY.BMP,Door4,0.385920445,-0.088037372,1,0,0,5.1395,optionRight,80,7095,3,43,0,43,0,1,,,,,,,,,,,,,,,,,,,,,,,,,,,,,,,,,,,,,,,
,,,,,,,,2023-08-06_08h28.53.818,HF_wild_card,2022.2.4,Linux x86_64,60.05645307,62d6e262beee43c4b17ef059,64ce5acb97489d65b14ecc7a,64cf4b4fe598e964d2eae650,,,,,,,,,,,,,,,,,,,,,,,,,,2,0,2,0,1,,,,,,,,,,,,,,,,,,,,,,,,,,,,,,,,,,
,,,,,,,,2023-08-06_08h28.53.818,HF_wild_card,2022.2.4,Linux x86_64,60.05645307,62d6e262beee43c4b17ef059,64ce5acb97489d65b14ecc7a,64cf4b4fe598e964d2eae650,,,,,,,decisionTrl,resources/DG.BMP,resources/DY.BMP,Door3,-0.201292515,0.062439561,1,0,0,2.0429,optionLeft,70,7165,4,0,0,0,0,1,,,,,,,,,,,,,,,,,,,,,,,,,,,,,,,,,,,,,,,
,,,,,,,,2023-08-06_08h28.53.818,HF_wild_card,2022.2.4,Linux x86_64,60.05645307,62d6e262beee43c4b17ef059,64ce5acb97489d65b14ecc7a,64cf4b4fe598e964d2eae650,,,,,,,decisionTrl,resources/DP.BMP,resources/DG.BMP,WildCard_Ex,-0.341314793,0.01783216,1,0,0,2.1727,optionLeft,55,7220,4,1,0,1,0,1,,,,,,,,,,,,,,,,,,,,,,,,,,,,,,,,,,,,,,,
,,,,,,,,2023-08-06_08h28.53.818,HF_wild_card,2022.2.4,Linux x86_64,60.05645307,62d6e262beee43c4b17ef059,64ce5acb97489d65b14ecc7a,64cf4b4fe598e964d2eae650,,,,,,,decisionTrl,resources/DG.BMP,resources/DY.BMP,Door4,0.429129442,-0.046847502,1,0,0,2.0638,optionRight,80,7300,4,2,0,2,0,1,,,,,,,,,,,,,,,,,,,,,,,,,,,,,,,,,,,,,,,
,,,,,,,,2023-08-06_08h28.53.818,HF_wild_card,2022.2.4,Linux x86_64,60.05645307,62d6e262beee43c4b17ef059,64ce5acb97489d65b14ecc7a,64cf4b4fe598e964d2eae650,,,,,,,sngl,resources/Empty.png,resources/DP.BMP,WildCard_Ex,0.41076835,-0.050683419,1,0,0,1.4595,optionRight,55,7355,4,3,0,3,0,1,,,,,,,,,,,,,,,,,,,,,,,,,,,,,,,,,,,,,,,
,,,,,,,,2023-08-06_08h28.53.818,HF_wild_card,2022.2.4,Linux x86_64,60.05645307,62d6e262beee43c4b17ef059,64ce5acb97489d65b14ecc7a,64cf4b4fe598e964d2eae650,,,,,,,ctch,resources/DG.BMP,resources/DR.BMP,Door3,-0.36447076,-0.008545756,1,0,0,1.4587,optionLeft,70,7425,4,4,0,4,0,1,,,,,,,,,,,,,,,,,,,,,,,,,,,,,,,,,,,,,,,
,,,,,,,,2023-08-06_08h28.53.818,HF_wild_card,2022.2.4,Linux x86_64,60.05645307,62d6e262beee43c4b17ef059,64ce5acb97489d65b14ecc7a,64cf4b4fe598e964d2eae650,,,,,,,decisionTrl,resources/DBN.BMP,resources/DP.BMP,WildCard_Ex,0.325431188,-0.081902663,1,0,0,1.4131,optionRight,45,7470,4,5,0,5,0,1,,,,,,,,,,,,,,,,,,,,,,,,,,,,,,,,,,,,,,,
,,,,,,,,2023-08-06_08h28.53.818,HF_wild_card,2022.2.4,Linux x86_64,60.05645307,62d6e262beee43c4b17ef059,64ce5acb97489d65b14ecc7a,64cf4b4fe598e964d2eae650,,,,,,,ctch,resources/DBN.BMP,resources/DY.BMP,Door4,0.267301401,-0.004103859,1,0,0,1.5979,optionRight,80,7550,4,6,0,6,0,1,,,,,,,,,,,,,,,,,,,,,,,,,,,,,,,,,,,,,,,
,,,,,,,,2023-08-06_08h28.53.818,HF_wild_card,2022.2.4,Linux x86_64,60.05645307,62d6e262beee43c4b17ef059,64ce5acb97489d65b14ecc7a,64cf4b4fe598e964d2eae650,,,,,,,decisionTrl,resources/DBN.BMP,resources/DR.BMP,Door1,-0.30636545,0.045796156,1,0,0,1.6241,optionLeft,30,7580,4,7,0,7,0,1,,,,,,,,,,,,,,,,,,,,,,,,,,,,,,,,,,,,,,,
,,,,,,,,2023-08-06_08h28.53.818,HF_wild_card,2022.2.4,Linux x86_64,60.05645307,62d6e262beee43c4b17ef059,64ce5acb97489d65b14ecc7a,64cf4b4fe598e964d2eae650,,,,,,,sngl,resources/DG.BMP,resources/Empty.png,Door3,-0.326704582,0.010970195,1,0,0,1.1481,optionLeft,70,7650,4,8,0,8,0,1,,,,,,,,,,,,,,,,,,,,,,,,,,,,,,,,,,,,,,,
,,,,,,,,2023-08-06_08h28.53.818,HF_wild_card,2022.2.4,Linux x86_64,60.05645307,62d6e262beee43c4b17ef059,64ce5acb97489d65b14ecc7a,64cf4b4fe598e964d2eae650,,,,,,,ctch,resources/DG.BMP,resources/DR.BMP,Door3,-0.320909619,-0.000482758,1,0,0,1.1434,optionLeft,70,7720,4,9,0,9,0,1,,,,,,,,,,,,,,,,,,,,,,,,,,,,,,,,,,,,,,,
,,,,,,,,2023-08-06_08h28.53.818,HF_wild_card,2022.2.4,Linux x86_64,60.05645307,62d6e262beee43c4b17ef059,64ce5acb97489d65b14ecc7a,64cf4b4fe598e964d2eae650,,,,,,,decisionTrl,resources/DG.BMP,resources/DY.BMP,Door4,0.342370033,-0.040674448,1,0,0,1.275,optionRight,60,7780,4,10,0,10,0,1,,,,,,,,,,,,,,,,,,,,,,,,,,,,,,,,,,,,,,,
,,,,,,,,2023-08-06_08h28.53.818,HF_wild_card,2022.2.4,Linux x86_64,60.05645307,62d6e262beee43c4b17ef059,64ce5acb97489d65b14ecc7a,64cf4b4fe598e964d2eae650,,,,,,,decisionTrl,resources/DR.BMP,resources/DBN.BMP,Door1,0.506150564,-0.169163148,1,0,0,1.7451,optionRight,30,7810,4,11,0,11,0,1,,,,,,,,,,,,,,,,,,,,,,,,,,,,,,,,,,,,,,,
,,,,,,,,2023-08-06_08h28.53.818,HF_wild_card,2022.2.4,Linux x86_64,60.05645307,62d6e262beee43c4b17ef059,64ce5acb97489d65b14ecc7a,64cf4b4fe598e964d2eae650,,,,,,,decisionTrl,resources/DR.BMP,resources/DBN.BMP,Door1,0.307183266,-0.02555275,1,0,0,1.8426,optionRight,30,7840,4,12,0,12,0,1,,,,,,,,,,,,,,,,,,,,,,,,,,,,,,,,,,,,,,,
,,,,,,,,2023-08-06_08h28.53.818,HF_wild_card,2022.2.4,Linux x86_64,60.05645307,62d6e262beee43c4b17ef059,64ce5acb97489d65b14ecc7a,64cf4b4fe598e964d2eae650,,,,,,,decisionTrl,resources/DBN.BMP,resources/DR.BMP,Door2,0.296689987,-0.065888007,1,0,0,1.1264,optionRight,40,7880,4,13,0,13,0,1,,,,,,,,,,,,,,,,,,,,,,,,,,,,,,,,,,,,,,,
,,,,,,,,2023-08-06_08h28.53.818,HF_wild_card,2022.2.4,Linux x86_64,60.05645307,62d6e262beee43c4b17ef059,64ce5acb97489d65b14ecc7a,64cf4b4fe598e964d2eae650,,,,,,,sngl,resources/DP.BMP,resources/Empty.png,WildCard_Ex,-0.367727876,-0.019225399,1,0,0,1.1421,optionLeft,45,7925,4,14,0,14,0,1,,,,,,,,,,,,,,,,,,,,,,,,,,,,,,,,,,,,,,,
,,,,,,,,2023-08-06_08h28.53.818,HF_wild_card,2022.2.4,Linux x86_64,60.05645307,62d6e262beee43c4b17ef059,64ce5acb97489d65b14ecc7a,64cf4b4fe598e964d2eae650,,,,,,,decisionTrl,resources/DP.BMP,resources/DBN.BMP,WildCard_Ex,-0.281307737,-0.049286405,1,0,0,1.393,optionLeft,45,7970,4,15,0,15,0,1,,,,,,,,,,,,,,,,,,,,,,,,,,,,,,,,,,,,,,,
,,,,,,,,2023-08-06_08h28.53.818,HF_wild_card,2022.2.4,Linux x86_64,60.05645307,62d6e262beee43c4b17ef059,64ce5acb97489d65b14ecc7a,64cf4b4fe598e964d2eae650,,,,,,,decisionTrl,resources/DP.BMP,resources/DY.BMP,Door4,0.280969143,-0.121808171,1,0,0,1.1264,optionRight,80,8050,4,16,0,16,0,1,,,,,,,,,,,,,,,,,,,,,,,,,,,,,,,,,,,,,,,
,,,,,,,,2023-08-06_08h28.53.818,HF_wild_card,2022.2.4,Linux x86_64,60.05645307,62d6e262beee43c4b17ef059,64ce5acb97489d65b14ecc7a,64cf4b4fe598e964d2eae650,,,,,,,sngl,resources/DR.BMP,resources/Empty.png,Door2,-0.369618376,0.00353078,1,0,0,1.0585,optionLeft,20,8070,4,17,0,17,0,1,,,,,,,,,,,,,,,,,,,,,,,,,,,,,,,,,,,,,,,
,,,,,,,,2023-08-06_08h28.53.818,HF_wild_card,2022.2.4,Linux x86_64,60.05645307,62d6e262beee43c4b17ef059,64ce5acb97489d65b14ecc7a,64cf4b4fe598e964d2eae650,,,,,,,decisionTrl,resources/DR.BMP,resources/DBN.BMP,Door1,0.404901505,-0.126814246,1,0,0,1.9754,optionRight,30,8100,4,18,0,18,0,1,,,,,,,,,,,,,,,,,,,,,,,,,,,,,,,,,,,,,,,
,,,,,,,,2023-08-06_08h28.53.818,HF_wild_card,2022.2.4,Linux x86_64,60.05645307,62d6e262beee43c4b17ef059,64ce5acb97489d65b14ecc7a,64cf4b4fe598e964d2eae650,,,,,,,decisionTrl,resources/DG.BMP,resources/DY.BMP,Door3,-0.219427268,-0.10095791,1,0,0,1.9418,optionLeft,70,8170,4,19,0,19,0,1,,,,,,,,,,,,,,,,,,,,,,,,,,,,,,,,,,,,,,,
,,,,,,,,2023-08-06_08h28.53.818,HF_wild_card,2022.2.4,Linux x86_64,60.05645307,62d6e262beee43c4b17ef059,64ce5acb97489d65b14ecc7a,64cf4b4fe598e964d2eae650,,,,,,,ctch,resources/DR.BMP,resources/DG.BMP,Door3,0.313055197,-0.090461294,1,0,0,2.6412,optionRight,70,8240,4,20,0,20,0,1,,,,,,,,,,,,,,,,,,,,,,,,,,,,,,,,,,,,,,,
,,,,,,,,2023-08-06_08h28.53.818,HF_wild_card,2022.2.4,Linux x86_64,60.05645307,62d6e262beee43c4b17ef059,64ce5acb97489d65b14ecc7a,64cf4b4fe598e964d2eae650,,,,,,,sngl,resources/Empty.png,resources/DG.BMP,Door3,0.564322472,-0.12109824,1,0,0,1.009,optionRight,70,8310,4,21,0,21,0,1,,,,,,,,,,,,,,,,,,,,,,,,,,,,,,,,,,,,,,,
,,,,,,,,2023-08-06_08h28.53.818,HF_wild_card,2022.2.4,Linux x86_64,60.05645307,62d6e262beee43c4b17ef059,64ce5acb97489d65b14ecc7a,64cf4b4fe598e964d2eae650,,,,,,,decisionTrl,resources/DBN.BMP,resources/DR.BMP,Door1,-0.309508125,-0.039386829,1,0,0,2.5907,optionLeft,30,8340,4,22,0,22,0,1,,,,,,,,,,,,,,,,,,,,,,,,,,,,,,,,,,,,,,,
,,,,,,,,2023-08-06_08h28.53.818,HF_wild_card,2022.2.4,Linux x86_64,60.05645307,62d6e262beee43c4b17ef059,64ce5acb97489d65b14ecc7a,64cf4b4fe598e964d2eae650,,,,,,,decisionTrl,resources/DR.BMP,resources/DP.BMP,WildCard_Ex,0.509934107,-0.082265576,1,0,0,1.5415,optionRight,45,8385,4,23,0,23,0,1,,,,,,,,,,,,,,,,,,,,,,,,,,,,,,,,,,,,,,,
,,,,,,,,2023-08-06_08h28.53.818,HF_wild_card,2022.2.4,Linux x86_64,60.05645307,62d6e262beee43c4b17ef059,64ce5acb97489d65b14ecc7a,64cf4b4fe598e964d2eae650,,,,,,,sngl,resources/Empty.png,resources/DR.BMP,Door2,0.220467885,0.009634296,1,0,0,0.9648,optionRight,40,8425,4,24,0,24,0,1,,,,,,,,,,,,,,,,,,,,,,,,,,,,,,,,,,,,,,,
,,,,,,,,2023-08-06_08h28.53.818,HF_wild_card,2022.2.4,Linux x86_64,60.05645307,62d6e262beee43c4b17ef059,64ce5acb97489d65b14ecc7a,64cf4b4fe598e964d2eae650,,,,,,,decisionTrl,resources/DY.BMP,resources/DP.BMP,Door4,-0.249457359,0.004423936,1,0,0,1.6433,optionLeft,60,8485,4,25,0,25,0,1,,,,,,,,,,,,,,,,,,,,,,,,,,,,,,,,,,,,,,,
,,,,,,,,2023-08-06_08h28.53.818,HF_wild_card,2022.2.4,Linux x86_64,60.05645307,62d6e262beee43c4b17ef059,64ce5acb97489d65b14ecc7a,64cf4b4fe598e964d2eae650,,,,,,,sngl,resources/Empty.png,resources/DP.BMP,WildCard_Ex,0.644283136,-0.118684014,1,0,0,0.9224,optionRight,45,8530,4,26,0,26,0,1,,,,,,,,,,,,,,,,,,,,,,,,,,,,,,,,,,,,,,,
,,,,,,,,2023-08-06_08h28.53.818,HF_wild_card,2022.2.4,Linux x86_64,60.05645307,62d6e262beee43c4b17ef059,64ce5acb97489d65b14ecc7a,64cf4b4fe598e964d2eae650,,,,,,,decisionTrl,resources/DY.BMP,resources/DG.BMP,Door3,0.361555974,-0.087137262,1,0,0,1.4031,optionRight,70,8600,4,27,0,27,0,1,,,,,,,,,,,,,,,,,,,,,,,,,,,,,,,,,,,,,,,
,,,,,,,,2023-08-06_08h28.53.818,HF_wild_card,2022.2.4,Linux x86_64,60.05645307,62d6e262beee43c4b17ef059,64ce5acb97489d65b14ecc7a,64cf4b4fe598e964d2eae650,,,,,,,sngl,resources/DBN.BMP,resources/Empty.png,Door1,-0.423929016,0.051543752,1,0,0,1.3265,optionLeft,30,8630,4,28,0,28,0,1,,,,,,,,,,,,,,,,,,,,,,,,,,,,,,,,,,,,,,,
,,,,,,,,2023-08-06_08h28.53.818,HF_wild_card,2022.2.4,Linux x86_64,60.05645307,62d6e262beee43c4b17ef059,64ce5acb97489d65b14ecc7a,64cf4b4fe598e964d2eae650,,,,,,,decisionTrl,resources/DR.BMP,resources/DBN.BMP,Door1,0.365089099,-0.153026462,1,0,0,3.1912,optionRight,30,8660,4,29,0,29,0,1,,,,,,,,,,,,,,,,,,,,,,,,,,,,,,,,,,,,,,,
,,,,,,,,2023-08-06_08h28.53.818,HF_wild_card,2022.2.4,Linux x86_64,60.05645307,62d6e262beee43c4b17ef059,64ce5acb97489d65b14ecc7a,64cf4b4fe598e964d2eae650,,,,,,,ctch,resources/DY.BMP,resources/DBN.BMP,Door4,-0.325609247,0.036392013,1,0,0,1.1424,optionLeft,60,8720,4,30,0,30,0,1,,,,,,,,,,,,,,,,,,,,,,,,,,,,,,,,,,,,,,,
,,,,,,,,2023-08-06_08h28.53.818,HF_wild_card,2022.2.4,Linux x86_64,60.05645307,62d6e262beee43c4b17ef059,64ce5acb97489d65b14ecc7a,64cf4b4fe598e964d2eae650,,,,,,,ctch,resources/DR.BMP,resources/DG.BMP,Door3,0.342913548,-0.061083515,1,0,0,1.6086,optionRight,70,8790,4,31,0,31,0,1,,,,,,,,,,,,,,,,,,,,,,,,,,,,,,,,,,,,,,,
,,,,,,,,2023-08-06_08h28.53.818,HF_wild_card,2022.2.4,Linux x86_64,60.05645307,62d6e262beee43c4b17ef059,64ce5acb97489d65b14ecc7a,64cf4b4fe598e964d2eae650,,,,,,,decisionTrl,resources/DY.BMP,resources/DG.BMP,Door3,0.319565773,-0.050474922,1,0,0,1.96,optionRight,70,8860,4,32,0,32,0,1,,,,,,,,,,,,,,,,,,,,,,,,,,,,,,,,,,,,,,,
,,,,,,,,2023-08-06_08h28.53.818,HF_wild_card,2022.2.4,Linux x86_64,60.05645307,62d6e262beee43c4b17ef059,64ce5acb97489d65b14ecc7a,64cf4b4fe598e964d2eae650,,,,,,,sngl,resources/DY.BMP,resources/Empty.png,Door4,-0.344666163,-0.035070022,1,0,0,1.0936,optionLeft,60,8920,4,33,0,33,0,1,,,,,,,,,,,,,,,,,,,,,,,,,,,,,,,,,,,,,,,
,,,,,,,,2023-08-06_08h28.53.818,HF_wild_card,2022.2.4,Linux x86_64,60.05645307,62d6e262beee43c4b17ef059,64ce5acb97489d65b14ecc7a,64cf4b4fe598e964d2eae650,,,,,,,ctch,resources/DBN.BMP,resources/DY.BMP,Door4,0.362145503,-0.052454591,1,0,0,1.1591,optionRight,60,8980,4,34,0,34,0,1,,,,,,,,,,,,,,,,,,,,,,,,,,,,,,,,,,,,,,,
,,,,,,,,2023-08-06_08h28.53.818,HF_wild_card,2022.2.4,Linux x86_64,60.05645307,62d6e262beee43c4b17ef059,64ce5acb97489d65b14ecc7a,64cf4b4fe598e964d2eae650,,,,,,,decisionTrl,resources/DG.BMP,resources/DP.BMP,Door3,-0.271298567,-0.003888647,1,0,0,1.5241,optionLeft,70,9050,4,35,0,35,0,1,,,,,,,,,,,,,,,,,,,,,,,,,,,,,,,,,,,,,,,
,,,,,,,,2023-08-06_08h28.53.818,HF_wild_card,2022.2.4,Linux x86_64,60.05645307,62d6e262beee43c4b17ef059,64ce5acb97489d65b14ecc7a,64cf4b4fe598e964d2eae650,,,,,,,sngl,resources/Empty.png,resources/DBN.BMP,Door1,0.361817757,-0.039028207,1,0,0,0.9742,optionRight,30,9080,4,36,0,36,0,1,,,,,,,,,,,,,,,,,,,,,,,,,,,,,,,,,,,,,,,
,,,,,,,,2023-08-06_08h28.53.818,HF_wild_card,2022.2.4,Linux x86_64,60.05645307,62d6e262beee43c4b17ef059,64ce5acb97489d65b14ecc7a,64cf4b4fe598e964d2eae650,,,,,,,decisionTrl,resources/DP.BMP,resources/DR.BMP,WildCard_Ex,-0.160976648,-0.032437285,1,0,0,2.3084,optionLeft,55,9135,4,37,0,37,0,1,,,,,,,,,,,,,,,,,,,,,,,,,,,,,,,,,,,,,,,
,,,,,,,,2023-08-06_08h28.53.818,HF_wild_card,2022.2.4,Linux x86_64,60.05645307,62d6e262beee43c4b17ef059,64ce5acb97489d65b14ecc7a,64cf4b4fe598e964d2eae650,,,,,,,decisionTrl,resources/DBN.BMP,resources/DR.BMP,Door1,-0.213891983,0.025672952,1,0,0,1.7419,optionLeft,30,9165,4,38,0,38,0,1,,,,,,,,,,,,,,,,,,,,,,,,,,,,,,,,,,,,,,,
,,,,,,,,2023-08-06_08h28.53.818,HF_wild_card,2022.2.4,Linux x86_64,60.05645307,62d6e262beee43c4b17ef059,64ce5acb97489d65b14ecc7a,64cf4b4fe598e964d2eae650,,,,,,,decisionTrl,resources/DY.BMP,resources/DG.BMP,Door3,0.373473962,-0.10382847,1,0,0,1.7907,optionRight,70,9235,4,39,0,39,0,1,,,,,,,,,,,,,,,,,,,,,,,,,,,,,,,,,,,,,,,
,,,,,,,,2023-08-06_08h28.53.818,HF_wild_card,2022.2.4,Linux x86_64,60.05645307,62d6e262beee43c4b17ef059,64ce5acb97489d65b14ecc7a,64cf4b4fe598e964d2eae650,,,,,,,sngl,resources/Empty.png,resources/DY.BMP,Door4,0.398940563,-0.137300571,1,0,0,1.0097,optionRight,80,9315,4,40,0,40,0,1,,,,,,,,,,,,,,,,,,,,,,,,,,,,,,,,,,,,,,,
,,,,,,,,2023-08-06_08h28.53.818,HF_wild_card,2022.2.4,Linux x86_64,60.05645307,62d6e262beee43c4b17ef059,64ce5acb97489d65b14ecc7a,64cf4b4fe598e964d2eae650,,,,,,,sngl,resources/DP.BMP,resources/Empty.png,WildCard_Ex,-0.394387762,-0.040181081,1,0,0,0.9935,optionLeft,55,9370,4,41,0,41,0,1,,,,,,,,,,,,,,,,,,,,,,,,,,,,,,,,,,,,,,,
,,,,,,,,2023-08-06_08h28.53.818,HF_wild_card,2022.2.4,Linux x86_64,60.05645307,62d6e262beee43c4b17ef059,64ce5acb97489d65b14ecc7a,64cf4b4fe598e964d2eae650,,,,,,,ctch,resources/DY.BMP,resources/DBN.BMP,Door4,-0.343534708,-0.00498116,1,0,0,1.244,optionLeft,80,9450,4,42,0,42,0,1,,,,,,,,,,,,,,,,,,,,,,,,,,,,,,,,,,,,,,,
,,,,,,,,2023-08-06_08h28.53.818,HF_wild_card,2022.2.4,Linux x86_64,60.05645307,62d6e262beee43c4b17ef059,64ce5acb97489d65b14ecc7a,64cf4b4fe598e964d2eae650,,,,,,,decisionTrl,resources/DY.BMP,resources/DG.BMP,Door4,-0.317401568,0.011466225,1,0,0,1.1434,optionLeft,80,9530,4,43,0,43,0,1,,,,,,,,,,,,,,,,,,,,,,,,,,,,,,,,,,,,,,,
,,,,,,,,2023-08-06_08h28.53.818,HF_wild_card,2022.2.4,Linux x86_64,60.05645307,62d6e262beee43c4b17ef059,64ce5acb97489d65b14ecc7a,64cf4b4fe598e964d2eae650,,,,,,,,,,,,,,,,,,,,,,,,,,3,0,3,0,1,,,,,,,,,,,,,,,,,,,,,,,,,,,,,,,,,,
,,,,,,,,2023-08-06_08h28.53.818,HF_wild_card,2022.2.4,Linux x86_64,60.05645307,62d6e262beee43c4b17ef059,64ce5acb97489d65b14ecc7a,64cf4b4fe598e964d2eae650,,,,,,,sngl,resources/Empty.png,resources/DP.BMP,WildCard_Ex,0.333849748,-0.11669902,1,0,0,1.9115,optionRight,45,9575,5,0,0,0,0,1,,,,,,,,,,,,,,,,,,,,,,,,,,,,,,,,,,,,,,,
,,,,,,,,2023-08-06_08h28.53.818,HF_wild_card,2022.2.4,Linux x86_64,60.05645307,62d6e262beee43c4b17ef059,64ce5acb97489d65b14ecc7a,64cf4b4fe598e964d2eae650,,,,,,,sngl,resources/DP.BMP,resources/Empty.png,WildCard_Ex,-0.316359003,-0.006640633,1,0,0,0.9816,optionLeft,45,9620,5,1,0,1,0,1,,,,,,,,,,,,,,,,,,,,,,,,,,,,,,,,,,,,,,,
,,,,,,,,2023-08-06_08h28.53.818,HF_wild_card,2022.2.4,Linux x86_64,60.05645307,62d6e262beee43c4b17ef059,64ce5acb97489d65b14ecc7a,64cf4b4fe598e964d2eae650,,,,,,,ctch,resources/DR.BMP,resources/DG.BMP,Door3,0.451414744,-0.082430124,1,0,0,1.5752,optionRight,70,9690,5,2,0,2,0,1,,,,,,,,,,,,,,,,,,,,,,,,,,,,,,,,,,,,,,,
,,,,,,,,2023-08-06_08h28.53.818,HF_wild_card,2022.2.4,Linux x86_64,60.05645307,62d6e262beee43c4b17ef059,64ce5acb97489d65b14ecc7a,64cf4b4fe598e964d2eae650,,,,,,,decisionTrl,resources/DP.BMP,resources/DG.BMP,Door3,0.322992881,-0.071971258,1,0,0,0.9941,optionRight,70,9760,5,3,0,3,0,1,,,,,,,,,,,,,,,,,,,,,,,,,,,,,,,,,,,,,,,
,,,,,,,,2023-08-06_08h28.53.818,HF_wild_card,2022.2.4,Linux x86_64,60.05645307,62d6e262beee43c4b17ef059,64ce5acb97489d65b14ecc7a,64cf4b4fe598e964d2eae650,,,,,,,sngl,resources/Empty.png,resources/DBN.BMP,Door1,0.302961429,-0.020028949,1,0,0,0.9411,optionRight,30,9790,5,4,0,4,0,1,,,,,,,,,,,,,,,,,,,,,,,,,,,,,,,,,,,,,,,
,,,,,,,,2023-08-06_08h28.53.818,HF_wild_card,2022.2.4,Linux x86_64,60.05645307,62d6e262beee43c4b17ef059,64ce5acb97489d65b14ecc7a,64cf4b4fe598e964d2eae650,,,,,,,decisionTrl,resources/DR.BMP,resources/DBN.BMP,Door1,0.28669103,-0.097454866,1,0,0,1.2426,optionRight,30,9820,5,5,0,5,0,1,,,,,,,,,,,,,,,,,,,,,,,,,,,,,,,,,,,,,,,
,,,,,,,,2023-08-06_08h28.53.818,HF_wild_card,2022.2.4,Linux x86_64,60.05645307,62d6e262beee43c4b17ef059,64ce5acb97489d65b14ecc7a,64cf4b4fe598e964d2eae650,,,,,,,decisionTrl,resources/DP.BMP,resources/DR.BMP,WildCard_Ex,-0.159677505,-0.036061605,1,0,0,1.3421,optionLeft,45,9865,5,6,0,6,0,1,,,,,,,,,,,,,,,,,,,,,,,,,,,,,,,,,,,,,,,
,,,,,,,,2023-08-06_08h28.53.818,HF_wild_card,2022.2.4,Linux x86_64,60.05645307,62d6e262beee43c4b17ef059,64ce5acb97489d65b14ecc7a,64cf4b4fe598e964d2eae650,,,,,,,decisionTrl,resources/DR.BMP,resources/DP.BMP,WildCard_Ex,0.367810488,-0.126105944,1,0,0,1.2082,optionRight,45,9910,5,7,0,7,0,1,,,,,,,,,,,,,,,,,,,,,,,,,,,,,,,,,,,,,,,
,,,,,,,,2023-08-06_08h28.53.818,HF_wild_card,2022.2.4,Linux x86_64,60.05645307,62d6e262beee43c4b17ef059,64ce5acb97489d65b14ecc7a,64cf4b4fe598e964d2eae650,,,,,,,decisionTrl,resources/DY.BMP,resources/DG.BMP,Door3,0.229551951,-0.090140581,1,0,0,1.5425,optionRight,70,9980,5,8,0,8,0,1,,,,,,,,,,,,,,,,,,,,,,,,,,,,,,,,,,,,,,,
,,,,,,,,2023-08-06_08h28.53.818,HF_wild_card,2022.2.4,Linux x86_64,60.05645307,62d6e262beee43c4b17ef059,64ce5acb97489d65b14ecc7a,64cf4b4fe598e964d2eae650,,,,,,,sngl,resources/DR.BMP,resources/Empty.png,Door2,-0.406552871,0.028660615,1,0,0,0.8143,optionLeft,40,10020,5,9,0,9,0,1,,,,,,,,,,,,,,,,,,,,,,,,,,,,,,,,,,,,,,,
,,,,,,,,2023-08-06_08h28.53.818,HF_wild_card,2022.2.4,Linux x86_64,60.05645307,62d6e262beee43c4b17ef059,64ce5acb97489d65b14ecc7a,64cf4b4fe598e964d2eae650,,,,,,,decisionTrl,resources/DP.BMP,resources/DBN.BMP,WildCard_Ex,-0.280933936,-0.04095904,1,0,0,1.5217,optionLeft,45,10065,5,10,0,10,0,1,,,,,,,,,,,,,,,,,,,,,,,,,,,,,,,,,,,,,,,
,,,,,,,,2023-08-06_08h28.53.818,HF_wild_card,2022.2.4,Linux x86_64,60.05645307,62d6e262beee43c4b17ef059,64ce5acb97489d65b14ecc7a,64cf4b4fe598e964d2eae650,,,,,,,decisionTrl,resources/DR.BMP,resources/DBN.BMP,Door2,-0.408319672,-0.000321945,1,0,0,0.958,optionLeft,40,10105,5,11,0,11,0,1,,,,,,,,,,,,,,,,,,,,,,,,,,,,,,,,,,,,,,,
,,,,,,,,2023-08-06_08h28.53.818,HF_wild_card,2022.2.4,Linux x86_64,60.05645307,62d6e262beee43c4b17ef059,64ce5acb97489d65b14ecc7a,64cf4b4fe598e964d2eae650,,,,,,,decisionTrl,resources/DBN.BMP,resources/DP.BMP,WildCard_Ex,0.307691097,-0.014205217,1,0,0,1.293,optionRight,55,10160,5,12,0,12,0,1,,,,,,,,,,,,,,,,,,,,,,,,,,,,,,,,,,,,,,,
,,,,,,,,2023-08-06_08h28.53.818,HF_wild_card,2022.2.4,Linux x86_64,60.05645307,62d6e262beee43c4b17ef059,64ce5acb97489d65b14ecc7a,64cf4b4fe598e964d2eae650,,,,,,,decisionTrl,resources/DY.BMP,resources/DP.BMP,Door4,-0.395461957,-0.007237593,1,0,0,1.4092,optionLeft,60,10220,5,13,0,13,0,1,,,,,,,,,,,,,,,,,,,,,,,,,,,,,,,,,,,,,,,
,,,,,,,,2023-08-06_08h28.53.818,HF_wild_card,2022.2.4,Linux x86_64,60.05645307,62d6e262beee43c4b17ef059,64ce5acb97489d65b14ecc7a,64cf4b4fe598e964d2eae650,,,,,,,ctch,resources/DG.BMP,resources/DR.BMP,Door3,-0.236868024,-0.055164059,1,0,0,1.3245,optionLeft,70,10290,5,14,0,14,0,1,,,,,,,,,,,,,,,,,,,,,,,,,,,,,,,,,,,,,,,
,,,,,,,,2023-08-06_08h28.53.818,HF_wild_card,2022.2.4,Linux x86_64,60.05645307,62d6e262beee43c4b17ef059,64ce5acb97489d65b14ecc7a,64cf4b4fe598e964d2eae650,,,,,,,decisionTrl,resources/DR.BMP,resources/DBN.BMP,Door2,-0.208589474,-0.020720959,1,0,0,1.7416,optionLeft,40,10330,5,15,0,15,0,1,,,,,,,,,,,,,,,,,,,,,,,,,,,,,,,,,,,,,,,
,,,,,,,,2023-08-06_08h28.53.818,HF_wild_card,2022.2.4,Linux x86_64,60.05645307,62d6e262beee43c4b17ef059,64ce5acb97489d65b14ecc7a,64cf4b4fe598e964d2eae650,,,,,,,sngl,resources/DY.BMP,resources/Empty.png,Door4,-0.358367682,-0.040207783,1,0,0,1.043,optionLeft,80,10410,5,16,0,16,0,1,,,,,,,,,,,,,,,,,,,,,,,,,,,,,,,,,,,,,,,
,,,,,,,,2023-08-06_08h28.53.818,HF_wild_card,2022.2.4,Linux x86_64,60.05645307,62d6e262beee43c4b17ef059,64ce5acb97489d65b14ecc7a,64cf4b4fe598e964d2eae650,,,,,,,decisionTrl,resources/DG.BMP,resources/DY.BMP,Door4,0.39230148,-0.038347205,1,0,0,0.9929,optionRight,80,10490,5,17,0,17,0,1,,,,,,,,,,,,,,,,,,,,,,,,,,,,,,,,,,,,,,,
,,,,,,,,2023-08-06_08h28.53.818,HF_wild_card,2022.2.4,Linux x86_64,60.05645307,62d6e262beee43c4b17ef059,64ce5acb97489d65b14ecc7a,64cf4b4fe598e964d2eae650,,,,,,,decisionTrl,resources/DR.BMP,resources/DBN.BMP,Door2,-0.327466528,-0.025508801,1,0,0,1.327,optionLeft,20,10510,5,18,0,18,0,1,,,,,,,,,,,,,,,,,,,,,,,,,,,,,,,,,,,,,,,
,,,,,,,,2023-08-06_08h28.53.818,HF_wild_card,2022.2.4,Linux x86_64,60.05645307,62d6e262beee43c4b17ef059,64ce5acb97489d65b14ecc7a,64cf4b4fe598e964d2eae650,,,,,,,decisionTrl,resources/DY.BMP,resources/DG.BMP,Door4,-0.262285829,-0.011908094,1,0,0,2.0261,optionLeft,60,10570,5,19,0,19,0,1,,,,,,,,,,,,,,,,,,,,,,,,,,,,,,,,,,,,,,,
,,,,,,,,2023-08-06_08h28.53.818,HF_wild_card,2022.2.4,Linux x86_64,60.05645307,62d6e262beee43c4b17ef059,64ce5acb97489d65b14ecc7a,64cf4b4fe598e964d2eae650,,,,,,,decisionTrl,resources/DBN.BMP,resources/DR.BMP,Door1,-0.327701092,0.016820073,1,0,0,2.0252,optionLeft,30,10600,5,20,0,20,0,1,,,,,,,,,,,,,,,,,,,,,,,,,,,,,,,,,,,,,,,
,,,,,,,,2023-08-06_08h28.53.818,HF_wild_card,2022.2.4,Linux x86_64,60.05645307,62d6e262beee43c4b17ef059,64ce5acb97489d65b14ecc7a,64cf4b4fe598e964d2eae650,,,,,,,decisionTrl,resources/DG.BMP,resources/DY.BMP,Door3,-0.302201311,-0.014897426,1,0,0,1.5421,optionLeft,70,10670,5,21,0,21,0,1,,,,,,,,,,,,,,,,,,,,,,,,,,,,,,,,,,,,,,,
,,,,,,,,2023-08-06_08h28.53.818,HF_wild_card,2022.2.4,Linux x86_64,60.05645307,62d6e262beee43c4b17ef059,64ce5acb97489d65b14ecc7a,64cf4b4fe598e964d2eae650,,,,,,,ctch,resources/DG.BMP,resources/DR.BMP,Door3,-0.245767633,-0.019109646,1,0,0,1.0079,optionLeft,70,10740,5,22,0,22,0,1,,,,,,,,,,,,,,,,,,,,,,,,,,,,,,,,,,,,,,,
,,,,,,,,2023-08-06_08h28.53.818,HF_wild_card,2022.2.4,Linux x86_64,60.05645307,62d6e262beee43c4b17ef059,64ce5acb97489d65b14ecc7a,64cf4b4fe598e964d2eae650,,,,,,,decisionTrl,resources/DG.BMP,resources/DY.BMP,Door3,-0.357549349,0.017033935,1,0,0,0.9906,optionLeft,70,10810,5,23,0,23,0,1,,,,,,,,,,,,,,,,,,,,,,,,,,,,,,,,,,,,,,,
,,,,,,,,2023-08-06_08h28.53.818,HF_wild_card,2022.2.4,Linux x86_64,60.05645307,62d6e262beee43c4b17ef059,64ce5acb97489d65b14ecc7a,64cf4b4fe598e964d2eae650,,,,,,,sngl,resources/Empty.png,resources/DR.BMP,Door2,0.462590059,-0.066156705,1,0,0,1.1766,optionRight,20,10830,5,24,0,24,0,1,,,,,,,,,,,,,,,,,,,,,,,,,,,,,,,,,,,,,,,
,,,,,,,,2023-08-06_08h28.53.818,HF_wild_card,2022.2.4,Linux x86_64,60.05645307,62d6e262beee43c4b17ef059,64ce5acb97489d65b14ecc7a,64cf4b4fe598e964d2eae650,,,,,,,sngl,resources/Empty.png,resources/DP.BMP,WildCard_Ex,0.324819565,-0.02215004,1,0,0,1.0595,optionRight,55,10885,5,25,0,25,0,1,,,,,,,,,,,,,,,,,,,,,,,,,,,,,,,,,,,,,,,
,,,,,,,,2023-08-06_08h28.53.818,HF_wild_card,2022.2.4,Linux x86_64,60.05645307,62d6e262beee43c4b17ef059,64ce5acb97489d65b14ecc7a,64cf4b4fe598e964d2eae650,,,,,,,ctch,resources/DY.BMP,resources/DBN.BMP,Door4,-0.35120972,-0.002851407,1,0,0,1.193,optionLeft,60,10945,5,26,0,26,0,1,,,,,,,,,,,,,,,,,,,,,,,,,,,,,,,,,,,,,,,
,,,,,,,,2023-08-06_08h28.53.818,HF_wild_card,2022.2.4,Linux x86_64,60.05645307,62d6e262beee43c4b17ef059,64ce5acb97489d65b14ecc7a,64cf4b4fe598e964d2eae650,,,,,,,sngl,resources/Empty.png,resources/DG.BMP,Door3,0.408817291,-0.041924159,1,0,0,0.9096,optionRight,70,11015,5,27,0,27,0,1,,,,,,,,,,,,,,,,,,,,,,,,,,,,,,,,,,,,,,,
,,,,,,,,2023-08-06_08h28.53.818,HF_wild_card,2022.2.4,Linux x86_64,60.05645307,62d6e262beee43c4b17ef059,64ce5acb97489d65b14ecc7a,64cf4b4fe598e964d2eae650,,,,,,,decisionTrl,resources/DG.BMP,resources/DY.BMP,Door3,-0.173981428,-0.010649006,1,0,0,1.4753,optionLeft,70,11085,5,28,0,28,0,1,,,,,,,,,,,,,,,,,,,,,,,,,,,,,,,,,,,,,,,
,,,,,,,,2023-08-06_08h28.53.818,HF_wild_card,2022.2.4,Linux x86_64,60.05645307,62d6e262beee43c4b17ef059,64ce5acb97489d65b14ecc7a,64cf4b4fe598e964d2eae650,,,,,,,decisionTrl,resources/DBN.BMP,resources/DR.BMP,Door1,-0.355189164,-0.025782426,1,0,0,6.3704,optionLeft,30,11115,5,29,0,29,0,1,,,,,,,,,,,,,,,,,,,,,,,,,,,,,,,,,,,,,,,
,,,,,,,,2023-08-06_08h28.53.818,HF_wild_card,2022.2.4,Linux x86_64,60.05645307,62d6e262beee43c4b17ef059,64ce5acb97489d65b14ecc7a,64cf4b4fe598e964d2eae650,,,,,,,sngl,resources/DG.BMP,resources/Empty.png,Door3,-0.388887207,0.008770863,1,0,0,0.9589,optionLeft,70,11185,5,30,0,30,0,1,,,,,,,,,,,,,,,,,,,,,,,,,,,,,,,,,,,,,,,
,,,,,,,,2023-08-06_08h28.53.818,HF_wild_card,2022.2.4,Linux x86_64,60.05645307,62d6e262beee43c4b17ef059,64ce5acb97489d65b14ecc7a,64cf4b4fe598e964d2eae650,,,,,,,ctch,resources/DBN.BMP,resources/DY.BMP,Door4,0.376747449,-0.02776142,1,0,0,1.3092,optionRight,60,11245,5,31,0,31,0,1,,,,,,,,,,,,,,,,,,,,,,,,,,,,,,,,,,,,,,,
,,,,,,,,2023-08-06_08h28.53.818,HF_wild_card,2022.2.4,Linux x86_64,60.05645307,62d6e262beee43c4b17ef059,64ce5acb97489d65b14ecc7a,64cf4b4fe598e964d2eae650,,,,,,,ctch,resources/DBN.BMP,resources/DY.BMP,Door4,0.421429078,0.024108211,1,0,0,0.9245,optionRight,80,11325,5,32,0,32,0,1,,,,,,,,,,,,,,,,,,,,,,,,,,,,,,,,,,,,,,,
,,,,,,,,2023-08-06_08h28.53.818,HF_wild_card,2022.2.4,Linux x86_64,60.05645307,62d6e262beee43c4b17ef059,64ce5acb97489d65b14ecc7a,64cf4b4fe598e964d2eae650,,,,,,,ctch,resources/DR.BMP,resources/DG.BMP,Door3,0.319278797,-0.071876089,1,0,0,1.1268,optionRight,70,11395,5,33,0,33,0,1,,,,,,,,,,,,,,,,,,,,,,,,,,,,,,,,,,,,,,,
,,,,,,,,2023-08-06_08h28.53.818,HF_wild_card,2022.2.4,Linux x86_64,60.05645307,62d6e262beee43c4b17ef059,64ce5acb97489d65b14ecc7a,64cf4b4fe598e964d2eae650,,,,,,,decisionTrl,resources/DBN.BMP,resources/DR.BMP,Door1,-0.275311351,-0.006850402,1,0,0,1.5566,optionLeft,30,11425,5,34,0,34,0,1,,,,,,,,,,,,,,,,,,,,,,,,,,,,,,,,,,,,,,,
,,,,,,,,2023-08-06_08h28.53.818,HF_wild_card,2022.2.4,Linux x86_64,60.05645307,62d6e262beee43c4b17ef059,64ce5acb97489d65b14ecc7a,64cf4b4fe598e964d2eae650,,,,,,,sngl,resources/Empty.png,resources/DY.BMP,Door4,0.325747331,-0.088539839,1,0,0,0.7752,optionRight,60,11485,5,35,0,35,0,1,,,,,,,,,,,,,,,,,,,,,,,,,,,,,,,,,,,,,,,
,,,,,,,,2023-08-06_08h28.53.818,HF_wild_card,2022.2.4,Linux x86_64,60.05645307,62d6e262beee43c4b17ef059,64ce5acb97489d65b14ecc7a,64cf4b4fe598e964d2eae650,,,,,,,decisionTrl,resources/DY.BMP,resources/DG.BMP,Door3,0.267018239,-0.035848697,1,0,0,1.0748,optionRight,70,11555,5,36,0,36,0,1,,,,,,,,,,,,,,,,,,,,,,,,,,,,,,,,,,,,,,,
,,,,,,,,2023-08-06_08h28.53.818,HF_wild_card,2022.2.4,Linux x86_64,60.05645307,62d6e262beee43c4b17ef059,64ce5acb97489d65b14ecc7a,64cf4b4fe598e964d2eae650,,,,,,,ctch,resources/DY.BMP,resources/DBN.BMP,Door4,-0.315329115,-0.018581589,1,0,0,0.9594,optionLeft,60,11615,5,37,0,37,0,1,,,,,,,,,,,,,,,,,,,,,,,,,,,,,,,,,,,,,,,
,,,,,,,,2023-08-06_08h28.53.818,HF_wild_card,2022.2.4,Linux x86_64,60.05645307,62d6e262beee43c4b17ef059,64ce5acb97489d65b14ecc7a,64cf4b4fe598e964d2eae650,,,,,,,decisionTrl,resources/DG.BMP,resources/DP.BMP,Door3,-0.434738795,0.016592582,1,0,0,1.4418,optionLeft,70,11685,5,38,0,38,0,1,,,,,,,,,,,,,,,,,,,,,,,,,,,,,,,,,,,,,,,
,,,,,,,,2023-08-06_08h28.53.818,HF_wild_card,2022.2.4,Linux x86_64,60.05645307,62d6e262beee43c4b17ef059,64ce5acb97489d65b14ecc7a,64cf4b4fe598e964d2eae650,,,,,,,decisionTrl,resources/DY.BMP,resources/DG.BMP,Door3,0.277887662,-0.052066326,1,0,0,1.676,optionRight,70,11755,5,39,0,39,0,1,,,,,,,,,,,,,,,,,,,,,,,,,,,,,,,,,,,,,,,
,,,,,,,,2023-08-06_08h28.53.818,HF_wild_card,2022.2.4,Linux x86_64,60.05645307,62d6e262beee43c4b17ef059,64ce5acb97489d65b14ecc7a,64cf4b4fe598e964d2eae650,,,,,,,sngl,resources/DP.BMP,resources/Empty.png,WildCard_Ex,-0.430616736,-0.099589467,1,0,0,0.9428,optionLeft,55,11810,5,40,0,40,0,1,,,,,,,,,,,,,,,,,,,,,,,,,,,,,,,,,,,,,,,
,,,,,,,,2023-08-06_08h28.53.818,HF_wild_card,2022.2.4,Linux x86_64,60.05645307,62d6e262beee43c4b17ef059,64ce5acb97489d65b14ecc7a,64cf4b4fe598e964d2eae650,,,,,,,sngl,resources/DBN.BMP,resources/Empty.png,Door1,-0.32928435,0.023481329,1,0,0,1.5254,optionLeft,30,11840,5,41,0,41,0,1,,,,,,,,,,,,,,,,,,,,,,,,,,,,,,,,,,,,,,,
,,,,,,,,2023-08-06_08h28.53.818,HF_wild_card,2022.2.4,Linux x86_64,60.05645307,62d6e262beee43c4b17ef059,64ce5acb97489d65b14ecc7a,64cf4b4fe598e964d2eae650,,,,,,,decisionTrl,resources/DBN.BMP,resources/DR.BMP,Door1,-0.264697075,-0.013480544,1,0,0,1.4763,optionLeft,30,11870,5,42,0,42,0,1,,,,,,,,,,,,,,,,,,,,,,,,,,,,,,,,,,,,,,,
,,,,,,,,2023-08-06_08h28.53.818,HF_wild_card,2022.2.4,Linux x86_64,60.05645307,62d6e262beee43c4b17ef059,64ce5acb97489d65b14ecc7a,64cf4b4fe598e964d2eae650,,,,,,,decisionTrl,resources/DP.BMP,resources/DY.BMP,Door4,0.331461747,-0.043081323,1,0,0,1.4435,optionRight,60,11930,5,43,0,43,0,1,,,,,,,,,,,,,,,,,,,,,,,,,,,,,,,,,,,,,,,
,,,,,,,,2023-08-06_08h28.53.818,HF_wild_card,2022.2.4,Linux x86_64,60.05645307,62d6e262beee43c4b17ef059,64ce5acb97489d65b14ecc7a,64cf4b4fe598e964d2eae650,,,,,,,,,,,,,,,,,,,,,,,,,,4,0,4,0,1,,,,,,,,,,,,,,,,,,,,,,,,,,,,,,,,,,
,,,,,,,,2023-08-06_08h28.53.818,HF_wild_card,2022.2.4,Linux x86_64,60.05645307,62d6e262beee43c4b17ef059,64ce5acb97489d65b14ecc7a,64cf4b4fe598e964d2eae650,,,,,,,decisionTrl,resources/DR.BMP,resources/DBN.BMP,Door1,0.434193929,-0.074700435,1,0,0,1.7429,optionRight,30,11960,6,0,0,0,0,1,,,,,,,,,,,,,,,,,,,,,,,,,,,,,,,,,,,,,,,
,,,,,,,,2023-08-06_08h28.53.818,HF_wild_card,2022.2.4,Linux x86_64,60.05645307,62d6e262beee43c4b17ef059,64ce5acb97489d65b14ecc7a,64cf4b4fe598e964d2eae650,,,,,,,decisionTrl,resources/DR.BMP,resources/DP.BMP,WildCard_Ex,0.61603562,-0.098186374,1,0,0,1.393,optionRight,55,12015,6,1,0,1,0,1,,,,,,,,,,,,,,,,,,,,,,,,,,,,,,,,,,,,,,,
,,,,,,,,2023-08-06_08h28.53.818,HF_wild_card,2022.2.4,Linux x86_64,60.05645307,62d6e262beee43c4b17ef059,64ce5acb97489d65b14ecc7a,64cf4b4fe598e964d2eae650,,,,,,,decisionTrl,resources/DY.BMP,resources/DG.BMP,Door3,0.392583768,-0.021293163,1,0,0,2.2082,optionRight,70,12085,6,2,0,2,0,1,,,,,,,,,,,,,,,,,,,,,,,,,,,,,,,,,,,,,,,
,,,,,,,,2023-08-06_08h28.53.818,HF_wild_card,2022.2.4,Linux x86_64,60.05645307,62d6e262beee43c4b17ef059,64ce5acb97489d65b14ecc7a,64cf4b4fe598e964d2eae650,,,,,,,decisionTrl,resources/DP.BMP,resources/DBN.BMP,WildCard_Ex,-0.275810679,0.027567148,1,0,0,1.0487,optionLeft,45,12130,6,3,0,3,0,1,,,,,,,,,,,,,,,,,,,,,,,,,,,,,,,,,,,,,,,
,,,,,,,,2023-08-06_08h28.53.818,HF_wild_card,2022.2.4,Linux x86_64,60.05645307,62d6e262beee43c4b17ef059,64ce5acb97489d65b14ecc7a,64cf4b4fe598e964d2eae650,,,,,,,ctch,resources/DR.BMP,resources/DG.BMP,Door3,0.397376458,0.03819406,1,0,0,1.3809,optionRight,70,12200,6,4,0,4,0,1,,,,,,,,,,,,,,,,,,,,,,,,,,,,,,,,,,,,,,,
,,,,,,,,2023-08-06_08h28.53.818,HF_wild_card,2022.2.4,Linux x86_64,60.05645307,62d6e262beee43c4b17ef059,64ce5acb97489d65b14ecc7a,64cf4b4fe598e964d2eae650,,,,,,,sngl,resources/DP.BMP,resources/Empty.png,WildCard_Ex,-0.223162095,-0.012853463,1,0,0,1.1002,optionLeft,55,12255,6,5,0,5,0,1,,,,,,,,,,,,,,,,,,,,,,,,,,,,,,,,,,,,,,,
,,,,,,,,2023-08-06_08h28.53.818,HF_wild_card,2022.2.4,Linux x86_64,60.05645307,62d6e262beee43c4b17ef059,64ce5acb97489d65b14ecc7a,64cf4b4fe598e964d2eae650,,,,,,,decisionTrl,resources/DG.BMP,resources/DY.BMP,Door4,0.242251237,0.066324115,1,0,0,3.188,optionRight,80,12335,6,6,0,6,0,1,,,,,,,,,,,,,,,,,,,,,,,,,,,,,,,,,,,,,,,
,,,,,,,,2023-08-06_08h28.53.818,HF_wild_card,2022.2.4,Linux x86_64,60.05645307,62d6e262beee43c4b17ef059,64ce5acb97489d65b14ecc7a,64cf4b4fe598e964d2eae650,,,,,,,sngl,resources/DP.BMP,resources/Empty.png,WildCard_Ex,-0.341906985,-0.011925578,1,0,0,2.3312,optionLeft,45,12380,6,7,0,7,0,1,,,,,,,,,,,,,,,,,,,,,,,,,,,,,,,,,,,,,,,
,,,,,,,,2023-08-06_08h28.53.818,HF_wild_card,2022.2.4,Linux x86_64,60.05645307,62d6e262beee43c4b17ef059,64ce5acb97489d65b14ecc7a,64cf4b4fe598e964d2eae650,,,,,,,decisionTrl,resources/DY.BMP,resources/DP.BMP,Door4,-0.159012794,-0.01779139,1,0,0,1.9743,optionLeft,60,12440,6,8,0,8,0,1,,,,,,,,,,,,,,,,,,,,,,,,,,,,,,,,,,,,,,,
,,,,,,,,2023-08-06_08h28.53.818,HF_wild_card,2022.2.4,Linux x86_64,60.05645307,62d6e262beee43c4b17ef059,64ce5acb97489d65b14ecc7a,64cf4b4fe598e964d2eae650,,,,,,,decisionTrl,resources/DY.BMP,resources/DG.BMP,Door3,0.461236795,-0.030128638,1,0,0,1.007,optionRight,70,12510,6,9,0,9,0,1,,,,,,,,,,,,,,,,,,,,,,,,,,,,,,,,,,,,,,,
,,,,,,,,2023-08-06_08h28.53.818,HF_wild_card,2022.2.4,Linux x86_64,60.05645307,62d6e262beee43c4b17ef059,64ce5acb97489d65b14ecc7a,64cf4b4fe598e964d2eae650,,,,,,,decisionTrl,resources/DP.BMP,resources/DG.BMP,Door3,0.343256474,-0.023978551,1,0,0,1.6601,optionRight,70,12580,6,10,0,10,0,1,,,,,,,,,,,,,,,,,,,,,,,,,,,,,,,,,,,,,,,
,,,,,,,,2023-08-06_08h28.53.818,HF_wild_card,2022.2.4,Linux x86_64,60.05645307,62d6e262beee43c4b17ef059,64ce5acb97489d65b14ecc7a,64cf4b4fe598e964d2eae650,,,,,,,decisionTrl,resources/DR.BMP,resources/DBN.BMP,Door1,0.513559818,-0.112757723,1,0,0,1.5248,optionRight,30,12610,6,11,0,11,0,1,,,,,,,,,,,,,,,,,,,,,,,,,,,,,,,,,,,,,,,
,,,,,,,,2023-08-06_08h28.53.818,HF_wild_card,2022.2.4,Linux x86_64,60.05645307,62d6e262beee43c4b17ef059,64ce5acb97489d65b14ecc7a,64cf4b4fe598e964d2eae650,,,,,,,decisionTrl,resources/DBN.BMP,resources/DR.BMP,Door2,0.434521675,0.019438585,1,0,0,1.2573,optionRight,40,12650,6,12,0,12,0,1,,,,,,,,,,,,,,,,,,,,,,,,,,,,,,,,,,,,,,,
,,,,,,,,2023-08-06_08h28.53.818,HF_wild_card,2022.2.4,Linux x86_64,60.05645307,62d6e262beee43c4b17ef059,64ce5acb97489d65b14ecc7a,64cf4b4fe598e964d2eae650,,,,,,,sngl,resources/DY.BMP,resources/Empty.png,Door4,-0.258601745,-0.069642107,1,0,0,0.873,optionLeft,60,12710,6,13,0,13,0,1,,,,,,,,,,,,,,,,,,,,,,,,,,,,,,,,,,,,,,,
,,,,,,,,2023-08-06_08h28.53.818,HF_wild_card,2022.2.4,Linux x86_64,60.05645307,62d6e262beee43c4b17ef059,64ce5acb97489d65b14ecc7a,64cf4b4fe598e964d2eae650,,,,,,,decisionTrl,resources/DG.BMP,resources/DP.BMP,Door3,-0.345802188,-0.009138783,1,0,0,1.4234,optionLeft,70,12780,6,14,0,14,0,1,,,,,,,,,,,,,,,,,,,,,,,,,,,,,,,,,,,,,,,
,,,,,,,,2023-08-06_08h28.53.818,HF_wild_card,2022.2.4,Linux x86_64,60.05645307,62d6e262beee43c4b17ef059,64ce5acb97489d65b14ecc7a,64cf4b4fe598e964d2eae650,,,,,,,decisionTrl,resources/DG.BMP,resources/DY.BMP,Door3,-0.416927059,6.50485E-05,1,0,0,1.8423,optionLeft,70,12850,6,15,0,15,0,1,,,,,,,,,,,,,,,,,,,,,,,,,,,,,,,,,,,,,,,
,,,,,,,,2023-08-06_08h28.53.818,HF_wild_card,2022.2.4,Linux x86_64,60.05645307,62d6e262beee43c4b17ef059,64ce5acb97489d65b14ecc7a,64cf4b4fe598e964d2eae650,,,,,,,ctch,resources/DR.BMP,resources/DG.BMP,Door3,0.404347499,-0.085219463,1,0,0,1.1921,optionRight,70,12920,6,16,0,16,0,1,,,,,,,,,,,,,,,,,,,,,,,,,,,,,,,,,,,,,,,
,,,,,,,,2023-08-06_08h28.53.818,HF_wild_card,2022.2.4,Linux x86_64,60.05645307,62d6e262beee43c4b17ef059,64ce5acb97489d65b14ecc7a,64cf4b4fe598e964d2eae650,,,,,,,ctch,resources/DBN.BMP,resources/DY.BMP,Door4,0.305787245,-0.005672971,1,0,0,1.5605,optionRight,60,12980,6,17,0,17,0,1,,,,,,,,,,,,,,,,,,,,,,,,,,,,,,,,,,,,,,,
,,,,,,,,2023-08-06_08h28.53.818,HF_wild_card,2022.2.4,Linux x86_64,60.05645307,62d6e262beee43c4b17ef059,64ce5acb97489d65b14ecc7a,64cf4b4fe598e964d2eae650,,,,,,,decisionTrl,resources/DP.BMP,resources/DY.BMP,Door4,0.375066201,-0.020510395,1,0,0,1.3122,optionRight,60,13040,6,18,0,18,0,1,,,,,,,,,,,,,,,,,,,,,,,,,,,,,,,,,,,,,,,
,,,,,,,,2023-08-06_08h28.53.818,HF_wild_card,2022.2.4,Linux x86_64,60.05645307,62d6e262beee43c4b17ef059,64ce5acb97489d65b14ecc7a,64cf4b4fe598e964d2eae650,,,,,,,decisionTrl,resources/DR.BMP,resources/DBN.BMP,Door1,0.362488747,-0.090996424,1,0,0,2.4736,optionRight,30,13070,6,19,0,19,0,1,,,,,,,,,,,,,,,,,,,,,,,,,,,,,,,,,,,,,,,
,,,,,,,,2023-08-06_08h28.53.818,HF_wild_card,2022.2.4,Linux x86_64,60.05645307,62d6e262beee43c4b17ef059,64ce5acb97489d65b14ecc7a,64cf4b4fe598e964d2eae650,,,,,,,sngl,resources/Empty.png,resources/DP.BMP,WildCard_Ex,0.41350174,-0.068735878,1,0,0,1.0925,optionRight,45,13115,6,20,0,20,0,1,,,,,,,,,,,,,,,,,,,,,,,,,,,,,,,,,,,,,,,
,,,,,,,,2023-08-06_08h28.53.818,HF_wild_card,2022.2.4,Linux x86_64,60.05645307,62d6e262beee43c4b17ef059,64ce5acb97489d65b14ecc7a,64cf4b4fe598e964d2eae650,,,,,,,decisionTrl,resources/DBN.BMP,resources/DR.BMP,Door1,-0.307830135,-0.00675873,1,0,0,2.2087,optionLeft,30,13145,6,21,0,21,0,1,,,,,,,,,,,,,,,,,,,,,,,,,,,,,,,,,,,,,,,
,,,,,,,,2023-08-06_08h28.53.818,HF_wild_card,2022.2.4,Linux x86_64,60.05645307,62d6e262beee43c4b17ef059,64ce5acb97489d65b14ecc7a,64cf4b4fe598e964d2eae650,,,,,,,decisionTrl,resources/DY.BMP,resources/DG.BMP,Door3,0.395173709,-0.020501852,1,0,0,2.0077,optionRight,70,13215,6,22,0,22,0,1,,,,,,,,,,,,,,,,,,,,,,,,,,,,,,,,,,,,,,,
,,,,,,,,2023-08-06_08h28.53.818,HF_wild_card,2022.2.4,Linux x86_64,60.05645307,62d6e262beee43c4b17ef059,64ce5acb97489d65b14ecc7a,64cf4b4fe598e964d2eae650,,,,,,,ctch,resources/DBN.BMP,resources/DY.BMP,Door4,0.365562757,0.049066504,1,0,0,1.091,optionRight,80,13295,6,23,0,23,0,1,,,,,,,,,,,,,,,,,,,,,,,,,,,,,,,,,,,,,,,
,,,,,,,,2023-08-06_08h28.53.818,HF_wild_card,2022.2.4,Linux x86_64,60.05645307,62d6e262beee43c4b17ef059,64ce5acb97489d65b14ecc7a,64cf4b4fe598e964d2eae650,,,,,,,sngl,resources/DG.BMP,resources/Empty.png,Door3,-0.324613452,-0.062007467,1,0,0,1.0091,optionLeft,70,13365,6,24,0,24,0,1,,,,,,,,,,,,,,,,,,,,,,,,,,,,,,,,,,,,,,,
,,,,,,,,2023-08-06_08h28.53.818,HF_wild_card,2022.2.4,Linux x86_64,60.05645307,62d6e262beee43c4b17ef059,64ce5acb97489d65b14ecc7a,64cf4b4fe598e964d2eae650,,,,,,,decisionTrl,resources/DY.BMP,resources/DG.BMP,Door4,-0.403145234,-0.004369815,1,0,0,1.99,optionLeft,80,13445,6,25,0,25,0,1,,,,,,,,,,,,,,,,,,,,,,,,,,,,,,,,,,,,,,,
,,,,,,,,2023-08-06_08h28.53.818,HF_wild_card,2022.2.4,Linux x86_64,60.05645307,62d6e262beee43c4b17ef059,64ce5acb97489d65b14ecc7a,64cf4b4fe598e964d2eae650,,,,,,,decisionTrl,resources/DBN.BMP,resources/DR.BMP,Door2,0.373722235,-0.041760921,1,0,0,1.8079,optionRight,40,13485,6,26,0,26,0,1,,,,,,,,,,,,,,,,,,,,,,,,,,,,,,,,,,,,,,,
,,,,,,,,2023-08-06_08h28.53.818,HF_wild_card,2022.2.4,Linux x86_64,60.05645307,62d6e262beee43c4b17ef059,64ce5acb97489d65b14ecc7a,64cf4b4fe598e964d2eae650,,,,,,,ctch,resources/DG.BMP,resources/DR.BMP,Door3,-0.227483392,-0.00277555,1,0,0,1.4417,optionLeft,70,13555,6,27,0,27,0,1,,,,,,,,,,,,,,,,,,,,,,,,,,,,,,,,,,,,,,,
,,,,,,,,2023-08-06_08h28.53.818,HF_wild_card,2022.2.4,Linux x86_64,60.05645307,62d6e262beee43c4b17ef059,64ce5acb97489d65b14ecc7a,64cf4b4fe598e964d2eae650,,,,,,,decisionTrl,resources/DBN.BMP,resources/DP.BMP,WildCard_Ex,0.334511439,-0.019560456,1,0,0,1.4752,optionRight,55,13610,6,28,0,28,0,1,,,,,,,,,,,,,,,,,,,,,,,,,,,,,,,,,,,,,,,
,,,,,,,,2023-08-06_08h28.53.818,HF_wild_card,2022.2.4,Linux x86_64,60.05645307,62d6e262beee43c4b17ef059,64ce5acb97489d65b14ecc7a,64cf4b4fe598e964d2eae650,,,,,,,sngl,resources/Empty.png,resources/DG.BMP,Door3,0.358329932,0.024683158,1,0,0,1.6098,optionRight,70,13680,6,29,0,29,0,1,,,,,,,,,,,,,,,,,,,,,,,,,,,,,,,,,,,,,,,
,,,,,,,,2023-08-06_08h28.53.818,HF_wild_card,2022.2.4,Linux x86_64,60.05645307,62d6e262beee43c4b17ef059,64ce5acb97489d65b14ecc7a,64cf4b4fe598e964d2eae650,,,,,,,sngl,resources/Empty.png,resources/DY.BMP,Door4,0.41008838,0.004712065,1,0,0,1.6597,optionRight,80,13760,6,30,0,30,0,1,,,,,,,,,,,,,,,,,,,,,,,,,,,,,,,,,,,,,,,
,,,,,,,,2023-08-06_08h28.53.818,HF_wild_card,2022.2.4,Linux x86_64,60.05645307,62d6e262beee43c4b17ef059,64ce5acb97489d65b14ecc7a,64cf4b4fe598e964d2eae650,,,,,,,sngl,resources/Empty.png,resources/DP.BMP,WildCard_Ex,0.506494045,-0.03686138,1,0,0,1.0764,optionRight,55,13815,6,31,0,31,0,1,,,,,,,,,,,,,,,,,,,,,,,,,,,,,,,,,,,,,,,
,,,,,,,,2023-08-06_08h28.53.818,HF_wild_card,2022.2.4,Linux x86_64,60.05645307,62d6e262beee43c4b17ef059,64ce5acb97489d65b14ecc7a,64cf4b4fe598e964d2eae650,,,,,,,sngl,resources/DR.BMP,resources/Empty.png,Door2,-0.388269583,0.023783008,1,0,0,0.9424,optionLeft,20,13835,6,32,0,32,0,1,,,,,,,,,,,,,,,,,,,,,,,,,,,,,,,,,,,,,,,
,,,,,,,,2023-08-06_08h28.53.818,HF_wild_card,2022.2.4,Linux x86_64,60.05645307,62d6e262beee43c4b17ef059,64ce5acb97489d65b14ecc7a,64cf4b4fe598e964d2eae650,,,,,,,sngl,resources/DBN.BMP,resources/Empty.png,Door1,-0.351629814,-0.005262494,1,0,0,0.9411,optionLeft,30,13865,6,33,0,33,0,1,,,,,,,,,,,,,,,,,,,,,,,,,,,,,,,,,,,,,,,
,,,,,,,,2023-08-06_08h28.53.818,HF_wild_card,2022.2.4,Linux x86_64,60.05645307,62d6e262beee43c4b17ef059,64ce5acb97489d65b14ecc7a,64cf4b4fe598e964d2eae650,,,,,,,ctch,resources/DY.BMP,resources/DBN.BMP,Door4,-0.270196716,-0.009345214,1,0,0,1.5584,optionLeft,80,13945,6,34,0,34,0,1,,,,,,,,,,,,,,,,,,,,,,,,,,,,,,,,,,,,,,,
,,,,,,,,2023-08-06_08h28.53.818,HF_wild_card,2022.2.4,Linux x86_64,60.05645307,62d6e262beee43c4b17ef059,64ce5acb97489d65b14ecc7a,64cf4b4fe598e964d2eae650,,,,,,,ctch,resources/DG.BMP,resources/DR.BMP,Door3,-0.221402884,-0.023496429,1,0,0,1.9084,optionLeft,70,14015,6,35,0,35,0,1,,,,,,,,,,,,,,,,,,,,,,,,,,,,,,,,,,,,,,,
,,,,,,,,2023-08-06_08h28.53.818,HF_wild_card,2022.2.4,Linux x86_64,60.05645307,62d6e262beee43c4b17ef059,64ce5acb97489d65b14ecc7a,64cf4b4fe598e964d2eae650,,,,,,,ctch,resources/DY.BMP,resources/DBN.BMP,Door4,-0.240850925,0.031376878,1,0,0,1.5924,optionLeft,80,14095,6,36,0,36,0,1,,,,,,,,,,,,,,,,,,,,,,,,,,,,,,,,,,,,,,,
,,,,,,,,2023-08-06_08h28.53.818,HF_wild_card,2022.2.4,Linux x86_64,60.05645307,62d6e262beee43c4b17ef059,64ce5acb97489d65b14ecc7a,64cf4b4fe598e964d2eae650,,,,,,,decisionTrl,resources/DBN.BMP,resources/DR.BMP,Door2,0.279929558,0.005436341,1,0,0,1.6262,optionRight,40,14135,6,37,0,37,0,1,,,,,,,,,,,,,,,,,,,,,,,,,,,,,,,,,,,,,,,
,,,,,,,,2023-08-06_08h28.53.818,HF_wild_card,2022.2.4,Linux x86_64,60.05645307,62d6e262beee43c4b17ef059,64ce5acb97489d65b14ecc7a,64cf4b4fe598e964d2eae650,,,,,,,decisionTrl,resources/DG.BMP,resources/DY.BMP,Door4,0.396950404,-0.004462202,1,0,0,2.5388,optionRight,80,14215,6,38,0,38,0,1,,,,,,,,,,,,,,,,,,,,,,,,,,,,,,,,,,,,,,,
,,,,,,,,2023-08-06_08h28.53.818,HF_wild_card,2022.2.4,Linux x86_64,60.05645307,62d6e262beee43c4b17ef059,64ce5acb97489d65b14ecc7a,64cf4b4fe598e964d2eae650,,,,,,,decisionTrl,resources/DP.BMP,resources/DR.BMP,WildCard_Ex,-0.258669575,-0.020182212,1,0,0,2.2574,optionLeft,55,14270,6,39,0,39,0,1,,,,,,,,,,,,,,,,,,,,,,,,,,,,,,,,,,,,,,,
,,,,,,,,2023-08-06_08h28.53.818,HF_wild_card,2022.2.4,Linux x86_64,60.05645307,62d6e262beee43c4b17ef059,64ce5acb97489d65b14ecc7a,64cf4b4fe598e964d2eae650,,,,,,,decisionTrl,resources/DR.BMP,resources/DBN.BMP,Door2,-0.313230991,0.022931695,1,0,0,1.6749,optionLeft,40,14310,6,40,0,40,0,1,,,,,,,,,,,,,,,,,,,,,,,,,,,,,,,,,,,,,,,
,,,,,,,,2023-08-06_08h28.53.818,HF_wild_card,2022.2.4,Linux x86_64,60.05645307,62d6e262beee43c4b17ef059,64ce5acb97489d65b14ecc7a,64cf4b4fe598e964d2eae650,,,,,,,sngl,resources/Empty.png,resources/DBN.BMP,Door1,0.387830814,0.034703811,1,0,0,1.0928,optionRight,30,14340,6,41,0,41,0,1,,,,,,,,,,,,,,,,,,,,,,,,,,,,,,,,,,,,,,,
,,,,,,,,2023-08-06_08h28.53.818,HF_wild_card,2022.2.4,Linux x86_64,60.05645307,62d6e262beee43c4b17ef059,64ce5acb97489d65b14ecc7a,64cf4b4fe598e964d2eae650,,,,,,,sngl,resources/Empty.png,resources/DR.BMP,Door2,0.362549941,-0.023817221,1,0,0,1.0244,optionRight,40,14380,6,42,0,42,0,1,,,,,,,,,,,,,,,,,,,,,,,,,,,,,,,,,,,,,,,
,,,,,,,,2023-08-06_08h28.53.818,HF_wild_card,2022.2.4,Linux x86_64,60.05645307,62d6e262beee43c4b17ef059,64ce5acb97489d65b14ecc7a,64cf4b4fe598e964d2eae650,,,,,,,decisionTrl,resources/DG.BMP,resources/DY.BMP,Door4,0.391928991,-0.006240646,1,0,0,1.8757,optionRight,80,14460,6,43,0,43,0,1,,,,,,,,,,,,,,,,,,,,,,,,,,,,,,,,,,,,,,,
,,,,,,,,2023-08-06_08h28.53.818,HF_wild_card,2022.2.4,Linux x86_64,60.05645307,62d6e262beee43c4b17ef059,64ce5acb97489d65b14ecc7a,64cf4b4fe598e964d2eae650,,,,,,,,,,,,,,,,,,,,,,,,,,5,0,5,0,1,,,,,,,,,,,,,,,,,,,,,,,,,,,,,,,,,,
,,,,,,,,2023-08-06_08h28.53.818,HF_wild_card,2022.2.4,Linux x86_64,60.05645307,62d6e262beee43c4b17ef059,64ce5acb97489d65b14ecc7a,64cf4b4fe598e964d2eae650,,,,,,,decisionTrl,resources/DR.BMP,resources/DBN.BMP,Door1,0.402257125,-0.007538557,1,0,0,1.7115,optionRight,30,14490,7,0,0,0,0,1,,,,,,,,,,,,,,,,,,,,,,,,,,,,,,,,,,,,,,,
,,,,,,,,2023-08-06_08h28.53.818,HF_wild_card,2022.2.4,Linux x86_64,60.05645307,62d6e262beee43c4b17ef059,64ce5acb97489d65b14ecc7a,64cf4b4fe598e964d2eae650,,,,,,,decisionTrl,resources/DR.BMP,resources/DBN.BMP,Door1,0.329781373,0.02213939,1,0,0,1.5445,optionRight,30,14520,7,1,0,1,0,1,,,,,,,,,,,,,,,,,,,,,,,,,,,,,,,,,,,,,,,
,,,,,,,,2023-08-06_08h28.53.818,HF_wild_card,2022.2.4,Linux x86_64,60.05645307,62d6e262beee43c4b17ef059,64ce5acb97489d65b14ecc7a,64cf4b4fe598e964d2eae650,,,,,,,ctch,resources/DG.BMP,resources/DR.BMP,Door3,-0.375456254,0.028728604,1,0,0,1.3431,optionLeft,70,14590,7,2,0,2,0,1,,,,,,,,,,,,,,,,,,,,,,,,,,,,,,,,,,,,,,,
,,,,,,,,2023-08-06_08h28.53.818,HF_wild_card,2022.2.4,Linux x86_64,60.05645307,62d6e262beee43c4b17ef059,64ce5acb97489d65b14ecc7a,64cf4b4fe598e964d2eae650,,,,,,,decisionTrl,resources/DBN.BMP,resources/DR.BMP,Door1,-0.231644273,-0.016177853,1,0,0,2.1445,optionLeft,30,14620,7,3,0,3,0,1,,,,,,,,,,,,,,,,,,,,,,,,,,,,,,,,,,,,,,,
,,,,,,,,2023-08-06_08h28.53.818,HF_wild_card,2022.2.4,Linux x86_64,60.05645307,62d6e262beee43c4b17ef059,64ce5acb97489d65b14ecc7a,64cf4b4fe598e964d2eae650,,,,,,,decisionTrl,resources/DG.BMP,resources/DY.BMP,Door3,-0.215568384,0.008061965,1,0,0,1.2448,optionLeft,70,14690,7,4,0,4,0,1,,,,,,,,,,,,,,,,,,,,,,,,,,,,,,,,,,,,,,,
,,,,,,,,2023-08-06_08h28.53.818,HF_wild_card,2022.2.4,Linux x86_64,60.05645307,62d6e262beee43c4b17ef059,64ce5acb97489d65b14ecc7a,64cf4b4fe598e964d2eae650,,,,,,,decisionTrl,resources/DY.BMP,resources/DG.BMP,Door3,0.408103704,-0.088725011,1,0,0,1.3237,optionRight,70,14760,7,5,0,5,0,1,,,,,,,,,,,,,,,,,,,,,,,,,,,,,,,,,,,,,,,
,,,,,,,,2023-08-06_08h28.53.818,HF_wild_card,2022.2.4,Linux x86_64,60.05645307,62d6e262beee43c4b17ef059,64ce5acb97489d65b14ecc7a,64cf4b4fe598e964d2eae650,,,,,,,ctch,resources/DBN.BMP,resources/DY.BMP,Door4,0.426297426,-0.03572758,1,0,0,1.6794,optionRight,80,14840,7,6,0,6,0,1,,,,,,,,,,,,,,,,,,,,,,,,,,,,,,,,,,,,,,,
,,,,,,,,2023-08-06_08h28.53.818,HF_wild_card,2022.2.4,Linux x86_64,60.05645307,62d6e262beee43c4b17ef059,64ce5acb97489d65b14ecc7a,64cf4b4fe598e964d2eae650,,,,,,,decisionTrl,resources/DR.BMP,resources/DBN.BMP,Door1,0.436750968,-0.044416746,1,0,0,1.627,optionRight,30,14870,7,7,0,7,0,1,,,,,,,,,,,,,,,,,,,,,,,,,,,,,,,,,,,,,,,
,,,,,,,,2023-08-06_08h28.53.818,HF_wild_card,2022.2.4,Linux x86_64,60.05645307,62d6e262beee43c4b17ef059,64ce5acb97489d65b14ecc7a,64cf4b4fe598e964d2eae650,,,,,,,decisionTrl,resources/DR.BMP,resources/DBN.BMP,Door1,0.357960065,-0.048197269,1,0,0,1.26,optionRight,30,14900,7,8,0,8,0,1,,,,,,,,,,,,,,,,,,,,,,,,,,,,,,,,,,,,,,,
,,,,,,,,2023-08-06_08h28.53.818,HF_wild_card,2022.2.4,Linux x86_64,60.05645307,62d6e262beee43c4b17ef059,64ce5acb97489d65b14ecc7a,64cf4b4fe598e964d2eae650,,,,,,,decisionTrl,resources/DBN.BMP,resources/DR.BMP,Door1,-0.324185292,0.017482122,1,0,0,1.2959,optionLeft,30,14930,7,9,0,9,0,1,,,,,,,,,,,,,,,,,,,,,,,,,,,,,,,,,,,,,,,
,,,,,,,,2023-08-06_08h28.53.818,HF_wild_card,2022.2.4,Linux x86_64,60.05645307,62d6e262beee43c4b17ef059,64ce5acb97489d65b14ecc7a,64cf4b4fe598e964d2eae650,,,,,,,decisionTrl,resources/DG.BMP,resources/DY.BMP,Door3,-0.188304583,0.002517502,1,0,0,1.6791,optionLeft,70,15000,7,10,0,10,0,1,,,,,,,,,,,,,,,,,,,,,,,,,,,,,,,,,,,,,,,
,,,,,,,,2023-08-06_08h28.53.818,HF_wild_card,2022.2.4,Linux x86_64,60.05645307,62d6e262beee43c4b17ef059,64ce5acb97489d65b14ecc7a,64cf4b4fe598e964d2eae650,,,,,,,ctch,resources/DG.BMP,resources/DR.BMP,Door3,-0.279503822,-0.009462674,1,0,0,1.214,optionLeft,70,15070,7,11,0,11,0,1,,,,,,,,,,,,,,,,,,,,,,,,,,,,,,,,,,,,,,,
,,,,,,,,2023-08-06_08h28.53.818,HF_wild_card,2022.2.4,Linux x86_64,60.05645307,62d6e262beee43c4b17ef059,64ce5acb97489d65b14ecc7a,64cf4b4fe598e964d2eae650,,,,,,,decisionTrl,resources/DBN.BMP,resources/DR.BMP,Door1,-0.303847035,-0.02805678,1,0,0,1.9022,optionLeft,30,15100,7,12,0,12,0,1,,,,,,,,,,,,,,,,,,,,,,,,,,,,,,,,,,,,,,,
,,,,,,,,2023-08-06_08h28.53.818,HF_wild_card,2022.2.4,Linux x86_64,60.05645307,62d6e262beee43c4b17ef059,64ce5acb97489d65b14ecc7a,64cf4b4fe598e964d2eae650,,,,,,,decisionTrl,resources/DG.BMP,resources/DY.BMP,Door3,-0.202880462,-0.018302202,1,0,0,1.378,optionLeft,70,15170,7,13,0,13,0,1,,,,,,,,,,,,,,,,,,,,,,,,,,,,,,,,,,,,,,,
,,,,,,,,2023-08-06_08h28.53.818,HF_wild_card,2022.2.4,Linux x86_64,60.05645307,62d6e262beee43c4b17ef059,64ce5acb97489d65b14ecc7a,64cf4b4fe598e964d2eae650,,,,,,,decisionTrl,resources/DR.BMP,resources/DBN.BMP,Door1,0.273745696,0.059979002,1,0,0,1.3456,optionRight,30,15200,7,14,0,14,0,1,,,,,,,,,,,,,,,,,,,,,,,,,,,,,,,,,,,,,,,
,,,,,,,,2023-08-06_08h28.53.818,HF_wild_card,2022.2.4,Linux x86_64,60.05645307,62d6e262beee43c4b17ef059,64ce5acb97489d65b14ecc7a,64cf4b4fe598e964d2eae650,,,,,,,decisionTrl,resources/DY.BMP,resources/DG.BMP,Door3,0.316132863,-0.062121868,1,0,0,1.3957,optionRight,70,15270,7,15,0,15,0,1,,,,,,,,,,,,,,,,,,,,,,,,,,,,,,,,,,,,,,,
,,,,,,,,2023-08-06_08h28.53.818,HF_wild_card,2022.2.4,Linux x86_64,60.05645307,62d6e262beee43c4b17ef059,64ce5acb97489d65b14ecc7a,64cf4b4fe598e964d2eae650,,,,,,,decisionTrl,resources/DBN.BMP,resources/DR.BMP,Door1,-0.209311883,0.015468081,1,0,0,1.4122,optionLeft,30,15300,7,16,0,16,0,1,,,,,,,,,,,,,,,,,,,,,,,,,,,,,,,,,,,,,,,
,,,,,,,,2023-08-06_08h28.53.818,HF_wild_card,2022.2.4,Linux x86_64,60.05645307,62d6e262beee43c4b17ef059,64ce5acb97489d65b14ecc7a,64cf4b4fe598e964d2eae650,,,,,,,decisionTrl,resources/DR.BMP,resources/DBN.BMP,Door1,0.306567828,-0.066577593,1,0,0,2.0119,optionRight,30,15330,7,17,0,17,0,1,,,,,,,,,,,,,,,,,,,,,,,,,,,,,,,,,,,,,,,
,,,,,,,,2023-08-06_08h28.53.818,HF_wild_card,2022.2.4,Linux x86_64,60.05645307,62d6e262beee43c4b17ef059,64ce5acb97489d65b14ecc7a,64cf4b4fe598e964d2eae650,,,,,,,decisionTrl,resources/DG.BMP,resources/DY.BMP,Door3,-0.188855807,-0.023308595,1,0,0,1.5292,optionLeft,70,15400,7,18,0,18,0,1,,,,,,,,,,,,,,,,,,,,,,,,,,,,,,,,,,,,,,,
,,,,,,,,2023-08-06_08h28.53.818,HF_wild_card,2022.2.4,Linux x86_64,60.05645307,62d6e262beee43c4b17ef059,64ce5acb97489d65b14ecc7a,64cf4b4fe598e964d2eae650,,,,,,,ctch,resources/DBN.BMP,resources/DY.BMP,Door4,0.292345206,-0.019572218,1,0,0,1.3114,optionRight,60,15460,7,19,0,19,0,1,,,,,,,,,,,,,,,,,,,,,,,,,,,,,,,,,,,,,,,
,,,,,,,,2023-08-06_08h28.53.818,HF_wild_card,2022.2.4,Linux x86_64,60.05645307,62d6e262beee43c4b17ef059,64ce5acb97489d65b14ecc7a,64cf4b4fe598e964d2eae650,,,,,,,decisionTrl,resources/DBN.BMP,resources/DR.BMP,Door1,-0.261216561,0.036782026,1,0,0,1.1616,optionLeft,30,15490,7,20,0,20,0,1,,,,,,,,,,,,,,,,,,,,,,,,,,,,,,,,,,,,,,,
,,,,,,,,2023-08-06_08h28.53.818,HF_wild_card,2022.2.4,Linux x86_64,60.05645307,62d6e262beee43c4b17ef059,64ce5acb97489d65b14ecc7a,64cf4b4fe598e964d2eae650,,,,,,,ctch,resources/DG.BMP,resources/DR.BMP,Door3,-0.18857193,0.010152578,1,0,0,1.6443,optionLeft,70,15560,7,21,0,21,0,1,,,,,,,,,,,,,,,,,,,,,,,,,,,,,,,,,,,,,,,
,,,,,,,,2023-08-06_08h28.53.818,HF_wild_card,2022.2.4,Linux x86_64,60.05645307,62d6e262beee43c4b17ef059,64ce5acb97489d65b14ecc7a,64cf4b4fe598e964d2eae650,,,,,,,ctch,resources/DR.BMP,resources/DG.BMP,Door3,0.32370313,0.00196739,1,0,0,1.1777,optionRight,70,15630,7,22,0,22,0,1,,,,,,,,,,,,,,,,,,,,,,,,,,,,,,,,,,,,,,,
,,,,,,,,2023-08-06_08h28.53.818,HF_wild_card,2022.2.4,Linux x86_64,60.05645307,62d6e262beee43c4b17ef059,64ce5acb97489d65b14ecc7a,64cf4b4fe598e964d2eae650,,,,,,,ctch,resources/DR.BMP,resources/DG.BMP,Door3,0.343027035,-0.016535918,1,0,0,1.3625,optionRight,70,15700,7,23,0,23,0,1,,,,,,,,,,,,,,,,,,,,,,,,,,,,,,,,,,,,,,,
,,,,,,,,2023-08-06_08h28.53.818,HF_wild_card,2022.2.4,Linux x86_64,60.05645307,62d6e262beee43c4b17ef059,64ce5acb97489d65b14ecc7a,64cf4b4fe598e964d2eae650,,,,,,,decisionTrl,resources/DY.BMP,resources/DG.BMP,Door3,0.300131639,-0.007143736,1,0,0,1.2951,optionRight,70,15770,7,24,0,24,0,1,,,,,,,,,,,,,,,,,,,,,,,,,,,,,,,,,,,,,,,
,,,,,,,,2023-08-06_08h28.53.818,HF_wild_card,2022.2.4,Linux x86_64,60.05645307,62d6e262beee43c4b17ef059,64ce5acb97489d65b14ecc7a,64cf4b4fe598e964d2eae650,,,,,,,decisionTrl,resources/DG.BMP,resources/DY.BMP,Door3,-0.213501612,-0.010363936,1,0,0,1.2278,optionLeft,70,15840,7,25,0,25,0,1,,,,,,,,,,,,,,,,,,,,,,,,,,,,,,,,,,,,,,,
,,,,,,,,2023-08-06_08h28.53.818,HF_wild_card,2022.2.4,Linux x86_64,60.05645307,62d6e262beee43c4b17ef059,64ce5acb97489d65b14ecc7a,64cf4b4fe598e964d2eae650,,,,,,,decisionTrl,resources/DY.BMP,resources/DG.BMP,Door3,0.4299589,-0.024641196,1,0,0,1.0942,optionRight,70,15910,7,26,0,26,0,1,,,,,,,,,,,,,,,,,,,,,,,,,,,,,,,,,,,,,,,
,,,,,,,,2023-08-06_08h28.53.818,HF_wild_card,2022.2.4,Linux x86_64,60.05645307,62d6e262beee43c4b17ef059,64ce5acb97489d65b14ecc7a,64cf4b4fe598e964d2eae650,,,,,,,ctch,resources/DY.BMP,resources/DBN.BMP,Door4,-0.287339687,0.025835792,1,0,0,1.1268,optionLeft,80,15990,7,27,0,27,0,1,,,,,,,,,,,,,,,,,,,,,,,,,,,,,,,,,,,,,,,
,,,,,,,,2023-08-06_08h28.53.818,HF_wild_card,2022.2.4,Linux x86_64,60.05645307,62d6e262beee43c4b17ef059,64ce5acb97489d65b14ecc7a,64cf4b4fe598e964d2eae650,,,,,,,decisionTrl,resources/DY.BMP,resources/DG.BMP,Door3,0.382607937,-0.036707163,1,0,0,1.1638,optionRight,70,16060,7,28,0,28,0,1,,,,,,,,,,,,,,,,,,,,,,,,,,,,,,,,,,,,,,,
,,,,,,,,2023-08-06_08h28.53.818,HF_wild_card,2022.2.4,Linux x86_64,60.05645307,62d6e262beee43c4b17ef059,64ce5acb97489d65b14ecc7a,64cf4b4fe598e964d2eae650,,,,,,,ctch,resources/DBN.BMP,resources/DY.BMP,Door4,0.433537563,-0.055446307,1,0,0,0.9291,optionRight,80,16140,7,29,0,29,0,1,,,,,,,,,,,,,,,,,,,,,,,,,,,,,,,,,,,,,,,
,,,,,,,,2023-08-06_08h28.53.818,HF_wild_card,2022.2.4,Linux x86_64,60.05645307,62d6e262beee43c4b17ef059,64ce5acb97489d65b14ecc7a,64cf4b4fe598e964d2eae650,,,,,,,decisionTrl,resources/DBN.BMP,resources/DR.BMP,Door1,-0.214070638,0.023857832,1,0,0,1.9789,optionLeft,30,16170,7,30,0,30,0,1,,,,,,,,,,,,,,,,,,,,,,,,,,,,,,,,,,,,,,,
,,,,,,,,2023-08-06_08h28.53.818,HF_wild_card,2022.2.4,Linux x86_64,60.05645307,62d6e262beee43c4b17ef059,64ce5acb97489d65b14ecc7a,64cf4b4fe598e964d2eae650,,,,,,,ctch,resources/DY.BMP,resources/DBN.BMP,Door4,-0.343827883,0.06143864,1,0,0,11.3526,optionLeft,80,16250,7,31,0,31,0,1,,,,,,,,,,,,,,,,,,,,,,,,,,,,,,,,,,,,,,,
,,,,,,,,2023-08-06_08h28.53.818,HF_wild_card,2022.2.4,Linux x86_64,60.05645307,62d6e262beee43c4b17ef059,64ce5acb97489d65b14ecc7a,64cf4b4fe598e964d2eae650,,,,,,,ctch,resources/DY.BMP,resources/DBN.BMP,Door4,-0.281719526,-0.000304659,1,0,0,1.0798,optionLeft,60,16310,7,32,0,32,0,1,,,,,,,,,,,,,,,,,,,,,,,,,,,,,,,,,,,,,,,
,,,,,,,,2023-08-06_08h28.53.818,HF_wild_card,2022.2.4,Linux x86_64,60.05645307,62d6e262beee43c4b17ef059,64ce5acb97489d65b14ecc7a,64cf4b4fe598e964d2eae650,,,,,,,ctch,resources/DR.BMP,resources/DG.BMP,Door3,0.41750598,-0.020919959,1,0,0,1.6438,optionRight,70,16380,7,33,0,33,0,1,,,,,,,,,,,,,,,,,,,,,,,,,,,,,,,,,,,,,,,
,,,,,,,,2023-08-06_08h28.53.818,HF_wild_card,2022.2.4,Linux x86_64,60.05645307,62d6e262beee43c4b17ef059,64ce5acb97489d65b14ecc7a,64cf4b4fe598e964d2eae650,,,,,,,decisionTrl,resources/DY.BMP,resources/DG.BMP,Door3,0.380883137,-0.018342654,1,0,0,1.1991,optionRight,70,16450,7,34,0,34,0,1,,,,,,,,,,,,,,,,,,,,,,,,,,,,,,,,,,,,,,,
,,,,,,,,2023-08-06_08h28.53.818,HF_wild_card,2022.2.4,Linux x86_64,60.05645307,62d6e262beee43c4b17ef059,64ce5acb97489d65b14ecc7a,64cf4b4fe598e964d2eae650,,,,,,,decisionTrl,resources/DG.BMP,resources/DY.BMP,Door3,-0.3124487,0.003280958,1,0,0,1.1109,optionLeft,70,16520,7,35,0,35,0,1,,,,,,,,,,,,,,,,,,,,,,,,,,,,,,,,,,,,,,,
