Condition,Low fixed image (Door1),Low risky image (Door2),High fixed image (Door3),High risky image (Door4),NonExtreme Wild Card 1,NonExtreme Wild Card 2,,date,expName,psychopyVersion,OS,frameRate,PROLIFIC_PID,STUDY_ID,SESSION_ID,mouse_2.x,mouse_2.y,mouse_2.leftButton,mouse_2.midButton,mouse_2.rightButton,mouse_2.clicked_name,Trial Type,Left Option Image,Right Option Image,Chosen Door,mouse.x,mouse.y,mouse.leftButton,mouse.midButton,mouse.rightButton,mouse.time,mouse.clicked_name,Feedback,Cumulative Reward,Block,trial.thisRepN,trial.thisTrialN,trial.thisN,trial.thisIndex,trial.ran,blocks.thisRepN,blocks.thisTrialN,blocks.thisN,blocks.thisIndex,blocks.ran,Money conversion,First Outcome Reported,Shown Door (First Outcome),Displayed Image (First Outcome),outcomes.thisRepN,outcomes.thisTrialN,outcomes.thisN,outcomes.thisIndex,outcomes.ran,judgments.thisRepN,judgments.thisTrialN,judgments.thisN,judgments.thisIndex,judgments.ran,freqMouse.x,freqMouse.y,freqMouse.leftButton,freqMouse.midButton,freqMouse.rightButton,freqMouse.clicked_name,FQJ for first outcome,FQJ for second outcome,Shown Door,Displayed Image,trials.thisRepN,trials.thisTrialN,trials.thisN,trials.thisIndex,trials.ran,judgBlock.thisRepN,judgBlock.thisTrialN,judgBlock.thisN,judgBlock.thisIndex,judgBlock.ran
2,resources/DB.BMP,resources/DR.BMP,resources/DG.BMP,resources/DY.BMP,resources/DBN.BMP,resources/DP.BMP,,2023-08-16_08h39.23.593,HF_wild_card,2022.2.4,Win32,58.82352941,5c321ebf6558270001bd79aa,64d2fd46c836a06233681665,64dc7cf7479cdcf15e86de90,,,,,,,,,,,,,,,,,,,,,,,,,,,,,,,,,,,,,,,,,,,,,,,,,,,,,,,,,,,,,,,,
,,,,,,,,2023-08-16_08h39.23.593,HF_wild_card,2022.2.4,Win32,58.82352941,5c321ebf6558270001bd79aa,64d2fd46c836a06233681665,64dc7cf7479cdcf15e86de90,0.017592593,-0.426851852,1,0,0,agree,,,,,,,,,,,,,,,,,,,,,,,,,,,,,,,,,,,,,,,,,,,,,,,,,,,,,,,,,,
,,,,,,,,2023-08-16_08h39.23.593,HF_wild_card,2022.2.4,Win32,58.82352941,5c321ebf6558270001bd79aa,64d2fd46c836a06233681665,64dc7cf7479cdcf15e86de90,,,,,,,,,,,,,,,,,,,,,,,,,,,,,,,,,,,,,,,,,,,,,,,,,,,,,,,,,,,,,,,,
,,,,,,,,2023-08-16_08h39.23.593,HF_wild_card,2022.2.4,Win32,58.82352941,5c321ebf6558270001bd79aa,64d2fd46c836a06233681665,64dc7cf7479cdcf15e86de90,,,,,,,decisionTrl,resources/DP.BMP,resources/DG.BMP,Door3,0.283333333,0.04212963,1,0,0,1.909,optionRight,70,70,1,0,0,0,0,1,,,,,,,,,,,,,,,,,,,,,,,,,,,,,,,,,,,,,,,
,,,,,,,,2023-08-16_08h39.23.593,HF_wild_card,2022.2.4,Win32,58.82352941,5c321ebf6558270001bd79aa,64d2fd46c836a06233681665,64dc7cf7479cdcf15e86de90,,,,,,,sngl,resources/DG.BMP,resources/Empty.png,Door3,-0.226851852,-0.001388889,1,0,0,0.779,optionLeft,70,140,1,1,0,1,0,1,,,,,,,,,,,,,,,,,,,,,,,,,,,,,,,,,,,,,,,
,,,,,,,,2023-08-16_08h39.23.593,HF_wild_card,2022.2.4,Win32,58.82352941,5c321ebf6558270001bd79aa,64d2fd46c836a06233681665,64dc7cf7479cdcf15e86de90,,,,,,,decisionTrl,resources/DY.BMP,resources/DG.BMP,Door3,0.237037037,-0.007407407,1,0,0,1.807,optionRight,70,210,1,2,0,2,0,1,,,,,,,,,,,,,,,,,,,,,,,,,,,,,,,,,,,,,,,
,,,,,,,,2023-08-16_08h39.23.593,HF_wild_card,2022.2.4,Win32,58.82352941,5c321ebf6558270001bd79aa,64d2fd46c836a06233681665,64dc7cf7479cdcf15e86de90,,,,,,,decisionTrl,resources/DY.BMP,resources/DG.BMP,Door4,-0.32037037,-0.013425926,1,0,0,0.916,optionLeft,80,290,1,3,0,3,0,1,,,,,,,,,,,,,,,,,,,,,,,,,,,,,,,,,,,,,,,
,,,,,,,,2023-08-16_08h39.23.593,HF_wild_card,2022.2.4,Win32,58.82352941,5c321ebf6558270001bd79aa,64d2fd46c836a06233681665,64dc7cf7479cdcf15e86de90,,,,,,,sngl,resources/Empty.png,resources/DP.BMP,WildCard_NonEx,0.238888889,0.002777778,1,0,0,1.011,optionRight,55,345,1,4,0,4,0,1,,,,,,,,,,,,,,,,,,,,,,,,,,,,,,,,,,,,,,,
,,,,,,,,2023-08-16_08h39.23.593,HF_wild_card,2022.2.4,Win32,58.82352941,5c321ebf6558270001bd79aa,64d2fd46c836a06233681665,64dc7cf7479cdcf15e86de90,,,,,,,sngl,resources/Empty.png,resources/DR.BMP,Door2,0.257407407,0.006944444,1,0,0,0.914,optionRight,20,365,1,5,0,5,0,1,,,,,,,,,,,,,,,,,,,,,,,,,,,,,,,,,,,,,,,
,,,,,,,,2023-08-16_08h39.23.593,HF_wild_card,2022.2.4,Win32,58.82352941,5c321ebf6558270001bd79aa,64d2fd46c836a06233681665,64dc7cf7479cdcf15e86de90,,,,,,,decisionTrl,resources/DG.BMP,resources/DY.BMP,Door4,0.304166667,0.041203704,1,0,0,0.936,optionRight,80,445,1,6,0,6,0,1,,,,,,,,,,,,,,,,,,,,,,,,,,,,,,,,,,,,,,,
,,,,,,,,2023-08-16_08h39.23.593,HF_wild_card,2022.2.4,Win32,58.82352941,5c321ebf6558270001bd79aa,64d2fd46c836a06233681665,64dc7cf7479cdcf15e86de90,,,,,,,decisionTrl,resources/DG.BMP,resources/DY.BMP,Door4,0.284722222,-0.005092593,1,0,0,0.7,optionRight,60,505,1,7,0,7,0,1,,,,,,,,,,,,,,,,,,,,,,,,,,,,,,,,,,,,,,,
,,,,,,,,2023-08-16_08h39.23.593,HF_wild_card,2022.2.4,Win32,58.82352941,5c321ebf6558270001bd79aa,64d2fd46c836a06233681665,64dc7cf7479cdcf15e86de90,,,,,,,sngl,resources/Empty.png,resources/DP.BMP,WildCard_NonEx,0.20787037,0.02037037,1,0,0,1.062,optionRight,45,550,1,8,0,8,0,1,,,,,,,,,,,,,,,,,,,,,,,,,,,,,,,,,,,,,,,
,,,,,,,,2023-08-16_08h39.23.593,HF_wild_card,2022.2.4,Win32,58.82352941,5c321ebf6558270001bd79aa,64d2fd46c836a06233681665,64dc7cf7479cdcf15e86de90,,,,,,,decisionTrl,resources/DR.BMP,resources/DB.BMP,Door2,-0.405092593,-0.000925926,1,0,0,0.963,optionLeft,40,590,1,9,0,9,0,1,,,,,,,,,,,,,,,,,,,,,,,,,,,,,,,,,,,,,,,
,,,,,,,,2023-08-16_08h39.23.593,HF_wild_card,2022.2.4,Win32,58.82352941,5c321ebf6558270001bd79aa,64d2fd46c836a06233681665,64dc7cf7479cdcf15e86de90,,,,,,,decisionTrl,resources/DR.BMP,resources/DP.BMP,WildCard_NonEx,0.375462963,0.021759259,1,0,0,1.563,optionRight,55,645,1,10,0,10,0,1,,,,,,,,,,,,,,,,,,,,,,,,,,,,,,,,,,,,,,,
,,,,,,,,2023-08-16_08h39.23.593,HF_wild_card,2022.2.4,Win32,58.82352941,5c321ebf6558270001bd79aa,64d2fd46c836a06233681665,64dc7cf7479cdcf15e86de90,,,,,,,decisionTrl,resources/DP.BMP,resources/DY.BMP,Door4,0.315277778,0.041666667,1,0,0,0.747,optionRight,80,725,1,11,0,11,0,1,,,,,,,,,,,,,,,,,,,,,,,,,,,,,,,,,,,,,,,
,,,,,,,,2023-08-16_08h39.23.593,HF_wild_card,2022.2.4,Win32,58.82352941,5c321ebf6558270001bd79aa,64d2fd46c836a06233681665,64dc7cf7479cdcf15e86de90,,,,,,,decisionTrl,resources/DG.BMP,resources/DP.BMP,WildCard_NonEx,0.283796296,0.003703704,1,0,0,1.348,optionRight,55,780,1,12,0,12,0,1,,,,,,,,,,,,,,,,,,,,,,,,,,,,,,,,,,,,,,,
,,,,,,,,2023-08-16_08h39.23.593,HF_wild_card,2022.2.4,Win32,58.82352941,5c321ebf6558270001bd79aa,64d2fd46c836a06233681665,64dc7cf7479cdcf15e86de90,,,,,,,sngl,resources/Empty.png,resources/DG.BMP,Door3,0.238888889,0.003703704,1,0,0,0.681,optionRight,70,850,1,13,0,13,0,1,,,,,,,,,,,,,,,,,,,,,,,,,,,,,,,,,,,,,,,
,,,,,,,,2023-08-16_08h39.23.593,HF_wild_card,2022.2.4,Win32,58.82352941,5c321ebf6558270001bd79aa,64d2fd46c836a06233681665,64dc7cf7479cdcf15e86de90,,,,,,,decisionTrl,resources/DB.BMP,resources/DR.BMP,Door1,-0.293055556,-0.002314815,1,0,0,1.581,optionLeft,30,880,1,14,0,14,0,1,,,,,,,,,,,,,,,,,,,,,,,,,,,,,,,,,,,,,,,
,,,,,,,,2023-08-16_08h39.23.593,HF_wild_card,2022.2.4,Win32,58.82352941,5c321ebf6558270001bd79aa,64d2fd46c836a06233681665,64dc7cf7479cdcf15e86de90,,,,,,,ctch,resources/DG.BMP,resources/DR.BMP,Door3,-0.316203704,0.047685185,1,0,0,1.064,optionLeft,70,950,1,15,0,15,0,1,,,,,,,,,,,,,,,,,,,,,,,,,,,,,,,,,,,,,,,
,,,,,,,,2023-08-16_08h39.23.593,HF_wild_card,2022.2.4,Win32,58.82352941,5c321ebf6558270001bd79aa,64d2fd46c836a06233681665,64dc7cf7479cdcf15e86de90,,,,,,,decisionTrl,resources/DR.BMP,resources/DB.BMP,Door2,-0.48287037,0.111111111,1,0,0,1.58,optionLeft,40,990,1,16,0,16,0,1,,,,,,,,,,,,,,,,,,,,,,,,,,,,,,,,,,,,,,,
,,,,,,,,2023-08-16_08h39.23.593,HF_wild_card,2022.2.4,Win32,58.82352941,5c321ebf6558270001bd79aa,64d2fd46c836a06233681665,64dc7cf7479cdcf15e86de90,,,,,,,sngl,resources/DB.BMP,resources/Empty.png,Door1,-0.231481481,0.064814815,1,0,0,0.731,optionLeft,30,1020,1,17,0,17,0,1,,,,,,,,,,,,,,,,,,,,,,,,,,,,,,,,,,,,,,,
,,,,,,,,2023-08-16_08h39.23.593,HF_wild_card,2022.2.4,Win32,58.82352941,5c321ebf6558270001bd79aa,64d2fd46c836a06233681665,64dc7cf7479cdcf15e86de90,,,,,,,ctch,resources/DR.BMP,resources/DG.BMP,Door3,0.266203704,0.03287037,1,0,0,1.047,optionRight,70,1090,1,18,0,18,0,1,,,,,,,,,,,,,,,,,,,,,,,,,,,,,,,,,,,,,,,
,,,,,,,,2023-08-16_08h39.23.593,HF_wild_card,2022.2.4,Win32,58.82352941,5c321ebf6558270001bd79aa,64d2fd46c836a06233681665,64dc7cf7479cdcf15e86de90,,,,,,,decisionTrl,resources/DB.BMP,resources/DR.BMP,Door2,0.215740741,-0.003240741,1,0,0,1.048,optionRight,40,1130,1,19,0,19,0,1,,,,,,,,,,,,,,,,,,,,,,,,,,,,,,,,,,,,,,,
,,,,,,,,2023-08-16_08h39.23.593,HF_wild_card,2022.2.4,Win32,58.82352941,5c321ebf6558270001bd79aa,64d2fd46c836a06233681665,64dc7cf7479cdcf15e86de90,,,,,,,ctch,resources/DB.BMP,resources/DY.BMP,Door4,0.29537037,0.069907407,1,0,0,0.749,optionRight,60,1190,1,20,0,20,0,1,,,,,,,,,,,,,,,,,,,,,,,,,,,,,,,,,,,,,,,
,,,,,,,,2023-08-16_08h39.23.593,HF_wild_card,2022.2.4,Win32,58.82352941,5c321ebf6558270001bd79aa,64d2fd46c836a06233681665,64dc7cf7479cdcf15e86de90,,,,,,,decisionTrl,resources/DB.BMP,resources/DR.BMP,Door2,0.231018519,0.0125,1,0,0,1.079,optionRight,40,1230,1,21,0,21,0,1,,,,,,,,,,,,,,,,,,,,,,,,,,,,,,,,,,,,,,,
,,,,,,,,2023-08-16_08h39.23.593,HF_wild_card,2022.2.4,Win32,58.82352941,5c321ebf6558270001bd79aa,64d2fd46c836a06233681665,64dc7cf7479cdcf15e86de90,,,,,,,decisionTrl,resources/DB.BMP,resources/DP.BMP,WildCard_NonEx,0.272685185,0.008796296,1,0,0,0.895,optionRight,45,1275,1,22,0,22,0,1,,,,,,,,,,,,,,,,,,,,,,,,,,,,,,,,,,,,,,,
,,,,,,,,2023-08-16_08h39.23.593,HF_wild_card,2022.2.4,Win32,58.82352941,5c321ebf6558270001bd79aa,64d2fd46c836a06233681665,64dc7cf7479cdcf15e86de90,,,,,,,decisionTrl,resources/DR.BMP,resources/DB.BMP,Door1,0.244907407,0.026388889,1,0,0,1.246,optionRight,30,1305,1,23,0,23,0,1,,,,,,,,,,,,,,,,,,,,,,,,,,,,,,,,,,,,,,,
,,,,,,,,2023-08-16_08h39.23.593,HF_wild_card,2022.2.4,Win32,58.82352941,5c321ebf6558270001bd79aa,64d2fd46c836a06233681665,64dc7cf7479cdcf15e86de90,,,,,,,ctch,resources/DB.BMP,resources/DY.BMP,Door4,0.337962963,0.00787037,1,0,0,0.731,optionRight,80,1385,1,24,0,24,0,1,,,,,,,,,,,,,,,,,,,,,,,,,,,,,,,,,,,,,,,
,,,,,,,,2023-08-16_08h39.23.593,HF_wild_card,2022.2.4,Win32,58.82352941,5c321ebf6558270001bd79aa,64d2fd46c836a06233681665,64dc7cf7479cdcf15e86de90,,,,,,,decisionTrl,resources/DG.BMP,resources/DY.BMP,Door4,0.425925926,0.006944444,1,0,0,0.849,optionRight,60,1445,1,25,0,25,0,1,,,,,,,,,,,,,,,,,,,,,,,,,,,,,,,,,,,,,,,
,,,,,,,,2023-08-16_08h39.23.593,HF_wild_card,2022.2.4,Win32,58.82352941,5c321ebf6558270001bd79aa,64d2fd46c836a06233681665,64dc7cf7479cdcf15e86de90,,,,,,,sngl,resources/DP.BMP,resources/Empty.png,WildCard_NonEx,-0.331018519,0.042592593,1,0,0,0.976,optionLeft,55,1500,1,26,0,26,0,1,,,,,,,,,,,,,,,,,,,,,,,,,,,,,,,,,,,,,,,
,,,,,,,,2023-08-16_08h39.23.593,HF_wild_card,2022.2.4,Win32,58.82352941,5c321ebf6558270001bd79aa,64d2fd46c836a06233681665,64dc7cf7479cdcf15e86de90,,,,,,,decisionTrl,resources/DR.BMP,resources/DB.BMP,Door2,-0.270833333,-0.007407407,1,0,0,1.666,optionLeft,20,1520,1,27,0,27,0,1,,,,,,,,,,,,,,,,,,,,,,,,,,,,,,,,,,,,,,,
,,,,,,,,2023-08-16_08h39.23.593,HF_wild_card,2022.2.4,Win32,58.82352941,5c321ebf6558270001bd79aa,64d2fd46c836a06233681665,64dc7cf7479cdcf15e86de90,,,,,,,decisionTrl,resources/DY.BMP,resources/DG.BMP,Door4,-0.30462963,0.033333333,1,0,0,0.898,optionLeft,80,1600,1,28,0,28,0,1,,,,,,,,,,,,,,,,,,,,,,,,,,,,,,,,,,,,,,,
,,,,,,,,2023-08-16_08h39.23.593,HF_wild_card,2022.2.4,Win32,58.82352941,5c321ebf6558270001bd79aa,64d2fd46c836a06233681665,64dc7cf7479cdcf15e86de90,,,,,,,sngl,resources/DR.BMP,resources/Empty.png,Door2,-0.296296296,0.017592593,1,0,0,0.882,optionLeft,40,1640,1,29,0,29,0,1,,,,,,,,,,,,,,,,,,,,,,,,,,,,,,,,,,,,,,,
,,,,,,,,2023-08-16_08h39.23.593,HF_wild_card,2022.2.4,Win32,58.82352941,5c321ebf6558270001bd79aa,64d2fd46c836a06233681665,64dc7cf7479cdcf15e86de90,,,,,,,decisionTrl,resources/DP.BMP,resources/DB.BMP,WildCard_NonEx,-0.293055556,0.012962963,1,0,0,0.96,optionLeft,55,1695,1,30,0,30,0,1,,,,,,,,,,,,,,,,,,,,,,,,,,,,,,,,,,,,,,,
,,,,,,,,2023-08-16_08h39.23.593,HF_wild_card,2022.2.4,Win32,58.82352941,5c321ebf6558270001bd79aa,64d2fd46c836a06233681665,64dc7cf7479cdcf15e86de90,,,,,,,decisionTrl,resources/DP.BMP,resources/DR.BMP,WildCard_NonEx,-0.366666667,-0.000462963,1,0,0,1.614,optionLeft,55,1750,1,31,0,31,0,1,,,,,,,,,,,,,,,,,,,,,,,,,,,,,,,,,,,,,,,
,,,,,,,,2023-08-16_08h39.23.593,HF_wild_card,2022.2.4,Win32,58.82352941,5c321ebf6558270001bd79aa,64d2fd46c836a06233681665,64dc7cf7479cdcf15e86de90,,,,,,,sngl,resources/DY.BMP,resources/Empty.png,Door4,-0.340277778,0.037962963,1,0,0,0.782,optionLeft,80,1830,1,32,0,32,0,1,,,,,,,,,,,,,,,,,,,,,,,,,,,,,,,,,,,,,,,
,,,,,,,,2023-08-16_08h39.23.593,HF_wild_card,2022.2.4,Win32,58.82352941,5c321ebf6558270001bd79aa,64d2fd46c836a06233681665,64dc7cf7479cdcf15e86de90,,,,,,,decisionTrl,resources/DY.BMP,resources/DG.BMP,Door4,-0.368518519,0.037037037,1,0,0,1.049,optionLeft,60,1890,1,33,0,33,0,1,,,,,,,,,,,,,,,,,,,,,,,,,,,,,,,,,,,,,,,
,,,,,,,,2023-08-16_08h39.23.593,HF_wild_card,2022.2.4,Win32,58.82352941,5c321ebf6558270001bd79aa,64d2fd46c836a06233681665,64dc7cf7479cdcf15e86de90,,,,,,,ctch,resources/DR.BMP,resources/DG.BMP,Door3,0.492592593,0.010648148,1,0,0,0.743,optionRight,70,1960,1,34,0,34,0,1,,,,,,,,,,,,,,,,,,,,,,,,,,,,,,,,,,,,,,,
,,,,,,,,2023-08-16_08h39.23.593,HF_wild_card,2022.2.4,Win32,58.82352941,5c321ebf6558270001bd79aa,64d2fd46c836a06233681665,64dc7cf7479cdcf15e86de90,,,,,,,ctch,resources/DY.BMP,resources/DB.BMP,Door4,-0.289351852,0,1,0,0,0.692,optionLeft,60,2020,1,35,0,35,0,1,,,,,,,,,,,,,,,,,,,,,,,,,,,,,,,,,,,,,,,
,,,,,,,,2023-08-16_08h39.23.593,HF_wild_card,2022.2.4,Win32,58.82352941,5c321ebf6558270001bd79aa,64d2fd46c836a06233681665,64dc7cf7479cdcf15e86de90,,,,,,,ctch,resources/DG.BMP,resources/DR.BMP,Door2,0.414814815,-0.004166667,1,0,0,0.876,optionRight,20,2040,1,36,0,36,0,1,,,,,,,,,,,,,,,,,,,,,,,,,,,,,,,,,,,,,,,
,,,,,,,,2023-08-16_08h39.23.593,HF_wild_card,2022.2.4,Win32,58.82352941,5c321ebf6558270001bd79aa,64d2fd46c836a06233681665,64dc7cf7479cdcf15e86de90,,,,,,,sngl,resources/Empty.png,resources/DB.BMP,Door1,0.270833333,0.014814815,1,0,0,0.765,optionRight,30,2070,1,37,0,37,0,1,,,,,,,,,,,,,,,,,,,,,,,,,,,,,,,,,,,,,,,
,,,,,,,,2023-08-16_08h39.23.593,HF_wild_card,2022.2.4,Win32,58.82352941,5c321ebf6558270001bd79aa,64d2fd46c836a06233681665,64dc7cf7479cdcf15e86de90,,,,,,,sngl,resources/Empty.png,resources/DY.BMP,Door4,0.398611111,-0.000925926,1,0,0,0.628,optionRight,60,2130,1,38,0,38,0,1,,,,,,,,,,,,,,,,,,,,,,,,,,,,,,,,,,,,,,,
,,,,,,,,2023-08-16_08h39.23.593,HF_wild_card,2022.2.4,Win32,58.82352941,5c321ebf6558270001bd79aa,64d2fd46c836a06233681665,64dc7cf7479cdcf15e86de90,,,,,,,decisionTrl,resources/DY.BMP,resources/DP.BMP,Door4,-0.403703704,0.000462963,1,0,0,0.672,optionLeft,80,2210,1,39,0,39,0,1,,,,,,,,,,,,,,,,,,,,,,,,,,,,,,,,,,,,,,,
,,,,,,,,2023-08-16_08h39.23.593,HF_wild_card,2022.2.4,Win32,58.82352941,5c321ebf6558270001bd79aa,64d2fd46c836a06233681665,64dc7cf7479cdcf15e86de90,,,,,,,ctch,resources/DY.BMP,resources/DB.BMP,Door4,-0.362962963,0.0125,1,0,0,0.771,optionLeft,80,2290,1,40,0,40,0,1,,,,,,,,,,,,,,,,,,,,,,,,,,,,,,,,,,,,,,,
,,,,,,,,2023-08-16_08h39.23.593,HF_wild_card,2022.2.4,Win32,58.82352941,5c321ebf6558270001bd79aa,64d2fd46c836a06233681665,64dc7cf7479cdcf15e86de90,,,,,,,decisionTrl,resources/DB.BMP,resources/DR.BMP,Door2,0.218518519,0.041203704,1,0,0,0.953,optionRight,20,2310,1,41,0,41,0,1,,,,,,,,,,,,,,,,,,,,,,,,,,,,,,,,,,,,,,,
,,,,,,,,2023-08-16_08h39.23.593,HF_wild_card,2022.2.4,Win32,58.82352941,5c321ebf6558270001bd79aa,64d2fd46c836a06233681665,64dc7cf7479cdcf15e86de90,,,,,,,decisionTrl,resources/DG.BMP,resources/DY.BMP,Door4,0.297222222,-0.002314815,1,0,0,0.765,optionRight,80,2390,1,42,0,42,0,1,,,,,,,,,,,,,,,,,,,,,,,,,,,,,,,,,,,,,,,
,,,,,,,,2023-08-16_08h39.23.593,HF_wild_card,2022.2.4,Win32,58.82352941,5c321ebf6558270001bd79aa,64d2fd46c836a06233681665,64dc7cf7479cdcf15e86de90,,,,,,,sngl,resources/DP.BMP,resources/Empty.png,WildCard_NonEx,-0.39212963,0.000925926,1,0,0,0.697,optionLeft,45,2435,1,43,0,43,0,1,,,,,,,,,,,,,,,,,,,,,,,,,,,,,,,,,,,,,,,
,,,,,,,,2023-08-16_08h39.23.593,HF_wild_card,2022.2.4,Win32,58.82352941,5c321ebf6558270001bd79aa,64d2fd46c836a06233681665,64dc7cf7479cdcf15e86de90,,,,,,,,,,,,,,,,,,,,,,,,,,0,0,0,0,1,,,,,,,,,,,,,,,,,,,,,,,,,,,,,,,,,,
,,,,,,,,2023-08-16_08h39.23.593,HF_wild_card,2022.2.4,Win32,58.82352941,5c321ebf6558270001bd79aa,64d2fd46c836a06233681665,64dc7cf7479cdcf15e86de90,,,,,,,decisionTrl,resources/DG.BMP,resources/DY.BMP,Door4,0.404166667,-0.021296296,1,0,0,0.788,optionRight,60,2495,2,0,0,0,0,1,,,,,,,,,,,,,,,,,,,,,,,,,,,,,,,,,,,,,,,
,,,,,,,,2023-08-16_08h39.23.593,HF_wild_card,2022.2.4,Win32,58.82352941,5c321ebf6558270001bd79aa,64d2fd46c836a06233681665,64dc7cf7479cdcf15e86de90,,,,,,,decisionTrl,resources/DR.BMP,resources/DB.BMP,Door1,0.341203704,0.009722222,1,0,0,1.297,optionRight,30,2525,2,1,0,1,0,1,,,,,,,,,,,,,,,,,,,,,,,,,,,,,,,,,,,,,,,
,,,,,,,,2023-08-16_08h39.23.593,HF_wild_card,2022.2.4,Win32,58.82352941,5c321ebf6558270001bd79aa,64d2fd46c836a06233681665,64dc7cf7479cdcf15e86de90,,,,,,,decisionTrl,resources/DY.BMP,resources/DG.BMP,Door4,-0.412037037,0.014351852,1,0,0,0.714,optionLeft,80,2605,2,2,0,2,0,1,,,,,,,,,,,,,,,,,,,,,,,,,,,,,,,,,,,,,,,
,,,,,,,,2023-08-16_08h39.23.593,HF_wild_card,2022.2.4,Win32,58.82352941,5c321ebf6558270001bd79aa,64d2fd46c836a06233681665,64dc7cf7479cdcf15e86de90,,,,,,,sngl,resources/DP.BMP,resources/Empty.png,WildCard_NonEx,-0.301388889,-0.003703704,1,0,0,0.646,optionLeft,55,2660,2,3,0,3,0,1,,,,,,,,,,,,,,,,,,,,,,,,,,,,,,,,,,,,,,,
,,,,,,,,2023-08-16_08h39.23.593,HF_wild_card,2022.2.4,Win32,58.82352941,5c321ebf6558270001bd79aa,64d2fd46c836a06233681665,64dc7cf7479cdcf15e86de90,,,,,,,decisionTrl,resources/DB.BMP,resources/DR.BMP,Door1,-0.341203704,0.01712963,1,0,0,1.166,optionLeft,30,2690,2,4,0,4,0,1,,,,,,,,,,,,,,,,,,,,,,,,,,,,,,,,,,,,,,,
,,,,,,,,2023-08-16_08h39.23.593,HF_wild_card,2022.2.4,Win32,58.82352941,5c321ebf6558270001bd79aa,64d2fd46c836a06233681665,64dc7cf7479cdcf15e86de90,,,,,,,decisionTrl,resources/DB.BMP,resources/DR.BMP,Door1,-0.273611111,0.001851852,1,0,0,0.698,optionLeft,30,2720,2,5,0,5,0,1,,,,,,,,,,,,,,,,,,,,,,,,,,,,,,,,,,,,,,,
,,,,,,,,2023-08-16_08h39.23.593,HF_wild_card,2022.2.4,Win32,58.82352941,5c321ebf6558270001bd79aa,64d2fd46c836a06233681665,64dc7cf7479cdcf15e86de90,,,,,,,ctch,resources/DY.BMP,resources/DB.BMP,Door4,-0.244444444,0.011574074,1,0,0,1.114,optionLeft,60,2780,2,6,0,6,0,1,,,,,,,,,,,,,,,,,,,,,,,,,,,,,,,,,,,,,,,
,,,,,,,,2023-08-16_08h39.23.593,HF_wild_card,2022.2.4,Win32,58.82352941,5c321ebf6558270001bd79aa,64d2fd46c836a06233681665,64dc7cf7479cdcf15e86de90,,,,,,,decisionTrl,resources/DG.BMP,resources/DP.BMP,WildCard_NonEx,0.370833333,0.040740741,1,0,0,0.782,optionRight,55,2835,2,7,0,7,0,1,,,,,,,,,,,,,,,,,,,,,,,,,,,,,,,,,,,,,,,
,,,,,,,,2023-08-16_08h39.23.593,HF_wild_card,2022.2.4,Win32,58.82352941,5c321ebf6558270001bd79aa,64d2fd46c836a06233681665,64dc7cf7479cdcf15e86de90,,,,,,,sngl,resources/Empty.png,resources/DY.BMP,Door4,0.437037037,0.000462963,1,0,0,0.579,optionRight,80,2915,2,8,0,8,0,1,,,,,,,,,,,,,,,,,,,,,,,,,,,,,,,,,,,,,,,
,,,,,,,,2023-08-16_08h39.23.593,HF_wild_card,2022.2.4,Win32,58.82352941,5c321ebf6558270001bd79aa,64d2fd46c836a06233681665,64dc7cf7479cdcf15e86de90,,,,,,,decisionTrl,resources/DB.BMP,resources/DR.BMP,Door2,0.359722222,0.038425926,1,0,0,1.097,optionRight,40,2955,2,9,0,9,0,1,,,,,,,,,,,,,,,,,,,,,,,,,,,,,,,,,,,,,,,
,,,,,,,,2023-08-16_08h39.23.593,HF_wild_card,2022.2.4,Win32,58.82352941,5c321ebf6558270001bd79aa,64d2fd46c836a06233681665,64dc7cf7479cdcf15e86de90,,,,,,,sngl,resources/Empty.png,resources/DP.BMP,WildCard_NonEx,0.264814815,0.00787037,1,0,0,0.614,optionRight,55,3010,2,10,0,10,0,1,,,,,,,,,,,,,,,,,,,,,,,,,,,,,,,,,,,,,,,
,,,,,,,,2023-08-16_08h39.23.593,HF_wild_card,2022.2.4,Win32,58.82352941,5c321ebf6558270001bd79aa,64d2fd46c836a06233681665,64dc7cf7479cdcf15e86de90,,,,,,,sngl,resources/DP.BMP,resources/Empty.png,WildCard_NonEx,-0.273611111,-0.006944444,1,0,0,0.731,optionLeft,45,3055,2,11,0,11,0,1,,,,,,,,,,,,,,,,,,,,,,,,,,,,,,,,,,,,,,,
,,,,,,,,2023-08-16_08h39.23.593,HF_wild_card,2022.2.4,Win32,58.82352941,5c321ebf6558270001bd79aa,64d2fd46c836a06233681665,64dc7cf7479cdcf15e86de90,,,,,,,ctch,resources/DB.BMP,resources/DY.BMP,Door4,0.27962963,0.015277778,1,0,0,0.63,optionRight,80,3135,2,12,0,12,0,1,,,,,,,,,,,,,,,,,,,,,,,,,,,,,,,,,,,,,,,
,,,,,,,,2023-08-16_08h39.23.593,HF_wild_card,2022.2.4,Win32,58.82352941,5c321ebf6558270001bd79aa,64d2fd46c836a06233681665,64dc7cf7479cdcf15e86de90,,,,,,,ctch,resources/DY.BMP,resources/DB.BMP,Door4,-0.213888889,0.002777778,1,0,0,0.615,optionLeft,60,3195,2,13,0,13,0,1,,,,,,,,,,,,,,,,,,,,,,,,,,,,,,,,,,,,,,,
,,,,,,,,2023-08-16_08h39.23.593,HF_wild_card,2022.2.4,Win32,58.82352941,5c321ebf6558270001bd79aa,64d2fd46c836a06233681665,64dc7cf7479cdcf15e86de90,,,,,,,sngl,resources/DB.BMP,resources/Empty.png,Door1,-0.15462963,-0.002777778,1,0,0,0.732,optionLeft,30,3225,2,14,0,14,0,1,,,,,,,,,,,,,,,,,,,,,,,,,,,,,,,,,,,,,,,
,,,,,,,,2023-08-16_08h39.23.593,HF_wild_card,2022.2.4,Win32,58.82352941,5c321ebf6558270001bd79aa,64d2fd46c836a06233681665,64dc7cf7479cdcf15e86de90,,,,,,,sngl,resources/DG.BMP,resources/Empty.png,Door3,-0.178240741,0.040277778,1,0,0,0.599,optionLeft,70,3295,2,15,0,15,0,1,,,,,,,,,,,,,,,,,,,,,,,,,,,,,,,,,,,,,,,
,,,,,,,,2023-08-16_08h39.23.593,HF_wild_card,2022.2.4,Win32,58.82352941,5c321ebf6558270001bd79aa,64d2fd46c836a06233681665,64dc7cf7479cdcf15e86de90,,,,,,,decisionTrl,resources/DY.BMP,resources/DG.BMP,Door3,0.249074074,0.005555556,1,0,0,0.549,optionRight,70,3365,2,16,0,16,0,1,,,,,,,,,,,,,,,,,,,,,,,,,,,,,,,,,,,,,,,
,,,,,,,,2023-08-16_08h39.23.593,HF_wild_card,2022.2.4,Win32,58.82352941,5c321ebf6558270001bd79aa,64d2fd46c836a06233681665,64dc7cf7479cdcf15e86de90,,,,,,,decisionTrl,resources/DR.BMP,resources/DB.BMP,Door2,-0.233796296,0.013425926,1,0,0,1.014,optionLeft,20,3385,2,17,0,17,0,1,,,,,,,,,,,,,,,,,,,,,,,,,,,,,,,,,,,,,,,
,,,,,,,,2023-08-16_08h39.23.593,HF_wild_card,2022.2.4,Win32,58.82352941,5c321ebf6558270001bd79aa,64d2fd46c836a06233681665,64dc7cf7479cdcf15e86de90,,,,,,,sngl,resources/DR.BMP,resources/Empty.png,Door2,-0.352777778,0.099074074,1,0,0,0.647,optionLeft,20,3405,2,18,0,18,0,1,,,,,,,,,,,,,,,,,,,,,,,,,,,,,,,,,,,,,,,
,,,,,,,,2023-08-16_08h39.23.593,HF_wild_card,2022.2.4,Win32,58.82352941,5c321ebf6558270001bd79aa,64d2fd46c836a06233681665,64dc7cf7479cdcf15e86de90,,,,,,,ctch,resources/DR.BMP,resources/DG.BMP,Door3,0.331944444,0.047222222,1,0,0,1.633,optionRight,70,3475,2,19,0,19,0,1,,,,,,,,,,,,,,,,,,,,,,,,,,,,,,,,,,,,,,,
,,,,,,,,2023-08-16_08h39.23.593,HF_wild_card,2022.2.4,Win32,58.82352941,5c321ebf6558270001bd79aa,64d2fd46c836a06233681665,64dc7cf7479cdcf15e86de90,,,,,,,ctch,resources/DG.BMP,resources/DR.BMP,Door3,-0.477314815,0.022685185,1,0,0,0.731,optionLeft,70,3545,2,20,0,20,0,1,,,,,,,,,,,,,,,,,,,,,,,,,,,,,,,,,,,,,,,
,,,,,,,,2023-08-16_08h39.23.593,HF_wild_card,2022.2.4,Win32,58.82352941,5c321ebf6558270001bd79aa,64d2fd46c836a06233681665,64dc7cf7479cdcf15e86de90,,,,,,,decisionTrl,resources/DR.BMP,resources/DB.BMP,Door2,-0.426388889,0.111111111,1,0,0,0.98,optionLeft,20,3565,2,21,0,21,0,1,,,,,,,,,,,,,,,,,,,,,,,,,,,,,,,,,,,,,,,
,,,,,,,,2023-08-16_08h39.23.593,HF_wild_card,2022.2.4,Win32,58.82352941,5c321ebf6558270001bd79aa,64d2fd46c836a06233681665,64dc7cf7479cdcf15e86de90,,,,,,,sngl,resources/Empty.png,resources/DP.BMP,WildCard_NonEx,0.301851852,0.0125,1,0,0,0.598,optionRight,45,3610,2,22,0,22,0,1,,,,,,,,,,,,,,,,,,,,,,,,,,,,,,,,,,,,,,,
,,,,,,,,2023-08-16_08h39.23.593,HF_wild_card,2022.2.4,Win32,58.82352941,5c321ebf6558270001bd79aa,64d2fd46c836a06233681665,64dc7cf7479cdcf15e86de90,,,,,,,sngl,resources/Empty.png,resources/DG.BMP,Door3,0.355092593,0.01712963,1,0,0,0.632,optionRight,70,3680,2,23,0,23,0,1,,,,,,,,,,,,,,,,,,,,,,,,,,,,,,,,,,,,,,,
,,,,,,,,2023-08-16_08h39.23.593,HF_wild_card,2022.2.4,Win32,58.82352941,5c321ebf6558270001bd79aa,64d2fd46c836a06233681665,64dc7cf7479cdcf15e86de90,,,,,,,decisionTrl,resources/DY.BMP,resources/DG.BMP,Door4,-0.267592593,0.008333333,1,0,0,1.031,optionLeft,60,3740,2,24,0,24,0,1,,,,,,,,,,,,,,,,,,,,,,,,,,,,,,,,,,,,,,,
,,,,,,,,2023-08-16_08h39.23.593,HF_wild_card,2022.2.4,Win32,58.82352941,5c321ebf6558270001bd79aa,64d2fd46c836a06233681665,64dc7cf7479cdcf15e86de90,,,,,,,decisionTrl,resources/DG.BMP,resources/DY.BMP,Door4,0.326388889,0.005092593,1,0,0,0.913,optionRight,80,3820,2,25,0,25,0,1,,,,,,,,,,,,,,,,,,,,,,,,,,,,,,,,,,,,,,,
,,,,,,,,2023-08-16_08h39.23.593,HF_wild_card,2022.2.4,Win32,58.82352941,5c321ebf6558270001bd79aa,64d2fd46c836a06233681665,64dc7cf7479cdcf15e86de90,,,,,,,decisionTrl,resources/DB.BMP,resources/DR.BMP,Door2,0.334722222,-0.002777778,1,0,0,1.066,optionRight,40,3860,2,26,0,26,0,1,,,,,,,,,,,,,,,,,,,,,,,,,,,,,,,,,,,,,,,
,,,,,,,,2023-08-16_08h39.23.593,HF_wild_card,2022.2.4,Win32,58.82352941,5c321ebf6558270001bd79aa,64d2fd46c836a06233681665,64dc7cf7479cdcf15e86de90,,,,,,,decisionTrl,resources/DG.BMP,resources/DY.BMP,Door4,0.344907407,0.014814815,1,0,0,0.965,optionRight,60,3920,2,27,0,27,0,1,,,,,,,,,,,,,,,,,,,,,,,,,,,,,,,,,,,,,,,
,,,,,,,,2023-08-16_08h39.23.593,HF_wild_card,2022.2.4,Win32,58.82352941,5c321ebf6558270001bd79aa,64d2fd46c836a06233681665,64dc7cf7479cdcf15e86de90,,,,,,,decisionTrl,resources/DP.BMP,resources/DR.BMP,WildCard_NonEx,-0.290277778,0.032407407,1,0,0,1.115,optionLeft,45,3965,2,28,0,28,0,1,,,,,,,,,,,,,,,,,,,,,,,,,,,,,,,,,,,,,,,
,,,,,,,,2023-08-16_08h39.23.593,HF_wild_card,2022.2.4,Win32,58.82352941,5c321ebf6558270001bd79aa,64d2fd46c836a06233681665,64dc7cf7479cdcf15e86de90,,,,,,,decisionTrl,resources/DG.BMP,resources/DY.BMP,Door4,0.305555556,0.038425926,1,0,0,0.816,optionRight,60,4025,2,29,0,29,0,1,,,,,,,,,,,,,,,,,,,,,,,,,,,,,,,,,,,,,,,
,,,,,,,,2023-08-16_08h39.23.593,HF_wild_card,2022.2.4,Win32,58.82352941,5c321ebf6558270001bd79aa,64d2fd46c836a06233681665,64dc7cf7479cdcf15e86de90,,,,,,,sngl,resources/Empty.png,resources/DB.BMP,Door1,0.234722222,-0.023611111,1,0,0,0.816,optionRight,30,4055,2,30,0,30,0,1,,,,,,,,,,,,,,,,,,,,,,,,,,,,,,,,,,,,,,,
,,,,,,,,2023-08-16_08h39.23.593,HF_wild_card,2022.2.4,Win32,58.82352941,5c321ebf6558270001bd79aa,64d2fd46c836a06233681665,64dc7cf7479cdcf15e86de90,,,,,,,decisionTrl,resources/DB.BMP,resources/DP.BMP,WildCard_NonEx,0.236574074,0.029166667,1,0,0,0.864,optionRight,55,4110,2,31,0,31,0,1,,,,,,,,,,,,,,,,,,,,,,,,,,,,,,,,,,,,,,,
,,,,,,,,2023-08-16_08h39.23.593,HF_wild_card,2022.2.4,Win32,58.82352941,5c321ebf6558270001bd79aa,64d2fd46c836a06233681665,64dc7cf7479cdcf15e86de90,,,,,,,ctch,resources/DR.BMP,resources/DG.BMP,Door3,0.209722222,0.049537037,1,0,0,0.714,optionRight,70,4180,2,32,0,32,0,1,,,,,,,,,,,,,,,,,,,,,,,,,,,,,,,,,,,,,,,
,,,,,,,,2023-08-16_08h39.23.593,HF_wild_card,2022.2.4,Win32,58.82352941,5c321ebf6558270001bd79aa,64d2fd46c836a06233681665,64dc7cf7479cdcf15e86de90,,,,,,,decisionTrl,resources/DY.BMP,resources/DP.BMP,Door4,-0.275925926,0.0125,1,0,0,0.982,optionLeft,60,4240,2,33,0,33,0,1,,,,,,,,,,,,,,,,,,,,,,,,,,,,,,,,,,,,,,,
,,,,,,,,2023-08-16_08h39.23.593,HF_wild_card,2022.2.4,Win32,58.82352941,5c321ebf6558270001bd79aa,64d2fd46c836a06233681665,64dc7cf7479cdcf15e86de90,,,,,,,sngl,resources/DY.BMP,resources/Empty.png,Door4,-0.250925926,0.015277778,1,0,0,0.582,optionLeft,60,4300,2,34,0,34,0,1,,,,,,,,,,,,,,,,,,,,,,,,,,,,,,,,,,,,,,,
,,,,,,,,2023-08-16_08h39.23.593,HF_wild_card,2022.2.4,Win32,58.82352941,5c321ebf6558270001bd79aa,64d2fd46c836a06233681665,64dc7cf7479cdcf15e86de90,,,,,,,decisionTrl,resources/DP.BMP,resources/DY.BMP,Door4,0.491666667,-0.001851852,1,0,0,0.562,optionRight,80,4380,2,35,0,35,0,1,,,,,,,,,,,,,,,,,,,,,,,,,,,,,,,,,,,,,,,
,,,,,,,,2023-08-16_08h39.23.593,HF_wild_card,2022.2.4,Win32,58.82352941,5c321ebf6558270001bd79aa,64d2fd46c836a06233681665,64dc7cf7479cdcf15e86de90,,,,,,,ctch,resources/DG.BMP,resources/DR.BMP,Door3,-0.201851852,0.040740741,1,0,0,1.015,optionLeft,70,4450,2,36,0,36,0,1,,,,,,,,,,,,,,,,,,,,,,,,,,,,,,,,,,,,,,,
,,,,,,,,2023-08-16_08h39.23.593,HF_wild_card,2022.2.4,Win32,58.82352941,5c321ebf6558270001bd79aa,64d2fd46c836a06233681665,64dc7cf7479cdcf15e86de90,,,,,,,sngl,resources/Empty.png,resources/DR.BMP,Door2,0.262037037,0.002777778,1,0,0,0.532,optionRight,40,4490,2,37,0,37,0,1,,,,,,,,,,,,,,,,,,,,,,,,,,,,,,,,,,,,,,,
,,,,,,,,2023-08-16_08h39.23.593,HF_wild_card,2022.2.4,Win32,58.82352941,5c321ebf6558270001bd79aa,64d2fd46c836a06233681665,64dc7cf7479cdcf15e86de90,,,,,,,decisionTrl,resources/DY.BMP,resources/DG.BMP,Door4,-0.224537037,0.010185185,1,0,0,0.782,optionLeft,80,4570,2,38,0,38,0,1,,,,,,,,,,,,,,,,,,,,,,,,,,,,,,,,,,,,,,,
,,,,,,,,2023-08-16_08h39.23.593,HF_wild_card,2022.2.4,Win32,58.82352941,5c321ebf6558270001bd79aa,64d2fd46c836a06233681665,64dc7cf7479cdcf15e86de90,,,,,,,decisionTrl,resources/DP.BMP,resources/DB.BMP,WildCard_NonEx,-0.210185185,0.020833333,1,0,0,0.831,optionLeft,45,4615,2,39,0,39,0,1,,,,,,,,,,,,,,,,,,,,,,,,,,,,,,,,,,,,,,,
,,,,,,,,2023-08-16_08h39.23.593,HF_wild_card,2022.2.4,Win32,58.82352941,5c321ebf6558270001bd79aa,64d2fd46c836a06233681665,64dc7cf7479cdcf15e86de90,,,,,,,decisionTrl,resources/DR.BMP,resources/DB.BMP,Door2,-0.172222222,0.04537037,1,0,0,1.315,optionLeft,40,4655,2,40,0,40,0,1,,,,,,,,,,,,,,,,,,,,,,,,,,,,,,,,,,,,,,,
,,,,,,,,2023-08-16_08h39.23.593,HF_wild_card,2022.2.4,Win32,58.82352941,5c321ebf6558270001bd79aa,64d2fd46c836a06233681665,64dc7cf7479cdcf15e86de90,,,,,,,decisionTrl,resources/DP.BMP,resources/DG.BMP,WildCard_NonEx,-0.241203704,0.00787037,1,0,0,1.349,optionLeft,45,4700,2,41,0,41,0,1,,,,,,,,,,,,,,,,,,,,,,,,,,,,,,,,,,,,,,,
,,,,,,,,2023-08-16_08h39.23.593,HF_wild_card,2022.2.4,Win32,58.82352941,5c321ebf6558270001bd79aa,64d2fd46c836a06233681665,64dc7cf7479cdcf15e86de90,,,,,,,decisionTrl,resources/DR.BMP,resources/DP.BMP,WildCard_NonEx,0.261574074,0.001388889,1,0,0,1.013,optionRight,45,4745,2,42,0,42,0,1,,,,,,,,,,,,,,,,,,,,,,,,,,,,,,,,,,,,,,,
,,,,,,,,2023-08-16_08h39.23.593,HF_wild_card,2022.2.4,Win32,58.82352941,5c321ebf6558270001bd79aa,64d2fd46c836a06233681665,64dc7cf7479cdcf15e86de90,,,,,,,ctch,resources/DB.BMP,resources/DY.BMP,Door4,0.575925926,0.005092593,1,0,0,0.697,optionRight,60,4805,2,43,0,43,0,1,,,,,,,,,,,,,,,,,,,,,,,,,,,,,,,,,,,,,,,
,,,,,,,,2023-08-16_08h39.23.593,HF_wild_card,2022.2.4,Win32,58.82352941,5c321ebf6558270001bd79aa,64d2fd46c836a06233681665,64dc7cf7479cdcf15e86de90,,,,,,,,,,,,,,,,,,,,,,,,,,1,0,1,0,1,,,,,,,,,,,,,,,,,,,,,,,,,,,,,,,,,,
,,,,,,,,2023-08-16_08h39.23.593,HF_wild_card,2022.2.4,Win32,58.82352941,5c321ebf6558270001bd79aa,64d2fd46c836a06233681665,64dc7cf7479cdcf15e86de90,,,,,,,sngl,resources/DR.BMP,resources/Empty.png,Door2,-0.35,0.017592593,1,0,0,0.976,optionLeft,40,4845,3,0,0,0,0,1,,,,,,,,,,,,,,,,,,,,,,,,,,,,,,,,,,,,,,,
,,,,,,,,2023-08-16_08h39.23.593,HF_wild_card,2022.2.4,Win32,58.82352941,5c321ebf6558270001bd79aa,64d2fd46c836a06233681665,64dc7cf7479cdcf15e86de90,,,,,,,decisionTrl,resources/DB.BMP,resources/DP.BMP,WildCard_NonEx,0.186574074,0.009722222,1,0,0,0.915,optionRight,45,4890,3,1,0,1,0,1,,,,,,,,,,,,,,,,,,,,,,,,,,,,,,,,,,,,,,,
,,,,,,,,2023-08-16_08h39.23.593,HF_wild_card,2022.2.4,Win32,58.82352941,5c321ebf6558270001bd79aa,64d2fd46c836a06233681665,64dc7cf7479cdcf15e86de90,,,,,,,sngl,resources/DP.BMP,resources/Empty.png,WildCard_NonEx,-0.32962963,0,1,0,0,0.648,optionLeft,55,4945,3,2,0,2,0,1,,,,,,,,,,,,,,,,,,,,,,,,,,,,,,,,,,,,,,,
,,,,,,,,2023-08-16_08h39.23.593,HF_wild_card,2022.2.4,Win32,58.82352941,5c321ebf6558270001bd79aa,64d2fd46c836a06233681665,64dc7cf7479cdcf15e86de90,,,,,,,ctch,resources/DR.BMP,resources/DG.BMP,Door3,0.147222222,0.055092593,1,0,0,1.215,optionRight,70,5015,3,3,0,3,0,1,,,,,,,,,,,,,,,,,,,,,,,,,,,,,,,,,,,,,,,
,,,,,,,,2023-08-16_08h39.23.593,HF_wild_card,2022.2.4,Win32,58.82352941,5c321ebf6558270001bd79aa,64d2fd46c836a06233681665,64dc7cf7479cdcf15e86de90,,,,,,,ctch,resources/DR.BMP,resources/DG.BMP,Door3,0.391666667,-0.00462963,1,0,0,0.581,optionRight,70,5085,3,4,0,4,0,1,,,,,,,,,,,,,,,,,,,,,,,,,,,,,,,,,,,,,,,
,,,,,,,,2023-08-16_08h39.23.593,HF_wild_card,2022.2.4,Win32,58.82352941,5c321ebf6558270001bd79aa,64d2fd46c836a06233681665,64dc7cf7479cdcf15e86de90,,,,,,,decisionTrl,resources/DY.BMP,resources/DG.BMP,Door4,-0.293055556,0.032407407,1,0,0,0.88,optionLeft,80,5165,3,5,0,5,0,1,,,,,,,,,,,,,,,,,,,,,,,,,,,,,,,,,,,,,,,
,,,,,,,,2023-08-16_08h39.23.593,HF_wild_card,2022.2.4,Win32,58.82352941,5c321ebf6558270001bd79aa,64d2fd46c836a06233681665,64dc7cf7479cdcf15e86de90,,,,,,,ctch,resources/DG.BMP,resources/DR.BMP,Door3,-0.202777778,0.0125,1,0,0,1.032,optionLeft,70,5235,3,6,0,6,0,1,,,,,,,,,,,,,,,,,,,,,,,,,,,,,,,,,,,,,,,
,,,,,,,,2023-08-16_08h39.23.593,HF_wild_card,2022.2.4,Win32,58.82352941,5c321ebf6558270001bd79aa,64d2fd46c836a06233681665,64dc7cf7479cdcf15e86de90,,,,,,,decisionTrl,resources/DB.BMP,resources/DR.BMP,Door2,0.267592593,-0.012037037,1,0,0,1.815,optionRight,40,5275,3,7,0,7,0,1,,,,,,,,,,,,,,,,,,,,,,,,,,,,,,,,,,,,,,,
,,,,,,,,2023-08-16_08h39.23.593,HF_wild_card,2022.2.4,Win32,58.82352941,5c321ebf6558270001bd79aa,64d2fd46c836a06233681665,64dc7cf7479cdcf15e86de90,,,,,,,decisionTrl,resources/DG.BMP,resources/DY.BMP,Door4,0.243518519,0.002314815,1,0,0,1.231,optionRight,60,5335,3,8,0,8,0,1,,,,,,,,,,,,,,,,,,,,,,,,,,,,,,,,,,,,,,,
,,,,,,,,2023-08-16_08h39.23.593,HF_wild_card,2022.2.4,Win32,58.82352941,5c321ebf6558270001bd79aa,64d2fd46c836a06233681665,64dc7cf7479cdcf15e86de90,,,,,,,decisionTrl,resources/DY.BMP,resources/DG.BMP,Door3,0.251851852,0.007407407,1,0,0,0.898,optionRight,70,5405,3,9,0,9,0,1,,,,,,,,,,,,,,,,,,,,,,,,,,,,,,,,,,,,,,,
,,,,,,,,2023-08-16_08h39.23.593,HF_wild_card,2022.2.4,Win32,58.82352941,5c321ebf6558270001bd79aa,64d2fd46c836a06233681665,64dc7cf7479cdcf15e86de90,,,,,,,decisionTrl,resources/DR.BMP,resources/DB.BMP,Door1,0.282407407,-0.010648148,1,0,0,1.117,optionRight,30,5435,3,10,0,10,0,1,,,,,,,,,,,,,,,,,,,,,,,,,,,,,,,,,,,,,,,
,,,,,,,,2023-08-16_08h39.23.593,HF_wild_card,2022.2.4,Win32,58.82352941,5c321ebf6558270001bd79aa,64d2fd46c836a06233681665,64dc7cf7479cdcf15e86de90,,,,,,,decisionTrl,resources/DB.BMP,resources/DR.BMP,Door2,0.224537037,0.0125,1,0,0,0.748,optionRight,40,5475,3,11,0,11,0,1,,,,,,,,,,,,,,,,,,,,,,,,,,,,,,,,,,,,,,,
,,,,,,,,2023-08-16_08h39.23.593,HF_wild_card,2022.2.4,Win32,58.82352941,5c321ebf6558270001bd79aa,64d2fd46c836a06233681665,64dc7cf7479cdcf15e86de90,,,,,,,decisionTrl,resources/DG.BMP,resources/DY.BMP,Door3,-0.412962963,0.018055556,1,0,0,1.114,optionLeft,70,5545,3,12,0,12,0,1,,,,,,,,,,,,,,,,,,,,,,,,,,,,,,,,,,,,,,,
,,,,,,,,2023-08-16_08h39.23.593,HF_wild_card,2022.2.4,Win32,58.82352941,5c321ebf6558270001bd79aa,64d2fd46c836a06233681665,64dc7cf7479cdcf15e86de90,,,,,,,sngl,resources/Empty.png,resources/DB.BMP,Door1,0.356018519,-0.011111111,1,0,0,1.731,optionRight,30,5575,3,13,0,13,0,1,,,,,,,,,,,,,,,,,,,,,,,,,,,,,,,,,,,,,,,
,,,,,,,,2023-08-16_08h39.23.593,HF_wild_card,2022.2.4,Win32,58.82352941,5c321ebf6558270001bd79aa,64d2fd46c836a06233681665,64dc7cf7479cdcf15e86de90,,,,,,,decisionTrl,resources/DR.BMP,resources/DB.BMP,Door2,-0.311111111,-0.001388889,1,0,0,1.898,optionLeft,20,5595,3,14,0,14,0,1,,,,,,,,,,,,,,,,,,,,,,,,,,,,,,,,,,,,,,,
,,,,,,,,2023-08-16_08h39.23.593,HF_wild_card,2022.2.4,Win32,58.82352941,5c321ebf6558270001bd79aa,64d2fd46c836a06233681665,64dc7cf7479cdcf15e86de90,,,,,,,ctch,resources/DB.BMP,resources/DY.BMP,Door4,0.300925926,0.094444444,1,0,0,0.681,optionRight,60,5655,3,15,0,15,0,1,,,,,,,,,,,,,,,,,,,,,,,,,,,,,,,,,,,,,,,
,,,,,,,,2023-08-16_08h39.23.593,HF_wild_card,2022.2.4,Win32,58.82352941,5c321ebf6558270001bd79aa,64d2fd46c836a06233681665,64dc7cf7479cdcf15e86de90,,,,,,,decisionTrl,resources/DR.BMP,resources/DP.BMP,WildCard_NonEx,0.272685185,0.060185185,1,0,0,1.382,optionRight,55,5710,3,16,0,16,0,1,,,,,,,,,,,,,,,,,,,,,,,,,,,,,,,,,,,,,,,
,,,,,,,,2023-08-16_08h39.23.593,HF_wild_card,2022.2.4,Win32,58.82352941,5c321ebf6558270001bd79aa,64d2fd46c836a06233681665,64dc7cf7479cdcf15e86de90,,,,,,,ctch,resources/DG.BMP,resources/DR.BMP,Door3,-0.217592593,0.072685185,1,0,0,2.481,optionLeft,70,5780,3,17,0,17,0,1,,,,,,,,,,,,,,,,,,,,,,,,,,,,,,,,,,,,,,,
,,,,,,,,2023-08-16_08h39.23.593,HF_wild_card,2022.2.4,Win32,58.82352941,5c321ebf6558270001bd79aa,64d2fd46c836a06233681665,64dc7cf7479cdcf15e86de90,,,,,,,sngl,resources/Empty.png,resources/DP.BMP,WildCard_NonEx,0.372685185,-0.001851852,1,0,0,0.599,optionRight,55,5835,3,18,0,18,0,1,,,,,,,,,,,,,,,,,,,,,,,,,,,,,,,,,,,,,,,
,,,,,,,,2023-08-16_08h39.23.593,HF_wild_card,2022.2.4,Win32,58.82352941,5c321ebf6558270001bd79aa,64d2fd46c836a06233681665,64dc7cf7479cdcf15e86de90,,,,,,,sngl,resources/DB.BMP,resources/Empty.png,Door1,-0.242592593,0.019444444,1,0,0,0.698,optionLeft,30,5865,3,19,0,19,0,1,,,,,,,,,,,,,,,,,,,,,,,,,,,,,,,,,,,,,,,
,,,,,,,,2023-08-16_08h39.23.593,HF_wild_card,2022.2.4,Win32,58.82352941,5c321ebf6558270001bd79aa,64d2fd46c836a06233681665,64dc7cf7479cdcf15e86de90,,,,,,,sngl,resources/DG.BMP,resources/Empty.png,Door3,-0.228240741,0.052314815,1,0,0,0.614,optionLeft,70,5935,3,20,0,20,0,1,,,,,,,,,,,,,,,,,,,,,,,,,,,,,,,,,,,,,,,
,,,,,,,,2023-08-16_08h39.23.593,HF_wild_card,2022.2.4,Win32,58.82352941,5c321ebf6558270001bd79aa,64d2fd46c836a06233681665,64dc7cf7479cdcf15e86de90,,,,,,,ctch,resources/DY.BMP,resources/DB.BMP,Door4,-0.289351852,0.07962963,1,0,0,0.93,optionLeft,60,5995,3,21,0,21,0,1,,,,,,,,,,,,,,,,,,,,,,,,,,,,,,,,,,,,,,,
,,,,,,,,2023-08-16_08h39.23.593,HF_wild_card,2022.2.4,Win32,58.82352941,5c321ebf6558270001bd79aa,64d2fd46c836a06233681665,64dc7cf7479cdcf15e86de90,,,,,,,decisionTrl,resources/DG.BMP,resources/DY.BMP,Door4,0.399537037,0.015277778,1,0,0,0.83,optionRight,60,6055,3,22,0,22,0,1,,,,,,,,,,,,,,,,,,,,,,,,,,,,,,,,,,,,,,,
,,,,,,,,2023-08-16_08h39.23.593,HF_wild_card,2022.2.4,Win32,58.82352941,5c321ebf6558270001bd79aa,64d2fd46c836a06233681665,64dc7cf7479cdcf15e86de90,,,,,,,decisionTrl,resources/DP.BMP,resources/DG.BMP,Door3,0.417592593,-0.005555556,1,0,0,0.582,optionRight,70,6125,3,23,0,23,0,1,,,,,,,,,,,,,,,,,,,,,,,,,,,,,,,,,,,,,,,
,,,,,,,,2023-08-16_08h39.23.593,HF_wild_card,2022.2.4,Win32,58.82352941,5c321ebf6558270001bd79aa,64d2fd46c836a06233681665,64dc7cf7479cdcf15e86de90,,,,,,,decisionTrl,resources/DR.BMP,resources/DB.BMP,Door2,-0.230555556,0,1,0,0,1.265,optionLeft,40,6165,3,24,0,24,0,1,,,,,,,,,,,,,,,,,,,,,,,,,,,,,,,,,,,,,,,
,,,,,,,,2023-08-16_08h39.23.593,HF_wild_card,2022.2.4,Win32,58.82352941,5c321ebf6558270001bd79aa,64d2fd46c836a06233681665,64dc7cf7479cdcf15e86de90,,,,,,,sngl,resources/DP.BMP,resources/Empty.png,WildCard_NonEx,-0.247685185,0.027777778,1,0,0,0.631,optionLeft,45,6210,3,25,0,25,0,1,,,,,,,,,,,,,,,,,,,,,,,,,,,,,,,,,,,,,,,
,,,,,,,,2023-08-16_08h39.23.593,HF_wild_card,2022.2.4,Win32,58.82352941,5c321ebf6558270001bd79aa,64d2fd46c836a06233681665,64dc7cf7479cdcf15e86de90,,,,,,,decisionTrl,resources/DY.BMP,resources/DG.BMP,Door3,0.165740741,0.005555556,1,0,0,0.764,optionRight,70,6280,3,26,0,26,0,1,,,,,,,,,,,,,,,,,,,,,,,,,,,,,,,,,,,,,,,
,,,,,,,,2023-08-16_08h39.23.593,HF_wild_card,2022.2.4,Win32,58.82352941,5c321ebf6558270001bd79aa,64d2fd46c836a06233681665,64dc7cf7479cdcf15e86de90,,,,,,,decisionTrl,resources/DG.BMP,resources/DP.BMP,Door3,-0.223148148,-0.002314815,1,0,0,0.632,optionLeft,70,6350,3,27,0,27,0,1,,,,,,,,,,,,,,,,,,,,,,,,,,,,,,,,,,,,,,,
,,,,,,,,2023-08-16_08h39.23.593,HF_wild_card,2022.2.4,Win32,58.82352941,5c321ebf6558270001bd79aa,64d2fd46c836a06233681665,64dc7cf7479cdcf15e86de90,,,,,,,decisionTrl,resources/DG.BMP,resources/DY.BMP,Door3,-0.14537037,-0.009722222,1,0,0,0.831,optionLeft,70,6420,3,28,0,28,0,1,,,,,,,,,,,,,,,,,,,,,,,,,,,,,,,,,,,,,,,
,,,,,,,,2023-08-16_08h39.23.593,HF_wild_card,2022.2.4,Win32,58.82352941,5c321ebf6558270001bd79aa,64d2fd46c836a06233681665,64dc7cf7479cdcf15e86de90,,,,,,,sngl,resources/Empty.png,resources/DR.BMP,Door2,0.53287037,0.001851852,1,0,0,0.598,optionRight,20,6440,3,29,0,29,0,1,,,,,,,,,,,,,,,,,,,,,,,,,,,,,,,,,,,,,,,
,,,,,,,,2023-08-16_08h39.23.593,HF_wild_card,2022.2.4,Win32,58.82352941,5c321ebf6558270001bd79aa,64d2fd46c836a06233681665,64dc7cf7479cdcf15e86de90,,,,,,,ctch,resources/DY.BMP,resources/DB.BMP,Door4,-0.255555556,0.033796296,1,0,0,0.597,optionLeft,60,6500,3,30,0,30,0,1,,,,,,,,,,,,,,,,,,,,,,,,,,,,,,,,,,,,,,,
,,,,,,,,2023-08-16_08h39.23.593,HF_wild_card,2022.2.4,Win32,58.82352941,5c321ebf6558270001bd79aa,64d2fd46c836a06233681665,64dc7cf7479cdcf15e86de90,,,,,,,decisionTrl,resources/DP.BMP,resources/DB.BMP,WildCard_NonEx,-0.134722222,0.018981481,1,0,0,1.064,optionLeft,55,6555,3,31,0,31,0,1,,,,,,,,,,,,,,,,,,,,,,,,,,,,,,,,,,,,,,,
,,,,,,,,2023-08-16_08h39.23.593,HF_wild_card,2022.2.4,Win32,58.82352941,5c321ebf6558270001bd79aa,64d2fd46c836a06233681665,64dc7cf7479cdcf15e86de90,,,,,,,decisionTrl,resources/DB.BMP,resources/DR.BMP,Door1,-0.266203704,0.043055556,1,0,0,1.131,optionLeft,30,6585,3,32,0,32,0,1,,,,,,,,,,,,,,,,,,,,,,,,,,,,,,,,,,,,,,,
,,,,,,,,2023-08-16_08h39.23.593,HF_wild_card,2022.2.4,Win32,58.82352941,5c321ebf6558270001bd79aa,64d2fd46c836a06233681665,64dc7cf7479cdcf15e86de90,,,,,,,decisionTrl,resources/DR.BMP,resources/DB.BMP,Door2,-0.293055556,0.066666667,1,0,0,0.633,optionLeft,40,6625,3,33,0,33,0,1,,,,,,,,,,,,,,,,,,,,,,,,,,,,,,,,,,,,,,,
,,,,,,,,2023-08-16_08h39.23.593,HF_wild_card,2022.2.4,Win32,58.82352941,5c321ebf6558270001bd79aa,64d2fd46c836a06233681665,64dc7cf7479cdcf15e86de90,,,,,,,decisionTrl,resources/DP.BMP,resources/DR.BMP,WildCard_NonEx,-0.331018519,0.079166667,1,0,0,0.88,optionLeft,55,6680,3,34,0,34,0,1,,,,,,,,,,,,,,,,,,,,,,,,,,,,,,,,,,,,,,,
,,,,,,,,2023-08-16_08h39.23.593,HF_wild_card,2022.2.4,Win32,58.82352941,5c321ebf6558270001bd79aa,64d2fd46c836a06233681665,64dc7cf7479cdcf15e86de90,,,,,,,decisionTrl,resources/DY.BMP,resources/DG.BMP,Door4,-0.288888889,0.055555556,1,0,0,1.879,optionLeft,60,6740,3,35,0,35,0,1,,,,,,,,,,,,,,,,,,,,,,,,,,,,,,,,,,,,,,,
,,,,,,,,2023-08-16_08h39.23.593,HF_wild_card,2022.2.4,Win32,58.82352941,5c321ebf6558270001bd79aa,64d2fd46c836a06233681665,64dc7cf7479cdcf15e86de90,,,,,,,decisionTrl,resources/DP.BMP,resources/DY.BMP,Door4,0.278240741,0.018981481,1,0,0,0.698,optionRight,80,6820,3,36,0,36,0,1,,,,,,,,,,,,,,,,,,,,,,,,,,,,,,,,,,,,,,,
,,,,,,,,2023-08-16_08h39.23.593,HF_wild_card,2022.2.4,Win32,58.82352941,5c321ebf6558270001bd79aa,64d2fd46c836a06233681665,64dc7cf7479cdcf15e86de90,,,,,,,decisionTrl,resources/DY.BMP,resources/DP.BMP,Door4,-0.275925926,0.049074074,1,0,0,0.632,optionLeft,60,6880,3,37,0,37,0,1,,,,,,,,,,,,,,,,,,,,,,,,,,,,,,,,,,,,,,,
,,,,,,,,2023-08-16_08h39.23.593,HF_wild_card,2022.2.4,Win32,58.82352941,5c321ebf6558270001bd79aa,64d2fd46c836a06233681665,64dc7cf7479cdcf15e86de90,,,,,,,sngl,resources/Empty.png,resources/DP.BMP,WildCard_NonEx,0.388425926,0.04537037,1,0,0,0.616,optionRight,45,6925,3,38,0,38,0,1,,,,,,,,,,,,,,,,,,,,,,,,,,,,,,,,,,,,,,,
,,,,,,,,2023-08-16_08h39.23.593,HF_wild_card,2022.2.4,Win32,58.82352941,5c321ebf6558270001bd79aa,64d2fd46c836a06233681665,64dc7cf7479cdcf15e86de90,,,,,,,decisionTrl,resources/DB.BMP,resources/DR.BMP,Door2,0.231944444,-0.021759259,1,0,0,0.965,optionRight,40,6965,3,39,0,39,0,1,,,,,,,,,,,,,,,,,,,,,,,,,,,,,,,,,,,,,,,
,,,,,,,,2023-08-16_08h39.23.593,HF_wild_card,2022.2.4,Win32,58.82352941,5c321ebf6558270001bd79aa,64d2fd46c836a06233681665,64dc7cf7479cdcf15e86de90,,,,,,,sngl,resources/Empty.png,resources/DY.BMP,Door4,0.243518519,0.040277778,1,0,0,0.614,optionRight,60,7025,3,40,0,40,0,1,,,,,,,,,,,,,,,,,,,,,,,,,,,,,,,,,,,,,,,
,,,,,,,,2023-08-16_08h39.23.593,HF_wild_card,2022.2.4,Win32,58.82352941,5c321ebf6558270001bd79aa,64d2fd46c836a06233681665,64dc7cf7479cdcf15e86de90,,,,,,,sngl,resources/Empty.png,resources/DG.BMP,Door3,0.275462963,0.034722222,1,0,0,0.647,optionRight,70,7095,3,41,0,41,0,1,,,,,,,,,,,,,,,,,,,,,,,,,,,,,,,,,,,,,,,
,,,,,,,,2023-08-16_08h39.23.593,HF_wild_card,2022.2.4,Win32,58.82352941,5c321ebf6558270001bd79aa,64d2fd46c836a06233681665,64dc7cf7479cdcf15e86de90,,,,,,,sngl,resources/DY.BMP,resources/Empty.png,Door4,-0.286111111,0.001851852,1,0,0,0.547,optionLeft,80,7175,3,42,0,42,0,1,,,,,,,,,,,,,,,,,,,,,,,,,,,,,,,,,,,,,,,
,,,,,,,,2023-08-16_08h39.23.593,HF_wild_card,2022.2.4,Win32,58.82352941,5c321ebf6558270001bd79aa,64d2fd46c836a06233681665,64dc7cf7479cdcf15e86de90,,,,,,,ctch,resources/DB.BMP,resources/DY.BMP,Door4,0.300925926,0.005555556,1,0,0,0.548,optionRight,60,7235,3,43,0,43,0,1,,,,,,,,,,,,,,,,,,,,,,,,,,,,,,,,,,,,,,,
,,,,,,,,2023-08-16_08h39.23.593,HF_wild_card,2022.2.4,Win32,58.82352941,5c321ebf6558270001bd79aa,64d2fd46c836a06233681665,64dc7cf7479cdcf15e86de90,,,,,,,,,,,,,,,,,,,,,,,,,,2,0,2,0,1,,,,,,,,,,,,,,,,,,,,,,,,,,,,,,,,,,
,,,,,,,,2023-08-16_08h39.23.593,HF_wild_card,2022.2.4,Win32,58.82352941,5c321ebf6558270001bd79aa,64d2fd46c836a06233681665,64dc7cf7479cdcf15e86de90,,,,,,,decisionTrl,resources/DR.BMP,resources/DB.BMP,Door2,-0.468055556,0.002314815,1,0,0,1.485,optionLeft,20,7255,4,0,0,0,0,1,,,,,,,,,,,,,,,,,,,,,,,,,,,,,,,,,,,,,,,
,,,,,,,,2023-08-16_08h39.23.593,HF_wild_card,2022.2.4,Win32,58.82352941,5c321ebf6558270001bd79aa,64d2fd46c836a06233681665,64dc7cf7479cdcf15e86de90,,,,,,,ctch,resources/DB.BMP,resources/DY.BMP,Door4,0.223611111,-0.008796296,1,0,0,0.798,optionRight,60,7315,4,1,0,1,0,1,,,,,,,,,,,,,,,,,,,,,,,,,,,,,,,,,,,,,,,
,,,,,,,,2023-08-16_08h39.23.593,HF_wild_card,2022.2.4,Win32,58.82352941,5c321ebf6558270001bd79aa,64d2fd46c836a06233681665,64dc7cf7479cdcf15e86de90,,,,,,,decisionTrl,resources/DY.BMP,resources/DG.BMP,Door3,0.296296296,0.018981481,1,0,0,1.094,optionRight,70,7385,4,2,0,2,0,1,,,,,,,,,,,,,,,,,,,,,,,,,,,,,,,,,,,,,,,
,,,,,,,,2023-08-16_08h39.23.593,HF_wild_card,2022.2.4,Win32,58.82352941,5c321ebf6558270001bd79aa,64d2fd46c836a06233681665,64dc7cf7479cdcf15e86de90,,,,,,,ctch,resources/DB.BMP,resources/DY.BMP,Door4,0.369907407,0.002777778,1,0,0,0.628,optionRight,80,7465,4,3,0,3,0,1,,,,,,,,,,,,,,,,,,,,,,,,,,,,,,,,,,,,,,,
,,,,,,,,2023-08-16_08h39.23.593,HF_wild_card,2022.2.4,Win32,58.82352941,5c321ebf6558270001bd79aa,64d2fd46c836a06233681665,64dc7cf7479cdcf15e86de90,,,,,,,sngl,resources/DB.BMP,resources/Empty.png,Door1,-0.161111111,0.014351852,1,0,0,0.688,optionLeft,30,7495,4,4,0,4,0,1,,,,,,,,,,,,,,,,,,,,,,,,,,,,,,,,,,,,,,,
,,,,,,,,2023-08-16_08h39.23.593,HF_wild_card,2022.2.4,Win32,58.82352941,5c321ebf6558270001bd79aa,64d2fd46c836a06233681665,64dc7cf7479cdcf15e86de90,,,,,,,decisionTrl,resources/DG.BMP,resources/DY.BMP,Door4,0.172685185,0.008333333,1,0,0,0.855,optionRight,80,7575,4,5,0,5,0,1,,,,,,,,,,,,,,,,,,,,,,,,,,,,,,,,,,,,,,,
,,,,,,,,2023-08-16_08h39.23.593,HF_wild_card,2022.2.4,Win32,58.82352941,5c321ebf6558270001bd79aa,64d2fd46c836a06233681665,64dc7cf7479cdcf15e86de90,,,,,,,sngl,resources/Empty.png,resources/DG.BMP,Door3,0.213888889,0.00787037,1,0,0,0.632,optionRight,70,7645,4,6,0,6,0,1,,,,,,,,,,,,,,,,,,,,,,,,,,,,,,,,,,,,,,,
,,,,,,,,2023-08-16_08h39.23.593,HF_wild_card,2022.2.4,Win32,58.82352941,5c321ebf6558270001bd79aa,64d2fd46c836a06233681665,64dc7cf7479cdcf15e86de90,,,,,,,decisionTrl,resources/DG.BMP,resources/DBN.BMP,Door3,-0.206944444,-0.005092593,1,0,0,0.594,optionLeft,70,7715,4,7,0,7,0,1,,,,,,,,,,,,,,,,,,,,,,,,,,,,,,,,,,,,,,,
,,,,,,,,2023-08-16_08h39.23.593,HF_wild_card,2022.2.4,Win32,58.82352941,5c321ebf6558270001bd79aa,64d2fd46c836a06233681665,64dc7cf7479cdcf15e86de90,,,,,,,decisionTrl,resources/DB.BMP,resources/DR.BMP,Door2,0.216666667,-0.002777778,1,0,0,2.326,optionRight,20,7735,4,8,0,8,0,1,,,,,,,,,,,,,,,,,,,,,,,,,,,,,,,,,,,,,,,
,,,,,,,,2023-08-16_08h39.23.593,HF_wild_card,2022.2.4,Win32,58.82352941,5c321ebf6558270001bd79aa,64d2fd46c836a06233681665,64dc7cf7479cdcf15e86de90,,,,,,,decisionTrl,resources/DB.BMP,resources/DBN.BMP,WildCard_Ex,0.235185185,0.051851852,1,0,0,0.822,optionRight,55,7790,4,9,0,9,0,1,,,,,,,,,,,,,,,,,,,,,,,,,,,,,,,,,,,,,,,
,,,,,,,,2023-08-16_08h39.23.593,HF_wild_card,2022.2.4,Win32,58.82352941,5c321ebf6558270001bd79aa,64d2fd46c836a06233681665,64dc7cf7479cdcf15e86de90,,,,,,,sngl,resources/DBN.BMP,resources/Empty.png,WildCard_Ex,-0.344907407,0.046296296,1,0,0,0.649,optionLeft,45,7835,4,10,0,10,0,1,,,,,,,,,,,,,,,,,,,,,,,,,,,,,,,,,,,,,,,
,,,,,,,,2023-08-16_08h39.23.593,HF_wild_card,2022.2.4,Win32,58.82352941,5c321ebf6558270001bd79aa,64d2fd46c836a06233681665,64dc7cf7479cdcf15e86de90,,,,,,,decisionTrl,resources/DY.BMP,resources/DG.BMP,Door3,0.321296296,-0.014814815,1,0,0,1.411,optionRight,70,7905,4,11,0,11,0,1,,,,,,,,,,,,,,,,,,,,,,,,,,,,,,,,,,,,,,,
,,,,,,,,2023-08-16_08h39.23.593,HF_wild_card,2022.2.4,Win32,58.82352941,5c321ebf6558270001bd79aa,64d2fd46c836a06233681665,64dc7cf7479cdcf15e86de90,,,,,,,decisionTrl,resources/DBN.BMP,resources/DR.BMP,WildCard_Ex,-0.248148148,0.06712963,1,0,0,1.204,optionLeft,45,7950,4,12,0,12,0,1,,,,,,,,,,,,,,,,,,,,,,,,,,,,,,,,,,,,,,,
,,,,,,,,2023-08-16_08h39.23.593,HF_wild_card,2022.2.4,Win32,58.82352941,5c321ebf6558270001bd79aa,64d2fd46c836a06233681665,64dc7cf7479cdcf15e86de90,,,,,,,sngl,resources/Empty.png,resources/DR.BMP,Door2,0.254166667,0.011111111,1,0,0,0.671,optionRight,40,7990,4,13,0,13,0,1,,,,,,,,,,,,,,,,,,,,,,,,,,,,,,,,,,,,,,,
,,,,,,,,2023-08-16_08h39.23.593,HF_wild_card,2022.2.4,Win32,58.82352941,5c321ebf6558270001bd79aa,64d2fd46c836a06233681665,64dc7cf7479cdcf15e86de90,,,,,,,sngl,resources/DR.BMP,resources/Empty.png,Door2,-0.373148148,0.062962963,1,0,0,0.633,optionLeft,20,8010,4,14,0,14,0,1,,,,,,,,,,,,,,,,,,,,,,,,,,,,,,,,,,,,,,,
,,,,,,,,2023-08-16_08h39.23.593,HF_wild_card,2022.2.4,Win32,58.82352941,5c321ebf6558270001bd79aa,64d2fd46c836a06233681665,64dc7cf7479cdcf15e86de90,,,,,,,sngl,resources/Empty.png,resources/DBN.BMP,WildCard_Ex,0.419907407,0.009722222,1,0,0,0.631,optionRight,45,8055,4,15,0,15,0,1,,,,,,,,,,,,,,,,,,,,,,,,,,,,,,,,,,,,,,,
,,,,,,,,2023-08-16_08h39.23.593,HF_wild_card,2022.2.4,Win32,58.82352941,5c321ebf6558270001bd79aa,64d2fd46c836a06233681665,64dc7cf7479cdcf15e86de90,,,,,,,decisionTrl,resources/DB.BMP,resources/DR.BMP,Door2,0.331481481,0.001851852,1,0,0,0.866,optionRight,20,8075,4,16,0,16,0,1,,,,,,,,,,,,,,,,,,,,,,,,,,,,,,,,,,,,,,,
,,,,,,,,2023-08-16_08h39.23.593,HF_wild_card,2022.2.4,Win32,58.82352941,5c321ebf6558270001bd79aa,64d2fd46c836a06233681665,64dc7cf7479cdcf15e86de90,,,,,,,decisionTrl,resources/DY.BMP,resources/DG.BMP,Door4,-0.203240741,0.05,1,0,0,0.837,optionLeft,60,8135,4,17,0,17,0,1,,,,,,,,,,,,,,,,,,,,,,,,,,,,,,,,,,,,,,,
,,,,,,,,2023-08-16_08h39.23.593,HF_wild_card,2022.2.4,Win32,58.82352941,5c321ebf6558270001bd79aa,64d2fd46c836a06233681665,64dc7cf7479cdcf15e86de90,,,,,,,ctch,resources/DR.BMP,resources/DG.BMP,Door3,0.293055556,0.049537037,1,0,0,0.566,optionRight,70,8205,4,18,0,18,0,1,,,,,,,,,,,,,,,,,,,,,,,,,,,,,,,,,,,,,,,
,,,,,,,,2023-08-16_08h39.23.593,HF_wild_card,2022.2.4,Win32,58.82352941,5c321ebf6558270001bd79aa,64d2fd46c836a06233681665,64dc7cf7479cdcf15e86de90,,,,,,,decisionTrl,resources/DR.BMP,resources/DBN.BMP,WildCard_Ex,0.204166667,0.085648148,1,0,0,0.932,optionRight,55,8260,4,19,0,19,0,1,,,,,,,,,,,,,,,,,,,,,,,,,,,,,,,,,,,,,,,
,,,,,,,,2023-08-16_08h39.23.593,HF_wild_card,2022.2.4,Win32,58.82352941,5c321ebf6558270001bd79aa,64d2fd46c836a06233681665,64dc7cf7479cdcf15e86de90,,,,,,,decisionTrl,resources/DBN.BMP,resources/DB.BMP,WildCard_Ex,-0.214351852,0.061574074,1,0,0,0.648,optionLeft,45,8305,4,20,0,20,0,1,,,,,,,,,,,,,,,,,,,,,,,,,,,,,,,,,,,,,,,
,,,,,,,,2023-08-16_08h39.23.593,HF_wild_card,2022.2.4,Win32,58.82352941,5c321ebf6558270001bd79aa,64d2fd46c836a06233681665,64dc7cf7479cdcf15e86de90,,,,,,,decisionTrl,resources/DBN.BMP,resources/DY.BMP,WildCard_Ex,-0.224537037,0.088888889,1,0,0,0.599,optionLeft,55,8360,4,21,0,21,0,1,,,,,,,,,,,,,,,,,,,,,,,,,,,,,,,,,,,,,,,
,,,,,,,,2023-08-16_08h39.23.593,HF_wild_card,2022.2.4,Win32,58.82352941,5c321ebf6558270001bd79aa,64d2fd46c836a06233681665,64dc7cf7479cdcf15e86de90,,,,,,,decisionTrl,resources/DY.BMP,resources/DBN.BMP,Door4,-0.310185185,0.10787037,1,0,0,0.783,optionLeft,60,8420,4,22,0,22,0,1,,,,,,,,,,,,,,,,,,,,,,,,,,,,,,,,,,,,,,,
,,,,,,,,2023-08-16_08h39.23.593,HF_wild_card,2022.2.4,Win32,58.82352941,5c321ebf6558270001bd79aa,64d2fd46c836a06233681665,64dc7cf7479cdcf15e86de90,,,,,,,ctch,resources/DG.BMP,resources/DR.BMP,Door2,0.276851852,0.010648148,1,0,0,0.919,optionRight,40,8460,4,23,0,23,0,1,,,,,,,,,,,,,,,,,,,,,,,,,,,,,,,,,,,,,,,
,,,,,,,,2023-08-16_08h39.23.593,HF_wild_card,2022.2.4,Win32,58.82352941,5c321ebf6558270001bd79aa,64d2fd46c836a06233681665,64dc7cf7479cdcf15e86de90,,,,,,,ctch,resources/DY.BMP,resources/DB.BMP,Door4,-0.267592593,0.079166667,1,0,0,0.762,optionLeft,60,8520,4,24,0,24,0,1,,,,,,,,,,,,,,,,,,,,,,,,,,,,,,,,,,,,,,,
,,,,,,,,2023-08-16_08h39.23.593,HF_wild_card,2022.2.4,Win32,58.82352941,5c321ebf6558270001bd79aa,64d2fd46c836a06233681665,64dc7cf7479cdcf15e86de90,,,,,,,decisionTrl,resources/DR.BMP,resources/DB.BMP,Door2,-0.216203704,0.043981481,1,0,0,0.696,optionLeft,20,8540,4,25,0,25,0,1,,,,,,,,,,,,,,,,,,,,,,,,,,,,,,,,,,,,,,,
,,,,,,,,2023-08-16_08h39.23.593,HF_wild_card,2022.2.4,Win32,58.82352941,5c321ebf6558270001bd79aa,64d2fd46c836a06233681665,64dc7cf7479cdcf15e86de90,,,,,,,sngl,resources/Empty.png,resources/DY.BMP,Door4,0.375462963,0.067592593,1,0,0,0.583,optionRight,80,8620,4,26,0,26,0,1,,,,,,,,,,,,,,,,,,,,,,,,,,,,,,,,,,,,,,,
,,,,,,,,2023-08-16_08h39.23.593,HF_wild_card,2022.2.4,Win32,58.82352941,5c321ebf6558270001bd79aa,64d2fd46c836a06233681665,64dc7cf7479cdcf15e86de90,,,,,,,ctch,resources/DR.BMP,resources/DG.BMP,Door3,0.257407407,0.085648148,1,0,0,0.859,optionRight,70,8690,4,27,0,27,0,1,,,,,,,,,,,,,,,,,,,,,,,,,,,,,,,,,,,,,,,
,,,,,,,,2023-08-16_08h39.23.593,HF_wild_card,2022.2.4,Win32,58.82352941,5c321ebf6558270001bd79aa,64d2fd46c836a06233681665,64dc7cf7479cdcf15e86de90,,,,,,,decisionTrl,resources/DG.BMP,resources/DY.BMP,Door3,-0.337962963,0.062037037,1,0,0,0.998,optionLeft,70,8760,4,28,0,28,0,1,,,,,,,,,,,,,,,,,,,,,,,,,,,,,,,,,,,,,,,
,,,,,,,,2023-08-16_08h39.23.593,HF_wild_card,2022.2.4,Win32,58.82352941,5c321ebf6558270001bd79aa,64d2fd46c836a06233681665,64dc7cf7479cdcf15e86de90,,,,,,,decisionTrl,resources/DB.BMP,resources/DR.BMP,Door2,0.186111111,0.062037037,1,0,0,0.661,optionRight,40,8800,4,29,0,29,0,1,,,,,,,,,,,,,,,,,,,,,,,,,,,,,,,,,,,,,,,
,,,,,,,,2023-08-16_08h39.23.593,HF_wild_card,2022.2.4,Win32,58.82352941,5c321ebf6558270001bd79aa,64d2fd46c836a06233681665,64dc7cf7479cdcf15e86de90,,,,,,,decisionTrl,resources/DG.BMP,resources/DY.BMP,Door3,-0.193981481,0.099537037,1,0,0,0.968,optionLeft,70,8870,4,30,0,30,0,1,,,,,,,,,,,,,,,,,,,,,,,,,,,,,,,,,,,,,,,
,,,,,,,,2023-08-16_08h39.23.593,HF_wild_card,2022.2.4,Win32,58.82352941,5c321ebf6558270001bd79aa,64d2fd46c836a06233681665,64dc7cf7479cdcf15e86de90,,,,,,,decisionTrl,resources/DR.BMP,resources/DB.BMP,Door2,-0.335185185,0.09537037,1,0,0,0.852,optionLeft,20,8890,4,31,0,31,0,1,,,,,,,,,,,,,,,,,,,,,,,,,,,,,,,,,,,,,,,
,,,,,,,,2023-08-16_08h39.23.593,HF_wild_card,2022.2.4,Win32,58.82352941,5c321ebf6558270001bd79aa,64d2fd46c836a06233681665,64dc7cf7479cdcf15e86de90,,,,,,,decisionTrl,resources/DG.BMP,resources/DY.BMP,Door4,0.243055556,0.05787037,1,0,0,1.152,optionRight,80,8970,4,32,0,32,0,1,,,,,,,,,,,,,,,,,,,,,,,,,,,,,,,,,,,,,,,
,,,,,,,,2023-08-16_08h39.23.593,HF_wild_card,2022.2.4,Win32,58.82352941,5c321ebf6558270001bd79aa,64d2fd46c836a06233681665,64dc7cf7479cdcf15e86de90,,,,,,,sngl,resources/DG.BMP,resources/Empty.png,Door3,-0.265277778,0.065277778,1,0,0,0.538,optionLeft,70,9040,4,33,0,33,0,1,,,,,,,,,,,,,,,,,,,,,,,,,,,,,,,,,,,,,,,
,,,,,,,,2023-08-16_08h39.23.593,HF_wild_card,2022.2.4,Win32,58.82352941,5c321ebf6558270001bd79aa,64d2fd46c836a06233681665,64dc7cf7479cdcf15e86de90,,,,,,,ctch,resources/DY.BMP,resources/DB.BMP,Door4,-0.327777778,0.0875,1,0,0,1.242,optionLeft,60,9100,4,34,0,34,0,1,,,,,,,,,,,,,,,,,,,,,,,,,,,,,,,,,,,,,,,
,,,,,,,,2023-08-16_08h39.23.593,HF_wild_card,2022.2.4,Win32,58.82352941,5c321ebf6558270001bd79aa,64d2fd46c836a06233681665,64dc7cf7479cdcf15e86de90,,,,,,,sngl,resources/DY.BMP,resources/Empty.png,Door4,-0.239814815,0.07037037,1,0,0,0.596,optionLeft,60,9160,4,35,0,35,0,1,,,,,,,,,,,,,,,,,,,,,,,,,,,,,,,,,,,,,,,
,,,,,,,,2023-08-16_08h39.23.593,HF_wild_card,2022.2.4,Win32,58.82352941,5c321ebf6558270001bd79aa,64d2fd46c836a06233681665,64dc7cf7479cdcf15e86de90,,,,,,,decisionTrl,resources/DBN.BMP,resources/DG.BMP,Door3,0.22962963,0.05462963,1,0,0,1.189,optionRight,70,9230,4,36,0,36,0,1,,,,,,,,,,,,,,,,,,,,,,,,,,,,,,,,,,,,,,,
,,,,,,,,2023-08-16_08h39.23.593,HF_wild_card,2022.2.4,Win32,58.82352941,5c321ebf6558270001bd79aa,64d2fd46c836a06233681665,64dc7cf7479cdcf15e86de90,,,,,,,sngl,resources/DBN.BMP,resources/Empty.png,WildCard_Ex,-0.249537037,0.046296296,1,0,0,0.594,optionLeft,55,9285,4,37,0,37,0,1,,,,,,,,,,,,,,,,,,,,,,,,,,,,,,,,,,,,,,,
,,,,,,,,2023-08-16_08h39.23.593,HF_wild_card,2022.2.4,Win32,58.82352941,5c321ebf6558270001bd79aa,64d2fd46c836a06233681665,64dc7cf7479cdcf15e86de90,,,,,,,decisionTrl,resources/DR.BMP,resources/DB.BMP,Door2,-0.307407407,0.100925926,1,0,0,0.832,optionLeft,20,9305,4,38,0,38,0,1,,,,,,,,,,,,,,,,,,,,,,,,,,,,,,,,,,,,,,,
,,,,,,,,2023-08-16_08h39.23.593,HF_wild_card,2022.2.4,Win32,58.82352941,5c321ebf6558270001bd79aa,64d2fd46c836a06233681665,64dc7cf7479cdcf15e86de90,,,,,,,ctch,resources/DG.BMP,resources/DR.BMP,Door3,-0.216203704,0.066203704,1,0,0,0.869,optionLeft,70,9375,4,39,0,39,0,1,,,,,,,,,,,,,,,,,,,,,,,,,,,,,,,,,,,,,,,
,,,,,,,,2023-08-16_08h39.23.593,HF_wild_card,2022.2.4,Win32,58.82352941,5c321ebf6558270001bd79aa,64d2fd46c836a06233681665,64dc7cf7479cdcf15e86de90,,,,,,,sngl,resources/Empty.png,resources/DB.BMP,Door1,0.276851852,0.006481481,1,0,0,0.63,optionRight,30,9405,4,40,0,40,0,1,,,,,,,,,,,,,,,,,,,,,,,,,,,,,,,,,,,,,,,
,,,,,,,,2023-08-16_08h39.23.593,HF_wild_card,2022.2.4,Win32,58.82352941,5c321ebf6558270001bd79aa,64d2fd46c836a06233681665,64dc7cf7479cdcf15e86de90,,,,,,,decisionTrl,resources/DY.BMP,resources/DG.BMP,Door4,-0.364814815,0.111574074,1,0,0,0.88,optionLeft,80,9485,4,41,0,41,0,1,,,,,,,,,,,,,,,,,,,,,,,,,,,,,,,,,,,,,,,
,,,,,,,,2023-08-16_08h39.23.593,HF_wild_card,2022.2.4,Win32,58.82352941,5c321ebf6558270001bd79aa,64d2fd46c836a06233681665,64dc7cf7479cdcf15e86de90,,,,,,,decisionTrl,resources/DB.BMP,resources/DR.BMP,Door1,-0.310648148,0.077314815,1,0,0,1.33,optionLeft,30,9515,4,42,0,42,0,1,,,,,,,,,,,,,,,,,,,,,,,,,,,,,,,,,,,,,,,
,,,,,,,,2023-08-16_08h39.23.593,HF_wild_card,2022.2.4,Win32,58.82352941,5c321ebf6558270001bd79aa,64d2fd46c836a06233681665,64dc7cf7479cdcf15e86de90,,,,,,,sngl,resources/Empty.png,resources/DBN.BMP,WildCard_Ex,0.305555556,0.055092593,1,0,0,0.582,optionRight,55,9570,4,43,0,43,0,1,,,,,,,,,,,,,,,,,,,,,,,,,,,,,,,,,,,,,,,
,,,,,,,,2023-08-16_08h39.23.593,HF_wild_card,2022.2.4,Win32,58.82352941,5c321ebf6558270001bd79aa,64d2fd46c836a06233681665,64dc7cf7479cdcf15e86de90,,,,,,,,,,,,,,,,,,,,,,,,,,3,0,3,0,1,,,,,,,,,,,,,,,,,,,,,,,,,,,,,,,,,,
,,,,,,,,2023-08-16_08h39.23.593,HF_wild_card,2022.2.4,Win32,58.82352941,5c321ebf6558270001bd79aa,64d2fd46c836a06233681665,64dc7cf7479cdcf15e86de90,,,,,,,sngl,resources/Empty.png,resources/DG.BMP,Door3,0.228703704,-0.001851852,1,0,0,1.468,optionRight,70,9640,5,0,0,0,0,1,,,,,,,,,,,,,,,,,,,,,,,,,,,,,,,,,,,,,,,
,,,,,,,,2023-08-16_08h39.23.593,HF_wild_card,2022.2.4,Win32,58.82352941,5c321ebf6558270001bd79aa,64d2fd46c836a06233681665,64dc7cf7479cdcf15e86de90,,,,,,,ctch,resources/DR.BMP,resources/DG.BMP,Door3,0.2375,-0.001851852,1,0,0,0.617,optionRight,70,9710,5,1,0,1,0,1,,,,,,,,,,,,,,,,,,,,,,,,,,,,,,,,,,,,,,,
,,,,,,,,2023-08-16_08h39.23.593,HF_wild_card,2022.2.4,Win32,58.82352941,5c321ebf6558270001bd79aa,64d2fd46c836a06233681665,64dc7cf7479cdcf15e86de90,,,,,,,ctch,resources/DG.BMP,resources/DR.BMP,Door3,-0.251851852,0.049537037,1,0,0,0.652,optionLeft,70,9780,5,2,0,2,0,1,,,,,,,,,,,,,,,,,,,,,,,,,,,,,,,,,,,,,,,
,,,,,,,,2023-08-16_08h39.23.593,HF_wild_card,2022.2.4,Win32,58.82352941,5c321ebf6558270001bd79aa,64d2fd46c836a06233681665,64dc7cf7479cdcf15e86de90,,,,,,,decisionTrl,resources/DR.BMP,resources/DB.BMP,Door1,0.264814815,0.019444444,1,0,0,1.061,optionRight,30,9810,5,3,0,3,0,1,,,,,,,,,,,,,,,,,,,,,,,,,,,,,,,,,,,,,,,
,,,,,,,,2023-08-16_08h39.23.593,HF_wild_card,2022.2.4,Win32,58.82352941,5c321ebf6558270001bd79aa,64d2fd46c836a06233681665,64dc7cf7479cdcf15e86de90,,,,,,,decisionTrl,resources/DG.BMP,resources/DY.BMP,Door3,-0.221759259,0.050925926,1,0,0,0.484,optionLeft,70,9880,5,4,0,4,0,1,,,,,,,,,,,,,,,,,,,,,,,,,,,,,,,,,,,,,,,
,,,,,,,,2023-08-16_08h39.23.593,HF_wild_card,2022.2.4,Win32,58.82352941,5c321ebf6558270001bd79aa,64d2fd46c836a06233681665,64dc7cf7479cdcf15e86de90,,,,,,,decisionTrl,resources/DR.BMP,resources/DBN.BMP,WildCard_Ex,0.315277778,0.035648148,1,0,0,1.173,optionRight,45,9925,5,5,0,5,0,1,,,,,,,,,,,,,,,,,,,,,,,,,,,,,,,,,,,,,,,
,,,,,,,,2023-08-16_08h39.23.593,HF_wild_card,2022.2.4,Win32,58.82352941,5c321ebf6558270001bd79aa,64d2fd46c836a06233681665,64dc7cf7479cdcf15e86de90,,,,,,,decisionTrl,resources/DB.BMP,resources/DR.BMP,Door2,0.169907407,0.013888889,1,0,0,0.894,optionRight,40,9965,5,6,0,6,0,1,,,,,,,,,,,,,,,,,,,,,,,,,,,,,,,,,,,,,,,
,,,,,,,,2023-08-16_08h39.23.593,HF_wild_card,2022.2.4,Win32,58.82352941,5c321ebf6558270001bd79aa,64d2fd46c836a06233681665,64dc7cf7479cdcf15e86de90,,,,,,,sngl,resources/Empty.png,resources/DY.BMP,Door4,0.193055556,0.049074074,1,0,0,0.582,optionRight,60,10025,5,7,0,7,0,1,,,,,,,,,,,,,,,,,,,,,,,,,,,,,,,,,,,,,,,
,,,,,,,,2023-08-16_08h39.23.593,HF_wild_card,2022.2.4,Win32,58.82352941,5c321ebf6558270001bd79aa,64d2fd46c836a06233681665,64dc7cf7479cdcf15e86de90,,,,,,,ctch,resources/DR.BMP,resources/DG.BMP,Door3,0.218055556,-0.014351852,1,0,0,0.896,optionRight,70,10095,5,8,0,8,0,1,,,,,,,,,,,,,,,,,,,,,,,,,,,,,,,,,,,,,,,
,,,,,,,,2023-08-16_08h39.23.593,HF_wild_card,2022.2.4,Win32,58.82352941,5c321ebf6558270001bd79aa,64d2fd46c836a06233681665,64dc7cf7479cdcf15e86de90,,,,,,,decisionTrl,resources/DBN.BMP,resources/DR.BMP,Door2,0.183333333,0.030555556,1,0,0,0.901,optionRight,40,10135,5,9,0,9,0,1,,,,,,,,,,,,,,,,,,,,,,,,,,,,,,,,,,,,,,,
,,,,,,,,2023-08-16_08h39.23.593,HF_wild_card,2022.2.4,Win32,58.82352941,5c321ebf6558270001bd79aa,64d2fd46c836a06233681665,64dc7cf7479cdcf15e86de90,,,,,,,decisionTrl,resources/DR.BMP,resources/DB.BMP,Door2,-0.275,0.018981481,1,0,0,0.947,optionLeft,40,10175,5,10,0,10,0,1,,,,,,,,,,,,,,,,,,,,,,,,,,,,,,,,,,,,,,,
,,,,,,,,2023-08-16_08h39.23.593,HF_wild_card,2022.2.4,Win32,58.82352941,5c321ebf6558270001bd79aa,64d2fd46c836a06233681665,64dc7cf7479cdcf15e86de90,,,,,,,sngl,resources/DBN.BMP,resources/Empty.png,WildCard_Ex,-0.250462963,0.021759259,1,0,0,0.602,optionLeft,45,10220,5,11,0,11,0,1,,,,,,,,,,,,,,,,,,,,,,,,,,,,,,,,,,,,,,,
,,,,,,,,2023-08-16_08h39.23.593,HF_wild_card,2022.2.4,Win32,58.82352941,5c321ebf6558270001bd79aa,64d2fd46c836a06233681665,64dc7cf7479cdcf15e86de90,,,,,,,sngl,resources/Empty.png,resources/DB.BMP,Door1,0.226851852,0.061111111,1,0,0,0.639,optionRight,30,10250,5,12,0,12,0,1,,,,,,,,,,,,,,,,,,,,,,,,,,,,,,,,,,,,,,,
,,,,,,,,2023-08-16_08h39.23.593,HF_wild_card,2022.2.4,Win32,58.82352941,5c321ebf6558270001bd79aa,64d2fd46c836a06233681665,64dc7cf7479cdcf15e86de90,,,,,,,ctch,resources/DY.BMP,resources/DB.BMP,Door4,-0.172222222,0.021759259,1,0,0,0.738,optionLeft,80,10330,5,13,0,13,0,1,,,,,,,,,,,,,,,,,,,,,,,,,,,,,,,,,,,,,,,
,,,,,,,,2023-08-16_08h39.23.593,HF_wild_card,2022.2.4,Win32,58.82352941,5c321ebf6558270001bd79aa,64d2fd46c836a06233681665,64dc7cf7479cdcf15e86de90,,,,,,,decisionTrl,resources/DG.BMP,resources/DBN.BMP,Door3,-0.184722222,0.048611111,1,0,0,1.083,optionLeft,70,10400,5,14,0,14,0,1,,,,,,,,,,,,,,,,,,,,,,,,,,,,,,,,,,,,,,,
,,,,,,,,2023-08-16_08h39.23.593,HF_wild_card,2022.2.4,Win32,58.82352941,5c321ebf6558270001bd79aa,64d2fd46c836a06233681665,64dc7cf7479cdcf15e86de90,,,,,,,decisionTrl,resources/DY.BMP,resources/DG.BMP,Door3,0.351851852,0.030092593,1,0,0,1.109,optionRight,70,10470,5,15,0,15,0,1,,,,,,,,,,,,,,,,,,,,,,,,,,,,,,,,,,,,,,,
,,,,,,,,2023-08-16_08h39.23.593,HF_wild_card,2022.2.4,Win32,58.82352941,5c321ebf6558270001bd79aa,64d2fd46c836a06233681665,64dc7cf7479cdcf15e86de90,,,,,,,decisionTrl,resources/DB.BMP,resources/DR.BMP,Door2,0.266666667,0.005555556,1,0,0,1.009,optionRight,40,10510,5,16,0,16,0,1,,,,,,,,,,,,,,,,,,,,,,,,,,,,,,,,,,,,,,,
,,,,,,,,2023-08-16_08h39.23.593,HF_wild_card,2022.2.4,Win32,58.82352941,5c321ebf6558270001bd79aa,64d2fd46c836a06233681665,64dc7cf7479cdcf15e86de90,,,,,,,decisionTrl,resources/DBN.BMP,resources/DB.BMP,WildCard_Ex,-0.186574074,0.036111111,1,0,0,1.15,optionLeft,45,10555,5,17,0,17,0,1,,,,,,,,,,,,,,,,,,,,,,,,,,,,,,,,,,,,,,,
,,,,,,,,2023-08-16_08h39.23.593,HF_wild_card,2022.2.4,Win32,58.82352941,5c321ebf6558270001bd79aa,64d2fd46c836a06233681665,64dc7cf7479cdcf15e86de90,,,,,,,sngl,resources/Empty.png,resources/DBN.BMP,WildCard_Ex,0.322222222,0.087037037,1,0,0,0.55,optionRight,55,10610,5,18,0,18,0,1,,,,,,,,,,,,,,,,,,,,,,,,,,,,,,,,,,,,,,,
,,,,,,,,2023-08-16_08h39.23.593,HF_wild_card,2022.2.4,Win32,58.82352941,5c321ebf6558270001bd79aa,64d2fd46c836a06233681665,64dc7cf7479cdcf15e86de90,,,,,,,decisionTrl,resources/DY.BMP,resources/DG.BMP,Door4,-0.30462963,0.068518519,1,0,0,0.849,optionLeft,60,10670,5,19,0,19,0,1,,,,,,,,,,,,,,,,,,,,,,,,,,,,,,,,,,,,,,,
,,,,,,,,2023-08-16_08h39.23.593,HF_wild_card,2022.2.4,Win32,58.82352941,5c321ebf6558270001bd79aa,64d2fd46c836a06233681665,64dc7cf7479cdcf15e86de90,,,,,,,decisionTrl,resources/DR.BMP,resources/DB.BMP,Door2,-0.19537037,0.056481481,1,0,0,1.035,optionLeft,20,10690,5,20,0,20,0,1,,,,,,,,,,,,,,,,,,,,,,,,,,,,,,,,,,,,,,,
,,,,,,,,2023-08-16_08h39.23.593,HF_wild_card,2022.2.4,Win32,58.82352941,5c321ebf6558270001bd79aa,64d2fd46c836a06233681665,64dc7cf7479cdcf15e86de90,,,,,,,decisionTrl,resources/DG.BMP,resources/DY.BMP,Door4,0.273611111,0.061574074,1,0,0,1.013,optionRight,80,10770,5,21,0,21,0,1,,,,,,,,,,,,,,,,,,,,,,,,,,,,,,,,,,,,,,,
,,,,,,,,2023-08-16_08h39.23.593,HF_wild_card,2022.2.4,Win32,58.82352941,5c321ebf6558270001bd79aa,64d2fd46c836a06233681665,64dc7cf7479cdcf15e86de90,,,,,,,sngl,resources/DR.BMP,resources/Empty.png,Door2,-0.15787037,-0.068518519,1,0,0,1.983,optionLeft,40,10810,5,22,0,22,0,1,,,,,,,,,,,,,,,,,,,,,,,,,,,,,,,,,,,,,,,
,,,,,,,,2023-08-16_08h39.23.593,HF_wild_card,2022.2.4,Win32,58.82352941,5c321ebf6558270001bd79aa,64d2fd46c836a06233681665,64dc7cf7479cdcf15e86de90,,,,,,,sngl,resources/Empty.png,resources/DR.BMP,Door2,0.233333333,0.063888889,1,0,0,0.565,optionRight,20,10830,5,23,0,23,0,1,,,,,,,,,,,,,,,,,,,,,,,,,,,,,,,,,,,,,,,
,,,,,,,,2023-08-16_08h39.23.593,HF_wild_card,2022.2.4,Win32,58.82352941,5c321ebf6558270001bd79aa,64d2fd46c836a06233681665,64dc7cf7479cdcf15e86de90,,,,,,,ctch,resources/DG.BMP,resources/DR.BMP,Door3,-0.224537037,0.104166667,1,0,0,0.9,optionLeft,70,10900,5,24,0,24,0,1,,,,,,,,,,,,,,,,,,,,,,,,,,,,,,,,,,,,,,,
,,,,,,,,2023-08-16_08h39.23.593,HF_wild_card,2022.2.4,Win32,58.82352941,5c321ebf6558270001bd79aa,64d2fd46c836a06233681665,64dc7cf7479cdcf15e86de90,,,,,,,decisionTrl,resources/DY.BMP,resources/DBN.BMP,Door4,-0.288888889,0.061111111,1,0,0,2.123,optionLeft,80,10980,5,25,0,25,0,1,,,,,,,,,,,,,,,,,,,,,,,,,,,,,,,,,,,,,,,
,,,,,,,,2023-08-16_08h39.23.593,HF_wild_card,2022.2.4,Win32,58.82352941,5c321ebf6558270001bd79aa,64d2fd46c836a06233681665,64dc7cf7479cdcf15e86de90,,,,,,,sngl,resources/Empty.png,resources/DBN.BMP,WildCard_Ex,0.327314815,0.110648148,1,0,0,0.665,optionRight,45,11025,5,26,0,26,0,1,,,,,,,,,,,,,,,,,,,,,,,,,,,,,,,,,,,,,,,
,,,,,,,,2023-08-16_08h39.23.593,HF_wild_card,2022.2.4,Win32,58.82352941,5c321ebf6558270001bd79aa,64d2fd46c836a06233681665,64dc7cf7479cdcf15e86de90,,,,,,,ctch,resources/DB.BMP,resources/DY.BMP,Door4,0.215740741,0.0625,1,0,0,1.065,optionRight,60,11085,5,27,0,27,0,1,,,,,,,,,,,,,,,,,,,,,,,,,,,,,,,,,,,,,,,
,,,,,,,,2023-08-16_08h39.23.593,HF_wild_card,2022.2.4,Win32,58.82352941,5c321ebf6558270001bd79aa,64d2fd46c836a06233681665,64dc7cf7479cdcf15e86de90,,,,,,,decisionTrl,resources/DBN.BMP,resources/DY.BMP,Door4,0.288425926,0.15,1,0,0,0.898,optionRight,60,11145,5,28,0,28,0,1,,,,,,,,,,,,,,,,,,,,,,,,,,,,,,,,,,,,,,,
,,,,,,,,2023-08-16_08h39.23.593,HF_wild_card,2022.2.4,Win32,58.82352941,5c321ebf6558270001bd79aa,64d2fd46c836a06233681665,64dc7cf7479cdcf15e86de90,,,,,,,ctch,resources/DY.BMP,resources/DB.BMP,Door4,-0.224074074,0.068518519,1,0,0,0.515,optionLeft,80,11225,5,29,0,29,0,1,,,,,,,,,,,,,,,,,,,,,,,,,,,,,,,,,,,,,,,
,,,,,,,,2023-08-16_08h39.23.593,HF_wild_card,2022.2.4,Win32,58.82352941,5c321ebf6558270001bd79aa,64d2fd46c836a06233681665,64dc7cf7479cdcf15e86de90,,,,,,,decisionTrl,resources/DR.BMP,resources/DB.BMP,Door2,-0.285648148,0.02962963,1,0,0,0.964,optionLeft,20,11245,5,30,0,30,0,1,,,,,,,,,,,,,,,,,,,,,,,,,,,,,,,,,,,,,,,
,,,,,,,,2023-08-16_08h39.23.593,HF_wild_card,2022.2.4,Win32,58.82352941,5c321ebf6558270001bd79aa,64d2fd46c836a06233681665,64dc7cf7479cdcf15e86de90,,,,,,,sngl,resources/DG.BMP,resources/Empty.png,Door3,-0.218981481,0.041203704,1,0,0,0.728,optionLeft,70,11315,5,31,0,31,0,1,,,,,,,,,,,,,,,,,,,,,,,,,,,,,,,,,,,,,,,
,,,,,,,,2023-08-16_08h39.23.593,HF_wild_card,2022.2.4,Win32,58.82352941,5c321ebf6558270001bd79aa,64d2fd46c836a06233681665,64dc7cf7479cdcf15e86de90,,,,,,,decisionTrl,resources/DBN.BMP,resources/DG.BMP,Door3,0.226851852,0.02962963,1,0,0,0.916,optionRight,70,11385,5,32,0,32,0,1,,,,,,,,,,,,,,,,,,,,,,,,,,,,,,,,,,,,,,,
,,,,,,,,2023-08-16_08h39.23.593,HF_wild_card,2022.2.4,Win32,58.82352941,5c321ebf6558270001bd79aa,64d2fd46c836a06233681665,64dc7cf7479cdcf15e86de90,,,,,,,ctch,resources/DB.BMP,resources/DY.BMP,Door4,0.339351852,0.099537037,1,0,0,0.803,optionRight,60,11445,5,33,0,33,0,1,,,,,,,,,,,,,,,,,,,,,,,,,,,,,,,,,,,,,,,
,,,,,,,,2023-08-16_08h39.23.593,HF_wild_card,2022.2.4,Win32,58.82352941,5c321ebf6558270001bd79aa,64d2fd46c836a06233681665,64dc7cf7479cdcf15e86de90,,,,,,,decisionTrl,resources/DG.BMP,resources/DY.BMP,Door3,-0.244907407,0.009259259,1,0,0,1.162,optionLeft,70,11515,5,34,0,34,0,1,,,,,,,,,,,,,,,,,,,,,,,,,,,,,,,,,,,,,,,
,,,,,,,,2023-08-16_08h39.23.593,HF_wild_card,2022.2.4,Win32,58.82352941,5c321ebf6558270001bd79aa,64d2fd46c836a06233681665,64dc7cf7479cdcf15e86de90,,,,,,,sngl,resources/DB.BMP,resources/Empty.png,Door1,-0.2,0.02962963,1,0,0,1.049,optionLeft,30,11545,5,35,0,35,0,1,,,,,,,,,,,,,,,,,,,,,,,,,,,,,,,,,,,,,,,
,,,,,,,,2023-08-16_08h39.23.593,HF_wild_card,2022.2.4,Win32,58.82352941,5c321ebf6558270001bd79aa,64d2fd46c836a06233681665,64dc7cf7479cdcf15e86de90,,,,,,,sngl,resources/DBN.BMP,resources/Empty.png,WildCard_Ex,-0.177777778,0.042592593,1,0,0,0.596,optionLeft,55,11600,5,36,0,36,0,1,,,,,,,,,,,,,,,,,,,,,,,,,,,,,,,,,,,,,,,
,,,,,,,,2023-08-16_08h39.23.593,HF_wild_card,2022.2.4,Win32,58.82352941,5c321ebf6558270001bd79aa,64d2fd46c836a06233681665,64dc7cf7479cdcf15e86de90,,,,,,,decisionTrl,resources/DG.BMP,resources/DY.BMP,Door4,0.29537037,0.023148148,1,0,0,0.816,optionRight,80,11680,5,37,0,37,0,1,,,,,,,,,,,,,,,,,,,,,,,,,,,,,,,,,,,,,,,
,,,,,,,,2023-08-16_08h39.23.593,HF_wild_card,2022.2.4,Win32,58.82352941,5c321ebf6558270001bd79aa,64d2fd46c836a06233681665,64dc7cf7479cdcf15e86de90,,,,,,,decisionTrl,resources/DY.BMP,resources/DG.BMP,Door4,-0.202777778,0.063888889,1,0,0,0.683,optionLeft,60,11740,5,38,0,38,0,1,,,,,,,,,,,,,,,,,,,,,,,,,,,,,,,,,,,,,,,
,,,,,,,,2023-08-16_08h39.23.593,HF_wild_card,2022.2.4,Win32,58.82352941,5c321ebf6558270001bd79aa,64d2fd46c836a06233681665,64dc7cf7479cdcf15e86de90,,,,,,,decisionTrl,resources/DB.BMP,resources/DR.BMP,Door2,0.349074074,0.007407407,1,0,0,1.135,optionRight,20,11760,5,39,0,39,0,1,,,,,,,,,,,,,,,,,,,,,,,,,,,,,,,,,,,,,,,
,,,,,,,,2023-08-16_08h39.23.593,HF_wild_card,2022.2.4,Win32,58.82352941,5c321ebf6558270001bd79aa,64d2fd46c836a06233681665,64dc7cf7479cdcf15e86de90,,,,,,,sngl,resources/DY.BMP,resources/Empty.png,Door4,-0.256944444,0.059259259,1,0,0,0.549,optionLeft,80,11840,5,40,0,40,0,1,,,,,,,,,,,,,,,,,,,,,,,,,,,,,,,,,,,,,,,
,,,,,,,,2023-08-16_08h39.23.593,HF_wild_card,2022.2.4,Win32,58.82352941,5c321ebf6558270001bd79aa,64d2fd46c836a06233681665,64dc7cf7479cdcf15e86de90,,,,,,,decisionTrl,resources/DY.BMP,resources/DG.BMP,Door4,-0.117592593,0,1,0,0,0.731,optionLeft,80,11920,5,41,0,41,0,1,,,,,,,,,,,,,,,,,,,,,,,,,,,,,,,,,,,,,,,
,,,,,,,,2023-08-16_08h39.23.593,HF_wild_card,2022.2.4,Win32,58.82352941,5c321ebf6558270001bd79aa,64d2fd46c836a06233681665,64dc7cf7479cdcf15e86de90,,,,,,,decisionTrl,resources/DB.BMP,resources/DR.BMP,Door2,0.171759259,0.039814815,1,0,0,1.001,optionRight,20,11940,5,42,0,42,0,1,,,,,,,,,,,,,,,,,,,,,,,,,,,,,,,,,,,,,,,
,,,,,,,,2023-08-16_08h39.23.593,HF_wild_card,2022.2.4,Win32,58.82352941,5c321ebf6558270001bd79aa,64d2fd46c836a06233681665,64dc7cf7479cdcf15e86de90,,,,,,,decisionTrl,resources/DB.BMP,resources/DBN.BMP,WildCard_Ex,0.315740741,0.019444444,1,0,0,0.965,optionRight,45,11985,5,43,0,43,0,1,,,,,,,,,,,,,,,,,,,,,,,,,,,,,,,,,,,,,,,
,,,,,,,,2023-08-16_08h39.23.593,HF_wild_card,2022.2.4,Win32,58.82352941,5c321ebf6558270001bd79aa,64d2fd46c836a06233681665,64dc7cf7479cdcf15e86de90,,,,,,,,,,,,,,,,,,,,,,,,,,4,0,4,0,1,,,,,,,,,,,,,,,,,,,,,,,,,,,,,,,,,,
,,,,,,,,2023-08-16_08h39.23.593,HF_wild_card,2022.2.4,Win32,58.82352941,5c321ebf6558270001bd79aa,64d2fd46c836a06233681665,64dc7cf7479cdcf15e86de90,,,,,,,decisionTrl,resources/DY.BMP,resources/DG.BMP,Door4,-0.21712963,0.090740741,1,0,0,1.208,optionLeft,80,12065,6,0,0,0,0,1,,,,,,,,,,,,,,,,,,,,,,,,,,,,,,,,,,,,,,,
,,,,,,,,2023-08-16_08h39.23.593,HF_wild_card,2022.2.4,Win32,58.82352941,5c321ebf6558270001bd79aa,64d2fd46c836a06233681665,64dc7cf7479cdcf15e86de90,,,,,,,decisionTrl,resources/DR.BMP,resources/DB.BMP,Door1,0.228240741,0.004166667,1,0,0,1.965,optionRight,30,12095,6,1,0,1,0,1,,,,,,,,,,,,,,,,,,,,,,,,,,,,,,,,,,,,,,,
,,,,,,,,2023-08-16_08h39.23.593,HF_wild_card,2022.2.4,Win32,58.82352941,5c321ebf6558270001bd79aa,64d2fd46c836a06233681665,64dc7cf7479cdcf15e86de90,,,,,,,decisionTrl,resources/DR.BMP,resources/DB.BMP,Door1,0.214351852,0.073148148,1,0,0,0.82,optionRight,30,12125,6,2,0,2,0,1,,,,,,,,,,,,,,,,,,,,,,,,,,,,,,,,,,,,,,,
,,,,,,,,2023-08-16_08h39.23.593,HF_wild_card,2022.2.4,Win32,58.82352941,5c321ebf6558270001bd79aa,64d2fd46c836a06233681665,64dc7cf7479cdcf15e86de90,,,,,,,decisionTrl,resources/DB.BMP,resources/DBN.BMP,WildCard_Ex,0.223148148,0.073611111,1,0,0,0.821,optionRight,55,12180,6,3,0,3,0,1,,,,,,,,,,,,,,,,,,,,,,,,,,,,,,,,,,,,,,,
,,,,,,,,2023-08-16_08h39.23.593,HF_wild_card,2022.2.4,Win32,58.82352941,5c321ebf6558270001bd79aa,64d2fd46c836a06233681665,64dc7cf7479cdcf15e86de90,,,,,,,sngl,resources/Empty.png,resources/DG.BMP,Door3,0.455555556,0.113425926,1,0,0,0.597,optionRight,70,12250,6,4,0,4,0,1,,,,,,,,,,,,,,,,,,,,,,,,,,,,,,,,,,,,,,,
,,,,,,,,2023-08-16_08h39.23.593,HF_wild_card,2022.2.4,Win32,58.82352941,5c321ebf6558270001bd79aa,64d2fd46c836a06233681665,64dc7cf7479cdcf15e86de90,,,,,,,sngl,resources/Empty.png,resources/DB.BMP,Door1,0.193518519,0.053703704,1,0,0,0.937,optionRight,30,12280,6,5,0,5,0,1,,,,,,,,,,,,,,,,,,,,,,,,,,,,,,,,,,,,,,,
,,,,,,,,2023-08-16_08h39.23.593,HF_wild_card,2022.2.4,Win32,58.82352941,5c321ebf6558270001bd79aa,64d2fd46c836a06233681665,64dc7cf7479cdcf15e86de90,,,,,,,decisionTrl,resources/DG.BMP,resources/DY.BMP,Door4,0.290740741,0.056944444,1,0,0,0.922,optionRight,60,12340,6,6,0,6,0,1,,,,,,,,,,,,,,,,,,,,,,,,,,,,,,,,,,,,,,,
,,,,,,,,2023-08-16_08h39.23.593,HF_wild_card,2022.2.4,Win32,58.82352941,5c321ebf6558270001bd79aa,64d2fd46c836a06233681665,64dc7cf7479cdcf15e86de90,,,,,,,ctch,resources/DB.BMP,resources/DY.BMP,Door4,0.270833333,0.060648148,1,0,0,0.81,optionRight,80,12420,6,7,0,7,0,1,,,,,,,,,,,,,,,,,,,,,,,,,,,,,,,,,,,,,,,
,,,,,,,,2023-08-16_08h39.23.593,HF_wild_card,2022.2.4,Win32,58.82352941,5c321ebf6558270001bd79aa,64d2fd46c836a06233681665,64dc7cf7479cdcf15e86de90,,,,,,,decisionTrl,resources/DY.BMP,resources/DG.BMP,Door4,-0.147222222,0.029166667,1,0,0,0.632,optionLeft,60,12480,6,8,0,8,0,1,,,,,,,,,,,,,,,,,,,,,,,,,,,,,,,,,,,,,,,
,,,,,,,,2023-08-16_08h39.23.593,HF_wild_card,2022.2.4,Win32,58.82352941,5c321ebf6558270001bd79aa,64d2fd46c836a06233681665,64dc7cf7479cdcf15e86de90,,,,,,,decisionTrl,resources/DBN.BMP,resources/DG.BMP,Door3,0.28287037,0.031018519,1,0,0,0.973,optionRight,70,12550,6,9,0,9,0,1,,,,,,,,,,,,,,,,,,,,,,,,,,,,,,,,,,,,,,,
,,,,,,,,2023-08-16_08h39.23.593,HF_wild_card,2022.2.4,Win32,58.82352941,5c321ebf6558270001bd79aa,64d2fd46c836a06233681665,64dc7cf7479cdcf15e86de90,,,,,,,ctch,resources/DY.BMP,resources/DB.BMP,Door4,-0.22037037,0.056018519,1,0,0,0.664,optionLeft,80,12630,6,10,0,10,0,1,,,,,,,,,,,,,,,,,,,,,,,,,,,,,,,,,,,,,,,
,,,,,,,,2023-08-16_08h39.23.593,HF_wild_card,2022.2.4,Win32,58.82352941,5c321ebf6558270001bd79aa,64d2fd46c836a06233681665,64dc7cf7479cdcf15e86de90,,,,,,,decisionTrl,resources/DY.BMP,resources/DBN.BMP,Door4,-0.134722222,0.060185185,1,0,0,0.718,optionLeft,60,12690,6,11,0,11,0,1,,,,,,,,,,,,,,,,,,,,,,,,,,,,,,,,,,,,,,,
,,,,,,,,2023-08-16_08h39.23.593,HF_wild_card,2022.2.4,Win32,58.82352941,5c321ebf6558270001bd79aa,64d2fd46c836a06233681665,64dc7cf7479cdcf15e86de90,,,,,,,ctch,resources/DG.BMP,resources/DR.BMP,Door3,-0.146296296,0.098148148,1,0,0,1.276,optionLeft,70,12760,6,12,0,12,0,1,,,,,,,,,,,,,,,,,,,,,,,,,,,,,,,,,,,,,,,
,,,,,,,,2023-08-16_08h39.23.593,HF_wild_card,2022.2.4,Win32,58.82352941,5c321ebf6558270001bd79aa,64d2fd46c836a06233681665,64dc7cf7479cdcf15e86de90,,,,,,,decisionTrl,resources/DG.BMP,resources/DY.BMP,Door4,0.268055556,0.00787037,1,0,0,6.373,optionRight,60,12820,6,13,0,13,0,1,,,,,,,,,,,,,,,,,,,,,,,,,,,,,,,,,,,,,,,
,,,,,,,,2023-08-16_08h39.23.593,HF_wild_card,2022.2.4,Win32,58.82352941,5c321ebf6558270001bd79aa,64d2fd46c836a06233681665,64dc7cf7479cdcf15e86de90,,,,,,,sngl,resources/Empty.png,resources/DR.BMP,Door2,0.194907407,0.06712963,1,0,0,0.551,optionRight,40,12860,6,14,0,14,0,1,,,,,,,,,,,,,,,,,,,,,,,,,,,,,,,,,,,,,,,
,,,,,,,,2023-08-16_08h39.23.593,HF_wild_card,2022.2.4,Win32,58.82352941,5c321ebf6558270001bd79aa,64d2fd46c836a06233681665,64dc7cf7479cdcf15e86de90,,,,,,,decisionTrl,resources/DB.BMP,resources/DR.BMP,Door2,0.283333333,0.068981481,1,0,0,0.949,optionRight,40,12900,6,15,0,15,0,1,,,,,,,,,,,,,,,,,,,,,,,,,,,,,,,,,,,,,,,
,,,,,,,,2023-08-16_08h39.23.593,HF_wild_card,2022.2.4,Win32,58.82352941,5c321ebf6558270001bd79aa,64d2fd46c836a06233681665,64dc7cf7479cdcf15e86de90,,,,,,,sngl,resources/Empty.png,resources/DBN.BMP,WildCard_Ex,0.325462963,0.031481481,1,0,0,4.08,optionRight,45,12945,6,16,0,16,0,1,,,,,,,,,,,,,,,,,,,,,,,,,,,,,,,,,,,,,,,
,,,,,,,,2023-08-16_08h39.23.593,HF_wild_card,2022.2.4,Win32,58.82352941,5c321ebf6558270001bd79aa,64d2fd46c836a06233681665,64dc7cf7479cdcf15e86de90,,,,,,,decisionTrl,resources/DB.BMP,resources/DR.BMP,Door2,0.316666667,0.063888889,1,0,0,1.001,optionRight,20,12965,6,17,0,17,0,1,,,,,,,,,,,,,,,,,,,,,,,,,,,,,,,,,,,,,,,
,,,,,,,,2023-08-16_08h39.23.593,HF_wild_card,2022.2.4,Win32,58.82352941,5c321ebf6558270001bd79aa,64d2fd46c836a06233681665,64dc7cf7479cdcf15e86de90,,,,,,,decisionTrl,resources/DR.BMP,resources/DB.BMP,Door2,-0.156018519,0.029166667,1,0,0,0.95,optionLeft,40,13005,6,18,0,18,0,1,,,,,,,,,,,,,,,,,,,,,,,,,,,,,,,,,,,,,,,
,,,,,,,,2023-08-16_08h39.23.593,HF_wild_card,2022.2.4,Win32,58.82352941,5c321ebf6558270001bd79aa,64d2fd46c836a06233681665,64dc7cf7479cdcf15e86de90,,,,,,,ctch,resources/DY.BMP,resources/DB.BMP,Door4,-0.195833333,0.060185185,1,0,0,0.648,optionLeft,80,13085,6,19,0,19,0,1,,,,,,,,,,,,,,,,,,,,,,,,,,,,,,,,,,,,,,,
,,,,,,,,2023-08-16_08h39.23.593,HF_wild_card,2022.2.4,Win32,58.82352941,5c321ebf6558270001bd79aa,64d2fd46c836a06233681665,64dc7cf7479cdcf15e86de90,,,,,,,ctch,resources/DG.BMP,resources/DR.BMP,Door3,-0.237037037,0.037962963,1,0,0,1,optionLeft,70,13155,6,20,0,20,0,1,,,,,,,,,,,,,,,,,,,,,,,,,,,,,,,,,,,,,,,
,,,,,,,,2023-08-16_08h39.23.593,HF_wild_card,2022.2.4,Win32,58.82352941,5c321ebf6558270001bd79aa,64d2fd46c836a06233681665,64dc7cf7479cdcf15e86de90,,,,,,,decisionTrl,resources/DR.BMP,resources/DB.BMP,Door2,-0.252314815,0.08287037,1,0,0,1.147,optionLeft,20,13175,6,21,0,21,0,1,,,,,,,,,,,,,,,,,,,,,,,,,,,,,,,,,,,,,,,
,,,,,,,,2023-08-16_08h39.23.593,HF_wild_card,2022.2.4,Win32,58.82352941,5c321ebf6558270001bd79aa,64d2fd46c836a06233681665,64dc7cf7479cdcf15e86de90,,,,,,,ctch,resources/DR.BMP,resources/DG.BMP,Door3,0.225925926,0.035185185,1,0,0,0.793,optionRight,70,13245,6,22,0,22,0,1,,,,,,,,,,,,,,,,,,,,,,,,,,,,,,,,,,,,,,,
,,,,,,,,2023-08-16_08h39.23.593,HF_wild_card,2022.2.4,Win32,58.82352941,5c321ebf6558270001bd79aa,64d2fd46c836a06233681665,64dc7cf7479cdcf15e86de90,,,,,,,sngl,resources/DY.BMP,resources/Empty.png,Door4,-0.274537037,0.065740741,1,0,0,0.578,optionLeft,60,13305,6,23,0,23,0,1,,,,,,,,,,,,,,,,,,,,,,,,,,,,,,,,,,,,,,,
,,,,,,,,2023-08-16_08h39.23.593,HF_wild_card,2022.2.4,Win32,58.82352941,5c321ebf6558270001bd79aa,64d2fd46c836a06233681665,64dc7cf7479cdcf15e86de90,,,,,,,decisionTrl,resources/DR.BMP,resources/DBN.BMP,WildCard_Ex,0.31712963,0.036111111,1,0,0,0.835,optionRight,45,13350,6,24,0,24,0,1,,,,,,,,,,,,,,,,,,,,,,,,,,,,,,,,,,,,,,,
,,,,,,,,2023-08-16_08h39.23.593,HF_wild_card,2022.2.4,Win32,58.82352941,5c321ebf6558270001bd79aa,64d2fd46c836a06233681665,64dc7cf7479cdcf15e86de90,,,,,,,sngl,resources/DG.BMP,resources/Empty.png,Door3,-0.219907407,0.037037037,1,0,0,0.648,optionLeft,70,13420,6,25,0,25,0,1,,,,,,,,,,,,,,,,,,,,,,,,,,,,,,,,,,,,,,,
,,,,,,,,2023-08-16_08h39.23.593,HF_wild_card,2022.2.4,Win32,58.82352941,5c321ebf6558270001bd79aa,64d2fd46c836a06233681665,64dc7cf7479cdcf15e86de90,,,,,,,sngl,resources/DB.BMP,resources/Empty.png,Door1,-0.118518519,0.044907407,1,0,0,0.815,optionLeft,30,13450,6,26,0,26,0,1,,,,,,,,,,,,,,,,,,,,,,,,,,,,,,,,,,,,,,,
,,,,,,,,2023-08-16_08h39.23.593,HF_wild_card,2022.2.4,Win32,58.82352941,5c321ebf6558270001bd79aa,64d2fd46c836a06233681665,64dc7cf7479cdcf15e86de90,,,,,,,sngl,resources/Empty.png,resources/DY.BMP,Door4,0.162962963,0.028240741,1,0,0,0.593,optionRight,80,13530,6,27,0,27,0,1,,,,,,,,,,,,,,,,,,,,,,,,,,,,,,,,,,,,,,,
,,,,,,,,2023-08-16_08h39.23.593,HF_wild_card,2022.2.4,Win32,58.82352941,5c321ebf6558270001bd79aa,64d2fd46c836a06233681665,64dc7cf7479cdcf15e86de90,,,,,,,sngl,resources/Empty.png,resources/DBN.BMP,WildCard_Ex,0.197222222,0.061574074,1,0,0,0.676,optionRight,55,13585,6,28,0,28,0,1,,,,,,,,,,,,,,,,,,,,,,,,,,,,,,,,,,,,,,,
,,,,,,,,2023-08-16_08h39.23.593,HF_wild_card,2022.2.4,Win32,58.82352941,5c321ebf6558270001bd79aa,64d2fd46c836a06233681665,64dc7cf7479cdcf15e86de90,,,,,,,ctch,resources/DR.BMP,resources/DG.BMP,Door3,0.231018519,0.022222222,1,0,0,1.486,optionRight,70,13655,6,29,0,29,0,1,,,,,,,,,,,,,,,,,,,,,,,,,,,,,,,,,,,,,,,
,,,,,,,,2023-08-16_08h39.23.593,HF_wild_card,2022.2.4,Win32,58.82352941,5c321ebf6558270001bd79aa,64d2fd46c836a06233681665,64dc7cf7479cdcf15e86de90,,,,,,,decisionTrl,resources/DB.BMP,resources/DR.BMP,Door2,0.226388889,0.015277778,1,0,0,1.021,optionRight,20,13675,6,30,0,30,0,1,,,,,,,,,,,,,,,,,,,,,,,,,,,,,,,,,,,,,,,
,,,,,,,,2023-08-16_08h39.23.593,HF_wild_card,2022.2.4,Win32,58.82352941,5c321ebf6558270001bd79aa,64d2fd46c836a06233681665,64dc7cf7479cdcf15e86de90,,,,,,,decisionTrl,resources/DG.BMP,resources/DY.BMP,Door3,-0.217592593,0.101851852,1,0,0,0.598,optionLeft,70,13745,6,31,0,31,0,1,,,,,,,,,,,,,,,,,,,,,,,,,,,,,,,,,,,,,,,
,,,,,,,,2023-08-16_08h39.23.593,HF_wild_card,2022.2.4,Win32,58.82352941,5c321ebf6558270001bd79aa,64d2fd46c836a06233681665,64dc7cf7479cdcf15e86de90,,,,,,,decisionTrl,resources/DBN.BMP,resources/DB.BMP,WildCard_Ex,-0.356944444,0.085648148,1,0,0,0.799,optionLeft,55,13800,6,32,0,32,0,1,,,,,,,,,,,,,,,,,,,,,,,,,,,,,,,,,,,,,,,
,,,,,,,,2023-08-16_08h39.23.593,HF_wild_card,2022.2.4,Win32,58.82352941,5c321ebf6558270001bd79aa,64d2fd46c836a06233681665,64dc7cf7479cdcf15e86de90,,,,,,,decisionTrl,resources/DBN.BMP,resources/DR.BMP,Door2,0.222685185,0.051388889,1,0,0,1.132,optionRight,40,13840,6,33,0,33,0,1,,,,,,,,,,,,,,,,,,,,,,,,,,,,,,,,,,,,,,,
,,,,,,,,2023-08-16_08h39.23.593,HF_wild_card,2022.2.4,Win32,58.82352941,5c321ebf6558270001bd79aa,64d2fd46c836a06233681665,64dc7cf7479cdcf15e86de90,,,,,,,decisionTrl,resources/DY.BMP,resources/DG.BMP,Door4,-0.244907407,0.065277778,1,0,0,0.666,optionLeft,80,13920,6,34,0,34,0,1,,,,,,,,,,,,,,,,,,,,,,,,,,,,,,,,,,,,,,,
,,,,,,,,2023-08-16_08h39.23.593,HF_wild_card,2022.2.4,Win32,58.82352941,5c321ebf6558270001bd79aa,64d2fd46c836a06233681665,64dc7cf7479cdcf15e86de90,,,,,,,ctch,resources/DB.BMP,resources/DY.BMP,Door4,0.185185185,0.014351852,1,0,0,0.732,optionRight,60,13980,6,35,0,35,0,1,,,,,,,,,,,,,,,,,,,,,,,,,,,,,,,,,,,,,,,
,,,,,,,,2023-08-16_08h39.23.593,HF_wild_card,2022.2.4,Win32,58.82352941,5c321ebf6558270001bd79aa,64d2fd46c836a06233681665,64dc7cf7479cdcf15e86de90,,,,,,,sngl,resources/DR.BMP,resources/Empty.png,Door2,-0.347685185,0.056481481,1,0,0,0.539,optionLeft,20,14000,6,36,0,36,0,1,,,,,,,,,,,,,,,,,,,,,,,,,,,,,,,,,,,,,,,
,,,,,,,,2023-08-16_08h39.23.593,HF_wild_card,2022.2.4,Win32,58.82352941,5c321ebf6558270001bd79aa,64d2fd46c836a06233681665,64dc7cf7479cdcf15e86de90,,,,,,,decisionTrl,resources/DBN.BMP,resources/DY.BMP,Door4,0.235185185,0.05787037,1,0,0,0.649,optionRight,60,14060,6,37,0,37,0,1,,,,,,,,,,,,,,,,,,,,,,,,,,,,,,,,,,,,,,,
,,,,,,,,2023-08-16_08h39.23.593,HF_wild_card,2022.2.4,Win32,58.82352941,5c321ebf6558270001bd79aa,64d2fd46c836a06233681665,64dc7cf7479cdcf15e86de90,,,,,,,sngl,resources/DBN.BMP,resources/Empty.png,WildCard_Ex,-0.143981481,0.023148148,1,0,0,0.675,optionLeft,55,14115,6,38,0,38,0,1,,,,,,,,,,,,,,,,,,,,,,,,,,,,,,,,,,,,,,,
,,,,,,,,2023-08-16_08h39.23.593,HF_wild_card,2022.2.4,Win32,58.82352941,5c321ebf6558270001bd79aa,64d2fd46c836a06233681665,64dc7cf7479cdcf15e86de90,,,,,,,decisionTrl,resources/DG.BMP,resources/DBN.BMP,WildCard_Ex,0.169907407,0.019907407,1,0,0,0.763,optionRight,45,14160,6,39,0,39,0,1,,,,,,,,,,,,,,,,,,,,,,,,,,,,,,,,,,,,,,,
,,,,,,,,2023-08-16_08h39.23.593,HF_wild_card,2022.2.4,Win32,58.82352941,5c321ebf6558270001bd79aa,64d2fd46c836a06233681665,64dc7cf7479cdcf15e86de90,,,,,,,decisionTrl,resources/DB.BMP,resources/DR.BMP,Door2,0.152314815,0.034722222,1,0,0,1.382,optionRight,20,14180,6,40,0,40,0,1,,,,,,,,,,,,,,,,,,,,,,,,,,,,,,,,,,,,,,,
,,,,,,,,2023-08-16_08h39.23.593,HF_wild_card,2022.2.4,Win32,58.82352941,5c321ebf6558270001bd79aa,64d2fd46c836a06233681665,64dc7cf7479cdcf15e86de90,,,,,,,sngl,resources/DBN.BMP,resources/Empty.png,WildCard_Ex,-0.247222222,0.025,1,0,0,0.666,optionLeft,45,14225,6,41,0,41,0,1,,,,,,,,,,,,,,,,,,,,,,,,,,,,,,,,,,,,,,,
,,,,,,,,2023-08-16_08h39.23.593,HF_wild_card,2022.2.4,Win32,58.82352941,5c321ebf6558270001bd79aa,64d2fd46c836a06233681665,64dc7cf7479cdcf15e86de90,,,,,,,decisionTrl,resources/DG.BMP,resources/DY.BMP,Door4,0.313888889,0.026851852,1,0,0,1.182,optionRight,80,14305,6,42,0,42,0,1,,,,,,,,,,,,,,,,,,,,,,,,,,,,,,,,,,,,,,,
,,,,,,,,2023-08-16_08h39.23.593,HF_wild_card,2022.2.4,Win32,58.82352941,5c321ebf6558270001bd79aa,64d2fd46c836a06233681665,64dc7cf7479cdcf15e86de90,,,,,,,decisionTrl,resources/DY.BMP,resources/DG.BMP,Door3,0.185185185,0.04537037,1,0,0,1.031,optionRight,70,14375,6,43,0,43,0,1,,,,,,,,,,,,,,,,,,,,,,,,,,,,,,,,,,,,,,,
,,,,,,,,2023-08-16_08h39.23.593,HF_wild_card,2022.2.4,Win32,58.82352941,5c321ebf6558270001bd79aa,64d2fd46c836a06233681665,64dc7cf7479cdcf15e86de90,,,,,,,,,,,,,,,,,,,,,,,,,,5,0,5,0,1,,,,,,,,,,,,,,,,,,,,,,,,,,,,,,,,,,
,,,,,,,,2023-08-16_08h39.23.593,HF_wild_card,2022.2.4,Win32,58.82352941,5c321ebf6558270001bd79aa,64d2fd46c836a06233681665,64dc7cf7479cdcf15e86de90,,,,,,,ctch,resources/DY.BMP,resources/DB.BMP,Door4,-0.231944444,0.043518519,1,0,0,1.569,optionLeft,80,14455,7,0,0,0,0,1,,,,,,,,,,,,,,,,,,,,,,,,,,,,,,,,,,,,,,,
,,,,,,,,2023-08-16_08h39.23.593,HF_wild_card,2022.2.4,Win32,58.82352941,5c321ebf6558270001bd79aa,64d2fd46c836a06233681665,64dc7cf7479cdcf15e86de90,,,,,,,ctch,resources/DY.BMP,resources/DB.BMP,Door4,-0.278240741,0.023148148,1,0,0,0.6,optionLeft,60,14515,7,1,0,1,0,1,,,,,,,,,,,,,,,,,,,,,,,,,,,,,,,,,,,,,,,
,,,,,,,,2023-08-16_08h39.23.593,HF_wild_card,2022.2.4,Win32,58.82352941,5c321ebf6558270001bd79aa,64d2fd46c836a06233681665,64dc7cf7479cdcf15e86de90,,,,,,,decisionTrl,resources/DG.BMP,resources/DY.BMP,Door3,-0.131018519,0.05787037,1,0,0,0.933,optionLeft,70,14585,7,2,0,2,0,1,,,,,,,,,,,,,,,,,,,,,,,,,,,,,,,,,,,,,,,
,,,,,,,,2023-08-16_08h39.23.593,HF_wild_card,2022.2.4,Win32,58.82352941,5c321ebf6558270001bd79aa,64d2fd46c836a06233681665,64dc7cf7479cdcf15e86de90,,,,,,,decisionTrl,resources/DY.BMP,resources/DG.BMP,Door4,-0.256018519,0.076388889,1,0,0,0.865,optionLeft,80,14665,7,3,0,3,0,1,,,,,,,,,,,,,,,,,,,,,,,,,,,,,,,,,,,,,,,
,,,,,,,,2023-08-16_08h39.23.593,HF_wild_card,2022.2.4,Win32,58.82352941,5c321ebf6558270001bd79aa,64d2fd46c836a06233681665,64dc7cf7479cdcf15e86de90,,,,,,,decisionTrl,resources/DR.BMP,resources/DB.BMP,Door1,0.307407407,0.044444444,1,0,0,1.099,optionRight,30,14695,7,4,0,4,0,1,,,,,,,,,,,,,,,,,,,,,,,,,,,,,,,,,,,,,,,
,,,,,,,,2023-08-16_08h39.23.593,HF_wild_card,2022.2.4,Win32,58.82352941,5c321ebf6558270001bd79aa,64d2fd46c836a06233681665,64dc7cf7479cdcf15e86de90,,,,,,,decisionTrl,resources/DY.BMP,resources/DG.BMP,Door3,0.205092593,0.026851852,1,0,0,0.9,optionRight,70,14765,7,5,0,5,0,1,,,,,,,,,,,,,,,,,,,,,,,,,,,,,,,,,,,,,,,
,,,,,,,,2023-08-16_08h39.23.593,HF_wild_card,2022.2.4,Win32,58.82352941,5c321ebf6558270001bd79aa,64d2fd46c836a06233681665,64dc7cf7479cdcf15e86de90,,,,,,,decisionTrl,resources/DG.BMP,resources/DY.BMP,Door4,0.206481481,0.069907407,1,0,0,0.615,optionRight,60,14825,7,6,0,6,0,1,,,,,,,,,,,,,,,,,,,,,,,,,,,,,,,,,,,,,,,
,,,,,,,,2023-08-16_08h39.23.593,HF_wild_card,2022.2.4,Win32,58.82352941,5c321ebf6558270001bd79aa,64d2fd46c836a06233681665,64dc7cf7479cdcf15e86de90,,,,,,,decisionTrl,resources/DY.BMP,resources/DG.BMP,Door4,-0.24537037,0.066203704,1,0,0,0.6,optionLeft,60,14885,7,7,0,7,0,1,,,,,,,,,,,,,,,,,,,,,,,,,,,,,,,,,,,,,,,
,,,,,,,,2023-08-16_08h39.23.593,HF_wild_card,2022.2.4,Win32,58.82352941,5c321ebf6558270001bd79aa,64d2fd46c836a06233681665,64dc7cf7479cdcf15e86de90,,,,,,,decisionTrl,resources/DR.BMP,resources/DB.BMP,Door2,-0.253240741,0.082407407,1,0,0,1.234,optionLeft,20,14905,7,8,0,8,0,1,,,,,,,,,,,,,,,,,,,,,,,,,,,,,,,,,,,,,,,
,,,,,,,,2023-08-16_08h39.23.593,HF_wild_card,2022.2.4,Win32,58.82352941,5c321ebf6558270001bd79aa,64d2fd46c836a06233681665,64dc7cf7479cdcf15e86de90,,,,,,,decisionTrl,resources/DB.BMP,resources/DR.BMP,Door2,0.279166667,0.030555556,1,0,0,0.716,optionRight,40,14945,7,9,0,9,0,1,,,,,,,,,,,,,,,,,,,,,,,,,,,,,,,,,,,,,,,
,,,,,,,,2023-08-16_08h39.23.593,HF_wild_card,2022.2.4,Win32,58.82352941,5c321ebf6558270001bd79aa,64d2fd46c836a06233681665,64dc7cf7479cdcf15e86de90,,,,,,,decisionTrl,resources/DR.BMP,resources/DB.BMP,Door2,-0.228240741,0.073148148,1,0,0,0.6,optionLeft,20,14965,7,10,0,10,0,1,,,,,,,,,,,,,,,,,,,,,,,,,,,,,,,,,,,,,,,
,,,,,,,,2023-08-16_08h39.23.593,HF_wild_card,2022.2.4,Win32,58.82352941,5c321ebf6558270001bd79aa,64d2fd46c836a06233681665,64dc7cf7479cdcf15e86de90,,,,,,,decisionTrl,resources/DG.BMP,resources/DY.BMP,Door4,0.252314815,0.063888889,1,0,0,0.599,optionRight,80,15045,7,11,0,11,0,1,,,,,,,,,,,,,,,,,,,,,,,,,,,,,,,,,,,,,,,
,,,,,,,,2023-08-16_08h39.23.593,HF_wild_card,2022.2.4,Win32,58.82352941,5c321ebf6558270001bd79aa,64d2fd46c836a06233681665,64dc7cf7479cdcf15e86de90,,,,,,,decisionTrl,resources/DR.BMP,resources/DB.BMP,Door2,-0.321296296,0.063888889,1,0,0,0.967,optionLeft,40,15085,7,12,0,12,0,1,,,,,,,,,,,,,,,,,,,,,,,,,,,,,,,,,,,,,,,
,,,,,,,,2023-08-16_08h39.23.593,HF_wild_card,2022.2.4,Win32,58.82352941,5c321ebf6558270001bd79aa,64d2fd46c836a06233681665,64dc7cf7479cdcf15e86de90,,,,,,,decisionTrl,resources/DB.BMP,resources/DR.BMP,Door2,0.241203704,0.021759259,1,0,0,0.799,optionRight,40,15125,7,13,0,13,0,1,,,,,,,,,,,,,,,,,,,,,,,,,,,,,,,,,,,,,,,
,,,,,,,,2023-08-16_08h39.23.593,HF_wild_card,2022.2.4,Win32,58.82352941,5c321ebf6558270001bd79aa,64d2fd46c836a06233681665,64dc7cf7479cdcf15e86de90,,,,,,,ctch,resources/DR.BMP,resources/DG.BMP,Door3,0.213425926,0.015277778,1,0,0,0.899,optionRight,70,15195,7,14,0,14,0,1,,,,,,,,,,,,,,,,,,,,,,,,,,,,,,,,,,,,,,,
,,,,,,,,2023-08-16_08h39.23.593,HF_wild_card,2022.2.4,Win32,58.82352941,5c321ebf6558270001bd79aa,64d2fd46c836a06233681665,64dc7cf7479cdcf15e86de90,,,,,,,ctch,resources/DG.BMP,resources/DR.BMP,Door3,-0.2625,0.034722222,1,0,0,0.715,optionLeft,70,15265,7,15,0,15,0,1,,,,,,,,,,,,,,,,,,,,,,,,,,,,,,,,,,,,,,,
,,,,,,,,2023-08-16_08h39.23.593,HF_wild_card,2022.2.4,Win32,58.82352941,5c321ebf6558270001bd79aa,64d2fd46c836a06233681665,64dc7cf7479cdcf15e86de90,,,,,,,decisionTrl,resources/DR.BMP,resources/DB.BMP,Door2,-0.158796296,0.052314815,1,0,0,0.914,optionLeft,40,15305,7,16,0,16,0,1,,,,,,,,,,,,,,,,,,,,,,,,,,,,,,,,,,,,,,,
,,,,,,,,2023-08-16_08h39.23.593,HF_wild_card,2022.2.4,Win32,58.82352941,5c321ebf6558270001bd79aa,64d2fd46c836a06233681665,64dc7cf7479cdcf15e86de90,,,,,,,decisionTrl,resources/DY.BMP,resources/DG.BMP,Door3,0.200462963,0.062037037,1,0,0,0.75,optionRight,70,15375,7,17,0,17,0,1,,,,,,,,,,,,,,,,,,,,,,,,,,,,,,,,,,,,,,,
,,,,,,,,2023-08-16_08h39.23.593,HF_wild_card,2022.2.4,Win32,58.82352941,5c321ebf6558270001bd79aa,64d2fd46c836a06233681665,64dc7cf7479cdcf15e86de90,,,,,,,decisionTrl,resources/DY.BMP,resources/DG.BMP,Door4,-0.325,0.036111111,1,0,0,0.782,optionLeft,80,15455,7,18,0,18,0,1,,,,,,,,,,,,,,,,,,,,,,,,,,,,,,,,,,,,,,,
,,,,,,,,2023-08-16_08h39.23.593,HF_wild_card,2022.2.4,Win32,58.82352941,5c321ebf6558270001bd79aa,64d2fd46c836a06233681665,64dc7cf7479cdcf15e86de90,,,,,,,decisionTrl,resources/DB.BMP,resources/DR.BMP,Door2,0.22962963,-0.001851852,1,0,0,0.783,optionRight,40,15495,7,19,0,19,0,1,,,,,,,,,,,,,,,,,,,,,,,,,,,,,,,,,,,,,,,
,,,,,,,,2023-08-16_08h39.23.593,HF_wild_card,2022.2.4,Win32,58.82352941,5c321ebf6558270001bd79aa,64d2fd46c836a06233681665,64dc7cf7479cdcf15e86de90,,,,,,,ctch,resources/DR.BMP,resources/DG.BMP,Door3,0.259722222,0.084722222,1,0,0,0.633,optionRight,70,15565,7,20,0,20,0,1,,,,,,,,,,,,,,,,,,,,,,,,,,,,,,,,,,,,,,,
,,,,,,,,2023-08-16_08h39.23.593,HF_wild_card,2022.2.4,Win32,58.82352941,5c321ebf6558270001bd79aa,64d2fd46c836a06233681665,64dc7cf7479cdcf15e86de90,,,,,,,ctch,resources/DB.BMP,resources/DY.BMP,Door4,0.2375,0.029166667,1,0,0,0.633,optionRight,60,15625,7,21,0,21,0,1,,,,,,,,,,,,,,,,,,,,,,,,,,,,,,,,,,,,,,,
,,,,,,,,2023-08-16_08h39.23.593,HF_wild_card,2022.2.4,Win32,58.82352941,5c321ebf6558270001bd79aa,64d2fd46c836a06233681665,64dc7cf7479cdcf15e86de90,,,,,,,decisionTrl,resources/DG.BMP,resources/DY.BMP,Door3,-0.173148148,0.026388889,1,0,0,0.632,optionLeft,70,15695,7,22,0,22,0,1,,,,,,,,,,,,,,,,,,,,,,,,,,,,,,,,,,,,,,,
,,,,,,,,2023-08-16_08h39.23.593,HF_wild_card,2022.2.4,Win32,58.82352941,5c321ebf6558270001bd79aa,64d2fd46c836a06233681665,64dc7cf7479cdcf15e86de90,,,,,,,ctch,resources/DB.BMP,resources/DY.BMP,Door4,0.193518519,0.034722222,1,0,0,0.514,optionRight,80,15775,7,23,0,23,0,1,,,,,,,,,,,,,,,,,,,,,,,,,,,,,,,,,,,,,,,
,,,,,,,,2023-08-16_08h39.23.593,HF_wild_card,2022.2.4,Win32,58.82352941,5c321ebf6558270001bd79aa,64d2fd46c836a06233681665,64dc7cf7479cdcf15e86de90,,,,,,,ctch,resources/DY.BMP,resources/DB.BMP,Door4,-0.210185185,0.046296296,1,0,0,0.515,optionLeft,80,15855,7,24,0,24,0,1,,,,,,,,,,,,,,,,,,,,,,,,,,,,,,,,,,,,,,,
,,,,,,,,2023-08-16_08h39.23.593,HF_wild_card,2022.2.4,Win32,58.82352941,5c321ebf6558270001bd79aa,64d2fd46c836a06233681665,64dc7cf7479cdcf15e86de90,,,,,,,decisionTrl,resources/DB.BMP,resources/DR.BMP,Door2,0.25,0.05462963,1,0,0,0.666,optionRight,20,15875,7,25,0,25,0,1,,,,,,,,,,,,,,,,,,,,,,,,,,,,,,,,,,,,,,,
,,,,,,,,2023-08-16_08h39.23.593,HF_wild_card,2022.2.4,Win32,58.82352941,5c321ebf6558270001bd79aa,64d2fd46c836a06233681665,64dc7cf7479cdcf15e86de90,,,,,,,decisionTrl,resources/DB.BMP,resources/DR.BMP,Door2,0.227314815,0.074537037,1,0,0,0.666,optionRight,20,15895,7,26,0,26,0,1,,,,,,,,,,,,,,,,,,,,,,,,,,,,,,,,,,,,,,,
,,,,,,,,2023-08-16_08h39.23.593,HF_wild_card,2022.2.4,Win32,58.82352941,5c321ebf6558270001bd79aa,64d2fd46c836a06233681665,64dc7cf7479cdcf15e86de90,,,,,,,ctch,resources/DG.BMP,resources/DR.BMP,Door3,-0.241203704,0.059722222,1,0,0,0.617,optionLeft,70,15965,7,27,0,27,0,1,,,,,,,,,,,,,,,,,,,,,,,,,,,,,,,,,,,,,,,
,,,,,,,,2023-08-16_08h39.23.593,HF_wild_card,2022.2.4,Win32,58.82352941,5c321ebf6558270001bd79aa,64d2fd46c836a06233681665,64dc7cf7479cdcf15e86de90,,,,,,,ctch,resources/DG.BMP,resources/DR.BMP,Door3,-0.292592593,0.07037037,1,0,0,0.533,optionLeft,70,16035,7,28,0,28,0,1,,,,,,,,,,,,,,,,,,,,,,,,,,,,,,,,,,,,,,,
,,,,,,,,2023-08-16_08h39.23.593,HF_wild_card,2022.2.4,Win32,58.82352941,5c321ebf6558270001bd79aa,64d2fd46c836a06233681665,64dc7cf7479cdcf15e86de90,,,,,,,ctch,resources/DR.BMP,resources/DG.BMP,Door3,0.211574074,0.007407407,1,0,0,0.566,optionRight,70,16105,7,29,0,29,0,1,,,,,,,,,,,,,,,,,,,,,,,,,,,,,,,,,,,,,,,
,,,,,,,,2023-08-16_08h39.23.593,HF_wild_card,2022.2.4,Win32,58.82352941,5c321ebf6558270001bd79aa,64d2fd46c836a06233681665,64dc7cf7479cdcf15e86de90,,,,,,,decisionTrl,resources/DY.BMP,resources/DG.BMP,Door4,-0.316203704,0.019907407,1,0,0,0.833,optionLeft,60,16165,7,30,0,30,0,1,,,,,,,,,,,,,,,,,,,,,,,,,,,,,,,,,,,,,,,
,,,,,,,,2023-08-16_08h39.23.593,HF_wild_card,2022.2.4,Win32,58.82352941,5c321ebf6558270001bd79aa,64d2fd46c836a06233681665,64dc7cf7479cdcf15e86de90,,,,,,,ctch,resources/DB.BMP,resources/DY.BMP,Door4,0.324074074,0.092592593,1,0,0,0.55,optionRight,60,16225,7,31,0,31,0,1,,,,,,,,,,,,,,,,,,,,,,,,,,,,,,,,,,,,,,,
,,,,,,,,2023-08-16_08h39.23.593,HF_wild_card,2022.2.4,Win32,58.82352941,5c321ebf6558270001bd79aa,64d2fd46c836a06233681665,64dc7cf7479cdcf15e86de90,,,,,,,decisionTrl,resources/DG.BMP,resources/DY.BMP,Door4,0.25787037,0.031018519,1,0,0,0.5,optionRight,60,16285,7,32,0,32,0,1,,,,,,,,,,,,,,,,,,,,,,,,,,,,,,,,,,,,,,,
,,,,,,,,2023-08-16_08h39.23.593,HF_wild_card,2022.2.4,Win32,58.82352941,5c321ebf6558270001bd79aa,64d2fd46c836a06233681665,64dc7cf7479cdcf15e86de90,,,,,,,decisionTrl,resources/DB.BMP,resources/DR.BMP,Door2,0.225,0.028703704,1,0,0,0.799,optionRight,40,16325,7,33,0,33,0,1,,,,,,,,,,,,,,,,,,,,,,,,,,,,,,,,,,,,,,,
,,,,,,,,2023-08-16_08h39.23.593,HF_wild_card,2022.2.4,Win32,58.82352941,5c321ebf6558270001bd79aa,64d2fd46c836a06233681665,64dc7cf7479cdcf15e86de90,,,,,,,decisionTrl,resources/DR.BMP,resources/DB.BMP,Door2,-0.243981481,0.04537037,1,0,0,0.598,optionLeft,20,16345,7,34,0,34,0,1,,,,,,,,,,,,,,,,,,,,,,,,,,,,,,,,,,,,,,,
,,,,,,,,2023-08-16_08h39.23.593,HF_wild_card,2022.2.4,Win32,58.82352941,5c321ebf6558270001bd79aa,64d2fd46c836a06233681665,64dc7cf7479cdcf15e86de90,,,,,,,decisionTrl,resources/DG.BMP,resources/DY.BMP,Door3,-0.206944444,0.043518519,1,0,0,0.766,optionLeft,70,16415,7,35,0,35,0,1,,,,,,,,,,,,,,,,,,,,,,,,,,,,,,,,,,,,,,,
,,,,,,,,2023-08-16_08h39.23.593,HF_wild_card,2022.2.4,Win32,58.82352941,5c321ebf6558270001bd79aa,64d2fd46c836a06233681665,64dc7cf7479cdcf15e86de90,,,,,,,,,,,,,,,,,,,,,,,,,,6,0,6,0,1,,,,,,,,,,,,,,,,,,,,,,,,,,,,,,,,,,
,,,,,,,,2023-08-16_08h39.23.593,HF_wild_card,2022.2.4,Win32,58.82352941,5c321ebf6558270001bd79aa,64d2fd46c836a06233681665,64dc7cf7479cdcf15e86de90,,,,,,,,,,,,,,,,,,,,,,,,,,,,,,,4,,,,,,,,,,,,,,,,,,,,,,,,,,,,,,,,,
,,,,,,,,2023-08-16_08h39.23.593,HF_wild_card,2022.2.4,Win32,58.82352941,5c321ebf6558270001bd79aa,64d2fd46c836a06233681665,64dc7cf7479cdcf15e86de90,,,,,,,,,,,,,,,,,,,,,,,,,,,,,,,,,,,,,,,,,,,,,,,,,,,,,,,,,,,,,,,,
,,,,,,,,2023-08-16_08h39.23.593,HF_wild_card,2022.2.4,Win32,58.82352941,5c321ebf6558270001bd79aa,64d2fd46c836a06233681665,64dc7cf7479cdcf15e86de90,,,,,,,,,,,,,,,,,,,,,,,,,,,,,,,,45,WC_nonExtreme,resources/DP.BMP,0,0,0,0,1,,,,,,,,,,,,,,,,,,,,,,,,,
,,,,,,,,2023-08-16_08h39.23.593,HF_wild_card,2022.2.4,Win32,58.82352941,5c321ebf6558270001bd79aa,64d2fd46c836a06233681665,64dc7cf7479cdcf15e86de90,,,,,,,,,,,,,,,,,,,,,,,,,,,,,,,,40,Door2,resources/DR.BMP,1,0,1,0,1,,,,,,,,,,,,,,,,,,,,,,,,,
,,,,,,,,2023-08-16_08h39.23.593,HF_wild_card,2022.2.4,Win32,58.82352941,5c321ebf6558270001bd79aa,64d2fd46c836a06233681665,64dc7cf7479cdcf15e86de90,,,,,,,,,,,,,,,,,,,,,,,,,,,,,,,,45,WC_extreme,resources/DBN.BMP,2,0,2,0,1,,,,,,,,,,,,,,,,,,,,,,,,,
,,,,,,,,2023-08-16_08h39.23.593,HF_wild_card,2022.2.4,Win32,58.82352941,5c321ebf6558270001bd79aa,64d2fd46c836a06233681665,64dc7cf7479cdcf15e86de90,,,,,,,,,,,,,,,,,,,,,,,,,,,,,,,,70,Door4,resources/DY.BMP,3,0,3,0,1,,,,,,,,,,,,,,,,,,,,,,,,,
,,,,,,,,2023-08-16_08h39.23.593,HF_wild_card,2022.2.4,Win32,58.82352941,5c321ebf6558270001bd79aa,64d2fd46c836a06233681665,64dc7cf7479cdcf15e86de90,,,,,,,,,,,,,,,,,,,,,,,,,,,,,,,,70,Door3,resources/DG.BMP,4,0,4,0,1,,,,,,,,,,,,,,,,,,,,,,,,,
,,,,,,,,2023-08-16_08h39.23.593,HF_wild_card,2022.2.4,Win32,58.82352941,5c321ebf6558270001bd79aa,64d2fd46c836a06233681665,64dc7cf7479cdcf15e86de90,,,,,,,,,,,,,,,,,,,,,,,,,,,,,,,,30,Door1,resources/DB.BMP,5,0,5,0,1,,,,,,,,,,,,,,,,,,,,,,,,,
,,,,,,,,2023-08-16_08h39.23.593,HF_wild_card,2022.2.4,Win32,58.82352941,5c321ebf6558270001bd79aa,64d2fd46c836a06233681665,64dc7cf7479cdcf15e86de90,,,,,,,,,,,,,,,,,,,,,,,,,,,,,,,,,,,,,,,,,,,,,,,,,,,,,,,,,,,,,,,,
,,,,,,,,2023-08-16_08h39.23.593,HF_wild_card,2022.2.4,Win32,58.82352941,5c321ebf6558270001bd79aa,64d2fd46c836a06233681665,64dc7cf7479cdcf15e86de90,,,,,,,,,,,,,,,,,,,,,,,,,,,,,,,,,,,,,,,,0,0,0,0,1,,,,,,,,,,,,,,,,,,,,
,,,,,,,,2023-08-16_08h39.23.593,HF_wild_card,2022.2.4,Win32,58.82352941,5c321ebf6558270001bd79aa,64d2fd46c836a06233681665,64dc7cf7479cdcf15e86de90,,,,,,,,,,,,,,,,,,,,,,,,,,,,,,,,,,,,,,,,1,0,1,0,1,,,,,,,,,,,,,,,,,,,,
