Condition,Low fixed image (Door1),Low risky image (Door2),High fixed image (Door3),High risky image (Door4),Extreme Wild Card,NonExtreme Wild Card,,date,expName,psychopyVersion,OS,frameRate,PROLIFIC_PID,STUDY_ID,SESSION_ID,mouse_2.x,mouse_2.y,mouse_2.leftButton,mouse_2.midButton,mouse_2.rightButton,mouse_2.clicked_name,Trial Type,Left Option Image,Right Option Image,Chosen Door,mouse.x,mouse.y,mouse.leftButton,mouse.midButton,mouse.rightButton,mouse.time,mouse.clicked_name,Feedback,Cumulative Reward,Block,trial.thisRepN,trial.thisTrialN,trial.thisN,trial.thisIndex,trial.ran,blocks.thisRepN,blocks.thisTrialN,blocks.thisN,blocks.thisIndex,blocks.ran,Money conversion,First Outcome Reported,Shown Door (First Outcome),Displayed Image (First Outcome),outcomes.thisRepN,outcomes.thisTrialN,outcomes.thisN,outcomes.thisIndex,outcomes.ran,judgments.thisRepN,judgments.thisTrialN,judgments.thisN,judgments.thisIndex,judgments.ran,freqMouse.x,freqMouse.y,freqMouse.leftButton,freqMouse.midButton,freqMouse.rightButton,freqMouse.clicked_name,FQJ for first outcome,FQJ for second outcome,Shown Door,Displayed Image,trials.thisRepN,trials.thisTrialN,trials.thisN,trials.thisIndex,trials.ran,judgBlock.thisRepN,judgBlock.thisTrialN,judgBlock.thisN,judgBlock.thisIndex,judgBlock.ran
0,resources/DG.BMP,resources/DR.BMP,resources/DB.BMP,resources/DP.BMP,resources/DBN.BMP,resources/DY.BMP,,2023-08-06_08h25.59.200,HF_wild_card,2022.2.4,Win32,60.28817749,594a481105e73f0001450009,64ce5acb97489d65b14ecc7a,64cf4af447447ed36c81da0f,,,,,,,,,,,,,,,,,,,,,,,,,,,,,,,,,,,,,,,,,,,,,,,,,,,,,,,,,,,,,,,,
,,,,,,,,2023-08-06_08h25.59.200,HF_wild_card,2022.2.4,Win32,60.28817749,594a481105e73f0001450009,64ce5acb97489d65b14ecc7a,64cf4af447447ed36c81da0f,-0.002604167,-0.421875,1,0,0,agree,,,,,,,,,,,,,,,,,,,,,,,,,,,,,,,,,,,,,,,,,,,,,,,,,,,,,,,,,,
,,,,,,,,2023-08-06_08h25.59.200,HF_wild_card,2022.2.4,Win32,60.28817749,594a481105e73f0001450009,64ce5acb97489d65b14ecc7a,64cf4af447447ed36c81da0f,,,,,,,,,,,,,,,,,,,,,,,,,,,,,,,,,,,,,,,,,,,,,,,,,,,,,,,,,,,,,,,,
,,,,,,,,2023-08-06_08h25.59.200,HF_wild_card,2022.2.4,Win32,60.28817749,594a481105e73f0001450009,64ce5acb97489d65b14ecc7a,64cf4af447447ed36c81da0f,,,,,,,decisionTrl,resources/DP.BMP,resources/DB.BMP,Door4,-0.317708333,-0.149739583,1,0,0,2.9281,optionLeft,80,80,1,0,0,0,0,1,,,,,,,,,,,,,,,,,,,,,,,,,,,,,,,,,,,,,,,
,,,,,,,,2023-08-06_08h25.59.200,HF_wild_card,2022.2.4,Win32,60.28817749,594a481105e73f0001450009,64ce5acb97489d65b14ecc7a,64cf4af447447ed36c81da0f,,,,,,,sngl,resources/DBN.BMP,resources/Empty.png,WildCard_Ex,-0.34375,-0.104166667,1,0,0,2.3917,optionLeft,95,175,1,1,0,1,0,1,,,,,,,,,,,,,,,,,,,,,,,,,,,,,,,,,,,,,,,
,,,,,,,,2023-08-06_08h25.59.200,HF_wild_card,2022.2.4,Win32,60.28817749,594a481105e73f0001450009,64ce5acb97489d65b14ecc7a,64cf4af447447ed36c81da0f,,,,,,,decisionTrl,resources/DP.BMP,resources/DB.BMP,Door3,0.328125,-0.084635417,1,0,0,2.0248,optionRight,70,245,1,2,0,2,0,1,,,,,,,,,,,,,,,,,,,,,,,,,,,,,,,,,,,,,,,
,,,,,,,,2023-08-06_08h25.59.200,HF_wild_card,2022.2.4,Win32,60.28817749,594a481105e73f0001450009,64ce5acb97489d65b14ecc7a,64cf4af447447ed36c81da0f,,,,,,,decisionTrl,resources/DBN.BMP,resources/DR.BMP,Door2,0.325520833,-0.096354167,1,0,0,1.6578,optionRight,40,285,1,3,0,3,0,1,,,,,,,,,,,,,,,,,,,,,,,,,,,,,,,,,,,,,,,
,,,,,,,,2023-08-06_08h25.59.200,HF_wild_card,2022.2.4,Win32,60.28817749,594a481105e73f0001450009,64ce5acb97489d65b14ecc7a,64cf4af447447ed36c81da0f,,,,,,,ctch,resources/DR.BMP,resources/DB.BMP,Door2,-0.3671875,-0.091145833,1,0,0,2.1262,optionLeft,40,325,1,4,0,4,0,1,,,,,,,,,,,,,,,,,,,,,,,,,,,,,,,,,,,,,,,
,,,,,,,,2023-08-06_08h25.59.200,HF_wild_card,2022.2.4,Win32,60.28817749,594a481105e73f0001450009,64ce5acb97489d65b14ecc7a,64cf4af447447ed36c81da0f,,,,,,,decisionTrl,resources/DG.BMP,resources/DBN.BMP,Door1,-0.37890625,-0.061197917,1,0,0,1.7903,optionLeft,30,355,1,5,0,5,0,1,,,,,,,,,,,,,,,,,,,,,,,,,,,,,,,,,,,,,,,
,,,,,,,,2023-08-06_08h25.59.200,HF_wild_card,2022.2.4,Win32,60.28817749,594a481105e73f0001450009,64ce5acb97489d65b14ecc7a,64cf4af447447ed36c81da0f,,,,,,,decisionTrl,resources/DBN.BMP,resources/DP.BMP,Door4,0.338541667,-0.015625,1,0,0,1.1264,optionRight,60,415,1,6,0,6,0,1,,,,,,,,,,,,,,,,,,,,,,,,,,,,,,,,,,,,,,,
,,,,,,,,2023-08-06_08h25.59.200,HF_wild_card,2022.2.4,Win32,60.28817749,594a481105e73f0001450009,64ce5acb97489d65b14ecc7a,64cf4af447447ed36c81da0f,,,,,,,sngl,resources/DB.BMP,resources/Empty.png,Door3,-0.321614583,-0.018229167,1,0,0,1.1175,optionLeft,70,485,1,7,0,7,0,1,,,,,,,,,,,,,,,,,,,,,,,,,,,,,,,,,,,,,,,
,,,,,,,,2023-08-06_08h25.59.200,HF_wild_card,2022.2.4,Win32,60.28817749,594a481105e73f0001450009,64ce5acb97489d65b14ecc7a,64cf4af447447ed36c81da0f,,,,,,,decisionTrl,resources/DB.BMP,resources/DBN.BMP,Door3,-0.352864583,-0.018229167,1,0,0,1.0164,optionLeft,70,555,1,8,0,8,0,1,,,,,,,,,,,,,,,,,,,,,,,,,,,,,,,,,,,,,,,
,,,,,,,,2023-08-06_08h25.59.200,HF_wild_card,2022.2.4,Win32,60.28817749,594a481105e73f0001450009,64ce5acb97489d65b14ecc7a,64cf4af447447ed36c81da0f,,,,,,,decisionTrl,resources/DR.BMP,resources/DG.BMP,Door2,-0.37109375,-0.0625,1,0,0,2.5155,optionLeft,40,595,1,9,0,9,0,1,,,,,,,,,,,,,,,,,,,,,,,,,,,,,,,,,,,,,,,
,,,,,,,,2023-08-06_08h25.59.200,HF_wild_card,2022.2.4,Win32,60.28817749,594a481105e73f0001450009,64ce5acb97489d65b14ecc7a,64cf4af447447ed36c81da0f,,,,,,,ctch,resources/DB.BMP,resources/DR.BMP,Door3,-0.348958333,-0.001302083,1,0,0,1.0471,optionLeft,70,665,1,10,0,10,0,1,,,,,,,,,,,,,,,,,,,,,,,,,,,,,,,,,,,,,,,
,,,,,,,,2023-08-06_08h25.59.200,HF_wild_card,2022.2.4,Win32,60.28817749,594a481105e73f0001450009,64ce5acb97489d65b14ecc7a,64cf4af447447ed36c81da0f,,,,,,,sngl,resources/DR.BMP,resources/Empty.png,Door2,-0.342447917,0.005208333,1,0,0,0.9713,optionLeft,40,705,1,11,0,11,0,1,,,,,,,,,,,,,,,,,,,,,,,,,,,,,,,,,,,,,,,
,,,,,,,,2023-08-06_08h25.59.200,HF_wild_card,2022.2.4,Win32,60.28817749,594a481105e73f0001450009,64ce5acb97489d65b14ecc7a,64cf4af447447ed36c81da0f,,,,,,,ctch,resources/DP.BMP,resources/DG.BMP,Door4,-0.322916667,-0.01953125,1,0,0,1.0161,optionLeft,80,785,1,12,0,12,0,1,,,,,,,,,,,,,,,,,,,,,,,,,,,,,,,,,,,,,,,
,,,,,,,,2023-08-06_08h25.59.200,HF_wild_card,2022.2.4,Win32,60.28817749,594a481105e73f0001450009,64ce5acb97489d65b14ecc7a,64cf4af447447ed36c81da0f,,,,,,,decisionTrl,resources/DB.BMP,resources/DP.BMP,Door4,0.40234375,-0.033854167,1,0,0,1.4335,optionRight,80,865,1,13,0,13,0,1,,,,,,,,,,,,,,,,,,,,,,,,,,,,,,,,,,,,,,,
,,,,,,,,2023-08-06_08h25.59.200,HF_wild_card,2022.2.4,Win32,60.28817749,594a481105e73f0001450009,64ce5acb97489d65b14ecc7a,64cf4af447447ed36c81da0f,,,,,,,decisionTrl,resources/DB.BMP,resources/DP.BMP,Door4,0.41015625,-0.032552083,1,0,0,1.2027,optionRight,80,945,1,14,0,14,0,1,,,,,,,,,,,,,,,,,,,,,,,,,,,,,,,,,,,,,,,
,,,,,,,,2023-08-06_08h25.59.200,HF_wild_card,2022.2.4,Win32,60.28817749,594a481105e73f0001450009,64ce5acb97489d65b14ecc7a,64cf4af447447ed36c81da0f,,,,,,,decisionTrl,resources/DG.BMP,resources/DR.BMP,Door1,-0.30859375,-0.01953125,1,0,0,2.585,optionLeft,30,975,1,15,0,15,0,1,,,,,,,,,,,,,,,,,,,,,,,,,,,,,,,,,,,,,,,
,,,,,,,,2023-08-06_08h25.59.200,HF_wild_card,2022.2.4,Win32,60.28817749,594a481105e73f0001450009,64ce5acb97489d65b14ecc7a,64cf4af447447ed36c81da0f,,,,,,,ctch,resources/DB.BMP,resources/DR.BMP,Door2,0.311197917,-0.01953125,1,0,0,1.2053,optionRight,40,1015,1,16,0,16,0,1,,,,,,,,,,,,,,,,,,,,,,,,,,,,,,,,,,,,,,,
,,,,,,,,2023-08-06_08h25.59.200,HF_wild_card,2022.2.4,Win32,60.28817749,594a481105e73f0001450009,64ce5acb97489d65b14ecc7a,64cf4af447447ed36c81da0f,,,,,,,decisionTrl,resources/DP.BMP,resources/DB.BMP,Door4,-0.395833333,-0.055989583,1,0,0,1.1326,optionLeft,60,1075,1,17,0,17,0,1,,,,,,,,,,,,,,,,,,,,,,,,,,,,,,,,,,,,,,,
,,,,,,,,2023-08-06_08h25.59.200,HF_wild_card,2022.2.4,Win32,60.28817749,594a481105e73f0001450009,64ce5acb97489d65b14ecc7a,64cf4af447447ed36c81da0f,,,,,,,decisionTrl,resources/DBN.BMP,resources/DB.BMP,Door3,0.342447917,-0.022135417,1,0,0,2.4138,optionRight,70,1145,1,18,0,18,0,1,,,,,,,,,,,,,,,,,,,,,,,,,,,,,,,,,,,,,,,
,,,,,,,,2023-08-06_08h25.59.200,HF_wild_card,2022.2.4,Win32,60.28817749,594a481105e73f0001450009,64ce5acb97489d65b14ecc7a,64cf4af447447ed36c81da0f,,,,,,,decisionTrl,resources/DR.BMP,resources/DBN.BMP,WildCard_Ex,0.33203125,-0.028645833,1,0,0,1.6157,optionRight,95,1240,1,19,0,19,0,1,,,,,,,,,,,,,,,,,,,,,,,,,,,,,,,,,,,,,,,
,,,,,,,,2023-08-06_08h25.59.200,HF_wild_card,2022.2.4,Win32,60.28817749,594a481105e73f0001450009,64ce5acb97489d65b14ecc7a,64cf4af447447ed36c81da0f,,,,,,,ctch,resources/DG.BMP,resources/DP.BMP,Door4,0.345052083,-0.055989583,1,0,0,1.6262,optionRight,60,1300,1,20,0,20,0,1,,,,,,,,,,,,,,,,,,,,,,,,,,,,,,,,,,,,,,,
,,,,,,,,2023-08-06_08h25.59.200,HF_wild_card,2022.2.4,Win32,60.28817749,594a481105e73f0001450009,64ce5acb97489d65b14ecc7a,64cf4af447447ed36c81da0f,,,,,,,sngl,resources/Empty.png,resources/DBN.BMP,WildCard_Ex,0.385416667,0.002604167,1,0,0,1.0323,optionRight,5,1305,1,21,0,21,0,1,,,,,,,,,,,,,,,,,,,,,,,,,,,,,,,,,,,,,,,
,,,,,,,,2023-08-06_08h25.59.200,HF_wild_card,2022.2.4,Win32,60.28817749,594a481105e73f0001450009,64ce5acb97489d65b14ecc7a,64cf4af447447ed36c81da0f,,,,,,,sngl,resources/Empty.png,resources/DG.BMP,Door1,0.412760417,0.01171875,1,0,0,1.1304,optionRight,30,1335,1,22,0,22,0,1,,,,,,,,,,,,,,,,,,,,,,,,,,,,,,,,,,,,,,,
,,,,,,,,2023-08-06_08h25.59.200,HF_wild_card,2022.2.4,Win32,60.28817749,594a481105e73f0001450009,64ce5acb97489d65b14ecc7a,64cf4af447447ed36c81da0f,,,,,,,decisionTrl,resources/DR.BMP,resources/DG.BMP,Door2,-0.3828125,-0.05078125,1,0,0,1.5297,optionLeft,20,1355,1,23,0,23,0,1,,,,,,,,,,,,,,,,,,,,,,,,,,,,,,,,,,,,,,,
,,,,,,,,2023-08-06_08h25.59.200,HF_wild_card,2022.2.4,Win32,60.28817749,594a481105e73f0001450009,64ce5acb97489d65b14ecc7a,64cf4af447447ed36c81da0f,,,,,,,decisionTrl,resources/DP.BMP,resources/DBN.BMP,WildCard_Ex,0.41796875,0.044270833,1,0,0,2.0235,optionRight,5,1360,1,24,0,24,0,1,,,,,,,,,,,,,,,,,,,,,,,,,,,,,,,,,,,,,,,
,,,,,,,,2023-08-06_08h25.59.200,HF_wild_card,2022.2.4,Win32,60.28817749,594a481105e73f0001450009,64ce5acb97489d65b14ecc7a,64cf4af447447ed36c81da0f,,,,,,,decisionTrl,resources/DB.BMP,resources/DP.BMP,Door4,0.40625,-0.0859375,1,0,0,1.4107,optionRight,80,1440,1,25,0,25,0,1,,,,,,,,,,,,,,,,,,,,,,,,,,,,,,,,,,,,,,,
,,,,,,,,2023-08-06_08h25.59.200,HF_wild_card,2022.2.4,Win32,60.28817749,594a481105e73f0001450009,64ce5acb97489d65b14ecc7a,64cf4af447447ed36c81da0f,,,,,,,ctch,resources/DG.BMP,resources/DP.BMP,Door4,0.354166667,-0.029947917,1,0,0,1.0571,optionRight,80,1520,1,26,0,26,0,1,,,,,,,,,,,,,,,,,,,,,,,,,,,,,,,,,,,,,,,
,,,,,,,,2023-08-06_08h25.59.200,HF_wild_card,2022.2.4,Win32,60.28817749,594a481105e73f0001450009,64ce5acb97489d65b14ecc7a,64cf4af447447ed36c81da0f,,,,,,,decisionTrl,resources/DR.BMP,resources/DG.BMP,Door1,0.36328125,-0.018229167,1,0,0,1.2871,optionRight,30,1550,1,27,0,27,0,1,,,,,,,,,,,,,,,,,,,,,,,,,,,,,,,,,,,,,,,
,,,,,,,,2023-08-06_08h25.59.200,HF_wild_card,2022.2.4,Win32,60.28817749,594a481105e73f0001450009,64ce5acb97489d65b14ecc7a,64cf4af447447ed36c81da0f,,,,,,,sngl,resources/Empty.png,resources/DBN.BMP,WildCard_Ex,0.34765625,-0.01171875,1,0,0,1.4591,optionRight,95,1645,1,28,0,28,0,1,,,,,,,,,,,,,,,,,,,,,,,,,,,,,,,,,,,,,,,
,,,,,,,,2023-08-06_08h25.59.200,HF_wild_card,2022.2.4,Win32,60.28817749,594a481105e73f0001450009,64ce5acb97489d65b14ecc7a,64cf4af447447ed36c81da0f,,,,,,,ctch,resources/DR.BMP,resources/DB.BMP,Door3,0.369791667,-0.026041667,1,0,0,1.3513,optionRight,70,1715,1,29,0,29,0,1,,,,,,,,,,,,,,,,,,,,,,,,,,,,,,,,,,,,,,,
,,,,,,,,2023-08-06_08h25.59.200,HF_wild_card,2022.2.4,Win32,60.28817749,594a481105e73f0001450009,64ce5acb97489d65b14ecc7a,64cf4af447447ed36c81da0f,,,,,,,ctch,resources/DP.BMP,resources/DG.BMP,Door4,-0.380208333,-0.032552083,1,0,0,1.9978,optionLeft,80,1795,1,30,0,30,0,1,,,,,,,,,,,,,,,,,,,,,,,,,,,,,,,,,,,,,,,
,,,,,,,,2023-08-06_08h25.59.200,HF_wild_card,2022.2.4,Win32,60.28817749,594a481105e73f0001450009,64ce5acb97489d65b14ecc7a,64cf4af447447ed36c81da0f,,,,,,,decisionTrl,resources/DB.BMP,resources/DP.BMP,Door3,-0.32421875,-0.065104167,1,0,0,1.9172,optionLeft,70,1865,1,31,0,31,0,1,,,,,,,,,,,,,,,,,,,,,,,,,,,,,,,,,,,,,,,
,,,,,,,,2023-08-06_08h25.59.200,HF_wild_card,2022.2.4,Win32,60.28817749,594a481105e73f0001450009,64ce5acb97489d65b14ecc7a,64cf4af447447ed36c81da0f,,,,,,,decisionTrl,resources/DG.BMP,resources/DR.BMP,Door1,-0.40625,-0.022135417,1,0,0,1.9628,optionLeft,30,1895,1,32,0,32,0,1,,,,,,,,,,,,,,,,,,,,,,,,,,,,,,,,,,,,,,,
,,,,,,,,2023-08-06_08h25.59.200,HF_wild_card,2022.2.4,Win32,60.28817749,594a481105e73f0001450009,64ce5acb97489d65b14ecc7a,64cf4af447447ed36c81da0f,,,,,,,decisionTrl,resources/DG.BMP,resources/DR.BMP,Door1,-0.375,-0.02734375,1,0,0,1.407,optionLeft,30,1925,1,33,0,33,0,1,,,,,,,,,,,,,,,,,,,,,,,,,,,,,,,,,,,,,,,
,,,,,,,,2023-08-06_08h25.59.200,HF_wild_card,2022.2.4,Win32,60.28817749,594a481105e73f0001450009,64ce5acb97489d65b14ecc7a,64cf4af447447ed36c81da0f,,,,,,,decisionTrl,resources/DR.BMP,resources/DG.BMP,Door2,-0.397135417,-0.061197917,1,0,0,1.6369,optionLeft,20,1945,1,34,0,34,0,1,,,,,,,,,,,,,,,,,,,,,,,,,,,,,,,,,,,,,,,
,,,,,,,,2023-08-06_08h25.59.200,HF_wild_card,2022.2.4,Win32,60.28817749,594a481105e73f0001450009,64ce5acb97489d65b14ecc7a,64cf4af447447ed36c81da0f,,,,,,,sngl,resources/Empty.png,resources/DB.BMP,Door3,0.338541667,-0.069010417,1,0,0,1.4359,optionRight,70,2015,1,35,0,35,0,1,,,,,,,,,,,,,,,,,,,,,,,,,,,,,,,,,,,,,,,
,,,,,,,,2023-08-06_08h25.59.200,HF_wild_card,2022.2.4,Win32,60.28817749,594a481105e73f0001450009,64ce5acb97489d65b14ecc7a,64cf4af447447ed36c81da0f,,,,,,,sngl,resources/Empty.png,resources/DR.BMP,Door2,0.360677083,-0.045572917,1,0,0,0.9781,optionRight,20,2035,1,36,0,36,0,1,,,,,,,,,,,,,,,,,,,,,,,,,,,,,,,,,,,,,,,
,,,,,,,,2023-08-06_08h25.59.200,HF_wild_card,2022.2.4,Win32,60.28817749,594a481105e73f0001450009,64ce5acb97489d65b14ecc7a,64cf4af447447ed36c81da0f,,,,,,,sngl,resources/DBN.BMP,resources/Empty.png,WildCard_Ex,-0.37890625,0.0078125,1,0,0,1.6866,optionLeft,5,2040,1,37,0,37,0,1,,,,,,,,,,,,,,,,,,,,,,,,,,,,,,,,,,,,,,,
,,,,,,,,2023-08-06_08h25.59.200,HF_wild_card,2022.2.4,Win32,60.28817749,594a481105e73f0001450009,64ce5acb97489d65b14ecc7a,64cf4af447447ed36c81da0f,,,,,,,decisionTrl,resources/DBN.BMP,resources/DG.BMP,Door1,0.421875,-0.055989583,1,0,0,1.2915,optionRight,30,2070,1,38,0,38,0,1,,,,,,,,,,,,,,,,,,,,,,,,,,,,,,,,,,,,,,,
,,,,,,,,2023-08-06_08h25.59.200,HF_wild_card,2022.2.4,Win32,60.28817749,594a481105e73f0001450009,64ce5acb97489d65b14ecc7a,64cf4af447447ed36c81da0f,,,,,,,sngl,resources/Empty.png,resources/DP.BMP,Door4,0.388020833,-0.040364583,1,0,0,0.9622,optionRight,60,2130,1,39,0,39,0,1,,,,,,,,,,,,,,,,,,,,,,,,,,,,,,,,,,,,,,,
,,,,,,,,2023-08-06_08h25.59.200,HF_wild_card,2022.2.4,Win32,60.28817749,594a481105e73f0001450009,64ce5acb97489d65b14ecc7a,64cf4af447447ed36c81da0f,,,,,,,decisionTrl,resources/DP.BMP,resources/DB.BMP,Door4,-0.326822917,-0.084635417,1,0,0,1.5248,optionLeft,80,2210,1,40,0,40,0,1,,,,,,,,,,,,,,,,,,,,,,,,,,,,,,,,,,,,,,,
,,,,,,,,2023-08-06_08h25.59.200,HF_wild_card,2022.2.4,Win32,60.28817749,594a481105e73f0001450009,64ce5acb97489d65b14ecc7a,64cf4af447447ed36c81da0f,,,,,,,sngl,resources/DP.BMP,resources/Empty.png,Door4,-0.356770833,-0.0546875,1,0,0,0.9909,optionLeft,80,2290,1,41,0,41,0,1,,,,,,,,,,,,,,,,,,,,,,,,,,,,,,,,,,,,,,,
,,,,,,,,2023-08-06_08h25.59.200,HF_wild_card,2022.2.4,Win32,60.28817749,594a481105e73f0001450009,64ce5acb97489d65b14ecc7a,64cf4af447447ed36c81da0f,,,,,,,sngl,resources/DG.BMP,resources/Empty.png,Door1,-0.34375,-0.020833333,1,0,0,1.732,optionLeft,30,2320,1,42,0,42,0,1,,,,,,,,,,,,,,,,,,,,,,,,,,,,,,,,,,,,,,,
,,,,,,,,2023-08-06_08h25.59.200,HF_wild_card,2022.2.4,Win32,60.28817749,594a481105e73f0001450009,64ce5acb97489d65b14ecc7a,64cf4af447447ed36c81da0f,,,,,,,decisionTrl,resources/DG.BMP,resources/DR.BMP,Door2,0.360677083,-0.046875,1,0,0,1.7238,optionRight,40,2360,1,43,0,43,0,1,,,,,,,,,,,,,,,,,,,,,,,,,,,,,,,,,,,,,,,
,,,,,,,,2023-08-06_08h25.59.200,HF_wild_card,2022.2.4,Win32,60.28817749,594a481105e73f0001450009,64ce5acb97489d65b14ecc7a,64cf4af447447ed36c81da0f,,,,,,,,,,,,,,,,,,,,,,,,,,0,0,0,0,1,,,,,,,,,,,,,,,,,,,,,,,,,,,,,,,,,,
,,,,,,,,2023-08-06_08h25.59.200,HF_wild_card,2022.2.4,Win32,60.28817749,594a481105e73f0001450009,64ce5acb97489d65b14ecc7a,64cf4af447447ed36c81da0f,,,,,,,sngl,resources/DG.BMP,resources/Empty.png,Door1,-0.415364583,-0.100260417,1,0,0,1.0136,optionLeft,30,2390,2,0,0,0,0,1,,,,,,,,,,,,,,,,,,,,,,,,,,,,,,,,,,,,,,,
,,,,,,,,2023-08-06_08h25.59.200,HF_wild_card,2022.2.4,Win32,60.28817749,594a481105e73f0001450009,64ce5acb97489d65b14ecc7a,64cf4af447447ed36c81da0f,,,,,,,ctch,resources/DP.BMP,resources/DG.BMP,Door4,-0.34375,-0.04296875,1,0,0,1.126,optionLeft,60,2450,2,1,0,1,0,1,,,,,,,,,,,,,,,,,,,,,,,,,,,,,,,,,,,,,,,
,,,,,,,,2023-08-06_08h25.59.200,HF_wild_card,2022.2.4,Win32,60.28817749,594a481105e73f0001450009,64ce5acb97489d65b14ecc7a,64cf4af447447ed36c81da0f,,,,,,,decisionTrl,resources/DBN.BMP,resources/DR.BMP,WildCard_Ex,-0.376302083,-0.018229167,1,0,0,2.0501,optionLeft,5,2455,2,2,0,2,0,1,,,,,,,,,,,,,,,,,,,,,,,,,,,,,,,,,,,,,,,
,,,,,,,,2023-08-06_08h25.59.200,HF_wild_card,2022.2.4,Win32,60.28817749,594a481105e73f0001450009,64ce5acb97489d65b14ecc7a,64cf4af447447ed36c81da0f,,,,,,,decisionTrl,resources/DBN.BMP,resources/DB.BMP,Door3,0.35546875,-0.014322917,1,0,0,1.9416,optionRight,70,2525,2,3,0,3,0,1,,,,,,,,,,,,,,,,,,,,,,,,,,,,,,,,,,,,,,,
,,,,,,,,2023-08-06_08h25.59.200,HF_wild_card,2022.2.4,Win32,60.28817749,594a481105e73f0001450009,64ce5acb97489d65b14ecc7a,64cf4af447447ed36c81da0f,,,,,,,decisionTrl,resources/DP.BMP,resources/DB.BMP,Door3,0.329427083,-0.033854167,1,0,0,1.0195,optionRight,70,2595,2,4,0,4,0,1,,,,,,,,,,,,,,,,,,,,,,,,,,,,,,,,,,,,,,,
,,,,,,,,2023-08-06_08h25.59.200,HF_wild_card,2022.2.4,Win32,60.28817749,594a481105e73f0001450009,64ce5acb97489d65b14ecc7a,64cf4af447447ed36c81da0f,,,,,,,decisionTrl,resources/DR.BMP,resources/DG.BMP,Door2,-0.35546875,-0.020833333,1,0,0,1.67,optionLeft,20,2615,2,5,0,5,0,1,,,,,,,,,,,,,,,,,,,,,,,,,,,,,,,,,,,,,,,
,,,,,,,,2023-08-06_08h25.59.200,HF_wild_card,2022.2.4,Win32,60.28817749,594a481105e73f0001450009,64ce5acb97489d65b14ecc7a,64cf4af447447ed36c81da0f,,,,,,,decisionTrl,resources/DB.BMP,resources/DP.BMP,Door4,0.34765625,-0.02734375,1,0,0,0.9789,optionRight,60,2675,2,6,0,6,0,1,,,,,,,,,,,,,,,,,,,,,,,,,,,,,,,,,,,,,,,
,,,,,,,,2023-08-06_08h25.59.200,HF_wild_card,2022.2.4,Win32,60.28817749,594a481105e73f0001450009,64ce5acb97489d65b14ecc7a,64cf4af447447ed36c81da0f,,,,,,,decisionTrl,resources/DG.BMP,resources/DR.BMP,Door1,-0.399739583,-0.04296875,1,0,0,1.4669,optionLeft,30,2705,2,7,0,7,0,1,,,,,,,,,,,,,,,,,,,,,,,,,,,,,,,,,,,,,,,
,,,,,,,,2023-08-06_08h25.59.200,HF_wild_card,2022.2.4,Win32,60.28817749,594a481105e73f0001450009,64ce5acb97489d65b14ecc7a,64cf4af447447ed36c81da0f,,,,,,,ctch,resources/DG.BMP,resources/DP.BMP,Door4,0.372395833,-0.04296875,1,0,0,1.0548,optionRight,80,2785,2,8,0,8,0,1,,,,,,,,,,,,,,,,,,,,,,,,,,,,,,,,,,,,,,,
,,,,,,,,2023-08-06_08h25.59.200,HF_wild_card,2022.2.4,Win32,60.28817749,594a481105e73f0001450009,64ce5acb97489d65b14ecc7a,64cf4af447447ed36c81da0f,,,,,,,decisionTrl,resources/DG.BMP,resources/DR.BMP,Door1,-0.37109375,-0.015625,1,0,0,1.2735,optionLeft,30,2815,2,9,0,9,0,1,,,,,,,,,,,,,,,,,,,,,,,,,,,,,,,,,,,,,,,
,,,,,,,,2023-08-06_08h25.59.200,HF_wild_card,2022.2.4,Win32,60.28817749,594a481105e73f0001450009,64ce5acb97489d65b14ecc7a,64cf4af447447ed36c81da0f,,,,,,,decisionTrl,resources/DB.BMP,resources/DP.BMP,Door4,0.401041667,-0.0390625,1,0,0,1.121,optionRight,80,2895,2,10,0,10,0,1,,,,,,,,,,,,,,,,,,,,,,,,,,,,,,,,,,,,,,,
,,,,,,,,2023-08-06_08h25.59.200,HF_wild_card,2022.2.4,Win32,60.28817749,594a481105e73f0001450009,64ce5acb97489d65b14ecc7a,64cf4af447447ed36c81da0f,,,,,,,decisionTrl,resources/DR.BMP,resources/DG.BMP,Door1,0.38671875,-0.05859375,1,0,0,2.2312,optionRight,30,2925,2,11,0,11,0,1,,,,,,,,,,,,,,,,,,,,,,,,,,,,,,,,,,,,,,,
,,,,,,,,2023-08-06_08h25.59.200,HF_wild_card,2022.2.4,Win32,60.28817749,594a481105e73f0001450009,64ce5acb97489d65b14ecc7a,64cf4af447447ed36c81da0f,,,,,,,decisionTrl,resources/DP.BMP,resources/DB.BMP,Door4,-0.328125,-0.02734375,1,0,0,1.1616,optionLeft,80,3005,2,12,0,12,0,1,,,,,,,,,,,,,,,,,,,,,,,,,,,,,,,,,,,,,,,
,,,,,,,,2023-08-06_08h25.59.200,HF_wild_card,2022.2.4,Win32,60.28817749,594a481105e73f0001450009,64ce5acb97489d65b14ecc7a,64cf4af447447ed36c81da0f,,,,,,,sngl,resources/Empty.png,resources/DG.BMP,Door1,0.364583333,0.005208333,1,0,0,1.7358,optionRight,30,3035,2,13,0,13,0,1,,,,,,,,,,,,,,,,,,,,,,,,,,,,,,,,,,,,,,,
,,,,,,,,2023-08-06_08h25.59.200,HF_wild_card,2022.2.4,Win32,60.28817749,594a481105e73f0001450009,64ce5acb97489d65b14ecc7a,64cf4af447447ed36c81da0f,,,,,,,ctch,resources/DB.BMP,resources/DR.BMP,Door3,-0.333333333,-0.024739583,1,0,0,1.342,optionLeft,70,3105,2,14,0,14,0,1,,,,,,,,,,,,,,,,,,,,,,,,,,,,,,,,,,,,,,,
,,,,,,,,2023-08-06_08h25.59.200,HF_wild_card,2022.2.4,Win32,60.28817749,594a481105e73f0001450009,64ce5acb97489d65b14ecc7a,64cf4af447447ed36c81da0f,,,,,,,sngl,resources/DBN.BMP,resources/Empty.png,WildCard_Ex,-0.380208333,-0.009114583,1,0,0,1.001,optionLeft,5,3110,2,15,0,15,0,1,,,,,,,,,,,,,,,,,,,,,,,,,,,,,,,,,,,,,,,
,,,,,,,,2023-08-06_08h25.59.200,HF_wild_card,2022.2.4,Win32,60.28817749,594a481105e73f0001450009,64ce5acb97489d65b14ecc7a,64cf4af447447ed36c81da0f,,,,,,,decisionTrl,resources/DR.BMP,resources/DG.BMP,Door1,0.393229167,-0.03515625,1,0,0,1.3269,optionRight,30,3140,2,16,0,16,0,1,,,,,,,,,,,,,,,,,,,,,,,,,,,,,,,,,,,,,,,
,,,,,,,,2023-08-06_08h25.59.200,HF_wild_card,2022.2.4,Win32,60.28817749,594a481105e73f0001450009,64ce5acb97489d65b14ecc7a,64cf4af447447ed36c81da0f,,,,,,,ctch,resources/DR.BMP,resources/DB.BMP,Door3,0.408854167,-0.06640625,1,0,0,1.4208,optionRight,70,3210,2,17,0,17,0,1,,,,,,,,,,,,,,,,,,,,,,,,,,,,,,,,,,,,,,,
,,,,,,,,2023-08-06_08h25.59.200,HF_wild_card,2022.2.4,Win32,60.28817749,594a481105e73f0001450009,64ce5acb97489d65b14ecc7a,64cf4af447447ed36c81da0f,,,,,,,sngl,resources/DP.BMP,resources/Empty.png,Door4,-0.391927083,-0.032552083,1,0,0,0.9613,optionLeft,60,3270,2,18,0,18,0,1,,,,,,,,,,,,,,,,,,,,,,,,,,,,,,,,,,,,,,,
,,,,,,,,2023-08-06_08h25.59.200,HF_wild_card,2022.2.4,Win32,60.28817749,594a481105e73f0001450009,64ce5acb97489d65b14ecc7a,64cf4af447447ed36c81da0f,,,,,,,ctch,resources/DR.BMP,resources/DB.BMP,Door3,0.33984375,-0.037760417,1,0,0,1.5683,optionRight,70,3340,2,19,0,19,0,1,,,,,,,,,,,,,,,,,,,,,,,,,,,,,,,,,,,,,,,
,,,,,,,,2023-08-06_08h25.59.200,HF_wild_card,2022.2.4,Win32,60.28817749,594a481105e73f0001450009,64ce5acb97489d65b14ecc7a,64cf4af447447ed36c81da0f,,,,,,,decisionTrl,resources/DP.BMP,resources/DB.BMP,Door4,-0.408854167,-0.032552083,1,0,0,1.054,optionLeft,60,3400,2,20,0,20,0,1,,,,,,,,,,,,,,,,,,,,,,,,,,,,,,,,,,,,,,,
,,,,,,,,2023-08-06_08h25.59.200,HF_wild_card,2022.2.4,Win32,60.28817749,594a481105e73f0001450009,64ce5acb97489d65b14ecc7a,64cf4af447447ed36c81da0f,,,,,,,decisionTrl,resources/DR.BMP,resources/DG.BMP,Door1,0.36328125,-0.044270833,1,0,0,2.3099,optionRight,30,3430,2,21,0,21,0,1,,,,,,,,,,,,,,,,,,,,,,,,,,,,,,,,,,,,,,,
,,,,,,,,2023-08-06_08h25.59.200,HF_wild_card,2022.2.4,Win32,60.28817749,594a481105e73f0001450009,64ce5acb97489d65b14ecc7a,64cf4af447447ed36c81da0f,,,,,,,sngl,resources/Empty.png,resources/DB.BMP,Door3,0.3671875,-0.029947917,1,0,0,0.991,optionRight,70,3500,2,22,0,22,0,1,,,,,,,,,,,,,,,,,,,,,,,,,,,,,,,,,,,,,,,
,,,,,,,,2023-08-06_08h25.59.200,HF_wild_card,2022.2.4,Win32,60.28817749,594a481105e73f0001450009,64ce5acb97489d65b14ecc7a,64cf4af447447ed36c81da0f,,,,,,,decisionTrl,resources/DB.BMP,resources/DP.BMP,Door3,-0.311197917,-0.059895833,1,0,0,1.3169,optionLeft,70,3570,2,23,0,23,0,1,,,,,,,,,,,,,,,,,,,,,,,,,,,,,,,,,,,,,,,
,,,,,,,,2023-08-06_08h25.59.200,HF_wild_card,2022.2.4,Win32,60.28817749,594a481105e73f0001450009,64ce5acb97489d65b14ecc7a,64cf4af447447ed36c81da0f,,,,,,,sngl,resources/DR.BMP,resources/Empty.png,Door2,-0.368489583,-0.009114583,1,0,0,1.0573,optionLeft,20,3590,2,24,0,24,0,1,,,,,,,,,,,,,,,,,,,,,,,,,,,,,,,,,,,,,,,
,,,,,,,,2023-08-06_08h25.59.200,HF_wild_card,2022.2.4,Win32,60.28817749,594a481105e73f0001450009,64ce5acb97489d65b14ecc7a,64cf4af447447ed36c81da0f,,,,,,,decisionTrl,resources/DB.BMP,resources/DBN.BMP,WildCard_Ex,0.39453125,0.03125,1,0,0,1.9996,optionRight,5,3595,2,25,0,25,0,1,,,,,,,,,,,,,,,,,,,,,,,,,,,,,,,,,,,,,,,
,,,,,,,,2023-08-06_08h25.59.200,HF_wild_card,2022.2.4,Win32,60.28817749,594a481105e73f0001450009,64ce5acb97489d65b14ecc7a,64cf4af447447ed36c81da0f,,,,,,,decisionTrl,resources/DP.BMP,resources/DBN.BMP,Door4,-0.369791667,-0.013020833,1,0,0,0.9543,optionLeft,60,3655,2,26,0,26,0,1,,,,,,,,,,,,,,,,,,,,,,,,,,,,,,,,,,,,,,,
,,,,,,,,2023-08-06_08h25.59.200,HF_wild_card,2022.2.4,Win32,60.28817749,594a481105e73f0001450009,64ce5acb97489d65b14ecc7a,64cf4af447447ed36c81da0f,,,,,,,ctch,resources/DP.BMP,resources/DG.BMP,Door1,0.373697917,-0.028645833,1,0,0,2.2198,optionRight,30,3685,2,27,0,27,0,1,,,,,,,,,,,,,,,,,,,,,,,,,,,,,,,,,,,,,,,
,,,,,,,,2023-08-06_08h25.59.200,HF_wild_card,2022.2.4,Win32,60.28817749,594a481105e73f0001450009,64ce5acb97489d65b14ecc7a,64cf4af447447ed36c81da0f,,,,,,,decisionTrl,resources/DB.BMP,resources/DP.BMP,Door3,-0.442708333,-0.055989583,1,0,0,1.7674,optionLeft,70,3755,2,28,0,28,0,1,,,,,,,,,,,,,,,,,,,,,,,,,,,,,,,,,,,,,,,
,,,,,,,,2023-08-06_08h25.59.200,HF_wild_card,2022.2.4,Win32,60.28817749,594a481105e73f0001450009,64ce5acb97489d65b14ecc7a,64cf4af447447ed36c81da0f,,,,,,,sngl,resources/Empty.png,resources/DR.BMP,Door2,0.3671875,-0.0078125,1,0,0,2.0634,optionRight,40,3795,2,29,0,29,0,1,,,,,,,,,,,,,,,,,,,,,,,,,,,,,,,,,,,,,,,
,,,,,,,,2023-08-06_08h25.59.200,HF_wild_card,2022.2.4,Win32,60.28817749,594a481105e73f0001450009,64ce5acb97489d65b14ecc7a,64cf4af447447ed36c81da0f,,,,,,,sngl,resources/Empty.png,resources/DBN.BMP,WildCard_Ex,0.384114583,0.0546875,1,0,0,2.1505,optionRight,5,3800,2,30,0,30,0,1,,,,,,,,,,,,,,,,,,,,,,,,,,,,,,,,,,,,,,,
,,,,,,,,2023-08-06_08h25.59.200,HF_wild_card,2022.2.4,Win32,60.28817749,594a481105e73f0001450009,64ce5acb97489d65b14ecc7a,64cf4af447447ed36c81da0f,,,,,,,sngl,resources/DB.BMP,resources/Empty.png,Door3,-0.420572917,-0.065104167,1,0,0,1.0413,optionLeft,70,3870,2,31,0,31,0,1,,,,,,,,,,,,,,,,,,,,,,,,,,,,,,,,,,,,,,,
,,,,,,,,2023-08-06_08h25.59.200,HF_wild_card,2022.2.4,Win32,60.28817749,594a481105e73f0001450009,64ce5acb97489d65b14ecc7a,64cf4af447447ed36c81da0f,,,,,,,ctch,resources/DG.BMP,resources/DP.BMP,Door1,-0.350260417,-0.0546875,1,0,0,1.5924,optionLeft,30,3900,2,32,0,32,0,1,,,,,,,,,,,,,,,,,,,,,,,,,,,,,,,,,,,,,,,
,,,,,,,,2023-08-06_08h25.59.200,HF_wild_card,2022.2.4,Win32,60.28817749,594a481105e73f0001450009,64ce5acb97489d65b14ecc7a,64cf4af447447ed36c81da0f,,,,,,,decisionTrl,resources/DBN.BMP,resources/DP.BMP,Door4,0.313802083,-0.057291667,1,0,0,1.2237,optionRight,80,3980,2,33,0,33,0,1,,,,,,,,,,,,,,,,,,,,,,,,,,,,,,,,,,,,,,,
,,,,,,,,2023-08-06_08h25.59.200,HF_wild_card,2022.2.4,Win32,60.28817749,594a481105e73f0001450009,64ce5acb97489d65b14ecc7a,64cf4af447447ed36c81da0f,,,,,,,sngl,resources/DBN.BMP,resources/Empty.png,WildCard_Ex,-0.423177083,-0.006510417,1,0,0,1.0597,optionLeft,95,4075,2,34,0,34,0,1,,,,,,,,,,,,,,,,,,,,,,,,,,,,,,,,,,,,,,,
,,,,,,,,2023-08-06_08h25.59.200,HF_wild_card,2022.2.4,Win32,60.28817749,594a481105e73f0001450009,64ce5acb97489d65b14ecc7a,64cf4af447447ed36c81da0f,,,,,,,ctch,resources/DB.BMP,resources/DR.BMP,Door2,0.384114583,-0.095052083,1,0,0,1.8706,optionRight,20,4095,2,35,0,35,0,1,,,,,,,,,,,,,,,,,,,,,,,,,,,,,,,,,,,,,,,
,,,,,,,,2023-08-06_08h25.59.200,HF_wild_card,2022.2.4,Win32,60.28817749,594a481105e73f0001450009,64ce5acb97489d65b14ecc7a,64cf4af447447ed36c81da0f,,,,,,,decisionTrl,resources/DG.BMP,resources/DBN.BMP,WildCard_Ex,0.322916667,-0.005208333,1,0,0,1.8659,optionRight,5,4100,2,36,0,36,0,1,,,,,,,,,,,,,,,,,,,,,,,,,,,,,,,,,,,,,,,
,,,,,,,,2023-08-06_08h25.59.200,HF_wild_card,2022.2.4,Win32,60.28817749,594a481105e73f0001450009,64ce5acb97489d65b14ecc7a,64cf4af447447ed36c81da0f,,,,,,,sngl,resources/Empty.png,resources/DP.BMP,Door4,0.368489583,-0.015625,1,0,0,0.9862,optionRight,80,4180,2,37,0,37,0,1,,,,,,,,,,,,,,,,,,,,,,,,,,,,,,,,,,,,,,,
,,,,,,,,2023-08-06_08h25.59.200,HF_wild_card,2022.2.4,Win32,60.28817749,594a481105e73f0001450009,64ce5acb97489d65b14ecc7a,64cf4af447447ed36c81da0f,,,,,,,sngl,resources/Empty.png,resources/DBN.BMP,WildCard_Ex,0.350260417,-0.0078125,1,0,0,1.2084,optionRight,95,4275,2,38,0,38,0,1,,,,,,,,,,,,,,,,,,,,,,,,,,,,,,,,,,,,,,,
,,,,,,,,2023-08-06_08h25.59.200,HF_wild_card,2022.2.4,Win32,60.28817749,594a481105e73f0001450009,64ce5acb97489d65b14ecc7a,64cf4af447447ed36c81da0f,,,,,,,decisionTrl,resources/DG.BMP,resources/DR.BMP,Door1,-0.381510417,-0.07421875,1,0,0,1.9638,optionLeft,30,4305,2,39,0,39,0,1,,,,,,,,,,,,,,,,,,,,,,,,,,,,,,,,,,,,,,,
,,,,,,,,2023-08-06_08h25.59.200,HF_wild_card,2022.2.4,Win32,60.28817749,594a481105e73f0001450009,64ce5acb97489d65b14ecc7a,64cf4af447447ed36c81da0f,,,,,,,decisionTrl,resources/DG.BMP,resources/DR.BMP,Door1,-0.39453125,-0.06640625,1,0,0,1.2253,optionLeft,30,4335,2,40,0,40,0,1,,,,,,,,,,,,,,,,,,,,,,,,,,,,,,,,,,,,,,,
,,,,,,,,2023-08-06_08h25.59.200,HF_wild_card,2022.2.4,Win32,60.28817749,594a481105e73f0001450009,64ce5acb97489d65b14ecc7a,64cf4af447447ed36c81da0f,,,,,,,decisionTrl,resources/DP.BMP,resources/DB.BMP,Door4,-0.34375,-0.020833333,1,0,0,1.8047,optionLeft,60,4395,2,41,0,41,0,1,,,,,,,,,,,,,,,,,,,,,,,,,,,,,,,,,,,,,,,
,,,,,,,,2023-08-06_08h25.59.200,HF_wild_card,2022.2.4,Win32,60.28817749,594a481105e73f0001450009,64ce5acb97489d65b14ecc7a,64cf4af447447ed36c81da0f,,,,,,,decisionTrl,resources/DR.BMP,resources/DBN.BMP,Door2,-0.377604167,-0.0546875,1,0,0,1.6341,optionLeft,40,4435,2,42,0,42,0,1,,,,,,,,,,,,,,,,,,,,,,,,,,,,,,,,,,,,,,,
,,,,,,,,2023-08-06_08h25.59.200,HF_wild_card,2022.2.4,Win32,60.28817749,594a481105e73f0001450009,64ce5acb97489d65b14ecc7a,64cf4af447447ed36c81da0f,,,,,,,decisionTrl,resources/DBN.BMP,resources/DG.BMP,Door1,0.35546875,-0.024739583,1,0,0,1.3545,optionRight,30,4465,2,43,0,43,0,1,,,,,,,,,,,,,,,,,,,,,,,,,,,,,,,,,,,,,,,
,,,,,,,,2023-08-06_08h25.59.200,HF_wild_card,2022.2.4,Win32,60.28817749,594a481105e73f0001450009,64ce5acb97489d65b14ecc7a,64cf4af447447ed36c81da0f,,,,,,,,,,,,,,,,,,,,,,,,,,1,0,1,0,1,,,,,,,,,,,,,,,,,,,,,,,,,,,,,,,,,,
,,,,,,,,2023-08-06_08h25.59.200,HF_wild_card,2022.2.4,Win32,60.28817749,594a481105e73f0001450009,64ce5acb97489d65b14ecc7a,64cf4af447447ed36c81da0f,,,,,,,decisionTrl,resources/DBN.BMP,resources/DR.BMP,WildCard_Ex,-0.423177083,-0.015625,1,0,0,2.5433,optionLeft,95,4560,3,0,0,0,0,1,,,,,,,,,,,,,,,,,,,,,,,,,,,,,,,,,,,,,,,
,,,,,,,,2023-08-06_08h25.59.200,HF_wild_card,2022.2.4,Win32,60.28817749,594a481105e73f0001450009,64ce5acb97489d65b14ecc7a,64cf4af447447ed36c81da0f,,,,,,,decisionTrl,resources/DB.BMP,resources/DBN.BMP,WildCard_Ex,0.334635417,-0.0390625,1,0,0,1.7942,optionRight,5,4565,3,1,0,1,0,1,,,,,,,,,,,,,,,,,,,,,,,,,,,,,,,,,,,,,,,
,,,,,,,,2023-08-06_08h25.59.200,HF_wild_card,2022.2.4,Win32,60.28817749,594a481105e73f0001450009,64ce5acb97489d65b14ecc7a,64cf4af447447ed36c81da0f,,,,,,,sngl,resources/Empty.png,resources/DR.BMP,Door2,0.388020833,-0.009114583,1,0,0,2.1709,optionRight,20,4585,3,2,0,2,0,1,,,,,,,,,,,,,,,,,,,,,,,,,,,,,,,,,,,,,,,
,,,,,,,,2023-08-06_08h25.59.200,HF_wild_card,2022.2.4,Win32,60.28817749,594a481105e73f0001450009,64ce5acb97489d65b14ecc7a,64cf4af447447ed36c81da0f,,,,,,,decisionTrl,resources/DP.BMP,resources/DB.BMP,Door4,-0.328125,0.00390625,1,0,0,1.0781,optionLeft,60,4645,3,3,0,3,0,1,,,,,,,,,,,,,,,,,,,,,,,,,,,,,,,,,,,,,,,
,,,,,,,,2023-08-06_08h25.59.200,HF_wild_card,2022.2.4,Win32,60.28817749,594a481105e73f0001450009,64ce5acb97489d65b14ecc7a,64cf4af447447ed36c81da0f,,,,,,,sngl,resources/Empty.png,resources/DP.BMP,Door4,0.358072917,-0.065104167,1,0,0,1.1338,optionRight,60,4705,3,4,0,4,0,1,,,,,,,,,,,,,,,,,,,,,,,,,,,,,,,,,,,,,,,
,,,,,,,,2023-08-06_08h25.59.200,HF_wild_card,2022.2.4,Win32,60.28817749,594a481105e73f0001450009,64ce5acb97489d65b14ecc7a,64cf4af447447ed36c81da0f,,,,,,,sngl,resources/DP.BMP,resources/Empty.png,Door4,-0.328125,-0.029947917,1,0,0,0.9176,optionLeft,80,4785,3,5,0,5,0,1,,,,,,,,,,,,,,,,,,,,,,,,,,,,,,,,,,,,,,,
,,,,,,,,2023-08-06_08h25.59.200,HF_wild_card,2022.2.4,Win32,60.28817749,594a481105e73f0001450009,64ce5acb97489d65b14ecc7a,64cf4af447447ed36c81da0f,,,,,,,ctch,resources/DP.BMP,resources/DG.BMP,Door1,0.4140625,-0.044270833,1,0,0,1.8708,optionRight,30,4815,3,6,0,6,0,1,,,,,,,,,,,,,,,,,,,,,,,,,,,,,,,,,,,,,,,
,,,,,,,,2023-08-06_08h25.59.200,HF_wild_card,2022.2.4,Win32,60.28817749,594a481105e73f0001450009,64ce5acb97489d65b14ecc7a,64cf4af447447ed36c81da0f,,,,,,,decisionTrl,resources/DBN.BMP,resources/DB.BMP,Door3,0.346354167,-0.057291667,1,0,0,1.7351,optionRight,70,4885,3,7,0,7,0,1,,,,,,,,,,,,,,,,,,,,,,,,,,,,,,,,,,,,,,,
,,,,,,,,2023-08-06_08h25.59.200,HF_wild_card,2022.2.4,Win32,60.28817749,594a481105e73f0001450009,64ce5acb97489d65b14ecc7a,64cf4af447447ed36c81da0f,,,,,,,decisionTrl,resources/DBN.BMP,resources/DP.BMP,Door4,0.348958333,-0.03515625,1,0,0,1.2173,optionRight,80,4965,3,8,0,8,0,1,,,,,,,,,,,,,,,,,,,,,,,,,,,,,,,,,,,,,,,
,,,,,,,,2023-08-06_08h25.59.200,HF_wild_card,2022.2.4,Win32,60.28817749,594a481105e73f0001450009,64ce5acb97489d65b14ecc7a,64cf4af447447ed36c81da0f,,,,,,,decisionTrl,resources/DR.BMP,resources/DG.BMP,Door1,0.37109375,-0.029947917,1,0,0,2.4088,optionRight,30,4995,3,9,0,9,0,1,,,,,,,,,,,,,,,,,,,,,,,,,,,,,,,,,,,,,,,
,,,,,,,,2023-08-06_08h25.59.200,HF_wild_card,2022.2.4,Win32,60.28817749,594a481105e73f0001450009,64ce5acb97489d65b14ecc7a,64cf4af447447ed36c81da0f,,,,,,,ctch,resources/DG.BMP,resources/DP.BMP,Door4,0.41796875,-0.055989583,1,0,0,1.3058,optionRight,60,5055,3,10,0,10,0,1,,,,,,,,,,,,,,,,,,,,,,,,,,,,,,,,,,,,,,,
,,,,,,,,2023-08-06_08h25.59.200,HF_wild_card,2022.2.4,Win32,60.28817749,594a481105e73f0001450009,64ce5acb97489d65b14ecc7a,64cf4af447447ed36c81da0f,,,,,,,sngl,resources/DR.BMP,resources/Empty.png,Door2,-0.309895833,-0.00390625,1,0,0,1.0014,optionLeft,40,5095,3,11,0,11,0,1,,,,,,,,,,,,,,,,,,,,,,,,,,,,,,,,,,,,,,,
,,,,,,,,2023-08-06_08h25.59.200,HF_wild_card,2022.2.4,Win32,60.28817749,594a481105e73f0001450009,64ce5acb97489d65b14ecc7a,64cf4af447447ed36c81da0f,,,,,,,decisionTrl,resources/DB.BMP,resources/DP.BMP,Door3,-0.37890625,-0.02734375,1,0,0,2.0459,optionLeft,70,5165,3,12,0,12,0,1,,,,,,,,,,,,,,,,,,,,,,,,,,,,,,,,,,,,,,,
,,,,,,,,2023-08-06_08h25.59.200,HF_wild_card,2022.2.4,Win32,60.28817749,594a481105e73f0001450009,64ce5acb97489d65b14ecc7a,64cf4af447447ed36c81da0f,,,,,,,decisionTrl,resources/DR.BMP,resources/DBN.BMP,Door2,-0.395833333,-0.013020833,1,0,0,2.2397,optionLeft,40,5205,3,13,0,13,0,1,,,,,,,,,,,,,,,,,,,,,,,,,,,,,,,,,,,,,,,
,,,,,,,,2023-08-06_08h25.59.200,HF_wild_card,2022.2.4,Win32,60.28817749,594a481105e73f0001450009,64ce5acb97489d65b14ecc7a,64cf4af447447ed36c81da0f,,,,,,,sngl,resources/Empty.png,resources/DBN.BMP,WildCard_Ex,0.376302083,-0.015625,1,0,0,1.4943,optionRight,5,5210,3,14,0,14,0,1,,,,,,,,,,,,,,,,,,,,,,,,,,,,,,,,,,,,,,,
,,,,,,,,2023-08-06_08h25.59.200,HF_wild_card,2022.2.4,Win32,60.28817749,594a481105e73f0001450009,64ce5acb97489d65b14ecc7a,64cf4af447447ed36c81da0f,,,,,,,decisionTrl,resources/DP.BMP,resources/DB.BMP,Door4,-0.333333333,-0.08984375,1,0,0,1.7003,optionLeft,60,5270,3,15,0,15,0,1,,,,,,,,,,,,,,,,,,,,,,,,,,,,,,,,,,,,,,,
,,,,,,,,2023-08-06_08h25.59.200,HF_wild_card,2022.2.4,Win32,60.28817749,594a481105e73f0001450009,64ce5acb97489d65b14ecc7a,64cf4af447447ed36c81da0f,,,,,,,decisionTrl,resources/DP.BMP,resources/DB.BMP,Door3,0.325520833,-0.036458333,1,0,0,1.7673,optionRight,70,5340,3,16,0,16,0,1,,,,,,,,,,,,,,,,,,,,,,,,,,,,,,,,,,,,,,,
,,,,,,,,2023-08-06_08h25.59.200,HF_wild_card,2022.2.4,Win32,60.28817749,594a481105e73f0001450009,64ce5acb97489d65b14ecc7a,64cf4af447447ed36c81da0f,,,,,,,ctch,resources/DG.BMP,resources/DP.BMP,Door4,0.381510417,-0.0703125,1,0,0,1.573,optionRight,80,5420,3,17,0,17,0,1,,,,,,,,,,,,,,,,,,,,,,,,,,,,,,,,,,,,,,,
,,,,,,,,2023-08-06_08h25.59.200,HF_wild_card,2022.2.4,Win32,60.28817749,594a481105e73f0001450009,64ce5acb97489d65b14ecc7a,64cf4af447447ed36c81da0f,,,,,,,decisionTrl,resources/DG.BMP,resources/DBN.BMP,Door1,-0.346354167,-0.055989583,1,0,0,1.8071,optionLeft,30,5450,3,18,0,18,0,1,,,,,,,,,,,,,,,,,,,,,,,,,,,,,,,,,,,,,,,
,,,,,,,,2023-08-06_08h25.59.200,HF_wild_card,2022.2.4,Win32,60.28817749,594a481105e73f0001450009,64ce5acb97489d65b14ecc7a,64cf4af447447ed36c81da0f,,,,,,,sngl,resources/Empty.png,resources/DB.BMP,Door3,0.391927083,-0.029947917,1,0,0,1.0958,optionRight,70,5520,3,19,0,19,0,1,,,,,,,,,,,,,,,,,,,,,,,,,,,,,,,,,,,,,,,
,,,,,,,,2023-08-06_08h25.59.200,HF_wild_card,2022.2.4,Win32,60.28817749,594a481105e73f0001450009,64ce5acb97489d65b14ecc7a,64cf4af447447ed36c81da0f,,,,,,,sngl,resources/DG.BMP,resources/Empty.png,Door1,-0.35546875,-0.03125,1,0,0,0.9313,optionLeft,30,5550,3,20,0,20,0,1,,,,,,,,,,,,,,,,,,,,,,,,,,,,,,,,,,,,,,,
,,,,,,,,2023-08-06_08h25.59.200,HF_wild_card,2022.2.4,Win32,60.28817749,594a481105e73f0001450009,64ce5acb97489d65b14ecc7a,64cf4af447447ed36c81da0f,,,,,,,ctch,resources/DB.BMP,resources/DR.BMP,Door3,-0.356770833,-0.0390625,1,0,0,1.4752,optionLeft,70,5620,3,21,0,21,0,1,,,,,,,,,,,,,,,,,,,,,,,,,,,,,,,,,,,,,,,
,,,,,,,,2023-08-06_08h25.59.200,HF_wild_card,2022.2.4,Win32,60.28817749,594a481105e73f0001450009,64ce5acb97489d65b14ecc7a,64cf4af447447ed36c81da0f,,,,,,,decisionTrl,resources/DG.BMP,resources/DR.BMP,Door1,-0.272135417,-0.057291667,1,0,0,1.7183,optionLeft,30,5650,3,22,0,22,0,1,,,,,,,,,,,,,,,,,,,,,,,,,,,,,,,,,,,,,,,
,,,,,,,,2023-08-06_08h25.59.200,HF_wild_card,2022.2.4,Win32,60.28817749,594a481105e73f0001450009,64ce5acb97489d65b14ecc7a,64cf4af447447ed36c81da0f,,,,,,,decisionTrl,resources/DR.BMP,resources/DG.BMP,Door2,-0.299479167,-0.0546875,1,0,0,1.5352,optionLeft,40,5690,3,23,0,23,0,1,,,,,,,,,,,,,,,,,,,,,,,,,,,,,,,,,,,,,,,
,,,,,,,,2023-08-06_08h25.59.200,HF_wild_card,2022.2.4,Win32,60.28817749,594a481105e73f0001450009,64ce5acb97489d65b14ecc7a,64cf4af447447ed36c81da0f,,,,,,,sngl,resources/DBN.BMP,resources/Empty.png,WildCard_Ex,-0.321614583,-0.002604167,1,0,0,0.9316,optionLeft,95,5785,3,24,0,24,0,1,,,,,,,,,,,,,,,,,,,,,,,,,,,,,,,,,,,,,,,
,,,,,,,,2023-08-06_08h25.59.200,HF_wild_card,2022.2.4,Win32,60.28817749,594a481105e73f0001450009,64ce5acb97489d65b14ecc7a,64cf4af447447ed36c81da0f,,,,,,,decisionTrl,resources/DP.BMP,resources/DB.BMP,Door3,0.342447917,-0.087239583,1,0,0,1.7702,optionRight,70,5855,3,25,0,25,0,1,,,,,,,,,,,,,,,,,,,,,,,,,,,,,,,,,,,,,,,
,,,,,,,,2023-08-06_08h25.59.200,HF_wild_card,2022.2.4,Win32,60.28817749,594a481105e73f0001450009,64ce5acb97489d65b14ecc7a,64cf4af447447ed36c81da0f,,,,,,,decisionTrl,resources/DB.BMP,resources/DP.BMP,Door4,0.321614583,-0.083333333,1,0,0,1.2577,optionRight,80,5935,3,26,0,26,0,1,,,,,,,,,,,,,,,,,,,,,,,,,,,,,,,,,,,,,,,
,,,,,,,,2023-08-06_08h25.59.200,HF_wild_card,2022.2.4,Win32,60.28817749,594a481105e73f0001450009,64ce5acb97489d65b14ecc7a,64cf4af447447ed36c81da0f,,,,,,,ctch,resources/DB.BMP,resources/DR.BMP,Door3,-0.330729167,-0.0703125,1,0,0,1.5948,optionLeft,70,6005,3,27,0,27,0,1,,,,,,,,,,,,,,,,,,,,,,,,,,,,,,,,,,,,,,,
,,,,,,,,2023-08-06_08h25.59.200,HF_wild_card,2022.2.4,Win32,60.28817749,594a481105e73f0001450009,64ce5acb97489d65b14ecc7a,64cf4af447447ed36c81da0f,,,,,,,sngl,resources/DB.BMP,resources/Empty.png,Door3,-0.34375,-0.026041667,1,0,0,0.8724,optionLeft,70,6075,3,28,0,28,0,1,,,,,,,,,,,,,,,,,,,,,,,,,,,,,,,,,,,,,,,
,,,,,,,,2023-08-06_08h25.59.200,HF_wild_card,2022.2.4,Win32,60.28817749,594a481105e73f0001450009,64ce5acb97489d65b14ecc7a,64cf4af447447ed36c81da0f,,,,,,,decisionTrl,resources/DB.BMP,resources/DP.BMP,Door4,0.334635417,-0.071614583,1,0,0,1.8666,optionRight,80,6155,3,29,0,29,0,1,,,,,,,,,,,,,,,,,,,,,,,,,,,,,,,,,,,,,,,
,,,,,,,,2023-08-06_08h25.59.200,HF_wild_card,2022.2.4,Win32,60.28817749,594a481105e73f0001450009,64ce5acb97489d65b14ecc7a,64cf4af447447ed36c81da0f,,,,,,,ctch,resources/DR.BMP,resources/DB.BMP,Door3,-0.001302083,-0.016927083,1,0,0,0.6049,optionRight,70,6225,3,30,0,30,0,1,,,,,,,,,,,,,,,,,,,,,,,,,,,,,,,,,,,,,,,
,,,,,,,,2023-08-06_08h25.59.200,HF_wild_card,2022.2.4,Win32,60.28817749,594a481105e73f0001450009,64ce5acb97489d65b14ecc7a,64cf4af447447ed36c81da0f,,,,,,,sngl,resources/Empty.png,resources/DBN.BMP,WildCard_Ex,0.397135417,-0.078125,1,0,0,0.9576,optionRight,95,6320,3,31,0,31,0,1,,,,,,,,,,,,,,,,,,,,,,,,,,,,,,,,,,,,,,,
,,,,,,,,2023-08-06_08h25.59.200,HF_wild_card,2022.2.4,Win32,60.28817749,594a481105e73f0001450009,64ce5acb97489d65b14ecc7a,64cf4af447447ed36c81da0f,,,,,,,decisionTrl,resources/DBN.BMP,resources/DG.BMP,Door1,0.3515625,-0.059895833,1,0,0,1.2407,optionRight,30,6350,3,32,0,32,0,1,,,,,,,,,,,,,,,,,,,,,,,,,,,,,,,,,,,,,,,
,,,,,,,,2023-08-06_08h25.59.200,HF_wild_card,2022.2.4,Win32,60.28817749,594a481105e73f0001450009,64ce5acb97489d65b14ecc7a,64cf4af447447ed36c81da0f,,,,,,,sngl,resources/Empty.png,resources/DG.BMP,Door1,0.298177083,-0.024739583,1,0,0,1.056,optionRight,30,6380,3,33,0,33,0,1,,,,,,,,,,,,,,,,,,,,,,,,,,,,,,,,,,,,,,,
,,,,,,,,2023-08-06_08h25.59.200,HF_wild_card,2022.2.4,Win32,60.28817749,594a481105e73f0001450009,64ce5acb97489d65b14ecc7a,64cf4af447447ed36c81da0f,,,,,,,decisionTrl,resources/DR.BMP,resources/DG.BMP,Door2,-0.319010417,-0.002604167,1,0,0,0.8102,optionLeft,40,6420,3,34,0,34,0,1,,,,,,,,,,,,,,,,,,,,,,,,,,,,,,,,,,,,,,,
,,,,,,,,2023-08-06_08h25.59.200,HF_wild_card,2022.2.4,Win32,60.28817749,594a481105e73f0001450009,64ce5acb97489d65b14ecc7a,64cf4af447447ed36c81da0f,,,,,,,decisionTrl,resources/DP.BMP,resources/DBN.BMP,WildCard_Ex,0.380208333,-0.0078125,1,0,0,2.0502,optionRight,5,6425,3,35,0,35,0,1,,,,,,,,,,,,,,,,,,,,,,,,,,,,,,,,,,,,,,,
,,,,,,,,2023-08-06_08h25.59.200,HF_wild_card,2022.2.4,Win32,60.28817749,594a481105e73f0001450009,64ce5acb97489d65b14ecc7a,64cf4af447447ed36c81da0f,,,,,,,decisionTrl,resources/DR.BMP,resources/DG.BMP,Door2,-0.3828125,-0.044270833,1,0,0,1.9037,optionLeft,20,6445,3,36,0,36,0,1,,,,,,,,,,,,,,,,,,,,,,,,,,,,,,,,,,,,,,,
,,,,,,,,2023-08-06_08h25.59.200,HF_wild_card,2022.2.4,Win32,60.28817749,594a481105e73f0001450009,64ce5acb97489d65b14ecc7a,64cf4af447447ed36c81da0f,,,,,,,decisionTrl,resources/DB.BMP,resources/DP.BMP,Door4,0.37890625,-0.044270833,1,0,0,0.9385,optionRight,60,6505,3,37,0,37,0,1,,,,,,,,,,,,,,,,,,,,,,,,,,,,,,,,,,,,,,,
,,,,,,,,2023-08-06_08h25.59.200,HF_wild_card,2022.2.4,Win32,60.28817749,594a481105e73f0001450009,64ce5acb97489d65b14ecc7a,64cf4af447447ed36c81da0f,,,,,,,decisionTrl,resources/DG.BMP,resources/DR.BMP,Door2,0.3828125,-0.044270833,1,0,0,1.5337,optionRight,20,6525,3,38,0,38,0,1,,,,,,,,,,,,,,,,,,,,,,,,,,,,,,,,,,,,,,,
,,,,,,,,2023-08-06_08h25.59.200,HF_wild_card,2022.2.4,Win32,60.28817749,594a481105e73f0001450009,64ce5acb97489d65b14ecc7a,64cf4af447447ed36c81da0f,,,,,,,decisionTrl,resources/DG.BMP,resources/DR.BMP,Door1,-0.311197917,-0.032552083,1,0,0,0.8359,optionLeft,30,6555,3,39,0,39,0,1,,,,,,,,,,,,,,,,,,,,,,,,,,,,,,,,,,,,,,,
,,,,,,,,2023-08-06_08h25.59.200,HF_wild_card,2022.2.4,Win32,60.28817749,594a481105e73f0001450009,64ce5acb97489d65b14ecc7a,64cf4af447447ed36c81da0f,,,,,,,ctch,resources/DP.BMP,resources/DG.BMP,Door4,-0.356770833,-0.036458333,1,0,0,1.1908,optionLeft,60,6615,3,40,0,40,0,1,,,,,,,,,,,,,,,,,,,,,,,,,,,,,,,,,,,,,,,
,,,,,,,,2023-08-06_08h25.59.200,HF_wild_card,2022.2.4,Win32,60.28817749,594a481105e73f0001450009,64ce5acb97489d65b14ecc7a,64cf4af447447ed36c81da0f,,,,,,,decisionTrl,resources/DG.BMP,resources/DR.BMP,Door1,-0.334635417,-0.065104167,1,0,0,1.8562,optionLeft,30,6645,3,41,0,41,0,1,,,,,,,,,,,,,,,,,,,,,,,,,,,,,,,,,,,,,,,
,,,,,,,,2023-08-06_08h25.59.200,HF_wild_card,2022.2.4,Win32,60.28817749,594a481105e73f0001450009,64ce5acb97489d65b14ecc7a,64cf4af447447ed36c81da0f,,,,,,,ctch,resources/DR.BMP,resources/DB.BMP,Door3,0.33984375,-0.03125,1,0,0,1.0186,optionRight,70,6715,3,42,0,42,0,1,,,,,,,,,,,,,,,,,,,,,,,,,,,,,,,,,,,,,,,
,,,,,,,,2023-08-06_08h25.59.200,HF_wild_card,2022.2.4,Win32,60.28817749,594a481105e73f0001450009,64ce5acb97489d65b14ecc7a,64cf4af447447ed36c81da0f,,,,,,,sngl,resources/DBN.BMP,resources/Empty.png,WildCard_Ex,-0.290364583,0.01953125,1,0,0,0.9341,optionLeft,5,6720,3,43,0,43,0,1,,,,,,,,,,,,,,,,,,,,,,,,,,,,,,,,,,,,,,,
,,,,,,,,2023-08-06_08h25.59.200,HF_wild_card,2022.2.4,Win32,60.28817749,594a481105e73f0001450009,64ce5acb97489d65b14ecc7a,64cf4af447447ed36c81da0f,,,,,,,,,,,,,,,,,,,,,,,,,,2,0,2,0,1,,,,,,,,,,,,,,,,,,,,,,,,,,,,,,,,,,
,,,,,,,,2023-08-06_08h25.59.200,HF_wild_card,2022.2.4,Win32,60.28817749,594a481105e73f0001450009,64ce5acb97489d65b14ecc7a,64cf4af447447ed36c81da0f,,,,,,,sngl,resources/DP.BMP,resources/Empty.png,Door4,-0.360677083,-0.041666667,1,0,0,1.3167,optionLeft,60,6780,4,0,0,0,0,1,,,,,,,,,,,,,,,,,,,,,,,,,,,,,,,,,,,,,,,
,,,,,,,,2023-08-06_08h25.59.200,HF_wild_card,2022.2.4,Win32,60.28817749,594a481105e73f0001450009,64ce5acb97489d65b14ecc7a,64cf4af447447ed36c81da0f,,,,,,,decisionTrl,resources/DR.BMP,resources/DG.BMP,Door2,-0.274739583,-0.022135417,1,0,0,1.6982,optionLeft,40,6820,4,1,0,1,0,1,,,,,,,,,,,,,,,,,,,,,,,,,,,,,,,,,,,,,,,
,,,,,,,,2023-08-06_08h25.59.200,HF_wild_card,2022.2.4,Win32,60.28817749,594a481105e73f0001450009,64ce5acb97489d65b14ecc7a,64cf4af447447ed36c81da0f,,,,,,,decisionTrl,resources/DY.BMP,resources/DB.BMP,WildCard_NonEx,-0.294270833,-0.010416667,1,0,0,1.1543,optionLeft,55,6875,4,2,0,2,0,1,,,,,,,,,,,,,,,,,,,,,,,,,,,,,,,,,,,,,,,
,,,,,,,,2023-08-06_08h25.59.200,HF_wild_card,2022.2.4,Win32,60.28817749,594a481105e73f0001450009,64ce5acb97489d65b14ecc7a,64cf4af447447ed36c81da0f,,,,,,,ctch,resources/DG.BMP,resources/DP.BMP,Door4,0.358072917,-0.041666667,1,0,0,1.0407,optionRight,80,6955,4,3,0,3,0,1,,,,,,,,,,,,,,,,,,,,,,,,,,,,,,,,,,,,,,,
,,,,,,,,2023-08-06_08h25.59.200,HF_wild_card,2022.2.4,Win32,60.28817749,594a481105e73f0001450009,64ce5acb97489d65b14ecc7a,64cf4af447447ed36c81da0f,,,,,,,decisionTrl,resources/DP.BMP,resources/DB.BMP,Door4,-0.38671875,-0.061197917,1,0,0,2.3672,optionLeft,60,7015,4,4,0,4,0,1,,,,,,,,,,,,,,,,,,,,,,,,,,,,,,,,,,,,,,,
,,,,,,,,2023-08-06_08h25.59.200,HF_wild_card,2022.2.4,Win32,60.28817749,594a481105e73f0001450009,64ce5acb97489d65b14ecc7a,64cf4af447447ed36c81da0f,,,,,,,decisionTrl,resources/DB.BMP,resources/DP.BMP,Door4,0.390625,-0.01953125,1,0,0,1.1607,optionRight,60,7075,4,5,0,5,0,1,,,,,,,,,,,,,,,,,,,,,,,,,,,,,,,,,,,,,,,
,,,,,,,,2023-08-06_08h25.59.200,HF_wild_card,2022.2.4,Win32,60.28817749,594a481105e73f0001450009,64ce5acb97489d65b14ecc7a,64cf4af447447ed36c81da0f,,,,,,,sngl,resources/Empty.png,resources/DB.BMP,Door3,0.360677083,-0.071614583,1,0,0,0.9233,optionRight,70,7145,4,6,0,6,0,1,,,,,,,,,,,,,,,,,,,,,,,,,,,,,,,,,,,,,,,
,,,,,,,,2023-08-06_08h25.59.200,HF_wild_card,2022.2.4,Win32,60.28817749,594a481105e73f0001450009,64ce5acb97489d65b14ecc7a,64cf4af447447ed36c81da0f,,,,,,,decisionTrl,resources/DY.BMP,resources/DP.BMP,WildCard_NonEx,-0.352864583,-0.03125,1,0,0,1.3701,optionLeft,55,7200,4,7,0,7,0,1,,,,,,,,,,,,,,,,,,,,,,,,,,,,,,,,,,,,,,,
,,,,,,,,2023-08-06_08h25.59.200,HF_wild_card,2022.2.4,Win32,60.28817749,594a481105e73f0001450009,64ce5acb97489d65b14ecc7a,64cf4af447447ed36c81da0f,,,,,,,sngl,resources/Empty.png,resources/DR.BMP,Door2,0.365885417,-0.0625,1,0,0,0.8819,optionRight,40,7240,4,8,0,8,0,1,,,,,,,,,,,,,,,,,,,,,,,,,,,,,,,,,,,,,,,
,,,,,,,,2023-08-06_08h25.59.200,HF_wild_card,2022.2.4,Win32,60.28817749,594a481105e73f0001450009,64ce5acb97489d65b14ecc7a,64cf4af447447ed36c81da0f,,,,,,,ctch,resources/DP.BMP,resources/DG.BMP,Door4,-0.372395833,-0.01171875,1,0,0,1.2754,optionLeft,60,7300,4,9,0,9,0,1,,,,,,,,,,,,,,,,,,,,,,,,,,,,,,,,,,,,,,,
,,,,,,,,2023-08-06_08h25.59.200,HF_wild_card,2022.2.4,Win32,60.28817749,594a481105e73f0001450009,64ce5acb97489d65b14ecc7a,64cf4af447447ed36c81da0f,,,,,,,decisionTrl,resources/DB.BMP,resources/DP.BMP,Door4,0.395833333,-0.044270833,1,0,0,1.4587,optionRight,60,7360,4,10,0,10,0,1,,,,,,,,,,,,,,,,,,,,,,,,,,,,,,,,,,,,,,,
,,,,,,,,2023-08-06_08h25.59.200,HF_wild_card,2022.2.4,Win32,60.28817749,594a481105e73f0001450009,64ce5acb97489d65b14ecc7a,64cf4af447447ed36c81da0f,,,,,,,ctch,resources/DR.BMP,resources/DB.BMP,Door3,0.315104167,-0.036458333,1,0,0,1.352,optionRight,70,7430,4,11,0,11,0,1,,,,,,,,,,,,,,,,,,,,,,,,,,,,,,,,,,,,,,,
,,,,,,,,2023-08-06_08h25.59.200,HF_wild_card,2022.2.4,Win32,60.28817749,594a481105e73f0001450009,64ce5acb97489d65b14ecc7a,64cf4af447447ed36c81da0f,,,,,,,decisionTrl,resources/DG.BMP,resources/DR.BMP,Door1,-0.29296875,0.009114583,1,0,0,1.6685,optionLeft,30,7460,4,12,0,12,0,1,,,,,,,,,,,,,,,,,,,,,,,,,,,,,,,,,,,,,,,
,,,,,,,,2023-08-06_08h25.59.200,HF_wild_card,2022.2.4,Win32,60.28817749,594a481105e73f0001450009,64ce5acb97489d65b14ecc7a,64cf4af447447ed36c81da0f,,,,,,,decisionTrl,resources/DY.BMP,resources/DR.BMP,Door2,0.32421875,-0.014322917,1,0,0,1.8671,optionRight,40,7500,4,13,0,13,0,1,,,,,,,,,,,,,,,,,,,,,,,,,,,,,,,,,,,,,,,
,,,,,,,,2023-08-06_08h25.59.200,HF_wild_card,2022.2.4,Win32,60.28817749,594a481105e73f0001450009,64ce5acb97489d65b14ecc7a,64cf4af447447ed36c81da0f,,,,,,,decisionTrl,resources/DG.BMP,resources/DR.BMP,Door1,-0.390625,-0.061197917,1,0,0,2.3995,optionLeft,30,7530,4,14,0,14,0,1,,,,,,,,,,,,,,,,,,,,,,,,,,,,,,,,,,,,,,,
,,,,,,,,2023-08-06_08h25.59.200,HF_wild_card,2022.2.4,Win32,60.28817749,594a481105e73f0001450009,64ce5acb97489d65b14ecc7a,64cf4af447447ed36c81da0f,,,,,,,sngl,resources/Empty.png,resources/DY.BMP,WildCard_NonEx,0.3984375,-0.065104167,1,0,0,1.2314,optionRight,45,7575,4,15,0,15,0,1,,,,,,,,,,,,,,,,,,,,,,,,,,,,,,,,,,,,,,,
,,,,,,,,2023-08-06_08h25.59.200,HF_wild_card,2022.2.4,Win32,60.28817749,594a481105e73f0001450009,64ce5acb97489d65b14ecc7a,64cf4af447447ed36c81da0f,,,,,,,decisionTrl,resources/DY.BMP,resources/DG.BMP,Door1,0.39453125,-0.041666667,1,0,0,1.2159,optionRight,30,7605,4,16,0,16,0,1,,,,,,,,,,,,,,,,,,,,,,,,,,,,,,,,,,,,,,,
,,,,,,,,2023-08-06_08h25.59.200,HF_wild_card,2022.2.4,Win32,60.28817749,594a481105e73f0001450009,64ce5acb97489d65b14ecc7a,64cf4af447447ed36c81da0f,,,,,,,decisionTrl,resources/DG.BMP,resources/DY.BMP,Door1,-0.424479167,-0.02734375,1,0,0,1.2755,optionLeft,30,7635,4,17,0,17,0,1,,,,,,,,,,,,,,,,,,,,,,,,,,,,,,,,,,,,,,,
,,,,,,,,2023-08-06_08h25.59.200,HF_wild_card,2022.2.4,Win32,60.28817749,594a481105e73f0001450009,64ce5acb97489d65b14ecc7a,64cf4af447447ed36c81da0f,,,,,,,decisionTrl,resources/DB.BMP,resources/DP.BMP,Door4,0.346354167,-0.059895833,1,0,0,0.9981,optionRight,60,7695,4,18,0,18,0,1,,,,,,,,,,,,,,,,,,,,,,,,,,,,,,,,,,,,,,,
,,,,,,,,2023-08-06_08h25.59.200,HF_wild_card,2022.2.4,Win32,60.28817749,594a481105e73f0001450009,64ce5acb97489d65b14ecc7a,64cf4af447447ed36c81da0f,,,,,,,decisionTrl,resources/DP.BMP,resources/DB.BMP,Door4,-0.3671875,-0.032552083,1,0,0,1.0168,optionLeft,60,7755,4,19,0,19,0,1,,,,,,,,,,,,,,,,,,,,,,,,,,,,,,,,,,,,,,,
,,,,,,,,2023-08-06_08h25.59.200,HF_wild_card,2022.2.4,Win32,60.28817749,594a481105e73f0001450009,64ce5acb97489d65b14ecc7a,64cf4af447447ed36c81da0f,,,,,,,decisionTrl,resources/DP.BMP,resources/DB.BMP,Door4,-0.377604167,-0.057291667,1,0,0,1.2075,optionLeft,60,7815,4,20,0,20,0,1,,,,,,,,,,,,,,,,,,,,,,,,,,,,,,,,,,,,,,,
,,,,,,,,2023-08-06_08h25.59.200,HF_wild_card,2022.2.4,Win32,60.28817749,594a481105e73f0001450009,64ce5acb97489d65b14ecc7a,64cf4af447447ed36c81da0f,,,,,,,decisionTrl,resources/DR.BMP,resources/DG.BMP,Door1,0.4453125,-0.0546875,1,0,0,1.1407,optionRight,30,7845,4,21,0,21,0,1,,,,,,,,,,,,,,,,,,,,,,,,,,,,,,,,,,,,,,,
,,,,,,,,2023-08-06_08h25.59.200,HF_wild_card,2022.2.4,Win32,60.28817749,594a481105e73f0001450009,64ce5acb97489d65b14ecc7a,64cf4af447447ed36c81da0f,,,,,,,sngl,resources/DG.BMP,resources/Empty.png,Door1,-0.322916667,-0.0078125,1,0,0,0.8661,optionLeft,30,7875,4,22,0,22,0,1,,,,,,,,,,,,,,,,,,,,,,,,,,,,,,,,,,,,,,,
,,,,,,,,2023-08-06_08h25.59.200,HF_wild_card,2022.2.4,Win32,60.28817749,594a481105e73f0001450009,64ce5acb97489d65b14ecc7a,64cf4af447447ed36c81da0f,,,,,,,ctch,resources/DP.BMP,resources/DG.BMP,Door4,-0.388020833,-0.002604167,1,0,0,0.9039,optionLeft,80,7955,4,23,0,23,0,1,,,,,,,,,,,,,,,,,,,,,,,,,,,,,,,,,,,,,,,
,,,,,,,,2023-08-06_08h25.59.200,HF_wild_card,2022.2.4,Win32,60.28817749,594a481105e73f0001450009,64ce5acb97489d65b14ecc7a,64cf4af447447ed36c81da0f,,,,,,,decisionTrl,resources/DR.BMP,resources/DY.BMP,Door2,-0.356770833,-0.032552083,1,0,0,1.9599,optionLeft,20,7975,4,24,0,24,0,1,,,,,,,,,,,,,,,,,,,,,,,,,,,,,,,,,,,,,,,
,,,,,,,,2023-08-06_08h25.59.200,HF_wild_card,2022.2.4,Win32,60.28817749,594a481105e73f0001450009,64ce5acb97489d65b14ecc7a,64cf4af447447ed36c81da0f,,,,,,,ctch,resources/DB.BMP,resources/DR.BMP,Door3,-0.447916667,-0.01171875,1,0,0,1.1017,optionLeft,70,8045,4,25,0,25,0,1,,,,,,,,,,,,,,,,,,,,,,,,,,,,,,,,,,,,,,,
,,,,,,,,2023-08-06_08h25.59.200,HF_wild_card,2022.2.4,Win32,60.28817749,594a481105e73f0001450009,64ce5acb97489d65b14ecc7a,64cf4af447447ed36c81da0f,,,,,,,sngl,resources/DY.BMP,resources/Empty.png,WildCard_NonEx,-0.30078125,-0.014322917,1,0,0,0.9083,optionLeft,55,8100,4,26,0,26,0,1,,,,,,,,,,,,,,,,,,,,,,,,,,,,,,,,,,,,,,,
,,,,,,,,2023-08-06_08h25.59.200,HF_wild_card,2022.2.4,Win32,60.28817749,594a481105e73f0001450009,64ce5acb97489d65b14ecc7a,64cf4af447447ed36c81da0f,,,,,,,decisionTrl,resources/DG.BMP,resources/DR.BMP,Door1,-0.385416667,-0.078125,1,0,0,2.0342,optionLeft,30,8130,4,27,0,27,0,1,,,,,,,,,,,,,,,,,,,,,,,,,,,,,,,,,,,,,,,
,,,,,,,,2023-08-06_08h25.59.200,HF_wild_card,2022.2.4,Win32,60.28817749,594a481105e73f0001450009,64ce5acb97489d65b14ecc7a,64cf4af447447ed36c81da0f,,,,,,,decisionTrl,resources/DB.BMP,resources/DY.BMP,WildCard_NonEx,0.470052083,-0.020833333,1,0,0,0.9207,optionRight,55,8185,4,28,0,28,0,1,,,,,,,,,,,,,,,,,,,,,,,,,,,,,,,,,,,,,,,
,,,,,,,,2023-08-06_08h25.59.200,HF_wild_card,2022.2.4,Win32,60.28817749,594a481105e73f0001450009,64ce5acb97489d65b14ecc7a,64cf4af447447ed36c81da0f,,,,,,,sngl,resources/DR.BMP,resources/Empty.png,Door2,-0.34765625,-0.022135417,1,0,0,0.8722,optionLeft,20,8205,4,29,0,29,0,1,,,,,,,,,,,,,,,,,,,,,,,,,,,,,,,,,,,,,,,
,,,,,,,,2023-08-06_08h25.59.200,HF_wild_card,2022.2.4,Win32,60.28817749,594a481105e73f0001450009,64ce5acb97489d65b14ecc7a,64cf4af447447ed36c81da0f,,,,,,,ctch,resources/DB.BMP,resources/DR.BMP,Door3,-0.471354167,-0.00390625,1,0,0,1.1589,optionLeft,70,8275,4,30,0,30,0,1,,,,,,,,,,,,,,,,,,,,,,,,,,,,,,,,,,,,,,,
,,,,,,,,2023-08-06_08h25.59.200,HF_wild_card,2022.2.4,Win32,60.28817749,594a481105e73f0001450009,64ce5acb97489d65b14ecc7a,64cf4af447447ed36c81da0f,,,,,,,decisionTrl,resources/DR.BMP,resources/DG.BMP,Door2,-0.305989583,-0.118489583,1,0,0,1.7062,optionLeft,40,8315,4,31,0,31,0,1,,,,,,,,,,,,,,,,,,,,,,,,,,,,,,,,,,,,,,,
,,,,,,,,2023-08-06_08h25.59.200,HF_wild_card,2022.2.4,Win32,60.28817749,594a481105e73f0001450009,64ce5acb97489d65b14ecc7a,64cf4af447447ed36c81da0f,,,,,,,sngl,resources/Empty.png,resources/DY.BMP,WildCard_NonEx,0.404947917,-0.029947917,1,0,0,0.9036,optionRight,55,8370,4,32,0,32,0,1,,,,,,,,,,,,,,,,,,,,,,,,,,,,,,,,,,,,,,,
,,,,,,,,2023-08-06_08h25.59.200,HF_wild_card,2022.2.4,Win32,60.28817749,594a481105e73f0001450009,64ce5acb97489d65b14ecc7a,64cf4af447447ed36c81da0f,,,,,,,sngl,resources/DY.BMP,resources/Empty.png,WildCard_NonEx,-0.42578125,-0.049479167,1,0,0,0.8033,optionLeft,45,8415,4,33,0,33,0,1,,,,,,,,,,,,,,,,,,,,,,,,,,,,,,,,,,,,,,,
,,,,,,,,2023-08-06_08h25.59.200,HF_wild_card,2022.2.4,Win32,60.28817749,594a481105e73f0001450009,64ce5acb97489d65b14ecc7a,64cf4af447447ed36c81da0f,,,,,,,decisionTrl,resources/DR.BMP,resources/DG.BMP,Door1,0.455729167,-0.03515625,1,0,0,2.0605,optionRight,30,8445,4,34,0,34,0,1,,,,,,,,,,,,,,,,,,,,,,,,,,,,,,,,,,,,,,,
,,,,,,,,2023-08-06_08h25.59.200,HF_wild_card,2022.2.4,Win32,60.28817749,594a481105e73f0001450009,64ce5acb97489d65b14ecc7a,64cf4af447447ed36c81da0f,,,,,,,decisionTrl,resources/DG.BMP,resources/DR.BMP,Door1,-0.416666667,-0.053385417,1,0,0,0.9528,optionLeft,30,8475,4,35,0,35,0,1,,,,,,,,,,,,,,,,,,,,,,,,,,,,,,,,,,,,,,,
,,,,,,,,2023-08-06_08h25.59.200,HF_wild_card,2022.2.4,Win32,60.28817749,594a481105e73f0001450009,64ce5acb97489d65b14ecc7a,64cf4af447447ed36c81da0f,,,,,,,decisionTrl,resources/DB.BMP,resources/DP.BMP,Door4,0.407552083,-0.052083333,1,0,0,1.4561,optionRight,60,8535,4,36,0,36,0,1,,,,,,,,,,,,,,,,,,,,,,,,,,,,,,,,,,,,,,,
,,,,,,,,2023-08-06_08h25.59.200,HF_wild_card,2022.2.4,Win32,60.28817749,594a481105e73f0001450009,64ce5acb97489d65b14ecc7a,64cf4af447447ed36c81da0f,,,,,,,sngl,resources/DB.BMP,resources/Empty.png,Door3,-0.401041667,-0.104166667,1,0,0,0.9932,optionLeft,70,8605,4,37,0,37,0,1,,,,,,,,,,,,,,,,,,,,,,,,,,,,,,,,,,,,,,,
,,,,,,,,2023-08-06_08h25.59.200,HF_wild_card,2022.2.4,Win32,60.28817749,594a481105e73f0001450009,64ce5acb97489d65b14ecc7a,64cf4af447447ed36c81da0f,,,,,,,sngl,resources/Empty.png,resources/DP.BMP,Door4,0.3984375,-0.065104167,1,0,0,0.9827,optionRight,80,8685,4,38,0,38,0,1,,,,,,,,,,,,,,,,,,,,,,,,,,,,,,,,,,,,,,,
,,,,,,,,2023-08-06_08h25.59.200,HF_wild_card,2022.2.4,Win32,60.28817749,594a481105e73f0001450009,64ce5acb97489d65b14ecc7a,64cf4af447447ed36c81da0f,,,,,,,decisionTrl,resources/DP.BMP,resources/DY.BMP,Door4,-0.36328125,-0.041666667,1,0,0,0.9862,optionLeft,60,8745,4,39,0,39,0,1,,,,,,,,,,,,,,,,,,,,,,,,,,,,,,,,,,,,,,,
,,,,,,,,2023-08-06_08h25.59.200,HF_wild_card,2022.2.4,Win32,60.28817749,594a481105e73f0001450009,64ce5acb97489d65b14ecc7a,64cf4af447447ed36c81da0f,,,,,,,sngl,resources/Empty.png,resources/DG.BMP,Door1,0.369791667,-0.045572917,1,0,0,1.0503,optionRight,30,8775,4,40,0,40,0,1,,,,,,,,,,,,,,,,,,,,,,,,,,,,,,,,,,,,,,,
,,,,,,,,2023-08-06_08h25.59.200,HF_wild_card,2022.2.4,Win32,60.28817749,594a481105e73f0001450009,64ce5acb97489d65b14ecc7a,64cf4af447447ed36c81da0f,,,,,,,decisionTrl,resources/DP.BMP,resources/DB.BMP,Door3,0.356770833,-0.055989583,1,0,0,1.5434,optionRight,70,8845,4,41,0,41,0,1,,,,,,,,,,,,,,,,,,,,,,,,,,,,,,,,,,,,,,,
,,,,,,,,2023-08-06_08h25.59.200,HF_wild_card,2022.2.4,Win32,60.28817749,594a481105e73f0001450009,64ce5acb97489d65b14ecc7a,64cf4af447447ed36c81da0f,,,,,,,ctch,resources/DG.BMP,resources/DP.BMP,Door1,-0.368489583,-0.041666667,1,0,0,1.3684,optionLeft,30,8875,4,42,0,42,0,1,,,,,,,,,,,,,,,,,,,,,,,,,,,,,,,,,,,,,,,
,,,,,,,,2023-08-06_08h25.59.200,HF_wild_card,2022.2.4,Win32,60.28817749,594a481105e73f0001450009,64ce5acb97489d65b14ecc7a,64cf4af447447ed36c81da0f,,,,,,,ctch,resources/DR.BMP,resources/DB.BMP,Door3,0.328125,-0.06640625,1,0,0,1.942,optionRight,70,8945,4,43,0,43,0,1,,,,,,,,,,,,,,,,,,,,,,,,,,,,,,,,,,,,,,,
,,,,,,,,2023-08-06_08h25.59.200,HF_wild_card,2022.2.4,Win32,60.28817749,594a481105e73f0001450009,64ce5acb97489d65b14ecc7a,64cf4af447447ed36c81da0f,,,,,,,,,,,,,,,,,,,,,,,,,,3,0,3,0,1,,,,,,,,,,,,,,,,,,,,,,,,,,,,,,,,,,
,,,,,,,,2023-08-06_08h25.59.200,HF_wild_card,2022.2.4,Win32,60.28817749,594a481105e73f0001450009,64ce5acb97489d65b14ecc7a,64cf4af447447ed36c81da0f,,,,,,,decisionTrl,resources/DR.BMP,resources/DY.BMP,Door2,-0.359375,-0.057291667,1,0,0,1.6853,optionLeft,20,8965,5,0,0,0,0,1,,,,,,,,,,,,,,,,,,,,,,,,,,,,,,,,,,,,,,,
,,,,,,,,2023-08-06_08h25.59.200,HF_wild_card,2022.2.4,Win32,60.28817749,594a481105e73f0001450009,64ce5acb97489d65b14ecc7a,64cf4af447447ed36c81da0f,,,,,,,sngl,resources/Empty.png,resources/DG.BMP,Door1,0.459635417,-0.045572917,1,0,0,0.9031,optionRight,30,8995,5,1,0,1,0,1,,,,,,,,,,,,,,,,,,,,,,,,,,,,,,,,,,,,,,,
,,,,,,,,2023-08-06_08h25.59.200,HF_wild_card,2022.2.4,Win32,60.28817749,594a481105e73f0001450009,64ce5acb97489d65b14ecc7a,64cf4af447447ed36c81da0f,,,,,,,decisionTrl,resources/DP.BMP,resources/DB.BMP,Door4,-0.424479167,-0.053385417,1,0,0,1.3349,optionLeft,80,9075,5,2,0,2,0,1,,,,,,,,,,,,,,,,,,,,,,,,,,,,,,,,,,,,,,,
,,,,,,,,2023-08-06_08h25.59.200,HF_wild_card,2022.2.4,Win32,60.28817749,594a481105e73f0001450009,64ce5acb97489d65b14ecc7a,64cf4af447447ed36c81da0f,,,,,,,decisionTrl,resources/DB.BMP,resources/DP.BMP,Door4,0.368489583,-0.067708333,1,0,0,0.8692,optionRight,60,9135,5,3,0,3,0,1,,,,,,,,,,,,,,,,,,,,,,,,,,,,,,,,,,,,,,,
,,,,,,,,2023-08-06_08h25.59.200,HF_wild_card,2022.2.4,Win32,60.28817749,594a481105e73f0001450009,64ce5acb97489d65b14ecc7a,64cf4af447447ed36c81da0f,,,,,,,sngl,resources/DP.BMP,resources/Empty.png,Door4,-0.31640625,-0.016927083,1,0,0,0.8973,optionLeft,80,9215,5,4,0,4,0,1,,,,,,,,,,,,,,,,,,,,,,,,,,,,,,,,,,,,,,,
,,,,,,,,2023-08-06_08h25.59.200,HF_wild_card,2022.2.4,Win32,60.28817749,594a481105e73f0001450009,64ce5acb97489d65b14ecc7a,64cf4af447447ed36c81da0f,,,,,,,decisionTrl,resources/DR.BMP,resources/DG.BMP,Door1,0.453125,-0.0234375,1,0,0,1.0681,optionRight,30,9245,5,5,0,5,0,1,,,,,,,,,,,,,,,,,,,,,,,,,,,,,,,,,,,,,,,
,,,,,,,,2023-08-06_08h25.59.200,HF_wild_card,2022.2.4,Win32,60.28817749,594a481105e73f0001450009,64ce5acb97489d65b14ecc7a,64cf4af447447ed36c81da0f,,,,,,,sngl,resources/DY.BMP,resources/Empty.png,WildCard_NonEx,-0.319010417,-0.001302083,1,0,0,0.9508,optionLeft,45,9290,5,6,0,6,0,1,,,,,,,,,,,,,,,,,,,,,,,,,,,,,,,,,,,,,,,
,,,,,,,,2023-08-06_08h25.59.200,HF_wild_card,2022.2.4,Win32,60.28817749,594a481105e73f0001450009,64ce5acb97489d65b14ecc7a,64cf4af447447ed36c81da0f,,,,,,,decisionTrl,resources/DR.BMP,resources/DG.BMP,Door1,0.33203125,-0.100260417,1,0,0,2.058,optionRight,30,9320,5,7,0,7,0,1,,,,,,,,,,,,,,,,,,,,,,,,,,,,,,,,,,,,,,,
,,,,,,,,2023-08-06_08h25.59.200,HF_wild_card,2022.2.4,Win32,60.28817749,594a481105e73f0001450009,64ce5acb97489d65b14ecc7a,64cf4af447447ed36c81da0f,,,,,,,ctch,resources/DP.BMP,resources/DG.BMP,Door4,-0.373697917,-0.040364583,1,0,0,1.0228,optionLeft,80,9400,5,8,0,8,0,1,,,,,,,,,,,,,,,,,,,,,,,,,,,,,,,,,,,,,,,
,,,,,,,,2023-08-06_08h25.59.200,HF_wild_card,2022.2.4,Win32,60.28817749,594a481105e73f0001450009,64ce5acb97489d65b14ecc7a,64cf4af447447ed36c81da0f,,,,,,,sngl,resources/DB.BMP,resources/Empty.png,Door3,-0.2890625,-0.024739583,1,0,0,1.0656,optionLeft,70,9470,5,9,0,9,0,1,,,,,,,,,,,,,,,,,,,,,,,,,,,,,,,,,,,,,,,
,,,,,,,,2023-08-06_08h25.59.200,HF_wild_card,2022.2.4,Win32,60.28817749,594a481105e73f0001450009,64ce5acb97489d65b14ecc7a,64cf4af447447ed36c81da0f,,,,,,,decisionTrl,resources/DY.BMP,resources/DG.BMP,Door1,0.412760417,-0.02734375,1,0,0,1.3563,optionRight,30,9500,5,10,0,10,0,1,,,,,,,,,,,,,,,,,,,,,,,,,,,,,,,,,,,,,,,
,,,,,,,,2023-08-06_08h25.59.200,HF_wild_card,2022.2.4,Win32,60.28817749,594a481105e73f0001450009,64ce5acb97489d65b14ecc7a,64cf4af447447ed36c81da0f,,,,,,,decisionTrl,resources/DG.BMP,resources/DR.BMP,Door1,-0.315104167,-0.08203125,1,0,0,2.4425,optionLeft,30,9530,5,11,0,11,0,1,,,,,,,,,,,,,,,,,,,,,,,,,,,,,,,,,,,,,,,
,,,,,,,,2023-08-06_08h25.59.200,HF_wild_card,2022.2.4,Win32,60.28817749,594a481105e73f0001450009,64ce5acb97489d65b14ecc7a,64cf4af447447ed36c81da0f,,,,,,,ctch,resources/DR.BMP,resources/DB.BMP,Door3,0.41796875,-0.048177083,1,0,0,1.2203,optionRight,70,9600,5,12,0,12,0,1,,,,,,,,,,,,,,,,,,,,,,,,,,,,,,,,,,,,,,,
,,,,,,,,2023-08-06_08h25.59.200,HF_wild_card,2022.2.4,Win32,60.28817749,594a481105e73f0001450009,64ce5acb97489d65b14ecc7a,64cf4af447447ed36c81da0f,,,,,,,sngl,resources/DG.BMP,resources/Empty.png,Door1,-0.359375,-0.040364583,1,0,0,0.988,optionLeft,30,9630,5,13,0,13,0,1,,,,,,,,,,,,,,,,,,,,,,,,,,,,,,,,,,,,,,,
,,,,,,,,2023-08-06_08h25.59.200,HF_wild_card,2022.2.4,Win32,60.28817749,594a481105e73f0001450009,64ce5acb97489d65b14ecc7a,64cf4af447447ed36c81da0f,,,,,,,decisionTrl,resources/DP.BMP,resources/DY.BMP,Door4,-0.329427083,0.00390625,1,0,0,1.1419,optionLeft,60,9690,5,14,0,14,0,1,,,,,,,,,,,,,,,,,,,,,,,,,,,,,,,,,,,,,,,
,,,,,,,,2023-08-06_08h25.59.200,HF_wild_card,2022.2.4,Win32,60.28817749,594a481105e73f0001450009,64ce5acb97489d65b14ecc7a,64cf4af447447ed36c81da0f,,,,,,,decisionTrl,resources/DG.BMP,resources/DY.BMP,WildCard_NonEx,0.39453125,-0.04296875,1,0,0,1.3367,optionRight,55,9745,5,15,0,15,0,1,,,,,,,,,,,,,,,,,,,,,,,,,,,,,,,,,,,,,,,
,,,,,,,,2023-08-06_08h25.59.200,HF_wild_card,2022.2.4,Win32,60.28817749,594a481105e73f0001450009,64ce5acb97489d65b14ecc7a,64cf4af447447ed36c81da0f,,,,,,,sngl,resources/Empty.png,resources/DY.BMP,WildCard_NonEx,0.393229167,-0.001302083,1,0,0,1.8743,optionRight,55,9800,5,16,0,16,0,1,,,,,,,,,,,,,,,,,,,,,,,,,,,,,,,,,,,,,,,
,,,,,,,,2023-08-06_08h25.59.200,HF_wild_card,2022.2.4,Win32,60.28817749,594a481105e73f0001450009,64ce5acb97489d65b14ecc7a,64cf4af447447ed36c81da0f,,,,,,,sngl,resources/Empty.png,resources/DY.BMP,WildCard_NonEx,0.375,-0.033854167,1,0,0,0.9742,optionRight,45,9845,5,17,0,17,0,1,,,,,,,,,,,,,,,,,,,,,,,,,,,,,,,,,,,,,,,
,,,,,,,,2023-08-06_08h25.59.200,HF_wild_card,2022.2.4,Win32,60.28817749,594a481105e73f0001450009,64ce5acb97489d65b14ecc7a,64cf4af447447ed36c81da0f,,,,,,,decisionTrl,resources/DG.BMP,resources/DR.BMP,Door1,-0.182291667,-0.095052083,1,0,0,1.8365,optionLeft,30,9875,5,18,0,18,0,1,,,,,,,,,,,,,,,,,,,,,,,,,,,,,,,,,,,,,,,
,,,,,,,,2023-08-06_08h25.59.200,HF_wild_card,2022.2.4,Win32,60.28817749,594a481105e73f0001450009,64ce5acb97489d65b14ecc7a,64cf4af447447ed36c81da0f,,,,,,,decisionTrl,resources/DB.BMP,resources/DP.BMP,Door4,0.384114583,-0.020833333,1,0,0,1.0333,optionRight,60,9935,5,19,0,19,0,1,,,,,,,,,,,,,,,,,,,,,,,,,,,,,,,,,,,,,,,
,,,,,,,,2023-08-06_08h25.59.200,HF_wild_card,2022.2.4,Win32,60.28817749,594a481105e73f0001450009,64ce5acb97489d65b14ecc7a,64cf4af447447ed36c81da0f,,,,,,,decisionTrl,resources/DP.BMP,resources/DB.BMP,Door3,0.274739583,-0.03515625,1,0,0,1.7411,optionRight,70,10005,5,20,0,20,0,1,,,,,,,,,,,,,,,,,,,,,,,,,,,,,,,,,,,,,,,
,,,,,,,,2023-08-06_08h25.59.200,HF_wild_card,2022.2.4,Win32,60.28817749,594a481105e73f0001450009,64ce5acb97489d65b14ecc7a,64cf4af447447ed36c81da0f,,,,,,,decisionTrl,resources/DR.BMP,resources/DG.BMP,Door2,-0.369791667,-0.036458333,1,0,0,1.5468,optionLeft,20,10025,5,21,0,21,0,1,,,,,,,,,,,,,,,,,,,,,,,,,,,,,,,,,,,,,,,
,,,,,,,,2023-08-06_08h25.59.200,HF_wild_card,2022.2.4,Win32,60.28817749,594a481105e73f0001450009,64ce5acb97489d65b14ecc7a,64cf4af447447ed36c81da0f,,,,,,,sngl,resources/Empty.png,resources/DP.BMP,Door4,0.333333333,-0.078125,1,0,0,1.1593,optionRight,60,10085,5,22,0,22,0,1,,,,,,,,,,,,,,,,,,,,,,,,,,,,,,,,,,,,,,,
,,,,,,,,2023-08-06_08h25.59.200,HF_wild_card,2022.2.4,Win32,60.28817749,594a481105e73f0001450009,64ce5acb97489d65b14ecc7a,64cf4af447447ed36c81da0f,,,,,,,decisionTrl,resources/DG.BMP,resources/DR.BMP,Door1,-0.368489583,-0.048177083,1,0,0,1.6329,optionLeft,30,10115,5,23,0,23,0,1,,,,,,,,,,,,,,,,,,,,,,,,,,,,,,,,,,,,,,,
,,,,,,,,2023-08-06_08h25.59.200,HF_wild_card,2022.2.4,Win32,60.28817749,594a481105e73f0001450009,64ce5acb97489d65b14ecc7a,64cf4af447447ed36c81da0f,,,,,,,decisionTrl,resources/DP.BMP,resources/DB.BMP,Door4,-0.333333333,-0.0703125,1,0,0,1.8464,optionLeft,60,10175,5,24,0,24,0,1,,,,,,,,,,,,,,,,,,,,,,,,,,,,,,,,,,,,,,,
,,,,,,,,2023-08-06_08h25.59.200,HF_wild_card,2022.2.4,Win32,60.28817749,594a481105e73f0001450009,64ce5acb97489d65b14ecc7a,64cf4af447447ed36c81da0f,,,,,,,decisionTrl,resources/DY.BMP,resources/DP.BMP,Door4,0.35546875,-0.02734375,1,0,0,1.3824,optionRight,60,10235,5,25,0,25,0,1,,,,,,,,,,,,,,,,,,,,,,,,,,,,,,,,,,,,,,,
,,,,,,,,2023-08-06_08h25.59.200,HF_wild_card,2022.2.4,Win32,60.28817749,594a481105e73f0001450009,64ce5acb97489d65b14ecc7a,64cf4af447447ed36c81da0f,,,,,,,decisionTrl,resources/DY.BMP,resources/DR.BMP,WildCard_NonEx,-0.360677083,-0.01953125,1,0,0,1.8677,optionLeft,45,10280,5,26,0,26,0,1,,,,,,,,,,,,,,,,,,,,,,,,,,,,,,,,,,,,,,,
,,,,,,,,2023-08-06_08h25.59.200,HF_wild_card,2022.2.4,Win32,60.28817749,594a481105e73f0001450009,64ce5acb97489d65b14ecc7a,64cf4af447447ed36c81da0f,,,,,,,decisionTrl,resources/DG.BMP,resources/DR.BMP,Door1,-0.380208333,-0.049479167,1,0,0,1.7943,optionLeft,30,10310,5,27,0,27,0,1,,,,,,,,,,,,,,,,,,,,,,,,,,,,,,,,,,,,,,,
,,,,,,,,2023-08-06_08h25.59.200,HF_wild_card,2022.2.4,Win32,60.28817749,594a481105e73f0001450009,64ce5acb97489d65b14ecc7a,64cf4af447447ed36c81da0f,,,,,,,ctch,resources/DP.BMP,resources/DG.BMP,Door4,-0.420572917,-0.049479167,1,0,0,1.0409,optionLeft,60,10370,5,28,0,28,0,1,,,,,,,,,,,,,,,,,,,,,,,,,,,,,,,,,,,,,,,
,,,,,,,,2023-08-06_08h25.59.200,HF_wild_card,2022.2.4,Win32,60.28817749,594a481105e73f0001450009,64ce5acb97489d65b14ecc7a,64cf4af447447ed36c81da0f,,,,,,,decisionTrl,resources/DB.BMP,resources/DY.BMP,Door3,-0.348958333,-0.022135417,1,0,0,2.626,optionLeft,70,10440,5,29,0,29,0,1,,,,,,,,,,,,,,,,,,,,,,,,,,,,,,,,,,,,,,,
,,,,,,,,2023-08-06_08h25.59.200,HF_wild_card,2022.2.4,Win32,60.28817749,594a481105e73f0001450009,64ce5acb97489d65b14ecc7a,64cf4af447447ed36c81da0f,,,,,,,ctch,resources/DR.BMP,resources/DB.BMP,Door3,0.381510417,-0.0234375,1,0,0,1.0862,optionRight,70,10510,5,30,0,30,0,1,,,,,,,,,,,,,,,,,,,,,,,,,,,,,,,,,,,,,,,
,,,,,,,,2023-08-06_08h25.59.200,HF_wild_card,2022.2.4,Win32,60.28817749,594a481105e73f0001450009,64ce5acb97489d65b14ecc7a,64cf4af447447ed36c81da0f,,,,,,,decisionTrl,resources/DY.BMP,resources/DB.BMP,Door3,0.436197917,-0.0390625,1,0,0,0.9526,optionRight,70,10580,5,31,0,31,0,1,,,,,,,,,,,,,,,,,,,,,,,,,,,,,,,,,,,,,,,
,,,,,,,,2023-08-06_08h25.59.200,HF_wild_card,2022.2.4,Win32,60.28817749,594a481105e73f0001450009,64ce5acb97489d65b14ecc7a,64cf4af447447ed36c81da0f,,,,,,,ctch,resources/DB.BMP,resources/DR.BMP,Door3,-0.32421875,-0.03515625,1,0,0,0.9117,optionLeft,70,10650,5,32,0,32,0,1,,,,,,,,,,,,,,,,,,,,,,,,,,,,,,,,,,,,,,,
,,,,,,,,2023-08-06_08h25.59.200,HF_wild_card,2022.2.4,Win32,60.28817749,594a481105e73f0001450009,64ce5acb97489d65b14ecc7a,64cf4af447447ed36c81da0f,,,,,,,sngl,resources/DR.BMP,resources/Empty.png,Door2,-0.377604167,-0.036458333,1,0,0,0.9687,optionLeft,40,10690,5,33,0,33,0,1,,,,,,,,,,,,,,,,,,,,,,,,,,,,,,,,,,,,,,,
,,,,,,,,2023-08-06_08h25.59.200,HF_wild_card,2022.2.4,Win32,60.28817749,594a481105e73f0001450009,64ce5acb97489d65b14ecc7a,64cf4af447447ed36c81da0f,,,,,,,decisionTrl,resources/DB.BMP,resources/DP.BMP,Door3,-0.342447917,-0.006510417,1,0,0,1.1631,optionLeft,70,10760,5,34,0,34,0,1,,,,,,,,,,,,,,,,,,,,,,,,,,,,,,,,,,,,,,,
,,,,,,,,2023-08-06_08h25.59.200,HF_wild_card,2022.2.4,Win32,60.28817749,594a481105e73f0001450009,64ce5acb97489d65b14ecc7a,64cf4af447447ed36c81da0f,,,,,,,sngl,resources/DY.BMP,resources/Empty.png,WildCard_NonEx,-0.299479167,-0.01953125,1,0,0,0.9593,optionLeft,55,10815,5,35,0,35,0,1,,,,,,,,,,,,,,,,,,,,,,,,,,,,,,,,,,,,,,,
,,,,,,,,2023-08-06_08h25.59.200,HF_wild_card,2022.2.4,Win32,60.28817749,594a481105e73f0001450009,64ce5acb97489d65b14ecc7a,64cf4af447447ed36c81da0f,,,,,,,decisionTrl,resources/DB.BMP,resources/DP.BMP,Door3,-0.3125,-0.076822917,1,0,0,1.2531,optionLeft,70,10885,5,36,0,36,0,1,,,,,,,,,,,,,,,,,,,,,,,,,,,,,,,,,,,,,,,
,,,,,,,,2023-08-06_08h25.59.200,HF_wild_card,2022.2.4,Win32,60.28817749,594a481105e73f0001450009,64ce5acb97489d65b14ecc7a,64cf4af447447ed36c81da0f,,,,,,,ctch,resources/DB.BMP,resources/DR.BMP,Door3,-0.3046875,0.022135417,1,0,0,0.9182,optionLeft,70,10955,5,37,0,37,0,1,,,,,,,,,,,,,,,,,,,,,,,,,,,,,,,,,,,,,,,
,,,,,,,,2023-08-06_08h25.59.200,HF_wild_card,2022.2.4,Win32,60.28817749,594a481105e73f0001450009,64ce5acb97489d65b14ecc7a,64cf4af447447ed36c81da0f,,,,,,,ctch,resources/DG.BMP,resources/DP.BMP,Door4,0.348958333,-0.03515625,1,0,0,1.1005,optionRight,80,11035,5,38,0,38,0,1,,,,,,,,,,,,,,,,,,,,,,,,,,,,,,,,,,,,,,,
,,,,,,,,2023-08-06_08h25.59.200,HF_wild_card,2022.2.4,Win32,60.28817749,594a481105e73f0001450009,64ce5acb97489d65b14ecc7a,64cf4af447447ed36c81da0f,,,,,,,decisionTrl,resources/DP.BMP,resources/DB.BMP,Door4,-0.37109375,-0.028645833,1,0,0,1.0761,optionLeft,80,11115,5,39,0,39,0,1,,,,,,,,,,,,,,,,,,,,,,,,,,,,,,,,,,,,,,,
,,,,,,,,2023-08-06_08h25.59.200,HF_wild_card,2022.2.4,Win32,60.28817749,594a481105e73f0001450009,64ce5acb97489d65b14ecc7a,64cf4af447447ed36c81da0f,,,,,,,sngl,resources/Empty.png,resources/DR.BMP,Door2,0.317708333,-0.032552083,1,0,0,0.8727,optionRight,20,11135,5,40,0,40,0,1,,,,,,,,,,,,,,,,,,,,,,,,,,,,,,,,,,,,,,,
,,,,,,,,2023-08-06_08h25.59.200,HF_wild_card,2022.2.4,Win32,60.28817749,594a481105e73f0001450009,64ce5acb97489d65b14ecc7a,64cf4af447447ed36c81da0f,,,,,,,sngl,resources/Empty.png,resources/DB.BMP,Door3,0.408854167,0.00390625,1,0,0,1.3072,optionRight,70,11205,5,41,0,41,0,1,,,,,,,,,,,,,,,,,,,,,,,,,,,,,,,,,,,,,,,
,,,,,,,,2023-08-06_08h25.59.200,HF_wild_card,2022.2.4,Win32,60.28817749,594a481105e73f0001450009,64ce5acb97489d65b14ecc7a,64cf4af447447ed36c81da0f,,,,,,,decisionTrl,resources/DR.BMP,resources/DG.BMP,Door1,0.403645833,-0.0703125,1,0,0,1.3335,optionRight,30,11235,5,42,0,42,0,1,,,,,,,,,,,,,,,,,,,,,,,,,,,,,,,,,,,,,,,
,,,,,,,,2023-08-06_08h25.59.200,HF_wild_card,2022.2.4,Win32,60.28817749,594a481105e73f0001450009,64ce5acb97489d65b14ecc7a,64cf4af447447ed36c81da0f,,,,,,,ctch,resources/DG.BMP,resources/DP.BMP,Door4,0.395833333,-0.048177083,1,0,0,1.2846,optionRight,80,11315,5,43,0,43,0,1,,,,,,,,,,,,,,,,,,,,,,,,,,,,,,,,,,,,,,,
,,,,,,,,2023-08-06_08h25.59.200,HF_wild_card,2022.2.4,Win32,60.28817749,594a481105e73f0001450009,64ce5acb97489d65b14ecc7a,64cf4af447447ed36c81da0f,,,,,,,,,,,,,,,,,,,,,,,,,,4,0,4,0,1,,,,,,,,,,,,,,,,,,,,,,,,,,,,,,,,,,
,,,,,,,,2023-08-06_08h25.59.200,HF_wild_card,2022.2.4,Win32,60.28817749,594a481105e73f0001450009,64ce5acb97489d65b14ecc7a,64cf4af447447ed36c81da0f,,,,,,,decisionTrl,resources/DG.BMP,resources/DR.BMP,Door1,-0.354166667,-0.115885417,1,0,0,1.0653,optionLeft,30,11345,6,0,0,0,0,1,,,,,,,,,,,,,,,,,,,,,,,,,,,,,,,,,,,,,,,
,,,,,,,,2023-08-06_08h25.59.200,HF_wild_card,2022.2.4,Win32,60.28817749,594a481105e73f0001450009,64ce5acb97489d65b14ecc7a,64cf4af447447ed36c81da0f,,,,,,,sngl,resources/DB.BMP,resources/Empty.png,Door3,-0.315104167,-0.0546875,1,0,0,0.89,optionLeft,70,11415,6,1,0,1,0,1,,,,,,,,,,,,,,,,,,,,,,,,,,,,,,,,,,,,,,,
,,,,,,,,2023-08-06_08h25.59.200,HF_wild_card,2022.2.4,Win32,60.28817749,594a481105e73f0001450009,64ce5acb97489d65b14ecc7a,64cf4af447447ed36c81da0f,,,,,,,decisionTrl,resources/DR.BMP,resources/DG.BMP,Door1,0.391927083,-0.032552083,1,0,0,1.1836,optionRight,30,11445,6,2,0,2,0,1,,,,,,,,,,,,,,,,,,,,,,,,,,,,,,,,,,,,,,,
,,,,,,,,2023-08-06_08h25.59.200,HF_wild_card,2022.2.4,Win32,60.28817749,594a481105e73f0001450009,64ce5acb97489d65b14ecc7a,64cf4af447447ed36c81da0f,,,,,,,decisionTrl,resources/DG.BMP,resources/DR.BMP,Door1,-0.407552083,-0.048177083,1,0,0,1.203,optionLeft,30,11475,6,3,0,3,0,1,,,,,,,,,,,,,,,,,,,,,,,,,,,,,,,,,,,,,,,
,,,,,,,,2023-08-06_08h25.59.200,HF_wild_card,2022.2.4,Win32,60.28817749,594a481105e73f0001450009,64ce5acb97489d65b14ecc7a,64cf4af447447ed36c81da0f,,,,,,,decisionTrl,resources/DB.BMP,resources/DY.BMP,Door3,-0.358072917,-0.053385417,1,0,0,1.0221,optionLeft,70,11545,6,4,0,4,0,1,,,,,,,,,,,,,,,,,,,,,,,,,,,,,,,,,,,,,,,
,,,,,,,,2023-08-06_08h25.59.200,HF_wild_card,2022.2.4,Win32,60.28817749,594a481105e73f0001450009,64ce5acb97489d65b14ecc7a,64cf4af447447ed36c81da0f,,,,,,,sngl,resources/Empty.png,resources/DY.BMP,WildCard_NonEx,0.302083333,-0.037760417,1,0,0,0.9354,optionRight,55,11600,6,5,0,5,0,1,,,,,,,,,,,,,,,,,,,,,,,,,,,,,,,,,,,,,,,
,,,,,,,,2023-08-06_08h25.59.200,HF_wild_card,2022.2.4,Win32,60.28817749,594a481105e73f0001450009,64ce5acb97489d65b14ecc7a,64cf4af447447ed36c81da0f,,,,,,,ctch,resources/DP.BMP,resources/DG.BMP,Door4,-0.393229167,-0.020833333,1,0,0,0.9739,optionLeft,60,11660,6,6,0,6,0,1,,,,,,,,,,,,,,,,,,,,,,,,,,,,,,,,,,,,,,,
,,,,,,,,2023-08-06_08h25.59.200,HF_wild_card,2022.2.4,Win32,60.28817749,594a481105e73f0001450009,64ce5acb97489d65b14ecc7a,64cf4af447447ed36c81da0f,,,,,,,decisionTrl,resources/DB.BMP,resources/DP.BMP,Door3,-0.341145833,-0.005208333,1,0,0,1.7879,optionLeft,70,11730,6,7,0,7,0,1,,,,,,,,,,,,,,,,,,,,,,,,,,,,,,,,,,,,,,,
,,,,,,,,2023-08-06_08h25.59.200,HF_wild_card,2022.2.4,Win32,60.28817749,594a481105e73f0001450009,64ce5acb97489d65b14ecc7a,64cf4af447447ed36c81da0f,,,,,,,decisionTrl,resources/DR.BMP,resources/DG.BMP,Door1,0.451822917,-0.022135417,1,0,0,1.7841,optionRight,30,11760,6,8,0,8,0,1,,,,,,,,,,,,,,,,,,,,,,,,,,,,,,,,,,,,,,,
,,,,,,,,2023-08-06_08h25.59.200,HF_wild_card,2022.2.4,Win32,60.28817749,594a481105e73f0001450009,64ce5acb97489d65b14ecc7a,64cf4af447447ed36c81da0f,,,,,,,decisionTrl,resources/DY.BMP,resources/DP.BMP,Door4,0.361979167,-0.055989583,1,0,0,1.753,optionRight,60,11820,6,9,0,9,0,1,,,,,,,,,,,,,,,,,,,,,,,,,,,,,,,,,,,,,,,
,,,,,,,,2023-08-06_08h25.59.200,HF_wild_card,2022.2.4,Win32,60.28817749,594a481105e73f0001450009,64ce5acb97489d65b14ecc7a,64cf4af447447ed36c81da0f,,,,,,,ctch,resources/DB.BMP,resources/DR.BMP,Door3,-0.260416667,-0.046875,1,0,0,1.3109,optionLeft,70,11890,6,10,0,10,0,1,,,,,,,,,,,,,,,,,,,,,,,,,,,,,,,,,,,,,,,
,,,,,,,,2023-08-06_08h25.59.200,HF_wild_card,2022.2.4,Win32,60.28817749,594a481105e73f0001450009,64ce5acb97489d65b14ecc7a,64cf4af447447ed36c81da0f,,,,,,,ctch,resources/DG.BMP,resources/DP.BMP,Door4,0.305989583,-0.02734375,1,0,0,0.9714,optionRight,60,11950,6,11,0,11,0,1,,,,,,,,,,,,,,,,,,,,,,,,,,,,,,,,,,,,,,,
,,,,,,,,2023-08-06_08h25.59.200,HF_wild_card,2022.2.4,Win32,60.28817749,594a481105e73f0001450009,64ce5acb97489d65b14ecc7a,64cf4af447447ed36c81da0f,,,,,,,decisionTrl,resources/DG.BMP,resources/DR.BMP,Door1,-0.286458333,-0.1015625,1,0,0,1.6513,optionLeft,30,11980,6,12,0,12,0,1,,,,,,,,,,,,,,,,,,,,,,,,,,,,,,,,,,,,,,,
,,,,,,,,2023-08-06_08h25.59.200,HF_wild_card,2022.2.4,Win32,60.28817749,594a481105e73f0001450009,64ce5acb97489d65b14ecc7a,64cf4af447447ed36c81da0f,,,,,,,decisionTrl,resources/DB.BMP,resources/DP.BMP,Door3,-0.317708333,-0.08203125,1,0,0,2.1842,optionLeft,70,12050,6,13,0,13,0,1,,,,,,,,,,,,,,,,,,,,,,,,,,,,,,,,,,,,,,,
,,,,,,,,2023-08-06_08h25.59.200,HF_wild_card,2022.2.4,Win32,60.28817749,594a481105e73f0001450009,64ce5acb97489d65b14ecc7a,64cf4af447447ed36c81da0f,,,,,,,decisionTrl,resources/DR.BMP,resources/DG.BMP,Door1,0.356770833,0.015625,1,0,0,1.736,optionRight,30,12080,6,14,0,14,0,1,,,,,,,,,,,,,,,,,,,,,,,,,,,,,,,,,,,,,,,
,,,,,,,,2023-08-06_08h25.59.200,HF_wild_card,2022.2.4,Win32,60.28817749,594a481105e73f0001450009,64ce5acb97489d65b14ecc7a,64cf4af447447ed36c81da0f,,,,,,,decisionTrl,resources/DY.BMP,resources/DB.BMP,Door3,0.303385417,-0.098958333,1,0,0,1.8989,optionRight,70,12150,6,15,0,15,0,1,,,,,,,,,,,,,,,,,,,,,,,,,,,,,,,,,,,,,,,
,,,,,,,,2023-08-06_08h25.59.200,HF_wild_card,2022.2.4,Win32,60.28817749,594a481105e73f0001450009,64ce5acb97489d65b14ecc7a,64cf4af447447ed36c81da0f,,,,,,,sngl,resources/Empty.png,resources/DY.BMP,WildCard_NonEx,0.330729167,-0.03515625,1,0,0,0.9762,optionRight,45,12195,6,16,0,16,0,1,,,,,,,,,,,,,,,,,,,,,,,,,,,,,,,,,,,,,,,
,,,,,,,,2023-08-06_08h25.59.200,HF_wild_card,2022.2.4,Win32,60.28817749,594a481105e73f0001450009,64ce5acb97489d65b14ecc7a,64cf4af447447ed36c81da0f,,,,,,,decisionTrl,resources/DP.BMP,resources/DB.BMP,Door4,-0.334635417,-0.033854167,1,0,0,1.0303,optionLeft,80,12275,6,17,0,17,0,1,,,,,,,,,,,,,,,,,,,,,,,,,,,,,,,,,,,,,,,
,,,,,,,,2023-08-06_08h25.59.200,HF_wild_card,2022.2.4,Win32,60.28817749,594a481105e73f0001450009,64ce5acb97489d65b14ecc7a,64cf4af447447ed36c81da0f,,,,,,,sngl,resources/DG.BMP,resources/Empty.png,Door1,-0.358072917,-0.024739583,1,0,0,0.9071,optionLeft,30,12305,6,18,0,18,0,1,,,,,,,,,,,,,,,,,,,,,,,,,,,,,,,,,,,,,,,
,,,,,,,,2023-08-06_08h25.59.200,HF_wild_card,2022.2.4,Win32,60.28817749,594a481105e73f0001450009,64ce5acb97489d65b14ecc7a,64cf4af447447ed36c81da0f,,,,,,,decisionTrl,resources/DY.BMP,resources/DG.BMP,Door1,0.399739583,-0.010416667,1,0,0,2.6269,optionRight,30,12335,6,19,0,19,0,1,,,,,,,,,,,,,,,,,,,,,,,,,,,,,,,,,,,,,,,
,,,,,,,,2023-08-06_08h25.59.200,HF_wild_card,2022.2.4,Win32,60.28817749,594a481105e73f0001450009,64ce5acb97489d65b14ecc7a,64cf4af447447ed36c81da0f,,,,,,,ctch,resources/DG.BMP,resources/DP.BMP,Door4,0.264322917,-0.06640625,1,0,0,1.3857,optionRight,60,12395,6,20,0,20,0,1,,,,,,,,,,,,,,,,,,,,,,,,,,,,,,,,,,,,,,,
,,,,,,,,2023-08-06_08h25.59.200,HF_wild_card,2022.2.4,Win32,60.28817749,594a481105e73f0001450009,64ce5acb97489d65b14ecc7a,64cf4af447447ed36c81da0f,,,,,,,decisionTrl,resources/DG.BMP,resources/DY.BMP,Door1,-0.290364583,-0.03515625,1,0,0,1.1149,optionLeft,30,12425,6,21,0,21,0,1,,,,,,,,,,,,,,,,,,,,,,,,,,,,,,,,,,,,,,,
,,,,,,,,2023-08-06_08h25.59.200,HF_wild_card,2022.2.4,Win32,60.28817749,594a481105e73f0001450009,64ce5acb97489d65b14ecc7a,64cf4af447447ed36c81da0f,,,,,,,sngl,resources/Empty.png,resources/DP.BMP,Door4,0.3203125,-0.063802083,1,0,0,0.7911,optionRight,80,12505,6,22,0,22,0,1,,,,,,,,,,,,,,,,,,,,,,,,,,,,,,,,,,,,,,,
,,,,,,,,2023-08-06_08h25.59.200,HF_wild_card,2022.2.4,Win32,60.28817749,594a481105e73f0001450009,64ce5acb97489d65b14ecc7a,64cf4af447447ed36c81da0f,,,,,,,decisionTrl,resources/DB.BMP,resources/DP.BMP,Door4,0.322916667,-0.02734375,1,0,0,0.8853,optionRight,80,12585,6,23,0,23,0,1,,,,,,,,,,,,,,,,,,,,,,,,,,,,,,,,,,,,,,,
,,,,,,,,2023-08-06_08h25.59.200,HF_wild_card,2022.2.4,Win32,60.28817749,594a481105e73f0001450009,64ce5acb97489d65b14ecc7a,64cf4af447447ed36c81da0f,,,,,,,sngl,resources/DR.BMP,resources/Empty.png,Door2,-0.30078125,-0.01171875,1,0,0,0.8668,optionLeft,20,12605,6,24,0,24,0,1,,,,,,,,,,,,,,,,,,,,,,,,,,,,,,,,,,,,,,,
,,,,,,,,2023-08-06_08h25.59.200,HF_wild_card,2022.2.4,Win32,60.28817749,594a481105e73f0001450009,64ce5acb97489d65b14ecc7a,64cf4af447447ed36c81da0f,,,,,,,decisionTrl,resources/DP.BMP,resources/DB.BMP,Door3,0.311197917,-0.05078125,1,0,0,1.6236,optionRight,70,12675,6,25,0,25,0,1,,,,,,,,,,,,,,,,,,,,,,,,,,,,,,,,,,,,,,,
,,,,,,,,2023-08-06_08h25.59.200,HF_wild_card,2022.2.4,Win32,60.28817749,594a481105e73f0001450009,64ce5acb97489d65b14ecc7a,64cf4af447447ed36c81da0f,,,,,,,decisionTrl,resources/DR.BMP,resources/DG.BMP,Door2,-0.360677083,-0.03515625,1,0,0,1.7319,optionLeft,20,12695,6,26,0,26,0,1,,,,,,,,,,,,,,,,,,,,,,,,,,,,,,,,,,,,,,,
,,,,,,,,2023-08-06_08h25.59.200,HF_wild_card,2022.2.4,Win32,60.28817749,594a481105e73f0001450009,64ce5acb97489d65b14ecc7a,64cf4af447447ed36c81da0f,,,,,,,decisionTrl,resources/DG.BMP,resources/DR.BMP,Door1,-0.317708333,-0.022135417,1,0,0,1.037,optionLeft,30,12725,6,27,0,27,0,1,,,,,,,,,,,,,,,,,,,,,,,,,,,,,,,,,,,,,,,
,,,,,,,,2023-08-06_08h25.59.200,HF_wild_card,2022.2.4,Win32,60.28817749,594a481105e73f0001450009,64ce5acb97489d65b14ecc7a,64cf4af447447ed36c81da0f,,,,,,,sngl,resources/Empty.png,resources/DR.BMP,Door2,0.311197917,-0.061197917,1,0,0,0.9409,optionRight,40,12765,6,28,0,28,0,1,,,,,,,,,,,,,,,,,,,,,,,,,,,,,,,,,,,,,,,
,,,,,,,,2023-08-06_08h25.59.200,HF_wild_card,2022.2.4,Win32,60.28817749,594a481105e73f0001450009,64ce5acb97489d65b14ecc7a,64cf4af447447ed36c81da0f,,,,,,,decisionTrl,resources/DP.BMP,resources/DB.BMP,Door4,-0.309895833,0.002604167,1,0,0,1.021,optionLeft,60,12825,6,29,0,29,0,1,,,,,,,,,,,,,,,,,,,,,,,,,,,,,,,,,,,,,,,
,,,,,,,,2023-08-06_08h25.59.200,HF_wild_card,2022.2.4,Win32,60.28817749,594a481105e73f0001450009,64ce5acb97489d65b14ecc7a,64cf4af447447ed36c81da0f,,,,,,,sngl,resources/DP.BMP,resources/Empty.png,Door4,-0.255208333,-0.03125,1,0,0,0.9377,optionLeft,60,12885,6,30,0,30,0,1,,,,,,,,,,,,,,,,,,,,,,,,,,,,,,,,,,,,,,,
,,,,,,,,2023-08-06_08h25.59.200,HF_wild_card,2022.2.4,Win32,60.28817749,594a481105e73f0001450009,64ce5acb97489d65b14ecc7a,64cf4af447447ed36c81da0f,,,,,,,decisionTrl,resources/DY.BMP,resources/DR.BMP,Door2,0.34765625,-0.071614583,1,0,0,1.5333,optionRight,40,12925,6,31,0,31,0,1,,,,,,,,,,,,,,,,,,,,,,,,,,,,,,,,,,,,,,,
,,,,,,,,2023-08-06_08h25.59.200,HF_wild_card,2022.2.4,Win32,60.28817749,594a481105e73f0001450009,64ce5acb97489d65b14ecc7a,64cf4af447447ed36c81da0f,,,,,,,sngl,resources/DY.BMP,resources/Empty.png,WildCard_NonEx,-0.278645833,-0.013020833,1,0,0,0.8934,optionLeft,55,12980,6,32,0,32,0,1,,,,,,,,,,,,,,,,,,,,,,,,,,,,,,,,,,,,,,,
,,,,,,,,2023-08-06_08h25.59.200,HF_wild_card,2022.2.4,Win32,60.28817749,594a481105e73f0001450009,64ce5acb97489d65b14ecc7a,64cf4af447447ed36c81da0f,,,,,,,ctch,resources/DR.BMP,resources/DB.BMP,Door3,0.381510417,-0.083333333,1,0,0,1.1766,optionRight,70,13050,6,33,0,33,0,1,,,,,,,,,,,,,,,,,,,,,,,,,,,,,,,,,,,,,,,
,,,,,,,,2023-08-06_08h25.59.200,HF_wild_card,2022.2.4,Win32,60.28817749,594a481105e73f0001450009,64ce5acb97489d65b14ecc7a,64cf4af447447ed36c81da0f,,,,,,,decisionTrl,resources/DR.BMP,resources/DY.BMP,Door2,-0.252604167,-0.04296875,1,0,0,1.6812,optionLeft,40,13090,6,34,0,34,0,1,,,,,,,,,,,,,,,,,,,,,,,,,,,,,,,,,,,,,,,
,,,,,,,,2023-08-06_08h25.59.200,HF_wild_card,2022.2.4,Win32,60.28817749,594a481105e73f0001450009,64ce5acb97489d65b14ecc7a,64cf4af447447ed36c81da0f,,,,,,,decisionTrl,resources/DB.BMP,resources/DP.BMP,Door4,0.3203125,-0.063802083,1,0,0,1.1201,optionRight,80,13170,6,35,0,35,0,1,,,,,,,,,,,,,,,,,,,,,,,,,,,,,,,,,,,,,,,
,,,,,,,,2023-08-06_08h25.59.200,HF_wild_card,2022.2.4,Win32,60.28817749,594a481105e73f0001450009,64ce5acb97489d65b14ecc7a,64cf4af447447ed36c81da0f,,,,,,,ctch,resources/DR.BMP,resources/DB.BMP,Door3,0.296875,-0.0625,1,0,0,1.3372,optionRight,70,13240,6,36,0,36,0,1,,,,,,,,,,,,,,,,,,,,,,,,,,,,,,,,,,,,,,,
,,,,,,,,2023-08-06_08h25.59.200,HF_wild_card,2022.2.4,Win32,60.28817749,594a481105e73f0001450009,64ce5acb97489d65b14ecc7a,64cf4af447447ed36c81da0f,,,,,,,ctch,resources/DB.BMP,resources/DR.BMP,Door3,-0.260416667,-0.018229167,1,0,0,1.0983,optionLeft,70,13310,6,37,0,37,0,1,,,,,,,,,,,,,,,,,,,,,,,,,,,,,,,,,,,,,,,
,,,,,,,,2023-08-06_08h25.59.200,HF_wild_card,2022.2.4,Win32,60.28817749,594a481105e73f0001450009,64ce5acb97489d65b14ecc7a,64cf4af447447ed36c81da0f,,,,,,,sngl,resources/Empty.png,resources/DB.BMP,Door3,0.325520833,-0.033854167,1,0,0,0.9246,optionRight,70,13380,6,38,0,38,0,1,,,,,,,,,,,,,,,,,,,,,,,,,,,,,,,,,,,,,,,
,,,,,,,,2023-08-06_08h25.59.200,HF_wild_card,2022.2.4,Win32,60.28817749,594a481105e73f0001450009,64ce5acb97489d65b14ecc7a,64cf4af447447ed36c81da0f,,,,,,,decisionTrl,resources/DP.BMP,resources/DB.BMP,Door4,-0.25,-0.028645833,1,0,0,1.4086,optionLeft,80,13460,6,39,0,39,0,1,,,,,,,,,,,,,,,,,,,,,,,,,,,,,,,,,,,,,,,
,,,,,,,,2023-08-06_08h25.59.200,HF_wild_card,2022.2.4,Win32,60.28817749,594a481105e73f0001450009,64ce5acb97489d65b14ecc7a,64cf4af447447ed36c81da0f,,,,,,,decisionTrl,resources/DP.BMP,resources/DY.BMP,Door4,-0.270833333,-0.024739583,1,0,0,0.9892,optionLeft,80,13540,6,40,0,40,0,1,,,,,,,,,,,,,,,,,,,,,,,,,,,,,,,,,,,,,,,
,,,,,,,,2023-08-06_08h25.59.200,HF_wild_card,2022.2.4,Win32,60.28817749,594a481105e73f0001450009,64ce5acb97489d65b14ecc7a,64cf4af447447ed36c81da0f,,,,,,,sngl,resources/Empty.png,resources/DG.BMP,Door1,0.34375,-0.020833333,1,0,0,0.9678,optionRight,30,13570,6,41,0,41,0,1,,,,,,,,,,,,,,,,,,,,,,,,,,,,,,,,,,,,,,,
,,,,,,,,2023-08-06_08h25.59.200,HF_wild_card,2022.2.4,Win32,60.28817749,594a481105e73f0001450009,64ce5acb97489d65b14ecc7a,64cf4af447447ed36c81da0f,,,,,,,ctch,resources/DP.BMP,resources/DG.BMP,Door4,-0.236979167,-0.057291667,1,0,0,1.2588,optionLeft,80,13650,6,42,0,42,0,1,,,,,,,,,,,,,,,,,,,,,,,,,,,,,,,,,,,,,,,
,,,,,,,,2023-08-06_08h25.59.200,HF_wild_card,2022.2.4,Win32,60.28817749,594a481105e73f0001450009,64ce5acb97489d65b14ecc7a,64cf4af447447ed36c81da0f,,,,,,,sngl,resources/DY.BMP,resources/Empty.png,WildCard_NonEx,-0.282552083,-0.014322917,1,0,0,0.971,optionLeft,45,13695,6,43,0,43,0,1,,,,,,,,,,,,,,,,,,,,,,,,,,,,,,,,,,,,,,,
,,,,,,,,2023-08-06_08h25.59.200,HF_wild_card,2022.2.4,Win32,60.28817749,594a481105e73f0001450009,64ce5acb97489d65b14ecc7a,64cf4af447447ed36c81da0f,,,,,,,,,,,,,,,,,,,,,,,,,,5,0,5,0,1,,,,,,,,,,,,,,,,,,,,,,,,,,,,,,,,,,
,,,,,,,,2023-08-06_08h25.59.200,HF_wild_card,2022.2.4,Win32,60.28817749,594a481105e73f0001450009,64ce5acb97489d65b14ecc7a,64cf4af447447ed36c81da0f,,,,,,,ctch,resources/DG.BMP,resources/DP.BMP,Door4,0.3671875,-0.075520833,1,0,0,1.2166,optionRight,80,13775,7,0,0,0,0,1,,,,,,,,,,,,,,,,,,,,,,,,,,,,,,,,,,,,,,,
,,,,,,,,2023-08-06_08h25.59.200,HF_wild_card,2022.2.4,Win32,60.28817749,594a481105e73f0001450009,64ce5acb97489d65b14ecc7a,64cf4af447447ed36c81da0f,,,,,,,ctch,resources/DR.BMP,resources/DB.BMP,Door3,0.389322917,-0.08203125,1,0,0,1.141,optionRight,70,13845,7,1,0,1,0,1,,,,,,,,,,,,,,,,,,,,,,,,,,,,,,,,,,,,,,,
,,,,,,,,2023-08-06_08h25.59.200,HF_wild_card,2022.2.4,Win32,60.28817749,594a481105e73f0001450009,64ce5acb97489d65b14ecc7a,64cf4af447447ed36c81da0f,,,,,,,decisionTrl,resources/DR.BMP,resources/DG.BMP,Door1,0.412760417,-0.106770833,1,0,0,1.603,optionRight,30,13875,7,2,0,2,0,1,,,,,,,,,,,,,,,,,,,,,,,,,,,,,,,,,,,,,,,
,,,,,,,,2023-08-06_08h25.59.200,HF_wild_card,2022.2.4,Win32,60.28817749,594a481105e73f0001450009,64ce5acb97489d65b14ecc7a,64cf4af447447ed36c81da0f,,,,,,,ctch,resources/DB.BMP,resources/DR.BMP,Door3,-0.325520833,-0.024739583,1,0,0,0.9888,optionLeft,70,13945,7,3,0,3,0,1,,,,,,,,,,,,,,,,,,,,,,,,,,,,,,,,,,,,,,,
,,,,,,,,2023-08-06_08h25.59.200,HF_wild_card,2022.2.4,Win32,60.28817749,594a481105e73f0001450009,64ce5acb97489d65b14ecc7a,64cf4af447447ed36c81da0f,,,,,,,decisionTrl,resources/DB.BMP,resources/DP.BMP,Door4,0.475260417,-0.0234375,1,0,0,1.0214,optionRight,80,14025,7,4,0,4,0,1,,,,,,,,,,,,,,,,,,,,,,,,,,,,,,,,,,,,,,,
,,,,,,,,2023-08-06_08h25.59.200,HF_wild_card,2022.2.4,Win32,60.28817749,594a481105e73f0001450009,64ce5acb97489d65b14ecc7a,64cf4af447447ed36c81da0f,,,,,,,ctch,resources/DB.BMP,resources/DR.BMP,Door3,-0.315104167,-0.024739583,1,0,0,1.1449,optionLeft,70,14095,7,5,0,5,0,1,,,,,,,,,,,,,,,,,,,,,,,,,,,,,,,,,,,,,,,
,,,,,,,,2023-08-06_08h25.59.200,HF_wild_card,2022.2.4,Win32,60.28817749,594a481105e73f0001450009,64ce5acb97489d65b14ecc7a,64cf4af447447ed36c81da0f,,,,,,,decisionTrl,resources/DP.BMP,resources/DB.BMP,Door4,-0.3359375,-0.049479167,1,0,0,0.9913,optionLeft,80,14175,7,6,0,6,0,1,,,,,,,,,,,,,,,,,,,,,,,,,,,,,,,,,,,,,,,
,,,,,,,,2023-08-06_08h25.59.200,HF_wild_card,2022.2.4,Win32,60.28817749,594a481105e73f0001450009,64ce5acb97489d65b14ecc7a,64cf4af447447ed36c81da0f,,,,,,,decisionTrl,resources/DP.BMP,resources/DB.BMP,Door4,-0.326822917,-0.024739583,1,0,0,0.8799,optionLeft,80,14255,7,7,0,7,0,1,,,,,,,,,,,,,,,,,,,,,,,,,,,,,,,,,,,,,,,
,,,,,,,,2023-08-06_08h25.59.200,HF_wild_card,2022.2.4,Win32,60.28817749,594a481105e73f0001450009,64ce5acb97489d65b14ecc7a,64cf4af447447ed36c81da0f,,,,,,,decisionTrl,resources/DG.BMP,resources/DR.BMP,Door1,-0.326822917,-0.026041667,1,0,0,1.8726,optionLeft,30,14285,7,8,0,8,0,1,,,,,,,,,,,,,,,,,,,,,,,,,,,,,,,,,,,,,,,
,,,,,,,,2023-08-06_08h25.59.200,HF_wild_card,2022.2.4,Win32,60.28817749,594a481105e73f0001450009,64ce5acb97489d65b14ecc7a,64cf4af447447ed36c81da0f,,,,,,,decisionTrl,resources/DG.BMP,resources/DR.BMP,Door1,-0.326822917,0.002604167,1,0,0,0.8428,optionLeft,30,14315,7,9,0,9,0,1,,,,,,,,,,,,,,,,,,,,,,,,,,,,,,,,,,,,,,,
,,,,,,,,2023-08-06_08h25.59.200,HF_wild_card,2022.2.4,Win32,60.28817749,594a481105e73f0001450009,64ce5acb97489d65b14ecc7a,64cf4af447447ed36c81da0f,,,,,,,decisionTrl,resources/DG.BMP,resources/DR.BMP,Door1,-0.334635417,-0.036458333,1,0,0,0.8313,optionLeft,30,14345,7,10,0,10,0,1,,,,,,,,,,,,,,,,,,,,,,,,,,,,,,,,,,,,,,,
,,,,,,,,2023-08-06_08h25.59.200,HF_wild_card,2022.2.4,Win32,60.28817749,594a481105e73f0001450009,64ce5acb97489d65b14ecc7a,64cf4af447447ed36c81da0f,,,,,,,decisionTrl,resources/DB.BMP,resources/DP.BMP,Door4,0.381510417,-0.119791667,1,0,0,1.286,optionRight,60,14405,7,11,0,11,0,1,,,,,,,,,,,,,,,,,,,,,,,,,,,,,,,,,,,,,,,
,,,,,,,,2023-08-06_08h25.59.200,HF_wild_card,2022.2.4,Win32,60.28817749,594a481105e73f0001450009,64ce5acb97489d65b14ecc7a,64cf4af447447ed36c81da0f,,,,,,,decisionTrl,resources/DB.BMP,resources/DP.BMP,Door4,0.384114583,-0.044270833,1,0,0,0.9788,optionRight,60,14465,7,12,0,12,0,1,,,,,,,,,,,,,,,,,,,,,,,,,,,,,,,,,,,,,,,
,,,,,,,,2023-08-06_08h25.59.200,HF_wild_card,2022.2.4,Win32,60.28817749,594a481105e73f0001450009,64ce5acb97489d65b14ecc7a,64cf4af447447ed36c81da0f,,,,,,,decisionTrl,resources/DR.BMP,resources/DG.BMP,Door1,0.2734375,-0.059895833,1,0,0,1.3971,optionRight,30,14495,7,13,0,13,0,1,,,,,,,,,,,,,,,,,,,,,,,,,,,,,,,,,,,,,,,
,,,,,,,,2023-08-06_08h25.59.200,HF_wild_card,2022.2.4,Win32,60.28817749,594a481105e73f0001450009,64ce5acb97489d65b14ecc7a,64cf4af447447ed36c81da0f,,,,,,,ctch,resources/DR.BMP,resources/DB.BMP,Door3,0.326822917,-0.040364583,1,0,0,1.1439,optionRight,70,14565,7,14,0,14,0,1,,,,,,,,,,,,,,,,,,,,,,,,,,,,,,,,,,,,,,,
,,,,,,,,2023-08-06_08h25.59.200,HF_wild_card,2022.2.4,Win32,60.28817749,594a481105e73f0001450009,64ce5acb97489d65b14ecc7a,64cf4af447447ed36c81da0f,,,,,,,ctch,resources/DG.BMP,resources/DP.BMP,Door4,0.313802083,-0.06640625,1,0,0,1.0904,optionRight,80,14645,7,15,0,15,0,1,,,,,,,,,,,,,,,,,,,,,,,,,,,,,,,,,,,,,,,
,,,,,,,,2023-08-06_08h25.59.200,HF_wild_card,2022.2.4,Win32,60.28817749,594a481105e73f0001450009,64ce5acb97489d65b14ecc7a,64cf4af447447ed36c81da0f,,,,,,,ctch,resources/DP.BMP,resources/DG.BMP,Door4,-0.29296875,-0.010416667,1,0,0,0.874,optionLeft,60,14705,7,16,0,16,0,1,,,,,,,,,,,,,,,,,,,,,,,,,,,,,,,,,,,,,,,
,,,,,,,,2023-08-06_08h25.59.200,HF_wild_card,2022.2.4,Win32,60.28817749,594a481105e73f0001450009,64ce5acb97489d65b14ecc7a,64cf4af447447ed36c81da0f,,,,,,,ctch,resources/DB.BMP,resources/DR.BMP,Door3,-0.408854167,-0.11328125,1,0,0,1.2226,optionLeft,70,14775,7,17,0,17,0,1,,,,,,,,,,,,,,,,,,,,,,,,,,,,,,,,,,,,,,,
,,,,,,,,2023-08-06_08h25.59.200,HF_wild_card,2022.2.4,Win32,60.28817749,594a481105e73f0001450009,64ce5acb97489d65b14ecc7a,64cf4af447447ed36c81da0f,,,,,,,decisionTrl,resources/DP.BMP,resources/DB.BMP,Door4,-0.3359375,-0.018229167,1,0,0,1.7345,optionLeft,80,14855,7,18,0,18,0,1,,,,,,,,,,,,,,,,,,,,,,,,,,,,,,,,,,,,,,,
,,,,,,,,2023-08-06_08h25.59.200,HF_wild_card,2022.2.4,Win32,60.28817749,594a481105e73f0001450009,64ce5acb97489d65b14ecc7a,64cf4af447447ed36c81da0f,,,,,,,decisionTrl,resources/DR.BMP,resources/DG.BMP,Door1,0.377604167,-0.036458333,1,0,0,1.6926,optionRight,30,14885,7,19,0,19,0,1,,,,,,,,,,,,,,,,,,,,,,,,,,,,,,,,,,,,,,,
,,,,,,,,2023-08-06_08h25.59.200,HF_wild_card,2022.2.4,Win32,60.28817749,594a481105e73f0001450009,64ce5acb97489d65b14ecc7a,64cf4af447447ed36c81da0f,,,,,,,decisionTrl,resources/DG.BMP,resources/DR.BMP,Door1,-0.34765625,-0.002604167,1,0,0,1.0444,optionLeft,30,14915,7,20,0,20,0,1,,,,,,,,,,,,,,,,,,,,,,,,,,,,,,,,,,,,,,,
,,,,,,,,2023-08-06_08h25.59.200,HF_wild_card,2022.2.4,Win32,60.28817749,594a481105e73f0001450009,64ce5acb97489d65b14ecc7a,64cf4af447447ed36c81da0f,,,,,,,ctch,resources/DG.BMP,resources/DP.BMP,Door1,-0.2890625,-0.03125,1,0,0,1.0347,optionLeft,30,14945,7,21,0,21,0,1,,,,,,,,,,,,,,,,,,,,,,,,,,,,,,,,,,,,,,,
,,,,,,,,2023-08-06_08h25.59.200,HF_wild_card,2022.2.4,Win32,60.28817749,594a481105e73f0001450009,64ce5acb97489d65b14ecc7a,64cf4af447447ed36c81da0f,,,,,,,decisionTrl,resources/DB.BMP,resources/DP.BMP,Door4,0.390625,-0.08203125,1,0,0,0.9408,optionRight,60,15005,7,22,0,22,0,1,,,,,,,,,,,,,,,,,,,,,,,,,,,,,,,,,,,,,,,
,,,,,,,,2023-08-06_08h25.59.200,HF_wild_card,2022.2.4,Win32,60.28817749,594a481105e73f0001450009,64ce5acb97489d65b14ecc7a,64cf4af447447ed36c81da0f,,,,,,,decisionTrl,resources/DG.BMP,resources/DR.BMP,Door1,-0.338541667,-0.0546875,1,0,0,1.853,optionLeft,30,15035,7,23,0,23,0,1,,,,,,,,,,,,,,,,,,,,,,,,,,,,,,,,,,,,,,,
,,,,,,,,2023-08-06_08h25.59.200,HF_wild_card,2022.2.4,Win32,60.28817749,594a481105e73f0001450009,64ce5acb97489d65b14ecc7a,64cf4af447447ed36c81da0f,,,,,,,decisionTrl,resources/DR.BMP,resources/DG.BMP,Door1,0.46875,-0.03125,1,0,0,1.155,optionRight,30,15065,7,24,0,24,0,1,,,,,,,,,,,,,,,,,,,,,,,,,,,,,,,,,,,,,,,
,,,,,,,,2023-08-06_08h25.59.200,HF_wild_card,2022.2.4,Win32,60.28817749,594a481105e73f0001450009,64ce5acb97489d65b14ecc7a,64cf4af447447ed36c81da0f,,,,,,,ctch,resources/DR.BMP,resources/DB.BMP,Door3,0.399739583,-0.026041667,1,0,0,1.1393,optionRight,70,15135,7,25,0,25,0,1,,,,,,,,,,,,,,,,,,,,,,,,,,,,,,,,,,,,,,,
,,,,,,,,2023-08-06_08h25.59.200,HF_wild_card,2022.2.4,Win32,60.28817749,594a481105e73f0001450009,64ce5acb97489d65b14ecc7a,64cf4af447447ed36c81da0f,,,,,,,decisionTrl,resources/DP.BMP,resources/DB.BMP,Door4,-0.3046875,-0.033854167,1,0,0,1.1581,optionLeft,80,15215,7,26,0,26,0,1,,,,,,,,,,,,,,,,,,,,,,,,,,,,,,,,,,,,,,,
,,,,,,,,2023-08-06_08h25.59.200,HF_wild_card,2022.2.4,Win32,60.28817749,594a481105e73f0001450009,64ce5acb97489d65b14ecc7a,64cf4af447447ed36c81da0f,,,,,,,ctch,resources/DP.BMP,resources/DG.BMP,Door4,-0.295572917,-0.0078125,1,0,0,1.0632,optionLeft,80,15295,7,27,0,27,0,1,,,,,,,,,,,,,,,,,,,,,,,,,,,,,,,,,,,,,,,
,,,,,,,,2023-08-06_08h25.59.200,HF_wild_card,2022.2.4,Win32,60.28817749,594a481105e73f0001450009,64ce5acb97489d65b14ecc7a,64cf4af447447ed36c81da0f,,,,,,,ctch,resources/DP.BMP,resources/DG.BMP,Door4,-0.37890625,-0.010416667,1,0,0,0.9421,optionLeft,80,15375,7,28,0,28,0,1,,,,,,,,,,,,,,,,,,,,,,,,,,,,,,,,,,,,,,,
,,,,,,,,2023-08-06_08h25.59.200,HF_wild_card,2022.2.4,Win32,60.28817749,594a481105e73f0001450009,64ce5acb97489d65b14ecc7a,64cf4af447447ed36c81da0f,,,,,,,decisionTrl,resources/DP.BMP,resources/DB.BMP,Door3,0.309895833,-0.036458333,1,0,0,1.4253,optionRight,70,15445,7,29,0,29,0,1,,,,,,,,,,,,,,,,,,,,,,,,,,,,,,,,,,,,,,,
,,,,,,,,2023-08-06_08h25.59.200,HF_wild_card,2022.2.4,Win32,60.28817749,594a481105e73f0001450009,64ce5acb97489d65b14ecc7a,64cf4af447447ed36c81da0f,,,,,,,decisionTrl,resources/DP.BMP,resources/DB.BMP,Door4,-0.28125,-0.005208333,1,0,0,1.0091,optionLeft,80,15525,7,30,0,30,0,1,,,,,,,,,,,,,,,,,,,,,,,,,,,,,,,,,,,,,,,
,,,,,,,,2023-08-06_08h25.59.200,HF_wild_card,2022.2.4,Win32,60.28817749,594a481105e73f0001450009,64ce5acb97489d65b14ecc7a,64cf4af447447ed36c81da0f,,,,,,,decisionTrl,resources/DB.BMP,resources/DP.BMP,Door3,-0.263020833,0.022135417,1,0,0,2.5031,optionLeft,70,15595,7,31,0,31,0,1,,,,,,,,,,,,,,,,,,,,,,,,,,,,,,,,,,,,,,,
,,,,,,,,2023-08-06_08h25.59.200,HF_wild_card,2022.2.4,Win32,60.28817749,594a481105e73f0001450009,64ce5acb97489d65b14ecc7a,64cf4af447447ed36c81da0f,,,,,,,decisionTrl,resources/DB.BMP,resources/DP.BMP,Door3,-0.264322917,-0.03125,1,0,0,1.6016,optionLeft,70,15665,7,32,0,32,0,1,,,,,,,,,,,,,,,,,,,,,,,,,,,,,,,,,,,,,,,
,,,,,,,,2023-08-06_08h25.59.200,HF_wild_card,2022.2.4,Win32,60.28817749,594a481105e73f0001450009,64ce5acb97489d65b14ecc7a,64cf4af447447ed36c81da0f,,,,,,,decisionTrl,resources/DR.BMP,resources/DG.BMP,Door1,0.30859375,-0.0390625,1,0,0,1.8589,optionRight,30,15695,7,33,0,33,0,1,,,,,,,,,,,,,,,,,,,,,,,,,,,,,,,,,,,,,,,
,,,,,,,,2023-08-06_08h25.59.200,HF_wild_card,2022.2.4,Win32,60.28817749,594a481105e73f0001450009,64ce5acb97489d65b14ecc7a,64cf4af447447ed36c81da0f,,,,,,,decisionTrl,resources/DG.BMP,resources/DR.BMP,Door2,0.404947917,-0.044270833,1,0,0,1.1088,optionRight,20,15715,7,34,0,34,0,1,,,,,,,,,,,,,,,,,,,,,,,,,,,,,,,,,,,,,,,
,,,,,,,,2023-08-06_08h25.59.200,HF_wild_card,2022.2.4,Win32,60.28817749,594a481105e73f0001450009,64ce5acb97489d65b14ecc7a,64cf4af447447ed36c81da0f,,,,,,,decisionTrl,resources/DR.BMP,resources/DG.BMP,Door1,0.352864583,-0.046875,1,0,0,1.3422,optionRight,30,15745,7,35,0,35,0,1,,,,,,,,,,,,,,,,,,,,,,,,,,,,,,,,,,,,,,,
,,,,,,,,2023-08-06_08h25.59.200,HF_wild_card,2022.2.4,Win32,60.28817749,594a481105e73f0001450009,64ce5acb97489d65b14ecc7a,64cf4af447447ed36c81da0f,,,,,,,,,,,,,,,,,,,,,,,,,,6,0,6,0,1,,,,,,,,,,,,,,,,,,,,,,,,,,,,,,,,,,
,,,,,,,,2023-08-06_08h25.59.200,HF_wild_card,2022.2.4,Win32,60.28817749,594a481105e73f0001450009,64ce5acb97489d65b14ecc7a,64cf4af447447ed36c81da0f,,,,,,,,,,,,,,,,,,,,,,,,,,,,,,,3,,,,,,,,,,,,,,,,,,,,,,,,,,,,,,,,,
,,,,,,,,2023-08-06_08h25.59.200,HF_wild_card,2022.2.4,Win32,60.28817749,594a481105e73f0001450009,64ce5acb97489d65b14ecc7a,64cf4af447447ed36c81da0f,,,,,,,,,,,,,,,,,,,,,,,,,,,,,,,,,,,,,,,,,,,,,,,,,,,,,,,,,,,,,,,,
,,,,,,,,2023-08-06_08h25.59.200,HF_wild_card,2022.2.4,Win32,60.28817749,594a481105e73f0001450009,64ce5acb97489d65b14ecc7a,64cf4af447447ed36c81da0f,,,,,,,,,,,,,,,,,,,,,,,,,,,,,,,,70,Door3,resources/DB.BMP,0,0,0,0,1,,,,,,,,,,,,,,,,,,,,,,,,,
,,,,,,,,2023-08-06_08h25.59.200,HF_wild_card,2022.2.4,Win32,60.28817749,594a481105e73f0001450009,64ce5acb97489d65b14ecc7a,64cf4af447447ed36c81da0f,,,,,,,,,,,,,,,,,,,,,,,,,,,,,,,,40,Door2,resources/DR.BMP,1,0,1,0,1,,,,,,,,,,,,,,,,,,,,,,,,,
,,,,,,,,2023-08-06_08h25.59.200,HF_wild_card,2022.2.4,Win32,60.28817749,594a481105e73f0001450009,64ce5acb97489d65b14ecc7a,64cf4af447447ed36c81da0f,,,,,,,,,,,,,,,,,,,,,,,,,,,,,,,,50,Door1,resources/DG.BMP,2,0,2,0,1,,,,,,,,,,,,,,,,,,,,,,,,,
,,,,,,,,2023-08-06_08h25.59.200,HF_wild_card,2022.2.4,Win32,60.28817749,594a481105e73f0001450009,64ce5acb97489d65b14ecc7a,64cf4af447447ed36c81da0f,,,,,,,,,,,,,,,,,,,,,,,,,,,,,,,,5,WC_extreme,resources/DBN.BMP,3,0,3,0,1,,,,,,,,,,,,,,,,,,,,,,,,,
,,,,,,,,2023-08-06_08h25.59.200,HF_wild_card,2022.2.4,Win32,60.28817749,594a481105e73f0001450009,64ce5acb97489d65b14ecc7a,64cf4af447447ed36c81da0f,,,,,,,,,,,,,,,,,,,,,,,,,,,,,,,,55,WC_nonExtreme,resources/DY.BMP,4,0,4,0,1,,,,,,,,,,,,,,,,,,,,,,,,,
,,,,,,,,2023-08-06_08h25.59.200,HF_wild_card,2022.2.4,Win32,60.28817749,594a481105e73f0001450009,64ce5acb97489d65b14ecc7a,64cf4af447447ed36c81da0f,,,,,,,,,,,,,,,,,,,,,,,,,,,,,,,,70,Door4,resources/DP.BMP,5,0,5,0,1,,,,,,,,,,,,,,,,,,,,,,,,,
,,,,,,,,2023-08-06_08h25.59.200,HF_wild_card,2022.2.4,Win32,60.28817749,594a481105e73f0001450009,64ce5acb97489d65b14ecc7a,64cf4af447447ed36c81da0f,,,,,,,,,,,,,,,,,,,,,,,,,,,,,,,,,,,,,,,,,,,,,,,,,,,,,,,,,,,,,,,,
,,,,,,,,2023-08-06_08h25.59.200,HF_wild_card,2022.2.4,Win32,60.28817749,594a481105e73f0001450009,64ce5acb97489d65b14ecc7a,64cf4af447447ed36c81da0f,,,,,,,,,,,,,,,,,,,,,,,,,,,,,,,,,,,,,,,,0,0,0,0,1,,,,,,,,,,,,,,,,,,,,
,,,,,,,,2023-08-06_08h25.59.200,HF_wild_card,2022.2.4,Win32,60.28817749,594a481105e73f0001450009,64ce5acb97489d65b14ecc7a,64cf4af447447ed36c81da0f,,,,,,,,,,,,,,,,,,,,,,,,,,,,,,,,,,,,,,,,1,0,1,0,1,,,,,,,,,,,,,,,,,,,,
