Condition,Low fixed image (Door1),Low risky image (Door2),High fixed image (Door3),High risky image (Door4),Extreme Wild Card,NonExtreme Wild Card,,date,expName,psychopyVersion,OS,frameRate,PROLIFIC_PID,STUDY_ID,SESSION_ID,mouse_2.x,mouse_2.y,mouse_2.leftButton,mouse_2.midButton,mouse_2.rightButton,mouse_2.clicked_name,Trial Type,Left Option Image,Right Option Image,Chosen Door,mouse.x,mouse.y,mouse.leftButton,mouse.midButton,mouse.rightButton,mouse.time,mouse.clicked_name,Feedback,Cumulative Reward,Block,trial.thisRepN,trial.thisTrialN,trial.thisN,trial.thisIndex,trial.ran,blocks.thisRepN,blocks.thisTrialN,blocks.thisN,blocks.thisIndex,blocks.ran
0,resources/DY.BMP,resources/DG.BMP,resources/DB.BMP,resources/DBN.BMP,resources/DR.BMP,resources/DP.BMP,,2023-08-16_08h23.15.496,HF_wild_card,2022.2.4,Linux armv81,60.22645146,63bc864456067deb81092630,64d2fd46c836a06233681665,64dc7953be257441112eb128,,,,,,,,,,,,,,,,,,,,,,,,,,,,,,
,,,,,,,,2023-08-16_08h23.15.496,HF_wild_card,2022.2.4,Linux armv81,60.22645146,63bc864456067deb81092630,64d2fd46c836a06233681665,64dc7953be257441112eb128,-0.027508078,-0.41782268,1,0,0,agree,,,,,,,,,,,,,,,,,,,,,,,,
,,,,,,,,2023-08-16_08h23.15.496,HF_wild_card,2022.2.4,Linux armv81,60.22645146,63bc864456067deb81092630,64d2fd46c836a06233681665,64dc7953be257441112eb128,,,,,,,,,,,,,,,,,,,,,,,,,,,,,,
,,,,,,,,2023-08-16_08h23.15.496,HF_wild_card,2022.2.4,Linux armv81,60.22645146,63bc864456067deb81092630,64d2fd46c836a06233681665,64dc7953be257441112eb128,,,,,,,ctch,resources/DBN.BMP,resources/DY.BMP,Door1,-0.377947289,-0.370203407,1,0,0,1.4319,optionRight,30,30,1,0,0,0,0,1,,,,,
,,,,,,,,2023-08-16_08h23.15.496,HF_wild_card,2022.2.4,Linux armv81,60.22645146,63bc864456067deb81092630,64d2fd46c836a06233681665,64dc7953be257441112eb128,,,,,,,decisionTrl,resources/DBN.BMP,resources/DB.BMP,Door3,0.391354607,-0.146440154,1,0,0,3.043,optionRight,70,100,1,1,0,1,0,1,,,,,
,,,,,,,,2023-08-16_08h23.15.496,HF_wild_card,2022.2.4,Linux armv81,60.22645146,63bc864456067deb81092630,64d2fd46c836a06233681665,64dc7953be257441112eb128,,,,,,,decisionTrl,resources/DY.BMP,resources/DG.BMP,Door1,-0.336338414,-0.12609804,1,0,0,1.7218,optionLeft,30,130,1,2,0,2,0,1,,,,,
,,,,,,,,2023-08-16_08h23.15.496,HF_wild_card,2022.2.4,Linux armv81,60.22645146,63bc864456067deb81092630,64d2fd46c836a06233681665,64dc7953be257441112eb128,,,,,,,decisionTrl,resources/DY.BMP,resources/DG.BMP,Door1,-0.328016633,-0.128871955,1,0,0,1.2371,optionLeft,30,160,1,3,0,3,0,1,,,,,
,,,,,,,,2023-08-16_08h23.15.496,HF_wild_card,2022.2.4,Linux armv81,60.22645146,63bc864456067deb81092630,64d2fd46c836a06233681665,64dc7953be257441112eb128,,,,,,,sngl,resources/DR.BMP,resources/Empty.png,WildCard_Ex,-0.357605175,-0.150138707,1,0,0,1.2664,optionLeft,5,165,1,4,0,4,0,1,,,,,
,,,,,,,,2023-08-16_08h23.15.496,HF_wild_card,2022.2.4,Linux armv81,60.22645146,63bc864456067deb81092630,64d2fd46c836a06233681665,64dc7953be257441112eb128,,,,,,,sngl,resources/Empty.png,resources/DR.BMP,WildCard_Ex,-0.230004616,-0.068770251,1,0,0,0.9577,optionRight,95,260,1,5,0,5,0,1,,,,,
,,,,,,,,2023-08-16_08h23.15.496,HF_wild_card,2022.2.4,Linux armv81,60.22645146,63bc864456067deb81092630,64d2fd46c836a06233681665,64dc7953be257441112eb128,,,,,,,sngl,resources/DBN.BMP,resources/Empty.png,Door4,0.386731416,-0.015141015,1,0,0,1.3075,optionLeft,80,340,1,6,0,6,0,1,,,,,
,,,,,,,,2023-08-16_08h23.15.496,HF_wild_card,2022.2.4,Linux armv81,60.22645146,63bc864456067deb81092630,64d2fd46c836a06233681665,64dc7953be257441112eb128,,,,,,,sngl,resources/Empty.png,resources/DR.BMP,WildCard_Ex,0.443134641,0.007050375,1,0,0,0.8534,optionRight,5,345,1,7,0,7,0,1,,,,,
,,,,,,,,2023-08-16_08h23.15.496,HF_wild_card,2022.2.4,Linux armv81,60.22645146,63bc864456067deb81092630,64d2fd46c836a06233681665,64dc7953be257441112eb128,,,,,,,decisionTrl,resources/DG.BMP,resources/DY.BMP,Door2,-0.333564499,-0.020688844,1,0,0,1.6434,optionLeft,20,365,1,8,0,8,0,1,,,,,
,,,,,,,,2023-08-16_08h23.15.496,HF_wild_card,2022.2.4,Linux armv81,60.22645146,63bc864456067deb81092630,64d2fd46c836a06233681665,64dc7953be257441112eb128,,,,,,,sngl,resources/DB.BMP,resources/Empty.png,Door3,-0.303975948,0.03201568,1,0,0,0.8237,optionLeft,70,435,1,9,0,9,0,1,,,,,
,,,,,,,,2023-08-16_08h23.15.496,HF_wild_card,2022.2.4,Linux armv81,60.22645146,63bc864456067deb81092630,64d2fd46c836a06233681665,64dc7953be257441112eb128,,,,,,,ctch,resources/DB.BMP,resources/DG.BMP,Door3,-0.291030976,-0.0299353,1,0,0,1.1728,optionLeft,70,505,1,10,0,10,0,1,,,,,
,,,,,,,,2023-08-16_08h23.15.496,HF_wild_card,2022.2.4,Linux armv81,60.22645146,63bc864456067deb81092630,64d2fd46c836a06233681665,64dc7953be257441112eb128,,,,,,,ctch,resources/DB.BMP,resources/DG.BMP,Door3,-0.286407767,-0.008668548,1,0,0,0.7032,optionLeft,70,575,1,11,0,11,0,1,,,,,
,,,,,,,,2023-08-16_08h23.15.496,HF_wild_card,2022.2.4,Linux armv81,60.22645146,63bc864456067deb81092630,64d2fd46c836a06233681665,64dc7953be257441112eb128,,,,,,,decisionTrl,resources/DB.BMP,resources/DBN.BMP,Door4,0.305362961,0.000577908,1,0,0,2.032,optionRight,60,635,1,12,0,12,0,1,,,,,
,,,,,,,,2023-08-16_08h23.15.496,HF_wild_card,2022.2.4,Linux armv81,60.22645146,63bc864456067deb81092630,64d2fd46c836a06233681665,64dc7953be257441112eb128,,,,,,,decisionTrl,resources/DR.BMP,resources/DY.BMP,WildCard_Ex,-0.309523814,-0.023462833,1,0,0,1.025,optionLeft,5,640,1,13,0,13,0,1,,,,,
,,,,,,,,2023-08-16_08h23.15.496,HF_wild_card,2022.2.4,Linux armv81,60.22645146,63bc864456067deb81092630,64d2fd46c836a06233681665,64dc7953be257441112eb128,,,,,,,decisionTrl,resources/DB.BMP,resources/DR.BMP,Door3,-0.300277395,0.016296757,1,0,0,1.0556,optionLeft,70,710,1,14,0,14,0,1,,,,,
,,,,,,,,2023-08-16_08h23.15.496,HF_wild_card,2022.2.4,Linux armv81,60.22645146,63bc864456067deb81092630,64d2fd46c836a06233681665,64dc7953be257441112eb128,,,,,,,decisionTrl,resources/DB.BMP,resources/DBN.BMP,Door4,0.329403627,-0.003120719,1,0,0,1.0188,optionRight,60,770,1,15,0,15,0,1,,,,,
,,,,,,,,2023-08-16_08h23.15.496,HF_wild_card,2022.2.4,Linux armv81,60.22645146,63bc864456067deb81092630,64d2fd46c836a06233681665,64dc7953be257441112eb128,,,,,,,decisionTrl,resources/DG.BMP,resources/DY.BMP,Door2,-0.32431808,0.002427184,1,0,0,1.4965,optionLeft,40,810,1,16,0,16,0,1,,,,,
,,,,,,,,2023-08-16_08h23.15.496,HF_wild_card,2022.2.4,Linux armv81,60.22645146,63bc864456067deb81092630,64d2fd46c836a06233681665,64dc7953be257441112eb128,,,,,,,sngl,resources/Empty.png,resources/DB.BMP,Door3,0.32293116,-0.039181682,1,0,0,0.6441,optionRight,70,880,1,17,0,17,0,1,,,,,
,,,,,,,,2023-08-16_08h23.15.496,HF_wild_card,2022.2.4,Linux armv81,60.22645146,63bc864456067deb81092630,64d2fd46c836a06233681665,64dc7953be257441112eb128,,,,,,,decisionTrl,resources/DY.BMP,resources/DR.BMP,Door1,-0.2984281,-0.053051328,1,0,0,1.2866,optionLeft,30,910,1,18,0,18,0,1,,,,,
,,,,,,,,2023-08-16_08h23.15.496,HF_wild_card,2022.2.4,Linux armv81,60.22645146,63bc864456067deb81092630,64d2fd46c836a06233681665,64dc7953be257441112eb128,,,,,,,sngl,resources/Empty.png,resources/DBN.BMP,Door4,0.317383257,-0.0299353,1,0,0,1.3551,optionRight,60,970,1,19,0,19,0,1,,,,,
,,,,,,,,2023-08-16_08h23.15.496,HF_wild_card,2022.2.4,Linux armv81,60.22645146,63bc864456067deb81092630,64d2fd46c836a06233681665,64dc7953be257441112eb128,,,,,,,decisionTrl,resources/DB.BMP,resources/DBN.BMP,Door3,-0.296578824,-0.025312109,1,0,0,1.2248,optionLeft,70,1040,1,20,0,20,0,1,,,,,
,,,,,,,,2023-08-16_08h23.15.496,HF_wild_card,2022.2.4,Linux armv81,60.22645146,63bc864456067deb81092630,64d2fd46c836a06233681665,64dc7953be257441112eb128,,,,,,,decisionTrl,resources/DG.BMP,resources/DR.BMP,Door2,-0.290106338,-0.067845613,1,0,0,1.5385,optionLeft,20,1060,1,21,0,21,0,1,,,,,
,,,,,,,,2023-08-16_08h23.15.496,HF_wild_card,2022.2.4,Linux armv81,60.22645146,63bc864456067deb81092630,64d2fd46c836a06233681665,64dc7953be257441112eb128,,,,,,,decisionTrl,resources/DR.BMP,resources/DB.BMP,Door3,0.358067485,-0.067845613,1,0,0,0.8213,optionRight,70,1130,1,22,0,22,0,1,,,,,
,,,,,,,,2023-08-16_08h23.15.496,HF_wild_card,2022.2.4,Linux armv81,60.22645146,63bc864456067deb81092630,64d2fd46c836a06233681665,64dc7953be257441112eb128,,,,,,,decisionTrl,resources/DY.BMP,resources/DG.BMP,Door2,0.233240887,-0.076167357,1,0,0,1.9649,optionRight,20,1150,1,23,0,23,0,1,,,,,
,,,,,,,,2023-08-16_08h23.15.496,HF_wild_card,2022.2.4,Linux armv81,60.22645146,63bc864456067deb81092630,64d2fd46c836a06233681665,64dc7953be257441112eb128,,,,,,,sngl,resources/DR.BMP,resources/Empty.png,WildCard_Ex,-0.318770214,-0.030859938,1,0,0,1.0087,optionLeft,95,1245,1,24,0,24,0,1,,,,,
,,,,,,,,2023-08-16_08h23.15.496,HF_wild_card,2022.2.4,Linux armv81,60.22645146,63bc864456067deb81092630,64d2fd46c836a06233681665,64dc7953be257441112eb128,,,,,,,decisionTrl,resources/DBN.BMP,resources/DR.BMP,WildCard_Ex,0.253583001,-0.057674519,1,0,0,0.7853,optionRight,95,1340,1,25,0,25,0,1,,,,,
,,,,,,,,2023-08-16_08h23.15.496,HF_wild_card,2022.2.4,Linux armv81,60.22645146,63bc864456067deb81092630,64d2fd46c836a06233681665,64dc7953be257441112eb128,,,,,,,decisionTrl,resources/DBN.BMP,resources/DB.BMP,Door3,0.320157171,-0.032709214,1,0,0,0.9036,optionRight,70,1410,1,26,0,26,0,1,,,,,
,,,,,,,,2023-08-16_08h23.15.496,HF_wild_card,2022.2.4,Linux armv81,60.22645146,63bc864456067deb81092630,64d2fd46c836a06233681665,64dc7953be257441112eb128,,,,,,,sngl,resources/Empty.png,resources/DY.BMP,Door1,0.26837736,-0.028086023,1,0,0,0.7246,optionRight,30,1440,1,27,0,27,0,1,,,,,
,,,,,,,,2023-08-16_08h23.15.496,HF_wild_card,2022.2.4,Linux armv81,60.22645146,63bc864456067deb81092630,64d2fd46c836a06233681665,64dc7953be257441112eb128,,,,,,,ctch,resources/DY.BMP,resources/DBN.BMP,Door4,0.276699029,-0.067845613,1,0,0,0.8535,optionRight,80,1520,1,28,0,28,0,1,,,,,
,,,,,,,,2023-08-16_08h23.15.496,HF_wild_card,2022.2.4,Linux armv81,60.22645146,63bc864456067deb81092630,64d2fd46c836a06233681665,64dc7953be257441112eb128,,,,,,,decisionTrl,resources/DB.BMP,resources/DBN.BMP,Door4,0.245261257,-0.028086023,1,0,0,1.2227,optionRight,60,1580,1,29,0,29,0,1,,,,,
,,,,,,,,2023-08-16_08h23.15.496,HF_wild_card,2022.2.4,Linux armv81,60.22645146,63bc864456067deb81092630,64d2fd46c836a06233681665,64dc7953be257441112eb128,,,,,,,decisionTrl,resources/DG.BMP,resources/DY.BMP,Door2,-0.271613501,-0.10390665,1,0,0,1.2349,optionLeft,40,1620,1,30,0,30,0,1,,,,,
,,,,,,,,2023-08-16_08h23.15.496,HF_wild_card,2022.2.4,Linux armv81,60.22645146,63bc864456067deb81092630,64d2fd46c836a06233681665,64dc7953be257441112eb128,,,,,,,decisionTrl,resources/DR.BMP,resources/DBN.BMP,Door4,0.266528009,-0.084489174,1,0,0,1.7467,optionRight,80,1700,1,31,0,31,0,1,,,,,
,,,,,,,,2023-08-16_08h23.15.496,HF_wild_card,2022.2.4,Linux armv81,60.22645146,63bc864456067deb81092630,64d2fd46c836a06233681665,64dc7953be257441112eb128,,,,,,,ctch,resources/DG.BMP,resources/DB.BMP,Door3,0.246185895,-0.050277414,1,0,0,1.0218,optionRight,70,1770,1,32,0,32,0,1,,,,,
,,,,,,,,2023-08-16_08h23.15.496,HF_wild_card,2022.2.4,Linux armv81,60.22645146,63bc864456067deb81092630,64d2fd46c836a06233681665,64dc7953be257441112eb128,,,,,,,sngl,resources/Empty.png,resources/DG.BMP,Door2,0.248959884,-0.072468804,1,0,0,6.3486,optionRight,20,1790,1,33,0,33,0,1,,,,,
,,,,,,,,2023-08-16_08h23.15.496,HF_wild_card,2022.2.4,Linux armv81,60.22645146,63bc864456067deb81092630,64d2fd46c836a06233681665,64dc7953be257441112eb128,,,,,,,ctch,resources/DBN.BMP,resources/DY.BMP,Door4,-0.279010606,-0.025312109,1,0,0,1.3935,optionLeft,60,1850,1,34,0,34,0,1,,,,,
,,,,,,,,2023-08-16_08h23.15.496,HF_wild_card,2022.2.4,Linux armv81,60.22645146,63bc864456067deb81092630,64d2fd46c836a06233681665,64dc7953be257441112eb128,,,,,,,decisionTrl,resources/DBN.BMP,resources/DB.BMP,Door3,0.375635684,-0.133495146,1,0,0,1.3816,optionRight,70,1920,1,35,0,35,0,1,,,,,
,,,,,,,,2023-08-16_08h23.15.496,HF_wild_card,2022.2.4,Linux armv81,60.22645146,63bc864456067deb81092630,64d2fd46c836a06233681665,64dc7953be257441112eb128,,,,,,,ctch,resources/DG.BMP,resources/DB.BMP,Door2,-0.22815534,-0.083564536,1,0,0,1.0016,optionLeft,40,1960,1,36,0,36,0,1,,,,,
,,,,,,,,2023-08-16_08h23.15.496,HF_wild_card,2022.2.4,Linux armv81,60.22645146,63bc864456067deb81092630,64d2fd46c836a06233681665,64dc7953be257441112eb128,,,,,,,decisionTrl,resources/DY.BMP,resources/DG.BMP,Door1,-0.242024968,-0.077091995,1,0,0,0.9085,optionLeft,30,1990,1,37,0,37,0,1,,,,,
,,,,,,,,2023-08-16_08h23.15.496,HF_wild_card,2022.2.4,Linux armv81,60.22645146,63bc864456067deb81092630,64d2fd46c836a06233681665,64dc7953be257441112eb128,,,,,,,decisionTrl,resources/DR.BMP,resources/DG.BMP,WildCard_Ex,-0.253120663,-0.024387471,1,0,0,3.4748,optionLeft,95,2085,1,38,0,38,0,1,,,,,
,,,,,,,,2023-08-16_08h23.15.496,HF_wild_card,2022.2.4,Linux armv81,60.22645146,63bc864456067deb81092630,64d2fd46c836a06233681665,64dc7953be257441112eb128,,,,,,,ctch,resources/DY.BMP,resources/DBN.BMP,Door4,0.298890419,-0.031784576,1,0,0,1.8442,optionRight,80,2165,1,39,0,39,0,1,,,,,
,,,,,,,,2023-08-16_08h23.15.496,HF_wild_card,2022.2.4,Linux armv81,60.22645146,63bc864456067deb81092630,64d2fd46c836a06233681665,64dc7953be257441112eb128,,,,,,,decisionTrl,resources/DG.BMP,resources/DY.BMP,Door2,-0.329865928,-0.071544166,1,0,0,1.9201,optionLeft,40,2205,1,40,0,40,0,1,,,,,
,,,,,,,,2023-08-16_08h23.15.496,HF_wild_card,2022.2.4,Linux armv81,60.22645146,63bc864456067deb81092630,64d2fd46c836a06233681665,64dc7953be257441112eb128,,,,,,,sngl,resources/DY.BMP,resources/Empty.png,Door1,-0.256819234,-0.0299353,1,0,0,0.6886,optionLeft,30,2235,1,41,0,41,0,1,,,,,
,,,,,,,,2023-08-16_08h23.15.496,HF_wild_card,2022.2.4,Linux armv81,60.22645146,63bc864456067deb81092630,64d2fd46c836a06233681665,64dc7953be257441112eb128,,,,,,,sngl,resources/DG.BMP,resources/Empty.png,Door2,-0.261442444,0.004276461,1,0,0,0.6857,optionLeft,40,2275,1,42,0,42,0,1,,,,,
,,,,,,,,2023-08-16_08h23.15.496,HF_wild_card,2022.2.4,Linux armv81,60.22645146,63bc864456067deb81092630,64d2fd46c836a06233681665,64dc7953be257441112eb128,,,,,,,decisionTrl,resources/DBN.BMP,resources/DB.BMP,Door3,0.262829382,-0.039181682,1,0,0,1.2391,optionRight,70,2345,1,43,0,43,0,1,,,,,
,,,,,,,,2023-08-16_08h23.15.496,HF_wild_card,2022.2.4,Linux armv81,60.22645146,63bc864456067deb81092630,64d2fd46c836a06233681665,64dc7953be257441112eb128,,,,,,,,,,,,,,,,,,,,,,,,,,0,0,0,0,1
,,,,,,,,2023-08-16_08h23.15.496,HF_wild_card,2022.2.4,Linux armv81,60.22645146,63bc864456067deb81092630,64d2fd46c836a06233681665,64dc7953be257441112eb128,,,,,,,decisionTrl,resources/DR.BMP,resources/DG.BMP,WildCard_Ex,-0.291030976,-0.049352775,1,0,0,1.9648,optionLeft,5,2350,2,0,0,0,0,1,,,,,
,,,,,,,,2023-08-16_08h23.15.496,HF_wild_card,2022.2.4,Linux armv81,60.22645146,63bc864456067deb81092630,64d2fd46c836a06233681665,64dc7953be257441112eb128,,,,,,,sngl,resources/Empty.png,resources/DR.BMP,WildCard_Ex,0.26837736,-0.006819271,1,0,0,0.6119,optionRight,95,2445,2,1,0,1,0,1,,,,,
,,,,,,,,2023-08-16_08h23.15.496,HF_wild_card,2022.2.4,Linux armv81,60.22645146,63bc864456067deb81092630,64d2fd46c836a06233681665,64dc7953be257441112eb128,,,,,,,decisionTrl,resources/DY.BMP,resources/DG.BMP,Door2,0.252658363,-0.071544166,1,0,0,1.3177,optionRight,40,2485,2,2,0,2,0,1,,,,,
,,,,,,,,2023-08-16_08h23.15.496,HF_wild_card,2022.2.4,Linux armv81,60.22645146,63bc864456067deb81092630,64d2fd46c836a06233681665,64dc7953be257441112eb128,,,,,,,sngl,resources/Empty.png,resources/DB.BMP,Door3,0.260980106,-0.057674519,1,0,0,0.8084,optionRight,70,2555,2,3,0,3,0,1,,,,,
,,,,,,,,2023-08-16_08h23.15.496,HF_wild_card,2022.2.4,Linux armv81,60.22645146,63bc864456067deb81092630,64d2fd46c836a06233681665,64dc7953be257441112eb128,,,,,,,decisionTrl,resources/DG.BMP,resources/DY.BMP,Door2,-0.247572816,-0.097434109,1,0,0,1.912,optionLeft,40,2595,2,4,0,4,0,1,,,,,
,,,,,,,,2023-08-16_08h23.15.496,HF_wild_card,2022.2.4,Linux armv81,60.22645146,63bc864456067deb81092630,64d2fd46c836a06233681665,64dc7953be257441112eb128,,,,,,,decisionTrl,resources/DBN.BMP,resources/DB.BMP,Door3,0.257281553,-0.057674519,1,0,0,1.29,optionRight,70,2665,2,5,0,5,0,1,,,,,
,,,,,,,,2023-08-16_08h23.15.496,HF_wild_card,2022.2.4,Linux armv81,60.22645146,63bc864456067deb81092630,64d2fd46c836a06233681665,64dc7953be257441112eb128,,,,,,,decisionTrl,resources/DBN.BMP,resources/DR.BMP,WildCard_Ex,0.264678733,-0.065996337,1,0,0,0.5891,optionRight,5,2670,2,6,0,6,0,1,,,,,
,,,,,,,,2023-08-16_08h23.15.496,HF_wild_card,2022.2.4,Linux armv81,60.22645146,63bc864456067deb81092630,64d2fd46c836a06233681665,64dc7953be257441112eb128,,,,,,,decisionTrl,resources/DY.BMP,resources/DG.BMP,Door1,-0.302126672,-0.006819271,1,0,0,0.7248,optionLeft,30,2700,2,7,0,7,0,1,,,,,
,,,,,,,,2023-08-16_08h23.15.496,HF_wild_card,2022.2.4,Linux armv81,60.22645146,63bc864456067deb81092630,64d2fd46c836a06233681665,64dc7953be257441112eb128,,,,,,,decisionTrl,resources/DBN.BMP,resources/DB.BMP,Door4,-0.285483129,0.036638945,1,0,0,0.6408,optionLeft,60,2760,2,8,0,8,0,1,,,,,
,,,,,,,,2023-08-16_08h23.15.496,HF_wild_card,2022.2.4,Linux armv81,60.22645146,63bc864456067deb81092630,64d2fd46c836a06233681665,64dc7953be257441112eb128,,,,,,,sngl,resources/DBN.BMP,resources/Empty.png,Door4,-0.296578824,0.019995384,1,0,0,0.6208,optionLeft,60,2820,2,9,0,9,0,1,,,,,
,,,,,,,,2023-08-16_08h23.15.496,HF_wild_card,2022.2.4,Linux armv81,60.22645146,63bc864456067deb81092630,64d2fd46c836a06233681665,64dc7953be257441112eb128,,,,,,,decisionTrl,resources/DBN.BMP,resources/DB.BMP,Door3,0.202727679,-0.029010662,1,0,0,0.9984,optionRight,70,2890,2,10,0,10,0,1,,,,,
,,,,,,,,2023-08-16_08h23.15.496,HF_wild_card,2022.2.4,Linux armv81,60.22645146,63bc864456067deb81092630,64d2fd46c836a06233681665,64dc7953be257441112eb128,,,,,,,decisionTrl,resources/DY.BMP,resources/DG.BMP,Door1,-0.203190017,-0.037332405,1,0,0,7.4203,optionLeft,30,2920,2,11,0,11,0,1,,,,,
,,,,,,,,2023-08-16_08h23.15.496,HF_wild_card,2022.2.4,Linux armv81,60.22645146,63bc864456067deb81092630,64d2fd46c836a06233681665,64dc7953be257441112eb128,,,,,,,decisionTrl,resources/DB.BMP,resources/DBN.BMP,Door3,-0.243874244,-0.063222422,1,0,0,0.6582,optionLeft,70,2990,2,12,0,12,0,1,,,,,
,,,,,,,,2023-08-16_08h23.15.496,HF_wild_card,2022.2.4,Linux armv81,60.22645146,63bc864456067deb81092630,64d2fd46c836a06233681665,64dc7953be257441112eb128,,,,,,,decisionTrl,resources/DG.BMP,resources/DY.BMP,Door2,-0.235552464,-0.013291739,1,0,0,0.7689,optionLeft,40,3030,2,13,0,13,0,1,,,,,
,,,,,,,,2023-08-16_08h23.15.496,HF_wild_card,2022.2.4,Linux armv81,60.22645146,63bc864456067deb81092630,64d2fd46c836a06233681665,64dc7953be257441112eb128,,,,,,,decisionTrl,resources/DR.BMP,resources/DBN.BMP,WildCard_Ex,-0.259593149,-0.024387471,1,0,0,0.9502,optionLeft,95,3125,2,14,0,14,0,1,,,,,
,,,,,,,,2023-08-16_08h23.15.496,HF_wild_card,2022.2.4,Linux armv81,60.22645146,63bc864456067deb81092630,64d2fd46c836a06233681665,64dc7953be257441112eb128,,,,,,,decisionTrl,resources/DB.BMP,resources/DBN.BMP,Door3,-0.2984281,-0.085413812,1,0,0,1.2358,optionLeft,70,3195,2,15,0,15,0,1,,,,,
,,,,,,,,2023-08-16_08h23.15.496,HF_wild_card,2022.2.4,Linux armv81,60.22645146,63bc864456067deb81092630,64d2fd46c836a06233681665,64dc7953be257441112eb128,,,,,,,decisionTrl,resources/DG.BMP,resources/DY.BMP,Door2,-0.290106338,-0.070619528,1,0,0,1.125,optionLeft,20,3215,2,16,0,16,0,1,,,,,
,,,,,,,,2023-08-16_08h23.15.496,HF_wild_card,2022.2.4,Linux armv81,60.22645146,63bc864456067deb81092630,64d2fd46c836a06233681665,64dc7953be257441112eb128,,,,,,,decisionTrl,resources/DR.BMP,resources/DB.BMP,WildCard_Ex,-0.305825243,-0.038257043,1,0,0,0.5768,optionLeft,5,3220,2,17,0,17,0,1,,,,,
,,,,,,,,2023-08-16_08h23.15.496,HF_wild_card,2022.2.4,Linux armv81,60.22645146,63bc864456067deb81092630,64d2fd46c836a06233681665,64dc7953be257441112eb128,,,,,,,decisionTrl,resources/DB.BMP,resources/DR.BMP,WildCard_Ex,0.32108181,-0.014216377,1,0,0,0.5216,optionRight,5,3225,2,18,0,18,0,1,,,,,
,,,,,,,,2023-08-16_08h23.15.496,HF_wild_card,2022.2.4,Linux armv81,60.22645146,63bc864456067deb81092630,64d2fd46c836a06233681665,64dc7953be257441112eb128,,,,,,,decisionTrl,resources/DB.BMP,resources/DBN.BMP,Door4,0.274849753,-0.06414706,1,0,0,0.7928,optionRight,80,3305,2,19,0,19,0,1,,,,,
,,,,,,,,2023-08-16_08h23.15.496,HF_wild_card,2022.2.4,Linux armv81,60.22645146,63bc864456067deb81092630,64d2fd46c836a06233681665,64dc7953be257441112eb128,,,,,,,ctch,resources/DY.BMP,resources/DBN.BMP,Door4,0.261904744,-0.071544166,1,0,0,0.6558,optionRight,80,3385,2,20,0,20,0,1,,,,,
,,,,,,,,2023-08-16_08h23.15.496,HF_wild_card,2022.2.4,Linux armv81,60.22645146,63bc864456067deb81092630,64d2fd46c836a06233681665,64dc7953be257441112eb128,,,,,,,sngl,resources/Empty.png,resources/DY.BMP,Door1,0.2711512,-0.031784576,1,0,0,0.6847,optionRight,30,3415,2,21,0,21,0,1,,,,,
,,,,,,,,2023-08-16_08h23.15.496,HF_wild_card,2022.2.4,Linux armv81,60.22645146,63bc864456067deb81092630,64d2fd46c836a06233681665,64dc7953be257441112eb128,,,,,,,ctch,resources/DY.BMP,resources/DBN.BMP,Door4,0.265603371,-0.004969995,1,0,0,0.6767,optionRight,80,3495,2,22,0,22,0,1,,,,,
,,,,,,,,2023-08-16_08h23.15.496,HF_wild_card,2022.2.4,Linux armv81,60.22645146,63bc864456067deb81092630,64d2fd46c836a06233681665,64dc7953be257441112eb128,,,,,,,sngl,resources/DG.BMP,resources/Empty.png,Door2,-0.187471112,-0.038257043,1,0,0,0.8033,optionLeft,20,3515,2,23,0,23,0,1,,,,,
,,,,,,,,2023-08-16_08h23.15.496,HF_wild_card,2022.2.4,Linux armv81,60.22645146,63bc864456067deb81092630,64d2fd46c836a06233681665,64dc7953be257441112eb128,,,,,,,ctch,resources/DBN.BMP,resources/DY.BMP,Door4,-0.217059626,-0.049352775,1,0,0,0.8649,optionLeft,80,3595,2,24,0,24,0,1,,,,,
,,,,,,,,2023-08-16_08h23.15.496,HF_wild_card,2022.2.4,Linux armv81,60.22645146,63bc864456067deb81092630,64d2fd46c836a06233681665,64dc7953be257441112eb128,,,,,,,decisionTrl,resources/DY.BMP,resources/DR.BMP,WildCard_Ex,0.254507639,-0.032709214,1,0,0,0.6429,optionRight,5,3600,2,25,0,25,0,1,,,,,
,,,,,,,,2023-08-16_08h23.15.496,HF_wild_card,2022.2.4,Linux armv81,60.22645146,63bc864456067deb81092630,64d2fd46c836a06233681665,64dc7953be257441112eb128,,,,,,,sngl,resources/DR.BMP,resources/Empty.png,WildCard_Ex,-0.237401759,-0.04195567,1,0,0,0.5443,optionLeft,95,3695,2,26,0,26,0,1,,,,,
,,,,,,,,2023-08-16_08h23.15.496,HF_wild_card,2022.2.4,Linux armv81,60.22645146,63bc864456067deb81092630,64d2fd46c836a06233681665,64dc7953be257441112eb128,,,,,,,ctch,resources/DB.BMP,resources/DG.BMP,Door2,0.264678733,-0.075242718,1,0,0,0.8532,optionRight,40,3735,2,27,0,27,0,1,,,,,
,,,,,,,,2023-08-16_08h23.15.496,HF_wild_card,2022.2.4,Linux armv81,60.22645146,63bc864456067deb81092630,64d2fd46c836a06233681665,64dc7953be257441112eb128,,,,,,,decisionTrl,resources/DG.BMP,resources/DR.BMP,Door2,-0.191169665,-0.069694889,1,0,0,1.3001,optionLeft,40,3775,2,28,0,28,0,1,,,,,
,,,,,,,,2023-08-16_08h23.15.496,HF_wild_card,2022.2.4,Linux armv81,60.22645146,63bc864456067deb81092630,64d2fd46c836a06233681665,64dc7953be257441112eb128,,,,,,,sngl,resources/Empty.png,resources/DR.BMP,WildCard_Ex,0.279472944,0.019070746,1,0,0,0.6419,optionRight,5,3780,2,29,0,29,0,1,,,,,
,,,,,,,,2023-08-16_08h23.15.496,HF_wild_card,2022.2.4,Linux armv81,60.22645146,63bc864456067deb81092630,64d2fd46c836a06233681665,64dc7953be257441112eb128,,,,,,,decisionTrl,resources/DB.BMP,resources/DBN.BMP,Door4,0.262829382,-0.00774391,1,0,0,0.7408,optionRight,60,3840,2,30,0,30,0,1,,,,,
,,,,,,,,2023-08-16_08h23.15.496,HF_wild_card,2022.2.4,Linux armv81,60.22645146,63bc864456067deb81092630,64d2fd46c836a06233681665,64dc7953be257441112eb128,,,,,,,decisionTrl,resources/DBN.BMP,resources/DB.BMP,Door3,0.288719399,0.00982429,1,0,0,0.7685,optionRight,70,3910,2,31,0,31,0,1,,,,,
,,,,,,,,2023-08-16_08h23.15.496,HF_wild_card,2022.2.4,Linux armv81,60.22645146,63bc864456067deb81092630,64d2fd46c836a06233681665,64dc7953be257441112eb128,,,,,,,decisionTrl,resources/DG.BMP,resources/DY.BMP,Door1,0.277623667,-0.026236747,1,0,0,0.7718,optionRight,30,3940,2,32,0,32,0,1,,,,,
,,,,,,,,2023-08-16_08h23.15.496,HF_wild_card,2022.2.4,Linux armv81,60.22645146,63bc864456067deb81092630,64d2fd46c836a06233681665,64dc7953be257441112eb128,,,,,,,sngl,resources/Empty.png,resources/DG.BMP,Door2,0.263754095,-0.001271368,1,0,0,0.5737,optionRight,40,3980,2,33,0,33,0,1,,,,,
,,,,,,,,2023-08-16_08h23.15.496,HF_wild_card,2022.2.4,Linux armv81,60.22645146,63bc864456067deb81092630,64d2fd46c836a06233681665,64dc7953be257441112eb128,,,,,,,sngl,resources/DR.BMP,resources/Empty.png,WildCard_Ex,-0.221682836,-0.058599157,1,0,0,0.5277,optionLeft,5,3985,2,34,0,34,0,1,,,,,
,,,,,,,,2023-08-16_08h23.15.496,HF_wild_card,2022.2.4,Linux armv81,60.22645146,63bc864456067deb81092630,64d2fd46c836a06233681665,64dc7953be257441112eb128,,,,,,,ctch,resources/DG.BMP,resources/DB.BMP,Door3,0.223069793,-0.020688844,1,0,0,0.5539,optionRight,70,4055,2,35,0,35,0,1,,,,,
,,,,,,,,2023-08-16_08h23.15.496,HF_wild_card,2022.2.4,Linux armv81,60.22645146,63bc864456067deb81092630,64d2fd46c836a06233681665,64dc7953be257441112eb128,,,,,,,sngl,resources/DY.BMP,resources/Empty.png,Door1,-0.208737864,-0.076167357,1,0,0,0.5357,optionLeft,30,4085,2,36,0,36,0,1,,,,,
,,,,,,,,2023-08-16_08h23.15.496,HF_wild_card,2022.2.4,Linux armv81,60.22645146,63bc864456067deb81092630,64d2fd46c836a06233681665,64dc7953be257441112eb128,,,,,,,ctch,resources/DBN.BMP,resources/DY.BMP,Door1,0.23139161,-0.021613556,1,0,0,0.5861,optionRight,30,4115,2,37,0,37,0,1,,,,,
,,,,,,,,2023-08-16_08h23.15.496,HF_wild_card,2022.2.4,Linux armv81,60.22645146,63bc864456067deb81092630,64d2fd46c836a06233681665,64dc7953be257441112eb128,,,,,,,sngl,resources/DB.BMP,resources/Empty.png,Door3,-0.186546474,-0.038257043,1,0,0,0.5284,optionLeft,70,4185,2,38,0,38,0,1,,,,,
,,,,,,,,2023-08-16_08h23.15.496,HF_wild_card,2022.2.4,Linux armv81,60.22645146,63bc864456067deb81092630,64d2fd46c836a06233681665,64dc7953be257441112eb128,,,,,,,sngl,resources/Empty.png,resources/DBN.BMP,Door4,0.227693058,-0.035483129,1,0,0,0.5383,optionRight,80,4265,2,39,0,39,0,1,,,,,
,,,,,,,,2023-08-16_08h23.15.496,HF_wild_card,2022.2.4,Linux armv81,60.22645146,63bc864456067deb81092630,64d2fd46c836a06233681665,64dc7953be257441112eb128,,,,,,,decisionTrl,resources/DY.BMP,resources/DG.BMP,Door1,-0.189320388,-0.029010662,1,0,0,0.4759,optionLeft,30,4295,2,40,0,40,0,1,,,,,
,,,,,,,,2023-08-16_08h23.15.496,HF_wild_card,2022.2.4,Linux armv81,60.22645146,63bc864456067deb81092630,64d2fd46c836a06233681665,64dc7953be257441112eb128,,,,,,,decisionTrl,resources/DR.BMP,resources/DY.BMP,WildCard_Ex,-0.196717512,-0.055825243,1,0,0,0.5922,optionLeft,5,4300,2,41,0,41,0,1,,,,,
,,,,,,,,2023-08-16_08h23.15.496,HF_wild_card,2022.2.4,Linux armv81,60.22645146,63bc864456067deb81092630,64d2fd46c836a06233681665,64dc7953be257441112eb128,,,,,,,ctch,resources/DG.BMP,resources/DB.BMP,Door3,0.272075838,-0.034558491,1,0,0,0.6214,optionRight,70,4370,2,42,0,42,0,1,,,,,
,,,,,,,,2023-08-16_08h23.15.496,HF_wild_card,2022.2.4,Linux armv81,60.22645146,63bc864456067deb81092630,64d2fd46c836a06233681665,64dc7953be257441112eb128,,,,,,,ctch,resources/DB.BMP,resources/DG.BMP,Door3,-0.177300055,0.002427184,1,0,0,0.6864,optionLeft,70,4440,2,43,0,43,0,1,,,,,
,,,,,,,,2023-08-16_08h23.15.496,HF_wild_card,2022.2.4,Linux armv81,60.22645146,63bc864456067deb81092630,64d2fd46c836a06233681665,64dc7953be257441112eb128,,,,,,,,,,,,,,,,,,,,,,,,,,1,0,1,0,1
,,,,,,,,2023-08-16_08h23.15.496,HF_wild_card,2022.2.4,Linux armv81,60.22645146,63bc864456067deb81092630,64d2fd46c836a06233681665,64dc7953be257441112eb128,,,,,,,ctch,resources/DG.BMP,resources/DB.BMP,Door3,0.285945485,-0.049352775,1,0,0,4.0294,optionRight,70,4510,3,0,0,0,0,1,,,,,
,,,,,,,,2023-08-16_08h23.15.496,HF_wild_card,2022.2.4,Linux armv81,60.22645146,63bc864456067deb81092630,64d2fd46c836a06233681665,64dc7953be257441112eb128,,,,,,,decisionTrl,resources/DY.BMP,resources/DG.BMP,Door1,-0.335413775,-0.101132735,1,0,0,0.6256,optionLeft,30,4540,3,1,0,1,0,1,,,,,
,,,,,,,,2023-08-16_08h23.15.496,HF_wild_card,2022.2.4,Linux armv81,60.22645146,63bc864456067deb81092630,64d2fd46c836a06233681665,64dc7953be257441112eb128,,,,,,,decisionTrl,resources/DBN.BMP,resources/DB.BMP,Door3,0.39505316,-0.144590878,1,0,0,0.6356,optionRight,70,4610,3,2,0,2,0,1,,,,,
,,,,,,,,2023-08-16_08h23.15.496,HF_wild_card,2022.2.4,Linux armv81,60.22645146,63bc864456067deb81092630,64d2fd46c836a06233681665,64dc7953be257441112eb128,,,,,,,sngl,resources/Empty.png,resources/DR.BMP,WildCard_Ex,0.398751787,-0.13626906,1,0,0,0.5704,optionRight,95,4705,3,3,0,3,0,1,,,,,
,,,,,,,,2023-08-16_08h23.15.496,HF_wild_card,2022.2.4,Linux armv81,60.22645146,63bc864456067deb81092630,64d2fd46c836a06233681665,64dc7953be257441112eb128,,,,,,,decisionTrl,resources/DBN.BMP,resources/DB.BMP,Door4,-0.288257043,-0.043804946,1,0,0,0.7221,optionLeft,60,4765,3,4,0,4,0,1,,,,,
,,,,,,,,2023-08-16_08h23.15.496,HF_wild_card,2022.2.4,Linux armv81,60.22645146,63bc864456067deb81092630,64d2fd46c836a06233681665,64dc7953be257441112eb128,,,,,,,decisionTrl,resources/DY.BMP,resources/DR.BMP,WildCard_Ex,0.388580693,-0.138118411,1,0,0,0.9554,optionRight,95,4860,3,5,0,5,0,1,,,,,
,,,,,,,,2023-08-16_08h23.15.496,HF_wild_card,2022.2.4,Linux armv81,60.22645146,63bc864456067deb81092630,64d2fd46c836a06233681665,64dc7953be257441112eb128,,,,,,,sngl,resources/DR.BMP,resources/Empty.png,WildCard_Ex,-0.326167357,-0.024387471,1,0,0,0.5602,optionLeft,95,4955,3,6,0,6,0,1,,,,,
,,,,,,,,2023-08-16_08h23.15.496,HF_wild_card,2022.2.4,Linux armv81,60.22645146,63bc864456067deb81092630,64d2fd46c836a06233681665,64dc7953be257441112eb128,,,,,,,decisionTrl,resources/DY.BMP,resources/DG.BMP,Door2,0.416319912,-0.119625573,1,0,0,1.1385,optionRight,20,4975,3,7,0,7,0,1,,,,,
,,,,,,,,2023-08-16_08h23.15.496,HF_wild_card,2022.2.4,Linux armv81,60.22645146,63bc864456067deb81092630,64d2fd46c836a06233681665,64dc7953be257441112eb128,,,,,,,ctch,resources/DBN.BMP,resources/DY.BMP,Door4,-0.279010606,-0.031784576,1,0,0,0.7869,optionLeft,80,5055,3,8,0,8,0,1,,,,,
,,,,,,,,2023-08-16_08h23.15.496,HF_wild_card,2022.2.4,Linux armv81,60.22645146,63bc864456067deb81092630,64d2fd46c836a06233681665,64dc7953be257441112eb128,,,,,,,decisionTrl,resources/DB.BMP,resources/DBN.BMP,Door3,-0.242949606,-0.035483129,1,0,0,1.2164,optionLeft,70,5125,3,9,0,9,0,1,,,,,
,,,,,,,,2023-08-16_08h23.15.496,HF_wild_card,2022.2.4,Linux armv81,60.22645146,63bc864456067deb81092630,64d2fd46c836a06233681665,64dc7953be257441112eb128,,,,,,,sngl,resources/DB.BMP,resources/Empty.png,Door3,-0.274387415,-0.025312109,1,0,0,0.7524,optionLeft,70,5195,3,10,0,10,0,1,,,,,
,,,,,,,,2023-08-16_08h23.15.496,HF_wild_card,2022.2.4,Linux armv81,60.22645146,63bc864456067deb81092630,64d2fd46c836a06233681665,64dc7953be257441112eb128,,,,,,,decisionTrl,resources/DG.BMP,resources/DY.BMP,Door2,-0.238326397,-0.037332405,1,0,0,1.2891,optionLeft,20,5215,3,11,0,11,0,1,,,,,
,,,,,,,,2023-08-16_08h23.15.496,HF_wild_card,2022.2.4,Linux armv81,60.22645146,63bc864456067deb81092630,64d2fd46c836a06233681665,64dc7953be257441112eb128,,,,,,,ctch,resources/DY.BMP,resources/DBN.BMP,Door4,0.411696721,-0.135344422,1,0,0,0.603,optionRight,60,5275,3,12,0,12,0,1,,,,,
,,,,,,,,2023-08-16_08h23.15.496,HF_wild_card,2022.2.4,Linux armv81,60.22645146,63bc864456067deb81092630,64d2fd46c836a06233681665,64dc7953be257441112eb128,,,,,,,sngl,resources/Empty.png,resources/DR.BMP,WildCard_Ex,0.409847445,-0.093735556,1,0,0,0.5925,optionRight,5,5280,3,13,0,13,0,1,,,,,
,,,,,,,,2023-08-16_08h23.15.496,HF_wild_card,2022.2.4,Linux armv81,60.22645146,63bc864456067deb81092630,64d2fd46c836a06233681665,64dc7953be257441112eb128,,,,,,,decisionTrl,resources/DY.BMP,resources/DG.BMP,Door1,-0.291955615,-0.023462833,1,0,0,0.6741,optionLeft,30,5310,3,14,0,14,0,1,,,,,
,,,,,,,,2023-08-16_08h23.15.496,HF_wild_card,2022.2.4,Linux armv81,60.22645146,63bc864456067deb81092630,64d2fd46c836a06233681665,64dc7953be257441112eb128,,,,,,,decisionTrl,resources/DB.BMP,resources/DBN.BMP,Door4,0.350670379,-0.145515516,1,0,0,0.8723,optionRight,80,5390,3,15,0,15,0,1,,,,,
,,,,,,,,2023-08-16_08h23.15.496,HF_wild_card,2022.2.4,Linux armv81,60.22645146,63bc864456067deb81092630,64d2fd46c836a06233681665,64dc7953be257441112eb128,,,,,,,decisionTrl,resources/DR.BMP,resources/DY.BMP,WildCard_Ex,-0.244798882,-0.075242718,1,0,0,1.8449,optionLeft,5,5395,3,16,0,16,0,1,,,,,
,,,,,,,,2023-08-16_08h23.15.496,HF_wild_card,2022.2.4,Linux armv81,60.22645146,63bc864456067deb81092630,64d2fd46c836a06233681665,64dc7953be257441112eb128,,,,,,,decisionTrl,resources/DG.BMP,resources/DY.BMP,Door2,-0.242949606,-0.019764206,1,0,0,0.6896,optionLeft,40,5435,3,17,0,17,0,1,,,,,
,,,,,,,,2023-08-16_08h23.15.496,HF_wild_card,2022.2.4,Linux armv81,60.22645146,63bc864456067deb81092630,64d2fd46c836a06233681665,64dc7953be257441112eb128,,,,,,,decisionTrl,resources/DB.BMP,resources/DBN.BMP,Door4,0.371937131,-0.176953362,1,0,0,0.6786,optionRight,80,5515,3,18,0,18,0,1,,,,,
,,,,,,,,2023-08-16_08h23.15.496,HF_wild_card,2022.2.4,Linux armv81,60.22645146,63bc864456067deb81092630,64d2fd46c836a06233681665,64dc7953be257441112eb128,,,,,,,sngl,resources/DY.BMP,resources/Empty.png,Door1,-0.283633815,-0.026236747,1,0,0,0.5087,optionLeft,30,5545,3,19,0,19,0,1,,,,,
,,,,,,,,2023-08-16_08h23.15.496,HF_wild_card,2022.2.4,Linux armv81,60.22645146,63bc864456067deb81092630,64d2fd46c836a06233681665,64dc7953be257441112eb128,,,,,,,decisionTrl,resources/DR.BMP,resources/DB.BMP,WildCard_Ex,-0.254045301,-0.033633852,1,0,0,0.3209,optionLeft,5,5550,3,20,0,20,0,1,,,,,
,,,,,,,,2023-08-16_08h23.15.496,HF_wild_card,2022.2.4,Linux armv81,60.22645146,63bc864456067deb81092630,64d2fd46c836a06233681665,64dc7953be257441112eb128,,,,,,,decisionTrl,resources/DG.BMP,resources/DR.BMP,Door2,-0.267914929,-0.05212669,1,0,0,0.371,optionLeft,40,5590,3,21,0,21,0,1,,,,,
,,,,,,,,2023-08-16_08h23.15.496,HF_wild_card,2022.2.4,Linux armv81,60.22645146,63bc864456067deb81092630,64d2fd46c836a06233681665,64dc7953be257441112eb128,,,,,,,sngl,resources/Empty.png,resources/DBN.BMP,Door4,0.444983843,-0.11407767,1,0,0,0.54,optionRight,60,5650,3,22,0,22,0,1,,,,,
,,,,,,,,2023-08-16_08h23.15.496,HF_wild_card,2022.2.4,Linux armv81,60.22645146,63bc864456067deb81092630,64d2fd46c836a06233681665,64dc7953be257441112eb128,,,,,,,decisionTrl,resources/DBN.BMP,resources/DB.BMP,Door4,-0.245723521,-0.00034673,1,0,0,0.6232,optionLeft,80,5730,3,23,0,23,0,1,,,,,
,,,,,,,,2023-08-16_08h23.15.496,HF_wild_card,2022.2.4,Linux armv81,60.22645146,63bc864456067deb81092630,64d2fd46c836a06233681665,64dc7953be257441112eb128,,,,,,,sngl,resources/DR.BMP,resources/Empty.png,WildCard_Ex,-0.272538139,-0.046578861,1,0,0,0.6692,optionLeft,5,5735,3,24,0,24,0,1,,,,,
,,,,,,,,2023-08-16_08h23.15.496,HF_wild_card,2022.2.4,Linux armv81,60.22645146,63bc864456067deb81092630,64d2fd46c836a06233681665,64dc7953be257441112eb128,,,,,,,ctch,resources/DB.BMP,resources/DG.BMP,Door3,-0.273462777,-0.044729585,1,0,0,0.7053,optionLeft,70,5805,3,25,0,25,0,1,,,,,
,,,,,,,,2023-08-16_08h23.15.496,HF_wild_card,2022.2.4,Linux armv81,60.22645146,63bc864456067deb81092630,64d2fd46c836a06233681665,64dc7953be257441112eb128,,,,,,,ctch,resources/DG.BMP,resources/DB.BMP,Door2,-0.291955615,-0.033633852,1,0,0,0.5574,optionLeft,20,5825,3,26,0,26,0,1,,,,,
,,,,,,,,2023-08-16_08h23.15.496,HF_wild_card,2022.2.4,Linux armv81,60.22645146,63bc864456067deb81092630,64d2fd46c836a06233681665,64dc7953be257441112eb128,,,,,,,decisionTrl,resources/DB.BMP,resources/DBN.BMP,Door3,-0.237401759,-0.036407767,1,0,0,0.4579,optionLeft,70,5895,3,27,0,27,0,1,,,,,
,,,,,,,,2023-08-16_08h23.15.496,HF_wild_card,2022.2.4,Linux armv81,60.22645146,63bc864456067deb81092630,64d2fd46c836a06233681665,64dc7953be257441112eb128,,,,,,,ctch,resources/DY.BMP,resources/DBN.BMP,Door1,-0.284558472,-0.041031032,1,0,0,0.5379,optionLeft,30,5925,3,28,0,28,0,1,,,,,
