Condition,Low fixed image (Door1),Low risky image (Door2),High fixed image (Door3),High risky image (Door4),NonExtreme Wild Card 1,NonExtreme Wild Card 2,,date,expName,psychopyVersion,OS,frameRate,PROLIFIC_PID,STUDY_ID,SESSION_ID,mouse_2.x,mouse_2.y,mouse_2.leftButton,mouse_2.midButton,mouse_2.rightButton,mouse_2.clicked_name,Trial Type,Left Option Image,Right Option Image,Chosen Door,mouse.x,mouse.y,mouse.leftButton,mouse.midButton,mouse.rightButton,mouse.time,mouse.clicked_name,Feedback,Cumulative Reward,Block,trial.thisRepN,trial.thisTrialN,trial.thisN,trial.thisIndex,trial.ran,blocks.thisRepN,blocks.thisTrialN,blocks.thisN,blocks.thisIndex,blocks.ran,Money conversion,First Outcome Reported,Shown Door (First Outcome),Displayed Image (First Outcome),outcomes.thisRepN,outcomes.thisTrialN,outcomes.thisN,outcomes.thisIndex,outcomes.ran,judgments.thisRepN,judgments.thisTrialN,judgments.thisN,judgments.thisIndex,judgments.ran,freqMouse.x,freqMouse.y,freqMouse.leftButton,freqMouse.midButton,freqMouse.rightButton,freqMouse.clicked_name,FQJ for first outcome,FQJ for second outcome,Shown Door,Displayed Image,trials.thisRepN,trials.thisTrialN,trials.thisN,trials.thisIndex,trials.ran,judgBlock.thisRepN,judgBlock.thisTrialN,judgBlock.thisN,judgBlock.thisIndex,judgBlock.ran
2,resources/DR.BMP,resources/DBN.BMP,resources/DG.BMP,resources/DB.BMP,resources/DP.BMP,resources/DY.BMP,,2023-08-16_08h47.46.151,HF_wild_card,2022.2.4,Win32,59.95922773,5c49e145e97243000194bace,64d2fd46c836a06233681665,64dc7ec64469f04705c86ce7,,,,,,,,,,,,,,,,,,,,,,,,,,,,,,,,,,,,,,,,,,,,,,,,,,,,,,,,,,,,,,,,
,,,,,,,,2023-08-16_08h47.46.151,HF_wild_card,2022.2.4,Win32,59.95922773,5c49e145e97243000194bace,64d2fd46c836a06233681665,64dc7ec64469f04705c86ce7,0.002777778,-0.425,1,0,0,agree,,,,,,,,,,,,,,,,,,,,,,,,,,,,,,,,,,,,,,,,,,,,,,,,,,,,,,,,,,
,,,,,,,,2023-08-16_08h47.46.151,HF_wild_card,2022.2.4,Win32,59.95922773,5c49e145e97243000194bace,64d2fd46c836a06233681665,64dc7ec64469f04705c86ce7,,,,,,,,,,,,,,,,,,,,,,,,,,,,,,,,,,,,,,,,,,,,,,,,,,,,,,,,,,,,,,,,
,,,,,,,,2023-08-16_08h47.46.151,HF_wild_card,2022.2.4,Win32,59.95922773,5c49e145e97243000194bace,64d2fd46c836a06233681665,64dc7ec64469f04705c86ce7,,,,,,,decisionTrl,resources/DBN.BMP,resources/DY.BMP,Door2,-0.292592593,-0.15462963,1,0,0,1.535,optionLeft,20,20,1,0,0,0,0,1,,,,,,,,,,,,,,,,,,,,,,,,,,,,,,,,,,,,,,,
,,,,,,,,2023-08-16_08h47.46.151,HF_wild_card,2022.2.4,Win32,59.95922773,5c49e145e97243000194bace,64d2fd46c836a06233681665,64dc7ec64469f04705c86ce7,,,,,,,ctch,resources/DB.BMP,resources/DR.BMP,Door1,0.284259259,-0.132407407,1,0,0,0.7962,optionRight,30,50,1,1,0,1,0,1,,,,,,,,,,,,,,,,,,,,,,,,,,,,,,,,,,,,,,,
,,,,,,,,2023-08-16_08h47.46.151,HF_wild_card,2022.2.4,Win32,59.95922773,5c49e145e97243000194bace,64d2fd46c836a06233681665,64dc7ec64469f04705c86ce7,,,,,,,decisionTrl,resources/DG.BMP,resources/DY.BMP,Door3,-0.321296296,-0.084259259,1,0,0,0.6987,optionLeft,70,120,1,2,0,2,0,1,,,,,,,,,,,,,,,,,,,,,,,,,,,,,,,,,,,,,,,
,,,,,,,,2023-08-16_08h47.46.151,HF_wild_card,2022.2.4,Win32,59.95922773,5c49e145e97243000194bace,64d2fd46c836a06233681665,64dc7ec64469f04705c86ce7,,,,,,,decisionTrl,resources/DY.BMP,resources/DBN.BMP,WildCard_NonEx,-0.462962963,-0.04537037,1,0,0,1.3992,optionLeft,55,175,1,3,0,3,0,1,,,,,,,,,,,,,,,,,,,,,,,,,,,,,,,,,,,,,,,
,,,,,,,,2023-08-16_08h47.46.151,HF_wild_card,2022.2.4,Win32,59.95922773,5c49e145e97243000194bace,64d2fd46c836a06233681665,64dc7ec64469f04705c86ce7,,,,,,,decisionTrl,resources/DG.BMP,resources/DB.BMP,Door4,0.45462963,-0.006481481,1,0,0,1.0983,optionRight,60,235,1,4,0,4,0,1,,,,,,,,,,,,,,,,,,,,,,,,,,,,,,,,,,,,,,,
,,,,,,,,2023-08-16_08h47.46.151,HF_wild_card,2022.2.4,Win32,59.95922773,5c49e145e97243000194bace,64d2fd46c836a06233681665,64dc7ec64469f04705c86ce7,,,,,,,decisionTrl,resources/DB.BMP,resources/DY.BMP,Door4,-0.298148148,0.000925926,1,0,0,0.6759,optionLeft,60,295,1,5,0,5,0,1,,,,,,,,,,,,,,,,,,,,,,,,,,,,,,,,,,,,,,,
,,,,,,,,2023-08-16_08h47.46.151,HF_wild_card,2022.2.4,Win32,59.95922773,5c49e145e97243000194bace,64d2fd46c836a06233681665,64dc7ec64469f04705c86ce7,,,,,,,sngl,resources/DR.BMP,resources/Empty.png,Door1,-0.396296296,-0.05462963,1,0,0,0.9651,optionLeft,30,325,1,6,0,6,0,1,,,,,,,,,,,,,,,,,,,,,,,,,,,,,,,,,,,,,,,
,,,,,,,,2023-08-16_08h47.46.151,HF_wild_card,2022.2.4,Win32,59.95922773,5c49e145e97243000194bace,64d2fd46c836a06233681665,64dc7ec64469f04705c86ce7,,,,,,,sngl,resources/Empty.png,resources/DY.BMP,WildCard_NonEx,0.366666667,-0.002777778,1,0,0,0.6663,optionRight,45,370,1,7,0,7,0,1,,,,,,,,,,,,,,,,,,,,,,,,,,,,,,,,,,,,,,,
,,,,,,,,2023-08-16_08h47.46.151,HF_wild_card,2022.2.4,Win32,59.95922773,5c49e145e97243000194bace,64d2fd46c836a06233681665,64dc7ec64469f04705c86ce7,,,,,,,ctch,resources/DBN.BMP,resources/DG.BMP,Door3,0.45462963,-0.017592593,1,0,0,1.7984,optionRight,70,440,1,8,0,8,0,1,,,,,,,,,,,,,,,,,,,,,,,,,,,,,,,,,,,,,,,
,,,,,,,,2023-08-16_08h47.46.151,HF_wild_card,2022.2.4,Win32,59.95922773,5c49e145e97243000194bace,64d2fd46c836a06233681665,64dc7ec64469f04705c86ce7,,,,,,,sngl,resources/DY.BMP,resources/Empty.png,WildCard_NonEx,-0.530555556,-0.089814815,1,0,0,0.8011,optionLeft,45,485,1,9,0,9,0,1,,,,,,,,,,,,,,,,,,,,,,,,,,,,,,,,,,,,,,,
,,,,,,,,2023-08-16_08h47.46.151,HF_wild_card,2022.2.4,Win32,59.95922773,5c49e145e97243000194bace,64d2fd46c836a06233681665,64dc7ec64469f04705c86ce7,,,,,,,decisionTrl,resources/DR.BMP,resources/DY.BMP,WildCard_NonEx,0.464814815,-0.049074074,1,0,0,1.0933,optionRight,55,540,1,10,0,10,0,1,,,,,,,,,,,,,,,,,,,,,,,,,,,,,,,,,,,,,,,
,,,,,,,,2023-08-16_08h47.46.151,HF_wild_card,2022.2.4,Win32,59.95922773,5c49e145e97243000194bace,64d2fd46c836a06233681665,64dc7ec64469f04705c86ce7,,,,,,,decisionTrl,resources/DY.BMP,resources/DB.BMP,WildCard_NonEx,-0.425,-0.124074074,1,0,0,0.9153,optionLeft,55,595,1,11,0,11,0,1,,,,,,,,,,,,,,,,,,,,,,,,,,,,,,,,,,,,,,,
,,,,,,,,2023-08-16_08h47.46.151,HF_wild_card,2022.2.4,Win32,59.95922773,5c49e145e97243000194bace,64d2fd46c836a06233681665,64dc7ec64469f04705c86ce7,,,,,,,ctch,resources/DR.BMP,resources/DB.BMP,Door4,0.276851852,-0.050925926,1,0,0,1.2636,optionRight,80,675,1,12,0,12,0,1,,,,,,,,,,,,,,,,,,,,,,,,,,,,,,,,,,,,,,,
,,,,,,,,2023-08-16_08h47.46.151,HF_wild_card,2022.2.4,Win32,59.95922773,5c49e145e97243000194bace,64d2fd46c836a06233681665,64dc7ec64469f04705c86ce7,,,,,,,decisionTrl,resources/DY.BMP,resources/DR.BMP,WildCard_NonEx,-0.29537037,-0.052777778,1,0,0,0.7478,optionLeft,45,720,1,13,0,13,0,1,,,,,,,,,,,,,,,,,,,,,,,,,,,,,,,,,,,,,,,
,,,,,,,,2023-08-16_08h47.46.151,HF_wild_card,2022.2.4,Win32,59.95922773,5c49e145e97243000194bace,64d2fd46c836a06233681665,64dc7ec64469f04705c86ce7,,,,,,,sngl,resources/Empty.png,resources/DY.BMP,WildCard_NonEx,0.301851852,-0.05,1,0,0,0.6099,optionRight,55,775,1,14,0,14,0,1,,,,,,,,,,,,,,,,,,,,,,,,,,,,,,,,,,,,,,,
,,,,,,,,2023-08-16_08h47.46.151,HF_wild_card,2022.2.4,Win32,59.95922773,5c49e145e97243000194bace,64d2fd46c836a06233681665,64dc7ec64469f04705c86ce7,,,,,,,sngl,resources/Empty.png,resources/DR.BMP,Door1,0.468518519,-0.053703704,1,0,0,0.5347,optionRight,30,805,1,15,0,15,0,1,,,,,,,,,,,,,,,,,,,,,,,,,,,,,,,,,,,,,,,
,,,,,,,,2023-08-16_08h47.46.151,HF_wild_card,2022.2.4,Win32,59.95922773,5c49e145e97243000194bace,64d2fd46c836a06233681665,64dc7ec64469f04705c86ce7,,,,,,,ctch,resources/DG.BMP,resources/DBN.BMP,Door3,-0.24537037,-0.012037037,1,0,0,0.5444,optionLeft,70,875,1,16,0,16,0,1,,,,,,,,,,,,,,,,,,,,,,,,,,,,,,,,,,,,,,,
,,,,,,,,2023-08-16_08h47.46.151,HF_wild_card,2022.2.4,Win32,59.95922773,5c49e145e97243000194bace,64d2fd46c836a06233681665,64dc7ec64469f04705c86ce7,,,,,,,decisionTrl,resources/DBN.BMP,resources/DR.BMP,Door1,0.467592593,-0.017592593,1,0,0,0.9642,optionRight,30,905,1,17,0,17,0,1,,,,,,,,,,,,,,,,,,,,,,,,,,,,,,,,,,,,,,,
,,,,,,,,2023-08-16_08h47.46.151,HF_wild_card,2022.2.4,Win32,59.95922773,5c49e145e97243000194bace,64d2fd46c836a06233681665,64dc7ec64469f04705c86ce7,,,,,,,decisionTrl,resources/DB.BMP,resources/DG.BMP,Door4,-0.325,-0.038888889,1,0,0,0.8319,optionLeft,60,965,1,18,0,18,0,1,,,,,,,,,,,,,,,,,,,,,,,,,,,,,,,,,,,,,,,
,,,,,,,,2023-08-16_08h47.46.151,HF_wild_card,2022.2.4,Win32,59.95922773,5c49e145e97243000194bace,64d2fd46c836a06233681665,64dc7ec64469f04705c86ce7,,,,,,,sngl,resources/DY.BMP,resources/Empty.png,WildCard_NonEx,-0.285185185,-0.036111111,1,0,0,0.6459,optionLeft,55,1020,1,19,0,19,0,1,,,,,,,,,,,,,,,,,,,,,,,,,,,,,,,,,,,,,,,
,,,,,,,,2023-08-16_08h47.46.151,HF_wild_card,2022.2.4,Win32,59.95922773,5c49e145e97243000194bace,64d2fd46c836a06233681665,64dc7ec64469f04705c86ce7,,,,,,,decisionTrl,resources/DY.BMP,resources/DG.BMP,WildCard_NonEx,-0.292592593,-0.041666667,1,0,0,0.6645,optionLeft,55,1075,1,20,0,20,0,1,,,,,,,,,,,,,,,,,,,,,,,,,,,,,,,,,,,,,,,
,,,,,,,,2023-08-16_08h47.46.151,HF_wild_card,2022.2.4,Win32,59.95922773,5c49e145e97243000194bace,64d2fd46c836a06233681665,64dc7ec64469f04705c86ce7,,,,,,,decisionTrl,resources/DG.BMP,resources/DB.BMP,Door4,0.466666667,-0.000925926,1,0,0,0.8978,optionRight,60,1135,1,21,0,21,0,1,,,,,,,,,,,,,,,,,,,,,,,,,,,,,,,,,,,,,,,
,,,,,,,,2023-08-16_08h47.46.151,HF_wild_card,2022.2.4,Win32,59.95922773,5c49e145e97243000194bace,64d2fd46c836a06233681665,64dc7ec64469f04705c86ce7,,,,,,,sngl,resources/Empty.png,resources/DBN.BMP,Door2,0.435185185,-0.005555556,1,0,0,0.6483,optionRight,20,1155,1,22,0,22,0,1,,,,,,,,,,,,,,,,,,,,,,,,,,,,,,,,,,,,,,,
,,,,,,,,2023-08-16_08h47.46.151,HF_wild_card,2022.2.4,Win32,59.95922773,5c49e145e97243000194bace,64d2fd46c836a06233681665,64dc7ec64469f04705c86ce7,,,,,,,decisionTrl,resources/DG.BMP,resources/DB.BMP,Door4,0.494444444,0,1,0,0,0.7337,optionRight,80,1235,1,23,0,23,0,1,,,,,,,,,,,,,,,,,,,,,,,,,,,,,,,,,,,,,,,
,,,,,,,,2023-08-16_08h47.46.151,HF_wild_card,2022.2.4,Win32,59.95922773,5c49e145e97243000194bace,64d2fd46c836a06233681665,64dc7ec64469f04705c86ce7,,,,,,,decisionTrl,resources/DB.BMP,resources/DG.BMP,Door4,-0.294444444,-0.044444444,1,0,0,1.0317,optionLeft,60,1295,1,24,0,24,0,1,,,,,,,,,,,,,,,,,,,,,,,,,,,,,,,,,,,,,,,
,,,,,,,,2023-08-16_08h47.46.151,HF_wild_card,2022.2.4,Win32,59.95922773,5c49e145e97243000194bace,64d2fd46c836a06233681665,64dc7ec64469f04705c86ce7,,,,,,,decisionTrl,resources/DG.BMP,resources/DB.BMP,Door4,0.356481481,-0.00462963,1,0,0,0.5786,optionRight,60,1355,1,25,0,25,0,1,,,,,,,,,,,,,,,,,,,,,,,,,,,,,,,,,,,,,,,
,,,,,,,,2023-08-16_08h47.46.151,HF_wild_card,2022.2.4,Win32,59.95922773,5c49e145e97243000194bace,64d2fd46c836a06233681665,64dc7ec64469f04705c86ce7,,,,,,,ctch,resources/DR.BMP,resources/DB.BMP,Door1,-0.342592593,-0.036111111,1,0,0,0.8998,optionLeft,30,1385,1,26,0,26,0,1,,,,,,,,,,,,,,,,,,,,,,,,,,,,,,,,,,,,,,,
,,,,,,,,2023-08-16_08h47.46.151,HF_wild_card,2022.2.4,Win32,59.95922773,5c49e145e97243000194bace,64d2fd46c836a06233681665,64dc7ec64469f04705c86ce7,,,,,,,decisionTrl,resources/DB.BMP,resources/DG.BMP,Door4,-0.382407407,-0.046296296,1,0,0,0.6269,optionLeft,60,1445,1,27,0,27,0,1,,,,,,,,,,,,,,,,,,,,,,,,,,,,,,,,,,,,,,,
,,,,,,,,2023-08-16_08h47.46.151,HF_wild_card,2022.2.4,Win32,59.95922773,5c49e145e97243000194bace,64d2fd46c836a06233681665,64dc7ec64469f04705c86ce7,,,,,,,sngl,resources/Empty.png,resources/DB.BMP,Door4,0.45462963,0.00462963,1,0,0,0.7981,optionRight,60,1505,1,28,0,28,0,1,,,,,,,,,,,,,,,,,,,,,,,,,,,,,,,,,,,,,,,
,,,,,,,,2023-08-16_08h47.46.151,HF_wild_card,2022.2.4,Win32,59.95922773,5c49e145e97243000194bace,64d2fd46c836a06233681665,64dc7ec64469f04705c86ce7,,,,,,,decisionTrl,resources/DBN.BMP,resources/DR.BMP,Door1,0.37962963,-0.092592593,1,0,0,0.7445,optionRight,30,1535,1,29,0,29,0,1,,,,,,,,,,,,,,,,,,,,,,,,,,,,,,,,,,,,,,,
,,,,,,,,2023-08-16_08h47.46.151,HF_wild_card,2022.2.4,Win32,59.95922773,5c49e145e97243000194bace,64d2fd46c836a06233681665,64dc7ec64469f04705c86ce7,,,,,,,sngl,resources/DG.BMP,resources/Empty.png,Door3,-0.309259259,0.009259259,1,0,0,0.5272,optionLeft,70,1605,1,30,0,30,0,1,,,,,,,,,,,,,,,,,,,,,,,,,,,,,,,,,,,,,,,
,,,,,,,,2023-08-16_08h47.46.151,HF_wild_card,2022.2.4,Win32,59.95922773,5c49e145e97243000194bace,64d2fd46c836a06233681665,64dc7ec64469f04705c86ce7,,,,,,,sngl,resources/DBN.BMP,resources/Empty.png,Door2,-0.257407407,-0.010185185,1,0,0,0.5782,optionLeft,40,1645,1,31,0,31,0,1,,,,,,,,,,,,,,,,,,,,,,,,,,,,,,,,,,,,,,,
,,,,,,,,2023-08-16_08h47.46.151,HF_wild_card,2022.2.4,Win32,59.95922773,5c49e145e97243000194bace,64d2fd46c836a06233681665,64dc7ec64469f04705c86ce7,,,,,,,decisionTrl,resources/DBN.BMP,resources/DR.BMP,Door1,0.416666667,0.007407407,1,0,0,0.7321,optionRight,30,1675,1,32,0,32,0,1,,,,,,,,,,,,,,,,,,,,,,,,,,,,,,,,,,,,,,,
,,,,,,,,2023-08-16_08h47.46.151,HF_wild_card,2022.2.4,Win32,59.95922773,5c49e145e97243000194bace,64d2fd46c836a06233681665,64dc7ec64469f04705c86ce7,,,,,,,ctch,resources/DG.BMP,resources/DBN.BMP,Door3,-0.415740741,0.014814815,1,0,0,0.865,optionLeft,70,1745,1,33,0,33,0,1,,,,,,,,,,,,,,,,,,,,,,,,,,,,,,,,,,,,,,,
,,,,,,,,2023-08-16_08h47.46.151,HF_wild_card,2022.2.4,Win32,59.95922773,5c49e145e97243000194bace,64d2fd46c836a06233681665,64dc7ec64469f04705c86ce7,,,,,,,ctch,resources/DB.BMP,resources/DR.BMP,Door4,-0.317592593,-0.035185185,1,0,0,0.5603,optionLeft,60,1805,1,34,0,34,0,1,,,,,,,,,,,,,,,,,,,,,,,,,,,,,,,,,,,,,,,
,,,,,,,,2023-08-16_08h47.46.151,HF_wild_card,2022.2.4,Win32,59.95922773,5c49e145e97243000194bace,64d2fd46c836a06233681665,64dc7ec64469f04705c86ce7,,,,,,,decisionTrl,resources/DR.BMP,resources/DBN.BMP,Door1,-0.347222222,-0.030555556,1,0,0,0.5147,optionLeft,30,1835,1,35,0,35,0,1,,,,,,,,,,,,,,,,,,,,,,,,,,,,,,,,,,,,,,,
,,,,,,,,2023-08-16_08h47.46.151,HF_wild_card,2022.2.4,Win32,59.95922773,5c49e145e97243000194bace,64d2fd46c836a06233681665,64dc7ec64469f04705c86ce7,,,,,,,decisionTrl,resources/DB.BMP,resources/DG.BMP,Door4,-0.330555556,-0.006481481,1,0,0,0.4626,optionLeft,60,1895,1,36,0,36,0,1,,,,,,,,,,,,,,,,,,,,,,,,,,,,,,,,,,,,,,,
,,,,,,,,2023-08-16_08h47.46.151,HF_wild_card,2022.2.4,Win32,59.95922773,5c49e145e97243000194bace,64d2fd46c836a06233681665,64dc7ec64469f04705c86ce7,,,,,,,decisionTrl,resources/DR.BMP,resources/DBN.BMP,Door1,-0.198148148,-0.017592593,1,0,0,0.4848,optionLeft,30,1925,1,37,0,37,0,1,,,,,,,,,,,,,,,,,,,,,,,,,,,,,,,,,,,,,,,
,,,,,,,,2023-08-16_08h47.46.151,HF_wild_card,2022.2.4,Win32,59.95922773,5c49e145e97243000194bace,64d2fd46c836a06233681665,64dc7ec64469f04705c86ce7,,,,,,,decisionTrl,resources/DR.BMP,resources/DBN.BMP,Door1,-0.332407407,-0.032407407,1,0,0,0.9091,optionLeft,30,1955,1,38,0,38,0,1,,,,,,,,,,,,,,,,,,,,,,,,,,,,,,,,,,,,,,,
,,,,,,,,2023-08-16_08h47.46.151,HF_wild_card,2022.2.4,Win32,59.95922773,5c49e145e97243000194bace,64d2fd46c836a06233681665,64dc7ec64469f04705c86ce7,,,,,,,decisionTrl,resources/DR.BMP,resources/DBN.BMP,Door1,-0.291666667,-0.07037037,1,0,0,0.5818,optionLeft,30,1985,1,39,0,39,0,1,,,,,,,,,,,,,,,,,,,,,,,,,,,,,,,,,,,,,,,
,,,,,,,,2023-08-16_08h47.46.151,HF_wild_card,2022.2.4,Win32,59.95922773,5c49e145e97243000194bace,64d2fd46c836a06233681665,64dc7ec64469f04705c86ce7,,,,,,,sngl,resources/DB.BMP,resources/Empty.png,Door4,-0.401851852,-0.007407407,1,0,0,0.4896,optionLeft,80,2065,1,40,0,40,0,1,,,,,,,,,,,,,,,,,,,,,,,,,,,,,,,,,,,,,,,
,,,,,,,,2023-08-16_08h47.46.151,HF_wild_card,2022.2.4,Win32,59.95922773,5c49e145e97243000194bace,64d2fd46c836a06233681665,64dc7ec64469f04705c86ce7,,,,,,,ctch,resources/DBN.BMP,resources/DG.BMP,Door2,-0.260185185,-0.049074074,1,0,0,0.5311,optionLeft,20,2085,1,41,0,41,0,1,,,,,,,,,,,,,,,,,,,,,,,,,,,,,,,,,,,,,,,
,,,,,,,,2023-08-16_08h47.46.151,HF_wild_card,2022.2.4,Win32,59.95922773,5c49e145e97243000194bace,64d2fd46c836a06233681665,64dc7ec64469f04705c86ce7,,,,,,,sngl,resources/Empty.png,resources/DG.BMP,Door3,0.222222222,-0.025925926,1,0,0,0.5012,optionRight,70,2155,1,42,0,42,0,1,,,,,,,,,,,,,,,,,,,,,,,,,,,,,,,,,,,,,,,
,,,,,,,,2023-08-16_08h47.46.151,HF_wild_card,2022.2.4,Win32,59.95922773,5c49e145e97243000194bace,64d2fd46c836a06233681665,64dc7ec64469f04705c86ce7,,,,,,,decisionTrl,resources/DBN.BMP,resources/DR.BMP,Door1,0.437037037,-0.073148148,1,0,0,0.8463,optionRight,30,2185,1,43,0,43,0,1,,,,,,,,,,,,,,,,,,,,,,,,,,,,,,,,,,,,,,,
,,,,,,,,2023-08-16_08h47.46.151,HF_wild_card,2022.2.4,Win32,59.95922773,5c49e145e97243000194bace,64d2fd46c836a06233681665,64dc7ec64469f04705c86ce7,,,,,,,,,,,,,,,,,,,,,,,,,,0,0,0,0,1,,,,,,,,,,,,,,,,,,,,,,,,,,,,,,,,,,
,,,,,,,,2023-08-16_08h47.46.151,HF_wild_card,2022.2.4,Win32,59.95922773,5c49e145e97243000194bace,64d2fd46c836a06233681665,64dc7ec64469f04705c86ce7,,,,,,,decisionTrl,resources/DR.BMP,resources/DBN.BMP,Door1,-0.373148148,-0.10462963,1,0,0,0.6808,optionLeft,30,2215,2,0,0,0,0,1,,,,,,,,,,,,,,,,,,,,,,,,,,,,,,,,,,,,,,,
,,,,,,,,2023-08-16_08h47.46.151,HF_wild_card,2022.2.4,Win32,59.95922773,5c49e145e97243000194bace,64d2fd46c836a06233681665,64dc7ec64469f04705c86ce7,,,,,,,decisionTrl,resources/DY.BMP,resources/DR.BMP,Door1,0.487962963,-0.037037037,1,0,0,0.9287,optionRight,30,2245,2,1,0,1,0,1,,,,,,,,,,,,,,,,,,,,,,,,,,,,,,,,,,,,,,,
,,,,,,,,2023-08-16_08h47.46.151,HF_wild_card,2022.2.4,Win32,59.95922773,5c49e145e97243000194bace,64d2fd46c836a06233681665,64dc7ec64469f04705c86ce7,,,,,,,sngl,resources/DY.BMP,resources/Empty.png,WildCard_NonEx,-0.348148148,-0.027777778,1,0,0,0.4628,optionLeft,45,2290,2,2,0,2,0,1,,,,,,,,,,,,,,,,,,,,,,,,,,,,,,,,,,,,,,,
,,,,,,,,2023-08-16_08h47.46.151,HF_wild_card,2022.2.4,Win32,59.95922773,5c49e145e97243000194bace,64d2fd46c836a06233681665,64dc7ec64469f04705c86ce7,,,,,,,sngl,resources/Empty.png,resources/DG.BMP,Door3,0.330555556,0.032407407,1,0,0,0.5793,optionRight,70,2360,2,3,0,3,0,1,,,,,,,,,,,,,,,,,,,,,,,,,,,,,,,,,,,,,,,
,,,,,,,,2023-08-16_08h47.46.151,HF_wild_card,2022.2.4,Win32,59.95922773,5c49e145e97243000194bace,64d2fd46c836a06233681665,64dc7ec64469f04705c86ce7,,,,,,,decisionTrl,resources/DG.BMP,resources/DB.BMP,Door3,-0.328703704,-0.012037037,1,0,0,0.4965,optionLeft,70,2430,2,4,0,4,0,1,,,,,,,,,,,,,,,,,,,,,,,,,,,,,,,,,,,,,,,
,,,,,,,,2023-08-16_08h47.46.151,HF_wild_card,2022.2.4,Win32,59.95922773,5c49e145e97243000194bace,64d2fd46c836a06233681665,64dc7ec64469f04705c86ce7,,,,,,,decisionTrl,resources/DR.BMP,resources/DY.BMP,WildCard_NonEx,0.337962963,-0.021296296,1,0,0,0.5956,optionRight,55,2485,2,5,0,5,0,1,,,,,,,,,,,,,,,,,,,,,,,,,,,,,,,,,,,,,,,
,,,,,,,,2023-08-16_08h47.46.151,HF_wild_card,2022.2.4,Win32,59.95922773,5c49e145e97243000194bace,64d2fd46c836a06233681665,64dc7ec64469f04705c86ce7,,,,,,,sngl,resources/Empty.png,resources/DR.BMP,Door1,0.218518519,-0.025925926,1,0,0,0.5953,optionRight,30,2515,2,6,0,6,0,1,,,,,,,,,,,,,,,,,,,,,,,,,,,,,,,,,,,,,,,
,,,,,,,,2023-08-16_08h47.46.151,HF_wild_card,2022.2.4,Win32,59.95922773,5c49e145e97243000194bace,64d2fd46c836a06233681665,64dc7ec64469f04705c86ce7,,,,,,,decisionTrl,resources/DB.BMP,resources/DY.BMP,WildCard_NonEx,0.466666667,-0.062037037,1,0,0,0.7632,optionRight,45,2560,2,7,0,7,0,1,,,,,,,,,,,,,,,,,,,,,,,,,,,,,,,,,,,,,,,
,,,,,,,,2023-08-16_08h47.46.151,HF_wild_card,2022.2.4,Win32,59.95922773,5c49e145e97243000194bace,64d2fd46c836a06233681665,64dc7ec64469f04705c86ce7,,,,,,,decisionTrl,resources/DY.BMP,resources/DG.BMP,Door3,0.311111111,-0.012037037,1,0,0,0.6796,optionRight,70,2630,2,8,0,8,0,1,,,,,,,,,,,,,,,,,,,,,,,,,,,,,,,,,,,,,,,
,,,,,,,,2023-08-16_08h47.46.151,HF_wild_card,2022.2.4,Win32,59.95922773,5c49e145e97243000194bace,64d2fd46c836a06233681665,64dc7ec64469f04705c86ce7,,,,,,,decisionTrl,resources/DBN.BMP,resources/DR.BMP,Door1,0.57037037,-0.036111111,1,0,0,1.1458,optionRight,30,2660,2,9,0,9,0,1,,,,,,,,,,,,,,,,,,,,,,,,,,,,,,,,,,,,,,,
,,,,,,,,2023-08-16_08h47.46.151,HF_wild_card,2022.2.4,Win32,59.95922773,5c49e145e97243000194bace,64d2fd46c836a06233681665,64dc7ec64469f04705c86ce7,,,,,,,ctch,resources/DB.BMP,resources/DR.BMP,Door4,-0.372222222,-0.105555556,1,0,0,0.663,optionLeft,60,2720,2,10,0,10,0,1,,,,,,,,,,,,,,,,,,,,,,,,,,,,,,,,,,,,,,,
,,,,,,,,2023-08-16_08h47.46.151,HF_wild_card,2022.2.4,Win32,59.95922773,5c49e145e97243000194bace,64d2fd46c836a06233681665,64dc7ec64469f04705c86ce7,,,,,,,sngl,resources/DY.BMP,resources/Empty.png,WildCard_NonEx,-0.293518519,-0.04537037,1,0,0,0.4964,optionLeft,55,2775,2,11,0,11,0,1,,,,,,,,,,,,,,,,,,,,,,,,,,,,,,,,,,,,,,,
,,,,,,,,2023-08-16_08h47.46.151,HF_wild_card,2022.2.4,Win32,59.95922773,5c49e145e97243000194bace,64d2fd46c836a06233681665,64dc7ec64469f04705c86ce7,,,,,,,decisionTrl,resources/DBN.BMP,resources/DY.BMP,WildCard_NonEx,0.45462963,0.027777778,1,0,0,0.5798,optionRight,55,2830,2,12,0,12,0,1,,,,,,,,,,,,,,,,,,,,,,,,,,,,,,,,,,,,,,,
,,,,,,,,2023-08-16_08h47.46.151,HF_wild_card,2022.2.4,Win32,59.95922773,5c49e145e97243000194bace,64d2fd46c836a06233681665,64dc7ec64469f04705c86ce7,,,,,,,decisionTrl,resources/DY.BMP,resources/DBN.BMP,WildCard_NonEx,-0.213888889,-0.056481481,1,0,0,0.4624,optionLeft,45,2875,2,13,0,13,0,1,,,,,,,,,,,,,,,,,,,,,,,,,,,,,,,,,,,,,,,
,,,,,,,,2023-08-16_08h47.46.151,HF_wild_card,2022.2.4,Win32,59.95922773,5c49e145e97243000194bace,64d2fd46c836a06233681665,64dc7ec64469f04705c86ce7,,,,,,,decisionTrl,resources/DR.BMP,resources/DBN.BMP,Door1,-0.337037037,-0.07037037,1,0,0,0.4793,optionLeft,30,2905,2,14,0,14,0,1,,,,,,,,,,,,,,,,,,,,,,,,,,,,,,,,,,,,,,,
,,,,,,,,2023-08-16_08h47.46.151,HF_wild_card,2022.2.4,Win32,59.95922773,5c49e145e97243000194bace,64d2fd46c836a06233681665,64dc7ec64469f04705c86ce7,,,,,,,sngl,resources/Empty.png,resources/DB.BMP,Door4,0.369444444,0.062037037,1,0,0,0.6974,optionRight,80,2985,2,15,0,15,0,1,,,,,,,,,,,,,,,,,,,,,,,,,,,,,,,,,,,,,,,
,,,,,,,,2023-08-16_08h47.46.151,HF_wild_card,2022.2.4,Win32,59.95922773,5c49e145e97243000194bace,64d2fd46c836a06233681665,64dc7ec64469f04705c86ce7,,,,,,,decisionTrl,resources/DBN.BMP,resources/DR.BMP,Door1,0.371296296,0.006481481,1,0,0,0.5856,optionRight,30,3015,2,16,0,16,0,1,,,,,,,,,,,,,,,,,,,,,,,,,,,,,,,,,,,,,,,
,,,,,,,,2023-08-16_08h47.46.151,HF_wild_card,2022.2.4,Win32,59.95922773,5c49e145e97243000194bace,64d2fd46c836a06233681665,64dc7ec64469f04705c86ce7,,,,,,,decisionTrl,resources/DY.BMP,resources/DB.BMP,WildCard_NonEx,-0.185185185,-0.021296296,1,0,0,0.5295,optionLeft,45,3060,2,17,0,17,0,1,,,,,,,,,,,,,,,,,,,,,,,,,,,,,,,,,,,,,,,
,,,,,,,,2023-08-16_08h47.46.151,HF_wild_card,2022.2.4,Win32,59.95922773,5c49e145e97243000194bace,64d2fd46c836a06233681665,64dc7ec64469f04705c86ce7,,,,,,,decisionTrl,resources/DB.BMP,resources/DG.BMP,Door3,0.340740741,-0.013888889,1,0,0,0.4963,optionRight,70,3130,2,18,0,18,0,1,,,,,,,,,,,,,,,,,,,,,,,,,,,,,,,,,,,,,,,
,,,,,,,,2023-08-16_08h47.46.151,HF_wild_card,2022.2.4,Win32,59.95922773,5c49e145e97243000194bace,64d2fd46c836a06233681665,64dc7ec64469f04705c86ce7,,,,,,,sngl,resources/DBN.BMP,resources/Empty.png,Door2,-0.181481481,-0.032407407,1,0,0,0.5465,optionLeft,20,3150,2,19,0,19,0,1,,,,,,,,,,,,,,,,,,,,,,,,,,,,,,,,,,,,,,,
,,,,,,,,2023-08-16_08h47.46.151,HF_wild_card,2022.2.4,Win32,59.95922773,5c49e145e97243000194bace,64d2fd46c836a06233681665,64dc7ec64469f04705c86ce7,,,,,,,sngl,resources/Empty.png,resources/DBN.BMP,Door2,0.260185185,-0.018518519,1,0,0,0.5795,optionRight,40,3190,2,20,0,20,0,1,,,,,,,,,,,,,,,,,,,,,,,,,,,,,,,,,,,,,,,
,,,,,,,,2023-08-16_08h47.46.151,HF_wild_card,2022.2.4,Win32,59.95922773,5c49e145e97243000194bace,64d2fd46c836a06233681665,64dc7ec64469f04705c86ce7,,,,,,,ctch,resources/DBN.BMP,resources/DG.BMP,Door3,0.333333333,0.037962963,1,0,0,0.5797,optionRight,70,3260,2,21,0,21,0,1,,,,,,,,,,,,,,,,,,,,,,,,,,,,,,,,,,,,,,,
,,,,,,,,2023-08-16_08h47.46.151,HF_wild_card,2022.2.4,Win32,59.95922773,5c49e145e97243000194bace,64d2fd46c836a06233681665,64dc7ec64469f04705c86ce7,,,,,,,decisionTrl,resources/DB.BMP,resources/DG.BMP,Door3,0.231481481,0.012037037,1,0,0,0.4628,optionRight,70,3330,2,22,0,22,0,1,,,,,,,,,,,,,,,,,,,,,,,,,,,,,,,,,,,,,,,
,,,,,,,,2023-08-16_08h47.46.151,HF_wild_card,2022.2.4,Win32,59.95922773,5c49e145e97243000194bace,64d2fd46c836a06233681665,64dc7ec64469f04705c86ce7,,,,,,,decisionTrl,resources/DG.BMP,resources/DB.BMP,Door3,-0.257407407,-0.049074074,1,0,0,0.5458,optionLeft,70,3400,2,23,0,23,0,1,,,,,,,,,,,,,,,,,,,,,,,,,,,,,,,,,,,,,,,
,,,,,,,,2023-08-16_08h47.46.151,HF_wild_card,2022.2.4,Win32,59.95922773,5c49e145e97243000194bace,64d2fd46c836a06233681665,64dc7ec64469f04705c86ce7,,,,,,,sngl,resources/DG.BMP,resources/Empty.png,Door3,-0.256481481,-0.027777778,1,0,0,0.4461,optionLeft,70,3470,2,24,0,24,0,1,,,,,,,,,,,,,,,,,,,,,,,,,,,,,,,,,,,,,,,
,,,,,,,,2023-08-16_08h47.46.151,HF_wild_card,2022.2.4,Win32,59.95922773,5c49e145e97243000194bace,64d2fd46c836a06233681665,64dc7ec64469f04705c86ce7,,,,,,,ctch,resources/DG.BMP,resources/DBN.BMP,Door3,-0.237962963,-0.055555556,1,0,0,0.4293,optionLeft,70,3540,2,25,0,25,0,1,,,,,,,,,,,,,,,,,,,,,,,,,,,,,,,,,,,,,,,
,,,,,,,,2023-08-16_08h47.46.151,HF_wild_card,2022.2.4,Win32,59.95922773,5c49e145e97243000194bace,64d2fd46c836a06233681665,64dc7ec64469f04705c86ce7,,,,,,,sngl,resources/DR.BMP,resources/Empty.png,Door1,-0.275,-0.049074074,1,0,0,0.3795,optionLeft,30,3570,2,26,0,26,0,1,,,,,,,,,,,,,,,,,,,,,,,,,,,,,,,,,,,,,,,
,,,,,,,,2023-08-16_08h47.46.151,HF_wild_card,2022.2.4,Win32,59.95922773,5c49e145e97243000194bace,64d2fd46c836a06233681665,64dc7ec64469f04705c86ce7,,,,,,,decisionTrl,resources/DBN.BMP,resources/DR.BMP,Door1,0.403703704,-0.07962963,1,0,0,0.6131,optionRight,30,3600,2,27,0,27,0,1,,,,,,,,,,,,,,,,,,,,,,,,,,,,,,,,,,,,,,,
,,,,,,,,2023-08-16_08h47.46.151,HF_wild_card,2022.2.4,Win32,59.95922773,5c49e145e97243000194bace,64d2fd46c836a06233681665,64dc7ec64469f04705c86ce7,,,,,,,decisionTrl,resources/DR.BMP,resources/DBN.BMP,Door1,-0.378703704,-0.065740741,1,0,0,0.6944,optionLeft,30,3630,2,28,0,28,0,1,,,,,,,,,,,,,,,,,,,,,,,,,,,,,,,,,,,,,,,
,,,,,,,,2023-08-16_08h47.46.151,HF_wild_card,2022.2.4,Win32,59.95922773,5c49e145e97243000194bace,64d2fd46c836a06233681665,64dc7ec64469f04705c86ce7,,,,,,,decisionTrl,resources/DB.BMP,resources/DG.BMP,Door3,0.421296296,-0.009259259,1,0,0,0.5961,optionRight,70,3700,2,29,0,29,0,1,,,,,,,,,,,,,,,,,,,,,,,,,,,,,,,,,,,,,,,
,,,,,,,,2023-08-16_08h47.46.151,HF_wild_card,2022.2.4,Win32,59.95922773,5c49e145e97243000194bace,64d2fd46c836a06233681665,64dc7ec64469f04705c86ce7,,,,,,,ctch,resources/DR.BMP,resources/DB.BMP,Door1,-0.212962963,-0.037037037,1,0,0,0.3461,optionLeft,30,3730,2,30,0,30,0,1,,,,,,,,,,,,,,,,,,,,,,,,,,,,,,,,,,,,,,,
,,,,,,,,2023-08-16_08h47.46.151,HF_wild_card,2022.2.4,Win32,59.95922773,5c49e145e97243000194bace,64d2fd46c836a06233681665,64dc7ec64469f04705c86ce7,,,,,,,decisionTrl,resources/DR.BMP,resources/DBN.BMP,Door1,-0.19537037,-0.013888889,1,0,0,0.462,optionLeft,30,3760,2,31,0,31,0,1,,,,,,,,,,,,,,,,,,,,,,,,,,,,,,,,,,,,,,,
,,,,,,,,2023-08-16_08h47.46.151,HF_wild_card,2022.2.4,Win32,59.95922773,5c49e145e97243000194bace,64d2fd46c836a06233681665,64dc7ec64469f04705c86ce7,,,,,,,decisionTrl,resources/DBN.BMP,resources/DR.BMP,Door1,0.338888889,0.019444444,1,0,0,0.5629,optionRight,30,3790,2,32,0,32,0,1,,,,,,,,,,,,,,,,,,,,,,,,,,,,,,,,,,,,,,,
,,,,,,,,2023-08-16_08h47.46.151,HF_wild_card,2022.2.4,Win32,59.95922773,5c49e145e97243000194bace,64d2fd46c836a06233681665,64dc7ec64469f04705c86ce7,,,,,,,sngl,resources/Empty.png,resources/DY.BMP,WildCard_NonEx,0.412962963,0.027777778,1,0,0,0.4796,optionRight,55,3845,2,33,0,33,0,1,,,,,,,,,,,,,,,,,,,,,,,,,,,,,,,,,,,,,,,
,,,,,,,,2023-08-16_08h47.46.151,HF_wild_card,2022.2.4,Win32,59.95922773,5c49e145e97243000194bace,64d2fd46c836a06233681665,64dc7ec64469f04705c86ce7,,,,,,,decisionTrl,resources/DB.BMP,resources/DG.BMP,Door3,0.389814815,0.108333333,1,0,0,0.5461,optionRight,70,3915,2,34,0,34,0,1,,,,,,,,,,,,,,,,,,,,,,,,,,,,,,,,,,,,,,,
,,,,,,,,2023-08-16_08h47.46.151,HF_wild_card,2022.2.4,Win32,59.95922773,5c49e145e97243000194bace,64d2fd46c836a06233681665,64dc7ec64469f04705c86ce7,,,,,,,ctch,resources/DG.BMP,resources/DBN.BMP,Door3,-0.243518519,-0.075925926,1,0,0,0.4961,optionLeft,70,3985,2,35,0,35,0,1,,,,,,,,,,,,,,,,,,,,,,,,,,,,,,,,,,,,,,,
,,,,,,,,2023-08-16_08h47.46.151,HF_wild_card,2022.2.4,Win32,59.95922773,5c49e145e97243000194bace,64d2fd46c836a06233681665,64dc7ec64469f04705c86ce7,,,,,,,ctch,resources/DBN.BMP,resources/DG.BMP,Door3,0.449074074,0.052777778,1,0,0,0.5293,optionRight,70,4055,2,36,0,36,0,1,,,,,,,,,,,,,,,,,,,,,,,,,,,,,,,,,,,,,,,
,,,,,,,,2023-08-16_08h47.46.151,HF_wild_card,2022.2.4,Win32,59.95922773,5c49e145e97243000194bace,64d2fd46c836a06233681665,64dc7ec64469f04705c86ce7,,,,,,,decisionTrl,resources/DG.BMP,resources/DB.BMP,Door3,-0.222222222,-0.000925926,1,0,0,0.9294,optionLeft,70,4125,2,37,0,37,0,1,,,,,,,,,,,,,,,,,,,,,,,,,,,,,,,,,,,,,,,
,,,,,,,,2023-08-16_08h47.46.151,HF_wild_card,2022.2.4,Win32,59.95922773,5c49e145e97243000194bace,64d2fd46c836a06233681665,64dc7ec64469f04705c86ce7,,,,,,,ctch,resources/DB.BMP,resources/DR.BMP,Door1,0.313888889,0.05462963,1,0,0,0.5462,optionRight,30,4155,2,38,0,38,0,1,,,,,,,,,,,,,,,,,,,,,,,,,,,,,,,,,,,,,,,
,,,,,,,,2023-08-16_08h47.46.151,HF_wild_card,2022.2.4,Win32,59.95922773,5c49e145e97243000194bace,64d2fd46c836a06233681665,64dc7ec64469f04705c86ce7,,,,,,,ctch,resources/DR.BMP,resources/DB.BMP,Door4,-0.014814815,-0.000925926,1,0,0,0.1958,optionRight,80,4235,2,39,0,39,0,1,,,,,,,,,,,,,,,,,,,,,,,,,,,,,,,,,,,,,,,
,,,,,,,,2023-08-16_08h47.46.151,HF_wild_card,2022.2.4,Win32,59.95922773,5c49e145e97243000194bace,64d2fd46c836a06233681665,64dc7ec64469f04705c86ce7,,,,,,,decisionTrl,resources/DG.BMP,resources/DY.BMP,Door3,-0.294444444,-0.10462963,1,0,0,0.5089,optionLeft,70,4305,2,40,0,40,0,1,,,,,,,,,,,,,,,,,,,,,,,,,,,,,,,,,,,,,,,
,,,,,,,,2023-08-16_08h47.46.151,HF_wild_card,2022.2.4,Win32,59.95922773,5c49e145e97243000194bace,64d2fd46c836a06233681665,64dc7ec64469f04705c86ce7,,,,,,,sngl,resources/Empty.png,resources/DY.BMP,WildCard_NonEx,0.278703704,-0.023148148,1,0,0,0.3465,optionRight,45,4350,2,41,0,41,0,1,,,,,,,,,,,,,,,,,,,,,,,,,,,,,,,,,,,,,,,
,,,,,,,,2023-08-16_08h47.46.151,HF_wild_card,2022.2.4,Win32,59.95922773,5c49e145e97243000194bace,64d2fd46c836a06233681665,64dc7ec64469f04705c86ce7,,,,,,,sngl,resources/DB.BMP,resources/Empty.png,Door4,-0.276851852,-0.010185185,1,0,0,0.4132,optionLeft,60,4410,2,42,0,42,0,1,,,,,,,,,,,,,,,,,,,,,,,,,,,,,,,,,,,,,,,
,,,,,,,,2023-08-16_08h47.46.151,HF_wild_card,2022.2.4,Win32,59.95922773,5c49e145e97243000194bace,64d2fd46c836a06233681665,64dc7ec64469f04705c86ce7,,,,,,,decisionTrl,resources/DG.BMP,resources/DB.BMP,Door3,-0.423148148,-0.056481481,1,0,0,0.5788,optionLeft,70,4480,2,43,0,43,0,1,,,,,,,,,,,,,,,,,,,,,,,,,,,,,,,,,,,,,,,
,,,,,,,,2023-08-16_08h47.46.151,HF_wild_card,2022.2.4,Win32,59.95922773,5c49e145e97243000194bace,64d2fd46c836a06233681665,64dc7ec64469f04705c86ce7,,,,,,,,,,,,,,,,,,,,,,,,,,1,0,1,0,1,,,,,,,,,,,,,,,,,,,,,,,,,,,,,,,,,,
,,,,,,,,2023-08-16_08h47.46.151,HF_wild_card,2022.2.4,Win32,59.95922773,5c49e145e97243000194bace,64d2fd46c836a06233681665,64dc7ec64469f04705c86ce7,,,,,,,decisionTrl,resources/DBN.BMP,resources/DY.BMP,WildCard_NonEx,0.413888889,-0.013888889,1,0,0,0.6206,optionRight,45,4525,3,0,0,0,0,1,,,,,,,,,,,,,,,,,,,,,,,,,,,,,,,,,,,,,,,
,,,,,,,,2023-08-16_08h47.46.151,HF_wild_card,2022.2.4,Win32,59.95922773,5c49e145e97243000194bace,64d2fd46c836a06233681665,64dc7ec64469f04705c86ce7,,,,,,,decisionTrl,resources/DBN.BMP,resources/DR.BMP,Door1,0.235185185,-0.058333333,1,0,0,0.4801,optionRight,30,4555,3,1,0,1,0,1,,,,,,,,,,,,,,,,,,,,,,,,,,,,,,,,,,,,,,,
,,,,,,,,2023-08-16_08h47.46.151,HF_wild_card,2022.2.4,Win32,59.95922773,5c49e145e97243000194bace,64d2fd46c836a06233681665,64dc7ec64469f04705c86ce7,,,,,,,ctch,resources/DR.BMP,resources/DB.BMP,Door4,0.30462963,-0.055555556,1,0,0,0.4766,optionRight,80,4635,3,2,0,2,0,1,,,,,,,,,,,,,,,,,,,,,,,,,,,,,,,,,,,,,,,
,,,,,,,,2023-08-16_08h47.46.151,HF_wild_card,2022.2.4,Win32,59.95922773,5c49e145e97243000194bace,64d2fd46c836a06233681665,64dc7ec64469f04705c86ce7,,,,,,,decisionTrl,resources/DY.BMP,resources/DR.BMP,WildCard_NonEx,-0.414814815,-0.066666667,1,0,0,0.6636,optionLeft,55,4690,3,3,0,3,0,1,,,,,,,,,,,,,,,,,,,,,,,,,,,,,,,,,,,,,,,
,,,,,,,,2023-08-16_08h47.46.151,HF_wild_card,2022.2.4,Win32,59.95922773,5c49e145e97243000194bace,64d2fd46c836a06233681665,64dc7ec64469f04705c86ce7,,,,,,,ctch,resources/DBN.BMP,resources/DG.BMP,Door3,0.330555556,0.069444444,1,0,0,0.497,optionRight,70,4760,3,4,0,4,0,1,,,,,,,,,,,,,,,,,,,,,,,,,,,,,,,,,,,,,,,
,,,,,,,,2023-08-16_08h47.46.151,HF_wild_card,2022.2.4,Win32,59.95922773,5c49e145e97243000194bace,64d2fd46c836a06233681665,64dc7ec64469f04705c86ce7,,,,,,,ctch,resources/DG.BMP,resources/DBN.BMP,Door3,-0.25,-0.027777778,1,0,0,0.5305,optionLeft,70,4830,3,5,0,5,0,1,,,,,,,,,,,,,,,,,,,,,,,,,,,,,,,,,,,,,,,
,,,,,,,,2023-08-16_08h47.46.151,HF_wild_card,2022.2.4,Win32,59.95922773,5c49e145e97243000194bace,64d2fd46c836a06233681665,64dc7ec64469f04705c86ce7,,,,,,,decisionTrl,resources/DBN.BMP,resources/DR.BMP,Door1,0.342592593,-0.038888889,1,0,0,0.4804,optionRight,30,4860,3,6,0,6,0,1,,,,,,,,,,,,,,,,,,,,,,,,,,,,,,,,,,,,,,,
,,,,,,,,2023-08-16_08h47.46.151,HF_wild_card,2022.2.4,Win32,59.95922773,5c49e145e97243000194bace,64d2fd46c836a06233681665,64dc7ec64469f04705c86ce7,,,,,,,decisionTrl,resources/DR.BMP,resources/DBN.BMP,Door1,-0.162037037,-0.050925926,1,0,0,0.68,optionLeft,30,4890,3,7,0,7,0,1,,,,,,,,,,,,,,,,,,,,,,,,,,,,,,,,,,,,,,,
,,,,,,,,2023-08-16_08h47.46.151,HF_wild_card,2022.2.4,Win32,59.95922773,5c49e145e97243000194bace,64d2fd46c836a06233681665,64dc7ec64469f04705c86ce7,,,,,,,decisionTrl,resources/DG.BMP,resources/DB.BMP,Door3,-0.450925926,-0.086111111,1,0,0,0.496,optionLeft,70,4960,3,8,0,8,0,1,,,,,,,,,,,,,,,,,,,,,,,,,,,,,,,,,,,,,,,
,,,,,,,,2023-08-16_08h47.46.151,HF_wild_card,2022.2.4,Win32,59.95922773,5c49e145e97243000194bace,64d2fd46c836a06233681665,64dc7ec64469f04705c86ce7,,,,,,,sngl,resources/Empty.png,resources/DR.BMP,Door1,0.307407407,-0.037037037,1,0,0,0.4305,optionRight,30,4990,3,9,0,9,0,1,,,,,,,,,,,,,,,,,,,,,,,,,,,,,,,,,,,,,,,
,,,,,,,,2023-08-16_08h47.46.151,HF_wild_card,2022.2.4,Win32,59.95922773,5c49e145e97243000194bace,64d2fd46c836a06233681665,64dc7ec64469f04705c86ce7,,,,,,,sngl,resources/Empty.png,resources/DB.BMP,Door4,0.461111111,-0.003703704,1,0,0,0.3639,optionRight,60,5050,3,10,0,10,0,1,,,,,,,,,,,,,,,,,,,,,,,,,,,,,,,,,,,,,,,
,,,,,,,,2023-08-16_08h47.46.151,HF_wild_card,2022.2.4,Win32,59.95922773,5c49e145e97243000194bace,64d2fd46c836a06233681665,64dc7ec64469f04705c86ce7,,,,,,,sngl,resources/DY.BMP,resources/Empty.png,WildCard_NonEx,-0.358333333,-0.067592593,1,0,0,0.4467,optionLeft,55,5105,3,11,0,11,0,1,,,,,,,,,,,,,,,,,,,,,,,,,,,,,,,,,,,,,,,
,,,,,,,,2023-08-16_08h47.46.151,HF_wild_card,2022.2.4,Win32,59.95922773,5c49e145e97243000194bace,64d2fd46c836a06233681665,64dc7ec64469f04705c86ce7,,,,,,,sngl,resources/DY.BMP,resources/Empty.png,WildCard_NonEx,-0.247222222,-0.057407407,1,0,0,0.4471,optionLeft,45,5150,3,12,0,12,0,1,,,,,,,,,,,,,,,,,,,,,,,,,,,,,,,,,,,,,,,
,,,,,,,,2023-08-16_08h47.46.151,HF_wild_card,2022.2.4,Win32,59.95922773,5c49e145e97243000194bace,64d2fd46c836a06233681665,64dc7ec64469f04705c86ce7,,,,,,,ctch,resources/DG.BMP,resources/DBN.BMP,Door3,-0.167592593,-0.028703704,1,0,0,0.3962,optionLeft,70,5220,3,13,0,13,0,1,,,,,,,,,,,,,,,,,,,,,,,,,,,,,,,,,,,,,,,
,,,,,,,,2023-08-16_08h47.46.151,HF_wild_card,2022.2.4,Win32,59.95922773,5c49e145e97243000194bace,64d2fd46c836a06233681665,64dc7ec64469f04705c86ce7,,,,,,,sngl,resources/Empty.png,resources/DY.BMP,WildCard_NonEx,0.275925926,-0.010185185,1,0,0,0.4301,optionRight,55,5275,3,14,0,14,0,1,,,,,,,,,,,,,,,,,,,,,,,,,,,,,,,,,,,,,,,
,,,,,,,,2023-08-16_08h47.46.151,HF_wild_card,2022.2.4,Win32,59.95922773,5c49e145e97243000194bace,64d2fd46c836a06233681665,64dc7ec64469f04705c86ce7,,,,,,,decisionTrl,resources/DR.BMP,resources/DBN.BMP,Door2,0.403703704,0.050925926,1,0,0,0.4803,optionRight,20,5295,3,15,0,15,0,1,,,,,,,,,,,,,,,,,,,,,,,,,,,,,,,,,,,,,,,
,,,,,,,,2023-08-16_08h47.46.151,HF_wild_card,2022.2.4,Win32,59.95922773,5c49e145e97243000194bace,64d2fd46c836a06233681665,64dc7ec64469f04705c86ce7,,,,,,,decisionTrl,resources/DR.BMP,resources/DBN.BMP,Door2,0.552777778,0.026851852,1,0,0,0.4471,optionRight,20,5315,3,16,0,16,0,1,,,,,,,,,,,,,,,,,,,,,,,,,,,,,,,,,,,,,,,
,,,,,,,,2023-08-16_08h47.46.151,HF_wild_card,2022.2.4,Win32,59.95922773,5c49e145e97243000194bace,64d2fd46c836a06233681665,64dc7ec64469f04705c86ce7,,,,,,,decisionTrl,resources/DY.BMP,resources/DBN.BMP,Door2,0.363888889,-0.009259259,1,0,0,0.4134,optionRight,40,5355,3,17,0,17,0,1,,,,,,,,,,,,,,,,,,,,,,,,,,,,,,,,,,,,,,,
,,,,,,,,2023-08-16_08h47.46.151,HF_wild_card,2022.2.4,Win32,59.95922773,5c49e145e97243000194bace,64d2fd46c836a06233681665,64dc7ec64469f04705c86ce7,,,,,,,decisionTrl,resources/DG.BMP,resources/DY.BMP,Door3,-0.236111111,-0.050925926,1,0,0,0.8301,optionLeft,70,5425,3,18,0,18,0,1,,,,,,,,,,,,,,,,,,,,,,,,,,,,,,,,,,,,,,,
,,,,,,,,2023-08-16_08h47.46.151,HF_wild_card,2022.2.4,Win32,59.95922773,5c49e145e97243000194bace,64d2fd46c836a06233681665,64dc7ec64469f04705c86ce7,,,,,,,decisionTrl,resources/DB.BMP,resources/DY.BMP,WildCard_NonEx,0.310185185,0.022222222,1,0,0,0.5304,optionRight,45,5470,3,19,0,19,0,1,,,,,,,,,,,,,,,,,,,,,,,,,,,,,,,,,,,,,,,
,,,,,,,,2023-08-16_08h47.46.151,HF_wild_card,2022.2.4,Win32,59.95922773,5c49e145e97243000194bace,64d2fd46c836a06233681665,64dc7ec64469f04705c86ce7,,,,,,,decisionTrl,resources/DY.BMP,resources/DG.BMP,WildCard_NonEx,-0.273148148,-0.015740741,1,0,0,0.3467,optionLeft,45,5515,3,20,0,20,0,1,,,,,,,,,,,,,,,,,,,,,,,,,,,,,,,,,,,,,,,
,,,,,,,,2023-08-16_08h47.46.151,HF_wild_card,2022.2.4,Win32,59.95922773,5c49e145e97243000194bace,64d2fd46c836a06233681665,64dc7ec64469f04705c86ce7,,,,,,,decisionTrl,resources/DG.BMP,resources/DB.BMP,Door4,0.281481481,0.062962963,1,0,0,0.2633,optionRight,80,5595,3,21,0,21,0,1,,,,,,,,,,,,,,,,,,,,,,,,,,,,,,,,,,,,,,,
,,,,,,,,2023-08-16_08h47.46.151,HF_wild_card,2022.2.4,Win32,59.95922773,5c49e145e97243000194bace,64d2fd46c836a06233681665,64dc7ec64469f04705c86ce7,,,,,,,ctch,resources/DR.BMP,resources/DB.BMP,Door4,0.27962963,0.078703704,1,0,0,0.5967,optionRight,80,5675,3,22,0,22,0,1,,,,,,,,,,,,,,,,,,,,,,,,,,,,,,,,,,,,,,,
,,,,,,,,2023-08-16_08h47.46.151,HF_wild_card,2022.2.4,Win32,59.95922773,5c49e145e97243000194bace,64d2fd46c836a06233681665,64dc7ec64469f04705c86ce7,,,,,,,sngl,resources/DB.BMP,resources/Empty.png,Door4,-0.22962963,-0.024074074,1,0,0,0.4466,optionLeft,80,5755,3,23,0,23,0,1,,,,,,,,,,,,,,,,,,,,,,,,,,,,,,,,,,,,,,,
,,,,,,,,2023-08-16_08h47.46.151,HF_wild_card,2022.2.4,Win32,59.95922773,5c49e145e97243000194bace,64d2fd46c836a06233681665,64dc7ec64469f04705c86ce7,,,,,,,decisionTrl,resources/DR.BMP,resources/DBN.BMP,Door1,-0.247222222,-0.025,1,0,0,0.4801,optionLeft,30,5785,3,24,0,24,0,1,,,,,,,,,,,,,,,,,,,,,,,,,,,,,,,,,,,,,,,
,,,,,,,,2023-08-16_08h47.46.151,HF_wild_card,2022.2.4,Win32,59.95922773,5c49e145e97243000194bace,64d2fd46c836a06233681665,64dc7ec64469f04705c86ce7,,,,,,,decisionTrl,resources/DG.BMP,resources/DB.BMP,Door4,0.256481481,0.007407407,1,0,0,0.6633,optionRight,80,5865,3,25,0,25,0,1,,,,,,,,,,,,,,,,,,,,,,,,,,,,,,,,,,,,,,,
,,,,,,,,2023-08-16_08h47.46.151,HF_wild_card,2022.2.4,Win32,59.95922773,5c49e145e97243000194bace,64d2fd46c836a06233681665,64dc7ec64469f04705c86ce7,,,,,,,decisionTrl,resources/DBN.BMP,resources/DR.BMP,Door1,0.464814815,0.059259259,1,0,0,0.4973,optionRight,30,5895,3,26,0,26,0,1,,,,,,,,,,,,,,,,,,,,,,,,,,,,,,,,,,,,,,,
,,,,,,,,2023-08-16_08h47.46.151,HF_wild_card,2022.2.4,Win32,59.95922773,5c49e145e97243000194bace,64d2fd46c836a06233681665,64dc7ec64469f04705c86ce7,,,,,,,decisionTrl,resources/DG.BMP,resources/DB.BMP,Door4,0.381481481,-0.005555556,1,0,0,0.48,optionRight,80,5975,3,27,0,27,0,1,,,,,,,,,,,,,,,,,,,,,,,,,,,,,,,,,,,,,,,
,,,,,,,,2023-08-16_08h47.46.151,HF_wild_card,2022.2.4,Win32,59.95922773,5c49e145e97243000194bace,64d2fd46c836a06233681665,64dc7ec64469f04705c86ce7,,,,,,,ctch,resources/DB.BMP,resources/DR.BMP,Door4,-0.123148148,-0.037037037,1,0,0,0.4802,optionLeft,60,6035,3,28,0,28,0,1,,,,,,,,,,,,,,,,,,,,,,,,,,,,,,,,,,,,,,,
,,,,,,,,2023-08-16_08h47.46.151,HF_wild_card,2022.2.4,Win32,59.95922773,5c49e145e97243000194bace,64d2fd46c836a06233681665,64dc7ec64469f04705c86ce7,,,,,,,sngl,resources/DR.BMP,resources/Empty.png,Door1,-0.253703704,0.015740741,1,0,0,0.4635,optionLeft,30,6065,3,29,0,29,0,1,,,,,,,,,,,,,,,,,,,,,,,,,,,,,,,,,,,,,,,
,,,,,,,,2023-08-16_08h47.46.151,HF_wild_card,2022.2.4,Win32,59.95922773,5c49e145e97243000194bace,64d2fd46c836a06233681665,64dc7ec64469f04705c86ce7,,,,,,,ctch,resources/DB.BMP,resources/DR.BMP,Door1,0.276851852,0.007407407,1,0,0,0.5455,optionRight,30,6095,3,30,0,30,0,1,,,,,,,,,,,,,,,,,,,,,,,,,,,,,,,,,,,,,,,
,,,,,,,,2023-08-16_08h47.46.151,HF_wild_card,2022.2.4,Win32,59.95922773,5c49e145e97243000194bace,64d2fd46c836a06233681665,64dc7ec64469f04705c86ce7,,,,,,,sngl,resources/Empty.png,resources/DBN.BMP,Door2,0.289814815,0.009259259,1,0,0,0.4801,optionRight,20,6115,3,31,0,31,0,1,,,,,,,,,,,,,,,,,,,,,,,,,,,,,,,,,,,,,,,
,,,,,,,,2023-08-16_08h47.46.151,HF_wild_card,2022.2.4,Win32,59.95922773,5c49e145e97243000194bace,64d2fd46c836a06233681665,64dc7ec64469f04705c86ce7,,,,,,,decisionTrl,resources/DB.BMP,resources/DG.BMP,Door4,-0.174074074,-0.025,1,0,0,0.4132,optionLeft,60,6175,3,32,0,32,0,1,,,,,,,,,,,,,,,,,,,,,,,,,,,,,,,,,,,,,,,
,,,,,,,,2023-08-16_08h47.46.151,HF_wild_card,2022.2.4,Win32,59.95922773,5c49e145e97243000194bace,64d2fd46c836a06233681665,64dc7ec64469f04705c86ce7,,,,,,,sngl,resources/Empty.png,resources/DG.BMP,Door3,0.358333333,0.053703704,1,0,0,0.4807,optionRight,70,6245,3,33,0,33,0,1,,,,,,,,,,,,,,,,,,,,,,,,,,,,,,,,,,,,,,,
,,,,,,,,2023-08-16_08h47.46.151,HF_wild_card,2022.2.4,Win32,59.95922773,5c49e145e97243000194bace,64d2fd46c836a06233681665,64dc7ec64469f04705c86ce7,,,,,,,ctch,resources/DBN.BMP,resources/DG.BMP,Door3,0.392592593,0.025,1,0,0,0.497,optionRight,70,6315,3,34,0,34,0,1,,,,,,,,,,,,,,,,,,,,,,,,,,,,,,,,,,,,,,,
,,,,,,,,2023-08-16_08h47.46.151,HF_wild_card,2022.2.4,Win32,59.95922773,5c49e145e97243000194bace,64d2fd46c836a06233681665,64dc7ec64469f04705c86ce7,,,,,,,decisionTrl,resources/DR.BMP,resources/DY.BMP,WildCard_NonEx,0.369444444,-0.005555556,1,0,0,1.0633,optionRight,45,6360,3,35,0,35,0,1,,,,,,,,,,,,,,,,,,,,,,,,,,,,,,,,,,,,,,,
,,,,,,,,2023-08-16_08h47.46.151,HF_wild_card,2022.2.4,Win32,59.95922773,5c49e145e97243000194bace,64d2fd46c836a06233681665,64dc7ec64469f04705c86ce7,,,,,,,sngl,resources/DG.BMP,resources/Empty.png,Door3,-0.124074074,-0.013888889,1,0,0,0.4637,optionLeft,70,6430,3,36,0,36,0,1,,,,,,,,,,,,,,,,,,,,,,,,,,,,,,,,,,,,,,,
,,,,,,,,2023-08-16_08h47.46.151,HF_wild_card,2022.2.4,Win32,59.95922773,5c49e145e97243000194bace,64d2fd46c836a06233681665,64dc7ec64469f04705c86ce7,,,,,,,decisionTrl,resources/DB.BMP,resources/DG.BMP,Door3,0.24537037,0.041666667,1,0,0,0.5136,optionRight,70,6500,3,37,0,37,0,1,,,,,,,,,,,,,,,,,,,,,,,,,,,,,,,,,,,,,,,
,,,,,,,,2023-08-16_08h47.46.151,HF_wild_card,2022.2.4,Win32,59.95922773,5c49e145e97243000194bace,64d2fd46c836a06233681665,64dc7ec64469f04705c86ce7,,,,,,,decisionTrl,resources/DBN.BMP,resources/DR.BMP,Door1,0.368518519,0.026851852,1,0,0,0.4633,optionRight,30,6530,3,38,0,38,0,1,,,,,,,,,,,,,,,,,,,,,,,,,,,,,,,,,,,,,,,
,,,,,,,,2023-08-16_08h47.46.151,HF_wild_card,2022.2.4,Win32,59.95922773,5c49e145e97243000194bace,64d2fd46c836a06233681665,64dc7ec64469f04705c86ce7,,,,,,,decisionTrl,resources/DY.BMP,resources/DB.BMP,Door4,0.521296296,0.110185185,1,0,0,0.9467,optionRight,80,6610,3,39,0,39,0,1,,,,,,,,,,,,,,,,,,,,,,,,,,,,,,,,,,,,,,,
,,,,,,,,2023-08-16_08h47.46.151,HF_wild_card,2022.2.4,Win32,59.95922773,5c49e145e97243000194bace,64d2fd46c836a06233681665,64dc7ec64469f04705c86ce7,,,,,,,sngl,resources/Empty.png,resources/DY.BMP,WildCard_NonEx,0.319444444,0.152777778,1,0,0,0.4301,optionRight,45,6655,3,40,0,40,0,1,,,,,,,,,,,,,,,,,,,,,,,,,,,,,,,,,,,,,,,
,,,,,,,,2023-08-16_08h47.46.151,HF_wild_card,2022.2.4,Win32,59.95922773,5c49e145e97243000194bace,64d2fd46c836a06233681665,64dc7ec64469f04705c86ce7,,,,,,,decisionTrl,resources/DB.BMP,resources/DG.BMP,Door4,-0.411111111,-0.083333333,1,0,0,0.7799,optionLeft,80,6735,3,41,0,41,0,1,,,,,,,,,,,,,,,,,,,,,,,,,,,,,,,,,,,,,,,
,,,,,,,,2023-08-16_08h47.46.151,HF_wild_card,2022.2.4,Win32,59.95922773,5c49e145e97243000194bace,64d2fd46c836a06233681665,64dc7ec64469f04705c86ce7,,,,,,,decisionTrl,resources/DB.BMP,resources/DG.BMP,Door4,-0.294444444,-0.050925926,1,0,0,0.447,optionLeft,60,6795,3,42,0,42,0,1,,,,,,,,,,,,,,,,,,,,,,,,,,,,,,,,,,,,,,,
,,,,,,,,2023-08-16_08h47.46.151,HF_wild_card,2022.2.4,Win32,59.95922773,5c49e145e97243000194bace,64d2fd46c836a06233681665,64dc7ec64469f04705c86ce7,,,,,,,sngl,resources/DBN.BMP,resources/Empty.png,Door2,-0.212962963,-0.016666667,1,0,0,0.6461,optionLeft,40,6835,3,43,0,43,0,1,,,,,,,,,,,,,,,,,,,,,,,,,,,,,,,,,,,,,,,
,,,,,,,,2023-08-16_08h47.46.151,HF_wild_card,2022.2.4,Win32,59.95922773,5c49e145e97243000194bace,64d2fd46c836a06233681665,64dc7ec64469f04705c86ce7,,,,,,,,,,,,,,,,,,,,,,,,,,2,0,2,0,1,,,,,,,,,,,,,,,,,,,,,,,,,,,,,,,,,,
,,,,,,,,2023-08-16_08h47.46.151,HF_wild_card,2022.2.4,Win32,59.95922773,5c49e145e97243000194bace,64d2fd46c836a06233681665,64dc7ec64469f04705c86ce7,,,,,,,decisionTrl,resources/DB.BMP,resources/DG.BMP,Door4,-0.357407407,-0.055555556,1,0,0,0.6873,optionLeft,60,6895,4,0,0,0,0,1,,,,,,,,,,,,,,,,,,,,,,,,,,,,,,,,,,,,,,,
,,,,,,,,2023-08-16_08h47.46.151,HF_wild_card,2022.2.4,Win32,59.95922773,5c49e145e97243000194bace,64d2fd46c836a06233681665,64dc7ec64469f04705c86ce7,,,,,,,decisionTrl,resources/DR.BMP,resources/DBN.BMP,Door1,-0.219444444,-0.036111111,1,0,0,0.6133,optionLeft,30,6925,4,1,0,1,0,1,,,,,,,,,,,,,,,,,,,,,,,,,,,,,,,,,,,,,,,
,,,,,,,,2023-08-16_08h47.46.151,HF_wild_card,2022.2.4,Win32,59.95922773,5c49e145e97243000194bace,64d2fd46c836a06233681665,64dc7ec64469f04705c86ce7,,,,,,,decisionTrl,resources/DBN.BMP,resources/DR.BMP,Door2,-0.272222222,-0.101851852,1,0,0,0.5302,optionLeft,20,6945,4,2,0,2,0,1,,,,,,,,,,,,,,,,,,,,,,,,,,,,,,,,,,,,,,,
,,,,,,,,2023-08-16_08h47.46.151,HF_wild_card,2022.2.4,Win32,59.95922773,5c49e145e97243000194bace,64d2fd46c836a06233681665,64dc7ec64469f04705c86ce7,,,,,,,sngl,resources/DP.BMP,resources/Empty.png,WildCard_Ex,-0.247222222,-0.072222222,1,0,0,0.5806,optionLeft,45,6990,4,3,0,3,0,1,,,,,,,,,,,,,,,,,,,,,,,,,,,,,,,,,,,,,,,
,,,,,,,,2023-08-16_08h47.46.151,HF_wild_card,2022.2.4,Win32,59.95922773,5c49e145e97243000194bace,64d2fd46c836a06233681665,64dc7ec64469f04705c86ce7,,,,,,,sngl,resources/DG.BMP,resources/Empty.png,Door3,-0.498148148,-0.078703704,1,0,0,0.5472,optionLeft,70,7060,4,4,0,4,0,1,,,,,,,,,,,,,,,,,,,,,,,,,,,,,,,,,,,,,,,
,,,,,,,,2023-08-16_08h47.46.151,HF_wild_card,2022.2.4,Win32,59.95922773,5c49e145e97243000194bace,64d2fd46c836a06233681665,64dc7ec64469f04705c86ce7,,,,,,,sngl,resources/Empty.png,resources/DBN.BMP,Door2,0.393518519,0.046296296,1,0,0,0.3636,optionRight,40,7100,4,5,0,5,0,1,,,,,,,,,,,,,,,,,,,,,,,,,,,,,,,,,,,,,,,
,,,,,,,,2023-08-16_08h47.46.151,HF_wild_card,2022.2.4,Win32,59.95922773,5c49e145e97243000194bace,64d2fd46c836a06233681665,64dc7ec64469f04705c86ce7,,,,,,,ctch,resources/DR.BMP,resources/DB.BMP,Door1,-0.334259259,-0.044444444,1,0,0,0.3134,optionLeft,30,7130,4,6,0,6,0,1,,,,,,,,,,,,,,,,,,,,,,,,,,,,,,,,,,,,,,,
,,,,,,,,2023-08-16_08h47.46.151,HF_wild_card,2022.2.4,Win32,59.95922773,5c49e145e97243000194bace,64d2fd46c836a06233681665,64dc7ec64469f04705c86ce7,,,,,,,decisionTrl,resources/DP.BMP,resources/DR.BMP,Door1,0.27962963,0.00462963,1,0,0,0.3804,optionRight,30,7160,4,7,0,7,0,1,,,,,,,,,,,,,,,,,,,,,,,,,,,,,,,,,,,,,,,
,,,,,,,,2023-08-16_08h47.46.151,HF_wild_card,2022.2.4,Win32,59.95922773,5c49e145e97243000194bace,64d2fd46c836a06233681665,64dc7ec64469f04705c86ce7,,,,,,,decisionTrl,resources/DG.BMP,resources/DB.BMP,Door3,-0.122222222,-0.050925926,1,0,0,0.4301,optionLeft,70,7230,4,8,0,8,0,1,,,,,,,,,,,,,,,,,,,,,,,,,,,,,,,,,,,,,,,
,,,,,,,,2023-08-16_08h47.46.151,HF_wild_card,2022.2.4,Win32,59.95922773,5c49e145e97243000194bace,64d2fd46c836a06233681665,64dc7ec64469f04705c86ce7,,,,,,,ctch,resources/DB.BMP,resources/DR.BMP,Door1,0.276851852,0.035185185,1,0,0,0.4966,optionRight,30,7260,4,9,0,9,0,1,,,,,,,,,,,,,,,,,,,,,,,,,,,,,,,,,,,,,,,
,,,,,,,,2023-08-16_08h47.46.151,HF_wild_card,2022.2.4,Win32,59.95922773,5c49e145e97243000194bace,64d2fd46c836a06233681665,64dc7ec64469f04705c86ce7,,,,,,,sngl,resources/Empty.png,resources/DP.BMP,WildCard_Ex,0.339814815,0.042592593,1,0,0,0.4796,optionRight,55,7315,4,10,0,10,0,1,,,,,,,,,,,,,,,,,,,,,,,,,,,,,,,,,,,,,,,
,,,,,,,,2023-08-16_08h47.46.151,HF_wild_card,2022.2.4,Win32,59.95922773,5c49e145e97243000194bace,64d2fd46c836a06233681665,64dc7ec64469f04705c86ce7,,,,,,,decisionTrl,resources/DB.BMP,resources/DG.BMP,Door4,-0.218518519,-0.012962963,1,0,0,0.5132,optionLeft,60,7375,4,11,0,11,0,1,,,,,,,,,,,,,,,,,,,,,,,,,,,,,,,,,,,,,,,
,,,,,,,,2023-08-16_08h47.46.151,HF_wild_card,2022.2.4,Win32,59.95922773,5c49e145e97243000194bace,64d2fd46c836a06233681665,64dc7ec64469f04705c86ce7,,,,,,,sngl,resources/DBN.BMP,resources/Empty.png,Door2,-0.250925926,-0.021296296,1,0,0,0.4471,optionLeft,20,7395,4,12,0,12,0,1,,,,,,,,,,,,,,,,,,,,,,,,,,,,,,,,,,,,,,,
,,,,,,,,2023-08-16_08h47.46.151,HF_wild_card,2022.2.4,Win32,59.95922773,5c49e145e97243000194bace,64d2fd46c836a06233681665,64dc7ec64469f04705c86ce7,,,,,,,decisionTrl,resources/DBN.BMP,resources/DR.BMP,Door1,0.418518519,0.053703704,1,0,0,0.479,optionRight,30,7425,4,13,0,13,0,1,,,,,,,,,,,,,,,,,,,,,,,,,,,,,,,,,,,,,,,
,,,,,,,,2023-08-16_08h47.46.151,HF_wild_card,2022.2.4,Win32,59.95922773,5c49e145e97243000194bace,64d2fd46c836a06233681665,64dc7ec64469f04705c86ce7,,,,,,,sngl,resources/Empty.png,resources/DP.BMP,WildCard_Ex,0.456481481,0.032407407,1,0,0,0.3804,optionRight,45,7470,4,14,0,14,0,1,,,,,,,,,,,,,,,,,,,,,,,,,,,,,,,,,,,,,,,
,,,,,,,,2023-08-16_08h47.46.151,HF_wild_card,2022.2.4,Win32,59.95922773,5c49e145e97243000194bace,64d2fd46c836a06233681665,64dc7ec64469f04705c86ce7,,,,,,,sngl,resources/Empty.png,resources/DR.BMP,Door1,0.44537037,0.031481481,1,0,0,0.4136,optionRight,30,7500,4,15,0,15,0,1,,,,,,,,,,,,,,,,,,,,,,,,,,,,,,,,,,,,,,,
,,,,,,,,2023-08-16_08h47.46.151,HF_wild_card,2022.2.4,Win32,59.95922773,5c49e145e97243000194bace,64d2fd46c836a06233681665,64dc7ec64469f04705c86ce7,,,,,,,decisionTrl,resources/DG.BMP,resources/DB.BMP,Door4,0.338888889,0.006481481,1,0,0,0.4302,optionRight,60,7560,4,16,0,16,0,1,,,,,,,,,,,,,,,,,,,,,,,,,,,,,,,,,,,,,,,
,,,,,,,,2023-08-16_08h47.46.151,HF_wild_card,2022.2.4,Win32,59.95922773,5c49e145e97243000194bace,64d2fd46c836a06233681665,64dc7ec64469f04705c86ce7,,,,,,,ctch,resources/DG.BMP,resources/DBN.BMP,Door3,-0.238888889,-0.027777778,1,0,0,0.6134,optionLeft,70,7630,4,17,0,17,0,1,,,,,,,,,,,,,,,,,,,,,,,,,,,,,,,,,,,,,,,
,,,,,,,,2023-08-16_08h47.46.151,HF_wild_card,2022.2.4,Win32,59.95922773,5c49e145e97243000194bace,64d2fd46c836a06233681665,64dc7ec64469f04705c86ce7,,,,,,,decisionTrl,resources/DB.BMP,resources/DG.BMP,Door3,0.303703704,-0.013888889,1,0,0,0.6134,optionRight,70,7700,4,18,0,18,0,1,,,,,,,,,,,,,,,,,,,,,,,,,,,,,,,,,,,,,,,
,,,,,,,,2023-08-16_08h47.46.151,HF_wild_card,2022.2.4,Win32,59.95922773,5c49e145e97243000194bace,64d2fd46c836a06233681665,64dc7ec64469f04705c86ce7,,,,,,,sngl,resources/DR.BMP,resources/Empty.png,Door1,-0.462037037,-0.052777778,1,0,0,2.9869,optionLeft,30,7730,4,19,0,19,0,1,,,,,,,,,,,,,,,,,,,,,,,,,,,,,,,,,,,,,,,
,,,,,,,,2023-08-16_08h47.46.151,HF_wild_card,2022.2.4,Win32,59.95922773,5c49e145e97243000194bace,64d2fd46c836a06233681665,64dc7ec64469f04705c86ce7,,,,,,,ctch,resources/DBN.BMP,resources/DG.BMP,Door3,0.581481481,0.002777778,1,0,0,0.4301,optionRight,70,7800,4,20,0,20,0,1,,,,,,,,,,,,,,,,,,,,,,,,,,,,,,,,,,,,,,,
,,,,,,,,2023-08-16_08h47.46.151,HF_wild_card,2022.2.4,Win32,59.95922773,5c49e145e97243000194bace,64d2fd46c836a06233681665,64dc7ec64469f04705c86ce7,,,,,,,decisionTrl,resources/DG.BMP,resources/DB.BMP,Door4,0.39537037,0.062962963,1,0,0,0.5135,optionRight,80,7880,4,21,0,21,0,1,,,,,,,,,,,,,,,,,,,,,,,,,,,,,,,,,,,,,,,
,,,,,,,,2023-08-16_08h47.46.151,HF_wild_card,2022.2.4,Win32,59.95922773,5c49e145e97243000194bace,64d2fd46c836a06233681665,64dc7ec64469f04705c86ce7,,,,,,,decisionTrl,resources/DBN.BMP,resources/DP.BMP,WildCard_Ex,0.408333333,0.018518519,1,0,0,0.3805,optionRight,55,7935,4,22,0,22,0,1,,,,,,,,,,,,,,,,,,,,,,,,,,,,,,,,,,,,,,,
,,,,,,,,2023-08-16_08h47.46.151,HF_wild_card,2022.2.4,Win32,59.95922773,5c49e145e97243000194bace,64d2fd46c836a06233681665,64dc7ec64469f04705c86ce7,,,,,,,decisionTrl,resources/DB.BMP,resources/DP.BMP,WildCard_Ex,0.17037037,0.039814815,1,0,0,0.7134,optionRight,45,7980,4,23,0,23,0,1,,,,,,,,,,,,,,,,,,,,,,,,,,,,,,,,,,,,,,,
,,,,,,,,2023-08-16_08h47.46.151,HF_wild_card,2022.2.4,Win32,59.95922773,5c49e145e97243000194bace,64d2fd46c836a06233681665,64dc7ec64469f04705c86ce7,,,,,,,decisionTrl,resources/DR.BMP,resources/DBN.BMP,Door1,-0.385185185,-0.048148148,1,0,0,0.4467,optionLeft,30,8010,4,24,0,24,0,1,,,,,,,,,,,,,,,,,,,,,,,,,,,,,,,,,,,,,,,
,,,,,,,,2023-08-16_08h47.46.151,HF_wild_card,2022.2.4,Win32,59.95922773,5c49e145e97243000194bace,64d2fd46c836a06233681665,64dc7ec64469f04705c86ce7,,,,,,,ctch,resources/DG.BMP,resources/DBN.BMP,Door3,-0.236111111,-0.061111111,1,0,0,0.3798,optionLeft,70,8080,4,25,0,25,0,1,,,,,,,,,,,,,,,,,,,,,,,,,,,,,,,,,,,,,,,
,,,,,,,,2023-08-16_08h47.46.151,HF_wild_card,2022.2.4,Win32,59.95922773,5c49e145e97243000194bace,64d2fd46c836a06233681665,64dc7ec64469f04705c86ce7,,,,,,,decisionTrl,resources/DR.BMP,resources/DBN.BMP,Door1,-0.261111111,-0.026851852,1,0,0,0.3635,optionLeft,30,8110,4,26,0,26,0,1,,,,,,,,,,,,,,,,,,,,,,,,,,,,,,,,,,,,,,,
,,,,,,,,2023-08-16_08h47.46.151,HF_wild_card,2022.2.4,Win32,59.95922773,5c49e145e97243000194bace,64d2fd46c836a06233681665,64dc7ec64469f04705c86ce7,,,,,,,ctch,resources/DB.BMP,resources/DR.BMP,Door4,-0.269444444,-0.073148148,1,0,0,0.3802,optionLeft,60,8170,4,27,0,27,0,1,,,,,,,,,,,,,,,,,,,,,,,,,,,,,,,,,,,,,,,
,,,,,,,,2023-08-16_08h47.46.151,HF_wild_card,2022.2.4,Win32,59.95922773,5c49e145e97243000194bace,64d2fd46c836a06233681665,64dc7ec64469f04705c86ce7,,,,,,,decisionTrl,resources/DP.BMP,resources/DG.BMP,WildCard_Ex,-0.275,-0.068518519,1,0,0,0.38,optionLeft,45,8215,4,28,0,28,0,1,,,,,,,,,,,,,,,,,,,,,,,,,,,,,,,,,,,,,,,
,,,,,,,,2023-08-16_08h47.46.151,HF_wild_card,2022.2.4,Win32,59.95922773,5c49e145e97243000194bace,64d2fd46c836a06233681665,64dc7ec64469f04705c86ce7,,,,,,,decisionTrl,resources/DG.BMP,resources/DB.BMP,Door4,0.537037037,-0.009259259,1,0,0,0.6458,optionRight,60,8275,4,29,0,29,0,1,,,,,,,,,,,,,,,,,,,,,,,,,,,,,,,,,,,,,,,
,,,,,,,,2023-08-16_08h47.46.151,HF_wild_card,2022.2.4,Win32,59.95922773,5c49e145e97243000194bace,64d2fd46c836a06233681665,64dc7ec64469f04705c86ce7,,,,,,,sngl,resources/Empty.png,resources/DB.BMP,Door4,0.338888889,0.087037037,1,0,0,0.4636,optionRight,80,8355,4,30,0,30,0,1,,,,,,,,,,,,,,,,,,,,,,,,,,,,,,,,,,,,,,,
,,,,,,,,2023-08-16_08h47.46.151,HF_wild_card,2022.2.4,Win32,59.95922773,5c49e145e97243000194bace,64d2fd46c836a06233681665,64dc7ec64469f04705c86ce7,,,,,,,decisionTrl,resources/DG.BMP,resources/DP.BMP,WildCard_Ex,0.24537037,0.006481481,1,0,0,0.6971,optionRight,55,8410,4,31,0,31,0,1,,,,,,,,,,,,,,,,,,,,,,,,,,,,,,,,,,,,,,,
,,,,,,,,2023-08-16_08h47.46.151,HF_wild_card,2022.2.4,Win32,59.95922773,5c49e145e97243000194bace,64d2fd46c836a06233681665,64dc7ec64469f04705c86ce7,,,,,,,sngl,resources/DB.BMP,resources/Empty.png,Door4,-0.20462963,-0.061111111,1,0,0,0.43,optionLeft,60,8470,4,32,0,32,0,1,,,,,,,,,,,,,,,,,,,,,,,,,,,,,,,,,,,,,,,
,,,,,,,,2023-08-16_08h47.46.151,HF_wild_card,2022.2.4,Win32,59.95922773,5c49e145e97243000194bace,64d2fd46c836a06233681665,64dc7ec64469f04705c86ce7,,,,,,,decisionTrl,resources/DB.BMP,resources/DG.BMP,Door4,-0.281481481,-0.030555556,1,0,0,0.4468,optionLeft,80,8550,4,33,0,33,0,1,,,,,,,,,,,,,,,,,,,,,,,,,,,,,,,,,,,,,,,
,,,,,,,,2023-08-16_08h47.46.151,HF_wild_card,2022.2.4,Win32,59.95922773,5c49e145e97243000194bace,64d2fd46c836a06233681665,64dc7ec64469f04705c86ce7,,,,,,,decisionTrl,resources/DBN.BMP,resources/DR.BMP,Door1,0.306481481,0.046296296,1,0,0,0.4635,optionRight,30,8580,4,34,0,34,0,1,,,,,,,,,,,,,,,,,,,,,,,,,,,,,,,,,,,,,,,
,,,,,,,,2023-08-16_08h47.46.151,HF_wild_card,2022.2.4,Win32,59.95922773,5c49e145e97243000194bace,64d2fd46c836a06233681665,64dc7ec64469f04705c86ce7,,,,,,,decisionTrl,resources/DR.BMP,resources/DP.BMP,WildCard_Ex,0.324074074,0.039814815,1,0,0,0.4468,optionRight,55,8635,4,35,0,35,0,1,,,,,,,,,,,,,,,,,,,,,,,,,,,,,,,,,,,,,,,
,,,,,,,,2023-08-16_08h47.46.151,HF_wild_card,2022.2.4,Win32,59.95922773,5c49e145e97243000194bace,64d2fd46c836a06233681665,64dc7ec64469f04705c86ce7,,,,,,,decisionTrl,resources/DR.BMP,resources/DBN.BMP,Door1,-0.247222222,-0.02037037,1,0,0,0.4636,optionLeft,30,8665,4,36,0,36,0,1,,,,,,,,,,,,,,,,,,,,,,,,,,,,,,,,,,,,,,,
,,,,,,,,2023-08-16_08h47.46.151,HF_wild_card,2022.2.4,Win32,59.95922773,5c49e145e97243000194bace,64d2fd46c836a06233681665,64dc7ec64469f04705c86ce7,,,,,,,ctch,resources/DBN.BMP,resources/DG.BMP,Door3,0.352777778,0.010185185,1,0,0,0.5138,optionRight,70,8735,4,37,0,37,0,1,,,,,,,,,,,,,,,,,,,,,,,,,,,,,,,,,,,,,,,
,,,,,,,,2023-08-16_08h47.46.151,HF_wild_card,2022.2.4,Win32,59.95922773,5c49e145e97243000194bace,64d2fd46c836a06233681665,64dc7ec64469f04705c86ce7,,,,,,,decisionTrl,resources/DP.BMP,resources/DBN.BMP,WildCard_Ex,-0.19537037,-0.02037037,1,0,0,0.7135,optionLeft,55,8790,4,38,0,38,0,1,,,,,,,,,,,,,,,,,,,,,,,,,,,,,,,,,,,,,,,
,,,,,,,,2023-08-16_08h47.46.151,HF_wild_card,2022.2.4,Win32,59.95922773,5c49e145e97243000194bace,64d2fd46c836a06233681665,64dc7ec64469f04705c86ce7,,,,,,,sngl,resources/DP.BMP,resources/Empty.png,WildCard_Ex,-0.288888889,-0.07037037,1,0,0,0.4138,optionLeft,55,8845,4,39,0,39,0,1,,,,,,,,,,,,,,,,,,,,,,,,,,,,,,,,,,,,,,,
,,,,,,,,2023-08-16_08h47.46.151,HF_wild_card,2022.2.4,Win32,59.95922773,5c49e145e97243000194bace,64d2fd46c836a06233681665,64dc7ec64469f04705c86ce7,,,,,,,decisionTrl,resources/DBN.BMP,resources/DR.BMP,Door1,0.263888889,-0.014814815,1,0,0,0.6967,optionRight,30,8875,4,40,0,40,0,1,,,,,,,,,,,,,,,,,,,,,,,,,,,,,,,,,,,,,,,
,,,,,,,,2023-08-16_08h47.46.151,HF_wild_card,2022.2.4,Win32,59.95922773,5c49e145e97243000194bace,64d2fd46c836a06233681665,64dc7ec64469f04705c86ce7,,,,,,,ctch,resources/DR.BMP,resources/DB.BMP,Door4,0.284259259,0.052777778,1,0,0,0.4967,optionRight,80,8955,4,41,0,41,0,1,,,,,,,,,,,,,,,,,,,,,,,,,,,,,,,,,,,,,,,
,,,,,,,,2023-08-16_08h47.46.151,HF_wild_card,2022.2.4,Win32,59.95922773,5c49e145e97243000194bace,64d2fd46c836a06233681665,64dc7ec64469f04705c86ce7,,,,,,,decisionTrl,resources/DP.BMP,resources/DB.BMP,Door4,0.362962963,-0.025,1,0,0,0.3636,optionRight,60,9015,4,42,0,42,0,1,,,,,,,,,,,,,,,,,,,,,,,,,,,,,,,,,,,,,,,
,,,,,,,,2023-08-16_08h47.46.151,HF_wild_card,2022.2.4,Win32,59.95922773,5c49e145e97243000194bace,64d2fd46c836a06233681665,64dc7ec64469f04705c86ce7,,,,,,,sngl,resources/Empty.png,resources/DG.BMP,Door3,0.327777778,-0.112037037,1,0,0,0.5961,optionRight,70,9085,4,43,0,43,0,1,,,,,,,,,,,,,,,,,,,,,,,,,,,,,,,,,,,,,,,
,,,,,,,,2023-08-16_08h47.46.151,HF_wild_card,2022.2.4,Win32,59.95922773,5c49e145e97243000194bace,64d2fd46c836a06233681665,64dc7ec64469f04705c86ce7,,,,,,,,,,,,,,,,,,,,,,,,,,3,0,3,0,1,,,,,,,,,,,,,,,,,,,,,,,,,,,,,,,,,,
,,,,,,,,2023-08-16_08h47.46.151,HF_wild_card,2022.2.4,Win32,59.95922773,5c49e145e97243000194bace,64d2fd46c836a06233681665,64dc7ec64469f04705c86ce7,,,,,,,decisionTrl,resources/DBN.BMP,resources/DR.BMP,Door2,-0.158333333,-0.159259259,1,0,0,0.4706,optionLeft,40,9125,5,0,0,0,0,1,,,,,,,,,,,,,,,,,,,,,,,,,,,,,,,,,,,,,,,
,,,,,,,,2023-08-16_08h47.46.151,HF_wild_card,2022.2.4,Win32,59.95922773,5c49e145e97243000194bace,64d2fd46c836a06233681665,64dc7ec64469f04705c86ce7,,,,,,,sngl,resources/Empty.png,resources/DR.BMP,Door1,0.358333333,-0.048148148,1,0,0,0.447,optionRight,30,9155,5,1,0,1,0,1,,,,,,,,,,,,,,,,,,,,,,,,,,,,,,,,,,,,,,,
,,,,,,,,2023-08-16_08h47.46.151,HF_wild_card,2022.2.4,Win32,59.95922773,5c49e145e97243000194bace,64d2fd46c836a06233681665,64dc7ec64469f04705c86ce7,,,,,,,sngl,resources/DBN.BMP,resources/Empty.png,Door2,-0.343518519,-0.017592593,1,0,0,0.3635,optionLeft,40,9195,5,2,0,2,0,1,,,,,,,,,,,,,,,,,,,,,,,,,,,,,,,,,,,,,,,
,,,,,,,,2023-08-16_08h47.46.151,HF_wild_card,2022.2.4,Win32,59.95922773,5c49e145e97243000194bace,64d2fd46c836a06233681665,64dc7ec64469f04705c86ce7,,,,,,,decisionTrl,resources/DG.BMP,resources/DB.BMP,Door4,0.264814815,0.018518519,1,0,0,0.5467,optionRight,80,9275,5,3,0,3,0,1,,,,,,,,,,,,,,,,,,,,,,,,,,,,,,,,,,,,,,,
,,,,,,,,2023-08-16_08h47.46.151,HF_wild_card,2022.2.4,Win32,59.95922773,5c49e145e97243000194bace,64d2fd46c836a06233681665,64dc7ec64469f04705c86ce7,,,,,,,decisionTrl,resources/DB.BMP,resources/DG.BMP,Door4,-0.287962963,-0.07962963,1,0,0,0.8134,optionLeft,80,9355,5,4,0,4,0,1,,,,,,,,,,,,,,,,,,,,,,,,,,,,,,,,,,,,,,,
,,,,,,,,2023-08-16_08h47.46.151,HF_wild_card,2022.2.4,Win32,59.95922773,5c49e145e97243000194bace,64d2fd46c836a06233681665,64dc7ec64469f04705c86ce7,,,,,,,sngl,resources/DG.BMP,resources/Empty.png,Door3,-0.15462963,-0.019444444,1,0,0,0.4468,optionLeft,70,9425,5,5,0,5,0,1,,,,,,,,,,,,,,,,,,,,,,,,,,,,,,,,,,,,,,,
,,,,,,,,2023-08-16_08h47.46.151,HF_wild_card,2022.2.4,Win32,59.95922773,5c49e145e97243000194bace,64d2fd46c836a06233681665,64dc7ec64469f04705c86ce7,,,,,,,sngl,resources/Empty.png,resources/DP.BMP,WildCard_Ex,0.368518519,-0.011111111,1,0,0,0.4297,optionRight,55,9480,5,6,0,6,0,1,,,,,,,,,,,,,,,,,,,,,,,,,,,,,,,,,,,,,,,
,,,,,,,,2023-08-16_08h47.46.151,HF_wild_card,2022.2.4,Win32,59.95922773,5c49e145e97243000194bace,64d2fd46c836a06233681665,64dc7ec64469f04705c86ce7,,,,,,,decisionTrl,resources/DP.BMP,resources/DB.BMP,Door4,0.512962963,0.02037037,1,0,0,0.797,optionRight,60,9540,5,7,0,7,0,1,,,,,,,,,,,,,,,,,,,,,,,,,,,,,,,,,,,,,,,
,,,,,,,,2023-08-16_08h47.46.151,HF_wild_card,2022.2.4,Win32,59.95922773,5c49e145e97243000194bace,64d2fd46c836a06233681665,64dc7ec64469f04705c86ce7,,,,,,,decisionTrl,resources/DB.BMP,resources/DG.BMP,Door4,-0.278703704,-0.043518519,1,0,0,0.446,optionLeft,80,9620,5,8,0,8,0,1,,,,,,,,,,,,,,,,,,,,,,,,,,,,,,,,,,,,,,,
,,,,,,,,2023-08-16_08h47.46.151,HF_wild_card,2022.2.4,Win32,59.95922773,5c49e145e97243000194bace,64d2fd46c836a06233681665,64dc7ec64469f04705c86ce7,,,,,,,sngl,resources/DR.BMP,resources/Empty.png,Door1,-0.216666667,-0.039814815,1,0,0,0.4136,optionLeft,30,9650,5,9,0,9,0,1,,,,,,,,,,,,,,,,,,,,,,,,,,,,,,,,,,,,,,,
,,,,,,,,2023-08-16_08h47.46.151,HF_wild_card,2022.2.4,Win32,59.95922773,5c49e145e97243000194bace,64d2fd46c836a06233681665,64dc7ec64469f04705c86ce7,,,,,,,ctch,resources/DBN.BMP,resources/DG.BMP,Door3,0.416666667,0.011111111,1,0,0,0.4969,optionRight,70,9720,5,10,0,10,0,1,,,,,,,,,,,,,,,,,,,,,,,,,,,,,,,,,,,,,,,
,,,,,,,,2023-08-16_08h47.46.151,HF_wild_card,2022.2.4,Win32,59.95922773,5c49e145e97243000194bace,64d2fd46c836a06233681665,64dc7ec64469f04705c86ce7,,,,,,,decisionTrl,resources/DR.BMP,resources/DBN.BMP,Door1,-0.291666667,-0.032407407,1,0,0,0.5802,optionLeft,30,9750,5,11,0,11,0,1,,,,,,,,,,,,,,,,,,,,,,,,,,,,,,,,,,,,,,,
,,,,,,,,2023-08-16_08h47.46.151,HF_wild_card,2022.2.4,Win32,59.95922773,5c49e145e97243000194bace,64d2fd46c836a06233681665,64dc7ec64469f04705c86ce7,,,,,,,decisionTrl,resources/DB.BMP,resources/DP.BMP,Door4,-0.375,-0.065740741,1,0,0,0.6972,optionLeft,80,9830,5,12,0,12,0,1,,,,,,,,,,,,,,,,,,,,,,,,,,,,,,,,,,,,,,,
,,,,,,,,2023-08-16_08h47.46.151,HF_wild_card,2022.2.4,Win32,59.95922773,5c49e145e97243000194bace,64d2fd46c836a06233681665,64dc7ec64469f04705c86ce7,,,,,,,decisionTrl,resources/DR.BMP,resources/DBN.BMP,Door1,-0.243518519,0.003703704,1,0,0,0.7129,optionLeft,30,9860,5,13,0,13,0,1,,,,,,,,,,,,,,,,,,,,,,,,,,,,,,,,,,,,,,,
,,,,,,,,2023-08-16_08h47.46.151,HF_wild_card,2022.2.4,Win32,59.95922773,5c49e145e97243000194bace,64d2fd46c836a06233681665,64dc7ec64469f04705c86ce7,,,,,,,decisionTrl,resources/DG.BMP,resources/DP.BMP,WildCard_Ex,0.274074074,-0.018518519,1,0,0,0.6471,optionRight,45,9905,5,14,0,14,0,1,,,,,,,,,,,,,,,,,,,,,,,,,,,,,,,,,,,,,,,
,,,,,,,,2023-08-16_08h47.46.151,HF_wild_card,2022.2.4,Win32,59.95922773,5c49e145e97243000194bace,64d2fd46c836a06233681665,64dc7ec64469f04705c86ce7,,,,,,,decisionTrl,resources/DBN.BMP,resources/DR.BMP,Door1,0.499074074,0.038888889,1,0,0,0.4973,optionRight,30,9935,5,15,0,15,0,1,,,,,,,,,,,,,,,,,,,,,,,,,,,,,,,,,,,,,,,
,,,,,,,,2023-08-16_08h47.46.151,HF_wild_card,2022.2.4,Win32,59.95922773,5c49e145e97243000194bace,64d2fd46c836a06233681665,64dc7ec64469f04705c86ce7,,,,,,,decisionTrl,resources/DP.BMP,resources/DG.BMP,Door3,0.310185185,-0.026851852,1,0,0,0.7306,optionRight,70,10005,5,16,0,16,0,1,,,,,,,,,,,,,,,,,,,,,,,,,,,,,,,,,,,,,,,
,,,,,,,,2023-08-16_08h47.46.151,HF_wild_card,2022.2.4,Win32,59.95922773,5c49e145e97243000194bace,64d2fd46c836a06233681665,64dc7ec64469f04705c86ce7,,,,,,,sngl,resources/Empty.png,resources/DBN.BMP,Door2,0.275925926,0.044444444,1,0,0,0.6637,optionRight,20,10025,5,17,0,17,0,1,,,,,,,,,,,,,,,,,,,,,,,,,,,,,,,,,,,,,,,
,,,,,,,,2023-08-16_08h47.46.151,HF_wild_card,2022.2.4,Win32,59.95922773,5c49e145e97243000194bace,64d2fd46c836a06233681665,64dc7ec64469f04705c86ce7,,,,,,,decisionTrl,resources/DP.BMP,resources/DBN.BMP,WildCard_Ex,-0.335185185,-0.038888889,1,0,0,0.4636,optionLeft,45,10070,5,18,0,18,0,1,,,,,,,,,,,,,,,,,,,,,,,,,,,,,,,,,,,,,,,
,,,,,,,,2023-08-16_08h47.46.151,HF_wild_card,2022.2.4,Win32,59.95922773,5c49e145e97243000194bace,64d2fd46c836a06233681665,64dc7ec64469f04705c86ce7,,,,,,,decisionTrl,resources/DBN.BMP,resources/DR.BMP,Door1,0.393518519,-0.026851852,1,0,0,0.4471,optionRight,30,10100,5,19,0,19,0,1,,,,,,,,,,,,,,,,,,,,,,,,,,,,,,,,,,,,,,,
,,,,,,,,2023-08-16_08h47.46.151,HF_wild_card,2022.2.4,Win32,59.95922773,5c49e145e97243000194bace,64d2fd46c836a06233681665,64dc7ec64469f04705c86ce7,,,,,,,ctch,resources/DB.BMP,resources/DR.BMP,Door4,-0.399074074,-0.059259259,1,0,0,0.5639,optionLeft,60,10160,5,20,0,20,0,1,,,,,,,,,,,,,,,,,,,,,,,,,,,,,,,,,,,,,,,
,,,,,,,,2023-08-16_08h47.46.151,HF_wild_card,2022.2.4,Win32,59.95922773,5c49e145e97243000194bace,64d2fd46c836a06233681665,64dc7ec64469f04705c86ce7,,,,,,,decisionTrl,resources/DR.BMP,resources/DBN.BMP,Door1,-0.257407407,-0.049074074,1,0,0,0.4135,optionLeft,30,10190,5,21,0,21,0,1,,,,,,,,,,,,,,,,,,,,,,,,,,,,,,,,,,,,,,,
,,,,,,,,2023-08-16_08h47.46.151,HF_wild_card,2022.2.4,Win32,59.95922773,5c49e145e97243000194bace,64d2fd46c836a06233681665,64dc7ec64469f04705c86ce7,,,,,,,ctch,resources/DBN.BMP,resources/DG.BMP,Door3,0.4,0.035185185,1,0,0,0.5798,optionRight,70,10260,5,22,0,22,0,1,,,,,,,,,,,,,,,,,,,,,,,,,,,,,,,,,,,,,,,
,,,,,,,,2023-08-16_08h47.46.151,HF_wild_card,2022.2.4,Win32,59.95922773,5c49e145e97243000194bace,64d2fd46c836a06233681665,64dc7ec64469f04705c86ce7,,,,,,,ctch,resources/DG.BMP,resources/DBN.BMP,Door3,-0.212962963,-0.000925926,1,0,0,0.3971,optionLeft,70,10330,5,23,0,23,0,1,,,,,,,,,,,,,,,,,,,,,,,,,,,,,,,,,,,,,,,
,,,,,,,,2023-08-16_08h47.46.151,HF_wild_card,2022.2.4,Win32,59.95922773,5c49e145e97243000194bace,64d2fd46c836a06233681665,64dc7ec64469f04705c86ce7,,,,,,,decisionTrl,resources/DBN.BMP,resources/DP.BMP,WildCard_Ex,0.398148148,0.026851852,1,0,0,0.4637,optionRight,45,10375,5,24,0,24,0,1,,,,,,,,,,,,,,,,,,,,,,,,,,,,,,,,,,,,,,,
,,,,,,,,2023-08-16_08h47.46.151,HF_wild_card,2022.2.4,Win32,59.95922773,5c49e145e97243000194bace,64d2fd46c836a06233681665,64dc7ec64469f04705c86ce7,,,,,,,decisionTrl,resources/DR.BMP,resources/DBN.BMP,Door1,-0.308333333,-0.058333333,1,0,0,0.4635,optionLeft,30,10405,5,25,0,25,0,1,,,,,,,,,,,,,,,,,,,,,,,,,,,,,,,,,,,,,,,
,,,,,,,,2023-08-16_08h47.46.151,HF_wild_card,2022.2.4,Win32,59.95922773,5c49e145e97243000194bace,64d2fd46c836a06233681665,64dc7ec64469f04705c86ce7,,,,,,,ctch,resources/DR.BMP,resources/DB.BMP,Door4,0.381481481,-0.006481481,1,0,0,0.3968,optionRight,80,10485,5,26,0,26,0,1,,,,,,,,,,,,,,,,,,,,,,,,,,,,,,,,,,,,,,,
,,,,,,,,2023-08-16_08h47.46.151,HF_wild_card,2022.2.4,Win32,59.95922773,5c49e145e97243000194bace,64d2fd46c836a06233681665,64dc7ec64469f04705c86ce7,,,,,,,decisionTrl,resources/DG.BMP,resources/DB.BMP,Door4,0.336111111,0.017592593,1,0,0,0.4302,optionRight,80,10565,5,27,0,27,0,1,,,,,,,,,,,,,,,,,,,,,,,,,,,,,,,,,,,,,,,
,,,,,,,,2023-08-16_08h47.46.151,HF_wild_card,2022.2.4,Win32,59.95922773,5c49e145e97243000194bace,64d2fd46c836a06233681665,64dc7ec64469f04705c86ce7,,,,,,,ctch,resources/DB.BMP,resources/DR.BMP,Door4,-0.257407407,-0.02037037,1,0,0,0.4302,optionLeft,60,10625,5,28,0,28,0,1,,,,,,,,,,,,,,,,,,,,,,,,,,,,,,,,,,,,,,,
,,,,,,,,2023-08-16_08h47.46.151,HF_wild_card,2022.2.4,Win32,59.95922773,5c49e145e97243000194bace,64d2fd46c836a06233681665,64dc7ec64469f04705c86ce7,,,,,,,decisionTrl,resources/DG.BMP,resources/DB.BMP,Door4,0.260185185,0.027777778,1,0,0,0.4466,optionRight,80,10705,5,29,0,29,0,1,,,,,,,,,,,,,,,,,,,,,,,,,,,,,,,,,,,,,,,
,,,,,,,,2023-08-16_08h47.46.151,HF_wild_card,2022.2.4,Win32,59.95922773,5c49e145e97243000194bace,64d2fd46c836a06233681665,64dc7ec64469f04705c86ce7,,,,,,,sngl,resources/Empty.png,resources/DG.BMP,Door3,0.265740741,0.00462963,1,0,0,0.5636,optionRight,70,10775,5,30,0,30,0,1,,,,,,,,,,,,,,,,,,,,,,,,,,,,,,,,,,,,,,,
,,,,,,,,2023-08-16_08h47.46.151,HF_wild_card,2022.2.4,Win32,59.95922773,5c49e145e97243000194bace,64d2fd46c836a06233681665,64dc7ec64469f04705c86ce7,,,,,,,decisionTrl,resources/DG.BMP,resources/DB.BMP,Door4,0.199074074,-0.016666667,1,0,0,0.4803,optionRight,60,10835,5,31,0,31,0,1,,,,,,,,,,,,,,,,,,,,,,,,,,,,,,,,,,,,,,,
,,,,,,,,2023-08-16_08h47.46.151,HF_wild_card,2022.2.4,Win32,59.95922773,5c49e145e97243000194bace,64d2fd46c836a06233681665,64dc7ec64469f04705c86ce7,,,,,,,decisionTrl,resources/DB.BMP,resources/DG.BMP,Door4,-0.190740741,-0.036111111,1,0,0,0.5469,optionLeft,60,10895,5,32,0,32,0,1,,,,,,,,,,,,,,,,,,,,,,,,,,,,,,,,,,,,,,,
,,,,,,,,2023-08-16_08h47.46.151,HF_wild_card,2022.2.4,Win32,59.95922773,5c49e145e97243000194bace,64d2fd46c836a06233681665,64dc7ec64469f04705c86ce7,,,,,,,ctch,resources/DR.BMP,resources/DB.BMP,Door4,0.443518519,-0.012037037,1,0,0,0.4135,optionRight,60,10955,5,33,0,33,0,1,,,,,,,,,,,,,,,,,,,,,,,,,,,,,,,,,,,,,,,
,,,,,,,,2023-08-16_08h47.46.151,HF_wild_card,2022.2.4,Win32,59.95922773,5c49e145e97243000194bace,64d2fd46c836a06233681665,64dc7ec64469f04705c86ce7,,,,,,,sngl,resources/DP.BMP,resources/Empty.png,WildCard_Ex,-0.440740741,0.000925926,1,0,0,0.4469,optionLeft,45,11000,5,34,0,34,0,1,,,,,,,,,,,,,,,,,,,,,,,,,,,,,,,,,,,,,,,
,,,,,,,,2023-08-16_08h47.46.151,HF_wild_card,2022.2.4,Win32,59.95922773,5c49e145e97243000194bace,64d2fd46c836a06233681665,64dc7ec64469f04705c86ce7,,,,,,,sngl,resources/DP.BMP,resources/Empty.png,WildCard_Ex,-0.286111111,-0.04537037,1,0,0,0.4306,optionLeft,55,11055,5,35,0,35,0,1,,,,,,,,,,,,,,,,,,,,,,,,,,,,,,,,,,,,,,,
,,,,,,,,2023-08-16_08h47.46.151,HF_wild_card,2022.2.4,Win32,59.95922773,5c49e145e97243000194bace,64d2fd46c836a06233681665,64dc7ec64469f04705c86ce7,,,,,,,sngl,resources/DB.BMP,resources/Empty.png,Door4,-0.276851852,-0.09537037,1,0,0,0.4137,optionLeft,80,11135,5,36,0,36,0,1,,,,,,,,,,,,,,,,,,,,,,,,,,,,,,,,,,,,,,,
,,,,,,,,2023-08-16_08h47.46.151,HF_wild_card,2022.2.4,Win32,59.95922773,5c49e145e97243000194bace,64d2fd46c836a06233681665,64dc7ec64469f04705c86ce7,,,,,,,decisionTrl,resources/DB.BMP,resources/DG.BMP,Door4,-0.169444444,-0.02962963,1,0,0,0.3638,optionLeft,60,11195,5,37,0,37,0,1,,,,,,,,,,,,,,,,,,,,,,,,,,,,,,,,,,,,,,,
,,,,,,,,2023-08-16_08h47.46.151,HF_wild_card,2022.2.4,Win32,59.95922773,5c49e145e97243000194bace,64d2fd46c836a06233681665,64dc7ec64469f04705c86ce7,,,,,,,decisionTrl,resources/DBN.BMP,resources/DR.BMP,Door1,0.4,-0.014814815,1,0,0,0.5454,optionRight,30,11225,5,38,0,38,0,1,,,,,,,,,,,,,,,,,,,,,,,,,,,,,,,,,,,,,,,
,,,,,,,,2023-08-16_08h47.46.151,HF_wild_card,2022.2.4,Win32,59.95922773,5c49e145e97243000194bace,64d2fd46c836a06233681665,64dc7ec64469f04705c86ce7,,,,,,,sngl,resources/Empty.png,resources/DB.BMP,Door4,0.422222222,-0.011111111,1,0,0,0.4137,optionRight,60,11285,5,39,0,39,0,1,,,,,,,,,,,,,,,,,,,,,,,,,,,,,,,,,,,,,,,
,,,,,,,,2023-08-16_08h47.46.151,HF_wild_card,2022.2.4,Win32,59.95922773,5c49e145e97243000194bace,64d2fd46c836a06233681665,64dc7ec64469f04705c86ce7,,,,,,,ctch,resources/DG.BMP,resources/DBN.BMP,Door3,-0.147222222,-0.012962963,1,0,0,0.4127,optionLeft,70,11355,5,40,0,40,0,1,,,,,,,,,,,,,,,,,,,,,,,,,,,,,,,,,,,,,,,
,,,,,,,,2023-08-16_08h47.46.151,HF_wild_card,2022.2.4,Win32,59.95922773,5c49e145e97243000194bace,64d2fd46c836a06233681665,64dc7ec64469f04705c86ce7,,,,,,,decisionTrl,resources/DR.BMP,resources/DP.BMP,WildCard_Ex,0.292592593,-0.014814815,1,0,0,0.5801,optionRight,55,11410,5,41,0,41,0,1,,,,,,,,,,,,,,,,,,,,,,,,,,,,,,,,,,,,,,,
,,,,,,,,2023-08-16_08h47.46.151,HF_wild_card,2022.2.4,Win32,59.95922773,5c49e145e97243000194bace,64d2fd46c836a06233681665,64dc7ec64469f04705c86ce7,,,,,,,sngl,resources/Empty.png,resources/DP.BMP,WildCard_Ex,0.332407407,-0.031481481,1,0,0,0.4138,optionRight,45,11455,5,42,0,42,0,1,,,,,,,,,,,,,,,,,,,,,,,,,,,,,,,,,,,,,,,
,,,,,,,,2023-08-16_08h47.46.151,HF_wild_card,2022.2.4,Win32,59.95922773,5c49e145e97243000194bace,64d2fd46c836a06233681665,64dc7ec64469f04705c86ce7,,,,,,,decisionTrl,resources/DP.BMP,resources/DR.BMP,WildCard_Ex,-0.197222222,-0.017592593,1,0,0,0.4299,optionLeft,45,11500,5,43,0,43,0,1,,,,,,,,,,,,,,,,,,,,,,,,,,,,,,,,,,,,,,,
,,,,,,,,2023-08-16_08h47.46.151,HF_wild_card,2022.2.4,Win32,59.95922773,5c49e145e97243000194bace,64d2fd46c836a06233681665,64dc7ec64469f04705c86ce7,,,,,,,,,,,,,,,,,,,,,,,,,,4,0,4,0,1,,,,,,,,,,,,,,,,,,,,,,,,,,,,,,,,,,
,,,,,,,,2023-08-16_08h47.46.151,HF_wild_card,2022.2.4,Win32,59.95922773,5c49e145e97243000194bace,64d2fd46c836a06233681665,64dc7ec64469f04705c86ce7,,,,,,,sngl,resources/Empty.png,resources/DG.BMP,Door3,0.366666667,-0.07037037,1,0,0,0.4955,optionRight,70,11570,6,0,0,0,0,1,,,,,,,,,,,,,,,,,,,,,,,,,,,,,,,,,,,,,,,
,,,,,,,,2023-08-16_08h47.46.151,HF_wild_card,2022.2.4,Win32,59.95922773,5c49e145e97243000194bace,64d2fd46c836a06233681665,64dc7ec64469f04705c86ce7,,,,,,,decisionTrl,resources/DR.BMP,resources/DBN.BMP,Door1,-0.272222222,-0.031481481,1,0,0,0.4797,optionLeft,30,11600,6,1,0,1,0,1,,,,,,,,,,,,,,,,,,,,,,,,,,,,,,,,,,,,,,,
,,,,,,,,2023-08-16_08h47.46.151,HF_wild_card,2022.2.4,Win32,59.95922773,5c49e145e97243000194bace,64d2fd46c836a06233681665,64dc7ec64469f04705c86ce7,,,,,,,sngl,resources/Empty.png,resources/DP.BMP,WildCard_Ex,0.433333333,-0.021296296,1,0,0,0.3804,optionRight,45,11645,6,2,0,2,0,1,,,,,,,,,,,,,,,,,,,,,,,,,,,,,,,,,,,,,,,
,,,,,,,,2023-08-16_08h47.46.151,HF_wild_card,2022.2.4,Win32,59.95922773,5c49e145e97243000194bace,64d2fd46c836a06233681665,64dc7ec64469f04705c86ce7,,,,,,,ctch,resources/DR.BMP,resources/DB.BMP,Door4,0.472222222,0.019444444,1,0,0,0.5966,optionRight,60,11705,6,3,0,3,0,1,,,,,,,,,,,,,,,,,,,,,,,,,,,,,,,,,,,,,,,
,,,,,,,,2023-08-16_08h47.46.151,HF_wild_card,2022.2.4,Win32,59.95922773,5c49e145e97243000194bace,64d2fd46c836a06233681665,64dc7ec64469f04705c86ce7,,,,,,,decisionTrl,resources/DB.BMP,resources/DG.BMP,Door4,-0.175925926,-0.007407407,1,0,0,0.4301,optionLeft,60,11765,6,4,0,4,0,1,,,,,,,,,,,,,,,,,,,,,,,,,,,,,,,,,,,,,,,
,,,,,,,,2023-08-16_08h47.46.151,HF_wild_card,2022.2.4,Win32,59.95922773,5c49e145e97243000194bace,64d2fd46c836a06233681665,64dc7ec64469f04705c86ce7,,,,,,,decisionTrl,resources/DG.BMP,resources/DB.BMP,Door4,0.587037037,0.011111111,1,0,0,0.4139,optionRight,60,11825,6,5,0,5,0,1,,,,,,,,,,,,,,,,,,,,,,,,,,,,,,,,,,,,,,,
,,,,,,,,2023-08-16_08h47.46.151,HF_wild_card,2022.2.4,Win32,59.95922773,5c49e145e97243000194bace,64d2fd46c836a06233681665,64dc7ec64469f04705c86ce7,,,,,,,sngl,resources/DP.BMP,resources/Empty.png,WildCard_Ex,-0.222222222,0.011111111,1,0,0,0.3965,optionLeft,45,11870,6,6,0,6,0,1,,,,,,,,,,,,,,,,,,,,,,,,,,,,,,,,,,,,,,,
,,,,,,,,2023-08-16_08h47.46.151,HF_wild_card,2022.2.4,Win32,59.95922773,5c49e145e97243000194bace,64d2fd46c836a06233681665,64dc7ec64469f04705c86ce7,,,,,,,decisionTrl,resources/DR.BMP,resources/DBN.BMP,Door1,-0.209259259,-0.030555556,1,0,0,0.4302,optionLeft,30,11900,6,7,0,7,0,1,,,,,,,,,,,,,,,,,,,,,,,,,,,,,,,,,,,,,,,
,,,,,,,,2023-08-16_08h47.46.151,HF_wild_card,2022.2.4,Win32,59.95922773,5c49e145e97243000194bace,64d2fd46c836a06233681665,64dc7ec64469f04705c86ce7,,,,,,,decisionTrl,resources/DR.BMP,resources/DBN.BMP,Door1,-0.171296296,-0.058333333,1,0,0,0.3797,optionLeft,30,11930,6,8,0,8,0,1,,,,,,,,,,,,,,,,,,,,,,,,,,,,,,,,,,,,,,,
,,,,,,,,2023-08-16_08h47.46.151,HF_wild_card,2022.2.4,Win32,59.95922773,5c49e145e97243000194bace,64d2fd46c836a06233681665,64dc7ec64469f04705c86ce7,,,,,,,decisionTrl,resources/DBN.BMP,resources/DR.BMP,Door1,0.575925926,0.002777778,1,0,0,0.5971,optionRight,30,11960,6,9,0,9,0,1,,,,,,,,,,,,,,,,,,,,,,,,,,,,,,,,,,,,,,,
,,,,,,,,2023-08-16_08h47.46.151,HF_wild_card,2022.2.4,Win32,59.95922773,5c49e145e97243000194bace,64d2fd46c836a06233681665,64dc7ec64469f04705c86ce7,,,,,,,ctch,resources/DBN.BMP,resources/DG.BMP,Door3,0.369444444,0.042592593,1,0,0,0.4469,optionRight,70,12030,6,10,0,10,0,1,,,,,,,,,,,,,,,,,,,,,,,,,,,,,,,,,,,,,,,
,,,,,,,,2023-08-16_08h47.46.151,HF_wild_card,2022.2.4,Win32,59.95922773,5c49e145e97243000194bace,64d2fd46c836a06233681665,64dc7ec64469f04705c86ce7,,,,,,,decisionTrl,resources/DBN.BMP,resources/DR.BMP,Door1,0.325925926,0.037037037,1,0,0,0.547,optionRight,30,12060,6,11,0,11,0,1,,,,,,,,,,,,,,,,,,,,,,,,,,,,,,,,,,,,,,,
,,,,,,,,2023-08-16_08h47.46.151,HF_wild_card,2022.2.4,Win32,59.95922773,5c49e145e97243000194bace,64d2fd46c836a06233681665,64dc7ec64469f04705c86ce7,,,,,,,decisionTrl,resources/DB.BMP,resources/DG.BMP,Door4,-0.410185185,0.00462963,1,0,0,0.8638,optionLeft,60,12120,6,12,0,12,0,1,,,,,,,,,,,,,,,,,,,,,,,,,,,,,,,,,,,,,,,
,,,,,,,,2023-08-16_08h47.46.151,HF_wild_card,2022.2.4,Win32,59.95922773,5c49e145e97243000194bace,64d2fd46c836a06233681665,64dc7ec64469f04705c86ce7,,,,,,,ctch,resources/DBN.BMP,resources/DG.BMP,Door3,0.375925926,0.037962963,1,0,0,0.4972,optionRight,70,12190,6,13,0,13,0,1,,,,,,,,,,,,,,,,,,,,,,,,,,,,,,,,,,,,,,,
,,,,,,,,2023-08-16_08h47.46.151,HF_wild_card,2022.2.4,Win32,59.95922773,5c49e145e97243000194bace,64d2fd46c836a06233681665,64dc7ec64469f04705c86ce7,,,,,,,sngl,resources/Empty.png,resources/DB.BMP,Door4,0.397222222,-0.012962963,1,0,0,0.4137,optionRight,80,12270,6,14,0,14,0,1,,,,,,,,,,,,,,,,,,,,,,,,,,,,,,,,,,,,,,,
,,,,,,,,2023-08-16_08h47.46.151,HF_wild_card,2022.2.4,Win32,59.95922773,5c49e145e97243000194bace,64d2fd46c836a06233681665,64dc7ec64469f04705c86ce7,,,,,,,sngl,resources/DR.BMP,resources/Empty.png,Door1,-0.32962963,-0.033333333,1,0,0,0.5638,optionLeft,30,12300,6,15,0,15,0,1,,,,,,,,,,,,,,,,,,,,,,,,,,,,,,,,,,,,,,,
,,,,,,,,2023-08-16_08h47.46.151,HF_wild_card,2022.2.4,Win32,59.95922773,5c49e145e97243000194bace,64d2fd46c836a06233681665,64dc7ec64469f04705c86ce7,,,,,,,sngl,resources/Empty.png,resources/DR.BMP,Door1,0.343518519,-0.034259259,1,0,0,0.4473,optionRight,30,12330,6,16,0,16,0,1,,,,,,,,,,,,,,,,,,,,,,,,,,,,,,,,,,,,,,,
,,,,,,,,2023-08-16_08h47.46.151,HF_wild_card,2022.2.4,Win32,59.95922773,5c49e145e97243000194bace,64d2fd46c836a06233681665,64dc7ec64469f04705c86ce7,,,,,,,decisionTrl,resources/DP.BMP,resources/DB.BMP,Door4,0.487037037,0.006481481,1,0,0,0.6137,optionRight,60,12390,6,17,0,17,0,1,,,,,,,,,,,,,,,,,,,,,,,,,,,,,,,,,,,,,,,
,,,,,,,,2023-08-16_08h47.46.151,HF_wild_card,2022.2.4,Win32,59.95922773,5c49e145e97243000194bace,64d2fd46c836a06233681665,64dc7ec64469f04705c86ce7,,,,,,,sngl,resources/DP.BMP,resources/Empty.png,WildCard_Ex,-0.198148148,-0.023148148,1,0,0,0.3801,optionLeft,55,12445,6,18,0,18,0,1,,,,,,,,,,,,,,,,,,,,,,,,,,,,,,,,,,,,,,,
,,,,,,,,2023-08-16_08h47.46.151,HF_wild_card,2022.2.4,Win32,59.95922773,5c49e145e97243000194bace,64d2fd46c836a06233681665,64dc7ec64469f04705c86ce7,,,,,,,decisionTrl,resources/DG.BMP,resources/DP.BMP,WildCard_Ex,0.385185185,-0.009259259,1,0,0,0.7138,optionRight,45,12490,6,19,0,19,0,1,,,,,,,,,,,,,,,,,,,,,,,,,,,,,,,,,,,,,,,
,,,,,,,,2023-08-16_08h47.46.151,HF_wild_card,2022.2.4,Win32,59.95922773,5c49e145e97243000194bace,64d2fd46c836a06233681665,64dc7ec64469f04705c86ce7,,,,,,,decisionTrl,resources/DG.BMP,resources/DB.BMP,Door4,0.432407407,0.010185185,1,0,0,0.4967,optionRight,60,12550,6,20,0,20,0,1,,,,,,,,,,,,,,,,,,,,,,,,,,,,,,,,,,,,,,,
,,,,,,,,2023-08-16_08h47.46.151,HF_wild_card,2022.2.4,Win32,59.95922773,5c49e145e97243000194bace,64d2fd46c836a06233681665,64dc7ec64469f04705c86ce7,,,,,,,decisionTrl,resources/DG.BMP,resources/DB.BMP,Door4,0.298148148,-0.026851852,1,0,0,0.6969,optionRight,60,12610,6,21,0,21,0,1,,,,,,,,,,,,,,,,,,,,,,,,,,,,,,,,,,,,,,,
,,,,,,,,2023-08-16_08h47.46.151,HF_wild_card,2022.2.4,Win32,59.95922773,5c49e145e97243000194bace,64d2fd46c836a06233681665,64dc7ec64469f04705c86ce7,,,,,,,decisionTrl,resources/DR.BMP,resources/DBN.BMP,Door1,-0.334259259,-0.039814815,1,0,0,0.6633,optionLeft,30,12640,6,22,0,22,0,1,,,,,,,,,,,,,,,,,,,,,,,,,,,,,,,,,,,,,,,
,,,,,,,,2023-08-16_08h47.46.151,HF_wild_card,2022.2.4,Win32,59.95922773,5c49e145e97243000194bace,64d2fd46c836a06233681665,64dc7ec64469f04705c86ce7,,,,,,,decisionTrl,resources/DBN.BMP,resources/DR.BMP,Door1,0.155555556,-0.015740741,1,0,0,0.4636,optionRight,30,12670,6,23,0,23,0,1,,,,,,,,,,,,,,,,,,,,,,,,,,,,,,,,,,,,,,,
,,,,,,,,2023-08-16_08h47.46.151,HF_wild_card,2022.2.4,Win32,59.95922773,5c49e145e97243000194bace,64d2fd46c836a06233681665,64dc7ec64469f04705c86ce7,,,,,,,ctch,resources/DR.BMP,resources/DB.BMP,Door4,0.335185185,-0.003703704,1,0,0,0.4636,optionRight,80,12750,6,24,0,24,0,1,,,,,,,,,,,,,,,,,,,,,,,,,,,,,,,,,,,,,,,
,,,,,,,,2023-08-16_08h47.46.151,HF_wild_card,2022.2.4,Win32,59.95922773,5c49e145e97243000194bace,64d2fd46c836a06233681665,64dc7ec64469f04705c86ce7,,,,,,,ctch,resources/DG.BMP,resources/DBN.BMP,Door3,-0.276851852,-0.033333333,1,0,0,0.5135,optionLeft,70,12820,6,25,0,25,0,1,,,,,,,,,,,,,,,,,,,,,,,,,,,,,,,,,,,,,,,
,,,,,,,,2023-08-16_08h47.46.151,HF_wild_card,2022.2.4,Win32,59.95922773,5c49e145e97243000194bace,64d2fd46c836a06233681665,64dc7ec64469f04705c86ce7,,,,,,,decisionTrl,resources/DBN.BMP,resources/DR.BMP,Door1,0.405555556,0.008333333,1,0,0,0.464,optionRight,30,12850,6,26,0,26,0,1,,,,,,,,,,,,,,,,,,,,,,,,,,,,,,,,,,,,,,,
,,,,,,,,2023-08-16_08h47.46.151,HF_wild_card,2022.2.4,Win32,59.95922773,5c49e145e97243000194bace,64d2fd46c836a06233681665,64dc7ec64469f04705c86ce7,,,,,,,decisionTrl,resources/DG.BMP,resources/DB.BMP,Door4,0.469444444,-0.016666667,1,0,0,0.4801,optionRight,60,12910,6,27,0,27,0,1,,,,,,,,,,,,,,,,,,,,,,,,,,,,,,,,,,,,,,,
,,,,,,,,2023-08-16_08h47.46.151,HF_wild_card,2022.2.4,Win32,59.95922773,5c49e145e97243000194bace,64d2fd46c836a06233681665,64dc7ec64469f04705c86ce7,,,,,,,sngl,resources/Empty.png,resources/DP.BMP,WildCard_Ex,0.372222222,-0.008333333,1,0,0,0.4303,optionRight,55,12965,6,28,0,28,0,1,,,,,,,,,,,,,,,,,,,,,,,,,,,,,,,,,,,,,,,
,,,,,,,,2023-08-16_08h47.46.151,HF_wild_card,2022.2.4,Win32,59.95922773,5c49e145e97243000194bace,64d2fd46c836a06233681665,64dc7ec64469f04705c86ce7,,,,,,,decisionTrl,resources/DB.BMP,resources/DG.BMP,Door4,-0.350925926,-0.071296296,1,0,0,0.7545,optionLeft,80,13045,6,29,0,29,0,1,,,,,,,,,,,,,,,,,,,,,,,,,,,,,,,,,,,,,,,
,,,,,,,,2023-08-16_08h47.46.151,HF_wild_card,2022.2.4,Win32,59.95922773,5c49e145e97243000194bace,64d2fd46c836a06233681665,64dc7ec64469f04705c86ce7,,,,,,,decisionTrl,resources/DR.BMP,resources/DP.BMP,WildCard_Ex,0.237962963,0.075,1,0,0,0.4805,optionRight,45,13090,6,30,0,30,0,1,,,,,,,,,,,,,,,,,,,,,,,,,,,,,,,,,,,,,,,
,,,,,,,,2023-08-16_08h47.46.151,HF_wild_card,2022.2.4,Win32,59.95922773,5c49e145e97243000194bace,64d2fd46c836a06233681665,64dc7ec64469f04705c86ce7,,,,,,,ctch,resources/DG.BMP,resources/DBN.BMP,Door3,-0.283333333,-0.042592593,1,0,0,0.3133,optionLeft,70,13160,6,31,0,31,0,1,,,,,,,,,,,,,,,,,,,,,,,,,,,,,,,,,,,,,,,
,,,,,,,,2023-08-16_08h47.46.151,HF_wild_card,2022.2.4,Win32,59.95922773,5c49e145e97243000194bace,64d2fd46c836a06233681665,64dc7ec64469f04705c86ce7,,,,,,,sngl,resources/DBN.BMP,resources/Empty.png,Door2,-0.44537037,-0.119444444,1,0,0,0.4637,optionLeft,20,13180,6,32,0,32,0,1,,,,,,,,,,,,,,,,,,,,,,,,,,,,,,,,,,,,,,,
,,,,,,,,2023-08-16_08h47.46.151,HF_wild_card,2022.2.4,Win32,59.95922773,5c49e145e97243000194bace,64d2fd46c836a06233681665,64dc7ec64469f04705c86ce7,,,,,,,ctch,resources/DB.BMP,resources/DR.BMP,Door4,-0.257407407,-0.086111111,1,0,0,0.3966,optionLeft,60,13240,6,33,0,33,0,1,,,,,,,,,,,,,,,,,,,,,,,,,,,,,,,,,,,,,,,
,,,,,,,,2023-08-16_08h47.46.151,HF_wild_card,2022.2.4,Win32,59.95922773,5c49e145e97243000194bace,64d2fd46c836a06233681665,64dc7ec64469f04705c86ce7,,,,,,,sngl,resources/Empty.png,resources/DBN.BMP,Door2,0.331481481,0.028703704,1,0,0,0.4296,optionRight,40,13280,6,34,0,34,0,1,,,,,,,,,,,,,,,,,,,,,,,,,,,,,,,,,,,,,,,
,,,,,,,,2023-08-16_08h47.46.151,HF_wild_card,2022.2.4,Win32,59.95922773,5c49e145e97243000194bace,64d2fd46c836a06233681665,64dc7ec64469f04705c86ce7,,,,,,,decisionTrl,resources/DP.BMP,resources/DG.BMP,WildCard_Ex,-0.467592593,-0.139814815,1,0,0,0.5139,optionLeft,45,13325,6,35,0,35,0,1,,,,,,,,,,,,,,,,,,,,,,,,,,,,,,,,,,,,,,,
,,,,,,,,2023-08-16_08h47.46.151,HF_wild_card,2022.2.4,Win32,59.95922773,5c49e145e97243000194bace,64d2fd46c836a06233681665,64dc7ec64469f04705c86ce7,,,,,,,decisionTrl,resources/DP.BMP,resources/DR.BMP,WildCard_Ex,-0.306481481,-0.076851852,1,0,0,0.714,optionLeft,55,13380,6,36,0,36,0,1,,,,,,,,,,,,,,,,,,,,,,,,,,,,,,,,,,,,,,,
,,,,,,,,2023-08-16_08h47.46.151,HF_wild_card,2022.2.4,Win32,59.95922773,5c49e145e97243000194bace,64d2fd46c836a06233681665,64dc7ec64469f04705c86ce7,,,,,,,decisionTrl,resources/DBN.BMP,resources/DP.BMP,WildCard_Ex,0.113888889,-0.037962963,1,0,0,0.4802,optionRight,45,13425,6,37,0,37,0,1,,,,,,,,,,,,,,,,,,,,,,,,,,,,,,,,,,,,,,,
,,,,,,,,2023-08-16_08h47.46.151,HF_wild_card,2022.2.4,Win32,59.95922773,5c49e145e97243000194bace,64d2fd46c836a06233681665,64dc7ec64469f04705c86ce7,,,,,,,decisionTrl,resources/DB.BMP,resources/DP.BMP,Door4,-0.151851852,-0.008333333,1,0,0,1.0304,optionLeft,60,13485,6,38,0,38,0,1,,,,,,,,,,,,,,,,,,,,,,,,,,,,,,,,,,,,,,,
,,,,,,,,2023-08-16_08h47.46.151,HF_wild_card,2022.2.4,Win32,59.95922773,5c49e145e97243000194bace,64d2fd46c836a06233681665,64dc7ec64469f04705c86ce7,,,,,,,decisionTrl,resources/DP.BMP,resources/DBN.BMP,WildCard_Ex,-0.435185185,-0.043518519,1,0,0,0.4134,optionLeft,55,13540,6,39,0,39,0,1,,,,,,,,,,,,,,,,,,,,,,,,,,,,,,,,,,,,,,,
,,,,,,,,2023-08-16_08h47.46.151,HF_wild_card,2022.2.4,Win32,59.95922773,5c49e145e97243000194bace,64d2fd46c836a06233681665,64dc7ec64469f04705c86ce7,,,,,,,decisionTrl,resources/DB.BMP,resources/DG.BMP,Door4,-0.201851852,-0.04537037,1,0,0,0.5135,optionLeft,60,13600,6,40,0,40,0,1,,,,,,,,,,,,,,,,,,,,,,,,,,,,,,,,,,,,,,,
,,,,,,,,2023-08-16_08h47.46.151,HF_wild_card,2022.2.4,Win32,59.95922773,5c49e145e97243000194bace,64d2fd46c836a06233681665,64dc7ec64469f04705c86ce7,,,,,,,ctch,resources/DB.BMP,resources/DR.BMP,Door4,-0.400925926,-0.046296296,1,0,0,0.3971,optionLeft,60,13660,6,41,0,41,0,1,,,,,,,,,,,,,,,,,,,,,,,,,,,,,,,,,,,,,,,
,,,,,,,,2023-08-16_08h47.46.151,HF_wild_card,2022.2.4,Win32,59.95922773,5c49e145e97243000194bace,64d2fd46c836a06233681665,64dc7ec64469f04705c86ce7,,,,,,,sngl,resources/DG.BMP,resources/Empty.png,Door3,-0.233333333,-0.038888889,1,0,0,0.3635,optionLeft,70,13730,6,42,0,42,0,1,,,,,,,,,,,,,,,,,,,,,,,,,,,,,,,,,,,,,,,
,,,,,,,,2023-08-16_08h47.46.151,HF_wild_card,2022.2.4,Win32,59.95922773,5c49e145e97243000194bace,64d2fd46c836a06233681665,64dc7ec64469f04705c86ce7,,,,,,,sngl,resources/DB.BMP,resources/Empty.png,Door4,-0.392592593,-0.050925926,1,0,0,0.3802,optionLeft,60,13790,6,43,0,43,0,1,,,,,,,,,,,,,,,,,,,,,,,,,,,,,,,,,,,,,,,
,,,,,,,,2023-08-16_08h47.46.151,HF_wild_card,2022.2.4,Win32,59.95922773,5c49e145e97243000194bace,64d2fd46c836a06233681665,64dc7ec64469f04705c86ce7,,,,,,,,,,,,,,,,,,,,,,,,,,5,0,5,0,1,,,,,,,,,,,,,,,,,,,,,,,,,,,,,,,,,,
,,,,,,,,2023-08-16_08h47.46.151,HF_wild_card,2022.2.4,Win32,59.95922773,5c49e145e97243000194bace,64d2fd46c836a06233681665,64dc7ec64469f04705c86ce7,,,,,,,ctch,resources/DR.BMP,resources/DB.BMP,Door4,0.285185185,-0.055555556,1,0,0,0.5689,optionRight,60,13850,7,0,0,0,0,1,,,,,,,,,,,,,,,,,,,,,,,,,,,,,,,,,,,,,,,
,,,,,,,,2023-08-16_08h47.46.151,HF_wild_card,2022.2.4,Win32,59.95922773,5c49e145e97243000194bace,64d2fd46c836a06233681665,64dc7ec64469f04705c86ce7,,,,,,,decisionTrl,resources/DB.BMP,resources/DG.BMP,Door4,-0.336111111,-0.043518519,1,0,0,0.3985,optionLeft,80,13930,7,1,0,1,0,1,,,,,,,,,,,,,,,,,,,,,,,,,,,,,,,,,,,,,,,
,,,,,,,,2023-08-16_08h47.46.151,HF_wild_card,2022.2.4,Win32,59.95922773,5c49e145e97243000194bace,64d2fd46c836a06233681665,64dc7ec64469f04705c86ce7,,,,,,,decisionTrl,resources/DR.BMP,resources/DBN.BMP,Door1,-0.311111111,-0.062037037,1,0,0,0.4317,optionLeft,30,13960,7,2,0,2,0,1,,,,,,,,,,,,,,,,,,,,,,,,,,,,,,,,,,,,,,,
,,,,,,,,2023-08-16_08h47.46.151,HF_wild_card,2022.2.4,Win32,59.95922773,5c49e145e97243000194bace,64d2fd46c836a06233681665,64dc7ec64469f04705c86ce7,,,,,,,ctch,resources/DR.BMP,resources/DB.BMP,Door4,0.29537037,0.021296296,1,0,0,0.4648,optionRight,60,14020,7,3,0,3,0,1,,,,,,,,,,,,,,,,,,,,,,,,,,,,,,,,,,,,,,,
,,,,,,,,2023-08-16_08h47.46.151,HF_wild_card,2022.2.4,Win32,59.95922773,5c49e145e97243000194bace,64d2fd46c836a06233681665,64dc7ec64469f04705c86ce7,,,,,,,ctch,resources/DG.BMP,resources/DBN.BMP,Door3,-0.243518519,-0.039814815,1,0,0,0.3986,optionLeft,70,14090,7,4,0,4,0,1,,,,,,,,,,,,,,,,,,,,,,,,,,,,,,,,,,,,,,,
,,,,,,,,2023-08-16_08h47.46.151,HF_wild_card,2022.2.4,Win32,59.95922773,5c49e145e97243000194bace,64d2fd46c836a06233681665,64dc7ec64469f04705c86ce7,,,,,,,decisionTrl,resources/DBN.BMP,resources/DR.BMP,Door1,0.287037037,-0.012962963,1,0,0,0.5301,optionRight,30,14120,7,5,0,5,0,1,,,,,,,,,,,,,,,,,,,,,,,,,,,,,,,,,,,,,,,
,,,,,,,,2023-08-16_08h47.46.151,HF_wild_card,2022.2.4,Win32,59.95922773,5c49e145e97243000194bace,64d2fd46c836a06233681665,64dc7ec64469f04705c86ce7,,,,,,,decisionTrl,resources/DG.BMP,resources/DB.BMP,Door4,0.232407407,-0.025,1,0,0,0.4649,optionRight,80,14200,7,6,0,6,0,1,,,,,,,,,,,,,,,,,,,,,,,,,,,,,,,,,,,,,,,
,,,,,,,,2023-08-16_08h47.46.151,HF_wild_card,2022.2.4,Win32,59.95922773,5c49e145e97243000194bace,64d2fd46c836a06233681665,64dc7ec64469f04705c86ce7,,,,,,,decisionTrl,resources/DB.BMP,resources/DG.BMP,Door4,-0.182407407,-0.02037037,1,0,0,0.5148,optionLeft,60,14260,7,7,0,7,0,1,,,,,,,,,,,,,,,,,,,,,,,,,,,,,,,,,,,,,,,
,,,,,,,,2023-08-16_08h47.46.151,HF_wild_card,2022.2.4,Win32,59.95922773,5c49e145e97243000194bace,64d2fd46c836a06233681665,64dc7ec64469f04705c86ce7,,,,,,,ctch,resources/DB.BMP,resources/DR.BMP,Door4,-0.214814815,-0.024074074,1,0,0,0.4323,optionLeft,80,14340,7,8,0,8,0,1,,,,,,,,,,,,,,,,,,,,,,,,,,,,,,,,,,,,,,,
,,,,,,,,2023-08-16_08h47.46.151,HF_wild_card,2022.2.4,Win32,59.95922773,5c49e145e97243000194bace,64d2fd46c836a06233681665,64dc7ec64469f04705c86ce7,,,,,,,decisionTrl,resources/DB.BMP,resources/DG.BMP,Door4,-0.213888889,-0.026851852,1,0,0,0.3985,optionLeft,60,14400,7,9,0,9,0,1,,,,,,,,,,,,,,,,,,,,,,,,,,,,,,,,,,,,,,,
,,,,,,,,2023-08-16_08h47.46.151,HF_wild_card,2022.2.4,Win32,59.95922773,5c49e145e97243000194bace,64d2fd46c836a06233681665,64dc7ec64469f04705c86ce7,,,,,,,ctch,resources/DB.BMP,resources/DR.BMP,Door4,-0.15,-0.037037037,1,0,0,0.3645,optionLeft,80,14480,7,10,0,10,0,1,,,,,,,,,,,,,,,,,,,,,,,,,,,,,,,,,,,,,,,
,,,,,,,,2023-08-16_08h47.46.151,HF_wild_card,2022.2.4,Win32,59.95922773,5c49e145e97243000194bace,64d2fd46c836a06233681665,64dc7ec64469f04705c86ce7,,,,,,,decisionTrl,resources/DB.BMP,resources/DG.BMP,Door4,-0.206481481,-0.04537037,1,0,0,0.3988,optionLeft,80,14560,7,11,0,11,0,1,,,,,,,,,,,,,,,,,,,,,,,,,,,,,,,,,,,,,,,
,,,,,,,,2023-08-16_08h47.46.151,HF_wild_card,2022.2.4,Win32,59.95922773,5c49e145e97243000194bace,64d2fd46c836a06233681665,64dc7ec64469f04705c86ce7,,,,,,,ctch,resources/DR.BMP,resources/DB.BMP,Door4,0.421296296,-0.005555556,1,0,0,0.5649,optionRight,60,14620,7,12,0,12,0,1,,,,,,,,,,,,,,,,,,,,,,,,,,,,,,,,,,,,,,,
,,,,,,,,2023-08-16_08h47.46.151,HF_wild_card,2022.2.4,Win32,59.95922773,5c49e145e97243000194bace,64d2fd46c836a06233681665,64dc7ec64469f04705c86ce7,,,,,,,decisionTrl,resources/DR.BMP,resources/DBN.BMP,Door1,-0.343518519,-0.067592593,1,0,0,0.498,optionLeft,30,14650,7,13,0,13,0,1,,,,,,,,,,,,,,,,,,,,,,,,,,,,,,,,,,,,,,,
,,,,,,,,2023-08-16_08h47.46.151,HF_wild_card,2022.2.4,Win32,59.95922773,5c49e145e97243000194bace,64d2fd46c836a06233681665,64dc7ec64469f04705c86ce7,,,,,,,decisionTrl,resources/DG.BMP,resources/DB.BMP,Door4,0.55462963,-0.010185185,1,0,0,0.4317,optionRight,60,14710,7,14,0,14,0,1,,,,,,,,,,,,,,,,,,,,,,,,,,,,,,,,,,,,,,,
,,,,,,,,2023-08-16_08h47.46.151,HF_wild_card,2022.2.4,Win32,59.95922773,5c49e145e97243000194bace,64d2fd46c836a06233681665,64dc7ec64469f04705c86ce7,,,,,,,decisionTrl,resources/DG.BMP,resources/DB.BMP,Door4,0.458333333,0.039814815,1,0,0,0.6658,optionRight,60,14770,7,15,0,15,0,1,,,,,,,,,,,,,,,,,,,,,,,,,,,,,,,,,,,,,,,
,,,,,,,,2023-08-16_08h47.46.151,HF_wild_card,2022.2.4,Win32,59.95922773,5c49e145e97243000194bace,64d2fd46c836a06233681665,64dc7ec64469f04705c86ce7,,,,,,,decisionTrl,resources/DR.BMP,resources/DBN.BMP,Door1,-0.246296296,-0.012962963,1,0,0,0.4319,optionLeft,30,14800,7,16,0,16,0,1,,,,,,,,,,,,,,,,,,,,,,,,,,,,,,,,,,,,,,,
,,,,,,,,2023-08-16_08h47.46.151,HF_wild_card,2022.2.4,Win32,59.95922773,5c49e145e97243000194bace,64d2fd46c836a06233681665,64dc7ec64469f04705c86ce7,,,,,,,decisionTrl,resources/DB.BMP,resources/DG.BMP,Door4,-0.186111111,-0.021296296,1,0,0,0.3982,optionLeft,60,14860,7,17,0,17,0,1,,,,,,,,,,,,,,,,,,,,,,,,,,,,,,,,,,,,,,,
,,,,,,,,2023-08-16_08h47.46.151,HF_wild_card,2022.2.4,Win32,59.95922773,5c49e145e97243000194bace,64d2fd46c836a06233681665,64dc7ec64469f04705c86ce7,,,,,,,decisionTrl,resources/DG.BMP,resources/DB.BMP,Door4,0.446296296,0.049074074,1,0,0,0.4656,optionRight,80,14940,7,18,0,18,0,1,,,,,,,,,,,,,,,,,,,,,,,,,,,,,,,,,,,,,,,
,,,,,,,,2023-08-16_08h47.46.151,HF_wild_card,2022.2.4,Win32,59.95922773,5c49e145e97243000194bace,64d2fd46c836a06233681665,64dc7ec64469f04705c86ce7,,,,,,,ctch,resources/DBN.BMP,resources/DG.BMP,Door3,0.334259259,0.059259259,1,0,0,0.5481,optionRight,70,15010,7,19,0,19,0,1,,,,,,,,,,,,,,,,,,,,,,,,,,,,,,,,,,,,,,,
,,,,,,,,2023-08-16_08h47.46.151,HF_wild_card,2022.2.4,Win32,59.95922773,5c49e145e97243000194bace,64d2fd46c836a06233681665,64dc7ec64469f04705c86ce7,,,,,,,decisionTrl,resources/DBN.BMP,resources/DR.BMP,Door1,0.210185185,0.013888889,1,0,0,0.6154,optionRight,30,15040,7,20,0,20,0,1,,,,,,,,,,,,,,,,,,,,,,,,,,,,,,,,,,,,,,,
,,,,,,,,2023-08-16_08h47.46.151,HF_wild_card,2022.2.4,Win32,59.95922773,5c49e145e97243000194bace,64d2fd46c836a06233681665,64dc7ec64469f04705c86ce7,,,,,,,ctch,resources/DG.BMP,resources/DBN.BMP,Door3,-0.208333333,-0.005555556,1,0,0,0.3987,optionLeft,70,15110,7,21,0,21,0,1,,,,,,,,,,,,,,,,,,,,,,,,,,,,,,,,,,,,,,,
,,,,,,,,2023-08-16_08h47.46.151,HF_wild_card,2022.2.4,Win32,59.95922773,5c49e145e97243000194bace,64d2fd46c836a06233681665,64dc7ec64469f04705c86ce7,,,,,,,ctch,resources/DBN.BMP,resources/DG.BMP,Door3,0.326851852,0.05462963,1,0,0,0.4651,optionRight,70,15180,7,22,0,22,0,1,,,,,,,,,,,,,,,,,,,,,,,,,,,,,,,,,,,,,,,
,,,,,,,,2023-08-16_08h47.46.151,HF_wild_card,2022.2.4,Win32,59.95922773,5c49e145e97243000194bace,64d2fd46c836a06233681665,64dc7ec64469f04705c86ce7,,,,,,,ctch,resources/DBN.BMP,resources/DG.BMP,Door3,0.210185185,0.019444444,1,0,0,0.4826,optionRight,70,15250,7,23,0,23,0,1,,,,,,,,,,,,,,,,,,,,,,,,,,,,,,,,,,,,,,,
,,,,,,,,2023-08-16_08h47.46.151,HF_wild_card,2022.2.4,Win32,59.95922773,5c49e145e97243000194bace,64d2fd46c836a06233681665,64dc7ec64469f04705c86ce7,,,,,,,decisionTrl,resources/DG.BMP,resources/DB.BMP,Door4,0.240740741,0.010185185,1,0,0,0.4153,optionRight,60,15310,7,24,0,24,0,1,,,,,,,,,,,,,,,,,,,,,,,,,,,,,,,,,,,,,,,
,,,,,,,,2023-08-16_08h47.46.151,HF_wild_card,2022.2.4,Win32,59.95922773,5c49e145e97243000194bace,64d2fd46c836a06233681665,64dc7ec64469f04705c86ce7,,,,,,,decisionTrl,resources/DR.BMP,resources/DBN.BMP,Door1,-0.148148148,-0.024074074,1,0,0,0.4656,optionLeft,30,15340,7,25,0,25,0,1,,,,,,,,,,,,,,,,,,,,,,,,,,,,,,,,,,,,,,,
,,,,,,,,2023-08-16_08h47.46.151,HF_wild_card,2022.2.4,Win32,59.95922773,5c49e145e97243000194bace,64d2fd46c836a06233681665,64dc7ec64469f04705c86ce7,,,,,,,decisionTrl,resources/DBN.BMP,resources/DR.BMP,Door1,0.441666667,0.060185185,1,0,0,0.4816,optionRight,30,15370,7,26,0,26,0,1,,,,,,,,,,,,,,,,,,,,,,,,,,,,,,,,,,,,,,,
,,,,,,,,2023-08-16_08h47.46.151,HF_wild_card,2022.2.4,Win32,59.95922773,5c49e145e97243000194bace,64d2fd46c836a06233681665,64dc7ec64469f04705c86ce7,,,,,,,decisionTrl,resources/DBN.BMP,resources/DR.BMP,Door1,0.180555556,-0.006481481,1,0,0,0.4655,optionRight,30,15400,7,27,0,27,0,1,,,,,,,,,,,,,,,,,,,,,,,,,,,,,,,,,,,,,,,
,,,,,,,,2023-08-16_08h47.46.151,HF_wild_card,2022.2.4,Win32,59.95922773,5c49e145e97243000194bace,64d2fd46c836a06233681665,64dc7ec64469f04705c86ce7,,,,,,,decisionTrl,resources/DR.BMP,resources/DBN.BMP,Door1,-0.24537037,-0.025,1,0,0,0.4819,optionLeft,30,15430,7,28,0,28,0,1,,,,,,,,,,,,,,,,,,,,,,,,,,,,,,,,,,,,,,,
,,,,,,,,2023-08-16_08h47.46.151,HF_wild_card,2022.2.4,Win32,59.95922773,5c49e145e97243000194bace,64d2fd46c836a06233681665,64dc7ec64469f04705c86ce7,,,,,,,decisionTrl,resources/DBN.BMP,resources/DR.BMP,Door1,0.241666667,-0.011111111,1,0,0,0.4809,optionRight,30,15460,7,29,0,29,0,1,,,,,,,,,,,,,,,,,,,,,,,,,,,,,,,,,,,,,,,
,,,,,,,,2023-08-16_08h47.46.151,HF_wild_card,2022.2.4,Win32,59.95922773,5c49e145e97243000194bace,64d2fd46c836a06233681665,64dc7ec64469f04705c86ce7,,,,,,,decisionTrl,resources/DG.BMP,resources/DB.BMP,Door4,0.187962963,-0.027777778,1,0,0,0.4147,optionRight,80,15540,7,30,0,30,0,1,,,,,,,,,,,,,,,,,,,,,,,,,,,,,,,,,,,,,,,
,,,,,,,,2023-08-16_08h47.46.151,HF_wild_card,2022.2.4,Win32,59.95922773,5c49e145e97243000194bace,64d2fd46c836a06233681665,64dc7ec64469f04705c86ce7,,,,,,,ctch,resources/DG.BMP,resources/DBN.BMP,Door3,-0.17037037,-0.02037037,1,0,0,0.5653,optionLeft,70,15610,7,31,0,31,0,1,,,,,,,,,,,,,,,,,,,,,,,,,,,,,,,,,,,,,,,
,,,,,,,,2023-08-16_08h47.46.151,HF_wild_card,2022.2.4,Win32,59.95922773,5c49e145e97243000194bace,64d2fd46c836a06233681665,64dc7ec64469f04705c86ce7,,,,,,,decisionTrl,resources/DB.BMP,resources/DG.BMP,Door4,-0.299074074,-0.005555556,1,0,0,0.6653,optionLeft,60,15670,7,32,0,32,0,1,,,,,,,,,,,,,,,,,,,,,,,,,,,,,,,,,,,,,,,
,,,,,,,,2023-08-16_08h47.46.151,HF_wild_card,2022.2.4,Win32,59.95922773,5c49e145e97243000194bace,64d2fd46c836a06233681665,64dc7ec64469f04705c86ce7,,,,,,,ctch,resources/DB.BMP,resources/DR.BMP,Door4,-0.225,-0.023148148,1,0,0,0.3652,optionLeft,80,15750,7,33,0,33,0,1,,,,,,,,,,,,,,,,,,,,,,,,,,,,,,,,,,,,,,,
,,,,,,,,2023-08-16_08h47.46.151,HF_wild_card,2022.2.4,Win32,59.95922773,5c49e145e97243000194bace,64d2fd46c836a06233681665,64dc7ec64469f04705c86ce7,,,,,,,decisionTrl,resources/DBN.BMP,resources/DR.BMP,Door1,0.407407407,0.037962963,1,0,0,0.5658,optionRight,30,15780,7,34,0,34,0,1,,,,,,,,,,,,,,,,,,,,,,,,,,,,,,,,,,,,,,,
,,,,,,,,2023-08-16_08h47.46.151,HF_wild_card,2022.2.4,Win32,59.95922773,5c49e145e97243000194bace,64d2fd46c836a06233681665,64dc7ec64469f04705c86ce7,,,,,,,decisionTrl,resources/DR.BMP,resources/DBN.BMP,Door1,-0.200925926,-0.02962963,1,0,0,0.4488,optionLeft,30,15810,7,35,0,35,0,1,,,,,,,,,,,,,,,,,,,,,,,,,,,,,,,,,,,,,,,
,,,,,,,,2023-08-16_08h47.46.151,HF_wild_card,2022.2.4,Win32,59.95922773,5c49e145e97243000194bace,64d2fd46c836a06233681665,64dc7ec64469f04705c86ce7,,,,,,,,,,,,,,,,,,,,,,,,,,6,0,6,0,1,,,,,,,,,,,,,,,,,,,,,,,,,,,,,,,,,,
,,,,,,,,2023-08-16_08h47.46.151,HF_wild_card,2022.2.4,Win32,59.95922773,5c49e145e97243000194bace,64d2fd46c836a06233681665,64dc7ec64469f04705c86ce7,,,,,,,,,,,,,,,,,,,,,,,,,,,,,,,3,,,,,,,,,,,,,,,,,,,,,,,,,,,,,,,,,
,,,,,,,,2023-08-16_08h47.46.151,HF_wild_card,2022.2.4,Win32,59.95922773,5c49e145e97243000194bace,64d2fd46c836a06233681665,64dc7ec64469f04705c86ce7,,,,,,,,,,,,,,,,,,,,,,,,,,,,,,,,,,,,,,,,,,,,,,,,,,,,,,,,,,,,,,,,
,,,,,,,,2023-08-16_08h47.46.151,HF_wild_card,2022.2.4,Win32,59.95922773,5c49e145e97243000194bace,64d2fd46c836a06233681665,64dc7ec64469f04705c86ce7,,,,,,,,,,,,,,,,,,,,,,,,,,,,,,,,40,Door1,resources/DR.BMP,0,0,0,0,1,,,,,,,,,,,,,,,,,,,,,,,,,
,,,,,,,,2023-08-16_08h47.46.151,HF_wild_card,2022.2.4,Win32,59.95922773,5c49e145e97243000194bace,64d2fd46c836a06233681665,64dc7ec64469f04705c86ce7,,,,,,,,,,,,,,,,,,,,,,,,,,,,,,,,80,Door4,resources/DB.BMP,1,0,1,0,1,,,,,,,,,,,,,,,,,,,,,,,,,
,,,,,,,,2023-08-16_08h47.46.151,HF_wild_card,2022.2.4,Win32,59.95922773,5c49e145e97243000194bace,64d2fd46c836a06233681665,64dc7ec64469f04705c86ce7,,,,,,,,,,,,,,,,,,,,,,,,,,,,,,,,70,Door3,resources/DG.BMP,2,0,2,0,1,,,,,,,,,,,,,,,,,,,,,,,,,
,,,,,,,,2023-08-16_08h47.46.151,HF_wild_card,2022.2.4,Win32,59.95922773,5c49e145e97243000194bace,64d2fd46c836a06233681665,64dc7ec64469f04705c86ce7,,,,,,,,,,,,,,,,,,,,,,,,,,,,,,,,40,WC_extreme,resources/DP.BMP,3,0,3,0,1,,,,,,,,,,,,,,,,,,,,,,,,,
,,,,,,,,2023-08-16_08h47.46.151,HF_wild_card,2022.2.4,Win32,59.95922773,5c49e145e97243000194bace,64d2fd46c836a06233681665,64dc7ec64469f04705c86ce7,,,,,,,,,,,,,,,,,,,,,,,,,,,,,,,,45,WC_nonExtreme,resources/DY.BMP,4,0,4,0,1,,,,,,,,,,,,,,,,,,,,,,,,,
,,,,,,,,2023-08-16_08h47.46.151,HF_wild_card,2022.2.4,Win32,59.95922773,5c49e145e97243000194bace,64d2fd46c836a06233681665,64dc7ec64469f04705c86ce7,,,,,,,,,,,,,,,,,,,,,,,,,,,,,,,,20,Door2,resources/DBN.BMP,5,0,5,0,1,,,,,,,,,,,,,,,,,,,,,,,,,
,,,,,,,,2023-08-16_08h47.46.151,HF_wild_card,2022.2.4,Win32,59.95922773,5c49e145e97243000194bace,64d2fd46c836a06233681665,64dc7ec64469f04705c86ce7,,,,,,,,,,,,,,,,,,,,,,,,,,,,,,,,,,,,,,,,,,,,,,,,,,,,,,,,,,,,,,,,
