Condition,Low fixed image (Door1),Low risky image (Door2),High fixed image (Door3),High risky image (Door4),Extreme Wild Card,NonExtreme Wild Card,,date,expName,psychopyVersion,OS,frameRate,PROLIFIC_PID,STUDY_ID,SESSION_ID,mouse_2.x,mouse_2.y,mouse_2.leftButton,mouse_2.midButton,mouse_2.rightButton,mouse_2.clicked_name,Trial Type,Left Option Image,Right Option Image,Chosen Door,mouse.x,mouse.y,mouse.leftButton,mouse.midButton,mouse.rightButton,mouse.time,mouse.clicked_name,Feedback,Cumulative Reward,Block,trial.thisRepN,trial.thisTrialN,trial.thisN,trial.thisIndex,trial.ran,blocks.thisRepN,blocks.thisTrialN,blocks.thisN,blocks.thisIndex,blocks.ran,Money conversion,First Outcome Reported,Shown Door (First Outcome),Displayed Image (First Outcome),outcomes.thisRepN,outcomes.thisTrialN,outcomes.thisN,outcomes.thisIndex,outcomes.ran,judgments.thisRepN,judgments.thisTrialN,judgments.thisN,judgments.thisIndex,judgments.ran,freqMouse.x,freqMouse.y,freqMouse.leftButton,freqMouse.midButton,freqMouse.rightButton,freqMouse.clicked_name,FQJ for first outcome,FQJ for second outcome,Shown Door,Displayed Image,trials.thisRepN,trials.thisTrialN,trials.thisN,trials.thisIndex,trials.ran,judgBlock.thisRepN,judgBlock.thisTrialN,judgBlock.thisN,judgBlock.thisIndex,judgBlock.ran
0,resources/DB.BMP,resources/DG.BMP,resources/DBN.BMP,resources/DR.BMP,resources/DP.BMP,resources/DY.BMP,,2023-08-06_08h38.21.576,HF_wild_card,2022.2.4,Win32,20.0968669,5ca3805f5c01df0013af4fe1,64ce5acb97489d65b14ecc7a,64cf4be5b58f98f2866956a2,,,,,,,,,,,,,,,,,,,,,,,,,,,,,,,,,,,,,,,,,,,,,,,,,,,,,,,,,,,,,,,,
,,,,,,,,2023-08-06_08h38.21.576,HF_wild_card,2022.2.4,Win32,20.0968669,5ca3805f5c01df0013af4fe1,64ce5acb97489d65b14ecc7a,64cf4be5b58f98f2866956a2,-0.018692144,-0.420370356,1,0,0,agree,,,,,,,,,,,,,,,,,,,,,,,,,,,,,,,,,,,,,,,,,,,,,,,,,,,,,,,,,,
,,,,,,,,2023-08-06_08h38.21.576,HF_wild_card,2022.2.4,Win32,20.0968669,5ca3805f5c01df0013af4fe1,64ce5acb97489d65b14ecc7a,64cf4be5b58f98f2866956a2,,,,,,,,,,,,,,,,,,,,,,,,,,,,,,,,,,,,,,,,,,,,,,,,,,,,,,,,,,,,,,,,
,,,,,,,,2023-08-06_08h38.21.576,HF_wild_card,2022.2.4,Win32,20.0968669,5ca3805f5c01df0013af4fe1,64ce5acb97489d65b14ecc7a,64cf4be5b58f98f2866956a2,,,,,,,sngl,resources/Empty.png,resources/DP.BMP,WildCard_Ex,0.427604167,-0.114814822,1,0,0,5.3157,optionRight,5,5,1,0,0,0,0,1,,,,,,,,,,,,,,,,,,,,,,,,,,,,,,,,,,,,,,,
,,,,,,,,2023-08-06_08h38.21.576,HF_wild_card,2022.2.4,Win32,20.0968669,5ca3805f5c01df0013af4fe1,64ce5acb97489d65b14ecc7a,64cf4be5b58f98f2866956a2,,,,,,,decisionTrl,resources/DP.BMP,resources/DG.BMP,Door2,0.179456075,-0.030555566,1,0,0,2.8302,optionRight,40,45,1,1,0,1,0,1,,,,,,,,,,,,,,,,,,,,,,,,,,,,,,,,,,,,,,,
,,,,,,,,2023-08-06_08h38.21.576,HF_wild_card,2022.2.4,Win32,20.0968669,5ca3805f5c01df0013af4fe1,64ce5acb97489d65b14ecc7a,64cf4be5b58f98f2866956a2,,,,,,,ctch,resources/DBN.BMP,resources/DG.BMP,Door3,-0.247395833,-0.025,1,0,0,2.3004,optionLeft,70,115,1,2,0,2,0,1,,,,,,,,,,,,,,,,,,,,,,,,,,,,,,,,,,,,,,,
,,,,,,,,2023-08-06_08h38.21.576,HF_wild_card,2022.2.4,Win32,20.0968669,5ca3805f5c01df0013af4fe1,64ce5acb97489d65b14ecc7a,64cf4be5b58f98f2866956a2,,,,,,,decisionTrl,resources/DP.BMP,resources/DR.BMP,Door4,0.288715235,-0.045370356,1,0,0,2.6432,optionRight,60,175,1,3,0,3,0,1,,,,,,,,,,,,,,,,,,,,,,,,,,,,,,,,,,,,,,,
,,,,,,,,2023-08-06_08h38.21.576,HF_wild_card,2022.2.4,Win32,20.0968669,5ca3805f5c01df0013af4fe1,64ce5acb97489d65b14ecc7a,64cf4be5b58f98f2866956a2,,,,,,,decisionTrl,resources/DBN.BMP,resources/DR.BMP,Door4,0.272048569,-0.039814822,1,0,0,3.4658,optionRight,80,255,1,4,0,4,0,1,,,,,,,,,,,,,,,,,,,,,,,,,,,,,,,,,,,,,,,
,,,,,,,,2023-08-06_08h38.21.576,HF_wild_card,2022.2.4,Win32,20.0968669,5ca3805f5c01df0013af4fe1,64ce5acb97489d65b14ecc7a,64cf4be5b58f98f2866956a2,,,,,,,sngl,resources/Empty.png,resources/DBN.BMP,Door3,0.344270833,-0.088888868,1,0,0,1.3176,optionRight,70,325,1,5,0,5,0,1,,,,,,,,,,,,,,,,,,,,,,,,,,,,,,,,,,,,,,,
,,,,,,,,2023-08-06_08h38.21.576,HF_wild_card,2022.2.4,Win32,20.0968669,5ca3805f5c01df0013af4fe1,64ce5acb97489d65b14ecc7a,64cf4be5b58f98f2866956a2,,,,,,,sngl,resources/Empty.png,resources/DR.BMP,Door4,0.221122742,-0.087962977,1,0,0,1.2782,optionRight,60,385,1,6,0,6,0,1,,,,,,,,,,,,,,,,,,,,,,,,,,,,,,,,,,,,,,,
,,,,,,,,2023-08-06_08h38.21.576,HF_wild_card,2022.2.4,Win32,20.0968669,5ca3805f5c01df0013af4fe1,64ce5acb97489d65b14ecc7a,64cf4be5b58f98f2866956a2,,,,,,,decisionTrl,resources/DBN.BMP,resources/DR.BMP,Door4,0.280381902,-0.082407443,1,0,0,2.6942,optionRight,80,465,1,7,0,7,0,1,,,,,,,,,,,,,,,,,,,,,,,,,,,,,,,,,,,,,,,
,,,,,,,,2023-08-06_08h38.21.576,HF_wild_card,2022.2.4,Win32,20.0968669,5ca3805f5c01df0013af4fe1,64ce5acb97489d65b14ecc7a,64cf4be5b58f98f2866956a2,,,,,,,decisionTrl,resources/DB.BMP,resources/DG.BMP,Door1,-0.318692144,0,1,0,0,2.1287,optionLeft,30,495,1,8,0,8,0,1,,,,,,,,,,,,,,,,,,,,,,,,,,,,,,,,,,,,,,,
,,,,,,,,2023-08-06_08h38.21.576,HF_wild_card,2022.2.4,Win32,20.0968669,5ca3805f5c01df0013af4fe1,64ce5acb97489d65b14ecc7a,64cf4be5b58f98f2866956a2,,,,,,,decisionTrl,resources/DG.BMP,resources/DB.BMP,Door2,-0.337210655,-0.026851845,1,0,0,2.643,optionLeft,40,535,1,9,0,9,0,1,,,,,,,,,,,,,,,,,,,,,,,,,,,,,,,,,,,,,,,
,,,,,,,,2023-08-06_08h38.21.576,HF_wild_card,2022.2.4,Win32,20.0968669,5ca3805f5c01df0013af4fe1,64ce5acb97489d65b14ecc7a,64cf4be5b58f98f2866956a2,,,,,,,sngl,resources/DP.BMP,resources/Empty.png,WildCard_Ex,-0.338136546,-0.024074078,1,0,0,2.2616,optionLeft,95,630,1,10,0,10,0,1,,,,,,,,,,,,,,,,,,,,,,,,,,,,,,,,,,,,,,,
,,,,,,,,2023-08-06_08h38.21.576,HF_wild_card,2022.2.4,Win32,20.0968669,5ca3805f5c01df0013af4fe1,64ce5acb97489d65b14ecc7a,64cf4be5b58f98f2866956a2,,,,,,,decisionTrl,resources/DR.BMP,resources/DBN.BMP,Door3,0.490567144,-0.034259288,1,0,0,4.0161,optionRight,70,700,1,11,0,11,0,1,,,,,,,,,,,,,,,,,,,,,,,,,,,,,,,,,,,,,,,
,,,,,,,,2023-08-06_08h38.21.576,HF_wild_card,2022.2.4,Win32,20.0968669,5ca3805f5c01df0013af4fe1,64ce5acb97489d65b14ecc7a,64cf4be5b58f98f2866956a2,,,,,,,ctch,resources/DB.BMP,resources/DR.BMP,Door4,0.322974523,-0.023148155,1,0,0,1.4943,optionRight,60,760,1,12,0,12,0,1,,,,,,,,,,,,,,,,,,,,,,,,,,,,,,,,,,,,,,,
,,,,,,,,2023-08-06_08h38.21.576,HF_wild_card,2022.2.4,Win32,20.0968669,5ca3805f5c01df0013af4fe1,64ce5acb97489d65b14ecc7a,64cf4be5b58f98f2866956a2,,,,,,,ctch,resources/DB.BMP,resources/DR.BMP,Door4,0.33964119,-0.031481489,1,0,0,1.8952,optionRight,80,840,1,13,0,13,0,1,,,,,,,,,,,,,,,,,,,,,,,,,,,,,,,,,,,,,,,
,,,,,,,,2023-08-06_08h38.21.576,HF_wild_card,2022.2.4,Win32,20.0968669,5ca3805f5c01df0013af4fe1,64ce5acb97489d65b14ecc7a,64cf4be5b58f98f2866956a2,,,,,,,decisionTrl,resources/DG.BMP,resources/DB.BMP,Door2,-0.295543989,-0.011111101,1,0,0,1.8599,optionLeft,20,860,1,14,0,14,0,1,,,,,,,,,,,,,,,,,,,,,,,,,,,,,,,,,,,,,,,
,,,,,,,,2023-08-06_08h38.21.576,HF_wild_card,2022.2.4,Win32,20.0968669,5ca3805f5c01df0013af4fe1,64ce5acb97489d65b14ecc7a,64cf4be5b58f98f2866956a2,,,,,,,sngl,resources/DR.BMP,resources/Empty.png,Door4,-0.3390625,-0.043518511,1,0,0,1.0787,optionLeft,80,940,1,15,0,15,0,1,,,,,,,,,,,,,,,,,,,,,,,,,,,,,,,,,,,,,,,
,,,,,,,,2023-08-06_08h38.21.576,HF_wild_card,2022.2.4,Win32,20.0968669,5ca3805f5c01df0013af4fe1,64ce5acb97489d65b14ecc7a,64cf4be5b58f98f2866956a2,,,,,,,sngl,resources/Empty.png,resources/DB.BMP,Door1,0.249826431,-0.013888899,1,0,0,1.3939,optionRight,30,970,1,16,0,16,0,1,,,,,,,,,,,,,,,,,,,,,,,,,,,,,,,,,,,,,,,
,,,,,,,,2023-08-06_08h38.21.576,HF_wild_card,2022.2.4,Win32,20.0968669,5ca3805f5c01df0013af4fe1,64ce5acb97489d65b14ecc7a,64cf4be5b58f98f2866956a2,,,,,,,ctch,resources/DR.BMP,resources/DB.BMP,Door4,-0.293692144,-0.042592621,1,0,0,1.9452,optionLeft,80,1050,1,17,0,17,0,1,,,,,,,,,,,,,,,,,,,,,,,,,,,,,,,,,,,,,,,
,,,,,,,,2023-08-06_08h38.21.576,HF_wild_card,2022.2.4,Win32,20.0968669,5ca3805f5c01df0013af4fe1,64ce5acb97489d65b14ecc7a,64cf4be5b58f98f2866956a2,,,,,,,decisionTrl,resources/DB.BMP,resources/DG.BMP,Door2,0.253530121,-0.034259288,1,0,0,1.812,optionRight,20,1070,1,18,0,18,0,1,,,,,,,,,,,,,,,,,,,,,,,,,,,,,,,,,,,,,,,
,,,,,,,,2023-08-06_08h38.21.576,HF_wild_card,2022.2.4,Win32,20.0968669,5ca3805f5c01df0013af4fe1,64ce5acb97489d65b14ecc7a,64cf4be5b58f98f2866956a2,,,,,,,decisionTrl,resources/DR.BMP,resources/DBN.BMP,Door3,0.412789408,0.013888899,1,0,0,1.779,optionRight,70,1140,1,19,0,19,0,1,,,,,,,,,,,,,,,,,,,,,,,,,,,,,,,,,,,,,,,
,,,,,,,,2023-08-06_08h38.21.576,HF_wild_card,2022.2.4,Win32,20.0968669,5ca3805f5c01df0013af4fe1,64ce5acb97489d65b14ecc7a,64cf4be5b58f98f2866956a2,,,,,,,sngl,resources/DB.BMP,resources/Empty.png,Door1,-0.247395833,-0.057407443,1,0,0,1.2126,optionLeft,30,1170,1,20,0,20,0,1,,,,,,,,,,,,,,,,,,,,,,,,,,,,,,,,,,,,,,,
,,,,,,,,2023-08-06_08h38.21.576,HF_wild_card,2022.2.4,Win32,20.0968669,5ca3805f5c01df0013af4fe1,64ce5acb97489d65b14ecc7a,64cf4be5b58f98f2866956a2,,,,,,,decisionTrl,resources/DG.BMP,resources/DB.BMP,Door2,-0.237210655,-0.076851845,1,0,0,1.5122,optionLeft,40,1210,1,21,0,21,0,1,,,,,,,,,,,,,,,,,,,,,,,,,,,,,,,,,,,,,,,
,,,,,,,,2023-08-06_08h38.21.576,HF_wild_card,2022.2.4,Win32,20.0968669,5ca3805f5c01df0013af4fe1,64ce5acb97489d65b14ecc7a,64cf4be5b58f98f2866956a2,,,,,,,decisionTrl,resources/DB.BMP,resources/DG.BMP,Door2,0.38223381,-0.036111132,1,0,0,1.3618,optionRight,40,1250,1,22,0,22,0,1,,,,,,,,,,,,,,,,,,,,,,,,,,,,,,,,,,,,,,,
,,,,,,,,2023-08-06_08h38.21.576,HF_wild_card,2022.2.4,Win32,20.0968669,5ca3805f5c01df0013af4fe1,64ce5acb97489d65b14ecc7a,64cf4be5b58f98f2866956a2,,,,,,,decisionTrl,resources/DG.BMP,resources/DP.BMP,WildCard_Ex,0.290567144,-0.011111101,1,0,0,1.6284,optionRight,95,1345,1,23,0,23,0,1,,,,,,,,,,,,,,,,,,,,,,,,,,,,,,,,,,,,,,,
,,,,,,,,2023-08-06_08h38.21.576,HF_wild_card,2022.2.4,Win32,20.0968669,5ca3805f5c01df0013af4fe1,64ce5acb97489d65b14ecc7a,64cf4be5b58f98f2866956a2,,,,,,,ctch,resources/DG.BMP,resources/DBN.BMP,Door2,-0.271469879,-0.039814822,1,0,0,3.4777,optionLeft,40,1385,1,24,0,24,0,1,,,,,,,,,,,,,,,,,,,,,,,,,,,,,,,,,,,,,,,
,,,,,,,,2023-08-06_08h38.21.576,HF_wild_card,2022.2.4,Win32,20.0968669,5ca3805f5c01df0013af4fe1,64ce5acb97489d65b14ecc7a,64cf4be5b58f98f2866956a2,,,,,,,sngl,resources/Empty.png,resources/DP.BMP,WildCard_Ex,0.315567144,-0.033333333,1,0,0,1.329,optionRight,95,1480,1,25,0,25,0,1,,,,,,,,,,,,,,,,,,,,,,,,,,,,,,,,,,,,,,,
,,,,,,,,2023-08-06_08h38.21.576,HF_wild_card,2022.2.4,Win32,20.0968669,5ca3805f5c01df0013af4fe1,64ce5acb97489d65b14ecc7a,64cf4be5b58f98f2866956a2,,,,,,,ctch,resources/DG.BMP,resources/DBN.BMP,Door2,-0.275173632,-0.081481489,1,0,0,6.2577,optionLeft,40,1520,1,26,0,26,0,1,,,,,,,,,,,,,,,,,,,,,,,,,,,,,,,,,,,,,,,
,,,,,,,,2023-08-06_08h38.21.576,HF_wild_card,2022.2.4,Win32,20.0968669,5ca3805f5c01df0013af4fe1,64ce5acb97489d65b14ecc7a,64cf4be5b58f98f2866956a2,,,,,,,decisionTrl,resources/DG.BMP,resources/DB.BMP,Door2,-0.309432856,-0.027777767,1,0,0,1.2619,optionLeft,40,1560,1,27,0,27,0,1,,,,,,,,,,,,,,,,,,,,,,,,,,,,,,,,,,,,,,,
,,,,,,,,2023-08-06_08h38.21.576,HF_wild_card,2022.2.4,Win32,20.0968669,5ca3805f5c01df0013af4fe1,64ce5acb97489d65b14ecc7a,64cf4be5b58f98f2866956a2,,,,,,,ctch,resources/DBN.BMP,resources/DG.BMP,Door3,-0.359432856,0.014814822,1,0,0,19.6305,optionLeft,70,1630,1,28,0,28,0,1,,,,,,,,,,,,,,,,,,,,,,,,,,,,,,,,,,,,,,,
,,,,,,,,2023-08-06_08h38.21.576,HF_wild_card,2022.2.4,Win32,20.0968669,5ca3805f5c01df0013af4fe1,64ce5acb97489d65b14ecc7a,64cf4be5b58f98f2866956a2,,,,,,,decisionTrl,resources/DP.BMP,resources/DB.BMP,WildCard_Ex,-0.291840299,-0.041666667,1,0,0,2.128,optionLeft,5,1635,1,29,0,29,0,1,,,,,,,,,,,,,,,,,,,,,,,,,,,,,,,,,,,,,,,
,,,,,,,,2023-08-06_08h38.21.576,HF_wild_card,2022.2.4,Win32,20.0968669,5ca3805f5c01df0013af4fe1,64ce5acb97489d65b14ecc7a,64cf4be5b58f98f2866956a2,,,,,,,decisionTrl,resources/DB.BMP,resources/DG.BMP,Door1,-0.286284701,-0.097222201,1,0,0,2.8942,optionLeft,30,1665,1,30,0,30,0,1,,,,,,,,,,,,,,,,,,,,,,,,,,,,,,,,,,,,,,,
,,,,,,,,2023-08-06_08h38.21.576,HF_wild_card,2022.2.4,Win32,20.0968669,5ca3805f5c01df0013af4fe1,64ce5acb97489d65b14ecc7a,64cf4be5b58f98f2866956a2,,,,,,,ctch,resources/DR.BMP,resources/DB.BMP,Door4,-0.257581011,-0.037037023,1,0,0,1.3978,optionLeft,60,1725,1,31,0,31,0,1,,,,,,,,,,,,,,,,,,,,,,,,,,,,,,,,,,,,,,,
,,,,,,,,2023-08-06_08h38.21.576,HF_wild_card,2022.2.4,Win32,20.0968669,5ca3805f5c01df0013af4fe1,64ce5acb97489d65b14ecc7a,64cf4be5b58f98f2866956a2,,,,,,,sngl,resources/Empty.png,resources/DG.BMP,Door2,0.268344879,-0.035185178,1,0,0,1.2776,optionRight,20,1745,1,32,0,32,0,1,,,,,,,,,,,,,,,,,,,,,,,,,,,,,,,,,,,,,,,
,,,,,,,,2023-08-06_08h38.21.576,HF_wild_card,2022.2.4,Win32,20.0968669,5ca3805f5c01df0013af4fe1,64ce5acb97489d65b14ecc7a,64cf4be5b58f98f2866956a2,,,,,,,decisionTrl,resources/DB.BMP,resources/DP.BMP,WildCard_Ex,0.337789408,-0.035185178,1,0,0,1.5621,optionRight,95,1840,1,33,0,33,0,1,,,,,,,,,,,,,,,,,,,,,,,,,,,,,,,,,,,,,,,
,,,,,,,,2023-08-06_08h38.21.576,HF_wild_card,2022.2.4,Win32,20.0968669,5ca3805f5c01df0013af4fe1,64ce5acb97489d65b14ecc7a,64cf4be5b58f98f2866956a2,,,,,,,decisionTrl,resources/DBN.BMP,resources/DR.BMP,Door3,-0.379803244,-0.027777767,1,0,0,2.8281,optionLeft,70,1910,1,34,0,34,0,1,,,,,,,,,,,,,,,,,,,,,,,,,,,,,,,,,,,,,,,
,,,,,,,,2023-08-06_08h38.21.576,HF_wild_card,2022.2.4,Win32,20.0968669,5ca3805f5c01df0013af4fe1,64ce5acb97489d65b14ecc7a,64cf4be5b58f98f2866956a2,,,,,,,sngl,resources/DP.BMP,resources/Empty.png,WildCard_Ex,-0.241840299,-0.029629644,1,0,0,1.0949,optionLeft,5,1915,1,35,0,35,0,1,,,,,,,,,,,,,,,,,,,,,,,,,,,,,,,,,,,,,,,
,,,,,,,,2023-08-06_08h38.21.576,HF_wild_card,2022.2.4,Win32,20.0968669,5ca3805f5c01df0013af4fe1,64ce5acb97489d65b14ecc7a,64cf4be5b58f98f2866956a2,,,,,,,decisionTrl,resources/DP.BMP,resources/DBN.BMP,Door3,0.2609375,-0.035185178,1,0,0,2.9444,optionRight,70,1985,1,36,0,36,0,1,,,,,,,,,,,,,,,,,,,,,,,,,,,,,,,,,,,,,,,
,,,,,,,,2023-08-06_08h38.21.576,HF_wild_card,2022.2.4,Win32,20.0968669,5ca3805f5c01df0013af4fe1,64ce5acb97489d65b14ecc7a,64cf4be5b58f98f2866956a2,,,,,,,decisionTrl,resources/DBN.BMP,resources/DP.BMP,Door3,-0.312210655,-0.030555566,1,0,0,1.829,optionLeft,70,2055,1,37,0,37,0,1,,,,,,,,,,,,,,,,,,,,,,,,,,,,,,,,,,,,,,,
,,,,,,,,2023-08-06_08h38.21.576,HF_wild_card,2022.2.4,Win32,20.0968669,5ca3805f5c01df0013af4fe1,64ce5acb97489d65b14ecc7a,64cf4be5b58f98f2866956a2,,,,,,,sngl,resources/DG.BMP,resources/Empty.png,Door2,-0.225173632,-0.002777767,1,0,0,1.0294,optionLeft,40,2095,1,38,0,38,0,1,,,,,,,,,,,,,,,,,,,,,,,,,,,,,,,,,,,,,,,
,,,,,,,,2023-08-06_08h38.21.576,HF_wild_card,2022.2.4,Win32,20.0968669,5ca3805f5c01df0013af4fe1,64ce5acb97489d65b14ecc7a,64cf4be5b58f98f2866956a2,,,,,,,sngl,resources/DBN.BMP,resources/Empty.png,Door3,-0.220543989,-0.008333333,1,0,0,0.9616,optionLeft,70,2165,1,39,0,39,0,1,,,,,,,,,,,,,,,,,,,,,,,,,,,,,,,,,,,,,,,
,,,,,,,,2023-08-06_08h38.21.576,HF_wild_card,2022.2.4,Win32,20.0968669,5ca3805f5c01df0013af4fe1,64ce5acb97489d65b14ecc7a,64cf4be5b58f98f2866956a2,,,,,,,decisionTrl,resources/DR.BMP,resources/DBN.BMP,Door3,0.370196788,0.025925922,1,0,0,2.8112,optionRight,70,2235,1,40,0,40,0,1,,,,,,,,,,,,,,,,,,,,,,,,,,,,,,,,,,,,,,,
,,,,,,,,2023-08-06_08h38.21.576,HF_wild_card,2022.2.4,Win32,20.0968669,5ca3805f5c01df0013af4fe1,64ce5acb97489d65b14ecc7a,64cf4be5b58f98f2866956a2,,,,,,,decisionTrl,resources/DR.BMP,resources/DBN.BMP,Door3,0.30723381,-0.002777767,1,0,0,1.1295,optionRight,70,2305,1,41,0,41,0,1,,,,,,,,,,,,,,,,,,,,,,,,,,,,,,,,,,,,,,,
,,,,,,,,2023-08-06_08h38.21.576,HF_wild_card,2022.2.4,Win32,20.0968669,5ca3805f5c01df0013af4fe1,64ce5acb97489d65b14ecc7a,64cf4be5b58f98f2866956a2,,,,,,,decisionTrl,resources/DBN.BMP,resources/DR.BMP,Door3,-0.290914345,-0.025925922,1,0,0,1.1124,optionLeft,70,2375,1,42,0,42,0,1,,,,,,,,,,,,,,,,,,,,,,,,,,,,,,,,,,,,,,,
,,,,,,,,2023-08-06_08h38.21.576,HF_wild_card,2022.2.4,Win32,20.0968669,5ca3805f5c01df0013af4fe1,64ce5acb97489d65b14ecc7a,64cf4be5b58f98f2866956a2,,,,,,,decisionTrl,resources/DR.BMP,resources/DP.BMP,WildCard_Ex,0.268344879,-0.039814822,1,0,0,2.3954,optionRight,5,2380,1,43,0,43,0,1,,,,,,,,,,,,,,,,,,,,,,,,,,,,,,,,,,,,,,,
,,,,,,,,2023-08-06_08h38.21.576,HF_wild_card,2022.2.4,Win32,20.0968669,5ca3805f5c01df0013af4fe1,64ce5acb97489d65b14ecc7a,64cf4be5b58f98f2866956a2,,,,,,,,,,,,,,,,,,,,,,,,,,0,0,0,0,1,,,,,,,,,,,,,,,,,,,,,,,,,,,,,,,,,,
,,,,,,,,2023-08-06_08h38.21.576,HF_wild_card,2022.2.4,Win32,20.0968669,5ca3805f5c01df0013af4fe1,64ce5acb97489d65b14ecc7a,64cf4be5b58f98f2866956a2,,,,,,,decisionTrl,resources/DB.BMP,resources/DG.BMP,Door1,-0.199247678,-0.143518511,1,0,0,1.7459,optionLeft,30,2410,2,0,0,0,0,1,,,,,,,,,,,,,,,,,,,,,,,,,,,,,,,,,,,,,,,
,,,,,,,,2023-08-06_08h38.21.576,HF_wild_card,2022.2.4,Win32,20.0968669,5ca3805f5c01df0013af4fe1,64ce5acb97489d65b14ecc7a,64cf4be5b58f98f2866956a2,,,,,,,decisionTrl,resources/DP.BMP,resources/DR.BMP,Door4,0.247048569,-0.043518511,1,0,0,2.6463,optionRight,80,2490,2,1,0,1,0,1,,,,,,,,,,,,,,,,,,,,,,,,,,,,,,,,,,,,,,,
,,,,,,,,2023-08-06_08h38.21.576,HF_wild_card,2022.2.4,Win32,20.0968669,5ca3805f5c01df0013af4fe1,64ce5acb97489d65b14ecc7a,64cf4be5b58f98f2866956a2,,,,,,,decisionTrl,resources/DG.BMP,resources/DB.BMP,Door1,0.260011546,-0.060185178,1,0,0,1.7785,optionRight,30,2520,2,2,0,2,0,1,,,,,,,,,,,,,,,,,,,,,,,,,,,,,,,,,,,,,,,
,,,,,,,,2023-08-06_08h38.21.576,HF_wild_card,2022.2.4,Win32,20.0968669,5ca3805f5c01df0013af4fe1,64ce5acb97489d65b14ecc7a,64cf4be5b58f98f2866956a2,,,,,,,decisionTrl,resources/DP.BMP,resources/DB.BMP,WildCard_Ex,-0.224247678,-0.098148155,1,0,0,1.5948,optionLeft,5,2525,2,3,0,3,0,1,,,,,,,,,,,,,,,,,,,,,,,,,,,,,,,,,,,,,,,
,,,,,,,,2023-08-06_08h38.21.576,HF_wild_card,2022.2.4,Win32,20.0968669,5ca3805f5c01df0013af4fe1,64ce5acb97489d65b14ecc7a,64cf4be5b58f98f2866956a2,,,,,,,sngl,resources/DP.BMP,resources/Empty.png,WildCard_Ex,-0.190914345,-0.040740776,1,0,0,1.0131,optionLeft,5,2530,2,4,0,4,0,1,,,,,,,,,,,,,,,,,,,,,,,,,,,,,,,,,,,,,,,
,,,,,,,,2023-08-06_08h38.21.576,HF_wild_card,2022.2.4,Win32,20.0968669,5ca3805f5c01df0013af4fe1,64ce5acb97489d65b14ecc7a,64cf4be5b58f98f2866956a2,,,,,,,decisionTrl,resources/DB.BMP,resources/DG.BMP,Door1,-0.21035881,-0.062962977,1,0,0,2.5613,optionLeft,30,2560,2,5,0,5,0,1,,,,,,,,,,,,,,,,,,,,,,,,,,,,,,,,,,,,,,,
,,,,,,,,2023-08-06_08h38.21.576,HF_wild_card,2022.2.4,Win32,20.0968669,5ca3805f5c01df0013af4fe1,64ce5acb97489d65b14ecc7a,64cf4be5b58f98f2866956a2,,,,,,,decisionTrl,resources/DR.BMP,resources/DBN.BMP,Door3,0.233159765,-0.022222233,1,0,0,1.5792,optionRight,70,2630,2,6,0,6,0,1,,,,,,,,,,,,,,,,,,,,,,,,,,,,,,,,,,,,,,,
,,,,,,,,2023-08-06_08h38.21.576,HF_wild_card,2022.2.4,Win32,20.0968669,5ca3805f5c01df0013af4fe1,64ce5acb97489d65b14ecc7a,64cf4be5b58f98f2866956a2,,,,,,,decisionTrl,resources/DG.BMP,resources/DP.BMP,Door2,-0.28535881,-0.082407443,1,0,0,2.6277,optionLeft,20,2650,2,7,0,7,0,1,,,,,,,,,,,,,,,,,,,,,,,,,,,,,,,,,,,,,,,
,,,,,,,,2023-08-06_08h38.21.576,HF_wild_card,2022.2.4,Win32,20.0968669,5ca3805f5c01df0013af4fe1,64ce5acb97489d65b14ecc7a,64cf4be5b58f98f2866956a2,,,,,,,ctch,resources/DG.BMP,resources/DBN.BMP,Door3,0.243344879,-0.036111132,1,0,0,1.5126,optionRight,70,2720,2,8,0,8,0,1,,,,,,,,,,,,,,,,,,,,,,,,,,,,,,,,,,,,,,,
,,,,,,,,2023-08-06_08h38.21.576,HF_wild_card,2022.2.4,Win32,20.0968669,5ca3805f5c01df0013af4fe1,64ce5acb97489d65b14ecc7a,64cf4be5b58f98f2866956a2,,,,,,,decisionTrl,resources/DP.BMP,resources/DBN.BMP,Door3,0.225752385,-0.020370388,1,0,0,1.5625,optionRight,70,2790,2,9,0,9,0,1,,,,,,,,,,,,,,,,,,,,,,,,,,,,,,,,,,,,,,,
,,,,,,,,2023-08-06_08h38.21.576,HF_wild_card,2022.2.4,Win32,20.0968669,5ca3805f5c01df0013af4fe1,64ce5acb97489d65b14ecc7a,64cf4be5b58f98f2866956a2,,,,,,,decisionTrl,resources/DBN.BMP,resources/DP.BMP,Door3,-0.186284701,-0.025925922,1,0,0,1.4792,optionLeft,70,2860,2,10,0,10,0,1,,,,,,,,,,,,,,,,,,,,,,,,,,,,,,,,,,,,,,,
,,,,,,,,2023-08-06_08h38.21.576,HF_wild_card,2022.2.4,Win32,20.0968669,5ca3805f5c01df0013af4fe1,64ce5acb97489d65b14ecc7a,64cf4be5b58f98f2866956a2,,,,,,,decisionTrl,resources/DR.BMP,resources/DBN.BMP,Door3,0.1609375,-0.028703721,1,0,0,3.7768,optionRight,70,2930,2,11,0,11,0,1,,,,,,,,,,,,,,,,,,,,,,,,,,,,,,,,,,,,,,,
,,,,,,,,2023-08-06_08h38.21.576,HF_wild_card,2022.2.4,Win32,20.0968669,5ca3805f5c01df0013af4fe1,64ce5acb97489d65b14ecc7a,64cf4be5b58f98f2866956a2,,,,,,,decisionTrl,resources/DBN.BMP,resources/DR.BMP,Door3,-0.284432856,-0.062962977,1,0,0,2.4277,optionLeft,70,3000,2,12,0,12,0,1,,,,,,,,,,,,,,,,,,,,,,,,,,,,,,,,,,,,,,,
,,,,,,,,2023-08-06_08h38.21.576,HF_wild_card,2022.2.4,Win32,20.0968669,5ca3805f5c01df0013af4fe1,64ce5acb97489d65b14ecc7a,64cf4be5b58f98f2866956a2,,,,,,,ctch,resources/DR.BMP,resources/DB.BMP,Door4,-0.26035881,-0.07870369,1,0,0,1.2271,optionLeft,60,3060,2,13,0,13,0,1,,,,,,,,,,,,,,,,,,,,,,,,,,,,,,,,,,,,,,,
,,,,,,,,2023-08-06_08h38.21.576,HF_wild_card,2022.2.4,Win32,20.0968669,5ca3805f5c01df0013af4fe1,64ce5acb97489d65b14ecc7a,64cf4be5b58f98f2866956a2,,,,,,,sngl,resources/DR.BMP,resources/Empty.png,Door4,-0.251099523,-0.057407443,1,0,0,0.8465,optionLeft,60,3120,2,14,0,14,0,1,,,,,,,,,,,,,,,,,,,,,,,,,,,,,,,,,,,,,,,
,,,,,,,,2023-08-06_08h38.21.576,HF_wild_card,2022.2.4,Win32,20.0968669,5ca3805f5c01df0013af4fe1,64ce5acb97489d65b14ecc7a,64cf4be5b58f98f2866956a2,,,,,,,decisionTrl,resources/DB.BMP,resources/DG.BMP,Door1,-0.1890625,-0.037962977,1,0,0,2.3111,optionLeft,30,3150,2,15,0,15,0,1,,,,,,,,,,,,,,,,,,,,,,,,,,,,,,,,,,,,,,,
,,,,,,,,2023-08-06_08h38.21.576,HF_wild_card,2022.2.4,Win32,20.0968669,5ca3805f5c01df0013af4fe1,64ce5acb97489d65b14ecc7a,64cf4be5b58f98f2866956a2,,,,,,,ctch,resources/DBN.BMP,resources/DG.BMP,Door3,-0.178877322,-0.043518511,1,0,0,1.2951,optionLeft,70,3220,2,16,0,16,0,1,,,,,,,,,,,,,,,,,,,,,,,,,,,,,,,,,,,,,,,
,,,,,,,,2023-08-06_08h38.21.576,HF_wild_card,2022.2.4,Win32,20.0968669,5ca3805f5c01df0013af4fe1,64ce5acb97489d65b14ecc7a,64cf4be5b58f98f2866956a2,,,,,,,sngl,resources/DP.BMP,resources/Empty.png,WildCard_Ex,-0.186284701,-0.047222201,1,0,0,1.1961,optionLeft,95,3315,2,17,0,17,0,1,,,,,,,,,,,,,,,,,,,,,,,,,,,,,,,,,,,,,,,
,,,,,,,,2023-08-06_08h38.21.576,HF_wild_card,2022.2.4,Win32,20.0968669,5ca3805f5c01df0013af4fe1,64ce5acb97489d65b14ecc7a,64cf4be5b58f98f2866956a2,,,,,,,decisionTrl,resources/DR.BMP,resources/DBN.BMP,Door3,0.201678212,-0.038888868,1,0,0,2.5615,optionRight,70,3385,2,18,0,18,0,1,,,,,,,,,,,,,,,,,,,,,,,,,,,,,,,,,,,,,,,
,,,,,,,,2023-08-06_08h38.21.576,HF_wild_card,2022.2.4,Win32,20.0968669,5ca3805f5c01df0013af4fe1,64ce5acb97489d65b14ecc7a,64cf4be5b58f98f2866956a2,,,,,,,decisionTrl,resources/DG.BMP,resources/DB.BMP,Door1,0.404456075,-0.07129631,1,0,0,4.6239,optionRight,30,3415,2,19,0,19,0,1,,,,,,,,,,,,,,,,,,,,,,,,,,,,,,,,,,,,,,,
,,,,,,,,2023-08-06_08h38.21.576,HF_wild_card,2022.2.4,Win32,20.0968669,5ca3805f5c01df0013af4fe1,64ce5acb97489d65b14ecc7a,64cf4be5b58f98f2866956a2,,,,,,,ctch,resources/DR.BMP,resources/DB.BMP,Door4,-0.169618034,-0.058333333,1,0,0,2.0002,optionLeft,80,3495,2,20,0,20,0,1,,,,,,,,,,,,,,,,,,,,,,,,,,,,,,,,,,,,,,,
,,,,,,,,2023-08-06_08h38.21.576,HF_wild_card,2022.2.4,Win32,20.0968669,5ca3805f5c01df0013af4fe1,64ce5acb97489d65b14ecc7a,64cf4be5b58f98f2866956a2,,,,,,,ctch,resources/DB.BMP,resources/DR.BMP,Door4,0.284085719,-0.042592621,1,0,0,1.0778,optionRight,80,3575,2,21,0,21,0,1,,,,,,,,,,,,,,,,,,,,,,,,,,,,,,,,,,,,,,,
,,,,,,,,2023-08-06_08h38.21.576,HF_wild_card,2022.2.4,Win32,20.0968669,5ca3805f5c01df0013af4fe1,64ce5acb97489d65b14ecc7a,64cf4be5b58f98f2866956a2,,,,,,,sngl,resources/DG.BMP,resources/Empty.png,Door2,-0.183506966,-0.058333333,1,0,0,1.2124,optionLeft,20,3595,2,22,0,22,0,1,,,,,,,,,,,,,,,,,,,,,,,,,,,,,,,,,,,,,,,
,,,,,,,,2023-08-06_08h38.21.576,HF_wild_card,2022.2.4,Win32,20.0968669,5ca3805f5c01df0013af4fe1,64ce5acb97489d65b14ecc7a,64cf4be5b58f98f2866956a2,,,,,,,decisionTrl,resources/DBN.BMP,resources/DR.BMP,Door4,0.326678212,-0.016666667,1,0,0,1.2944,optionRight,60,3655,2,23,0,23,0,1,,,,,,,,,,,,,,,,,,,,,,,,,,,,,,,,,,,,,,,
,,,,,,,,2023-08-06_08h38.21.576,HF_wild_card,2022.2.4,Win32,20.0968669,5ca3805f5c01df0013af4fe1,64ce5acb97489d65b14ecc7a,64cf4be5b58f98f2866956a2,,,,,,,decisionTrl,resources/DBN.BMP,resources/DR.BMP,Door3,-0.234432856,-0.079629644,1,0,0,1.0459,optionLeft,70,3725,2,24,0,24,0,1,,,,,,,,,,,,,,,,,,,,,,,,,,,,,,,,,,,,,,,
,,,,,,,,2023-08-06_08h38.21.576,HF_wild_card,2022.2.4,Win32,20.0968669,5ca3805f5c01df0013af4fe1,64ce5acb97489d65b14ecc7a,64cf4be5b58f98f2866956a2,,,,,,,sngl,resources/DB.BMP,resources/Empty.png,Door1,-0.21035881,-0.094444466,1,0,0,1.0781,optionLeft,30,3755,2,25,0,25,0,1,,,,,,,,,,,,,,,,,,,,,,,,,,,,,,,,,,,,,,,
,,,,,,,,2023-08-06_08h38.21.576,HF_wild_card,2022.2.4,Win32,20.0968669,5ca3805f5c01df0013af4fe1,64ce5acb97489d65b14ecc7a,64cf4be5b58f98f2866956a2,,,,,,,sngl,resources/Empty.png,resources/DP.BMP,WildCard_Ex,0.283159765,-0.052777799,1,0,0,0.8458,optionRight,95,3850,2,26,0,26,0,1,,,,,,,,,,,,,,,,,,,,,,,,,,,,,,,,,,,,,,,
,,,,,,,,2023-08-06_08h38.21.576,HF_wild_card,2022.2.4,Win32,20.0968669,5ca3805f5c01df0013af4fe1,64ce5acb97489d65b14ecc7a,64cf4be5b58f98f2866956a2,,,,,,,decisionTrl,resources/DR.BMP,resources/DP.BMP,WildCard_Ex,0.281307856,-0.049074109,1,0,0,1.0324,optionRight,5,3855,2,27,0,27,0,1,,,,,,,,,,,,,,,,,,,,,,,,,,,,,,,,,,,,,,,
,,,,,,,,2023-08-06_08h38.21.576,HF_wild_card,2022.2.4,Win32,20.0968669,5ca3805f5c01df0013af4fe1,64ce5acb97489d65b14ecc7a,64cf4be5b58f98f2866956a2,,,,,,,sngl,resources/DBN.BMP,resources/Empty.png,Door3,-0.155729167,-0.028703721,1,0,0,0.946,optionLeft,70,3925,2,28,0,28,0,1,,,,,,,,,,,,,,,,,,,,,,,,,,,,,,,,,,,,,,,
,,,,,,,,2023-08-06_08h38.21.576,HF_wild_card,2022.2.4,Win32,20.0968669,5ca3805f5c01df0013af4fe1,64ce5acb97489d65b14ecc7a,64cf4be5b58f98f2866956a2,,,,,,,sngl,resources/Empty.png,resources/DP.BMP,WildCard_Ex,0.259085719,-0.038888868,1,0,0,1.0963,optionRight,5,3930,2,29,0,29,0,1,,,,,,,,,,,,,,,,,,,,,,,,,,,,,,,,,,,,,,,
,,,,,,,,2023-08-06_08h38.21.576,HF_wild_card,2022.2.4,Win32,20.0968669,5ca3805f5c01df0013af4fe1,64ce5acb97489d65b14ecc7a,64cf4be5b58f98f2866956a2,,,,,,,ctch,resources/DB.BMP,resources/DR.BMP,Door4,0.328530121,-0.037962977,1,0,0,1.2798,optionRight,60,3990,2,30,0,30,0,1,,,,,,,,,,,,,,,,,,,,,,,,,,,,,,,,,,,,,,,
,,,,,,,,2023-08-06_08h38.21.576,HF_wild_card,2022.2.4,Win32,20.0968669,5ca3805f5c01df0013af4fe1,64ce5acb97489d65b14ecc7a,64cf4be5b58f98f2866956a2,,,,,,,decisionTrl,resources/DB.BMP,resources/DP.BMP,WildCard_Ex,0.160011609,-0.068518511,1,0,0,6.3414,optionRight,95,4085,2,31,0,31,0,1,,,,,,,,,,,,,,,,,,,,,,,,,,,,,,,,,,,,,,,
,,,,,,,,2023-08-06_08h38.21.576,HF_wild_card,2022.2.4,Win32,20.0968669,5ca3805f5c01df0013af4fe1,64ce5acb97489d65b14ecc7a,64cf4be5b58f98f2866956a2,,,,,,,sngl,resources/Empty.png,resources/DG.BMP,Door2,0.263715235,-0.02129631,1,0,0,1.3296,optionRight,40,4125,2,32,0,32,0,1,,,,,,,,,,,,,,,,,,,,,,,,,,,,,,,,,,,,,,,
,,,,,,,,2023-08-06_08h38.21.576,HF_wild_card,2022.2.4,Win32,20.0968669,5ca3805f5c01df0013af4fe1,64ce5acb97489d65b14ecc7a,64cf4be5b58f98f2866956a2,,,,,,,decisionTrl,resources/DR.BMP,resources/DBN.BMP,Door4,-0.293692144,-0.123148155,1,0,0,2.828,optionLeft,80,4205,2,33,0,33,0,1,,,,,,,,,,,,,,,,,,,,,,,,,,,,,,,,,,,,,,,
,,,,,,,,2023-08-06_08h38.21.576,HF_wild_card,2022.2.4,Win32,20.0968669,5ca3805f5c01df0013af4fe1,64ce5acb97489d65b14ecc7a,64cf4be5b58f98f2866956a2,,,,,,,decisionTrl,resources/DB.BMP,resources/DG.BMP,Door2,0.199826431,-0.024074078,1,0,0,1.7622,optionRight,40,4245,2,34,0,34,0,1,,,,,,,,,,,,,,,,,,,,,,,,,,,,,,,,,,,,,,,
,,,,,,,,2023-08-06_08h38.21.576,HF_wild_card,2022.2.4,Win32,20.0968669,5ca3805f5c01df0013af4fe1,64ce5acb97489d65b14ecc7a,64cf4be5b58f98f2866956a2,,,,,,,decisionTrl,resources/DP.BMP,resources/DG.BMP,WildCard_Ex,-0.148321724,-0.055555534,1,0,0,1.7939,optionLeft,95,4340,2,35,0,35,0,1,,,,,,,,,,,,,,,,,,,,,,,,,,,,,,,,,,,,,,,
,,,,,,,,2023-08-06_08h38.21.576,HF_wild_card,2022.2.4,Win32,20.0968669,5ca3805f5c01df0013af4fe1,64ce5acb97489d65b14ecc7a,64cf4be5b58f98f2866956a2,,,,,,,sngl,resources/Empty.png,resources/DR.BMP,Door4,0.254456075,-0.04629631,1,0,0,0.8306,optionRight,80,4420,2,36,0,36,0,1,,,,,,,,,,,,,,,,,,,,,,,,,,,,,,,,,,,,,,,
,,,,,,,,2023-08-06_08h38.21.576,HF_wild_card,2022.2.4,Win32,20.0968669,5ca3805f5c01df0013af4fe1,64ce5acb97489d65b14ecc7a,64cf4be5b58f98f2866956a2,,,,,,,ctch,resources/DBN.BMP,resources/DG.BMP,Door3,-0.157581011,-0.036111132,1,0,0,5.176,optionLeft,70,4490,2,37,0,37,0,1,,,,,,,,,,,,,,,,,,,,,,,,,,,,,,,,,,,,,,,
,,,,,,,,2023-08-06_08h38.21.576,HF_wild_card,2022.2.4,Win32,20.0968669,5ca3805f5c01df0013af4fe1,64ce5acb97489d65b14ecc7a,64cf4be5b58f98f2866956a2,,,,,,,decisionTrl,resources/DG.BMP,resources/DB.BMP,Door2,-0.262210655,-0.07870369,1,0,0,1.2515,optionLeft,20,4510,2,38,0,38,0,1,,,,,,,,,,,,,,,,,,,,,,,,,,,,,,,,,,,,,,,
,,,,,,,,2023-08-06_08h38.21.576,HF_wild_card,2022.2.4,Win32,20.0968669,5ca3805f5c01df0013af4fe1,64ce5acb97489d65b14ecc7a,64cf4be5b58f98f2866956a2,,,,,,,sngl,resources/Empty.png,resources/DB.BMP,Door1,0.216493098,-0.025,1,0,0,0.9354,optionRight,30,4540,2,39,0,39,0,1,,,,,,,,,,,,,,,,,,,,,,,,,,,,,,,,,,,,,,,
,,,,,,,,2023-08-06_08h38.21.576,HF_wild_card,2022.2.4,Win32,20.0968669,5ca3805f5c01df0013af4fe1,64ce5acb97489d65b14ecc7a,64cf4be5b58f98f2866956a2,,,,,,,decisionTrl,resources/DBN.BMP,resources/DR.BMP,Door4,0.33964119,-0.064814822,1,0,0,1.4124,optionRight,80,4620,2,40,0,40,0,1,,,,,,,,,,,,,,,,,,,,,,,,,,,,,,,,,,,,,,,
,,,,,,,,2023-08-06_08h38.21.576,HF_wild_card,2022.2.4,Win32,20.0968669,5ca3805f5c01df0013af4fe1,64ce5acb97489d65b14ecc7a,64cf4be5b58f98f2866956a2,,,,,,,sngl,resources/Empty.png,resources/DBN.BMP,Door3,0.360011546,-0.080555534,1,0,0,1.3952,optionRight,70,4690,2,41,0,41,0,1,,,,,,,,,,,,,,,,,,,,,,,,,,,,,,,,,,,,,,,
,,,,,,,,2023-08-06_08h38.21.576,HF_wild_card,2022.2.4,Win32,20.0968669,5ca3805f5c01df0013af4fe1,64ce5acb97489d65b14ecc7a,64cf4be5b58f98f2866956a2,,,,,,,decisionTrl,resources/DG.BMP,resources/DB.BMP,Door1,0.230381902,-0.037037023,1,0,0,3.0478,optionRight,30,4720,2,42,0,42,0,1,,,,,,,,,,,,,,,,,,,,,,,,,,,,,,,,,,,,,,,
,,,,,,,,2023-08-06_08h38.21.576,HF_wild_card,2022.2.4,Win32,20.0968669,5ca3805f5c01df0013af4fe1,64ce5acb97489d65b14ecc7a,64cf4be5b58f98f2866956a2,,,,,,,ctch,resources/DG.BMP,resources/DBN.BMP,Door3,0.320196788,-0.030555566,1,0,0,0.9796,optionRight,70,4790,2,43,0,43,0,1,,,,,,,,,,,,,,,,,,,,,,,,,,,,,,,,,,,,,,,
,,,,,,,,2023-08-06_08h38.21.576,HF_wild_card,2022.2.4,Win32,20.0968669,5ca3805f5c01df0013af4fe1,64ce5acb97489d65b14ecc7a,64cf4be5b58f98f2866956a2,,,,,,,,,,,,,,,,,,,,,,,,,,1,0,1,0,1,,,,,,,,,,,,,,,,,,,,,,,,,,,,,,,,,,
,,,,,,,,2023-08-06_08h38.21.576,HF_wild_card,2022.2.4,Win32,20.0968669,5ca3805f5c01df0013af4fe1,64ce5acb97489d65b14ecc7a,64cf4be5b58f98f2866956a2,,,,,,,decisionTrl,resources/DP.BMP,resources/DR.BMP,WildCard_Ex,-0.125173632,-0.204629644,1,0,0,2.1151,optionLeft,5,4795,3,0,0,0,0,1,,,,,,,,,,,,,,,,,,,,,,,,,,,,,,,,,,,,,,,
,,,,,,,,2023-08-06_08h38.21.576,HF_wild_card,2022.2.4,Win32,20.0968669,5ca3805f5c01df0013af4fe1,64ce5acb97489d65b14ecc7a,64cf4be5b58f98f2866956a2,,,,,,,ctch,resources/DG.BMP,resources/DBN.BMP,Door3,0.1609375,-0.063888868,1,0,0,1.5782,optionRight,70,4865,3,1,0,1,0,1,,,,,,,,,,,,,,,,,,,,,,,,,,,,,,,,,,,,,,,
,,,,,,,,2023-08-06_08h38.21.576,HF_wild_card,2022.2.4,Win32,20.0968669,5ca3805f5c01df0013af4fe1,64ce5acb97489d65b14ecc7a,64cf4be5b58f98f2866956a2,,,,,,,decisionTrl,resources/DB.BMP,resources/DG.BMP,Door2,0.197048569,-0.072222201,1,0,0,1.3287,optionRight,20,4885,3,2,0,2,0,1,,,,,,,,,,,,,,,,,,,,,,,,,,,,,,,,,,,,,,,
,,,,,,,,2023-08-06_08h38.21.576,HF_wild_card,2022.2.4,Win32,20.0968669,5ca3805f5c01df0013af4fe1,64ce5acb97489d65b14ecc7a,64cf4be5b58f98f2866956a2,,,,,,,sngl,resources/DG.BMP,resources/Empty.png,Door2,-0.193692144,-0.05370369,1,0,0,0.8967,optionLeft,40,4925,3,3,0,3,0,1,,,,,,,,,,,,,,,,,,,,,,,,,,,,,,,,,,,,,,,
,,,,,,,,2023-08-06_08h38.21.576,HF_wild_card,2022.2.4,Win32,20.0968669,5ca3805f5c01df0013af4fe1,64ce5acb97489d65b14ecc7a,64cf4be5b58f98f2866956a2,,,,,,,decisionTrl,resources/DBN.BMP,resources/DP.BMP,Door3,-0.44276619,-0.167592621,1,0,0,2.1616,optionLeft,70,4995,3,4,0,4,0,1,,,,,,,,,,,,,,,,,,,,,,,,,,,,,,,,,,,,,,,
,,,,,,,,2023-08-06_08h38.21.576,HF_wild_card,2022.2.4,Win32,20.0968669,5ca3805f5c01df0013af4fe1,64ce5acb97489d65b14ecc7a,64cf4be5b58f98f2866956a2,,,,,,,decisionTrl,resources/DP.BMP,resources/DB.BMP,Door1,0.155381966,-0.061111132,1,0,0,1.3289,optionRight,30,5025,3,5,0,5,0,1,,,,,,,,,,,,,,,,,,,,,,,,,,,,,,,,,,,,,,,
,,,,,,,,2023-08-06_08h38.21.576,HF_wild_card,2022.2.4,Win32,20.0968669,5ca3805f5c01df0013af4fe1,64ce5acb97489d65b14ecc7a,64cf4be5b58f98f2866956a2,,,,,,,decisionTrl,resources/DP.BMP,resources/DBN.BMP,Door3,0.213715235,-0.076851845,1,0,0,1.1129,optionRight,70,5095,3,6,0,6,0,1,,,,,,,,,,,,,,,,,,,,,,,,,,,,,,,,,,,,,,,
,,,,,,,,2023-08-06_08h38.21.576,HF_wild_card,2022.2.4,Win32,20.0968669,5ca3805f5c01df0013af4fe1,64ce5acb97489d65b14ecc7a,64cf4be5b58f98f2866956a2,,,,,,,ctch,resources/DBN.BMP,resources/DG.BMP,Door3,-0.229803212,-0.091666667,1,0,0,1.5777,optionLeft,70,5165,3,7,0,7,0,1,,,,,,,,,,,,,,,,,,,,,,,,,,,,,,,,,,,,,,,
,,,,,,,,2023-08-06_08h38.21.576,HF_wild_card,2022.2.4,Win32,20.0968669,5ca3805f5c01df0013af4fe1,64ce5acb97489d65b14ecc7a,64cf4be5b58f98f2866956a2,,,,,,,decisionTrl,resources/DR.BMP,resources/DBN.BMP,Door4,-0.175173632,-0.084259288,1,0,0,1.6443,optionLeft,80,5245,3,8,0,8,0,1,,,,,,,,,,,,,,,,,,,,,,,,,,,,,,,,,,,,,,,
,,,,,,,,2023-08-06_08h38.21.576,HF_wild_card,2022.2.4,Win32,20.0968669,5ca3805f5c01df0013af4fe1,64ce5acb97489d65b14ecc7a,64cf4be5b58f98f2866956a2,,,,,,,sngl,resources/Empty.png,resources/DP.BMP,WildCard_Ex,0.184085719,-0.069444466,1,0,0,0.9626,optionRight,5,5250,3,9,0,9,0,1,,,,,,,,,,,,,,,,,,,,,,,,,,,,,,,,,,,,,,,
,,,,,,,,2023-08-06_08h38.21.576,HF_wild_card,2022.2.4,Win32,20.0968669,5ca3805f5c01df0013af4fe1,64ce5acb97489d65b14ecc7a,64cf4be5b58f98f2866956a2,,,,,,,decisionTrl,resources/DBN.BMP,resources/DR.BMP,Door4,0.277604167,-0.115740776,1,0,0,1.579,optionRight,80,5330,3,10,0,10,0,1,,,,,,,,,,,,,,,,,,,,,,,,,,,,,,,,,,,,,,,
,,,,,,,,2023-08-06_08h38.21.576,HF_wild_card,2022.2.4,Win32,20.0968669,5ca3805f5c01df0013af4fe1,64ce5acb97489d65b14ecc7a,64cf4be5b58f98f2866956a2,,,,,,,decisionTrl,resources/DR.BMP,resources/DBN.BMP,Door4,-0.266840299,-0.226851908,1,0,0,1.2955,optionLeft,80,5410,3,11,0,11,0,1,,,,,,,,,,,,,,,,,,,,,,,,,,,,,,,,,,,,,,,
,,,,,,,,2023-08-06_08h38.21.576,HF_wild_card,2022.2.4,Win32,20.0968669,5ca3805f5c01df0013af4fe1,64ce5acb97489d65b14ecc7a,64cf4be5b58f98f2866956a2,,,,,,,decisionTrl,resources/DB.BMP,resources/DG.BMP,Door2,0.237789408,-0.019444434,1,0,0,1.9162,optionRight,40,5450,3,12,0,12,0,1,,,,,,,,,,,,,,,,,,,,,,,,,,,,,,,,,,,,,,,
,,,,,,,,2023-08-06_08h38.21.576,HF_wild_card,2022.2.4,Win32,20.0968669,5ca3805f5c01df0013af4fe1,64ce5acb97489d65b14ecc7a,64cf4be5b58f98f2866956a2,,,,,,,decisionTrl,resources/DG.BMP,resources/DB.BMP,Door2,-0.173321724,-0.079629644,1,0,0,1.2791,optionLeft,20,5470,3,13,0,13,0,1,,,,,,,,,,,,,,,,,,,,,,,,,,,,,,,,,,,,,,,
,,,,,,,,2023-08-06_08h38.21.576,HF_wild_card,2022.2.4,Win32,20.0968669,5ca3805f5c01df0013af4fe1,64ce5acb97489d65b14ecc7a,64cf4be5b58f98f2866956a2,,,,,,,sngl,resources/Empty.png,resources/DB.BMP,Door1,0.215567144,-0.055555534,1,0,0,0.8623,optionRight,30,5500,3,14,0,14,0,1,,,,,,,,,,,,,,,,,,,,,,,,,,,,,,,,,,,,,,,
,,,,,,,,2023-08-06_08h38.21.576,HF_wild_card,2022.2.4,Win32,20.0968669,5ca3805f5c01df0013af4fe1,64ce5acb97489d65b14ecc7a,64cf4be5b58f98f2866956a2,,,,,,,sngl,resources/DP.BMP,resources/Empty.png,WildCard_Ex,-0.177025477,-0.059259288,1,0,0,0.8788,optionLeft,5,5505,3,15,0,15,0,1,,,,,,,,,,,,,,,,,,,,,,,,,,,,,,,,,,,,,,,
,,,,,,,,2023-08-06_08h38.21.576,HF_wild_card,2022.2.4,Win32,20.0968669,5ca3805f5c01df0013af4fe1,64ce5acb97489d65b14ecc7a,64cf4be5b58f98f2866956a2,,,,,,,decisionTrl,resources/DBN.BMP,resources/DR.BMP,Door4,0.203530121,-0.070370356,1,0,0,1.3791,optionRight,80,5585,3,16,0,16,0,1,,,,,,,,,,,,,,,,,,,,,,,,,,,,,,,,,,,,,,,
,,,,,,,,2023-08-06_08h38.21.576,HF_wild_card,2022.2.4,Win32,20.0968669,5ca3805f5c01df0013af4fe1,64ce5acb97489d65b14ecc7a,64cf4be5b58f98f2866956a2,,,,,,,decisionTrl,resources/DG.BMP,resources/DB.BMP,Door2,-0.152951368,-0.091666667,1,0,0,2.4112,optionLeft,20,5605,3,17,0,17,0,1,,,,,,,,,,,,,,,,,,,,,,,,,,,,,,,,,,,,,,,
,,,,,,,,2023-08-06_08h38.21.576,HF_wild_card,2022.2.4,Win32,20.0968669,5ca3805f5c01df0013af4fe1,64ce5acb97489d65b14ecc7a,64cf4be5b58f98f2866956a2,,,,,,,decisionTrl,resources/DP.BMP,resources/DG.BMP,Door2,0.328530121,-0.083333333,1,0,0,1.9775,optionRight,40,5645,3,18,0,18,0,1,,,,,,,,,,,,,,,,,,,,,,,,,,,,,,,,,,,,,,,
,,,,,,,,2023-08-06_08h38.21.576,HF_wild_card,2022.2.4,Win32,20.0968669,5ca3805f5c01df0013af4fe1,64ce5acb97489d65b14ecc7a,64cf4be5b58f98f2866956a2,,,,,,,decisionTrl,resources/DG.BMP,resources/DB.BMP,Door1,0.183159765,-0.092592621,1,0,0,1.895,optionRight,30,5675,3,19,0,19,0,1,,,,,,,,,,,,,,,,,,,,,,,,,,,,,,,,,,,,,,,
,,,,,,,,2023-08-06_08h38.21.576,HF_wild_card,2022.2.4,Win32,20.0968669,5ca3805f5c01df0013af4fe1,64ce5acb97489d65b14ecc7a,64cf4be5b58f98f2866956a2,,,,,,,sngl,resources/DP.BMP,resources/Empty.png,WildCard_Ex,-0.199247678,-0.076851845,1,0,0,0.9128,optionLeft,95,5770,3,20,0,20,0,1,,,,,,,,,,,,,,,,,,,,,,,,,,,,,,,,,,,,,,,
,,,,,,,,2023-08-06_08h38.21.576,HF_wild_card,2022.2.4,Win32,20.0968669,5ca3805f5c01df0013af4fe1,64ce5acb97489d65b14ecc7a,64cf4be5b58f98f2866956a2,,,,,,,sngl,resources/Empty.png,resources/DBN.BMP,Door3,0.276678212,-0.041666667,1,0,0,0.8472,optionRight,70,5840,3,21,0,21,0,1,,,,,,,,,,,,,,,,,,,,,,,,,,,,,,,,,,,,,,,
,,,,,,,,2023-08-06_08h38.21.576,HF_wild_card,2022.2.4,Win32,20.0968669,5ca3805f5c01df0013af4fe1,64ce5acb97489d65b14ecc7a,64cf4be5b58f98f2866956a2,,,,,,,ctch,resources/DB.BMP,resources/DR.BMP,Door4,0.250752385,-0.038888868,1,0,0,2.1242,optionRight,60,5900,3,22,0,22,0,1,,,,,,,,,,,,,,,,,,,,,,,,,,,,,,,,,,,,,,,
,,,,,,,,2023-08-06_08h38.21.576,HF_wild_card,2022.2.4,Win32,20.0968669,5ca3805f5c01df0013af4fe1,64ce5acb97489d65b14ecc7a,64cf4be5b58f98f2866956a2,,,,,,,decisionTrl,resources/DG.BMP,resources/DP.BMP,WildCard_Ex,0.225752385,-0.072222201,1,0,0,1.8617,optionRight,5,5905,3,23,0,23,0,1,,,,,,,,,,,,,,,,,,,,,,,,,,,,,,,,,,,,,,,
,,,,,,,,2023-08-06_08h38.21.576,HF_wild_card,2022.2.4,Win32,20.0968669,5ca3805f5c01df0013af4fe1,64ce5acb97489d65b14ecc7a,64cf4be5b58f98f2866956a2,,,,,,,sngl,resources/Empty.png,resources/DR.BMP,Door4,0.285011546,-0.042592621,1,0,0,0.8463,optionRight,60,5965,3,24,0,24,0,1,,,,,,,,,,,,,,,,,,,,,,,,,,,,,,,,,,,,,,,
,,,,,,,,2023-08-06_08h38.21.576,HF_wild_card,2022.2.4,Win32,20.0968669,5ca3805f5c01df0013af4fe1,64ce5acb97489d65b14ecc7a,64cf4be5b58f98f2866956a2,,,,,,,sngl,resources/DBN.BMP,resources/Empty.png,Door3,-0.209432856,-0.029629644,1,0,0,1.113,optionLeft,70,6035,3,25,0,25,0,1,,,,,,,,,,,,,,,,,,,,,,,,,,,,,,,,,,,,,,,
,,,,,,,,2023-08-06_08h38.21.576,HF_wild_card,2022.2.4,Win32,20.0968669,5ca3805f5c01df0013af4fe1,64ce5acb97489d65b14ecc7a,64cf4be5b58f98f2866956a2,,,,,,,decisionTrl,resources/DB.BMP,resources/DG.BMP,Door1,-0.180729167,-0.090740776,1,0,0,1.2964,optionLeft,30,6065,3,26,0,26,0,1,,,,,,,,,,,,,,,,,,,,,,,,,,,,,,,,,,,,,,,
,,,,,,,,2023-08-06_08h38.21.576,HF_wild_card,2022.2.4,Win32,20.0968669,5ca3805f5c01df0013af4fe1,64ce5acb97489d65b14ecc7a,64cf4be5b58f98f2866956a2,,,,,,,decisionTrl,resources/DBN.BMP,resources/DR.BMP,Door4,0.187789408,-0.07870369,1,0,0,1.6459,optionRight,80,6145,3,27,0,27,0,1,,,,,,,,,,,,,,,,,,,,,,,,,,,,,,,,,,,,,,,
,,,,,,,,2023-08-06_08h38.21.576,HF_wild_card,2022.2.4,Win32,20.0968669,5ca3805f5c01df0013af4fe1,64ce5acb97489d65b14ecc7a,64cf4be5b58f98f2866956a2,,,,,,,ctch,resources/DR.BMP,resources/DB.BMP,Door4,-0.250173632,-0.148148155,1,0,0,1.0958,optionLeft,80,6225,3,28,0,28,0,1,,,,,,,,,,,,,,,,,,,,,,,,,,,,,,,,,,,,,,,
,,,,,,,,2023-08-06_08h38.21.576,HF_wild_card,2022.2.4,Win32,20.0968669,5ca3805f5c01df0013af4fe1,64ce5acb97489d65b14ecc7a,64cf4be5b58f98f2866956a2,,,,,,,decisionTrl,resources/DG.BMP,resources/DB.BMP,Door1,0.168344943,-0.045370356,1,0,0,1.4438,optionRight,30,6255,3,29,0,29,0,1,,,,,,,,,,,,,,,,,,,,,,,,,,,,,,,,,,,,,,,
,,,,,,,,2023-08-06_08h38.21.576,HF_wild_card,2022.2.4,Win32,20.0968669,5ca3805f5c01df0013af4fe1,64ce5acb97489d65b14ecc7a,64cf4be5b58f98f2866956a2,,,,,,,ctch,resources/DR.BMP,resources/DB.BMP,Door4,-0.259432856,-0.068518511,1,0,0,5.0297,optionLeft,60,6315,3,30,0,30,0,1,,,,,,,,,,,,,,,,,,,,,,,,,,,,,,,,,,,,,,,
,,,,,,,,2023-08-06_08h38.21.576,HF_wild_card,2022.2.4,Win32,20.0968669,5ca3805f5c01df0013af4fe1,64ce5acb97489d65b14ecc7a,64cf4be5b58f98f2866956a2,,,,,,,ctch,resources/DBN.BMP,resources/DG.BMP,Door3,-0.330729167,-0.038888868,1,0,0,2.2614,optionLeft,70,6385,3,31,0,31,0,1,,,,,,,,,,,,,,,,,,,,,,,,,,,,,,,,,,,,,,,
,,,,,,,,2023-08-06_08h38.21.576,HF_wild_card,2022.2.4,Win32,20.0968669,5ca3805f5c01df0013af4fe1,64ce5acb97489d65b14ecc7a,64cf4be5b58f98f2866956a2,,,,,,,sngl,resources/DB.BMP,resources/Empty.png,Door1,-0.404803244,-0.127777799,1,0,0,0.913,optionLeft,30,6415,3,32,0,32,0,1,,,,,,,,,,,,,,,,,,,,,,,,,,,,,,,,,,,,,,,
,,,,,,,,2023-08-06_08h38.21.576,HF_wild_card,2022.2.4,Win32,20.0968669,5ca3805f5c01df0013af4fe1,64ce5acb97489d65b14ecc7a,64cf4be5b58f98f2866956a2,,,,,,,ctch,resources/DG.BMP,resources/DBN.BMP,Door3,0.181307856,-0.035185178,1,0,0,1.3464,optionRight,70,6485,3,33,0,33,0,1,,,,,,,,,,,,,,,,,,,,,,,,,,,,,,,,,,,,,,,
,,,,,,,,2023-08-06_08h38.21.576,HF_wild_card,2022.2.4,Win32,20.0968669,5ca3805f5c01df0013af4fe1,64ce5acb97489d65b14ecc7a,64cf4be5b58f98f2866956a2,,,,,,,decisionTrl,resources/DR.BMP,resources/DBN.BMP,Door4,-0.150173632,-0.015740744,1,0,0,1.7633,optionLeft,60,6545,3,34,0,34,0,1,,,,,,,,,,,,,,,,,,,,,,,,,,,,,,,,,,,,,,,
,,,,,,,,2023-08-06_08h38.21.576,HF_wild_card,2022.2.4,Win32,20.0968669,5ca3805f5c01df0013af4fe1,64ce5acb97489d65b14ecc7a,64cf4be5b58f98f2866956a2,,,,,,,decisionTrl,resources/DB.BMP,resources/DP.BMP,Door1,-0.146469879,-0.07129631,1,0,0,3.7941,optionLeft,30,6575,3,35,0,35,0,1,,,,,,,,,,,,,,,,,,,,,,,,,,,,,,,,,,,,,,,
,,,,,,,,2023-08-06_08h38.21.576,HF_wild_card,2022.2.4,Win32,20.0968669,5ca3805f5c01df0013af4fe1,64ce5acb97489d65b14ecc7a,64cf4be5b58f98f2866956a2,,,,,,,decisionTrl,resources/DB.BMP,resources/DG.BMP,Door1,-0.177951368,-0.095370356,1,0,0,1.7124,optionLeft,30,6605,3,36,0,36,0,1,,,,,,,,,,,,,,,,,,,,,,,,,,,,,,,,,,,,,,,
,,,,,,,,2023-08-06_08h38.21.576,HF_wild_card,2022.2.4,Win32,20.0968669,5ca3805f5c01df0013af4fe1,64ce5acb97489d65b14ecc7a,64cf4be5b58f98f2866956a2,,,,,,,sngl,resources/DR.BMP,resources/Empty.png,Door4,-0.179803212,-0.044444466,1,0,0,0.8949,optionLeft,80,6685,3,37,0,37,0,1,,,,,,,,,,,,,,,,,,,,,,,,,,,,,,,,,,,,,,,
,,,,,,,,2023-08-06_08h38.21.576,HF_wild_card,2022.2.4,Win32,20.0968669,5ca3805f5c01df0013af4fe1,64ce5acb97489d65b14ecc7a,64cf4be5b58f98f2866956a2,,,,,,,ctch,resources/DB.BMP,resources/DR.BMP,Door4,0.20723381,-0.066666667,1,0,0,0.9615,optionRight,60,6745,3,38,0,38,0,1,,,,,,,,,,,,,,,,,,,,,,,,,,,,,,,,,,,,,,,
,,,,,,,,2023-08-06_08h38.21.576,HF_wild_card,2022.2.4,Win32,20.0968669,5ca3805f5c01df0013af4fe1,64ce5acb97489d65b14ecc7a,64cf4be5b58f98f2866956a2,,,,,,,decisionTrl,resources/DR.BMP,resources/DP.BMP,Door4,-0.161284701,-0.049074109,1,0,0,1.1609,optionLeft,80,6825,3,39,0,39,0,1,,,,,,,,,,,,,,,,,,,,,,,,,,,,,,,,,,,,,,,
,,,,,,,,2023-08-06_08h38.21.576,HF_wild_card,2022.2.4,Win32,20.0968669,5ca3805f5c01df0013af4fe1,64ce5acb97489d65b14ecc7a,64cf4be5b58f98f2866956a2,,,,,,,sngl,resources/Empty.png,resources/DG.BMP,Door2,0.173900477,-0.051851845,1,0,0,0.8791,optionRight,20,6845,3,40,0,40,0,1,,,,,,,,,,,,,,,,,,,,,,,,,,,,,,,,,,,,,,,
,,,,,,,,2023-08-06_08h38.21.576,HF_wild_card,2022.2.4,Win32,20.0968669,5ca3805f5c01df0013af4fe1,64ce5acb97489d65b14ecc7a,64cf4be5b58f98f2866956a2,,,,,,,sngl,resources/Empty.png,resources/DP.BMP,WildCard_Ex,0.155381966,-0.062962977,1,0,0,1.0468,optionRight,95,6940,3,41,0,41,0,1,,,,,,,,,,,,,,,,,,,,,,,,,,,,,,,,,,,,,,,
,,,,,,,,2023-08-06_08h38.21.576,HF_wild_card,2022.2.4,Win32,20.0968669,5ca3805f5c01df0013af4fe1,64ce5acb97489d65b14ecc7a,64cf4be5b58f98f2866956a2,,,,,,,decisionTrl,resources/DBN.BMP,resources/DR.BMP,Door4,0.324826431,-0.077777799,1,0,0,1.1458,optionRight,60,7000,3,42,0,42,0,1,,,,,,,,,,,,,,,,,,,,,,,,,,,,,,,,,,,,,,,
,,,,,,,,2023-08-06_08h38.21.576,HF_wild_card,2022.2.4,Win32,20.0968669,5ca3805f5c01df0013af4fe1,64ce5acb97489d65b14ecc7a,64cf4be5b58f98f2866956a2,,,,,,,decisionTrl,resources/DR.BMP,resources/DBN.BMP,Door3,0.233159765,-0.075925954,1,0,0,0.9613,optionRight,70,7070,3,43,0,43,0,1,,,,,,,,,,,,,,,,,,,,,,,,,,,,,,,,,,,,,,,
,,,,,,,,2023-08-06_08h38.21.576,HF_wild_card,2022.2.4,Win32,20.0968669,5ca3805f5c01df0013af4fe1,64ce5acb97489d65b14ecc7a,64cf4be5b58f98f2866956a2,,,,,,,,,,,,,,,,,,,,,,,,,,2,0,2,0,1,,,,,,,,,,,,,,,,,,,,,,,,,,,,,,,,,,
,,,,,,,,2023-08-06_08h38.21.576,HF_wild_card,2022.2.4,Win32,20.0968669,5ca3805f5c01df0013af4fe1,64ce5acb97489d65b14ecc7a,64cf4be5b58f98f2866956a2,,,,,,,decisionTrl,resources/DY.BMP,resources/DR.BMP,WildCard_NonEx,-0.132581011,-0.194444466,1,0,0,2.2336,optionLeft,55,7125,4,0,0,0,0,1,,,,,,,,,,,,,,,,,,,,,,,,,,,,,,,,,,,,,,,
,,,,,,,,2023-08-06_08h38.21.576,HF_wild_card,2022.2.4,Win32,20.0968669,5ca3805f5c01df0013af4fe1,64ce5acb97489d65b14ecc7a,64cf4be5b58f98f2866956a2,,,,,,,ctch,resources/DB.BMP,resources/DR.BMP,Door4,0.183159765,-0.069444466,1,0,0,1.1966,optionRight,80,7205,4,1,0,1,0,1,,,,,,,,,,,,,,,,,,,,,,,,,,,,,,,,,,,,,,,
,,,,,,,,2023-08-06_08h38.21.576,HF_wild_card,2022.2.4,Win32,20.0968669,5ca3805f5c01df0013af4fe1,64ce5acb97489d65b14ecc7a,64cf4be5b58f98f2866956a2,,,,,,,sngl,resources/DY.BMP,resources/Empty.png,WildCard_NonEx,-0.164988391,-0.075925954,1,0,0,0.9295,optionLeft,45,7250,4,2,0,2,0,1,,,,,,,,,,,,,,,,,,,,,,,,,,,,,,,,,,,,,,,
,,,,,,,,2023-08-06_08h38.21.576,HF_wild_card,2022.2.4,Win32,20.0968669,5ca3805f5c01df0013af4fe1,64ce5acb97489d65b14ecc7a,64cf4be5b58f98f2866956a2,,,,,,,sngl,resources/Empty.png,resources/DY.BMP,WildCard_NonEx,0.192419052,-0.086111132,1,0,0,0.8112,optionRight,55,7305,4,3,0,3,0,1,,,,,,,,,,,,,,,,,,,,,,,,,,,,,,,,,,,,,,,
,,,,,,,,2023-08-06_08h38.21.576,HF_wild_card,2022.2.4,Win32,20.0968669,5ca3805f5c01df0013af4fe1,64ce5acb97489d65b14ecc7a,64cf4be5b58f98f2866956a2,,,,,,,ctch,resources/DG.BMP,resources/DBN.BMP,Door3,0.224826431,-0.075,1,0,0,1.3959,optionRight,70,7375,4,4,0,4,0,1,,,,,,,,,,,,,,,,,,,,,,,,,,,,,,,,,,,,,,,
,,,,,,,,2023-08-06_08h38.21.576,HF_wild_card,2022.2.4,Win32,20.0968669,5ca3805f5c01df0013af4fe1,64ce5acb97489d65b14ecc7a,64cf4be5b58f98f2866956a2,,,,,,,decisionTrl,resources/DR.BMP,resources/DBN.BMP,Door3,0.25723381,-0.108333333,1,0,0,1.1461,optionRight,70,7445,4,5,0,5,0,1,,,,,,,,,,,,,,,,,,,,,,,,,,,,,,,,,,,,,,,
,,,,,,,,2023-08-06_08h38.21.576,HF_wild_card,2022.2.4,Win32,20.0968669,5ca3805f5c01df0013af4fe1,64ce5acb97489d65b14ecc7a,64cf4be5b58f98f2866956a2,,,,,,,ctch,resources/DB.BMP,resources/DR.BMP,Door4,0.169270833,-0.1,1,0,0,1.1626,optionRight,80,7525,4,6,0,6,0,1,,,,,,,,,,,,,,,,,,,,,,,,,,,,,,,,,,,,,,,
,,,,,,,,2023-08-06_08h38.21.576,HF_wild_card,2022.2.4,Win32,20.0968669,5ca3805f5c01df0013af4fe1,64ce5acb97489d65b14ecc7a,64cf4be5b58f98f2866956a2,,,,,,,decisionTrl,resources/DB.BMP,resources/DY.BMP,WildCard_NonEx,0.200752385,-0.108333333,1,0,0,1.8114,optionRight,55,7580,4,7,0,7,0,1,,,,,,,,,,,,,,,,,,,,,,,,,,,,,,,,,,,,,,,
,,,,,,,,2023-08-06_08h38.21.576,HF_wild_card,2022.2.4,Win32,20.0968669,5ca3805f5c01df0013af4fe1,64ce5acb97489d65b14ecc7a,64cf4be5b58f98f2866956a2,,,,,,,decisionTrl,resources/DG.BMP,resources/DB.BMP,Door1,0.147974523,-0.089814822,1,0,0,1.4623,optionRight,30,7610,4,8,0,8,0,1,,,,,,,,,,,,,,,,,,,,,,,,,,,,,,,,,,,,,,,
,,,,,,,,2023-08-06_08h38.21.576,HF_wild_card,2022.2.4,Win32,20.0968669,5ca3805f5c01df0013af4fe1,64ce5acb97489d65b14ecc7a,64cf4be5b58f98f2866956a2,,,,,,,decisionTrl,resources/DY.BMP,resources/DBN.BMP,Door3,0.186863454,-0.077777799,1,0,0,1.5627,optionRight,70,7680,4,9,0,9,0,1,,,,,,,,,,,,,,,,,,,,,,,,,,,,,,,,,,,,,,,
,,,,,,,,2023-08-06_08h38.21.576,HF_wild_card,2022.2.4,Win32,20.0968669,5ca3805f5c01df0013af4fe1,64ce5acb97489d65b14ecc7a,64cf4be5b58f98f2866956a2,,,,,,,sngl,resources/DBN.BMP,resources/Empty.png,Door3,-0.175173632,-0.039814822,1,0,0,0.9112,optionLeft,70,7750,4,10,0,10,0,1,,,,,,,,,,,,,,,,,,,,,,,,,,,,,,,,,,,,,,,
,,,,,,,,2023-08-06_08h38.21.576,HF_wild_card,2022.2.4,Win32,20.0968669,5ca3805f5c01df0013af4fe1,64ce5acb97489d65b14ecc7a,64cf4be5b58f98f2866956a2,,,,,,,decisionTrl,resources/DG.BMP,resources/DB.BMP,Door1,0.218344879,-0.07870369,1,0,0,1.9115,optionRight,30,7780,4,11,0,11,0,1,,,,,,,,,,,,,,,,,,,,,,,,,,,,,,,,,,,,,,,
,,,,,,,,2023-08-06_08h38.21.576,HF_wild_card,2022.2.4,Win32,20.0968669,5ca3805f5c01df0013af4fe1,64ce5acb97489d65b14ecc7a,64cf4be5b58f98f2866956a2,,,,,,,sngl,resources/Empty.png,resources/DR.BMP,Door4,0.220196788,-0.063888868,1,0,0,0.8964,optionRight,80,7860,4,12,0,12,0,1,,,,,,,,,,,,,,,,,,,,,,,,,,,,,,,,,,,,,,,
,,,,,,,,2023-08-06_08h38.21.576,HF_wild_card,2022.2.4,Win32,20.0968669,5ca3805f5c01df0013af4fe1,64ce5acb97489d65b14ecc7a,64cf4be5b58f98f2866956a2,,,,,,,ctch,resources/DG.BMP,resources/DBN.BMP,Door3,0.168344943,-0.090740776,1,0,0,1.4105,optionRight,70,7930,4,13,0,13,0,1,,,,,,,,,,,,,,,,,,,,,,,,,,,,,,,,,,,,,,,
,,,,,,,,2023-08-06_08h38.21.576,HF_wild_card,2022.2.4,Win32,20.0968669,5ca3805f5c01df0013af4fe1,64ce5acb97489d65b14ecc7a,64cf4be5b58f98f2866956a2,,,,,,,decisionTrl,resources/DBN.BMP,resources/DR.BMP,Door3,-0.304803212,-0.180555534,1,0,0,1.3791,optionLeft,70,8000,4,14,0,14,0,1,,,,,,,,,,,,,,,,,,,,,,,,,,,,,,,,,,,,,,,
,,,,,,,,2023-08-06_08h38.21.576,HF_wild_card,2022.2.4,Win32,20.0968669,5ca3805f5c01df0013af4fe1,64ce5acb97489d65b14ecc7a,64cf4be5b58f98f2866956a2,,,,,,,sngl,resources/Empty.png,resources/DB.BMP,Door1,0.276678212,-0.020370388,1,0,0,2.1286,optionRight,30,8030,4,15,0,15,0,1,,,,,,,,,,,,,,,,,,,,,,,,,,,,,,,,,,,,,,,
,,,,,,,,2023-08-06_08h38.21.576,HF_wild_card,2022.2.4,Win32,20.0968669,5ca3805f5c01df0013af4fe1,64ce5acb97489d65b14ecc7a,64cf4be5b58f98f2866956a2,,,,,,,decisionTrl,resources/DB.BMP,resources/DG.BMP,Door1,-0.232581011,-0.1,1,0,0,1.6131,optionLeft,30,8060,4,16,0,16,0,1,,,,,,,,,,,,,,,,,,,,,,,,,,,,,,,,,,,,,,,
,,,,,,,,2023-08-06_08h38.21.576,HF_wild_card,2022.2.4,Win32,20.0968669,5ca3805f5c01df0013af4fe1,64ce5acb97489d65b14ecc7a,64cf4be5b58f98f2866956a2,,,,,,,decisionTrl,resources/DY.BMP,resources/DG.BMP,WildCard_NonEx,-0.283506966,-0.176851845,1,0,0,1.3458,optionLeft,55,8115,4,17,0,17,0,1,,,,,,,,,,,,,,,,,,,,,,,,,,,,,,,,,,,,,,,
,,,,,,,,2023-08-06_08h38.21.576,HF_wild_card,2022.2.4,Win32,20.0968669,5ca3805f5c01df0013af4fe1,64ce5acb97489d65b14ecc7a,64cf4be5b58f98f2866956a2,,,,,,,decisionTrl,resources/DG.BMP,resources/DB.BMP,Door2,-0.156655057,-0.075925954,1,0,0,1.0963,optionLeft,40,8155,4,18,0,18,0,1,,,,,,,,,,,,,,,,,,,,,,,,,,,,,,,,,,,,,,,
,,,,,,,,2023-08-06_08h38.21.576,HF_wild_card,2022.2.4,Win32,20.0968669,5ca3805f5c01df0013af4fe1,64ce5acb97489d65b14ecc7a,64cf4be5b58f98f2866956a2,,,,,,,ctch,resources/DR.BMP,resources/DB.BMP,Door4,-0.198321724,-0.047222201,1,0,0,1.9611,optionLeft,60,8215,4,19,0,19,0,1,,,,,,,,,,,,,,,,,,,,,,,,,,,,,,,,,,,,,,,
,,,,,,,,2023-08-06_08h38.21.576,HF_wild_card,2022.2.4,Win32,20.0968669,5ca3805f5c01df0013af4fe1,64ce5acb97489d65b14ecc7a,64cf4be5b58f98f2866956a2,,,,,,,decisionTrl,resources/DBN.BMP,resources/DR.BMP,Door4,0.183159765,0.026851813,1,0,0,1.8562,optionRight,60,8275,4,20,0,20,0,1,,,,,,,,,,,,,,,,,,,,,,,,,,,,,,,,,,,,,,,
,,,,,,,,2023-08-06_08h38.21.576,HF_wild_card,2022.2.4,Win32,20.0968669,5ca3805f5c01df0013af4fe1,64ce5acb97489d65b14ecc7a,64cf4be5b58f98f2866956a2,,,,,,,decisionTrl,resources/DR.BMP,resources/DBN.BMP,Door3,0.134085655,0.016666667,1,0,0,1.5469,optionRight,70,8345,4,21,0,21,0,1,,,,,,,,,,,,,,,,,,,,,,,,,,,,,,,,,,,,,,,
,,,,,,,,2023-08-06_08h38.21.576,HF_wild_card,2022.2.4,Win32,20.0968669,5ca3805f5c01df0013af4fe1,64ce5acb97489d65b14ecc7a,64cf4be5b58f98f2866956a2,,,,,,,decisionTrl,resources/DY.BMP,resources/DB.BMP,WildCard_NonEx,-0.251099523,-0.037962977,1,0,0,1.3306,optionLeft,45,8390,4,22,0,22,0,1,,,,,,,,,,,,,,,,,,,,,,,,,,,,,,,,,,,,,,,
,,,,,,,,2023-08-06_08h38.21.576,HF_wild_card,2022.2.4,Win32,20.0968669,5ca3805f5c01df0013af4fe1,64ce5acb97489d65b14ecc7a,64cf4be5b58f98f2866956a2,,,,,,,decisionTrl,resources/DG.BMP,resources/DY.BMP,WildCard_NonEx,0.134085655,0.004629612,1,0,0,1.464,optionRight,55,8445,4,23,0,23,0,1,,,,,,,,,,,,,,,,,,,,,,,,,,,,,,,,,,,,,,,
,,,,,,,,2023-08-06_08h38.21.576,HF_wild_card,2022.2.4,Win32,20.0968669,5ca3805f5c01df0013af4fe1,64ce5acb97489d65b14ecc7a,64cf4be5b58f98f2866956a2,,,,,,,ctch,resources/DBN.BMP,resources/DG.BMP,Door3,-0.151099459,-0.045370356,1,0,0,1.697,optionLeft,70,8515,4,24,0,24,0,1,,,,,,,,,,,,,,,,,,,,,,,,,,,,,,,,,,,,,,,
,,,,,,,,2023-08-06_08h38.21.576,HF_wild_card,2022.2.4,Win32,20.0968669,5ca3805f5c01df0013af4fe1,64ce5acb97489d65b14ecc7a,64cf4be5b58f98f2866956a2,,,,,,,decisionTrl,resources/DR.BMP,resources/DBN.BMP,Door4,-0.251099523,-0.058333333,1,0,0,2.1308,optionLeft,60,8575,4,25,0,25,0,1,,,,,,,,,,,,,,,,,,,,,,,,,,,,,,,,,,,,,,,
,,,,,,,,2023-08-06_08h38.21.576,HF_wild_card,2022.2.4,Win32,20.0968669,5ca3805f5c01df0013af4fe1,64ce5acb97489d65b14ecc7a,64cf4be5b58f98f2866956a2,,,,,,,decisionTrl,resources/DBN.BMP,resources/DY.BMP,Door3,-0.2390625,-0.052777799,1,0,0,1.6638,optionLeft,70,8645,4,26,0,26,0,1,,,,,,,,,,,,,,,,,,,,,,,,,,,,,,,,,,,,,,,
,,,,,,,,2023-08-06_08h38.21.576,HF_wild_card,2022.2.4,Win32,20.0968669,5ca3805f5c01df0013af4fe1,64ce5acb97489d65b14ecc7a,64cf4be5b58f98f2866956a2,,,,,,,ctch,resources/DR.BMP,resources/DB.BMP,Door4,-0.412210655,-0.168518511,1,0,0,0.8978,optionLeft,80,8725,4,27,0,27,0,1,,,,,,,,,,,,,,,,,,,,,,,,,,,,,,,,,,,,,,,
,,,,,,,,2023-08-06_08h38.21.576,HF_wild_card,2022.2.4,Win32,20.0968669,5ca3805f5c01df0013af4fe1,64ce5acb97489d65b14ecc7a,64cf4be5b58f98f2866956a2,,,,,,,sngl,resources/DY.BMP,resources/Empty.png,WildCard_NonEx,-0.109432793,-0.012037055,1,0,0,0.8479,optionLeft,55,8780,4,28,0,28,0,1,,,,,,,,,,,,,,,,,,,,,,,,,,,,,,,,,,,,,,,
,,,,,,,,2023-08-06_08h38.21.576,HF_wild_card,2022.2.4,Win32,20.0968669,5ca3805f5c01df0013af4fe1,64ce5acb97489d65b14ecc7a,64cf4be5b58f98f2866956a2,,,,,,,sngl,resources/Empty.png,resources/DBN.BMP,Door3,0.169270833,-0.027777767,1,0,0,0.7475,optionRight,70,8850,4,29,0,29,0,1,,,,,,,,,,,,,,,,,,,,,,,,,,,,,,,,,,,,,,,
,,,,,,,,2023-08-06_08h38.21.576,HF_wild_card,2022.2.4,Win32,20.0968669,5ca3805f5c01df0013af4fe1,64ce5acb97489d65b14ecc7a,64cf4be5b58f98f2866956a2,,,,,,,decisionTrl,resources/DB.BMP,resources/DG.BMP,Door1,-0.153877258,-0.052777799,1,0,0,1.7964,optionLeft,30,8880,4,30,0,30,0,1,,,,,,,,,,,,,,,,,,,,,,,,,,,,,,,,,,,,,,,
,,,,,,,,2023-08-06_08h38.21.576,HF_wild_card,2022.2.4,Win32,20.0968669,5ca3805f5c01df0013af4fe1,64ce5acb97489d65b14ecc7a,64cf4be5b58f98f2866956a2,,,,,,,sngl,resources/Empty.png,resources/DG.BMP,Door2,0.221122742,-0.029629644,1,0,0,0.698,optionRight,40,8920,4,31,0,31,0,1,,,,,,,,,,,,,,,,,,,,,,,,,,,,,,,,,,,,,,,
,,,,,,,,2023-08-06_08h38.21.576,HF_wild_card,2022.2.4,Win32,20.0968669,5ca3805f5c01df0013af4fe1,64ce5acb97489d65b14ecc7a,64cf4be5b58f98f2866956a2,,,,,,,decisionTrl,resources/DBN.BMP,resources/DR.BMP,Door4,0.270196788,-0.016666667,1,0,0,4.2949,optionRight,60,8980,4,32,0,32,0,1,,,,,,,,,,,,,,,,,,,,,,,,,,,,,,,,,,,,,,,
,,,,,,,,2023-08-06_08h38.21.576,HF_wild_card,2022.2.4,Win32,20.0968669,5ca3805f5c01df0013af4fe1,64ce5acb97489d65b14ecc7a,64cf4be5b58f98f2866956a2,,,,,,,decisionTrl,resources/DB.BMP,resources/DG.BMP,Door2,0.347974523,-0.062962977,1,0,0,1.2976,optionRight,20,9000,4,33,0,33,0,1,,,,,,,,,,,,,,,,,,,,,,,,,,,,,,,,,,,,,,,
,,,,,,,,2023-08-06_08h38.21.576,HF_wild_card,2022.2.4,Win32,20.0968669,5ca3805f5c01df0013af4fe1,64ce5acb97489d65b14ecc7a,64cf4be5b58f98f2866956a2,,,,,,,decisionTrl,resources/DB.BMP,resources/DG.BMP,Door1,-0.182581011,-0.081481489,1,0,0,1.0309,optionLeft,30,9030,4,34,0,34,0,1,,,,,,,,,,,,,,,,,,,,,,,,,,,,,,,,,,,,,,,
,,,,,,,,2023-08-06_08h38.21.576,HF_wild_card,2022.2.4,Win32,20.0968669,5ca3805f5c01df0013af4fe1,64ce5acb97489d65b14ecc7a,64cf4be5b58f98f2866956a2,,,,,,,ctch,resources/DBN.BMP,resources/DG.BMP,Door3,-0.309432856,-0.073148155,1,0,0,1.2977,optionLeft,70,9100,4,35,0,35,0,1,,,,,,,,,,,,,,,,,,,,,,,,,,,,,,,,,,,,,,,
,,,,,,,,2023-08-06_08h38.21.576,HF_wild_card,2022.2.4,Win32,20.0968669,5ca3805f5c01df0013af4fe1,64ce5acb97489d65b14ecc7a,64cf4be5b58f98f2866956a2,,,,,,,sngl,resources/DB.BMP,resources/Empty.png,Door1,-0.409432856,-0.097222201,1,0,0,0.7142,optionLeft,30,9130,4,36,0,36,0,1,,,,,,,,,,,,,,,,,,,,,,,,,,,,,,,,,,,,,,,
,,,,,,,,2023-08-06_08h38.21.576,HF_wild_card,2022.2.4,Win32,20.0968669,5ca3805f5c01df0013af4fe1,64ce5acb97489d65b14ecc7a,64cf4be5b58f98f2866956a2,,,,,,,decisionTrl,resources/DR.BMP,resources/DY.BMP,Door4,-0.298321724,-0.068518511,1,0,0,1.4805,optionLeft,60,9190,4,37,0,37,0,1,,,,,,,,,,,,,,,,,,,,,,,,,,,,,,,,,,,,,,,
,,,,,,,,2023-08-06_08h38.21.576,HF_wild_card,2022.2.4,Win32,20.0968669,5ca3805f5c01df0013af4fe1,64ce5acb97489d65b14ecc7a,64cf4be5b58f98f2866956a2,,,,,,,sngl,resources/DG.BMP,resources/Empty.png,Door2,-0.291840299,-0.059259288,1,0,0,0.7644,optionLeft,20,9210,4,38,0,38,0,1,,,,,,,,,,,,,,,,,,,,,,,,,,,,,,,,,,,,,,,
,,,,,,,,2023-08-06_08h38.21.576,HF_wild_card,2022.2.4,Win32,20.0968669,5ca3805f5c01df0013af4fe1,64ce5acb97489d65b14ecc7a,64cf4be5b58f98f2866956a2,,,,,,,decisionTrl,resources/DR.BMP,resources/DBN.BMP,Door3,0.222974523,-0.083333333,1,0,0,3.3819,optionRight,70,9280,4,39,0,39,0,1,,,,,,,,,,,,,,,,,,,,,,,,,,,,,,,,,,,,,,,
,,,,,,,,2023-08-06_08h38.21.576,HF_wild_card,2022.2.4,Win32,20.0968669,5ca3805f5c01df0013af4fe1,64ce5acb97489d65b14ecc7a,64cf4be5b58f98f2866956a2,,,,,,,sngl,resources/DR.BMP,resources/Empty.png,Door4,-0.114988391,-0.016666667,1,0,0,0.7288,optionLeft,60,9340,4,40,0,40,0,1,,,,,,,,,,,,,,,,,,,,,,,,,,,,,,,,,,,,,,,
,,,,,,,,2023-08-06_08h38.21.576,HF_wild_card,2022.2.4,Win32,20.0968669,5ca3805f5c01df0013af4fe1,64ce5acb97489d65b14ecc7a,64cf4be5b58f98f2866956a2,,,,,,,sngl,resources/Empty.png,resources/DY.BMP,WildCard_NonEx,0.128530121,-0.024074078,1,0,0,0.8312,optionRight,45,9385,4,41,0,41,0,1,,,,,,,,,,,,,,,,,,,,,,,,,,,,,,,,,,,,,,,
,,,,,,,,2023-08-06_08h38.21.576,HF_wild_card,2022.2.4,Win32,20.0968669,5ca3805f5c01df0013af4fe1,64ce5acb97489d65b14ecc7a,64cf4be5b58f98f2866956a2,,,,,,,decisionTrl,resources/DBN.BMP,resources/DR.BMP,Door3,-0.122395833,-0.027777767,1,0,0,1.178,optionLeft,70,9455,4,42,0,42,0,1,,,,,,,,,,,,,,,,,,,,,,,,,,,,,,,,,,,,,,,
,,,,,,,,2023-08-06_08h38.21.576,HF_wild_card,2022.2.4,Win32,20.0968669,5ca3805f5c01df0013af4fe1,64ce5acb97489d65b14ecc7a,64cf4be5b58f98f2866956a2,,,,,,,decisionTrl,resources/DG.BMP,resources/DB.BMP,Door2,-0.138136546,-0.005555566,1,0,0,1.6477,optionLeft,20,9475,4,43,0,43,0,1,,,,,,,,,,,,,,,,,,,,,,,,,,,,,,,,,,,,,,,
,,,,,,,,2023-08-06_08h38.21.576,HF_wild_card,2022.2.4,Win32,20.0968669,5ca3805f5c01df0013af4fe1,64ce5acb97489d65b14ecc7a,64cf4be5b58f98f2866956a2,,,,,,,,,,,,,,,,,,,,,,,,,,3,0,3,0,1,,,,,,,,,,,,,,,,,,,,,,,,,,,,,,,,,,
,,,,,,,,2023-08-06_08h38.21.576,HF_wild_card,2022.2.4,Win32,20.0968669,5ca3805f5c01df0013af4fe1,64ce5acb97489d65b14ecc7a,64cf4be5b58f98f2866956a2,,,,,,,decisionTrl,resources/DG.BMP,resources/DB.BMP,Door1,0.206307856,-0.199074109,1,0,0,3.5581,optionRight,30,9505,5,0,0,0,0,1,,,,,,,,,,,,,,,,,,,,,,,,,,,,,,,,,,,,,,,
,,,,,,,,2023-08-06_08h38.21.576,HF_wild_card,2022.2.4,Win32,20.0968669,5ca3805f5c01df0013af4fe1,64ce5acb97489d65b14ecc7a,64cf4be5b58f98f2866956a2,,,,,,,ctch,resources/DR.BMP,resources/DB.BMP,Door4,-0.138136546,-0.123148155,1,0,0,2.0238,optionLeft,60,9565,5,1,0,1,0,1,,,,,,,,,,,,,,,,,,,,,,,,,,,,,,,,,,,,,,,
,,,,,,,,2023-08-06_08h38.21.576,HF_wild_card,2022.2.4,Win32,20.0968669,5ca3805f5c01df0013af4fe1,64ce5acb97489d65b14ecc7a,64cf4be5b58f98f2866956a2,,,,,,,ctch,resources/DBN.BMP,resources/DG.BMP,Door3,-0.145543925,-0.050925954,1,0,0,1.197,optionLeft,70,9635,5,2,0,2,0,1,,,,,,,,,,,,,,,,,,,,,,,,,,,,,,,,,,,,,,,
,,,,,,,,2023-08-06_08h38.21.576,HF_wild_card,2022.2.4,Win32,20.0968669,5ca3805f5c01df0013af4fe1,64ce5acb97489d65b14ecc7a,64cf4be5b58f98f2866956a2,,,,,,,decisionTrl,resources/DBN.BMP,resources/DR.BMP,Door3,-0.152025477,-0.056481489,1,0,0,1.4304,optionLeft,70,9705,5,3,0,3,0,1,,,,,,,,,,,,,,,,,,,,,,,,,,,,,,,,,,,,,,,
,,,,,,,,2023-08-06_08h38.21.576,HF_wild_card,2022.2.4,Win32,20.0968669,5ca3805f5c01df0013af4fe1,64ce5acb97489d65b14ecc7a,64cf4be5b58f98f2866956a2,,,,,,,decisionTrl,resources/DG.BMP,resources/DB.BMP,Door1,0.230381902,-0.05,1,0,0,2.3994,optionRight,30,9735,5,4,0,4,0,1,,,,,,,,,,,,,,,,,,,,,,,,,,,,,,,,,,,,,,,
,,,,,,,,2023-08-06_08h38.21.576,HF_wild_card,2022.2.4,Win32,20.0968669,5ca3805f5c01df0013af4fe1,64ce5acb97489d65b14ecc7a,64cf4be5b58f98f2866956a2,,,,,,,sngl,resources/DY.BMP,resources/Empty.png,WildCard_NonEx,-0.198321724,0.006481489,1,0,0,0.9455,optionLeft,55,9790,5,5,0,5,0,1,,,,,,,,,,,,,,,,,,,,,,,,,,,,,,,,,,,,,,,
,,,,,,,,2023-08-06_08h38.21.576,HF_wild_card,2022.2.4,Win32,20.0968669,5ca3805f5c01df0013af4fe1,64ce5acb97489d65b14ecc7a,64cf4be5b58f98f2866956a2,,,,,,,sngl,resources/DBN.BMP,resources/Empty.png,Door3,-0.141840299,-0.008333333,1,0,0,0.8008,optionLeft,70,9860,5,6,0,6,0,1,,,,,,,,,,,,,,,,,,,,,,,,,,,,,,,,,,,,,,,
,,,,,,,,2023-08-06_08h38.21.576,HF_wild_card,2022.2.4,Win32,20.0968669,5ca3805f5c01df0013af4fe1,64ce5acb97489d65b14ecc7a,64cf4be5b58f98f2866956a2,,,,,,,decisionTrl,resources/DBN.BMP,resources/DR.BMP,Door3,-0.206655057,-0.042592621,1,0,0,1.0172,optionLeft,70,9930,5,7,0,7,0,1,,,,,,,,,,,,,,,,,,,,,,,,,,,,,,,,,,,,,,,
,,,,,,,,2023-08-06_08h38.21.576,HF_wild_card,2022.2.4,Win32,20.0968669,5ca3805f5c01df0013af4fe1,64ce5acb97489d65b14ecc7a,64cf4be5b58f98f2866956a2,,,,,,,sngl,resources/DB.BMP,resources/Empty.png,Door1,-0.16035881,-0.023148155,1,0,0,0.8144,optionLeft,30,9960,5,8,0,8,0,1,,,,,,,,,,,,,,,,,,,,,,,,,,,,,,,,,,,,,,,
,,,,,,,,2023-08-06_08h38.21.576,HF_wild_card,2022.2.4,Win32,20.0968669,5ca3805f5c01df0013af4fe1,64ce5acb97489d65b14ecc7a,64cf4be5b58f98f2866956a2,,,,,,,decisionTrl,resources/DBN.BMP,resources/DR.BMP,Door3,-0.2140625,-0.050925954,1,0,0,1.3302,optionLeft,70,10030,5,9,0,9,0,1,,,,,,,,,,,,,,,,,,,,,,,,,,,,,,,,,,,,,,,
,,,,,,,,2023-08-06_08h38.21.576,HF_wild_card,2022.2.4,Win32,20.0968669,5ca3805f5c01df0013af4fe1,64ce5acb97489d65b14ecc7a,64cf4be5b58f98f2866956a2,,,,,,,decisionTrl,resources/DBN.BMP,resources/DR.BMP,Door3,-0.2140625,-0.059259288,1,0,0,0.9318,optionLeft,70,10100,5,10,0,10,0,1,,,,,,,,,,,,,,,,,,,,,,,,,,,,,,,,,,,,,,,
,,,,,,,,2023-08-06_08h38.21.576,HF_wild_card,2022.2.4,Win32,20.0968669,5ca3805f5c01df0013af4fe1,64ce5acb97489d65b14ecc7a,64cf4be5b58f98f2866956a2,,,,,,,sngl,resources/Empty.png,resources/DBN.BMP,Door3,0.196122742,-0.012962977,1,0,0,0.9315,optionRight,70,10170,5,11,0,11,0,1,,,,,,,,,,,,,,,,,,,,,,,,,,,,,,,,,,,,,,,
,,,,,,,,2023-08-06_08h38.21.576,HF_wild_card,2022.2.4,Win32,20.0968669,5ca3805f5c01df0013af4fe1,64ce5acb97489d65b14ecc7a,64cf4be5b58f98f2866956a2,,,,,,,ctch,resources/DR.BMP,resources/DB.BMP,Door4,-0.265914345,-0.102777799,1,0,0,1.5965,optionLeft,80,10250,5,12,0,12,0,1,,,,,,,,,,,,,,,,,,,,,,,,,,,,,,,,,,,,,,,
,,,,,,,,2023-08-06_08h38.21.576,HF_wild_card,2022.2.4,Win32,20.0968669,5ca3805f5c01df0013af4fe1,64ce5acb97489d65b14ecc7a,64cf4be5b58f98f2866956a2,,,,,,,decisionTrl,resources/DB.BMP,resources/DG.BMP,Door1,-0.188136546,-0.055555534,1,0,0,1.7469,optionLeft,30,10280,5,13,0,13,0,1,,,,,,,,,,,,,,,,,,,,,,,,,,,,,,,,,,,,,,,
,,,,,,,,2023-08-06_08h38.21.576,HF_wild_card,2022.2.4,Win32,20.0968669,5ca3805f5c01df0013af4fe1,64ce5acb97489d65b14ecc7a,64cf4be5b58f98f2866956a2,,,,,,,decisionTrl,resources/DR.BMP,resources/DY.BMP,Door4,-0.268692144,-0.068518511,1,0,0,1.1284,optionLeft,60,10340,5,14,0,14,0,1,,,,,,,,,,,,,,,,,,,,,,,,,,,,,,,,,,,,,,,
,,,,,,,,2023-08-06_08h38.21.576,HF_wild_card,2022.2.4,Win32,20.0968669,5ca3805f5c01df0013af4fe1,64ce5acb97489d65b14ecc7a,64cf4be5b58f98f2866956a2,,,,,,,decisionTrl,resources/DB.BMP,resources/DG.BMP,Door1,-0.305729167,-0.09629631,1,0,0,1.4835,optionLeft,30,10370,5,15,0,15,0,1,,,,,,,,,,,,,,,,,,,,,,,,,,,,,,,,,,,,,,,
,,,,,,,,2023-08-06_08h38.21.576,HF_wild_card,2022.2.4,Win32,20.0968669,5ca3805f5c01df0013af4fe1,64ce5acb97489d65b14ecc7a,64cf4be5b58f98f2866956a2,,,,,,,ctch,resources/DB.BMP,resources/DR.BMP,Door4,0.223900477,-0.057407443,1,0,0,1.1998,optionRight,80,10450,5,16,0,16,0,1,,,,,,,,,,,,,,,,,,,,,,,,,,,,,,,,,,,,,,,
,,,,,,,,2023-08-06_08h38.21.576,HF_wild_card,2022.2.4,Win32,20.0968669,5ca3805f5c01df0013af4fe1,64ce5acb97489d65b14ecc7a,64cf4be5b58f98f2866956a2,,,,,,,decisionTrl,resources/DB.BMP,resources/DY.BMP,WildCard_NonEx,0.243344879,-0.022222233,1,0,0,1.3136,optionRight,55,10505,5,17,0,17,0,1,,,,,,,,,,,,,,,,,,,,,,,,,,,,,,,,,,,,,,,
,,,,,,,,2023-08-06_08h38.21.576,HF_wild_card,2022.2.4,Win32,20.0968669,5ca3805f5c01df0013af4fe1,64ce5acb97489d65b14ecc7a,64cf4be5b58f98f2866956a2,,,,,,,ctch,resources/DBN.BMP,resources/DG.BMP,Door3,-0.149247678,-0.009259256,1,0,0,1.2643,optionLeft,70,10575,5,18,0,18,0,1,,,,,,,,,,,,,,,,,,,,,,,,,,,,,,,,,,,,,,,
,,,,,,,,2023-08-06_08h38.21.576,HF_wild_card,2022.2.4,Win32,20.0968669,5ca3805f5c01df0013af4fe1,64ce5acb97489d65b14ecc7a,64cf4be5b58f98f2866956a2,,,,,,,sngl,resources/Empty.png,resources/DY.BMP,WildCard_NonEx,0.258159765,-0.039814822,1,0,0,0.7619,optionRight,45,10620,5,19,0,19,0,1,,,,,,,,,,,,,,,,,,,,,,,,,,,,,,,,,,,,,,,
,,,,,,,,2023-08-06_08h38.21.576,HF_wild_card,2022.2.4,Win32,20.0968669,5ca3805f5c01df0013af4fe1,64ce5acb97489d65b14ecc7a,64cf4be5b58f98f2866956a2,,,,,,,sngl,resources/Empty.png,resources/DG.BMP,Door2,0.31464119,-0.069444466,1,0,0,0.7173,optionRight,20,10640,5,20,0,20,0,1,,,,,,,,,,,,,,,,,,,,,,,,,,,,,,,,,,,,,,,
,,,,,,,,2023-08-06_08h38.21.576,HF_wild_card,2022.2.4,Win32,20.0968669,5ca3805f5c01df0013af4fe1,64ce5acb97489d65b14ecc7a,64cf4be5b58f98f2866956a2,,,,,,,decisionTrl,resources/DY.BMP,resources/DBN.BMP,Door3,0.233159765,-0.09629631,1,0,0,1.0993,optionRight,70,10710,5,21,0,21,0,1,,,,,,,,,,,,,,,,,,,,,,,,,,,,,,,,,,,,,,,
,,,,,,,,2023-08-06_08h38.21.576,HF_wild_card,2022.2.4,Win32,20.0968669,5ca3805f5c01df0013af4fe1,64ce5acb97489d65b14ecc7a,64cf4be5b58f98f2866956a2,,,,,,,ctch,resources/DG.BMP,resources/DBN.BMP,Door3,0.252604167,-0.077777799,1,0,0,1.0506,optionRight,70,10780,5,22,0,22,0,1,,,,,,,,,,,,,,,,,,,,,,,,,,,,,,,,,,,,,,,
,,,,,,,,2023-08-06_08h38.21.576,HF_wild_card,2022.2.4,Win32,20.0968669,5ca3805f5c01df0013af4fe1,64ce5acb97489d65b14ecc7a,64cf4be5b58f98f2866956a2,,,,,,,decisionTrl,resources/DG.BMP,resources/DB.BMP,Door1,0.218344879,-0.070370356,1,0,0,1.5837,optionRight,30,10810,5,23,0,23,0,1,,,,,,,,,,,,,,,,,,,,,,,,,,,,,,,,,,,,,,,
,,,,,,,,2023-08-06_08h38.21.576,HF_wild_card,2022.2.4,Win32,20.0968669,5ca3805f5c01df0013af4fe1,64ce5acb97489d65b14ecc7a,64cf4be5b58f98f2866956a2,,,,,,,decisionTrl,resources/DR.BMP,resources/DBN.BMP,Door3,0.199826431,-0.059259288,1,0,0,1.247,optionRight,70,10880,5,24,0,24,0,1,,,,,,,,,,,,,,,,,,,,,,,,,,,,,,,,,,,,,,,
,,,,,,,,2023-08-06_08h38.21.576,HF_wild_card,2022.2.4,Win32,20.0968669,5ca3805f5c01df0013af4fe1,64ce5acb97489d65b14ecc7a,64cf4be5b58f98f2866956a2,,,,,,,decisionTrl,resources/DY.BMP,resources/DR.BMP,Door4,0.233159765,-0.066666667,1,0,0,1.1157,optionRight,60,10940,5,25,0,25,0,1,,,,,,,,,,,,,,,,,,,,,,,,,,,,,,,,,,,,,,,
,,,,,,,,2023-08-06_08h38.21.576,HF_wild_card,2022.2.4,Win32,20.0968669,5ca3805f5c01df0013af4fe1,64ce5acb97489d65b14ecc7a,64cf4be5b58f98f2866956a2,,,,,,,decisionTrl,resources/DB.BMP,resources/DG.BMP,Door1,-0.368692112,-0.151851845,1,0,0,1.6664,optionLeft,30,10970,5,26,0,26,0,1,,,,,,,,,,,,,,,,,,,,,,,,,,,,,,,,,,,,,,,
,,,,,,,,2023-08-06_08h38.21.576,HF_wild_card,2022.2.4,Win32,20.0968669,5ca3805f5c01df0013af4fe1,64ce5acb97489d65b14ecc7a,64cf4be5b58f98f2866956a2,,,,,,,sngl,resources/DY.BMP,resources/Empty.png,WildCard_NonEx,-0.177025477,-0.015740744,1,0,0,0.8312,optionLeft,45,11015,5,27,0,27,0,1,,,,,,,,,,,,,,,,,,,,,,,,,,,,,,,,,,,,,,,
,,,,,,,,2023-08-06_08h38.21.576,HF_wild_card,2022.2.4,Win32,20.0968669,5ca3805f5c01df0013af4fe1,64ce5acb97489d65b14ecc7a,64cf4be5b58f98f2866956a2,,,,,,,decisionTrl,resources/DR.BMP,resources/DBN.BMP,Door3,0.175752322,-0.037962977,1,0,0,1.2468,optionRight,70,11085,5,28,0,28,0,1,,,,,,,,,,,,,,,,,,,,,,,,,,,,,,,,,,,,,,,
,,,,,,,,2023-08-06_08h38.21.576,HF_wild_card,2022.2.4,Win32,20.0968669,5ca3805f5c01df0013af4fe1,64ce5acb97489d65b14ecc7a,64cf4be5b58f98f2866956a2,,,,,,,ctch,resources/DG.BMP,resources/DBN.BMP,Door3,0.240567144,-0.039814822,1,0,0,1.0938,optionRight,70,11155,5,29,0,29,0,1,,,,,,,,,,,,,,,,,,,,,,,,,,,,,,,,,,,,,,,
,,,,,,,,2023-08-06_08h38.21.576,HF_wild_card,2022.2.4,Win32,20.0968669,5ca3805f5c01df0013af4fe1,64ce5acb97489d65b14ecc7a,64cf4be5b58f98f2866956a2,,,,,,,decisionTrl,resources/DY.BMP,resources/DB.BMP,WildCard_NonEx,-0.237210655,-0.061111132,1,0,0,2.146,optionLeft,45,11200,5,30,0,30,0,1,,,,,,,,,,,,,,,,,,,,,,,,,,,,,,,,,,,,,,,
,,,,,,,,2023-08-06_08h38.21.576,HF_wild_card,2022.2.4,Win32,20.0968669,5ca3805f5c01df0013af4fe1,64ce5acb97489d65b14ecc7a,64cf4be5b58f98f2866956a2,,,,,,,decisionTrl,resources/DBN.BMP,resources/DY.BMP,Door3,-0.274247678,-0.10370369,1,0,0,1.1177,optionLeft,70,11270,5,31,0,31,0,1,,,,,,,,,,,,,,,,,,,,,,,,,,,,,,,,,,,,,,,
,,,,,,,,2023-08-06_08h38.21.576,HF_wild_card,2022.2.4,Win32,20.0968669,5ca3805f5c01df0013af4fe1,64ce5acb97489d65b14ecc7a,64cf4be5b58f98f2866956a2,,,,,,,decisionTrl,resources/DR.BMP,resources/DBN.BMP,Door3,0.260011546,-0.038888868,1,0,0,1.2502,optionRight,70,11340,5,32,0,32,0,1,,,,,,,,,,,,,,,,,,,,,,,,,,,,,,,,,,,,,,,
,,,,,,,,2023-08-06_08h38.21.576,HF_wild_card,2022.2.4,Win32,20.0968669,5ca3805f5c01df0013af4fe1,64ce5acb97489d65b14ecc7a,64cf4be5b58f98f2866956a2,,,,,,,sngl,resources/Empty.png,resources/DY.BMP,WildCard_NonEx,0.3109375,-0.100925954,1,0,0,0.7146,optionRight,55,11395,5,33,0,33,0,1,,,,,,,,,,,,,,,,,,,,,,,,,,,,,,,,,,,,,,,
,,,,,,,,2023-08-06_08h38.21.576,HF_wild_card,2022.2.4,Win32,20.0968669,5ca3805f5c01df0013af4fe1,64ce5acb97489d65b14ecc7a,64cf4be5b58f98f2866956a2,,,,,,,decisionTrl,resources/DG.BMP,resources/DB.BMP,Door1,0.21464119,-0.148148155,1,0,0,1.6942,optionRight,30,11425,5,34,0,34,0,1,,,,,,,,,,,,,,,,,,,,,,,,,,,,,,,,,,,,,,,
,,,,,,,,2023-08-06_08h38.21.576,HF_wild_card,2022.2.4,Win32,20.0968669,5ca3805f5c01df0013af4fe1,64ce5acb97489d65b14ecc7a,64cf4be5b58f98f2866956a2,,,,,,,decisionTrl,resources/DY.BMP,resources/DG.BMP,WildCard_NonEx,-0.248321724,-0.14629631,1,0,0,1.3143,optionLeft,55,11480,5,35,0,35,0,1,,,,,,,,,,,,,,,,,,,,,,,,,,,,,,,,,,,,,,,
,,,,,,,,2023-08-06_08h38.21.576,HF_wild_card,2022.2.4,Win32,20.0968669,5ca3805f5c01df0013af4fe1,64ce5acb97489d65b14ecc7a,64cf4be5b58f98f2866956a2,,,,,,,sngl,resources/Empty.png,resources/DB.BMP,Door1,0.244270833,-0.070370356,1,0,0,0.7484,optionRight,30,11510,5,36,0,36,0,1,,,,,,,,,,,,,,,,,,,,,,,,,,,,,,,,,,,,,,,
,,,,,,,,2023-08-06_08h38.21.576,HF_wild_card,2022.2.4,Win32,20.0968669,5ca3805f5c01df0013af4fe1,64ce5acb97489d65b14ecc7a,64cf4be5b58f98f2866956a2,,,,,,,sngl,resources/DR.BMP,resources/Empty.png,Door4,-0.183506966,0.012962945,1,0,0,0.8974,optionLeft,80,11590,5,37,0,37,0,1,,,,,,,,,,,,,,,,,,,,,,,,,,,,,,,,,,,,,,,
,,,,,,,,2023-08-06_08h38.21.576,HF_wild_card,2022.2.4,Win32,20.0968669,5ca3805f5c01df0013af4fe1,64ce5acb97489d65b14ecc7a,64cf4be5b58f98f2866956a2,,,,,,,sngl,resources/Empty.png,resources/DR.BMP,Door4,0.196122742,-0.029629644,1,0,0,0.7286,optionRight,60,11650,5,38,0,38,0,1,,,,,,,,,,,,,,,,,,,,,,,,,,,,,,,,,,,,,,,
,,,,,,,,2023-08-06_08h38.21.576,HF_wild_card,2022.2.4,Win32,20.0968669,5ca3805f5c01df0013af4fe1,64ce5acb97489d65b14ecc7a,64cf4be5b58f98f2866956a2,,,,,,,sngl,resources/DG.BMP,resources/Empty.png,Door2,-0.127951368,-0.007407411,1,0,0,0.7673,optionLeft,40,11690,5,39,0,39,0,1,,,,,,,,,,,,,,,,,,,,,,,,,,,,,,,,,,,,,,,
,,,,,,,,2023-08-06_08h38.21.576,HF_wild_card,2022.2.4,Win32,20.0968669,5ca3805f5c01df0013af4fe1,64ce5acb97489d65b14ecc7a,64cf4be5b58f98f2866956a2,,,,,,,ctch,resources/DB.BMP,resources/DR.BMP,Door4,0.197974523,-0.047222201,1,0,0,2.364,optionRight,80,11770,5,40,0,40,0,1,,,,,,,,,,,,,,,,,,,,,,,,,,,,,,,,,,,,,,,
,,,,,,,,2023-08-06_08h38.21.576,HF_wild_card,2022.2.4,Win32,20.0968669,5ca3805f5c01df0013af4fe1,64ce5acb97489d65b14ecc7a,64cf4be5b58f98f2866956a2,,,,,,,decisionTrl,resources/DB.BMP,resources/DG.BMP,Door2,0.227604167,-0.008333333,1,0,0,2.4466,optionRight,40,11810,5,41,0,41,0,1,,,,,,,,,,,,,,,,,,,,,,,,,,,,,,,,,,,,,,,
,,,,,,,,2023-08-06_08h38.21.576,HF_wild_card,2022.2.4,Win32,20.0968669,5ca3805f5c01df0013af4fe1,64ce5acb97489d65b14ecc7a,64cf4be5b58f98f2866956a2,,,,,,,decisionTrl,resources/DG.BMP,resources/DY.BMP,WildCard_NonEx,0.195196788,-0.030555566,1,0,0,1.7472,optionRight,45,11855,5,42,0,42,0,1,,,,,,,,,,,,,,,,,,,,,,,,,,,,,,,,,,,,,,,
,,,,,,,,2023-08-06_08h38.21.576,HF_wild_card,2022.2.4,Win32,20.0968669,5ca3805f5c01df0013af4fe1,64ce5acb97489d65b14ecc7a,64cf4be5b58f98f2866956a2,,,,,,,decisionTrl,resources/DR.BMP,resources/DBN.BMP,Door3,0.271122742,-0.040740776,1,0,0,1.9639,optionRight,70,11925,5,43,0,43,0,1,,,,,,,,,,,,,,,,,,,,,,,,,,,,,,,,,,,,,,,
,,,,,,,,2023-08-06_08h38.21.576,HF_wild_card,2022.2.4,Win32,20.0968669,5ca3805f5c01df0013af4fe1,64ce5acb97489d65b14ecc7a,64cf4be5b58f98f2866956a2,,,,,,,,,,,,,,,,,,,,,,,,,,4,0,4,0,1,,,,,,,,,,,,,,,,,,,,,,,,,,,,,,,,,,
,,,,,,,,2023-08-06_08h38.21.576,HF_wild_card,2022.2.4,Win32,20.0968669,5ca3805f5c01df0013af4fe1,64ce5acb97489d65b14ecc7a,64cf4be5b58f98f2866956a2,,,,,,,sngl,resources/Empty.png,resources/DB.BMP,Door1,0.306307856,-0.175925954,1,0,0,0.8402,optionRight,30,11955,6,0,0,0,0,1,,,,,,,,,,,,,,,,,,,,,,,,,,,,,,,,,,,,,,,
,,,,,,,,2023-08-06_08h38.21.576,HF_wild_card,2022.2.4,Win32,20.0968669,5ca3805f5c01df0013af4fe1,64ce5acb97489d65b14ecc7a,64cf4be5b58f98f2866956a2,,,,,,,sngl,resources/DY.BMP,resources/Empty.png,WildCard_NonEx,-0.156655057,-0.041666667,1,0,0,0.7919,optionLeft,45,12000,6,1,0,1,0,1,,,,,,,,,,,,,,,,,,,,,,,,,,,,,,,,,,,,,,,
,,,,,,,,2023-08-06_08h38.21.576,HF_wild_card,2022.2.4,Win32,20.0968669,5ca3805f5c01df0013af4fe1,64ce5acb97489d65b14ecc7a,64cf4be5b58f98f2866956a2,,,,,,,decisionTrl,resources/DB.BMP,resources/DG.BMP,Door2,0.195196788,-0.040740776,1,0,0,1.6999,optionRight,40,12040,6,2,0,2,0,1,,,,,,,,,,,,,,,,,,,,,,,,,,,,,,,,,,,,,,,
,,,,,,,,2023-08-06_08h38.21.576,HF_wild_card,2022.2.4,Win32,20.0968669,5ca3805f5c01df0013af4fe1,64ce5acb97489d65b14ecc7a,64cf4be5b58f98f2866956a2,,,,,,,decisionTrl,resources/DY.BMP,resources/DR.BMP,Door4,0.290567144,-0.137962977,1,0,0,1.3829,optionRight,80,12120,6,3,0,3,0,1,,,,,,,,,,,,,,,,,,,,,,,,,,,,,,,,,,,,,,,
,,,,,,,,2023-08-06_08h38.21.576,HF_wild_card,2022.2.4,Win32,20.0968669,5ca3805f5c01df0013af4fe1,64ce5acb97489d65b14ecc7a,64cf4be5b58f98f2866956a2,,,,,,,sngl,resources/DG.BMP,resources/Empty.png,Door2,-0.113136546,0.012037023,1,0,0,0.9284,optionLeft,20,12140,6,4,0,4,0,1,,,,,,,,,,,,,,,,,,,,,,,,,,,,,,,,,,,,,,,
,,,,,,,,2023-08-06_08h38.21.576,HF_wild_card,2022.2.4,Win32,20.0968669,5ca3805f5c01df0013af4fe1,64ce5acb97489d65b14ecc7a,64cf4be5b58f98f2866956a2,,,,,,,ctch,resources/DR.BMP,resources/DB.BMP,Door4,-0.202025477,-0.031481489,1,0,0,1.6973,optionLeft,80,12220,6,5,0,5,0,1,,,,,,,,,,,,,,,,,,,,,,,,,,,,,,,,,,,,,,,
,,,,,,,,2023-08-06_08h38.21.576,HF_wild_card,2022.2.4,Win32,20.0968669,5ca3805f5c01df0013af4fe1,64ce5acb97489d65b14ecc7a,64cf4be5b58f98f2866956a2,,,,,,,decisionTrl,resources/DY.BMP,resources/DG.BMP,WildCard_NonEx,-0.174247678,-0.035185178,1,0,0,1.5334,optionLeft,55,12275,6,6,0,6,0,1,,,,,,,,,,,,,,,,,,,,,,,,,,,,,,,,,,,,,,,
,,,,,,,,2023-08-06_08h38.21.576,HF_wild_card,2022.2.4,Win32,20.0968669,5ca3805f5c01df0013af4fe1,64ce5acb97489d65b14ecc7a,64cf4be5b58f98f2866956a2,,,,,,,decisionTrl,resources/DBN.BMP,resources/DR.BMP,Door3,-0.232581011,-0.075925954,1,0,0,1.4138,optionLeft,70,12345,6,7,0,7,0,1,,,,,,,,,,,,,,,,,,,,,,,,,,,,,,,,,,,,,,,
,,,,,,,,2023-08-06_08h38.21.576,HF_wild_card,2022.2.4,Win32,20.0968669,5ca3805f5c01df0013af4fe1,64ce5acb97489d65b14ecc7a,64cf4be5b58f98f2866956a2,,,,,,,decisionTrl,resources/DY.BMP,resources/DBN.BMP,Door3,0.253530121,0.014814822,1,0,0,1.0812,optionRight,70,12415,6,8,0,8,0,1,,,,,,,,,,,,,,,,,,,,,,,,,,,,,,,,,,,,,,,
,,,,,,,,2023-08-06_08h38.21.576,HF_wild_card,2022.2.4,Win32,20.0968669,5ca3805f5c01df0013af4fe1,64ce5acb97489d65b14ecc7a,64cf4be5b58f98f2866956a2,,,,,,,decisionTrl,resources/DBN.BMP,resources/DY.BMP,Door3,-0.200173632,-0.041666667,1,0,0,1.3949,optionLeft,70,12485,6,9,0,9,0,1,,,,,,,,,,,,,,,,,,,,,,,,,,,,,,,,,,,,,,,
,,,,,,,,2023-08-06_08h38.21.576,HF_wild_card,2022.2.4,Win32,20.0968669,5ca3805f5c01df0013af4fe1,64ce5acb97489d65b14ecc7a,64cf4be5b58f98f2866956a2,,,,,,,decisionTrl,resources/DY.BMP,resources/DB.BMP,WildCard_NonEx,-0.261284701,-0.075925954,1,0,0,1.0284,optionLeft,45,12530,6,10,0,10,0,1,,,,,,,,,,,,,,,,,,,,,,,,,,,,,,,,,,,,,,,
,,,,,,,,2023-08-06_08h38.21.576,HF_wild_card,2022.2.4,Win32,20.0968669,5ca3805f5c01df0013af4fe1,64ce5acb97489d65b14ecc7a,64cf4be5b58f98f2866956a2,,,,,,,decisionTrl,resources/DBN.BMP,resources/DR.BMP,Door4,0.28223381,-0.059259288,1,0,0,1.6809,optionRight,80,12610,6,11,0,11,0,1,,,,,,,,,,,,,,,,,,,,,,,,,,,,,,,,,,,,,,,
,,,,,,,,2023-08-06_08h38.21.576,HF_wild_card,2022.2.4,Win32,20.0968669,5ca3805f5c01df0013af4fe1,64ce5acb97489d65b14ecc7a,64cf4be5b58f98f2866956a2,,,,,,,decisionTrl,resources/DG.BMP,resources/DB.BMP,Door2,-0.3640625,-0.105555534,1,0,0,1.9114,optionLeft,20,12630,6,12,0,12,0,1,,,,,,,,,,,,,,,,,,,,,,,,,,,,,,,,,,,,,,,
,,,,,,,,2023-08-06_08h38.21.576,HF_wild_card,2022.2.4,Win32,20.0968669,5ca3805f5c01df0013af4fe1,64ce5acb97489d65b14ecc7a,64cf4be5b58f98f2866956a2,,,,,,,decisionTrl,resources/DG.BMP,resources/DB.BMP,Door1,0.174826368,0.000925922,1,0,0,0.964,optionRight,30,12660,6,13,0,13,0,1,,,,,,,,,,,,,,,,,,,,,,,,,,,,,,,,,,,,,,,
,,,,,,,,2023-08-06_08h38.21.576,HF_wild_card,2022.2.4,Win32,20.0968669,5ca3805f5c01df0013af4fe1,64ce5acb97489d65b14ecc7a,64cf4be5b58f98f2866956a2,,,,,,,ctch,resources/DR.BMP,resources/DB.BMP,Door4,-0.143692144,-0.009259256,1,0,0,1.2667,optionLeft,60,12720,6,14,0,14,0,1,,,,,,,,,,,,,,,,,,,,,,,,,,,,,,,,,,,,,,,
,,,,,,,,2023-08-06_08h38.21.576,HF_wild_card,2022.2.4,Win32,20.0968669,5ca3805f5c01df0013af4fe1,64ce5acb97489d65b14ecc7a,64cf4be5b58f98f2866956a2,,,,,,,decisionTrl,resources/DR.BMP,resources/DBN.BMP,Door4,-0.158506966,-0.049074109,1,0,0,1.281,optionLeft,80,12800,6,15,0,15,0,1,,,,,,,,,,,,,,,,,,,,,,,,,,,,,,,,,,,,,,,
,,,,,,,,2023-08-06_08h38.21.576,HF_wild_card,2022.2.4,Win32,20.0968669,5ca3805f5c01df0013af4fe1,64ce5acb97489d65b14ecc7a,64cf4be5b58f98f2866956a2,,,,,,,decisionTrl,resources/DR.BMP,resources/DBN.BMP,Door4,-0.172395833,-0.035185178,1,0,0,1.4678,optionLeft,80,12880,6,16,0,16,0,1,,,,,,,,,,,,,,,,,,,,,,,,,,,,,,,,,,,,,,,
,,,,,,,,2023-08-06_08h38.21.576,HF_wild_card,2022.2.4,Win32,20.0968669,5ca3805f5c01df0013af4fe1,64ce5acb97489d65b14ecc7a,64cf4be5b58f98f2866956a2,,,,,,,decisionTrl,resources/DR.BMP,resources/DBN.BMP,Door4,-0.175173632,-0.058333333,1,0,0,1.0648,optionLeft,60,12940,6,17,0,17,0,1,,,,,,,,,,,,,,,,,,,,,,,,,,,,,,,,,,,,,,,
,,,,,,,,2023-08-06_08h38.21.576,HF_wild_card,2022.2.4,Win32,20.0968669,5ca3805f5c01df0013af4fe1,64ce5acb97489d65b14ecc7a,64cf4be5b58f98f2866956a2,,,,,,,decisionTrl,resources/DB.BMP,resources/DG.BMP,Door2,0.30723381,0.021296279,1,0,0,2.2274,optionRight,20,12960,6,18,0,18,0,1,,,,,,,,,,,,,,,,,,,,,,,,,,,,,,,,,,,,,,,
,,,,,,,,2023-08-06_08h38.21.576,HF_wild_card,2022.2.4,Win32,20.0968669,5ca3805f5c01df0013af4fe1,64ce5acb97489d65b14ecc7a,64cf4be5b58f98f2866956a2,,,,,,,ctch,resources/DG.BMP,resources/DBN.BMP,Door3,0.296122742,-0.007407411,1,0,0,1.1281,optionRight,70,13030,6,19,0,19,0,1,,,,,,,,,,,,,,,,,,,,,,,,,,,,,,,,,,,,,,,
,,,,,,,,2023-08-06_08h38.21.576,HF_wild_card,2022.2.4,Win32,20.0968669,5ca3805f5c01df0013af4fe1,64ce5acb97489d65b14ecc7a,64cf4be5b58f98f2866956a2,,,,,,,decisionTrl,resources/DB.BMP,resources/DG.BMP,Door1,-0.152025477,-0.058333333,1,0,0,1.2489,optionLeft,30,13060,6,20,0,20,0,1,,,,,,,,,,,,,,,,,,,,,,,,,,,,,,,,,,,,,,,
,,,,,,,,2023-08-06_08h38.21.576,HF_wild_card,2022.2.4,Win32,20.0968669,5ca3805f5c01df0013af4fe1,64ce5acb97489d65b14ecc7a,64cf4be5b58f98f2866956a2,,,,,,,ctch,resources/DB.BMP,resources/DR.BMP,Door4,0.25723381,-0.025,1,0,0,0.8675,optionRight,60,13120,6,21,0,21,0,1,,,,,,,,,,,,,,,,,,,,,,,,,,,,,,,,,,,,,,,
,,,,,,,,2023-08-06_08h38.21.576,HF_wild_card,2022.2.4,Win32,20.0968669,5ca3805f5c01df0013af4fe1,64ce5acb97489d65b14ecc7a,64cf4be5b58f98f2866956a2,,,,,,,decisionTrl,resources/DR.BMP,resources/DY.BMP,Door4,-0.204803212,-0.106481489,1,0,0,1.6482,optionLeft,60,13180,6,22,0,22,0,1,,,,,,,,,,,,,,,,,,,,,,,,,,,,,,,,,,,,,,,
,,,,,,,,2023-08-06_08h38.21.576,HF_wild_card,2022.2.4,Win32,20.0968669,5ca3805f5c01df0013af4fe1,64ce5acb97489d65b14ecc7a,64cf4be5b58f98f2866956a2,,,,,,,decisionTrl,resources/DBN.BMP,resources/DR.BMP,Door4,0.175752322,-0.060185178,1,0,0,1.1497,optionRight,60,13240,6,23,0,23,0,1,,,,,,,,,,,,,,,,,,,,,,,,,,,,,,,,,,,,,,,
,,,,,,,,2023-08-06_08h38.21.576,HF_wild_card,2022.2.4,Win32,20.0968669,5ca3805f5c01df0013af4fe1,64ce5acb97489d65b14ecc7a,64cf4be5b58f98f2866956a2,,,,,,,sngl,resources/DR.BMP,resources/Empty.png,Door4,-0.152951368,-0.030555566,1,0,0,0.8007,optionLeft,60,13300,6,24,0,24,0,1,,,,,,,,,,,,,,,,,,,,,,,,,,,,,,,,,,,,,,,
,,,,,,,,2023-08-06_08h38.21.576,HF_wild_card,2022.2.4,Win32,20.0968669,5ca3805f5c01df0013af4fe1,64ce5acb97489d65b14ecc7a,64cf4be5b58f98f2866956a2,,,,,,,sngl,resources/Empty.png,resources/DR.BMP,Door4,0.326678212,-0.028703721,1,0,0,0.7005,optionRight,80,13380,6,25,0,25,0,1,,,,,,,,,,,,,,,,,,,,,,,,,,,,,,,,,,,,,,,
,,,,,,,,2023-08-06_08h38.21.576,HF_wild_card,2022.2.4,Win32,20.0968669,5ca3805f5c01df0013af4fe1,64ce5acb97489d65b14ecc7a,64cf4be5b58f98f2866956a2,,,,,,,sngl,resources/DB.BMP,resources/Empty.png,Door1,-0.173321724,-0.020370388,1,0,0,0.7973,optionLeft,30,13410,6,26,0,26,0,1,,,,,,,,,,,,,,,,,,,,,,,,,,,,,,,,,,,,,,,
,,,,,,,,2023-08-06_08h38.21.576,HF_wild_card,2022.2.4,Win32,20.0968669,5ca3805f5c01df0013af4fe1,64ce5acb97489d65b14ecc7a,64cf4be5b58f98f2866956a2,,,,,,,sngl,resources/DBN.BMP,resources/Empty.png,Door3,-0.200173632,0.004629612,1,0,0,0.9804,optionLeft,70,13480,6,27,0,27,0,1,,,,,,,,,,,,,,,,,,,,,,,,,,,,,,,,,,,,,,,
,,,,,,,,2023-08-06_08h38.21.576,HF_wild_card,2022.2.4,Win32,20.0968669,5ca3805f5c01df0013af4fe1,64ce5acb97489d65b14ecc7a,64cf4be5b58f98f2866956a2,,,,,,,sngl,resources/Empty.png,resources/DBN.BMP,Door3,0.312789408,-0.015740744,1,0,0,0.7147,optionRight,70,13550,6,28,0,28,0,1,,,,,,,,,,,,,,,,,,,,,,,,,,,,,,,,,,,,,,,
,,,,,,,,2023-08-06_08h38.21.576,HF_wild_card,2022.2.4,Win32,20.0968669,5ca3805f5c01df0013af4fe1,64ce5acb97489d65b14ecc7a,64cf4be5b58f98f2866956a2,,,,,,,sngl,resources/DY.BMP,resources/Empty.png,WildCard_NonEx,-0.150173632,-0.043518511,1,0,0,0.7978,optionLeft,55,13605,6,29,0,29,0,1,,,,,,,,,,,,,,,,,,,,,,,,,,,,,,,,,,,,,,,
,,,,,,,,2023-08-06_08h38.21.576,HF_wild_card,2022.2.4,Win32,20.0968669,5ca3805f5c01df0013af4fe1,64ce5acb97489d65b14ecc7a,64cf4be5b58f98f2866956a2,,,,,,,ctch,resources/DG.BMP,resources/DBN.BMP,Door3,0.174826368,-0.019444434,1,0,0,0.9663,optionRight,70,13675,6,30,0,30,0,1,,,,,,,,,,,,,,,,,,,,,,,,,,,,,,,,,,,,,,,
,,,,,,,,2023-08-06_08h38.21.576,HF_wild_card,2022.2.4,Win32,20.0968669,5ca3805f5c01df0013af4fe1,64ce5acb97489d65b14ecc7a,64cf4be5b58f98f2866956a2,,,,,,,sngl,resources/Empty.png,resources/DY.BMP,WildCard_NonEx,0.229456075,-0.026851845,1,0,0,0.7456,optionRight,55,13730,6,31,0,31,0,1,,,,,,,,,,,,,,,,,,,,,,,,,,,,,,,,,,,,,,,
,,,,,,,,2023-08-06_08h38.21.576,HF_wild_card,2022.2.4,Win32,20.0968669,5ca3805f5c01df0013af4fe1,64ce5acb97489d65b14ecc7a,64cf4be5b58f98f2866956a2,,,,,,,decisionTrl,resources/DG.BMP,resources/DB.BMP,Door1,0.154456011,-0.050925954,1,0,0,1.4481,optionRight,30,13760,6,32,0,32,0,1,,,,,,,,,,,,,,,,,,,,,,,,,,,,,,,,,,,,,,,
,,,,,,,,2023-08-06_08h38.21.576,HF_wild_card,2022.2.4,Win32,20.0968669,5ca3805f5c01df0013af4fe1,64ce5acb97489d65b14ecc7a,64cf4be5b58f98f2866956a2,,,,,,,sngl,resources/Empty.png,resources/DY.BMP,WildCard_NonEx,0.247974523,-0.066666667,1,0,0,0.6948,optionRight,45,13805,6,33,0,33,0,1,,,,,,,,,,,,,,,,,,,,,,,,,,,,,,,,,,,,,,,
,,,,,,,,2023-08-06_08h38.21.576,HF_wild_card,2022.2.4,Win32,20.0968669,5ca3805f5c01df0013af4fe1,64ce5acb97489d65b14ecc7a,64cf4be5b58f98f2866956a2,,,,,,,ctch,resources/DBN.BMP,resources/DG.BMP,Door3,0.013715299,0.001851845,1,0,0,0.4319,optionLeft,70,13875,6,34,0,34,0,1,,,,,,,,,,,,,,,,,,,,,,,,,,,,,,,,,,,,,,,
,,,,,,,,2023-08-06_08h38.21.576,HF_wild_card,2022.2.4,Win32,20.0968669,5ca3805f5c01df0013af4fe1,64ce5acb97489d65b14ecc7a,64cf4be5b58f98f2866956a2,,,,,,,decisionTrl,resources/DB.BMP,resources/DG.BMP,Door1,-0.276099523,-0.022222233,1,0,0,1.7975,optionLeft,30,13905,6,35,0,35,0,1,,,,,,,,,,,,,,,,,,,,,,,,,,,,,,,,,,,,,,,
,,,,,,,,2023-08-06_08h38.21.576,HF_wild_card,2022.2.4,Win32,20.0968669,5ca3805f5c01df0013af4fe1,64ce5acb97489d65b14ecc7a,64cf4be5b58f98f2866956a2,,,,,,,ctch,resources/DBN.BMP,resources/DG.BMP,Door3,-0.33535881,-0.075,1,0,0,0.9841,optionLeft,70,13975,6,36,0,36,0,1,,,,,,,,,,,,,,,,,,,,,,,,,,,,,,,,,,,,,,,
,,,,,,,,2023-08-06_08h38.21.576,HF_wild_card,2022.2.4,Win32,20.0968669,5ca3805f5c01df0013af4fe1,64ce5acb97489d65b14ecc7a,64cf4be5b58f98f2866956a2,,,,,,,decisionTrl,resources/DR.BMP,resources/DBN.BMP,Door3,0.104456011,-0.035185178,1,0,0,1.0638,optionRight,70,14045,6,37,0,37,0,1,,,,,,,,,,,,,,,,,,,,,,,,,,,,,,,,,,,,,,,
,,,,,,,,2023-08-06_08h38.21.576,HF_wild_card,2022.2.4,Win32,20.0968669,5ca3805f5c01df0013af4fe1,64ce5acb97489d65b14ecc7a,64cf4be5b58f98f2866956a2,,,,,,,sngl,resources/Empty.png,resources/DG.BMP,Door2,0.2109375,-0.040740776,1,0,0,0.9158,optionRight,40,14085,6,38,0,38,0,1,,,,,,,,,,,,,,,,,,,,,,,,,,,,,,,,,,,,,,,
,,,,,,,,2023-08-06_08h38.21.576,HF_wild_card,2022.2.4,Win32,20.0968669,5ca3805f5c01df0013af4fe1,64ce5acb97489d65b14ecc7a,64cf4be5b58f98f2866956a2,,,,,,,decisionTrl,resources/DB.BMP,resources/DY.BMP,WildCard_NonEx,0.197974523,-0.047222201,1,0,0,1.1006,optionRight,55,14140,6,39,0,39,0,1,,,,,,,,,,,,,,,,,,,,,,,,,,,,,,,,,,,,,,,
,,,,,,,,2023-08-06_08h38.21.576,HF_wild_card,2022.2.4,Win32,20.0968669,5ca3805f5c01df0013af4fe1,64ce5acb97489d65b14ecc7a,64cf4be5b58f98f2866956a2,,,,,,,decisionTrl,resources/DG.BMP,resources/DY.BMP,WildCard_NonEx,0.275752385,-0.087037023,1,0,0,1.0147,optionRight,45,14185,6,40,0,40,0,1,,,,,,,,,,,,,,,,,,,,,,,,,,,,,,,,,,,,,,,
,,,,,,,,2023-08-06_08h38.21.576,HF_wild_card,2022.2.4,Win32,20.0968669,5ca3805f5c01df0013af4fe1,64ce5acb97489d65b14ecc7a,64cf4be5b58f98f2866956a2,,,,,,,ctch,resources/DB.BMP,resources/DR.BMP,Door4,0.341493098,-0.018518511,1,0,0,1.8166,optionRight,80,14265,6,41,0,41,0,1,,,,,,,,,,,,,,,,,,,,,,,,,,,,,,,,,,,,,,,
,,,,,,,,2023-08-06_08h38.21.576,HF_wild_card,2022.2.4,Win32,20.0968669,5ca3805f5c01df0013af4fe1,64ce5acb97489d65b14ecc7a,64cf4be5b58f98f2866956a2,,,,,,,decisionTrl,resources/DG.BMP,resources/DB.BMP,Door1,0.223900477,-0.070370356,1,0,0,1.098,optionRight,30,14295,6,42,0,42,0,1,,,,,,,,,,,,,,,,,,,,,,,,,,,,,,,,,,,,,,,
,,,,,,,,2023-08-06_08h38.21.576,HF_wild_card,2022.2.4,Win32,20.0968669,5ca3805f5c01df0013af4fe1,64ce5acb97489d65b14ecc7a,64cf4be5b58f98f2866956a2,,,,,,,decisionTrl,resources/DBN.BMP,resources/DR.BMP,Door4,0.228530121,-0.100925954,1,0,0,1.3812,optionRight,80,14375,6,43,0,43,0,1,,,,,,,,,,,,,,,,,,,,,,,,,,,,,,,,,,,,,,,
,,,,,,,,2023-08-06_08h38.21.576,HF_wild_card,2022.2.4,Win32,20.0968669,5ca3805f5c01df0013af4fe1,64ce5acb97489d65b14ecc7a,64cf4be5b58f98f2866956a2,,,,,,,,,,,,,,,,,,,,,,,,,,5,0,5,0,1,,,,,,,,,,,,,,,,,,,,,,,,,,,,,,,,,,
,,,,,,,,2023-08-06_08h38.21.576,HF_wild_card,2022.2.4,Win32,20.0968669,5ca3805f5c01df0013af4fe1,64ce5acb97489d65b14ecc7a,64cf4be5b58f98f2866956a2,,,,,,,ctch,resources/DB.BMP,resources/DR.BMP,Door4,0.409085719,-0.100925954,1,0,0,1.4557,optionRight,60,14435,7,0,0,0,0,1,,,,,,,,,,,,,,,,,,,,,,,,,,,,,,,,,,,,,,,
,,,,,,,,2023-08-06_08h38.21.576,HF_wild_card,2022.2.4,Win32,20.0968669,5ca3805f5c01df0013af4fe1,64ce5acb97489d65b14ecc7a,64cf4be5b58f98f2866956a2,,,,,,,decisionTrl,resources/DG.BMP,resources/DB.BMP,Door1,0.223900477,-0.082407443,1,0,0,1.9554,optionRight,30,14465,7,1,0,1,0,1,,,,,,,,,,,,,,,,,,,,,,,,,,,,,,,,,,,,,,,
,,,,,,,,2023-08-06_08h38.21.576,HF_wild_card,2022.2.4,Win32,20.0968669,5ca3805f5c01df0013af4fe1,64ce5acb97489d65b14ecc7a,64cf4be5b58f98f2866956a2,,,,,,,ctch,resources/DR.BMP,resources/DB.BMP,Door4,-0.331655057,-0.129629644,1,0,0,1.3616,optionLeft,60,14525,7,2,0,2,0,1,,,,,,,,,,,,,,,,,,,,,,,,,,,,,,,,,,,,,,,
,,,,,,,,2023-08-06_08h38.21.576,HF_wild_card,2022.2.4,Win32,20.0968669,5ca3805f5c01df0013af4fe1,64ce5acb97489d65b14ecc7a,64cf4be5b58f98f2866956a2,,,,,,,ctch,resources/DB.BMP,resources/DR.BMP,Door4,0.248900477,-0.048148155,1,0,0,1.1816,optionRight,60,14585,7,3,0,3,0,1,,,,,,,,,,,,,,,,,,,,,,,,,,,,,,,,,,,,,,,
,,,,,,,,2023-08-06_08h38.21.576,HF_wild_card,2022.2.4,Win32,20.0968669,5ca3805f5c01df0013af4fe1,64ce5acb97489d65b14ecc7a,64cf4be5b58f98f2866956a2,,,,,,,decisionTrl,resources/DB.BMP,resources/DG.BMP,Door1,-0.228877322,-0.1,1,0,0,1.7146,optionLeft,30,14615,7,4,0,4,0,1,,,,,,,,,,,,,,,,,,,,,,,,,,,,,,,,,,,,,,,
,,,,,,,,2023-08-06_08h38.21.576,HF_wild_card,2022.2.4,Win32,20.0968669,5ca3805f5c01df0013af4fe1,64ce5acb97489d65b14ecc7a,64cf4be5b58f98f2866956a2,,,,,,,decisionTrl,resources/DR.BMP,resources/DBN.BMP,Door4,-0.286284701,-0.137037023,1,0,0,5.2617,optionLeft,60,14675,7,5,0,5,0,1,,,,,,,,,,,,,,,,,,,,,,,,,,,,,,,,,,,,,,,
,,,,,,,,2023-08-06_08h38.21.576,HF_wild_card,2022.2.4,Win32,20.0968669,5ca3805f5c01df0013af4fe1,64ce5acb97489d65b14ecc7a,64cf4be5b58f98f2866956a2,,,,,,,decisionTrl,resources/DR.BMP,resources/DBN.BMP,Door4,-0.326099523,-0.105555534,1,0,0,1.0318,optionLeft,60,14735,7,6,0,6,0,1,,,,,,,,,,,,,,,,,,,,,,,,,,,,,,,,,,,,,,,
,,,,,,,,2023-08-06_08h38.21.576,HF_wild_card,2022.2.4,Win32,20.0968669,5ca3805f5c01df0013af4fe1,64ce5acb97489d65b14ecc7a,64cf4be5b58f98f2866956a2,,,,,,,ctch,resources/DG.BMP,resources/DBN.BMP,Door3,0.244270833,-0.001851845,1,0,0,1.3843,optionRight,70,14805,7,7,0,7,0,1,,,,,,,,,,,,,,,,,,,,,,,,,,,,,,,,,,,,,,,
,,,,,,,,2023-08-06_08h38.21.576,HF_wild_card,2022.2.4,Win32,20.0968669,5ca3805f5c01df0013af4fe1,64ce5acb97489d65b14ecc7a,64cf4be5b58f98f2866956a2,,,,,,,ctch,resources/DR.BMP,resources/DB.BMP,Door4,-0.2140625,-0.035185178,1,0,0,1.6314,optionLeft,80,14885,7,8,0,8,0,1,,,,,,,,,,,,,,,,,,,,,,,,,,,,,,,,,,,,,,,
,,,,,,,,2023-08-06_08h38.21.576,HF_wild_card,2022.2.4,Win32,20.0968669,5ca3805f5c01df0013af4fe1,64ce5acb97489d65b14ecc7a,64cf4be5b58f98f2866956a2,,,,,,,ctch,resources/DG.BMP,resources/DBN.BMP,Door3,0.197048569,-0.019444434,1,0,0,1.1151,optionRight,70,14955,7,9,0,9,0,1,,,,,,,,,,,,,,,,,,,,,,,,,,,,,,,,,,,,,,,
,,,,,,,,2023-08-06_08h38.21.576,HF_wild_card,2022.2.4,Win32,20.0968669,5ca3805f5c01df0013af4fe1,64ce5acb97489d65b14ecc7a,64cf4be5b58f98f2866956a2,,,,,,,decisionTrl,resources/DBN.BMP,resources/DR.BMP,Door4,0.233159765,-0.025,1,0,0,1.4951,optionRight,80,15035,7,10,0,10,0,1,,,,,,,,,,,,,,,,,,,,,,,,,,,,,,,,,,,,,,,
,,,,,,,,2023-08-06_08h38.21.576,HF_wild_card,2022.2.4,Win32,20.0968669,5ca3805f5c01df0013af4fe1,64ce5acb97489d65b14ecc7a,64cf4be5b58f98f2866956a2,,,,,,,ctch,resources/DBN.BMP,resources/DG.BMP,Door3,-0.163136546,-0.104629644,1,0,0,1.3619,optionLeft,70,15105,7,11,0,11,0,1,,,,,,,,,,,,,,,,,,,,,,,,,,,,,,,,,,,,,,,
,,,,,,,,2023-08-06_08h38.21.576,HF_wild_card,2022.2.4,Win32,20.0968669,5ca3805f5c01df0013af4fe1,64ce5acb97489d65b14ecc7a,64cf4be5b58f98f2866956a2,,,,,,,decisionTrl,resources/DR.BMP,resources/DBN.BMP,Door4,-0.303877322,-0.113888868,1,0,0,1.5513,optionLeft,80,15185,7,12,0,12,0,1,,,,,,,,,,,,,,,,,,,,,,,,,,,,,,,,,,,,,,,
,,,,,,,,2023-08-06_08h38.21.576,HF_wild_card,2022.2.4,Win32,20.0968669,5ca3805f5c01df0013af4fe1,64ce5acb97489d65b14ecc7a,64cf4be5b58f98f2866956a2,,,,,,,decisionTrl,resources/DG.BMP,resources/DB.BMP,Door1,0.287789408,-0.000925922,1,0,0,2.5801,optionRight,30,15215,7,13,0,13,0,1,,,,,,,,,,,,,,,,,,,,,,,,,,,,,,,,,,,,,,,
,,,,,,,,2023-08-06_08h38.21.576,HF_wild_card,2022.2.4,Win32,20.0968669,5ca3805f5c01df0013af4fe1,64ce5acb97489d65b14ecc7a,64cf4be5b58f98f2866956a2,,,,,,,ctch,resources/DBN.BMP,resources/DG.BMP,Door3,-0.173321724,-0.061111132,1,0,0,1.1453,optionLeft,70,15285,7,14,0,14,0,1,,,,,,,,,,,,,,,,,,,,,,,,,,,,,,,,,,,,,,,
,,,,,,,,2023-08-06_08h38.21.576,HF_wild_card,2022.2.4,Win32,20.0968669,5ca3805f5c01df0013af4fe1,64ce5acb97489d65b14ecc7a,64cf4be5b58f98f2866956a2,,,,,,,decisionTrl,resources/DBN.BMP,resources/DR.BMP,Door4,0.247974523,0.012037023,1,0,0,1.0294,optionRight,60,15345,7,15,0,15,0,1,,,,,,,,,,,,,,,,,,,,,,,,,,,,,,,,,,,,,,,
,,,,,,,,2023-08-06_08h38.21.576,HF_wild_card,2022.2.4,Win32,20.0968669,5ca3805f5c01df0013af4fe1,64ce5acb97489d65b14ecc7a,64cf4be5b58f98f2866956a2,,,,,,,decisionTrl,resources/DB.BMP,resources/DG.BMP,Door1,-0.254803212,-0.088888868,1,0,0,1.9479,optionLeft,30,15375,7,16,0,16,0,1,,,,,,,,,,,,,,,,,,,,,,,,,,,,,,,,,,,,,,,
,,,,,,,,2023-08-06_08h38.21.576,HF_wild_card,2022.2.4,Win32,20.0968669,5ca3805f5c01df0013af4fe1,64ce5acb97489d65b14ecc7a,64cf4be5b58f98f2866956a2,,,,,,,decisionTrl,resources/DG.BMP,resources/DB.BMP,Door1,0.222974523,0.001851845,1,0,0,1.451,optionRight,30,15405,7,17,0,17,0,1,,,,,,,,,,,,,,,,,,,,,,,,,,,,,,,,,,,,,,,
,,,,,,,,2023-08-06_08h38.21.576,HF_wild_card,2022.2.4,Win32,20.0968669,5ca3805f5c01df0013af4fe1,64ce5acb97489d65b14ecc7a,64cf4be5b58f98f2866956a2,,,,,,,decisionTrl,resources/DBN.BMP,resources/DR.BMP,Door4,0.325752385,0.011111101,1,0,0,1.3843,optionRight,60,15465,7,18,0,18,0,1,,,,,,,,,,,,,,,,,,,,,,,,,,,,,,,,,,,,,,,
,,,,,,,,2023-08-06_08h38.21.576,HF_wild_card,2022.2.4,Win32,20.0968669,5ca3805f5c01df0013af4fe1,64ce5acb97489d65b14ecc7a,64cf4be5b58f98f2866956a2,,,,,,,decisionTrl,resources/DG.BMP,resources/DB.BMP,Door1,0.26464119,-0.001851845,1,0,0,2.3477,optionRight,30,15495,7,19,0,19,0,1,,,,,,,,,,,,,,,,,,,,,,,,,,,,,,,,,,,,,,,
,,,,,,,,2023-08-06_08h38.21.576,HF_wild_card,2022.2.4,Win32,20.0968669,5ca3805f5c01df0013af4fe1,64ce5acb97489d65b14ecc7a,64cf4be5b58f98f2866956a2,,,,,,,decisionTrl,resources/DBN.BMP,resources/DR.BMP,Door4,0.321122742,-0.02129631,1,0,0,1.2415,optionRight,60,15555,7,20,0,20,0,1,,,,,,,,,,,,,,,,,,,,,,,,,,,,,,,,,,,,,,,
,,,,,,,,2023-08-06_08h38.21.576,HF_wild_card,2022.2.4,Win32,20.0968669,5ca3805f5c01df0013af4fe1,64ce5acb97489d65b14ecc7a,64cf4be5b58f98f2866956a2,,,,,,,ctch,resources/DB.BMP,resources/DR.BMP,Door4,0.366493098,-0.037962977,1,0,0,1.0654,optionRight,60,15615,7,21,0,21,0,1,,,,,,,,,,,,,,,,,,,,,,,,,,,,,,,,,,,,,,,
,,,,,,,,2023-08-06_08h38.21.576,HF_wild_card,2022.2.4,Win32,20.0968669,5ca3805f5c01df0013af4fe1,64ce5acb97489d65b14ecc7a,64cf4be5b58f98f2866956a2,,,,,,,decisionTrl,resources/DG.BMP,resources/DB.BMP,Door1,0.26464119,-0.055555534,1,0,0,1.079,optionRight,30,15645,7,22,0,22,0,1,,,,,,,,,,,,,,,,,,,,,,,,,,,,,,,,,,,,,,,
,,,,,,,,2023-08-06_08h38.21.576,HF_wild_card,2022.2.4,Win32,20.0968669,5ca3805f5c01df0013af4fe1,64ce5acb97489d65b14ecc7a,64cf4be5b58f98f2866956a2,,,,,,,decisionTrl,resources/DBN.BMP,resources/DR.BMP,Door4,0.304456075,-0.068518511,1,0,0,1.5955,optionRight,80,15725,7,23,0,23,0,1,,,,,,,,,,,,,,,,,,,,,,,,,,,,,,,,,,,,,,,
,,,,,,,,2023-08-06_08h38.21.576,HF_wild_card,2022.2.4,Win32,20.0968669,5ca3805f5c01df0013af4fe1,64ce5acb97489d65b14ecc7a,64cf4be5b58f98f2866956a2,,,,,,,decisionTrl,resources/DR.BMP,resources/DBN.BMP,Door4,-0.254803212,-0.074074109,1,0,0,1.0984,optionLeft,80,15805,7,24,0,24,0,1,,,,,,,,,,,,,,,,,,,,,,,,,,,,,,,,,,,,,,,
,,,,,,,,2023-08-06_08h38.21.576,HF_wild_card,2022.2.4,Win32,20.0968669,5ca3805f5c01df0013af4fe1,64ce5acb97489d65b14ecc7a,64cf4be5b58f98f2866956a2,,,,,,,decisionTrl,resources/DB.BMP,resources/DG.BMP,Door1,-0.222395833,-0.080555534,1,0,0,1.2977,optionLeft,30,15835,7,25,0,25,0,1,,,,,,,,,,,,,,,,,,,,,,,,,,,,,,,,,,,,,,,
,,,,,,,,2023-08-06_08h38.21.576,HF_wild_card,2022.2.4,Win32,20.0968669,5ca3805f5c01df0013af4fe1,64ce5acb97489d65b14ecc7a,64cf4be5b58f98f2866956a2,,,,,,,decisionTrl,resources/DR.BMP,resources/DBN.BMP,Door4,-0.325173632,-0.072222201,1,0,0,1.2344,optionLeft,60,15895,7,26,0,26,0,1,,,,,,,,,,,,,,,,,,,,,,,,,,,,,,,,,,,,,,,
,,,,,,,,2023-08-06_08h38.21.576,HF_wild_card,2022.2.4,Win32,20.0968669,5ca3805f5c01df0013af4fe1,64ce5acb97489d65b14ecc7a,64cf4be5b58f98f2866956a2,,,,,,,ctch,resources/DG.BMP,resources/DBN.BMP,Door3,0.226678212,-0.034259288,1,0,0,1.281,optionRight,70,15965,7,27,0,27,0,1,,,,,,,,,,,,,,,,,,,,,,,,,,,,,,,,,,,,,,,
,,,,,,,,2023-08-06_08h38.21.576,HF_wild_card,2022.2.4,Win32,20.0968669,5ca3805f5c01df0013af4fe1,64ce5acb97489d65b14ecc7a,64cf4be5b58f98f2866956a2,,,,,,,decisionTrl,resources/DG.BMP,resources/DB.BMP,Door1,0.213715235,-0.027777767,1,0,0,2.6277,optionRight,30,15995,7,28,0,28,0,1,,,,,,,,,,,,,,,,,,,,,,,,,,,,,,,,,,,,,,,
,,,,,,,,2023-08-06_08h38.21.576,HF_wild_card,2022.2.4,Win32,20.0968669,5ca3805f5c01df0013af4fe1,64ce5acb97489d65b14ecc7a,64cf4be5b58f98f2866956a2,,,,,,,ctch,resources/DBN.BMP,resources/DG.BMP,Door3,-0.245543989,-0.126851845,1,0,0,1.6477,optionLeft,70,16065,7,29,0,29,0,1,,,,,,,,,,,,,,,,,,,,,,,,,,,,,,,,,,,,,,,
,,,,,,,,2023-08-06_08h38.21.576,HF_wild_card,2022.2.4,Win32,20.0968669,5ca3805f5c01df0013af4fe1,64ce5acb97489d65b14ecc7a,64cf4be5b58f98f2866956a2,,,,,,,decisionTrl,resources/DB.BMP,resources/DG.BMP,Door1,-0.404803244,-0.079629644,1,0,0,1.9006,optionLeft,30,16095,7,30,0,30,0,1,,,,,,,,,,,,,,,,,,,,,,,,,,,,,,,,,,,,,,,
,,,,,,,,2023-08-06_08h38.21.576,HF_wild_card,2022.2.4,Win32,20.0968669,5ca3805f5c01df0013af4fe1,64ce5acb97489d65b14ecc7a,64cf4be5b58f98f2866956a2,,,,,,,decisionTrl,resources/DR.BMP,resources/DBN.BMP,Door4,-0.16035881,-0.031481489,1,0,0,1.1014,optionLeft,80,16175,7,31,0,31,0,1,,,,,,,,,,,,,,,,,,,,,,,,,,,,,,,,,,,,,,,
,,,,,,,,2023-08-06_08h38.21.576,HF_wild_card,2022.2.4,Win32,20.0968669,5ca3805f5c01df0013af4fe1,64ce5acb97489d65b14ecc7a,64cf4be5b58f98f2866956a2,,,,,,,ctch,resources/DR.BMP,resources/DB.BMP,Door4,-0.483506934,-0.15,1,0,0,1.8143,optionLeft,80,16255,7,32,0,32,0,1,,,,,,,,,,,,,,,,,,,,,,,,,,,,,,,,,,,,,,,
,,,,,,,,2023-08-06_08h38.21.576,HF_wild_card,2022.2.4,Win32,20.0968669,5ca3805f5c01df0013af4fe1,64ce5acb97489d65b14ecc7a,64cf4be5b58f98f2866956a2,,,,,,,decisionTrl,resources/DB.BMP,resources/DG.BMP,Door1,-0.422395833,-0.182407443,1,0,0,2.1449,optionLeft,30,16285,7,33,0,33,0,1,,,,,,,,,,,,,,,,,,,,,,,,,,,,,,,,,,,,,,,
,,,,,,,,2023-08-06_08h38.21.576,HF_wild_card,2022.2.4,Win32,20.0968669,5ca3805f5c01df0013af4fe1,64ce5acb97489d65b14ecc7a,64cf4be5b58f98f2866956a2,,,,,,,decisionTrl,resources/DB.BMP,resources/DG.BMP,Door1,-0.163136546,-0.005555566,1,0,0,0.9125,optionLeft,30,16315,7,34,0,34,0,1,,,,,,,,,,,,,,,,,,,,,,,,,,,,,,,,,,,,,,,
,,,,,,,,2023-08-06_08h38.21.576,HF_wild_card,2022.2.4,Win32,20.0968669,5ca3805f5c01df0013af4fe1,64ce5acb97489d65b14ecc7a,64cf4be5b58f98f2866956a2,,,,,,,decisionTrl,resources/DBN.BMP,resources/DR.BMP,Door4,0.181307856,-0.035185178,1,0,0,1.2147,optionRight,80,16395,7,35,0,35,0,1,,,,,,,,,,,,,,,,,,,,,,,,,,,,,,,,,,,,,,,
,,,,,,,,2023-08-06_08h38.21.576,HF_wild_card,2022.2.4,Win32,20.0968669,5ca3805f5c01df0013af4fe1,64ce5acb97489d65b14ecc7a,64cf4be5b58f98f2866956a2,,,,,,,,,,,,,,,,,,,,,,,,,,6,0,6,0,1,,,,,,,,,,,,,,,,,,,,,,,,,,,,,,,,,,
,,,,,,,,2023-08-06_08h38.21.576,HF_wild_card,2022.2.4,Win32,20.0968669,5ca3805f5c01df0013af4fe1,64ce5acb97489d65b14ecc7a,64cf4be5b58f98f2866956a2,,,,,,,,,,,,,,,,,,,,,,,,,,,,,,,4,,,,,,,,,,,,,,,,,,,,,,,,,,,,,,,,,
,,,,,,,,2023-08-06_08h38.21.576,HF_wild_card,2022.2.4,Win32,20.0968669,5ca3805f5c01df0013af4fe1,64ce5acb97489d65b14ecc7a,64cf4be5b58f98f2866956a2,,,,,,,,,,,,,,,,,,,,,,,,,,,,,,,,,,,,,,,,,,,,,,,,,,,,,,,,,,,,,,,,
,,,,,,,,2023-08-06_08h38.21.576,HF_wild_card,2022.2.4,Win32,20.0968669,5ca3805f5c01df0013af4fe1,64ce5acb97489d65b14ecc7a,64cf4be5b58f98f2866956a2,,,,,,,,,,,,,,,,,,,,,,,,,,,,,,,,70,Door3,resources/DBN.BMP,0,0,0,0,1,,,,,,,,,,,,,,,,,,,,,,,,,
,,,,,,,,2023-08-06_08h38.21.576,HF_wild_card,2022.2.4,Win32,20.0968669,5ca3805f5c01df0013af4fe1,64ce5acb97489d65b14ecc7a,64cf4be5b58f98f2866956a2,,,,,,,,,,,,,,,,,,,,,,,,,,,,,,,,5,WC_extreme,resources/DP.BMP,1,0,1,0,1,,,,,,,,,,,,,,,,,,,,,,,,,
,,,,,,,,2023-08-06_08h38.21.576,HF_wild_card,2022.2.4,Win32,20.0968669,5ca3805f5c01df0013af4fe1,64ce5acb97489d65b14ecc7a,64cf4be5b58f98f2866956a2,,,,,,,,,,,,,,,,,,,,,,,,,,,,,,,,80,Door4,resources/DR.BMP,2,0,2,0,1,,,,,,,,,,,,,,,,,,,,,,,,,
,,,,,,,,2023-08-06_08h38.21.576,HF_wild_card,2022.2.4,Win32,20.0968669,5ca3805f5c01df0013af4fe1,64ce5acb97489d65b14ecc7a,64cf4be5b58f98f2866956a2,,,,,,,,,,,,,,,,,,,,,,,,,,,,,,,,20,Door2,resources/DG.BMP,3,0,3,0,1,,,,,,,,,,,,,,,,,,,,,,,,,
,,,,,,,,2023-08-06_08h38.21.576,HF_wild_card,2022.2.4,Win32,20.0968669,5ca3805f5c01df0013af4fe1,64ce5acb97489d65b14ecc7a,64cf4be5b58f98f2866956a2,,,,,,,,,,,,,,,,,,,,,,,,,,,,,,,,55,WC_nonExtreme,resources/DY.BMP,4,0,4,0,1,,,,,,,,,,,,,,,,,,,,,,,,,
,,,,,,,,2023-08-06_08h38.21.576,HF_wild_card,2022.2.4,Win32,20.0968669,5ca3805f5c01df0013af4fe1,64ce5acb97489d65b14ecc7a,64cf4be5b58f98f2866956a2,,,,,,,,,,,,,,,,,,,,,,,,,,,,,,,,30,Door1,resources/DB.BMP,5,0,5,0,1,,,,,,,,,,,,,,,,,,,,,,,,,
,,,,,,,,2023-08-06_08h38.21.576,HF_wild_card,2022.2.4,Win32,20.0968669,5ca3805f5c01df0013af4fe1,64ce5acb97489d65b14ecc7a,64cf4be5b58f98f2866956a2,,,,,,,,,,,,,,,,,,,,,,,,,,,,,,,,,,,,,,,,,,,,,,,,,,,,,,,,,,,,,,,,
,,,,,,,,2023-08-06_08h38.21.576,HF_wild_card,2022.2.4,Win32,20.0968669,5ca3805f5c01df0013af4fe1,64ce5acb97489d65b14ecc7a,64cf4be5b58f98f2866956a2,,,,,,,,,,,,,,,,,,,,,,,,,,,,,,,,,,,,,,,,0,0,0,0,1,,,,,,,,,,,,,,,,,,,,
