Condition,Low fixed image (Door1),Low risky image (Door2),High fixed image (Door3),High risky image (Door4),NonExtreme Wild Card 1,NonExtreme Wild Card 2,,date,expName,psychopyVersion,OS,frameRate,PROLIFIC_PID,STUDY_ID,SESSION_ID,mouse_2.x,mouse_2.y,mouse_2.leftButton,mouse_2.midButton,mouse_2.rightButton,mouse_2.clicked_name,Trial Type,Left Option Image,Right Option Image,Chosen Door,mouse.x,mouse.y,mouse.leftButton,mouse.midButton,mouse.rightButton,mouse.time,mouse.clicked_name,Feedback,Cumulative Reward,Block,trial.thisRepN,trial.thisTrialN,trial.thisN,trial.thisIndex,trial.ran,blocks.thisRepN,blocks.thisTrialN,blocks.thisN,blocks.thisIndex,blocks.ran,Money conversion,First Outcome Reported,Shown Door (First Outcome),Displayed Image (First Outcome),outcomes.thisRepN,outcomes.thisTrialN,outcomes.thisN,outcomes.thisIndex,outcomes.ran,judgments.thisRepN,judgments.thisTrialN,judgments.thisN,judgments.thisIndex,judgments.ran,freqMouse.x,freqMouse.y,freqMouse.leftButton,freqMouse.midButton,freqMouse.rightButton,freqMouse.clicked_name,FQJ for first outcome,FQJ for second outcome,Shown Door,Displayed Image,trials.thisRepN,trials.thisTrialN,trials.thisN,trials.thisIndex,trials.ran,judgBlock.thisRepN,judgBlock.thisTrialN,judgBlock.thisN,judgBlock.thisIndex,judgBlock.ran
2,resources/DG.BMP,resources/DB.BMP,resources/DR.BMP,resources/DBN.BMP,resources/DP.BMP,resources/DY.BMP,,2023-08-16_08h32.12.760,HF_wild_card,2022.2.4,Win32,60.0240096,5eb162b0dc71ec243a783edc,64d2fd46c836a06233681665,64dc7b5ca7456ad563feb196,,,,,,,,,,,,,,,,,,,,,,,,,,,,,,,,,,,,,,,,,,,,,,,,,,,,,,,,,,,,,,,,
,,,,,,,,2023-08-16_08h32.12.760,HF_wild_card,2022.2.4,Win32,60.0240096,5eb162b0dc71ec243a783edc,64d2fd46c836a06233681665,64dc7b5ca7456ad563feb196,0,-0.409722222,1,0,0,agree,,,,,,,,,,,,,,,,,,,,,,,,,,,,,,,,,,,,,,,,,,,,,,,,,,,,,,,,,,
,,,,,,,,2023-08-16_08h32.12.760,HF_wild_card,2022.2.4,Win32,60.0240096,5eb162b0dc71ec243a783edc,64d2fd46c836a06233681665,64dc7b5ca7456ad563feb196,,,,,,,,,,,,,,,,,,,,,,,,,,,,,,,,,,,,,,,,,,,,,,,,,,,,,,,,,,,,,,,,
,,,,,,,,2023-08-16_08h32.12.760,HF_wild_card,2022.2.4,Win32,60.0240096,5eb162b0dc71ec243a783edc,64d2fd46c836a06233681665,64dc7b5ca7456ad563feb196,,,,,,,decisionTrl,resources/DB.BMP,resources/DG.BMP,Door1,0.413194444,-0.001157407,1,0,0,2.577,optionRight,30,30,1,0,0,0,0,1,,,,,,,,,,,,,,,,,,,,,,,,,,,,,,,,,,,,,,,
,,,,,,,,2023-08-16_08h32.12.760,HF_wild_card,2022.2.4,Win32,60.0240096,5eb162b0dc71ec243a783edc,64d2fd46c836a06233681665,64dc7b5ca7456ad563feb196,,,,,,,ctch,resources/DG.BMP,resources/DBN.BMP,Door1,-0.414351852,-0.011574074,1,0,0,2.18,optionLeft,30,60,1,1,0,1,0,1,,,,,,,,,,,,,,,,,,,,,,,,,,,,,,,,,,,,,,,
,,,,,,,,2023-08-16_08h32.12.760,HF_wild_card,2022.2.4,Win32,60.0240096,5eb162b0dc71ec243a783edc,64d2fd46c836a06233681665,64dc7b5ca7456ad563feb196,,,,,,,decisionTrl,resources/DY.BMP,resources/DR.BMP,Door3,0.378472222,-0.018518519,1,0,0,1.645,optionRight,70,130,1,2,0,2,0,1,,,,,,,,,,,,,,,,,,,,,,,,,,,,,,,,,,,,,,,
,,,,,,,,2023-08-16_08h32.12.760,HF_wild_card,2022.2.4,Win32,60.0240096,5eb162b0dc71ec243a783edc,64d2fd46c836a06233681665,64dc7b5ca7456ad563feb196,,,,,,,sngl,resources/DB.BMP,resources/Empty.png,Door2,-0.40625,-0.023148148,1,0,0,1.58,optionLeft,40,170,1,3,0,3,0,1,,,,,,,,,,,,,,,,,,,,,,,,,,,,,,,,,,,,,,,
,,,,,,,,2023-08-16_08h32.12.760,HF_wild_card,2022.2.4,Win32,60.0240096,5eb162b0dc71ec243a783edc,64d2fd46c836a06233681665,64dc7b5ca7456ad563feb196,,,,,,,decisionTrl,resources/DBN.BMP,resources/DR.BMP,Door3,0.391203704,-0.025462963,1,0,0,1.481,optionRight,70,240,1,4,0,4,0,1,,,,,,,,,,,,,,,,,,,,,,,,,,,,,,,,,,,,,,,
,,,,,,,,2023-08-16_08h32.12.760,HF_wild_card,2022.2.4,Win32,60.0240096,5eb162b0dc71ec243a783edc,64d2fd46c836a06233681665,64dc7b5ca7456ad563feb196,,,,,,,sngl,resources/Empty.png,resources/DB.BMP,Door2,0.380787037,-0.023148148,1,0,0,1.029,optionRight,20,260,1,5,0,5,0,1,,,,,,,,,,,,,,,,,,,,,,,,,,,,,,,,,,,,,,,
,,,,,,,,2023-08-16_08h32.12.760,HF_wild_card,2022.2.4,Win32,60.0240096,5eb162b0dc71ec243a783edc,64d2fd46c836a06233681665,64dc7b5ca7456ad563feb196,,,,,,,decisionTrl,resources/DB.BMP,resources/DG.BMP,Door1,0.428240741,-0.027777778,1,0,0,1.43,optionRight,30,290,1,6,0,6,0,1,,,,,,,,,,,,,,,,,,,,,,,,,,,,,,,,,,,,,,,
,,,,,,,,2023-08-16_08h32.12.760,HF_wild_card,2022.2.4,Win32,60.0240096,5eb162b0dc71ec243a783edc,64d2fd46c836a06233681665,64dc7b5ca7456ad563feb196,,,,,,,decisionTrl,resources/DBN.BMP,resources/DR.BMP,Door4,-0.403935185,-0.02662037,1,0,0,1.181,optionLeft,80,370,1,7,0,7,0,1,,,,,,,,,,,,,,,,,,,,,,,,,,,,,,,,,,,,,,,
,,,,,,,,2023-08-16_08h32.12.760,HF_wild_card,2022.2.4,Win32,60.0240096,5eb162b0dc71ec243a783edc,64d2fd46c836a06233681665,64dc7b5ca7456ad563feb196,,,,,,,decisionTrl,resources/DY.BMP,resources/DG.BMP,WildCard_NonEx,-0.407407407,-0.054398148,1,0,0,1.931,optionLeft,55,425,1,8,0,8,0,1,,,,,,,,,,,,,,,,,,,,,,,,,,,,,,,,,,,,,,,
,,,,,,,,2023-08-16_08h32.12.760,HF_wild_card,2022.2.4,Win32,60.0240096,5eb162b0dc71ec243a783edc,64d2fd46c836a06233681665,64dc7b5ca7456ad563feb196,,,,,,,sngl,resources/Empty.png,resources/DY.BMP,WildCard_NonEx,0.386574074,-0.033564815,1,0,0,1.063,optionRight,55,480,1,9,0,9,0,1,,,,,,,,,,,,,,,,,,,,,,,,,,,,,,,,,,,,,,,
,,,,,,,,2023-08-16_08h32.12.760,HF_wild_card,2022.2.4,Win32,60.0240096,5eb162b0dc71ec243a783edc,64d2fd46c836a06233681665,64dc7b5ca7456ad563feb196,,,,,,,decisionTrl,resources/DY.BMP,resources/DBN.BMP,Door4,0.37962963,-0.023148148,1,0,0,1.047,optionRight,60,540,1,10,0,10,0,1,,,,,,,,,,,,,,,,,,,,,,,,,,,,,,,,,,,,,,,
,,,,,,,,2023-08-16_08h32.12.760,HF_wild_card,2022.2.4,Win32,60.0240096,5eb162b0dc71ec243a783edc,64d2fd46c836a06233681665,64dc7b5ca7456ad563feb196,,,,,,,ctch,resources/DR.BMP,resources/DB.BMP,Door3,-0.326388889,-0.047453704,1,0,0,1.295,optionLeft,70,610,1,11,0,11,0,1,,,,,,,,,,,,,,,,,,,,,,,,,,,,,,,,,,,,,,,
,,,,,,,,2023-08-16_08h32.12.760,HF_wild_card,2022.2.4,Win32,60.0240096,5eb162b0dc71ec243a783edc,64d2fd46c836a06233681665,64dc7b5ca7456ad563feb196,,,,,,,decisionTrl,resources/DR.BMP,resources/DBN.BMP,Door4,0.354166667,-0.039351852,1,0,0,1.229,optionRight,80,690,1,12,0,12,0,1,,,,,,,,,,,,,,,,,,,,,,,,,,,,,,,,,,,,,,,
,,,,,,,,2023-08-16_08h32.12.760,HF_wild_card,2022.2.4,Win32,60.0240096,5eb162b0dc71ec243a783edc,64d2fd46c836a06233681665,64dc7b5ca7456ad563feb196,,,,,,,ctch,resources/DR.BMP,resources/DB.BMP,Door3,-0.395833333,-0.061342593,1,0,0,1.396,optionLeft,70,760,1,13,0,13,0,1,,,,,,,,,,,,,,,,,,,,,,,,,,,,,,,,,,,,,,,
,,,,,,,,2023-08-16_08h32.12.760,HF_wild_card,2022.2.4,Win32,60.0240096,5eb162b0dc71ec243a783edc,64d2fd46c836a06233681665,64dc7b5ca7456ad563feb196,,,,,,,decisionTrl,resources/DB.BMP,resources/DG.BMP,Door1,0.457175926,-0.028935185,1,0,0,1.546,optionRight,30,790,1,14,0,14,0,1,,,,,,,,,,,,,,,,,,,,,,,,,,,,,,,,,,,,,,,
,,,,,,,,2023-08-16_08h32.12.760,HF_wild_card,2022.2.4,Win32,60.0240096,5eb162b0dc71ec243a783edc,64d2fd46c836a06233681665,64dc7b5ca7456ad563feb196,,,,,,,sngl,resources/DY.BMP,resources/Empty.png,WildCard_NonEx,-0.381944444,0.00462963,1,0,0,0.847,optionLeft,55,845,1,15,0,15,0,1,,,,,,,,,,,,,,,,,,,,,,,,,,,,,,,,,,,,,,,
,,,,,,,,2023-08-16_08h32.12.760,HF_wild_card,2022.2.4,Win32,60.0240096,5eb162b0dc71ec243a783edc,64d2fd46c836a06233681665,64dc7b5ca7456ad563feb196,,,,,,,decisionTrl,resources/DR.BMP,resources/DY.BMP,WildCard_NonEx,0.369212963,-0.048611111,1,0,0,1.264,optionRight,45,890,1,16,0,16,0,1,,,,,,,,,,,,,,,,,,,,,,,,,,,,,,,,,,,,,,,
,,,,,,,,2023-08-16_08h32.12.760,HF_wild_card,2022.2.4,Win32,60.0240096,5eb162b0dc71ec243a783edc,64d2fd46c836a06233681665,64dc7b5ca7456ad563feb196,,,,,,,decisionTrl,resources/DBN.BMP,resources/DR.BMP,Door4,-0.386574074,0,1,0,0,1.015,optionLeft,80,970,1,17,0,17,0,1,,,,,,,,,,,,,,,,,,,,,,,,,,,,,,,,,,,,,,,
,,,,,,,,2023-08-16_08h32.12.760,HF_wild_card,2022.2.4,Win32,60.0240096,5eb162b0dc71ec243a783edc,64d2fd46c836a06233681665,64dc7b5ca7456ad563feb196,,,,,,,decisionTrl,resources/DG.BMP,resources/DB.BMP,Door2,0.280092593,-0.076388889,1,0,0,1.613,optionRight,40,1010,1,18,0,18,0,1,,,,,,,,,,,,,,,,,,,,,,,,,,,,,,,,,,,,,,,
,,,,,,,,2023-08-16_08h32.12.760,HF_wild_card,2022.2.4,Win32,60.0240096,5eb162b0dc71ec243a783edc,64d2fd46c836a06233681665,64dc7b5ca7456ad563feb196,,,,,,,sngl,resources/Empty.png,resources/DY.BMP,WildCard_NonEx,0.366898148,-0.034722222,1,0,0,0.946,optionRight,45,1055,1,19,0,19,0,1,,,,,,,,,,,,,,,,,,,,,,,,,,,,,,,,,,,,,,,
,,,,,,,,2023-08-16_08h32.12.760,HF_wild_card,2022.2.4,Win32,60.0240096,5eb162b0dc71ec243a783edc,64d2fd46c836a06233681665,64dc7b5ca7456ad563feb196,,,,,,,sngl,resources/Empty.png,resources/DR.BMP,Door3,0.420138889,-0.006944444,1,0,0,1.031,optionRight,70,1125,1,20,0,20,0,1,,,,,,,,,,,,,,,,,,,,,,,,,,,,,,,,,,,,,,,
,,,,,,,,2023-08-16_08h32.12.760,HF_wild_card,2022.2.4,Win32,60.0240096,5eb162b0dc71ec243a783edc,64d2fd46c836a06233681665,64dc7b5ca7456ad563feb196,,,,,,,ctch,resources/DG.BMP,resources/DBN.BMP,Door4,0.373842593,-0.06712963,1,0,0,1.347,optionRight,60,1185,1,21,0,21,0,1,,,,,,,,,,,,,,,,,,,,,,,,,,,,,,,,,,,,,,,
,,,,,,,,2023-08-16_08h32.12.760,HF_wild_card,2022.2.4,Win32,60.0240096,5eb162b0dc71ec243a783edc,64d2fd46c836a06233681665,64dc7b5ca7456ad563feb196,,,,,,,decisionTrl,resources/DY.BMP,resources/DB.BMP,WildCard_NonEx,-0.347222222,-0.047453704,1,0,0,1.11,optionLeft,55,1240,1,22,0,22,0,1,,,,,,,,,,,,,,,,,,,,,,,,,,,,,,,,,,,,,,,
,,,,,,,,2023-08-16_08h32.12.760,HF_wild_card,2022.2.4,Win32,60.0240096,5eb162b0dc71ec243a783edc,64d2fd46c836a06233681665,64dc7b5ca7456ad563feb196,,,,,,,ctch,resources/DBN.BMP,resources/DG.BMP,Door4,-0.337962963,-0.05787037,1,0,0,1.146,optionLeft,80,1320,1,23,0,23,0,1,,,,,,,,,,,,,,,,,,,,,,,,,,,,,,,,,,,,,,,
,,,,,,,,2023-08-16_08h32.12.760,HF_wild_card,2022.2.4,Win32,60.0240096,5eb162b0dc71ec243a783edc,64d2fd46c836a06233681665,64dc7b5ca7456ad563feb196,,,,,,,ctch,resources/DBN.BMP,resources/DG.BMP,Door4,-0.372685185,-0.055555556,1,0,0,0.914,optionLeft,80,1400,1,24,0,24,0,1,,,,,,,,,,,,,,,,,,,,,,,,,,,,,,,,,,,,,,,
,,,,,,,,2023-08-16_08h32.12.760,HF_wild_card,2022.2.4,Win32,60.0240096,5eb162b0dc71ec243a783edc,64d2fd46c836a06233681665,64dc7b5ca7456ad563feb196,,,,,,,sngl,resources/Empty.png,resources/DG.BMP,Door1,0.403935185,-0.045138889,1,0,0,0.896,optionRight,30,1430,1,25,0,25,0,1,,,,,,,,,,,,,,,,,,,,,,,,,,,,,,,,,,,,,,,
,,,,,,,,2023-08-16_08h32.12.760,HF_wild_card,2022.2.4,Win32,60.0240096,5eb162b0dc71ec243a783edc,64d2fd46c836a06233681665,64dc7b5ca7456ad563feb196,,,,,,,decisionTrl,resources/DG.BMP,resources/DB.BMP,Door2,0.386574074,-0.043981481,1,0,0,1.097,optionRight,20,1450,1,26,0,26,0,1,,,,,,,,,,,,,,,,,,,,,,,,,,,,,,,,,,,,,,,
,,,,,,,,2023-08-16_08h32.12.760,HF_wild_card,2022.2.4,Win32,60.0240096,5eb162b0dc71ec243a783edc,64d2fd46c836a06233681665,64dc7b5ca7456ad563feb196,,,,,,,decisionTrl,resources/DBN.BMP,resources/DR.BMP,Door4,-0.321759259,-0.052083333,1,0,0,1.08,optionLeft,60,1510,1,27,0,27,0,1,,,,,,,,,,,,,,,,,,,,,,,,,,,,,,,,,,,,,,,
,,,,,,,,2023-08-16_08h32.12.760,HF_wild_card,2022.2.4,Win32,60.0240096,5eb162b0dc71ec243a783edc,64d2fd46c836a06233681665,64dc7b5ca7456ad563feb196,,,,,,,decisionTrl,resources/DR.BMP,resources/DBN.BMP,Door4,0.446759259,-0.045138889,1,0,0,0.864,optionRight,60,1570,1,28,0,28,0,1,,,,,,,,,,,,,,,,,,,,,,,,,,,,,,,,,,,,,,,
,,,,,,,,2023-08-16_08h32.12.760,HF_wild_card,2022.2.4,Win32,60.0240096,5eb162b0dc71ec243a783edc,64d2fd46c836a06233681665,64dc7b5ca7456ad563feb196,,,,,,,decisionTrl,resources/DG.BMP,resources/DB.BMP,Door1,-0.311342593,-0.075231481,1,0,0,1.314,optionLeft,30,1600,1,29,0,29,0,1,,,,,,,,,,,,,,,,,,,,,,,,,,,,,,,,,,,,,,,
,,,,,,,,2023-08-16_08h32.12.760,HF_wild_card,2022.2.4,Win32,60.0240096,5eb162b0dc71ec243a783edc,64d2fd46c836a06233681665,64dc7b5ca7456ad563feb196,,,,,,,sngl,resources/DG.BMP,resources/Empty.png,Door1,-0.313657407,-0.071759259,1,0,0,0.982,optionLeft,30,1630,1,30,0,30,0,1,,,,,,,,,,,,,,,,,,,,,,,,,,,,,,,,,,,,,,,
,,,,,,,,2023-08-16_08h32.12.760,HF_wild_card,2022.2.4,Win32,60.0240096,5eb162b0dc71ec243a783edc,64d2fd46c836a06233681665,64dc7b5ca7456ad563feb196,,,,,,,sngl,resources/DY.BMP,resources/Empty.png,WildCard_NonEx,-0.315972222,-0.032407407,1,0,0,1.098,optionLeft,45,1675,1,31,0,31,0,1,,,,,,,,,,,,,,,,,,,,,,,,,,,,,,,,,,,,,,,
,,,,,,,,2023-08-16_08h32.12.760,HF_wild_card,2022.2.4,Win32,60.0240096,5eb162b0dc71ec243a783edc,64d2fd46c836a06233681665,64dc7b5ca7456ad563feb196,,,,,,,ctch,resources/DB.BMP,resources/DR.BMP,Door3,0.395833333,-0.113425926,1,0,0,1.597,optionRight,70,1745,1,32,0,32,0,1,,,,,,,,,,,,,,,,,,,,,,,,,,,,,,,,,,,,,,,
,,,,,,,,2023-08-16_08h32.12.760,HF_wild_card,2022.2.4,Win32,60.0240096,5eb162b0dc71ec243a783edc,64d2fd46c836a06233681665,64dc7b5ca7456ad563feb196,,,,,,,sngl,resources/Empty.png,resources/DBN.BMP,Door4,0.403935185,-0.074074074,1,0,0,0.961,optionRight,60,1805,1,33,0,33,0,1,,,,,,,,,,,,,,,,,,,,,,,,,,,,,,,,,,,,,,,
,,,,,,,,2023-08-16_08h32.12.760,HF_wild_card,2022.2.4,Win32,60.0240096,5eb162b0dc71ec243a783edc,64d2fd46c836a06233681665,64dc7b5ca7456ad563feb196,,,,,,,decisionTrl,resources/DB.BMP,resources/DG.BMP,Door2,-0.407407407,-0.128472222,1,0,0,1.646,optionLeft,40,1845,1,34,0,34,0,1,,,,,,,,,,,,,,,,,,,,,,,,,,,,,,,,,,,,,,,
,,,,,,,,2023-08-16_08h32.12.760,HF_wild_card,2022.2.4,Win32,60.0240096,5eb162b0dc71ec243a783edc,64d2fd46c836a06233681665,64dc7b5ca7456ad563feb196,,,,,,,decisionTrl,resources/DR.BMP,resources/DBN.BMP,Door4,0.380787037,-0.072916667,1,0,0,1.013,optionRight,80,1925,1,35,0,35,0,1,,,,,,,,,,,,,,,,,,,,,,,,,,,,,,,,,,,,,,,
,,,,,,,,2023-08-16_08h32.12.760,HF_wild_card,2022.2.4,Win32,60.0240096,5eb162b0dc71ec243a783edc,64d2fd46c836a06233681665,64dc7b5ca7456ad563feb196,,,,,,,decisionTrl,resources/DR.BMP,resources/DBN.BMP,Door4,0.368055556,-0.056712963,1,0,0,0.997,optionRight,80,2005,1,36,0,36,0,1,,,,,,,,,,,,,,,,,,,,,,,,,,,,,,,,,,,,,,,
,,,,,,,,2023-08-16_08h32.12.760,HF_wild_card,2022.2.4,Win32,60.0240096,5eb162b0dc71ec243a783edc,64d2fd46c836a06233681665,64dc7b5ca7456ad563feb196,,,,,,,ctch,resources/DB.BMP,resources/DR.BMP,Door2,-0.349537037,-0.108796296,1,0,0,1.097,optionLeft,40,2045,1,37,0,37,0,1,,,,,,,,,,,,,,,,,,,,,,,,,,,,,,,,,,,,,,,
,,,,,,,,2023-08-16_08h32.12.760,HF_wild_card,2022.2.4,Win32,60.0240096,5eb162b0dc71ec243a783edc,64d2fd46c836a06233681665,64dc7b5ca7456ad563feb196,,,,,,,decisionTrl,resources/DG.BMP,resources/DY.BMP,WildCard_NonEx,0.386574074,-0.173611111,1,0,0,1.647,optionRight,55,2100,1,38,0,38,0,1,,,,,,,,,,,,,,,,,,,,,,,,,,,,,,,,,,,,,,,
,,,,,,,,2023-08-16_08h32.12.760,HF_wild_card,2022.2.4,Win32,60.0240096,5eb162b0dc71ec243a783edc,64d2fd46c836a06233681665,64dc7b5ca7456ad563feb196,,,,,,,decisionTrl,resources/DG.BMP,resources/DB.BMP,Door2,0.358796296,-0.091435185,1,0,0,1.248,optionRight,40,2140,1,39,0,39,0,1,,,,,,,,,,,,,,,,,,,,,,,,,,,,,,,,,,,,,,,
,,,,,,,,2023-08-16_08h32.12.760,HF_wild_card,2022.2.4,Win32,60.0240096,5eb162b0dc71ec243a783edc,64d2fd46c836a06233681665,64dc7b5ca7456ad563feb196,,,,,,,sngl,resources/DBN.BMP,resources/Empty.png,Door4,-0.333333333,-0.077546296,1,0,0,0.98,optionLeft,80,2220,1,40,0,40,0,1,,,,,,,,,,,,,,,,,,,,,,,,,,,,,,,,,,,,,,,
,,,,,,,,2023-08-16_08h32.12.760,HF_wild_card,2022.2.4,Win32,60.0240096,5eb162b0dc71ec243a783edc,64d2fd46c836a06233681665,64dc7b5ca7456ad563feb196,,,,,,,sngl,resources/DR.BMP,resources/Empty.png,Door3,-0.362268519,-0.09375,1,0,0,1.063,optionLeft,70,2290,1,41,0,41,0,1,,,,,,,,,,,,,,,,,,,,,,,,,,,,,,,,,,,,,,,
,,,,,,,,2023-08-16_08h32.12.760,HF_wild_card,2022.2.4,Win32,60.0240096,5eb162b0dc71ec243a783edc,64d2fd46c836a06233681665,64dc7b5ca7456ad563feb196,,,,,,,decisionTrl,resources/DB.BMP,resources/DY.BMP,WildCard_NonEx,0.355324074,-0.131944444,1,0,0,1.813,optionRight,55,2345,1,42,0,42,0,1,,,,,,,,,,,,,,,,,,,,,,,,,,,,,,,,,,,,,,,
,,,,,,,,2023-08-16_08h32.12.760,HF_wild_card,2022.2.4,Win32,60.0240096,5eb162b0dc71ec243a783edc,64d2fd46c836a06233681665,64dc7b5ca7456ad563feb196,,,,,,,decisionTrl,resources/DBN.BMP,resources/DY.BMP,Door4,-0.372685185,-0.104166667,1,0,0,0.848,optionLeft,60,2405,1,43,0,43,0,1,,,,,,,,,,,,,,,,,,,,,,,,,,,,,,,,,,,,,,,
,,,,,,,,2023-08-16_08h32.12.760,HF_wild_card,2022.2.4,Win32,60.0240096,5eb162b0dc71ec243a783edc,64d2fd46c836a06233681665,64dc7b5ca7456ad563feb196,,,,,,,,,,,,,,,,,,,,,,,,,,0,0,0,0,1,,,,,,,,,,,,,,,,,,,,,,,,,,,,,,,,,,
,,,,,,,,2023-08-16_08h32.12.760,HF_wild_card,2022.2.4,Win32,60.0240096,5eb162b0dc71ec243a783edc,64d2fd46c836a06233681665,64dc7b5ca7456ad563feb196,,,,,,,ctch,resources/DR.BMP,resources/DB.BMP,Door2,0.407407407,-0.048611111,1,0,0,1.327,optionRight,20,2425,2,0,0,0,0,1,,,,,,,,,,,,,,,,,,,,,,,,,,,,,,,,,,,,,,,
,,,,,,,,2023-08-16_08h32.12.760,HF_wild_card,2022.2.4,Win32,60.0240096,5eb162b0dc71ec243a783edc,64d2fd46c836a06233681665,64dc7b5ca7456ad563feb196,,,,,,,decisionTrl,resources/DR.BMP,resources/DY.BMP,WildCard_NonEx,0.332175926,-0.009259259,1,0,0,1.029,optionRight,45,2470,2,1,0,1,0,1,,,,,,,,,,,,,,,,,,,,,,,,,,,,,,,,,,,,,,,
,,,,,,,,2023-08-16_08h32.12.760,HF_wild_card,2022.2.4,Win32,60.0240096,5eb162b0dc71ec243a783edc,64d2fd46c836a06233681665,64dc7b5ca7456ad563feb196,,,,,,,sngl,resources/Empty.png,resources/DG.BMP,Door1,0.280092593,-0.002314815,1,0,0,0.829,optionRight,30,2500,2,2,0,2,0,1,,,,,,,,,,,,,,,,,,,,,,,,,,,,,,,,,,,,,,,
,,,,,,,,2023-08-16_08h32.12.760,HF_wild_card,2022.2.4,Win32,60.0240096,5eb162b0dc71ec243a783edc,64d2fd46c836a06233681665,64dc7b5ca7456ad563feb196,,,,,,,ctch,resources/DB.BMP,resources/DR.BMP,Door2,-0.341435185,-0.122685185,1,0,0,1.163,optionLeft,40,2540,2,3,0,3,0,1,,,,,,,,,,,,,,,,,,,,,,,,,,,,,,,,,,,,,,,
,,,,,,,,2023-08-16_08h32.12.760,HF_wild_card,2022.2.4,Win32,60.0240096,5eb162b0dc71ec243a783edc,64d2fd46c836a06233681665,64dc7b5ca7456ad563feb196,,,,,,,sngl,resources/Empty.png,resources/DBN.BMP,Door4,0.326388889,-0.049768519,1,0,0,0.83,optionRight,80,2620,2,4,0,4,0,1,,,,,,,,,,,,,,,,,,,,,,,,,,,,,,,,,,,,,,,
,,,,,,,,2023-08-16_08h32.12.760,HF_wild_card,2022.2.4,Win32,60.0240096,5eb162b0dc71ec243a783edc,64d2fd46c836a06233681665,64dc7b5ca7456ad563feb196,,,,,,,ctch,resources/DB.BMP,resources/DR.BMP,Door3,0.430555556,-0.025462963,1,0,0,1.264,optionRight,70,2690,2,5,0,5,0,1,,,,,,,,,,,,,,,,,,,,,,,,,,,,,,,,,,,,,,,
,,,,,,,,2023-08-16_08h32.12.760,HF_wild_card,2022.2.4,Win32,60.0240096,5eb162b0dc71ec243a783edc,64d2fd46c836a06233681665,64dc7b5ca7456ad563feb196,,,,,,,decisionTrl,resources/DBN.BMP,resources/DR.BMP,Door4,-0.372685185,-0.046296296,1,0,0,1.014,optionLeft,60,2750,2,6,0,6,0,1,,,,,,,,,,,,,,,,,,,,,,,,,,,,,,,,,,,,,,,
,,,,,,,,2023-08-16_08h32.12.760,HF_wild_card,2022.2.4,Win32,60.0240096,5eb162b0dc71ec243a783edc,64d2fd46c836a06233681665,64dc7b5ca7456ad563feb196,,,,,,,decisionTrl,resources/DR.BMP,resources/DBN.BMP,Door4,0.40162037,-0.048611111,1,0,0,0.948,optionRight,80,2830,2,7,0,7,0,1,,,,,,,,,,,,,,,,,,,,,,,,,,,,,,,,,,,,,,,
,,,,,,,,2023-08-16_08h32.12.760,HF_wild_card,2022.2.4,Win32,60.0240096,5eb162b0dc71ec243a783edc,64d2fd46c836a06233681665,64dc7b5ca7456ad563feb196,,,,,,,decisionTrl,resources/DB.BMP,resources/DG.BMP,Door1,0.452546296,-0.027777778,1,0,0,1.361,optionRight,30,2860,2,8,0,8,0,1,,,,,,,,,,,,,,,,,,,,,,,,,,,,,,,,,,,,,,,
,,,,,,,,2023-08-16_08h32.12.760,HF_wild_card,2022.2.4,Win32,60.0240096,5eb162b0dc71ec243a783edc,64d2fd46c836a06233681665,64dc7b5ca7456ad563feb196,,,,,,,sngl,resources/DB.BMP,resources/Empty.png,Door2,-0.325231481,-0.015046296,1,0,0,0.896,optionLeft,20,2880,2,9,0,9,0,1,,,,,,,,,,,,,,,,,,,,,,,,,,,,,,,,,,,,,,,
,,,,,,,,2023-08-16_08h32.12.760,HF_wild_card,2022.2.4,Win32,60.0240096,5eb162b0dc71ec243a783edc,64d2fd46c836a06233681665,64dc7b5ca7456ad563feb196,,,,,,,sngl,resources/Empty.png,resources/DR.BMP,Door3,0.359953704,-0.010416667,1,0,0,0.864,optionRight,70,2950,2,10,0,10,0,1,,,,,,,,,,,,,,,,,,,,,,,,,,,,,,,,,,,,,,,
,,,,,,,,2023-08-16_08h32.12.760,HF_wild_card,2022.2.4,Win32,60.0240096,5eb162b0dc71ec243a783edc,64d2fd46c836a06233681665,64dc7b5ca7456ad563feb196,,,,,,,decisionTrl,resources/DG.BMP,resources/DB.BMP,Door1,-0.331018519,0.025462963,1,0,0,3.712,optionLeft,30,2980,2,11,0,11,0,1,,,,,,,,,,,,,,,,,,,,,,,,,,,,,,,,,,,,,,,
,,,,,,,,2023-08-16_08h32.12.760,HF_wild_card,2022.2.4,Win32,60.0240096,5eb162b0dc71ec243a783edc,64d2fd46c836a06233681665,64dc7b5ca7456ad563feb196,,,,,,,sngl,resources/DBN.BMP,resources/Empty.png,Door4,-0.353009259,-0.076388889,1,0,0,0.981,optionLeft,60,3040,2,12,0,12,0,1,,,,,,,,,,,,,,,,,,,,,,,,,,,,,,,,,,,,,,,
,,,,,,,,2023-08-16_08h32.12.760,HF_wild_card,2022.2.4,Win32,60.0240096,5eb162b0dc71ec243a783edc,64d2fd46c836a06233681665,64dc7b5ca7456ad563feb196,,,,,,,ctch,resources/DBN.BMP,resources/DG.BMP,Door4,-0.361111111,-0.087962963,1,0,0,0.93,optionLeft,80,3120,2,13,0,13,0,1,,,,,,,,,,,,,,,,,,,,,,,,,,,,,,,,,,,,,,,
,,,,,,,,2023-08-16_08h32.12.760,HF_wild_card,2022.2.4,Win32,60.0240096,5eb162b0dc71ec243a783edc,64d2fd46c836a06233681665,64dc7b5ca7456ad563feb196,,,,,,,sngl,resources/Empty.png,resources/DY.BMP,WildCard_NonEx,0.425925926,-0.0625,1,0,0,0.864,optionRight,55,3175,2,14,0,14,0,1,,,,,,,,,,,,,,,,,,,,,,,,,,,,,,,,,,,,,,,
,,,,,,,,2023-08-16_08h32.12.760,HF_wild_card,2022.2.4,Win32,60.0240096,5eb162b0dc71ec243a783edc,64d2fd46c836a06233681665,64dc7b5ca7456ad563feb196,,,,,,,ctch,resources/DG.BMP,resources/DBN.BMP,Door4,0.431712963,-0.083333333,1,0,0,1.548,optionRight,60,3235,2,15,0,15,0,1,,,,,,,,,,,,,,,,,,,,,,,,,,,,,,,,,,,,,,,
,,,,,,,,2023-08-16_08h32.12.760,HF_wild_card,2022.2.4,Win32,60.0240096,5eb162b0dc71ec243a783edc,64d2fd46c836a06233681665,64dc7b5ca7456ad563feb196,,,,,,,decisionTrl,resources/DR.BMP,resources/DBN.BMP,Door4,0.399305556,-0.081018519,1,0,0,0.997,optionRight,60,3295,2,16,0,16,0,1,,,,,,,,,,,,,,,,,,,,,,,,,,,,,,,,,,,,,,,
,,,,,,,,2023-08-16_08h32.12.760,HF_wild_card,2022.2.4,Win32,60.0240096,5eb162b0dc71ec243a783edc,64d2fd46c836a06233681665,64dc7b5ca7456ad563feb196,,,,,,,sngl,resources/Empty.png,resources/DY.BMP,WildCard_NonEx,0.392361111,-0.09837963,1,0,0,1.312,optionRight,45,3340,2,17,0,17,0,1,,,,,,,,,,,,,,,,,,,,,,,,,,,,,,,,,,,,,,,
,,,,,,,,2023-08-16_08h32.12.760,HF_wild_card,2022.2.4,Win32,60.0240096,5eb162b0dc71ec243a783edc,64d2fd46c836a06233681665,64dc7b5ca7456ad563feb196,,,,,,,decisionTrl,resources/DY.BMP,resources/DBN.BMP,Door4,0.371527778,-0.075231481,1,0,0,0.865,optionRight,60,3400,2,18,0,18,0,1,,,,,,,,,,,,,,,,,,,,,,,,,,,,,,,,,,,,,,,
,,,,,,,,2023-08-16_08h32.12.760,HF_wild_card,2022.2.4,Win32,60.0240096,5eb162b0dc71ec243a783edc,64d2fd46c836a06233681665,64dc7b5ca7456ad563feb196,,,,,,,decisionTrl,resources/DB.BMP,resources/DG.BMP,Door1,0.391203704,-0.059027778,1,0,0,1.261,optionRight,30,3430,2,19,0,19,0,1,,,,,,,,,,,,,,,,,,,,,,,,,,,,,,,,,,,,,,,
,,,,,,,,2023-08-16_08h32.12.760,HF_wild_card,2022.2.4,Win32,60.0240096,5eb162b0dc71ec243a783edc,64d2fd46c836a06233681665,64dc7b5ca7456ad563feb196,,,,,,,sngl,resources/DR.BMP,resources/Empty.png,Door3,-0.340277778,-0.038194444,1,0,0,0.995,optionLeft,70,3500,2,20,0,20,0,1,,,,,,,,,,,,,,,,,,,,,,,,,,,,,,,,,,,,,,,
,,,,,,,,2023-08-16_08h32.12.760,HF_wild_card,2022.2.4,Win32,60.0240096,5eb162b0dc71ec243a783edc,64d2fd46c836a06233681665,64dc7b5ca7456ad563feb196,,,,,,,decisionTrl,resources/DB.BMP,resources/DG.BMP,Door1,0.371527778,-0.025462963,1,0,0,0.831,optionRight,30,3530,2,21,0,21,0,1,,,,,,,,,,,,,,,,,,,,,,,,,,,,,,,,,,,,,,,
,,,,,,,,2023-08-16_08h32.12.760,HF_wild_card,2022.2.4,Win32,60.0240096,5eb162b0dc71ec243a783edc,64d2fd46c836a06233681665,64dc7b5ca7456ad563feb196,,,,,,,decisionTrl,resources/DG.BMP,resources/DB.BMP,Door2,0.306712963,-0.037037037,1,0,0,1.013,optionRight,20,3550,2,22,0,22,0,1,,,,,,,,,,,,,,,,,,,,,,,,,,,,,,,,,,,,,,,
,,,,,,,,2023-08-16_08h32.12.760,HF_wild_card,2022.2.4,Win32,60.0240096,5eb162b0dc71ec243a783edc,64d2fd46c836a06233681665,64dc7b5ca7456ad563feb196,,,,,,,decisionTrl,resources/DB.BMP,resources/DG.BMP,Door2,-0.315972222,-0.06712963,1,0,0,1.28,optionLeft,40,3590,2,23,0,23,0,1,,,,,,,,,,,,,,,,,,,,,,,,,,,,,,,,,,,,,,,
,,,,,,,,2023-08-16_08h32.12.760,HF_wild_card,2022.2.4,Win32,60.0240096,5eb162b0dc71ec243a783edc,64d2fd46c836a06233681665,64dc7b5ca7456ad563feb196,,,,,,,decisionTrl,resources/DR.BMP,resources/DBN.BMP,Door4,0.378472222,-0.013888889,1,0,0,0.882,optionRight,80,3670,2,24,0,24,0,1,,,,,,,,,,,,,,,,,,,,,,,,,,,,,,,,,,,,,,,
,,,,,,,,2023-08-16_08h32.12.760,HF_wild_card,2022.2.4,Win32,60.0240096,5eb162b0dc71ec243a783edc,64d2fd46c836a06233681665,64dc7b5ca7456ad563feb196,,,,,,,sngl,resources/Empty.png,resources/DB.BMP,Door2,0.321759259,-0.053240741,1,0,0,0.915,optionRight,40,3710,2,25,0,25,0,1,,,,,,,,,,,,,,,,,,,,,,,,,,,,,,,,,,,,,,,
,,,,,,,,2023-08-16_08h32.12.760,HF_wild_card,2022.2.4,Win32,60.0240096,5eb162b0dc71ec243a783edc,64d2fd46c836a06233681665,64dc7b5ca7456ad563feb196,,,,,,,ctch,resources/DBN.BMP,resources/DG.BMP,Door4,-0.347222222,-0.085648148,1,0,0,1.081,optionLeft,60,3770,2,26,0,26,0,1,,,,,,,,,,,,,,,,,,,,,,,,,,,,,,,,,,,,,,,
,,,,,,,,2023-08-16_08h32.12.760,HF_wild_card,2022.2.4,Win32,60.0240096,5eb162b0dc71ec243a783edc,64d2fd46c836a06233681665,64dc7b5ca7456ad563feb196,,,,,,,ctch,resources/DG.BMP,resources/DBN.BMP,Door4,0.405092593,-0.038194444,1,0,0,0.831,optionRight,80,3850,2,27,0,27,0,1,,,,,,,,,,,,,,,,,,,,,,,,,,,,,,,,,,,,,,,
,,,,,,,,2023-08-16_08h32.12.760,HF_wild_card,2022.2.4,Win32,60.0240096,5eb162b0dc71ec243a783edc,64d2fd46c836a06233681665,64dc7b5ca7456ad563feb196,,,,,,,sngl,resources/DG.BMP,resources/Empty.png,Door1,-0.263888889,-0.055555556,1,0,0,0.881,optionLeft,30,3880,2,28,0,28,0,1,,,,,,,,,,,,,,,,,,,,,,,,,,,,,,,,,,,,,,,
,,,,,,,,2023-08-16_08h32.12.760,HF_wild_card,2022.2.4,Win32,60.0240096,5eb162b0dc71ec243a783edc,64d2fd46c836a06233681665,64dc7b5ca7456ad563feb196,,,,,,,decisionTrl,resources/DY.BMP,resources/DG.BMP,Door1,0.362268519,-0.042824074,1,0,0,0.931,optionRight,30,3910,2,29,0,29,0,1,,,,,,,,,,,,,,,,,,,,,,,,,,,,,,,,,,,,,,,
,,,,,,,,2023-08-16_08h32.12.760,HF_wild_card,2022.2.4,Win32,60.0240096,5eb162b0dc71ec243a783edc,64d2fd46c836a06233681665,64dc7b5ca7456ad563feb196,,,,,,,decisionTrl,resources/DBN.BMP,resources/DY.BMP,Door4,-0.332175926,-0.081018519,1,0,0,1.08,optionLeft,60,3970,2,30,0,30,0,1,,,,,,,,,,,,,,,,,,,,,,,,,,,,,,,,,,,,,,,
,,,,,,,,2023-08-16_08h32.12.760,HF_wild_card,2022.2.4,Win32,60.0240096,5eb162b0dc71ec243a783edc,64d2fd46c836a06233681665,64dc7b5ca7456ad563feb196,,,,,,,decisionTrl,resources/DG.BMP,resources/DB.BMP,Door1,-0.326388889,-0.08912037,1,0,0,1.126,optionLeft,30,4000,2,31,0,31,0,1,,,,,,,,,,,,,,,,,,,,,,,,,,,,,,,,,,,,,,,
,,,,,,,,2023-08-16_08h32.12.760,HF_wild_card,2022.2.4,Win32,60.0240096,5eb162b0dc71ec243a783edc,64d2fd46c836a06233681665,64dc7b5ca7456ad563feb196,,,,,,,decisionTrl,resources/DG.BMP,resources/DY.BMP,WildCard_NonEx,0.349537037,-0.032407407,1,0,0,1.112,optionRight,55,4055,2,32,0,32,0,1,,,,,,,,,,,,,,,,,,,,,,,,,,,,,,,,,,,,,,,
,,,,,,,,2023-08-16_08h32.12.760,HF_wild_card,2022.2.4,Win32,60.0240096,5eb162b0dc71ec243a783edc,64d2fd46c836a06233681665,64dc7b5ca7456ad563feb196,,,,,,,decisionTrl,resources/DBN.BMP,resources/DR.BMP,Door4,-0.335648148,-0.087962963,1,0,0,1.047,optionLeft,80,4135,2,33,0,33,0,1,,,,,,,,,,,,,,,,,,,,,,,,,,,,,,,,,,,,,,,
,,,,,,,,2023-08-16_08h32.12.760,HF_wild_card,2022.2.4,Win32,60.0240096,5eb162b0dc71ec243a783edc,64d2fd46c836a06233681665,64dc7b5ca7456ad563feb196,,,,,,,sngl,resources/DY.BMP,resources/Empty.png,WildCard_NonEx,-0.356481481,-0.081018519,1,0,0,1.129,optionLeft,55,4190,2,34,0,34,0,1,,,,,,,,,,,,,,,,,,,,,,,,,,,,,,,,,,,,,,,
,,,,,,,,2023-08-16_08h32.12.760,HF_wild_card,2022.2.4,Win32,60.0240096,5eb162b0dc71ec243a783edc,64d2fd46c836a06233681665,64dc7b5ca7456ad563feb196,,,,,,,decisionTrl,resources/DR.BMP,resources/DBN.BMP,Door4,0.37962963,-0.050925926,1,0,0,1.129,optionRight,80,4270,2,35,0,35,0,1,,,,,,,,,,,,,,,,,,,,,,,,,,,,,,,,,,,,,,,
,,,,,,,,2023-08-16_08h32.12.760,HF_wild_card,2022.2.4,Win32,60.0240096,5eb162b0dc71ec243a783edc,64d2fd46c836a06233681665,64dc7b5ca7456ad563feb196,,,,,,,decisionTrl,resources/DG.BMP,resources/DB.BMP,Door1,-0.302083333,-0.0625,1,0,0,1.098,optionLeft,30,4300,2,36,0,36,0,1,,,,,,,,,,,,,,,,,,,,,,,,,,,,,,,,,,,,,,,
,,,,,,,,2023-08-16_08h32.12.760,HF_wild_card,2022.2.4,Win32,60.0240096,5eb162b0dc71ec243a783edc,64d2fd46c836a06233681665,64dc7b5ca7456ad563feb196,,,,,,,decisionTrl,resources/DB.BMP,resources/DY.BMP,WildCard_NonEx,0.335648148,-0.024305556,1,0,0,0.981,optionRight,45,4345,2,37,0,37,0,1,,,,,,,,,,,,,,,,,,,,,,,,,,,,,,,,,,,,,,,
,,,,,,,,2023-08-16_08h32.12.760,HF_wild_card,2022.2.4,Win32,60.0240096,5eb162b0dc71ec243a783edc,64d2fd46c836a06233681665,64dc7b5ca7456ad563feb196,,,,,,,decisionTrl,resources/DBN.BMP,resources/DR.BMP,Door4,-0.365740741,-0.069444444,1,0,0,1.03,optionLeft,60,4405,2,38,0,38,0,1,,,,,,,,,,,,,,,,,,,,,,,,,,,,,,,,,,,,,,,
,,,,,,,,2023-08-16_08h32.12.760,HF_wild_card,2022.2.4,Win32,60.0240096,5eb162b0dc71ec243a783edc,64d2fd46c836a06233681665,64dc7b5ca7456ad563feb196,,,,,,,sngl,resources/DY.BMP,resources/Empty.png,WildCard_NonEx,-0.398148148,-0.085648148,1,0,0,1.08,optionLeft,45,4450,2,39,0,39,0,1,,,,,,,,,,,,,,,,,,,,,,,,,,,,,,,,,,,,,,,
,,,,,,,,2023-08-16_08h32.12.760,HF_wild_card,2022.2.4,Win32,60.0240096,5eb162b0dc71ec243a783edc,64d2fd46c836a06233681665,64dc7b5ca7456ad563feb196,,,,,,,ctch,resources/DR.BMP,resources/DB.BMP,Door3,-0.366898148,-0.085648148,1,0,0,1.196,optionLeft,70,4520,2,40,0,40,0,1,,,,,,,,,,,,,,,,,,,,,,,,,,,,,,,,,,,,,,,
,,,,,,,,2023-08-16_08h32.12.760,HF_wild_card,2022.2.4,Win32,60.0240096,5eb162b0dc71ec243a783edc,64d2fd46c836a06233681665,64dc7b5ca7456ad563feb196,,,,,,,decisionTrl,resources/DY.BMP,resources/DB.BMP,WildCard_NonEx,-0.359953704,-0.108796296,1,0,0,0.931,optionLeft,45,4565,2,41,0,41,0,1,,,,,,,,,,,,,,,,,,,,,,,,,,,,,,,,,,,,,,,
,,,,,,,,2023-08-16_08h32.12.760,HF_wild_card,2022.2.4,Win32,60.0240096,5eb162b0dc71ec243a783edc,64d2fd46c836a06233681665,64dc7b5ca7456ad563feb196,,,,,,,decisionTrl,resources/DY.BMP,resources/DR.BMP,WildCard_NonEx,-0.384259259,-0.141203704,1,0,0,1.28,optionLeft,55,4620,2,42,0,42,0,1,,,,,,,,,,,,,,,,,,,,,,,,,,,,,,,,,,,,,,,
,,,,,,,,2023-08-16_08h32.12.760,HF_wild_card,2022.2.4,Win32,60.0240096,5eb162b0dc71ec243a783edc,64d2fd46c836a06233681665,64dc7b5ca7456ad563feb196,,,,,,,decisionTrl,resources/DBN.BMP,resources/DR.BMP,Door4,-0.384259259,-0.070601852,1,0,0,1.414,optionLeft,60,4680,2,43,0,43,0,1,,,,,,,,,,,,,,,,,,,,,,,,,,,,,,,,,,,,,,,
,,,,,,,,2023-08-16_08h32.12.760,HF_wild_card,2022.2.4,Win32,60.0240096,5eb162b0dc71ec243a783edc,64d2fd46c836a06233681665,64dc7b5ca7456ad563feb196,,,,,,,,,,,,,,,,,,,,,,,,,,1,0,1,0,1,,,,,,,,,,,,,,,,,,,,,,,,,,,,,,,,,,
,,,,,,,,2023-08-16_08h32.12.760,HF_wild_card,2022.2.4,Win32,60.0240096,5eb162b0dc71ec243a783edc,64d2fd46c836a06233681665,64dc7b5ca7456ad563feb196,,,,,,,decisionTrl,resources/DB.BMP,resources/DG.BMP,Door1,0.358796296,-0.142361111,1,0,0,1.228,optionRight,30,4710,3,0,0,0,0,1,,,,,,,,,,,,,,,,,,,,,,,,,,,,,,,,,,,,,,,
,,,,,,,,2023-08-16_08h32.12.760,HF_wild_card,2022.2.4,Win32,60.0240096,5eb162b0dc71ec243a783edc,64d2fd46c836a06233681665,64dc7b5ca7456ad563feb196,,,,,,,decisionTrl,resources/DB.BMP,resources/DG.BMP,Door1,0.369212963,-0.021990741,1,0,0,0.88,optionRight,30,4740,3,1,0,1,0,1,,,,,,,,,,,,,,,,,,,,,,,,,,,,,,,,,,,,,,,
,,,,,,,,2023-08-16_08h32.12.760,HF_wild_card,2022.2.4,Win32,60.0240096,5eb162b0dc71ec243a783edc,64d2fd46c836a06233681665,64dc7b5ca7456ad563feb196,,,,,,,decisionTrl,resources/DY.BMP,resources/DB.BMP,WildCard_NonEx,-0.346064815,-0.145833333,1,0,0,1.413,optionLeft,45,4785,3,2,0,2,0,1,,,,,,,,,,,,,,,,,,,,,,,,,,,,,,,,,,,,,,,
,,,,,,,,2023-08-16_08h32.12.760,HF_wild_card,2022.2.4,Win32,60.0240096,5eb162b0dc71ec243a783edc,64d2fd46c836a06233681665,64dc7b5ca7456ad563feb196,,,,,,,decisionTrl,resources/DB.BMP,resources/DG.BMP,Door2,-0.33912037,-0.116898148,1,0,0,1.746,optionLeft,20,4805,3,3,0,3,0,1,,,,,,,,,,,,,,,,,,,,,,,,,,,,,,,,,,,,,,,
,,,,,,,,2023-08-16_08h32.12.760,HF_wild_card,2022.2.4,Win32,60.0240096,5eb162b0dc71ec243a783edc,64d2fd46c836a06233681665,64dc7b5ca7456ad563feb196,,,,,,,decisionTrl,resources/DG.BMP,resources/DY.BMP,WildCard_NonEx,0.365740741,-0.113425926,1,0,0,1.397,optionRight,55,4860,3,4,0,4,0,1,,,,,,,,,,,,,,,,,,,,,,,,,,,,,,,,,,,,,,,
,,,,,,,,2023-08-16_08h32.12.760,HF_wild_card,2022.2.4,Win32,60.0240096,5eb162b0dc71ec243a783edc,64d2fd46c836a06233681665,64dc7b5ca7456ad563feb196,,,,,,,ctch,resources/DBN.BMP,resources/DG.BMP,Door4,-0.303240741,-0.061342593,1,0,0,1.097,optionLeft,80,4940,3,5,0,5,0,1,,,,,,,,,,,,,,,,,,,,,,,,,,,,,,,,,,,,,,,
,,,,,,,,2023-08-16_08h32.12.760,HF_wild_card,2022.2.4,Win32,60.0240096,5eb162b0dc71ec243a783edc,64d2fd46c836a06233681665,64dc7b5ca7456ad563feb196,,,,,,,sngl,resources/Empty.png,resources/DBN.BMP,Door4,0.381944444,-0.030092593,1,0,0,0.763,optionRight,60,5000,3,6,0,6,0,1,,,,,,,,,,,,,,,,,,,,,,,,,,,,,,,,,,,,,,,
,,,,,,,,2023-08-16_08h32.12.760,HF_wild_card,2022.2.4,Win32,60.0240096,5eb162b0dc71ec243a783edc,64d2fd46c836a06233681665,64dc7b5ca7456ad563feb196,,,,,,,ctch,resources/DR.BMP,resources/DB.BMP,Door3,-0.361111111,-0.127314815,1,0,0,1.663,optionLeft,70,5070,3,7,0,7,0,1,,,,,,,,,,,,,,,,,,,,,,,,,,,,,,,,,,,,,,,
,,,,,,,,2023-08-16_08h32.12.760,HF_wild_card,2022.2.4,Win32,60.0240096,5eb162b0dc71ec243a783edc,64d2fd46c836a06233681665,64dc7b5ca7456ad563feb196,,,,,,,sngl,resources/DG.BMP,resources/Empty.png,Door1,-0.328703704,-0.072916667,1,0,0,1.744,optionLeft,30,5100,3,8,0,8,0,1,,,,,,,,,,,,,,,,,,,,,,,,,,,,,,,,,,,,,,,
,,,,,,,,2023-08-16_08h32.12.760,HF_wild_card,2022.2.4,Win32,60.0240096,5eb162b0dc71ec243a783edc,64d2fd46c836a06233681665,64dc7b5ca7456ad563feb196,,,,,,,decisionTrl,resources/DG.BMP,resources/DB.BMP,Door1,-0.344907407,-0.085648148,1,0,0,1.513,optionLeft,30,5130,3,9,0,9,0,1,,,,,,,,,,,,,,,,,,,,,,,,,,,,,,,,,,,,,,,
,,,,,,,,2023-08-16_08h32.12.760,HF_wild_card,2022.2.4,Win32,60.0240096,5eb162b0dc71ec243a783edc,64d2fd46c836a06233681665,64dc7b5ca7456ad563feb196,,,,,,,ctch,resources/DB.BMP,resources/DR.BMP,Door3,0.335648148,-0.097222222,1,0,0,1.312,optionRight,70,5200,3,10,0,10,0,1,,,,,,,,,,,,,,,,,,,,,,,,,,,,,,,,,,,,,,,
,,,,,,,,2023-08-16_08h32.12.760,HF_wild_card,2022.2.4,Win32,60.0240096,5eb162b0dc71ec243a783edc,64d2fd46c836a06233681665,64dc7b5ca7456ad563feb196,,,,,,,sngl,resources/DB.BMP,resources/Empty.png,Door2,-0.309027778,-0.071759259,1,0,0,1.529,optionLeft,40,5240,3,11,0,11,0,1,,,,,,,,,,,,,,,,,,,,,,,,,,,,,,,,,,,,,,,
,,,,,,,,2023-08-16_08h32.12.760,HF_wild_card,2022.2.4,Win32,60.0240096,5eb162b0dc71ec243a783edc,64d2fd46c836a06233681665,64dc7b5ca7456ad563feb196,,,,,,,ctch,resources/DG.BMP,resources/DBN.BMP,Door4,0.361111111,-0.05787037,1,0,0,0.947,optionRight,80,5320,3,12,0,12,0,1,,,,,,,,,,,,,,,,,,,,,,,,,,,,,,,,,,,,,,,
,,,,,,,,2023-08-16_08h32.12.760,HF_wild_card,2022.2.4,Win32,60.0240096,5eb162b0dc71ec243a783edc,64d2fd46c836a06233681665,64dc7b5ca7456ad563feb196,,,,,,,sngl,resources/Empty.png,resources/DG.BMP,Door1,0.344907407,-0.059027778,1,0,0,1.847,optionRight,30,5350,3,13,0,13,0,1,,,,,,,,,,,,,,,,,,,,,,,,,,,,,,,,,,,,,,,
,,,,,,,,2023-08-16_08h32.12.760,HF_wild_card,2022.2.4,Win32,60.0240096,5eb162b0dc71ec243a783edc,64d2fd46c836a06233681665,64dc7b5ca7456ad563feb196,,,,,,,decisionTrl,resources/DB.BMP,resources/DY.BMP,WildCard_NonEx,0.435185185,-0.108796296,1,0,0,1.696,optionRight,45,5395,3,14,0,14,0,1,,,,,,,,,,,,,,,,,,,,,,,,,,,,,,,,,,,,,,,
,,,,,,,,2023-08-16_08h32.12.760,HF_wild_card,2022.2.4,Win32,60.0240096,5eb162b0dc71ec243a783edc,64d2fd46c836a06233681665,64dc7b5ca7456ad563feb196,,,,,,,decisionTrl,resources/DR.BMP,resources/DBN.BMP,Door4,0.434027778,-0.05787037,1,0,0,1.131,optionRight,60,5455,3,15,0,15,0,1,,,,,,,,,,,,,,,,,,,,,,,,,,,,,,,,,,,,,,,
,,,,,,,,2023-08-16_08h32.12.760,HF_wild_card,2022.2.4,Win32,60.0240096,5eb162b0dc71ec243a783edc,64d2fd46c836a06233681665,64dc7b5ca7456ad563feb196,,,,,,,decisionTrl,resources/DBN.BMP,resources/DR.BMP,Door4,-0.314814815,-0.083333333,1,0,0,1.964,optionLeft,80,5535,3,16,0,16,0,1,,,,,,,,,,,,,,,,,,,,,,,,,,,,,,,,,,,,,,,
,,,,,,,,2023-08-16_08h32.12.760,HF_wild_card,2022.2.4,Win32,60.0240096,5eb162b0dc71ec243a783edc,64d2fd46c836a06233681665,64dc7b5ca7456ad563feb196,,,,,,,sngl,resources/Empty.png,resources/DB.BMP,Door2,0.358796296,-0.096064815,1,0,0,1.427,optionRight,20,5555,3,17,0,17,0,1,,,,,,,,,,,,,,,,,,,,,,,,,,,,,,,,,,,,,,,
,,,,,,,,2023-08-16_08h32.12.760,HF_wild_card,2022.2.4,Win32,60.0240096,5eb162b0dc71ec243a783edc,64d2fd46c836a06233681665,64dc7b5ca7456ad563feb196,,,,,,,decisionTrl,resources/DG.BMP,resources/DB.BMP,Door1,-0.363425926,-0.126157407,1,0,0,1.547,optionLeft,30,5585,3,18,0,18,0,1,,,,,,,,,,,,,,,,,,,,,,,,,,,,,,,,,,,,,,,
,,,,,,,,2023-08-16_08h32.12.760,HF_wild_card,2022.2.4,Win32,60.0240096,5eb162b0dc71ec243a783edc,64d2fd46c836a06233681665,64dc7b5ca7456ad563feb196,,,,,,,decisionTrl,resources/DBN.BMP,resources/DR.BMP,Door4,-0.357638889,-0.085648148,1,0,0,1.88,optionLeft,60,5645,3,19,0,19,0,1,,,,,,,,,,,,,,,,,,,,,,,,,,,,,,,,,,,,,,,
,,,,,,,,2023-08-16_08h32.12.760,HF_wild_card,2022.2.4,Win32,60.0240096,5eb162b0dc71ec243a783edc,64d2fd46c836a06233681665,64dc7b5ca7456ad563feb196,,,,,,,decisionTrl,resources/DBN.BMP,resources/DR.BMP,Door4,-0.340277778,-0.0625,1,0,0,2.846,optionLeft,60,5705,3,20,0,20,0,1,,,,,,,,,,,,,,,,,,,,,,,,,,,,,,,,,,,,,,,
,,,,,,,,2023-08-16_08h32.12.760,HF_wild_card,2022.2.4,Win32,60.0240096,5eb162b0dc71ec243a783edc,64d2fd46c836a06233681665,64dc7b5ca7456ad563feb196,,,,,,,sngl,resources/DR.BMP,resources/Empty.png,Door3,-0.336805556,-0.045138889,1,0,0,5.896,optionLeft,70,5775,3,21,0,21,0,1,,,,,,,,,,,,,,,,,,,,,,,,,,,,,,,,,,,,,,,
,,,,,,,,2023-08-16_08h32.12.760,HF_wild_card,2022.2.4,Win32,60.0240096,5eb162b0dc71ec243a783edc,64d2fd46c836a06233681665,64dc7b5ca7456ad563feb196,,,,,,,sngl,resources/DBN.BMP,resources/Empty.png,Door4,-0.349537037,-0.053240741,1,0,0,2.213,optionLeft,80,5855,3,22,0,22,0,1,,,,,,,,,,,,,,,,,,,,,,,,,,,,,,,,,,,,,,,
,,,,,,,,2023-08-16_08h32.12.760,HF_wild_card,2022.2.4,Win32,60.0240096,5eb162b0dc71ec243a783edc,64d2fd46c836a06233681665,64dc7b5ca7456ad563feb196,,,,,,,sngl,resources/DY.BMP,resources/Empty.png,WildCard_NonEx,-0.364583333,-0.059027778,1,0,0,0.947,optionLeft,45,5900,3,23,0,23,0,1,,,,,,,,,,,,,,,,,,,,,,,,,,,,,,,,,,,,,,,
,,,,,,,,2023-08-16_08h32.12.760,HF_wild_card,2022.2.4,Win32,60.0240096,5eb162b0dc71ec243a783edc,64d2fd46c836a06233681665,64dc7b5ca7456ad563feb196,,,,,,,decisionTrl,resources/DY.BMP,resources/DR.BMP,Door3,0.329861111,-0.148148148,1,0,0,1.663,optionRight,70,5970,3,24,0,24,0,1,,,,,,,,,,,,,,,,,,,,,,,,,,,,,,,,,,,,,,,
,,,,,,,,2023-08-16_08h32.12.760,HF_wild_card,2022.2.4,Win32,60.0240096,5eb162b0dc71ec243a783edc,64d2fd46c836a06233681665,64dc7b5ca7456ad563feb196,,,,,,,decisionTrl,resources/DY.BMP,resources/DBN.BMP,Door4,0.340277778,-0.053240741,1,0,0,1.363,optionRight,80,6050,3,25,0,25,0,1,,,,,,,,,,,,,,,,,,,,,,,,,,,,,,,,,,,,,,,
,,,,,,,,2023-08-16_08h32.12.760,HF_wild_card,2022.2.4,Win32,60.0240096,5eb162b0dc71ec243a783edc,64d2fd46c836a06233681665,64dc7b5ca7456ad563feb196,,,,,,,decisionTrl,resources/DG.BMP,resources/DB.BMP,Door1,-0.315972222,-0.08912037,1,0,0,1.713,optionLeft,30,6080,3,26,0,26,0,1,,,,,,,,,,,,,,,,,,,,,,,,,,,,,,,,,,,,,,,
,,,,,,,,2023-08-16_08h32.12.760,HF_wild_card,2022.2.4,Win32,60.0240096,5eb162b0dc71ec243a783edc,64d2fd46c836a06233681665,64dc7b5ca7456ad563feb196,,,,,,,decisionTrl,resources/DY.BMP,resources/DG.BMP,WildCard_NonEx,-0.292824074,-0.115740741,1,0,0,1.58,optionLeft,45,6125,3,27,0,27,0,1,,,,,,,,,,,,,,,,,,,,,,,,,,,,,,,,,,,,,,,
,,,,,,,,2023-08-16_08h32.12.760,HF_wild_card,2022.2.4,Win32,60.0240096,5eb162b0dc71ec243a783edc,64d2fd46c836a06233681665,64dc7b5ca7456ad563feb196,,,,,,,decisionTrl,resources/DBN.BMP,resources/DY.BMP,Door4,-0.291666667,-0.063657407,1,0,0,0.997,optionLeft,60,6185,3,28,0,28,0,1,,,,,,,,,,,,,,,,,,,,,,,,,,,,,,,,,,,,,,,
,,,,,,,,2023-08-16_08h32.12.760,HF_wild_card,2022.2.4,Win32,60.0240096,5eb162b0dc71ec243a783edc,64d2fd46c836a06233681665,64dc7b5ca7456ad563feb196,,,,,,,ctch,resources/DR.BMP,resources/DB.BMP,Door3,-0.337962963,-0.083333333,1,0,0,1.081,optionLeft,70,6255,3,29,0,29,0,1,,,,,,,,,,,,,,,,,,,,,,,,,,,,,,,,,,,,,,,
,,,,,,,,2023-08-16_08h32.12.760,HF_wild_card,2022.2.4,Win32,60.0240096,5eb162b0dc71ec243a783edc,64d2fd46c836a06233681665,64dc7b5ca7456ad563feb196,,,,,,,decisionTrl,resources/DBN.BMP,resources/DR.BMP,Door4,-0.334490741,-0.063657407,1,0,0,1.098,optionLeft,60,6315,3,30,0,30,0,1,,,,,,,,,,,,,,,,,,,,,,,,,,,,,,,,,,,,,,,
,,,,,,,,2023-08-16_08h32.12.760,HF_wild_card,2022.2.4,Win32,60.0240096,5eb162b0dc71ec243a783edc,64d2fd46c836a06233681665,64dc7b5ca7456ad563feb196,,,,,,,sngl,resources/DY.BMP,resources/Empty.png,WildCard_NonEx,-0.313657407,-0.086805556,1,0,0,1.096,optionLeft,55,6370,3,31,0,31,0,1,,,,,,,,,,,,,,,,,,,,,,,,,,,,,,,,,,,,,,,
,,,,,,,,2023-08-16_08h32.12.760,HF_wild_card,2022.2.4,Win32,60.0240096,5eb162b0dc71ec243a783edc,64d2fd46c836a06233681665,64dc7b5ca7456ad563feb196,,,,,,,sngl,resources/Empty.png,resources/DY.BMP,WildCard_NonEx,0.351851852,-0.12037037,1,0,0,1.414,optionRight,45,6415,3,32,0,32,0,1,,,,,,,,,,,,,,,,,,,,,,,,,,,,,,,,,,,,,,,
,,,,,,,,2023-08-16_08h32.12.760,HF_wild_card,2022.2.4,Win32,60.0240096,5eb162b0dc71ec243a783edc,64d2fd46c836a06233681665,64dc7b5ca7456ad563feb196,,,,,,,sngl,resources/Empty.png,resources/DR.BMP,Door3,0.30787037,-0.084490741,1,0,0,1.099,optionRight,70,6485,3,33,0,33,0,1,,,,,,,,,,,,,,,,,,,,,,,,,,,,,,,,,,,,,,,
,,,,,,,,2023-08-16_08h32.12.760,HF_wild_card,2022.2.4,Win32,60.0240096,5eb162b0dc71ec243a783edc,64d2fd46c836a06233681665,64dc7b5ca7456ad563feb196,,,,,,,ctch,resources/DG.BMP,resources/DBN.BMP,Door4,0.376157407,-0.077546296,1,0,0,1.08,optionRight,80,6565,3,34,0,34,0,1,,,,,,,,,,,,,,,,,,,,,,,,,,,,,,,,,,,,,,,
,,,,,,,,2023-08-16_08h32.12.760,HF_wild_card,2022.2.4,Win32,60.0240096,5eb162b0dc71ec243a783edc,64d2fd46c836a06233681665,64dc7b5ca7456ad563feb196,,,,,,,sngl,resources/Empty.png,resources/DY.BMP,WildCard_NonEx,0.356481481,-0.108796296,1,0,0,1.26,optionRight,55,6620,3,35,0,35,0,1,,,,,,,,,,,,,,,,,,,,,,,,,,,,,,,,,,,,,,,
,,,,,,,,2023-08-16_08h32.12.760,HF_wild_card,2022.2.4,Win32,60.0240096,5eb162b0dc71ec243a783edc,64d2fd46c836a06233681665,64dc7b5ca7456ad563feb196,,,,,,,decisionTrl,resources/DG.BMP,resources/DB.BMP,Door1,-0.295138889,-0.050925926,1,0,0,2.063,optionLeft,30,6650,3,36,0,36,0,1,,,,,,,,,,,,,,,,,,,,,,,,,,,,,,,,,,,,,,,
,,,,,,,,2023-08-16_08h32.12.760,HF_wild_card,2022.2.4,Win32,60.0240096,5eb162b0dc71ec243a783edc,64d2fd46c836a06233681665,64dc7b5ca7456ad563feb196,,,,,,,ctch,resources/DB.BMP,resources/DR.BMP,Door3,0.331018519,-0.103009259,1,0,0,1.497,optionRight,70,6720,3,37,0,37,0,1,,,,,,,,,,,,,,,,,,,,,,,,,,,,,,,,,,,,,,,
,,,,,,,,2023-08-16_08h32.12.760,HF_wild_card,2022.2.4,Win32,60.0240096,5eb162b0dc71ec243a783edc,64d2fd46c836a06233681665,64dc7b5ca7456ad563feb196,,,,,,,ctch,resources/DBN.BMP,resources/DG.BMP,Door4,-0.3125,-0.078703704,1,0,0,1.097,optionLeft,80,6800,3,38,0,38,0,1,,,,,,,,,,,,,,,,,,,,,,,,,,,,,,,,,,,,,,,
,,,,,,,,2023-08-16_08h32.12.760,HF_wild_card,2022.2.4,Win32,60.0240096,5eb162b0dc71ec243a783edc,64d2fd46c836a06233681665,64dc7b5ca7456ad563feb196,,,,,,,decisionTrl,resources/DR.BMP,resources/DY.BMP,WildCard_NonEx,0.358796296,-0.09837963,1,0,0,1.779,optionRight,45,6845,3,39,0,39,0,1,,,,,,,,,,,,,,,,,,,,,,,,,,,,,,,,,,,,,,,
,,,,,,,,2023-08-16_08h32.12.760,HF_wild_card,2022.2.4,Win32,60.0240096,5eb162b0dc71ec243a783edc,64d2fd46c836a06233681665,64dc7b5ca7456ad563feb196,,,,,,,decisionTrl,resources/DR.BMP,resources/DBN.BMP,Door4,0.417824074,-0.09837963,1,0,0,0.998,optionRight,80,6925,3,40,0,40,0,1,,,,,,,,,,,,,,,,,,,,,,,,,,,,,,,,,,,,,,,
,,,,,,,,2023-08-16_08h32.12.760,HF_wild_card,2022.2.4,Win32,60.0240096,5eb162b0dc71ec243a783edc,64d2fd46c836a06233681665,64dc7b5ca7456ad563feb196,,,,,,,decisionTrl,resources/DR.BMP,resources/DBN.BMP,Door4,0.423611111,-0.0625,1,0,0,0.964,optionRight,80,7005,3,41,0,41,0,1,,,,,,,,,,,,,,,,,,,,,,,,,,,,,,,,,,,,,,,
,,,,,,,,2023-08-16_08h32.12.760,HF_wild_card,2022.2.4,Win32,60.0240096,5eb162b0dc71ec243a783edc,64d2fd46c836a06233681665,64dc7b5ca7456ad563feb196,,,,,,,decisionTrl,resources/DR.BMP,resources/DBN.BMP,Door4,0.400462963,-0.06712963,1,0,0,0.864,optionRight,80,7085,3,42,0,42,0,1,,,,,,,,,,,,,,,,,,,,,,,,,,,,,,,,,,,,,,,
,,,,,,,,2023-08-16_08h32.12.760,HF_wild_card,2022.2.4,Win32,60.0240096,5eb162b0dc71ec243a783edc,64d2fd46c836a06233681665,64dc7b5ca7456ad563feb196,,,,,,,decisionTrl,resources/DB.BMP,resources/DG.BMP,Door1,0.384259259,-0.085648148,1,0,0,1.364,optionRight,30,7115,3,43,0,43,0,1,,,,,,,,,,,,,,,,,,,,,,,,,,,,,,,,,,,,,,,
,,,,,,,,2023-08-16_08h32.12.760,HF_wild_card,2022.2.4,Win32,60.0240096,5eb162b0dc71ec243a783edc,64d2fd46c836a06233681665,64dc7b5ca7456ad563feb196,,,,,,,,,,,,,,,,,,,,,,,,,,2,0,2,0,1,,,,,,,,,,,,,,,,,,,,,,,,,,,,,,,,,,
,,,,,,,,2023-08-16_08h32.12.760,HF_wild_card,2022.2.4,Win32,60.0240096,5eb162b0dc71ec243a783edc,64d2fd46c836a06233681665,64dc7b5ca7456ad563feb196,,,,,,,decisionTrl,resources/DP.BMP,resources/DG.BMP,WildCard_Ex,-0.390046296,-0.141203704,1,0,0,1.294,optionLeft,45,7160,4,0,0,0,0,1,,,,,,,,,,,,,,,,,,,,,,,,,,,,,,,,,,,,,,,
,,,,,,,,2023-08-16_08h32.12.760,HF_wild_card,2022.2.4,Win32,60.0240096,5eb162b0dc71ec243a783edc,64d2fd46c836a06233681665,64dc7b5ca7456ad563feb196,,,,,,,ctch,resources/DBN.BMP,resources/DG.BMP,Door4,-0.386574074,-0.068287037,1,0,0,0.897,optionLeft,80,7240,4,1,0,1,0,1,,,,,,,,,,,,,,,,,,,,,,,,,,,,,,,,,,,,,,,
,,,,,,,,2023-08-16_08h32.12.760,HF_wild_card,2022.2.4,Win32,60.0240096,5eb162b0dc71ec243a783edc,64d2fd46c836a06233681665,64dc7b5ca7456ad563feb196,,,,,,,sngl,resources/DR.BMP,resources/Empty.png,Door3,-0.310185185,-0.064814815,1,0,0,0.945,optionLeft,70,7310,4,2,0,2,0,1,,,,,,,,,,,,,,,,,,,,,,,,,,,,,,,,,,,,,,,
,,,,,,,,2023-08-16_08h32.12.760,HF_wild_card,2022.2.4,Win32,60.0240096,5eb162b0dc71ec243a783edc,64d2fd46c836a06233681665,64dc7b5ca7456ad563feb196,,,,,,,decisionTrl,resources/DR.BMP,resources/DBN.BMP,Door4,0.331018519,-0.039351852,1,0,0,0.913,optionRight,80,7390,4,3,0,3,0,1,,,,,,,,,,,,,,,,,,,,,,,,,,,,,,,,,,,,,,,
,,,,,,,,2023-08-16_08h32.12.760,HF_wild_card,2022.2.4,Win32,60.0240096,5eb162b0dc71ec243a783edc,64d2fd46c836a06233681665,64dc7b5ca7456ad563feb196,,,,,,,ctch,resources/DR.BMP,resources/DB.BMP,Door3,-0.321759259,-0.099537037,1,0,0,1.614,optionLeft,70,7460,4,4,0,4,0,1,,,,,,,,,,,,,,,,,,,,,,,,,,,,,,,,,,,,,,,
,,,,,,,,2023-08-16_08h32.12.760,HF_wild_card,2022.2.4,Win32,60.0240096,5eb162b0dc71ec243a783edc,64d2fd46c836a06233681665,64dc7b5ca7456ad563feb196,,,,,,,sngl,resources/Empty.png,resources/DP.BMP,WildCard_Ex,0.362268519,-0.046296296,1,0,0,0.948,optionRight,55,7515,4,5,0,5,0,1,,,,,,,,,,,,,,,,,,,,,,,,,,,,,,,,,,,,,,,
,,,,,,,,2023-08-16_08h32.12.760,HF_wild_card,2022.2.4,Win32,60.0240096,5eb162b0dc71ec243a783edc,64d2fd46c836a06233681665,64dc7b5ca7456ad563feb196,,,,,,,sngl,resources/Empty.png,resources/DR.BMP,Door3,0.315972222,-0.0625,1,0,0,0.864,optionRight,70,7585,4,6,0,6,0,1,,,,,,,,,,,,,,,,,,,,,,,,,,,,,,,,,,,,,,,
,,,,,,,,2023-08-16_08h32.12.760,HF_wild_card,2022.2.4,Win32,60.0240096,5eb162b0dc71ec243a783edc,64d2fd46c836a06233681665,64dc7b5ca7456ad563feb196,,,,,,,decisionTrl,resources/DB.BMP,resources/DG.BMP,Door1,0.337962963,-0.068287037,1,0,0,1.231,optionRight,30,7615,4,7,0,7,0,1,,,,,,,,,,,,,,,,,,,,,,,,,,,,,,,,,,,,,,,
,,,,,,,,2023-08-16_08h32.12.760,HF_wild_card,2022.2.4,Win32,60.0240096,5eb162b0dc71ec243a783edc,64d2fd46c836a06233681665,64dc7b5ca7456ad563feb196,,,,,,,decisionTrl,resources/DR.BMP,resources/DBN.BMP,Door4,0.30787037,-0.039351852,1,0,0,0.996,optionRight,60,7675,4,8,0,8,0,1,,,,,,,,,,,,,,,,,,,,,,,,,,,,,,,,,,,,,,,
,,,,,,,,2023-08-16_08h32.12.760,HF_wild_card,2022.2.4,Win32,60.0240096,5eb162b0dc71ec243a783edc,64d2fd46c836a06233681665,64dc7b5ca7456ad563feb196,,,,,,,decisionTrl,resources/DR.BMP,resources/DBN.BMP,Door4,0.377314815,-0.061342593,1,0,0,0.914,optionRight,80,7755,4,9,0,9,0,1,,,,,,,,,,,,,,,,,,,,,,,,,,,,,,,,,,,,,,,
,,,,,,,,2023-08-16_08h32.12.760,HF_wild_card,2022.2.4,Win32,60.0240096,5eb162b0dc71ec243a783edc,64d2fd46c836a06233681665,64dc7b5ca7456ad563feb196,,,,,,,sngl,resources/Empty.png,resources/DG.BMP,Door1,0.368055556,-0.006944444,1,0,0,0.997,optionRight,30,7785,4,10,0,10,0,1,,,,,,,,,,,,,,,,,,,,,,,,,,,,,,,,,,,,,,,
,,,,,,,,2023-08-16_08h32.12.760,HF_wild_card,2022.2.4,Win32,60.0240096,5eb162b0dc71ec243a783edc,64d2fd46c836a06233681665,64dc7b5ca7456ad563feb196,,,,,,,decisionTrl,resources/DBN.BMP,resources/DR.BMP,Door4,-0.326388889,-0.042824074,1,0,0,1.714,optionLeft,60,7845,4,11,0,11,0,1,,,,,,,,,,,,,,,,,,,,,,,,,,,,,,,,,,,,,,,
,,,,,,,,2023-08-16_08h32.12.760,HF_wild_card,2022.2.4,Win32,60.0240096,5eb162b0dc71ec243a783edc,64d2fd46c836a06233681665,64dc7b5ca7456ad563feb196,,,,,,,decisionTrl,resources/DG.BMP,resources/DB.BMP,Door1,-0.27662037,-0.059027778,1,0,0,1.23,optionLeft,30,7875,4,12,0,12,0,1,,,,,,,,,,,,,,,,,,,,,,,,,,,,,,,,,,,,,,,
,,,,,,,,2023-08-16_08h32.12.760,HF_wild_card,2022.2.4,Win32,60.0240096,5eb162b0dc71ec243a783edc,64d2fd46c836a06233681665,64dc7b5ca7456ad563feb196,,,,,,,decisionTrl,resources/DB.BMP,resources/DG.BMP,Door1,0.371527778,-0.046296296,1,0,0,1.063,optionRight,30,7905,4,13,0,13,0,1,,,,,,,,,,,,,,,,,,,,,,,,,,,,,,,,,,,,,,,
,,,,,,,,2023-08-16_08h32.12.760,HF_wild_card,2022.2.4,Win32,60.0240096,5eb162b0dc71ec243a783edc,64d2fd46c836a06233681665,64dc7b5ca7456ad563feb196,,,,,,,decisionTrl,resources/DG.BMP,resources/DB.BMP,Door1,-0.302083333,-0.068287037,1,0,0,1.28,optionLeft,30,7935,4,14,0,14,0,1,,,,,,,,,,,,,,,,,,,,,,,,,,,,,,,,,,,,,,,
,,,,,,,,2023-08-16_08h32.12.760,HF_wild_card,2022.2.4,Win32,60.0240096,5eb162b0dc71ec243a783edc,64d2fd46c836a06233681665,64dc7b5ca7456ad563feb196,,,,,,,decisionTrl,resources/DB.BMP,resources/DG.BMP,Door1,0.349537037,-0.041666667,1,0,0,1.279,optionRight,30,7965,4,15,0,15,0,1,,,,,,,,,,,,,,,,,,,,,,,,,,,,,,,,,,,,,,,
,,,,,,,,2023-08-16_08h32.12.760,HF_wild_card,2022.2.4,Win32,60.0240096,5eb162b0dc71ec243a783edc,64d2fd46c836a06233681665,64dc7b5ca7456ad563feb196,,,,,,,ctch,resources/DBN.BMP,resources/DG.BMP,Door4,-0.359953704,-0.061342593,1,0,0,1.115,optionLeft,80,8045,4,16,0,16,0,1,,,,,,,,,,,,,,,,,,,,,,,,,,,,,,,,,,,,,,,
,,,,,,,,2023-08-16_08h32.12.760,HF_wild_card,2022.2.4,Win32,60.0240096,5eb162b0dc71ec243a783edc,64d2fd46c836a06233681665,64dc7b5ca7456ad563feb196,,,,,,,decisionTrl,resources/DB.BMP,resources/DP.BMP,WildCard_Ex,0.358796296,-0.046296296,1,0,0,1.064,optionRight,45,8090,4,17,0,17,0,1,,,,,,,,,,,,,,,,,,,,,,,,,,,,,,,,,,,,,,,
,,,,,,,,2023-08-16_08h32.12.760,HF_wild_card,2022.2.4,Win32,60.0240096,5eb162b0dc71ec243a783edc,64d2fd46c836a06233681665,64dc7b5ca7456ad563feb196,,,,,,,decisionTrl,resources/DP.BMP,resources/DB.BMP,WildCard_Ex,-0.336805556,-0.087962963,1,0,0,1.214,optionLeft,55,8145,4,18,0,18,0,1,,,,,,,,,,,,,,,,,,,,,,,,,,,,,,,,,,,,,,,
,,,,,,,,2023-08-16_08h32.12.760,HF_wild_card,2022.2.4,Win32,60.0240096,5eb162b0dc71ec243a783edc,64d2fd46c836a06233681665,64dc7b5ca7456ad563feb196,,,,,,,ctch,resources/DR.BMP,resources/DB.BMP,Door3,-0.336805556,-0.086805556,1,0,0,1.547,optionLeft,70,8215,4,19,0,19,0,1,,,,,,,,,,,,,,,,,,,,,,,,,,,,,,,,,,,,,,,
,,,,,,,,2023-08-16_08h32.12.760,HF_wild_card,2022.2.4,Win32,60.0240096,5eb162b0dc71ec243a783edc,64d2fd46c836a06233681665,64dc7b5ca7456ad563feb196,,,,,,,decisionTrl,resources/DB.BMP,resources/DG.BMP,Door1,0.347222222,-0.091435185,1,0,0,2.081,optionRight,30,8245,4,20,0,20,0,1,,,,,,,,,,,,,,,,,,,,,,,,,,,,,,,,,,,,,,,
,,,,,,,,2023-08-16_08h32.12.760,HF_wild_card,2022.2.4,Win32,60.0240096,5eb162b0dc71ec243a783edc,64d2fd46c836a06233681665,64dc7b5ca7456ad563feb196,,,,,,,sngl,resources/Empty.png,resources/DBN.BMP,Door4,0.349537037,-0.037037037,1,0,0,0.997,optionRight,80,8325,4,21,0,21,0,1,,,,,,,,,,,,,,,,,,,,,,,,,,,,,,,,,,,,,,,
,,,,,,,,2023-08-16_08h32.12.760,HF_wild_card,2022.2.4,Win32,60.0240096,5eb162b0dc71ec243a783edc,64d2fd46c836a06233681665,64dc7b5ca7456ad563feb196,,,,,,,decisionTrl,resources/DG.BMP,resources/DB.BMP,Door1,-0.337962963,-0.071759259,1,0,0,1.146,optionLeft,30,8355,4,22,0,22,0,1,,,,,,,,,,,,,,,,,,,,,,,,,,,,,,,,,,,,,,,
,,,,,,,,2023-08-16_08h32.12.760,HF_wild_card,2022.2.4,Win32,60.0240096,5eb162b0dc71ec243a783edc,64d2fd46c836a06233681665,64dc7b5ca7456ad563feb196,,,,,,,decisionTrl,resources/DBN.BMP,resources/DR.BMP,Door4,-0.358796296,-0.099537037,1,0,0,1.098,optionLeft,80,8435,4,23,0,23,0,1,,,,,,,,,,,,,,,,,,,,,,,,,,,,,,,,,,,,,,,
,,,,,,,,2023-08-16_08h32.12.760,HF_wild_card,2022.2.4,Win32,60.0240096,5eb162b0dc71ec243a783edc,64d2fd46c836a06233681665,64dc7b5ca7456ad563feb196,,,,,,,decisionTrl,resources/DBN.BMP,resources/DP.BMP,Door4,-0.395833333,-0.083333333,1,0,0,1.197,optionLeft,80,8515,4,24,0,24,0,1,,,,,,,,,,,,,,,,,,,,,,,,,,,,,,,,,,,,,,,
,,,,,,,,2023-08-16_08h32.12.760,HF_wild_card,2022.2.4,Win32,60.0240096,5eb162b0dc71ec243a783edc,64d2fd46c836a06233681665,64dc7b5ca7456ad563feb196,,,,,,,decisionTrl,resources/DR.BMP,resources/DBN.BMP,Door4,0.416666667,-0.076388889,1,0,0,1.112,optionRight,60,8575,4,25,0,25,0,1,,,,,,,,,,,,,,,,,,,,,,,,,,,,,,,,,,,,,,,
,,,,,,,,2023-08-16_08h32.12.760,HF_wild_card,2022.2.4,Win32,60.0240096,5eb162b0dc71ec243a783edc,64d2fd46c836a06233681665,64dc7b5ca7456ad563feb196,,,,,,,decisionTrl,resources/DBN.BMP,resources/DR.BMP,Door4,-0.349537037,-0.08912037,1,0,0,1.047,optionLeft,60,8635,4,26,0,26,0,1,,,,,,,,,,,,,,,,,,,,,,,,,,,,,,,,,,,,,,,
,,,,,,,,2023-08-16_08h32.12.760,HF_wild_card,2022.2.4,Win32,60.0240096,5eb162b0dc71ec243a783edc,64d2fd46c836a06233681665,64dc7b5ca7456ad563feb196,,,,,,,sngl,resources/DP.BMP,resources/Empty.png,WildCard_Ex,-0.342592593,-0.075231481,1,0,0,0.979,optionLeft,45,8680,4,27,0,27,0,1,,,,,,,,,,,,,,,,,,,,,,,,,,,,,,,,,,,,,,,
,,,,,,,,2023-08-16_08h32.12.760,HF_wild_card,2022.2.4,Win32,60.0240096,5eb162b0dc71ec243a783edc,64d2fd46c836a06233681665,64dc7b5ca7456ad563feb196,,,,,,,sngl,resources/DP.BMP,resources/Empty.png,WildCard_Ex,-0.361111111,-0.071759259,1,0,0,0.964,optionLeft,55,8735,4,28,0,28,0,1,,,,,,,,,,,,,,,,,,,,,,,,,,,,,,,,,,,,,,,
,,,,,,,,2023-08-16_08h32.12.760,HF_wild_card,2022.2.4,Win32,60.0240096,5eb162b0dc71ec243a783edc,64d2fd46c836a06233681665,64dc7b5ca7456ad563feb196,,,,,,,decisionTrl,resources/DBN.BMP,resources/DR.BMP,Door4,-0.365740741,-0.085648148,1,0,0,1.096,optionLeft,60,8795,4,29,0,29,0,1,,,,,,,,,,,,,,,,,,,,,,,,,,,,,,,,,,,,,,,
,,,,,,,,2023-08-16_08h32.12.760,HF_wild_card,2022.2.4,Win32,60.0240096,5eb162b0dc71ec243a783edc,64d2fd46c836a06233681665,64dc7b5ca7456ad563feb196,,,,,,,sngl,resources/Empty.png,resources/DP.BMP,WildCard_Ex,0.359953704,-0.085648148,1,0,0,1.03,optionRight,45,8840,4,30,0,30,0,1,,,,,,,,,,,,,,,,,,,,,,,,,,,,,,,,,,,,,,,
,,,,,,,,2023-08-16_08h32.12.760,HF_wild_card,2022.2.4,Win32,60.0240096,5eb162b0dc71ec243a783edc,64d2fd46c836a06233681665,64dc7b5ca7456ad563feb196,,,,,,,sngl,resources/DG.BMP,resources/Empty.png,Door1,-0.313657407,-0.064814815,1,0,0,0.979,optionLeft,30,8870,4,31,0,31,0,1,,,,,,,,,,,,,,,,,,,,,,,,,,,,,,,,,,,,,,,
,,,,,,,,2023-08-16_08h32.12.760,HF_wild_card,2022.2.4,Win32,60.0240096,5eb162b0dc71ec243a783edc,64d2fd46c836a06233681665,64dc7b5ca7456ad563feb196,,,,,,,sngl,resources/Empty.png,resources/DB.BMP,Door2,0.335648148,-0.042824074,1,0,0,0.797,optionRight,40,8910,4,32,0,32,0,1,,,,,,,,,,,,,,,,,,,,,,,,,,,,,,,,,,,,,,,
,,,,,,,,2023-08-16_08h32.12.760,HF_wild_card,2022.2.4,Win32,60.0240096,5eb162b0dc71ec243a783edc,64d2fd46c836a06233681665,64dc7b5ca7456ad563feb196,,,,,,,ctch,resources/DG.BMP,resources/DBN.BMP,Door4,0.356481481,-0.042824074,1,0,0,0.865,optionRight,80,8990,4,33,0,33,0,1,,,,,,,,,,,,,,,,,,,,,,,,,,,,,,,,,,,,,,,
,,,,,,,,2023-08-16_08h32.12.760,HF_wild_card,2022.2.4,Win32,60.0240096,5eb162b0dc71ec243a783edc,64d2fd46c836a06233681665,64dc7b5ca7456ad563feb196,,,,,,,sngl,resources/DBN.BMP,resources/Empty.png,Door4,-0.274305556,-0.083333333,1,0,0,0.914,optionLeft,60,9050,4,34,0,34,0,1,,,,,,,,,,,,,,,,,,,,,,,,,,,,,,,,,,,,,,,
,,,,,,,,2023-08-16_08h32.12.760,HF_wild_card,2022.2.4,Win32,60.0240096,5eb162b0dc71ec243a783edc,64d2fd46c836a06233681665,64dc7b5ca7456ad563feb196,,,,,,,ctch,resources/DB.BMP,resources/DR.BMP,Door3,0.340277778,-0.112268519,1,0,0,1.58,optionRight,70,9120,4,35,0,35,0,1,,,,,,,,,,,,,,,,,,,,,,,,,,,,,,,,,,,,,,,
,,,,,,,,2023-08-16_08h32.12.760,HF_wild_card,2022.2.4,Win32,60.0240096,5eb162b0dc71ec243a783edc,64d2fd46c836a06233681665,64dc7b5ca7456ad563feb196,,,,,,,decisionTrl,resources/DG.BMP,resources/DB.BMP,Door1,-0.358796296,-0.131944444,1,0,0,2.281,optionLeft,30,9150,4,36,0,36,0,1,,,,,,,,,,,,,,,,,,,,,,,,,,,,,,,,,,,,,,,
,,,,,,,,2023-08-16_08h32.12.760,HF_wild_card,2022.2.4,Win32,60.0240096,5eb162b0dc71ec243a783edc,64d2fd46c836a06233681665,64dc7b5ca7456ad563feb196,,,,,,,ctch,resources/DB.BMP,resources/DR.BMP,Door3,0.385416667,-0.106481481,1,0,0,1.846,optionRight,70,9220,4,37,0,37,0,1,,,,,,,,,,,,,,,,,,,,,,,,,,,,,,,,,,,,,,,
,,,,,,,,2023-08-16_08h32.12.760,HF_wild_card,2022.2.4,Win32,60.0240096,5eb162b0dc71ec243a783edc,64d2fd46c836a06233681665,64dc7b5ca7456ad563feb196,,,,,,,decisionTrl,resources/DR.BMP,resources/DP.BMP,WildCard_Ex,0.421296296,-0.059027778,1,0,0,1.246,optionRight,45,9265,4,38,0,38,0,1,,,,,,,,,,,,,,,,,,,,,,,,,,,,,,,,,,,,,,,
,,,,,,,,2023-08-16_08h32.12.760,HF_wild_card,2022.2.4,Win32,60.0240096,5eb162b0dc71ec243a783edc,64d2fd46c836a06233681665,64dc7b5ca7456ad563feb196,,,,,,,decisionTrl,resources/DP.BMP,resources/DR.BMP,WildCard_Ex,-0.377314815,-0.111111111,1,0,0,1.047,optionLeft,45,9310,4,39,0,39,0,1,,,,,,,,,,,,,,,,,,,,,,,,,,,,,,,,,,,,,,,
,,,,,,,,2023-08-16_08h32.12.760,HF_wild_card,2022.2.4,Win32,60.0240096,5eb162b0dc71ec243a783edc,64d2fd46c836a06233681665,64dc7b5ca7456ad563feb196,,,,,,,sngl,resources/DB.BMP,resources/Empty.png,Door2,-0.31712963,-0.072916667,1,0,0,1.014,optionLeft,20,9330,4,40,0,40,0,1,,,,,,,,,,,,,,,,,,,,,,,,,,,,,,,,,,,,,,,
,,,,,,,,2023-08-16_08h32.12.760,HF_wild_card,2022.2.4,Win32,60.0240096,5eb162b0dc71ec243a783edc,64d2fd46c836a06233681665,64dc7b5ca7456ad563feb196,,,,,,,decisionTrl,resources/DP.BMP,resources/DBN.BMP,Door4,0.369212963,-0.06712963,1,0,0,0.814,optionRight,80,9410,4,41,0,41,0,1,,,,,,,,,,,,,,,,,,,,,,,,,,,,,,,,,,,,,,,
,,,,,,,,2023-08-16_08h32.12.760,HF_wild_card,2022.2.4,Win32,60.0240096,5eb162b0dc71ec243a783edc,64d2fd46c836a06233681665,64dc7b5ca7456ad563feb196,,,,,,,ctch,resources/DG.BMP,resources/DBN.BMP,Door4,0.369212963,0.03125,1,0,0,4.529,optionRight,80,9490,4,42,0,42,0,1,,,,,,,,,,,,,,,,,,,,,,,,,,,,,,,,,,,,,,,
,,,,,,,,2023-08-16_08h32.12.760,HF_wild_card,2022.2.4,Win32,60.0240096,5eb162b0dc71ec243a783edc,64d2fd46c836a06233681665,64dc7b5ca7456ad563feb196,,,,,,,decisionTrl,resources/DG.BMP,resources/DP.BMP,WildCard_Ex,0.384259259,-0.076388889,1,0,0,2.579,optionRight,55,9545,4,43,0,43,0,1,,,,,,,,,,,,,,,,,,,,,,,,,,,,,,,,,,,,,,,
,,,,,,,,2023-08-16_08h32.12.760,HF_wild_card,2022.2.4,Win32,60.0240096,5eb162b0dc71ec243a783edc,64d2fd46c836a06233681665,64dc7b5ca7456ad563feb196,,,,,,,,,,,,,,,,,,,,,,,,,,3,0,3,0,1,,,,,,,,,,,,,,,,,,,,,,,,,,,,,,,,,,
,,,,,,,,2023-08-16_08h32.12.760,HF_wild_card,2022.2.4,Win32,60.0240096,5eb162b0dc71ec243a783edc,64d2fd46c836a06233681665,64dc7b5ca7456ad563feb196,,,,,,,sngl,resources/Empty.png,resources/DG.BMP,Door1,0.371527778,-0.053240741,1,0,0,1.542,optionRight,30,9575,5,0,0,0,0,1,,,,,,,,,,,,,,,,,,,,,,,,,,,,,,,,,,,,,,,
,,,,,,,,2023-08-16_08h32.12.760,HF_wild_card,2022.2.4,Win32,60.0240096,5eb162b0dc71ec243a783edc,64d2fd46c836a06233681665,64dc7b5ca7456ad563feb196,,,,,,,decisionTrl,resources/DG.BMP,resources/DB.BMP,Door1,-0.372685185,-0.09837963,1,0,0,1.562,optionLeft,30,9605,5,1,0,1,0,1,,,,,,,,,,,,,,,,,,,,,,,,,,,,,,,,,,,,,,,
,,,,,,,,2023-08-16_08h32.12.760,HF_wild_card,2022.2.4,Win32,60.0240096,5eb162b0dc71ec243a783edc,64d2fd46c836a06233681665,64dc7b5ca7456ad563feb196,,,,,,,decisionTrl,resources/DG.BMP,resources/DB.BMP,Door1,-0.287037037,-0.052083333,1,0,0,0.864,optionLeft,30,9635,5,2,0,2,0,1,,,,,,,,,,,,,,,,,,,,,,,,,,,,,,,,,,,,,,,
,,,,,,,,2023-08-16_08h32.12.760,HF_wild_card,2022.2.4,Win32,60.0240096,5eb162b0dc71ec243a783edc,64d2fd46c836a06233681665,64dc7b5ca7456ad563feb196,,,,,,,sngl,resources/DB.BMP,resources/Empty.png,Door2,-0.3125,-0.025462963,1,0,0,0.912,optionLeft,40,9675,5,3,0,3,0,1,,,,,,,,,,,,,,,,,,,,,,,,,,,,,,,,,,,,,,,
,,,,,,,,2023-08-16_08h32.12.760,HF_wild_card,2022.2.4,Win32,60.0240096,5eb162b0dc71ec243a783edc,64d2fd46c836a06233681665,64dc7b5ca7456ad563feb196,,,,,,,sngl,resources/DBN.BMP,resources/Empty.png,Door4,-0.340277778,-0.053240741,1,0,0,1.314,optionLeft,80,9755,5,4,0,4,0,1,,,,,,,,,,,,,,,,,,,,,,,,,,,,,,,,,,,,,,,
,,,,,,,,2023-08-16_08h32.12.760,HF_wild_card,2022.2.4,Win32,60.0240096,5eb162b0dc71ec243a783edc,64d2fd46c836a06233681665,64dc7b5ca7456ad563feb196,,,,,,,decisionTrl,resources/DP.BMP,resources/DBN.BMP,Door4,0.303240741,-0.072916667,1,0,0,1.38,optionRight,60,9815,5,5,0,5,0,1,,,,,,,,,,,,,,,,,,,,,,,,,,,,,,,,,,,,,,,
,,,,,,,,2023-08-16_08h32.12.760,HF_wild_card,2022.2.4,Win32,60.0240096,5eb162b0dc71ec243a783edc,64d2fd46c836a06233681665,64dc7b5ca7456ad563feb196,,,,,,,decisionTrl,resources/DR.BMP,resources/DBN.BMP,Door4,0.364583333,-0.079861111,1,0,0,1.164,optionRight,60,9875,5,6,0,6,0,1,,,,,,,,,,,,,,,,,,,,,,,,,,,,,,,,,,,,,,,
,,,,,,,,2023-08-16_08h32.12.760,HF_wild_card,2022.2.4,Win32,60.0240096,5eb162b0dc71ec243a783edc,64d2fd46c836a06233681665,64dc7b5ca7456ad563feb196,,,,,,,decisionTrl,resources/DP.BMP,resources/DB.BMP,WildCard_Ex,-0.372685185,-0.081018519,1,0,0,1.014,optionLeft,45,9920,5,7,0,7,0,1,,,,,,,,,,,,,,,,,,,,,,,,,,,,,,,,,,,,,,,
,,,,,,,,2023-08-16_08h32.12.760,HF_wild_card,2022.2.4,Win32,60.0240096,5eb162b0dc71ec243a783edc,64d2fd46c836a06233681665,64dc7b5ca7456ad563feb196,,,,,,,ctch,resources/DBN.BMP,resources/DG.BMP,Door4,-0.327546296,-0.064814815,1,0,0,1.098,optionLeft,60,9980,5,8,0,8,0,1,,,,,,,,,,,,,,,,,,,,,,,,,,,,,,,,,,,,,,,
,,,,,,,,2023-08-16_08h32.12.760,HF_wild_card,2022.2.4,Win32,60.0240096,5eb162b0dc71ec243a783edc,64d2fd46c836a06233681665,64dc7b5ca7456ad563feb196,,,,,,,ctch,resources/DB.BMP,resources/DR.BMP,Door3,0.355324074,-0.128472222,1,0,0,1.515,optionRight,70,10050,5,9,0,9,0,1,,,,,,,,,,,,,,,,,,,,,,,,,,,,,,,,,,,,,,,
,,,,,,,,2023-08-16_08h32.12.760,HF_wild_card,2022.2.4,Win32,60.0240096,5eb162b0dc71ec243a783edc,64d2fd46c836a06233681665,64dc7b5ca7456ad563feb196,,,,,,,decisionTrl,resources/DP.BMP,resources/DG.BMP,WildCard_Ex,-0.378472222,-0.071759259,1,0,0,1.946,optionLeft,45,10095,5,10,0,10,0,1,,,,,,,,,,,,,,,,,,,,,,,,,,,,,,,,,,,,,,,
,,,,,,,,2023-08-16_08h32.12.760,HF_wild_card,2022.2.4,Win32,60.0240096,5eb162b0dc71ec243a783edc,64d2fd46c836a06233681665,64dc7b5ca7456ad563feb196,,,,,,,sngl,resources/Empty.png,resources/DB.BMP,Door2,0.331018519,-0.05787037,1,0,0,1.547,optionRight,20,10115,5,11,0,11,0,1,,,,,,,,,,,,,,,,,,,,,,,,,,,,,,,,,,,,,,,
,,,,,,,,2023-08-16_08h32.12.760,HF_wild_card,2022.2.4,Win32,60.0240096,5eb162b0dc71ec243a783edc,64d2fd46c836a06233681665,64dc7b5ca7456ad563feb196,,,,,,,sngl,resources/DP.BMP,resources/Empty.png,WildCard_Ex,-0.344907407,-0.064814815,1,0,0,0.915,optionLeft,45,10160,5,12,0,12,0,1,,,,,,,,,,,,,,,,,,,,,,,,,,,,,,,,,,,,,,,
,,,,,,,,2023-08-16_08h32.12.760,HF_wild_card,2022.2.4,Win32,60.0240096,5eb162b0dc71ec243a783edc,64d2fd46c836a06233681665,64dc7b5ca7456ad563feb196,,,,,,,decisionTrl,resources/DG.BMP,resources/DB.BMP,Door1,-0.363425926,-0.091435185,1,0,0,1.594,optionLeft,30,10190,5,13,0,13,0,1,,,,,,,,,,,,,,,,,,,,,,,,,,,,,,,,,,,,,,,
,,,,,,,,2023-08-16_08h32.12.760,HF_wild_card,2022.2.4,Win32,60.0240096,5eb162b0dc71ec243a783edc,64d2fd46c836a06233681665,64dc7b5ca7456ad563feb196,,,,,,,sngl,resources/Empty.png,resources/DBN.BMP,Door4,0.391203704,-0.090277778,1,0,0,1.43,optionRight,60,10250,5,14,0,14,0,1,,,,,,,,,,,,,,,,,,,,,,,,,,,,,,,,,,,,,,,
,,,,,,,,2023-08-16_08h32.12.760,HF_wild_card,2022.2.4,Win32,60.0240096,5eb162b0dc71ec243a783edc,64d2fd46c836a06233681665,64dc7b5ca7456ad563feb196,,,,,,,decisionTrl,resources/DBN.BMP,resources/DP.BMP,Door4,-0.342592593,-0.112268519,1,0,0,1.113,optionLeft,80,10330,5,15,0,15,0,1,,,,,,,,,,,,,,,,,,,,,,,,,,,,,,,,,,,,,,,
,,,,,,,,2023-08-16_08h32.12.760,HF_wild_card,2022.2.4,Win32,60.0240096,5eb162b0dc71ec243a783edc,64d2fd46c836a06233681665,64dc7b5ca7456ad563feb196,,,,,,,decisionTrl,resources/DR.BMP,resources/DBN.BMP,Door4,0.373842593,-0.130787037,1,0,0,1.68,optionRight,60,10390,5,16,0,16,0,1,,,,,,,,,,,,,,,,,,,,,,,,,,,,,,,,,,,,,,,
,,,,,,,,2023-08-16_08h32.12.760,HF_wild_card,2022.2.4,Win32,60.0240096,5eb162b0dc71ec243a783edc,64d2fd46c836a06233681665,64dc7b5ca7456ad563feb196,,,,,,,decisionTrl,resources/DB.BMP,resources/DG.BMP,Door1,0.363425926,-0.127314815,1,0,0,1.464,optionRight,30,10420,5,17,0,17,0,1,,,,,,,,,,,,,,,,,,,,,,,,,,,,,,,,,,,,,,,
,,,,,,,,2023-08-16_08h32.12.760,HF_wild_card,2022.2.4,Win32,60.0240096,5eb162b0dc71ec243a783edc,64d2fd46c836a06233681665,64dc7b5ca7456ad563feb196,,,,,,,ctch,resources/DR.BMP,resources/DB.BMP,Door3,-0.37962963,-0.085648148,1,0,0,1.199,optionLeft,70,10490,5,18,0,18,0,1,,,,,,,,,,,,,,,,,,,,,,,,,,,,,,,,,,,,,,,
,,,,,,,,2023-08-16_08h32.12.760,HF_wild_card,2022.2.4,Win32,60.0240096,5eb162b0dc71ec243a783edc,64d2fd46c836a06233681665,64dc7b5ca7456ad563feb196,,,,,,,decisionTrl,resources/DR.BMP,resources/DBN.BMP,Door4,0.450231481,-0.077546296,1,0,0,0.931,optionRight,60,10550,5,19,0,19,0,1,,,,,,,,,,,,,,,,,,,,,,,,,,,,,,,,,,,,,,,
,,,,,,,,2023-08-16_08h32.12.760,HF_wild_card,2022.2.4,Win32,60.0240096,5eb162b0dc71ec243a783edc,64d2fd46c836a06233681665,64dc7b5ca7456ad563feb196,,,,,,,sngl,resources/DG.BMP,resources/Empty.png,Door1,-0.331018519,-0.047453704,1,0,0,0.863,optionLeft,30,10580,5,20,0,20,0,1,,,,,,,,,,,,,,,,,,,,,,,,,,,,,,,,,,,,,,,
,,,,,,,,2023-08-16_08h32.12.760,HF_wild_card,2022.2.4,Win32,60.0240096,5eb162b0dc71ec243a783edc,64d2fd46c836a06233681665,64dc7b5ca7456ad563feb196,,,,,,,decisionTrl,resources/DB.BMP,resources/DG.BMP,Door2,-0.340277778,-0.131944444,1,0,0,1.497,optionLeft,40,10620,5,21,0,21,0,1,,,,,,,,,,,,,,,,,,,,,,,,,,,,,,,,,,,,,,,
,,,,,,,,2023-08-16_08h32.12.760,HF_wild_card,2022.2.4,Win32,60.0240096,5eb162b0dc71ec243a783edc,64d2fd46c836a06233681665,64dc7b5ca7456ad563feb196,,,,,,,decisionTrl,resources/DR.BMP,resources/DP.BMP,Door3,-0.349537037,-0.085648148,1,0,0,1.03,optionLeft,70,10690,5,22,0,22,0,1,,,,,,,,,,,,,,,,,,,,,,,,,,,,,,,,,,,,,,,
,,,,,,,,2023-08-16_08h32.12.760,HF_wild_card,2022.2.4,Win32,60.0240096,5eb162b0dc71ec243a783edc,64d2fd46c836a06233681665,64dc7b5ca7456ad563feb196,,,,,,,ctch,resources/DB.BMP,resources/DR.BMP,Door3,0.412037037,-0.08912037,1,0,0,1.014,optionRight,70,10760,5,23,0,23,0,1,,,,,,,,,,,,,,,,,,,,,,,,,,,,,,,,,,,,,,,
,,,,,,,,2023-08-16_08h32.12.760,HF_wild_card,2022.2.4,Win32,60.0240096,5eb162b0dc71ec243a783edc,64d2fd46c836a06233681665,64dc7b5ca7456ad563feb196,,,,,,,decisionTrl,resources/DB.BMP,resources/DG.BMP,Door1,0.453703704,-0.112268519,1,0,0,1.428,optionRight,30,10790,5,24,0,24,0,1,,,,,,,,,,,,,,,,,,,,,,,,,,,,,,,,,,,,,,,
,,,,,,,,2023-08-16_08h32.12.760,HF_wild_card,2022.2.4,Win32,60.0240096,5eb162b0dc71ec243a783edc,64d2fd46c836a06233681665,64dc7b5ca7456ad563feb196,,,,,,,decisionTrl,resources/DR.BMP,resources/DBN.BMP,Door4,0.386574074,-0.090277778,1,0,0,1.396,optionRight,80,10870,5,25,0,25,0,1,,,,,,,,,,,,,,,,,,,,,,,,,,,,,,,,,,,,,,,
,,,,,,,,2023-08-16_08h32.12.760,HF_wild_card,2022.2.4,Win32,60.0240096,5eb162b0dc71ec243a783edc,64d2fd46c836a06233681665,64dc7b5ca7456ad563feb196,,,,,,,decisionTrl,resources/DBN.BMP,resources/DR.BMP,Door4,-0.358796296,-0.069444444,1,0,0,1.23,optionLeft,80,10950,5,26,0,26,0,1,,,,,,,,,,,,,,,,,,,,,,,,,,,,,,,,,,,,,,,
,,,,,,,,2023-08-16_08h32.12.760,HF_wild_card,2022.2.4,Win32,60.0240096,5eb162b0dc71ec243a783edc,64d2fd46c836a06233681665,64dc7b5ca7456ad563feb196,,,,,,,decisionTrl,resources/DP.BMP,resources/DR.BMP,WildCard_Ex,-0.364583333,-0.086805556,1,0,0,1.048,optionLeft,55,11005,5,27,0,27,0,1,,,,,,,,,,,,,,,,,,,,,,,,,,,,,,,,,,,,,,,
,,,,,,,,2023-08-16_08h32.12.760,HF_wild_card,2022.2.4,Win32,60.0240096,5eb162b0dc71ec243a783edc,64d2fd46c836a06233681665,64dc7b5ca7456ad563feb196,,,,,,,decisionTrl,resources/DBN.BMP,resources/DR.BMP,Door4,-0.41087963,-0.071759259,1,0,0,1.063,optionLeft,80,11085,5,28,0,28,0,1,,,,,,,,,,,,,,,,,,,,,,,,,,,,,,,,,,,,,,,
,,,,,,,,2023-08-16_08h32.12.760,HF_wild_card,2022.2.4,Win32,60.0240096,5eb162b0dc71ec243a783edc,64d2fd46c836a06233681665,64dc7b5ca7456ad563feb196,,,,,,,decisionTrl,resources/DB.BMP,resources/DG.BMP,Door1,0.377314815,-0.126157407,1,0,0,1.497,optionRight,30,11115,5,29,0,29,0,1,,,,,,,,,,,,,,,,,,,,,,,,,,,,,,,,,,,,,,,
,,,,,,,,2023-08-16_08h32.12.760,HF_wild_card,2022.2.4,Win32,60.0240096,5eb162b0dc71ec243a783edc,64d2fd46c836a06233681665,64dc7b5ca7456ad563feb196,,,,,,,decisionTrl,resources/DBN.BMP,resources/DR.BMP,Door4,-0.340277778,-0.108796296,1,0,0,1.979,optionLeft,80,11195,5,30,0,30,0,1,,,,,,,,,,,,,,,,,,,,,,,,,,,,,,,,,,,,,,,
,,,,,,,,2023-08-16_08h32.12.760,HF_wild_card,2022.2.4,Win32,60.0240096,5eb162b0dc71ec243a783edc,64d2fd46c836a06233681665,64dc7b5ca7456ad563feb196,,,,,,,sngl,resources/DR.BMP,resources/Empty.png,Door3,-0.465277778,-0.075231481,1,0,0,3.796,optionLeft,70,11265,5,31,0,31,0,1,,,,,,,,,,,,,,,,,,,,,,,,,,,,,,,,,,,,,,,
,,,,,,,,2023-08-16_08h32.12.760,HF_wild_card,2022.2.4,Win32,60.0240096,5eb162b0dc71ec243a783edc,64d2fd46c836a06233681665,64dc7b5ca7456ad563feb196,,,,,,,decisionTrl,resources/DBN.BMP,resources/DR.BMP,Door4,-0.371527778,-0.074074074,1,0,0,0.86,optionLeft,80,11345,5,32,0,32,0,1,,,,,,,,,,,,,,,,,,,,,,,,,,,,,,,,,,,,,,,
,,,,,,,,2023-08-16_08h32.12.760,HF_wild_card,2022.2.4,Win32,60.0240096,5eb162b0dc71ec243a783edc,64d2fd46c836a06233681665,64dc7b5ca7456ad563feb196,,,,,,,decisionTrl,resources/DG.BMP,resources/DP.BMP,WildCard_Ex,0.37037037,-0.103009259,1,0,0,1.147,optionRight,55,11400,5,33,0,33,0,1,,,,,,,,,,,,,,,,,,,,,,,,,,,,,,,,,,,,,,,
,,,,,,,,2023-08-16_08h32.12.760,HF_wild_card,2022.2.4,Win32,60.0240096,5eb162b0dc71ec243a783edc,64d2fd46c836a06233681665,64dc7b5ca7456ad563feb196,,,,,,,ctch,resources/DR.BMP,resources/DB.BMP,Door3,-0.349537037,-0.094907407,1,0,0,1.146,optionLeft,70,11470,5,34,0,34,0,1,,,,,,,,,,,,,,,,,,,,,,,,,,,,,,,,,,,,,,,
,,,,,,,,2023-08-16_08h32.12.760,HF_wild_card,2022.2.4,Win32,60.0240096,5eb162b0dc71ec243a783edc,64d2fd46c836a06233681665,64dc7b5ca7456ad563feb196,,,,,,,sngl,resources/Empty.png,resources/DR.BMP,Door3,0.398148148,-0.056712963,1,0,0,0.763,optionRight,70,11540,5,35,0,35,0,1,,,,,,,,,,,,,,,,,,,,,,,,,,,,,,,,,,,,,,,
,,,,,,,,2023-08-16_08h32.12.760,HF_wild_card,2022.2.4,Win32,60.0240096,5eb162b0dc71ec243a783edc,64d2fd46c836a06233681665,64dc7b5ca7456ad563feb196,,,,,,,sngl,resources/Empty.png,resources/DP.BMP,WildCard_Ex,0.377314815,-0.042824074,1,0,0,1.096,optionRight,45,11585,5,36,0,36,0,1,,,,,,,,,,,,,,,,,,,,,,,,,,,,,,,,,,,,,,,
,,,,,,,,2023-08-16_08h32.12.760,HF_wild_card,2022.2.4,Win32,60.0240096,5eb162b0dc71ec243a783edc,64d2fd46c836a06233681665,64dc7b5ca7456ad563feb196,,,,,,,ctch,resources/DG.BMP,resources/DBN.BMP,Door4,0.341435185,-0.038194444,1,0,0,1.48,optionRight,80,11665,5,37,0,37,0,1,,,,,,,,,,,,,,,,,,,,,,,,,,,,,,,,,,,,,,,
,,,,,,,,2023-08-16_08h32.12.760,HF_wild_card,2022.2.4,Win32,60.0240096,5eb162b0dc71ec243a783edc,64d2fd46c836a06233681665,64dc7b5ca7456ad563feb196,,,,,,,sngl,resources/Empty.png,resources/DP.BMP,WildCard_Ex,0.372685185,-0.050925926,1,0,0,1.031,optionRight,55,11720,5,38,0,38,0,1,,,,,,,,,,,,,,,,,,,,,,,,,,,,,,,,,,,,,,,
,,,,,,,,2023-08-16_08h32.12.760,HF_wild_card,2022.2.4,Win32,60.0240096,5eb162b0dc71ec243a783edc,64d2fd46c836a06233681665,64dc7b5ca7456ad563feb196,,,,,,,sngl,resources/DP.BMP,resources/Empty.png,WildCard_Ex,-0.31712963,-0.070601852,1,0,0,1.014,optionLeft,55,11775,5,39,0,39,0,1,,,,,,,,,,,,,,,,,,,,,,,,,,,,,,,,,,,,,,,
,,,,,,,,2023-08-16_08h32.12.760,HF_wild_card,2022.2.4,Win32,60.0240096,5eb162b0dc71ec243a783edc,64d2fd46c836a06233681665,64dc7b5ca7456ad563feb196,,,,,,,decisionTrl,resources/DG.BMP,resources/DB.BMP,Door1,-0.266203704,-0.108796296,1,0,0,1.181,optionLeft,30,11805,5,40,0,40,0,1,,,,,,,,,,,,,,,,,,,,,,,,,,,,,,,,,,,,,,,
,,,,,,,,2023-08-16_08h32.12.760,HF_wild_card,2022.2.4,Win32,60.0240096,5eb162b0dc71ec243a783edc,64d2fd46c836a06233681665,64dc7b5ca7456ad563feb196,,,,,,,ctch,resources/DG.BMP,resources/DBN.BMP,Door4,0.347222222,-0.05787037,1,0,0,0.83,optionRight,80,11885,5,41,0,41,0,1,,,,,,,,,,,,,,,,,,,,,,,,,,,,,,,,,,,,,,,
,,,,,,,,2023-08-16_08h32.12.760,HF_wild_card,2022.2.4,Win32,60.0240096,5eb162b0dc71ec243a783edc,64d2fd46c836a06233681665,64dc7b5ca7456ad563feb196,,,,,,,decisionTrl,resources/DB.BMP,resources/DP.BMP,WildCard_Ex,0.369212963,-0.082175926,1,0,0,1.13,optionRight,45,11930,5,42,0,42,0,1,,,,,,,,,,,,,,,,,,,,,,,,,,,,,,,,,,,,,,,
,,,,,,,,2023-08-16_08h32.12.760,HF_wild_card,2022.2.4,Win32,60.0240096,5eb162b0dc71ec243a783edc,64d2fd46c836a06233681665,64dc7b5ca7456ad563feb196,,,,,,,ctch,resources/DBN.BMP,resources/DG.BMP,Door4,-0.347222222,-0.090277778,1,0,0,0.965,optionLeft,80,12010,5,43,0,43,0,1,,,,,,,,,,,,,,,,,,,,,,,,,,,,,,,,,,,,,,,
,,,,,,,,2023-08-16_08h32.12.760,HF_wild_card,2022.2.4,Win32,60.0240096,5eb162b0dc71ec243a783edc,64d2fd46c836a06233681665,64dc7b5ca7456ad563feb196,,,,,,,,,,,,,,,,,,,,,,,,,,4,0,4,0,1,,,,,,,,,,,,,,,,,,,,,,,,,,,,,,,,,,
,,,,,,,,2023-08-16_08h32.12.760,HF_wild_card,2022.2.4,Win32,60.0240096,5eb162b0dc71ec243a783edc,64d2fd46c836a06233681665,64dc7b5ca7456ad563feb196,,,,,,,sngl,resources/DP.BMP,resources/Empty.png,WildCard_Ex,-0.332175926,-0.111111111,1,0,0,1.446,optionLeft,55,12065,6,0,0,0,0,1,,,,,,,,,,,,,,,,,,,,,,,,,,,,,,,,,,,,,,,
,,,,,,,,2023-08-16_08h32.12.760,HF_wild_card,2022.2.4,Win32,60.0240096,5eb162b0dc71ec243a783edc,64d2fd46c836a06233681665,64dc7b5ca7456ad563feb196,,,,,,,decisionTrl,resources/DP.BMP,resources/DG.BMP,WildCard_Ex,-0.331018519,-0.138888889,1,0,0,1.079,optionLeft,45,12110,6,1,0,1,0,1,,,,,,,,,,,,,,,,,,,,,,,,,,,,,,,,,,,,,,,
,,,,,,,,2023-08-16_08h32.12.760,HF_wild_card,2022.2.4,Win32,60.0240096,5eb162b0dc71ec243a783edc,64d2fd46c836a06233681665,64dc7b5ca7456ad563feb196,,,,,,,ctch,resources/DR.BMP,resources/DB.BMP,Door3,-0.324074074,-0.108796296,1,0,0,1.246,optionLeft,70,12180,6,2,0,2,0,1,,,,,,,,,,,,,,,,,,,,,,,,,,,,,,,,,,,,,,,
,,,,,,,,2023-08-16_08h32.12.760,HF_wild_card,2022.2.4,Win32,60.0240096,5eb162b0dc71ec243a783edc,64d2fd46c836a06233681665,64dc7b5ca7456ad563feb196,,,,,,,decisionTrl,resources/DR.BMP,resources/DBN.BMP,Door4,0.335648148,-0.070601852,1,0,0,0.849,optionRight,80,12260,6,3,0,3,0,1,,,,,,,,,,,,,,,,,,,,,,,,,,,,,,,,,,,,,,,
,,,,,,,,2023-08-16_08h32.12.760,HF_wild_card,2022.2.4,Win32,60.0240096,5eb162b0dc71ec243a783edc,64d2fd46c836a06233681665,64dc7b5ca7456ad563feb196,,,,,,,decisionTrl,resources/DBN.BMP,resources/DR.BMP,Door4,-0.31712963,-0.104166667,1,0,0,0.947,optionLeft,60,12320,6,4,0,4,0,1,,,,,,,,,,,,,,,,,,,,,,,,,,,,,,,,,,,,,,,
,,,,,,,,2023-08-16_08h32.12.760,HF_wild_card,2022.2.4,Win32,60.0240096,5eb162b0dc71ec243a783edc,64d2fd46c836a06233681665,64dc7b5ca7456ad563feb196,,,,,,,ctch,resources/DG.BMP,resources/DBN.BMP,Door4,0.361111111,-0.053240741,1,0,0,0.881,optionRight,80,12400,6,5,0,5,0,1,,,,,,,,,,,,,,,,,,,,,,,,,,,,,,,,,,,,,,,
,,,,,,,,2023-08-16_08h32.12.760,HF_wild_card,2022.2.4,Win32,60.0240096,5eb162b0dc71ec243a783edc,64d2fd46c836a06233681665,64dc7b5ca7456ad563feb196,,,,,,,decisionTrl,resources/DG.BMP,resources/DB.BMP,Door1,-0.305555556,-0.101851852,1,0,0,1.081,optionLeft,30,12430,6,6,0,6,0,1,,,,,,,,,,,,,,,,,,,,,,,,,,,,,,,,,,,,,,,
,,,,,,,,2023-08-16_08h32.12.760,HF_wild_card,2022.2.4,Win32,60.0240096,5eb162b0dc71ec243a783edc,64d2fd46c836a06233681665,64dc7b5ca7456ad563feb196,,,,,,,decisionTrl,resources/DR.BMP,resources/DBN.BMP,Door4,0.444444444,-0.071759259,1,0,0,0.879,optionRight,80,12510,6,7,0,7,0,1,,,,,,,,,,,,,,,,,,,,,,,,,,,,,,,,,,,,,,,
,,,,,,,,2023-08-16_08h32.12.760,HF_wild_card,2022.2.4,Win32,60.0240096,5eb162b0dc71ec243a783edc,64d2fd46c836a06233681665,64dc7b5ca7456ad563feb196,,,,,,,decisionTrl,resources/DP.BMP,resources/DB.BMP,WildCard_Ex,-0.354166667,-0.134259259,1,0,0,1.047,optionLeft,45,12555,6,8,0,8,0,1,,,,,,,,,,,,,,,,,,,,,,,,,,,,,,,,,,,,,,,
,,,,,,,,2023-08-16_08h32.12.760,HF_wild_card,2022.2.4,Win32,60.0240096,5eb162b0dc71ec243a783edc,64d2fd46c836a06233681665,64dc7b5ca7456ad563feb196,,,,,,,sngl,resources/Empty.png,resources/DP.BMP,WildCard_Ex,0.418981481,-0.085648148,1,0,0,0.814,optionRight,55,12610,6,9,0,9,0,1,,,,,,,,,,,,,,,,,,,,,,,,,,,,,,,,,,,,,,,
,,,,,,,,2023-08-16_08h32.12.760,HF_wild_card,2022.2.4,Win32,60.0240096,5eb162b0dc71ec243a783edc,64d2fd46c836a06233681665,64dc7b5ca7456ad563feb196,,,,,,,ctch,resources/DB.BMP,resources/DR.BMP,Door2,-0.309027778,-0.12962963,1,0,0,1.148,optionLeft,20,12630,6,10,0,10,0,1,,,,,,,,,,,,,,,,,,,,,,,,,,,,,,,,,,,,,,,
,,,,,,,,2023-08-16_08h32.12.760,HF_wild_card,2022.2.4,Win32,60.0240096,5eb162b0dc71ec243a783edc,64d2fd46c836a06233681665,64dc7b5ca7456ad563feb196,,,,,,,decisionTrl,resources/DR.BMP,resources/DBN.BMP,Door4,0.451388889,-0.090277778,1,0,0,0.931,optionRight,60,12690,6,11,0,11,0,1,,,,,,,,,,,,,,,,,,,,,,,,,,,,,,,,,,,,,,,
,,,,,,,,2023-08-16_08h32.12.760,HF_wild_card,2022.2.4,Win32,60.0240096,5eb162b0dc71ec243a783edc,64d2fd46c836a06233681665,64dc7b5ca7456ad563feb196,,,,,,,sngl,resources/DB.BMP,resources/Empty.png,Door2,-0.3125,-0.083333333,1,0,0,0.896,optionLeft,20,12710,6,12,0,12,0,1,,,,,,,,,,,,,,,,,,,,,,,,,,,,,,,,,,,,,,,
,,,,,,,,2023-08-16_08h32.12.760,HF_wild_card,2022.2.4,Win32,60.0240096,5eb162b0dc71ec243a783edc,64d2fd46c836a06233681665,64dc7b5ca7456ad563feb196,,,,,,,sngl,resources/DG.BMP,resources/Empty.png,Door1,-0.306712963,-0.099537037,1,0,0,0.897,optionLeft,30,12740,6,13,0,13,0,1,,,,,,,,,,,,,,,,,,,,,,,,,,,,,,,,,,,,,,,
,,,,,,,,2023-08-16_08h32.12.760,HF_wild_card,2022.2.4,Win32,60.0240096,5eb162b0dc71ec243a783edc,64d2fd46c836a06233681665,64dc7b5ca7456ad563feb196,,,,,,,decisionTrl,resources/DG.BMP,resources/DB.BMP,Door1,-0.31712963,-0.134259259,1,0,0,1.729,optionLeft,30,12770,6,14,0,14,0,1,,,,,,,,,,,,,,,,,,,,,,,,,,,,,,,,,,,,,,,
,,,,,,,,2023-08-16_08h32.12.760,HF_wild_card,2022.2.4,Win32,60.0240096,5eb162b0dc71ec243a783edc,64d2fd46c836a06233681665,64dc7b5ca7456ad563feb196,,,,,,,ctch,resources/DR.BMP,resources/DB.BMP,Door3,-0.336805556,-0.107638889,1,0,0,1.115,optionLeft,70,12840,6,15,0,15,0,1,,,,,,,,,,,,,,,,,,,,,,,,,,,,,,,,,,,,,,,
,,,,,,,,2023-08-16_08h32.12.760,HF_wild_card,2022.2.4,Win32,60.0240096,5eb162b0dc71ec243a783edc,64d2fd46c836a06233681665,64dc7b5ca7456ad563feb196,,,,,,,decisionTrl,resources/DP.BMP,resources/DBN.BMP,Door4,0.336805556,-0.076388889,1,0,0,0.98,optionRight,60,12900,6,16,0,16,0,1,,,,,,,,,,,,,,,,,,,,,,,,,,,,,,,,,,,,,,,
,,,,,,,,2023-08-16_08h32.12.760,HF_wild_card,2022.2.4,Win32,60.0240096,5eb162b0dc71ec243a783edc,64d2fd46c836a06233681665,64dc7b5ca7456ad563feb196,,,,,,,decisionTrl,resources/DB.BMP,resources/DG.BMP,Door1,0.358796296,-0.158564815,1,0,0,1.415,optionRight,30,12930,6,17,0,17,0,1,,,,,,,,,,,,,,,,,,,,,,,,,,,,,,,,,,,,,,,
,,,,,,,,2023-08-16_08h32.12.760,HF_wild_card,2022.2.4,Win32,60.0240096,5eb162b0dc71ec243a783edc,64d2fd46c836a06233681665,64dc7b5ca7456ad563feb196,,,,,,,decisionTrl,resources/DG.BMP,resources/DB.BMP,Door1,-0.321759259,-0.122685185,1,0,0,1.081,optionLeft,30,12960,6,18,0,18,0,1,,,,,,,,,,,,,,,,,,,,,,,,,,,,,,,,,,,,,,,
,,,,,,,,2023-08-16_08h32.12.760,HF_wild_card,2022.2.4,Win32,60.0240096,5eb162b0dc71ec243a783edc,64d2fd46c836a06233681665,64dc7b5ca7456ad563feb196,,,,,,,decisionTrl,resources/DR.BMP,resources/DP.BMP,WildCard_Ex,0.392361111,-0.06712963,1,0,0,0.964,optionRight,45,13005,6,19,0,19,0,1,,,,,,,,,,,,,,,,,,,,,,,,,,,,,,,,,,,,,,,
,,,,,,,,2023-08-16_08h32.12.760,HF_wild_card,2022.2.4,Win32,60.0240096,5eb162b0dc71ec243a783edc,64d2fd46c836a06233681665,64dc7b5ca7456ad563feb196,,,,,,,sngl,resources/Empty.png,resources/DG.BMP,Door1,0.31712963,-0.040509259,1,0,0,0.815,optionRight,30,13035,6,20,0,20,0,1,,,,,,,,,,,,,,,,,,,,,,,,,,,,,,,,,,,,,,,
,,,,,,,,2023-08-16_08h32.12.760,HF_wild_card,2022.2.4,Win32,60.0240096,5eb162b0dc71ec243a783edc,64d2fd46c836a06233681665,64dc7b5ca7456ad563feb196,,,,,,,sngl,resources/Empty.png,resources/DR.BMP,Door3,0.349537037,-0.061342593,1,0,0,0.815,optionRight,70,13105,6,21,0,21,0,1,,,,,,,,,,,,,,,,,,,,,,,,,,,,,,,,,,,,,,,
,,,,,,,,2023-08-16_08h32.12.760,HF_wild_card,2022.2.4,Win32,60.0240096,5eb162b0dc71ec243a783edc,64d2fd46c836a06233681665,64dc7b5ca7456ad563feb196,,,,,,,sngl,resources/Empty.png,resources/DP.BMP,WildCard_Ex,0.351851852,-0.055555556,1,0,0,0.863,optionRight,45,13150,6,22,0,22,0,1,,,,,,,,,,,,,,,,,,,,,,,,,,,,,,,,,,,,,,,
,,,,,,,,2023-08-16_08h32.12.760,HF_wild_card,2022.2.4,Win32,60.0240096,5eb162b0dc71ec243a783edc,64d2fd46c836a06233681665,64dc7b5ca7456ad563feb196,,,,,,,decisionTrl,resources/DBN.BMP,resources/DR.BMP,Door4,-0.344907407,-0.077546296,1,0,0,1.064,optionLeft,80,13230,6,23,0,23,0,1,,,,,,,,,,,,,,,,,,,,,,,,,,,,,,,,,,,,,,,
,,,,,,,,2023-08-16_08h32.12.760,HF_wild_card,2022.2.4,Win32,60.0240096,5eb162b0dc71ec243a783edc,64d2fd46c836a06233681665,64dc7b5ca7456ad563feb196,,,,,,,ctch,resources/DB.BMP,resources/DR.BMP,Door3,0.414351852,-0.113425926,1,0,0,1.147,optionRight,70,13300,6,24,0,24,0,1,,,,,,,,,,,,,,,,,,,,,,,,,,,,,,,,,,,,,,,
,,,,,,,,2023-08-16_08h32.12.760,HF_wild_card,2022.2.4,Win32,60.0240096,5eb162b0dc71ec243a783edc,64d2fd46c836a06233681665,64dc7b5ca7456ad563feb196,,,,,,,decisionTrl,resources/DBN.BMP,resources/DR.BMP,Door4,-0.34375,-0.08912037,1,0,0,1.062,optionLeft,60,13360,6,25,0,25,0,1,,,,,,,,,,,,,,,,,,,,,,,,,,,,,,,,,,,,,,,
,,,,,,,,2023-08-16_08h32.12.760,HF_wild_card,2022.2.4,Win32,60.0240096,5eb162b0dc71ec243a783edc,64d2fd46c836a06233681665,64dc7b5ca7456ad563feb196,,,,,,,sngl,resources/DP.BMP,resources/Empty.png,WildCard_Ex,-0.363425926,-0.118055556,1,0,0,0.896,optionLeft,45,13405,6,26,0,26,0,1,,,,,,,,,,,,,,,,,,,,,,,,,,,,,,,,,,,,,,,
,,,,,,,,2023-08-16_08h32.12.760,HF_wild_card,2022.2.4,Win32,60.0240096,5eb162b0dc71ec243a783edc,64d2fd46c836a06233681665,64dc7b5ca7456ad563feb196,,,,,,,sngl,resources/DR.BMP,resources/Empty.png,Door3,-0.378472222,-0.12037037,1,0,0,0.979,optionLeft,70,13475,6,27,0,27,0,1,,,,,,,,,,,,,,,,,,,,,,,,,,,,,,,,,,,,,,,
,,,,,,,,2023-08-16_08h32.12.760,HF_wild_card,2022.2.4,Win32,60.0240096,5eb162b0dc71ec243a783edc,64d2fd46c836a06233681665,64dc7b5ca7456ad563feb196,,,,,,,decisionTrl,resources/DB.BMP,resources/DP.BMP,WildCard_Ex,0.398148148,-0.152777778,1,0,0,1.33,optionRight,55,13530,6,28,0,28,0,1,,,,,,,,,,,,,,,,,,,,,,,,,,,,,,,,,,,,,,,
,,,,,,,,2023-08-16_08h32.12.760,HF_wild_card,2022.2.4,Win32,60.0240096,5eb162b0dc71ec243a783edc,64d2fd46c836a06233681665,64dc7b5ca7456ad563feb196,,,,,,,sngl,resources/Empty.png,resources/DB.BMP,Door2,0.37037037,-0.09375,1,0,0,0.748,optionRight,40,13570,6,29,0,29,0,1,,,,,,,,,,,,,,,,,,,,,,,,,,,,,,,,,,,,,,,
,,,,,,,,2023-08-16_08h32.12.760,HF_wild_card,2022.2.4,Win32,60.0240096,5eb162b0dc71ec243a783edc,64d2fd46c836a06233681665,64dc7b5ca7456ad563feb196,,,,,,,ctch,resources/DBN.BMP,resources/DG.BMP,Door4,-0.392361111,-0.109953704,1,0,0,0.896,optionLeft,80,13650,6,30,0,30,0,1,,,,,,,,,,,,,,,,,,,,,,,,,,,,,,,,,,,,,,,
,,,,,,,,2023-08-16_08h32.12.760,HF_wild_card,2022.2.4,Win32,60.0240096,5eb162b0dc71ec243a783edc,64d2fd46c836a06233681665,64dc7b5ca7456ad563feb196,,,,,,,decisionTrl,resources/DR.BMP,resources/DBN.BMP,Door4,0.457175926,-0.104166667,1,0,0,0.913,optionRight,80,13730,6,31,0,31,0,1,,,,,,,,,,,,,,,,,,,,,,,,,,,,,,,,,,,,,,,
,,,,,,,,2023-08-16_08h32.12.760,HF_wild_card,2022.2.4,Win32,60.0240096,5eb162b0dc71ec243a783edc,64d2fd46c836a06233681665,64dc7b5ca7456ad563feb196,,,,,,,ctch,resources/DBN.BMP,resources/DG.BMP,Door4,-0.351851852,-0.121527778,1,0,0,1.081,optionLeft,80,13810,6,32,0,32,0,1,,,,,,,,,,,,,,,,,,,,,,,,,,,,,,,,,,,,,,,
,,,,,,,,2023-08-16_08h32.12.760,HF_wild_card,2022.2.4,Win32,60.0240096,5eb162b0dc71ec243a783edc,64d2fd46c836a06233681665,64dc7b5ca7456ad563feb196,,,,,,,decisionTrl,resources/DBN.BMP,resources/DP.BMP,Door4,-0.347222222,-0.152777778,1,0,0,1.031,optionLeft,60,13870,6,33,0,33,0,1,,,,,,,,,,,,,,,,,,,,,,,,,,,,,,,,,,,,,,,
,,,,,,,,2023-08-16_08h32.12.760,HF_wild_card,2022.2.4,Win32,60.0240096,5eb162b0dc71ec243a783edc,64d2fd46c836a06233681665,64dc7b5ca7456ad563feb196,,,,,,,decisionTrl,resources/DBN.BMP,resources/DR.BMP,Door4,-0.365740741,-0.144675926,1,0,0,0.914,optionLeft,80,13950,6,34,0,34,0,1,,,,,,,,,,,,,,,,,,,,,,,,,,,,,,,,,,,,,,,
,,,,,,,,2023-08-16_08h32.12.760,HF_wild_card,2022.2.4,Win32,60.0240096,5eb162b0dc71ec243a783edc,64d2fd46c836a06233681665,64dc7b5ca7456ad563feb196,,,,,,,decisionTrl,resources/DB.BMP,resources/DG.BMP,Door1,0.393518519,-0.104166667,1,0,0,1.181,optionRight,30,13980,6,35,0,35,0,1,,,,,,,,,,,,,,,,,,,,,,,,,,,,,,,,,,,,,,,
,,,,,,,,2023-08-16_08h32.12.760,HF_wild_card,2022.2.4,Win32,60.0240096,5eb162b0dc71ec243a783edc,64d2fd46c836a06233681665,64dc7b5ca7456ad563feb196,,,,,,,decisionTrl,resources/DP.BMP,resources/DR.BMP,Door3,0.333333333,-0.104166667,1,0,0,0.979,optionRight,70,14050,6,36,0,36,0,1,,,,,,,,,,,,,,,,,,,,,,,,,,,,,,,,,,,,,,,
,,,,,,,,2023-08-16_08h32.12.760,HF_wild_card,2022.2.4,Win32,60.0240096,5eb162b0dc71ec243a783edc,64d2fd46c836a06233681665,64dc7b5ca7456ad563feb196,,,,,,,sngl,resources/Empty.png,resources/DBN.BMP,Door4,0.359953704,-0.092592593,1,0,0,0.845,optionRight,80,14130,6,37,0,37,0,1,,,,,,,,,,,,,,,,,,,,,,,,,,,,,,,,,,,,,,,
,,,,,,,,2023-08-16_08h32.12.760,HF_wild_card,2022.2.4,Win32,60.0240096,5eb162b0dc71ec243a783edc,64d2fd46c836a06233681665,64dc7b5ca7456ad563feb196,,,,,,,decisionTrl,resources/DB.BMP,resources/DG.BMP,Door1,0.326388889,-0.05787037,1,0,0,1.047,optionRight,30,14160,6,38,0,38,0,1,,,,,,,,,,,,,,,,,,,,,,,,,,,,,,,,,,,,,,,
,,,,,,,,2023-08-16_08h32.12.760,HF_wild_card,2022.2.4,Win32,60.0240096,5eb162b0dc71ec243a783edc,64d2fd46c836a06233681665,64dc7b5ca7456ad563feb196,,,,,,,decisionTrl,resources/DB.BMP,resources/DG.BMP,Door1,0.340277778,-0.05787037,1,0,0,0.847,optionRight,30,14190,6,39,0,39,0,1,,,,,,,,,,,,,,,,,,,,,,,,,,,,,,,,,,,,,,,
,,,,,,,,2023-08-16_08h32.12.760,HF_wild_card,2022.2.4,Win32,60.0240096,5eb162b0dc71ec243a783edc,64d2fd46c836a06233681665,64dc7b5ca7456ad563feb196,,,,,,,sngl,resources/DBN.BMP,resources/Empty.png,Door4,-0.31712963,-0.076388889,1,0,0,0.831,optionLeft,60,14250,6,40,0,40,0,1,,,,,,,,,,,,,,,,,,,,,,,,,,,,,,,,,,,,,,,
,,,,,,,,2023-08-16_08h32.12.760,HF_wild_card,2022.2.4,Win32,60.0240096,5eb162b0dc71ec243a783edc,64d2fd46c836a06233681665,64dc7b5ca7456ad563feb196,,,,,,,ctch,resources/DG.BMP,resources/DBN.BMP,Door4,0.336805556,-0.085648148,1,0,0,0.83,optionRight,60,14310,6,41,0,41,0,1,,,,,,,,,,,,,,,,,,,,,,,,,,,,,,,,,,,,,,,
,,,,,,,,2023-08-16_08h32.12.760,HF_wild_card,2022.2.4,Win32,60.0240096,5eb162b0dc71ec243a783edc,64d2fd46c836a06233681665,64dc7b5ca7456ad563feb196,,,,,,,decisionTrl,resources/DG.BMP,resources/DP.BMP,WildCard_Ex,0.363425926,-0.144675926,1,0,0,1.264,optionRight,45,14355,6,42,0,42,0,1,,,,,,,,,,,,,,,,,,,,,,,,,,,,,,,,,,,,,,,
,,,,,,,,2023-08-16_08h32.12.760,HF_wild_card,2022.2.4,Win32,60.0240096,5eb162b0dc71ec243a783edc,64d2fd46c836a06233681665,64dc7b5ca7456ad563feb196,,,,,,,decisionTrl,resources/DG.BMP,resources/DB.BMP,Door1,-0.309027778,-0.121527778,1,0,0,1.197,optionLeft,30,14385,6,43,0,43,0,1,,,,,,,,,,,,,,,,,,,,,,,,,,,,,,,,,,,,,,,
,,,,,,,,2023-08-16_08h32.12.760,HF_wild_card,2022.2.4,Win32,60.0240096,5eb162b0dc71ec243a783edc,64d2fd46c836a06233681665,64dc7b5ca7456ad563feb196,,,,,,,,,,,,,,,,,,,,,,,,,,5,0,5,0,1,,,,,,,,,,,,,,,,,,,,,,,,,,,,,,,,,,
,,,,,,,,2023-08-16_08h32.12.760,HF_wild_card,2022.2.4,Win32,60.0240096,5eb162b0dc71ec243a783edc,64d2fd46c836a06233681665,64dc7b5ca7456ad563feb196,,,,,,,ctch,resources/DBN.BMP,resources/DG.BMP,Door4,-0.337962963,-0.019675926,1,0,0,1.209,optionLeft,80,14465,7,0,0,0,0,1,,,,,,,,,,,,,,,,,,,,,,,,,,,,,,,,,,,,,,,
,,,,,,,,2023-08-16_08h32.12.760,HF_wild_card,2022.2.4,Win32,60.0240096,5eb162b0dc71ec243a783edc,64d2fd46c836a06233681665,64dc7b5ca7456ad563feb196,,,,,,,ctch,resources/DR.BMP,resources/DB.BMP,Door3,-0.310185185,-0.140046296,1,0,0,1.415,optionLeft,70,14535,7,1,0,1,0,1,,,,,,,,,,,,,,,,,,,,,,,,,,,,,,,,,,,,,,,
,,,,,,,,2023-08-16_08h32.12.760,HF_wild_card,2022.2.4,Win32,60.0240096,5eb162b0dc71ec243a783edc,64d2fd46c836a06233681665,64dc7b5ca7456ad563feb196,,,,,,,decisionTrl,resources/DG.BMP,resources/DB.BMP,Door1,-0.318287037,-0.114583333,1,0,0,1.265,optionLeft,30,14565,7,2,0,2,0,1,,,,,,,,,,,,,,,,,,,,,,,,,,,,,,,,,,,,,,,
,,,,,,,,2023-08-16_08h32.12.760,HF_wild_card,2022.2.4,Win32,60.0240096,5eb162b0dc71ec243a783edc,64d2fd46c836a06233681665,64dc7b5ca7456ad563feb196,,,,,,,ctch,resources/DBN.BMP,resources/DG.BMP,Door4,-0.358796296,-0.092592593,1,0,0,0.847,optionLeft,60,14625,7,3,0,3,0,1,,,,,,,,,,,,,,,,,,,,,,,,,,,,,,,,,,,,,,,
,,,,,,,,2023-08-16_08h32.12.760,HF_wild_card,2022.2.4,Win32,60.0240096,5eb162b0dc71ec243a783edc,64d2fd46c836a06233681665,64dc7b5ca7456ad563feb196,,,,,,,decisionTrl,resources/DR.BMP,resources/DBN.BMP,Door4,0.366898148,-0.08912037,1,0,0,0.833,optionRight,60,14685,7,4,0,4,0,1,,,,,,,,,,,,,,,,,,,,,,,,,,,,,,,,,,,,,,,
,,,,,,,,2023-08-16_08h32.12.760,HF_wild_card,2022.2.4,Win32,60.0240096,5eb162b0dc71ec243a783edc,64d2fd46c836a06233681665,64dc7b5ca7456ad563feb196,,,,,,,decisionTrl,resources/DG.BMP,resources/DB.BMP,Door1,-0.293981481,-0.149305556,1,0,0,1.566,optionLeft,30,14715,7,5,0,5,0,1,,,,,,,,,,,,,,,,,,,,,,,,,,,,,,,,,,,,,,,
,,,,,,,,2023-08-16_08h32.12.760,HF_wild_card,2022.2.4,Win32,60.0240096,5eb162b0dc71ec243a783edc,64d2fd46c836a06233681665,64dc7b5ca7456ad563feb196,,,,,,,decisionTrl,resources/DR.BMP,resources/DBN.BMP,Door4,0.377314815,-0.074074074,1,0,0,0.815,optionRight,60,14775,7,6,0,6,0,1,,,,,,,,,,,,,,,,,,,,,,,,,,,,,,,,,,,,,,,
,,,,,,,,2023-08-16_08h32.12.760,HF_wild_card,2022.2.4,Win32,60.0240096,5eb162b0dc71ec243a783edc,64d2fd46c836a06233681665,64dc7b5ca7456ad563feb196,,,,,,,ctch,resources/DB.BMP,resources/DR.BMP,Door3,0.373842593,-0.113425926,1,0,0,1.015,optionRight,70,14845,7,7,0,7,0,1,,,,,,,,,,,,,,,,,,,,,,,,,,,,,,,,,,,,,,,
,,,,,,,,2023-08-16_08h32.12.760,HF_wild_card,2022.2.4,Win32,60.0240096,5eb162b0dc71ec243a783edc,64d2fd46c836a06233681665,64dc7b5ca7456ad563feb196,,,,,,,decisionTrl,resources/DR.BMP,resources/DBN.BMP,Door4,0.37962963,-0.085648148,1,0,0,0.814,optionRight,60,14905,7,8,0,8,0,1,,,,,,,,,,,,,,,,,,,,,,,,,,,,,,,,,,,,,,,
,,,,,,,,2023-08-16_08h32.12.760,HF_wild_card,2022.2.4,Win32,60.0240096,5eb162b0dc71ec243a783edc,64d2fd46c836a06233681665,64dc7b5ca7456ad563feb196,,,,,,,ctch,resources/DG.BMP,resources/DBN.BMP,Door4,0.405092593,-0.082175926,1,0,0,0.715,optionRight,80,14985,7,9,0,9,0,1,,,,,,,,,,,,,,,,,,,,,,,,,,,,,,,,,,,,,,,
,,,,,,,,2023-08-16_08h32.12.760,HF_wild_card,2022.2.4,Win32,60.0240096,5eb162b0dc71ec243a783edc,64d2fd46c836a06233681665,64dc7b5ca7456ad563feb196,,,,,,,decisionTrl,resources/DB.BMP,resources/DG.BMP,Door1,0.327546296,-0.075231481,1,0,0,1.233,optionRight,30,15015,7,10,0,10,0,1,,,,,,,,,,,,,,,,,,,,,,,,,,,,,,,,,,,,,,,
,,,,,,,,2023-08-16_08h32.12.760,HF_wild_card,2022.2.4,Win32,60.0240096,5eb162b0dc71ec243a783edc,64d2fd46c836a06233681665,64dc7b5ca7456ad563feb196,,,,,,,ctch,resources/DR.BMP,resources/DB.BMP,Door3,-0.378472222,-0.128472222,1,0,0,1.049,optionLeft,70,15085,7,11,0,11,0,1,,,,,,,,,,,,,,,,,,,,,,,,,,,,,,,,,,,,,,,
,,,,,,,,2023-08-16_08h32.12.760,HF_wild_card,2022.2.4,Win32,60.0240096,5eb162b0dc71ec243a783edc,64d2fd46c836a06233681665,64dc7b5ca7456ad563feb196,,,,,,,decisionTrl,resources/DBN.BMP,resources/DR.BMP,Door4,-0.378472222,-0.087962963,1,0,0,0.862,optionLeft,60,15145,7,12,0,12,0,1,,,,,,,,,,,,,,,,,,,,,,,,,,,,,,,,,,,,,,,
,,,,,,,,2023-08-16_08h32.12.760,HF_wild_card,2022.2.4,Win32,60.0240096,5eb162b0dc71ec243a783edc,64d2fd46c836a06233681665,64dc7b5ca7456ad563feb196,,,,,,,decisionTrl,resources/DB.BMP,resources/DG.BMP,Door1,0.413194444,-0.125,1,0,0,1.032,optionRight,30,15175,7,13,0,13,0,1,,,,,,,,,,,,,,,,,,,,,,,,,,,,,,,,,,,,,,,
,,,,,,,,2023-08-16_08h32.12.760,HF_wild_card,2022.2.4,Win32,60.0240096,5eb162b0dc71ec243a783edc,64d2fd46c836a06233681665,64dc7b5ca7456ad563feb196,,,,,,,decisionTrl,resources/DG.BMP,resources/DB.BMP,Door1,-0.371527778,-0.133101852,1,0,0,1.183,optionLeft,30,15205,7,14,0,14,0,1,,,,,,,,,,,,,,,,,,,,,,,,,,,,,,,,,,,,,,,
,,,,,,,,2023-08-16_08h32.12.760,HF_wild_card,2022.2.4,Win32,60.0240096,5eb162b0dc71ec243a783edc,64d2fd46c836a06233681665,64dc7b5ca7456ad563feb196,,,,,,,decisionTrl,resources/DBN.BMP,resources/DR.BMP,Door4,-0.335648148,-0.118055556,1,0,0,0.932,optionLeft,60,15265,7,15,0,15,0,1,,,,,,,,,,,,,,,,,,,,,,,,,,,,,,,,,,,,,,,
,,,,,,,,2023-08-16_08h32.12.760,HF_wild_card,2022.2.4,Win32,60.0240096,5eb162b0dc71ec243a783edc,64d2fd46c836a06233681665,64dc7b5ca7456ad563feb196,,,,,,,ctch,resources/DG.BMP,resources/DBN.BMP,Door4,0.363425926,-0.08912037,1,0,0,0.848,optionRight,60,15325,7,16,0,16,0,1,,,,,,,,,,,,,,,,,,,,,,,,,,,,,,,,,,,,,,,
,,,,,,,,2023-08-16_08h32.12.760,HF_wild_card,2022.2.4,Win32,60.0240096,5eb162b0dc71ec243a783edc,64d2fd46c836a06233681665,64dc7b5ca7456ad563feb196,,,,,,,decisionTrl,resources/DR.BMP,resources/DBN.BMP,Door4,0.329861111,-0.081018519,1,0,0,0.731,optionRight,60,15385,7,17,0,17,0,1,,,,,,,,,,,,,,,,,,,,,,,,,,,,,,,,,,,,,,,
,,,,,,,,2023-08-16_08h32.12.760,HF_wild_card,2022.2.4,Win32,60.0240096,5eb162b0dc71ec243a783edc,64d2fd46c836a06233681665,64dc7b5ca7456ad563feb196,,,,,,,ctch,resources/DBN.BMP,resources/DG.BMP,Door4,-0.305555556,-0.112268519,1,0,0,0.966,optionLeft,80,15465,7,18,0,18,0,1,,,,,,,,,,,,,,,,,,,,,,,,,,,,,,,,,,,,,,,
,,,,,,,,2023-08-16_08h32.12.760,HF_wild_card,2022.2.4,Win32,60.0240096,5eb162b0dc71ec243a783edc,64d2fd46c836a06233681665,64dc7b5ca7456ad563feb196,,,,,,,decisionTrl,resources/DB.BMP,resources/DG.BMP,Door1,0.350694444,-0.084490741,1,0,0,0.932,optionRight,30,15495,7,19,0,19,0,1,,,,,,,,,,,,,,,,,,,,,,,,,,,,,,,,,,,,,,,
,,,,,,,,2023-08-16_08h32.12.760,HF_wild_card,2022.2.4,Win32,60.0240096,5eb162b0dc71ec243a783edc,64d2fd46c836a06233681665,64dc7b5ca7456ad563feb196,,,,,,,decisionTrl,resources/DG.BMP,resources/DB.BMP,Door1,-0.361111111,-0.097222222,1,0,0,1.033,optionLeft,30,15525,7,20,0,20,0,1,,,,,,,,,,,,,,,,,,,,,,,,,,,,,,,,,,,,,,,
,,,,,,,,2023-08-16_08h32.12.760,HF_wild_card,2022.2.4,Win32,60.0240096,5eb162b0dc71ec243a783edc,64d2fd46c836a06233681665,64dc7b5ca7456ad563feb196,,,,,,,decisionTrl,resources/DB.BMP,resources/DG.BMP,Door1,0.366898148,-0.085648148,1,0,0,0.898,optionRight,30,15555,7,21,0,21,0,1,,,,,,,,,,,,,,,,,,,,,,,,,,,,,,,,,,,,,,,
,,,,,,,,2023-08-16_08h32.12.760,HF_wild_card,2022.2.4,Win32,60.0240096,5eb162b0dc71ec243a783edc,64d2fd46c836a06233681665,64dc7b5ca7456ad563feb196,,,,,,,decisionTrl,resources/DBN.BMP,resources/DR.BMP,Door4,-0.337962963,-0.090277778,1,0,0,0.931,optionLeft,60,15615,7,22,0,22,0,1,,,,,,,,,,,,,,,,,,,,,,,,,,,,,,,,,,,,,,,
,,,,,,,,2023-08-16_08h32.12.760,HF_wild_card,2022.2.4,Win32,60.0240096,5eb162b0dc71ec243a783edc,64d2fd46c836a06233681665,64dc7b5ca7456ad563feb196,,,,,,,decisionTrl,resources/DB.BMP,resources/DG.BMP,Door1,0.362268519,-0.076388889,1,0,0,1.348,optionRight,30,15645,7,23,0,23,0,1,,,,,,,,,,,,,,,,,,,,,,,,,,,,,,,,,,,,,,,
,,,,,,,,2023-08-16_08h32.12.760,HF_wild_card,2022.2.4,Win32,60.0240096,5eb162b0dc71ec243a783edc,64d2fd46c836a06233681665,64dc7b5ca7456ad563feb196,,,,,,,decisionTrl,resources/DR.BMP,resources/DBN.BMP,Door4,0.386574074,-0.099537037,1,0,0,2.765,optionRight,60,15705,7,24,0,24,0,1,,,,,,,,,,,,,,,,,,,,,,,,,,,,,,,,,,,,,,,
,,,,,,,,2023-08-16_08h32.12.760,HF_wild_card,2022.2.4,Win32,60.0240096,5eb162b0dc71ec243a783edc,64d2fd46c836a06233681665,64dc7b5ca7456ad563feb196,,,,,,,decisionTrl,resources/DG.BMP,resources/DB.BMP,Door1,-0.344907407,-0.074074074,1,0,0,1.279,optionLeft,30,15735,7,25,0,25,0,1,,,,,,,,,,,,,,,,,,,,,,,,,,,,,,,,,,,,,,,
,,,,,,,,2023-08-16_08h32.12.760,HF_wild_card,2022.2.4,Win32,60.0240096,5eb162b0dc71ec243a783edc,64d2fd46c836a06233681665,64dc7b5ca7456ad563feb196,,,,,,,ctch,resources/DG.BMP,resources/DBN.BMP,Door4,0.378472222,-0.0625,1,0,0,1.114,optionRight,80,15815,7,26,0,26,0,1,,,,,,,,,,,,,,,,,,,,,,,,,,,,,,,,,,,,,,,
,,,,,,,,2023-08-16_08h32.12.760,HF_wild_card,2022.2.4,Win32,60.0240096,5eb162b0dc71ec243a783edc,64d2fd46c836a06233681665,64dc7b5ca7456ad563feb196,,,,,,,decisionTrl,resources/DG.BMP,resources/DB.BMP,Door1,-0.325231481,-0.072916667,1,0,0,1.082,optionLeft,30,15845,7,27,0,27,0,1,,,,,,,,,,,,,,,,,,,,,,,,,,,,,,,,,,,,,,,
,,,,,,,,2023-08-16_08h32.12.760,HF_wild_card,2022.2.4,Win32,60.0240096,5eb162b0dc71ec243a783edc,64d2fd46c836a06233681665,64dc7b5ca7456ad563feb196,,,,,,,decisionTrl,resources/DBN.BMP,resources/DR.BMP,Door4,-0.4375,-0.064814815,1,0,0,1.282,optionLeft,80,15925,7,28,0,28,0,1,,,,,,,,,,,,,,,,,,,,,,,,,,,,,,,,,,,,,,,
,,,,,,,,2023-08-16_08h32.12.760,HF_wild_card,2022.2.4,Win32,60.0240096,5eb162b0dc71ec243a783edc,64d2fd46c836a06233681665,64dc7b5ca7456ad563feb196,,,,,,,ctch,resources/DR.BMP,resources/DB.BMP,Door3,-0.456018519,-0.118055556,1,0,0,1.599,optionLeft,70,15995,7,29,0,29,0,1,,,,,,,,,,,,,,,,,,,,,,,,,,,,,,,,,,,,,,,
,,,,,,,,2023-08-16_08h32.12.760,HF_wild_card,2022.2.4,Win32,60.0240096,5eb162b0dc71ec243a783edc,64d2fd46c836a06233681665,64dc7b5ca7456ad563feb196,,,,,,,ctch,resources/DB.BMP,resources/DR.BMP,Door3,0.372685185,-0.121527778,1,0,0,0.948,optionRight,70,16065,7,30,0,30,0,1,,,,,,,,,,,,,,,,,,,,,,,,,,,,,,,,,,,,,,,
,,,,,,,,2023-08-16_08h32.12.760,HF_wild_card,2022.2.4,Win32,60.0240096,5eb162b0dc71ec243a783edc,64d2fd46c836a06233681665,64dc7b5ca7456ad563feb196,,,,,,,decisionTrl,resources/DR.BMP,resources/DBN.BMP,Door4,0.44212963,-0.064814815,1,0,0,1.213,optionRight,60,16125,7,31,0,31,0,1,,,,,,,,,,,,,,,,,,,,,,,,,,,,,,,,,,,,,,,
,,,,,,,,2023-08-16_08h32.12.760,HF_wild_card,2022.2.4,Win32,60.0240096,5eb162b0dc71ec243a783edc,64d2fd46c836a06233681665,64dc7b5ca7456ad563feb196,,,,,,,decisionTrl,resources/DBN.BMP,resources/DR.BMP,Door4,-0.377314815,-0.092592593,1,0,0,1.166,optionLeft,80,16205,7,32,0,32,0,1,,,,,,,,,,,,,,,,,,,,,,,,,,,,,,,,,,,,,,,
,,,,,,,,2023-08-16_08h32.12.760,HF_wild_card,2022.2.4,Win32,60.0240096,5eb162b0dc71ec243a783edc,64d2fd46c836a06233681665,64dc7b5ca7456ad563feb196,,,,,,,decisionTrl,resources/DBN.BMP,resources/DR.BMP,Door4,-0.372685185,-0.079861111,1,0,0,1.033,optionLeft,80,16285,7,33,0,33,0,1,,,,,,,,,,,,,,,,,,,,,,,,,,,,,,,,,,,,,,,
,,,,,,,,2023-08-16_08h32.12.760,HF_wild_card,2022.2.4,Win32,60.0240096,5eb162b0dc71ec243a783edc,64d2fd46c836a06233681665,64dc7b5ca7456ad563feb196,,,,,,,ctch,resources/DB.BMP,resources/DR.BMP,Door3,0.375,-0.068287037,1,0,0,1.232,optionRight,70,16355,7,34,0,34,0,1,,,,,,,,,,,,,,,,,,,,,,,,,,,,,,,,,,,,,,,
,,,,,,,,2023-08-16_08h32.12.760,HF_wild_card,2022.2.4,Win32,60.0240096,5eb162b0dc71ec243a783edc,64d2fd46c836a06233681665,64dc7b5ca7456ad563feb196,,,,,,,decisionTrl,resources/DB.BMP,resources/DG.BMP,Door1,0.355324074,-0.074074074,1,0,0,1.397,optionRight,30,16385,7,35,0,35,0,1,,,,,,,,,,,,,,,,,,,,,,,,,,,,,,,,,,,,,,,
,,,,,,,,2023-08-16_08h32.12.760,HF_wild_card,2022.2.4,Win32,60.0240096,5eb162b0dc71ec243a783edc,64d2fd46c836a06233681665,64dc7b5ca7456ad563feb196,,,,,,,,,,,,,,,,,,,,,,,,,,6,0,6,0,1,,,,,,,,,,,,,,,,,,,,,,,,,,,,,,,,,,
,,,,,,,,2023-08-16_08h32.12.760,HF_wild_card,2022.2.4,Win32,60.0240096,5eb162b0dc71ec243a783edc,64d2fd46c836a06233681665,64dc7b5ca7456ad563feb196,,,,,,,,,,,,,,,,,,,,,,,,,,,,,,,4,,,,,,,,,,,,,,,,,,,,,,,,,,,,,,,,,
,,,,,,,,2023-08-16_08h32.12.760,HF_wild_card,2022.2.4,Win32,60.0240096,5eb162b0dc71ec243a783edc,64d2fd46c836a06233681665,64dc7b5ca7456ad563feb196,,,,,,,,,,,,,,,,,,,,,,,,,,,,,,,,,,,,,,,,,,,,,,,,,,,,,,,,,,,,,,,,
,,,,,,,,2023-08-16_08h32.12.760,HF_wild_card,2022.2.4,Win32,60.0240096,5eb162b0dc71ec243a783edc,64d2fd46c836a06233681665,64dc7b5ca7456ad563feb196,,,,,,,,,,,,,,,,,,,,,,,,,,,,,,,,45,WC_extreme,resources/DP.BMP,0,0,0,0,1,,,,,,,,,,,,,,,,,,,,,,,,,
,,,,,,,,2023-08-16_08h32.12.760,HF_wild_card,2022.2.4,Win32,60.0240096,5eb162b0dc71ec243a783edc,64d2fd46c836a06233681665,64dc7b5ca7456ad563feb196,,,,,,,,,,,,,,,,,,,,,,,,,,,,,,,,60,Door3,resources/DR.BMP,1,0,1,0,1,,,,,,,,,,,,,,,,,,,,,,,,,
,,,,,,,,2023-08-16_08h32.12.760,HF_wild_card,2022.2.4,Win32,60.0240096,5eb162b0dc71ec243a783edc,64d2fd46c836a06233681665,64dc7b5ca7456ad563feb196,,,,,,,,,,,,,,,,,,,,,,,,,,,,,,,,20,Door2,resources/DB.BMP,2,0,2,0,1,,,,,,,,,,,,,,,,,,,,,,,,,
,,,,,,,,2023-08-16_08h32.12.760,HF_wild_card,2022.2.4,Win32,60.0240096,5eb162b0dc71ec243a783edc,64d2fd46c836a06233681665,64dc7b5ca7456ad563feb196,,,,,,,,,,,,,,,,,,,,,,,,,,,,,,,,45,WC_nonExtreme,resources/DY.BMP,3,0,3,0,1,,,,,,,,,,,,,,,,,,,,,,,,,
,,,,,,,,2023-08-16_08h32.12.760,HF_wild_card,2022.2.4,Win32,60.0240096,5eb162b0dc71ec243a783edc,64d2fd46c836a06233681665,64dc7b5ca7456ad563feb196,,,,,,,,,,,,,,,,,,,,,,,,,,,,,,,,90,Door4,resources/DBN.BMP,4,0,4,0,1,,,,,,,,,,,,,,,,,,,,,,,,,
,,,,,,,,2023-08-16_08h32.12.760,HF_wild_card,2022.2.4,Win32,60.0240096,5eb162b0dc71ec243a783edc,64d2fd46c836a06233681665,64dc7b5ca7456ad563feb196,,,,,,,,,,,,,,,,,,,,,,,,,,,,,,,,30,Door1,resources/DG.BMP,5,0,5,0,1,,,,,,,,,,,,,,,,,,,,,,,,,
,,,,,,,,2023-08-16_08h32.12.760,HF_wild_card,2022.2.4,Win32,60.0240096,5eb162b0dc71ec243a783edc,64d2fd46c836a06233681665,64dc7b5ca7456ad563feb196,,,,,,,,,,,,,,,,,,,,,,,,,,,,,,,,,,,,,,,,,,,,,,,,,,,,,,,,,,,,,,,,
,,,,,,,,2023-08-16_08h32.12.760,HF_wild_card,2022.2.4,Win32,60.0240096,5eb162b0dc71ec243a783edc,64d2fd46c836a06233681665,64dc7b5ca7456ad563feb196,,,,,,,,,,,,,,,,,,,,,,,,,,,,,,,,,,,,,,,,0,0,0,0,1,,,,,,,,,,,,,,,,,,,,
,,,,,,,,2023-08-16_08h32.12.760,HF_wild_card,2022.2.4,Win32,60.0240096,5eb162b0dc71ec243a783edc,64d2fd46c836a06233681665,64dc7b5ca7456ad563feb196,,,,,,,,,,,,,,,,,,,,,,,,,,,,,,,,,,,,,,,,1,0,1,0,1,,,,,,,,,,,,,,,,,,,,
