Condition,Low fixed image (Door1),Low risky image (Door2),High fixed image (Door3),High risky image (Door4),Extreme Wild Card,NonExtreme Wild Card,,date,expName,psychopyVersion,OS,frameRate,PROLIFIC_PID,STUDY_ID,SESSION_ID,mouse_2.x,mouse_2.y,mouse_2.leftButton,mouse_2.midButton,mouse_2.rightButton,mouse_2.clicked_name,Trial Type,Left Option Image,Right Option Image,Chosen Door,mouse.x,mouse.y,mouse.leftButton,mouse.midButton,mouse.rightButton,mouse.time,mouse.clicked_name,Feedback,Cumulative Reward,Block,trial.thisRepN,trial.thisTrialN,trial.thisN,trial.thisIndex,trial.ran,blocks.thisRepN,blocks.thisTrialN,blocks.thisN,blocks.thisIndex,blocks.ran,Money conversion,First Outcome Reported,Shown Door (First Outcome),Displayed Image (First Outcome),outcomes.thisRepN,outcomes.thisTrialN,outcomes.thisN,outcomes.thisIndex,outcomes.ran,judgments.thisRepN,judgments.thisTrialN,judgments.thisN,judgments.thisIndex,judgments.ran,freqMouse.x,freqMouse.y,freqMouse.leftButton,freqMouse.midButton,freqMouse.rightButton,freqMouse.clicked_name,FQJ for first outcome,FQJ for second outcome,Shown Door,Displayed Image,trials.thisRepN,trials.thisTrialN,trials.thisN,trials.thisIndex,trials.ran,judgBlock.thisRepN,judgBlock.thisTrialN,judgBlock.thisN,judgBlock.thisIndex,judgBlock.ran
1,resources/DBN.BMP,resources/DR.BMP,resources/DY.BMP,resources/DG.BMP,resources/DB.BMP,resources/DP.BMP,,2023-08-16_08h23.30.891,HF_wild_card,2022.2.4,Win32,59.87306909,5f0ced9d5a17786fb11b7f47,64d2fd46c836a06233681665,64dc7896fef45566228a3d7e,,,,,,,,,,,,,,,,,,,,,,,,,,,,,,,,,,,,,,,,,,,,,,,,,,,,,,,,,,,,,,,,
,,,,,,,,2023-08-16_08h23.30.891,HF_wild_card,2022.2.4,Win32,59.87306909,5f0ced9d5a17786fb11b7f47,64d2fd46c836a06233681665,64dc7896fef45566228a3d7e,0.006510417,-0.421875,1,0,0,agree,,,,,,,,,,,,,,,,,,,,,,,,,,,,,,,,,,,,,,,,,,,,,,,,,,,,,,,,,,
,,,,,,,,2023-08-16_08h23.30.891,HF_wild_card,2022.2.4,Win32,59.87306909,5f0ced9d5a17786fb11b7f47,64d2fd46c836a06233681665,64dc7896fef45566228a3d7e,,,,,,,,,,,,,,,,,,,,,,,,,,,,,,,,,,,,,,,,,,,,,,,,,,,,,,,,,,,,,,,,
,,,,,,,,2023-08-16_08h23.30.891,HF_wild_card,2022.2.4,Win32,59.87306909,5f0ced9d5a17786fb11b7f47,64d2fd46c836a06233681665,64dc7896fef45566228a3d7e,,,,,,,decisionTrl,resources/DR.BMP,resources/DBN.BMP,Door1,0.36328125,-0.009114583,1,0,0,9.5677,optionRight,30,30,1,0,0,0,0,1,,,,,,,,,,,,,,,,,,,,,,,,,,,,,,,,,,,,,,,
,,,,,,,,2023-08-16_08h23.30.891,HF_wild_card,2022.2.4,Win32,59.87306909,5f0ced9d5a17786fb11b7f47,64d2fd46c836a06233681665,64dc7896fef45566228a3d7e,,,,,,,sngl,resources/Empty.png,resources/DG.BMP,Door4,0.395833333,0.045572917,1,0,0,1.6656,optionRight,60,90,1,1,0,1,0,1,,,,,,,,,,,,,,,,,,,,,,,,,,,,,,,,,,,,,,,
,,,,,,,,2023-08-16_08h23.30.891,HF_wild_card,2022.2.4,Win32,59.87306909,5f0ced9d5a17786fb11b7f47,64d2fd46c836a06233681665,64dc7896fef45566228a3d7e,,,,,,,decisionTrl,resources/DG.BMP,resources/DY.BMP,Door4,-0.368489583,-0.014322917,1,0,0,2.4826,optionLeft,60,150,1,2,0,2,0,1,,,,,,,,,,,,,,,,,,,,,,,,,,,,,,,,,,,,,,,
,,,,,,,,2023-08-16_08h23.30.891,HF_wild_card,2022.2.4,Win32,59.87306909,5f0ced9d5a17786fb11b7f47,64d2fd46c836a06233681665,64dc7896fef45566228a3d7e,,,,,,,ctch,resources/DR.BMP,resources/DY.BMP,Door3,0.354166667,-0.061197917,1,0,0,2.9564,optionRight,70,220,1,3,0,3,0,1,,,,,,,,,,,,,,,,,,,,,,,,,,,,,,,,,,,,,,,
,,,,,,,,2023-08-16_08h23.30.891,HF_wild_card,2022.2.4,Win32,59.87306909,5f0ced9d5a17786fb11b7f47,64d2fd46c836a06233681665,64dc7896fef45566228a3d7e,,,,,,,decisionTrl,resources/DP.BMP,resources/DBN.BMP,Door1,0.489583333,0.076822917,1,0,0,1.7511,optionRight,30,250,1,4,0,4,0,1,,,,,,,,,,,,,,,,,,,,,,,,,,,,,,,,,,,,,,,
,,,,,,,,2023-08-16_08h23.30.891,HF_wild_card,2022.2.4,Win32,59.87306909,5f0ced9d5a17786fb11b7f47,64d2fd46c836a06233681665,64dc7896fef45566228a3d7e,,,,,,,sngl,resources/DY.BMP,resources/Empty.png,Door3,-0.442708333,0.024739583,1,0,0,1.3849,optionLeft,70,320,1,5,0,5,0,1,,,,,,,,,,,,,,,,,,,,,,,,,,,,,,,,,,,,,,,
,,,,,,,,2023-08-16_08h23.30.891,HF_wild_card,2022.2.4,Win32,59.87306909,5f0ced9d5a17786fb11b7f47,64d2fd46c836a06233681665,64dc7896fef45566228a3d7e,,,,,,,sngl,resources/DP.BMP,resources/Empty.png,WildCard_NonEx,-0.35546875,-0.046875,1,0,0,1.3977,optionLeft,55,375,1,6,0,6,0,1,,,,,,,,,,,,,,,,,,,,,,,,,,,,,,,,,,,,,,,
,,,,,,,,2023-08-16_08h23.30.891,HF_wild_card,2022.2.4,Win32,59.87306909,5f0ced9d5a17786fb11b7f47,64d2fd46c836a06233681665,64dc7896fef45566228a3d7e,,,,,,,sngl,resources/DR.BMP,resources/Empty.png,Door2,-0.40625,-0.036458333,1,0,0,1.2325,optionLeft,40,415,1,7,0,7,0,1,,,,,,,,,,,,,,,,,,,,,,,,,,,,,,,,,,,,,,,
,,,,,,,,2023-08-16_08h23.30.891,HF_wild_card,2022.2.4,Win32,59.87306909,5f0ced9d5a17786fb11b7f47,64d2fd46c836a06233681665,64dc7896fef45566228a3d7e,,,,,,,decisionTrl,resources/DY.BMP,resources/DG.BMP,Door3,-0.30859375,-0.06640625,1,0,0,2.4059,optionLeft,70,485,1,8,0,8,0,1,,,,,,,,,,,,,,,,,,,,,,,,,,,,,,,,,,,,,,,
,,,,,,,,2023-08-16_08h23.30.891,HF_wild_card,2022.2.4,Win32,59.87306909,5f0ced9d5a17786fb11b7f47,64d2fd46c836a06233681665,64dc7896fef45566228a3d7e,,,,,,,decisionTrl,resources/DR.BMP,resources/DBN.BMP,Door2,-0.450520833,0.001302083,1,0,0,1.8524,optionLeft,40,525,1,9,0,9,0,1,,,,,,,,,,,,,,,,,,,,,,,,,,,,,,,,,,,,,,,
,,,,,,,,2023-08-16_08h23.30.891,HF_wild_card,2022.2.4,Win32,59.87306909,5f0ced9d5a17786fb11b7f47,64d2fd46c836a06233681665,64dc7896fef45566228a3d7e,,,,,,,decisionTrl,resources/DP.BMP,resources/DR.BMP,WildCard_NonEx,-0.326822917,-0.033854167,1,0,0,2.3533,optionLeft,45,570,1,10,0,10,0,1,,,,,,,,,,,,,,,,,,,,,,,,,,,,,,,,,,,,,,,
,,,,,,,,2023-08-16_08h23.30.891,HF_wild_card,2022.2.4,Win32,59.87306909,5f0ced9d5a17786fb11b7f47,64d2fd46c836a06233681665,64dc7896fef45566228a3d7e,,,,,,,sngl,resources/DP.BMP,resources/Empty.png,WildCard_NonEx,-0.408854167,-0.104166667,1,0,0,1.0005,optionLeft,45,615,1,11,0,11,0,1,,,,,,,,,,,,,,,,,,,,,,,,,,,,,,,,,,,,,,,
,,,,,,,,2023-08-16_08h23.30.891,HF_wild_card,2022.2.4,Win32,59.87306909,5f0ced9d5a17786fb11b7f47,64d2fd46c836a06233681665,64dc7896fef45566228a3d7e,,,,,,,sngl,resources/Empty.png,resources/DP.BMP,WildCard_NonEx,0.4765625,0.02734375,1,0,0,0.9833,optionRight,55,670,1,12,0,12,0,1,,,,,,,,,,,,,,,,,,,,,,,,,,,,,,,,,,,,,,,
,,,,,,,,2023-08-16_08h23.30.891,HF_wild_card,2022.2.4,Win32,59.87306909,5f0ced9d5a17786fb11b7f47,64d2fd46c836a06233681665,64dc7896fef45566228a3d7e,,,,,,,sngl,resources/DG.BMP,resources/Empty.png,Door4,-0.39453125,0.03125,1,0,0,1.1177,optionLeft,80,750,1,13,0,13,0,1,,,,,,,,,,,,,,,,,,,,,,,,,,,,,,,,,,,,,,,
,,,,,,,,2023-08-16_08h23.30.891,HF_wild_card,2022.2.4,Win32,59.87306909,5f0ced9d5a17786fb11b7f47,64d2fd46c836a06233681665,64dc7896fef45566228a3d7e,,,,,,,sngl,resources/Empty.png,resources/DP.BMP,WildCard_NonEx,0.401041667,0.022135417,1,0,0,1.0516,optionRight,45,795,1,14,0,14,0,1,,,,,,,,,,,,,,,,,,,,,,,,,,,,,,,,,,,,,,,
,,,,,,,,2023-08-16_08h23.30.891,HF_wild_card,2022.2.4,Win32,59.87306909,5f0ced9d5a17786fb11b7f47,64d2fd46c836a06233681665,64dc7896fef45566228a3d7e,,,,,,,decisionTrl,resources/DBN.BMP,resources/DR.BMP,Door2,0.381510417,-0.001302083,1,0,0,1.7367,optionRight,20,815,1,15,0,15,0,1,,,,,,,,,,,,,,,,,,,,,,,,,,,,,,,,,,,,,,,
,,,,,,,,2023-08-16_08h23.30.891,HF_wild_card,2022.2.4,Win32,59.87306909,5f0ced9d5a17786fb11b7f47,64d2fd46c836a06233681665,64dc7896fef45566228a3d7e,,,,,,,decisionTrl,resources/DG.BMP,resources/DY.BMP,Door4,-0.302083333,-0.03125,1,0,0,2.3735,optionLeft,80,895,1,16,0,16,0,1,,,,,,,,,,,,,,,,,,,,,,,,,,,,,,,,,,,,,,,
,,,,,,,,2023-08-16_08h23.30.891,HF_wild_card,2022.2.4,Win32,59.87306909,5f0ced9d5a17786fb11b7f47,64d2fd46c836a06233681665,64dc7896fef45566228a3d7e,,,,,,,sngl,resources/DBN.BMP,resources/Empty.png,Door1,-0.305989583,-0.05078125,1,0,0,1.0475,optionLeft,30,925,1,17,0,17,0,1,,,,,,,,,,,,,,,,,,,,,,,,,,,,,,,,,,,,,,,
,,,,,,,,2023-08-16_08h23.30.891,HF_wild_card,2022.2.4,Win32,59.87306909,5f0ced9d5a17786fb11b7f47,64d2fd46c836a06233681665,64dc7896fef45566228a3d7e,,,,,,,ctch,resources/DY.BMP,resources/DR.BMP,Door3,-0.29296875,-0.063802083,1,0,0,1.887,optionLeft,70,995,1,18,0,18,0,1,,,,,,,,,,,,,,,,,,,,,,,,,,,,,,,,,,,,,,,
,,,,,,,,2023-08-16_08h23.30.891,HF_wild_card,2022.2.4,Win32,59.87306909,5f0ced9d5a17786fb11b7f47,64d2fd46c836a06233681665,64dc7896fef45566228a3d7e,,,,,,,ctch,resources/DBN.BMP,resources/DG.BMP,Door4,0.412760417,-0.05859375,1,0,0,1.7173,optionRight,60,1055,1,19,0,19,0,1,,,,,,,,,,,,,,,,,,,,,,,,,,,,,,,,,,,,,,,
,,,,,,,,2023-08-16_08h23.30.891,HF_wild_card,2022.2.4,Win32,59.87306909,5f0ced9d5a17786fb11b7f47,64d2fd46c836a06233681665,64dc7896fef45566228a3d7e,,,,,,,decisionTrl,resources/DP.BMP,resources/DY.BMP,WildCard_NonEx,-0.319010417,-0.05078125,1,0,0,2.0055,optionLeft,55,1110,1,20,0,20,0,1,,,,,,,,,,,,,,,,,,,,,,,,,,,,,,,,,,,,,,,
,,,,,,,,2023-08-16_08h23.30.891,HF_wild_card,2022.2.4,Win32,59.87306909,5f0ced9d5a17786fb11b7f47,64d2fd46c836a06233681665,64dc7896fef45566228a3d7e,,,,,,,decisionTrl,resources/DR.BMP,resources/DBN.BMP,Door2,-0.385416667,-0.096354167,1,0,0,1.3678,optionLeft,40,1150,1,21,0,21,0,1,,,,,,,,,,,,,,,,,,,,,,,,,,,,,,,,,,,,,,,
,,,,,,,,2023-08-16_08h23.30.891,HF_wild_card,2022.2.4,Win32,59.87306909,5f0ced9d5a17786fb11b7f47,64d2fd46c836a06233681665,64dc7896fef45566228a3d7e,,,,,,,decisionTrl,resources/DG.BMP,resources/DP.BMP,Door4,-0.358072917,-0.026041667,1,0,0,1.7352,optionLeft,60,1210,1,22,0,22,0,1,,,,,,,,,,,,,,,,,,,,,,,,,,,,,,,,,,,,,,,
,,,,,,,,2023-08-16_08h23.30.891,HF_wild_card,2022.2.4,Win32,59.87306909,5f0ced9d5a17786fb11b7f47,64d2fd46c836a06233681665,64dc7896fef45566228a3d7e,,,,,,,sngl,resources/Empty.png,resources/DBN.BMP,Door1,0.376302083,0.05078125,1,0,0,1.1342,optionRight,30,1240,1,23,0,23,0,1,,,,,,,,,,,,,,,,,,,,,,,,,,,,,,,,,,,,,,,
,,,,,,,,2023-08-16_08h23.30.891,HF_wild_card,2022.2.4,Win32,59.87306909,5f0ced9d5a17786fb11b7f47,64d2fd46c836a06233681665,64dc7896fef45566228a3d7e,,,,,,,decisionTrl,resources/DR.BMP,resources/DP.BMP,WildCard_NonEx,0.436197917,0.009114583,1,0,0,2.1531,optionRight,55,1295,1,24,0,24,0,1,,,,,,,,,,,,,,,,,,,,,,,,,,,,,,,,,,,,,,,
,,,,,,,,2023-08-16_08h23.30.891,HF_wild_card,2022.2.4,Win32,59.87306909,5f0ced9d5a17786fb11b7f47,64d2fd46c836a06233681665,64dc7896fef45566228a3d7e,,,,,,,decisionTrl,resources/DY.BMP,resources/DG.BMP,Door3,-0.359375,-0.01171875,1,0,0,1.9875,optionLeft,70,1365,1,25,0,25,0,1,,,,,,,,,,,,,,,,,,,,,,,,,,,,,,,,,,,,,,,
,,,,,,,,2023-08-16_08h23.30.891,HF_wild_card,2022.2.4,Win32,59.87306909,5f0ced9d5a17786fb11b7f47,64d2fd46c836a06233681665,64dc7896fef45566228a3d7e,,,,,,,ctch,resources/DG.BMP,resources/DBN.BMP,Door4,-0.403645833,-0.015625,1,0,0,1.3482,optionLeft,80,1445,1,26,0,26,0,1,,,,,,,,,,,,,,,,,,,,,,,,,,,,,,,,,,,,,,,
,,,,,,,,2023-08-16_08h23.30.891,HF_wild_card,2022.2.4,Win32,59.87306909,5f0ced9d5a17786fb11b7f47,64d2fd46c836a06233681665,64dc7896fef45566228a3d7e,,,,,,,decisionTrl,resources/DG.BMP,resources/DY.BMP,Door4,-0.397135417,-0.03125,1,0,0,1.1312,optionLeft,60,1505,1,27,0,27,0,1,,,,,,,,,,,,,,,,,,,,,,,,,,,,,,,,,,,,,,,
,,,,,,,,2023-08-16_08h23.30.891,HF_wild_card,2022.2.4,Win32,59.87306909,5f0ced9d5a17786fb11b7f47,64d2fd46c836a06233681665,64dc7896fef45566228a3d7e,,,,,,,decisionTrl,resources/DY.BMP,resources/DP.BMP,Door3,-0.42578125,-0.095052083,1,0,0,1.8393,optionLeft,70,1575,1,28,0,28,0,1,,,,,,,,,,,,,,,,,,,,,,,,,,,,,,,,,,,,,,,
,,,,,,,,2023-08-16_08h23.30.891,HF_wild_card,2022.2.4,Win32,59.87306909,5f0ced9d5a17786fb11b7f47,64d2fd46c836a06233681665,64dc7896fef45566228a3d7e,,,,,,,decisionTrl,resources/DY.BMP,resources/DG.BMP,Door3,-0.244791667,0.03125,1,0,0,1.3032,optionLeft,70,1645,1,29,0,29,0,1,,,,,,,,,,,,,,,,,,,,,,,,,,,,,,,,,,,,,,,
,,,,,,,,2023-08-16_08h23.30.891,HF_wild_card,2022.2.4,Win32,59.87306909,5f0ced9d5a17786fb11b7f47,64d2fd46c836a06233681665,64dc7896fef45566228a3d7e,,,,,,,decisionTrl,resources/DG.BMP,resources/DY.BMP,Door3,0.212239583,-0.0078125,1,0,0,0.9102,optionRight,70,1715,1,30,0,30,0,1,,,,,,,,,,,,,,,,,,,,,,,,,,,,,,,,,,,,,,,
,,,,,,,,2023-08-16_08h23.30.891,HF_wild_card,2022.2.4,Win32,59.87306909,5f0ced9d5a17786fb11b7f47,64d2fd46c836a06233681665,64dc7896fef45566228a3d7e,,,,,,,decisionTrl,resources/DY.BMP,resources/DG.BMP,Door3,-0.388020833,-0.009114583,1,0,0,0.8625,optionLeft,70,1785,1,31,0,31,0,1,,,,,,,,,,,,,,,,,,,,,,,,,,,,,,,,,,,,,,,
,,,,,,,,2023-08-16_08h23.30.891,HF_wild_card,2022.2.4,Win32,59.87306909,5f0ced9d5a17786fb11b7f47,64d2fd46c836a06233681665,64dc7896fef45566228a3d7e,,,,,,,decisionTrl,resources/DBN.BMP,resources/DR.BMP,Door2,0.35546875,0.002604167,1,0,0,1.1825,optionRight,40,1825,1,32,0,32,0,1,,,,,,,,,,,,,,,,,,,,,,,,,,,,,,,,,,,,,,,
,,,,,,,,2023-08-16_08h23.30.891,HF_wild_card,2022.2.4,Win32,59.87306909,5f0ced9d5a17786fb11b7f47,64d2fd46c836a06233681665,64dc7896fef45566228a3d7e,,,,,,,decisionTrl,resources/DR.BMP,resources/DBN.BMP,Door2,-0.296875,-0.005208333,1,0,0,1.553,optionLeft,20,1845,1,33,0,33,0,1,,,,,,,,,,,,,,,,,,,,,,,,,,,,,,,,,,,,,,,
,,,,,,,,2023-08-16_08h23.30.891,HF_wild_card,2022.2.4,Win32,59.87306909,5f0ced9d5a17786fb11b7f47,64d2fd46c836a06233681665,64dc7896fef45566228a3d7e,,,,,,,decisionTrl,resources/DBN.BMP,resources/DR.BMP,Door1,-0.337239583,-0.0078125,1,0,0,3.9295,optionLeft,30,1875,1,34,0,34,0,1,,,,,,,,,,,,,,,,,,,,,,,,,,,,,,,,,,,,,,,
,,,,,,,,2023-08-16_08h23.30.891,HF_wild_card,2022.2.4,Win32,59.87306909,5f0ced9d5a17786fb11b7f47,64d2fd46c836a06233681665,64dc7896fef45566228a3d7e,,,,,,,decisionTrl,resources/DBN.BMP,resources/DP.BMP,WildCard_NonEx,0.528645833,0,1,0,0,1.1523,optionRight,55,1930,1,35,0,35,0,1,,,,,,,,,,,,,,,,,,,,,,,,,,,,,,,,,,,,,,,
,,,,,,,,2023-08-16_08h23.30.891,HF_wild_card,2022.2.4,Win32,59.87306909,5f0ced9d5a17786fb11b7f47,64d2fd46c836a06233681665,64dc7896fef45566228a3d7e,,,,,,,sngl,resources/Empty.png,resources/DR.BMP,Door2,0.282552083,0.00390625,1,0,0,1.1494,optionRight,20,1950,1,36,0,36,0,1,,,,,,,,,,,,,,,,,,,,,,,,,,,,,,,,,,,,,,,
,,,,,,,,2023-08-16_08h23.30.891,HF_wild_card,2022.2.4,Win32,59.87306909,5f0ced9d5a17786fb11b7f47,64d2fd46c836a06233681665,64dc7896fef45566228a3d7e,,,,,,,ctch,resources/DBN.BMP,resources/DG.BMP,Door4,0.329427083,-0.03125,1,0,0,1.5553,optionRight,80,2030,1,37,0,37,0,1,,,,,,,,,,,,,,,,,,,,,,,,,,,,,,,,,,,,,,,
,,,,,,,,2023-08-16_08h23.30.891,HF_wild_card,2022.2.4,Win32,59.87306909,5f0ced9d5a17786fb11b7f47,64d2fd46c836a06233681665,64dc7896fef45566228a3d7e,,,,,,,decisionTrl,resources/DBN.BMP,resources/DR.BMP,Door1,-0.311197917,0.018229167,1,0,0,4.4963,optionLeft,30,2060,1,38,0,38,0,1,,,,,,,,,,,,,,,,,,,,,,,,,,,,,,,,,,,,,,,
,,,,,,,,2023-08-16_08h23.30.891,HF_wild_card,2022.2.4,Win32,59.87306909,5f0ced9d5a17786fb11b7f47,64d2fd46c836a06233681665,64dc7896fef45566228a3d7e,,,,,,,ctch,resources/DG.BMP,resources/DBN.BMP,Door4,-0.3984375,-0.0546875,1,0,0,1.2529,optionLeft,60,2120,1,39,0,39,0,1,,,,,,,,,,,,,,,,,,,,,,,,,,,,,,,,,,,,,,,
,,,,,,,,2023-08-16_08h23.30.891,HF_wild_card,2022.2.4,Win32,59.87306909,5f0ced9d5a17786fb11b7f47,64d2fd46c836a06233681665,64dc7896fef45566228a3d7e,,,,,,,decisionTrl,resources/DP.BMP,resources/DG.BMP,WildCard_NonEx,-0.31640625,0.016927083,1,0,0,2.9389,optionLeft,45,2165,1,40,0,40,0,1,,,,,,,,,,,,,,,,,,,,,,,,,,,,,,,,,,,,,,,
,,,,,,,,2023-08-16_08h23.30.891,HF_wild_card,2022.2.4,Win32,59.87306909,5f0ced9d5a17786fb11b7f47,64d2fd46c836a06233681665,64dc7896fef45566228a3d7e,,,,,,,ctch,resources/DR.BMP,resources/DY.BMP,Door3,0.294270833,0.002604167,1,0,0,1.7008,optionRight,70,2235,1,41,0,41,0,1,,,,,,,,,,,,,,,,,,,,,,,,,,,,,,,,,,,,,,,
,,,,,,,,2023-08-16_08h23.30.891,HF_wild_card,2022.2.4,Win32,59.87306909,5f0ced9d5a17786fb11b7f47,64d2fd46c836a06233681665,64dc7896fef45566228a3d7e,,,,,,,ctch,resources/DY.BMP,resources/DR.BMP,Door3,-0.3671875,0.006510417,1,0,0,0.9291,optionLeft,70,2305,1,42,0,42,0,1,,,,,,,,,,,,,,,,,,,,,,,,,,,,,,,,,,,,,,,
,,,,,,,,2023-08-16_08h23.30.891,HF_wild_card,2022.2.4,Win32,59.87306909,5f0ced9d5a17786fb11b7f47,64d2fd46c836a06233681665,64dc7896fef45566228a3d7e,,,,,,,sngl,resources/Empty.png,resources/DY.BMP,Door3,0.37890625,0.07421875,1,0,0,1.0718,optionRight,70,2375,1,43,0,43,0,1,,,,,,,,,,,,,,,,,,,,,,,,,,,,,,,,,,,,,,,
,,,,,,,,2023-08-16_08h23.30.891,HF_wild_card,2022.2.4,Win32,59.87306909,5f0ced9d5a17786fb11b7f47,64d2fd46c836a06233681665,64dc7896fef45566228a3d7e,,,,,,,,,,,,,,,,,,,,,,,,,,0,0,0,0,1,,,,,,,,,,,,,,,,,,,,,,,,,,,,,,,,,,
,,,,,,,,2023-08-16_08h23.30.891,HF_wild_card,2022.2.4,Win32,59.87306909,5f0ced9d5a17786fb11b7f47,64d2fd46c836a06233681665,64dc7896fef45566228a3d7e,,,,,,,sngl,resources/Empty.png,resources/DG.BMP,Door4,0.412760417,0.04296875,1,0,0,2.1346,optionRight,80,2455,2,0,0,0,0,1,,,,,,,,,,,,,,,,,,,,,,,,,,,,,,,,,,,,,,,
,,,,,,,,2023-08-16_08h23.30.891,HF_wild_card,2022.2.4,Win32,59.87306909,5f0ced9d5a17786fb11b7f47,64d2fd46c836a06233681665,64dc7896fef45566228a3d7e,,,,,,,ctch,resources/DY.BMP,resources/DR.BMP,Door3,-0.3125,0.00390625,1,0,0,1.3691,optionLeft,70,2525,2,1,0,1,0,1,,,,,,,,,,,,,,,,,,,,,,,,,,,,,,,,,,,,,,,
,,,,,,,,2023-08-16_08h23.30.891,HF_wild_card,2022.2.4,Win32,59.87306909,5f0ced9d5a17786fb11b7f47,64d2fd46c836a06233681665,64dc7896fef45566228a3d7e,,,,,,,ctch,resources/DR.BMP,resources/DY.BMP,Door3,0.325520833,0.020833333,1,0,0,0.9678,optionRight,70,2595,2,2,0,2,0,1,,,,,,,,,,,,,,,,,,,,,,,,,,,,,,,,,,,,,,,
,,,,,,,,2023-08-16_08h23.30.891,HF_wild_card,2022.2.4,Win32,59.87306909,5f0ced9d5a17786fb11b7f47,64d2fd46c836a06233681665,64dc7896fef45566228a3d7e,,,,,,,decisionTrl,resources/DBN.BMP,resources/DR.BMP,Door2,0.28125,-0.045572917,1,0,0,1.1,optionRight,20,2615,2,3,0,3,0,1,,,,,,,,,,,,,,,,,,,,,,,,,,,,,,,,,,,,,,,
,,,,,,,,2023-08-16_08h23.30.891,HF_wild_card,2022.2.4,Win32,59.87306909,5f0ced9d5a17786fb11b7f47,64d2fd46c836a06233681665,64dc7896fef45566228a3d7e,,,,,,,sngl,resources/DP.BMP,resources/Empty.png,WildCard_NonEx,-0.369791667,0.002604167,1,0,0,1.0127,optionLeft,45,2660,2,4,0,4,0,1,,,,,,,,,,,,,,,,,,,,,,,,,,,,,,,,,,,,,,,
,,,,,,,,2023-08-16_08h23.30.891,HF_wild_card,2022.2.4,Win32,59.87306909,5f0ced9d5a17786fb11b7f47,64d2fd46c836a06233681665,64dc7896fef45566228a3d7e,,,,,,,decisionTrl,resources/DBN.BMP,resources/DR.BMP,Door1,-0.369791667,-0.03515625,1,0,0,1.9101,optionLeft,30,2690,2,5,0,5,0,1,,,,,,,,,,,,,,,,,,,,,,,,,,,,,,,,,,,,,,,
,,,,,,,,2023-08-16_08h23.30.891,HF_wild_card,2022.2.4,Win32,59.87306909,5f0ced9d5a17786fb11b7f47,64d2fd46c836a06233681665,64dc7896fef45566228a3d7e,,,,,,,sngl,resources/Empty.png,resources/DP.BMP,WildCard_NonEx,0.334635417,0.005208333,1,0,0,0.9298,optionRight,55,2745,2,6,0,6,0,1,,,,,,,,,,,,,,,,,,,,,,,,,,,,,,,,,,,,,,,
,,,,,,,,2023-08-16_08h23.30.891,HF_wild_card,2022.2.4,Win32,59.87306909,5f0ced9d5a17786fb11b7f47,64d2fd46c836a06233681665,64dc7896fef45566228a3d7e,,,,,,,decisionTrl,resources/DP.BMP,resources/DR.BMP,WildCard_NonEx,-0.395833333,-0.065104167,1,0,0,1.1843,optionLeft,45,2790,2,7,0,7,0,1,,,,,,,,,,,,,,,,,,,,,,,,,,,,,,,,,,,,,,,
,,,,,,,,2023-08-16_08h23.30.891,HF_wild_card,2022.2.4,Win32,59.87306909,5f0ced9d5a17786fb11b7f47,64d2fd46c836a06233681665,64dc7896fef45566228a3d7e,,,,,,,sngl,resources/DBN.BMP,resources/Empty.png,Door1,-0.290364583,0.024739583,1,0,0,1.3179,optionLeft,30,2820,2,8,0,8,0,1,,,,,,,,,,,,,,,,,,,,,,,,,,,,,,,,,,,,,,,
,,,,,,,,2023-08-16_08h23.30.891,HF_wild_card,2022.2.4,Win32,59.87306909,5f0ced9d5a17786fb11b7f47,64d2fd46c836a06233681665,64dc7896fef45566228a3d7e,,,,,,,decisionTrl,resources/DP.BMP,resources/DBN.BMP,WildCard_NonEx,-0.43359375,-0.055989583,1,0,0,1.2151,optionLeft,55,2875,2,9,0,9,0,1,,,,,,,,,,,,,,,,,,,,,,,,,,,,,,,,,,,,,,,
,,,,,,,,2023-08-16_08h23.30.891,HF_wild_card,2022.2.4,Win32,59.87306909,5f0ced9d5a17786fb11b7f47,64d2fd46c836a06233681665,64dc7896fef45566228a3d7e,,,,,,,decisionTrl,resources/DP.BMP,resources/DY.BMP,Door3,0.345052083,-0.014322917,1,0,0,3.0405,optionRight,70,2945,2,10,0,10,0,1,,,,,,,,,,,,,,,,,,,,,,,,,,,,,,,,,,,,,,,
,,,,,,,,2023-08-16_08h23.30.891,HF_wild_card,2022.2.4,Win32,59.87306909,5f0ced9d5a17786fb11b7f47,64d2fd46c836a06233681665,64dc7896fef45566228a3d7e,,,,,,,decisionTrl,resources/DBN.BMP,resources/DR.BMP,Door1,-0.29296875,0.053385417,1,0,0,1.8699,optionLeft,30,2975,2,11,0,11,0,1,,,,,,,,,,,,,,,,,,,,,,,,,,,,,,,,,,,,,,,
,,,,,,,,2023-08-16_08h23.30.891,HF_wild_card,2022.2.4,Win32,59.87306909,5f0ced9d5a17786fb11b7f47,64d2fd46c836a06233681665,64dc7896fef45566228a3d7e,,,,,,,decisionTrl,resources/DG.BMP,resources/DY.BMP,Door3,0.404947917,0.006510417,1,0,0,1.8495,optionRight,70,3045,2,12,0,12,0,1,,,,,,,,,,,,,,,,,,,,,,,,,,,,,,,,,,,,,,,
,,,,,,,,2023-08-16_08h23.30.891,HF_wild_card,2022.2.4,Win32,59.87306909,5f0ced9d5a17786fb11b7f47,64d2fd46c836a06233681665,64dc7896fef45566228a3d7e,,,,,,,decisionTrl,resources/DY.BMP,resources/DG.BMP,Door3,-0.470052083,0.036458333,1,0,0,0.8161,optionLeft,70,3115,2,13,0,13,0,1,,,,,,,,,,,,,,,,,,,,,,,,,,,,,,,,,,,,,,,
,,,,,,,,2023-08-16_08h23.30.891,HF_wild_card,2022.2.4,Win32,59.87306909,5f0ced9d5a17786fb11b7f47,64d2fd46c836a06233681665,64dc7896fef45566228a3d7e,,,,,,,decisionTrl,resources/DBN.BMP,resources/DP.BMP,WildCard_NonEx,0.342447917,0.016927083,1,0,0,1.8847,optionRight,55,3170,2,14,0,14,0,1,,,,,,,,,,,,,,,,,,,,,,,,,,,,,,,,,,,,,,,
,,,,,,,,2023-08-16_08h23.30.891,HF_wild_card,2022.2.4,Win32,59.87306909,5f0ced9d5a17786fb11b7f47,64d2fd46c836a06233681665,64dc7896fef45566228a3d7e,,,,,,,decisionTrl,resources/DR.BMP,resources/DBN.BMP,Door1,0.31640625,0.045572917,1,0,0,1.6522,optionRight,30,3200,2,15,0,15,0,1,,,,,,,,,,,,,,,,,,,,,,,,,,,,,,,,,,,,,,,
,,,,,,,,2023-08-16_08h23.30.891,HF_wild_card,2022.2.4,Win32,59.87306909,5f0ced9d5a17786fb11b7f47,64d2fd46c836a06233681665,64dc7896fef45566228a3d7e,,,,,,,decisionTrl,resources/DBN.BMP,resources/DR.BMP,Door1,-0.291666667,0.002604167,1,0,0,1.4514,optionLeft,30,3230,2,16,0,16,0,1,,,,,,,,,,,,,,,,,,,,,,,,,,,,,,,,,,,,,,,
,,,,,,,,2023-08-16_08h23.30.891,HF_wild_card,2022.2.4,Win32,59.87306909,5f0ced9d5a17786fb11b7f47,64d2fd46c836a06233681665,64dc7896fef45566228a3d7e,,,,,,,sngl,resources/Empty.png,resources/DP.BMP,WildCard_NonEx,0.38671875,0.002604167,1,0,0,0.867,optionRight,45,3275,2,17,0,17,0,1,,,,,,,,,,,,,,,,,,,,,,,,,,,,,,,,,,,,,,,
,,,,,,,,2023-08-16_08h23.30.891,HF_wild_card,2022.2.4,Win32,59.87306909,5f0ced9d5a17786fb11b7f47,64d2fd46c836a06233681665,64dc7896fef45566228a3d7e,,,,,,,decisionTrl,resources/DY.BMP,resources/DG.BMP,Door3,-0.305989583,0.022135417,1,0,0,1.0153,optionLeft,70,3345,2,18,0,18,0,1,,,,,,,,,,,,,,,,,,,,,,,,,,,,,,,,,,,,,,,
,,,,,,,,2023-08-16_08h23.30.891,HF_wild_card,2022.2.4,Win32,59.87306909,5f0ced9d5a17786fb11b7f47,64d2fd46c836a06233681665,64dc7896fef45566228a3d7e,,,,,,,sngl,resources/Empty.png,resources/DBN.BMP,Door1,0.350260417,0.04296875,1,0,0,0.9841,optionRight,30,3375,2,19,0,19,0,1,,,,,,,,,,,,,,,,,,,,,,,,,,,,,,,,,,,,,,,
,,,,,,,,2023-08-16_08h23.30.891,HF_wild_card,2022.2.4,Win32,59.87306909,5f0ced9d5a17786fb11b7f47,64d2fd46c836a06233681665,64dc7896fef45566228a3d7e,,,,,,,decisionTrl,resources/DY.BMP,resources/DG.BMP,Door3,-0.303385417,-0.0390625,1,0,0,1.9351,optionLeft,70,3445,2,20,0,20,0,1,,,,,,,,,,,,,,,,,,,,,,,,,,,,,,,,,,,,,,,
,,,,,,,,2023-08-16_08h23.30.891,HF_wild_card,2022.2.4,Win32,59.87306909,5f0ced9d5a17786fb11b7f47,64d2fd46c836a06233681665,64dc7896fef45566228a3d7e,,,,,,,ctch,resources/DY.BMP,resources/DR.BMP,Door3,-0.303385417,0.015625,1,0,0,0.8342,optionLeft,70,3515,2,21,0,21,0,1,,,,,,,,,,,,,,,,,,,,,,,,,,,,,,,,,,,,,,,
,,,,,,,,2023-08-16_08h23.30.891,HF_wild_card,2022.2.4,Win32,59.87306909,5f0ced9d5a17786fb11b7f47,64d2fd46c836a06233681665,64dc7896fef45566228a3d7e,,,,,,,decisionTrl,resources/DR.BMP,resources/DBN.BMP,Door1,0.4140625,0.048177083,1,0,0,2.6728,optionRight,30,3545,2,22,0,22,0,1,,,,,,,,,,,,,,,,,,,,,,,,,,,,,,,,,,,,,,,
,,,,,,,,2023-08-16_08h23.30.891,HF_wild_card,2022.2.4,Win32,59.87306909,5f0ced9d5a17786fb11b7f47,64d2fd46c836a06233681665,64dc7896fef45566228a3d7e,,,,,,,decisionTrl,resources/DG.BMP,resources/DY.BMP,Door3,0.311197917,-0.0078125,1,0,0,1.0329,optionRight,70,3615,2,23,0,23,0,1,,,,,,,,,,,,,,,,,,,,,,,,,,,,,,,,,,,,,,,
,,,,,,,,2023-08-16_08h23.30.891,HF_wild_card,2022.2.4,Win32,59.87306909,5f0ced9d5a17786fb11b7f47,64d2fd46c836a06233681665,64dc7896fef45566228a3d7e,,,,,,,decisionTrl,resources/DG.BMP,resources/DY.BMP,Door3,0.313802083,-0.02734375,1,0,0,1.0804,optionRight,70,3685,2,24,0,24,0,1,,,,,,,,,,,,,,,,,,,,,,,,,,,,,,,,,,,,,,,
,,,,,,,,2023-08-16_08h23.30.891,HF_wild_card,2022.2.4,Win32,59.87306909,5f0ced9d5a17786fb11b7f47,64d2fd46c836a06233681665,64dc7896fef45566228a3d7e,,,,,,,decisionTrl,resources/DP.BMP,resources/DG.BMP,WildCard_NonEx,-0.36328125,-0.063802083,1,0,0,2.1988,optionLeft,55,3740,2,25,0,25,0,1,,,,,,,,,,,,,,,,,,,,,,,,,,,,,,,,,,,,,,,
,,,,,,,,2023-08-16_08h23.30.891,HF_wild_card,2022.2.4,Win32,59.87306909,5f0ced9d5a17786fb11b7f47,64d2fd46c836a06233681665,64dc7896fef45566228a3d7e,,,,,,,ctch,resources/DG.BMP,resources/DBN.BMP,Door4,-0.334635417,-0.014322917,1,0,0,1.3847,optionLeft,80,3820,2,26,0,26,0,1,,,,,,,,,,,,,,,,,,,,,,,,,,,,,,,,,,,,,,,
,,,,,,,,2023-08-16_08h23.30.891,HF_wild_card,2022.2.4,Win32,59.87306909,5f0ced9d5a17786fb11b7f47,64d2fd46c836a06233681665,64dc7896fef45566228a3d7e,,,,,,,sngl,resources/Empty.png,resources/DR.BMP,Door2,0.315104167,0.0390625,1,0,0,0.9159,optionRight,40,3860,2,27,0,27,0,1,,,,,,,,,,,,,,,,,,,,,,,,,,,,,,,,,,,,,,,
,,,,,,,,2023-08-16_08h23.30.891,HF_wild_card,2022.2.4,Win32,59.87306909,5f0ced9d5a17786fb11b7f47,64d2fd46c836a06233681665,64dc7896fef45566228a3d7e,,,,,,,decisionTrl,resources/DG.BMP,resources/DP.BMP,Door4,-0.329427083,0.020833333,1,0,0,0.8204,optionLeft,80,3940,2,28,0,28,0,1,,,,,,,,,,,,,,,,,,,,,,,,,,,,,,,,,,,,,,,
,,,,,,,,2023-08-16_08h23.30.891,HF_wild_card,2022.2.4,Win32,59.87306909,5f0ced9d5a17786fb11b7f47,64d2fd46c836a06233681665,64dc7896fef45566228a3d7e,,,,,,,sngl,resources/DR.BMP,resources/Empty.png,Door2,-0.28125,0.045572917,1,0,0,1.0956,optionLeft,20,3960,2,29,0,29,0,1,,,,,,,,,,,,,,,,,,,,,,,,,,,,,,,,,,,,,,,
,,,,,,,,2023-08-16_08h23.30.891,HF_wild_card,2022.2.4,Win32,59.87306909,5f0ced9d5a17786fb11b7f47,64d2fd46c836a06233681665,64dc7896fef45566228a3d7e,,,,,,,ctch,resources/DR.BMP,resources/DY.BMP,Door3,0.354166667,0.08984375,1,0,0,0.9334,optionRight,70,4030,2,30,0,30,0,1,,,,,,,,,,,,,,,,,,,,,,,,,,,,,,,,,,,,,,,
,,,,,,,,2023-08-16_08h23.30.891,HF_wild_card,2022.2.4,Win32,59.87306909,5f0ced9d5a17786fb11b7f47,64d2fd46c836a06233681665,64dc7896fef45566228a3d7e,,,,,,,ctch,resources/DG.BMP,resources/DBN.BMP,Door4,-0.358072917,0.037760417,1,0,0,1.2962,optionLeft,60,4090,2,31,0,31,0,1,,,,,,,,,,,,,,,,,,,,,,,,,,,,,,,,,,,,,,,
,,,,,,,,2023-08-16_08h23.30.891,HF_wild_card,2022.2.4,Win32,59.87306909,5f0ced9d5a17786fb11b7f47,64d2fd46c836a06233681665,64dc7896fef45566228a3d7e,,,,,,,decisionTrl,resources/DY.BMP,resources/DG.BMP,Door3,-0.282552083,0.010416667,1,0,0,1.2811,optionLeft,70,4160,2,32,0,32,0,1,,,,,,,,,,,,,,,,,,,,,,,,,,,,,,,,,,,,,,,
,,,,,,,,2023-08-16_08h23.30.891,HF_wild_card,2022.2.4,Win32,59.87306909,5f0ced9d5a17786fb11b7f47,64d2fd46c836a06233681665,64dc7896fef45566228a3d7e,,,,,,,ctch,resources/DBN.BMP,resources/DG.BMP,Door4,0.430989583,0.04296875,1,0,0,1.2495,optionRight,60,4220,2,33,0,33,0,1,,,,,,,,,,,,,,,,,,,,,,,,,,,,,,,,,,,,,,,
,,,,,,,,2023-08-16_08h23.30.891,HF_wild_card,2022.2.4,Win32,59.87306909,5f0ced9d5a17786fb11b7f47,64d2fd46c836a06233681665,64dc7896fef45566228a3d7e,,,,,,,decisionTrl,resources/DR.BMP,resources/DP.BMP,WildCard_NonEx,0.34375,-0.026041667,1,0,0,1.7692,optionRight,45,4265,2,34,0,34,0,1,,,,,,,,,,,,,,,,,,,,,,,,,,,,,,,,,,,,,,,
,,,,,,,,2023-08-16_08h23.30.891,HF_wild_card,2022.2.4,Win32,59.87306909,5f0ced9d5a17786fb11b7f47,64d2fd46c836a06233681665,64dc7896fef45566228a3d7e,,,,,,,decisionTrl,resources/DR.BMP,resources/DBN.BMP,Door1,0.298177083,0.032552083,1,0,0,3.0911,optionRight,30,4295,2,35,0,35,0,1,,,,,,,,,,,,,,,,,,,,,,,,,,,,,,,,,,,,,,,
,,,,,,,,2023-08-16_08h23.30.891,HF_wild_card,2022.2.4,Win32,59.87306909,5f0ced9d5a17786fb11b7f47,64d2fd46c836a06233681665,64dc7896fef45566228a3d7e,,,,,,,decisionTrl,resources/DG.BMP,resources/DY.BMP,Door4,-0.313802083,0.010416667,1,0,0,2.866,optionLeft,80,4375,2,36,0,36,0,1,,,,,,,,,,,,,,,,,,,,,,,,,,,,,,,,,,,,,,,
,,,,,,,,2023-08-16_08h23.30.891,HF_wild_card,2022.2.4,Win32,59.87306909,5f0ced9d5a17786fb11b7f47,64d2fd46c836a06233681665,64dc7896fef45566228a3d7e,,,,,,,ctch,resources/DBN.BMP,resources/DG.BMP,Door4,0.4765625,0.05859375,1,0,0,0.883,optionRight,80,4455,2,37,0,37,0,1,,,,,,,,,,,,,,,,,,,,,,,,,,,,,,,,,,,,,,,
,,,,,,,,2023-08-16_08h23.30.891,HF_wild_card,2022.2.4,Win32,59.87306909,5f0ced9d5a17786fb11b7f47,64d2fd46c836a06233681665,64dc7896fef45566228a3d7e,,,,,,,sngl,resources/DP.BMP,resources/Empty.png,WildCard_NonEx,-0.29296875,0,1,0,0,0.9474,optionLeft,55,4510,2,38,0,38,0,1,,,,,,,,,,,,,,,,,,,,,,,,,,,,,,,,,,,,,,,
,,,,,,,,2023-08-16_08h23.30.891,HF_wild_card,2022.2.4,Win32,59.87306909,5f0ced9d5a17786fb11b7f47,64d2fd46c836a06233681665,64dc7896fef45566228a3d7e,,,,,,,sngl,resources/Empty.png,resources/DY.BMP,Door3,0.325520833,0.01953125,1,0,0,0.881,optionRight,70,4580,2,39,0,39,0,1,,,,,,,,,,,,,,,,,,,,,,,,,,,,,,,,,,,,,,,
,,,,,,,,2023-08-16_08h23.30.891,HF_wild_card,2022.2.4,Win32,59.87306909,5f0ced9d5a17786fb11b7f47,64d2fd46c836a06233681665,64dc7896fef45566228a3d7e,,,,,,,sngl,resources/DG.BMP,resources/Empty.png,Door4,-0.380208333,0.020833333,1,0,0,0.7992,optionLeft,60,4640,2,40,0,40,0,1,,,,,,,,,,,,,,,,,,,,,,,,,,,,,,,,,,,,,,,
,,,,,,,,2023-08-16_08h23.30.891,HF_wild_card,2022.2.4,Win32,59.87306909,5f0ced9d5a17786fb11b7f47,64d2fd46c836a06233681665,64dc7896fef45566228a3d7e,,,,,,,sngl,resources/DY.BMP,resources/Empty.png,Door3,-0.251302083,-0.018229167,1,0,0,0.88,optionLeft,70,4710,2,41,0,41,0,1,,,,,,,,,,,,,,,,,,,,,,,,,,,,,,,,,,,,,,,
,,,,,,,,2023-08-16_08h23.30.891,HF_wild_card,2022.2.4,Win32,59.87306909,5f0ced9d5a17786fb11b7f47,64d2fd46c836a06233681665,64dc7896fef45566228a3d7e,,,,,,,decisionTrl,resources/DR.BMP,resources/DBN.BMP,Door1,0.342447917,0.0546875,1,0,0,1.7195,optionRight,30,4740,2,42,0,42,0,1,,,,,,,,,,,,,,,,,,,,,,,,,,,,,,,,,,,,,,,
,,,,,,,,2023-08-16_08h23.30.891,HF_wild_card,2022.2.4,Win32,59.87306909,5f0ced9d5a17786fb11b7f47,64d2fd46c836a06233681665,64dc7896fef45566228a3d7e,,,,,,,decisionTrl,resources/DY.BMP,resources/DP.BMP,Door3,-0.380208333,0.015625,1,0,0,1.637,optionLeft,70,4810,2,43,0,43,0,1,,,,,,,,,,,,,,,,,,,,,,,,,,,,,,,,,,,,,,,
,,,,,,,,2023-08-16_08h23.30.891,HF_wild_card,2022.2.4,Win32,59.87306909,5f0ced9d5a17786fb11b7f47,64d2fd46c836a06233681665,64dc7896fef45566228a3d7e,,,,,,,,,,,,,,,,,,,,,,,,,,1,0,1,0,1,,,,,,,,,,,,,,,,,,,,,,,,,,,,,,,,,,
,,,,,,,,2023-08-16_08h23.30.891,HF_wild_card,2022.2.4,Win32,59.87306909,5f0ced9d5a17786fb11b7f47,64d2fd46c836a06233681665,64dc7896fef45566228a3d7e,,,,,,,decisionTrl,resources/DY.BMP,resources/DG.BMP,Door3,-0.3359375,-0.071614583,1,0,0,3.0271,optionLeft,70,4880,3,0,0,0,0,1,,,,,,,,,,,,,,,,,,,,,,,,,,,,,,,,,,,,,,,
,,,,,,,,2023-08-16_08h23.30.891,HF_wild_card,2022.2.4,Win32,59.87306909,5f0ced9d5a17786fb11b7f47,64d2fd46c836a06233681665,64dc7896fef45566228a3d7e,,,,,,,ctch,resources/DR.BMP,resources/DY.BMP,Door3,0.432291667,0.072916667,1,0,0,0.9327,optionRight,70,4950,3,1,0,1,0,1,,,,,,,,,,,,,,,,,,,,,,,,,,,,,,,,,,,,,,,
,,,,,,,,2023-08-16_08h23.30.891,HF_wild_card,2022.2.4,Win32,59.87306909,5f0ced9d5a17786fb11b7f47,64d2fd46c836a06233681665,64dc7896fef45566228a3d7e,,,,,,,ctch,resources/DY.BMP,resources/DR.BMP,Door3,-0.3515625,-0.0390625,1,0,0,1.1511,optionLeft,70,5020,3,2,0,2,0,1,,,,,,,,,,,,,,,,,,,,,,,,,,,,,,,,,,,,,,,
,,,,,,,,2023-08-16_08h23.30.891,HF_wild_card,2022.2.4,Win32,59.87306909,5f0ced9d5a17786fb11b7f47,64d2fd46c836a06233681665,64dc7896fef45566228a3d7e,,,,,,,sngl,resources/DY.BMP,resources/Empty.png,Door3,-0.325520833,0.01171875,1,0,0,0.8054,optionLeft,70,5090,3,3,0,3,0,1,,,,,,,,,,,,,,,,,,,,,,,,,,,,,,,,,,,,,,,
,,,,,,,,2023-08-16_08h23.30.891,HF_wild_card,2022.2.4,Win32,59.87306909,5f0ced9d5a17786fb11b7f47,64d2fd46c836a06233681665,64dc7896fef45566228a3d7e,,,,,,,sngl,resources/Empty.png,resources/DR.BMP,Door2,0.451822917,0.037760417,1,0,0,0.8945,optionRight,20,5110,3,4,0,4,0,1,,,,,,,,,,,,,,,,,,,,,,,,,,,,,,,,,,,,,,,
,,,,,,,,2023-08-16_08h23.30.891,HF_wild_card,2022.2.4,Win32,59.87306909,5f0ced9d5a17786fb11b7f47,64d2fd46c836a06233681665,64dc7896fef45566228a3d7e,,,,,,,decisionTrl,resources/DY.BMP,resources/DG.BMP,Door3,-0.345052083,-0.026041667,1,0,0,1.0685,optionLeft,70,5180,3,5,0,5,0,1,,,,,,,,,,,,,,,,,,,,,,,,,,,,,,,,,,,,,,,
,,,,,,,,2023-08-16_08h23.30.891,HF_wild_card,2022.2.4,Win32,59.87306909,5f0ced9d5a17786fb11b7f47,64d2fd46c836a06233681665,64dc7896fef45566228a3d7e,,,,,,,sngl,resources/Empty.png,resources/DBN.BMP,Door1,0.368489583,0.01953125,1,0,0,0.9002,optionRight,30,5210,3,6,0,6,0,1,,,,,,,,,,,,,,,,,,,,,,,,,,,,,,,,,,,,,,,
,,,,,,,,2023-08-16_08h23.30.891,HF_wild_card,2022.2.4,Win32,59.87306909,5f0ced9d5a17786fb11b7f47,64d2fd46c836a06233681665,64dc7896fef45566228a3d7e,,,,,,,decisionTrl,resources/DR.BMP,resources/DBN.BMP,Door2,-0.325520833,0.001302083,1,0,0,3.4763,optionLeft,40,5250,3,7,0,7,0,1,,,,,,,,,,,,,,,,,,,,,,,,,,,,,,,,,,,,,,,
,,,,,,,,2023-08-16_08h23.30.891,HF_wild_card,2022.2.4,Win32,59.87306909,5f0ced9d5a17786fb11b7f47,64d2fd46c836a06233681665,64dc7896fef45566228a3d7e,,,,,,,ctch,resources/DY.BMP,resources/DR.BMP,Door3,-0.295572917,0,1,0,0,1.0824,optionLeft,70,5320,3,8,0,8,0,1,,,,,,,,,,,,,,,,,,,,,,,,,,,,,,,,,,,,,,,
,,,,,,,,2023-08-16_08h23.30.891,HF_wild_card,2022.2.4,Win32,59.87306909,5f0ced9d5a17786fb11b7f47,64d2fd46c836a06233681665,64dc7896fef45566228a3d7e,,,,,,,sngl,resources/DR.BMP,resources/Empty.png,Door2,-0.3515625,-0.01953125,1,0,0,0.9498,optionLeft,40,5360,3,9,0,9,0,1,,,,,,,,,,,,,,,,,,,,,,,,,,,,,,,,,,,,,,,
,,,,,,,,2023-08-16_08h23.30.891,HF_wild_card,2022.2.4,Win32,59.87306909,5f0ced9d5a17786fb11b7f47,64d2fd46c836a06233681665,64dc7896fef45566228a3d7e,,,,,,,decisionTrl,resources/DBN.BMP,resources/DR.BMP,Door2,0.391927083,0.03125,1,0,0,1.2176,optionRight,40,5400,3,10,0,10,0,1,,,,,,,,,,,,,,,,,,,,,,,,,,,,,,,,,,,,,,,
,,,,,,,,2023-08-16_08h23.30.891,HF_wild_card,2022.2.4,Win32,59.87306909,5f0ced9d5a17786fb11b7f47,64d2fd46c836a06233681665,64dc7896fef45566228a3d7e,,,,,,,sngl,resources/DP.BMP,resources/Empty.png,WildCard_NonEx,0.009114583,0.015625,1,0,0,0.0939,optionLeft,55,5455,3,11,0,11,0,1,,,,,,,,,,,,,,,,,,,,,,,,,,,,,,,,,,,,,,,
,,,,,,,,2023-08-16_08h23.30.891,HF_wild_card,2022.2.4,Win32,59.87306909,5f0ced9d5a17786fb11b7f47,64d2fd46c836a06233681665,64dc7896fef45566228a3d7e,,,,,,,decisionTrl,resources/DP.BMP,resources/DY.BMP,Door3,0.313802083,-0.009114583,1,0,0,1.3511,optionRight,70,5525,3,12,0,12,0,1,,,,,,,,,,,,,,,,,,,,,,,,,,,,,,,,,,,,,,,
,,,,,,,,2023-08-16_08h23.30.891,HF_wild_card,2022.2.4,Win32,59.87306909,5f0ced9d5a17786fb11b7f47,64d2fd46c836a06233681665,64dc7896fef45566228a3d7e,,,,,,,decisionTrl,resources/DG.BMP,resources/DY.BMP,Door4,-0.299479167,0.024739583,1,0,0,0.9177,optionLeft,80,5605,3,13,0,13,0,1,,,,,,,,,,,,,,,,,,,,,,,,,,,,,,,,,,,,,,,
,,,,,,,,2023-08-16_08h23.30.891,HF_wild_card,2022.2.4,Win32,59.87306909,5f0ced9d5a17786fb11b7f47,64d2fd46c836a06233681665,64dc7896fef45566228a3d7e,,,,,,,decisionTrl,resources/DP.BMP,resources/DR.BMP,WildCard_NonEx,-0.303385417,0.009114583,1,0,0,2.3725,optionLeft,45,5650,3,14,0,14,0,1,,,,,,,,,,,,,,,,,,,,,,,,,,,,,,,,,,,,,,,
,,,,,,,,2023-08-16_08h23.30.891,HF_wild_card,2022.2.4,Win32,59.87306909,5f0ced9d5a17786fb11b7f47,64d2fd46c836a06233681665,64dc7896fef45566228a3d7e,,,,,,,decisionTrl,resources/DP.BMP,resources/DBN.BMP,WildCard_NonEx,-0.334635417,-0.045572917,1,0,0,1.3865,optionLeft,55,5705,3,15,0,15,0,1,,,,,,,,,,,,,,,,,,,,,,,,,,,,,,,,,,,,,,,
,,,,,,,,2023-08-16_08h23.30.891,HF_wild_card,2022.2.4,Win32,59.87306909,5f0ced9d5a17786fb11b7f47,64d2fd46c836a06233681665,64dc7896fef45566228a3d7e,,,,,,,sngl,resources/Empty.png,resources/DY.BMP,Door3,0.360677083,0.024739583,1,0,0,0.9998,optionRight,70,5775,3,16,0,16,0,1,,,,,,,,,,,,,,,,,,,,,,,,,,,,,,,,,,,,,,,
,,,,,,,,2023-08-16_08h23.30.891,HF_wild_card,2022.2.4,Win32,59.87306909,5f0ced9d5a17786fb11b7f47,64d2fd46c836a06233681665,64dc7896fef45566228a3d7e,,,,,,,decisionTrl,resources/DBN.BMP,resources/DR.BMP,Door2,0.3125,0.00390625,1,0,0,1.9392,optionRight,40,5815,3,17,0,17,0,1,,,,,,,,,,,,,,,,,,,,,,,,,,,,,,,,,,,,,,,
,,,,,,,,2023-08-16_08h23.30.891,HF_wild_card,2022.2.4,Win32,59.87306909,5f0ced9d5a17786fb11b7f47,64d2fd46c836a06233681665,64dc7896fef45566228a3d7e,,,,,,,decisionTrl,resources/DR.BMP,resources/DBN.BMP,Door2,-0.352864583,-0.010416667,1,0,0,1.2782,optionLeft,20,5835,3,18,0,18,0,1,,,,,,,,,,,,,,,,,,,,,,,,,,,,,,,,,,,,,,,
,,,,,,,,2023-08-16_08h23.30.891,HF_wild_card,2022.2.4,Win32,59.87306909,5f0ced9d5a17786fb11b7f47,64d2fd46c836a06233681665,64dc7896fef45566228a3d7e,,,,,,,decisionTrl,resources/DY.BMP,resources/DG.BMP,Door4,0.393229167,0.052083333,1,0,0,1.7661,optionRight,80,5915,3,19,0,19,0,1,,,,,,,,,,,,,,,,,,,,,,,,,,,,,,,,,,,,,,,
,,,,,,,,2023-08-16_08h23.30.891,HF_wild_card,2022.2.4,Win32,59.87306909,5f0ced9d5a17786fb11b7f47,64d2fd46c836a06233681665,64dc7896fef45566228a3d7e,,,,,,,decisionTrl,resources/DR.BMP,resources/DBN.BMP,Door1,0.411458333,0.05078125,1,0,0,2.2562,optionRight,30,5945,3,20,0,20,0,1,,,,,,,,,,,,,,,,,,,,,,,,,,,,,,,,,,,,,,,
,,,,,,,,2023-08-16_08h23.30.891,HF_wild_card,2022.2.4,Win32,59.87306909,5f0ced9d5a17786fb11b7f47,64d2fd46c836a06233681665,64dc7896fef45566228a3d7e,,,,,,,decisionTrl,resources/DG.BMP,resources/DY.BMP,Door4,-0.352864583,0.0390625,1,0,0,2.2558,optionLeft,80,6025,3,21,0,21,0,1,,,,,,,,,,,,,,,,,,,,,,,,,,,,,,,,,,,,,,,
,,,,,,,,2023-08-16_08h23.30.891,HF_wild_card,2022.2.4,Win32,59.87306909,5f0ced9d5a17786fb11b7f47,64d2fd46c836a06233681665,64dc7896fef45566228a3d7e,,,,,,,decisionTrl,resources/DR.BMP,resources/DBN.BMP,Door1,0.325520833,0.05859375,1,0,0,1.7186,optionRight,30,6055,3,22,0,22,0,1,,,,,,,,,,,,,,,,,,,,,,,,,,,,,,,,,,,,,,,
,,,,,,,,2023-08-16_08h23.30.891,HF_wild_card,2022.2.4,Win32,59.87306909,5f0ced9d5a17786fb11b7f47,64d2fd46c836a06233681665,64dc7896fef45566228a3d7e,,,,,,,ctch,resources/DG.BMP,resources/DBN.BMP,Door4,-0.4140625,-0.048177083,1,0,0,1,optionLeft,60,6115,3,23,0,23,0,1,,,,,,,,,,,,,,,,,,,,,,,,,,,,,,,,,,,,,,,
,,,,,,,,2023-08-16_08h23.30.891,HF_wild_card,2022.2.4,Win32,59.87306909,5f0ced9d5a17786fb11b7f47,64d2fd46c836a06233681665,64dc7896fef45566228a3d7e,,,,,,,sngl,resources/DP.BMP,resources/Empty.png,WildCard_NonEx,-0.239583333,0.006510417,1,0,0,0.8658,optionLeft,45,6160,3,24,0,24,0,1,,,,,,,,,,,,,,,,,,,,,,,,,,,,,,,,,,,,,,,
,,,,,,,,2023-08-16_08h23.30.891,HF_wild_card,2022.2.4,Win32,59.87306909,5f0ced9d5a17786fb11b7f47,64d2fd46c836a06233681665,64dc7896fef45566228a3d7e,,,,,,,sngl,resources/Empty.png,resources/DP.BMP,WildCard_NonEx,0.268229167,0.01171875,1,0,0,0.8472,optionRight,45,6205,3,25,0,25,0,1,,,,,,,,,,,,,,,,,,,,,,,,,,,,,,,,,,,,,,,
,,,,,,,,2023-08-16_08h23.30.891,HF_wild_card,2022.2.4,Win32,59.87306909,5f0ced9d5a17786fb11b7f47,64d2fd46c836a06233681665,64dc7896fef45566228a3d7e,,,,,,,decisionTrl,resources/DBN.BMP,resources/DP.BMP,WildCard_NonEx,0.291666667,0.006510417,1,0,0,1.2969,optionRight,45,6250,3,26,0,26,0,1,,,,,,,,,,,,,,,,,,,,,,,,,,,,,,,,,,,,,,,
,,,,,,,,2023-08-16_08h23.30.891,HF_wild_card,2022.2.4,Win32,59.87306909,5f0ced9d5a17786fb11b7f47,64d2fd46c836a06233681665,64dc7896fef45566228a3d7e,,,,,,,decisionTrl,resources/DBN.BMP,resources/DR.BMP,Door1,-0.416666667,0.041666667,1,0,0,2.8574,optionLeft,30,6280,3,27,0,27,0,1,,,,,,,,,,,,,,,,,,,,,,,,,,,,,,,,,,,,,,,
,,,,,,,,2023-08-16_08h23.30.891,HF_wild_card,2022.2.4,Win32,59.87306909,5f0ced9d5a17786fb11b7f47,64d2fd46c836a06233681665,64dc7896fef45566228a3d7e,,,,,,,decisionTrl,resources/DY.BMP,resources/DP.BMP,Door3,-0.309895833,-0.01953125,1,0,0,1.9881,optionLeft,70,6350,3,28,0,28,0,1,,,,,,,,,,,,,,,,,,,,,,,,,,,,,,,,,,,,,,,
,,,,,,,,2023-08-16_08h23.30.891,HF_wild_card,2022.2.4,Win32,59.87306909,5f0ced9d5a17786fb11b7f47,64d2fd46c836a06233681665,64dc7896fef45566228a3d7e,,,,,,,decisionTrl,resources/DG.BMP,resources/DY.BMP,Door3,0.31640625,0.009114583,1,0,0,1.4813,optionRight,70,6420,3,29,0,29,0,1,,,,,,,,,,,,,,,,,,,,,,,,,,,,,,,,,,,,,,,
,,,,,,,,2023-08-16_08h23.30.891,HF_wild_card,2022.2.4,Win32,59.87306909,5f0ced9d5a17786fb11b7f47,64d2fd46c836a06233681665,64dc7896fef45566228a3d7e,,,,,,,ctch,resources/DBN.BMP,resources/DG.BMP,Door4,0.2578125,0.016927083,1,0,0,1.2813,optionRight,60,6480,3,30,0,30,0,1,,,,,,,,,,,,,,,,,,,,,,,,,,,,,,,,,,,,,,,
,,,,,,,,2023-08-16_08h23.30.891,HF_wild_card,2022.2.4,Win32,59.87306909,5f0ced9d5a17786fb11b7f47,64d2fd46c836a06233681665,64dc7896fef45566228a3d7e,,,,,,,ctch,resources/DG.BMP,resources/DBN.BMP,Door4,-0.403645833,0.013020833,1,0,0,1.8351,optionLeft,60,6540,3,31,0,31,0,1,,,,,,,,,,,,,,,,,,,,,,,,,,,,,,,,,,,,,,,
,,,,,,,,2023-08-16_08h23.30.891,HF_wild_card,2022.2.4,Win32,59.87306909,5f0ced9d5a17786fb11b7f47,64d2fd46c836a06233681665,64dc7896fef45566228a3d7e,,,,,,,sngl,resources/DBN.BMP,resources/Empty.png,Door1,-0.221354167,0.0625,1,0,0,1.0216,optionLeft,30,6570,3,32,0,32,0,1,,,,,,,,,,,,,,,,,,,,,,,,,,,,,,,,,,,,,,,
,,,,,,,,2023-08-16_08h23.30.891,HF_wild_card,2022.2.4,Win32,59.87306909,5f0ced9d5a17786fb11b7f47,64d2fd46c836a06233681665,64dc7896fef45566228a3d7e,,,,,,,decisionTrl,resources/DR.BMP,resources/DP.BMP,WildCard_NonEx,0.3125,-0.001302083,1,0,0,1.8348,optionRight,45,6615,3,33,0,33,0,1,,,,,,,,,,,,,,,,,,,,,,,,,,,,,,,,,,,,,,,
,,,,,,,,2023-08-16_08h23.30.891,HF_wild_card,2022.2.4,Win32,59.87306909,5f0ced9d5a17786fb11b7f47,64d2fd46c836a06233681665,64dc7896fef45566228a3d7e,,,,,,,sngl,resources/Empty.png,resources/DG.BMP,Door4,0.3046875,0.009114583,1,0,0,0.931,optionRight,60,6675,3,34,0,34,0,1,,,,,,,,,,,,,,,,,,,,,,,,,,,,,,,,,,,,,,,
,,,,,,,,2023-08-16_08h23.30.891,HF_wild_card,2022.2.4,Win32,59.87306909,5f0ced9d5a17786fb11b7f47,64d2fd46c836a06233681665,64dc7896fef45566228a3d7e,,,,,,,decisionTrl,resources/DBN.BMP,resources/DR.BMP,Door1,-0.377604167,0.005208333,1,0,0,1.8734,optionLeft,30,6705,3,35,0,35,0,1,,,,,,,,,,,,,,,,,,,,,,,,,,,,,,,,,,,,,,,
,,,,,,,,2023-08-16_08h23.30.891,HF_wild_card,2022.2.4,Win32,59.87306909,5f0ced9d5a17786fb11b7f47,64d2fd46c836a06233681665,64dc7896fef45566228a3d7e,,,,,,,decisionTrl,resources/DY.BMP,resources/DG.BMP,Door3,-0.25,0.03515625,1,0,0,2.2021,optionLeft,70,6775,3,36,0,36,0,1,,,,,,,,,,,,,,,,,,,,,,,,,,,,,,,,,,,,,,,
,,,,,,,,2023-08-16_08h23.30.891,HF_wild_card,2022.2.4,Win32,59.87306909,5f0ced9d5a17786fb11b7f47,64d2fd46c836a06233681665,64dc7896fef45566228a3d7e,,,,,,,ctch,resources/DBN.BMP,resources/DG.BMP,Door4,0.373697917,0.009114583,1,0,0,1.2523,optionRight,80,6855,3,37,0,37,0,1,,,,,,,,,,,,,,,,,,,,,,,,,,,,,,,,,,,,,,,
,,,,,,,,2023-08-16_08h23.30.891,HF_wild_card,2022.2.4,Win32,59.87306909,5f0ced9d5a17786fb11b7f47,64d2fd46c836a06233681665,64dc7896fef45566228a3d7e,,,,,,,ctch,resources/DR.BMP,resources/DY.BMP,Door3,0.342447917,0.02734375,1,0,0,2.0708,optionRight,70,6925,3,38,0,38,0,1,,,,,,,,,,,,,,,,,,,,,,,,,,,,,,,,,,,,,,,
,,,,,,,,2023-08-16_08h23.30.891,HF_wild_card,2022.2.4,Win32,59.87306909,5f0ced9d5a17786fb11b7f47,64d2fd46c836a06233681665,64dc7896fef45566228a3d7e,,,,,,,decisionTrl,resources/DG.BMP,resources/DP.BMP,Door4,-0.329427083,0.015625,1,0,0,2.241,optionLeft,60,6985,3,39,0,39,0,1,,,,,,,,,,,,,,,,,,,,,,,,,,,,,,,,,,,,,,,
,,,,,,,,2023-08-16_08h23.30.891,HF_wild_card,2022.2.4,Win32,59.87306909,5f0ced9d5a17786fb11b7f47,64d2fd46c836a06233681665,64dc7896fef45566228a3d7e,,,,,,,sngl,resources/DG.BMP,resources/Empty.png,Door4,-0.390625,0.0234375,1,0,0,0.8631,optionLeft,80,7065,3,40,0,40,0,1,,,,,,,,,,,,,,,,,,,,,,,,,,,,,,,,,,,,,,,
,,,,,,,,2023-08-16_08h23.30.891,HF_wild_card,2022.2.4,Win32,59.87306909,5f0ced9d5a17786fb11b7f47,64d2fd46c836a06233681665,64dc7896fef45566228a3d7e,,,,,,,sngl,resources/Empty.png,resources/DP.BMP,WildCard_NonEx,0.34765625,0.002604167,1,0,0,0.913,optionRight,55,7120,3,41,0,41,0,1,,,,,,,,,,,,,,,,,,,,,,,,,,,,,,,,,,,,,,,
,,,,,,,,2023-08-16_08h23.30.891,HF_wild_card,2022.2.4,Win32,59.87306909,5f0ced9d5a17786fb11b7f47,64d2fd46c836a06233681665,64dc7896fef45566228a3d7e,,,,,,,decisionTrl,resources/DG.BMP,resources/DY.BMP,Door4,-0.365885417,0.026041667,1,0,0,1.4139,optionLeft,80,7200,3,42,0,42,0,1,,,,,,,,,,,,,,,,,,,,,,,,,,,,,,,,,,,,,,,
,,,,,,,,2023-08-16_08h23.30.891,HF_wild_card,2022.2.4,Win32,59.87306909,5f0ced9d5a17786fb11b7f47,64d2fd46c836a06233681665,64dc7896fef45566228a3d7e,,,,,,,decisionTrl,resources/DP.BMP,resources/DG.BMP,Door4,0.264322917,0.005208333,1,0,0,1.3158,optionRight,60,7260,3,43,0,43,0,1,,,,,,,,,,,,,,,,,,,,,,,,,,,,,,,,,,,,,,,
,,,,,,,,2023-08-16_08h23.30.891,HF_wild_card,2022.2.4,Win32,59.87306909,5f0ced9d5a17786fb11b7f47,64d2fd46c836a06233681665,64dc7896fef45566228a3d7e,,,,,,,,,,,,,,,,,,,,,,,,,,2,0,2,0,1,,,,,,,,,,,,,,,,,,,,,,,,,,,,,,,,,,
,,,,,,,,2023-08-16_08h23.30.891,HF_wild_card,2022.2.4,Win32,59.87306909,5f0ced9d5a17786fb11b7f47,64d2fd46c836a06233681665,64dc7896fef45566228a3d7e,,,,,,,ctch,resources/DBN.BMP,resources/DG.BMP,Door4,0.33203125,-0.108072917,1,0,0,1.1216,optionRight,80,7340,4,0,0,0,0,1,,,,,,,,,,,,,,,,,,,,,,,,,,,,,,,,,,,,,,,
,,,,,,,,2023-08-16_08h23.30.891,HF_wild_card,2022.2.4,Win32,59.87306909,5f0ced9d5a17786fb11b7f47,64d2fd46c836a06233681665,64dc7896fef45566228a3d7e,,,,,,,decisionTrl,resources/DR.BMP,resources/DBN.BMP,Door1,0.26953125,0.032552083,1,0,0,1.9552,optionRight,30,7370,4,1,0,1,0,1,,,,,,,,,,,,,,,,,,,,,,,,,,,,,,,,,,,,,,,
,,,,,,,,2023-08-16_08h23.30.891,HF_wild_card,2022.2.4,Win32,59.87306909,5f0ced9d5a17786fb11b7f47,64d2fd46c836a06233681665,64dc7896fef45566228a3d7e,,,,,,,decisionTrl,resources/DBN.BMP,resources/DR.BMP,Door1,-0.209635417,0.029947917,1,0,0,1.6859,optionLeft,30,7400,4,2,0,2,0,1,,,,,,,,,,,,,,,,,,,,,,,,,,,,,,,,,,,,,,,
,,,,,,,,2023-08-16_08h23.30.891,HF_wild_card,2022.2.4,Win32,59.87306909,5f0ced9d5a17786fb11b7f47,64d2fd46c836a06233681665,64dc7896fef45566228a3d7e,,,,,,,decisionTrl,resources/DB.BMP,resources/DR.BMP,WildCard_Ex,-0.330729167,0.001302083,1,0,0,1.5683,optionLeft,5,7405,4,3,0,3,0,1,,,,,,,,,,,,,,,,,,,,,,,,,,,,,,,,,,,,,,,
,,,,,,,,2023-08-16_08h23.30.891,HF_wild_card,2022.2.4,Win32,59.87306909,5f0ced9d5a17786fb11b7f47,64d2fd46c836a06233681665,64dc7896fef45566228a3d7e,,,,,,,sngl,resources/Empty.png,resources/DG.BMP,Door4,0.40234375,0.05078125,1,0,0,1.1337,optionRight,80,7485,4,4,0,4,0,1,,,,,,,,,,,,,,,,,,,,,,,,,,,,,,,,,,,,,,,
,,,,,,,,2023-08-16_08h23.30.891,HF_wild_card,2022.2.4,Win32,59.87306909,5f0ced9d5a17786fb11b7f47,64d2fd46c836a06233681665,64dc7896fef45566228a3d7e,,,,,,,decisionTrl,resources/DBN.BMP,resources/DR.BMP,Door1,-0.354166667,0.046875,1,0,0,1.9141,optionLeft,30,7515,4,5,0,5,0,1,,,,,,,,,,,,,,,,,,,,,,,,,,,,,,,,,,,,,,,
,,,,,,,,2023-08-16_08h23.30.891,HF_wild_card,2022.2.4,Win32,59.87306909,5f0ced9d5a17786fb11b7f47,64d2fd46c836a06233681665,64dc7896fef45566228a3d7e,,,,,,,decisionTrl,resources/DBN.BMP,resources/DR.BMP,Door1,-0.334635417,0.036458333,1,0,0,1.6526,optionLeft,30,7545,4,6,0,6,0,1,,,,,,,,,,,,,,,,,,,,,,,,,,,,,,,,,,,,,,,
,,,,,,,,2023-08-16_08h23.30.891,HF_wild_card,2022.2.4,Win32,59.87306909,5f0ced9d5a17786fb11b7f47,64d2fd46c836a06233681665,64dc7896fef45566228a3d7e,,,,,,,decisionTrl,resources/DBN.BMP,resources/DB.BMP,Door1,-0.36328125,0.03125,1,0,0,1.1675,optionLeft,30,7575,4,7,0,7,0,1,,,,,,,,,,,,,,,,,,,,,,,,,,,,,,,,,,,,,,,
,,,,,,,,2023-08-16_08h23.30.891,HF_wild_card,2022.2.4,Win32,59.87306909,5f0ced9d5a17786fb11b7f47,64d2fd46c836a06233681665,64dc7896fef45566228a3d7e,,,,,,,decisionTrl,resources/DY.BMP,resources/DG.BMP,Door4,0.401041667,0.061197917,1,0,0,2.6006,optionRight,60,7635,4,8,0,8,0,1,,,,,,,,,,,,,,,,,,,,,,,,,,,,,,,,,,,,,,,
,,,,,,,,2023-08-16_08h23.30.891,HF_wild_card,2022.2.4,Win32,59.87306909,5f0ced9d5a17786fb11b7f47,64d2fd46c836a06233681665,64dc7896fef45566228a3d7e,,,,,,,decisionTrl,resources/DY.BMP,resources/DG.BMP,Door3,-0.35546875,0.006510417,1,0,0,1.1652,optionLeft,70,7705,4,9,0,9,0,1,,,,,,,,,,,,,,,,,,,,,,,,,,,,,,,,,,,,,,,
,,,,,,,,2023-08-16_08h23.30.891,HF_wild_card,2022.2.4,Win32,59.87306909,5f0ced9d5a17786fb11b7f47,64d2fd46c836a06233681665,64dc7896fef45566228a3d7e,,,,,,,sngl,resources/Empty.png,resources/DBN.BMP,Door1,0.294270833,0.024739583,1,0,0,1.1345,optionRight,30,7735,4,10,0,10,0,1,,,,,,,,,,,,,,,,,,,,,,,,,,,,,,,,,,,,,,,
,,,,,,,,2023-08-16_08h23.30.891,HF_wild_card,2022.2.4,Win32,59.87306909,5f0ced9d5a17786fb11b7f47,64d2fd46c836a06233681665,64dc7896fef45566228a3d7e,,,,,,,decisionTrl,resources/DBN.BMP,resources/DR.BMP,Door1,-0.348958333,0.079427083,1,0,0,2.1052,optionLeft,30,7765,4,11,0,11,0,1,,,,,,,,,,,,,,,,,,,,,,,,,,,,,,,,,,,,,,,
,,,,,,,,2023-08-16_08h23.30.891,HF_wild_card,2022.2.4,Win32,59.87306909,5f0ced9d5a17786fb11b7f47,64d2fd46c836a06233681665,64dc7896fef45566228a3d7e,,,,,,,decisionTrl,resources/DG.BMP,resources/DY.BMP,Door4,-0.46484375,0.001302083,1,0,0,1.949,optionLeft,60,7825,4,12,0,12,0,1,,,,,,,,,,,,,,,,,,,,,,,,,,,,,,,,,,,,,,,
,,,,,,,,2023-08-16_08h23.30.891,HF_wild_card,2022.2.4,Win32,59.87306909,5f0ced9d5a17786fb11b7f47,64d2fd46c836a06233681665,64dc7896fef45566228a3d7e,,,,,,,sngl,resources/DY.BMP,resources/Empty.png,Door3,-0.30078125,0.032552083,1,0,0,0.9198,optionLeft,70,7895,4,13,0,13,0,1,,,,,,,,,,,,,,,,,,,,,,,,,,,,,,,,,,,,,,,
,,,,,,,,2023-08-16_08h23.30.891,HF_wild_card,2022.2.4,Win32,59.87306909,5f0ced9d5a17786fb11b7f47,64d2fd46c836a06233681665,64dc7896fef45566228a3d7e,,,,,,,sngl,resources/DB.BMP,resources/Empty.png,WildCard_Ex,-0.348958333,0.005208333,1,0,0,1.3463,optionLeft,5,7900,4,14,0,14,0,1,,,,,,,,,,,,,,,,,,,,,,,,,,,,,,,,,,,,,,,
,,,,,,,,2023-08-16_08h23.30.891,HF_wild_card,2022.2.4,Win32,59.87306909,5f0ced9d5a17786fb11b7f47,64d2fd46c836a06233681665,64dc7896fef45566228a3d7e,,,,,,,ctch,resources/DBN.BMP,resources/DG.BMP,Door4,0.296875,0.05859375,1,0,0,1.4345,optionRight,80,7980,4,15,0,15,0,1,,,,,,,,,,,,,,,,,,,,,,,,,,,,,,,,,,,,,,,
,,,,,,,,2023-08-16_08h23.30.891,HF_wild_card,2022.2.4,Win32,59.87306909,5f0ced9d5a17786fb11b7f47,64d2fd46c836a06233681665,64dc7896fef45566228a3d7e,,,,,,,ctch,resources/DR.BMP,resources/DY.BMP,Door3,0.389322917,0.0859375,1,0,0,1.7682,optionRight,70,8050,4,16,0,16,0,1,,,,,,,,,,,,,,,,,,,,,,,,,,,,,,,,,,,,,,,
,,,,,,,,2023-08-16_08h23.30.891,HF_wild_card,2022.2.4,Win32,59.87306909,5f0ced9d5a17786fb11b7f47,64d2fd46c836a06233681665,64dc7896fef45566228a3d7e,,,,,,,ctch,resources/DY.BMP,resources/DR.BMP,Door3,-0.450520833,-0.0078125,1,0,0,1.2162,optionLeft,70,8120,4,17,0,17,0,1,,,,,,,,,,,,,,,,,,,,,,,,,,,,,,,,,,,,,,,
,,,,,,,,2023-08-16_08h23.30.891,HF_wild_card,2022.2.4,Win32,59.87306909,5f0ced9d5a17786fb11b7f47,64d2fd46c836a06233681665,64dc7896fef45566228a3d7e,,,,,,,decisionTrl,resources/DB.BMP,resources/DG.BMP,Door4,0.33203125,-0.00390625,1,0,0,1.1839,optionRight,60,8180,4,18,0,18,0,1,,,,,,,,,,,,,,,,,,,,,,,,,,,,,,,,,,,,,,,
,,,,,,,,2023-08-16_08h23.30.891,HF_wild_card,2022.2.4,Win32,59.87306909,5f0ced9d5a17786fb11b7f47,64d2fd46c836a06233681665,64dc7896fef45566228a3d7e,,,,,,,decisionTrl,resources/DR.BMP,resources/DBN.BMP,Door1,0.342447917,0.053385417,1,0,0,2.2872,optionRight,30,8210,4,19,0,19,0,1,,,,,,,,,,,,,,,,,,,,,,,,,,,,,,,,,,,,,,,
,,,,,,,,2023-08-16_08h23.30.891,HF_wild_card,2022.2.4,Win32,59.87306909,5f0ced9d5a17786fb11b7f47,64d2fd46c836a06233681665,64dc7896fef45566228a3d7e,,,,,,,sngl,resources/DR.BMP,resources/Empty.png,Door2,-0.365885417,-0.00390625,1,0,0,0.9648,optionLeft,20,8230,4,20,0,20,0,1,,,,,,,,,,,,,,,,,,,,,,,,,,,,,,,,,,,,,,,
,,,,,,,,2023-08-16_08h23.30.891,HF_wild_card,2022.2.4,Win32,59.87306909,5f0ced9d5a17786fb11b7f47,64d2fd46c836a06233681665,64dc7896fef45566228a3d7e,,,,,,,decisionTrl,resources/DB.BMP,resources/DY.BMP,Door3,0.330729167,0.014322917,1,0,0,1.1659,optionRight,70,8300,4,21,0,21,0,1,,,,,,,,,,,,,,,,,,,,,,,,,,,,,,,,,,,,,,,
,,,,,,,,2023-08-16_08h23.30.891,HF_wild_card,2022.2.4,Win32,59.87306909,5f0ced9d5a17786fb11b7f47,64d2fd46c836a06233681665,64dc7896fef45566228a3d7e,,,,,,,sngl,resources/Empty.png,resources/DB.BMP,WildCard_Ex,0.321614583,0.022135417,1,0,0,1.3002,optionRight,95,8395,4,22,0,22,0,1,,,,,,,,,,,,,,,,,,,,,,,,,,,,,,,,,,,,,,,
,,,,,,,,2023-08-16_08h23.30.891,HF_wild_card,2022.2.4,Win32,59.87306909,5f0ced9d5a17786fb11b7f47,64d2fd46c836a06233681665,64dc7896fef45566228a3d7e,,,,,,,sngl,resources/DBN.BMP,resources/Empty.png,Door1,-0.390625,0.076822917,1,0,0,0.9476,optionLeft,30,8425,4,23,0,23,0,1,,,,,,,,,,,,,,,,,,,,,,,,,,,,,,,,,,,,,,,
,,,,,,,,2023-08-16_08h23.30.891,HF_wild_card,2022.2.4,Win32,59.87306909,5f0ced9d5a17786fb11b7f47,64d2fd46c836a06233681665,64dc7896fef45566228a3d7e,,,,,,,decisionTrl,resources/DG.BMP,resources/DY.BMP,Door4,-0.272135417,0.001302083,1,0,0,1.87,optionLeft,60,8485,4,24,0,24,0,1,,,,,,,,,,,,,,,,,,,,,,,,,,,,,,,,,,,,,,,
,,,,,,,,2023-08-16_08h23.30.891,HF_wild_card,2022.2.4,Win32,59.87306909,5f0ced9d5a17786fb11b7f47,64d2fd46c836a06233681665,64dc7896fef45566228a3d7e,,,,,,,ctch,resources/DG.BMP,resources/DBN.BMP,Door4,-0.36328125,0.001302083,1,0,0,1.3477,optionLeft,80,8565,4,25,0,25,0,1,,,,,,,,,,,,,,,,,,,,,,,,,,,,,,,,,,,,,,,
,,,,,,,,2023-08-16_08h23.30.891,HF_wild_card,2022.2.4,Win32,59.87306909,5f0ced9d5a17786fb11b7f47,64d2fd46c836a06233681665,64dc7896fef45566228a3d7e,,,,,,,sngl,resources/Empty.png,resources/DB.BMP,WildCard_Ex,0.322916667,0.002604167,1,0,0,1.071,optionRight,5,8570,4,26,0,26,0,1,,,,,,,,,,,,,,,,,,,,,,,,,,,,,,,,,,,,,,,
,,,,,,,,2023-08-16_08h23.30.891,HF_wild_card,2022.2.4,Win32,59.87306909,5f0ced9d5a17786fb11b7f47,64d2fd46c836a06233681665,64dc7896fef45566228a3d7e,,,,,,,decisionTrl,resources/DY.BMP,resources/DG.BMP,Door3,-0.369791667,-0.016927083,1,0,0,2.8364,optionLeft,70,8640,4,27,0,27,0,1,,,,,,,,,,,,,,,,,,,,,,,,,,,,,,,,,,,,,,,
,,,,,,,,2023-08-16_08h23.30.891,HF_wild_card,2022.2.4,Win32,59.87306909,5f0ced9d5a17786fb11b7f47,64d2fd46c836a06233681665,64dc7896fef45566228a3d7e,,,,,,,ctch,resources/DY.BMP,resources/DR.BMP,Door3,-0.32421875,0.048177083,1,0,0,1.4355,optionLeft,70,8710,4,28,0,28,0,1,,,,,,,,,,,,,,,,,,,,,,,,,,,,,,,,,,,,,,,
,,,,,,,,2023-08-16_08h23.30.891,HF_wild_card,2022.2.4,Win32,59.87306909,5f0ced9d5a17786fb11b7f47,64d2fd46c836a06233681665,64dc7896fef45566228a3d7e,,,,,,,sngl,resources/Empty.png,resources/DY.BMP,Door3,0.33984375,0.026041667,1,0,0,0.8814,optionRight,70,8780,4,29,0,29,0,1,,,,,,,,,,,,,,,,,,,,,,,,,,,,,,,,,,,,,,,
,,,,,,,,2023-08-16_08h23.30.891,HF_wild_card,2022.2.4,Win32,59.87306909,5f0ced9d5a17786fb11b7f47,64d2fd46c836a06233681665,64dc7896fef45566228a3d7e,,,,,,,decisionTrl,resources/DR.BMP,resources/DBN.BMP,Door1,0.337239583,0.055989583,1,0,0,1.8682,optionRight,30,8810,4,30,0,30,0,1,,,,,,,,,,,,,,,,,,,,,,,,,,,,,,,,,,,,,,,
,,,,,,,,2023-08-16_08h23.30.891,HF_wild_card,2022.2.4,Win32,59.87306909,5f0ced9d5a17786fb11b7f47,64d2fd46c836a06233681665,64dc7896fef45566228a3d7e,,,,,,,ctch,resources/DR.BMP,resources/DY.BMP,Door3,0.302083333,0.0078125,1,0,0,1.7192,optionRight,70,8880,4,31,0,31,0,1,,,,,,,,,,,,,,,,,,,,,,,,,,,,,,,,,,,,,,,
,,,,,,,,2023-08-16_08h23.30.891,HF_wild_card,2022.2.4,Win32,59.87306909,5f0ced9d5a17786fb11b7f47,64d2fd46c836a06233681665,64dc7896fef45566228a3d7e,,,,,,,decisionTrl,resources/DB.BMP,resources/DBN.BMP,WildCard_Ex,0.014322917,-0.013020833,1,0,0,0.1941,optionLeft,95,8975,4,32,0,32,0,1,,,,,,,,,,,,,,,,,,,,,,,,,,,,,,,,,,,,,,,
,,,,,,,,2023-08-16_08h23.30.891,HF_wild_card,2022.2.4,Win32,59.87306909,5f0ced9d5a17786fb11b7f47,64d2fd46c836a06233681665,64dc7896fef45566228a3d7e,,,,,,,decisionTrl,resources/DG.BMP,resources/DY.BMP,Door4,-0.283854167,0.037760417,1,0,0,2.2696,optionLeft,80,9055,4,33,0,33,0,1,,,,,,,,,,,,,,,,,,,,,,,,,,,,,,,,,,,,,,,
,,,,,,,,2023-08-16_08h23.30.891,HF_wild_card,2022.2.4,Win32,59.87306909,5f0ced9d5a17786fb11b7f47,64d2fd46c836a06233681665,64dc7896fef45566228a3d7e,,,,,,,ctch,resources/DG.BMP,resources/DBN.BMP,Door4,-0.395833333,0.02734375,1,0,0,1.0139,optionLeft,60,9115,4,34,0,34,0,1,,,,,,,,,,,,,,,,,,,,,,,,,,,,,,,,,,,,,,,
,,,,,,,,2023-08-16_08h23.30.891,HF_wild_card,2022.2.4,Win32,59.87306909,5f0ced9d5a17786fb11b7f47,64d2fd46c836a06233681665,64dc7896fef45566228a3d7e,,,,,,,decisionTrl,resources/DR.BMP,resources/DBN.BMP,Door1,0.298177083,0.048177083,1,0,0,2.5552,optionRight,30,9145,4,35,0,35,0,1,,,,,,,,,,,,,,,,,,,,,,,,,,,,,,,,,,,,,,,
,,,,,,,,2023-08-16_08h23.30.891,HF_wild_card,2022.2.4,Win32,59.87306909,5f0ced9d5a17786fb11b7f47,64d2fd46c836a06233681665,64dc7896fef45566228a3d7e,,,,,,,decisionTrl,resources/DY.BMP,resources/DG.BMP,Door3,-0.34375,0.0390625,1,0,0,1.2137,optionLeft,70,9215,4,36,0,36,0,1,,,,,,,,,,,,,,,,,,,,,,,,,,,,,,,,,,,,,,,
,,,,,,,,2023-08-16_08h23.30.891,HF_wild_card,2022.2.4,Win32,59.87306909,5f0ced9d5a17786fb11b7f47,64d2fd46c836a06233681665,64dc7896fef45566228a3d7e,,,,,,,decisionTrl,resources/DG.BMP,resources/DY.BMP,Door4,-0.33984375,0.0390625,1,0,0,1.8882,optionLeft,80,9295,4,37,0,37,0,1,,,,,,,,,,,,,,,,,,,,,,,,,,,,,,,,,,,,,,,
,,,,,,,,2023-08-16_08h23.30.891,HF_wild_card,2022.2.4,Win32,59.87306909,5f0ced9d5a17786fb11b7f47,64d2fd46c836a06233681665,64dc7896fef45566228a3d7e,,,,,,,decisionTrl,resources/DY.BMP,resources/DB.BMP,Door3,-0.26953125,0.009114583,1,0,0,1.7699,optionLeft,70,9365,4,38,0,38,0,1,,,,,,,,,,,,,,,,,,,,,,,,,,,,,,,,,,,,,,,
,,,,,,,,2023-08-16_08h23.30.891,HF_wild_card,2022.2.4,Win32,59.87306909,5f0ced9d5a17786fb11b7f47,64d2fd46c836a06233681665,64dc7896fef45566228a3d7e,,,,,,,sngl,resources/DG.BMP,resources/Empty.png,Door4,-0.311197917,0.022135417,1,0,0,1.0015,optionLeft,60,9425,4,39,0,39,0,1,,,,,,,,,,,,,,,,,,,,,,,,,,,,,,,,,,,,,,,
,,,,,,,,2023-08-16_08h23.30.891,HF_wild_card,2022.2.4,Win32,59.87306909,5f0ced9d5a17786fb11b7f47,64d2fd46c836a06233681665,64dc7896fef45566228a3d7e,,,,,,,decisionTrl,resources/DR.BMP,resources/DB.BMP,WildCard_Ex,0.388020833,0.010416667,1,0,0,2.7027,optionRight,5,9430,4,40,0,40,0,1,,,,,,,,,,,,,,,,,,,,,,,,,,,,,,,,,,,,,,,
,,,,,,,,2023-08-16_08h23.30.891,HF_wild_card,2022.2.4,Win32,59.87306909,5f0ced9d5a17786fb11b7f47,64d2fd46c836a06233681665,64dc7896fef45566228a3d7e,,,,,,,decisionTrl,resources/DG.BMP,resources/DB.BMP,WildCard_Ex,0.38671875,0.092447917,1,0,0,1.2861,optionRight,95,9525,4,41,0,41,0,1,,,,,,,,,,,,,,,,,,,,,,,,,,,,,,,,,,,,,,,
,,,,,,,,2023-08-16_08h23.30.891,HF_wild_card,2022.2.4,Win32,59.87306909,5f0ced9d5a17786fb11b7f47,64d2fd46c836a06233681665,64dc7896fef45566228a3d7e,,,,,,,sngl,resources/DB.BMP,resources/Empty.png,WildCard_Ex,-0.372395833,-0.006510417,1,0,0,1.2791,optionLeft,95,9620,4,42,0,42,0,1,,,,,,,,,,,,,,,,,,,,,,,,,,,,,,,,,,,,,,,
,,,,,,,,2023-08-16_08h23.30.891,HF_wild_card,2022.2.4,Win32,59.87306909,5f0ced9d5a17786fb11b7f47,64d2fd46c836a06233681665,64dc7896fef45566228a3d7e,,,,,,,sngl,resources/Empty.png,resources/DR.BMP,Door2,0.35546875,-0.001302083,1,0,0,7.3901,optionRight,40,9660,4,43,0,43,0,1,,,,,,,,,,,,,,,,,,,,,,,,,,,,,,,,,,,,,,,
,,,,,,,,2023-08-16_08h23.30.891,HF_wild_card,2022.2.4,Win32,59.87306909,5f0ced9d5a17786fb11b7f47,64d2fd46c836a06233681665,64dc7896fef45566228a3d7e,,,,,,,,,,,,,,,,,,,,,,,,,,3,0,3,0,1,,,,,,,,,,,,,,,,,,,,,,,,,,,,,,,,,,
,,,,,,,,2023-08-16_08h23.30.891,HF_wild_card,2022.2.4,Win32,59.87306909,5f0ced9d5a17786fb11b7f47,64d2fd46c836a06233681665,64dc7896fef45566228a3d7e,,,,,,,decisionTrl,resources/DB.BMP,resources/DBN.BMP,WildCard_Ex,-0.365885417,-0.084635417,1,0,0,2.1143,optionLeft,5,9665,5,0,0,0,0,1,,,,,,,,,,,,,,,,,,,,,,,,,,,,,,,,,,,,,,,
,,,,,,,,2023-08-16_08h23.30.891,HF_wild_card,2022.2.4,Win32,59.87306909,5f0ced9d5a17786fb11b7f47,64d2fd46c836a06233681665,64dc7896fef45566228a3d7e,,,,,,,sngl,resources/Empty.png,resources/DB.BMP,WildCard_Ex,0.295572917,-0.00390625,1,0,0,0.9318,optionRight,95,9760,5,1,0,1,0,1,,,,,,,,,,,,,,,,,,,,,,,,,,,,,,,,,,,,,,,
,,,,,,,,2023-08-16_08h23.30.891,HF_wild_card,2022.2.4,Win32,59.87306909,5f0ced9d5a17786fb11b7f47,64d2fd46c836a06233681665,64dc7896fef45566228a3d7e,,,,,,,sngl,resources/DBN.BMP,resources/Empty.png,Door1,-0.41015625,0.049479167,1,0,0,1.2014,optionLeft,30,9790,5,2,0,2,0,1,,,,,,,,,,,,,,,,,,,,,,,,,,,,,,,,,,,,,,,
,,,,,,,,2023-08-16_08h23.30.891,HF_wild_card,2022.2.4,Win32,59.87306909,5f0ced9d5a17786fb11b7f47,64d2fd46c836a06233681665,64dc7896fef45566228a3d7e,,,,,,,decisionTrl,resources/DR.BMP,resources/DBN.BMP,Door2,-0.317708333,-0.00390625,1,0,0,2.711,optionLeft,20,9810,5,3,0,3,0,1,,,,,,,,,,,,,,,,,,,,,,,,,,,,,,,,,,,,,,,
,,,,,,,,2023-08-16_08h23.30.891,HF_wild_card,2022.2.4,Win32,59.87306909,5f0ced9d5a17786fb11b7f47,64d2fd46c836a06233681665,64dc7896fef45566228a3d7e,,,,,,,sngl,resources/Empty.png,resources/DBN.BMP,Door1,0.3671875,0.046875,1,0,0,0.9639,optionRight,30,9840,5,4,0,4,0,1,,,,,,,,,,,,,,,,,,,,,,,,,,,,,,,,,,,,,,,
,,,,,,,,2023-08-16_08h23.30.891,HF_wild_card,2022.2.4,Win32,59.87306909,5f0ced9d5a17786fb11b7f47,64d2fd46c836a06233681665,64dc7896fef45566228a3d7e,,,,,,,ctch,resources/DG.BMP,resources/DBN.BMP,Door4,-0.350260417,0.016927083,1,0,0,1.448,optionLeft,80,9920,5,5,0,5,0,1,,,,,,,,,,,,,,,,,,,,,,,,,,,,,,,,,,,,,,,
,,,,,,,,2023-08-16_08h23.30.891,HF_wild_card,2022.2.4,Win32,59.87306909,5f0ced9d5a17786fb11b7f47,64d2fd46c836a06233681665,64dc7896fef45566228a3d7e,,,,,,,sngl,resources/Empty.png,resources/DG.BMP,Door4,0.369791667,0.010416667,1,0,0,0.8755,optionRight,60,9980,5,6,0,6,0,1,,,,,,,,,,,,,,,,,,,,,,,,,,,,,,,,,,,,,,,
,,,,,,,,2023-08-16_08h23.30.891,HF_wild_card,2022.2.4,Win32,59.87306909,5f0ced9d5a17786fb11b7f47,64d2fd46c836a06233681665,64dc7896fef45566228a3d7e,,,,,,,sngl,resources/DR.BMP,resources/Empty.png,Door2,-0.358072917,-0.01953125,1,0,0,1.1116,optionLeft,40,10020,5,7,0,7,0,1,,,,,,,,,,,,,,,,,,,,,,,,,,,,,,,,,,,,,,,
,,,,,,,,2023-08-16_08h23.30.891,HF_wild_card,2022.2.4,Win32,59.87306909,5f0ced9d5a17786fb11b7f47,64d2fd46c836a06233681665,64dc7896fef45566228a3d7e,,,,,,,ctch,resources/DY.BMP,resources/DR.BMP,Door3,-0.377604167,-0.022135417,1,0,0,1.3184,optionLeft,70,10090,5,8,0,8,0,1,,,,,,,,,,,,,,,,,,,,,,,,,,,,,,,,,,,,,,,
,,,,,,,,2023-08-16_08h23.30.891,HF_wild_card,2022.2.4,Win32,59.87306909,5f0ced9d5a17786fb11b7f47,64d2fd46c836a06233681665,64dc7896fef45566228a3d7e,,,,,,,decisionTrl,resources/DY.BMP,resources/DG.BMP,Door4,0.30078125,0.065104167,1,0,0,2.0684,optionRight,80,10170,5,9,0,9,0,1,,,,,,,,,,,,,,,,,,,,,,,,,,,,,,,,,,,,,,,
,,,,,,,,2023-08-16_08h23.30.891,HF_wild_card,2022.2.4,Win32,59.87306909,5f0ced9d5a17786fb11b7f47,64d2fd46c836a06233681665,64dc7896fef45566228a3d7e,,,,,,,decisionTrl,resources/DG.BMP,resources/DY.BMP,Door4,-0.365885417,-0.00390625,1,0,0,1.2345,optionLeft,80,10250,5,10,0,10,0,1,,,,,,,,,,,,,,,,,,,,,,,,,,,,,,,,,,,,,,,
,,,,,,,,2023-08-16_08h23.30.891,HF_wild_card,2022.2.4,Win32,59.87306909,5f0ced9d5a17786fb11b7f47,64d2fd46c836a06233681665,64dc7896fef45566228a3d7e,,,,,,,ctch,resources/DBN.BMP,resources/DG.BMP,Door4,0.388020833,0.022135417,1,0,0,1.2949,optionRight,60,10310,5,11,0,11,0,1,,,,,,,,,,,,,,,,,,,,,,,,,,,,,,,,,,,,,,,
,,,,,,,,2023-08-16_08h23.30.891,HF_wild_card,2022.2.4,Win32,59.87306909,5f0ced9d5a17786fb11b7f47,64d2fd46c836a06233681665,64dc7896fef45566228a3d7e,,,,,,,ctch,resources/DG.BMP,resources/DBN.BMP,Door4,-0.32421875,-0.005208333,1,0,0,1.3969,optionLeft,80,10390,5,12,0,12,0,1,,,,,,,,,,,,,,,,,,,,,,,,,,,,,,,,,,,,,,,
,,,,,,,,2023-08-16_08h23.30.891,HF_wild_card,2022.2.4,Win32,59.87306909,5f0ced9d5a17786fb11b7f47,64d2fd46c836a06233681665,64dc7896fef45566228a3d7e,,,,,,,sngl,resources/Empty.png,resources/DR.BMP,Door2,0.342447917,-0.015625,1,0,0,1.132,optionRight,20,10410,5,13,0,13,0,1,,,,,,,,,,,,,,,,,,,,,,,,,,,,,,,,,,,,,,,
,,,,,,,,2023-08-16_08h23.30.891,HF_wild_card,2022.2.4,Win32,59.87306909,5f0ced9d5a17786fb11b7f47,64d2fd46c836a06233681665,64dc7896fef45566228a3d7e,,,,,,,decisionTrl,resources/DG.BMP,resources/DY.BMP,Door4,-0.399739583,0.009114583,1,0,0,1.3656,optionLeft,80,10490,5,14,0,14,0,1,,,,,,,,,,,,,,,,,,,,,,,,,,,,,,,,,,,,,,,
,,,,,,,,2023-08-16_08h23.30.891,HF_wild_card,2022.2.4,Win32,59.87306909,5f0ced9d5a17786fb11b7f47,64d2fd46c836a06233681665,64dc7896fef45566228a3d7e,,,,,,,decisionTrl,resources/DB.BMP,resources/DR.BMP,WildCard_Ex,-0.348958333,-0.033854167,1,0,0,3.9949,optionLeft,95,10585,5,15,0,15,0,1,,,,,,,,,,,,,,,,,,,,,,,,,,,,,,,,,,,,,,,
,,,,,,,,2023-08-16_08h23.30.891,HF_wild_card,2022.2.4,Win32,59.87306909,5f0ced9d5a17786fb11b7f47,64d2fd46c836a06233681665,64dc7896fef45566228a3d7e,,,,,,,decisionTrl,resources/DY.BMP,resources/DG.BMP,Door3,-0.337239583,0.005208333,1,0,0,4.3774,optionLeft,70,10655,5,16,0,16,0,1,,,,,,,,,,,,,,,,,,,,,,,,,,,,,,,,,,,,,,,
,,,,,,,,2023-08-16_08h23.30.891,HF_wild_card,2022.2.4,Win32,59.87306909,5f0ced9d5a17786fb11b7f47,64d2fd46c836a06233681665,64dc7896fef45566228a3d7e,,,,,,,sngl,resources/Empty.png,resources/DY.BMP,Door3,0.286458333,-0.015625,1,0,0,0.9424,optionRight,70,10725,5,17,0,17,0,1,,,,,,,,,,,,,,,,,,,,,,,,,,,,,,,,,,,,,,,
,,,,,,,,2023-08-16_08h23.30.891,HF_wild_card,2022.2.4,Win32,59.87306909,5f0ced9d5a17786fb11b7f47,64d2fd46c836a06233681665,64dc7896fef45566228a3d7e,,,,,,,decisionTrl,resources/DB.BMP,resources/DG.BMP,Door4,0.34375,0.014322917,1,0,0,1.9178,optionRight,60,10785,5,18,0,18,0,1,,,,,,,,,,,,,,,,,,,,,,,,,,,,,,,,,,,,,,,
,,,,,,,,2023-08-16_08h23.30.891,HF_wild_card,2022.2.4,Win32,59.87306909,5f0ced9d5a17786fb11b7f47,64d2fd46c836a06233681665,64dc7896fef45566228a3d7e,,,,,,,sngl,resources/DB.BMP,resources/Empty.png,WildCard_Ex,-0.321614583,0.006510417,1,0,0,0.9308,optionLeft,5,10790,5,19,0,19,0,1,,,,,,,,,,,,,,,,,,,,,,,,,,,,,,,,,,,,,,,
,,,,,,,,2023-08-16_08h23.30.891,HF_wild_card,2022.2.4,Win32,59.87306909,5f0ced9d5a17786fb11b7f47,64d2fd46c836a06233681665,64dc7896fef45566228a3d7e,,,,,,,sngl,resources/DB.BMP,resources/Empty.png,WildCard_Ex,-0.389322917,-0.002604167,1,0,0,0.8678,optionLeft,95,10885,5,20,0,20,0,1,,,,,,,,,,,,,,,,,,,,,,,,,,,,,,,,,,,,,,,
,,,,,,,,2023-08-16_08h23.30.891,HF_wild_card,2022.2.4,Win32,59.87306909,5f0ced9d5a17786fb11b7f47,64d2fd46c836a06233681665,64dc7896fef45566228a3d7e,,,,,,,decisionTrl,resources/DG.BMP,resources/DY.BMP,Door4,-0.333333333,-0.002604167,1,0,0,1.5827,optionLeft,80,10965,5,21,0,21,0,1,,,,,,,,,,,,,,,,,,,,,,,,,,,,,,,,,,,,,,,
,,,,,,,,2023-08-16_08h23.30.891,HF_wild_card,2022.2.4,Win32,59.87306909,5f0ced9d5a17786fb11b7f47,64d2fd46c836a06233681665,64dc7896fef45566228a3d7e,,,,,,,decisionTrl,resources/DBN.BMP,resources/DR.BMP,Door1,-0.2734375,0.0546875,1,0,0,2.1714,optionLeft,30,10995,5,22,0,22,0,1,,,,,,,,,,,,,,,,,,,,,,,,,,,,,,,,,,,,,,,
,,,,,,,,2023-08-16_08h23.30.891,HF_wild_card,2022.2.4,Win32,59.87306909,5f0ced9d5a17786fb11b7f47,64d2fd46c836a06233681665,64dc7896fef45566228a3d7e,,,,,,,decisionTrl,resources/DY.BMP,resources/DG.BMP,Door3,-0.3203125,-0.00390625,1,0,0,1.6631,optionLeft,70,11065,5,23,0,23,0,1,,,,,,,,,,,,,,,,,,,,,,,,,,,,,,,,,,,,,,,
,,,,,,,,2023-08-16_08h23.30.891,HF_wild_card,2022.2.4,Win32,59.87306909,5f0ced9d5a17786fb11b7f47,64d2fd46c836a06233681665,64dc7896fef45566228a3d7e,,,,,,,decisionTrl,resources/DY.BMP,resources/DG.BMP,Door4,0.364583333,-0.037760417,1,0,0,1.0455,optionRight,60,11125,5,24,0,24,0,1,,,,,,,,,,,,,,,,,,,,,,,,,,,,,,,,,,,,,,,
,,,,,,,,2023-08-16_08h23.30.891,HF_wild_card,2022.2.4,Win32,59.87306909,5f0ced9d5a17786fb11b7f47,64d2fd46c836a06233681665,64dc7896fef45566228a3d7e,,,,,,,ctch,resources/DY.BMP,resources/DR.BMP,Door3,-0.348958333,0.015625,1,0,0,1.3497,optionLeft,70,11195,5,25,0,25,0,1,,,,,,,,,,,,,,,,,,,,,,,,,,,,,,,,,,,,,,,
,,,,,,,,2023-08-16_08h23.30.891,HF_wild_card,2022.2.4,Win32,59.87306909,5f0ced9d5a17786fb11b7f47,64d2fd46c836a06233681665,64dc7896fef45566228a3d7e,,,,,,,decisionTrl,resources/DBN.BMP,resources/DB.BMP,WildCard_Ex,0.350260417,0.028645833,1,0,0,2.2262,optionRight,5,11200,5,26,0,26,0,1,,,,,,,,,,,,,,,,,,,,,,,,,,,,,,,,,,,,,,,
,,,,,,,,2023-08-16_08h23.30.891,HF_wild_card,2022.2.4,Win32,59.87306909,5f0ced9d5a17786fb11b7f47,64d2fd46c836a06233681665,64dc7896fef45566228a3d7e,,,,,,,decisionTrl,resources/DBN.BMP,resources/DR.BMP,Door1,-0.37109375,0.037760417,1,0,0,1.7542,optionLeft,30,11230,5,27,0,27,0,1,,,,,,,,,,,,,,,,,,,,,,,,,,,,,,,,,,,,,,,
,,,,,,,,2023-08-16_08h23.30.891,HF_wild_card,2022.2.4,Win32,59.87306909,5f0ced9d5a17786fb11b7f47,64d2fd46c836a06233681665,64dc7896fef45566228a3d7e,,,,,,,decisionTrl,resources/DR.BMP,resources/DB.BMP,WildCard_Ex,0.307291667,-0.020833333,1,0,0,2.6547,optionRight,95,11325,5,28,0,28,0,1,,,,,,,,,,,,,,,,,,,,,,,,,,,,,,,,,,,,,,,
,,,,,,,,2023-08-16_08h23.30.891,HF_wild_card,2022.2.4,Win32,59.87306909,5f0ced9d5a17786fb11b7f47,64d2fd46c836a06233681665,64dc7896fef45566228a3d7e,,,,,,,decisionTrl,resources/DG.BMP,resources/DB.BMP,Door4,-0.424479167,-0.010416667,1,0,0,1.284,optionLeft,80,11405,5,29,0,29,0,1,,,,,,,,,,,,,,,,,,,,,,,,,,,,,,,,,,,,,,,
,,,,,,,,2023-08-16_08h23.30.891,HF_wild_card,2022.2.4,Win32,59.87306909,5f0ced9d5a17786fb11b7f47,64d2fd46c836a06233681665,64dc7896fef45566228a3d7e,,,,,,,ctch,resources/DR.BMP,resources/DY.BMP,Door3,0.373697917,0.024739583,1,0,0,1.4188,optionRight,70,11475,5,30,0,30,0,1,,,,,,,,,,,,,,,,,,,,,,,,,,,,,,,,,,,,,,,
,,,,,,,,2023-08-16_08h23.30.891,HF_wild_card,2022.2.4,Win32,59.87306909,5f0ced9d5a17786fb11b7f47,64d2fd46c836a06233681665,64dc7896fef45566228a3d7e,,,,,,,decisionTrl,resources/DR.BMP,resources/DBN.BMP,Door1,0.313802083,0.045572917,1,0,0,2.5194,optionRight,30,11505,5,31,0,31,0,1,,,,,,,,,,,,,,,,,,,,,,,,,,,,,,,,,,,,,,,
,,,,,,,,2023-08-16_08h23.30.891,HF_wild_card,2022.2.4,Win32,59.87306909,5f0ced9d5a17786fb11b7f47,64d2fd46c836a06233681665,64dc7896fef45566228a3d7e,,,,,,,ctch,resources/DR.BMP,resources/DY.BMP,Door3,0.33203125,0.01171875,1,0,0,1.3528,optionRight,70,11575,5,32,0,32,0,1,,,,,,,,,,,,,,,,,,,,,,,,,,,,,,,,,,,,,,,
,,,,,,,,2023-08-16_08h23.30.891,HF_wild_card,2022.2.4,Win32,59.87306909,5f0ced9d5a17786fb11b7f47,64d2fd46c836a06233681665,64dc7896fef45566228a3d7e,,,,,,,decisionTrl,resources/DR.BMP,resources/DBN.BMP,Door1,0.263020833,0.006510417,1,0,0,2.083,optionRight,30,11605,5,33,0,33,0,1,,,,,,,,,,,,,,,,,,,,,,,,,,,,,,,,,,,,,,,
,,,,,,,,2023-08-16_08h23.30.891,HF_wild_card,2022.2.4,Win32,59.87306909,5f0ced9d5a17786fb11b7f47,64d2fd46c836a06233681665,64dc7896fef45566228a3d7e,,,,,,,decisionTrl,resources/DBN.BMP,resources/DR.BMP,Door1,-0.404947917,-0.026041667,1,0,0,1.386,optionLeft,30,11635,5,34,0,34,0,1,,,,,,,,,,,,,,,,,,,,,,,,,,,,,,,,,,,,,,,
,,,,,,,,2023-08-16_08h23.30.891,HF_wild_card,2022.2.4,Win32,59.87306909,5f0ced9d5a17786fb11b7f47,64d2fd46c836a06233681665,64dc7896fef45566228a3d7e,,,,,,,decisionTrl,resources/DR.BMP,resources/DBN.BMP,Door1,0.380208333,0.083333333,1,0,0,1.0986,optionRight,30,11665,5,35,0,35,0,1,,,,,,,,,,,,,,,,,,,,,,,,,,,,,,,,,,,,,,,
,,,,,,,,2023-08-16_08h23.30.891,HF_wild_card,2022.2.4,Win32,59.87306909,5f0ced9d5a17786fb11b7f47,64d2fd46c836a06233681665,64dc7896fef45566228a3d7e,,,,,,,decisionTrl,resources/DBN.BMP,resources/DR.BMP,Door1,-0.408854167,0.010416667,1,0,0,1.1062,optionLeft,30,11695,5,36,0,36,0,1,,,,,,,,,,,,,,,,,,,,,,,,,,,,,,,,,,,,,,,
,,,,,,,,2023-08-16_08h23.30.891,HF_wild_card,2022.2.4,Win32,59.87306909,5f0ced9d5a17786fb11b7f47,64d2fd46c836a06233681665,64dc7896fef45566228a3d7e,,,,,,,ctch,resources/DBN.BMP,resources/DG.BMP,Door4,0.470052083,0.04296875,1,0,0,1.5837,optionRight,60,11755,5,37,0,37,0,1,,,,,,,,,,,,,,,,,,,,,,,,,,,,,,,,,,,,,,,
,,,,,,,,2023-08-16_08h23.30.891,HF_wild_card,2022.2.4,Win32,59.87306909,5f0ced9d5a17786fb11b7f47,64d2fd46c836a06233681665,64dc7896fef45566228a3d7e,,,,,,,sngl,resources/DG.BMP,resources/Empty.png,Door4,-0.40234375,0.00390625,1,0,0,0.8321,optionLeft,80,11835,5,38,0,38,0,1,,,,,,,,,,,,,,,,,,,,,,,,,,,,,,,,,,,,,,,
,,,,,,,,2023-08-16_08h23.30.891,HF_wild_card,2022.2.4,Win32,59.87306909,5f0ced9d5a17786fb11b7f47,64d2fd46c836a06233681665,64dc7896fef45566228a3d7e,,,,,,,sngl,resources/Empty.png,resources/DB.BMP,WildCard_Ex,0.348958333,0.032552083,1,0,0,0.9601,optionRight,5,11840,5,39,0,39,0,1,,,,,,,,,,,,,,,,,,,,,,,,,,,,,,,,,,,,,,,
,,,,,,,,2023-08-16_08h23.30.891,HF_wild_card,2022.2.4,Win32,59.87306909,5f0ced9d5a17786fb11b7f47,64d2fd46c836a06233681665,64dc7896fef45566228a3d7e,,,,,,,decisionTrl,resources/DG.BMP,resources/DY.BMP,Door4,-0.3671875,-0.018229167,1,0,0,1.4023,optionLeft,80,11920,5,40,0,40,0,1,,,,,,,,,,,,,,,,,,,,,,,,,,,,,,,,,,,,,,,
,,,,,,,,2023-08-16_08h23.30.891,HF_wild_card,2022.2.4,Win32,59.87306909,5f0ced9d5a17786fb11b7f47,64d2fd46c836a06233681665,64dc7896fef45566228a3d7e,,,,,,,decisionTrl,resources/DB.BMP,resources/DY.BMP,Door3,0.4296875,0.03125,1,0,0,1.784,optionRight,70,11990,5,41,0,41,0,1,,,,,,,,,,,,,,,,,,,,,,,,,,,,,,,,,,,,,,,
,,,,,,,,2023-08-16_08h23.30.891,HF_wild_card,2022.2.4,Win32,59.87306909,5f0ced9d5a17786fb11b7f47,64d2fd46c836a06233681665,64dc7896fef45566228a3d7e,,,,,,,decisionTrl,resources/DY.BMP,resources/DB.BMP,Door3,-0.354166667,-0.01171875,1,0,0,1.4122,optionLeft,70,12060,5,42,0,42,0,1,,,,,,,,,,,,,,,,,,,,,,,,,,,,,,,,,,,,,,,
,,,,,,,,2023-08-16_08h23.30.891,HF_wild_card,2022.2.4,Win32,59.87306909,5f0ced9d5a17786fb11b7f47,64d2fd46c836a06233681665,64dc7896fef45566228a3d7e,,,,,,,sngl,resources/DY.BMP,resources/Empty.png,Door3,-0.33984375,0.00390625,1,0,0,0.8142,optionLeft,70,12130,5,43,0,43,0,1,,,,,,,,,,,,,,,,,,,,,,,,,,,,,,,,,,,,,,,
,,,,,,,,2023-08-16_08h23.30.891,HF_wild_card,2022.2.4,Win32,59.87306909,5f0ced9d5a17786fb11b7f47,64d2fd46c836a06233681665,64dc7896fef45566228a3d7e,,,,,,,,,,,,,,,,,,,,,,,,,,4,0,4,0,1,,,,,,,,,,,,,,,,,,,,,,,,,,,,,,,,,,
,,,,,,,,2023-08-16_08h23.30.891,HF_wild_card,2022.2.4,Win32,59.87306909,5f0ced9d5a17786fb11b7f47,64d2fd46c836a06233681665,64dc7896fef45566228a3d7e,,,,,,,ctch,resources/DBN.BMP,resources/DG.BMP,Door4,0.375,-0.239583333,1,0,0,1.9332,optionRight,60,12190,6,0,0,0,0,1,,,,,,,,,,,,,,,,,,,,,,,,,,,,,,,,,,,,,,,
,,,,,,,,2023-08-16_08h23.30.891,HF_wild_card,2022.2.4,Win32,59.87306909,5f0ced9d5a17786fb11b7f47,64d2fd46c836a06233681665,64dc7896fef45566228a3d7e,,,,,,,decisionTrl,resources/DG.BMP,resources/DY.BMP,Door3,0.360677083,0.010416667,1,0,0,1.3576,optionRight,70,12260,6,1,0,1,0,1,,,,,,,,,,,,,,,,,,,,,,,,,,,,,,,,,,,,,,,
,,,,,,,,2023-08-16_08h23.30.891,HF_wild_card,2022.2.4,Win32,59.87306909,5f0ced9d5a17786fb11b7f47,64d2fd46c836a06233681665,64dc7896fef45566228a3d7e,,,,,,,sngl,resources/Empty.png,resources/DG.BMP,Door4,0.395833333,0.029947917,1,0,0,0.9335,optionRight,80,12340,6,2,0,2,0,1,,,,,,,,,,,,,,,,,,,,,,,,,,,,,,,,,,,,,,,
,,,,,,,,2023-08-16_08h23.30.891,HF_wild_card,2022.2.4,Win32,59.87306909,5f0ced9d5a17786fb11b7f47,64d2fd46c836a06233681665,64dc7896fef45566228a3d7e,,,,,,,sngl,resources/DY.BMP,resources/Empty.png,Door3,-0.369791667,0.069010417,1,0,0,0.829,optionLeft,70,12410,6,3,0,3,0,1,,,,,,,,,,,,,,,,,,,,,,,,,,,,,,,,,,,,,,,
,,,,,,,,2023-08-16_08h23.30.891,HF_wild_card,2022.2.4,Win32,59.87306909,5f0ced9d5a17786fb11b7f47,64d2fd46c836a06233681665,64dc7896fef45566228a3d7e,,,,,,,decisionTrl,resources/DB.BMP,resources/DR.BMP,WildCard_Ex,-0.365885417,-0.0078125,1,0,0,1.9164,optionLeft,95,12505,6,4,0,4,0,1,,,,,,,,,,,,,,,,,,,,,,,,,,,,,,,,,,,,,,,
,,,,,,,,2023-08-16_08h23.30.891,HF_wild_card,2022.2.4,Win32,59.87306909,5f0ced9d5a17786fb11b7f47,64d2fd46c836a06233681665,64dc7896fef45566228a3d7e,,,,,,,decisionTrl,resources/DY.BMP,resources/DB.BMP,Door3,-0.3828125,0.053385417,1,0,0,1.6343,optionLeft,70,12575,6,5,0,5,0,1,,,,,,,,,,,,,,,,,,,,,,,,,,,,,,,,,,,,,,,
,,,,,,,,2023-08-16_08h23.30.891,HF_wild_card,2022.2.4,Win32,59.87306909,5f0ced9d5a17786fb11b7f47,64d2fd46c836a06233681665,64dc7896fef45566228a3d7e,,,,,,,decisionTrl,resources/DBN.BMP,resources/DR.BMP,Door1,-0.248697917,0.020833333,1,0,0,1.7844,optionLeft,30,12605,6,6,0,6,0,1,,,,,,,,,,,,,,,,,,,,,,,,,,,,,,,,,,,,,,,
,,,,,,,,2023-08-16_08h23.30.891,HF_wild_card,2022.2.4,Win32,59.87306909,5f0ced9d5a17786fb11b7f47,64d2fd46c836a06233681665,64dc7896fef45566228a3d7e,,,,,,,ctch,resources/DR.BMP,resources/DY.BMP,Door3,0.359375,0.075520833,1,0,0,1.3508,optionRight,70,12675,6,7,0,7,0,1,,,,,,,,,,,,,,,,,,,,,,,,,,,,,,,,,,,,,,,
,,,,,,,,2023-08-16_08h23.30.891,HF_wild_card,2022.2.4,Win32,59.87306909,5f0ced9d5a17786fb11b7f47,64d2fd46c836a06233681665,64dc7896fef45566228a3d7e,,,,,,,decisionTrl,resources/DB.BMP,resources/DG.BMP,Door4,0.393229167,0.00390625,1,0,0,1.4845,optionRight,60,12735,6,8,0,8,0,1,,,,,,,,,,,,,,,,,,,,,,,,,,,,,,,,,,,,,,,
,,,,,,,,2023-08-16_08h23.30.891,HF_wild_card,2022.2.4,Win32,59.87306909,5f0ced9d5a17786fb11b7f47,64d2fd46c836a06233681665,64dc7896fef45566228a3d7e,,,,,,,decisionTrl,resources/DR.BMP,resources/DBN.BMP,Door1,0.30859375,0.07421875,1,0,0,1.5332,optionRight,30,12765,6,9,0,9,0,1,,,,,,,,,,,,,,,,,,,,,,,,,,,,,,,,,,,,,,,
,,,,,,,,2023-08-16_08h23.30.891,HF_wild_card,2022.2.4,Win32,59.87306909,5f0ced9d5a17786fb11b7f47,64d2fd46c836a06233681665,64dc7896fef45566228a3d7e,,,,,,,ctch,resources/DR.BMP,resources/DY.BMP,Door3,0.346354167,0.055989583,1,0,0,1.5667,optionRight,70,12835,6,10,0,10,0,1,,,,,,,,,,,,,,,,,,,,,,,,,,,,,,,,,,,,,,,
,,,,,,,,2023-08-16_08h23.30.891,HF_wild_card,2022.2.4,Win32,59.87306909,5f0ced9d5a17786fb11b7f47,64d2fd46c836a06233681665,64dc7896fef45566228a3d7e,,,,,,,decisionTrl,resources/DR.BMP,resources/DB.BMP,WildCard_Ex,0.212239583,0.037760417,1,0,0,1.6373,optionRight,5,12840,6,11,0,11,0,1,,,,,,,,,,,,,,,,,,,,,,,,,,,,,,,,,,,,,,,
,,,,,,,,2023-08-16_08h23.30.891,HF_wild_card,2022.2.4,Win32,59.87306909,5f0ced9d5a17786fb11b7f47,64d2fd46c836a06233681665,64dc7896fef45566228a3d7e,,,,,,,decisionTrl,resources/DG.BMP,resources/DY.BMP,Door4,-0.35546875,0.033854167,1,0,0,1.3183,optionLeft,80,12920,6,12,0,12,0,1,,,,,,,,,,,,,,,,,,,,,,,,,,,,,,,,,,,,,,,
,,,,,,,,2023-08-16_08h23.30.891,HF_wild_card,2022.2.4,Win32,59.87306909,5f0ced9d5a17786fb11b7f47,64d2fd46c836a06233681665,64dc7896fef45566228a3d7e,,,,,,,decisionTrl,resources/DY.BMP,resources/DG.BMP,Door4,0.30859375,0.002604167,1,0,0,1.1491,optionRight,80,13000,6,13,0,13,0,1,,,,,,,,,,,,,,,,,,,,,,,,,,,,,,,,,,,,,,,
,,,,,,,,2023-08-16_08h23.30.891,HF_wild_card,2022.2.4,Win32,59.87306909,5f0ced9d5a17786fb11b7f47,64d2fd46c836a06233681665,64dc7896fef45566228a3d7e,,,,,,,decisionTrl,resources/DG.BMP,resources/DY.BMP,Door4,-0.3359375,0.002604167,1,0,0,0.9531,optionLeft,60,13060,6,14,0,14,0,1,,,,,,,,,,,,,,,,,,,,,,,,,,,,,,,,,,,,,,,
,,,,,,,,2023-08-16_08h23.30.891,HF_wild_card,2022.2.4,Win32,59.87306909,5f0ced9d5a17786fb11b7f47,64d2fd46c836a06233681665,64dc7896fef45566228a3d7e,,,,,,,sngl,resources/Empty.png,resources/DB.BMP,WildCard_Ex,0.354166667,-0.02734375,1,0,0,1.0306,optionRight,95,13155,6,15,0,15,0,1,,,,,,,,,,,,,,,,,,,,,,,,,,,,,,,,,,,,,,,
,,,,,,,,2023-08-16_08h23.30.891,HF_wild_card,2022.2.4,Win32,59.87306909,5f0ced9d5a17786fb11b7f47,64d2fd46c836a06233681665,64dc7896fef45566228a3d7e,,,,,,,ctch,resources/DY.BMP,resources/DR.BMP,Door3,-0.430989583,0.006510417,1,0,0,1.3823,optionLeft,70,13225,6,16,0,16,0,1,,,,,,,,,,,,,,,,,,,,,,,,,,,,,,,,,,,,,,,
,,,,,,,,2023-08-16_08h23.30.891,HF_wild_card,2022.2.4,Win32,59.87306909,5f0ced9d5a17786fb11b7f47,64d2fd46c836a06233681665,64dc7896fef45566228a3d7e,,,,,,,decisionTrl,resources/DBN.BMP,resources/DR.BMP,Door1,-0.296875,0.020833333,1,0,0,1.6519,optionLeft,30,13255,6,17,0,17,0,1,,,,,,,,,,,,,,,,,,,,,,,,,,,,,,,,,,,,,,,
,,,,,,,,2023-08-16_08h23.30.891,HF_wild_card,2022.2.4,Win32,59.87306909,5f0ced9d5a17786fb11b7f47,64d2fd46c836a06233681665,64dc7896fef45566228a3d7e,,,,,,,sngl,resources/Empty.png,resources/DY.BMP,Door3,0.49609375,0.091145833,1,0,0,0.8671,optionRight,70,13325,6,18,0,18,0,1,,,,,,,,,,,,,,,,,,,,,,,,,,,,,,,,,,,,,,,
,,,,,,,,2023-08-16_08h23.30.891,HF_wild_card,2022.2.4,Win32,59.87306909,5f0ced9d5a17786fb11b7f47,64d2fd46c836a06233681665,64dc7896fef45566228a3d7e,,,,,,,decisionTrl,resources/DR.BMP,resources/DBN.BMP,Door1,0.294270833,0.001302083,1,0,0,1.8023,optionRight,30,13355,6,19,0,19,0,1,,,,,,,,,,,,,,,,,,,,,,,,,,,,,,,,,,,,,,,
,,,,,,,,2023-08-16_08h23.30.891,HF_wild_card,2022.2.4,Win32,59.87306909,5f0ced9d5a17786fb11b7f47,64d2fd46c836a06233681665,64dc7896fef45566228a3d7e,,,,,,,ctch,resources/DG.BMP,resources/DBN.BMP,Door4,-0.313802083,0.014322917,1,0,0,1.5036,optionLeft,80,13435,6,20,0,20,0,1,,,,,,,,,,,,,,,,,,,,,,,,,,,,,,,,,,,,,,,
,,,,,,,,2023-08-16_08h23.30.891,HF_wild_card,2022.2.4,Win32,59.87306909,5f0ced9d5a17786fb11b7f47,64d2fd46c836a06233681665,64dc7896fef45566228a3d7e,,,,,,,decisionTrl,resources/DY.BMP,resources/DG.BMP,Door4,0.348958333,0.020833333,1,0,0,1.4493,optionRight,60,13495,6,21,0,21,0,1,,,,,,,,,,,,,,,,,,,,,,,,,,,,,,,,,,,,,,,
,,,,,,,,2023-08-16_08h23.30.891,HF_wild_card,2022.2.4,Win32,59.87306909,5f0ced9d5a17786fb11b7f47,64d2fd46c836a06233681665,64dc7896fef45566228a3d7e,,,,,,,decisionTrl,resources/DBN.BMP,resources/DB.BMP,WildCard_Ex,0.299479167,0.032552083,1,0,0,1.7663,optionRight,5,13500,6,22,0,22,0,1,,,,,,,,,,,,,,,,,,,,,,,,,,,,,,,,,,,,,,,
,,,,,,,,2023-08-16_08h23.30.891,HF_wild_card,2022.2.4,Win32,59.87306909,5f0ced9d5a17786fb11b7f47,64d2fd46c836a06233681665,64dc7896fef45566228a3d7e,,,,,,,decisionTrl,resources/DR.BMP,resources/DBN.BMP,Door1,0.302083333,0.0390625,1,0,0,1.6454,optionRight,30,13530,6,23,0,23,0,1,,,,,,,,,,,,,,,,,,,,,,,,,,,,,,,,,,,,,,,
,,,,,,,,2023-08-16_08h23.30.891,HF_wild_card,2022.2.4,Win32,59.87306909,5f0ced9d5a17786fb11b7f47,64d2fd46c836a06233681665,64dc7896fef45566228a3d7e,,,,,,,decisionTrl,resources/DB.BMP,resources/DBN.BMP,WildCard_Ex,-0.373697917,-0.010416667,1,0,0,1.7807,optionLeft,5,13535,6,24,0,24,0,1,,,,,,,,,,,,,,,,,,,,,,,,,,,,,,,,,,,,,,,
,,,,,,,,2023-08-16_08h23.30.891,HF_wild_card,2022.2.4,Win32,59.87306909,5f0ced9d5a17786fb11b7f47,64d2fd46c836a06233681665,64dc7896fef45566228a3d7e,,,,,,,sngl,resources/DR.BMP,resources/Empty.png,Door2,-0.393229167,-0.041666667,1,0,0,0.9153,optionLeft,20,13555,6,25,0,25,0,1,,,,,,,,,,,,,,,,,,,,,,,,,,,,,,,,,,,,,,,
,,,,,,,,2023-08-16_08h23.30.891,HF_wild_card,2022.2.4,Win32,59.87306909,5f0ced9d5a17786fb11b7f47,64d2fd46c836a06233681665,64dc7896fef45566228a3d7e,,,,,,,decisionTrl,resources/DBN.BMP,resources/DR.BMP,Door1,-0.391927083,-0.05859375,1,0,0,1.183,optionLeft,30,13585,6,26,0,26,0,1,,,,,,,,,,,,,,,,,,,,,,,,,,,,,,,,,,,,,,,
,,,,,,,,2023-08-16_08h23.30.891,HF_wild_card,2022.2.4,Win32,59.87306909,5f0ced9d5a17786fb11b7f47,64d2fd46c836a06233681665,64dc7896fef45566228a3d7e,,,,,,,ctch,resources/DBN.BMP,resources/DG.BMP,Door4,0.376302083,0.053385417,1,0,0,1.3839,optionRight,80,13665,6,27,0,27,0,1,,,,,,,,,,,,,,,,,,,,,,,,,,,,,,,,,,,,,,,
,,,,,,,,2023-08-16_08h23.30.891,HF_wild_card,2022.2.4,Win32,59.87306909,5f0ced9d5a17786fb11b7f47,64d2fd46c836a06233681665,64dc7896fef45566228a3d7e,,,,,,,sngl,resources/Empty.png,resources/DBN.BMP,Door1,0.299479167,0.014322917,1,0,0,1.0316,optionRight,30,13695,6,28,0,28,0,1,,,,,,,,,,,,,,,,,,,,,,,,,,,,,,,,,,,,,,,
,,,,,,,,2023-08-16_08h23.30.891,HF_wild_card,2022.2.4,Win32,59.87306909,5f0ced9d5a17786fb11b7f47,64d2fd46c836a06233681665,64dc7896fef45566228a3d7e,,,,,,,sngl,resources/Empty.png,resources/DR.BMP,Door2,0.326822917,0.0078125,1,0,0,0.9162,optionRight,40,13735,6,29,0,29,0,1,,,,,,,,,,,,,,,,,,,,,,,,,,,,,,,,,,,,,,,
,,,,,,,,2023-08-16_08h23.30.891,HF_wild_card,2022.2.4,Win32,59.87306909,5f0ced9d5a17786fb11b7f47,64d2fd46c836a06233681665,64dc7896fef45566228a3d7e,,,,,,,decisionTrl,resources/DR.BMP,resources/DBN.BMP,Door2,-0.303385417,0.02734375,1,0,0,1.0361,optionLeft,20,13755,6,30,0,30,0,1,,,,,,,,,,,,,,,,,,,,,,,,,,,,,,,,,,,,,,,
,,,,,,,,2023-08-16_08h23.30.891,HF_wild_card,2022.2.4,Win32,59.87306909,5f0ced9d5a17786fb11b7f47,64d2fd46c836a06233681665,64dc7896fef45566228a3d7e,,,,,,,sngl,resources/DB.BMP,resources/Empty.png,WildCard_Ex,-0.265625,0.00390625,1,0,0,1.1167,optionLeft,95,13850,6,31,0,31,0,1,,,,,,,,,,,,,,,,,,,,,,,,,,,,,,,,,,,,,,,
,,,,,,,,2023-08-16_08h23.30.891,HF_wild_card,2022.2.4,Win32,59.87306909,5f0ced9d5a17786fb11b7f47,64d2fd46c836a06233681665,64dc7896fef45566228a3d7e,,,,,,,ctch,resources/DG.BMP,resources/DBN.BMP,Door4,-0.2734375,-0.022135417,1,0,0,1.4326,optionLeft,80,13930,6,32,0,32,0,1,,,,,,,,,,,,,,,,,,,,,,,,,,,,,,,,,,,,,,,
,,,,,,,,2023-08-16_08h23.30.891,HF_wild_card,2022.2.4,Win32,59.87306909,5f0ced9d5a17786fb11b7f47,64d2fd46c836a06233681665,64dc7896fef45566228a3d7e,,,,,,,sngl,resources/Empty.png,resources/DB.BMP,WildCard_Ex,0.311197917,-0.002604167,1,0,0,0.832,optionRight,5,13935,6,33,0,33,0,1,,,,,,,,,,,,,,,,,,,,,,,,,,,,,,,,,,,,,,,
,,,,,,,,2023-08-16_08h23.30.891,HF_wild_card,2022.2.4,Win32,59.87306909,5f0ced9d5a17786fb11b7f47,64d2fd46c836a06233681665,64dc7896fef45566228a3d7e,,,,,,,sngl,resources/DB.BMP,resources/Empty.png,WildCard_Ex,-0.32421875,-0.010416667,1,0,0,0.8615,optionLeft,5,13940,6,34,0,34,0,1,,,,,,,,,,,,,,,,,,,,,,,,,,,,,,,,,,,,,,,
,,,,,,,,2023-08-16_08h23.30.891,HF_wild_card,2022.2.4,Win32,59.87306909,5f0ced9d5a17786fb11b7f47,64d2fd46c836a06233681665,64dc7896fef45566228a3d7e,,,,,,,sngl,resources/DG.BMP,resources/Empty.png,Door4,-0.3359375,-0.009114583,1,0,0,1.4987,optionLeft,60,14000,6,35,0,35,0,1,,,,,,,,,,,,,,,,,,,,,,,,,,,,,,,,,,,,,,,
,,,,,,,,2023-08-16_08h23.30.891,HF_wild_card,2022.2.4,Win32,59.87306909,5f0ced9d5a17786fb11b7f47,64d2fd46c836a06233681665,64dc7896fef45566228a3d7e,,,,,,,decisionTrl,resources/DG.BMP,resources/DB.BMP,Door4,-0.305989583,0.048177083,1,0,0,1.6971,optionLeft,80,14080,6,36,0,36,0,1,,,,,,,,,,,,,,,,,,,,,,,,,,,,,,,,,,,,,,,
,,,,,,,,2023-08-16_08h23.30.891,HF_wild_card,2022.2.4,Win32,59.87306909,5f0ced9d5a17786fb11b7f47,64d2fd46c836a06233681665,64dc7896fef45566228a3d7e,,,,,,,decisionTrl,resources/DY.BMP,resources/DG.BMP,Door4,0.3046875,0.00390625,1,0,0,1.7671,optionRight,80,14160,6,37,0,37,0,1,,,,,,,,,,,,,,,,,,,,,,,,,,,,,,,,,,,,,,,
,,,,,,,,2023-08-16_08h23.30.891,HF_wild_card,2022.2.4,Win32,59.87306909,5f0ced9d5a17786fb11b7f47,64d2fd46c836a06233681665,64dc7896fef45566228a3d7e,,,,,,,decisionTrl,resources/DB.BMP,resources/DY.BMP,Door3,0.473958333,0.126302083,1,0,0,12.9248,optionRight,70,14230,6,38,0,38,0,1,,,,,,,,,,,,,,,,,,,,,,,,,,,,,,,,,,,,,,,
,,,,,,,,2023-08-16_08h23.30.891,HF_wild_card,2022.2.4,Win32,59.87306909,5f0ced9d5a17786fb11b7f47,64d2fd46c836a06233681665,64dc7896fef45566228a3d7e,,,,,,,ctch,resources/DY.BMP,resources/DR.BMP,Door3,-0.4609375,-0.015625,1,0,0,1.9344,optionLeft,70,14300,6,39,0,39,0,1,,,,,,,,,,,,,,,,,,,,,,,,,,,,,,,,,,,,,,,
,,,,,,,,2023-08-16_08h23.30.891,HF_wild_card,2022.2.4,Win32,59.87306909,5f0ced9d5a17786fb11b7f47,64d2fd46c836a06233681665,64dc7896fef45566228a3d7e,,,,,,,decisionTrl,resources/DY.BMP,resources/DG.BMP,Door4,0.325520833,-0.024739583,1,0,0,2.1546,optionRight,60,14360,6,40,0,40,0,1,,,,,,,,,,,,,,,,,,,,,,,,,,,,,,,,,,,,,,,
,,,,,,,,2023-08-16_08h23.30.891,HF_wild_card,2022.2.4,Win32,59.87306909,5f0ced9d5a17786fb11b7f47,64d2fd46c836a06233681665,64dc7896fef45566228a3d7e,,,,,,,decisionTrl,resources/DBN.BMP,resources/DR.BMP,Door1,-0.287760417,0.02734375,1,0,0,2.9383,optionLeft,30,14390,6,41,0,41,0,1,,,,,,,,,,,,,,,,,,,,,,,,,,,,,,,,,,,,,,,
,,,,,,,,2023-08-16_08h23.30.891,HF_wild_card,2022.2.4,Win32,59.87306909,5f0ced9d5a17786fb11b7f47,64d2fd46c836a06233681665,64dc7896fef45566228a3d7e,,,,,,,sngl,resources/DBN.BMP,resources/Empty.png,Door1,-0.393229167,-0.04296875,1,0,0,0.8176,optionLeft,30,14420,6,42,0,42,0,1,,,,,,,,,,,,,,,,,,,,,,,,,,,,,,,,,,,,,,,
,,,,,,,,2023-08-16_08h23.30.891,HF_wild_card,2022.2.4,Win32,59.87306909,5f0ced9d5a17786fb11b7f47,64d2fd46c836a06233681665,64dc7896fef45566228a3d7e,,,,,,,decisionTrl,resources/DG.BMP,resources/DY.BMP,Door4,-0.260416667,0.013020833,1,0,0,1.418,optionLeft,60,14480,6,43,0,43,0,1,,,,,,,,,,,,,,,,,,,,,,,,,,,,,,,,,,,,,,,
,,,,,,,,2023-08-16_08h23.30.891,HF_wild_card,2022.2.4,Win32,59.87306909,5f0ced9d5a17786fb11b7f47,64d2fd46c836a06233681665,64dc7896fef45566228a3d7e,,,,,,,,,,,,,,,,,,,,,,,,,,5,0,5,0,1,,,,,,,,,,,,,,,,,,,,,,,,,,,,,,,,,,
,,,,,,,,2023-08-16_08h23.30.891,HF_wild_card,2022.2.4,Win32,59.87306909,5f0ced9d5a17786fb11b7f47,64d2fd46c836a06233681665,64dc7896fef45566228a3d7e,,,,,,,decisionTrl,resources/DG.BMP,resources/DY.BMP,Door4,-0.325520833,0.010416667,1,0,0,1.6252,optionLeft,60,14540,7,0,0,0,0,1,,,,,,,,,,,,,,,,,,,,,,,,,,,,,,,,,,,,,,,
,,,,,,,,2023-08-16_08h23.30.891,HF_wild_card,2022.2.4,Win32,59.87306909,5f0ced9d5a17786fb11b7f47,64d2fd46c836a06233681665,64dc7896fef45566228a3d7e,,,,,,,decisionTrl,resources/DY.BMP,resources/DG.BMP,Door3,-0.252604167,0.018229167,1,0,0,2.1227,optionLeft,70,14610,7,1,0,1,0,1,,,,,,,,,,,,,,,,,,,,,,,,,,,,,,,,,,,,,,,
,,,,,,,,2023-08-16_08h23.30.891,HF_wild_card,2022.2.4,Win32,59.87306909,5f0ced9d5a17786fb11b7f47,64d2fd46c836a06233681665,64dc7896fef45566228a3d7e,,,,,,,decisionTrl,resources/DG.BMP,resources/DY.BMP,Door4,-0.325520833,0.020833333,1,0,0,1.7043,optionLeft,60,14670,7,2,0,2,0,1,,,,,,,,,,,,,,,,,,,,,,,,,,,,,,,,,,,,,,,
,,,,,,,,2023-08-16_08h23.30.891,HF_wild_card,2022.2.4,Win32,59.87306909,5f0ced9d5a17786fb11b7f47,64d2fd46c836a06233681665,64dc7896fef45566228a3d7e,,,,,,,decisionTrl,resources/DY.BMP,resources/DG.BMP,Door3,-0.325520833,-0.009114583,1,0,0,2.3057,optionLeft,70,14740,7,3,0,3,0,1,,,,,,,,,,,,,,,,,,,,,,,,,,,,,,,,,,,,,,,
,,,,,,,,2023-08-16_08h23.30.891,HF_wild_card,2022.2.4,Win32,59.87306909,5f0ced9d5a17786fb11b7f47,64d2fd46c836a06233681665,64dc7896fef45566228a3d7e,,,,,,,decisionTrl,resources/DR.BMP,resources/DBN.BMP,Door1,0.352864583,0.0078125,1,0,0,2.7244,optionRight,30,14770,7,4,0,4,0,1,,,,,,,,,,,,,,,,,,,,,,,,,,,,,,,,,,,,,,,
,,,,,,,,2023-08-16_08h23.30.891,HF_wild_card,2022.2.4,Win32,59.87306909,5f0ced9d5a17786fb11b7f47,64d2fd46c836a06233681665,64dc7896fef45566228a3d7e,,,,,,,ctch,resources/DBN.BMP,resources/DG.BMP,Door4,0.4453125,-0.006510417,1,0,0,1.8556,optionRight,80,14850,7,5,0,5,0,1,,,,,,,,,,,,,,,,,,,,,,,,,,,,,,,,,,,,,,,
,,,,,,,,2023-08-16_08h23.30.891,HF_wild_card,2022.2.4,Win32,59.87306909,5f0ced9d5a17786fb11b7f47,64d2fd46c836a06233681665,64dc7896fef45566228a3d7e,,,,,,,decisionTrl,resources/DR.BMP,resources/DBN.BMP,Door1,0.3515625,0.06640625,1,0,0,1.8046,optionRight,30,14880,7,6,0,6,0,1,,,,,,,,,,,,,,,,,,,,,,,,,,,,,,,,,,,,,,,
,,,,,,,,2023-08-16_08h23.30.891,HF_wild_card,2022.2.4,Win32,59.87306909,5f0ced9d5a17786fb11b7f47,64d2fd46c836a06233681665,64dc7896fef45566228a3d7e,,,,,,,decisionTrl,resources/DBN.BMP,resources/DR.BMP,Door1,-0.369791667,0.006510417,1,0,0,1.1016,optionLeft,30,14910,7,7,0,7,0,1,,,,,,,,,,,,,,,,,,,,,,,,,,,,,,,,,,,,,,,
,,,,,,,,2023-08-16_08h23.30.891,HF_wild_card,2022.2.4,Win32,59.87306909,5f0ced9d5a17786fb11b7f47,64d2fd46c836a06233681665,64dc7896fef45566228a3d7e,,,,,,,decisionTrl,resources/DR.BMP,resources/DBN.BMP,Door1,0.33984375,0.067708333,1,0,0,1.4713,optionRight,30,14940,7,8,0,8,0,1,,,,,,,,,,,,,,,,,,,,,,,,,,,,,,,,,,,,,,,
,,,,,,,,2023-08-16_08h23.30.891,HF_wild_card,2022.2.4,Win32,59.87306909,5f0ced9d5a17786fb11b7f47,64d2fd46c836a06233681665,64dc7896fef45566228a3d7e,,,,,,,ctch,resources/DBN.BMP,resources/DG.BMP,Door4,0.401041667,0.045572917,1,0,0,1.4357,optionRight,60,15000,7,9,0,9,0,1,,,,,,,,,,,,,,,,,,,,,,,,,,,,,,,,,,,,,,,
,,,,,,,,2023-08-16_08h23.30.891,HF_wild_card,2022.2.4,Win32,59.87306909,5f0ced9d5a17786fb11b7f47,64d2fd46c836a06233681665,64dc7896fef45566228a3d7e,,,,,,,decisionTrl,resources/DR.BMP,resources/DBN.BMP,Door1,0.381510417,0.078125,1,0,0,1.4212,optionRight,30,15030,7,10,0,10,0,1,,,,,,,,,,,,,,,,,,,,,,,,,,,,,,,,,,,,,,,
,,,,,,,,2023-08-16_08h23.30.891,HF_wild_card,2022.2.4,Win32,59.87306909,5f0ced9d5a17786fb11b7f47,64d2fd46c836a06233681665,64dc7896fef45566228a3d7e,,,,,,,ctch,resources/DBN.BMP,resources/DG.BMP,Door4,0.354166667,0.029947917,1,0,0,0.9176,optionRight,60,15090,7,11,0,11,0,1,,,,,,,,,,,,,,,,,,,,,,,,,,,,,,,,,,,,,,,
,,,,,,,,2023-08-16_08h23.30.891,HF_wild_card,2022.2.4,Win32,59.87306909,5f0ced9d5a17786fb11b7f47,64d2fd46c836a06233681665,64dc7896fef45566228a3d7e,,,,,,,ctch,resources/DR.BMP,resources/DY.BMP,Door3,0.401041667,0.005208333,1,0,0,1.4203,optionRight,70,15160,7,12,0,12,0,1,,,,,,,,,,,,,,,,,,,,,,,,,,,,,,,,,,,,,,,
,,,,,,,,2023-08-16_08h23.30.891,HF_wild_card,2022.2.4,Win32,59.87306909,5f0ced9d5a17786fb11b7f47,64d2fd46c836a06233681665,64dc7896fef45566228a3d7e,,,,,,,decisionTrl,resources/DY.BMP,resources/DG.BMP,Door3,-0.305989583,-0.015625,1,0,0,2.2565,optionLeft,70,15230,7,13,0,13,0,1,,,,,,,,,,,,,,,,,,,,,,,,,,,,,,,,,,,,,,,
,,,,,,,,2023-08-16_08h23.30.891,HF_wild_card,2022.2.4,Win32,59.87306909,5f0ced9d5a17786fb11b7f47,64d2fd46c836a06233681665,64dc7896fef45566228a3d7e,,,,,,,decisionTrl,resources/DG.BMP,resources/DY.BMP,Door3,0.30078125,-0.00390625,1,0,0,1.6375,optionRight,70,15300,7,14,0,14,0,1,,,,,,,,,,,,,,,,,,,,,,,,,,,,,,,,,,,,,,,
,,,,,,,,2023-08-16_08h23.30.891,HF_wild_card,2022.2.4,Win32,59.87306909,5f0ced9d5a17786fb11b7f47,64d2fd46c836a06233681665,64dc7896fef45566228a3d7e,,,,,,,decisionTrl,resources/DBN.BMP,resources/DR.BMP,Door1,-0.333333333,-0.014322917,1,0,0,1.5704,optionLeft,30,15330,7,15,0,15,0,1,,,,,,,,,,,,,,,,,,,,,,,,,,,,,,,,,,,,,,,
,,,,,,,,2023-08-16_08h23.30.891,HF_wild_card,2022.2.4,Win32,59.87306909,5f0ced9d5a17786fb11b7f47,64d2fd46c836a06233681665,64dc7896fef45566228a3d7e,,,,,,,ctch,resources/DY.BMP,resources/DR.BMP,Door3,-0.341145833,-0.045572917,1,0,0,1.4367,optionLeft,70,15400,7,16,0,16,0,1,,,,,,,,,,,,,,,,,,,,,,,,,,,,,,,,,,,,,,,
,,,,,,,,2023-08-16_08h23.30.891,HF_wild_card,2022.2.4,Win32,59.87306909,5f0ced9d5a17786fb11b7f47,64d2fd46c836a06233681665,64dc7896fef45566228a3d7e,,,,,,,decisionTrl,resources/DG.BMP,resources/DY.BMP,Door4,-0.298177083,-0.02734375,1,0,0,2.0873,optionLeft,60,15460,7,17,0,17,0,1,,,,,,,,,,,,,,,,,,,,,,,,,,,,,,,,,,,,,,,
,,,,,,,,2023-08-16_08h23.30.891,HF_wild_card,2022.2.4,Win32,59.87306909,5f0ced9d5a17786fb11b7f47,64d2fd46c836a06233681665,64dc7896fef45566228a3d7e,,,,,,,ctch,resources/DY.BMP,resources/DR.BMP,Door3,-0.359375,-0.0078125,1,0,0,1.3692,optionLeft,70,15530,7,18,0,18,0,1,,,,,,,,,,,,,,,,,,,,,,,,,,,,,,,,,,,,,,,
,,,,,,,,2023-08-16_08h23.30.891,HF_wild_card,2022.2.4,Win32,59.87306909,5f0ced9d5a17786fb11b7f47,64d2fd46c836a06233681665,64dc7896fef45566228a3d7e,,,,,,,decisionTrl,resources/DG.BMP,resources/DY.BMP,Door4,-0.3203125,-0.0625,1,0,0,1.7377,optionLeft,60,15590,7,19,0,19,0,1,,,,,,,,,,,,,,,,,,,,,,,,,,,,,,,,,,,,,,,
,,,,,,,,2023-08-16_08h23.30.891,HF_wild_card,2022.2.4,Win32,59.87306909,5f0ced9d5a17786fb11b7f47,64d2fd46c836a06233681665,64dc7896fef45566228a3d7e,,,,,,,decisionTrl,resources/DY.BMP,resources/DG.BMP,Door3,-0.350260417,-0.015625,1,0,0,2.0717,optionLeft,70,15660,7,20,0,20,0,1,,,,,,,,,,,,,,,,,,,,,,,,,,,,,,,,,,,,,,,
,,,,,,,,2023-08-16_08h23.30.891,HF_wild_card,2022.2.4,Win32,59.87306909,5f0ced9d5a17786fb11b7f47,64d2fd46c836a06233681665,64dc7896fef45566228a3d7e,,,,,,,ctch,resources/DG.BMP,resources/DBN.BMP,Door4,-0.368489583,-0.001302083,1,0,0,1.1691,optionLeft,80,15740,7,21,0,21,0,1,,,,,,,,,,,,,,,,,,,,,,,,,,,,,,,,,,,,,,,
,,,,,,,,2023-08-16_08h23.30.891,HF_wild_card,2022.2.4,Win32,59.87306909,5f0ced9d5a17786fb11b7f47,64d2fd46c836a06233681665,64dc7896fef45566228a3d7e,,,,,,,ctch,resources/DY.BMP,resources/DR.BMP,Door3,-0.350260417,-0.03125,1,0,0,1.4196,optionLeft,70,15810,7,22,0,22,0,1,,,,,,,,,,,,,,,,,,,,,,,,,,,,,,,,,,,,,,,
,,,,,,,,2023-08-16_08h23.30.891,HF_wild_card,2022.2.4,Win32,59.87306909,5f0ced9d5a17786fb11b7f47,64d2fd46c836a06233681665,64dc7896fef45566228a3d7e,,,,,,,decisionTrl,resources/DBN.BMP,resources/DR.BMP,Door1,-0.287760417,0.0234375,1,0,0,1.7029,optionLeft,30,15840,7,23,0,23,0,1,,,,,,,,,,,,,,,,,,,,,,,,,,,,,,,,,,,,,,,
,,,,,,,,2023-08-16_08h23.30.891,HF_wild_card,2022.2.4,Win32,59.87306909,5f0ced9d5a17786fb11b7f47,64d2fd46c836a06233681665,64dc7896fef45566228a3d7e,,,,,,,decisionTrl,resources/DR.BMP,resources/DBN.BMP,Door1,0.278645833,0.01953125,1,0,0,1.6536,optionRight,30,15870,7,24,0,24,0,1,,,,,,,,,,,,,,,,,,,,,,,,,,,,,,,,,,,,,,,
,,,,,,,,2023-08-16_08h23.30.891,HF_wild_card,2022.2.4,Win32,59.87306909,5f0ced9d5a17786fb11b7f47,64d2fd46c836a06233681665,64dc7896fef45566228a3d7e,,,,,,,decisionTrl,resources/DR.BMP,resources/DBN.BMP,Door1,0.384114583,0.098958333,1,0,0,1.0524,optionRight,30,15900,7,25,0,25,0,1,,,,,,,,,,,,,,,,,,,,,,,,,,,,,,,,,,,,,,,
,,,,,,,,2023-08-16_08h23.30.891,HF_wild_card,2022.2.4,Win32,59.87306909,5f0ced9d5a17786fb11b7f47,64d2fd46c836a06233681665,64dc7896fef45566228a3d7e,,,,,,,decisionTrl,resources/DBN.BMP,resources/DR.BMP,Door1,-0.322916667,-0.006510417,1,0,0,1.7214,optionLeft,30,15930,7,26,0,26,0,1,,,,,,,,,,,,,,,,,,,,,,,,,,,,,,,,,,,,,,,
,,,,,,,,2023-08-16_08h23.30.891,HF_wild_card,2022.2.4,Win32,59.87306909,5f0ced9d5a17786fb11b7f47,64d2fd46c836a06233681665,64dc7896fef45566228a3d7e,,,,,,,ctch,resources/DR.BMP,resources/DY.BMP,Door3,0.3203125,-0.016927083,1,0,0,1.4173,optionRight,70,16000,7,27,0,27,0,1,,,,,,,,,,,,,,,,,,,,,,,,,,,,,,,,,,,,,,,
,,,,,,,,2023-08-16_08h23.30.891,HF_wild_card,2022.2.4,Win32,59.87306909,5f0ced9d5a17786fb11b7f47,64d2fd46c836a06233681665,64dc7896fef45566228a3d7e,,,,,,,ctch,resources/DG.BMP,resources/DBN.BMP,Door4,-0.328125,-0.001302083,1,0,0,1.3028,optionLeft,60,16060,7,28,0,28,0,1,,,,,,,,,,,,,,,,,,,,,,,,,,,,,,,,,,,,,,,
,,,,,,,,2023-08-16_08h23.30.891,HF_wild_card,2022.2.4,Win32,59.87306909,5f0ced9d5a17786fb11b7f47,64d2fd46c836a06233681665,64dc7896fef45566228a3d7e,,,,,,,decisionTrl,resources/DY.BMP,resources/DG.BMP,Door4,0.330729167,0.044270833,1,0,0,2.8322,optionRight,80,16140,7,29,0,29,0,1,,,,,,,,,,,,,,,,,,,,,,,,,,,,,,,,,,,,,,,
,,,,,,,,2023-08-16_08h23.30.891,HF_wild_card,2022.2.4,Win32,59.87306909,5f0ced9d5a17786fb11b7f47,64d2fd46c836a06233681665,64dc7896fef45566228a3d7e,,,,,,,decisionTrl,resources/DG.BMP,resources/DY.BMP,Door4,-0.321614583,0.01171875,1,0,0,1.2358,optionLeft,80,16220,7,30,0,30,0,1,,,,,,,,,,,,,,,,,,,,,,,,,,,,,,,,,,,,,,,
,,,,,,,,2023-08-16_08h23.30.891,HF_wild_card,2022.2.4,Win32,59.87306909,5f0ced9d5a17786fb11b7f47,64d2fd46c836a06233681665,64dc7896fef45566228a3d7e,,,,,,,ctch,resources/DR.BMP,resources/DY.BMP,Door3,0.376302083,0.01953125,1,0,0,1.0567,optionRight,70,16290,7,31,0,31,0,1,,,,,,,,,,,,,,,,,,,,,,,,,,,,,,,,,,,,,,,
,,,,,,,,2023-08-16_08h23.30.891,HF_wild_card,2022.2.4,Win32,59.87306909,5f0ced9d5a17786fb11b7f47,64d2fd46c836a06233681665,64dc7896fef45566228a3d7e,,,,,,,ctch,resources/DG.BMP,resources/DBN.BMP,Door4,-0.421875,0.013020833,1,0,0,1.1334,optionLeft,60,16350,7,32,0,32,0,1,,,,,,,,,,,,,,,,,,,,,,,,,,,,,,,,,,,,,,,
,,,,,,,,2023-08-16_08h23.30.891,HF_wild_card,2022.2.4,Win32,59.87306909,5f0ced9d5a17786fb11b7f47,64d2fd46c836a06233681665,64dc7896fef45566228a3d7e,,,,,,,decisionTrl,resources/DY.BMP,resources/DG.BMP,Door4,0.356770833,0.046875,1,0,0,2.0514,optionRight,60,16410,7,33,0,33,0,1,,,,,,,,,,,,,,,,,,,,,,,,,,,,,,,,,,,,,,,
,,,,,,,,2023-08-16_08h23.30.891,HF_wild_card,2022.2.4,Win32,59.87306909,5f0ced9d5a17786fb11b7f47,64d2fd46c836a06233681665,64dc7896fef45566228a3d7e,,,,,,,decisionTrl,resources/DBN.BMP,resources/DR.BMP,Door1,-0.360677083,-0.024739583,1,0,0,1.7203,optionLeft,30,16440,7,34,0,34,0,1,,,,,,,,,,,,,,,,,,,,,,,,,,,,,,,,,,,,,,,
,,,,,,,,2023-08-16_08h23.30.891,HF_wild_card,2022.2.4,Win32,59.87306909,5f0ced9d5a17786fb11b7f47,64d2fd46c836a06233681665,64dc7896fef45566228a3d7e,,,,,,,decisionTrl,resources/DBN.BMP,resources/DR.BMP,Door1,-0.274739583,0.018229167,1,0,0,1.002,optionLeft,30,16470,7,35,0,35,0,1,,,,,,,,,,,,,,,,,,,,,,,,,,,,,,,,,,,,,,,
,,,,,,,,2023-08-16_08h23.30.891,HF_wild_card,2022.2.4,Win32,59.87306909,5f0ced9d5a17786fb11b7f47,64d2fd46c836a06233681665,64dc7896fef45566228a3d7e,,,,,,,,,,,,,,,,,,,,,,,,,,6,0,6,0,1,,,,,,,,,,,,,,,,,,,,,,,,,,,,,,,,,,
,,,,,,,,2023-08-16_08h23.30.891,HF_wild_card,2022.2.4,Win32,59.87306909,5f0ced9d5a17786fb11b7f47,64d2fd46c836a06233681665,64dc7896fef45566228a3d7e,,,,,,,,,,,,,,,,,,,,,,,,,,,,,,,4,,,,,,,,,,,,,,,,,,,,,,,,,,,,,,,,,
,,,,,,,,2023-08-16_08h23.30.891,HF_wild_card,2022.2.4,Win32,59.87306909,5f0ced9d5a17786fb11b7f47,64d2fd46c836a06233681665,64dc7896fef45566228a3d7e,,,,,,,,,,,,,,,,,,,,,,,,,,,,,,,,,,,,,,,,,,,,,,,,,,,,,,,,,,,,,,,,
,,,,,,,,2023-08-16_08h23.30.891,HF_wild_card,2022.2.4,Win32,59.87306909,5f0ced9d5a17786fb11b7f47,64d2fd46c836a06233681665,64dc7896fef45566228a3d7e,,,,,,,,,,,,,,,,,,,,,,,,,,,,,,,,5,WC_extreme,resources/DB.BMP,0,0,0,0,1,,,,,,,,,,,,,,,,,,,,,,,,,
,,,,,,,,2023-08-16_08h23.30.891,HF_wild_card,2022.2.4,Win32,59.87306909,5f0ced9d5a17786fb11b7f47,64d2fd46c836a06233681665,64dc7896fef45566228a3d7e,,,,,,,,,,,,,,,,,,,,,,,,,,,,,,,,80,Door4,resources/DG.BMP,1,0,1,0,1,,,,,,,,,,,,,,,,,,,,,,,,,
,,,,,,,,2023-08-16_08h23.30.891,HF_wild_card,2022.2.4,Win32,59.87306909,5f0ced9d5a17786fb11b7f47,64d2fd46c836a06233681665,64dc7896fef45566228a3d7e,,,,,,,,,,,,,,,,,,,,,,,,,,,,,,,,40,WC_nonExtreme,resources/DP.BMP,2,0,2,0,1,,,,,,,,,,,,,,,,,,,,,,,,,
,,,,,,,,2023-08-16_08h23.30.891,HF_wild_card,2022.2.4,Win32,59.87306909,5f0ced9d5a17786fb11b7f47,64d2fd46c836a06233681665,64dc7896fef45566228a3d7e,,,,,,,,,,,,,,,,,,,,,,,,,,,,,,,,70,Door3,resources/DY.BMP,3,0,3,0,1,,,,,,,,,,,,,,,,,,,,,,,,,
,,,,,,,,2023-08-16_08h23.30.891,HF_wild_card,2022.2.4,Win32,59.87306909,5f0ced9d5a17786fb11b7f47,64d2fd46c836a06233681665,64dc7896fef45566228a3d7e,,,,,,,,,,,,,,,,,,,,,,,,,,,,,,,,30,Door2,resources/DR.BMP,4,0,4,0,1,,,,,,,,,,,,,,,,,,,,,,,,,
,,,,,,,,2023-08-16_08h23.30.891,HF_wild_card,2022.2.4,Win32,59.87306909,5f0ced9d5a17786fb11b7f47,64d2fd46c836a06233681665,64dc7896fef45566228a3d7e,,,,,,,,,,,,,,,,,,,,,,,,,,,,,,,,30,Door1,resources/DBN.BMP,5,0,5,0,1,,,,,,,,,,,,,,,,,,,,,,,,,
,,,,,,,,2023-08-16_08h23.30.891,HF_wild_card,2022.2.4,Win32,59.87306909,5f0ced9d5a17786fb11b7f47,64d2fd46c836a06233681665,64dc7896fef45566228a3d7e,,,,,,,,,,,,,,,,,,,,,,,,,,,,,,,,,,,,,,,,,,,,,,,,,,,,,,,,,,,,,,,,
,,,,,,,,2023-08-16_08h23.30.891,HF_wild_card,2022.2.4,Win32,59.87306909,5f0ced9d5a17786fb11b7f47,64d2fd46c836a06233681665,64dc7896fef45566228a3d7e,,,,,,,,,,,,,,,,,,,,,,,,,,,,,,,,,,,,,,,,0,0,0,0,1,,,,,,,,,,,,,,,,,,,,
,,,,,,,,2023-08-16_08h23.30.891,HF_wild_card,2022.2.4,Win32,59.87306909,5f0ced9d5a17786fb11b7f47,64d2fd46c836a06233681665,64dc7896fef45566228a3d7e,,,,,,,,,,,,,,,,,,,,,,,,,,,,,,,,,,,,,,,,1,0,1,0,1,,,,,,,,,,,,,,,,,,,,
