Condition,Low fixed image (Door1),Low risky image (Door2),High fixed image (Door3),High risky image (Door4),Extreme Wild Card,NonExtreme Wild Card,,date,expName,psychopyVersion,OS,frameRate,PROLIFIC_PID,STUDY_ID,SESSION_ID,mouse_2.x,mouse_2.y,mouse_2.leftButton,mouse_2.midButton,mouse_2.rightButton,mouse_2.clicked_name,Trial Type,Left Option Image,Right Option Image,Chosen Door,mouse.x,mouse.y,mouse.leftButton,mouse.midButton,mouse.rightButton,mouse.time,mouse.clicked_name,Feedback,Cumulative Reward,Block,trial.thisRepN,trial.thisTrialN,trial.thisN,trial.thisIndex,trial.ran,blocks.thisRepN,blocks.thisTrialN,blocks.thisN,blocks.thisIndex,blocks.ran,Money conversion,First Outcome Reported,Shown Door (First Outcome),Displayed Image (First Outcome),outcomes.thisRepN,outcomes.thisTrialN,outcomes.thisN,outcomes.thisIndex,outcomes.ran,judgments.thisRepN,judgments.thisTrialN,judgments.thisN,judgments.thisIndex,judgments.ran,freqMouse.x,freqMouse.y,freqMouse.leftButton,freqMouse.midButton,freqMouse.rightButton,freqMouse.clicked_name,FQJ for first outcome,FQJ for second outcome,Shown Door,Displayed Image,trials.thisRepN,trials.thisTrialN,trials.thisN,trials.thisIndex,trials.ran,judgBlock.thisRepN,judgBlock.thisTrialN,judgBlock.thisN,judgBlock.thisIndex,judgBlock.ran
1,resources/DBN.BMP,resources/DR.BMP,resources/DY.BMP,resources/DG.BMP,resources/DB.BMP,resources/DP.BMP,,2023-08-16_08h37.45.787,HF_wild_card,2022.2.4,Win32,60.13229104,61313bcdc465b84422b2246f,64d2fd46c836a06233681665,64dc7cbb847bd98900133bee,,,,,,,,,,,,,,,,,,,,,,,,,,,,,,,,,,,,,,,,,,,,,,,,,,,,,,,,,,,,,,,,
,,,,,,,,2023-08-16_08h37.45.787,HF_wild_card,2022.2.4,Win32,60.13229104,61313bcdc465b84422b2246f,64d2fd46c836a06233681665,64dc7cbb847bd98900133bee,0.00648151,-0.420370399,1,0,0,agree,,,,,,,,,,,,,,,,,,,,,,,,,,,,,,,,,,,,,,,,,,,,,,,,,,,,,,,,,,
,,,,,,,,2023-08-16_08h37.45.787,HF_wild_card,2022.2.4,Win32,60.13229104,61313bcdc465b84422b2246f,64d2fd46c836a06233681665,64dc7cbb847bd98900133bee,,,,,,,,,,,,,,,,,,,,,,,,,,,,,,,,,,,,,,,,,,,,,,,,,,,,,,,,,,,,,,,,
,,,,,,,,2023-08-16_08h37.45.787,HF_wild_card,2022.2.4,Win32,60.13229104,61313bcdc465b84422b2246f,64d2fd46c836a06233681665,64dc7cbb847bd98900133bee,,,,,,,sngl,resources/Empty.png,resources/DP.BMP,WildCard_NonEx,0.407407464,-0.062037065,1,0,0,1.6524,optionRight,55,55,1,0,0,0,0,1,,,,,,,,,,,,,,,,,,,,,,,,,,,,,,,,,,,,,,,
,,,,,,,,2023-08-16_08h37.45.787,HF_wild_card,2022.2.4,Win32,60.13229104,61313bcdc465b84422b2246f,64d2fd46c836a06233681665,64dc7cbb847bd98900133bee,,,,,,,decisionTrl,resources/DY.BMP,resources/DG.BMP,Door3,-0.341666667,-0.069444444,1,0,0,1.3869,optionLeft,70,125,1,1,0,1,0,1,,,,,,,,,,,,,,,,,,,,,,,,,,,,,,,,,,,,,,,
,,,,,,,,2023-08-16_08h37.45.787,HF_wild_card,2022.2.4,Win32,60.13229104,61313bcdc465b84422b2246f,64d2fd46c836a06233681665,64dc7cbb847bd98900133bee,,,,,,,decisionTrl,resources/DP.BMP,resources/DY.BMP,Door3,0.343518575,-0.005555556,1,0,0,2.289,optionRight,70,195,1,2,0,2,0,1,,,,,,,,,,,,,,,,,,,,,,,,,,,,,,,,,,,,,,,
,,,,,,,,2023-08-16_08h37.45.787,HF_wild_card,2022.2.4,Win32,60.13229104,61313bcdc465b84422b2246f,64d2fd46c836a06233681665,64dc7cbb847bd98900133bee,,,,,,,decisionTrl,resources/DG.BMP,resources/DY.BMP,Door4,-0.398148134,-0.012962977,1,0,0,0.9429,optionLeft,60,255,1,3,0,3,0,1,,,,,,,,,,,,,,,,,,,,,,,,,,,,,,,,,,,,,,,
,,,,,,,,2023-08-16_08h37.45.787,HF_wild_card,2022.2.4,Win32,60.13229104,61313bcdc465b84422b2246f,64d2fd46c836a06233681665,64dc7cbb847bd98900133bee,,,,,,,ctch,resources/DY.BMP,resources/DR.BMP,Door3,-0.391666667,-0.018518533,1,0,0,1.4317,optionLeft,70,325,1,4,0,4,0,1,,,,,,,,,,,,,,,,,,,,,,,,,,,,,,,,,,,,,,,
,,,,,,,,2023-08-16_08h37.45.787,HF_wild_card,2022.2.4,Win32,60.13229104,61313bcdc465b84422b2246f,64d2fd46c836a06233681665,64dc7cbb847bd98900133bee,,,,,,,decisionTrl,resources/DR.BMP,resources/DP.BMP,Door2,-0.321296268,-0.004629644,1,0,0,0.7288,optionLeft,20,345,1,5,0,5,0,1,,,,,,,,,,,,,,,,,,,,,,,,,,,,,,,,,,,,,,,
,,,,,,,,2023-08-16_08h37.45.787,HF_wild_card,2022.2.4,Win32,60.13229104,61313bcdc465b84422b2246f,64d2fd46c836a06233681665,64dc7cbb847bd98900133bee,,,,,,,decisionTrl,resources/DR.BMP,resources/DBN.BMP,Door1,0.503703732,-0.032407422,1,0,0,1.9113,optionRight,30,375,1,6,0,6,0,1,,,,,,,,,,,,,,,,,,,,,,,,,,,,,,,,,,,,,,,
,,,,,,,,2023-08-16_08h37.45.787,HF_wild_card,2022.2.4,Win32,60.13229104,61313bcdc465b84422b2246f,64d2fd46c836a06233681665,64dc7cbb847bd98900133bee,,,,,,,sngl,resources/DR.BMP,resources/Empty.png,Door2,-0.342592578,0.013888889,1,0,0,1.0593,optionLeft,40,415,1,7,0,7,0,1,,,,,,,,,,,,,,,,,,,,,,,,,,,,,,,,,,,,,,,
,,,,,,,,2023-08-16_08h37.45.787,HF_wild_card,2022.2.4,Win32,60.13229104,61313bcdc465b84422b2246f,64d2fd46c836a06233681665,64dc7cbb847bd98900133bee,,,,,,,decisionTrl,resources/DR.BMP,resources/DBN.BMP,Door1,0.400925954,-0.017592621,1,0,0,1.0426,optionRight,30,445,1,8,0,8,0,1,,,,,,,,,,,,,,,,,,,,,,,,,,,,,,,,,,,,,,,
,,,,,,,,2023-08-16_08h37.45.787,HF_wild_card,2022.2.4,Win32,60.13229104,61313bcdc465b84422b2246f,64d2fd46c836a06233681665,64dc7cbb847bd98900133bee,,,,,,,ctch,resources/DR.BMP,resources/DY.BMP,Door3,0.487037065,-0.027777778,1,0,0,0.7477,optionRight,70,515,1,9,0,9,0,1,,,,,,,,,,,,,,,,,,,,,,,,,,,,,,,,,,,,,,,
,,,,,,,,2023-08-16_08h37.45.787,HF_wild_card,2022.2.4,Win32,60.13229104,61313bcdc465b84422b2246f,64d2fd46c836a06233681665,64dc7cbb847bd98900133bee,,,,,,,ctch,resources/DR.BMP,resources/DY.BMP,Door3,0.297222222,-0.059259288,1,0,0,0.4785,optionRight,70,585,1,10,0,10,0,1,,,,,,,,,,,,,,,,,,,,,,,,,,,,,,,,,,,,,,,
,,,,,,,,2023-08-16_08h37.45.787,HF_wild_card,2022.2.4,Win32,60.13229104,61313bcdc465b84422b2246f,64d2fd46c836a06233681665,64dc7cbb847bd98900133bee,,,,,,,decisionTrl,resources/DG.BMP,resources/DY.BMP,Door3,0.337963019,-0.025925954,1,0,0,0.5451,optionRight,70,655,1,11,0,11,0,1,,,,,,,,,,,,,,,,,,,,,,,,,,,,,,,,,,,,,,,
,,,,,,,,2023-08-16_08h37.45.787,HF_wild_card,2022.2.4,Win32,60.13229104,61313bcdc465b84422b2246f,64d2fd46c836a06233681665,64dc7cbb847bd98900133bee,,,,,,,sngl,resources/Empty.png,resources/DR.BMP,Door2,0.408333333,-0.07129631,1,0,0,0.6862,optionRight,20,675,1,12,0,12,0,1,,,,,,,,,,,,,,,,,,,,,,,,,,,,,,,,,,,,,,,
,,,,,,,,2023-08-16_08h37.45.787,HF_wild_card,2022.2.4,Win32,60.13229104,61313bcdc465b84422b2246f,64d2fd46c836a06233681665,64dc7cbb847bd98900133bee,,,,,,,decisionTrl,resources/DBN.BMP,resources/DR.BMP,Door1,-0.397222222,0.040740712,1,0,0,1.2743,optionLeft,30,705,1,13,0,13,0,1,,,,,,,,,,,,,,,,,,,,,,,,,,,,,,,,,,,,,,,
,,,,,,,,2023-08-16_08h37.45.787,HF_wild_card,2022.2.4,Win32,60.13229104,61313bcdc465b84422b2246f,64d2fd46c836a06233681665,64dc7cbb847bd98900133bee,,,,,,,ctch,resources/DG.BMP,resources/DBN.BMP,Door4,-0.27870369,-0.012037065,1,0,0,0.9287,optionLeft,60,765,1,14,0,14,0,1,,,,,,,,,,,,,,,,,,,,,,,,,,,,,,,,,,,,,,,
,,,,,,,,2023-08-16_08h37.45.787,HF_wild_card,2022.2.4,Win32,60.13229104,61313bcdc465b84422b2246f,64d2fd46c836a06233681665,64dc7cbb847bd98900133bee,,,,,,,decisionTrl,resources/DBN.BMP,resources/DR.BMP,Door1,-0.312962935,0.017592578,1,0,0,1.2451,optionLeft,30,795,1,15,0,15,0,1,,,,,,,,,,,,,,,,,,,,,,,,,,,,,,,,,,,,,,,
,,,,,,,,2023-08-16_08h37.45.787,HF_wild_card,2022.2.4,Win32,60.13229104,61313bcdc465b84422b2246f,64d2fd46c836a06233681665,64dc7cbb847bd98900133bee,,,,,,,decisionTrl,resources/DY.BMP,resources/DP.BMP,Door3,-0.362962935,-0.017592621,1,0,0,1.041,optionLeft,70,865,1,16,0,16,0,1,,,,,,,,,,,,,,,,,,,,,,,,,,,,,,,,,,,,,,,
,,,,,,,,2023-08-16_08h37.45.787,HF_wild_card,2022.2.4,Win32,60.13229104,61313bcdc465b84422b2246f,64d2fd46c836a06233681665,64dc7cbb847bd98900133bee,,,,,,,ctch,resources/DG.BMP,resources/DBN.BMP,Door4,-0.413888889,0.001851824,1,0,0,1.5298,optionLeft,80,945,1,17,0,17,0,1,,,,,,,,,,,,,,,,,,,,,,,,,,,,,,,,,,,,,,,
,,,,,,,,2023-08-16_08h37.45.787,HF_wild_card,2022.2.4,Win32,60.13229104,61313bcdc465b84422b2246f,64d2fd46c836a06233681665,64dc7cbb847bd98900133bee,,,,,,,sngl,resources/DG.BMP,resources/Empty.png,Door4,-0.312037023,-0.016666667,1,0,0,0.5268,optionLeft,80,1025,1,18,0,18,0,1,,,,,,,,,,,,,,,,,,,,,,,,,,,,,,,,,,,,,,,
,,,,,,,,2023-08-16_08h37.45.787,HF_wild_card,2022.2.4,Win32,60.13229104,61313bcdc465b84422b2246f,64d2fd46c836a06233681665,64dc7cbb847bd98900133bee,,,,,,,ctch,resources/DBN.BMP,resources/DG.BMP,Door4,0.333333333,-0.013888889,1,0,0,0.8565,optionRight,80,1105,1,19,0,19,0,1,,,,,,,,,,,,,,,,,,,,,,,,,,,,,,,,,,,,,,,
,,,,,,,,2023-08-16_08h37.45.787,HF_wild_card,2022.2.4,Win32,60.13229104,61313bcdc465b84422b2246f,64d2fd46c836a06233681665,64dc7cbb847bd98900133bee,,,,,,,decisionTrl,resources/DY.BMP,resources/DG.BMP,Door3,-0.322222222,0.011111111,1,0,0,1.2734,optionLeft,70,1175,1,20,0,20,0,1,,,,,,,,,,,,,,,,,,,,,,,,,,,,,,,,,,,,,,,
,,,,,,,,2023-08-16_08h37.45.787,HF_wild_card,2022.2.4,Win32,60.13229104,61313bcdc465b84422b2246f,64d2fd46c836a06233681665,64dc7cbb847bd98900133bee,,,,,,,sngl,resources/DY.BMP,resources/Empty.png,Door3,-0.312962935,0.024074046,1,0,0,0.6748,optionLeft,70,1245,1,21,0,21,0,1,,,,,,,,,,,,,,,,,,,,,,,,,,,,,,,,,,,,,,,
,,,,,,,,2023-08-16_08h37.45.787,HF_wild_card,2022.2.4,Win32,60.13229104,61313bcdc465b84422b2246f,64d2fd46c836a06233681665,64dc7cbb847bd98900133bee,,,,,,,decisionTrl,resources/DG.BMP,resources/DY.BMP,Door3,0.268518575,-0.013888889,1,0,0,0.6264,optionRight,70,1315,1,22,0,22,0,1,,,,,,,,,,,,,,,,,,,,,,,,,,,,,,,,,,,,,,,
,,,,,,,,2023-08-16_08h37.45.787,HF_wild_card,2022.2.4,Win32,60.13229104,61313bcdc465b84422b2246f,64d2fd46c836a06233681665,64dc7cbb847bd98900133bee,,,,,,,sngl,resources/Empty.png,resources/DP.BMP,WildCard_NonEx,0.342592621,0.000925912,1,0,0,0.5929,optionRight,45,1360,1,23,0,23,0,1,,,,,,,,,,,,,,,,,,,,,,,,,,,,,,,,,,,,,,,
,,,,,,,,2023-08-16_08h37.45.787,HF_wild_card,2022.2.4,Win32,60.13229104,61313bcdc465b84422b2246f,64d2fd46c836a06233681665,64dc7cbb847bd98900133bee,,,,,,,decisionTrl,resources/DP.BMP,resources/DR.BMP,WildCard_NonEx,-0.35,-0.02129631,1,0,0,1.0447,optionLeft,55,1415,1,24,0,24,0,1,,,,,,,,,,,,,,,,,,,,,,,,,,,,,,,,,,,,,,,
,,,,,,,,2023-08-16_08h37.45.787,HF_wild_card,2022.2.4,Win32,60.13229104,61313bcdc465b84422b2246f,64d2fd46c836a06233681665,64dc7cbb847bd98900133bee,,,,,,,ctch,resources/DBN.BMP,resources/DG.BMP,Door4,0.302777778,-0.036111111,1,0,0,0.8945,optionRight,60,1475,1,25,0,25,0,1,,,,,,,,,,,,,,,,,,,,,,,,,,,,,,,,,,,,,,,
,,,,,,,,2023-08-16_08h37.45.787,HF_wild_card,2022.2.4,Win32,60.13229104,61313bcdc465b84422b2246f,64d2fd46c836a06233681665,64dc7cbb847bd98900133bee,,,,,,,sngl,resources/Empty.png,resources/DG.BMP,Door4,0.351851908,-0.014814843,1,0,0,0.5143,optionRight,60,1535,1,26,0,26,0,1,,,,,,,,,,,,,,,,,,,,,,,,,,,,,,,,,,,,,,,
,,,,,,,,2023-08-16_08h37.45.787,HF_wild_card,2022.2.4,Win32,60.13229104,61313bcdc465b84422b2246f,64d2fd46c836a06233681665,64dc7cbb847bd98900133bee,,,,,,,decisionTrl,resources/DY.BMP,resources/DG.BMP,Door3,-0.395370356,-0.011111111,1,0,0,0.5916,optionLeft,70,1605,1,27,0,27,0,1,,,,,,,,,,,,,,,,,,,,,,,,,,,,,,,,,,,,,,,
,,,,,,,,2023-08-16_08h37.45.787,HF_wild_card,2022.2.4,Win32,60.13229104,61313bcdc465b84422b2246f,64d2fd46c836a06233681665,64dc7cbb847bd98900133bee,,,,,,,decisionTrl,resources/DBN.BMP,resources/DR.BMP,Door1,-0.346296268,0.026851824,1,0,0,1.9816,optionLeft,30,1635,1,28,0,28,0,1,,,,,,,,,,,,,,,,,,,,,,,,,,,,,,,,,,,,,,,
,,,,,,,,2023-08-16_08h37.45.787,HF_wild_card,2022.2.4,Win32,60.13229104,61313bcdc465b84422b2246f,64d2fd46c836a06233681665,64dc7cbb847bd98900133bee,,,,,,,decisionTrl,resources/DG.BMP,resources/DP.BMP,Door4,-0.327777778,-0.007407422,1,0,0,2.3235,optionLeft,80,1715,1,29,0,29,0,1,,,,,,,,,,,,,,,,,,,,,,,,,,,,,,,,,,,,,,,
,,,,,,,,2023-08-16_08h37.45.787,HF_wild_card,2022.2.4,Win32,60.13229104,61313bcdc465b84422b2246f,64d2fd46c836a06233681665,64dc7cbb847bd98900133bee,,,,,,,decisionTrl,resources/DG.BMP,resources/DY.BMP,Door3,0.366666667,-0.014814843,1,0,0,0.7772,optionRight,70,1785,1,30,0,30,0,1,,,,,,,,,,,,,,,,,,,,,,,,,,,,,,,,,,,,,,,
,,,,,,,,2023-08-16_08h37.45.787,HF_wild_card,2022.2.4,Win32,60.13229104,61313bcdc465b84422b2246f,64d2fd46c836a06233681665,64dc7cbb847bd98900133bee,,,,,,,sngl,resources/Empty.png,resources/DY.BMP,Door3,0.371296353,-0.016666667,1,0,0,0.4642,optionRight,70,1855,1,31,0,31,0,1,,,,,,,,,,,,,,,,,,,,,,,,,,,,,,,,,,,,,,,
,,,,,,,,2023-08-16_08h37.45.787,HF_wild_card,2022.2.4,Win32,60.13229104,61313bcdc465b84422b2246f,64d2fd46c836a06233681665,64dc7cbb847bd98900133bee,,,,,,,decisionTrl,resources/DP.BMP,resources/DBN.BMP,WildCard_NonEx,-0.367592578,-0.044444444,1,0,0,1.5372,optionLeft,55,1910,1,32,0,32,0,1,,,,,,,,,,,,,,,,,,,,,,,,,,,,,,,,,,,,,,,
,,,,,,,,2023-08-16_08h37.45.787,HF_wild_card,2022.2.4,Win32,60.13229104,61313bcdc465b84422b2246f,64d2fd46c836a06233681665,64dc7cbb847bd98900133bee,,,,,,,decisionTrl,resources/DP.BMP,resources/DG.BMP,Door4,0.422222222,0.005555556,1,0,0,0.9608,optionRight,80,1990,1,33,0,33,0,1,,,,,,,,,,,,,,,,,,,,,,,,,,,,,,,,,,,,,,,
,,,,,,,,2023-08-16_08h37.45.787,HF_wild_card,2022.2.4,Win32,60.13229104,61313bcdc465b84422b2246f,64d2fd46c836a06233681665,64dc7cbb847bd98900133bee,,,,,,,decisionTrl,resources/DR.BMP,resources/DBN.BMP,Door1,0.492592621,-0.004629644,1,0,0,1.3125,optionRight,30,2020,1,34,0,34,0,1,,,,,,,,,,,,,,,,,,,,,,,,,,,,,,,,,,,,,,,
,,,,,,,,2023-08-16_08h37.45.787,HF_wild_card,2022.2.4,Win32,60.13229104,61313bcdc465b84422b2246f,64d2fd46c836a06233681665,64dc7cbb847bd98900133bee,,,,,,,decisionTrl,resources/DY.BMP,resources/DG.BMP,Door3,-0.294444444,-0.000925954,1,0,0,1.1579,optionLeft,70,2090,1,35,0,35,0,1,,,,,,,,,,,,,,,,,,,,,,,,,,,,,,,,,,,,,,,
,,,,,,,,2023-08-16_08h37.45.787,HF_wild_card,2022.2.4,Win32,60.13229104,61313bcdc465b84422b2246f,64d2fd46c836a06233681665,64dc7cbb847bd98900133bee,,,,,,,decisionTrl,resources/DBN.BMP,resources/DR.BMP,Door1,-0.255555556,-0.000925954,1,0,0,1.0872,optionLeft,30,2120,1,36,0,36,0,1,,,,,,,,,,,,,,,,,,,,,,,,,,,,,,,,,,,,,,,
,,,,,,,,2023-08-16_08h37.45.787,HF_wild_card,2022.2.4,Win32,60.13229104,61313bcdc465b84422b2246f,64d2fd46c836a06233681665,64dc7cbb847bd98900133bee,,,,,,,sngl,resources/DBN.BMP,resources/Empty.png,Door1,-0.299074046,0.004629601,1,0,0,0.5407,optionLeft,30,2150,1,37,0,37,0,1,,,,,,,,,,,,,,,,,,,,,,,,,,,,,,,,,,,,,,,
,,,,,,,,2023-08-16_08h37.45.787,HF_wild_card,2022.2.4,Win32,60.13229104,61313bcdc465b84422b2246f,64d2fd46c836a06233681665,64dc7cbb847bd98900133bee,,,,,,,ctch,resources/DY.BMP,resources/DR.BMP,Door3,-0.349074046,-0.000925954,1,0,0,1.5434,optionLeft,70,2220,1,38,0,38,0,1,,,,,,,,,,,,,,,,,,,,,,,,,,,,,,,,,,,,,,,
,,,,,,,,2023-08-16_08h37.45.787,HF_wild_card,2022.2.4,Win32,60.13229104,61313bcdc465b84422b2246f,64d2fd46c836a06233681665,64dc7cbb847bd98900133bee,,,,,,,decisionTrl,resources/DR.BMP,resources/DBN.BMP,Door1,0.521296353,-0.038888889,1,0,0,0.6941,optionRight,30,2250,1,39,0,39,0,1,,,,,,,,,,,,,,,,,,,,,,,,,,,,,,,,,,,,,,,
,,,,,,,,2023-08-16_08h37.45.787,HF_wild_card,2022.2.4,Win32,60.13229104,61313bcdc465b84422b2246f,64d2fd46c836a06233681665,64dc7cbb847bd98900133bee,,,,,,,decisionTrl,resources/DBN.BMP,resources/DP.BMP,WildCard_NonEx,0.393518575,-0.080555556,1,0,0,0.8458,optionRight,55,2305,1,40,0,40,0,1,,,,,,,,,,,,,,,,,,,,,,,,,,,,,,,,,,,,,,,
,,,,,,,,2023-08-16_08h37.45.787,HF_wild_card,2022.2.4,Win32,60.13229104,61313bcdc465b84422b2246f,64d2fd46c836a06233681665,64dc7cbb847bd98900133bee,,,,,,,sngl,resources/DP.BMP,resources/Empty.png,WildCard_NonEx,-0.406481467,-0.042592621,1,0,0,0.4439,optionLeft,45,2350,1,41,0,41,0,1,,,,,,,,,,,,,,,,,,,,,,,,,,,,,,,,,,,,,,,
,,,,,,,,2023-08-16_08h37.45.787,HF_wild_card,2022.2.4,Win32,60.13229104,61313bcdc465b84422b2246f,64d2fd46c836a06233681665,64dc7cbb847bd98900133bee,,,,,,,sngl,resources/DP.BMP,resources/Empty.png,WildCard_NonEx,-0.312962935,-0.039814843,1,0,0,0.4635,optionLeft,55,2405,1,42,0,42,0,1,,,,,,,,,,,,,,,,,,,,,,,,,,,,,,,,,,,,,,,
,,,,,,,,2023-08-16_08h37.45.787,HF_wild_card,2022.2.4,Win32,60.13229104,61313bcdc465b84422b2246f,64d2fd46c836a06233681665,64dc7cbb847bd98900133bee,,,,,,,sngl,resources/Empty.png,resources/DBN.BMP,Door1,0.25,-0.011111111,1,0,0,0.4373,optionRight,30,2435,1,43,0,43,0,1,,,,,,,,,,,,,,,,,,,,,,,,,,,,,,,,,,,,,,,
,,,,,,,,2023-08-16_08h37.45.787,HF_wild_card,2022.2.4,Win32,60.13229104,61313bcdc465b84422b2246f,64d2fd46c836a06233681665,64dc7cbb847bd98900133bee,,,,,,,,,,,,,,,,,,,,,,,,,,0,0,0,0,1,,,,,,,,,,,,,,,,,,,,,,,,,,,,,,,,,,
,,,,,,,,2023-08-16_08h37.45.787,HF_wild_card,2022.2.4,Win32,60.13229104,61313bcdc465b84422b2246f,64d2fd46c836a06233681665,64dc7cbb847bd98900133bee,,,,,,,decisionTrl,resources/DP.BMP,resources/DR.BMP,WildCard_NonEx,-0.259259245,-0.052777778,1,0,0,1.8043,optionLeft,45,2480,2,0,0,0,0,1,,,,,,,,,,,,,,,,,,,,,,,,,,,,,,,,,,,,,,,
,,,,,,,,2023-08-16_08h37.45.787,HF_wild_card,2022.2.4,Win32,60.13229104,61313bcdc465b84422b2246f,64d2fd46c836a06233681665,64dc7cbb847bd98900133bee,,,,,,,decisionTrl,resources/DR.BMP,resources/DBN.BMP,Door1,0.302777778,-0.033333333,1,0,0,1.88,optionRight,30,2510,2,1,0,1,0,1,,,,,,,,,,,,,,,,,,,,,,,,,,,,,,,,,,,,,,,
,,,,,,,,2023-08-16_08h37.45.787,HF_wild_card,2022.2.4,Win32,60.13229104,61313bcdc465b84422b2246f,64d2fd46c836a06233681665,64dc7cbb847bd98900133bee,,,,,,,decisionTrl,resources/DP.BMP,resources/DY.BMP,Door3,0.242592621,-0.062962977,1,0,0,1.0404,optionRight,70,2580,2,2,0,2,0,1,,,,,,,,,,,,,,,,,,,,,,,,,,,,,,,,,,,,,,,
,,,,,,,,2023-08-16_08h37.45.787,HF_wild_card,2022.2.4,Win32,60.13229104,61313bcdc465b84422b2246f,64d2fd46c836a06233681665,64dc7cbb847bd98900133bee,,,,,,,sngl,resources/DP.BMP,resources/Empty.png,WildCard_NonEx,-0.365740712,0.002777778,1,0,0,0.51,optionLeft,55,2635,2,3,0,3,0,1,,,,,,,,,,,,,,,,,,,,,,,,,,,,,,,,,,,,,,,
,,,,,,,,2023-08-16_08h37.45.787,HF_wild_card,2022.2.4,Win32,60.13229104,61313bcdc465b84422b2246f,64d2fd46c836a06233681665,64dc7cbb847bd98900133bee,,,,,,,ctch,resources/DG.BMP,resources/DBN.BMP,Door4,-0.209259245,-0.016666667,1,0,0,0.9078,optionLeft,80,2715,2,4,0,4,0,1,,,,,,,,,,,,,,,,,,,,,,,,,,,,,,,,,,,,,,,
,,,,,,,,2023-08-16_08h37.45.787,HF_wild_card,2022.2.4,Win32,60.13229104,61313bcdc465b84422b2246f,64d2fd46c836a06233681665,64dc7cbb847bd98900133bee,,,,,,,ctch,resources/DG.BMP,resources/DBN.BMP,Door4,-0.304629601,0.001851824,1,0,0,0.4957,optionLeft,60,2775,2,5,0,5,0,1,,,,,,,,,,,,,,,,,,,,,,,,,,,,,,,,,,,,,,,
,,,,,,,,2023-08-16_08h37.45.787,HF_wild_card,2022.2.4,Win32,60.13229104,61313bcdc465b84422b2246f,64d2fd46c836a06233681665,64dc7cbb847bd98900133bee,,,,,,,decisionTrl,resources/DY.BMP,resources/DP.BMP,Door3,-0.297222222,-0.025,1,0,0,0.6935,optionLeft,70,2845,2,6,0,6,0,1,,,,,,,,,,,,,,,,,,,,,,,,,,,,,,,,,,,,,,,
,,,,,,,,2023-08-16_08h37.45.787,HF_wild_card,2022.2.4,Win32,60.13229104,61313bcdc465b84422b2246f,64d2fd46c836a06233681665,64dc7cbb847bd98900133bee,,,,,,,decisionTrl,resources/DR.BMP,resources/DBN.BMP,Door1,0.367592621,-0.037037065,1,0,0,0.7256,optionRight,30,2875,2,7,0,7,0,1,,,,,,,,,,,,,,,,,,,,,,,,,,,,,,,,,,,,,,,
,,,,,,,,2023-08-16_08h37.45.787,HF_wild_card,2022.2.4,Win32,60.13229104,61313bcdc465b84422b2246f,64d2fd46c836a06233681665,64dc7cbb847bd98900133bee,,,,,,,ctch,resources/DR.BMP,resources/DY.BMP,Door3,0.332407464,-0.014814843,1,0,0,0.595,optionRight,70,2945,2,8,0,8,0,1,,,,,,,,,,,,,,,,,,,,,,,,,,,,,,,,,,,,,,,
,,,,,,,,2023-08-16_08h37.45.787,HF_wild_card,2022.2.4,Win32,60.13229104,61313bcdc465b84422b2246f,64d2fd46c836a06233681665,64dc7cbb847bd98900133bee,,,,,,,ctch,resources/DBN.BMP,resources/DG.BMP,Door4,0.3,-0.030555556,1,0,0,0.8272,optionRight,80,3025,2,9,0,9,0,1,,,,,,,,,,,,,,,,,,,,,,,,,,,,,,,,,,,,,,,
,,,,,,,,2023-08-16_08h37.45.787,HF_wild_card,2022.2.4,Win32,60.13229104,61313bcdc465b84422b2246f,64d2fd46c836a06233681665,64dc7cbb847bd98900133bee,,,,,,,decisionTrl,resources/DBN.BMP,resources/DR.BMP,Door1,-0.259259245,0.022222222,1,0,0,1.8078,optionLeft,30,3055,2,10,0,10,0,1,,,,,,,,,,,,,,,,,,,,,,,,,,,,,,,,,,,,,,,
,,,,,,,,2023-08-16_08h37.45.787,HF_wild_card,2022.2.4,Win32,60.13229104,61313bcdc465b84422b2246f,64d2fd46c836a06233681665,64dc7cbb847bd98900133bee,,,,,,,sngl,resources/DR.BMP,resources/Empty.png,Door2,-0.213888889,-0.013888889,1,0,0,1.0274,optionLeft,20,3075,2,11,0,11,0,1,,,,,,,,,,,,,,,,,,,,,,,,,,,,,,,,,,,,,,,
,,,,,,,,2023-08-16_08h37.45.787,HF_wild_card,2022.2.4,Win32,60.13229104,61313bcdc465b84422b2246f,64d2fd46c836a06233681665,64dc7cbb847bd98900133bee,,,,,,,decisionTrl,resources/DY.BMP,resources/DG.BMP,Door3,-0.384259245,-0.051851866,1,0,0,1.2675,optionLeft,70,3145,2,12,0,12,0,1,,,,,,,,,,,,,,,,,,,,,,,,,,,,,,,,,,,,,,,
,,,,,,,,2023-08-16_08h37.45.787,HF_wild_card,2022.2.4,Win32,60.13229104,61313bcdc465b84422b2246f,64d2fd46c836a06233681665,64dc7cbb847bd98900133bee,,,,,,,sngl,resources/DG.BMP,resources/Empty.png,Door4,-0.348148134,-0.037962977,1,0,0,0.5757,optionLeft,60,3205,2,13,0,13,0,1,,,,,,,,,,,,,,,,,,,,,,,,,,,,,,,,,,,,,,,
,,,,,,,,2023-08-16_08h37.45.787,HF_wild_card,2022.2.4,Win32,60.13229104,61313bcdc465b84422b2246f,64d2fd46c836a06233681665,64dc7cbb847bd98900133bee,,,,,,,ctch,resources/DR.BMP,resources/DY.BMP,Door3,0.392592621,-0.042592621,1,0,0,0.6223,optionRight,70,3275,2,14,0,14,0,1,,,,,,,,,,,,,,,,,,,,,,,,,,,,,,,,,,,,,,,
,,,,,,,,2023-08-16_08h37.45.787,HF_wild_card,2022.2.4,Win32,60.13229104,61313bcdc465b84422b2246f,64d2fd46c836a06233681665,64dc7cbb847bd98900133bee,,,,,,,ctch,resources/DY.BMP,resources/DR.BMP,Door3,-0.220370356,-0.030555556,1,0,0,0.5312,optionLeft,70,3345,2,15,0,15,0,1,,,,,,,,,,,,,,,,,,,,,,,,,,,,,,,,,,,,,,,
,,,,,,,,2023-08-16_08h37.45.787,HF_wild_card,2022.2.4,Win32,60.13229104,61313bcdc465b84422b2246f,64d2fd46c836a06233681665,64dc7cbb847bd98900133bee,,,,,,,decisionTrl,resources/DG.BMP,resources/DY.BMP,Door3,0.296296353,-0.047222222,1,0,0,0.8456,optionRight,70,3415,2,16,0,16,0,1,,,,,,,,,,,,,,,,,,,,,,,,,,,,,,,,,,,,,,,
,,,,,,,,2023-08-16_08h37.45.787,HF_wild_card,2022.2.4,Win32,60.13229104,61313bcdc465b84422b2246f,64d2fd46c836a06233681665,64dc7cbb847bd98900133bee,,,,,,,decisionTrl,resources/DP.BMP,resources/DG.BMP,Door4,0.323148176,-0.019444444,1,0,0,1.0269,optionRight,60,3475,2,17,0,17,0,1,,,,,,,,,,,,,,,,,,,,,,,,,,,,,,,,,,,,,,,
,,,,,,,,2023-08-16_08h37.45.787,HF_wild_card,2022.2.4,Win32,60.13229104,61313bcdc465b84422b2246f,64d2fd46c836a06233681665,64dc7cbb847bd98900133bee,,,,,,,decisionTrl,resources/DY.BMP,resources/DG.BMP,Door3,-0.261111111,-0.002777778,1,0,0,0.5617,optionLeft,70,3545,2,18,0,18,0,1,,,,,,,,,,,,,,,,,,,,,,,,,,,,,,,,,,,,,,,
,,,,,,,,2023-08-16_08h37.45.787,HF_wild_card,2022.2.4,Win32,60.13229104,61313bcdc465b84422b2246f,64d2fd46c836a06233681665,64dc7cbb847bd98900133bee,,,,,,,decisionTrl,resources/DG.BMP,resources/DP.BMP,Door4,-0.380555556,0.013888889,1,0,0,0.8635,optionLeft,60,3605,2,19,0,19,0,1,,,,,,,,,,,,,,,,,,,,,,,,,,,,,,,,,,,,,,,
,,,,,,,,2023-08-16_08h37.45.787,HF_wild_card,2022.2.4,Win32,60.13229104,61313bcdc465b84422b2246f,64d2fd46c836a06233681665,64dc7cbb847bd98900133bee,,,,,,,sngl,resources/Empty.png,resources/DP.BMP,WildCard_NonEx,0.330555556,-0.055555556,1,0,0,0.4441,optionRight,55,3660,2,20,0,20,0,1,,,,,,,,,,,,,,,,,,,,,,,,,,,,,,,,,,,,,,,
,,,,,,,,2023-08-16_08h37.45.787,HF_wild_card,2022.2.4,Win32,60.13229104,61313bcdc465b84422b2246f,64d2fd46c836a06233681665,64dc7cbb847bd98900133bee,,,,,,,decisionTrl,resources/DR.BMP,resources/DP.BMP,WildCard_NonEx,0.297222222,-0.016666667,1,0,0,0.646,optionRight,45,3705,2,21,0,21,0,1,,,,,,,,,,,,,,,,,,,,,,,,,,,,,,,,,,,,,,,
,,,,,,,,2023-08-16_08h37.45.787,HF_wild_card,2022.2.4,Win32,60.13229104,61313bcdc465b84422b2246f,64d2fd46c836a06233681665,64dc7cbb847bd98900133bee,,,,,,,sngl,resources/Empty.png,resources/DY.BMP,Door3,0.397222222,-0.062962977,1,0,0,0.4753,optionRight,70,3775,2,22,0,22,0,1,,,,,,,,,,,,,,,,,,,,,,,,,,,,,,,,,,,,,,,
,,,,,,,,2023-08-16_08h37.45.787,HF_wild_card,2022.2.4,Win32,60.13229104,61313bcdc465b84422b2246f,64d2fd46c836a06233681665,64dc7cbb847bd98900133bee,,,,,,,decisionTrl,resources/DG.BMP,resources/DY.BMP,Door3,0.330555556,-0.032407422,1,0,0,0.9436,optionRight,70,3845,2,23,0,23,0,1,,,,,,,,,,,,,,,,,,,,,,,,,,,,,,,,,,,,,,,
,,,,,,,,2023-08-16_08h37.45.787,HF_wild_card,2022.2.4,Win32,60.13229104,61313bcdc465b84422b2246f,64d2fd46c836a06233681665,64dc7cbb847bd98900133bee,,,,,,,decisionTrl,resources/DBN.BMP,resources/DR.BMP,Door1,-0.210185157,0.007407379,1,0,0,0.6996,optionLeft,30,3875,2,24,0,24,0,1,,,,,,,,,,,,,,,,,,,,,,,,,,,,,,,,,,,,,,,
,,,,,,,,2023-08-16_08h37.45.787,HF_wild_card,2022.2.4,Win32,60.13229104,61313bcdc465b84422b2246f,64d2fd46c836a06233681665,64dc7cbb847bd98900133bee,,,,,,,decisionTrl,resources/DBN.BMP,resources/DR.BMP,Door1,-0.340740712,0.009259245,1,0,0,0.6624,optionLeft,30,3905,2,25,0,25,0,1,,,,,,,,,,,,,,,,,,,,,,,,,,,,,,,,,,,,,,,
,,,,,,,,2023-08-16_08h37.45.787,HF_wild_card,2022.2.4,Win32,60.13229104,61313bcdc465b84422b2246f,64d2fd46c836a06233681665,64dc7cbb847bd98900133bee,,,,,,,decisionTrl,resources/DR.BMP,resources/DBN.BMP,Door1,0.198148176,-0.030555556,1,0,0,0.6947,optionRight,30,3935,2,26,0,26,0,1,,,,,,,,,,,,,,,,,,,,,,,,,,,,,,,,,,,,,,,
,,,,,,,,2023-08-16_08h37.45.787,HF_wild_card,2022.2.4,Win32,60.13229104,61313bcdc465b84422b2246f,64d2fd46c836a06233681665,64dc7cbb847bd98900133bee,,,,,,,sngl,resources/DY.BMP,resources/Empty.png,Door3,-0.297222222,0.002777778,1,0,0,0.4802,optionLeft,70,4005,2,27,0,27,0,1,,,,,,,,,,,,,,,,,,,,,,,,,,,,,,,,,,,,,,,
,,,,,,,,2023-08-16_08h37.45.787,HF_wild_card,2022.2.4,Win32,60.13229104,61313bcdc465b84422b2246f,64d2fd46c836a06233681665,64dc7cbb847bd98900133bee,,,,,,,sngl,resources/Empty.png,resources/DP.BMP,WildCard_NonEx,0.433333333,-0.05,1,0,0,0.4585,optionRight,45,4050,2,28,0,28,0,1,,,,,,,,,,,,,,,,,,,,,,,,,,,,,,,,,,,,,,,
,,,,,,,,2023-08-16_08h37.45.787,HF_wild_card,2022.2.4,Win32,60.13229104,61313bcdc465b84422b2246f,64d2fd46c836a06233681665,64dc7cbb847bd98900133bee,,,,,,,decisionTrl,resources/DBN.BMP,resources/DP.BMP,WildCard_NonEx,0.43148151,-0.039814843,1,0,0,0.7696,optionRight,45,4095,2,29,0,29,0,1,,,,,,,,,,,,,,,,,,,,,,,,,,,,,,,,,,,,,,,
,,,,,,,,2023-08-16_08h37.45.787,HF_wild_card,2022.2.4,Win32,60.13229104,61313bcdc465b84422b2246f,64d2fd46c836a06233681665,64dc7cbb847bd98900133bee,,,,,,,decisionTrl,resources/DG.BMP,resources/DY.BMP,Door4,-0.241666667,0.040740712,1,0,0,0.8858,optionLeft,80,4175,2,30,0,30,0,1,,,,,,,,,,,,,,,,,,,,,,,,,,,,,,,,,,,,,,,
,,,,,,,,2023-08-16_08h37.45.787,HF_wild_card,2022.2.4,Win32,60.13229104,61313bcdc465b84422b2246f,64d2fd46c836a06233681665,64dc7cbb847bd98900133bee,,,,,,,decisionTrl,resources/DBN.BMP,resources/DR.BMP,Door1,-0.341666667,0.045370356,1,0,0,1.0077,optionLeft,30,4205,2,31,0,31,0,1,,,,,,,,,,,,,,,,,,,,,,,,,,,,,,,,,,,,,,,
,,,,,,,,2023-08-16_08h37.45.787,HF_wild_card,2022.2.4,Win32,60.13229104,61313bcdc465b84422b2246f,64d2fd46c836a06233681665,64dc7cbb847bd98900133bee,,,,,,,decisionTrl,resources/DY.BMP,resources/DG.BMP,Door3,-0.249074046,0.030555556,1,0,0,0.5209,optionLeft,70,4275,2,32,0,32,0,1,,,,,,,,,,,,,,,,,,,,,,,,,,,,,,,,,,,,,,,
,,,,,,,,2023-08-16_08h37.45.787,HF_wild_card,2022.2.4,Win32,60.13229104,61313bcdc465b84422b2246f,64d2fd46c836a06233681665,64dc7cbb847bd98900133bee,,,,,,,sngl,resources/Empty.png,resources/DBN.BMP,Door1,0.245370399,-0.037962977,1,0,0,0.4425,optionRight,30,4305,2,33,0,33,0,1,,,,,,,,,,,,,,,,,,,,,,,,,,,,,,,,,,,,,,,
,,,,,,,,2023-08-16_08h37.45.787,HF_wild_card,2022.2.4,Win32,60.13229104,61313bcdc465b84422b2246f,64d2fd46c836a06233681665,64dc7cbb847bd98900133bee,,,,,,,decisionTrl,resources/DG.BMP,resources/DY.BMP,Door3,0.210185242,0.012037023,1,0,0,1.1902,optionRight,70,4375,2,34,0,34,0,1,,,,,,,,,,,,,,,,,,,,,,,,,,,,,,,,,,,,,,,
,,,,,,,,2023-08-16_08h37.45.787,HF_wild_card,2022.2.4,Win32,60.13229104,61313bcdc465b84422b2246f,64d2fd46c836a06233681665,64dc7cbb847bd98900133bee,,,,,,,ctch,resources/DBN.BMP,resources/DG.BMP,Door4,0.185185242,-0.020370399,1,0,0,0.7555,optionRight,60,4435,2,35,0,35,0,1,,,,,,,,,,,,,,,,,,,,,,,,,,,,,,,,,,,,,,,
,,,,,,,,2023-08-16_08h37.45.787,HF_wild_card,2022.2.4,Win32,60.13229104,61313bcdc465b84422b2246f,64d2fd46c836a06233681665,64dc7cbb847bd98900133bee,,,,,,,sngl,resources/DP.BMP,resources/Empty.png,WildCard_NonEx,-0.19351849,-0.019444444,1,0,0,0.5311,optionLeft,45,4480,2,36,0,36,0,1,,,,,,,,,,,,,,,,,,,,,,,,,,,,,,,,,,,,,,,
,,,,,,,,2023-08-16_08h37.45.787,HF_wild_card,2022.2.4,Win32,60.13229104,61313bcdc465b84422b2246f,64d2fd46c836a06233681665,64dc7cbb847bd98900133bee,,,,,,,sngl,resources/Empty.png,resources/DR.BMP,Door2,0.261111111,-0.041666667,1,0,0,0.4607,optionRight,40,4520,2,37,0,37,0,1,,,,,,,,,,,,,,,,,,,,,,,,,,,,,,,,,,,,,,,
,,,,,,,,2023-08-16_08h37.45.787,HF_wild_card,2022.2.4,Win32,60.13229104,61313bcdc465b84422b2246f,64d2fd46c836a06233681665,64dc7cbb847bd98900133bee,,,,,,,ctch,resources/DY.BMP,resources/DR.BMP,Door3,-0.252777778,0.017592578,1,0,0,0.7131,optionLeft,70,4590,2,38,0,38,0,1,,,,,,,,,,,,,,,,,,,,,,,,,,,,,,,,,,,,,,,
,,,,,,,,2023-08-16_08h37.45.787,HF_wild_card,2022.2.4,Win32,60.13229104,61313bcdc465b84422b2246f,64d2fd46c836a06233681665,64dc7cbb847bd98900133bee,,,,,,,decisionTrl,resources/DY.BMP,resources/DG.BMP,Door3,-0.288888889,0.055555556,1,0,0,0.92,optionLeft,70,4660,2,39,0,39,0,1,,,,,,,,,,,,,,,,,,,,,,,,,,,,,,,,,,,,,,,
,,,,,,,,2023-08-16_08h37.45.787,HF_wild_card,2022.2.4,Win32,60.13229104,61313bcdc465b84422b2246f,64d2fd46c836a06233681665,64dc7cbb847bd98900133bee,,,,,,,decisionTrl,resources/DP.BMP,resources/DBN.BMP,WildCard_NonEx,-0.210185157,0.005555556,1,0,0,1.1788,optionLeft,45,4705,2,40,0,40,0,1,,,,,,,,,,,,,,,,,,,,,,,,,,,,,,,,,,,,,,,
,,,,,,,,2023-08-16_08h37.45.787,HF_wild_card,2022.2.4,Win32,60.13229104,61313bcdc465b84422b2246f,64d2fd46c836a06233681665,64dc7cbb847bd98900133bee,,,,,,,sngl,resources/DBN.BMP,resources/Empty.png,Door1,-0.307407379,-0.002777778,1,0,0,0.47,optionLeft,30,4735,2,41,0,41,0,1,,,,,,,,,,,,,,,,,,,,,,,,,,,,,,,,,,,,,,,
,,,,,,,,2023-08-16_08h37.45.787,HF_wild_card,2022.2.4,Win32,60.13229104,61313bcdc465b84422b2246f,64d2fd46c836a06233681665,64dc7cbb847bd98900133bee,,,,,,,decisionTrl,resources/DR.BMP,resources/DBN.BMP,Door1,0.313888889,-0.025,1,0,0,0.519,optionRight,30,4765,2,42,0,42,0,1,,,,,,,,,,,,,,,,,,,,,,,,,,,,,,,,,,,,,,,
,,,,,,,,2023-08-16_08h37.45.787,HF_wild_card,2022.2.4,Win32,60.13229104,61313bcdc465b84422b2246f,64d2fd46c836a06233681665,64dc7cbb847bd98900133bee,,,,,,,sngl,resources/Empty.png,resources/DG.BMP,Door4,0.237963019,-0.025,1,0,0,0.4956,optionRight,80,4845,2,43,0,43,0,1,,,,,,,,,,,,,,,,,,,,,,,,,,,,,,,,,,,,,,,
,,,,,,,,2023-08-16_08h37.45.787,HF_wild_card,2022.2.4,Win32,60.13229104,61313bcdc465b84422b2246f,64d2fd46c836a06233681665,64dc7cbb847bd98900133bee,,,,,,,,,,,,,,,,,,,,,,,,,,1,0,1,0,1,,,,,,,,,,,,,,,,,,,,,,,,,,,,,,,,,,
,,,,,,,,2023-08-16_08h37.45.787,HF_wild_card,2022.2.4,Win32,60.13229104,61313bcdc465b84422b2246f,64d2fd46c836a06233681665,64dc7cbb847bd98900133bee,,,,,,,decisionTrl,resources/DY.BMP,resources/DP.BMP,Door3,-0.184259245,-0.063888889,1,0,0,0.7548,optionLeft,70,4915,3,0,0,0,0,1,,,,,,,,,,,,,,,,,,,,,,,,,,,,,,,,,,,,,,,
,,,,,,,,2023-08-16_08h37.45.787,HF_wild_card,2022.2.4,Win32,60.13229104,61313bcdc465b84422b2246f,64d2fd46c836a06233681665,64dc7cbb847bd98900133bee,,,,,,,decisionTrl,resources/DP.BMP,resources/DR.BMP,WildCard_NonEx,-0.144444444,-0.038888889,1,0,0,0.9886,optionLeft,45,4960,3,1,0,1,0,1,,,,,,,,,,,,,,,,,,,,,,,,,,,,,,,,,,,,,,,
,,,,,,,,2023-08-16_08h37.45.787,HF_wild_card,2022.2.4,Win32,60.13229104,61313bcdc465b84422b2246f,64d2fd46c836a06233681665,64dc7cbb847bd98900133bee,,,,,,,ctch,resources/DBN.BMP,resources/DG.BMP,Door4,0.295370399,-0.038888889,1,0,0,0.5867,optionRight,80,5040,3,2,0,2,0,1,,,,,,,,,,,,,,,,,,,,,,,,,,,,,,,,,,,,,,,
,,,,,,,,2023-08-16_08h37.45.787,HF_wild_card,2022.2.4,Win32,60.13229104,61313bcdc465b84422b2246f,64d2fd46c836a06233681665,64dc7cbb847bd98900133bee,,,,,,,decisionTrl,resources/DY.BMP,resources/DG.BMP,Door3,-0.256481467,0.081481467,1,0,0,0.8022,optionLeft,70,5110,3,3,0,3,0,1,,,,,,,,,,,,,,,,,,,,,,,,,,,,,,,,,,,,,,,
,,,,,,,,2023-08-16_08h37.45.787,HF_wild_card,2022.2.4,Win32,60.13229104,61313bcdc465b84422b2246f,64d2fd46c836a06233681665,64dc7cbb847bd98900133bee,,,,,,,sngl,resources/DBN.BMP,resources/Empty.png,Door1,-0.282407379,0.00370369,1,0,0,0.4802,optionLeft,30,5140,3,4,0,4,0,1,,,,,,,,,,,,,,,,,,,,,,,,,,,,,,,,,,,,,,,
,,,,,,,,2023-08-16_08h37.45.787,HF_wild_card,2022.2.4,Win32,60.13229104,61313bcdc465b84422b2246f,64d2fd46c836a06233681665,64dc7cbb847bd98900133bee,,,,,,,sngl,resources/Empty.png,resources/DP.BMP,WildCard_NonEx,0.207407464,-0.037962977,1,0,0,0.4346,optionRight,45,5185,3,5,0,5,0,1,,,,,,,,,,,,,,,,,,,,,,,,,,,,,,,,,,,,,,,
,,,,,,,,2023-08-16_08h37.45.787,HF_wild_card,2022.2.4,Win32,60.13229104,61313bcdc465b84422b2246f,64d2fd46c836a06233681665,64dc7cbb847bd98900133bee,,,,,,,decisionTrl,resources/DR.BMP,resources/DBN.BMP,Door1,0.227777778,-0.013888889,1,0,0,0.817,optionRight,30,5215,3,6,0,6,0,1,,,,,,,,,,,,,,,,,,,,,,,,,,,,,,,,,,,,,,,
,,,,,,,,2023-08-16_08h37.45.787,HF_wild_card,2022.2.4,Win32,60.13229104,61313bcdc465b84422b2246f,64d2fd46c836a06233681665,64dc7cbb847bd98900133bee,,,,,,,decisionTrl,resources/DP.BMP,resources/DBN.BMP,WildCard_NonEx,-0.226851824,-0.017592621,1,0,0,0.7531,optionLeft,45,5260,3,7,0,7,0,1,,,,,,,,,,,,,,,,,,,,,,,,,,,,,,,,,,,,,,,
,,,,,,,,2023-08-16_08h37.45.787,HF_wild_card,2022.2.4,Win32,60.13229104,61313bcdc465b84422b2246f,64d2fd46c836a06233681665,64dc7cbb847bd98900133bee,,,,,,,ctch,resources/DG.BMP,resources/DBN.BMP,Door4,-0.25370369,0.000925912,1,0,0,0.7448,optionLeft,60,5320,3,8,0,8,0,1,,,,,,,,,,,,,,,,,,,,,,,,,,,,,,,,,,,,,,,
,,,,,,,,2023-08-16_08h37.45.787,HF_wild_card,2022.2.4,Win32,60.13229104,61313bcdc465b84422b2246f,64d2fd46c836a06233681665,64dc7cbb847bd98900133bee,,,,,,,sngl,resources/Empty.png,resources/DP.BMP,WildCard_NonEx,0.240740797,-0.025,1,0,0,0.4947,optionRight,55,5375,3,9,0,9,0,1,,,,,,,,,,,,,,,,,,,,,,,,,,,,,,,,,,,,,,,
,,,,,,,,2023-08-16_08h37.45.787,HF_wild_card,2022.2.4,Win32,60.13229104,61313bcdc465b84422b2246f,64d2fd46c836a06233681665,64dc7cbb847bd98900133bee,,,,,,,sngl,resources/Empty.png,resources/DY.BMP,Door3,0.280555556,-0.043518533,1,0,0,0.4732,optionRight,70,5445,3,10,0,10,0,1,,,,,,,,,,,,,,,,,,,,,,,,,,,,,,,,,,,,,,,
,,,,,,,,2023-08-16_08h37.45.787,HF_wild_card,2022.2.4,Win32,60.13229104,61313bcdc465b84422b2246f,64d2fd46c836a06233681665,64dc7cbb847bd98900133bee,,,,,,,decisionTrl,resources/DBN.BMP,resources/DP.BMP,WildCard_NonEx,0.228703732,-0.035185199,1,0,0,0.574,optionRight,55,5500,3,11,0,11,0,1,,,,,,,,,,,,,,,,,,,,,,,,,,,,,,,,,,,,,,,
,,,,,,,,2023-08-16_08h37.45.787,HF_wild_card,2022.2.4,Win32,60.13229104,61313bcdc465b84422b2246f,64d2fd46c836a06233681665,64dc7cbb847bd98900133bee,,,,,,,sngl,resources/DP.BMP,resources/Empty.png,WildCard_NonEx,-0.256481467,-0.013888889,1,0,0,0.4314,optionLeft,45,5545,3,12,0,12,0,1,,,,,,,,,,,,,,,,,,,,,,,,,,,,,,,,,,,,,,,
,,,,,,,,2023-08-16_08h37.45.787,HF_wild_card,2022.2.4,Win32,60.13229104,61313bcdc465b84422b2246f,64d2fd46c836a06233681665,64dc7cbb847bd98900133bee,,,,,,,ctch,resources/DBN.BMP,resources/DG.BMP,Door4,0.273148176,-0.048148176,1,0,0,0.52,optionRight,80,5625,3,13,0,13,0,1,,,,,,,,,,,,,,,,,,,,,,,,,,,,,,,,,,,,,,,
,,,,,,,,2023-08-16_08h37.45.787,HF_wild_card,2022.2.4,Win32,60.13229104,61313bcdc465b84422b2246f,64d2fd46c836a06233681665,64dc7cbb847bd98900133bee,,,,,,,ctch,resources/DG.BMP,resources/DBN.BMP,Door4,-0.137962935,-0.025,1,0,0,0.4926,optionLeft,80,5705,3,14,0,14,0,1,,,,,,,,,,,,,,,,,,,,,,,,,,,,,,,,,,,,,,,
,,,,,,,,2023-08-16_08h37.45.787,HF_wild_card,2022.2.4,Win32,60.13229104,61313bcdc465b84422b2246f,64d2fd46c836a06233681665,64dc7cbb847bd98900133bee,,,,,,,sngl,resources/DY.BMP,resources/Empty.png,Door3,-0.237037023,-0.014814843,1,0,0,0.4215,optionLeft,70,5775,3,15,0,15,0,1,,,,,,,,,,,,,,,,,,,,,,,,,,,,,,,,,,,,,,,
,,,,,,,,2023-08-16_08h37.45.787,HF_wild_card,2022.2.4,Win32,60.13229104,61313bcdc465b84422b2246f,64d2fd46c836a06233681665,64dc7cbb847bd98900133bee,,,,,,,decisionTrl,resources/DP.BMP,resources/DG.BMP,Door4,0.298148176,0.02870369,1,0,0,0.4656,optionRight,60,5835,3,16,0,16,0,1,,,,,,,,,,,,,,,,,,,,,,,,,,,,,,,,,,,,,,,
,,,,,,,,2023-08-16_08h37.45.787,HF_wild_card,2022.2.4,Win32,60.13229104,61313bcdc465b84422b2246f,64d2fd46c836a06233681665,64dc7cbb847bd98900133bee,,,,,,,sngl,resources/DR.BMP,resources/Empty.png,Door2,-0.251851824,0.00370369,1,0,0,0.4279,optionLeft,40,5875,3,17,0,17,0,1,,,,,,,,,,,,,,,,,,,,,,,,,,,,,,,,,,,,,,,
,,,,,,,,2023-08-16_08h37.45.787,HF_wild_card,2022.2.4,Win32,60.13229104,61313bcdc465b84422b2246f,64d2fd46c836a06233681665,64dc7cbb847bd98900133bee,,,,,,,decisionTrl,resources/DP.BMP,resources/DY.BMP,Door3,0.213888889,-0.035185199,1,0,0,0.7441,optionRight,70,5945,3,18,0,18,0,1,,,,,,,,,,,,,,,,,,,,,,,,,,,,,,,,,,,,,,,
,,,,,,,,2023-08-16_08h37.45.787,HF_wild_card,2022.2.4,Win32,60.13229104,61313bcdc465b84422b2246f,64d2fd46c836a06233681665,64dc7cbb847bd98900133bee,,,,,,,sngl,resources/Empty.png,resources/DR.BMP,Door2,0.25,-0.023148176,1,0,0,0.4792,optionRight,20,5965,3,19,0,19,0,1,,,,,,,,,,,,,,,,,,,,,,,,,,,,,,,,,,,,,,,
,,,,,,,,2023-08-16_08h37.45.787,HF_wild_card,2022.2.4,Win32,60.13229104,61313bcdc465b84422b2246f,64d2fd46c836a06233681665,64dc7cbb847bd98900133bee,,,,,,,decisionTrl,resources/DG.BMP,resources/DY.BMP,Door3,0.227777778,-0.033333333,1,0,0,0.8282,optionRight,70,6035,3,20,0,20,0,1,,,,,,,,,,,,,,,,,,,,,,,,,,,,,,,,,,,,,,,
,,,,,,,,2023-08-16_08h37.45.787,HF_wild_card,2022.2.4,Win32,60.13229104,61313bcdc465b84422b2246f,64d2fd46c836a06233681665,64dc7cbb847bd98900133bee,,,,,,,sngl,resources/Empty.png,resources/DG.BMP,Door4,0.143518575,-0.025925954,1,0,0,0.4789,optionRight,60,6095,3,21,0,21,0,1,,,,,,,,,,,,,,,,,,,,,,,,,,,,,,,,,,,,,,,
,,,,,,,,2023-08-16_08h37.45.787,HF_wild_card,2022.2.4,Win32,60.13229104,61313bcdc465b84422b2246f,64d2fd46c836a06233681665,64dc7cbb847bd98900133bee,,,,,,,decisionTrl,resources/DBN.BMP,resources/DR.BMP,Door1,-0.223148134,0.011111111,1,0,0,0.7954,optionLeft,30,6125,3,22,0,22,0,1,,,,,,,,,,,,,,,,,,,,,,,,,,,,,,,,,,,,,,,
,,,,,,,,2023-08-16_08h37.45.787,HF_wild_card,2022.2.4,Win32,60.13229104,61313bcdc465b84422b2246f,64d2fd46c836a06233681665,64dc7cbb847bd98900133bee,,,,,,,ctch,resources/DR.BMP,resources/DY.BMP,Door3,0.269444444,-0.032407422,1,0,0,0.6287,optionRight,70,6195,3,23,0,23,0,1,,,,,,,,,,,,,,,,,,,,,,,,,,,,,,,,,,,,,,,
,,,,,,,,2023-08-16_08h37.45.787,HF_wild_card,2022.2.4,Win32,60.13229104,61313bcdc465b84422b2246f,64d2fd46c836a06233681665,64dc7cbb847bd98900133bee,,,,,,,decisionTrl,resources/DR.BMP,resources/DBN.BMP,Door1,0.222222222,-0.035185199,1,0,0,0.6964,optionRight,30,6225,3,24,0,24,0,1,,,,,,,,,,,,,,,,,,,,,,,,,,,,,,,,,,,,,,,
,,,,,,,,2023-08-16_08h37.45.787,HF_wild_card,2022.2.4,Win32,60.13229104,61313bcdc465b84422b2246f,64d2fd46c836a06233681665,64dc7cbb847bd98900133bee,,,,,,,decisionTrl,resources/DY.BMP,resources/DG.BMP,Door3,-0.229629601,0.013888889,1,0,0,0.8116,optionLeft,70,6295,3,25,0,25,0,1,,,,,,,,,,,,,,,,,,,,,,,,,,,,,,,,,,,,,,,
,,,,,,,,2023-08-16_08h37.45.787,HF_wild_card,2022.2.4,Win32,60.13229104,61313bcdc465b84422b2246f,64d2fd46c836a06233681665,64dc7cbb847bd98900133bee,,,,,,,sngl,resources/Empty.png,resources/DBN.BMP,Door1,0.176851908,-0.038888889,1,0,0,0.4278,optionRight,30,6325,3,26,0,26,0,1,,,,,,,,,,,,,,,,,,,,,,,,,,,,,,,,,,,,,,,
,,,,,,,,2023-08-16_08h37.45.787,HF_wild_card,2022.2.4,Win32,60.13229104,61313bcdc465b84422b2246f,64d2fd46c836a06233681665,64dc7cbb847bd98900133bee,,,,,,,decisionTrl,resources/DR.BMP,resources/DBN.BMP,Door1,0.217592621,-0.034259288,1,0,0,0.9786,optionRight,30,6355,3,27,0,27,0,1,,,,,,,,,,,,,,,,,,,,,,,,,,,,,,,,,,,,,,,
,,,,,,,,2023-08-16_08h37.45.787,HF_wild_card,2022.2.4,Win32,60.13229104,61313bcdc465b84422b2246f,64d2fd46c836a06233681665,64dc7cbb847bd98900133bee,,,,,,,decisionTrl,resources/DBN.BMP,resources/DR.BMP,Door1,-0.279629601,0.014814801,1,0,0,0.6618,optionLeft,30,6385,3,28,0,28,0,1,,,,,,,,,,,,,,,,,,,,,,,,,,,,,,,,,,,,,,,
,,,,,,,,2023-08-16_08h37.45.787,HF_wild_card,2022.2.4,Win32,60.13229104,61313bcdc465b84422b2246f,64d2fd46c836a06233681665,64dc7cbb847bd98900133bee,,,,,,,decisionTrl,resources/DR.BMP,resources/DP.BMP,WildCard_NonEx,0.266666667,-0.027777778,1,0,0,1.495,optionRight,55,6440,3,29,0,29,0,1,,,,,,,,,,,,,,,,,,,,,,,,,,,,,,,,,,,,,,,
,,,,,,,,2023-08-16_08h37.45.787,HF_wild_card,2022.2.4,Win32,60.13229104,61313bcdc465b84422b2246f,64d2fd46c836a06233681665,64dc7cbb847bd98900133bee,,,,,,,ctch,resources/DY.BMP,resources/DR.BMP,Door3,-0.247222222,0.006481467,1,0,0,0.512,optionLeft,70,6510,3,30,0,30,0,1,,,,,,,,,,,,,,,,,,,,,,,,,,,,,,,,,,,,,,,
,,,,,,,,2023-08-16_08h37.45.787,HF_wild_card,2022.2.4,Win32,60.13229104,61313bcdc465b84422b2246f,64d2fd46c836a06233681665,64dc7cbb847bd98900133bee,,,,,,,decisionTrl,resources/DG.BMP,resources/DY.BMP,Door3,0.194444444,-0.011111111,1,0,0,0.7791,optionRight,70,6580,3,31,0,31,0,1,,,,,,,,,,,,,,,,,,,,,,,,,,,,,,,,,,,,,,,
,,,,,,,,2023-08-16_08h37.45.787,HF_wild_card,2022.2.4,Win32,60.13229104,61313bcdc465b84422b2246f,64d2fd46c836a06233681665,64dc7cbb847bd98900133bee,,,,,,,decisionTrl,resources/DG.BMP,resources/DY.BMP,Door3,0.247222222,-0.020370399,1,0,0,0.695,optionRight,70,6650,3,32,0,32,0,1,,,,,,,,,,,,,,,,,,,,,,,,,,,,,,,,,,,,,,,
,,,,,,,,2023-08-16_08h37.45.787,HF_wild_card,2022.2.4,Win32,60.13229104,61313bcdc465b84422b2246f,64d2fd46c836a06233681665,64dc7cbb847bd98900133bee,,,,,,,ctch,resources/DY.BMP,resources/DR.BMP,Door3,-0.200925912,-0.008333333,1,0,0,0.4957,optionLeft,70,6720,3,33,0,33,0,1,,,,,,,,,,,,,,,,,,,,,,,,,,,,,,,,,,,,,,,
,,,,,,,,2023-08-16_08h37.45.787,HF_wild_card,2022.2.4,Win32,60.13229104,61313bcdc465b84422b2246f,64d2fd46c836a06233681665,64dc7cbb847bd98900133bee,,,,,,,decisionTrl,resources/DY.BMP,resources/DG.BMP,Door3,-0.146296268,-0.001851866,1,0,0,0.6285,optionLeft,70,6790,3,34,0,34,0,1,,,,,,,,,,,,,,,,,,,,,,,,,,,,,,,,,,,,,,,
,,,,,,,,2023-08-16_08h37.45.787,HF_wild_card,2022.2.4,Win32,60.13229104,61313bcdc465b84422b2246f,64d2fd46c836a06233681665,64dc7cbb847bd98900133bee,,,,,,,decisionTrl,resources/DG.BMP,resources/DP.BMP,Door4,-0.262037023,0.054629601,1,0,0,2.0267,optionLeft,80,6870,3,35,0,35,0,1,,,,,,,,,,,,,,,,,,,,,,,,,,,,,,,,,,,,,,,
,,,,,,,,2023-08-16_08h37.45.787,HF_wild_card,2022.2.4,Win32,60.13229104,61313bcdc465b84422b2246f,64d2fd46c836a06233681665,64dc7cbb847bd98900133bee,,,,,,,decisionTrl,resources/DY.BMP,resources/DG.BMP,Door3,-0.14351849,0.012962935,1,0,0,0.7457,optionLeft,70,6940,3,36,0,36,0,1,,,,,,,,,,,,,,,,,,,,,,,,,,,,,,,,,,,,,,,
,,,,,,,,2023-08-16_08h37.45.787,HF_wild_card,2022.2.4,Win32,60.13229104,61313bcdc465b84422b2246f,64d2fd46c836a06233681665,64dc7cbb847bd98900133bee,,,,,,,decisionTrl,resources/DR.BMP,resources/DBN.BMP,Door2,-0.173148092,0.015740712,1,0,0,1.1287,optionLeft,20,6960,3,37,0,37,0,1,,,,,,,,,,,,,,,,,,,,,,,,,,,,,,,,,,,,,,,
,,,,,,,,2023-08-16_08h37.45.787,HF_wild_card,2022.2.4,Win32,60.13229104,61313bcdc465b84422b2246f,64d2fd46c836a06233681665,64dc7cbb847bd98900133bee,,,,,,,ctch,resources/DR.BMP,resources/DY.BMP,Door3,0.420370399,-0.000925954,1,0,0,0.8955,optionRight,70,7030,3,38,0,38,0,1,,,,,,,,,,,,,,,,,,,,,,,,,,,,,,,,,,,,,,,
,,,,,,,,2023-08-16_08h37.45.787,HF_wild_card,2022.2.4,Win32,60.13229104,61313bcdc465b84422b2246f,64d2fd46c836a06233681665,64dc7cbb847bd98900133bee,,,,,,,decisionTrl,resources/DBN.BMP,resources/DR.BMP,Door1,-0.376851824,-0.012962977,1,0,0,0.6288,optionLeft,30,7060,3,39,0,39,0,1,,,,,,,,,,,,,,,,,,,,,,,,,,,,,,,,,,,,,,,
,,,,,,,,2023-08-16_08h37.45.787,HF_wild_card,2022.2.4,Win32,60.13229104,61313bcdc465b84422b2246f,64d2fd46c836a06233681665,64dc7cbb847bd98900133bee,,,,,,,sngl,resources/DP.BMP,resources/Empty.png,WildCard_NonEx,-0.256481467,0.008333333,1,0,0,0.4779,optionLeft,55,7115,3,40,0,40,0,1,,,,,,,,,,,,,,,,,,,,,,,,,,,,,,,,,,,,,,,
,,,,,,,,2023-08-16_08h37.45.787,HF_wild_card,2022.2.4,Win32,60.13229104,61313bcdc465b84422b2246f,64d2fd46c836a06233681665,64dc7cbb847bd98900133bee,,,,,,,sngl,resources/DG.BMP,resources/Empty.png,Door4,-0.194444444,0.001851824,1,0,0,1.0634,optionLeft,80,7195,3,41,0,41,0,1,,,,,,,,,,,,,,,,,,,,,,,,,,,,,,,,,,,,,,,
,,,,,,,,2023-08-16_08h37.45.787,HF_wild_card,2022.2.4,Win32,60.13229104,61313bcdc465b84422b2246f,64d2fd46c836a06233681665,64dc7cbb847bd98900133bee,,,,,,,decisionTrl,resources/DG.BMP,resources/DY.BMP,Door3,0.243518575,-0.027777778,1,0,0,0.5968,optionRight,70,7265,3,42,0,42,0,1,,,,,,,,,,,,,,,,,,,,,,,,,,,,,,,,,,,,,,,
,,,,,,,,2023-08-16_08h37.45.787,HF_wild_card,2022.2.4,Win32,60.13229104,61313bcdc465b84422b2246f,64d2fd46c836a06233681665,64dc7cbb847bd98900133bee,,,,,,,decisionTrl,resources/DBN.BMP,resources/DR.BMP,Door1,-0.187962935,-0.012962977,1,0,0,1.5603,optionLeft,30,7295,3,43,0,43,0,1,,,,,,,,,,,,,,,,,,,,,,,,,,,,,,,,,,,,,,,
,,,,,,,,2023-08-16_08h37.45.787,HF_wild_card,2022.2.4,Win32,60.13229104,61313bcdc465b84422b2246f,64d2fd46c836a06233681665,64dc7cbb847bd98900133bee,,,,,,,,,,,,,,,,,,,,,,,,,,2,0,2,0,1,,,,,,,,,,,,,,,,,,,,,,,,,,,,,,,,,,
,,,,,,,,2023-08-16_08h37.45.787,HF_wild_card,2022.2.4,Win32,60.13229104,61313bcdc465b84422b2246f,64d2fd46c836a06233681665,64dc7cbb847bd98900133bee,,,,,,,decisionTrl,resources/DR.BMP,resources/DBN.BMP,Door1,0.304629686,-0.020370399,1,0,0,1.0609,optionRight,30,7325,4,0,0,0,0,1,,,,,,,,,,,,,,,,,,,,,,,,,,,,,,,,,,,,,,,
,,,,,,,,2023-08-16_08h37.45.787,HF_wild_card,2022.2.4,Win32,60.13229104,61313bcdc465b84422b2246f,64d2fd46c836a06233681665,64dc7cbb847bd98900133bee,,,,,,,decisionTrl,resources/DY.BMP,resources/DG.BMP,Door3,-0.137962935,0.017592578,1,0,0,0.7947,optionLeft,70,7395,4,1,0,1,0,1,,,,,,,,,,,,,,,,,,,,,,,,,,,,,,,,,,,,,,,
,,,,,,,,2023-08-16_08h37.45.787,HF_wild_card,2022.2.4,Win32,60.13229104,61313bcdc465b84422b2246f,64d2fd46c836a06233681665,64dc7cbb847bd98900133bee,,,,,,,decisionTrl,resources/DG.BMP,resources/DY.BMP,Door3,0.374074131,-0.020370399,1,0,0,0.5776,optionRight,70,7465,4,2,0,2,0,1,,,,,,,,,,,,,,,,,,,,,,,,,,,,,,,,,,,,,,,
,,,,,,,,2023-08-16_08h37.45.787,HF_wild_card,2022.2.4,Win32,60.13229104,61313bcdc465b84422b2246f,64d2fd46c836a06233681665,64dc7cbb847bd98900133bee,,,,,,,decisionTrl,resources/DR.BMP,resources/DBN.BMP,Door1,0.151851908,-0.02129631,1,0,0,0.7594,optionRight,30,7495,4,3,0,3,0,1,,,,,,,,,,,,,,,,,,,,,,,,,,,,,,,,,,,,,,,
,,,,,,,,2023-08-16_08h37.45.787,HF_wild_card,2022.2.4,Win32,60.13229104,61313bcdc465b84422b2246f,64d2fd46c836a06233681665,64dc7cbb847bd98900133bee,,,,,,,sngl,resources/DB.BMP,resources/Empty.png,WildCard_Ex,-0.170370314,0.009259245,1,0,0,0.9085,optionLeft,5,7500,4,4,0,4,0,1,,,,,,,,,,,,,,,,,,,,,,,,,,,,,,,,,,,,,,,
,,,,,,,,2023-08-16_08h37.45.787,HF_wild_card,2022.2.4,Win32,60.13229104,61313bcdc465b84422b2246f,64d2fd46c836a06233681665,64dc7cbb847bd98900133bee,,,,,,,decisionTrl,resources/DY.BMP,resources/DG.BMP,Door3,-0.160185157,0.011111111,1,0,0,0.7606,optionLeft,70,7570,4,5,0,5,0,1,,,,,,,,,,,,,,,,,,,,,,,,,,,,,,,,,,,,,,,
,,,,,,,,2023-08-16_08h37.45.787,HF_wild_card,2022.2.4,Win32,60.13229104,61313bcdc465b84422b2246f,64d2fd46c836a06233681665,64dc7cbb847bd98900133bee,,,,,,,decisionTrl,resources/DB.BMP,resources/DY.BMP,Door3,0.226851908,-0.025925954,1,0,0,0.6271,optionRight,70,7640,4,6,0,6,0,1,,,,,,,,,,,,,,,,,,,,,,,,,,,,,,,,,,,,,,,
,,,,,,,,2023-08-16_08h37.45.787,HF_wild_card,2022.2.4,Win32,60.13229104,61313bcdc465b84422b2246f,64d2fd46c836a06233681665,64dc7cbb847bd98900133bee,,,,,,,decisionTrl,resources/DBN.BMP,resources/DR.BMP,Door1,-0.173148092,0.027777778,1,0,0,0.831,optionLeft,30,7670,4,7,0,7,0,1,,,,,,,,,,,,,,,,,,,,,,,,,,,,,,,,,,,,,,,
,,,,,,,,2023-08-16_08h37.45.787,HF_wild_card,2022.2.4,Win32,60.13229104,61313bcdc465b84422b2246f,64d2fd46c836a06233681665,64dc7cbb847bd98900133bee,,,,,,,decisionTrl,resources/DG.BMP,resources/DY.BMP,Door3,0.230555556,-0.025,1,0,0,0.6465,optionRight,70,7740,4,8,0,8,0,1,,,,,,,,,,,,,,,,,,,,,,,,,,,,,,,,,,,,,,,
,,,,,,,,2023-08-16_08h37.45.787,HF_wild_card,2022.2.4,Win32,60.13229104,61313bcdc465b84422b2246f,64d2fd46c836a06233681665,64dc7cbb847bd98900133bee,,,,,,,sngl,resources/DY.BMP,resources/Empty.png,Door3,-0.222222222,0.010185157,1,0,0,0.4769,optionLeft,70,7810,4,9,0,9,0,1,,,,,,,,,,,,,,,,,,,,,,,,,,,,,,,,,,,,,,,
,,,,,,,,2023-08-16_08h37.45.787,HF_wild_card,2022.2.4,Win32,60.13229104,61313bcdc465b84422b2246f,64d2fd46c836a06233681665,64dc7cbb847bd98900133bee,,,,,,,sngl,resources/Empty.png,resources/DB.BMP,WildCard_Ex,0.159259288,-0.000925954,1,0,0,0.8616,optionRight,5,7815,4,10,0,10,0,1,,,,,,,,,,,,,,,,,,,,,,,,,,,,,,,,,,,,,,,
,,,,,,,,2023-08-16_08h37.45.787,HF_wild_card,2022.2.4,Win32,60.13229104,61313bcdc465b84422b2246f,64d2fd46c836a06233681665,64dc7cbb847bd98900133bee,,,,,,,ctch,resources/DBN.BMP,resources/DG.BMP,Door4,0.132407464,-0.03148151,1,0,0,1.6286,optionRight,80,7895,4,11,0,11,0,1,,,,,,,,,,,,,,,,,,,,,,,,,,,,,,,,,,,,,,,
,,,,,,,,2023-08-16_08h37.45.787,HF_wild_card,2022.2.4,Win32,60.13229104,61313bcdc465b84422b2246f,64d2fd46c836a06233681665,64dc7cbb847bd98900133bee,,,,,,,decisionTrl,resources/DG.BMP,resources/DY.BMP,Door3,0.134259288,0.015740712,1,0,0,0.8267,optionRight,70,7965,4,12,0,12,0,1,,,,,,,,,,,,,,,,,,,,,,,,,,,,,,,,,,,,,,,
,,,,,,,,2023-08-16_08h37.45.787,HF_wild_card,2022.2.4,Win32,60.13229104,61313bcdc465b84422b2246f,64d2fd46c836a06233681665,64dc7cbb847bd98900133bee,,,,,,,sngl,resources/DR.BMP,resources/Empty.png,Door2,-0.280555556,0.023148134,1,0,0,0.4779,optionLeft,20,7985,4,13,0,13,0,1,,,,,,,,,,,,,,,,,,,,,,,,,,,,,,,,,,,,,,,
,,,,,,,,2023-08-16_08h37.45.787,HF_wild_card,2022.2.4,Win32,60.13229104,61313bcdc465b84422b2246f,64d2fd46c836a06233681665,64dc7cbb847bd98900133bee,,,,,,,sngl,resources/Empty.png,resources/DB.BMP,WildCard_Ex,0.203703732,-0.062037065,1,0,0,0.4707,optionRight,95,8080,4,14,0,14,0,1,,,,,,,,,,,,,,,,,,,,,,,,,,,,,,,,,,,,,,,
,,,,,,,,2023-08-16_08h37.45.787,HF_wild_card,2022.2.4,Win32,60.13229104,61313bcdc465b84422b2246f,64d2fd46c836a06233681665,64dc7cbb847bd98900133bee,,,,,,,decisionTrl,resources/DY.BMP,resources/DG.BMP,Door3,-0.176851824,0.016666667,1,0,0,1.3768,optionLeft,70,8150,4,15,0,15,0,1,,,,,,,,,,,,,,,,,,,,,,,,,,,,,,,,,,,,,,,
,,,,,,,,2023-08-16_08h37.45.787,HF_wild_card,2022.2.4,Win32,60.13229104,61313bcdc465b84422b2246f,64d2fd46c836a06233681665,64dc7cbb847bd98900133bee,,,,,,,sngl,resources/Empty.png,resources/DBN.BMP,Door1,0.221296353,-0.028703732,1,0,0,0.9937,optionRight,30,8180,4,16,0,16,0,1,,,,,,,,,,,,,,,,,,,,,,,,,,,,,,,,,,,,,,,
,,,,,,,,2023-08-16_08h37.45.787,HF_wild_card,2022.2.4,Win32,60.13229104,61313bcdc465b84422b2246f,64d2fd46c836a06233681665,64dc7cbb847bd98900133bee,,,,,,,decisionTrl,resources/DG.BMP,resources/DB.BMP,Door4,-0.187962935,0.001851824,1,0,0,0.685,optionLeft,80,8260,4,17,0,17,0,1,,,,,,,,,,,,,,,,,,,,,,,,,,,,,,,,,,,,,,,
,,,,,,,,2023-08-16_08h37.45.787,HF_wild_card,2022.2.4,Win32,60.13229104,61313bcdc465b84422b2246f,64d2fd46c836a06233681665,64dc7cbb847bd98900133bee,,,,,,,sngl,resources/DB.BMP,resources/Empty.png,WildCard_Ex,-0.229629601,0.008333333,1,0,0,0.6256,optionLeft,95,8355,4,18,0,18,0,1,,,,,,,,,,,,,,,,,,,,,,,,,,,,,,,,,,,,,,,
,,,,,,,,2023-08-16_08h37.45.787,HF_wild_card,2022.2.4,Win32,60.13229104,61313bcdc465b84422b2246f,64d2fd46c836a06233681665,64dc7cbb847bd98900133bee,,,,,,,ctch,resources/DY.BMP,resources/DR.BMP,Door3,-0.197222222,0.000925912,1,0,0,1.217,optionLeft,70,8425,4,19,0,19,0,1,,,,,,,,,,,,,,,,,,,,,,,,,,,,,,,,,,,,,,,
,,,,,,,,2023-08-16_08h37.45.787,HF_wild_card,2022.2.4,Win32,60.13229104,61313bcdc465b84422b2246f,64d2fd46c836a06233681665,64dc7cbb847bd98900133bee,,,,,,,decisionTrl,resources/DBN.BMP,resources/DR.BMP,Door1,-0.181481467,0.015740712,1,0,0,0.7112,optionLeft,30,8455,4,20,0,20,0,1,,,,,,,,,,,,,,,,,,,,,,,,,,,,,,,,,,,,,,,
,,,,,,,,2023-08-16_08h37.45.787,HF_wild_card,2022.2.4,Win32,60.13229104,61313bcdc465b84422b2246f,64d2fd46c836a06233681665,64dc7cbb847bd98900133bee,,,,,,,decisionTrl,resources/DB.BMP,resources/DG.BMP,Door4,0.160185242,-0.032407422,1,0,0,0.6438,optionRight,80,8535,4,21,0,21,0,1,,,,,,,,,,,,,,,,,,,,,,,,,,,,,,,,,,,,,,,
,,,,,,,,2023-08-16_08h37.45.787,HF_wild_card,2022.2.4,Win32,60.13229104,61313bcdc465b84422b2246f,64d2fd46c836a06233681665,64dc7cbb847bd98900133bee,,,,,,,decisionTrl,resources/DR.BMP,resources/DBN.BMP,Door1,0.393518575,0.002777778,1,0,0,1.0402,optionRight,30,8565,4,22,0,22,0,1,,,,,,,,,,,,,,,,,,,,,,,,,,,,,,,,,,,,,,,
,,,,,,,,2023-08-16_08h37.45.787,HF_wild_card,2022.2.4,Win32,60.13229104,61313bcdc465b84422b2246f,64d2fd46c836a06233681665,64dc7cbb847bd98900133bee,,,,,,,ctch,resources/DR.BMP,resources/DY.BMP,Door3,0.284259288,-0.025925954,1,0,0,0.7269,optionRight,70,8635,4,23,0,23,0,1,,,,,,,,,,,,,,,,,,,,,,,,,,,,,,,,,,,,,,,
,,,,,,,,2023-08-16_08h37.45.787,HF_wild_card,2022.2.4,Win32,60.13229104,61313bcdc465b84422b2246f,64d2fd46c836a06233681665,64dc7cbb847bd98900133bee,,,,,,,decisionTrl,resources/DR.BMP,resources/DBN.BMP,Door1,0.274074131,-0.038888889,1,0,0,0.6593,optionRight,30,8665,4,24,0,24,0,1,,,,,,,,,,,,,,,,,,,,,,,,,,,,,,,,,,,,,,,
,,,,,,,,2023-08-16_08h37.45.787,HF_wild_card,2022.2.4,Win32,60.13229104,61313bcdc465b84422b2246f,64d2fd46c836a06233681665,64dc7cbb847bd98900133bee,,,,,,,ctch,resources/DBN.BMP,resources/DG.BMP,Door4,0.375,-0.058333333,1,0,0,0.6575,optionRight,80,8745,4,25,0,25,0,1,,,,,,,,,,,,,,,,,,,,,,,,,,,,,,,,,,,,,,,
,,,,,,,,2023-08-16_08h37.45.787,HF_wild_card,2022.2.4,Win32,60.13229104,61313bcdc465b84422b2246f,64d2fd46c836a06233681665,64dc7cbb847bd98900133bee,,,,,,,decisionTrl,resources/DG.BMP,resources/DY.BMP,Door3,0.354629686,-0.009259288,1,0,0,0.6429,optionRight,70,8815,4,26,0,26,0,1,,,,,,,,,,,,,,,,,,,,,,,,,,,,,,,,,,,,,,,
,,,,,,,,2023-08-16_08h37.45.787,HF_wild_card,2022.2.4,Win32,60.13229104,61313bcdc465b84422b2246f,64d2fd46c836a06233681665,64dc7cbb847bd98900133bee,,,,,,,ctch,resources/DY.BMP,resources/DR.BMP,Door3,-0.163888889,0.007407379,1,0,0,1.1102,optionLeft,70,8885,4,27,0,27,0,1,,,,,,,,,,,,,,,,,,,,,,,,,,,,,,,,,,,,,,,
,,,,,,,,2023-08-16_08h37.45.787,HF_wild_card,2022.2.4,Win32,60.13229104,61313bcdc465b84422b2246f,64d2fd46c836a06233681665,64dc7cbb847bd98900133bee,,,,,,,sngl,resources/Empty.png,resources/DR.BMP,Door2,0.25,-0.025,1,0,0,0.4587,optionRight,40,8925,4,28,0,28,0,1,,,,,,,,,,,,,,,,,,,,,,,,,,,,,,,,,,,,,,,
,,,,,,,,2023-08-16_08h37.45.787,HF_wild_card,2022.2.4,Win32,60.13229104,61313bcdc465b84422b2246f,64d2fd46c836a06233681665,64dc7cbb847bd98900133bee,,,,,,,decisionTrl,resources/DY.BMP,resources/DB.BMP,Door3,-0.155555556,0.009259245,1,0,0,0.9108,optionLeft,70,8995,4,29,0,29,0,1,,,,,,,,,,,,,,,,,,,,,,,,,,,,,,,,,,,,,,,
,,,,,,,,2023-08-16_08h37.45.787,HF_wild_card,2022.2.4,Win32,60.13229104,61313bcdc465b84422b2246f,64d2fd46c836a06233681665,64dc7cbb847bd98900133bee,,,,,,,ctch,resources/DR.BMP,resources/DY.BMP,Door3,0.179629686,-0.007407422,1,0,0,0.6776,optionRight,70,9065,4,30,0,30,0,1,,,,,,,,,,,,,,,,,,,,,,,,,,,,,,,,,,,,,,,
,,,,,,,,2023-08-16_08h37.45.787,HF_wild_card,2022.2.4,Win32,60.13229104,61313bcdc465b84422b2246f,64d2fd46c836a06233681665,64dc7cbb847bd98900133bee,,,,,,,decisionTrl,resources/DY.BMP,resources/DG.BMP,Door3,-0.249074046,0.024074046,1,0,0,0.6447,optionLeft,70,9135,4,31,0,31,0,1,,,,,,,,,,,,,,,,,,,,,,,,,,,,,,,,,,,,,,,
,,,,,,,,2023-08-16_08h37.45.787,HF_wild_card,2022.2.4,Win32,60.13229104,61313bcdc465b84422b2246f,64d2fd46c836a06233681665,64dc7cbb847bd98900133bee,,,,,,,ctch,resources/DG.BMP,resources/DBN.BMP,Door4,-0.266666667,0.047222222,1,0,0,0.8769,optionLeft,80,9215,4,32,0,32,0,1,,,,,,,,,,,,,,,,,,,,,,,,,,,,,,,,,,,,,,,
,,,,,,,,2023-08-16_08h37.45.787,HF_wild_card,2022.2.4,Win32,60.13229104,61313bcdc465b84422b2246f,64d2fd46c836a06233681665,64dc7cbb847bd98900133bee,,,,,,,sngl,resources/DBN.BMP,resources/Empty.png,Door1,-0.256481467,0.029629601,1,0,0,0.511,optionLeft,30,9245,4,33,0,33,0,1,,,,,,,,,,,,,,,,,,,,,,,,,,,,,,,,,,,,,,,
,,,,,,,,2023-08-16_08h37.45.787,HF_wild_card,2022.2.4,Win32,60.13229104,61313bcdc465b84422b2246f,64d2fd46c836a06233681665,64dc7cbb847bd98900133bee,,,,,,,decisionTrl,resources/DBN.BMP,resources/DB.BMP,Door1,-0.226851824,0.034259245,1,0,0,0.7107,optionLeft,30,9275,4,34,0,34,0,1,,,,,,,,,,,,,,,,,,,,,,,,,,,,,,,,,,,,,,,
,,,,,,,,2023-08-16_08h37.45.787,HF_wild_card,2022.2.4,Win32,60.13229104,61313bcdc465b84422b2246f,64d2fd46c836a06233681665,64dc7cbb847bd98900133bee,,,,,,,sngl,resources/Empty.png,resources/DG.BMP,Door4,0.268518575,-0.025,1,0,0,0.6595,optionRight,80,9355,4,35,0,35,0,1,,,,,,,,,,,,,,,,,,,,,,,,,,,,,,,,,,,,,,,
,,,,,,,,2023-08-16_08h37.45.787,HF_wild_card,2022.2.4,Win32,60.13229104,61313bcdc465b84422b2246f,64d2fd46c836a06233681665,64dc7cbb847bd98900133bee,,,,,,,decisionTrl,resources/DR.BMP,resources/DB.BMP,WildCard_Ex,0.271296353,-0.041666667,1,0,0,0.8774,optionRight,95,9450,4,36,0,36,0,1,,,,,,,,,,,,,,,,,,,,,,,,,,,,,,,,,,,,,,,
,,,,,,,,2023-08-16_08h37.45.787,HF_wild_card,2022.2.4,Win32,60.13229104,61313bcdc465b84422b2246f,64d2fd46c836a06233681665,64dc7cbb847bd98900133bee,,,,,,,sngl,resources/Empty.png,resources/DY.BMP,Door3,0.265740797,-0.049074088,1,0,0,0.5317,optionRight,70,9520,4,37,0,37,0,1,,,,,,,,,,,,,,,,,,,,,,,,,,,,,,,,,,,,,,,
,,,,,,,,2023-08-16_08h37.45.787,HF_wild_card,2022.2.4,Win32,60.13229104,61313bcdc465b84422b2246f,64d2fd46c836a06233681665,64dc7cbb847bd98900133bee,,,,,,,decisionTrl,resources/DB.BMP,resources/DBN.BMP,Door1,0.134259288,-0.009259288,1,0,0,2.0291,optionRight,30,9550,4,38,0,38,0,1,,,,,,,,,,,,,,,,,,,,,,,,,,,,,,,,,,,,,,,
,,,,,,,,2023-08-16_08h37.45.787,HF_wild_card,2022.2.4,Win32,60.13229104,61313bcdc465b84422b2246f,64d2fd46c836a06233681665,64dc7cbb847bd98900133bee,,,,,,,sngl,resources/DG.BMP,resources/Empty.png,Door4,-0.162962935,-0.00648151,1,0,0,0.5189,optionLeft,60,9610,4,39,0,39,0,1,,,,,,,,,,,,,,,,,,,,,,,,,,,,,,,,,,,,,,,
,,,,,,,,2023-08-16_08h37.45.787,HF_wild_card,2022.2.4,Win32,60.13229104,61313bcdc465b84422b2246f,64d2fd46c836a06233681665,64dc7cbb847bd98900133bee,,,,,,,ctch,resources/DG.BMP,resources/DBN.BMP,Door4,-0.122222222,-0.003703732,1,0,0,1.1268,optionLeft,80,9690,4,40,0,40,0,1,,,,,,,,,,,,,,,,,,,,,,,,,,,,,,,,,,,,,,,
,,,,,,,,2023-08-16_08h37.45.787,HF_wild_card,2022.2.4,Win32,60.13229104,61313bcdc465b84422b2246f,64d2fd46c836a06233681665,64dc7cbb847bd98900133bee,,,,,,,decisionTrl,resources/DB.BMP,resources/DR.BMP,WildCard_Ex,-0.274074046,0.014814801,1,0,0,1.0934,optionLeft,5,9695,4,41,0,41,0,1,,,,,,,,,,,,,,,,,,,,,,,,,,,,,,,,,,,,,,,
,,,,,,,,2023-08-16_08h37.45.787,HF_wild_card,2022.2.4,Win32,60.13229104,61313bcdc465b84422b2246f,64d2fd46c836a06233681665,64dc7cbb847bd98900133bee,,,,,,,decisionTrl,resources/DBN.BMP,resources/DR.BMP,Door1,-0.254629601,0.006481467,1,0,0,1.138,optionLeft,30,9725,4,42,0,42,0,1,,,,,,,,,,,,,,,,,,,,,,,,,,,,,,,,,,,,,,,
,,,,,,,,2023-08-16_08h37.45.787,HF_wild_card,2022.2.4,Win32,60.13229104,61313bcdc465b84422b2246f,64d2fd46c836a06233681665,64dc7cbb847bd98900133bee,,,,,,,decisionTrl,resources/DBN.BMP,resources/DR.BMP,Door1,-0.162962935,-0.008333333,1,0,0,0.5615,optionLeft,30,9755,4,43,0,43,0,1,,,,,,,,,,,,,,,,,,,,,,,,,,,,,,,,,,,,,,,
,,,,,,,,2023-08-16_08h37.45.787,HF_wild_card,2022.2.4,Win32,60.13229104,61313bcdc465b84422b2246f,64d2fd46c836a06233681665,64dc7cbb847bd98900133bee,,,,,,,,,,,,,,,,,,,,,,,,,,3,0,3,0,1,,,,,,,,,,,,,,,,,,,,,,,,,,,,,,,,,,
,,,,,,,,2023-08-16_08h37.45.787,HF_wild_card,2022.2.4,Win32,60.13229104,61313bcdc465b84422b2246f,64d2fd46c836a06233681665,64dc7cbb847bd98900133bee,,,,,,,decisionTrl,resources/DY.BMP,resources/DG.BMP,Door3,-0.173148092,-0.027777778,1,0,0,0.8087,optionLeft,70,9825,5,0,0,0,0,1,,,,,,,,,,,,,,,,,,,,,,,,,,,,,,,,,,,,,,,
,,,,,,,,2023-08-16_08h37.45.787,HF_wild_card,2022.2.4,Win32,60.13229104,61313bcdc465b84422b2246f,64d2fd46c836a06233681665,64dc7cbb847bd98900133bee,,,,,,,decisionTrl,resources/DG.BMP,resources/DY.BMP,Door3,0.130555556,-0.034259288,1,0,0,1.3603,optionRight,70,9895,5,1,0,1,0,1,,,,,,,,,,,,,,,,,,,,,,,,,,,,,,,,,,,,,,,
,,,,,,,,2023-08-16_08h37.45.787,HF_wild_card,2022.2.4,Win32,60.13229104,61313bcdc465b84422b2246f,64d2fd46c836a06233681665,64dc7cbb847bd98900133bee,,,,,,,ctch,resources/DBN.BMP,resources/DG.BMP,Door4,0.317592621,-0.049074088,1,0,0,0.7633,optionRight,80,9975,5,2,0,2,0,1,,,,,,,,,,,,,,,,,,,,,,,,,,,,,,,,,,,,,,,
,,,,,,,,2023-08-16_08h37.45.787,HF_wild_card,2022.2.4,Win32,60.13229104,61313bcdc465b84422b2246f,64d2fd46c836a06233681665,64dc7cbb847bd98900133bee,,,,,,,decisionTrl,resources/DB.BMP,resources/DG.BMP,Door4,0.211111111,-0.029629644,1,0,0,1.1783,optionRight,60,10035,5,3,0,3,0,1,,,,,,,,,,,,,,,,,,,,,,,,,,,,,,,,,,,,,,,
,,,,,,,,2023-08-16_08h37.45.787,HF_wild_card,2022.2.4,Win32,60.13229104,61313bcdc465b84422b2246f,64d2fd46c836a06233681665,64dc7cbb847bd98900133bee,,,,,,,decisionTrl,resources/DR.BMP,resources/DBN.BMP,Door1,0.354629686,-0.015740755,1,0,0,1.2597,optionRight,30,10065,5,4,0,4,0,1,,,,,,,,,,,,,,,,,,,,,,,,,,,,,,,,,,,,,,,
,,,,,,,,2023-08-16_08h37.45.787,HF_wild_card,2022.2.4,Win32,60.13229104,61313bcdc465b84422b2246f,64d2fd46c836a06233681665,64dc7cbb847bd98900133bee,,,,,,,decisionTrl,resources/DB.BMP,resources/DR.BMP,WildCard_Ex,-0.160185157,0.012037023,1,0,0,1.11,optionLeft,5,10070,5,5,0,5,0,1,,,,,,,,,,,,,,,,,,,,,,,,,,,,,,,,,,,,,,,
,,,,,,,,2023-08-16_08h37.45.787,HF_wild_card,2022.2.4,Win32,60.13229104,61313bcdc465b84422b2246f,64d2fd46c836a06233681665,64dc7cbb847bd98900133bee,,,,,,,sngl,resources/DBN.BMP,resources/Empty.png,Door1,-0.212037023,0.005555556,1,0,0,0.6682,optionLeft,30,10100,5,6,0,6,0,1,,,,,,,,,,,,,,,,,,,,,,,,,,,,,,,,,,,,,,,
,,,,,,,,2023-08-16_08h37.45.787,HF_wild_card,2022.2.4,Win32,60.13229104,61313bcdc465b84422b2246f,64d2fd46c836a06233681665,64dc7cbb847bd98900133bee,,,,,,,sngl,resources/DG.BMP,resources/Empty.png,Door4,-0.183333333,0.025925912,1,0,0,0.4932,optionLeft,80,10180,5,7,0,7,0,1,,,,,,,,,,,,,,,,,,,,,,,,,,,,,,,,,,,,,,,
,,,,,,,,2023-08-16_08h37.45.787,HF_wild_card,2022.2.4,Win32,60.13229104,61313bcdc465b84422b2246f,64d2fd46c836a06233681665,64dc7cbb847bd98900133bee,,,,,,,decisionTrl,resources/DG.BMP,resources/DY.BMP,Door3,0.176851908,0.002777778,1,0,0,1.1304,optionRight,70,10250,5,8,0,8,0,1,,,,,,,,,,,,,,,,,,,,,,,,,,,,,,,,,,,,,,,
,,,,,,,,2023-08-16_08h37.45.787,HF_wild_card,2022.2.4,Win32,60.13229104,61313bcdc465b84422b2246f,64d2fd46c836a06233681665,64dc7cbb847bd98900133bee,,,,,,,decisionTrl,resources/DY.BMP,resources/DB.BMP,Door3,-0.194444444,0.030555556,1,0,0,0.9588,optionLeft,70,10320,5,9,0,9,0,1,,,,,,,,,,,,,,,,,,,,,,,,,,,,,,,,,,,,,,,
,,,,,,,,2023-08-16_08h37.45.787,HF_wild_card,2022.2.4,Win32,60.13229104,61313bcdc465b84422b2246f,64d2fd46c836a06233681665,64dc7cbb847bd98900133bee,,,,,,,sngl,resources/Empty.png,resources/DY.BMP,Door3,0.205555556,-0.037962977,1,0,0,0.5272,optionRight,70,10390,5,10,0,10,0,1,,,,,,,,,,,,,,,,,,,,,,,,,,,,,,,,,,,,,,,
,,,,,,,,2023-08-16_08h37.45.787,HF_wild_card,2022.2.4,Win32,60.13229104,61313bcdc465b84422b2246f,64d2fd46c836a06233681665,64dc7cbb847bd98900133bee,,,,,,,decisionTrl,resources/DY.BMP,resources/DG.BMP,Door3,-0.182407379,0.019444444,1,0,0,0.8779,optionLeft,70,10460,5,11,0,11,0,1,,,,,,,,,,,,,,,,,,,,,,,,,,,,,,,,,,,,,,,
,,,,,,,,2023-08-16_08h37.45.787,HF_wild_card,2022.2.4,Win32,60.13229104,61313bcdc465b84422b2246f,64d2fd46c836a06233681665,64dc7cbb847bd98900133bee,,,,,,,decisionTrl,resources/DR.BMP,resources/DBN.BMP,Door1,0.337037065,-0.054629644,1,0,0,1.2753,optionRight,30,10490,5,12,0,12,0,1,,,,,,,,,,,,,,,,,,,,,,,,,,,,,,,,,,,,,,,
,,,,,,,,2023-08-16_08h37.45.787,HF_wild_card,2022.2.4,Win32,60.13229104,61313bcdc465b84422b2246f,64d2fd46c836a06233681665,64dc7cbb847bd98900133bee,,,,,,,sngl,resources/DR.BMP,resources/Empty.png,Door2,-0.201851824,0.017592578,1,0,0,0.4588,optionLeft,40,10530,5,13,0,13,0,1,,,,,,,,,,,,,,,,,,,,,,,,,,,,,,,,,,,,,,,
,,,,,,,,2023-08-16_08h37.45.787,HF_wild_card,2022.2.4,Win32,60.13229104,61313bcdc465b84422b2246f,64d2fd46c836a06233681665,64dc7cbb847bd98900133bee,,,,,,,decisionTrl,resources/DBN.BMP,resources/DR.BMP,Door1,-0.181481467,0.020370356,1,0,0,1.3762,optionLeft,30,10560,5,14,0,14,0,1,,,,,,,,,,,,,,,,,,,,,,,,,,,,,,,,,,,,,,,
,,,,,,,,2023-08-16_08h37.45.787,HF_wild_card,2022.2.4,Win32,60.13229104,61313bcdc465b84422b2246f,64d2fd46c836a06233681665,64dc7cbb847bd98900133bee,,,,,,,sngl,resources/DB.BMP,resources/Empty.png,WildCard_Ex,-0.171296268,0.007407379,1,0,0,0.675,optionLeft,5,10565,5,15,0,15,0,1,,,,,,,,,,,,,,,,,,,,,,,,,,,,,,,,,,,,,,,
,,,,,,,,2023-08-16_08h37.45.787,HF_wild_card,2022.2.4,Win32,60.13229104,61313bcdc465b84422b2246f,64d2fd46c836a06233681665,64dc7cbb847bd98900133bee,,,,,,,decisionTrl,resources/DR.BMP,resources/DBN.BMP,Door1,0.227777778,-0.017592621,1,0,0,1.0445,optionRight,30,10595,5,16,0,16,0,1,,,,,,,,,,,,,,,,,,,,,,,,,,,,,,,,,,,,,,,
,,,,,,,,2023-08-16_08h37.45.787,HF_wild_card,2022.2.4,Win32,60.13229104,61313bcdc465b84422b2246f,64d2fd46c836a06233681665,64dc7cbb847bd98900133bee,,,,,,,ctch,resources/DBN.BMP,resources/DG.BMP,Door4,0.168518575,-0.024074088,1,0,0,0.7973,optionRight,60,10655,5,17,0,17,0,1,,,,,,,,,,,,,,,,,,,,,,,,,,,,,,,,,,,,,,,
,,,,,,,,2023-08-16_08h37.45.787,HF_wild_card,2022.2.4,Win32,60.13229104,61313bcdc465b84422b2246f,64d2fd46c836a06233681665,64dc7cbb847bd98900133bee,,,,,,,decisionTrl,resources/DG.BMP,resources/DY.BMP,Door3,0.20648151,-0.043518533,1,0,0,0.5611,optionRight,70,10725,5,18,0,18,0,1,,,,,,,,,,,,,,,,,,,,,,,,,,,,,,,,,,,,,,,
,,,,,,,,2023-08-16_08h37.45.787,HF_wild_card,2022.2.4,Win32,60.13229104,61313bcdc465b84422b2246f,64d2fd46c836a06233681665,64dc7cbb847bd98900133bee,,,,,,,decisionTrl,resources/DBN.BMP,resources/DR.BMP,Door1,-0.124074046,0.005555556,1,0,0,1.0935,optionLeft,30,10755,5,19,0,19,0,1,,,,,,,,,,,,,,,,,,,,,,,,,,,,,,,,,,,,,,,
,,,,,,,,2023-08-16_08h37.45.787,HF_wild_card,2022.2.4,Win32,60.13229104,61313bcdc465b84422b2246f,64d2fd46c836a06233681665,64dc7cbb847bd98900133bee,,,,,,,ctch,resources/DR.BMP,resources/DY.BMP,Door3,0.189814843,-0.041666667,1,0,0,0.7318,optionRight,70,10825,5,20,0,20,0,1,,,,,,,,,,,,,,,,,,,,,,,,,,,,,,,,,,,,,,,
,,,,,,,,2023-08-16_08h37.45.787,HF_wild_card,2022.2.4,Win32,60.13229104,61313bcdc465b84422b2246f,64d2fd46c836a06233681665,64dc7cbb847bd98900133bee,,,,,,,decisionTrl,resources/DY.BMP,resources/DG.BMP,Door3,-0.137962935,0,1,0,0,0.9882,optionLeft,70,10895,5,21,0,21,0,1,,,,,,,,,,,,,,,,,,,,,,,,,,,,,,,,,,,,,,,
,,,,,,,,2023-08-16_08h37.45.787,HF_wild_card,2022.2.4,Win32,60.13229104,61313bcdc465b84422b2246f,64d2fd46c836a06233681665,64dc7cbb847bd98900133bee,,,,,,,ctch,resources/DG.BMP,resources/DBN.BMP,Door4,-0.131481425,0,1,0,0,0.7643,optionLeft,60,10955,5,22,0,22,0,1,,,,,,,,,,,,,,,,,,,,,,,,,,,,,,,,,,,,,,,
,,,,,,,,2023-08-16_08h37.45.787,HF_wild_card,2022.2.4,Win32,60.13229104,61313bcdc465b84422b2246f,64d2fd46c836a06233681665,64dc7cbb847bd98900133bee,,,,,,,decisionTrl,resources/DB.BMP,resources/DY.BMP,Door3,0.157407464,-0.010185199,1,0,0,1.0032,optionRight,70,11025,5,23,0,23,0,1,,,,,,,,,,,,,,,,,,,,,,,,,,,,,,,,,,,,,,,
,,,,,,,,2023-08-16_08h37.45.787,HF_wild_card,2022.2.4,Win32,60.13229104,61313bcdc465b84422b2246f,64d2fd46c836a06233681665,64dc7cbb847bd98900133bee,,,,,,,decisionTrl,resources/DY.BMP,resources/DG.BMP,Door3,-0.147222222,0.007407379,1,0,0,0.8929,optionLeft,70,11095,5,24,0,24,0,1,,,,,,,,,,,,,,,,,,,,,,,,,,,,,,,,,,,,,,,
,,,,,,,,2023-08-16_08h37.45.787,HF_wild_card,2022.2.4,Win32,60.13229104,61313bcdc465b84422b2246f,64d2fd46c836a06233681665,64dc7cbb847bd98900133bee,,,,,,,sngl,resources/Empty.png,resources/DB.BMP,WildCard_Ex,0.192592621,-0.020370399,1,0,0,0.5088,optionRight,95,11190,5,25,0,25,0,1,,,,,,,,,,,,,,,,,,,,,,,,,,,,,,,,,,,,,,,
,,,,,,,,2023-08-16_08h37.45.787,HF_wild_card,2022.2.4,Win32,60.13229104,61313bcdc465b84422b2246f,64d2fd46c836a06233681665,64dc7cbb847bd98900133bee,,,,,,,ctch,resources/DG.BMP,resources/DBN.BMP,Door4,-0.145370314,0.00370369,1,0,0,1.2411,optionLeft,60,11250,5,26,0,26,0,1,,,,,,,,,,,,,,,,,,,,,,,,,,,,,,,,,,,,,,,
,,,,,,,,2023-08-16_08h37.45.787,HF_wild_card,2022.2.4,Win32,60.13229104,61313bcdc465b84422b2246f,64d2fd46c836a06233681665,64dc7cbb847bd98900133bee,,,,,,,ctch,resources/DR.BMP,resources/DY.BMP,Door3,0.136111111,-0.012962977,1,0,0,0.6621,optionRight,70,11320,5,27,0,27,0,1,,,,,,,,,,,,,,,,,,,,,,,,,,,,,,,,,,,,,,,
,,,,,,,,2023-08-16_08h37.45.787,HF_wild_card,2022.2.4,Win32,60.13229104,61313bcdc465b84422b2246f,64d2fd46c836a06233681665,64dc7cbb847bd98900133bee,,,,,,,decisionTrl,resources/DBN.BMP,resources/DB.BMP,WildCard_Ex,0.144444444,0,1,0,0,2.3939,optionRight,5,11325,5,28,0,28,0,1,,,,,,,,,,,,,,,,,,,,,,,,,,,,,,,,,,,,,,,
,,,,,,,,2023-08-16_08h37.45.787,HF_wild_card,2022.2.4,Win32,60.13229104,61313bcdc465b84422b2246f,64d2fd46c836a06233681665,64dc7cbb847bd98900133bee,,,,,,,sngl,resources/Empty.png,resources/DB.BMP,WildCard_Ex,0.225,-0.037962977,1,0,0,0.5282,optionRight,5,11330,5,29,0,29,0,1,,,,,,,,,,,,,,,,,,,,,,,,,,,,,,,,,,,,,,,
,,,,,,,,2023-08-16_08h37.45.787,HF_wild_card,2022.2.4,Win32,60.13229104,61313bcdc465b84422b2246f,64d2fd46c836a06233681665,64dc7cbb847bd98900133bee,,,,,,,ctch,resources/DY.BMP,resources/DR.BMP,Door3,-0.216666667,0,1,0,0,0.7957,optionLeft,70,11400,5,30,0,30,0,1,,,,,,,,,,,,,,,,,,,,,,,,,,,,,,,,,,,,,,,
,,,,,,,,2023-08-16_08h37.45.787,HF_wild_card,2022.2.4,Win32,60.13229104,61313bcdc465b84422b2246f,64d2fd46c836a06233681665,64dc7cbb847bd98900133bee,,,,,,,decisionTrl,resources/DBN.BMP,resources/DR.BMP,Door1,-0.221296268,0.001851824,1,0,0,1.2842,optionLeft,30,11430,5,31,0,31,0,1,,,,,,,,,,,,,,,,,,,,,,,,,,,,,,,,,,,,,,,
,,,,,,,,2023-08-16_08h37.45.787,HF_wild_card,2022.2.4,Win32,60.13229104,61313bcdc465b84422b2246f,64d2fd46c836a06233681665,64dc7cbb847bd98900133bee,,,,,,,sngl,resources/DY.BMP,resources/Empty.png,Door3,-0.162962935,-0.012037065,1,0,0,0.5101,optionLeft,70,11500,5,32,0,32,0,1,,,,,,,,,,,,,,,,,,,,,,,,,,,,,,,,,,,,,,,
,,,,,,,,2023-08-16_08h37.45.787,HF_wild_card,2022.2.4,Win32,60.13229104,61313bcdc465b84422b2246f,64d2fd46c836a06233681665,64dc7cbb847bd98900133bee,,,,,,,decisionTrl,resources/DG.BMP,resources/DY.BMP,Door3,0.299074131,-0.04629631,1,0,0,1.0264,optionRight,70,11570,5,33,0,33,0,1,,,,,,,,,,,,,,,,,,,,,,,,,,,,,,,,,,,,,,,
,,,,,,,,2023-08-16_08h37.45.787,HF_wild_card,2022.2.4,Win32,60.13229104,61313bcdc465b84422b2246f,64d2fd46c836a06233681665,64dc7cbb847bd98900133bee,,,,,,,decisionTrl,resources/DR.BMP,resources/DBN.BMP,Door1,0.254629686,-0.018518533,1,0,0,0.7622,optionRight,30,11600,5,34,0,34,0,1,,,,,,,,,,,,,,,,,,,,,,,,,,,,,,,,,,,,,,,
,,,,,,,,2023-08-16_08h37.45.787,HF_wild_card,2022.2.4,Win32,60.13229104,61313bcdc465b84422b2246f,64d2fd46c836a06233681665,64dc7cbb847bd98900133bee,,,,,,,sngl,resources/Empty.png,resources/DR.BMP,Door2,0.295370399,-0.045370399,1,0,0,0.482,optionRight,20,11620,5,35,0,35,0,1,,,,,,,,,,,,,,,,,,,,,,,,,,,,,,,,,,,,,,,
,,,,,,,,2023-08-16_08h37.45.787,HF_wild_card,2022.2.4,Win32,60.13229104,61313bcdc465b84422b2246f,64d2fd46c836a06233681665,64dc7cbb847bd98900133bee,,,,,,,decisionTrl,resources/DR.BMP,resources/DB.BMP,WildCard_Ex,0.262963019,-0.034259288,1,0,0,1.11,optionRight,95,11715,5,36,0,36,0,1,,,,,,,,,,,,,,,,,,,,,,,,,,,,,,,,,,,,,,,
,,,,,,,,2023-08-16_08h37.45.787,HF_wild_card,2022.2.4,Win32,60.13229104,61313bcdc465b84422b2246f,64d2fd46c836a06233681665,64dc7cbb847bd98900133bee,,,,,,,sngl,resources/DB.BMP,resources/Empty.png,WildCard_Ex,-0.225,0.010185157,1,0,0,0.4942,optionLeft,95,11810,5,37,0,37,0,1,,,,,,,,,,,,,,,,,,,,,,,,,,,,,,,,,,,,,,,
,,,,,,,,2023-08-16_08h37.45.787,HF_wild_card,2022.2.4,Win32,60.13229104,61313bcdc465b84422b2246f,64d2fd46c836a06233681665,64dc7cbb847bd98900133bee,,,,,,,decisionTrl,resources/DG.BMP,resources/DB.BMP,Door4,-0.181481467,0.017592578,1,0,0,0.829,optionLeft,60,11870,5,38,0,38,0,1,,,,,,,,,,,,,,,,,,,,,,,,,,,,,,,,,,,,,,,
,,,,,,,,2023-08-16_08h37.45.787,HF_wild_card,2022.2.4,Win32,60.13229104,61313bcdc465b84422b2246f,64d2fd46c836a06233681665,64dc7cbb847bd98900133bee,,,,,,,sngl,resources/Empty.png,resources/DG.BMP,Door4,0.249074131,-0.042592621,1,0,0,0.4482,optionRight,60,11930,5,39,0,39,0,1,,,,,,,,,,,,,,,,,,,,,,,,,,,,,,,,,,,,,,,
,,,,,,,,2023-08-16_08h37.45.787,HF_wild_card,2022.2.4,Win32,60.13229104,61313bcdc465b84422b2246f,64d2fd46c836a06233681665,64dc7cbb847bd98900133bee,,,,,,,decisionTrl,resources/DBN.BMP,resources/DR.BMP,Door2,0.189814843,-0.039814843,1,0,0,0.7452,optionRight,40,11970,5,40,0,40,0,1,,,,,,,,,,,,,,,,,,,,,,,,,,,,,,,,,,,,,,,
,,,,,,,,2023-08-16_08h37.45.787,HF_wild_card,2022.2.4,Win32,60.13229104,61313bcdc465b84422b2246f,64d2fd46c836a06233681665,64dc7cbb847bd98900133bee,,,,,,,ctch,resources/DY.BMP,resources/DR.BMP,Door3,-0.225925912,-0.011111111,1,0,0,0.6962,optionLeft,70,12040,5,41,0,41,0,1,,,,,,,,,,,,,,,,,,,,,,,,,,,,,,,,,,,,,,,
,,,,,,,,2023-08-16_08h37.45.787,HF_wild_card,2022.2.4,Win32,60.13229104,61313bcdc465b84422b2246f,64d2fd46c836a06233681665,64dc7cbb847bd98900133bee,,,,,,,sngl,resources/Empty.png,resources/DBN.BMP,Door1,0.271296353,-0.062037065,1,0,0,0.4779,optionRight,30,12070,5,42,0,42,0,1,,,,,,,,,,,,,,,,,,,,,,,,,,,,,,,,,,,,,,,
,,,,,,,,2023-08-16_08h37.45.787,HF_wild_card,2022.2.4,Win32,60.13229104,61313bcdc465b84422b2246f,64d2fd46c836a06233681665,64dc7cbb847bd98900133bee,,,,,,,decisionTrl,resources/DB.BMP,resources/DBN.BMP,Door1,0.192592621,-0.013888889,1,0,0,1.2945,optionRight,30,12100,5,43,0,43,0,1,,,,,,,,,,,,,,,,,,,,,,,,,,,,,,,,,,,,,,,
,,,,,,,,2023-08-16_08h37.45.787,HF_wild_card,2022.2.4,Win32,60.13229104,61313bcdc465b84422b2246f,64d2fd46c836a06233681665,64dc7cbb847bd98900133bee,,,,,,,,,,,,,,,,,,,,,,,,,,4,0,4,0,1,,,,,,,,,,,,,,,,,,,,,,,,,,,,,,,,,,
,,,,,,,,2023-08-16_08h37.45.787,HF_wild_card,2022.2.4,Win32,60.13229104,61313bcdc465b84422b2246f,64d2fd46c836a06233681665,64dc7cbb847bd98900133bee,,,,,,,ctch,resources/DG.BMP,resources/DBN.BMP,Door4,-0.155555556,-0.058333333,1,0,0,1.4412,optionLeft,60,12160,6,0,0,0,0,1,,,,,,,,,,,,,,,,,,,,,,,,,,,,,,,,,,,,,,,
,,,,,,,,2023-08-16_08h37.45.787,HF_wild_card,2022.2.4,Win32,60.13229104,61313bcdc465b84422b2246f,64d2fd46c836a06233681665,64dc7cbb847bd98900133bee,,,,,,,sngl,resources/Empty.png,resources/DBN.BMP,Door1,0.297222222,-0.030555556,1,0,0,0.4424,optionRight,30,12190,6,1,0,1,0,1,,,,,,,,,,,,,,,,,,,,,,,,,,,,,,,,,,,,,,,
,,,,,,,,2023-08-16_08h37.45.787,HF_wild_card,2022.2.4,Win32,60.13229104,61313bcdc465b84422b2246f,64d2fd46c836a06233681665,64dc7cbb847bd98900133bee,,,,,,,ctch,resources/DY.BMP,resources/DR.BMP,Door3,-0.162962935,-0.00648151,1,0,0,1.2434,optionLeft,70,12260,6,2,0,2,0,1,,,,,,,,,,,,,,,,,,,,,,,,,,,,,,,,,,,,,,,
,,,,,,,,2023-08-16_08h37.45.787,HF_wild_card,2022.2.4,Win32,60.13229104,61313bcdc465b84422b2246f,64d2fd46c836a06233681665,64dc7cbb847bd98900133bee,,,,,,,decisionTrl,resources/DG.BMP,resources/DY.BMP,Door3,0.386111111,-0.036111111,1,0,0,1.1419,optionRight,70,12330,6,3,0,3,0,1,,,,,,,,,,,,,,,,,,,,,,,,,,,,,,,,,,,,,,,
,,,,,,,,2023-08-16_08h37.45.787,HF_wild_card,2022.2.4,Win32,60.13229104,61313bcdc465b84422b2246f,64d2fd46c836a06233681665,64dc7cbb847bd98900133bee,,,,,,,decisionTrl,resources/DR.BMP,resources/DBN.BMP,Door1,0.201851908,-0.061111111,1,0,0,0.9307,optionRight,30,12360,6,4,0,4,0,1,,,,,,,,,,,,,,,,,,,,,,,,,,,,,,,,,,,,,,,
,,,,,,,,2023-08-16_08h37.45.787,HF_wild_card,2022.2.4,Win32,60.13229104,61313bcdc465b84422b2246f,64d2fd46c836a06233681665,64dc7cbb847bd98900133bee,,,,,,,decisionTrl,resources/DR.BMP,resources/DBN.BMP,Door1,0.273148176,-0.025925954,1,0,0,0.4961,optionRight,30,12390,6,5,0,5,0,1,,,,,,,,,,,,,,,,,,,,,,,,,,,,,,,,,,,,,,,
,,,,,,,,2023-08-16_08h37.45.787,HF_wild_card,2022.2.4,Win32,60.13229104,61313bcdc465b84422b2246f,64d2fd46c836a06233681665,64dc7cbb847bd98900133bee,,,,,,,decisionTrl,resources/DBN.BMP,resources/DR.BMP,Door1,-0.22870369,0.013888889,1,0,0,0.5452,optionLeft,30,12420,6,6,0,6,0,1,,,,,,,,,,,,,,,,,,,,,,,,,,,,,,,,,,,,,,,
,,,,,,,,2023-08-16_08h37.45.787,HF_wild_card,2022.2.4,Win32,60.13229104,61313bcdc465b84422b2246f,64d2fd46c836a06233681665,64dc7cbb847bd98900133bee,,,,,,,decisionTrl,resources/DBN.BMP,resources/DR.BMP,Door1,-0.229629601,-0.012962977,1,0,0,0.5114,optionLeft,30,12450,6,7,0,7,0,1,,,,,,,,,,,,,,,,,,,,,,,,,,,,,,,,,,,,,,,
,,,,,,,,2023-08-16_08h37.45.787,HF_wild_card,2022.2.4,Win32,60.13229104,61313bcdc465b84422b2246f,64d2fd46c836a06233681665,64dc7cbb847bd98900133bee,,,,,,,ctch,resources/DBN.BMP,resources/DG.BMP,Door4,0.378703732,-0.023148176,1,0,0,0.7981,optionRight,60,12510,6,8,0,8,0,1,,,,,,,,,,,,,,,,,,,,,,,,,,,,,,,,,,,,,,,
,,,,,,,,2023-08-16_08h37.45.787,HF_wild_card,2022.2.4,Win32,60.13229104,61313bcdc465b84422b2246f,64d2fd46c836a06233681665,64dc7cbb847bd98900133bee,,,,,,,ctch,resources/DBN.BMP,resources/DG.BMP,Door4,0.294444444,-0.030555556,1,0,0,0.4844,optionRight,80,12590,6,9,0,9,0,1,,,,,,,,,,,,,,,,,,,,,,,,,,,,,,,,,,,,,,,
,,,,,,,,2023-08-16_08h37.45.787,HF_wild_card,2022.2.4,Win32,60.13229104,61313bcdc465b84422b2246f,64d2fd46c836a06233681665,64dc7cbb847bd98900133bee,,,,,,,decisionTrl,resources/DG.BMP,resources/DY.BMP,Door3,0.266666667,0.007407379,1,0,0,0.6615,optionRight,70,12660,6,10,0,10,0,1,,,,,,,,,,,,,,,,,,,,,,,,,,,,,,,,,,,,,,,
,,,,,,,,2023-08-16_08h37.45.787,HF_wild_card,2022.2.4,Win32,60.13229104,61313bcdc465b84422b2246f,64d2fd46c836a06233681665,64dc7cbb847bd98900133bee,,,,,,,ctch,resources/DR.BMP,resources/DY.BMP,Door3,0.220370399,-0.00648151,1,0,0,0.763,optionRight,70,12730,6,11,0,11,0,1,,,,,,,,,,,,,,,,,,,,,,,,,,,,,,,,,,,,,,,
,,,,,,,,2023-08-16_08h37.45.787,HF_wild_card,2022.2.4,Win32,60.13229104,61313bcdc465b84422b2246f,64d2fd46c836a06233681665,64dc7cbb847bd98900133bee,,,,,,,decisionTrl,resources/DR.BMP,resources/DB.BMP,WildCard_Ex,0.164814843,-0.013888889,1,0,0,1.2441,optionRight,95,12825,6,12,0,12,0,1,,,,,,,,,,,,,,,,,,,,,,,,,,,,,,,,,,,,,,,
,,,,,,,,2023-08-16_08h37.45.787,HF_wild_card,2022.2.4,Win32,60.13229104,61313bcdc465b84422b2246f,64d2fd46c836a06233681665,64dc7cbb847bd98900133bee,,,,,,,decisionTrl,resources/DB.BMP,resources/DR.BMP,WildCard_Ex,-0.215740712,-0.019444444,1,0,0,1.4412,optionLeft,95,12920,6,13,0,13,0,1,,,,,,,,,,,,,,,,,,,,,,,,,,,,,,,,,,,,,,,
,,,,,,,,2023-08-16_08h37.45.787,HF_wild_card,2022.2.4,Win32,60.13229104,61313bcdc465b84422b2246f,64d2fd46c836a06233681665,64dc7cbb847bd98900133bee,,,,,,,decisionTrl,resources/DG.BMP,resources/DY.BMP,Door3,0.233333333,0.011111111,1,0,0,0.9797,optionRight,70,12990,6,14,0,14,0,1,,,,,,,,,,,,,,,,,,,,,,,,,,,,,,,,,,,,,,,
,,,,,,,,2023-08-16_08h37.45.787,HF_wild_card,2022.2.4,Win32,60.13229104,61313bcdc465b84422b2246f,64d2fd46c836a06233681665,64dc7cbb847bd98900133bee,,,,,,,decisionTrl,resources/DY.BMP,resources/DG.BMP,Door3,-0.2,-0.009259288,1,0,0,1.3752,optionLeft,70,13060,6,15,0,15,0,1,,,,,,,,,,,,,,,,,,,,,,,,,,,,,,,,,,,,,,,
,,,,,,,,2023-08-16_08h37.45.787,HF_wild_card,2022.2.4,Win32,60.13229104,61313bcdc465b84422b2246f,64d2fd46c836a06233681665,64dc7cbb847bd98900133bee,,,,,,,sngl,resources/Empty.png,resources/DG.BMP,Door4,0.366666667,-0.011111111,1,0,0,0.4813,optionRight,80,13140,6,16,0,16,0,1,,,,,,,,,,,,,,,,,,,,,,,,,,,,,,,,,,,,,,,
,,,,,,,,2023-08-16_08h37.45.787,HF_wild_card,2022.2.4,Win32,60.13229104,61313bcdc465b84422b2246f,64d2fd46c836a06233681665,64dc7cbb847bd98900133bee,,,,,,,sngl,resources/DB.BMP,resources/Empty.png,WildCard_Ex,-0.138888889,-0.022222222,1,0,0,0.6029,optionLeft,95,13235,6,17,0,17,0,1,,,,,,,,,,,,,,,,,,,,,,,,,,,,,,,,,,,,,,,
,,,,,,,,2023-08-16_08h37.45.787,HF_wild_card,2022.2.4,Win32,60.13229104,61313bcdc465b84422b2246f,64d2fd46c836a06233681665,64dc7cbb847bd98900133bee,,,,,,,ctch,resources/DR.BMP,resources/DY.BMP,Door3,0.193518575,-0.000925954,1,0,0,0.9286,optionRight,70,13305,6,18,0,18,0,1,,,,,,,,,,,,,,,,,,,,,,,,,,,,,,,,,,,,,,,
,,,,,,,,2023-08-16_08h37.45.787,HF_wild_card,2022.2.4,Win32,60.13229104,61313bcdc465b84422b2246f,64d2fd46c836a06233681665,64dc7cbb847bd98900133bee,,,,,,,ctch,resources/DG.BMP,resources/DBN.BMP,Door4,-0.3,-0.030555556,1,0,0,1.2775,optionLeft,80,13385,6,19,0,19,0,1,,,,,,,,,,,,,,,,,,,,,,,,,,,,,,,,,,,,,,,
,,,,,,,,2023-08-16_08h37.45.787,HF_wild_card,2022.2.4,Win32,60.13229104,61313bcdc465b84422b2246f,64d2fd46c836a06233681665,64dc7cbb847bd98900133bee,,,,,,,decisionTrl,resources/DY.BMP,resources/DG.BMP,Door3,-0.255555556,-0.018518533,1,0,0,0.8799,optionLeft,70,13455,6,20,0,20,0,1,,,,,,,,,,,,,,,,,,,,,,,,,,,,,,,,,,,,,,,
,,,,,,,,2023-08-16_08h37.45.787,HF_wild_card,2022.2.4,Win32,60.13229104,61313bcdc465b84422b2246f,64d2fd46c836a06233681665,64dc7cbb847bd98900133bee,,,,,,,decisionTrl,resources/DG.BMP,resources/DY.BMP,Door3,0.246296353,-0.005555556,1,0,0,0.4913,optionRight,70,13525,6,21,0,21,0,1,,,,,,,,,,,,,,,,,,,,,,,,,,,,,,,,,,,,,,,
,,,,,,,,2023-08-16_08h37.45.787,HF_wild_card,2022.2.4,Win32,60.13229104,61313bcdc465b84422b2246f,64d2fd46c836a06233681665,64dc7cbb847bd98900133bee,,,,,,,decisionTrl,resources/DBN.BMP,resources/DR.BMP,Door1,-0.32870369,0.000925912,1,0,0,1.2471,optionLeft,30,13555,6,22,0,22,0,1,,,,,,,,,,,,,,,,,,,,,,,,,,,,,,,,,,,,,,,
,,,,,,,,2023-08-16_08h37.45.787,HF_wild_card,2022.2.4,Win32,60.13229104,61313bcdc465b84422b2246f,64d2fd46c836a06233681665,64dc7cbb847bd98900133bee,,,,,,,decisionTrl,resources/DG.BMP,resources/DB.BMP,Door4,-0.129629601,-0.03148151,1,0,0,0.9933,optionLeft,60,13615,6,23,0,23,0,1,,,,,,,,,,,,,,,,,,,,,,,,,,,,,,,,,,,,,,,
,,,,,,,,2023-08-16_08h37.45.787,HF_wild_card,2022.2.4,Win32,60.13229104,61313bcdc465b84422b2246f,64d2fd46c836a06233681665,64dc7cbb847bd98900133bee,,,,,,,sngl,resources/Empty.png,resources/DB.BMP,WildCard_Ex,0.262037065,-0.002777778,1,0,0,0.4761,optionRight,5,13620,6,24,0,24,0,1,,,,,,,,,,,,,,,,,,,,,,,,,,,,,,,,,,,,,,,
,,,,,,,,2023-08-16_08h37.45.787,HF_wild_card,2022.2.4,Win32,60.13229104,61313bcdc465b84422b2246f,64d2fd46c836a06233681665,64dc7cbb847bd98900133bee,,,,,,,sngl,resources/DB.BMP,resources/Empty.png,WildCard_Ex,-0.170370314,-0.008333333,1,0,0,0.542,optionLeft,5,13625,6,25,0,25,0,1,,,,,,,,,,,,,,,,,,,,,,,,,,,,,,,,,,,,,,,
,,,,,,,,2023-08-16_08h37.45.787,HF_wild_card,2022.2.4,Win32,60.13229104,61313bcdc465b84422b2246f,64d2fd46c836a06233681665,64dc7cbb847bd98900133bee,,,,,,,decisionTrl,resources/DR.BMP,resources/DBN.BMP,Door1,0.225925954,0.012962935,1,0,0,0.9103,optionRight,30,13655,6,26,0,26,0,1,,,,,,,,,,,,,,,,,,,,,,,,,,,,,,,,,,,,,,,
,,,,,,,,2023-08-16_08h37.45.787,HF_wild_card,2022.2.4,Win32,60.13229104,61313bcdc465b84422b2246f,64d2fd46c836a06233681665,64dc7cbb847bd98900133bee,,,,,,,decisionTrl,resources/DY.BMP,resources/DB.BMP,Door3,-0.163888889,-0.015740755,1,0,0,0.945,optionLeft,70,13725,6,27,0,27,0,1,,,,,,,,,,,,,,,,,,,,,,,,,,,,,,,,,,,,,,,
,,,,,,,,2023-08-16_08h37.45.787,HF_wild_card,2022.2.4,Win32,60.13229104,61313bcdc465b84422b2246f,64d2fd46c836a06233681665,64dc7cbb847bd98900133bee,,,,,,,sngl,resources/Empty.png,resources/DB.BMP,WildCard_Ex,0.249074131,-0.014814843,1,0,0,0.4274,optionRight,95,13820,6,28,0,28,0,1,,,,,,,,,,,,,,,,,,,,,,,,,,,,,,,,,,,,,,,
,,,,,,,,2023-08-16_08h37.45.787,HF_wild_card,2022.2.4,Win32,60.13229104,61313bcdc465b84422b2246f,64d2fd46c836a06233681665,64dc7cbb847bd98900133bee,,,,,,,sngl,resources/DG.BMP,resources/Empty.png,Door4,-0.147222222,-0.005555556,1,0,0,0.4969,optionLeft,60,13880,6,29,0,29,0,1,,,,,,,,,,,,,,,,,,,,,,,,,,,,,,,,,,,,,,,
,,,,,,,,2023-08-16_08h37.45.787,HF_wild_card,2022.2.4,Win32,60.13229104,61313bcdc465b84422b2246f,64d2fd46c836a06233681665,64dc7cbb847bd98900133bee,,,,,,,decisionTrl,resources/DB.BMP,resources/DY.BMP,Door3,0.184259288,-0.003703732,1,0,0,0.9917,optionRight,70,13950,6,30,0,30,0,1,,,,,,,,,,,,,,,,,,,,,,,,,,,,,,,,,,,,,,,
,,,,,,,,2023-08-16_08h37.45.787,HF_wild_card,2022.2.4,Win32,60.13229104,61313bcdc465b84422b2246f,64d2fd46c836a06233681665,64dc7cbb847bd98900133bee,,,,,,,decisionTrl,resources/DBN.BMP,resources/DB.BMP,Door1,-0.225,0.006481467,1,0,0,1.8628,optionLeft,30,13980,6,31,0,31,0,1,,,,,,,,,,,,,,,,,,,,,,,,,,,,,,,,,,,,,,,
,,,,,,,,2023-08-16_08h37.45.787,HF_wild_card,2022.2.4,Win32,60.13229104,61313bcdc465b84422b2246f,64d2fd46c836a06233681665,64dc7cbb847bd98900133bee,,,,,,,decisionTrl,resources/DBN.BMP,resources/DR.BMP,Door1,-0.271296268,-0.001851866,1,0,0,1.0961,optionLeft,30,14010,6,32,0,32,0,1,,,,,,,,,,,,,,,,,,,,,,,,,,,,,,,,,,,,,,,
,,,,,,,,2023-08-16_08h37.45.787,HF_wild_card,2022.2.4,Win32,60.13229104,61313bcdc465b84422b2246f,64d2fd46c836a06233681665,64dc7cbb847bd98900133bee,,,,,,,sngl,resources/DR.BMP,resources/Empty.png,Door2,-0.258333333,-0.008333333,1,0,0,0.4431,optionLeft,20,14030,6,33,0,33,0,1,,,,,,,,,,,,,,,,,,,,,,,,,,,,,,,,,,,,,,,
,,,,,,,,2023-08-16_08h37.45.787,HF_wild_card,2022.2.4,Win32,60.13229104,61313bcdc465b84422b2246f,64d2fd46c836a06233681665,64dc7cbb847bd98900133bee,,,,,,,ctch,resources/DY.BMP,resources/DR.BMP,Door3,-0.239814801,-0.011111111,1,0,0,0.8098,optionLeft,70,14100,6,34,0,34,0,1,,,,,,,,,,,,,,,,,,,,,,,,,,,,,,,,,,,,,,,
,,,,,,,,2023-08-16_08h37.45.787,HF_wild_card,2022.2.4,Win32,60.13229104,61313bcdc465b84422b2246f,64d2fd46c836a06233681665,64dc7cbb847bd98900133bee,,,,,,,decisionTrl,resources/DY.BMP,resources/DG.BMP,Door3,-0.216666667,-0.017592621,1,0,0,0.7263,optionLeft,70,14170,6,35,0,35,0,1,,,,,,,,,,,,,,,,,,,,,,,,,,,,,,,,,,,,,,,
,,,,,,,,2023-08-16_08h37.45.787,HF_wild_card,2022.2.4,Win32,60.13229104,61313bcdc465b84422b2246f,64d2fd46c836a06233681665,64dc7cbb847bd98900133bee,,,,,,,sngl,resources/DBN.BMP,resources/Empty.png,Door1,-0.190740712,-0.032407422,1,0,0,0.4435,optionLeft,30,14200,6,36,0,36,0,1,,,,,,,,,,,,,,,,,,,,,,,,,,,,,,,,,,,,,,,
,,,,,,,,2023-08-16_08h37.45.787,HF_wild_card,2022.2.4,Win32,60.13229104,61313bcdc465b84422b2246f,64d2fd46c836a06233681665,64dc7cbb847bd98900133bee,,,,,,,decisionTrl,resources/DY.BMP,resources/DG.BMP,Door3,-0.201851824,-0.023148176,1,0,0,0.6729,optionLeft,70,14270,6,37,0,37,0,1,,,,,,,,,,,,,,,,,,,,,,,,,,,,,,,,,,,,,,,
,,,,,,,,2023-08-16_08h37.45.787,HF_wild_card,2022.2.4,Win32,60.13229104,61313bcdc465b84422b2246f,64d2fd46c836a06233681665,64dc7cbb847bd98900133bee,,,,,,,sngl,resources/DY.BMP,resources/Empty.png,Door3,-0.375925912,-0.041666667,1,0,0,0.444,optionLeft,70,14340,6,38,0,38,0,1,,,,,,,,,,,,,,,,,,,,,,,,,,,,,,,,,,,,,,,
,,,,,,,,2023-08-16_08h37.45.787,HF_wild_card,2022.2.4,Win32,60.13229104,61313bcdc465b84422b2246f,64d2fd46c836a06233681665,64dc7cbb847bd98900133bee,,,,,,,decisionTrl,resources/DR.BMP,resources/DBN.BMP,Door1,0.3,0.023148134,1,0,0,1.5928,optionRight,30,14370,6,39,0,39,0,1,,,,,,,,,,,,,,,,,,,,,,,,,,,,,,,,,,,,,,,
,,,,,,,,2023-08-16_08h37.45.787,HF_wild_card,2022.2.4,Win32,60.13229104,61313bcdc465b84422b2246f,64d2fd46c836a06233681665,64dc7cbb847bd98900133bee,,,,,,,sngl,resources/Empty.png,resources/DR.BMP,Door2,0.247222222,0.01851849,1,0,0,0.5087,optionRight,40,14410,6,40,0,40,0,1,,,,,,,,,,,,,,,,,,,,,,,,,,,,,,,,,,,,,,,
,,,,,,,,2023-08-16_08h37.45.787,HF_wild_card,2022.2.4,Win32,60.13229104,61313bcdc465b84422b2246f,64d2fd46c836a06233681665,64dc7cbb847bd98900133bee,,,,,,,decisionTrl,resources/DB.BMP,resources/DG.BMP,Door4,0.320370399,0.02870369,1,0,0,0.9948,optionRight,80,14490,6,41,0,41,0,1,,,,,,,,,,,,,,,,,,,,,,,,,,,,,,,,,,,,,,,
,,,,,,,,2023-08-16_08h37.45.787,HF_wild_card,2022.2.4,Win32,60.13229104,61313bcdc465b84422b2246f,64d2fd46c836a06233681665,64dc7cbb847bd98900133bee,,,,,,,sngl,resources/Empty.png,resources/DY.BMP,Door3,0.385185242,-0.019444444,1,0,0,0.4642,optionRight,70,14560,6,42,0,42,0,1,,,,,,,,,,,,,,,,,,,,,,,,,,,,,,,,,,,,,,,
,,,,,,,,2023-08-16_08h37.45.787,HF_wild_card,2022.2.4,Win32,60.13229104,61313bcdc465b84422b2246f,64d2fd46c836a06233681665,64dc7cbb847bd98900133bee,,,,,,,decisionTrl,resources/DB.BMP,resources/DBN.BMP,WildCard_Ex,-0.125,-0.016666667,1,0,0,1.7459,optionLeft,95,14655,6,43,0,43,0,1,,,,,,,,,,,,,,,,,,,,,,,,,,,,,,,,,,,,,,,
,,,,,,,,2023-08-16_08h37.45.787,HF_wild_card,2022.2.4,Win32,60.13229104,61313bcdc465b84422b2246f,64d2fd46c836a06233681665,64dc7cbb847bd98900133bee,,,,,,,,,,,,,,,,,,,,,,,,,,5,0,5,0,1,,,,,,,,,,,,,,,,,,,,,,,,,,,,,,,,,,
,,,,,,,,2023-08-16_08h37.45.787,HF_wild_card,2022.2.4,Win32,60.13229104,61313bcdc465b84422b2246f,64d2fd46c836a06233681665,64dc7cbb847bd98900133bee,,,,,,,ctch,resources/DBN.BMP,resources/DG.BMP,Door4,0.125925954,-0.108333333,1,0,0,1.1759,optionRight,60,14715,7,0,0,0,0,1,,,,,,,,,,,,,,,,,,,,,,,,,,,,,,,,,,,,,,,
,,,,,,,,2023-08-16_08h37.45.787,HF_wild_card,2022.2.4,Win32,60.13229104,61313bcdc465b84422b2246f,64d2fd46c836a06233681665,64dc7cbb847bd98900133bee,,,,,,,decisionTrl,resources/DG.BMP,resources/DY.BMP,Door3,0.202777778,-0.012962977,1,0,0,0.9413,optionRight,70,14785,7,1,0,1,0,1,,,,,,,,,,,,,,,,,,,,,,,,,,,,,,,,,,,,,,,
,,,,,,,,2023-08-16_08h37.45.787,HF_wild_card,2022.2.4,Win32,60.13229104,61313bcdc465b84422b2246f,64d2fd46c836a06233681665,64dc7cbb847bd98900133bee,,,,,,,ctch,resources/DG.BMP,resources/DBN.BMP,Door4,-0.171296268,0.020370356,1,0,0,1.1127,optionLeft,80,14865,7,2,0,2,0,1,,,,,,,,,,,,,,,,,,,,,,,,,,,,,,,,,,,,,,,
,,,,,,,,2023-08-16_08h37.45.787,HF_wild_card,2022.2.4,Win32,60.13229104,61313bcdc465b84422b2246f,64d2fd46c836a06233681665,64dc7cbb847bd98900133bee,,,,,,,decisionTrl,resources/DG.BMP,resources/DY.BMP,Door3,0.180555556,0.00370369,1,0,0,0.7298,optionRight,70,14935,7,3,0,3,0,1,,,,,,,,,,,,,,,,,,,,,,,,,,,,,,,,,,,,,,,
,,,,,,,,2023-08-16_08h37.45.787,HF_wild_card,2022.2.4,Win32,60.13229104,61313bcdc465b84422b2246f,64d2fd46c836a06233681665,64dc7cbb847bd98900133bee,,,,,,,decisionTrl,resources/DG.BMP,resources/DY.BMP,Door3,0.214814843,-0.007407422,1,0,0,0.5939,optionRight,70,15005,7,4,0,4,0,1,,,,,,,,,,,,,,,,,,,,,,,,,,,,,,,,,,,,,,,
,,,,,,,,2023-08-16_08h37.45.787,HF_wild_card,2022.2.4,Win32,60.13229104,61313bcdc465b84422b2246f,64d2fd46c836a06233681665,64dc7cbb847bd98900133bee,,,,,,,decisionTrl,resources/DY.BMP,resources/DG.BMP,Door3,-0.21851849,0.009259245,1,0,0,0.9126,optionLeft,70,15075,7,5,0,5,0,1,,,,,,,,,,,,,,,,,,,,,,,,,,,,,,,,,,,,,,,
,,,,,,,,2023-08-16_08h37.45.787,HF_wild_card,2022.2.4,Win32,60.13229104,61313bcdc465b84422b2246f,64d2fd46c836a06233681665,64dc7cbb847bd98900133bee,,,,,,,decisionTrl,resources/DR.BMP,resources/DBN.BMP,Door1,0.347222222,-0.000925954,1,0,0,1.196,optionRight,30,15105,7,6,0,6,0,1,,,,,,,,,,,,,,,,,,,,,,,,,,,,,,,,,,,,,,,
,,,,,,,,2023-08-16_08h37.45.787,HF_wild_card,2022.2.4,Win32,60.13229104,61313bcdc465b84422b2246f,64d2fd46c836a06233681665,64dc7cbb847bd98900133bee,,,,,,,ctch,resources/DBN.BMP,resources/DG.BMP,Door4,0.439814843,-0.030555556,1,0,0,0.8476,optionRight,80,15185,7,7,0,7,0,1,,,,,,,,,,,,,,,,,,,,,,,,,,,,,,,,,,,,,,,
,,,,,,,,2023-08-16_08h37.45.787,HF_wild_card,2022.2.4,Win32,60.13229104,61313bcdc465b84422b2246f,64d2fd46c836a06233681665,64dc7cbb847bd98900133bee,,,,,,,decisionTrl,resources/DR.BMP,resources/DBN.BMP,Door1,0.270370399,-0.003703732,1,0,0,0.8633,optionRight,30,15215,7,8,0,8,0,1,,,,,,,,,,,,,,,,,,,,,,,,,,,,,,,,,,,,,,,
,,,,,,,,2023-08-16_08h37.45.787,HF_wild_card,2022.2.4,Win32,60.13229104,61313bcdc465b84422b2246f,64d2fd46c836a06233681665,64dc7cbb847bd98900133bee,,,,,,,decisionTrl,resources/DG.BMP,resources/DY.BMP,Door3,0.318518575,-0.008333333,1,0,0,0.9467,optionRight,70,15285,7,9,0,9,0,1,,,,,,,,,,,,,,,,,,,,,,,,,,,,,,,,,,,,,,,
,,,,,,,,2023-08-16_08h37.45.787,HF_wild_card,2022.2.4,Win32,60.13229104,61313bcdc465b84422b2246f,64d2fd46c836a06233681665,64dc7cbb847bd98900133bee,,,,,,,decisionTrl,resources/DY.BMP,resources/DG.BMP,Door3,-0.204629601,0,1,0,0,0.7949,optionLeft,70,15355,7,10,0,10,0,1,,,,,,,,,,,,,,,,,,,,,,,,,,,,,,,,,,,,,,,
,,,,,,,,2023-08-16_08h37.45.787,HF_wild_card,2022.2.4,Win32,60.13229104,61313bcdc465b84422b2246f,64d2fd46c836a06233681665,64dc7cbb847bd98900133bee,,,,,,,ctch,resources/DG.BMP,resources/DBN.BMP,Door4,-0.185185157,-0.003703732,1,0,0,0.9474,optionLeft,60,15415,7,11,0,11,0,1,,,,,,,,,,,,,,,,,,,,,,,,,,,,,,,,,,,,,,,
,,,,,,,,2023-08-16_08h37.45.787,HF_wild_card,2022.2.4,Win32,60.13229104,61313bcdc465b84422b2246f,64d2fd46c836a06233681665,64dc7cbb847bd98900133bee,,,,,,,ctch,resources/DG.BMP,resources/DBN.BMP,Door4,-0.224074046,0.005555556,1,0,0,0.7807,optionLeft,60,15475,7,12,0,12,0,1,,,,,,,,,,,,,,,,,,,,,,,,,,,,,,,,,,,,,,,
,,,,,,,,2023-08-16_08h37.45.787,HF_wild_card,2022.2.4,Win32,60.13229104,61313bcdc465b84422b2246f,64d2fd46c836a06233681665,64dc7cbb847bd98900133bee,,,,,,,ctch,resources/DR.BMP,resources/DY.BMP,Door3,0.325,-0.008333333,1,0,0,0.8175,optionRight,70,15545,7,13,0,13,0,1,,,,,,,,,,,,,,,,,,,,,,,,,,,,,,,,,,,,,,,
,,,,,,,,2023-08-16_08h37.45.787,HF_wild_card,2022.2.4,Win32,60.13229104,61313bcdc465b84422b2246f,64d2fd46c836a06233681665,64dc7cbb847bd98900133bee,,,,,,,decisionTrl,resources/DBN.BMP,resources/DR.BMP,Door1,-0.237037023,-0.014814843,1,0,0,0.9795,optionLeft,30,15575,7,14,0,14,0,1,,,,,,,,,,,,,,,,,,,,,,,,,,,,,,,,,,,,,,,
,,,,,,,,2023-08-16_08h37.45.787,HF_wild_card,2022.2.4,Win32,60.13229104,61313bcdc465b84422b2246f,64d2fd46c836a06233681665,64dc7cbb847bd98900133bee,,,,,,,decisionTrl,resources/DBN.BMP,resources/DR.BMP,Door1,-0.192592578,-0.011111111,1,0,0,0.5965,optionLeft,30,15605,7,15,0,15,0,1,,,,,,,,,,,,,,,,,,,,,,,,,,,,,,,,,,,,,,,
,,,,,,,,2023-08-16_08h37.45.787,HF_wild_card,2022.2.4,Win32,60.13229104,61313bcdc465b84422b2246f,64d2fd46c836a06233681665,64dc7cbb847bd98900133bee,,,,,,,decisionTrl,resources/DY.BMP,resources/DG.BMP,Door3,-0.40370369,-0.010185199,1,0,0,0.9136,optionLeft,70,15675,7,16,0,16,0,1,,,,,,,,,,,,,,,,,,,,,,,,,,,,,,,,,,,,,,,
,,,,,,,,2023-08-16_08h37.45.787,HF_wild_card,2022.2.4,Win32,60.13229104,61313bcdc465b84422b2246f,64d2fd46c836a06233681665,64dc7cbb847bd98900133bee,,,,,,,decisionTrl,resources/DBN.BMP,resources/DR.BMP,Door1,-0.206481467,-0.024074088,1,0,0,1.6947,optionLeft,30,15705,7,17,0,17,0,1,,,,,,,,,,,,,,,,,,,,,,,,,,,,,,,,,,,,,,,
,,,,,,,,2023-08-16_08h37.45.787,HF_wild_card,2022.2.4,Win32,60.13229104,61313bcdc465b84422b2246f,64d2fd46c836a06233681665,64dc7cbb847bd98900133bee,,,,,,,decisionTrl,resources/DY.BMP,resources/DG.BMP,Door3,-0.232407379,-0.015740755,1,0,0,0.7298,optionLeft,70,15775,7,18,0,18,0,1,,,,,,,,,,,,,,,,,,,,,,,,,,,,,,,,,,,,,,,
,,,,,,,,2023-08-16_08h37.45.787,HF_wild_card,2022.2.4,Win32,60.13229104,61313bcdc465b84422b2246f,64d2fd46c836a06233681665,64dc7cbb847bd98900133bee,,,,,,,decisionTrl,resources/DY.BMP,resources/DG.BMP,Door3,-0.244444444,0.000925912,1,0,0,0.5471,optionLeft,70,15845,7,19,0,19,0,1,,,,,,,,,,,,,,,,,,,,,,,,,,,,,,,,,,,,,,,
,,,,,,,,2023-08-16_08h37.45.787,HF_wild_card,2022.2.4,Win32,60.13229104,61313bcdc465b84422b2246f,64d2fd46c836a06233681665,64dc7cbb847bd98900133bee,,,,,,,decisionTrl,resources/DR.BMP,resources/DBN.BMP,Door1,0.116666667,0.024074046,1,0,0,0.9626,optionRight,30,15875,7,20,0,20,0,1,,,,,,,,,,,,,,,,,,,,,,,,,,,,,,,,,,,,,,,
,,,,,,,,2023-08-16_08h37.45.787,HF_wild_card,2022.2.4,Win32,60.13229104,61313bcdc465b84422b2246f,64d2fd46c836a06233681665,64dc7cbb847bd98900133bee,,,,,,,ctch,resources/DR.BMP,resources/DY.BMP,Door3,0.223148176,0.005555556,1,0,0,0.8789,optionRight,70,15945,7,21,0,21,0,1,,,,,,,,,,,,,,,,,,,,,,,,,,,,,,,,,,,,,,,
,,,,,,,,2023-08-16_08h37.45.787,HF_wild_card,2022.2.4,Win32,60.13229104,61313bcdc465b84422b2246f,64d2fd46c836a06233681665,64dc7cbb847bd98900133bee,,,,,,,ctch,resources/DY.BMP,resources/DR.BMP,Door3,-0.275,0.017592578,1,0,0,0.7464,optionLeft,70,16015,7,22,0,22,0,1,,,,,,,,,,,,,,,,,,,,,,,,,,,,,,,,,,,,,,,
,,,,,,,,2023-08-16_08h37.45.787,HF_wild_card,2022.2.4,Win32,60.13229104,61313bcdc465b84422b2246f,64d2fd46c836a06233681665,64dc7cbb847bd98900133bee,,,,,,,ctch,resources/DR.BMP,resources/DY.BMP,Door3,0.257407464,-0.00648151,1,0,0,0.5158,optionRight,70,16085,7,23,0,23,0,1,,,,,,,,,,,,,,,,,,,,,,,,,,,,,,,,,,,,,,,
,,,,,,,,2023-08-16_08h37.45.787,HF_wild_card,2022.2.4,Win32,60.13229104,61313bcdc465b84422b2246f,64d2fd46c836a06233681665,64dc7cbb847bd98900133bee,,,,,,,decisionTrl,resources/DR.BMP,resources/DBN.BMP,Door1,0.272222222,-0.034259288,1,0,0,0.7302,optionRight,30,16115,7,24,0,24,0,1,,,,,,,,,,,,,,,,,,,,,,,,,,,,,,,,,,,,,,,
,,,,,,,,2023-08-16_08h37.45.787,HF_wild_card,2022.2.4,Win32,60.13229104,61313bcdc465b84422b2246f,64d2fd46c836a06233681665,64dc7cbb847bd98900133bee,,,,,,,decisionTrl,resources/DBN.BMP,resources/DR.BMP,Door1,-0.310185157,0.017592578,1,0,0,0.5471,optionLeft,30,16145,7,25,0,25,0,1,,,,,,,,,,,,,,,,,,,,,,,,,,,,,,,,,,,,,,,
,,,,,,,,2023-08-16_08h37.45.787,HF_wild_card,2022.2.4,Win32,60.13229104,61313bcdc465b84422b2246f,64d2fd46c836a06233681665,64dc7cbb847bd98900133bee,,,,,,,decisionTrl,resources/DBN.BMP,resources/DR.BMP,Door1,-0.265740712,0.026851824,1,0,0,1.0308,optionLeft,30,16175,7,26,0,26,0,1,,,,,,,,,,,,,,,,,,,,,,,,,,,,,,,,,,,,,,,
,,,,,,,,2023-08-16_08h37.45.787,HF_wild_card,2022.2.4,Win32,60.13229104,61313bcdc465b84422b2246f,64d2fd46c836a06233681665,64dc7cbb847bd98900133bee,,,,,,,decisionTrl,resources/DG.BMP,resources/DY.BMP,Door3,0.275,-0.017592621,1,0,0,0.6299,optionRight,70,16245,7,27,0,27,0,1,,,,,,,,,,,,,,,,,,,,,,,,,,,,,,,,,,,,,,,
,,,,,,,,2023-08-16_08h37.45.787,HF_wild_card,2022.2.4,Win32,60.13229104,61313bcdc465b84422b2246f,64d2fd46c836a06233681665,64dc7cbb847bd98900133bee,,,,,,,decisionTrl,resources/DR.BMP,resources/DBN.BMP,Door1,0.328703732,-0.040740755,1,0,0,0.9175,optionRight,30,16275,7,28,0,28,0,1,,,,,,,,,,,,,,,,,,,,,,,,,,,,,,,,,,,,,,,
,,,,,,,,2023-08-16_08h37.45.787,HF_wild_card,2022.2.4,Win32,60.13229104,61313bcdc465b84422b2246f,64d2fd46c836a06233681665,64dc7cbb847bd98900133bee,,,,,,,decisionTrl,resources/DR.BMP,resources/DBN.BMP,Door1,0.351851908,-0.034259288,1,0,0,0.7144,optionRight,30,16305,7,29,0,29,0,1,,,,,,,,,,,,,,,,,,,,,,,,,,,,,,,,,,,,,,,
,,,,,,,,2023-08-16_08h37.45.787,HF_wild_card,2022.2.4,Win32,60.13229104,61313bcdc465b84422b2246f,64d2fd46c836a06233681665,64dc7cbb847bd98900133bee,,,,,,,ctch,resources/DY.BMP,resources/DR.BMP,Door3,-0.216666667,-0.017592621,1,0,0,0.7491,optionLeft,70,16375,7,30,0,30,0,1,,,,,,,,,,,,,,,,,,,,,,,,,,,,,,,,,,,,,,,
,,,,,,,,2023-08-16_08h37.45.787,HF_wild_card,2022.2.4,Win32,60.13229104,61313bcdc465b84422b2246f,64d2fd46c836a06233681665,64dc7cbb847bd98900133bee,,,,,,,ctch,resources/DBN.BMP,resources/DG.BMP,Door4,0.219444444,-0.014814843,1,0,0,0.9136,optionRight,60,16435,7,31,0,31,0,1,,,,,,,,,,,,,,,,,,,,,,,,,,,,,,,,,,,,,,,
,,,,,,,,2023-08-16_08h37.45.787,HF_wild_card,2022.2.4,Win32,60.13229104,61313bcdc465b84422b2246f,64d2fd46c836a06233681665,64dc7cbb847bd98900133bee,,,,,,,decisionTrl,resources/DG.BMP,resources/DY.BMP,Door3,0.454629686,-0.05,1,0,0,0.946,optionRight,70,16505,7,32,0,32,0,1,,,,,,,,,,,,,,,,,,,,,,,,,,,,,,,,,,,,,,,
,,,,,,,,2023-08-16_08h37.45.787,HF_wild_card,2022.2.4,Win32,60.13229104,61313bcdc465b84422b2246f,64d2fd46c836a06233681665,64dc7cbb847bd98900133bee,,,,,,,decisionTrl,resources/DY.BMP,resources/DG.BMP,Door3,-0.246296268,-0.028703732,1,0,0,0.58,optionLeft,70,16575,7,33,0,33,0,1,,,,,,,,,,,,,,,,,,,,,,,,,,,,,,,,,,,,,,,
,,,,,,,,2023-08-16_08h37.45.787,HF_wild_card,2022.2.4,Win32,60.13229104,61313bcdc465b84422b2246f,64d2fd46c836a06233681665,64dc7cbb847bd98900133bee,,,,,,,decisionTrl,resources/DBN.BMP,resources/DR.BMP,Door1,-0.324074046,-0.020370399,1,0,0,1.0504,optionLeft,30,16605,7,34,0,34,0,1,,,,,,,,,,,,,,,,,,,,,,,,,,,,,,,,,,,,,,,
,,,,,,,,2023-08-16_08h37.45.787,HF_wild_card,2022.2.4,Win32,60.13229104,61313bcdc465b84422b2246f,64d2fd46c836a06233681665,64dc7cbb847bd98900133bee,,,,,,,ctch,resources/DY.BMP,resources/DR.BMP,Door3,-0.200925912,-0.026851866,1,0,0,0.6448,optionLeft,70,16675,7,35,0,35,0,1,,,,,,,,,,,,,,,,,,,,,,,,,,,,,,,,,,,,,,,
,,,,,,,,2023-08-16_08h37.45.787,HF_wild_card,2022.2.4,Win32,60.13229104,61313bcdc465b84422b2246f,64d2fd46c836a06233681665,64dc7cbb847bd98900133bee,,,,,,,,,,,,,,,,,,,,,,,,,,6,0,6,0,1,,,,,,,,,,,,,,,,,,,,,,,,,,,,,,,,,,
,,,,,,,,2023-08-16_08h37.45.787,HF_wild_card,2022.2.4,Win32,60.13229104,61313bcdc465b84422b2246f,64d2fd46c836a06233681665,64dc7cbb847bd98900133bee,,,,,,,,,,,,,,,,,,,,,,,,,,,,,,,4,,,,,,,,,,,,,,,,,,,,,,,,,,,,,,,,,
,,,,,,,,2023-08-16_08h37.45.787,HF_wild_card,2022.2.4,Win32,60.13229104,61313bcdc465b84422b2246f,64d2fd46c836a06233681665,64dc7cbb847bd98900133bee,,,,,,,,,,,,,,,,,,,,,,,,,,,,,,,,,,,,,,,,,,,,,,,,,,,,,,,,,,,,,,,,
,,,,,,,,2023-08-16_08h37.45.787,HF_wild_card,2022.2.4,Win32,60.13229104,61313bcdc465b84422b2246f,64d2fd46c836a06233681665,64dc7cbb847bd98900133bee,,,,,,,,,,,,,,,,,,,,,,,,,,,,,,,,70,Door3,resources/DY.BMP,0,0,0,0,1,,,,,,,,,,,,,,,,,,,,,,,,,
,,,,,,,,2023-08-16_08h37.45.787,HF_wild_card,2022.2.4,Win32,60.13229104,61313bcdc465b84422b2246f,64d2fd46c836a06233681665,64dc7cbb847bd98900133bee,,,,,,,,,,,,,,,,,,,,,,,,,,,,,,,,80,Door4,resources/DG.BMP,1,0,1,0,1,,,,,,,,,,,,,,,,,,,,,,,,,
,,,,,,,,2023-08-16_08h37.45.787,HF_wild_card,2022.2.4,Win32,60.13229104,61313bcdc465b84422b2246f,64d2fd46c836a06233681665,64dc7cbb847bd98900133bee,,,,,,,,,,,,,,,,,,,,,,,,,,,,,,,,55,WC_nonExtreme,resources/DP.BMP,2,0,2,0,1,,,,,,,,,,,,,,,,,,,,,,,,,
,,,,,,,,2023-08-16_08h37.45.787,HF_wild_card,2022.2.4,Win32,60.13229104,61313bcdc465b84422b2246f,64d2fd46c836a06233681665,64dc7cbb847bd98900133bee,,,,,,,,,,,,,,,,,,,,,,,,,,,,,,,,5,WC_extreme,resources/DB.BMP,3,0,3,0,1,,,,,,,,,,,,,,,,,,,,,,,,,
,,,,,,,,2023-08-16_08h37.45.787,HF_wild_card,2022.2.4,Win32,60.13229104,61313bcdc465b84422b2246f,64d2fd46c836a06233681665,64dc7cbb847bd98900133bee,,,,,,,,,,,,,,,,,,,,,,,,,,,,,,,,30,Door1,resources/DBN.BMP,4,0,4,0,1,,,,,,,,,,,,,,,,,,,,,,,,,
,,,,,,,,2023-08-16_08h37.45.787,HF_wild_card,2022.2.4,Win32,60.13229104,61313bcdc465b84422b2246f,64d2fd46c836a06233681665,64dc7cbb847bd98900133bee,,,,,,,,,,,,,,,,,,,,,,,,,,,,,,,,20,Door2,resources/DR.BMP,5,0,5,0,1,,,,,,,,,,,,,,,,,,,,,,,,,
,,,,,,,,2023-08-16_08h37.45.787,HF_wild_card,2022.2.4,Win32,60.13229104,61313bcdc465b84422b2246f,64d2fd46c836a06233681665,64dc7cbb847bd98900133bee,,,,,,,,,,,,,,,,,,,,,,,,,,,,,,,,,,,,,,,,,,,,,,,,,,,,,,,,,,,,,,,,
,,,,,,,,2023-08-16_08h37.45.787,HF_wild_card,2022.2.4,Win32,60.13229104,61313bcdc465b84422b2246f,64d2fd46c836a06233681665,64dc7cbb847bd98900133bee,,,,,,,,,,,,,,,,,,,,,,,,,,,,,,,,,,,,,,,,0,0,0,0,1,,,,,,,,,,,,,,,,,,,,
