Condition,Low fixed image (Door1),Low risky image (Door2),High fixed image (Door3),High risky image (Door4),Extreme Wild Card,NonExtreme Wild Card,,date,expName,psychopyVersion,OS,frameRate,PROLIFIC_PID,STUDY_ID,SESSION_ID,mouse_2.x,mouse_2.y,mouse_2.leftButton,mouse_2.midButton,mouse_2.rightButton,mouse_2.clicked_name,Trial Type,Left Option Image,Right Option Image,Chosen Door,mouse.x,mouse.y,mouse.leftButton,mouse.midButton,mouse.rightButton,mouse.time,mouse.clicked_name,Feedback,Cumulative Reward,Block,trial.thisRepN,trial.thisTrialN,trial.thisN,trial.thisIndex,trial.ran,blocks.thisRepN,blocks.thisTrialN,blocks.thisN,blocks.thisIndex,blocks.ran,Money conversion,First Outcome Reported,Shown Door (First Outcome),Displayed Image (First Outcome),outcomes.thisRepN,outcomes.thisTrialN,outcomes.thisN,outcomes.thisIndex,outcomes.ran,judgments.thisRepN,judgments.thisTrialN,judgments.thisN,judgments.thisIndex,judgments.ran,freqMouse.x,freqMouse.y,freqMouse.leftButton,freqMouse.midButton,freqMouse.rightButton,freqMouse.clicked_name,FQJ for first outcome,FQJ for second outcome,Shown Door,Displayed Image,trials.thisRepN,trials.thisTrialN,trials.thisN,trials.thisIndex,trials.ran,judgBlock.thisRepN,judgBlock.thisTrialN,judgBlock.thisN,judgBlock.thisIndex,judgBlock.ran
0,resources/DBN.BMP,resources/DY.BMP,resources/DG.BMP,resources/DP.BMP,resources/DR.BMP,resources/DB.BMP,638070625c26e262f2163254,2023-08-24_08h13.39.331,HF_wild_card,2022.2.4,Win32,40.08337342,638070625c26e262f2163254,64e63663dbcaf322d2eec8da,64e7030d2cef0e14468cfdd0,,,,,,,,,,,,,,,,,,,,,,,,,,,,,,,,,,,,,,,,,,,,,,,,,,,,,,,,,,,,,,,,
,,,,,,,638070625c26e262f2163254,2023-08-24_08h13.39.331,HF_wild_card,2022.2.4,Win32,40.08337342,638070625c26e262f2163254,64e63663dbcaf322d2eec8da,64e7030d2cef0e14468cfdd0,0.006510417,-0.41796875,1,0,0,agree,,,,,,,,,,,,,,,,,,,,,,,,,,,,,,,,,,,,,,,,,,,,,,,,,,,,,,,,,,
,,,,,,,638070625c26e262f2163254,2023-08-24_08h13.39.331,HF_wild_card,2022.2.4,Win32,40.08337342,638070625c26e262f2163254,64e63663dbcaf322d2eec8da,64e7030d2cef0e14468cfdd0,,,,,,,,,,,,,,,,,,,,,,,,,,,,,,,,,,,,,,,,,,,,,,,,,,,,,,,,,,,,,,,,
,,,,,,,638070625c26e262f2163254,2023-08-24_08h13.39.331,HF_wild_card,2022.2.4,Win32,40.08337342,638070625c26e262f2163254,64e63663dbcaf322d2eec8da,64e7030d2cef0e14468cfdd0,,,,,,,sngl,resources/DR.BMP,resources/Empty.png,WildCard_Ex,-0.389322917,-0.104166667,1,0,0,3.096,optionLeft,95,95,1,0,0,0,0,1,,,,,,,,,,,,,,,,,,,,,,,,,,,,,,,,,,,,,,,
,,,,,,,638070625c26e262f2163254,2023-08-24_08h13.39.331,HF_wild_card,2022.2.4,Win32,40.08337342,638070625c26e262f2163254,64e63663dbcaf322d2eec8da,64e7030d2cef0e14468cfdd0,,,,,,,decisionTrl,resources/DP.BMP,resources/DG.BMP,Door4,-0.41796875,-0.0546875,1,0,0,4.667,optionLeft,80,175,1,1,0,1,0,1,,,,,,,,,,,,,,,,,,,,,,,,,,,,,,,,,,,,,,,
,,,,,,,638070625c26e262f2163254,2023-08-24_08h13.39.331,HF_wild_card,2022.2.4,Win32,40.08337342,638070625c26e262f2163254,64e63663dbcaf322d2eec8da,64e7030d2cef0e14468cfdd0,,,,,,,decisionTrl,resources/DG.BMP,resources/DR.BMP,WildCard_Ex,0.356770833,-0.098958333,1,0,0,3.1444,optionRight,5,180,1,2,0,2,0,1,,,,,,,,,,,,,,,,,,,,,,,,,,,,,,,,,,,,,,,
,,,,,,,638070625c26e262f2163254,2023-08-24_08h13.39.331,HF_wild_card,2022.2.4,Win32,40.08337342,638070625c26e262f2163254,64e63663dbcaf322d2eec8da,64e7030d2cef0e14468cfdd0,,,,,,,decisionTrl,resources/DBN.BMP,resources/DY.BMP,Door2,0.390625,-0.0546875,1,0,0,3.3703,optionRight,20,200,1,3,0,3,0,1,,,,,,,,,,,,,,,,,,,,,,,,,,,,,,,,,,,,,,,
,,,,,,,638070625c26e262f2163254,2023-08-24_08h13.39.331,HF_wild_card,2022.2.4,Win32,40.08337342,638070625c26e262f2163254,64e63663dbcaf322d2eec8da,64e7030d2cef0e14468cfdd0,,,,,,,decisionTrl,resources/DG.BMP,resources/DP.BMP,Door3,-0.377604167,-0.055989583,1,0,0,3.212,optionLeft,70,270,1,4,0,4,0,1,,,,,,,,,,,,,,,,,,,,,,,,,,,,,,,,,,,,,,,
,,,,,,,638070625c26e262f2163254,2023-08-24_08h13.39.331,HF_wild_card,2022.2.4,Win32,40.08337342,638070625c26e262f2163254,64e63663dbcaf322d2eec8da,64e7030d2cef0e14468cfdd0,,,,,,,ctch,resources/DG.BMP,resources/DY.BMP,Door2,0.415364583,-0.071614583,1,0,0,2.3133,optionRight,40,310,1,5,0,5,0,1,,,,,,,,,,,,,,,,,,,,,,,,,,,,,,,,,,,,,,,
,,,,,,,638070625c26e262f2163254,2023-08-24_08h13.39.331,HF_wild_card,2022.2.4,Win32,40.08337342,638070625c26e262f2163254,64e63663dbcaf322d2eec8da,64e7030d2cef0e14468cfdd0,,,,,,,sngl,resources/Empty.png,resources/DR.BMP,WildCard_Ex,0.444010417,-0.076822917,1,0,0,1.5627,optionRight,5,315,1,6,0,6,0,1,,,,,,,,,,,,,,,,,,,,,,,,,,,,,,,,,,,,,,,
,,,,,,,638070625c26e262f2163254,2023-08-24_08h13.39.331,HF_wild_card,2022.2.4,Win32,40.08337342,638070625c26e262f2163254,64e63663dbcaf322d2eec8da,64e7030d2cef0e14468cfdd0,,,,,,,ctch,resources/DP.BMP,resources/DBN.BMP,Door4,-0.291666667,-0.029947917,1,0,0,1.9623,optionLeft,80,395,1,7,0,7,0,1,,,,,,,,,,,,,,,,,,,,,,,,,,,,,,,,,,,,,,,
,,,,,,,638070625c26e262f2163254,2023-08-24_08h13.39.331,HF_wild_card,2022.2.4,Win32,40.08337342,638070625c26e262f2163254,64e63663dbcaf322d2eec8da,64e7030d2cef0e14468cfdd0,,,,,,,decisionTrl,resources/DY.BMP,resources/DBN.BMP,Door2,-0.266927083,-0.036458333,1,0,0,2.0197,optionLeft,20,415,1,8,0,8,0,1,,,,,,,,,,,,,,,,,,,,,,,,,,,,,,,,,,,,,,,
,,,,,,,638070625c26e262f2163254,2023-08-24_08h13.39.331,HF_wild_card,2022.2.4,Win32,40.08337342,638070625c26e262f2163254,64e63663dbcaf322d2eec8da,64e7030d2cef0e14468cfdd0,,,,,,,ctch,resources/DY.BMP,resources/DG.BMP,Door2,-0.359375,-0.0625,1,0,0,2.0414,optionLeft,20,435,1,9,0,9,0,1,,,,,,,,,,,,,,,,,,,,,,,,,,,,,,,,,,,,,,,
,,,,,,,638070625c26e262f2163254,2023-08-24_08h13.39.331,HF_wild_card,2022.2.4,Win32,40.08337342,638070625c26e262f2163254,64e63663dbcaf322d2eec8da,64e7030d2cef0e14468cfdd0,,,,,,,ctch,resources/DBN.BMP,resources/DP.BMP,Door1,-0.233072917,-0.00390625,1,0,0,2.1402,optionLeft,30,465,1,10,0,10,0,1,,,,,,,,,,,,,,,,,,,,,,,,,,,,,,,,,,,,,,,
,,,,,,,638070625c26e262f2163254,2023-08-24_08h13.39.331,HF_wild_card,2022.2.4,Win32,40.08337342,638070625c26e262f2163254,64e63663dbcaf322d2eec8da,64e7030d2cef0e14468cfdd0,,,,,,,sngl,resources/DBN.BMP,resources/Empty.png,Door1,-0.350260417,-0.010416667,1,0,0,1.418,optionLeft,30,495,1,11,0,11,0,1,,,,,,,,,,,,,,,,,,,,,,,,,,,,,,,,,,,,,,,
,,,,,,,638070625c26e262f2163254,2023-08-24_08h13.39.331,HF_wild_card,2022.2.4,Win32,40.08337342,638070625c26e262f2163254,64e63663dbcaf322d2eec8da,64e7030d2cef0e14468cfdd0,,,,,,,decisionTrl,resources/DR.BMP,resources/DG.BMP,WildCard_Ex,-0.364583333,0.002604167,1,0,0,2.7132,optionLeft,95,590,1,12,0,12,0,1,,,,,,,,,,,,,,,,,,,,,,,,,,,,,,,,,,,,,,,
,,,,,,,638070625c26e262f2163254,2023-08-24_08h13.39.331,HF_wild_card,2022.2.4,Win32,40.08337342,638070625c26e262f2163254,64e63663dbcaf322d2eec8da,64e7030d2cef0e14468cfdd0,,,,,,,ctch,resources/DG.BMP,resources/DY.BMP,Door2,0.220052083,-0.04296875,1,0,0,1.3123,optionRight,40,630,1,13,0,13,0,1,,,,,,,,,,,,,,,,,,,,,,,,,,,,,,,,,,,,,,,
,,,,,,,638070625c26e262f2163254,2023-08-24_08h13.39.331,HF_wild_card,2022.2.4,Win32,40.08337342,638070625c26e262f2163254,64e63663dbcaf322d2eec8da,64e7030d2cef0e14468cfdd0,,,,,,,decisionTrl,resources/DY.BMP,resources/DR.BMP,Door2,-0.330729167,-0.009114583,1,0,0,2.9138,optionLeft,20,650,1,14,0,14,0,1,,,,,,,,,,,,,,,,,,,,,,,,,,,,,,,,,,,,,,,
,,,,,,,638070625c26e262f2163254,2023-08-24_08h13.39.331,HF_wild_card,2022.2.4,Win32,40.08337342,638070625c26e262f2163254,64e63663dbcaf322d2eec8da,64e7030d2cef0e14468cfdd0,,,,,,,sngl,resources/Empty.png,resources/DR.BMP,WildCard_Ex,0.372395833,-0.044270833,1,0,0,1.1948,optionRight,95,745,1,15,0,15,0,1,,,,,,,,,,,,,,,,,,,,,,,,,,,,,,,,,,,,,,,
,,,,,,,638070625c26e262f2163254,2023-08-24_08h13.39.331,HF_wild_card,2022.2.4,Win32,40.08337342,638070625c26e262f2163254,64e63663dbcaf322d2eec8da,64e7030d2cef0e14468cfdd0,,,,,,,sngl,resources/DY.BMP,resources/Empty.png,Door2,-0.37109375,0.005208333,1,0,0,1.0613,optionLeft,40,785,1,16,0,16,0,1,,,,,,,,,,,,,,,,,,,,,,,,,,,,,,,,,,,,,,,
,,,,,,,638070625c26e262f2163254,2023-08-24_08h13.39.331,HF_wild_card,2022.2.4,Win32,40.08337342,638070625c26e262f2163254,64e63663dbcaf322d2eec8da,64e7030d2cef0e14468cfdd0,,,,,,,decisionTrl,resources/DP.BMP,resources/DR.BMP,WildCard_Ex,0.473958333,0.044270833,1,0,0,1.8385,optionRight,95,880,1,17,0,17,0,1,,,,,,,,,,,,,,,,,,,,,,,,,,,,,,,,,,,,,,,
,,,,,,,638070625c26e262f2163254,2023-08-24_08h13.39.331,HF_wild_card,2022.2.4,Win32,40.08337342,638070625c26e262f2163254,64e63663dbcaf322d2eec8da,64e7030d2cef0e14468cfdd0,,,,,,,sngl,resources/DR.BMP,resources/Empty.png,WildCard_Ex,-0.337239583,-0.01953125,1,0,0,1.1675,optionLeft,5,885,1,18,0,18,0,1,,,,,,,,,,,,,,,,,,,,,,,,,,,,,,,,,,,,,,,
,,,,,,,638070625c26e262f2163254,2023-08-24_08h13.39.331,HF_wild_card,2022.2.4,Win32,40.08337342,638070625c26e262f2163254,64e63663dbcaf322d2eec8da,64e7030d2cef0e14468cfdd0,,,,,,,decisionTrl,resources/DBN.BMP,resources/DY.BMP,Door1,-0.352864583,-0.083333333,1,0,0,2.0233,optionLeft,30,915,1,19,0,19,0,1,,,,,,,,,,,,,,,,,,,,,,,,,,,,,,,,,,,,,,,
,,,,,,,638070625c26e262f2163254,2023-08-24_08h13.39.331,HF_wild_card,2022.2.4,Win32,40.08337342,638070625c26e262f2163254,64e63663dbcaf322d2eec8da,64e7030d2cef0e14468cfdd0,,,,,,,sngl,resources/Empty.png,resources/DG.BMP,Door3,0.447916667,-0.018229167,1,0,0,1.1268,optionRight,70,985,1,20,0,20,0,1,,,,,,,,,,,,,,,,,,,,,,,,,,,,,,,,,,,,,,,
,,,,,,,638070625c26e262f2163254,2023-08-24_08h13.39.331,HF_wild_card,2022.2.4,Win32,40.08337342,638070625c26e262f2163254,64e63663dbcaf322d2eec8da,64e7030d2cef0e14468cfdd0,,,,,,,sngl,resources/Empty.png,resources/DP.BMP,Door4,0.342447917,-0.059895833,1,0,0,1.2156,optionRight,60,1045,1,21,0,21,0,1,,,,,,,,,,,,,,,,,,,,,,,,,,,,,,,,,,,,,,,
,,,,,,,638070625c26e262f2163254,2023-08-24_08h13.39.331,HF_wild_card,2022.2.4,Win32,40.08337342,638070625c26e262f2163254,64e63663dbcaf322d2eec8da,64e7030d2cef0e14468cfdd0,,,,,,,decisionTrl,resources/DG.BMP,resources/DP.BMP,Door4,0.26171875,0.002604167,1,0,0,2.9696,optionRight,60,1105,1,22,0,22,0,1,,,,,,,,,,,,,,,,,,,,,,,,,,,,,,,,,,,,,,,
,,,,,,,638070625c26e262f2163254,2023-08-24_08h13.39.331,HF_wild_card,2022.2.4,Win32,40.08337342,638070625c26e262f2163254,64e63663dbcaf322d2eec8da,64e7030d2cef0e14468cfdd0,,,,,,,decisionTrl,resources/DY.BMP,resources/DBN.BMP,Door2,-0.322916667,0.016927083,1,0,0,1.9924,optionLeft,40,1145,1,23,0,23,0,1,,,,,,,,,,,,,,,,,,,,,,,,,,,,,,,,,,,,,,,
,,,,,,,638070625c26e262f2163254,2023-08-24_08h13.39.331,HF_wild_card,2022.2.4,Win32,40.08337342,638070625c26e262f2163254,64e63663dbcaf322d2eec8da,64e7030d2cef0e14468cfdd0,,,,,,,sngl,resources/DP.BMP,resources/Empty.png,Door4,-0.341145833,-0.00390625,1,0,0,1.0897,optionLeft,80,1225,1,24,0,24,0,1,,,,,,,,,,,,,,,,,,,,,,,,,,,,,,,,,,,,,,,
,,,,,,,638070625c26e262f2163254,2023-08-24_08h13.39.331,HF_wild_card,2022.2.4,Win32,40.08337342,638070625c26e262f2163254,64e63663dbcaf322d2eec8da,64e7030d2cef0e14468cfdd0,,,,,,,decisionTrl,resources/DR.BMP,resources/DBN.BMP,WildCard_Ex,-0.33984375,-0.03515625,1,0,0,1.59,optionLeft,5,1230,1,25,0,25,0,1,,,,,,,,,,,,,,,,,,,,,,,,,,,,,,,,,,,,,,,
,,,,,,,638070625c26e262f2163254,2023-08-24_08h13.39.331,HF_wild_card,2022.2.4,Win32,40.08337342,638070625c26e262f2163254,64e63663dbcaf322d2eec8da,64e7030d2cef0e14468cfdd0,,,,,,,decisionTrl,resources/DP.BMP,resources/DG.BMP,Door3,0.360677083,-0.03125,1,0,0,1.6122,optionRight,70,1300,1,26,0,26,0,1,,,,,,,,,,,,,,,,,,,,,,,,,,,,,,,,,,,,,,,
,,,,,,,638070625c26e262f2163254,2023-08-24_08h13.39.331,HF_wild_card,2022.2.4,Win32,40.08337342,638070625c26e262f2163254,64e63663dbcaf322d2eec8da,64e7030d2cef0e14468cfdd0,,,,,,,decisionTrl,resources/DP.BMP,resources/DG.BMP,Door3,0.34375,-0.032552083,1,0,0,2.0158,optionRight,70,1370,1,27,0,27,0,1,,,,,,,,,,,,,,,,,,,,,,,,,,,,,,,,,,,,,,,
,,,,,,,638070625c26e262f2163254,2023-08-24_08h13.39.331,HF_wild_card,2022.2.4,Win32,40.08337342,638070625c26e262f2163254,64e63663dbcaf322d2eec8da,64e7030d2cef0e14468cfdd0,,,,,,,sngl,resources/Empty.png,resources/DY.BMP,Door2,0.309895833,0.01171875,1,0,0,1.1405,optionRight,20,1390,1,28,0,28,0,1,,,,,,,,,,,,,,,,,,,,,,,,,,,,,,,,,,,,,,,
,,,,,,,638070625c26e262f2163254,2023-08-24_08h13.39.331,HF_wild_card,2022.2.4,Win32,40.08337342,638070625c26e262f2163254,64e63663dbcaf322d2eec8da,64e7030d2cef0e14468cfdd0,,,,,,,sngl,resources/Empty.png,resources/DBN.BMP,Door1,0.361979167,-0.01171875,1,0,0,1.3153,optionRight,30,1420,1,29,0,29,0,1,,,,,,,,,,,,,,,,,,,,,,,,,,,,,,,,,,,,,,,
,,,,,,,638070625c26e262f2163254,2023-08-24_08h13.39.331,HF_wild_card,2022.2.4,Win32,40.08337342,638070625c26e262f2163254,64e63663dbcaf322d2eec8da,64e7030d2cef0e14468cfdd0,,,,,,,decisionTrl,resources/DBN.BMP,resources/DY.BMP,Door2,0.356770833,-0.05859375,1,0,0,1.6905,optionRight,40,1460,1,30,0,30,0,1,,,,,,,,,,,,,,,,,,,,,,,,,,,,,,,,,,,,,,,
,,,,,,,638070625c26e262f2163254,2023-08-24_08h13.39.331,HF_wild_card,2022.2.4,Win32,40.08337342,638070625c26e262f2163254,64e63663dbcaf322d2eec8da,64e7030d2cef0e14468cfdd0,,,,,,,decisionTrl,resources/DG.BMP,resources/DP.BMP,Door4,0.321614583,-0.005208333,1,0,0,1.5654,optionRight,60,1520,1,31,0,31,0,1,,,,,,,,,,,,,,,,,,,,,,,,,,,,,,,,,,,,,,,
,,,,,,,638070625c26e262f2163254,2023-08-24_08h13.39.331,HF_wild_card,2022.2.4,Win32,40.08337342,638070625c26e262f2163254,64e63663dbcaf322d2eec8da,64e7030d2cef0e14468cfdd0,,,,,,,decisionTrl,resources/DY.BMP,resources/DBN.BMP,Door1,0.354166667,0.055989583,1,0,0,1.3902,optionRight,30,1550,1,32,0,32,0,1,,,,,,,,,,,,,,,,,,,,,,,,,,,,,,,,,,,,,,,
,,,,,,,638070625c26e262f2163254,2023-08-24_08h13.39.331,HF_wild_card,2022.2.4,Win32,40.08337342,638070625c26e262f2163254,64e63663dbcaf322d2eec8da,64e7030d2cef0e14468cfdd0,,,,,,,decisionTrl,resources/DBN.BMP,resources/DR.BMP,WildCard_Ex,0.341145833,-0.010416667,1,0,0,1.4135,optionRight,95,1645,1,33,0,33,0,1,,,,,,,,,,,,,,,,,,,,,,,,,,,,,,,,,,,,,,,
,,,,,,,638070625c26e262f2163254,2023-08-24_08h13.39.331,HF_wild_card,2022.2.4,Win32,40.08337342,638070625c26e262f2163254,64e63663dbcaf322d2eec8da,64e7030d2cef0e14468cfdd0,,,,,,,decisionTrl,resources/DR.BMP,resources/DY.BMP,WildCard_Ex,-0.32421875,-0.020833333,1,0,0,1.5153,optionLeft,5,1650,1,34,0,34,0,1,,,,,,,,,,,,,,,,,,,,,,,,,,,,,,,,,,,,,,,
,,,,,,,638070625c26e262f2163254,2023-08-24_08h13.39.331,HF_wild_card,2022.2.4,Win32,40.08337342,638070625c26e262f2163254,64e63663dbcaf322d2eec8da,64e7030d2cef0e14468cfdd0,,,,,,,decisionTrl,resources/DG.BMP,resources/DP.BMP,Door4,0.419270833,-0.013020833,1,0,0,1.835,optionRight,60,1710,1,35,0,35,0,1,,,,,,,,,,,,,,,,,,,,,,,,,,,,,,,,,,,,,,,
,,,,,,,638070625c26e262f2163254,2023-08-24_08h13.39.331,HF_wild_card,2022.2.4,Win32,40.08337342,638070625c26e262f2163254,64e63663dbcaf322d2eec8da,64e7030d2cef0e14468cfdd0,,,,,,,decisionTrl,resources/DBN.BMP,resources/DY.BMP,Door2,0.4765625,-0.079427083,1,0,0,2.0124,optionRight,20,1730,1,36,0,36,0,1,,,,,,,,,,,,,,,,,,,,,,,,,,,,,,,,,,,,,,,
,,,,,,,638070625c26e262f2163254,2023-08-24_08h13.39.331,HF_wild_card,2022.2.4,Win32,40.08337342,638070625c26e262f2163254,64e63663dbcaf322d2eec8da,64e7030d2cef0e14468cfdd0,,,,,,,ctch,resources/DBN.BMP,resources/DP.BMP,Door4,0.447916667,-0.02734375,1,0,0,1.2423,optionRight,60,1790,1,37,0,37,0,1,,,,,,,,,,,,,,,,,,,,,,,,,,,,,,,,,,,,,,,
,,,,,,,638070625c26e262f2163254,2023-08-24_08h13.39.331,HF_wild_card,2022.2.4,Win32,40.08337342,638070625c26e262f2163254,64e63663dbcaf322d2eec8da,64e7030d2cef0e14468cfdd0,,,,,,,decisionTrl,resources/DP.BMP,resources/DG.BMP,Door4,-0.412760417,-0.053385417,1,0,0,1.4708,optionLeft,60,1850,1,38,0,38,0,1,,,,,,,,,,,,,,,,,,,,,,,,,,,,,,,,,,,,,,,
,,,,,,,638070625c26e262f2163254,2023-08-24_08h13.39.331,HF_wild_card,2022.2.4,Win32,40.08337342,638070625c26e262f2163254,64e63663dbcaf322d2eec8da,64e7030d2cef0e14468cfdd0,,,,,,,ctch,resources/DY.BMP,resources/DG.BMP,Door2,-0.334635417,0.028645833,1,0,0,1.2421,optionLeft,20,1870,1,39,0,39,0,1,,,,,,,,,,,,,,,,,,,,,,,,,,,,,,,,,,,,,,,
,,,,,,,638070625c26e262f2163254,2023-08-24_08h13.39.331,HF_wild_card,2022.2.4,Win32,40.08337342,638070625c26e262f2163254,64e63663dbcaf322d2eec8da,64e7030d2cef0e14468cfdd0,,,,,,,sngl,resources/DG.BMP,resources/Empty.png,Door3,-0.412760417,-0.029947917,1,0,0,1.2394,optionLeft,70,1940,1,40,0,40,0,1,,,,,,,,,,,,,,,,,,,,,,,,,,,,,,,,,,,,,,,
,,,,,,,638070625c26e262f2163254,2023-08-24_08h13.39.331,HF_wild_card,2022.2.4,Win32,40.08337342,638070625c26e262f2163254,64e63663dbcaf322d2eec8da,64e7030d2cef0e14468cfdd0,,,,,,,decisionTrl,resources/DR.BMP,resources/DP.BMP,Door4,0.337239583,-0.0859375,1,0,0,2.1676,optionRight,60,2000,1,41,0,41,0,1,,,,,,,,,,,,,,,,,,,,,,,,,,,,,,,,,,,,,,,
,,,,,,,638070625c26e262f2163254,2023-08-24_08h13.39.331,HF_wild_card,2022.2.4,Win32,40.08337342,638070625c26e262f2163254,64e63663dbcaf322d2eec8da,64e7030d2cef0e14468cfdd0,,,,,,,ctch,resources/DP.BMP,resources/DBN.BMP,Door4,-0.263020833,0.001302083,1,0,0,1.3674,optionLeft,80,2080,1,42,0,42,0,1,,,,,,,,,,,,,,,,,,,,,,,,,,,,,,,,,,,,,,,
,,,,,,,638070625c26e262f2163254,2023-08-24_08h13.39.331,HF_wild_card,2022.2.4,Win32,40.08337342,638070625c26e262f2163254,64e63663dbcaf322d2eec8da,64e7030d2cef0e14468cfdd0,,,,,,,decisionTrl,resources/DY.BMP,resources/DBN.BMP,Door2,-0.213541667,-0.0390625,1,0,0,1.3473,optionLeft,40,2120,1,43,0,43,0,1,,,,,,,,,,,,,,,,,,,,,,,,,,,,,,,,,,,,,,,
,,,,,,,638070625c26e262f2163254,2023-08-24_08h13.39.331,HF_wild_card,2022.2.4,Win32,40.08337342,638070625c26e262f2163254,64e63663dbcaf322d2eec8da,64e7030d2cef0e14468cfdd0,,,,,,,,,,,,,,,,,,,,,,,,,,0,0,0,0,1,,,,,,,,,,,,,,,,,,,,,,,,,,,,,,,,,,
,,,,,,,638070625c26e262f2163254,2023-08-24_08h13.39.331,HF_wild_card,2022.2.4,Win32,40.08337342,638070625c26e262f2163254,64e63663dbcaf322d2eec8da,64e7030d2cef0e14468cfdd0,,,,,,,decisionTrl,resources/DP.BMP,resources/DG.BMP,Door4,-0.3671875,-0.071614583,1,0,0,1.9138,optionLeft,80,2200,2,0,0,0,0,1,,,,,,,,,,,,,,,,,,,,,,,,,,,,,,,,,,,,,,,
,,,,,,,638070625c26e262f2163254,2023-08-24_08h13.39.331,HF_wild_card,2022.2.4,Win32,40.08337342,638070625c26e262f2163254,64e63663dbcaf322d2eec8da,64e7030d2cef0e14468cfdd0,,,,,,,sngl,resources/DP.BMP,resources/Empty.png,Door4,-0.32421875,-0.029947917,1,0,0,1.6948,optionLeft,60,2260,2,1,0,1,0,1,,,,,,,,,,,,,,,,,,,,,,,,,,,,,,,,,,,,,,,
,,,,,,,638070625c26e262f2163254,2023-08-24_08h13.39.331,HF_wild_card,2022.2.4,Win32,40.08337342,638070625c26e262f2163254,64e63663dbcaf322d2eec8da,64e7030d2cef0e14468cfdd0,,,,,,,decisionTrl,resources/DBN.BMP,resources/DY.BMP,Door2,0.330729167,0.010416667,1,0,0,1.2891,optionRight,20,2280,2,2,0,2,0,1,,,,,,,,,,,,,,,,,,,,,,,,,,,,,,,,,,,,,,,
,,,,,,,638070625c26e262f2163254,2023-08-24_08h13.39.331,HF_wild_card,2022.2.4,Win32,40.08337342,638070625c26e262f2163254,64e63663dbcaf322d2eec8da,64e7030d2cef0e14468cfdd0,,,,,,,decisionTrl,resources/DP.BMP,resources/DR.BMP,Door4,-0.313802083,0.014322917,1,0,0,0.9847,optionLeft,60,2340,2,3,0,3,0,1,,,,,,,,,,,,,,,,,,,,,,,,,,,,,,,,,,,,,,,
,,,,,,,638070625c26e262f2163254,2023-08-24_08h13.39.331,HF_wild_card,2022.2.4,Win32,40.08337342,638070625c26e262f2163254,64e63663dbcaf322d2eec8da,64e7030d2cef0e14468cfdd0,,,,,,,sngl,resources/Empty.png,resources/DG.BMP,Door3,0.36328125,0.026041667,1,0,0,1.0913,optionRight,70,2410,2,4,0,4,0,1,,,,,,,,,,,,,,,,,,,,,,,,,,,,,,,,,,,,,,,
,,,,,,,638070625c26e262f2163254,2023-08-24_08h13.39.331,HF_wild_card,2022.2.4,Win32,40.08337342,638070625c26e262f2163254,64e63663dbcaf322d2eec8da,64e7030d2cef0e14468cfdd0,,,,,,,ctch,resources/DY.BMP,resources/DG.BMP,Door3,0.317708333,0.002604167,1,0,0,1.0384,optionRight,70,2480,2,5,0,5,0,1,,,,,,,,,,,,,,,,,,,,,,,,,,,,,,,,,,,,,,,
,,,,,,,638070625c26e262f2163254,2023-08-24_08h13.39.331,HF_wild_card,2022.2.4,Win32,40.08337342,638070625c26e262f2163254,64e63663dbcaf322d2eec8da,64e7030d2cef0e14468cfdd0,,,,,,,ctch,resources/DY.BMP,resources/DG.BMP,Door3,0.4296875,-0.005208333,1,0,0,1.0184,optionRight,70,2550,2,6,0,6,0,1,,,,,,,,,,,,,,,,,,,,,,,,,,,,,,,,,,,,,,,
,,,,,,,638070625c26e262f2163254,2023-08-24_08h13.39.331,HF_wild_card,2022.2.4,Win32,40.08337342,638070625c26e262f2163254,64e63663dbcaf322d2eec8da,64e7030d2cef0e14468cfdd0,,,,,,,decisionTrl,resources/DP.BMP,resources/DG.BMP,Door3,0.328125,-0.026041667,1,0,0,0.9887,optionRight,70,2620,2,7,0,7,0,1,,,,,,,,,,,,,,,,,,,,,,,,,,,,,,,,,,,,,,,
,,,,,,,638070625c26e262f2163254,2023-08-24_08h13.39.331,HF_wild_card,2022.2.4,Win32,40.08337342,638070625c26e262f2163254,64e63663dbcaf322d2eec8da,64e7030d2cef0e14468cfdd0,,,,,,,decisionTrl,resources/DY.BMP,resources/DBN.BMP,Door2,-0.311197917,-0.036458333,1,0,0,1.3628,optionLeft,40,2660,2,8,0,8,0,1,,,,,,,,,,,,,,,,,,,,,,,,,,,,,,,,,,,,,,,
,,,,,,,638070625c26e262f2163254,2023-08-24_08h13.39.331,HF_wild_card,2022.2.4,Win32,40.08337342,638070625c26e262f2163254,64e63663dbcaf322d2eec8da,64e7030d2cef0e14468cfdd0,,,,,,,decisionTrl,resources/DG.BMP,resources/DP.BMP,Door3,-0.279947917,-0.044270833,1,0,0,1.4449,optionLeft,70,2730,2,9,0,9,0,1,,,,,,,,,,,,,,,,,,,,,,,,,,,,,,,,,,,,,,,
,,,,,,,638070625c26e262f2163254,2023-08-24_08h13.39.331,HF_wild_card,2022.2.4,Win32,40.08337342,638070625c26e262f2163254,64e63663dbcaf322d2eec8da,64e7030d2cef0e14468cfdd0,,,,,,,ctch,resources/DBN.BMP,resources/DP.BMP,Door4,0.3203125,-0.048177083,1,0,0,1.8377,optionRight,80,2810,2,10,0,10,0,1,,,,,,,,,,,,,,,,,,,,,,,,,,,,,,,,,,,,,,,
,,,,,,,638070625c26e262f2163254,2023-08-24_08h13.39.331,HF_wild_card,2022.2.4,Win32,40.08337342,638070625c26e262f2163254,64e63663dbcaf322d2eec8da,64e7030d2cef0e14468cfdd0,,,,,,,decisionTrl,resources/DG.BMP,resources/DP.BMP,Door4,0.514322917,-0.044270833,1,0,0,1.0378,optionRight,60,2870,2,11,0,11,0,1,,,,,,,,,,,,,,,,,,,,,,,,,,,,,,,,,,,,,,,
,,,,,,,638070625c26e262f2163254,2023-08-24_08h13.39.331,HF_wild_card,2022.2.4,Win32,40.08337342,638070625c26e262f2163254,64e63663dbcaf322d2eec8da,64e7030d2cef0e14468cfdd0,,,,,,,sngl,resources/Empty.png,resources/DP.BMP,Door4,0.3125,-0.03125,1,0,0,0.9445,optionRight,80,2950,2,12,0,12,0,1,,,,,,,,,,,,,,,,,,,,,,,,,,,,,,,,,,,,,,,
,,,,,,,638070625c26e262f2163254,2023-08-24_08h13.39.331,HF_wild_card,2022.2.4,Win32,40.08337342,638070625c26e262f2163254,64e63663dbcaf322d2eec8da,64e7030d2cef0e14468cfdd0,,,,,,,sngl,resources/DBN.BMP,resources/Empty.png,Door1,-0.34765625,-0.0234375,1,0,0,1.5253,optionLeft,30,2980,2,13,0,13,0,1,,,,,,,,,,,,,,,,,,,,,,,,,,,,,,,,,,,,,,,
,,,,,,,638070625c26e262f2163254,2023-08-24_08h13.39.331,HF_wild_card,2022.2.4,Win32,40.08337342,638070625c26e262f2163254,64e63663dbcaf322d2eec8da,64e7030d2cef0e14468cfdd0,,,,,,,decisionTrl,resources/DBN.BMP,resources/DY.BMP,Door2,0.266927083,-0.092447917,1,0,0,1.494,optionRight,40,3020,2,14,0,14,0,1,,,,,,,,,,,,,,,,,,,,,,,,,,,,,,,,,,,,,,,
,,,,,,,638070625c26e262f2163254,2023-08-24_08h13.39.331,HF_wild_card,2022.2.4,Win32,40.08337342,638070625c26e262f2163254,64e63663dbcaf322d2eec8da,64e7030d2cef0e14468cfdd0,,,,,,,decisionTrl,resources/DBN.BMP,resources/DY.BMP,Door2,0.43359375,-0.088541667,1,0,0,1.3729,optionRight,40,3060,2,15,0,15,0,1,,,,,,,,,,,,,,,,,,,,,,,,,,,,,,,,,,,,,,,
,,,,,,,638070625c26e262f2163254,2023-08-24_08h13.39.331,HF_wild_card,2022.2.4,Win32,40.08337342,638070625c26e262f2163254,64e63663dbcaf322d2eec8da,64e7030d2cef0e14468cfdd0,,,,,,,decisionTrl,resources/DR.BMP,resources/DBN.BMP,WildCard_Ex,-0.279947917,0.052083333,1,0,0,1.3413,optionLeft,95,3155,2,16,0,16,0,1,,,,,,,,,,,,,,,,,,,,,,,,,,,,,,,,,,,,,,,
,,,,,,,638070625c26e262f2163254,2023-08-24_08h13.39.331,HF_wild_card,2022.2.4,Win32,40.08337342,638070625c26e262f2163254,64e63663dbcaf322d2eec8da,64e7030d2cef0e14468cfdd0,,,,,,,ctch,resources/DBN.BMP,resources/DP.BMP,Door4,0.342447917,-0.087239583,1,0,0,1.4156,optionRight,80,3235,2,17,0,17,0,1,,,,,,,,,,,,,,,,,,,,,,,,,,,,,,,,,,,,,,,
,,,,,,,638070625c26e262f2163254,2023-08-24_08h13.39.331,HF_wild_card,2022.2.4,Win32,40.08337342,638070625c26e262f2163254,64e63663dbcaf322d2eec8da,64e7030d2cef0e14468cfdd0,,,,,,,sngl,resources/Empty.png,resources/DR.BMP,WildCard_Ex,0.350260417,-0.032552083,1,0,0,0.941,optionRight,5,3240,2,18,0,18,0,1,,,,,,,,,,,,,,,,,,,,,,,,,,,,,,,,,,,,,,,
,,,,,,,638070625c26e262f2163254,2023-08-24_08h13.39.331,HF_wild_card,2022.2.4,Win32,40.08337342,638070625c26e262f2163254,64e63663dbcaf322d2eec8da,64e7030d2cef0e14468cfdd0,,,,,,,decisionTrl,resources/DY.BMP,resources/DR.BMP,WildCard_Ex,0.40234375,-0.096354167,1,0,0,1.192,optionRight,5,3245,2,19,0,19,0,1,,,,,,,,,,,,,,,,,,,,,,,,,,,,,,,,,,,,,,,
,,,,,,,638070625c26e262f2163254,2023-08-24_08h13.39.331,HF_wild_card,2022.2.4,Win32,40.08337342,638070625c26e262f2163254,64e63663dbcaf322d2eec8da,64e7030d2cef0e14468cfdd0,,,,,,,decisionTrl,resources/DP.BMP,resources/DG.BMP,Door4,-0.251302083,-0.015625,1,0,0,1.3454,optionLeft,80,3325,2,20,0,20,0,1,,,,,,,,,,,,,,,,,,,,,,,,,,,,,,,,,,,,,,,
,,,,,,,638070625c26e262f2163254,2023-08-24_08h13.39.331,HF_wild_card,2022.2.4,Win32,40.08337342,638070625c26e262f2163254,64e63663dbcaf322d2eec8da,64e7030d2cef0e14468cfdd0,,,,,,,sngl,resources/DG.BMP,resources/Empty.png,Door3,-0.252604167,-0.0234375,1,0,0,1.037,optionLeft,70,3395,2,21,0,21,0,1,,,,,,,,,,,,,,,,,,,,,,,,,,,,,,,,,,,,,,,
,,,,,,,638070625c26e262f2163254,2023-08-24_08h13.39.331,HF_wild_card,2022.2.4,Win32,40.08337342,638070625c26e262f2163254,64e63663dbcaf322d2eec8da,64e7030d2cef0e14468cfdd0,,,,,,,ctch,resources/DG.BMP,resources/DY.BMP,Door3,-0.23828125,-0.009114583,1,0,0,1.0746,optionLeft,70,3465,2,22,0,22,0,1,,,,,,,,,,,,,,,,,,,,,,,,,,,,,,,,,,,,,,,
,,,,,,,638070625c26e262f2163254,2023-08-24_08h13.39.331,HF_wild_card,2022.2.4,Win32,40.08337342,638070625c26e262f2163254,64e63663dbcaf322d2eec8da,64e7030d2cef0e14468cfdd0,,,,,,,sngl,resources/Empty.png,resources/DBN.BMP,Door1,0.303385417,-0.036458333,1,0,0,1.2001,optionRight,30,3495,2,23,0,23,0,1,,,,,,,,,,,,,,,,,,,,,,,,,,,,,,,,,,,,,,,
,,,,,,,638070625c26e262f2163254,2023-08-24_08h13.39.331,HF_wild_card,2022.2.4,Win32,40.08337342,638070625c26e262f2163254,64e63663dbcaf322d2eec8da,64e7030d2cef0e14468cfdd0,,,,,,,decisionTrl,resources/DP.BMP,resources/DG.BMP,Door3,0.328125,-0.096354167,1,0,0,1.0694,optionRight,70,3565,2,24,0,24,0,1,,,,,,,,,,,,,,,,,,,,,,,,,,,,,,,,,,,,,,,
,,,,,,,638070625c26e262f2163254,2023-08-24_08h13.39.331,HF_wild_card,2022.2.4,Win32,40.08337342,638070625c26e262f2163254,64e63663dbcaf322d2eec8da,64e7030d2cef0e14468cfdd0,,,,,,,decisionTrl,resources/DY.BMP,resources/DBN.BMP,Door2,-0.259114583,-0.009114583,1,0,0,1.377,optionLeft,40,3605,2,25,0,25,0,1,,,,,,,,,,,,,,,,,,,,,,,,,,,,,,,,,,,,,,,
,,,,,,,638070625c26e262f2163254,2023-08-24_08h13.39.331,HF_wild_card,2022.2.4,Win32,40.08337342,638070625c26e262f2163254,64e63663dbcaf322d2eec8da,64e7030d2cef0e14468cfdd0,,,,,,,decisionTrl,resources/DBN.BMP,resources/DR.BMP,WildCard_Ex,0.330729167,-0.0625,1,0,0,1.1258,optionRight,95,3700,2,26,0,26,0,1,,,,,,,,,,,,,,,,,,,,,,,,,,,,,,,,,,,,,,,
,,,,,,,638070625c26e262f2163254,2023-08-24_08h13.39.331,HF_wild_card,2022.2.4,Win32,40.08337342,638070625c26e262f2163254,64e63663dbcaf322d2eec8da,64e7030d2cef0e14468cfdd0,,,,,,,decisionTrl,resources/DG.BMP,resources/DR.BMP,Door3,-0.311197917,-0.02734375,1,0,0,1.1922,optionLeft,70,3770,2,27,0,27,0,1,,,,,,,,,,,,,,,,,,,,,,,,,,,,,,,,,,,,,,,
,,,,,,,638070625c26e262f2163254,2023-08-24_08h13.39.331,HF_wild_card,2022.2.4,Win32,40.08337342,638070625c26e262f2163254,64e63663dbcaf322d2eec8da,64e7030d2cef0e14468cfdd0,,,,,,,decisionTrl,resources/DBN.BMP,resources/DY.BMP,Door2,0.278645833,-0.05078125,1,0,0,1.4354,optionRight,40,3810,2,28,0,28,0,1,,,,,,,,,,,,,,,,,,,,,,,,,,,,,,,,,,,,,,,
,,,,,,,638070625c26e262f2163254,2023-08-24_08h13.39.331,HF_wild_card,2022.2.4,Win32,40.08337342,638070625c26e262f2163254,64e63663dbcaf322d2eec8da,64e7030d2cef0e14468cfdd0,,,,,,,sngl,resources/DR.BMP,resources/Empty.png,WildCard_Ex,-0.364583333,0,1,0,0,1.0427,optionLeft,95,3905,2,29,0,29,0,1,,,,,,,,,,,,,,,,,,,,,,,,,,,,,,,,,,,,,,,
,,,,,,,638070625c26e262f2163254,2023-08-24_08h13.39.331,HF_wild_card,2022.2.4,Win32,40.08337342,638070625c26e262f2163254,64e63663dbcaf322d2eec8da,64e7030d2cef0e14468cfdd0,,,,,,,decisionTrl,resources/DG.BMP,resources/DP.BMP,Door3,-0.259114583,0.013020833,1,0,0,1.5937,optionLeft,70,3975,2,30,0,30,0,1,,,,,,,,,,,,,,,,,,,,,,,,,,,,,,,,,,,,,,,
,,,,,,,638070625c26e262f2163254,2023-08-24_08h13.39.331,HF_wild_card,2022.2.4,Win32,40.08337342,638070625c26e262f2163254,64e63663dbcaf322d2eec8da,64e7030d2cef0e14468cfdd0,,,,,,,decisionTrl,resources/DY.BMP,resources/DBN.BMP,Door2,-0.1875,-0.005208333,1,0,0,1.5979,optionLeft,20,3995,2,31,0,31,0,1,,,,,,,,,,,,,,,,,,,,,,,,,,,,,,,,,,,,,,,
,,,,,,,638070625c26e262f2163254,2023-08-24_08h13.39.331,HF_wild_card,2022.2.4,Win32,40.08337342,638070625c26e262f2163254,64e63663dbcaf322d2eec8da,64e7030d2cef0e14468cfdd0,,,,,,,sngl,resources/Empty.png,resources/DY.BMP,Door2,0.287760417,-0.02734375,1,0,0,1.2686,optionRight,40,4035,2,32,0,32,0,1,,,,,,,,,,,,,,,,,,,,,,,,,,,,,,,,,,,,,,,
,,,,,,,638070625c26e262f2163254,2023-08-24_08h13.39.331,HF_wild_card,2022.2.4,Win32,40.08337342,638070625c26e262f2163254,64e63663dbcaf322d2eec8da,64e7030d2cef0e14468cfdd0,,,,,,,decisionTrl,resources/DR.BMP,resources/DY.BMP,WildCard_Ex,-0.393229167,-0.0078125,1,0,0,1.1674,optionLeft,5,4040,2,33,0,33,0,1,,,,,,,,,,,,,,,,,,,,,,,,,,,,,,,,,,,,,,,
,,,,,,,638070625c26e262f2163254,2023-08-24_08h13.39.331,HF_wild_card,2022.2.4,Win32,40.08337342,638070625c26e262f2163254,64e63663dbcaf322d2eec8da,64e7030d2cef0e14468cfdd0,,,,,,,decisionTrl,resources/DR.BMP,resources/DP.BMP,WildCard_Ex,-0.307291667,-0.01171875,1,0,0,1.5169,optionLeft,95,4135,2,34,0,34,0,1,,,,,,,,,,,,,,,,,,,,,,,,,,,,,,,,,,,,,,,
,,,,,,,638070625c26e262f2163254,2023-08-24_08h13.39.331,HF_wild_card,2022.2.4,Win32,40.08337342,638070625c26e262f2163254,64e63663dbcaf322d2eec8da,64e7030d2cef0e14468cfdd0,,,,,,,ctch,resources/DG.BMP,resources/DY.BMP,Door3,-0.2109375,-0.01953125,1,0,0,1.3429,optionLeft,70,4205,2,35,0,35,0,1,,,,,,,,,,,,,,,,,,,,,,,,,,,,,,,,,,,,,,,
,,,,,,,638070625c26e262f2163254,2023-08-24_08h13.39.331,HF_wild_card,2022.2.4,Win32,40.08337342,638070625c26e262f2163254,64e63663dbcaf322d2eec8da,64e7030d2cef0e14468cfdd0,,,,,,,decisionTrl,resources/DG.BMP,resources/DP.BMP,Door3,-0.302083333,-0.079427083,1,0,0,1.193,optionLeft,70,4275,2,36,0,36,0,1,,,,,,,,,,,,,,,,,,,,,,,,,,,,,,,,,,,,,,,
,,,,,,,638070625c26e262f2163254,2023-08-24_08h13.39.331,HF_wild_card,2022.2.4,Win32,40.08337342,638070625c26e262f2163254,64e63663dbcaf322d2eec8da,64e7030d2cef0e14468cfdd0,,,,,,,ctch,resources/DP.BMP,resources/DBN.BMP,Door1,0.295572917,-0.037760417,1,0,0,1.912,optionRight,30,4305,2,37,0,37,0,1,,,,,,,,,,,,,,,,,,,,,,,,,,,,,,,,,,,,,,,
,,,,,,,638070625c26e262f2163254,2023-08-24_08h13.39.331,HF_wild_card,2022.2.4,Win32,40.08337342,638070625c26e262f2163254,64e63663dbcaf322d2eec8da,64e7030d2cef0e14468cfdd0,,,,,,,sngl,resources/DY.BMP,resources/Empty.png,Door2,-0.283854167,0.015625,1,0,0,1.0695,optionLeft,20,4325,2,38,0,38,0,1,,,,,,,,,,,,,,,,,,,,,,,,,,,,,,,,,,,,,,,
,,,,,,,638070625c26e262f2163254,2023-08-24_08h13.39.331,HF_wild_card,2022.2.4,Win32,40.08337342,638070625c26e262f2163254,64e63663dbcaf322d2eec8da,64e7030d2cef0e14468cfdd0,,,,,,,decisionTrl,resources/DY.BMP,resources/DBN.BMP,Door1,0.31640625,-0.076822917,1,0,0,1.8611,optionRight,30,4355,2,39,0,39,0,1,,,,,,,,,,,,,,,,,,,,,,,,,,,,,,,,,,,,,,,
,,,,,,,638070625c26e262f2163254,2023-08-24_08h13.39.331,HF_wild_card,2022.2.4,Win32,40.08337342,638070625c26e262f2163254,64e63663dbcaf322d2eec8da,64e7030d2cef0e14468cfdd0,,,,,,,ctch,resources/DP.BMP,resources/DBN.BMP,Door4,0.010416667,0.013020833,1,0,0,0.0984,optionLeft,60,4415,2,40,0,40,0,1,,,,,,,,,,,,,,,,,,,,,,,,,,,,,,,,,,,,,,,
,,,,,,,638070625c26e262f2163254,2023-08-24_08h13.39.331,HF_wild_card,2022.2.4,Win32,40.08337342,638070625c26e262f2163254,64e63663dbcaf322d2eec8da,64e7030d2cef0e14468cfdd0,,,,,,,sngl,resources/Empty.png,resources/DR.BMP,WildCard_Ex,0.40625,-0.041666667,1,0,0,1.0405,optionRight,95,4510,2,41,0,41,0,1,,,,,,,,,,,,,,,,,,,,,,,,,,,,,,,,,,,,,,,
,,,,,,,638070625c26e262f2163254,2023-08-24_08h13.39.331,HF_wild_card,2022.2.4,Win32,40.08337342,638070625c26e262f2163254,64e63663dbcaf322d2eec8da,64e7030d2cef0e14468cfdd0,,,,,,,sngl,resources/DR.BMP,resources/Empty.png,WildCard_Ex,-0.328125,-0.020833333,1,0,0,1.0697,optionLeft,5,4515,2,42,0,42,0,1,,,,,,,,,,,,,,,,,,,,,,,,,,,,,,,,,,,,,,,
,,,,,,,638070625c26e262f2163254,2023-08-24_08h13.39.331,HF_wild_card,2022.2.4,Win32,40.08337342,638070625c26e262f2163254,64e63663dbcaf322d2eec8da,64e7030d2cef0e14468cfdd0,,,,,,,decisionTrl,resources/DR.BMP,resources/DG.BMP,WildCard_Ex,-0.192708333,-0.005208333,1,0,0,1.128,optionLeft,95,4610,2,43,0,43,0,1,,,,,,,,,,,,,,,,,,,,,,,,,,,,,,,,,,,,,,,
,,,,,,,638070625c26e262f2163254,2023-08-24_08h13.39.331,HF_wild_card,2022.2.4,Win32,40.08337342,638070625c26e262f2163254,64e63663dbcaf322d2eec8da,64e7030d2cef0e14468cfdd0,,,,,,,,,,,,,,,,,,,,,,,,,,1,0,1,0,1,,,,,,,,,,,,,,,,,,,,,,,,,,,,,,,,,,
,,,,,,,638070625c26e262f2163254,2023-08-24_08h13.39.331,HF_wild_card,2022.2.4,Win32,40.08337342,638070625c26e262f2163254,64e63663dbcaf322d2eec8da,64e7030d2cef0e14468cfdd0,,,,,,,decisionTrl,resources/DY.BMP,resources/DBN.BMP,Door1,0.399739583,-0.018229167,1,0,0,2.8483,optionRight,30,4640,3,0,0,0,0,1,,,,,,,,,,,,,,,,,,,,,,,,,,,,,,,,,,,,,,,
,,,,,,,638070625c26e262f2163254,2023-08-24_08h13.39.331,HF_wild_card,2022.2.4,Win32,40.08337342,638070625c26e262f2163254,64e63663dbcaf322d2eec8da,64e7030d2cef0e14468cfdd0,,,,,,,sngl,resources/DP.BMP,resources/Empty.png,Door4,-0.348958333,0.002604167,1,0,0,1.0143,optionLeft,80,4720,3,1,0,1,0,1,,,,,,,,,,,,,,,,,,,,,,,,,,,,,,,,,,,,,,,
,,,,,,,638070625c26e262f2163254,2023-08-24_08h13.39.331,HF_wild_card,2022.2.4,Win32,40.08337342,638070625c26e262f2163254,64e63663dbcaf322d2eec8da,64e7030d2cef0e14468cfdd0,,,,,,,sngl,resources/Empty.png,resources/DG.BMP,Door3,0.4921875,0.024739583,1,0,0,1.0227,optionRight,70,4790,3,2,0,2,0,1,,,,,,,,,,,,,,,,,,,,,,,,,,,,,,,,,,,,,,,
,,,,,,,638070625c26e262f2163254,2023-08-24_08h13.39.331,HF_wild_card,2022.2.4,Win32,40.08337342,638070625c26e262f2163254,64e63663dbcaf322d2eec8da,64e7030d2cef0e14468cfdd0,,,,,,,ctch,resources/DBN.BMP,resources/DP.BMP,Door4,0.40625,-0.020833333,1,0,0,1.2688,optionRight,80,4870,3,3,0,3,0,1,,,,,,,,,,,,,,,,,,,,,,,,,,,,,,,,,,,,,,,
,,,,,,,638070625c26e262f2163254,2023-08-24_08h13.39.331,HF_wild_card,2022.2.4,Win32,40.08337342,638070625c26e262f2163254,64e63663dbcaf322d2eec8da,64e7030d2cef0e14468cfdd0,,,,,,,decisionTrl,resources/DG.BMP,resources/DP.BMP,Door4,0.365885417,-0.07421875,1,0,0,1.1432,optionRight,60,4930,3,4,0,4,0,1,,,,,,,,,,,,,,,,,,,,,,,,,,,,,,,,,,,,,,,
,,,,,,,638070625c26e262f2163254,2023-08-24_08h13.39.331,HF_wild_card,2022.2.4,Win32,40.08337342,638070625c26e262f2163254,64e63663dbcaf322d2eec8da,64e7030d2cef0e14468cfdd0,,,,,,,decisionTrl,resources/DG.BMP,resources/DP.BMP,Door3,-0.453125,-0.01953125,1,0,0,1.0721,optionLeft,70,5000,3,5,0,5,0,1,,,,,,,,,,,,,,,,,,,,,,,,,,,,,,,,,,,,,,,
,,,,,,,638070625c26e262f2163254,2023-08-24_08h13.39.331,HF_wild_card,2022.2.4,Win32,40.08337342,638070625c26e262f2163254,64e63663dbcaf322d2eec8da,64e7030d2cef0e14468cfdd0,,,,,,,decisionTrl,resources/DR.BMP,resources/DBN.BMP,WildCard_Ex,-0.350260417,-0.00390625,1,0,0,1.1456,optionLeft,95,5095,3,6,0,6,0,1,,,,,,,,,,,,,,,,,,,,,,,,,,,,,,,,,,,,,,,
,,,,,,,638070625c26e262f2163254,2023-08-24_08h13.39.331,HF_wild_card,2022.2.4,Win32,40.08337342,638070625c26e262f2163254,64e63663dbcaf322d2eec8da,64e7030d2cef0e14468cfdd0,,,,,,,decisionTrl,resources/DBN.BMP,resources/DY.BMP,Door2,0.321614583,-0.040364583,1,0,0,1.6447,optionRight,40,5135,3,7,0,7,0,1,,,,,,,,,,,,,,,,,,,,,,,,,,,,,,,,,,,,,,,
,,,,,,,638070625c26e262f2163254,2023-08-24_08h13.39.331,HF_wild_card,2022.2.4,Win32,40.08337342,638070625c26e262f2163254,64e63663dbcaf322d2eec8da,64e7030d2cef0e14468cfdd0,,,,,,,decisionTrl,resources/DP.BMP,resources/DG.BMP,Door3,0.368489583,-0.022135417,1,0,0,3.4943,optionRight,70,5205,3,8,0,8,0,1,,,,,,,,,,,,,,,,,,,,,,,,,,,,,,,,,,,,,,,
,,,,,,,638070625c26e262f2163254,2023-08-24_08h13.39.331,HF_wild_card,2022.2.4,Win32,40.08337342,638070625c26e262f2163254,64e63663dbcaf322d2eec8da,64e7030d2cef0e14468cfdd0,,,,,,,decisionTrl,resources/DY.BMP,resources/DR.BMP,WildCard_Ex,0.37890625,-0.03125,1,0,0,1.1222,optionRight,5,5210,3,9,0,9,0,1,,,,,,,,,,,,,,,,,,,,,,,,,,,,,,,,,,,,,,,
,,,,,,,638070625c26e262f2163254,2023-08-24_08h13.39.331,HF_wild_card,2022.2.4,Win32,40.08337342,638070625c26e262f2163254,64e63663dbcaf322d2eec8da,64e7030d2cef0e14468cfdd0,,,,,,,sngl,resources/Empty.png,resources/DP.BMP,Door4,0.337239583,-0.015625,1,0,0,1.1156,optionRight,60,5270,3,10,0,10,0,1,,,,,,,,,,,,,,,,,,,,,,,,,,,,,,,,,,,,,,,
,,,,,,,638070625c26e262f2163254,2023-08-24_08h13.39.331,HF_wild_card,2022.2.4,Win32,40.08337342,638070625c26e262f2163254,64e63663dbcaf322d2eec8da,64e7030d2cef0e14468cfdd0,,,,,,,sngl,resources/Empty.png,resources/DY.BMP,Door2,0.352864583,0.029947917,1,0,0,1.0621,optionRight,20,5290,3,11,0,11,0,1,,,,,,,,,,,,,,,,,,,,,,,,,,,,,,,,,,,,,,,
,,,,,,,638070625c26e262f2163254,2023-08-24_08h13.39.331,HF_wild_card,2022.2.4,Win32,40.08337342,638070625c26e262f2163254,64e63663dbcaf322d2eec8da,64e7030d2cef0e14468cfdd0,,,,,,,sngl,resources/DR.BMP,resources/Empty.png,WildCard_Ex,-0.37890625,-0.044270833,1,0,0,1.0171,optionLeft,95,5385,3,12,0,12,0,1,,,,,,,,,,,,,,,,,,,,,,,,,,,,,,,,,,,,,,,
,,,,,,,638070625c26e262f2163254,2023-08-24_08h13.39.331,HF_wild_card,2022.2.4,Win32,40.08337342,638070625c26e262f2163254,64e63663dbcaf322d2eec8da,64e7030d2cef0e14468cfdd0,,,,,,,decisionTrl,resources/DG.BMP,resources/DR.BMP,WildCard_Ex,0.322916667,-0.071614583,1,0,0,1.4254,optionRight,95,5480,3,13,0,13,0,1,,,,,,,,,,,,,,,,,,,,,,,,,,,,,,,,,,,,,,,
,,,,,,,638070625c26e262f2163254,2023-08-24_08h13.39.331,HF_wild_card,2022.2.4,Win32,40.08337342,638070625c26e262f2163254,64e63663dbcaf322d2eec8da,64e7030d2cef0e14468cfdd0,,,,,,,ctch,resources/DBN.BMP,resources/DP.BMP,Door4,0.361979167,-0.115885417,1,0,0,1.6383,optionRight,60,5540,3,14,0,14,0,1,,,,,,,,,,,,,,,,,,,,,,,,,,,,,,,,,,,,,,,
,,,,,,,638070625c26e262f2163254,2023-08-24_08h13.39.331,HF_wild_card,2022.2.4,Win32,40.08337342,638070625c26e262f2163254,64e63663dbcaf322d2eec8da,64e7030d2cef0e14468cfdd0,,,,,,,sngl,resources/DBN.BMP,resources/Empty.png,Door1,-0.311197917,-0.018229167,1,0,0,1.0935,optionLeft,30,5570,3,15,0,15,0,1,,,,,,,,,,,,,,,,,,,,,,,,,,,,,,,,,,,,,,,
,,,,,,,638070625c26e262f2163254,2023-08-24_08h13.39.331,HF_wild_card,2022.2.4,Win32,40.08337342,638070625c26e262f2163254,64e63663dbcaf322d2eec8da,64e7030d2cef0e14468cfdd0,,,,,,,ctch,resources/DG.BMP,resources/DY.BMP,Door3,-0.438802083,0.0390625,1,0,0,1.4648,optionLeft,70,5640,3,16,0,16,0,1,,,,,,,,,,,,,,,,,,,,,,,,,,,,,,,,,,,,,,,
,,,,,,,638070625c26e262f2163254,2023-08-24_08h13.39.331,HF_wild_card,2022.2.4,Win32,40.08337342,638070625c26e262f2163254,64e63663dbcaf322d2eec8da,64e7030d2cef0e14468cfdd0,,,,,,,decisionTrl,resources/DBN.BMP,resources/DY.BMP,Door2,0.466145833,-0.036458333,1,0,0,1.249,optionRight,20,5660,3,17,0,17,0,1,,,,,,,,,,,,,,,,,,,,,,,,,,,,,,,,,,,,,,,
,,,,,,,638070625c26e262f2163254,2023-08-24_08h13.39.331,HF_wild_card,2022.2.4,Win32,40.08337342,638070625c26e262f2163254,64e63663dbcaf322d2eec8da,64e7030d2cef0e14468cfdd0,,,,,,,decisionTrl,resources/DY.BMP,resources/DBN.BMP,Door1,0.33203125,-0.05078125,1,0,0,1.5644,optionRight,30,5690,3,18,0,18,0,1,,,,,,,,,,,,,,,,,,,,,,,,,,,,,,,,,,,,,,,
,,,,,,,638070625c26e262f2163254,2023-08-24_08h13.39.331,HF_wild_card,2022.2.4,Win32,40.08337342,638070625c26e262f2163254,64e63663dbcaf322d2eec8da,64e7030d2cef0e14468cfdd0,,,,,,,decisionTrl,resources/DBN.BMP,resources/DY.BMP,Door2,0.307291667,-0.05859375,1,0,0,1.6413,optionRight,20,5710,3,19,0,19,0,1,,,,,,,,,,,,,,,,,,,,,,,,,,,,,,,,,,,,,,,
,,,,,,,638070625c26e262f2163254,2023-08-24_08h13.39.331,HF_wild_card,2022.2.4,Win32,40.08337342,638070625c26e262f2163254,64e63663dbcaf322d2eec8da,64e7030d2cef0e14468cfdd0,,,,,,,sngl,resources/Empty.png,resources/DR.BMP,WildCard_Ex,0.256510417,-0.0078125,1,0,0,1.0389,optionRight,95,5805,3,20,0,20,0,1,,,,,,,,,,,,,,,,,,,,,,,,,,,,,,,,,,,,,,,
,,,,,,,638070625c26e262f2163254,2023-08-24_08h13.39.331,HF_wild_card,2022.2.4,Win32,40.08337342,638070625c26e262f2163254,64e63663dbcaf322d2eec8da,64e7030d2cef0e14468cfdd0,,,,,,,decisionTrl,resources/DBN.BMP,resources/DR.BMP,WildCard_Ex,0.389322917,0.009114583,1,0,0,1.0635,optionRight,5,5810,3,21,0,21,0,1,,,,,,,,,,,,,,,,,,,,,,,,,,,,,,,,,,,,,,,
,,,,,,,638070625c26e262f2163254,2023-08-24_08h13.39.331,HF_wild_card,2022.2.4,Win32,40.08337342,638070625c26e262f2163254,64e63663dbcaf322d2eec8da,64e7030d2cef0e14468cfdd0,,,,,,,decisionTrl,resources/DY.BMP,resources/DBN.BMP,Door2,-0.34375,0.052083333,1,0,0,1.5402,optionLeft,40,5850,3,22,0,22,0,1,,,,,,,,,,,,,,,,,,,,,,,,,,,,,,,,,,,,,,,
,,,,,,,638070625c26e262f2163254,2023-08-24_08h13.39.331,HF_wild_card,2022.2.4,Win32,40.08337342,638070625c26e262f2163254,64e63663dbcaf322d2eec8da,64e7030d2cef0e14468cfdd0,,,,,,,sngl,resources/Empty.png,resources/DBN.BMP,Door1,0.486979167,0.024739583,1,0,0,1.0672,optionRight,30,5880,3,23,0,23,0,1,,,,,,,,,,,,,,,,,,,,,,,,,,,,,,,,,,,,,,,
,,,,,,,638070625c26e262f2163254,2023-08-24_08h13.39.331,HF_wild_card,2022.2.4,Win32,40.08337342,638070625c26e262f2163254,64e63663dbcaf322d2eec8da,64e7030d2cef0e14468cfdd0,,,,,,,decisionTrl,resources/DR.BMP,resources/DP.BMP,WildCard_Ex,-0.31640625,-0.024739583,1,0,0,1.2155,optionLeft,5,5885,3,24,0,24,0,1,,,,,,,,,,,,,,,,,,,,,,,,,,,,,,,,,,,,,,,
,,,,,,,638070625c26e262f2163254,2023-08-24_08h13.39.331,HF_wild_card,2022.2.4,Win32,40.08337342,638070625c26e262f2163254,64e63663dbcaf322d2eec8da,64e7030d2cef0e14468cfdd0,,,,,,,ctch,resources/DP.BMP,resources/DBN.BMP,Door4,-0.305989583,-0.005208333,1,0,0,1.5863,optionLeft,60,5945,3,25,0,25,0,1,,,,,,,,,,,,,,,,,,,,,,,,,,,,,,,,,,,,,,,
,,,,,,,638070625c26e262f2163254,2023-08-24_08h13.39.331,HF_wild_card,2022.2.4,Win32,40.08337342,638070625c26e262f2163254,64e63663dbcaf322d2eec8da,64e7030d2cef0e14468cfdd0,,,,,,,ctch,resources/DP.BMP,resources/DBN.BMP,Door4,-0.256510417,-0.01171875,1,0,0,1.4913,optionLeft,60,6005,3,26,0,26,0,1,,,,,,,,,,,,,,,,,,,,,,,,,,,,,,,,,,,,,,,
,,,,,,,638070625c26e262f2163254,2023-08-24_08h13.39.331,HF_wild_card,2022.2.4,Win32,40.08337342,638070625c26e262f2163254,64e63663dbcaf322d2eec8da,64e7030d2cef0e14468cfdd0,,,,,,,decisionTrl,resources/DG.BMP,resources/DP.BMP,Door3,-0.231770833,-0.03515625,1,0,0,1.9158,optionLeft,70,6075,3,27,0,27,0,1,,,,,,,,,,,,,,,,,,,,,,,,,,,,,,,,,,,,,,,
,,,,,,,638070625c26e262f2163254,2023-08-24_08h13.39.331,HF_wild_card,2022.2.4,Win32,40.08337342,638070625c26e262f2163254,64e63663dbcaf322d2eec8da,64e7030d2cef0e14468cfdd0,,,,,,,sngl,resources/Empty.png,resources/DR.BMP,WildCard_Ex,0.38671875,-0.0625,1,0,0,1.0172,optionRight,5,6080,3,28,0,28,0,1,,,,,,,,,,,,,,,,,,,,,,,,,,,,,,,,,,,,,,,
,,,,,,,638070625c26e262f2163254,2023-08-24_08h13.39.331,HF_wild_card,2022.2.4,Win32,40.08337342,638070625c26e262f2163254,64e63663dbcaf322d2eec8da,64e7030d2cef0e14468cfdd0,,,,,,,sngl,resources/DR.BMP,resources/Empty.png,WildCard_Ex,-0.329427083,0.0234375,1,0,0,1.089,optionLeft,5,6085,3,29,0,29,0,1,,,,,,,,,,,,,,,,,,,,,,,,,,,,,,,,,,,,,,,
,,,,,,,638070625c26e262f2163254,2023-08-24_08h13.39.331,HF_wild_card,2022.2.4,Win32,40.08337342,638070625c26e262f2163254,64e63663dbcaf322d2eec8da,64e7030d2cef0e14468cfdd0,,,,,,,decisionTrl,resources/DR.BMP,resources/DG.BMP,WildCard_Ex,-0.223958333,-0.055989583,1,0,0,3.2161,optionLeft,5,6090,3,30,0,30,0,1,,,,,,,,,,,,,,,,,,,,,,,,,,,,,,,,,,,,,,,
,,,,,,,638070625c26e262f2163254,2023-08-24_08h13.39.331,HF_wild_card,2022.2.4,Win32,40.08337342,638070625c26e262f2163254,64e63663dbcaf322d2eec8da,64e7030d2cef0e14468cfdd0,,,,,,,decisionTrl,resources/DG.BMP,resources/DP.BMP,Door3,-0.299479167,-0.029947917,1,0,0,1.3951,optionLeft,70,6160,3,31,0,31,0,1,,,,,,,,,,,,,,,,,,,,,,,,,,,,,,,,,,,,,,,
,,,,,,,638070625c26e262f2163254,2023-08-24_08h13.39.331,HF_wild_card,2022.2.4,Win32,40.08337342,638070625c26e262f2163254,64e63663dbcaf322d2eec8da,64e7030d2cef0e14468cfdd0,,,,,,,decisionTrl,resources/DBN.BMP,resources/DY.BMP,Door2,0.154947917,-0.00390625,1,0,0,1.4663,optionRight,40,6200,3,32,0,32,0,1,,,,,,,,,,,,,,,,,,,,,,,,,,,,,,,,,,,,,,,
,,,,,,,638070625c26e262f2163254,2023-08-24_08h13.39.331,HF_wild_card,2022.2.4,Win32,40.08337342,638070625c26e262f2163254,64e63663dbcaf322d2eec8da,64e7030d2cef0e14468cfdd0,,,,,,,decisionTrl,resources/DP.BMP,resources/DG.BMP,Door3,0.3359375,-0.033854167,1,0,0,1.4645,optionRight,70,6270,3,33,0,33,0,1,,,,,,,,,,,,,,,,,,,,,,,,,,,,,,,,,,,,,,,
,,,,,,,638070625c26e262f2163254,2023-08-24_08h13.39.331,HF_wild_card,2022.2.4,Win32,40.08337342,638070625c26e262f2163254,64e63663dbcaf322d2eec8da,64e7030d2cef0e14468cfdd0,,,,,,,decisionTrl,resources/DP.BMP,resources/DR.BMP,WildCard_Ex,0.31640625,-0.05078125,1,0,0,1.6398,optionRight,5,6275,3,34,0,34,0,1,,,,,,,,,,,,,,,,,,,,,,,,,,,,,,,,,,,,,,,
,,,,,,,638070625c26e262f2163254,2023-08-24_08h13.39.331,HF_wild_card,2022.2.4,Win32,40.08337342,638070625c26e262f2163254,64e63663dbcaf322d2eec8da,64e7030d2cef0e14468cfdd0,,,,,,,ctch,resources/DY.BMP,resources/DG.BMP,Door3,0.243489583,-0.026041667,1,0,0,1.568,optionRight,70,6345,3,35,0,35,0,1,,,,,,,,,,,,,,,,,,,,,,,,,,,,,,,,,,,,,,,
,,,,,,,638070625c26e262f2163254,2023-08-24_08h13.39.331,HF_wild_card,2022.2.4,Win32,40.08337342,638070625c26e262f2163254,64e63663dbcaf322d2eec8da,64e7030d2cef0e14468cfdd0,,,,,,,decisionTrl,resources/DR.BMP,resources/DY.BMP,Door2,0.236979167,0.015625,1,0,0,1.8888,optionRight,20,6365,3,36,0,36,0,1,,,,,,,,,,,,,,,,,,,,,,,,,,,,,,,,,,,,,,,
,,,,,,,638070625c26e262f2163254,2023-08-24_08h13.39.331,HF_wild_card,2022.2.4,Win32,40.08337342,638070625c26e262f2163254,64e63663dbcaf322d2eec8da,64e7030d2cef0e14468cfdd0,,,,,,,decisionTrl,resources/DP.BMP,resources/DG.BMP,Door3,0.407552083,-0.020833333,1,0,0,1.0506,optionRight,70,6435,3,37,0,37,0,1,,,,,,,,,,,,,,,,,,,,,,,,,,,,,,,,,,,,,,,
,,,,,,,638070625c26e262f2163254,2023-08-24_08h13.39.331,HF_wild_card,2022.2.4,Win32,40.08337342,638070625c26e262f2163254,64e63663dbcaf322d2eec8da,64e7030d2cef0e14468cfdd0,,,,,,,decisionTrl,resources/DP.BMP,resources/DG.BMP,Door3,0.375,-0.00390625,1,0,0,1.0911,optionRight,70,6505,3,38,0,38,0,1,,,,,,,,,,,,,,,,,,,,,,,,,,,,,,,,,,,,,,,
,,,,,,,638070625c26e262f2163254,2023-08-24_08h13.39.331,HF_wild_card,2022.2.4,Win32,40.08337342,638070625c26e262f2163254,64e63663dbcaf322d2eec8da,64e7030d2cef0e14468cfdd0,,,,,,,sngl,resources/DG.BMP,resources/Empty.png,Door3,-0.37109375,0.03515625,1,0,0,1.1342,optionLeft,70,6575,3,39,0,39,0,1,,,,,,,,,,,,,,,,,,,,,,,,,,,,,,,,,,,,,,,
,,,,,,,638070625c26e262f2163254,2023-08-24_08h13.39.331,HF_wild_card,2022.2.4,Win32,40.08337342,638070625c26e262f2163254,64e63663dbcaf322d2eec8da,64e7030d2cef0e14468cfdd0,,,,,,,ctch,resources/DG.BMP,resources/DY.BMP,Door3,-0.235677083,0.005208333,1,0,0,1.3665,optionLeft,70,6645,3,40,0,40,0,1,,,,,,,,,,,,,,,,,,,,,,,,,,,,,,,,,,,,,,,
,,,,,,,638070625c26e262f2163254,2023-08-24_08h13.39.331,HF_wild_card,2022.2.4,Win32,40.08337342,638070625c26e262f2163254,64e63663dbcaf322d2eec8da,64e7030d2cef0e14468cfdd0,,,,,,,sngl,resources/DY.BMP,resources/Empty.png,Door2,-0.286458333,-0.014322917,1,0,0,1.1169,optionLeft,40,6685,3,41,0,41,0,1,,,,,,,,,,,,,,,,,,,,,,,,,,,,,,,,,,,,,,,
,,,,,,,638070625c26e262f2163254,2023-08-24_08h13.39.331,HF_wild_card,2022.2.4,Win32,40.08337342,638070625c26e262f2163254,64e63663dbcaf322d2eec8da,64e7030d2cef0e14468cfdd0,,,,,,,decisionTrl,resources/DY.BMP,resources/DBN.BMP,Door2,-0.213541667,-0.0234375,1,0,0,1.4456,optionLeft,40,6725,3,42,0,42,0,1,,,,,,,,,,,,,,,,,,,,,,,,,,,,,,,,,,,,,,,
,,,,,,,638070625c26e262f2163254,2023-08-24_08h13.39.331,HF_wild_card,2022.2.4,Win32,40.08337342,638070625c26e262f2163254,64e63663dbcaf322d2eec8da,64e7030d2cef0e14468cfdd0,,,,,,,ctch,resources/DY.BMP,resources/DG.BMP,Door3,0.442708333,-0.006510417,1,0,0,1.5732,optionRight,70,6795,3,43,0,43,0,1,,,,,,,,,,,,,,,,,,,,,,,,,,,,,,,,,,,,,,,
,,,,,,,638070625c26e262f2163254,2023-08-24_08h13.39.331,HF_wild_card,2022.2.4,Win32,40.08337342,638070625c26e262f2163254,64e63663dbcaf322d2eec8da,64e7030d2cef0e14468cfdd0,,,,,,,,,,,,,,,,,,,,,,,,,,2,0,2,0,1,,,,,,,,,,,,,,,,,,,,,,,,,,,,,,,,,,
,,,,,,,638070625c26e262f2163254,2023-08-24_08h13.39.331,HF_wild_card,2022.2.4,Win32,40.08337342,638070625c26e262f2163254,64e63663dbcaf322d2eec8da,64e7030d2cef0e14468cfdd0,,,,,,,decisionTrl,resources/DP.BMP,resources/DB.BMP,WildCard_NonEx,0.279947917,-0.138020833,1,0,0,2.8844,optionRight,55,6850,4,0,0,0,0,1,,,,,,,,,,,,,,,,,,,,,,,,,,,,,,,,,,,,,,,
,,,,,,,638070625c26e262f2163254,2023-08-24_08h13.39.331,HF_wild_card,2022.2.4,Win32,40.08337342,638070625c26e262f2163254,64e63663dbcaf322d2eec8da,64e7030d2cef0e14468cfdd0,,,,,,,sngl,resources/Empty.png,resources/DBN.BMP,Door1,0.2890625,0.029947917,1,0,0,1.9642,optionRight,30,6880,4,1,0,1,0,1,,,,,,,,,,,,,,,,,,,,,,,,,,,,,,,,,,,,,,,
,,,,,,,638070625c26e262f2163254,2023-08-24_08h13.39.331,HF_wild_card,2022.2.4,Win32,40.08337342,638070625c26e262f2163254,64e63663dbcaf322d2eec8da,64e7030d2cef0e14468cfdd0,,,,,,,sngl,resources/Empty.png,resources/DB.BMP,WildCard_NonEx,0.290364583,0.00390625,1,0,0,1.5904,optionRight,45,6925,4,2,0,2,0,1,,,,,,,,,,,,,,,,,,,,,,,,,,,,,,,,,,,,,,,
,,,,,,,638070625c26e262f2163254,2023-08-24_08h13.39.331,HF_wild_card,2022.2.4,Win32,40.08337342,638070625c26e262f2163254,64e63663dbcaf322d2eec8da,64e7030d2cef0e14468cfdd0,,,,,,,decisionTrl,resources/DB.BMP,resources/DP.BMP,WildCard_NonEx,-0.264322917,0.016927083,1,0,0,2.311,optionLeft,55,6980,4,3,0,3,0,1,,,,,,,,,,,,,,,,,,,,,,,,,,,,,,,,,,,,,,,
,,,,,,,638070625c26e262f2163254,2023-08-24_08h13.39.331,HF_wild_card,2022.2.4,Win32,40.08337342,638070625c26e262f2163254,64e63663dbcaf322d2eec8da,64e7030d2cef0e14468cfdd0,,,,,,,ctch,resources/DP.BMP,resources/DBN.BMP,Door4,-0.298177083,-0.03515625,1,0,0,2.4674,optionLeft,60,7040,4,4,0,4,0,1,,,,,,,,,,,,,,,,,,,,,,,,,,,,,,,,,,,,,,,
,,,,,,,638070625c26e262f2163254,2023-08-24_08h13.39.331,HF_wild_card,2022.2.4,Win32,40.08337342,638070625c26e262f2163254,64e63663dbcaf322d2eec8da,64e7030d2cef0e14468cfdd0,,,,,,,decisionTrl,resources/DB.BMP,resources/DBN.BMP,WildCard_NonEx,-0.42578125,-0.118489583,1,0,0,1.6727,optionLeft,45,7085,4,5,0,5,0,1,,,,,,,,,,,,,,,,,,,,,,,,,,,,,,,,,,,,,,,
,,,,,,,638070625c26e262f2163254,2023-08-24_08h13.39.331,HF_wild_card,2022.2.4,Win32,40.08337342,638070625c26e262f2163254,64e63663dbcaf322d2eec8da,64e7030d2cef0e14468cfdd0,,,,,,,decisionTrl,resources/DB.BMP,resources/DY.BMP,WildCard_NonEx,-0.204427083,-0.071614583,1,0,0,1.841,optionLeft,55,7140,4,6,0,6,0,1,,,,,,,,,,,,,,,,,,,,,,,,,,,,,,,,,,,,,,,
,,,,,,,638070625c26e262f2163254,2023-08-24_08h13.39.331,HF_wild_card,2022.2.4,Win32,40.08337342,638070625c26e262f2163254,64e63663dbcaf322d2eec8da,64e7030d2cef0e14468cfdd0,,,,,,,decisionTrl,resources/DG.BMP,resources/DB.BMP,Door3,-0.268229167,-0.096354167,1,0,0,2.2391,optionLeft,70,7210,4,7,0,7,0,1,,,,,,,,,,,,,,,,,,,,,,,,,,,,,,,,,,,,,,,
,,,,,,,638070625c26e262f2163254,2023-08-24_08h13.39.331,HF_wild_card,2022.2.4,Win32,40.08337342,638070625c26e262f2163254,64e63663dbcaf322d2eec8da,64e7030d2cef0e14468cfdd0,,,,,,,decisionTrl,resources/DP.BMP,resources/DG.BMP,Door3,0.334635417,-0.079427083,1,0,0,2.2712,optionRight,70,7280,4,8,0,8,0,1,,,,,,,,,,,,,,,,,,,,,,,,,,,,,,,,,,,,,,,
,,,,,,,638070625c26e262f2163254,2023-08-24_08h13.39.331,HF_wild_card,2022.2.4,Win32,40.08337342,638070625c26e262f2163254,64e63663dbcaf322d2eec8da,64e7030d2cef0e14468cfdd0,,,,,,,decisionTrl,resources/DG.BMP,resources/DP.BMP,Door3,-0.236979167,0.0078125,1,0,0,1.747,optionLeft,70,7350,4,9,0,9,0,1,,,,,,,,,,,,,,,,,,,,,,,,,,,,,,,,,,,,,,,
,,,,,,,638070625c26e262f2163254,2023-08-24_08h13.39.331,HF_wild_card,2022.2.4,Win32,40.08337342,638070625c26e262f2163254,64e63663dbcaf322d2eec8da,64e7030d2cef0e14468cfdd0,,,,,,,sngl,resources/DB.BMP,resources/Empty.png,WildCard_NonEx,-0.35546875,-0.0390625,1,0,0,1.6369,optionLeft,45,7395,4,10,0,10,0,1,,,,,,,,,,,,,,,,,,,,,,,,,,,,,,,,,,,,,,,
,,,,,,,638070625c26e262f2163254,2023-08-24_08h13.39.331,HF_wild_card,2022.2.4,Win32,40.08337342,638070625c26e262f2163254,64e63663dbcaf322d2eec8da,64e7030d2cef0e14468cfdd0,,,,,,,sngl,resources/DY.BMP,resources/Empty.png,Door2,-0.328125,-0.03125,1,0,0,1.2174,optionLeft,20,7415,4,11,0,11,0,1,,,,,,,,,,,,,,,,,,,,,,,,,,,,,,,,,,,,,,,
,,,,,,,638070625c26e262f2163254,2023-08-24_08h13.39.331,HF_wild_card,2022.2.4,Win32,40.08337342,638070625c26e262f2163254,64e63663dbcaf322d2eec8da,64e7030d2cef0e14468cfdd0,,,,,,,decisionTrl,resources/DP.BMP,resources/DG.BMP,Door3,0.470052083,-0.057291667,1,0,0,1.5416,optionRight,70,7485,4,12,0,12,0,1,,,,,,,,,,,,,,,,,,,,,,,,,,,,,,,,,,,,,,,
,,,,,,,638070625c26e262f2163254,2023-08-24_08h13.39.331,HF_wild_card,2022.2.4,Win32,40.08337342,638070625c26e262f2163254,64e63663dbcaf322d2eec8da,64e7030d2cef0e14468cfdd0,,,,,,,sngl,resources/Empty.png,resources/DB.BMP,WildCard_NonEx,0.291666667,0.032552083,1,0,0,1.2152,optionRight,55,7540,4,13,0,13,0,1,,,,,,,,,,,,,,,,,,,,,,,,,,,,,,,,,,,,,,,
,,,,,,,638070625c26e262f2163254,2023-08-24_08h13.39.331,HF_wild_card,2022.2.4,Win32,40.08337342,638070625c26e262f2163254,64e63663dbcaf322d2eec8da,64e7030d2cef0e14468cfdd0,,,,,,,ctch,resources/DG.BMP,resources/DY.BMP,Door3,-0.350260417,-0.057291667,1,0,0,3.1661,optionLeft,70,7610,4,14,0,14,0,1,,,,,,,,,,,,,,,,,,,,,,,,,,,,,,,,,,,,,,,
,,,,,,,638070625c26e262f2163254,2023-08-24_08h13.39.331,HF_wild_card,2022.2.4,Win32,40.08337342,638070625c26e262f2163254,64e63663dbcaf322d2eec8da,64e7030d2cef0e14468cfdd0,,,,,,,ctch,resources/DP.BMP,resources/DBN.BMP,Door1,0.380208333,-0.087239583,1,0,0,1.818,optionRight,30,7640,4,15,0,15,0,1,,,,,,,,,,,,,,,,,,,,,,,,,,,,,,,,,,,,,,,
,,,,,,,638070625c26e262f2163254,2023-08-24_08h13.39.331,HF_wild_card,2022.2.4,Win32,40.08337342,638070625c26e262f2163254,64e63663dbcaf322d2eec8da,64e7030d2cef0e14468cfdd0,,,,,,,decisionTrl,resources/DY.BMP,resources/DBN.BMP,Door2,-0.279947917,-0.026041667,1,0,0,1.5416,optionLeft,40,7680,4,16,0,16,0,1,,,,,,,,,,,,,,,,,,,,,,,,,,,,,,,,,,,,,,,
,,,,,,,638070625c26e262f2163254,2023-08-24_08h13.39.331,HF_wild_card,2022.2.4,Win32,40.08337342,638070625c26e262f2163254,64e63663dbcaf322d2eec8da,64e7030d2cef0e14468cfdd0,,,,,,,decisionTrl,resources/DP.BMP,resources/DG.BMP,Door3,0.381510417,-0.036458333,1,0,0,3.3961,optionRight,70,7750,4,17,0,17,0,1,,,,,,,,,,,,,,,,,,,,,,,,,,,,,,,,,,,,,,,
,,,,,,,638070625c26e262f2163254,2023-08-24_08h13.39.331,HF_wild_card,2022.2.4,Win32,40.08337342,638070625c26e262f2163254,64e63663dbcaf322d2eec8da,64e7030d2cef0e14468cfdd0,,,,,,,sngl,resources/DBN.BMP,resources/Empty.png,Door1,-0.364583333,-0.036458333,1,0,0,1.1186,optionLeft,30,7780,4,18,0,18,0,1,,,,,,,,,,,,,,,,,,,,,,,,,,,,,,,,,,,,,,,
,,,,,,,638070625c26e262f2163254,2023-08-24_08h13.39.331,HF_wild_card,2022.2.4,Win32,40.08337342,638070625c26e262f2163254,64e63663dbcaf322d2eec8da,64e7030d2cef0e14468cfdd0,,,,,,,ctch,resources/DBN.BMP,resources/DP.BMP,Door4,0.333333333,-0.075520833,1,0,0,2.0157,optionRight,80,7860,4,19,0,19,0,1,,,,,,,,,,,,,,,,,,,,,,,,,,,,,,,,,,,,,,,
,,,,,,,638070625c26e262f2163254,2023-08-24_08h13.39.331,HF_wild_card,2022.2.4,Win32,40.08337342,638070625c26e262f2163254,64e63663dbcaf322d2eec8da,64e7030d2cef0e14468cfdd0,,,,,,,sngl,resources/DG.BMP,resources/Empty.png,Door3,-0.395833333,-0.022135417,1,0,0,1.0937,optionLeft,70,7930,4,20,0,20,0,1,,,,,,,,,,,,,,,,,,,,,,,,,,,,,,,,,,,,,,,
,,,,,,,638070625c26e262f2163254,2023-08-24_08h13.39.331,HF_wild_card,2022.2.4,Win32,40.08337342,638070625c26e262f2163254,64e63663dbcaf322d2eec8da,64e7030d2cef0e14468cfdd0,,,,,,,decisionTrl,resources/DY.BMP,resources/DB.BMP,WildCard_NonEx,0.37890625,-0.020833333,1,0,0,1.289,optionRight,45,7975,4,21,0,21,0,1,,,,,,,,,,,,,,,,,,,,,,,,,,,,,,,,,,,,,,,
,,,,,,,638070625c26e262f2163254,2023-08-24_08h13.39.331,HF_wild_card,2022.2.4,Win32,40.08337342,638070625c26e262f2163254,64e63663dbcaf322d2eec8da,64e7030d2cef0e14468cfdd0,,,,,,,ctch,resources/DY.BMP,resources/DG.BMP,Door3,0.298177083,-0.040364583,1,0,0,2.3128,optionRight,70,8045,4,22,0,22,0,1,,,,,,,,,,,,,,,,,,,,,,,,,,,,,,,,,,,,,,,
,,,,,,,638070625c26e262f2163254,2023-08-24_08h13.39.331,HF_wild_card,2022.2.4,Win32,40.08337342,638070625c26e262f2163254,64e63663dbcaf322d2eec8da,64e7030d2cef0e14468cfdd0,,,,,,,decisionTrl,resources/DY.BMP,resources/DBN.BMP,Door2,-0.334635417,-0.02734375,1,0,0,1.4876,optionLeft,40,8085,4,23,0,23,0,1,,,,,,,,,,,,,,,,,,,,,,,,,,,,,,,,,,,,,,,
,,,,,,,638070625c26e262f2163254,2023-08-24_08h13.39.331,HF_wild_card,2022.2.4,Win32,40.08337342,638070625c26e262f2163254,64e63663dbcaf322d2eec8da,64e7030d2cef0e14468cfdd0,,,,,,,decisionTrl,resources/DBN.BMP,resources/DB.BMP,WildCard_NonEx,0.348958333,-0.03515625,1,0,0,1.3921,optionRight,45,8130,4,24,0,24,0,1,,,,,,,,,,,,,,,,,,,,,,,,,,,,,,,,,,,,,,,
,,,,,,,638070625c26e262f2163254,2023-08-24_08h13.39.331,HF_wild_card,2022.2.4,Win32,40.08337342,638070625c26e262f2163254,64e63663dbcaf322d2eec8da,64e7030d2cef0e14468cfdd0,,,,,,,decisionTrl,resources/DB.BMP,resources/DG.BMP,Door3,0.373697917,-0.071614583,1,0,0,2.3407,optionRight,70,8200,4,25,0,25,0,1,,,,,,,,,,,,,,,,,,,,,,,,,,,,,,,,,,,,,,,
,,,,,,,638070625c26e262f2163254,2023-08-24_08h13.39.331,HF_wild_card,2022.2.4,Win32,40.08337342,638070625c26e262f2163254,64e63663dbcaf322d2eec8da,64e7030d2cef0e14468cfdd0,,,,,,,decisionTrl,resources/DBN.BMP,resources/DY.BMP,Door2,0.322916667,-0.111979167,1,0,0,2.1196,optionRight,40,8240,4,26,0,26,0,1,,,,,,,,,,,,,,,,,,,,,,,,,,,,,,,,,,,,,,,
,,,,,,,638070625c26e262f2163254,2023-08-24_08h13.39.331,HF_wild_card,2022.2.4,Win32,40.08337342,638070625c26e262f2163254,64e63663dbcaf322d2eec8da,64e7030d2cef0e14468cfdd0,,,,,,,sngl,resources/Empty.png,resources/DP.BMP,Door4,0.322916667,-0.057291667,1,0,0,1.0862,optionRight,80,8320,4,27,0,27,0,1,,,,,,,,,,,,,,,,,,,,,,,,,,,,,,,,,,,,,,,
,,,,,,,638070625c26e262f2163254,2023-08-24_08h13.39.331,HF_wild_card,2022.2.4,Win32,40.08337342,638070625c26e262f2163254,64e63663dbcaf322d2eec8da,64e7030d2cef0e14468cfdd0,,,,,,,decisionTrl,resources/DG.BMP,resources/DP.BMP,Door4,0.368489583,-0.049479167,1,0,0,2.1467,optionRight,60,8380,4,28,0,28,0,1,,,,,,,,,,,,,,,,,,,,,,,,,,,,,,,,,,,,,,,
,,,,,,,638070625c26e262f2163254,2023-08-24_08h13.39.331,HF_wild_card,2022.2.4,Win32,40.08337342,638070625c26e262f2163254,64e63663dbcaf322d2eec8da,64e7030d2cef0e14468cfdd0,,,,,,,ctch,resources/DG.BMP,resources/DY.BMP,Door3,-0.4140625,-0.041666667,1,0,0,1.4174,optionLeft,70,8450,4,29,0,29,0,1,,,,,,,,,,,,,,,,,,,,,,,,,,,,,,,,,,,,,,,
,,,,,,,638070625c26e262f2163254,2023-08-24_08h13.39.331,HF_wild_card,2022.2.4,Win32,40.08337342,638070625c26e262f2163254,64e63663dbcaf322d2eec8da,64e7030d2cef0e14468cfdd0,,,,,,,decisionTrl,resources/DBN.BMP,resources/DY.BMP,Door2,0.294270833,-0.044270833,1,0,0,1.5185,optionRight,40,8490,4,30,0,30,0,1,,,,,,,,,,,,,,,,,,,,,,,,,,,,,,,,,,,,,,,
,,,,,,,638070625c26e262f2163254,2023-08-24_08h13.39.331,HF_wild_card,2022.2.4,Win32,40.08337342,638070625c26e262f2163254,64e63663dbcaf322d2eec8da,64e7030d2cef0e14468cfdd0,,,,,,,decisionTrl,resources/DG.BMP,resources/DP.BMP,Door3,-0.2109375,-0.005208333,1,0,0,1.6676,optionLeft,70,8560,4,31,0,31,0,1,,,,,,,,,,,,,,,,,,,,,,,,,,,,,,,,,,,,,,,
,,,,,,,638070625c26e262f2163254,2023-08-24_08h13.39.331,HF_wild_card,2022.2.4,Win32,40.08337342,638070625c26e262f2163254,64e63663dbcaf322d2eec8da,64e7030d2cef0e14468cfdd0,,,,,,,decisionTrl,resources/DY.BMP,resources/DBN.BMP,Door2,-0.390625,-0.05859375,1,0,0,1.436,optionLeft,20,8580,4,32,0,32,0,1,,,,,,,,,,,,,,,,,,,,,,,,,,,,,,,,,,,,,,,
,,,,,,,638070625c26e262f2163254,2023-08-24_08h13.39.331,HF_wild_card,2022.2.4,Win32,40.08337342,638070625c26e262f2163254,64e63663dbcaf322d2eec8da,64e7030d2cef0e14468cfdd0,,,,,,,decisionTrl,resources/DP.BMP,resources/DG.BMP,Door3,0.28515625,0.002604167,1,0,0,1.3145,optionRight,70,8650,4,33,0,33,0,1,,,,,,,,,,,,,,,,,,,,,,,,,,,,,,,,,,,,,,,
,,,,,,,638070625c26e262f2163254,2023-08-24_08h13.39.331,HF_wild_card,2022.2.4,Win32,40.08337342,638070625c26e262f2163254,64e63663dbcaf322d2eec8da,64e7030d2cef0e14468cfdd0,,,,,,,decisionTrl,resources/DBN.BMP,resources/DY.BMP,Door2,0.376302083,-0.03125,1,0,0,1.2499,optionRight,20,8670,4,34,0,34,0,1,,,,,,,,,,,,,,,,,,,,,,,,,,,,,,,,,,,,,,,
,,,,,,,638070625c26e262f2163254,2023-08-24_08h13.39.331,HF_wild_card,2022.2.4,Win32,40.08337342,638070625c26e262f2163254,64e63663dbcaf322d2eec8da,64e7030d2cef0e14468cfdd0,,,,,,,ctch,resources/DY.BMP,resources/DG.BMP,Door3,0.493489583,-0.151041667,1,0,0,1.1945,optionRight,70,8740,4,35,0,35,0,1,,,,,,,,,,,,,,,,,,,,,,,,,,,,,,,,,,,,,,,
,,,,,,,638070625c26e262f2163254,2023-08-24_08h13.39.331,HF_wild_card,2022.2.4,Win32,40.08337342,638070625c26e262f2163254,64e63663dbcaf322d2eec8da,64e7030d2cef0e14468cfdd0,,,,,,,sngl,resources/Empty.png,resources/DY.BMP,Door2,0.440104167,-0.044270833,1,0,0,1.0141,optionRight,40,8780,4,36,0,36,0,1,,,,,,,,,,,,,,,,,,,,,,,,,,,,,,,,,,,,,,,
,,,,,,,638070625c26e262f2163254,2023-08-24_08h13.39.331,HF_wild_card,2022.2.4,Win32,40.08337342,638070625c26e262f2163254,64e63663dbcaf322d2eec8da,64e7030d2cef0e14468cfdd0,,,,,,,decisionTrl,resources/DG.BMP,resources/DP.BMP,Door4,0.41015625,-0.052083333,1,0,0,1.2641,optionRight,80,8860,4,37,0,37,0,1,,,,,,,,,,,,,,,,,,,,,,,,,,,,,,,,,,,,,,,
,,,,,,,638070625c26e262f2163254,2023-08-24_08h13.39.331,HF_wild_card,2022.2.4,Win32,40.08337342,638070625c26e262f2163254,64e63663dbcaf322d2eec8da,64e7030d2cef0e14468cfdd0,,,,,,,sngl,resources/DP.BMP,resources/Empty.png,Door4,-0.3671875,-0.0625,1,0,0,1.0473,optionLeft,60,8920,4,38,0,38,0,1,,,,,,,,,,,,,,,,,,,,,,,,,,,,,,,,,,,,,,,
,,,,,,,638070625c26e262f2163254,2023-08-24_08h13.39.331,HF_wild_card,2022.2.4,Win32,40.08337342,638070625c26e262f2163254,64e63663dbcaf322d2eec8da,64e7030d2cef0e14468cfdd0,,,,,,,decisionTrl,resources/DY.BMP,resources/DBN.BMP,Door2,-0.328125,-0.016927083,1,0,0,1.2907,optionLeft,20,8940,4,39,0,39,0,1,,,,,,,,,,,,,,,,,,,,,,,,,,,,,,,,,,,,,,,
,,,,,,,638070625c26e262f2163254,2023-08-24_08h13.39.331,HF_wild_card,2022.2.4,Win32,40.08337342,638070625c26e262f2163254,64e63663dbcaf322d2eec8da,64e7030d2cef0e14468cfdd0,,,,,,,ctch,resources/DBN.BMP,resources/DP.BMP,Door4,0.3515625,-0.048177083,1,0,0,1.8913,optionRight,60,9000,4,40,0,40,0,1,,,,,,,,,,,,,,,,,,,,,,,,,,,,,,,,,,,,,,,
,,,,,,,638070625c26e262f2163254,2023-08-24_08h13.39.331,HF_wild_card,2022.2.4,Win32,40.08337342,638070625c26e262f2163254,64e63663dbcaf322d2eec8da,64e7030d2cef0e14468cfdd0,,,,,,,sngl,resources/DB.BMP,resources/Empty.png,WildCard_NonEx,-0.376302083,-0.0703125,1,0,0,1.045,optionLeft,55,9055,4,41,0,41,0,1,,,,,,,,,,,,,,,,,,,,,,,,,,,,,,,,,,,,,,,
,,,,,,,638070625c26e262f2163254,2023-08-24_08h13.39.331,HF_wild_card,2022.2.4,Win32,40.08337342,638070625c26e262f2163254,64e63663dbcaf322d2eec8da,64e7030d2cef0e14468cfdd0,,,,,,,sngl,resources/Empty.png,resources/DG.BMP,Door3,0.44921875,-0.016927083,1,0,0,1.0381,optionRight,70,9125,4,42,0,42,0,1,,,,,,,,,,,,,,,,,,,,,,,,,,,,,,,,,,,,,,,
,,,,,,,638070625c26e262f2163254,2023-08-24_08h13.39.331,HF_wild_card,2022.2.4,Win32,40.08337342,638070625c26e262f2163254,64e63663dbcaf322d2eec8da,64e7030d2cef0e14468cfdd0,,,,,,,decisionTrl,resources/DBN.BMP,resources/DY.BMP,Door2,0.37109375,-0.053385417,1,0,0,1.2668,optionRight,20,9145,4,43,0,43,0,1,,,,,,,,,,,,,,,,,,,,,,,,,,,,,,,,,,,,,,,
,,,,,,,638070625c26e262f2163254,2023-08-24_08h13.39.331,HF_wild_card,2022.2.4,Win32,40.08337342,638070625c26e262f2163254,64e63663dbcaf322d2eec8da,64e7030d2cef0e14468cfdd0,,,,,,,,,,,,,,,,,,,,,,,,,,3,0,3,0,1,,,,,,,,,,,,,,,,,,,,,,,,,,,,,,,,,,
,,,,,,,638070625c26e262f2163254,2023-08-24_08h13.39.331,HF_wild_card,2022.2.4,Win32,40.08337342,638070625c26e262f2163254,64e63663dbcaf322d2eec8da,64e7030d2cef0e14468cfdd0,,,,,,,decisionTrl,resources/DBN.BMP,resources/DY.BMP,Door2,0.338541667,-0.111979167,1,0,0,1.1608,optionRight,40,9185,5,0,0,0,0,1,,,,,,,,,,,,,,,,,,,,,,,,,,,,,,,,,,,,,,,
,,,,,,,638070625c26e262f2163254,2023-08-24_08h13.39.331,HF_wild_card,2022.2.4,Win32,40.08337342,638070625c26e262f2163254,64e63663dbcaf322d2eec8da,64e7030d2cef0e14468cfdd0,,,,,,,ctch,resources/DG.BMP,resources/DY.BMP,Door3,-0.35546875,-0.037760417,1,0,0,1.1419,optionLeft,70,9255,5,1,0,1,0,1,,,,,,,,,,,,,,,,,,,,,,,,,,,,,,,,,,,,,,,
,,,,,,,638070625c26e262f2163254,2023-08-24_08h13.39.331,HF_wild_card,2022.2.4,Win32,40.08337342,638070625c26e262f2163254,64e63663dbcaf322d2eec8da,64e7030d2cef0e14468cfdd0,,,,,,,decisionTrl,resources/DBN.BMP,resources/DY.BMP,Door2,0.342447917,-0.106770833,1,0,0,1.0937,optionRight,20,9275,5,2,0,2,0,1,,,,,,,,,,,,,,,,,,,,,,,,,,,,,,,,,,,,,,,
,,,,,,,638070625c26e262f2163254,2023-08-24_08h13.39.331,HF_wild_card,2022.2.4,Win32,40.08337342,638070625c26e262f2163254,64e63663dbcaf322d2eec8da,64e7030d2cef0e14468cfdd0,,,,,,,sngl,resources/Empty.png,resources/DY.BMP,Door2,0.3203125,-0.041666667,1,0,0,0.9695,optionRight,20,9295,5,3,0,3,0,1,,,,,,,,,,,,,,,,,,,,,,,,,,,,,,,,,,,,,,,
,,,,,,,638070625c26e262f2163254,2023-08-24_08h13.39.331,HF_wild_card,2022.2.4,Win32,40.08337342,638070625c26e262f2163254,64e63663dbcaf322d2eec8da,64e7030d2cef0e14468cfdd0,,,,,,,decisionTrl,resources/DB.BMP,resources/DP.BMP,Door4,0.278645833,-0.096354167,1,0,0,1.4416,optionRight,60,9355,5,4,0,4,0,1,,,,,,,,,,,,,,,,,,,,,,,,,,,,,,,,,,,,,,,
,,,,,,,638070625c26e262f2163254,2023-08-24_08h13.39.331,HF_wild_card,2022.2.4,Win32,40.08337342,638070625c26e262f2163254,64e63663dbcaf322d2eec8da,64e7030d2cef0e14468cfdd0,,,,,,,decisionTrl,resources/DP.BMP,resources/DG.BMP,Door3,0.365885417,-0.0390625,1,0,0,1.2971,optionRight,70,9425,5,5,0,5,0,1,,,,,,,,,,,,,,,,,,,,,,,,,,,,,,,,,,,,,,,
,,,,,,,638070625c26e262f2163254,2023-08-24_08h13.39.331,HF_wild_card,2022.2.4,Win32,40.08337342,638070625c26e262f2163254,64e63663dbcaf322d2eec8da,64e7030d2cef0e14468cfdd0,,,,,,,decisionTrl,resources/DG.BMP,resources/DP.BMP,Door3,-0.31640625,-0.020833333,1,0,0,1.1734,optionLeft,70,9495,5,6,0,6,0,1,,,,,,,,,,,,,,,,,,,,,,,,,,,,,,,,,,,,,,,
,,,,,,,638070625c26e262f2163254,2023-08-24_08h13.39.331,HF_wild_card,2022.2.4,Win32,40.08337342,638070625c26e262f2163254,64e63663dbcaf322d2eec8da,64e7030d2cef0e14468cfdd0,,,,,,,sngl,resources/Empty.png,resources/DG.BMP,Door3,0.35546875,-0.032552083,1,0,0,1.0138,optionRight,70,9565,5,7,0,7,0,1,,,,,,,,,,,,,,,,,,,,,,,,,,,,,,,,,,,,,,,
,,,,,,,638070625c26e262f2163254,2023-08-24_08h13.39.331,HF_wild_card,2022.2.4,Win32,40.08337342,638070625c26e262f2163254,64e63663dbcaf322d2eec8da,64e7030d2cef0e14468cfdd0,,,,,,,ctch,resources/DP.BMP,resources/DBN.BMP,Door4,-0.458333333,-0.08203125,1,0,0,1.0454,optionLeft,60,9625,5,8,0,8,0,1,,,,,,,,,,,,,,,,,,,,,,,,,,,,,,,,,,,,,,,
,,,,,,,638070625c26e262f2163254,2023-08-24_08h13.39.331,HF_wild_card,2022.2.4,Win32,40.08337342,638070625c26e262f2163254,64e63663dbcaf322d2eec8da,64e7030d2cef0e14468cfdd0,,,,,,,decisionTrl,resources/DBN.BMP,resources/DY.BMP,Door2,0.342447917,-0.05078125,1,0,0,1.0711,optionRight,20,9645,5,9,0,9,0,1,,,,,,,,,,,,,,,,,,,,,,,,,,,,,,,,,,,,,,,
,,,,,,,638070625c26e262f2163254,2023-08-24_08h13.39.331,HF_wild_card,2022.2.4,Win32,40.08337342,638070625c26e262f2163254,64e63663dbcaf322d2eec8da,64e7030d2cef0e14468cfdd0,,,,,,,decisionTrl,resources/DB.BMP,resources/DBN.BMP,WildCard_NonEx,-0.42578125,-0.1015625,1,0,0,1.3649,optionLeft,45,9690,5,10,0,10,0,1,,,,,,,,,,,,,,,,,,,,,,,,,,,,,,,,,,,,,,,
,,,,,,,638070625c26e262f2163254,2023-08-24_08h13.39.331,HF_wild_card,2022.2.4,Win32,40.08337342,638070625c26e262f2163254,64e63663dbcaf322d2eec8da,64e7030d2cef0e14468cfdd0,,,,,,,decisionTrl,resources/DY.BMP,resources/DBN.BMP,Door2,-0.290364583,-0.018229167,1,0,0,1.6907,optionLeft,40,9730,5,11,0,11,0,1,,,,,,,,,,,,,,,,,,,,,,,,,,,,,,,,,,,,,,,
,,,,,,,638070625c26e262f2163254,2023-08-24_08h13.39.331,HF_wild_card,2022.2.4,Win32,40.08337342,638070625c26e262f2163254,64e63663dbcaf322d2eec8da,64e7030d2cef0e14468cfdd0,,,,,,,ctch,resources/DY.BMP,resources/DG.BMP,Door3,0.346354167,-0.069010417,1,0,0,1.3394,optionRight,70,9800,5,12,0,12,0,1,,,,,,,,,,,,,,,,,,,,,,,,,,,,,,,,,,,,,,,
,,,,,,,638070625c26e262f2163254,2023-08-24_08h13.39.331,HF_wild_card,2022.2.4,Win32,40.08337342,638070625c26e262f2163254,64e63663dbcaf322d2eec8da,64e7030d2cef0e14468cfdd0,,,,,,,decisionTrl,resources/DP.BMP,resources/DG.BMP,Door3,0.361979167,0.00390625,1,0,0,0.9407,optionRight,70,9870,5,13,0,13,0,1,,,,,,,,,,,,,,,,,,,,,,,,,,,,,,,,,,,,,,,
,,,,,,,638070625c26e262f2163254,2023-08-24_08h13.39.331,HF_wild_card,2022.2.4,Win32,40.08337342,638070625c26e262f2163254,64e63663dbcaf322d2eec8da,64e7030d2cef0e14468cfdd0,,,,,,,decisionTrl,resources/DP.BMP,resources/DB.BMP,Door4,-0.31640625,-0.07421875,1,0,0,2.0557,optionLeft,60,9930,5,14,0,14,0,1,,,,,,,,,,,,,,,,,,,,,,,,,,,,,,,,,,,,,,,
,,,,,,,638070625c26e262f2163254,2023-08-24_08h13.39.331,HF_wild_card,2022.2.4,Win32,40.08337342,638070625c26e262f2163254,64e63663dbcaf322d2eec8da,64e7030d2cef0e14468cfdd0,,,,,,,decisionTrl,resources/DY.BMP,resources/DBN.BMP,Door1,0.278645833,-0.079427083,1,0,0,1.67,optionRight,30,9960,5,15,0,15,0,1,,,,,,,,,,,,,,,,,,,,,,,,,,,,,,,,,,,,,,,
,,,,,,,638070625c26e262f2163254,2023-08-24_08h13.39.331,HF_wild_card,2022.2.4,Win32,40.08337342,638070625c26e262f2163254,64e63663dbcaf322d2eec8da,64e7030d2cef0e14468cfdd0,,,,,,,ctch,resources/DG.BMP,resources/DY.BMP,Door3,-0.21875,-0.02734375,1,0,0,1.1369,optionLeft,70,10030,5,16,0,16,0,1,,,,,,,,,,,,,,,,,,,,,,,,,,,,,,,,,,,,,,,
,,,,,,,638070625c26e262f2163254,2023-08-24_08h13.39.331,HF_wild_card,2022.2.4,Win32,40.08337342,638070625c26e262f2163254,64e63663dbcaf322d2eec8da,64e7030d2cef0e14468cfdd0,,,,,,,sngl,resources/DG.BMP,resources/Empty.png,Door3,-0.31640625,0.04296875,1,0,0,0.9725,optionLeft,70,10100,5,17,0,17,0,1,,,,,,,,,,,,,,,,,,,,,,,,,,,,,,,,,,,,,,,
,,,,,,,638070625c26e262f2163254,2023-08-24_08h13.39.331,HF_wild_card,2022.2.4,Win32,40.08337342,638070625c26e262f2163254,64e63663dbcaf322d2eec8da,64e7030d2cef0e14468cfdd0,,,,,,,sngl,resources/Empty.png,resources/DB.BMP,WildCard_NonEx,0.446614583,-0.110677083,1,0,0,1.1182,optionRight,45,10145,5,18,0,18,0,1,,,,,,,,,,,,,,,,,,,,,,,,,,,,,,,,,,,,,,,
,,,,,,,638070625c26e262f2163254,2023-08-24_08h13.39.331,HF_wild_card,2022.2.4,Win32,40.08337342,638070625c26e262f2163254,64e63663dbcaf322d2eec8da,64e7030d2cef0e14468cfdd0,,,,,,,ctch,resources/DP.BMP,resources/DBN.BMP,Door1,0.252604167,-0.016927083,1,0,0,1.5149,optionRight,30,10175,5,19,0,19,0,1,,,,,,,,,,,,,,,,,,,,,,,,,,,,,,,,,,,,,,,
,,,,,,,638070625c26e262f2163254,2023-08-24_08h13.39.331,HF_wild_card,2022.2.4,Win32,40.08337342,638070625c26e262f2163254,64e63663dbcaf322d2eec8da,64e7030d2cef0e14468cfdd0,,,,,,,decisionTrl,resources/DG.BMP,resources/DP.BMP,Door3,-0.330729167,-0.029947917,1,0,0,1.1405,optionLeft,70,10245,5,20,0,20,0,1,,,,,,,,,,,,,,,,,,,,,,,,,,,,,,,,,,,,,,,
,,,,,,,638070625c26e262f2163254,2023-08-24_08h13.39.331,HF_wild_card,2022.2.4,Win32,40.08337342,638070625c26e262f2163254,64e63663dbcaf322d2eec8da,64e7030d2cef0e14468cfdd0,,,,,,,decisionTrl,resources/DY.BMP,resources/DBN.BMP,Door2,-0.274739583,0.013020833,1,0,0,1.7675,optionLeft,40,10285,5,21,0,21,0,1,,,,,,,,,,,,,,,,,,,,,,,,,,,,,,,,,,,,,,,
,,,,,,,638070625c26e262f2163254,2023-08-24_08h13.39.331,HF_wild_card,2022.2.4,Win32,40.08337342,638070625c26e262f2163254,64e63663dbcaf322d2eec8da,64e7030d2cef0e14468cfdd0,,,,,,,sngl,resources/Empty.png,resources/DBN.BMP,Door1,0.34765625,-0.02734375,1,0,0,1.0207,optionRight,30,10315,5,22,0,22,0,1,,,,,,,,,,,,,,,,,,,,,,,,,,,,,,,,,,,,,,,
,,,,,,,638070625c26e262f2163254,2023-08-24_08h13.39.331,HF_wild_card,2022.2.4,Win32,40.08337342,638070625c26e262f2163254,64e63663dbcaf322d2eec8da,64e7030d2cef0e14468cfdd0,,,,,,,decisionTrl,resources/DG.BMP,resources/DB.BMP,Door3,-0.217447917,-0.006510417,1,0,0,1.497,optionLeft,70,10385,5,23,0,23,0,1,,,,,,,,,,,,,,,,,,,,,,,,,,,,,,,,,,,,,,,
,,,,,,,638070625c26e262f2163254,2023-08-24_08h13.39.331,HF_wild_card,2022.2.4,Win32,40.08337342,638070625c26e262f2163254,64e63663dbcaf322d2eec8da,64e7030d2cef0e14468cfdd0,,,,,,,ctch,resources/DBN.BMP,resources/DP.BMP,Door4,0.309895833,-0.029947917,1,0,0,1.2639,optionRight,60,10445,5,24,0,24,0,1,,,,,,,,,,,,,,,,,,,,,,,,,,,,,,,,,,,,,,,
,,,,,,,638070625c26e262f2163254,2023-08-24_08h13.39.331,HF_wild_card,2022.2.4,Win32,40.08337342,638070625c26e262f2163254,64e63663dbcaf322d2eec8da,64e7030d2cef0e14468cfdd0,,,,,,,decisionTrl,resources/DB.BMP,resources/DY.BMP,WildCard_NonEx,-0.18359375,-0.01953125,1,0,0,2.0695,optionLeft,55,10500,5,25,0,25,0,1,,,,,,,,,,,,,,,,,,,,,,,,,,,,,,,,,,,,,,,
,,,,,,,638070625c26e262f2163254,2023-08-24_08h13.39.331,HF_wild_card,2022.2.4,Win32,40.08337342,638070625c26e262f2163254,64e63663dbcaf322d2eec8da,64e7030d2cef0e14468cfdd0,,,,,,,sngl,resources/Empty.png,resources/DB.BMP,WildCard_NonEx,0.263020833,-0.072916667,1,0,0,0.9417,optionRight,55,10555,5,26,0,26,0,1,,,,,,,,,,,,,,,,,,,,,,,,,,,,,,,,,,,,,,,
,,,,,,,638070625c26e262f2163254,2023-08-24_08h13.39.331,HF_wild_card,2022.2.4,Win32,40.08337342,638070625c26e262f2163254,64e63663dbcaf322d2eec8da,64e7030d2cef0e14468cfdd0,,,,,,,decisionTrl,resources/DY.BMP,resources/DB.BMP,WildCard_NonEx,0.259114583,-0.0546875,1,0,0,2.0703,optionRight,45,10600,5,27,0,27,0,1,,,,,,,,,,,,,,,,,,,,,,,,,,,,,,,,,,,,,,,
,,,,,,,638070625c26e262f2163254,2023-08-24_08h13.39.331,HF_wild_card,2022.2.4,Win32,40.08337342,638070625c26e262f2163254,64e63663dbcaf322d2eec8da,64e7030d2cef0e14468cfdd0,,,,,,,sngl,resources/Empty.png,resources/DP.BMP,Door4,0.427083333,-0.03515625,1,0,0,1.038,optionRight,60,10660,5,28,0,28,0,1,,,,,,,,,,,,,,,,,,,,,,,,,,,,,,,,,,,,,,,
,,,,,,,638070625c26e262f2163254,2023-08-24_08h13.39.331,HF_wild_card,2022.2.4,Win32,40.08337342,638070625c26e262f2163254,64e63663dbcaf322d2eec8da,64e7030d2cef0e14468cfdd0,,,,,,,decisionTrl,resources/DBN.BMP,resources/DB.BMP,WildCard_NonEx,0.2890625,-0.029947917,1,0,0,1.1484,optionRight,55,10715,5,29,0,29,0,1,,,,,,,,,,,,,,,,,,,,,,,,,,,,,,,,,,,,,,,
,,,,,,,638070625c26e262f2163254,2023-08-24_08h13.39.331,HF_wild_card,2022.2.4,Win32,40.08337342,638070625c26e262f2163254,64e63663dbcaf322d2eec8da,64e7030d2cef0e14468cfdd0,,,,,,,sngl,resources/DB.BMP,resources/Empty.png,WildCard_NonEx,-0.290364583,-0.026041667,1,0,0,1.0697,optionLeft,55,10770,5,30,0,30,0,1,,,,,,,,,,,,,,,,,,,,,,,,,,,,,,,,,,,,,,,
,,,,,,,638070625c26e262f2163254,2023-08-24_08h13.39.331,HF_wild_card,2022.2.4,Win32,40.08337342,638070625c26e262f2163254,64e63663dbcaf322d2eec8da,64e7030d2cef0e14468cfdd0,,,,,,,decisionTrl,resources/DG.BMP,resources/DP.BMP,Door3,-0.291666667,-0.063802083,1,0,0,1.1177,optionLeft,70,10840,5,31,0,31,0,1,,,,,,,,,,,,,,,,,,,,,,,,,,,,,,,,,,,,,,,
,,,,,,,638070625c26e262f2163254,2023-08-24_08h13.39.331,HF_wild_card,2022.2.4,Win32,40.08337342,638070625c26e262f2163254,64e63663dbcaf322d2eec8da,64e7030d2cef0e14468cfdd0,,,,,,,ctch,resources/DY.BMP,resources/DG.BMP,Door3,0.346354167,-0.040364583,1,0,0,1.2468,optionRight,70,10910,5,32,0,32,0,1,,,,,,,,,,,,,,,,,,,,,,,,,,,,,,,,,,,,,,,
,,,,,,,638070625c26e262f2163254,2023-08-24_08h13.39.331,HF_wild_card,2022.2.4,Win32,40.08337342,638070625c26e262f2163254,64e63663dbcaf322d2eec8da,64e7030d2cef0e14468cfdd0,,,,,,,decisionTrl,resources/DBN.BMP,resources/DY.BMP,Door2,0.33984375,-0.045572917,1,0,0,1.247,optionRight,40,10950,5,33,0,33,0,1,,,,,,,,,,,,,,,,,,,,,,,,,,,,,,,,,,,,,,,
,,,,,,,638070625c26e262f2163254,2023-08-24_08h13.39.331,HF_wild_card,2022.2.4,Win32,40.08337342,638070625c26e262f2163254,64e63663dbcaf322d2eec8da,64e7030d2cef0e14468cfdd0,,,,,,,sngl,resources/DY.BMP,resources/Empty.png,Door2,-0.35546875,-0.018229167,1,0,0,1.0372,optionLeft,40,10990,5,34,0,34,0,1,,,,,,,,,,,,,,,,,,,,,,,,,,,,,,,,,,,,,,,
,,,,,,,638070625c26e262f2163254,2023-08-24_08h13.39.331,HF_wild_card,2022.2.4,Win32,40.08337342,638070625c26e262f2163254,64e63663dbcaf322d2eec8da,64e7030d2cef0e14468cfdd0,,,,,,,decisionTrl,resources/DB.BMP,resources/DG.BMP,Door3,0.342447917,-0.03515625,1,0,0,1.1911,optionRight,70,11060,5,35,0,35,0,1,,,,,,,,,,,,,,,,,,,,,,,,,,,,,,,,,,,,,,,
,,,,,,,638070625c26e262f2163254,2023-08-24_08h13.39.331,HF_wild_card,2022.2.4,Win32,40.08337342,638070625c26e262f2163254,64e63663dbcaf322d2eec8da,64e7030d2cef0e14468cfdd0,,,,,,,sngl,resources/DB.BMP,resources/Empty.png,WildCard_NonEx,-0.321614583,-0.015625,1,0,0,1.0384,optionLeft,45,11105,5,36,0,36,0,1,,,,,,,,,,,,,,,,,,,,,,,,,,,,,,,,,,,,,,,
,,,,,,,638070625c26e262f2163254,2023-08-24_08h13.39.331,HF_wild_card,2022.2.4,Win32,40.08337342,638070625c26e262f2163254,64e63663dbcaf322d2eec8da,64e7030d2cef0e14468cfdd0,,,,,,,ctch,resources/DBN.BMP,resources/DP.BMP,Door4,0.287760417,-0.045572917,1,0,0,1.3874,optionRight,80,11185,5,37,0,37,0,1,,,,,,,,,,,,,,,,,,,,,,,,,,,,,,,,,,,,,,,
,,,,,,,638070625c26e262f2163254,2023-08-24_08h13.39.331,HF_wild_card,2022.2.4,Win32,40.08337342,638070625c26e262f2163254,64e63663dbcaf322d2eec8da,64e7030d2cef0e14468cfdd0,,,,,,,decisionTrl,resources/DP.BMP,resources/DG.BMP,Door3,0.319010417,-0.104166667,1,0,0,2.9155,optionRight,70,11255,5,38,0,38,0,1,,,,,,,,,,,,,,,,,,,,,,,,,,,,,,,,,,,,,,,
,,,,,,,638070625c26e262f2163254,2023-08-24_08h13.39.331,HF_wild_card,2022.2.4,Win32,40.08337342,638070625c26e262f2163254,64e63663dbcaf322d2eec8da,64e7030d2cef0e14468cfdd0,,,,,,,decisionTrl,resources/DP.BMP,resources/DG.BMP,Door3,0.270833333,-0.028645833,1,0,0,1.5152,optionRight,70,11325,5,39,0,39,0,1,,,,,,,,,,,,,,,,,,,,,,,,,,,,,,,,,,,,,,,
,,,,,,,638070625c26e262f2163254,2023-08-24_08h13.39.331,HF_wild_card,2022.2.4,Win32,40.08337342,638070625c26e262f2163254,64e63663dbcaf322d2eec8da,64e7030d2cef0e14468cfdd0,,,,,,,sngl,resources/DBN.BMP,resources/Empty.png,Door1,-0.401041667,0.001302083,1,0,0,1.8242,optionLeft,30,11355,5,40,0,40,0,1,,,,,,,,,,,,,,,,,,,,,,,,,,,,,,,,,,,,,,,
,,,,,,,638070625c26e262f2163254,2023-08-24_08h13.39.331,HF_wild_card,2022.2.4,Win32,40.08337342,638070625c26e262f2163254,64e63663dbcaf322d2eec8da,64e7030d2cef0e14468cfdd0,,,,,,,decisionTrl,resources/DY.BMP,resources/DBN.BMP,Door2,-0.299479167,-0.049479167,1,0,0,1.2936,optionLeft,20,11375,5,41,0,41,0,1,,,,,,,,,,,,,,,,,,,,,,,,,,,,,,,,,,,,,,,
,,,,,,,638070625c26e262f2163254,2023-08-24_08h13.39.331,HF_wild_card,2022.2.4,Win32,40.08337342,638070625c26e262f2163254,64e63663dbcaf322d2eec8da,64e7030d2cef0e14468cfdd0,,,,,,,sngl,resources/DP.BMP,resources/Empty.png,Door4,-0.279947917,-0.006510417,1,0,0,1.0713,optionLeft,80,11455,5,42,0,42,0,1,,,,,,,,,,,,,,,,,,,,,,,,,,,,,,,,,,,,,,,
,,,,,,,638070625c26e262f2163254,2023-08-24_08h13.39.331,HF_wild_card,2022.2.4,Win32,40.08337342,638070625c26e262f2163254,64e63663dbcaf322d2eec8da,64e7030d2cef0e14468cfdd0,,,,,,,decisionTrl,resources/DG.BMP,resources/DP.BMP,Door3,-0.278645833,0.072916667,1,0,0,2.4417,optionLeft,70,11525,5,43,0,43,0,1,,,,,,,,,,,,,,,,,,,,,,,,,,,,,,,,,,,,,,,
,,,,,,,638070625c26e262f2163254,2023-08-24_08h13.39.331,HF_wild_card,2022.2.4,Win32,40.08337342,638070625c26e262f2163254,64e63663dbcaf322d2eec8da,64e7030d2cef0e14468cfdd0,,,,,,,,,,,,,,,,,,,,,,,,,,4,0,4,0,1,,,,,,,,,,,,,,,,,,,,,,,,,,,,,,,,,,
,,,,,,,638070625c26e262f2163254,2023-08-24_08h13.39.331,HF_wild_card,2022.2.4,Win32,40.08337342,638070625c26e262f2163254,64e63663dbcaf322d2eec8da,64e7030d2cef0e14468cfdd0,,,,,,,sngl,resources/DY.BMP,resources/Empty.png,Door2,-0.321614583,-0.12890625,1,0,0,1.3999,optionLeft,20,11545,6,0,0,0,0,1,,,,,,,,,,,,,,,,,,,,,,,,,,,,,,,,,,,,,,,
,,,,,,,638070625c26e262f2163254,2023-08-24_08h13.39.331,HF_wild_card,2022.2.4,Win32,40.08337342,638070625c26e262f2163254,64e63663dbcaf322d2eec8da,64e7030d2cef0e14468cfdd0,,,,,,,decisionTrl,resources/DP.BMP,resources/DB.BMP,Door4,-0.217447917,-0.016927083,1,0,0,1.5698,optionLeft,80,11625,6,1,0,1,0,1,,,,,,,,,,,,,,,,,,,,,,,,,,,,,,,,,,,,,,,
,,,,,,,638070625c26e262f2163254,2023-08-24_08h13.39.331,HF_wild_card,2022.2.4,Win32,40.08337342,638070625c26e262f2163254,64e63663dbcaf322d2eec8da,64e7030d2cef0e14468cfdd0,,,,,,,decisionTrl,resources/DP.BMP,resources/DG.BMP,Door3,0.326822917,-0.022135417,1,0,0,1.7401,optionRight,70,11695,6,2,0,2,0,1,,,,,,,,,,,,,,,,,,,,,,,,,,,,,,,,,,,,,,,
,,,,,,,638070625c26e262f2163254,2023-08-24_08h13.39.331,HF_wild_card,2022.2.4,Win32,40.08337342,638070625c26e262f2163254,64e63663dbcaf322d2eec8da,64e7030d2cef0e14468cfdd0,,,,,,,decisionTrl,resources/DG.BMP,resources/DP.BMP,Door3,-0.21875,0.006510417,1,0,0,1.4991,optionLeft,70,11765,6,3,0,3,0,1,,,,,,,,,,,,,,,,,,,,,,,,,,,,,,,,,,,,,,,
,,,,,,,638070625c26e262f2163254,2023-08-24_08h13.39.331,HF_wild_card,2022.2.4,Win32,40.08337342,638070625c26e262f2163254,64e63663dbcaf322d2eec8da,64e7030d2cef0e14468cfdd0,,,,,,,decisionTrl,resources/DBN.BMP,resources/DY.BMP,Door1,-0.3515625,-0.00390625,1,0,0,1.8445,optionLeft,30,11795,6,4,0,4,0,1,,,,,,,,,,,,,,,,,,,,,,,,,,,,,,,,,,,,,,,
,,,,,,,638070625c26e262f2163254,2023-08-24_08h13.39.331,HF_wild_card,2022.2.4,Win32,40.08337342,638070625c26e262f2163254,64e63663dbcaf322d2eec8da,64e7030d2cef0e14468cfdd0,,,,,,,decisionTrl,resources/DG.BMP,resources/DP.BMP,Door4,0.3203125,-0.041666667,1,0,0,2.0558,optionRight,80,11875,6,5,0,5,0,1,,,,,,,,,,,,,,,,,,,,,,,,,,,,,,,,,,,,,,,
,,,,,,,638070625c26e262f2163254,2023-08-24_08h13.39.331,HF_wild_card,2022.2.4,Win32,40.08337342,638070625c26e262f2163254,64e63663dbcaf322d2eec8da,64e7030d2cef0e14468cfdd0,,,,,,,decisionTrl,resources/DB.BMP,resources/DG.BMP,Door3,0.41015625,0.010416667,1,0,0,1.8399,optionRight,70,11945,6,6,0,6,0,1,,,,,,,,,,,,,,,,,,,,,,,,,,,,,,,,,,,,,,,
,,,,,,,638070625c26e262f2163254,2023-08-24_08h13.39.331,HF_wild_card,2022.2.4,Win32,40.08337342,638070625c26e262f2163254,64e63663dbcaf322d2eec8da,64e7030d2cef0e14468cfdd0,,,,,,,ctch,resources/DG.BMP,resources/DY.BMP,Door3,-0.346354167,-0.0234375,1,0,0,1.4866,optionLeft,70,12015,6,7,0,7,0,1,,,,,,,,,,,,,,,,,,,,,,,,,,,,,,,,,,,,,,,
,,,,,,,638070625c26e262f2163254,2023-08-24_08h13.39.331,HF_wild_card,2022.2.4,Win32,40.08337342,638070625c26e262f2163254,64e63663dbcaf322d2eec8da,64e7030d2cef0e14468cfdd0,,,,,,,ctch,resources/DG.BMP,resources/DY.BMP,Door3,-0.401041667,-0.018229167,1,0,0,1.1171,optionLeft,70,12085,6,8,0,8,0,1,,,,,,,,,,,,,,,,,,,,,,,,,,,,,,,,,,,,,,,
,,,,,,,638070625c26e262f2163254,2023-08-24_08h13.39.331,HF_wild_card,2022.2.4,Win32,40.08337342,638070625c26e262f2163254,64e63663dbcaf322d2eec8da,64e7030d2cef0e14468cfdd0,,,,,,,sngl,resources/Empty.png,resources/DB.BMP,WildCard_NonEx,0.342447917,-0.044270833,1,0,0,1.129,optionRight,55,12140,6,9,0,9,0,1,,,,,,,,,,,,,,,,,,,,,,,,,,,,,,,,,,,,,,,
,,,,,,,638070625c26e262f2163254,2023-08-24_08h13.39.331,HF_wild_card,2022.2.4,Win32,40.08337342,638070625c26e262f2163254,64e63663dbcaf322d2eec8da,64e7030d2cef0e14468cfdd0,,,,,,,decisionTrl,resources/DG.BMP,resources/DB.BMP,Door3,-0.19921875,-0.01171875,1,0,0,1.1171,optionLeft,70,12210,6,10,0,10,0,1,,,,,,,,,,,,,,,,,,,,,,,,,,,,,,,,,,,,,,,
,,,,,,,638070625c26e262f2163254,2023-08-24_08h13.39.331,HF_wild_card,2022.2.4,Win32,40.08337342,638070625c26e262f2163254,64e63663dbcaf322d2eec8da,64e7030d2cef0e14468cfdd0,,,,,,,decisionTrl,resources/DB.BMP,resources/DY.BMP,WildCard_NonEx,-0.2890625,-0.00390625,1,0,0,1.6607,optionLeft,45,12255,6,11,0,11,0,1,,,,,,,,,,,,,,,,,,,,,,,,,,,,,,,,,,,,,,,
,,,,,,,638070625c26e262f2163254,2023-08-24_08h13.39.331,HF_wild_card,2022.2.4,Win32,40.08337342,638070625c26e262f2163254,64e63663dbcaf322d2eec8da,64e7030d2cef0e14468cfdd0,,,,,,,sngl,resources/DB.BMP,resources/Empty.png,WildCard_NonEx,-0.31640625,-0.020833333,1,0,0,1.0483,optionLeft,55,12310,6,12,0,12,0,1,,,,,,,,,,,,,,,,,,,,,,,,,,,,,,,,,,,,,,,
,,,,,,,638070625c26e262f2163254,2023-08-24_08h13.39.331,HF_wild_card,2022.2.4,Win32,40.08337342,638070625c26e262f2163254,64e63663dbcaf322d2eec8da,64e7030d2cef0e14468cfdd0,,,,,,,ctch,resources/DBN.BMP,resources/DP.BMP,Door4,0.385416667,-0.049479167,1,0,0,1.4221,optionRight,60,12370,6,13,0,13,0,1,,,,,,,,,,,,,,,,,,,,,,,,,,,,,,,,,,,,,,,
,,,,,,,638070625c26e262f2163254,2023-08-24_08h13.39.331,HF_wild_card,2022.2.4,Win32,40.08337342,638070625c26e262f2163254,64e63663dbcaf322d2eec8da,64e7030d2cef0e14468cfdd0,,,,,,,decisionTrl,resources/DG.BMP,resources/DP.BMP,Door3,-0.313802083,-0.032552083,1,0,0,1.3128,optionLeft,70,12440,6,14,0,14,0,1,,,,,,,,,,,,,,,,,,,,,,,,,,,,,,,,,,,,,,,
,,,,,,,638070625c26e262f2163254,2023-08-24_08h13.39.331,HF_wild_card,2022.2.4,Win32,40.08337342,638070625c26e262f2163254,64e63663dbcaf322d2eec8da,64e7030d2cef0e14468cfdd0,,,,,,,decisionTrl,resources/DP.BMP,resources/DG.BMP,Door3,0.364583333,-0.05859375,1,0,0,2.0195,optionRight,70,12510,6,15,0,15,0,1,,,,,,,,,,,,,,,,,,,,,,,,,,,,,,,,,,,,,,,
,,,,,,,638070625c26e262f2163254,2023-08-24_08h13.39.331,HF_wild_card,2022.2.4,Win32,40.08337342,638070625c26e262f2163254,64e63663dbcaf322d2eec8da,64e7030d2cef0e14468cfdd0,,,,,,,decisionTrl,resources/DB.BMP,resources/DBN.BMP,WildCard_NonEx,-0.265625,-0.040364583,1,0,0,1.4327,optionLeft,55,12565,6,16,0,16,0,1,,,,,,,,,,,,,,,,,,,,,,,,,,,,,,,,,,,,,,,
,,,,,,,638070625c26e262f2163254,2023-08-24_08h13.39.331,HF_wild_card,2022.2.4,Win32,40.08337342,638070625c26e262f2163254,64e63663dbcaf322d2eec8da,64e7030d2cef0e14468cfdd0,,,,,,,sngl,resources/Empty.png,resources/DP.BMP,Door4,0.42578125,-0.01953125,1,0,0,1.0188,optionRight,80,12645,6,17,0,17,0,1,,,,,,,,,,,,,,,,,,,,,,,,,,,,,,,,,,,,,,,
,,,,,,,638070625c26e262f2163254,2023-08-24_08h13.39.331,HF_wild_card,2022.2.4,Win32,40.08337342,638070625c26e262f2163254,64e63663dbcaf322d2eec8da,64e7030d2cef0e14468cfdd0,,,,,,,decisionTrl,resources/DY.BMP,resources/DBN.BMP,Door1,0.352864583,-0.084635417,1,0,0,1.9456,optionRight,30,12675,6,18,0,18,0,1,,,,,,,,,,,,,,,,,,,,,,,,,,,,,,,,,,,,,,,
,,,,,,,638070625c26e262f2163254,2023-08-24_08h13.39.331,HF_wild_card,2022.2.4,Win32,40.08337342,638070625c26e262f2163254,64e63663dbcaf322d2eec8da,64e7030d2cef0e14468cfdd0,,,,,,,decisionTrl,resources/DB.BMP,resources/DP.BMP,Door4,0.380208333,-0.1015625,1,0,0,1.3915,optionRight,80,12755,6,19,0,19,0,1,,,,,,,,,,,,,,,,,,,,,,,,,,,,,,,,,,,,,,,
,,,,,,,638070625c26e262f2163254,2023-08-24_08h13.39.331,HF_wild_card,2022.2.4,Win32,40.08337342,638070625c26e262f2163254,64e63663dbcaf322d2eec8da,64e7030d2cef0e14468cfdd0,,,,,,,sngl,resources/Empty.png,resources/DY.BMP,Door2,0.276041667,-0.041666667,1,0,0,1.0646,optionRight,40,12795,6,20,0,20,0,1,,,,,,,,,,,,,,,,,,,,,,,,,,,,,,,,,,,,,,,
,,,,,,,638070625c26e262f2163254,2023-08-24_08h13.39.331,HF_wild_card,2022.2.4,Win32,40.08337342,638070625c26e262f2163254,64e63663dbcaf322d2eec8da,64e7030d2cef0e14468cfdd0,,,,,,,decisionTrl,resources/DY.BMP,resources/DBN.BMP,Door2,-0.2734375,-0.016927083,1,0,0,1.667,optionLeft,20,12815,6,21,0,21,0,1,,,,,,,,,,,,,,,,,,,,,,,,,,,,,,,,,,,,,,,
,,,,,,,638070625c26e262f2163254,2023-08-24_08h13.39.331,HF_wild_card,2022.2.4,Win32,40.08337342,638070625c26e262f2163254,64e63663dbcaf322d2eec8da,64e7030d2cef0e14468cfdd0,,,,,,,ctch,resources/DY.BMP,resources/DG.BMP,Door3,0.317708333,-0.065104167,1,0,0,1.1703,optionRight,70,12885,6,22,0,22,0,1,,,,,,,,,,,,,,,,,,,,,,,,,,,,,,,,,,,,,,,
,,,,,,,638070625c26e262f2163254,2023-08-24_08h13.39.331,HF_wild_card,2022.2.4,Win32,40.08337342,638070625c26e262f2163254,64e63663dbcaf322d2eec8da,64e7030d2cef0e14468cfdd0,,,,,,,decisionTrl,resources/DY.BMP,resources/DBN.BMP,Door2,-0.260416667,0.01171875,1,0,0,1.4527,optionLeft,40,12925,6,23,0,23,0,1,,,,,,,,,,,,,,,,,,,,,,,,,,,,,,,,,,,,,,,
,,,,,,,638070625c26e262f2163254,2023-08-24_08h13.39.331,HF_wild_card,2022.2.4,Win32,40.08337342,638070625c26e262f2163254,64e63663dbcaf322d2eec8da,64e7030d2cef0e14468cfdd0,,,,,,,sngl,resources/Empty.png,resources/DB.BMP,WildCard_NonEx,0.389322917,-0.087239583,1,0,0,1.0676,optionRight,45,12970,6,24,0,24,0,1,,,,,,,,,,,,,,,,,,,,,,,,,,,,,,,,,,,,,,,
,,,,,,,638070625c26e262f2163254,2023-08-24_08h13.39.331,HF_wild_card,2022.2.4,Win32,40.08337342,638070625c26e262f2163254,64e63663dbcaf322d2eec8da,64e7030d2cef0e14468cfdd0,,,,,,,sngl,resources/DBN.BMP,resources/Empty.png,Door1,-0.282552083,0.001302083,1,0,0,1.6527,optionLeft,30,13000,6,25,0,25,0,1,,,,,,,,,,,,,,,,,,,,,,,,,,,,,,,,,,,,,,,
,,,,,,,638070625c26e262f2163254,2023-08-24_08h13.39.331,HF_wild_card,2022.2.4,Win32,40.08337342,638070625c26e262f2163254,64e63663dbcaf322d2eec8da,64e7030d2cef0e14468cfdd0,,,,,,,sngl,resources/Empty.png,resources/DBN.BMP,Door1,0.325520833,-0.076822917,1,0,0,1.0612,optionRight,30,13030,6,26,0,26,0,1,,,,,,,,,,,,,,,,,,,,,,,,,,,,,,,,,,,,,,,
,,,,,,,638070625c26e262f2163254,2023-08-24_08h13.39.331,HF_wild_card,2022.2.4,Win32,40.08337342,638070625c26e262f2163254,64e63663dbcaf322d2eec8da,64e7030d2cef0e14468cfdd0,,,,,,,sngl,resources/DP.BMP,resources/Empty.png,Door4,-0.0078125,0.015625,1,0,0,0.2968,optionLeft,60,13090,6,27,0,27,0,1,,,,,,,,,,,,,,,,,,,,,,,,,,,,,,,,,,,,,,,
,,,,,,,638070625c26e262f2163254,2023-08-24_08h13.39.331,HF_wild_card,2022.2.4,Win32,40.08337342,638070625c26e262f2163254,64e63663dbcaf322d2eec8da,64e7030d2cef0e14468cfdd0,,,,,,,decisionTrl,resources/DP.BMP,resources/DG.BMP,Door3,0.419270833,-0.032552083,1,0,0,1.1696,optionRight,70,13160,6,28,0,28,0,1,,,,,,,,,,,,,,,,,,,,,,,,,,,,,,,,,,,,,,,
,,,,,,,638070625c26e262f2163254,2023-08-24_08h13.39.331,HF_wild_card,2022.2.4,Win32,40.08337342,638070625c26e262f2163254,64e63663dbcaf322d2eec8da,64e7030d2cef0e14468cfdd0,,,,,,,sngl,resources/DB.BMP,resources/Empty.png,WildCard_NonEx,-0.34765625,-0.006510417,1,0,0,1.1414,optionLeft,45,13205,6,29,0,29,0,1,,,,,,,,,,,,,,,,,,,,,,,,,,,,,,,,,,,,,,,
,,,,,,,638070625c26e262f2163254,2023-08-24_08h13.39.331,HF_wild_card,2022.2.4,Win32,40.08337342,638070625c26e262f2163254,64e63663dbcaf322d2eec8da,64e7030d2cef0e14468cfdd0,,,,,,,decisionTrl,resources/DP.BMP,resources/DG.BMP,Door3,0.380208333,-0.052083333,1,0,0,1.069,optionRight,70,13275,6,30,0,30,0,1,,,,,,,,,,,,,,,,,,,,,,,,,,,,,,,,,,,,,,,
,,,,,,,638070625c26e262f2163254,2023-08-24_08h13.39.331,HF_wild_card,2022.2.4,Win32,40.08337342,638070625c26e262f2163254,64e63663dbcaf322d2eec8da,64e7030d2cef0e14468cfdd0,,,,,,,ctch,resources/DY.BMP,resources/DG.BMP,Door3,0.313802083,-0.072916667,1,0,0,1.2221,optionRight,70,13345,6,31,0,31,0,1,,,,,,,,,,,,,,,,,,,,,,,,,,,,,,,,,,,,,,,
,,,,,,,638070625c26e262f2163254,2023-08-24_08h13.39.331,HF_wild_card,2022.2.4,Win32,40.08337342,638070625c26e262f2163254,64e63663dbcaf322d2eec8da,64e7030d2cef0e14468cfdd0,,,,,,,decisionTrl,resources/DBN.BMP,resources/DY.BMP,Door2,0.266927083,-0.046875,1,0,0,1.167,optionRight,20,13365,6,32,0,32,0,1,,,,,,,,,,,,,,,,,,,,,,,,,,,,,,,,,,,,,,,
,,,,,,,638070625c26e262f2163254,2023-08-24_08h13.39.331,HF_wild_card,2022.2.4,Win32,40.08337342,638070625c26e262f2163254,64e63663dbcaf322d2eec8da,64e7030d2cef0e14468cfdd0,,,,,,,ctch,resources/DBN.BMP,resources/DP.BMP,Door4,0.338541667,-0.061197917,1,0,0,1.0479,optionRight,80,13445,6,33,0,33,0,1,,,,,,,,,,,,,,,,,,,,,,,,,,,,,,,,,,,,,,,
,,,,,,,638070625c26e262f2163254,2023-08-24_08h13.39.331,HF_wild_card,2022.2.4,Win32,40.08337342,638070625c26e262f2163254,64e63663dbcaf322d2eec8da,64e7030d2cef0e14468cfdd0,,,,,,,sngl,resources/Empty.png,resources/DG.BMP,Door3,0.329427083,-0.065104167,1,0,0,1.0434,optionRight,70,13515,6,34,0,34,0,1,,,,,,,,,,,,,,,,,,,,,,,,,,,,,,,,,,,,,,,
,,,,,,,638070625c26e262f2163254,2023-08-24_08h13.39.331,HF_wild_card,2022.2.4,Win32,40.08337342,638070625c26e262f2163254,64e63663dbcaf322d2eec8da,64e7030d2cef0e14468cfdd0,,,,,,,sngl,resources/DG.BMP,resources/Empty.png,Door3,-0.329427083,-0.015625,1,0,0,1.0439,optionLeft,70,13585,6,35,0,35,0,1,,,,,,,,,,,,,,,,,,,,,,,,,,,,,,,,,,,,,,,
,,,,,,,638070625c26e262f2163254,2023-08-24_08h13.39.331,HF_wild_card,2022.2.4,Win32,40.08337342,638070625c26e262f2163254,64e63663dbcaf322d2eec8da,64e7030d2cef0e14468cfdd0,,,,,,,decisionTrl,resources/DY.BMP,resources/DB.BMP,WildCard_NonEx,0.278645833,-0.05859375,1,0,0,1.5903,optionRight,55,13640,6,36,0,36,0,1,,,,,,,,,,,,,,,,,,,,,,,,,,,,,,,,,,,,,,,
,,,,,,,638070625c26e262f2163254,2023-08-24_08h13.39.331,HF_wild_card,2022.2.4,Win32,40.08337342,638070625c26e262f2163254,64e63663dbcaf322d2eec8da,64e7030d2cef0e14468cfdd0,,,,,,,ctch,resources/DP.BMP,resources/DBN.BMP,Door4,-0.356770833,-0.0390625,1,0,0,1.5006,optionLeft,80,13720,6,37,0,37,0,1,,,,,,,,,,,,,,,,,,,,,,,,,,,,,,,,,,,,,,,
,,,,,,,638070625c26e262f2163254,2023-08-24_08h13.39.331,HF_wild_card,2022.2.4,Win32,40.08337342,638070625c26e262f2163254,64e63663dbcaf322d2eec8da,64e7030d2cef0e14468cfdd0,,,,,,,decisionTrl,resources/DG.BMP,resources/DP.BMP,Door4,0.381510417,-0.080729167,1,0,0,1.3671,optionRight,60,13780,6,38,0,38,0,1,,,,,,,,,,,,,,,,,,,,,,,,,,,,,,,,,,,,,,,
,,,,,,,638070625c26e262f2163254,2023-08-24_08h13.39.331,HF_wild_card,2022.2.4,Win32,40.08337342,638070625c26e262f2163254,64e63663dbcaf322d2eec8da,64e7030d2cef0e14468cfdd0,,,,,,,decisionTrl,resources/DBN.BMP,resources/DY.BMP,Door1,-0.266927083,-0.005208333,1,0,0,3.3686,optionLeft,30,13810,6,39,0,39,0,1,,,,,,,,,,,,,,,,,,,,,,,,,,,,,,,,,,,,,,,
,,,,,,,638070625c26e262f2163254,2023-08-24_08h13.39.331,HF_wild_card,2022.2.4,Win32,40.08337342,638070625c26e262f2163254,64e63663dbcaf322d2eec8da,64e7030d2cef0e14468cfdd0,,,,,,,decisionTrl,resources/DBN.BMP,resources/DB.BMP,WildCard_NonEx,0.35546875,-0.111979167,1,0,0,1.2686,optionRight,45,13855,6,40,0,40,0,1,,,,,,,,,,,,,,,,,,,,,,,,,,,,,,,,,,,,,,,
,,,,,,,638070625c26e262f2163254,2023-08-24_08h13.39.331,HF_wild_card,2022.2.4,Win32,40.08337342,638070625c26e262f2163254,64e63663dbcaf322d2eec8da,64e7030d2cef0e14468cfdd0,,,,,,,decisionTrl,resources/DY.BMP,resources/DBN.BMP,Door1,0.390625,-0.0625,1,0,0,2.5896,optionRight,30,13885,6,41,0,41,0,1,,,,,,,,,,,,,,,,,,,,,,,,,,,,,,,,,,,,,,,
,,,,,,,638070625c26e262f2163254,2023-08-24_08h13.39.331,HF_wild_card,2022.2.4,Win32,40.08337342,638070625c26e262f2163254,64e63663dbcaf322d2eec8da,64e7030d2cef0e14468cfdd0,,,,,,,decisionTrl,resources/DBN.BMP,resources/DY.BMP,Door2,0.315104167,-0.045572917,1,0,0,1.2969,optionRight,40,13925,6,42,0,42,0,1,,,,,,,,,,,,,,,,,,,,,,,,,,,,,,,,,,,,,,,
,,,,,,,638070625c26e262f2163254,2023-08-24_08h13.39.331,HF_wild_card,2022.2.4,Win32,40.08337342,638070625c26e262f2163254,64e63663dbcaf322d2eec8da,64e7030d2cef0e14468cfdd0,,,,,,,ctch,resources/DP.BMP,resources/DBN.BMP,Door4,-0.295572917,0.01953125,1,0,0,2.1229,optionLeft,60,13985,6,43,0,43,0,1,,,,,,,,,,,,,,,,,,,,,,,,,,,,,,,,,,,,,,,
,,,,,,,638070625c26e262f2163254,2023-08-24_08h13.39.331,HF_wild_card,2022.2.4,Win32,40.08337342,638070625c26e262f2163254,64e63663dbcaf322d2eec8da,64e7030d2cef0e14468cfdd0,,,,,,,,,,,,,,,,,,,,,,,,,,5,0,5,0,1,,,,,,,,,,,,,,,,,,,,,,,,,,,,,,,,,,
,,,,,,,638070625c26e262f2163254,2023-08-24_08h13.39.331,HF_wild_card,2022.2.4,Win32,40.08337342,638070625c26e262f2163254,64e63663dbcaf322d2eec8da,64e7030d2cef0e14468cfdd0,,,,,,,decisionTrl,resources/DY.BMP,resources/DBN.BMP,Door2,-0.33984375,-0.033854167,1,0,0,1.6918,optionLeft,20,14005,7,0,0,0,0,1,,,,,,,,,,,,,,,,,,,,,,,,,,,,,,,,,,,,,,,
,,,,,,,638070625c26e262f2163254,2023-08-24_08h13.39.331,HF_wild_card,2022.2.4,Win32,40.08337342,638070625c26e262f2163254,64e63663dbcaf322d2eec8da,64e7030d2cef0e14468cfdd0,,,,,,,decisionTrl,resources/DG.BMP,resources/DP.BMP,Door3,-0.270833333,0.016927083,1,0,0,1.6029,optionLeft,70,14075,7,1,0,1,0,1,,,,,,,,,,,,,,,,,,,,,,,,,,,,,,,,,,,,,,,
,,,,,,,638070625c26e262f2163254,2023-08-24_08h13.39.331,HF_wild_card,2022.2.4,Win32,40.08337342,638070625c26e262f2163254,64e63663dbcaf322d2eec8da,64e7030d2cef0e14468cfdd0,,,,,,,decisionTrl,resources/DY.BMP,resources/DBN.BMP,Door2,-0.377604167,-0.05078125,1,0,0,1.4144,optionLeft,40,14115,7,2,0,2,0,1,,,,,,,,,,,,,,,,,,,,,,,,,,,,,,,,,,,,,,,
,,,,,,,638070625c26e262f2163254,2023-08-24_08h13.39.331,HF_wild_card,2022.2.4,Win32,40.08337342,638070625c26e262f2163254,64e63663dbcaf322d2eec8da,64e7030d2cef0e14468cfdd0,,,,,,,ctch,resources/DY.BMP,resources/DG.BMP,Door3,0.38671875,-0.067708333,1,0,0,2.0166,optionRight,70,14185,7,3,0,3,0,1,,,,,,,,,,,,,,,,,,,,,,,,,,,,,,,,,,,,,,,
,,,,,,,638070625c26e262f2163254,2023-08-24_08h13.39.331,HF_wild_card,2022.2.4,Win32,40.08337342,638070625c26e262f2163254,64e63663dbcaf322d2eec8da,64e7030d2cef0e14468cfdd0,,,,,,,ctch,resources/DBN.BMP,resources/DP.BMP,Door4,0.359375,-0.07421875,1,0,0,1.545,optionRight,60,14245,7,4,0,4,0,1,,,,,,,,,,,,,,,,,,,,,,,,,,,,,,,,,,,,,,,
,,,,,,,638070625c26e262f2163254,2023-08-24_08h13.39.331,HF_wild_card,2022.2.4,Win32,40.08337342,638070625c26e262f2163254,64e63663dbcaf322d2eec8da,64e7030d2cef0e14468cfdd0,,,,,,,decisionTrl,resources/DP.BMP,resources/DG.BMP,Door3,0.45703125,-0.033854167,1,0,0,1.2494,optionRight,70,14315,7,5,0,5,0,1,,,,,,,,,,,,,,,,,,,,,,,,,,,,,,,,,,,,,,,
,,,,,,,638070625c26e262f2163254,2023-08-24_08h13.39.331,HF_wild_card,2022.2.4,Win32,40.08337342,638070625c26e262f2163254,64e63663dbcaf322d2eec8da,64e7030d2cef0e14468cfdd0,,,,,,,decisionTrl,resources/DBN.BMP,resources/DY.BMP,Door1,-0.317708333,-0.0625,1,0,0,2.6931,optionLeft,30,14345,7,6,0,6,0,1,,,,,,,,,,,,,,,,,,,,,,,,,,,,,,,,,,,,,,,
,,,,,,,638070625c26e262f2163254,2023-08-24_08h13.39.331,HF_wild_card,2022.2.4,Win32,40.08337342,638070625c26e262f2163254,64e63663dbcaf322d2eec8da,64e7030d2cef0e14468cfdd0,,,,,,,decisionTrl,resources/DBN.BMP,resources/DY.BMP,Door1,-0.377604167,-0.0078125,1,0,0,2.6258,optionLeft,30,14375,7,7,0,7,0,1,,,,,,,,,,,,,,,,,,,,,,,,,,,,,,,,,,,,,,,
,,,,,,,638070625c26e262f2163254,2023-08-24_08h13.39.331,HF_wild_card,2022.2.4,Win32,40.08337342,638070625c26e262f2163254,64e63663dbcaf322d2eec8da,64e7030d2cef0e14468cfdd0,,,,,,,decisionTrl,resources/DY.BMP,resources/DBN.BMP,Door2,-0.348958333,-0.015625,1,0,0,3.0713,optionLeft,40,14415,7,8,0,8,0,1,,,,,,,,,,,,,,,,,,,,,,,,,,,,,,,,,,,,,,,
,,,,,,,638070625c26e262f2163254,2023-08-24_08h13.39.331,HF_wild_card,2022.2.4,Win32,40.08337342,638070625c26e262f2163254,64e63663dbcaf322d2eec8da,64e7030d2cef0e14468cfdd0,,,,,,,ctch,resources/DG.BMP,resources/DY.BMP,Door3,-0.350260417,-0.036458333,1,0,0,1.3725,optionLeft,70,14485,7,9,0,9,0,1,,,,,,,,,,,,,,,,,,,,,,,,,,,,,,,,,,,,,,,
,,,,,,,638070625c26e262f2163254,2023-08-24_08h13.39.331,HF_wild_card,2022.2.4,Win32,40.08337342,638070625c26e262f2163254,64e63663dbcaf322d2eec8da,64e7030d2cef0e14468cfdd0,,,,,,,decisionTrl,resources/DBN.BMP,resources/DY.BMP,Door1,-0.395833333,0.016927083,1,0,0,2.4194,optionLeft,30,14515,7,10,0,10,0,1,,,,,,,,,,,,,,,,,,,,,,,,,,,,,,,,,,,,,,,
,,,,,,,638070625c26e262f2163254,2023-08-24_08h13.39.331,HF_wild_card,2022.2.4,Win32,40.08337342,638070625c26e262f2163254,64e63663dbcaf322d2eec8da,64e7030d2cef0e14468cfdd0,,,,,,,decisionTrl,resources/DP.BMP,resources/DG.BMP,Door3,0.38671875,-0.03125,1,0,0,1.4939,optionRight,70,14585,7,11,0,11,0,1,,,,,,,,,,,,,,,,,,,,,,,,,,,,,,,,,,,,,,,
,,,,,,,638070625c26e262f2163254,2023-08-24_08h13.39.331,HF_wild_card,2022.2.4,Win32,40.08337342,638070625c26e262f2163254,64e63663dbcaf322d2eec8da,64e7030d2cef0e14468cfdd0,,,,,,,ctch,resources/DG.BMP,resources/DY.BMP,Door3,-0.319010417,-0.063802083,1,0,0,1.2015,optionLeft,70,14655,7,12,0,12,0,1,,,,,,,,,,,,,,,,,,,,,,,,,,,,,,,,,,,,,,,
,,,,,,,638070625c26e262f2163254,2023-08-24_08h13.39.331,HF_wild_card,2022.2.4,Win32,40.08337342,638070625c26e262f2163254,64e63663dbcaf322d2eec8da,64e7030d2cef0e14468cfdd0,,,,,,,ctch,resources/DY.BMP,resources/DG.BMP,Door3,0.4140625,-0.114583333,1,0,0,1.7438,optionRight,70,14725,7,13,0,13,0,1,,,,,,,,,,,,,,,,,,,,,,,,,,,,,,,,,,,,,,,
,,,,,,,638070625c26e262f2163254,2023-08-24_08h13.39.331,HF_wild_card,2022.2.4,Win32,40.08337342,638070625c26e262f2163254,64e63663dbcaf322d2eec8da,64e7030d2cef0e14468cfdd0,,,,,,,decisionTrl,resources/DBN.BMP,resources/DY.BMP,Door1,-0.248697917,0.055989583,1,0,0,1.7739,optionLeft,30,14755,7,14,0,14,0,1,,,,,,,,,,,,,,,,,,,,,,,,,,,,,,,,,,,,,,,
,,,,,,,638070625c26e262f2163254,2023-08-24_08h13.39.331,HF_wild_card,2022.2.4,Win32,40.08337342,638070625c26e262f2163254,64e63663dbcaf322d2eec8da,64e7030d2cef0e14468cfdd0,,,,,,,decisionTrl,resources/DG.BMP,resources/DP.BMP,Door3,-0.391927083,-0.015625,1,0,0,1.2132,optionLeft,70,14825,7,15,0,15,0,1,,,,,,,,,,,,,,,,,,,,,,,,,,,,,,,,,,,,,,,
,,,,,,,638070625c26e262f2163254,2023-08-24_08h13.39.331,HF_wild_card,2022.2.4,Win32,40.08337342,638070625c26e262f2163254,64e63663dbcaf322d2eec8da,64e7030d2cef0e14468cfdd0,,,,,,,decisionTrl,resources/DBN.BMP,resources/DY.BMP,Door1,-0.3515625,0.013020833,1,0,0,1.7002,optionLeft,30,14855,7,16,0,16,0,1,,,,,,,,,,,,,,,,,,,,,,,,,,,,,,,,,,,,,,,
,,,,,,,638070625c26e262f2163254,2023-08-24_08h13.39.331,HF_wild_card,2022.2.4,Win32,40.08337342,638070625c26e262f2163254,64e63663dbcaf322d2eec8da,64e7030d2cef0e14468cfdd0,,,,,,,decisionTrl,resources/DG.BMP,resources/DP.BMP,Door3,-0.4609375,0.020833333,1,0,0,1.3205,optionLeft,70,14925,7,17,0,17,0,1,,,,,,,,,,,,,,,,,,,,,,,,,,,,,,,,,,,,,,,
,,,,,,,638070625c26e262f2163254,2023-08-24_08h13.39.331,HF_wild_card,2022.2.4,Win32,40.08337342,638070625c26e262f2163254,64e63663dbcaf322d2eec8da,64e7030d2cef0e14468cfdd0,,,,,,,decisionTrl,resources/DG.BMP,resources/DP.BMP,Door3,-0.391927083,-0.03515625,1,0,0,1.1749,optionLeft,70,14995,7,18,0,18,0,1,,,,,,,,,,,,,,,,,,,,,,,,,,,,,,,,,,,,,,,
,,,,,,,638070625c26e262f2163254,2023-08-24_08h13.39.331,HF_wild_card,2022.2.4,Win32,40.08337342,638070625c26e262f2163254,64e63663dbcaf322d2eec8da,64e7030d2cef0e14468cfdd0,,,,,,,decisionTrl,resources/DY.BMP,resources/DBN.BMP,Door1,0.30078125,-0.024739583,1,0,0,2.2691,optionRight,30,15025,7,19,0,19,0,1,,,,,,,,,,,,,,,,,,,,,,,,,,,,,,,,,,,,,,,
,,,,,,,638070625c26e262f2163254,2023-08-24_08h13.39.331,HF_wild_card,2022.2.4,Win32,40.08337342,638070625c26e262f2163254,64e63663dbcaf322d2eec8da,64e7030d2cef0e14468cfdd0,,,,,,,decisionTrl,resources/DY.BMP,resources/DBN.BMP,Door1,0.358072917,0.002604167,1,0,0,1.2229,optionRight,30,15055,7,20,0,20,0,1,,,,,,,,,,,,,,,,,,,,,,,,,,,,,,,,,,,,,,,
