Condition,Low fixed image (Door1),Low risky image (Door2),High fixed image (Door3),High risky image (Door4),NonExtreme Wild Card 1,NonExtreme Wild Card 2,,date,expName,psychopyVersion,OS,frameRate,PROLIFIC_PID,STUDY_ID,SESSION_ID,mouse_2.x,mouse_2.y,mouse_2.leftButton,mouse_2.midButton,mouse_2.rightButton,mouse_2.clicked_name,Trial Type,Left Option Image,Right Option Image,Chosen Door,mouse.x,mouse.y,mouse.leftButton,mouse.midButton,mouse.rightButton,mouse.time,mouse.clicked_name,Feedback,Cumulative Reward,Block,trial.thisRepN,trial.thisTrialN,trial.thisN,trial.thisIndex,trial.ran,blocks.thisRepN,blocks.thisTrialN,blocks.thisN,blocks.thisIndex,blocks.ran,Money conversion,First Outcome Reported,Shown Door (First Outcome),Displayed Image (First Outcome),outcomes.thisRepN,outcomes.thisTrialN,outcomes.thisN,outcomes.thisIndex,outcomes.ran,judgments.thisRepN,judgments.thisTrialN,judgments.thisN,judgments.thisIndex,judgments.ran,freqMouse.x,freqMouse.y,freqMouse.leftButton,freqMouse.midButton,freqMouse.rightButton,freqMouse.clicked_name,FQJ for first outcome,FQJ for second outcome,Shown Door,Displayed Image,trials.thisRepN,trials.thisTrialN,trials.thisN,trials.thisIndex,trials.ran,judgBlock.thisRepN,judgBlock.thisTrialN,judgBlock.thisN,judgBlock.thisIndex,judgBlock.ran
2,resources/DP.BMP,resources/DG.BMP,resources/DY.BMP,resources/DBN.BMP,resources/DB.BMP,resources/DR.BMP,,2023-08-16_08h31.50.438,HF_wild_card,2022.2.4,MacIntel,29.41176471,62b2080f8f89f2f15c47d9ba,64d2fd46c836a06233681665,64dc7b5313ffd7a1de696252,,,,,,,,,,,,,,,,,,,,,,,,,,,,,,,,,,,,,,,,,,,,,,,,,,,,,,,,,,,,,,,,
,,,,,,,,2023-08-16_08h31.50.438,HF_wild_card,2022.2.4,MacIntel,29.41176471,62b2080f8f89f2f15c47d9ba,64d2fd46c836a06233681665,64dc7b5313ffd7a1de696252,-0.008035714,-0.410714286,1,0,0,agree,,,,,,,,,,,,,,,,,,,,,,,,,,,,,,,,,,,,,,,,,,,,,,,,,,,,,,,,,,
,,,,,,,,2023-08-16_08h31.50.438,HF_wild_card,2022.2.4,MacIntel,29.41176471,62b2080f8f89f2f15c47d9ba,64d2fd46c836a06233681665,64dc7b5313ffd7a1de696252,,,,,,,,,,,,,,,,,,,,,,,,,,,,,,,,,,,,,,,,,,,,,,,,,,,,,,,,,,,,,,,,
,,,,,,,,2023-08-16_08h31.50.438,HF_wild_card,2022.2.4,MacIntel,29.41176471,62b2080f8f89f2f15c47d9ba,64d2fd46c836a06233681665,64dc7b5313ffd7a1de696252,,,,,,,ctch,resources/DG.BMP,resources/DY.BMP,Door3,0.255357143,-0.191071429,1,0,0,5.087,optionRight,70,70,1,0,0,0,0,1,,,,,,,,,,,,,,,,,,,,,,,,,,,,,,,,,,,,,,,
,,,,,,,,2023-08-16_08h31.50.438,HF_wild_card,2022.2.4,MacIntel,29.41176471,62b2080f8f89f2f15c47d9ba,64d2fd46c836a06233681665,64dc7b5313ffd7a1de696252,,,,,,,decisionTrl,resources/DG.BMP,resources/DP.BMP,Door2,-0.267857143,-0.139285714,1,0,0,1.792,optionLeft,40,110,1,1,0,1,0,1,,,,,,,,,,,,,,,,,,,,,,,,,,,,,,,,,,,,,,,
,,,,,,,,2023-08-16_08h31.50.438,HF_wild_card,2022.2.4,MacIntel,29.41176471,62b2080f8f89f2f15c47d9ba,64d2fd46c836a06233681665,64dc7b5313ffd7a1de696252,,,,,,,decisionTrl,resources/DP.BMP,resources/DG.BMP,Door2,0.31875,-0.047321429,1,0,0,1.029,optionRight,20,130,1,2,0,2,0,1,,,,,,,,,,,,,,,,,,,,,,,,,,,,,,,,,,,,,,,
,,,,,,,,2023-08-16_08h31.50.438,HF_wild_card,2022.2.4,MacIntel,29.41176471,62b2080f8f89f2f15c47d9ba,64d2fd46c836a06233681665,64dc7b5313ffd7a1de696252,,,,,,,sngl,resources/Empty.png,resources/DR.BMP,WildCard_NonEx,0.215178571,-0.202678571,1,0,0,4.23,optionRight,55,185,1,3,0,3,0,1,,,,,,,,,,,,,,,,,,,,,,,,,,,,,,,,,,,,,,,
,,,,,,,,2023-08-16_08h31.50.438,HF_wild_card,2022.2.4,MacIntel,29.41176471,62b2080f8f89f2f15c47d9ba,64d2fd46c836a06233681665,64dc7b5313ffd7a1de696252,,,,,,,ctch,resources/DP.BMP,resources/DBN.BMP,Door4,0.361607143,-0.000892857,1,0,0,1.997,optionRight,80,265,1,4,0,4,0,1,,,,,,,,,,,,,,,,,,,,,,,,,,,,,,,,,,,,,,,
,,,,,,,,2023-08-16_08h31.50.438,HF_wild_card,2022.2.4,MacIntel,29.41176471,62b2080f8f89f2f15c47d9ba,64d2fd46c836a06233681665,64dc7b5313ffd7a1de696252,,,,,,,sngl,resources/DP.BMP,resources/Empty.png,Door1,-0.35625,-0.065178571,1,0,0,2.296,optionLeft,30,295,1,5,0,5,0,1,,,,,,,,,,,,,,,,,,,,,,,,,,,,,,,,,,,,,,,
,,,,,,,,2023-08-16_08h31.50.438,HF_wild_card,2022.2.4,MacIntel,29.41176471,62b2080f8f89f2f15c47d9ba,64d2fd46c836a06233681665,64dc7b5313ffd7a1de696252,,,,,,,decisionTrl,resources/DY.BMP,resources/DBN.BMP,Door3,-0.334821429,-0.069642857,1,0,0,2.629,optionLeft,70,365,1,6,0,6,0,1,,,,,,,,,,,,,,,,,,,,,,,,,,,,,,,,,,,,,,,
,,,,,,,,2023-08-16_08h31.50.438,HF_wild_card,2022.2.4,MacIntel,29.41176471,62b2080f8f89f2f15c47d9ba,64d2fd46c836a06233681665,64dc7b5313ffd7a1de696252,,,,,,,ctch,resources/DY.BMP,resources/DG.BMP,Door2,0.307142857,-0.034821429,1,0,0,1.229,optionRight,20,385,1,7,0,7,0,1,,,,,,,,,,,,,,,,,,,,,,,,,,,,,,,,,,,,,,,
,,,,,,,,2023-08-16_08h31.50.438,HF_wild_card,2022.2.4,MacIntel,29.41176471,62b2080f8f89f2f15c47d9ba,64d2fd46c836a06233681665,64dc7b5313ffd7a1de696252,,,,,,,decisionTrl,resources/DG.BMP,resources/DP.BMP,Door2,-0.272321429,-0.036607143,1,0,0,1.095,optionLeft,20,405,1,8,0,8,0,1,,,,,,,,,,,,,,,,,,,,,,,,,,,,,,,,,,,,,,,
,,,,,,,,2023-08-16_08h31.50.438,HF_wild_card,2022.2.4,MacIntel,29.41176471,62b2080f8f89f2f15c47d9ba,64d2fd46c836a06233681665,64dc7b5313ffd7a1de696252,,,,,,,ctch,resources/DG.BMP,resources/DY.BMP,Door3,0.355357143,-0.027678571,1,0,0,1.33,optionRight,70,475,1,9,0,9,0,1,,,,,,,,,,,,,,,,,,,,,,,,,,,,,,,,,,,,,,,
,,,,,,,,2023-08-16_08h31.50.438,HF_wild_card,2022.2.4,MacIntel,29.41176471,62b2080f8f89f2f15c47d9ba,64d2fd46c836a06233681665,64dc7b5313ffd7a1de696252,,,,,,,decisionTrl,resources/DG.BMP,resources/DR.BMP,WildCard_NonEx,0.313392857,-0.039285714,1,0,0,1.33,optionRight,55,530,1,10,0,10,0,1,,,,,,,,,,,,,,,,,,,,,,,,,,,,,,,,,,,,,,,
,,,,,,,,2023-08-16_08h31.50.438,HF_wild_card,2022.2.4,MacIntel,29.41176471,62b2080f8f89f2f15c47d9ba,64d2fd46c836a06233681665,64dc7b5313ffd7a1de696252,,,,,,,decisionTrl,resources/DG.BMP,resources/DP.BMP,Door1,0.383035714,-0.019642857,1,0,0,1.663,optionRight,30,560,1,11,0,11,0,1,,,,,,,,,,,,,,,,,,,,,,,,,,,,,,,,,,,,,,,
,,,,,,,,2023-08-16_08h31.50.438,HF_wild_card,2022.2.4,MacIntel,29.41176471,62b2080f8f89f2f15c47d9ba,64d2fd46c836a06233681665,64dc7b5313ffd7a1de696252,,,,,,,decisionTrl,resources/DY.BMP,resources/DBN.BMP,Door3,-0.279464286,-0.073214286,1,0,0,1.662,optionLeft,70,630,1,12,0,12,0,1,,,,,,,,,,,,,,,,,,,,,,,,,,,,,,,,,,,,,,,
,,,,,,,,2023-08-16_08h31.50.438,HF_wild_card,2022.2.4,MacIntel,29.41176471,62b2080f8f89f2f15c47d9ba,64d2fd46c836a06233681665,64dc7b5313ffd7a1de696252,,,,,,,sngl,resources/DBN.BMP,resources/Empty.png,Door4,-0.372321429,-0.080357143,1,0,0,1.063,optionLeft,80,710,1,13,0,13,0,1,,,,,,,,,,,,,,,,,,,,,,,,,,,,,,,,,,,,,,,
,,,,,,,,2023-08-16_08h31.50.438,HF_wild_card,2022.2.4,MacIntel,29.41176471,62b2080f8f89f2f15c47d9ba,64d2fd46c836a06233681665,64dc7b5313ffd7a1de696252,,,,,,,decisionTrl,resources/DY.BMP,resources/DBN.BMP,Door4,0.365178571,-0.010714286,1,0,0,0.796,optionRight,80,790,1,14,0,14,0,1,,,,,,,,,,,,,,,,,,,,,,,,,,,,,,,,,,,,,,,
,,,,,,,,2023-08-16_08h31.50.438,HF_wild_card,2022.2.4,MacIntel,29.41176471,62b2080f8f89f2f15c47d9ba,64d2fd46c836a06233681665,64dc7b5313ffd7a1de696252,,,,,,,sngl,resources/Empty.png,resources/DG.BMP,Door2,0.291964286,-0.020535714,1,0,0,1.13,optionRight,20,810,1,15,0,15,0,1,,,,,,,,,,,,,,,,,,,,,,,,,,,,,,,,,,,,,,,
,,,,,,,,2023-08-16_08h31.50.438,HF_wild_card,2022.2.4,MacIntel,29.41176471,62b2080f8f89f2f15c47d9ba,64d2fd46c836a06233681665,64dc7b5313ffd7a1de696252,,,,,,,decisionTrl,resources/DBN.BMP,resources/DY.BMP,Door4,-0.26875,-0.058928571,1,0,0,2.029,optionLeft,80,890,1,16,0,16,0,1,,,,,,,,,,,,,,,,,,,,,,,,,,,,,,,,,,,,,,,
,,,,,,,,2023-08-16_08h31.50.438,HF_wild_card,2022.2.4,MacIntel,29.41176471,62b2080f8f89f2f15c47d9ba,64d2fd46c836a06233681665,64dc7b5313ffd7a1de696252,,,,,,,decisionTrl,resources/DR.BMP,resources/DBN.BMP,Door4,0.299107143,0.003571429,1,0,0,0.863,optionRight,80,970,1,17,0,17,0,1,,,,,,,,,,,,,,,,,,,,,,,,,,,,,,,,,,,,,,,
,,,,,,,,2023-08-16_08h31.50.438,HF_wild_card,2022.2.4,MacIntel,29.41176471,62b2080f8f89f2f15c47d9ba,64d2fd46c836a06233681665,64dc7b5313ffd7a1de696252,,,,,,,decisionTrl,resources/DY.BMP,resources/DR.BMP,WildCard_NonEx,0.333928571,-0.005357143,1,0,0,2.23,optionRight,45,1015,1,18,0,18,0,1,,,,,,,,,,,,,,,,,,,,,,,,,,,,,,,,,,,,,,,
,,,,,,,,2023-08-16_08h31.50.438,HF_wild_card,2022.2.4,MacIntel,29.41176471,62b2080f8f89f2f15c47d9ba,64d2fd46c836a06233681665,64dc7b5313ffd7a1de696252,,,,,,,decisionTrl,resources/DG.BMP,resources/DP.BMP,Door1,0.349107143,-0.017857143,1,0,0,1.164,optionRight,30,1045,1,19,0,19,0,1,,,,,,,,,,,,,,,,,,,,,,,,,,,,,,,,,,,,,,,
,,,,,,,,2023-08-16_08h31.50.438,HF_wild_card,2022.2.4,MacIntel,29.41176471,62b2080f8f89f2f15c47d9ba,64d2fd46c836a06233681665,64dc7b5313ffd7a1de696252,,,,,,,ctch,resources/DP.BMP,resources/DBN.BMP,Door4,0.321428571,0.007142857,1,0,0,0.864,optionRight,60,1105,1,20,0,20,0,1,,,,,,,,,,,,,,,,,,,,,,,,,,,,,,,,,,,,,,,
,,,,,,,,2023-08-16_08h31.50.438,HF_wild_card,2022.2.4,MacIntel,29.41176471,62b2080f8f89f2f15c47d9ba,64d2fd46c836a06233681665,64dc7b5313ffd7a1de696252,,,,,,,sngl,resources/Empty.png,resources/DR.BMP,WildCard_NonEx,0.335714286,-0.004464286,1,0,0,0.897,optionRight,45,1150,1,21,0,21,0,1,,,,,,,,,,,,,,,,,,,,,,,,,,,,,,,,,,,,,,,
,,,,,,,,2023-08-16_08h31.50.438,HF_wild_card,2022.2.4,MacIntel,29.41176471,62b2080f8f89f2f15c47d9ba,64d2fd46c836a06233681665,64dc7b5313ffd7a1de696252,,,,,,,ctch,resources/DY.BMP,resources/DG.BMP,Door3,-0.282142857,-0.069642857,1,0,0,1.564,optionLeft,70,1220,1,22,0,22,0,1,,,,,,,,,,,,,,,,,,,,,,,,,,,,,,,,,,,,,,,
,,,,,,,,2023-08-16_08h31.50.438,HF_wild_card,2022.2.4,MacIntel,29.41176471,62b2080f8f89f2f15c47d9ba,64d2fd46c836a06233681665,64dc7b5313ffd7a1de696252,,,,,,,decisionTrl,resources/DR.BMP,resources/DY.BMP,Door3,0.346428571,-0.010714286,1,0,0,1.363,optionRight,70,1290,1,23,0,23,0,1,,,,,,,,,,,,,,,,,,,,,,,,,,,,,,,,,,,,,,,
,,,,,,,,2023-08-16_08h31.50.438,HF_wild_card,2022.2.4,MacIntel,29.41176471,62b2080f8f89f2f15c47d9ba,64d2fd46c836a06233681665,64dc7b5313ffd7a1de696252,,,,,,,decisionTrl,resources/DY.BMP,resources/DBN.BMP,Door4,0.383928571,0.020535714,1,0,0,0.997,optionRight,60,1350,1,24,0,24,0,1,,,,,,,,,,,,,,,,,,,,,,,,,,,,,,,,,,,,,,,
,,,,,,,,2023-08-16_08h31.50.438,HF_wild_card,2022.2.4,MacIntel,29.41176471,62b2080f8f89f2f15c47d9ba,64d2fd46c836a06233681665,64dc7b5313ffd7a1de696252,,,,,,,decisionTrl,resources/DBN.BMP,resources/DR.BMP,WildCard_NonEx,0.323214286,-0.016071429,1,0,0,1.631,optionRight,55,1405,1,25,0,25,0,1,,,,,,,,,,,,,,,,,,,,,,,,,,,,,,,,,,,,,,,
,,,,,,,,2023-08-16_08h31.50.438,HF_wild_card,2022.2.4,MacIntel,29.41176471,62b2080f8f89f2f15c47d9ba,64d2fd46c836a06233681665,64dc7b5313ffd7a1de696252,,,,,,,decisionTrl,resources/DR.BMP,resources/DP.BMP,Door1,0.341071429,-0.041964286,1,0,0,1.664,optionRight,30,1435,1,26,0,26,0,1,,,,,,,,,,,,,,,,,,,,,,,,,,,,,,,,,,,,,,,
,,,,,,,,2023-08-16_08h31.50.438,HF_wild_card,2022.2.4,MacIntel,29.41176471,62b2080f8f89f2f15c47d9ba,64d2fd46c836a06233681665,64dc7b5313ffd7a1de696252,,,,,,,decisionTrl,resources/DBN.BMP,resources/DY.BMP,Door4,-0.2875,-0.041964286,1,0,0,1.163,optionLeft,60,1495,1,27,0,27,0,1,,,,,,,,,,,,,,,,,,,,,,,,,,,,,,,,,,,,,,,
,,,,,,,,2023-08-16_08h31.50.438,HF_wild_card,2022.2.4,MacIntel,29.41176471,62b2080f8f89f2f15c47d9ba,64d2fd46c836a06233681665,64dc7b5313ffd7a1de696252,,,,,,,ctch,resources/DBN.BMP,resources/DP.BMP,Door4,-0.300892857,-0.044642857,1,0,0,1.797,optionLeft,80,1575,1,28,0,28,0,1,,,,,,,,,,,,,,,,,,,,,,,,,,,,,,,,,,,,,,,
,,,,,,,,2023-08-16_08h31.50.438,HF_wild_card,2022.2.4,MacIntel,29.41176471,62b2080f8f89f2f15c47d9ba,64d2fd46c836a06233681665,64dc7b5313ffd7a1de696252,,,,,,,sngl,resources/Empty.png,resources/DY.BMP,Door3,0.30625,-0.013392857,1,0,0,0.928,optionRight,70,1645,1,29,0,29,0,1,,,,,,,,,,,,,,,,,,,,,,,,,,,,,,,,,,,,,,,
,,,,,,,,2023-08-16_08h31.50.438,HF_wild_card,2022.2.4,MacIntel,29.41176471,62b2080f8f89f2f15c47d9ba,64d2fd46c836a06233681665,64dc7b5313ffd7a1de696252,,,,,,,sngl,resources/Empty.png,resources/DBN.BMP,Door4,0.324107143,0.00625,1,0,0,0.796,optionRight,60,1705,1,30,0,30,0,1,,,,,,,,,,,,,,,,,,,,,,,,,,,,,,,,,,,,,,,
,,,,,,,,2023-08-16_08h31.50.438,HF_wild_card,2022.2.4,MacIntel,29.41176471,62b2080f8f89f2f15c47d9ba,64d2fd46c836a06233681665,64dc7b5313ffd7a1de696252,,,,,,,decisionTrl,resources/DBN.BMP,resources/DY.BMP,Door4,-0.251785714,-0.098214286,1,0,0,1.597,optionLeft,60,1765,1,31,0,31,0,1,,,,,,,,,,,,,,,,,,,,,,,,,,,,,,,,,,,,,,,
,,,,,,,,2023-08-16_08h31.50.438,HF_wild_card,2022.2.4,MacIntel,29.41176471,62b2080f8f89f2f15c47d9ba,64d2fd46c836a06233681665,64dc7b5313ffd7a1de696252,,,,,,,sngl,resources/DR.BMP,resources/Empty.png,WildCard_NonEx,-0.357142857,-0.061607143,1,0,0,0.895,optionLeft,55,1820,1,32,0,32,0,1,,,,,,,,,,,,,,,,,,,,,,,,,,,,,,,,,,,,,,,
,,,,,,,,2023-08-16_08h31.50.438,HF_wild_card,2022.2.4,MacIntel,29.41176471,62b2080f8f89f2f15c47d9ba,64d2fd46c836a06233681665,64dc7b5313ffd7a1de696252,,,,,,,decisionTrl,resources/DP.BMP,resources/DG.BMP,Door1,-0.292857143,-0.025,1,0,0,1.796,optionLeft,30,1850,1,33,0,33,0,1,,,,,,,,,,,,,,,,,,,,,,,,,,,,,,,,,,,,,,,
,,,,,,,,2023-08-16_08h31.50.438,HF_wild_card,2022.2.4,MacIntel,29.41176471,62b2080f8f89f2f15c47d9ba,64d2fd46c836a06233681665,64dc7b5313ffd7a1de696252,,,,,,,decisionTrl,resources/DP.BMP,resources/DG.BMP,Door2,0.349107143,-0.028571429,1,0,0,1.13,optionRight,20,1870,1,34,0,34,0,1,,,,,,,,,,,,,,,,,,,,,,,,,,,,,,,,,,,,,,,
,,,,,,,,2023-08-16_08h31.50.438,HF_wild_card,2022.2.4,MacIntel,29.41176471,62b2080f8f89f2f15c47d9ba,64d2fd46c836a06233681665,64dc7b5313ffd7a1de696252,,,,,,,sngl,resources/Empty.png,resources/DP.BMP,Door1,0.349107143,-0.028571429,1,0,0,0.864,optionRight,30,1900,1,35,0,35,0,1,,,,,,,,,,,,,,,,,,,,,,,,,,,,,,,,,,,,,,,
,,,,,,,,2023-08-16_08h31.50.438,HF_wild_card,2022.2.4,MacIntel,29.41176471,62b2080f8f89f2f15c47d9ba,64d2fd46c836a06233681665,64dc7b5313ffd7a1de696252,,,,,,,decisionTrl,resources/DBN.BMP,resources/DY.BMP,Door4,-0.301785714,-0.08125,1,0,0,0.995,optionLeft,80,1980,1,36,0,36,0,1,,,,,,,,,,,,,,,,,,,,,,,,,,,,,,,,,,,,,,,
,,,,,,,,2023-08-16_08h31.50.438,HF_wild_card,2022.2.4,MacIntel,29.41176471,62b2080f8f89f2f15c47d9ba,64d2fd46c836a06233681665,64dc7b5313ffd7a1de696252,,,,,,,sngl,resources/DY.BMP,resources/Empty.png,Door3,-0.369642857,-0.089285714,1,0,0,0.864,optionLeft,70,2050,1,37,0,37,0,1,,,,,,,,,,,,,,,,,,,,,,,,,,,,,,,,,,,,,,,
,,,,,,,,2023-08-16_08h31.50.438,HF_wild_card,2022.2.4,MacIntel,29.41176471,62b2080f8f89f2f15c47d9ba,64d2fd46c836a06233681665,64dc7b5313ffd7a1de696252,,,,,,,decisionTrl,resources/DP.BMP,resources/DR.BMP,WildCard_NonEx,0.288392857,-0.03125,1,0,0,1.996,optionRight,45,2095,1,38,0,38,0,1,,,,,,,,,,,,,,,,,,,,,,,,,,,,,,,,,,,,,,,
,,,,,,,,2023-08-16_08h31.50.438,HF_wild_card,2022.2.4,MacIntel,29.41176471,62b2080f8f89f2f15c47d9ba,64d2fd46c836a06233681665,64dc7b5313ffd7a1de696252,,,,,,,sngl,resources/DG.BMP,resources/Empty.png,Door2,-0.311607143,-0.067857143,1,0,0,0.764,optionLeft,40,2135,1,39,0,39,0,1,,,,,,,,,,,,,,,,,,,,,,,,,,,,,,,,,,,,,,,
,,,,,,,,2023-08-16_08h31.50.438,HF_wild_card,2022.2.4,MacIntel,29.41176471,62b2080f8f89f2f15c47d9ba,64d2fd46c836a06233681665,64dc7b5313ffd7a1de696252,,,,,,,ctch,resources/DBN.BMP,resources/DP.BMP,Door4,-0.359821429,-0.066964286,1,0,0,0.831,optionLeft,80,2215,1,40,0,40,0,1,,,,,,,,,,,,,,,,,,,,,,,,,,,,,,,,,,,,,,,
,,,,,,,,2023-08-16_08h31.50.438,HF_wild_card,2022.2.4,MacIntel,29.41176471,62b2080f8f89f2f15c47d9ba,64d2fd46c836a06233681665,64dc7b5313ffd7a1de696252,,,,,,,decisionTrl,resources/DR.BMP,resources/DG.BMP,Door2,0.345535714,-0.033928571,1,0,0,0.797,optionRight,40,2255,1,41,0,41,0,1,,,,,,,,,,,,,,,,,,,,,,,,,,,,,,,,,,,,,,,
,,,,,,,,2023-08-16_08h31.50.438,HF_wild_card,2022.2.4,MacIntel,29.41176471,62b2080f8f89f2f15c47d9ba,64d2fd46c836a06233681665,64dc7b5313ffd7a1de696252,,,,,,,sngl,resources/DR.BMP,resources/Empty.png,WildCard_NonEx,-0.344642857,-0.097321429,1,0,0,0.766,optionLeft,45,2300,1,42,0,42,0,1,,,,,,,,,,,,,,,,,,,,,,,,,,,,,,,,,,,,,,,
,,,,,,,,2023-08-16_08h31.50.438,HF_wild_card,2022.2.4,MacIntel,29.41176471,62b2080f8f89f2f15c47d9ba,64d2fd46c836a06233681665,64dc7b5313ffd7a1de696252,,,,,,,decisionTrl,resources/DP.BMP,resources/DG.BMP,Door1,-0.310714286,-0.041964286,1,0,0,1.263,optionLeft,30,2330,1,43,0,43,0,1,,,,,,,,,,,,,,,,,,,,,,,,,,,,,,,,,,,,,,,
,,,,,,,,2023-08-16_08h31.50.438,HF_wild_card,2022.2.4,MacIntel,29.41176471,62b2080f8f89f2f15c47d9ba,64d2fd46c836a06233681665,64dc7b5313ffd7a1de696252,,,,,,,,,,,,,,,,,,,,,,,,,,0,0,0,0,1,,,,,,,,,,,,,,,,,,,,,,,,,,,,,,,,,,
,,,,,,,,2023-08-16_08h31.50.438,HF_wild_card,2022.2.4,MacIntel,29.41176471,62b2080f8f89f2f15c47d9ba,64d2fd46c836a06233681665,64dc7b5313ffd7a1de696252,,,,,,,decisionTrl,resources/DP.BMP,resources/DR.BMP,Door1,-0.350892857,-0.063392857,1,0,0,1.593,optionLeft,30,2360,2,0,0,0,0,1,,,,,,,,,,,,,,,,,,,,,,,,,,,,,,,,,,,,,,,
,,,,,,,,2023-08-16_08h31.50.438,HF_wild_card,2022.2.4,MacIntel,29.41176471,62b2080f8f89f2f15c47d9ba,64d2fd46c836a06233681665,64dc7b5313ffd7a1de696252,,,,,,,sngl,resources/Empty.png,resources/DR.BMP,WildCard_NonEx,0.294642857,-0.010714286,1,0,0,0.696,optionRight,45,2405,2,1,0,1,0,1,,,,,,,,,,,,,,,,,,,,,,,,,,,,,,,,,,,,,,,
,,,,,,,,2023-08-16_08h31.50.438,HF_wild_card,2022.2.4,MacIntel,29.41176471,62b2080f8f89f2f15c47d9ba,64d2fd46c836a06233681665,64dc7b5313ffd7a1de696252,,,,,,,decisionTrl,resources/DP.BMP,resources/DG.BMP,Door1,-0.329464286,-0.04375,1,0,0,0.996,optionLeft,30,2435,2,2,0,2,0,1,,,,,,,,,,,,,,,,,,,,,,,,,,,,,,,,,,,,,,,
,,,,,,,,2023-08-16_08h31.50.438,HF_wild_card,2022.2.4,MacIntel,29.41176471,62b2080f8f89f2f15c47d9ba,64d2fd46c836a06233681665,64dc7b5313ffd7a1de696252,,,,,,,decisionTrl,resources/DBN.BMP,resources/DY.BMP,Door4,-0.259821429,-0.050892857,1,0,0,0.829,optionLeft,60,2495,2,3,0,3,0,1,,,,,,,,,,,,,,,,,,,,,,,,,,,,,,,,,,,,,,,
,,,,,,,,2023-08-16_08h31.50.438,HF_wild_card,2022.2.4,MacIntel,29.41176471,62b2080f8f89f2f15c47d9ba,64d2fd46c836a06233681665,64dc7b5313ffd7a1de696252,,,,,,,ctch,resources/DP.BMP,resources/DBN.BMP,Door4,0.319642857,-0.021428571,1,0,0,0.696,optionRight,80,2575,2,4,0,4,0,1,,,,,,,,,,,,,,,,,,,,,,,,,,,,,,,,,,,,,,,
,,,,,,,,2023-08-16_08h31.50.438,HF_wild_card,2022.2.4,MacIntel,29.41176471,62b2080f8f89f2f15c47d9ba,64d2fd46c836a06233681665,64dc7b5313ffd7a1de696252,,,,,,,ctch,resources/DG.BMP,resources/DY.BMP,Door3,0.399107143,-0.013392857,1,0,0,1.097,optionRight,70,2645,2,5,0,5,0,1,,,,,,,,,,,,,,,,,,,,,,,,,,,,,,,,,,,,,,,
,,,,,,,,2023-08-16_08h31.50.438,HF_wild_card,2022.2.4,MacIntel,29.41176471,62b2080f8f89f2f15c47d9ba,64d2fd46c836a06233681665,64dc7b5313ffd7a1de696252,,,,,,,ctch,resources/DY.BMP,resources/DG.BMP,Door3,-0.252678571,-0.022321429,1,0,0,0.763,optionLeft,70,2715,2,6,0,6,0,1,,,,,,,,,,,,,,,,,,,,,,,,,,,,,,,,,,,,,,,
,,,,,,,,2023-08-16_08h31.50.438,HF_wild_card,2022.2.4,MacIntel,29.41176471,62b2080f8f89f2f15c47d9ba,64d2fd46c836a06233681665,64dc7b5313ffd7a1de696252,,,,,,,sngl,resources/Empty.png,resources/DP.BMP,Door1,0.335714286,-0.024107143,1,0,0,0.697,optionRight,30,2745,2,7,0,7,0,1,,,,,,,,,,,,,,,,,,,,,,,,,,,,,,,,,,,,,,,
,,,,,,,,2023-08-16_08h31.50.438,HF_wild_card,2022.2.4,MacIntel,29.41176471,62b2080f8f89f2f15c47d9ba,64d2fd46c836a06233681665,64dc7b5313ffd7a1de696252,,,,,,,ctch,resources/DP.BMP,resources/DBN.BMP,Door4,0.384821429,-0.026785714,1,0,0,0.664,optionRight,80,2825,2,8,0,8,0,1,,,,,,,,,,,,,,,,,,,,,,,,,,,,,,,,,,,,,,,
,,,,,,,,2023-08-16_08h31.50.438,HF_wild_card,2022.2.4,MacIntel,29.41176471,62b2080f8f89f2f15c47d9ba,64d2fd46c836a06233681665,64dc7b5313ffd7a1de696252,,,,,,,decisionTrl,resources/DR.BMP,resources/DY.BMP,Door3,0.459821429,0,1,0,0,1.229,optionRight,70,2895,2,9,0,9,0,1,,,,,,,,,,,,,,,,,,,,,,,,,,,,,,,,,,,,,,,
,,,,,,,,2023-08-16_08h31.50.438,HF_wild_card,2022.2.4,MacIntel,29.41176471,62b2080f8f89f2f15c47d9ba,64d2fd46c836a06233681665,64dc7b5313ffd7a1de696252,,,,,,,sngl,resources/Empty.png,resources/DG.BMP,Door2,0.283928571,0.008035714,1,0,0,0.664,optionRight,40,2935,2,10,0,10,0,1,,,,,,,,,,,,,,,,,,,,,,,,,,,,,,,,,,,,,,,
,,,,,,,,2023-08-16_08h31.50.438,HF_wild_card,2022.2.4,MacIntel,29.41176471,62b2080f8f89f2f15c47d9ba,64d2fd46c836a06233681665,64dc7b5313ffd7a1de696252,,,,,,,decisionTrl,resources/DG.BMP,resources/DP.BMP,Door1,0.308035714,0.00625,1,0,0,1.095,optionRight,30,2965,2,11,0,11,0,1,,,,,,,,,,,,,,,,,,,,,,,,,,,,,,,,,,,,,,,
,,,,,,,,2023-08-16_08h31.50.438,HF_wild_card,2022.2.4,MacIntel,29.41176471,62b2080f8f89f2f15c47d9ba,64d2fd46c836a06233681665,64dc7b5313ffd7a1de696252,,,,,,,decisionTrl,resources/DP.BMP,resources/DG.BMP,Door1,-0.272321429,-0.072321429,1,0,0,0.896,optionLeft,30,2995,2,12,0,12,0,1,,,,,,,,,,,,,,,,,,,,,,,,,,,,,,,,,,,,,,,
,,,,,,,,2023-08-16_08h31.50.438,HF_wild_card,2022.2.4,MacIntel,29.41176471,62b2080f8f89f2f15c47d9ba,64d2fd46c836a06233681665,64dc7b5313ffd7a1de696252,,,,,,,decisionTrl,resources/DR.BMP,resources/DBN.BMP,Door4,0.323214286,0.01875,1,0,0,0.997,optionRight,80,3075,2,13,0,13,0,1,,,,,,,,,,,,,,,,,,,,,,,,,,,,,,,,,,,,,,,
,,,,,,,,2023-08-16_08h31.50.438,HF_wild_card,2022.2.4,MacIntel,29.41176471,62b2080f8f89f2f15c47d9ba,64d2fd46c836a06233681665,64dc7b5313ffd7a1de696252,,,,,,,decisionTrl,resources/DR.BMP,resources/DG.BMP,WildCard_NonEx,-0.2625,-0.041071429,1,0,0,1.462,optionLeft,55,3130,2,14,0,14,0,1,,,,,,,,,,,,,,,,,,,,,,,,,,,,,,,,,,,,,,,
,,,,,,,,2023-08-16_08h31.50.438,HF_wild_card,2022.2.4,MacIntel,29.41176471,62b2080f8f89f2f15c47d9ba,64d2fd46c836a06233681665,64dc7b5313ffd7a1de696252,,,,,,,decisionTrl,resources/DBN.BMP,resources/DY.BMP,Door4,-0.383035714,-0.078571429,1,0,0,1.029,optionLeft,60,3190,2,15,0,15,0,1,,,,,,,,,,,,,,,,,,,,,,,,,,,,,,,,,,,,,,,
,,,,,,,,2023-08-16_08h31.50.438,HF_wild_card,2022.2.4,MacIntel,29.41176471,62b2080f8f89f2f15c47d9ba,64d2fd46c836a06233681665,64dc7b5313ffd7a1de696252,,,,,,,ctch,resources/DG.BMP,resources/DY.BMP,Door2,-0.324107143,-0.034821429,1,0,0,0.764,optionLeft,40,3230,2,16,0,16,0,1,,,,,,,,,,,,,,,,,,,,,,,,,,,,,,,,,,,,,,,
,,,,,,,,2023-08-16_08h31.50.438,HF_wild_card,2022.2.4,MacIntel,29.41176471,62b2080f8f89f2f15c47d9ba,64d2fd46c836a06233681665,64dc7b5313ffd7a1de696252,,,,,,,decisionTrl,resources/DBN.BMP,resources/DY.BMP,Door4,-0.338392857,-0.022321429,1,0,0,0.73,optionLeft,80,3310,2,17,0,17,0,1,,,,,,,,,,,,,,,,,,,,,,,,,,,,,,,,,,,,,,,
,,,,,,,,2023-08-16_08h31.50.438,HF_wild_card,2022.2.4,MacIntel,29.41176471,62b2080f8f89f2f15c47d9ba,64d2fd46c836a06233681665,64dc7b5313ffd7a1de696252,,,,,,,sngl,resources/DR.BMP,resources/Empty.png,WildCard_NonEx,-0.295535714,-0.026785714,1,0,0,0.73,optionLeft,45,3355,2,18,0,18,0,1,,,,,,,,,,,,,,,,,,,,,,,,,,,,,,,,,,,,,,,
,,,,,,,,2023-08-16_08h31.50.438,HF_wild_card,2022.2.4,MacIntel,29.41176471,62b2080f8f89f2f15c47d9ba,64d2fd46c836a06233681665,64dc7b5313ffd7a1de696252,,,,,,,decisionTrl,resources/DG.BMP,resources/DP.BMP,Door1,0.280357143,-0.042857143,1,0,0,1.097,optionRight,30,3385,2,19,0,19,0,1,,,,,,,,,,,,,,,,,,,,,,,,,,,,,,,,,,,,,,,
,,,,,,,,2023-08-16_08h31.50.438,HF_wild_card,2022.2.4,MacIntel,29.41176471,62b2080f8f89f2f15c47d9ba,64d2fd46c836a06233681665,64dc7b5313ffd7a1de696252,,,,,,,decisionTrl,resources/DY.BMP,resources/DBN.BMP,Door4,0.349107143,-0.016071429,1,0,0,0.73,optionRight,80,3465,2,20,0,20,0,1,,,,,,,,,,,,,,,,,,,,,,,,,,,,,,,,,,,,,,,
,,,,,,,,2023-08-16_08h31.50.438,HF_wild_card,2022.2.4,MacIntel,29.41176471,62b2080f8f89f2f15c47d9ba,64d2fd46c836a06233681665,64dc7b5313ffd7a1de696252,,,,,,,decisionTrl,resources/DG.BMP,resources/DR.BMP,WildCard_NonEx,0.345535714,-0.008928571,1,0,0,0.864,optionRight,45,3510,2,21,0,21,0,1,,,,,,,,,,,,,,,,,,,,,,,,,,,,,,,,,,,,,,,
,,,,,,,,2023-08-16_08h31.50.438,HF_wild_card,2022.2.4,MacIntel,29.41176471,62b2080f8f89f2f15c47d9ba,64d2fd46c836a06233681665,64dc7b5313ffd7a1de696252,,,,,,,decisionTrl,resources/DY.BMP,resources/DBN.BMP,Door4,0.364285714,-0.00625,1,0,0,0.63,optionRight,80,3590,2,22,0,22,0,1,,,,,,,,,,,,,,,,,,,,,,,,,,,,,,,,,,,,,,,
,,,,,,,,2023-08-16_08h31.50.438,HF_wild_card,2022.2.4,MacIntel,29.41176471,62b2080f8f89f2f15c47d9ba,64d2fd46c836a06233681665,64dc7b5313ffd7a1de696252,,,,,,,decisionTrl,resources/DBN.BMP,resources/DR.BMP,Door4,-0.257142857,-0.028571429,1,0,0,0.63,optionLeft,60,3650,2,23,0,23,0,1,,,,,,,,,,,,,,,,,,,,,,,,,,,,,,,,,,,,,,,
,,,,,,,,2023-08-16_08h31.50.438,HF_wild_card,2022.2.4,MacIntel,29.41176471,62b2080f8f89f2f15c47d9ba,64d2fd46c836a06233681665,64dc7b5313ffd7a1de696252,,,,,,,ctch,resources/DBN.BMP,resources/DP.BMP,Door4,-0.333928571,-0.026785714,1,0,0,0.598,optionLeft,80,3730,2,24,0,24,0,1,,,,,,,,,,,,,,,,,,,,,,,,,,,,,,,,,,,,,,,
,,,,,,,,2023-08-16_08h31.50.438,HF_wild_card,2022.2.4,MacIntel,29.41176471,62b2080f8f89f2f15c47d9ba,64d2fd46c836a06233681665,64dc7b5313ffd7a1de696252,,,,,,,sngl,resources/DY.BMP,resources/Empty.png,Door3,-0.3375,-0.029464286,1,0,0,0.63,optionLeft,70,3800,2,25,0,25,0,1,,,,,,,,,,,,,,,,,,,,,,,,,,,,,,,,,,,,,,,
,,,,,,,,2023-08-16_08h31.50.438,HF_wild_card,2022.2.4,MacIntel,29.41176471,62b2080f8f89f2f15c47d9ba,64d2fd46c836a06233681665,64dc7b5313ffd7a1de696252,,,,,,,decisionTrl,resources/DP.BMP,resources/DG.BMP,Door1,-0.388392857,0.004464286,1,0,0,1.263,optionLeft,30,3830,2,26,0,26,0,1,,,,,,,,,,,,,,,,,,,,,,,,,,,,,,,,,,,,,,,
,,,,,,,,2023-08-16_08h31.50.438,HF_wild_card,2022.2.4,MacIntel,29.41176471,62b2080f8f89f2f15c47d9ba,64d2fd46c836a06233681665,64dc7b5313ffd7a1de696252,,,,,,,decisionTrl,resources/DP.BMP,resources/DG.BMP,Door2,0.316071429,-0.01875,1,0,0,0.831,optionRight,20,3850,2,27,0,27,0,1,,,,,,,,,,,,,,,,,,,,,,,,,,,,,,,,,,,,,,,
,,,,,,,,2023-08-16_08h31.50.438,HF_wild_card,2022.2.4,MacIntel,29.41176471,62b2080f8f89f2f15c47d9ba,64d2fd46c836a06233681665,64dc7b5313ffd7a1de696252,,,,,,,sngl,resources/Empty.png,resources/DY.BMP,Door3,0.342857143,-0.0125,1,0,0,0.664,optionRight,70,3920,2,28,0,28,0,1,,,,,,,,,,,,,,,,,,,,,,,,,,,,,,,,,,,,,,,
,,,,,,,,2023-08-16_08h31.50.438,HF_wild_card,2022.2.4,MacIntel,29.41176471,62b2080f8f89f2f15c47d9ba,64d2fd46c836a06233681665,64dc7b5313ffd7a1de696252,,,,,,,sngl,resources/DG.BMP,resources/Empty.png,Door2,-0.280357143,-0.046428571,1,0,0,0.63,optionLeft,20,3940,2,29,0,29,0,1,,,,,,,,,,,,,,,,,,,,,,,,,,,,,,,,,,,,,,,
,,,,,,,,2023-08-16_08h31.50.438,HF_wild_card,2022.2.4,MacIntel,29.41176471,62b2080f8f89f2f15c47d9ba,64d2fd46c836a06233681665,64dc7b5313ffd7a1de696252,,,,,,,sngl,resources/Empty.png,resources/DBN.BMP,Door4,0.340178571,-0.028571429,1,0,0,0.629,optionRight,80,4020,2,30,0,30,0,1,,,,,,,,,,,,,,,,,,,,,,,,,,,,,,,,,,,,,,,
,,,,,,,,2023-08-16_08h31.50.438,HF_wild_card,2022.2.4,MacIntel,29.41176471,62b2080f8f89f2f15c47d9ba,64d2fd46c836a06233681665,64dc7b5313ffd7a1de696252,,,,,,,decisionTrl,resources/DR.BMP,resources/DP.BMP,WildCard_NonEx,-0.30625,-0.041071429,1,0,0,1.362,optionLeft,45,4065,2,31,0,31,0,1,,,,,,,,,,,,,,,,,,,,,,,,,,,,,,,,,,,,,,,
,,,,,,,,2023-08-16_08h31.50.438,HF_wild_card,2022.2.4,MacIntel,29.41176471,62b2080f8f89f2f15c47d9ba,64d2fd46c836a06233681665,64dc7b5313ffd7a1de696252,,,,,,,sngl,resources/DBN.BMP,resources/Empty.png,Door4,-0.327678571,-0.021428571,1,0,0,0.663,optionLeft,60,4125,2,32,0,32,0,1,,,,,,,,,,,,,,,,,,,,,,,,,,,,,,,,,,,,,,,
,,,,,,,,2023-08-16_08h31.50.438,HF_wild_card,2022.2.4,MacIntel,29.41176471,62b2080f8f89f2f15c47d9ba,64d2fd46c836a06233681665,64dc7b5313ffd7a1de696252,,,,,,,decisionTrl,resources/DY.BMP,resources/DBN.BMP,Door4,0.314285714,-0.00625,1,0,0,0.663,optionRight,60,4185,2,33,0,33,0,1,,,,,,,,,,,,,,,,,,,,,,,,,,,,,,,,,,,,,,,
,,,,,,,,2023-08-16_08h31.50.438,HF_wild_card,2022.2.4,MacIntel,29.41176471,62b2080f8f89f2f15c47d9ba,64d2fd46c836a06233681665,64dc7b5313ffd7a1de696252,,,,,,,sngl,resources/DP.BMP,resources/Empty.png,Door1,-0.335714286,-0.024107143,1,0,0,0.663,optionLeft,30,4215,2,34,0,34,0,1,,,,,,,,,,,,,,,,,,,,,,,,,,,,,,,,,,,,,,,
,,,,,,,,2023-08-16_08h31.50.438,HF_wild_card,2022.2.4,MacIntel,29.41176471,62b2080f8f89f2f15c47d9ba,64d2fd46c836a06233681665,64dc7b5313ffd7a1de696252,,,,,,,ctch,resources/DY.BMP,resources/DG.BMP,Door3,-0.330357143,-0.029464286,1,0,0,0.996,optionLeft,70,4285,2,35,0,35,0,1,,,,,,,,,,,,,,,,,,,,,,,,,,,,,,,,,,,,,,,
,,,,,,,,2023-08-16_08h31.50.438,HF_wild_card,2022.2.4,MacIntel,29.41176471,62b2080f8f89f2f15c47d9ba,64d2fd46c836a06233681665,64dc7b5313ffd7a1de696252,,,,,,,ctch,resources/DBN.BMP,resources/DP.BMP,Door4,-0.282142857,-0.035714286,1,0,0,0.796,optionLeft,60,4345,2,36,0,36,0,1,,,,,,,,,,,,,,,,,,,,,,,,,,,,,,,,,,,,,,,
,,,,,,,,2023-08-16_08h31.50.438,HF_wild_card,2022.2.4,MacIntel,29.41176471,62b2080f8f89f2f15c47d9ba,64d2fd46c836a06233681665,64dc7b5313ffd7a1de696252,,,,,,,decisionTrl,resources/DBN.BMP,resources/DY.BMP,Door4,-0.285714286,-0.032142857,1,0,0,0.697,optionLeft,80,4425,2,37,0,37,0,1,,,,,,,,,,,,,,,,,,,,,,,,,,,,,,,,,,,,,,,
,,,,,,,,2023-08-16_08h31.50.438,HF_wild_card,2022.2.4,MacIntel,29.41176471,62b2080f8f89f2f15c47d9ba,64d2fd46c836a06233681665,64dc7b5313ffd7a1de696252,,,,,,,decisionTrl,resources/DY.BMP,resources/DR.BMP,Door3,-0.341964286,-0.03125,1,0,0,1.598,optionLeft,70,4495,2,38,0,38,0,1,,,,,,,,,,,,,,,,,,,,,,,,,,,,,,,,,,,,,,,
,,,,,,,,2023-08-16_08h31.50.438,HF_wild_card,2022.2.4,MacIntel,29.41176471,62b2080f8f89f2f15c47d9ba,64d2fd46c836a06233681665,64dc7b5313ffd7a1de696252,,,,,,,sngl,resources/Empty.png,resources/DR.BMP,WildCard_NonEx,0.307142857,-0.013392857,1,0,0,0.863,optionRight,55,4550,2,39,0,39,0,1,,,,,,,,,,,,,,,,,,,,,,,,,,,,,,,,,,,,,,,
,,,,,,,,2023-08-16_08h31.50.438,HF_wild_card,2022.2.4,MacIntel,29.41176471,62b2080f8f89f2f15c47d9ba,64d2fd46c836a06233681665,64dc7b5313ffd7a1de696252,,,,,,,decisionTrl,resources/DG.BMP,resources/DP.BMP,Door1,0.275,-0.019642857,1,0,0,0.997,optionRight,30,4580,2,40,0,40,0,1,,,,,,,,,,,,,,,,,,,,,,,,,,,,,,,,,,,,,,,
,,,,,,,,2023-08-16_08h31.50.438,HF_wild_card,2022.2.4,MacIntel,29.41176471,62b2080f8f89f2f15c47d9ba,64d2fd46c836a06233681665,64dc7b5313ffd7a1de696252,,,,,,,decisionTrl,resources/DY.BMP,resources/DBN.BMP,Door4,0.329464286,0.000892857,1,0,0,0.797,optionRight,80,4660,2,41,0,41,0,1,,,,,,,,,,,,,,,,,,,,,,,,,,,,,,,,,,,,,,,
,,,,,,,,2023-08-16_08h31.50.438,HF_wild_card,2022.2.4,MacIntel,29.41176471,62b2080f8f89f2f15c47d9ba,64d2fd46c836a06233681665,64dc7b5313ffd7a1de696252,,,,,,,decisionTrl,resources/DG.BMP,resources/DP.BMP,Door1,0.33125,-0.010714286,1,0,0,0.964,optionRight,30,4690,2,42,0,42,0,1,,,,,,,,,,,,,,,,,,,,,,,,,,,,,,,,,,,,,,,
,,,,,,,,2023-08-16_08h31.50.438,HF_wild_card,2022.2.4,MacIntel,29.41176471,62b2080f8f89f2f15c47d9ba,64d2fd46c836a06233681665,64dc7b5313ffd7a1de696252,,,,,,,sngl,resources/DR.BMP,resources/Empty.png,WildCard_NonEx,-0.284821429,-0.039285714,1,0,0,0.698,optionLeft,55,4745,2,43,0,43,0,1,,,,,,,,,,,,,,,,,,,,,,,,,,,,,,,,,,,,,,,
,,,,,,,,2023-08-16_08h31.50.438,HF_wild_card,2022.2.4,MacIntel,29.41176471,62b2080f8f89f2f15c47d9ba,64d2fd46c836a06233681665,64dc7b5313ffd7a1de696252,,,,,,,,,,,,,,,,,,,,,,,,,,1,0,1,0,1,,,,,,,,,,,,,,,,,,,,,,,,,,,,,,,,,,
,,,,,,,,2023-08-16_08h31.50.438,HF_wild_card,2022.2.4,MacIntel,29.41176471,62b2080f8f89f2f15c47d9ba,64d2fd46c836a06233681665,64dc7b5313ffd7a1de696252,,,,,,,decisionTrl,resources/DBN.BMP,resources/DY.BMP,Door4,-0.291964286,-0.145535714,1,0,0,1.462,optionLeft,80,4825,3,0,0,0,0,1,,,,,,,,,,,,,,,,,,,,,,,,,,,,,,,,,,,,,,,
,,,,,,,,2023-08-16_08h31.50.438,HF_wild_card,2022.2.4,MacIntel,29.41176471,62b2080f8f89f2f15c47d9ba,64d2fd46c836a06233681665,64dc7b5313ffd7a1de696252,,,,,,,sngl,resources/DBN.BMP,resources/Empty.png,Door4,-0.258035714,-0.035714286,1,0,0,0.629,optionLeft,80,4905,3,1,0,1,0,1,,,,,,,,,,,,,,,,,,,,,,,,,,,,,,,,,,,,,,,
,,,,,,,,2023-08-16_08h31.50.438,HF_wild_card,2022.2.4,MacIntel,29.41176471,62b2080f8f89f2f15c47d9ba,64d2fd46c836a06233681665,64dc7b5313ffd7a1de696252,,,,,,,sngl,resources/DG.BMP,resources/Empty.png,Door2,-0.309821429,-0.033928571,1,0,0,0.663,optionLeft,40,4945,3,2,0,2,0,1,,,,,,,,,,,,,,,,,,,,,,,,,,,,,,,,,,,,,,,
,,,,,,,,2023-08-16_08h31.50.438,HF_wild_card,2022.2.4,MacIntel,29.41176471,62b2080f8f89f2f15c47d9ba,64d2fd46c836a06233681665,64dc7b5313ffd7a1de696252,,,,,,,sngl,resources/Empty.png,resources/DR.BMP,WildCard_NonEx,0.292857143,-0.007142857,1,0,0,1.095,optionRight,55,5000,3,3,0,3,0,1,,,,,,,,,,,,,,,,,,,,,,,,,,,,,,,,,,,,,,,
,,,,,,,,2023-08-16_08h31.50.438,HF_wild_card,2022.2.4,MacIntel,29.41176471,62b2080f8f89f2f15c47d9ba,64d2fd46c836a06233681665,64dc7b5313ffd7a1de696252,,,,,,,sngl,resources/DY.BMP,resources/Empty.png,Door3,-0.285714286,-0.054464286,1,0,0,0.663,optionLeft,70,5070,3,4,0,4,0,1,,,,,,,,,,,,,,,,,,,,,,,,,,,,,,,,,,,,,,,
,,,,,,,,2023-08-16_08h31.50.438,HF_wild_card,2022.2.4,MacIntel,29.41176471,62b2080f8f89f2f15c47d9ba,64d2fd46c836a06233681665,64dc7b5313ffd7a1de696252,,,,,,,sngl,resources/Empty.png,resources/DBN.BMP,Door4,0.310714286,-0.017857143,1,0,0,0.697,optionRight,60,5130,3,5,0,5,0,1,,,,,,,,,,,,,,,,,,,,,,,,,,,,,,,,,,,,,,,
,,,,,,,,2023-08-16_08h31.50.438,HF_wild_card,2022.2.4,MacIntel,29.41176471,62b2080f8f89f2f15c47d9ba,64d2fd46c836a06233681665,64dc7b5313ffd7a1de696252,,,,,,,ctch,resources/DY.BMP,resources/DG.BMP,Door2,0.340178571,-0.021428571,1,0,0,0.997,optionRight,20,5150,3,6,0,6,0,1,,,,,,,,,,,,,,,,,,,,,,,,,,,,,,,,,,,,,,,
,,,,,,,,2023-08-16_08h31.50.438,HF_wild_card,2022.2.4,MacIntel,29.41176471,62b2080f8f89f2f15c47d9ba,64d2fd46c836a06233681665,64dc7b5313ffd7a1de696252,,,,,,,decisionTrl,resources/DP.BMP,resources/DG.BMP,Door1,-0.317857143,-0.053571429,1,0,0,0.73,optionLeft,30,5180,3,7,0,7,0,1,,,,,,,,,,,,,,,,,,,,,,,,,,,,,,,,,,,,,,,
,,,,,,,,2023-08-16_08h31.50.438,HF_wild_card,2022.2.4,MacIntel,29.41176471,62b2080f8f89f2f15c47d9ba,64d2fd46c836a06233681665,64dc7b5313ffd7a1de696252,,,,,,,decisionTrl,resources/DR.BMP,resources/DP.BMP,WildCard_NonEx,-0.410714286,-0.023214286,1,0,0,1.029,optionLeft,55,5235,3,8,0,8,0,1,,,,,,,,,,,,,,,,,,,,,,,,,,,,,,,,,,,,,,,
,,,,,,,,2023-08-16_08h31.50.438,HF_wild_card,2022.2.4,MacIntel,29.41176471,62b2080f8f89f2f15c47d9ba,64d2fd46c836a06233681665,64dc7b5313ffd7a1de696252,,,,,,,decisionTrl,resources/DY.BMP,resources/DR.BMP,Door3,-0.222321429,-0.023214286,1,0,0,0.897,optionLeft,70,5305,3,9,0,9,0,1,,,,,,,,,,,,,,,,,,,,,,,,,,,,,,,,,,,,,,,
,,,,,,,,2023-08-16_08h31.50.438,HF_wild_card,2022.2.4,MacIntel,29.41176471,62b2080f8f89f2f15c47d9ba,64d2fd46c836a06233681665,64dc7b5313ffd7a1de696252,,,,,,,decisionTrl,resources/DY.BMP,resources/DBN.BMP,Door3,-0.372321429,-0.042857143,1,0,0,0.632,optionLeft,70,5375,3,10,0,10,0,1,,,,,,,,,,,,,,,,,,,,,,,,,,,,,,,,,,,,,,,
,,,,,,,,2023-08-16_08h31.50.438,HF_wild_card,2022.2.4,MacIntel,29.41176471,62b2080f8f89f2f15c47d9ba,64d2fd46c836a06233681665,64dc7b5313ffd7a1de696252,,,,,,,sngl,resources/Empty.png,resources/DY.BMP,Door3,0.241964286,-0.035714286,1,0,0,0.931,optionRight,70,5445,3,11,0,11,0,1,,,,,,,,,,,,,,,,,,,,,,,,,,,,,,,,,,,,,,,
,,,,,,,,2023-08-16_08h31.50.438,HF_wild_card,2022.2.4,MacIntel,29.41176471,62b2080f8f89f2f15c47d9ba,64d2fd46c836a06233681665,64dc7b5313ffd7a1de696252,,,,,,,sngl,resources/Empty.png,resources/DG.BMP,Door2,0.340178571,-0.019642857,1,0,0,0.731,optionRight,20,5465,3,12,0,12,0,1,,,,,,,,,,,,,,,,,,,,,,,,,,,,,,,,,,,,,,,
,,,,,,,,2023-08-16_08h31.50.438,HF_wild_card,2022.2.4,MacIntel,29.41176471,62b2080f8f89f2f15c47d9ba,64d2fd46c836a06233681665,64dc7b5313ffd7a1de696252,,,,,,,decisionTrl,resources/DBN.BMP,resources/DY.BMP,Door4,-0.3,-0.010714286,1,0,0,0.664,optionLeft,60,5525,3,13,0,13,0,1,,,,,,,,,,,,,,,,,,,,,,,,,,,,,,,,,,,,,,,
,,,,,,,,2023-08-16_08h31.50.438,HF_wild_card,2022.2.4,MacIntel,29.41176471,62b2080f8f89f2f15c47d9ba,64d2fd46c836a06233681665,64dc7b5313ffd7a1de696252,,,,,,,decisionTrl,resources/DG.BMP,resources/DP.BMP,Door1,0.247321429,-0.023214286,1,0,0,0.796,optionRight,30,5555,3,14,0,14,0,1,,,,,,,,,,,,,,,,,,,,,,,,,,,,,,,,,,,,,,,
,,,,,,,,2023-08-16_08h31.50.438,HF_wild_card,2022.2.4,MacIntel,29.41176471,62b2080f8f89f2f15c47d9ba,64d2fd46c836a06233681665,64dc7b5313ffd7a1de696252,,,,,,,decisionTrl,resources/DBN.BMP,resources/DY.BMP,Door4,-0.248214286,-0.045535714,1,0,0,0.764,optionLeft,80,5635,3,15,0,15,0,1,,,,,,,,,,,,,,,,,,,,,,,,,,,,,,,,,,,,,,,
,,,,,,,,2023-08-16_08h31.50.438,HF_wild_card,2022.2.4,MacIntel,29.41176471,62b2080f8f89f2f15c47d9ba,64d2fd46c836a06233681665,64dc7b5313ffd7a1de696252,,,,,,,decisionTrl,resources/DR.BMP,resources/DY.BMP,Door3,0.3125,-0.009821429,1,0,0,0.697,optionRight,70,5705,3,16,0,16,0,1,,,,,,,,,,,,,,,,,,,,,,,,,,,,,,,,,,,,,,,
,,,,,,,,2023-08-16_08h31.50.438,HF_wild_card,2022.2.4,MacIntel,29.41176471,62b2080f8f89f2f15c47d9ba,64d2fd46c836a06233681665,64dc7b5313ffd7a1de696252,,,,,,,ctch,resources/DG.BMP,resources/DY.BMP,Door3,0.340178571,-0.00625,1,0,0,0.629,optionRight,70,5775,3,17,0,17,0,1,,,,,,,,,,,,,,,,,,,,,,,,,,,,,,,,,,,,,,,
,,,,,,,,2023-08-16_08h31.50.438,HF_wild_card,2022.2.4,MacIntel,29.41176471,62b2080f8f89f2f15c47d9ba,64d2fd46c836a06233681665,64dc7b5313ffd7a1de696252,,,,,,,sngl,resources/DR.BMP,resources/Empty.png,WildCard_NonEx,-0.265178571,-0.045535714,1,0,0,0.697,optionLeft,55,5830,3,18,0,18,0,1,,,,,,,,,,,,,,,,,,,,,,,,,,,,,,,,,,,,,,,
,,,,,,,,2023-08-16_08h31.50.438,HF_wild_card,2022.2.4,MacIntel,29.41176471,62b2080f8f89f2f15c47d9ba,64d2fd46c836a06233681665,64dc7b5313ffd7a1de696252,,,,,,,decisionTrl,resources/DG.BMP,resources/DP.BMP,Door2,-0.335714286,-0.047321429,1,0,0,0.762,optionLeft,20,5850,3,19,0,19,0,1,,,,,,,,,,,,,,,,,,,,,,,,,,,,,,,,,,,,,,,
,,,,,,,,2023-08-16_08h31.50.438,HF_wild_card,2022.2.4,MacIntel,29.41176471,62b2080f8f89f2f15c47d9ba,64d2fd46c836a06233681665,64dc7b5313ffd7a1de696252,,,,,,,decisionTrl,resources/DG.BMP,resources/DR.BMP,WildCard_NonEx,0.340178571,-0.014285714,1,0,0,0.796,optionRight,55,5905,3,20,0,20,0,1,,,,,,,,,,,,,,,,,,,,,,,,,,,,,,,,,,,,,,,
,,,,,,,,2023-08-16_08h31.50.438,HF_wild_card,2022.2.4,MacIntel,29.41176471,62b2080f8f89f2f15c47d9ba,64d2fd46c836a06233681665,64dc7b5313ffd7a1de696252,,,,,,,decisionTrl,resources/DBN.BMP,resources/DY.BMP,Door4,-0.324107143,-0.03125,1,0,0,0.797,optionLeft,80,5985,3,21,0,21,0,1,,,,,,,,,,,,,,,,,,,,,,,,,,,,,,,,,,,,,,,
,,,,,,,,2023-08-16_08h31.50.438,HF_wild_card,2022.2.4,MacIntel,29.41176471,62b2080f8f89f2f15c47d9ba,64d2fd46c836a06233681665,64dc7b5313ffd7a1de696252,,,,,,,ctch,resources/DG.BMP,resources/DY.BMP,Door3,0.276785714,-0.016071429,1,0,0,1.029,optionRight,70,6055,3,22,0,22,0,1,,,,,,,,,,,,,,,,,,,,,,,,,,,,,,,,,,,,,,,
,,,,,,,,2023-08-16_08h31.50.438,HF_wild_card,2022.2.4,MacIntel,29.41176471,62b2080f8f89f2f15c47d9ba,64d2fd46c836a06233681665,64dc7b5313ffd7a1de696252,,,,,,,sngl,resources/DR.BMP,resources/Empty.png,WildCard_NonEx,-0.310714286,-0.033035714,1,0,0,0.664,optionLeft,45,6100,3,23,0,23,0,1,,,,,,,,,,,,,,,,,,,,,,,,,,,,,,,,,,,,,,,
,,,,,,,,2023-08-16_08h31.50.438,HF_wild_card,2022.2.4,MacIntel,29.41176471,62b2080f8f89f2f15c47d9ba,64d2fd46c836a06233681665,64dc7b5313ffd7a1de696252,,,,,,,ctch,resources/DP.BMP,resources/DBN.BMP,Door4,0.315178571,-0.025,1,0,0,0.697,optionRight,60,6160,3,24,0,24,0,1,,,,,,,,,,,,,,,,,,,,,,,,,,,,,,,,,,,,,,,
,,,,,,,,2023-08-16_08h31.50.438,HF_wild_card,2022.2.4,MacIntel,29.41176471,62b2080f8f89f2f15c47d9ba,64d2fd46c836a06233681665,64dc7b5313ffd7a1de696252,,,,,,,decisionTrl,resources/DY.BMP,resources/DBN.BMP,Door4,0.347321429,-0.020535714,1,0,0,0.731,optionRight,60,6220,3,25,0,25,0,1,,,,,,,,,,,,,,,,,,,,,,,,,,,,,,,,,,,,,,,
,,,,,,,,2023-08-16_08h31.50.438,HF_wild_card,2022.2.4,MacIntel,29.41176471,62b2080f8f89f2f15c47d9ba,64d2fd46c836a06233681665,64dc7b5313ffd7a1de696252,,,,,,,decisionTrl,resources/DBN.BMP,resources/DR.BMP,Door4,-0.347321429,-0.024107143,1,0,0,0.763,optionLeft,60,6280,3,26,0,26,0,1,,,,,,,,,,,,,,,,,,,,,,,,,,,,,,,,,,,,,,,
,,,,,,,,2023-08-16_08h31.50.438,HF_wild_card,2022.2.4,MacIntel,29.41176471,62b2080f8f89f2f15c47d9ba,64d2fd46c836a06233681665,64dc7b5313ffd7a1de696252,,,,,,,ctch,resources/DBN.BMP,resources/DP.BMP,Door4,-0.342857143,-0.036607143,1,0,0,0.73,optionLeft,80,6360,3,27,0,27,0,1,,,,,,,,,,,,,,,,,,,,,,,,,,,,,,,,,,,,,,,
,,,,,,,,2023-08-16_08h31.50.438,HF_wild_card,2022.2.4,MacIntel,29.41176471,62b2080f8f89f2f15c47d9ba,64d2fd46c836a06233681665,64dc7b5313ffd7a1de696252,,,,,,,ctch,resources/DP.BMP,resources/DBN.BMP,Door4,0.341071429,-0.017857143,1,0,0,0.662,optionRight,60,6420,3,28,0,28,0,1,,,,,,,,,,,,,,,,,,,,,,,,,,,,,,,,,,,,,,,
,,,,,,,,2023-08-16_08h31.50.438,HF_wild_card,2022.2.4,MacIntel,29.41176471,62b2080f8f89f2f15c47d9ba,64d2fd46c836a06233681665,64dc7b5313ffd7a1de696252,,,,,,,sngl,resources/Empty.png,resources/DR.BMP,WildCard_NonEx,0.290178571,-0.017857143,1,0,0,0.697,optionRight,45,6465,3,29,0,29,0,1,,,,,,,,,,,,,,,,,,,,,,,,,,,,,,,,,,,,,,,
,,,,,,,,2023-08-16_08h31.50.438,HF_wild_card,2022.2.4,MacIntel,29.41176471,62b2080f8f89f2f15c47d9ba,64d2fd46c836a06233681665,64dc7b5313ffd7a1de696252,,,,,,,decisionTrl,resources/DG.BMP,resources/DP.BMP,Door1,0.358035714,-0.013392857,1,0,0,0.963,optionRight,30,6495,3,30,0,30,0,1,,,,,,,,,,,,,,,,,,,,,,,,,,,,,,,,,,,,,,,
,,,,,,,,2023-08-16_08h31.50.438,HF_wild_card,2022.2.4,MacIntel,29.41176471,62b2080f8f89f2f15c47d9ba,64d2fd46c836a06233681665,64dc7b5313ffd7a1de696252,,,,,,,decisionTrl,resources/DP.BMP,resources/DG.BMP,Door1,-0.327678571,-0.045535714,1,0,0,0.796,optionLeft,30,6525,3,31,0,31,0,1,,,,,,,,,,,,,,,,,,,,,,,,,,,,,,,,,,,,,,,
,,,,,,,,2023-08-16_08h31.50.438,HF_wild_card,2022.2.4,MacIntel,29.41176471,62b2080f8f89f2f15c47d9ba,64d2fd46c836a06233681665,64dc7b5313ffd7a1de696252,,,,,,,decisionTrl,resources/DR.BMP,resources/DBN.BMP,Door4,0.400892857,-0.032142857,1,0,0,0.73,optionRight,60,6585,3,32,0,32,0,1,,,,,,,,,,,,,,,,,,,,,,,,,,,,,,,,,,,,,,,
,,,,,,,,2023-08-16_08h31.50.438,HF_wild_card,2022.2.4,MacIntel,29.41176471,62b2080f8f89f2f15c47d9ba,64d2fd46c836a06233681665,64dc7b5313ffd7a1de696252,,,,,,,decisionTrl,resources/DY.BMP,resources/DBN.BMP,Door3,-0.358035714,-0.024107143,1,0,0,1.297,optionLeft,70,6655,3,33,0,33,0,1,,,,,,,,,,,,,,,,,,,,,,,,,,,,,,,,,,,,,,,
,,,,,,,,2023-08-16_08h31.50.438,HF_wild_card,2022.2.4,MacIntel,29.41176471,62b2080f8f89f2f15c47d9ba,64d2fd46c836a06233681665,64dc7b5313ffd7a1de696252,,,,,,,decisionTrl,resources/DG.BMP,resources/DP.BMP,Door1,0.345535714,-0.023214286,1,0,0,0.93,optionRight,30,6685,3,34,0,34,0,1,,,,,,,,,,,,,,,,,,,,,,,,,,,,,,,,,,,,,,,
,,,,,,,,2023-08-16_08h31.50.438,HF_wild_card,2022.2.4,MacIntel,29.41176471,62b2080f8f89f2f15c47d9ba,64d2fd46c836a06233681665,64dc7b5313ffd7a1de696252,,,,,,,ctch,resources/DBN.BMP,resources/DP.BMP,Door4,-0.30625,-0.016964286,1,0,0,0.63,optionLeft,60,6745,3,35,0,35,0,1,,,,,,,,,,,,,,,,,,,,,,,,,,,,,,,,,,,,,,,
,,,,,,,,2023-08-16_08h31.50.438,HF_wild_card,2022.2.4,MacIntel,29.41176471,62b2080f8f89f2f15c47d9ba,64d2fd46c836a06233681665,64dc7b5313ffd7a1de696252,,,,,,,decisionTrl,resources/DP.BMP,resources/DG.BMP,Door2,0.291964286,-0.010714286,1,0,0,0.896,optionRight,20,6765,3,36,0,36,0,1,,,,,,,,,,,,,,,,,,,,,,,,,,,,,,,,,,,,,,,
,,,,,,,,2023-08-16_08h31.50.438,HF_wild_card,2022.2.4,MacIntel,29.41176471,62b2080f8f89f2f15c47d9ba,64d2fd46c836a06233681665,64dc7b5313ffd7a1de696252,,,,,,,sngl,resources/DP.BMP,resources/Empty.png,Door1,-0.359821429,-0.051785714,1,0,0,0.697,optionLeft,30,6795,3,37,0,37,0,1,,,,,,,,,,,,,,,,,,,,,,,,,,,,,,,,,,,,,,,
,,,,,,,,2023-08-16_08h31.50.438,HF_wild_card,2022.2.4,MacIntel,29.41176471,62b2080f8f89f2f15c47d9ba,64d2fd46c836a06233681665,64dc7b5313ffd7a1de696252,,,,,,,decisionTrl,resources/DP.BMP,resources/DG.BMP,Door1,-0.385714286,-0.033928571,1,0,0,1.197,optionLeft,30,6825,3,38,0,38,0,1,,,,,,,,,,,,,,,,,,,,,,,,,,,,,,,,,,,,,,,
,,,,,,,,2023-08-16_08h31.50.438,HF_wild_card,2022.2.4,MacIntel,29.41176471,62b2080f8f89f2f15c47d9ba,64d2fd46c836a06233681665,64dc7b5313ffd7a1de696252,,,,,,,decisionTrl,resources/DR.BMP,resources/DG.BMP,WildCard_NonEx,-0.29375,-0.004464286,1,0,0,0.997,optionLeft,55,6880,3,39,0,39,0,1,,,,,,,,,,,,,,,,,,,,,,,,,,,,,,,,,,,,,,,
,,,,,,,,2023-08-16_08h31.50.438,HF_wild_card,2022.2.4,MacIntel,29.41176471,62b2080f8f89f2f15c47d9ba,64d2fd46c836a06233681665,64dc7b5313ffd7a1de696252,,,,,,,ctch,resources/DY.BMP,resources/DG.BMP,Door3,-0.301785714,-0.041964286,1,0,0,0.898,optionLeft,70,6950,3,40,0,40,0,1,,,,,,,,,,,,,,,,,,,,,,,,,,,,,,,,,,,,,,,
,,,,,,,,2023-08-16_08h31.50.438,HF_wild_card,2022.2.4,MacIntel,29.41176471,62b2080f8f89f2f15c47d9ba,64d2fd46c836a06233681665,64dc7b5313ffd7a1de696252,,,,,,,decisionTrl,resources/DY.BMP,resources/DBN.BMP,Door4,0.422321429,-0.008035714,1,0,0,1.031,optionRight,80,7030,3,41,0,41,0,1,,,,,,,,,,,,,,,,,,,,,,,,,,,,,,,,,,,,,,,
,,,,,,,,2023-08-16_08h31.50.438,HF_wild_card,2022.2.4,MacIntel,29.41176471,62b2080f8f89f2f15c47d9ba,64d2fd46c836a06233681665,64dc7b5313ffd7a1de696252,,,,,,,decisionTrl,resources/DP.BMP,resources/DR.BMP,Door1,-0.309821429,-0.040178571,1,0,0,0.897,optionLeft,30,7060,3,42,0,42,0,1,,,,,,,,,,,,,,,,,,,,,,,,,,,,,,,,,,,,,,,
,,,,,,,,2023-08-16_08h31.50.438,HF_wild_card,2022.2.4,MacIntel,29.41176471,62b2080f8f89f2f15c47d9ba,64d2fd46c836a06233681665,64dc7b5313ffd7a1de696252,,,,,,,sngl,resources/Empty.png,resources/DP.BMP,Door1,0.289285714,-0.014285714,1,0,0,0.629,optionRight,30,7090,3,43,0,43,0,1,,,,,,,,,,,,,,,,,,,,,,,,,,,,,,,,,,,,,,,
,,,,,,,,2023-08-16_08h31.50.438,HF_wild_card,2022.2.4,MacIntel,29.41176471,62b2080f8f89f2f15c47d9ba,64d2fd46c836a06233681665,64dc7b5313ffd7a1de696252,,,,,,,,,,,,,,,,,,,,,,,,,,2,0,2,0,1,,,,,,,,,,,,,,,,,,,,,,,,,,,,,,,,,,
,,,,,,,,2023-08-16_08h31.50.438,HF_wild_card,2022.2.4,MacIntel,29.41176471,62b2080f8f89f2f15c47d9ba,64d2fd46c836a06233681665,64dc7b5313ffd7a1de696252,,,,,,,decisionTrl,resources/DY.BMP,resources/DB.BMP,Door3,-0.269642857,-0.09375,1,0,0,0.894,optionLeft,70,7160,4,0,0,0,0,1,,,,,,,,,,,,,,,,,,,,,,,,,,,,,,,,,,,,,,,
,,,,,,,,2023-08-16_08h31.50.438,HF_wild_card,2022.2.4,MacIntel,29.41176471,62b2080f8f89f2f15c47d9ba,64d2fd46c836a06233681665,64dc7b5313ffd7a1de696252,,,,,,,sngl,resources/DY.BMP,resources/Empty.png,Door3,-0.25,-0.038392857,1,0,0,0.798,optionLeft,70,7230,4,1,0,1,0,1,,,,,,,,,,,,,,,,,,,,,,,,,,,,,,,,,,,,,,,
,,,,,,,,2023-08-16_08h31.50.438,HF_wild_card,2022.2.4,MacIntel,29.41176471,62b2080f8f89f2f15c47d9ba,64d2fd46c836a06233681665,64dc7b5313ffd7a1de696252,,,,,,,sngl,resources/DBN.BMP,resources/Empty.png,Door4,-0.35,-0.034821429,1,0,0,0.73,optionLeft,60,7290,4,2,0,2,0,1,,,,,,,,,,,,,,,,,,,,,,,,,,,,,,,,,,,,,,,
,,,,,,,,2023-08-16_08h31.50.438,HF_wild_card,2022.2.4,MacIntel,29.41176471,62b2080f8f89f2f15c47d9ba,64d2fd46c836a06233681665,64dc7b5313ffd7a1de696252,,,,,,,decisionTrl,resources/DG.BMP,resources/DP.BMP,Door1,0.174107143,-0.039285714,1,0,0,1.429,optionRight,30,7320,4,3,0,3,0,1,,,,,,,,,,,,,,,,,,,,,,,,,,,,,,,,,,,,,,,
,,,,,,,,2023-08-16_08h31.50.438,HF_wild_card,2022.2.4,MacIntel,29.41176471,62b2080f8f89f2f15c47d9ba,64d2fd46c836a06233681665,64dc7b5313ffd7a1de696252,,,,,,,sngl,resources/Empty.png,resources/DY.BMP,Door3,0.260714286,-0.026785714,1,0,0,0.763,optionRight,70,7390,4,4,0,4,0,1,,,,,,,,,,,,,,,,,,,,,,,,,,,,,,,,,,,,,,,
,,,,,,,,2023-08-16_08h31.50.438,HF_wild_card,2022.2.4,MacIntel,29.41176471,62b2080f8f89f2f15c47d9ba,64d2fd46c836a06233681665,64dc7b5313ffd7a1de696252,,,,,,,ctch,resources/DG.BMP,resources/DY.BMP,Door3,0.311607143,-0.020535714,1,0,0,1.23,optionRight,70,7460,4,5,0,5,0,1,,,,,,,,,,,,,,,,,,,,,,,,,,,,,,,,,,,,,,,
,,,,,,,,2023-08-16_08h31.50.438,HF_wild_card,2022.2.4,MacIntel,29.41176471,62b2080f8f89f2f15c47d9ba,64d2fd46c836a06233681665,64dc7b5313ffd7a1de696252,,,,,,,ctch,resources/DP.BMP,resources/DBN.BMP,Door4,0.380357143,-0.008035714,1,0,0,0.764,optionRight,60,7520,4,6,0,6,0,1,,,,,,,,,,,,,,,,,,,,,,,,,,,,,,,,,,,,,,,
,,,,,,,,2023-08-16_08h31.50.438,HF_wild_card,2022.2.4,MacIntel,29.41176471,62b2080f8f89f2f15c47d9ba,64d2fd46c836a06233681665,64dc7b5313ffd7a1de696252,,,,,,,decisionTrl,resources/DG.BMP,resources/DP.BMP,Door1,0.409821429,-0.008928571,1,0,0,1.298,optionRight,30,7550,4,7,0,7,0,1,,,,,,,,,,,,,,,,,,,,,,,,,,,,,,,,,,,,,,,
,,,,,,,,2023-08-16_08h31.50.438,HF_wild_card,2022.2.4,MacIntel,29.41176471,62b2080f8f89f2f15c47d9ba,64d2fd46c836a06233681665,64dc7b5313ffd7a1de696252,,,,,,,ctch,resources/DBN.BMP,resources/DP.BMP,Door4,-0.295535714,-0.040178571,1,0,0,0.798,optionLeft,80,7630,4,8,0,8,0,1,,,,,,,,,,,,,,,,,,,,,,,,,,,,,,,,,,,,,,,
,,,,,,,,2023-08-16_08h31.50.438,HF_wild_card,2022.2.4,MacIntel,29.41176471,62b2080f8f89f2f15c47d9ba,64d2fd46c836a06233681665,64dc7b5313ffd7a1de696252,,,,,,,decisionTrl,resources/DG.BMP,resources/DP.BMP,Door1,0.280357143,-0.029464286,1,0,0,1.063,optionRight,30,7660,4,9,0,9,0,1,,,,,,,,,,,,,,,,,,,,,,,,,,,,,,,,,,,,,,,
,,,,,,,,2023-08-16_08h31.50.438,HF_wild_card,2022.2.4,MacIntel,29.41176471,62b2080f8f89f2f15c47d9ba,64d2fd46c836a06233681665,64dc7b5313ffd7a1de696252,,,,,,,decisionTrl,resources/DY.BMP,resources/DBN.BMP,Door4,0.383035714,-0.016964286,1,0,0,0.697,optionRight,60,7720,4,10,0,10,0,1,,,,,,,,,,,,,,,,,,,,,,,,,,,,,,,,,,,,,,,
,,,,,,,,2023-08-16_08h31.50.438,HF_wild_card,2022.2.4,MacIntel,29.41176471,62b2080f8f89f2f15c47d9ba,64d2fd46c836a06233681665,64dc7b5313ffd7a1de696252,,,,,,,decisionTrl,resources/DBN.BMP,resources/DY.BMP,Door3,0.358928571,-0.005357143,1,0,0,0.729,optionRight,70,7790,4,11,0,11,0,1,,,,,,,,,,,,,,,,,,,,,,,,,,,,,,,,,,,,,,,
,,,,,,,,2023-08-16_08h31.50.438,HF_wild_card,2022.2.4,MacIntel,29.41176471,62b2080f8f89f2f15c47d9ba,64d2fd46c836a06233681665,64dc7b5313ffd7a1de696252,,,,,,,sngl,resources/DG.BMP,resources/Empty.png,Door2,-0.302678571,-0.048214286,1,0,0,0.763,optionLeft,20,7810,4,12,0,12,0,1,,,,,,,,,,,,,,,,,,,,,,,,,,,,,,,,,,,,,,,
,,,,,,,,2023-08-16_08h31.50.438,HF_wild_card,2022.2.4,MacIntel,29.41176471,62b2080f8f89f2f15c47d9ba,64d2fd46c836a06233681665,64dc7b5313ffd7a1de696252,,,,,,,sngl,resources/DB.BMP,resources/Empty.png,WildCard_Ex,-0.336607143,-0.061607143,1,0,0,0.664,optionLeft,55,7865,4,13,0,13,0,1,,,,,,,,,,,,,,,,,,,,,,,,,,,,,,,,,,,,,,,
,,,,,,,,2023-08-16_08h31.50.438,HF_wild_card,2022.2.4,MacIntel,29.41176471,62b2080f8f89f2f15c47d9ba,64d2fd46c836a06233681665,64dc7b5313ffd7a1de696252,,,,,,,decisionTrl,resources/DBN.BMP,resources/DY.BMP,Door4,-0.335714286,-0.026785714,1,0,0,0.93,optionLeft,60,7925,4,14,0,14,0,1,,,,,,,,,,,,,,,,,,,,,,,,,,,,,,,,,,,,,,,
,,,,,,,,2023-08-16_08h31.50.438,HF_wild_card,2022.2.4,MacIntel,29.41176471,62b2080f8f89f2f15c47d9ba,64d2fd46c836a06233681665,64dc7b5313ffd7a1de696252,,,,,,,ctch,resources/DY.BMP,resources/DG.BMP,Door3,-0.322321429,-0.064285714,1,0,0,0.729,optionLeft,70,7995,4,15,0,15,0,1,,,,,,,,,,,,,,,,,,,,,,,,,,,,,,,,,,,,,,,
,,,,,,,,2023-08-16_08h31.50.438,HF_wild_card,2022.2.4,MacIntel,29.41176471,62b2080f8f89f2f15c47d9ba,64d2fd46c836a06233681665,64dc7b5313ffd7a1de696252,,,,,,,sngl,resources/Empty.png,resources/DP.BMP,Door1,0.352678571,-0.053571429,1,0,0,0.697,optionRight,30,8025,4,16,0,16,0,1,,,,,,,,,,,,,,,,,,,,,,,,,,,,,,,,,,,,,,,
,,,,,,,,2023-08-16_08h31.50.438,HF_wild_card,2022.2.4,MacIntel,29.41176471,62b2080f8f89f2f15c47d9ba,64d2fd46c836a06233681665,64dc7b5313ffd7a1de696252,,,,,,,sngl,resources/DB.BMP,resources/Empty.png,WildCard_Ex,-0.290178571,-0.038392857,1,0,0,0.796,optionLeft,45,8070,4,17,0,17,0,1,,,,,,,,,,,,,,,,,,,,,,,,,,,,,,,,,,,,,,,
,,,,,,,,2023-08-16_08h31.50.438,HF_wild_card,2022.2.4,MacIntel,29.41176471,62b2080f8f89f2f15c47d9ba,64d2fd46c836a06233681665,64dc7b5313ffd7a1de696252,,,,,,,ctch,resources/DBN.BMP,resources/DP.BMP,Door4,-0.291964286,-0.053571429,1,0,0,0.797,optionLeft,80,8150,4,18,0,18,0,1,,,,,,,,,,,,,,,,,,,,,,,,,,,,,,,,,,,,,,,
,,,,,,,,2023-08-16_08h31.50.438,HF_wild_card,2022.2.4,MacIntel,29.41176471,62b2080f8f89f2f15c47d9ba,64d2fd46c836a06233681665,64dc7b5313ffd7a1de696252,,,,,,,sngl,resources/Empty.png,resources/DB.BMP,WildCard_Ex,0.347321429,-0.034821429,1,0,0,0.664,optionRight,55,8205,4,19,0,19,0,1,,,,,,,,,,,,,,,,,,,,,,,,,,,,,,,,,,,,,,,
,,,,,,,,2023-08-16_08h31.50.438,HF_wild_card,2022.2.4,MacIntel,29.41176471,62b2080f8f89f2f15c47d9ba,64d2fd46c836a06233681665,64dc7b5313ffd7a1de696252,,,,,,,sngl,resources/DP.BMP,resources/Empty.png,Door1,-0.338392857,-0.033035714,1,0,0,0.696,optionLeft,30,8235,4,20,0,20,0,1,,,,,,,,,,,,,,,,,,,,,,,,,,,,,,,,,,,,,,,
,,,,,,,,2023-08-16_08h31.50.438,HF_wild_card,2022.2.4,MacIntel,29.41176471,62b2080f8f89f2f15c47d9ba,64d2fd46c836a06233681665,64dc7b5313ffd7a1de696252,,,,,,,sngl,resources/Empty.png,resources/DG.BMP,Door2,0.366964286,-0.016964286,1,0,0,0.63,optionRight,40,8275,4,21,0,21,0,1,,,,,,,,,,,,,,,,,,,,,,,,,,,,,,,,,,,,,,,
,,,,,,,,2023-08-16_08h31.50.438,HF_wild_card,2022.2.4,MacIntel,29.41176471,62b2080f8f89f2f15c47d9ba,64d2fd46c836a06233681665,64dc7b5313ffd7a1de696252,,,,,,,decisionTrl,resources/DY.BMP,resources/DBN.BMP,Door4,0.230357143,-0.01875,1,0,0,1.196,optionRight,60,8335,4,22,0,22,0,1,,,,,,,,,,,,,,,,,,,,,,,,,,,,,,,,,,,,,,,
,,,,,,,,2023-08-16_08h31.50.438,HF_wild_card,2022.2.4,MacIntel,29.41176471,62b2080f8f89f2f15c47d9ba,64d2fd46c836a06233681665,64dc7b5313ffd7a1de696252,,,,,,,decisionTrl,resources/DBN.BMP,resources/DY.BMP,Door3,0.316964286,-0.024107143,1,0,0,0.663,optionRight,70,8405,4,23,0,23,0,1,,,,,,,,,,,,,,,,,,,,,,,,,,,,,,,,,,,,,,,
,,,,,,,,2023-08-16_08h31.50.438,HF_wild_card,2022.2.4,MacIntel,29.41176471,62b2080f8f89f2f15c47d9ba,64d2fd46c836a06233681665,64dc7b5313ffd7a1de696252,,,,,,,decisionTrl,resources/DG.BMP,resources/DP.BMP,Door1,0.329464286,-0.021428571,1,0,0,0.963,optionRight,30,8435,4,24,0,24,0,1,,,,,,,,,,,,,,,,,,,,,,,,,,,,,,,,,,,,,,,
,,,,,,,,2023-08-16_08h31.50.438,HF_wild_card,2022.2.4,MacIntel,29.41176471,62b2080f8f89f2f15c47d9ba,64d2fd46c836a06233681665,64dc7b5313ffd7a1de696252,,,,,,,decisionTrl,resources/DP.BMP,resources/DG.BMP,Door1,-0.374107143,-0.058928571,1,0,0,1.464,optionLeft,30,8465,4,25,0,25,0,1,,,,,,,,,,,,,,,,,,,,,,,,,,,,,,,,,,,,,,,
,,,,,,,,2023-08-16_08h31.50.438,HF_wild_card,2022.2.4,MacIntel,29.41176471,62b2080f8f89f2f15c47d9ba,64d2fd46c836a06233681665,64dc7b5313ffd7a1de696252,,,,,,,sngl,resources/Empty.png,resources/DB.BMP,WildCard_Ex,0.316964286,-0.022321429,1,0,0,0.697,optionRight,45,8510,4,26,0,26,0,1,,,,,,,,,,,,,,,,,,,,,,,,,,,,,,,,,,,,,,,
,,,,,,,,2023-08-16_08h31.50.438,HF_wild_card,2022.2.4,MacIntel,29.41176471,62b2080f8f89f2f15c47d9ba,64d2fd46c836a06233681665,64dc7b5313ffd7a1de696252,,,,,,,decisionTrl,resources/DB.BMP,resources/DBN.BMP,Door4,0.309821429,-0.002678571,1,0,0,1.396,optionRight,60,8570,4,27,0,27,0,1,,,,,,,,,,,,,,,,,,,,,,,,,,,,,,,,,,,,,,,
,,,,,,,,2023-08-16_08h31.50.438,HF_wild_card,2022.2.4,MacIntel,29.41176471,62b2080f8f89f2f15c47d9ba,64d2fd46c836a06233681665,64dc7b5313ffd7a1de696252,,,,,,,decisionTrl,resources/DB.BMP,resources/DY.BMP,WildCard_Ex,-0.292857143,-0.059821429,1,0,0,0.863,optionLeft,55,8625,4,28,0,28,0,1,,,,,,,,,,,,,,,,,,,,,,,,,,,,,,,,,,,,,,,
,,,,,,,,2023-08-16_08h31.50.438,HF_wild_card,2022.2.4,MacIntel,29.41176471,62b2080f8f89f2f15c47d9ba,64d2fd46c836a06233681665,64dc7b5313ffd7a1de696252,,,,,,,decisionTrl,resources/DY.BMP,resources/DBN.BMP,Door3,-0.196428571,-0.042857143,1,0,0,0.73,optionLeft,70,8695,4,29,0,29,0,1,,,,,,,,,,,,,,,,,,,,,,,,,,,,,,,,,,,,,,,
,,,,,,,,2023-08-16_08h31.50.438,HF_wild_card,2022.2.4,MacIntel,29.41176471,62b2080f8f89f2f15c47d9ba,64d2fd46c836a06233681665,64dc7b5313ffd7a1de696252,,,,,,,ctch,resources/DY.BMP,resources/DG.BMP,Door3,-0.250892857,-0.044642857,1,0,0,1.231,optionLeft,70,8765,4,30,0,30,0,1,,,,,,,,,,,,,,,,,,,,,,,,,,,,,,,,,,,,,,,
,,,,,,,,2023-08-16_08h31.50.438,HF_wild_card,2022.2.4,MacIntel,29.41176471,62b2080f8f89f2f15c47d9ba,64d2fd46c836a06233681665,64dc7b5313ffd7a1de696252,,,,,,,decisionTrl,resources/DP.BMP,resources/DG.BMP,Door1,-0.316964286,-0.0375,1,0,0,0.996,optionLeft,30,8795,4,31,0,31,0,1,,,,,,,,,,,,,,,,,,,,,,,,,,,,,,,,,,,,,,,
,,,,,,,,2023-08-16_08h31.50.438,HF_wild_card,2022.2.4,MacIntel,29.41176471,62b2080f8f89f2f15c47d9ba,64d2fd46c836a06233681665,64dc7b5313ffd7a1de696252,,,,,,,decisionTrl,resources/DBN.BMP,resources/DB.BMP,Door4,-0.241964286,-0.00625,1,0,0,0.997,optionLeft,60,8855,4,32,0,32,0,1,,,,,,,,,,,,,,,,,,,,,,,,,,,,,,,,,,,,,,,
,,,,,,,,2023-08-16_08h31.50.438,HF_wild_card,2022.2.4,MacIntel,29.41176471,62b2080f8f89f2f15c47d9ba,64d2fd46c836a06233681665,64dc7b5313ffd7a1de696252,,,,,,,ctch,resources/DP.BMP,resources/DBN.BMP,Door4,0.322321429,-0.022321429,1,0,0,0.731,optionRight,60,8915,4,33,0,33,0,1,,,,,,,,,,,,,,,,,,,,,,,,,,,,,,,,,,,,,,,
,,,,,,,,2023-08-16_08h31.50.438,HF_wild_card,2022.2.4,MacIntel,29.41176471,62b2080f8f89f2f15c47d9ba,64d2fd46c836a06233681665,64dc7b5313ffd7a1de696252,,,,,,,sngl,resources/Empty.png,resources/DBN.BMP,Door4,0.340178571,-0.029464286,1,0,0,0.564,optionRight,80,8995,4,34,0,34,0,1,,,,,,,,,,,,,,,,,,,,,,,,,,,,,,,,,,,,,,,
,,,,,,,,2023-08-16_08h31.50.438,HF_wild_card,2022.2.4,MacIntel,29.41176471,62b2080f8f89f2f15c47d9ba,64d2fd46c836a06233681665,64dc7b5313ffd7a1de696252,,,,,,,decisionTrl,resources/DB.BMP,resources/DP.BMP,WildCard_Ex,-0.365178571,-0.050892857,1,0,0,0.896,optionLeft,45,9040,4,35,0,35,0,1,,,,,,,,,,,,,,,,,,,,,,,,,,,,,,,,,,,,,,,
,,,,,,,,2023-08-16_08h31.50.438,HF_wild_card,2022.2.4,MacIntel,29.41176471,62b2080f8f89f2f15c47d9ba,64d2fd46c836a06233681665,64dc7b5313ffd7a1de696252,,,,,,,decisionTrl,resources/DY.BMP,resources/DBN.BMP,Door3,-0.297321429,-0.008928571,1,0,0,0.93,optionLeft,70,9110,4,36,0,36,0,1,,,,,,,,,,,,,,,,,,,,,,,,,,,,,,,,,,,,,,,
,,,,,,,,2023-08-16_08h31.50.438,HF_wild_card,2022.2.4,MacIntel,29.41176471,62b2080f8f89f2f15c47d9ba,64d2fd46c836a06233681665,64dc7b5313ffd7a1de696252,,,,,,,ctch,resources/DG.BMP,resources/DY.BMP,Door3,0.380357143,-0.019642857,1,0,0,0.898,optionRight,70,9180,4,37,0,37,0,1,,,,,,,,,,,,,,,,,,,,,,,,,,,,,,,,,,,,,,,
,,,,,,,,2023-08-16_08h31.50.438,HF_wild_card,2022.2.4,MacIntel,29.41176471,62b2080f8f89f2f15c47d9ba,64d2fd46c836a06233681665,64dc7b5313ffd7a1de696252,,,,,,,decisionTrl,resources/DP.BMP,resources/DG.BMP,Door1,-0.301785714,-0.03125,1,0,0,1.495,optionLeft,30,9210,4,38,0,38,0,1,,,,,,,,,,,,,,,,,,,,,,,,,,,,,,,,,,,,,,,
,,,,,,,,2023-08-16_08h31.50.438,HF_wild_card,2022.2.4,MacIntel,29.41176471,62b2080f8f89f2f15c47d9ba,64d2fd46c836a06233681665,64dc7b5313ffd7a1de696252,,,,,,,decisionTrl,resources/DB.BMP,resources/DG.BMP,WildCard_Ex,-0.215178571,0.001785714,1,0,0,1.03,optionLeft,45,9255,4,39,0,39,0,1,,,,,,,,,,,,,,,,,,,,,,,,,,,,,,,,,,,,,,,
,,,,,,,,2023-08-16_08h31.50.438,HF_wild_card,2022.2.4,MacIntel,29.41176471,62b2080f8f89f2f15c47d9ba,64d2fd46c836a06233681665,64dc7b5313ffd7a1de696252,,,,,,,decisionTrl,resources/DBN.BMP,resources/DY.BMP,Door4,-0.276785714,0.001785714,1,0,0,0.797,optionLeft,60,9315,4,40,0,40,0,1,,,,,,,,,,,,,,,,,,,,,,,,,,,,,,,,,,,,,,,
,,,,,,,,2023-08-16_08h31.50.438,HF_wild_card,2022.2.4,MacIntel,29.41176471,62b2080f8f89f2f15c47d9ba,64d2fd46c836a06233681665,64dc7b5313ffd7a1de696252,,,,,,,decisionTrl,resources/DP.BMP,resources/DG.BMP,Door1,-0.447321429,0.008928571,1,0,0,1.162,optionLeft,30,9345,4,41,0,41,0,1,,,,,,,,,,,,,,,,,,,,,,,,,,,,,,,,,,,,,,,
,,,,,,,,2023-08-16_08h31.50.438,HF_wild_card,2022.2.4,MacIntel,29.41176471,62b2080f8f89f2f15c47d9ba,64d2fd46c836a06233681665,64dc7b5313ffd7a1de696252,,,,,,,decisionTrl,resources/DG.BMP,resources/DB.BMP,WildCard_Ex,0.229464286,0.004464286,1,0,0,0.862,optionRight,45,9390,4,42,0,42,0,1,,,,,,,,,,,,,,,,,,,,,,,,,,,,,,,,,,,,,,,
,,,,,,,,2023-08-16_08h31.50.438,HF_wild_card,2022.2.4,MacIntel,29.41176471,62b2080f8f89f2f15c47d9ba,64d2fd46c836a06233681665,64dc7b5313ffd7a1de696252,,,,,,,decisionTrl,resources/DP.BMP,resources/DB.BMP,WildCard_Ex,0.260714286,0.004464286,1,0,0,1.296,optionRight,45,9435,4,43,0,43,0,1,,,,,,,,,,,,,,,,,,,,,,,,,,,,,,,,,,,,,,,
,,,,,,,,2023-08-16_08h31.50.438,HF_wild_card,2022.2.4,MacIntel,29.41176471,62b2080f8f89f2f15c47d9ba,64d2fd46c836a06233681665,64dc7b5313ffd7a1de696252,,,,,,,,,,,,,,,,,,,,,,,,,,3,0,3,0,1,,,,,,,,,,,,,,,,,,,,,,,,,,,,,,,,,,
,,,,,,,,2023-08-16_08h31.50.438,HF_wild_card,2022.2.4,MacIntel,29.41176471,62b2080f8f89f2f15c47d9ba,64d2fd46c836a06233681665,64dc7b5313ffd7a1de696252,,,,,,,decisionTrl,resources/DY.BMP,resources/DBN.BMP,Door3,-0.26875,-0.170535714,1,0,0,1.161,optionLeft,70,9505,5,0,0,0,0,1,,,,,,,,,,,,,,,,,,,,,,,,,,,,,,,,,,,,,,,
,,,,,,,,2023-08-16_08h31.50.438,HF_wild_card,2022.2.4,MacIntel,29.41176471,62b2080f8f89f2f15c47d9ba,64d2fd46c836a06233681665,64dc7b5313ffd7a1de696252,,,,,,,decisionTrl,resources/DBN.BMP,resources/DY.BMP,Door4,-0.179464286,-0.007142857,1,0,0,0.73,optionLeft,60,9565,5,1,0,1,0,1,,,,,,,,,,,,,,,,,,,,,,,,,,,,,,,,,,,,,,,
,,,,,,,,2023-08-16_08h31.50.438,HF_wild_card,2022.2.4,MacIntel,29.41176471,62b2080f8f89f2f15c47d9ba,64d2fd46c836a06233681665,64dc7b5313ffd7a1de696252,,,,,,,decisionTrl,resources/DBN.BMP,resources/DY.BMP,Door3,0.288392857,-0.044642857,1,0,0,0.631,optionRight,70,9635,5,2,0,2,0,1,,,,,,,,,,,,,,,,,,,,,,,,,,,,,,,,,,,,,,,
,,,,,,,,2023-08-16_08h31.50.438,HF_wild_card,2022.2.4,MacIntel,29.41176471,62b2080f8f89f2f15c47d9ba,64d2fd46c836a06233681665,64dc7b5313ffd7a1de696252,,,,,,,ctch,resources/DY.BMP,resources/DG.BMP,Door3,-0.275892857,-0.048214286,1,0,0,0.696,optionLeft,70,9705,5,3,0,3,0,1,,,,,,,,,,,,,,,,,,,,,,,,,,,,,,,,,,,,,,,
,,,,,,,,2023-08-16_08h31.50.438,HF_wild_card,2022.2.4,MacIntel,29.41176471,62b2080f8f89f2f15c47d9ba,64d2fd46c836a06233681665,64dc7b5313ffd7a1de696252,,,,,,,ctch,resources/DG.BMP,resources/DY.BMP,Door3,0.285714286,-0.035714286,1,0,0,0.629,optionRight,70,9775,5,4,0,4,0,1,,,,,,,,,,,,,,,,,,,,,,,,,,,,,,,,,,,,,,,
,,,,,,,,2023-08-16_08h31.50.438,HF_wild_card,2022.2.4,MacIntel,29.41176471,62b2080f8f89f2f15c47d9ba,64d2fd46c836a06233681665,64dc7b5313ffd7a1de696252,,,,,,,sngl,resources/DB.BMP,resources/Empty.png,WildCard_Ex,-0.276785714,-0.025,1,0,0,0.663,optionLeft,55,9830,5,5,0,5,0,1,,,,,,,,,,,,,,,,,,,,,,,,,,,,,,,,,,,,,,,
,,,,,,,,2023-08-16_08h31.50.438,HF_wild_card,2022.2.4,MacIntel,29.41176471,62b2080f8f89f2f15c47d9ba,64d2fd46c836a06233681665,64dc7b5313ffd7a1de696252,,,,,,,decisionTrl,resources/DP.BMP,resources/DG.BMP,Door1,-0.295535714,0.003571429,1,0,0,1.096,optionLeft,30,9860,5,6,0,6,0,1,,,,,,,,,,,,,,,,,,,,,,,,,,,,,,,,,,,,,,,
,,,,,,,,2023-08-16_08h31.50.438,HF_wild_card,2022.2.4,MacIntel,29.41176471,62b2080f8f89f2f15c47d9ba,64d2fd46c836a06233681665,64dc7b5313ffd7a1de696252,,,,,,,sngl,resources/DG.BMP,resources/Empty.png,Door2,-0.205357143,0.000892857,1,0,0,0.63,optionLeft,40,9900,5,7,0,7,0,1,,,,,,,,,,,,,,,,,,,,,,,,,,,,,,,,,,,,,,,
,,,,,,,,2023-08-16_08h31.50.438,HF_wild_card,2022.2.4,MacIntel,29.41176471,62b2080f8f89f2f15c47d9ba,64d2fd46c836a06233681665,64dc7b5313ffd7a1de696252,,,,,,,decisionTrl,resources/DP.BMP,resources/DG.BMP,Door1,-0.369642857,0.007142857,1,0,0,1.097,optionLeft,30,9930,5,8,0,8,0,1,,,,,,,,,,,,,,,,,,,,,,,,,,,,,,,,,,,,,,,
,,,,,,,,2023-08-16_08h31.50.438,HF_wild_card,2022.2.4,MacIntel,29.41176471,62b2080f8f89f2f15c47d9ba,64d2fd46c836a06233681665,64dc7b5313ffd7a1de696252,,,,,,,sngl,resources/DB.BMP,resources/Empty.png,WildCard_Ex,-0.261607143,0.000892857,1,0,0,0.663,optionLeft,45,9975,5,9,0,9,0,1,,,,,,,,,,,,,,,,,,,,,,,,,,,,,,,,,,,,,,,
,,,,,,,,2023-08-16_08h31.50.438,HF_wild_card,2022.2.4,MacIntel,29.41176471,62b2080f8f89f2f15c47d9ba,64d2fd46c836a06233681665,64dc7b5313ffd7a1de696252,,,,,,,decisionTrl,resources/DBN.BMP,resources/DY.BMP,Door4,-0.269642857,0.007142857,1,0,0,0.696,optionLeft,60,10035,5,10,0,10,0,1,,,,,,,,,,,,,,,,,,,,,,,,,,,,,,,,,,,,,,,
,,,,,,,,2023-08-16_08h31.50.438,HF_wild_card,2022.2.4,MacIntel,29.41176471,62b2080f8f89f2f15c47d9ba,64d2fd46c836a06233681665,64dc7b5313ffd7a1de696252,,,,,,,ctch,resources/DBN.BMP,resources/DP.BMP,Door4,-0.194642857,-0.002678571,1,0,0,0.63,optionLeft,80,10115,5,11,0,11,0,1,,,,,,,,,,,,,,,,,,,,,,,,,,,,,,,,,,,,,,,
,,,,,,,,2023-08-16_08h31.50.438,HF_wild_card,2022.2.4,MacIntel,29.41176471,62b2080f8f89f2f15c47d9ba,64d2fd46c836a06233681665,64dc7b5313ffd7a1de696252,,,,,,,decisionTrl,resources/DG.BMP,resources/DP.BMP,Door1,0.175892857,-0.023214286,1,0,0,0.961,optionRight,30,10145,5,12,0,12,0,1,,,,,,,,,,,,,,,,,,,,,,,,,,,,,,,,,,,,,,,
,,,,,,,,2023-08-16_08h31.50.438,HF_wild_card,2022.2.4,MacIntel,29.41176471,62b2080f8f89f2f15c47d9ba,64d2fd46c836a06233681665,64dc7b5313ffd7a1de696252,,,,,,,decisionTrl,resources/DBN.BMP,resources/DY.BMP,Door4,-0.234821429,-0.01875,1,0,0,0.629,optionLeft,60,10205,5,13,0,13,0,1,,,,,,,,,,,,,,,,,,,,,,,,,,,,,,,,,,,,,,,
,,,,,,,,2023-08-16_08h31.50.438,HF_wild_card,2022.2.4,MacIntel,29.41176471,62b2080f8f89f2f15c47d9ba,64d2fd46c836a06233681665,64dc7b5313ffd7a1de696252,,,,,,,ctch,resources/DG.BMP,resources/DY.BMP,Door3,0.253571429,-0.0125,1,0,0,0.798,optionRight,70,10275,5,14,0,14,0,1,,,,,,,,,,,,,,,,,,,,,,,,,,,,,,,,,,,,,,,
,,,,,,,,2023-08-16_08h31.50.438,HF_wild_card,2022.2.4,MacIntel,29.41176471,62b2080f8f89f2f15c47d9ba,64d2fd46c836a06233681665,64dc7b5313ffd7a1de696252,,,,,,,ctch,resources/DP.BMP,resources/DBN.BMP,Door4,0.246428571,-0.007142857,1,0,0,0.63,optionRight,80,10355,5,15,0,15,0,1,,,,,,,,,,,,,,,,,,,,,,,,,,,,,,,,,,,,,,,
,,,,,,,,2023-08-16_08h31.50.438,HF_wild_card,2022.2.4,MacIntel,29.41176471,62b2080f8f89f2f15c47d9ba,64d2fd46c836a06233681665,64dc7b5313ffd7a1de696252,,,,,,,sngl,resources/Empty.png,resources/DP.BMP,Door1,0.270535714,-0.010714286,1,0,0,0.631,optionRight,30,10385,5,16,0,16,0,1,,,,,,,,,,,,,,,,,,,,,,,,,,,,,,,,,,,,,,,
,,,,,,,,2023-08-16_08h31.50.438,HF_wild_card,2022.2.4,MacIntel,29.41176471,62b2080f8f89f2f15c47d9ba,64d2fd46c836a06233681665,64dc7b5313ffd7a1de696252,,,,,,,decisionTrl,resources/DY.BMP,resources/DB.BMP,Door3,-0.191071429,-0.017857143,1,0,0,0.73,optionLeft,70,10455,5,17,0,17,0,1,,,,,,,,,,,,,,,,,,,,,,,,,,,,,,,,,,,,,,,
,,,,,,,,2023-08-16_08h31.50.438,HF_wild_card,2022.2.4,MacIntel,29.41176471,62b2080f8f89f2f15c47d9ba,64d2fd46c836a06233681665,64dc7b5313ffd7a1de696252,,,,,,,decisionTrl,resources/DG.BMP,resources/DP.BMP,Door1,0.189285714,-0.021428571,1,0,0,0.897,optionRight,30,10485,5,18,0,18,0,1,,,,,,,,,,,,,,,,,,,,,,,,,,,,,,,,,,,,,,,
,,,,,,,,2023-08-16_08h31.50.438,HF_wild_card,2022.2.4,MacIntel,29.41176471,62b2080f8f89f2f15c47d9ba,64d2fd46c836a06233681665,64dc7b5313ffd7a1de696252,,,,,,,ctch,resources/DBN.BMP,resources/DP.BMP,Door4,-0.165178571,-0.008928571,1,0,0,0.664,optionLeft,60,10545,5,19,0,19,0,1,,,,,,,,,,,,,,,,,,,,,,,,,,,,,,,,,,,,,,,
,,,,,,,,2023-08-16_08h31.50.438,HF_wild_card,2022.2.4,MacIntel,29.41176471,62b2080f8f89f2f15c47d9ba,64d2fd46c836a06233681665,64dc7b5313ffd7a1de696252,,,,,,,decisionTrl,resources/DBN.BMP,resources/DB.BMP,Door4,-0.229464286,-0.024107143,1,0,0,0.63,optionLeft,60,10605,5,20,0,20,0,1,,,,,,,,,,,,,,,,,,,,,,,,,,,,,,,,,,,,,,,
,,,,,,,,2023-08-16_08h31.50.438,HF_wild_card,2022.2.4,MacIntel,29.41176471,62b2080f8f89f2f15c47d9ba,64d2fd46c836a06233681665,64dc7b5313ffd7a1de696252,,,,,,,decisionTrl,resources/DG.BMP,resources/DP.BMP,Door1,0.16875,-0.035714286,1,0,0,0.93,optionRight,30,10635,5,21,0,21,0,1,,,,,,,,,,,,,,,,,,,,,,,,,,,,,,,,,,,,,,,
,,,,,,,,2023-08-16_08h31.50.438,HF_wild_card,2022.2.4,MacIntel,29.41176471,62b2080f8f89f2f15c47d9ba,64d2fd46c836a06233681665,64dc7b5313ffd7a1de696252,,,,,,,decisionTrl,resources/DY.BMP,resources/DBN.BMP,Door4,0.173214286,-0.008035714,1,0,0,0.763,optionRight,80,10715,5,22,0,22,0,1,,,,,,,,,,,,,,,,,,,,,,,,,,,,,,,,,,,,,,,
,,,,,,,,2023-08-16_08h31.50.438,HF_wild_card,2022.2.4,MacIntel,29.41176471,62b2080f8f89f2f15c47d9ba,64d2fd46c836a06233681665,64dc7b5313ffd7a1de696252,,,,,,,decisionTrl,resources/DY.BMP,resources/DBN.BMP,Door4,0.250892857,-0.003571429,1,0,0,0.597,optionRight,80,10795,5,23,0,23,0,1,,,,,,,,,,,,,,,,,,,,,,,,,,,,,,,,,,,,,,,
,,,,,,,,2023-08-16_08h31.50.438,HF_wild_card,2022.2.4,MacIntel,29.41176471,62b2080f8f89f2f15c47d9ba,64d2fd46c836a06233681665,64dc7b5313ffd7a1de696252,,,,,,,ctch,resources/DY.BMP,resources/DG.BMP,Door3,-0.165178571,-0.039285714,1,0,0,0.664,optionLeft,70,10865,5,24,0,24,0,1,,,,,,,,,,,,,,,,,,,,,,,,,,,,,,,,,,,,,,,
,,,,,,,,2023-08-16_08h31.50.438,HF_wild_card,2022.2.4,MacIntel,29.41176471,62b2080f8f89f2f15c47d9ba,64d2fd46c836a06233681665,64dc7b5313ffd7a1de696252,,,,,,,sngl,resources/Empty.png,resources/DB.BMP,WildCard_Ex,0.240178571,-0.025892857,1,0,0,0.564,optionRight,55,10920,5,25,0,25,0,1,,,,,,,,,,,,,,,,,,,,,,,,,,,,,,,,,,,,,,,
,,,,,,,,2023-08-16_08h31.50.438,HF_wild_card,2022.2.4,MacIntel,29.41176471,62b2080f8f89f2f15c47d9ba,64d2fd46c836a06233681665,64dc7b5313ffd7a1de696252,,,,,,,decisionTrl,resources/DB.BMP,resources/DY.BMP,WildCard_Ex,-0.186607143,-0.014285714,1,0,0,0.729,optionLeft,55,10975,5,26,0,26,0,1,,,,,,,,,,,,,,,,,,,,,,,,,,,,,,,,,,,,,,,
,,,,,,,,2023-08-16_08h31.50.438,HF_wild_card,2022.2.4,MacIntel,29.41176471,62b2080f8f89f2f15c47d9ba,64d2fd46c836a06233681665,64dc7b5313ffd7a1de696252,,,,,,,sngl,resources/Empty.png,resources/DBN.BMP,Door4,0.229464286,-0.014285714,1,0,0,0.629,optionRight,60,11035,5,27,0,27,0,1,,,,,,,,,,,,,,,,,,,,,,,,,,,,,,,,,,,,,,,
,,,,,,,,2023-08-16_08h31.50.438,HF_wild_card,2022.2.4,MacIntel,29.41176471,62b2080f8f89f2f15c47d9ba,64d2fd46c836a06233681665,64dc7b5313ffd7a1de696252,,,,,,,decisionTrl,resources/DG.BMP,resources/DP.BMP,Door1,0.207142857,-0.022321429,1,0,0,0.73,optionRight,30,11065,5,28,0,28,0,1,,,,,,,,,,,,,,,,,,,,,,,,,,,,,,,,,,,,,,,
,,,,,,,,2023-08-16_08h31.50.438,HF_wild_card,2022.2.4,MacIntel,29.41176471,62b2080f8f89f2f15c47d9ba,64d2fd46c836a06233681665,64dc7b5313ffd7a1de696252,,,,,,,decisionTrl,resources/DY.BMP,resources/DBN.BMP,Door3,-0.1625,-0.005357143,1,0,0,1.031,optionLeft,70,11135,5,29,0,29,0,1,,,,,,,,,,,,,,,,,,,,,,,,,,,,,,,,,,,,,,,
,,,,,,,,2023-08-16_08h31.50.438,HF_wild_card,2022.2.4,MacIntel,29.41176471,62b2080f8f89f2f15c47d9ba,64d2fd46c836a06233681665,64dc7b5313ffd7a1de696252,,,,,,,sngl,resources/Empty.png,resources/DY.BMP,Door3,0.225,0.013392857,1,0,0,0.63,optionRight,70,11205,5,30,0,30,0,1,,,,,,,,,,,,,,,,,,,,,,,,,,,,,,,,,,,,,,,
,,,,,,,,2023-08-16_08h31.50.438,HF_wild_card,2022.2.4,MacIntel,29.41176471,62b2080f8f89f2f15c47d9ba,64d2fd46c836a06233681665,64dc7b5313ffd7a1de696252,,,,,,,sngl,resources/DBN.BMP,resources/Empty.png,Door4,-0.200892857,-0.025892857,1,0,0,0.63,optionLeft,80,11285,5,31,0,31,0,1,,,,,,,,,,,,,,,,,,,,,,,,,,,,,,,,,,,,,,,
,,,,,,,,2023-08-16_08h31.50.438,HF_wild_card,2022.2.4,MacIntel,29.41176471,62b2080f8f89f2f15c47d9ba,64d2fd46c836a06233681665,64dc7b5313ffd7a1de696252,,,,,,,decisionTrl,resources/DB.BMP,resources/DBN.BMP,Door4,0.25,-0.01875,1,0,0,0.597,optionRight,60,11345,5,32,0,32,0,1,,,,,,,,,,,,,,,,,,,,,,,,,,,,,,,,,,,,,,,
,,,,,,,,2023-08-16_08h31.50.438,HF_wild_card,2022.2.4,MacIntel,29.41176471,62b2080f8f89f2f15c47d9ba,64d2fd46c836a06233681665,64dc7b5313ffd7a1de696252,,,,,,,decisionTrl,resources/DP.BMP,resources/DG.BMP,Door1,-0.169642857,-0.028571429,1,0,0,1.063,optionLeft,30,11375,5,33,0,33,0,1,,,,,,,,,,,,,,,,,,,,,,,,,,,,,,,,,,,,,,,
,,,,,,,,2023-08-16_08h31.50.438,HF_wild_card,2022.2.4,MacIntel,29.41176471,62b2080f8f89f2f15c47d9ba,64d2fd46c836a06233681665,64dc7b5313ffd7a1de696252,,,,,,,sngl,resources/Empty.png,resources/DG.BMP,Door2,0.197321429,0.0125,1,0,0,0.631,optionRight,20,11395,5,34,0,34,0,1,,,,,,,,,,,,,,,,,,,,,,,,,,,,,,,,,,,,,,,
,,,,,,,,2023-08-16_08h31.50.438,HF_wild_card,2022.2.4,MacIntel,29.41176471,62b2080f8f89f2f15c47d9ba,64d2fd46c836a06233681665,64dc7b5313ffd7a1de696252,,,,,,,decisionTrl,resources/DG.BMP,resources/DB.BMP,WildCard_Ex,0.25625,-0.013392857,1,0,0,0.763,optionRight,45,11440,5,35,0,35,0,1,,,,,,,,,,,,,,,,,,,,,,,,,,,,,,,,,,,,,,,
,,,,,,,,2023-08-16_08h31.50.438,HF_wild_card,2022.2.4,MacIntel,29.41176471,62b2080f8f89f2f15c47d9ba,64d2fd46c836a06233681665,64dc7b5313ffd7a1de696252,,,,,,,decisionTrl,resources/DP.BMP,resources/DB.BMP,WildCard_Ex,0.224107143,0.008928571,1,0,0,1.463,optionRight,45,11485,5,36,0,36,0,1,,,,,,,,,,,,,,,,,,,,,,,,,,,,,,,,,,,,,,,
,,,,,,,,2023-08-16_08h31.50.438,HF_wild_card,2022.2.4,MacIntel,29.41176471,62b2080f8f89f2f15c47d9ba,64d2fd46c836a06233681665,64dc7b5313ffd7a1de696252,,,,,,,sngl,resources/DP.BMP,resources/Empty.png,Door1,-0.221428571,-0.003571429,1,0,0,0.598,optionLeft,30,11515,5,37,0,37,0,1,,,,,,,,,,,,,,,,,,,,,,,,,,,,,,,,,,,,,,,
,,,,,,,,2023-08-16_08h31.50.438,HF_wild_card,2022.2.4,MacIntel,29.41176471,62b2080f8f89f2f15c47d9ba,64d2fd46c836a06233681665,64dc7b5313ffd7a1de696252,,,,,,,decisionTrl,resources/DB.BMP,resources/DP.BMP,WildCard_Ex,-0.16875,0.00625,1,0,0,0.775,optionLeft,45,11560,5,38,0,38,0,1,,,,,,,,,,,,,,,,,,,,,,,,,,,,,,,,,,,,,,,
,,,,,,,,2023-08-16_08h31.50.438,HF_wild_card,2022.2.4,MacIntel,29.41176471,62b2080f8f89f2f15c47d9ba,64d2fd46c836a06233681665,64dc7b5313ffd7a1de696252,,,,,,,decisionTrl,resources/DP.BMP,resources/DG.BMP,Door1,-0.16875,-0.004464286,1,0,0,0.831,optionLeft,30,11590,5,39,0,39,0,1,,,,,,,,,,,,,,,,,,,,,,,,,,,,,,,,,,,,,,,
,,,,,,,,2023-08-16_08h31.50.438,HF_wild_card,2022.2.4,MacIntel,29.41176471,62b2080f8f89f2f15c47d9ba,64d2fd46c836a06233681665,64dc7b5313ffd7a1de696252,,,,,,,decisionTrl,resources/DB.BMP,resources/DG.BMP,WildCard_Ex,-0.145535714,0.014285714,1,0,0,0.797,optionLeft,55,11645,5,40,0,40,0,1,,,,,,,,,,,,,,,,,,,,,,,,,,,,,,,,,,,,,,,
,,,,,,,,2023-08-16_08h31.50.438,HF_wild_card,2022.2.4,MacIntel,29.41176471,62b2080f8f89f2f15c47d9ba,64d2fd46c836a06233681665,64dc7b5313ffd7a1de696252,,,,,,,sngl,resources/DY.BMP,resources/Empty.png,Door3,-0.219642857,0.015178571,1,0,0,0.564,optionLeft,70,11715,5,41,0,41,0,1,,,,,,,,,,,,,,,,,,,,,,,,,,,,,,,,,,,,,,,
,,,,,,,,2023-08-16_08h31.50.438,HF_wild_card,2022.2.4,MacIntel,29.41176471,62b2080f8f89f2f15c47d9ba,64d2fd46c836a06233681665,64dc7b5313ffd7a1de696252,,,,,,,ctch,resources/DP.BMP,resources/DBN.BMP,Door4,0.165178571,-0.004464286,1,0,0,0.697,optionRight,60,11775,5,42,0,42,0,1,,,,,,,,,,,,,,,,,,,,,,,,,,,,,,,,,,,,,,,
,,,,,,,,2023-08-16_08h31.50.438,HF_wild_card,2022.2.4,MacIntel,29.41176471,62b2080f8f89f2f15c47d9ba,64d2fd46c836a06233681665,64dc7b5313ffd7a1de696252,,,,,,,sngl,resources/Empty.png,resources/DB.BMP,WildCard_Ex,0.225892857,-0.005357143,1,0,0,0.563,optionRight,45,11820,5,43,0,43,0,1,,,,,,,,,,,,,,,,,,,,,,,,,,,,,,,,,,,,,,,
,,,,,,,,2023-08-16_08h31.50.438,HF_wild_card,2022.2.4,MacIntel,29.41176471,62b2080f8f89f2f15c47d9ba,64d2fd46c836a06233681665,64dc7b5313ffd7a1de696252,,,,,,,,,,,,,,,,,,,,,,,,,,4,0,4,0,1,,,,,,,,,,,,,,,,,,,,,,,,,,,,,,,,,,
,,,,,,,,2023-08-16_08h31.50.438,HF_wild_card,2022.2.4,MacIntel,29.41176471,62b2080f8f89f2f15c47d9ba,64d2fd46c836a06233681665,64dc7b5313ffd7a1de696252,,,,,,,decisionTrl,resources/DY.BMP,resources/DBN.BMP,Door3,-0.205357143,-0.067857143,1,0,0,0.961,optionLeft,70,11890,6,0,0,0,0,1,,,,,,,,,,,,,,,,,,,,,,,,,,,,,,,,,,,,,,,
,,,,,,,,2023-08-16_08h31.50.438,HF_wild_card,2022.2.4,MacIntel,29.41176471,62b2080f8f89f2f15c47d9ba,64d2fd46c836a06233681665,64dc7b5313ffd7a1de696252,,,,,,,ctch,resources/DG.BMP,resources/DY.BMP,Door3,0.275,-0.003571429,1,0,0,0.998,optionRight,70,11960,6,1,0,1,0,1,,,,,,,,,,,,,,,,,,,,,,,,,,,,,,,,,,,,,,,
,,,,,,,,2023-08-16_08h31.50.438,HF_wild_card,2022.2.4,MacIntel,29.41176471,62b2080f8f89f2f15c47d9ba,64d2fd46c836a06233681665,64dc7b5313ffd7a1de696252,,,,,,,ctch,resources/DY.BMP,resources/DG.BMP,Door3,-0.163392857,-0.019642857,1,0,0,0.63,optionLeft,70,12030,6,2,0,2,0,1,,,,,,,,,,,,,,,,,,,,,,,,,,,,,,,,,,,,,,,
,,,,,,,,2023-08-16_08h31.50.438,HF_wild_card,2022.2.4,MacIntel,29.41176471,62b2080f8f89f2f15c47d9ba,64d2fd46c836a06233681665,64dc7b5313ffd7a1de696252,,,,,,,decisionTrl,resources/DP.BMP,resources/DG.BMP,Door2,0.208035714,-0.002678571,1,0,0,0.93,optionRight,40,12070,6,3,0,3,0,1,,,,,,,,,,,,,,,,,,,,,,,,,,,,,,,,,,,,,,,
,,,,,,,,2023-08-16_08h31.50.438,HF_wild_card,2022.2.4,MacIntel,29.41176471,62b2080f8f89f2f15c47d9ba,64d2fd46c836a06233681665,64dc7b5313ffd7a1de696252,,,,,,,sngl,resources/DG.BMP,resources/Empty.png,Door2,-0.221428571,-0.007142857,1,0,0,0.663,optionLeft,20,12090,6,4,0,4,0,1,,,,,,,,,,,,,,,,,,,,,,,,,,,,,,,,,,,,,,,
,,,,,,,,2023-08-16_08h31.50.438,HF_wild_card,2022.2.4,MacIntel,29.41176471,62b2080f8f89f2f15c47d9ba,64d2fd46c836a06233681665,64dc7b5313ffd7a1de696252,,,,,,,decisionTrl,resources/DP.BMP,resources/DB.BMP,WildCard_Ex,0.233928571,-0.010714286,1,0,0,0.83,optionRight,45,12135,6,5,0,5,0,1,,,,,,,,,,,,,,,,,,,,,,,,,,,,,,,,,,,,,,,
,,,,,,,,2023-08-16_08h31.50.438,HF_wild_card,2022.2.4,MacIntel,29.41176471,62b2080f8f89f2f15c47d9ba,64d2fd46c836a06233681665,64dc7b5313ffd7a1de696252,,,,,,,ctch,resources/DBN.BMP,resources/DP.BMP,Door4,-0.173214286,-0.013392857,1,0,0,0.664,optionLeft,80,12215,6,6,0,6,0,1,,,,,,,,,,,,,,,,,,,,,,,,,,,,,,,,,,,,,,,
,,,,,,,,2023-08-16_08h31.50.438,HF_wild_card,2022.2.4,MacIntel,29.41176471,62b2080f8f89f2f15c47d9ba,64d2fd46c836a06233681665,64dc7b5313ffd7a1de696252,,,,,,,decisionTrl,resources/DBN.BMP,resources/DB.BMP,Door4,-0.190178571,-0.007142857,1,0,0,0.564,optionLeft,60,12275,6,7,0,7,0,1,,,,,,,,,,,,,,,,,,,,,,,,,,,,,,,,,,,,,,,
,,,,,,,,2023-08-16_08h31.50.438,HF_wild_card,2022.2.4,MacIntel,29.41176471,62b2080f8f89f2f15c47d9ba,64d2fd46c836a06233681665,64dc7b5313ffd7a1de696252,,,,,,,sngl,resources/Empty.png,resources/DB.BMP,WildCard_Ex,0.203571429,-0.016964286,1,0,0,0.597,optionRight,55,12330,6,8,0,8,0,1,,,,,,,,,,,,,,,,,,,,,,,,,,,,,,,,,,,,,,,
,,,,,,,,2023-08-16_08h31.50.438,HF_wild_card,2022.2.4,MacIntel,29.41176471,62b2080f8f89f2f15c47d9ba,64d2fd46c836a06233681665,64dc7b5313ffd7a1de696252,,,,,,,decisionTrl,resources/DG.BMP,resources/DP.BMP,Door1,0.242857143,-0.024107143,1,0,0,0.797,optionRight,30,12360,6,9,0,9,0,1,,,,,,,,,,,,,,,,,,,,,,,,,,,,,,,,,,,,,,,
,,,,,,,,2023-08-16_08h31.50.438,HF_wild_card,2022.2.4,MacIntel,29.41176471,62b2080f8f89f2f15c47d9ba,64d2fd46c836a06233681665,64dc7b5313ffd7a1de696252,,,,,,,sngl,resources/DB.BMP,resources/Empty.png,WildCard_Ex,-0.222321429,-0.033928571,1,0,0,0.563,optionLeft,45,12405,6,10,0,10,0,1,,,,,,,,,,,,,,,,,,,,,,,,,,,,,,,,,,,,,,,
,,,,,,,,2023-08-16_08h31.50.438,HF_wild_card,2022.2.4,MacIntel,29.41176471,62b2080f8f89f2f15c47d9ba,64d2fd46c836a06233681665,64dc7b5313ffd7a1de696252,,,,,,,decisionTrl,resources/DG.BMP,resources/DP.BMP,Door1,0.203571429,-0.015178571,1,0,0,0.798,optionRight,30,12435,6,11,0,11,0,1,,,,,,,,,,,,,,,,,,,,,,,,,,,,,,,,,,,,,,,
,,,,,,,,2023-08-16_08h31.50.438,HF_wild_card,2022.2.4,MacIntel,29.41176471,62b2080f8f89f2f15c47d9ba,64d2fd46c836a06233681665,64dc7b5313ffd7a1de696252,,,,,,,decisionTrl,resources/DY.BMP,resources/DB.BMP,Door3,-0.1125,-0.010714286,1,0,0,0.697,optionLeft,70,12505,6,12,0,12,0,1,,,,,,,,,,,,,,,,,,,,,,,,,,,,,,,,,,,,,,,
,,,,,,,,2023-08-16_08h31.50.438,HF_wild_card,2022.2.4,MacIntel,29.41176471,62b2080f8f89f2f15c47d9ba,64d2fd46c836a06233681665,64dc7b5313ffd7a1de696252,,,,,,,decisionTrl,resources/DBN.BMP,resources/DY.BMP,Door4,-0.259821429,-0.016071429,1,0,0,0.631,optionLeft,60,12565,6,13,0,13,0,1,,,,,,,,,,,,,,,,,,,,,,,,,,,,,,,,,,,,,,,
,,,,,,,,2023-08-16_08h31.50.438,HF_wild_card,2022.2.4,MacIntel,29.41176471,62b2080f8f89f2f15c47d9ba,64d2fd46c836a06233681665,64dc7b5313ffd7a1de696252,,,,,,,sngl,resources/DB.BMP,resources/Empty.png,WildCard_Ex,-0.21875,-0.01875,1,0,0,0.597,optionLeft,55,12620,6,14,0,14,0,1,,,,,,,,,,,,,,,,,,,,,,,,,,,,,,,,,,,,,,,
,,,,,,,,2023-08-16_08h31.50.438,HF_wild_card,2022.2.4,MacIntel,29.41176471,62b2080f8f89f2f15c47d9ba,64d2fd46c836a06233681665,64dc7b5313ffd7a1de696252,,,,,,,sngl,resources/Empty.png,resources/DBN.BMP,Door4,0.229464286,-0.041964286,1,0,0,0.563,optionRight,80,12700,6,15,0,15,0,1,,,,,,,,,,,,,,,,,,,,,,,,,,,,,,,,,,,,,,,
,,,,,,,,2023-08-16_08h31.50.438,HF_wild_card,2022.2.4,MacIntel,29.41176471,62b2080f8f89f2f15c47d9ba,64d2fd46c836a06233681665,64dc7b5313ffd7a1de696252,,,,,,,ctch,resources/DY.BMP,resources/DG.BMP,Door3,-0.185714286,-0.023214286,1,0,0,0.664,optionLeft,70,12770,6,16,0,16,0,1,,,,,,,,,,,,,,,,,,,,,,,,,,,,,,,,,,,,,,,
,,,,,,,,2023-08-16_08h31.50.438,HF_wild_card,2022.2.4,MacIntel,29.41176471,62b2080f8f89f2f15c47d9ba,64d2fd46c836a06233681665,64dc7b5313ffd7a1de696252,,,,,,,decisionTrl,resources/DY.BMP,resources/DBN.BMP,Door3,-0.182142857,-0.009821429,1,0,0,0.73,optionLeft,70,12840,6,17,0,17,0,1,,,,,,,,,,,,,,,,,,,,,,,,,,,,,,,,,,,,,,,
,,,,,,,,2023-08-16_08h31.50.438,HF_wild_card,2022.2.4,MacIntel,29.41176471,62b2080f8f89f2f15c47d9ba,64d2fd46c836a06233681665,64dc7b5313ffd7a1de696252,,,,,,,decisionTrl,resources/DG.BMP,resources/DB.BMP,WildCard_Ex,0.267857143,-0.021428571,1,0,0,0.931,optionRight,45,12885,6,18,0,18,0,1,,,,,,,,,,,,,,,,,,,,,,,,,,,,,,,,,,,,,,,
,,,,,,,,2023-08-16_08h31.50.438,HF_wild_card,2022.2.4,MacIntel,29.41176471,62b2080f8f89f2f15c47d9ba,64d2fd46c836a06233681665,64dc7b5313ffd7a1de696252,,,,,,,decisionTrl,resources/DB.BMP,resources/DY.BMP,Door3,0.276785714,0.011607143,1,0,0,1.198,optionRight,70,12955,6,19,0,19,0,1,,,,,,,,,,,,,,,,,,,,,,,,,,,,,,,,,,,,,,,
,,,,,,,,2023-08-16_08h31.50.438,HF_wild_card,2022.2.4,MacIntel,29.41176471,62b2080f8f89f2f15c47d9ba,64d2fd46c836a06233681665,64dc7b5313ffd7a1de696252,,,,,,,decisionTrl,resources/DB.BMP,resources/DG.BMP,WildCard_Ex,-0.200892857,-0.020535714,1,0,0,1.097,optionLeft,55,13010,6,20,0,20,0,1,,,,,,,,,,,,,,,,,,,,,,,,,,,,,,,,,,,,,,,
,,,,,,,,2023-08-16_08h31.50.438,HF_wild_card,2022.2.4,MacIntel,29.41176471,62b2080f8f89f2f15c47d9ba,64d2fd46c836a06233681665,64dc7b5313ffd7a1de696252,,,,,,,decisionTrl,resources/DG.BMP,resources/DP.BMP,Door1,0.221428571,-0.026785714,1,0,0,0.829,optionRight,30,13040,6,21,0,21,0,1,,,,,,,,,,,,,,,,,,,,,,,,,,,,,,,,,,,,,,,
,,,,,,,,2023-08-16_08h31.50.438,HF_wild_card,2022.2.4,MacIntel,29.41176471,62b2080f8f89f2f15c47d9ba,64d2fd46c836a06233681665,64dc7b5313ffd7a1de696252,,,,,,,sngl,resources/DP.BMP,resources/Empty.png,Door1,-0.184821429,-0.023214286,1,0,0,0.564,optionLeft,30,13070,6,22,0,22,0,1,,,,,,,,,,,,,,,,,,,,,,,,,,,,,,,,,,,,,,,
,,,,,,,,2023-08-16_08h31.50.438,HF_wild_card,2022.2.4,MacIntel,29.41176471,62b2080f8f89f2f15c47d9ba,64d2fd46c836a06233681665,64dc7b5313ffd7a1de696252,,,,,,,sngl,resources/Empty.png,resources/DY.BMP,Door3,0.241071429,-0.023214286,1,0,0,0.529,optionRight,70,13140,6,23,0,23,0,1,,,,,,,,,,,,,,,,,,,,,,,,,,,,,,,,,,,,,,,
,,,,,,,,2023-08-16_08h31.50.438,HF_wild_card,2022.2.4,MacIntel,29.41176471,62b2080f8f89f2f15c47d9ba,64d2fd46c836a06233681665,64dc7b5313ffd7a1de696252,,,,,,,sngl,resources/DBN.BMP,resources/Empty.png,Door4,-0.186607143,-0.025,1,0,0,0.53,optionLeft,60,13200,6,24,0,24,0,1,,,,,,,,,,,,,,,,,,,,,,,,,,,,,,,,,,,,,,,
,,,,,,,,2023-08-16_08h31.50.438,HF_wild_card,2022.2.4,MacIntel,29.41176471,62b2080f8f89f2f15c47d9ba,64d2fd46c836a06233681665,64dc7b5313ffd7a1de696252,,,,,,,decisionTrl,resources/DB.BMP,resources/DBN.BMP,Door4,0.199107143,-0.0125,1,0,0,0.596,optionRight,80,13280,6,25,0,25,0,1,,,,,,,,,,,,,,,,,,,,,,,,,,,,,,,,,,,,,,,
,,,,,,,,2023-08-16_08h31.50.438,HF_wild_card,2022.2.4,MacIntel,29.41176471,62b2080f8f89f2f15c47d9ba,64d2fd46c836a06233681665,64dc7b5313ffd7a1de696252,,,,,,,ctch,resources/DP.BMP,resources/DBN.BMP,Door4,0.191964286,-0.022321429,1,0,0,0.563,optionRight,60,13340,6,26,0,26,0,1,,,,,,,,,,,,,,,,,,,,,,,,,,,,,,,,,,,,,,,
,,,,,,,,2023-08-16_08h31.50.438,HF_wild_card,2022.2.4,MacIntel,29.41176471,62b2080f8f89f2f15c47d9ba,64d2fd46c836a06233681665,64dc7b5313ffd7a1de696252,,,,,,,decisionTrl,resources/DBN.BMP,resources/DY.BMP,Door4,-0.146428571,-0.029464286,1,0,0,0.697,optionLeft,80,13420,6,27,0,27,0,1,,,,,,,,,,,,,,,,,,,,,,,,,,,,,,,,,,,,,,,
,,,,,,,,2023-08-16_08h31.50.438,HF_wild_card,2022.2.4,MacIntel,29.41176471,62b2080f8f89f2f15c47d9ba,64d2fd46c836a06233681665,64dc7b5313ffd7a1de696252,,,,,,,decisionTrl,resources/DY.BMP,resources/DBN.BMP,Door4,0.178571429,-0.022321429,1,0,0,0.629,optionRight,80,13500,6,28,0,28,0,1,,,,,,,,,,,,,,,,,,,,,,,,,,,,,,,,,,,,,,,
,,,,,,,,2023-08-16_08h31.50.438,HF_wild_card,2022.2.4,MacIntel,29.41176471,62b2080f8f89f2f15c47d9ba,64d2fd46c836a06233681665,64dc7b5313ffd7a1de696252,,,,,,,sngl,resources/Empty.png,resources/DP.BMP,Door1,0.236607143,-0.009821429,1,0,0,0.564,optionRight,30,13530,6,29,0,29,0,1,,,,,,,,,,,,,,,,,,,,,,,,,,,,,,,,,,,,,,,
,,,,,,,,2023-08-16_08h31.50.438,HF_wild_card,2022.2.4,MacIntel,29.41176471,62b2080f8f89f2f15c47d9ba,64d2fd46c836a06233681665,64dc7b5313ffd7a1de696252,,,,,,,decisionTrl,resources/DG.BMP,resources/DP.BMP,Door1,0.357142857,-0.024107143,1,0,0,0.832,optionRight,30,13560,6,30,0,30,0,1,,,,,,,,,,,,,,,,,,,,,,,,,,,,,,,,,,,,,,,
,,,,,,,,2023-08-16_08h31.50.438,HF_wild_card,2022.2.4,MacIntel,29.41176471,62b2080f8f89f2f15c47d9ba,64d2fd46c836a06233681665,64dc7b5313ffd7a1de696252,,,,,,,decisionTrl,resources/DY.BMP,resources/DBN.BMP,Door4,0.209821429,-0.015178571,1,0,0,0.596,optionRight,60,13620,6,31,0,31,0,1,,,,,,,,,,,,,,,,,,,,,,,,,,,,,,,,,,,,,,,
,,,,,,,,2023-08-16_08h31.50.438,HF_wild_card,2022.2.4,MacIntel,29.41176471,62b2080f8f89f2f15c47d9ba,64d2fd46c836a06233681665,64dc7b5313ffd7a1de696252,,,,,,,ctch,resources/DG.BMP,resources/DY.BMP,Door3,0.2625,-0.029464286,1,0,0,0.763,optionRight,70,13690,6,32,0,32,0,1,,,,,,,,,,,,,,,,,,,,,,,,,,,,,,,,,,,,,,,
,,,,,,,,2023-08-16_08h31.50.438,HF_wild_card,2022.2.4,MacIntel,29.41176471,62b2080f8f89f2f15c47d9ba,64d2fd46c836a06233681665,64dc7b5313ffd7a1de696252,,,,,,,decisionTrl,resources/DB.BMP,resources/DP.BMP,WildCard_Ex,-0.2,-0.035714286,1,0,0,1.13,optionLeft,45,13735,6,33,0,33,0,1,,,,,,,,,,,,,,,,,,,,,,,,,,,,,,,,,,,,,,,
,,,,,,,,2023-08-16_08h31.50.438,HF_wild_card,2022.2.4,MacIntel,29.41176471,62b2080f8f89f2f15c47d9ba,64d2fd46c836a06233681665,64dc7b5313ffd7a1de696252,,,,,,,decisionTrl,resources/DP.BMP,resources/DG.BMP,Door1,-0.191964286,-0.017857143,1,0,0,1.463,optionLeft,30,13765,6,34,0,34,0,1,,,,,,,,,,,,,,,,,,,,,,,,,,,,,,,,,,,,,,,
,,,,,,,,2023-08-16_08h31.50.438,HF_wild_card,2022.2.4,MacIntel,29.41176471,62b2080f8f89f2f15c47d9ba,64d2fd46c836a06233681665,64dc7b5313ffd7a1de696252,,,,,,,decisionTrl,resources/DP.BMP,resources/DG.BMP,Door1,-0.246428571,-0.020535714,1,0,0,0.831,optionLeft,30,13795,6,35,0,35,0,1,,,,,,,,,,,,,,,,,,,,,,,,,,,,,,,,,,,,,,,
,,,,,,,,2023-08-16_08h31.50.438,HF_wild_card,2022.2.4,MacIntel,29.41176471,62b2080f8f89f2f15c47d9ba,64d2fd46c836a06233681665,64dc7b5313ffd7a1de696252,,,,,,,sngl,resources/Empty.png,resources/DB.BMP,WildCard_Ex,0.235714286,-0.023214286,1,0,0,0.597,optionRight,45,13840,6,36,0,36,0,1,,,,,,,,,,,,,,,,,,,,,,,,,,,,,,,,,,,,,,,
,,,,,,,,2023-08-16_08h31.50.438,HF_wild_card,2022.2.4,MacIntel,29.41176471,62b2080f8f89f2f15c47d9ba,64d2fd46c836a06233681665,64dc7b5313ffd7a1de696252,,,,,,,decisionTrl,resources/DP.BMP,resources/DG.BMP,Door1,-0.141071429,-0.044642857,1,0,0,0.996,optionLeft,30,13870,6,37,0,37,0,1,,,,,,,,,,,,,,,,,,,,,,,,,,,,,,,,,,,,,,,
,,,,,,,,2023-08-16_08h31.50.438,HF_wild_card,2022.2.4,MacIntel,29.41176471,62b2080f8f89f2f15c47d9ba,64d2fd46c836a06233681665,64dc7b5313ffd7a1de696252,,,,,,,decisionTrl,resources/DBN.BMP,resources/DY.BMP,Door4,-0.158928571,-0.040178571,1,0,0,0.697,optionLeft,60,13930,6,38,0,38,0,1,,,,,,,,,,,,,,,,,,,,,,,,,,,,,,,,,,,,,,,
,,,,,,,,2023-08-16_08h31.50.438,HF_wild_card,2022.2.4,MacIntel,29.41176471,62b2080f8f89f2f15c47d9ba,64d2fd46c836a06233681665,64dc7b5313ffd7a1de696252,,,,,,,ctch,resources/DP.BMP,resources/DBN.BMP,Door4,0.18125,-0.024107143,1,0,0,0.664,optionRight,80,14010,6,39,0,39,0,1,,,,,,,,,,,,,,,,,,,,,,,,,,,,,,,,,,,,,,,
,,,,,,,,2023-08-16_08h31.50.438,HF_wild_card,2022.2.4,MacIntel,29.41176471,62b2080f8f89f2f15c47d9ba,64d2fd46c836a06233681665,64dc7b5313ffd7a1de696252,,,,,,,decisionTrl,resources/DBN.BMP,resources/DY.BMP,Door4,-0.209821429,-0.034821429,1,0,0,0.564,optionLeft,60,14070,6,40,0,40,0,1,,,,,,,,,,,,,,,,,,,,,,,,,,,,,,,,,,,,,,,
,,,,,,,,2023-08-16_08h31.50.438,HF_wild_card,2022.2.4,MacIntel,29.41176471,62b2080f8f89f2f15c47d9ba,64d2fd46c836a06233681665,64dc7b5313ffd7a1de696252,,,,,,,sngl,resources/DY.BMP,resources/Empty.png,Door3,-0.238392857,-0.041071429,1,0,0,0.564,optionLeft,70,14140,6,41,0,41,0,1,,,,,,,,,,,,,,,,,,,,,,,,,,,,,,,,,,,,,,,
,,,,,,,,2023-08-16_08h31.50.438,HF_wild_card,2022.2.4,MacIntel,29.41176471,62b2080f8f89f2f15c47d9ba,64d2fd46c836a06233681665,64dc7b5313ffd7a1de696252,,,,,,,sngl,resources/Empty.png,resources/DG.BMP,Door2,0.180357143,-0.013392857,1,0,0,0.664,optionRight,40,14180,6,42,0,42,0,1,,,,,,,,,,,,,,,,,,,,,,,,,,,,,,,,,,,,,,,
,,,,,,,,2023-08-16_08h31.50.438,HF_wild_card,2022.2.4,MacIntel,29.41176471,62b2080f8f89f2f15c47d9ba,64d2fd46c836a06233681665,64dc7b5313ffd7a1de696252,,,,,,,ctch,resources/DBN.BMP,resources/DP.BMP,Door4,-0.20625,-0.021428571,1,0,0,0.631,optionLeft,60,14240,6,43,0,43,0,1,,,,,,,,,,,,,,,,,,,,,,,,,,,,,,,,,,,,,,,
,,,,,,,,2023-08-16_08h31.50.438,HF_wild_card,2022.2.4,MacIntel,29.41176471,62b2080f8f89f2f15c47d9ba,64d2fd46c836a06233681665,64dc7b5313ffd7a1de696252,,,,,,,,,,,,,,,,,,,,,,,,,,5,0,5,0,1,,,,,,,,,,,,,,,,,,,,,,,,,,,,,,,,,,
,,,,,,,,2023-08-16_08h31.50.438,HF_wild_card,2022.2.4,MacIntel,29.41176471,62b2080f8f89f2f15c47d9ba,64d2fd46c836a06233681665,64dc7b5313ffd7a1de696252,,,,,,,decisionTrl,resources/DP.BMP,resources/DG.BMP,Door1,-0.190178571,-0.134821429,1,0,0,1.426,optionLeft,30,14270,7,0,0,0,0,1,,,,,,,,,,,,,,,,,,,,,,,,,,,,,,,,,,,,,,,
,,,,,,,,2023-08-16_08h31.50.438,HF_wild_card,2022.2.4,MacIntel,29.41176471,62b2080f8f89f2f15c47d9ba,64d2fd46c836a06233681665,64dc7b5313ffd7a1de696252,,,,,,,decisionTrl,resources/DG.BMP,resources/DP.BMP,Door1,0.220535714,-0.030357143,1,0,0,0.899,optionRight,30,14300,7,1,0,1,0,1,,,,,,,,,,,,,,,,,,,,,,,,,,,,,,,,,,,,,,,
,,,,,,,,2023-08-16_08h31.50.438,HF_wild_card,2022.2.4,MacIntel,29.41176471,62b2080f8f89f2f15c47d9ba,64d2fd46c836a06233681665,64dc7b5313ffd7a1de696252,,,,,,,ctch,resources/DP.BMP,resources/DBN.BMP,Door4,0.233035714,-0.0125,1,0,0,0.7,optionRight,80,14380,7,2,0,2,0,1,,,,,,,,,,,,,,,,,,,,,,,,,,,,,,,,,,,,,,,
,,,,,,,,2023-08-16_08h31.50.438,HF_wild_card,2022.2.4,MacIntel,29.41176471,62b2080f8f89f2f15c47d9ba,64d2fd46c836a06233681665,64dc7b5313ffd7a1de696252,,,,,,,decisionTrl,resources/DP.BMP,resources/DG.BMP,Door1,-0.158035714,-0.03125,1,0,0,0.766,optionLeft,30,14410,7,3,0,3,0,1,,,,,,,,,,,,,,,,,,,,,,,,,,,,,,,,,,,,,,,
,,,,,,,,2023-08-16_08h31.50.438,HF_wild_card,2022.2.4,MacIntel,29.41176471,62b2080f8f89f2f15c47d9ba,64d2fd46c836a06233681665,64dc7b5313ffd7a1de696252,,,,,,,decisionTrl,resources/DG.BMP,resources/DP.BMP,Door2,-0.151785714,-0.032142857,1,0,0,0.632,optionLeft,20,14430,7,4,0,4,0,1,,,,,,,,,,,,,,,,,,,,,,,,,,,,,,,,,,,,,,,
,,,,,,,,2023-08-16_08h31.50.438,HF_wild_card,2022.2.4,MacIntel,29.41176471,62b2080f8f89f2f15c47d9ba,64d2fd46c836a06233681665,64dc7b5313ffd7a1de696252,,,,,,,decisionTrl,resources/DY.BMP,resources/DBN.BMP,Door4,0.192857143,-0.016964286,1,0,0,0.666,optionRight,60,14490,7,5,0,5,0,1,,,,,,,,,,,,,,,,,,,,,,,,,,,,,,,,,,,,,,,
,,,,,,,,2023-08-16_08h31.50.438,HF_wild_card,2022.2.4,MacIntel,29.41176471,62b2080f8f89f2f15c47d9ba,64d2fd46c836a06233681665,64dc7b5313ffd7a1de696252,,,,,,,ctch,resources/DY.BMP,resources/DG.BMP,Door3,-0.145535714,-0.01875,1,0,0,0.598,optionLeft,70,14560,7,6,0,6,0,1,,,,,,,,,,,,,,,,,,,,,,,,,,,,,,,,,,,,,,,
,,,,,,,,2023-08-16_08h31.50.438,HF_wild_card,2022.2.4,MacIntel,29.41176471,62b2080f8f89f2f15c47d9ba,64d2fd46c836a06233681665,64dc7b5313ffd7a1de696252,,,,,,,decisionTrl,resources/DBN.BMP,resources/DY.BMP,Door4,-0.175,-0.009821429,1,0,0,0.798,optionLeft,80,14640,7,7,0,7,0,1,,,,,,,,,,,,,,,,,,,,,,,,,,,,,,,,,,,,,,,
,,,,,,,,2023-08-16_08h31.50.438,HF_wild_card,2022.2.4,MacIntel,29.41176471,62b2080f8f89f2f15c47d9ba,64d2fd46c836a06233681665,64dc7b5313ffd7a1de696252,,,,,,,decisionTrl,resources/DBN.BMP,resources/DY.BMP,Door4,-0.141964286,-0.005357143,1,0,0,0.667,optionLeft,80,14720,7,8,0,8,0,1,,,,,,,,,,,,,,,,,,,,,,,,,,,,,,,,,,,,,,,
,,,,,,,,2023-08-16_08h31.50.438,HF_wild_card,2022.2.4,MacIntel,29.41176471,62b2080f8f89f2f15c47d9ba,64d2fd46c836a06233681665,64dc7b5313ffd7a1de696252,,,,,,,decisionTrl,resources/DG.BMP,resources/DP.BMP,Door1,0.120535714,-0.014285714,1,0,0,1.133,optionRight,30,14750,7,9,0,9,0,1,,,,,,,,,,,,,,,,,,,,,,,,,,,,,,,,,,,,,,,
,,,,,,,,2023-08-16_08h31.50.438,HF_wild_card,2022.2.4,MacIntel,29.41176471,62b2080f8f89f2f15c47d9ba,64d2fd46c836a06233681665,64dc7b5313ffd7a1de696252,,,,,,,decisionTrl,resources/DY.BMP,resources/DBN.BMP,Door4,0.227678571,-0.016964286,1,0,0,0.733,optionRight,80,14830,7,10,0,10,0,1,,,,,,,,,,,,,,,,,,,,,,,,,,,,,,,,,,,,,,,
,,,,,,,,2023-08-16_08h31.50.438,HF_wild_card,2022.2.4,MacIntel,29.41176471,62b2080f8f89f2f15c47d9ba,64d2fd46c836a06233681665,64dc7b5313ffd7a1de696252,,,,,,,decisionTrl,resources/DG.BMP,resources/DP.BMP,Door1,0.327678571,-0.026785714,1,0,0,0.866,optionRight,30,14860,7,11,0,11,0,1,,,,,,,,,,,,,,,,,,,,,,,,,,,,,,,,,,,,,,,
,,,,,,,,2023-08-16_08h31.50.438,HF_wild_card,2022.2.4,MacIntel,29.41176471,62b2080f8f89f2f15c47d9ba,64d2fd46c836a06233681665,64dc7b5313ffd7a1de696252,,,,,,,decisionTrl,resources/DG.BMP,resources/DP.BMP,Door1,0.127678571,-0.019642857,1,0,0,0.7,optionRight,30,14890,7,12,0,12,0,1,,,,,,,,,,,,,,,,,,,,,,,,,,,,,,,,,,,,,,,
,,,,,,,,2023-08-16_08h31.50.438,HF_wild_card,2022.2.4,MacIntel,29.41176471,62b2080f8f89f2f15c47d9ba,64d2fd46c836a06233681665,64dc7b5313ffd7a1de696252,,,,,,,ctch,resources/DBN.BMP,resources/DP.BMP,Door4,-0.198214286,-0.009821429,1,0,0,0.933,optionLeft,60,14950,7,13,0,13,0,1,,,,,,,,,,,,,,,,,,,,,,,,,,,,,,,,,,,,,,,
,,,,,,,,2023-08-16_08h31.50.438,HF_wild_card,2022.2.4,MacIntel,29.41176471,62b2080f8f89f2f15c47d9ba,64d2fd46c836a06233681665,64dc7b5313ffd7a1de696252,,,,,,,ctch,resources/DG.BMP,resources/DY.BMP,Door3,0.216071429,-0.025892857,1,0,0,0.765,optionRight,70,15020,7,14,0,14,0,1,,,,,,,,,,,,,,,,,,,,,,,,,,,,,,,,,,,,,,,
,,,,,,,,2023-08-16_08h31.50.438,HF_wild_card,2022.2.4,MacIntel,29.41176471,62b2080f8f89f2f15c47d9ba,64d2fd46c836a06233681665,64dc7b5313ffd7a1de696252,,,,,,,decisionTrl,resources/DP.BMP,resources/DG.BMP,Door1,-0.190178571,-0.021428571,1,0,0,0.899,optionLeft,30,15050,7,15,0,15,0,1,,,,,,,,,,,,,,,,,,,,,,,,,,,,,,,,,,,,,,,
,,,,,,,,2023-08-16_08h31.50.438,HF_wild_card,2022.2.4,MacIntel,29.41176471,62b2080f8f89f2f15c47d9ba,64d2fd46c836a06233681665,64dc7b5313ffd7a1de696252,,,,,,,decisionTrl,resources/DY.BMP,resources/DBN.BMP,Door4,0.166964286,-0.013392857,1,0,0,0.698,optionRight,80,15130,7,16,0,16,0,1,,,,,,,,,,,,,,,,,,,,,,,,,,,,,,,,,,,,,,,
,,,,,,,,2023-08-16_08h31.50.438,HF_wild_card,2022.2.4,MacIntel,29.41176471,62b2080f8f89f2f15c47d9ba,64d2fd46c836a06233681665,64dc7b5313ffd7a1de696252,,,,,,,decisionTrl,resources/DY.BMP,resources/DBN.BMP,Door4,0.210714286,-0.015178571,1,0,0,0.666,optionRight,80,15210,7,17,0,17,0,1,,,,,,,,,,,,,,,,,,,,,,,,,,,,,,,,,,,,,,,
,,,,,,,,2023-08-16_08h31.50.438,HF_wild_card,2022.2.4,MacIntel,29.41176471,62b2080f8f89f2f15c47d9ba,64d2fd46c836a06233681665,64dc7b5313ffd7a1de696252,,,,,,,ctch,resources/DG.BMP,resources/DY.BMP,Door3,0.220535714,0.002678571,1,0,0,0.767,optionRight,70,15280,7,18,0,18,0,1,,,,,,,,,,,,,,,,,,,,,,,,,,,,,,,,,,,,,,,
,,,,,,,,2023-08-16_08h31.50.438,HF_wild_card,2022.2.4,MacIntel,29.41176471,62b2080f8f89f2f15c47d9ba,64d2fd46c836a06233681665,64dc7b5313ffd7a1de696252,,,,,,,ctch,resources/DY.BMP,resources/DG.BMP,Door3,-0.155357143,-0.01875,1,0,0,0.799,optionLeft,70,15350,7,19,0,19,0,1,,,,,,,,,,,,,,,,,,,,,,,,,,,,,,,,,,,,,,,
,,,,,,,,2023-08-16_08h31.50.438,HF_wild_card,2022.2.4,MacIntel,29.41176471,62b2080f8f89f2f15c47d9ba,64d2fd46c836a06233681665,64dc7b5313ffd7a1de696252,,,,,,,decisionTrl,resources/DBN.BMP,resources/DY.BMP,Door4,-0.140178571,-0.0125,1,0,0,0.733,optionLeft,80,15430,7,20,0,20,0,1,,,,,,,,,,,,,,,,,,,,,,,,,,,,,,,,,,,,,,,
,,,,,,,,2023-08-16_08h31.50.438,HF_wild_card,2022.2.4,MacIntel,29.41176471,62b2080f8f89f2f15c47d9ba,64d2fd46c836a06233681665,64dc7b5313ffd7a1de696252,,,,,,,ctch,resources/DP.BMP,resources/DBN.BMP,Door4,0.177678571,-0.024107143,1,0,0,0.762,optionRight,80,15510,7,21,0,21,0,1,,,,,,,,,,,,,,,,,,,,,,,,,,,,,,,,,,,,,,,
,,,,,,,,2023-08-16_08h31.50.438,HF_wild_card,2022.2.4,MacIntel,29.41176471,62b2080f8f89f2f15c47d9ba,64d2fd46c836a06233681665,64dc7b5313ffd7a1de696252,,,,,,,decisionTrl,resources/DBN.BMP,resources/DY.BMP,Door4,-0.15,-0.024107143,1,0,0,0.667,optionLeft,60,15570,7,22,0,22,0,1,,,,,,,,,,,,,,,,,,,,,,,,,,,,,,,,,,,,,,,
,,,,,,,,2023-08-16_08h31.50.438,HF_wild_card,2022.2.4,MacIntel,29.41176471,62b2080f8f89f2f15c47d9ba,64d2fd46c836a06233681665,64dc7b5313ffd7a1de696252,,,,,,,ctch,resources/DP.BMP,resources/DBN.BMP,Door4,0.154464286,-0.035714286,1,0,0,0.633,optionRight,80,15650,7,23,0,23,0,1,,,,,,,,,,,,,,,,,,,,,,,,,,,,,,,,,,,,,,,
,,,,,,,,2023-08-16_08h31.50.438,HF_wild_card,2022.2.4,MacIntel,29.41176471,62b2080f8f89f2f15c47d9ba,64d2fd46c836a06233681665,64dc7b5313ffd7a1de696252,,,,,,,decisionTrl,resources/DP.BMP,resources/DG.BMP,Door1,-0.179464286,-0.0375,1,0,0,1.167,optionLeft,30,15680,7,24,0,24,0,1,,,,,,,,,,,,,,,,,,,,,,,,,,,,,,,,,,,,,,,
,,,,,,,,2023-08-16_08h31.50.438,HF_wild_card,2022.2.4,MacIntel,29.41176471,62b2080f8f89f2f15c47d9ba,64d2fd46c836a06233681665,64dc7b5313ffd7a1de696252,,,,,,,decisionTrl,resources/DY.BMP,resources/DBN.BMP,Door3,-0.153571429,-0.015178571,1,0,0,0.833,optionLeft,70,15750,7,25,0,25,0,1,,,,,,,,,,,,,,,,,,,,,,,,,,,,,,,,,,,,,,,
,,,,,,,,2023-08-16_08h31.50.438,HF_wild_card,2022.2.4,MacIntel,29.41176471,62b2080f8f89f2f15c47d9ba,64d2fd46c836a06233681665,64dc7b5313ffd7a1de696252,,,,,,,decisionTrl,resources/DP.BMP,resources/DG.BMP,Door1,-0.221428571,-0.009821429,1,0,0,1.134,optionLeft,30,15780,7,26,0,26,0,1,,,,,,,,,,,,,,,,,,,,,,,,,,,,,,,,,,,,,,,
,,,,,,,,2023-08-16_08h31.50.438,HF_wild_card,2022.2.4,MacIntel,29.41176471,62b2080f8f89f2f15c47d9ba,64d2fd46c836a06233681665,64dc7b5313ffd7a1de696252,,,,,,,ctch,resources/DY.BMP,resources/DG.BMP,Door3,-0.126785714,-0.016071429,1,0,0,0.698,optionLeft,70,15850,7,27,0,27,0,1,,,,,,,,,,,,,,,,,,,,,,,,,,,,,,,,,,,,,,,
,,,,,,,,2023-08-16_08h31.50.438,HF_wild_card,2022.2.4,MacIntel,29.41176471,62b2080f8f89f2f15c47d9ba,64d2fd46c836a06233681665,64dc7b5313ffd7a1de696252,,,,,,,ctch,resources/DG.BMP,resources/DY.BMP,Door3,0.228571429,-0.026785714,1,0,0,0.933,optionRight,70,15920,7,28,0,28,0,1,,,,,,,,,,,,,,,,,,,,,,,,,,,,,,,,,,,,,,,
,,,,,,,,2023-08-16_08h31.50.438,HF_wild_card,2022.2.4,MacIntel,29.41176471,62b2080f8f89f2f15c47d9ba,64d2fd46c836a06233681665,64dc7b5313ffd7a1de696252,,,,,,,decisionTrl,resources/DG.BMP,resources/DP.BMP,Door1,0.166964286,-0.033035714,1,0,0,1.199,optionRight,30,15950,7,29,0,29,0,1,,,,,,,,,,,,,,,,,,,,,,,,,,,,,,,,,,,,,,,
,,,,,,,,2023-08-16_08h31.50.438,HF_wild_card,2022.2.4,MacIntel,29.41176471,62b2080f8f89f2f15c47d9ba,64d2fd46c836a06233681665,64dc7b5313ffd7a1de696252,,,,,,,decisionTrl,resources/DBN.BMP,resources/DY.BMP,Door4,-0.195535714,-0.025892857,1,0,0,0.8,optionLeft,60,16010,7,30,0,30,0,1,,,,,,,,,,,,,,,,,,,,,,,,,,,,,,,,,,,,,,,
,,,,,,,,2023-08-16_08h31.50.438,HF_wild_card,2022.2.4,MacIntel,29.41176471,62b2080f8f89f2f15c47d9ba,64d2fd46c836a06233681665,64dc7b5313ffd7a1de696252,,,,,,,ctch,resources/DBN.BMP,resources/DP.BMP,Door4,-0.223214286,-0.027678571,1,0,0,0.6,optionLeft,60,16070,7,31,0,31,0,1,,,,,,,,,,,,,,,,,,,,,,,,,,,,,,,,,,,,,,,
,,,,,,,,2023-08-16_08h31.50.438,HF_wild_card,2022.2.4,MacIntel,29.41176471,62b2080f8f89f2f15c47d9ba,64d2fd46c836a06233681665,64dc7b5313ffd7a1de696252,,,,,,,decisionTrl,resources/DBN.BMP,resources/DY.BMP,Door4,-0.174107143,-0.008035714,1,0,0,0.633,optionLeft,60,16130,7,32,0,32,0,1,,,,,,,,,,,,,,,,,,,,,,,,,,,,,,,,,,,,,,,
,,,,,,,,2023-08-16_08h31.50.438,HF_wild_card,2022.2.4,MacIntel,29.41176471,62b2080f8f89f2f15c47d9ba,64d2fd46c836a06233681665,64dc7b5313ffd7a1de696252,,,,,,,decisionTrl,resources/DP.BMP,resources/DG.BMP,Door1,-0.277678571,-0.015178571,1,0,0,0.965,optionLeft,30,16160,7,33,0,33,0,1,,,,,,,,,,,,,,,,,,,,,,,,,,,,,,,,,,,,,,,
,,,,,,,,2023-08-16_08h31.50.438,HF_wild_card,2022.2.4,MacIntel,29.41176471,62b2080f8f89f2f15c47d9ba,64d2fd46c836a06233681665,64dc7b5313ffd7a1de696252,,,,,,,decisionTrl,resources/DY.BMP,resources/DBN.BMP,Door4,0.217857143,-0.013392857,1,0,0,0.732,optionRight,60,16220,7,34,0,34,0,1,,,,,,,,,,,,,,,,,,,,,,,,,,,,,,,,,,,,,,,
,,,,,,,,2023-08-16_08h31.50.438,HF_wild_card,2022.2.4,MacIntel,29.41176471,62b2080f8f89f2f15c47d9ba,64d2fd46c836a06233681665,64dc7b5313ffd7a1de696252,,,,,,,ctch,resources/DBN.BMP,resources/DP.BMP,Door4,-0.167857143,-0.025892857,1,0,0,0.633,optionLeft,60,16280,7,35,0,35,0,1,,,,,,,,,,,,,,,,,,,,,,,,,,,,,,,,,,,,,,,
,,,,,,,,2023-08-16_08h31.50.438,HF_wild_card,2022.2.4,MacIntel,29.41176471,62b2080f8f89f2f15c47d9ba,64d2fd46c836a06233681665,64dc7b5313ffd7a1de696252,,,,,,,,,,,,,,,,,,,,,,,,,,6,0,6,0,1,,,,,,,,,,,,,,,,,,,,,,,,,,,,,,,,,,
,,,,,,,,2023-08-16_08h31.50.438,HF_wild_card,2022.2.4,MacIntel,29.41176471,62b2080f8f89f2f15c47d9ba,64d2fd46c836a06233681665,64dc7b5313ffd7a1de696252,,,,,,,,,,,,,,,,,,,,,,,,,,,,,,,4,,,,,,,,,,,,,,,,,,,,,,,,,,,,,,,,,
,,,,,,,,2023-08-16_08h31.50.438,HF_wild_card,2022.2.4,MacIntel,29.41176471,62b2080f8f89f2f15c47d9ba,64d2fd46c836a06233681665,64dc7b5313ffd7a1de696252,,,,,,,,,,,,,,,,,,,,,,,,,,,,,,,,,,,,,,,,,,,,,,,,,,,,,,,,,,,,,,,,
,,,,,,,,2023-08-16_08h31.50.438,HF_wild_card,2022.2.4,MacIntel,29.41176471,62b2080f8f89f2f15c47d9ba,64d2fd46c836a06233681665,64dc7b5313ffd7a1de696252,,,,,,,,,,,,,,,,,,,,,,,,,,,,,,,,30,Door1,resources/DP.BMP,0,0,0,0,1,,,,,,,,,,,,,,,,,,,,,,,,,
,,,,,,,,2023-08-16_08h31.50.438,HF_wild_card,2022.2.4,MacIntel,29.41176471,62b2080f8f89f2f15c47d9ba,64d2fd46c836a06233681665,64dc7b5313ffd7a1de696252,,,,,,,,,,,,,,,,,,,,,,,,,,,,,,,,45,WC_extreme,resources/DB.BMP,1,0,1,0,1,,,,,,,,,,,,,,,,,,,,,,,,,
,,,,,,,,2023-08-16_08h31.50.438,HF_wild_card,2022.2.4,MacIntel,29.41176471,62b2080f8f89f2f15c47d9ba,64d2fd46c836a06233681665,64dc7b5313ffd7a1de696252,,,,,,,,,,,,,,,,,,,,,,,,,,,,,,,,70,Door3,resources/DY.BMP,2,0,2,0,1,,,,,,,,,,,,,,,,,,,,,,,,,
,,,,,,,,2023-08-16_08h31.50.438,HF_wild_card,2022.2.4,MacIntel,29.41176471,62b2080f8f89f2f15c47d9ba,64d2fd46c836a06233681665,64dc7b5313ffd7a1de696252,,,,,,,,,,,,,,,,,,,,,,,,,,,,,,,,40,WC_nonExtreme,resources/DR.BMP,3,0,3,0,1,,,,,,,,,,,,,,,,,,,,,,,,,
,,,,,,,,2023-08-16_08h31.50.438,HF_wild_card,2022.2.4,MacIntel,29.41176471,62b2080f8f89f2f15c47d9ba,64d2fd46c836a06233681665,64dc7b5313ffd7a1de696252,,,,,,,,,,,,,,,,,,,,,,,,,,,,,,,,80,Door4,resources/DBN.BMP,4,0,4,0,1,,,,,,,,,,,,,,,,,,,,,,,,,
