Condition,Low fixed image (Door1),Low risky image (Door2),High fixed image (Door3),High risky image (Door4),Extreme Wild Card,NonExtreme Wild Card,,date,expName,psychopyVersion,OS,frameRate,PROLIFIC_PID,STUDY_ID,SESSION_ID,mouse_2.x,mouse_2.y,mouse_2.leftButton,mouse_2.midButton,mouse_2.rightButton,mouse_2.clicked_name,Trial Type,Left Option Image,Right Option Image,Chosen Door,mouse.x,mouse.y,mouse.leftButton,mouse.midButton,mouse.rightButton,mouse.time,mouse.clicked_name,Feedback,Cumulative Reward,Block,trial.thisRepN,trial.thisTrialN,trial.thisN,trial.thisIndex,trial.ran,blocks.thisRepN,blocks.thisTrialN,blocks.thisN,blocks.thisIndex,blocks.ran,Money conversion,First Outcome Reported,Shown Door (First Outcome),Displayed Image (First Outcome),outcomes.thisRepN,outcomes.thisTrialN,outcomes.thisN,outcomes.thisIndex,outcomes.ran,judgments.thisRepN,judgments.thisTrialN,judgments.thisN,judgments.thisIndex,judgments.ran,freqMouse.x,freqMouse.y,freqMouse.leftButton,freqMouse.midButton,freqMouse.rightButton,freqMouse.clicked_name,FQJ for first outcome,FQJ for second outcome,Shown Door,Displayed Image,trials.thisRepN,trials.thisTrialN,trials.thisN,trials.thisIndex,trials.ran,judgBlock.thisRepN,judgBlock.thisTrialN,judgBlock.thisN,judgBlock.thisIndex,judgBlock.ran
1,resources/DP.BMP,resources/DR.BMP,resources/DB.BMP,resources/DY.BMP,resources/DBN.BMP,resources/DG.BMP,,2023-08-16_08h33.06.601,HF_wild_card,2022.2.4,Win32,59.99160118,60607526ff89564c7dee871e,64d2fd46c836a06233681665,64dc7b87760b5ca29153d2fa,,,,,,,,,,,,,,,,,,,,,,,,,,,,,,,,,,,,,,,,,,,,,,,,,,,,,,,,,,,,,,,,
,,,,,,,,2023-08-16_08h33.06.601,HF_wild_card,2022.2.4,Win32,59.99160118,60607526ff89564c7dee871e,64d2fd46c836a06233681665,64dc7b87760b5ca29153d2fa,0.006481524,-0.417592578,1,0,0,agree,,,,,,,,,,,,,,,,,,,,,,,,,,,,,,,,,,,,,,,,,,,,,,,,,,,,,,,,,,
,,,,,,,,2023-08-16_08h33.06.601,HF_wild_card,2022.2.4,Win32,59.99160118,60607526ff89564c7dee871e,64d2fd46c836a06233681665,64dc7b87760b5ca29153d2fa,,,,,,,,,,,,,,,,,,,,,,,,,,,,,,,,,,,,,,,,,,,,,,,,,,,,,,,,,,,,,,,,
,,,,,,,,2023-08-16_08h33.06.601,HF_wild_card,2022.2.4,Win32,59.99160118,60607526ff89564c7dee871e,64d2fd46c836a06233681665,64dc7b87760b5ca29153d2fa,,,,,,,decisionTrl,resources/DP.BMP,resources/DG.BMP,Door1,-0.304629608,-0.097222222,1,0,0,2.8853,optionLeft,30,30,1,0,0,0,0,1,,,,,,,,,,,,,,,,,,,,,,,,,,,,,,,,,,,,,,,
,,,,,,,,2023-08-16_08h33.06.601,HF_wild_card,2022.2.4,Win32,59.99160118,60607526ff89564c7dee871e,64d2fd46c836a06233681665,64dc7b87760b5ca29153d2fa,,,,,,,sngl,resources/DG.BMP,resources/Empty.png,WildCard_NonEx,-0.412037037,-0.135185171,1,0,0,1.8351,optionLeft,45,75,1,1,0,1,0,1,,,,,,,,,,,,,,,,,,,,,,,,,,,,,,,,,,,,,,,
,,,,,,,,2023-08-16_08h33.06.601,HF_wild_card,2022.2.4,Win32,59.99160118,60607526ff89564c7dee871e,64d2fd46c836a06233681665,64dc7b87760b5ca29153d2fa,,,,,,,decisionTrl,resources/DB.BMP,resources/DG.BMP,Door3,-0.304629608,-0.08888891,1,0,0,2.4947,optionLeft,70,145,1,2,0,2,0,1,,,,,,,,,,,,,,,,,,,,,,,,,,,,,,,,,,,,,,,
,,,,,,,,2023-08-16_08h33.06.601,HF_wild_card,2022.2.4,Win32,59.99160118,60607526ff89564c7dee871e,64d2fd46c836a06233681665,64dc7b87760b5ca29153d2fa,,,,,,,decisionTrl,resources/DG.BMP,resources/DP.BMP,Door1,0.463888945,-0.026851866,1,0,0,1.7838,optionRight,30,175,1,3,0,3,0,1,,,,,,,,,,,,,,,,,,,,,,,,,,,,,,,,,,,,,,,
,,,,,,,,2023-08-16_08h33.06.601,HF_wild_card,2022.2.4,Win32,59.99160118,60607526ff89564c7dee871e,64d2fd46c836a06233681665,64dc7b87760b5ca29153d2fa,,,,,,,decisionTrl,resources/DR.BMP,resources/DP.BMP,Door1,0.444444444,-0.020370377,1,0,0,3.5825,optionRight,30,205,1,4,0,4,0,1,,,,,,,,,,,,,,,,,,,,,,,,,,,,,,,,,,,,,,,
,,,,,,,,2023-08-16_08h33.06.601,HF_wild_card,2022.2.4,Win32,59.99160118,60607526ff89564c7dee871e,64d2fd46c836a06233681665,64dc7b87760b5ca29153d2fa,,,,,,,sngl,resources/Empty.png,resources/DB.BMP,Door3,0.223148134,-0.014814836,1,0,0,1.0908,optionRight,70,275,1,5,0,5,0,1,,,,,,,,,,,,,,,,,,,,,,,,,,,,,,,,,,,,,,,
,,,,,,,,2023-08-16_08h33.06.601,HF_wild_card,2022.2.4,Win32,59.99160118,60607526ff89564c7dee871e,64d2fd46c836a06233681665,64dc7b87760b5ca29153d2fa,,,,,,,decisionTrl,resources/DB.BMP,resources/DY.BMP,Door4,0.411111196,-0.070370392,1,0,0,2.2148,optionRight,80,355,1,6,0,6,0,1,,,,,,,,,,,,,,,,,,,,,,,,,,,,,,,,,,,,,,,
,,,,,,,,2023-08-16_08h33.06.601,HF_wild_card,2022.2.4,Win32,59.99160118,60607526ff89564c7dee871e,64d2fd46c836a06233681665,64dc7b87760b5ca29153d2fa,,,,,,,decisionTrl,resources/DR.BMP,resources/DP.BMP,Door2,-0.39907406,-0.043518526,1,0,0,1.934599999,optionLeft,20,375,1,7,0,7,0,1,,,,,,,,,,,,,,,,,,,,,,,,,,,,,,,,,,,,,,,
,,,,,,,,2023-08-16_08h33.06.601,HF_wild_card,2022.2.4,Win32,59.99160118,60607526ff89564c7dee871e,64d2fd46c836a06233681665,64dc7b87760b5ca29153d2fa,,,,,,,ctch,resources/DP.BMP,resources/DY.BMP,Door4,0.350926011,-0.083333333,1,0,0,2.518700001,optionRight,80,455,1,8,0,8,0,1,,,,,,,,,,,,,,,,,,,,,,,,,,,,,,,,,,,,,,,
,,,,,,,,2023-08-16_08h33.06.601,HF_wild_card,2022.2.4,Win32,59.99160118,60607526ff89564c7dee871e,64d2fd46c836a06233681665,64dc7b87760b5ca29153d2fa,,,,,,,decisionTrl,resources/DP.BMP,resources/DR.BMP,Door2,0.412037037,-0.082407422,1,0,0,1.2805,optionRight,40,495,1,9,0,9,0,1,,,,,,,,,,,,,,,,,,,,,,,,,,,,,,,,,,,,,,,
,,,,,,,,2023-08-16_08h33.06.601,HF_wild_card,2022.2.4,Win32,59.99160118,60607526ff89564c7dee871e,64d2fd46c836a06233681665,64dc7b87760b5ca29153d2fa,,,,,,,ctch,resources/DB.BMP,resources/DR.BMP,Door3,-0.459259245,0.070370356,1,0,0,4.008400001,optionLeft,70,565,1,10,0,10,0,1,,,,,,,,,,,,,,,,,,,,,,,,,,,,,,,,,,,,,,,
,,,,,,,,2023-08-16_08h33.06.601,HF_wild_card,2022.2.4,Win32,59.99160118,60607526ff89564c7dee871e,64d2fd46c836a06233681665,64dc7b87760b5ca29153d2fa,,,,,,,decisionTrl,resources/DR.BMP,resources/DP.BMP,Door2,-0.461111104,-0.023148148,1,0,0,2.3829,optionLeft,40,605,1,11,0,11,0,1,,,,,,,,,,,,,,,,,,,,,,,,,,,,,,,,,,,,,,,
,,,,,,,,2023-08-16_08h33.06.601,HF_wild_card,2022.2.4,Win32,59.99160118,60607526ff89564c7dee871e,64d2fd46c836a06233681665,64dc7b87760b5ca29153d2fa,,,,,,,decisionTrl,resources/DG.BMP,resources/DB.BMP,WildCard_NonEx,-0.353703711,-0.037962984,1,0,0,1.8083,optionLeft,45,650,1,12,0,12,0,1,,,,,,,,,,,,,,,,,,,,,,,,,,,,,,,,,,,,,,,
,,,,,,,,2023-08-16_08h33.06.601,HF_wild_card,2022.2.4,Win32,59.99160118,60607526ff89564c7dee871e,64d2fd46c836a06233681665,64dc7b87760b5ca29153d2fa,,,,,,,decisionTrl,resources/DP.BMP,resources/DR.BMP,Door1,-0.420370349,-0.025925919,1,0,0,2.2299,optionLeft,30,680,1,13,0,13,0,1,,,,,,,,,,,,,,,,,,,,,,,,,,,,,,,,,,,,,,,
,,,,,,,,2023-08-16_08h33.06.601,HF_wild_card,2022.2.4,Win32,59.99160118,60607526ff89564c7dee871e,64d2fd46c836a06233681665,64dc7b87760b5ca29153d2fa,,,,,,,ctch,resources/DR.BMP,resources/DB.BMP,Door3,0.330555527,-0.013888889,1,0,0,2.038599999,optionRight,70,750,1,14,0,14,0,1,,,,,,,,,,,,,,,,,,,,,,,,,,,,,,,,,,,,,,,
,,,,,,,,2023-08-16_08h33.06.601,HF_wild_card,2022.2.4,Win32,59.99160118,60607526ff89564c7dee871e,64d2fd46c836a06233681665,64dc7b87760b5ca29153d2fa,,,,,,,sngl,resources/DR.BMP,resources/Empty.png,Door2,-0.436111097,0.02870369,1,0,0,1.124900001,optionLeft,40,790,1,15,0,15,0,1,,,,,,,,,,,,,,,,,,,,,,,,,,,,,,,,,,,,,,,
,,,,,,,,2023-08-16_08h33.06.601,HF_wild_card,2022.2.4,Win32,59.99160118,60607526ff89564c7dee871e,64d2fd46c836a06233681665,64dc7b87760b5ca29153d2fa,,,,,,,ctch,resources/DY.BMP,resources/DP.BMP,Door4,-0.342592593,-0.002777771,1,0,0,1.046700001,optionLeft,80,870,1,16,0,16,0,1,,,,,,,,,,,,,,,,,,,,,,,,,,,,,,,,,,,,,,,
,,,,,,,,2023-08-16_08h33.06.601,HF_wild_card,2022.2.4,Win32,59.99160118,60607526ff89564c7dee871e,64d2fd46c836a06233681665,64dc7b87760b5ca29153d2fa,,,,,,,sngl,resources/Empty.png,resources/DG.BMP,WildCard_NonEx,0.363888917,-0.104629658,1,0,0,0.918299999,optionRight,55,925,1,17,0,17,0,1,,,,,,,,,,,,,,,,,,,,,,,,,,,,,,,,,,,,,,,
,,,,,,,,2023-08-16_08h33.06.601,HF_wild_card,2022.2.4,Win32,59.99160118,60607526ff89564c7dee871e,64d2fd46c836a06233681665,64dc7b87760b5ca29153d2fa,,,,,,,decisionTrl,resources/DG.BMP,resources/DY.BMP,Door4,0.377777806,-0.14444443,1,0,0,1.298,optionRight,80,1005,1,18,0,18,0,1,,,,,,,,,,,,,,,,,,,,,,,,,,,,,,,,,,,,,,,
,,,,,,,,2023-08-16_08h33.06.601,HF_wild_card,2022.2.4,Win32,59.99160118,60607526ff89564c7dee871e,64d2fd46c836a06233681665,64dc7b87760b5ca29153d2fa,,,,,,,decisionTrl,resources/DY.BMP,resources/DB.BMP,Door4,-0.294444402,-0.040740755,1,0,0,1.3281,optionLeft,80,1085,1,19,0,19,0,1,,,,,,,,,,,,,,,,,,,,,,,,,,,,,,,,,,,,,,,
,,,,,,,,2023-08-16_08h33.06.601,HF_wild_card,2022.2.4,Win32,59.99160118,60607526ff89564c7dee871e,64d2fd46c836a06233681665,64dc7b87760b5ca29153d2fa,,,,,,,decisionTrl,resources/DY.BMP,resources/DB.BMP,Door4,-0.303703697,0.011111118,1,0,0,1.392900001,optionLeft,60,1145,1,20,0,20,0,1,,,,,,,,,,,,,,,,,,,,,,,,,,,,,,,,,,,,,,,
,,,,,,,,2023-08-16_08h33.06.601,HF_wild_card,2022.2.4,Win32,59.99160118,60607526ff89564c7dee871e,64d2fd46c836a06233681665,64dc7b87760b5ca29153d2fa,,,,,,,sngl,resources/Empty.png,resources/DY.BMP,Door4,0.366666723,-0.009259259,1,0,0,1.0179,optionRight,60,1205,1,21,0,21,0,1,,,,,,,,,,,,,,,,,,,,,,,,,,,,,,,,,,,,,,,
,,,,,,,,2023-08-16_08h33.06.601,HF_wild_card,2022.2.4,Win32,59.99160118,60607526ff89564c7dee871e,64d2fd46c836a06233681665,64dc7b87760b5ca29153d2fa,,,,,,,ctch,resources/DP.BMP,resources/DY.BMP,Door1,-0.418518526,-0.010185206,1,0,0,1.4608,optionLeft,30,1235,1,22,0,22,0,1,,,,,,,,,,,,,,,,,,,,,,,,,,,,,,,,,,,,,,,
,,,,,,,,2023-08-16_08h33.06.601,HF_wild_card,2022.2.4,Win32,59.99160118,60607526ff89564c7dee871e,64d2fd46c836a06233681665,64dc7b87760b5ca29153d2fa,,,,,,,decisionTrl,resources/DB.BMP,resources/DY.BMP,Door4,0.48518527,0.020370377,1,0,0,1.3788,optionRight,80,1315,1,23,0,23,0,1,,,,,,,,,,,,,,,,,,,,,,,,,,,,,,,,,,,,,,,
,,,,,,,,2023-08-16_08h33.06.601,HF_wild_card,2022.2.4,Win32,59.99160118,60607526ff89564c7dee871e,64d2fd46c836a06233681665,64dc7b87760b5ca29153d2fa,,,,,,,decisionTrl,resources/DB.BMP,resources/DY.BMP,Door4,0.332407492,-0.097222222,1,0,0,1.2919,optionRight,80,1395,1,24,0,24,0,1,,,,,,,,,,,,,,,,,,,,,,,,,,,,,,,,,,,,,,,
,,,,,,,,2023-08-16_08h33.06.601,HF_wild_card,2022.2.4,Win32,59.99160118,60607526ff89564c7dee871e,64d2fd46c836a06233681665,64dc7b87760b5ca29153d2fa,,,,,,,sngl,resources/DB.BMP,resources/Empty.png,Door3,-0.320370356,-0.026851866,1,0,0,1.641,optionLeft,70,1465,1,25,0,25,0,1,,,,,,,,,,,,,,,,,,,,,,,,,,,,,,,,,,,,,,,
,,,,,,,,2023-08-16_08h33.06.601,HF_wild_card,2022.2.4,Win32,59.99160118,60607526ff89564c7dee871e,64d2fd46c836a06233681665,64dc7b87760b5ca29153d2fa,,,,,,,ctch,resources/DY.BMP,resources/DP.BMP,Door4,-0.347222222,-0.001851859,1,0,0,1.6739,optionLeft,80,1545,1,26,0,26,0,1,,,,,,,,,,,,,,,,,,,,,,,,,,,,,,,,,,,,,,,
,,,,,,,,2023-08-16_08h33.06.601,HF_wild_card,2022.2.4,Win32,59.99160118,60607526ff89564c7dee871e,64d2fd46c836a06233681665,64dc7b87760b5ca29153d2fa,,,,,,,sngl,resources/DY.BMP,resources/Empty.png,Door4,-0.256481453,0.017592571,1,0,0,1.026,optionLeft,80,1625,1,27,0,27,0,1,,,,,,,,,,,,,,,,,,,,,,,,,,,,,,,,,,,,,,,
,,,,,,,,2023-08-16_08h33.06.601,HF_wild_card,2022.2.4,Win32,59.99160118,60607526ff89564c7dee871e,64d2fd46c836a06233681665,64dc7b87760b5ca29153d2fa,,,,,,,sngl,resources/Empty.png,resources/DP.BMP,Door1,0.313888974,0.03611109,1,0,0,0.7865,optionRight,30,1655,1,28,0,28,0,1,,,,,,,,,,,,,,,,,,,,,,,,,,,,,,,,,,,,,,,
,,,,,,,,2023-08-16_08h33.06.601,HF_wild_card,2022.2.4,Win32,59.99160118,60607526ff89564c7dee871e,64d2fd46c836a06233681665,64dc7b87760b5ca29153d2fa,,,,,,,ctch,resources/DR.BMP,resources/DB.BMP,Door2,-0.317592586,-0.009259259,1,0,0,1.3076,optionLeft,40,1695,1,29,0,29,0,1,,,,,,,,,,,,,,,,,,,,,,,,,,,,,,,,,,,,,,,
,,,,,,,,2023-08-16_08h33.06.601,HF_wild_card,2022.2.4,Win32,59.99160118,60607526ff89564c7dee871e,64d2fd46c836a06233681665,64dc7b87760b5ca29153d2fa,,,,,,,sngl,resources/Empty.png,resources/DG.BMP,WildCard_NonEx,0.404629601,0.03148146,1,0,0,0.799,optionRight,45,1740,1,30,0,30,0,1,,,,,,,,,,,,,,,,,,,,,,,,,,,,,,,,,,,,,,,
,,,,,,,,2023-08-16_08h33.06.601,HF_wild_card,2022.2.4,Win32,59.99160118,60607526ff89564c7dee871e,64d2fd46c836a06233681665,64dc7b87760b5ca29153d2fa,,,,,,,decisionTrl,resources/DY.BMP,resources/DG.BMP,Door4,-0.310185185,-0.047222243,1,0,0,1.2241,optionLeft,60,1800,1,31,0,31,0,1,,,,,,,,,,,,,,,,,,,,,,,,,,,,,,,,,,,,,,,
,,,,,,,,2023-08-16_08h33.06.601,HF_wild_card,2022.2.4,Win32,59.99160118,60607526ff89564c7dee871e,64d2fd46c836a06233681665,64dc7b87760b5ca29153d2fa,,,,,,,decisionTrl,resources/DR.BMP,resources/DP.BMP,Door2,-0.335185192,-0.151851866,1,0,0,1.3315,optionLeft,20,1820,1,32,0,32,0,1,,,,,,,,,,,,,,,,,,,,,,,,,,,,,,,,,,,,,,,
,,,,,,,,2023-08-16_08h33.06.601,HF_wild_card,2022.2.4,Win32,59.99160118,60607526ff89564c7dee871e,64d2fd46c836a06233681665,64dc7b87760b5ca29153d2fa,,,,,,,decisionTrl,resources/DB.BMP,resources/DY.BMP,Door4,0.365740741,-0.113888917,1,0,0,1.393400001,optionRight,80,1900,1,33,0,33,0,1,,,,,,,,,,,,,,,,,,,,,,,,,,,,,,,,,,,,,,,
,,,,,,,,2023-08-16_08h33.06.601,HF_wild_card,2022.2.4,Win32,59.99160118,60607526ff89564c7dee871e,64d2fd46c836a06233681665,64dc7b87760b5ca29153d2fa,,,,,,,decisionTrl,resources/DR.BMP,resources/DG.BMP,WildCard_NonEx,0.352777834,-0.063888903,1,0,0,1.5643,optionRight,45,1945,1,34,0,34,0,1,,,,,,,,,,,,,,,,,,,,,,,,,,,,,,,,,,,,,,,
,,,,,,,,2023-08-16_08h33.06.601,HF_wild_card,2022.2.4,Win32,59.99160118,60607526ff89564c7dee871e,64d2fd46c836a06233681665,64dc7b87760b5ca29153d2fa,,,,,,,decisionTrl,resources/DG.BMP,resources/DR.BMP,Door2,0.271296325,-0.106481481,1,0,0,1.4982,optionRight,40,1985,1,35,0,35,0,1,,,,,,,,,,,,,,,,,,,,,,,,,,,,,,,,,,,,,,,
,,,,,,,,2023-08-16_08h33.06.601,HF_wild_card,2022.2.4,Win32,59.99160118,60607526ff89564c7dee871e,64d2fd46c836a06233681665,64dc7b87760b5ca29153d2fa,,,,,,,ctch,resources/DB.BMP,resources/DR.BMP,Door3,-0.247222194,-0.038888896,1,0,0,2.6492,optionLeft,70,2055,1,36,0,36,0,1,,,,,,,,,,,,,,,,,,,,,,,,,,,,,,,,,,,,,,,
,,,,,,,,2023-08-16_08h33.06.601,HF_wild_card,2022.2.4,Win32,59.99160118,60607526ff89564c7dee871e,64d2fd46c836a06233681665,64dc7b87760b5ca29153d2fa,,,,,,,sngl,resources/DP.BMP,resources/Empty.png,Door1,-0.398148148,-0.08888891,1,0,0,0.8483,optionLeft,30,2085,1,37,0,37,0,1,,,,,,,,,,,,,,,,,,,,,,,,,,,,,,,,,,,,,,,
,,,,,,,,2023-08-16_08h33.06.601,HF_wild_card,2022.2.4,Win32,59.99160118,60607526ff89564c7dee871e,64d2fd46c836a06233681665,64dc7b87760b5ca29153d2fa,,,,,,,decisionTrl,resources/DP.BMP,resources/DR.BMP,Door2,0.565740797,-0.074074074,1,0,0,1.3571,optionRight,40,2125,1,38,0,38,0,1,,,,,,,,,,,,,,,,,,,,,,,,,,,,,,,,,,,,,,,
,,,,,,,,2023-08-16_08h33.06.601,HF_wild_card,2022.2.4,Win32,59.99160118,60607526ff89564c7dee871e,64d2fd46c836a06233681665,64dc7b87760b5ca29153d2fa,,,,,,,decisionTrl,resources/DY.BMP,resources/DB.BMP,Door4,-0.287037037,-0.125925912,1,0,0,2.081,optionLeft,60,2185,1,39,0,39,0,1,,,,,,,,,,,,,,,,,,,,,,,,,,,,,,,,,,,,,,,
,,,,,,,,2023-08-16_08h33.06.601,HF_wild_card,2022.2.4,Win32,59.99160118,60607526ff89564c7dee871e,64d2fd46c836a06233681665,64dc7b87760b5ca29153d2fa,,,,,,,decisionTrl,resources/DP.BMP,resources/DR.BMP,Door1,-0.36296297,-0.070370392,1,0,0,1.993200001,optionLeft,30,2215,1,40,0,40,0,1,,,,,,,,,,,,,,,,,,,,,,,,,,,,,,,,,,,,,,,
,,,,,,,,2023-08-16_08h33.06.601,HF_wild_card,2022.2.4,Win32,59.99160118,60607526ff89564c7dee871e,64d2fd46c836a06233681665,64dc7b87760b5ca29153d2fa,,,,,,,sngl,resources/Empty.png,resources/DR.BMP,Door2,0.303703732,-0.066666674,1,0,0,0.7078,optionRight,20,2235,1,41,0,41,0,1,,,,,,,,,,,,,,,,,,,,,,,,,,,,,,,,,,,,,,,
,,,,,,,,2023-08-16_08h33.06.601,HF_wild_card,2022.2.4,Win32,59.99160118,60607526ff89564c7dee871e,64d2fd46c836a06233681665,64dc7b87760b5ca29153d2fa,,,,,,,decisionTrl,resources/DY.BMP,resources/DB.BMP,Door3,0.308333362,-0.109259288,1,0,0,1.9818,optionRight,70,2305,1,42,0,42,0,1,,,,,,,,,,,,,,,,,,,,,,,,,,,,,,,,,,,,,,,
,,,,,,,,2023-08-16_08h33.06.601,HF_wild_card,2022.2.4,Win32,59.99160118,60607526ff89564c7dee871e,64d2fd46c836a06233681665,64dc7b87760b5ca29153d2fa,,,,,,,sngl,resources/DG.BMP,resources/Empty.png,WildCard_NonEx,-0.407407407,-0.094444487,1,0,0,0.763599999,optionLeft,55,2360,1,43,0,43,0,1,,,,,,,,,,,,,,,,,,,,,,,,,,,,,,,,,,,,,,,
,,,,,,,,2023-08-16_08h33.06.601,HF_wild_card,2022.2.4,Win32,59.99160118,60607526ff89564c7dee871e,64d2fd46c836a06233681665,64dc7b87760b5ca29153d2fa,,,,,,,,,,,,,,,,,,,,,,,,,,0,0,0,0,1,,,,,,,,,,,,,,,,,,,,,,,,,,,,,,,,,,
,,,,,,,,2023-08-16_08h33.06.601,HF_wild_card,2022.2.4,Win32,59.99160118,60607526ff89564c7dee871e,64d2fd46c836a06233681665,64dc7b87760b5ca29153d2fa,,,,,,,sngl,resources/Empty.png,resources/DP.BMP,Door1,0.294444473,-0.185185185,1,0,0,1.9535,optionRight,30,2390,2,0,0,0,0,1,,,,,,,,,,,,,,,,,,,,,,,,,,,,,,,,,,,,,,,
,,,,,,,,2023-08-16_08h33.06.601,HF_wild_card,2022.2.4,Win32,59.99160118,60607526ff89564c7dee871e,64d2fd46c836a06233681665,64dc7b87760b5ca29153d2fa,,,,,,,decisionTrl,resources/DY.BMP,resources/DG.BMP,Door4,-0.347222222,-0.161111125,1,0,0,2.549599999,optionLeft,60,2450,2,1,0,1,0,1,,,,,,,,,,,,,,,,,,,,,,,,,,,,,,,,,,,,,,,
,,,,,,,,2023-08-16_08h33.06.601,HF_wild_card,2022.2.4,Win32,59.99160118,60607526ff89564c7dee871e,64d2fd46c836a06233681665,64dc7b87760b5ca29153d2fa,,,,,,,sngl,resources/DG.BMP,resources/Empty.png,WildCard_NonEx,-0.222222222,-0.137962977,1,0,0,1.098900001,optionLeft,55,2505,2,2,0,2,0,1,,,,,,,,,,,,,,,,,,,,,,,,,,,,,,,,,,,,,,,
,,,,,,,,2023-08-16_08h33.06.601,HF_wild_card,2022.2.4,Win32,59.99160118,60607526ff89564c7dee871e,64d2fd46c836a06233681665,64dc7b87760b5ca29153d2fa,,,,,,,decisionTrl,resources/DR.BMP,resources/DG.BMP,Door2,-0.25462963,-0.062962956,1,0,0,2.6807,optionLeft,20,2525,2,3,0,3,0,1,,,,,,,,,,,,,,,,,,,,,,,,,,,,,,,,,,,,,,,
,,,,,,,,2023-08-16_08h33.06.601,HF_wild_card,2022.2.4,Win32,59.99160118,60607526ff89564c7dee871e,64d2fd46c836a06233681665,64dc7b87760b5ca29153d2fa,,,,,,,decisionTrl,resources/DP.BMP,resources/DG.BMP,Door1,-0.307407414,-0.017592607,1,0,0,2.2958,optionLeft,30,2555,2,4,0,4,0,1,,,,,,,,,,,,,,,,,,,,,,,,,,,,,,,,,,,,,,,
,,,,,,,,2023-08-16_08h33.06.601,HF_wild_card,2022.2.4,Win32,59.99160118,60607526ff89564c7dee871e,64d2fd46c836a06233681665,64dc7b87760b5ca29153d2fa,,,,,,,ctch,resources/DB.BMP,resources/DR.BMP,Door3,-0.320370356,0.033333319,1,0,0,1.6109,optionLeft,70,2625,2,5,0,5,0,1,,,,,,,,,,,,,,,,,,,,,,,,,,,,,,,,,,,,,,,
,,,,,,,,2023-08-16_08h33.06.601,HF_wild_card,2022.2.4,Win32,59.99160118,60607526ff89564c7dee871e,64d2fd46c836a06233681665,64dc7b87760b5ca29153d2fa,,,,,,,decisionTrl,resources/DY.BMP,resources/DB.BMP,Door4,-0.387962942,0.075925933,1,0,0,1.3658,optionLeft,80,2705,2,6,0,6,0,1,,,,,,,,,,,,,,,,,,,,,,,,,,,,,,,,,,,,,,,
,,,,,,,,2023-08-16_08h33.06.601,HF_wild_card,2022.2.4,Win32,59.99160118,60607526ff89564c7dee871e,64d2fd46c836a06233681665,64dc7b87760b5ca29153d2fa,,,,,,,sngl,resources/DY.BMP,resources/Empty.png,Door4,-0.29351849,0.026851831,1,0,0,0.9591,optionLeft,60,2765,2,7,0,7,0,1,,,,,,,,,,,,,,,,,,,,,,,,,,,,,,,,,,,,,,,
,,,,,,,,2023-08-16_08h33.06.601,HF_wild_card,2022.2.4,Win32,59.99160118,60607526ff89564c7dee871e,64d2fd46c836a06233681665,64dc7b87760b5ca29153d2fa,,,,,,,decisionTrl,resources/DG.BMP,resources/DR.BMP,WildCard_NonEx,-0.375,0.076851845,1,0,0,3.4833,optionLeft,55,2820,2,8,0,8,0,1,,,,,,,,,,,,,,,,,,,,,,,,,,,,,,,,,,,,,,,
,,,,,,,,2023-08-16_08h33.06.601,HF_wild_card,2022.2.4,Win32,59.99160118,60607526ff89564c7dee871e,64d2fd46c836a06233681665,64dc7b87760b5ca29153d2fa,,,,,,,decisionTrl,resources/DY.BMP,resources/DB.BMP,Door3,0.327777863,-0.037037037,1,0,0,0.941599999,optionRight,70,2890,2,9,0,9,0,1,,,,,,,,,,,,,,,,,,,,,,,,,,,,,,,,,,,,,,,
,,,,,,,,2023-08-16_08h33.06.601,HF_wild_card,2022.2.4,Win32,59.99160118,60607526ff89564c7dee871e,64d2fd46c836a06233681665,64dc7b87760b5ca29153d2fa,,,,,,,decisionTrl,resources/DB.BMP,resources/DY.BMP,Door4,0.399999972,-0.021296289,1,0,0,1.5311,optionRight,80,2970,2,10,0,10,0,1,,,,,,,,,,,,,,,,,,,,,,,,,,,,,,,,,,,,,,,
,,,,,,,,2023-08-16_08h33.06.601,HF_wild_card,2022.2.4,Win32,59.99160118,60607526ff89564c7dee871e,64d2fd46c836a06233681665,64dc7b87760b5ca29153d2fa,,,,,,,sngl,resources/DP.BMP,resources/Empty.png,Door1,-0.314814815,-0.003703718,1,0,0,0.8454,optionLeft,30,3000,2,11,0,11,0,1,,,,,,,,,,,,,,,,,,,,,,,,,,,,,,,,,,,,,,,
,,,,,,,,2023-08-16_08h33.06.601,HF_wild_card,2022.2.4,Win32,59.99160118,60607526ff89564c7dee871e,64d2fd46c836a06233681665,64dc7b87760b5ca29153d2fa,,,,,,,decisionTrl,resources/DR.BMP,resources/DP.BMP,Door1,0.373148176,-0.074074074,1,0,0,1.3144,optionRight,30,3030,2,12,0,12,0,1,,,,,,,,,,,,,,,,,,,,,,,,,,,,,,,,,,,,,,,
,,,,,,,,2023-08-16_08h33.06.601,HF_wild_card,2022.2.4,Win32,59.99160118,60607526ff89564c7dee871e,64d2fd46c836a06233681665,64dc7b87760b5ca29153d2fa,,,,,,,sngl,resources/DR.BMP,resources/Empty.png,Door2,-0.375,0.047222208,1,0,0,0.737799999,optionLeft,20,3050,2,13,0,13,0,1,,,,,,,,,,,,,,,,,,,,,,,,,,,,,,,,,,,,,,,
,,,,,,,,2023-08-16_08h33.06.601,HF_wild_card,2022.2.4,Win32,59.99160118,60607526ff89564c7dee871e,64d2fd46c836a06233681665,64dc7b87760b5ca29153d2fa,,,,,,,ctch,resources/DB.BMP,resources/DR.BMP,Door3,-0.40648146,0.103703711,1,0,0,0.9747,optionLeft,70,3120,2,14,0,14,0,1,,,,,,,,,,,,,,,,,,,,,,,,,,,,,,,,,,,,,,,
,,,,,,,,2023-08-16_08h33.06.601,HF_wild_card,2022.2.4,Win32,59.99160118,60607526ff89564c7dee871e,64d2fd46c836a06233681665,64dc7b87760b5ca29153d2fa,,,,,,,decisionTrl,resources/DB.BMP,resources/DY.BMP,Door4,0.287962949,-0.062037044,1,0,0,1.3601,optionRight,80,3200,2,15,0,15,0,1,,,,,,,,,,,,,,,,,,,,,,,,,,,,,,,,,,,,,,,
,,,,,,,,2023-08-16_08h33.06.601,HF_wild_card,2022.2.4,Win32,59.99160118,60607526ff89564c7dee871e,64d2fd46c836a06233681665,64dc7b87760b5ca29153d2fa,,,,,,,decisionTrl,resources/DG.BMP,resources/DB.BMP,Door3,0.266666695,-0.062037044,1,0,0,2.3978,optionRight,70,3270,2,16,0,16,0,1,,,,,,,,,,,,,,,,,,,,,,,,,,,,,,,,,,,,,,,
,,,,,,,,2023-08-16_08h33.06.601,HF_wild_card,2022.2.4,Win32,59.99160118,60607526ff89564c7dee871e,64d2fd46c836a06233681665,64dc7b87760b5ca29153d2fa,,,,,,,sngl,resources/Empty.png,resources/DB.BMP,Door3,0.239814829,-0.022222236,1,0,0,1.107,optionRight,70,3340,2,17,0,17,0,1,,,,,,,,,,,,,,,,,,,,,,,,,,,,,,,,,,,,,,,
,,,,,,,,2023-08-16_08h33.06.601,HF_wild_card,2022.2.4,Win32,59.99160118,60607526ff89564c7dee871e,64d2fd46c836a06233681665,64dc7b87760b5ca29153d2fa,,,,,,,decisionTrl,resources/DP.BMP,resources/DR.BMP,Door1,-0.313888868,-0.032407407,1,0,0,1.5413,optionLeft,30,3370,2,18,0,18,0,1,,,,,,,,,,,,,,,,,,,,,,,,,,,,,,,,,,,,,,,
,,,,,,,,2023-08-16_08h33.06.601,HF_wild_card,2022.2.4,Win32,59.99160118,60607526ff89564c7dee871e,64d2fd46c836a06233681665,64dc7b87760b5ca29153d2fa,,,,,,,decisionTrl,resources/DR.BMP,resources/DP.BMP,Door1,0.300000085,-0.020370377,1,0,0,1.2975,optionRight,30,3400,2,19,0,19,0,1,,,,,,,,,,,,,,,,,,,,,,,,,,,,,,,,,,,,,,,
,,,,,,,,2023-08-16_08h33.06.601,HF_wild_card,2022.2.4,Win32,59.99160118,60607526ff89564c7dee871e,64d2fd46c836a06233681665,64dc7b87760b5ca29153d2fa,,,,,,,sngl,resources/DB.BMP,resources/Empty.png,Door3,-0.351851852,-0.01666666,1,0,0,0.642099999,optionLeft,70,3470,2,20,0,20,0,1,,,,,,,,,,,,,,,,,,,,,,,,,,,,,,,,,,,,,,,
,,,,,,,,2023-08-16_08h33.06.601,HF_wild_card,2022.2.4,Win32,59.99160118,60607526ff89564c7dee871e,64d2fd46c836a06233681665,64dc7b87760b5ca29153d2fa,,,,,,,decisionTrl,resources/DB.BMP,resources/DY.BMP,Door4,0.248148176,-0.037037037,1,0,0,1.7966,optionRight,80,3550,2,21,0,21,0,1,,,,,,,,,,,,,,,,,,,,,,,,,,,,,,,,,,,,,,,
,,,,,,,,2023-08-16_08h33.06.601,HF_wild_card,2022.2.4,Win32,59.99160118,60607526ff89564c7dee871e,64d2fd46c836a06233681665,64dc7b87760b5ca29153d2fa,,,,,,,decisionTrl,resources/DG.BMP,resources/DP.BMP,WildCard_NonEx,-0.292592578,0.00462963,1,0,0,3.496599999,optionLeft,45,3595,2,22,0,22,0,1,,,,,,,,,,,,,,,,,,,,,,,,,,,,,,,,,,,,,,,
,,,,,,,,2023-08-16_08h33.06.601,HF_wild_card,2022.2.4,Win32,59.99160118,60607526ff89564c7dee871e,64d2fd46c836a06233681665,64dc7b87760b5ca29153d2fa,,,,,,,decisionTrl,resources/DP.BMP,resources/DR.BMP,Door1,-0.213888875,-0.005555577,1,0,0,1.3332,optionLeft,30,3625,2,23,0,23,0,1,,,,,,,,,,,,,,,,,,,,,,,,,,,,,,,,,,,,,,,
,,,,,,,,2023-08-16_08h33.06.601,HF_wild_card,2022.2.4,Win32,59.99160118,60607526ff89564c7dee871e,64d2fd46c836a06233681665,64dc7b87760b5ca29153d2fa,,,,,,,decisionTrl,resources/DB.BMP,resources/DG.BMP,Door3,-0.237037023,-0.035185178,1,0,0,1.6147,optionLeft,70,3695,2,24,0,24,0,1,,,,,,,,,,,,,,,,,,,,,,,,,,,,,,,,,,,,,,,
,,,,,,,,2023-08-16_08h33.06.601,HF_wild_card,2022.2.4,Win32,59.99160118,60607526ff89564c7dee871e,64d2fd46c836a06233681665,64dc7b87760b5ca29153d2fa,,,,,,,decisionTrl,resources/DY.BMP,resources/DB.BMP,Door4,-0.289814772,-0.026851866,1,0,0,0.9018,optionLeft,60,3755,2,25,0,25,0,1,,,,,,,,,,,,,,,,,,,,,,,,,,,,,,,,,,,,,,,
,,,,,,,,2023-08-16_08h33.06.601,HF_wild_card,2022.2.4,Win32,59.99160118,60607526ff89564c7dee871e,64d2fd46c836a06233681665,64dc7b87760b5ca29153d2fa,,,,,,,ctch,resources/DR.BMP,resources/DB.BMP,Door3,0.383333418,-0.100000028,1,0,0,0.5989,optionRight,70,3825,2,26,0,26,0,1,,,,,,,,,,,,,,,,,,,,,,,,,,,,,,,,,,,,,,,
,,,,,,,,2023-08-16_08h33.06.601,HF_wild_card,2022.2.4,Win32,59.99160118,60607526ff89564c7dee871e,64d2fd46c836a06233681665,64dc7b87760b5ca29153d2fa,,,,,,,decisionTrl,resources/DP.BMP,resources/DR.BMP,Door1,-0.405555548,0.01666666,1,0,0,0.691,optionLeft,30,3855,2,27,0,27,0,1,,,,,,,,,,,,,,,,,,,,,,,,,,,,,,,,,,,,,,,
,,,,,,,,2023-08-16_08h33.06.601,HF_wild_card,2022.2.4,Win32,59.99160118,60607526ff89564c7dee871e,64d2fd46c836a06233681665,64dc7b87760b5ca29153d2fa,,,,,,,decisionTrl,resources/DY.BMP,resources/DB.BMP,Door4,-0.347222222,0.020370377,1,0,0,1.7187,optionLeft,60,3915,2,28,0,28,0,1,,,,,,,,,,,,,,,,,,,,,,,,,,,,,,,,,,,,,,,
,,,,,,,,2023-08-16_08h33.06.601,HF_wild_card,2022.2.4,Win32,59.99160118,60607526ff89564c7dee871e,64d2fd46c836a06233681665,64dc7b87760b5ca29153d2fa,,,,,,,sngl,resources/Empty.png,resources/DG.BMP,WildCard_NonEx,0.229629658,-0.061111132,1,0,0,0.8995,optionRight,45,3960,2,29,0,29,0,1,,,,,,,,,,,,,,,,,,,,,,,,,,,,,,,,,,,,,,,
,,,,,,,,2023-08-16_08h33.06.601,HF_wild_card,2022.2.4,Win32,59.99160118,60607526ff89564c7dee871e,64d2fd46c836a06233681665,64dc7b87760b5ca29153d2fa,,,,,,,sngl,resources/Empty.png,resources/DG.BMP,WildCard_NonEx,0.264814801,-0.036111125,1,0,0,0.7447,optionRight,55,4015,2,30,0,30,0,1,,,,,,,,,,,,,,,,,,,,,,,,,,,,,,,,,,,,,,,
,,,,,,,,2023-08-16_08h33.06.601,HF_wild_card,2022.2.4,Win32,59.99160118,60607526ff89564c7dee871e,64d2fd46c836a06233681665,64dc7b87760b5ca29153d2fa,,,,,,,ctch,resources/DY.BMP,resources/DP.BMP,Door4,-0.349074081,0.025925919,1,0,0,2.2472,optionLeft,80,4095,2,31,0,31,0,1,,,,,,,,,,,,,,,,,,,,,,,,,,,,,,,,,,,,,,,
,,,,,,,,2023-08-16_08h33.06.601,HF_wild_card,2022.2.4,Win32,59.99160118,60607526ff89564c7dee871e,64d2fd46c836a06233681665,64dc7b87760b5ca29153d2fa,,,,,,,ctch,resources/DP.BMP,resources/DY.BMP,Door4,0.238888917,-0.072222215,1,0,0,1.6146,optionRight,80,4175,2,32,0,32,0,1,,,,,,,,,,,,,,,,,,,,,,,,,,,,,,,,,,,,,,,
,,,,,,,,2023-08-16_08h33.06.601,HF_wild_card,2022.2.4,Win32,59.99160118,60607526ff89564c7dee871e,64d2fd46c836a06233681665,64dc7b87760b5ca29153d2fa,,,,,,,sngl,resources/Empty.png,resources/DY.BMP,Door4,0.363888917,-0.048148155,1,0,0,0.867200001,optionRight,80,4255,2,33,0,33,0,1,,,,,,,,,,,,,,,,,,,,,,,,,,,,,,,,,,,,,,,
,,,,,,,,2023-08-16_08h33.06.601,HF_wild_card,2022.2.4,Win32,59.99160118,60607526ff89564c7dee871e,64d2fd46c836a06233681665,64dc7b87760b5ca29153d2fa,,,,,,,sngl,resources/Empty.png,resources/DR.BMP,Door2,0.279629672,-0.035185178,1,0,0,0.779599999,optionRight,40,4295,2,34,0,34,0,1,,,,,,,,,,,,,,,,,,,,,,,,,,,,,,,,,,,,,,,
,,,,,,,,2023-08-16_08h33.06.601,HF_wild_card,2022.2.4,Win32,59.99160118,60607526ff89564c7dee871e,64d2fd46c836a06233681665,64dc7b87760b5ca29153d2fa,,,,,,,decisionTrl,resources/DB.BMP,resources/DY.BMP,Door4,0.26944443,-0.053703697,1,0,0,1.9244,optionRight,80,4375,2,35,0,35,0,1,,,,,,,,,,,,,,,,,,,,,,,,,,,,,,,,,,,,,,,
,,,,,,,,2023-08-16_08h33.06.601,HF_wild_card,2022.2.4,Win32,59.99160118,60607526ff89564c7dee871e,64d2fd46c836a06233681665,64dc7b87760b5ca29153d2fa,,,,,,,decisionTrl,resources/DR.BMP,resources/DP.BMP,Door1,0.342592593,-0.061111132,1,0,0,2.7995,optionRight,30,4405,2,36,0,36,0,1,,,,,,,,,,,,,,,,,,,,,,,,,,,,,,,,,,,,,,,
,,,,,,,,2023-08-16_08h33.06.601,HF_wild_card,2022.2.4,Win32,59.99160118,60607526ff89564c7dee871e,64d2fd46c836a06233681665,64dc7b87760b5ca29153d2fa,,,,,,,ctch,resources/DP.BMP,resources/DY.BMP,Door4,0.317592621,-0.029629637,1,0,0,1.4401,optionRight,80,4485,2,37,0,37,0,1,,,,,,,,,,,,,,,,,,,,,,,,,,,,,,,,,,,,,,,
,,,,,,,,2023-08-16_08h33.06.601,HF_wild_card,2022.2.4,Win32,59.99160118,60607526ff89564c7dee871e,64d2fd46c836a06233681665,64dc7b87760b5ca29153d2fa,,,,,,,decisionTrl,resources/DP.BMP,resources/DR.BMP,Door2,0.512963048,-0.017592607,1,0,0,2.164,optionRight,20,4505,2,38,0,38,0,1,,,,,,,,,,,,,,,,,,,,,,,,,,,,,,,,,,,,,,,
,,,,,,,,2023-08-16_08h33.06.601,HF_wild_card,2022.2.4,Win32,59.99160118,60607526ff89564c7dee871e,64d2fd46c836a06233681665,64dc7b87760b5ca29153d2fa,,,,,,,ctch,resources/DY.BMP,resources/DP.BMP,Door4,-0.344444452,0.015740748,1,0,0,1.6241,optionLeft,60,4565,2,39,0,39,0,1,,,,,,,,,,,,,,,,,,,,,,,,,,,,,,,,,,,,,,,
,,,,,,,,2023-08-16_08h33.06.601,HF_wild_card,2022.2.4,Win32,59.99160118,60607526ff89564c7dee871e,64d2fd46c836a06233681665,64dc7b87760b5ca29153d2fa,,,,,,,sngl,resources/DG.BMP,resources/Empty.png,WildCard_NonEx,-0.373148141,0.018518519,1,0,0,0.7685,optionLeft,45,4610,2,40,0,40,0,1,,,,,,,,,,,,,,,,,,,,,,,,,,,,,,,,,,,,,,,
,,,,,,,,2023-08-16_08h33.06.601,HF_wild_card,2022.2.4,Win32,59.99160118,60607526ff89564c7dee871e,64d2fd46c836a06233681665,64dc7b87760b5ca29153d2fa,,,,,,,decisionTrl,resources/DR.BMP,resources/DP.BMP,Door2,-0.387962942,0.01944443,1,0,0,2.0318,optionLeft,20,4630,2,41,0,41,0,1,,,,,,,,,,,,,,,,,,,,,,,,,,,,,,,,,,,,,,,
,,,,,,,,2023-08-16_08h33.06.601,HF_wild_card,2022.2.4,Win32,59.99160118,60607526ff89564c7dee871e,64d2fd46c836a06233681665,64dc7b87760b5ca29153d2fa,,,,,,,ctch,resources/DR.BMP,resources/DB.BMP,Door3,0.295370384,-0.037962984,1,0,0,1.0267,optionRight,70,4700,2,42,0,42,0,1,,,,,,,,,,,,,,,,,,,,,,,,,,,,,,,,,,,,,,,
,,,,,,,,2023-08-16_08h33.06.601,HF_wild_card,2022.2.4,Win32,59.99160118,60607526ff89564c7dee871e,64d2fd46c836a06233681665,64dc7b87760b5ca29153d2fa,,,,,,,decisionTrl,resources/DG.BMP,resources/DY.BMP,Door4,0.307407379,-0.056481503,1,0,0,1.192599999,optionRight,80,4780,2,43,0,43,0,1,,,,,,,,,,,,,,,,,,,,,,,,,,,,,,,,,,,,,,,
,,,,,,,,2023-08-16_08h33.06.601,HF_wild_card,2022.2.4,Win32,59.99160118,60607526ff89564c7dee871e,64d2fd46c836a06233681665,64dc7b87760b5ca29153d2fa,,,,,,,,,,,,,,,,,,,,,,,,,,1,0,1,0,1,,,,,,,,,,,,,,,,,,,,,,,,,,,,,,,,,,
,,,,,,,,2023-08-16_08h33.06.601,HF_wild_card,2022.2.4,Win32,59.99160118,60607526ff89564c7dee871e,64d2fd46c836a06233681665,64dc7b87760b5ca29153d2fa,,,,,,,ctch,resources/DP.BMP,resources/DY.BMP,Door4,0.365740741,-0.142592607,1,0,0,1.2177,optionRight,60,4840,3,0,0,0,0,1,,,,,,,,,,,,,,,,,,,,,,,,,,,,,,,,,,,,,,,
,,,,,,,,2023-08-16_08h33.06.601,HF_wild_card,2022.2.4,Win32,59.99160118,60607526ff89564c7dee871e,64d2fd46c836a06233681665,64dc7b87760b5ca29153d2fa,,,,,,,decisionTrl,resources/DP.BMP,resources/DR.BMP,Door1,-0.361111111,-0.030555548,1,0,0,1.540200001,optionLeft,30,4870,3,1,0,1,0,1,,,,,,,,,,,,,,,,,,,,,,,,,,,,,,,,,,,,,,,
,,,,,,,,2023-08-16_08h33.06.601,HF_wild_card,2022.2.4,Win32,59.99160118,60607526ff89564c7dee871e,64d2fd46c836a06233681665,64dc7b87760b5ca29153d2fa,,,,,,,sngl,resources/DY.BMP,resources/Empty.png,Door4,-0.251851824,-0.049074067,1,0,0,0.6318,optionLeft,80,4950,3,2,0,2,0,1,,,,,,,,,,,,,,,,,,,,,,,,,,,,,,,,,,,,,,,
,,,,,,,,2023-08-16_08h33.06.601,HF_wild_card,2022.2.4,Win32,59.99160118,60607526ff89564c7dee871e,64d2fd46c836a06233681665,64dc7b87760b5ca29153d2fa,,,,,,,decisionTrl,resources/DG.BMP,resources/DR.BMP,WildCard_NonEx,-0.331481474,-0.01666666,1,0,0,1.35,optionLeft,55,5005,3,3,0,3,0,1,,,,,,,,,,,,,,,,,,,,,,,,,,,,,,,,,,,,,,,
,,,,,,,,2023-08-16_08h33.06.601,HF_wild_card,2022.2.4,Win32,59.99160118,60607526ff89564c7dee871e,64d2fd46c836a06233681665,64dc7b87760b5ca29153d2fa,,,,,,,ctch,resources/DB.BMP,resources/DR.BMP,Door3,-0.349999993,-0.043518526,1,0,0,1.519,optionLeft,70,5075,3,4,0,4,0,1,,,,,,,,,,,,,,,,,,,,,,,,,,,,,,,,,,,,,,,
,,,,,,,,2023-08-16_08h33.06.601,HF_wild_card,2022.2.4,Win32,59.99160118,60607526ff89564c7dee871e,64d2fd46c836a06233681665,64dc7b87760b5ca29153d2fa,,,,,,,decisionTrl,resources/DG.BMP,resources/DY.BMP,Door4,0.238888917,-0.037962984,1,0,0,0.9199,optionRight,80,5155,3,5,0,5,0,1,,,,,,,,,,,,,,,,,,,,,,,,,,,,,,,,,,,,,,,
,,,,,,,,2023-08-16_08h33.06.601,HF_wild_card,2022.2.4,Win32,59.99160118,60607526ff89564c7dee871e,64d2fd46c836a06233681665,64dc7b87760b5ca29153d2fa,,,,,,,decisionTrl,resources/DP.BMP,resources/DR.BMP,Door1,-0.457407386,0.010185171,1,0,0,1.1143,optionLeft,30,5185,3,6,0,6,0,1,,,,,,,,,,,,,,,,,,,,,,,,,,,,,,,,,,,,,,,
,,,,,,,,2023-08-16_08h33.06.601,HF_wild_card,2022.2.4,Win32,59.99160118,60607526ff89564c7dee871e,64d2fd46c836a06233681665,64dc7b87760b5ca29153d2fa,,,,,,,sngl,resources/DB.BMP,resources/Empty.png,Door3,-0.078703704,-0.061111132,1,0,0,0.7965,optionLeft,70,5255,3,7,0,7,0,1,,,,,,,,,,,,,,,,,,,,,,,,,,,,,,,,,,,,,,,
,,,,,,,,2023-08-16_08h33.06.601,HF_wild_card,2022.2.4,Win32,59.99160118,60607526ff89564c7dee871e,64d2fd46c836a06233681665,64dc7b87760b5ca29153d2fa,,,,,,,ctch,resources/DP.BMP,resources/DY.BMP,Door4,0.253703718,-0.038888896,1,0,0,1.1603,optionRight,80,5335,3,8,0,8,0,1,,,,,,,,,,,,,,,,,,,,,,,,,,,,,,,,,,,,,,,
,,,,,,,,2023-08-16_08h33.06.601,HF_wild_card,2022.2.4,Win32,59.99160118,60607526ff89564c7dee871e,64d2fd46c836a06233681665,64dc7b87760b5ca29153d2fa,,,,,,,decisionTrl,resources/DB.BMP,resources/DY.BMP,Door4,0.236111111,-0.012962977,1,0,0,0.6976,optionRight,60,5395,3,9,0,9,0,1,,,,,,,,,,,,,,,,,,,,,,,,,,,,,,,,,,,,,,,
,,,,,,,,2023-08-16_08h33.06.601,HF_wild_card,2022.2.4,Win32,59.99160118,60607526ff89564c7dee871e,64d2fd46c836a06233681665,64dc7b87760b5ca29153d2fa,,,,,,,decisionTrl,resources/DB.BMP,resources/DY.BMP,Door3,-0.24537037,0.011111118,1,0,0,2.139900001,optionLeft,70,5465,3,10,0,10,0,1,,,,,,,,,,,,,,,,,,,,,,,,,,,,,,,,,,,,,,,
,,,,,,,,2023-08-16_08h33.06.601,HF_wild_card,2022.2.4,Win32,59.99160118,60607526ff89564c7dee871e,64d2fd46c836a06233681665,64dc7b87760b5ca29153d2fa,,,,,,,decisionTrl,resources/DP.BMP,resources/DR.BMP,Door1,-0.297222208,0.015740748,1,0,0,1.1317,optionLeft,30,5495,3,11,0,11,0,1,,,,,,,,,,,,,,,,,,,,,,,,,,,,,,,,,,,,,,,
,,,,,,,,2023-08-16_08h33.06.601,HF_wild_card,2022.2.4,Win32,59.99160118,60607526ff89564c7dee871e,64d2fd46c836a06233681665,64dc7b87760b5ca29153d2fa,,,,,,,sngl,resources/Empty.png,resources/DR.BMP,Door2,0.314814815,-0.067592586,1,0,0,0.775200001,optionRight,20,5515,3,12,0,12,0,1,,,,,,,,,,,,,,,,,,,,,,,,,,,,,,,,,,,,,,,
,,,,,,,,2023-08-16_08h33.06.601,HF_wild_card,2022.2.4,Win32,59.99160118,60607526ff89564c7dee871e,64d2fd46c836a06233681665,64dc7b87760b5ca29153d2fa,,,,,,,sngl,resources/Empty.png,resources/DY.BMP,Door4,0.26944443,-0.012962977,1,0,0,0.6906,optionRight,60,5575,3,13,0,13,0,1,,,,,,,,,,,,,,,,,,,,,,,,,,,,,,,,,,,,,,,
,,,,,,,,2023-08-16_08h33.06.601,HF_wild_card,2022.2.4,Win32,59.99160118,60607526ff89564c7dee871e,64d2fd46c836a06233681665,64dc7b87760b5ca29153d2fa,,,,,,,decisionTrl,resources/DP.BMP,resources/DR.BMP,Door1,-0.410185178,0.001851859,1,0,0,1.998700001,optionLeft,30,5605,3,14,0,14,0,1,,,,,,,,,,,,,,,,,,,,,,,,,,,,,,,,,,,,,,,
,,,,,,,,2023-08-16_08h33.06.601,HF_wild_card,2022.2.4,Win32,59.99160118,60607526ff89564c7dee871e,64d2fd46c836a06233681665,64dc7b87760b5ca29153d2fa,,,,,,,decisionTrl,resources/DR.BMP,resources/DP.BMP,Door1,0.165740755,-0.059259273,1,0,0,2.0808,optionRight,30,5635,3,15,0,15,0,1,,,,,,,,,,,,,,,,,,,,,,,,,,,,,,,,,,,,,,,
,,,,,,,,2023-08-16_08h33.06.601,HF_wild_card,2022.2.4,Win32,59.99160118,60607526ff89564c7dee871e,64d2fd46c836a06233681665,64dc7b87760b5ca29153d2fa,,,,,,,sngl,resources/Empty.png,resources/DG.BMP,WildCard_NonEx,0.41851849,-0.056481503,1,0,0,0.669099999,optionRight,45,5680,3,16,0,16,0,1,,,,,,,,,,,,,,,,,,,,,,,,,,,,,,,,,,,,,,,
,,,,,,,,2023-08-16_08h33.06.601,HF_wild_card,2022.2.4,Win32,59.99160118,60607526ff89564c7dee871e,64d2fd46c836a06233681665,64dc7b87760b5ca29153d2fa,,,,,,,sngl,resources/DG.BMP,resources/Empty.png,WildCard_NonEx,-0.209259245,0.020370377,1,0,0,0.8683,optionLeft,45,5725,3,17,0,17,0,1,,,,,,,,,,,,,,,,,,,,,,,,,,,,,,,,,,,,,,,
,,,,,,,,2023-08-16_08h33.06.601,HF_wild_card,2022.2.4,Win32,59.99160118,60607526ff89564c7dee871e,64d2fd46c836a06233681665,64dc7b87760b5ca29153d2fa,,,,,,,ctch,resources/DY.BMP,resources/DP.BMP,Door4,-0.393518519,-0.013888889,1,0,0,1.0678,optionLeft,60,5785,3,18,0,18,0,1,,,,,,,,,,,,,,,,,,,,,,,,,,,,,,,,,,,,,,,
,,,,,,,,2023-08-16_08h33.06.601,HF_wild_card,2022.2.4,Win32,59.99160118,60607526ff89564c7dee871e,64d2fd46c836a06233681665,64dc7b87760b5ca29153d2fa,,,,,,,decisionTrl,resources/DY.BMP,resources/DB.BMP,Door3,0.138888889,-0.028703725,1,0,0,1.917400001,optionRight,70,5855,3,19,0,19,0,1,,,,,,,,,,,,,,,,,,,,,,,,,,,,,,,,,,,,,,,
,,,,,,,,2023-08-16_08h33.06.601,HF_wild_card,2022.2.4,Win32,59.99160118,60607526ff89564c7dee871e,64d2fd46c836a06233681665,64dc7b87760b5ca29153d2fa,,,,,,,decisionTrl,resources/DY.BMP,resources/DB.BMP,Door4,-0.273148148,-0.005555577,1,0,0,1.042099999,optionLeft,60,5915,3,20,0,20,0,1,,,,,,,,,,,,,,,,,,,,,,,,,,,,,,,,,,,,,,,
,,,,,,,,2023-08-16_08h33.06.601,HF_wild_card,2022.2.4,Win32,59.99160118,60607526ff89564c7dee871e,64d2fd46c836a06233681665,64dc7b87760b5ca29153d2fa,,,,,,,sngl,resources/Empty.png,resources/DP.BMP,Door1,0.325925898,-0.077777792,1,0,0,0.8893,optionRight,30,5945,3,21,0,21,0,1,,,,,,,,,,,,,,,,,,,,,,,,,,,,,,,,,,,,,,,
,,,,,,,,2023-08-16_08h33.06.601,HF_wild_card,2022.2.4,Win32,59.99160118,60607526ff89564c7dee871e,64d2fd46c836a06233681665,64dc7b87760b5ca29153d2fa,,,,,,,sngl,resources/Empty.png,resources/DG.BMP,WildCard_NonEx,0.317592621,-0.021296289,1,0,0,0.6971,optionRight,55,6000,3,22,0,22,0,1,,,,,,,,,,,,,,,,,,,,,,,,,,,,,,,,,,,,,,,
,,,,,,,,2023-08-16_08h33.06.601,HF_wild_card,2022.2.4,Win32,59.99160118,60607526ff89564c7dee871e,64d2fd46c836a06233681665,64dc7b87760b5ca29153d2fa,,,,,,,decisionTrl,resources/DB.BMP,resources/DY.BMP,Door4,0.350926011,-0.024074095,1,0,0,0.9416,optionRight,60,6060,3,23,0,23,0,1,,,,,,,,,,,,,,,,,,,,,,,,,,,,,,,,,,,,,,,
,,,,,,,,2023-08-16_08h33.06.601,HF_wild_card,2022.2.4,Win32,59.99160118,60607526ff89564c7dee871e,64d2fd46c836a06233681665,64dc7b87760b5ca29153d2fa,,,,,,,decisionTrl,resources/DB.BMP,resources/DG.BMP,Door3,-0.336111104,-0.022222236,1,0,0,0.8093,optionLeft,70,6130,3,24,0,24,0,1,,,,,,,,,,,,,,,,,,,,,,,,,,,,,,,,,,,,,,,
,,,,,,,,2023-08-16_08h33.06.601,HF_wild_card,2022.2.4,Win32,59.99160118,60607526ff89564c7dee871e,64d2fd46c836a06233681665,64dc7b87760b5ca29153d2fa,,,,,,,decisionTrl,resources/DG.BMP,resources/DP.BMP,WildCard_NonEx,-0.267592607,0.062037044,1,0,0,2.941,optionLeft,55,6185,3,25,0,25,0,1,,,,,,,,,,,,,,,,,,,,,,,,,,,,,,,,,,,,,,,
,,,,,,,,2023-08-16_08h33.06.601,HF_wild_card,2022.2.4,Win32,59.99160118,60607526ff89564c7dee871e,64d2fd46c836a06233681665,64dc7b87760b5ca29153d2fa,,,,,,,ctch,resources/DR.BMP,resources/DB.BMP,Door3,0.312037009,-0.066666674,1,0,0,1.3957,optionRight,70,6255,3,26,0,26,0,1,,,,,,,,,,,,,,,,,,,,,,,,,,,,,,,,,,,,,,,
,,,,,,,,2023-08-16_08h33.06.601,HF_wild_card,2022.2.4,Win32,59.99160118,60607526ff89564c7dee871e,64d2fd46c836a06233681665,64dc7b87760b5ca29153d2fa,,,,,,,ctch,resources/DY.BMP,resources/DP.BMP,Door4,-0.232407393,-0.037037037,1,0,0,1.4131,optionLeft,60,6315,3,27,0,27,0,1,,,,,,,,,,,,,,,,,,,,,,,,,,,,,,,,,,,,,,,
,,,,,,,,2023-08-16_08h33.06.601,HF_wild_card,2022.2.4,Win32,59.99160118,60607526ff89564c7dee871e,64d2fd46c836a06233681665,64dc7b87760b5ca29153d2fa,,,,,,,sngl,resources/DR.BMP,resources/Empty.png,Door2,-0.390740748,-0.038888896,1,0,0,1.115799999,optionLeft,40,6355,3,28,0,28,0,1,,,,,,,,,,,,,,,,,,,,,,,,,,,,,,,,,,,,,,,
,,,,,,,,2023-08-16_08h33.06.601,HF_wild_card,2022.2.4,Win32,59.99160118,60607526ff89564c7dee871e,64d2fd46c836a06233681665,64dc7b87760b5ca29153d2fa,,,,,,,sngl,resources/Empty.png,resources/DB.BMP,Door3,0.295370384,-0.042592614,1,0,0,0.717400001,optionRight,70,6425,3,29,0,29,0,1,,,,,,,,,,,,,,,,,,,,,,,,,,,,,,,,,,,,,,,
,,,,,,,,2023-08-16_08h33.06.601,HF_wild_card,2022.2.4,Win32,59.99160118,60607526ff89564c7dee871e,64d2fd46c836a06233681665,64dc7b87760b5ca29153d2fa,,,,,,,sngl,resources/DG.BMP,resources/Empty.png,WildCard_NonEx,-0.316666674,-0.037962984,1,0,0,0.6409,optionLeft,55,6480,3,30,0,30,0,1,,,,,,,,,,,,,,,,,,,,,,,,,,,,,,,,,,,,,,,
,,,,,,,,2023-08-16_08h33.06.601,HF_wild_card,2022.2.4,Win32,59.99160118,60607526ff89564c7dee871e,64d2fd46c836a06233681665,64dc7b87760b5ca29153d2fa,,,,,,,decisionTrl,resources/DY.BMP,resources/DB.BMP,Door3,0.445370427,-0.107407393,1,0,0,1.7902,optionRight,70,6550,3,31,0,31,0,1,,,,,,,,,,,,,,,,,,,,,,,,,,,,,,,,,,,,,,,
,,,,,,,,2023-08-16_08h33.06.601,HF_wild_card,2022.2.4,Win32,59.99160118,60607526ff89564c7dee871e,64d2fd46c836a06233681665,64dc7b87760b5ca29153d2fa,,,,,,,decisionTrl,resources/DY.BMP,resources/DB.BMP,Door3,0.260185171,-0.040740755,1,0,0,1.0757,optionRight,70,6620,3,32,0,32,0,1,,,,,,,,,,,,,,,,,,,,,,,,,,,,,,,,,,,,,,,
,,,,,,,,2023-08-16_08h33.06.601,HF_wild_card,2022.2.4,Win32,59.99160118,60607526ff89564c7dee871e,64d2fd46c836a06233681665,64dc7b87760b5ca29153d2fa,,,,,,,decisionTrl,resources/DP.BMP,resources/DG.BMP,WildCard_NonEx,0.275925954,-0.005555577,1,0,0,2.9237,optionRight,55,6675,3,33,0,33,0,1,,,,,,,,,,,,,,,,,,,,,,,,,,,,,,,,,,,,,,,
,,,,,,,,2023-08-16_08h33.06.601,HF_wild_card,2022.2.4,Win32,59.99160118,60607526ff89564c7dee871e,64d2fd46c836a06233681665,64dc7b87760b5ca29153d2fa,,,,,,,decisionTrl,resources/DB.BMP,resources/DY.BMP,Door3,-0.262036995,0.011111118,1,0,0,1.6409,optionLeft,70,6745,3,34,0,34,0,1,,,,,,,,,,,,,,,,,,,,,,,,,,,,,,,,,,,,,,,
,,,,,,,,2023-08-16_08h33.06.601,HF_wild_card,2022.2.4,Win32,59.99160118,60607526ff89564c7dee871e,64d2fd46c836a06233681665,64dc7b87760b5ca29153d2fa,,,,,,,sngl,resources/DP.BMP,resources/Empty.png,Door1,-0.211111069,-0.036111125,1,0,0,0.6761,optionLeft,30,6775,3,35,0,35,0,1,,,,,,,,,,,,,,,,,,,,,,,,,,,,,,,,,,,,,,,
,,,,,,,,2023-08-16_08h33.06.601,HF_wild_card,2022.2.4,Win32,59.99160118,60607526ff89564c7dee871e,64d2fd46c836a06233681665,64dc7b87760b5ca29153d2fa,,,,,,,ctch,resources/DR.BMP,resources/DB.BMP,Door3,0.133333347,0.008333312,1,0,0,1.5772,optionRight,70,6845,3,36,0,36,0,1,,,,,,,,,,,,,,,,,,,,,,,,,,,,,,,,,,,,,,,
,,,,,,,,2023-08-16_08h33.06.601,HF_wild_card,2022.2.4,Win32,59.99160118,60607526ff89564c7dee871e,64d2fd46c836a06233681665,64dc7b87760b5ca29153d2fa,,,,,,,decisionTrl,resources/DG.BMP,resources/DB.BMP,Door3,0.337037122,-0.042592614,1,0,0,2.5419,optionRight,70,6915,3,37,0,37,0,1,,,,,,,,,,,,,,,,,,,,,,,,,,,,,,,,,,,,,,,
,,,,,,,,2023-08-16_08h33.06.601,HF_wild_card,2022.2.4,Win32,59.99160118,60607526ff89564c7dee871e,64d2fd46c836a06233681665,64dc7b87760b5ca29153d2fa,,,,,,,decisionTrl,resources/DR.BMP,resources/DP.BMP,Door1,0.318518603,-0.051851873,1,0,0,2.707299999,optionRight,30,6945,3,38,0,38,0,1,,,,,,,,,,,,,,,,,,,,,,,,,,,,,,,,,,,,,,,
,,,,,,,,2023-08-16_08h33.06.601,HF_wild_card,2022.2.4,Win32,59.99160118,60607526ff89564c7dee871e,64d2fd46c836a06233681665,64dc7b87760b5ca29153d2fa,,,,,,,ctch,resources/DB.BMP,resources/DR.BMP,Door2,0.353703675,-0.070370392,1,0,0,0.6251,optionRight,20,6965,3,39,0,39,0,1,,,,,,,,,,,,,,,,,,,,,,,,,,,,,,,,,,,,,,,
,,,,,,,,2023-08-16_08h33.06.601,HF_wild_card,2022.2.4,Win32,59.99160118,60607526ff89564c7dee871e,64d2fd46c836a06233681665,64dc7b87760b5ca29153d2fa,,,,,,,decisionTrl,resources/DY.BMP,resources/DG.BMP,Door4,-0.353703711,0.001851859,1,0,0,3.055900001,optionLeft,80,7045,3,40,0,40,0,1,,,,,,,,,,,,,,,,,,,,,,,,,,,,,,,,,,,,,,,
,,,,,,,,2023-08-16_08h33.06.601,HF_wild_card,2022.2.4,Win32,59.99160118,60607526ff89564c7dee871e,64d2fd46c836a06233681665,64dc7b87760b5ca29153d2fa,,,,,,,decisionTrl,resources/DR.BMP,resources/DP.BMP,Door1,0.258333347,-0.027777778,1,0,0,1.538599999,optionRight,30,7075,3,41,0,41,0,1,,,,,,,,,,,,,,,,,,,,,,,,,,,,,,,,,,,,,,,
,,,,,,,,2023-08-16_08h33.06.601,HF_wild_card,2022.2.4,Win32,59.99160118,60607526ff89564c7dee871e,64d2fd46c836a06233681665,64dc7b87760b5ca29153d2fa,,,,,,,decisionTrl,resources/DR.BMP,resources/DG.BMP,WildCard_NonEx,0.289814843,-0.018518519,1,0,0,1.1911,optionRight,55,7130,3,42,0,42,0,1,,,,,,,,,,,,,,,,,,,,,,,,,,,,,,,,,,,,,,,
,,,,,,,,2023-08-16_08h33.06.601,HF_wild_card,2022.2.4,Win32,59.99160118,60607526ff89564c7dee871e,64d2fd46c836a06233681665,64dc7b87760b5ca29153d2fa,,,,,,,decisionTrl,resources/DR.BMP,resources/DP.BMP,Door1,0.337962963,-0.054629644,1,0,0,0.892,optionRight,30,7160,3,43,0,43,0,1,,,,,,,,,,,,,,,,,,,,,,,,,,,,,,,,,,,,,,,
,,,,,,,,2023-08-16_08h33.06.601,HF_wild_card,2022.2.4,Win32,59.99160118,60607526ff89564c7dee871e,64d2fd46c836a06233681665,64dc7b87760b5ca29153d2fa,,,,,,,,,,,,,,,,,,,,,,,,,,2,0,2,0,1,,,,,,,,,,,,,,,,,,,,,,,,,,,,,,,,,,
,,,,,,,,2023-08-16_08h33.06.601,HF_wild_card,2022.2.4,Win32,59.99160118,60607526ff89564c7dee871e,64d2fd46c836a06233681665,64dc7b87760b5ca29153d2fa,,,,,,,decisionTrl,resources/DY.BMP,resources/DB.BMP,Door3,0.399999972,-0.09629631,1,0,0,1.829099999,optionRight,70,7230,4,0,0,0,0,1,,,,,,,,,,,,,,,,,,,,,,,,,,,,,,,,,,,,,,,
,,,,,,,,2023-08-16_08h33.06.601,HF_wild_card,2022.2.4,Win32,59.99160118,60607526ff89564c7dee871e,64d2fd46c836a06233681665,64dc7b87760b5ca29153d2fa,,,,,,,sngl,resources/Empty.png,resources/DY.BMP,Door4,0.348148205,-0.109259288,1,0,0,1.160599999,optionRight,80,7310,4,1,0,1,0,1,,,,,,,,,,,,,,,,,,,,,,,,,,,,,,,,,,,,,,,
,,,,,,,,2023-08-16_08h33.06.601,HF_wild_card,2022.2.4,Win32,59.99160118,60607526ff89564c7dee871e,64d2fd46c836a06233681665,64dc7b87760b5ca29153d2fa,,,,,,,decisionTrl,resources/DP.BMP,resources/DR.BMP,Door1,-0.013888889,-0.027777778,1,0,0,2.4863,optionLeft,30,7340,4,2,0,2,0,1,,,,,,,,,,,,,,,,,,,,,,,,,,,,,,,,,,,,,,,
,,,,,,,,2023-08-16_08h33.06.601,HF_wild_card,2022.2.4,Win32,59.99160118,60607526ff89564c7dee871e,64d2fd46c836a06233681665,64dc7b87760b5ca29153d2fa,,,,,,,decisionTrl,resources/DBN.BMP,resources/DP.BMP,WildCard_Ex,-0.244444459,0,1,0,0,1.3061,optionLeft,5,7345,4,3,0,3,0,1,,,,,,,,,,,,,,,,,,,,,,,,,,,,,,,,,,,,,,,
,,,,,,,,2023-08-16_08h33.06.601,HF_wild_card,2022.2.4,Win32,59.99160118,60607526ff89564c7dee871e,64d2fd46c836a06233681665,64dc7b87760b5ca29153d2fa,,,,,,,decisionTrl,resources/DB.BMP,resources/DBN.BMP,Door3,-0.229629587,-0.072222215,1,0,0,0.8418,optionLeft,70,7415,4,4,0,4,0,1,,,,,,,,,,,,,,,,,,,,,,,,,,,,,,,,,,,,,,,
,,,,,,,,2023-08-16_08h33.06.601,HF_wild_card,2022.2.4,Win32,59.99160118,60607526ff89564c7dee871e,64d2fd46c836a06233681665,64dc7b87760b5ca29153d2fa,,,,,,,decisionTrl,resources/DR.BMP,resources/DP.BMP,Door1,0.229629658,-0.012962977,1,0,0,1.2244,optionRight,30,7445,4,5,0,5,0,1,,,,,,,,,,,,,,,,,,,,,,,,,,,,,,,,,,,,,,,
,,,,,,,,2023-08-16_08h33.06.601,HF_wild_card,2022.2.4,Win32,59.99160118,60607526ff89564c7dee871e,64d2fd46c836a06233681665,64dc7b87760b5ca29153d2fa,,,,,,,decisionTrl,resources/DP.BMP,resources/DBN.BMP,Door1,-0.314814815,0.038888896,1,0,0,1.756799999,optionLeft,30,7475,4,6,0,6,0,1,,,,,,,,,,,,,,,,,,,,,,,,,,,,,,,,,,,,,,,
,,,,,,,,2023-08-16_08h33.06.601,HF_wild_card,2022.2.4,Win32,59.99160118,60607526ff89564c7dee871e,64d2fd46c836a06233681665,64dc7b87760b5ca29153d2fa,,,,,,,decisionTrl,resources/DBN.BMP,resources/DR.BMP,Door2,0.32685188,-0.010185206,1,0,0,1.1904,optionRight,40,7515,4,7,0,7,0,1,,,,,,,,,,,,,,,,,,,,,,,,,,,,,,,,,,,,,,,
,,,,,,,,2023-08-16_08h33.06.601,HF_wild_card,2022.2.4,Win32,59.99160118,60607526ff89564c7dee871e,64d2fd46c836a06233681665,64dc7b87760b5ca29153d2fa,,,,,,,sngl,resources/Empty.png,resources/DBN.BMP,WildCard_Ex,0.233333376,-0.01203703,1,0,0,1.9735,optionRight,5,7520,4,8,0,8,0,1,,,,,,,,,,,,,,,,,,,,,,,,,,,,,,,,,,,,,,,
,,,,,,,,2023-08-16_08h33.06.601,HF_wild_card,2022.2.4,Win32,59.99160118,60607526ff89564c7dee871e,64d2fd46c836a06233681665,64dc7b87760b5ca29153d2fa,,,,,,,sngl,resources/DP.BMP,resources/Empty.png,Door1,-0.297222208,0.003703683,1,0,0,1.015900001,optionLeft,30,7550,4,9,0,9,0,1,,,,,,,,,,,,,,,,,,,,,,,,,,,,,,,,,,,,,,,
,,,,,,,,2023-08-16_08h33.06.601,HF_wild_card,2022.2.4,Win32,59.99160118,60607526ff89564c7dee871e,64d2fd46c836a06233681665,64dc7b87760b5ca29153d2fa,,,,,,,decisionTrl,resources/DB.BMP,resources/DY.BMP,Door4,0.227777764,0.081481474,1,0,0,4.005799999,optionRight,60,7610,4,10,0,10,0,1,,,,,,,,,,,,,,,,,,,,,,,,,,,,,,,,,,,,,,,
,,,,,,,,2023-08-16_08h33.06.601,HF_wild_card,2022.2.4,Win32,59.99160118,60607526ff89564c7dee871e,64d2fd46c836a06233681665,64dc7b87760b5ca29153d2fa,,,,,,,ctch,resources/DB.BMP,resources/DR.BMP,Door3,-0.289814772,0.000925912,1,0,0,0.708,optionLeft,70,7680,4,11,0,11,0,1,,,,,,,,,,,,,,,,,,,,,,,,,,,,,,,,,,,,,,,
,,,,,,,,2023-08-16_08h33.06.601,HF_wild_card,2022.2.4,Win32,59.99160118,60607526ff89564c7dee871e,64d2fd46c836a06233681665,64dc7b87760b5ca29153d2fa,,,,,,,sngl,resources/DR.BMP,resources/Empty.png,Door2,-0.462037016,0.022222201,1,0,0,0.8909,optionLeft,20,7700,4,12,0,12,0,1,,,,,,,,,,,,,,,,,,,,,,,,,,,,,,,,,,,,,,,
,,,,,,,,2023-08-16_08h33.06.601,HF_wild_card,2022.2.4,Win32,59.99160118,60607526ff89564c7dee871e,64d2fd46c836a06233681665,64dc7b87760b5ca29153d2fa,,,,,,,ctch,resources/DR.BMP,resources/DB.BMP,Door3,0.380555612,-0.048148155,1,0,0,1.2087,optionRight,70,7770,4,13,0,13,0,1,,,,,,,,,,,,,,,,,,,,,,,,,,,,,,,,,,,,,,,
,,,,,,,,2023-08-16_08h33.06.601,HF_wild_card,2022.2.4,Win32,59.99160118,60607526ff89564c7dee871e,64d2fd46c836a06233681665,64dc7b87760b5ca29153d2fa,,,,,,,ctch,resources/DP.BMP,resources/DY.BMP,Door4,0.336111139,-0.0074074,1,0,0,4.627400001,optionRight,80,7850,4,14,0,14,0,1,,,,,,,,,,,,,,,,,,,,,,,,,,,,,,,,,,,,,,,
,,,,,,,,2023-08-16_08h33.06.601,HF_wild_card,2022.2.4,Win32,59.99160118,60607526ff89564c7dee871e,64d2fd46c836a06233681665,64dc7b87760b5ca29153d2fa,,,,,,,sngl,resources/DBN.BMP,resources/Empty.png,WildCard_Ex,-0.343518504,0.013888889,1,0,0,1.474400001,optionLeft,95,7945,4,15,0,15,0,1,,,,,,,,,,,,,,,,,,,,,,,,,,,,,,,,,,,,,,,
,,,,,,,,2023-08-16_08h33.06.601,HF_wild_card,2022.2.4,Win32,59.99160118,60607526ff89564c7dee871e,64d2fd46c836a06233681665,64dc7b87760b5ca29153d2fa,,,,,,,ctch,resources/DP.BMP,resources/DY.BMP,Door4,0.207407422,0.015740748,1,0,0,1.8744,optionRight,60,8005,4,16,0,16,0,1,,,,,,,,,,,,,,,,,,,,,,,,,,,,,,,,,,,,,,,
,,,,,,,,2023-08-16_08h33.06.601,HF_wild_card,2022.2.4,Win32,59.99160118,60607526ff89564c7dee871e,64d2fd46c836a06233681665,64dc7b87760b5ca29153d2fa,,,,,,,ctch,resources/DY.BMP,resources/DP.BMP,Door4,-0.239814829,0.012962942,1,0,0,1.9903,optionLeft,60,8065,4,17,0,17,0,1,,,,,,,,,,,,,,,,,,,,,,,,,,,,,,,,,,,,,,,
,,,,,,,,2023-08-16_08h33.06.601,HF_wild_card,2022.2.4,Win32,59.99160118,60607526ff89564c7dee871e,64d2fd46c836a06233681665,64dc7b87760b5ca29153d2fa,,,,,,,sngl,resources/Empty.png,resources/DBN.BMP,WildCard_Ex,0.291666667,-0.064814815,1,0,0,1.642400001,optionRight,95,8160,4,18,0,18,0,1,,,,,,,,,,,,,,,,,,,,,,,,,,,,,,,,,,,,,,,
,,,,,,,,2023-08-16_08h33.06.601,HF_wild_card,2022.2.4,Win32,59.99160118,60607526ff89564c7dee871e,64d2fd46c836a06233681665,64dc7b87760b5ca29153d2fa,,,,,,,decisionTrl,resources/DP.BMP,resources/DR.BMP,Door1,-0.218518504,0.008333312,1,0,0,1.6245,optionLeft,30,8190,4,19,0,19,0,1,,,,,,,,,,,,,,,,,,,,,,,,,,,,,,,,,,,,,,,
,,,,,,,,2023-08-16_08h33.06.601,HF_wild_card,2022.2.4,Win32,59.99160118,60607526ff89564c7dee871e,64d2fd46c836a06233681665,64dc7b87760b5ca29153d2fa,,,,,,,sngl,resources/Empty.png,resources/DP.BMP,Door1,0.288888931,-0.000925947,1,0,0,0.7248,optionRight,30,8220,4,20,0,20,0,1,,,,,,,,,,,,,,,,,,,,,,,,,,,,,,,,,,,,,,,
,,,,,,,,2023-08-16_08h33.06.601,HF_wild_card,2022.2.4,Win32,59.99160118,60607526ff89564c7dee871e,64d2fd46c836a06233681665,64dc7b87760b5ca29153d2fa,,,,,,,ctch,resources/DB.BMP,resources/DR.BMP,Door3,-0.222222222,0.045370349,1,0,0,0.9412,optionLeft,70,8290,4,21,0,21,0,1,,,,,,,,,,,,,,,,,,,,,,,,,,,,,,,,,,,,,,,
,,,,,,,,2023-08-16_08h33.06.601,HF_wild_card,2022.2.4,Win32,59.99160118,60607526ff89564c7dee871e,64d2fd46c836a06233681665,64dc7b87760b5ca29153d2fa,,,,,,,decisionTrl,resources/DY.BMP,resources/DB.BMP,Door3,0.320370427,-0.049074067,1,0,0,0.7586,optionRight,70,8360,4,22,0,22,0,1,,,,,,,,,,,,,,,,,,,,,,,,,,,,,,,,,,,,,,,
,,,,,,,,2023-08-16_08h33.06.601,HF_wild_card,2022.2.4,Win32,59.99160118,60607526ff89564c7dee871e,64d2fd46c836a06233681665,64dc7b87760b5ca29153d2fa,,,,,,,decisionTrl,resources/DB.BMP,resources/DY.BMP,Door3,-0.220370328,0.011111118,1,0,0,1.0249,optionLeft,70,8430,4,23,0,23,0,1,,,,,,,,,,,,,,,,,,,,,,,,,,,,,,,,,,,,,,,
,,,,,,,,2023-08-16_08h33.06.601,HF_wild_card,2022.2.4,Win32,59.99160118,60607526ff89564c7dee871e,64d2fd46c836a06233681665,64dc7b87760b5ca29153d2fa,,,,,,,decisionTrl,resources/DP.BMP,resources/DR.BMP,Door1,-0.204629616,-0.00462963,1,0,0,1.4588,optionLeft,30,8460,4,24,0,24,0,1,,,,,,,,,,,,,,,,,,,,,,,,,,,,,,,,,,,,,,,
,,,,,,,,2023-08-16_08h33.06.601,HF_wild_card,2022.2.4,Win32,59.99160118,60607526ff89564c7dee871e,64d2fd46c836a06233681665,64dc7b87760b5ca29153d2fa,,,,,,,sngl,resources/DB.BMP,resources/Empty.png,Door3,-0.276851866,0.009259259,1,0,0,0.6686,optionLeft,70,8530,4,25,0,25,0,1,,,,,,,,,,,,,,,,,,,,,,,,,,,,,,,,,,,,,,,
,,,,,,,,2023-08-16_08h33.06.601,HF_wild_card,2022.2.4,Win32,59.99160118,60607526ff89564c7dee871e,64d2fd46c836a06233681665,64dc7b87760b5ca29153d2fa,,,,,,,sngl,resources/DBN.BMP,resources/Empty.png,WildCard_Ex,-0.249074088,0.001851859,1,0,0,0.8584,optionLeft,5,8535,4,26,0,26,0,1,,,,,,,,,,,,,,,,,,,,,,,,,,,,,,,,,,,,,,,
,,,,,,,,2023-08-16_08h33.06.601,HF_wild_card,2022.2.4,Win32,59.99160118,60607526ff89564c7dee871e,64d2fd46c836a06233681665,64dc7b87760b5ca29153d2fa,,,,,,,decisionTrl,resources/DR.BMP,resources/DBN.BMP,WildCard_Ex,0.301851908,-0.031481496,1,0,0,0.7586,optionRight,5,8540,4,27,0,27,0,1,,,,,,,,,,,,,,,,,,,,,,,,,,,,,,,,,,,,,,,
,,,,,,,,2023-08-16_08h33.06.601,HF_wild_card,2022.2.4,Win32,59.99160118,60607526ff89564c7dee871e,64d2fd46c836a06233681665,64dc7b87760b5ca29153d2fa,,,,,,,decisionTrl,resources/DB.BMP,resources/DY.BMP,Door3,-0.314814815,-0.014814836,1,0,0,0.6255,optionLeft,70,8610,4,28,0,28,0,1,,,,,,,,,,,,,,,,,,,,,,,,,,,,,,,,,,,,,,,
,,,,,,,,2023-08-16_08h33.06.601,HF_wild_card,2022.2.4,Win32,59.99160118,60607526ff89564c7dee871e,64d2fd46c836a06233681665,64dc7b87760b5ca29153d2fa,,,,,,,sngl,resources/Empty.png,resources/DR.BMP,Door2,0.353703675,-0.042592614,1,0,0,0.7255,optionRight,40,8650,4,29,0,29,0,1,,,,,,,,,,,,,,,,,,,,,,,,,,,,,,,,,,,,,,,
,,,,,,,,2023-08-16_08h33.06.601,HF_wild_card,2022.2.4,Win32,59.99160118,60607526ff89564c7dee871e,64d2fd46c836a06233681665,64dc7b87760b5ca29153d2fa,,,,,,,decisionTrl,resources/DP.BMP,resources/DR.BMP,Door2,0.342592593,-0.048148155,1,0,0,0.6422,optionRight,20,8670,4,30,0,30,0,1,,,,,,,,,,,,,,,,,,,,,,,,,,,,,,,,,,,,,,,
,,,,,,,,2023-08-16_08h33.06.601,HF_wild_card,2022.2.4,Win32,59.99160118,60607526ff89564c7dee871e,64d2fd46c836a06233681665,64dc7b87760b5ca29153d2fa,,,,,,,decisionTrl,resources/DR.BMP,resources/DP.BMP,Door1,0.303703732,-0.01666666,1,0,0,0.9265,optionRight,30,8700,4,31,0,31,0,1,,,,,,,,,,,,,,,,,,,,,,,,,,,,,,,,,,,,,,,
,,,,,,,,2023-08-16_08h33.06.601,HF_wild_card,2022.2.4,Win32,59.99160118,60607526ff89564c7dee871e,64d2fd46c836a06233681665,64dc7b87760b5ca29153d2fa,,,,,,,decisionTrl,resources/DR.BMP,resources/DP.BMP,Door1,0.29814812,-0.078703704,1,0,0,1.358400001,optionRight,30,8730,4,32,0,32,0,1,,,,,,,,,,,,,,,,,,,,,,,,,,,,,,,,,,,,,,,
,,,,,,,,2023-08-16_08h33.06.601,HF_wild_card,2022.2.4,Win32,59.99160118,60607526ff89564c7dee871e,64d2fd46c836a06233681665,64dc7b87760b5ca29153d2fa,,,,,,,decisionTrl,resources/DB.BMP,resources/DY.BMP,Door3,-0.448148127,0.025000007,1,0,0,0.8577,optionLeft,70,8800,4,33,0,33,0,1,,,,,,,,,,,,,,,,,,,,,,,,,,,,,,,,,,,,,,,
,,,,,,,,2023-08-16_08h33.06.601,HF_wild_card,2022.2.4,Win32,59.99160118,60607526ff89564c7dee871e,64d2fd46c836a06233681665,64dc7b87760b5ca29153d2fa,,,,,,,decisionTrl,resources/DBN.BMP,resources/DY.BMP,Door4,0.315740797,-0.070370392,1,0,0,0.7252,optionRight,60,8860,4,34,0,34,0,1,,,,,,,,,,,,,,,,,,,,,,,,,,,,,,,,,,,,,,,
,,,,,,,,2023-08-16_08h33.06.601,HF_wild_card,2022.2.4,Win32,59.99160118,60607526ff89564c7dee871e,64d2fd46c836a06233681665,64dc7b87760b5ca29153d2fa,,,,,,,decisionTrl,resources/DBN.BMP,resources/DB.BMP,Door3,0.243518547,-0.015740748,1,0,0,0.9062,optionRight,70,8930,4,35,0,35,0,1,,,,,,,,,,,,,,,,,,,,,,,,,,,,,,,,,,,,,,,
,,,,,,,,2023-08-16_08h33.06.601,HF_wild_card,2022.2.4,Win32,59.99160118,60607526ff89564c7dee871e,64d2fd46c836a06233681665,64dc7b87760b5ca29153d2fa,,,,,,,decisionTrl,resources/DY.BMP,resources/DB.BMP,Door3,0.276851866,-0.011111118,1,0,0,1.5239,optionRight,70,9000,4,36,0,36,0,1,,,,,,,,,,,,,,,,,,,,,,,,,,,,,,,,,,,,,,,
,,,,,,,,2023-08-16_08h33.06.601,HF_wild_card,2022.2.4,Win32,59.99160118,60607526ff89564c7dee871e,64d2fd46c836a06233681665,64dc7b87760b5ca29153d2fa,,,,,,,decisionTrl,resources/DY.BMP,resources/DBN.BMP,Door4,-0.294444402,0.020370377,1,0,0,0.9382,optionLeft,60,9060,4,37,0,37,0,1,,,,,,,,,,,,,,,,,,,,,,,,,,,,,,,,,,,,,,,
,,,,,,,,2023-08-16_08h33.06.601,HF_wild_card,2022.2.4,Win32,59.99160118,60607526ff89564c7dee871e,64d2fd46c836a06233681665,64dc7b87760b5ca29153d2fa,,,,,,,sngl,resources/Empty.png,resources/DB.BMP,Door3,0.174074102,-0.059259273,1,0,0,0.890700001,optionRight,70,9130,4,38,0,38,0,1,,,,,,,,,,,,,,,,,,,,,,,,,,,,,,,,,,,,,,,
,,,,,,,,2023-08-16_08h33.06.601,HF_wild_card,2022.2.4,Win32,59.99160118,60607526ff89564c7dee871e,64d2fd46c836a06233681665,64dc7b87760b5ca29153d2fa,,,,,,,sngl,resources/DY.BMP,resources/Empty.png,Door4,-0.276851866,-0.065740762,1,0,0,1.0087,optionLeft,60,9190,4,39,0,39,0,1,,,,,,,,,,,,,,,,,,,,,,,,,,,,,,,,,,,,,,,
,,,,,,,,2023-08-16_08h33.06.601,HF_wild_card,2022.2.4,Win32,59.99160118,60607526ff89564c7dee871e,64d2fd46c836a06233681665,64dc7b87760b5ca29153d2fa,,,,,,,decisionTrl,resources/DY.BMP,resources/DB.BMP,Door3,0.345370399,-0.058333326,1,0,0,0.7086,optionRight,70,9260,4,40,0,40,0,1,,,,,,,,,,,,,,,,,,,,,,,,,,,,,,,,,,,,,,,
,,,,,,,,2023-08-16_08h33.06.601,HF_wild_card,2022.2.4,Win32,59.99160118,60607526ff89564c7dee871e,64d2fd46c836a06233681665,64dc7b87760b5ca29153d2fa,,,,,,,ctch,resources/DY.BMP,resources/DP.BMP,Door4,-0.149999972,-0.049074067,1,0,0,1.258,optionLeft,60,9320,4,41,0,41,0,1,,,,,,,,,,,,,,,,,,,,,,,,,,,,,,,,,,,,,,,
,,,,,,,,2023-08-16_08h33.06.601,HF_wild_card,2022.2.4,Win32,59.99160118,60607526ff89564c7dee871e,64d2fd46c836a06233681665,64dc7b87760b5ca29153d2fa,,,,,,,decisionTrl,resources/DR.BMP,resources/DP.BMP,Door1,0.216666681,-0.031481496,1,0,0,1.159099999,optionRight,30,9350,4,42,0,42,0,1,,,,,,,,,,,,,,,,,,,,,,,,,,,,,,,,,,,,,,,
,,,,,,,,2023-08-16_08h33.06.601,HF_wild_card,2022.2.4,Win32,59.99160118,60607526ff89564c7dee871e,64d2fd46c836a06233681665,64dc7b87760b5ca29153d2fa,,,,,,,ctch,resources/DR.BMP,resources/DB.BMP,Door3,0.208333333,-0.024074095,1,0,0,0.7926,optionRight,70,9420,4,43,0,43,0,1,,,,,,,,,,,,,,,,,,,,,,,,,,,,,,,,,,,,,,,
,,,,,,,,2023-08-16_08h33.06.601,HF_wild_card,2022.2.4,Win32,59.99160118,60607526ff89564c7dee871e,64d2fd46c836a06233681665,64dc7b87760b5ca29153d2fa,,,,,,,,,,,,,,,,,,,,,,,,,,3,0,3,0,1,,,,,,,,,,,,,,,,,,,,,,,,,,,,,,,,,,
,,,,,,,,2023-08-16_08h33.06.601,HF_wild_card,2022.2.4,Win32,59.99160118,60607526ff89564c7dee871e,64d2fd46c836a06233681665,64dc7b87760b5ca29153d2fa,,,,,,,ctch,resources/DB.BMP,resources/DR.BMP,Door3,-0.302777785,0.057407414,1,0,0,1.054200001,optionLeft,70,9490,5,0,0,0,0,1,,,,,,,,,,,,,,,,,,,,,,,,,,,,,,,,,,,,,,,
,,,,,,,,2023-08-16_08h33.06.601,HF_wild_card,2022.2.4,Win32,59.99160118,60607526ff89564c7dee871e,64d2fd46c836a06233681665,64dc7b87760b5ca29153d2fa,,,,,,,decisionTrl,resources/DB.BMP,resources/DY.BMP,Door3,-0.237962935,0.025000007,1,0,0,1.2779,optionLeft,70,9560,5,1,0,1,0,1,,,,,,,,,,,,,,,,,,,,,,,,,,,,,,,,,,,,,,,
,,,,,,,,2023-08-16_08h33.06.601,HF_wild_card,2022.2.4,Win32,59.99160118,60607526ff89564c7dee871e,64d2fd46c836a06233681665,64dc7b87760b5ca29153d2fa,,,,,,,ctch,resources/DR.BMP,resources/DB.BMP,Door3,0.287962949,0.01944443,1,0,0,2.287599999,optionRight,70,9630,5,2,0,2,0,1,,,,,,,,,,,,,,,,,,,,,,,,,,,,,,,,,,,,,,,
,,,,,,,,2023-08-16_08h33.06.601,HF_wild_card,2022.2.4,Win32,59.99160118,60607526ff89564c7dee871e,64d2fd46c836a06233681665,64dc7b87760b5ca29153d2fa,,,,,,,ctch,resources/DP.BMP,resources/DY.BMP,Door4,0.462962963,0.068518497,1,0,0,8.0972,optionRight,60,9690,5,3,0,3,0,1,,,,,,,,,,,,,,,,,,,,,,,,,,,,,,,,,,,,,,,
,,,,,,,,2023-08-16_08h33.06.601,HF_wild_card,2022.2.4,Win32,59.99160118,60607526ff89564c7dee871e,64d2fd46c836a06233681665,64dc7b87760b5ca29153d2fa,,,,,,,decisionTrl,resources/DY.BMP,resources/DB.BMP,Door3,0.365740741,0.029629637,1,0,0,1.4141,optionRight,70,9760,5,4,0,4,0,1,,,,,,,,,,,,,,,,,,,,,,,,,,,,,,,,,,,,,,,
,,,,,,,,2023-08-16_08h33.06.601,HF_wild_card,2022.2.4,Win32,59.99160118,60607526ff89564c7dee871e,64d2fd46c836a06233681665,64dc7b87760b5ca29153d2fa,,,,,,,sngl,resources/Empty.png,resources/DR.BMP,Door2,0.27407406,-0.026851866,1,0,0,0.6487,optionRight,20,9780,5,5,0,5,0,1,,,,,,,,,,,,,,,,,,,,,,,,,,,,,,,,,,,,,,,
,,,,,,,,2023-08-16_08h33.06.601,HF_wild_card,2022.2.4,Win32,59.99160118,60607526ff89564c7dee871e,64d2fd46c836a06233681665,64dc7b87760b5ca29153d2fa,,,,,,,decisionTrl,resources/DB.BMP,resources/DY.BMP,Door3,-0.334259245,0.069444444,1,0,0,7.351,optionLeft,70,9850,5,6,0,6,0,1,,,,,,,,,,,,,,,,,,,,,,,,,,,,,,,,,,,,,,,
,,,,,,,,2023-08-16_08h33.06.601,HF_wild_card,2022.2.4,Win32,59.99160118,60607526ff89564c7dee871e,64d2fd46c836a06233681665,64dc7b87760b5ca29153d2fa,,,,,,,decisionTrl,resources/DBN.BMP,resources/DY.BMP,WildCard_Ex,-0.344444452,0.03611109,1,0,0,0.9192,optionLeft,5,9855,5,7,0,7,0,1,,,,,,,,,,,,,,,,,,,,,,,,,,,,,,,,,,,,,,,
,,,,,,,,2023-08-16_08h33.06.601,HF_wild_card,2022.2.4,Win32,59.99160118,60607526ff89564c7dee871e,64d2fd46c836a06233681665,64dc7b87760b5ca29153d2fa,,,,,,,sngl,resources/Empty.png,resources/DB.BMP,Door3,0.282407407,-0.020370377,1,0,0,0.5805,optionRight,70,9925,5,8,0,8,0,1,,,,,,,,,,,,,,,,,,,,,,,,,,,,,,,,,,,,,,,
,,,,,,,,2023-08-16_08h33.06.601,HF_wild_card,2022.2.4,Win32,59.99160118,60607526ff89564c7dee871e,64d2fd46c836a06233681665,64dc7b87760b5ca29153d2fa,,,,,,,decisionTrl,resources/DB.BMP,resources/DY.BMP,Door3,-0.289814772,0.03611109,1,0,0,2.1091,optionLeft,70,9995,5,9,0,9,0,1,,,,,,,,,,,,,,,,,,,,,,,,,,,,,,,,,,,,,,,
,,,,,,,,2023-08-16_08h33.06.601,HF_wild_card,2022.2.4,Win32,59.99160118,60607526ff89564c7dee871e,64d2fd46c836a06233681665,64dc7b87760b5ca29153d2fa,,,,,,,sngl,resources/DY.BMP,resources/Empty.png,Door4,-0.298148155,0.033333319,1,0,0,0.7845,optionLeft,80,10075,5,10,0,10,0,1,,,,,,,,,,,,,,,,,,,,,,,,,,,,,,,,,,,,,,,
,,,,,,,,2023-08-16_08h33.06.601,HF_wild_card,2022.2.4,Win32,59.99160118,60607526ff89564c7dee871e,64d2fd46c836a06233681665,64dc7b87760b5ca29153d2fa,,,,,,,sngl,resources/Empty.png,resources/DBN.BMP,WildCard_Ex,0.340740769,0.00462963,1,0,0,0.8945,optionRight,5,10080,5,11,0,11,0,1,,,,,,,,,,,,,,,,,,,,,,,,,,,,,,,,,,,,,,,
,,,,,,,,2023-08-16_08h33.06.601,HF_wild_card,2022.2.4,Win32,59.99160118,60607526ff89564c7dee871e,64d2fd46c836a06233681665,64dc7b87760b5ca29153d2fa,,,,,,,sngl,resources/Empty.png,resources/DY.BMP,Door4,0.335185157,-0.062037044,1,0,0,0.7311,optionRight,60,10140,5,12,0,12,0,1,,,,,,,,,,,,,,,,,,,,,,,,,,,,,,,,,,,,,,,
,,,,,,,,2023-08-16_08h33.06.601,HF_wild_card,2022.2.4,Win32,59.99160118,60607526ff89564c7dee871e,64d2fd46c836a06233681665,64dc7b87760b5ca29153d2fa,,,,,,,decisionTrl,resources/DR.BMP,resources/DBN.BMP,Door2,-0.198148162,0.001851859,1,0,0,1.1371,optionLeft,40,10180,5,13,0,13,0,1,,,,,,,,,,,,,,,,,,,,,,,,,,,,,,,,,,,,,,,
,,,,,,,,2023-08-16_08h33.06.601,HF_wild_card,2022.2.4,Win32,59.99160118,60607526ff89564c7dee871e,64d2fd46c836a06233681665,64dc7b87760b5ca29153d2fa,,,,,,,decisionTrl,resources/DBN.BMP,resources/DP.BMP,Door1,0.217592593,-0.005555577,1,0,0,0.867599999,optionRight,30,10210,5,14,0,14,0,1,,,,,,,,,,,,,,,,,,,,,,,,,,,,,,,,,,,,,,,
,,,,,,,,2023-08-16_08h33.06.601,HF_wild_card,2022.2.4,Win32,59.99160118,60607526ff89564c7dee871e,64d2fd46c836a06233681665,64dc7b87760b5ca29153d2fa,,,,,,,sngl,resources/DB.BMP,resources/Empty.png,Door3,-0.237962935,0.013888889,1,0,0,0.5321,optionLeft,70,10280,5,15,0,15,0,1,,,,,,,,,,,,,,,,,,,,,,,,,,,,,,,,,,,,,,,
,,,,,,,,2023-08-16_08h33.06.601,HF_wild_card,2022.2.4,Win32,59.99160118,60607526ff89564c7dee871e,64d2fd46c836a06233681665,64dc7b87760b5ca29153d2fa,,,,,,,ctch,resources/DR.BMP,resources/DB.BMP,Door3,0.384259259,0.001851859,1,0,0,0.754099999,optionRight,70,10350,5,16,0,16,0,1,,,,,,,,,,,,,,,,,,,,,,,,,,,,,,,,,,,,,,,
,,,,,,,,2023-08-16_08h33.06.601,HF_wild_card,2022.2.4,Win32,59.99160118,60607526ff89564c7dee871e,64d2fd46c836a06233681665,64dc7b87760b5ca29153d2fa,,,,,,,decisionTrl,resources/DP.BMP,resources/DR.BMP,Door1,-0.256481453,0.03611109,1,0,0,0.945,optionLeft,30,10380,5,17,0,17,0,1,,,,,,,,,,,,,,,,,,,,,,,,,,,,,,,,,,,,,,,
,,,,,,,,2023-08-16_08h33.06.601,HF_wild_card,2022.2.4,Win32,59.99160118,60607526ff89564c7dee871e,64d2fd46c836a06233681665,64dc7b87760b5ca29153d2fa,,,,,,,sngl,resources/DBN.BMP,resources/Empty.png,WildCard_Ex,-0.218518504,-0.027777778,1,0,0,0.7095,optionLeft,5,10385,5,18,0,18,0,1,,,,,,,,,,,,,,,,,,,,,,,,,,,,,,,,,,,,,,,
,,,,,,,,2023-08-16_08h33.06.601,HF_wild_card,2022.2.4,Win32,59.99160118,60607526ff89564c7dee871e,64d2fd46c836a06233681665,64dc7b87760b5ca29153d2fa,,,,,,,sngl,resources/Empty.png,resources/DBN.BMP,WildCard_Ex,0.289814843,-0.015740748,1,0,0,0.626200001,optionRight,95,10480,5,19,0,19,0,1,,,,,,,,,,,,,,,,,,,,,,,,,,,,,,,,,,,,,,,
,,,,,,,,2023-08-16_08h33.06.601,HF_wild_card,2022.2.4,Win32,59.99160118,60607526ff89564c7dee871e,64d2fd46c836a06233681665,64dc7b87760b5ca29153d2fa,,,,,,,ctch,resources/DY.BMP,resources/DP.BMP,Door4,-0.273148148,0.03148146,1,0,0,1.4681,optionLeft,60,10540,5,20,0,20,0,1,,,,,,,,,,,,,,,,,,,,,,,,,,,,,,,,,,,,,,,
,,,,,,,,2023-08-16_08h33.06.601,HF_wild_card,2022.2.4,Win32,59.99160118,60607526ff89564c7dee871e,64d2fd46c836a06233681665,64dc7b87760b5ca29153d2fa,,,,,,,decisionTrl,resources/DY.BMP,resources/DB.BMP,Door3,0.454629686,-0.076851845,1,0,0,0.7269,optionRight,70,10610,5,21,0,21,0,1,,,,,,,,,,,,,,,,,,,,,,,,,,,,,,,,,,,,,,,
,,,,,,,,2023-08-16_08h33.06.601,HF_wild_card,2022.2.4,Win32,59.99160118,60607526ff89564c7dee871e,64d2fd46c836a06233681665,64dc7b87760b5ca29153d2fa,,,,,,,decisionTrl,resources/DR.BMP,resources/DP.BMP,Door2,-0.265740712,0.000925912,1,0,0,1.661900001,optionLeft,20,10630,5,22,0,22,0,1,,,,,,,,,,,,,,,,,,,,,,,,,,,,,,,,,,,,,,,
,,,,,,,,2023-08-16_08h33.06.601,HF_wild_card,2022.2.4,Win32,59.99160118,60607526ff89564c7dee871e,64d2fd46c836a06233681665,64dc7b87760b5ca29153d2fa,,,,,,,decisionTrl,resources/DY.BMP,resources/DB.BMP,Door3,0.323148233,-0.053703697,1,0,0,1.6986,optionRight,70,10700,5,23,0,23,0,1,,,,,,,,,,,,,,,,,,,,,,,,,,,,,,,,,,,,,,,
,,,,,,,,2023-08-16_08h33.06.601,HF_wild_card,2022.2.4,Win32,59.99160118,60607526ff89564c7dee871e,64d2fd46c836a06233681665,64dc7b87760b5ca29153d2fa,,,,,,,decisionTrl,resources/DP.BMP,resources/DR.BMP,Door2,0.402777778,-0.034259266,1,0,0,1.7273,optionRight,40,10740,5,24,0,24,0,1,,,,,,,,,,,,,,,,,,,,,,,,,,,,,,,,,,,,,,,
,,,,,,,,2023-08-16_08h33.06.601,HF_wild_card,2022.2.4,Win32,59.99160118,60607526ff89564c7dee871e,64d2fd46c836a06233681665,64dc7b87760b5ca29153d2fa,,,,,,,decisionTrl,resources/DR.BMP,resources/DP.BMP,Door1,0.321296268,0.02407406,1,0,0,1.494599999,optionRight,30,10770,5,25,0,25,0,1,,,,,,,,,,,,,,,,,,,,,,,,,,,,,,,,,,,,,,,
,,,,,,,,2023-08-16_08h33.06.601,HF_wild_card,2022.2.4,Win32,59.99160118,60607526ff89564c7dee871e,64d2fd46c836a06233681665,64dc7b87760b5ca29153d2fa,,,,,,,decisionTrl,resources/DP.BMP,resources/DR.BMP,Door1,-0.388888889,0.017592571,1,0,0,1.954,optionLeft,30,10800,5,26,0,26,0,1,,,,,,,,,,,,,,,,,,,,,,,,,,,,,,,,,,,,,,,
,,,,,,,,2023-08-16_08h33.06.601,HF_wild_card,2022.2.4,Win32,59.99160118,60607526ff89564c7dee871e,64d2fd46c836a06233681665,64dc7b87760b5ca29153d2fa,,,,,,,decisionTrl,resources/DY.BMP,resources/DB.BMP,Door3,0.405555584,-0.058333326,1,0,0,1.3701,optionRight,70,10870,5,27,0,27,0,1,,,,,,,,,,,,,,,,,,,,,,,,,,,,,,,,,,,,,,,
,,,,,,,,2023-08-16_08h33.06.601,HF_wild_card,2022.2.4,Win32,59.99160118,60607526ff89564c7dee871e,64d2fd46c836a06233681665,64dc7b87760b5ca29153d2fa,,,,,,,decisionTrl,resources/DR.BMP,resources/DP.BMP,Door1,0.335185157,-0.057407414,1,0,0,1.486700001,optionRight,30,10900,5,28,0,28,0,1,,,,,,,,,,,,,,,,,,,,,,,,,,,,,,,,,,,,,,,
,,,,,,,,2023-08-16_08h33.06.601,HF_wild_card,2022.2.4,Win32,59.99160118,60607526ff89564c7dee871e,64d2fd46c836a06233681665,64dc7b87760b5ca29153d2fa,,,,,,,decisionTrl,resources/DR.BMP,resources/DP.BMP,Door1,0.385185242,-0.062962956,1,0,0,0.8535,optionRight,30,10930,5,29,0,29,0,1,,,,,,,,,,,,,,,,,,,,,,,,,,,,,,,,,,,,,,,
,,,,,,,,2023-08-16_08h33.06.601,HF_wild_card,2022.2.4,Win32,59.99160118,60607526ff89564c7dee871e,64d2fd46c836a06233681665,64dc7b87760b5ca29153d2fa,,,,,,,ctch,resources/DP.BMP,resources/DY.BMP,Door4,0.333333333,-0.043518526,1,0,0,1.092599999,optionRight,60,10990,5,30,0,30,0,1,,,,,,,,,,,,,,,,,,,,,,,,,,,,,,,,,,,,,,,
,,,,,,,,2023-08-16_08h33.06.601,HF_wild_card,2022.2.4,Win32,59.99160118,60607526ff89564c7dee871e,64d2fd46c836a06233681665,64dc7b87760b5ca29153d2fa,,,,,,,sngl,resources/DR.BMP,resources/Empty.png,Door2,-0.326851845,0.030555548,1,0,0,1.216099999,optionLeft,40,11030,5,31,0,31,0,1,,,,,,,,,,,,,,,,,,,,,,,,,,,,,,,,,,,,,,,
,,,,,,,,2023-08-16_08h33.06.601,HF_wild_card,2022.2.4,Win32,59.99160118,60607526ff89564c7dee871e,64d2fd46c836a06233681665,64dc7b87760b5ca29153d2fa,,,,,,,sngl,resources/DP.BMP,resources/Empty.png,Door1,-0.339814822,-0.025925919,1,0,0,0.758099999,optionLeft,30,11060,5,32,0,32,0,1,,,,,,,,,,,,,,,,,,,,,,,,,,,,,,,,,,,,,,,
,,,,,,,,2023-08-16_08h33.06.601,HF_wild_card,2022.2.4,Win32,59.99160118,60607526ff89564c7dee871e,64d2fd46c836a06233681665,64dc7b87760b5ca29153d2fa,,,,,,,sngl,resources/DBN.BMP,resources/Empty.png,WildCard_Ex,-0.337037016,-0.021296289,1,0,0,0.7637,optionLeft,95,11155,5,33,0,33,0,1,,,,,,,,,,,,,,,,,,,,,,,,,,,,,,,,,,,,,,,
,,,,,,,,2023-08-16_08h33.06.601,HF_wild_card,2022.2.4,Win32,59.99160118,60607526ff89564c7dee871e,64d2fd46c836a06233681665,64dc7b87760b5ca29153d2fa,,,,,,,ctch,resources/DY.BMP,resources/DP.BMP,Door4,-0.308333326,0.077777757,1,0,0,1.1194,optionLeft,60,11215,5,34,0,34,0,1,,,,,,,,,,,,,,,,,,,,,,,,,,,,,,,,,,,,,,,
,,,,,,,,2023-08-16_08h33.06.601,HF_wild_card,2022.2.4,Win32,59.99160118,60607526ff89564c7dee871e,64d2fd46c836a06233681665,64dc7b87760b5ca29153d2fa,,,,,,,sngl,resources/Empty.png,resources/DP.BMP,Door1,0.310185185,-0.051851873,1,0,0,0.5705,optionRight,30,11245,5,35,0,35,0,1,,,,,,,,,,,,,,,,,,,,,,,,,,,,,,,,,,,,,,,
,,,,,,,,2023-08-16_08h33.06.601,HF_wild_card,2022.2.4,Win32,59.99160118,60607526ff89564c7dee871e,64d2fd46c836a06233681665,64dc7b87760b5ca29153d2fa,,,,,,,decisionTrl,resources/DBN.BMP,resources/DR.BMP,Door2,0.353703675,-0.062037044,1,0,0,1.816,optionRight,20,11265,5,36,0,36,0,1,,,,,,,,,,,,,,,,,,,,,,,,,,,,,,,,,,,,,,,
,,,,,,,,2023-08-16_08h33.06.601,HF_wild_card,2022.2.4,Win32,59.99160118,60607526ff89564c7dee871e,64d2fd46c836a06233681665,64dc7b87760b5ca29153d2fa,,,,,,,decisionTrl,resources/DY.BMP,resources/DBN.BMP,WildCard_Ex,0.433333362,-0.101851852,1,0,0,1.960700001,optionRight,95,11360,5,37,0,37,0,1,,,,,,,,,,,,,,,,,,,,,,,,,,,,,,,,,,,,,,,
,,,,,,,,2023-08-16_08h33.06.601,HF_wild_card,2022.2.4,Win32,59.99160118,60607526ff89564c7dee871e,64d2fd46c836a06233681665,64dc7b87760b5ca29153d2fa,,,,,,,ctch,resources/DB.BMP,resources/DR.BMP,Door3,-0.29351849,-0.01203703,1,0,0,1.0943,optionLeft,70,11430,5,38,0,38,0,1,,,,,,,,,,,,,,,,,,,,,,,,,,,,,,,,,,,,,,,
,,,,,,,,2023-08-16_08h33.06.601,HF_wild_card,2022.2.4,Win32,59.99160118,60607526ff89564c7dee871e,64d2fd46c836a06233681665,64dc7b87760b5ca29153d2fa,,,,,,,decisionTrl,resources/DP.BMP,resources/DR.BMP,Door2,0.383333418,-0.064814815,1,0,0,1.718,optionRight,40,11470,5,39,0,39,0,1,,,,,,,,,,,,,,,,,,,,,,,,,,,,,,,,,,,,,,,
,,,,,,,,2023-08-16_08h33.06.601,HF_wild_card,2022.2.4,Win32,59.99160118,60607526ff89564c7dee871e,64d2fd46c836a06233681665,64dc7b87760b5ca29153d2fa,,,,,,,decisionTrl,resources/DP.BMP,resources/DBN.BMP,WildCard_Ex,0.611111111,-0.081481474,1,0,0,1.2142,optionRight,5,11475,5,40,0,40,0,1,,,,,,,,,,,,,,,,,,,,,,,,,,,,,,,,,,,,,,,
,,,,,,,,2023-08-16_08h33.06.601,HF_wild_card,2022.2.4,Win32,59.99160118,60607526ff89564c7dee871e,64d2fd46c836a06233681665,64dc7b87760b5ca29153d2fa,,,,,,,decisionTrl,resources/DB.BMP,resources/DY.BMP,Door4,0.220370399,0.051851838,1,0,0,1.9584,optionRight,60,11535,5,41,0,41,0,1,,,,,,,,,,,,,,,,,,,,,,,,,,,,,,,,,,,,,,,
,,,,,,,,2023-08-16_08h33.06.601,HF_wild_card,2022.2.4,Win32,59.99160118,60607526ff89564c7dee871e,64d2fd46c836a06233681665,64dc7b87760b5ca29153d2fa,,,,,,,decisionTrl,resources/DBN.BMP,resources/DB.BMP,Door3,0.186111097,-0.00462963,1,0,0,0.761599999,optionRight,70,11605,5,42,0,42,0,1,,,,,,,,,,,,,,,,,,,,,,,,,,,,,,,,,,,,,,,
,,,,,,,,2023-08-16_08h33.06.601,HF_wild_card,2022.2.4,Win32,59.99160118,60607526ff89564c7dee871e,64d2fd46c836a06233681665,64dc7b87760b5ca29153d2fa,,,,,,,decisionTrl,resources/DB.BMP,resources/DBN.BMP,WildCard_Ex,0.249074088,-0.036111125,1,0,0,0.6711,optionRight,5,11610,5,43,0,43,0,1,,,,,,,,,,,,,,,,,,,,,,,,,,,,,,,,,,,,,,,
,,,,,,,,2023-08-16_08h33.06.601,HF_wild_card,2022.2.4,Win32,59.99160118,60607526ff89564c7dee871e,64d2fd46c836a06233681665,64dc7b87760b5ca29153d2fa,,,,,,,,,,,,,,,,,,,,,,,,,,4,0,4,0,1,,,,,,,,,,,,,,,,,,,,,,,,,,,,,,,,,,
,,,,,,,,2023-08-16_08h33.06.601,HF_wild_card,2022.2.4,Win32,59.99160118,60607526ff89564c7dee871e,64d2fd46c836a06233681665,64dc7b87760b5ca29153d2fa,,,,,,,decisionTrl,resources/DY.BMP,resources/DB.BMP,Door3,0.275925954,-0.068518533,1,0,0,1.7864,optionRight,70,11680,6,0,0,0,0,1,,,,,,,,,,,,,,,,,,,,,,,,,,,,,,,,,,,,,,,
,,,,,,,,2023-08-16_08h33.06.601,HF_wild_card,2022.2.4,Win32,59.99160118,60607526ff89564c7dee871e,64d2fd46c836a06233681665,64dc7b87760b5ca29153d2fa,,,,,,,decisionTrl,resources/DR.BMP,resources/DP.BMP,Door1,0.151851866,-0.003703718,1,0,0,1.048,optionRight,30,11710,6,1,0,1,0,1,,,,,,,,,,,,,,,,,,,,,,,,,,,,,,,,,,,,,,,
,,,,,,,,2023-08-16_08h33.06.601,HF_wild_card,2022.2.4,Win32,59.99160118,60607526ff89564c7dee871e,64d2fd46c836a06233681665,64dc7b87760b5ca29153d2fa,,,,,,,decisionTrl,resources/DBN.BMP,resources/DB.BMP,WildCard_Ex,-0.262962977,-0.008333347,1,0,0,1.2206,optionLeft,95,11805,6,2,0,2,0,1,,,,,,,,,,,,,,,,,,,,,,,,,,,,,,,,,,,,,,,
,,,,,,,,2023-08-16_08h33.06.601,HF_wild_card,2022.2.4,Win32,59.99160118,60607526ff89564c7dee871e,64d2fd46c836a06233681665,64dc7b87760b5ca29153d2fa,,,,,,,sngl,resources/Empty.png,resources/DBN.BMP,WildCard_Ex,0.295370384,-0.066666674,1,0,0,0.8432,optionRight,95,11900,6,3,0,3,0,1,,,,,,,,,,,,,,,,,,,,,,,,,,,,,,,,,,,,,,,
,,,,,,,,2023-08-16_08h33.06.601,HF_wild_card,2022.2.4,Win32,59.99160118,60607526ff89564c7dee871e,64d2fd46c836a06233681665,64dc7b87760b5ca29153d2fa,,,,,,,sngl,resources/DBN.BMP,resources/Empty.png,WildCard_Ex,-0.15370369,-0.028703725,1,0,0,0.7142,optionLeft,5,11905,6,4,0,4,0,1,,,,,,,,,,,,,,,,,,,,,,,,,,,,,,,,,,,,,,,
,,,,,,,,2023-08-16_08h33.06.601,HF_wild_card,2022.2.4,Win32,59.99160118,60607526ff89564c7dee871e,64d2fd46c836a06233681665,64dc7b87760b5ca29153d2fa,,,,,,,sngl,resources/Empty.png,resources/DBN.BMP,WildCard_Ex,0.337037122,-0.049074067,1,0,0,0.607,optionRight,5,11910,6,5,0,5,0,1,,,,,,,,,,,,,,,,,,,,,,,,,,,,,,,,,,,,,,,
,,,,,,,,2023-08-16_08h33.06.601,HF_wild_card,2022.2.4,Win32,59.99160118,60607526ff89564c7dee871e,64d2fd46c836a06233681665,64dc7b87760b5ca29153d2fa,,,,,,,decisionTrl,resources/DY.BMP,resources/DB.BMP,Door3,0.212037051,0.021296289,1,0,0,1.2025,optionRight,70,11980,6,6,0,6,0,1,,,,,,,,,,,,,,,,,,,,,,,,,,,,,,,,,,,,,,,
,,,,,,,,2023-08-16_08h33.06.601,HF_wild_card,2022.2.4,Win32,59.99160118,60607526ff89564c7dee871e,64d2fd46c836a06233681665,64dc7b87760b5ca29153d2fa,,,,,,,ctch,resources/DB.BMP,resources/DR.BMP,Door3,-0.333333333,0.023148148,1,0,0,1.8148,optionLeft,70,12050,6,7,0,7,0,1,,,,,,,,,,,,,,,,,,,,,,,,,,,,,,,,,,,,,,,
,,,,,,,,2023-08-16_08h33.06.601,HF_wild_card,2022.2.4,Win32,59.99160118,60607526ff89564c7dee871e,64d2fd46c836a06233681665,64dc7b87760b5ca29153d2fa,,,,,,,decisionTrl,resources/DB.BMP,resources/DY.BMP,Door3,-0.390740748,-0.002777771,1,0,0,1.225,optionLeft,70,12120,6,8,0,8,0,1,,,,,,,,,,,,,,,,,,,,,,,,,,,,,,,,,,,,,,,
,,,,,,,,2023-08-16_08h33.06.601,HF_wild_card,2022.2.4,Win32,59.99160118,60607526ff89564c7dee871e,64d2fd46c836a06233681665,64dc7b87760b5ca29153d2fa,,,,,,,decisionTrl,resources/DR.BMP,resources/DP.BMP,Door1,0.050925926,-0.031481496,1,0,0,2.138900001,optionRight,30,12150,6,9,0,9,0,1,,,,,,,,,,,,,,,,,,,,,,,,,,,,,,,,,,,,,,,
,,,,,,,,2023-08-16_08h33.06.601,HF_wild_card,2022.2.4,Win32,59.99160118,60607526ff89564c7dee871e,64d2fd46c836a06233681665,64dc7b87760b5ca29153d2fa,,,,,,,decisionTrl,resources/DP.BMP,resources/DR.BMP,Door2,0.276851866,-0.064814815,1,0,0,1.359,optionRight,40,12190,6,10,0,10,0,1,,,,,,,,,,,,,,,,,,,,,,,,,,,,,,,,,,,,,,,
,,,,,,,,2023-08-16_08h33.06.601,HF_wild_card,2022.2.4,Win32,59.99160118,60607526ff89564c7dee871e,64d2fd46c836a06233681665,64dc7b87760b5ca29153d2fa,,,,,,,decisionTrl,resources/DY.BMP,resources/DBN.BMP,WildCard_Ex,0.276851866,-0.078703704,1,0,0,1.6467,optionRight,95,12285,6,11,0,11,0,1,,,,,,,,,,,,,,,,,,,,,,,,,,,,,,,,,,,,,,,
,,,,,,,,2023-08-16_08h33.06.601,HF_wild_card,2022.2.4,Win32,59.99160118,60607526ff89564c7dee871e,64d2fd46c836a06233681665,64dc7b87760b5ca29153d2fa,,,,,,,decisionTrl,resources/DP.BMP,resources/DBN.BMP,WildCard_Ex,0.186111097,-0.047222243,1,0,0,1.332,optionRight,5,12290,6,12,0,12,0,1,,,,,,,,,,,,,,,,,,,,,,,,,,,,,,,,,,,,,,,
,,,,,,,,2023-08-16_08h33.06.601,HF_wild_card,2022.2.4,Win32,59.99160118,60607526ff89564c7dee871e,64d2fd46c836a06233681665,64dc7b87760b5ca29153d2fa,,,,,,,ctch,resources/DB.BMP,resources/DR.BMP,Door3,-0.36296297,-0.077777792,1,0,0,0.678599999,optionLeft,70,12360,6,13,0,13,0,1,,,,,,,,,,,,,,,,,,,,,,,,,,,,,,,,,,,,,,,
,,,,,,,,2023-08-16_08h33.06.601,HF_wild_card,2022.2.4,Win32,59.99160118,60607526ff89564c7dee871e,64d2fd46c836a06233681665,64dc7b87760b5ca29153d2fa,,,,,,,decisionTrl,resources/DP.BMP,resources/DR.BMP,Door2,0.237037023,-0.038888896,1,0,0,1.3131,optionRight,40,12400,6,14,0,14,0,1,,,,,,,,,,,,,,,,,,,,,,,,,,,,,,,,,,,,,,,
,,,,,,,,2023-08-16_08h33.06.601,HF_wild_card,2022.2.4,Win32,59.99160118,60607526ff89564c7dee871e,64d2fd46c836a06233681665,64dc7b87760b5ca29153d2fa,,,,,,,ctch,resources/DP.BMP,resources/DY.BMP,Door4,0.336111139,-0.021296289,1,0,0,0.9437,optionRight,60,12460,6,15,0,15,0,1,,,,,,,,,,,,,,,,,,,,,,,,,,,,,,,,,,,,,,,
,,,,,,,,2023-08-16_08h33.06.601,HF_wild_card,2022.2.4,Win32,59.99160118,60607526ff89564c7dee871e,64d2fd46c836a06233681665,64dc7b87760b5ca29153d2fa,,,,,,,ctch,resources/DY.BMP,resources/DP.BMP,Door4,-0.341666645,-0.044444437,1,0,0,1.4475,optionLeft,80,12540,6,16,0,16,0,1,,,,,,,,,,,,,,,,,,,,,,,,,,,,,,,,,,,,,,,
,,,,,,,,2023-08-16_08h33.06.601,HF_wild_card,2022.2.4,Win32,59.99160118,60607526ff89564c7dee871e,64d2fd46c836a06233681665,64dc7b87760b5ca29153d2fa,,,,,,,ctch,resources/DR.BMP,resources/DB.BMP,Door3,0.151851866,-0.024074095,1,0,0,0.873599999,optionRight,70,12610,6,17,0,17,0,1,,,,,,,,,,,,,,,,,,,,,,,,,,,,,,,,,,,,,,,
,,,,,,,,2023-08-16_08h33.06.601,HF_wild_card,2022.2.4,Win32,59.99160118,60607526ff89564c7dee871e,64d2fd46c836a06233681665,64dc7b87760b5ca29153d2fa,,,,,,,decisionTrl,resources/DBN.BMP,resources/DY.BMP,WildCard_Ex,-0.340740734,-0.075000021,1,0,0,0.9453,optionLeft,95,12705,6,18,0,18,0,1,,,,,,,,,,,,,,,,,,,,,,,,,,,,,,,,,,,,,,,
,,,,,,,,2023-08-16_08h33.06.601,HF_wild_card,2022.2.4,Win32,59.99160118,60607526ff89564c7dee871e,64d2fd46c836a06233681665,64dc7b87760b5ca29153d2fa,,,,,,,decisionTrl,resources/DR.BMP,resources/DP.BMP,Door1,0.248148176,0.012962942,1,0,0,1.9301,optionRight,30,12735,6,19,0,19,0,1,,,,,,,,,,,,,,,,,,,,,,,,,,,,,,,,,,,,,,,
,,,,,,,,2023-08-16_08h33.06.601,HF_wild_card,2022.2.4,Win32,59.99160118,60607526ff89564c7dee871e,64d2fd46c836a06233681665,64dc7b87760b5ca29153d2fa,,,,,,,decisionTrl,resources/DB.BMP,resources/DY.BMP,Door3,-0.204629616,-0.013888889,1,0,0,1.7312,optionLeft,70,12805,6,20,0,20,0,1,,,,,,,,,,,,,,,,,,,,,,,,,,,,,,,,,,,,,,,
,,,,,,,,2023-08-16_08h33.06.601,HF_wild_card,2022.2.4,Win32,59.99160118,60607526ff89564c7dee871e,64d2fd46c836a06233681665,64dc7b87760b5ca29153d2fa,,,,,,,decisionTrl,resources/DP.BMP,resources/DR.BMP,Door2,0.285185213,-0.010185206,1,0,0,1.1535,optionRight,20,12825,6,21,0,21,0,1,,,,,,,,,,,,,,,,,,,,,,,,,,,,,,,,,,,,,,,
,,,,,,,,2023-08-16_08h33.06.601,HF_wild_card,2022.2.4,Win32,59.99160118,60607526ff89564c7dee871e,64d2fd46c836a06233681665,64dc7b87760b5ca29153d2fa,,,,,,,ctch,resources/DY.BMP,resources/DP.BMP,Door4,-0.217592593,-0.015740748,1,0,0,1.1972,optionLeft,60,12885,6,22,0,22,0,1,,,,,,,,,,,,,,,,,,,,,,,,,,,,,,,,,,,,,,,
,,,,,,,,2023-08-16_08h33.06.601,HF_wild_card,2022.2.4,Win32,59.99160118,60607526ff89564c7dee871e,64d2fd46c836a06233681665,64dc7b87760b5ca29153d2fa,,,,,,,ctch,resources/DP.BMP,resources/DY.BMP,Door4,0.286111125,0.023148148,1,0,0,1.2905,optionRight,80,12965,6,23,0,23,0,1,,,,,,,,,,,,,,,,,,,,,,,,,,,,,,,,,,,,,,,
,,,,,,,,2023-08-16_08h33.06.601,HF_wild_card,2022.2.4,Win32,59.99160118,60607526ff89564c7dee871e,64d2fd46c836a06233681665,64dc7b87760b5ca29153d2fa,,,,,,,decisionTrl,resources/DY.BMP,resources/DB.BMP,Door3,0.357407464,-0.048148155,1,0,0,0.8655,optionRight,70,13035,6,24,0,24,0,1,,,,,,,,,,,,,,,,,,,,,,,,,,,,,,,,,,,,,,,
,,,,,,,,2023-08-16_08h33.06.601,HF_wild_card,2022.2.4,Win32,59.99160118,60607526ff89564c7dee871e,64d2fd46c836a06233681665,64dc7b87760b5ca29153d2fa,,,,,,,sngl,resources/DR.BMP,resources/Empty.png,Door2,-0.302777785,-0.005555577,1,0,0,0.6921,optionLeft,20,13055,6,25,0,25,0,1,,,,,,,,,,,,,,,,,,,,,,,,,,,,,,,,,,,,,,,
,,,,,,,,2023-08-16_08h33.06.601,HF_wild_card,2022.2.4,Win32,59.99160118,60607526ff89564c7dee871e,64d2fd46c836a06233681665,64dc7b87760b5ca29153d2fa,,,,,,,sngl,resources/DB.BMP,resources/Empty.png,Door3,-0.282407407,-0.018518519,1,0,0,0.629299999,optionLeft,70,13125,6,26,0,26,0,1,,,,,,,,,,,,,,,,,,,,,,,,,,,,,,,,,,,,,,,
,,,,,,,,2023-08-16_08h33.06.601,HF_wild_card,2022.2.4,Win32,59.99160118,60607526ff89564c7dee871e,64d2fd46c836a06233681665,64dc7b87760b5ca29153d2fa,,,,,,,ctch,resources/DR.BMP,resources/DB.BMP,Door3,0.394444501,-0.043518526,1,0,0,0.812,optionRight,70,13195,6,27,0,27,0,1,,,,,,,,,,,,,,,,,,,,,,,,,,,,,,,,,,,,,,,
,,,,,,,,2023-08-16_08h33.06.601,HF_wild_card,2022.2.4,Win32,59.99160118,60607526ff89564c7dee871e,64d2fd46c836a06233681665,64dc7b87760b5ca29153d2fa,,,,,,,sngl,resources/Empty.png,resources/DR.BMP,Door2,0.262037065,-0.038888896,1,0,0,0.5778,optionRight,40,13235,6,28,0,28,0,1,,,,,,,,,,,,,,,,,,,,,,,,,,,,,,,,,,,,,,,
,,,,,,,,2023-08-16_08h33.06.601,HF_wild_card,2022.2.4,Win32,59.99160118,60607526ff89564c7dee871e,64d2fd46c836a06233681665,64dc7b87760b5ca29153d2fa,,,,,,,decisionTrl,resources/DR.BMP,resources/DP.BMP,Door1,0.237963005,-0.043518526,1,0,0,1.1981,optionRight,30,13265,6,29,0,29,0,1,,,,,,,,,,,,,,,,,,,,,,,,,,,,,,,,,,,,,,,
,,,,,,,,2023-08-16_08h33.06.601,HF_wild_card,2022.2.4,Win32,59.99160118,60607526ff89564c7dee871e,64d2fd46c836a06233681665,64dc7b87760b5ca29153d2fa,,,,,,,sngl,resources/DBN.BMP,resources/Empty.png,WildCard_Ex,-0.288888861,-0.049074067,1,0,0,0.9805,optionLeft,95,13360,6,30,0,30,0,1,,,,,,,,,,,,,,,,,,,,,,,,,,,,,,,,,,,,,,,
,,,,,,,,2023-08-16_08h33.06.601,HF_wild_card,2022.2.4,Win32,59.99160118,60607526ff89564c7dee871e,64d2fd46c836a06233681665,64dc7b87760b5ca29153d2fa,,,,,,,sngl,resources/Empty.png,resources/DB.BMP,Door3,0.382407436,-0.087037051,1,0,0,0.6689,optionRight,70,13430,6,31,0,31,0,1,,,,,,,,,,,,,,,,,,,,,,,,,,,,,,,,,,,,,,,
,,,,,,,,2023-08-16_08h33.06.601,HF_wild_card,2022.2.4,Win32,59.99160118,60607526ff89564c7dee871e,64d2fd46c836a06233681665,64dc7b87760b5ca29153d2fa,,,,,,,decisionTrl,resources/DBN.BMP,resources/DP.BMP,WildCard_Ex,-0.309259238,-0.063888903,1,0,0,0.7705,optionLeft,5,13435,6,32,0,32,0,1,,,,,,,,,,,,,,,,,,,,,,,,,,,,,,,,,,,,,,,
,,,,,,,,2023-08-16_08h33.06.601,HF_wild_card,2022.2.4,Win32,59.99160118,60607526ff89564c7dee871e,64d2fd46c836a06233681665,64dc7b87760b5ca29153d2fa,,,,,,,decisionTrl,resources/DB.BMP,resources/DY.BMP,Door4,0.159259302,-0.036111125,1,0,0,1.3446,optionRight,80,13515,6,33,0,33,0,1,,,,,,,,,,,,,,,,,,,,,,,,,,,,,,,,,,,,,,,
,,,,,,,,2023-08-16_08h33.06.601,HF_wild_card,2022.2.4,Win32,59.99160118,60607526ff89564c7dee871e,64d2fd46c836a06233681665,64dc7b87760b5ca29153d2fa,,,,,,,sngl,resources/Empty.png,resources/DY.BMP,Door4,0.194444444,-0.081481474,1,0,0,0.6972,optionRight,80,13595,6,34,0,34,0,1,,,,,,,,,,,,,,,,,,,,,,,,,,,,,,,,,,,,,,,
,,,,,,,,2023-08-16_08h33.06.601,HF_wild_card,2022.2.4,Win32,59.99160118,60607526ff89564c7dee871e,64d2fd46c836a06233681665,64dc7b87760b5ca29153d2fa,,,,,,,sngl,resources/DY.BMP,resources/Empty.png,Door4,-0.187962921,-0.082407422,1,0,0,0.65,optionLeft,60,13655,6,35,0,35,0,1,,,,,,,,,,,,,,,,,,,,,,,,,,,,,,,,,,,,,,,
,,,,,,,,2023-08-16_08h33.06.601,HF_wild_card,2022.2.4,Win32,59.99160118,60607526ff89564c7dee871e,64d2fd46c836a06233681665,64dc7b87760b5ca29153d2fa,,,,,,,decisionTrl,resources/DP.BMP,resources/DR.BMP,Door2,0.275925954,0.002777771,1,0,0,1.3586,optionRight,40,13695,6,36,0,36,0,1,,,,,,,,,,,,,,,,,,,,,,,,,,,,,,,,,,,,,,,
,,,,,,,,2023-08-16_08h33.06.601,HF_wild_card,2022.2.4,Win32,59.99160118,60607526ff89564c7dee871e,64d2fd46c836a06233681665,64dc7b87760b5ca29153d2fa,,,,,,,sngl,resources/Empty.png,resources/DP.BMP,Door1,0.264814801,-0.131481524,1,0,0,0.742,optionRight,30,13725,6,37,0,37,0,1,,,,,,,,,,,,,,,,,,,,,,,,,,,,,,,,,,,,,,,
,,,,,,,,2023-08-16_08h33.06.601,HF_wild_card,2022.2.4,Win32,59.99160118,60607526ff89564c7dee871e,64d2fd46c836a06233681665,64dc7b87760b5ca29153d2fa,,,,,,,decisionTrl,resources/DY.BMP,resources/DB.BMP,Door3,0.290740755,-0.082407422,1,0,0,1.854200001,optionRight,70,13795,6,38,0,38,0,1,,,,,,,,,,,,,,,,,,,,,,,,,,,,,,,,,,,,,,,
,,,,,,,,2023-08-16_08h33.06.601,HF_wild_card,2022.2.4,Win32,59.99160118,60607526ff89564c7dee871e,64d2fd46c836a06233681665,64dc7b87760b5ca29153d2fa,,,,,,,decisionTrl,resources/DBN.BMP,resources/DR.BMP,Door2,0.354629658,-0.124074088,1,0,0,1.7566,optionRight,20,13815,6,39,0,39,0,1,,,,,,,,,,,,,,,,,,,,,,,,,,,,,,,,,,,,,,,
,,,,,,,,2023-08-16_08h33.06.601,HF_wild_card,2022.2.4,Win32,59.99160118,60607526ff89564c7dee871e,64d2fd46c836a06233681665,64dc7b87760b5ca29153d2fa,,,,,,,decisionTrl,resources/DR.BMP,resources/DBN.BMP,WildCard_Ex,0.288888931,-0.072222215,1,0,0,0.7326,optionRight,95,13910,6,40,0,40,0,1,,,,,,,,,,,,,,,,,,,,,,,,,,,,,,,,,,,,,,,
,,,,,,,,2023-08-16_08h33.06.601,HF_wild_card,2022.2.4,Win32,59.99160118,60607526ff89564c7dee871e,64d2fd46c836a06233681665,64dc7b87760b5ca29153d2fa,,,,,,,decisionTrl,resources/DB.BMP,resources/DY.BMP,Door4,0.261111153,-0.009259259,1,0,0,1.1565,optionRight,80,13990,6,41,0,41,0,1,,,,,,,,,,,,,,,,,,,,,,,,,,,,,,,,,,,,,,,
,,,,,,,,2023-08-16_08h33.06.601,HF_wild_card,2022.2.4,Win32,59.99160118,60607526ff89564c7dee871e,64d2fd46c836a06233681665,64dc7b87760b5ca29153d2fa,,,,,,,decisionTrl,resources/DB.BMP,resources/DBN.BMP,Door3,-0.201851809,-0.047222243,1,0,0,2.1641,optionLeft,70,14060,6,42,0,42,0,1,,,,,,,,,,,,,,,,,,,,,,,,,,,,,,,,,,,,,,,
,,,,,,,,2023-08-16_08h33.06.601,HF_wild_card,2022.2.4,Win32,59.99160118,60607526ff89564c7dee871e,64d2fd46c836a06233681665,64dc7b87760b5ca29153d2fa,,,,,,,sngl,resources/DP.BMP,resources/Empty.png,Door1,-0.364814794,-0.039814808,1,0,0,0.6308,optionLeft,30,14090,6,43,0,43,0,1,,,,,,,,,,,,,,,,,,,,,,,,,,,,,,,,,,,,,,,
,,,,,,,,2023-08-16_08h33.06.601,HF_wild_card,2022.2.4,Win32,59.99160118,60607526ff89564c7dee871e,64d2fd46c836a06233681665,64dc7b87760b5ca29153d2fa,,,,,,,,,,,,,,,,,,,,,,,,,,5,0,5,0,1,,,,,,,,,,,,,,,,,,,,,,,,,,,,,,,,,,
,,,,,,,,2023-08-16_08h33.06.601,HF_wild_card,2022.2.4,Win32,59.99160118,60607526ff89564c7dee871e,64d2fd46c836a06233681665,64dc7b87760b5ca29153d2fa,,,,,,,ctch,resources/DY.BMP,resources/DP.BMP,Door1,0.156481496,-0.050925926,1,0,0,3.7676,optionRight,30,14120,7,0,0,0,0,1,,,,,,,,,,,,,,,,,,,,,,,,,,,,,,,,,,,,,,,
,,,,,,,,2023-08-16_08h33.06.601,HF_wild_card,2022.2.4,Win32,59.99160118,60607526ff89564c7dee871e,64d2fd46c836a06233681665,64dc7b87760b5ca29153d2fa,,,,,,,decisionTrl,resources/DP.BMP,resources/DR.BMP,Door2,0.292592578,-0.01666666,1,0,0,1.6217,optionRight,40,14160,7,1,0,1,0,1,,,,,,,,,,,,,,,,,,,,,,,,,,,,,,,,,,,,,,,
,,,,,,,,2023-08-16_08h33.06.601,HF_wild_card,2022.2.4,Win32,59.99160118,60607526ff89564c7dee871e,64d2fd46c836a06233681665,64dc7b87760b5ca29153d2fa,,,,,,,decisionTrl,resources/DP.BMP,resources/DR.BMP,Door2,0.320370427,-0.003703718,1,0,0,1.0504,optionRight,20,14180,7,2,0,2,0,1,,,,,,,,,,,,,,,,,,,,,,,,,,,,,,,,,,,,,,,
,,,,,,,,2023-08-16_08h33.06.601,HF_wild_card,2022.2.4,Win32,59.99160118,60607526ff89564c7dee871e,64d2fd46c836a06233681665,64dc7b87760b5ca29153d2fa,,,,,,,decisionTrl,resources/DB.BMP,resources/DY.BMP,Door4,0.300925926,0.006481489,1,0,0,1.1362,optionRight,60,14240,7,3,0,3,0,1,,,,,,,,,,,,,,,,,,,,,,,,,,,,,,,,,,,,,,,
,,,,,,,,2023-08-16_08h33.06.601,HF_wild_card,2022.2.4,Win32,59.99160118,60607526ff89564c7dee871e,64d2fd46c836a06233681665,64dc7b87760b5ca29153d2fa,,,,,,,decisionTrl,resources/DR.BMP,resources/DP.BMP,Door1,0.237963005,-0.01203703,1,0,0,1.2105,optionRight,30,14270,7,4,0,4,0,1,,,,,,,,,,,,,,,,,,,,,,,,,,,,,,,,,,,,,,,
,,,,,,,,2023-08-16_08h33.06.601,HF_wild_card,2022.2.4,Win32,59.99160118,60607526ff89564c7dee871e,64d2fd46c836a06233681665,64dc7b87760b5ca29153d2fa,,,,,,,decisionTrl,resources/DY.BMP,resources/DB.BMP,Door3,0.319444444,0.00462963,1,0,0,1.142400001,optionRight,70,14340,7,5,0,5,0,1,,,,,,,,,,,,,,,,,,,,,,,,,,,,,,,,,,,,,,,
,,,,,,,,2023-08-16_08h33.06.601,HF_wild_card,2022.2.4,Win32,59.99160118,60607526ff89564c7dee871e,64d2fd46c836a06233681665,64dc7b87760b5ca29153d2fa,,,,,,,decisionTrl,resources/DP.BMP,resources/DR.BMP,Door2,0.357407464,-0.081481474,1,0,0,1.1672,optionRight,40,14380,7,6,0,6,0,1,,,,,,,,,,,,,,,,,,,,,,,,,,,,,,,,,,,,,,,
,,,,,,,,2023-08-16_08h33.06.601,HF_wild_card,2022.2.4,Win32,59.99160118,60607526ff89564c7dee871e,64d2fd46c836a06233681665,64dc7b87760b5ca29153d2fa,,,,,,,decisionTrl,resources/DB.BMP,resources/DY.BMP,Door4,0.231481481,0.0074074,1,0,0,1.3312,optionRight,60,14440,7,7,0,7,0,1,,,,,,,,,,,,,,,,,,,,,,,,,,,,,,,,,,,,,,,
,,,,,,,,2023-08-16_08h33.06.601,HF_wild_card,2022.2.4,Win32,59.99160118,60607526ff89564c7dee871e,64d2fd46c836a06233681665,64dc7b87760b5ca29153d2fa,,,,,,,ctch,resources/DP.BMP,resources/DY.BMP,Door4,0.178703732,-0.025000007,1,0,0,1.294799999,optionRight,80,14520,7,8,0,8,0,1,,,,,,,,,,,,,,,,,,,,,,,,,,,,,,,,,,,,,,,
,,,,,,,,2023-08-16_08h33.06.601,HF_wild_card,2022.2.4,Win32,59.99160118,60607526ff89564c7dee871e,64d2fd46c836a06233681665,64dc7b87760b5ca29153d2fa,,,,,,,decisionTrl,resources/DY.BMP,resources/DB.BMP,Door3,0.228703746,-0.048148155,1,0,0,1.1903,optionRight,70,14590,7,9,0,9,0,1,,,,,,,,,,,,,,,,,,,,,,,,,,,,,,,,,,,,,,,
,,,,,,,,2023-08-16_08h33.06.601,HF_wild_card,2022.2.4,Win32,59.99160118,60607526ff89564c7dee871e,64d2fd46c836a06233681665,64dc7b87760b5ca29153d2fa,,,,,,,decisionTrl,resources/DY.BMP,resources/DB.BMP,Door3,0.310185185,-0.050000014,1,0,0,1.1184,optionRight,70,14660,7,10,0,10,0,1,,,,,,,,,,,,,,,,,,,,,,,,,,,,,,,,,,,,,,,
,,,,,,,,2023-08-16_08h33.06.601,HF_wild_card,2022.2.4,Win32,59.99160118,60607526ff89564c7dee871e,64d2fd46c836a06233681665,64dc7b87760b5ca29153d2fa,,,,,,,ctch,resources/DR.BMP,resources/DB.BMP,Door3,0.237963005,-0.014814836,1,0,0,1.215799999,optionRight,70,14730,7,11,0,11,0,1,,,,,,,,,,,,,,,,,,,,,,,,,,,,,,,,,,,,,,,
,,,,,,,,2023-08-16_08h33.06.601,HF_wild_card,2022.2.4,Win32,59.99160118,60607526ff89564c7dee871e,64d2fd46c836a06233681665,64dc7b87760b5ca29153d2fa,,,,,,,ctch,resources/DR.BMP,resources/DB.BMP,Door3,0.300000085,-0.08888891,1,0,0,1.0395,optionRight,70,14800,7,12,0,12,0,1,,,,,,,,,,,,,,,,,,,,,,,,,,,,,,,,,,,,,,,
,,,,,,,,2023-08-16_08h33.06.601,HF_wild_card,2022.2.4,Win32,59.99160118,60607526ff89564c7dee871e,64d2fd46c836a06233681665,64dc7b87760b5ca29153d2fa,,,,,,,decisionTrl,resources/DP.BMP,resources/DR.BMP,Door2,0.35555564,-0.056481503,1,0,0,2.0244,optionRight,40,14840,7,13,0,13,0,1,,,,,,,,,,,,,,,,,,,,,,,,,,,,,,,,,,,,,,,
,,,,,,,,2023-08-16_08h33.06.601,HF_wild_card,2022.2.4,Win32,59.99160118,60607526ff89564c7dee871e,64d2fd46c836a06233681665,64dc7b87760b5ca29153d2fa,,,,,,,ctch,resources/DP.BMP,resources/DY.BMP,Door4,0.448148233,-0.09629631,1,0,0,1.2981,optionRight,60,14900,7,14,0,14,0,1,,,,,,,,,,,,,,,,,,,,,,,,,,,,,,,,,,,,,,,
,,,,,,,,2023-08-16_08h33.06.601,HF_wild_card,2022.2.4,Win32,59.99160118,60607526ff89564c7dee871e,64d2fd46c836a06233681665,64dc7b87760b5ca29153d2fa,,,,,,,decisionTrl,resources/DR.BMP,resources/DP.BMP,Door1,0.275000042,-0.044444437,1,0,0,1.7631,optionRight,30,14930,7,15,0,15,0,1,,,,,,,,,,,,,,,,,,,,,,,,,,,,,,,,,,,,,,,
,,,,,,,,2023-08-16_08h33.06.601,HF_wild_card,2022.2.4,Win32,59.99160118,60607526ff89564c7dee871e,64d2fd46c836a06233681665,64dc7b87760b5ca29153d2fa,,,,,,,decisionTrl,resources/DB.BMP,resources/DY.BMP,Door4,0.32685188,0.021296289,1,0,0,1.2661,optionRight,60,14990,7,16,0,16,0,1,,,,,,,,,,,,,,,,,,,,,,,,,,,,,,,,,,,,,,,
,,,,,,,,2023-08-16_08h33.06.601,HF_wild_card,2022.2.4,Win32,59.99160118,60607526ff89564c7dee871e,64d2fd46c836a06233681665,64dc7b87760b5ca29153d2fa,,,,,,,decisionTrl,resources/DR.BMP,resources/DP.BMP,Door1,0.385185242,-0.019444466,1,0,0,1.8613,optionRight,30,15020,7,17,0,17,0,1,,,,,,,,,,,,,,,,,,,,,,,,,,,,,,,,,,,,,,,
,,,,,,,,2023-08-16_08h33.06.601,HF_wild_card,2022.2.4,Win32,59.99160118,60607526ff89564c7dee871e,64d2fd46c836a06233681665,64dc7b87760b5ca29153d2fa,,,,,,,decisionTrl,resources/DR.BMP,resources/DP.BMP,Door1,0.402777778,-0.0074074,1,0,0,0.920400001,optionRight,30,15050,7,18,0,18,0,1,,,,,,,,,,,,,,,,,,,,,,,,,,,,,,,,,,,,,,,
,,,,,,,,2023-08-16_08h33.06.601,HF_wild_card,2022.2.4,Win32,59.99160118,60607526ff89564c7dee871e,64d2fd46c836a06233681665,64dc7b87760b5ca29153d2fa,,,,,,,decisionTrl,resources/DY.BMP,resources/DB.BMP,Door3,0.123148176,-0.020370377,1,0,0,1.4351,optionRight,70,15120,7,19,0,19,0,1,,,,,,,,,,,,,,,,,,,,,,,,,,,,,,,,,,,,,,,
,,,,,,,,2023-08-16_08h33.06.601,HF_wild_card,2022.2.4,Win32,59.99160118,60607526ff89564c7dee871e,64d2fd46c836a06233681665,64dc7b87760b5ca29153d2fa,,,,,,,ctch,resources/DY.BMP,resources/DP.BMP,Door1,0.268518519,-0.042592614,1,0,0,1.673599999,optionRight,30,15150,7,20,0,20,0,1,,,,,,,,,,,,,,,,,,,,,,,,,,,,,,,,,,,,,,,
,,,,,,,,2023-08-16_08h33.06.601,HF_wild_card,2022.2.4,Win32,59.99160118,60607526ff89564c7dee871e,64d2fd46c836a06233681665,64dc7b87760b5ca29153d2fa,,,,,,,ctch,resources/DY.BMP,resources/DP.BMP,Door4,-0.250925912,-0.076851845,1,0,0,0.7586,optionLeft,60,15210,7,21,0,21,0,1,,,,,,,,,,,,,,,,,,,,,,,,,,,,,,,,,,,,,,,
,,,,,,,,2023-08-16_08h33.06.601,HF_wild_card,2022.2.4,Win32,59.99160118,60607526ff89564c7dee871e,64d2fd46c836a06233681665,64dc7b87760b5ca29153d2fa,,,,,,,ctch,resources/DP.BMP,resources/DY.BMP,Door4,0.209259245,-0.038888896,1,0,0,1.9548,optionRight,60,15270,7,22,0,22,0,1,,,,,,,,,,,,,,,,,,,,,,,,,,,,,,,,,,,,,,,
,,,,,,,,2023-08-16_08h33.06.601,HF_wild_card,2022.2.4,Win32,59.99160118,60607526ff89564c7dee871e,64d2fd46c836a06233681665,64dc7b87760b5ca29153d2fa,,,,,,,decisionTrl,resources/DY.BMP,resources/DB.BMP,Door3,0.234259288,-0.039814808,1,0,0,1.423799999,optionRight,70,15340,7,23,0,23,0,1,,,,,,,,,,,,,,,,,,,,,,,,,,,,,,,,,,,,,,,
,,,,,,,,2023-08-16_08h33.06.601,HF_wild_card,2022.2.4,Win32,59.99160118,60607526ff89564c7dee871e,64d2fd46c836a06233681665,64dc7b87760b5ca29153d2fa,,,,,,,decisionTrl,resources/DB.BMP,resources/DY.BMP,Door3,-0.256481453,-0.053703697,1,0,0,1.4451,optionLeft,70,15410,7,24,0,24,0,1,,,,,,,,,,,,,,,,,,,,,,,,,,,,,,,,,,,,,,,
,,,,,,,,2023-08-16_08h33.06.601,HF_wild_card,2022.2.4,Win32,59.99160118,60607526ff89564c7dee871e,64d2fd46c836a06233681665,64dc7b87760b5ca29153d2fa,,,,,,,decisionTrl,resources/DP.BMP,resources/DR.BMP,Door2,0.279629672,-0.024074095,1,0,0,1.5987,optionRight,40,15450,7,25,0,25,0,1,,,,,,,,,,,,,,,,,,,,,,,,,,,,,,,,,,,,,,,
,,,,,,,,2023-08-16_08h33.06.601,HF_wild_card,2022.2.4,Win32,59.99160118,60607526ff89564c7dee871e,64d2fd46c836a06233681665,64dc7b87760b5ca29153d2fa,,,,,,,decisionTrl,resources/DR.BMP,resources/DP.BMP,Door1,0.276851866,-0.066666674,1,0,0,1.747,optionRight,30,15480,7,26,0,26,0,1,,,,,,,,,,,,,,,,,,,,,,,,,,,,,,,,,,,,,,,
,,,,,,,,2023-08-16_08h33.06.601,HF_wild_card,2022.2.4,Win32,59.99160118,60607526ff89564c7dee871e,64d2fd46c836a06233681665,64dc7b87760b5ca29153d2fa,,,,,,,ctch,resources/DB.BMP,resources/DR.BMP,Door2,0.337037122,-0.033333355,1,0,0,0.9881,optionRight,20,15500,7,27,0,27,0,1,,,,,,,,,,,,,,,,,,,,,,,,,,,,,,,,,,,,,,,
,,,,,,,,2023-08-16_08h33.06.601,HF_wild_card,2022.2.4,Win32,59.99160118,60607526ff89564c7dee871e,64d2fd46c836a06233681665,64dc7b87760b5ca29153d2fa,,,,,,,decisionTrl,resources/DB.BMP,resources/DY.BMP,Door4,0.211111139,0.041666667,1,0,0,1.3757,optionRight,80,15580,7,28,0,28,0,1,,,,,,,,,,,,,,,,,,,,,,,,,,,,,,,,,,,,,,,
,,,,,,,,2023-08-16_08h33.06.601,HF_wild_card,2022.2.4,Win32,59.99160118,60607526ff89564c7dee871e,64d2fd46c836a06233681665,64dc7b87760b5ca29153d2fa,,,,,,,decisionTrl,resources/DR.BMP,resources/DP.BMP,Door1,0.27870369,-0.063888903,1,0,0,1.675299999,optionRight,30,15610,7,29,0,29,0,1,,,,,,,,,,,,,,,,,,,,,,,,,,,,,,,,,,,,,,,
,,,,,,,,2023-08-16_08h33.06.601,HF_wild_card,2022.2.4,Win32,59.99160118,60607526ff89564c7dee871e,64d2fd46c836a06233681665,64dc7b87760b5ca29153d2fa,,,,,,,decisionTrl,resources/DY.BMP,resources/DB.BMP,Door3,0.266666695,-0.01203703,1,0,0,1.864,optionRight,70,15680,7,30,0,30,0,1,,,,,,,,,,,,,,,,,,,,,,,,,,,,,,,,,,,,,,,
,,,,,,,,2023-08-16_08h33.06.601,HF_wild_card,2022.2.4,Win32,59.99160118,60607526ff89564c7dee871e,64d2fd46c836a06233681665,64dc7b87760b5ca29153d2fa,,,,,,,decisionTrl,resources/DB.BMP,resources/DY.BMP,Door4,0.125,-0.12037037,1,0,0,2.657400001,optionRight,80,15760,7,31,0,31,0,1,,,,,,,,,,,,,,,,,,,,,,,,,,,,,,,,,,,,,,,
,,,,,,,,2023-08-16_08h33.06.601,HF_wild_card,2022.2.4,Win32,59.99160118,60607526ff89564c7dee871e,64d2fd46c836a06233681665,64dc7b87760b5ca29153d2fa,,,,,,,ctch,resources/DB.BMP,resources/DR.BMP,Door3,-0.357407393,-0.040740755,1,0,0,1.6478,optionLeft,70,15830,7,32,0,32,0,1,,,,,,,,,,,,,,,,,,,,,,,,,,,,,,,,,,,,,,,
,,,,,,,,2023-08-16_08h33.06.601,HF_wild_card,2022.2.4,Win32,59.99160118,60607526ff89564c7dee871e,64d2fd46c836a06233681665,64dc7b87760b5ca29153d2fa,,,,,,,ctch,resources/DB.BMP,resources/DR.BMP,Door3,-0.262962977,-0.062037044,1,0,0,0.8675,optionLeft,70,15900,7,33,0,33,0,1,,,,,,,,,,,,,,,,,,,,,,,,,,,,,,,,,,,,,,,
,,,,,,,,2023-08-16_08h33.06.601,HF_wild_card,2022.2.4,Win32,59.99160118,60607526ff89564c7dee871e,64d2fd46c836a06233681665,64dc7b87760b5ca29153d2fa,,,,,,,decisionTrl,resources/DP.BMP,resources/DR.BMP,Door2,0.383333418,-0.086111104,1,0,0,1.8886,optionRight,40,15940,7,34,0,34,0,1,,,,,,,,,,,,,,,,,,,,,,,,,,,,,,,,,,,,,,,
,,,,,,,,2023-08-16_08h33.06.601,HF_wild_card,2022.2.4,Win32,59.99160118,60607526ff89564c7dee871e,64d2fd46c836a06233681665,64dc7b87760b5ca29153d2fa,,,,,,,ctch,resources/DR.BMP,resources/DB.BMP,Door3,0.148148148,-0.034259266,1,0,0,1.3757,optionRight,70,16010,7,35,0,35,0,1,,,,,,,,,,,,,,,,,,,,,,,,,,,,,,,,,,,,,,,
,,,,,,,,2023-08-16_08h33.06.601,HF_wild_card,2022.2.4,Win32,59.99160118,60607526ff89564c7dee871e,64d2fd46c836a06233681665,64dc7b87760b5ca29153d2fa,,,,,,,,,,,,,,,,,,,,,,,,,,6,0,6,0,1,,,,,,,,,,,,,,,,,,,,,,,,,,,,,,,,,,
,,,,,,,,2023-08-16_08h33.06.601,HF_wild_card,2022.2.4,Win32,59.99160118,60607526ff89564c7dee871e,64d2fd46c836a06233681665,64dc7b87760b5ca29153d2fa,,,,,,,,,,,,,,,,,,,,,,,,,,,,,,,4,,,,,,,,,,,,,,,,,,,,,,,,,,,,,,,,,
,,,,,,,,2023-08-16_08h33.06.601,HF_wild_card,2022.2.4,Win32,59.99160118,60607526ff89564c7dee871e,64d2fd46c836a06233681665,64dc7b87760b5ca29153d2fa,,,,,,,,,,,,,,,,,,,,,,,,,,,,,,,,,,,,,,,,,,,,,,,,,,,,,,,,,,,,,,,,
,,,,,,,,2023-08-16_08h33.06.601,HF_wild_card,2022.2.4,Win32,59.99160118,60607526ff89564c7dee871e,64d2fd46c836a06233681665,64dc7b87760b5ca29153d2fa,,,,,,,,,,,,,,,,,,,,,,,,,,,,,,,,20,Door2,resources/DR.BMP,0,0,0,0,1,,,,,,,,,,,,,,,,,,,,,,,,,
,,,,,,,,2023-08-16_08h33.06.601,HF_wild_card,2022.2.4,Win32,59.99160118,60607526ff89564c7dee871e,64d2fd46c836a06233681665,64dc7b87760b5ca29153d2fa,,,,,,,,,,,,,,,,,,,,,,,,,,,,,,,,80,Door4,resources/DY.BMP,1,0,1,0,1,,,,,,,,,,,,,,,,,,,,,,,,,
,,,,,,,,2023-08-16_08h33.06.601,HF_wild_card,2022.2.4,Win32,59.99160118,60607526ff89564c7dee871e,64d2fd46c836a06233681665,64dc7b87760b5ca29153d2fa,,,,,,,,,,,,,,,,,,,,,,,,,,,,,,,,70,Door3,resources/DB.BMP,2,0,2,0,1,,,,,,,,,,,,,,,,,,,,,,,,,
,,,,,,,,2023-08-16_08h33.06.601,HF_wild_card,2022.2.4,Win32,59.99160118,60607526ff89564c7dee871e,64d2fd46c836a06233681665,64dc7b87760b5ca29153d2fa,,,,,,,,,,,,,,,,,,,,,,,,,,,,,,,,55,WC_nonExtreme,resources/DG.BMP,3,0,3,0,1,,,,,,,,,,,,,,,,,,,,,,,,,
,,,,,,,,2023-08-16_08h33.06.601,HF_wild_card,2022.2.4,Win32,59.99160118,60607526ff89564c7dee871e,64d2fd46c836a06233681665,64dc7b87760b5ca29153d2fa,,,,,,,,,,,,,,,,,,,,,,,,,,,,,,,,95,WC_extreme,resources/DBN.BMP,4,0,4,0,1,,,,,,,,,,,,,,,,,,,,,,,,,
,,,,,,,,2023-08-16_08h33.06.601,HF_wild_card,2022.2.4,Win32,59.99160118,60607526ff89564c7dee871e,64d2fd46c836a06233681665,64dc7b87760b5ca29153d2fa,,,,,,,,,,,,,,,,,,,,,,,,,,,,,,,,30,Door1,resources/DP.BMP,5,0,5,0,1,,,,,,,,,,,,,,,,,,,,,,,,,
