Condition,Low fixed image (Door1),Low risky image (Door2),High fixed image (Door3),High risky image (Door4),Extreme Wild Card,NonExtreme Wild Card,,date,expName,psychopyVersion,OS,frameRate,PROLIFIC_PID,STUDY_ID,SESSION_ID,mouse_2.x,mouse_2.y,mouse_2.leftButton,mouse_2.midButton,mouse_2.rightButton,mouse_2.clicked_name,Trial Type,Left Option Image,Right Option Image,Chosen Door,mouse.x,mouse.y,mouse.leftButton,mouse.midButton,mouse.rightButton,mouse.time,mouse.clicked_name,Feedback,Cumulative Reward,Block,trial.thisRepN,trial.thisTrialN,trial.thisN,trial.thisIndex,trial.ran,blocks.thisRepN,blocks.thisTrialN,blocks.thisN,blocks.thisIndex,blocks.ran,Money conversion,First Outcome Reported,Shown Door (First Outcome),Displayed Image (First Outcome),outcomes.thisRepN,outcomes.thisTrialN,outcomes.thisN,outcomes.thisIndex,outcomes.ran,judgments.thisRepN,judgments.thisTrialN,judgments.thisN,judgments.thisIndex,judgments.ran,freqMouse.x,freqMouse.y,freqMouse.leftButton,freqMouse.midButton,freqMouse.rightButton,freqMouse.clicked_name,FQJ for first outcome,FQJ for second outcome,Shown Door,Displayed Image,trials.thisRepN,trials.thisTrialN,trials.thisN,trials.thisIndex,trials.ran,judgBlock.thisRepN,judgBlock.thisTrialN,judgBlock.thisN,judgBlock.thisIndex,judgBlock.ran
1,resources/DP.BMP,resources/DR.BMP,resources/DB.BMP,resources/DY.BMP,resources/DBN.BMP,resources/DG.BMP,,2023-08-16_08h38.50.218,HF_wild_card,2022.2.4,Win32,59.90176111,5c2f6d25e38ccd0001caab19,64d2fd46c836a06233681665,64dc7cf4cd581e52bf779d98,,,,,,,,,,,,,,,,,,,,,,,,,,,,,,,,,,,,,,,,,,,,,,,,,,,,,,,,,,,,,,,,
,,,,,,,,2023-08-16_08h38.50.218,HF_wild_card,2022.2.4,Win32,59.90176111,5c2f6d25e38ccd0001caab19,64d2fd46c836a06233681665,64dc7cf4cd581e52bf779d98,-0.022135417,-0.421875,1,0,0,agree,,,,,,,,,,,,,,,,,,,,,,,,,,,,,,,,,,,,,,,,,,,,,,,,,,,,,,,,,,
,,,,,,,,2023-08-16_08h38.50.218,HF_wild_card,2022.2.4,Win32,59.90176111,5c2f6d25e38ccd0001caab19,64d2fd46c836a06233681665,64dc7cf4cd581e52bf779d98,,,,,,,,,,,,,,,,,,,,,,,,,,,,,,,,,,,,,,,,,,,,,,,,,,,,,,,,,,,,,,,,
,,,,,,,,2023-08-16_08h38.50.218,HF_wild_card,2022.2.4,Win32,59.90176111,5c2f6d25e38ccd0001caab19,64d2fd46c836a06233681665,64dc7cf4cd581e52bf779d98,,,,,,,ctch,resources/DR.BMP,resources/DB.BMP,Door3,0.358072917,-0.153645833,1,0,0,6.9048,optionRight,70,70,1,0,0,0,0,1,,,,,,,,,,,,,,,,,,,,,,,,,,,,,,,,,,,,,,,
,,,,,,,,2023-08-16_08h38.50.218,HF_wild_card,2022.2.4,Win32,59.90176111,5c2f6d25e38ccd0001caab19,64d2fd46c836a06233681665,64dc7cf4cd581e52bf779d98,,,,,,,sngl,resources/Empty.png,resources/DB.BMP,Door3,0.388020833,-0.125,1,0,0,5.3507,optionRight,70,140,1,1,0,1,0,1,,,,,,,,,,,,,,,,,,,,,,,,,,,,,,,,,,,,,,,
,,,,,,,,2023-08-16_08h38.50.218,HF_wild_card,2022.2.4,Win32,59.90176111,5c2f6d25e38ccd0001caab19,64d2fd46c836a06233681665,64dc7cf4cd581e52bf779d98,,,,,,,sngl,resources/Empty.png,resources/DY.BMP,Door4,0.41796875,-0.069010417,1,0,0,3.6532,optionRight,60,200,1,2,0,2,0,1,,,,,,,,,,,,,,,,,,,,,,,,,,,,,,,,,,,,,,,
,,,,,,,,2023-08-16_08h38.50.218,HF_wild_card,2022.2.4,Win32,59.90176111,5c2f6d25e38ccd0001caab19,64d2fd46c836a06233681665,64dc7cf4cd581e52bf779d98,,,,,,,ctch,resources/DY.BMP,resources/DP.BMP,Door4,-0.395833333,-0.03125,1,0,0,8.2043,optionLeft,80,280,1,3,0,3,0,1,,,,,,,,,,,,,,,,,,,,,,,,,,,,,,,,,,,,,,,
,,,,,,,,2023-08-16_08h38.50.218,HF_wild_card,2022.2.4,Win32,59.90176111,5c2f6d25e38ccd0001caab19,64d2fd46c836a06233681665,64dc7cf4cd581e52bf779d98,,,,,,,sngl,resources/DG.BMP,resources/Empty.png,WildCard_NonEx,-0.375,0.002604167,1,0,0,2.4751,optionLeft,55,335,1,4,0,4,0,1,,,,,,,,,,,,,,,,,,,,,,,,,,,,,,,,,,,,,,,
,,,,,,,,2023-08-16_08h38.50.218,HF_wild_card,2022.2.4,Win32,59.90176111,5c2f6d25e38ccd0001caab19,64d2fd46c836a06233681665,64dc7cf4cd581e52bf779d98,,,,,,,decisionTrl,resources/DP.BMP,resources/DR.BMP,Door1,-0.360677083,-0.06640625,1,0,0,2.4279,optionLeft,30,365,1,5,0,5,0,1,,,,,,,,,,,,,,,,,,,,,,,,,,,,,,,,,,,,,,,
,,,,,,,,2023-08-16_08h38.50.218,HF_wild_card,2022.2.4,Win32,59.90176111,5c2f6d25e38ccd0001caab19,64d2fd46c836a06233681665,64dc7cf4cd581e52bf779d98,,,,,,,ctch,resources/DB.BMP,resources/DR.BMP,Door3,-0.416666667,-0.048177083,1,0,0,2.2534,optionLeft,70,435,1,6,0,6,0,1,,,,,,,,,,,,,,,,,,,,,,,,,,,,,,,,,,,,,,,
,,,,,,,,2023-08-16_08h38.50.218,HF_wild_card,2022.2.4,Win32,59.90176111,5c2f6d25e38ccd0001caab19,64d2fd46c836a06233681665,64dc7cf4cd581e52bf779d98,,,,,,,decisionTrl,resources/DR.BMP,resources/DG.BMP,Door2,-0.390625,-0.002604167,1,0,0,1.7248,optionLeft,40,475,1,7,0,7,0,1,,,,,,,,,,,,,,,,,,,,,,,,,,,,,,,,,,,,,,,
,,,,,,,,2023-08-16_08h38.50.218,HF_wild_card,2022.2.4,Win32,59.90176111,5c2f6d25e38ccd0001caab19,64d2fd46c836a06233681665,64dc7cf4cd581e52bf779d98,,,,,,,decisionTrl,resources/DG.BMP,resources/DR.BMP,Door2,0.393229167,-0.072916667,1,0,0,1.5587,optionRight,40,515,1,8,0,8,0,1,,,,,,,,,,,,,,,,,,,,,,,,,,,,,,,,,,,,,,,
,,,,,,,,2023-08-16_08h38.50.218,HF_wild_card,2022.2.4,Win32,59.90176111,5c2f6d25e38ccd0001caab19,64d2fd46c836a06233681665,64dc7cf4cd581e52bf779d98,,,,,,,decisionTrl,resources/DR.BMP,resources/DP.BMP,Door1,0.385416667,-0.03515625,1,0,0,1.7071,optionRight,30,545,1,9,0,9,0,1,,,,,,,,,,,,,,,,,,,,,,,,,,,,,,,,,,,,,,,
,,,,,,,,2023-08-16_08h38.50.218,HF_wild_card,2022.2.4,Win32,59.90176111,5c2f6d25e38ccd0001caab19,64d2fd46c836a06233681665,64dc7cf4cd581e52bf779d98,,,,,,,sngl,resources/Empty.png,resources/DG.BMP,WildCard_NonEx,0.393229167,-0.065104167,1,0,0,1.4914,optionRight,45,590,1,10,0,10,0,1,,,,,,,,,,,,,,,,,,,,,,,,,,,,,,,,,,,,,,,
,,,,,,,,2023-08-16_08h38.50.218,HF_wild_card,2022.2.4,Win32,59.90176111,5c2f6d25e38ccd0001caab19,64d2fd46c836a06233681665,64dc7cf4cd581e52bf779d98,,,,,,,decisionTrl,resources/DG.BMP,resources/DP.BMP,Door1,0.37109375,-0.078125,1,0,0,1.4922,optionRight,30,620,1,11,0,11,0,1,,,,,,,,,,,,,,,,,,,,,,,,,,,,,,,,,,,,,,,
,,,,,,,,2023-08-16_08h38.50.218,HF_wild_card,2022.2.4,Win32,59.90176111,5c2f6d25e38ccd0001caab19,64d2fd46c836a06233681665,64dc7cf4cd581e52bf779d98,,,,,,,ctch,resources/DY.BMP,resources/DP.BMP,Door4,-0.391927083,-0.026041667,1,0,0,1.6095,optionLeft,80,700,1,12,0,12,0,1,,,,,,,,,,,,,,,,,,,,,,,,,,,,,,,,,,,,,,,
,,,,,,,,2023-08-16_08h38.50.218,HF_wild_card,2022.2.4,Win32,59.90176111,5c2f6d25e38ccd0001caab19,64d2fd46c836a06233681665,64dc7cf4cd581e52bf779d98,,,,,,,decisionTrl,resources/DG.BMP,resources/DB.BMP,Door3,0.40625,-0.048177083,1,0,0,1.5322,optionRight,70,770,1,13,0,13,0,1,,,,,,,,,,,,,,,,,,,,,,,,,,,,,,,,,,,,,,,
,,,,,,,,2023-08-16_08h38.50.218,HF_wild_card,2022.2.4,Win32,59.90176111,5c2f6d25e38ccd0001caab19,64d2fd46c836a06233681665,64dc7cf4cd581e52bf779d98,,,,,,,decisionTrl,resources/DG.BMP,resources/DY.BMP,Door4,0.350260417,-0.03125,1,0,0,1.3269,optionRight,60,830,1,14,0,14,0,1,,,,,,,,,,,,,,,,,,,,,,,,,,,,,,,,,,,,,,,
,,,,,,,,2023-08-16_08h38.50.218,HF_wild_card,2022.2.4,Win32,59.90176111,5c2f6d25e38ccd0001caab19,64d2fd46c836a06233681665,64dc7cf4cd581e52bf779d98,,,,,,,sngl,resources/DR.BMP,resources/Empty.png,Door2,-0.444010417,-0.0234375,1,0,0,1.1811,optionLeft,40,870,1,15,0,15,0,1,,,,,,,,,,,,,,,,,,,,,,,,,,,,,,,,,,,,,,,
,,,,,,,,2023-08-16_08h38.50.218,HF_wild_card,2022.2.4,Win32,59.90176111,5c2f6d25e38ccd0001caab19,64d2fd46c836a06233681665,64dc7cf4cd581e52bf779d98,,,,,,,decisionTrl,resources/DR.BMP,resources/DP.BMP,Door1,0.37109375,-0.045572917,1,0,0,1.2137,optionRight,30,900,1,16,0,16,0,1,,,,,,,,,,,,,,,,,,,,,,,,,,,,,,,,,,,,,,,
,,,,,,,,2023-08-16_08h38.50.218,HF_wild_card,2022.2.4,Win32,59.90176111,5c2f6d25e38ccd0001caab19,64d2fd46c836a06233681665,64dc7cf4cd581e52bf779d98,,,,,,,sngl,resources/DB.BMP,resources/Empty.png,Door3,-0.354166667,-0.001302083,1,0,0,1.0663,optionLeft,70,970,1,17,0,17,0,1,,,,,,,,,,,,,,,,,,,,,,,,,,,,,,,,,,,,,,,
,,,,,,,,2023-08-16_08h38.50.218,HF_wild_card,2022.2.4,Win32,59.90176111,5c2f6d25e38ccd0001caab19,64d2fd46c836a06233681665,64dc7cf4cd581e52bf779d98,,,,,,,sngl,resources/Empty.png,resources/DR.BMP,Door2,0.341145833,-0.044270833,1,0,0,0.9425,optionRight,20,990,1,18,0,18,0,1,,,,,,,,,,,,,,,,,,,,,,,,,,,,,,,,,,,,,,,
,,,,,,,,2023-08-16_08h38.50.218,HF_wild_card,2022.2.4,Win32,59.90176111,5c2f6d25e38ccd0001caab19,64d2fd46c836a06233681665,64dc7cf4cd581e52bf779d98,,,,,,,decisionTrl,resources/DB.BMP,resources/DG.BMP,Door3,-0.38671875,-0.032552083,1,0,0,1.1775,optionLeft,70,1060,1,19,0,19,0,1,,,,,,,,,,,,,,,,,,,,,,,,,,,,,,,,,,,,,,,
,,,,,,,,2023-08-16_08h38.50.218,HF_wild_card,2022.2.4,Win32,59.90176111,5c2f6d25e38ccd0001caab19,64d2fd46c836a06233681665,64dc7cf4cd581e52bf779d98,,,,,,,decisionTrl,resources/DB.BMP,resources/DY.BMP,Door4,0.358072917,-0.0390625,1,0,0,1.0889,optionRight,80,1140,1,20,0,20,0,1,,,,,,,,,,,,,,,,,,,,,,,,,,,,,,,,,,,,,,,
,,,,,,,,2023-08-16_08h38.50.218,HF_wild_card,2022.2.4,Win32,59.90176111,5c2f6d25e38ccd0001caab19,64d2fd46c836a06233681665,64dc7cf4cd581e52bf779d98,,,,,,,sngl,resources/DP.BMP,resources/Empty.png,Door1,-0.368489583,-0.03125,1,0,0,0.9766,optionLeft,30,1170,1,21,0,21,0,1,,,,,,,,,,,,,,,,,,,,,,,,,,,,,,,,,,,,,,,
,,,,,,,,2023-08-16_08h38.50.218,HF_wild_card,2022.2.4,Win32,59.90176111,5c2f6d25e38ccd0001caab19,64d2fd46c836a06233681665,64dc7cf4cd581e52bf779d98,,,,,,,sngl,resources/Empty.png,resources/DG.BMP,WildCard_NonEx,0.38671875,-0.083333333,1,0,0,1.0695,optionRight,55,1225,1,22,0,22,0,1,,,,,,,,,,,,,,,,,,,,,,,,,,,,,,,,,,,,,,,
,,,,,,,,2023-08-16_08h38.50.218,HF_wild_card,2022.2.4,Win32,59.90176111,5c2f6d25e38ccd0001caab19,64d2fd46c836a06233681665,64dc7cf4cd581e52bf779d98,,,,,,,ctch,resources/DR.BMP,resources/DB.BMP,Door3,0.368489583,-0.032552083,1,0,0,1.3757,optionRight,70,1295,1,23,0,23,0,1,,,,,,,,,,,,,,,,,,,,,,,,,,,,,,,,,,,,,,,
,,,,,,,,2023-08-16_08h38.50.218,HF_wild_card,2022.2.4,Win32,59.90176111,5c2f6d25e38ccd0001caab19,64d2fd46c836a06233681665,64dc7cf4cd581e52bf779d98,,,,,,,decisionTrl,resources/DY.BMP,resources/DB.BMP,Door4,-0.434895833,-0.05078125,1,0,0,1.858,optionLeft,80,1375,1,24,0,24,0,1,,,,,,,,,,,,,,,,,,,,,,,,,,,,,,,,,,,,,,,
,,,,,,,,2023-08-16_08h38.50.218,HF_wild_card,2022.2.4,Win32,59.90176111,5c2f6d25e38ccd0001caab19,64d2fd46c836a06233681665,64dc7cf4cd581e52bf779d98,,,,,,,decisionTrl,resources/DY.BMP,resources/DB.BMP,Door4,-0.36328125,-0.002604167,1,0,0,1.034,optionLeft,60,1435,1,25,0,25,0,1,,,,,,,,,,,,,,,,,,,,,,,,,,,,,,,,,,,,,,,
,,,,,,,,2023-08-16_08h38.50.218,HF_wild_card,2022.2.4,Win32,59.90176111,5c2f6d25e38ccd0001caab19,64d2fd46c836a06233681665,64dc7cf4cd581e52bf779d98,,,,,,,decisionTrl,resources/DP.BMP,resources/DG.BMP,Door1,-0.403645833,-0.061197917,1,0,0,1.3431,optionLeft,30,1465,1,26,0,26,0,1,,,,,,,,,,,,,,,,,,,,,,,,,,,,,,,,,,,,,,,
,,,,,,,,2023-08-16_08h38.50.218,HF_wild_card,2022.2.4,Win32,59.90176111,5c2f6d25e38ccd0001caab19,64d2fd46c836a06233681665,64dc7cf4cd581e52bf779d98,,,,,,,decisionTrl,resources/DY.BMP,resources/DB.BMP,Door4,-0.411458333,-0.022135417,1,0,0,1.175,optionLeft,60,1525,1,27,0,27,0,1,,,,,,,,,,,,,,,,,,,,,,,,,,,,,,,,,,,,,,,
,,,,,,,,2023-08-16_08h38.50.218,HF_wild_card,2022.2.4,Win32,59.90176111,5c2f6d25e38ccd0001caab19,64d2fd46c836a06233681665,64dc7cf4cd581e52bf779d98,,,,,,,decisionTrl,resources/DY.BMP,resources/DB.BMP,Door4,-0.34375,-0.033854167,1,0,0,1.059,optionLeft,60,1585,1,28,0,28,0,1,,,,,,,,,,,,,,,,,,,,,,,,,,,,,,,,,,,,,,,
,,,,,,,,2023-08-16_08h38.50.218,HF_wild_card,2022.2.4,Win32,59.90176111,5c2f6d25e38ccd0001caab19,64d2fd46c836a06233681665,64dc7cf4cd581e52bf779d98,,,,,,,decisionTrl,resources/DB.BMP,resources/DY.BMP,Door4,0.442708333,-0.057291667,1,0,0,1.1453,optionRight,80,1665,1,29,0,29,0,1,,,,,,,,,,,,,,,,,,,,,,,,,,,,,,,,,,,,,,,
,,,,,,,,2023-08-16_08h38.50.218,HF_wild_card,2022.2.4,Win32,59.90176111,5c2f6d25e38ccd0001caab19,64d2fd46c836a06233681665,64dc7cf4cd581e52bf779d98,,,,,,,decisionTrl,resources/DR.BMP,resources/DP.BMP,Door1,0.36328125,-0.033854167,1,0,0,1.2406,optionRight,30,1695,1,30,0,30,0,1,,,,,,,,,,,,,,,,,,,,,,,,,,,,,,,,,,,,,,,
,,,,,,,,2023-08-16_08h38.50.218,HF_wild_card,2022.2.4,Win32,59.90176111,5c2f6d25e38ccd0001caab19,64d2fd46c836a06233681665,64dc7cf4cd581e52bf779d98,,,,,,,decisionTrl,resources/DR.BMP,resources/DP.BMP,Door1,0.341145833,-0.05078125,1,0,0,1.1268,optionRight,30,1725,1,31,0,31,0,1,,,,,,,,,,,,,,,,,,,,,,,,,,,,,,,,,,,,,,,
,,,,,,,,2023-08-16_08h38.50.218,HF_wild_card,2022.2.4,Win32,59.90176111,5c2f6d25e38ccd0001caab19,64d2fd46c836a06233681665,64dc7cf4cd581e52bf779d98,,,,,,,ctch,resources/DP.BMP,resources/DY.BMP,Door4,0.325520833,-0.0546875,1,0,0,1.3227,optionRight,80,1805,1,32,0,32,0,1,,,,,,,,,,,,,,,,,,,,,,,,,,,,,,,,,,,,,,,
,,,,,,,,2023-08-16_08h38.50.218,HF_wild_card,2022.2.4,Win32,59.90176111,5c2f6d25e38ccd0001caab19,64d2fd46c836a06233681665,64dc7cf4cd581e52bf779d98,,,,,,,sngl,resources/DG.BMP,resources/Empty.png,WildCard_NonEx,-0.322916667,-0.024739583,1,0,0,0.9837,optionLeft,45,1850,1,33,0,33,0,1,,,,,,,,,,,,,,,,,,,,,,,,,,,,,,,,,,,,,,,
,,,,,,,,2023-08-16_08h38.50.218,HF_wild_card,2022.2.4,Win32,59.90176111,5c2f6d25e38ccd0001caab19,64d2fd46c836a06233681665,64dc7cf4cd581e52bf779d98,,,,,,,decisionTrl,resources/DB.BMP,resources/DY.BMP,Door4,0.397135417,-0.04296875,1,0,0,1.1066,optionRight,60,1910,1,34,0,34,0,1,,,,,,,,,,,,,,,,,,,,,,,,,,,,,,,,,,,,,,,
,,,,,,,,2023-08-16_08h38.50.218,HF_wild_card,2022.2.4,Win32,59.90176111,5c2f6d25e38ccd0001caab19,64d2fd46c836a06233681665,64dc7cf4cd581e52bf779d98,,,,,,,sngl,resources/DY.BMP,resources/Empty.png,Door4,-0.337239583,-0.03515625,1,0,0,0.9102,optionLeft,80,1990,1,35,0,35,0,1,,,,,,,,,,,,,,,,,,,,,,,,,,,,,,,,,,,,,,,
,,,,,,,,2023-08-16_08h38.50.218,HF_wild_card,2022.2.4,Win32,59.90176111,5c2f6d25e38ccd0001caab19,64d2fd46c836a06233681665,64dc7cf4cd581e52bf779d98,,,,,,,decisionTrl,resources/DP.BMP,resources/DR.BMP,Door1,-0.294270833,-0.049479167,1,0,0,1.3988,optionLeft,30,2020,1,36,0,36,0,1,,,,,,,,,,,,,,,,,,,,,,,,,,,,,,,,,,,,,,,
,,,,,,,,2023-08-16_08h38.50.218,HF_wild_card,2022.2.4,Win32,59.90176111,5c2f6d25e38ccd0001caab19,64d2fd46c836a06233681665,64dc7cf4cd581e52bf779d98,,,,,,,decisionTrl,resources/DB.BMP,resources/DY.BMP,Door4,0.36328125,-0.063802083,1,0,0,1.0013,optionRight,60,2080,1,37,0,37,0,1,,,,,,,,,,,,,,,,,,,,,,,,,,,,,,,,,,,,,,,
,,,,,,,,2023-08-16_08h38.50.218,HF_wild_card,2022.2.4,Win32,59.90176111,5c2f6d25e38ccd0001caab19,64d2fd46c836a06233681665,64dc7cf4cd581e52bf779d98,,,,,,,ctch,resources/DB.BMP,resources/DR.BMP,Door3,-0.39453125,-0.048177083,1,0,0,1.5437,optionLeft,70,2150,1,38,0,38,0,1,,,,,,,,,,,,,,,,,,,,,,,,,,,,,,,,,,,,,,,
,,,,,,,,2023-08-16_08h38.50.218,HF_wild_card,2022.2.4,Win32,59.90176111,5c2f6d25e38ccd0001caab19,64d2fd46c836a06233681665,64dc7cf4cd581e52bf779d98,,,,,,,sngl,resources/Empty.png,resources/DP.BMP,Door1,0.328125,-0.036458333,1,0,0,0.9981,optionRight,30,2180,1,39,0,39,0,1,,,,,,,,,,,,,,,,,,,,,,,,,,,,,,,,,,,,,,,
,,,,,,,,2023-08-16_08h38.50.218,HF_wild_card,2022.2.4,Win32,59.90176111,5c2f6d25e38ccd0001caab19,64d2fd46c836a06233681665,64dc7cf4cd581e52bf779d98,,,,,,,decisionTrl,resources/DY.BMP,resources/DG.BMP,Door4,-0.352864583,-0.015625,1,0,0,1.1809,optionLeft,60,2240,1,40,0,40,0,1,,,,,,,,,,,,,,,,,,,,,,,,,,,,,,,,,,,,,,,
,,,,,,,,2023-08-16_08h38.50.218,HF_wild_card,2022.2.4,Win32,59.90176111,5c2f6d25e38ccd0001caab19,64d2fd46c836a06233681665,64dc7cf4cd581e52bf779d98,,,,,,,decisionTrl,resources/DP.BMP,resources/DR.BMP,Door1,-0.39453125,-0.076822917,1,0,0,1.0932,optionLeft,30,2270,1,41,0,41,0,1,,,,,,,,,,,,,,,,,,,,,,,,,,,,,,,,,,,,,,,
,,,,,,,,2023-08-16_08h38.50.218,HF_wild_card,2022.2.4,Win32,59.90176111,5c2f6d25e38ccd0001caab19,64d2fd46c836a06233681665,64dc7cf4cd581e52bf779d98,,,,,,,ctch,resources/DP.BMP,resources/DY.BMP,Door1,-0.359375,-0.059895833,1,0,0,1.3597,optionLeft,30,2300,1,42,0,42,0,1,,,,,,,,,,,,,,,,,,,,,,,,,,,,,,,,,,,,,,,
,,,,,,,,2023-08-16_08h38.50.218,HF_wild_card,2022.2.4,Win32,59.90176111,5c2f6d25e38ccd0001caab19,64d2fd46c836a06233681665,64dc7cf4cd581e52bf779d98,,,,,,,decisionTrl,resources/DP.BMP,resources/DR.BMP,Door1,-0.315104167,-0.041666667,1,0,0,1.0577,optionLeft,30,2330,1,43,0,43,0,1,,,,,,,,,,,,,,,,,,,,,,,,,,,,,,,,,,,,,,,
,,,,,,,,2023-08-16_08h38.50.218,HF_wild_card,2022.2.4,Win32,59.90176111,5c2f6d25e38ccd0001caab19,64d2fd46c836a06233681665,64dc7cf4cd581e52bf779d98,,,,,,,,,,,,,,,,,,,,,,,,,,0,0,0,0,1,,,,,,,,,,,,,,,,,,,,,,,,,,,,,,,,,,
,,,,,,,,2023-08-16_08h38.50.218,HF_wild_card,2022.2.4,Win32,59.90176111,5c2f6d25e38ccd0001caab19,64d2fd46c836a06233681665,64dc7cf4cd581e52bf779d98,,,,,,,decisionTrl,resources/DY.BMP,resources/DB.BMP,Door4,-0.393229167,-0.036458333,1,0,0,3.949,optionLeft,80,2410,2,0,0,0,0,1,,,,,,,,,,,,,,,,,,,,,,,,,,,,,,,,,,,,,,,
,,,,,,,,2023-08-16_08h38.50.218,HF_wild_card,2022.2.4,Win32,59.90176111,5c2f6d25e38ccd0001caab19,64d2fd46c836a06233681665,64dc7cf4cd581e52bf779d98,,,,,,,sngl,resources/Empty.png,resources/DG.BMP,WildCard_NonEx,0.334635417,-0.049479167,1,0,0,1.5258,optionRight,45,2455,2,1,0,1,0,1,,,,,,,,,,,,,,,,,,,,,,,,,,,,,,,,,,,,,,,
,,,,,,,,2023-08-16_08h38.50.218,HF_wild_card,2022.2.4,Win32,59.90176111,5c2f6d25e38ccd0001caab19,64d2fd46c836a06233681665,64dc7cf4cd581e52bf779d98,,,,,,,sngl,resources/DG.BMP,resources/Empty.png,WildCard_NonEx,-0.401041667,-0.010416667,1,0,0,1.0849,optionLeft,45,2500,2,2,0,2,0,1,,,,,,,,,,,,,,,,,,,,,,,,,,,,,,,,,,,,,,,
,,,,,,,,2023-08-16_08h38.50.218,HF_wild_card,2022.2.4,Win32,59.90176111,5c2f6d25e38ccd0001caab19,64d2fd46c836a06233681665,64dc7cf4cd581e52bf779d98,,,,,,,decisionTrl,resources/DB.BMP,resources/DY.BMP,Door4,0.385416667,-0.006510417,1,0,0,1.5066,optionRight,60,2560,2,3,0,3,0,1,,,,,,,,,,,,,,,,,,,,,,,,,,,,,,,,,,,,,,,
,,,,,,,,2023-08-16_08h38.50.218,HF_wild_card,2022.2.4,Win32,59.90176111,5c2f6d25e38ccd0001caab19,64d2fd46c836a06233681665,64dc7cf4cd581e52bf779d98,,,,,,,sngl,resources/Empty.png,resources/DP.BMP,Door1,0.3125,-0.028645833,1,0,0,1.0279,optionRight,30,2590,2,4,0,4,0,1,,,,,,,,,,,,,,,,,,,,,,,,,,,,,,,,,,,,,,,
,,,,,,,,2023-08-16_08h38.50.218,HF_wild_card,2022.2.4,Win32,59.90176111,5c2f6d25e38ccd0001caab19,64d2fd46c836a06233681665,64dc7cf4cd581e52bf779d98,,,,,,,sngl,resources/Empty.png,resources/DB.BMP,Door3,0.3515625,-0.03515625,1,0,0,0.935,optionRight,70,2660,2,5,0,5,0,1,,,,,,,,,,,,,,,,,,,,,,,,,,,,,,,,,,,,,,,
,,,,,,,,2023-08-16_08h38.50.218,HF_wild_card,2022.2.4,Win32,59.90176111,5c2f6d25e38ccd0001caab19,64d2fd46c836a06233681665,64dc7cf4cd581e52bf779d98,,,,,,,sngl,resources/DG.BMP,resources/Empty.png,WildCard_NonEx,-0.389322917,-0.075520833,1,0,0,0.9801,optionLeft,55,2715,2,6,0,6,0,1,,,,,,,,,,,,,,,,,,,,,,,,,,,,,,,,,,,,,,,
,,,,,,,,2023-08-16_08h38.50.218,HF_wild_card,2022.2.4,Win32,59.90176111,5c2f6d25e38ccd0001caab19,64d2fd46c836a06233681665,64dc7cf4cd581e52bf779d98,,,,,,,ctch,resources/DP.BMP,resources/DY.BMP,Door4,0.346354167,-0.098958333,1,0,0,2.4052,optionRight,80,2795,2,7,0,7,0,1,,,,,,,,,,,,,,,,,,,,,,,,,,,,,,,,,,,,,,,
,,,,,,,,2023-08-16_08h38.50.218,HF_wild_card,2022.2.4,Win32,59.90176111,5c2f6d25e38ccd0001caab19,64d2fd46c836a06233681665,64dc7cf4cd581e52bf779d98,,,,,,,sngl,resources/DY.BMP,resources/Empty.png,Door4,-0.313802083,-0.03515625,1,0,0,1.0631,optionLeft,60,2855,2,8,0,8,0,1,,,,,,,,,,,,,,,,,,,,,,,,,,,,,,,,,,,,,,,
,,,,,,,,2023-08-16_08h38.50.218,HF_wild_card,2022.2.4,Win32,59.90176111,5c2f6d25e38ccd0001caab19,64d2fd46c836a06233681665,64dc7cf4cd581e52bf779d98,,,,,,,decisionTrl,resources/DB.BMP,resources/DG.BMP,Door3,-0.265625,-0.075520833,1,0,0,1.8903,optionLeft,70,2925,2,9,0,9,0,1,,,,,,,,,,,,,,,,,,,,,,,,,,,,,,,,,,,,,,,
,,,,,,,,2023-08-16_08h38.50.218,HF_wild_card,2022.2.4,Win32,59.90176111,5c2f6d25e38ccd0001caab19,64d2fd46c836a06233681665,64dc7cf4cd581e52bf779d98,,,,,,,sngl,resources/DR.BMP,resources/Empty.png,Door2,-0.244791667,-0.009114583,1,0,0,1.3542,optionLeft,20,2945,2,10,0,10,0,1,,,,,,,,,,,,,,,,,,,,,,,,,,,,,,,,,,,,,,,
,,,,,,,,2023-08-16_08h38.50.218,HF_wild_card,2022.2.4,Win32,59.90176111,5c2f6d25e38ccd0001caab19,64d2fd46c836a06233681665,64dc7cf4cd581e52bf779d98,,,,,,,sngl,resources/Empty.png,resources/DG.BMP,WildCard_NonEx,0.430989583,-0.03515625,1,0,0,0.8759,optionRight,55,3000,2,11,0,11,0,1,,,,,,,,,,,,,,,,,,,,,,,,,,,,,,,,,,,,,,,
,,,,,,,,2023-08-16_08h38.50.218,HF_wild_card,2022.2.4,Win32,59.90176111,5c2f6d25e38ccd0001caab19,64d2fd46c836a06233681665,64dc7cf4cd581e52bf779d98,,,,,,,decisionTrl,resources/DG.BMP,resources/DR.BMP,Door2,0.364583333,-0.104166667,1,0,0,1.344,optionRight,20,3020,2,12,0,12,0,1,,,,,,,,,,,,,,,,,,,,,,,,,,,,,,,,,,,,,,,
,,,,,,,,2023-08-16_08h38.50.218,HF_wild_card,2022.2.4,Win32,59.90176111,5c2f6d25e38ccd0001caab19,64d2fd46c836a06233681665,64dc7cf4cd581e52bf779d98,,,,,,,decisionTrl,resources/DY.BMP,resources/DB.BMP,Door4,-0.334635417,-0.04296875,1,0,0,1.0646,optionLeft,60,3080,2,13,0,13,0,1,,,,,,,,,,,,,,,,,,,,,,,,,,,,,,,,,,,,,,,
,,,,,,,,2023-08-16_08h38.50.218,HF_wild_card,2022.2.4,Win32,59.90176111,5c2f6d25e38ccd0001caab19,64d2fd46c836a06233681665,64dc7cf4cd581e52bf779d98,,,,,,,ctch,resources/DR.BMP,resources/DB.BMP,Door3,0.381510417,-0.01953125,1,0,0,1.5279,optionRight,70,3150,2,14,0,14,0,1,,,,,,,,,,,,,,,,,,,,,,,,,,,,,,,,,,,,,,,
,,,,,,,,2023-08-16_08h38.50.218,HF_wild_card,2022.2.4,Win32,59.90176111,5c2f6d25e38ccd0001caab19,64d2fd46c836a06233681665,64dc7cf4cd581e52bf779d98,,,,,,,decisionTrl,resources/DY.BMP,resources/DB.BMP,Door4,-0.364583333,-0.03125,1,0,0,1.1933,optionLeft,60,3210,2,15,0,15,0,1,,,,,,,,,,,,,,,,,,,,,,,,,,,,,,,,,,,,,,,
,,,,,,,,2023-08-16_08h38.50.218,HF_wild_card,2022.2.4,Win32,59.90176111,5c2f6d25e38ccd0001caab19,64d2fd46c836a06233681665,64dc7cf4cd581e52bf779d98,,,,,,,ctch,resources/DY.BMP,resources/DP.BMP,Door4,-0.376302083,-0.063802083,1,0,0,1.1025,optionLeft,80,3290,2,16,0,16,0,1,,,,,,,,,,,,,,,,,,,,,,,,,,,,,,,,,,,,,,,
,,,,,,,,2023-08-16_08h38.50.218,HF_wild_card,2022.2.4,Win32,59.90176111,5c2f6d25e38ccd0001caab19,64d2fd46c836a06233681665,64dc7cf4cd581e52bf779d98,,,,,,,sngl,resources/Empty.png,resources/DR.BMP,Door2,0.352864583,0.00390625,1,0,0,0.9251,optionRight,40,3330,2,17,0,17,0,1,,,,,,,,,,,,,,,,,,,,,,,,,,,,,,,,,,,,,,,
,,,,,,,,2023-08-16_08h38.50.218,HF_wild_card,2022.2.4,Win32,59.90176111,5c2f6d25e38ccd0001caab19,64d2fd46c836a06233681665,64dc7cf4cd581e52bf779d98,,,,,,,decisionTrl,resources/DB.BMP,resources/DY.BMP,Door4,0.325520833,-0.069010417,1,0,0,1.0762,optionRight,60,3390,2,18,0,18,0,1,,,,,,,,,,,,,,,,,,,,,,,,,,,,,,,,,,,,,,,
,,,,,,,,2023-08-16_08h38.50.218,HF_wild_card,2022.2.4,Win32,59.90176111,5c2f6d25e38ccd0001caab19,64d2fd46c836a06233681665,64dc7cf4cd581e52bf779d98,,,,,,,decisionTrl,resources/DG.BMP,resources/DP.BMP,Door1,0.420572917,-0.063802083,1,0,0,1.3675,optionRight,30,3420,2,19,0,19,0,1,,,,,,,,,,,,,,,,,,,,,,,,,,,,,,,,,,,,,,,
,,,,,,,,2023-08-16_08h38.50.218,HF_wild_card,2022.2.4,Win32,59.90176111,5c2f6d25e38ccd0001caab19,64d2fd46c836a06233681665,64dc7cf4cd581e52bf779d98,,,,,,,decisionTrl,resources/DG.BMP,resources/DY.BMP,Door4,0.278645833,-0.009114583,1,0,0,1.4896,optionRight,80,3500,2,20,0,20,0,1,,,,,,,,,,,,,,,,,,,,,,,,,,,,,,,,,,,,,,,
,,,,,,,,2023-08-16_08h38.50.218,HF_wild_card,2022.2.4,Win32,59.90176111,5c2f6d25e38ccd0001caab19,64d2fd46c836a06233681665,64dc7cf4cd581e52bf779d98,,,,,,,decisionTrl,resources/DR.BMP,resources/DP.BMP,Door2,-0.330729167,-0.069010417,1,0,0,2.1126,optionLeft,20,3520,2,21,0,21,0,1,,,,,,,,,,,,,,,,,,,,,,,,,,,,,,,,,,,,,,,
,,,,,,,,2023-08-16_08h38.50.218,HF_wild_card,2022.2.4,Win32,59.90176111,5c2f6d25e38ccd0001caab19,64d2fd46c836a06233681665,64dc7cf4cd581e52bf779d98,,,,,,,ctch,resources/DB.BMP,resources/DR.BMP,Door2,0.3046875,-0.05078125,1,0,0,1.4515,optionRight,40,3560,2,22,0,22,0,1,,,,,,,,,,,,,,,,,,,,,,,,,,,,,,,,,,,,,,,
,,,,,,,,2023-08-16_08h38.50.218,HF_wild_card,2022.2.4,Win32,59.90176111,5c2f6d25e38ccd0001caab19,64d2fd46c836a06233681665,64dc7cf4cd581e52bf779d98,,,,,,,ctch,resources/DY.BMP,resources/DP.BMP,Door4,-0.36328125,-0.022135417,1,0,0,1.2125,optionLeft,80,3640,2,23,0,23,0,1,,,,,,,,,,,,,,,,,,,,,,,,,,,,,,,,,,,,,,,
,,,,,,,,2023-08-16_08h38.50.218,HF_wild_card,2022.2.4,Win32,59.90176111,5c2f6d25e38ccd0001caab19,64d2fd46c836a06233681665,64dc7cf4cd581e52bf779d98,,,,,,,decisionTrl,resources/DR.BMP,resources/DG.BMP,WildCard_NonEx,0.428385417,-0.033854167,1,0,0,0.8408,optionRight,55,3695,2,24,0,24,0,1,,,,,,,,,,,,,,,,,,,,,,,,,,,,,,,,,,,,,,,
,,,,,,,,2023-08-16_08h38.50.218,HF_wild_card,2022.2.4,Win32,59.90176111,5c2f6d25e38ccd0001caab19,64d2fd46c836a06233681665,64dc7cf4cd581e52bf779d98,,,,,,,ctch,resources/DB.BMP,resources/DR.BMP,Door3,-0.33203125,-0.01171875,1,0,0,2.3246,optionLeft,70,3765,2,25,0,25,0,1,,,,,,,,,,,,,,,,,,,,,,,,,,,,,,,,,,,,,,,
,,,,,,,,2023-08-16_08h38.50.218,HF_wild_card,2022.2.4,Win32,59.90176111,5c2f6d25e38ccd0001caab19,64d2fd46c836a06233681665,64dc7cf4cd581e52bf779d98,,,,,,,decisionTrl,resources/DP.BMP,resources/DR.BMP,Door1,-0.407552083,-0.033854167,1,0,0,1.5602,optionLeft,30,3795,2,26,0,26,0,1,,,,,,,,,,,,,,,,,,,,,,,,,,,,,,,,,,,,,,,
,,,,,,,,2023-08-16_08h38.50.218,HF_wild_card,2022.2.4,Win32,59.90176111,5c2f6d25e38ccd0001caab19,64d2fd46c836a06233681665,64dc7cf4cd581e52bf779d98,,,,,,,decisionTrl,resources/DB.BMP,resources/DY.BMP,Door4,0.317708333,-0.010416667,1,0,0,1.3924,optionRight,60,3855,2,27,0,27,0,1,,,,,,,,,,,,,,,,,,,,,,,,,,,,,,,,,,,,,,,
,,,,,,,,2023-08-16_08h38.50.218,HF_wild_card,2022.2.4,Win32,59.90176111,5c2f6d25e38ccd0001caab19,64d2fd46c836a06233681665,64dc7cf4cd581e52bf779d98,,,,,,,sngl,resources/DB.BMP,resources/Empty.png,Door3,-0.384114583,-0.041666667,1,0,0,1.4068,optionLeft,70,3925,2,28,0,28,0,1,,,,,,,,,,,,,,,,,,,,,,,,,,,,,,,,,,,,,,,
,,,,,,,,2023-08-16_08h38.50.218,HF_wild_card,2022.2.4,Win32,59.90176111,5c2f6d25e38ccd0001caab19,64d2fd46c836a06233681665,64dc7cf4cd581e52bf779d98,,,,,,,decisionTrl,resources/DB.BMP,resources/DY.BMP,Door4,0.345052083,-0.065104167,1,0,0,0.9927,optionRight,60,3985,2,29,0,29,0,1,,,,,,,,,,,,,,,,,,,,,,,,,,,,,,,,,,,,,,,
,,,,,,,,2023-08-16_08h38.50.218,HF_wild_card,2022.2.4,Win32,59.90176111,5c2f6d25e38ccd0001caab19,64d2fd46c836a06233681665,64dc7cf4cd581e52bf779d98,,,,,,,ctch,resources/DP.BMP,resources/DY.BMP,Door4,0.373697917,-0.044270833,1,0,0,1.0098,optionRight,80,4065,2,30,0,30,0,1,,,,,,,,,,,,,,,,,,,,,,,,,,,,,,,,,,,,,,,
,,,,,,,,2023-08-16_08h38.50.218,HF_wild_card,2022.2.4,Win32,59.90176111,5c2f6d25e38ccd0001caab19,64d2fd46c836a06233681665,64dc7cf4cd581e52bf779d98,,,,,,,ctch,resources/DR.BMP,resources/DB.BMP,Door3,0.372395833,-0.084635417,1,0,0,1.2271,optionRight,70,4135,2,31,0,31,0,1,,,,,,,,,,,,,,,,,,,,,,,,,,,,,,,,,,,,,,,
,,,,,,,,2023-08-16_08h38.50.218,HF_wild_card,2022.2.4,Win32,59.90176111,5c2f6d25e38ccd0001caab19,64d2fd46c836a06233681665,64dc7cf4cd581e52bf779d98,,,,,,,decisionTrl,resources/DG.BMP,resources/DB.BMP,Door3,0.266927083,-0.026041667,1,0,0,1.5945,optionRight,70,4205,2,32,0,32,0,1,,,,,,,,,,,,,,,,,,,,,,,,,,,,,,,,,,,,,,,
,,,,,,,,2023-08-16_08h38.50.218,HF_wild_card,2022.2.4,Win32,59.90176111,5c2f6d25e38ccd0001caab19,64d2fd46c836a06233681665,64dc7cf4cd581e52bf779d98,,,,,,,decisionTrl,resources/DP.BMP,resources/DR.BMP,Door1,-0.428385417,-0.069010417,1,0,0,1.6582,optionLeft,30,4235,2,33,0,33,0,1,,,,,,,,,,,,,,,,,,,,,,,,,,,,,,,,,,,,,,,
,,,,,,,,2023-08-16_08h38.50.218,HF_wild_card,2022.2.4,Win32,59.90176111,5c2f6d25e38ccd0001caab19,64d2fd46c836a06233681665,64dc7cf4cd581e52bf779d98,,,,,,,decisionTrl,resources/DP.BMP,resources/DG.BMP,Door1,-0.26953125,-0.02734375,1,0,0,1.8438,optionLeft,30,4265,2,34,0,34,0,1,,,,,,,,,,,,,,,,,,,,,,,,,,,,,,,,,,,,,,,
,,,,,,,,2023-08-16_08h38.50.218,HF_wild_card,2022.2.4,Win32,59.90176111,5c2f6d25e38ccd0001caab19,64d2fd46c836a06233681665,64dc7cf4cd581e52bf779d98,,,,,,,decisionTrl,resources/DR.BMP,resources/DP.BMP,Door1,0.295572917,-0.001302083,1,0,0,2.1449,optionRight,30,4295,2,35,0,35,0,1,,,,,,,,,,,,,,,,,,,,,,,,,,,,,,,,,,,,,,,
,,,,,,,,2023-08-16_08h38.50.218,HF_wild_card,2022.2.4,Win32,59.90176111,5c2f6d25e38ccd0001caab19,64d2fd46c836a06233681665,64dc7cf4cd581e52bf779d98,,,,,,,decisionTrl,resources/DP.BMP,resources/DR.BMP,Door1,-0.294270833,-0.078125,1,0,0,1.4244,optionLeft,30,4325,2,36,0,36,0,1,,,,,,,,,,,,,,,,,,,,,,,,,,,,,,,,,,,,,,,
,,,,,,,,2023-08-16_08h38.50.218,HF_wild_card,2022.2.4,Win32,59.90176111,5c2f6d25e38ccd0001caab19,64d2fd46c836a06233681665,64dc7cf4cd581e52bf779d98,,,,,,,decisionTrl,resources/DR.BMP,resources/DP.BMP,Door2,-0.377604167,-0.055989583,1,0,0,1.0413,optionLeft,20,4345,2,37,0,37,0,1,,,,,,,,,,,,,,,,,,,,,,,,,,,,,,,,,,,,,,,
,,,,,,,,2023-08-16_08h38.50.218,HF_wild_card,2022.2.4,Win32,59.90176111,5c2f6d25e38ccd0001caab19,64d2fd46c836a06233681665,64dc7cf4cd581e52bf779d98,,,,,,,decisionTrl,resources/DP.BMP,resources/DR.BMP,Door1,-0.283854167,-0.03125,1,0,0,1.1504,optionLeft,30,4375,2,38,0,38,0,1,,,,,,,,,,,,,,,,,,,,,,,,,,,,,,,,,,,,,,,
,,,,,,,,2023-08-16_08h38.50.218,HF_wild_card,2022.2.4,Win32,59.90176111,5c2f6d25e38ccd0001caab19,64d2fd46c836a06233681665,64dc7cf4cd581e52bf779d98,,,,,,,decisionTrl,resources/DR.BMP,resources/DP.BMP,Door1,0.446614583,-0.06640625,1,0,0,1.0461,optionRight,30,4405,2,39,0,39,0,1,,,,,,,,,,,,,,,,,,,,,,,,,,,,,,,,,,,,,,,
,,,,,,,,2023-08-16_08h38.50.218,HF_wild_card,2022.2.4,Win32,59.90176111,5c2f6d25e38ccd0001caab19,64d2fd46c836a06233681665,64dc7cf4cd581e52bf779d98,,,,,,,sngl,resources/DP.BMP,resources/Empty.png,Door1,-0.388020833,-0.029947917,1,0,0,0.8913,optionLeft,30,4435,2,40,0,40,0,1,,,,,,,,,,,,,,,,,,,,,,,,,,,,,,,,,,,,,,,
,,,,,,,,2023-08-16_08h38.50.218,HF_wild_card,2022.2.4,Win32,59.90176111,5c2f6d25e38ccd0001caab19,64d2fd46c836a06233681665,64dc7cf4cd581e52bf779d98,,,,,,,decisionTrl,resources/DY.BMP,resources/DG.BMP,Door4,-0.364583333,-0.046875,1,0,0,1.0533,optionLeft,80,4515,2,41,0,41,0,1,,,,,,,,,,,,,,,,,,,,,,,,,,,,,,,,,,,,,,,
,,,,,,,,2023-08-16_08h38.50.218,HF_wild_card,2022.2.4,Win32,59.90176111,5c2f6d25e38ccd0001caab19,64d2fd46c836a06233681665,64dc7cf4cd581e52bf779d98,,,,,,,decisionTrl,resources/DY.BMP,resources/DB.BMP,Door4,-0.334635417,-0.03125,1,0,0,0.8134,optionLeft,60,4575,2,42,0,42,0,1,,,,,,,,,,,,,,,,,,,,,,,,,,,,,,,,,,,,,,,
,,,,,,,,2023-08-16_08h38.50.218,HF_wild_card,2022.2.4,Win32,59.90176111,5c2f6d25e38ccd0001caab19,64d2fd46c836a06233681665,64dc7cf4cd581e52bf779d98,,,,,,,sngl,resources/Empty.png,resources/DY.BMP,Door4,0.350260417,-0.03125,1,0,0,0.8566,optionRight,80,4655,2,43,0,43,0,1,,,,,,,,,,,,,,,,,,,,,,,,,,,,,,,,,,,,,,,
,,,,,,,,2023-08-16_08h38.50.218,HF_wild_card,2022.2.4,Win32,59.90176111,5c2f6d25e38ccd0001caab19,64d2fd46c836a06233681665,64dc7cf4cd581e52bf779d98,,,,,,,,,,,,,,,,,,,,,,,,,,1,0,1,0,1,,,,,,,,,,,,,,,,,,,,,,,,,,,,,,,,,,
,,,,,,,,2023-08-16_08h38.50.218,HF_wild_card,2022.2.4,Win32,59.90176111,5c2f6d25e38ccd0001caab19,64d2fd46c836a06233681665,64dc7cf4cd581e52bf779d98,,,,,,,decisionTrl,resources/DG.BMP,resources/DB.BMP,Door3,0.385416667,-0.11328125,1,0,0,1.0528,optionRight,70,4725,3,0,0,0,0,1,,,,,,,,,,,,,,,,,,,,,,,,,,,,,,,,,,,,,,,
,,,,,,,,2023-08-16_08h38.50.218,HF_wild_card,2022.2.4,Win32,59.90176111,5c2f6d25e38ccd0001caab19,64d2fd46c836a06233681665,64dc7cf4cd581e52bf779d98,,,,,,,ctch,resources/DR.BMP,resources/DB.BMP,Door3,0.26953125,-0.028645833,1,0,0,1.0915,optionRight,70,4795,3,1,0,1,0,1,,,,,,,,,,,,,,,,,,,,,,,,,,,,,,,,,,,,,,,
,,,,,,,,2023-08-16_08h38.50.218,HF_wild_card,2022.2.4,Win32,59.90176111,5c2f6d25e38ccd0001caab19,64d2fd46c836a06233681665,64dc7cf4cd581e52bf779d98,,,,,,,decisionTrl,resources/DP.BMP,resources/DG.BMP,Door1,-0.391927083,-0.04296875,1,0,0,1.1448,optionLeft,30,4825,3,2,0,2,0,1,,,,,,,,,,,,,,,,,,,,,,,,,,,,,,,,,,,,,,,
,,,,,,,,2023-08-16_08h38.50.218,HF_wild_card,2022.2.4,Win32,59.90176111,5c2f6d25e38ccd0001caab19,64d2fd46c836a06233681665,64dc7cf4cd581e52bf779d98,,,,,,,sngl,resources/Empty.png,resources/DP.BMP,Door1,0.315104167,-0.009114583,1,0,0,0.8604,optionRight,30,4855,3,3,0,3,0,1,,,,,,,,,,,,,,,,,,,,,,,,,,,,,,,,,,,,,,,
,,,,,,,,2023-08-16_08h38.50.218,HF_wild_card,2022.2.4,Win32,59.90176111,5c2f6d25e38ccd0001caab19,64d2fd46c836a06233681665,64dc7cf4cd581e52bf779d98,,,,,,,decisionTrl,resources/DG.BMP,resources/DY.BMP,Door4,0.381510417,-0.02734375,1,0,0,1.1069,optionRight,60,4915,3,4,0,4,0,1,,,,,,,,,,,,,,,,,,,,,,,,,,,,,,,,,,,,,,,
,,,,,,,,2023-08-16_08h38.50.218,HF_wild_card,2022.2.4,Win32,59.90176111,5c2f6d25e38ccd0001caab19,64d2fd46c836a06233681665,64dc7cf4cd581e52bf779d98,,,,,,,decisionTrl,resources/DR.BMP,resources/DP.BMP,Door1,0.350260417,-0.0703125,1,0,0,0.852,optionRight,30,4945,3,5,0,5,0,1,,,,,,,,,,,,,,,,,,,,,,,,,,,,,,,,,,,,,,,
,,,,,,,,2023-08-16_08h38.50.218,HF_wild_card,2022.2.4,Win32,59.90176111,5c2f6d25e38ccd0001caab19,64d2fd46c836a06233681665,64dc7cf4cd581e52bf779d98,,,,,,,sngl,resources/Empty.png,resources/DB.BMP,Door3,0.342447917,-0.065104167,1,0,0,0.8101,optionRight,70,5015,3,6,0,6,0,1,,,,,,,,,,,,,,,,,,,,,,,,,,,,,,,,,,,,,,,
,,,,,,,,2023-08-16_08h38.50.218,HF_wild_card,2022.2.4,Win32,59.90176111,5c2f6d25e38ccd0001caab19,64d2fd46c836a06233681665,64dc7cf4cd581e52bf779d98,,,,,,,sngl,resources/DY.BMP,resources/Empty.png,Door4,-0.296875,-0.020833333,1,0,0,0.844,optionLeft,80,5095,3,7,0,7,0,1,,,,,,,,,,,,,,,,,,,,,,,,,,,,,,,,,,,,,,,
,,,,,,,,2023-08-16_08h38.50.218,HF_wild_card,2022.2.4,Win32,59.90176111,5c2f6d25e38ccd0001caab19,64d2fd46c836a06233681665,64dc7cf4cd581e52bf779d98,,,,,,,sngl,resources/Empty.png,resources/DG.BMP,WildCard_NonEx,0.296875,-0.016927083,1,0,0,0.9022,optionRight,45,5140,3,8,0,8,0,1,,,,,,,,,,,,,,,,,,,,,,,,,,,,,,,,,,,,,,,
,,,,,,,,2023-08-16_08h38.50.218,HF_wild_card,2022.2.4,Win32,59.90176111,5c2f6d25e38ccd0001caab19,64d2fd46c836a06233681665,64dc7cf4cd581e52bf779d98,,,,,,,sngl,resources/Empty.png,resources/DY.BMP,Door4,0.338541667,-0.01171875,1,0,0,1.0781,optionRight,60,5200,3,9,0,9,0,1,,,,,,,,,,,,,,,,,,,,,,,,,,,,,,,,,,,,,,,
,,,,,,,,2023-08-16_08h38.50.218,HF_wild_card,2022.2.4,Win32,59.90176111,5c2f6d25e38ccd0001caab19,64d2fd46c836a06233681665,64dc7cf4cd581e52bf779d98,,,,,,,ctch,resources/DB.BMP,resources/DR.BMP,Door3,-0.352864583,-0.033854167,1,0,0,1.4274,optionLeft,70,5270,3,10,0,10,0,1,,,,,,,,,,,,,,,,,,,,,,,,,,,,,,,,,,,,,,,
,,,,,,,,2023-08-16_08h38.50.218,HF_wild_card,2022.2.4,Win32,59.90176111,5c2f6d25e38ccd0001caab19,64d2fd46c836a06233681665,64dc7cf4cd581e52bf779d98,,,,,,,decisionTrl,resources/DB.BMP,resources/DY.BMP,Door4,0.33203125,0.014322917,1,0,0,1.6163,optionRight,80,5350,3,11,0,11,0,1,,,,,,,,,,,,,,,,,,,,,,,,,,,,,,,,,,,,,,,
,,,,,,,,2023-08-16_08h38.50.218,HF_wild_card,2022.2.4,Win32,59.90176111,5c2f6d25e38ccd0001caab19,64d2fd46c836a06233681665,64dc7cf4cd581e52bf779d98,,,,,,,decisionTrl,resources/DY.BMP,resources/DB.BMP,Door4,-0.319010417,-0.041666667,1,0,0,0.8828,optionLeft,60,5410,3,12,0,12,0,1,,,,,,,,,,,,,,,,,,,,,,,,,,,,,,,,,,,,,,,
,,,,,,,,2023-08-16_08h38.50.218,HF_wild_card,2022.2.4,Win32,59.90176111,5c2f6d25e38ccd0001caab19,64d2fd46c836a06233681665,64dc7cf4cd581e52bf779d98,,,,,,,decisionTrl,resources/DP.BMP,resources/DR.BMP,Door1,-0.274739583,-0.033854167,1,0,0,1.3862,optionLeft,30,5440,3,13,0,13,0,1,,,,,,,,,,,,,,,,,,,,,,,,,,,,,,,,,,,,,,,
,,,,,,,,2023-08-16_08h38.50.218,HF_wild_card,2022.2.4,Win32,59.90176111,5c2f6d25e38ccd0001caab19,64d2fd46c836a06233681665,64dc7cf4cd581e52bf779d98,,,,,,,ctch,resources/DB.BMP,resources/DR.BMP,Door3,-0.34375,-0.09765625,1,0,0,2.0073,optionLeft,70,5510,3,14,0,14,0,1,,,,,,,,,,,,,,,,,,,,,,,,,,,,,,,,,,,,,,,
,,,,,,,,2023-08-16_08h38.50.218,HF_wild_card,2022.2.4,Win32,59.90176111,5c2f6d25e38ccd0001caab19,64d2fd46c836a06233681665,64dc7cf4cd581e52bf779d98,,,,,,,decisionTrl,resources/DB.BMP,resources/DG.BMP,Door3,-0.4296875,-0.075520833,1,0,0,0.96,optionLeft,70,5580,3,15,0,15,0,1,,,,,,,,,,,,,,,,,,,,,,,,,,,,,,,,,,,,,,,
,,,,,,,,2023-08-16_08h38.50.218,HF_wild_card,2022.2.4,Win32,59.90176111,5c2f6d25e38ccd0001caab19,64d2fd46c836a06233681665,64dc7cf4cd581e52bf779d98,,,,,,,decisionTrl,resources/DG.BMP,resources/DP.BMP,Door1,0.3046875,-0.036458333,1,0,0,1.2838,optionRight,30,5610,3,16,0,16,0,1,,,,,,,,,,,,,,,,,,,,,,,,,,,,,,,,,,,,,,,
,,,,,,,,2023-08-16_08h38.50.218,HF_wild_card,2022.2.4,Win32,59.90176111,5c2f6d25e38ccd0001caab19,64d2fd46c836a06233681665,64dc7cf4cd581e52bf779d98,,,,,,,decisionTrl,resources/DR.BMP,resources/DP.BMP,Door1,0.315104167,-0.036458333,1,0,0,1.5912,optionRight,30,5640,3,17,0,17,0,1,,,,,,,,,,,,,,,,,,,,,,,,,,,,,,,,,,,,,,,
,,,,,,,,2023-08-16_08h38.50.218,HF_wild_card,2022.2.4,Win32,59.90176111,5c2f6d25e38ccd0001caab19,64d2fd46c836a06233681665,64dc7cf4cd581e52bf779d98,,,,,,,decisionTrl,resources/DR.BMP,resources/DG.BMP,WildCard_NonEx,0.298177083,-0.01171875,1,0,0,0.9573,optionRight,55,5695,3,18,0,18,0,1,,,,,,,,,,,,,,,,,,,,,,,,,,,,,,,,,,,,,,,
,,,,,,,,2023-08-16_08h38.50.218,HF_wild_card,2022.2.4,Win32,59.90176111,5c2f6d25e38ccd0001caab19,64d2fd46c836a06233681665,64dc7cf4cd581e52bf779d98,,,,,,,decisionTrl,resources/DY.BMP,resources/DB.BMP,Door4,-0.322916667,-0.032552083,1,0,0,0.9782,optionLeft,80,5775,3,19,0,19,0,1,,,,,,,,,,,,,,,,,,,,,,,,,,,,,,,,,,,,,,,
,,,,,,,,2023-08-16_08h38.50.218,HF_wild_card,2022.2.4,Win32,59.90176111,5c2f6d25e38ccd0001caab19,64d2fd46c836a06233681665,64dc7cf4cd581e52bf779d98,,,,,,,sngl,resources/Empty.png,resources/DG.BMP,WildCard_NonEx,0.330729167,-0.048177083,1,0,0,1.1259,optionRight,55,5830,3,20,0,20,0,1,,,,,,,,,,,,,,,,,,,,,,,,,,,,,,,,,,,,,,,
,,,,,,,,2023-08-16_08h38.50.218,HF_wild_card,2022.2.4,Win32,59.90176111,5c2f6d25e38ccd0001caab19,64d2fd46c836a06233681665,64dc7cf4cd581e52bf779d98,,,,,,,sngl,resources/Empty.png,resources/DR.BMP,Door2,0.325520833,-0.049479167,1,0,0,0.8934,optionRight,20,5850,3,21,0,21,0,1,,,,,,,,,,,,,,,,,,,,,,,,,,,,,,,,,,,,,,,
,,,,,,,,2023-08-16_08h38.50.218,HF_wild_card,2022.2.4,Win32,59.90176111,5c2f6d25e38ccd0001caab19,64d2fd46c836a06233681665,64dc7cf4cd581e52bf779d98,,,,,,,ctch,resources/DR.BMP,resources/DB.BMP,Door3,0.30078125,-0.015625,1,0,0,1.2346,optionRight,70,5920,3,22,0,22,0,1,,,,,,,,,,,,,,,,,,,,,,,,,,,,,,,,,,,,,,,
,,,,,,,,2023-08-16_08h38.50.218,HF_wild_card,2022.2.4,Win32,59.90176111,5c2f6d25e38ccd0001caab19,64d2fd46c836a06233681665,64dc7cf4cd581e52bf779d98,,,,,,,sngl,resources/DG.BMP,resources/Empty.png,WildCard_NonEx,-0.329427083,-0.036458333,1,0,0,0.9481,optionLeft,55,5975,3,23,0,23,0,1,,,,,,,,,,,,,,,,,,,,,,,,,,,,,,,,,,,,,,,
,,,,,,,,2023-08-16_08h38.50.218,HF_wild_card,2022.2.4,Win32,59.90176111,5c2f6d25e38ccd0001caab19,64d2fd46c836a06233681665,64dc7cf4cd581e52bf779d98,,,,,,,ctch,resources/DP.BMP,resources/DY.BMP,Door4,0.225260417,-0.052083333,1,0,0,1.3036,optionRight,80,6055,3,24,0,24,0,1,,,,,,,,,,,,,,,,,,,,,,,,,,,,,,,,,,,,,,,
,,,,,,,,2023-08-16_08h38.50.218,HF_wild_card,2022.2.4,Win32,59.90176111,5c2f6d25e38ccd0001caab19,64d2fd46c836a06233681665,64dc7cf4cd581e52bf779d98,,,,,,,decisionTrl,resources/DP.BMP,resources/DR.BMP,Door1,-0.286458333,-0.04296875,1,0,0,1.2017,optionLeft,30,6085,3,25,0,25,0,1,,,,,,,,,,,,,,,,,,,,,,,,,,,,,,,,,,,,,,,
,,,,,,,,2023-08-16_08h38.50.218,HF_wild_card,2022.2.4,Win32,59.90176111,5c2f6d25e38ccd0001caab19,64d2fd46c836a06233681665,64dc7cf4cd581e52bf779d98,,,,,,,sngl,resources/DR.BMP,resources/Empty.png,Door2,-0.287760417,-0.044270833,1,0,0,0.9935,optionLeft,40,6125,3,26,0,26,0,1,,,,,,,,,,,,,,,,,,,,,,,,,,,,,,,,,,,,,,,
,,,,,,,,2023-08-16_08h38.50.218,HF_wild_card,2022.2.4,Win32,59.90176111,5c2f6d25e38ccd0001caab19,64d2fd46c836a06233681665,64dc7cf4cd581e52bf779d98,,,,,,,decisionTrl,resources/DR.BMP,resources/DP.BMP,Door1,0.307291667,-0.055989583,1,0,0,3.6253,optionRight,30,6155,3,27,0,27,0,1,,,,,,,,,,,,,,,,,,,,,,,,,,,,,,,,,,,,,,,
,,,,,,,,2023-08-16_08h38.50.218,HF_wild_card,2022.2.4,Win32,59.90176111,5c2f6d25e38ccd0001caab19,64d2fd46c836a06233681665,64dc7cf4cd581e52bf779d98,,,,,,,decisionTrl,resources/DP.BMP,resources/DR.BMP,Door2,0.3515625,-0.046875,1,0,0,1.2183,optionRight,40,6195,3,28,0,28,0,1,,,,,,,,,,,,,,,,,,,,,,,,,,,,,,,,,,,,,,,
,,,,,,,,2023-08-16_08h38.50.218,HF_wild_card,2022.2.4,Win32,59.90176111,5c2f6d25e38ccd0001caab19,64d2fd46c836a06233681665,64dc7cf4cd581e52bf779d98,,,,,,,ctch,resources/DP.BMP,resources/DY.BMP,Door1,-0.2734375,-0.052083333,1,0,0,0.9252,optionLeft,30,6225,3,29,0,29,0,1,,,,,,,,,,,,,,,,,,,,,,,,,,,,,,,,,,,,,,,
,,,,,,,,2023-08-16_08h38.50.218,HF_wild_card,2022.2.4,Win32,59.90176111,5c2f6d25e38ccd0001caab19,64d2fd46c836a06233681665,64dc7cf4cd581e52bf779d98,,,,,,,sngl,resources/DB.BMP,resources/Empty.png,Door3,-0.282552083,-0.044270833,1,0,0,0.9175,optionLeft,70,6295,3,30,0,30,0,1,,,,,,,,,,,,,,,,,,,,,,,,,,,,,,,,,,,,,,,
,,,,,,,,2023-08-16_08h38.50.218,HF_wild_card,2022.2.4,Win32,59.90176111,5c2f6d25e38ccd0001caab19,64d2fd46c836a06233681665,64dc7cf4cd581e52bf779d98,,,,,,,ctch,resources/DY.BMP,resources/DP.BMP,Door4,-0.388020833,-0.049479167,1,0,0,1.0661,optionLeft,60,6355,3,31,0,31,0,1,,,,,,,,,,,,,,,,,,,,,,,,,,,,,,,,,,,,,,,
,,,,,,,,2023-08-16_08h38.50.218,HF_wild_card,2022.2.4,Win32,59.90176111,5c2f6d25e38ccd0001caab19,64d2fd46c836a06233681665,64dc7cf4cd581e52bf779d98,,,,,,,decisionTrl,resources/DB.BMP,resources/DY.BMP,Door4,0.34765625,-0.049479167,1,0,0,1.596,optionRight,80,6435,3,32,0,32,0,1,,,,,,,,,,,,,,,,,,,,,,,,,,,,,,,,,,,,,,,
,,,,,,,,2023-08-16_08h38.50.218,HF_wild_card,2022.2.4,Win32,59.90176111,5c2f6d25e38ccd0001caab19,64d2fd46c836a06233681665,64dc7cf4cd581e52bf779d98,,,,,,,decisionTrl,resources/DB.BMP,resources/DY.BMP,Door4,0.34375,-0.057291667,1,0,0,0.8764,optionRight,80,6515,3,33,0,33,0,1,,,,,,,,,,,,,,,,,,,,,,,,,,,,,,,,,,,,,,,
,,,,,,,,2023-08-16_08h38.50.218,HF_wild_card,2022.2.4,Win32,59.90176111,5c2f6d25e38ccd0001caab19,64d2fd46c836a06233681665,64dc7cf4cd581e52bf779d98,,,,,,,decisionTrl,resources/DB.BMP,resources/DY.BMP,Door4,0.334635417,-0.02734375,1,0,0,0.8237,optionRight,80,6595,3,34,0,34,0,1,,,,,,,,,,,,,,,,,,,,,,,,,,,,,,,,,,,,,,,
,,,,,,,,2023-08-16_08h38.50.218,HF_wild_card,2022.2.4,Win32,59.90176111,5c2f6d25e38ccd0001caab19,64d2fd46c836a06233681665,64dc7cf4cd581e52bf779d98,,,,,,,sngl,resources/DP.BMP,resources/Empty.png,Door1,-0.2890625,-0.036458333,1,0,0,1.0657,optionLeft,30,6625,3,35,0,35,0,1,,,,,,,,,,,,,,,,,,,,,,,,,,,,,,,,,,,,,,,
,,,,,,,,2023-08-16_08h38.50.218,HF_wild_card,2022.2.4,Win32,59.90176111,5c2f6d25e38ccd0001caab19,64d2fd46c836a06233681665,64dc7cf4cd581e52bf779d98,,,,,,,decisionTrl,resources/DY.BMP,resources/DB.BMP,Door4,-0.319010417,-0.052083333,1,0,0,0.9146,optionLeft,60,6685,3,36,0,36,0,1,,,,,,,,,,,,,,,,,,,,,,,,,,,,,,,,,,,,,,,
,,,,,,,,2023-08-16_08h38.50.218,HF_wild_card,2022.2.4,Win32,59.90176111,5c2f6d25e38ccd0001caab19,64d2fd46c836a06233681665,64dc7cf4cd581e52bf779d98,,,,,,,decisionTrl,resources/DY.BMP,resources/DG.BMP,Door4,-0.44140625,-0.07421875,1,0,0,1.0149,optionLeft,80,6765,3,37,0,37,0,1,,,,,,,,,,,,,,,,,,,,,,,,,,,,,,,,,,,,,,,
,,,,,,,,2023-08-16_08h38.50.218,HF_wild_card,2022.2.4,Win32,59.90176111,5c2f6d25e38ccd0001caab19,64d2fd46c836a06233681665,64dc7cf4cd581e52bf779d98,,,,,,,decisionTrl,resources/DG.BMP,resources/DR.BMP,Door2,0.393229167,0.010416667,1,0,0,1.7921,optionRight,20,6785,3,38,0,38,0,1,,,,,,,,,,,,,,,,,,,,,,,,,,,,,,,,,,,,,,,
,,,,,,,,2023-08-16_08h38.50.218,HF_wild_card,2022.2.4,Win32,59.90176111,5c2f6d25e38ccd0001caab19,64d2fd46c836a06233681665,64dc7cf4cd581e52bf779d98,,,,,,,decisionTrl,resources/DY.BMP,resources/DB.BMP,Door4,-0.33984375,-0.075520833,1,0,0,0.9085,optionLeft,60,6845,3,39,0,39,0,1,,,,,,,,,,,,,,,,,,,,,,,,,,,,,,,,,,,,,,,
,,,,,,,,2023-08-16_08h38.50.218,HF_wild_card,2022.2.4,Win32,59.90176111,5c2f6d25e38ccd0001caab19,64d2fd46c836a06233681665,64dc7cf4cd581e52bf779d98,,,,,,,ctch,resources/DY.BMP,resources/DP.BMP,Door4,-0.287760417,-0.044270833,1,0,0,0.8908,optionLeft,60,6905,3,40,0,40,0,1,,,,,,,,,,,,,,,,,,,,,,,,,,,,,,,,,,,,,,,
,,,,,,,,2023-08-16_08h38.50.218,HF_wild_card,2022.2.4,Win32,59.90176111,5c2f6d25e38ccd0001caab19,64d2fd46c836a06233681665,64dc7cf4cd581e52bf779d98,,,,,,,sngl,resources/DG.BMP,resources/Empty.png,WildCard_NonEx,-0.279947917,-0.055989583,1,0,0,0.8389,optionLeft,45,6950,3,41,0,41,0,1,,,,,,,,,,,,,,,,,,,,,,,,,,,,,,,,,,,,,,,
,,,,,,,,2023-08-16_08h38.50.218,HF_wild_card,2022.2.4,Win32,59.90176111,5c2f6d25e38ccd0001caab19,64d2fd46c836a06233681665,64dc7cf4cd581e52bf779d98,,,,,,,decisionTrl,resources/DP.BMP,resources/DR.BMP,Door1,-0.313802083,-0.059895833,1,0,0,1.2413,optionLeft,30,6980,3,42,0,42,0,1,,,,,,,,,,,,,,,,,,,,,,,,,,,,,,,,,,,,,,,
,,,,,,,,2023-08-16_08h38.50.218,HF_wild_card,2022.2.4,Win32,59.90176111,5c2f6d25e38ccd0001caab19,64d2fd46c836a06233681665,64dc7cf4cd581e52bf779d98,,,,,,,decisionTrl,resources/DR.BMP,resources/DP.BMP,Door1,0.377604167,-0.048177083,1,0,0,1.0198,optionRight,30,7010,3,43,0,43,0,1,,,,,,,,,,,,,,,,,,,,,,,,,,,,,,,,,,,,,,,
,,,,,,,,2023-08-16_08h38.50.218,HF_wild_card,2022.2.4,Win32,59.90176111,5c2f6d25e38ccd0001caab19,64d2fd46c836a06233681665,64dc7cf4cd581e52bf779d98,,,,,,,,,,,,,,,,,,,,,,,,,,2,0,2,0,1,,,,,,,,,,,,,,,,,,,,,,,,,,,,,,,,,,
,,,,,,,,2023-08-16_08h38.50.218,HF_wild_card,2022.2.4,Win32,59.90176111,5c2f6d25e38ccd0001caab19,64d2fd46c836a06233681665,64dc7cf4cd581e52bf779d98,,,,,,,decisionTrl,resources/DY.BMP,resources/DB.BMP,Door4,-0.315104167,-0.14453125,1,0,0,0.9858,optionLeft,80,7090,4,0,0,0,0,1,,,,,,,,,,,,,,,,,,,,,,,,,,,,,,,,,,,,,,,
,,,,,,,,2023-08-16_08h38.50.218,HF_wild_card,2022.2.4,Win32,59.90176111,5c2f6d25e38ccd0001caab19,64d2fd46c836a06233681665,64dc7cf4cd581e52bf779d98,,,,,,,sngl,resources/Empty.png,resources/DBN.BMP,WildCard_Ex,0.359375,0.032552083,1,0,0,2.5279,optionRight,95,7185,4,1,0,1,0,1,,,,,,,,,,,,,,,,,,,,,,,,,,,,,,,,,,,,,,,
,,,,,,,,2023-08-16_08h38.50.218,HF_wild_card,2022.2.4,Win32,59.90176111,5c2f6d25e38ccd0001caab19,64d2fd46c836a06233681665,64dc7cf4cd581e52bf779d98,,,,,,,ctch,resources/DP.BMP,resources/DY.BMP,Door4,0.475260417,-0.055989583,1,0,0,1.8347,optionRight,60,7245,4,2,0,2,0,1,,,,,,,,,,,,,,,,,,,,,,,,,,,,,,,,,,,,,,,
,,,,,,,,2023-08-16_08h38.50.218,HF_wild_card,2022.2.4,Win32,59.90176111,5c2f6d25e38ccd0001caab19,64d2fd46c836a06233681665,64dc7cf4cd581e52bf779d98,,,,,,,decisionTrl,resources/DB.BMP,resources/DBN.BMP,WildCard_Ex,0.32421875,-0.052083333,1,0,0,0.8537,optionRight,5,7250,4,3,0,3,0,1,,,,,,,,,,,,,,,,,,,,,,,,,,,,,,,,,,,,,,,
,,,,,,,,2023-08-16_08h38.50.218,HF_wild_card,2022.2.4,Win32,59.90176111,5c2f6d25e38ccd0001caab19,64d2fd46c836a06233681665,64dc7cf4cd581e52bf779d98,,,,,,,decisionTrl,resources/DP.BMP,resources/DR.BMP,Door1,-0.341145833,-0.04296875,1,0,0,1.4431,optionLeft,30,7280,4,4,0,4,0,1,,,,,,,,,,,,,,,,,,,,,,,,,,,,,,,,,,,,,,,
,,,,,,,,2023-08-16_08h38.50.218,HF_wild_card,2022.2.4,Win32,59.90176111,5c2f6d25e38ccd0001caab19,64d2fd46c836a06233681665,64dc7cf4cd581e52bf779d98,,,,,,,decisionTrl,resources/DP.BMP,resources/DR.BMP,Door1,-0.263020833,-0.080729167,1,0,0,1.5797,optionLeft,30,7310,4,5,0,5,0,1,,,,,,,,,,,,,,,,,,,,,,,,,,,,,,,,,,,,,,,
,,,,,,,,2023-08-16_08h38.50.218,HF_wild_card,2022.2.4,Win32,59.90176111,5c2f6d25e38ccd0001caab19,64d2fd46c836a06233681665,64dc7cf4cd581e52bf779d98,,,,,,,sngl,resources/Empty.png,resources/DB.BMP,Door3,0.419270833,-0.01953125,1,0,0,0.9161,optionRight,70,7380,4,6,0,6,0,1,,,,,,,,,,,,,,,,,,,,,,,,,,,,,,,,,,,,,,,
,,,,,,,,2023-08-16_08h38.50.218,HF_wild_card,2022.2.4,Win32,59.90176111,5c2f6d25e38ccd0001caab19,64d2fd46c836a06233681665,64dc7cf4cd581e52bf779d98,,,,,,,ctch,resources/DY.BMP,resources/DP.BMP,Door4,-0.282552083,-0.065104167,1,0,0,0.9181,optionLeft,60,7440,4,7,0,7,0,1,,,,,,,,,,,,,,,,,,,,,,,,,,,,,,,,,,,,,,,
,,,,,,,,2023-08-16_08h38.50.218,HF_wild_card,2022.2.4,Win32,59.90176111,5c2f6d25e38ccd0001caab19,64d2fd46c836a06233681665,64dc7cf4cd581e52bf779d98,,,,,,,decisionTrl,resources/DP.BMP,resources/DR.BMP,Door1,-0.287760417,-0.049479167,1,0,0,1.275,optionLeft,30,7470,4,8,0,8,0,1,,,,,,,,,,,,,,,,,,,,,,,,,,,,,,,,,,,,,,,
,,,,,,,,2023-08-16_08h38.50.218,HF_wild_card,2022.2.4,Win32,59.90176111,5c2f6d25e38ccd0001caab19,64d2fd46c836a06233681665,64dc7cf4cd581e52bf779d98,,,,,,,decisionTrl,resources/DBN.BMP,resources/DR.BMP,Door2,0.309895833,-0.037760417,1,0,0,1.4422,optionRight,20,7490,4,9,0,9,0,1,,,,,,,,,,,,,,,,,,,,,,,,,,,,,,,,,,,,,,,
,,,,,,,,2023-08-16_08h38.50.218,HF_wild_card,2022.2.4,Win32,59.90176111,5c2f6d25e38ccd0001caab19,64d2fd46c836a06233681665,64dc7cf4cd581e52bf779d98,,,,,,,sngl,resources/Empty.png,resources/DR.BMP,Door2,0.30078125,-0.029947917,1,0,0,1.0924,optionRight,40,7530,4,10,0,10,0,1,,,,,,,,,,,,,,,,,,,,,,,,,,,,,,,,,,,,,,,
,,,,,,,,2023-08-16_08h38.50.218,HF_wild_card,2022.2.4,Win32,59.90176111,5c2f6d25e38ccd0001caab19,64d2fd46c836a06233681665,64dc7cf4cd581e52bf779d98,,,,,,,decisionTrl,resources/DBN.BMP,resources/DY.BMP,Door4,0.287760417,-0.04296875,1,0,0,1.0426,optionRight,80,7610,4,11,0,11,0,1,,,,,,,,,,,,,,,,,,,,,,,,,,,,,,,,,,,,,,,
,,,,,,,,2023-08-16_08h38.50.218,HF_wild_card,2022.2.4,Win32,59.90176111,5c2f6d25e38ccd0001caab19,64d2fd46c836a06233681665,64dc7cf4cd581e52bf779d98,,,,,,,sngl,resources/DBN.BMP,resources/Empty.png,WildCard_Ex,-0.29296875,-0.063802083,1,0,0,1.1738,optionLeft,95,7705,4,12,0,12,0,1,,,,,,,,,,,,,,,,,,,,,,,,,,,,,,,,,,,,,,,
,,,,,,,,2023-08-16_08h38.50.218,HF_wild_card,2022.2.4,Win32,59.90176111,5c2f6d25e38ccd0001caab19,64d2fd46c836a06233681665,64dc7cf4cd581e52bf779d98,,,,,,,decisionTrl,resources/DY.BMP,resources/DB.BMP,Door4,-0.359375,-0.084635417,1,0,0,1.2413,optionLeft,80,7785,4,13,0,13,0,1,,,,,,,,,,,,,,,,,,,,,,,,,,,,,,,,,,,,,,,
,,,,,,,,2023-08-16_08h38.50.218,HF_wild_card,2022.2.4,Win32,59.90176111,5c2f6d25e38ccd0001caab19,64d2fd46c836a06233681665,64dc7cf4cd581e52bf779d98,,,,,,,decisionTrl,resources/DY.BMP,resources/DB.BMP,Door4,-0.330729167,-0.048177083,1,0,0,0.9249,optionLeft,60,7845,4,14,0,14,0,1,,,,,,,,,,,,,,,,,,,,,,,,,,,,,,,,,,,,,,,
,,,,,,,,2023-08-16_08h38.50.218,HF_wild_card,2022.2.4,Win32,59.90176111,5c2f6d25e38ccd0001caab19,64d2fd46c836a06233681665,64dc7cf4cd581e52bf779d98,,,,,,,ctch,resources/DB.BMP,resources/DR.BMP,Door3,-0.377604167,-0.104166667,1,0,0,1.3231,optionLeft,70,7915,4,15,0,15,0,1,,,,,,,,,,,,,,,,,,,,,,,,,,,,,,,,,,,,,,,
,,,,,,,,2023-08-16_08h38.50.218,HF_wild_card,2022.2.4,Win32,59.90176111,5c2f6d25e38ccd0001caab19,64d2fd46c836a06233681665,64dc7cf4cd581e52bf779d98,,,,,,,decisionTrl,resources/DY.BMP,resources/DBN.BMP,Door4,-0.3046875,-0.055989583,1,0,0,0.8437,optionLeft,80,7995,4,16,0,16,0,1,,,,,,,,,,,,,,,,,,,,,,,,,,,,,,,,,,,,,,,
,,,,,,,,2023-08-16_08h38.50.218,HF_wild_card,2022.2.4,Win32,59.90176111,5c2f6d25e38ccd0001caab19,64d2fd46c836a06233681665,64dc7cf4cd581e52bf779d98,,,,,,,sngl,resources/Empty.png,resources/DBN.BMP,WildCard_Ex,0.389322917,-0.02734375,1,0,0,0.8279,optionRight,5,8000,4,17,0,17,0,1,,,,,,,,,,,,,,,,,,,,,,,,,,,,,,,,,,,,,,,
,,,,,,,,2023-08-16_08h38.50.218,HF_wild_card,2022.2.4,Win32,59.90176111,5c2f6d25e38ccd0001caab19,64d2fd46c836a06233681665,64dc7cf4cd581e52bf779d98,,,,,,,ctch,resources/DP.BMP,resources/DY.BMP,Door4,0.317708333,-0.045572917,1,0,0,1.085,optionRight,80,8080,4,18,0,18,0,1,,,,,,,,,,,,,,,,,,,,,,,,,,,,,,,,,,,,,,,
,,,,,,,,2023-08-16_08h38.50.218,HF_wild_card,2022.2.4,Win32,59.90176111,5c2f6d25e38ccd0001caab19,64d2fd46c836a06233681665,64dc7cf4cd581e52bf779d98,,,,,,,decisionTrl,resources/DR.BMP,resources/DP.BMP,Door1,0.32421875,-0.065104167,1,0,0,1.2297,optionRight,30,8110,4,19,0,19,0,1,,,,,,,,,,,,,,,,,,,,,,,,,,,,,,,,,,,,,,,
,,,,,,,,2023-08-16_08h38.50.218,HF_wild_card,2022.2.4,Win32,59.90176111,5c2f6d25e38ccd0001caab19,64d2fd46c836a06233681665,64dc7cf4cd581e52bf779d98,,,,,,,decisionTrl,resources/DR.BMP,resources/DP.BMP,Door1,0.235677083,-0.052083333,1,0,0,0.9476,optionRight,30,8140,4,20,0,20,0,1,,,,,,,,,,,,,,,,,,,,,,,,,,,,,,,,,,,,,,,
,,,,,,,,2023-08-16_08h38.50.218,HF_wild_card,2022.2.4,Win32,59.90176111,5c2f6d25e38ccd0001caab19,64d2fd46c836a06233681665,64dc7cf4cd581e52bf779d98,,,,,,,ctch,resources/DR.BMP,resources/DB.BMP,Door3,0.283854167,-0.055989583,1,0,0,1.2254,optionRight,70,8210,4,21,0,21,0,1,,,,,,,,,,,,,,,,,,,,,,,,,,,,,,,,,,,,,,,
,,,,,,,,2023-08-16_08h38.50.218,HF_wild_card,2022.2.4,Win32,59.90176111,5c2f6d25e38ccd0001caab19,64d2fd46c836a06233681665,64dc7cf4cd581e52bf779d98,,,,,,,ctch,resources/DR.BMP,resources/DB.BMP,Door3,0.309895833,-0.061197917,1,0,0,1.3754,optionRight,70,8280,4,22,0,22,0,1,,,,,,,,,,,,,,,,,,,,,,,,,,,,,,,,,,,,,,,
,,,,,,,,2023-08-16_08h38.50.218,HF_wild_card,2022.2.4,Win32,59.90176111,5c2f6d25e38ccd0001caab19,64d2fd46c836a06233681665,64dc7cf4cd581e52bf779d98,,,,,,,decisionTrl,resources/DB.BMP,resources/DY.BMP,Door4,0.286458333,-0.015625,1,0,0,1.0627,optionRight,60,8340,4,23,0,23,0,1,,,,,,,,,,,,,,,,,,,,,,,,,,,,,,,,,,,,,,,
,,,,,,,,2023-08-16_08h38.50.218,HF_wild_card,2022.2.4,Win32,59.90176111,5c2f6d25e38ccd0001caab19,64d2fd46c836a06233681665,64dc7cf4cd581e52bf779d98,,,,,,,sngl,resources/DP.BMP,resources/Empty.png,Door1,-0.33203125,-0.049479167,1,0,0,0.9581,optionLeft,30,8370,4,24,0,24,0,1,,,,,,,,,,,,,,,,,,,,,,,,,,,,,,,,,,,,,,,
,,,,,,,,2023-08-16_08h38.50.218,HF_wild_card,2022.2.4,Win32,59.90176111,5c2f6d25e38ccd0001caab19,64d2fd46c836a06233681665,64dc7cf4cd581e52bf779d98,,,,,,,decisionTrl,resources/DR.BMP,resources/DP.BMP,Door1,0.342447917,-0.045572917,1,0,0,0.8833,optionRight,30,8400,4,25,0,25,0,1,,,,,,,,,,,,,,,,,,,,,,,,,,,,,,,,,,,,,,,
,,,,,,,,2023-08-16_08h38.50.218,HF_wild_card,2022.2.4,Win32,59.90176111,5c2f6d25e38ccd0001caab19,64d2fd46c836a06233681665,64dc7cf4cd581e52bf779d98,,,,,,,sngl,resources/DY.BMP,resources/Empty.png,Door4,-0.244791667,-0.0234375,1,0,0,0.8417,optionLeft,60,8460,4,26,0,26,0,1,,,,,,,,,,,,,,,,,,,,,,,,,,,,,,,,,,,,,,,
,,,,,,,,2023-08-16_08h38.50.218,HF_wild_card,2022.2.4,Win32,59.90176111,5c2f6d25e38ccd0001caab19,64d2fd46c836a06233681665,64dc7cf4cd581e52bf779d98,,,,,,,sngl,resources/DR.BMP,resources/Empty.png,Door2,-0.264322917,-0.04296875,1,0,0,0.8604,optionLeft,20,8480,4,27,0,27,0,1,,,,,,,,,,,,,,,,,,,,,,,,,,,,,,,,,,,,,,,
,,,,,,,,2023-08-16_08h38.50.218,HF_wild_card,2022.2.4,Win32,59.90176111,5c2f6d25e38ccd0001caab19,64d2fd46c836a06233681665,64dc7cf4cd581e52bf779d98,,,,,,,decisionTrl,resources/DBN.BMP,resources/DP.BMP,Door1,0.296875,-0.024739583,1,0,0,1.0262,optionRight,30,8510,4,28,0,28,0,1,,,,,,,,,,,,,,,,,,,,,,,,,,,,,,,,,,,,,,,
,,,,,,,,2023-08-16_08h38.50.218,HF_wild_card,2022.2.4,Win32,59.90176111,5c2f6d25e38ccd0001caab19,64d2fd46c836a06233681665,64dc7cf4cd581e52bf779d98,,,,,,,decisionTrl,resources/DP.BMP,resources/DBN.BMP,Door1,-0.192708333,-0.075520833,1,0,0,2.077,optionLeft,30,8540,4,29,0,29,0,1,,,,,,,,,,,,,,,,,,,,,,,,,,,,,,,,,,,,,,,
,,,,,,,,2023-08-16_08h38.50.218,HF_wild_card,2022.2.4,Win32,59.90176111,5c2f6d25e38ccd0001caab19,64d2fd46c836a06233681665,64dc7cf4cd581e52bf779d98,,,,,,,decisionTrl,resources/DY.BMP,resources/DB.BMP,Door4,-0.294270833,-0.049479167,1,0,0,1.0113,optionLeft,60,8600,4,30,0,30,0,1,,,,,,,,,,,,,,,,,,,,,,,,,,,,,,,,,,,,,,,
,,,,,,,,2023-08-16_08h38.50.218,HF_wild_card,2022.2.4,Win32,59.90176111,5c2f6d25e38ccd0001caab19,64d2fd46c836a06233681665,64dc7cf4cd581e52bf779d98,,,,,,,sngl,resources/Empty.png,resources/DP.BMP,Door1,0.360677083,-0.032552083,1,0,0,0.8432,optionRight,30,8630,4,31,0,31,0,1,,,,,,,,,,,,,,,,,,,,,,,,,,,,,,,,,,,,,,,
,,,,,,,,2023-08-16_08h38.50.218,HF_wild_card,2022.2.4,Win32,59.90176111,5c2f6d25e38ccd0001caab19,64d2fd46c836a06233681665,64dc7cf4cd581e52bf779d98,,,,,,,ctch,resources/DY.BMP,resources/DP.BMP,Door4,-0.278645833,-0.06640625,1,0,0,0.8095,optionLeft,60,8690,4,32,0,32,0,1,,,,,,,,,,,,,,,,,,,,,,,,,,,,,,,,,,,,,,,
,,,,,,,,2023-08-16_08h38.50.218,HF_wild_card,2022.2.4,Win32,59.90176111,5c2f6d25e38ccd0001caab19,64d2fd46c836a06233681665,64dc7cf4cd581e52bf779d98,,,,,,,ctch,resources/DB.BMP,resources/DR.BMP,Door3,-0.25,-0.061197917,1,0,0,1.5909,optionLeft,70,8760,4,33,0,33,0,1,,,,,,,,,,,,,,,,,,,,,,,,,,,,,,,,,,,,,,,
,,,,,,,,2023-08-16_08h38.50.218,HF_wild_card,2022.2.4,Win32,59.90176111,5c2f6d25e38ccd0001caab19,64d2fd46c836a06233681665,64dc7cf4cd581e52bf779d98,,,,,,,sngl,resources/DB.BMP,resources/Empty.png,Door3,-0.35546875,-0.048177083,1,0,0,0.7936,optionLeft,70,8830,4,34,0,34,0,1,,,,,,,,,,,,,,,,,,,,,,,,,,,,,,,,,,,,,,,
,,,,,,,,2023-08-16_08h38.50.218,HF_wild_card,2022.2.4,Win32,59.90176111,5c2f6d25e38ccd0001caab19,64d2fd46c836a06233681665,64dc7cf4cd581e52bf779d98,,,,,,,decisionTrl,resources/DB.BMP,resources/DY.BMP,Door4,0.33984375,-0.010416667,1,0,0,1.2573,optionRight,60,8890,4,35,0,35,0,1,,,,,,,,,,,,,,,,,,,,,,,,,,,,,,,,,,,,,,,
,,,,,,,,2023-08-16_08h38.50.218,HF_wild_card,2022.2.4,Win32,59.90176111,5c2f6d25e38ccd0001caab19,64d2fd46c836a06233681665,64dc7cf4cd581e52bf779d98,,,,,,,decisionTrl,resources/DR.BMP,resources/DP.BMP,Door1,0.330729167,-0.032552083,1,0,0,1.1044,optionRight,30,8920,4,36,0,36,0,1,,,,,,,,,,,,,,,,,,,,,,,,,,,,,,,,,,,,,,,
,,,,,,,,2023-08-16_08h38.50.218,HF_wild_card,2022.2.4,Win32,59.90176111,5c2f6d25e38ccd0001caab19,64d2fd46c836a06233681665,64dc7cf4cd581e52bf779d98,,,,,,,decisionTrl,resources/DR.BMP,resources/DBN.BMP,WildCard_Ex,0.368489583,0.014322917,1,0,0,1.0612,optionRight,5,8925,4,37,0,37,0,1,,,,,,,,,,,,,,,,,,,,,,,,,,,,,,,,,,,,,,,
,,,,,,,,2023-08-16_08h38.50.218,HF_wild_card,2022.2.4,Win32,59.90176111,5c2f6d25e38ccd0001caab19,64d2fd46c836a06233681665,64dc7cf4cd581e52bf779d98,,,,,,,decisionTrl,resources/DB.BMP,resources/DY.BMP,Door4,0.358072917,-0.022135417,1,0,0,0.9021,optionRight,80,9005,4,38,0,38,0,1,,,,,,,,,,,,,,,,,,,,,,,,,,,,,,,,,,,,,,,
,,,,,,,,2023-08-16_08h38.50.218,HF_wild_card,2022.2.4,Win32,59.90176111,5c2f6d25e38ccd0001caab19,64d2fd46c836a06233681665,64dc7cf4cd581e52bf779d98,,,,,,,decisionTrl,resources/DBN.BMP,resources/DB.BMP,WildCard_Ex,-0.3984375,-0.075520833,1,0,0,1.0653,optionLeft,95,9100,4,39,0,39,0,1,,,,,,,,,,,,,,,,,,,,,,,,,,,,,,,,,,,,,,,
,,,,,,,,2023-08-16_08h38.50.218,HF_wild_card,2022.2.4,Win32,59.90176111,5c2f6d25e38ccd0001caab19,64d2fd46c836a06233681665,64dc7cf4cd581e52bf779d98,,,,,,,decisionTrl,resources/DB.BMP,resources/DY.BMP,Door4,0.337239583,-0.05859375,1,0,0,1.0293,optionRight,80,9180,4,40,0,40,0,1,,,,,,,,,,,,,,,,,,,,,,,,,,,,,,,,,,,,,,,
,,,,,,,,2023-08-16_08h38.50.218,HF_wild_card,2022.2.4,Win32,59.90176111,5c2f6d25e38ccd0001caab19,64d2fd46c836a06233681665,64dc7cf4cd581e52bf779d98,,,,,,,sngl,resources/DBN.BMP,resources/Empty.png,WildCard_Ex,-0.247395833,-0.048177083,1,0,0,1.0696,optionLeft,5,9185,4,41,0,41,0,1,,,,,,,,,,,,,,,,,,,,,,,,,,,,,,,,,,,,,,,
,,,,,,,,2023-08-16_08h38.50.218,HF_wild_card,2022.2.4,Win32,59.90176111,5c2f6d25e38ccd0001caab19,64d2fd46c836a06233681665,64dc7cf4cd581e52bf779d98,,,,,,,sngl,resources/Empty.png,resources/DY.BMP,Door4,0.319010417,-0.02734375,1,0,0,0.758,optionRight,80,9265,4,42,0,42,0,1,,,,,,,,,,,,,,,,,,,,,,,,,,,,,,,,,,,,,,,
,,,,,,,,2023-08-16_08h38.50.218,HF_wild_card,2022.2.4,Win32,59.90176111,5c2f6d25e38ccd0001caab19,64d2fd46c836a06233681665,64dc7cf4cd581e52bf779d98,,,,,,,decisionTrl,resources/DP.BMP,resources/DR.BMP,Door1,-0.26953125,-0.0390625,1,0,0,1.2421,optionLeft,30,9295,4,43,0,43,0,1,,,,,,,,,,,,,,,,,,,,,,,,,,,,,,,,,,,,,,,
,,,,,,,,2023-08-16_08h38.50.218,HF_wild_card,2022.2.4,Win32,59.90176111,5c2f6d25e38ccd0001caab19,64d2fd46c836a06233681665,64dc7cf4cd581e52bf779d98,,,,,,,,,,,,,,,,,,,,,,,,,,3,0,3,0,1,,,,,,,,,,,,,,,,,,,,,,,,,,,,,,,,,,
,,,,,,,,2023-08-16_08h38.50.218,HF_wild_card,2022.2.4,Win32,59.90176111,5c2f6d25e38ccd0001caab19,64d2fd46c836a06233681665,64dc7cf4cd581e52bf779d98,,,,,,,sngl,resources/DBN.BMP,resources/Empty.png,WildCard_Ex,-0.278645833,-0.184895833,1,0,0,1.2887,optionLeft,95,9390,5,0,0,0,0,1,,,,,,,,,,,,,,,,,,,,,,,,,,,,,,,,,,,,,,,
,,,,,,,,2023-08-16_08h38.50.218,HF_wild_card,2022.2.4,Win32,59.90176111,5c2f6d25e38ccd0001caab19,64d2fd46c836a06233681665,64dc7cf4cd581e52bf779d98,,,,,,,decisionTrl,resources/DR.BMP,resources/DP.BMP,Door1,0.373697917,-0.033854167,1,0,0,1.015,optionRight,30,9420,5,1,0,1,0,1,,,,,,,,,,,,,,,,,,,,,,,,,,,,,,,,,,,,,,,
,,,,,,,,2023-08-16_08h38.50.218,HF_wild_card,2022.2.4,Win32,59.90176111,5c2f6d25e38ccd0001caab19,64d2fd46c836a06233681665,64dc7cf4cd581e52bf779d98,,,,,,,decisionTrl,resources/DY.BMP,resources/DBN.BMP,Door4,-0.309895833,-0.03125,1,0,0,0.8754,optionLeft,80,9500,5,2,0,2,0,1,,,,,,,,,,,,,,,,,,,,,,,,,,,,,,,,,,,,,,,
,,,,,,,,2023-08-16_08h38.50.218,HF_wild_card,2022.2.4,Win32,59.90176111,5c2f6d25e38ccd0001caab19,64d2fd46c836a06233681665,64dc7cf4cd581e52bf779d98,,,,,,,sngl,resources/DP.BMP,resources/Empty.png,Door1,-0.243489583,-0.024739583,1,0,0,0.9103,optionLeft,30,9530,5,3,0,3,0,1,,,,,,,,,,,,,,,,,,,,,,,,,,,,,,,,,,,,,,,
,,,,,,,,2023-08-16_08h38.50.218,HF_wild_card,2022.2.4,Win32,59.90176111,5c2f6d25e38ccd0001caab19,64d2fd46c836a06233681665,64dc7cf4cd581e52bf779d98,,,,,,,decisionTrl,resources/DR.BMP,resources/DP.BMP,Door1,0.243489583,-0.02734375,1,0,0,1.0156,optionRight,30,9560,5,4,0,4,0,1,,,,,,,,,,,,,,,,,,,,,,,,,,,,,,,,,,,,,,,
,,,,,,,,2023-08-16_08h38.50.218,HF_wild_card,2022.2.4,Win32,59.90176111,5c2f6d25e38ccd0001caab19,64d2fd46c836a06233681665,64dc7cf4cd581e52bf779d98,,,,,,,sngl,resources/Empty.png,resources/DBN.BMP,WildCard_Ex,0.309895833,-0.036458333,1,0,0,0.8933,optionRight,5,9565,5,5,0,5,0,1,,,,,,,,,,,,,,,,,,,,,,,,,,,,,,,,,,,,,,,
,,,,,,,,2023-08-16_08h38.50.218,HF_wild_card,2022.2.4,Win32,59.90176111,5c2f6d25e38ccd0001caab19,64d2fd46c836a06233681665,64dc7cf4cd581e52bf779d98,,,,,,,sngl,resources/Empty.png,resources/DR.BMP,Door2,0.321614583,-0.006510417,1,0,0,0.8251,optionRight,20,9585,5,6,0,6,0,1,,,,,,,,,,,,,,,,,,,,,,,,,,,,,,,,,,,,,,,
,,,,,,,,2023-08-16_08h38.50.218,HF_wild_card,2022.2.4,Win32,59.90176111,5c2f6d25e38ccd0001caab19,64d2fd46c836a06233681665,64dc7cf4cd581e52bf779d98,,,,,,,sngl,resources/Empty.png,resources/DBN.BMP,WildCard_Ex,0.3046875,-0.020833333,1,0,0,1.7266,optionRight,95,9680,5,7,0,7,0,1,,,,,,,,,,,,,,,,,,,,,,,,,,,,,,,,,,,,,,,
,,,,,,,,2023-08-16_08h38.50.218,HF_wild_card,2022.2.4,Win32,59.90176111,5c2f6d25e38ccd0001caab19,64d2fd46c836a06233681665,64dc7cf4cd581e52bf779d98,,,,,,,ctch,resources/DB.BMP,resources/DR.BMP,Door3,-0.311197917,-0.213541667,1,0,0,1.7129,optionLeft,70,9750,5,8,0,8,0,1,,,,,,,,,,,,,,,,,,,,,,,,,,,,,,,,,,,,,,,
,,,,,,,,2023-08-16_08h38.50.218,HF_wild_card,2022.2.4,Win32,59.90176111,5c2f6d25e38ccd0001caab19,64d2fd46c836a06233681665,64dc7cf4cd581e52bf779d98,,,,,,,ctch,resources/DR.BMP,resources/DB.BMP,Door3,0.598958333,-0.013020833,1,0,0,1.2585,optionRight,70,9820,5,9,0,9,0,1,,,,,,,,,,,,,,,,,,,,,,,,,,,,,,,,,,,,,,,
,,,,,,,,2023-08-16_08h38.50.218,HF_wild_card,2022.2.4,Win32,59.90176111,5c2f6d25e38ccd0001caab19,64d2fd46c836a06233681665,64dc7cf4cd581e52bf779d98,,,,,,,decisionTrl,resources/DB.BMP,resources/DBN.BMP,Door3,-0.276041667,-0.0390625,1,0,0,1.5097,optionLeft,70,9890,5,10,0,10,0,1,,,,,,,,,,,,,,,,,,,,,,,,,,,,,,,,,,,,,,,
,,,,,,,,2023-08-16_08h38.50.218,HF_wild_card,2022.2.4,Win32,59.90176111,5c2f6d25e38ccd0001caab19,64d2fd46c836a06233681665,64dc7cf4cd581e52bf779d98,,,,,,,ctch,resources/DP.BMP,resources/DY.BMP,Door4,0.23046875,0.006510417,1,0,0,1.0917,optionRight,80,9970,5,11,0,11,0,1,,,,,,,,,,,,,,,,,,,,,,,,,,,,,,,,,,,,,,,
,,,,,,,,2023-08-16_08h38.50.218,HF_wild_card,2022.2.4,Win32,59.90176111,5c2f6d25e38ccd0001caab19,64d2fd46c836a06233681665,64dc7cf4cd581e52bf779d98,,,,,,,decisionTrl,resources/DY.BMP,resources/DB.BMP,Door4,-0.265625,-0.044270833,1,0,0,0.8543,optionLeft,80,10050,5,12,0,12,0,1,,,,,,,,,,,,,,,,,,,,,,,,,,,,,,,,,,,,,,,
,,,,,,,,2023-08-16_08h38.50.218,HF_wild_card,2022.2.4,Win32,59.90176111,5c2f6d25e38ccd0001caab19,64d2fd46c836a06233681665,64dc7cf4cd581e52bf779d98,,,,,,,decisionTrl,resources/DBN.BMP,resources/DY.BMP,Door4,0.328125,-0.040364583,1,0,0,1.0194,optionRight,60,10110,5,13,0,13,0,1,,,,,,,,,,,,,,,,,,,,,,,,,,,,,,,,,,,,,,,
,,,,,,,,2023-08-16_08h38.50.218,HF_wild_card,2022.2.4,Win32,59.90176111,5c2f6d25e38ccd0001caab19,64d2fd46c836a06233681665,64dc7cf4cd581e52bf779d98,,,,,,,sngl,resources/Empty.png,resources/DY.BMP,Door4,0.303385417,-0.032552083,1,0,0,0.8265,optionRight,60,10170,5,14,0,14,0,1,,,,,,,,,,,,,,,,,,,,,,,,,,,,,,,,,,,,,,,
,,,,,,,,2023-08-16_08h38.50.218,HF_wild_card,2022.2.4,Win32,59.90176111,5c2f6d25e38ccd0001caab19,64d2fd46c836a06233681665,64dc7cf4cd581e52bf779d98,,,,,,,decisionTrl,resources/DP.BMP,resources/DBN.BMP,WildCard_Ex,0.302083333,-0.009114583,1,0,0,0.8585,optionRight,5,10175,5,15,0,15,0,1,,,,,,,,,,,,,,,,,,,,,,,,,,,,,,,,,,,,,,,
,,,,,,,,2023-08-16_08h38.50.218,HF_wild_card,2022.2.4,Win32,59.90176111,5c2f6d25e38ccd0001caab19,64d2fd46c836a06233681665,64dc7cf4cd581e52bf779d98,,,,,,,sngl,resources/Empty.png,resources/DB.BMP,Door3,0.36328125,0.00390625,1,0,0,0.8966,optionRight,70,10245,5,16,0,16,0,1,,,,,,,,,,,,,,,,,,,,,,,,,,,,,,,,,,,,,,,
,,,,,,,,2023-08-16_08h38.50.218,HF_wild_card,2022.2.4,Win32,59.90176111,5c2f6d25e38ccd0001caab19,64d2fd46c836a06233681665,64dc7cf4cd581e52bf779d98,,,,,,,ctch,resources/DY.BMP,resources/DP.BMP,Door4,-0.25,-0.049479167,1,0,0,0.9275,optionLeft,60,10305,5,17,0,17,0,1,,,,,,,,,,,,,,,,,,,,,,,,,,,,,,,,,,,,,,,
,,,,,,,,2023-08-16_08h38.50.218,HF_wild_card,2022.2.4,Win32,59.90176111,5c2f6d25e38ccd0001caab19,64d2fd46c836a06233681665,64dc7cf4cd581e52bf779d98,,,,,,,decisionTrl,resources/DY.BMP,resources/DB.BMP,Door4,-0.255208333,-0.0546875,1,0,0,0.7755,optionLeft,60,10365,5,18,0,18,0,1,,,,,,,,,,,,,,,,,,,,,,,,,,,,,,,,,,,,,,,
,,,,,,,,2023-08-16_08h38.50.218,HF_wild_card,2022.2.4,Win32,59.90176111,5c2f6d25e38ccd0001caab19,64d2fd46c836a06233681665,64dc7cf4cd581e52bf779d98,,,,,,,decisionTrl,resources/DBN.BMP,resources/DB.BMP,Door3,0.2890625,-0.03515625,1,0,0,1.8919,optionRight,70,10435,5,19,0,19,0,1,,,,,,,,,,,,,,,,,,,,,,,,,,,,,,,,,,,,,,,
,,,,,,,,2023-08-16_08h38.50.218,HF_wild_card,2022.2.4,Win32,59.90176111,5c2f6d25e38ccd0001caab19,64d2fd46c836a06233681665,64dc7cf4cd581e52bf779d98,,,,,,,decisionTrl,resources/DP.BMP,resources/DR.BMP,Door1,-0.440104167,-0.049479167,1,0,0,1.4465,optionLeft,30,10465,5,20,0,20,0,1,,,,,,,,,,,,,,,,,,,,,,,,,,,,,,,,,,,,,,,
,,,,,,,,2023-08-16_08h38.50.218,HF_wild_card,2022.2.4,Win32,59.90176111,5c2f6d25e38ccd0001caab19,64d2fd46c836a06233681665,64dc7cf4cd581e52bf779d98,,,,,,,decisionTrl,resources/DB.BMP,resources/DY.BMP,Door4,0.319010417,-0.032552083,1,0,0,0.9417,optionRight,80,10545,5,21,0,21,0,1,,,,,,,,,,,,,,,,,,,,,,,,,,,,,,,,,,,,,,,
,,,,,,,,2023-08-16_08h38.50.218,HF_wild_card,2022.2.4,Win32,59.90176111,5c2f6d25e38ccd0001caab19,64d2fd46c836a06233681665,64dc7cf4cd581e52bf779d98,,,,,,,ctch,resources/DB.BMP,resources/DR.BMP,Door3,-0.427083333,-0.110677083,1,0,0,1.1288,optionLeft,70,10615,5,22,0,22,0,1,,,,,,,,,,,,,,,,,,,,,,,,,,,,,,,,,,,,,,,
,,,,,,,,2023-08-16_08h38.50.218,HF_wild_card,2022.2.4,Win32,59.90176111,5c2f6d25e38ccd0001caab19,64d2fd46c836a06233681665,64dc7cf4cd581e52bf779d98,,,,,,,decisionTrl,resources/DR.BMP,resources/DP.BMP,Door1,0.389322917,-0.05078125,1,0,0,1.2118,optionRight,30,10645,5,23,0,23,0,1,,,,,,,,,,,,,,,,,,,,,,,,,,,,,,,,,,,,,,,
,,,,,,,,2023-08-16_08h38.50.218,HF_wild_card,2022.2.4,Win32,59.90176111,5c2f6d25e38ccd0001caab19,64d2fd46c836a06233681665,64dc7cf4cd581e52bf779d98,,,,,,,decisionTrl,resources/DBN.BMP,resources/DR.BMP,WildCard_Ex,-0.307291667,-0.049479167,1,0,0,1.4189,optionLeft,5,10650,5,24,0,24,0,1,,,,,,,,,,,,,,,,,,,,,,,,,,,,,,,,,,,,,,,
,,,,,,,,2023-08-16_08h38.50.218,HF_wild_card,2022.2.4,Win32,59.90176111,5c2f6d25e38ccd0001caab19,64d2fd46c836a06233681665,64dc7cf4cd581e52bf779d98,,,,,,,ctch,resources/DY.BMP,resources/DP.BMP,Door4,-0.411458333,-0.075520833,1,0,0,1.0275,optionLeft,60,10710,5,25,0,25,0,1,,,,,,,,,,,,,,,,,,,,,,,,,,,,,,,,,,,,,,,
,,,,,,,,2023-08-16_08h38.50.218,HF_wild_card,2022.2.4,Win32,59.90176111,5c2f6d25e38ccd0001caab19,64d2fd46c836a06233681665,64dc7cf4cd581e52bf779d98,,,,,,,ctch,resources/DP.BMP,resources/DY.BMP,Door4,0.333333333,-0.044270833,1,0,0,0.9244,optionRight,80,10790,5,26,0,26,0,1,,,,,,,,,,,,,,,,,,,,,,,,,,,,,,,,,,,,,,,
,,,,,,,,2023-08-16_08h38.50.218,HF_wild_card,2022.2.4,Win32,59.90176111,5c2f6d25e38ccd0001caab19,64d2fd46c836a06233681665,64dc7cf4cd581e52bf779d98,,,,,,,decisionTrl,resources/DY.BMP,resources/DB.BMP,Door4,-0.338541667,-0.057291667,1,0,0,0.9214,optionLeft,80,10870,5,27,0,27,0,1,,,,,,,,,,,,,,,,,,,,,,,,,,,,,,,,,,,,,,,
,,,,,,,,2023-08-16_08h38.50.218,HF_wild_card,2022.2.4,Win32,59.90176111,5c2f6d25e38ccd0001caab19,64d2fd46c836a06233681665,64dc7cf4cd581e52bf779d98,,,,,,,decisionTrl,resources/DB.BMP,resources/DY.BMP,Door4,0.3203125,-0.014322917,1,0,0,0.8192,optionRight,80,10950,5,28,0,28,0,1,,,,,,,,,,,,,,,,,,,,,,,,,,,,,,,,,,,,,,,
,,,,,,,,2023-08-16_08h38.50.218,HF_wild_card,2022.2.4,Win32,59.90176111,5c2f6d25e38ccd0001caab19,64d2fd46c836a06233681665,64dc7cf4cd581e52bf779d98,,,,,,,decisionTrl,resources/DBN.BMP,resources/DP.BMP,Door1,0.359375,-0.026041667,1,0,0,0.9638,optionRight,30,10980,5,29,0,29,0,1,,,,,,,,,,,,,,,,,,,,,,,,,,,,,,,,,,,,,,,
,,,,,,,,2023-08-16_08h38.50.218,HF_wild_card,2022.2.4,Win32,59.90176111,5c2f6d25e38ccd0001caab19,64d2fd46c836a06233681665,64dc7cf4cd581e52bf779d98,,,,,,,sngl,resources/DY.BMP,resources/Empty.png,Door4,-0.233072917,-0.044270833,1,0,0,0.8247,optionLeft,80,11060,5,30,0,30,0,1,,,,,,,,,,,,,,,,,,,,,,,,,,,,,,,,,,,,,,,
,,,,,,,,2023-08-16_08h38.50.218,HF_wild_card,2022.2.4,Win32,59.90176111,5c2f6d25e38ccd0001caab19,64d2fd46c836a06233681665,64dc7cf4cd581e52bf779d98,,,,,,,decisionTrl,resources/DB.BMP,resources/DY.BMP,Door4,0.2734375,-0.00390625,1,0,0,1.0227,optionRight,60,11120,5,31,0,31,0,1,,,,,,,,,,,,,,,,,,,,,,,,,,,,,,,,,,,,,,,
,,,,,,,,2023-08-16_08h38.50.218,HF_wild_card,2022.2.4,Win32,59.90176111,5c2f6d25e38ccd0001caab19,64d2fd46c836a06233681665,64dc7cf4cd581e52bf779d98,,,,,,,decisionTrl,resources/DR.BMP,resources/DP.BMP,Door1,0.294270833,-0.016927083,1,0,0,1.0408,optionRight,30,11150,5,32,0,32,0,1,,,,,,,,,,,,,,,,,,,,,,,,,,,,,,,,,,,,,,,
,,,,,,,,2023-08-16_08h38.50.218,HF_wild_card,2022.2.4,Win32,59.90176111,5c2f6d25e38ccd0001caab19,64d2fd46c836a06233681665,64dc7cf4cd581e52bf779d98,,,,,,,decisionTrl,resources/DP.BMP,resources/DR.BMP,Door1,-0.359375,-0.108072917,1,0,0,0.9342,optionLeft,30,11180,5,33,0,33,0,1,,,,,,,,,,,,,,,,,,,,,,,,,,,,,,,,,,,,,,,
,,,,,,,,2023-08-16_08h38.50.218,HF_wild_card,2022.2.4,Win32,59.90176111,5c2f6d25e38ccd0001caab19,64d2fd46c836a06233681665,64dc7cf4cd581e52bf779d98,,,,,,,sngl,resources/DB.BMP,resources/Empty.png,Door3,-0.298177083,-0.048177083,1,0,0,0.7834,optionLeft,70,11250,5,34,0,34,0,1,,,,,,,,,,,,,,,,,,,,,,,,,,,,,,,,,,,,,,,
,,,,,,,,2023-08-16_08h38.50.218,HF_wild_card,2022.2.4,Win32,59.90176111,5c2f6d25e38ccd0001caab19,64d2fd46c836a06233681665,64dc7cf4cd581e52bf779d98,,,,,,,decisionTrl,resources/DB.BMP,resources/DY.BMP,Door4,0.352864583,-0.0390625,1,0,0,0.7715,optionRight,80,11330,5,35,0,35,0,1,,,,,,,,,,,,,,,,,,,,,,,,,,,,,,,,,,,,,,,
,,,,,,,,2023-08-16_08h38.50.218,HF_wild_card,2022.2.4,Win32,59.90176111,5c2f6d25e38ccd0001caab19,64d2fd46c836a06233681665,64dc7cf4cd581e52bf779d98,,,,,,,decisionTrl,resources/DY.BMP,resources/DB.BMP,Door4,-0.305989583,-0.080729167,1,0,0,0.8183,optionLeft,60,11390,5,36,0,36,0,1,,,,,,,,,,,,,,,,,,,,,,,,,,,,,,,,,,,,,,,
,,,,,,,,2023-08-16_08h38.50.218,HF_wild_card,2022.2.4,Win32,59.90176111,5c2f6d25e38ccd0001caab19,64d2fd46c836a06233681665,64dc7cf4cd581e52bf779d98,,,,,,,sngl,resources/DR.BMP,resources/Empty.png,Door2,-0.2734375,-0.033854167,1,0,0,0.7873,optionLeft,40,11430,5,37,0,37,0,1,,,,,,,,,,,,,,,,,,,,,,,,,,,,,,,,,,,,,,,
,,,,,,,,2023-08-16_08h38.50.218,HF_wild_card,2022.2.4,Win32,59.90176111,5c2f6d25e38ccd0001caab19,64d2fd46c836a06233681665,64dc7cf4cd581e52bf779d98,,,,,,,decisionTrl,resources/DP.BMP,resources/DR.BMP,Door1,-0.32421875,-0.096354167,1,0,0,0.9291,optionLeft,30,11460,5,38,0,38,0,1,,,,,,,,,,,,,,,,,,,,,,,,,,,,,,,,,,,,,,,
,,,,,,,,2023-08-16_08h38.50.218,HF_wild_card,2022.2.4,Win32,59.90176111,5c2f6d25e38ccd0001caab19,64d2fd46c836a06233681665,64dc7cf4cd581e52bf779d98,,,,,,,sngl,resources/DBN.BMP,resources/Empty.png,WildCard_Ex,-0.3203125,-0.028645833,1,0,0,0.7243,optionLeft,5,11465,5,39,0,39,0,1,,,,,,,,,,,,,,,,,,,,,,,,,,,,,,,,,,,,,,,
,,,,,,,,2023-08-16_08h38.50.218,HF_wild_card,2022.2.4,Win32,59.90176111,5c2f6d25e38ccd0001caab19,64d2fd46c836a06233681665,64dc7cf4cd581e52bf779d98,,,,,,,decisionTrl,resources/DP.BMP,resources/DR.BMP,Door1,-0.276041667,-0.078125,1,0,0,0.8601,optionLeft,30,11495,5,40,0,40,0,1,,,,,,,,,,,,,,,,,,,,,,,,,,,,,,,,,,,,,,,
,,,,,,,,2023-08-16_08h38.50.218,HF_wild_card,2022.2.4,Win32,59.90176111,5c2f6d25e38ccd0001caab19,64d2fd46c836a06233681665,64dc7cf4cd581e52bf779d98,,,,,,,decisionTrl,resources/DR.BMP,resources/DBN.BMP,WildCard_Ex,0.453125,-0.0390625,1,0,0,1.4915,optionRight,95,11590,5,41,0,41,0,1,,,,,,,,,,,,,,,,,,,,,,,,,,,,,,,,,,,,,,,
,,,,,,,,2023-08-16_08h38.50.218,HF_wild_card,2022.2.4,Win32,59.90176111,5c2f6d25e38ccd0001caab19,64d2fd46c836a06233681665,64dc7cf4cd581e52bf779d98,,,,,,,ctch,resources/DR.BMP,resources/DB.BMP,Door3,0.436197917,-0.046875,1,0,0,1.7921,optionRight,70,11660,5,42,0,42,0,1,,,,,,,,,,,,,,,,,,,,,,,,,,,,,,,,,,,,,,,
,,,,,,,,2023-08-16_08h38.50.218,HF_wild_card,2022.2.4,Win32,59.90176111,5c2f6d25e38ccd0001caab19,64d2fd46c836a06233681665,64dc7cf4cd581e52bf779d98,,,,,,,sngl,resources/Empty.png,resources/DP.BMP,Door1,0.309895833,-0.016927083,1,0,0,0.8299,optionRight,30,11690,5,43,0,43,0,1,,,,,,,,,,,,,,,,,,,,,,,,,,,,,,,,,,,,,,,
,,,,,,,,2023-08-16_08h38.50.218,HF_wild_card,2022.2.4,Win32,59.90176111,5c2f6d25e38ccd0001caab19,64d2fd46c836a06233681665,64dc7cf4cd581e52bf779d98,,,,,,,,,,,,,,,,,,,,,,,,,,4,0,4,0,1,,,,,,,,,,,,,,,,,,,,,,,,,,,,,,,,,,
,,,,,,,,2023-08-16_08h38.50.218,HF_wild_card,2022.2.4,Win32,59.90176111,5c2f6d25e38ccd0001caab19,64d2fd46c836a06233681665,64dc7cf4cd581e52bf779d98,,,,,,,decisionTrl,resources/DR.BMP,resources/DBN.BMP,WildCard_Ex,0.31640625,-0.108072917,1,0,0,1.1561,optionRight,95,11785,6,0,0,0,0,1,,,,,,,,,,,,,,,,,,,,,,,,,,,,,,,,,,,,,,,
,,,,,,,,2023-08-16_08h38.50.218,HF_wild_card,2022.2.4,Win32,59.90176111,5c2f6d25e38ccd0001caab19,64d2fd46c836a06233681665,64dc7cf4cd581e52bf779d98,,,,,,,sngl,resources/Empty.png,resources/DBN.BMP,WildCard_Ex,0.380208333,-0.014322917,1,0,0,1.0587,optionRight,5,11790,6,1,0,1,0,1,,,,,,,,,,,,,,,,,,,,,,,,,,,,,,,,,,,,,,,
,,,,,,,,2023-08-16_08h38.50.218,HF_wild_card,2022.2.4,Win32,59.90176111,5c2f6d25e38ccd0001caab19,64d2fd46c836a06233681665,64dc7cf4cd581e52bf779d98,,,,,,,decisionTrl,resources/DY.BMP,resources/DB.BMP,Door4,-0.30859375,-0.0078125,1,0,0,0.7759,optionLeft,60,11850,6,2,0,2,0,1,,,,,,,,,,,,,,,,,,,,,,,,,,,,,,,,,,,,,,,
,,,,,,,,2023-08-16_08h38.50.218,HF_wild_card,2022.2.4,Win32,59.90176111,5c2f6d25e38ccd0001caab19,64d2fd46c836a06233681665,64dc7cf4cd581e52bf779d98,,,,,,,ctch,resources/DR.BMP,resources/DB.BMP,Door3,0.450520833,-0.0390625,1,0,0,1.7503,optionRight,70,11920,6,3,0,3,0,1,,,,,,,,,,,,,,,,,,,,,,,,,,,,,,,,,,,,,,,
,,,,,,,,2023-08-16_08h38.50.218,HF_wild_card,2022.2.4,Win32,59.90176111,5c2f6d25e38ccd0001caab19,64d2fd46c836a06233681665,64dc7cf4cd581e52bf779d98,,,,,,,decisionTrl,resources/DB.BMP,resources/DY.BMP,Door4,0.412760417,-0.002604167,1,0,0,0.8942,optionRight,60,11980,6,4,0,4,0,1,,,,,,,,,,,,,,,,,,,,,,,,,,,,,,,,,,,,,,,
,,,,,,,,2023-08-16_08h38.50.218,HF_wild_card,2022.2.4,Win32,59.90176111,5c2f6d25e38ccd0001caab19,64d2fd46c836a06233681665,64dc7cf4cd581e52bf779d98,,,,,,,ctch,resources/DP.BMP,resources/DY.BMP,Door4,0.290364583,-0.03125,1,0,0,0.7607,optionRight,80,12060,6,5,0,5,0,1,,,,,,,,,,,,,,,,,,,,,,,,,,,,,,,,,,,,,,,
,,,,,,,,2023-08-16_08h38.50.218,HF_wild_card,2022.2.4,Win32,59.90176111,5c2f6d25e38ccd0001caab19,64d2fd46c836a06233681665,64dc7cf4cd581e52bf779d98,,,,,,,sngl,resources/DP.BMP,resources/Empty.png,Door1,-0.27734375,-0.01953125,1,0,0,0.7936,optionLeft,30,12090,6,6,0,6,0,1,,,,,,,,,,,,,,,,,,,,,,,,,,,,,,,,,,,,,,,
,,,,,,,,2023-08-16_08h38.50.218,HF_wild_card,2022.2.4,Win32,59.90176111,5c2f6d25e38ccd0001caab19,64d2fd46c836a06233681665,64dc7cf4cd581e52bf779d98,,,,,,,decisionTrl,resources/DR.BMP,resources/DP.BMP,Door1,0.28125,-0.040364583,1,0,0,0.8586,optionRight,30,12120,6,7,0,7,0,1,,,,,,,,,,,,,,,,,,,,,,,,,,,,,,,,,,,,,,,
,,,,,,,,2023-08-16_08h38.50.218,HF_wild_card,2022.2.4,Win32,59.90176111,5c2f6d25e38ccd0001caab19,64d2fd46c836a06233681665,64dc7cf4cd581e52bf779d98,,,,,,,decisionTrl,resources/DB.BMP,resources/DY.BMP,Door4,0.368489583,-0.01171875,1,0,0,0.7136,optionRight,80,12200,6,8,0,8,0,1,,,,,,,,,,,,,,,,,,,,,,,,,,,,,,,,,,,,,,,
,,,,,,,,2023-08-16_08h38.50.218,HF_wild_card,2022.2.4,Win32,59.90176111,5c2f6d25e38ccd0001caab19,64d2fd46c836a06233681665,64dc7cf4cd581e52bf779d98,,,,,,,sngl,resources/Empty.png,resources/DB.BMP,Door3,0.37109375,-0.033854167,1,0,0,0.7091,optionRight,70,12270,6,9,0,9,0,1,,,,,,,,,,,,,,,,,,,,,,,,,,,,,,,,,,,,,,,
,,,,,,,,2023-08-16_08h38.50.218,HF_wild_card,2022.2.4,Win32,59.90176111,5c2f6d25e38ccd0001caab19,64d2fd46c836a06233681665,64dc7cf4cd581e52bf779d98,,,,,,,sngl,resources/DR.BMP,resources/Empty.png,Door2,-0.311197917,-0.024739583,1,0,0,0.8108,optionLeft,20,12290,6,10,0,10,0,1,,,,,,,,,,,,,,,,,,,,,,,,,,,,,,,,,,,,,,,
,,,,,,,,2023-08-16_08h38.50.218,HF_wild_card,2022.2.4,Win32,59.90176111,5c2f6d25e38ccd0001caab19,64d2fd46c836a06233681665,64dc7cf4cd581e52bf779d98,,,,,,,ctch,resources/DY.BMP,resources/DP.BMP,Door4,-0.358072917,-0.0625,1,0,0,0.8596,optionLeft,60,12350,6,11,0,11,0,1,,,,,,,,,,,,,,,,,,,,,,,,,,,,,,,,,,,,,,,
,,,,,,,,2023-08-16_08h38.50.218,HF_wild_card,2022.2.4,Win32,59.90176111,5c2f6d25e38ccd0001caab19,64d2fd46c836a06233681665,64dc7cf4cd581e52bf779d98,,,,,,,decisionTrl,resources/DP.BMP,resources/DR.BMP,Door1,-0.41015625,-0.095052083,1,0,0,1.008,optionLeft,30,12380,6,12,0,12,0,1,,,,,,,,,,,,,,,,,,,,,,,,,,,,,,,,,,,,,,,
,,,,,,,,2023-08-16_08h38.50.218,HF_wild_card,2022.2.4,Win32,59.90176111,5c2f6d25e38ccd0001caab19,64d2fd46c836a06233681665,64dc7cf4cd581e52bf779d98,,,,,,,sngl,resources/DBN.BMP,resources/Empty.png,WildCard_Ex,-0.315104167,-0.048177083,1,0,0,0.7084,optionLeft,95,12475,6,13,0,13,0,1,,,,,,,,,,,,,,,,,,,,,,,,,,,,,,,,,,,,,,,
,,,,,,,,2023-08-16_08h38.50.218,HF_wild_card,2022.2.4,Win32,59.90176111,5c2f6d25e38ccd0001caab19,64d2fd46c836a06233681665,64dc7cf4cd581e52bf779d98,,,,,,,decisionTrl,resources/DR.BMP,resources/DP.BMP,Door1,0.26171875,-0.0078125,1,0,0,1.4688,optionRight,30,12505,6,14,0,14,0,1,,,,,,,,,,,,,,,,,,,,,,,,,,,,,,,,,,,,,,,
,,,,,,,,2023-08-16_08h38.50.218,HF_wild_card,2022.2.4,Win32,59.90176111,5c2f6d25e38ccd0001caab19,64d2fd46c836a06233681665,64dc7cf4cd581e52bf779d98,,,,,,,decisionTrl,resources/DP.BMP,resources/DR.BMP,Door1,-0.350260417,-0.055989583,1,0,0,1.0917,optionLeft,30,12535,6,15,0,15,0,1,,,,,,,,,,,,,,,,,,,,,,,,,,,,,,,,,,,,,,,
,,,,,,,,2023-08-16_08h38.50.218,HF_wild_card,2022.2.4,Win32,59.90176111,5c2f6d25e38ccd0001caab19,64d2fd46c836a06233681665,64dc7cf4cd581e52bf779d98,,,,,,,ctch,resources/DR.BMP,resources/DB.BMP,Door3,0.369791667,-0.032552083,1,0,0,1.0837,optionRight,70,12605,6,16,0,16,0,1,,,,,,,,,,,,,,,,,,,,,,,,,,,,,,,,,,,,,,,
,,,,,,,,2023-08-16_08h38.50.218,HF_wild_card,2022.2.4,Win32,59.90176111,5c2f6d25e38ccd0001caab19,64d2fd46c836a06233681665,64dc7cf4cd581e52bf779d98,,,,,,,decisionTrl,resources/DBN.BMP,resources/DP.BMP,Door1,0.481770833,0.001302083,1,0,0,1.0353,optionRight,30,12635,6,17,0,17,0,1,,,,,,,,,,,,,,,,,,,,,,,,,,,,,,,,,,,,,,,
,,,,,,,,2023-08-16_08h38.50.218,HF_wild_card,2022.2.4,Win32,59.90176111,5c2f6d25e38ccd0001caab19,64d2fd46c836a06233681665,64dc7cf4cd581e52bf779d98,,,,,,,sngl,resources/DB.BMP,resources/Empty.png,Door3,-0.309895833,-0.026041667,1,0,0,0.8097,optionLeft,70,12705,6,18,0,18,0,1,,,,,,,,,,,,,,,,,,,,,,,,,,,,,,,,,,,,,,,
,,,,,,,,2023-08-16_08h38.50.218,HF_wild_card,2022.2.4,Win32,59.90176111,5c2f6d25e38ccd0001caab19,64d2fd46c836a06233681665,64dc7cf4cd581e52bf779d98,,,,,,,decisionTrl,resources/DBN.BMP,resources/DB.BMP,WildCard_Ex,-0.408854167,-0.092447917,1,0,0,1.6221,optionLeft,95,12800,6,19,0,19,0,1,,,,,,,,,,,,,,,,,,,,,,,,,,,,,,,,,,,,,,,
,,,,,,,,2023-08-16_08h38.50.218,HF_wild_card,2022.2.4,Win32,59.90176111,5c2f6d25e38ccd0001caab19,64d2fd46c836a06233681665,64dc7cf4cd581e52bf779d98,,,,,,,decisionTrl,resources/DB.BMP,resources/DY.BMP,Door4,0.29296875,-0.014322917,1,0,0,0.8942,optionRight,80,12880,6,20,0,20,0,1,,,,,,,,,,,,,,,,,,,,,,,,,,,,,,,,,,,,,,,
,,,,,,,,2023-08-16_08h38.50.218,HF_wild_card,2022.2.4,Win32,59.90176111,5c2f6d25e38ccd0001caab19,64d2fd46c836a06233681665,64dc7cf4cd581e52bf779d98,,,,,,,decisionTrl,resources/DY.BMP,resources/DB.BMP,Door4,-0.2734375,-0.036458333,1,0,0,0.7832,optionLeft,60,12940,6,21,0,21,0,1,,,,,,,,,,,,,,,,,,,,,,,,,,,,,,,,,,,,,,,
,,,,,,,,2023-08-16_08h38.50.218,HF_wild_card,2022.2.4,Win32,59.90176111,5c2f6d25e38ccd0001caab19,64d2fd46c836a06233681665,64dc7cf4cd581e52bf779d98,,,,,,,sngl,resources/Empty.png,resources/DY.BMP,Door4,0.342447917,-0.033854167,1,0,0,0.7434,optionRight,80,13020,6,22,0,22,0,1,,,,,,,,,,,,,,,,,,,,,,,,,,,,,,,,,,,,,,,
,,,,,,,,2023-08-16_08h38.50.218,HF_wild_card,2022.2.4,Win32,59.90176111,5c2f6d25e38ccd0001caab19,64d2fd46c836a06233681665,64dc7cf4cd581e52bf779d98,,,,,,,sngl,resources/DY.BMP,resources/Empty.png,Door4,-0.278645833,-0.046875,1,0,0,0.7411,optionLeft,60,13080,6,23,0,23,0,1,,,,,,,,,,,,,,,,,,,,,,,,,,,,,,,,,,,,,,,
,,,,,,,,2023-08-16_08h38.50.218,HF_wild_card,2022.2.4,Win32,59.90176111,5c2f6d25e38ccd0001caab19,64d2fd46c836a06233681665,64dc7cf4cd581e52bf779d98,,,,,,,decisionTrl,resources/DR.BMP,resources/DP.BMP,Door1,0.26953125,-0.026041667,1,0,0,1.0936,optionRight,30,13110,6,24,0,24,0,1,,,,,,,,,,,,,,,,,,,,,,,,,,,,,,,,,,,,,,,
,,,,,,,,2023-08-16_08h38.50.218,HF_wild_card,2022.2.4,Win32,59.90176111,5c2f6d25e38ccd0001caab19,64d2fd46c836a06233681665,64dc7cf4cd581e52bf779d98,,,,,,,sngl,resources/Empty.png,resources/DBN.BMP,WildCard_Ex,0.303385417,-0.0234375,1,0,0,0.7752,optionRight,95,13205,6,25,0,25,0,1,,,,,,,,,,,,,,,,,,,,,,,,,,,,,,,,,,,,,,,
,,,,,,,,2023-08-16_08h38.50.218,HF_wild_card,2022.2.4,Win32,59.90176111,5c2f6d25e38ccd0001caab19,64d2fd46c836a06233681665,64dc7cf4cd581e52bf779d98,,,,,,,ctch,resources/DP.BMP,resources/DY.BMP,Door4,0.337239583,-0.080729167,1,0,0,0.8249,optionRight,80,13285,6,26,0,26,0,1,,,,,,,,,,,,,,,,,,,,,,,,,,,,,,,,,,,,,,,
,,,,,,,,2023-08-16_08h38.50.218,HF_wild_card,2022.2.4,Win32,59.90176111,5c2f6d25e38ccd0001caab19,64d2fd46c836a06233681665,64dc7cf4cd581e52bf779d98,,,,,,,decisionTrl,resources/DY.BMP,resources/DB.BMP,Door4,-0.311197917,-0.044270833,1,0,0,0.7913,optionLeft,80,13365,6,27,0,27,0,1,,,,,,,,,,,,,,,,,,,,,,,,,,,,,,,,,,,,,,,
,,,,,,,,2023-08-16_08h38.50.218,HF_wild_card,2022.2.4,Win32,59.90176111,5c2f6d25e38ccd0001caab19,64d2fd46c836a06233681665,64dc7cf4cd581e52bf779d98,,,,,,,decisionTrl,resources/DP.BMP,resources/DBN.BMP,Door1,-0.251302083,-0.078125,1,0,0,1.2246,optionLeft,30,13395,6,28,0,28,0,1,,,,,,,,,,,,,,,,,,,,,,,,,,,,,,,,,,,,,,,
,,,,,,,,2023-08-16_08h38.50.218,HF_wild_card,2022.2.4,Win32,59.90176111,5c2f6d25e38ccd0001caab19,64d2fd46c836a06233681665,64dc7cf4cd581e52bf779d98,,,,,,,decisionTrl,resources/DY.BMP,resources/DBN.BMP,WildCard_Ex,0.354166667,-0.045572917,1,0,0,1.0446,optionRight,5,13400,6,29,0,29,0,1,,,,,,,,,,,,,,,,,,,,,,,,,,,,,,,,,,,,,,,
,,,,,,,,2023-08-16_08h38.50.218,HF_wild_card,2022.2.4,Win32,59.90176111,5c2f6d25e38ccd0001caab19,64d2fd46c836a06233681665,64dc7cf4cd581e52bf779d98,,,,,,,ctch,resources/DY.BMP,resources/DP.BMP,Door4,-0.182291667,-0.029947917,1,0,0,0.6087,optionLeft,60,13460,6,30,0,30,0,1,,,,,,,,,,,,,,,,,,,,,,,,,,,,,,,,,,,,,,,
,,,,,,,,2023-08-16_08h38.50.218,HF_wild_card,2022.2.4,Win32,59.90176111,5c2f6d25e38ccd0001caab19,64d2fd46c836a06233681665,64dc7cf4cd581e52bf779d98,,,,,,,ctch,resources/DB.BMP,resources/DR.BMP,Door3,-0.364583333,-0.0859375,1,0,0,1.0245,optionLeft,70,13530,6,31,0,31,0,1,,,,,,,,,,,,,,,,,,,,,,,,,,,,,,,,,,,,,,,
,,,,,,,,2023-08-16_08h38.50.218,HF_wild_card,2022.2.4,Win32,59.90176111,5c2f6d25e38ccd0001caab19,64d2fd46c836a06233681665,64dc7cf4cd581e52bf779d98,,,,,,,decisionTrl,resources/DBN.BMP,resources/DR.BMP,WildCard_Ex,-0.326822917,-0.044270833,1,0,0,1.1078,optionLeft,5,13535,6,32,0,32,0,1,,,,,,,,,,,,,,,,,,,,,,,,,,,,,,,,,,,,,,,
,,,,,,,,2023-08-16_08h38.50.218,HF_wild_card,2022.2.4,Win32,59.90176111,5c2f6d25e38ccd0001caab19,64d2fd46c836a06233681665,64dc7cf4cd581e52bf779d98,,,,,,,sngl,resources/Empty.png,resources/DR.BMP,Door2,0.309895833,-0.02734375,1,0,0,0.6895,optionRight,40,13575,6,33,0,33,0,1,,,,,,,,,,,,,,,,,,,,,,,,,,,,,,,,,,,,,,,
,,,,,,,,2023-08-16_08h38.50.218,HF_wild_card,2022.2.4,Win32,59.90176111,5c2f6d25e38ccd0001caab19,64d2fd46c836a06233681665,64dc7cf4cd581e52bf779d98,,,,,,,decisionTrl,resources/DR.BMP,resources/DP.BMP,Door1,0.32421875,-0.0546875,1,0,0,1.2424,optionRight,30,13605,6,34,0,34,0,1,,,,,,,,,,,,,,,,,,,,,,,,,,,,,,,,,,,,,,,
,,,,,,,,2023-08-16_08h38.50.218,HF_wild_card,2022.2.4,Win32,59.90176111,5c2f6d25e38ccd0001caab19,64d2fd46c836a06233681665,64dc7cf4cd581e52bf779d98,,,,,,,sngl,resources/DBN.BMP,resources/Empty.png,WildCard_Ex,-0.3671875,-0.065104167,1,0,0,0.6594,optionLeft,5,13610,6,35,0,35,0,1,,,,,,,,,,,,,,,,,,,,,,,,,,,,,,,,,,,,,,,
,,,,,,,,2023-08-16_08h38.50.218,HF_wild_card,2022.2.4,Win32,59.90176111,5c2f6d25e38ccd0001caab19,64d2fd46c836a06233681665,64dc7cf4cd581e52bf779d98,,,,,,,decisionTrl,resources/DB.BMP,resources/DY.BMP,Door4,0.356770833,-0.028645833,1,0,0,0.9442,optionRight,60,13670,6,36,0,36,0,1,,,,,,,,,,,,,,,,,,,,,,,,,,,,,,,,,,,,,,,
,,,,,,,,2023-08-16_08h38.50.218,HF_wild_card,2022.2.4,Win32,59.90176111,5c2f6d25e38ccd0001caab19,64d2fd46c836a06233681665,64dc7cf4cd581e52bf779d98,,,,,,,decisionTrl,resources/DP.BMP,resources/DR.BMP,Door1,-0.002604167,0.005208333,1,0,0,0.6001,optionLeft,30,13700,6,37,0,37,0,1,,,,,,,,,,,,,,,,,,,,,,,,,,,,,,,,,,,,,,,
,,,,,,,,2023-08-16_08h38.50.218,HF_wild_card,2022.2.4,Win32,59.90176111,5c2f6d25e38ccd0001caab19,64d2fd46c836a06233681665,64dc7cf4cd581e52bf779d98,,,,,,,decisionTrl,resources/DP.BMP,resources/DR.BMP,Door1,-0.305989583,-0.055989583,1,0,0,0.8087,optionLeft,30,13730,6,38,0,38,0,1,,,,,,,,,,,,,,,,,,,,,,,,,,,,,,,,,,,,,,,
,,,,,,,,2023-08-16_08h38.50.218,HF_wild_card,2022.2.4,Win32,59.90176111,5c2f6d25e38ccd0001caab19,64d2fd46c836a06233681665,64dc7cf4cd581e52bf779d98,,,,,,,ctch,resources/DB.BMP,resources/DR.BMP,Door3,-0.31640625,-0.03125,1,0,0,0.9834,optionLeft,70,13800,6,39,0,39,0,1,,,,,,,,,,,,,,,,,,,,,,,,,,,,,,,,,,,,,,,
,,,,,,,,2023-08-16_08h38.50.218,HF_wild_card,2022.2.4,Win32,59.90176111,5c2f6d25e38ccd0001caab19,64d2fd46c836a06233681665,64dc7cf4cd581e52bf779d98,,,,,,,decisionTrl,resources/DB.BMP,resources/DBN.BMP,Door3,-0.358072917,-0.05859375,1,0,0,0.7764,optionLeft,70,13870,6,40,0,40,0,1,,,,,,,,,,,,,,,,,,,,,,,,,,,,,,,,,,,,,,,
,,,,,,,,2023-08-16_08h38.50.218,HF_wild_card,2022.2.4,Win32,59.90176111,5c2f6d25e38ccd0001caab19,64d2fd46c836a06233681665,64dc7cf4cd581e52bf779d98,,,,,,,decisionTrl,resources/DY.BMP,resources/DB.BMP,Door4,-0.337239583,-0.063802083,1,0,0,0.7255,optionLeft,60,13930,6,41,0,41,0,1,,,,,,,,,,,,,,,,,,,,,,,,,,,,,,,,,,,,,,,
,,,,,,,,2023-08-16_08h38.50.218,HF_wild_card,2022.2.4,Win32,59.90176111,5c2f6d25e38ccd0001caab19,64d2fd46c836a06233681665,64dc7cf4cd581e52bf779d98,,,,,,,sngl,resources/Empty.png,resources/DP.BMP,Door1,0.321614583,-0.03125,1,0,0,0.6773,optionRight,30,13960,6,42,0,42,0,1,,,,,,,,,,,,,,,,,,,,,,,,,,,,,,,,,,,,,,,
,,,,,,,,2023-08-16_08h38.50.218,HF_wild_card,2022.2.4,Win32,59.90176111,5c2f6d25e38ccd0001caab19,64d2fd46c836a06233681665,64dc7cf4cd581e52bf779d98,,,,,,,decisionTrl,resources/DBN.BMP,resources/DY.BMP,WildCard_Ex,-0.341145833,-0.014322917,1,0,0,1.1591,optionLeft,95,14055,6,43,0,43,0,1,,,,,,,,,,,,,,,,,,,,,,,,,,,,,,,,,,,,,,,
,,,,,,,,2023-08-16_08h38.50.218,HF_wild_card,2022.2.4,Win32,59.90176111,5c2f6d25e38ccd0001caab19,64d2fd46c836a06233681665,64dc7cf4cd581e52bf779d98,,,,,,,,,,,,,,,,,,,,,,,,,,5,0,5,0,1,,,,,,,,,,,,,,,,,,,,,,,,,,,,,,,,,,
,,,,,,,,2023-08-16_08h38.50.218,HF_wild_card,2022.2.4,Win32,59.90176111,5c2f6d25e38ccd0001caab19,64d2fd46c836a06233681665,64dc7cf4cd581e52bf779d98,,,,,,,ctch,resources/DY.BMP,resources/DP.BMP,Door4,-0.325520833,-0.092447917,1,0,0,0.9428,optionLeft,60,14115,7,0,0,0,0,1,,,,,,,,,,,,,,,,,,,,,,,,,,,,,,,,,,,,,,,
,,,,,,,,2023-08-16_08h38.50.218,HF_wild_card,2022.2.4,Win32,59.90176111,5c2f6d25e38ccd0001caab19,64d2fd46c836a06233681665,64dc7cf4cd581e52bf779d98,,,,,,,decisionTrl,resources/DY.BMP,resources/DB.BMP,Door4,-0.377604167,-0.033854167,1,0,0,1.0467,optionLeft,60,14175,7,1,0,1,0,1,,,,,,,,,,,,,,,,,,,,,,,,,,,,,,,,,,,,,,,
,,,,,,,,2023-08-16_08h38.50.218,HF_wild_card,2022.2.4,Win32,59.90176111,5c2f6d25e38ccd0001caab19,64d2fd46c836a06233681665,64dc7cf4cd581e52bf779d98,,,,,,,decisionTrl,resources/DR.BMP,resources/DP.BMP,Door1,0.346354167,-0.018229167,1,0,0,0.8641,optionRight,30,14205,7,2,0,2,0,1,,,,,,,,,,,,,,,,,,,,,,,,,,,,,,,,,,,,,,,
,,,,,,,,2023-08-16_08h38.50.218,HF_wild_card,2022.2.4,Win32,59.90176111,5c2f6d25e38ccd0001caab19,64d2fd46c836a06233681665,64dc7cf4cd581e52bf779d98,,,,,,,ctch,resources/DP.BMP,resources/DY.BMP,Door4,0.29296875,-0.02734375,1,0,0,1.0386,optionRight,60,14265,7,3,0,3,0,1,,,,,,,,,,,,,,,,,,,,,,,,,,,,,,,,,,,,,,,
,,,,,,,,2023-08-16_08h38.50.218,HF_wild_card,2022.2.4,Win32,59.90176111,5c2f6d25e38ccd0001caab19,64d2fd46c836a06233681665,64dc7cf4cd581e52bf779d98,,,,,,,ctch,resources/DB.BMP,resources/DR.BMP,Door3,-0.30078125,-0.026041667,1,0,0,1.1287,optionLeft,70,14335,7,4,0,4,0,1,,,,,,,,,,,,,,,,,,,,,,,,,,,,,,,,,,,,,,,
,,,,,,,,2023-08-16_08h38.50.218,HF_wild_card,2022.2.4,Win32,59.90176111,5c2f6d25e38ccd0001caab19,64d2fd46c836a06233681665,64dc7cf4cd581e52bf779d98,,,,,,,ctch,resources/DB.BMP,resources/DR.BMP,Door3,-0.375,-0.0546875,1,0,0,1.5204,optionLeft,70,14405,7,5,0,5,0,1,,,,,,,,,,,,,,,,,,,,,,,,,,,,,,,,,,,,,,,
,,,,,,,,2023-08-16_08h38.50.218,HF_wild_card,2022.2.4,Win32,59.90176111,5c2f6d25e38ccd0001caab19,64d2fd46c836a06233681665,64dc7cf4cd581e52bf779d98,,,,,,,decisionTrl,resources/DY.BMP,resources/DB.BMP,Door4,-0.299479167,-0.024739583,1,0,0,0.9517,optionLeft,80,14485,7,6,0,6,0,1,,,,,,,,,,,,,,,,,,,,,,,,,,,,,,,,,,,,,,,
,,,,,,,,2023-08-16_08h38.50.218,HF_wild_card,2022.2.4,Win32,59.90176111,5c2f6d25e38ccd0001caab19,64d2fd46c836a06233681665,64dc7cf4cd581e52bf779d98,,,,,,,decisionTrl,resources/DB.BMP,resources/DY.BMP,Door4,0.37109375,-0.052083333,1,0,0,1.413,optionRight,80,14565,7,7,0,7,0,1,,,,,,,,,,,,,,,,,,,,,,,,,,,,,,,,,,,,,,,
,,,,,,,,2023-08-16_08h38.50.218,HF_wild_card,2022.2.4,Win32,59.90176111,5c2f6d25e38ccd0001caab19,64d2fd46c836a06233681665,64dc7cf4cd581e52bf779d98,,,,,,,ctch,resources/DP.BMP,resources/DY.BMP,Door4,0.3203125,-0.032552083,1,0,0,0.7587,optionRight,60,14625,7,8,0,8,0,1,,,,,,,,,,,,,,,,,,,,,,,,,,,,,,,,,,,,,,,
,,,,,,,,2023-08-16_08h38.50.218,HF_wild_card,2022.2.4,Win32,59.90176111,5c2f6d25e38ccd0001caab19,64d2fd46c836a06233681665,64dc7cf4cd581e52bf779d98,,,,,,,decisionTrl,resources/DB.BMP,resources/DY.BMP,Door4,0.325520833,-0.053385417,1,0,0,0.7673,optionRight,80,14705,7,9,0,9,0,1,,,,,,,,,,,,,,,,,,,,,,,,,,,,,,,,,,,,,,,
,,,,,,,,2023-08-16_08h38.50.218,HF_wild_card,2022.2.4,Win32,59.90176111,5c2f6d25e38ccd0001caab19,64d2fd46c836a06233681665,64dc7cf4cd581e52bf779d98,,,,,,,decisionTrl,resources/DY.BMP,resources/DB.BMP,Door4,-0.364583333,-0.026041667,1,0,0,0.9099,optionLeft,60,14765,7,10,0,10,0,1,,,,,,,,,,,,,,,,,,,,,,,,,,,,,,,,,,,,,,,
,,,,,,,,2023-08-16_08h38.50.218,HF_wild_card,2022.2.4,Win32,59.90176111,5c2f6d25e38ccd0001caab19,64d2fd46c836a06233681665,64dc7cf4cd581e52bf779d98,,,,,,,ctch,resources/DB.BMP,resources/DR.BMP,Door3,-0.326822917,-0.0390625,1,0,0,1.1454,optionLeft,70,14835,7,11,0,11,0,1,,,,,,,,,,,,,,,,,,,,,,,,,,,,,,,,,,,,,,,
,,,,,,,,2023-08-16_08h38.50.218,HF_wild_card,2022.2.4,Win32,59.90176111,5c2f6d25e38ccd0001caab19,64d2fd46c836a06233681665,64dc7cf4cd581e52bf779d98,,,,,,,ctch,resources/DR.BMP,resources/DB.BMP,Door3,0.315104167,-0.020833333,1,0,0,0.8984,optionRight,70,14905,7,12,0,12,0,1,,,,,,,,,,,,,,,,,,,,,,,,,,,,,,,,,,,,,,,
,,,,,,,,2023-08-16_08h38.50.218,HF_wild_card,2022.2.4,Win32,59.90176111,5c2f6d25e38ccd0001caab19,64d2fd46c836a06233681665,64dc7cf4cd581e52bf779d98,,,,,,,decisionTrl,resources/DP.BMP,resources/DR.BMP,Door1,-0.309895833,-0.028645833,1,0,0,0.8653,optionLeft,30,14935,7,13,0,13,0,1,,,,,,,,,,,,,,,,,,,,,,,,,,,,,,,,,,,,,,,
,,,,,,,,2023-08-16_08h38.50.218,HF_wild_card,2022.2.4,Win32,59.90176111,5c2f6d25e38ccd0001caab19,64d2fd46c836a06233681665,64dc7cf4cd581e52bf779d98,,,,,,,decisionTrl,resources/DB.BMP,resources/DY.BMP,Door4,0.3203125,-0.0390625,1,0,0,1.7296,optionRight,60,14995,7,14,0,14,0,1,,,,,,,,,,,,,,,,,,,,,,,,,,,,,,,,,,,,,,,
,,,,,,,,2023-08-16_08h38.50.218,HF_wild_card,2022.2.4,Win32,59.90176111,5c2f6d25e38ccd0001caab19,64d2fd46c836a06233681665,64dc7cf4cd581e52bf779d98,,,,,,,ctch,resources/DP.BMP,resources/DY.BMP,Door4,0.265625,-0.024739583,1,0,0,0.8773,optionRight,60,15055,7,15,0,15,0,1,,,,,,,,,,,,,,,,,,,,,,,,,,,,,,,,,,,,,,,
,,,,,,,,2023-08-16_08h38.50.218,HF_wild_card,2022.2.4,Win32,59.90176111,5c2f6d25e38ccd0001caab19,64d2fd46c836a06233681665,64dc7cf4cd581e52bf779d98,,,,,,,decisionTrl,resources/DB.BMP,resources/DY.BMP,Door4,0.303385417,-0.014322917,1,0,0,0.8439,optionRight,80,15135,7,16,0,16,0,1,,,,,,,,,,,,,,,,,,,,,,,,,,,,,,,,,,,,,,,
,,,,,,,,2023-08-16_08h38.50.218,HF_wild_card,2022.2.4,Win32,59.90176111,5c2f6d25e38ccd0001caab19,64d2fd46c836a06233681665,64dc7cf4cd581e52bf779d98,,,,,,,decisionTrl,resources/DP.BMP,resources/DR.BMP,Door1,-0.346354167,-0.037760417,1,0,0,0.9796,optionLeft,30,15165,7,17,0,17,0,1,,,,,,,,,,,,,,,,,,,,,,,,,,,,,,,,,,,,,,,
,,,,,,,,2023-08-16_08h38.50.218,HF_wild_card,2022.2.4,Win32,59.90176111,5c2f6d25e38ccd0001caab19,64d2fd46c836a06233681665,64dc7cf4cd581e52bf779d98,,,,,,,ctch,resources/DY.BMP,resources/DP.BMP,Door4,-0.307291667,-0.018229167,1,0,0,0.7802,optionLeft,80,15245,7,18,0,18,0,1,,,,,,,,,,,,,,,,,,,,,,,,,,,,,,,,,,,,,,,
,,,,,,,,2023-08-16_08h38.50.218,HF_wild_card,2022.2.4,Win32,59.90176111,5c2f6d25e38ccd0001caab19,64d2fd46c836a06233681665,64dc7cf4cd581e52bf779d98,,,,,,,decisionTrl,resources/DR.BMP,resources/DP.BMP,Door1,0.385416667,-0.032552083,1,0,0,1.0285,optionRight,30,15275,7,19,0,19,0,1,,,,,,,,,,,,,,,,,,,,,,,,,,,,,,,,,,,,,,,
,,,,,,,,2023-08-16_08h38.50.218,HF_wild_card,2022.2.4,Win32,59.90176111,5c2f6d25e38ccd0001caab19,64d2fd46c836a06233681665,64dc7cf4cd581e52bf779d98,,,,,,,decisionTrl,resources/DY.BMP,resources/DB.BMP,Door4,-0.307291667,-0.061197917,1,0,0,0.7437,optionLeft,60,15335,7,20,0,20,0,1,,,,,,,,,,,,,,,,,,,,,,,,,,,,,,,,,,,,,,,
,,,,,,,,2023-08-16_08h38.50.218,HF_wild_card,2022.2.4,Win32,59.90176111,5c2f6d25e38ccd0001caab19,64d2fd46c836a06233681665,64dc7cf4cd581e52bf779d98,,,,,,,decisionTrl,resources/DR.BMP,resources/DP.BMP,Door1,0.334635417,-0.111979167,1,0,0,0.9311,optionRight,30,15365,7,21,0,21,0,1,,,,,,,,,,,,,,,,,,,,,,,,,,,,,,,,,,,,,,,
,,,,,,,,2023-08-16_08h38.50.218,HF_wild_card,2022.2.4,Win32,59.90176111,5c2f6d25e38ccd0001caab19,64d2fd46c836a06233681665,64dc7cf4cd581e52bf779d98,,,,,,,ctch,resources/DR.BMP,resources/DB.BMP,Door3,0.201822917,-0.084635417,1,0,0,1.1634,optionRight,70,15435,7,22,0,22,0,1,,,,,,,,,,,,,,,,,,,,,,,,,,,,,,,,,,,,,,,
,,,,,,,,2023-08-16_08h38.50.218,HF_wild_card,2022.2.4,Win32,59.90176111,5c2f6d25e38ccd0001caab19,64d2fd46c836a06233681665,64dc7cf4cd581e52bf779d98,,,,,,,decisionTrl,resources/DP.BMP,resources/DR.BMP,Door1,-0.259114583,-0.076822917,1,0,0,0.743,optionLeft,30,15465,7,23,0,23,0,1,,,,,,,,,,,,,,,,,,,,,,,,,,,,,,,,,,,,,,,
,,,,,,,,2023-08-16_08h38.50.218,HF_wild_card,2022.2.4,Win32,59.90176111,5c2f6d25e38ccd0001caab19,64d2fd46c836a06233681665,64dc7cf4cd581e52bf779d98,,,,,,,decisionTrl,resources/DP.BMP,resources/DR.BMP,Door1,-0.325520833,-0.083333333,1,0,0,0.7808,optionLeft,30,15495,7,24,0,24,0,1,,,,,,,,,,,,,,,,,,,,,,,,,,,,,,,,,,,,,,,
,,,,,,,,2023-08-16_08h38.50.218,HF_wild_card,2022.2.4,Win32,59.90176111,5c2f6d25e38ccd0001caab19,64d2fd46c836a06233681665,64dc7cf4cd581e52bf779d98,,,,,,,ctch,resources/DY.BMP,resources/DP.BMP,Door4,-0.201822917,-0.0546875,1,0,0,0.9422,optionLeft,80,15575,7,25,0,25,0,1,,,,,,,,,,,,,,,,,,,,,,,,,,,,,,,,,,,,,,,
,,,,,,,,2023-08-16_08h38.50.218,HF_wild_card,2022.2.4,Win32,59.90176111,5c2f6d25e38ccd0001caab19,64d2fd46c836a06233681665,64dc7cf4cd581e52bf779d98,,,,,,,decisionTrl,resources/DP.BMP,resources/DR.BMP,Door1,-0.286458333,-0.063802083,1,0,0,1.5604,optionLeft,30,15605,7,26,0,26,0,1,,,,,,,,,,,,,,,,,,,,,,,,,,,,,,,,,,,,,,,
,,,,,,,,2023-08-16_08h38.50.218,HF_wild_card,2022.2.4,Win32,59.90176111,5c2f6d25e38ccd0001caab19,64d2fd46c836a06233681665,64dc7cf4cd581e52bf779d98,,,,,,,decisionTrl,resources/DP.BMP,resources/DR.BMP,Door1,-0.260416667,-0.04296875,1,0,0,0.9604,optionLeft,30,15635,7,27,0,27,0,1,,,,,,,,,,,,,,,,,,,,,,,,,,,,,,,,,,,,,,,
,,,,,,,,2023-08-16_08h38.50.218,HF_wild_card,2022.2.4,Win32,59.90176111,5c2f6d25e38ccd0001caab19,64d2fd46c836a06233681665,64dc7cf4cd581e52bf779d98,,,,,,,decisionTrl,resources/DY.BMP,resources/DB.BMP,Door4,-0.321614583,-0.037760417,1,0,0,0.7409,optionLeft,80,15715,7,28,0,28,0,1,,,,,,,,,,,,,,,,,,,,,,,,,,,,,,,,,,,,,,,
,,,,,,,,2023-08-16_08h38.50.218,HF_wild_card,2022.2.4,Win32,59.90176111,5c2f6d25e38ccd0001caab19,64d2fd46c836a06233681665,64dc7cf4cd581e52bf779d98,,,,,,,ctch,resources/DR.BMP,resources/DB.BMP,Door3,0.30078125,-0.041666667,1,0,0,0.8954,optionRight,70,15785,7,29,0,29,0,1,,,,,,,,,,,,,,,,,,,,,,,,,,,,,,,,,,,,,,,
,,,,,,,,2023-08-16_08h38.50.218,HF_wild_card,2022.2.4,Win32,59.90176111,5c2f6d25e38ccd0001caab19,64d2fd46c836a06233681665,64dc7cf4cd581e52bf779d98,,,,,,,decisionTrl,resources/DR.BMP,resources/DP.BMP,Door1,0.3203125,-0.020833333,1,0,0,1.0285,optionRight,30,15815,7,30,0,30,0,1,,,,,,,,,,,,,,,,,,,,,,,,,,,,,,,,,,,,,,,
,,,,,,,,2023-08-16_08h38.50.218,HF_wild_card,2022.2.4,Win32,59.90176111,5c2f6d25e38ccd0001caab19,64d2fd46c836a06233681665,64dc7cf4cd581e52bf779d98,,,,,,,decisionTrl,resources/DY.BMP,resources/DB.BMP,Door4,-0.372395833,-0.048177083,1,0,0,0.8951,optionLeft,80,15895,7,31,0,31,0,1,,,,,,,,,,,,,,,,,,,,,,,,,,,,,,,,,,,,,,,
,,,,,,,,2023-08-16_08h38.50.218,HF_wild_card,2022.2.4,Win32,59.90176111,5c2f6d25e38ccd0001caab19,64d2fd46c836a06233681665,64dc7cf4cd581e52bf779d98,,,,,,,decisionTrl,resources/DR.BMP,resources/DP.BMP,Door1,0.35546875,-0.07421875,1,0,0,0.979,optionRight,30,15925,7,32,0,32,0,1,,,,,,,,,,,,,,,,,,,,,,,,,,,,,,,,,,,,,,,
,,,,,,,,2023-08-16_08h38.50.218,HF_wild_card,2022.2.4,Win32,59.90176111,5c2f6d25e38ccd0001caab19,64d2fd46c836a06233681665,64dc7cf4cd581e52bf779d98,,,,,,,decisionTrl,resources/DB.BMP,resources/DY.BMP,Door4,0.3203125,-0.059895833,1,0,0,0.8669,optionRight,80,16005,7,33,0,33,0,1,,,,,,,,,,,,,,,,,,,,,,,,,,,,,,,,,,,,,,,
,,,,,,,,2023-08-16_08h38.50.218,HF_wild_card,2022.2.4,Win32,59.90176111,5c2f6d25e38ccd0001caab19,64d2fd46c836a06233681665,64dc7cf4cd581e52bf779d98,,,,,,,decisionTrl,resources/DB.BMP,resources/DY.BMP,Door4,0.368489583,-0.091145833,1,0,0,0.7306,optionRight,60,16065,7,34,0,34,0,1,,,,,,,,,,,,,,,,,,,,,,,,,,,,,,,,,,,,,,,
,,,,,,,,2023-08-16_08h38.50.218,HF_wild_card,2022.2.4,Win32,59.90176111,5c2f6d25e38ccd0001caab19,64d2fd46c836a06233681665,64dc7cf4cd581e52bf779d98,,,,,,,decisionTrl,resources/DR.BMP,resources/DP.BMP,Door1,0.290364583,-0.100260417,1,0,0,1.1982,optionRight,30,16095,7,35,0,35,0,1,,,,,,,,,,,,,,,,,,,,,,,,,,,,,,,,,,,,,,,
,,,,,,,,2023-08-16_08h38.50.218,HF_wild_card,2022.2.4,Win32,59.90176111,5c2f6d25e38ccd0001caab19,64d2fd46c836a06233681665,64dc7cf4cd581e52bf779d98,,,,,,,,,,,,,,,,,,,,,,,,,,6,0,6,0,1,,,,,,,,,,,,,,,,,,,,,,,,,,,,,,,,,,
,,,,,,,,2023-08-16_08h38.50.218,HF_wild_card,2022.2.4,Win32,59.90176111,5c2f6d25e38ccd0001caab19,64d2fd46c836a06233681665,64dc7cf4cd581e52bf779d98,,,,,,,,,,,,,,,,,,,,,,,,,,,,,,,4,,,,,,,,,,,,,,,,,,,,,,,,,,,,,,,,,
,,,,,,,,2023-08-16_08h38.50.218,HF_wild_card,2022.2.4,Win32,59.90176111,5c2f6d25e38ccd0001caab19,64d2fd46c836a06233681665,64dc7cf4cd581e52bf779d98,,,,,,,,,,,,,,,,,,,,,,,,,,,,,,,,,,,,,,,,,,,,,,,,,,,,,,,,,,,,,,,,
,,,,,,,,2023-08-16_08h38.50.218,HF_wild_card,2022.2.4,Win32,59.90176111,5c2f6d25e38ccd0001caab19,64d2fd46c836a06233681665,64dc7cf4cd581e52bf779d98,,,,,,,,,,,,,,,,,,,,,,,,,,,,,,,,5,WC_extreme,resources/DBN.BMP,0,0,0,0,1,,,,,,,,,,,,,,,,,,,,,,,,,
,,,,,,,,2023-08-16_08h38.50.218,HF_wild_card,2022.2.4,Win32,59.90176111,5c2f6d25e38ccd0001caab19,64d2fd46c836a06233681665,64dc7cf4cd581e52bf779d98,,,,,,,,,,,,,,,,,,,,,,,,,,,,,,,,20,WC_nonExtreme,resources/DG.BMP,1,0,1,0,1,,,,,,,,,,,,,,,,,,,,,,,,,
,,,,,,,,2023-08-16_08h38.50.218,HF_wild_card,2022.2.4,Win32,59.90176111,5c2f6d25e38ccd0001caab19,64d2fd46c836a06233681665,64dc7cf4cd581e52bf779d98,,,,,,,,,,,,,,,,,,,,,,,,,,,,,,,,30,Door2,resources/DR.BMP,2,0,2,0,1,,,,,,,,,,,,,,,,,,,,,,,,,
,,,,,,,,2023-08-16_08h38.50.218,HF_wild_card,2022.2.4,Win32,59.90176111,5c2f6d25e38ccd0001caab19,64d2fd46c836a06233681665,64dc7cf4cd581e52bf779d98,,,,,,,,,,,,,,,,,,,,,,,,,,,,,,,,40,Door3,resources/DB.BMP,3,0,3,0,1,,,,,,,,,,,,,,,,,,,,,,,,,
,,,,,,,,2023-08-16_08h38.50.218,HF_wild_card,2022.2.4,Win32,59.90176111,5c2f6d25e38ccd0001caab19,64d2fd46c836a06233681665,64dc7cf4cd581e52bf779d98,,,,,,,,,,,,,,,,,,,,,,,,,,,,,,,,30,Door1,resources/DP.BMP,4,0,4,0,1,,,,,,,,,,,,,,,,,,,,,,,,,
,,,,,,,,2023-08-16_08h38.50.218,HF_wild_card,2022.2.4,Win32,59.90176111,5c2f6d25e38ccd0001caab19,64d2fd46c836a06233681665,64dc7cf4cd581e52bf779d98,,,,,,,,,,,,,,,,,,,,,,,,,,,,,,,,70,Door4,resources/DY.BMP,5,0,5,0,1,,,,,,,,,,,,,,,,,,,,,,,,,
,,,,,,,,2023-08-16_08h38.50.218,HF_wild_card,2022.2.4,Win32,59.90176111,5c2f6d25e38ccd0001caab19,64d2fd46c836a06233681665,64dc7cf4cd581e52bf779d98,,,,,,,,,,,,,,,,,,,,,,,,,,,,,,,,,,,,,,,,,,,,,,,,,,,,,,,,,,,,,,,,
,,,,,,,,2023-08-16_08h38.50.218,HF_wild_card,2022.2.4,Win32,59.90176111,5c2f6d25e38ccd0001caab19,64d2fd46c836a06233681665,64dc7cf4cd581e52bf779d98,,,,,,,,,,,,,,,,,,,,,,,,,,,,,,,,,,,,,,,,0,0,0,0,1,,,,,,,,,,,,,,,,,,,,
