Condition,Low fixed image (Door1),Low risky image (Door2),High fixed image (Door3),High risky image (Door4),Extreme Wild Card,NonExtreme Wild Card,,date,expName,psychopyVersion,OS,frameRate,PROLIFIC_PID,STUDY_ID,SESSION_ID,mouse_2.x,mouse_2.y,mouse_2.leftButton,mouse_2.midButton,mouse_2.rightButton,mouse_2.clicked_name,Trial Type,Left Option Image,Right Option Image,Chosen Door,mouse.x,mouse.y,mouse.leftButton,mouse.midButton,mouse.rightButton,mouse.time,mouse.clicked_name,Feedback,Cumulative Reward,Block,trial.thisRepN,trial.thisTrialN,trial.thisN,trial.thisIndex,trial.ran,blocks.thisRepN,blocks.thisTrialN,blocks.thisN,blocks.thisIndex,blocks.ran,Money conversion,First Outcome Reported,Shown Door (First Outcome),Displayed Image (First Outcome),outcomes.thisRepN,outcomes.thisTrialN,outcomes.thisN,outcomes.thisIndex,outcomes.ran,judgments.thisRepN,judgments.thisTrialN,judgments.thisN,judgments.thisIndex,judgments.ran,freqMouse.x,freqMouse.y,freqMouse.leftButton,freqMouse.midButton,freqMouse.rightButton,freqMouse.clicked_name,FQJ for first outcome,FQJ for second outcome,Shown Door,Displayed Image,trials.thisRepN,trials.thisTrialN,trials.thisN,trials.thisIndex,trials.ran,judgBlock.thisRepN,judgBlock.thisTrialN,judgBlock.thisN,judgBlock.thisIndex,judgBlock.ran
0,resources/DG.BMP,resources/DP.BMP,resources/DY.BMP,resources/DR.BMP,resources/DB.BMP,resources/DBN.BMP,,2023-08-16_08h48.15.813,HF_wild_card,2022.2.4,Win32,59.92329818,5967e9a831394d0001abdb3f,64d2fd46c836a06233681665,64dc7ec59a22856ba1be8945,,,,,,,,,,,,,,,,,,,,,,,,,,,,,,,,,,,,,,,,,,,,,,,,,,,,,,,,,,,,,,,,
,,,,,,,,2023-08-16_08h48.15.813,HF_wild_card,2022.2.4,Win32,59.92329818,5967e9a831394d0001abdb3f,64d2fd46c836a06233681665,64dc7ec59a22856ba1be8945,-0.008333333,-0.424074131,1,0,0,agree,,,,,,,,,,,,,,,,,,,,,,,,,,,,,,,,,,,,,,,,,,,,,,,,,,,,,,,,,,
,,,,,,,,2023-08-16_08h48.15.813,HF_wild_card,2022.2.4,Win32,59.92329818,5967e9a831394d0001abdb3f,64d2fd46c836a06233681665,64dc7ec59a22856ba1be8945,,,,,,,,,,,,,,,,,,,,,,,,,,,,,,,,,,,,,,,,,,,,,,,,,,,,,,,,,,,,,,,,
,,,,,,,,2023-08-16_08h48.15.813,HF_wild_card,2022.2.4,Win32,59.92329818,5967e9a831394d0001abdb3f,64d2fd46c836a06233681665,64dc7ec59a22856ba1be8945,,,,,,,decisionTrl,resources/DR.BMP,resources/DY.BMP,Door3,0.395370399,-0.066666667,1,0,0,4.3194,optionRight,70,70,1,0,0,0,0,1,,,,,,,,,,,,,,,,,,,,,,,,,,,,,,,,,,,,,,,
,,,,,,,,2023-08-16_08h48.15.813,HF_wild_card,2022.2.4,Win32,59.92329818,5967e9a831394d0001abdb3f,64d2fd46c836a06233681665,64dc7ec59a22856ba1be8945,,,,,,,decisionTrl,resources/DY.BMP,resources/DR.BMP,Door4,0.390740797,-0.128703732,1,0,0,4.3789,optionRight,80,150,1,1,0,1,0,1,,,,,,,,,,,,,,,,,,,,,,,,,,,,,,,,,,,,,,,
,,,,,,,,2023-08-16_08h48.15.813,HF_wild_card,2022.2.4,Win32,59.92329818,5967e9a831394d0001abdb3f,64d2fd46c836a06233681665,64dc7ec59a22856ba1be8945,,,,,,,sngl,resources/Empty.png,resources/DR.BMP,Door4,0.350925954,-0.079629644,1,0,0,1.046,optionRight,60,210,1,2,0,2,0,1,,,,,,,,,,,,,,,,,,,,,,,,,,,,,,,,,,,,,,,
,,,,,,,,2023-08-16_08h48.15.813,HF_wild_card,2022.2.4,Win32,59.92329818,5967e9a831394d0001abdb3f,64d2fd46c836a06233681665,64dc7ec59a22856ba1be8945,,,,,,,decisionTrl,resources/DB.BMP,resources/DY.BMP,Door3,0.367592621,-0.117592621,1,0,0,3.0845,optionRight,70,280,1,3,0,3,0,1,,,,,,,,,,,,,,,,,,,,,,,,,,,,,,,,,,,,,,,
,,,,,,,,2023-08-16_08h48.15.813,HF_wild_card,2022.2.4,Win32,59.92329818,5967e9a831394d0001abdb3f,64d2fd46c836a06233681665,64dc7ec59a22856ba1be8945,,,,,,,decisionTrl,resources/DY.BMP,resources/DR.BMP,Door3,-0.399074046,-0.1,1,0,0,2.415,optionLeft,70,350,1,4,0,4,0,1,,,,,,,,,,,,,,,,,,,,,,,,,,,,,,,,,,,,,,,
,,,,,,,,2023-08-16_08h48.15.813,HF_wild_card,2022.2.4,Win32,59.92329818,5967e9a831394d0001abdb3f,64d2fd46c836a06233681665,64dc7ec59a22856ba1be8945,,,,,,,decisionTrl,resources/DY.BMP,resources/DR.BMP,Door4,0.436111111,-0.061111111,1,0,0,0.9305,optionRight,80,430,1,5,0,5,0,1,,,,,,,,,,,,,,,,,,,,,,,,,,,,,,,,,,,,,,,
,,,,,,,,2023-08-16_08h48.15.813,HF_wild_card,2022.2.4,Win32,59.92329818,5967e9a831394d0001abdb3f,64d2fd46c836a06233681665,64dc7ec59a22856ba1be8945,,,,,,,ctch,resources/DY.BMP,resources/DP.BMP,Door2,0.35648151,-0.080555556,1,0,0,1.6905,optionRight,20,450,1,6,0,6,0,1,,,,,,,,,,,,,,,,,,,,,,,,,,,,,,,,,,,,,,,
,,,,,,,,2023-08-16_08h48.15.813,HF_wild_card,2022.2.4,Win32,59.92329818,5967e9a831394d0001abdb3f,64d2fd46c836a06233681665,64dc7ec59a22856ba1be8945,,,,,,,decisionTrl,resources/DR.BMP,resources/DY.BMP,Door4,-0.412037023,-0.015740755,1,0,0,1.1196,optionLeft,80,530,1,7,0,7,0,1,,,,,,,,,,,,,,,,,,,,,,,,,,,,,,,,,,,,,,,
,,,,,,,,2023-08-16_08h48.15.813,HF_wild_card,2022.2.4,Win32,59.92329818,5967e9a831394d0001abdb3f,64d2fd46c836a06233681665,64dc7ec59a22856ba1be8945,,,,,,,decisionTrl,resources/DP.BMP,resources/DG.BMP,Door1,0.425925954,-0.111111111,1,0,0,2.2131,optionRight,30,560,1,8,0,8,0,1,,,,,,,,,,,,,,,,,,,,,,,,,,,,,,,,,,,,,,,
,,,,,,,,2023-08-16_08h48.15.813,HF_wild_card,2022.2.4,Win32,59.92329818,5967e9a831394d0001abdb3f,64d2fd46c836a06233681665,64dc7ec59a22856ba1be8945,,,,,,,decisionTrl,resources/DR.BMP,resources/DY.BMP,Door4,-0.4,-0.013888889,1,0,0,1.1769,optionLeft,80,640,1,9,0,9,0,1,,,,,,,,,,,,,,,,,,,,,,,,,,,,,,,,,,,,,,,
,,,,,,,,2023-08-16_08h48.15.813,HF_wild_card,2022.2.4,Win32,59.92329818,5967e9a831394d0001abdb3f,64d2fd46c836a06233681665,64dc7ec59a22856ba1be8945,,,,,,,decisionTrl,resources/DY.BMP,resources/DB.BMP,Door3,-0.327777778,-0.001851866,1,0,0,3.0961,optionLeft,70,710,1,10,0,10,0,1,,,,,,,,,,,,,,,,,,,,,,,,,,,,,,,,,,,,,,,
,,,,,,,,2023-08-16_08h48.15.813,HF_wild_card,2022.2.4,Win32,59.92329818,5967e9a831394d0001abdb3f,64d2fd46c836a06233681665,64dc7ec59a22856ba1be8945,,,,,,,decisionTrl,resources/DG.BMP,resources/DP.BMP,Door1,-0.394444444,-0.037037065,1,0,0,4.1978,optionLeft,30,740,1,11,0,11,0,1,,,,,,,,,,,,,,,,,,,,,,,,,,,,,,,,,,,,,,,
,,,,,,,,2023-08-16_08h48.15.813,HF_wild_card,2022.2.4,Win32,59.92329818,5967e9a831394d0001abdb3f,64d2fd46c836a06233681665,64dc7ec59a22856ba1be8945,,,,,,,decisionTrl,resources/DG.BMP,resources/DP.BMP,Door1,-0.359259245,-0.043518533,1,0,0,1.5445,optionLeft,30,770,1,12,0,12,0,1,,,,,,,,,,,,,,,,,,,,,,,,,,,,,,,,,,,,,,,
,,,,,,,,2023-08-16_08h48.15.813,HF_wild_card,2022.2.4,Win32,59.92329818,5967e9a831394d0001abdb3f,64d2fd46c836a06233681665,64dc7ec59a22856ba1be8945,,,,,,,decisionTrl,resources/DR.BMP,resources/DB.BMP,Door4,-0.304629601,-0.019444444,1,0,0,0.8258,optionLeft,60,830,1,13,0,13,0,1,,,,,,,,,,,,,,,,,,,,,,,,,,,,,,,,,,,,,,,
,,,,,,,,2023-08-16_08h48.15.813,HF_wild_card,2022.2.4,Win32,59.92329818,5967e9a831394d0001abdb3f,64d2fd46c836a06233681665,64dc7ec59a22856ba1be8945,,,,,,,decisionTrl,resources/DB.BMP,resources/DP.BMP,Door2,0.434259288,-0.080555556,1,0,0,1.7102,optionRight,20,850,1,14,0,14,0,1,,,,,,,,,,,,,,,,,,,,,,,,,,,,,,,,,,,,,,,
,,,,,,,,2023-08-16_08h48.15.813,HF_wild_card,2022.2.4,Win32,59.92329818,5967e9a831394d0001abdb3f,64d2fd46c836a06233681665,64dc7ec59a22856ba1be8945,,,,,,,sngl,resources/DY.BMP,resources/Empty.png,Door3,-0.336111111,0.02870369,1,0,0,1.3253,optionLeft,70,920,1,15,0,15,0,1,,,,,,,,,,,,,,,,,,,,,,,,,,,,,,,,,,,,,,,
,,,,,,,,2023-08-16_08h48.15.813,HF_wild_card,2022.2.4,Win32,59.92329818,5967e9a831394d0001abdb3f,64d2fd46c836a06233681665,64dc7ec59a22856ba1be8945,,,,,,,decisionTrl,resources/DP.BMP,resources/DB.BMP,WildCard_Ex,0.457407464,-0.012037065,1,0,0,2.259,optionRight,5,925,1,16,0,16,0,1,,,,,,,,,,,,,,,,,,,,,,,,,,,,,,,,,,,,,,,
,,,,,,,,2023-08-16_08h48.15.813,HF_wild_card,2022.2.4,Win32,59.92329818,5967e9a831394d0001abdb3f,64d2fd46c836a06233681665,64dc7ec59a22856ba1be8945,,,,,,,ctch,resources/DR.BMP,resources/DG.BMP,Door4,-0.405555556,-0.025,1,0,0,1.2214,optionLeft,60,985,1,17,0,17,0,1,,,,,,,,,,,,,,,,,,,,,,,,,,,,,,,,,,,,,,,
,,,,,,,,2023-08-16_08h48.15.813,HF_wild_card,2022.2.4,Win32,59.92329818,5967e9a831394d0001abdb3f,64d2fd46c836a06233681665,64dc7ec59a22856ba1be8945,,,,,,,decisionTrl,resources/DP.BMP,resources/DG.BMP,Door1,0.380555556,-0.023148176,1,0,0,2.6285,optionRight,30,1015,1,18,0,18,0,1,,,,,,,,,,,,,,,,,,,,,,,,,,,,,,,,,,,,,,,
,,,,,,,,2023-08-16_08h48.15.813,HF_wild_card,2022.2.4,Win32,59.92329818,5967e9a831394d0001abdb3f,64d2fd46c836a06233681665,64dc7ec59a22856ba1be8945,,,,,,,sngl,resources/DB.BMP,resources/Empty.png,WildCard_Ex,-0.373148134,-0.036111111,1,0,0,5.0469,optionLeft,95,1110,1,19,0,19,0,1,,,,,,,,,,,,,,,,,,,,,,,,,,,,,,,,,,,,,,,
,,,,,,,,2023-08-16_08h48.15.813,HF_wild_card,2022.2.4,Win32,59.92329818,5967e9a831394d0001abdb3f,64d2fd46c836a06233681665,64dc7ec59a22856ba1be8945,,,,,,,sngl,resources/Empty.png,resources/DG.BMP,Door1,0.487037065,-0.066666667,1,0,0,1.1116,optionRight,30,1140,1,20,0,20,0,1,,,,,,,,,,,,,,,,,,,,,,,,,,,,,,,,,,,,,,,
,,,,,,,,2023-08-16_08h48.15.813,HF_wild_card,2022.2.4,Win32,59.92329818,5967e9a831394d0001abdb3f,64d2fd46c836a06233681665,64dc7ec59a22856ba1be8945,,,,,,,ctch,resources/DP.BMP,resources/DY.BMP,Door3,0.436111111,-0.07129631,1,0,0,1.446,optionRight,70,1210,1,21,0,21,0,1,,,,,,,,,,,,,,,,,,,,,,,,,,,,,,,,,,,,,,,
,,,,,,,,2023-08-16_08h48.15.813,HF_wild_card,2022.2.4,Win32,59.92329818,5967e9a831394d0001abdb3f,64d2fd46c836a06233681665,64dc7ec59a22856ba1be8945,,,,,,,ctch,resources/DP.BMP,resources/DY.BMP,Door3,0.389814843,-0.018518533,1,0,0,1.2095,optionRight,70,1280,1,22,0,22,0,1,,,,,,,,,,,,,,,,,,,,,,,,,,,,,,,,,,,,,,,
,,,,,,,,2023-08-16_08h48.15.813,HF_wild_card,2022.2.4,Win32,59.92329818,5967e9a831394d0001abdb3f,64d2fd46c836a06233681665,64dc7ec59a22856ba1be8945,,,,,,,ctch,resources/DG.BMP,resources/DR.BMP,Door4,0.348148176,-0.041666667,1,0,0,1.2139,optionRight,60,1340,1,23,0,23,0,1,,,,,,,,,,,,,,,,,,,,,,,,,,,,,,,,,,,,,,,
,,,,,,,,2023-08-16_08h48.15.813,HF_wild_card,2022.2.4,Win32,59.92329818,5967e9a831394d0001abdb3f,64d2fd46c836a06233681665,64dc7ec59a22856ba1be8945,,,,,,,decisionTrl,resources/DB.BMP,resources/DG.BMP,WildCard_Ex,-0.397222222,-0.060185199,1,0,0,2.9336,optionLeft,5,1345,1,24,0,24,0,1,,,,,,,,,,,,,,,,,,,,,,,,,,,,,,,,,,,,,,,
,,,,,,,,2023-08-16_08h48.15.813,HF_wild_card,2022.2.4,Win32,59.92329818,5967e9a831394d0001abdb3f,64d2fd46c836a06233681665,64dc7ec59a22856ba1be8945,,,,,,,decisionTrl,resources/DG.BMP,resources/DP.BMP,Door1,-0.509259245,0.020370356,1,0,0,2.3619,optionLeft,30,1375,1,25,0,25,0,1,,,,,,,,,,,,,,,,,,,,,,,,,,,,,,,,,,,,,,,
,,,,,,,,2023-08-16_08h48.15.813,HF_wild_card,2022.2.4,Win32,59.92329818,5967e9a831394d0001abdb3f,64d2fd46c836a06233681665,64dc7ec59a22856ba1be8945,,,,,,,sngl,resources/Empty.png,resources/DP.BMP,Door2,0.437963019,-0.054629644,1,0,0,1.0469,optionRight,20,1395,1,26,0,26,0,1,,,,,,,,,,,,,,,,,,,,,,,,,,,,,,,,,,,,,,,
,,,,,,,,2023-08-16_08h48.15.813,HF_wild_card,2022.2.4,Win32,59.92329818,5967e9a831394d0001abdb3f,64d2fd46c836a06233681665,64dc7ec59a22856ba1be8945,,,,,,,sngl,resources/DG.BMP,resources/Empty.png,Door1,-0.311111111,0.00370369,1,0,0,0.914,optionLeft,30,1425,1,27,0,27,0,1,,,,,,,,,,,,,,,,,,,,,,,,,,,,,,,,,,,,,,,
,,,,,,,,2023-08-16_08h48.15.813,HF_wild_card,2022.2.4,Win32,59.92329818,5967e9a831394d0001abdb3f,64d2fd46c836a06233681665,64dc7ec59a22856ba1be8945,,,,,,,decisionTrl,resources/DR.BMP,resources/DY.BMP,Door4,-0.374074046,-0.02129631,1,0,0,0.8956,optionLeft,60,1485,1,28,0,28,0,1,,,,,,,,,,,,,,,,,,,,,,,,,,,,,,,,,,,,,,,
,,,,,,,,2023-08-16_08h48.15.813,HF_wild_card,2022.2.4,Win32,59.92329818,5967e9a831394d0001abdb3f,64d2fd46c836a06233681665,64dc7ec59a22856ba1be8945,,,,,,,decisionTrl,resources/DG.BMP,resources/DB.BMP,Door1,-0.258333333,-0.037037065,1,0,0,1.2127,optionLeft,30,1515,1,29,0,29,0,1,,,,,,,,,,,,,,,,,,,,,,,,,,,,,,,,,,,,,,,
,,,,,,,,2023-08-16_08h48.15.813,HF_wild_card,2022.2.4,Win32,59.92329818,5967e9a831394d0001abdb3f,64d2fd46c836a06233681665,64dc7ec59a22856ba1be8945,,,,,,,sngl,resources/DB.BMP,resources/Empty.png,WildCard_Ex,-0.241666667,-0.073148176,1,0,0,1.1828,optionLeft,5,1520,1,30,0,30,0,1,,,,,,,,,,,,,,,,,,,,,,,,,,,,,,,,,,,,,,,
,,,,,,,,2023-08-16_08h48.15.813,HF_wild_card,2022.2.4,Win32,59.92329818,5967e9a831394d0001abdb3f,64d2fd46c836a06233681665,64dc7ec59a22856ba1be8945,,,,,,,sngl,resources/DP.BMP,resources/Empty.png,Door2,-0.346296268,-0.030555556,1,0,0,0.9618,optionLeft,40,1560,1,31,0,31,0,1,,,,,,,,,,,,,,,,,,,,,,,,,,,,,,,,,,,,,,,
,,,,,,,,2023-08-16_08h48.15.813,HF_wild_card,2022.2.4,Win32,59.92329818,5967e9a831394d0001abdb3f,64d2fd46c836a06233681665,64dc7ec59a22856ba1be8945,,,,,,,ctch,resources/DR.BMP,resources/DG.BMP,Door4,-0.315740712,-0.048148176,1,0,0,1.1115,optionLeft,80,1640,1,32,0,32,0,1,,,,,,,,,,,,,,,,,,,,,,,,,,,,,,,,,,,,,,,
,,,,,,,,2023-08-16_08h48.15.813,HF_wild_card,2022.2.4,Win32,59.92329818,5967e9a831394d0001abdb3f,64d2fd46c836a06233681665,64dc7ec59a22856ba1be8945,,,,,,,decisionTrl,resources/DP.BMP,resources/DG.BMP,Door1,0.437963019,-0.007407422,1,0,0,3.4261,optionRight,30,1670,1,33,0,33,0,1,,,,,,,,,,,,,,,,,,,,,,,,,,,,,,,,,,,,,,,
,,,,,,,,2023-08-16_08h48.15.813,HF_wild_card,2022.2.4,Win32,59.92329818,5967e9a831394d0001abdb3f,64d2fd46c836a06233681665,64dc7ec59a22856ba1be8945,,,,,,,sngl,resources/Empty.png,resources/DB.BMP,WildCard_Ex,0.341666667,-0.037962977,1,0,0,0.909,optionRight,5,1675,1,34,0,34,0,1,,,,,,,,,,,,,,,,,,,,,,,,,,,,,,,,,,,,,,,
,,,,,,,,2023-08-16_08h48.15.813,HF_wild_card,2022.2.4,Win32,59.92329818,5967e9a831394d0001abdb3f,64d2fd46c836a06233681665,64dc7ec59a22856ba1be8945,,,,,,,decisionTrl,resources/DY.BMP,resources/DR.BMP,Door4,0.450925954,-0.03148151,1,0,0,0.7721,optionRight,80,1755,1,35,0,35,0,1,,,,,,,,,,,,,,,,,,,,,,,,,,,,,,,,,,,,,,,
,,,,,,,,2023-08-16_08h48.15.813,HF_wild_card,2022.2.4,Win32,59.92329818,5967e9a831394d0001abdb3f,64d2fd46c836a06233681665,64dc7ec59a22856ba1be8945,,,,,,,ctch,resources/DY.BMP,resources/DP.BMP,Door3,-0.295370356,-0.019444444,1,0,0,2.1244,optionLeft,70,1825,1,36,0,36,0,1,,,,,,,,,,,,,,,,,,,,,,,,,,,,,,,,,,,,,,,
,,,,,,,,2023-08-16_08h48.15.813,HF_wild_card,2022.2.4,Win32,59.92329818,5967e9a831394d0001abdb3f,64d2fd46c836a06233681665,64dc7ec59a22856ba1be8945,,,,,,,decisionTrl,resources/DB.BMP,resources/DR.BMP,Door4,0.418518575,-0.055555556,1,0,0,0.6447,optionRight,80,1905,1,37,0,37,0,1,,,,,,,,,,,,,,,,,,,,,,,,,,,,,,,,,,,,,,,
,,,,,,,,2023-08-16_08h48.15.813,HF_wild_card,2022.2.4,Win32,59.92329818,5967e9a831394d0001abdb3f,64d2fd46c836a06233681665,64dc7ec59a22856ba1be8945,,,,,,,sngl,resources/DR.BMP,resources/Empty.png,Door4,-0.157407379,-0.047222222,1,0,0,0.7098,optionLeft,80,1985,1,38,0,38,0,1,,,,,,,,,,,,,,,,,,,,,,,,,,,,,,,,,,,,,,,
,,,,,,,,2023-08-16_08h48.15.813,HF_wild_card,2022.2.4,Win32,59.92329818,5967e9a831394d0001abdb3f,64d2fd46c836a06233681665,64dc7ec59a22856ba1be8945,,,,,,,decisionTrl,resources/DG.BMP,resources/DP.BMP,Door1,-0.251851824,-0.051851866,1,0,0,3.4927,optionLeft,30,2015,1,39,0,39,0,1,,,,,,,,,,,,,,,,,,,,,,,,,,,,,,,,,,,,,,,
,,,,,,,,2023-08-16_08h48.15.813,HF_wild_card,2022.2.4,Win32,59.92329818,5967e9a831394d0001abdb3f,64d2fd46c836a06233681665,64dc7ec59a22856ba1be8945,,,,,,,ctch,resources/DG.BMP,resources/DR.BMP,Door4,0.448148176,-0.052777778,1,0,0,1.945,optionRight,80,2095,1,40,0,40,0,1,,,,,,,,,,,,,,,,,,,,,,,,,,,,,,,,,,,,,,,
,,,,,,,,2023-08-16_08h48.15.813,HF_wild_card,2022.2.4,Win32,59.92329818,5967e9a831394d0001abdb3f,64d2fd46c836a06233681665,64dc7ec59a22856ba1be8945,,,,,,,sngl,resources/Empty.png,resources/DB.BMP,WildCard_Ex,0.33148151,-0.049074088,1,0,0,0.8758,optionRight,95,2190,1,41,0,41,0,1,,,,,,,,,,,,,,,,,,,,,,,,,,,,,,,,,,,,,,,
,,,,,,,,2023-08-16_08h48.15.813,HF_wild_card,2022.2.4,Win32,59.92329818,5967e9a831394d0001abdb3f,64d2fd46c836a06233681665,64dc7ec59a22856ba1be8945,,,,,,,decisionTrl,resources/DP.BMP,resources/DG.BMP,Door1,0.498148176,-0.063888889,1,0,0,2.0303,optionRight,30,2220,1,42,0,42,0,1,,,,,,,,,,,,,,,,,,,,,,,,,,,,,,,,,,,,,,,
,,,,,,,,2023-08-16_08h48.15.813,HF_wild_card,2022.2.4,Win32,59.92329818,5967e9a831394d0001abdb3f,64d2fd46c836a06233681665,64dc7ec59a22856ba1be8945,,,,,,,sngl,resources/Empty.png,resources/DY.BMP,Door3,0.355555556,-0.04629631,1,0,0,0.7795,optionRight,70,2290,1,43,0,43,0,1,,,,,,,,,,,,,,,,,,,,,,,,,,,,,,,,,,,,,,,
,,,,,,,,2023-08-16_08h48.15.813,HF_wild_card,2022.2.4,Win32,59.92329818,5967e9a831394d0001abdb3f,64d2fd46c836a06233681665,64dc7ec59a22856ba1be8945,,,,,,,,,,,,,,,,,,,,,,,,,,0,0,0,0,1,,,,,,,,,,,,,,,,,,,,,,,,,,,,,,,,,,
,,,,,,,,2023-08-16_08h48.15.813,HF_wild_card,2022.2.4,Win32,59.92329818,5967e9a831394d0001abdb3f,64d2fd46c836a06233681665,64dc7ec59a22856ba1be8945,,,,,,,sngl,resources/DR.BMP,resources/Empty.png,Door4,-0.333333333,-0.049074088,1,0,0,0.9596,optionLeft,60,2350,2,0,0,0,0,1,,,,,,,,,,,,,,,,,,,,,,,,,,,,,,,,,,,,,,,
,,,,,,,,2023-08-16_08h48.15.813,HF_wild_card,2022.2.4,Win32,59.92329818,5967e9a831394d0001abdb3f,64d2fd46c836a06233681665,64dc7ec59a22856ba1be8945,,,,,,,decisionTrl,resources/DP.BMP,resources/DG.BMP,Door1,-0.012962935,0.002777778,1,0,0,0.5501,optionRight,30,2380,2,1,0,1,0,1,,,,,,,,,,,,,,,,,,,,,,,,,,,,,,,,,,,,,,,
,,,,,,,,2023-08-16_08h48.15.813,HF_wild_card,2022.2.4,Win32,59.92329818,5967e9a831394d0001abdb3f,64d2fd46c836a06233681665,64dc7ec59a22856ba1be8945,,,,,,,decisionTrl,resources/DB.BMP,resources/DR.BMP,Door4,0.313888889,-0.041666667,1,0,0,1.0807,optionRight,80,2460,2,2,0,2,0,1,,,,,,,,,,,,,,,,,,,,,,,,,,,,,,,,,,,,,,,
,,,,,,,,2023-08-16_08h48.15.813,HF_wild_card,2022.2.4,Win32,59.92329818,5967e9a831394d0001abdb3f,64d2fd46c836a06233681665,64dc7ec59a22856ba1be8945,,,,,,,decisionTrl,resources/DR.BMP,resources/DB.BMP,Door4,-0.32870369,-0.030555556,1,0,0,0.985,optionLeft,60,2520,2,3,0,3,0,1,,,,,,,,,,,,,,,,,,,,,,,,,,,,,,,,,,,,,,,
,,,,,,,,2023-08-16_08h48.15.813,HF_wild_card,2022.2.4,Win32,59.92329818,5967e9a831394d0001abdb3f,64d2fd46c836a06233681665,64dc7ec59a22856ba1be8945,,,,,,,ctch,resources/DG.BMP,resources/DR.BMP,Door4,0.347222222,-0.098148176,1,0,0,0.9306,optionRight,80,2600,2,4,0,4,0,1,,,,,,,,,,,,,,,,,,,,,,,,,,,,,,,,,,,,,,,
,,,,,,,,2023-08-16_08h48.15.813,HF_wild_card,2022.2.4,Win32,59.92329818,5967e9a831394d0001abdb3f,64d2fd46c836a06233681665,64dc7ec59a22856ba1be8945,,,,,,,ctch,resources/DG.BMP,resources/DR.BMP,Door4,0.472222222,-0.078703732,1,0,0,0.6535,optionRight,60,2660,2,5,0,5,0,1,,,,,,,,,,,,,,,,,,,,,,,,,,,,,,,,,,,,,,,
,,,,,,,,2023-08-16_08h48.15.813,HF_wild_card,2022.2.4,Win32,59.92329818,5967e9a831394d0001abdb3f,64d2fd46c836a06233681665,64dc7ec59a22856ba1be8945,,,,,,,decisionTrl,resources/DB.BMP,resources/DY.BMP,WildCard_Ex,-0.373148134,-0.048148176,1,0,0,1.7457,optionLeft,95,2755,2,6,0,6,0,1,,,,,,,,,,,,,,,,,,,,,,,,,,,,,,,,,,,,,,,
,,,,,,,,2023-08-16_08h48.15.813,HF_wild_card,2022.2.4,Win32,59.92329818,5967e9a831394d0001abdb3f,64d2fd46c836a06233681665,64dc7ec59a22856ba1be8945,,,,,,,decisionTrl,resources/DG.BMP,resources/DP.BMP,Door1,-0.321296268,-0.05648151,1,0,0,1.8142,optionLeft,30,2785,2,7,0,7,0,1,,,,,,,,,,,,,,,,,,,,,,,,,,,,,,,,,,,,,,,
,,,,,,,,2023-08-16_08h48.15.813,HF_wild_card,2022.2.4,Win32,59.92329818,5967e9a831394d0001abdb3f,64d2fd46c836a06233681665,64dc7ec59a22856ba1be8945,,,,,,,sngl,resources/Empty.png,resources/DG.BMP,Door1,0.312963019,-0.02129631,1,0,0,0.7919,optionRight,30,2815,2,8,0,8,0,1,,,,,,,,,,,,,,,,,,,,,,,,,,,,,,,,,,,,,,,
,,,,,,,,2023-08-16_08h48.15.813,HF_wild_card,2022.2.4,Win32,59.92329818,5967e9a831394d0001abdb3f,64d2fd46c836a06233681665,64dc7ec59a22856ba1be8945,,,,,,,ctch,resources/DP.BMP,resources/DY.BMP,Door3,0.476851908,-0.041666667,1,0,0,1.7708,optionRight,70,2885,2,9,0,9,0,1,,,,,,,,,,,,,,,,,,,,,,,,,,,,,,,,,,,,,,,
,,,,,,,,2023-08-16_08h48.15.813,HF_wild_card,2022.2.4,Win32,59.92329818,5967e9a831394d0001abdb3f,64d2fd46c836a06233681665,64dc7ec59a22856ba1be8945,,,,,,,decisionTrl,resources/DY.BMP,resources/DR.BMP,Door4,0.346296353,-0.051851866,1,0,0,1.3608,optionRight,60,2945,2,10,0,10,0,1,,,,,,,,,,,,,,,,,,,,,,,,,,,,,,,,,,,,,,,
,,,,,,,,2023-08-16_08h48.15.813,HF_wild_card,2022.2.4,Win32,59.92329818,5967e9a831394d0001abdb3f,64d2fd46c836a06233681665,64dc7ec59a22856ba1be8945,,,,,,,ctch,resources/DY.BMP,resources/DP.BMP,Door3,-0.327777778,-0.012962977,1,0,0,1.1387,optionLeft,70,3015,2,11,0,11,0,1,,,,,,,,,,,,,,,,,,,,,,,,,,,,,,,,,,,,,,,
,,,,,,,,2023-08-16_08h48.15.813,HF_wild_card,2022.2.4,Win32,59.92329818,5967e9a831394d0001abdb3f,64d2fd46c836a06233681665,64dc7ec59a22856ba1be8945,,,,,,,decisionTrl,resources/DR.BMP,resources/DY.BMP,Door3,0.38148151,-0.020370399,1,0,0,1.22,optionRight,70,3085,2,12,0,12,0,1,,,,,,,,,,,,,,,,,,,,,,,,,,,,,,,,,,,,,,,
,,,,,,,,2023-08-16_08h48.15.813,HF_wild_card,2022.2.4,Win32,59.92329818,5967e9a831394d0001abdb3f,64d2fd46c836a06233681665,64dc7ec59a22856ba1be8945,,,,,,,decisionTrl,resources/DY.BMP,resources/DB.BMP,Door3,-0.341666667,-0.037962977,1,0,0,1.0447,optionLeft,70,3155,2,13,0,13,0,1,,,,,,,,,,,,,,,,,,,,,,,,,,,,,,,,,,,,,,,
,,,,,,,,2023-08-16_08h48.15.813,HF_wild_card,2022.2.4,Win32,59.92329818,5967e9a831394d0001abdb3f,64d2fd46c836a06233681665,64dc7ec59a22856ba1be8945,,,,,,,sngl,resources/DB.BMP,resources/Empty.png,WildCard_Ex,-0.331481467,-0.062037065,1,0,0,1.0521,optionLeft,95,3250,2,14,0,14,0,1,,,,,,,,,,,,,,,,,,,,,,,,,,,,,,,,,,,,,,,
,,,,,,,,2023-08-16_08h48.15.813,HF_wild_card,2022.2.4,Win32,59.92329818,5967e9a831394d0001abdb3f,64d2fd46c836a06233681665,64dc7ec59a22856ba1be8945,,,,,,,ctch,resources/DY.BMP,resources/DP.BMP,Door3,-0.232407379,-0.016666667,1,0,0,1.4132,optionLeft,70,3320,2,15,0,15,0,1,,,,,,,,,,,,,,,,,,,,,,,,,,,,,,,,,,,,,,,
,,,,,,,,2023-08-16_08h48.15.813,HF_wild_card,2022.2.4,Win32,59.92329818,5967e9a831394d0001abdb3f,64d2fd46c836a06233681665,64dc7ec59a22856ba1be8945,,,,,,,decisionTrl,resources/DY.BMP,resources/DR.BMP,Door3,-0.241666667,-0.040740755,1,0,0,1.0757,optionLeft,70,3390,2,16,0,16,0,1,,,,,,,,,,,,,,,,,,,,,,,,,,,,,,,,,,,,,,,
,,,,,,,,2023-08-16_08h48.15.813,HF_wild_card,2022.2.4,Win32,59.92329818,5967e9a831394d0001abdb3f,64d2fd46c836a06233681665,64dc7ec59a22856ba1be8945,,,,,,,ctch,resources/DP.BMP,resources/DY.BMP,Door3,0.453703732,-0.020370399,1,0,0,1.2426,optionRight,70,3460,2,17,0,17,0,1,,,,,,,,,,,,,,,,,,,,,,,,,,,,,,,,,,,,,,,
,,,,,,,,2023-08-16_08h48.15.813,HF_wild_card,2022.2.4,Win32,59.92329818,5967e9a831394d0001abdb3f,64d2fd46c836a06233681665,64dc7ec59a22856ba1be8945,,,,,,,sngl,resources/Empty.png,resources/DB.BMP,WildCard_Ex,0.358333333,-0.014814843,1,0,0,0.9764,optionRight,95,3555,2,18,0,18,0,1,,,,,,,,,,,,,,,,,,,,,,,,,,,,,,,,,,,,,,,
,,,,,,,,2023-08-16_08h48.15.813,HF_wild_card,2022.2.4,Win32,59.92329818,5967e9a831394d0001abdb3f,64d2fd46c836a06233681665,64dc7ec59a22856ba1be8945,,,,,,,ctch,resources/DR.BMP,resources/DG.BMP,Door4,-0.330555556,-0.09629631,1,0,0,1.7619,optionLeft,60,3615,2,19,0,19,0,1,,,,,,,,,,,,,,,,,,,,,,,,,,,,,,,,,,,,,,,
,,,,,,,,2023-08-16_08h48.15.813,HF_wild_card,2022.2.4,Win32,59.92329818,5967e9a831394d0001abdb3f,64d2fd46c836a06233681665,64dc7ec59a22856ba1be8945,,,,,,,decisionTrl,resources/DP.BMP,resources/DG.BMP,Door2,-0.273148134,-0.035185199,1,0,0,2.1926,optionLeft,20,3635,2,20,0,20,0,1,,,,,,,,,,,,,,,,,,,,,,,,,,,,,,,,,,,,,,,
,,,,,,,,2023-08-16_08h48.15.813,HF_wild_card,2022.2.4,Win32,59.92329818,5967e9a831394d0001abdb3f,64d2fd46c836a06233681665,64dc7ec59a22856ba1be8945,,,,,,,decisionTrl,resources/DP.BMP,resources/DB.BMP,WildCard_Ex,0.446296353,-0.05,1,0,0,1.4407,optionRight,95,3730,2,21,0,21,0,1,,,,,,,,,,,,,,,,,,,,,,,,,,,,,,,,,,,,,,,
,,,,,,,,2023-08-16_08h48.15.813,HF_wild_card,2022.2.4,Win32,59.92329818,5967e9a831394d0001abdb3f,64d2fd46c836a06233681665,64dc7ec59a22856ba1be8945,,,,,,,decisionTrl,resources/DY.BMP,resources/DR.BMP,Door3,-0.236111111,-0.004629644,1,0,0,1.628,optionLeft,70,3800,2,22,0,22,0,1,,,,,,,,,,,,,,,,,,,,,,,,,,,,,,,,,,,,,,,
,,,,,,,,2023-08-16_08h48.15.813,HF_wild_card,2022.2.4,Win32,59.92329818,5967e9a831394d0001abdb3f,64d2fd46c836a06233681665,64dc7ec59a22856ba1be8945,,,,,,,sngl,resources/DG.BMP,resources/Empty.png,Door1,-0.302777778,-0.012037065,1,0,0,1.0921,optionLeft,30,3830,2,23,0,23,0,1,,,,,,,,,,,,,,,,,,,,,,,,,,,,,,,,,,,,,,,
,,,,,,,,2023-08-16_08h48.15.813,HF_wild_card,2022.2.4,Win32,59.92329818,5967e9a831394d0001abdb3f,64d2fd46c836a06233681665,64dc7ec59a22856ba1be8945,,,,,,,decisionTrl,resources/DY.BMP,resources/DR.BMP,Door3,-0.214814801,-0.026851866,1,0,0,1.7433,optionLeft,70,3900,2,24,0,24,0,1,,,,,,,,,,,,,,,,,,,,,,,,,,,,,,,,,,,,,,,
,,,,,,,,2023-08-16_08h48.15.813,HF_wild_card,2022.2.4,Win32,59.92329818,5967e9a831394d0001abdb3f,64d2fd46c836a06233681665,64dc7ec59a22856ba1be8945,,,,,,,decisionTrl,resources/DB.BMP,resources/DG.BMP,WildCard_Ex,-0.244444444,0.001851824,1,0,0,1.1592,optionLeft,5,3905,2,25,0,25,0,1,,,,,,,,,,,,,,,,,,,,,,,,,,,,,,,,,,,,,,,
,,,,,,,,2023-08-16_08h48.15.813,HF_wild_card,2022.2.4,Win32,59.92329818,5967e9a831394d0001abdb3f,64d2fd46c836a06233681665,64dc7ec59a22856ba1be8945,,,,,,,ctch,resources/DR.BMP,resources/DG.BMP,Door4,-0.287962935,-0.025925954,1,0,0,1.1133,optionLeft,60,3965,2,26,0,26,0,1,,,,,,,,,,,,,,,,,,,,,,,,,,,,,,,,,,,,,,,
,,,,,,,,2023-08-16_08h48.15.813,HF_wild_card,2022.2.4,Win32,59.92329818,5967e9a831394d0001abdb3f,64d2fd46c836a06233681665,64dc7ec59a22856ba1be8945,,,,,,,decisionTrl,resources/DR.BMP,resources/DY.BMP,Door4,-0.299074046,-0.052777778,1,0,0,0.8739,optionLeft,80,4045,2,27,0,27,0,1,,,,,,,,,,,,,,,,,,,,,,,,,,,,,,,,,,,,,,,
,,,,,,,,2023-08-16_08h48.15.813,HF_wild_card,2022.2.4,Win32,59.92329818,5967e9a831394d0001abdb3f,64d2fd46c836a06233681665,64dc7ec59a22856ba1be8945,,,,,,,decisionTrl,resources/DG.BMP,resources/DP.BMP,Door1,-0.473148134,-0.035185199,1,0,0,1.143,optionLeft,30,4075,2,28,0,28,0,1,,,,,,,,,,,,,,,,,,,,,,,,,,,,,,,,,,,,,,,
,,,,,,,,2023-08-16_08h48.15.813,HF_wild_card,2022.2.4,Win32,59.92329818,5967e9a831394d0001abdb3f,64d2fd46c836a06233681665,64dc7ec59a22856ba1be8945,,,,,,,sngl,resources/DB.BMP,resources/Empty.png,WildCard_Ex,-0.246296268,-0.026851866,1,0,0,1.0264,optionLeft,5,4080,2,29,0,29,0,1,,,,,,,,,,,,,,,,,,,,,,,,,,,,,,,,,,,,,,,
,,,,,,,,2023-08-16_08h48.15.813,HF_wild_card,2022.2.4,Win32,59.92329818,5967e9a831394d0001abdb3f,64d2fd46c836a06233681665,64dc7ec59a22856ba1be8945,,,,,,,decisionTrl,resources/DG.BMP,resources/DB.BMP,Door1,-0.236111111,-0.029629644,1,0,0,1.1946,optionLeft,30,4110,2,30,0,30,0,1,,,,,,,,,,,,,,,,,,,,,,,,,,,,,,,,,,,,,,,
,,,,,,,,2023-08-16_08h48.15.813,HF_wild_card,2022.2.4,Win32,59.92329818,5967e9a831394d0001abdb3f,64d2fd46c836a06233681665,64dc7ec59a22856ba1be8945,,,,,,,decisionTrl,resources/DG.BMP,resources/DP.BMP,Door1,-0.170370314,-0.058333333,1,0,0,1.3795,optionLeft,30,4140,2,31,0,31,0,1,,,,,,,,,,,,,,,,,,,,,,,,,,,,,,,,,,,,,,,
,,,,,,,,2023-08-16_08h48.15.813,HF_wild_card,2022.2.4,Win32,59.92329818,5967e9a831394d0001abdb3f,64d2fd46c836a06233681665,64dc7ec59a22856ba1be8945,,,,,,,decisionTrl,resources/DP.BMP,resources/DG.BMP,Door1,0.432407464,-0.028703732,1,0,0,2.3955,optionRight,30,4170,2,32,0,32,0,1,,,,,,,,,,,,,,,,,,,,,,,,,,,,,,,,,,,,,,,
,,,,,,,,2023-08-16_08h48.15.813,HF_wild_card,2022.2.4,Win32,59.92329818,5967e9a831394d0001abdb3f,64d2fd46c836a06233681665,64dc7ec59a22856ba1be8945,,,,,,,decisionTrl,resources/DR.BMP,resources/DY.BMP,Door3,0.329629686,-0.105555556,1,0,0,1.4724,optionRight,70,4240,2,33,0,33,0,1,,,,,,,,,,,,,,,,,,,,,,,,,,,,,,,,,,,,,,,
,,,,,,,,2023-08-16_08h48.15.813,HF_wild_card,2022.2.4,Win32,59.92329818,5967e9a831394d0001abdb3f,64d2fd46c836a06233681665,64dc7ec59a22856ba1be8945,,,,,,,sngl,resources/Empty.png,resources/DP.BMP,Door2,0.305555556,-0.028703732,1,0,0,1.2432,optionRight,40,4280,2,34,0,34,0,1,,,,,,,,,,,,,,,,,,,,,,,,,,,,,,,,,,,,,,,
,,,,,,,,2023-08-16_08h48.15.813,HF_wild_card,2022.2.4,Win32,59.92329818,5967e9a831394d0001abdb3f,64d2fd46c836a06233681665,64dc7ec59a22856ba1be8945,,,,,,,sngl,resources/Empty.png,resources/DY.BMP,Door3,0.387037065,-0.061111111,1,0,0,1.2785,optionRight,70,4350,2,35,0,35,0,1,,,,,,,,,,,,,,,,,,,,,,,,,,,,,,,,,,,,,,,
,,,,,,,,2023-08-16_08h48.15.813,HF_wild_card,2022.2.4,Win32,59.92329818,5967e9a831394d0001abdb3f,64d2fd46c836a06233681665,64dc7ec59a22856ba1be8945,,,,,,,decisionTrl,resources/DG.BMP,resources/DP.BMP,Door2,0.417592621,-0.050925954,1,0,0,2.3278,optionRight,20,4370,2,36,0,36,0,1,,,,,,,,,,,,,,,,,,,,,,,,,,,,,,,,,,,,,,,
,,,,,,,,2023-08-16_08h48.15.813,HF_wild_card,2022.2.4,Win32,59.92329818,5967e9a831394d0001abdb3f,64d2fd46c836a06233681665,64dc7ec59a22856ba1be8945,,,,,,,sngl,resources/DP.BMP,resources/Empty.png,Door2,-0.34351849,-0.053703732,1,0,0,0.7816,optionLeft,20,4390,2,37,0,37,0,1,,,,,,,,,,,,,,,,,,,,,,,,,,,,,,,,,,,,,,,
,,,,,,,,2023-08-16_08h48.15.813,HF_wild_card,2022.2.4,Win32,59.92329818,5967e9a831394d0001abdb3f,64d2fd46c836a06233681665,64dc7ec59a22856ba1be8945,,,,,,,decisionTrl,resources/DB.BMP,resources/DP.BMP,WildCard_Ex,-0.329629601,-0.05648151,1,0,0,0.9994,optionLeft,5,4395,2,38,0,38,0,1,,,,,,,,,,,,,,,,,,,,,,,,,,,,,,,,,,,,,,,
,,,,,,,,2023-08-16_08h48.15.813,HF_wild_card,2022.2.4,Win32,59.92329818,5967e9a831394d0001abdb3f,64d2fd46c836a06233681665,64dc7ec59a22856ba1be8945,,,,,,,sngl,resources/Empty.png,resources/DB.BMP,WildCard_Ex,0.450925954,-0.062037065,1,0,0,1.0948,optionRight,5,4400,2,39,0,39,0,1,,,,,,,,,,,,,,,,,,,,,,,,,,,,,,,,,,,,,,,
,,,,,,,,2023-08-16_08h48.15.813,HF_wild_card,2022.2.4,Win32,59.92329818,5967e9a831394d0001abdb3f,64d2fd46c836a06233681665,64dc7ec59a22856ba1be8945,,,,,,,decisionTrl,resources/DR.BMP,resources/DY.BMP,Door3,0.467592621,-0.088888889,1,0,0,1.6312,optionRight,70,4470,2,40,0,40,0,1,,,,,,,,,,,,,,,,,,,,,,,,,,,,,,,,,,,,,,,
,,,,,,,,2023-08-16_08h48.15.813,HF_wild_card,2022.2.4,Win32,59.92329818,5967e9a831394d0001abdb3f,64d2fd46c836a06233681665,64dc7ec59a22856ba1be8945,,,,,,,sngl,resources/DY.BMP,resources/Empty.png,Door3,-0.209259245,-0.053703732,1,0,0,0.7373,optionLeft,70,4540,2,41,0,41,0,1,,,,,,,,,,,,,,,,,,,,,,,,,,,,,,,,,,,,,,,
,,,,,,,,2023-08-16_08h48.15.813,HF_wild_card,2022.2.4,Win32,59.92329818,5967e9a831394d0001abdb3f,64d2fd46c836a06233681665,64dc7ec59a22856ba1be8945,,,,,,,decisionTrl,resources/DP.BMP,resources/DG.BMP,Door1,0.418518575,-0.134259288,1,0,0,2.5829,optionRight,30,4570,2,42,0,42,0,1,,,,,,,,,,,,,,,,,,,,,,,,,,,,,,,,,,,,,,,
,,,,,,,,2023-08-16_08h48.15.813,HF_wild_card,2022.2.4,Win32,59.92329818,5967e9a831394d0001abdb3f,64d2fd46c836a06233681665,64dc7ec59a22856ba1be8945,,,,,,,sngl,resources/Empty.png,resources/DR.BMP,Door4,0.367592621,-0.050925954,1,0,0,1.0819,optionRight,80,4650,2,43,0,43,0,1,,,,,,,,,,,,,,,,,,,,,,,,,,,,,,,,,,,,,,,
,,,,,,,,2023-08-16_08h48.15.813,HF_wild_card,2022.2.4,Win32,59.92329818,5967e9a831394d0001abdb3f,64d2fd46c836a06233681665,64dc7ec59a22856ba1be8945,,,,,,,,,,,,,,,,,,,,,,,,,,1,0,1,0,1,,,,,,,,,,,,,,,,,,,,,,,,,,,,,,,,,,
,,,,,,,,2023-08-16_08h48.15.813,HF_wild_card,2022.2.4,Win32,59.92329818,5967e9a831394d0001abdb3f,64d2fd46c836a06233681665,64dc7ec59a22856ba1be8945,,,,,,,ctch,resources/DR.BMP,resources/DG.BMP,Door4,-0.336111111,0.038888889,1,0,0,1.438,optionLeft,80,4730,3,0,0,0,0,1,,,,,,,,,,,,,,,,,,,,,,,,,,,,,,,,,,,,,,,
,,,,,,,,2023-08-16_08h48.15.813,HF_wild_card,2022.2.4,Win32,59.92329818,5967e9a831394d0001abdb3f,64d2fd46c836a06233681665,64dc7ec59a22856ba1be8945,,,,,,,decisionTrl,resources/DY.BMP,resources/DR.BMP,Door4,0.376851908,-0.002777778,1,0,0,0.7141,optionRight,80,4810,3,1,0,1,0,1,,,,,,,,,,,,,,,,,,,,,,,,,,,,,,,,,,,,,,,
,,,,,,,,2023-08-16_08h48.15.813,HF_wild_card,2022.2.4,Win32,59.92329818,5967e9a831394d0001abdb3f,64d2fd46c836a06233681665,64dc7ec59a22856ba1be8945,,,,,,,ctch,resources/DP.BMP,resources/DY.BMP,Door3,0.350925954,-0.042592621,1,0,0,1.2935,optionRight,70,4880,3,2,0,2,0,1,,,,,,,,,,,,,,,,,,,,,,,,,,,,,,,,,,,,,,,
,,,,,,,,2023-08-16_08h48.15.813,HF_wild_card,2022.2.4,Win32,59.92329818,5967e9a831394d0001abdb3f,64d2fd46c836a06233681665,64dc7ec59a22856ba1be8945,,,,,,,sngl,resources/DR.BMP,resources/Empty.png,Door4,-0.312962935,-0.02129631,1,0,0,1.0274,optionLeft,80,4960,3,3,0,3,0,1,,,,,,,,,,,,,,,,,,,,,,,,,,,,,,,,,,,,,,,
,,,,,,,,2023-08-16_08h48.15.813,HF_wild_card,2022.2.4,Win32,59.92329818,5967e9a831394d0001abdb3f,64d2fd46c836a06233681665,64dc7ec59a22856ba1be8945,,,,,,,sngl,resources/DP.BMP,resources/Empty.png,Door2,-0.291666667,-0.019444444,1,0,0,1.3266,optionLeft,40,5000,3,4,0,4,0,1,,,,,,,,,,,,,,,,,,,,,,,,,,,,,,,,,,,,,,,
,,,,,,,,2023-08-16_08h48.15.813,HF_wild_card,2022.2.4,Win32,59.92329818,5967e9a831394d0001abdb3f,64d2fd46c836a06233681665,64dc7ec59a22856ba1be8945,,,,,,,sngl,resources/Empty.png,resources/DY.BMP,Door3,0.388888889,-0.038888889,1,0,0,1.0682,optionRight,70,5070,3,5,0,5,0,1,,,,,,,,,,,,,,,,,,,,,,,,,,,,,,,,,,,,,,,
,,,,,,,,2023-08-16_08h48.15.813,HF_wild_card,2022.2.4,Win32,59.92329818,5967e9a831394d0001abdb3f,64d2fd46c836a06233681665,64dc7ec59a22856ba1be8945,,,,,,,decisionTrl,resources/DR.BMP,resources/DY.BMP,Door4,-0.29351849,-0.048148176,1,0,0,0.9449,optionLeft,80,5150,3,6,0,6,0,1,,,,,,,,,,,,,,,,,,,,,,,,,,,,,,,,,,,,,,,
,,,,,,,,2023-08-16_08h48.15.813,HF_wild_card,2022.2.4,Win32,59.92329818,5967e9a831394d0001abdb3f,64d2fd46c836a06233681665,64dc7ec59a22856ba1be8945,,,,,,,ctch,resources/DY.BMP,resources/DP.BMP,Door3,-0.338888889,-0.07129631,1,0,0,1.2802,optionLeft,70,5220,3,7,0,7,0,1,,,,,,,,,,,,,,,,,,,,,,,,,,,,,,,,,,,,,,,
,,,,,,,,2023-08-16_08h48.15.813,HF_wild_card,2022.2.4,Win32,59.92329818,5967e9a831394d0001abdb3f,64d2fd46c836a06233681665,64dc7ec59a22856ba1be8945,,,,,,,sngl,resources/DB.BMP,resources/Empty.png,WildCard_Ex,-0.270370356,-0.034259288,1,0,0,0.7151,optionLeft,95,5315,3,8,0,8,0,1,,,,,,,,,,,,,,,,,,,,,,,,,,,,,,,,,,,,,,,
,,,,,,,,2023-08-16_08h48.15.813,HF_wild_card,2022.2.4,Win32,59.92329818,5967e9a831394d0001abdb3f,64d2fd46c836a06233681665,64dc7ec59a22856ba1be8945,,,,,,,ctch,resources/DP.BMP,resources/DY.BMP,Door3,0.332407464,-0.074074088,1,0,0,1.5667,optionRight,70,5385,3,9,0,9,0,1,,,,,,,,,,,,,,,,,,,,,,,,,,,,,,,,,,,,,,,
,,,,,,,,2023-08-16_08h48.15.813,HF_wild_card,2022.2.4,Win32,59.92329818,5967e9a831394d0001abdb3f,64d2fd46c836a06233681665,64dc7ec59a22856ba1be8945,,,,,,,decisionTrl,resources/DP.BMP,resources/DG.BMP,Door2,-0.260185157,-0.057407422,1,0,0,2.3409,optionLeft,40,5425,3,10,0,10,0,1,,,,,,,,,,,,,,,,,,,,,,,,,,,,,,,,,,,,,,,
,,,,,,,,2023-08-16_08h48.15.813,HF_wild_card,2022.2.4,Win32,59.92329818,5967e9a831394d0001abdb3f,64d2fd46c836a06233681665,64dc7ec59a22856ba1be8945,,,,,,,decisionTrl,resources/DY.BMP,resources/DR.BMP,Door3,-0.237962935,-0.066666667,1,0,0,2.3178,optionLeft,70,5495,3,11,0,11,0,1,,,,,,,,,,,,,,,,,,,,,,,,,,,,,,,,,,,,,,,
,,,,,,,,2023-08-16_08h48.15.813,HF_wild_card,2022.2.4,Win32,59.92329818,5967e9a831394d0001abdb3f,64d2fd46c836a06233681665,64dc7ec59a22856ba1be8945,,,,,,,decisionTrl,resources/DP.BMP,resources/DG.BMP,Door1,0.422222222,-0.039814843,1,0,0,1.4146,optionRight,30,5525,3,12,0,12,0,1,,,,,,,,,,,,,,,,,,,,,,,,,,,,,,,,,,,,,,,
,,,,,,,,2023-08-16_08h48.15.813,HF_wild_card,2022.2.4,Win32,59.92329818,5967e9a831394d0001abdb3f,64d2fd46c836a06233681665,64dc7ec59a22856ba1be8945,,,,,,,decisionTrl,resources/DY.BMP,resources/DR.BMP,Door4,0.425925954,-0.000925954,1,0,0,1.1789,optionRight,80,5605,3,13,0,13,0,1,,,,,,,,,,,,,,,,,,,,,,,,,,,,,,,,,,,,,,,
,,,,,,,,2023-08-16_08h48.15.813,HF_wild_card,2022.2.4,Win32,59.92329818,5967e9a831394d0001abdb3f,64d2fd46c836a06233681665,64dc7ec59a22856ba1be8945,,,,,,,sngl,resources/Empty.png,resources/DB.BMP,WildCard_Ex,0.00648151,-0.011111111,1,0,0,0.8612,optionRight,95,5700,3,14,0,14,0,1,,,,,,,,,,,,,,,,,,,,,,,,,,,,,,,,,,,,,,,
,,,,,,,,2023-08-16_08h48.15.813,HF_wild_card,2022.2.4,Win32,59.92329818,5967e9a831394d0001abdb3f,64d2fd46c836a06233681665,64dc7ec59a22856ba1be8945,,,,,,,decisionTrl,resources/DB.BMP,resources/DY.BMP,WildCard_Ex,-0.240740712,-0.058333333,1,0,0,2.3283,optionLeft,95,5795,3,15,0,15,0,1,,,,,,,,,,,,,,,,,,,,,,,,,,,,,,,,,,,,,,,
,,,,,,,,2023-08-16_08h48.15.813,HF_wild_card,2022.2.4,Win32,59.92329818,5967e9a831394d0001abdb3f,64d2fd46c836a06233681665,64dc7ec59a22856ba1be8945,,,,,,,decisionTrl,resources/DY.BMP,resources/DB.BMP,WildCard_Ex,0.322222222,-0.086111111,1,0,0,0.8318,optionRight,5,5800,3,16,0,16,0,1,,,,,,,,,,,,,,,,,,,,,,,,,,,,,,,,,,,,,,,
,,,,,,,,2023-08-16_08h48.15.813,HF_wild_card,2022.2.4,Win32,59.92329818,5967e9a831394d0001abdb3f,64d2fd46c836a06233681665,64dc7ec59a22856ba1be8945,,,,,,,decisionTrl,resources/DG.BMP,resources/DP.BMP,Door1,-0.296296268,0.007407379,1,0,0,2.4584,optionLeft,30,5830,3,17,0,17,0,1,,,,,,,,,,,,,,,,,,,,,,,,,,,,,,,,,,,,,,,
,,,,,,,,2023-08-16_08h48.15.813,HF_wild_card,2022.2.4,Win32,59.92329818,5967e9a831394d0001abdb3f,64d2fd46c836a06233681665,64dc7ec59a22856ba1be8945,,,,,,,decisionTrl,resources/DB.BMP,resources/DR.BMP,Door4,0.322222222,-0.014814843,1,0,0,2.2253,optionRight,80,5910,3,18,0,18,0,1,,,,,,,,,,,,,,,,,,,,,,,,,,,,,,,,,,,,,,,
,,,,,,,,2023-08-16_08h48.15.813,HF_wild_card,2022.2.4,Win32,59.92329818,5967e9a831394d0001abdb3f,64d2fd46c836a06233681665,64dc7ec59a22856ba1be8945,,,,,,,sngl,resources/DG.BMP,resources/Empty.png,Door1,-0.231481467,0.013888889,1,0,0,0.812,optionLeft,30,5940,3,19,0,19,0,1,,,,,,,,,,,,,,,,,,,,,,,,,,,,,,,,,,,,,,,
,,,,,,,,2023-08-16_08h48.15.813,HF_wild_card,2022.2.4,Win32,59.92329818,5967e9a831394d0001abdb3f,64d2fd46c836a06233681665,64dc7ec59a22856ba1be8945,,,,,,,decisionTrl,resources/DG.BMP,resources/DP.BMP,Door2,0.330555556,-0.063888889,1,0,0,1.8275,optionRight,20,5960,3,20,0,20,0,1,,,,,,,,,,,,,,,,,,,,,,,,,,,,,,,,,,,,,,,
,,,,,,,,2023-08-16_08h48.15.813,HF_wild_card,2022.2.4,Win32,59.92329818,5967e9a831394d0001abdb3f,64d2fd46c836a06233681665,64dc7ec59a22856ba1be8945,,,,,,,decisionTrl,resources/DG.BMP,resources/DB.BMP,Door1,-0.273148134,-0.00648151,1,0,0,1.7104,optionLeft,30,5990,3,21,0,21,0,1,,,,,,,,,,,,,,,,,,,,,,,,,,,,,,,,,,,,,,,
,,,,,,,,2023-08-16_08h48.15.813,HF_wild_card,2022.2.4,Win32,59.92329818,5967e9a831394d0001abdb3f,64d2fd46c836a06233681665,64dc7ec59a22856ba1be8945,,,,,,,decisionTrl,resources/DG.BMP,resources/DP.BMP,Door1,-0.360185157,-0.083333333,1,0,0,1.7283,optionLeft,30,6020,3,22,0,22,0,1,,,,,,,,,,,,,,,,,,,,,,,,,,,,,,,,,,,,,,,
,,,,,,,,2023-08-16_08h48.15.813,HF_wild_card,2022.2.4,Win32,59.92329818,5967e9a831394d0001abdb3f,64d2fd46c836a06233681665,64dc7ec59a22856ba1be8945,,,,,,,decisionTrl,resources/DR.BMP,resources/DY.BMP,Door4,-0.363888889,-0.092592621,1,0,0,0.9263,optionLeft,80,6100,3,23,0,23,0,1,,,,,,,,,,,,,,,,,,,,,,,,,,,,,,,,,,,,,,,
,,,,,,,,2023-08-16_08h48.15.813,HF_wild_card,2022.2.4,Win32,59.92329818,5967e9a831394d0001abdb3f,64d2fd46c836a06233681665,64dc7ec59a22856ba1be8945,,,,,,,decisionTrl,resources/DR.BMP,resources/DY.BMP,Door4,-0.262037023,-0.083333333,1,0,0,0.5945,optionLeft,80,6180,3,24,0,24,0,1,,,,,,,,,,,,,,,,,,,,,,,,,,,,,,,,,,,,,,,
,,,,,,,,2023-08-16_08h48.15.813,HF_wild_card,2022.2.4,Win32,59.92329818,5967e9a831394d0001abdb3f,64d2fd46c836a06233681665,64dc7ec59a22856ba1be8945,,,,,,,decisionTrl,resources/DP.BMP,resources/DG.BMP,Door1,0.351851908,-0.054629644,1,0,0,2.9266,optionRight,30,6210,3,25,0,25,0,1,,,,,,,,,,,,,,,,,,,,,,,,,,,,,,,,,,,,,,,
,,,,,,,,2023-08-16_08h48.15.813,HF_wild_card,2022.2.4,Win32,59.92329818,5967e9a831394d0001abdb3f,64d2fd46c836a06233681665,64dc7ec59a22856ba1be8945,,,,,,,ctch,resources/DG.BMP,resources/DR.BMP,Door4,0.403703732,-0.04629631,1,0,0,2.0603,optionRight,60,6270,3,26,0,26,0,1,,,,,,,,,,,,,,,,,,,,,,,,,,,,,,,,,,,,,,,
,,,,,,,,2023-08-16_08h48.15.813,HF_wild_card,2022.2.4,Win32,59.92329818,5967e9a831394d0001abdb3f,64d2fd46c836a06233681665,64dc7ec59a22856ba1be8945,,,,,,,decisionTrl,resources/DG.BMP,resources/DP.BMP,Door1,-0.286111111,-0.001851866,1,0,0,1.6423,optionLeft,30,6300,3,27,0,27,0,1,,,,,,,,,,,,,,,,,,,,,,,,,,,,,,,,,,,,,,,
,,,,,,,,2023-08-16_08h48.15.813,HF_wild_card,2022.2.4,Win32,59.92329818,5967e9a831394d0001abdb3f,64d2fd46c836a06233681665,64dc7ec59a22856ba1be8945,,,,,,,ctch,resources/DG.BMP,resources/DR.BMP,Door4,0.385185242,-0.074074088,1,0,0,0.9744,optionRight,80,6380,3,28,0,28,0,1,,,,,,,,,,,,,,,,,,,,,,,,,,,,,,,,,,,,,,,
,,,,,,,,2023-08-16_08h48.15.813,HF_wild_card,2022.2.4,Win32,59.92329818,5967e9a831394d0001abdb3f,64d2fd46c836a06233681665,64dc7ec59a22856ba1be8945,,,,,,,sngl,resources/DB.BMP,resources/Empty.png,WildCard_Ex,-0.306481467,-0.03148151,1,0,0,0.7278,optionLeft,5,6385,3,29,0,29,0,1,,,,,,,,,,,,,,,,,,,,,,,,,,,,,,,,,,,,,,,
,,,,,,,,2023-08-16_08h48.15.813,HF_wild_card,2022.2.4,Win32,59.92329818,5967e9a831394d0001abdb3f,64d2fd46c836a06233681665,64dc7ec59a22856ba1be8945,,,,,,,sngl,resources/Empty.png,resources/DB.BMP,WildCard_Ex,0.371296353,-0.057407422,1,0,0,0.6799,optionRight,5,6390,3,30,0,30,0,1,,,,,,,,,,,,,,,,,,,,,,,,,,,,,,,,,,,,,,,
,,,,,,,,2023-08-16_08h48.15.813,HF_wild_card,2022.2.4,Win32,59.92329818,5967e9a831394d0001abdb3f,64d2fd46c836a06233681665,64dc7ec59a22856ba1be8945,,,,,,,sngl,resources/DY.BMP,resources/Empty.png,Door3,-0.280555556,-0.063888889,1,0,0,0.7083,optionLeft,70,6460,3,31,0,31,0,1,,,,,,,,,,,,,,,,,,,,,,,,,,,,,,,,,,,,,,,
,,,,,,,,2023-08-16_08h48.15.813,HF_wild_card,2022.2.4,Win32,59.92329818,5967e9a831394d0001abdb3f,64d2fd46c836a06233681665,64dc7ec59a22856ba1be8945,,,,,,,ctch,resources/DR.BMP,resources/DG.BMP,Door4,-0.316666667,-0.025,1,0,0,0.8624,optionLeft,60,6520,3,32,0,32,0,1,,,,,,,,,,,,,,,,,,,,,,,,,,,,,,,,,,,,,,,
,,,,,,,,2023-08-16_08h48.15.813,HF_wild_card,2022.2.4,Win32,59.92329818,5967e9a831394d0001abdb3f,64d2fd46c836a06233681665,64dc7ec59a22856ba1be8945,,,,,,,decisionTrl,resources/DR.BMP,resources/DY.BMP,Door4,-0.316666667,-0.044444444,1,0,0,0.66,optionLeft,60,6580,3,33,0,33,0,1,,,,,,,,,,,,,,,,,,,,,,,,,,,,,,,,,,,,,,,
,,,,,,,,2023-08-16_08h48.15.813,HF_wild_card,2022.2.4,Win32,59.92329818,5967e9a831394d0001abdb3f,64d2fd46c836a06233681665,64dc7ec59a22856ba1be8945,,,,,,,decisionTrl,resources/DB.BMP,resources/DG.BMP,Door1,0.371296353,-0.043518533,1,0,0,2.2784,optionRight,30,6610,3,34,0,34,0,1,,,,,,,,,,,,,,,,,,,,,,,,,,,,,,,,,,,,,,,
,,,,,,,,2023-08-16_08h48.15.813,HF_wild_card,2022.2.4,Win32,59.92329818,5967e9a831394d0001abdb3f,64d2fd46c836a06233681665,64dc7ec59a22856ba1be8945,,,,,,,sngl,resources/Empty.png,resources/DP.BMP,Door2,0.475925954,-0.063888889,1,0,0,0.8432,optionRight,20,6630,3,35,0,35,0,1,,,,,,,,,,,,,,,,,,,,,,,,,,,,,,,,,,,,,,,
,,,,,,,,2023-08-16_08h48.15.813,HF_wild_card,2022.2.4,Win32,59.92329818,5967e9a831394d0001abdb3f,64d2fd46c836a06233681665,64dc7ec59a22856ba1be8945,,,,,,,sngl,resources/Empty.png,resources/DG.BMP,Door1,0.304629686,-0.055555556,1,0,0,1.2763,optionRight,30,6660,3,36,0,36,0,1,,,,,,,,,,,,,,,,,,,,,,,,,,,,,,,,,,,,,,,
,,,,,,,,2023-08-16_08h48.15.813,HF_wild_card,2022.2.4,Win32,59.92329818,5967e9a831394d0001abdb3f,64d2fd46c836a06233681665,64dc7ec59a22856ba1be8945,,,,,,,sngl,resources/Empty.png,resources/DR.BMP,Door4,0.452777778,-0.061111111,1,0,0,1.0768,optionRight,60,6720,3,37,0,37,0,1,,,,,,,,,,,,,,,,,,,,,,,,,,,,,,,,,,,,,,,
,,,,,,,,2023-08-16_08h48.15.813,HF_wild_card,2022.2.4,Win32,59.92329818,5967e9a831394d0001abdb3f,64d2fd46c836a06233681665,64dc7ec59a22856ba1be8945,,,,,,,decisionTrl,resources/DR.BMP,resources/DB.BMP,Door4,-0.338888889,-0.027777778,1,0,0,1.6093,optionLeft,80,6800,3,38,0,38,0,1,,,,,,,,,,,,,,,,,,,,,,,,,,,,,,,,,,,,,,,
,,,,,,,,2023-08-16_08h48.15.813,HF_wild_card,2022.2.4,Win32,59.92329818,5967e9a831394d0001abdb3f,64d2fd46c836a06233681665,64dc7ec59a22856ba1be8945,,,,,,,ctch,resources/DY.BMP,resources/DP.BMP,Door3,-0.261111111,-0.025,1,0,0,1.3473,optionLeft,70,6870,3,39,0,39,0,1,,,,,,,,,,,,,,,,,,,,,,,,,,,,,,,,,,,,,,,
,,,,,,,,2023-08-16_08h48.15.813,HF_wild_card,2022.2.4,Win32,59.92329818,5967e9a831394d0001abdb3f,64d2fd46c836a06233681665,64dc7ec59a22856ba1be8945,,,,,,,decisionTrl,resources/DB.BMP,resources/DP.BMP,WildCard_Ex,-0.290740712,-0.089814843,1,0,0,0.9957,optionLeft,95,6965,3,40,0,40,0,1,,,,,,,,,,,,,,,,,,,,,,,,,,,,,,,,,,,,,,,
,,,,,,,,2023-08-16_08h48.15.813,HF_wild_card,2022.2.4,Win32,59.92329818,5967e9a831394d0001abdb3f,64d2fd46c836a06233681665,64dc7ec59a22856ba1be8945,,,,,,,decisionTrl,resources/DP.BMP,resources/DG.BMP,Door1,0.465740797,-0.05,1,0,0,1.3968,optionRight,30,6995,3,41,0,41,0,1,,,,,,,,,,,,,,,,,,,,,,,,,,,,,,,,,,,,,,,
,,,,,,,,2023-08-16_08h48.15.813,HF_wild_card,2022.2.4,Win32,59.92329818,5967e9a831394d0001abdb3f,64d2fd46c836a06233681665,64dc7ec59a22856ba1be8945,,,,,,,decisionTrl,resources/DP.BMP,resources/DB.BMP,WildCard_Ex,0.394444444,-0.011111111,1,0,0,0.9281,optionRight,95,7090,3,42,0,42,0,1,,,,,,,,,,,,,,,,,,,,,,,,,,,,,,,,,,,,,,,
,,,,,,,,2023-08-16_08h48.15.813,HF_wild_card,2022.2.4,Win32,59.92329818,5967e9a831394d0001abdb3f,64d2fd46c836a06233681665,64dc7ec59a22856ba1be8945,,,,,,,decisionTrl,resources/DY.BMP,resources/DR.BMP,Door3,-0.289814801,-0.05648151,1,0,0,1.7953,optionLeft,70,7160,3,43,0,43,0,1,,,,,,,,,,,,,,,,,,,,,,,,,,,,,,,,,,,,,,,
,,,,,,,,2023-08-16_08h48.15.813,HF_wild_card,2022.2.4,Win32,59.92329818,5967e9a831394d0001abdb3f,64d2fd46c836a06233681665,64dc7ec59a22856ba1be8945,,,,,,,,,,,,,,,,,,,,,,,,,,2,0,2,0,1,,,,,,,,,,,,,,,,,,,,,,,,,,,,,,,,,,
,,,,,,,,2023-08-16_08h48.15.813,HF_wild_card,2022.2.4,Win32,59.92329818,5967e9a831394d0001abdb3f,64d2fd46c836a06233681665,64dc7ec59a22856ba1be8945,,,,,,,decisionTrl,resources/DG.BMP,resources/DBN.BMP,WildCard_NonEx,0.450925954,0.06851849,1,0,0,2.2568,optionRight,55,7215,4,0,0,0,0,1,,,,,,,,,,,,,,,,,,,,,,,,,,,,,,,,,,,,,,,
,,,,,,,,2023-08-16_08h48.15.813,HF_wild_card,2022.2.4,Win32,59.92329818,5967e9a831394d0001abdb3f,64d2fd46c836a06233681665,64dc7ec59a22856ba1be8945,,,,,,,decisionTrl,resources/DY.BMP,resources/DR.BMP,Door4,0.326851908,-0.032407422,1,0,0,1.0953,optionRight,60,7275,4,1,0,1,0,1,,,,,,,,,,,,,,,,,,,,,,,,,,,,,,,,,,,,,,,
,,,,,,,,2023-08-16_08h48.15.813,HF_wild_card,2022.2.4,Win32,59.92329818,5967e9a831394d0001abdb3f,64d2fd46c836a06233681665,64dc7ec59a22856ba1be8945,,,,,,,decisionTrl,resources/DY.BMP,resources/DBN.BMP,Door3,-0.314814801,-0.00648151,1,0,0,1.5792,optionLeft,70,7345,4,2,0,2,0,1,,,,,,,,,,,,,,,,,,,,,,,,,,,,,,,,,,,,,,,
,,,,,,,,2023-08-16_08h48.15.813,HF_wild_card,2022.2.4,Win32,59.92329818,5967e9a831394d0001abdb3f,64d2fd46c836a06233681665,64dc7ec59a22856ba1be8945,,,,,,,decisionTrl,resources/DP.BMP,resources/DG.BMP,Door1,0.463888889,-0.033333333,1,0,0,1.8111,optionRight,30,7375,4,3,0,3,0,1,,,,,,,,,,,,,,,,,,,,,,,,,,,,,,,,,,,,,,,
,,,,,,,,2023-08-16_08h48.15.813,HF_wild_card,2022.2.4,Win32,59.92329818,5967e9a831394d0001abdb3f,64d2fd46c836a06233681665,64dc7ec59a22856ba1be8945,,,,,,,sngl,resources/Empty.png,resources/DG.BMP,Door1,0.436111111,0.037037023,1,0,0,1.1633,optionRight,30,7405,4,4,0,4,0,1,,,,,,,,,,,,,,,,,,,,,,,,,,,,,,,,,,,,,,,
,,,,,,,,2023-08-16_08h48.15.813,HF_wild_card,2022.2.4,Win32,59.92329818,5967e9a831394d0001abdb3f,64d2fd46c836a06233681665,64dc7ec59a22856ba1be8945,,,,,,,sngl,resources/Empty.png,resources/DP.BMP,Door2,0.387037065,-0.025925954,1,0,0,1.1274,optionRight,40,7445,4,5,0,5,0,1,,,,,,,,,,,,,,,,,,,,,,,,,,,,,,,,,,,,,,,
,,,,,,,,2023-08-16_08h48.15.813,HF_wild_card,2022.2.4,Win32,59.92329818,5967e9a831394d0001abdb3f,64d2fd46c836a06233681665,64dc7ec59a22856ba1be8945,,,,,,,decisionTrl,resources/DBN.BMP,resources/DP.BMP,WildCard_NonEx,-0.337962935,0.005555556,1,0,0,1.4963,optionLeft,55,7500,4,6,0,6,0,1,,,,,,,,,,,,,,,,,,,,,,,,,,,,,,,,,,,,,,,
,,,,,,,,2023-08-16_08h48.15.813,HF_wild_card,2022.2.4,Win32,59.92329818,5967e9a831394d0001abdb3f,64d2fd46c836a06233681665,64dc7ec59a22856ba1be8945,,,,,,,decisionTrl,resources/DP.BMP,resources/DBN.BMP,WildCard_NonEx,0.518518575,0.005555556,1,0,0,2.0448,optionRight,55,7555,4,7,0,7,0,1,,,,,,,,,,,,,,,,,,,,,,,,,,,,,,,,,,,,,,,
,,,,,,,,2023-08-16_08h48.15.813,HF_wild_card,2022.2.4,Win32,59.92329818,5967e9a831394d0001abdb3f,64d2fd46c836a06233681665,64dc7ec59a22856ba1be8945,,,,,,,sngl,resources/DP.BMP,resources/Empty.png,Door2,-0.310185157,-0.044444444,1,0,0,0.8151,optionLeft,20,7575,4,8,0,8,0,1,,,,,,,,,,,,,,,,,,,,,,,,,,,,,,,,,,,,,,,
,,,,,,,,2023-08-16_08h48.15.813,HF_wild_card,2022.2.4,Win32,59.92329818,5967e9a831394d0001abdb3f,64d2fd46c836a06233681665,64dc7ec59a22856ba1be8945,,,,,,,sngl,resources/DY.BMP,resources/Empty.png,Door3,-0.287962935,-0.063888889,1,0,0,0.6777,optionLeft,70,7645,4,9,0,9,0,1,,,,,,,,,,,,,,,,,,,,,,,,,,,,,,,,,,,,,,,
,,,,,,,,2023-08-16_08h48.15.813,HF_wild_card,2022.2.4,Win32,59.92329818,5967e9a831394d0001abdb3f,64d2fd46c836a06233681665,64dc7ec59a22856ba1be8945,,,,,,,decisionTrl,resources/DR.BMP,resources/DY.BMP,Door3,0.353703732,-0.07129631,1,0,0,0.8212,optionRight,70,7715,4,10,0,10,0,1,,,,,,,,,,,,,,,,,,,,,,,,,,,,,,,,,,,,,,,
,,,,,,,,2023-08-16_08h48.15.813,HF_wild_card,2022.2.4,Win32,59.92329818,5967e9a831394d0001abdb3f,64d2fd46c836a06233681665,64dc7ec59a22856ba1be8945,,,,,,,sngl,resources/Empty.png,resources/DY.BMP,Door3,0.397222222,-0.039814843,1,0,0,0.6681,optionRight,70,7785,4,11,0,11,0,1,,,,,,,,,,,,,,,,,,,,,,,,,,,,,,,,,,,,,,,
,,,,,,,,2023-08-16_08h48.15.813,HF_wild_card,2022.2.4,Win32,59.92329818,5967e9a831394d0001abdb3f,64d2fd46c836a06233681665,64dc7ec59a22856ba1be8945,,,,,,,ctch,resources/DR.BMP,resources/DG.BMP,Door4,-0.276851824,-0.074074088,1,0,0,1.6202,optionLeft,60,7845,4,12,0,12,0,1,,,,,,,,,,,,,,,,,,,,,,,,,,,,,,,,,,,,,,,
,,,,,,,,2023-08-16_08h48.15.813,HF_wild_card,2022.2.4,Win32,59.92329818,5967e9a831394d0001abdb3f,64d2fd46c836a06233681665,64dc7ec59a22856ba1be8945,,,,,,,ctch,resources/DR.BMP,resources/DG.BMP,Door4,-0.371296268,-0.037962977,1,0,0,0.7318,optionLeft,80,7925,4,13,0,13,0,1,,,,,,,,,,,,,,,,,,,,,,,,,,,,,,,,,,,,,,,
,,,,,,,,2023-08-16_08h48.15.813,HF_wild_card,2022.2.4,Win32,59.92329818,5967e9a831394d0001abdb3f,64d2fd46c836a06233681665,64dc7ec59a22856ba1be8945,,,,,,,decisionTrl,resources/DG.BMP,resources/DP.BMP,Door1,-0.330555556,-0.044444444,1,0,0,1.6277,optionLeft,30,7955,4,14,0,14,0,1,,,,,,,,,,,,,,,,,,,,,,,,,,,,,,,,,,,,,,,
,,,,,,,,2023-08-16_08h48.15.813,HF_wild_card,2022.2.4,Win32,59.92329818,5967e9a831394d0001abdb3f,64d2fd46c836a06233681665,64dc7ec59a22856ba1be8945,,,,,,,decisionTrl,resources/DG.BMP,resources/DP.BMP,Door1,-0.235185157,0.00370369,1,0,0,1.3445,optionLeft,30,7985,4,15,0,15,0,1,,,,,,,,,,,,,,,,,,,,,,,,,,,,,,,,,,,,,,,
,,,,,,,,2023-08-16_08h48.15.813,HF_wild_card,2022.2.4,Win32,59.92329818,5967e9a831394d0001abdb3f,64d2fd46c836a06233681665,64dc7ec59a22856ba1be8945,,,,,,,sngl,resources/DR.BMP,resources/Empty.png,Door4,-0.208333333,-0.017592621,1,0,0,1.0998,optionLeft,60,8045,4,16,0,16,0,1,,,,,,,,,,,,,,,,,,,,,,,,,,,,,,,,,,,,,,,
,,,,,,,,2023-08-16_08h48.15.813,HF_wild_card,2022.2.4,Win32,59.92329818,5967e9a831394d0001abdb3f,64d2fd46c836a06233681665,64dc7ec59a22856ba1be8945,,,,,,,decisionTrl,resources/DG.BMP,resources/DP.BMP,Door2,0.364814843,-0.065740755,1,0,0,2.5855,optionRight,20,8065,4,17,0,17,0,1,,,,,,,,,,,,,,,,,,,,,,,,,,,,,,,,,,,,,,,
,,,,,,,,2023-08-16_08h48.15.813,HF_wild_card,2022.2.4,Win32,59.92329818,5967e9a831394d0001abdb3f,64d2fd46c836a06233681665,64dc7ec59a22856ba1be8945,,,,,,,ctch,resources/DG.BMP,resources/DR.BMP,Door4,0.410185242,-0.039814843,1,0,0,1.1836,optionRight,80,8145,4,18,0,18,0,1,,,,,,,,,,,,,,,,,,,,,,,,,,,,,,,,,,,,,,,
,,,,,,,,2023-08-16_08h48.15.813,HF_wild_card,2022.2.4,Win32,59.92329818,5967e9a831394d0001abdb3f,64d2fd46c836a06233681665,64dc7ec59a22856ba1be8945,,,,,,,sngl,resources/DBN.BMP,resources/Empty.png,WildCard_NonEx,-0.211111111,0.004629601,1,0,0,0.851,optionLeft,45,8190,4,19,0,19,0,1,,,,,,,,,,,,,,,,,,,,,,,,,,,,,,,,,,,,,,,
,,,,,,,,2023-08-16_08h48.15.813,HF_wild_card,2022.2.4,Win32,59.92329818,5967e9a831394d0001abdb3f,64d2fd46c836a06233681665,64dc7ec59a22856ba1be8945,,,,,,,decisionTrl,resources/DP.BMP,resources/DG.BMP,Door1,0.405555556,-0.088888889,1,0,0,1.8448,optionRight,30,8220,4,20,0,20,0,1,,,,,,,,,,,,,,,,,,,,,,,,,,,,,,,,,,,,,,,
,,,,,,,,2023-08-16_08h48.15.813,HF_wild_card,2022.2.4,Win32,59.92329818,5967e9a831394d0001abdb3f,64d2fd46c836a06233681665,64dc7ec59a22856ba1be8945,,,,,,,decisionTrl,resources/DBN.BMP,resources/DR.BMP,Door4,0.363888889,-0.084259288,1,0,0,1.1297,optionRight,80,8300,4,21,0,21,0,1,,,,,,,,,,,,,,,,,,,,,,,,,,,,,,,,,,,,,,,
,,,,,,,,2023-08-16_08h48.15.813,HF_wild_card,2022.2.4,Win32,59.92329818,5967e9a831394d0001abdb3f,64d2fd46c836a06233681665,64dc7ec59a22856ba1be8945,,,,,,,decisionTrl,resources/DG.BMP,resources/DP.BMP,Door1,-0.304629601,0.005555556,1,0,0,1.0636,optionLeft,30,8330,4,22,0,22,0,1,,,,,,,,,,,,,,,,,,,,,,,,,,,,,,,,,,,,,,,
,,,,,,,,2023-08-16_08h48.15.813,HF_wild_card,2022.2.4,Win32,59.92329818,5967e9a831394d0001abdb3f,64d2fd46c836a06233681665,64dc7ec59a22856ba1be8945,,,,,,,ctch,resources/DY.BMP,resources/DP.BMP,Door3,-0.320370356,-0.009259288,1,0,0,1.2427,optionLeft,70,8400,4,23,0,23,0,1,,,,,,,,,,,,,,,,,,,,,,,,,,,,,,,,,,,,,,,
,,,,,,,,2023-08-16_08h48.15.813,HF_wild_card,2022.2.4,Win32,59.92329818,5967e9a831394d0001abdb3f,64d2fd46c836a06233681665,64dc7ec59a22856ba1be8945,,,,,,,ctch,resources/DG.BMP,resources/DR.BMP,Door4,0.343518575,-0.070370399,1,0,0,1.0649,optionRight,60,8460,4,24,0,24,0,1,,,,,,,,,,,,,,,,,,,,,,,,,,,,,,,,,,,,,,,
,,,,,,,,2023-08-16_08h48.15.813,HF_wild_card,2022.2.4,Win32,59.92329818,5967e9a831394d0001abdb3f,64d2fd46c836a06233681665,64dc7ec59a22856ba1be8945,,,,,,,decisionTrl,resources/DR.BMP,resources/DBN.BMP,Door4,-0.337037023,-0.089814843,1,0,0,0.7439,optionLeft,80,8540,4,25,0,25,0,1,,,,,,,,,,,,,,,,,,,,,,,,,,,,,,,,,,,,,,,
,,,,,,,,2023-08-16_08h48.15.813,HF_wild_card,2022.2.4,Win32,59.92329818,5967e9a831394d0001abdb3f,64d2fd46c836a06233681665,64dc7ec59a22856ba1be8945,,,,,,,decisionTrl,resources/DY.BMP,resources/DR.BMP,Door4,0.435185242,-0.075925954,1,0,0,0.7297,optionRight,60,8600,4,26,0,26,0,1,,,,,,,,,,,,,,,,,,,,,,,,,,,,,,,,,,,,,,,
,,,,,,,,2023-08-16_08h48.15.813,HF_wild_card,2022.2.4,Win32,59.92329818,5967e9a831394d0001abdb3f,64d2fd46c836a06233681665,64dc7ec59a22856ba1be8945,,,,,,,ctch,resources/DP.BMP,resources/DY.BMP,Door3,0.427777778,-0.13148151,1,0,0,0.8995,optionRight,70,8670,4,27,0,27,0,1,,,,,,,,,,,,,,,,,,,,,,,,,,,,,,,,,,,,,,,
,,,,,,,,2023-08-16_08h48.15.813,HF_wild_card,2022.2.4,Win32,59.92329818,5967e9a831394d0001abdb3f,64d2fd46c836a06233681665,64dc7ec59a22856ba1be8945,,,,,,,decisionTrl,resources/DR.BMP,resources/DY.BMP,Door4,-0.315740712,-0.065740755,1,0,0,0.8639,optionLeft,60,8730,4,28,0,28,0,1,,,,,,,,,,,,,,,,,,,,,,,,,,,,,,,,,,,,,,,
,,,,,,,,2023-08-16_08h48.15.813,HF_wild_card,2022.2.4,Win32,59.92329818,5967e9a831394d0001abdb3f,64d2fd46c836a06233681665,64dc7ec59a22856ba1be8945,,,,,,,decisionTrl,resources/DY.BMP,resources/DR.BMP,Door4,0.327777778,-0.055555556,1,0,0,0.7831,optionRight,80,8810,4,29,0,29,0,1,,,,,,,,,,,,,,,,,,,,,,,,,,,,,,,,,,,,,,,
,,,,,,,,2023-08-16_08h48.15.813,HF_wild_card,2022.2.4,Win32,59.92329818,5967e9a831394d0001abdb3f,64d2fd46c836a06233681665,64dc7ec59a22856ba1be8945,,,,,,,decisionTrl,resources/DY.BMP,resources/DR.BMP,Door4,0.335185242,-0.037962977,1,0,0,1.0355,optionRight,60,8870,4,30,0,30,0,1,,,,,,,,,,,,,,,,,,,,,,,,,,,,,,,,,,,,,,,
,,,,,,,,2023-08-16_08h48.15.813,HF_wild_card,2022.2.4,Win32,59.92329818,5967e9a831394d0001abdb3f,64d2fd46c836a06233681665,64dc7ec59a22856ba1be8945,,,,,,,sngl,resources/DBN.BMP,resources/Empty.png,WildCard_NonEx,-0.31851849,-0.053703732,1,0,0,1.0649,optionLeft,55,8925,4,31,0,31,0,1,,,,,,,,,,,,,,,,,,,,,,,,,,,,,,,,,,,,,,,
,,,,,,,,2023-08-16_08h48.15.813,HF_wild_card,2022.2.4,Win32,59.92329818,5967e9a831394d0001abdb3f,64d2fd46c836a06233681665,64dc7ec59a22856ba1be8945,,,,,,,decisionTrl,resources/DR.BMP,resources/DY.BMP,Door3,0.419444444,-0.044444444,1,0,0,1.3717,optionRight,70,8995,4,32,0,32,0,1,,,,,,,,,,,,,,,,,,,,,,,,,,,,,,,,,,,,,,,
,,,,,,,,2023-08-16_08h48.15.813,HF_wild_card,2022.2.4,Win32,59.92329818,5967e9a831394d0001abdb3f,64d2fd46c836a06233681665,64dc7ec59a22856ba1be8945,,,,,,,decisionTrl,resources/DBN.BMP,resources/DG.BMP,WildCard_NonEx,-0.241666667,-0.070370399,1,0,0,1.778,optionLeft,55,9050,4,33,0,33,0,1,,,,,,,,,,,,,,,,,,,,,,,,,,,,,,,,,,,,,,,
,,,,,,,,2023-08-16_08h48.15.813,HF_wild_card,2022.2.4,Win32,59.92329818,5967e9a831394d0001abdb3f,64d2fd46c836a06233681665,64dc7ec59a22856ba1be8945,,,,,,,decisionTrl,resources/DP.BMP,resources/DG.BMP,Door1,0.309259288,-0.043518533,1,0,0,1.331,optionRight,30,9080,4,34,0,34,0,1,,,,,,,,,,,,,,,,,,,,,,,,,,,,,,,,,,,,,,,
,,,,,,,,2023-08-16_08h48.15.813,HF_wild_card,2022.2.4,Win32,59.92329818,5967e9a831394d0001abdb3f,64d2fd46c836a06233681665,64dc7ec59a22856ba1be8945,,,,,,,decisionTrl,resources/DR.BMP,resources/DY.BMP,Door4,-0.324074046,-0.016666667,1,0,0,1.7954,optionLeft,80,9160,4,35,0,35,0,1,,,,,,,,,,,,,,,,,,,,,,,,,,,,,,,,,,,,,,,
,,,,,,,,2023-08-16_08h48.15.813,HF_wild_card,2022.2.4,Win32,59.92329818,5967e9a831394d0001abdb3f,64d2fd46c836a06233681665,64dc7ec59a22856ba1be8945,,,,,,,decisionTrl,resources/DP.BMP,resources/DG.BMP,Door1,0.501851908,0.022222222,1,0,0,1.2282,optionRight,30,9190,4,36,0,36,0,1,,,,,,,,,,,,,,,,,,,,,,,,,,,,,,,,,,,,,,,
,,,,,,,,2023-08-16_08h48.15.813,HF_wild_card,2022.2.4,Win32,59.92329818,5967e9a831394d0001abdb3f,64d2fd46c836a06233681665,64dc7ec59a22856ba1be8945,,,,,,,sngl,resources/Empty.png,resources/DBN.BMP,WildCard_NonEx,0.438888889,0.001851824,1,0,0,0.697,optionRight,55,9245,4,37,0,37,0,1,,,,,,,,,,,,,,,,,,,,,,,,,,,,,,,,,,,,,,,
,,,,,,,,2023-08-16_08h48.15.813,HF_wild_card,2022.2.4,Win32,59.92329818,5967e9a831394d0001abdb3f,64d2fd46c836a06233681665,64dc7ec59a22856ba1be8945,,,,,,,ctch,resources/DY.BMP,resources/DP.BMP,Door3,-0.35,-0.026851866,1,0,0,0.9307,optionLeft,70,9315,4,38,0,38,0,1,,,,,,,,,,,,,,,,,,,,,,,,,,,,,,,,,,,,,,,
,,,,,,,,2023-08-16_08h48.15.813,HF_wild_card,2022.2.4,Win32,59.92329818,5967e9a831394d0001abdb3f,64d2fd46c836a06233681665,64dc7ec59a22856ba1be8945,,,,,,,sngl,resources/Empty.png,resources/DR.BMP,Door4,0.412963019,-0.044444444,1,0,0,0.8613,optionRight,80,9395,4,39,0,39,0,1,,,,,,,,,,,,,,,,,,,,,,,,,,,,,,,,,,,,,,,
,,,,,,,,2023-08-16_08h48.15.813,HF_wild_card,2022.2.4,Win32,59.92329818,5967e9a831394d0001abdb3f,64d2fd46c836a06233681665,64dc7ec59a22856ba1be8945,,,,,,,sngl,resources/DG.BMP,resources/Empty.png,Door1,-0.315740712,-0.025925954,1,0,0,0.7966,optionLeft,30,9425,4,40,0,40,0,1,,,,,,,,,,,,,,,,,,,,,,,,,,,,,,,,,,,,,,,
,,,,,,,,2023-08-16_08h48.15.813,HF_wild_card,2022.2.4,Win32,59.92329818,5967e9a831394d0001abdb3f,64d2fd46c836a06233681665,64dc7ec59a22856ba1be8945,,,,,,,sngl,resources/Empty.png,resources/DBN.BMP,WildCard_NonEx,0.384259288,-0.010185199,1,0,0,0.6116,optionRight,45,9470,4,41,0,41,0,1,,,,,,,,,,,,,,,,,,,,,,,,,,,,,,,,,,,,,,,
,,,,,,,,2023-08-16_08h48.15.813,HF_wild_card,2022.2.4,Win32,59.92329818,5967e9a831394d0001abdb3f,64d2fd46c836a06233681665,64dc7ec59a22856ba1be8945,,,,,,,decisionTrl,resources/DBN.BMP,resources/DY.BMP,Door3,0.440740797,0.005555556,1,0,0,1.5421,optionRight,70,9540,4,42,0,42,0,1,,,,,,,,,,,,,,,,,,,,,,,,,,,,,,,,,,,,,,,
,,,,,,,,2023-08-16_08h48.15.813,HF_wild_card,2022.2.4,Win32,59.92329818,5967e9a831394d0001abdb3f,64d2fd46c836a06233681665,64dc7ec59a22856ba1be8945,,,,,,,ctch,resources/DP.BMP,resources/DY.BMP,Door3,0.445370399,-0.05,1,0,0,0.6777,optionRight,70,9610,4,43,0,43,0,1,,,,,,,,,,,,,,,,,,,,,,,,,,,,,,,,,,,,,,,
,,,,,,,,2023-08-16_08h48.15.813,HF_wild_card,2022.2.4,Win32,59.92329818,5967e9a831394d0001abdb3f,64d2fd46c836a06233681665,64dc7ec59a22856ba1be8945,,,,,,,,,,,,,,,,,,,,,,,,,,3,0,3,0,1,,,,,,,,,,,,,,,,,,,,,,,,,,,,,,,,,,
,,,,,,,,2023-08-16_08h48.15.813,HF_wild_card,2022.2.4,Win32,59.92329818,5967e9a831394d0001abdb3f,64d2fd46c836a06233681665,64dc7ec59a22856ba1be8945,,,,,,,decisionTrl,resources/DP.BMP,resources/DG.BMP,Door1,0.415740797,-0.026851866,1,0,0,2.2401,optionRight,30,9640,5,0,0,0,0,1,,,,,,,,,,,,,,,,,,,,,,,,,,,,,,,,,,,,,,,
,,,,,,,,2023-08-16_08h48.15.813,HF_wild_card,2022.2.4,Win32,59.92329818,5967e9a831394d0001abdb3f,64d2fd46c836a06233681665,64dc7ec59a22856ba1be8945,,,,,,,sngl,resources/Empty.png,resources/DP.BMP,Door2,0.297222222,-0.017592621,1,0,0,0.7577,optionRight,20,9660,5,1,0,1,0,1,,,,,,,,,,,,,,,,,,,,,,,,,,,,,,,,,,,,,,,
,,,,,,,,2023-08-16_08h48.15.813,HF_wild_card,2022.2.4,Win32,59.92329818,5967e9a831394d0001abdb3f,64d2fd46c836a06233681665,64dc7ec59a22856ba1be8945,,,,,,,decisionTrl,resources/DP.BMP,resources/DBN.BMP,WildCard_NonEx,0.375,-0.023148176,1,0,0,0.9116,optionRight,55,9715,5,2,0,2,0,1,,,,,,,,,,,,,,,,,,,,,,,,,,,,,,,,,,,,,,,
,,,,,,,,2023-08-16_08h48.15.813,HF_wild_card,2022.2.4,Win32,59.92329818,5967e9a831394d0001abdb3f,64d2fd46c836a06233681665,64dc7ec59a22856ba1be8945,,,,,,,decisionTrl,resources/DBN.BMP,resources/DG.BMP,WildCard_NonEx,-0.36851849,-0.029629644,1,0,0,1.7428,optionLeft,45,9760,5,3,0,3,0,1,,,,,,,,,,,,,,,,,,,,,,,,,,,,,,,,,,,,,,,
,,,,,,,,2023-08-16_08h48.15.813,HF_wild_card,2022.2.4,Win32,59.92329818,5967e9a831394d0001abdb3f,64d2fd46c836a06233681665,64dc7ec59a22856ba1be8945,,,,,,,decisionTrl,resources/DG.BMP,resources/DP.BMP,Door1,-0.295370356,-0.027777778,1,0,0,1.5928,optionLeft,30,9790,5,4,0,4,0,1,,,,,,,,,,,,,,,,,,,,,,,,,,,,,,,,,,,,,,,
,,,,,,,,2023-08-16_08h48.15.813,HF_wild_card,2022.2.4,Win32,59.92329818,5967e9a831394d0001abdb3f,64d2fd46c836a06233681665,64dc7ec59a22856ba1be8945,,,,,,,decisionTrl,resources/DG.BMP,resources/DBN.BMP,WildCard_NonEx,0.4,0.015740712,1,0,0,1.6134,optionRight,45,9835,5,5,0,5,0,1,,,,,,,,,,,,,,,,,,,,,,,,,,,,,,,,,,,,,,,
,,,,,,,,2023-08-16_08h48.15.813,HF_wild_card,2022.2.4,Win32,59.92329818,5967e9a831394d0001abdb3f,64d2fd46c836a06233681665,64dc7ec59a22856ba1be8945,,,,,,,decisionTrl,resources/DR.BMP,resources/DY.BMP,Door4,-0.341666667,-0.029629644,1,0,0,1.0095,optionLeft,60,9895,5,6,0,6,0,1,,,,,,,,,,,,,,,,,,,,,,,,,,,,,,,,,,,,,,,
,,,,,,,,2023-08-16_08h48.15.813,HF_wild_card,2022.2.4,Win32,59.92329818,5967e9a831394d0001abdb3f,64d2fd46c836a06233681665,64dc7ec59a22856ba1be8945,,,,,,,decisionTrl,resources/DR.BMP,resources/DY.BMP,Door3,0.416666667,-0.051851866,1,0,0,0.7937,optionRight,70,9965,5,7,0,7,0,1,,,,,,,,,,,,,,,,,,,,,,,,,,,,,,,,,,,,,,,
,,,,,,,,2023-08-16_08h48.15.813,HF_wild_card,2022.2.4,Win32,59.92329818,5967e9a831394d0001abdb3f,64d2fd46c836a06233681665,64dc7ec59a22856ba1be8945,,,,,,,ctch,resources/DY.BMP,resources/DP.BMP,Door3,-0.327777778,0.015740712,1,0,0,1.0797,optionLeft,70,10035,5,8,0,8,0,1,,,,,,,,,,,,,,,,,,,,,,,,,,,,,,,,,,,,,,,
,,,,,,,,2023-08-16_08h48.15.813,HF_wild_card,2022.2.4,Win32,59.92329818,5967e9a831394d0001abdb3f,64d2fd46c836a06233681665,64dc7ec59a22856ba1be8945,,,,,,,ctch,resources/DR.BMP,resources/DG.BMP,Door4,-0.257407379,-0.023148176,1,0,0,0.8767,optionLeft,60,10095,5,9,0,9,0,1,,,,,,,,,,,,,,,,,,,,,,,,,,,,,,,,,,,,,,,
,,,,,,,,2023-08-16_08h48.15.813,HF_wild_card,2022.2.4,Win32,59.92329818,5967e9a831394d0001abdb3f,64d2fd46c836a06233681665,64dc7ec59a22856ba1be8945,,,,,,,decisionTrl,resources/DY.BMP,resources/DR.BMP,Door3,-0.364814801,-0.075925954,1,0,0,0.8921,optionLeft,70,10165,5,10,0,10,0,1,,,,,,,,,,,,,,,,,,,,,,,,,,,,,,,,,,,,,,,
,,,,,,,,2023-08-16_08h48.15.813,HF_wild_card,2022.2.4,Win32,59.92329818,5967e9a831394d0001abdb3f,64d2fd46c836a06233681665,64dc7ec59a22856ba1be8945,,,,,,,sngl,resources/DP.BMP,resources/Empty.png,Door2,-0.302777778,-0.035185199,1,0,0,0.7424,optionLeft,40,10205,5,11,0,11,0,1,,,,,,,,,,,,,,,,,,,,,,,,,,,,,,,,,,,,,,,
,,,,,,,,2023-08-16_08h48.15.813,HF_wild_card,2022.2.4,Win32,59.92329818,5967e9a831394d0001abdb3f,64d2fd46c836a06233681665,64dc7ec59a22856ba1be8945,,,,,,,decisionTrl,resources/DBN.BMP,resources/DY.BMP,Door3,0.375925954,-0.036111111,1,0,0,1.3254,optionRight,70,10275,5,12,0,12,0,1,,,,,,,,,,,,,,,,,,,,,,,,,,,,,,,,,,,,,,,
,,,,,,,,2023-08-16_08h48.15.813,HF_wild_card,2022.2.4,Win32,59.92329818,5967e9a831394d0001abdb3f,64d2fd46c836a06233681665,64dc7ec59a22856ba1be8945,,,,,,,ctch,resources/DY.BMP,resources/DP.BMP,Door3,-0.274074046,-0.069444444,1,0,0,0.744,optionLeft,70,10345,5,13,0,13,0,1,,,,,,,,,,,,,,,,,,,,,,,,,,,,,,,,,,,,,,,
,,,,,,,,2023-08-16_08h48.15.813,HF_wild_card,2022.2.4,Win32,59.92329818,5967e9a831394d0001abdb3f,64d2fd46c836a06233681665,64dc7ec59a22856ba1be8945,,,,,,,decisionTrl,resources/DY.BMP,resources/DBN.BMP,Door3,-0.426851824,-0.063888889,1,0,0,0.9115,optionLeft,70,10415,5,14,0,14,0,1,,,,,,,,,,,,,,,,,,,,,,,,,,,,,,,,,,,,,,,
,,,,,,,,2023-08-16_08h48.15.813,HF_wild_card,2022.2.4,Win32,59.92329818,5967e9a831394d0001abdb3f,64d2fd46c836a06233681665,64dc7ec59a22856ba1be8945,,,,,,,decisionTrl,resources/DP.BMP,resources/DG.BMP,Door2,-0.267592578,0.024074046,1,0,0,3.392,optionLeft,20,10435,5,15,0,15,0,1,,,,,,,,,,,,,,,,,,,,,,,,,,,,,,,,,,,,,,,
,,,,,,,,2023-08-16_08h48.15.813,HF_wild_card,2022.2.4,Win32,59.92329818,5967e9a831394d0001abdb3f,64d2fd46c836a06233681665,64dc7ec59a22856ba1be8945,,,,,,,sngl,resources/DG.BMP,resources/Empty.png,Door1,-0.242592578,0.012962935,1,0,0,0.7777,optionLeft,30,10465,5,16,0,16,0,1,,,,,,,,,,,,,,,,,,,,,,,,,,,,,,,,,,,,,,,
,,,,,,,,2023-08-16_08h48.15.813,HF_wild_card,2022.2.4,Win32,59.92329818,5967e9a831394d0001abdb3f,64d2fd46c836a06233681665,64dc7ec59a22856ba1be8945,,,,,,,decisionTrl,resources/DBN.BMP,resources/DP.BMP,WildCard_NonEx,-0.287962935,-0.008333333,1,0,0,0.7955,optionLeft,45,10510,5,17,0,17,0,1,,,,,,,,,,,,,,,,,,,,,,,,,,,,,,,,,,,,,,,
,,,,,,,,2023-08-16_08h48.15.813,HF_wild_card,2022.2.4,Win32,59.92329818,5967e9a831394d0001abdb3f,64d2fd46c836a06233681665,64dc7ec59a22856ba1be8945,,,,,,,decisionTrl,resources/DG.BMP,resources/DP.BMP,Door1,-0.269444444,0.001851824,1,0,0,0.6456,optionLeft,30,10540,5,18,0,18,0,1,,,,,,,,,,,,,,,,,,,,,,,,,,,,,,,,,,,,,,,
,,,,,,,,2023-08-16_08h48.15.813,HF_wild_card,2022.2.4,Win32,59.92329818,5967e9a831394d0001abdb3f,64d2fd46c836a06233681665,64dc7ec59a22856ba1be8945,,,,,,,ctch,resources/DR.BMP,resources/DG.BMP,Door4,-0.264814801,-0.041666667,1,0,0,0.9791,optionLeft,80,10620,5,19,0,19,0,1,,,,,,,,,,,,,,,,,,,,,,,,,,,,,,,,,,,,,,,
,,,,,,,,2023-08-16_08h48.15.813,HF_wild_card,2022.2.4,Win32,59.92329818,5967e9a831394d0001abdb3f,64d2fd46c836a06233681665,64dc7ec59a22856ba1be8945,,,,,,,decisionTrl,resources/DP.BMP,resources/DG.BMP,Door1,0.465740797,-0.049074088,1,0,0,0.7621,optionRight,30,10650,5,20,0,20,0,1,,,,,,,,,,,,,,,,,,,,,,,,,,,,,,,,,,,,,,,
,,,,,,,,2023-08-16_08h48.15.813,HF_wild_card,2022.2.4,Win32,59.92329818,5967e9a831394d0001abdb3f,64d2fd46c836a06233681665,64dc7ec59a22856ba1be8945,,,,,,,decisionTrl,resources/DY.BMP,resources/DR.BMP,Door4,0.354629686,-0.05,1,0,0,2.5434,optionRight,80,10730,5,21,0,21,0,1,,,,,,,,,,,,,,,,,,,,,,,,,,,,,,,,,,,,,,,
,,,,,,,,2023-08-16_08h48.15.813,HF_wild_card,2022.2.4,Win32,59.92329818,5967e9a831394d0001abdb3f,64d2fd46c836a06233681665,64dc7ec59a22856ba1be8945,,,,,,,sngl,resources/DY.BMP,resources/Empty.png,Door3,-0.240740712,-0.000925954,1,0,0,0.6614,optionLeft,70,10800,5,22,0,22,0,1,,,,,,,,,,,,,,,,,,,,,,,,,,,,,,,,,,,,,,,
,,,,,,,,2023-08-16_08h48.15.813,HF_wild_card,2022.2.4,Win32,59.92329818,5967e9a831394d0001abdb3f,64d2fd46c836a06233681665,64dc7ec59a22856ba1be8945,,,,,,,decisionTrl,resources/DR.BMP,resources/DY.BMP,Door4,0.020370399,0.013888889,1,0,0,0.1267,optionLeft,60,10860,5,23,0,23,0,1,,,,,,,,,,,,,,,,,,,,,,,,,,,,,,,,,,,,,,,
,,,,,,,,2023-08-16_08h48.15.813,HF_wild_card,2022.2.4,Win32,59.92329818,5967e9a831394d0001abdb3f,64d2fd46c836a06233681665,64dc7ec59a22856ba1be8945,,,,,,,sngl,resources/Empty.png,resources/DBN.BMP,WildCard_NonEx,0.368518575,0.005555556,1,0,0,1.0938,optionRight,45,10905,5,24,0,24,0,1,,,,,,,,,,,,,,,,,,,,,,,,,,,,,,,,,,,,,,,
,,,,,,,,2023-08-16_08h48.15.813,HF_wild_card,2022.2.4,Win32,59.92329818,5967e9a831394d0001abdb3f,64d2fd46c836a06233681665,64dc7ec59a22856ba1be8945,,,,,,,decisionTrl,resources/DG.BMP,resources/DP.BMP,Door1,-0.284259245,0.025925912,1,0,0,1.7098,optionLeft,30,10935,5,25,0,25,0,1,,,,,,,,,,,,,,,,,,,,,,,,,,,,,,,,,,,,,,,
,,,,,,,,2023-08-16_08h48.15.813,HF_wild_card,2022.2.4,Win32,59.92329818,5967e9a831394d0001abdb3f,64d2fd46c836a06233681665,64dc7ec59a22856ba1be8945,,,,,,,decisionTrl,resources/DP.BMP,resources/DG.BMP,Door1,0.443518575,0.027777778,1,0,0,1.1926,optionRight,30,10965,5,26,0,26,0,1,,,,,,,,,,,,,,,,,,,,,,,,,,,,,,,,,,,,,,,
,,,,,,,,2023-08-16_08h48.15.813,HF_wild_card,2022.2.4,Win32,59.92329818,5967e9a831394d0001abdb3f,64d2fd46c836a06233681665,64dc7ec59a22856ba1be8945,,,,,,,decisionTrl,resources/DR.BMP,resources/DBN.BMP,Door4,-0.367592578,-0.009259288,1,0,0,0.942,optionLeft,80,11045,5,27,0,27,0,1,,,,,,,,,,,,,,,,,,,,,,,,,,,,,,,,,,,,,,,
,,,,,,,,2023-08-16_08h48.15.813,HF_wild_card,2022.2.4,Win32,59.92329818,5967e9a831394d0001abdb3f,64d2fd46c836a06233681665,64dc7ec59a22856ba1be8945,,,,,,,sngl,resources/Empty.png,resources/DG.BMP,Door1,0.497222222,0.031481467,1,0,0,1.0908,optionRight,30,11075,5,28,0,28,0,1,,,,,,,,,,,,,,,,,,,,,,,,,,,,,,,,,,,,,,,
,,,,,,,,2023-08-16_08h48.15.813,HF_wild_card,2022.2.4,Win32,59.92329818,5967e9a831394d0001abdb3f,64d2fd46c836a06233681665,64dc7ec59a22856ba1be8945,,,,,,,ctch,resources/DP.BMP,resources/DY.BMP,Door3,0.285185242,-0.040740755,1,0,0,1.2287,optionRight,70,11145,5,29,0,29,0,1,,,,,,,,,,,,,,,,,,,,,,,,,,,,,,,,,,,,,,,
,,,,,,,,2023-08-16_08h48.15.813,HF_wild_card,2022.2.4,Win32,59.92329818,5967e9a831394d0001abdb3f,64d2fd46c836a06233681665,64dc7ec59a22856ba1be8945,,,,,,,sngl,resources/DBN.BMP,resources/Empty.png,WildCard_NonEx,-0.206481467,0.001851824,1,0,0,1.0268,optionLeft,45,11190,5,30,0,30,0,1,,,,,,,,,,,,,,,,,,,,,,,,,,,,,,,,,,,,,,,
,,,,,,,,2023-08-16_08h48.15.813,HF_wild_card,2022.2.4,Win32,59.92329818,5967e9a831394d0001abdb3f,64d2fd46c836a06233681665,64dc7ec59a22856ba1be8945,,,,,,,decisionTrl,resources/DBN.BMP,resources/DR.BMP,Door4,0.348148176,-0.030555556,1,0,0,0.7607,optionRight,60,11250,5,31,0,31,0,1,,,,,,,,,,,,,,,,,,,,,,,,,,,,,,,,,,,,,,,
,,,,,,,,2023-08-16_08h48.15.813,HF_wild_card,2022.2.4,Win32,59.92329818,5967e9a831394d0001abdb3f,64d2fd46c836a06233681665,64dc7ec59a22856ba1be8945,,,,,,,sngl,resources/DR.BMP,resources/Empty.png,Door4,-0.264814801,-0.017592621,1,0,0,1.0289,optionLeft,80,11330,5,32,0,32,0,1,,,,,,,,,,,,,,,,,,,,,,,,,,,,,,,,,,,,,,,
,,,,,,,,2023-08-16_08h48.15.813,HF_wild_card,2022.2.4,Win32,59.92329818,5967e9a831394d0001abdb3f,64d2fd46c836a06233681665,64dc7ec59a22856ba1be8945,,,,,,,decisionTrl,resources/DY.BMP,resources/DR.BMP,Door4,0.471296353,-0.043518533,1,0,0,1.1794,optionRight,60,11390,5,33,0,33,0,1,,,,,,,,,,,,,,,,,,,,,,,,,,,,,,,,,,,,,,,
,,,,,,,,2023-08-16_08h48.15.813,HF_wild_card,2022.2.4,Win32,59.92329818,5967e9a831394d0001abdb3f,64d2fd46c836a06233681665,64dc7ec59a22856ba1be8945,,,,,,,sngl,resources/Empty.png,resources/DY.BMP,Door3,0.353703732,-0.05,1,0,0,1.0427,optionRight,70,11460,5,34,0,34,0,1,,,,,,,,,,,,,,,,,,,,,,,,,,,,,,,,,,,,,,,
,,,,,,,,2023-08-16_08h48.15.813,HF_wild_card,2022.2.4,Win32,59.92329818,5967e9a831394d0001abdb3f,64d2fd46c836a06233681665,64dc7ec59a22856ba1be8945,,,,,,,ctch,resources/DP.BMP,resources/DY.BMP,Door3,0.415740797,-0.085185199,1,0,0,0.9585,optionRight,70,11530,5,35,0,35,0,1,,,,,,,,,,,,,,,,,,,,,,,,,,,,,,,,,,,,,,,
,,,,,,,,2023-08-16_08h48.15.813,HF_wild_card,2022.2.4,Win32,59.92329818,5967e9a831394d0001abdb3f,64d2fd46c836a06233681665,64dc7ec59a22856ba1be8945,,,,,,,decisionTrl,resources/DR.BMP,resources/DY.BMP,Door3,0.311111111,-0.022222222,1,0,0,0.944,optionRight,70,11600,5,36,0,36,0,1,,,,,,,,,,,,,,,,,,,,,,,,,,,,,,,,,,,,,,,
,,,,,,,,2023-08-16_08h48.15.813,HF_wild_card,2022.2.4,Win32,59.92329818,5967e9a831394d0001abdb3f,64d2fd46c836a06233681665,64dc7ec59a22856ba1be8945,,,,,,,decisionTrl,resources/DG.BMP,resources/DP.BMP,Door1,-0.327777778,-0.025,1,0,0,1.7967,optionLeft,30,11630,5,37,0,37,0,1,,,,,,,,,,,,,,,,,,,,,,,,,,,,,,,,,,,,,,,
,,,,,,,,2023-08-16_08h48.15.813,HF_wild_card,2022.2.4,Win32,59.92329818,5967e9a831394d0001abdb3f,64d2fd46c836a06233681665,64dc7ec59a22856ba1be8945,,,,,,,ctch,resources/DG.BMP,resources/DR.BMP,Door4,0.429629686,0.01851849,1,0,0,1.2616,optionRight,80,11710,5,38,0,38,0,1,,,,,,,,,,,,,,,,,,,,,,,,,,,,,,,,,,,,,,,
,,,,,,,,2023-08-16_08h48.15.813,HF_wild_card,2022.2.4,Win32,59.92329818,5967e9a831394d0001abdb3f,64d2fd46c836a06233681665,64dc7ec59a22856ba1be8945,,,,,,,decisionTrl,resources/DY.BMP,resources/DR.BMP,Door4,0.293518575,-0.025,1,0,0,1.1617,optionRight,80,11790,5,39,0,39,0,1,,,,,,,,,,,,,,,,,,,,,,,,,,,,,,,,,,,,,,,
,,,,,,,,2023-08-16_08h48.15.813,HF_wild_card,2022.2.4,Win32,59.92329818,5967e9a831394d0001abdb3f,64d2fd46c836a06233681665,64dc7ec59a22856ba1be8945,,,,,,,ctch,resources/DG.BMP,resources/DR.BMP,Door4,0.43148151,0.007407379,1,0,0,1.0752,optionRight,60,11850,5,40,0,40,0,1,,,,,,,,,,,,,,,,,,,,,,,,,,,,,,,,,,,,,,,
,,,,,,,,2023-08-16_08h48.15.813,HF_wild_card,2022.2.4,Win32,59.92329818,5967e9a831394d0001abdb3f,64d2fd46c836a06233681665,64dc7ec59a22856ba1be8945,,,,,,,sngl,resources/Empty.png,resources/DR.BMP,Door4,0.401851908,0.012037023,1,0,0,0.9754,optionRight,60,11910,5,41,0,41,0,1,,,,,,,,,,,,,,,,,,,,,,,,,,,,,,,,,,,,,,,
,,,,,,,,2023-08-16_08h48.15.813,HF_wild_card,2022.2.4,Win32,59.92329818,5967e9a831394d0001abdb3f,64d2fd46c836a06233681665,64dc7ec59a22856ba1be8945,,,,,,,sngl,resources/DBN.BMP,resources/Empty.png,WildCard_NonEx,-0.273148134,0.024074046,1,0,0,0.7801,optionLeft,55,11965,5,42,0,42,0,1,,,,,,,,,,,,,,,,,,,,,,,,,,,,,,,,,,,,,,,
,,,,,,,,2023-08-16_08h48.15.813,HF_wild_card,2022.2.4,Win32,59.92329818,5967e9a831394d0001abdb3f,64d2fd46c836a06233681665,64dc7ec59a22856ba1be8945,,,,,,,sngl,resources/Empty.png,resources/DBN.BMP,WildCard_NonEx,0.290740797,-0.013888889,1,0,0,0.7419,optionRight,55,12020,5,43,0,43,0,1,,,,,,,,,,,,,,,,,,,,,,,,,,,,,,,,,,,,,,,
,,,,,,,,2023-08-16_08h48.15.813,HF_wild_card,2022.2.4,Win32,59.92329818,5967e9a831394d0001abdb3f,64d2fd46c836a06233681665,64dc7ec59a22856ba1be8945,,,,,,,,,,,,,,,,,,,,,,,,,,4,0,4,0,1,,,,,,,,,,,,,,,,,,,,,,,,,,,,,,,,,,
,,,,,,,,2023-08-16_08h48.15.813,HF_wild_card,2022.2.4,Win32,59.92329818,5967e9a831394d0001abdb3f,64d2fd46c836a06233681665,64dc7ec59a22856ba1be8945,,,,,,,sngl,resources/DBN.BMP,resources/Empty.png,WildCard_NonEx,-0.369444444,0.040740712,1,0,0,1.0412,optionLeft,55,12075,6,0,0,0,0,1,,,,,,,,,,,,,,,,,,,,,,,,,,,,,,,,,,,,,,,
,,,,,,,,2023-08-16_08h48.15.813,HF_wild_card,2022.2.4,Win32,59.92329818,5967e9a831394d0001abdb3f,64d2fd46c836a06233681665,64dc7ec59a22856ba1be8945,,,,,,,decisionTrl,resources/DG.BMP,resources/DP.BMP,Door1,-0.214814801,-0.005555556,1,0,0,1.5945,optionLeft,30,12105,6,1,0,1,0,1,,,,,,,,,,,,,,,,,,,,,,,,,,,,,,,,,,,,,,,
,,,,,,,,2023-08-16_08h48.15.813,HF_wild_card,2022.2.4,Win32,59.92329818,5967e9a831394d0001abdb3f,64d2fd46c836a06233681665,64dc7ec59a22856ba1be8945,,,,,,,sngl,resources/DP.BMP,resources/Empty.png,Door2,-0.300925912,0.007407379,1,0,0,0.9783,optionLeft,20,12125,6,2,0,2,0,1,,,,,,,,,,,,,,,,,,,,,,,,,,,,,,,,,,,,,,,
,,,,,,,,2023-08-16_08h48.15.813,HF_wild_card,2022.2.4,Win32,59.92329818,5967e9a831394d0001abdb3f,64d2fd46c836a06233681665,64dc7ec59a22856ba1be8945,,,,,,,decisionTrl,resources/DY.BMP,resources/DBN.BMP,Door3,-0.30370369,-0.017592621,1,0,0,1.2601,optionLeft,70,12195,6,3,0,3,0,1,,,,,,,,,,,,,,,,,,,,,,,,,,,,,,,,,,,,,,,
,,,,,,,,2023-08-16_08h48.15.813,HF_wild_card,2022.2.4,Win32,59.92329818,5967e9a831394d0001abdb3f,64d2fd46c836a06233681665,64dc7ec59a22856ba1be8945,,,,,,,decisionTrl,resources/DY.BMP,resources/DR.BMP,Door4,0.233333333,0.009259245,1,0,0,1.9116,optionRight,60,12255,6,4,0,4,0,1,,,,,,,,,,,,,,,,,,,,,,,,,,,,,,,,,,,,,,,
,,,,,,,,2023-08-16_08h48.15.813,HF_wild_card,2022.2.4,Win32,59.92329818,5967e9a831394d0001abdb3f,64d2fd46c836a06233681665,64dc7ec59a22856ba1be8945,,,,,,,sngl,resources/Empty.png,resources/DG.BMP,Door1,0.401851908,0.048148134,1,0,0,1.0911,optionRight,30,12285,6,5,0,5,0,1,,,,,,,,,,,,,,,,,,,,,,,,,,,,,,,,,,,,,,,
,,,,,,,,2023-08-16_08h48.15.813,HF_wild_card,2022.2.4,Win32,59.92329818,5967e9a831394d0001abdb3f,64d2fd46c836a06233681665,64dc7ec59a22856ba1be8945,,,,,,,decisionTrl,resources/DG.BMP,resources/DBN.BMP,WildCard_NonEx,0.289814843,0.044444444,1,0,0,1.2928,optionRight,45,12330,6,6,0,6,0,1,,,,,,,,,,,,,,,,,,,,,,,,,,,,,,,,,,,,,,,
,,,,,,,,2023-08-16_08h48.15.813,HF_wild_card,2022.2.4,Win32,59.92329818,5967e9a831394d0001abdb3f,64d2fd46c836a06233681665,64dc7ec59a22856ba1be8945,,,,,,,decisionTrl,resources/DP.BMP,resources/DG.BMP,Door1,0.442592621,0.052777778,1,0,0,1.5432,optionRight,30,12360,6,7,0,7,0,1,,,,,,,,,,,,,,,,,,,,,,,,,,,,,,,,,,,,,,,
,,,,,,,,2023-08-16_08h48.15.813,HF_wild_card,2022.2.4,Win32,59.92329818,5967e9a831394d0001abdb3f,64d2fd46c836a06233681665,64dc7ec59a22856ba1be8945,,,,,,,decisionTrl,resources/DY.BMP,resources/DR.BMP,Door3,-0.285185157,0.034259245,1,0,0,1.3424,optionLeft,70,12430,6,8,0,8,0,1,,,,,,,,,,,,,,,,,,,,,,,,,,,,,,,,,,,,,,,
,,,,,,,,2023-08-16_08h48.15.813,HF_wild_card,2022.2.4,Win32,59.92329818,5967e9a831394d0001abdb3f,64d2fd46c836a06233681665,64dc7ec59a22856ba1be8945,,,,,,,decisionTrl,resources/DR.BMP,resources/DBN.BMP,Door4,-0.235185157,-0.002777778,1,0,0,1.1743,optionLeft,80,12510,6,9,0,9,0,1,,,,,,,,,,,,,,,,,,,,,,,,,,,,,,,,,,,,,,,
,,,,,,,,2023-08-16_08h48.15.813,HF_wild_card,2022.2.4,Win32,59.92329818,5967e9a831394d0001abdb3f,64d2fd46c836a06233681665,64dc7ec59a22856ba1be8945,,,,,,,decisionTrl,resources/DP.BMP,resources/DG.BMP,Door1,0.446296353,0.062962935,1,0,0,1.194,optionRight,30,12540,6,10,0,10,0,1,,,,,,,,,,,,,,,,,,,,,,,,,,,,,,,,,,,,,,,
,,,,,,,,2023-08-16_08h48.15.813,HF_wild_card,2022.2.4,Win32,59.92329818,5967e9a831394d0001abdb3f,64d2fd46c836a06233681665,64dc7ec59a22856ba1be8945,,,,,,,decisionTrl,resources/DR.BMP,resources/DY.BMP,Door3,0.377777778,0.005555556,1,0,0,0.9295,optionRight,70,12610,6,11,0,11,0,1,,,,,,,,,,,,,,,,,,,,,,,,,,,,,,,,,,,,,,,
,,,,,,,,2023-08-16_08h48.15.813,HF_wild_card,2022.2.4,Win32,59.92329818,5967e9a831394d0001abdb3f,64d2fd46c836a06233681665,64dc7ec59a22856ba1be8945,,,,,,,sngl,resources/DG.BMP,resources/Empty.png,Door1,-0.239814801,0.056481467,1,0,0,0.9944,optionLeft,30,12640,6,12,0,12,0,1,,,,,,,,,,,,,,,,,,,,,,,,,,,,,,,,,,,,,,,
,,,,,,,,2023-08-16_08h48.15.813,HF_wild_card,2022.2.4,Win32,59.92329818,5967e9a831394d0001abdb3f,64d2fd46c836a06233681665,64dc7ec59a22856ba1be8945,,,,,,,decisionTrl,resources/DG.BMP,resources/DP.BMP,Door1,-0.208333333,-0.034259288,1,0,0,1.3598,optionLeft,30,12670,6,13,0,13,0,1,,,,,,,,,,,,,,,,,,,,,,,,,,,,,,,,,,,,,,,
,,,,,,,,2023-08-16_08h48.15.813,HF_wild_card,2022.2.4,Win32,59.92329818,5967e9a831394d0001abdb3f,64d2fd46c836a06233681665,64dc7ec59a22856ba1be8945,,,,,,,decisionTrl,resources/DP.BMP,resources/DBN.BMP,WildCard_NonEx,0.409259288,0.066666667,1,0,0,2.4108,optionRight,55,12725,6,14,0,14,0,1,,,,,,,,,,,,,,,,,,,,,,,,,,,,,,,,,,,,,,,
,,,,,,,,2023-08-16_08h48.15.813,HF_wild_card,2022.2.4,Win32,59.92329818,5967e9a831394d0001abdb3f,64d2fd46c836a06233681665,64dc7ec59a22856ba1be8945,,,,,,,decisionTrl,resources/DBN.BMP,resources/DG.BMP,WildCard_NonEx,-0.322222222,0.035185157,1,0,0,0.8673,optionLeft,45,12770,6,15,0,15,0,1,,,,,,,,,,,,,,,,,,,,,,,,,,,,,,,,,,,,,,,
,,,,,,,,2023-08-16_08h48.15.813,HF_wild_card,2022.2.4,Win32,59.92329818,5967e9a831394d0001abdb3f,64d2fd46c836a06233681665,64dc7ec59a22856ba1be8945,,,,,,,decisionTrl,resources/DBN.BMP,resources/DY.BMP,Door3,0.415740797,0.025,1,0,0,1.0113,optionRight,70,12840,6,16,0,16,0,1,,,,,,,,,,,,,,,,,,,,,,,,,,,,,,,,,,,,,,,
,,,,,,,,2023-08-16_08h48.15.813,HF_wild_card,2022.2.4,Win32,59.92329818,5967e9a831394d0001abdb3f,64d2fd46c836a06233681665,64dc7ec59a22856ba1be8945,,,,,,,decisionTrl,resources/DP.BMP,resources/DG.BMP,Door1,0.389814843,-0.015740755,1,0,0,0.9587,optionRight,30,12870,6,17,0,17,0,1,,,,,,,,,,,,,,,,,,,,,,,,,,,,,,,,,,,,,,,
,,,,,,,,2023-08-16_08h48.15.813,HF_wild_card,2022.2.4,Win32,59.92329818,5967e9a831394d0001abdb3f,64d2fd46c836a06233681665,64dc7ec59a22856ba1be8945,,,,,,,decisionTrl,resources/DBN.BMP,resources/DP.BMP,WildCard_NonEx,-0.247222222,0.023148134,1,0,0,0.862,optionLeft,55,12925,6,18,0,18,0,1,,,,,,,,,,,,,,,,,,,,,,,,,,,,,,,,,,,,,,,
,,,,,,,,2023-08-16_08h48.15.813,HF_wild_card,2022.2.4,Win32,59.92329818,5967e9a831394d0001abdb3f,64d2fd46c836a06233681665,64dc7ec59a22856ba1be8945,,,,,,,ctch,resources/DG.BMP,resources/DR.BMP,Door4,0.348148176,0.012037023,1,0,0,0.7272,optionRight,80,13005,6,19,0,19,0,1,,,,,,,,,,,,,,,,,,,,,,,,,,,,,,,,,,,,,,,
,,,,,,,,2023-08-16_08h48.15.813,HF_wild_card,2022.2.4,Win32,59.92329818,5967e9a831394d0001abdb3f,64d2fd46c836a06233681665,64dc7ec59a22856ba1be8945,,,,,,,decisionTrl,resources/DY.BMP,resources/DR.BMP,Door4,0.447222222,0.005555556,1,0,0,0.6781,optionRight,80,13085,6,20,0,20,0,1,,,,,,,,,,,,,,,,,,,,,,,,,,,,,,,,,,,,,,,
,,,,,,,,2023-08-16_08h48.15.813,HF_wild_card,2022.2.4,Win32,59.92329818,5967e9a831394d0001abdb3f,64d2fd46c836a06233681665,64dc7ec59a22856ba1be8945,,,,,,,sngl,resources/DR.BMP,resources/Empty.png,Door4,-0.294444444,-0.053703732,1,0,0,0.5773,optionLeft,60,13145,6,21,0,21,0,1,,,,,,,,,,,,,,,,,,,,,,,,,,,,,,,,,,,,,,,
,,,,,,,,2023-08-16_08h48.15.813,HF_wild_card,2022.2.4,Win32,59.92329818,5967e9a831394d0001abdb3f,64d2fd46c836a06233681665,64dc7ec59a22856ba1be8945,,,,,,,ctch,resources/DP.BMP,resources/DY.BMP,Door3,0.284259288,-0.009259288,1,0,0,0.7123,optionRight,70,13215,6,22,0,22,0,1,,,,,,,,,,,,,,,,,,,,,,,,,,,,,,,,,,,,,,,
,,,,,,,,2023-08-16_08h48.15.813,HF_wild_card,2022.2.4,Win32,59.92329818,5967e9a831394d0001abdb3f,64d2fd46c836a06233681665,64dc7ec59a22856ba1be8945,,,,,,,decisionTrl,resources/DR.BMP,resources/DY.BMP,Door3,0.367592621,0.008333333,1,0,0,0.7615,optionRight,70,13285,6,23,0,23,0,1,,,,,,,,,,,,,,,,,,,,,,,,,,,,,,,,,,,,,,,
,,,,,,,,2023-08-16_08h48.15.813,HF_wild_card,2022.2.4,Win32,59.92329818,5967e9a831394d0001abdb3f,64d2fd46c836a06233681665,64dc7ec59a22856ba1be8945,,,,,,,decisionTrl,resources/DBN.BMP,resources/DR.BMP,Door4,0.360185242,-0.009259288,1,0,0,0.6442,optionRight,60,13345,6,24,0,24,0,1,,,,,,,,,,,,,,,,,,,,,,,,,,,,,,,,,,,,,,,
,,,,,,,,2023-08-16_08h48.15.813,HF_wild_card,2022.2.4,Win32,59.92329818,5967e9a831394d0001abdb3f,64d2fd46c836a06233681665,64dc7ec59a22856ba1be8945,,,,,,,decisionTrl,resources/DG.BMP,resources/DP.BMP,Door1,-0.321296268,-0.050925954,1,0,0,1.0093,optionLeft,30,13375,6,25,0,25,0,1,,,,,,,,,,,,,,,,,,,,,,,,,,,,,,,,,,,,,,,
,,,,,,,,2023-08-16_08h48.15.813,HF_wild_card,2022.2.4,Win32,59.92329818,5967e9a831394d0001abdb3f,64d2fd46c836a06233681665,64dc7ec59a22856ba1be8945,,,,,,,sngl,resources/Empty.png,resources/DR.BMP,Door4,0.370370399,0.005555556,1,0,0,0.9918,optionRight,80,13455,6,26,0,26,0,1,,,,,,,,,,,,,,,,,,,,,,,,,,,,,,,,,,,,,,,
,,,,,,,,2023-08-16_08h48.15.813,HF_wild_card,2022.2.4,Win32,59.92329818,5967e9a831394d0001abdb3f,64d2fd46c836a06233681665,64dc7ec59a22856ba1be8945,,,,,,,sngl,resources/Empty.png,resources/DBN.BMP,WildCard_NonEx,0.413888889,0.027777778,1,0,0,0.994,optionRight,55,13510,6,27,0,27,0,1,,,,,,,,,,,,,,,,,,,,,,,,,,,,,,,,,,,,,,,
,,,,,,,,2023-08-16_08h48.15.813,HF_wild_card,2022.2.4,Win32,59.92329818,5967e9a831394d0001abdb3f,64d2fd46c836a06233681665,64dc7ec59a22856ba1be8945,,,,,,,sngl,resources/Empty.png,resources/DY.BMP,Door3,0.423148176,0.013888889,1,0,0,0.763,optionRight,70,13580,6,28,0,28,0,1,,,,,,,,,,,,,,,,,,,,,,,,,,,,,,,,,,,,,,,
,,,,,,,,2023-08-16_08h48.15.813,HF_wild_card,2022.2.4,Win32,59.92329818,5967e9a831394d0001abdb3f,64d2fd46c836a06233681665,64dc7ec59a22856ba1be8945,,,,,,,decisionTrl,resources/DR.BMP,resources/DY.BMP,Door3,0.376851908,0.069444444,1,0,0,1.7118,optionRight,70,13650,6,29,0,29,0,1,,,,,,,,,,,,,,,,,,,,,,,,,,,,,,,,,,,,,,,
,,,,,,,,2023-08-16_08h48.15.813,HF_wild_card,2022.2.4,Win32,59.92329818,5967e9a831394d0001abdb3f,64d2fd46c836a06233681665,64dc7ec59a22856ba1be8945,,,,,,,decisionTrl,resources/DR.BMP,resources/DY.BMP,Door3,0.333333333,0.022222222,1,0,0,1.1426,optionRight,70,13720,6,30,0,30,0,1,,,,,,,,,,,,,,,,,,,,,,,,,,,,,,,,,,,,,,,
,,,,,,,,2023-08-16_08h48.15.813,HF_wild_card,2022.2.4,Win32,59.92329818,5967e9a831394d0001abdb3f,64d2fd46c836a06233681665,64dc7ec59a22856ba1be8945,,,,,,,decisionTrl,resources/DG.BMP,resources/DP.BMP,Door1,-0.25370369,0.005555556,1,0,0,1.2595,optionLeft,30,13750,6,31,0,31,0,1,,,,,,,,,,,,,,,,,,,,,,,,,,,,,,,,,,,,,,,
,,,,,,,,2023-08-16_08h48.15.813,HF_wild_card,2022.2.4,Win32,59.92329818,5967e9a831394d0001abdb3f,64d2fd46c836a06233681665,64dc7ec59a22856ba1be8945,,,,,,,sngl,resources/Empty.png,resources/DBN.BMP,WildCard_NonEx,0.359259288,0.05370369,1,0,0,0.5926,optionRight,45,13795,6,32,0,32,0,1,,,,,,,,,,,,,,,,,,,,,,,,,,,,,,,,,,,,,,,
,,,,,,,,2023-08-16_08h48.15.813,HF_wild_card,2022.2.4,Win32,59.92329818,5967e9a831394d0001abdb3f,64d2fd46c836a06233681665,64dc7ec59a22856ba1be8945,,,,,,,ctch,resources/DY.BMP,resources/DP.BMP,Door3,-0.27870369,-0.015740755,1,0,0,0.7258,optionLeft,70,13865,6,33,0,33,0,1,,,,,,,,,,,,,,,,,,,,,,,,,,,,,,,,,,,,,,,
,,,,,,,,2023-08-16_08h48.15.813,HF_wild_card,2022.2.4,Win32,59.92329818,5967e9a831394d0001abdb3f,64d2fd46c836a06233681665,64dc7ec59a22856ba1be8945,,,,,,,ctch,resources/DR.BMP,resources/DG.BMP,Door4,-0.173148092,0.000925912,1,0,0,0.6759,optionLeft,80,13945,6,34,0,34,0,1,,,,,,,,,,,,,,,,,,,,,,,,,,,,,,,,,,,,,,,
,,,,,,,,2023-08-16_08h48.15.813,HF_wild_card,2022.2.4,Win32,59.92329818,5967e9a831394d0001abdb3f,64d2fd46c836a06233681665,64dc7ec59a22856ba1be8945,,,,,,,sngl,resources/DY.BMP,resources/Empty.png,Door3,-0.2,-0.015740755,1,0,0,0.592,optionLeft,70,14015,6,35,0,35,0,1,,,,,,,,,,,,,,,,,,,,,,,,,,,,,,,,,,,,,,,
,,,,,,,,2023-08-16_08h48.15.813,HF_wild_card,2022.2.4,Win32,59.92329818,5967e9a831394d0001abdb3f,64d2fd46c836a06233681665,64dc7ec59a22856ba1be8945,,,,,,,ctch,resources/DR.BMP,resources/DG.BMP,Door4,-0.326851824,-0.015740755,1,0,0,0.6594,optionLeft,60,14075,6,36,0,36,0,1,,,,,,,,,,,,,,,,,,,,,,,,,,,,,,,,,,,,,,,
,,,,,,,,2023-08-16_08h48.15.813,HF_wild_card,2022.2.4,Win32,59.92329818,5967e9a831394d0001abdb3f,64d2fd46c836a06233681665,64dc7ec59a22856ba1be8945,,,,,,,ctch,resources/DP.BMP,resources/DY.BMP,Door3,0.387037065,0.026851824,1,0,0,0.6318,optionRight,70,14145,6,37,0,37,0,1,,,,,,,,,,,,,,,,,,,,,,,,,,,,,,,,,,,,,,,
,,,,,,,,2023-08-16_08h48.15.813,HF_wild_card,2022.2.4,Win32,59.92329818,5967e9a831394d0001abdb3f,64d2fd46c836a06233681665,64dc7ec59a22856ba1be8945,,,,,,,sngl,resources/Empty.png,resources/DP.BMP,Door2,0.3,0.037037023,1,0,0,0.9268,optionRight,40,14185,6,38,0,38,0,1,,,,,,,,,,,,,,,,,,,,,,,,,,,,,,,,,,,,,,,
,,,,,,,,2023-08-16_08h48.15.813,HF_wild_card,2022.2.4,Win32,59.92329818,5967e9a831394d0001abdb3f,64d2fd46c836a06233681665,64dc7ec59a22856ba1be8945,,,,,,,decisionTrl,resources/DP.BMP,resources/DG.BMP,Door1,0.379629686,0.041666667,1,0,0,1.4961,optionRight,30,14215,6,39,0,39,0,1,,,,,,,,,,,,,,,,,,,,,,,,,,,,,,,,,,,,,,,
,,,,,,,,2023-08-16_08h48.15.813,HF_wild_card,2022.2.4,Win32,59.92329818,5967e9a831394d0001abdb3f,64d2fd46c836a06233681665,64dc7ec59a22856ba1be8945,,,,,,,decisionTrl,resources/DY.BMP,resources/DR.BMP,Door3,-0.267592578,0.035185157,1,0,0,2.0296,optionLeft,70,14285,6,40,0,40,0,1,,,,,,,,,,,,,,,,,,,,,,,,,,,,,,,,,,,,,,,
,,,,,,,,2023-08-16_08h48.15.813,HF_wild_card,2022.2.4,Win32,59.92329818,5967e9a831394d0001abdb3f,64d2fd46c836a06233681665,64dc7ec59a22856ba1be8945,,,,,,,ctch,resources/DY.BMP,resources/DP.BMP,Door3,-0.31851849,0.033333333,1,0,0,1.1118,optionLeft,70,14355,6,41,0,41,0,1,,,,,,,,,,,,,,,,,,,,,,,,,,,,,,,,,,,,,,,
,,,,,,,,2023-08-16_08h48.15.813,HF_wild_card,2022.2.4,Win32,59.92329818,5967e9a831394d0001abdb3f,64d2fd46c836a06233681665,64dc7ec59a22856ba1be8945,,,,,,,sngl,resources/DBN.BMP,resources/Empty.png,WildCard_NonEx,-0.280555556,0.036111111,1,0,0,1.0094,optionLeft,45,14400,6,42,0,42,0,1,,,,,,,,,,,,,,,,,,,,,,,,,,,,,,,,,,,,,,,
,,,,,,,,2023-08-16_08h48.15.813,HF_wild_card,2022.2.4,Win32,59.92329818,5967e9a831394d0001abdb3f,64d2fd46c836a06233681665,64dc7ec59a22856ba1be8945,,,,,,,ctch,resources/DG.BMP,resources/DR.BMP,Door4,0.40648151,0.012962935,1,0,0,1.0589,optionRight,60,14460,6,43,0,43,0,1,,,,,,,,,,,,,,,,,,,,,,,,,,,,,,,,,,,,,,,
,,,,,,,,2023-08-16_08h48.15.813,HF_wild_card,2022.2.4,Win32,59.92329818,5967e9a831394d0001abdb3f,64d2fd46c836a06233681665,64dc7ec59a22856ba1be8945,,,,,,,,,,,,,,,,,,,,,,,,,,5,0,5,0,1,,,,,,,,,,,,,,,,,,,,,,,,,,,,,,,,,,
,,,,,,,,2023-08-16_08h48.15.813,HF_wild_card,2022.2.4,Win32,59.92329818,5967e9a831394d0001abdb3f,64d2fd46c836a06233681665,64dc7ec59a22856ba1be8945,,,,,,,ctch,resources/DG.BMP,resources/DR.BMP,Door4,0.382407464,0.090740712,1,0,0,1.2976,optionRight,60,14520,7,0,0,0,0,1,,,,,,,,,,,,,,,,,,,,,,,,,,,,,,,,,,,,,,,
,,,,,,,,2023-08-16_08h48.15.813,HF_wild_card,2022.2.4,Win32,59.92329818,5967e9a831394d0001abdb3f,64d2fd46c836a06233681665,64dc7ec59a22856ba1be8945,,,,,,,decisionTrl,resources/DR.BMP,resources/DY.BMP,Door4,-0.319444444,-0.000925954,1,0,0,1.8956,optionLeft,60,14580,7,1,0,1,0,1,,,,,,,,,,,,,,,,,,,,,,,,,,,,,,,,,,,,,,,
,,,,,,,,2023-08-16_08h48.15.813,HF_wild_card,2022.2.4,Win32,59.92329818,5967e9a831394d0001abdb3f,64d2fd46c836a06233681665,64dc7ec59a22856ba1be8945,,,,,,,ctch,resources/DG.BMP,resources/DR.BMP,Door4,0.466666667,0.001851824,1,0,0,1.0282,optionRight,80,14660,7,2,0,2,0,1,,,,,,,,,,,,,,,,,,,,,,,,,,,,,,,,,,,,,,,
,,,,,,,,2023-08-16_08h48.15.813,HF_wild_card,2022.2.4,Win32,59.92329818,5967e9a831394d0001abdb3f,64d2fd46c836a06233681665,64dc7ec59a22856ba1be8945,,,,,,,ctch,resources/DR.BMP,resources/DG.BMP,Door4,-0.341666667,-0.03148151,1,0,0,0.8964,optionLeft,60,14720,7,3,0,3,0,1,,,,,,,,,,,,,,,,,,,,,,,,,,,,,,,,,,,,,,,
,,,,,,,,2023-08-16_08h48.15.813,HF_wild_card,2022.2.4,Win32,59.92329818,5967e9a831394d0001abdb3f,64d2fd46c836a06233681665,64dc7ec59a22856ba1be8945,,,,,,,decisionTrl,resources/DG.BMP,resources/DP.BMP,Door1,-0.282407379,-0.062037065,1,0,0,1.6468,optionLeft,30,14750,7,4,0,4,0,1,,,,,,,,,,,,,,,,,,,,,,,,,,,,,,,,,,,,,,,
,,,,,,,,2023-08-16_08h48.15.813,HF_wild_card,2022.2.4,Win32,59.92329818,5967e9a831394d0001abdb3f,64d2fd46c836a06233681665,64dc7ec59a22856ba1be8945,,,,,,,ctch,resources/DY.BMP,resources/DP.BMP,Door3,-0.302777778,-0.037962977,1,0,0,1.0966,optionLeft,70,14820,7,5,0,5,0,1,,,,,,,,,,,,,,,,,,,,,,,,,,,,,,,,,,,,,,,
,,,,,,,,2023-08-16_08h48.15.813,HF_wild_card,2022.2.4,Win32,59.92329818,5967e9a831394d0001abdb3f,64d2fd46c836a06233681665,64dc7ec59a22856ba1be8945,,,,,,,decisionTrl,resources/DR.BMP,resources/DY.BMP,Door4,-0.407407379,-0.095370399,1,0,0,1.4116,optionLeft,80,14900,7,6,0,6,0,1,,,,,,,,,,,,,,,,,,,,,,,,,,,,,,,,,,,,,,,
,,,,,,,,2023-08-16_08h48.15.813,HF_wild_card,2022.2.4,Win32,59.92329818,5967e9a831394d0001abdb3f,64d2fd46c836a06233681665,64dc7ec59a22856ba1be8945,,,,,,,decisionTrl,resources/DR.BMP,resources/DY.BMP,Door4,-0.300925912,-0.080555556,1,0,0,1.0966,optionLeft,60,14960,7,7,0,7,0,1,,,,,,,,,,,,,,,,,,,,,,,,,,,,,,,,,,,,,,,
,,,,,,,,2023-08-16_08h48.15.813,HF_wild_card,2022.2.4,Win32,59.92329818,5967e9a831394d0001abdb3f,64d2fd46c836a06233681665,64dc7ec59a22856ba1be8945,,,,,,,ctch,resources/DP.BMP,resources/DY.BMP,Door3,0.297222222,-0.037037065,1,0,0,1.0837,optionRight,70,15030,7,8,0,8,0,1,,,,,,,,,,,,,,,,,,,,,,,,,,,,,,,,,,,,,,,
,,,,,,,,2023-08-16_08h48.15.813,HF_wild_card,2022.2.4,Win32,59.92329818,5967e9a831394d0001abdb3f,64d2fd46c836a06233681665,64dc7ec59a22856ba1be8945,,,,,,,decisionTrl,resources/DR.BMP,resources/DY.BMP,Door4,-0.296296268,-0.080555556,1,0,0,1.2783,optionLeft,60,15090,7,9,0,9,0,1,,,,,,,,,,,,,,,,,,,,,,,,,,,,,,,,,,,,,,,
,,,,,,,,2023-08-16_08h48.15.813,HF_wild_card,2022.2.4,Win32,59.92329818,5967e9a831394d0001abdb3f,64d2fd46c836a06233681665,64dc7ec59a22856ba1be8945,,,,,,,ctch,resources/DR.BMP,resources/DG.BMP,Door4,-0.354629601,-0.064814843,1,0,0,0.9494,optionLeft,80,15170,7,10,0,10,0,1,,,,,,,,,,,,,,,,,,,,,,,,,,,,,,,,,,,,,,,
,,,,,,,,2023-08-16_08h48.15.813,HF_wild_card,2022.2.4,Win32,59.92329818,5967e9a831394d0001abdb3f,64d2fd46c836a06233681665,64dc7ec59a22856ba1be8945,,,,,,,decisionTrl,resources/DG.BMP,resources/DP.BMP,Door1,-0.222222222,-0.019444444,1,0,0,1.3984,optionLeft,30,15200,7,11,0,11,0,1,,,,,,,,,,,,,,,,,,,,,,,,,,,,,,,,,,,,,,,
,,,,,,,,2023-08-16_08h48.15.813,HF_wild_card,2022.2.4,Win32,59.92329818,5967e9a831394d0001abdb3f,64d2fd46c836a06233681665,64dc7ec59a22856ba1be8945,,,,,,,decisionTrl,resources/DR.BMP,resources/DY.BMP,Door4,-0.290740712,-0.023148176,1,0,0,1.3644,optionLeft,60,15260,7,12,0,12,0,1,,,,,,,,,,,,,,,,,,,,,,,,,,,,,,,,,,,,,,,
,,,,,,,,2023-08-16_08h48.15.813,HF_wild_card,2022.2.4,Win32,59.92329818,5967e9a831394d0001abdb3f,64d2fd46c836a06233681665,64dc7ec59a22856ba1be8945,,,,,,,ctch,resources/DY.BMP,resources/DP.BMP,Door3,-0.239814801,-0.012962977,1,0,0,0.9117,optionLeft,70,15330,7,13,0,13,0,1,,,,,,,,,,,,,,,,,,,,,,,,,,,,,,,,,,,,,,,
,,,,,,,,2023-08-16_08h48.15.813,HF_wild_card,2022.2.4,Win32,59.92329818,5967e9a831394d0001abdb3f,64d2fd46c836a06233681665,64dc7ec59a22856ba1be8945,,,,,,,decisionTrl,resources/DP.BMP,resources/DG.BMP,Door1,0.359259288,-0.039814843,1,0,0,1.1302,optionRight,30,15360,7,14,0,14,0,1,,,,,,,,,,,,,,,,,,,,,,,,,,,,,,,,,,,,,,,
,,,,,,,,2023-08-16_08h48.15.813,HF_wild_card,2022.2.4,Win32,59.92329818,5967e9a831394d0001abdb3f,64d2fd46c836a06233681665,64dc7ec59a22856ba1be8945,,,,,,,decisionTrl,resources/DP.BMP,resources/DG.BMP,Door1,0.447222222,-0.009259288,1,0,0,1.1811,optionRight,30,15390,7,15,0,15,0,1,,,,,,,,,,,,,,,,,,,,,,,,,,,,,,,,,,,,,,,
,,,,,,,,2023-08-16_08h48.15.813,HF_wild_card,2022.2.4,Win32,59.92329818,5967e9a831394d0001abdb3f,64d2fd46c836a06233681665,64dc7ec59a22856ba1be8945,,,,,,,decisionTrl,resources/DG.BMP,resources/DP.BMP,Door1,-0.166666667,-0.023148176,1,0,0,1.5634,optionLeft,30,15420,7,16,0,16,0,1,,,,,,,,,,,,,,,,,,,,,,,,,,,,,,,,,,,,,,,
,,,,,,,,2023-08-16_08h48.15.813,HF_wild_card,2022.2.4,Win32,59.92329818,5967e9a831394d0001abdb3f,64d2fd46c836a06233681665,64dc7ec59a22856ba1be8945,,,,,,,ctch,resources/DP.BMP,resources/DY.BMP,Door3,0.377777778,0.010185157,1,0,0,0.9944,optionRight,70,15490,7,17,0,17,0,1,,,,,,,,,,,,,,,,,,,,,,,,,,,,,,,,,,,,,,,
,,,,,,,,2023-08-16_08h48.15.813,HF_wild_card,2022.2.4,Win32,59.92329818,5967e9a831394d0001abdb3f,64d2fd46c836a06233681665,64dc7ec59a22856ba1be8945,,,,,,,decisionTrl,resources/DY.BMP,resources/DR.BMP,Door4,0.240740797,0.005555556,1,0,0,1.0796,optionRight,60,15550,7,18,0,18,0,1,,,,,,,,,,,,,,,,,,,,,,,,,,,,,,,,,,,,,,,
,,,,,,,,2023-08-16_08h48.15.813,HF_wild_card,2022.2.4,Win32,59.92329818,5967e9a831394d0001abdb3f,64d2fd46c836a06233681665,64dc7ec59a22856ba1be8945,,,,,,,decisionTrl,resources/DY.BMP,resources/DR.BMP,Door4,0.344444444,-0.010185199,1,0,0,0.9051,optionRight,80,15630,7,19,0,19,0,1,,,,,,,,,,,,,,,,,,,,,,,,,,,,,,,,,,,,,,,
,,,,,,,,2023-08-16_08h48.15.813,HF_wild_card,2022.2.4,Win32,59.92329818,5967e9a831394d0001abdb3f,64d2fd46c836a06233681665,64dc7ec59a22856ba1be8945,,,,,,,decisionTrl,resources/DP.BMP,resources/DG.BMP,Door1,0.330555556,-0.015740755,1,0,0,1.2146,optionRight,30,15660,7,20,0,20,0,1,,,,,,,,,,,,,,,,,,,,,,,,,,,,,,,,,,,,,,,
,,,,,,,,2023-08-16_08h48.15.813,HF_wild_card,2022.2.4,Win32,59.92329818,5967e9a831394d0001abdb3f,64d2fd46c836a06233681665,64dc7ec59a22856ba1be8945,,,,,,,ctch,resources/DY.BMP,resources/DP.BMP,Door3,-0.173148092,-0.012037065,1,0,0,1.1778,optionLeft,70,15730,7,21,0,21,0,1,,,,,,,,,,,,,,,,,,,,,,,,,,,,,,,,,,,,,,,
,,,,,,,,2023-08-16_08h48.15.813,HF_wild_card,2022.2.4,Win32,59.92329818,5967e9a831394d0001abdb3f,64d2fd46c836a06233681665,64dc7ec59a22856ba1be8945,,,,,,,decisionTrl,resources/DY.BMP,resources/DR.BMP,Door3,-0.234259245,-0.047222222,1,0,0,1.0627,optionLeft,70,15800,7,22,0,22,0,1,,,,,,,,,,,,,,,,,,,,,,,,,,,,,,,,,,,,,,,
,,,,,,,,2023-08-16_08h48.15.813,HF_wild_card,2022.2.4,Win32,59.92329818,5967e9a831394d0001abdb3f,64d2fd46c836a06233681665,64dc7ec59a22856ba1be8945,,,,,,,decisionTrl,resources/DG.BMP,resources/DP.BMP,Door1,-0.273148134,-0.067592621,1,0,0,1.4654,optionLeft,30,15830,7,23,0,23,0,1,,,,,,,,,,,,,,,,,,,,,,,,,,,,,,,,,,,,,,,
,,,,,,,,2023-08-16_08h48.15.813,HF_wild_card,2022.2.4,Win32,59.92329818,5967e9a831394d0001abdb3f,64d2fd46c836a06233681665,64dc7ec59a22856ba1be8945,,,,,,,decisionTrl,resources/DY.BMP,resources/DR.BMP,Door4,0.405555556,0.019444444,1,0,0,0.9968,optionRight,80,15910,7,24,0,24,0,1,,,,,,,,,,,,,,,,,,,,,,,,,,,,,,,,,,,,,,,
,,,,,,,,2023-08-16_08h48.15.813,HF_wild_card,2022.2.4,Win32,59.92329818,5967e9a831394d0001abdb3f,64d2fd46c836a06233681665,64dc7ec59a22856ba1be8945,,,,,,,decisionTrl,resources/DR.BMP,resources/DY.BMP,Door4,-0.36851849,-0.045370399,1,0,0,1.1995,optionLeft,80,15990,7,25,0,25,0,1,,,,,,,,,,,,,,,,,,,,,,,,,,,,,,,,,,,,,,,
,,,,,,,,2023-08-16_08h48.15.813,HF_wild_card,2022.2.4,Win32,59.92329818,5967e9a831394d0001abdb3f,64d2fd46c836a06233681665,64dc7ec59a22856ba1be8945,,,,,,,decisionTrl,resources/DG.BMP,resources/DP.BMP,Door1,-0.300925912,-0.008333333,1,0,0,1.2336,optionLeft,30,16020,7,26,0,26,0,1,,,,,,,,,,,,,,,,,,,,,,,,,,,,,,,,,,,,,,,
,,,,,,,,2023-08-16_08h48.15.813,HF_wild_card,2022.2.4,Win32,59.92329818,5967e9a831394d0001abdb3f,64d2fd46c836a06233681665,64dc7ec59a22856ba1be8945,,,,,,,decisionTrl,resources/DP.BMP,resources/DG.BMP,Door1,0.387037065,-0.011111111,1,0,0,1.1481,optionRight,30,16050,7,27,0,27,0,1,,,,,,,,,,,,,,,,,,,,,,,,,,,,,,,,,,,,,,,
,,,,,,,,2023-08-16_08h48.15.813,HF_wild_card,2022.2.4,Win32,59.92329818,5967e9a831394d0001abdb3f,64d2fd46c836a06233681665,64dc7ec59a22856ba1be8945,,,,,,,decisionTrl,resources/DY.BMP,resources/DR.BMP,Door3,-0.287962935,-0.013888889,1,0,0,1.4826,optionLeft,70,16120,7,28,0,28,0,1,,,,,,,,,,,,,,,,,,,,,,,,,,,,,,,,,,,,,,,
,,,,,,,,2023-08-16_08h48.15.813,HF_wild_card,2022.2.4,Win32,59.92329818,5967e9a831394d0001abdb3f,64d2fd46c836a06233681665,64dc7ec59a22856ba1be8945,,,,,,,decisionTrl,resources/DY.BMP,resources/DR.BMP,Door4,0.447222222,-0.087962977,1,0,0,0.9319,optionRight,60,16180,7,29,0,29,0,1,,,,,,,,,,,,,,,,,,,,,,,,,,,,,,,,,,,,,,,
,,,,,,,,2023-08-16_08h48.15.813,HF_wild_card,2022.2.4,Win32,59.92329818,5967e9a831394d0001abdb3f,64d2fd46c836a06233681665,64dc7ec59a22856ba1be8945,,,,,,,ctch,resources/DP.BMP,resources/DY.BMP,Door3,0.338888889,-0.012037065,1,0,0,0.9121,optionRight,70,16250,7,30,0,30,0,1,,,,,,,,,,,,,,,,,,,,,,,,,,,,,,,,,,,,,,,
,,,,,,,,2023-08-16_08h48.15.813,HF_wild_card,2022.2.4,Win32,59.92329818,5967e9a831394d0001abdb3f,64d2fd46c836a06233681665,64dc7ec59a22856ba1be8945,,,,,,,ctch,resources/DG.BMP,resources/DR.BMP,Door4,0.408333333,-0.019444444,1,0,0,0.9654,optionRight,60,16310,7,31,0,31,0,1,,,,,,,,,,,,,,,,,,,,,,,,,,,,,,,,,,,,,,,
,,,,,,,,2023-08-16_08h48.15.813,HF_wild_card,2022.2.4,Win32,59.92329818,5967e9a831394d0001abdb3f,64d2fd46c836a06233681665,64dc7ec59a22856ba1be8945,,,,,,,decisionTrl,resources/DP.BMP,resources/DG.BMP,Door1,0.299074131,-0.010185199,1,0,0,1.0778,optionRight,30,16340,7,32,0,32,0,1,,,,,,,,,,,,,,,,,,,,,,,,,,,,,,,,,,,,,,,
,,,,,,,,2023-08-16_08h48.15.813,HF_wild_card,2022.2.4,Win32,59.92329818,5967e9a831394d0001abdb3f,64d2fd46c836a06233681665,64dc7ec59a22856ba1be8945,,,,,,,decisionTrl,resources/DP.BMP,resources/DG.BMP,Door1,0.308333333,-0.039814843,1,0,0,1.1488,optionRight,30,16370,7,33,0,33,0,1,,,,,,,,,,,,,,,,,,,,,,,,,,,,,,,,,,,,,,,
,,,,,,,,2023-08-16_08h48.15.813,HF_wild_card,2022.2.4,Win32,59.92329818,5967e9a831394d0001abdb3f,64d2fd46c836a06233681665,64dc7ec59a22856ba1be8945,,,,,,,decisionTrl,resources/DG.BMP,resources/DP.BMP,Door1,-0.211111111,-0.052777778,1,0,0,1.0945,optionLeft,30,16400,7,34,0,34,0,1,,,,,,,,,,,,,,,,,,,,,,,,,,,,,,,,,,,,,,,
,,,,,,,,2023-08-16_08h48.15.813,HF_wild_card,2022.2.4,Win32,59.92329818,5967e9a831394d0001abdb3f,64d2fd46c836a06233681665,64dc7ec59a22856ba1be8945,,,,,,,ctch,resources/DR.BMP,resources/DG.BMP,Door4,-0.213888889,-0.035185199,1,0,0,0.8619,optionLeft,80,16480,7,35,0,35,0,1,,,,,,,,,,,,,,,,,,,,,,,,,,,,,,,,,,,,,,,
,,,,,,,,2023-08-16_08h48.15.813,HF_wild_card,2022.2.4,Win32,59.92329818,5967e9a831394d0001abdb3f,64d2fd46c836a06233681665,64dc7ec59a22856ba1be8945,,,,,,,,,,,,,,,,,,,,,,,,,,6,0,6,0,1,,,,,,,,,,,,,,,,,,,,,,,,,,,,,,,,,,
,,,,,,,,2023-08-16_08h48.15.813,HF_wild_card,2022.2.4,Win32,59.92329818,5967e9a831394d0001abdb3f,64d2fd46c836a06233681665,64dc7ec59a22856ba1be8945,,,,,,,,,,,,,,,,,,,,,,,,,,,,,,,4,,,,,,,,,,,,,,,,,,,,,,,,,,,,,,,,,
,,,,,,,,2023-08-16_08h48.15.813,HF_wild_card,2022.2.4,Win32,59.92329818,5967e9a831394d0001abdb3f,64d2fd46c836a06233681665,64dc7ec59a22856ba1be8945,,,,,,,,,,,,,,,,,,,,,,,,,,,,,,,,,,,,,,,,,,,,,,,,,,,,,,,,,,,,,,,,
,,,,,,,,2023-08-16_08h48.15.813,HF_wild_card,2022.2.4,Win32,59.92329818,5967e9a831394d0001abdb3f,64d2fd46c836a06233681665,64dc7ec59a22856ba1be8945,,,,,,,,,,,,,,,,,,,,,,,,,,,,,,,,20,Door2,resources/DP.BMP,0,0,0,0,1,,,,,,,,,,,,,,,,,,,,,,,,,
,,,,,,,,2023-08-16_08h48.15.813,HF_wild_card,2022.2.4,Win32,59.92329818,5967e9a831394d0001abdb3f,64d2fd46c836a06233681665,64dc7ec59a22856ba1be8945,,,,,,,,,,,,,,,,,,,,,,,,,,,,,,,,55,WC_nonExtreme,resources/DBN.BMP,1,0,1,0,1,,,,,,,,,,,,,,,,,,,,,,,,,
,,,,,,,,2023-08-16_08h48.15.813,HF_wild_card,2022.2.4,Win32,59.92329818,5967e9a831394d0001abdb3f,64d2fd46c836a06233681665,64dc7ec59a22856ba1be8945,,,,,,,,,,,,,,,,,,,,,,,,,,,,,,,,5,WC_extreme,resources/DB.BMP,2,0,2,0,1,,,,,,,,,,,,,,,,,,,,,,,,,
,,,,,,,,2023-08-16_08h48.15.813,HF_wild_card,2022.2.4,Win32,59.92329818,5967e9a831394d0001abdb3f,64d2fd46c836a06233681665,64dc7ec59a22856ba1be8945,,,,,,,,,,,,,,,,,,,,,,,,,,,,,,,,30,Door1,resources/DG.BMP,3,0,3,0,1,,,,,,,,,,,,,,,,,,,,,,,,,
,,,,,,,,2023-08-16_08h48.15.813,HF_wild_card,2022.2.4,Win32,59.92329818,5967e9a831394d0001abdb3f,64d2fd46c836a06233681665,64dc7ec59a22856ba1be8945,,,,,,,,,,,,,,,,,,,,,,,,,,,,,,,,70,Door3,resources/DY.BMP,4,0,4,0,1,,,,,,,,,,,,,,,,,,,,,,,,,
,,,,,,,,2023-08-16_08h48.15.813,HF_wild_card,2022.2.4,Win32,59.92329818,5967e9a831394d0001abdb3f,64d2fd46c836a06233681665,64dc7ec59a22856ba1be8945,,,,,,,,,,,,,,,,,,,,,,,,,,,,,,,,80,Door4,resources/DR.BMP,5,0,5,0,1,,,,,,,,,,,,,,,,,,,,,,,,,
,,,,,,,,2023-08-16_08h48.15.813,HF_wild_card,2022.2.4,Win32,59.92329818,5967e9a831394d0001abdb3f,64d2fd46c836a06233681665,64dc7ec59a22856ba1be8945,,,,,,,,,,,,,,,,,,,,,,,,,,,,,,,,,,,,,,,,,,,,,,,,,,,,,,,,,,,,,,,,
