Condition,Low fixed image (Door1),Low risky image (Door2),High fixed image (Door3),High risky image (Door4),NonExtreme Wild Card 1,NonExtreme Wild Card 2,,date,expName,psychopyVersion,OS,frameRate,PROLIFIC_PID,STUDY_ID,SESSION_ID,mouse_2.x,mouse_2.y,mouse_2.leftButton,mouse_2.midButton,mouse_2.rightButton,mouse_2.clicked_name,Trial Type,Left Option Image,Right Option Image,Chosen Door,mouse.x,mouse.y,mouse.leftButton,mouse.midButton,mouse.rightButton,mouse.time,mouse.clicked_name,Feedback,Cumulative Reward,Block,trial.thisRepN,trial.thisTrialN,trial.thisN,trial.thisIndex,trial.ran,blocks.thisRepN,blocks.thisTrialN,blocks.thisN,blocks.thisIndex,blocks.ran,Money conversion,First Outcome Reported,Shown Door (First Outcome),Displayed Image (First Outcome),outcomes.thisRepN,outcomes.thisTrialN,outcomes.thisN,outcomes.thisIndex,outcomes.ran,judgments.thisRepN,judgments.thisTrialN,judgments.thisN,judgments.thisIndex,judgments.ran,freqMouse.x,freqMouse.y,freqMouse.leftButton,freqMouse.midButton,freqMouse.rightButton,freqMouse.clicked_name,FQJ for first outcome,FQJ for second outcome,Shown Door,Displayed Image,trials.thisRepN,trials.thisTrialN,trials.thisN,trials.thisIndex,trials.ran,judgBlock.thisRepN,judgBlock.thisTrialN,judgBlock.thisN,judgBlock.thisIndex,judgBlock.ran
2,resources/DBN.BMP,resources/DR.BMP,resources/DY.BMP,resources/DG.BMP,resources/DP.BMP,resources/DB.BMP,,2023-08-16_08h41.29.541,HF_wild_card,2022.2.4,Win32,59.93048064,5f200a9ae4a314270ab24cff,64d2fd46c836a06233681665,64dc7d8c00e26c1ae086472b,,,,,,,,,,,,,,,,,,,,,,,,,,,,,,,,,,,,,,,,,,,,,,,,,,,,,,,,,,,,,,,,
,,,,,,,,2023-08-16_08h41.29.541,HF_wild_card,2022.2.4,Win32,59.93048064,5f200a9ae4a314270ab24cff,64d2fd46c836a06233681665,64dc7d8c00e26c1ae086472b,0.012962977,-0.415740755,1,0,0,agree,,,,,,,,,,,,,,,,,,,,,,,,,,,,,,,,,,,,,,,,,,,,,,,,,,,,,,,,,,
,,,,,,,,2023-08-16_08h41.29.541,HF_wild_card,2022.2.4,Win32,59.93048064,5f200a9ae4a314270ab24cff,64d2fd46c836a06233681665,64dc7d8c00e26c1ae086472b,,,,,,,,,,,,,,,,,,,,,,,,,,,,,,,,,,,,,,,,,,,,,,,,,,,,,,,,,,,,,,,,
,,,,,,,,2023-08-16_08h41.29.541,HF_wild_card,2022.2.4,Win32,59.93048064,5f200a9ae4a314270ab24cff,64d2fd46c836a06233681665,64dc7d8c00e26c1ae086472b,,,,,,,ctch,resources/DR.BMP,resources/DY.BMP,Door2,-0.40370369,-0.054629644,1,0,0,5.3916,optionLeft,40,40,1,0,0,0,0,1,,,,,,,,,,,,,,,,,,,,,,,,,,,,,,,,,,,,,,,
,,,,,,,,2023-08-16_08h41.29.541,HF_wild_card,2022.2.4,Win32,59.93048064,5f200a9ae4a314270ab24cff,64d2fd46c836a06233681665,64dc7d8c00e26c1ae086472b,,,,,,,ctch,resources/DBN.BMP,resources/DG.BMP,Door4,0.404629601,-0.128703718,1,0,0,3.3119,optionRight,60,100,1,1,0,1,0,1,,,,,,,,,,,,,,,,,,,,,,,,,,,,,,,,,,,,,,,
,,,,,,,,2023-08-16_08h41.29.541,HF_wild_card,2022.2.4,Win32,59.93048064,5f200a9ae4a314270ab24cff,64d2fd46c836a06233681665,64dc7d8c00e26c1ae086472b,,,,,,,decisionTrl,resources/DG.BMP,resources/DY.BMP,Door4,-0.405555548,-0.033333355,1,0,0,2.8034,optionLeft,80,180,1,2,0,2,0,1,,,,,,,,,,,,,,,,,,,,,,,,,,,,,,,,,,,,,,,
,,,,,,,,2023-08-16_08h41.29.541,HF_wild_card,2022.2.4,Win32,59.93048064,5f200a9ae4a314270ab24cff,64d2fd46c836a06233681665,64dc7d8c00e26c1ae086472b,,,,,,,sngl,resources/DR.BMP,resources/Empty.png,Door2,-0.39444443,-0.019444466,1,0,0,1.9542,optionLeft,40,220,1,3,0,3,0,1,,,,,,,,,,,,,,,,,,,,,,,,,,,,,,,,,,,,,,,
,,,,,,,,2023-08-16_08h41.29.541,HF_wild_card,2022.2.4,Win32,59.93048064,5f200a9ae4a314270ab24cff,64d2fd46c836a06233681665,64dc7d8c00e26c1ae086472b,,,,,,,decisionTrl,resources/DBN.BMP,resources/DR.BMP,Door2,0.394444501,-0.081481474,1,0,0,2.1961,optionRight,40,260,1,4,0,4,0,1,,,,,,,,,,,,,,,,,,,,,,,,,,,,,,,,,,,,,,,
,,,,,,,,2023-08-16_08h41.29.541,HF_wild_card,2022.2.4,Win32,59.93048064,5f200a9ae4a314270ab24cff,64d2fd46c836a06233681665,64dc7d8c00e26c1ae086472b,,,,,,,decisionTrl,resources/DBN.BMP,resources/DR.BMP,Door2,0.439814815,-0.031481496,1,0,0,1.7877,optionRight,40,300,1,5,0,5,0,1,,,,,,,,,,,,,,,,,,,,,,,,,,,,,,,,,,,,,,,
,,,,,,,,2023-08-16_08h41.29.541,HF_wild_card,2022.2.4,Win32,59.93048064,5f200a9ae4a314270ab24cff,64d2fd46c836a06233681665,64dc7d8c00e26c1ae086472b,,,,,,,sngl,resources/DB.BMP,resources/Empty.png,WildCard_NonEx,-0.381481489,-0.019444466,1,0,0,2.012,optionLeft,55,355,1,6,0,6,0,1,,,,,,,,,,,,,,,,,,,,,,,,,,,,,,,,,,,,,,,
,,,,,,,,2023-08-16_08h41.29.541,HF_wild_card,2022.2.4,Win32,59.93048064,5f200a9ae4a314270ab24cff,64d2fd46c836a06233681665,64dc7d8c00e26c1ae086472b,,,,,,,decisionTrl,resources/DB.BMP,resources/DBN.BMP,WildCard_NonEx,-0.474999993,-0.037037037,1,0,0,3.687,optionLeft,45,400,1,7,0,7,0,1,,,,,,,,,,,,,,,,,,,,,,,,,,,,,,,,,,,,,,,
,,,,,,,,2023-08-16_08h41.29.541,HF_wild_card,2022.2.4,Win32,59.93048064,5f200a9ae4a314270ab24cff,64d2fd46c836a06233681665,64dc7d8c00e26c1ae086472b,,,,,,,decisionTrl,resources/DG.BMP,resources/DY.BMP,Door4,-0.375925912,-0.062962956,1,0,0,4.0871,optionLeft,60,460,1,8,0,8,0,1,,,,,,,,,,,,,,,,,,,,,,,,,,,,,,,,,,,,,,,
,,,,,,,,2023-08-16_08h41.29.541,HF_wild_card,2022.2.4,Win32,59.93048064,5f200a9ae4a314270ab24cff,64d2fd46c836a06233681665,64dc7d8c00e26c1ae086472b,,,,,,,decisionTrl,resources/DR.BMP,resources/DB.BMP,WildCard_NonEx,0.430555556,-0.057407414,1,0,0,3.6052,optionRight,45,505,1,9,0,9,0,1,,,,,,,,,,,,,,,,,,,,,,,,,,,,,,,,,,,,,,,
,,,,,,,,2023-08-16_08h41.29.541,HF_wild_card,2022.2.4,Win32,59.93048064,5f200a9ae4a314270ab24cff,64d2fd46c836a06233681665,64dc7d8c00e26c1ae086472b,,,,,,,decisionTrl,resources/DY.BMP,resources/DG.BMP,Door4,0.387037065,-0.053703697,1,0,0,3.8543,optionRight,60,565,1,10,0,10,0,1,,,,,,,,,,,,,,,,,,,,,,,,,,,,,,,,,,,,,,,
,,,,,,,,2023-08-16_08h41.29.541,HF_wild_card,2022.2.4,Win32,59.93048064,5f200a9ae4a314270ab24cff,64d2fd46c836a06233681665,64dc7d8c00e26c1ae086472b,,,,,,,decisionTrl,resources/DR.BMP,resources/DBN.BMP,Door2,-0.397222201,-0.067592586,1,0,0,2.3133,optionLeft,20,585,1,11,0,11,0,1,,,,,,,,,,,,,,,,,,,,,,,,,,,,,,,,,,,,,,,
,,,,,,,,2023-08-16_08h41.29.541,HF_wild_card,2022.2.4,Win32,59.93048064,5f200a9ae4a314270ab24cff,64d2fd46c836a06233681665,64dc7d8c00e26c1ae086472b,,,,,,,decisionTrl,resources/DG.BMP,resources/DY.BMP,Door4,-0.322222215,-0.010185206,1,0,0,4.83,optionLeft,60,645,1,12,0,12,0,1,,,,,,,,,,,,,,,,,,,,,,,,,,,,,,,,,,,,,,,
,,,,,,,,2023-08-16_08h41.29.541,HF_wild_card,2022.2.4,Win32,59.93048064,5f200a9ae4a314270ab24cff,64d2fd46c836a06233681665,64dc7d8c00e26c1ae086472b,,,,,,,ctch,resources/DG.BMP,resources/DBN.BMP,Door4,-0.425925926,-0.033333355,1,0,0,2.1459,optionLeft,60,705,1,13,0,13,0,1,,,,,,,,,,,,,,,,,,,,,,,,,,,,,,,,,,,,,,,
,,,,,,,,2023-08-16_08h41.29.541,HF_wild_card,2022.2.4,Win32,59.93048064,5f200a9ae4a314270ab24cff,64d2fd46c836a06233681665,64dc7d8c00e26c1ae086472b,,,,,,,decisionTrl,resources/DR.BMP,resources/DBN.BMP,Door2,-0.353703711,-0.040740755,1,0,0,2.5222,optionLeft,40,745,1,14,0,14,0,1,,,,,,,,,,,,,,,,,,,,,,,,,,,,,,,,,,,,,,,
,,,,,,,,2023-08-16_08h41.29.541,HF_wild_card,2022.2.4,Win32,59.93048064,5f200a9ae4a314270ab24cff,64d2fd46c836a06233681665,64dc7d8c00e26c1ae086472b,,,,,,,decisionTrl,resources/DB.BMP,resources/DG.BMP,WildCard_NonEx,-0.410185178,-0.044444437,1,0,0,2.93,optionLeft,55,800,1,15,0,15,0,1,,,,,,,,,,,,,,,,,,,,,,,,,,,,,,,,,,,,,,,
,,,,,,,,2023-08-16_08h41.29.541,HF_wild_card,2022.2.4,Win32,59.93048064,5f200a9ae4a314270ab24cff,64d2fd46c836a06233681665,64dc7d8c00e26c1ae086472b,,,,,,,decisionTrl,resources/DY.BMP,resources/DG.BMP,Door4,0.4898149,-0.033333355,1,0,0,3.1633,optionRight,60,860,1,16,0,16,0,1,,,,,,,,,,,,,,,,,,,,,,,,,,,,,,,,,,,,,,,
,,,,,,,,2023-08-16_08h41.29.541,HF_wild_card,2022.2.4,Win32,59.93048064,5f200a9ae4a314270ab24cff,64d2fd46c836a06233681665,64dc7d8c00e26c1ae086472b,,,,,,,sngl,resources/Empty.png,resources/DB.BMP,WildCard_NonEx,0.399074131,-0.020370377,1,0,0,2.138,optionRight,55,915,1,17,0,17,0,1,,,,,,,,,,,,,,,,,,,,,,,,,,,,,,,,,,,,,,,
,,,,,,,,2023-08-16_08h41.29.541,HF_wild_card,2022.2.4,Win32,59.93048064,5f200a9ae4a314270ab24cff,64d2fd46c836a06233681665,64dc7d8c00e26c1ae086472b,,,,,,,decisionTrl,resources/DY.BMP,resources/DG.BMP,Door4,0.363888917,-0.020370377,1,0,0,2.6297,optionRight,80,995,1,18,0,18,0,1,,,,,,,,,,,,,,,,,,,,,,,,,,,,,,,,,,,,,,,
,,,,,,,,2023-08-16_08h41.29.541,HF_wild_card,2022.2.4,Win32,59.93048064,5f200a9ae4a314270ab24cff,64d2fd46c836a06233681665,64dc7d8c00e26c1ae086472b,,,,,,,decisionTrl,resources/DBN.BMP,resources/DR.BMP,Door2,0.367592564,-0.050925926,1,0,0,3.0383,optionRight,20,1015,1,19,0,19,0,1,,,,,,,,,,,,,,,,,,,,,,,,,,,,,,,,,,,,,,,
,,,,,,,,2023-08-16_08h41.29.541,HF_wild_card,2022.2.4,Win32,59.93048064,5f200a9ae4a314270ab24cff,64d2fd46c836a06233681665,64dc7d8c00e26c1ae086472b,,,,,,,sngl,resources/Empty.png,resources/DBN.BMP,Door1,0.382407436,0.005555541,1,0,0,1.8305,optionRight,30,1045,1,20,0,20,0,1,,,,,,,,,,,,,,,,,,,,,,,,,,,,,,,,,,,,,,,
,,,,,,,,2023-08-16_08h41.29.541,HF_wild_card,2022.2.4,Win32,59.93048064,5f200a9ae4a314270ab24cff,64d2fd46c836a06233681665,64dc7d8c00e26c1ae086472b,,,,,,,ctch,resources/DY.BMP,resources/DR.BMP,Door3,-0.41111109,-0.038888896,1,0,0,3.0294,optionLeft,70,1115,1,21,0,21,0,1,,,,,,,,,,,,,,,,,,,,,,,,,,,,,,,,,,,,,,,
,,,,,,,,2023-08-16_08h41.29.541,HF_wild_card,2022.2.4,Win32,59.93048064,5f200a9ae4a314270ab24cff,64d2fd46c836a06233681665,64dc7d8c00e26c1ae086472b,,,,,,,decisionTrl,resources/DB.BMP,resources/DR.BMP,WildCard_NonEx,-0.425925926,-0.033333355,1,0,0,2.0465,optionLeft,45,1160,1,22,0,22,0,1,,,,,,,,,,,,,,,,,,,,,,,,,,,,,,,,,,,,,,,
,,,,,,,,2023-08-16_08h41.29.541,HF_wild_card,2022.2.4,Win32,59.93048064,5f200a9ae4a314270ab24cff,64d2fd46c836a06233681665,64dc7d8c00e26c1ae086472b,,,,,,,sngl,resources/Empty.png,resources/DG.BMP,Door4,0.374074159,-0.029629637,1,0,0,1.9287,optionRight,60,1220,1,23,0,23,0,1,,,,,,,,,,,,,,,,,,,,,,,,,,,,,,,,,,,,,,,
,,,,,,,,2023-08-16_08h41.29.541,HF_wild_card,2022.2.4,Win32,59.93048064,5f200a9ae4a314270ab24cff,64d2fd46c836a06233681665,64dc7d8c00e26c1ae086472b,,,,,,,decisionTrl,resources/DR.BMP,resources/DBN.BMP,Door2,-0.416666667,-0.001851859,1,0,0,3.5462,optionLeft,20,1240,1,24,0,24,0,1,,,,,,,,,,,,,,,,,,,,,,,,,,,,,,,,,,,,,,,
,,,,,,,,2023-08-16_08h41.29.541,HF_wild_card,2022.2.4,Win32,59.93048064,5f200a9ae4a314270ab24cff,64d2fd46c836a06233681665,64dc7d8c00e26c1ae086472b,,,,,,,ctch,resources/DY.BMP,resources/DR.BMP,Door3,-0.381481489,-0.012962977,1,0,0,2.9124,optionLeft,70,1310,1,25,0,25,0,1,,,,,,,,,,,,,,,,,,,,,,,,,,,,,,,,,,,,,,,
,,,,,,,,2023-08-16_08h41.29.541,HF_wild_card,2022.2.4,Win32,59.93048064,5f200a9ae4a314270ab24cff,64d2fd46c836a06233681665,64dc7d8c00e26c1ae086472b,,,,,,,ctch,resources/DG.BMP,resources/DBN.BMP,Door4,-0.389814801,-0.025000007,1,0,0,1.8295,optionLeft,60,1370,1,26,0,26,0,1,,,,,,,,,,,,,,,,,,,,,,,,,,,,,,,,,,,,,,,
,,,,,,,,2023-08-16_08h41.29.541,HF_wild_card,2022.2.4,Win32,59.93048064,5f200a9ae4a314270ab24cff,64d2fd46c836a06233681665,64dc7d8c00e26c1ae086472b,,,,,,,sngl,resources/DY.BMP,resources/Empty.png,Door3,-0.373148141,0.001851859,1,0,0,1.8945,optionLeft,70,1440,1,27,0,27,0,1,,,,,,,,,,,,,,,,,,,,,,,,,,,,,,,,,,,,,,,
,,,,,,,,2023-08-16_08h41.29.541,HF_wild_card,2022.2.4,Win32,59.93048064,5f200a9ae4a314270ab24cff,64d2fd46c836a06233681665,64dc7d8c00e26c1ae086472b,,,,,,,sngl,resources/DG.BMP,resources/Empty.png,Door4,-0.350925905,-0.006481489,1,0,0,1.847,optionLeft,80,1520,1,28,0,28,0,1,,,,,,,,,,,,,,,,,,,,,,,,,,,,,,,,,,,,,,,
,,,,,,,,2023-08-16_08h41.29.541,HF_wild_card,2022.2.4,Win32,59.93048064,5f200a9ae4a314270ab24cff,64d2fd46c836a06233681665,64dc7d8c00e26c1ae086472b,,,,,,,ctch,resources/DR.BMP,resources/DY.BMP,Door3,0.420370455,-0.043518526,1,0,0,2.6128,optionRight,70,1590,1,29,0,29,0,1,,,,,,,,,,,,,,,,,,,,,,,,,,,,,,,,,,,,,,,
,,,,,,,,2023-08-16_08h41.29.541,HF_wild_card,2022.2.4,Win32,59.93048064,5f200a9ae4a314270ab24cff,64d2fd46c836a06233681665,64dc7d8c00e26c1ae086472b,,,,,,,decisionTrl,resources/DBN.BMP,resources/DR.BMP,Door2,0.3648149,-0.033333355,1,0,0,1.6793,optionRight,20,1610,1,30,0,30,0,1,,,,,,,,,,,,,,,,,,,,,,,,,,,,,,,,,,,,,,,
,,,,,,,,2023-08-16_08h41.29.541,HF_wild_card,2022.2.4,Win32,59.93048064,5f200a9ae4a314270ab24cff,64d2fd46c836a06233681665,64dc7d8c00e26c1ae086472b,,,,,,,sngl,resources/Empty.png,resources/DR.BMP,Door2,0.36018527,0.015740748,1,0,0,1.5047,optionRight,20,1630,1,31,0,31,0,1,,,,,,,,,,,,,,,,,,,,,,,,,,,,,,,,,,,,,,,
,,,,,,,,2023-08-16_08h41.29.541,HF_wild_card,2022.2.4,Win32,59.93048064,5f200a9ae4a314270ab24cff,64d2fd46c836a06233681665,64dc7d8c00e26c1ae086472b,,,,,,,decisionTrl,resources/DR.BMP,resources/DBN.BMP,Door2,-0.410185178,0.002777771,1,0,0,1.4466,optionLeft,40,1670,1,32,0,32,0,1,,,,,,,,,,,,,,,,,,,,,,,,,,,,,,,,,,,,,,,
,,,,,,,,2023-08-16_08h41.29.541,HF_wild_card,2022.2.4,Win32,59.93048064,5f200a9ae4a314270ab24cff,64d2fd46c836a06233681665,64dc7d8c00e26c1ae086472b,,,,,,,decisionTrl,resources/DG.BMP,resources/DB.BMP,WildCard_NonEx,0.377777806,-0.011111118,1,0,0,2.7129,optionRight,55,1725,1,33,0,33,0,1,,,,,,,,,,,,,,,,,,,,,,,,,,,,,,,,,,,,,,,
,,,,,,,,2023-08-16_08h41.29.541,HF_wild_card,2022.2.4,Win32,59.93048064,5f200a9ae4a314270ab24cff,64d2fd46c836a06233681665,64dc7d8c00e26c1ae086472b,,,,,,,sngl,resources/DBN.BMP,resources/Empty.png,Door1,-0.429629608,0.01944443,1,0,0,1.6963,optionLeft,30,1755,1,34,0,34,0,1,,,,,,,,,,,,,,,,,,,,,,,,,,,,,,,,,,,,,,,
,,,,,,,,2023-08-16_08h41.29.541,HF_wild_card,2022.2.4,Win32,59.93048064,5f200a9ae4a314270ab24cff,64d2fd46c836a06233681665,64dc7d8c00e26c1ae086472b,,,,,,,decisionTrl,resources/DG.BMP,resources/DY.BMP,Door4,-0.363888882,-0.030555548,1,0,0,2.3965,optionLeft,80,1835,1,35,0,35,0,1,,,,,,,,,,,,,,,,,,,,,,,,,,,,,,,,,,,,,,,
,,,,,,,,2023-08-16_08h41.29.541,HF_wild_card,2022.2.4,Win32,59.93048064,5f200a9ae4a314270ab24cff,64d2fd46c836a06233681665,64dc7d8c00e26c1ae086472b,,,,,,,ctch,resources/DBN.BMP,resources/DG.BMP,Door4,0.429629714,-0.012962977,1,0,0,1.9798,optionRight,80,1915,1,36,0,36,0,1,,,,,,,,,,,,,,,,,,,,,,,,,,,,,,,,,,,,,,,
,,,,,,,,2023-08-16_08h41.29.541,HF_wild_card,2022.2.4,Win32,59.93048064,5f200a9ae4a314270ab24cff,64d2fd46c836a06233681665,64dc7d8c00e26c1ae086472b,,,,,,,sngl,resources/Empty.png,resources/DY.BMP,Door3,0.356481481,-0.045370384,1,0,0,1.5132,optionRight,70,1985,1,37,0,37,0,1,,,,,,,,,,,,,,,,,,,,,,,,,,,,,,,,,,,,,,,
,,,,,,,,2023-08-16_08h41.29.541,HF_wild_card,2022.2.4,Win32,59.93048064,5f200a9ae4a314270ab24cff,64d2fd46c836a06233681665,64dc7d8c00e26c1ae086472b,,,,,,,sngl,resources/Empty.png,resources/DB.BMP,WildCard_NonEx,0.361111111,0.01666666,1,0,0,1.9126,optionRight,45,2030,1,38,0,38,0,1,,,,,,,,,,,,,,,,,,,,,,,,,,,,,,,,,,,,,,,
,,,,,,,,2023-08-16_08h41.29.541,HF_wild_card,2022.2.4,Win32,59.93048064,5f200a9ae4a314270ab24cff,64d2fd46c836a06233681665,64dc7d8c00e26c1ae086472b,,,,,,,decisionTrl,resources/DBN.BMP,resources/DB.BMP,WildCard_NonEx,0.358333305,0.021296289,1,0,0,2.3467,optionRight,55,2085,1,39,0,39,0,1,,,,,,,,,,,,,,,,,,,,,,,,,,,,,,,,,,,,,,,
,,,,,,,,2023-08-16_08h41.29.541,HF_wild_card,2022.2.4,Win32,59.93048064,5f200a9ae4a314270ab24cff,64d2fd46c836a06233681665,64dc7d8c00e26c1ae086472b,,,,,,,decisionTrl,resources/DB.BMP,resources/DY.BMP,WildCard_NonEx,-0.345370363,0.011111118,1,0,0,2.7133,optionLeft,55,2140,1,40,0,40,0,1,,,,,,,,,,,,,,,,,,,,,,,,,,,,,,,,,,,,,,,
,,,,,,,,2023-08-16_08h41.29.541,HF_wild_card,2022.2.4,Win32,59.93048064,5f200a9ae4a314270ab24cff,64d2fd46c836a06233681665,64dc7d8c00e26c1ae086472b,,,,,,,decisionTrl,resources/DY.BMP,resources/DB.BMP,Door3,-0.280555513,-0.006481489,1,0,0,2.33,optionLeft,70,2210,1,41,0,41,0,1,,,,,,,,,,,,,,,,,,,,,,,,,,,,,,,,,,,,,,,
,,,,,,,,2023-08-16_08h41.29.541,HF_wild_card,2022.2.4,Win32,59.93048064,5f200a9ae4a314270ab24cff,64d2fd46c836a06233681665,64dc7d8c00e26c1ae086472b,,,,,,,sngl,resources/DB.BMP,resources/Empty.png,WildCard_NonEx,-0.294444402,-0.023148148,1,0,0,1.3796,optionLeft,45,2255,1,42,0,42,0,1,,,,,,,,,,,,,,,,,,,,,,,,,,,,,,,,,,,,,,,
,,,,,,,,2023-08-16_08h41.29.541,HF_wild_card,2022.2.4,Win32,59.93048064,5f200a9ae4a314270ab24cff,64d2fd46c836a06233681665,64dc7d8c00e26c1ae086472b,,,,,,,decisionTrl,resources/DY.BMP,resources/DG.BMP,Door3,-0.334259245,-0.006481489,1,0,0,1.4627,optionLeft,70,2325,1,43,0,43,0,1,,,,,,,,,,,,,,,,,,,,,,,,,,,,,,,,,,,,,,,
,,,,,,,,2023-08-16_08h41.29.541,HF_wild_card,2022.2.4,Win32,59.93048064,5f200a9ae4a314270ab24cff,64d2fd46c836a06233681665,64dc7d8c00e26c1ae086472b,,,,,,,,,,,,,,,,,,,,,,,,,,0,0,0,0,1,,,,,,,,,,,,,,,,,,,,,,,,,,,,,,,,,,
,,,,,,,,2023-08-16_08h41.29.541,HF_wild_card,2022.2.4,Win32,59.93048064,5f200a9ae4a314270ab24cff,64d2fd46c836a06233681665,64dc7d8c00e26c1ae086472b,,,,,,,ctch,resources/DG.BMP,resources/DBN.BMP,Door4,-0.298148155,-0.044444437,1,0,0,2.452,optionLeft,80,2405,2,0,0,0,0,1,,,,,,,,,,,,,,,,,,,,,,,,,,,,,,,,,,,,,,,
,,,,,,,,2023-08-16_08h41.29.541,HF_wild_card,2022.2.4,Win32,59.93048064,5f200a9ae4a314270ab24cff,64d2fd46c836a06233681665,64dc7d8c00e26c1ae086472b,,,,,,,decisionTrl,resources/DG.BMP,resources/DY.BMP,Door4,-0.376851859,-0.030555548,1,0,0,1.8937,optionLeft,60,2465,2,1,0,1,0,1,,,,,,,,,,,,,,,,,,,,,,,,,,,,,,,,,,,,,,,
,,,,,,,,2023-08-16_08h41.29.541,HF_wild_card,2022.2.4,Win32,59.93048064,5f200a9ae4a314270ab24cff,64d2fd46c836a06233681665,64dc7d8c00e26c1ae086472b,,,,,,,sngl,resources/DY.BMP,resources/Empty.png,Door3,-0.324999986,0.011111118,1,0,0,1.3804,optionLeft,70,2535,2,2,0,2,0,1,,,,,,,,,,,,,,,,,,,,,,,,,,,,,,,,,,,,,,,
,,,,,,,,2023-08-16_08h41.29.541,HF_wild_card,2022.2.4,Win32,59.93048064,5f200a9ae4a314270ab24cff,64d2fd46c836a06233681665,64dc7d8c00e26c1ae086472b,,,,,,,decisionTrl,resources/DBN.BMP,resources/DB.BMP,Door1,-0.335185192,0.034259266,1,0,0,4.0785,optionLeft,30,2565,2,3,0,3,0,1,,,,,,,,,,,,,,,,,,,,,,,,,,,,,,,,,,,,,,,
,,,,,,,,2023-08-16_08h41.29.541,HF_wild_card,2022.2.4,Win32,59.93048064,5f200a9ae4a314270ab24cff,64d2fd46c836a06233681665,64dc7d8c00e26c1ae086472b,,,,,,,sngl,resources/DB.BMP,resources/Empty.png,WildCard_NonEx,-0.348148134,-0.022222236,1,0,0,1.5607,optionLeft,45,2610,2,4,0,4,0,1,,,,,,,,,,,,,,,,,,,,,,,,,,,,,,,,,,,,,,,
,,,,,,,,2023-08-16_08h41.29.541,HF_wild_card,2022.2.4,Win32,59.93048064,5f200a9ae4a314270ab24cff,64d2fd46c836a06233681665,64dc7d8c00e26c1ae086472b,,,,,,,sngl,resources/Empty.png,resources/DBN.BMP,Door1,0.344444416,0.048148155,1,0,0,1.7605,optionRight,30,2640,2,5,0,5,0,1,,,,,,,,,,,,,,,,,,,,,,,,,,,,,,,,,,,,,,,
,,,,,,,,2023-08-16_08h41.29.541,HF_wild_card,2022.2.4,Win32,59.93048064,5f200a9ae4a314270ab24cff,64d2fd46c836a06233681665,64dc7d8c00e26c1ae086472b,,,,,,,decisionTrl,resources/DR.BMP,resources/DBN.BMP,Door2,-0.334259245,-0.006481489,1,0,0,1.5936,optionLeft,20,2660,2,6,0,6,0,1,,,,,,,,,,,,,,,,,,,,,,,,,,,,,,,,,,,,,,,
,,,,,,,,2023-08-16_08h41.29.541,HF_wild_card,2022.2.4,Win32,59.93048064,5f200a9ae4a314270ab24cff,64d2fd46c836a06233681665,64dc7d8c00e26c1ae086472b,,,,,,,decisionTrl,resources/DY.BMP,resources/DB.BMP,WildCard_NonEx,0.406481566,0,1,0,0,2.1444,optionRight,55,2715,2,7,0,7,0,1,,,,,,,,,,,,,,,,,,,,,,,,,,,,,,,,,,,,,,,
,,,,,,,,2023-08-16_08h41.29.541,HF_wild_card,2022.2.4,Win32,59.93048064,5f200a9ae4a314270ab24cff,64d2fd46c836a06233681665,64dc7d8c00e26c1ae086472b,,,,,,,decisionTrl,resources/DBN.BMP,resources/DR.BMP,Door2,0.356481481,-0.00462963,1,0,0,2.4462,optionRight,20,2735,2,8,0,8,0,1,,,,,,,,,,,,,,,,,,,,,,,,,,,,,,,,,,,,,,,
,,,,,,,,2023-08-16_08h41.29.541,HF_wild_card,2022.2.4,Win32,59.93048064,5f200a9ae4a314270ab24cff,64d2fd46c836a06233681665,64dc7d8c00e26c1ae086472b,,,,,,,decisionTrl,resources/DR.BMP,resources/DBN.BMP,Door2,-0.369444423,-0.017592607,1,0,0,1.584,optionLeft,20,2755,2,9,0,9,0,1,,,,,,,,,,,,,,,,,,,,,,,,,,,,,,,,,,,,,,,
,,,,,,,,2023-08-16_08h41.29.541,HF_wild_card,2022.2.4,Win32,59.93048064,5f200a9ae4a314270ab24cff,64d2fd46c836a06233681665,64dc7d8c00e26c1ae086472b,,,,,,,sngl,resources/Empty.png,resources/DG.BMP,Door4,0.339814787,-0.031481496,1,0,0,1.4253,optionRight,80,2835,2,10,0,10,0,1,,,,,,,,,,,,,,,,,,,,,,,,,,,,,,,,,,,,,,,
,,,,,,,,2023-08-16_08h41.29.541,HF_wild_card,2022.2.4,Win32,59.93048064,5f200a9ae4a314270ab24cff,64d2fd46c836a06233681665,64dc7d8c00e26c1ae086472b,,,,,,,sngl,resources/Empty.png,resources/DB.BMP,WildCard_NonEx,0.350926011,0.043518526,1,0,0,1.6507,optionRight,45,2880,2,11,0,11,0,1,,,,,,,,,,,,,,,,,,,,,,,,,,,,,,,,,,,,,,,
,,,,,,,,2023-08-16_08h41.29.541,HF_wild_card,2022.2.4,Win32,59.93048064,5f200a9ae4a314270ab24cff,64d2fd46c836a06233681665,64dc7d8c00e26c1ae086472b,,,,,,,decisionTrl,resources/DR.BMP,resources/DBN.BMP,Door2,-0.349074081,0.010185171,1,0,0,2.2266,optionLeft,20,2900,2,12,0,12,0,1,,,,,,,,,,,,,,,,,,,,,,,,,,,,,,,,,,,,,,,
,,,,,,,,2023-08-16_08h41.29.541,HF_wild_card,2022.2.4,Win32,59.93048064,5f200a9ae4a314270ab24cff,64d2fd46c836a06233681665,64dc7d8c00e26c1ae086472b,,,,,,,ctch,resources/DG.BMP,resources/DBN.BMP,Door1,0.325925898,0.020370377,1,0,0,2.7764,optionRight,30,2930,2,13,0,13,0,1,,,,,,,,,,,,,,,,,,,,,,,,,,,,,,,,,,,,,,,
,,,,,,,,2023-08-16_08h41.29.541,HF_wild_card,2022.2.4,Win32,59.93048064,5f200a9ae4a314270ab24cff,64d2fd46c836a06233681665,64dc7d8c00e26c1ae086472b,,,,,,,decisionTrl,resources/DR.BMP,resources/DBN.BMP,Door1,0.335185157,0.071296303,1,0,0,1.6437,optionRight,30,2960,2,14,0,14,0,1,,,,,,,,,,,,,,,,,,,,,,,,,,,,,,,,,,,,,,,
,,,,,,,,2023-08-16_08h41.29.541,HF_wild_card,2022.2.4,Win32,59.93048064,5f200a9ae4a314270ab24cff,64d2fd46c836a06233681665,64dc7d8c00e26c1ae086472b,,,,,,,ctch,resources/DBN.BMP,resources/DG.BMP,Door4,0.354629658,0.009259259,1,0,0,1.7165,optionRight,80,3040,2,15,0,15,0,1,,,,,,,,,,,,,,,,,,,,,,,,,,,,,,,,,,,,,,,
,,,,,,,,2023-08-16_08h41.29.541,HF_wild_card,2022.2.4,Win32,59.93048064,5f200a9ae4a314270ab24cff,64d2fd46c836a06233681665,64dc7d8c00e26c1ae086472b,,,,,,,decisionTrl,resources/DY.BMP,resources/DG.BMP,Door4,0.337962963,0.037962949,1,0,0,1.7875,optionRight,80,3120,2,16,0,16,0,1,,,,,,,,,,,,,,,,,,,,,,,,,,,,,,,,,,,,,,,
,,,,,,,,2023-08-16_08h41.29.541,HF_wild_card,2022.2.4,Win32,59.93048064,5f200a9ae4a314270ab24cff,64d2fd46c836a06233681665,64dc7d8c00e26c1ae086472b,,,,,,,ctch,resources/DR.BMP,resources/DY.BMP,Door3,0.30277775,-0.054629644,1,0,0,3.2475,optionRight,70,3190,2,17,0,17,0,1,,,,,,,,,,,,,,,,,,,,,,,,,,,,,,,,,,,,,,,
,,,,,,,,2023-08-16_08h41.29.541,HF_wild_card,2022.2.4,Win32,59.93048064,5f200a9ae4a314270ab24cff,64d2fd46c836a06233681665,64dc7d8c00e26c1ae086472b,,,,,,,sngl,resources/DR.BMP,resources/Empty.png,Door2,-0.322222215,-0.000925947,1,0,0,1.5465,optionLeft,20,3210,2,18,0,18,0,1,,,,,,,,,,,,,,,,,,,,,,,,,,,,,,,,,,,,,,,
,,,,,,,,2023-08-16_08h41.29.541,HF_wild_card,2022.2.4,Win32,59.93048064,5f200a9ae4a314270ab24cff,64d2fd46c836a06233681665,64dc7d8c00e26c1ae086472b,,,,,,,sngl,resources/Empty.png,resources/DY.BMP,Door3,0.344444416,-0.030555548,1,0,0,1.281,optionRight,70,3280,2,19,0,19,0,1,,,,,,,,,,,,,,,,,,,,,,,,,,,,,,,,,,,,,,,
,,,,,,,,2023-08-16_08h41.29.541,HF_wild_card,2022.2.4,Win32,59.93048064,5f200a9ae4a314270ab24cff,64d2fd46c836a06233681665,64dc7d8c00e26c1ae086472b,,,,,,,decisionTrl,resources/DBN.BMP,resources/DR.BMP,Door2,0.343518575,-0.008333347,1,0,0,2.0928,optionRight,20,3300,2,20,0,20,0,1,,,,,,,,,,,,,,,,,,,,,,,,,,,,,,,,,,,,,,,
,,,,,,,,2023-08-16_08h41.29.541,HF_wild_card,2022.2.4,Win32,59.93048064,5f200a9ae4a314270ab24cff,64d2fd46c836a06233681665,64dc7d8c00e26c1ae086472b,,,,,,,decisionTrl,resources/DB.BMP,resources/DR.BMP,WildCard_NonEx,-0.371296282,-0.033333355,1,0,0,2.2644,optionLeft,45,3345,2,21,0,21,0,1,,,,,,,,,,,,,,,,,,,,,,,,,,,,,,,,,,,,,,,
,,,,,,,,2023-08-16_08h41.29.541,HF_wild_card,2022.2.4,Win32,59.93048064,5f200a9ae4a314270ab24cff,64d2fd46c836a06233681665,64dc7d8c00e26c1ae086472b,,,,,,,ctch,resources/DY.BMP,resources/DR.BMP,Door3,-0.292592578,0.02870369,1,0,0,2.7297,optionLeft,70,3415,2,22,0,22,0,1,,,,,,,,,,,,,,,,,,,,,,,,,,,,,,,,,,,,,,,
,,,,,,,,2023-08-16_08h41.29.541,HF_wild_card,2022.2.4,Win32,59.93048064,5f200a9ae4a314270ab24cff,64d2fd46c836a06233681665,64dc7d8c00e26c1ae086472b,,,,,,,decisionTrl,resources/DG.BMP,resources/DY.BMP,Door4,-0.308333326,-0.046296296,1,0,0,2.6842,optionLeft,80,3495,2,23,0,23,0,1,,,,,,,,,,,,,,,,,,,,,,,,,,,,,,,,,,,,,,,
,,,,,,,,2023-08-16_08h41.29.541,HF_wild_card,2022.2.4,Win32,59.93048064,5f200a9ae4a314270ab24cff,64d2fd46c836a06233681665,64dc7d8c00e26c1ae086472b,,,,,,,sngl,resources/Empty.png,resources/DR.BMP,Door2,0.281481496,0.009259259,1,0,0,1.2927,optionRight,40,3535,2,24,0,24,0,1,,,,,,,,,,,,,,,,,,,,,,,,,,,,,,,,,,,,,,,
,,,,,,,,2023-08-16_08h41.29.541,HF_wild_card,2022.2.4,Win32,59.93048064,5f200a9ae4a314270ab24cff,64d2fd46c836a06233681665,64dc7d8c00e26c1ae086472b,,,,,,,sngl,resources/DBN.BMP,resources/Empty.png,Door1,-0.340740734,0.04074072,1,0,0,1.2934,optionLeft,30,3565,2,25,0,25,0,1,,,,,,,,,,,,,,,,,,,,,,,,,,,,,,,,,,,,,,,
,,,,,,,,2023-08-16_08h41.29.541,HF_wild_card,2022.2.4,Win32,59.93048064,5f200a9ae4a314270ab24cff,64d2fd46c836a06233681665,64dc7d8c00e26c1ae086472b,,,,,,,decisionTrl,resources/DB.BMP,resources/DBN.BMP,WildCard_NonEx,-0.318518497,0,1,0,0,3.3475,optionLeft,45,3610,2,26,0,26,0,1,,,,,,,,,,,,,,,,,,,,,,,,,,,,,,,,,,,,,,,
,,,,,,,,2023-08-16_08h41.29.541,HF_wild_card,2022.2.4,Win32,59.93048064,5f200a9ae4a314270ab24cff,64d2fd46c836a06233681665,64dc7d8c00e26c1ae086472b,,,,,,,decisionTrl,resources/DY.BMP,resources/DG.BMP,Door4,0.337962963,-0.021296289,1,0,0,3.3607,optionRight,80,3690,2,27,0,27,0,1,,,,,,,,,,,,,,,,,,,,,,,,,,,,,,,,,,,,,,,
,,,,,,,,2023-08-16_08h41.29.541,HF_wild_card,2022.2.4,Win32,59.93048064,5f200a9ae4a314270ab24cff,64d2fd46c836a06233681665,64dc7d8c00e26c1ae086472b,,,,,,,sngl,resources/Empty.png,resources/DB.BMP,WildCard_NonEx,0.330555527,0.011111118,1,0,0,1.4089,optionRight,55,3745,2,28,0,28,0,1,,,,,,,,,,,,,,,,,,,,,,,,,,,,,,,,,,,,,,,
,,,,,,,,2023-08-16_08h41.29.541,HF_wild_card,2022.2.4,Win32,59.93048064,5f200a9ae4a314270ab24cff,64d2fd46c836a06233681665,64dc7d8c00e26c1ae086472b,,,,,,,ctch,resources/DY.BMP,resources/DR.BMP,Door3,-0.309259238,0.041666667,1,0,0,1.3828,optionLeft,70,3815,2,29,0,29,0,1,,,,,,,,,,,,,,,,,,,,,,,,,,,,,,,,,,,,,,,
,,,,,,,,2023-08-16_08h41.29.541,HF_wild_card,2022.2.4,Win32,59.93048064,5f200a9ae4a314270ab24cff,64d2fd46c836a06233681665,64dc7d8c00e26c1ae086472b,,,,,,,decisionTrl,resources/DG.BMP,resources/DY.BMP,Door4,-0.322222215,-0.029629637,1,0,0,2.3648,optionLeft,60,3875,2,30,0,30,0,1,,,,,,,,,,,,,,,,,,,,,,,,,,,,,,,,,,,,,,,
,,,,,,,,2023-08-16_08h41.29.541,HF_wild_card,2022.2.4,Win32,59.93048064,5f200a9ae4a314270ab24cff,64d2fd46c836a06233681665,64dc7d8c00e26c1ae086472b,,,,,,,decisionTrl,resources/DY.BMP,resources/DG.BMP,Door3,-0.284259231,0.01944443,1,0,0,3.3767,optionLeft,70,3945,2,31,0,31,0,1,,,,,,,,,,,,,,,,,,,,,,,,,,,,,,,,,,,,,,,
,,,,,,,,2023-08-16_08h41.29.541,HF_wild_card,2022.2.4,Win32,59.93048064,5f200a9ae4a314270ab24cff,64d2fd46c836a06233681665,64dc7d8c00e26c1ae086472b,,,,,,,decisionTrl,resources/DBN.BMP,resources/DR.BMP,Door2,0.316666638,-0.018518519,1,0,0,1.5647,optionRight,40,3985,2,32,0,32,0,1,,,,,,,,,,,,,,,,,,,,,,,,,,,,,,,,,,,,,,,
,,,,,,,,2023-08-16_08h41.29.541,HF_wild_card,2022.2.4,Win32,59.93048064,5f200a9ae4a314270ab24cff,64d2fd46c836a06233681665,64dc7d8c00e26c1ae086472b,,,,,,,decisionTrl,resources/DR.BMP,resources/DB.BMP,WildCard_NonEx,0.292592578,0.014814801,1,0,0,2.1466,optionRight,55,4040,2,33,0,33,0,1,,,,,,,,,,,,,,,,,,,,,,,,,,,,,,,,,,,,,,,
,,,,,,,,2023-08-16_08h41.29.541,HF_wild_card,2022.2.4,Win32,59.93048064,5f200a9ae4a314270ab24cff,64d2fd46c836a06233681665,64dc7d8c00e26c1ae086472b,,,,,,,decisionTrl,resources/DY.BMP,resources/DG.BMP,Door3,-0.291666667,-0.023148148,1,0,0,1.7145,optionLeft,70,4110,2,34,0,34,0,1,,,,,,,,,,,,,,,,,,,,,,,,,,,,,,,,,,,,,,,
,,,,,,,,2023-08-16_08h41.29.541,HF_wild_card,2022.2.4,Win32,59.93048064,5f200a9ae4a314270ab24cff,64d2fd46c836a06233681665,64dc7d8c00e26c1ae086472b,,,,,,,decisionTrl,resources/DG.BMP,resources/DY.BMP,Door4,-0.287037037,0.008333312,1,0,0,1.784,optionLeft,80,4190,2,35,0,35,0,1,,,,,,,,,,,,,,,,,,,,,,,,,,,,,,,,,,,,,,,
,,,,,,,,2023-08-16_08h41.29.541,HF_wild_card,2022.2.4,Win32,59.93048064,5f200a9ae4a314270ab24cff,64d2fd46c836a06233681665,64dc7d8c00e26c1ae086472b,,,,,,,sngl,resources/DG.BMP,resources/Empty.png,Door4,-0.302777785,0.014814801,1,0,0,1.6664,optionLeft,60,4250,2,36,0,36,0,1,,,,,,,,,,,,,,,,,,,,,,,,,,,,,,,,,,,,,,,
,,,,,,,,2023-08-16_08h41.29.541,HF_wild_card,2022.2.4,Win32,59.93048064,5f200a9ae4a314270ab24cff,64d2fd46c836a06233681665,64dc7d8c00e26c1ae086472b,,,,,,,ctch,resources/DR.BMP,resources/DY.BMP,Door3,0.338888945,-0.017592607,1,0,0,2.9641,optionRight,70,4320,2,37,0,37,0,1,,,,,,,,,,,,,,,,,,,,,,,,,,,,,,,,,,,,,,,
,,,,,,,,2023-08-16_08h41.29.541,HF_wild_card,2022.2.4,Win32,59.93048064,5f200a9ae4a314270ab24cff,64d2fd46c836a06233681665,64dc7d8c00e26c1ae086472b,,,,,,,ctch,resources/DBN.BMP,resources/DG.BMP,Door4,0.352777834,0.012962942,1,0,0,1.8936,optionRight,60,4380,2,38,0,38,0,1,,,,,,,,,,,,,,,,,,,,,,,,,,,,,,,,,,,,,,,
,,,,,,,,2023-08-16_08h41.29.541,HF_wild_card,2022.2.4,Win32,59.93048064,5f200a9ae4a314270ab24cff,64d2fd46c836a06233681665,64dc7d8c00e26c1ae086472b,,,,,,,decisionTrl,resources/DBN.BMP,resources/DR.BMP,Door2,0.294444473,-0.01203703,1,0,0,1.8286,optionRight,20,4400,2,39,0,39,0,1,,,,,,,,,,,,,,,,,,,,,,,,,,,,,,,,,,,,,,,
,,,,,,,,2023-08-16_08h41.29.541,HF_wild_card,2022.2.4,Win32,59.93048064,5f200a9ae4a314270ab24cff,64d2fd46c836a06233681665,64dc7d8c00e26c1ae086472b,,,,,,,decisionTrl,resources/DB.BMP,resources/DY.BMP,WildCard_NonEx,-0.352777764,0.03611109,1,0,0,1.7299,optionLeft,55,4455,2,40,0,40,0,1,,,,,,,,,,,,,,,,,,,,,,,,,,,,,,,,,,,,,,,
,,,,,,,,2023-08-16_08h41.29.541,HF_wild_card,2022.2.4,Win32,59.93048064,5f200a9ae4a314270ab24cff,64d2fd46c836a06233681665,64dc7d8c00e26c1ae086472b,,,,,,,decisionTrl,resources/DB.BMP,resources/DG.BMP,Door4,0.328703704,0.029629637,1,0,0,2.0547,optionRight,60,4515,2,41,0,41,0,1,,,,,,,,,,,,,,,,,,,,,,,,,,,,,,,,,,,,,,,
,,,,,,,,2023-08-16_08h41.29.541,HF_wild_card,2022.2.4,Win32,59.93048064,5f200a9ae4a314270ab24cff,64d2fd46c836a06233681665,64dc7d8c00e26c1ae086472b,,,,,,,decisionTrl,resources/DG.BMP,resources/DB.BMP,Door4,-0.284259231,-0.040740755,1,0,0,1.8301,optionLeft,60,4575,2,42,0,42,0,1,,,,,,,,,,,,,,,,,,,,,,,,,,,,,,,,,,,,,,,
,,,,,,,,2023-08-16_08h41.29.541,HF_wild_card,2022.2.4,Win32,59.93048064,5f200a9ae4a314270ab24cff,64d2fd46c836a06233681665,64dc7d8c00e26c1ae086472b,,,,,,,sngl,resources/DB.BMP,resources/Empty.png,WildCard_NonEx,-0.321296303,-0.025925919,1,0,0,1.3978,optionLeft,55,4630,2,43,0,43,0,1,,,,,,,,,,,,,,,,,,,,,,,,,,,,,,,,,,,,,,,
,,,,,,,,2023-08-16_08h41.29.541,HF_wild_card,2022.2.4,Win32,59.93048064,5f200a9ae4a314270ab24cff,64d2fd46c836a06233681665,64dc7d8c00e26c1ae086472b,,,,,,,,,,,,,,,,,,,,,,,,,,1,0,1,0,1,,,,,,,,,,,,,,,,,,,,,,,,,,,,,,,,,,
,,,,,,,,2023-08-16_08h41.29.541,HF_wild_card,2022.2.4,Win32,59.93048064,5f200a9ae4a314270ab24cff,64d2fd46c836a06233681665,64dc7d8c00e26c1ae086472b,,,,,,,ctch,resources/DBN.BMP,resources/DG.BMP,Door4,0.353703675,-0.01203703,1,0,0,2.8328,optionRight,80,4710,3,0,0,0,0,1,,,,,,,,,,,,,,,,,,,,,,,,,,,,,,,,,,,,,,,
,,,,,,,,2023-08-16_08h41.29.541,HF_wild_card,2022.2.4,Win32,59.93048064,5f200a9ae4a314270ab24cff,64d2fd46c836a06233681665,64dc7d8c00e26c1ae086472b,,,,,,,decisionTrl,resources/DY.BMP,resources/DG.BMP,Door3,-0.35833334,-0.005555577,1,0,0,2.572,optionLeft,70,4780,3,1,0,1,0,1,,,,,,,,,,,,,,,,,,,,,,,,,,,,,,,,,,,,,,,
,,,,,,,,2023-08-16_08h41.29.541,HF_wild_card,2022.2.4,Win32,59.93048064,5f200a9ae4a314270ab24cff,64d2fd46c836a06233681665,64dc7d8c00e26c1ae086472b,,,,,,,decisionTrl,resources/DY.BMP,resources/DB.BMP,WildCard_NonEx,0.323148233,0.044444437,1,0,0,3.9567,optionRight,55,4835,3,2,0,2,0,1,,,,,,,,,,,,,,,,,,,,,,,,,,,,,,,,,,,,,,,
,,,,,,,,2023-08-16_08h41.29.541,HF_wild_card,2022.2.4,Win32,59.93048064,5f200a9ae4a314270ab24cff,64d2fd46c836a06233681665,64dc7d8c00e26c1ae086472b,,,,,,,decisionTrl,resources/DR.BMP,resources/DBN.BMP,Door2,-0.320370356,0.009259259,1,0,0,1.839,optionLeft,40,4875,3,3,0,3,0,1,,,,,,,,,,,,,,,,,,,,,,,,,,,,,,,,,,,,,,,
,,,,,,,,2023-08-16_08h41.29.541,HF_wild_card,2022.2.4,Win32,59.93048064,5f200a9ae4a314270ab24cff,64d2fd46c836a06233681665,64dc7d8c00e26c1ae086472b,,,,,,,ctch,resources/DY.BMP,resources/DR.BMP,Door2,0.310185185,-0.030555548,1,0,0,3.653,optionRight,20,4895,3,4,0,4,0,1,,,,,,,,,,,,,,,,,,,,,,,,,,,,,,,,,,,,,,,
,,,,,,,,2023-08-16_08h41.29.541,HF_wild_card,2022.2.4,Win32,59.93048064,5f200a9ae4a314270ab24cff,64d2fd46c836a06233681665,64dc7d8c00e26c1ae086472b,,,,,,,decisionTrl,resources/DR.BMP,resources/DB.BMP,WildCard_NonEx,0.320370427,-0.017592607,1,0,0,4.535,optionRight,55,4950,3,5,0,5,0,1,,,,,,,,,,,,,,,,,,,,,,,,,,,,,,,,,,,,,,,
,,,,,,,,2023-08-16_08h41.29.541,HF_wild_card,2022.2.4,Win32,59.93048064,5f200a9ae4a314270ab24cff,64d2fd46c836a06233681665,64dc7d8c00e26c1ae086472b,,,,,,,decisionTrl,resources/DY.BMP,resources/DG.BMP,Door3,-0.324074074,0.042592578,1,0,0,2.9552,optionLeft,70,5020,3,6,0,6,0,1,,,,,,,,,,,,,,,,,,,,,,,,,,,,,,,,,,,,,,,
,,,,,,,,2023-08-16_08h41.29.541,HF_wild_card,2022.2.4,Win32,59.93048064,5f200a9ae4a314270ab24cff,64d2fd46c836a06233681665,64dc7d8c00e26c1ae086472b,,,,,,,decisionTrl,resources/DBN.BMP,resources/DB.BMP,WildCard_NonEx,0.343518575,-0.036111125,1,0,0,2.1308,optionRight,55,5075,3,7,0,7,0,1,,,,,,,,,,,,,,,,,,,,,,,,,,,,,,,,,,,,,,,
,,,,,,,,2023-08-16_08h41.29.541,HF_wild_card,2022.2.4,Win32,59.93048064,5f200a9ae4a314270ab24cff,64d2fd46c836a06233681665,64dc7d8c00e26c1ae086472b,,,,,,,sngl,resources/Empty.png,resources/DG.BMP,Door4,0.325925898,-0.001851859,1,0,0,3.3935,optionRight,60,5135,3,8,0,8,0,1,,,,,,,,,,,,,,,,,,,,,,,,,,,,,,,,,,,,,,,
,,,,,,,,2023-08-16_08h41.29.541,HF_wild_card,2022.2.4,Win32,59.93048064,5f200a9ae4a314270ab24cff,64d2fd46c836a06233681665,64dc7d8c00e26c1ae086472b,,,,,,,decisionTrl,resources/DG.BMP,resources/DB.BMP,Door4,-0.311111097,0.006481489,1,0,0,4.6744,optionLeft,60,5195,3,9,0,9,0,1,,,,,,,,,,,,,,,,,,,,,,,,,,,,,,,,,,,,,,,
,,,,,,,,2023-08-16_08h41.29.541,HF_wild_card,2022.2.4,Win32,59.93048064,5f200a9ae4a314270ab24cff,64d2fd46c836a06233681665,64dc7d8c00e26c1ae086472b,,,,,,,sngl,resources/Empty.png,resources/DBN.BMP,Door1,0.402777778,0.006481489,1,0,0,1.2184,optionRight,30,5225,3,10,0,10,0,1,,,,,,,,,,,,,,,,,,,,,,,,,,,,,,,,,,,,,,,
,,,,,,,,2023-08-16_08h41.29.541,HF_wild_card,2022.2.4,Win32,59.93048064,5f200a9ae4a314270ab24cff,64d2fd46c836a06233681665,64dc7d8c00e26c1ae086472b,,,,,,,decisionTrl,resources/DG.BMP,resources/DY.BMP,Door3,0.317592621,0.013888889,1,0,0,3.2465,optionRight,70,5295,3,11,0,11,0,1,,,,,,,,,,,,,,,,,,,,,,,,,,,,,,,,,,,,,,,
,,,,,,,,2023-08-16_08h41.29.541,HF_wild_card,2022.2.4,Win32,59.93048064,5f200a9ae4a314270ab24cff,64d2fd46c836a06233681665,64dc7d8c00e26c1ae086472b,,,,,,,ctch,resources/DBN.BMP,resources/DG.BMP,Door4,0.328703704,-0.019444466,1,0,0,1.3744,optionRight,80,5375,3,12,0,12,0,1,,,,,,,,,,,,,,,,,,,,,,,,,,,,,,,,,,,,,,,
,,,,,,,,2023-08-16_08h41.29.541,HF_wild_card,2022.2.4,Win32,59.93048064,5f200a9ae4a314270ab24cff,64d2fd46c836a06233681665,64dc7d8c00e26c1ae086472b,,,,,,,decisionTrl,resources/DBN.BMP,resources/DR.BMP,Door2,0.312037009,-0.000925947,1,0,0,1.5333,optionRight,40,5415,3,13,0,13,0,1,,,,,,,,,,,,,,,,,,,,,,,,,,,,,,,,,,,,,,,
,,,,,,,,2023-08-16_08h41.29.541,HF_wild_card,2022.2.4,Win32,59.93048064,5f200a9ae4a314270ab24cff,64d2fd46c836a06233681665,64dc7d8c00e26c1ae086472b,,,,,,,decisionTrl,resources/DB.BMP,resources/DY.BMP,Door3,0.342592593,-0.012962977,1,0,0,5.1503,optionRight,70,5485,3,14,0,14,0,1,,,,,,,,,,,,,,,,,,,,,,,,,,,,,,,,,,,,,,,
,,,,,,,,2023-08-16_08h41.29.541,HF_wild_card,2022.2.4,Win32,59.93048064,5f200a9ae4a314270ab24cff,64d2fd46c836a06233681665,64dc7d8c00e26c1ae086472b,,,,,,,decisionTrl,resources/DBN.BMP,resources/DR.BMP,Door2,0.320370427,-0.01203703,1,0,0,1.6298,optionRight,20,5505,3,15,0,15,0,1,,,,,,,,,,,,,,,,,,,,,,,,,,,,,,,,,,,,,,,
,,,,,,,,2023-08-16_08h41.29.541,HF_wild_card,2022.2.4,Win32,59.93048064,5f200a9ae4a314270ab24cff,64d2fd46c836a06233681665,64dc7d8c00e26c1ae086472b,,,,,,,decisionTrl,resources/DY.BMP,resources/DG.BMP,Door4,0.346296381,0.063888868,1,0,0,4.3802,optionRight,80,5585,3,16,0,16,0,1,,,,,,,,,,,,,,,,,,,,,,,,,,,,,,,,,,,,,,,
,,,,,,,,2023-08-16_08h41.29.541,HF_wild_card,2022.2.4,Win32,59.93048064,5f200a9ae4a314270ab24cff,64d2fd46c836a06233681665,64dc7d8c00e26c1ae086472b,,,,,,,decisionTrl,resources/DG.BMP,resources/DY.BMP,Door3,0.327777863,-0.013888889,1,0,0,4.2297,optionRight,70,5655,3,17,0,17,0,1,,,,,,,,,,,,,,,,,,,,,,,,,,,,,,,,,,,,,,,
,,,,,,,,2023-08-16_08h41.29.541,HF_wild_card,2022.2.4,Win32,59.93048064,5f200a9ae4a314270ab24cff,64d2fd46c836a06233681665,64dc7d8c00e26c1ae086472b,,,,,,,sngl,resources/DG.BMP,resources/Empty.png,Door4,-0.306481467,0.017592571,1,0,0,2.1273,optionLeft,80,5735,3,18,0,18,0,1,,,,,,,,,,,,,,,,,,,,,,,,,,,,,,,,,,,,,,,
,,,,,,,,2023-08-16_08h41.29.541,HF_wild_card,2022.2.4,Win32,59.93048064,5f200a9ae4a314270ab24cff,64d2fd46c836a06233681665,64dc7d8c00e26c1ae086472b,,,,,,,ctch,resources/DY.BMP,resources/DR.BMP,Door3,-0.373148141,0.000925912,1,0,0,3.5969,optionLeft,70,5805,3,19,0,19,0,1,,,,,,,,,,,,,,,,,,,,,,,,,,,,,,,,,,,,,,,
,,,,,,,,2023-08-16_08h41.29.541,HF_wild_card,2022.2.4,Win32,59.93048064,5f200a9ae4a314270ab24cff,64d2fd46c836a06233681665,64dc7d8c00e26c1ae086472b,,,,,,,decisionTrl,resources/DG.BMP,resources/DY.BMP,Door4,-0.291666667,0.01203703,1,0,0,4.7274,optionLeft,80,5885,3,20,0,20,0,1,,,,,,,,,,,,,,,,,,,,,,,,,,,,,,,,,,,,,,,
,,,,,,,,2023-08-16_08h41.29.541,HF_wild_card,2022.2.4,Win32,59.93048064,5f200a9ae4a314270ab24cff,64d2fd46c836a06233681665,64dc7d8c00e26c1ae086472b,,,,,,,decisionTrl,resources/DB.BMP,resources/DR.BMP,WildCard_NonEx,-0.455555563,0.014814801,1,0,0,3.1014,optionLeft,55,5940,3,21,0,21,0,1,,,,,,,,,,,,,,,,,,,,,,,,,,,,,,,,,,,,,,,
,,,,,,,,2023-08-16_08h41.29.541,HF_wild_card,2022.2.4,Win32,59.93048064,5f200a9ae4a314270ab24cff,64d2fd46c836a06233681665,64dc7d8c00e26c1ae086472b,,,,,,,decisionTrl,resources/DBN.BMP,resources/DR.BMP,Door1,-0.308333326,-0.033333355,1,0,0,4.8225,optionLeft,30,5970,3,22,0,22,0,1,,,,,,,,,,,,,,,,,,,,,,,,,,,,,,,,,,,,,,,
,,,,,,,,2023-08-16_08h41.29.541,HF_wild_card,2022.2.4,Win32,59.93048064,5f200a9ae4a314270ab24cff,64d2fd46c836a06233681665,64dc7d8c00e26c1ae086472b,,,,,,,decisionTrl,resources/DG.BMP,resources/DY.BMP,Door4,-0.393518519,0.002777771,1,0,0,5.1137,optionLeft,80,6050,3,23,0,23,0,1,,,,,,,,,,,,,,,,,,,,,,,,,,,,,,,,,,,,,,,
,,,,,,,,2023-08-16_08h41.29.541,HF_wild_card,2022.2.4,Win32,59.93048064,5f200a9ae4a314270ab24cff,64d2fd46c836a06233681665,64dc7d8c00e26c1ae086472b,,,,,,,sngl,resources/Empty.png,resources/DB.BMP,WildCard_NonEx,0.381481453,-0.034259266,1,0,0,1.2434,optionRight,55,6105,3,24,0,24,0,1,,,,,,,,,,,,,,,,,,,,,,,,,,,,,,,,,,,,,,,
,,,,,,,,2023-08-16_08h41.29.541,HF_wild_card,2022.2.4,Win32,59.93048064,5f200a9ae4a314270ab24cff,64d2fd46c836a06233681665,64dc7d8c00e26c1ae086472b,,,,,,,ctch,resources/DG.BMP,resources/DBN.BMP,Door4,-0.36296297,-0.020370377,1,0,0,1.5776,optionLeft,60,6165,3,25,0,25,0,1,,,,,,,,,,,,,,,,,,,,,,,,,,,,,,,,,,,,,,,
,,,,,,,,2023-08-16_08h41.29.541,HF_wild_card,2022.2.4,Win32,59.93048064,5f200a9ae4a314270ab24cff,64d2fd46c836a06233681665,64dc7d8c00e26c1ae086472b,,,,,,,ctch,resources/DR.BMP,resources/DY.BMP,Door3,0.32685188,-0.031481496,1,0,0,5.4593,optionRight,70,6235,3,26,0,26,0,1,,,,,,,,,,,,,,,,,,,,,,,,,,,,,,,,,,,,,,,
,,,,,,,,2023-08-16_08h41.29.541,HF_wild_card,2022.2.4,Win32,59.93048064,5f200a9ae4a314270ab24cff,64d2fd46c836a06233681665,64dc7d8c00e26c1ae086472b,,,,,,,sngl,resources/DB.BMP,resources/Empty.png,WildCard_NonEx,-0.312962956,0.01944443,1,0,0,1.2602,optionLeft,55,6290,3,27,0,27,0,1,,,,,,,,,,,,,,,,,,,,,,,,,,,,,,,,,,,,,,,
,,,,,,,,2023-08-16_08h41.29.541,HF_wild_card,2022.2.4,Win32,59.93048064,5f200a9ae4a314270ab24cff,64d2fd46c836a06233681665,64dc7d8c00e26c1ae086472b,,,,,,,sngl,resources/DR.BMP,resources/Empty.png,Door2,-0.362037023,0.032407407,1,0,0,1.2472,optionLeft,40,6330,3,28,0,28,0,1,,,,,,,,,,,,,,,,,,,,,,,,,,,,,,,,,,,,,,,
,,,,,,,,2023-08-16_08h41.29.541,HF_wild_card,2022.2.4,Win32,59.93048064,5f200a9ae4a314270ab24cff,64d2fd46c836a06233681665,64dc7d8c00e26c1ae086472b,,,,,,,sngl,resources/DY.BMP,resources/Empty.png,Door3,-0.328703704,0.023148148,1,0,0,1.097,optionLeft,70,6400,3,29,0,29,0,1,,,,,,,,,,,,,,,,,,,,,,,,,,,,,,,,,,,,,,,
,,,,,,,,2023-08-16_08h41.29.541,HF_wild_card,2022.2.4,Win32,59.93048064,5f200a9ae4a314270ab24cff,64d2fd46c836a06233681665,64dc7d8c00e26c1ae086472b,,,,,,,decisionTrl,resources/DB.BMP,resources/DBN.BMP,WildCard_NonEx,-0.325925933,0.027777778,1,0,0,1.8296,optionLeft,55,6455,3,30,0,30,0,1,,,,,,,,,,,,,,,,,,,,,,,,,,,,,,,,,,,,,,,
,,,,,,,,2023-08-16_08h41.29.541,HF_wild_card,2022.2.4,Win32,59.93048064,5f200a9ae4a314270ab24cff,64d2fd46c836a06233681665,64dc7d8c00e26c1ae086472b,,,,,,,decisionTrl,resources/DR.BMP,resources/DBN.BMP,Door2,-0.349999993,-0.002777771,1,0,0,1.4639,optionLeft,20,6475,3,31,0,31,0,1,,,,,,,,,,,,,,,,,,,,,,,,,,,,,,,,,,,,,,,
,,,,,,,,2023-08-16_08h41.29.541,HF_wild_card,2022.2.4,Win32,59.93048064,5f200a9ae4a314270ab24cff,64d2fd46c836a06233681665,64dc7d8c00e26c1ae086472b,,,,,,,sngl,resources/Empty.png,resources/DR.BMP,Door2,0.338888945,-0.054629644,1,0,0,1.3601,optionRight,20,6495,3,32,0,32,0,1,,,,,,,,,,,,,,,,,,,,,,,,,,,,,,,,,,,,,,,
,,,,,,,,2023-08-16_08h41.29.541,HF_wild_card,2022.2.4,Win32,59.93048064,5f200a9ae4a314270ab24cff,64d2fd46c836a06233681665,64dc7d8c00e26c1ae086472b,,,,,,,decisionTrl,resources/DB.BMP,resources/DG.BMP,WildCard_NonEx,-0.364814794,0.0074074,1,0,0,1.9643,optionLeft,45,6540,3,33,0,33,0,1,,,,,,,,,,,,,,,,,,,,,,,,,,,,,,,,,,,,,,,
,,,,,,,,2023-08-16_08h41.29.541,HF_wild_card,2022.2.4,Win32,59.93048064,5f200a9ae4a314270ab24cff,64d2fd46c836a06233681665,64dc7d8c00e26c1ae086472b,,,,,,,decisionTrl,resources/DY.BMP,resources/DG.BMP,Door3,-0.328703704,0.047222208,1,0,0,4.4268,optionLeft,70,6610,3,34,0,34,0,1,,,,,,,,,,,,,,,,,,,,,,,,,,,,,,,,,,,,,,,
,,,,,,,,2023-08-16_08h41.29.541,HF_wild_card,2022.2.4,Win32,59.93048064,5f200a9ae4a314270ab24cff,64d2fd46c836a06233681665,64dc7d8c00e26c1ae086472b,,,,,,,ctch,resources/DG.BMP,resources/DBN.BMP,Door4,-0.294444402,0.01944443,1,0,0,1.351,optionLeft,60,6670,3,35,0,35,0,1,,,,,,,,,,,,,,,,,,,,,,,,,,,,,,,,,,,,,,,
,,,,,,,,2023-08-16_08h41.29.541,HF_wild_card,2022.2.4,Win32,59.93048064,5f200a9ae4a314270ab24cff,64d2fd46c836a06233681665,64dc7d8c00e26c1ae086472b,,,,,,,decisionTrl,resources/DBN.BMP,resources/DR.BMP,Door2,0.323148233,-0.032407407,1,0,0,1.5135,optionRight,40,6710,3,36,0,36,0,1,,,,,,,,,,,,,,,,,,,,,,,,,,,,,,,,,,,,,,,
,,,,,,,,2023-08-16_08h41.29.541,HF_wild_card,2022.2.4,Win32,59.93048064,5f200a9ae4a314270ab24cff,64d2fd46c836a06233681665,64dc7d8c00e26c1ae086472b,,,,,,,decisionTrl,resources/DR.BMP,resources/DBN.BMP,Door2,-0.412962949,0.014814801,1,0,0,1.4667,optionLeft,40,6750,3,37,0,37,0,1,,,,,,,,,,,,,,,,,,,,,,,,,,,,,,,,,,,,,,,
,,,,,,,,2023-08-16_08h41.29.541,HF_wild_card,2022.2.4,Win32,59.93048064,5f200a9ae4a314270ab24cff,64d2fd46c836a06233681665,64dc7d8c00e26c1ae086472b,,,,,,,decisionTrl,resources/DR.BMP,resources/DBN.BMP,Door2,-0.368518511,-0.020370377,1,0,0,1.3137,optionLeft,40,6790,3,38,0,38,0,1,,,,,,,,,,,,,,,,,,,,,,,,,,,,,,,,,,,,,,,
,,,,,,,,2023-08-16_08h41.29.541,HF_wild_card,2022.2.4,Win32,59.93048064,5f200a9ae4a314270ab24cff,64d2fd46c836a06233681665,64dc7d8c00e26c1ae086472b,,,,,,,ctch,resources/DR.BMP,resources/DY.BMP,Door3,0.366666723,-0.031481496,1,0,0,1.7307,optionRight,70,6860,3,39,0,39,0,1,,,,,,,,,,,,,,,,,,,,,,,,,,,,,,,,,,,,,,,
,,,,,,,,2023-08-16_08h41.29.541,HF_wild_card,2022.2.4,Win32,59.93048064,5f200a9ae4a314270ab24cff,64d2fd46c836a06233681665,64dc7d8c00e26c1ae086472b,,,,,,,sngl,resources/Empty.png,resources/DB.BMP,WildCard_NonEx,0.301851908,-0.036111125,1,0,0,1.5605,optionRight,45,6905,3,40,0,40,0,1,,,,,,,,,,,,,,,,,,,,,,,,,,,,,,,,,,,,,,,
,,,,,,,,2023-08-16_08h41.29.541,HF_wild_card,2022.2.4,Win32,59.93048064,5f200a9ae4a314270ab24cff,64d2fd46c836a06233681665,64dc7d8c00e26c1ae086472b,,,,,,,sngl,resources/Empty.png,resources/DY.BMP,Door3,0.334259316,-0.059259273,1,0,0,1.4624,optionRight,70,6975,3,41,0,41,0,1,,,,,,,,,,,,,,,,,,,,,,,,,,,,,,,,,,,,,,,
,,,,,,,,2023-08-16_08h41.29.541,HF_wild_card,2022.2.4,Win32,59.93048064,5f200a9ae4a314270ab24cff,64d2fd46c836a06233681665,64dc7d8c00e26c1ae086472b,,,,,,,sngl,resources/DB.BMP,resources/Empty.png,WildCard_NonEx,-0.337037016,0.017592571,1,0,0,1.2126,optionLeft,45,7020,3,42,0,42,0,1,,,,,,,,,,,,,,,,,,,,,,,,,,,,,,,,,,,,,,,
,,,,,,,,2023-08-16_08h41.29.541,HF_wild_card,2022.2.4,Win32,59.93048064,5f200a9ae4a314270ab24cff,64d2fd46c836a06233681665,64dc7d8c00e26c1ae086472b,,,,,,,sngl,resources/DBN.BMP,resources/Empty.png,Door1,-0.307407414,0.056481467,1,0,0,1.4336,optionLeft,30,7050,3,43,0,43,0,1,,,,,,,,,,,,,,,,,,,,,,,,,,,,,,,,,,,,,,,
,,,,,,,,2023-08-16_08h41.29.541,HF_wild_card,2022.2.4,Win32,59.93048064,5f200a9ae4a314270ab24cff,64d2fd46c836a06233681665,64dc7d8c00e26c1ae086472b,,,,,,,,,,,,,,,,,,,,,,,,,,2,0,2,0,1,,,,,,,,,,,,,,,,,,,,,,,,,,,,,,,,,,
,,,,,,,,2023-08-16_08h41.29.541,HF_wild_card,2022.2.4,Win32,59.93048064,5f200a9ae4a314270ab24cff,64d2fd46c836a06233681665,64dc7d8c00e26c1ae086472b,,,,,,,decisionTrl,resources/DR.BMP,resources/DBN.BMP,Door2,-0.389814801,-0.137037065,1,0,0,1.8842,optionLeft,40,7090,4,0,0,0,0,1,,,,,,,,,,,,,,,,,,,,,,,,,,,,,,,,,,,,,,,
,,,,,,,,2023-08-16_08h41.29.541,HF_wild_card,2022.2.4,Win32,59.93048064,5f200a9ae4a314270ab24cff,64d2fd46c836a06233681665,64dc7d8c00e26c1ae086472b,,,,,,,sngl,resources/Empty.png,resources/DP.BMP,WildCard_Ex,0.388888889,-0.039814808,1,0,0,2.6036,optionRight,45,7135,4,1,0,1,0,1,,,,,,,,,,,,,,,,,,,,,,,,,,,,,,,,,,,,,,,
,,,,,,,,2023-08-16_08h41.29.541,HF_wild_card,2022.2.4,Win32,59.93048064,5f200a9ae4a314270ab24cff,64d2fd46c836a06233681665,64dc7d8c00e26c1ae086472b,,,,,,,ctch,resources/DBN.BMP,resources/DG.BMP,Door4,0.353703675,-0.006481489,1,0,0,2.7773,optionRight,60,7195,4,2,0,2,0,1,,,,,,,,,,,,,,,,,,,,,,,,,,,,,,,,,,,,,,,
,,,,,,,,2023-08-16_08h41.29.541,HF_wild_card,2022.2.4,Win32,59.93048064,5f200a9ae4a314270ab24cff,64d2fd46c836a06233681665,64dc7d8c00e26c1ae086472b,,,,,,,decisionTrl,resources/DG.BMP,resources/DY.BMP,Door4,-0.282407407,0.051851838,1,0,0,4.0965,optionLeft,60,7255,4,3,0,3,0,1,,,,,,,,,,,,,,,,,,,,,,,,,,,,,,,,,,,,,,,
,,,,,,,,2023-08-16_08h41.29.541,HF_wild_card,2022.2.4,Win32,59.93048064,5f200a9ae4a314270ab24cff,64d2fd46c836a06233681665,64dc7d8c00e26c1ae086472b,,,,,,,decisionTrl,resources/DR.BMP,resources/DBN.BMP,Door2,-0.322222215,0.023148148,1,0,0,2.1639,optionLeft,40,7295,4,4,0,4,0,1,,,,,,,,,,,,,,,,,,,,,,,,,,,,,,,,,,,,,,,
,,,,,,,,2023-08-16_08h41.29.541,HF_wild_card,2022.2.4,Win32,59.93048064,5f200a9ae4a314270ab24cff,64d2fd46c836a06233681665,64dc7d8c00e26c1ae086472b,,,,,,,decisionTrl,resources/DY.BMP,resources/DG.BMP,Door3,-0.305555556,0.032407407,1,0,0,2.3259,optionLeft,70,7365,4,5,0,5,0,1,,,,,,,,,,,,,,,,,,,,,,,,,,,,,,,,,,,,,,,
,,,,,,,,2023-08-16_08h41.29.541,HF_wild_card,2022.2.4,Win32,59.93048064,5f200a9ae4a314270ab24cff,64d2fd46c836a06233681665,64dc7d8c00e26c1ae086472b,,,,,,,decisionTrl,resources/DG.BMP,resources/DY.BMP,Door3,0.409259231,0.025000007,1,0,0,3.5624,optionRight,70,7435,4,6,0,6,0,1,,,,,,,,,,,,,,,,,,,,,,,,,,,,,,,,,,,,,,,
,,,,,,,,2023-08-16_08h41.29.541,HF_wild_card,2022.2.4,Win32,59.93048064,5f200a9ae4a314270ab24cff,64d2fd46c836a06233681665,64dc7d8c00e26c1ae086472b,,,,,,,decisionTrl,resources/DR.BMP,resources/DBN.BMP,Door2,-0.342592593,0.014814801,1,0,0,1.4633,optionLeft,20,7455,4,7,0,7,0,1,,,,,,,,,,,,,,,,,,,,,,,,,,,,,,,,,,,,,,,
,,,,,,,,2023-08-16_08h41.29.541,HF_wild_card,2022.2.4,Win32,59.93048064,5f200a9ae4a314270ab24cff,64d2fd46c836a06233681665,64dc7d8c00e26c1ae086472b,,,,,,,sngl,resources/DP.BMP,resources/Empty.png,WildCard_Ex,-0.310185185,0.01203703,1,0,0,1.5271,optionLeft,45,7500,4,8,0,8,0,1,,,,,,,,,,,,,,,,,,,,,,,,,,,,,,,,,,,,,,,
,,,,,,,,2023-08-16_08h41.29.541,HF_wild_card,2022.2.4,Win32,59.93048064,5f200a9ae4a314270ab24cff,64d2fd46c836a06233681665,64dc7d8c00e26c1ae086472b,,,,,,,decisionTrl,resources/DBN.BMP,resources/DR.BMP,Door2,0.282407407,0,1,0,0,1.477,optionRight,20,7520,4,9,0,9,0,1,,,,,,,,,,,,,,,,,,,,,,,,,,,,,,,,,,,,,,,
,,,,,,,,2023-08-16_08h41.29.541,HF_wild_card,2022.2.4,Win32,59.93048064,5f200a9ae4a314270ab24cff,64d2fd46c836a06233681665,64dc7d8c00e26c1ae086472b,,,,,,,sngl,resources/Empty.png,resources/DP.BMP,WildCard_Ex,0.314814815,-0.027777778,1,0,0,1.527,optionRight,55,7575,4,10,0,10,0,1,,,,,,,,,,,,,,,,,,,,,,,,,,,,,,,,,,,,,,,
,,,,,,,,2023-08-16_08h41.29.541,HF_wild_card,2022.2.4,Win32,59.93048064,5f200a9ae4a314270ab24cff,64d2fd46c836a06233681665,64dc7d8c00e26c1ae086472b,,,,,,,decisionTrl,resources/DY.BMP,resources/DP.BMP,Door3,-0.291666667,-0.01203703,1,0,0,1.7465,optionLeft,70,7645,4,11,0,11,0,1,,,,,,,,,,,,,,,,,,,,,,,,,,,,,,,,,,,,,,,
,,,,,,,,2023-08-16_08h41.29.541,HF_wild_card,2022.2.4,Win32,59.93048064,5f200a9ae4a314270ab24cff,64d2fd46c836a06233681665,64dc7d8c00e26c1ae086472b,,,,,,,decisionTrl,resources/DG.BMP,resources/DY.BMP,Door3,0.3648149,-0.011111118,1,0,0,2.263,optionRight,70,7715,4,12,0,12,0,1,,,,,,,,,,,,,,,,,,,,,,,,,,,,,,,,,,,,,,,
,,,,,,,,2023-08-16_08h41.29.541,HF_wild_card,2022.2.4,Win32,59.93048064,5f200a9ae4a314270ab24cff,64d2fd46c836a06233681665,64dc7d8c00e26c1ae086472b,,,,,,,decisionTrl,resources/DR.BMP,resources/DBN.BMP,Door2,-0.330555563,0.043518526,1,0,0,2.7842,optionLeft,20,7735,4,13,0,13,0,1,,,,,,,,,,,,,,,,,,,,,,,,,,,,,,,,,,,,,,,
,,,,,,,,2023-08-16_08h41.29.541,HF_wild_card,2022.2.4,Win32,59.93048064,5f200a9ae4a314270ab24cff,64d2fd46c836a06233681665,64dc7d8c00e26c1ae086472b,,,,,,,ctch,resources/DG.BMP,resources/DBN.BMP,Door4,-0.375925912,-0.005555577,1,0,0,1.3779,optionLeft,60,7795,4,14,0,14,0,1,,,,,,,,,,,,,,,,,,,,,,,,,,,,,,,,,,,,,,,
,,,,,,,,2023-08-16_08h41.29.541,HF_wild_card,2022.2.4,Win32,59.93048064,5f200a9ae4a314270ab24cff,64d2fd46c836a06233681665,64dc7d8c00e26c1ae086472b,,,,,,,ctch,resources/DBN.BMP,resources/DG.BMP,Door4,0.380555612,0.003703683,1,0,0,1.3105,optionRight,60,7855,4,15,0,15,0,1,,,,,,,,,,,,,,,,,,,,,,,,,,,,,,,,,,,,,,,
,,,,,,,,2023-08-16_08h41.29.541,HF_wild_card,2022.2.4,Win32,59.93048064,5f200a9ae4a314270ab24cff,64d2fd46c836a06233681665,64dc7d8c00e26c1ae086472b,,,,,,,decisionTrl,resources/DP.BMP,resources/DR.BMP,WildCard_Ex,-0.398148148,-0.052777785,1,0,0,3.8096,optionLeft,45,7900,4,16,0,16,0,1,,,,,,,,,,,,,,,,,,,,,,,,,,,,,,,,,,,,,,,
,,,,,,,,2023-08-16_08h41.29.541,HF_wild_card,2022.2.4,Win32,59.93048064,5f200a9ae4a314270ab24cff,64d2fd46c836a06233681665,64dc7d8c00e26c1ae086472b,,,,,,,sngl,resources/Empty.png,resources/DG.BMP,Door4,0.316666638,-0.005555577,1,0,0,1.2436,optionRight,80,7980,4,17,0,17,0,1,,,,,,,,,,,,,,,,,,,,,,,,,,,,,,,,,,,,,,,
,,,,,,,,2023-08-16_08h41.29.541,HF_wild_card,2022.2.4,Win32,59.93048064,5f200a9ae4a314270ab24cff,64d2fd46c836a06233681665,64dc7d8c00e26c1ae086472b,,,,,,,sngl,resources/DY.BMP,resources/Empty.png,Door3,-0.340740734,0.067592586,1,0,0,1.1454,optionLeft,70,8050,4,18,0,18,0,1,,,,,,,,,,,,,,,,,,,,,,,,,,,,,,,,,,,,,,,
,,,,,,,,2023-08-16_08h41.29.541,HF_wild_card,2022.2.4,Win32,59.93048064,5f200a9ae4a314270ab24cff,64d2fd46c836a06233681665,64dc7d8c00e26c1ae086472b,,,,,,,decisionTrl,resources/DY.BMP,resources/DG.BMP,Door3,-0.292592578,0.025000007,1,0,0,1.8142,optionLeft,70,8120,4,19,0,19,0,1,,,,,,,,,,,,,,,,,,,,,,,,,,,,,,,,,,,,,,,
,,,,,,,,2023-08-16_08h41.29.541,HF_wild_card,2022.2.4,Win32,59.93048064,5f200a9ae4a314270ab24cff,64d2fd46c836a06233681665,64dc7d8c00e26c1ae086472b,,,,,,,sngl,resources/DBN.BMP,resources/Empty.png,Door1,-0.312962956,0.083333333,1,0,0,1.6475,optionLeft,30,8150,4,20,0,20,0,1,,,,,,,,,,,,,,,,,,,,,,,,,,,,,,,,,,,,,,,
,,,,,,,,2023-08-16_08h41.29.541,HF_wild_card,2022.2.4,Win32,59.93048064,5f200a9ae4a314270ab24cff,64d2fd46c836a06233681665,64dc7d8c00e26c1ae086472b,,,,,,,decisionTrl,resources/DP.BMP,resources/DBN.BMP,WildCard_Ex,-0.327777757,0.025925919,1,0,0,1.7305,optionLeft,45,8195,4,21,0,21,0,1,,,,,,,,,,,,,,,,,,,,,,,,,,,,,,,,,,,,,,,
,,,,,,,,2023-08-16_08h41.29.541,HF_wild_card,2022.2.4,Win32,59.93048064,5f200a9ae4a314270ab24cff,64d2fd46c836a06233681665,64dc7d8c00e26c1ae086472b,,,,,,,ctch,resources/DY.BMP,resources/DR.BMP,Door3,-0.334259245,0.014814801,1,0,0,2.0166,optionLeft,70,8265,4,22,0,22,0,1,,,,,,,,,,,,,,,,,,,,,,,,,,,,,,,,,,,,,,,
,,,,,,,,2023-08-16_08h41.29.541,HF_wild_card,2022.2.4,Win32,59.93048064,5f200a9ae4a314270ab24cff,64d2fd46c836a06233681665,64dc7d8c00e26c1ae086472b,,,,,,,decisionTrl,resources/DG.BMP,resources/DP.BMP,WildCard_Ex,0.313888974,-0.050925926,1,0,0,3.1772,optionRight,55,8320,4,23,0,23,0,1,,,,,,,,,,,,,,,,,,,,,,,,,,,,,,,,,,,,,,,
,,,,,,,,2023-08-16_08h41.29.541,HF_wild_card,2022.2.4,Win32,59.93048064,5f200a9ae4a314270ab24cff,64d2fd46c836a06233681665,64dc7d8c00e26c1ae086472b,,,,,,,decisionTrl,resources/DBN.BMP,resources/DR.BMP,Door2,0.332407492,0.001851859,1,0,0,1.6837,optionRight,40,8360,4,24,0,24,0,1,,,,,,,,,,,,,,,,,,,,,,,,,,,,,,,,,,,,,,,
,,,,,,,,2023-08-16_08h41.29.541,HF_wild_card,2022.2.4,Win32,59.93048064,5f200a9ae4a314270ab24cff,64d2fd46c836a06233681665,64dc7d8c00e26c1ae086472b,,,,,,,sngl,resources/Empty.png,resources/DY.BMP,Door3,0.308333362,-0.046296296,1,0,0,1.3296,optionRight,70,8430,4,25,0,25,0,1,,,,,,,,,,,,,,,,,,,,,,,,,,,,,,,,,,,,,,,
,,,,,,,,2023-08-16_08h41.29.541,HF_wild_card,2022.2.4,Win32,59.93048064,5f200a9ae4a314270ab24cff,64d2fd46c836a06233681665,64dc7d8c00e26c1ae086472b,,,,,,,decisionTrl,resources/DY.BMP,resources/DG.BMP,Door3,-0.294444402,-0.012962977,1,0,0,3.4684,optionLeft,70,8500,4,26,0,26,0,1,,,,,,,,,,,,,,,,,,,,,,,,,,,,,,,,,,,,,,,
,,,,,,,,2023-08-16_08h41.29.541,HF_wild_card,2022.2.4,Win32,59.93048064,5f200a9ae4a314270ab24cff,64d2fd46c836a06233681665,64dc7d8c00e26c1ae086472b,,,,,,,sngl,resources/Empty.png,resources/DBN.BMP,Door1,0.386111083,0.020370377,1,0,0,1.2969,optionRight,30,8530,4,27,0,27,0,1,,,,,,,,,,,,,,,,,,,,,,,,,,,,,,,,,,,,,,,
,,,,,,,,2023-08-16_08h41.29.541,HF_wild_card,2022.2.4,Win32,59.93048064,5f200a9ae4a314270ab24cff,64d2fd46c836a06233681665,64dc7d8c00e26c1ae086472b,,,,,,,decisionTrl,resources/DBN.BMP,resources/DP.BMP,WildCard_Ex,0.374074159,-0.045370384,1,0,0,1.5836,optionRight,45,8575,4,28,0,28,0,1,,,,,,,,,,,,,,,,,,,,,,,,,,,,,,,,,,,,,,,
,,,,,,,,2023-08-16_08h41.29.541,HF_wild_card,2022.2.4,Win32,59.93048064,5f200a9ae4a314270ab24cff,64d2fd46c836a06233681665,64dc7d8c00e26c1ae086472b,,,,,,,decisionTrl,resources/DP.BMP,resources/DY.BMP,Door3,0.285185213,0.01666666,1,0,0,4.313,optionRight,70,8645,4,29,0,29,0,1,,,,,,,,,,,,,,,,,,,,,,,,,,,,,,,,,,,,,,,
,,,,,,,,2023-08-16_08h41.29.541,HF_wild_card,2022.2.4,Win32,59.93048064,5f200a9ae4a314270ab24cff,64d2fd46c836a06233681665,64dc7d8c00e26c1ae086472b,,,,,,,ctch,resources/DR.BMP,resources/DY.BMP,Door3,0.377777806,-0.015740748,1,0,0,1.8925,optionRight,70,8715,4,30,0,30,0,1,,,,,,,,,,,,,,,,,,,,,,,,,,,,,,,,,,,,,,,
,,,,,,,,2023-08-16_08h41.29.541,HF_wild_card,2022.2.4,Win32,59.93048064,5f200a9ae4a314270ab24cff,64d2fd46c836a06233681665,64dc7d8c00e26c1ae086472b,,,,,,,sngl,resources/DG.BMP,resources/Empty.png,Door4,-0.314814815,0.042592578,1,0,0,1.177,optionLeft,60,8775,4,31,0,31,0,1,,,,,,,,,,,,,,,,,,,,,,,,,,,,,,,,,,,,,,,
,,,,,,,,2023-08-16_08h41.29.541,HF_wild_card,2022.2.4,Win32,59.93048064,5f200a9ae4a314270ab24cff,64d2fd46c836a06233681665,64dc7d8c00e26c1ae086472b,,,,,,,ctch,resources/DR.BMP,resources/DY.BMP,Door3,0.35555564,-0.033333355,1,0,0,1.527,optionRight,70,8845,4,32,0,32,0,1,,,,,,,,,,,,,,,,,,,,,,,,,,,,,,,,,,,,,,,
,,,,,,,,2023-08-16_08h41.29.541,HF_wild_card,2022.2.4,Win32,59.93048064,5f200a9ae4a314270ab24cff,64d2fd46c836a06233681665,64dc7d8c00e26c1ae086472b,,,,,,,ctch,resources/DY.BMP,resources/DR.BMP,Door3,-0.39166666,0.085185192,1,0,0,1.7304,optionLeft,70,8915,4,33,0,33,0,1,,,,,,,,,,,,,,,,,,,,,,,,,,,,,,,,,,,,,,,
,,,,,,,,2023-08-16_08h41.29.541,HF_wild_card,2022.2.4,Win32,59.93048064,5f200a9ae4a314270ab24cff,64d2fd46c836a06233681665,64dc7d8c00e26c1ae086472b,,,,,,,decisionTrl,resources/DR.BMP,resources/DP.BMP,WildCard_Ex,0.383333418,-0.017592607,1,0,0,4.2609,optionRight,45,8960,4,34,0,34,0,1,,,,,,,,,,,,,,,,,,,,,,,,,,,,,,,,,,,,,,,
,,,,,,,,2023-08-16_08h41.29.541,HF_wild_card,2022.2.4,Win32,59.93048064,5f200a9ae4a314270ab24cff,64d2fd46c836a06233681665,64dc7d8c00e26c1ae086472b,,,,,,,decisionTrl,resources/DG.BMP,resources/DY.BMP,Door3,0.310185185,0.01203703,1,0,0,3.9759,optionRight,70,9030,4,35,0,35,0,1,,,,,,,,,,,,,,,,,,,,,,,,,,,,,,,,,,,,,,,
,,,,,,,,2023-08-16_08h41.29.541,HF_wild_card,2022.2.4,Win32,59.93048064,5f200a9ae4a314270ab24cff,64d2fd46c836a06233681665,64dc7d8c00e26c1ae086472b,,,,,,,decisionTrl,resources/DBN.BMP,resources/DR.BMP,Door2,0.275000042,0.000925912,1,0,0,1.3803,optionRight,40,9070,4,36,0,36,0,1,,,,,,,,,,,,,,,,,,,,,,,,,,,,,,,,,,,,,,,
,,,,,,,,2023-08-16_08h41.29.541,HF_wild_card,2022.2.4,Win32,59.93048064,5f200a9ae4a314270ab24cff,64d2fd46c836a06233681665,64dc7d8c00e26c1ae086472b,,,,,,,sngl,resources/Empty.png,resources/DR.BMP,Door2,0.297222279,-0.047222243,1,0,0,1.2135,optionRight,40,9110,4,37,0,37,0,1,,,,,,,,,,,,,,,,,,,,,,,,,,,,,,,,,,,,,,,
,,,,,,,,2023-08-16_08h41.29.541,HF_wild_card,2022.2.4,Win32,59.93048064,5f200a9ae4a314270ab24cff,64d2fd46c836a06233681665,64dc7d8c00e26c1ae086472b,,,,,,,sngl,resources/DP.BMP,resources/Empty.png,WildCard_Ex,-0.325925933,0.063888868,1,0,0,1.2307,optionLeft,55,9165,4,38,0,38,0,1,,,,,,,,,,,,,,,,,,,,,,,,,,,,,,,,,,,,,,,
,,,,,,,,2023-08-16_08h41.29.541,HF_wild_card,2022.2.4,Win32,59.93048064,5f200a9ae4a314270ab24cff,64d2fd46c836a06233681665,64dc7d8c00e26c1ae086472b,,,,,,,ctch,resources/DG.BMP,resources/DBN.BMP,Door4,-0.311111097,0.049074067,1,0,0,2.6503,optionLeft,80,9245,4,39,0,39,0,1,,,,,,,,,,,,,,,,,,,,,,,,,,,,,,,,,,,,,,,
,,,,,,,,2023-08-16_08h41.29.541,HF_wild_card,2022.2.4,Win32,59.93048064,5f200a9ae4a314270ab24cff,64d2fd46c836a06233681665,64dc7d8c00e26c1ae086472b,,,,,,,decisionTrl,resources/DY.BMP,resources/DG.BMP,Door4,0.380555612,0.001851859,1,0,0,2.1433,optionRight,80,9325,4,40,0,40,0,1,,,,,,,,,,,,,,,,,,,,,,,,,,,,,,,,,,,,,,,
,,,,,,,,2023-08-16_08h41.29.541,HF_wild_card,2022.2.4,Win32,59.93048064,5f200a9ae4a314270ab24cff,64d2fd46c836a06233681665,64dc7d8c00e26c1ae086472b,,,,,,,sngl,resources/DR.BMP,resources/Empty.png,Door2,-0.332407386,0.037962949,1,0,0,1.4007,optionLeft,20,9345,4,41,0,41,0,1,,,,,,,,,,,,,,,,,,,,,,,,,,,,,,,,,,,,,,,
,,,,,,,,2023-08-16_08h41.29.541,HF_wild_card,2022.2.4,Win32,59.93048064,5f200a9ae4a314270ab24cff,64d2fd46c836a06233681665,64dc7d8c00e26c1ae086472b,,,,,,,decisionTrl,resources/DP.BMP,resources/DG.BMP,Door4,0.333333333,-0.055555556,1,0,0,1.5102,optionRight,60,9405,4,42,0,42,0,1,,,,,,,,,,,,,,,,,,,,,,,,,,,,,,,,,,,,,,,
,,,,,,,,2023-08-16_08h41.29.541,HF_wild_card,2022.2.4,Win32,59.93048064,5f200a9ae4a314270ab24cff,64d2fd46c836a06233681665,64dc7d8c00e26c1ae086472b,,,,,,,decisionTrl,resources/DBN.BMP,resources/DR.BMP,Door2,0.340740769,-0.00462963,1,0,0,1.5756,optionRight,40,9445,4,43,0,43,0,1,,,,,,,,,,,,,,,,,,,,,,,,,,,,,,,,,,,,,,,
,,,,,,,,2023-08-16_08h41.29.541,HF_wild_card,2022.2.4,Win32,59.93048064,5f200a9ae4a314270ab24cff,64d2fd46c836a06233681665,64dc7d8c00e26c1ae086472b,,,,,,,,,,,,,,,,,,,,,,,,,,3,0,3,0,1,,,,,,,,,,,,,,,,,,,,,,,,,,,,,,,,,,
,,,,,,,,2023-08-16_08h41.29.541,HF_wild_card,2022.2.4,Win32,59.93048064,5f200a9ae4a314270ab24cff,64d2fd46c836a06233681665,64dc7d8c00e26c1ae086472b,,,,,,,sngl,resources/DG.BMP,resources/Empty.png,Door4,-0.375,-0.041666667,1,0,0,1.5063,optionLeft,80,9525,5,0,0,0,0,1,,,,,,,,,,,,,,,,,,,,,,,,,,,,,,,,,,,,,,,
,,,,,,,,2023-08-16_08h41.29.541,HF_wild_card,2022.2.4,Win32,59.93048064,5f200a9ae4a314270ab24cff,64d2fd46c836a06233681665,64dc7d8c00e26c1ae086472b,,,,,,,decisionTrl,resources/DR.BMP,resources/DBN.BMP,Door2,-0.509259259,-0.01666666,1,0,0,2.9228,optionLeft,20,9545,5,1,0,1,0,1,,,,,,,,,,,,,,,,,,,,,,,,,,,,,,,,,,,,,,,
,,,,,,,,2023-08-16_08h41.29.541,HF_wild_card,2022.2.4,Win32,59.93048064,5f200a9ae4a314270ab24cff,64d2fd46c836a06233681665,64dc7d8c00e26c1ae086472b,,,,,,,ctch,resources/DBN.BMP,resources/DG.BMP,Door4,0.398148148,-0.057407414,1,0,0,1.8543,optionRight,60,9605,5,2,0,2,0,1,,,,,,,,,,,,,,,,,,,,,,,,,,,,,,,,,,,,,,,
,,,,,,,,2023-08-16_08h41.29.541,HF_wild_card,2022.2.4,Win32,59.93048064,5f200a9ae4a314270ab24cff,64d2fd46c836a06233681665,64dc7d8c00e26c1ae086472b,,,,,,,ctch,resources/DR.BMP,resources/DY.BMP,Door3,0.377777806,-0.046296296,1,0,0,3.5272,optionRight,70,9675,5,3,0,3,0,1,,,,,,,,,,,,,,,,,,,,,,,,,,,,,,,,,,,,,,,
,,,,,,,,2023-08-16_08h41.29.541,HF_wild_card,2022.2.4,Win32,59.93048064,5f200a9ae4a314270ab24cff,64d2fd46c836a06233681665,64dc7d8c00e26c1ae086472b,,,,,,,sngl,resources/Empty.png,resources/DP.BMP,WildCard_Ex,0.316666638,-0.009259259,1,0,0,1.2832,optionRight,55,9730,5,4,0,4,0,1,,,,,,,,,,,,,,,,,,,,,,,,,,,,,,,,,,,,,,,
,,,,,,,,2023-08-16_08h41.29.541,HF_wild_card,2022.2.4,Win32,59.93048064,5f200a9ae4a314270ab24cff,64d2fd46c836a06233681665,64dc7d8c00e26c1ae086472b,,,,,,,decisionTrl,resources/DG.BMP,resources/DY.BMP,Door4,-0.332407386,0.062962956,1,0,0,3.5886,optionLeft,60,9790,5,5,0,5,0,1,,,,,,,,,,,,,,,,,,,,,,,,,,,,,,,,,,,,,,,
,,,,,,,,2023-08-16_08h41.29.541,HF_wild_card,2022.2.4,Win32,59.93048064,5f200a9ae4a314270ab24cff,64d2fd46c836a06233681665,64dc7d8c00e26c1ae086472b,,,,,,,decisionTrl,resources/DBN.BMP,resources/DR.BMP,Door2,0.332407492,-0.014814836,1,0,0,1.2637,optionRight,40,9830,5,6,0,6,0,1,,,,,,,,,,,,,,,,,,,,,,,,,,,,,,,,,,,,,,,
,,,,,,,,2023-08-16_08h41.29.541,HF_wild_card,2022.2.4,Win32,59.93048064,5f200a9ae4a314270ab24cff,64d2fd46c836a06233681665,64dc7d8c00e26c1ae086472b,,,,,,,ctch,resources/DR.BMP,resources/DY.BMP,Door2,-0.308333326,-0.019444466,1,0,0,4.093,optionLeft,40,9870,5,7,0,7,0,1,,,,,,,,,,,,,,,,,,,,,,,,,,,,,,,,,,,,,,,
,,,,,,,,2023-08-16_08h41.29.541,HF_wild_card,2022.2.4,Win32,59.93048064,5f200a9ae4a314270ab24cff,64d2fd46c836a06233681665,64dc7d8c00e26c1ae086472b,,,,,,,ctch,resources/DBN.BMP,resources/DG.BMP,Door4,0.344444416,-0.075925933,1,0,0,1.4438,optionRight,60,9930,5,8,0,8,0,1,,,,,,,,,,,,,,,,,,,,,,,,,,,,,,,,,,,,,,,
,,,,,,,,2023-08-16_08h41.29.541,HF_wild_card,2022.2.4,Win32,59.93048064,5f200a9ae4a314270ab24cff,64d2fd46c836a06233681665,64dc7d8c00e26c1ae086472b,,,,,,,sngl,resources/Empty.png,resources/DR.BMP,Door2,0.328703704,0.003703683,1,0,0,1.1796,optionRight,20,9950,5,9,0,9,0,1,,,,,,,,,,,,,,,,,,,,,,,,,,,,,,,,,,,,,,,
,,,,,,,,2023-08-16_08h41.29.541,HF_wild_card,2022.2.4,Win32,59.93048064,5f200a9ae4a314270ab24cff,64d2fd46c836a06233681665,64dc7d8c00e26c1ae086472b,,,,,,,sngl,resources/DBN.BMP,resources/Empty.png,Door1,-0.271296254,0.006481489,1,0,0,1.5132,optionLeft,30,9980,5,10,0,10,0,1,,,,,,,,,,,,,,,,,,,,,,,,,,,,,,,,,,,,,,,
,,,,,,,,2023-08-16_08h41.29.541,HF_wild_card,2022.2.4,Win32,59.93048064,5f200a9ae4a314270ab24cff,64d2fd46c836a06233681665,64dc7d8c00e26c1ae086472b,,,,,,,ctch,resources/DG.BMP,resources/DBN.BMP,Door4,-0.376851859,0.027777778,1,0,0,1.3315,optionLeft,60,10040,5,11,0,11,0,1,,,,,,,,,,,,,,,,,,,,,,,,,,,,,,,,,,,,,,,
,,,,,,,,2023-08-16_08h41.29.541,HF_wild_card,2022.2.4,Win32,59.93048064,5f200a9ae4a314270ab24cff,64d2fd46c836a06233681665,64dc7d8c00e26c1ae086472b,,,,,,,decisionTrl,resources/DG.BMP,resources/DY.BMP,Door4,-0.287962949,0.038888896,1,0,0,2.6967,optionLeft,80,10120,5,12,0,12,0,1,,,,,,,,,,,,,,,,,,,,,,,,,,,,,,,,,,,,,,,
,,,,,,,,2023-08-16_08h41.29.541,HF_wild_card,2022.2.4,Win32,59.93048064,5f200a9ae4a314270ab24cff,64d2fd46c836a06233681665,64dc7d8c00e26c1ae086472b,,,,,,,decisionTrl,resources/DR.BMP,resources/DBN.BMP,Door2,-0.337037016,0.035185178,1,0,0,1.4423,optionLeft,20,10140,5,13,0,13,0,1,,,,,,,,,,,,,,,,,,,,,,,,,,,,,,,,,,,,,,,
,,,,,,,,2023-08-16_08h41.29.541,HF_wild_card,2022.2.4,Win32,59.93048064,5f200a9ae4a314270ab24cff,64d2fd46c836a06233681665,64dc7d8c00e26c1ae086472b,,,,,,,decisionTrl,resources/DG.BMP,resources/DP.BMP,WildCard_Ex,0.340740769,-0.025925919,1,0,0,2.18,optionRight,45,10185,5,14,0,14,0,1,,,,,,,,,,,,,,,,,,,,,,,,,,,,,,,,,,,,,,,
,,,,,,,,2023-08-16_08h41.29.541,HF_wild_card,2022.2.4,Win32,59.93048064,5f200a9ae4a314270ab24cff,64d2fd46c836a06233681665,64dc7d8c00e26c1ae086472b,,,,,,,decisionTrl,resources/DR.BMP,resources/DBN.BMP,Door2,-0.369444423,-0.010185206,1,0,0,1.0315,optionLeft,40,10225,5,15,0,15,0,1,,,,,,,,,,,,,,,,,,,,,,,,,,,,,,,,,,,,,,,
,,,,,,,,2023-08-16_08h41.29.541,HF_wild_card,2022.2.4,Win32,59.93048064,5f200a9ae4a314270ab24cff,64d2fd46c836a06233681665,64dc7d8c00e26c1ae086472b,,,,,,,decisionTrl,resources/DY.BMP,resources/DG.BMP,Door4,0.333333333,-0.009259259,1,0,0,1.5938,optionRight,80,10305,5,16,0,16,0,1,,,,,,,,,,,,,,,,,,,,,,,,,,,,,,,,,,,,,,,
,,,,,,,,2023-08-16_08h41.29.541,HF_wild_card,2022.2.4,Win32,59.93048064,5f200a9ae4a314270ab24cff,64d2fd46c836a06233681665,64dc7d8c00e26c1ae086472b,,,,,,,decisionTrl,resources/DY.BMP,resources/DP.BMP,Door3,-0.328703704,-0.00462963,1,0,0,1.5938,optionLeft,70,10375,5,17,0,17,0,1,,,,,,,,,,,,,,,,,,,,,,,,,,,,,,,,,,,,,,,
,,,,,,,,2023-08-16_08h41.29.541,HF_wild_card,2022.2.4,Win32,59.93048064,5f200a9ae4a314270ab24cff,64d2fd46c836a06233681665,64dc7d8c00e26c1ae086472b,,,,,,,sngl,resources/DP.BMP,resources/Empty.png,WildCard_Ex,-0.343518504,0.034259266,1,0,0,1.5473,optionLeft,55,10430,5,18,0,18,0,1,,,,,,,,,,,,,,,,,,,,,,,,,,,,,,,,,,,,,,,
,,,,,,,,2023-08-16_08h41.29.541,HF_wild_card,2022.2.4,Win32,59.93048064,5f200a9ae4a314270ab24cff,64d2fd46c836a06233681665,64dc7d8c00e26c1ae086472b,,,,,,,decisionTrl,resources/DBN.BMP,resources/DP.BMP,WildCard_Ex,0.346296381,-0.047222243,1,0,0,2.4971,optionRight,45,10475,5,19,0,19,0,1,,,,,,,,,,,,,,,,,,,,,,,,,,,,,,,,,,,,,,,
,,,,,,,,2023-08-16_08h41.29.541,HF_wild_card,2022.2.4,Win32,59.93048064,5f200a9ae4a314270ab24cff,64d2fd46c836a06233681665,64dc7d8c00e26c1ae086472b,,,,,,,decisionTrl,resources/DBN.BMP,resources/DR.BMP,Door2,0.344444416,0.020370377,1,0,0,1.3167,optionRight,20,10495,5,20,0,20,0,1,,,,,,,,,,,,,,,,,,,,,,,,,,,,,,,,,,,,,,,
,,,,,,,,2023-08-16_08h41.29.541,HF_wild_card,2022.2.4,Win32,59.93048064,5f200a9ae4a314270ab24cff,64d2fd46c836a06233681665,64dc7d8c00e26c1ae086472b,,,,,,,decisionTrl,resources/DP.BMP,resources/DY.BMP,WildCard_Ex,-0.363888882,0.01666666,1,0,0,1.7968,optionLeft,45,10540,5,21,0,21,0,1,,,,,,,,,,,,,,,,,,,,,,,,,,,,,,,,,,,,,,,
,,,,,,,,2023-08-16_08h41.29.541,HF_wild_card,2022.2.4,Win32,59.93048064,5f200a9ae4a314270ab24cff,64d2fd46c836a06233681665,64dc7d8c00e26c1ae086472b,,,,,,,ctch,resources/DY.BMP,resources/DR.BMP,Door3,-0.301851838,-0.003703718,1,0,0,1.0467,optionLeft,70,10610,5,22,0,22,0,1,,,,,,,,,,,,,,,,,,,,,,,,,,,,,,,,,,,,,,,
,,,,,,,,2023-08-16_08h41.29.541,HF_wild_card,2022.2.4,Win32,59.93048064,5f200a9ae4a314270ab24cff,64d2fd46c836a06233681665,64dc7d8c00e26c1ae086472b,,,,,,,decisionTrl,resources/DP.BMP,resources/DR.BMP,Door2,0.377777806,-0.006481489,1,0,0,2.3794,optionRight,40,10650,5,23,0,23,0,1,,,,,,,,,,,,,,,,,,,,,,,,,,,,,,,,,,,,,,,
,,,,,,,,2023-08-16_08h41.29.541,HF_wild_card,2022.2.4,Win32,59.93048064,5f200a9ae4a314270ab24cff,64d2fd46c836a06233681665,64dc7d8c00e26c1ae086472b,,,,,,,decisionTrl,resources/DG.BMP,resources/DY.BMP,Door3,0.329629686,0.013888889,1,0,0,1.563,optionRight,70,10720,5,24,0,24,0,1,,,,,,,,,,,,,,,,,,,,,,,,,,,,,,,,,,,,,,,
,,,,,,,,2023-08-16_08h41.29.541,HF_wild_card,2022.2.4,Win32,59.93048064,5f200a9ae4a314270ab24cff,64d2fd46c836a06233681665,64dc7d8c00e26c1ae086472b,,,,,,,decisionTrl,resources/DBN.BMP,resources/DR.BMP,Door2,0.316666638,0,1,0,0,1.4967,optionRight,40,10760,5,25,0,25,0,1,,,,,,,,,,,,,,,,,,,,,,,,,,,,,,,,,,,,,,,
,,,,,,,,2023-08-16_08h41.29.541,HF_wild_card,2022.2.4,Win32,59.93048064,5f200a9ae4a314270ab24cff,64d2fd46c836a06233681665,64dc7d8c00e26c1ae086472b,,,,,,,decisionTrl,resources/DY.BMP,resources/DG.BMP,Door4,0.324074074,-0.017592607,1,0,0,1.4934,optionRight,60,10820,5,26,0,26,0,1,,,,,,,,,,,,,,,,,,,,,,,,,,,,,,,,,,,,,,,
,,,,,,,,2023-08-16_08h41.29.541,HF_wild_card,2022.2.4,Win32,59.93048064,5f200a9ae4a314270ab24cff,64d2fd46c836a06233681665,64dc7d8c00e26c1ae086472b,,,,,,,sngl,resources/Empty.png,resources/DBN.BMP,Door1,0.33148151,0.045370349,1,0,0,1.347,optionRight,30,10850,5,27,0,27,0,1,,,,,,,,,,,,,,,,,,,,,,,,,,,,,,,,,,,,,,,
,,,,,,,,2023-08-16_08h41.29.541,HF_wild_card,2022.2.4,Win32,59.93048064,5f200a9ae4a314270ab24cff,64d2fd46c836a06233681665,64dc7d8c00e26c1ae086472b,,,,,,,ctch,resources/DY.BMP,resources/DR.BMP,Door3,-0.378703683,-0.009259259,1,0,0,2.2814,optionLeft,70,10920,5,28,0,28,0,1,,,,,,,,,,,,,,,,,,,,,,,,,,,,,,,,,,,,,,,
,,,,,,,,2023-08-16_08h41.29.541,HF_wild_card,2022.2.4,Win32,59.93048064,5f200a9ae4a314270ab24cff,64d2fd46c836a06233681665,64dc7d8c00e26c1ae086472b,,,,,,,decisionTrl,resources/DR.BMP,resources/DBN.BMP,Door2,-0.342592593,0.009259259,1,0,0,2.36,optionLeft,20,10940,5,29,0,29,0,1,,,,,,,,,,,,,,,,,,,,,,,,,,,,,,,,,,,,,,,
,,,,,,,,2023-08-16_08h41.29.541,HF_wild_card,2022.2.4,Win32,59.93048064,5f200a9ae4a314270ab24cff,64d2fd46c836a06233681665,64dc7d8c00e26c1ae086472b,,,,,,,sngl,resources/DY.BMP,resources/Empty.png,Door3,-0.337037016,0.020370377,1,0,0,1.0768,optionLeft,70,11010,5,30,0,30,0,1,,,,,,,,,,,,,,,,,,,,,,,,,,,,,,,,,,,,,,,
,,,,,,,,2023-08-16_08h41.29.541,HF_wild_card,2022.2.4,Win32,59.93048064,5f200a9ae4a314270ab24cff,64d2fd46c836a06233681665,64dc7d8c00e26c1ae086472b,,,,,,,ctch,resources/DG.BMP,resources/DBN.BMP,Door4,-0.318518497,0.017592571,1,0,0,1.5643,optionLeft,60,11070,5,31,0,31,0,1,,,,,,,,,,,,,,,,,,,,,,,,,,,,,,,,,,,,,,,
,,,,,,,,2023-08-16_08h41.29.541,HF_wild_card,2022.2.4,Win32,59.93048064,5f200a9ae4a314270ab24cff,64d2fd46c836a06233681665,64dc7d8c00e26c1ae086472b,,,,,,,decisionTrl,resources/DG.BMP,resources/DY.BMP,Door3,0.347222222,-0.005555577,1,0,0,3.1309,optionRight,70,11140,5,32,0,32,0,1,,,,,,,,,,,,,,,,,,,,,,,,,,,,,,,,,,,,,,,
,,,,,,,,2023-08-16_08h41.29.541,HF_wild_card,2022.2.4,Win32,59.93048064,5f200a9ae4a314270ab24cff,64d2fd46c836a06233681665,64dc7d8c00e26c1ae086472b,,,,,,,decisionTrl,resources/DY.BMP,resources/DG.BMP,Door3,-0.291666667,0.013888889,1,0,0,1.9313,optionLeft,70,11210,5,33,0,33,0,1,,,,,,,,,,,,,,,,,,,,,,,,,,,,,,,,,,,,,,,
,,,,,,,,2023-08-16_08h41.29.541,HF_wild_card,2022.2.4,Win32,59.93048064,5f200a9ae4a314270ab24cff,64d2fd46c836a06233681665,64dc7d8c00e26c1ae086472b,,,,,,,decisionTrl,resources/DBN.BMP,resources/DR.BMP,Door2,0.351851852,-0.017592607,1,0,0,1.4764,optionRight,40,11250,5,34,0,34,0,1,,,,,,,,,,,,,,,,,,,,,,,,,,,,,,,,,,,,,,,
,,,,,,,,2023-08-16_08h41.29.541,HF_wild_card,2022.2.4,Win32,59.93048064,5f200a9ae4a314270ab24cff,64d2fd46c836a06233681665,64dc7d8c00e26c1ae086472b,,,,,,,decisionTrl,resources/DY.BMP,resources/DG.BMP,Door3,-0.362037023,0.066666674,1,0,0,1.5602,optionLeft,70,11320,5,35,0,35,0,1,,,,,,,,,,,,,,,,,,,,,,,,,,,,,,,,,,,,,,,
,,,,,,,,2023-08-16_08h41.29.541,HF_wild_card,2022.2.4,Win32,59.93048064,5f200a9ae4a314270ab24cff,64d2fd46c836a06233681665,64dc7d8c00e26c1ae086472b,,,,,,,decisionTrl,resources/DR.BMP,resources/DP.BMP,WildCard_Ex,0.329629686,-0.012962977,1,0,0,2.9633,optionRight,55,11375,5,36,0,36,0,1,,,,,,,,,,,,,,,,,,,,,,,,,,,,,,,,,,,,,,,
,,,,,,,,2023-08-16_08h41.29.541,HF_wild_card,2022.2.4,Win32,59.93048064,5f200a9ae4a314270ab24cff,64d2fd46c836a06233681665,64dc7d8c00e26c1ae086472b,,,,,,,sngl,resources/Empty.png,resources/DP.BMP,WildCard_Ex,0.308333362,-0.045370384,1,0,0,1.3478,optionRight,45,11420,5,37,0,37,0,1,,,,,,,,,,,,,,,,,,,,,,,,,,,,,,,,,,,,,,,
,,,,,,,,2023-08-16_08h41.29.541,HF_wild_card,2022.2.4,Win32,59.93048064,5f200a9ae4a314270ab24cff,64d2fd46c836a06233681665,64dc7d8c00e26c1ae086472b,,,,,,,sngl,resources/DP.BMP,resources/Empty.png,WildCard_Ex,-0.320370356,0.027777778,1,0,0,1.3138,optionLeft,45,11465,5,38,0,38,0,1,,,,,,,,,,,,,,,,,,,,,,,,,,,,,,,,,,,,,,,
,,,,,,,,2023-08-16_08h41.29.541,HF_wild_card,2022.2.4,Win32,59.93048064,5f200a9ae4a314270ab24cff,64d2fd46c836a06233681665,64dc7d8c00e26c1ae086472b,,,,,,,decisionTrl,resources/DP.BMP,resources/DG.BMP,Door4,0.35555564,-0.024074095,1,0,0,1.6935,optionRight,60,11525,5,39,0,39,0,1,,,,,,,,,,,,,,,,,,,,,,,,,,,,,,,,,,,,,,,
,,,,,,,,2023-08-16_08h41.29.541,HF_wild_card,2022.2.4,Win32,59.93048064,5f200a9ae4a314270ab24cff,64d2fd46c836a06233681665,64dc7d8c00e26c1ae086472b,,,,,,,decisionTrl,resources/DP.BMP,resources/DBN.BMP,WildCard_Ex,-0.305555556,0.039814808,1,0,0,2.1304,optionLeft,45,11570,5,40,0,40,0,1,,,,,,,,,,,,,,,,,,,,,,,,,,,,,,,,,,,,,,,
,,,,,,,,2023-08-16_08h41.29.541,HF_wild_card,2022.2.4,Win32,59.93048064,5f200a9ae4a314270ab24cff,64d2fd46c836a06233681665,64dc7d8c00e26c1ae086472b,,,,,,,sngl,resources/DR.BMP,resources/Empty.png,Door2,-0.355555534,0.044444437,1,0,0,1.167,optionLeft,40,11610,5,41,0,41,0,1,,,,,,,,,,,,,,,,,,,,,,,,,,,,,,,,,,,,,,,
,,,,,,,,2023-08-16_08h41.29.541,HF_wild_card,2022.2.4,Win32,59.93048064,5f200a9ae4a314270ab24cff,64d2fd46c836a06233681665,64dc7d8c00e26c1ae086472b,,,,,,,sngl,resources/Empty.png,resources/DG.BMP,Door4,0.348148205,0.054629608,1,0,0,1.7007,optionRight,60,11670,5,42,0,42,0,1,,,,,,,,,,,,,,,,,,,,,,,,,,,,,,,,,,,,,,,
,,,,,,,,2023-08-16_08h41.29.541,HF_wild_card,2022.2.4,Win32,59.93048064,5f200a9ae4a314270ab24cff,64d2fd46c836a06233681665,64dc7d8c00e26c1ae086472b,,,,,,,sngl,resources/Empty.png,resources/DY.BMP,Door3,0.333333333,0.014814801,1,0,0,1.1935,optionRight,70,11740,5,43,0,43,0,1,,,,,,,,,,,,,,,,,,,,,,,,,,,,,,,,,,,,,,,
,,,,,,,,2023-08-16_08h41.29.541,HF_wild_card,2022.2.4,Win32,59.93048064,5f200a9ae4a314270ab24cff,64d2fd46c836a06233681665,64dc7d8c00e26c1ae086472b,,,,,,,,,,,,,,,,,,,,,,,,,,4,0,4,0,1,,,,,,,,,,,,,,,,,,,,,,,,,,,,,,,,,,
,,,,,,,,2023-08-16_08h41.29.541,HF_wild_card,2022.2.4,Win32,59.93048064,5f200a9ae4a314270ab24cff,64d2fd46c836a06233681665,64dc7d8c00e26c1ae086472b,,,,,,,sngl,resources/DR.BMP,resources/Empty.png,Door2,-0.36296297,-0.018518519,1,0,0,2.6232,optionLeft,20,11760,6,0,0,0,0,1,,,,,,,,,,,,,,,,,,,,,,,,,,,,,,,,,,,,,,,
,,,,,,,,2023-08-16_08h41.29.541,HF_wild_card,2022.2.4,Win32,59.93048064,5f200a9ae4a314270ab24cff,64d2fd46c836a06233681665,64dc7d8c00e26c1ae086472b,,,,,,,ctch,resources/DY.BMP,resources/DR.BMP,Door3,-0.308333326,0.062037044,1,0,0,1.7339,optionLeft,70,11830,6,1,0,1,0,1,,,,,,,,,,,,,,,,,,,,,,,,,,,,,,,,,,,,,,,
,,,,,,,,2023-08-16_08h41.29.541,HF_wild_card,2022.2.4,Win32,59.93048064,5f200a9ae4a314270ab24cff,64d2fd46c836a06233681665,64dc7d8c00e26c1ae086472b,,,,,,,sngl,resources/Empty.png,resources/DBN.BMP,Door1,0.361111111,-0.005555577,1,0,0,1.2996,optionRight,30,11860,6,2,0,2,0,1,,,,,,,,,,,,,,,,,,,,,,,,,,,,,,,,,,,,,,,
,,,,,,,,2023-08-16_08h41.29.541,HF_wild_card,2022.2.4,Win32,59.93048064,5f200a9ae4a314270ab24cff,64d2fd46c836a06233681665,64dc7d8c00e26c1ae086472b,,,,,,,decisionTrl,resources/DR.BMP,resources/DBN.BMP,Door1,0.289814843,0.062962956,1,0,0,1.5461,optionRight,30,11890,6,3,0,3,0,1,,,,,,,,,,,,,,,,,,,,,,,,,,,,,,,,,,,,,,,
,,,,,,,,2023-08-16_08h41.29.541,HF_wild_card,2022.2.4,Win32,59.93048064,5f200a9ae4a314270ab24cff,64d2fd46c836a06233681665,64dc7d8c00e26c1ae086472b,,,,,,,decisionTrl,resources/DBN.BMP,resources/DR.BMP,Door1,-0.414814808,0.063888868,1,0,0,1.5473,optionLeft,30,11920,6,4,0,4,0,1,,,,,,,,,,,,,,,,,,,,,,,,,,,,,,,,,,,,,,,
,,,,,,,,2023-08-16_08h41.29.541,HF_wild_card,2022.2.4,Win32,59.93048064,5f200a9ae4a314270ab24cff,64d2fd46c836a06233681665,64dc7d8c00e26c1ae086472b,,,,,,,decisionTrl,resources/DP.BMP,resources/DR.BMP,WildCard_Ex,-0.308333326,0.037037037,1,0,0,2.4769,optionLeft,45,11965,6,5,0,5,0,1,,,,,,,,,,,,,,,,,,,,,,,,,,,,,,,,,,,,,,,
,,,,,,,,2023-08-16_08h41.29.541,HF_wild_card,2022.2.4,Win32,59.93048064,5f200a9ae4a314270ab24cff,64d2fd46c836a06233681665,64dc7d8c00e26c1ae086472b,,,,,,,ctch,resources/DR.BMP,resources/DY.BMP,Door3,0.350926011,0.0074074,1,0,0,2.064,optionRight,70,12035,6,6,0,6,0,1,,,,,,,,,,,,,,,,,,,,,,,,,,,,,,,,,,,,,,,
,,,,,,,,2023-08-16_08h41.29.541,HF_wild_card,2022.2.4,Win32,59.93048064,5f200a9ae4a314270ab24cff,64d2fd46c836a06233681665,64dc7d8c00e26c1ae086472b,,,,,,,sngl,resources/Empty.png,resources/DP.BMP,WildCard_Ex,0.320370427,-0.017592607,1,0,0,1.3438,optionRight,45,12080,6,7,0,7,0,1,,,,,,,,,,,,,,,,,,,,,,,,,,,,,,,,,,,,,,,
,,,,,,,,2023-08-16_08h41.29.541,HF_wild_card,2022.2.4,Win32,59.93048064,5f200a9ae4a314270ab24cff,64d2fd46c836a06233681665,64dc7d8c00e26c1ae086472b,,,,,,,sngl,resources/DG.BMP,resources/Empty.png,Door4,-0.305555556,0.033333319,1,0,0,1.3974,optionLeft,60,12140,6,8,0,8,0,1,,,,,,,,,,,,,,,,,,,,,,,,,,,,,,,,,,,,,,,
,,,,,,,,2023-08-16_08h41.29.541,HF_wild_card,2022.2.4,Win32,59.93048064,5f200a9ae4a314270ab24cff,64d2fd46c836a06233681665,64dc7d8c00e26c1ae086472b,,,,,,,sngl,resources/DY.BMP,resources/Empty.png,Door3,-0.295370384,0.057407414,1,0,0,1.3309,optionLeft,70,12210,6,9,0,9,0,1,,,,,,,,,,,,,,,,,,,,,,,,,,,,,,,,,,,,,,,
,,,,,,,,2023-08-16_08h41.29.541,HF_wild_card,2022.2.4,Win32,59.93048064,5f200a9ae4a314270ab24cff,64d2fd46c836a06233681665,64dc7d8c00e26c1ae086472b,,,,,,,decisionTrl,resources/DY.BMP,resources/DG.BMP,Door4,0.334259316,0.020370377,1,0,0,2.4774,optionRight,60,12270,6,10,0,10,0,1,,,,,,,,,,,,,,,,,,,,,,,,,,,,,,,,,,,,,,,
,,,,,,,,2023-08-16_08h41.29.541,HF_wild_card,2022.2.4,Win32,59.93048064,5f200a9ae4a314270ab24cff,64d2fd46c836a06233681665,64dc7d8c00e26c1ae086472b,,,,,,,sngl,resources/Empty.png,resources/DY.BMP,Door3,0.332407492,0.053703697,1,0,0,1.198,optionRight,70,12340,6,11,0,11,0,1,,,,,,,,,,,,,,,,,,,,,,,,,,,,,,,,,,,,,,,
,,,,,,,,2023-08-16_08h41.29.541,HF_wild_card,2022.2.4,Win32,59.93048064,5f200a9ae4a314270ab24cff,64d2fd46c836a06233681665,64dc7d8c00e26c1ae086472b,,,,,,,sngl,resources/DP.BMP,resources/Empty.png,WildCard_Ex,-0.355555534,0.057407414,1,0,0,1.343,optionLeft,45,12385,6,12,0,12,0,1,,,,,,,,,,,,,,,,,,,,,,,,,,,,,,,,,,,,,,,
,,,,,,,,2023-08-16_08h41.29.541,HF_wild_card,2022.2.4,Win32,59.93048064,5f200a9ae4a314270ab24cff,64d2fd46c836a06233681665,64dc7d8c00e26c1ae086472b,,,,,,,decisionTrl,resources/DR.BMP,resources/DBN.BMP,Door2,-0.3675926,0.03148146,1,0,0,1.9338,optionLeft,20,12405,6,13,0,13,0,1,,,,,,,,,,,,,,,,,,,,,,,,,,,,,,,,,,,,,,,
,,,,,,,,2023-08-16_08h41.29.541,HF_wild_card,2022.2.4,Win32,59.93048064,5f200a9ae4a314270ab24cff,64d2fd46c836a06233681665,64dc7d8c00e26c1ae086472b,,,,,,,sngl,resources/DP.BMP,resources/Empty.png,WildCard_Ex,-0.319444444,0.026851831,1,0,0,1.1337,optionLeft,55,12460,6,14,0,14,0,1,,,,,,,,,,,,,,,,,,,,,,,,,,,,,,,,,,,,,,,
,,,,,,,,2023-08-16_08h41.29.541,HF_wild_card,2022.2.4,Win32,59.93048064,5f200a9ae4a314270ab24cff,64d2fd46c836a06233681665,64dc7d8c00e26c1ae086472b,,,,,,,decisionTrl,resources/DP.BMP,resources/DBN.BMP,WildCard_Ex,-0.369444423,0.021296289,1,0,0,1.6795,optionLeft,45,12505,6,15,0,15,0,1,,,,,,,,,,,,,,,,,,,,,,,,,,,,,,,,,,,,,,,
,,,,,,,,2023-08-16_08h41.29.541,HF_wild_card,2022.2.4,Win32,59.93048064,5f200a9ae4a314270ab24cff,64d2fd46c836a06233681665,64dc7d8c00e26c1ae086472b,,,,,,,decisionTrl,resources/DP.BMP,resources/DY.BMP,WildCard_Ex,-0.325925933,0.026851831,1,0,0,2.8468,optionLeft,55,12560,6,16,0,16,0,1,,,,,,,,,,,,,,,,,,,,,,,,,,,,,,,,,,,,,,,
,,,,,,,,2023-08-16_08h41.29.541,HF_wild_card,2022.2.4,Win32,59.93048064,5f200a9ae4a314270ab24cff,64d2fd46c836a06233681665,64dc7d8c00e26c1ae086472b,,,,,,,decisionTrl,resources/DG.BMP,resources/DY.BMP,Door4,-0.312962956,0.089814822,1,0,0,1.6139,optionLeft,80,12640,6,17,0,17,0,1,,,,,,,,,,,,,,,,,,,,,,,,,,,,,,,,,,,,,,,
,,,,,,,,2023-08-16_08h41.29.541,HF_wild_card,2022.2.4,Win32,59.93048064,5f200a9ae4a314270ab24cff,64d2fd46c836a06233681665,64dc7d8c00e26c1ae086472b,,,,,,,ctch,resources/DG.BMP,resources/DBN.BMP,Door4,-0.326851845,0.043518526,1,0,0,1.1967,optionLeft,60,12700,6,18,0,18,0,1,,,,,,,,,,,,,,,,,,,,,,,,,,,,,,,,,,,,,,,
,,,,,,,,2023-08-16_08h41.29.541,HF_wild_card,2022.2.4,Win32,59.93048064,5f200a9ae4a314270ab24cff,64d2fd46c836a06233681665,64dc7d8c00e26c1ae086472b,,,,,,,decisionTrl,resources/DY.BMP,resources/DG.BMP,Door4,0.337962963,0.003703683,1,0,0,1.8144,optionRight,80,12780,6,19,0,19,0,1,,,,,,,,,,,,,,,,,,,,,,,,,,,,,,,,,,,,,,,
,,,,,,,,2023-08-16_08h41.29.541,HF_wild_card,2022.2.4,Win32,59.93048064,5f200a9ae4a314270ab24cff,64d2fd46c836a06233681665,64dc7d8c00e26c1ae086472b,,,,,,,sngl,resources/Empty.png,resources/DP.BMP,WildCard_Ex,0.338888945,-0.002777771,1,0,0,1.3334,optionRight,55,12835,6,20,0,20,0,1,,,,,,,,,,,,,,,,,,,,,,,,,,,,,,,,,,,,,,,
,,,,,,,,2023-08-16_08h41.29.541,HF_wild_card,2022.2.4,Win32,59.93048064,5f200a9ae4a314270ab24cff,64d2fd46c836a06233681665,64dc7d8c00e26c1ae086472b,,,,,,,ctch,resources/DBN.BMP,resources/DG.BMP,Door4,0.37962963,0.018518519,1,0,0,1.4775,optionRight,60,12895,6,21,0,21,0,1,,,,,,,,,,,,,,,,,,,,,,,,,,,,,,,,,,,,,,,
,,,,,,,,2023-08-16_08h41.29.541,HF_wild_card,2022.2.4,Win32,59.93048064,5f200a9ae4a314270ab24cff,64d2fd46c836a06233681665,64dc7d8c00e26c1ae086472b,,,,,,,ctch,resources/DR.BMP,resources/DY.BMP,Door2,-0.375925912,0.035185178,1,0,0,2.1651,optionLeft,20,12915,6,22,0,22,0,1,,,,,,,,,,,,,,,,,,,,,,,,,,,,,,,,,,,,,,,
,,,,,,,,2023-08-16_08h41.29.541,HF_wild_card,2022.2.4,Win32,59.93048064,5f200a9ae4a314270ab24cff,64d2fd46c836a06233681665,64dc7d8c00e26c1ae086472b,,,,,,,ctch,resources/DG.BMP,resources/DBN.BMP,Door4,-0.281481496,0.065740727,1,0,0,2.0275,optionLeft,60,12975,6,23,0,23,0,1,,,,,,,,,,,,,,,,,,,,,,,,,,,,,,,,,,,,,,,
,,,,,,,,2023-08-16_08h41.29.541,HF_wild_card,2022.2.4,Win32,59.93048064,5f200a9ae4a314270ab24cff,64d2fd46c836a06233681665,64dc7d8c00e26c1ae086472b,,,,,,,ctch,resources/DBN.BMP,resources/DG.BMP,Door4,0.332407492,0.015740748,1,0,0,1.4302,optionRight,80,13055,6,24,0,24,0,1,,,,,,,,,,,,,,,,,,,,,,,,,,,,,,,,,,,,,,,
,,,,,,,,2023-08-16_08h41.29.541,HF_wild_card,2022.2.4,Win32,59.93048064,5f200a9ae4a314270ab24cff,64d2fd46c836a06233681665,64dc7d8c00e26c1ae086472b,,,,,,,decisionTrl,resources/DBN.BMP,resources/DR.BMP,Door2,0.316666638,0.0074074,1,0,0,1.8165,optionRight,20,13075,6,25,0,25,0,1,,,,,,,,,,,,,,,,,,,,,,,,,,,,,,,,,,,,,,,
,,,,,,,,2023-08-16_08h41.29.541,HF_wild_card,2022.2.4,Win32,59.93048064,5f200a9ae4a314270ab24cff,64d2fd46c836a06233681665,64dc7d8c00e26c1ae086472b,,,,,,,ctch,resources/DY.BMP,resources/DR.BMP,Door3,-0.332407386,0.037037037,1,0,0,2.3464,optionLeft,70,13145,6,26,0,26,0,1,,,,,,,,,,,,,,,,,,,,,,,,,,,,,,,,,,,,,,,
,,,,,,,,2023-08-16_08h41.29.541,HF_wild_card,2022.2.4,Win32,59.93048064,5f200a9ae4a314270ab24cff,64d2fd46c836a06233681665,64dc7d8c00e26c1ae086472b,,,,,,,decisionTrl,resources/DP.BMP,resources/DG.BMP,Door4,0.381481453,0.029629637,1,0,0,1.9478,optionRight,80,13225,6,27,0,27,0,1,,,,,,,,,,,,,,,,,,,,,,,,,,,,,,,,,,,,,,,
,,,,,,,,2023-08-16_08h41.29.541,HF_wild_card,2022.2.4,Win32,59.93048064,5f200a9ae4a314270ab24cff,64d2fd46c836a06233681665,64dc7d8c00e26c1ae086472b,,,,,,,decisionTrl,resources/DG.BMP,resources/DY.BMP,Door4,-0.345370363,0.074999986,1,0,0,4.1603,optionLeft,80,13305,6,28,0,28,0,1,,,,,,,,,,,,,,,,,,,,,,,,,,,,,,,,,,,,,,,
,,,,,,,,2023-08-16_08h41.29.541,HF_wild_card,2022.2.4,Win32,59.93048064,5f200a9ae4a314270ab24cff,64d2fd46c836a06233681665,64dc7d8c00e26c1ae086472b,,,,,,,sngl,resources/Empty.png,resources/DG.BMP,Door4,0.336111139,0.012962942,1,0,0,1.1302,optionRight,80,13385,6,29,0,29,0,1,,,,,,,,,,,,,,,,,,,,,,,,,,,,,,,,,,,,,,,
,,,,,,,,2023-08-16_08h41.29.541,HF_wild_card,2022.2.4,Win32,59.93048064,5f200a9ae4a314270ab24cff,64d2fd46c836a06233681665,64dc7d8c00e26c1ae086472b,,,,,,,decisionTrl,resources/DY.BMP,resources/DP.BMP,WildCard_Ex,0.325925898,0.02407406,1,0,0,1.677,optionRight,55,13440,6,30,0,30,0,1,,,,,,,,,,,,,,,,,,,,,,,,,,,,,,,,,,,,,,,
,,,,,,,,2023-08-16_08h41.29.541,HF_wild_card,2022.2.4,Win32,59.93048064,5f200a9ae4a314270ab24cff,64d2fd46c836a06233681665,64dc7d8c00e26c1ae086472b,,,,,,,sngl,resources/DBN.BMP,resources/Empty.png,Door1,-0.35833334,0.074999986,1,0,0,1.1632,optionLeft,30,13470,6,31,0,31,0,1,,,,,,,,,,,,,,,,,,,,,,,,,,,,,,,,,,,,,,,
,,,,,,,,2023-08-16_08h41.29.541,HF_wild_card,2022.2.4,Win32,59.93048064,5f200a9ae4a314270ab24cff,64d2fd46c836a06233681665,64dc7d8c00e26c1ae086472b,,,,,,,decisionTrl,resources/DG.BMP,resources/DY.BMP,Door4,-0.326851845,0.048148155,1,0,0,1.7298,optionLeft,60,13530,6,32,0,32,0,1,,,,,,,,,,,,,,,,,,,,,,,,,,,,,,,,,,,,,,,
,,,,,,,,2023-08-16_08h41.29.541,HF_wild_card,2022.2.4,Win32,59.93048064,5f200a9ae4a314270ab24cff,64d2fd46c836a06233681665,64dc7d8c00e26c1ae086472b,,,,,,,decisionTrl,resources/DBN.BMP,resources/DR.BMP,Door2,0.329629686,0.011111118,1,0,0,1.8477,optionRight,20,13550,6,33,0,33,0,1,,,,,,,,,,,,,,,,,,,,,,,,,,,,,,,,,,,,,,,
,,,,,,,,2023-08-16_08h41.29.541,HF_wild_card,2022.2.4,Win32,59.93048064,5f200a9ae4a314270ab24cff,64d2fd46c836a06233681665,64dc7d8c00e26c1ae086472b,,,,,,,decisionTrl,resources/DY.BMP,resources/DG.BMP,Door4,0.311111168,0.051851838,1,0,0,1.3972,optionRight,80,13630,6,34,0,34,0,1,,,,,,,,,,,,,,,,,,,,,,,,,,,,,,,,,,,,,,,
,,,,,,,,2023-08-16_08h41.29.541,HF_wild_card,2022.2.4,Win32,59.93048064,5f200a9ae4a314270ab24cff,64d2fd46c836a06233681665,64dc7d8c00e26c1ae086472b,,,,,,,decisionTrl,resources/DR.BMP,resources/DP.BMP,WildCard_Ex,0.290740755,0.037037037,1,0,0,2.4436,optionRight,45,13675,6,35,0,35,0,1,,,,,,,,,,,,,,,,,,,,,,,,,,,,,,,,,,,,,,,
,,,,,,,,2023-08-16_08h41.29.541,HF_wild_card,2022.2.4,Win32,59.93048064,5f200a9ae4a314270ab24cff,64d2fd46c836a06233681665,64dc7d8c00e26c1ae086472b,,,,,,,decisionTrl,resources/DR.BMP,resources/DBN.BMP,Door1,0.346296381,0.074999986,1,0,0,1.2939,optionRight,30,13705,6,36,0,36,0,1,,,,,,,,,,,,,,,,,,,,,,,,,,,,,,,,,,,,,,,
,,,,,,,,2023-08-16_08h41.29.541,HF_wild_card,2022.2.4,Win32,59.93048064,5f200a9ae4a314270ab24cff,64d2fd46c836a06233681665,64dc7d8c00e26c1ae086472b,,,,,,,decisionTrl,resources/DY.BMP,resources/DG.BMP,Door4,0.332407492,0.053703697,1,0,0,2.9298,optionRight,80,13785,6,37,0,37,0,1,,,,,,,,,,,,,,,,,,,,,,,,,,,,,,,,,,,,,,,
,,,,,,,,2023-08-16_08h41.29.541,HF_wild_card,2022.2.4,Win32,59.93048064,5f200a9ae4a314270ab24cff,64d2fd46c836a06233681665,64dc7d8c00e26c1ae086472b,,,,,,,decisionTrl,resources/DR.BMP,resources/DBN.BMP,Door1,0.325000057,0.082407386,1,0,0,2.5926,optionRight,30,13815,6,38,0,38,0,1,,,,,,,,,,,,,,,,,,,,,,,,,,,,,,,,,,,,,,,
,,,,,,,,2023-08-16_08h41.29.541,HF_wild_card,2022.2.4,Win32,59.93048064,5f200a9ae4a314270ab24cff,64d2fd46c836a06233681665,64dc7d8c00e26c1ae086472b,,,,,,,sngl,resources/Empty.png,resources/DR.BMP,Door2,0.314814815,0.025000007,1,0,0,1.2303,optionRight,40,13855,6,39,0,39,0,1,,,,,,,,,,,,,,,,,,,,,,,,,,,,,,,,,,,,,,,
,,,,,,,,2023-08-16_08h41.29.541,HF_wild_card,2022.2.4,Win32,59.93048064,5f200a9ae4a314270ab24cff,64d2fd46c836a06233681665,64dc7d8c00e26c1ae086472b,,,,,,,decisionTrl,resources/DBN.BMP,resources/DR.BMP,Door2,0.32222225,0.025925919,1,0,0,1.4309,optionRight,40,13895,6,40,0,40,0,1,,,,,,,,,,,,,,,,,,,,,,,,,,,,,,,,,,,,,,,
,,,,,,,,2023-08-16_08h41.29.541,HF_wild_card,2022.2.4,Win32,59.93048064,5f200a9ae4a314270ab24cff,64d2fd46c836a06233681665,64dc7d8c00e26c1ae086472b,,,,,,,decisionTrl,resources/DG.BMP,resources/DP.BMP,Door4,-0.306481467,0.053703697,1,0,0,4.6772,optionLeft,80,13975,6,41,0,41,0,1,,,,,,,,,,,,,,,,,,,,,,,,,,,,,,,,,,,,,,,
,,,,,,,,2023-08-16_08h41.29.541,HF_wild_card,2022.2.4,Win32,59.93048064,5f200a9ae4a314270ab24cff,64d2fd46c836a06233681665,64dc7d8c00e26c1ae086472b,,,,,,,decisionTrl,resources/DG.BMP,resources/DY.BMP,Door4,-0.323148127,0.063888868,1,0,0,1.364,optionLeft,80,14055,6,42,0,42,0,1,,,,,,,,,,,,,,,,,,,,,,,,,,,,,,,,,,,,,,,
,,,,,,,,2023-08-16_08h41.29.541,HF_wild_card,2022.2.4,Win32,59.93048064,5f200a9ae4a314270ab24cff,64d2fd46c836a06233681665,64dc7d8c00e26c1ae086472b,,,,,,,decisionTrl,resources/DBN.BMP,resources/DP.BMP,WildCard_Ex,0.29814812,-0.00462963,1,0,0,2.7631,optionRight,45,14100,6,43,0,43,0,1,,,,,,,,,,,,,,,,,,,,,,,,,,,,,,,,,,,,,,,
,,,,,,,,2023-08-16_08h41.29.541,HF_wild_card,2022.2.4,Win32,59.93048064,5f200a9ae4a314270ab24cff,64d2fd46c836a06233681665,64dc7d8c00e26c1ae086472b,,,,,,,,,,,,,,,,,,,,,,,,,,5,0,5,0,1,,,,,,,,,,,,,,,,,,,,,,,,,,,,,,,,,,
,,,,,,,,2023-08-16_08h41.29.541,HF_wild_card,2022.2.4,Win32,59.93048064,5f200a9ae4a314270ab24cff,64d2fd46c836a06233681665,64dc7d8c00e26c1ae086472b,,,,,,,decisionTrl,resources/DG.BMP,resources/DY.BMP,Door4,-0.317592586,-0.059259273,1,0,0,5.6366,optionLeft,60,14160,7,0,0,0,0,1,,,,,,,,,,,,,,,,,,,,,,,,,,,,,,,,,,,,,,,
,,,,,,,,2023-08-16_08h41.29.541,HF_wild_card,2022.2.4,Win32,59.93048064,5f200a9ae4a314270ab24cff,64d2fd46c836a06233681665,64dc7d8c00e26c1ae086472b,,,,,,,ctch,resources/DG.BMP,resources/DBN.BMP,Door4,-0.272222236,0.037037037,1,0,0,2.6269,optionLeft,80,14240,7,1,0,1,0,1,,,,,,,,,,,,,,,,,,,,,,,,,,,,,,,,,,,,,,,
,,,,,,,,2023-08-16_08h41.29.541,HF_wild_card,2022.2.4,Win32,59.93048064,5f200a9ae4a314270ab24cff,64d2fd46c836a06233681665,64dc7d8c00e26c1ae086472b,,,,,,,ctch,resources/DR.BMP,resources/DY.BMP,Door3,0.357407464,-0.024074095,1,0,0,4.9326,optionRight,70,14310,7,2,0,2,0,1,,,,,,,,,,,,,,,,,,,,,,,,,,,,,,,,,,,,,,,
,,,,,,,,2023-08-16_08h41.29.541,HF_wild_card,2022.2.4,Win32,59.93048064,5f200a9ae4a314270ab24cff,64d2fd46c836a06233681665,64dc7d8c00e26c1ae086472b,,,,,,,ctch,resources/DG.BMP,resources/DBN.BMP,Door4,-0.312962956,0.062962956,1,0,0,3.6491,optionLeft,60,14370,7,3,0,3,0,1,,,,,,,,,,,,,,,,,,,,,,,,,,,,,,,,,,,,,,,
,,,,,,,,2023-08-16_08h41.29.541,HF_wild_card,2022.2.4,Win32,59.93048064,5f200a9ae4a314270ab24cff,64d2fd46c836a06233681665,64dc7d8c00e26c1ae086472b,,,,,,,decisionTrl,resources/DR.BMP,resources/DBN.BMP,Door1,0.305555556,0.078703704,1,0,0,3.9232,optionRight,30,14400,7,4,0,4,0,1,,,,,,,,,,,,,,,,,,,,,,,,,,,,,,,,,,,,,,,
,,,,,,,,2023-08-16_08h41.29.541,HF_wild_card,2022.2.4,Win32,59.93048064,5f200a9ae4a314270ab24cff,64d2fd46c836a06233681665,64dc7d8c00e26c1ae086472b,,,,,,,decisionTrl,resources/DR.BMP,resources/DBN.BMP,Door1,0.314814815,0.039814808,1,0,0,1.7817,optionRight,30,14430,7,5,0,5,0,1,,,,,,,,,,,,,,,,,,,,,,,,,,,,,,,,,,,,,,,
,,,,,,,,2023-08-16_08h41.29.541,HF_wild_card,2022.2.4,Win32,59.93048064,5f200a9ae4a314270ab24cff,64d2fd46c836a06233681665,64dc7d8c00e26c1ae086472b,,,,,,,decisionTrl,resources/DY.BMP,resources/DG.BMP,Door4,0.392592677,0.033333319,1,0,0,3.5738,optionRight,80,14510,7,6,0,6,0,1,,,,,,,,,,,,,,,,,,,,,,,,,,,,,,,,,,,,,,,
,,,,,,,,2023-08-16_08h41.29.541,HF_wild_card,2022.2.4,Win32,59.93048064,5f200a9ae4a314270ab24cff,64d2fd46c836a06233681665,64dc7d8c00e26c1ae086472b,,,,,,,ctch,resources/DBN.BMP,resources/DG.BMP,Door4,0.328703704,0.022222201,1,0,0,1.7273,optionRight,60,14570,7,7,0,7,0,1,,,,,,,,,,,,,,,,,,,,,,,,,,,,,,,,,,,,,,,
,,,,,,,,2023-08-16_08h41.29.541,HF_wild_card,2022.2.4,Win32,59.93048064,5f200a9ae4a314270ab24cff,64d2fd46c836a06233681665,64dc7d8c00e26c1ae086472b,,,,,,,decisionTrl,resources/DR.BMP,resources/DBN.BMP,Door1,0.32685188,0.081481474,1,0,0,2.6119,optionRight,30,14600,7,8,0,8,0,1,,,,,,,,,,,,,,,,,,,,,,,,,,,,,,,,,,,,,,,
,,,,,,,,2023-08-16_08h41.29.541,HF_wild_card,2022.2.4,Win32,59.93048064,5f200a9ae4a314270ab24cff,64d2fd46c836a06233681665,64dc7d8c00e26c1ae086472b,,,,,,,decisionTrl,resources/DBN.BMP,resources/DR.BMP,Door1,-0.319444444,0.114814794,1,0,0,1.9322,optionLeft,30,14630,7,9,0,9,0,1,,,,,,,,,,,,,,,,,,,,,,,,,,,,,,,,,,,,,,,
,,,,,,,,2023-08-16_08h41.29.541,HF_wild_card,2022.2.4,Win32,59.93048064,5f200a9ae4a314270ab24cff,64d2fd46c836a06233681665,64dc7d8c00e26c1ae086472b,,,,,,,decisionTrl,resources/DY.BMP,resources/DG.BMP,Door4,0.35555564,0.049074067,1,0,0,4.9993,optionRight,60,14690,7,10,0,10,0,1,,,,,,,,,,,,,,,,,,,,,,,,,,,,,,,,,,,,,,,
,,,,,,,,2023-08-16_08h41.29.541,HF_wild_card,2022.2.4,Win32,59.93048064,5f200a9ae4a314270ab24cff,64d2fd46c836a06233681665,64dc7d8c00e26c1ae086472b,,,,,,,decisionTrl,resources/DG.BMP,resources/DY.BMP,Door4,-0.339814822,0.078703704,1,0,0,1.8824,optionLeft,80,14770,7,11,0,11,0,1,,,,,,,,,,,,,,,,,,,,,,,,,,,,,,,,,,,,,,,
,,,,,,,,2023-08-16_08h41.29.541,HF_wild_card,2022.2.4,Win32,59.93048064,5f200a9ae4a314270ab24cff,64d2fd46c836a06233681665,64dc7d8c00e26c1ae086472b,,,,,,,decisionTrl,resources/DG.BMP,resources/DY.BMP,Door4,-0.307407414,0.094444452,1,0,0,1.8451,optionLeft,60,14830,7,12,0,12,0,1,,,,,,,,,,,,,,,,,,,,,,,,,,,,,,,,,,,,,,,
,,,,,,,,2023-08-16_08h41.29.541,HF_wild_card,2022.2.4,Win32,59.93048064,5f200a9ae4a314270ab24cff,64d2fd46c836a06233681665,64dc7d8c00e26c1ae086472b,,,,,,,ctch,resources/DY.BMP,resources/DR.BMP,Door3,-0.317592586,0.068518497,1,0,0,4.0944,optionLeft,70,14900,7,13,0,13,0,1,,,,,,,,,,,,,,,,,,,,,,,,,,,,,,,,,,,,,,,
,,,,,,,,2023-08-16_08h41.29.541,HF_wild_card,2022.2.4,Win32,59.93048064,5f200a9ae4a314270ab24cff,64d2fd46c836a06233681665,64dc7d8c00e26c1ae086472b,,,,,,,decisionTrl,resources/DR.BMP,resources/DBN.BMP,Door1,0.339814787,0.020370377,1,0,0,3.0988,optionRight,30,14930,7,14,0,14,0,1,,,,,,,,,,,,,,,,,,,,,,,,,,,,,,,,,,,,,,,
,,,,,,,,2023-08-16_08h41.29.541,HF_wild_card,2022.2.4,Win32,59.93048064,5f200a9ae4a314270ab24cff,64d2fd46c836a06233681665,64dc7d8c00e26c1ae086472b,,,,,,,ctch,resources/DR.BMP,resources/DY.BMP,Door3,0.319444444,0.062037044,1,0,0,4.045,optionRight,70,15000,7,15,0,15,0,1,,,,,,,,,,,,,,,,,,,,,,,,,,,,,,,,,,,,,,,
,,,,,,,,2023-08-16_08h41.29.541,HF_wild_card,2022.2.4,Win32,59.93048064,5f200a9ae4a314270ab24cff,64d2fd46c836a06233681665,64dc7d8c00e26c1ae086472b,,,,,,,ctch,resources/DBN.BMP,resources/DG.BMP,Door4,0.336111139,0.047222208,1,0,0,2.1965,optionRight,60,15060,7,16,0,16,0,1,,,,,,,,,,,,,,,,,,,,,,,,,,,,,,,,,,,,,,,
,,,,,,,,2023-08-16_08h41.29.541,HF_wild_card,2022.2.4,Win32,59.93048064,5f200a9ae4a314270ab24cff,64d2fd46c836a06233681665,64dc7d8c00e26c1ae086472b,,,,,,,decisionTrl,resources/DY.BMP,resources/DG.BMP,Door4,0.32685188,0.035185178,1,0,0,1.9619,optionRight,60,15120,7,17,0,17,0,1,,,,,,,,,,,,,,,,,,,,,,,,,,,,,,,,,,,,,,,
,,,,,,,,2023-08-16_08h41.29.541,HF_wild_card,2022.2.4,Win32,59.93048064,5f200a9ae4a314270ab24cff,64d2fd46c836a06233681665,64dc7d8c00e26c1ae086472b,,,,,,,ctch,resources/DY.BMP,resources/DR.BMP,Door3,-0.326851845,0.074999986,1,0,0,2.636,optionLeft,70,15190,7,18,0,18,0,1,,,,,,,,,,,,,,,,,,,,,,,,,,,,,,,,,,,,,,,
,,,,,,,,2023-08-16_08h41.29.541,HF_wild_card,2022.2.4,Win32,59.93048064,5f200a9ae4a314270ab24cff,64d2fd46c836a06233681665,64dc7d8c00e26c1ae086472b,,,,,,,decisionTrl,resources/DR.BMP,resources/DBN.BMP,Door1,0.337037122,0.083333333,1,0,0,1.7688,optionRight,30,15220,7,19,0,19,0,1,,,,,,,,,,,,,,,,,,,,,,,,,,,,,,,,,,,,,,,
,,,,,,,,2023-08-16_08h41.29.541,HF_wild_card,2022.2.4,Win32,59.93048064,5f200a9ae4a314270ab24cff,64d2fd46c836a06233681665,64dc7d8c00e26c1ae086472b,,,,,,,decisionTrl,resources/DBN.BMP,resources/DR.BMP,Door1,-0.311111097,0.100925905,1,0,0,1.765,optionLeft,30,15250,7,20,0,20,0,1,,,,,,,,,,,,,,,,,,,,,,,,,,,,,,,,,,,,,,,
,,,,,,,,2023-08-16_08h41.29.541,HF_wild_card,2022.2.4,Win32,59.93048064,5f200a9ae4a314270ab24cff,64d2fd46c836a06233681665,64dc7d8c00e26c1ae086472b,,,,,,,decisionTrl,resources/DBN.BMP,resources/DR.BMP,Door1,-0.350925905,0.099074081,1,0,0,1.3158,optionLeft,30,15280,7,21,0,21,0,1,,,,,,,,,,,,,,,,,,,,,,,,,,,,,,,,,,,,,,,
,,,,,,,,2023-08-16_08h41.29.541,HF_wild_card,2022.2.4,Win32,59.93048064,5f200a9ae4a314270ab24cff,64d2fd46c836a06233681665,64dc7d8c00e26c1ae086472b,,,,,,,decisionTrl,resources/DY.BMP,resources/DG.BMP,Door4,0.312962991,0.023148148,1,0,0,2.6015,optionRight,80,15360,7,22,0,22,0,1,,,,,,,,,,,,,,,,,,,,,,,,,,,,,,,,,,,,,,,
,,,,,,,,2023-08-16_08h41.29.541,HF_wild_card,2022.2.4,Win32,59.93048064,5f200a9ae4a314270ab24cff,64d2fd46c836a06233681665,64dc7d8c00e26c1ae086472b,,,,,,,decisionTrl,resources/DY.BMP,resources/DG.BMP,Door4,0.372222194,0.04074072,1,0,0,1.4949,optionRight,60,15420,7,23,0,23,0,1,,,,,,,,,,,,,,,,,,,,,,,,,,,,,,,,,,,,,,,
,,,,,,,,2023-08-16_08h41.29.541,HF_wild_card,2022.2.4,Win32,59.93048064,5f200a9ae4a314270ab24cff,64d2fd46c836a06233681665,64dc7d8c00e26c1ae086472b,,,,,,,ctch,resources/DY.BMP,resources/DR.BMP,Door3,-0.356481481,0.069444444,1,0,0,1.8822,optionLeft,70,15490,7,24,0,24,0,1,,,,,,,,,,,,,,,,,,,,,,,,,,,,,,,,,,,,,,,
,,,,,,,,2023-08-16_08h41.29.541,HF_wild_card,2022.2.4,Win32,59.93048064,5f200a9ae4a314270ab24cff,64d2fd46c836a06233681665,64dc7d8c00e26c1ae086472b,,,,,,,ctch,resources/DG.BMP,resources/DBN.BMP,Door4,-0.322222215,0.076851845,1,0,0,1.701,optionLeft,80,15570,7,25,0,25,0,1,,,,,,,,,,,,,,,,,,,,,,,,,,,,,,,,,,,,,,,
,,,,,,,,2023-08-16_08h41.29.541,HF_wild_card,2022.2.4,Win32,59.93048064,5f200a9ae4a314270ab24cff,64d2fd46c836a06233681665,64dc7d8c00e26c1ae086472b,,,,,,,decisionTrl,resources/DG.BMP,resources/DY.BMP,Door4,-0.298148155,0.084259245,1,0,0,1.4162,optionLeft,60,15630,7,26,0,26,0,1,,,,,,,,,,,,,,,,,,,,,,,,,,,,,,,,,,,,,,,
,,,,,,,,2023-08-16_08h41.29.541,HF_wild_card,2022.2.4,Win32,59.93048064,5f200a9ae4a314270ab24cff,64d2fd46c836a06233681665,64dc7d8c00e26c1ae086472b,,,,,,,decisionTrl,resources/DY.BMP,resources/DG.BMP,Door3,-0.327777757,0.062037044,1,0,0,1.602,optionLeft,70,15700,7,27,0,27,0,1,,,,,,,,,,,,,,,,,,,,,,,,,,,,,,,,,,,,,,,
,,,,,,,,2023-08-16_08h41.29.541,HF_wild_card,2022.2.4,Win32,59.93048064,5f200a9ae4a314270ab24cff,64d2fd46c836a06233681665,64dc7d8c00e26c1ae086472b,,,,,,,decisionTrl,resources/DR.BMP,resources/DBN.BMP,Door1,0.314814815,0.099999993,1,0,0,2.0987,optionRight,30,15730,7,28,0,28,0,1,,,,,,,,,,,,,,,,,,,,,,,,,,,,,,,,,,,,,,,
,,,,,,,,2023-08-16_08h41.29.541,HF_wild_card,2022.2.4,Win32,59.93048064,5f200a9ae4a314270ab24cff,64d2fd46c836a06233681665,64dc7d8c00e26c1ae086472b,,,,,,,decisionTrl,resources/DBN.BMP,resources/DR.BMP,Door1,-0.330555563,0.101851852,1,0,0,1.5495,optionLeft,30,15760,7,29,0,29,0,1,,,,,,,,,,,,,,,,,,,,,,,,,,,,,,,,,,,,,,,
,,,,,,,,2023-08-16_08h41.29.541,HF_wild_card,2022.2.4,Win32,59.93048064,5f200a9ae4a314270ab24cff,64d2fd46c836a06233681665,64dc7d8c00e26c1ae086472b,,,,,,,decisionTrl,resources/DG.BMP,resources/DY.BMP,Door4,-0.281481496,0.083333333,1,0,0,2.3993,optionLeft,60,15820,7,30,0,30,0,1,,,,,,,,,,,,,,,,,,,,,,,,,,,,,,,,,,,,,,,
,,,,,,,,2023-08-16_08h41.29.541,HF_wild_card,2022.2.4,Win32,59.93048064,5f200a9ae4a314270ab24cff,64d2fd46c836a06233681665,64dc7d8c00e26c1ae086472b,,,,,,,decisionTrl,resources/DG.BMP,resources/DY.BMP,Door4,-0.341666645,0.072222215,1,0,0,1.3825,optionLeft,80,15900,7,31,0,31,0,1,,,,,,,,,,,,,,,,,,,,,,,,,,,,,,,,,,,,,,,
,,,,,,,,2023-08-16_08h41.29.541,HF_wild_card,2022.2.4,Win32,59.93048064,5f200a9ae4a314270ab24cff,64d2fd46c836a06233681665,64dc7d8c00e26c1ae086472b,,,,,,,ctch,resources/DR.BMP,resources/DY.BMP,Door3,0.36018527,0.041666667,1,0,0,1.9623,optionRight,70,15970,7,32,0,32,0,1,,,,,,,,,,,,,,,,,,,,,,,,,,,,,,,,,,,,,,,
,,,,,,,,2023-08-16_08h41.29.541,HF_wild_card,2022.2.4,Win32,59.93048064,5f200a9ae4a314270ab24cff,64d2fd46c836a06233681665,64dc7d8c00e26c1ae086472b,,,,,,,ctch,resources/DBN.BMP,resources/DG.BMP,Door4,0.346296381,0.046296296,1,0,0,1.4149,optionRight,80,16050,7,33,0,33,0,1,,,,,,,,,,,,,,,,,,,,,,,,,,,,,,,,,,,,,,,
,,,,,,,,2023-08-16_08h41.29.541,HF_wild_card,2022.2.4,Win32,59.93048064,5f200a9ae4a314270ab24cff,64d2fd46c836a06233681665,64dc7d8c00e26c1ae086472b,,,,,,,decisionTrl,resources/DBN.BMP,resources/DR.BMP,Door1,-0.327777757,0.125925912,1,0,0,2.115,optionLeft,30,16080,7,34,0,34,0,1,,,,,,,,,,,,,,,,,,,,,,,,,,,,,,,,,,,,,,,
,,,,,,,,2023-08-16_08h41.29.541,HF_wild_card,2022.2.4,Win32,59.93048064,5f200a9ae4a314270ab24cff,64d2fd46c836a06233681665,64dc7d8c00e26c1ae086472b,,,,,,,decisionTrl,resources/DBN.BMP,resources/DR.BMP,Door1,-0.414814808,0.042592578,1,0,0,1.9289,optionLeft,30,16110,7,35,0,35,0,1,,,,,,,,,,,,,,,,,,,,,,,,,,,,,,,,,,,,,,,
,,,,,,,,2023-08-16_08h41.29.541,HF_wild_card,2022.2.4,Win32,59.93048064,5f200a9ae4a314270ab24cff,64d2fd46c836a06233681665,64dc7d8c00e26c1ae086472b,,,,,,,,,,,,,,,,,,,,,,,,,,6,0,6,0,1,,,,,,,,,,,,,,,,,,,,,,,,,,,,,,,,,,
,,,,,,,,2023-08-16_08h41.29.541,HF_wild_card,2022.2.4,Win32,59.93048064,5f200a9ae4a314270ab24cff,64d2fd46c836a06233681665,64dc7d8c00e26c1ae086472b,,,,,,,,,,,,,,,,,,,,,,,,,,,,,,,4,,,,,,,,,,,,,,,,,,,,,,,,,,,,,,,,,
,,,,,,,,2023-08-16_08h41.29.541,HF_wild_card,2022.2.4,Win32,59.93048064,5f200a9ae4a314270ab24cff,64d2fd46c836a06233681665,64dc7d8c00e26c1ae086472b,,,,,,,,,,,,,,,,,,,,,,,,,,,,,,,,,,,,,,,,,,,,,,,,,,,,,,,,,,,,,,,,
,,,,,,,,2023-08-16_08h41.29.541,HF_wild_card,2022.2.4,Win32,59.93048064,5f200a9ae4a314270ab24cff,64d2fd46c836a06233681665,64dc7d8c00e26c1ae086472b,,,,,,,,,,,,,,,,,,,,,,,,,,,,,,,,45,WC_extreme,resources/DP.BMP,0,0,0,0,1,,,,,,,,,,,,,,,,,,,,,,,,,
,,,,,,,,2023-08-16_08h41.29.541,HF_wild_card,2022.2.4,Win32,59.93048064,5f200a9ae4a314270ab24cff,64d2fd46c836a06233681665,64dc7d8c00e26c1ae086472b,,,,,,,,,,,,,,,,,,,,,,,,,,,,,,,,30,Door1,resources/DBN.BMP,1,0,1,0,1,,,,,,,,,,,,,,,,,,,,,,,,,
,,,,,,,,2023-08-16_08h41.29.541,HF_wild_card,2022.2.4,Win32,59.93048064,5f200a9ae4a314270ab24cff,64d2fd46c836a06233681665,64dc7d8c00e26c1ae086472b,,,,,,,,,,,,,,,,,,,,,,,,,,,,,,,,55,WC_nonExtreme,resources/DB.BMP,2,0,2,0,1,,,,,,,,,,,,,,,,,,,,,,,,,
,,,,,,,,2023-08-16_08h41.29.541,HF_wild_card,2022.2.4,Win32,59.93048064,5f200a9ae4a314270ab24cff,64d2fd46c836a06233681665,64dc7d8c00e26c1ae086472b,,,,,,,,,,,,,,,,,,,,,,,,,,,,,,,,70,Door3,resources/DY.BMP,3,0,3,0,1,,,,,,,,,,,,,,,,,,,,,,,,,
,,,,,,,,2023-08-16_08h41.29.541,HF_wild_card,2022.2.4,Win32,59.93048064,5f200a9ae4a314270ab24cff,64d2fd46c836a06233681665,64dc7d8c00e26c1ae086472b,,,,,,,,,,,,,,,,,,,,,,,,,,,,,,,,80,Door4,resources/DG.BMP,4,0,4,0,1,,,,,,,,,,,,,,,,,,,,,,,,,
,,,,,,,,2023-08-16_08h41.29.541,HF_wild_card,2022.2.4,Win32,59.93048064,5f200a9ae4a314270ab24cff,64d2fd46c836a06233681665,64dc7d8c00e26c1ae086472b,,,,,,,,,,,,,,,,,,,,,,,,,,,,,,,,20,Door2,resources/DR.BMP,5,0,5,0,1,,,,,,,,,,,,,,,,,,,,,,,,,
,,,,,,,,2023-08-16_08h41.29.541,HF_wild_card,2022.2.4,Win32,59.93048064,5f200a9ae4a314270ab24cff,64d2fd46c836a06233681665,64dc7d8c00e26c1ae086472b,,,,,,,,,,,,,,,,,,,,,,,,,,,,,,,,,,,,,,,,,,,,,,,,,,,,,,,,,,,,,,,,
