Condition,Low fixed image (Door1),Low risky image (Door2),High fixed image (Door3),High risky image (Door4),NonExtreme Wild Card 1,NonExtreme Wild Card 2,,date,expName,psychopyVersion,OS,frameRate,PROLIFIC_PID,STUDY_ID,SESSION_ID,mouse_2.x,mouse_2.y,mouse_2.leftButton,mouse_2.midButton,mouse_2.rightButton,mouse_2.clicked_name,Trial Type,Left Option Image,Right Option Image,Chosen Door,mouse.x,mouse.y,mouse.leftButton,mouse.midButton,mouse.rightButton,mouse.time,mouse.clicked_name,Feedback,Cumulative Reward,Block,trial.thisRepN,trial.thisTrialN,trial.thisN,trial.thisIndex,trial.ran,blocks.thisRepN,blocks.thisTrialN,blocks.thisN,blocks.thisIndex,blocks.ran,Money conversion,First Outcome Reported,Shown Door (First Outcome),Displayed Image (First Outcome),outcomes.thisRepN,outcomes.thisTrialN,outcomes.thisN,outcomes.thisIndex,outcomes.ran,judgments.thisRepN,judgments.thisTrialN,judgments.thisN,judgments.thisIndex,judgments.ran,freqMouse.x,freqMouse.y,freqMouse.leftButton,freqMouse.midButton,freqMouse.rightButton,freqMouse.clicked_name,trials.thisRepN,trials.thisTrialN,trials.thisN,trials.thisIndex,trials.ran,FQJ for first outcome,FQJ for second outcome,Shown Door,Displayed Image,judgBlock.thisRepN,judgBlock.thisTrialN,judgBlock.thisN,judgBlock.thisIndex,judgBlock.ran
2,resources/DG.BMP,resources/DB.BMP,resources/DBN.BMP,resources/DY.BMP,resources/DR.BMP,resources/DP.BMP,,2023-08-16_08h43.50.384,HF_wild_card,2022.2.4,Win32,60.0024001,6266ac01a2a15cce6ed5fba7,64d2fd46c836a06233681665,64dc7d38b52a5be980b5128a,,,,,,,,,,,,,,,,,,,,,,,,,,,,,,,,,,,,,,,,,,,,,,,,,,,,,,,,,,,,,,,,
,,,,,,,,2023-08-16_08h43.50.384,HF_wild_card,2022.2.4,Win32,60.0024001,6266ac01a2a15cce6ed5fba7,64d2fd46c836a06233681665,64dc7d38b52a5be980b5128a,0.005208333,-0.42578125,1,0,0,agree,,,,,,,,,,,,,,,,,,,,,,,,,,,,,,,,,,,,,,,,,,,,,,,,,,,,,,,,,,
,,,,,,,,2023-08-16_08h43.50.384,HF_wild_card,2022.2.4,Win32,60.0024001,6266ac01a2a15cce6ed5fba7,64d2fd46c836a06233681665,64dc7d38b52a5be980b5128a,,,,,,,,,,,,,,,,,,,,,,,,,,,,,,,,,,,,,,,,,,,,,,,,,,,,,,,,,,,,,,,,
,,,,,,,,2023-08-16_08h43.50.384,HF_wild_card,2022.2.4,Win32,60.0024001,6266ac01a2a15cce6ed5fba7,64d2fd46c836a06233681665,64dc7d38b52a5be980b5128a,,,,,,,decisionTrl,resources/DBN.BMP,resources/DY.BMP,Door3,-0.37890625,0.005208333,1,0,0,13.877,optionLeft,70,70,1,0,0,0,0,1,,,,,,,,,,,,,,,,,,,,,,,,,,,,,,,,,,,,,,,
,,,,,,,,2023-08-16_08h43.50.384,HF_wild_card,2022.2.4,Win32,60.0024001,6266ac01a2a15cce6ed5fba7,64d2fd46c836a06233681665,64dc7d38b52a5be980b5128a,,,,,,,sngl,resources/DB.BMP,resources/Empty.png,Door2,-0.375,-0.00390625,1,0,0,4.3217,optionLeft,40,110,1,1,0,1,0,1,,,,,,,,,,,,,,,,,,,,,,,,,,,,,,,,,,,,,,,
,,,,,,,,2023-08-16_08h43.50.384,HF_wild_card,2022.2.4,Win32,60.0024001,6266ac01a2a15cce6ed5fba7,64d2fd46c836a06233681665,64dc7d38b52a5be980b5128a,,,,,,,sngl,resources/DG.BMP,resources/Empty.png,Door1,-0.385416667,0.006510417,1,0,0,2.4402,optionLeft,30,140,1,2,0,2,0,1,,,,,,,,,,,,,,,,,,,,,,,,,,,,,,,,,,,,,,,
,,,,,,,,2023-08-16_08h43.50.384,HF_wild_card,2022.2.4,Win32,60.0024001,6266ac01a2a15cce6ed5fba7,64d2fd46c836a06233681665,64dc7d38b52a5be980b5128a,,,,,,,sngl,resources/DBN.BMP,resources/Empty.png,Door3,-0.395833333,0.005208333,1,0,0,2.1738,optionLeft,70,210,1,3,0,3,0,1,,,,,,,,,,,,,,,,,,,,,,,,,,,,,,,,,,,,,,,
,,,,,,,,2023-08-16_08h43.50.384,HF_wild_card,2022.2.4,Win32,60.0024001,6266ac01a2a15cce6ed5fba7,64d2fd46c836a06233681665,64dc7d38b52a5be980b5128a,,,,,,,decisionTrl,resources/DY.BMP,resources/DBN.BMP,Door3,0.41796875,0.032552083,1,0,0,8.3705,optionRight,70,280,1,4,0,4,0,1,,,,,,,,,,,,,,,,,,,,,,,,,,,,,,,,,,,,,,,
,,,,,,,,2023-08-16_08h43.50.384,HF_wild_card,2022.2.4,Win32,60.0024001,6266ac01a2a15cce6ed5fba7,64d2fd46c836a06233681665,64dc7d38b52a5be980b5128a,,,,,,,decisionTrl,resources/DY.BMP,resources/DBN.BMP,Door3,0.4140625,0.022135417,1,0,0,3.2935,optionRight,70,350,1,5,0,5,0,1,,,,,,,,,,,,,,,,,,,,,,,,,,,,,,,,,,,,,,,
,,,,,,,,2023-08-16_08h43.50.384,HF_wild_card,2022.2.4,Win32,60.0024001,6266ac01a2a15cce6ed5fba7,64d2fd46c836a06233681665,64dc7d38b52a5be980b5128a,,,,,,,ctch,resources/DG.BMP,resources/DY.BMP,Door4,0.428385417,0.002604167,1,0,0,7.0163,optionRight,60,410,1,6,0,6,0,1,,,,,,,,,,,,,,,,,,,,,,,,,,,,,,,,,,,,,,,
,,,,,,,,2023-08-16_08h43.50.384,HF_wild_card,2022.2.4,Win32,60.0024001,6266ac01a2a15cce6ed5fba7,64d2fd46c836a06233681665,64dc7d38b52a5be980b5128a,,,,,,,decisionTrl,resources/DBN.BMP,resources/DY.BMP,Door3,-0.4140625,0.03125,1,0,0,2.8739,optionLeft,70,480,1,7,0,7,0,1,,,,,,,,,,,,,,,,,,,,,,,,,,,,,,,,,,,,,,,
,,,,,,,,2023-08-16_08h43.50.384,HF_wild_card,2022.2.4,Win32,60.0024001,6266ac01a2a15cce6ed5fba7,64d2fd46c836a06233681665,64dc7d38b52a5be980b5128a,,,,,,,decisionTrl,resources/DB.BMP,resources/DG.BMP,Door1,0.428385417,-0.014322917,1,0,0,7.3785,optionRight,30,510,1,8,0,8,0,1,,,,,,,,,,,,,,,,,,,,,,,,,,,,,,,,,,,,,,,
,,,,,,,,2023-08-16_08h43.50.384,HF_wild_card,2022.2.4,Win32,60.0024001,6266ac01a2a15cce6ed5fba7,64d2fd46c836a06233681665,64dc7d38b52a5be980b5128a,,,,,,,ctch,resources/DB.BMP,resources/DBN.BMP,Door3,0.391927083,0.002604167,1,0,0,2.4497,optionRight,70,580,1,9,0,9,0,1,,,,,,,,,,,,,,,,,,,,,,,,,,,,,,,,,,,,,,,
,,,,,,,,2023-08-16_08h43.50.384,HF_wild_card,2022.2.4,Win32,60.0024001,6266ac01a2a15cce6ed5fba7,64d2fd46c836a06233681665,64dc7d38b52a5be980b5128a,,,,,,,decisionTrl,resources/DP.BMP,resources/DG.BMP,WildCard_NonEx,-0.391927083,-0.04296875,1,0,0,4.5635,optionLeft,45,625,1,10,0,10,0,1,,,,,,,,,,,,,,,,,,,,,,,,,,,,,,,,,,,,,,,
,,,,,,,,2023-08-16_08h43.50.384,HF_wild_card,2022.2.4,Win32,60.0024001,6266ac01a2a15cce6ed5fba7,64d2fd46c836a06233681665,64dc7d38b52a5be980b5128a,,,,,,,decisionTrl,resources/DB.BMP,resources/DG.BMP,Door2,-0.395833333,-0.014322917,1,0,0,3.1946,optionLeft,40,665,1,11,0,11,0,1,,,,,,,,,,,,,,,,,,,,,,,,,,,,,,,,,,,,,,,
,,,,,,,,2023-08-16_08h43.50.384,HF_wild_card,2022.2.4,Win32,60.0024001,6266ac01a2a15cce6ed5fba7,64d2fd46c836a06233681665,64dc7d38b52a5be980b5128a,,,,,,,decisionTrl,resources/DG.BMP,resources/DP.BMP,WildCard_NonEx,0.399739583,-0.055989583,1,0,0,3.3277,optionRight,45,710,1,12,0,12,0,1,,,,,,,,,,,,,,,,,,,,,,,,,,,,,,,,,,,,,,,
,,,,,,,,2023-08-16_08h43.50.384,HF_wild_card,2022.2.4,Win32,60.0024001,6266ac01a2a15cce6ed5fba7,64d2fd46c836a06233681665,64dc7d38b52a5be980b5128a,,,,,,,ctch,resources/DY.BMP,resources/DG.BMP,Door4,-0.38671875,-0.028645833,1,0,0,4.4419,optionLeft,80,790,1,13,0,13,0,1,,,,,,,,,,,,,,,,,,,,,,,,,,,,,,,,,,,,,,,
,,,,,,,,2023-08-16_08h43.50.384,HF_wild_card,2022.2.4,Win32,60.0024001,6266ac01a2a15cce6ed5fba7,64d2fd46c836a06233681665,64dc7d38b52a5be980b5128a,,,,,,,sngl,resources/Empty.png,resources/DY.BMP,Door4,0.454427083,0.002604167,1,0,0,2.1872,optionRight,60,850,1,14,0,14,0,1,,,,,,,,,,,,,,,,,,,,,,,,,,,,,,,,,,,,,,,
,,,,,,,,2023-08-16_08h43.50.384,HF_wild_card,2022.2.4,Win32,60.0024001,6266ac01a2a15cce6ed5fba7,64d2fd46c836a06233681665,64dc7d38b52a5be980b5128a,,,,,,,ctch,resources/DB.BMP,resources/DBN.BMP,Door2,-0.38671875,-0.014322917,1,0,0,5.4193,optionLeft,20,870,1,15,0,15,0,1,,,,,,,,,,,,,,,,,,,,,,,,,,,,,,,,,,,,,,,
,,,,,,,,2023-08-16_08h43.50.384,HF_wild_card,2022.2.4,Win32,60.0024001,6266ac01a2a15cce6ed5fba7,64d2fd46c836a06233681665,64dc7d38b52a5be980b5128a,,,,,,,decisionTrl,resources/DG.BMP,resources/DB.BMP,Door1,-0.364583333,-0.009114583,1,0,0,2.3356,optionLeft,30,900,1,16,0,16,0,1,,,,,,,,,,,,,,,,,,,,,,,,,,,,,,,,,,,,,,,
,,,,,,,,2023-08-16_08h43.50.384,HF_wild_card,2022.2.4,Win32,60.0024001,6266ac01a2a15cce6ed5fba7,64d2fd46c836a06233681665,64dc7d38b52a5be980b5128a,,,,,,,ctch,resources/DY.BMP,resources/DG.BMP,Door4,-0.364583333,-0.016927083,1,0,0,4.3933,optionLeft,60,960,1,17,0,17,0,1,,,,,,,,,,,,,,,,,,,,,,,,,,,,,,,,,,,,,,,
,,,,,,,,2023-08-16_08h43.50.384,HF_wild_card,2022.2.4,Win32,60.0024001,6266ac01a2a15cce6ed5fba7,64d2fd46c836a06233681665,64dc7d38b52a5be980b5128a,,,,,,,sngl,resources/Empty.png,resources/DG.BMP,Door1,0.436197917,-0.005208333,1,0,0,2.0939,optionRight,30,990,1,18,0,18,0,1,,,,,,,,,,,,,,,,,,,,,,,,,,,,,,,,,,,,,,,
,,,,,,,,2023-08-16_08h43.50.384,HF_wild_card,2022.2.4,Win32,60.0024001,6266ac01a2a15cce6ed5fba7,64d2fd46c836a06233681665,64dc7d38b52a5be980b5128a,,,,,,,ctch,resources/DG.BMP,resources/DY.BMP,Door4,0.428385417,-0.015625,1,0,0,3.6453,optionRight,80,1070,1,19,0,19,0,1,,,,,,,,,,,,,,,,,,,,,,,,,,,,,,,,,,,,,,,
,,,,,,,,2023-08-16_08h43.50.384,HF_wild_card,2022.2.4,Win32,60.0024001,6266ac01a2a15cce6ed5fba7,64d2fd46c836a06233681665,64dc7d38b52a5be980b5128a,,,,,,,decisionTrl,resources/DB.BMP,resources/DG.BMP,Door1,0.424479167,-0.009114583,1,0,0,2.5573,optionRight,30,1100,1,20,0,20,0,1,,,,,,,,,,,,,,,,,,,,,,,,,,,,,,,,,,,,,,,
,,,,,,,,2023-08-16_08h43.50.384,HF_wild_card,2022.2.4,Win32,60.0024001,6266ac01a2a15cce6ed5fba7,64d2fd46c836a06233681665,64dc7d38b52a5be980b5128a,,,,,,,ctch,resources/DBN.BMP,resources/DB.BMP,Door3,-0.412760417,0.03125,1,0,0,4.4646,optionLeft,70,1170,1,21,0,21,0,1,,,,,,,,,,,,,,,,,,,,,,,,,,,,,,,,,,,,,,,
,,,,,,,,2023-08-16_08h43.50.384,HF_wild_card,2022.2.4,Win32,60.0024001,6266ac01a2a15cce6ed5fba7,64d2fd46c836a06233681665,64dc7d38b52a5be980b5128a,,,,,,,decisionTrl,resources/DG.BMP,resources/DB.BMP,Door2,0.404947917,-0.01171875,1,0,0,7.0526,optionRight,40,1210,1,22,0,22,0,1,,,,,,,,,,,,,,,,,,,,,,,,,,,,,,,,,,,,,,,
,,,,,,,,2023-08-16_08h43.50.384,HF_wild_card,2022.2.4,Win32,60.0024001,6266ac01a2a15cce6ed5fba7,64d2fd46c836a06233681665,64dc7d38b52a5be980b5128a,,,,,,,decisionTrl,resources/DG.BMP,resources/DB.BMP,Door2,0.390625,-0.005208333,1,0,0,2.1915,optionRight,20,1230,1,23,0,23,0,1,,,,,,,,,,,,,,,,,,,,,,,,,,,,,,,,,,,,,,,
,,,,,,,,2023-08-16_08h43.50.384,HF_wild_card,2022.2.4,Win32,60.0024001,6266ac01a2a15cce6ed5fba7,64d2fd46c836a06233681665,64dc7d38b52a5be980b5128a,,,,,,,decisionTrl,resources/DBN.BMP,resources/DP.BMP,WildCard_NonEx,0.407552083,-0.05078125,1,0,0,3.53,optionRight,45,1275,1,24,0,24,0,1,,,,,,,,,,,,,,,,,,,,,,,,,,,,,,,,,,,,,,,
,,,,,,,,2023-08-16_08h43.50.384,HF_wild_card,2022.2.4,Win32,60.0024001,6266ac01a2a15cce6ed5fba7,64d2fd46c836a06233681665,64dc7d38b52a5be980b5128a,,,,,,,decisionTrl,resources/DY.BMP,resources/DP.BMP,Door4,-0.397135417,-0.022135417,1,0,0,2.4649,optionLeft,60,1335,1,25,0,25,0,1,,,,,,,,,,,,,,,,,,,,,,,,,,,,,,,,,,,,,,,
,,,,,,,,2023-08-16_08h43.50.384,HF_wild_card,2022.2.4,Win32,60.0024001,6266ac01a2a15cce6ed5fba7,64d2fd46c836a06233681665,64dc7d38b52a5be980b5128a,,,,,,,sngl,resources/Empty.png,resources/DP.BMP,WildCard_NonEx,0.399739583,-0.036458333,1,0,0,1.8495,optionRight,55,1390,1,26,0,26,0,1,,,,,,,,,,,,,,,,,,,,,,,,,,,,,,,,,,,,,,,
,,,,,,,,2023-08-16_08h43.50.384,HF_wild_card,2022.2.4,Win32,60.0024001,6266ac01a2a15cce6ed5fba7,64d2fd46c836a06233681665,64dc7d38b52a5be980b5128a,,,,,,,sngl,resources/Empty.png,resources/DBN.BMP,Door3,0.43359375,0.006510417,1,0,0,1.7483,optionRight,70,1460,1,27,0,27,0,1,,,,,,,,,,,,,,,,,,,,,,,,,,,,,,,,,,,,,,,
,,,,,,,,2023-08-16_08h43.50.384,HF_wild_card,2022.2.4,Win32,60.0024001,6266ac01a2a15cce6ed5fba7,64d2fd46c836a06233681665,64dc7d38b52a5be980b5128a,,,,,,,decisionTrl,resources/DP.BMP,resources/DY.BMP,Door4,0.40625,-0.037760417,1,0,0,6.5105,optionRight,60,1520,1,28,0,28,0,1,,,,,,,,,,,,,,,,,,,,,,,,,,,,,,,,,,,,,,,
,,,,,,,,2023-08-16_08h43.50.384,HF_wild_card,2022.2.4,Win32,60.0024001,6266ac01a2a15cce6ed5fba7,64d2fd46c836a06233681665,64dc7d38b52a5be980b5128a,,,,,,,sngl,resources/DP.BMP,resources/Empty.png,WildCard_NonEx,-0.3984375,-0.044270833,1,0,0,2.1942,optionLeft,45,1565,1,29,0,29,0,1,,,,,,,,,,,,,,,,,,,,,,,,,,,,,,,,,,,,,,,
,,,,,,,,2023-08-16_08h43.50.384,HF_wild_card,2022.2.4,Win32,60.0024001,6266ac01a2a15cce6ed5fba7,64d2fd46c836a06233681665,64dc7d38b52a5be980b5128a,,,,,,,sngl,resources/DY.BMP,resources/Empty.png,Door4,-0.38671875,-0.01953125,1,0,0,1.7109,optionLeft,80,1645,1,30,0,30,0,1,,,,,,,,,,,,,,,,,,,,,,,,,,,,,,,,,,,,,,,
,,,,,,,,2023-08-16_08h43.50.384,HF_wild_card,2022.2.4,Win32,60.0024001,6266ac01a2a15cce6ed5fba7,64d2fd46c836a06233681665,64dc7d38b52a5be980b5128a,,,,,,,decisionTrl,resources/DB.BMP,resources/DP.BMP,WildCard_NonEx,0.391927083,-0.024739583,1,0,0,2.8236,optionRight,45,1690,1,31,0,31,0,1,,,,,,,,,,,,,,,,,,,,,,,,,,,,,,,,,,,,,,,
,,,,,,,,2023-08-16_08h43.50.384,HF_wild_card,2022.2.4,Win32,60.0024001,6266ac01a2a15cce6ed5fba7,64d2fd46c836a06233681665,64dc7d38b52a5be980b5128a,,,,,,,decisionTrl,resources/DBN.BMP,resources/DY.BMP,Door3,-0.390625,0.015625,1,0,0,2.5468,optionLeft,70,1760,1,32,0,32,0,1,,,,,,,,,,,,,,,,,,,,,,,,,,,,,,,,,,,,,,,
,,,,,,,,2023-08-16_08h43.50.384,HF_wild_card,2022.2.4,Win32,60.0024001,6266ac01a2a15cce6ed5fba7,64d2fd46c836a06233681665,64dc7d38b52a5be980b5128a,,,,,,,decisionTrl,resources/DG.BMP,resources/DB.BMP,Door1,-0.359375,-0.022135417,1,0,0,5.3028,optionLeft,30,1790,1,33,0,33,0,1,,,,,,,,,,,,,,,,,,,,,,,,,,,,,,,,,,,,,,,
,,,,,,,,2023-08-16_08h43.50.384,HF_wild_card,2022.2.4,Win32,60.0024001,6266ac01a2a15cce6ed5fba7,64d2fd46c836a06233681665,64dc7d38b52a5be980b5128a,,,,,,,sngl,resources/Empty.png,resources/DP.BMP,WildCard_NonEx,0.412760417,-0.046875,1,0,0,2.3237,optionRight,45,1835,1,34,0,34,0,1,,,,,,,,,,,,,,,,,,,,,,,,,,,,,,,,,,,,,,,
,,,,,,,,2023-08-16_08h43.50.384,HF_wild_card,2022.2.4,Win32,60.0024001,6266ac01a2a15cce6ed5fba7,64d2fd46c836a06233681665,64dc7d38b52a5be980b5128a,,,,,,,ctch,resources/DBN.BMP,resources/DB.BMP,Door3,-0.3828125,0.020833333,1,0,0,3.1444,optionLeft,70,1905,1,35,0,35,0,1,,,,,,,,,,,,,,,,,,,,,,,,,,,,,,,,,,,,,,,
,,,,,,,,2023-08-16_08h43.50.384,HF_wild_card,2022.2.4,Win32,60.0024001,6266ac01a2a15cce6ed5fba7,64d2fd46c836a06233681665,64dc7d38b52a5be980b5128a,,,,,,,sngl,resources/DP.BMP,resources/Empty.png,WildCard_NonEx,-0.390625,-0.006510417,1,0,0,2.124,optionLeft,55,1960,1,36,0,36,0,1,,,,,,,,,,,,,,,,,,,,,,,,,,,,,,,,,,,,,,,
,,,,,,,,2023-08-16_08h43.50.384,HF_wild_card,2022.2.4,Win32,60.0024001,6266ac01a2a15cce6ed5fba7,64d2fd46c836a06233681665,64dc7d38b52a5be980b5128a,,,,,,,decisionTrl,resources/DP.BMP,resources/DB.BMP,WildCard_NonEx,-0.365885417,-0.016927083,1,0,0,3.7454,optionLeft,55,2015,1,37,0,37,0,1,,,,,,,,,,,,,,,,,,,,,,,,,,,,,,,,,,,,,,,
,,,,,,,,2023-08-16_08h43.50.384,HF_wild_card,2022.2.4,Win32,60.0024001,6266ac01a2a15cce6ed5fba7,64d2fd46c836a06233681665,64dc7d38b52a5be980b5128a,,,,,,,decisionTrl,resources/DBN.BMP,resources/DY.BMP,Door3,-0.377604167,0.001302083,1,0,0,4.7638,optionLeft,70,2085,1,38,0,38,0,1,,,,,,,,,,,,,,,,,,,,,,,,,,,,,,,,,,,,,,,
,,,,,,,,2023-08-16_08h43.50.384,HF_wild_card,2022.2.4,Win32,60.0024001,6266ac01a2a15cce6ed5fba7,64d2fd46c836a06233681665,64dc7d38b52a5be980b5128a,,,,,,,decisionTrl,resources/DY.BMP,resources/DBN.BMP,Door3,0.421875,0.018229167,1,0,0,2.8143,optionRight,70,2155,1,39,0,39,0,1,,,,,,,,,,,,,,,,,,,,,,,,,,,,,,,,,,,,,,,
,,,,,,,,2023-08-16_08h43.50.384,HF_wild_card,2022.2.4,Win32,60.0024001,6266ac01a2a15cce6ed5fba7,64d2fd46c836a06233681665,64dc7d38b52a5be980b5128a,,,,,,,decisionTrl,resources/DY.BMP,resources/DBN.BMP,Door3,0.43359375,0.048177083,1,0,0,2.5952,optionRight,70,2225,1,40,0,40,0,1,,,,,,,,,,,,,,,,,,,,,,,,,,,,,,,,,,,,,,,
,,,,,,,,2023-08-16_08h43.50.384,HF_wild_card,2022.2.4,Win32,60.0024001,6266ac01a2a15cce6ed5fba7,64d2fd46c836a06233681665,64dc7d38b52a5be980b5128a,,,,,,,sngl,resources/Empty.png,resources/DB.BMP,Door2,0.401041667,0,1,0,0,2.4534,optionRight,20,2245,1,41,0,41,0,1,,,,,,,,,,,,,,,,,,,,,,,,,,,,,,,,,,,,,,,
,,,,,,,,2023-08-16_08h43.50.384,HF_wild_card,2022.2.4,Win32,60.0024001,6266ac01a2a15cce6ed5fba7,64d2fd46c836a06233681665,64dc7d38b52a5be980b5128a,,,,,,,decisionTrl,resources/DP.BMP,resources/DBN.BMP,Door3,0.376302083,0.018229167,1,0,0,2.9451,optionRight,70,2315,1,42,0,42,0,1,,,,,,,,,,,,,,,,,,,,,,,,,,,,,,,,,,,,,,,
,,,,,,,,2023-08-16_08h43.50.384,HF_wild_card,2022.2.4,Win32,60.0024001,6266ac01a2a15cce6ed5fba7,64d2fd46c836a06233681665,64dc7d38b52a5be980b5128a,,,,,,,decisionTrl,resources/DB.BMP,resources/DG.BMP,Door1,0.365885417,-0.036458333,1,0,0,4.3423,optionRight,30,2345,1,43,0,43,0,1,,,,,,,,,,,,,,,,,,,,,,,,,,,,,,,,,,,,,,,
,,,,,,,,2023-08-16_08h43.50.384,HF_wild_card,2022.2.4,Win32,60.0024001,6266ac01a2a15cce6ed5fba7,64d2fd46c836a06233681665,64dc7d38b52a5be980b5128a,,,,,,,,,,,,,,,,,,,,,,,,,,0,0,0,0,1,,,,,,,,,,,,,,,,,,,,,,,,,,,,,,,,,,
,,,,,,,,2023-08-16_08h43.50.384,HF_wild_card,2022.2.4,Win32,60.0024001,6266ac01a2a15cce6ed5fba7,64d2fd46c836a06233681665,64dc7d38b52a5be980b5128a,,,,,,,ctch,resources/DY.BMP,resources/DG.BMP,Door4,-0.368489583,-0.026041667,1,0,0,4.6571,optionLeft,80,2425,2,0,0,0,0,1,,,,,,,,,,,,,,,,,,,,,,,,,,,,,,,,,,,,,,,
,,,,,,,,2023-08-16_08h43.50.384,HF_wild_card,2022.2.4,Win32,60.0024001,6266ac01a2a15cce6ed5fba7,64d2fd46c836a06233681665,64dc7d38b52a5be980b5128a,,,,,,,decisionTrl,resources/DP.BMP,resources/DG.BMP,WildCard_NonEx,-0.369791667,-0.061197917,1,0,0,3.2313,optionLeft,45,2470,2,1,0,1,0,1,,,,,,,,,,,,,,,,,,,,,,,,,,,,,,,,,,,,,,,
,,,,,,,,2023-08-16_08h43.50.384,HF_wild_card,2022.2.4,Win32,60.0024001,6266ac01a2a15cce6ed5fba7,64d2fd46c836a06233681665,64dc7d38b52a5be980b5128a,,,,,,,decisionTrl,resources/DB.BMP,resources/DG.BMP,Door1,0.424479167,-0.01953125,1,0,0,3.2811,optionRight,30,2500,2,2,0,2,0,1,,,,,,,,,,,,,,,,,,,,,,,,,,,,,,,,,,,,,,,
,,,,,,,,2023-08-16_08h43.50.384,HF_wild_card,2022.2.4,Win32,60.0024001,6266ac01a2a15cce6ed5fba7,64d2fd46c836a06233681665,64dc7d38b52a5be980b5128a,,,,,,,sngl,resources/DB.BMP,resources/Empty.png,Door2,-0.395833333,-0.006510417,1,0,0,2.5941,optionLeft,20,2520,2,3,0,3,0,1,,,,,,,,,,,,,,,,,,,,,,,,,,,,,,,,,,,,,,,
,,,,,,,,2023-08-16_08h43.50.384,HF_wild_card,2022.2.4,Win32,60.0024001,6266ac01a2a15cce6ed5fba7,64d2fd46c836a06233681665,64dc7d38b52a5be980b5128a,,,,,,,sngl,resources/DG.BMP,resources/Empty.png,Door1,-0.389322917,-0.022135417,1,0,0,1.6285,optionLeft,30,2550,2,4,0,4,0,1,,,,,,,,,,,,,,,,,,,,,,,,,,,,,,,,,,,,,,,
,,,,,,,,2023-08-16_08h43.50.384,HF_wild_card,2022.2.4,Win32,60.0024001,6266ac01a2a15cce6ed5fba7,64d2fd46c836a06233681665,64dc7d38b52a5be980b5128a,,,,,,,decisionTrl,resources/DP.BMP,resources/DY.BMP,Door4,0.430989583,-0.014322917,1,0,0,2.6974,optionRight,80,2630,2,5,0,5,0,1,,,,,,,,,,,,,,,,,,,,,,,,,,,,,,,,,,,,,,,
,,,,,,,,2023-08-16_08h43.50.384,HF_wild_card,2022.2.4,Win32,60.0024001,6266ac01a2a15cce6ed5fba7,64d2fd46c836a06233681665,64dc7d38b52a5be980b5128a,,,,,,,decisionTrl,resources/DBN.BMP,resources/DY.BMP,Door4,0.4140625,-0.01171875,1,0,0,2.5302,optionRight,60,2690,2,6,0,6,0,1,,,,,,,,,,,,,,,,,,,,,,,,,,,,,,,,,,,,,,,
,,,,,,,,2023-08-16_08h43.50.384,HF_wild_card,2022.2.4,Win32,60.0024001,6266ac01a2a15cce6ed5fba7,64d2fd46c836a06233681665,64dc7d38b52a5be980b5128a,,,,,,,decisionTrl,resources/DG.BMP,resources/DB.BMP,Door1,-0.404947917,-0.01953125,1,0,0,2.8483,optionLeft,30,2720,2,7,0,7,0,1,,,,,,,,,,,,,,,,,,,,,,,,,,,,,,,,,,,,,,,
,,,,,,,,2023-08-16_08h43.50.384,HF_wild_card,2022.2.4,Win32,60.0024001,6266ac01a2a15cce6ed5fba7,64d2fd46c836a06233681665,64dc7d38b52a5be980b5128a,,,,,,,decisionTrl,resources/DG.BMP,resources/DB.BMP,Door2,0.40625,-0.015625,1,0,0,4.181,optionRight,40,2760,2,8,0,8,0,1,,,,,,,,,,,,,,,,,,,,,,,,,,,,,,,,,,,,,,,
,,,,,,,,2023-08-16_08h43.50.384,HF_wild_card,2022.2.4,Win32,60.0024001,6266ac01a2a15cce6ed5fba7,64d2fd46c836a06233681665,64dc7d38b52a5be980b5128a,,,,,,,decisionTrl,resources/DB.BMP,resources/DG.BMP,Door2,-0.424479167,-0.022135417,1,0,0,2.4276,optionLeft,20,2780,2,9,0,9,0,1,,,,,,,,,,,,,,,,,,,,,,,,,,,,,,,,,,,,,,,
,,,,,,,,2023-08-16_08h43.50.384,HF_wild_card,2022.2.4,Win32,60.0024001,6266ac01a2a15cce6ed5fba7,64d2fd46c836a06233681665,64dc7d38b52a5be980b5128a,,,,,,,decisionTrl,resources/DY.BMP,resources/DBN.BMP,Door4,-0.373697917,-0.005208333,1,0,0,2.2472,optionLeft,60,2840,2,10,0,10,0,1,,,,,,,,,,,,,,,,,,,,,,,,,,,,,,,,,,,,,,,
,,,,,,,,2023-08-16_08h43.50.384,HF_wild_card,2022.2.4,Win32,60.0024001,6266ac01a2a15cce6ed5fba7,64d2fd46c836a06233681665,64dc7d38b52a5be980b5128a,,,,,,,sngl,resources/Empty.png,resources/DB.BMP,Door2,0.427083333,-0.010416667,1,0,0,2.0623,optionRight,40,2880,2,11,0,11,0,1,,,,,,,,,,,,,,,,,,,,,,,,,,,,,,,,,,,,,,,
,,,,,,,,2023-08-16_08h43.50.384,HF_wild_card,2022.2.4,Win32,60.0024001,6266ac01a2a15cce6ed5fba7,64d2fd46c836a06233681665,64dc7d38b52a5be980b5128a,,,,,,,sngl,resources/Empty.png,resources/DP.BMP,WildCard_NonEx,0.430989583,-0.045572917,1,0,0,1.9413,optionRight,45,2925,2,12,0,12,0,1,,,,,,,,,,,,,,,,,,,,,,,,,,,,,,,,,,,,,,,
,,,,,,,,2023-08-16_08h43.50.384,HF_wild_card,2022.2.4,Win32,60.0024001,6266ac01a2a15cce6ed5fba7,64d2fd46c836a06233681665,64dc7d38b52a5be980b5128a,,,,,,,sngl,resources/DY.BMP,resources/Empty.png,Door4,-0.372395833,-0.009114583,1,0,0,2.069,optionLeft,60,2985,2,13,0,13,0,1,,,,,,,,,,,,,,,,,,,,,,,,,,,,,,,,,,,,,,,
,,,,,,,,2023-08-16_08h43.50.384,HF_wild_card,2022.2.4,Win32,60.0024001,6266ac01a2a15cce6ed5fba7,64d2fd46c836a06233681665,64dc7d38b52a5be980b5128a,,,,,,,ctch,resources/DBN.BMP,resources/DB.BMP,Door3,-0.376302083,0.016927083,1,0,0,1.8602,optionLeft,70,3055,2,14,0,14,0,1,,,,,,,,,,,,,,,,,,,,,,,,,,,,,,,,,,,,,,,
,,,,,,,,2023-08-16_08h43.50.384,HF_wild_card,2022.2.4,Win32,60.0024001,6266ac01a2a15cce6ed5fba7,64d2fd46c836a06233681665,64dc7d38b52a5be980b5128a,,,,,,,decisionTrl,resources/DP.BMP,resources/DBN.BMP,Door3,0.436197917,-0.002604167,1,0,0,2.231,optionRight,70,3125,2,15,0,15,0,1,,,,,,,,,,,,,,,,,,,,,,,,,,,,,,,,,,,,,,,
,,,,,,,,2023-08-16_08h43.50.384,HF_wild_card,2022.2.4,Win32,60.0024001,6266ac01a2a15cce6ed5fba7,64d2fd46c836a06233681665,64dc7d38b52a5be980b5128a,,,,,,,decisionTrl,resources/DY.BMP,resources/DBN.BMP,Door4,-0.360677083,-0.02734375,1,0,0,7.1448,optionLeft,60,3185,2,16,0,16,0,1,,,,,,,,,,,,,,,,,,,,,,,,,,,,,,,,,,,,,,,
,,,,,,,,2023-08-16_08h43.50.384,HF_wild_card,2022.2.4,Win32,60.0024001,6266ac01a2a15cce6ed5fba7,64d2fd46c836a06233681665,64dc7d38b52a5be980b5128a,,,,,,,decisionTrl,resources/DB.BMP,resources/DG.BMP,Door1,0.411458333,-0.01953125,1,0,0,2.3792,optionRight,30,3215,2,17,0,17,0,1,,,,,,,,,,,,,,,,,,,,,,,,,,,,,,,,,,,,,,,
,,,,,,,,2023-08-16_08h43.50.384,HF_wild_card,2022.2.4,Win32,60.0024001,6266ac01a2a15cce6ed5fba7,64d2fd46c836a06233681665,64dc7d38b52a5be980b5128a,,,,,,,decisionTrl,resources/DG.BMP,resources/DB.BMP,Door1,-0.37109375,-0.024739583,1,0,0,2.7936,optionLeft,30,3245,2,18,0,18,0,1,,,,,,,,,,,,,,,,,,,,,,,,,,,,,,,,,,,,,,,
,,,,,,,,2023-08-16_08h43.50.384,HF_wild_card,2022.2.4,Win32,60.0024001,6266ac01a2a15cce6ed5fba7,64d2fd46c836a06233681665,64dc7d38b52a5be980b5128a,,,,,,,ctch,resources/DBN.BMP,resources/DB.BMP,Door3,-0.391927083,0.02734375,1,0,0,1.8769,optionLeft,70,3315,2,19,0,19,0,1,,,,,,,,,,,,,,,,,,,,,,,,,,,,,,,,,,,,,,,
,,,,,,,,2023-08-16_08h43.50.384,HF_wild_card,2022.2.4,Win32,60.0024001,6266ac01a2a15cce6ed5fba7,64d2fd46c836a06233681665,64dc7d38b52a5be980b5128a,,,,,,,decisionTrl,resources/DBN.BMP,resources/DY.BMP,Door3,-0.34765625,0.01171875,1,0,0,2.3298,optionLeft,70,3385,2,20,0,20,0,1,,,,,,,,,,,,,,,,,,,,,,,,,,,,,,,,,,,,,,,
,,,,,,,,2023-08-16_08h43.50.384,HF_wild_card,2022.2.4,Win32,60.0024001,6266ac01a2a15cce6ed5fba7,64d2fd46c836a06233681665,64dc7d38b52a5be980b5128a,,,,,,,decisionTrl,resources/DY.BMP,resources/DBN.BMP,Door3,0.41015625,-0.00390625,1,0,0,6.4115,optionRight,70,3455,2,21,0,21,0,1,,,,,,,,,,,,,,,,,,,,,,,,,,,,,,,,,,,,,,,
,,,,,,,,2023-08-16_08h43.50.384,HF_wild_card,2022.2.4,Win32,60.0024001,6266ac01a2a15cce6ed5fba7,64d2fd46c836a06233681665,64dc7d38b52a5be980b5128a,,,,,,,sngl,resources/Empty.png,resources/DBN.BMP,Door3,0.41796875,-0.013020833,1,0,0,1.9003,optionRight,70,3525,2,22,0,22,0,1,,,,,,,,,,,,,,,,,,,,,,,,,,,,,,,,,,,,,,,
,,,,,,,,2023-08-16_08h43.50.384,HF_wild_card,2022.2.4,Win32,60.0024001,6266ac01a2a15cce6ed5fba7,64d2fd46c836a06233681665,64dc7d38b52a5be980b5128a,,,,,,,ctch,resources/DY.BMP,resources/DG.BMP,Door4,-0.384114583,-0.020833333,1,0,0,2.8962,optionLeft,60,3585,2,23,0,23,0,1,,,,,,,,,,,,,,,,,,,,,,,,,,,,,,,,,,,,,,,
,,,,,,,,2023-08-16_08h43.50.384,HF_wild_card,2022.2.4,Win32,60.0024001,6266ac01a2a15cce6ed5fba7,64d2fd46c836a06233681665,64dc7d38b52a5be980b5128a,,,,,,,sngl,resources/Empty.png,resources/DP.BMP,WildCard_NonEx,0.41796875,-0.046875,1,0,0,1.9618,optionRight,55,3640,2,24,0,24,0,1,,,,,,,,,,,,,,,,,,,,,,,,,,,,,,,,,,,,,,,
,,,,,,,,2023-08-16_08h43.50.384,HF_wild_card,2022.2.4,Win32,60.0024001,6266ac01a2a15cce6ed5fba7,64d2fd46c836a06233681665,64dc7d38b52a5be980b5128a,,,,,,,ctch,resources/DG.BMP,resources/DY.BMP,Door4,0.48046875,-0.022135417,1,0,0,2.1779,optionRight,80,3720,2,25,0,25,0,1,,,,,,,,,,,,,,,,,,,,,,,,,,,,,,,,,,,,,,,
,,,,,,,,2023-08-16_08h43.50.384,HF_wild_card,2022.2.4,Win32,60.0024001,6266ac01a2a15cce6ed5fba7,64d2fd46c836a06233681665,64dc7d38b52a5be980b5128a,,,,,,,decisionTrl,resources/DBN.BMP,resources/DY.BMP,Door3,-0.3671875,-0.001302083,1,0,0,2.4615,optionLeft,70,3790,2,26,0,26,0,1,,,,,,,,,,,,,,,,,,,,,,,,,,,,,,,,,,,,,,,
,,,,,,,,2023-08-16_08h43.50.384,HF_wild_card,2022.2.4,Win32,60.0024001,6266ac01a2a15cce6ed5fba7,64d2fd46c836a06233681665,64dc7d38b52a5be980b5128a,,,,,,,decisionTrl,resources/DBN.BMP,resources/DY.BMP,Door3,-0.3671875,0.010416667,1,0,0,2.1941,optionLeft,70,3860,2,27,0,27,0,1,,,,,,,,,,,,,,,,,,,,,,,,,,,,,,,,,,,,,,,
,,,,,,,,2023-08-16_08h43.50.384,HF_wild_card,2022.2.4,Win32,60.0024001,6266ac01a2a15cce6ed5fba7,64d2fd46c836a06233681665,64dc7d38b52a5be980b5128a,,,,,,,ctch,resources/DB.BMP,resources/DBN.BMP,Door3,0.45703125,0.014322917,1,0,0,2.0271,optionRight,70,3930,2,28,0,28,0,1,,,,,,,,,,,,,,,,,,,,,,,,,,,,,,,,,,,,,,,
,,,,,,,,2023-08-16_08h43.50.384,HF_wild_card,2022.2.4,Win32,60.0024001,6266ac01a2a15cce6ed5fba7,64d2fd46c836a06233681665,64dc7d38b52a5be980b5128a,,,,,,,decisionTrl,resources/DG.BMP,resources/DP.BMP,WildCard_NonEx,0.397135417,-0.04296875,1,0,0,2.345,optionRight,45,3975,2,29,0,29,0,1,,,,,,,,,,,,,,,,,,,,,,,,,,,,,,,,,,,,,,,
,,,,,,,,2023-08-16_08h43.50.384,HF_wild_card,2022.2.4,Win32,60.0024001,6266ac01a2a15cce6ed5fba7,64d2fd46c836a06233681665,64dc7d38b52a5be980b5128a,,,,,,,sngl,resources/DBN.BMP,resources/Empty.png,Door3,-0.360677083,-0.028645833,1,0,0,1.9266,optionLeft,70,4045,2,30,0,30,0,1,,,,,,,,,,,,,,,,,,,,,,,,,,,,,,,,,,,,,,,
,,,,,,,,2023-08-16_08h43.50.384,HF_wild_card,2022.2.4,Win32,60.0024001,6266ac01a2a15cce6ed5fba7,64d2fd46c836a06233681665,64dc7d38b52a5be980b5128a,,,,,,,decisionTrl,resources/DP.BMP,resources/DB.BMP,WildCard_NonEx,-0.391927083,-0.026041667,1,0,0,2.0593,optionLeft,45,4090,2,31,0,31,0,1,,,,,,,,,,,,,,,,,,,,,,,,,,,,,,,,,,,,,,,
,,,,,,,,2023-08-16_08h43.50.384,HF_wild_card,2022.2.4,Win32,60.0024001,6266ac01a2a15cce6ed5fba7,64d2fd46c836a06233681665,64dc7d38b52a5be980b5128a,,,,,,,ctch,resources/DG.BMP,resources/DY.BMP,Door4,0.447916667,-0.026041667,1,0,0,1.8554,optionRight,60,4150,2,32,0,32,0,1,,,,,,,,,,,,,,,,,,,,,,,,,,,,,,,,,,,,,,,
,,,,,,,,2023-08-16_08h43.50.384,HF_wild_card,2022.2.4,Win32,60.0024001,6266ac01a2a15cce6ed5fba7,64d2fd46c836a06233681665,64dc7d38b52a5be980b5128a,,,,,,,sngl,resources/DP.BMP,resources/Empty.png,WildCard_NonEx,-0.390625,-0.033854167,1,0,0,1.5617,optionLeft,45,4195,2,33,0,33,0,1,,,,,,,,,,,,,,,,,,,,,,,,,,,,,,,,,,,,,,,
,,,,,,,,2023-08-16_08h43.50.384,HF_wild_card,2022.2.4,Win32,60.0024001,6266ac01a2a15cce6ed5fba7,64d2fd46c836a06233681665,64dc7d38b52a5be980b5128a,,,,,,,ctch,resources/DB.BMP,resources/DBN.BMP,Door3,0.438802083,-0.018229167,1,0,0,2.1805,optionRight,70,4265,2,34,0,34,0,1,,,,,,,,,,,,,,,,,,,,,,,,,,,,,,,,,,,,,,,
,,,,,,,,2023-08-16_08h43.50.384,HF_wild_card,2022.2.4,Win32,60.0024001,6266ac01a2a15cce6ed5fba7,64d2fd46c836a06233681665,64dc7d38b52a5be980b5128a,,,,,,,decisionTrl,resources/DB.BMP,resources/DG.BMP,Door2,-0.296875,-0.026041667,1,0,0,5.711,optionLeft,40,4305,2,35,0,35,0,1,,,,,,,,,,,,,,,,,,,,,,,,,,,,,,,,,,,,,,,
,,,,,,,,2023-08-16_08h43.50.384,HF_wild_card,2022.2.4,Win32,60.0024001,6266ac01a2a15cce6ed5fba7,64d2fd46c836a06233681665,64dc7d38b52a5be980b5128a,,,,,,,sngl,resources/Empty.png,resources/DG.BMP,Door1,0.430989583,-0.05859375,1,0,0,1.692,optionRight,30,4335,2,36,0,36,0,1,,,,,,,,,,,,,,,,,,,,,,,,,,,,,,,,,,,,,,,
,,,,,,,,2023-08-16_08h43.50.384,HF_wild_card,2022.2.4,Win32,60.0024001,6266ac01a2a15cce6ed5fba7,64d2fd46c836a06233681665,64dc7d38b52a5be980b5128a,,,,,,,decisionTrl,resources/DBN.BMP,resources/DP.BMP,Door3,-0.341145833,-0.0078125,1,0,0,2.0947,optionLeft,70,4405,2,37,0,37,0,1,,,,,,,,,,,,,,,,,,,,,,,,,,,,,,,,,,,,,,,
,,,,,,,,2023-08-16_08h43.50.384,HF_wild_card,2022.2.4,Win32,60.0024001,6266ac01a2a15cce6ed5fba7,64d2fd46c836a06233681665,64dc7d38b52a5be980b5128a,,,,,,,decisionTrl,resources/DG.BMP,resources/DB.BMP,Door2,0.399739583,-0.03125,1,0,0,4.9429,optionRight,20,4425,2,38,0,38,0,1,,,,,,,,,,,,,,,,,,,,,,,,,,,,,,,,,,,,,,,
,,,,,,,,2023-08-16_08h43.50.384,HF_wild_card,2022.2.4,Win32,60.0024001,6266ac01a2a15cce6ed5fba7,64d2fd46c836a06233681665,64dc7d38b52a5be980b5128a,,,,,,,decisionTrl,resources/DB.BMP,resources/DP.BMP,WildCard_NonEx,0.40234375,-0.053385417,1,0,0,1.8623,optionRight,45,4470,2,39,0,39,0,1,,,,,,,,,,,,,,,,,,,,,,,,,,,,,,,,,,,,,,,
,,,,,,,,2023-08-16_08h43.50.384,HF_wild_card,2022.2.4,Win32,60.0024001,6266ac01a2a15cce6ed5fba7,64d2fd46c836a06233681665,64dc7d38b52a5be980b5128a,,,,,,,decisionTrl,resources/DY.BMP,resources/DP.BMP,Door4,-0.345052083,-0.03125,1,0,0,2.1263,optionLeft,60,4530,2,40,0,40,0,1,,,,,,,,,,,,,,,,,,,,,,,,,,,,,,,,,,,,,,,
,,,,,,,,2023-08-16_08h43.50.384,HF_wild_card,2022.2.4,Win32,60.0024001,6266ac01a2a15cce6ed5fba7,64d2fd46c836a06233681665,64dc7d38b52a5be980b5128a,,,,,,,sngl,resources/DP.BMP,resources/Empty.png,WildCard_NonEx,-0.361979167,-0.041666667,1,0,0,1.6785,optionLeft,55,4585,2,41,0,41,0,1,,,,,,,,,,,,,,,,,,,,,,,,,,,,,,,,,,,,,,,
,,,,,,,,2023-08-16_08h43.50.384,HF_wild_card,2022.2.4,Win32,60.0024001,6266ac01a2a15cce6ed5fba7,64d2fd46c836a06233681665,64dc7d38b52a5be980b5128a,,,,,,,sngl,resources/Empty.png,resources/DY.BMP,Door4,0.415364583,-0.0234375,1,0,0,1.4274,optionRight,80,4665,2,42,0,42,0,1,,,,,,,,,,,,,,,,,,,,,,,,,,,,,,,,,,,,,,,
,,,,,,,,2023-08-16_08h43.50.384,HF_wild_card,2022.2.4,Win32,60.0024001,6266ac01a2a15cce6ed5fba7,64d2fd46c836a06233681665,64dc7d38b52a5be980b5128a,,,,,,,decisionTrl,resources/DY.BMP,resources/DBN.BMP,Door3,0.368489583,0.0078125,1,0,0,2.9262,optionRight,70,4735,2,43,0,43,0,1,,,,,,,,,,,,,,,,,,,,,,,,,,,,,,,,,,,,,,,
,,,,,,,,2023-08-16_08h43.50.384,HF_wild_card,2022.2.4,Win32,60.0024001,6266ac01a2a15cce6ed5fba7,64d2fd46c836a06233681665,64dc7d38b52a5be980b5128a,,,,,,,,,,,,,,,,,,,,,,,,,,1,0,1,0,1,,,,,,,,,,,,,,,,,,,,,,,,,,,,,,,,,,
,,,,,,,,2023-08-16_08h43.50.384,HF_wild_card,2022.2.4,Win32,60.0024001,6266ac01a2a15cce6ed5fba7,64d2fd46c836a06233681665,64dc7d38b52a5be980b5128a,,,,,,,decisionTrl,resources/DBN.BMP,resources/DY.BMP,Door4,0.446614583,-0.033854167,1,0,0,5.9398,optionRight,80,4815,3,0,0,0,0,1,,,,,,,,,,,,,,,,,,,,,,,,,,,,,,,,,,,,,,,
,,,,,,,,2023-08-16_08h43.50.384,HF_wild_card,2022.2.4,Win32,60.0024001,6266ac01a2a15cce6ed5fba7,64d2fd46c836a06233681665,64dc7d38b52a5be980b5128a,,,,,,,decisionTrl,resources/DY.BMP,resources/DBN.BMP,Door4,-0.368489583,-0.022135417,1,0,0,1.97,optionLeft,80,4895,3,1,0,1,0,1,,,,,,,,,,,,,,,,,,,,,,,,,,,,,,,,,,,,,,,
,,,,,,,,2023-08-16_08h43.50.384,HF_wild_card,2022.2.4,Win32,60.0024001,6266ac01a2a15cce6ed5fba7,64d2fd46c836a06233681665,64dc7d38b52a5be980b5128a,,,,,,,sngl,resources/DY.BMP,resources/Empty.png,Door4,-0.373697917,-0.029947917,1,0,0,1.7223,optionLeft,80,4975,3,2,0,2,0,1,,,,,,,,,,,,,,,,,,,,,,,,,,,,,,,,,,,,,,,
,,,,,,,,2023-08-16_08h43.50.384,HF_wild_card,2022.2.4,Win32,60.0024001,6266ac01a2a15cce6ed5fba7,64d2fd46c836a06233681665,64dc7d38b52a5be980b5128a,,,,,,,decisionTrl,resources/DY.BMP,resources/DBN.BMP,Door4,-0.380208333,-0.013020833,1,0,0,1.5114,optionLeft,60,5035,3,3,0,3,0,1,,,,,,,,,,,,,,,,,,,,,,,,,,,,,,,,,,,,,,,
,,,,,,,,2023-08-16_08h43.50.384,HF_wild_card,2022.2.4,Win32,60.0024001,6266ac01a2a15cce6ed5fba7,64d2fd46c836a06233681665,64dc7d38b52a5be980b5128a,,,,,,,sngl,resources/DBN.BMP,resources/Empty.png,Door3,-0.341145833,0.01953125,1,0,0,1.4748,optionLeft,70,5105,3,4,0,4,0,1,,,,,,,,,,,,,,,,,,,,,,,,,,,,,,,,,,,,,,,
,,,,,,,,2023-08-16_08h43.50.384,HF_wild_card,2022.2.4,Win32,60.0024001,6266ac01a2a15cce6ed5fba7,64d2fd46c836a06233681665,64dc7d38b52a5be980b5128a,,,,,,,ctch,resources/DB.BMP,resources/DBN.BMP,Door3,0.434895833,0.0078125,1,0,0,1.6258,optionRight,70,5175,3,5,0,5,0,1,,,,,,,,,,,,,,,,,,,,,,,,,,,,,,,,,,,,,,,
,,,,,,,,2023-08-16_08h43.50.384,HF_wild_card,2022.2.4,Win32,60.0024001,6266ac01a2a15cce6ed5fba7,64d2fd46c836a06233681665,64dc7d38b52a5be980b5128a,,,,,,,decisionTrl,resources/DB.BMP,resources/DG.BMP,Door1,0.40234375,-0.00390625,1,0,0,2.5106,optionRight,30,5205,3,6,0,6,0,1,,,,,,,,,,,,,,,,,,,,,,,,,,,,,,,,,,,,,,,
,,,,,,,,2023-08-16_08h43.50.384,HF_wild_card,2022.2.4,Win32,60.0024001,6266ac01a2a15cce6ed5fba7,64d2fd46c836a06233681665,64dc7d38b52a5be980b5128a,,,,,,,decisionTrl,resources/DP.BMP,resources/DB.BMP,WildCard_NonEx,-0.377604167,-0.029947917,1,0,0,2.0781,optionLeft,45,5250,3,7,0,7,0,1,,,,,,,,,,,,,,,,,,,,,,,,,,,,,,,,,,,,,,,
,,,,,,,,2023-08-16_08h43.50.384,HF_wild_card,2022.2.4,Win32,60.0024001,6266ac01a2a15cce6ed5fba7,64d2fd46c836a06233681665,64dc7d38b52a5be980b5128a,,,,,,,sngl,resources/DG.BMP,resources/Empty.png,Door1,-0.322916667,-0.0234375,1,0,0,1.4094,optionLeft,30,5280,3,8,0,8,0,1,,,,,,,,,,,,,,,,,,,,,,,,,,,,,,,,,,,,,,,
,,,,,,,,2023-08-16_08h43.50.384,HF_wild_card,2022.2.4,Win32,60.0024001,6266ac01a2a15cce6ed5fba7,64d2fd46c836a06233681665,64dc7d38b52a5be980b5128a,,,,,,,sngl,resources/Empty.png,resources/DB.BMP,Door2,0.38671875,0.0078125,1,0,0,1.5946,optionRight,20,5300,3,9,0,9,0,1,,,,,,,,,,,,,,,,,,,,,,,,,,,,,,,,,,,,,,,
,,,,,,,,2023-08-16_08h43.50.384,HF_wild_card,2022.2.4,Win32,60.0024001,6266ac01a2a15cce6ed5fba7,64d2fd46c836a06233681665,64dc7d38b52a5be980b5128a,,,,,,,sngl,resources/Empty.png,resources/DG.BMP,Door1,0.4453125,-0.00390625,1,0,0,1.5112,optionRight,30,5330,3,10,0,10,0,1,,,,,,,,,,,,,,,,,,,,,,,,,,,,,,,,,,,,,,,
,,,,,,,,2023-08-16_08h43.50.384,HF_wild_card,2022.2.4,Win32,60.0024001,6266ac01a2a15cce6ed5fba7,64d2fd46c836a06233681665,64dc7d38b52a5be980b5128a,,,,,,,decisionTrl,resources/DBN.BMP,resources/DP.BMP,Door3,-0.345052083,-0.037760417,1,0,0,1.5445,optionLeft,70,5400,3,11,0,11,0,1,,,,,,,,,,,,,,,,,,,,,,,,,,,,,,,,,,,,,,,
,,,,,,,,2023-08-16_08h43.50.384,HF_wild_card,2022.2.4,Win32,60.0024001,6266ac01a2a15cce6ed5fba7,64d2fd46c836a06233681665,64dc7d38b52a5be980b5128a,,,,,,,sngl,resources/DP.BMP,resources/Empty.png,WildCard_NonEx,-0.33984375,-0.009114583,1,0,0,1.693,optionLeft,55,5455,3,12,0,12,0,1,,,,,,,,,,,,,,,,,,,,,,,,,,,,,,,,,,,,,,,
,,,,,,,,2023-08-16_08h43.50.384,HF_wild_card,2022.2.4,Win32,60.0024001,6266ac01a2a15cce6ed5fba7,64d2fd46c836a06233681665,64dc7d38b52a5be980b5128a,,,,,,,decisionTrl,resources/DY.BMP,resources/DBN.BMP,Door3,0.428385417,0.024739583,1,0,0,4.3773,optionRight,70,5525,3,13,0,13,0,1,,,,,,,,,,,,,,,,,,,,,,,,,,,,,,,,,,,,,,,
,,,,,,,,2023-08-16_08h43.50.384,HF_wild_card,2022.2.4,Win32,60.0024001,6266ac01a2a15cce6ed5fba7,64d2fd46c836a06233681665,64dc7d38b52a5be980b5128a,,,,,,,decisionTrl,resources/DG.BMP,resources/DB.BMP,Door1,-0.36328125,-0.040364583,1,0,0,1.8277,optionLeft,30,5555,3,14,0,14,0,1,,,,,,,,,,,,,,,,,,,,,,,,,,,,,,,,,,,,,,,
,,,,,,,,2023-08-16_08h43.50.384,HF_wild_card,2022.2.4,Win32,60.0024001,6266ac01a2a15cce6ed5fba7,64d2fd46c836a06233681665,64dc7d38b52a5be980b5128a,,,,,,,decisionTrl,resources/DBN.BMP,resources/DY.BMP,Door3,-0.342447917,-0.022135417,1,0,0,3.1929,optionLeft,70,5625,3,15,0,15,0,1,,,,,,,,,,,,,,,,,,,,,,,,,,,,,,,,,,,,,,,
,,,,,,,,2023-08-16_08h43.50.384,HF_wild_card,2022.2.4,Win32,60.0024001,6266ac01a2a15cce6ed5fba7,64d2fd46c836a06233681665,64dc7d38b52a5be980b5128a,,,,,,,decisionTrl,resources/DG.BMP,resources/DB.BMP,Door1,-0.3515625,-0.024739583,1,0,0,1.7767,optionLeft,30,5655,3,16,0,16,0,1,,,,,,,,,,,,,,,,,,,,,,,,,,,,,,,,,,,,,,,
,,,,,,,,2023-08-16_08h43.50.384,HF_wild_card,2022.2.4,Win32,60.0024001,6266ac01a2a15cce6ed5fba7,64d2fd46c836a06233681665,64dc7d38b52a5be980b5128a,,,,,,,ctch,resources/DBN.BMP,resources/DB.BMP,Door3,-0.37890625,-0.015625,1,0,0,1.644,optionLeft,70,5725,3,17,0,17,0,1,,,,,,,,,,,,,,,,,,,,,,,,,,,,,,,,,,,,,,,
,,,,,,,,2023-08-16_08h43.50.384,HF_wild_card,2022.2.4,Win32,60.0024001,6266ac01a2a15cce6ed5fba7,64d2fd46c836a06233681665,64dc7d38b52a5be980b5128a,,,,,,,sngl,resources/DB.BMP,resources/Empty.png,Door2,-0.34375,-0.041666667,1,0,0,1.7955,optionLeft,40,5765,3,18,0,18,0,1,,,,,,,,,,,,,,,,,,,,,,,,,,,,,,,,,,,,,,,
,,,,,,,,2023-08-16_08h43.50.384,HF_wild_card,2022.2.4,Win32,60.0024001,6266ac01a2a15cce6ed5fba7,64d2fd46c836a06233681665,64dc7d38b52a5be980b5128a,,,,,,,decisionTrl,resources/DG.BMP,resources/DP.BMP,WildCard_NonEx,0.423177083,-0.040364583,1,0,0,1.846,optionRight,55,5820,3,19,0,19,0,1,,,,,,,,,,,,,,,,,,,,,,,,,,,,,,,,,,,,,,,
,,,,,,,,2023-08-16_08h43.50.384,HF_wild_card,2022.2.4,Win32,60.0024001,6266ac01a2a15cce6ed5fba7,64d2fd46c836a06233681665,64dc7d38b52a5be980b5128a,,,,,,,decisionTrl,resources/DY.BMP,resources/DBN.BMP,Door4,-0.356770833,-0.02734375,1,0,0,4.3292,optionLeft,60,5880,3,20,0,20,0,1,,,,,,,,,,,,,,,,,,,,,,,,,,,,,,,,,,,,,,,
,,,,,,,,2023-08-16_08h43.50.384,HF_wild_card,2022.2.4,Win32,60.0024001,6266ac01a2a15cce6ed5fba7,64d2fd46c836a06233681665,64dc7d38b52a5be980b5128a,,,,,,,sngl,resources/Empty.png,resources/DY.BMP,Door4,0.411458333,-0.022135417,1,0,0,1.4959,optionRight,60,5940,3,21,0,21,0,1,,,,,,,,,,,,,,,,,,,,,,,,,,,,,,,,,,,,,,,
,,,,,,,,2023-08-16_08h43.50.384,HF_wild_card,2022.2.4,Win32,60.0024001,6266ac01a2a15cce6ed5fba7,64d2fd46c836a06233681665,64dc7d38b52a5be980b5128a,,,,,,,sngl,resources/Empty.png,resources/DP.BMP,WildCard_NonEx,0.420572917,-0.028645833,1,0,0,1.4122,optionRight,55,5995,3,22,0,22,0,1,,,,,,,,,,,,,,,,,,,,,,,,,,,,,,,,,,,,,,,
,,,,,,,,2023-08-16_08h43.50.384,HF_wild_card,2022.2.4,Win32,60.0024001,6266ac01a2a15cce6ed5fba7,64d2fd46c836a06233681665,64dc7d38b52a5be980b5128a,,,,,,,sngl,resources/Empty.png,resources/DP.BMP,WildCard_NonEx,0.434895833,-0.01171875,1,0,0,1.7961,optionRight,45,6040,3,23,0,23,0,1,,,,,,,,,,,,,,,,,,,,,,,,,,,,,,,,,,,,,,,
,,,,,,,,2023-08-16_08h43.50.384,HF_wild_card,2022.2.4,Win32,60.0024001,6266ac01a2a15cce6ed5fba7,64d2fd46c836a06233681665,64dc7d38b52a5be980b5128a,,,,,,,decisionTrl,resources/DG.BMP,resources/DB.BMP,Door1,-0.346354167,-0.010416667,1,0,0,1.6628,optionLeft,30,6070,3,24,0,24,0,1,,,,,,,,,,,,,,,,,,,,,,,,,,,,,,,,,,,,,,,
,,,,,,,,2023-08-16_08h43.50.384,HF_wild_card,2022.2.4,Win32,60.0024001,6266ac01a2a15cce6ed5fba7,64d2fd46c836a06233681665,64dc7d38b52a5be980b5128a,,,,,,,decisionTrl,resources/DG.BMP,resources/DB.BMP,Door1,-0.326822917,-0.010416667,1,0,0,1.846,optionLeft,30,6100,3,25,0,25,0,1,,,,,,,,,,,,,,,,,,,,,,,,,,,,,,,,,,,,,,,
,,,,,,,,2023-08-16_08h43.50.384,HF_wild_card,2022.2.4,Win32,60.0024001,6266ac01a2a15cce6ed5fba7,64d2fd46c836a06233681665,64dc7d38b52a5be980b5128a,,,,,,,decisionTrl,resources/DY.BMP,resources/DP.BMP,Door4,-0.369791667,-0.015625,1,0,0,1.9789,optionLeft,60,6160,3,26,0,26,0,1,,,,,,,,,,,,,,,,,,,,,,,,,,,,,,,,,,,,,,,
,,,,,,,,2023-08-16_08h43.50.384,HF_wild_card,2022.2.4,Win32,60.0024001,6266ac01a2a15cce6ed5fba7,64d2fd46c836a06233681665,64dc7d38b52a5be980b5128a,,,,,,,decisionTrl,resources/DB.BMP,resources/DP.BMP,WildCard_NonEx,0.381510417,-0.03125,1,0,0,4.9611,optionRight,45,6205,3,27,0,27,0,1,,,,,,,,,,,,,,,,,,,,,,,,,,,,,,,,,,,,,,,
,,,,,,,,2023-08-16_08h43.50.384,HF_wild_card,2022.2.4,Win32,60.0024001,6266ac01a2a15cce6ed5fba7,64d2fd46c836a06233681665,64dc7d38b52a5be980b5128a,,,,,,,ctch,resources/DG.BMP,resources/DY.BMP,Door4,0.421875,-0.01171875,1,0,0,1.8448,optionRight,60,6265,3,28,0,28,0,1,,,,,,,,,,,,,,,,,,,,,,,,,,,,,,,,,,,,,,,
,,,,,,,,2023-08-16_08h43.50.384,HF_wild_card,2022.2.4,Win32,60.0024001,6266ac01a2a15cce6ed5fba7,64d2fd46c836a06233681665,64dc7d38b52a5be980b5128a,,,,,,,decisionTrl,resources/DBN.BMP,resources/DY.BMP,Door3,-0.346354167,0.002604167,1,0,0,1.4755,optionLeft,70,6335,3,29,0,29,0,1,,,,,,,,,,,,,,,,,,,,,,,,,,,,,,,,,,,,,,,
,,,,,,,,2023-08-16_08h43.50.384,HF_wild_card,2022.2.4,Win32,60.0024001,6266ac01a2a15cce6ed5fba7,64d2fd46c836a06233681665,64dc7d38b52a5be980b5128a,,,,,,,decisionTrl,resources/DP.BMP,resources/DG.BMP,WildCard_NonEx,-0.317708333,-0.022135417,1,0,0,1.5929,optionLeft,55,6390,3,30,0,30,0,1,,,,,,,,,,,,,,,,,,,,,,,,,,,,,,,,,,,,,,,
,,,,,,,,2023-08-16_08h43.50.384,HF_wild_card,2022.2.4,Win32,60.0024001,6266ac01a2a15cce6ed5fba7,64d2fd46c836a06233681665,64dc7d38b52a5be980b5128a,,,,,,,ctch,resources/DG.BMP,resources/DY.BMP,Door4,0.3828125,-0.01953125,1,0,0,2.1782,optionRight,60,6450,3,31,0,31,0,1,,,,,,,,,,,,,,,,,,,,,,,,,,,,,,,,,,,,,,,
,,,,,,,,2023-08-16_08h43.50.384,HF_wild_card,2022.2.4,Win32,60.0024001,6266ac01a2a15cce6ed5fba7,64d2fd46c836a06233681665,64dc7d38b52a5be980b5128a,,,,,,,sngl,resources/DP.BMP,resources/Empty.png,WildCard_NonEx,-0.36328125,-0.009114583,1,0,0,1.9785,optionLeft,45,6495,3,32,0,32,0,1,,,,,,,,,,,,,,,,,,,,,,,,,,,,,,,,,,,,,,,
,,,,,,,,2023-08-16_08h43.50.384,HF_wild_card,2022.2.4,Win32,60.0024001,6266ac01a2a15cce6ed5fba7,64d2fd46c836a06233681665,64dc7d38b52a5be980b5128a,,,,,,,ctch,resources/DBN.BMP,resources/DB.BMP,Door3,-0.35546875,0,1,0,0,2.5384,optionLeft,70,6565,3,33,0,33,0,1,,,,,,,,,,,,,,,,,,,,,,,,,,,,,,,,,,,,,,,
,,,,,,,,2023-08-16_08h43.50.384,HF_wild_card,2022.2.4,Win32,60.0024001,6266ac01a2a15cce6ed5fba7,64d2fd46c836a06233681665,64dc7d38b52a5be980b5128a,,,,,,,ctch,resources/DY.BMP,resources/DG.BMP,Door4,-0.391927083,-0.002604167,1,0,0,2.1766,optionLeft,60,6625,3,34,0,34,0,1,,,,,,,,,,,,,,,,,,,,,,,,,,,,,,,,,,,,,,,
,,,,,,,,2023-08-16_08h43.50.384,HF_wild_card,2022.2.4,Win32,60.0024001,6266ac01a2a15cce6ed5fba7,64d2fd46c836a06233681665,64dc7d38b52a5be980b5128a,,,,,,,decisionTrl,resources/DB.BMP,resources/DG.BMP,Door2,-0.346354167,-0.005208333,1,0,0,3.1775,optionLeft,40,6665,3,35,0,35,0,1,,,,,,,,,,,,,,,,,,,,,,,,,,,,,,,,,,,,,,,
,,,,,,,,2023-08-16_08h43.50.384,HF_wild_card,2022.2.4,Win32,60.0024001,6266ac01a2a15cce6ed5fba7,64d2fd46c836a06233681665,64dc7d38b52a5be980b5128a,,,,,,,sngl,resources/Empty.png,resources/DBN.BMP,Door3,0.40625,0.01171875,1,0,0,1.6103,optionRight,70,6735,3,36,0,36,0,1,,,,,,,,,,,,,,,,,,,,,,,,,,,,,,,,,,,,,,,
,,,,,,,,2023-08-16_08h43.50.384,HF_wild_card,2022.2.4,Win32,60.0024001,6266ac01a2a15cce6ed5fba7,64d2fd46c836a06233681665,64dc7d38b52a5be980b5128a,,,,,,,decisionTrl,resources/DB.BMP,resources/DG.BMP,Door2,-0.37890625,-0.044270833,1,0,0,1.8919,optionLeft,20,6755,3,37,0,37,0,1,,,,,,,,,,,,,,,,,,,,,,,,,,,,,,,,,,,,,,,
,,,,,,,,2023-08-16_08h43.50.384,HF_wild_card,2022.2.4,Win32,60.0024001,6266ac01a2a15cce6ed5fba7,64d2fd46c836a06233681665,64dc7d38b52a5be980b5128a,,,,,,,ctch,resources/DY.BMP,resources/DG.BMP,Door4,-0.3671875,-0.020833333,1,0,0,1.5614,optionLeft,60,6815,3,38,0,38,0,1,,,,,,,,,,,,,,,,,,,,,,,,,,,,,,,,,,,,,,,
,,,,,,,,2023-08-16_08h43.50.384,HF_wild_card,2022.2.4,Win32,60.0024001,6266ac01a2a15cce6ed5fba7,64d2fd46c836a06233681665,64dc7d38b52a5be980b5128a,,,,,,,decisionTrl,resources/DBN.BMP,resources/DY.BMP,Door3,-0.348958333,-0.005208333,1,0,0,1.8919,optionLeft,70,6885,3,39,0,39,0,1,,,,,,,,,,,,,,,,,,,,,,,,,,,,,,,,,,,,,,,
,,,,,,,,2023-08-16_08h43.50.384,HF_wild_card,2022.2.4,Win32,60.0024001,6266ac01a2a15cce6ed5fba7,64d2fd46c836a06233681665,64dc7d38b52a5be980b5128a,,,,,,,decisionTrl,resources/DB.BMP,resources/DG.BMP,Door1,0.35546875,-0.002604167,1,0,0,2.4612,optionRight,30,6915,3,40,0,40,0,1,,,,,,,,,,,,,,,,,,,,,,,,,,,,,,,,,,,,,,,
,,,,,,,,2023-08-16_08h43.50.384,HF_wild_card,2022.2.4,Win32,60.0024001,6266ac01a2a15cce6ed5fba7,64d2fd46c836a06233681665,64dc7d38b52a5be980b5128a,,,,,,,ctch,resources/DB.BMP,resources/DBN.BMP,Door3,0.44140625,-0.005208333,1,0,0,1.6952,optionRight,70,6985,3,41,0,41,0,1,,,,,,,,,,,,,,,,,,,,,,,,,,,,,,,,,,,,,,,
,,,,,,,,2023-08-16_08h43.50.384,HF_wild_card,2022.2.4,Win32,60.0024001,6266ac01a2a15cce6ed5fba7,64d2fd46c836a06233681665,64dc7d38b52a5be980b5128a,,,,,,,decisionTrl,resources/DP.BMP,resources/DY.BMP,Door4,0.489583333,-0.036458333,1,0,0,1.777,optionRight,60,7045,3,42,0,42,0,1,,,,,,,,,,,,,,,,,,,,,,,,,,,,,,,,,,,,,,,
,,,,,,,,2023-08-16_08h43.50.384,HF_wild_card,2022.2.4,Win32,60.0024001,6266ac01a2a15cce6ed5fba7,64d2fd46c836a06233681665,64dc7d38b52a5be980b5128a,,,,,,,decisionTrl,resources/DP.BMP,resources/DBN.BMP,Door3,0.432291667,0,1,0,0,2.5585,optionRight,70,7115,3,43,0,43,0,1,,,,,,,,,,,,,,,,,,,,,,,,,,,,,,,,,,,,,,,
,,,,,,,,2023-08-16_08h43.50.384,HF_wild_card,2022.2.4,Win32,60.0024001,6266ac01a2a15cce6ed5fba7,64d2fd46c836a06233681665,64dc7d38b52a5be980b5128a,,,,,,,,,,,,,,,,,,,,,,,,,,2,0,2,0,1,,,,,,,,,,,,,,,,,,,,,,,,,,,,,,,,,,
,,,,,,,,2023-08-16_08h43.50.384,HF_wild_card,2022.2.4,Win32,60.0024001,6266ac01a2a15cce6ed5fba7,64d2fd46c836a06233681665,64dc7d38b52a5be980b5128a,,,,,,,sngl,resources/Empty.png,resources/DR.BMP,WildCard_Ex,0.438802083,-0.045572917,1,0,0,3.2357,optionRight,55,7170,4,0,0,0,0,1,,,,,,,,,,,,,,,,,,,,,,,,,,,,,,,,,,,,,,,
,,,,,,,,2023-08-16_08h43.50.384,HF_wild_card,2022.2.4,Win32,60.0024001,6266ac01a2a15cce6ed5fba7,64d2fd46c836a06233681665,64dc7d38b52a5be980b5128a,,,,,,,decisionTrl,resources/DB.BMP,resources/DG.BMP,Door1,0.40625,-0.040364583,1,0,0,2.8422,optionRight,30,7200,4,1,0,1,0,1,,,,,,,,,,,,,,,,,,,,,,,,,,,,,,,,,,,,,,,
,,,,,,,,2023-08-16_08h43.50.384,HF_wild_card,2022.2.4,Win32,60.0024001,6266ac01a2a15cce6ed5fba7,64d2fd46c836a06233681665,64dc7d38b52a5be980b5128a,,,,,,,decisionTrl,resources/DBN.BMP,resources/DY.BMP,Door4,0.403645833,-0.01953125,1,0,0,3.2927,optionRight,80,7280,4,2,0,2,0,1,,,,,,,,,,,,,,,,,,,,,,,,,,,,,,,,,,,,,,,
,,,,,,,,2023-08-16_08h43.50.384,HF_wild_card,2022.2.4,Win32,60.0024001,6266ac01a2a15cce6ed5fba7,64d2fd46c836a06233681665,64dc7d38b52a5be980b5128a,,,,,,,decisionTrl,resources/DBN.BMP,resources/DY.BMP,Door4,0.477864583,-0.001302083,1,0,0,1.6584,optionRight,60,7340,4,3,0,3,0,1,,,,,,,,,,,,,,,,,,,,,,,,,,,,,,,,,,,,,,,
,,,,,,,,2023-08-16_08h43.50.384,HF_wild_card,2022.2.4,Win32,60.0024001,6266ac01a2a15cce6ed5fba7,64d2fd46c836a06233681665,64dc7d38b52a5be980b5128a,,,,,,,ctch,resources/DG.BMP,resources/DY.BMP,Door4,0.407552083,-0.014322917,1,0,0,1.8917,optionRight,80,7420,4,4,0,4,0,1,,,,,,,,,,,,,,,,,,,,,,,,,,,,,,,,,,,,,,,
,,,,,,,,2023-08-16_08h43.50.384,HF_wild_card,2022.2.4,Win32,60.0024001,6266ac01a2a15cce6ed5fba7,64d2fd46c836a06233681665,64dc7d38b52a5be980b5128a,,,,,,,decisionTrl,resources/DG.BMP,resources/DR.BMP,WildCard_Ex,0.4140625,0,1,0,0,2.0041,optionRight,55,7475,4,5,0,5,0,1,,,,,,,,,,,,,,,,,,,,,,,,,,,,,,,,,,,,,,,
,,,,,,,,2023-08-16_08h43.50.384,HF_wild_card,2022.2.4,Win32,60.0024001,6266ac01a2a15cce6ed5fba7,64d2fd46c836a06233681665,64dc7d38b52a5be980b5128a,,,,,,,ctch,resources/DB.BMP,resources/DBN.BMP,Door3,0.412760417,0.0234375,1,0,0,1.2752,optionRight,70,7545,4,6,0,6,0,1,,,,,,,,,,,,,,,,,,,,,,,,,,,,,,,,,,,,,,,
,,,,,,,,2023-08-16_08h43.50.384,HF_wild_card,2022.2.4,Win32,60.0024001,6266ac01a2a15cce6ed5fba7,64d2fd46c836a06233681665,64dc7d38b52a5be980b5128a,,,,,,,decisionTrl,resources/DY.BMP,resources/DR.BMP,Door4,-0.376302083,-0.0078125,1,0,0,1.6955,optionLeft,60,7605,4,7,0,7,0,1,,,,,,,,,,,,,,,,,,,,,,,,,,,,,,,,,,,,,,,
,,,,,,,,2023-08-16_08h43.50.384,HF_wild_card,2022.2.4,Win32,60.0024001,6266ac01a2a15cce6ed5fba7,64d2fd46c836a06233681665,64dc7d38b52a5be980b5128a,,,,,,,decisionTrl,resources/DG.BMP,resources/DB.BMP,Door1,-0.391927083,-0.01171875,1,0,0,2.2286,optionLeft,30,7635,4,8,0,8,0,1,,,,,,,,,,,,,,,,,,,,,,,,,,,,,,,,,,,,,,,
,,,,,,,,2023-08-16_08h43.50.384,HF_wild_card,2022.2.4,Win32,60.0024001,6266ac01a2a15cce6ed5fba7,64d2fd46c836a06233681665,64dc7d38b52a5be980b5128a,,,,,,,sngl,resources/DR.BMP,resources/Empty.png,WildCard_Ex,-0.348958333,-0.026041667,1,0,0,1.1076,optionLeft,55,7690,4,9,0,9,0,1,,,,,,,,,,,,,,,,,,,,,,,,,,,,,,,,,,,,,,,
,,,,,,,,2023-08-16_08h43.50.384,HF_wild_card,2022.2.4,Win32,60.0024001,6266ac01a2a15cce6ed5fba7,64d2fd46c836a06233681665,64dc7d38b52a5be980b5128a,,,,,,,decisionTrl,resources/DG.BMP,resources/DB.BMP,Door1,-0.34765625,-0.013020833,1,0,0,1.7779,optionLeft,30,7720,4,10,0,10,0,1,,,,,,,,,,,,,,,,,,,,,,,,,,,,,,,,,,,,,,,
,,,,,,,,2023-08-16_08h43.50.384,HF_wild_card,2022.2.4,Win32,60.0024001,6266ac01a2a15cce6ed5fba7,64d2fd46c836a06233681665,64dc7d38b52a5be980b5128a,,,,,,,decisionTrl,resources/DB.BMP,resources/DR.BMP,WildCard_Ex,0.397135417,-0.013020833,1,0,0,2.9781,optionRight,55,7775,4,11,0,11,0,1,,,,,,,,,,,,,,,,,,,,,,,,,,,,,,,,,,,,,,,
,,,,,,,,2023-08-16_08h43.50.384,HF_wild_card,2022.2.4,Win32,60.0024001,6266ac01a2a15cce6ed5fba7,64d2fd46c836a06233681665,64dc7d38b52a5be980b5128a,,,,,,,sngl,resources/DBN.BMP,resources/Empty.png,Door3,-0.36328125,0,1,0,0,1.2771,optionLeft,70,7845,4,12,0,12,0,1,,,,,,,,,,,,,,,,,,,,,,,,,,,,,,,,,,,,,,,
,,,,,,,,2023-08-16_08h43.50.384,HF_wild_card,2022.2.4,Win32,60.0024001,6266ac01a2a15cce6ed5fba7,64d2fd46c836a06233681665,64dc7d38b52a5be980b5128a,,,,,,,sngl,resources/Empty.png,resources/DY.BMP,Door4,0.4140625,-0.0078125,1,0,0,1.3426,optionRight,80,7925,4,13,0,13,0,1,,,,,,,,,,,,,,,,,,,,,,,,,,,,,,,,,,,,,,,
,,,,,,,,2023-08-16_08h43.50.384,HF_wild_card,2022.2.4,Win32,60.0024001,6266ac01a2a15cce6ed5fba7,64d2fd46c836a06233681665,64dc7d38b52a5be980b5128a,,,,,,,decisionTrl,resources/DR.BMP,resources/DBN.BMP,Door3,0.421875,-0.002604167,1,0,0,1.7613,optionRight,70,7995,4,14,0,14,0,1,,,,,,,,,,,,,,,,,,,,,,,,,,,,,,,,,,,,,,,
,,,,,,,,2023-08-16_08h43.50.384,HF_wild_card,2022.2.4,Win32,60.0024001,6266ac01a2a15cce6ed5fba7,64d2fd46c836a06233681665,64dc7d38b52a5be980b5128a,,,,,,,decisionTrl,resources/DBN.BMP,resources/DR.BMP,WildCard_Ex,0.395833333,-0.013020833,1,0,0,4.6943,optionRight,45,8040,4,15,0,15,0,1,,,,,,,,,,,,,,,,,,,,,,,,,,,,,,,,,,,,,,,
,,,,,,,,2023-08-16_08h43.50.384,HF_wild_card,2022.2.4,Win32,60.0024001,6266ac01a2a15cce6ed5fba7,64d2fd46c836a06233681665,64dc7d38b52a5be980b5128a,,,,,,,decisionTrl,resources/DG.BMP,resources/DB.BMP,Door2,0.41015625,-0.032552083,1,0,0,2.1614,optionRight,40,8080,4,16,0,16,0,1,,,,,,,,,,,,,,,,,,,,,,,,,,,,,,,,,,,,,,,
,,,,,,,,2023-08-16_08h43.50.384,HF_wild_card,2022.2.4,Win32,60.0024001,6266ac01a2a15cce6ed5fba7,64d2fd46c836a06233681665,64dc7d38b52a5be980b5128a,,,,,,,sngl,resources/DY.BMP,resources/Empty.png,Door4,-0.3671875,-0.0078125,1,0,0,1.4095,optionLeft,60,8140,4,17,0,17,0,1,,,,,,,,,,,,,,,,,,,,,,,,,,,,,,,,,,,,,,,
,,,,,,,,2023-08-16_08h43.50.384,HF_wild_card,2022.2.4,Win32,60.0024001,6266ac01a2a15cce6ed5fba7,64d2fd46c836a06233681665,64dc7d38b52a5be980b5128a,,,,,,,decisionTrl,resources/DR.BMP,resources/DB.BMP,WildCard_Ex,-0.380208333,-0.006510417,1,0,0,1.7775,optionLeft,45,8185,4,18,0,18,0,1,,,,,,,,,,,,,,,,,,,,,,,,,,,,,,,,,,,,,,,
,,,,,,,,2023-08-16_08h43.50.384,HF_wild_card,2022.2.4,Win32,60.0024001,6266ac01a2a15cce6ed5fba7,64d2fd46c836a06233681665,64dc7d38b52a5be980b5128a,,,,,,,decisionTrl,resources/DY.BMP,resources/DBN.BMP,Door3,0.397135417,-0.015625,1,0,0,2.3606,optionRight,70,8255,4,19,0,19,0,1,,,,,,,,,,,,,,,,,,,,,,,,,,,,,,,,,,,,,,,
,,,,,,,,2023-08-16_08h43.50.384,HF_wild_card,2022.2.4,Win32,60.0024001,6266ac01a2a15cce6ed5fba7,64d2fd46c836a06233681665,64dc7d38b52a5be980b5128a,,,,,,,decisionTrl,resources/DY.BMP,resources/DBN.BMP,Door4,-0.294270833,-0.016927083,1,0,0,2.8231,optionLeft,80,8335,4,20,0,20,0,1,,,,,,,,,,,,,,,,,,,,,,,,,,,,,,,,,,,,,,,
,,,,,,,,2023-08-16_08h43.50.384,HF_wild_card,2022.2.4,Win32,60.0024001,6266ac01a2a15cce6ed5fba7,64d2fd46c836a06233681665,64dc7d38b52a5be980b5128a,,,,,,,sngl,resources/DB.BMP,resources/Empty.png,Door2,-0.412760417,-0.018229167,1,0,0,1.1745,optionLeft,20,8355,4,21,0,21,0,1,,,,,,,,,,,,,,,,,,,,,,,,,,,,,,,,,,,,,,,
,,,,,,,,2023-08-16_08h43.50.384,HF_wild_card,2022.2.4,Win32,60.0024001,6266ac01a2a15cce6ed5fba7,64d2fd46c836a06233681665,64dc7d38b52a5be980b5128a,,,,,,,ctch,resources/DY.BMP,resources/DG.BMP,Door4,-0.39453125,-0.013020833,1,0,0,1.428,optionLeft,80,8435,4,22,0,22,0,1,,,,,,,,,,,,,,,,,,,,,,,,,,,,,,,,,,,,,,,
,,,,,,,,2023-08-16_08h43.50.384,HF_wild_card,2022.2.4,Win32,60.0024001,6266ac01a2a15cce6ed5fba7,64d2fd46c836a06233681665,64dc7d38b52a5be980b5128a,,,,,,,sngl,resources/Empty.png,resources/DR.BMP,WildCard_Ex,0.4140625,-0.00390625,1,0,0,1.1442,optionRight,45,8480,4,23,0,23,0,1,,,,,,,,,,,,,,,,,,,,,,,,,,,,,,,,,,,,,,,
,,,,,,,,2023-08-16_08h43.50.384,HF_wild_card,2022.2.4,Win32,60.0024001,6266ac01a2a15cce6ed5fba7,64d2fd46c836a06233681665,64dc7d38b52a5be980b5128a,,,,,,,decisionTrl,resources/DR.BMP,resources/DY.BMP,Door4,0.447916667,-0.001302083,1,0,0,1.2632,optionRight,80,8560,4,24,0,24,0,1,,,,,,,,,,,,,,,,,,,,,,,,,,,,,,,,,,,,,,,
,,,,,,,,2023-08-16_08h43.50.384,HF_wild_card,2022.2.4,Win32,60.0024001,6266ac01a2a15cce6ed5fba7,64d2fd46c836a06233681665,64dc7d38b52a5be980b5128a,,,,,,,ctch,resources/DBN.BMP,resources/DB.BMP,Door3,-0.364583333,0,1,0,0,1.446,optionLeft,70,8630,4,25,0,25,0,1,,,,,,,,,,,,,,,,,,,,,,,,,,,,,,,,,,,,,,,
,,,,,,,,2023-08-16_08h43.50.384,HF_wild_card,2022.2.4,Win32,60.0024001,6266ac01a2a15cce6ed5fba7,64d2fd46c836a06233681665,64dc7d38b52a5be980b5128a,,,,,,,sngl,resources/DR.BMP,resources/Empty.png,WildCard_Ex,-0.38671875,-0.01171875,1,0,0,1.9264,optionLeft,45,8675,4,26,0,26,0,1,,,,,,,,,,,,,,,,,,,,,,,,,,,,,,,,,,,,,,,
,,,,,,,,2023-08-16_08h43.50.384,HF_wild_card,2022.2.4,Win32,60.0024001,6266ac01a2a15cce6ed5fba7,64d2fd46c836a06233681665,64dc7d38b52a5be980b5128a,,,,,,,sngl,resources/Empty.png,resources/DG.BMP,Door1,0.423177083,-0.001302083,1,0,0,1.2116,optionRight,30,8705,4,27,0,27,0,1,,,,,,,,,,,,,,,,,,,,,,,,,,,,,,,,,,,,,,,
,,,,,,,,2023-08-16_08h43.50.384,HF_wild_card,2022.2.4,Win32,60.0024001,6266ac01a2a15cce6ed5fba7,64d2fd46c836a06233681665,64dc7d38b52a5be980b5128a,,,,,,,decisionTrl,resources/DBN.BMP,resources/DY.BMP,Door4,0.41796875,0,1,0,0,1.7107,optionRight,80,8785,4,28,0,28,0,1,,,,,,,,,,,,,,,,,,,,,,,,,,,,,,,,,,,,,,,
,,,,,,,,2023-08-16_08h43.50.384,HF_wild_card,2022.2.4,Win32,60.0024001,6266ac01a2a15cce6ed5fba7,64d2fd46c836a06233681665,64dc7d38b52a5be980b5128a,,,,,,,decisionTrl,resources/DB.BMP,resources/DG.BMP,Door2,-0.39453125,-0.0078125,1,0,0,1.8801,optionLeft,40,8825,4,29,0,29,0,1,,,,,,,,,,,,,,,,,,,,,,,,,,,,,,,,,,,,,,,
,,,,,,,,2023-08-16_08h43.50.384,HF_wild_card,2022.2.4,Win32,60.0024001,6266ac01a2a15cce6ed5fba7,64d2fd46c836a06233681665,64dc7d38b52a5be980b5128a,,,,,,,ctch,resources/DY.BMP,resources/DG.BMP,Door4,-0.35546875,-0.001302083,1,0,0,1.2432,optionLeft,80,8905,4,30,0,30,0,1,,,,,,,,,,,,,,,,,,,,,,,,,,,,,,,,,,,,,,,
,,,,,,,,2023-08-16_08h43.50.384,HF_wild_card,2022.2.4,Win32,60.0024001,6266ac01a2a15cce6ed5fba7,64d2fd46c836a06233681665,64dc7d38b52a5be980b5128a,,,,,,,ctch,resources/DG.BMP,resources/DY.BMP,Door4,0.4609375,0,1,0,0,1.1099,optionRight,80,8985,4,31,0,31,0,1,,,,,,,,,,,,,,,,,,,,,,,,,,,,,,,,,,,,,,,
,,,,,,,,2023-08-16_08h43.50.384,HF_wild_card,2022.2.4,Win32,60.0024001,6266ac01a2a15cce6ed5fba7,64d2fd46c836a06233681665,64dc7d38b52a5be980b5128a,,,,,,,decisionTrl,resources/DB.BMP,resources/DG.BMP,Door2,-0.330729167,-0.010416667,1,0,0,1.4937,optionLeft,40,9025,4,32,0,32,0,1,,,,,,,,,,,,,,,,,,,,,,,,,,,,,,,,,,,,,,,
,,,,,,,,2023-08-16_08h43.50.384,HF_wild_card,2022.2.4,Win32,60.0024001,6266ac01a2a15cce6ed5fba7,64d2fd46c836a06233681665,64dc7d38b52a5be980b5128a,,,,,,,decisionTrl,resources/DBN.BMP,resources/DY.BMP,Door4,0.407552083,-0.005208333,1,0,0,1.3083,optionRight,60,9085,4,33,0,33,0,1,,,,,,,,,,,,,,,,,,,,,,,,,,,,,,,,,,,,,,,
,,,,,,,,2023-08-16_08h43.50.384,HF_wild_card,2022.2.4,Win32,60.0024001,6266ac01a2a15cce6ed5fba7,64d2fd46c836a06233681665,64dc7d38b52a5be980b5128a,,,,,,,decisionTrl,resources/DY.BMP,resources/DBN.BMP,Door4,-0.348958333,-0.00390625,1,0,0,2.2109,optionLeft,60,9145,4,34,0,34,0,1,,,,,,,,,,,,,,,,,,,,,,,,,,,,,,,,,,,,,,,
,,,,,,,,2023-08-16_08h43.50.384,HF_wild_card,2022.2.4,Win32,60.0024001,6266ac01a2a15cce6ed5fba7,64d2fd46c836a06233681665,64dc7d38b52a5be980b5128a,,,,,,,sngl,resources/Empty.png,resources/DB.BMP,Door2,0.39453125,-0.005208333,1,0,0,1.2293,optionRight,40,9185,4,35,0,35,0,1,,,,,,,,,,,,,,,,,,,,,,,,,,,,,,,,,,,,,,,
,,,,,,,,2023-08-16_08h43.50.384,HF_wild_card,2022.2.4,Win32,60.0024001,6266ac01a2a15cce6ed5fba7,64d2fd46c836a06233681665,64dc7d38b52a5be980b5128a,,,,,,,sngl,resources/DG.BMP,resources/Empty.png,Door1,-0.411458333,-0.001302083,1,0,0,0.9603,optionLeft,30,9215,4,36,0,36,0,1,,,,,,,,,,,,,,,,,,,,,,,,,,,,,,,,,,,,,,,
,,,,,,,,2023-08-16_08h43.50.384,HF_wild_card,2022.2.4,Win32,60.0024001,6266ac01a2a15cce6ed5fba7,64d2fd46c836a06233681665,64dc7d38b52a5be980b5128a,,,,,,,decisionTrl,resources/DB.BMP,resources/DG.BMP,Door2,-0.399739583,-0.002604167,1,0,0,1.494,optionLeft,20,9235,4,37,0,37,0,1,,,,,,,,,,,,,,,,,,,,,,,,,,,,,,,,,,,,,,,
,,,,,,,,2023-08-16_08h43.50.384,HF_wild_card,2022.2.4,Win32,60.0024001,6266ac01a2a15cce6ed5fba7,64d2fd46c836a06233681665,64dc7d38b52a5be980b5128a,,,,,,,decisionTrl,resources/DG.BMP,resources/DB.BMP,Door1,-0.368489583,-0.002604167,1,0,0,1.7457,optionLeft,30,9265,4,38,0,38,0,1,,,,,,,,,,,,,,,,,,,,,,,,,,,,,,,,,,,,,,,
,,,,,,,,2023-08-16_08h43.50.384,HF_wild_card,2022.2.4,Win32,60.0024001,6266ac01a2a15cce6ed5fba7,64d2fd46c836a06233681665,64dc7d38b52a5be980b5128a,,,,,,,sngl,resources/Empty.png,resources/DBN.BMP,Door3,0.4296875,0.00390625,1,0,0,1.0773,optionRight,70,9335,4,39,0,39,0,1,,,,,,,,,,,,,,,,,,,,,,,,,,,,,,,,,,,,,,,
,,,,,,,,2023-08-16_08h43.50.384,HF_wild_card,2022.2.4,Win32,60.0024001,6266ac01a2a15cce6ed5fba7,64d2fd46c836a06233681665,64dc7d38b52a5be980b5128a,,,,,,,decisionTrl,resources/DR.BMP,resources/DG.BMP,WildCard_Ex,-0.341145833,-0.024739583,1,0,0,1.6582,optionLeft,55,9390,4,40,0,40,0,1,,,,,,,,,,,,,,,,,,,,,,,,,,,,,,,,,,,,,,,
,,,,,,,,2023-08-16_08h43.50.384,HF_wild_card,2022.2.4,Win32,60.0024001,6266ac01a2a15cce6ed5fba7,64d2fd46c836a06233681665,64dc7d38b52a5be980b5128a,,,,,,,ctch,resources/DBN.BMP,resources/DB.BMP,Door3,-0.427083333,-0.005208333,1,0,0,1.2445,optionLeft,70,9460,4,41,0,41,0,1,,,,,,,,,,,,,,,,,,,,,,,,,,,,,,,,,,,,,,,
,,,,,,,,2023-08-16_08h43.50.384,HF_wild_card,2022.2.4,Win32,60.0024001,6266ac01a2a15cce6ed5fba7,64d2fd46c836a06233681665,64dc7d38b52a5be980b5128a,,,,,,,ctch,resources/DB.BMP,resources/DBN.BMP,Door3,0.434895833,0.002604167,1,0,0,1.3757,optionRight,70,9530,4,42,0,42,0,1,,,,,,,,,,,,,,,,,,,,,,,,,,,,,,,,,,,,,,,
,,,,,,,,2023-08-16_08h43.50.384,HF_wild_card,2022.2.4,Win32,60.0024001,6266ac01a2a15cce6ed5fba7,64d2fd46c836a06233681665,64dc7d38b52a5be980b5128a,,,,,,,decisionTrl,resources/DY.BMP,resources/DBN.BMP,Door4,-0.358072917,-0.005208333,1,0,0,2.9416,optionLeft,60,9590,4,43,0,43,0,1,,,,,,,,,,,,,,,,,,,,,,,,,,,,,,,,,,,,,,,
,,,,,,,,2023-08-16_08h43.50.384,HF_wild_card,2022.2.4,Win32,60.0024001,6266ac01a2a15cce6ed5fba7,64d2fd46c836a06233681665,64dc7d38b52a5be980b5128a,,,,,,,,,,,,,,,,,,,,,,,,,,3,0,3,0,1,,,,,,,,,,,,,,,,,,,,,,,,,,,,,,,,,,
,,,,,,,,2023-08-16_08h43.50.384,HF_wild_card,2022.2.4,Win32,60.0024001,6266ac01a2a15cce6ed5fba7,64d2fd46c836a06233681665,64dc7d38b52a5be980b5128a,,,,,,,ctch,resources/DY.BMP,resources/DG.BMP,Door4,-0.361979167,-0.024739583,1,0,0,1.6711,optionLeft,60,9650,5,0,0,0,0,1,,,,,,,,,,,,,,,,,,,,,,,,,,,,,,,,,,,,,,,
,,,,,,,,2023-08-16_08h43.50.384,HF_wild_card,2022.2.4,Win32,60.0024001,6266ac01a2a15cce6ed5fba7,64d2fd46c836a06233681665,64dc7d38b52a5be980b5128a,,,,,,,ctch,resources/DY.BMP,resources/DG.BMP,Door4,-0.384114583,0.00390625,1,0,0,1.6427,optionLeft,60,9710,5,1,0,1,0,1,,,,,,,,,,,,,,,,,,,,,,,,,,,,,,,,,,,,,,,
,,,,,,,,2023-08-16_08h43.50.384,HF_wild_card,2022.2.4,Win32,60.0024001,6266ac01a2a15cce6ed5fba7,64d2fd46c836a06233681665,64dc7d38b52a5be980b5128a,,,,,,,decisionTrl,resources/DY.BMP,resources/DBN.BMP,Door3,0.473958333,-0.001302083,1,0,0,1.3277,optionRight,70,9780,5,2,0,2,0,1,,,,,,,,,,,,,,,,,,,,,,,,,,,,,,,,,,,,,,,
,,,,,,,,2023-08-16_08h43.50.384,HF_wild_card,2022.2.4,Win32,60.0024001,6266ac01a2a15cce6ed5fba7,64d2fd46c836a06233681665,64dc7d38b52a5be980b5128a,,,,,,,decisionTrl,resources/DB.BMP,resources/DG.BMP,Door2,-0.3359375,-0.002604167,1,0,0,4.3276,optionLeft,40,9820,5,3,0,3,0,1,,,,,,,,,,,,,,,,,,,,,,,,,,,,,,,,,,,,,,,
,,,,,,,,2023-08-16_08h43.50.384,HF_wild_card,2022.2.4,Win32,60.0024001,6266ac01a2a15cce6ed5fba7,64d2fd46c836a06233681665,64dc7d38b52a5be980b5128a,,,,,,,decisionTrl,resources/DG.BMP,resources/DB.BMP,Door2,0.39453125,-0.002604167,1,0,0,1.6766,optionRight,40,9860,5,4,0,4,0,1,,,,,,,,,,,,,,,,,,,,,,,,,,,,,,,,,,,,,,,
,,,,,,,,2023-08-16_08h43.50.384,HF_wild_card,2022.2.4,Win32,60.0024001,6266ac01a2a15cce6ed5fba7,64d2fd46c836a06233681665,64dc7d38b52a5be980b5128a,,,,,,,sngl,resources/DR.BMP,resources/Empty.png,WildCard_Ex,-0.361979167,0.009114583,1,0,0,1.61,optionLeft,45,9905,5,5,0,5,0,1,,,,,,,,,,,,,,,,,,,,,,,,,,,,,,,,,,,,,,,
,,,,,,,,2023-08-16_08h43.50.384,HF_wild_card,2022.2.4,Win32,60.0024001,6266ac01a2a15cce6ed5fba7,64d2fd46c836a06233681665,64dc7d38b52a5be980b5128a,,,,,,,sngl,resources/DY.BMP,resources/Empty.png,Door4,-0.360677083,0.013020833,1,0,0,1.3787,optionLeft,80,9985,5,6,0,6,0,1,,,,,,,,,,,,,,,,,,,,,,,,,,,,,,,,,,,,,,,
,,,,,,,,2023-08-16_08h43.50.384,HF_wild_card,2022.2.4,Win32,60.0024001,6266ac01a2a15cce6ed5fba7,64d2fd46c836a06233681665,64dc7d38b52a5be980b5128a,,,,,,,sngl,resources/DG.BMP,resources/Empty.png,Door1,-0.333333333,0.009114583,1,0,0,1.328,optionLeft,30,10015,5,7,0,7,0,1,,,,,,,,,,,,,,,,,,,,,,,,,,,,,,,,,,,,,,,
,,,,,,,,2023-08-16_08h43.50.384,HF_wild_card,2022.2.4,Win32,60.0024001,6266ac01a2a15cce6ed5fba7,64d2fd46c836a06233681665,64dc7d38b52a5be980b5128a,,,,,,,decisionTrl,resources/DR.BMP,resources/DBN.BMP,Door3,0.430989583,0.002604167,1,0,0,4.5921,optionRight,70,10085,5,8,0,8,0,1,,,,,,,,,,,,,,,,,,,,,,,,,,,,,,,,,,,,,,,
,,,,,,,,2023-08-16_08h43.50.384,HF_wild_card,2022.2.4,Win32,60.0024001,6266ac01a2a15cce6ed5fba7,64d2fd46c836a06233681665,64dc7d38b52a5be980b5128a,,,,,,,decisionTrl,resources/DBN.BMP,resources/DY.BMP,Door4,0.545572917,0.001302083,1,0,0,3.6101,optionRight,60,10145,5,9,0,9,0,1,,,,,,,,,,,,,,,,,,,,,,,,,,,,,,,,,,,,,,,
,,,,,,,,2023-08-16_08h43.50.384,HF_wild_card,2022.2.4,Win32,60.0024001,6266ac01a2a15cce6ed5fba7,64d2fd46c836a06233681665,64dc7d38b52a5be980b5128a,,,,,,,decisionTrl,resources/DBN.BMP,resources/DY.BMP,Door3,-0.356770833,0,1,0,0,1.1609,optionLeft,70,10215,5,10,0,10,0,1,,,,,,,,,,,,,,,,,,,,,,,,,,,,,,,,,,,,,,,
,,,,,,,,2023-08-16_08h43.50.384,HF_wild_card,2022.2.4,Win32,60.0024001,6266ac01a2a15cce6ed5fba7,64d2fd46c836a06233681665,64dc7d38b52a5be980b5128a,,,,,,,decisionTrl,resources/DR.BMP,resources/DG.BMP,WildCard_Ex,-0.37890625,-0.001302083,1,0,0,1.2255,optionLeft,45,10260,5,11,0,11,0,1,,,,,,,,,,,,,,,,,,,,,,,,,,,,,,,,,,,,,,,
,,,,,,,,2023-08-16_08h43.50.384,HF_wild_card,2022.2.4,Win32,60.0024001,6266ac01a2a15cce6ed5fba7,64d2fd46c836a06233681665,64dc7d38b52a5be980b5128a,,,,,,,decisionTrl,resources/DB.BMP,resources/DR.BMP,WildCard_Ex,0.416666667,0.006510417,1,0,0,1.7918,optionRight,55,10315,5,12,0,12,0,1,,,,,,,,,,,,,,,,,,,,,,,,,,,,,,,,,,,,,,,
,,,,,,,,2023-08-16_08h43.50.384,HF_wild_card,2022.2.4,Win32,60.0024001,6266ac01a2a15cce6ed5fba7,64d2fd46c836a06233681665,64dc7d38b52a5be980b5128a,,,,,,,sngl,resources/Empty.png,resources/DR.BMP,WildCard_Ex,0.401041667,-0.001302083,1,0,0,1.142,optionRight,55,10370,5,13,0,13,0,1,,,,,,,,,,,,,,,,,,,,,,,,,,,,,,,,,,,,,,,
,,,,,,,,2023-08-16_08h43.50.384,HF_wild_card,2022.2.4,Win32,60.0024001,6266ac01a2a15cce6ed5fba7,64d2fd46c836a06233681665,64dc7d38b52a5be980b5128a,,,,,,,decisionTrl,resources/DY.BMP,resources/DBN.BMP,Door3,0.416666667,0.005208333,1,0,0,5.1579,optionRight,70,10440,5,14,0,14,0,1,,,,,,,,,,,,,,,,,,,,,,,,,,,,,,,,,,,,,,,
,,,,,,,,2023-08-16_08h43.50.384,HF_wild_card,2022.2.4,Win32,60.0024001,6266ac01a2a15cce6ed5fba7,64d2fd46c836a06233681665,64dc7d38b52a5be980b5128a,,,,,,,decisionTrl,resources/DG.BMP,resources/DB.BMP,Door2,0.419270833,0,1,0,0,2.0457,optionRight,40,10480,5,15,0,15,0,1,,,,,,,,,,,,,,,,,,,,,,,,,,,,,,,,,,,,,,,
,,,,,,,,2023-08-16_08h43.50.384,HF_wild_card,2022.2.4,Win32,60.0024001,6266ac01a2a15cce6ed5fba7,64d2fd46c836a06233681665,64dc7d38b52a5be980b5128a,,,,,,,sngl,resources/DR.BMP,resources/Empty.png,WildCard_Ex,-0.40234375,0,1,0,0,1.0111,optionLeft,55,10535,5,16,0,16,0,1,,,,,,,,,,,,,,,,,,,,,,,,,,,,,,,,,,,,,,,
,,,,,,,,2023-08-16_08h43.50.384,HF_wild_card,2022.2.4,Win32,60.0024001,6266ac01a2a15cce6ed5fba7,64d2fd46c836a06233681665,64dc7d38b52a5be980b5128a,,,,,,,sngl,resources/DB.BMP,resources/Empty.png,Door2,-0.375,0,1,0,0,1.1969,optionLeft,40,10575,5,17,0,17,0,1,,,,,,,,,,,,,,,,,,,,,,,,,,,,,,,,,,,,,,,
,,,,,,,,2023-08-16_08h43.50.384,HF_wild_card,2022.2.4,Win32,60.0024001,6266ac01a2a15cce6ed5fba7,64d2fd46c836a06233681665,64dc7d38b52a5be980b5128a,,,,,,,sngl,resources/Empty.png,resources/DY.BMP,Door4,0.3671875,-0.00390625,1,0,0,1.0753,optionRight,60,10635,5,18,0,18,0,1,,,,,,,,,,,,,,,,,,,,,,,,,,,,,,,,,,,,,,,
,,,,,,,,2023-08-16_08h43.50.384,HF_wild_card,2022.2.4,Win32,60.0024001,6266ac01a2a15cce6ed5fba7,64d2fd46c836a06233681665,64dc7d38b52a5be980b5128a,,,,,,,decisionTrl,resources/DY.BMP,resources/DR.BMP,Door4,-0.36328125,-0.00390625,1,0,0,1.6439,optionLeft,80,10715,5,19,0,19,0,1,,,,,,,,,,,,,,,,,,,,,,,,,,,,,,,,,,,,,,,
,,,,,,,,2023-08-16_08h43.50.384,HF_wild_card,2022.2.4,Win32,60.0024001,6266ac01a2a15cce6ed5fba7,64d2fd46c836a06233681665,64dc7d38b52a5be980b5128a,,,,,,,decisionTrl,resources/DBN.BMP,resources/DR.BMP,Door3,-0.3359375,0.018229167,1,0,0,1.5924,optionLeft,70,10785,5,20,0,20,0,1,,,,,,,,,,,,,,,,,,,,,,,,,,,,,,,,,,,,,,,
,,,,,,,,2023-08-16_08h43.50.384,HF_wild_card,2022.2.4,Win32,60.0024001,6266ac01a2a15cce6ed5fba7,64d2fd46c836a06233681665,64dc7d38b52a5be980b5128a,,,,,,,ctch,resources/DB.BMP,resources/DBN.BMP,Door3,0.376302083,0.0078125,1,0,0,1.1621,optionRight,70,10855,5,21,0,21,0,1,,,,,,,,,,,,,,,,,,,,,,,,,,,,,,,,,,,,,,,
,,,,,,,,2023-08-16_08h43.50.384,HF_wild_card,2022.2.4,Win32,60.0024001,6266ac01a2a15cce6ed5fba7,64d2fd46c836a06233681665,64dc7d38b52a5be980b5128a,,,,,,,decisionTrl,resources/DB.BMP,resources/DG.BMP,Door2,-0.359375,0.005208333,1,0,0,1.925,optionLeft,40,10895,5,22,0,22,0,1,,,,,,,,,,,,,,,,,,,,,,,,,,,,,,,,,,,,,,,
,,,,,,,,2023-08-16_08h43.50.384,HF_wild_card,2022.2.4,Win32,60.0024001,6266ac01a2a15cce6ed5fba7,64d2fd46c836a06233681665,64dc7d38b52a5be980b5128a,,,,,,,decisionTrl,resources/DG.BMP,resources/DB.BMP,Door2,0.38671875,0.0078125,1,0,0,1.3097,optionRight,40,10935,5,23,0,23,0,1,,,,,,,,,,,,,,,,,,,,,,,,,,,,,,,,,,,,,,,
,,,,,,,,2023-08-16_08h43.50.384,HF_wild_card,2022.2.4,Win32,60.0024001,6266ac01a2a15cce6ed5fba7,64d2fd46c836a06233681665,64dc7d38b52a5be980b5128a,,,,,,,ctch,resources/DBN.BMP,resources/DB.BMP,Door3,-0.307291667,0.020833333,1,0,0,1.945,optionLeft,70,11005,5,24,0,24,0,1,,,,,,,,,,,,,,,,,,,,,,,,,,,,,,,,,,,,,,,
,,,,,,,,2023-08-16_08h43.50.384,HF_wild_card,2022.2.4,Win32,60.0024001,6266ac01a2a15cce6ed5fba7,64d2fd46c836a06233681665,64dc7d38b52a5be980b5128a,,,,,,,sngl,resources/Empty.png,resources/DB.BMP,Door2,0.43359375,0.015625,1,0,0,1.8288,optionRight,20,11025,5,25,0,25,0,1,,,,,,,,,,,,,,,,,,,,,,,,,,,,,,,,,,,,,,,
,,,,,,,,2023-08-16_08h43.50.384,HF_wild_card,2022.2.4,Win32,60.0024001,6266ac01a2a15cce6ed5fba7,64d2fd46c836a06233681665,64dc7d38b52a5be980b5128a,,,,,,,ctch,resources/DBN.BMP,resources/DB.BMP,Door3,-0.28125,0.01171875,1,0,0,1.3115,optionLeft,70,11095,5,26,0,26,0,1,,,,,,,,,,,,,,,,,,,,,,,,,,,,,,,,,,,,,,,
,,,,,,,,2023-08-16_08h43.50.384,HF_wild_card,2022.2.4,Win32,60.0024001,6266ac01a2a15cce6ed5fba7,64d2fd46c836a06233681665,64dc7d38b52a5be980b5128a,,,,,,,ctch,resources/DG.BMP,resources/DY.BMP,Door4,0.420572917,0,1,0,0,1.3931,optionRight,80,11175,5,27,0,27,0,1,,,,,,,,,,,,,,,,,,,,,,,,,,,,,,,,,,,,,,,
,,,,,,,,2023-08-16_08h43.50.384,HF_wild_card,2022.2.4,Win32,60.0024001,6266ac01a2a15cce6ed5fba7,64d2fd46c836a06233681665,64dc7d38b52a5be980b5128a,,,,,,,decisionTrl,resources/DB.BMP,resources/DG.BMP,Door2,-0.352864583,-0.005208333,1,0,0,3.5104,optionLeft,20,11195,5,28,0,28,0,1,,,,,,,,,,,,,,,,,,,,,,,,,,,,,,,,,,,,,,,
,,,,,,,,2023-08-16_08h43.50.384,HF_wild_card,2022.2.4,Win32,60.0024001,6266ac01a2a15cce6ed5fba7,64d2fd46c836a06233681665,64dc7d38b52a5be980b5128a,,,,,,,sngl,resources/Empty.png,resources/DR.BMP,WildCard_Ex,0.373697917,-0.014322917,1,0,0,1.2609,optionRight,45,11240,5,29,0,29,0,1,,,,,,,,,,,,,,,,,,,,,,,,,,,,,,,,,,,,,,,
,,,,,,,,2023-08-16_08h43.50.384,HF_wild_card,2022.2.4,Win32,60.0024001,6266ac01a2a15cce6ed5fba7,64d2fd46c836a06233681665,64dc7d38b52a5be980b5128a,,,,,,,decisionTrl,resources/DR.BMP,resources/DB.BMP,WildCard_Ex,-0.399739583,0.016927083,1,0,0,1.9602,optionLeft,45,11285,5,30,0,30,0,1,,,,,,,,,,,,,,,,,,,,,,,,,,,,,,,,,,,,,,,
,,,,,,,,2023-08-16_08h43.50.384,HF_wild_card,2022.2.4,Win32,60.0024001,6266ac01a2a15cce6ed5fba7,64d2fd46c836a06233681665,64dc7d38b52a5be980b5128a,,,,,,,sngl,resources/Empty.png,resources/DBN.BMP,Door3,0.467447917,0.005208333,1,0,0,1.107,optionRight,70,11355,5,31,0,31,0,1,,,,,,,,,,,,,,,,,,,,,,,,,,,,,,,,,,,,,,,
,,,,,,,,2023-08-16_08h43.50.384,HF_wild_card,2022.2.4,Win32,60.0024001,6266ac01a2a15cce6ed5fba7,64d2fd46c836a06233681665,64dc7d38b52a5be980b5128a,,,,,,,decisionTrl,resources/DY.BMP,resources/DBN.BMP,Door3,0.399739583,0.028645833,1,0,0,3.196,optionRight,70,11425,5,32,0,32,0,1,,,,,,,,,,,,,,,,,,,,,,,,,,,,,,,,,,,,,,,
,,,,,,,,2023-08-16_08h43.50.384,HF_wild_card,2022.2.4,Win32,60.0024001,6266ac01a2a15cce6ed5fba7,64d2fd46c836a06233681665,64dc7d38b52a5be980b5128a,,,,,,,sngl,resources/DBN.BMP,resources/Empty.png,Door3,-0.33203125,0.016927083,1,0,0,1.2805,optionLeft,70,11495,5,33,0,33,0,1,,,,,,,,,,,,,,,,,,,,,,,,,,,,,,,,,,,,,,,
,,,,,,,,2023-08-16_08h43.50.384,HF_wild_card,2022.2.4,Win32,60.0024001,6266ac01a2a15cce6ed5fba7,64d2fd46c836a06233681665,64dc7d38b52a5be980b5128a,,,,,,,ctch,resources/DG.BMP,resources/DY.BMP,Door4,0.440104167,0.018229167,1,0,0,1.3603,optionRight,80,11575,5,34,0,34,0,1,,,,,,,,,,,,,,,,,,,,,,,,,,,,,,,,,,,,,,,
,,,,,,,,2023-08-16_08h43.50.384,HF_wild_card,2022.2.4,Win32,60.0024001,6266ac01a2a15cce6ed5fba7,64d2fd46c836a06233681665,64dc7d38b52a5be980b5128a,,,,,,,decisionTrl,resources/DR.BMP,resources/DY.BMP,Door4,0.471354167,-0.006510417,1,0,0,1.1295,optionRight,80,11655,5,35,0,35,0,1,,,,,,,,,,,,,,,,,,,,,,,,,,,,,,,,,,,,,,,
,,,,,,,,2023-08-16_08h43.50.384,HF_wild_card,2022.2.4,Win32,60.0024001,6266ac01a2a15cce6ed5fba7,64d2fd46c836a06233681665,64dc7d38b52a5be980b5128a,,,,,,,ctch,resources/DB.BMP,resources/DBN.BMP,Door3,0.442708333,0.013020833,1,0,0,1.0603,optionRight,70,11725,5,36,0,36,0,1,,,,,,,,,,,,,,,,,,,,,,,,,,,,,,,,,,,,,,,
,,,,,,,,2023-08-16_08h43.50.384,HF_wild_card,2022.2.4,Win32,60.0024001,6266ac01a2a15cce6ed5fba7,64d2fd46c836a06233681665,64dc7d38b52a5be980b5128a,,,,,,,decisionTrl,resources/DB.BMP,resources/DG.BMP,Door1,0.421875,0.006510417,1,0,0,1.5793,optionRight,30,11755,5,37,0,37,0,1,,,,,,,,,,,,,,,,,,,,,,,,,,,,,,,,,,,,,,,
,,,,,,,,2023-08-16_08h43.50.384,HF_wild_card,2022.2.4,Win32,60.0024001,6266ac01a2a15cce6ed5fba7,64d2fd46c836a06233681665,64dc7d38b52a5be980b5128a,,,,,,,decisionTrl,resources/DG.BMP,resources/DR.BMP,WildCard_Ex,0.390625,0.00390625,1,0,0,1.5931,optionRight,55,11810,5,38,0,38,0,1,,,,,,,,,,,,,,,,,,,,,,,,,,,,,,,,,,,,,,,
,,,,,,,,2023-08-16_08h43.50.384,HF_wild_card,2022.2.4,Win32,60.0024001,6266ac01a2a15cce6ed5fba7,64d2fd46c836a06233681665,64dc7d38b52a5be980b5128a,,,,,,,sngl,resources/Empty.png,resources/DG.BMP,Door1,0.48046875,0,1,0,0,1.4933,optionRight,30,11840,5,39,0,39,0,1,,,,,,,,,,,,,,,,,,,,,,,,,,,,,,,,,,,,,,,
,,,,,,,,2023-08-16_08h43.50.384,HF_wild_card,2022.2.4,Win32,60.0024001,6266ac01a2a15cce6ed5fba7,64d2fd46c836a06233681665,64dc7d38b52a5be980b5128a,,,,,,,decisionTrl,resources/DG.BMP,resources/DB.BMP,Door1,-0.348958333,-0.0078125,1,0,0,2.5941,optionLeft,30,11870,5,40,0,40,0,1,,,,,,,,,,,,,,,,,,,,,,,,,,,,,,,,,,,,,,,
,,,,,,,,2023-08-16_08h43.50.384,HF_wild_card,2022.2.4,Win32,60.0024001,6266ac01a2a15cce6ed5fba7,64d2fd46c836a06233681665,64dc7d38b52a5be980b5128a,,,,,,,decisionTrl,resources/DBN.BMP,resources/DY.BMP,Door3,-0.372395833,0.006510417,1,0,0,2.7759,optionLeft,70,11940,5,41,0,41,0,1,,,,,,,,,,,,,,,,,,,,,,,,,,,,,,,,,,,,,,,
,,,,,,,,2023-08-16_08h43.50.384,HF_wild_card,2022.2.4,Win32,60.0024001,6266ac01a2a15cce6ed5fba7,64d2fd46c836a06233681665,64dc7d38b52a5be980b5128a,,,,,,,decisionTrl,resources/DY.BMP,resources/DBN.BMP,Door3,0.438802083,0.015625,1,0,0,2.3775,optionRight,70,12010,5,42,0,42,0,1,,,,,,,,,,,,,,,,,,,,,,,,,,,,,,,,,,,,,,,
,,,,,,,,2023-08-16_08h43.50.384,HF_wild_card,2022.2.4,Win32,60.0024001,6266ac01a2a15cce6ed5fba7,64d2fd46c836a06233681665,64dc7d38b52a5be980b5128a,,,,,,,decisionTrl,resources/DBN.BMP,resources/DY.BMP,Door3,-0.380208333,-0.00390625,1,0,0,1.979,optionLeft,70,12080,5,43,0,43,0,1,,,,,,,,,,,,,,,,,,,,,,,,,,,,,,,,,,,,,,,
,,,,,,,,2023-08-16_08h43.50.384,HF_wild_card,2022.2.4,Win32,60.0024001,6266ac01a2a15cce6ed5fba7,64d2fd46c836a06233681665,64dc7d38b52a5be980b5128a,,,,,,,,,,,,,,,,,,,,,,,,,,4,0,4,0,1,,,,,,,,,,,,,,,,,,,,,,,,,,,,,,,,,,
,,,,,,,,2023-08-16_08h43.50.384,HF_wild_card,2022.2.4,Win32,60.0024001,6266ac01a2a15cce6ed5fba7,64d2fd46c836a06233681665,64dc7d38b52a5be980b5128a,,,,,,,ctch,resources/DB.BMP,resources/DBN.BMP,Door3,0.3984375,-0.036458333,1,0,0,1.4847,optionRight,70,12150,6,0,0,0,0,1,,,,,,,,,,,,,,,,,,,,,,,,,,,,,,,,,,,,,,,
,,,,,,,,2023-08-16_08h43.50.384,HF_wild_card,2022.2.4,Win32,60.0024001,6266ac01a2a15cce6ed5fba7,64d2fd46c836a06233681665,64dc7d38b52a5be980b5128a,,,,,,,decisionTrl,resources/DY.BMP,resources/DR.BMP,Door4,-0.36328125,-0.015625,1,0,0,1.3769,optionLeft,60,12210,6,1,0,1,0,1,,,,,,,,,,,,,,,,,,,,,,,,,,,,,,,,,,,,,,,
,,,,,,,,2023-08-16_08h43.50.384,HF_wild_card,2022.2.4,Win32,60.0024001,6266ac01a2a15cce6ed5fba7,64d2fd46c836a06233681665,64dc7d38b52a5be980b5128a,,,,,,,decisionTrl,resources/DBN.BMP,resources/DY.BMP,Door3,-0.358072917,0,1,0,0,1.5793,optionLeft,70,12280,6,2,0,2,0,1,,,,,,,,,,,,,,,,,,,,,,,,,,,,,,,,,,,,,,,
,,,,,,,,2023-08-16_08h43.50.384,HF_wild_card,2022.2.4,Win32,60.0024001,6266ac01a2a15cce6ed5fba7,64d2fd46c836a06233681665,64dc7d38b52a5be980b5128a,,,,,,,decisionTrl,resources/DG.BMP,resources/DB.BMP,Door1,-0.350260417,-0.0078125,1,0,0,1.9444,optionLeft,30,12310,6,3,0,3,0,1,,,,,,,,,,,,,,,,,,,,,,,,,,,,,,,,,,,,,,,
,,,,,,,,2023-08-16_08h43.50.384,HF_wild_card,2022.2.4,Win32,60.0024001,6266ac01a2a15cce6ed5fba7,64d2fd46c836a06233681665,64dc7d38b52a5be980b5128a,,,,,,,decisionTrl,resources/DB.BMP,resources/DG.BMP,Door1,0.412760417,-0.010416667,1,0,0,1.3098,optionRight,30,12340,6,4,0,4,0,1,,,,,,,,,,,,,,,,,,,,,,,,,,,,,,,,,,,,,,,
,,,,,,,,2023-08-16_08h43.50.384,HF_wild_card,2022.2.4,Win32,60.0024001,6266ac01a2a15cce6ed5fba7,64d2fd46c836a06233681665,64dc7d38b52a5be980b5128a,,,,,,,ctch,resources/DBN.BMP,resources/DB.BMP,Door3,-0.37890625,-0.013020833,1,0,0,1.0267,optionLeft,70,12410,6,5,0,5,0,1,,,,,,,,,,,,,,,,,,,,,,,,,,,,,,,,,,,,,,,
,,,,,,,,2023-08-16_08h43.50.384,HF_wild_card,2022.2.4,Win32,60.0024001,6266ac01a2a15cce6ed5fba7,64d2fd46c836a06233681665,64dc7d38b52a5be980b5128a,,,,,,,decisionTrl,resources/DR.BMP,resources/DG.BMP,WildCard_Ex,-0.380208333,-0.006510417,1,0,0,1.5777,optionLeft,55,12465,6,6,0,6,0,1,,,,,,,,,,,,,,,,,,,,,,,,,,,,,,,,,,,,,,,
,,,,,,,,2023-08-16_08h43.50.384,HF_wild_card,2022.2.4,Win32,60.0024001,6266ac01a2a15cce6ed5fba7,64d2fd46c836a06233681665,64dc7d38b52a5be980b5128a,,,,,,,sngl,resources/Empty.png,resources/DR.BMP,WildCard_Ex,0.440104167,-0.005208333,1,0,0,1.1257,optionRight,45,12510,6,7,0,7,0,1,,,,,,,,,,,,,,,,,,,,,,,,,,,,,,,,,,,,,,,
,,,,,,,,2023-08-16_08h43.50.384,HF_wild_card,2022.2.4,Win32,60.0024001,6266ac01a2a15cce6ed5fba7,64d2fd46c836a06233681665,64dc7d38b52a5be980b5128a,,,,,,,decisionTrl,resources/DBN.BMP,resources/DY.BMP,Door3,-0.3125,-0.001302083,1,0,0,2.846,optionLeft,70,12580,6,8,0,8,0,1,,,,,,,,,,,,,,,,,,,,,,,,,,,,,,,,,,,,,,,
,,,,,,,,2023-08-16_08h43.50.384,HF_wild_card,2022.2.4,Win32,60.0024001,6266ac01a2a15cce6ed5fba7,64d2fd46c836a06233681665,64dc7d38b52a5be980b5128a,,,,,,,decisionTrl,resources/DY.BMP,resources/DBN.BMP,Door4,-0.330729167,-0.0078125,1,0,0,3.8789,optionLeft,80,12660,6,9,0,9,0,1,,,,,,,,,,,,,,,,,,,,,,,,,,,,,,,,,,,,,,,
,,,,,,,,2023-08-16_08h43.50.384,HF_wild_card,2022.2.4,Win32,60.0024001,6266ac01a2a15cce6ed5fba7,64d2fd46c836a06233681665,64dc7d38b52a5be980b5128a,,,,,,,decisionTrl,resources/DG.BMP,resources/DR.BMP,WildCard_Ex,0.41015625,-0.010416667,1,0,0,1.3779,optionRight,55,12715,6,10,0,10,0,1,,,,,,,,,,,,,,,,,,,,,,,,,,,,,,,,,,,,,,,
,,,,,,,,2023-08-16_08h43.50.384,HF_wild_card,2022.2.4,Win32,60.0024001,6266ac01a2a15cce6ed5fba7,64d2fd46c836a06233681665,64dc7d38b52a5be980b5128a,,,,,,,sngl,resources/Empty.png,resources/DBN.BMP,Door3,0.501302083,-0.010416667,1,0,0,1.2102,optionRight,70,12785,6,11,0,11,0,1,,,,,,,,,,,,,,,,,,,,,,,,,,,,,,,,,,,,,,,
,,,,,,,,2023-08-16_08h43.50.384,HF_wild_card,2022.2.4,Win32,60.0024001,6266ac01a2a15cce6ed5fba7,64d2fd46c836a06233681665,64dc7d38b52a5be980b5128a,,,,,,,ctch,resources/DY.BMP,resources/DG.BMP,Door4,-0.334635417,-0.00390625,1,0,0,1.1426,optionLeft,80,12865,6,12,0,12,0,1,,,,,,,,,,,,,,,,,,,,,,,,,,,,,,,,,,,,,,,
,,,,,,,,2023-08-16_08h43.50.384,HF_wild_card,2022.2.4,Win32,60.0024001,6266ac01a2a15cce6ed5fba7,64d2fd46c836a06233681665,64dc7d38b52a5be980b5128a,,,,,,,decisionTrl,resources/DR.BMP,resources/DY.BMP,Door4,0.43359375,-0.002604167,1,0,0,1.3593,optionRight,60,12925,6,13,0,13,0,1,,,,,,,,,,,,,,,,,,,,,,,,,,,,,,,,,,,,,,,
,,,,,,,,2023-08-16_08h43.50.384,HF_wild_card,2022.2.4,Win32,60.0024001,6266ac01a2a15cce6ed5fba7,64d2fd46c836a06233681665,64dc7d38b52a5be980b5128a,,,,,,,decisionTrl,resources/DG.BMP,resources/DB.BMP,Door1,-0.33984375,0.001302083,1,0,0,2.3439,optionLeft,30,12955,6,14,0,14,0,1,,,,,,,,,,,,,,,,,,,,,,,,,,,,,,,,,,,,,,,
,,,,,,,,2023-08-16_08h43.50.384,HF_wild_card,2022.2.4,Win32,60.0024001,6266ac01a2a15cce6ed5fba7,64d2fd46c836a06233681665,64dc7d38b52a5be980b5128a,,,,,,,sngl,resources/Empty.png,resources/DR.BMP,WildCard_Ex,0.427083333,-0.00390625,1,0,0,1.028,optionRight,55,13010,6,15,0,15,0,1,,,,,,,,,,,,,,,,,,,,,,,,,,,,,,,,,,,,,,,
,,,,,,,,2023-08-16_08h43.50.384,HF_wild_card,2022.2.4,Win32,60.0024001,6266ac01a2a15cce6ed5fba7,64d2fd46c836a06233681665,64dc7d38b52a5be980b5128a,,,,,,,decisionTrl,resources/DBN.BMP,resources/DY.BMP,Door4,0.373697917,0.002604167,1,0,0,3.511,optionRight,80,13090,6,16,0,16,0,1,,,,,,,,,,,,,,,,,,,,,,,,,,,,,,,,,,,,,,,
,,,,,,,,2023-08-16_08h43.50.384,HF_wild_card,2022.2.4,Win32,60.0024001,6266ac01a2a15cce6ed5fba7,64d2fd46c836a06233681665,64dc7d38b52a5be980b5128a,,,,,,,decisionTrl,resources/DB.BMP,resources/DR.BMP,WildCard_Ex,0.372395833,0.00390625,1,0,0,1.3597,optionRight,55,13145,6,17,0,17,0,1,,,,,,,,,,,,,,,,,,,,,,,,,,,,,,,,,,,,,,,
,,,,,,,,2023-08-16_08h43.50.384,HF_wild_card,2022.2.4,Win32,60.0024001,6266ac01a2a15cce6ed5fba7,64d2fd46c836a06233681665,64dc7d38b52a5be980b5128a,,,,,,,decisionTrl,resources/DY.BMP,resources/DBN.BMP,Door4,-0.333333333,0,1,0,0,1.2778,optionLeft,60,13205,6,18,0,18,0,1,,,,,,,,,,,,,,,,,,,,,,,,,,,,,,,,,,,,,,,
,,,,,,,,2023-08-16_08h43.50.384,HF_wild_card,2022.2.4,Win32,60.0024001,6266ac01a2a15cce6ed5fba7,64d2fd46c836a06233681665,64dc7d38b52a5be980b5128a,,,,,,,decisionTrl,resources/DB.BMP,resources/DG.BMP,Door1,0.37109375,-0.01171875,1,0,0,2.0772,optionRight,30,13235,6,19,0,19,0,1,,,,,,,,,,,,,,,,,,,,,,,,,,,,,,,,,,,,,,,
,,,,,,,,2023-08-16_08h43.50.384,HF_wild_card,2022.2.4,Win32,60.0024001,6266ac01a2a15cce6ed5fba7,64d2fd46c836a06233681665,64dc7d38b52a5be980b5128a,,,,,,,sngl,resources/DBN.BMP,resources/Empty.png,Door3,-0.37109375,0.02734375,1,0,0,0.9776,optionLeft,70,13305,6,20,0,20,0,1,,,,,,,,,,,,,,,,,,,,,,,,,,,,,,,,,,,,,,,
,,,,,,,,2023-08-16_08h43.50.384,HF_wild_card,2022.2.4,Win32,60.0024001,6266ac01a2a15cce6ed5fba7,64d2fd46c836a06233681665,64dc7d38b52a5be980b5128a,,,,,,,decisionTrl,resources/DG.BMP,resources/DB.BMP,Door1,-0.342447917,0.00390625,1,0,0,2.3105,optionLeft,30,13335,6,21,0,21,0,1,,,,,,,,,,,,,,,,,,,,,,,,,,,,,,,,,,,,,,,
,,,,,,,,2023-08-16_08h43.50.384,HF_wild_card,2022.2.4,Win32,60.0024001,6266ac01a2a15cce6ed5fba7,64d2fd46c836a06233681665,64dc7d38b52a5be980b5128a,,,,,,,sngl,resources/DY.BMP,resources/Empty.png,Door4,-0.282552083,0,1,0,0,1.6113,optionLeft,60,13395,6,22,0,22,0,1,,,,,,,,,,,,,,,,,,,,,,,,,,,,,,,,,,,,,,,
,,,,,,,,2023-08-16_08h43.50.384,HF_wild_card,2022.2.4,Win32,60.0024001,6266ac01a2a15cce6ed5fba7,64d2fd46c836a06233681665,64dc7d38b52a5be980b5128a,,,,,,,decisionTrl,resources/DBN.BMP,resources/DR.BMP,Door3,-0.373697917,0.010416667,1,0,0,1.2611,optionLeft,70,13465,6,23,0,23,0,1,,,,,,,,,,,,,,,,,,,,,,,,,,,,,,,,,,,,,,,
,,,,,,,,2023-08-16_08h43.50.384,HF_wild_card,2022.2.4,Win32,60.0024001,6266ac01a2a15cce6ed5fba7,64d2fd46c836a06233681665,64dc7d38b52a5be980b5128a,,,,,,,decisionTrl,resources/DY.BMP,resources/DBN.BMP,Door3,0.43359375,0.044270833,1,0,0,2.3281,optionRight,70,13535,6,24,0,24,0,1,,,,,,,,,,,,,,,,,,,,,,,,,,,,,,,,,,,,,,,
,,,,,,,,2023-08-16_08h43.50.384,HF_wild_card,2022.2.4,Win32,60.0024001,6266ac01a2a15cce6ed5fba7,64d2fd46c836a06233681665,64dc7d38b52a5be980b5128a,,,,,,,ctch,resources/DG.BMP,resources/DY.BMP,Door4,0.391927083,-0.02734375,1,0,0,1.1758,optionRight,60,13595,6,25,0,25,0,1,,,,,,,,,,,,,,,,,,,,,,,,,,,,,,,,,,,,,,,
,,,,,,,,2023-08-16_08h43.50.384,HF_wild_card,2022.2.4,Win32,60.0024001,6266ac01a2a15cce6ed5fba7,64d2fd46c836a06233681665,64dc7d38b52a5be980b5128a,,,,,,,sngl,resources/DB.BMP,resources/Empty.png,Door2,-0.330729167,-0.0234375,1,0,0,1.0105,optionLeft,20,13615,6,26,0,26,0,1,,,,,,,,,,,,,,,,,,,,,,,,,,,,,,,,,,,,,,,
,,,,,,,,2023-08-16_08h43.50.384,HF_wild_card,2022.2.4,Win32,60.0024001,6266ac01a2a15cce6ed5fba7,64d2fd46c836a06233681665,64dc7d38b52a5be980b5128a,,,,,,,ctch,resources/DY.BMP,resources/DG.BMP,Door4,-0.29296875,-0.0234375,1,0,0,1.1219,optionLeft,80,13695,6,27,0,27,0,1,,,,,,,,,,,,,,,,,,,,,,,,,,,,,,,,,,,,,,,
,,,,,,,,2023-08-16_08h43.50.384,HF_wild_card,2022.2.4,Win32,60.0024001,6266ac01a2a15cce6ed5fba7,64d2fd46c836a06233681665,64dc7d38b52a5be980b5128a,,,,,,,ctch,resources/DB.BMP,resources/DBN.BMP,Door3,0.48046875,-0.01953125,1,0,0,1.3256,optionRight,70,13765,6,28,0,28,0,1,,,,,,,,,,,,,,,,,,,,,,,,,,,,,,,,,,,,,,,
,,,,,,,,2023-08-16_08h43.50.384,HF_wild_card,2022.2.4,Win32,60.0024001,6266ac01a2a15cce6ed5fba7,64d2fd46c836a06233681665,64dc7d38b52a5be980b5128a,,,,,,,sngl,resources/Empty.png,resources/DG.BMP,Door1,0.385416667,-0.06640625,1,0,0,1.4612,optionRight,30,13795,6,29,0,29,0,1,,,,,,,,,,,,,,,,,,,,,,,,,,,,,,,,,,,,,,,
,,,,,,,,2023-08-16_08h43.50.384,HF_wild_card,2022.2.4,Win32,60.0024001,6266ac01a2a15cce6ed5fba7,64d2fd46c836a06233681665,64dc7d38b52a5be980b5128a,,,,,,,sngl,resources/DR.BMP,resources/Empty.png,WildCard_Ex,-0.403645833,-0.0390625,1,0,0,1.1452,optionLeft,55,13850,6,30,0,30,0,1,,,,,,,,,,,,,,,,,,,,,,,,,,,,,,,,,,,,,,,
,,,,,,,,2023-08-16_08h43.50.384,HF_wild_card,2022.2.4,Win32,60.0024001,6266ac01a2a15cce6ed5fba7,64d2fd46c836a06233681665,64dc7d38b52a5be980b5128a,,,,,,,decisionTrl,resources/DB.BMP,resources/DG.BMP,Door1,0.427083333,-0.03515625,1,0,0,1.2445,optionRight,30,13880,6,31,0,31,0,1,,,,,,,,,,,,,,,,,,,,,,,,,,,,,,,,,,,,,,,
,,,,,,,,2023-08-16_08h43.50.384,HF_wild_card,2022.2.4,Win32,60.0024001,6266ac01a2a15cce6ed5fba7,64d2fd46c836a06233681665,64dc7d38b52a5be980b5128a,,,,,,,ctch,resources/DG.BMP,resources/DY.BMP,Door4,0.463541667,-0.028645833,1,0,0,1.1429,optionRight,80,13960,6,32,0,32,0,1,,,,,,,,,,,,,,,,,,,,,,,,,,,,,,,,,,,,,,,
,,,,,,,,2023-08-16_08h43.50.384,HF_wild_card,2022.2.4,Win32,60.0024001,6266ac01a2a15cce6ed5fba7,64d2fd46c836a06233681665,64dc7d38b52a5be980b5128a,,,,,,,sngl,resources/Empty.png,resources/DB.BMP,Door2,0.48828125,-0.024739583,1,0,0,1.3436,optionRight,40,14000,6,33,0,33,0,1,,,,,,,,,,,,,,,,,,,,,,,,,,,,,,,,,,,,,,,
,,,,,,,,2023-08-16_08h43.50.384,HF_wild_card,2022.2.4,Win32,60.0024001,6266ac01a2a15cce6ed5fba7,64d2fd46c836a06233681665,64dc7d38b52a5be980b5128a,,,,,,,ctch,resources/DBN.BMP,resources/DB.BMP,Door3,-0.393229167,-0.009114583,1,0,0,0.9782,optionLeft,70,14070,6,34,0,34,0,1,,,,,,,,,,,,,,,,,,,,,,,,,,,,,,,,,,,,,,,
,,,,,,,,2023-08-16_08h43.50.384,HF_wild_card,2022.2.4,Win32,60.0024001,6266ac01a2a15cce6ed5fba7,64d2fd46c836a06233681665,64dc7d38b52a5be980b5128a,,,,,,,decisionTrl,resources/DY.BMP,resources/DBN.BMP,Door4,-0.381510417,0.014322917,1,0,0,1.3419,optionLeft,80,14150,6,35,0,35,0,1,,,,,,,,,,,,,,,,,,,,,,,,,,,,,,,,,,,,,,,
,,,,,,,,2023-08-16_08h43.50.384,HF_wild_card,2022.2.4,Win32,60.0024001,6266ac01a2a15cce6ed5fba7,64d2fd46c836a06233681665,64dc7d38b52a5be980b5128a,,,,,,,sngl,resources/Empty.png,resources/DY.BMP,Door4,0.407552083,0.01171875,1,0,0,1.9124,optionRight,80,14230,6,36,0,36,0,1,,,,,,,,,,,,,,,,,,,,,,,,,,,,,,,,,,,,,,,
,,,,,,,,2023-08-16_08h43.50.384,HF_wild_card,2022.2.4,Win32,60.0024001,6266ac01a2a15cce6ed5fba7,64d2fd46c836a06233681665,64dc7d38b52a5be980b5128a,,,,,,,decisionTrl,resources/DBN.BMP,resources/DY.BMP,Door4,0.450520833,0.002604167,1,0,0,1.7112,optionRight,80,14310,6,37,0,37,0,1,,,,,,,,,,,,,,,,,,,,,,,,,,,,,,,,,,,,,,,
,,,,,,,,2023-08-16_08h43.50.384,HF_wild_card,2022.2.4,Win32,60.0024001,6266ac01a2a15cce6ed5fba7,64d2fd46c836a06233681665,64dc7d38b52a5be980b5128a,,,,,,,decisionTrl,resources/DR.BMP,resources/DBN.BMP,Door3,0.490885417,-0.00390625,1,0,0,1.211,optionRight,70,14380,6,38,0,38,0,1,,,,,,,,,,,,,,,,,,,,,,,,,,,,,,,,,,,,,,,
,,,,,,,,2023-08-16_08h43.50.384,HF_wild_card,2022.2.4,Win32,60.0024001,6266ac01a2a15cce6ed5fba7,64d2fd46c836a06233681665,64dc7d38b52a5be980b5128a,,,,,,,sngl,resources/DR.BMP,resources/Empty.png,WildCard_Ex,-0.397135417,0,1,0,0,1.5435,optionLeft,45,14425,6,39,0,39,0,1,,,,,,,,,,,,,,,,,,,,,,,,,,,,,,,,,,,,,,,
,,,,,,,,2023-08-16_08h43.50.384,HF_wild_card,2022.2.4,Win32,60.0024001,6266ac01a2a15cce6ed5fba7,64d2fd46c836a06233681665,64dc7d38b52a5be980b5128a,,,,,,,decisionTrl,resources/DR.BMP,resources/DB.BMP,WildCard_Ex,-0.352864583,0.005208333,1,0,0,1.2099,optionLeft,45,14470,6,40,0,40,0,1,,,,,,,,,,,,,,,,,,,,,,,,,,,,,,,,,,,,,,,
,,,,,,,,2023-08-16_08h43.50.384,HF_wild_card,2022.2.4,Win32,60.0024001,6266ac01a2a15cce6ed5fba7,64d2fd46c836a06233681665,64dc7d38b52a5be980b5128a,,,,,,,decisionTrl,resources/DG.BMP,resources/DB.BMP,Door1,-0.328125,0,1,0,0,2.3696,optionLeft,30,14500,6,41,0,41,0,1,,,,,,,,,,,,,,,,,,,,,,,,,,,,,,,,,,,,,,,
,,,,,,,,2023-08-16_08h43.50.384,HF_wild_card,2022.2.4,Win32,60.0024001,6266ac01a2a15cce6ed5fba7,64d2fd46c836a06233681665,64dc7d38b52a5be980b5128a,,,,,,,sngl,resources/DG.BMP,resources/Empty.png,Door1,-0.291666667,-0.006510417,1,0,0,1.0613,optionLeft,30,14530,6,42,0,42,0,1,,,,,,,,,,,,,,,,,,,,,,,,,,,,,,,,,,,,,,,
,,,,,,,,2023-08-16_08h43.50.384,HF_wild_card,2022.2.4,Win32,60.0024001,6266ac01a2a15cce6ed5fba7,64d2fd46c836a06233681665,64dc7d38b52a5be980b5128a,,,,,,,decisionTrl,resources/DB.BMP,resources/DG.BMP,Door1,0.390625,-0.026041667,1,0,0,1.8273,optionRight,30,14560,6,43,0,43,0,1,,,,,,,,,,,,,,,,,,,,,,,,,,,,,,,,,,,,,,,
,,,,,,,,2023-08-16_08h43.50.384,HF_wild_card,2022.2.4,Win32,60.0024001,6266ac01a2a15cce6ed5fba7,64d2fd46c836a06233681665,64dc7d38b52a5be980b5128a,,,,,,,,,,,,,,,,,,,,,,,,,,5,0,5,0,1,,,,,,,,,,,,,,,,,,,,,,,,,,,,,,,,,,
,,,,,,,,2023-08-16_08h43.50.384,HF_wild_card,2022.2.4,Win32,60.0024001,6266ac01a2a15cce6ed5fba7,64d2fd46c836a06233681665,64dc7d38b52a5be980b5128a,,,,,,,decisionTrl,resources/DG.BMP,resources/DB.BMP,Door1,-0.38671875,-0.11328125,1,0,0,2.3549,optionLeft,30,14590,7,0,0,0,0,1,,,,,,,,,,,,,,,,,,,,,,,,,,,,,,,,,,,,,,,
,,,,,,,,2023-08-16_08h43.50.384,HF_wild_card,2022.2.4,Win32,60.0024001,6266ac01a2a15cce6ed5fba7,64d2fd46c836a06233681665,64dc7d38b52a5be980b5128a,,,,,,,decisionTrl,resources/DBN.BMP,resources/DY.BMP,Door4,0.42578125,-0.03515625,1,0,0,2.5457,optionRight,80,14670,7,1,0,1,0,1,,,,,,,,,,,,,,,,,,,,,,,,,,,,,,,,,,,,,,,
,,,,,,,,2023-08-16_08h43.50.384,HF_wild_card,2022.2.4,Win32,60.0024001,6266ac01a2a15cce6ed5fba7,64d2fd46c836a06233681665,64dc7d38b52a5be980b5128a,,,,,,,decisionTrl,resources/DY.BMP,resources/DBN.BMP,Door4,-0.359375,-0.032552083,1,0,0,3.2963,optionLeft,80,14750,7,2,0,2,0,1,,,,,,,,,,,,,,,,,,,,,,,,,,,,,,,,,,,,,,,
,,,,,,,,2023-08-16_08h43.50.384,HF_wild_card,2022.2.4,Win32,60.0024001,6266ac01a2a15cce6ed5fba7,64d2fd46c836a06233681665,64dc7d38b52a5be980b5128a,,,,,,,ctch,resources/DG.BMP,resources/DY.BMP,Door4,0.4296875,-0.02734375,1,0,0,1.445,optionRight,60,14810,7,3,0,3,0,1,,,,,,,,,,,,,,,,,,,,,,,,,,,,,,,,,,,,,,,
,,,,,,,,2023-08-16_08h43.50.384,HF_wild_card,2022.2.4,Win32,60.0024001,6266ac01a2a15cce6ed5fba7,64d2fd46c836a06233681665,64dc7d38b52a5be980b5128a,,,,,,,ctch,resources/DBN.BMP,resources/DB.BMP,Door3,-0.361979167,0.013020833,1,0,0,1.296,optionLeft,70,14880,7,4,0,4,0,1,,,,,,,,,,,,,,,,,,,,,,,,,,,,,,,,,,,,,,,
,,,,,,,,2023-08-16_08h43.50.384,HF_wild_card,2022.2.4,Win32,60.0024001,6266ac01a2a15cce6ed5fba7,64d2fd46c836a06233681665,64dc7d38b52a5be980b5128a,,,,,,,decisionTrl,resources/DG.BMP,resources/DB.BMP,Door1,-0.329427083,-0.040364583,1,0,0,1.7957,optionLeft,30,14910,7,5,0,5,0,1,,,,,,,,,,,,,,,,,,,,,,,,,,,,,,,,,,,,,,,
,,,,,,,,2023-08-16_08h43.50.384,HF_wild_card,2022.2.4,Win32,60.0024001,6266ac01a2a15cce6ed5fba7,64d2fd46c836a06233681665,64dc7d38b52a5be980b5128a,,,,,,,decisionTrl,resources/DBN.BMP,resources/DY.BMP,Door3,-0.42578125,-0.0234375,1,0,0,2.3631,optionLeft,70,14980,7,6,0,6,0,1,,,,,,,,,,,,,,,,,,,,,,,,,,,,,,,,,,,,,,,
,,,,,,,,2023-08-16_08h43.50.384,HF_wild_card,2022.2.4,Win32,60.0024001,6266ac01a2a15cce6ed5fba7,64d2fd46c836a06233681665,64dc7d38b52a5be980b5128a,,,,,,,decisionTrl,resources/DB.BMP,resources/DG.BMP,Door1,0.412760417,-0.046875,1,0,0,2.9966,optionRight,30,15010,7,7,0,7,0,1,,,,,,,,,,,,,,,,,,,,,,,,,,,,,,,,,,,,,,,
,,,,,,,,2023-08-16_08h43.50.384,HF_wild_card,2022.2.4,Win32,60.0024001,6266ac01a2a15cce6ed5fba7,64d2fd46c836a06233681665,64dc7d38b52a5be980b5128a,,,,,,,decisionTrl,resources/DG.BMP,resources/DB.BMP,Door1,-0.35546875,-0.04296875,1,0,0,1.3804,optionLeft,30,15040,7,8,0,8,0,1,,,,,,,,,,,,,,,,,,,,,,,,,,,,,,,,,,,,,,,
,,,,,,,,2023-08-16_08h43.50.384,HF_wild_card,2022.2.4,Win32,60.0024001,6266ac01a2a15cce6ed5fba7,64d2fd46c836a06233681665,64dc7d38b52a5be980b5128a,,,,,,,ctch,resources/DB.BMP,resources/DBN.BMP,Door3,0.470052083,-0.018229167,1,0,0,1.3852,optionRight,70,15110,7,9,0,9,0,1,,,,,,,,,,,,,,,,,,,,,,,,,,,,,,,,,,,,,,,
,,,,,,,,2023-08-16_08h43.50.384,HF_wild_card,2022.2.4,Win32,60.0024001,6266ac01a2a15cce6ed5fba7,64d2fd46c836a06233681665,64dc7d38b52a5be980b5128a,,,,,,,ctch,resources/DG.BMP,resources/DY.BMP,Door4,0.44921875,-0.009114583,1,0,0,1.3646,optionRight,80,15190,7,10,0,10,0,1,,,,,,,,,,,,,,,,,,,,,,,,,,,,,,,,,,,,,,,
,,,,,,,,2023-08-16_08h43.50.384,HF_wild_card,2022.2.4,Win32,60.0024001,6266ac01a2a15cce6ed5fba7,64d2fd46c836a06233681665,64dc7d38b52a5be980b5128a,,,,,,,ctch,resources/DY.BMP,resources/DG.BMP,Door4,-0.34765625,-0.015625,1,0,0,1.1928,optionLeft,60,15250,7,11,0,11,0,1,,,,,,,,,,,,,,,,,,,,,,,,,,,,,,,,,,,,,,,
,,,,,,,,2023-08-16_08h43.50.384,HF_wild_card,2022.2.4,Win32,60.0024001,6266ac01a2a15cce6ed5fba7,64d2fd46c836a06233681665,64dc7d38b52a5be980b5128a,,,,,,,decisionTrl,resources/DY.BMP,resources/DBN.BMP,Door4,-0.345052083,-0.014322917,1,0,0,1.581,optionLeft,60,15310,7,12,0,12,0,1,,,,,,,,,,,,,,,,,,,,,,,,,,,,,,,,,,,,,,,
,,,,,,,,2023-08-16_08h43.50.384,HF_wild_card,2022.2.4,Win32,60.0024001,6266ac01a2a15cce6ed5fba7,64d2fd46c836a06233681665,64dc7d38b52a5be980b5128a,,,,,,,decisionTrl,resources/DBN.BMP,resources/DY.BMP,Door3,-0.3203125,0.0078125,1,0,0,2.4427,optionLeft,70,15380,7,13,0,13,0,1,,,,,,,,,,,,,,,,,,,,,,,,,,,,,,,,,,,,,,,
,,,,,,,,2023-08-16_08h43.50.384,HF_wild_card,2022.2.4,Win32,60.0024001,6266ac01a2a15cce6ed5fba7,64d2fd46c836a06233681665,64dc7d38b52a5be980b5128a,,,,,,,decisionTrl,resources/DY.BMP,resources/DBN.BMP,Door3,0.4296875,-0.002604167,1,0,0,2.3962,optionRight,70,15450,7,14,0,14,0,1,,,,,,,,,,,,,,,,,,,,,,,,,,,,,,,,,,,,,,,
,,,,,,,,2023-08-16_08h43.50.384,HF_wild_card,2022.2.4,Win32,60.0024001,6266ac01a2a15cce6ed5fba7,64d2fd46c836a06233681665,64dc7d38b52a5be980b5128a,,,,,,,decisionTrl,resources/DY.BMP,resources/DBN.BMP,Door3,0.44921875,0,1,0,0,1.0487,optionRight,70,15520,7,15,0,15,0,1,,,,,,,,,,,,,,,,,,,,,,,,,,,,,,,,,,,,,,,
,,,,,,,,2023-08-16_08h43.50.384,HF_wild_card,2022.2.4,Win32,60.0024001,6266ac01a2a15cce6ed5fba7,64d2fd46c836a06233681665,64dc7d38b52a5be980b5128a,,,,,,,decisionTrl,resources/DG.BMP,resources/DB.BMP,Door1,-0.346354167,-0.0078125,1,0,0,1.3966,optionLeft,30,15550,7,16,0,16,0,1,,,,,,,,,,,,,,,,,,,,,,,,,,,,,,,,,,,,,,,
,,,,,,,,2023-08-16_08h43.50.384,HF_wild_card,2022.2.4,Win32,60.0024001,6266ac01a2a15cce6ed5fba7,64d2fd46c836a06233681665,64dc7d38b52a5be980b5128a,,,,,,,decisionTrl,resources/DB.BMP,resources/DG.BMP,Door1,0.40234375,-0.01171875,1,0,0,1.0981,optionRight,30,15580,7,17,0,17,0,1,,,,,,,,,,,,,,,,,,,,,,,,,,,,,,,,,,,,,,,
,,,,,,,,2023-08-16_08h43.50.384,HF_wild_card,2022.2.4,Win32,60.0024001,6266ac01a2a15cce6ed5fba7,64d2fd46c836a06233681665,64dc7d38b52a5be980b5128a,,,,,,,decisionTrl,resources/DBN.BMP,resources/DY.BMP,Door3,-0.338541667,-0.005208333,1,0,0,2.4138,optionLeft,70,15650,7,18,0,18,0,1,,,,,,,,,,,,,,,,,,,,,,,,,,,,,,,,,,,,,,,
,,,,,,,,2023-08-16_08h43.50.384,HF_wild_card,2022.2.4,Win32,60.0024001,6266ac01a2a15cce6ed5fba7,64d2fd46c836a06233681665,64dc7d38b52a5be980b5128a,,,,,,,decisionTrl,resources/DBN.BMP,resources/DY.BMP,Door3,-0.35546875,-0.005208333,1,0,0,1.0138,optionLeft,70,15720,7,19,0,19,0,1,,,,,,,,,,,,,,,,,,,,,,,,,,,,,,,,,,,,,,,
,,,,,,,,2023-08-16_08h43.50.384,HF_wild_card,2022.2.4,Win32,60.0024001,6266ac01a2a15cce6ed5fba7,64d2fd46c836a06233681665,64dc7d38b52a5be980b5128a,,,,,,,decisionTrl,resources/DG.BMP,resources/DB.BMP,Door1,-0.311197917,-0.028645833,1,0,0,1.6958,optionLeft,30,15750,7,20,0,20,0,1,,,,,,,,,,,,,,,,,,,,,,,,,,,,,,,,,,,,,,,
,,,,,,,,2023-08-16_08h43.50.384,HF_wild_card,2022.2.4,Win32,60.0024001,6266ac01a2a15cce6ed5fba7,64d2fd46c836a06233681665,64dc7d38b52a5be980b5128a,,,,,,,decisionTrl,resources/DB.BMP,resources/DG.BMP,Door1,0.451822917,-0.010416667,1,0,0,0.9288,optionRight,30,15780,7,21,0,21,0,1,,,,,,,,,,,,,,,,,,,,,,,,,,,,,,,,,,,,,,,
,,,,,,,,2023-08-16_08h43.50.384,HF_wild_card,2022.2.4,Win32,60.0024001,6266ac01a2a15cce6ed5fba7,64d2fd46c836a06233681665,64dc7d38b52a5be980b5128a,,,,,,,decisionTrl,resources/DY.BMP,resources/DBN.BMP,Door4,-0.34375,-0.010416667,1,0,0,1.5959,optionLeft,60,15840,7,22,0,22,0,1,,,,,,,,,,,,,,,,,,,,,,,,,,,,,,,,,,,,,,,
,,,,,,,,2023-08-16_08h43.50.384,HF_wild_card,2022.2.4,Win32,60.0024001,6266ac01a2a15cce6ed5fba7,64d2fd46c836a06233681665,64dc7d38b52a5be980b5128a,,,,,,,decisionTrl,resources/DB.BMP,resources/DG.BMP,Door1,0.427083333,-0.02734375,1,0,0,1.0969,optionRight,30,15870,7,23,0,23,0,1,,,,,,,,,,,,,,,,,,,,,,,,,,,,,,,,,,,,,,,
,,,,,,,,2023-08-16_08h43.50.384,HF_wild_card,2022.2.4,Win32,60.0024001,6266ac01a2a15cce6ed5fba7,64d2fd46c836a06233681665,64dc7d38b52a5be980b5128a,,,,,,,decisionTrl,resources/DY.BMP,resources/DBN.BMP,Door3,0.466145833,-0.015625,1,0,0,1.579,optionRight,70,15940,7,24,0,24,0,1,,,,,,,,,,,,,,,,,,,,,,,,,,,,,,,,,,,,,,,
,,,,,,,,2023-08-16_08h43.50.384,HF_wild_card,2022.2.4,Win32,60.0024001,6266ac01a2a15cce6ed5fba7,64d2fd46c836a06233681665,64dc7d38b52a5be980b5128a,,,,,,,ctch,resources/DB.BMP,resources/DBN.BMP,Door3,0.295572917,-0.010416667,1,0,0,1.1224,optionRight,70,16010,7,25,0,25,0,1,,,,,,,,,,,,,,,,,,,,,,,,,,,,,,,,,,,,,,,
,,,,,,,,2023-08-16_08h43.50.384,HF_wild_card,2022.2.4,Win32,60.0024001,6266ac01a2a15cce6ed5fba7,64d2fd46c836a06233681665,64dc7d38b52a5be980b5128a,,,,,,,ctch,resources/DY.BMP,resources/DG.BMP,Door4,-0.369791667,-0.018229167,1,0,0,1.1294,optionLeft,80,16090,7,26,0,26,0,1,,,,,,,,,,,,,,,,,,,,,,,,,,,,,,,,,,,,,,,
,,,,,,,,2023-08-16_08h43.50.384,HF_wild_card,2022.2.4,Win32,60.0024001,6266ac01a2a15cce6ed5fba7,64d2fd46c836a06233681665,64dc7d38b52a5be980b5128a,,,,,,,ctch,resources/DBN.BMP,resources/DB.BMP,Door3,-0.421875,-0.022135417,1,0,0,0.8627,optionLeft,70,16160,7,27,0,27,0,1,,,,,,,,,,,,,,,,,,,,,,,,,,,,,,,,,,,,,,,
,,,,,,,,2023-08-16_08h43.50.384,HF_wild_card,2022.2.4,Win32,60.0024001,6266ac01a2a15cce6ed5fba7,64d2fd46c836a06233681665,64dc7d38b52a5be980b5128a,,,,,,,decisionTrl,resources/DB.BMP,resources/DG.BMP,Door1,0.42578125,-0.072916667,1,0,0,1.031,optionRight,30,16190,7,28,0,28,0,1,,,,,,,,,,,,,,,,,,,,,,,,,,,,,,,,,,,,,,,
,,,,,,,,2023-08-16_08h43.50.384,HF_wild_card,2022.2.4,Win32,60.0024001,6266ac01a2a15cce6ed5fba7,64d2fd46c836a06233681665,64dc7d38b52a5be980b5128a,,,,,,,ctch,resources/DB.BMP,resources/DBN.BMP,Door3,0.395833333,-0.036458333,1,0,0,0.8632,optionRight,70,16260,7,29,0,29,0,1,,,,,,,,,,,,,,,,,,,,,,,,,,,,,,,,,,,,,,,
,,,,,,,,2023-08-16_08h43.50.384,HF_wild_card,2022.2.4,Win32,60.0024001,6266ac01a2a15cce6ed5fba7,64d2fd46c836a06233681665,64dc7d38b52a5be980b5128a,,,,,,,decisionTrl,resources/DB.BMP,resources/DG.BMP,Door1,0.408854167,-0.024739583,1,0,0,1.3463,optionRight,30,16290,7,30,0,30,0,1,,,,,,,,,,,,,,,,,,,,,,,,,,,,,,,,,,,,,,,
,,,,,,,,2023-08-16_08h43.50.384,HF_wild_card,2022.2.4,Win32,60.0024001,6266ac01a2a15cce6ed5fba7,64d2fd46c836a06233681665,64dc7d38b52a5be980b5128a,,,,,,,decisionTrl,resources/DG.BMP,resources/DB.BMP,Door1,-0.322916667,-0.03125,1,0,0,0.8995,optionLeft,30,16320,7,31,0,31,0,1,,,,,,,,,,,,,,,,,,,,,,,,,,,,,,,,,,,,,,,
,,,,,,,,2023-08-16_08h43.50.384,HF_wild_card,2022.2.4,Win32,60.0024001,6266ac01a2a15cce6ed5fba7,64d2fd46c836a06233681665,64dc7d38b52a5be980b5128a,,,,,,,ctch,resources/DG.BMP,resources/DY.BMP,Door4,0.361979167,-0.03125,1,0,0,1.0791,optionRight,80,16400,7,32,0,32,0,1,,,,,,,,,,,,,,,,,,,,,,,,,,,,,,,,,,,,,,,
,,,,,,,,2023-08-16_08h43.50.384,HF_wild_card,2022.2.4,Win32,60.0024001,6266ac01a2a15cce6ed5fba7,64d2fd46c836a06233681665,64dc7d38b52a5be980b5128a,,,,,,,ctch,resources/DBN.BMP,resources/DB.BMP,Door3,-0.298177083,0.002604167,1,0,0,1.0965,optionLeft,70,16470,7,33,0,33,0,1,,,,,,,,,,,,,,,,,,,,,,,,,,,,,,,,,,,,,,,
,,,,,,,,2023-08-16_08h43.50.384,HF_wild_card,2022.2.4,Win32,60.0024001,6266ac01a2a15cce6ed5fba7,64d2fd46c836a06233681665,64dc7d38b52a5be980b5128a,,,,,,,ctch,resources/DY.BMP,resources/DG.BMP,Door4,-0.272135417,-0.013020833,1,0,0,1.0456,optionLeft,60,16530,7,34,0,34,0,1,,,,,,,,,,,,,,,,,,,,,,,,,,,,,,,,,,,,,,,
,,,,,,,,2023-08-16_08h43.50.384,HF_wild_card,2022.2.4,Win32,60.0024001,6266ac01a2a15cce6ed5fba7,64d2fd46c836a06233681665,64dc7d38b52a5be980b5128a,,,,,,,decisionTrl,resources/DBN.BMP,resources/DY.BMP,Door3,-0.321614583,-0.013020833,1,0,0,1.6637,optionLeft,70,16600,7,35,0,35,0,1,,,,,,,,,,,,,,,,,,,,,,,,,,,,,,,,,,,,,,,
,,,,,,,,2023-08-16_08h43.50.384,HF_wild_card,2022.2.4,Win32,60.0024001,6266ac01a2a15cce6ed5fba7,64d2fd46c836a06233681665,64dc7d38b52a5be980b5128a,,,,,,,,,,,,,,,,,,,,,,,,,,6,0,6,0,1,,,,,,,,,,,,,,,,,,,,,,,,,,,,,,,,,,
,,,,,,,,2023-08-16_08h43.50.384,HF_wild_card,2022.2.4,Win32,60.0024001,6266ac01a2a15cce6ed5fba7,64d2fd46c836a06233681665,64dc7d38b52a5be980b5128a,,,,,,,,,,,,,,,,,,,,,,,,,,,,,,,4,,,,,,,,,,,,,,,,,,,,,,,,,,,,,,,,,
,,,,,,,,2023-08-16_08h43.50.384,HF_wild_card,2022.2.4,Win32,60.0024001,6266ac01a2a15cce6ed5fba7,64d2fd46c836a06233681665,64dc7d38b52a5be980b5128a,,,,,,,,,,,,,,,,,,,,,,,,,,,,,,,,,,,,,,,,,,,,,,,,,,,,,,,,,,,,,,,,
,,,,,,,,2023-08-16_08h43.50.384,HF_wild_card,2022.2.4,Win32,60.0024001,6266ac01a2a15cce6ed5fba7,64d2fd46c836a06233681665,64dc7d38b52a5be980b5128a,,,,,,,,,,,,,,,,,,,,,,,,,,,,,,,,55,WC_extreme,resources/DR.BMP,0,0,0,0,1,,,,,,,,,,,,,,,,,,,,,,,,,
,,,,,,,,2023-08-16_08h43.50.384,HF_wild_card,2022.2.4,Win32,60.0024001,6266ac01a2a15cce6ed5fba7,64d2fd46c836a06233681665,64dc7d38b52a5be980b5128a,,,,,,,,,,,,,,,,,,,,,,,,,,,,,,,,30,Door1,resources/DG.BMP,1,0,1,0,1,,,,,,,,,,,,,,,,,,,,,,,,,
,,,,,,,,2023-08-16_08h43.50.384,HF_wild_card,2022.2.4,Win32,60.0024001,6266ac01a2a15cce6ed5fba7,64d2fd46c836a06233681665,64dc7d38b52a5be980b5128a,,,,,,,,,,,,,,,,,,,,,,,,,,,,,,,,70,Door3,resources/DBN.BMP,2,0,2,0,1,,,,,,,,,,,,,,,,,,,,,,,,,
,,,,,,,,2023-08-16_08h43.50.384,HF_wild_card,2022.2.4,Win32,60.0024001,6266ac01a2a15cce6ed5fba7,64d2fd46c836a06233681665,64dc7d38b52a5be980b5128a,,,,,,,,,,,,,,,,,,,,,,,,,,,,,,,,45,WC_nonExtreme,resources/DP.BMP,3,0,3,0,1,,,,,,,,,,,,,,,,,,,,,,,,,
,,,,,,,,2023-08-16_08h43.50.384,HF_wild_card,2022.2.4,Win32,60.0024001,6266ac01a2a15cce6ed5fba7,64d2fd46c836a06233681665,64dc7d38b52a5be980b5128a,,,,,,,,,,,,,,,,,,,,,,,,,,,,,,,,20,Door2,resources/DB.BMP,4,0,4,0,1,,,,,,,,,,,,,,,,,,,,,,,,,
,,,,,,,,2023-08-16_08h43.50.384,HF_wild_card,2022.2.4,Win32,60.0024001,6266ac01a2a15cce6ed5fba7,64d2fd46c836a06233681665,64dc7d38b52a5be980b5128a,,,,,,,,,,,,,,,,,,,,,,,,,,,,,,,,80,Door4,resources/DY.BMP,5,0,5,0,1,,,,,,,,,,,,,,,,,,,,,,,,,
,,,,,,,,2023-08-16_08h43.50.384,HF_wild_card,2022.2.4,Win32,60.0024001,6266ac01a2a15cce6ed5fba7,64d2fd46c836a06233681665,64dc7d38b52a5be980b5128a,,,,,,,,,,,,,,,,,,,,,,,,,,,,,,,,,,,,,,,,,,,,,,,,,,,,,,,,,,,,,,,,
,,,,,,,,2023-08-16_08h43.50.384,HF_wild_card,2022.2.4,Win32,60.0024001,6266ac01a2a15cce6ed5fba7,64d2fd46c836a06233681665,64dc7d38b52a5be980b5128a,,,,,,,,,,,,,,,,,,,,,,,,,,,,,,,,,,,,,,,,0,0,0,0,1,,,,,,,,,,,,,,,,,,,,
,,,,,,,,2023-08-16_08h43.50.384,HF_wild_card,2022.2.4,Win32,60.0024001,6266ac01a2a15cce6ed5fba7,64d2fd46c836a06233681665,64dc7d38b52a5be980b5128a,,,,,,,,,,,,,,,,,,,,,,,,,,,,,,,,,,,,,,,,1,0,1,0,1,,,,,,,,,,,,,,,,,,,,
,,,,,,,,2023-08-16_08h43.50.384,HF_wild_card,2022.2.4,Win32,60.0024001,6266ac01a2a15cce6ed5fba7,64d2fd46c836a06233681665,64dc7d38b52a5be980b5128a,,,,,,,,,,,,,,,,,,,,,,,,,,,,,,,,,,,,,,,,,,,,,0.302083333,-0.403645833,1,0,0,no,0,0,0,0,1,,,,,,,,,
