Condition,Low fixed image (Door1),Low risky image (Door2),High fixed image (Door3),High risky image (Door4),NonExtreme Wild Card 1,NonExtreme Wild Card 2,,date,expName,psychopyVersion,OS,frameRate,PROLIFIC_PID,STUDY_ID,SESSION_ID,mouse_2.x,mouse_2.y,mouse_2.leftButton,mouse_2.midButton,mouse_2.rightButton,mouse_2.clicked_name,Trial Type,Left Option Image,Right Option Image,Chosen Door,mouse.x,mouse.y,mouse.leftButton,mouse.midButton,mouse.rightButton,mouse.time,mouse.clicked_name,Feedback,Cumulative Reward,Block,trial.thisRepN,trial.thisTrialN,trial.thisN,trial.thisIndex,trial.ran,blocks.thisRepN,blocks.thisTrialN,blocks.thisN,blocks.thisIndex,blocks.ran,Money conversion,First Outcome Reported,Shown Door (First Outcome),Displayed Image (First Outcome),outcomes.thisRepN,outcomes.thisTrialN,outcomes.thisN,outcomes.thisIndex,outcomes.ran,judgments.thisRepN,judgments.thisTrialN,judgments.thisN,judgments.thisIndex,judgments.ran,freqMouse.x,freqMouse.y,freqMouse.leftButton,freqMouse.midButton,freqMouse.rightButton,freqMouse.clicked_name,FQJ for first outcome,FQJ for second outcome,Shown Door,Displayed Image,trials.thisRepN,trials.thisTrialN,trials.thisN,trials.thisIndex,trials.ran,judgBlock.thisRepN,judgBlock.thisTrialN,judgBlock.thisN,judgBlock.thisIndex,judgBlock.ran
2,resources/DR.BMP,resources/DP.BMP,resources/DBN.BMP,resources/DB.BMP,resources/DY.BMP,resources/DG.BMP,,2023-08-16_08h46.30.050,HF_wild_card,2022.2.4,Win32,59.95203837,5b7c2541afb6ca00016af5ee,64d2fd46c836a06233681665,64dc7eb142b74eebd71f2197,,,,,,,,,,,,,,,,,,,,,,,,,,,,,,,,,,,,,,,,,,,,,,,,,,,,,,,,,,,,,,,,
,,,,,,,,2023-08-16_08h46.30.050,HF_wild_card,2022.2.4,Win32,59.95203837,5b7c2541afb6ca00016af5ee,64d2fd46c836a06233681665,64dc7eb142b74eebd71f2197,-0.007407407,-0.411111111,1,0,0,agree,,,,,,,,,,,,,,,,,,,,,,,,,,,,,,,,,,,,,,,,,,,,,,,,,,,,,,,,,,
,,,,,,,,2023-08-16_08h46.30.050,HF_wild_card,2022.2.4,Win32,59.95203837,5b7c2541afb6ca00016af5ee,64d2fd46c836a06233681665,64dc7eb142b74eebd71f2197,,,,,,,,,,,,,,,,,,,,,,,,,,,,,,,,,,,,,,,,,,,,,,,,,,,,,,,,,,,,,,,,
,,,,,,,,2023-08-16_08h46.30.050,HF_wild_card,2022.2.4,Win32,59.95203837,5b7c2541afb6ca00016af5ee,64d2fd46c836a06233681665,64dc7eb142b74eebd71f2197,,,,,,,sngl,resources/DP.BMP,resources/Empty.png,Door2,-0.377777778,-0.082407407,1,0,0,1.67,optionLeft,40,40,1,0,0,0,0,1,,,,,,,,,,,,,,,,,,,,,,,,,,,,,,,,,,,,,,,
,,,,,,,,2023-08-16_08h46.30.050,HF_wild_card,2022.2.4,Win32,59.95203837,5b7c2541afb6ca00016af5ee,64d2fd46c836a06233681665,64dc7eb142b74eebd71f2197,,,,,,,decisionTrl,resources/DP.BMP,resources/DG.BMP,WildCard_NonEx,0.340740741,-0.006481481,1,0,0,1.745,optionRight,45,85,1,1,0,1,0,1,,,,,,,,,,,,,,,,,,,,,,,,,,,,,,,,,,,,,,,
,,,,,,,,2023-08-16_08h46.30.050,HF_wild_card,2022.2.4,Win32,59.95203837,5b7c2541afb6ca00016af5ee,64d2fd46c836a06233681665,64dc7eb142b74eebd71f2197,,,,,,,sngl,resources/Empty.png,resources/DR.BMP,Door1,0.348148148,-0.043518519,1,0,0,1.711,optionRight,30,115,1,2,0,2,0,1,,,,,,,,,,,,,,,,,,,,,,,,,,,,,,,,,,,,,,,
,,,,,,,,2023-08-16_08h46.30.050,HF_wild_card,2022.2.4,Win32,59.95203837,5b7c2541afb6ca00016af5ee,64d2fd46c836a06233681665,64dc7eb142b74eebd71f2197,,,,,,,decisionTrl,resources/DBN.BMP,resources/DB.BMP,Door3,-0.297222222,-0.002777778,1,0,0,1.945,optionLeft,70,185,1,3,0,3,0,1,,,,,,,,,,,,,,,,,,,,,,,,,,,,,,,,,,,,,,,
,,,,,,,,2023-08-16_08h46.30.050,HF_wild_card,2022.2.4,Win32,59.95203837,5b7c2541afb6ca00016af5ee,64d2fd46c836a06233681665,64dc7eb142b74eebd71f2197,,,,,,,sngl,resources/Empty.png,resources/DG.BMP,WildCard_NonEx,0.328703704,-0.018518519,1,0,0,1.145,optionRight,55,240,1,4,0,4,0,1,,,,,,,,,,,,,,,,,,,,,,,,,,,,,,,,,,,,,,,
,,,,,,,,2023-08-16_08h46.30.050,HF_wild_card,2022.2.4,Win32,59.95203837,5b7c2541afb6ca00016af5ee,64d2fd46c836a06233681665,64dc7eb142b74eebd71f2197,,,,,,,sngl,resources/DBN.BMP,resources/Empty.png,Door3,-0.322222222,0.010185185,1,0,0,1.28,optionLeft,70,310,1,5,0,5,0,1,,,,,,,,,,,,,,,,,,,,,,,,,,,,,,,,,,,,,,,
,,,,,,,,2023-08-16_08h46.30.050,HF_wild_card,2022.2.4,Win32,59.95203837,5b7c2541afb6ca00016af5ee,64d2fd46c836a06233681665,64dc7eb142b74eebd71f2197,,,,,,,decisionTrl,resources/DBN.BMP,resources/DB.BMP,Door3,-0.382407407,0.012037037,1,0,0,2.08,optionLeft,70,380,1,6,0,6,0,1,,,,,,,,,,,,,,,,,,,,,,,,,,,,,,,,,,,,,,,
,,,,,,,,2023-08-16_08h46.30.050,HF_wild_card,2022.2.4,Win32,59.95203837,5b7c2541afb6ca00016af5ee,64d2fd46c836a06233681665,64dc7eb142b74eebd71f2197,,,,,,,decisionTrl,resources/DP.BMP,resources/DR.BMP,Door1,0.287962963,-0.015740741,1,0,0,1.847,optionRight,30,410,1,7,0,7,0,1,,,,,,,,,,,,,,,,,,,,,,,,,,,,,,,,,,,,,,,
,,,,,,,,2023-08-16_08h46.30.050,HF_wild_card,2022.2.4,Win32,59.95203837,5b7c2541afb6ca00016af5ee,64d2fd46c836a06233681665,64dc7eb142b74eebd71f2197,,,,,,,sngl,resources/DR.BMP,resources/Empty.png,Door1,-0.355555556,-0.022222222,1,0,0,1.147,optionLeft,30,440,1,8,0,8,0,1,,,,,,,,,,,,,,,,,,,,,,,,,,,,,,,,,,,,,,,
,,,,,,,,2023-08-16_08h46.30.050,HF_wild_card,2022.2.4,Win32,59.95203837,5b7c2541afb6ca00016af5ee,64d2fd46c836a06233681665,64dc7eb142b74eebd71f2197,,,,,,,ctch,resources/DR.BMP,resources/DB.BMP,Door4,0.364814815,-0.025,1,0,0,1.18,optionRight,80,520,1,9,0,9,0,1,,,,,,,,,,,,,,,,,,,,,,,,,,,,,,,,,,,,,,,
,,,,,,,,2023-08-16_08h46.30.050,HF_wild_card,2022.2.4,Win32,59.95203837,5b7c2541afb6ca00016af5ee,64d2fd46c836a06233681665,64dc7eb142b74eebd71f2197,,,,,,,decisionTrl,resources/DP.BMP,resources/DR.BMP,Door2,-0.389814815,-0.094444444,1,0,0,2.064,optionLeft,40,560,1,10,0,10,0,1,,,,,,,,,,,,,,,,,,,,,,,,,,,,,,,,,,,,,,,
,,,,,,,,2023-08-16_08h46.30.050,HF_wild_card,2022.2.4,Win32,59.95203837,5b7c2541afb6ca00016af5ee,64d2fd46c836a06233681665,64dc7eb142b74eebd71f2197,,,,,,,decisionTrl,resources/DB.BMP,resources/DBN.BMP,Door3,0.322222222,-0.047222222,1,0,0,1.79,optionRight,70,630,1,11,0,11,0,1,,,,,,,,,,,,,,,,,,,,,,,,,,,,,,,,,,,,,,,
,,,,,,,,2023-08-16_08h46.30.050,HF_wild_card,2022.2.4,Win32,59.95203837,5b7c2541afb6ca00016af5ee,64d2fd46c836a06233681665,64dc7eb142b74eebd71f2197,,,,,,,decisionTrl,resources/DG.BMP,resources/DBN.BMP,Door3,0.332407407,-0.024074074,1,0,0,1.679,optionRight,70,700,1,12,0,12,0,1,,,,,,,,,,,,,,,,,,,,,,,,,,,,,,,,,,,,,,,
,,,,,,,,2023-08-16_08h46.30.050,HF_wild_card,2022.2.4,Win32,59.95203837,5b7c2541afb6ca00016af5ee,64d2fd46c836a06233681665,64dc7eb142b74eebd71f2197,,,,,,,decisionTrl,resources/DR.BMP,resources/DP.BMP,Door2,0.386111111,-0.031481481,1,0,0,1.346,optionRight,40,740,1,13,0,13,0,1,,,,,,,,,,,,,,,,,,,,,,,,,,,,,,,,,,,,,,,
,,,,,,,,2023-08-16_08h46.30.050,HF_wild_card,2022.2.4,Win32,59.95203837,5b7c2541afb6ca00016af5ee,64d2fd46c836a06233681665,64dc7eb142b74eebd71f2197,,,,,,,decisionTrl,resources/DBN.BMP,resources/DG.BMP,Door3,-0.360185185,-0.001851852,1,0,0,1.397,optionLeft,70,810,1,14,0,14,0,1,,,,,,,,,,,,,,,,,,,,,,,,,,,,,,,,,,,,,,,
,,,,,,,,2023-08-16_08h46.30.050,HF_wild_card,2022.2.4,Win32,59.95203837,5b7c2541afb6ca00016af5ee,64d2fd46c836a06233681665,64dc7eb142b74eebd71f2197,,,,,,,decisionTrl,resources/DB.BMP,resources/DBN.BMP,Door3,0.306481481,0.013888889,1,0,0,1.746,optionRight,70,880,1,15,0,15,0,1,,,,,,,,,,,,,,,,,,,,,,,,,,,,,,,,,,,,,,,
,,,,,,,,2023-08-16_08h46.30.050,HF_wild_card,2022.2.4,Win32,59.95203837,5b7c2541afb6ca00016af5ee,64d2fd46c836a06233681665,64dc7eb142b74eebd71f2197,,,,,,,ctch,resources/DB.BMP,resources/DR.BMP,Door4,-0.449074074,-0.043518519,1,0,0,1.43,optionLeft,80,960,1,16,0,16,0,1,,,,,,,,,,,,,,,,,,,,,,,,,,,,,,,,,,,,,,,
,,,,,,,,2023-08-16_08h46.30.050,HF_wild_card,2022.2.4,Win32,59.95203837,5b7c2541afb6ca00016af5ee,64d2fd46c836a06233681665,64dc7eb142b74eebd71f2197,,,,,,,decisionTrl,resources/DP.BMP,resources/DR.BMP,Door2,-0.310185185,-0.015740741,1,0,0,1.331,optionLeft,40,1000,1,17,0,17,0,1,,,,,,,,,,,,,,,,,,,,,,,,,,,,,,,,,,,,,,,
,,,,,,,,2023-08-16_08h46.30.050,HF_wild_card,2022.2.4,Win32,59.95203837,5b7c2541afb6ca00016af5ee,64d2fd46c836a06233681665,64dc7eb142b74eebd71f2197,,,,,,,ctch,resources/DP.BMP,resources/DBN.BMP,Door3,0.347222222,-0.012962963,1,0,0,1.247,optionRight,70,1070,1,18,0,18,0,1,,,,,,,,,,,,,,,,,,,,,,,,,,,,,,,,,,,,,,,
,,,,,,,,2023-08-16_08h46.30.050,HF_wild_card,2022.2.4,Win32,59.95203837,5b7c2541afb6ca00016af5ee,64d2fd46c836a06233681665,64dc7eb142b74eebd71f2197,,,,,,,decisionTrl,resources/DG.BMP,resources/DB.BMP,WildCard_NonEx,-0.309259259,-0.040740741,1,0,0,2.13,optionLeft,45,1115,1,19,0,19,0,1,,,,,,,,,,,,,,,,,,,,,,,,,,,,,,,,,,,,,,,
,,,,,,,,2023-08-16_08h46.30.050,HF_wild_card,2022.2.4,Win32,59.95203837,5b7c2541afb6ca00016af5ee,64d2fd46c836a06233681665,64dc7eb142b74eebd71f2197,,,,,,,decisionTrl,resources/DP.BMP,resources/DR.BMP,Door2,-0.313888889,-0.030555556,1,0,0,1.214,optionLeft,20,1135,1,20,0,20,0,1,,,,,,,,,,,,,,,,,,,,,,,,,,,,,,,,,,,,,,,
,,,,,,,,2023-08-16_08h46.30.050,HF_wild_card,2022.2.4,Win32,59.95203837,5b7c2541afb6ca00016af5ee,64d2fd46c836a06233681665,64dc7eb142b74eebd71f2197,,,,,,,decisionTrl,resources/DBN.BMP,resources/DB.BMP,Door3,-0.303703704,-0.02037037,1,0,0,1.456,optionLeft,70,1205,1,21,0,21,0,1,,,,,,,,,,,,,,,,,,,,,,,,,,,,,,,,,,,,,,,
,,,,,,,,2023-08-16_08h46.30.050,HF_wild_card,2022.2.4,Win32,59.95203837,5b7c2541afb6ca00016af5ee,64d2fd46c836a06233681665,64dc7eb142b74eebd71f2197,,,,,,,decisionTrl,resources/DB.BMP,resources/DG.BMP,Door4,-0.285185185,-0.034259259,1,0,0,1.929,optionLeft,80,1285,1,22,0,22,0,1,,,,,,,,,,,,,,,,,,,,,,,,,,,,,,,,,,,,,,,
,,,,,,,,2023-08-16_08h46.30.050,HF_wild_card,2022.2.4,Win32,59.95203837,5b7c2541afb6ca00016af5ee,64d2fd46c836a06233681665,64dc7eb142b74eebd71f2197,,,,,,,sngl,resources/Empty.png,resources/DP.BMP,Door2,0.322222222,-0.025,1,0,0,0.881,optionRight,20,1305,1,23,0,23,0,1,,,,,,,,,,,,,,,,,,,,,,,,,,,,,,,,,,,,,,,
,,,,,,,,2023-08-16_08h46.30.050,HF_wild_card,2022.2.4,Win32,59.95203837,5b7c2541afb6ca00016af5ee,64d2fd46c836a06233681665,64dc7eb142b74eebd71f2197,,,,,,,decisionTrl,resources/DR.BMP,resources/DP.BMP,Door1,-0.340740741,-0.049074074,1,0,0,1.464,optionLeft,30,1335,1,24,0,24,0,1,,,,,,,,,,,,,,,,,,,,,,,,,,,,,,,,,,,,,,,
,,,,,,,,2023-08-16_08h46.30.050,HF_wild_card,2022.2.4,Win32,59.95203837,5b7c2541afb6ca00016af5ee,64d2fd46c836a06233681665,64dc7eb142b74eebd71f2197,,,,,,,decisionTrl,resources/DR.BMP,resources/DG.BMP,WildCard_NonEx,0.24537037,-0.011111111,1,0,0,1.129,optionRight,55,1390,1,25,0,25,0,1,,,,,,,,,,,,,,,,,,,,,,,,,,,,,,,,,,,,,,,
,,,,,,,,2023-08-16_08h46.30.050,HF_wild_card,2022.2.4,Win32,59.95203837,5b7c2541afb6ca00016af5ee,64d2fd46c836a06233681665,64dc7eb142b74eebd71f2197,,,,,,,decisionTrl,resources/DG.BMP,resources/DR.BMP,WildCard_NonEx,-0.324074074,-0.04537037,1,0,0,1.231,optionLeft,45,1435,1,26,0,26,0,1,,,,,,,,,,,,,,,,,,,,,,,,,,,,,,,,,,,,,,,
,,,,,,,,2023-08-16_08h46.30.050,HF_wild_card,2022.2.4,Win32,59.95203837,5b7c2541afb6ca00016af5ee,64d2fd46c836a06233681665,64dc7eb142b74eebd71f2197,,,,,,,decisionTrl,resources/DBN.BMP,resources/DB.BMP,Door3,-0.334259259,-0.038888889,1,0,0,1.081,optionLeft,70,1505,1,27,0,27,0,1,,,,,,,,,,,,,,,,,,,,,,,,,,,,,,,,,,,,,,,
,,,,,,,,2023-08-16_08h46.30.050,HF_wild_card,2022.2.4,Win32,59.95203837,5b7c2541afb6ca00016af5ee,64d2fd46c836a06233681665,64dc7eb142b74eebd71f2197,,,,,,,decisionTrl,resources/DR.BMP,resources/DP.BMP,Door2,0.350925926,0.012962963,1,0,0,2.014,optionRight,40,1545,1,28,0,28,0,1,,,,,,,,,,,,,,,,,,,,,,,,,,,,,,,,,,,,,,,
,,,,,,,,2023-08-16_08h46.30.050,HF_wild_card,2022.2.4,Win32,59.95203837,5b7c2541afb6ca00016af5ee,64d2fd46c836a06233681665,64dc7eb142b74eebd71f2197,,,,,,,decisionTrl,resources/DG.BMP,resources/DP.BMP,WildCard_NonEx,-0.282407407,-0.025,1,0,0,1.764,optionLeft,45,1590,1,29,0,29,0,1,,,,,,,,,,,,,,,,,,,,,,,,,,,,,,,,,,,,,,,
,,,,,,,,2023-08-16_08h46.30.050,HF_wild_card,2022.2.4,Win32,59.95203837,5b7c2541afb6ca00016af5ee,64d2fd46c836a06233681665,64dc7eb142b74eebd71f2197,,,,,,,decisionTrl,resources/DB.BMP,resources/DBN.BMP,Door3,0.292592593,-0.003703704,1,0,0,1.28,optionRight,70,1660,1,30,0,30,0,1,,,,,,,,,,,,,,,,,,,,,,,,,,,,,,,,,,,,,,,
,,,,,,,,2023-08-16_08h46.30.050,HF_wild_card,2022.2.4,Win32,59.95203837,5b7c2541afb6ca00016af5ee,64d2fd46c836a06233681665,64dc7eb142b74eebd71f2197,,,,,,,sngl,resources/Empty.png,resources/DG.BMP,WildCard_NonEx,0.284259259,0.012962963,1,0,0,1.114,optionRight,45,1705,1,31,0,31,0,1,,,,,,,,,,,,,,,,,,,,,,,,,,,,,,,,,,,,,,,
,,,,,,,,2023-08-16_08h46.30.050,HF_wild_card,2022.2.4,Win32,59.95203837,5b7c2541afb6ca00016af5ee,64d2fd46c836a06233681665,64dc7eb142b74eebd71f2197,,,,,,,ctch,resources/DR.BMP,resources/DB.BMP,Door4,0.273148148,-0.017592593,1,0,0,1.444,optionRight,60,1765,1,32,0,32,0,1,,,,,,,,,,,,,,,,,,,,,,,,,,,,,,,,,,,,,,,
,,,,,,,,2023-08-16_08h46.30.050,HF_wild_card,2022.2.4,Win32,59.95203837,5b7c2541afb6ca00016af5ee,64d2fd46c836a06233681665,64dc7eb142b74eebd71f2197,,,,,,,sngl,resources/DG.BMP,resources/Empty.png,WildCard_NonEx,-0.285185185,-0.047222222,1,0,0,1.095,optionLeft,45,1810,1,33,0,33,0,1,,,,,,,,,,,,,,,,,,,,,,,,,,,,,,,,,,,,,,,
,,,,,,,,2023-08-16_08h46.30.050,HF_wild_card,2022.2.4,Win32,59.95203837,5b7c2541afb6ca00016af5ee,64d2fd46c836a06233681665,64dc7eb142b74eebd71f2197,,,,,,,ctch,resources/DP.BMP,resources/DBN.BMP,Door3,0.334259259,-0.001851852,1,0,0,1.246,optionRight,70,1880,1,34,0,34,0,1,,,,,,,,,,,,,,,,,,,,,,,,,,,,,,,,,,,,,,,
,,,,,,,,2023-08-16_08h46.30.050,HF_wild_card,2022.2.4,Win32,59.95203837,5b7c2541afb6ca00016af5ee,64d2fd46c836a06233681665,64dc7eb142b74eebd71f2197,,,,,,,sngl,resources/Empty.png,resources/DB.BMP,Door4,0.275,0.00462963,1,0,0,1.146,optionRight,60,1940,1,35,0,35,0,1,,,,,,,,,,,,,,,,,,,,,,,,,,,,,,,,,,,,,,,
,,,,,,,,2023-08-16_08h46.30.050,HF_wild_card,2022.2.4,Win32,59.95203837,5b7c2541afb6ca00016af5ee,64d2fd46c836a06233681665,64dc7eb142b74eebd71f2197,,,,,,,decisionTrl,resources/DB.BMP,resources/DBN.BMP,Door3,0.314814815,0.008333333,1,0,0,1.462,optionRight,70,2010,1,36,0,36,0,1,,,,,,,,,,,,,,,,,,,,,,,,,,,,,,,,,,,,,,,
,,,,,,,,2023-08-16_08h46.30.050,HF_wild_card,2022.2.4,Win32,59.95203837,5b7c2541afb6ca00016af5ee,64d2fd46c836a06233681665,64dc7eb142b74eebd71f2197,,,,,,,sngl,resources/DB.BMP,resources/Empty.png,Door4,-0.364814815,-0.016666667,1,0,0,0.914,optionLeft,80,2090,1,37,0,37,0,1,,,,,,,,,,,,,,,,,,,,,,,,,,,,,,,,,,,,,,,
,,,,,,,,2023-08-16_08h46.30.050,HF_wild_card,2022.2.4,Win32,59.95203837,5b7c2541afb6ca00016af5ee,64d2fd46c836a06233681665,64dc7eb142b74eebd71f2197,,,,,,,ctch,resources/DB.BMP,resources/DR.BMP,Door4,-0.298148148,-0.055555556,1,0,0,1.147,optionLeft,60,2150,1,38,0,38,0,1,,,,,,,,,,,,,,,,,,,,,,,,,,,,,,,,,,,,,,,
,,,,,,,,2023-08-16_08h46.30.050,HF_wild_card,2022.2.4,Win32,59.95203837,5b7c2541afb6ca00016af5ee,64d2fd46c836a06233681665,64dc7eb142b74eebd71f2197,,,,,,,sngl,resources/DG.BMP,resources/Empty.png,WildCard_NonEx,-0.299074074,-0.047222222,1,0,0,1.082,optionLeft,55,2205,1,39,0,39,0,1,,,,,,,,,,,,,,,,,,,,,,,,,,,,,,,,,,,,,,,
,,,,,,,,2023-08-16_08h46.30.050,HF_wild_card,2022.2.4,Win32,59.95203837,5b7c2541afb6ca00016af5ee,64d2fd46c836a06233681665,64dc7eb142b74eebd71f2197,,,,,,,sngl,resources/Empty.png,resources/DBN.BMP,Door3,0.408333333,0.030555556,1,0,0,1.38,optionRight,70,2275,1,40,0,40,0,1,,,,,,,,,,,,,,,,,,,,,,,,,,,,,,,,,,,,,,,
,,,,,,,,2023-08-16_08h46.30.050,HF_wild_card,2022.2.4,Win32,59.95203837,5b7c2541afb6ca00016af5ee,64d2fd46c836a06233681665,64dc7eb142b74eebd71f2197,,,,,,,ctch,resources/DBN.BMP,resources/DP.BMP,Door3,-0.327777778,-0.025925926,1,0,0,1.33,optionLeft,70,2345,1,41,0,41,0,1,,,,,,,,,,,,,,,,,,,,,,,,,,,,,,,,,,,,,,,
,,,,,,,,2023-08-16_08h46.30.050,HF_wild_card,2022.2.4,Win32,59.95203837,5b7c2541afb6ca00016af5ee,64d2fd46c836a06233681665,64dc7eb142b74eebd71f2197,,,,,,,decisionTrl,resources/DR.BMP,resources/DP.BMP,Door2,0.368518519,0.000925926,1,0,0,1.33,optionRight,40,2385,1,42,0,42,0,1,,,,,,,,,,,,,,,,,,,,,,,,,,,,,,,,,,,,,,,
,,,,,,,,2023-08-16_08h46.30.050,HF_wild_card,2022.2.4,Win32,59.95203837,5b7c2541afb6ca00016af5ee,64d2fd46c836a06233681665,64dc7eb142b74eebd71f2197,,,,,,,ctch,resources/DBN.BMP,resources/DP.BMP,Door3,-0.339814815,-0.024074074,1,0,0,1.274,optionLeft,70,2455,1,43,0,43,0,1,,,,,,,,,,,,,,,,,,,,,,,,,,,,,,,,,,,,,,,
,,,,,,,,2023-08-16_08h46.30.050,HF_wild_card,2022.2.4,Win32,59.95203837,5b7c2541afb6ca00016af5ee,64d2fd46c836a06233681665,64dc7eb142b74eebd71f2197,,,,,,,,,,,,,,,,,,,,,,,,,,0,0,0,0,1,,,,,,,,,,,,,,,,,,,,,,,,,,,,,,,,,,
,,,,,,,,2023-08-16_08h46.30.050,HF_wild_card,2022.2.4,Win32,59.95203837,5b7c2541afb6ca00016af5ee,64d2fd46c836a06233681665,64dc7eb142b74eebd71f2197,,,,,,,decisionTrl,resources/DR.BMP,resources/DP.BMP,Door2,0.357407407,-0.016666667,1,0,0,1.34,optionRight,40,2495,2,0,0,0,0,1,,,,,,,,,,,,,,,,,,,,,,,,,,,,,,,,,,,,,,,
,,,,,,,,2023-08-16_08h46.30.050,HF_wild_card,2022.2.4,Win32,59.95203837,5b7c2541afb6ca00016af5ee,64d2fd46c836a06233681665,64dc7eb142b74eebd71f2197,,,,,,,ctch,resources/DP.BMP,resources/DBN.BMP,Door3,0.309259259,0.044444444,1,0,0,1.129,optionRight,70,2565,2,1,0,1,0,1,,,,,,,,,,,,,,,,,,,,,,,,,,,,,,,,,,,,,,,
,,,,,,,,2023-08-16_08h46.30.050,HF_wild_card,2022.2.4,Win32,59.95203837,5b7c2541afb6ca00016af5ee,64d2fd46c836a06233681665,64dc7eb142b74eebd71f2197,,,,,,,sngl,resources/Empty.png,resources/DB.BMP,Door4,0.344444444,-0.012962963,1,0,0,1.014,optionRight,80,2645,2,2,0,2,0,1,,,,,,,,,,,,,,,,,,,,,,,,,,,,,,,,,,,,,,,
,,,,,,,,2023-08-16_08h46.30.050,HF_wild_card,2022.2.4,Win32,59.95203837,5b7c2541afb6ca00016af5ee,64d2fd46c836a06233681665,64dc7eb142b74eebd71f2197,,,,,,,ctch,resources/DB.BMP,resources/DR.BMP,Door4,-0.287962963,-0.048148148,1,0,0,1.129,optionLeft,80,2725,2,3,0,3,0,1,,,,,,,,,,,,,,,,,,,,,,,,,,,,,,,,,,,,,,,
,,,,,,,,2023-08-16_08h46.30.050,HF_wild_card,2022.2.4,Win32,59.95203837,5b7c2541afb6ca00016af5ee,64d2fd46c836a06233681665,64dc7eb142b74eebd71f2197,,,,,,,decisionTrl,resources/DR.BMP,resources/DP.BMP,Door2,0.352777778,-0.068518519,1,0,0,1.414,optionRight,40,2765,2,4,0,4,0,1,,,,,,,,,,,,,,,,,,,,,,,,,,,,,,,,,,,,,,,
,,,,,,,,2023-08-16_08h46.30.050,HF_wild_card,2022.2.4,Win32,59.95203837,5b7c2541afb6ca00016af5ee,64d2fd46c836a06233681665,64dc7eb142b74eebd71f2197,,,,,,,decisionTrl,resources/DB.BMP,resources/DBN.BMP,Door3,0.321296296,0.025,1,0,0,1.197,optionRight,70,2835,2,5,0,5,0,1,,,,,,,,,,,,,,,,,,,,,,,,,,,,,,,,,,,,,,,
,,,,,,,,2023-08-16_08h46.30.050,HF_wild_card,2022.2.4,Win32,59.95203837,5b7c2541afb6ca00016af5ee,64d2fd46c836a06233681665,64dc7eb142b74eebd71f2197,,,,,,,sngl,resources/Empty.png,resources/DBN.BMP,Door3,0.435185185,0.017592593,1,0,0,1.396,optionRight,70,2905,2,6,0,6,0,1,,,,,,,,,,,,,,,,,,,,,,,,,,,,,,,,,,,,,,,
,,,,,,,,2023-08-16_08h46.30.050,HF_wild_card,2022.2.4,Win32,59.95203837,5b7c2541afb6ca00016af5ee,64d2fd46c836a06233681665,64dc7eb142b74eebd71f2197,,,,,,,decisionTrl,resources/DBN.BMP,resources/DB.BMP,Door3,-0.313888889,-0.001851852,1,0,0,1.449,optionLeft,70,2975,2,7,0,7,0,1,,,,,,,,,,,,,,,,,,,,,,,,,,,,,,,,,,,,,,,
,,,,,,,,2023-08-16_08h46.30.050,HF_wild_card,2022.2.4,Win32,59.95203837,5b7c2541afb6ca00016af5ee,64d2fd46c836a06233681665,64dc7eb142b74eebd71f2197,,,,,,,decisionTrl,resources/DBN.BMP,resources/DB.BMP,Door3,-0.3,-0.027777778,1,0,0,1.246,optionLeft,70,3045,2,8,0,8,0,1,,,,,,,,,,,,,,,,,,,,,,,,,,,,,,,,,,,,,,,
,,,,,,,,2023-08-16_08h46.30.050,HF_wild_card,2022.2.4,Win32,59.95203837,5b7c2541afb6ca00016af5ee,64d2fd46c836a06233681665,64dc7eb142b74eebd71f2197,,,,,,,sngl,resources/Empty.png,resources/DR.BMP,Door1,0.330555556,-0.021296296,1,0,0,1.057,optionRight,30,3075,2,9,0,9,0,1,,,,,,,,,,,,,,,,,,,,,,,,,,,,,,,,,,,,,,,
,,,,,,,,2023-08-16_08h46.30.050,HF_wild_card,2022.2.4,Win32,59.95203837,5b7c2541afb6ca00016af5ee,64d2fd46c836a06233681665,64dc7eb142b74eebd71f2197,,,,,,,decisionTrl,resources/DBN.BMP,resources/DB.BMP,Door3,-0.297222222,-0.011111111,1,0,0,1.18,optionLeft,70,3145,2,10,0,10,0,1,,,,,,,,,,,,,,,,,,,,,,,,,,,,,,,,,,,,,,,
,,,,,,,,2023-08-16_08h46.30.050,HF_wild_card,2022.2.4,Win32,59.95203837,5b7c2541afb6ca00016af5ee,64d2fd46c836a06233681665,64dc7eb142b74eebd71f2197,,,,,,,sngl,resources/DBN.BMP,resources/Empty.png,Door3,-0.290740741,-0.012962963,1,0,0,1.213,optionLeft,70,3215,2,11,0,11,0,1,,,,,,,,,,,,,,,,,,,,,,,,,,,,,,,,,,,,,,,
,,,,,,,,2023-08-16_08h46.30.050,HF_wild_card,2022.2.4,Win32,59.95203837,5b7c2541afb6ca00016af5ee,64d2fd46c836a06233681665,64dc7eb142b74eebd71f2197,,,,,,,decisionTrl,resources/DG.BMP,resources/DB.BMP,Door4,0.247222222,-0.083333333,1,0,0,2.431,optionRight,80,3295,2,12,0,12,0,1,,,,,,,,,,,,,,,,,,,,,,,,,,,,,,,,,,,,,,,
,,,,,,,,2023-08-16_08h46.30.050,HF_wild_card,2022.2.4,Win32,59.95203837,5b7c2541afb6ca00016af5ee,64d2fd46c836a06233681665,64dc7eb142b74eebd71f2197,,,,,,,decisionTrl,resources/DR.BMP,resources/DP.BMP,Door2,0.403703704,-0.058333333,1,0,0,1.214,optionRight,20,3315,2,13,0,13,0,1,,,,,,,,,,,,,,,,,,,,,,,,,,,,,,,,,,,,,,,
,,,,,,,,2023-08-16_08h46.30.050,HF_wild_card,2022.2.4,Win32,59.95203837,5b7c2541afb6ca00016af5ee,64d2fd46c836a06233681665,64dc7eb142b74eebd71f2197,,,,,,,sngl,resources/Empty.png,resources/DP.BMP,Door2,0.366666667,-0.030555556,1,0,0,0.931,optionRight,40,3355,2,14,0,14,0,1,,,,,,,,,,,,,,,,,,,,,,,,,,,,,,,,,,,,,,,
,,,,,,,,2023-08-16_08h46.30.050,HF_wild_card,2022.2.4,Win32,59.95203837,5b7c2541afb6ca00016af5ee,64d2fd46c836a06233681665,64dc7eb142b74eebd71f2197,,,,,,,ctch,resources/DR.BMP,resources/DB.BMP,Door4,0.296296296,-0.010185185,1,0,0,1.58,optionRight,80,3435,2,15,0,15,0,1,,,,,,,,,,,,,,,,,,,,,,,,,,,,,,,,,,,,,,,
,,,,,,,,2023-08-16_08h46.30.050,HF_wild_card,2022.2.4,Win32,59.95203837,5b7c2541afb6ca00016af5ee,64d2fd46c836a06233681665,64dc7eb142b74eebd71f2197,,,,,,,sngl,resources/DG.BMP,resources/Empty.png,WildCard_NonEx,-0.327777778,0.008333333,1,0,0,1.081,optionLeft,45,3480,2,16,0,16,0,1,,,,,,,,,,,,,,,,,,,,,,,,,,,,,,,,,,,,,,,
,,,,,,,,2023-08-16_08h46.30.050,HF_wild_card,2022.2.4,Win32,59.95203837,5b7c2541afb6ca00016af5ee,64d2fd46c836a06233681665,64dc7eb142b74eebd71f2197,,,,,,,decisionTrl,resources/DBN.BMP,resources/DB.BMP,Door3,-0.397222222,-0.016666667,1,0,0,1.114,optionLeft,70,3550,2,17,0,17,0,1,,,,,,,,,,,,,,,,,,,,,,,,,,,,,,,,,,,,,,,
,,,,,,,,2023-08-16_08h46.30.050,HF_wild_card,2022.2.4,Win32,59.95203837,5b7c2541afb6ca00016af5ee,64d2fd46c836a06233681665,64dc7eb142b74eebd71f2197,,,,,,,sngl,resources/DR.BMP,resources/Empty.png,Door1,-0.337962963,-0.037037037,1,0,0,0.913,optionLeft,30,3580,2,18,0,18,0,1,,,,,,,,,,,,,,,,,,,,,,,,,,,,,,,,,,,,,,,
,,,,,,,,2023-08-16_08h46.30.050,HF_wild_card,2022.2.4,Win32,59.95203837,5b7c2541afb6ca00016af5ee,64d2fd46c836a06233681665,64dc7eb142b74eebd71f2197,,,,,,,sngl,resources/Empty.png,resources/DG.BMP,WildCard_NonEx,0.423148148,0.007407407,1,0,0,0.995,optionRight,45,3625,2,19,0,19,0,1,,,,,,,,,,,,,,,,,,,,,,,,,,,,,,,,,,,,,,,
,,,,,,,,2023-08-16_08h46.30.050,HF_wild_card,2022.2.4,Win32,59.95203837,5b7c2541afb6ca00016af5ee,64d2fd46c836a06233681665,64dc7eb142b74eebd71f2197,,,,,,,decisionTrl,resources/DR.BMP,resources/DP.BMP,Door1,-0.362037037,-0.061111111,1,0,0,1.551,optionLeft,30,3655,2,20,0,20,0,1,,,,,,,,,,,,,,,,,,,,,,,,,,,,,,,,,,,,,,,
,,,,,,,,2023-08-16_08h46.30.050,HF_wild_card,2022.2.4,Win32,59.95203837,5b7c2541afb6ca00016af5ee,64d2fd46c836a06233681665,64dc7eb142b74eebd71f2197,,,,,,,decisionTrl,resources/DB.BMP,resources/DBN.BMP,Door3,0.35462963,-0.04537037,1,0,0,1.044,optionRight,70,3725,2,21,0,21,0,1,,,,,,,,,,,,,,,,,,,,,,,,,,,,,,,,,,,,,,,
,,,,,,,,2023-08-16_08h46.30.050,HF_wild_card,2022.2.4,Win32,59.95203837,5b7c2541afb6ca00016af5ee,64d2fd46c836a06233681665,64dc7eb142b74eebd71f2197,,,,,,,ctch,resources/DBN.BMP,resources/DP.BMP,Door3,-0.572222222,-0.013888889,1,0,0,1.297,optionLeft,70,3795,2,22,0,22,0,1,,,,,,,,,,,,,,,,,,,,,,,,,,,,,,,,,,,,,,,
,,,,,,,,2023-08-16_08h46.30.050,HF_wild_card,2022.2.4,Win32,59.95203837,5b7c2541afb6ca00016af5ee,64d2fd46c836a06233681665,64dc7eb142b74eebd71f2197,,,,,,,sngl,resources/DG.BMP,resources/Empty.png,WildCard_NonEx,-0.352777778,0.02037037,1,0,0,0.862,optionLeft,55,3850,2,23,0,23,0,1,,,,,,,,,,,,,,,,,,,,,,,,,,,,,,,,,,,,,,,
,,,,,,,,2023-08-16_08h46.30.050,HF_wild_card,2022.2.4,Win32,59.95203837,5b7c2541afb6ca00016af5ee,64d2fd46c836a06233681665,64dc7eb142b74eebd71f2197,,,,,,,decisionTrl,resources/DP.BMP,resources/DR.BMP,Door1,0.367592593,-0.025,1,0,0,1.514,optionRight,30,3880,2,24,0,24,0,1,,,,,,,,,,,,,,,,,,,,,,,,,,,,,,,,,,,,,,,
,,,,,,,,2023-08-16_08h46.30.050,HF_wild_card,2022.2.4,Win32,59.95203837,5b7c2541afb6ca00016af5ee,64d2fd46c836a06233681665,64dc7eb142b74eebd71f2197,,,,,,,ctch,resources/DB.BMP,resources/DR.BMP,Door4,-0.355555556,-0.037037037,1,0,0,1.315,optionLeft,80,3960,2,25,0,25,0,1,,,,,,,,,,,,,,,,,,,,,,,,,,,,,,,,,,,,,,,
,,,,,,,,2023-08-16_08h46.30.050,HF_wild_card,2022.2.4,Win32,59.95203837,5b7c2541afb6ca00016af5ee,64d2fd46c836a06233681665,64dc7eb142b74eebd71f2197,,,,,,,decisionTrl,resources/DG.BMP,resources/DR.BMP,WildCard_NonEx,-0.297222222,-0.02962963,1,0,0,1.281,optionLeft,55,4015,2,26,0,26,0,1,,,,,,,,,,,,,,,,,,,,,,,,,,,,,,,,,,,,,,,
,,,,,,,,2023-08-16_08h46.30.050,HF_wild_card,2022.2.4,Win32,59.95203837,5b7c2541afb6ca00016af5ee,64d2fd46c836a06233681665,64dc7eb142b74eebd71f2197,,,,,,,decisionTrl,resources/DB.BMP,resources/DBN.BMP,Door3,0.351851852,-0.005555556,1,0,0,1.08,optionRight,70,4085,2,27,0,27,0,1,,,,,,,,,,,,,,,,,,,,,,,,,,,,,,,,,,,,,,,
,,,,,,,,2023-08-16_08h46.30.050,HF_wild_card,2022.2.4,Win32,59.95203837,5b7c2541afb6ca00016af5ee,64d2fd46c836a06233681665,64dc7eb142b74eebd71f2197,,,,,,,decisionTrl,resources/DG.BMP,resources/DBN.BMP,Door3,0.42037037,-0.02037037,1,0,0,1.231,optionRight,70,4155,2,28,0,28,0,1,,,,,,,,,,,,,,,,,,,,,,,,,,,,,,,,,,,,,,,
,,,,,,,,2023-08-16_08h46.30.050,HF_wild_card,2022.2.4,Win32,59.95203837,5b7c2541afb6ca00016af5ee,64d2fd46c836a06233681665,64dc7eb142b74eebd71f2197,,,,,,,ctch,resources/DBN.BMP,resources/DP.BMP,Door3,-0.319444444,-0.075925926,1,0,0,1.246,optionLeft,70,4225,2,29,0,29,0,1,,,,,,,,,,,,,,,,,,,,,,,,,,,,,,,,,,,,,,,
,,,,,,,,2023-08-16_08h46.30.050,HF_wild_card,2022.2.4,Win32,59.95203837,5b7c2541afb6ca00016af5ee,64d2fd46c836a06233681665,64dc7eb142b74eebd71f2197,,,,,,,decisionTrl,resources/DR.BMP,resources/DG.BMP,WildCard_NonEx,0.402777778,-0.018518519,1,0,0,1.413,optionRight,55,4280,2,30,0,30,0,1,,,,,,,,,,,,,,,,,,,,,,,,,,,,,,,,,,,,,,,
,,,,,,,,2023-08-16_08h46.30.050,HF_wild_card,2022.2.4,Win32,59.95203837,5b7c2541afb6ca00016af5ee,64d2fd46c836a06233681665,64dc7eb142b74eebd71f2197,,,,,,,sngl,resources/DB.BMP,resources/Empty.png,Door4,-0.334259259,-0.018518519,1,0,0,1.072,optionLeft,60,4340,2,31,0,31,0,1,,,,,,,,,,,,,,,,,,,,,,,,,,,,,,,,,,,,,,,
,,,,,,,,2023-08-16_08h46.30.050,HF_wild_card,2022.2.4,Win32,59.95203837,5b7c2541afb6ca00016af5ee,64d2fd46c836a06233681665,64dc7eb142b74eebd71f2197,,,,,,,sngl,resources/Empty.png,resources/DG.BMP,WildCard_NonEx,0.312962963,-0.002777778,1,0,0,1.013,optionRight,55,4395,2,32,0,32,0,1,,,,,,,,,,,,,,,,,,,,,,,,,,,,,,,,,,,,,,,
,,,,,,,,2023-08-16_08h46.30.050,HF_wild_card,2022.2.4,Win32,59.95203837,5b7c2541afb6ca00016af5ee,64d2fd46c836a06233681665,64dc7eb142b74eebd71f2197,,,,,,,sngl,resources/DP.BMP,resources/Empty.png,Door2,-0.319444444,-0.037962963,1,0,0,1.047,optionLeft,20,4415,2,33,0,33,0,1,,,,,,,,,,,,,,,,,,,,,,,,,,,,,,,,,,,,,,,
,,,,,,,,2023-08-16_08h46.30.050,HF_wild_card,2022.2.4,Win32,59.95203837,5b7c2541afb6ca00016af5ee,64d2fd46c836a06233681665,64dc7eb142b74eebd71f2197,,,,,,,decisionTrl,resources/DBN.BMP,resources/DG.BMP,Door3,-0.291666667,-0.023148148,1,0,0,1.447,optionLeft,70,4485,2,34,0,34,0,1,,,,,,,,,,,,,,,,,,,,,,,,,,,,,,,,,,,,,,,
,,,,,,,,2023-08-16_08h46.30.050,HF_wild_card,2022.2.4,Win32,59.95203837,5b7c2541afb6ca00016af5ee,64d2fd46c836a06233681665,64dc7eb142b74eebd71f2197,,,,,,,decisionTrl,resources/DB.BMP,resources/DBN.BMP,Door3,0.446296296,-0.015740741,1,0,0,1.382,optionRight,70,4555,2,35,0,35,0,1,,,,,,,,,,,,,,,,,,,,,,,,,,,,,,,,,,,,,,,
,,,,,,,,2023-08-16_08h46.30.050,HF_wild_card,2022.2.4,Win32,59.95203837,5b7c2541afb6ca00016af5ee,64d2fd46c836a06233681665,64dc7eb142b74eebd71f2197,,,,,,,decisionTrl,resources/DP.BMP,resources/DR.BMP,Door1,0.290740741,-0.044444444,1,0,0,1.398,optionRight,30,4585,2,36,0,36,0,1,,,,,,,,,,,,,,,,,,,,,,,,,,,,,,,,,,,,,,,
,,,,,,,,2023-08-16_08h46.30.050,HF_wild_card,2022.2.4,Win32,59.95203837,5b7c2541afb6ca00016af5ee,64d2fd46c836a06233681665,64dc7eb142b74eebd71f2197,,,,,,,decisionTrl,resources/DP.BMP,resources/DR.BMP,Door1,0.281481481,-0.035185185,1,0,0,1.646,optionRight,30,4615,2,37,0,37,0,1,,,,,,,,,,,,,,,,,,,,,,,,,,,,,,,,,,,,,,,
,,,,,,,,2023-08-16_08h46.30.050,HF_wild_card,2022.2.4,Win32,59.95203837,5b7c2541afb6ca00016af5ee,64d2fd46c836a06233681665,64dc7eb142b74eebd71f2197,,,,,,,decisionTrl,resources/DP.BMP,resources/DR.BMP,Door1,0.336111111,-0.039814815,1,0,0,1.198,optionRight,30,4645,2,38,0,38,0,1,,,,,,,,,,,,,,,,,,,,,,,,,,,,,,,,,,,,,,,
,,,,,,,,2023-08-16_08h46.30.050,HF_wild_card,2022.2.4,Win32,59.95203837,5b7c2541afb6ca00016af5ee,64d2fd46c836a06233681665,64dc7eb142b74eebd71f2197,,,,,,,ctch,resources/DR.BMP,resources/DB.BMP,Door4,0.368518519,-0.040740741,1,0,0,1.214,optionRight,80,4725,2,39,0,39,0,1,,,,,,,,,,,,,,,,,,,,,,,,,,,,,,,,,,,,,,,
,,,,,,,,2023-08-16_08h46.30.050,HF_wild_card,2022.2.4,Win32,59.95203837,5b7c2541afb6ca00016af5ee,64d2fd46c836a06233681665,64dc7eb142b74eebd71f2197,,,,,,,decisionTrl,resources/DB.BMP,resources/DG.BMP,Door4,-0.313888889,-0.044444444,1,0,0,1.612,optionLeft,80,4805,2,40,0,40,0,1,,,,,,,,,,,,,,,,,,,,,,,,,,,,,,,,,,,,,,,
,,,,,,,,2023-08-16_08h46.30.050,HF_wild_card,2022.2.4,Win32,59.95203837,5b7c2541afb6ca00016af5ee,64d2fd46c836a06233681665,64dc7eb142b74eebd71f2197,,,,,,,decisionTrl,resources/DG.BMP,resources/DP.BMP,WildCard_NonEx,-0.343518519,-0.025925926,1,0,0,1.246,optionLeft,45,4850,2,41,0,41,0,1,,,,,,,,,,,,,,,,,,,,,,,,,,,,,,,,,,,,,,,
,,,,,,,,2023-08-16_08h46.30.050,HF_wild_card,2022.2.4,Win32,59.95203837,5b7c2541afb6ca00016af5ee,64d2fd46c836a06233681665,64dc7eb142b74eebd71f2197,,,,,,,decisionTrl,resources/DP.BMP,resources/DG.BMP,Door2,-0.323148148,-0.037962963,1,0,0,1.332,optionLeft,40,4890,2,42,0,42,0,1,,,,,,,,,,,,,,,,,,,,,,,,,,,,,,,,,,,,,,,
,,,,,,,,2023-08-16_08h46.30.050,HF_wild_card,2022.2.4,Win32,59.95203837,5b7c2541afb6ca00016af5ee,64d2fd46c836a06233681665,64dc7eb142b74eebd71f2197,,,,,,,ctch,resources/DP.BMP,resources/DBN.BMP,Door3,0.332407407,-0.010185185,1,0,0,1.197,optionRight,70,4960,2,43,0,43,0,1,,,,,,,,,,,,,,,,,,,,,,,,,,,,,,,,,,,,,,,
,,,,,,,,2023-08-16_08h46.30.050,HF_wild_card,2022.2.4,Win32,59.95203837,5b7c2541afb6ca00016af5ee,64d2fd46c836a06233681665,64dc7eb142b74eebd71f2197,,,,,,,,,,,,,,,,,,,,,,,,,,1,0,1,0,1,,,,,,,,,,,,,,,,,,,,,,,,,,,,,,,,,,
,,,,,,,,2023-08-16_08h46.30.050,HF_wild_card,2022.2.4,Win32,59.95203837,5b7c2541afb6ca00016af5ee,64d2fd46c836a06233681665,64dc7eb142b74eebd71f2197,,,,,,,ctch,resources/DB.BMP,resources/DR.BMP,Door4,-0.315740741,-0.115740741,1,0,0,1.041,optionLeft,80,5040,3,0,0,0,0,1,,,,,,,,,,,,,,,,,,,,,,,,,,,,,,,,,,,,,,,
,,,,,,,,2023-08-16_08h46.30.050,HF_wild_card,2022.2.4,Win32,59.95203837,5b7c2541afb6ca00016af5ee,64d2fd46c836a06233681665,64dc7eb142b74eebd71f2197,,,,,,,ctch,resources/DB.BMP,resources/DR.BMP,Door4,-0.336111111,-0.050925926,1,0,0,1.08,optionLeft,60,5100,3,1,0,1,0,1,,,,,,,,,,,,,,,,,,,,,,,,,,,,,,,,,,,,,,,
,,,,,,,,2023-08-16_08h46.30.050,HF_wild_card,2022.2.4,Win32,59.95203837,5b7c2541afb6ca00016af5ee,64d2fd46c836a06233681665,64dc7eb142b74eebd71f2197,,,,,,,decisionTrl,resources/DP.BMP,resources/DR.BMP,Door1,0.337037037,-0.038888889,1,0,0,1.43,optionRight,30,5130,3,2,0,2,0,1,,,,,,,,,,,,,,,,,,,,,,,,,,,,,,,,,,,,,,,
,,,,,,,,2023-08-16_08h46.30.050,HF_wild_card,2022.2.4,Win32,59.95203837,5b7c2541afb6ca00016af5ee,64d2fd46c836a06233681665,64dc7eb142b74eebd71f2197,,,,,,,decisionTrl,resources/DB.BMP,resources/DBN.BMP,Door3,0.37962963,-0.013888889,1,0,0,1.031,optionRight,70,5200,3,3,0,3,0,1,,,,,,,,,,,,,,,,,,,,,,,,,,,,,,,,,,,,,,,
,,,,,,,,2023-08-16_08h46.30.050,HF_wild_card,2022.2.4,Win32,59.95203837,5b7c2541afb6ca00016af5ee,64d2fd46c836a06233681665,64dc7eb142b74eebd71f2197,,,,,,,sngl,resources/Empty.png,resources/DP.BMP,Door2,0.342592593,-0.039814815,1,0,0,1.031,optionRight,20,5220,3,4,0,4,0,1,,,,,,,,,,,,,,,,,,,,,,,,,,,,,,,,,,,,,,,
,,,,,,,,2023-08-16_08h46.30.050,HF_wild_card,2022.2.4,Win32,59.95203837,5b7c2541afb6ca00016af5ee,64d2fd46c836a06233681665,64dc7eb142b74eebd71f2197,,,,,,,decisionTrl,resources/DB.BMP,resources/DG.BMP,WildCard_NonEx,0.315740741,-0.025925926,1,0,0,1.231,optionRight,55,5275,3,5,0,5,0,1,,,,,,,,,,,,,,,,,,,,,,,,,,,,,,,,,,,,,,,
,,,,,,,,2023-08-16_08h46.30.050,HF_wild_card,2022.2.4,Win32,59.95203837,5b7c2541afb6ca00016af5ee,64d2fd46c836a06233681665,64dc7eb142b74eebd71f2197,,,,,,,sngl,resources/Empty.png,resources/DR.BMP,Door1,0.392592593,-0.035185185,1,0,0,0.93,optionRight,30,5305,3,6,0,6,0,1,,,,,,,,,,,,,,,,,,,,,,,,,,,,,,,,,,,,,,,
,,,,,,,,2023-08-16_08h46.30.050,HF_wild_card,2022.2.4,Win32,59.95203837,5b7c2541afb6ca00016af5ee,64d2fd46c836a06233681665,64dc7eb142b74eebd71f2197,,,,,,,sngl,resources/DG.BMP,resources/Empty.png,WildCard_NonEx,-0.261111111,-0.041666667,1,0,0,1.013,optionLeft,45,5350,3,7,0,7,0,1,,,,,,,,,,,,,,,,,,,,,,,,,,,,,,,,,,,,,,,
,,,,,,,,2023-08-16_08h46.30.050,HF_wild_card,2022.2.4,Win32,59.95203837,5b7c2541afb6ca00016af5ee,64d2fd46c836a06233681665,64dc7eb142b74eebd71f2197,,,,,,,sngl,resources/DG.BMP,resources/Empty.png,WildCard_NonEx,-0.287962963,-0.039814815,1,0,0,0.847,optionLeft,55,5405,3,8,0,8,0,1,,,,,,,,,,,,,,,,,,,,,,,,,,,,,,,,,,,,,,,
,,,,,,,,2023-08-16_08h46.30.050,HF_wild_card,2022.2.4,Win32,59.95203837,5b7c2541afb6ca00016af5ee,64d2fd46c836a06233681665,64dc7eb142b74eebd71f2197,,,,,,,ctch,resources/DR.BMP,resources/DB.BMP,Door4,0.306481481,-0.059259259,1,0,0,1.227,optionRight,80,5485,3,9,0,9,0,1,,,,,,,,,,,,,,,,,,,,,,,,,,,,,,,,,,,,,,,
,,,,,,,,2023-08-16_08h46.30.050,HF_wild_card,2022.2.4,Win32,59.95203837,5b7c2541afb6ca00016af5ee,64d2fd46c836a06233681665,64dc7eb142b74eebd71f2197,,,,,,,sngl,resources/Empty.png,resources/DBN.BMP,Door3,0.368518519,-0.035185185,1,0,0,1.096,optionRight,70,5555,3,10,0,10,0,1,,,,,,,,,,,,,,,,,,,,,,,,,,,,,,,,,,,,,,,
,,,,,,,,2023-08-16_08h46.30.050,HF_wild_card,2022.2.4,Win32,59.95203837,5b7c2541afb6ca00016af5ee,64d2fd46c836a06233681665,64dc7eb142b74eebd71f2197,,,,,,,decisionTrl,resources/DP.BMP,resources/DR.BMP,Door1,0.300925926,-0.04537037,1,0,0,1.596,optionRight,30,5585,3,11,0,11,0,1,,,,,,,,,,,,,,,,,,,,,,,,,,,,,,,,,,,,,,,
,,,,,,,,2023-08-16_08h46.30.050,HF_wild_card,2022.2.4,Win32,59.95203837,5b7c2541afb6ca00016af5ee,64d2fd46c836a06233681665,64dc7eb142b74eebd71f2197,,,,,,,decisionTrl,resources/DP.BMP,resources/DG.BMP,WildCard_NonEx,0.317592593,-0.041666667,1,0,0,1.681,optionRight,55,5640,3,12,0,12,0,1,,,,,,,,,,,,,,,,,,,,,,,,,,,,,,,,,,,,,,,
,,,,,,,,2023-08-16_08h46.30.050,HF_wild_card,2022.2.4,Win32,59.95203837,5b7c2541afb6ca00016af5ee,64d2fd46c836a06233681665,64dc7eb142b74eebd71f2197,,,,,,,decisionTrl,resources/DR.BMP,resources/DG.BMP,WildCard_NonEx,0.373148148,-0.025,1,0,0,1.43,optionRight,45,5685,3,13,0,13,0,1,,,,,,,,,,,,,,,,,,,,,,,,,,,,,,,,,,,,,,,
,,,,,,,,2023-08-16_08h46.30.050,HF_wild_card,2022.2.4,Win32,59.95203837,5b7c2541afb6ca00016af5ee,64d2fd46c836a06233681665,64dc7eb142b74eebd71f2197,,,,,,,decisionTrl,resources/DR.BMP,resources/DP.BMP,Door1,-0.34537037,-0.034259259,1,0,0,1.714,optionLeft,30,5715,3,14,0,14,0,1,,,,,,,,,,,,,,,,,,,,,,,,,,,,,,,,,,,,,,,
,,,,,,,,2023-08-16_08h46.30.050,HF_wild_card,2022.2.4,Win32,59.95203837,5b7c2541afb6ca00016af5ee,64d2fd46c836a06233681665,64dc7eb142b74eebd71f2197,,,,,,,decisionTrl,resources/DG.BMP,resources/DB.BMP,Door4,0.400925926,-0.023148148,1,0,0,1.23,optionRight,60,5775,3,15,0,15,0,1,,,,,,,,,,,,,,,,,,,,,,,,,,,,,,,,,,,,,,,
,,,,,,,,2023-08-16_08h46.30.050,HF_wild_card,2022.2.4,Win32,59.95203837,5b7c2541afb6ca00016af5ee,64d2fd46c836a06233681665,64dc7eb142b74eebd71f2197,,,,,,,decisionTrl,resources/DB.BMP,resources/DBN.BMP,Door3,0.336111111,-0.039814815,1,0,0,0.931,optionRight,70,5845,3,16,0,16,0,1,,,,,,,,,,,,,,,,,,,,,,,,,,,,,,,,,,,,,,,
,,,,,,,,2023-08-16_08h46.30.050,HF_wild_card,2022.2.4,Win32,59.95203837,5b7c2541afb6ca00016af5ee,64d2fd46c836a06233681665,64dc7eb142b74eebd71f2197,,,,,,,sngl,resources/Empty.png,resources/DB.BMP,Door4,0.388888889,-0.072222222,1,0,0,0.963,optionRight,60,5905,3,17,0,17,0,1,,,,,,,,,,,,,,,,,,,,,,,,,,,,,,,,,,,,,,,
,,,,,,,,2023-08-16_08h46.30.050,HF_wild_card,2022.2.4,Win32,59.95203837,5b7c2541afb6ca00016af5ee,64d2fd46c836a06233681665,64dc7eb142b74eebd71f2197,,,,,,,sngl,resources/Empty.png,resources/DG.BMP,WildCard_NonEx,0.348148148,-0.053703704,1,0,0,0.88,optionRight,55,5960,3,18,0,18,0,1,,,,,,,,,,,,,,,,,,,,,,,,,,,,,,,,,,,,,,,
,,,,,,,,2023-08-16_08h46.30.050,HF_wild_card,2022.2.4,Win32,59.95203837,5b7c2541afb6ca00016af5ee,64d2fd46c836a06233681665,64dc7eb142b74eebd71f2197,,,,,,,decisionTrl,resources/DP.BMP,resources/DR.BMP,Door1,0.336111111,-0.049074074,1,0,0,1.349,optionRight,30,5990,3,19,0,19,0,1,,,,,,,,,,,,,,,,,,,,,,,,,,,,,,,,,,,,,,,
,,,,,,,,2023-08-16_08h46.30.050,HF_wild_card,2022.2.4,Win32,59.95203837,5b7c2541afb6ca00016af5ee,64d2fd46c836a06233681665,64dc7eb142b74eebd71f2197,,,,,,,sngl,resources/Empty.png,resources/DG.BMP,WildCard_NonEx,0.35462963,-0.021296296,1,0,0,0.961,optionRight,45,6035,3,20,0,20,0,1,,,,,,,,,,,,,,,,,,,,,,,,,,,,,,,,,,,,,,,
,,,,,,,,2023-08-16_08h46.30.050,HF_wild_card,2022.2.4,Win32,59.95203837,5b7c2541afb6ca00016af5ee,64d2fd46c836a06233681665,64dc7eb142b74eebd71f2197,,,,,,,sngl,resources/DP.BMP,resources/Empty.png,Door2,-0.284259259,-0.028703704,1,0,0,0.962,optionLeft,40,6075,3,21,0,21,0,1,,,,,,,,,,,,,,,,,,,,,,,,,,,,,,,,,,,,,,,
,,,,,,,,2023-08-16_08h46.30.050,HF_wild_card,2022.2.4,Win32,59.95203837,5b7c2541afb6ca00016af5ee,64d2fd46c836a06233681665,64dc7eb142b74eebd71f2197,,,,,,,decisionTrl,resources/DG.BMP,resources/DBN.BMP,Door3,0.268518519,0.026851852,1,0,0,1.446,optionRight,70,6145,3,22,0,22,0,1,,,,,,,,,,,,,,,,,,,,,,,,,,,,,,,,,,,,,,,
,,,,,,,,2023-08-16_08h46.30.050,HF_wild_card,2022.2.4,Win32,59.95203837,5b7c2541afb6ca00016af5ee,64d2fd46c836a06233681665,64dc7eb142b74eebd71f2197,,,,,,,decisionTrl,resources/DBN.BMP,resources/DG.BMP,Door3,-0.35,-0.023148148,1,0,0,1.146,optionLeft,70,6215,3,23,0,23,0,1,,,,,,,,,,,,,,,,,,,,,,,,,,,,,,,,,,,,,,,
,,,,,,,,2023-08-16_08h46.30.050,HF_wild_card,2022.2.4,Win32,59.95203837,5b7c2541afb6ca00016af5ee,64d2fd46c836a06233681665,64dc7eb142b74eebd71f2197,,,,,,,ctch,resources/DBN.BMP,resources/DP.BMP,Door3,-0.367592593,-0.008333333,1,0,0,1.131,optionLeft,70,6285,3,24,0,24,0,1,,,,,,,,,,,,,,,,,,,,,,,,,,,,,,,,,,,,,,,
,,,,,,,,2023-08-16_08h46.30.050,HF_wild_card,2022.2.4,Win32,59.95203837,5b7c2541afb6ca00016af5ee,64d2fd46c836a06233681665,64dc7eb142b74eebd71f2197,,,,,,,ctch,resources/DBN.BMP,resources/DP.BMP,Door3,-0.316666667,-0.025925926,1,0,0,1.08,optionLeft,70,6355,3,25,0,25,0,1,,,,,,,,,,,,,,,,,,,,,,,,,,,,,,,,,,,,,,,
,,,,,,,,2023-08-16_08h46.30.050,HF_wild_card,2022.2.4,Win32,59.95203837,5b7c2541afb6ca00016af5ee,64d2fd46c836a06233681665,64dc7eb142b74eebd71f2197,,,,,,,ctch,resources/DP.BMP,resources/DBN.BMP,Door3,0.32962963,-0.001851852,1,0,0,1.281,optionRight,70,6425,3,26,0,26,0,1,,,,,,,,,,,,,,,,,,,,,,,,,,,,,,,,,,,,,,,
,,,,,,,,2023-08-16_08h46.30.050,HF_wild_card,2022.2.4,Win32,59.95203837,5b7c2541afb6ca00016af5ee,64d2fd46c836a06233681665,64dc7eb142b74eebd71f2197,,,,,,,sngl,resources/DR.BMP,resources/Empty.png,Door1,-0.328703704,-0.027777778,1,0,0,1.031,optionLeft,30,6455,3,27,0,27,0,1,,,,,,,,,,,,,,,,,,,,,,,,,,,,,,,,,,,,,,,
,,,,,,,,2023-08-16_08h46.30.050,HF_wild_card,2022.2.4,Win32,59.95203837,5b7c2541afb6ca00016af5ee,64d2fd46c836a06233681665,64dc7eb142b74eebd71f2197,,,,,,,decisionTrl,resources/DR.BMP,resources/DP.BMP,Door2,0.324074074,-0.041666667,1,0,0,1.298,optionRight,40,6495,3,28,0,28,0,1,,,,,,,,,,,,,,,,,,,,,,,,,,,,,,,,,,,,,,,
,,,,,,,,2023-08-16_08h46.30.050,HF_wild_card,2022.2.4,Win32,59.95203837,5b7c2541afb6ca00016af5ee,64d2fd46c836a06233681665,64dc7eb142b74eebd71f2197,,,,,,,ctch,resources/DR.BMP,resources/DB.BMP,Door4,0.433333333,-0.049074074,1,0,0,1.03,optionRight,80,6575,3,29,0,29,0,1,,,,,,,,,,,,,,,,,,,,,,,,,,,,,,,,,,,,,,,
,,,,,,,,2023-08-16_08h46.30.050,HF_wild_card,2022.2.4,Win32,59.95203837,5b7c2541afb6ca00016af5ee,64d2fd46c836a06233681665,64dc7eb142b74eebd71f2197,,,,,,,decisionTrl,resources/DP.BMP,resources/DR.BMP,Door1,0.426851852,0.006481481,1,0,0,2.415,optionRight,30,6605,3,30,0,30,0,1,,,,,,,,,,,,,,,,,,,,,,,,,,,,,,,,,,,,,,,
,,,,,,,,2023-08-16_08h46.30.050,HF_wild_card,2022.2.4,Win32,59.95203837,5b7c2541afb6ca00016af5ee,64d2fd46c836a06233681665,64dc7eb142b74eebd71f2197,,,,,,,decisionTrl,resources/DG.BMP,resources/DP.BMP,WildCard_NonEx,-0.278703704,-0.030555556,1,0,0,1.845,optionLeft,55,6660,3,31,0,31,0,1,,,,,,,,,,,,,,,,,,,,,,,,,,,,,,,,,,,,,,,
,,,,,,,,2023-08-16_08h46.30.050,HF_wild_card,2022.2.4,Win32,59.95203837,5b7c2541afb6ca00016af5ee,64d2fd46c836a06233681665,64dc7eb142b74eebd71f2197,,,,,,,decisionTrl,resources/DR.BMP,resources/DP.BMP,Door1,-0.373148148,-0.025,1,0,0,1.563,optionLeft,30,6690,3,32,0,32,0,1,,,,,,,,,,,,,,,,,,,,,,,,,,,,,,,,,,,,,,,
,,,,,,,,2023-08-16_08h46.30.050,HF_wild_card,2022.2.4,Win32,59.95203837,5b7c2541afb6ca00016af5ee,64d2fd46c836a06233681665,64dc7eb142b74eebd71f2197,,,,,,,decisionTrl,resources/DB.BMP,resources/DBN.BMP,Door3,0.338888889,0.002777778,1,0,0,1.23,optionRight,70,6760,3,33,0,33,0,1,,,,,,,,,,,,,,,,,,,,,,,,,,,,,,,,,,,,,,,
,,,,,,,,2023-08-16_08h46.30.050,HF_wild_card,2022.2.4,Win32,59.95203837,5b7c2541afb6ca00016af5ee,64d2fd46c836a06233681665,64dc7eb142b74eebd71f2197,,,,,,,ctch,resources/DP.BMP,resources/DBN.BMP,Door3,0.311111111,-0.006481481,1,0,0,1.248,optionRight,70,6830,3,34,0,34,0,1,,,,,,,,,,,,,,,,,,,,,,,,,,,,,,,,,,,,,,,
,,,,,,,,2023-08-16_08h46.30.050,HF_wild_card,2022.2.4,Win32,59.95203837,5b7c2541afb6ca00016af5ee,64d2fd46c836a06233681665,64dc7eb142b74eebd71f2197,,,,,,,sngl,resources/DBN.BMP,resources/Empty.png,Door3,-0.325925926,-0.022222222,1,0,0,1.112,optionLeft,70,6900,3,35,0,35,0,1,,,,,,,,,,,,,,,,,,,,,,,,,,,,,,,,,,,,,,,
,,,,,,,,2023-08-16_08h46.30.050,HF_wild_card,2022.2.4,Win32,59.95203837,5b7c2541afb6ca00016af5ee,64d2fd46c836a06233681665,64dc7eb142b74eebd71f2197,,,,,,,decisionTrl,resources/DB.BMP,resources/DBN.BMP,Door4,-0.334259259,-0.049074074,1,0,0,1.047,optionLeft,60,6960,3,36,0,36,0,1,,,,,,,,,,,,,,,,,,,,,,,,,,,,,,,,,,,,,,,
,,,,,,,,2023-08-16_08h46.30.050,HF_wild_card,2022.2.4,Win32,59.95203837,5b7c2541afb6ca00016af5ee,64d2fd46c836a06233681665,64dc7eb142b74eebd71f2197,,,,,,,decisionTrl,resources/DR.BMP,resources/DP.BMP,Door1,-0.346296296,-0.07037037,1,0,0,1.414,optionLeft,30,6990,3,37,0,37,0,1,,,,,,,,,,,,,,,,,,,,,,,,,,,,,,,,,,,,,,,
,,,,,,,,2023-08-16_08h46.30.050,HF_wild_card,2022.2.4,Win32,59.95203837,5b7c2541afb6ca00016af5ee,64d2fd46c836a06233681665,64dc7eb142b74eebd71f2197,,,,,,,sngl,resources/DB.BMP,resources/Empty.png,Door4,-0.377777778,-0.044444444,1,0,0,1.014,optionLeft,80,7070,3,38,0,38,0,1,,,,,,,,,,,,,,,,,,,,,,,,,,,,,,,,,,,,,,,
,,,,,,,,2023-08-16_08h46.30.050,HF_wild_card,2022.2.4,Win32,59.95203837,5b7c2541afb6ca00016af5ee,64d2fd46c836a06233681665,64dc7eb142b74eebd71f2197,,,,,,,decisionTrl,resources/DBN.BMP,resources/DB.BMP,Door4,0.348148148,0.000925926,1,0,0,2.063,optionRight,80,7150,3,39,0,39,0,1,,,,,,,,,,,,,,,,,,,,,,,,,,,,,,,,,,,,,,,
,,,,,,,,2023-08-16_08h46.30.050,HF_wild_card,2022.2.4,Win32,59.95203837,5b7c2541afb6ca00016af5ee,64d2fd46c836a06233681665,64dc7eb142b74eebd71f2197,,,,,,,decisionTrl,resources/DBN.BMP,resources/DB.BMP,Door4,0.280555556,0.021296296,1,0,0,1.264,optionRight,60,7210,3,40,0,40,0,1,,,,,,,,,,,,,,,,,,,,,,,,,,,,,,,,,,,,,,,
,,,,,,,,2023-08-16_08h46.30.050,HF_wild_card,2022.2.4,Win32,59.95203837,5b7c2541afb6ca00016af5ee,64d2fd46c836a06233681665,64dc7eb142b74eebd71f2197,,,,,,,decisionTrl,resources/DG.BMP,resources/DR.BMP,WildCard_NonEx,-0.311111111,-0.025,1,0,0,2.764,optionLeft,45,7255,3,41,0,41,0,1,,,,,,,,,,,,,,,,,,,,,,,,,,,,,,,,,,,,,,,
,,,,,,,,2023-08-16_08h46.30.050,HF_wild_card,2022.2.4,Win32,59.95203837,5b7c2541afb6ca00016af5ee,64d2fd46c836a06233681665,64dc7eb142b74eebd71f2197,,,,,,,decisionTrl,resources/DBN.BMP,resources/DB.BMP,Door3,-0.300925926,-0.024074074,1,0,0,1.496,optionLeft,70,7325,3,42,0,42,0,1,,,,,,,,,,,,,,,,,,,,,,,,,,,,,,,,,,,,,,,
,,,,,,,,2023-08-16_08h46.30.050,HF_wild_card,2022.2.4,Win32,59.95203837,5b7c2541afb6ca00016af5ee,64d2fd46c836a06233681665,64dc7eb142b74eebd71f2197,,,,,,,decisionTrl,resources/DBN.BMP,resources/DB.BMP,Door3,-0.3,-0.041666667,1,0,0,1.83,optionLeft,70,7395,3,43,0,43,0,1,,,,,,,,,,,,,,,,,,,,,,,,,,,,,,,,,,,,,,,
,,,,,,,,2023-08-16_08h46.30.050,HF_wild_card,2022.2.4,Win32,59.95203837,5b7c2541afb6ca00016af5ee,64d2fd46c836a06233681665,64dc7eb142b74eebd71f2197,,,,,,,,,,,,,,,,,,,,,,,,,,2,0,2,0,1,,,,,,,,,,,,,,,,,,,,,,,,,,,,,,,,,,
,,,,,,,,2023-08-16_08h46.30.050,HF_wild_card,2022.2.4,Win32,59.95203837,5b7c2541afb6ca00016af5ee,64d2fd46c836a06233681665,64dc7eb142b74eebd71f2197,,,,,,,sngl,resources/DP.BMP,resources/Empty.png,Door2,-0.341666667,-0.05462963,1,0,0,0.826,optionLeft,20,7415,4,0,0,0,0,1,,,,,,,,,,,,,,,,,,,,,,,,,,,,,,,,,,,,,,,
,,,,,,,,2023-08-16_08h46.30.050,HF_wild_card,2022.2.4,Win32,59.95203837,5b7c2541afb6ca00016af5ee,64d2fd46c836a06233681665,64dc7eb142b74eebd71f2197,,,,,,,ctch,resources/DB.BMP,resources/DR.BMP,Door4,-0.337962963,-0.039814815,1,0,0,1.464,optionLeft,80,7495,4,1,0,1,0,1,,,,,,,,,,,,,,,,,,,,,,,,,,,,,,,,,,,,,,,
,,,,,,,,2023-08-16_08h46.30.050,HF_wild_card,2022.2.4,Win32,59.95203837,5b7c2541afb6ca00016af5ee,64d2fd46c836a06233681665,64dc7eb142b74eebd71f2197,,,,,,,sngl,resources/DR.BMP,resources/Empty.png,Door1,-0.389814815,-0.044444444,1,0,0,0.996,optionLeft,30,7525,4,2,0,2,0,1,,,,,,,,,,,,,,,,,,,,,,,,,,,,,,,,,,,,,,,
,,,,,,,,2023-08-16_08h46.30.050,HF_wild_card,2022.2.4,Win32,59.95203837,5b7c2541afb6ca00016af5ee,64d2fd46c836a06233681665,64dc7eb142b74eebd71f2197,,,,,,,decisionTrl,resources/DBN.BMP,resources/DY.BMP,WildCard_Ex,0.358333333,0.000925926,1,0,0,1.662,optionRight,45,7570,4,3,0,3,0,1,,,,,,,,,,,,,,,,,,,,,,,,,,,,,,,,,,,,,,,
,,,,,,,,2023-08-16_08h46.30.050,HF_wild_card,2022.2.4,Win32,59.95203837,5b7c2541afb6ca00016af5ee,64d2fd46c836a06233681665,64dc7eb142b74eebd71f2197,,,,,,,decisionTrl,resources/DY.BMP,resources/DB.BMP,Door4,0.47962963,-0.037037037,1,0,0,1.331,optionRight,80,7650,4,4,0,4,0,1,,,,,,,,,,,,,,,,,,,,,,,,,,,,,,,,,,,,,,,
,,,,,,,,2023-08-16_08h46.30.050,HF_wild_card,2022.2.4,Win32,59.95203837,5b7c2541afb6ca00016af5ee,64d2fd46c836a06233681665,64dc7eb142b74eebd71f2197,,,,,,,decisionTrl,resources/DBN.BMP,resources/DB.BMP,Door3,-0.3,-0.037962963,1,0,0,1.198,optionLeft,70,7720,4,5,0,5,0,1,,,,,,,,,,,,,,,,,,,,,,,,,,,,,,,,,,,,,,,
,,,,,,,,2023-08-16_08h46.30.050,HF_wild_card,2022.2.4,Win32,59.95203837,5b7c2541afb6ca00016af5ee,64d2fd46c836a06233681665,64dc7eb142b74eebd71f2197,,,,,,,decisionTrl,resources/DBN.BMP,resources/DB.BMP,Door3,-0.356481481,-0.031481481,1,0,0,1.158,optionLeft,70,7790,4,6,0,6,0,1,,,,,,,,,,,,,,,,,,,,,,,,,,,,,,,,,,,,,,,
,,,,,,,,2023-08-16_08h46.30.050,HF_wild_card,2022.2.4,Win32,59.95203837,5b7c2541afb6ca00016af5ee,64d2fd46c836a06233681665,64dc7eb142b74eebd71f2197,,,,,,,sngl,resources/DY.BMP,resources/Empty.png,WildCard_Ex,-0.398148148,-0.050925926,1,0,0,0.963,optionLeft,55,7845,4,7,0,7,0,1,,,,,,,,,,,,,,,,,,,,,,,,,,,,,,,,,,,,,,,
,,,,,,,,2023-08-16_08h46.30.050,HF_wild_card,2022.2.4,Win32,59.95203837,5b7c2541afb6ca00016af5ee,64d2fd46c836a06233681665,64dc7eb142b74eebd71f2197,,,,,,,decisionTrl,resources/DB.BMP,resources/DY.BMP,Door4,-0.316666667,-0.037037037,1,0,0,1.53,optionLeft,60,7905,4,8,0,8,0,1,,,,,,,,,,,,,,,,,,,,,,,,,,,,,,,,,,,,,,,
,,,,,,,,2023-08-16_08h46.30.050,HF_wild_card,2022.2.4,Win32,59.95203837,5b7c2541afb6ca00016af5ee,64d2fd46c836a06233681665,64dc7eb142b74eebd71f2197,,,,,,,sngl,resources/DBN.BMP,resources/Empty.png,Door3,-0.316666667,-0.036111111,1,0,0,0.929,optionLeft,70,7975,4,9,0,9,0,1,,,,,,,,,,,,,,,,,,,,,,,,,,,,,,,,,,,,,,,
,,,,,,,,2023-08-16_08h46.30.050,HF_wild_card,2022.2.4,Win32,59.95203837,5b7c2541afb6ca00016af5ee,64d2fd46c836a06233681665,64dc7eb142b74eebd71f2197,,,,,,,decisionTrl,resources/DBN.BMP,resources/DB.BMP,Door3,-0.399074074,-0.014814815,1,0,0,1.38,optionLeft,70,8045,4,10,0,10,0,1,,,,,,,,,,,,,,,,,,,,,,,,,,,,,,,,,,,,,,,
,,,,,,,,2023-08-16_08h46.30.050,HF_wild_card,2022.2.4,Win32,59.95203837,5b7c2541afb6ca00016af5ee,64d2fd46c836a06233681665,64dc7eb142b74eebd71f2197,,,,,,,decisionTrl,resources/DP.BMP,resources/DR.BMP,Door1,0.291666667,-0.012962963,1,0,0,1.715,optionRight,30,8075,4,11,0,11,0,1,,,,,,,,,,,,,,,,,,,,,,,,,,,,,,,,,,,,,,,
,,,,,,,,2023-08-16_08h46.30.050,HF_wild_card,2022.2.4,Win32,59.95203837,5b7c2541afb6ca00016af5ee,64d2fd46c836a06233681665,64dc7eb142b74eebd71f2197,,,,,,,decisionTrl,resources/DB.BMP,resources/DBN.BMP,Door3,0.355555556,-0.011111111,1,0,0,1.598,optionRight,70,8145,4,12,0,12,0,1,,,,,,,,,,,,,,,,,,,,,,,,,,,,,,,,,,,,,,,
,,,,,,,,2023-08-16_08h46.30.050,HF_wild_card,2022.2.4,Win32,59.95203837,5b7c2541afb6ca00016af5ee,64d2fd46c836a06233681665,64dc7eb142b74eebd71f2197,,,,,,,decisionTrl,resources/DP.BMP,resources/DR.BMP,Door1,0.409259259,-0.022222222,1,0,0,1.563,optionRight,30,8175,4,13,0,13,0,1,,,,,,,,,,,,,,,,,,,,,,,,,,,,,,,,,,,,,,,
,,,,,,,,2023-08-16_08h46.30.050,HF_wild_card,2022.2.4,Win32,59.95203837,5b7c2541afb6ca00016af5ee,64d2fd46c836a06233681665,64dc7eb142b74eebd71f2197,,,,,,,decisionTrl,resources/DB.BMP,resources/DBN.BMP,Door4,-0.314814815,-0.033333333,1,0,0,1.531,optionLeft,80,8255,4,14,0,14,0,1,,,,,,,,,,,,,,,,,,,,,,,,,,,,,,,,,,,,,,,
,,,,,,,,2023-08-16_08h46.30.050,HF_wild_card,2022.2.4,Win32,59.95203837,5b7c2541afb6ca00016af5ee,64d2fd46c836a06233681665,64dc7eb142b74eebd71f2197,,,,,,,decisionTrl,resources/DR.BMP,resources/DP.BMP,Door1,-0.327777778,-0.044444444,1,0,0,1.313,optionLeft,30,8285,4,15,0,15,0,1,,,,,,,,,,,,,,,,,,,,,,,,,,,,,,,,,,,,,,,
,,,,,,,,2023-08-16_08h46.30.050,HF_wild_card,2022.2.4,Win32,59.95203837,5b7c2541afb6ca00016af5ee,64d2fd46c836a06233681665,64dc7eb142b74eebd71f2197,,,,,,,decisionTrl,resources/DP.BMP,resources/DY.BMP,WildCard_Ex,0.367592593,-0.037037037,1,0,0,1.881,optionRight,55,8340,4,16,0,16,0,1,,,,,,,,,,,,,,,,,,,,,,,,,,,,,,,,,,,,,,,
,,,,,,,,2023-08-16_08h46.30.050,HF_wild_card,2022.2.4,Win32,59.95203837,5b7c2541afb6ca00016af5ee,64d2fd46c836a06233681665,64dc7eb142b74eebd71f2197,,,,,,,sngl,resources/DY.BMP,resources/Empty.png,WildCard_Ex,-0.341666667,-0.026851852,1,0,0,0.817,optionLeft,45,8385,4,17,0,17,0,1,,,,,,,,,,,,,,,,,,,,,,,,,,,,,,,,,,,,,,,
,,,,,,,,2023-08-16_08h46.30.050,HF_wild_card,2022.2.4,Win32,59.95203837,5b7c2541afb6ca00016af5ee,64d2fd46c836a06233681665,64dc7eb142b74eebd71f2197,,,,,,,ctch,resources/DP.BMP,resources/DBN.BMP,Door3,0.396296296,-0.022222222,1,0,0,1.763,optionRight,70,8455,4,18,0,18,0,1,,,,,,,,,,,,,,,,,,,,,,,,,,,,,,,,,,,,,,,
,,,,,,,,2023-08-16_08h46.30.050,HF_wild_card,2022.2.4,Win32,59.95203837,5b7c2541afb6ca00016af5ee,64d2fd46c836a06233681665,64dc7eb142b74eebd71f2197,,,,,,,decisionTrl,resources/DY.BMP,resources/DP.BMP,WildCard_Ex,-0.390740741,-0.012962963,1,0,0,2.147,optionLeft,55,8510,4,19,0,19,0,1,,,,,,,,,,,,,,,,,,,,,,,,,,,,,,,,,,,,,,,
,,,,,,,,2023-08-16_08h46.30.050,HF_wild_card,2022.2.4,Win32,59.95203837,5b7c2541afb6ca00016af5ee,64d2fd46c836a06233681665,64dc7eb142b74eebd71f2197,,,,,,,sngl,resources/Empty.png,resources/DY.BMP,WildCard_Ex,0.39537037,-0.017592593,1,0,0,0.947,optionRight,45,8555,4,20,0,20,0,1,,,,,,,,,,,,,,,,,,,,,,,,,,,,,,,,,,,,,,,
,,,,,,,,2023-08-16_08h46.30.050,HF_wild_card,2022.2.4,Win32,59.95203837,5b7c2541afb6ca00016af5ee,64d2fd46c836a06233681665,64dc7eb142b74eebd71f2197,,,,,,,decisionTrl,resources/DB.BMP,resources/DBN.BMP,Door4,-0.325,-0.048148148,1,0,0,1.413,optionLeft,60,8615,4,21,0,21,0,1,,,,,,,,,,,,,,,,,,,,,,,,,,,,,,,,,,,,,,,
,,,,,,,,2023-08-16_08h46.30.050,HF_wild_card,2022.2.4,Win32,59.95203837,5b7c2541afb6ca00016af5ee,64d2fd46c836a06233681665,64dc7eb142b74eebd71f2197,,,,,,,sngl,resources/Empty.png,resources/DB.BMP,Door4,0.309259259,-0.026851852,1,0,0,1.014,optionRight,80,8695,4,22,0,22,0,1,,,,,,,,,,,,,,,,,,,,,,,,,,,,,,,,,,,,,,,
,,,,,,,,2023-08-16_08h46.30.050,HF_wild_card,2022.2.4,Win32,59.95203837,5b7c2541afb6ca00016af5ee,64d2fd46c836a06233681665,64dc7eb142b74eebd71f2197,,,,,,,ctch,resources/DR.BMP,resources/DB.BMP,Door4,0.351851852,-0.007407407,1,0,0,1.164,optionRight,60,8755,4,23,0,23,0,1,,,,,,,,,,,,,,,,,,,,,,,,,,,,,,,,,,,,,,,
,,,,,,,,2023-08-16_08h46.30.050,HF_wild_card,2022.2.4,Win32,59.95203837,5b7c2541afb6ca00016af5ee,64d2fd46c836a06233681665,64dc7eb142b74eebd71f2197,,,,,,,decisionTrl,resources/DR.BMP,resources/DP.BMP,Door1,-0.328703704,-0.055555556,1,0,0,2.246,optionLeft,30,8785,4,24,0,24,0,1,,,,,,,,,,,,,,,,,,,,,,,,,,,,,,,,,,,,,,,
,,,,,,,,2023-08-16_08h46.30.050,HF_wild_card,2022.2.4,Win32,59.95203837,5b7c2541afb6ca00016af5ee,64d2fd46c836a06233681665,64dc7eb142b74eebd71f2197,,,,,,,decisionTrl,resources/DY.BMP,resources/DBN.BMP,Door3,0.337962963,0.001851852,1,0,0,1.296,optionRight,70,8855,4,25,0,25,0,1,,,,,,,,,,,,,,,,,,,,,,,,,,,,,,,,,,,,,,,
,,,,,,,,2023-08-16_08h46.30.050,HF_wild_card,2022.2.4,Win32,59.95203837,5b7c2541afb6ca00016af5ee,64d2fd46c836a06233681665,64dc7eb142b74eebd71f2197,,,,,,,decisionTrl,resources/DR.BMP,resources/DP.BMP,Door2,0.372222222,-0.043518519,1,0,0,1.914,optionRight,20,8875,4,26,0,26,0,1,,,,,,,,,,,,,,,,,,,,,,,,,,,,,,,,,,,,,,,
,,,,,,,,2023-08-16_08h46.30.050,HF_wild_card,2022.2.4,Win32,59.95203837,5b7c2541afb6ca00016af5ee,64d2fd46c836a06233681665,64dc7eb142b74eebd71f2197,,,,,,,decisionTrl,resources/DB.BMP,resources/DBN.BMP,Door3,0.285185185,0.005555556,1,0,0,1.581,optionRight,70,8945,4,27,0,27,0,1,,,,,,,,,,,,,,,,,,,,,,,,,,,,,,,,,,,,,,,
,,,,,,,,2023-08-16_08h46.30.050,HF_wild_card,2022.2.4,Win32,59.95203837,5b7c2541afb6ca00016af5ee,64d2fd46c836a06233681665,64dc7eb142b74eebd71f2197,,,,,,,ctch,resources/DR.BMP,resources/DB.BMP,Door4,0.300925926,0.014814815,1,0,0,1.256,optionRight,80,9025,4,28,0,28,0,1,,,,,,,,,,,,,,,,,,,,,,,,,,,,,,,,,,,,,,,
,,,,,,,,2023-08-16_08h46.30.050,HF_wild_card,2022.2.4,Win32,59.95203837,5b7c2541afb6ca00016af5ee,64d2fd46c836a06233681665,64dc7eb142b74eebd71f2197,,,,,,,decisionTrl,resources/DP.BMP,resources/DR.BMP,Door1,0.346296296,0.012037037,1,0,0,1.43,optionRight,30,9055,4,29,0,29,0,1,,,,,,,,,,,,,,,,,,,,,,,,,,,,,,,,,,,,,,,
,,,,,,,,2023-08-16_08h46.30.050,HF_wild_card,2022.2.4,Win32,59.95203837,5b7c2541afb6ca00016af5ee,64d2fd46c836a06233681665,64dc7eb142b74eebd71f2197,,,,,,,sngl,resources/Empty.png,resources/DR.BMP,Door1,0.373148148,-0.035185185,1,0,0,0.947,optionRight,30,9085,4,30,0,30,0,1,,,,,,,,,,,,,,,,,,,,,,,,,,,,,,,,,,,,,,,
,,,,,,,,2023-08-16_08h46.30.050,HF_wild_card,2022.2.4,Win32,59.95203837,5b7c2541afb6ca00016af5ee,64d2fd46c836a06233681665,64dc7eb142b74eebd71f2197,,,,,,,decisionTrl,resources/DBN.BMP,resources/DB.BMP,Door3,-0.294444444,-0.017592593,1,0,0,1.045,optionLeft,70,9155,4,31,0,31,0,1,,,,,,,,,,,,,,,,,,,,,,,,,,,,,,,,,,,,,,,
,,,,,,,,2023-08-16_08h46.30.050,HF_wild_card,2022.2.4,Win32,59.95203837,5b7c2541afb6ca00016af5ee,64d2fd46c836a06233681665,64dc7eb142b74eebd71f2197,,,,,,,decisionTrl,resources/DR.BMP,resources/DP.BMP,Door1,-0.341666667,-0.023148148,1,0,0,1.246,optionLeft,30,9185,4,32,0,32,0,1,,,,,,,,,,,,,,,,,,,,,,,,,,,,,,,,,,,,,,,
,,,,,,,,2023-08-16_08h46.30.050,HF_wild_card,2022.2.4,Win32,59.95203837,5b7c2541afb6ca00016af5ee,64d2fd46c836a06233681665,64dc7eb142b74eebd71f2197,,,,,,,ctch,resources/DB.BMP,resources/DR.BMP,Door4,-0.382407407,-0.040740741,1,0,0,1.414,optionLeft,80,9265,4,33,0,33,0,1,,,,,,,,,,,,,,,,,,,,,,,,,,,,,,,,,,,,,,,
,,,,,,,,2023-08-16_08h46.30.050,HF_wild_card,2022.2.4,Win32,59.95203837,5b7c2541afb6ca00016af5ee,64d2fd46c836a06233681665,64dc7eb142b74eebd71f2197,,,,,,,sngl,resources/Empty.png,resources/DP.BMP,Door2,0.30462963,-0.016666667,1,0,0,0.88,optionRight,40,9305,4,34,0,34,0,1,,,,,,,,,,,,,,,,,,,,,,,,,,,,,,,,,,,,,,,
,,,,,,,,2023-08-16_08h46.30.050,HF_wild_card,2022.2.4,Win32,59.95203837,5b7c2541afb6ca00016af5ee,64d2fd46c836a06233681665,64dc7eb142b74eebd71f2197,,,,,,,ctch,resources/DBN.BMP,resources/DP.BMP,Door3,-0.308333333,-0.039814815,1,0,0,1.015,optionLeft,70,9375,4,35,0,35,0,1,,,,,,,,,,,,,,,,,,,,,,,,,,,,,,,,,,,,,,,
,,,,,,,,2023-08-16_08h46.30.050,HF_wild_card,2022.2.4,Win32,59.95203837,5b7c2541afb6ca00016af5ee,64d2fd46c836a06233681665,64dc7eb142b74eebd71f2197,,,,,,,sngl,resources/Empty.png,resources/DY.BMP,WildCard_Ex,0.328703704,-0.014814815,1,0,0,0.88,optionRight,55,9430,4,36,0,36,0,1,,,,,,,,,,,,,,,,,,,,,,,,,,,,,,,,,,,,,,,
,,,,,,,,2023-08-16_08h46.30.050,HF_wild_card,2022.2.4,Win32,59.95203837,5b7c2541afb6ca00016af5ee,64d2fd46c836a06233681665,64dc7eb142b74eebd71f2197,,,,,,,ctch,resources/DP.BMP,resources/DBN.BMP,Door3,0.308333333,-0.009259259,1,0,0,1.297,optionRight,70,9500,4,37,0,37,0,1,,,,,,,,,,,,,,,,,,,,,,,,,,,,,,,,,,,,,,,
,,,,,,,,2023-08-16_08h46.30.050,HF_wild_card,2022.2.4,Win32,59.95203837,5b7c2541afb6ca00016af5ee,64d2fd46c836a06233681665,64dc7eb142b74eebd71f2197,,,,,,,decisionTrl,resources/DY.BMP,resources/DR.BMP,WildCard_Ex,-0.394444444,-0.042592593,1,0,0,1.748,optionLeft,45,9545,4,38,0,38,0,1,,,,,,,,,,,,,,,,,,,,,,,,,,,,,,,,,,,,,,,
,,,,,,,,2023-08-16_08h46.30.050,HF_wild_card,2022.2.4,Win32,59.95203837,5b7c2541afb6ca00016af5ee,64d2fd46c836a06233681665,64dc7eb142b74eebd71f2197,,,,,,,ctch,resources/DBN.BMP,resources/DP.BMP,Door3,-0.331481481,-0.058333333,1,0,0,0.864,optionLeft,70,9615,4,39,0,39,0,1,,,,,,,,,,,,,,,,,,,,,,,,,,,,,,,,,,,,,,,
,,,,,,,,2023-08-16_08h46.30.050,HF_wild_card,2022.2.4,Win32,59.95203837,5b7c2541afb6ca00016af5ee,64d2fd46c836a06233681665,64dc7eb142b74eebd71f2197,,,,,,,sngl,resources/DB.BMP,resources/Empty.png,Door4,-0.337037037,-0.050925926,1,0,0,0.925,optionLeft,60,9675,4,40,0,40,0,1,,,,,,,,,,,,,,,,,,,,,,,,,,,,,,,,,,,,,,,
,,,,,,,,2023-08-16_08h46.30.050,HF_wild_card,2022.2.4,Win32,59.95203837,5b7c2541afb6ca00016af5ee,64d2fd46c836a06233681665,64dc7eb142b74eebd71f2197,,,,,,,decisionTrl,resources/DP.BMP,resources/DR.BMP,Door1,0.308333333,-0.018518519,1,0,0,1.412,optionRight,30,9705,4,41,0,41,0,1,,,,,,,,,,,,,,,,,,,,,,,,,,,,,,,,,,,,,,,
,,,,,,,,2023-08-16_08h46.30.050,HF_wild_card,2022.2.4,Win32,59.95203837,5b7c2541afb6ca00016af5ee,64d2fd46c836a06233681665,64dc7eb142b74eebd71f2197,,,,,,,sngl,resources/Empty.png,resources/DBN.BMP,Door3,0.350925926,-0.008333333,1,0,0,0.914,optionRight,70,9775,4,42,0,42,0,1,,,,,,,,,,,,,,,,,,,,,,,,,,,,,,,,,,,,,,,
,,,,,,,,2023-08-16_08h46.30.050,HF_wild_card,2022.2.4,Win32,59.95203837,5b7c2541afb6ca00016af5ee,64d2fd46c836a06233681665,64dc7eb142b74eebd71f2197,,,,,,,decisionTrl,resources/DR.BMP,resources/DY.BMP,WildCard_Ex,0.302777778,-0.039814815,1,0,0,1.297,optionRight,45,9820,4,43,0,43,0,1,,,,,,,,,,,,,,,,,,,,,,,,,,,,,,,,,,,,,,,
,,,,,,,,2023-08-16_08h46.30.050,HF_wild_card,2022.2.4,Win32,59.95203837,5b7c2541afb6ca00016af5ee,64d2fd46c836a06233681665,64dc7eb142b74eebd71f2197,,,,,,,,,,,,,,,,,,,,,,,,,,3,0,3,0,1,,,,,,,,,,,,,,,,,,,,,,,,,,,,,,,,,,
,,,,,,,,2023-08-16_08h46.30.050,HF_wild_card,2022.2.4,Win32,59.95203837,5b7c2541afb6ca00016af5ee,64d2fd46c836a06233681665,64dc7eb142b74eebd71f2197,,,,,,,decisionTrl,resources/DB.BMP,resources/DBN.BMP,Door3,0.257407407,-0.037037037,1,0,0,1.027,optionRight,70,9890,5,0,0,0,0,1,,,,,,,,,,,,,,,,,,,,,,,,,,,,,,,,,,,,,,,
,,,,,,,,2023-08-16_08h46.30.050,HF_wild_card,2022.2.4,Win32,59.95203837,5b7c2541afb6ca00016af5ee,64d2fd46c836a06233681665,64dc7eb142b74eebd71f2197,,,,,,,sngl,resources/DP.BMP,resources/Empty.png,Door2,-0.32037037,-0.058333333,1,0,0,0.946,optionLeft,40,9930,5,1,0,1,0,1,,,,,,,,,,,,,,,,,,,,,,,,,,,,,,,,,,,,,,,
,,,,,,,,2023-08-16_08h46.30.050,HF_wild_card,2022.2.4,Win32,59.95203837,5b7c2541afb6ca00016af5ee,64d2fd46c836a06233681665,64dc7eb142b74eebd71f2197,,,,,,,decisionTrl,resources/DP.BMP,resources/DR.BMP,Door2,-0.325925926,-0.04537037,1,0,0,1.33,optionLeft,40,9970,5,2,0,2,0,1,,,,,,,,,,,,,,,,,,,,,,,,,,,,,,,,,,,,,,,
,,,,,,,,2023-08-16_08h46.30.050,HF_wild_card,2022.2.4,Win32,59.95203837,5b7c2541afb6ca00016af5ee,64d2fd46c836a06233681665,64dc7eb142b74eebd71f2197,,,,,,,decisionTrl,resources/DR.BMP,resources/DP.BMP,Door2,0.383333333,-0.04537037,1,0,0,0.998,optionRight,20,9990,5,3,0,3,0,1,,,,,,,,,,,,,,,,,,,,,,,,,,,,,,,,,,,,,,,
,,,,,,,,2023-08-16_08h46.30.050,HF_wild_card,2022.2.4,Win32,59.95203837,5b7c2541afb6ca00016af5ee,64d2fd46c836a06233681665,64dc7eb142b74eebd71f2197,,,,,,,decisionTrl,resources/DB.BMP,resources/DBN.BMP,Door4,-0.365740741,-0.052777778,1,0,0,1.346,optionLeft,60,10050,5,4,0,4,0,1,,,,,,,,,,,,,,,,,,,,,,,,,,,,,,,,,,,,,,,
,,,,,,,,2023-08-16_08h46.30.050,HF_wild_card,2022.2.4,Win32,59.95203837,5b7c2541afb6ca00016af5ee,64d2fd46c836a06233681665,64dc7eb142b74eebd71f2197,,,,,,,ctch,resources/DR.BMP,resources/DB.BMP,Door4,0.305555556,-0.043518519,1,0,0,1.23,optionRight,60,10110,5,5,0,5,0,1,,,,,,,,,,,,,,,,,,,,,,,,,,,,,,,,,,,,,,,
,,,,,,,,2023-08-16_08h46.30.050,HF_wild_card,2022.2.4,Win32,59.95203837,5b7c2541afb6ca00016af5ee,64d2fd46c836a06233681665,64dc7eb142b74eebd71f2197,,,,,,,decisionTrl,resources/DR.BMP,resources/DP.BMP,Door1,-0.361111111,-0.067592593,1,0,0,1.53,optionLeft,30,10140,5,6,0,6,0,1,,,,,,,,,,,,,,,,,,,,,,,,,,,,,,,,,,,,,,,
,,,,,,,,2023-08-16_08h46.30.050,HF_wild_card,2022.2.4,Win32,59.95203837,5b7c2541afb6ca00016af5ee,64d2fd46c836a06233681665,64dc7eb142b74eebd71f2197,,,,,,,decisionTrl,resources/DR.BMP,resources/DP.BMP,Door2,0.343518519,-0.006481481,1,0,0,1.24,optionRight,20,10160,5,7,0,7,0,1,,,,,,,,,,,,,,,,,,,,,,,,,,,,,,,,,,,,,,,
,,,,,,,,2023-08-16_08h46.30.050,HF_wild_card,2022.2.4,Win32,59.95203837,5b7c2541afb6ca00016af5ee,64d2fd46c836a06233681665,64dc7eb142b74eebd71f2197,,,,,,,sngl,resources/Empty.png,resources/DBN.BMP,Door3,0.355555556,0.008333333,1,0,0,1.412,optionRight,70,10230,5,8,0,8,0,1,,,,,,,,,,,,,,,,,,,,,,,,,,,,,,,,,,,,,,,
,,,,,,,,2023-08-16_08h46.30.050,HF_wild_card,2022.2.4,Win32,59.95203837,5b7c2541afb6ca00016af5ee,64d2fd46c836a06233681665,64dc7eb142b74eebd71f2197,,,,,,,decisionTrl,resources/DP.BMP,resources/DY.BMP,WildCard_Ex,0.299074074,-0.010185185,1,0,0,1.696,optionRight,45,10275,5,9,0,9,0,1,,,,,,,,,,,,,,,,,,,,,,,,,,,,,,,,,,,,,,,
,,,,,,,,2023-08-16_08h46.30.050,HF_wild_card,2022.2.4,Win32,59.95203837,5b7c2541afb6ca00016af5ee,64d2fd46c836a06233681665,64dc7eb142b74eebd71f2197,,,,,,,decisionTrl,resources/DY.BMP,resources/DR.BMP,WildCard_Ex,-0.347222222,-0.059259259,1,0,0,1.38,optionLeft,55,10330,5,10,0,10,0,1,,,,,,,,,,,,,,,,,,,,,,,,,,,,,,,,,,,,,,,
,,,,,,,,2023-08-16_08h46.30.050,HF_wild_card,2022.2.4,Win32,59.95203837,5b7c2541afb6ca00016af5ee,64d2fd46c836a06233681665,64dc7eb142b74eebd71f2197,,,,,,,decisionTrl,resources/DBN.BMP,resources/DB.BMP,Door3,-0.415740741,-0.023148148,1,0,0,1.612,optionLeft,70,10400,5,11,0,11,0,1,,,,,,,,,,,,,,,,,,,,,,,,,,,,,,,,,,,,,,,
,,,,,,,,2023-08-16_08h46.30.050,HF_wild_card,2022.2.4,Win32,59.95203837,5b7c2541afb6ca00016af5ee,64d2fd46c836a06233681665,64dc7eb142b74eebd71f2197,,,,,,,ctch,resources/DB.BMP,resources/DR.BMP,Door4,-0.315740741,-0.057407407,1,0,0,1.464,optionLeft,80,10480,5,12,0,12,0,1,,,,,,,,,,,,,,,,,,,,,,,,,,,,,,,,,,,,,,,
,,,,,,,,2023-08-16_08h46.30.050,HF_wild_card,2022.2.4,Win32,59.95203837,5b7c2541afb6ca00016af5ee,64d2fd46c836a06233681665,64dc7eb142b74eebd71f2197,,,,,,,decisionTrl,resources/DY.BMP,resources/DB.BMP,WildCard_Ex,-0.294444444,-0.065740741,1,0,0,1.63,optionLeft,55,10535,5,13,0,13,0,1,,,,,,,,,,,,,,,,,,,,,,,,,,,,,,,,,,,,,,,
,,,,,,,,2023-08-16_08h46.30.050,HF_wild_card,2022.2.4,Win32,59.95203837,5b7c2541afb6ca00016af5ee,64d2fd46c836a06233681665,64dc7eb142b74eebd71f2197,,,,,,,sngl,resources/DY.BMP,resources/Empty.png,WildCard_Ex,-0.275925926,-0.040740741,1,0,0,0.914,optionLeft,45,10580,5,14,0,14,0,1,,,,,,,,,,,,,,,,,,,,,,,,,,,,,,,,,,,,,,,
,,,,,,,,2023-08-16_08h46.30.050,HF_wild_card,2022.2.4,Win32,59.95203837,5b7c2541afb6ca00016af5ee,64d2fd46c836a06233681665,64dc7eb142b74eebd71f2197,,,,,,,ctch,resources/DBN.BMP,resources/DP.BMP,Door3,-0.336111111,-0.014814815,1,0,0,1.047,optionLeft,70,10650,5,15,0,15,0,1,,,,,,,,,,,,,,,,,,,,,,,,,,,,,,,,,,,,,,,
,,,,,,,,2023-08-16_08h46.30.050,HF_wild_card,2022.2.4,Win32,59.95203837,5b7c2541afb6ca00016af5ee,64d2fd46c836a06233681665,64dc7eb142b74eebd71f2197,,,,,,,sngl,resources/DY.BMP,resources/Empty.png,WildCard_Ex,-0.386111111,-0.017592593,1,0,0,0.881,optionLeft,55,10705,5,16,0,16,0,1,,,,,,,,,,,,,,,,,,,,,,,,,,,,,,,,,,,,,,,
,,,,,,,,2023-08-16_08h46.30.050,HF_wild_card,2022.2.4,Win32,59.95203837,5b7c2541afb6ca00016af5ee,64d2fd46c836a06233681665,64dc7eb142b74eebd71f2197,,,,,,,decisionTrl,resources/DBN.BMP,resources/DB.BMP,Door3,-0.335185185,-0.008333333,1,0,0,1.075,optionLeft,70,10775,5,17,0,17,0,1,,,,,,,,,,,,,,,,,,,,,,,,,,,,,,,,,,,,,,,
,,,,,,,,2023-08-16_08h46.30.050,HF_wild_card,2022.2.4,Win32,59.95203837,5b7c2541afb6ca00016af5ee,64d2fd46c836a06233681665,64dc7eb142b74eebd71f2197,,,,,,,ctch,resources/DR.BMP,resources/DB.BMP,Door4,0.29537037,-0.025,1,0,0,1.129,optionRight,60,10835,5,18,0,18,0,1,,,,,,,,,,,,,,,,,,,,,,,,,,,,,,,,,,,,,,,
,,,,,,,,2023-08-16_08h46.30.050,HF_wild_card,2022.2.4,Win32,59.95203837,5b7c2541afb6ca00016af5ee,64d2fd46c836a06233681665,64dc7eb142b74eebd71f2197,,,,,,,decisionTrl,resources/DY.BMP,resources/DBN.BMP,Door3,0.269444444,0.009259259,1,0,0,1.294,optionRight,70,10905,5,19,0,19,0,1,,,,,,,,,,,,,,,,,,,,,,,,,,,,,,,,,,,,,,,
,,,,,,,,2023-08-16_08h46.30.050,HF_wild_card,2022.2.4,Win32,59.95203837,5b7c2541afb6ca00016af5ee,64d2fd46c836a06233681665,64dc7eb142b74eebd71f2197,,,,,,,sngl,resources/Empty.png,resources/DY.BMP,WildCard_Ex,0.391666667,-0.027777778,1,0,0,0.829,optionRight,55,10960,5,20,0,20,0,1,,,,,,,,,,,,,,,,,,,,,,,,,,,,,,,,,,,,,,,
,,,,,,,,2023-08-16_08h46.30.050,HF_wild_card,2022.2.4,Win32,59.95203837,5b7c2541afb6ca00016af5ee,64d2fd46c836a06233681665,64dc7eb142b74eebd71f2197,,,,,,,ctch,resources/DP.BMP,resources/DBN.BMP,Door3,0.250925926,-0.010185185,1,0,0,1.197,optionRight,70,11030,5,21,0,21,0,1,,,,,,,,,,,,,,,,,,,,,,,,,,,,,,,,,,,,,,,
,,,,,,,,2023-08-16_08h46.30.050,HF_wild_card,2022.2.4,Win32,59.95203837,5b7c2541afb6ca00016af5ee,64d2fd46c836a06233681665,64dc7eb142b74eebd71f2197,,,,,,,sngl,resources/DB.BMP,resources/Empty.png,Door4,-0.297222222,-0.086111111,1,0,0,1.245,optionLeft,80,11110,5,22,0,22,0,1,,,,,,,,,,,,,,,,,,,,,,,,,,,,,,,,,,,,,,,
,,,,,,,,2023-08-16_08h46.30.050,HF_wild_card,2022.2.4,Win32,59.95203837,5b7c2541afb6ca00016af5ee,64d2fd46c836a06233681665,64dc7eb142b74eebd71f2197,,,,,,,decisionTrl,resources/DBN.BMP,resources/DB.BMP,Door3,-0.362037037,-0.017592593,1,0,0,1.096,optionLeft,70,11180,5,23,0,23,0,1,,,,,,,,,,,,,,,,,,,,,,,,,,,,,,,,,,,,,,,
,,,,,,,,2023-08-16_08h46.30.050,HF_wild_card,2022.2.4,Win32,59.95203837,5b7c2541afb6ca00016af5ee,64d2fd46c836a06233681665,64dc7eb142b74eebd71f2197,,,,,,,ctch,resources/DP.BMP,resources/DBN.BMP,Door3,0.358333333,-0.011111111,1,0,0,1.196,optionRight,70,11250,5,24,0,24,0,1,,,,,,,,,,,,,,,,,,,,,,,,,,,,,,,,,,,,,,,
,,,,,,,,2023-08-16_08h46.30.050,HF_wild_card,2022.2.4,Win32,59.95203837,5b7c2541afb6ca00016af5ee,64d2fd46c836a06233681665,64dc7eb142b74eebd71f2197,,,,,,,decisionTrl,resources/DP.BMP,resources/DR.BMP,Door2,-0.384259259,-0.034259259,1,0,0,1.114,optionLeft,20,11270,5,25,0,25,0,1,,,,,,,,,,,,,,,,,,,,,,,,,,,,,,,,,,,,,,,
,,,,,,,,2023-08-16_08h46.30.050,HF_wild_card,2022.2.4,Win32,59.95203837,5b7c2541afb6ca00016af5ee,64d2fd46c836a06233681665,64dc7eb142b74eebd71f2197,,,,,,,decisionTrl,resources/DB.BMP,resources/DBN.BMP,Door3,0.465740741,-0.086111111,1,0,0,1.147,optionRight,70,11340,5,26,0,26,0,1,,,,,,,,,,,,,,,,,,,,,,,,,,,,,,,,,,,,,,,
,,,,,,,,2023-08-16_08h46.30.050,HF_wild_card,2022.2.4,Win32,59.95203837,5b7c2541afb6ca00016af5ee,64d2fd46c836a06233681665,64dc7eb142b74eebd71f2197,,,,,,,decisionTrl,resources/DP.BMP,resources/DR.BMP,Door2,-0.284259259,-0.062037037,1,0,0,2.178,optionLeft,20,11360,5,27,0,27,0,1,,,,,,,,,,,,,,,,,,,,,,,,,,,,,,,,,,,,,,,
,,,,,,,,2023-08-16_08h46.30.050,HF_wild_card,2022.2.4,Win32,59.95203837,5b7c2541afb6ca00016af5ee,64d2fd46c836a06233681665,64dc7eb142b74eebd71f2197,,,,,,,decisionTrl,resources/DR.BMP,resources/DP.BMP,Door1,-0.335185185,-0.074074074,1,0,0,0.965,optionLeft,30,11390,5,28,0,28,0,1,,,,,,,,,,,,,,,,,,,,,,,,,,,,,,,,,,,,,,,
,,,,,,,,2023-08-16_08h46.30.050,HF_wild_card,2022.2.4,Win32,59.95203837,5b7c2541afb6ca00016af5ee,64d2fd46c836a06233681665,64dc7eb142b74eebd71f2197,,,,,,,decisionTrl,resources/DBN.BMP,resources/DY.BMP,Door3,-0.366666667,-0.044444444,1,0,0,1.322,optionLeft,70,11460,5,29,0,29,0,1,,,,,,,,,,,,,,,,,,,,,,,,,,,,,,,,,,,,,,,
,,,,,,,,2023-08-16_08h46.30.050,HF_wild_card,2022.2.4,Win32,59.95203837,5b7c2541afb6ca00016af5ee,64d2fd46c836a06233681665,64dc7eb142b74eebd71f2197,,,,,,,sngl,resources/Empty.png,resources/DP.BMP,Door2,0.302777778,0.025,1,0,0,0.912,optionRight,20,11480,5,30,0,30,0,1,,,,,,,,,,,,,,,,,,,,,,,,,,,,,,,,,,,,,,,
,,,,,,,,2023-08-16_08h46.30.050,HF_wild_card,2022.2.4,Win32,59.95203837,5b7c2541afb6ca00016af5ee,64d2fd46c836a06233681665,64dc7eb142b74eebd71f2197,,,,,,,decisionTrl,resources/DB.BMP,resources/DY.BMP,Door4,-0.301851852,-0.033333333,1,0,0,1.545,optionLeft,80,11560,5,31,0,31,0,1,,,,,,,,,,,,,,,,,,,,,,,,,,,,,,,,,,,,,,,
,,,,,,,,2023-08-16_08h46.30.050,HF_wild_card,2022.2.4,Win32,59.95203837,5b7c2541afb6ca00016af5ee,64d2fd46c836a06233681665,64dc7eb142b74eebd71f2197,,,,,,,decisionTrl,resources/DP.BMP,resources/DR.BMP,Door1,0.325,-0.002777778,1,0,0,1.662,optionRight,30,11590,5,32,0,32,0,1,,,,,,,,,,,,,,,,,,,,,,,,,,,,,,,,,,,,,,,
,,,,,,,,2023-08-16_08h46.30.050,HF_wild_card,2022.2.4,Win32,59.95203837,5b7c2541afb6ca00016af5ee,64d2fd46c836a06233681665,64dc7eb142b74eebd71f2197,,,,,,,sngl,resources/Empty.png,resources/DY.BMP,WildCard_Ex,0.273148148,-0.000925926,1,0,0,0.747,optionRight,45,11635,5,33,0,33,0,1,,,,,,,,,,,,,,,,,,,,,,,,,,,,,,,,,,,,,,,
,,,,,,,,2023-08-16_08h46.30.050,HF_wild_card,2022.2.4,Win32,59.95203837,5b7c2541afb6ca00016af5ee,64d2fd46c836a06233681665,64dc7eb142b74eebd71f2197,,,,,,,decisionTrl,resources/DY.BMP,resources/DP.BMP,WildCard_Ex,-0.306481481,-0.02962963,1,0,0,2.93,optionLeft,55,11690,5,34,0,34,0,1,,,,,,,,,,,,,,,,,,,,,,,,,,,,,,,,,,,,,,,
,,,,,,,,2023-08-16_08h46.30.050,HF_wild_card,2022.2.4,Win32,59.95203837,5b7c2541afb6ca00016af5ee,64d2fd46c836a06233681665,64dc7eb142b74eebd71f2197,,,,,,,sngl,resources/DBN.BMP,resources/Empty.png,Door3,-0.355555556,-0.012962963,1,0,0,0.93,optionLeft,70,11760,5,35,0,35,0,1,,,,,,,,,,,,,,,,,,,,,,,,,,,,,,,,,,,,,,,
,,,,,,,,2023-08-16_08h46.30.050,HF_wild_card,2022.2.4,Win32,59.95203837,5b7c2541afb6ca00016af5ee,64d2fd46c836a06233681665,64dc7eb142b74eebd71f2197,,,,,,,sngl,resources/Empty.png,resources/DR.BMP,Door1,0.322222222,-0.006481481,1,0,0,1.114,optionRight,30,11790,5,36,0,36,0,1,,,,,,,,,,,,,,,,,,,,,,,,,,,,,,,,,,,,,,,
,,,,,,,,2023-08-16_08h46.30.050,HF_wild_card,2022.2.4,Win32,59.95203837,5b7c2541afb6ca00016af5ee,64d2fd46c836a06233681665,64dc7eb142b74eebd71f2197,,,,,,,ctch,resources/DBN.BMP,resources/DP.BMP,Door3,-0.346296296,-0.046296296,1,0,0,1.23,optionLeft,70,11860,5,37,0,37,0,1,,,,,,,,,,,,,,,,,,,,,,,,,,,,,,,,,,,,,,,
,,,,,,,,2023-08-16_08h46.30.050,HF_wild_card,2022.2.4,Win32,59.95203837,5b7c2541afb6ca00016af5ee,64d2fd46c836a06233681665,64dc7eb142b74eebd71f2197,,,,,,,sngl,resources/DR.BMP,resources/Empty.png,Door1,-0.330555556,-0.02037037,1,0,0,1.13,optionLeft,30,11890,5,38,0,38,0,1,,,,,,,,,,,,,,,,,,,,,,,,,,,,,,,,,,,,,,,
,,,,,,,,2023-08-16_08h46.30.050,HF_wild_card,2022.2.4,Win32,59.95203837,5b7c2541afb6ca00016af5ee,64d2fd46c836a06233681665,64dc7eb142b74eebd71f2197,,,,,,,ctch,resources/DB.BMP,resources/DR.BMP,Door4,-0.281481481,-0.056481481,1,0,0,2.347,optionLeft,80,11970,5,39,0,39,0,1,,,,,,,,,,,,,,,,,,,,,,,,,,,,,,,,,,,,,,,
,,,,,,,,2023-08-16_08h46.30.050,HF_wild_card,2022.2.4,Win32,59.95203837,5b7c2541afb6ca00016af5ee,64d2fd46c836a06233681665,64dc7eb142b74eebd71f2197,,,,,,,sngl,resources/Empty.png,resources/DB.BMP,Door4,0.297222222,-0.024074074,1,0,0,0.981,optionRight,60,12030,5,40,0,40,0,1,,,,,,,,,,,,,,,,,,,,,,,,,,,,,,,,,,,,,,,
,,,,,,,,2023-08-16_08h46.30.050,HF_wild_card,2022.2.4,Win32,59.95203837,5b7c2541afb6ca00016af5ee,64d2fd46c836a06233681665,64dc7eb142b74eebd71f2197,,,,,,,decisionTrl,resources/DR.BMP,resources/DY.BMP,WildCard_Ex,0.305555556,-0.013888889,1,0,0,1.596,optionRight,45,12075,5,41,0,41,0,1,,,,,,,,,,,,,,,,,,,,,,,,,,,,,,,,,,,,,,,
,,,,,,,,2023-08-16_08h46.30.050,HF_wild_card,2022.2.4,Win32,59.95203837,5b7c2541afb6ca00016af5ee,64d2fd46c836a06233681665,64dc7eb142b74eebd71f2197,,,,,,,decisionTrl,resources/DB.BMP,resources/DBN.BMP,Door3,0.332407407,-0.005555556,1,0,0,1.213,optionRight,70,12145,5,42,0,42,0,1,,,,,,,,,,,,,,,,,,,,,,,,,,,,,,,,,,,,,,,
,,,,,,,,2023-08-16_08h46.30.050,HF_wild_card,2022.2.4,Win32,59.95203837,5b7c2541afb6ca00016af5ee,64d2fd46c836a06233681665,64dc7eb142b74eebd71f2197,,,,,,,decisionTrl,resources/DBN.BMP,resources/DB.BMP,Door3,-0.285185185,-0.033333333,1,0,0,1.263,optionLeft,70,12215,5,43,0,43,0,1,,,,,,,,,,,,,,,,,,,,,,,,,,,,,,,,,,,,,,,
,,,,,,,,2023-08-16_08h46.30.050,HF_wild_card,2022.2.4,Win32,59.95203837,5b7c2541afb6ca00016af5ee,64d2fd46c836a06233681665,64dc7eb142b74eebd71f2197,,,,,,,,,,,,,,,,,,,,,,,,,,4,0,4,0,1,,,,,,,,,,,,,,,,,,,,,,,,,,,,,,,,,,
,,,,,,,,2023-08-16_08h46.30.050,HF_wild_card,2022.2.4,Win32,59.95203837,5b7c2541afb6ca00016af5ee,64d2fd46c836a06233681665,64dc7eb142b74eebd71f2197,,,,,,,decisionTrl,resources/DB.BMP,resources/DBN.BMP,Door3,0.280555556,-0.026851852,1,0,0,0.911,optionRight,70,12285,6,0,0,0,0,1,,,,,,,,,,,,,,,,,,,,,,,,,,,,,,,,,,,,,,,
,,,,,,,,2023-08-16_08h46.30.050,HF_wild_card,2022.2.4,Win32,59.95203837,5b7c2541afb6ca00016af5ee,64d2fd46c836a06233681665,64dc7eb142b74eebd71f2197,,,,,,,sngl,resources/Empty.png,resources/DP.BMP,Door2,0.337962963,-0.027777778,1,0,0,1.031,optionRight,40,12325,6,1,0,1,0,1,,,,,,,,,,,,,,,,,,,,,,,,,,,,,,,,,,,,,,,
,,,,,,,,2023-08-16_08h46.30.050,HF_wild_card,2022.2.4,Win32,59.95203837,5b7c2541afb6ca00016af5ee,64d2fd46c836a06233681665,64dc7eb142b74eebd71f2197,,,,,,,sngl,resources/DY.BMP,resources/Empty.png,WildCard_Ex,-0.375925926,-0.048148148,1,0,0,0.914,optionLeft,45,12370,6,2,0,2,0,1,,,,,,,,,,,,,,,,,,,,,,,,,,,,,,,,,,,,,,,
,,,,,,,,2023-08-16_08h46.30.050,HF_wild_card,2022.2.4,Win32,59.95203837,5b7c2541afb6ca00016af5ee,64d2fd46c836a06233681665,64dc7eb142b74eebd71f2197,,,,,,,decisionTrl,resources/DBN.BMP,resources/DB.BMP,Door3,-0.286111111,-0.023148148,1,0,0,1.182,optionLeft,70,12440,6,3,0,3,0,1,,,,,,,,,,,,,,,,,,,,,,,,,,,,,,,,,,,,,,,
,,,,,,,,2023-08-16_08h46.30.050,HF_wild_card,2022.2.4,Win32,59.95203837,5b7c2541afb6ca00016af5ee,64d2fd46c836a06233681665,64dc7eb142b74eebd71f2197,,,,,,,decisionTrl,resources/DY.BMP,resources/DBN.BMP,Door3,0.312962963,-0.000925926,1,0,0,1.28,optionRight,70,12510,6,4,0,4,0,1,,,,,,,,,,,,,,,,,,,,,,,,,,,,,,,,,,,,,,,
,,,,,,,,2023-08-16_08h46.30.050,HF_wild_card,2022.2.4,Win32,59.95203837,5b7c2541afb6ca00016af5ee,64d2fd46c836a06233681665,64dc7eb142b74eebd71f2197,,,,,,,ctch,resources/DP.BMP,resources/DBN.BMP,Door3,0.368518519,0.010185185,1,0,0,1.215,optionRight,70,12580,6,5,0,5,0,1,,,,,,,,,,,,,,,,,,,,,,,,,,,,,,,,,,,,,,,
,,,,,,,,2023-08-16_08h46.30.050,HF_wild_card,2022.2.4,Win32,59.95203837,5b7c2541afb6ca00016af5ee,64d2fd46c836a06233681665,64dc7eb142b74eebd71f2197,,,,,,,sngl,resources/Empty.png,resources/DY.BMP,WildCard_Ex,0.34537037,0.001851852,1,0,0,0.975,optionRight,55,12635,6,6,0,6,0,1,,,,,,,,,,,,,,,,,,,,,,,,,,,,,,,,,,,,,,,
,,,,,,,,2023-08-16_08h46.30.050,HF_wild_card,2022.2.4,Win32,59.95203837,5b7c2541afb6ca00016af5ee,64d2fd46c836a06233681665,64dc7eb142b74eebd71f2197,,,,,,,decisionTrl,resources/DB.BMP,resources/DY.BMP,Door4,-0.388888889,-0.064814815,1,0,0,1.03,optionLeft,60,12695,6,7,0,7,0,1,,,,,,,,,,,,,,,,,,,,,,,,,,,,,,,,,,,,,,,
,,,,,,,,2023-08-16_08h46.30.050,HF_wild_card,2022.2.4,Win32,59.95203837,5b7c2541afb6ca00016af5ee,64d2fd46c836a06233681665,64dc7eb142b74eebd71f2197,,,,,,,ctch,resources/DB.BMP,resources/DR.BMP,Door4,-0.377777778,-0.055555556,1,0,0,1.13,optionLeft,80,12775,6,8,0,8,0,1,,,,,,,,,,,,,,,,,,,,,,,,,,,,,,,,,,,,,,,
,,,,,,,,2023-08-16_08h46.30.050,HF_wild_card,2022.2.4,Win32,59.95203837,5b7c2541afb6ca00016af5ee,64d2fd46c836a06233681665,64dc7eb142b74eebd71f2197,,,,,,,decisionTrl,resources/DBN.BMP,resources/DB.BMP,Door3,-0.305555556,-0.044444444,1,0,0,1.363,optionLeft,70,12845,6,9,0,9,0,1,,,,,,,,,,,,,,,,,,,,,,,,,,,,,,,,,,,,,,,
,,,,,,,,2023-08-16_08h46.30.050,HF_wild_card,2022.2.4,Win32,59.95203837,5b7c2541afb6ca00016af5ee,64d2fd46c836a06233681665,64dc7eb142b74eebd71f2197,,,,,,,sngl,resources/DR.BMP,resources/Empty.png,Door1,-0.350925926,-0.02962963,1,0,0,1.114,optionLeft,30,12875,6,10,0,10,0,1,,,,,,,,,,,,,,,,,,,,,,,,,,,,,,,,,,,,,,,
,,,,,,,,2023-08-16_08h46.30.050,HF_wild_card,2022.2.4,Win32,59.95203837,5b7c2541afb6ca00016af5ee,64d2fd46c836a06233681665,64dc7eb142b74eebd71f2197,,,,,,,sngl,resources/DY.BMP,resources/Empty.png,WildCard_Ex,-0.337962963,-0.034259259,1,0,0,0.93,optionLeft,55,12930,6,11,0,11,0,1,,,,,,,,,,,,,,,,,,,,,,,,,,,,,,,,,,,,,,,
,,,,,,,,2023-08-16_08h46.30.050,HF_wild_card,2022.2.4,Win32,59.95203837,5b7c2541afb6ca00016af5ee,64d2fd46c836a06233681665,64dc7eb142b74eebd71f2197,,,,,,,decisionTrl,resources/DY.BMP,resources/DR.BMP,WildCard_Ex,-0.369444444,-0.060185185,1,0,0,1.447,optionLeft,55,12985,6,12,0,12,0,1,,,,,,,,,,,,,,,,,,,,,,,,,,,,,,,,,,,,,,,
,,,,,,,,2023-08-16_08h46.30.050,HF_wild_card,2022.2.4,Win32,59.95203837,5b7c2541afb6ca00016af5ee,64d2fd46c836a06233681665,64dc7eb142b74eebd71f2197,,,,,,,decisionTrl,resources/DB.BMP,resources/DBN.BMP,Door3,0.301851852,-0.033333333,1,0,0,1.048,optionRight,70,13055,6,13,0,13,0,1,,,,,,,,,,,,,,,,,,,,,,,,,,,,,,,,,,,,,,,
,,,,,,,,2023-08-16_08h46.30.050,HF_wild_card,2022.2.4,Win32,59.95203837,5b7c2541afb6ca00016af5ee,64d2fd46c836a06233681665,64dc7eb142b74eebd71f2197,,,,,,,ctch,resources/DB.BMP,resources/DR.BMP,Door4,-0.330555556,-0.043518519,1,0,0,1.364,optionLeft,80,13135,6,14,0,14,0,1,,,,,,,,,,,,,,,,,,,,,,,,,,,,,,,,,,,,,,,
,,,,,,,,2023-08-16_08h46.30.050,HF_wild_card,2022.2.4,Win32,59.95203837,5b7c2541afb6ca00016af5ee,64d2fd46c836a06233681665,64dc7eb142b74eebd71f2197,,,,,,,decisionTrl,resources/DR.BMP,resources/DP.BMP,Door1,-0.408333333,-0.027777778,1,0,0,1.797,optionLeft,30,13165,6,15,0,15,0,1,,,,,,,,,,,,,,,,,,,,,,,,,,,,,,,,,,,,,,,
,,,,,,,,2023-08-16_08h46.30.050,HF_wild_card,2022.2.4,Win32,59.95203837,5b7c2541afb6ca00016af5ee,64d2fd46c836a06233681665,64dc7eb142b74eebd71f2197,,,,,,,sngl,resources/DBN.BMP,resources/Empty.png,Door3,-0.434259259,-0.034259259,1,0,0,1.18,optionLeft,70,13235,6,16,0,16,0,1,,,,,,,,,,,,,,,,,,,,,,,,,,,,,,,,,,,,,,,
,,,,,,,,2023-08-16_08h46.30.050,HF_wild_card,2022.2.4,Win32,59.95203837,5b7c2541afb6ca00016af5ee,64d2fd46c836a06233681665,64dc7eb142b74eebd71f2197,,,,,,,decisionTrl,resources/DR.BMP,resources/DP.BMP,Door1,-0.375925926,-0.031481481,1,0,0,1.973,optionLeft,30,13265,6,17,0,17,0,1,,,,,,,,,,,,,,,,,,,,,,,,,,,,,,,,,,,,,,,
,,,,,,,,2023-08-16_08h46.30.050,HF_wild_card,2022.2.4,Win32,59.95203837,5b7c2541afb6ca00016af5ee,64d2fd46c836a06233681665,64dc7eb142b74eebd71f2197,,,,,,,ctch,resources/DR.BMP,resources/DB.BMP,Door4,0.412962963,0.008333333,1,0,0,0.997,optionRight,60,13325,6,18,0,18,0,1,,,,,,,,,,,,,,,,,,,,,,,,,,,,,,,,,,,,,,,
,,,,,,,,2023-08-16_08h46.30.050,HF_wild_card,2022.2.4,Win32,59.95203837,5b7c2541afb6ca00016af5ee,64d2fd46c836a06233681665,64dc7eb142b74eebd71f2197,,,,,,,decisionTrl,resources/DBN.BMP,resources/DB.BMP,Door3,-0.408333333,-0.00462963,1,0,0,0.98,optionLeft,70,13395,6,19,0,19,0,1,,,,,,,,,,,,,,,,,,,,,,,,,,,,,,,,,,,,,,,
,,,,,,,,2023-08-16_08h46.30.050,HF_wild_card,2022.2.4,Win32,59.95203837,5b7c2541afb6ca00016af5ee,64d2fd46c836a06233681665,64dc7eb142b74eebd71f2197,,,,,,,decisionTrl,resources/DBN.BMP,resources/DY.BMP,Door3,-0.4,0.000925926,1,0,0,1.063,optionLeft,70,13465,6,20,0,20,0,1,,,,,,,,,,,,,,,,,,,,,,,,,,,,,,,,,,,,,,,
,,,,,,,,2023-08-16_08h46.30.050,HF_wild_card,2022.2.4,Win32,59.95203837,5b7c2541afb6ca00016af5ee,64d2fd46c836a06233681665,64dc7eb142b74eebd71f2197,,,,,,,sngl,resources/Empty.png,resources/DR.BMP,Door1,0.384259259,-0.031481481,1,0,0,0.93,optionRight,30,13495,6,21,0,21,0,1,,,,,,,,,,,,,,,,,,,,,,,,,,,,,,,,,,,,,,,
,,,,,,,,2023-08-16_08h46.30.050,HF_wild_card,2022.2.4,Win32,59.95203837,5b7c2541afb6ca00016af5ee,64d2fd46c836a06233681665,64dc7eb142b74eebd71f2197,,,,,,,sngl,resources/Empty.png,resources/DB.BMP,Door4,0.384259259,-0.040740741,1,0,0,0.948,optionRight,80,13575,6,22,0,22,0,1,,,,,,,,,,,,,,,,,,,,,,,,,,,,,,,,,,,,,,,
,,,,,,,,2023-08-16_08h46.30.050,HF_wild_card,2022.2.4,Win32,59.95203837,5b7c2541afb6ca00016af5ee,64d2fd46c836a06233681665,64dc7eb142b74eebd71f2197,,,,,,,decisionTrl,resources/DR.BMP,resources/DP.BMP,Door1,-0.239814815,-0.044444444,1,0,0,1.698,optionLeft,30,13605,6,23,0,23,0,1,,,,,,,,,,,,,,,,,,,,,,,,,,,,,,,,,,,,,,,
,,,,,,,,2023-08-16_08h46.30.050,HF_wild_card,2022.2.4,Win32,59.95203837,5b7c2541afb6ca00016af5ee,64d2fd46c836a06233681665,64dc7eb142b74eebd71f2197,,,,,,,sngl,resources/Empty.png,resources/DBN.BMP,Door3,0.323148148,0.030555556,1,0,0,0.913,optionRight,70,13675,6,24,0,24,0,1,,,,,,,,,,,,,,,,,,,,,,,,,,,,,,,,,,,,,,,
,,,,,,,,2023-08-16_08h46.30.050,HF_wild_card,2022.2.4,Win32,59.95203837,5b7c2541afb6ca00016af5ee,64d2fd46c836a06233681665,64dc7eb142b74eebd71f2197,,,,,,,sngl,resources/DB.BMP,resources/Empty.png,Door4,-0.384259259,-0.037962963,1,0,0,1.114,optionLeft,60,13735,6,25,0,25,0,1,,,,,,,,,,,,,,,,,,,,,,,,,,,,,,,,,,,,,,,
,,,,,,,,2023-08-16_08h46.30.050,HF_wild_card,2022.2.4,Win32,59.95203837,5b7c2541afb6ca00016af5ee,64d2fd46c836a06233681665,64dc7eb142b74eebd71f2197,,,,,,,decisionTrl,resources/DY.BMP,resources/DB.BMP,Door4,0.361111111,-0.00462963,1,0,0,1.431,optionRight,60,13795,6,26,0,26,0,1,,,,,,,,,,,,,,,,,,,,,,,,,,,,,,,,,,,,,,,
,,,,,,,,2023-08-16_08h46.30.050,HF_wild_card,2022.2.4,Win32,59.95203837,5b7c2541afb6ca00016af5ee,64d2fd46c836a06233681665,64dc7eb142b74eebd71f2197,,,,,,,ctch,resources/DBN.BMP,resources/DP.BMP,Door3,-0.361111111,-0.04537037,1,0,0,1.213,optionLeft,70,13865,6,27,0,27,0,1,,,,,,,,,,,,,,,,,,,,,,,,,,,,,,,,,,,,,,,
,,,,,,,,2023-08-16_08h46.30.050,HF_wild_card,2022.2.4,Win32,59.95203837,5b7c2541afb6ca00016af5ee,64d2fd46c836a06233681665,64dc7eb142b74eebd71f2197,,,,,,,sngl,resources/DP.BMP,resources/Empty.png,Door2,-0.353703704,-0.062962963,1,0,0,1.022,optionLeft,20,13885,6,28,0,28,0,1,,,,,,,,,,,,,,,,,,,,,,,,,,,,,,,,,,,,,,,
,,,,,,,,2023-08-16_08h46.30.050,HF_wild_card,2022.2.4,Win32,59.95203837,5b7c2541afb6ca00016af5ee,64d2fd46c836a06233681665,64dc7eb142b74eebd71f2197,,,,,,,decisionTrl,resources/DBN.BMP,resources/DB.BMP,Door3,-0.344444444,-0.040740741,1,0,0,1.53,optionLeft,70,13955,6,29,0,29,0,1,,,,,,,,,,,,,,,,,,,,,,,,,,,,,,,,,,,,,,,
,,,,,,,,2023-08-16_08h46.30.050,HF_wild_card,2022.2.4,Win32,59.95203837,5b7c2541afb6ca00016af5ee,64d2fd46c836a06233681665,64dc7eb142b74eebd71f2197,,,,,,,ctch,resources/DR.BMP,resources/DB.BMP,Door4,0.321296296,-0.046296296,1,0,0,1.279,optionRight,80,14035,6,30,0,30,0,1,,,,,,,,,,,,,,,,,,,,,,,,,,,,,,,,,,,,,,,
,,,,,,,,2023-08-16_08h46.30.050,HF_wild_card,2022.2.4,Win32,59.95203837,5b7c2541afb6ca00016af5ee,64d2fd46c836a06233681665,64dc7eb142b74eebd71f2197,,,,,,,ctch,resources/DBN.BMP,resources/DP.BMP,Door3,-0.424074074,-0.018518519,1,0,0,1.213,optionLeft,70,14105,6,31,0,31,0,1,,,,,,,,,,,,,,,,,,,,,,,,,,,,,,,,,,,,,,,
,,,,,,,,2023-08-16_08h46.30.050,HF_wild_card,2022.2.4,Win32,59.95203837,5b7c2541afb6ca00016af5ee,64d2fd46c836a06233681665,64dc7eb142b74eebd71f2197,,,,,,,decisionTrl,resources/DP.BMP,resources/DR.BMP,Door1,0.271296296,-0.019444444,1,0,0,1.496,optionRight,30,14135,6,32,0,32,0,1,,,,,,,,,,,,,,,,,,,,,,,,,,,,,,,,,,,,,,,
,,,,,,,,2023-08-16_08h46.30.050,HF_wild_card,2022.2.4,Win32,59.95203837,5b7c2541afb6ca00016af5ee,64d2fd46c836a06233681665,64dc7eb142b74eebd71f2197,,,,,,,decisionTrl,resources/DB.BMP,resources/DBN.BMP,Door3,0.364814815,-0.043518519,1,0,0,1.214,optionRight,70,14205,6,33,0,33,0,1,,,,,,,,,,,,,,,,,,,,,,,,,,,,,,,,,,,,,,,
,,,,,,,,2023-08-16_08h46.30.050,HF_wild_card,2022.2.4,Win32,59.95203837,5b7c2541afb6ca00016af5ee,64d2fd46c836a06233681665,64dc7eb142b74eebd71f2197,,,,,,,decisionTrl,resources/DP.BMP,resources/DR.BMP,Door1,0.391666667,-0.062962963,1,0,0,1.447,optionRight,30,14235,6,34,0,34,0,1,,,,,,,,,,,,,,,,,,,,,,,,,,,,,,,,,,,,,,,
,,,,,,,,2023-08-16_08h46.30.050,HF_wild_card,2022.2.4,Win32,59.95203837,5b7c2541afb6ca00016af5ee,64d2fd46c836a06233681665,64dc7eb142b74eebd71f2197,,,,,,,ctch,resources/DP.BMP,resources/DBN.BMP,Door3,0.312962963,0.002777778,1,0,0,1.231,optionRight,70,14305,6,35,0,35,0,1,,,,,,,,,,,,,,,,,,,,,,,,,,,,,,,,,,,,,,,
,,,,,,,,2023-08-16_08h46.30.050,HF_wild_card,2022.2.4,Win32,59.95203837,5b7c2541afb6ca00016af5ee,64d2fd46c836a06233681665,64dc7eb142b74eebd71f2197,,,,,,,decisionTrl,resources/DB.BMP,resources/DBN.BMP,Door3,0.275925926,-0.02037037,1,0,0,1.265,optionRight,70,14375,6,36,0,36,0,1,,,,,,,,,,,,,,,,,,,,,,,,,,,,,,,,,,,,,,,
,,,,,,,,2023-08-16_08h46.30.050,HF_wild_card,2022.2.4,Win32,59.95203837,5b7c2541afb6ca00016af5ee,64d2fd46c836a06233681665,64dc7eb142b74eebd71f2197,,,,,,,sngl,resources/Empty.png,resources/DY.BMP,WildCard_Ex,0.372222222,-0.002777778,1,0,0,0.948,optionRight,45,14420,6,37,0,37,0,1,,,,,,,,,,,,,,,,,,,,,,,,,,,,,,,,,,,,,,,
,,,,,,,,2023-08-16_08h46.30.050,HF_wild_card,2022.2.4,Win32,59.95203837,5b7c2541afb6ca00016af5ee,64d2fd46c836a06233681665,64dc7eb142b74eebd71f2197,,,,,,,decisionTrl,resources/DR.BMP,resources/DY.BMP,WildCard_Ex,0.414814815,-0.026851852,1,0,0,1.215,optionRight,45,14465,6,38,0,38,0,1,,,,,,,,,,,,,,,,,,,,,,,,,,,,,,,,,,,,,,,
,,,,,,,,2023-08-16_08h46.30.050,HF_wild_card,2022.2.4,Win32,59.95203837,5b7c2541afb6ca00016af5ee,64d2fd46c836a06233681665,64dc7eb142b74eebd71f2197,,,,,,,decisionTrl,resources/DP.BMP,resources/DY.BMP,WildCard_Ex,0.264814815,-0.003703704,1,0,0,1.514,optionRight,45,14510,6,39,0,39,0,1,,,,,,,,,,,,,,,,,,,,,,,,,,,,,,,,,,,,,,,
,,,,,,,,2023-08-16_08h46.30.050,HF_wild_card,2022.2.4,Win32,59.95203837,5b7c2541afb6ca00016af5ee,64d2fd46c836a06233681665,64dc7eb142b74eebd71f2197,,,,,,,decisionTrl,resources/DY.BMP,resources/DP.BMP,Door2,0.326851852,-0.019444444,1,0,0,1.442,optionRight,20,14530,6,40,0,40,0,1,,,,,,,,,,,,,,,,,,,,,,,,,,,,,,,,,,,,,,,
,,,,,,,,2023-08-16_08h46.30.050,HF_wild_card,2022.2.4,Win32,59.95203837,5b7c2541afb6ca00016af5ee,64d2fd46c836a06233681665,64dc7eb142b74eebd71f2197,,,,,,,decisionTrl,resources/DP.BMP,resources/DR.BMP,Door1,0.325925926,-0.038888889,1,0,0,1.663,optionRight,30,14560,6,41,0,41,0,1,,,,,,,,,,,,,,,,,,,,,,,,,,,,,,,,,,,,,,,
,,,,,,,,2023-08-16_08h46.30.050,HF_wild_card,2022.2.4,Win32,59.95203837,5b7c2541afb6ca00016af5ee,64d2fd46c836a06233681665,64dc7eb142b74eebd71f2197,,,,,,,decisionTrl,resources/DR.BMP,resources/DP.BMP,Door1,-0.299074074,-0.05462963,1,0,0,1.411,optionLeft,30,14590,6,42,0,42,0,1,,,,,,,,,,,,,,,,,,,,,,,,,,,,,,,,,,,,,,,
,,,,,,,,2023-08-16_08h46.30.050,HF_wild_card,2022.2.4,Win32,59.95203837,5b7c2541afb6ca00016af5ee,64d2fd46c836a06233681665,64dc7eb142b74eebd71f2197,,,,,,,decisionTrl,resources/DP.BMP,resources/DR.BMP,Door1,0.339814815,-0.047222222,1,0,0,1.297,optionRight,30,14620,6,43,0,43,0,1,,,,,,,,,,,,,,,,,,,,,,,,,,,,,,,,,,,,,,,
,,,,,,,,2023-08-16_08h46.30.050,HF_wild_card,2022.2.4,Win32,59.95203837,5b7c2541afb6ca00016af5ee,64d2fd46c836a06233681665,64dc7eb142b74eebd71f2197,,,,,,,,,,,,,,,,,,,,,,,,,,5,0,5,0,1,,,,,,,,,,,,,,,,,,,,,,,,,,,,,,,,,,
,,,,,,,,2023-08-16_08h46.30.050,HF_wild_card,2022.2.4,Win32,59.95203837,5b7c2541afb6ca00016af5ee,64d2fd46c836a06233681665,64dc7eb142b74eebd71f2197,,,,,,,decisionTrl,resources/DB.BMP,resources/DBN.BMP,Door3,0.362962963,0.009259259,1,0,0,1.023,optionRight,70,14690,7,0,0,0,0,1,,,,,,,,,,,,,,,,,,,,,,,,,,,,,,,,,,,,,,,
,,,,,,,,2023-08-16_08h46.30.050,HF_wild_card,2022.2.4,Win32,59.95203837,5b7c2541afb6ca00016af5ee,64d2fd46c836a06233681665,64dc7eb142b74eebd71f2197,,,,,,,ctch,resources/DBN.BMP,resources/DP.BMP,Door3,-0.341666667,-0.012037037,1,0,0,0.948,optionLeft,70,14760,7,1,0,1,0,1,,,,,,,,,,,,,,,,,,,,,,,,,,,,,,,,,,,,,,,
,,,,,,,,2023-08-16_08h46.30.050,HF_wild_card,2022.2.4,Win32,59.95203837,5b7c2541afb6ca00016af5ee,64d2fd46c836a06233681665,64dc7eb142b74eebd71f2197,,,,,,,decisionTrl,resources/DP.BMP,resources/DR.BMP,Door1,0.362037037,-0.038888889,1,0,0,1.728,optionRight,30,14790,7,2,0,2,0,1,,,,,,,,,,,,,,,,,,,,,,,,,,,,,,,,,,,,,,,
,,,,,,,,2023-08-16_08h46.30.050,HF_wild_card,2022.2.4,Win32,59.95203837,5b7c2541afb6ca00016af5ee,64d2fd46c836a06233681665,64dc7eb142b74eebd71f2197,,,,,,,decisionTrl,resources/DBN.BMP,resources/DB.BMP,Door3,-0.294444444,-0.013888889,1,0,0,1.181,optionLeft,70,14860,7,3,0,3,0,1,,,,,,,,,,,,,,,,,,,,,,,,,,,,,,,,,,,,,,,
,,,,,,,,2023-08-16_08h46.30.050,HF_wild_card,2022.2.4,Win32,59.95203837,5b7c2541afb6ca00016af5ee,64d2fd46c836a06233681665,64dc7eb142b74eebd71f2197,,,,,,,decisionTrl,resources/DP.BMP,resources/DR.BMP,Door1,0.362037037,-0.017592593,1,0,0,1.882,optionRight,30,14890,7,4,0,4,0,1,,,,,,,,,,,,,,,,,,,,,,,,,,,,,,,,,,,,,,,
,,,,,,,,2023-08-16_08h46.30.050,HF_wild_card,2022.2.4,Win32,59.95203837,5b7c2541afb6ca00016af5ee,64d2fd46c836a06233681665,64dc7eb142b74eebd71f2197,,,,,,,decisionTrl,resources/DB.BMP,resources/DBN.BMP,Door3,0.273148148,0.002777778,1,0,0,2.832,optionRight,70,14960,7,5,0,5,0,1,,,,,,,,,,,,,,,,,,,,,,,,,,,,,,,,,,,,,,,
,,,,,,,,2023-08-16_08h46.30.050,HF_wild_card,2022.2.4,Win32,59.95203837,5b7c2541afb6ca00016af5ee,64d2fd46c836a06233681665,64dc7eb142b74eebd71f2197,,,,,,,ctch,resources/DBN.BMP,resources/DP.BMP,Door3,-0.251851852,-0.028703704,1,0,0,1.081,optionLeft,70,15030,7,6,0,6,0,1,,,,,,,,,,,,,,,,,,,,,,,,,,,,,,,,,,,,,,,
,,,,,,,,2023-08-16_08h46.30.050,HF_wild_card,2022.2.4,Win32,59.95203837,5b7c2541afb6ca00016af5ee,64d2fd46c836a06233681665,64dc7eb142b74eebd71f2197,,,,,,,decisionTrl,resources/DB.BMP,resources/DBN.BMP,Door3,0.351851852,0.000925926,1,0,0,1.548,optionRight,70,15100,7,7,0,7,0,1,,,,,,,,,,,,,,,,,,,,,,,,,,,,,,,,,,,,,,,
,,,,,,,,2023-08-16_08h46.30.050,HF_wild_card,2022.2.4,Win32,59.95203837,5b7c2541afb6ca00016af5ee,64d2fd46c836a06233681665,64dc7eb142b74eebd71f2197,,,,,,,ctch,resources/DBN.BMP,resources/DP.BMP,Door3,-0.373148148,-0.009259259,1,0,0,1.049,optionLeft,70,15170,7,8,0,8,0,1,,,,,,,,,,,,,,,,,,,,,,,,,,,,,,,,,,,,,,,
,,,,,,,,2023-08-16_08h46.30.050,HF_wild_card,2022.2.4,Win32,59.95203837,5b7c2541afb6ca00016af5ee,64d2fd46c836a06233681665,64dc7eb142b74eebd71f2197,,,,,,,decisionTrl,resources/DP.BMP,resources/DR.BMP,Door1,0.32962963,-0.030555556,1,0,0,1.132,optionRight,30,15200,7,9,0,9,0,1,,,,,,,,,,,,,,,,,,,,,,,,,,,,,,,,,,,,,,,
,,,,,,,,2023-08-16_08h46.30.050,HF_wild_card,2022.2.4,Win32,59.95203837,5b7c2541afb6ca00016af5ee,64d2fd46c836a06233681665,64dc7eb142b74eebd71f2197,,,,,,,decisionTrl,resources/DR.BMP,resources/DP.BMP,Door1,-0.271296296,-0.031481481,1,0,0,1.364,optionLeft,30,15230,7,10,0,10,0,1,,,,,,,,,,,,,,,,,,,,,,,,,,,,,,,,,,,,,,,
,,,,,,,,2023-08-16_08h46.30.050,HF_wild_card,2022.2.4,Win32,59.95203837,5b7c2541afb6ca00016af5ee,64d2fd46c836a06233681665,64dc7eb142b74eebd71f2197,,,,,,,ctch,resources/DR.BMP,resources/DB.BMP,Door4,0.316666667,0.009259259,1,0,0,1.36,optionRight,60,15290,7,11,0,11,0,1,,,,,,,,,,,,,,,,,,,,,,,,,,,,,,,,,,,,,,,
,,,,,,,,2023-08-16_08h46.30.050,HF_wild_card,2022.2.4,Win32,59.95203837,5b7c2541afb6ca00016af5ee,64d2fd46c836a06233681665,64dc7eb142b74eebd71f2197,,,,,,,decisionTrl,resources/DR.BMP,resources/DP.BMP,Door1,-0.315740741,-0.013888889,1,0,0,1.347,optionLeft,30,15320,7,12,0,12,0,1,,,,,,,,,,,,,,,,,,,,,,,,,,,,,,,,,,,,,,,
,,,,,,,,2023-08-16_08h46.30.050,HF_wild_card,2022.2.4,Win32,59.95203837,5b7c2541afb6ca00016af5ee,64d2fd46c836a06233681665,64dc7eb142b74eebd71f2197,,,,,,,decisionTrl,resources/DBN.BMP,resources/DB.BMP,Door3,-0.394444444,-0.022222222,1,0,0,1.53,optionLeft,70,15390,7,13,0,13,0,1,,,,,,,,,,,,,,,,,,,,,,,,,,,,,,,,,,,,,,,
,,,,,,,,2023-08-16_08h46.30.050,HF_wild_card,2022.2.4,Win32,59.95203837,5b7c2541afb6ca00016af5ee,64d2fd46c836a06233681665,64dc7eb142b74eebd71f2197,,,,,,,ctch,resources/DB.BMP,resources/DR.BMP,Door4,-0.397222222,-0.055555556,1,0,0,1.132,optionLeft,80,15470,7,14,0,14,0,1,,,,,,,,,,,,,,,,,,,,,,,,,,,,,,,,,,,,,,,
,,,,,,,,2023-08-16_08h46.30.050,HF_wild_card,2022.2.4,Win32,59.95203837,5b7c2541afb6ca00016af5ee,64d2fd46c836a06233681665,64dc7eb142b74eebd71f2197,,,,,,,decisionTrl,resources/DBN.BMP,resources/DB.BMP,Door3,-0.366666667,-0.006481481,1,0,0,1.063,optionLeft,70,15540,7,15,0,15,0,1,,,,,,,,,,,,,,,,,,,,,,,,,,,,,,,,,,,,,,,
,,,,,,,,2023-08-16_08h46.30.050,HF_wild_card,2022.2.4,Win32,59.95203837,5b7c2541afb6ca00016af5ee,64d2fd46c836a06233681665,64dc7eb142b74eebd71f2197,,,,,,,decisionTrl,resources/DBN.BMP,resources/DB.BMP,Door3,-0.337037037,-0.037962963,1,0,0,1.565,optionLeft,70,15610,7,16,0,16,0,1,,,,,,,,,,,,,,,,,,,,,,,,,,,,,,,,,,,,,,,
,,,,,,,,2023-08-16_08h46.30.050,HF_wild_card,2022.2.4,Win32,59.95203837,5b7c2541afb6ca00016af5ee,64d2fd46c836a06233681665,64dc7eb142b74eebd71f2197,,,,,,,ctch,resources/DP.BMP,resources/DBN.BMP,Door3,0.264814815,-0.000925926,1,0,0,1.497,optionRight,70,15680,7,17,0,17,0,1,,,,,,,,,,,,,,,,,,,,,,,,,,,,,,,,,,,,,,,
,,,,,,,,2023-08-16_08h46.30.050,HF_wild_card,2022.2.4,Win32,59.95203837,5b7c2541afb6ca00016af5ee,64d2fd46c836a06233681665,64dc7eb142b74eebd71f2197,,,,,,,decisionTrl,resources/DP.BMP,resources/DR.BMP,Door1,0.32962963,0.006481481,1,0,0,1.297,optionRight,30,15710,7,18,0,18,0,1,,,,,,,,,,,,,,,,,,,,,,,,,,,,,,,,,,,,,,,
,,,,,,,,2023-08-16_08h46.30.050,HF_wild_card,2022.2.4,Win32,59.95203837,5b7c2541afb6ca00016af5ee,64d2fd46c836a06233681665,64dc7eb142b74eebd71f2197,,,,,,,decisionTrl,resources/DR.BMP,resources/DP.BMP,Door1,-0.341666667,-0.057407407,1,0,0,1.181,optionLeft,30,15740,7,19,0,19,0,1,,,,,,,,,,,,,,,,,,,,,,,,,,,,,,,,,,,,,,,
,,,,,,,,2023-08-16_08h46.30.050,HF_wild_card,2022.2.4,Win32,59.95203837,5b7c2541afb6ca00016af5ee,64d2fd46c836a06233681665,64dc7eb142b74eebd71f2197,,,,,,,decisionTrl,resources/DP.BMP,resources/DR.BMP,Door1,0.321296296,-0.032407407,1,0,0,0.866,optionRight,30,15770,7,20,0,20,0,1,,,,,,,,,,,,,,,,,,,,,,,,,,,,,,,,,,,,,,,
,,,,,,,,2023-08-16_08h46.30.050,HF_wild_card,2022.2.4,Win32,59.95203837,5b7c2541afb6ca00016af5ee,64d2fd46c836a06233681665,64dc7eb142b74eebd71f2197,,,,,,,decisionTrl,resources/DR.BMP,resources/DP.BMP,Door1,-0.396296296,-0.021296296,1,0,0,1.08,optionLeft,30,15800,7,21,0,21,0,1,,,,,,,,,,,,,,,,,,,,,,,,,,,,,,,,,,,,,,,
,,,,,,,,2023-08-16_08h46.30.050,HF_wild_card,2022.2.4,Win32,59.95203837,5b7c2541afb6ca00016af5ee,64d2fd46c836a06233681665,64dc7eb142b74eebd71f2197,,,,,,,ctch,resources/DP.BMP,resources/DBN.BMP,Door3,0.472222222,-0.011111111,1,0,0,1.097,optionRight,70,15870,7,22,0,22,0,1,,,,,,,,,,,,,,,,,,,,,,,,,,,,,,,,,,,,,,,
,,,,,,,,2023-08-16_08h46.30.050,HF_wild_card,2022.2.4,Win32,59.95203837,5b7c2541afb6ca00016af5ee,64d2fd46c836a06233681665,64dc7eb142b74eebd71f2197,,,,,,,decisionTrl,resources/DB.BMP,resources/DBN.BMP,Door3,0.361111111,0.010185185,1,0,0,1.281,optionRight,70,15940,7,23,0,23,0,1,,,,,,,,,,,,,,,,,,,,,,,,,,,,,,,,,,,,,,,
,,,,,,,,2023-08-16_08h46.30.050,HF_wild_card,2022.2.4,Win32,59.95203837,5b7c2541afb6ca00016af5ee,64d2fd46c836a06233681665,64dc7eb142b74eebd71f2197,,,,,,,ctch,resources/DR.BMP,resources/DB.BMP,Door4,0.446296296,-0.062037037,1,0,0,1.299,optionRight,60,16000,7,24,0,24,0,1,,,,,,,,,,,,,,,,,,,,,,,,,,,,,,,,,,,,,,,
,,,,,,,,2023-08-16_08h46.30.050,HF_wild_card,2022.2.4,Win32,59.95203837,5b7c2541afb6ca00016af5ee,64d2fd46c836a06233681665,64dc7eb142b74eebd71f2197,,,,,,,ctch,resources/DP.BMP,resources/DBN.BMP,Door3,0.425,-0.026851852,1,0,0,0.962,optionRight,70,16070,7,25,0,25,0,1,,,,,,,,,,,,,,,,,,,,,,,,,,,,,,,,,,,,,,,
,,,,,,,,2023-08-16_08h46.30.050,HF_wild_card,2022.2.4,Win32,59.95203837,5b7c2541afb6ca00016af5ee,64d2fd46c836a06233681665,64dc7eb142b74eebd71f2197,,,,,,,ctch,resources/DB.BMP,resources/DR.BMP,Door4,-0.340740741,-0.025925926,1,0,0,1.214,optionLeft,80,16150,7,26,0,26,0,1,,,,,,,,,,,,,,,,,,,,,,,,,,,,,,,,,,,,,,,
,,,,,,,,2023-08-16_08h46.30.050,HF_wild_card,2022.2.4,Win32,59.95203837,5b7c2541afb6ca00016af5ee,64d2fd46c836a06233681665,64dc7eb142b74eebd71f2197,,,,,,,ctch,resources/DB.BMP,resources/DR.BMP,Door4,-0.40462963,-0.044444444,1,0,0,1.166,optionLeft,60,16210,7,27,0,27,0,1,,,,,,,,,,,,,,,,,,,,,,,,,,,,,,,,,,,,,,,
,,,,,,,,2023-08-16_08h46.30.050,HF_wild_card,2022.2.4,Win32,59.95203837,5b7c2541afb6ca00016af5ee,64d2fd46c836a06233681665,64dc7eb142b74eebd71f2197,,,,,,,decisionTrl,resources/DB.BMP,resources/DBN.BMP,Door3,0.325925926,-0.052777778,1,0,0,1.465,optionRight,70,16280,7,28,0,28,0,1,,,,,,,,,,,,,,,,,,,,,,,,,,,,,,,,,,,,,,,
,,,,,,,,2023-08-16_08h46.30.050,HF_wild_card,2022.2.4,Win32,59.95203837,5b7c2541afb6ca00016af5ee,64d2fd46c836a06233681665,64dc7eb142b74eebd71f2197,,,,,,,decisionTrl,resources/DBN.BMP,resources/DB.BMP,Door3,-0.353703704,-0.051851852,1,0,0,0.915,optionLeft,70,16350,7,29,0,29,0,1,,,,,,,,,,,,,,,,,,,,,,,,,,,,,,,,,,,,,,,
,,,,,,,,2023-08-16_08h46.30.050,HF_wild_card,2022.2.4,Win32,59.95203837,5b7c2541afb6ca00016af5ee,64d2fd46c836a06233681665,64dc7eb142b74eebd71f2197,,,,,,,decisionTrl,resources/DP.BMP,resources/DR.BMP,Door1,0.371296296,-0.082407407,1,0,0,1.016,optionRight,30,16380,7,30,0,30,0,1,,,,,,,,,,,,,,,,,,,,,,,,,,,,,,,,,,,,,,,
,,,,,,,,2023-08-16_08h46.30.050,HF_wild_card,2022.2.4,Win32,59.95203837,5b7c2541afb6ca00016af5ee,64d2fd46c836a06233681665,64dc7eb142b74eebd71f2197,,,,,,,ctch,resources/DR.BMP,resources/DB.BMP,Door4,0.361111111,-0.024074074,1,0,0,1.03,optionRight,60,16440,7,31,0,31,0,1,,,,,,,,,,,,,,,,,,,,,,,,,,,,,,,,,,,,,,,
,,,,,,,,2023-08-16_08h46.30.050,HF_wild_card,2022.2.4,Win32,59.95203837,5b7c2541afb6ca00016af5ee,64d2fd46c836a06233681665,64dc7eb142b74eebd71f2197,,,,,,,decisionTrl,resources/DB.BMP,resources/DBN.BMP,Door3,0.355555556,-0.002777778,1,0,0,0.848,optionRight,70,16510,7,32,0,32,0,1,,,,,,,,,,,,,,,,,,,,,,,,,,,,,,,,,,,,,,,
,,,,,,,,2023-08-16_08h46.30.050,HF_wild_card,2022.2.4,Win32,59.95203837,5b7c2541afb6ca00016af5ee,64d2fd46c836a06233681665,64dc7eb142b74eebd71f2197,,,,,,,decisionTrl,resources/DR.BMP,resources/DP.BMP,Door1,-0.318518519,-0.014814815,1,0,0,1.648,optionLeft,30,16540,7,33,0,33,0,1,,,,,,,,,,,,,,,,,,,,,,,,,,,,,,,,,,,,,,,
,,,,,,,,2023-08-16_08h46.30.050,HF_wild_card,2022.2.4,Win32,59.95203837,5b7c2541afb6ca00016af5ee,64d2fd46c836a06233681665,64dc7eb142b74eebd71f2197,,,,,,,decisionTrl,resources/DR.BMP,resources/DP.BMP,Door1,-0.416666667,-0.049074074,1,0,0,1.399,optionLeft,30,16570,7,34,0,34,0,1,,,,,,,,,,,,,,,,,,,,,,,,,,,,,,,,,,,,,,,
,,,,,,,,2023-08-16_08h46.30.050,HF_wild_card,2022.2.4,Win32,59.95203837,5b7c2541afb6ca00016af5ee,64d2fd46c836a06233681665,64dc7eb142b74eebd71f2197,,,,,,,decisionTrl,resources/DBN.BMP,resources/DB.BMP,Door3,-0.359259259,-0.018518519,1,0,0,0.881,optionLeft,70,16640,7,35,0,35,0,1,,,,,,,,,,,,,,,,,,,,,,,,,,,,,,,,,,,,,,,
,,,,,,,,2023-08-16_08h46.30.050,HF_wild_card,2022.2.4,Win32,59.95203837,5b7c2541afb6ca00016af5ee,64d2fd46c836a06233681665,64dc7eb142b74eebd71f2197,,,,,,,,,,,,,,,,,,,,,,,,,,6,0,6,0,1,,,,,,,,,,,,,,,,,,,,,,,,,,,,,,,,,,
,,,,,,,,2023-08-16_08h46.30.050,HF_wild_card,2022.2.4,Win32,59.95203837,5b7c2541afb6ca00016af5ee,64d2fd46c836a06233681665,64dc7eb142b74eebd71f2197,,,,,,,,,,,,,,,,,,,,,,,,,,,,,,,4,,,,,,,,,,,,,,,,,,,,,,,,,,,,,,,,,
,,,,,,,,2023-08-16_08h46.30.050,HF_wild_card,2022.2.4,Win32,59.95203837,5b7c2541afb6ca00016af5ee,64d2fd46c836a06233681665,64dc7eb142b74eebd71f2197,,,,,,,,,,,,,,,,,,,,,,,,,,,,,,,,,,,,,,,,,,,,,,,,,,,,,,,,,,,,,,,,
,,,,,,,,2023-08-16_08h46.30.050,HF_wild_card,2022.2.4,Win32,59.95203837,5b7c2541afb6ca00016af5ee,64d2fd46c836a06233681665,64dc7eb142b74eebd71f2197,,,,,,,,,,,,,,,,,,,,,,,,,,,,,,,,30,Door1,resources/DR.BMP,0,0,0,0,1,,,,,,,,,,,,,,,,,,,,,,,,,
,,,,,,,,2023-08-16_08h46.30.050,HF_wild_card,2022.2.4,Win32,59.95203837,5b7c2541afb6ca00016af5ee,64d2fd46c836a06233681665,64dc7eb142b74eebd71f2197,,,,,,,,,,,,,,,,,,,,,,,,,,,,,,,,45,WC_nonExtreme,resources/DG.BMP,1,0,1,0,1,,,,,,,,,,,,,,,,,,,,,,,,,
,,,,,,,,2023-08-16_08h46.30.050,HF_wild_card,2022.2.4,Win32,59.95203837,5b7c2541afb6ca00016af5ee,64d2fd46c836a06233681665,64dc7eb142b74eebd71f2197,,,,,,,,,,,,,,,,,,,,,,,,,,,,,,,,55,WC_extreme,resources/DY.BMP,2,0,2,0,1,,,,,,,,,,,,,,,,,,,,,,,,,
,,,,,,,,2023-08-16_08h46.30.050,HF_wild_card,2022.2.4,Win32,59.95203837,5b7c2541afb6ca00016af5ee,64d2fd46c836a06233681665,64dc7eb142b74eebd71f2197,,,,,,,,,,,,,,,,,,,,,,,,,,,,,,,,60,Door4,resources/DB.BMP,3,0,3,0,1,,,,,,,,,,,,,,,,,,,,,,,,,
,,,,,,,,2023-08-16_08h46.30.050,HF_wild_card,2022.2.4,Win32,59.95203837,5b7c2541afb6ca00016af5ee,64d2fd46c836a06233681665,64dc7eb142b74eebd71f2197,,,,,,,,,,,,,,,,,,,,,,,,,,,,,,,,70,Door3,resources/DBN.BMP,4,0,4,0,1,,,,,,,,,,,,,,,,,,,,,,,,,
,,,,,,,,2023-08-16_08h46.30.050,HF_wild_card,2022.2.4,Win32,59.95203837,5b7c2541afb6ca00016af5ee,64d2fd46c836a06233681665,64dc7eb142b74eebd71f2197,,,,,,,,,,,,,,,,,,,,,,,,,,,,,,,,20,Door2,resources/DP.BMP,5,0,5,0,1,,,,,,,,,,,,,,,,,,,,,,,,,
,,,,,,,,2023-08-16_08h46.30.050,HF_wild_card,2022.2.4,Win32,59.95203837,5b7c2541afb6ca00016af5ee,64d2fd46c836a06233681665,64dc7eb142b74eebd71f2197,,,,,,,,,,,,,,,,,,,,,,,,,,,,,,,,,,,,,,,,,,,,,,,,,,,,,,,,,,,,,,,,
,,,,,,,,2023-08-16_08h46.30.050,HF_wild_card,2022.2.4,Win32,59.95203837,5b7c2541afb6ca00016af5ee,64d2fd46c836a06233681665,64dc7eb142b74eebd71f2197,,,,,,,,,,,,,,,,,,,,,,,,,,,,,,,,,,,,,,,,0,0,0,0,1,,,,,,,,,,,,,,,,,,,,
