Condition,Low fixed image (Door1),Low risky image (Door2),High fixed image (Door3),High risky image (Door4),NonExtreme Wild Card 1,NonExtreme Wild Card 2,,date,expName,psychopyVersion,OS,frameRate,PROLIFIC_PID,STUDY_ID,SESSION_ID,mouse_2.x,mouse_2.y,mouse_2.leftButton,mouse_2.midButton,mouse_2.rightButton,mouse_2.clicked_name,Trial Type,Left Option Image,Right Option Image,Chosen Door,mouse.x,mouse.y,mouse.leftButton,mouse.midButton,mouse.rightButton,mouse.time,mouse.clicked_name,Feedback,Cumulative Reward,Block,trial.thisRepN,trial.thisTrialN,trial.thisN,trial.thisIndex,trial.ran,blocks.thisRepN,blocks.thisTrialN,blocks.thisN,blocks.thisIndex,blocks.ran,Money conversion,First Outcome Reported,Shown Door (First Outcome),Displayed Image (First Outcome),outcomes.thisRepN,outcomes.thisTrialN,outcomes.thisN,outcomes.thisIndex,outcomes.ran,judgments.thisRepN,judgments.thisTrialN,judgments.thisN,judgments.thisIndex,judgments.ran,freqMouse.x,freqMouse.y,freqMouse.leftButton,freqMouse.midButton,freqMouse.rightButton,freqMouse.clicked_name,FQJ for first outcome,FQJ for second outcome,Shown Door,Displayed Image,trials.thisRepN,trials.thisTrialN,trials.thisN,trials.thisIndex,trials.ran,judgBlock.thisRepN,judgBlock.thisTrialN,judgBlock.thisN,judgBlock.thisIndex,judgBlock.ran
2,resources/DY.BMP,resources/DBN.BMP,resources/DG.BMP,resources/DB.BMP,resources/DP.BMP,resources/DR.BMP,,2023-08-16_08h44.28.370,HF_wild_card,2022.2.4,Win32,59.93048064,5ec3017eea63c51454d3c3dd,64d2fd46c836a06233681665,64dc7e385038957636d3ce37,,,,,,,,,,,,,,,,,,,,,,,,,,,,,,,,,,,,,,,,,,,,,,,,,,,,,,,,,,,,,,,,
,,,,,,,,2023-08-16_08h44.28.370,HF_wild_card,2022.2.4,Win32,59.93048064,5ec3017eea63c51454d3c3dd,64d2fd46c836a06233681665,64dc7e385038957636d3ce37,0.011422638,-0.41588785,1,0,0,agree,,,,,,,,,,,,,,,,,,,,,,,,,,,,,,,,,,,,,,,,,,,,,,,,,,,,,,,,,,
,,,,,,,,2023-08-16_08h44.28.370,HF_wild_card,2022.2.4,Win32,59.93048064,5ec3017eea63c51454d3c3dd,64d2fd46c836a06233681665,64dc7e385038957636d3ce37,,,,,,,,,,,,,,,,,,,,,,,,,,,,,,,,,,,,,,,,,,,,,,,,,,,,,,,,,,,,,,,,
,,,,,,,,2023-08-16_08h44.28.370,HF_wild_card,2022.2.4,Win32,59.93048064,5ec3017eea63c51454d3c3dd,64d2fd46c836a06233681665,64dc7e385038957636d3ce37,,,,,,,sngl,resources/DB.BMP,resources/Empty.png,Door4,-0.388369678,-0.055555556,1,0,0,2.2636,optionLeft,80,80,1,0,0,0,0,1,,,,,,,,,,,,,,,,,,,,,,,,,,,,,,,,,,,,,,,
,,,,,,,,2023-08-16_08h44.28.370,HF_wild_card,2022.2.4,Win32,59.93048064,5ec3017eea63c51454d3c3dd,64d2fd46c836a06233681665,64dc7e385038957636d3ce37,,,,,,,decisionTrl,resources/DB.BMP,resources/DG.BMP,Door3,0.348909657,-0.001557632,1,0,0,1.5259,optionRight,70,150,1,1,0,1,0,1,,,,,,,,,,,,,,,,,,,,,,,,,,,,,,,,,,,,,,,
,,,,,,,,2023-08-16_08h44.28.370,HF_wild_card,2022.2.4,Win32,59.93048064,5ec3017eea63c51454d3c3dd,64d2fd46c836a06233681665,64dc7e385038957636d3ce37,,,,,,,sngl,resources/DR.BMP,resources/Empty.png,WildCard_NonEx,-0.367601246,-0.01298027,1,0,0,0.729,optionLeft,45,195,1,2,0,2,0,1,,,,,,,,,,,,,,,,,,,,,,,,,,,,,,,,,,,,,,,
,,,,,,,,2023-08-16_08h44.28.370,HF_wild_card,2022.2.4,Win32,59.93048064,5ec3017eea63c51454d3c3dd,64d2fd46c836a06233681665,64dc7e385038957636d3ce37,,,,,,,sngl,resources/Empty.png,resources/DY.BMP,Door1,0.420560748,-0.028556594,1,0,0,0.927,optionRight,30,225,1,3,0,3,0,1,,,,,,,,,,,,,,,,,,,,,,,,,,,,,,,,,,,,,,,
,,,,,,,,2023-08-16_08h44.28.370,HF_wild_card,2022.2.4,Win32,59.93048064,5ec3017eea63c51454d3c3dd,64d2fd46c836a06233681665,64dc7e385038957636d3ce37,,,,,,,ctch,resources/DBN.BMP,resources/DG.BMP,Door2,-0.321910696,-0.0192108,1,0,0,0.9956,optionLeft,20,245,1,4,0,4,0,1,,,,,,,,,,,,,,,,,,,,,,,,,,,,,,,,,,,,,,,
,,,,,,,,2023-08-16_08h44.28.370,HF_wild_card,2022.2.4,Win32,59.93048064,5ec3017eea63c51454d3c3dd,64d2fd46c836a06233681665,64dc7e385038957636d3ce37,,,,,,,sngl,resources/Empty.png,resources/DR.BMP,WildCard_NonEx,0.310488058,-0.005711319,1,0,0,0.5136,optionRight,55,300,1,5,0,5,0,1,,,,,,,,,,,,,,,,,,,,,,,,,,,,,,,,,,,,,,,
,,,,,,,,2023-08-16_08h44.28.370,HF_wild_card,2022.2.4,Win32,59.93048064,5ec3017eea63c51454d3c3dd,64d2fd46c836a06233681665,64dc7e385038957636d3ce37,,,,,,,decisionTrl,resources/DR.BMP,resources/DBN.BMP,WildCard_NonEx,-0.398753894,-0.001557632,1,0,0,0.9456,optionLeft,45,345,1,6,0,6,0,1,,,,,,,,,,,,,,,,,,,,,,,,,,,,,,,,,,,,,,,
,,,,,,,,2023-08-16_08h44.28.370,HF_wild_card,2022.2.4,Win32,59.93048064,5ec3017eea63c51454d3c3dd,64d2fd46c836a06233681665,64dc7e385038957636d3ce37,,,,,,,ctch,resources/DG.BMP,resources/DBN.BMP,Door3,-0.422637591,0.003634476,1,0,0,0.7118,optionLeft,70,415,1,7,0,7,0,1,,,,,,,,,,,,,,,,,,,,,,,,,,,,,,,,,,,,,,,
,,,,,,,,2023-08-16_08h44.28.370,HF_wild_card,2022.2.4,Win32,59.93048064,5ec3017eea63c51454d3c3dd,64d2fd46c836a06233681665,64dc7e385038957636d3ce37,,,,,,,sngl,resources/Empty.png,resources/DBN.BMP,Door2,0.342679128,0.017133956,1,0,0,0.8775,optionRight,20,435,1,8,0,8,0,1,,,,,,,,,,,,,,,,,,,,,,,,,,,,,,,,,,,,,,,
,,,,,,,,2023-08-16_08h44.28.370,HF_wild_card,2022.2.4,Win32,59.93048064,5ec3017eea63c51454d3c3dd,64d2fd46c836a06233681665,64dc7e385038957636d3ce37,,,,,,,sngl,resources/Empty.png,resources/DR.BMP,WildCard_NonEx,0.458982347,0.003634476,1,0,0,0.7279,optionRight,45,480,1,9,0,9,0,1,,,,,,,,,,,,,,,,,,,,,,,,,,,,,,,,,,,,,,,
,,,,,,,,2023-08-16_08h44.28.370,HF_wild_card,2022.2.4,Win32,59.93048064,5ec3017eea63c51454d3c3dd,64d2fd46c836a06233681665,64dc7e385038957636d3ce37,,,,,,,decisionTrl,resources/DR.BMP,resources/DY.BMP,Door1,0.380062305,0.003634476,1,0,0,1.7425,optionRight,30,510,1,10,0,10,0,1,,,,,,,,,,,,,,,,,,,,,,,,,,,,,,,,,,,,,,,
,,,,,,,,2023-08-16_08h44.28.370,HF_wild_card,2022.2.4,Win32,59.93048064,5ec3017eea63c51454d3c3dd,64d2fd46c836a06233681665,64dc7e385038957636d3ce37,,,,,,,decisionTrl,resources/DG.BMP,resources/DB.BMP,Door4,0.365524403,0.003634476,1,0,0,0.7813,optionRight,80,590,1,11,0,11,0,1,,,,,,,,,,,,,,,,,,,,,,,,,,,,,,,,,,,,,,,
,,,,,,,,2023-08-16_08h44.28.370,HF_wild_card,2022.2.4,Win32,59.93048064,5ec3017eea63c51454d3c3dd,64d2fd46c836a06233681665,64dc7e385038957636d3ce37,,,,,,,decisionTrl,resources/DBN.BMP,resources/DY.BMP,Door2,-0.424714434,-0.003634476,1,0,0,0.5634,optionLeft,20,610,1,12,0,12,0,1,,,,,,,,,,,,,,,,,,,,,,,,,,,,,,,,,,,,,,,
,,,,,,,,2023-08-16_08h44.28.370,HF_wild_card,2022.2.4,Win32,59.93048064,5ec3017eea63c51454d3c3dd,64d2fd46c836a06233681665,64dc7e385038957636d3ce37,,,,,,,decisionTrl,resources/DB.BMP,resources/DG.BMP,Door3,0.271028037,0.01298027,1,0,0,0.5132,optionRight,70,680,1,13,0,13,0,1,,,,,,,,,,,,,,,,,,,,,,,,,,,,,,,,,,,,,,,
,,,,,,,,2023-08-16_08h44.28.370,HF_wild_card,2022.2.4,Win32,59.93048064,5ec3017eea63c51454d3c3dd,64d2fd46c836a06233681665,64dc7e385038957636d3ce37,,,,,,,decisionTrl,resources/DY.BMP,resources/DBN.BMP,Door1,-0.372793354,0.053478712,1,0,0,0.4646,optionLeft,30,710,1,14,0,14,0,1,,,,,,,,,,,,,,,,,,,,,,,,,,,,,,,,,,,,,,,
,,,,,,,,2023-08-16_08h44.28.370,HF_wild_card,2022.2.4,Win32,59.93048064,5ec3017eea63c51454d3c3dd,64d2fd46c836a06233681665,64dc7e385038957636d3ce37,,,,,,,decisionTrl,resources/DBN.BMP,resources/DR.BMP,WildCard_NonEx,0.334371755,0.010903427,1,0,0,0.5102,optionRight,45,755,1,15,0,15,0,1,,,,,,,,,,,,,,,,,,,,,,,,,,,,,,,,,,,,,,,
,,,,,,,,2023-08-16_08h44.28.370,HF_wild_card,2022.2.4,Win32,59.93048064,5ec3017eea63c51454d3c3dd,64d2fd46c836a06233681665,64dc7e385038957636d3ce37,,,,,,,decisionTrl,resources/DB.BMP,resources/DR.BMP,WildCard_NonEx,0.336448598,0.011941848,1,0,0,0.7373,optionRight,55,810,1,16,0,16,0,1,,,,,,,,,,,,,,,,,,,,,,,,,,,,,,,,,,,,,,,
,,,,,,,,2023-08-16_08h44.28.370,HF_wild_card,2022.2.4,Win32,59.93048064,5ec3017eea63c51454d3c3dd,64d2fd46c836a06233681665,64dc7e385038957636d3ce37,,,,,,,sngl,resources/Empty.png,resources/DG.BMP,Door3,0.395638629,0.0192108,1,0,0,0.6573,optionRight,70,880,1,17,0,17,0,1,,,,,,,,,,,,,,,,,,,,,,,,,,,,,,,,,,,,,,,
,,,,,,,,2023-08-16_08h44.28.370,HF_wild_card,2022.2.4,Win32,59.93048064,5ec3017eea63c51454d3c3dd,64d2fd46c836a06233681665,64dc7e385038957636d3ce37,,,,,,,sngl,resources/Empty.png,resources/DB.BMP,Door4,0.423676012,0.089823468,1,0,0,0.7124,optionRight,60,940,1,18,0,18,0,1,,,,,,,,,,,,,,,,,,,,,,,,,,,,,,,,,,,,,,,
,,,,,,,,2023-08-16_08h44.28.370,HF_wild_card,2022.2.4,Win32,59.93048064,5ec3017eea63c51454d3c3dd,64d2fd46c836a06233681665,64dc7e385038957636d3ce37,,,,,,,decisionTrl,resources/DG.BMP,resources/DB.BMP,Door3,-0.35721703,0.036863967,1,0,0,0.5361,optionLeft,70,1010,1,19,0,19,0,1,,,,,,,,,,,,,,,,,,,,,,,,,,,,,,,,,,,,,,,
,,,,,,,,2023-08-16_08h44.28.370,HF_wild_card,2022.2.4,Win32,59.93048064,5ec3017eea63c51454d3c3dd,64d2fd46c836a06233681665,64dc7e385038957636d3ce37,,,,,,,ctch,resources/DY.BMP,resources/DB.BMP,Door4,0.295950156,0.025441329,1,0,0,0.8238,optionRight,80,1090,1,20,0,20,0,1,,,,,,,,,,,,,,,,,,,,,,,,,,,,,,,,,,,,,,,
,,,,,,,,2023-08-16_08h44.28.370,HF_wild_card,2022.2.4,Win32,59.93048064,5ec3017eea63c51454d3c3dd,64d2fd46c836a06233681665,64dc7e385038957636d3ce37,,,,,,,decisionTrl,resources/DBN.BMP,resources/DY.BMP,Door1,0.499480789,0.005711319,1,0,0,0.7062,optionRight,30,1120,1,21,0,21,0,1,,,,,,,,,,,,,,,,,,,,,,,,,,,,,,,,,,,,,,,
,,,,,,,,2023-08-16_08h44.28.370,HF_wild_card,2022.2.4,Win32,59.93048064,5ec3017eea63c51454d3c3dd,64d2fd46c836a06233681665,64dc7e385038957636d3ce37,,,,,,,decisionTrl,resources/DR.BMP,resources/DB.BMP,Door4,0.390446521,-0.003634476,1,0,0,0.5953,optionRight,60,1180,1,22,0,22,0,1,,,,,,,,,,,,,,,,,,,,,,,,,,,,,,,,,,,,,,,
,,,,,,,,2023-08-16_08h44.28.370,HF_wild_card,2022.2.4,Win32,59.93048064,5ec3017eea63c51454d3c3dd,64d2fd46c836a06233681665,64dc7e385038957636d3ce37,,,,,,,decisionTrl,resources/DG.BMP,resources/DB.BMP,Door3,-0.315680166,0.033748702,1,0,0,0.4452,optionLeft,70,1250,1,23,0,23,0,1,,,,,,,,,,,,,,,,,,,,,,,,,,,,,,,,,,,,,,,
,,,,,,,,2023-08-16_08h44.28.370,HF_wild_card,2022.2.4,Win32,59.93048064,5ec3017eea63c51454d3c3dd,64d2fd46c836a06233681665,64dc7e385038957636d3ce37,,,,,,,sngl,resources/DR.BMP,resources/Empty.png,WildCard_NonEx,-0.274143302,-0.004672897,1,0,0,0.4878,optionLeft,55,1305,1,24,0,24,0,1,,,,,,,,,,,,,,,,,,,,,,,,,,,,,,,,,,,,,,,
,,,,,,,,2023-08-16_08h44.28.370,HF_wild_card,2022.2.4,Win32,59.93048064,5ec3017eea63c51454d3c3dd,64d2fd46c836a06233681665,64dc7e385038957636d3ce37,,,,,,,decisionTrl,resources/DR.BMP,resources/DG.BMP,Door3,0.234683281,0.001557632,1,0,0,0.5926,optionRight,70,1375,1,25,0,25,0,1,,,,,,,,,,,,,,,,,,,,,,,,,,,,,,,,,,,,,,,
,,,,,,,,2023-08-16_08h44.28.370,HF_wild_card,2022.2.4,Win32,59.93048064,5ec3017eea63c51454d3c3dd,64d2fd46c836a06233681665,64dc7e385038957636d3ce37,,,,,,,decisionTrl,resources/DY.BMP,resources/DR.BMP,Door1,-0.440290758,0.020249221,1,0,0,0.7459,optionLeft,30,1405,1,26,0,26,0,1,,,,,,,,,,,,,,,,,,,,,,,,,,,,,,,,,,,,,,,
,,,,,,,,2023-08-16_08h44.28.370,HF_wild_card,2022.2.4,Win32,59.93048064,5ec3017eea63c51454d3c3dd,64d2fd46c836a06233681665,64dc7e385038957636d3ce37,,,,,,,decisionTrl,resources/DY.BMP,resources/DBN.BMP,Door2,0.183800623,0.027518172,1,0,0,0.4375,optionRight,20,1425,1,27,0,27,0,1,,,,,,,,,,,,,,,,,,,,,,,,,,,,,,,,,,,,,,,
,,,,,,,,2023-08-16_08h44.28.370,HF_wild_card,2022.2.4,Win32,59.93048064,5ec3017eea63c51454d3c3dd,64d2fd46c836a06233681665,64dc7e385038957636d3ce37,,,,,,,decisionTrl,resources/DB.BMP,resources/DG.BMP,Door4,-0.288681205,0.049325026,1,0,0,0.4359,optionLeft,80,1505,1,28,0,28,0,1,,,,,,,,,,,,,,,,,,,,,,,,,,,,,,,,,,,,,,,
,,,,,,,,2023-08-16_08h44.28.370,HF_wild_card,2022.2.4,Win32,59.93048064,5ec3017eea63c51454d3c3dd,64d2fd46c836a06233681665,64dc7e385038957636d3ce37,,,,,,,decisionTrl,resources/DBN.BMP,resources/DY.BMP,Door2,-0.372793354,0.018172378,1,0,0,0.6251,optionLeft,20,1525,1,29,0,29,0,1,,,,,,,,,,,,,,,,,,,,,,,,,,,,,,,,,,,,,,,
,,,,,,,,2023-08-16_08h44.28.370,HF_wild_card,2022.2.4,Win32,59.93048064,5ec3017eea63c51454d3c3dd,64d2fd46c836a06233681665,64dc7e385038957636d3ce37,,,,,,,decisionTrl,resources/DG.BMP,resources/DR.BMP,WildCard_NonEx,0.268951194,0.004672897,1,0,0,0.4401,optionRight,55,1580,1,30,0,30,0,1,,,,,,,,,,,,,,,,,,,,,,,,,,,,,,,,,,,,,,,
,,,,,,,,2023-08-16_08h44.28.370,HF_wild_card,2022.2.4,Win32,59.93048064,5ec3017eea63c51454d3c3dd,64d2fd46c836a06233681665,64dc7e385038957636d3ce37,,,,,,,ctch,resources/DBN.BMP,resources/DG.BMP,Door3,0.406022845,0.002596054,1,0,0,0.6821,optionRight,70,1650,1,31,0,31,0,1,,,,,,,,,,,,,,,,,,,,,,,,,,,,,,,,,,,,,,,
,,,,,,,,2023-08-16_08h44.28.370,HF_wild_card,2022.2.4,Win32,59.93048064,5ec3017eea63c51454d3c3dd,64d2fd46c836a06233681665,64dc7e385038957636d3ce37,,,,,,,sngl,resources/DY.BMP,resources/Empty.png,Door1,-0.330218069,0.004672897,1,0,0,0.5758,optionLeft,30,1680,1,32,0,32,0,1,,,,,,,,,,,,,,,,,,,,,,,,,,,,,,,,,,,,,,,
,,,,,,,,2023-08-16_08h44.28.370,HF_wild_card,2022.2.4,Win32,59.93048064,5ec3017eea63c51454d3c3dd,64d2fd46c836a06233681665,64dc7e385038957636d3ce37,,,,,,,decisionTrl,resources/DB.BMP,resources/DG.BMP,Door3,0.43509865,0.020249221,1,0,0,0.5258,optionRight,70,1750,1,33,0,33,0,1,,,,,,,,,,,,,,,,,,,,,,,,,,,,,,,,,,,,,,,
,,,,,,,,2023-08-16_08h44.28.370,HF_wild_card,2022.2.4,Win32,59.93048064,5ec3017eea63c51454d3c3dd,64d2fd46c836a06233681665,64dc7e385038957636d3ce37,,,,,,,sngl,resources/DBN.BMP,resources/Empty.png,Door2,0.380062305,0.028556594,1,0,0,0.4865,optionLeft,40,1790,1,34,0,34,0,1,,,,,,,,,,,,,,,,,,,,,,,,,,,,,,,,,,,,,,,
,,,,,,,,2023-08-16_08h44.28.370,HF_wild_card,2022.2.4,Win32,59.93048064,5ec3017eea63c51454d3c3dd,64d2fd46c836a06233681665,64dc7e385038957636d3ce37,,,,,,,decisionTrl,resources/DG.BMP,resources/DB.BMP,Door3,-0.248182762,0.003634476,1,0,0,0.5125,optionLeft,70,1860,1,35,0,35,0,1,,,,,,,,,,,,,,,,,,,,,,,,,,,,,,,,,,,,,,,
,,,,,,,,2023-08-16_08h44.28.370,HF_wild_card,2022.2.4,Win32,59.93048064,5ec3017eea63c51454d3c3dd,64d2fd46c836a06233681665,64dc7e385038957636d3ce37,,,,,,,decisionTrl,resources/DY.BMP,resources/DBN.BMP,Door1,-0.284527518,0.002596054,1,0,0,0.7965,optionLeft,30,1890,1,36,0,36,0,1,,,,,,,,,,,,,,,,,,,,,,,,,,,,,,,,,,,,,,,
,,,,,,,,2023-08-16_08h44.28.370,HF_wild_card,2022.2.4,Win32,59.93048064,5ec3017eea63c51454d3c3dd,64d2fd46c836a06233681665,64dc7e385038957636d3ce37,,,,,,,ctch,resources/DY.BMP,resources/DB.BMP,Door1,-0.326064382,-0.002596054,1,0,0,0.6288,optionLeft,30,1920,1,37,0,37,0,1,,,,,,,,,,,,,,,,,,,,,,,,,,,,,,,,,,,,,,,
,,,,,,,,2023-08-16_08h44.28.370,HF_wild_card,2022.2.4,Win32,59.93048064,5ec3017eea63c51454d3c3dd,64d2fd46c836a06233681665,64dc7e385038957636d3ce37,,,,,,,ctch,resources/DG.BMP,resources/DBN.BMP,Door3,-0.288681205,0.00674974,1,0,0,1.0791,optionLeft,70,1990,1,38,0,38,0,1,,,,,,,,,,,,,,,,,,,,,,,,,,,,,,,,,,,,,,,
,,,,,,,,2023-08-16_08h44.28.370,HF_wild_card,2022.2.4,Win32,59.93048064,5ec3017eea63c51454d3c3dd,64d2fd46c836a06233681665,64dc7e385038957636d3ce37,,,,,,,ctch,resources/DB.BMP,resources/DY.BMP,Door4,-0.386292835,-0.007788162,1,0,0,1.0579,optionLeft,60,2050,1,39,0,39,0,1,,,,,,,,,,,,,,,,,,,,,,,,,,,,,,,,,,,,,,,
,,,,,,,,2023-08-16_08h44.28.370,HF_wild_card,2022.2.4,Win32,59.93048064,5ec3017eea63c51454d3c3dd,64d2fd46c836a06233681665,64dc7e385038957636d3ce37,,,,,,,ctch,resources/DB.BMP,resources/DY.BMP,Door4,-0.247144341,-0.004672897,1,0,0,0.6948,optionLeft,80,2130,1,40,0,40,0,1,,,,,,,,,,,,,,,,,,,,,,,,,,,,,,,,,,,,,,,
,,,,,,,,2023-08-16_08h44.28.370,HF_wild_card,2022.2.4,Win32,59.93048064,5ec3017eea63c51454d3c3dd,64d2fd46c836a06233681665,64dc7e385038957636d3ce37,,,,,,,decisionTrl,resources/DBN.BMP,resources/DY.BMP,Door2,-0.375908619,0.01298027,1,0,0,0.8309,optionLeft,40,2170,1,41,0,41,0,1,,,,,,,,,,,,,,,,,,,,,,,,,,,,,,,,,,,,,,,
,,,,,,,,2023-08-16_08h44.28.370,HF_wild_card,2022.2.4,Win32,59.93048064,5ec3017eea63c51454d3c3dd,64d2fd46c836a06233681665,64dc7e385038957636d3ce37,,,,,,,sngl,resources/DG.BMP,resources/Empty.png,Door3,-0.276220145,-0.00674974,1,0,0,0.5785,optionLeft,70,2240,1,42,0,42,0,1,,,,,,,,,,,,,,,,,,,,,,,,,,,,,,,,,,,,,,,
,,,,,,,,2023-08-16_08h44.28.370,HF_wild_card,2022.2.4,Win32,59.93048064,5ec3017eea63c51454d3c3dd,64d2fd46c836a06233681665,64dc7e385038957636d3ce37,,,,,,,decisionTrl,resources/DY.BMP,resources/DBN.BMP,Door2,0.468328141,-0.010903427,1,0,0,0.8043,optionRight,20,2260,1,43,0,43,0,1,,,,,,,,,,,,,,,,,,,,,,,,,,,,,,,,,,,,,,,
,,,,,,,,2023-08-16_08h44.28.370,HF_wild_card,2022.2.4,Win32,59.93048064,5ec3017eea63c51454d3c3dd,64d2fd46c836a06233681665,64dc7e385038957636d3ce37,,,,,,,,,,,,,,,,,,,,,,,,,,0,0,0,0,1,,,,,,,,,,,,,,,,,,,,,,,,,,,,,,,,,,
,,,,,,,,2023-08-16_08h44.28.370,HF_wild_card,2022.2.4,Win32,59.93048064,5ec3017eea63c51454d3c3dd,64d2fd46c836a06233681665,64dc7e385038957636d3ce37,,,,,,,sngl,resources/DY.BMP,resources/Empty.png,Door1,-0.36344756,-0.005711319,1,0,0,0.7956,optionLeft,30,2290,2,0,0,0,0,1,,,,,,,,,,,,,,,,,,,,,,,,,,,,,,,,,,,,,,,
,,,,,,,,2023-08-16_08h44.28.370,HF_wild_card,2022.2.4,Win32,59.93048064,5ec3017eea63c51454d3c3dd,64d2fd46c836a06233681665,64dc7e385038957636d3ce37,,,,,,,decisionTrl,resources/DBN.BMP,resources/DY.BMP,Door2,-0.338525441,0.000519211,1,0,0,0.6794,optionLeft,20,2310,2,1,0,1,0,1,,,,,,,,,,,,,,,,,,,,,,,,,,,,,,,,,,,,,,,
,,,,,,,,2023-08-16_08h44.28.370,HF_wild_card,2022.2.4,Win32,59.93048064,5ec3017eea63c51454d3c3dd,64d2fd46c836a06233681665,64dc7e385038957636d3ce37,,,,,,,decisionTrl,resources/DB.BMP,resources/DG.BMP,Door4,-0.360332295,-0.001557632,1,0,0,0.7938,optionLeft,60,2370,2,2,0,2,0,1,,,,,,,,,,,,,,,,,,,,,,,,,,,,,,,,,,,,,,,
,,,,,,,,2023-08-16_08h44.28.370,HF_wild_card,2022.2.4,Win32,59.93048064,5ec3017eea63c51454d3c3dd,64d2fd46c836a06233681665,64dc7e385038957636d3ce37,,,,,,,ctch,resources/DB.BMP,resources/DY.BMP,Door4,-0.263759086,-0.014018692,1,0,0,1.1475,optionLeft,80,2450,2,3,0,3,0,1,,,,,,,,,,,,,,,,,,,,,,,,,,,,,,,,,,,,,,,
,,,,,,,,2023-08-16_08h44.28.370,HF_wild_card,2022.2.4,Win32,59.93048064,5ec3017eea63c51454d3c3dd,64d2fd46c836a06233681665,64dc7e385038957636d3ce37,,,,,,,decisionTrl,resources/DG.BMP,resources/DB.BMP,Door4,0.292834891,-0.024402908,1,0,0,0.4599,optionRight,60,2510,2,4,0,4,0,1,,,,,,,,,,,,,,,,,,,,,,,,,,,,,,,,,,,,,,,
,,,,,,,,2023-08-16_08h44.28.370,HF_wild_card,2022.2.4,Win32,59.93048064,5ec3017eea63c51454d3c3dd,64d2fd46c836a06233681665,64dc7e385038957636d3ce37,,,,,,,decisionTrl,resources/DG.BMP,resources/DB.BMP,Door4,0.322949117,-0.005711319,1,0,0,0.4702,optionRight,80,2590,2,5,0,5,0,1,,,,,,,,,,,,,,,,,,,,,,,,,,,,,,,,,,,,,,,
,,,,,,,,2023-08-16_08h44.28.370,HF_wild_card,2022.2.4,Win32,59.93048064,5ec3017eea63c51454d3c3dd,64d2fd46c836a06233681665,64dc7e385038957636d3ce37,,,,,,,decisionTrl,resources/DBN.BMP,resources/DY.BMP,Door2,-0.395638629,-0.010903427,1,0,0,0.8754,optionLeft,40,2630,2,6,0,6,0,1,,,,,,,,,,,,,,,,,,,,,,,,,,,,,,,,,,,,,,,
,,,,,,,,2023-08-16_08h44.28.370,HF_wild_card,2022.2.4,Win32,59.93048064,5ec3017eea63c51454d3c3dd,64d2fd46c836a06233681665,64dc7e385038957636d3ce37,,,,,,,decisionTrl,resources/DG.BMP,resources/DB.BMP,Door4,0.346832814,-0.030633437,1,0,0,0.577,optionRight,60,2690,2,7,0,7,0,1,,,,,,,,,,,,,,,,,,,,,,,,,,,,,,,,,,,,,,,
,,,,,,,,2023-08-16_08h44.28.370,HF_wild_card,2022.2.4,Win32,59.93048064,5ec3017eea63c51454d3c3dd,64d2fd46c836a06233681665,64dc7e385038957636d3ce37,,,,,,,sngl,resources/DBN.BMP,resources/Empty.png,Door2,-0.321910696,-0.005711319,1,0,0,0.5134,optionLeft,20,2710,2,8,0,8,0,1,,,,,,,,,,,,,,,,,,,,,,,,,,,,,,,,,,,,,,,
,,,,,,,,2023-08-16_08h44.28.370,HF_wild_card,2022.2.4,Win32,59.93048064,5ec3017eea63c51454d3c3dd,64d2fd46c836a06233681665,64dc7e385038957636d3ce37,,,,,,,decisionTrl,resources/DY.BMP,resources/DBN.BMP,Door1,-0.236760125,0.007788162,1,0,0,0.8757,optionLeft,30,2740,2,9,0,9,0,1,,,,,,,,,,,,,,,,,,,,,,,,,,,,,,,,,,,,,,,
,,,,,,,,2023-08-16_08h44.28.370,HF_wild_card,2022.2.4,Win32,59.93048064,5ec3017eea63c51454d3c3dd,64d2fd46c836a06233681665,64dc7e385038957636d3ce37,,,,,,,sngl,resources/Empty.png,resources/DG.BMP,Door3,0.260643821,-0.014018692,1,0,0,0.5116,optionRight,70,2810,2,10,0,10,0,1,,,,,,,,,,,,,,,,,,,,,,,,,,,,,,,,,,,,,,,
,,,,,,,,2023-08-16_08h44.28.370,HF_wild_card,2022.2.4,Win32,59.93048064,5ec3017eea63c51454d3c3dd,64d2fd46c836a06233681665,64dc7e385038957636d3ce37,,,,,,,decisionTrl,resources/DG.BMP,resources/DR.BMP,Door3,-0.263759086,-0.007788162,1,0,0,0.5298,optionLeft,70,2880,2,11,0,11,0,1,,,,,,,,,,,,,,,,,,,,,,,,,,,,,,,,,,,,,,,
,,,,,,,,2023-08-16_08h44.28.370,HF_wild_card,2022.2.4,Win32,59.93048064,5ec3017eea63c51454d3c3dd,64d2fd46c836a06233681665,64dc7e385038957636d3ce37,,,,,,,sngl,resources/Empty.png,resources/DB.BMP,Door4,0.319833853,0.003634476,1,0,0,0.5125,optionRight,80,2960,2,12,0,12,0,1,,,,,,,,,,,,,,,,,,,,,,,,,,,,,,,,,,,,,,,
,,,,,,,,2023-08-16_08h44.28.370,HF_wild_card,2022.2.4,Win32,59.93048064,5ec3017eea63c51454d3c3dd,64d2fd46c836a06233681665,64dc7e385038957636d3ce37,,,,,,,sngl,resources/Empty.png,resources/DY.BMP,Door1,0.317757009,0.004672897,1,0,0,0.5019,optionRight,30,2990,2,13,0,13,0,1,,,,,,,,,,,,,,,,,,,,,,,,,,,,,,,,,,,,,,,
,,,,,,,,2023-08-16_08h44.28.370,HF_wild_card,2022.2.4,Win32,59.93048064,5ec3017eea63c51454d3c3dd,64d2fd46c836a06233681665,64dc7e385038957636d3ce37,,,,,,,ctch,resources/DY.BMP,resources/DB.BMP,Door4,0.549325026,-0.005711319,1,0,0,0.6793,optionRight,60,3050,2,14,0,14,0,1,,,,,,,,,,,,,,,,,,,,,,,,,,,,,,,,,,,,,,,
,,,,,,,,2023-08-16_08h44.28.370,HF_wild_card,2022.2.4,Win32,59.93048064,5ec3017eea63c51454d3c3dd,64d2fd46c836a06233681665,64dc7e385038957636d3ce37,,,,,,,decisionTrl,resources/DB.BMP,resources/DR.BMP,Door4,-0.197300104,0.018172378,1,0,0,0.4465,optionLeft,60,3110,2,15,0,15,0,1,,,,,,,,,,,,,,,,,,,,,,,,,,,,,,,,,,,,,,,
,,,,,,,,2023-08-16_08h44.28.370,HF_wild_card,2022.2.4,Win32,59.93048064,5ec3017eea63c51454d3c3dd,64d2fd46c836a06233681665,64dc7e385038957636d3ce37,,,,,,,decisionTrl,resources/DBN.BMP,resources/DY.BMP,Door1,0.246105919,0.022326064,1,0,0,0.6242,optionRight,30,3140,2,16,0,16,0,1,,,,,,,,,,,,,,,,,,,,,,,,,,,,,,,,,,,,,,,
,,,,,,,,2023-08-16_08h44.28.370,HF_wild_card,2022.2.4,Win32,59.93048064,5ec3017eea63c51454d3c3dd,64d2fd46c836a06233681665,64dc7e385038957636d3ce37,,,,,,,ctch,resources/DG.BMP,resources/DBN.BMP,Door2,0.307372793,0.033748702,1,0,0,0.5511,optionRight,20,3160,2,17,0,17,0,1,,,,,,,,,,,,,,,,,,,,,,,,,,,,,,,,,,,,,,,
,,,,,,,,2023-08-16_08h44.28.370,HF_wild_card,2022.2.4,Win32,59.93048064,5ec3017eea63c51454d3c3dd,64d2fd46c836a06233681665,64dc7e385038957636d3ce37,,,,,,,decisionTrl,resources/DY.BMP,resources/DR.BMP,Door1,-0.343717549,-0.005711319,1,0,0,0.8765,optionLeft,30,3190,2,18,0,18,0,1,,,,,,,,,,,,,,,,,,,,,,,,,,,,,,,,,,,,,,,
,,,,,,,,2023-08-16_08h44.28.370,HF_wild_card,2022.2.4,Win32,59.93048064,5ec3017eea63c51454d3c3dd,64d2fd46c836a06233681665,64dc7e385038957636d3ce37,,,,,,,decisionTrl,resources/DB.BMP,resources/DG.BMP,Door4,-0.230529595,-0.031671859,1,0,0,0.6607,optionLeft,80,3270,2,19,0,19,0,1,,,,,,,,,,,,,,,,,,,,,,,,,,,,,,,,,,,,,,,
,,,,,,,,2023-08-16_08h44.28.370,HF_wild_card,2022.2.4,Win32,59.93048064,5ec3017eea63c51454d3c3dd,64d2fd46c836a06233681665,64dc7e385038957636d3ce37,,,,,,,sngl,resources/Empty.png,resources/DBN.BMP,Door2,0.286604361,0.035825545,1,0,0,0.5827,optionRight,40,3310,2,20,0,20,0,1,,,,,,,,,,,,,,,,,,,,,,,,,,,,,,,,,,,,,,,
,,,,,,,,2023-08-16_08h44.28.370,HF_wild_card,2022.2.4,Win32,59.93048064,5ec3017eea63c51454d3c3dd,64d2fd46c836a06233681665,64dc7e385038957636d3ce37,,,,,,,decisionTrl,resources/DY.BMP,resources/DBN.BMP,Door1,-0.250259605,0.027518172,1,0,0,1.1141,optionLeft,30,3340,2,21,0,21,0,1,,,,,,,,,,,,,,,,,,,,,,,,,,,,,,,,,,,,,,,
,,,,,,,,2023-08-16_08h44.28.370,HF_wild_card,2022.2.4,Win32,59.93048064,5ec3017eea63c51454d3c3dd,64d2fd46c836a06233681665,64dc7e385038957636d3ce37,,,,,,,sngl,resources/DG.BMP,resources/Empty.png,Door3,-0.246105919,0.002596054,1,0,0,0.5674,optionLeft,70,3410,2,22,0,22,0,1,,,,,,,,,,,,,,,,,,,,,,,,,,,,,,,,,,,,,,,
,,,,,,,,2023-08-16_08h44.28.370,HF_wild_card,2022.2.4,Win32,59.93048064,5ec3017eea63c51454d3c3dd,64d2fd46c836a06233681665,64dc7e385038957636d3ce37,,,,,,,decisionTrl,resources/DY.BMP,resources/DBN.BMP,Door1,-0.289719626,0.000519211,1,0,0,1.3672,optionLeft,30,3440,2,23,0,23,0,1,,,,,,,,,,,,,,,,,,,,,,,,,,,,,,,,,,,,,,,
,,,,,,,,2023-08-16_08h44.28.370,HF_wild_card,2022.2.4,Win32,59.93048064,5ec3017eea63c51454d3c3dd,64d2fd46c836a06233681665,64dc7e385038957636d3ce37,,,,,,,sngl,resources/DB.BMP,resources/Empty.png,Door4,-0.421599169,0.0192108,1,0,0,6.7764,optionLeft,60,3500,2,24,0,24,0,1,,,,,,,,,,,,,,,,,,,,,,,,,,,,,,,,,,,,,,,
,,,,,,,,2023-08-16_08h44.28.370,HF_wild_card,2022.2.4,Win32,59.93048064,5ec3017eea63c51454d3c3dd,64d2fd46c836a06233681665,64dc7e385038957636d3ce37,,,,,,,decisionTrl,resources/DBN.BMP,resources/DR.BMP,Door2,-0.344755971,0.020249221,1,0,0,0.8855,optionLeft,40,3540,2,25,0,25,0,1,,,,,,,,,,,,,,,,,,,,,,,,,,,,,,,,,,,,,,,
,,,,,,,,2023-08-16_08h44.28.370,HF_wild_card,2022.2.4,Win32,59.93048064,5ec3017eea63c51454d3c3dd,64d2fd46c836a06233681665,64dc7e385038957636d3ce37,,,,,,,ctch,resources/DG.BMP,resources/DBN.BMP,Door3,-0.275181724,-0.002596054,1,0,0,0.963,optionLeft,70,3610,2,26,0,26,0,1,,,,,,,,,,,,,,,,,,,,,,,,,,,,,,,,,,,,,,,
,,,,,,,,2023-08-16_08h44.28.370,HF_wild_card,2022.2.4,Win32,59.93048064,5ec3017eea63c51454d3c3dd,64d2fd46c836a06233681665,64dc7e385038957636d3ce37,,,,,,,sngl,resources/Empty.png,resources/DR.BMP,WildCard_NonEx,0.295950156,0.021287643,1,0,0,0.5069,optionRight,55,3665,2,27,0,27,0,1,,,,,,,,,,,,,,,,,,,,,,,,,,,,,,,,,,,,,,,
,,,,,,,,2023-08-16_08h44.28.370,HF_wild_card,2022.2.4,Win32,59.93048064,5ec3017eea63c51454d3c3dd,64d2fd46c836a06233681665,64dc7e385038957636d3ce37,,,,,,,sngl,resources/DR.BMP,resources/Empty.png,WildCard_NonEx,-0.241952233,0.020249221,1,0,0,0.5117,optionLeft,45,3710,2,28,0,28,0,1,,,,,,,,,,,,,,,,,,,,,,,,,,,,,,,,,,,,,,,
,,,,,,,,2023-08-16_08h44.28.370,HF_wild_card,2022.2.4,Win32,59.93048064,5ec3017eea63c51454d3c3dd,64d2fd46c836a06233681665,64dc7e385038957636d3ce37,,,,,,,ctch,resources/DBN.BMP,resources/DG.BMP,Door2,-0.346832814,0.025441329,1,0,0,0.6631,optionLeft,20,3730,2,29,0,29,0,1,,,,,,,,,,,,,,,,,,,,,,,,,,,,,,,,,,,,,,,
,,,,,,,,2023-08-16_08h44.28.370,HF_wild_card,2022.2.4,Win32,59.93048064,5ec3017eea63c51454d3c3dd,64d2fd46c836a06233681665,64dc7e385038957636d3ce37,,,,,,,decisionTrl,resources/DR.BMP,resources/DBN.BMP,WildCard_NonEx,-0.347871236,0.016095535,1,0,0,0.7124,optionLeft,45,3775,2,30,0,30,0,1,,,,,,,,,,,,,,,,,,,,,,,,,,,,,,,,,,,,,,,
,,,,,,,,2023-08-16_08h44.28.370,HF_wild_card,2022.2.4,Win32,59.93048064,5ec3017eea63c51454d3c3dd,64d2fd46c836a06233681665,64dc7e385038957636d3ce37,,,,,,,ctch,resources/DY.BMP,resources/DB.BMP,Door1,-0.296988577,0.030633437,1,0,0,0.7127,optionLeft,30,3805,2,31,0,31,0,1,,,,,,,,,,,,,,,,,,,,,,,,,,,,,,,,,,,,,,,
,,,,,,,,2023-08-16_08h44.28.370,HF_wild_card,2022.2.4,Win32,59.93048064,5ec3017eea63c51454d3c3dd,64d2fd46c836a06233681665,64dc7e385038957636d3ce37,,,,,,,ctch,resources/DB.BMP,resources/DY.BMP,Door4,-0.277258567,0.026479751,1,0,0,0.5138,optionLeft,60,3865,2,32,0,32,0,1,,,,,,,,,,,,,,,,,,,,,,,,,,,,,,,,,,,,,,,
,,,,,,,,2023-08-16_08h44.28.370,HF_wild_card,2022.2.4,Win32,59.93048064,5ec3017eea63c51454d3c3dd,64d2fd46c836a06233681665,64dc7e385038957636d3ce37,,,,,,,decisionTrl,resources/DG.BMP,resources/DB.BMP,Door4,0.213914849,-0.01298027,1,0,0,0.8192,optionRight,80,3945,2,33,0,33,0,1,,,,,,,,,,,,,,,,,,,,,,,,,,,,,,,,,,,,,,,
,,,,,,,,2023-08-16_08h44.28.370,HF_wild_card,2022.2.4,Win32,59.93048064,5ec3017eea63c51454d3c3dd,64d2fd46c836a06233681665,64dc7e385038957636d3ce37,,,,,,,decisionTrl,resources/DY.BMP,resources/DBN.BMP,Door1,-0.344755971,0.008826584,1,0,0,1.8634,optionLeft,30,3975,2,34,0,34,0,1,,,,,,,,,,,,,,,,,,,,,,,,,,,,,,,,,,,,,,,
,,,,,,,,2023-08-16_08h44.28.370,HF_wild_card,2022.2.4,Win32,59.93048064,5ec3017eea63c51454d3c3dd,64d2fd46c836a06233681665,64dc7e385038957636d3ce37,,,,,,,decisionTrl,resources/DR.BMP,resources/DG.BMP,Door3,0.333333333,-0.009865005,1,0,0,1.0464,optionRight,70,4045,2,35,0,35,0,1,,,,,,,,,,,,,,,,,,,,,,,,,,,,,,,,,,,,,,,
,,,,,,,,2023-08-16_08h44.28.370,HF_wild_card,2022.2.4,Win32,59.93048064,5ec3017eea63c51454d3c3dd,64d2fd46c836a06233681665,64dc7e385038957636d3ce37,,,,,,,sngl,resources/Empty.png,resources/DR.BMP,WildCard_NonEx,0.298026999,0.028556594,1,0,0,0.527,optionRight,45,4090,2,36,0,36,0,1,,,,,,,,,,,,,,,,,,,,,,,,,,,,,,,,,,,,,,,
,,,,,,,,2023-08-16_08h44.28.370,HF_wild_card,2022.2.4,Win32,59.93048064,5ec3017eea63c51454d3c3dd,64d2fd46c836a06233681665,64dc7e385038957636d3ce37,,,,,,,decisionTrl,resources/DB.BMP,resources/DG.BMP,Door4,-0.314641745,0.011941848,1,0,0,0.6479,optionLeft,80,4170,2,37,0,37,0,1,,,,,,,,,,,,,,,,,,,,,,,,,,,,,,,,,,,,,,,
,,,,,,,,2023-08-16_08h44.28.370,HF_wild_card,2022.2.4,Win32,59.93048064,5ec3017eea63c51454d3c3dd,64d2fd46c836a06233681665,64dc7e385038957636d3ce37,,,,,,,decisionTrl,resources/DR.BMP,resources/DB.BMP,Door4,0.339563863,0.011941848,1,0,0,0.7815,optionRight,60,4230,2,38,0,38,0,1,,,,,,,,,,,,,,,,,,,,,,,,,,,,,,,,,,,,,,,
,,,,,,,,2023-08-16_08h44.28.370,HF_wild_card,2022.2.4,Win32,59.93048064,5ec3017eea63c51454d3c3dd,64d2fd46c836a06233681665,64dc7e385038957636d3ce37,,,,,,,decisionTrl,resources/DR.BMP,resources/DY.BMP,WildCard_NonEx,-0.334371755,0.014018692,1,0,0,0.9121,optionLeft,55,4285,2,39,0,39,0,1,,,,,,,,,,,,,,,,,,,,,,,,,,,,,,,,,,,,,,,
,,,,,,,,2023-08-16_08h44.28.370,HF_wild_card,2022.2.4,Win32,59.93048064,5ec3017eea63c51454d3c3dd,64d2fd46c836a06233681665,64dc7e385038957636d3ce37,,,,,,,sngl,resources/DR.BMP,resources/Empty.png,WildCard_NonEx,-0.223260644,0.007788162,1,0,0,0.5629,optionLeft,55,4340,2,40,0,40,0,1,,,,,,,,,,,,,,,,,,,,,,,,,,,,,,,,,,,,,,,
,,,,,,,,2023-08-16_08h44.28.370,HF_wild_card,2022.2.4,Win32,59.93048064,5ec3017eea63c51454d3c3dd,64d2fd46c836a06233681665,64dc7e385038957636d3ce37,,,,,,,decisionTrl,resources/DB.BMP,resources/DG.BMP,Door4,-0.307372793,0.093977155,1,0,0,0.644,optionLeft,60,4400,2,41,0,41,0,1,,,,,,,,,,,,,,,,,,,,,,,,,,,,,,,,,,,,,,,
,,,,,,,,2023-08-16_08h44.28.370,HF_wild_card,2022.2.4,Win32,59.93048064,5ec3017eea63c51454d3c3dd,64d2fd46c836a06233681665,64dc7e385038957636d3ce37,,,,,,,decisionTrl,resources/DBN.BMP,resources/DY.BMP,Door1,0.335410177,0.039979232,1,0,0,0.8319,optionRight,30,4430,2,42,0,42,0,1,,,,,,,,,,,,,,,,,,,,,,,,,,,,,,,,,,,,,,,
,,,,,,,,2023-08-16_08h44.28.370,HF_wild_card,2022.2.4,Win32,59.93048064,5ec3017eea63c51454d3c3dd,64d2fd46c836a06233681665,64dc7e385038957636d3ce37,,,,,,,ctch,resources/DBN.BMP,resources/DG.BMP,Door3,0.377985462,-0.015057113,1,0,0,0.8645,optionRight,70,4500,2,43,0,43,0,1,,,,,,,,,,,,,,,,,,,,,,,,,,,,,,,,,,,,,,,
,,,,,,,,2023-08-16_08h44.28.370,HF_wild_card,2022.2.4,Win32,59.93048064,5ec3017eea63c51454d3c3dd,64d2fd46c836a06233681665,64dc7e385038957636d3ce37,,,,,,,,,,,,,,,,,,,,,,,,,,1,0,1,0,1,,,,,,,,,,,,,,,,,,,,,,,,,,,,,,,,,,
,,,,,,,,2023-08-16_08h44.28.370,HF_wild_card,2022.2.4,Win32,59.93048064,5ec3017eea63c51454d3c3dd,64d2fd46c836a06233681665,64dc7e385038957636d3ce37,,,,,,,decisionTrl,resources/DB.BMP,resources/DR.BMP,Door4,-0.354101765,-0.007788162,1,0,0,0.6503,optionLeft,80,4580,3,0,0,0,0,1,,,,,,,,,,,,,,,,,,,,,,,,,,,,,,,,,,,,,,,
,,,,,,,,2023-08-16_08h44.28.370,HF_wild_card,2022.2.4,Win32,59.93048064,5ec3017eea63c51454d3c3dd,64d2fd46c836a06233681665,64dc7e385038957636d3ce37,,,,,,,ctch,resources/DY.BMP,resources/DB.BMP,Door4,0.289719626,-0.033748702,1,0,0,0.503,optionRight,60,4640,3,1,0,1,0,1,,,,,,,,,,,,,,,,,,,,,,,,,,,,,,,,,,,,,,,
,,,,,,,,2023-08-16_08h44.28.370,HF_wild_card,2022.2.4,Win32,59.93048064,5ec3017eea63c51454d3c3dd,64d2fd46c836a06233681665,64dc7e385038957636d3ce37,,,,,,,decisionTrl,resources/DB.BMP,resources/DG.BMP,Door4,-0.278296989,0.024402908,1,0,0,0.4521,optionLeft,60,4700,3,2,0,2,0,1,,,,,,,,,,,,,,,,,,,,,,,,,,,,,,,,,,,,,,,
,,,,,,,,2023-08-16_08h44.28.370,HF_wild_card,2022.2.4,Win32,59.93048064,5ec3017eea63c51454d3c3dd,64d2fd46c836a06233681665,64dc7e385038957636d3ce37,,,,,,,ctch,resources/DB.BMP,resources/DY.BMP,Door4,-0.247144341,-0.003634476,1,0,0,0.5635,optionLeft,60,4760,3,3,0,3,0,1,,,,,,,,,,,,,,,,,,,,,,,,,,,,,,,,,,,,,,,
,,,,,,,,2023-08-16_08h44.28.370,HF_wild_card,2022.2.4,Win32,59.93048064,5ec3017eea63c51454d3c3dd,64d2fd46c836a06233681665,64dc7e385038957636d3ce37,,,,,,,sngl,resources/DY.BMP,resources/Empty.png,Door1,-0.261682243,0.023364486,1,0,0,0.494,optionLeft,30,4790,3,4,0,4,0,1,,,,,,,,,,,,,,,,,,,,,,,,,,,,,,,,,,,,,,,
,,,,,,,,2023-08-16_08h44.28.370,HF_wild_card,2022.2.4,Win32,59.93048064,5ec3017eea63c51454d3c3dd,64d2fd46c836a06233681665,64dc7e385038957636d3ce37,,,,,,,decisionTrl,resources/DG.BMP,resources/DB.BMP,Door3,-0.355140187,-0.007788162,1,0,0,0.9082,optionLeft,70,4860,3,5,0,5,0,1,,,,,,,,,,,,,,,,,,,,,,,,,,,,,,,,,,,,,,,
,,,,,,,,2023-08-16_08h44.28.370,HF_wild_card,2022.2.4,Win32,59.93048064,5ec3017eea63c51454d3c3dd,64d2fd46c836a06233681665,64dc7e385038957636d3ce37,,,,,,,sngl,resources/DG.BMP,resources/Empty.png,Door3,-0.282450675,-0.002596054,1,0,0,0.4899,optionLeft,70,4930,3,6,0,6,0,1,,,,,,,,,,,,,,,,,,,,,,,,,,,,,,,,,,,,,,,
,,,,,,,,2023-08-16_08h44.28.370,HF_wild_card,2022.2.4,Win32,59.93048064,5ec3017eea63c51454d3c3dd,64d2fd46c836a06233681665,64dc7e385038957636d3ce37,,,,,,,decisionTrl,resources/DBN.BMP,resources/DY.BMP,Door2,-0.307372793,0.01298027,1,0,0,1.2157,optionLeft,20,4950,3,7,0,7,0,1,,,,,,,,,,,,,,,,,,,,,,,,,,,,,,,,,,,,,,,
,,,,,,,,2023-08-16_08h44.28.370,HF_wild_card,2022.2.4,Win32,59.93048064,5ec3017eea63c51454d3c3dd,64d2fd46c836a06233681665,64dc7e385038957636d3ce37,,,,,,,decisionTrl,resources/DB.BMP,resources/DG.BMP,Door4,-0.264797508,-0.000519211,1,0,0,0.6949,optionLeft,80,5030,3,8,0,8,0,1,,,,,,,,,,,,,,,,,,,,,,,,,,,,,,,,,,,,,,,
,,,,,,,,2023-08-16_08h44.28.370,HF_wild_card,2022.2.4,Win32,59.93048064,5ec3017eea63c51454d3c3dd,64d2fd46c836a06233681665,64dc7e385038957636d3ce37,,,,,,,decisionTrl,resources/DY.BMP,resources/DBN.BMP,Door1,-0.242990654,-0.010903427,1,0,0,1.2114,optionLeft,30,5060,3,9,0,9,0,1,,,,,,,,,,,,,,,,,,,,,,,,,,,,,,,,,,,,,,,
,,,,,,,,2023-08-16_08h44.28.370,HF_wild_card,2022.2.4,Win32,59.93048064,5ec3017eea63c51454d3c3dd,64d2fd46c836a06233681665,64dc7e385038957636d3ce37,,,,,,,decisionTrl,resources/DG.BMP,resources/DB.BMP,Door4,0.438213915,-0.020249221,1,0,0,1.1285,optionRight,60,5120,3,10,0,10,0,1,,,,,,,,,,,,,,,,,,,,,,,,,,,,,,,,,,,,,,,
,,,,,,,,2023-08-16_08h44.28.370,HF_wild_card,2022.2.4,Win32,59.93048064,5ec3017eea63c51454d3c3dd,64d2fd46c836a06233681665,64dc7e385038957636d3ce37,,,,,,,decisionTrl,resources/DR.BMP,resources/DY.BMP,WildCard_NonEx,-0.353063344,-0.002596054,1,0,0,0.8768,optionLeft,45,5165,3,11,0,11,0,1,,,,,,,,,,,,,,,,,,,,,,,,,,,,,,,,,,,,,,,
,,,,,,,,2023-08-16_08h44.28.370,HF_wild_card,2022.2.4,Win32,59.93048064,5ec3017eea63c51454d3c3dd,64d2fd46c836a06233681665,64dc7e385038957636d3ce37,,,,,,,decisionTrl,resources/DBN.BMP,resources/DY.BMP,Door2,-0.336448598,-0.007788162,1,0,0,0.6265,optionLeft,40,5205,3,12,0,12,0,1,,,,,,,,,,,,,,,,,,,,,,,,,,,,,,,,,,,,,,,
,,,,,,,,2023-08-16_08h44.28.370,HF_wild_card,2022.2.4,Win32,59.93048064,5ec3017eea63c51454d3c3dd,64d2fd46c836a06233681665,64dc7e385038957636d3ce37,,,,,,,ctch,resources/DBN.BMP,resources/DG.BMP,Door2,-0.362409138,0.001557632,1,0,0,0.8952,optionLeft,40,5245,3,13,0,13,0,1,,,,,,,,,,,,,,,,,,,,,,,,,,,,,,,,,,,,,,,
,,,,,,,,2023-08-16_08h44.28.370,HF_wild_card,2022.2.4,Win32,59.93048064,5ec3017eea63c51454d3c3dd,64d2fd46c836a06233681665,64dc7e385038957636d3ce37,,,,,,,sngl,resources/Empty.png,resources/DY.BMP,Door1,0.345794393,-0.047248183,1,0,0,0.5461,optionRight,30,5275,3,14,0,14,0,1,,,,,,,,,,,,,,,,,,,,,,,,,,,,,,,,,,,,,,,
,,,,,,,,2023-08-16_08h44.28.370,HF_wild_card,2022.2.4,Win32,59.93048064,5ec3017eea63c51454d3c3dd,64d2fd46c836a06233681665,64dc7e385038957636d3ce37,,,,,,,decisionTrl,resources/DR.BMP,resources/DBN.BMP,WildCard_NonEx,-0.329179647,-0.026479751,1,0,0,0.8275,optionLeft,45,5320,3,15,0,15,0,1,,,,,,,,,,,,,,,,,,,,,,,,,,,,,,,,,,,,,,,
,,,,,,,,2023-08-16_08h44.28.370,HF_wild_card,2022.2.4,Win32,59.93048064,5ec3017eea63c51454d3c3dd,64d2fd46c836a06233681665,64dc7e385038957636d3ce37,,,,,,,decisionTrl,resources/DG.BMP,resources/DB.BMP,Door4,0.319833853,-0.021287643,1,0,0,0.6738,optionRight,60,5380,3,16,0,16,0,1,,,,,,,,,,,,,,,,,,,,,,,,,,,,,,,,,,,,,,,
,,,,,,,,2023-08-16_08h44.28.370,HF_wild_card,2022.2.4,Win32,59.93048064,5ec3017eea63c51454d3c3dd,64d2fd46c836a06233681665,64dc7e385038957636d3ce37,,,,,,,decisionTrl,resources/DB.BMP,resources/DG.BMP,Door3,0.368639668,-0.01298027,1,0,0,0.5149,optionRight,70,5450,3,17,0,17,0,1,,,,,,,,,,,,,,,,,,,,,,,,,,,,,,,,,,,,,,,
,,,,,,,,2023-08-16_08h44.28.370,HF_wild_card,2022.2.4,Win32,59.93048064,5ec3017eea63c51454d3c3dd,64d2fd46c836a06233681665,64dc7e385038957636d3ce37,,,,,,,sngl,resources/Empty.png,resources/DB.BMP,Door4,0.312564901,-0.011941848,1,0,0,0.5375,optionRight,60,5510,3,18,0,18,0,1,,,,,,,,,,,,,,,,,,,,,,,,,,,,,,,,,,,,,,,
,,,,,,,,2023-08-16_08h44.28.370,HF_wild_card,2022.2.4,Win32,59.93048064,5ec3017eea63c51454d3c3dd,64d2fd46c836a06233681665,64dc7e385038957636d3ce37,,,,,,,sngl,resources/DBN.BMP,resources/Empty.png,Door2,-0.315680166,-0.009865005,1,0,0,0.5961,optionLeft,40,5550,3,19,0,19,0,1,,,,,,,,,,,,,,,,,,,,,,,,,,,,,,,,,,,,,,,
,,,,,,,,2023-08-16_08h44.28.370,HF_wild_card,2022.2.4,Win32,59.93048064,5ec3017eea63c51454d3c3dd,64d2fd46c836a06233681665,64dc7e385038957636d3ce37,,,,,,,decisionTrl,resources/DY.BMP,resources/DR.BMP,WildCard_NonEx,0.350986501,-0.030633437,1,0,0,1.4956,optionRight,45,5595,3,20,0,20,0,1,,,,,,,,,,,,,,,,,,,,,,,,,,,,,,,,,,,,,,,
,,,,,,,,2023-08-16_08h44.28.370,HF_wild_card,2022.2.4,Win32,59.93048064,5ec3017eea63c51454d3c3dd,64d2fd46c836a06233681665,64dc7e385038957636d3ce37,,,,,,,decisionTrl,resources/DY.BMP,resources/DBN.BMP,Door1,-0.291796469,-0.004672897,1,0,0,0.7231,optionLeft,30,5625,3,21,0,21,0,1,,,,,,,,,,,,,,,,,,,,,,,,,,,,,,,,,,,,,,,
,,,,,,,,2023-08-16_08h44.28.370,HF_wild_card,2022.2.4,Win32,59.93048064,5ec3017eea63c51454d3c3dd,64d2fd46c836a06233681665,64dc7e385038957636d3ce37,,,,,,,sngl,resources/DB.BMP,resources/Empty.png,Door4,-0.273104881,0.005711319,1,0,0,0.4762,optionLeft,80,5705,3,22,0,22,0,1,,,,,,,,,,,,,,,,,,,,,,,,,,,,,,,,,,,,,,,
,,,,,,,,2023-08-16_08h44.28.370,HF_wild_card,2022.2.4,Win32,59.93048064,5ec3017eea63c51454d3c3dd,64d2fd46c836a06233681665,64dc7e385038957636d3ce37,,,,,,,decisionTrl,resources/DG.BMP,resources/DB.BMP,Door3,-0.290758048,0.010903427,1,0,0,0.7959,optionLeft,70,5775,3,23,0,23,0,1,,,,,,,,,,,,,,,,,,,,,,,,,,,,,,,,,,,,,,,
,,,,,,,,2023-08-16_08h44.28.370,HF_wild_card,2022.2.4,Win32,59.93048064,5ec3017eea63c51454d3c3dd,64d2fd46c836a06233681665,64dc7e385038957636d3ce37,,,,,,,sngl,resources/Empty.png,resources/DG.BMP,Door3,0.321910696,0.024402908,1,0,0,0.4936,optionRight,70,5845,3,24,0,24,0,1,,,,,,,,,,,,,,,,,,,,,,,,,,,,,,,,,,,,,,,
,,,,,,,,2023-08-16_08h44.28.370,HF_wild_card,2022.2.4,Win32,59.93048064,5ec3017eea63c51454d3c3dd,64d2fd46c836a06233681665,64dc7e385038957636d3ce37,,,,,,,decisionTrl,resources/DR.BMP,resources/DB.BMP,Door4,0.264797508,-0.0192108,1,0,0,0.7074,optionRight,60,5905,3,25,0,25,0,1,,,,,,,,,,,,,,,,,,,,,,,,,,,,,,,,,,,,,,,
,,,,,,,,2023-08-16_08h44.28.370,HF_wild_card,2022.2.4,Win32,59.93048064,5ec3017eea63c51454d3c3dd,64d2fd46c836a06233681665,64dc7e385038957636d3ce37,,,,,,,decisionTrl,resources/DG.BMP,resources/DR.BMP,Door3,-0.283489097,-0.00674974,1,0,0,0.5295,optionLeft,70,5975,3,26,0,26,0,1,,,,,,,,,,,,,,,,,,,,,,,,,,,,,,,,,,,,,,,
,,,,,,,,2023-08-16_08h44.28.370,HF_wild_card,2022.2.4,Win32,59.93048064,5ec3017eea63c51454d3c3dd,64d2fd46c836a06233681665,64dc7e385038957636d3ce37,,,,,,,ctch,resources/DG.BMP,resources/DBN.BMP,Door3,-0.20145379,-0.000519211,1,0,0,0.5456,optionLeft,70,6045,3,27,0,27,0,1,,,,,,,,,,,,,,,,,,,,,,,,,,,,,,,,,,,,,,,
,,,,,,,,2023-08-16_08h44.28.370,HF_wild_card,2022.2.4,Win32,59.93048064,5ec3017eea63c51454d3c3dd,64d2fd46c836a06233681665,64dc7e385038957636d3ce37,,,,,,,sngl,resources/Empty.png,resources/DBN.BMP,Door2,0.418483904,-0.017133956,1,0,0,0.5606,optionRight,20,6065,3,28,0,28,0,1,,,,,,,,,,,,,,,,,,,,,,,,,,,,,,,,,,,,,,,
,,,,,,,,2023-08-16_08h44.28.370,HF_wild_card,2022.2.4,Win32,59.93048064,5ec3017eea63c51454d3c3dd,64d2fd46c836a06233681665,64dc7e385038957636d3ce37,,,,,,,sngl,resources/Empty.png,resources/DR.BMP,WildCard_NonEx,0.330218069,0.008826584,1,0,0,0.5057,optionRight,45,6110,3,29,0,29,0,1,,,,,,,,,,,,,,,,,,,,,,,,,,,,,,,,,,,,,,,
,,,,,,,,2023-08-16_08h44.28.370,HF_wild_card,2022.2.4,Win32,59.93048064,5ec3017eea63c51454d3c3dd,64d2fd46c836a06233681665,64dc7e385038957636d3ce37,,,,,,,decisionTrl,resources/DBN.BMP,resources/DY.BMP,Door1,0.308411215,0.039979232,1,0,0,0.8915,optionRight,30,6140,3,30,0,30,0,1,,,,,,,,,,,,,,,,,,,,,,,,,,,,,,,,,,,,,,,
,,,,,,,,2023-08-16_08h44.28.370,HF_wild_card,2022.2.4,Win32,59.93048064,5ec3017eea63c51454d3c3dd,64d2fd46c836a06233681665,64dc7e385038957636d3ce37,,,,,,,decisionTrl,resources/DBN.BMP,resources/DR.BMP,Door2,-0.246105919,0.001557632,1,0,0,0.542,optionLeft,40,6180,3,31,0,31,0,1,,,,,,,,,,,,,,,,,,,,,,,,,,,,,,,,,,,,,,,
,,,,,,,,2023-08-16_08h44.28.370,HF_wild_card,2022.2.4,Win32,59.93048064,5ec3017eea63c51454d3c3dd,64d2fd46c836a06233681665,64dc7e385038957636d3ce37,,,,,,,ctch,resources/DBN.BMP,resources/DG.BMP,Door3,0.35721703,0.001557632,1,0,0,0.6725,optionRight,70,6250,3,32,0,32,0,1,,,,,,,,,,,,,,,,,,,,,,,,,,,,,,,,,,,,,,,
,,,,,,,,2023-08-16_08h44.28.370,HF_wild_card,2022.2.4,Win32,59.93048064,5ec3017eea63c51454d3c3dd,64d2fd46c836a06233681665,64dc7e385038957636d3ce37,,,,,,,decisionTrl,resources/DY.BMP,resources/DBN.BMP,Door1,-0.267912773,0.001557632,1,0,0,0.7127,optionLeft,30,6280,3,33,0,33,0,1,,,,,,,,,,,,,,,,,,,,,,,,,,,,,,,,,,,,,,,
,,,,,,,,2023-08-16_08h44.28.370,HF_wild_card,2022.2.4,Win32,59.93048064,5ec3017eea63c51454d3c3dd,64d2fd46c836a06233681665,64dc7e385038957636d3ce37,,,,,,,ctch,resources/DY.BMP,resources/DB.BMP,Door4,0.335410177,0.016095535,1,0,0,0.6793,optionRight,60,6340,3,34,0,34,0,1,,,,,,,,,,,,,,,,,,,,,,,,,,,,,,,,,,,,,,,
,,,,,,,,2023-08-16_08h44.28.370,HF_wild_card,2022.2.4,Win32,59.93048064,5ec3017eea63c51454d3c3dd,64d2fd46c836a06233681665,64dc7e385038957636d3ce37,,,,,,,ctch,resources/DG.BMP,resources/DBN.BMP,Door3,-0.278296989,0.00674974,1,0,0,0.6453,optionLeft,70,6410,3,35,0,35,0,1,,,,,,,,,,,,,,,,,,,,,,,,,,,,,,,,,,,,,,,
,,,,,,,,2023-08-16_08h44.28.370,HF_wild_card,2022.2.4,Win32,59.93048064,5ec3017eea63c51454d3c3dd,64d2fd46c836a06233681665,64dc7e385038957636d3ce37,,,,,,,sngl,resources/DR.BMP,resources/Empty.png,WildCard_NonEx,-0.269989616,0.010903427,1,0,0,0.5949,optionLeft,45,6455,3,36,0,36,0,1,,,,,,,,,,,,,,,,,,,,,,,,,,,,,,,,,,,,,,,
,,,,,,,,2023-08-16_08h44.28.370,HF_wild_card,2022.2.4,Win32,59.93048064,5ec3017eea63c51454d3c3dd,64d2fd46c836a06233681665,64dc7e385038957636d3ce37,,,,,,,decisionTrl,resources/DBN.BMP,resources/DY.BMP,Door1,0.346832814,0.008826584,1,0,0,2.4957,optionRight,30,6485,3,37,0,37,0,1,,,,,,,,,,,,,,,,,,,,,,,,,,,,,,,,,,,,,,,
,,,,,,,,2023-08-16_08h44.28.370,HF_wild_card,2022.2.4,Win32,59.93048064,5ec3017eea63c51454d3c3dd,64d2fd46c836a06233681665,64dc7e385038957636d3ce37,,,,,,,decisionTrl,resources/DY.BMP,resources/DBN.BMP,Door1,-0.316718588,-0.023364486,1,0,0,0.9293,optionLeft,30,6515,3,38,0,38,0,1,,,,,,,,,,,,,,,,,,,,,,,,,,,,,,,,,,,,,,,
,,,,,,,,2023-08-16_08h44.28.370,HF_wild_card,2022.2.4,Win32,59.93048064,5ec3017eea63c51454d3c3dd,64d2fd46c836a06233681665,64dc7e385038957636d3ce37,,,,,,,sngl,resources/Empty.png,resources/DR.BMP,WildCard_NonEx,0.192107996,-0.0192108,1,0,0,0.596,optionRight,55,6570,3,39,0,39,0,1,,,,,,,,,,,,,,,,,,,,,,,,,,,,,,,,,,,,,,,
,,,,,,,,2023-08-16_08h44.28.370,HF_wild_card,2022.2.4,Win32,59.93048064,5ec3017eea63c51454d3c3dd,64d2fd46c836a06233681665,64dc7e385038957636d3ce37,,,,,,,ctch,resources/DB.BMP,resources/DY.BMP,Door4,-0.226375909,-0.009865005,1,0,0,3.7786,optionLeft,60,6630,3,40,0,40,0,1,,,,,,,,,,,,,,,,,,,,,,,,,,,,,,,,,,,,,,,
,,,,,,,,2023-08-16_08h44.28.370,HF_wild_card,2022.2.4,Win32,59.93048064,5ec3017eea63c51454d3c3dd,64d2fd46c836a06233681665,64dc7e385038957636d3ce37,,,,,,,sngl,resources/DR.BMP,resources/Empty.png,WildCard_NonEx,-0.282450675,-0.01298027,1,0,0,0.4766,optionLeft,55,6685,3,41,0,41,0,1,,,,,,,,,,,,,,,,,,,,,,,,,,,,,,,,,,,,,,,
,,,,,,,,2023-08-16_08h44.28.370,HF_wild_card,2022.2.4,Win32,59.93048064,5ec3017eea63c51454d3c3dd,64d2fd46c836a06233681665,64dc7e385038957636d3ce37,,,,,,,decisionTrl,resources/DR.BMP,resources/DG.BMP,Door3,0.328141225,-0.005711319,1,0,0,0.5483,optionRight,70,6755,3,42,0,42,0,1,,,,,,,,,,,,,,,,,,,,,,,,,,,,,,,,,,,,,,,
,,,,,,,,2023-08-16_08h44.28.370,HF_wild_card,2022.2.4,Win32,59.93048064,5ec3017eea63c51454d3c3dd,64d2fd46c836a06233681665,64dc7e385038957636d3ce37,,,,,,,decisionTrl,resources/DB.BMP,resources/DG.BMP,Door4,-0.420560748,0.073208723,1,0,0,0.664,optionLeft,80,6835,3,43,0,43,0,1,,,,,,,,,,,,,,,,,,,,,,,,,,,,,,,,,,,,,,,
,,,,,,,,2023-08-16_08h44.28.370,HF_wild_card,2022.2.4,Win32,59.93048064,5ec3017eea63c51454d3c3dd,64d2fd46c836a06233681665,64dc7e385038957636d3ce37,,,,,,,,,,,,,,,,,,,,,,,,,,2,0,2,0,1,,,,,,,,,,,,,,,,,,,,,,,,,,,,,,,,,,
,,,,,,,,2023-08-16_08h44.28.370,HF_wild_card,2022.2.4,Win32,59.93048064,5ec3017eea63c51454d3c3dd,64d2fd46c836a06233681665,64dc7e385038957636d3ce37,,,,,,,decisionTrl,resources/DG.BMP,resources/DB.BMP,Door4,0.265835929,0.00674974,1,0,0,1.4029,optionRight,80,6915,4,0,0,0,0,1,,,,,,,,,,,,,,,,,,,,,,,,,,,,,,,,,,,,,,,
,,,,,,,,2023-08-16_08h44.28.370,HF_wild_card,2022.2.4,Win32,59.93048064,5ec3017eea63c51454d3c3dd,64d2fd46c836a06233681665,64dc7e385038957636d3ce37,,,,,,,decisionTrl,resources/DBN.BMP,resources/DY.BMP,Door1,0.28556594,-0.008826584,1,0,0,0.9136,optionRight,30,6945,4,1,0,1,0,1,,,,,,,,,,,,,,,,,,,,,,,,,,,,,,,,,,,,,,,
,,,,,,,,2023-08-16_08h44.28.370,HF_wild_card,2022.2.4,Win32,59.93048064,5ec3017eea63c51454d3c3dd,64d2fd46c836a06233681665,64dc7e385038957636d3ce37,,,,,,,decisionTrl,resources/DP.BMP,resources/DG.BMP,WildCard_Ex,-0.320872274,0.002596054,1,0,0,0.6157,optionLeft,45,6990,4,2,0,2,0,1,,,,,,,,,,,,,,,,,,,,,,,,,,,,,,,,,,,,,,,
,,,,,,,,2023-08-16_08h44.28.370,HF_wild_card,2022.2.4,Win32,59.93048064,5ec3017eea63c51454d3c3dd,64d2fd46c836a06233681665,64dc7e385038957636d3ce37,,,,,,,sngl,resources/Empty.png,resources/DY.BMP,Door1,0.257528557,0.008826584,1,0,0,0.4744,optionRight,30,7020,4,3,0,3,0,1,,,,,,,,,,,,,,,,,,,,,,,,,,,,,,,,,,,,,,,
,,,,,,,,2023-08-16_08h44.28.370,HF_wild_card,2022.2.4,Win32,59.93048064,5ec3017eea63c51454d3c3dd,64d2fd46c836a06233681665,64dc7e385038957636d3ce37,,,,,,,ctch,resources/DBN.BMP,resources/DG.BMP,Door3,0.422637591,0.016095535,1,0,0,1.1455,optionRight,70,7090,4,4,0,4,0,1,,,,,,,,,,,,,,,,,,,,,,,,,,,,,,,,,,,,,,,
,,,,,,,,2023-08-16_08h44.28.370,HF_wild_card,2022.2.4,Win32,59.93048064,5ec3017eea63c51454d3c3dd,64d2fd46c836a06233681665,64dc7e385038957636d3ce37,,,,,,,ctch,resources/DBN.BMP,resources/DG.BMP,Door2,-0.35721703,0.007788162,1,0,0,0.5132,optionLeft,40,7130,4,5,0,5,0,1,,,,,,,,,,,,,,,,,,,,,,,,,,,,,,,,,,,,,,,
,,,,,,,,2023-08-16_08h44.28.370,HF_wild_card,2022.2.4,Win32,59.93048064,5ec3017eea63c51454d3c3dd,64d2fd46c836a06233681665,64dc7e385038957636d3ce37,,,,,,,decisionTrl,resources/DY.BMP,resources/DBN.BMP,Door1,-0.283489097,-0.009865005,1,0,0,0.8447,optionLeft,30,7160,4,6,0,6,0,1,,,,,,,,,,,,,,,,,,,,,,,,,,,,,,,,,,,,,,,
,,,,,,,,2023-08-16_08h44.28.370,HF_wild_card,2022.2.4,Win32,59.93048064,5ec3017eea63c51454d3c3dd,64d2fd46c836a06233681665,64dc7e385038957636d3ce37,,,,,,,decisionTrl,resources/DB.BMP,resources/DG.BMP,Door4,-0.294911734,-0.007788162,1,0,0,0.7608,optionLeft,60,7220,4,7,0,7,0,1,,,,,,,,,,,,,,,,,,,,,,,,,,,,,,,,,,,,,,,
,,,,,,,,2023-08-16_08h44.28.370,HF_wild_card,2022.2.4,Win32,59.93048064,5ec3017eea63c51454d3c3dd,64d2fd46c836a06233681665,64dc7e385038957636d3ce37,,,,,,,ctch,resources/DG.BMP,resources/DBN.BMP,Door3,-0.293873313,0.000519211,1,0,0,0.5126,optionLeft,70,7290,4,8,0,8,0,1,,,,,,,,,,,,,,,,,,,,,,,,,,,,,,,,,,,,,,,
,,,,,,,,2023-08-16_08h44.28.370,HF_wild_card,2022.2.4,Win32,59.93048064,5ec3017eea63c51454d3c3dd,64d2fd46c836a06233681665,64dc7e385038957636d3ce37,,,,,,,decisionTrl,resources/DBN.BMP,resources/DY.BMP,Door2,-0.362409138,-0.015057113,1,0,0,0.8316,optionLeft,20,7310,4,9,0,9,0,1,,,,,,,,,,,,,,,,,,,,,,,,,,,,,,,,,,,,,,,
,,,,,,,,2023-08-16_08h44.28.370,HF_wild_card,2022.2.4,Win32,59.93048064,5ec3017eea63c51454d3c3dd,64d2fd46c836a06233681665,64dc7e385038957636d3ce37,,,,,,,sngl,resources/DP.BMP,resources/Empty.png,WildCard_Ex,-0.291796469,-0.000519211,1,0,0,0.5125,optionLeft,45,7355,4,10,0,10,0,1,,,,,,,,,,,,,,,,,,,,,,,,,,,,,,,,,,,,,,,
,,,,,,,,2023-08-16_08h44.28.370,HF_wild_card,2022.2.4,Win32,59.93048064,5ec3017eea63c51454d3c3dd,64d2fd46c836a06233681665,64dc7e385038957636d3ce37,,,,,,,decisionTrl,resources/DBN.BMP,resources/DY.BMP,Door1,0.276220145,-0.01298027,1,0,0,1.0802,optionRight,30,7385,4,11,0,11,0,1,,,,,,,,,,,,,,,,,,,,,,,,,,,,,,,,,,,,,,,
,,,,,,,,2023-08-16_08h44.28.370,HF_wild_card,2022.2.4,Win32,59.93048064,5ec3017eea63c51454d3c3dd,64d2fd46c836a06233681665,64dc7e385038957636d3ce37,,,,,,,decisionTrl,resources/DG.BMP,resources/DP.BMP,Door3,-0.318795431,-0.025441329,1,0,0,0.8142,optionLeft,70,7455,4,12,0,12,0,1,,,,,,,,,,,,,,,,,,,,,,,,,,,,,,,,,,,,,,,
,,,,,,,,2023-08-16_08h44.28.370,HF_wild_card,2022.2.4,Win32,59.93048064,5ec3017eea63c51454d3c3dd,64d2fd46c836a06233681665,64dc7e385038957636d3ce37,,,,,,,decisionTrl,resources/DY.BMP,resources/DBN.BMP,Door2,0.358255452,-0.026479751,1,0,0,0.4791,optionRight,40,7495,4,13,0,13,0,1,,,,,,,,,,,,,,,,,,,,,,,,,,,,,,,,,,,,,,,
,,,,,,,,2023-08-16_08h44.28.370,HF_wild_card,2022.2.4,Win32,59.93048064,5ec3017eea63c51454d3c3dd,64d2fd46c836a06233681665,64dc7e385038957636d3ce37,,,,,,,decisionTrl,resources/DP.BMP,resources/DBN.BMP,Door2,0.310488058,0.001557632,1,0,0,0.9611,optionRight,40,7535,4,14,0,14,0,1,,,,,,,,,,,,,,,,,,,,,,,,,,,,,,,,,,,,,,,
,,,,,,,,2023-08-16_08h44.28.370,HF_wild_card,2022.2.4,Win32,59.93048064,5ec3017eea63c51454d3c3dd,64d2fd46c836a06233681665,64dc7e385038957636d3ce37,,,,,,,decisionTrl,resources/DP.BMP,resources/DY.BMP,WildCard_Ex,-0.284527518,-0.024402908,1,0,0,1.5647,optionLeft,55,7590,4,15,0,15,0,1,,,,,,,,,,,,,,,,,,,,,,,,,,,,,,,,,,,,,,,
,,,,,,,,2023-08-16_08h44.28.370,HF_wild_card,2022.2.4,Win32,59.93048064,5ec3017eea63c51454d3c3dd,64d2fd46c836a06233681665,64dc7e385038957636d3ce37,,,,,,,sngl,resources/DY.BMP,resources/Empty.png,Door1,-0.352024922,-0.000519211,1,0,0,0.4627,optionLeft,30,7620,4,16,0,16,0,1,,,,,,,,,,,,,,,,,,,,,,,,,,,,,,,,,,,,,,,
,,,,,,,,2023-08-16_08h44.28.370,HF_wild_card,2022.2.4,Win32,59.93048064,5ec3017eea63c51454d3c3dd,64d2fd46c836a06233681665,64dc7e385038957636d3ce37,,,,,,,decisionTrl,resources/DG.BMP,resources/DB.BMP,Door3,-0.27933541,0.009865005,1,0,0,1.3272,optionLeft,70,7690,4,17,0,17,0,1,,,,,,,,,,,,,,,,,,,,,,,,,,,,,,,,,,,,,,,
,,,,,,,,2023-08-16_08h44.28.370,HF_wild_card,2022.2.4,Win32,59.93048064,5ec3017eea63c51454d3c3dd,64d2fd46c836a06233681665,64dc7e385038957636d3ce37,,,,,,,decisionTrl,resources/DB.BMP,resources/DG.BMP,Door4,-0.218068536,0.004672897,1,0,0,0.6463,optionLeft,60,7750,4,18,0,18,0,1,,,,,,,,,,,,,,,,,,,,,,,,,,,,,,,,,,,,,,,
,,,,,,,,2023-08-16_08h44.28.370,HF_wild_card,2022.2.4,Win32,59.93048064,5ec3017eea63c51454d3c3dd,64d2fd46c836a06233681665,64dc7e385038957636d3ce37,,,,,,,decisionTrl,resources/DP.BMP,resources/DB.BMP,Door4,0.392523364,-0.0192108,1,0,0,0.9617,optionRight,80,7830,4,19,0,19,0,1,,,,,,,,,,,,,,,,,,,,,,,,,,,,,,,,,,,,,,,
,,,,,,,,2023-08-16_08h44.28.370,HF_wild_card,2022.2.4,Win32,59.93048064,5ec3017eea63c51454d3c3dd,64d2fd46c836a06233681665,64dc7e385038957636d3ce37,,,,,,,sngl,resources/Empty.png,resources/DP.BMP,WildCard_Ex,0.318795431,-0.008826584,1,0,0,0.4793,optionRight,45,7875,4,20,0,20,0,1,,,,,,,,,,,,,,,,,,,,,,,,,,,,,,,,,,,,,,,
,,,,,,,,2023-08-16_08h44.28.370,HF_wild_card,2022.2.4,Win32,59.93048064,5ec3017eea63c51454d3c3dd,64d2fd46c836a06233681665,64dc7e385038957636d3ce37,,,,,,,decisionTrl,resources/DB.BMP,resources/DG.BMP,Door4,-0.269989616,0.003634476,1,0,0,0.5653,optionLeft,80,7955,4,21,0,21,0,1,,,,,,,,,,,,,,,,,,,,,,,,,,,,,,,,,,,,,,,
,,,,,,,,2023-08-16_08h44.28.370,HF_wild_card,2022.2.4,Win32,59.93048064,5ec3017eea63c51454d3c3dd,64d2fd46c836a06233681665,64dc7e385038957636d3ce37,,,,,,,sngl,resources/Empty.png,resources/DBN.BMP,Door2,0.408099688,0.041017653,1,0,0,0.4438,optionRight,40,7995,4,22,0,22,0,1,,,,,,,,,,,,,,,,,,,,,,,,,,,,,,,,,,,,,,,
,,,,,,,,2023-08-16_08h44.28.370,HF_wild_card,2022.2.4,Win32,59.93048064,5ec3017eea63c51454d3c3dd,64d2fd46c836a06233681665,64dc7e385038957636d3ce37,,,,,,,ctch,resources/DY.BMP,resources/DB.BMP,Door1,-0.261682243,0.054517134,1,0,0,0.5613,optionLeft,30,8025,4,23,0,23,0,1,,,,,,,,,,,,,,,,,,,,,,,,,,,,,,,,,,,,,,,
,,,,,,,,2023-08-16_08h44.28.370,HF_wild_card,2022.2.4,Win32,59.93048064,5ec3017eea63c51454d3c3dd,64d2fd46c836a06233681665,64dc7e385038957636d3ce37,,,,,,,decisionTrl,resources/DB.BMP,resources/DP.BMP,Door4,-0.300103842,0.000519211,1,0,0,0.5275,optionLeft,60,8085,4,24,0,24,0,1,,,,,,,,,,,,,,,,,,,,,,,,,,,,,,,,,,,,,,,
,,,,,,,,2023-08-16_08h44.28.370,HF_wild_card,2022.2.4,Win32,59.93048064,5ec3017eea63c51454d3c3dd,64d2fd46c836a06233681665,64dc7e385038957636d3ce37,,,,,,,decisionTrl,resources/DG.BMP,resources/DB.BMP,Door3,-0.266874351,-0.003634476,1,0,0,0.5931,optionLeft,70,8155,4,25,0,25,0,1,,,,,,,,,,,,,,,,,,,,,,,,,,,,,,,,,,,,,,,
,,,,,,,,2023-08-16_08h44.28.370,HF_wild_card,2022.2.4,Win32,59.93048064,5ec3017eea63c51454d3c3dd,64d2fd46c836a06233681665,64dc7e385038957636d3ce37,,,,,,,sngl,resources/DP.BMP,resources/Empty.png,WildCard_Ex,-0.293873313,0.008826584,1,0,0,0.4638,optionLeft,55,8210,4,26,0,26,0,1,,,,,,,,,,,,,,,,,,,,,,,,,,,,,,,,,,,,,,,
,,,,,,,,2023-08-16_08h44.28.370,HF_wild_card,2022.2.4,Win32,59.93048064,5ec3017eea63c51454d3c3dd,64d2fd46c836a06233681665,64dc7e385038957636d3ce37,,,,,,,decisionTrl,resources/DBN.BMP,resources/DP.BMP,Door2,-0.250259605,0.016095535,1,0,0,0.5472,optionLeft,40,8250,4,27,0,27,0,1,,,,,,,,,,,,,,,,,,,,,,,,,,,,,,,,,,,,,,,
,,,,,,,,2023-08-16_08h44.28.370,HF_wild_card,2022.2.4,Win32,59.93048064,5ec3017eea63c51454d3c3dd,64d2fd46c836a06233681665,64dc7e385038957636d3ce37,,,,,,,decisionTrl,resources/DG.BMP,resources/DB.BMP,Door3,-0.247144341,0.00674974,1,0,0,0.5806,optionLeft,70,8320,4,28,0,28,0,1,,,,,,,,,,,,,,,,,,,,,,,,,,,,,,,,,,,,,,,
,,,,,,,,2023-08-16_08h44.28.370,HF_wild_card,2022.2.4,Win32,59.93048064,5ec3017eea63c51454d3c3dd,64d2fd46c836a06233681665,64dc7e385038957636d3ce37,,,,,,,decisionTrl,resources/DY.BMP,resources/DBN.BMP,Door1,-0.273104881,0.020249221,1,0,0,0.7641,optionLeft,30,8350,4,29,0,29,0,1,,,,,,,,,,,,,,,,,,,,,,,,,,,,,,,,,,,,,,,
,,,,,,,,2023-08-16_08h44.28.370,HF_wild_card,2022.2.4,Win32,59.93048064,5ec3017eea63c51454d3c3dd,64d2fd46c836a06233681665,64dc7e385038957636d3ce37,,,,,,,decisionTrl,resources/DBN.BMP,resources/DY.BMP,Door2,-0.300103842,0.005711319,1,0,0,0.5975,optionLeft,20,8370,4,30,0,30,0,1,,,,,,,,,,,,,,,,,,,,,,,,,,,,,,,,,,,,,,,
,,,,,,,,2023-08-16_08h44.28.370,HF_wild_card,2022.2.4,Win32,59.93048064,5ec3017eea63c51454d3c3dd,64d2fd46c836a06233681665,64dc7e385038957636d3ce37,,,,,,,sngl,resources/Empty.png,resources/DB.BMP,Door4,0.371754933,-0.007788162,1,0,0,0.4768,optionRight,80,8450,4,31,0,31,0,1,,,,,,,,,,,,,,,,,,,,,,,,,,,,,,,,,,,,,,,
,,,,,,,,2023-08-16_08h44.28.370,HF_wild_card,2022.2.4,Win32,59.93048064,5ec3017eea63c51454d3c3dd,64d2fd46c836a06233681665,64dc7e385038957636d3ce37,,,,,,,ctch,resources/DY.BMP,resources/DB.BMP,Door1,-0.244029076,-0.007788162,1,0,0,0.6138,optionLeft,30,8480,4,32,0,32,0,1,,,,,,,,,,,,,,,,,,,,,,,,,,,,,,,,,,,,,,,
,,,,,,,,2023-08-16_08h44.28.370,HF_wild_card,2022.2.4,Win32,59.93048064,5ec3017eea63c51454d3c3dd,64d2fd46c836a06233681665,64dc7e385038957636d3ce37,,,,,,,sngl,resources/DG.BMP,resources/Empty.png,Door3,-0.212876428,-0.005711319,1,0,0,0.4804,optionLeft,70,8550,4,33,0,33,0,1,,,,,,,,,,,,,,,,,,,,,,,,,,,,,,,,,,,,,,,
,,,,,,,,2023-08-16_08h44.28.370,HF_wild_card,2022.2.4,Win32,59.93048064,5ec3017eea63c51454d3c3dd,64d2fd46c836a06233681665,64dc7e385038957636d3ce37,,,,,,,sngl,resources/Empty.png,resources/DG.BMP,Door3,0.40290758,-0.003634476,1,0,0,0.4623,optionRight,70,8620,4,34,0,34,0,1,,,,,,,,,,,,,,,,,,,,,,,,,,,,,,,,,,,,,,,
,,,,,,,,2023-08-16_08h44.28.370,HF_wild_card,2022.2.4,Win32,59.93048064,5ec3017eea63c51454d3c3dd,64d2fd46c836a06233681665,64dc7e385038957636d3ce37,,,,,,,ctch,resources/DB.BMP,resources/DY.BMP,Door1,0.483904465,-0.033748702,1,0,0,0.7288,optionRight,30,8650,4,35,0,35,0,1,,,,,,,,,,,,,,,,,,,,,,,,,,,,,,,,,,,,,,,
,,,,,,,,2023-08-16_08h44.28.370,HF_wild_card,2022.2.4,Win32,59.93048064,5ec3017eea63c51454d3c3dd,64d2fd46c836a06233681665,64dc7e385038957636d3ce37,,,,,,,decisionTrl,resources/DY.BMP,resources/DBN.BMP,Door1,-0.36344756,-0.020249221,1,0,0,0.8147,optionLeft,30,8680,4,36,0,36,0,1,,,,,,,,,,,,,,,,,,,,,,,,,,,,,,,,,,,,,,,
,,,,,,,,2023-08-16_08h44.28.370,HF_wild_card,2022.2.4,Win32,59.93048064,5ec3017eea63c51454d3c3dd,64d2fd46c836a06233681665,64dc7e385038957636d3ce37,,,,,,,decisionTrl,resources/DY.BMP,resources/DP.BMP,Door1,-0.247144341,0.00674974,1,0,0,1.7941,optionLeft,30,8710,4,37,0,37,0,1,,,,,,,,,,,,,,,,,,,,,,,,,,,,,,,,,,,,,,,
,,,,,,,,2023-08-16_08h44.28.370,HF_wild_card,2022.2.4,Win32,59.93048064,5ec3017eea63c51454d3c3dd,64d2fd46c836a06233681665,64dc7e385038957636d3ce37,,,,,,,sngl,resources/DBN.BMP,resources/Empty.png,Door2,-0.296988577,-0.000519211,1,0,0,0.4975,optionLeft,20,8730,4,38,0,38,0,1,,,,,,,,,,,,,,,,,,,,,,,,,,,,,,,,,,,,,,,
,,,,,,,,2023-08-16_08h44.28.370,HF_wild_card,2022.2.4,Win32,59.93048064,5ec3017eea63c51454d3c3dd,64d2fd46c836a06233681665,64dc7e385038957636d3ce37,,,,,,,sngl,resources/DB.BMP,resources/Empty.png,Door4,-0.329179647,-0.036863967,1,0,0,0.4639,optionLeft,60,8790,4,39,0,39,0,1,,,,,,,,,,,,,,,,,,,,,,,,,,,,,,,,,,,,,,,
,,,,,,,,2023-08-16_08h44.28.370,HF_wild_card,2022.2.4,Win32,59.93048064,5ec3017eea63c51454d3c3dd,64d2fd46c836a06233681665,64dc7e385038957636d3ce37,,,,,,,ctch,resources/DG.BMP,resources/DBN.BMP,Door3,-0.228452752,-0.007788162,1,0,0,0.8461,optionLeft,70,8860,4,40,0,40,0,1,,,,,,,,,,,,,,,,,,,,,,,,,,,,,,,,,,,,,,,
,,,,,,,,2023-08-16_08h44.28.370,HF_wild_card,2022.2.4,Win32,59.93048064,5ec3017eea63c51454d3c3dd,64d2fd46c836a06233681665,64dc7e385038957636d3ce37,,,,,,,ctch,resources/DB.BMP,resources/DY.BMP,Door4,-0.295950156,-0.017133956,1,0,0,0.8138,optionLeft,60,8920,4,41,0,41,0,1,,,,,,,,,,,,,,,,,,,,,,,,,,,,,,,,,,,,,,,
,,,,,,,,2023-08-16_08h44.28.370,HF_wild_card,2022.2.4,Win32,59.93048064,5ec3017eea63c51454d3c3dd,64d2fd46c836a06233681665,64dc7e385038957636d3ce37,,,,,,,sngl,resources/Empty.png,resources/DP.BMP,WildCard_Ex,0.276220145,-0.004672897,1,0,0,0.446,optionRight,55,8975,4,42,0,42,0,1,,,,,,,,,,,,,,,,,,,,,,,,,,,,,,,,,,,,,,,
,,,,,,,,2023-08-16_08h44.28.370,HF_wild_card,2022.2.4,Win32,59.93048064,5ec3017eea63c51454d3c3dd,64d2fd46c836a06233681665,64dc7e385038957636d3ce37,,,,,,,decisionTrl,resources/DB.BMP,resources/DG.BMP,Door4,-0.20768432,-0.016095535,1,0,0,0.8314,optionLeft,80,9055,4,43,0,43,0,1,,,,,,,,,,,,,,,,,,,,,,,,,,,,,,,,,,,,,,,
,,,,,,,,2023-08-16_08h44.28.370,HF_wild_card,2022.2.4,Win32,59.93048064,5ec3017eea63c51454d3c3dd,64d2fd46c836a06233681665,64dc7e385038957636d3ce37,,,,,,,,,,,,,,,,,,,,,,,,,,3,0,3,0,1,,,,,,,,,,,,,,,,,,,,,,,,,,,,,,,,,,
,,,,,,,,2023-08-16_08h44.28.370,HF_wild_card,2022.2.4,Win32,59.93048064,5ec3017eea63c51454d3c3dd,64d2fd46c836a06233681665,64dc7e385038957636d3ce37,,,,,,,decisionTrl,resources/DY.BMP,resources/DP.BMP,WildCard_Ex,0.197300104,-0.0192108,1,0,0,1.0915,optionRight,45,9100,5,0,0,0,0,1,,,,,,,,,,,,,,,,,,,,,,,,,,,,,,,,,,,,,,,
,,,,,,,,2023-08-16_08h44.28.370,HF_wild_card,2022.2.4,Win32,59.93048064,5ec3017eea63c51454d3c3dd,64d2fd46c836a06233681665,64dc7e385038957636d3ce37,,,,,,,decisionTrl,resources/DP.BMP,resources/DY.BMP,Door1,0.335410177,0.003634476,1,0,0,0.4639,optionRight,30,9130,5,1,0,1,0,1,,,,,,,,,,,,,,,,,,,,,,,,,,,,,,,,,,,,,,,
,,,,,,,,2023-08-16_08h44.28.370,HF_wild_card,2022.2.4,Win32,59.93048064,5ec3017eea63c51454d3c3dd,64d2fd46c836a06233681665,64dc7e385038957636d3ce37,,,,,,,ctch,resources/DY.BMP,resources/DB.BMP,Door4,0.444444444,-0.017133956,1,0,0,0.7416,optionRight,60,9190,5,2,0,2,0,1,,,,,,,,,,,,,,,,,,,,,,,,,,,,,,,,,,,,,,,
,,,,,,,,2023-08-16_08h44.28.370,HF_wild_card,2022.2.4,Win32,59.93048064,5ec3017eea63c51454d3c3dd,64d2fd46c836a06233681665,64dc7e385038957636d3ce37,,,,,,,ctch,resources/DB.BMP,resources/DY.BMP,Door4,-0.366562825,-0.018172378,1,0,0,1.0295,optionLeft,60,9250,5,3,0,3,0,1,,,,,,,,,,,,,,,,,,,,,,,,,,,,,,,,,,,,,,,
,,,,,,,,2023-08-16_08h44.28.370,HF_wild_card,2022.2.4,Win32,59.93048064,5ec3017eea63c51454d3c3dd,64d2fd46c836a06233681665,64dc7e385038957636d3ce37,,,,,,,sngl,resources/Empty.png,resources/DG.BMP,Door3,0.323987539,0.005711319,1,0,0,0.529,optionRight,70,9320,5,4,0,4,0,1,,,,,,,,,,,,,,,,,,,,,,,,,,,,,,,,,,,,,,,
,,,,,,,,2023-08-16_08h44.28.370,HF_wild_card,2022.2.4,Win32,59.93048064,5ec3017eea63c51454d3c3dd,64d2fd46c836a06233681665,64dc7e385038957636d3ce37,,,,,,,sngl,resources/Empty.png,resources/DP.BMP,WildCard_Ex,0.182762201,0.015057113,1,0,0,0.4457,optionRight,55,9375,5,5,0,5,0,1,,,,,,,,,,,,,,,,,,,,,,,,,,,,,,,,,,,,,,,
,,,,,,,,2023-08-16_08h44.28.370,HF_wild_card,2022.2.4,Win32,59.93048064,5ec3017eea63c51454d3c3dd,64d2fd46c836a06233681665,64dc7e385038957636d3ce37,,,,,,,sngl,resources/DY.BMP,resources/Empty.png,Door1,-0.319833853,-0.000519211,1,0,0,0.4236,optionLeft,30,9405,5,6,0,6,0,1,,,,,,,,,,,,,,,,,,,,,,,,,,,,,,,,,,,,,,,
,,,,,,,,2023-08-16_08h44.28.370,HF_wild_card,2022.2.4,Win32,59.93048064,5ec3017eea63c51454d3c3dd,64d2fd46c836a06233681665,64dc7e385038957636d3ce37,,,,,,,decisionTrl,resources/DP.BMP,resources/DG.BMP,Door3,0.256490135,0.008826584,1,0,0,0.5825,optionRight,70,9475,5,7,0,7,0,1,,,,,,,,,,,,,,,,,,,,,,,,,,,,,,,,,,,,,,,
,,,,,,,,2023-08-16_08h44.28.370,HF_wild_card,2022.2.4,Win32,59.93048064,5ec3017eea63c51454d3c3dd,64d2fd46c836a06233681665,64dc7e385038957636d3ce37,,,,,,,ctch,resources/DB.BMP,resources/DY.BMP,Door4,-0.352024922,0.009865005,1,0,0,0.5512,optionLeft,80,9555,5,8,0,8,0,1,,,,,,,,,,,,,,,,,,,,,,,,,,,,,,,,,,,,,,,
,,,,,,,,2023-08-16_08h44.28.370,HF_wild_card,2022.2.4,Win32,59.93048064,5ec3017eea63c51454d3c3dd,64d2fd46c836a06233681665,64dc7e385038957636d3ce37,,,,,,,decisionTrl,resources/DG.BMP,resources/DB.BMP,Door3,-0.334371755,0.065939772,1,0,0,0.5942,optionLeft,70,9625,5,9,0,9,0,1,,,,,,,,,,,,,,,,,,,,,,,,,,,,,,,,,,,,,,,
,,,,,,,,2023-08-16_08h44.28.370,HF_wild_card,2022.2.4,Win32,59.93048064,5ec3017eea63c51454d3c3dd,64d2fd46c836a06233681665,64dc7e385038957636d3ce37,,,,,,,decisionTrl,resources/DB.BMP,resources/DG.BMP,Door4,-0.35721703,0.041017653,1,0,0,0.5368,optionLeft,80,9705,5,10,0,10,0,1,,,,,,,,,,,,,,,,,,,,,,,,,,,,,,,,,,,,,,,
,,,,,,,,2023-08-16_08h44.28.370,HF_wild_card,2022.2.4,Win32,59.93048064,5ec3017eea63c51454d3c3dd,64d2fd46c836a06233681665,64dc7e385038957636d3ce37,,,,,,,decisionTrl,resources/DY.BMP,resources/DBN.BMP,Door2,0.426791277,0.059709242,1,0,0,1.6909,optionRight,40,9745,5,11,0,11,0,1,,,,,,,,,,,,,,,,,,,,,,,,,,,,,,,,,,,,,,,
,,,,,,,,2023-08-16_08h44.28.370,HF_wild_card,2022.2.4,Win32,59.93048064,5ec3017eea63c51454d3c3dd,64d2fd46c836a06233681665,64dc7e385038957636d3ce37,,,,,,,decisionTrl,resources/DBN.BMP,resources/DY.BMP,Door1,0.278296989,-0.050363448,1,0,0,1.0004,optionRight,30,9775,5,12,0,12,0,1,,,,,,,,,,,,,,,,,,,,,,,,,,,,,,,,,,,,,,,
,,,,,,,,2023-08-16_08h44.28.370,HF_wild_card,2022.2.4,Win32,59.93048064,5ec3017eea63c51454d3c3dd,64d2fd46c836a06233681665,64dc7e385038957636d3ce37,,,,,,,decisionTrl,resources/DG.BMP,resources/DB.BMP,Door3,-0.218068536,-0.000519211,1,0,0,0.8803,optionLeft,70,9845,5,13,0,13,0,1,,,,,,,,,,,,,,,,,,,,,,,,,,,,,,,,,,,,,,,
,,,,,,,,2023-08-16_08h44.28.370,HF_wild_card,2022.2.4,Win32,59.93048064,5ec3017eea63c51454d3c3dd,64d2fd46c836a06233681665,64dc7e385038957636d3ce37,,,,,,,decisionTrl,resources/DB.BMP,resources/DG.BMP,Door4,-0.37694704,0.003634476,1,0,0,0.729,optionLeft,60,9905,5,14,0,14,0,1,,,,,,,,,,,,,,,,,,,,,,,,,,,,,,,,,,,,,,,
,,,,,,,,2023-08-16_08h44.28.370,HF_wild_card,2022.2.4,Win32,59.93048064,5ec3017eea63c51454d3c3dd,64d2fd46c836a06233681665,64dc7e385038957636d3ce37,,,,,,,sngl,resources/DBN.BMP,resources/Empty.png,Door2,-0.330218069,0.010903427,1,0,0,1.9635,optionLeft,40,9945,5,15,0,15,0,1,,,,,,,,,,,,,,,,,,,,,,,,,,,,,,,,,,,,,,,
,,,,,,,,2023-08-16_08h44.28.370,HF_wild_card,2022.2.4,Win32,59.93048064,5ec3017eea63c51454d3c3dd,64d2fd46c836a06233681665,64dc7e385038957636d3ce37,,,,,,,sngl,resources/Empty.png,resources/DP.BMP,WildCard_Ex,0.418483904,0.074247144,1,0,0,0.448,optionRight,45,9990,5,16,0,16,0,1,,,,,,,,,,,,,,,,,,,,,,,,,,,,,,,,,,,,,,,
,,,,,,,,2023-08-16_08h44.28.370,HF_wild_card,2022.2.4,Win32,59.93048064,5ec3017eea63c51454d3c3dd,64d2fd46c836a06233681665,64dc7e385038957636d3ce37,,,,,,,ctch,resources/DBN.BMP,resources/DG.BMP,Door2,-0.366562825,0.01298027,1,0,0,0.4795,optionLeft,20,10010,5,17,0,17,0,1,,,,,,,,,,,,,,,,,,,,,,,,,,,,,,,,,,,,,,,
,,,,,,,,2023-08-16_08h44.28.370,HF_wild_card,2022.2.4,Win32,59.93048064,5ec3017eea63c51454d3c3dd,64d2fd46c836a06233681665,64dc7e385038957636d3ce37,,,,,,,decisionTrl,resources/DBN.BMP,resources/DY.BMP,Door1,0.466251298,-0.024402908,1,0,0,0.9956,optionRight,30,10040,5,18,0,18,0,1,,,,,,,,,,,,,,,,,,,,,,,,,,,,,,,,,,,,,,,
,,,,,,,,2023-08-16_08h44.28.370,HF_wild_card,2022.2.4,Win32,59.93048064,5ec3017eea63c51454d3c3dd,64d2fd46c836a06233681665,64dc7e385038957636d3ce37,,,,,,,ctch,resources/DBN.BMP,resources/DG.BMP,Door3,0.354101765,-0.000519211,1,0,0,0.6975,optionRight,70,10110,5,19,0,19,0,1,,,,,,,,,,,,,,,,,,,,,,,,,,,,,,,,,,,,,,,
,,,,,,,,2023-08-16_08h44.28.370,HF_wild_card,2022.2.4,Win32,59.93048064,5ec3017eea63c51454d3c3dd,64d2fd46c836a06233681665,64dc7e385038957636d3ce37,,,,,,,decisionTrl,resources/DY.BMP,resources/DBN.BMP,Door1,-0.340602285,-0.000519211,1,0,0,2.1913,optionLeft,30,10140,5,20,0,20,0,1,,,,,,,,,,,,,,,,,,,,,,,,,,,,,,,,,,,,,,,
,,,,,,,,2023-08-16_08h44.28.370,HF_wild_card,2022.2.4,Win32,59.93048064,5ec3017eea63c51454d3c3dd,64d2fd46c836a06233681665,64dc7e385038957636d3ce37,,,,,,,sngl,resources/DB.BMP,resources/Empty.png,Door4,-0.269989616,0.026479751,1,0,0,0.4472,optionLeft,80,10220,5,21,0,21,0,1,,,,,,,,,,,,,,,,,,,,,,,,,,,,,,,,,,,,,,,
,,,,,,,,2023-08-16_08h44.28.370,HF_wild_card,2022.2.4,Win32,59.93048064,5ec3017eea63c51454d3c3dd,64d2fd46c836a06233681665,64dc7e385038957636d3ce37,,,,,,,decisionTrl,resources/DB.BMP,resources/DP.BMP,Door4,-0.284527518,-0.002596054,1,0,0,1.246,optionLeft,80,10300,5,22,0,22,0,1,,,,,,,,,,,,,,,,,,,,,,,,,,,,,,,,,,,,,,,
,,,,,,,,2023-08-16_08h44.28.370,HF_wild_card,2022.2.4,Win32,59.93048064,5ec3017eea63c51454d3c3dd,64d2fd46c836a06233681665,64dc7e385038957636d3ce37,,,,,,,decisionTrl,resources/DB.BMP,resources/DG.BMP,Door4,-0.256490135,-0.005711319,1,0,0,0.5761,optionLeft,80,10380,5,23,0,23,0,1,,,,,,,,,,,,,,,,,,,,,,,,,,,,,,,,,,,,,,,
,,,,,,,,2023-08-16_08h44.28.370,HF_wild_card,2022.2.4,Win32,59.93048064,5ec3017eea63c51454d3c3dd,64d2fd46c836a06233681665,64dc7e385038957636d3ce37,,,,,,,ctch,resources/DY.BMP,resources/DB.BMP,Door4,0.365524403,0.003634476,1,0,0,0.5595,optionRight,80,10460,5,24,0,24,0,1,,,,,,,,,,,,,,,,,,,,,,,,,,,,,,,,,,,,,,,
,,,,,,,,2023-08-16_08h44.28.370,HF_wild_card,2022.2.4,Win32,59.93048064,5ec3017eea63c51454d3c3dd,64d2fd46c836a06233681665,64dc7e385038957636d3ce37,,,,,,,decisionTrl,resources/DY.BMP,resources/DBN.BMP,Door1,-0.367601246,0.021287643,1,0,0,0.8141,optionLeft,30,10490,5,25,0,25,0,1,,,,,,,,,,,,,,,,,,,,,,,,,,,,,,,,,,,,,,,
,,,,,,,,2023-08-16_08h44.28.370,HF_wild_card,2022.2.4,Win32,59.93048064,5ec3017eea63c51454d3c3dd,64d2fd46c836a06233681665,64dc7e385038957636d3ce37,,,,,,,sngl,resources/DP.BMP,resources/Empty.png,WildCard_Ex,-0.218068536,0.03894081,1,0,0,0.5739,optionLeft,45,10535,5,26,0,26,0,1,,,,,,,,,,,,,,,,,,,,,,,,,,,,,,,,,,,,,,,
,,,,,,,,2023-08-16_08h44.28.370,HF_wild_card,2022.2.4,Win32,59.93048064,5ec3017eea63c51454d3c3dd,64d2fd46c836a06233681665,64dc7e385038957636d3ce37,,,,,,,decisionTrl,resources/DG.BMP,resources/DB.BMP,Door3,-0.251298027,-0.011941848,1,0,0,0.5641,optionLeft,70,10605,5,27,0,27,0,1,,,,,,,,,,,,,,,,,,,,,,,,,,,,,,,,,,,,,,,
,,,,,,,,2023-08-16_08h44.28.370,HF_wild_card,2022.2.4,Win32,59.93048064,5ec3017eea63c51454d3c3dd,64d2fd46c836a06233681665,64dc7e385038957636d3ce37,,,,,,,decisionTrl,resources/DY.BMP,resources/DBN.BMP,Door1,-0.274143302,0.000519211,1,0,0,0.5645,optionLeft,30,10635,5,28,0,28,0,1,,,,,,,,,,,,,,,,,,,,,,,,,,,,,,,,,,,,,,,
,,,,,,,,2023-08-16_08h44.28.370,HF_wild_card,2022.2.4,Win32,59.93048064,5ec3017eea63c51454d3c3dd,64d2fd46c836a06233681665,64dc7e385038957636d3ce37,,,,,,,decisionTrl,resources/DBN.BMP,resources/DP.BMP,WildCard_Ex,0.293873313,0.003634476,1,0,0,0.5305,optionRight,55,10690,5,29,0,29,0,1,,,,,,,,,,,,,,,,,,,,,,,,,,,,,,,,,,,,,,,
,,,,,,,,2023-08-16_08h44.28.370,HF_wild_card,2022.2.4,Win32,59.93048064,5ec3017eea63c51454d3c3dd,64d2fd46c836a06233681665,64dc7e385038957636d3ce37,,,,,,,decisionTrl,resources/DBN.BMP,resources/DY.BMP,Door2,-0.263759086,-0.009865005,1,0,0,0.4627,optionLeft,20,10710,5,30,0,30,0,1,,,,,,,,,,,,,,,,,,,,,,,,,,,,,,,,,,,,,,,
,,,,,,,,2023-08-16_08h44.28.370,HF_wild_card,2022.2.4,Win32,59.93048064,5ec3017eea63c51454d3c3dd,64d2fd46c836a06233681665,64dc7e385038957636d3ce37,,,,,,,sngl,resources/DG.BMP,resources/Empty.png,Door3,-0.248182762,0.00674974,1,0,0,0.4959,optionLeft,70,10780,5,31,0,31,0,1,,,,,,,,,,,,,,,,,,,,,,,,,,,,,,,,,,,,,,,
,,,,,,,,2023-08-16_08h44.28.370,HF_wild_card,2022.2.4,Win32,59.93048064,5ec3017eea63c51454d3c3dd,64d2fd46c836a06233681665,64dc7e385038957636d3ce37,,,,,,,decisionTrl,resources/DBN.BMP,resources/DY.BMP,Door1,0.273104881,-0.001557632,1,0,0,0.7812,optionRight,30,10810,5,32,0,32,0,1,,,,,,,,,,,,,,,,,,,,,,,,,,,,,,,,,,,,,,,
,,,,,,,,2023-08-16_08h44.28.370,HF_wild_card,2022.2.4,Win32,59.93048064,5ec3017eea63c51454d3c3dd,64d2fd46c836a06233681665,64dc7e385038957636d3ce37,,,,,,,ctch,resources/DG.BMP,resources/DBN.BMP,Door3,-0.269989616,0.001557632,1,0,0,0.5471,optionLeft,70,10880,5,33,0,33,0,1,,,,,,,,,,,,,,,,,,,,,,,,,,,,,,,,,,,,,,,
,,,,,,,,2023-08-16_08h44.28.370,HF_wild_card,2022.2.4,Win32,59.93048064,5ec3017eea63c51454d3c3dd,64d2fd46c836a06233681665,64dc7e385038957636d3ce37,,,,,,,decisionTrl,resources/DG.BMP,resources/DP.BMP,Door3,-0.294911734,0.002596054,1,0,0,0.4781,optionLeft,70,10950,5,34,0,34,0,1,,,,,,,,,,,,,,,,,,,,,,,,,,,,,,,,,,,,,,,
,,,,,,,,2023-08-16_08h44.28.370,HF_wild_card,2022.2.4,Win32,59.93048064,5ec3017eea63c51454d3c3dd,64d2fd46c836a06233681665,64dc7e385038957636d3ce37,,,,,,,sngl,resources/DP.BMP,resources/Empty.png,WildCard_Ex,-0.258566978,0.00674974,1,0,0,0.4957,optionLeft,55,11005,5,35,0,35,0,1,,,,,,,,,,,,,,,,,,,,,,,,,,,,,,,,,,,,,,,
,,,,,,,,2023-08-16_08h44.28.370,HF_wild_card,2022.2.4,Win32,59.93048064,5ec3017eea63c51454d3c3dd,64d2fd46c836a06233681665,64dc7e385038957636d3ce37,,,,,,,decisionTrl,resources/DG.BMP,resources/DB.BMP,Door3,-0.381100727,-0.01298027,1,0,0,0.5628,optionLeft,70,11075,5,36,0,36,0,1,,,,,,,,,,,,,,,,,,,,,,,,,,,,,,,,,,,,,,,
,,,,,,,,2023-08-16_08h44.28.370,HF_wild_card,2022.2.4,Win32,59.93048064,5ec3017eea63c51454d3c3dd,64d2fd46c836a06233681665,64dc7e385038957636d3ce37,,,,,,,ctch,resources/DG.BMP,resources/DBN.BMP,Door3,-0.292834891,0.00674974,1,0,0,0.5132,optionLeft,70,11145,5,37,0,37,0,1,,,,,,,,,,,,,,,,,,,,,,,,,,,,,,,,,,,,,,,
,,,,,,,,2023-08-16_08h44.28.370,HF_wild_card,2022.2.4,Win32,59.93048064,5ec3017eea63c51454d3c3dd,64d2fd46c836a06233681665,64dc7e385038957636d3ce37,,,,,,,decisionTrl,resources/DB.BMP,resources/DG.BMP,Door4,-0.197300104,0.041017653,1,0,0,0.601,optionLeft,80,11225,5,38,0,38,0,1,,,,,,,,,,,,,,,,,,,,,,,,,,,,,,,,,,,,,,,
,,,,,,,,2023-08-16_08h44.28.370,HF_wild_card,2022.2.4,Win32,59.93048064,5ec3017eea63c51454d3c3dd,64d2fd46c836a06233681665,64dc7e385038957636d3ce37,,,,,,,decisionTrl,resources/DP.BMP,resources/DB.BMP,WildCard_Ex,-0.282450675,0.001557632,1,0,0,0.7629,optionLeft,45,11270,5,39,0,39,0,1,,,,,,,,,,,,,,,,,,,,,,,,,,,,,,,,,,,,,,,
,,,,,,,,2023-08-16_08h44.28.370,HF_wild_card,2022.2.4,Win32,59.93048064,5ec3017eea63c51454d3c3dd,64d2fd46c836a06233681665,64dc7e385038957636d3ce37,,,,,,,sngl,resources/Empty.png,resources/DY.BMP,Door1,0.339563863,0.024402908,1,0,0,0.4975,optionRight,30,11300,5,40,0,40,0,1,,,,,,,,,,,,,,,,,,,,,,,,,,,,,,,,,,,,,,,
,,,,,,,,2023-08-16_08h44.28.370,HF_wild_card,2022.2.4,Win32,59.93048064,5ec3017eea63c51454d3c3dd,64d2fd46c836a06233681665,64dc7e385038957636d3ce37,,,,,,,sngl,resources/Empty.png,resources/DB.BMP,Door4,0.277258567,0.020249221,1,0,0,0.4647,optionRight,60,11360,5,41,0,41,0,1,,,,,,,,,,,,,,,,,,,,,,,,,,,,,,,,,,,,,,,
,,,,,,,,2023-08-16_08h44.28.370,HF_wild_card,2022.2.4,Win32,59.93048064,5ec3017eea63c51454d3c3dd,64d2fd46c836a06233681665,64dc7e385038957636d3ce37,,,,,,,sngl,resources/Empty.png,resources/DBN.BMP,Door2,0.353063344,0.054517134,1,0,0,0.5129,optionRight,20,11380,5,42,0,42,0,1,,,,,,,,,,,,,,,,,,,,,,,,,,,,,,,,,,,,,,,
,,,,,,,,2023-08-16_08h44.28.370,HF_wild_card,2022.2.4,Win32,59.93048064,5ec3017eea63c51454d3c3dd,64d2fd46c836a06233681665,64dc7e385038957636d3ce37,,,,,,,decisionTrl,resources/DP.BMP,resources/DBN.BMP,WildCard_Ex,-0.229491173,0.005711319,1,0,0,0.4612,optionLeft,45,11425,5,43,0,43,0,1,,,,,,,,,,,,,,,,,,,,,,,,,,,,,,,,,,,,,,,
,,,,,,,,2023-08-16_08h44.28.370,HF_wild_card,2022.2.4,Win32,59.93048064,5ec3017eea63c51454d3c3dd,64d2fd46c836a06233681665,64dc7e385038957636d3ce37,,,,,,,,,,,,,,,,,,,,,,,,,,4,0,4,0,1,,,,,,,,,,,,,,,,,,,,,,,,,,,,,,,,,,
,,,,,,,,2023-08-16_08h44.28.370,HF_wild_card,2022.2.4,Win32,59.93048064,5ec3017eea63c51454d3c3dd,64d2fd46c836a06233681665,64dc7e385038957636d3ce37,,,,,,,sngl,resources/Empty.png,resources/DY.BMP,Door1,0.439252336,-0.015057113,1,0,0,0.7065,optionRight,30,11455,6,0,0,0,0,1,,,,,,,,,,,,,,,,,,,,,,,,,,,,,,,,,,,,,,,
,,,,,,,,2023-08-16_08h44.28.370,HF_wild_card,2022.2.4,Win32,59.93048064,5ec3017eea63c51454d3c3dd,64d2fd46c836a06233681665,64dc7e385038957636d3ce37,,,,,,,ctch,resources/DG.BMP,resources/DBN.BMP,Door3,-0.379023884,-0.03894081,1,0,0,0.8141,optionLeft,70,11525,6,1,0,1,0,1,,,,,,,,,,,,,,,,,,,,,,,,,,,,,,,,,,,,,,,
,,,,,,,,2023-08-16_08h44.28.370,HF_wild_card,2022.2.4,Win32,59.93048064,5ec3017eea63c51454d3c3dd,64d2fd46c836a06233681665,64dc7e385038957636d3ce37,,,,,,,decisionTrl,resources/DB.BMP,resources/DG.BMP,Door4,-0.408099688,-0.037902388,1,0,0,0.6411,optionLeft,60,11585,6,2,0,2,0,1,,,,,,,,,,,,,,,,,,,,,,,,,,,,,,,,,,,,,,,
,,,,,,,,2023-08-16_08h44.28.370,HF_wild_card,2022.2.4,Win32,59.93048064,5ec3017eea63c51454d3c3dd,64d2fd46c836a06233681665,64dc7e385038957636d3ce37,,,,,,,sngl,resources/DG.BMP,resources/Empty.png,Door3,-0.257528557,0.022326064,1,0,0,0.4147,optionLeft,70,11655,6,3,0,3,0,1,,,,,,,,,,,,,,,,,,,,,,,,,,,,,,,,,,,,,,,
,,,,,,,,2023-08-16_08h44.28.370,HF_wild_card,2022.2.4,Win32,59.93048064,5ec3017eea63c51454d3c3dd,64d2fd46c836a06233681665,64dc7e385038957636d3ce37,,,,,,,ctch,resources/DBN.BMP,resources/DG.BMP,Door3,0.320872274,-0.002596054,1,0,0,0.646,optionRight,70,11725,6,4,0,4,0,1,,,,,,,,,,,,,,,,,,,,,,,,,,,,,,,,,,,,,,,
,,,,,,,,2023-08-16_08h44.28.370,HF_wild_card,2022.2.4,Win32,59.93048064,5ec3017eea63c51454d3c3dd,64d2fd46c836a06233681665,64dc7e385038957636d3ce37,,,,,,,decisionTrl,resources/DB.BMP,resources/DG.BMP,Door4,-0.277258567,-0.000519211,1,0,0,0.5956,optionLeft,60,11785,6,5,0,5,0,1,,,,,,,,,,,,,,,,,,,,,,,,,,,,,,,,,,,,,,,
,,,,,,,,2023-08-16_08h44.28.370,HF_wild_card,2022.2.4,Win32,59.93048064,5ec3017eea63c51454d3c3dd,64d2fd46c836a06233681665,64dc7e385038957636d3ce37,,,,,,,sngl,resources/DBN.BMP,resources/Empty.png,Door2,-0.298026999,0.072170301,1,0,0,0.5675,optionLeft,20,11805,6,6,0,6,0,1,,,,,,,,,,,,,,,,,,,,,,,,,,,,,,,,,,,,,,,
,,,,,,,,2023-08-16_08h44.28.370,HF_wild_card,2022.2.4,Win32,59.93048064,5ec3017eea63c51454d3c3dd,64d2fd46c836a06233681665,64dc7e385038957636d3ce37,,,,,,,sngl,resources/DP.BMP,resources/Empty.png,WildCard_Ex,-0.237798546,0.024402908,1,0,0,0.4646,optionLeft,55,11860,6,7,0,7,0,1,,,,,,,,,,,,,,,,,,,,,,,,,,,,,,,,,,,,,,,
,,,,,,,,2023-08-16_08h44.28.370,HF_wild_card,2022.2.4,Win32,59.93048064,5ec3017eea63c51454d3c3dd,64d2fd46c836a06233681665,64dc7e385038957636d3ce37,,,,,,,decisionTrl,resources/DB.BMP,resources/DG.BMP,Door4,-0.263759086,0.004672897,1,0,0,0.5651,optionLeft,80,11940,6,8,0,8,0,1,,,,,,,,,,,,,,,,,,,,,,,,,,,,,,,,,,,,,,,
,,,,,,,,2023-08-16_08h44.28.370,HF_wild_card,2022.2.4,Win32,59.93048064,5ec3017eea63c51454d3c3dd,64d2fd46c836a06233681665,64dc7e385038957636d3ce37,,,,,,,decisionTrl,resources/DP.BMP,resources/DB.BMP,Door4,0.308411215,0.011941848,1,0,0,0.6623,optionRight,80,12020,6,9,0,9,0,1,,,,,,,,,,,,,,,,,,,,,,,,,,,,,,,,,,,,,,,
,,,,,,,,2023-08-16_08h44.28.370,HF_wild_card,2022.2.4,Win32,59.93048064,5ec3017eea63c51454d3c3dd,64d2fd46c836a06233681665,64dc7e385038957636d3ce37,,,,,,,decisionTrl,resources/DBN.BMP,resources/DY.BMP,Door1,0.252336449,-0.003634476,1,0,0,1.2769,optionRight,30,12050,6,10,0,10,0,1,,,,,,,,,,,,,,,,,,,,,,,,,,,,,,,,,,,,,,,
,,,,,,,,2023-08-16_08h44.28.370,HF_wild_card,2022.2.4,Win32,59.93048064,5ec3017eea63c51454d3c3dd,64d2fd46c836a06233681665,64dc7e385038957636d3ce37,,,,,,,ctch,resources/DB.BMP,resources/DY.BMP,Door4,-0.234683281,0.043094496,1,0,0,0.6136,optionLeft,80,12130,6,11,0,11,0,1,,,,,,,,,,,,,,,,,,,,,,,,,,,,,,,,,,,,,,,
,,,,,,,,2023-08-16_08h44.28.370,HF_wild_card,2022.2.4,Win32,59.93048064,5ec3017eea63c51454d3c3dd,64d2fd46c836a06233681665,64dc7e385038957636d3ce37,,,,,,,decisionTrl,resources/DG.BMP,resources/DB.BMP,Door4,0.284527518,0.005711319,1,0,0,0.681,optionRight,60,12190,6,12,0,12,0,1,,,,,,,,,,,,,,,,,,,,,,,,,,,,,,,,,,,,,,,
,,,,,,,,2023-08-16_08h44.28.370,HF_wild_card,2022.2.4,Win32,59.93048064,5ec3017eea63c51454d3c3dd,64d2fd46c836a06233681665,64dc7e385038957636d3ce37,,,,,,,decisionTrl,resources/DP.BMP,resources/DBN.BMP,WildCard_Ex,-0.185877466,0.041017653,1,0,0,0.8294,optionLeft,45,12235,6,13,0,13,0,1,,,,,,,,,,,,,,,,,,,,,,,,,,,,,,,,,,,,,,,
,,,,,,,,2023-08-16_08h44.28.370,HF_wild_card,2022.2.4,Win32,59.93048064,5ec3017eea63c51454d3c3dd,64d2fd46c836a06233681665,64dc7e385038957636d3ce37,,,,,,,decisionTrl,resources/DY.BMP,resources/DBN.BMP,Door1,-0.41536864,0.036863967,1,0,0,0.8478,optionLeft,30,12265,6,14,0,14,0,1,,,,,,,,,,,,,,,,,,,,,,,,,,,,,,,,,,,,,,,
,,,,,,,,2023-08-16_08h44.28.370,HF_wild_card,2022.2.4,Win32,59.93048064,5ec3017eea63c51454d3c3dd,64d2fd46c836a06233681665,64dc7e385038957636d3ce37,,,,,,,decisionTrl,resources/DB.BMP,resources/DP.BMP,Door4,-0.249221184,0.003634476,1,0,0,0.6644,optionLeft,80,12345,6,15,0,15,0,1,,,,,,,,,,,,,,,,,,,,,,,,,,,,,,,,,,,,,,,
,,,,,,,,2023-08-16_08h44.28.370,HF_wild_card,2022.2.4,Win32,59.93048064,5ec3017eea63c51454d3c3dd,64d2fd46c836a06233681665,64dc7e385038957636d3ce37,,,,,,,ctch,resources/DB.BMP,resources/DY.BMP,Door4,-0.215991693,-0.009865005,1,0,0,0.5289,optionLeft,60,12405,6,16,0,16,0,1,,,,,,,,,,,,,,,,,,,,,,,,,,,,,,,,,,,,,,,
,,,,,,,,2023-08-16_08h44.28.370,HF_wild_card,2022.2.4,Win32,59.93048064,5ec3017eea63c51454d3c3dd,64d2fd46c836a06233681665,64dc7e385038957636d3ce37,,,,,,,decisionTrl,resources/DG.BMP,resources/DP.BMP,Door3,-0.385254413,-0.003634476,1,0,0,0.8084,optionLeft,70,12475,6,17,0,17,0,1,,,,,,,,,,,,,,,,,,,,,,,,,,,,,,,,,,,,,,,
,,,,,,,,2023-08-16_08h44.28.370,HF_wild_card,2022.2.4,Win32,59.93048064,5ec3017eea63c51454d3c3dd,64d2fd46c836a06233681665,64dc7e385038957636d3ce37,,,,,,,decisionTrl,resources/DG.BMP,resources/DB.BMP,Door3,-0.328141225,-0.005711319,1,0,0,0.4955,optionLeft,70,12545,6,18,0,18,0,1,,,,,,,,,,,,,,,,,,,,,,,,,,,,,,,,,,,,,,,
,,,,,,,,2023-08-16_08h44.28.370,HF_wild_card,2022.2.4,Win32,59.93048064,5ec3017eea63c51454d3c3dd,64d2fd46c836a06233681665,64dc7e385038957636d3ce37,,,,,,,sngl,resources/Empty.png,resources/DG.BMP,Door3,0.418483904,-0.007788162,1,0,0,0.446,optionRight,70,12615,6,19,0,19,0,1,,,,,,,,,,,,,,,,,,,,,,,,,,,,,,,,,,,,,,,
,,,,,,,,2023-08-16_08h44.28.370,HF_wild_card,2022.2.4,Win32,59.93048064,5ec3017eea63c51454d3c3dd,64d2fd46c836a06233681665,64dc7e385038957636d3ce37,,,,,,,decisionTrl,resources/DP.BMP,resources/DG.BMP,Door3,0.419522326,-0.00674974,1,0,0,0.5452,optionRight,70,12685,6,20,0,20,0,1,,,,,,,,,,,,,,,,,,,,,,,,,,,,,,,,,,,,,,,
,,,,,,,,2023-08-16_08h44.28.370,HF_wild_card,2022.2.4,Win32,59.93048064,5ec3017eea63c51454d3c3dd,64d2fd46c836a06233681665,64dc7e385038957636d3ce37,,,,,,,ctch,resources/DBN.BMP,resources/DG.BMP,Door3,0.340602285,-0.007788162,1,0,0,0.4806,optionRight,70,12755,6,21,0,21,0,1,,,,,,,,,,,,,,,,,,,,,,,,,,,,,,,,,,,,,,,
,,,,,,,,2023-08-16_08h44.28.370,HF_wild_card,2022.2.4,Win32,59.93048064,5ec3017eea63c51454d3c3dd,64d2fd46c836a06233681665,64dc7e385038957636d3ce37,,,,,,,decisionTrl,resources/DG.BMP,resources/DB.BMP,Door3,-0.397715472,-0.007788162,1,0,0,0.496,optionLeft,70,12825,6,22,0,22,0,1,,,,,,,,,,,,,,,,,,,,,,,,,,,,,,,,,,,,,,,
,,,,,,,,2023-08-16_08h44.28.370,HF_wild_card,2022.2.4,Win32,59.93048064,5ec3017eea63c51454d3c3dd,64d2fd46c836a06233681665,64dc7e385038957636d3ce37,,,,,,,decisionTrl,resources/DBN.BMP,resources/DP.BMP,Door2,-0.400830737,-0.007788162,1,0,0,0.8142,optionLeft,40,12865,6,23,0,23,0,1,,,,,,,,,,,,,,,,,,,,,,,,,,,,,,,,,,,,,,,
,,,,,,,,2023-08-16_08h44.28.370,HF_wild_card,2022.2.4,Win32,59.93048064,5ec3017eea63c51454d3c3dd,64d2fd46c836a06233681665,64dc7e385038957636d3ce37,,,,,,,ctch,resources/DG.BMP,resources/DBN.BMP,Door3,-0.364485981,-0.007788162,1,0,0,0.698,optionLeft,70,12935,6,24,0,24,0,1,,,,,,,,,,,,,,,,,,,,,,,,,,,,,,,,,,,,,,,
,,,,,,,,2023-08-16_08h44.28.370,HF_wild_card,2022.2.4,Win32,59.93048064,5ec3017eea63c51454d3c3dd,64d2fd46c836a06233681665,64dc7e385038957636d3ce37,,,,,,,sngl,resources/Empty.png,resources/DBN.BMP,Door2,0.482866044,0.009865005,1,0,0,0.5133,optionRight,40,12975,6,25,0,25,0,1,,,,,,,,,,,,,,,,,,,,,,,,,,,,,,,,,,,,,,,
,,,,,,,,2023-08-16_08h44.28.370,HF_wild_card,2022.2.4,Win32,59.93048064,5ec3017eea63c51454d3c3dd,64d2fd46c836a06233681665,64dc7e385038957636d3ce37,,,,,,,sngl,resources/Empty.png,resources/DP.BMP,WildCard_Ex,0.394600208,0.007788162,1,0,0,0.4806,optionRight,55,13030,6,26,0,26,0,1,,,,,,,,,,,,,,,,,,,,,,,,,,,,,,,,,,,,,,,
,,,,,,,,2023-08-16_08h44.28.370,HF_wild_card,2022.2.4,Win32,59.93048064,5ec3017eea63c51454d3c3dd,64d2fd46c836a06233681665,64dc7e385038957636d3ce37,,,,,,,sngl,resources/Empty.png,resources/DB.BMP,Door4,0.423676012,0.018172378,1,0,0,0.4615,optionRight,80,13110,6,27,0,27,0,1,,,,,,,,,,,,,,,,,,,,,,,,,,,,,,,,,,,,,,,
,,,,,,,,2023-08-16_08h44.28.370,HF_wild_card,2022.2.4,Win32,59.93048064,5ec3017eea63c51454d3c3dd,64d2fd46c836a06233681665,64dc7e385038957636d3ce37,,,,,,,decisionTrl,resources/DBN.BMP,resources/DY.BMP,Door1,0.464174455,0.001557632,1,0,0,1.431,optionRight,30,13140,6,28,0,28,0,1,,,,,,,,,,,,,,,,,,,,,,,,,,,,,,,,,,,,,,,
,,,,,,,,2023-08-16_08h44.28.370,HF_wild_card,2022.2.4,Win32,59.93048064,5ec3017eea63c51454d3c3dd,64d2fd46c836a06233681665,64dc7e385038957636d3ce37,,,,,,,sngl,resources/DY.BMP,resources/Empty.png,Door1,-0.41536864,-0.021287643,1,0,0,0.4959,optionLeft,30,13170,6,29,0,29,0,1,,,,,,,,,,,,,,,,,,,,,,,,,,,,,,,,,,,,,,,
,,,,,,,,2023-08-16_08h44.28.370,HF_wild_card,2022.2.4,Win32,59.93048064,5ec3017eea63c51454d3c3dd,64d2fd46c836a06233681665,64dc7e385038957636d3ce37,,,,,,,ctch,resources/DY.BMP,resources/DB.BMP,Door4,0.40913811,-0.01298027,1,0,0,0.8782,optionRight,80,13250,6,30,0,30,0,1,,,,,,,,,,,,,,,,,,,,,,,,,,,,,,,,,,,,,,,
,,,,,,,,2023-08-16_08h44.28.370,HF_wild_card,2022.2.4,Win32,59.93048064,5ec3017eea63c51454d3c3dd,64d2fd46c836a06233681665,64dc7e385038957636d3ce37,,,,,,,decisionTrl,resources/DY.BMP,resources/DBN.BMP,Door1,-0.504672897,-0.009865005,1,0,0,1.2806,optionLeft,30,13280,6,31,0,31,0,1,,,,,,,,,,,,,,,,,,,,,,,,,,,,,,,,,,,,,,,
,,,,,,,,2023-08-16_08h44.28.370,HF_wild_card,2022.2.4,Win32,59.93048064,5ec3017eea63c51454d3c3dd,64d2fd46c836a06233681665,64dc7e385038957636d3ce37,,,,,,,ctch,resources/DY.BMP,resources/DB.BMP,Door4,0.40913811,0.004672897,1,0,0,0.6468,optionRight,60,13340,6,32,0,32,0,1,,,,,,,,,,,,,,,,,,,,,,,,,,,,,,,,,,,,,,,
,,,,,,,,2023-08-16_08h44.28.370,HF_wild_card,2022.2.4,Win32,59.93048064,5ec3017eea63c51454d3c3dd,64d2fd46c836a06233681665,64dc7e385038957636d3ce37,,,,,,,sngl,resources/Empty.png,resources/DP.BMP,WildCard_Ex,0.312564901,-0.000519211,1,0,0,0.4784,optionRight,45,13385,6,33,0,33,0,1,,,,,,,,,,,,,,,,,,,,,,,,,,,,,,,,,,,,,,,
,,,,,,,,2023-08-16_08h44.28.370,HF_wild_card,2022.2.4,Win32,59.93048064,5ec3017eea63c51454d3c3dd,64d2fd46c836a06233681665,64dc7e385038957636d3ce37,,,,,,,decisionTrl,resources/DY.BMP,resources/DBN.BMP,Door2,0.348909657,0.052440291,1,0,0,1.0644,optionRight,40,13425,6,34,0,34,0,1,,,,,,,,,,,,,,,,,,,,,,,,,,,,,,,,,,,,,,,
,,,,,,,,2023-08-16_08h44.28.370,HF_wild_card,2022.2.4,Win32,59.93048064,5ec3017eea63c51454d3c3dd,64d2fd46c836a06233681665,64dc7e385038957636d3ce37,,,,,,,sngl,resources/DP.BMP,resources/Empty.png,WildCard_Ex,-0.276220145,-0.002596054,1,0,0,0.4953,optionLeft,45,13470,6,35,0,35,0,1,,,,,,,,,,,,,,,,,,,,,,,,,,,,,,,,,,,,,,,
,,,,,,,,2023-08-16_08h44.28.370,HF_wild_card,2022.2.4,Win32,59.93048064,5ec3017eea63c51454d3c3dd,64d2fd46c836a06233681665,64dc7e385038957636d3ce37,,,,,,,decisionTrl,resources/DBN.BMP,resources/DY.BMP,Door2,-0.326064382,0.009865005,1,0,0,1.3747,optionLeft,40,13510,6,36,0,36,0,1,,,,,,,,,,,,,,,,,,,,,,,,,,,,,,,,,,,,,,,
,,,,,,,,2023-08-16_08h44.28.370,HF_wild_card,2022.2.4,Win32,59.93048064,5ec3017eea63c51454d3c3dd,64d2fd46c836a06233681665,64dc7e385038957636d3ce37,,,,,,,decisionTrl,resources/DB.BMP,resources/DG.BMP,Door4,-0.302180685,0.018172378,1,0,0,0.7228,optionLeft,60,13570,6,37,0,37,0,1,,,,,,,,,,,,,,,,,,,,,,,,,,,,,,,,,,,,,,,
,,,,,,,,2023-08-16_08h44.28.370,HF_wild_card,2022.2.4,Win32,59.93048064,5ec3017eea63c51454d3c3dd,64d2fd46c836a06233681665,64dc7e385038957636d3ce37,,,,,,,decisionTrl,resources/DBN.BMP,resources/DY.BMP,Door1,0.134994808,0.023364486,1,0,0,1.6918,optionRight,30,13600,6,38,0,38,0,1,,,,,,,,,,,,,,,,,,,,,,,,,,,,,,,,,,,,,,,
,,,,,,,,2023-08-16_08h44.28.370,HF_wild_card,2022.2.4,Win32,59.93048064,5ec3017eea63c51454d3c3dd,64d2fd46c836a06233681665,64dc7e385038957636d3ce37,,,,,,,decisionTrl,resources/DY.BMP,resources/DBN.BMP,Door2,0.352024922,0.003634476,1,0,0,0.874,optionRight,40,13640,6,39,0,39,0,1,,,,,,,,,,,,,,,,,,,,,,,,,,,,,,,,,,,,,,,
,,,,,,,,2023-08-16_08h44.28.370,HF_wild_card,2022.2.4,Win32,59.93048064,5ec3017eea63c51454d3c3dd,64d2fd46c836a06233681665,64dc7e385038957636d3ce37,,,,,,,decisionTrl,resources/DP.BMP,resources/DY.BMP,WildCard_Ex,-0.291796469,-0.00674974,1,0,0,0.6278,optionLeft,45,13685,6,40,0,40,0,1,,,,,,,,,,,,,,,,,,,,,,,,,,,,,,,,,,,,,,,
,,,,,,,,2023-08-16_08h44.28.370,HF_wild_card,2022.2.4,Win32,59.93048064,5ec3017eea63c51454d3c3dd,64d2fd46c836a06233681665,64dc7e385038957636d3ce37,,,,,,,decisionTrl,resources/DY.BMP,resources/DP.BMP,WildCard_Ex,0.349948079,0.034787124,1,0,0,0.5413,optionRight,55,13740,6,41,0,41,0,1,,,,,,,,,,,,,,,,,,,,,,,,,,,,,,,,,,,,,,,
,,,,,,,,2023-08-16_08h44.28.370,HF_wild_card,2022.2.4,Win32,59.93048064,5ec3017eea63c51454d3c3dd,64d2fd46c836a06233681665,64dc7e385038957636d3ce37,,,,,,,decisionTrl,resources/DG.BMP,resources/DB.BMP,Door4,0.213914849,-0.028556594,1,0,0,1.0491,optionRight,60,13800,6,42,0,42,0,1,,,,,,,,,,,,,,,,,,,,,,,,,,,,,,,,,,,,,,,
,,,,,,,,2023-08-16_08h44.28.370,HF_wild_card,2022.2.4,Win32,59.93048064,5ec3017eea63c51454d3c3dd,64d2fd46c836a06233681665,64dc7e385038957636d3ce37,,,,,,,sngl,resources/DB.BMP,resources/Empty.png,Door4,-0.329179647,0.000519211,1,0,0,0.4782,optionLeft,60,13860,6,43,0,43,0,1,,,,,,,,,,,,,,,,,,,,,,,,,,,,,,,,,,,,,,,
,,,,,,,,2023-08-16_08h44.28.370,HF_wild_card,2022.2.4,Win32,59.93048064,5ec3017eea63c51454d3c3dd,64d2fd46c836a06233681665,64dc7e385038957636d3ce37,,,,,,,,,,,,,,,,,,,,,,,,,,5,0,5,0,1,,,,,,,,,,,,,,,,,,,,,,,,,,,,,,,,,,
,,,,,,,,2023-08-16_08h44.28.370,HF_wild_card,2022.2.4,Win32,59.93048064,5ec3017eea63c51454d3c3dd,64d2fd46c836a06233681665,64dc7e385038957636d3ce37,,,,,,,decisionTrl,resources/DBN.BMP,resources/DY.BMP,Door1,0.325025961,0.027518172,1,0,0,1.452,optionRight,30,13890,7,0,0,0,0,1,,,,,,,,,,,,,,,,,,,,,,,,,,,,,,,,,,,,,,,
,,,,,,,,2023-08-16_08h44.28.370,HF_wild_card,2022.2.4,Win32,59.93048064,5ec3017eea63c51454d3c3dd,64d2fd46c836a06233681665,64dc7e385038957636d3ce37,,,,,,,decisionTrl,resources/DG.BMP,resources/DB.BMP,Door4,0.290758048,-0.016095535,1,0,0,1.1142,optionRight,60,13950,7,1,0,1,0,1,,,,,,,,,,,,,,,,,,,,,,,,,,,,,,,,,,,,,,,
,,,,,,,,2023-08-16_08h44.28.370,HF_wild_card,2022.2.4,Win32,59.93048064,5ec3017eea63c51454d3c3dd,64d2fd46c836a06233681665,64dc7e385038957636d3ce37,,,,,,,decisionTrl,resources/DBN.BMP,resources/DY.BMP,Door2,-0.277258567,-0.009865005,1,0,0,2.7492,optionLeft,20,13970,7,2,0,2,0,1,,,,,,,,,,,,,,,,,,,,,,,,,,,,,,,,,,,,,,,
,,,,,,,,2023-08-16_08h44.28.370,HF_wild_card,2022.2.4,Win32,59.93048064,5ec3017eea63c51454d3c3dd,64d2fd46c836a06233681665,64dc7e385038957636d3ce37,,,,,,,decisionTrl,resources/DB.BMP,resources/DG.BMP,Door4,-0.392523364,0.001557632,1,0,0,0.9994,optionLeft,60,14030,7,3,0,3,0,1,,,,,,,,,,,,,,,,,,,,,,,,,,,,,,,,,,,,,,,
,,,,,,,,2023-08-16_08h44.28.370,HF_wild_card,2022.2.4,Win32,59.93048064,5ec3017eea63c51454d3c3dd,64d2fd46c836a06233681665,64dc7e385038957636d3ce37,,,,,,,decisionTrl,resources/DG.BMP,resources/DB.BMP,Door4,0.278296989,-0.001557632,1,0,0,0.6637,optionRight,60,14090,7,4,0,4,0,1,,,,,,,,,,,,,,,,,,,,,,,,,,,,,,,,,,,,,,,
,,,,,,,,2023-08-16_08h44.28.370,HF_wild_card,2022.2.4,Win32,59.93048064,5ec3017eea63c51454d3c3dd,64d2fd46c836a06233681665,64dc7e385038957636d3ce37,,,,,,,decisionTrl,resources/DY.BMP,resources/DBN.BMP,Door2,0.328141225,-0.002596054,1,0,0,1.0478,optionRight,20,14110,7,5,0,5,0,1,,,,,,,,,,,,,,,,,,,,,,,,,,,,,,,,,,,,,,,
,,,,,,,,2023-08-16_08h44.28.370,HF_wild_card,2022.2.4,Win32,59.93048064,5ec3017eea63c51454d3c3dd,64d2fd46c836a06233681665,64dc7e385038957636d3ce37,,,,,,,decisionTrl,resources/DB.BMP,resources/DG.BMP,Door4,-0.31152648,-0.010903427,1,0,0,0.6484,optionLeft,80,14190,7,6,0,6,0,1,,,,,,,,,,,,,,,,,,,,,,,,,,,,,,,,,,,,,,,
,,,,,,,,2023-08-16_08h44.28.370,HF_wild_card,2022.2.4,Win32,59.93048064,5ec3017eea63c51454d3c3dd,64d2fd46c836a06233681665,64dc7e385038957636d3ce37,,,,,,,ctch,resources/DG.BMP,resources/DBN.BMP,Door3,-0.248182762,-0.0192108,1,0,0,0.9314,optionLeft,70,14260,7,7,0,7,0,1,,,,,,,,,,,,,,,,,,,,,,,,,,,,,,,,,,,,,,,
,,,,,,,,2023-08-16_08h44.28.370,HF_wild_card,2022.2.4,Win32,59.93048064,5ec3017eea63c51454d3c3dd,64d2fd46c836a06233681665,64dc7e385038957636d3ce37,,,,,,,decisionTrl,resources/DB.BMP,resources/DG.BMP,Door4,-0.369678089,-0.015057113,1,0,0,0.7976,optionLeft,60,14320,7,8,0,8,0,1,,,,,,,,,,,,,,,,,,,,,,,,,,,,,,,,,,,,,,,
,,,,,,,,2023-08-16_08h44.28.370,HF_wild_card,2022.2.4,Win32,59.93048064,5ec3017eea63c51454d3c3dd,64d2fd46c836a06233681665,64dc7e385038957636d3ce37,,,,,,,decisionTrl,resources/DG.BMP,resources/DB.BMP,Door4,0.348909657,-0.011941848,1,0,0,0.5994,optionRight,80,14400,7,9,0,9,0,1,,,,,,,,,,,,,,,,,,,,,,,,,,,,,,,,,,,,,,,
,,,,,,,,2023-08-16_08h44.28.370,HF_wild_card,2022.2.4,Win32,59.93048064,5ec3017eea63c51454d3c3dd,64d2fd46c836a06233681665,64dc7e385038957636d3ce37,,,,,,,decisionTrl,resources/DBN.BMP,resources/DY.BMP,Door2,-0.286604361,-0.016095535,1,0,0,1.3151,optionLeft,20,14420,7,10,0,10,0,1,,,,,,,,,,,,,,,,,,,,,,,,,,,,,,,,,,,,,,,
,,,,,,,,2023-08-16_08h44.28.370,HF_wild_card,2022.2.4,Win32,59.93048064,5ec3017eea63c51454d3c3dd,64d2fd46c836a06233681665,64dc7e385038957636d3ce37,,,,,,,decisionTrl,resources/DB.BMP,resources/DG.BMP,Door4,-0.322949117,-0.00674974,1,0,0,0.6154,optionLeft,80,14500,7,11,0,11,0,1,,,,,,,,,,,,,,,,,,,,,,,,,,,,,,,,,,,,,,,
,,,,,,,,2023-08-16_08h44.28.370,HF_wild_card,2022.2.4,Win32,59.93048064,5ec3017eea63c51454d3c3dd,64d2fd46c836a06233681665,64dc7e385038957636d3ce37,,,,,,,decisionTrl,resources/DY.BMP,resources/DBN.BMP,Door2,0.446521288,-0.002596054,1,0,0,0.8817,optionRight,20,14520,7,12,0,12,0,1,,,,,,,,,,,,,,,,,,,,,,,,,,,,,,,,,,,,,,,
,,,,,,,,2023-08-16_08h44.28.370,HF_wild_card,2022.2.4,Win32,59.93048064,5ec3017eea63c51454d3c3dd,64d2fd46c836a06233681665,64dc7e385038957636d3ce37,,,,,,,ctch,resources/DY.BMP,resources/DB.BMP,Door4,0.249221184,-0.007788162,1,0,0,0.6983,optionRight,60,14580,7,13,0,13,0,1,,,,,,,,,,,,,,,,,,,,,,,,,,,,,,,,,,,,,,,
,,,,,,,,2023-08-16_08h44.28.370,HF_wild_card,2022.2.4,Win32,59.93048064,5ec3017eea63c51454d3c3dd,64d2fd46c836a06233681665,64dc7e385038957636d3ce37,,,,,,,decisionTrl,resources/DY.BMP,resources/DBN.BMP,Door2,0.326064382,0.008826584,1,0,0,1.0454,optionRight,40,14620,7,14,0,14,0,1,,,,,,,,,,,,,,,,,,,,,,,,,,,,,,,,,,,,,,,
,,,,,,,,2023-08-16_08h44.28.370,HF_wild_card,2022.2.4,Win32,59.93048064,5ec3017eea63c51454d3c3dd,64d2fd46c836a06233681665,64dc7e385038957636d3ce37,,,,,,,ctch,resources/DB.BMP,resources/DY.BMP,Door4,-0.284527518,0.011941848,1,0,0,0.6081,optionLeft,60,14680,7,15,0,15,0,1,,,,,,,,,,,,,,,,,,,,,,,,,,,,,,,,,,,,,,,
,,,,,,,,2023-08-16_08h44.28.370,HF_wild_card,2022.2.4,Win32,59.93048064,5ec3017eea63c51454d3c3dd,64d2fd46c836a06233681665,64dc7e385038957636d3ce37,,,,,,,ctch,resources/DBN.BMP,resources/DG.BMP,Door3,0.257528557,0.0192108,1,0,0,0.6651,optionRight,70,14750,7,16,0,16,0,1,,,,,,,,,,,,,,,,,,,,,,,,,,,,,,,,,,,,,,,
,,,,,,,,2023-08-16_08h44.28.370,HF_wild_card,2022.2.4,Win32,59.93048064,5ec3017eea63c51454d3c3dd,64d2fd46c836a06233681665,64dc7e385038957636d3ce37,,,,,,,decisionTrl,resources/DBN.BMP,resources/DY.BMP,Door2,-0.325025961,0.004672897,1,0,0,1.1491,optionLeft,40,14790,7,17,0,17,0,1,,,,,,,,,,,,,,,,,,,,,,,,,,,,,,,,,,,,,,,
,,,,,,,,2023-08-16_08h44.28.370,HF_wild_card,2022.2.4,Win32,59.93048064,5ec3017eea63c51454d3c3dd,64d2fd46c836a06233681665,64dc7e385038957636d3ce37,,,,,,,ctch,resources/DB.BMP,resources/DY.BMP,Door4,-0.250259605,-0.002596054,1,0,0,0.6084,optionLeft,60,14850,7,18,0,18,0,1,,,,,,,,,,,,,,,,,,,,,,,,,,,,,,,,,,,,,,,
,,,,,,,,2023-08-16_08h44.28.370,HF_wild_card,2022.2.4,Win32,59.93048064,5ec3017eea63c51454d3c3dd,64d2fd46c836a06233681665,64dc7e385038957636d3ce37,,,,,,,ctch,resources/DY.BMP,resources/DB.BMP,Door4,0.348909657,-0.016095535,1,0,0,0.6604,optionRight,80,14930,7,19,0,19,0,1,,,,,,,,,,,,,,,,,,,,,,,,,,,,,,,,,,,,,,,
,,,,,,,,2023-08-16_08h44.28.370,HF_wild_card,2022.2.4,Win32,59.93048064,5ec3017eea63c51454d3c3dd,64d2fd46c836a06233681665,64dc7e385038957636d3ce37,,,,,,,decisionTrl,resources/DG.BMP,resources/DB.BMP,Door3,-0.325025961,-0.003634476,1,0,0,0.7312,optionLeft,70,15000,7,20,0,20,0,1,,,,,,,,,,,,,,,,,,,,,,,,,,,,,,,,,,,,,,,
,,,,,,,,2023-08-16_08h44.28.370,HF_wild_card,2022.2.4,Win32,59.93048064,5ec3017eea63c51454d3c3dd,64d2fd46c836a06233681665,64dc7e385038957636d3ce37,,,,,,,decisionTrl,resources/DBN.BMP,resources/DY.BMP,Door2,-0.267912773,-0.003634476,1,0,0,0.8144,optionLeft,40,15040,7,21,0,21,0,1,,,,,,,,,,,,,,,,,,,,,,,,,,,,,,,,,,,,,,,
,,,,,,,,2023-08-16_08h44.28.370,HF_wild_card,2022.2.4,Win32,59.93048064,5ec3017eea63c51454d3c3dd,64d2fd46c836a06233681665,64dc7e385038957636d3ce37,,,,,,,ctch,resources/DG.BMP,resources/DBN.BMP,Door3,-0.281412253,-0.009865005,1,0,0,0.5973,optionLeft,70,15110,7,22,0,22,0,1,,,,,,,,,,,,,,,,,,,,,,,,,,,,,,,,,,,,,,,
,,,,,,,,2023-08-16_08h44.28.370,HF_wild_card,2022.2.4,Win32,59.93048064,5ec3017eea63c51454d3c3dd,64d2fd46c836a06233681665,64dc7e385038957636d3ce37,,,,,,,ctch,resources/DG.BMP,resources/DBN.BMP,Door3,-0.281412253,0.016095535,1,0,0,0.5479,optionLeft,70,15180,7,23,0,23,0,1,,,,,,,,,,,,,,,,,,,,,,,,,,,,,,,,,,,,,,,
,,,,,,,,2023-08-16_08h44.28.370,HF_wild_card,2022.2.4,Win32,59.93048064,5ec3017eea63c51454d3c3dd,64d2fd46c836a06233681665,64dc7e385038957636d3ce37,,,,,,,decisionTrl,resources/DY.BMP,resources/DBN.BMP,Door2,0.3894081,0.001557632,1,0,0,0.9092,optionRight,40,15220,7,24,0,24,0,1,,,,,,,,,,,,,,,,,,,,,,,,,,,,,,,,,,,,,,,
,,,,,,,,2023-08-16_08h44.28.370,HF_wild_card,2022.2.4,Win32,59.93048064,5ec3017eea63c51454d3c3dd,64d2fd46c836a06233681665,64dc7e385038957636d3ce37,,,,,,,ctch,resources/DY.BMP,resources/DB.BMP,Door4,0.288681205,-0.008826584,1,0,0,0.637,optionRight,60,15280,7,25,0,25,0,1,,,,,,,,,,,,,,,,,,,,,,,,,,,,,,,,,,,,,,,
,,,,,,,,2023-08-16_08h44.28.370,HF_wild_card,2022.2.4,Win32,59.93048064,5ec3017eea63c51454d3c3dd,64d2fd46c836a06233681665,64dc7e385038957636d3ce37,,,,,,,ctch,resources/DB.BMP,resources/DY.BMP,Door4,-0.277258567,-0.001557632,1,0,0,0.4798,optionLeft,60,15340,7,26,0,26,0,1,,,,,,,,,,,,,,,,,,,,,,,,,,,,,,,,,,,,,,,
,,,,,,,,2023-08-16_08h44.28.370,HF_wild_card,2022.2.4,Win32,59.93048064,5ec3017eea63c51454d3c3dd,64d2fd46c836a06233681665,64dc7e385038957636d3ce37,,,,,,,decisionTrl,resources/DG.BMP,resources/DB.BMP,Door4,0.346832814,0.005711319,1,0,0,1.0862,optionRight,80,15420,7,27,0,27,0,1,,,,,,,,,,,,,,,,,,,,,,,,,,,,,,,,,,,,,,,
,,,,,,,,2023-08-16_08h44.28.370,HF_wild_card,2022.2.4,Win32,59.93048064,5ec3017eea63c51454d3c3dd,64d2fd46c836a06233681665,64dc7e385038957636d3ce37,,,,,,,ctch,resources/DBN.BMP,resources/DG.BMP,Door3,0.452751817,0.028556594,1,0,0,0.7369,optionRight,70,15490,7,28,0,28,0,1,,,,,,,,,,,,,,,,,,,,,,,,,,,,,,,,,,,,,,,
,,,,,,,,2023-08-16_08h44.28.370,HF_wild_card,2022.2.4,Win32,59.93048064,5ec3017eea63c51454d3c3dd,64d2fd46c836a06233681665,64dc7e385038957636d3ce37,,,,,,,decisionTrl,resources/DBN.BMP,resources/DY.BMP,Door2,-0.293873313,-0.007788162,1,0,0,0.7763,optionLeft,40,15530,7,29,0,29,0,1,,,,,,,,,,,,,,,,,,,,,,,,,,,,,,,,,,,,,,,
,,,,,,,,2023-08-16_08h44.28.370,HF_wild_card,2022.2.4,Win32,59.93048064,5ec3017eea63c51454d3c3dd,64d2fd46c836a06233681665,64dc7e385038957636d3ce37,,,,,,,decisionTrl,resources/DG.BMP,resources/DB.BMP,Door3,-0.315680166,0.020249221,1,0,0,0.6796,optionLeft,70,15600,7,30,0,30,0,1,,,,,,,,,,,,,,,,,,,,,,,,,,,,,,,,,,,,,,,
,,,,,,,,2023-08-16_08h44.28.370,HF_wild_card,2022.2.4,Win32,59.93048064,5ec3017eea63c51454d3c3dd,64d2fd46c836a06233681665,64dc7e385038957636d3ce37,,,,,,,decisionTrl,resources/DY.BMP,resources/DBN.BMP,Door2,0.222222222,-0.004672897,1,0,0,1.1813,optionRight,40,15640,7,31,0,31,0,1,,,,,,,,,,,,,,,,,,,,,,,,,,,,,,,,,,,,,,,
,,,,,,,,2023-08-16_08h44.28.370,HF_wild_card,2022.2.4,Win32,59.93048064,5ec3017eea63c51454d3c3dd,64d2fd46c836a06233681665,64dc7e385038957636d3ce37,,,,,,,decisionTrl,resources/DB.BMP,resources/DG.BMP,Door4,-0.277258567,-0.014018692,1,0,0,0.6126,optionLeft,60,15700,7,32,0,32,0,1,,,,,,,,,,,,,,,,,,,,,,,,,,,,,,,,,,,,,,,
,,,,,,,,2023-08-16_08h44.28.370,HF_wild_card,2022.2.4,Win32,59.93048064,5ec3017eea63c51454d3c3dd,64d2fd46c836a06233681665,64dc7e385038957636d3ce37,,,,,,,ctch,resources/DBN.BMP,resources/DG.BMP,Door3,0.287642783,0.007788162,1,0,0,0.6299,optionRight,70,15770,7,33,0,33,0,1,,,,,,,,,,,,,,,,,,,,,,,,,,,,,,,,,,,,,,,
,,,,,,,,2023-08-16_08h44.28.370,HF_wild_card,2022.2.4,Win32,59.93048064,5ec3017eea63c51454d3c3dd,64d2fd46c836a06233681665,64dc7e385038957636d3ce37,,,,,,,decisionTrl,resources/DB.BMP,resources/DG.BMP,Door4,-0.193146417,-0.003634476,1,0,0,0.638,optionLeft,80,15850,7,34,0,34,0,1,,,,,,,,,,,,,,,,,,,,,,,,,,,,,,,,,,,,,,,
,,,,,,,,2023-08-16_08h44.28.370,HF_wild_card,2022.2.4,Win32,59.93048064,5ec3017eea63c51454d3c3dd,64d2fd46c836a06233681665,64dc7e385038957636d3ce37,,,,,,,decisionTrl,resources/DY.BMP,resources/DBN.BMP,Door1,-0.335410177,-0.005711319,1,0,0,0.5485,optionLeft,30,15880,7,35,0,35,0,1,,,,,,,,,,,,,,,,,,,,,,,,,,,,,,,,,,,,,,,
,,,,,,,,2023-08-16_08h44.28.370,HF_wild_card,2022.2.4,Win32,59.93048064,5ec3017eea63c51454d3c3dd,64d2fd46c836a06233681665,64dc7e385038957636d3ce37,,,,,,,,,,,,,,,,,,,,,,,,,,6,0,6,0,1,,,,,,,,,,,,,,,,,,,,,,,,,,,,,,,,,,
,,,,,,,,2023-08-16_08h44.28.370,HF_wild_card,2022.2.4,Win32,59.93048064,5ec3017eea63c51454d3c3dd,64d2fd46c836a06233681665,64dc7e385038957636d3ce37,,,,,,,,,,,,,,,,,,,,,,,,,,,,,,,3,,,,,,,,,,,,,,,,,,,,,,,,,,,,,,,,,
,,,,,,,,2023-08-16_08h44.28.370,HF_wild_card,2022.2.4,Win32,59.93048064,5ec3017eea63c51454d3c3dd,64d2fd46c836a06233681665,64dc7e385038957636d3ce37,,,,,,,,,,,,,,,,,,,,,,,,,,,,,,,,,,,,,,,,,,,,,,,,,,,,,,,,,,,,,,,,
,,,,,,,,2023-08-16_08h44.28.370,HF_wild_card,2022.2.4,Win32,59.93048064,5ec3017eea63c51454d3c3dd,64d2fd46c836a06233681665,64dc7e385038957636d3ce37,,,,,,,,,,,,,,,,,,,,,,,,,,,,,,,,80,Door4,resources/DB.BMP,0,0,0,0,1,,,,,,,,,,,,,,,,,,,,,,,,,
,,,,,,,,2023-08-16_08h44.28.370,HF_wild_card,2022.2.4,Win32,59.93048064,5ec3017eea63c51454d3c3dd,64d2fd46c836a06233681665,64dc7e385038957636d3ce37,,,,,,,,,,,,,,,,,,,,,,,,,,,,,,,,40,Door1,resources/DY.BMP,1,0,1,0,1,,,,,,,,,,,,,,,,,,,,,,,,,
,,,,,,,,2023-08-16_08h44.28.370,HF_wild_card,2022.2.4,Win32,59.93048064,5ec3017eea63c51454d3c3dd,64d2fd46c836a06233681665,64dc7e385038957636d3ce37,,,,,,,,,,,,,,,,,,,,,,,,,,,,,,,,70,Door3,resources/DG.BMP,2,0,2,0,1,,,,,,,,,,,,,,,,,,,,,,,,,
,,,,,,,,2023-08-16_08h44.28.370,HF_wild_card,2022.2.4,Win32,59.93048064,5ec3017eea63c51454d3c3dd,64d2fd46c836a06233681665,64dc7e385038957636d3ce37,,,,,,,,,,,,,,,,,,,,,,,,,,,,,,,,30,Door2,resources/DBN.BMP,3,0,3,0,1,,,,,,,,,,,,,,,,,,,,,,,,,
,,,,,,,,2023-08-16_08h44.28.370,HF_wild_card,2022.2.4,Win32,59.93048064,5ec3017eea63c51454d3c3dd,64d2fd46c836a06233681665,64dc7e385038957636d3ce37,,,,,,,,,,,,,,,,,,,,,,,,,,,,,,,,55,WC_extreme,resources/DP.BMP,4,0,4,0,1,,,,,,,,,,,,,,,,,,,,,,,,,
,,,,,,,,2023-08-16_08h44.28.370,HF_wild_card,2022.2.4,Win32,59.93048064,5ec3017eea63c51454d3c3dd,64d2fd46c836a06233681665,64dc7e385038957636d3ce37,,,,,,,,,,,,,,,,,,,,,,,,,,,,,,,,45,WC_nonExtreme,resources/DR.BMP,5,0,5,0,1,,,,,,,,,,,,,,,,,,,,,,,,,
,,,,,,,,2023-08-16_08h44.28.370,HF_wild_card,2022.2.4,Win32,59.93048064,5ec3017eea63c51454d3c3dd,64d2fd46c836a06233681665,64dc7e385038957636d3ce37,,,,,,,,,,,,,,,,,,,,,,,,,,,,,,,,,,,,,,,,,,,,,,,,,,,,,,,,,,,,,,,,
