Condition,Low fixed image (Door1),Low risky image (Door2),High fixed image (Door3),High risky image (Door4),Extreme Wild Card,NonExtreme Wild Card,,date,expName,psychopyVersion,OS,frameRate,PROLIFIC_PID,STUDY_ID,SESSION_ID,mouse_2.x,mouse_2.y,mouse_2.leftButton,mouse_2.midButton,mouse_2.rightButton,mouse_2.clicked_name,Trial Type,Left Option Image,Right Option Image,Chosen Door,mouse.x,mouse.y,mouse.leftButton,mouse.midButton,mouse.rightButton,mouse.time,mouse.clicked_name,Feedback,Cumulative Reward,Block,trial.thisRepN,trial.thisTrialN,trial.thisN,trial.thisIndex,trial.ran,blocks.thisRepN,blocks.thisTrialN,blocks.thisN,blocks.thisIndex,blocks.ran,Money conversion,First Outcome Reported,Shown Door (First Outcome),Displayed Image (First Outcome),outcomes.thisRepN,outcomes.thisTrialN,outcomes.thisN,outcomes.thisIndex,outcomes.ran,judgments.thisRepN,judgments.thisTrialN,judgments.thisN,judgments.thisIndex,judgments.ran,freqMouse.x,freqMouse.y,freqMouse.leftButton,freqMouse.midButton,freqMouse.rightButton,freqMouse.clicked_name,FQJ for first outcome,FQJ for second outcome,Shown Door,Displayed Image,trials.thisRepN,trials.thisTrialN,trials.thisN,trials.thisIndex,trials.ran,judgBlock.thisRepN,judgBlock.thisTrialN,judgBlock.thisN,judgBlock.thisIndex,judgBlock.ran
1,resources/DBN.BMP,resources/DP.BMP,resources/DB.BMP,resources/DR.BMP,resources/DG.BMP,resources/DY.BMP,,2023-08-06_08h29.46.557,HF_wild_card,2022.2.4,Win32,59.89099838,5c42c4b05aca820001f71477,64ce5acb97489d65b14ecc7a,64cf4bc36fe1d4873d81d9ca,,,,,,,,,,,,,,,,,,,,,,,,,,,,,,,,,,,,,,,,,,,,,,,,,,,,,,,,,,,,,,,,
,,,,,,,,2023-08-06_08h29.46.557,HF_wild_card,2022.2.4,Win32,59.89099838,5c42c4b05aca820001f71477,64ce5acb97489d65b14ecc7a,64cf4bc36fe1d4873d81d9ca,-0.008333333,-0.411111111,1,0,0,agree,,,,,,,,,,,,,,,,,,,,,,,,,,,,,,,,,,,,,,,,,,,,,,,,,,,,,,,,,,
,,,,,,,,2023-08-06_08h29.46.557,HF_wild_card,2022.2.4,Win32,59.89099838,5c42c4b05aca820001f71477,64ce5acb97489d65b14ecc7a,64cf4bc36fe1d4873d81d9ca,,,,,,,,,,,,,,,,,,,,,,,,,,,,,,,,,,,,,,,,,,,,,,,,,,,,,,,,,,,,,,,,
,,,,,,,,2023-08-06_08h29.46.557,HF_wild_card,2022.2.4,Win32,59.89099838,5c42c4b05aca820001f71477,64ce5acb97489d65b14ecc7a,64cf4bc36fe1d4873d81d9ca,,,,,,,decisionTrl,resources/DR.BMP,resources/DB.BMP,Door3,0.355555556,-0.116666667,1,0,0,5.3988,optionRight,70,70,1,0,0,0,0,1,,,,,,,,,,,,,,,,,,,,,,,,,,,,,,,,,,,,,,,
,,,,,,,,2023-08-06_08h29.46.557,HF_wild_card,2022.2.4,Win32,59.89099838,5c42c4b05aca820001f71477,64ce5acb97489d65b14ecc7a,64cf4bc36fe1d4873d81d9ca,,,,,,,decisionTrl,resources/DP.BMP,resources/DY.BMP,Door2,-0.305555556,-0.129629644,1,0,0,1.9773,optionLeft,20,90,1,1,0,1,0,1,,,,,,,,,,,,,,,,,,,,,,,,,,,,,,,,,,,,,,,
,,,,,,,,2023-08-06_08h29.46.557,HF_wild_card,2022.2.4,Win32,59.89099838,5c42c4b05aca820001f71477,64ce5acb97489d65b14ecc7a,64cf4bc36fe1d4873d81d9ca,,,,,,,sngl,resources/DP.BMP,resources/Empty.png,Door2,-0.322222222,-0.04629631,1,0,0,10.0486,optionLeft,40,130,1,2,0,2,0,1,,,,,,,,,,,,,,,,,,,,,,,,,,,,,,,,,,,,,,,
,,,,,,,,2023-08-06_08h29.46.557,HF_wild_card,2022.2.4,Win32,59.89099838,5c42c4b05aca820001f71477,64ce5acb97489d65b14ecc7a,64cf4bc36fe1d4873d81d9ca,,,,,,,decisionTrl,resources/DY.BMP,resources/DBN.BMP,Door1,0.313888889,0.005555556,1,0,0,1.9597,optionRight,30,160,1,3,0,3,0,1,,,,,,,,,,,,,,,,,,,,,,,,,,,,,,,,,,,,,,,
,,,,,,,,2023-08-06_08h29.46.557,HF_wild_card,2022.2.4,Win32,59.89099838,5c42c4b05aca820001f71477,64ce5acb97489d65b14ecc7a,64cf4bc36fe1d4873d81d9ca,,,,,,,sngl,resources/Empty.png,resources/DP.BMP,Door2,0.434259288,-0.123148176,1,0,0,4.1069,optionRight,20,180,1,4,0,4,0,1,,,,,,,,,,,,,,,,,,,,,,,,,,,,,,,,,,,,,,,
,,,,,,,,2023-08-06_08h29.46.557,HF_wild_card,2022.2.4,Win32,59.89099838,5c42c4b05aca820001f71477,64ce5acb97489d65b14ecc7a,64cf4bc36fe1d4873d81d9ca,,,,,,,decisionTrl,resources/DP.BMP,resources/DBN.BMP,Door1,0.321296353,-0.010185199,1,0,0,2.6289,optionRight,30,210,1,5,0,5,0,1,,,,,,,,,,,,,,,,,,,,,,,,,,,,,,,,,,,,,,,
,,,,,,,,2023-08-06_08h29.46.557,HF_wild_card,2022.2.4,Win32,59.89099838,5c42c4b05aca820001f71477,64ce5acb97489d65b14ecc7a,64cf4bc36fe1d4873d81d9ca,,,,,,,decisionTrl,resources/DB.BMP,resources/DR.BMP,Door3,-0.426851824,-0.10648151,1,0,0,1.4138,optionLeft,70,280,1,6,0,6,0,1,,,,,,,,,,,,,,,,,,,,,,,,,,,,,,,,,,,,,,,
,,,,,,,,2023-08-06_08h29.46.557,HF_wild_card,2022.2.4,Win32,59.89099838,5c42c4b05aca820001f71477,64ce5acb97489d65b14ecc7a,64cf4bc36fe1d4873d81d9ca,,,,,,,sngl,resources/DR.BMP,resources/Empty.png,Door4,-0.352777778,-0.107407422,1,0,0,1.9023,optionLeft,80,360,1,7,0,7,0,1,,,,,,,,,,,,,,,,,,,,,,,,,,,,,,,,,,,,,,,
,,,,,,,,2023-08-06_08h29.46.557,HF_wild_card,2022.2.4,Win32,59.89099838,5c42c4b05aca820001f71477,64ce5acb97489d65b14ecc7a,64cf4bc36fe1d4873d81d9ca,,,,,,,decisionTrl,resources/DR.BMP,resources/DB.BMP,Door4,-0.332407379,-0.038888889,1,0,0,1.9099,optionLeft,60,420,1,8,0,8,0,1,,,,,,,,,,,,,,,,,,,,,,,,,,,,,,,,,,,,,,,
,,,,,,,,2023-08-06_08h29.46.557,HF_wild_card,2022.2.4,Win32,59.89099838,5c42c4b05aca820001f71477,64ce5acb97489d65b14ecc7a,64cf4bc36fe1d4873d81d9ca,,,,,,,decisionTrl,resources/DBN.BMP,resources/DP.BMP,Door1,-0.474074046,-0.114814843,1,0,0,3.2904,optionLeft,30,450,1,9,0,9,0,1,,,,,,,,,,,,,,,,,,,,,,,,,,,,,,,,,,,,,,,
,,,,,,,,2023-08-06_08h29.46.557,HF_wild_card,2022.2.4,Win32,59.89099838,5c42c4b05aca820001f71477,64ce5acb97489d65b14ecc7a,64cf4bc36fe1d4873d81d9ca,,,,,,,decisionTrl,resources/DR.BMP,resources/DB.BMP,Door3,0.298148176,-0.00648151,1,0,0,1.4063,optionRight,70,520,1,10,0,10,0,1,,,,,,,,,,,,,,,,,,,,,,,,,,,,,,,,,,,,,,,
,,,,,,,,2023-08-06_08h29.46.557,HF_wild_card,2022.2.4,Win32,59.89099838,5c42c4b05aca820001f71477,64ce5acb97489d65b14ecc7a,64cf4bc36fe1d4873d81d9ca,,,,,,,decisionTrl,resources/DY.BMP,resources/DP.BMP,WildCard_NonEx,-0.429629601,-0.10648151,1,0,0,1.6297,optionLeft,55,575,1,11,0,11,0,1,,,,,,,,,,,,,,,,,,,,,,,,,,,,,,,,,,,,,,,
,,,,,,,,2023-08-06_08h29.46.557,HF_wild_card,2022.2.4,Win32,59.89099838,5c42c4b05aca820001f71477,64ce5acb97489d65b14ecc7a,64cf4bc36fe1d4873d81d9ca,,,,,,,sngl,resources/Empty.png,resources/DR.BMP,Door4,0.297222222,-0.025925954,1,0,0,2.1499,optionRight,60,635,1,12,0,12,0,1,,,,,,,,,,,,,,,,,,,,,,,,,,,,,,,,,,,,,,,
,,,,,,,,2023-08-06_08h29.46.557,HF_wild_card,2022.2.4,Win32,59.89099838,5c42c4b05aca820001f71477,64ce5acb97489d65b14ecc7a,64cf4bc36fe1d4873d81d9ca,,,,,,,decisionTrl,resources/DB.BMP,resources/DR.BMP,Door3,-0.438888889,-0.008333333,1,0,0,1.7391,optionLeft,70,705,1,13,0,13,0,1,,,,,,,,,,,,,,,,,,,,,,,,,,,,,,,,,,,,,,,
,,,,,,,,2023-08-06_08h29.46.557,HF_wild_card,2022.2.4,Win32,59.89099838,5c42c4b05aca820001f71477,64ce5acb97489d65b14ecc7a,64cf4bc36fe1d4873d81d9ca,,,,,,,ctch,resources/DR.BMP,resources/DBN.BMP,Door4,-0.352777778,-0.074074088,1,0,0,2.1544,optionLeft,80,785,1,14,0,14,0,1,,,,,,,,,,,,,,,,,,,,,,,,,,,,,,,,,,,,,,,
,,,,,,,,2023-08-06_08h29.46.557,HF_wild_card,2022.2.4,Win32,59.89099838,5c42c4b05aca820001f71477,64ce5acb97489d65b14ecc7a,64cf4bc36fe1d4873d81d9ca,,,,,,,decisionTrl,resources/DBN.BMP,resources/DP.BMP,Door2,0.266666667,-0.058333333,1,0,0,2.0619,optionRight,40,825,1,15,0,15,0,1,,,,,,,,,,,,,,,,,,,,,,,,,,,,,,,,,,,,,,,
,,,,,,,,2023-08-06_08h29.46.557,HF_wild_card,2022.2.4,Win32,59.89099838,5c42c4b05aca820001f71477,64ce5acb97489d65b14ecc7a,64cf4bc36fe1d4873d81d9ca,,,,,,,decisionTrl,resources/DBN.BMP,resources/DY.BMP,WildCard_NonEx,0.422222222,-0.112037065,1,0,0,1.8519,optionRight,45,870,1,16,0,16,0,1,,,,,,,,,,,,,,,,,,,,,,,,,,,,,,,,,,,,,,,
,,,,,,,,2023-08-06_08h29.46.557,HF_wild_card,2022.2.4,Win32,59.89099838,5c42c4b05aca820001f71477,64ce5acb97489d65b14ecc7a,64cf4bc36fe1d4873d81d9ca,,,,,,,decisionTrl,resources/DB.BMP,resources/DR.BMP,Door3,-0.425925912,-0.026851866,1,0,0,1.9299,optionLeft,70,940,1,17,0,17,0,1,,,,,,,,,,,,,,,,,,,,,,,,,,,,,,,,,,,,,,,
,,,,,,,,2023-08-06_08h29.46.557,HF_wild_card,2022.2.4,Win32,59.89099838,5c42c4b05aca820001f71477,64ce5acb97489d65b14ecc7a,64cf4bc36fe1d4873d81d9ca,,,,,,,ctch,resources/DP.BMP,resources/DB.BMP,Door3,0.439814843,0.007407379,1,0,0,1.7023,optionRight,70,1010,1,18,0,18,0,1,,,,,,,,,,,,,,,,,,,,,,,,,,,,,,,,,,,,,,,
,,,,,,,,2023-08-06_08h29.46.557,HF_wild_card,2022.2.4,Win32,59.89099838,5c42c4b05aca820001f71477,64ce5acb97489d65b14ecc7a,64cf4bc36fe1d4873d81d9ca,,,,,,,decisionTrl,resources/DR.BMP,resources/DY.BMP,WildCard_NonEx,0.386111111,-0.002777778,1,0,0,1.4624,optionRight,45,1055,1,19,0,19,0,1,,,,,,,,,,,,,,,,,,,,,,,,,,,,,,,,,,,,,,,
,,,,,,,,2023-08-06_08h29.46.557,HF_wild_card,2022.2.4,Win32,59.89099838,5c42c4b05aca820001f71477,64ce5acb97489d65b14ecc7a,64cf4bc36fe1d4873d81d9ca,,,,,,,decisionTrl,resources/DR.BMP,resources/DB.BMP,Door3,0.278703732,-0.049074088,1,0,0,1.8947,optionRight,70,1125,1,20,0,20,0,1,,,,,,,,,,,,,,,,,,,,,,,,,,,,,,,,,,,,,,,
,,,,,,,,2023-08-06_08h29.46.557,HF_wild_card,2022.2.4,Win32,59.89099838,5c42c4b05aca820001f71477,64ce5acb97489d65b14ecc7a,64cf4bc36fe1d4873d81d9ca,,,,,,,decisionTrl,resources/DP.BMP,resources/DBN.BMP,Door2,-0.386111111,-0.079629644,1,0,0,1.8588,optionLeft,20,1145,1,21,0,21,0,1,,,,,,,,,,,,,,,,,,,,,,,,,,,,,,,,,,,,,,,
,,,,,,,,2023-08-06_08h29.46.557,HF_wild_card,2022.2.4,Win32,59.89099838,5c42c4b05aca820001f71477,64ce5acb97489d65b14ecc7a,64cf4bc36fe1d4873d81d9ca,,,,,,,decisionTrl,resources/DP.BMP,resources/DBN.BMP,Door1,0.483333333,0.009259245,1,0,0,1.1126,optionRight,30,1175,1,22,0,22,0,1,,,,,,,,,,,,,,,,,,,,,,,,,,,,,,,,,,,,,,,
,,,,,,,,2023-08-06_08h29.46.557,HF_wild_card,2022.2.4,Win32,59.89099838,5c42c4b05aca820001f71477,64ce5acb97489d65b14ecc7a,64cf4bc36fe1d4873d81d9ca,,,,,,,ctch,resources/DB.BMP,resources/DP.BMP,Door2,0.341666667,-0.073148176,1,0,0,2.1939,optionRight,20,1195,1,23,0,23,0,1,,,,,,,,,,,,,,,,,,,,,,,,,,,,,,,,,,,,,,,
,,,,,,,,2023-08-06_08h29.46.557,HF_wild_card,2022.2.4,Win32,59.89099838,5c42c4b05aca820001f71477,64ce5acb97489d65b14ecc7a,64cf4bc36fe1d4873d81d9ca,,,,,,,sngl,resources/Empty.png,resources/DY.BMP,WildCard_NonEx,0.450925954,0.006481467,1,0,0,1.2607,optionRight,55,1250,1,24,0,24,0,1,,,,,,,,,,,,,,,,,,,,,,,,,,,,,,,,,,,,,,,
,,,,,,,,2023-08-06_08h29.46.557,HF_wild_card,2022.2.4,Win32,59.89099838,5c42c4b05aca820001f71477,64ce5acb97489d65b14ecc7a,64cf4bc36fe1d4873d81d9ca,,,,,,,ctch,resources/DB.BMP,resources/DP.BMP,Door3,-0.390740712,-0.044444444,1,0,0,1.5208,optionLeft,70,1320,1,25,0,25,0,1,,,,,,,,,,,,,,,,,,,,,,,,,,,,,,,,,,,,,,,
,,,,,,,,2023-08-06_08h29.46.557,HF_wild_card,2022.2.4,Win32,59.89099838,5c42c4b05aca820001f71477,64ce5acb97489d65b14ecc7a,64cf4bc36fe1d4873d81d9ca,,,,,,,decisionTrl,resources/DY.BMP,resources/DR.BMP,WildCard_NonEx,-0.357407379,-0.112962977,1,0,0,2.5956,optionLeft,55,1375,1,26,0,26,0,1,,,,,,,,,,,,,,,,,,,,,,,,,,,,,,,,,,,,,,,
,,,,,,,,2023-08-06_08h29.46.557,HF_wild_card,2022.2.4,Win32,59.89099838,5c42c4b05aca820001f71477,64ce5acb97489d65b14ecc7a,64cf4bc36fe1d4873d81d9ca,,,,,,,decisionTrl,resources/DBN.BMP,resources/DP.BMP,Door1,-0.424074046,0.030555556,1,0,0,3.6843,optionLeft,30,1405,1,27,0,27,0,1,,,,,,,,,,,,,,,,,,,,,,,,,,,,,,,,,,,,,,,
,,,,,,,,2023-08-06_08h29.46.557,HF_wild_card,2022.2.4,Win32,59.89099838,5c42c4b05aca820001f71477,64ce5acb97489d65b14ecc7a,64cf4bc36fe1d4873d81d9ca,,,,,,,decisionTrl,resources/DP.BMP,resources/DBN.BMP,Door1,0.327777778,-0.065740755,1,0,0,2.2448,optionRight,30,1435,1,28,0,28,0,1,,,,,,,,,,,,,,,,,,,,,,,,,,,,,,,,,,,,,,,
,,,,,,,,2023-08-06_08h29.46.557,HF_wild_card,2022.2.4,Win32,59.89099838,5c42c4b05aca820001f71477,64ce5acb97489d65b14ecc7a,64cf4bc36fe1d4873d81d9ca,,,,,,,decisionTrl,resources/DB.BMP,resources/DR.BMP,Door3,-0.352777778,-0.088888889,1,0,0,2.3027,optionLeft,70,1505,1,29,0,29,0,1,,,,,,,,,,,,,,,,,,,,,,,,,,,,,,,,,,,,,,,
,,,,,,,,2023-08-06_08h29.46.557,HF_wild_card,2022.2.4,Win32,59.89099838,5c42c4b05aca820001f71477,64ce5acb97489d65b14ecc7a,64cf4bc36fe1d4873d81d9ca,,,,,,,sngl,resources/Empty.png,resources/DY.BMP,WildCard_NonEx,0.415740797,-0.032407422,1,0,0,1.4516,optionRight,45,1550,1,30,0,30,0,1,,,,,,,,,,,,,,,,,,,,,,,,,,,,,,,,,,,,,,,
,,,,,,,,2023-08-06_08h29.46.557,HF_wild_card,2022.2.4,Win32,59.89099838,5c42c4b05aca820001f71477,64ce5acb97489d65b14ecc7a,64cf4bc36fe1d4873d81d9ca,,,,,,,ctch,resources/DR.BMP,resources/DBN.BMP,Door4,-0.391666667,-0.087037065,1,0,0,1.4649,optionLeft,60,1610,1,31,0,31,0,1,,,,,,,,,,,,,,,,,,,,,,,,,,,,,,,,,,,,,,,
,,,,,,,,2023-08-06_08h29.46.557,HF_wild_card,2022.2.4,Win32,59.89099838,5c42c4b05aca820001f71477,64ce5acb97489d65b14ecc7a,64cf4bc36fe1d4873d81d9ca,,,,,,,decisionTrl,resources/DB.BMP,resources/DY.BMP,WildCard_NonEx,0.394444444,-0.014814843,1,0,0,2.1019,optionRight,55,1665,1,32,0,32,0,1,,,,,,,,,,,,,,,,,,,,,,,,,,,,,,,,,,,,,,,
,,,,,,,,2023-08-06_08h29.46.557,HF_wild_card,2022.2.4,Win32,59.89099838,5c42c4b05aca820001f71477,64ce5acb97489d65b14ecc7a,64cf4bc36fe1d4873d81d9ca,,,,,,,decisionTrl,resources/DBN.BMP,resources/DP.BMP,Door2,0.417592621,-0.064814843,1,0,0,1.6735,optionRight,40,1705,1,33,0,33,0,1,,,,,,,,,,,,,,,,,,,,,,,,,,,,,,,,,,,,,,,
,,,,,,,,2023-08-06_08h29.46.557,HF_wild_card,2022.2.4,Win32,59.89099838,5c42c4b05aca820001f71477,64ce5acb97489d65b14ecc7a,64cf4bc36fe1d4873d81d9ca,,,,,,,sngl,resources/DY.BMP,resources/Empty.png,WildCard_NonEx,-0.326851824,0.011111111,1,0,0,1.5232,optionLeft,55,1760,1,34,0,34,0,1,,,,,,,,,,,,,,,,,,,,,,,,,,,,,,,,,,,,,,,
,,,,,,,,2023-08-06_08h29.46.557,HF_wild_card,2022.2.4,Win32,59.89099838,5c42c4b05aca820001f71477,64ce5acb97489d65b14ecc7a,64cf4bc36fe1d4873d81d9ca,,,,,,,ctch,resources/DBN.BMP,resources/DR.BMP,Door4,0.450925954,-0.065740755,1,0,0,1.6829,optionRight,80,1840,1,35,0,35,0,1,,,,,,,,,,,,,,,,,,,,,,,,,,,,,,,,,,,,,,,
,,,,,,,,2023-08-06_08h29.46.557,HF_wild_card,2022.2.4,Win32,59.89099838,5c42c4b05aca820001f71477,64ce5acb97489d65b14ecc7a,64cf4bc36fe1d4873d81d9ca,,,,,,,sngl,resources/DBN.BMP,resources/Empty.png,Door1,-0.277777778,0.00370369,1,0,0,1.6758,optionLeft,30,1870,1,36,0,36,0,1,,,,,,,,,,,,,,,,,,,,,,,,,,,,,,,,,,,,,,,
,,,,,,,,2023-08-06_08h29.46.557,HF_wild_card,2022.2.4,Win32,59.89099838,5c42c4b05aca820001f71477,64ce5acb97489d65b14ecc7a,64cf4bc36fe1d4873d81d9ca,,,,,,,ctch,resources/DP.BMP,resources/DB.BMP,Door3,0.382407464,-0.033333333,1,0,0,1.3284,optionRight,70,1940,1,37,0,37,0,1,,,,,,,,,,,,,,,,,,,,,,,,,,,,,,,,,,,,,,,
,,,,,,,,2023-08-06_08h29.46.557,HF_wild_card,2022.2.4,Win32,59.89099838,5c42c4b05aca820001f71477,64ce5acb97489d65b14ecc7a,64cf4bc36fe1d4873d81d9ca,,,,,,,sngl,resources/Empty.png,resources/DBN.BMP,Door1,0.339814843,-0.017592621,1,0,0,1.5749,optionRight,30,1970,1,38,0,38,0,1,,,,,,,,,,,,,,,,,,,,,,,,,,,,,,,,,,,,,,,
,,,,,,,,2023-08-06_08h29.46.557,HF_wild_card,2022.2.4,Win32,59.89099838,5c42c4b05aca820001f71477,64ce5acb97489d65b14ecc7a,64cf4bc36fe1d4873d81d9ca,,,,,,,decisionTrl,resources/DY.BMP,resources/DB.BMP,WildCard_NonEx,-0.317592578,-0.037037065,1,0,0,1.1507,optionLeft,45,2015,1,39,0,39,0,1,,,,,,,,,,,,,,,,,,,,,,,,,,,,,,,,,,,,,,,
,,,,,,,,2023-08-06_08h29.46.557,HF_wild_card,2022.2.4,Win32,59.89099838,5c42c4b05aca820001f71477,64ce5acb97489d65b14ecc7a,64cf4bc36fe1d4873d81d9ca,,,,,,,sngl,resources/DB.BMP,resources/Empty.png,Door3,-0.249074046,-0.069444444,1,0,0,2.5156,optionLeft,70,2085,1,40,0,40,0,1,,,,,,,,,,,,,,,,,,,,,,,,,,,,,,,,,,,,,,,
,,,,,,,,2023-08-06_08h29.46.557,HF_wild_card,2022.2.4,Win32,59.89099838,5c42c4b05aca820001f71477,64ce5acb97489d65b14ecc7a,64cf4bc36fe1d4873d81d9ca,,,,,,,sngl,resources/DY.BMP,resources/Empty.png,WildCard_NonEx,-0.290740712,-0.024074088,1,0,0,1.0603,optionLeft,45,2130,1,41,0,41,0,1,,,,,,,,,,,,,,,,,,,,,,,,,,,,,,,,,,,,,,,
,,,,,,,,2023-08-06_08h29.46.557,HF_wild_card,2022.2.4,Win32,59.89099838,5c42c4b05aca820001f71477,64ce5acb97489d65b14ecc7a,64cf4bc36fe1d4873d81d9ca,,,,,,,ctch,resources/DBN.BMP,resources/DR.BMP,Door4,0.437037065,-0.044444444,1,0,0,1.0945,optionRight,80,2210,1,42,0,42,0,1,,,,,,,,,,,,,,,,,,,,,,,,,,,,,,,,,,,,,,,
,,,,,,,,2023-08-06_08h29.46.557,HF_wild_card,2022.2.4,Win32,59.89099838,5c42c4b05aca820001f71477,64ce5acb97489d65b14ecc7a,64cf4bc36fe1d4873d81d9ca,,,,,,,sngl,resources/Empty.png,resources/DB.BMP,Door3,0.549074131,-0.03148151,1,0,0,1.4067,optionRight,70,2280,1,43,0,43,0,1,,,,,,,,,,,,,,,,,,,,,,,,,,,,,,,,,,,,,,,
,,,,,,,,2023-08-06_08h29.46.557,HF_wild_card,2022.2.4,Win32,59.89099838,5c42c4b05aca820001f71477,64ce5acb97489d65b14ecc7a,64cf4bc36fe1d4873d81d9ca,,,,,,,,,,,,,,,,,,,,,,,,,,0,0,0,0,1,,,,,,,,,,,,,,,,,,,,,,,,,,,,,,,,,,
,,,,,,,,2023-08-06_08h29.46.557,HF_wild_card,2022.2.4,Win32,59.89099838,5c42c4b05aca820001f71477,64ce5acb97489d65b14ecc7a,64cf4bc36fe1d4873d81d9ca,,,,,,,sngl,resources/DR.BMP,resources/Empty.png,Door4,-0.375925912,-0.094444444,1,0,0,1.9727,optionLeft,60,2340,2,0,0,0,0,1,,,,,,,,,,,,,,,,,,,,,,,,,,,,,,,,,,,,,,,
,,,,,,,,2023-08-06_08h29.46.557,HF_wild_card,2022.2.4,Win32,59.89099838,5c42c4b05aca820001f71477,64ce5acb97489d65b14ecc7a,64cf4bc36fe1d4873d81d9ca,,,,,,,decisionTrl,resources/DY.BMP,resources/DP.BMP,Door2,0.336111111,-0.052777778,1,0,0,0.9524,optionRight,40,2380,2,1,0,1,0,1,,,,,,,,,,,,,,,,,,,,,,,,,,,,,,,,,,,,,,,
,,,,,,,,2023-08-06_08h29.46.557,HF_wild_card,2022.2.4,Win32,59.89099838,5c42c4b05aca820001f71477,64ce5acb97489d65b14ecc7a,64cf4bc36fe1d4873d81d9ca,,,,,,,sngl,resources/DY.BMP,resources/Empty.png,WildCard_NonEx,-0.309259245,-0.064814843,1,0,0,1.2135,optionLeft,55,2435,2,2,0,2,0,1,,,,,,,,,,,,,,,,,,,,,,,,,,,,,,,,,,,,,,,
,,,,,,,,2023-08-06_08h29.46.557,HF_wild_card,2022.2.4,Win32,59.89099838,5c42c4b05aca820001f71477,64ce5acb97489d65b14ecc7a,64cf4bc36fe1d4873d81d9ca,,,,,,,decisionTrl,resources/DR.BMP,resources/DY.BMP,Door4,-0.335185157,-0.086111111,1,0,0,1.3509,optionLeft,80,2515,2,3,0,3,0,1,,,,,,,,,,,,,,,,,,,,,,,,,,,,,,,,,,,,,,,
,,,,,,,,2023-08-06_08h29.46.557,HF_wild_card,2022.2.4,Win32,59.89099838,5c42c4b05aca820001f71477,64ce5acb97489d65b14ecc7a,64cf4bc36fe1d4873d81d9ca,,,,,,,sngl,resources/Empty.png,resources/DY.BMP,WildCard_NonEx,0.399074131,-0.02129631,1,0,0,1.2446,optionRight,45,2560,2,4,0,4,0,1,,,,,,,,,,,,,,,,,,,,,,,,,,,,,,,,,,,,,,,
,,,,,,,,2023-08-06_08h29.46.557,HF_wild_card,2022.2.4,Win32,59.89099838,5c42c4b05aca820001f71477,64ce5acb97489d65b14ecc7a,64cf4bc36fe1d4873d81d9ca,,,,,,,decisionTrl,resources/DBN.BMP,resources/DY.BMP,WildCard_NonEx,0.411111111,-0.029629644,1,0,0,1.325,optionRight,55,2615,2,5,0,5,0,1,,,,,,,,,,,,,,,,,,,,,,,,,,,,,,,,,,,,,,,
,,,,,,,,2023-08-06_08h29.46.557,HF_wild_card,2022.2.4,Win32,59.89099838,5c42c4b05aca820001f71477,64ce5acb97489d65b14ecc7a,64cf4bc36fe1d4873d81d9ca,,,,,,,decisionTrl,resources/DB.BMP,resources/DR.BMP,Door4,0.350925954,-0.072222222,1,0,0,1.4191,optionRight,60,2675,2,6,0,6,0,1,,,,,,,,,,,,,,,,,,,,,,,,,,,,,,,,,,,,,,,
,,,,,,,,2023-08-06_08h29.46.557,HF_wild_card,2022.2.4,Win32,59.89099838,5c42c4b05aca820001f71477,64ce5acb97489d65b14ecc7a,64cf4bc36fe1d4873d81d9ca,,,,,,,decisionTrl,resources/DBN.BMP,resources/DP.BMP,Door2,0.333333333,-0.077777778,1,0,0,1.4626,optionRight,40,2715,2,7,0,7,0,1,,,,,,,,,,,,,,,,,,,,,,,,,,,,,,,,,,,,,,,
,,,,,,,,2023-08-06_08h29.46.557,HF_wild_card,2022.2.4,Win32,59.89099838,5c42c4b05aca820001f71477,64ce5acb97489d65b14ecc7a,64cf4bc36fe1d4873d81d9ca,,,,,,,ctch,resources/DR.BMP,resources/DBN.BMP,Door4,-0.405555556,-0.061111111,1,0,0,3.1027,optionLeft,80,2795,2,8,0,8,0,1,,,,,,,,,,,,,,,,,,,,,,,,,,,,,,,,,,,,,,,
,,,,,,,,2023-08-06_08h29.46.557,HF_wild_card,2022.2.4,Win32,59.89099838,5c42c4b05aca820001f71477,64ce5acb97489d65b14ecc7a,64cf4bc36fe1d4873d81d9ca,,,,,,,decisionTrl,resources/DP.BMP,resources/DBN.BMP,Door2,-0.354629601,-0.084259288,1,0,0,1.8653,optionLeft,20,2815,2,9,0,9,0,1,,,,,,,,,,,,,,,,,,,,,,,,,,,,,,,,,,,,,,,
,,,,,,,,2023-08-06_08h29.46.557,HF_wild_card,2022.2.4,Win32,59.89099838,5c42c4b05aca820001f71477,64ce5acb97489d65b14ecc7a,64cf4bc36fe1d4873d81d9ca,,,,,,,decisionTrl,resources/DB.BMP,resources/DY.BMP,WildCard_NonEx,0.423148176,-0.054629644,1,0,0,0.9958,optionRight,55,2870,2,10,0,10,0,1,,,,,,,,,,,,,,,,,,,,,,,,,,,,,,,,,,,,,,,
,,,,,,,,2023-08-06_08h29.46.557,HF_wild_card,2022.2.4,Win32,59.89099838,5c42c4b05aca820001f71477,64ce5acb97489d65b14ecc7a,64cf4bc36fe1d4873d81d9ca,,,,,,,decisionTrl,resources/DR.BMP,resources/DB.BMP,Door4,-0.325925912,0.005555556,1,0,0,2.0804,optionLeft,60,2930,2,11,0,11,0,1,,,,,,,,,,,,,,,,,,,,,,,,,,,,,,,,,,,,,,,
,,,,,,,,2023-08-06_08h29.46.557,HF_wild_card,2022.2.4,Win32,59.89099838,5c42c4b05aca820001f71477,64ce5acb97489d65b14ecc7a,64cf4bc36fe1d4873d81d9ca,,,,,,,decisionTrl,resources/DB.BMP,resources/DR.BMP,Door4,0.207407464,-0.010185199,1,0,0,1.1587,optionRight,80,3010,2,12,0,12,0,1,,,,,,,,,,,,,,,,,,,,,,,,,,,,,,,,,,,,,,,
,,,,,,,,2023-08-06_08h29.46.557,HF_wild_card,2022.2.4,Win32,59.89099838,5c42c4b05aca820001f71477,64ce5acb97489d65b14ecc7a,64cf4bc36fe1d4873d81d9ca,,,,,,,decisionTrl,resources/DY.BMP,resources/DBN.BMP,WildCard_NonEx,-0.326851824,-0.001851866,1,0,0,1.3309,optionLeft,55,3065,2,13,0,13,0,1,,,,,,,,,,,,,,,,,,,,,,,,,,,,,,,,,,,,,,,
,,,,,,,,2023-08-06_08h29.46.557,HF_wild_card,2022.2.4,Win32,59.89099838,5c42c4b05aca820001f71477,64ce5acb97489d65b14ecc7a,64cf4bc36fe1d4873d81d9ca,,,,,,,decisionTrl,resources/DY.BMP,resources/DR.BMP,Door4,0.398148176,-0.018518533,1,0,0,1.1522,optionRight,60,3125,2,14,0,14,0,1,,,,,,,,,,,,,,,,,,,,,,,,,,,,,,,,,,,,,,,
,,,,,,,,2023-08-06_08h29.46.557,HF_wild_card,2022.2.4,Win32,59.89099838,5c42c4b05aca820001f71477,64ce5acb97489d65b14ecc7a,64cf4bc36fe1d4873d81d9ca,,,,,,,decisionTrl,resources/DP.BMP,resources/DY.BMP,WildCard_NonEx,0.410185242,0.002777778,1,0,0,1.2872,optionRight,45,3170,2,15,0,15,0,1,,,,,,,,,,,,,,,,,,,,,,,,,,,,,,,,,,,,,,,
,,,,,,,,2023-08-06_08h29.46.557,HF_wild_card,2022.2.4,Win32,59.89099838,5c42c4b05aca820001f71477,64ce5acb97489d65b14ecc7a,64cf4bc36fe1d4873d81d9ca,,,,,,,sngl,resources/DY.BMP,resources/Empty.png,WildCard_NonEx,-0.313888889,-0.001851866,1,0,0,1.5804,optionLeft,45,3215,2,16,0,16,0,1,,,,,,,,,,,,,,,,,,,,,,,,,,,,,,,,,,,,,,,
,,,,,,,,2023-08-06_08h29.46.557,HF_wild_card,2022.2.4,Win32,59.89099838,5c42c4b05aca820001f71477,64ce5acb97489d65b14ecc7a,64cf4bc36fe1d4873d81d9ca,,,,,,,decisionTrl,resources/DR.BMP,resources/DB.BMP,Door3,0.412963019,-0.032407422,1,0,0,1.3011,optionRight,70,3285,2,17,0,17,0,1,,,,,,,,,,,,,,,,,,,,,,,,,,,,,,,,,,,,,,,
,,,,,,,,2023-08-06_08h29.46.557,HF_wild_card,2022.2.4,Win32,59.89099838,5c42c4b05aca820001f71477,64ce5acb97489d65b14ecc7a,64cf4bc36fe1d4873d81d9ca,,,,,,,decisionTrl,resources/DBN.BMP,resources/DP.BMP,Door2,0.368518575,-0.015740755,1,0,0,2.1734,optionRight,40,3325,2,18,0,18,0,1,,,,,,,,,,,,,,,,,,,,,,,,,,,,,,,,,,,,,,,
,,,,,,,,2023-08-06_08h29.46.557,HF_wild_card,2022.2.4,Win32,59.89099838,5c42c4b05aca820001f71477,64ce5acb97489d65b14ecc7a,64cf4bc36fe1d4873d81d9ca,,,,,,,sngl,resources/Empty.png,resources/DR.BMP,Door4,0.298148176,-0.053703732,1,0,0,1.6844,optionRight,80,3405,2,19,0,19,0,1,,,,,,,,,,,,,,,,,,,,,,,,,,,,,,,,,,,,,,,
,,,,,,,,2023-08-06_08h29.46.557,HF_wild_card,2022.2.4,Win32,59.89099838,5c42c4b05aca820001f71477,64ce5acb97489d65b14ecc7a,64cf4bc36fe1d4873d81d9ca,,,,,,,decisionTrl,resources/DBN.BMP,resources/DP.BMP,Door2,0.392592621,-0.060185199,1,0,0,6.551,optionRight,40,3445,2,20,0,20,0,1,,,,,,,,,,,,,,,,,,,,,,,,,,,,,,,,,,,,,,,
,,,,,,,,2023-08-06_08h29.46.557,HF_wild_card,2022.2.4,Win32,59.89099838,5c42c4b05aca820001f71477,64ce5acb97489d65b14ecc7a,64cf4bc36fe1d4873d81d9ca,,,,,,,decisionTrl,resources/DY.BMP,resources/DB.BMP,WildCard_NonEx,-0.349074046,-0.04629631,1,0,0,1.7666,optionLeft,55,3500,2,21,0,21,0,1,,,,,,,,,,,,,,,,,,,,,,,,,,,,,,,,,,,,,,,
,,,,,,,,2023-08-06_08h29.46.557,HF_wild_card,2022.2.4,Win32,59.89099838,5c42c4b05aca820001f71477,64ce5acb97489d65b14ecc7a,64cf4bc36fe1d4873d81d9ca,,,,,,,decisionTrl,resources/DBN.BMP,resources/DP.BMP,Door2,0.425,-0.042592621,1,0,0,1.3365,optionRight,40,3540,2,22,0,22,0,1,,,,,,,,,,,,,,,,,,,,,,,,,,,,,,,,,,,,,,,
,,,,,,,,2023-08-06_08h29.46.557,HF_wild_card,2022.2.4,Win32,59.89099838,5c42c4b05aca820001f71477,64ce5acb97489d65b14ecc7a,64cf4bc36fe1d4873d81d9ca,,,,,,,sngl,resources/DBN.BMP,resources/Empty.png,Door1,-0.382407379,-0.075925954,1,0,0,1.3035,optionLeft,30,3570,2,23,0,23,0,1,,,,,,,,,,,,,,,,,,,,,,,,,,,,,,,,,,,,,,,
,,,,,,,,2023-08-06_08h29.46.557,HF_wild_card,2022.2.4,Win32,59.89099838,5c42c4b05aca820001f71477,64ce5acb97489d65b14ecc7a,64cf4bc36fe1d4873d81d9ca,,,,,,,ctch,resources/DP.BMP,resources/DB.BMP,Door3,0.350925954,-0.022222222,1,0,0,1.5688,optionRight,70,3640,2,24,0,24,0,1,,,,,,,,,,,,,,,,,,,,,,,,,,,,,,,,,,,,,,,
,,,,,,,,2023-08-06_08h29.46.557,HF_wild_card,2022.2.4,Win32,59.89099838,5c42c4b05aca820001f71477,64ce5acb97489d65b14ecc7a,64cf4bc36fe1d4873d81d9ca,,,,,,,decisionTrl,resources/DR.BMP,resources/DB.BMP,Door3,0.255555556,-0.083333333,1,0,0,1.299,optionRight,70,3710,2,25,0,25,0,1,,,,,,,,,,,,,,,,,,,,,,,,,,,,,,,,,,,,,,,
,,,,,,,,2023-08-06_08h29.46.557,HF_wild_card,2022.2.4,Win32,59.89099838,5c42c4b05aca820001f71477,64ce5acb97489d65b14ecc7a,64cf4bc36fe1d4873d81d9ca,,,,,,,ctch,resources/DBN.BMP,resources/DR.BMP,Door4,0.285185242,-0.016666667,1,0,0,1.049,optionRight,60,3770,2,26,0,26,0,1,,,,,,,,,,,,,,,,,,,,,,,,,,,,,,,,,,,,,,,
,,,,,,,,2023-08-06_08h29.46.557,HF_wild_card,2022.2.4,Win32,59.89099838,5c42c4b05aca820001f71477,64ce5acb97489d65b14ecc7a,64cf4bc36fe1d4873d81d9ca,,,,,,,decisionTrl,resources/DP.BMP,resources/DBN.BMP,Door2,-0.36851849,-0.077777778,1,0,0,1.3447,optionLeft,40,3810,2,27,0,27,0,1,,,,,,,,,,,,,,,,,,,,,,,,,,,,,,,,,,,,,,,
,,,,,,,,2023-08-06_08h29.46.557,HF_wild_card,2022.2.4,Win32,59.89099838,5c42c4b05aca820001f71477,64ce5acb97489d65b14ecc7a,64cf4bc36fe1d4873d81d9ca,,,,,,,sngl,resources/DB.BMP,resources/Empty.png,Door3,-0.316666667,-0.030555556,1,0,0,2.2581,optionLeft,70,3880,2,28,0,28,0,1,,,,,,,,,,,,,,,,,,,,,,,,,,,,,,,,,,,,,,,
,,,,,,,,2023-08-06_08h29.46.557,HF_wild_card,2022.2.4,Win32,59.89099838,5c42c4b05aca820001f71477,64ce5acb97489d65b14ecc7a,64cf4bc36fe1d4873d81d9ca,,,,,,,decisionTrl,resources/DR.BMP,resources/DB.BMP,Door4,-0.456481467,-0.020370399,1,0,0,2.3095,optionLeft,80,3960,2,29,0,29,0,1,,,,,,,,,,,,,,,,,,,,,,,,,,,,,,,,,,,,,,,
,,,,,,,,2023-08-06_08h29.46.557,HF_wild_card,2022.2.4,Win32,59.89099838,5c42c4b05aca820001f71477,64ce5acb97489d65b14ecc7a,64cf4bc36fe1d4873d81d9ca,,,,,,,decisionTrl,resources/DB.BMP,resources/DR.BMP,Door4,0.425925954,-0.044444444,1,0,0,1.7498,optionRight,60,4020,2,30,0,30,0,1,,,,,,,,,,,,,,,,,,,,,,,,,,,,,,,,,,,,,,,
,,,,,,,,2023-08-06_08h29.46.557,HF_wild_card,2022.2.4,Win32,59.89099838,5c42c4b05aca820001f71477,64ce5acb97489d65b14ecc7a,64cf4bc36fe1d4873d81d9ca,,,,,,,ctch,resources/DP.BMP,resources/DB.BMP,Door3,0.385185242,-0.035185199,1,0,0,4.5859,optionRight,70,4090,2,31,0,31,0,1,,,,,,,,,,,,,,,,,,,,,,,,,,,,,,,,,,,,,,,
,,,,,,,,2023-08-06_08h29.46.557,HF_wild_card,2022.2.4,Win32,59.89099838,5c42c4b05aca820001f71477,64ce5acb97489d65b14ecc7a,64cf4bc36fe1d4873d81d9ca,,,,,,,sngl,resources/Empty.png,resources/DP.BMP,Door2,0.380555556,0.013888889,1,0,0,2.467,optionRight,40,4130,2,32,0,32,0,1,,,,,,,,,,,,,,,,,,,,,,,,,,,,,,,,,,,,,,,
,,,,,,,,2023-08-06_08h29.46.557,HF_wild_card,2022.2.4,Win32,59.89099838,5c42c4b05aca820001f71477,64ce5acb97489d65b14ecc7a,64cf4bc36fe1d4873d81d9ca,,,,,,,sngl,resources/Empty.png,resources/DB.BMP,Door3,0.425925954,-0.116666667,1,0,0,2.1313,optionRight,70,4200,2,33,0,33,0,1,,,,,,,,,,,,,,,,,,,,,,,,,,,,,,,,,,,,,,,
,,,,,,,,2023-08-06_08h29.46.557,HF_wild_card,2022.2.4,Win32,59.89099838,5c42c4b05aca820001f71477,64ce5acb97489d65b14ecc7a,64cf4bc36fe1d4873d81d9ca,,,,,,,sngl,resources/Empty.png,resources/DBN.BMP,Door1,0.258333333,-0.05648151,1,0,0,1.9451,optionRight,30,4230,2,34,0,34,0,1,,,,,,,,,,,,,,,,,,,,,,,,,,,,,,,,,,,,,,,
,,,,,,,,2023-08-06_08h29.46.557,HF_wild_card,2022.2.4,Win32,59.89099838,5c42c4b05aca820001f71477,64ce5acb97489d65b14ecc7a,64cf4bc36fe1d4873d81d9ca,,,,,,,ctch,resources/DB.BMP,resources/DP.BMP,Door3,-0.275925912,-0.025,1,0,0,1.2639,optionLeft,70,4300,2,35,0,35,0,1,,,,,,,,,,,,,,,,,,,,,,,,,,,,,,,,,,,,,,,
,,,,,,,,2023-08-06_08h29.46.557,HF_wild_card,2022.2.4,Win32,59.89099838,5c42c4b05aca820001f71477,64ce5acb97489d65b14ecc7a,64cf4bc36fe1d4873d81d9ca,,,,,,,decisionTrl,resources/DP.BMP,resources/DBN.BMP,Door2,-0.336111111,-0.093518533,1,0,0,1.7626,optionLeft,40,4340,2,36,0,36,0,1,,,,,,,,,,,,,,,,,,,,,,,,,,,,,,,,,,,,,,,
,,,,,,,,2023-08-06_08h29.46.557,HF_wild_card,2022.2.4,Win32,59.89099838,5c42c4b05aca820001f71477,64ce5acb97489d65b14ecc7a,64cf4bc36fe1d4873d81d9ca,,,,,,,ctch,resources/DB.BMP,resources/DP.BMP,Door3,-0.35,-0.087962977,1,0,0,1.9439,optionLeft,70,4410,2,37,0,37,0,1,,,,,,,,,,,,,,,,,,,,,,,,,,,,,,,,,,,,,,,
,,,,,,,,2023-08-06_08h29.46.557,HF_wild_card,2022.2.4,Win32,59.89099838,5c42c4b05aca820001f71477,64ce5acb97489d65b14ecc7a,64cf4bc36fe1d4873d81d9ca,,,,,,,sngl,resources/DP.BMP,resources/Empty.png,Door2,-0.259259245,-0.064814843,1,0,0,1.0338,optionLeft,20,4430,2,38,0,38,0,1,,,,,,,,,,,,,,,,,,,,,,,,,,,,,,,,,,,,,,,
,,,,,,,,2023-08-06_08h29.46.557,HF_wild_card,2022.2.4,Win32,59.89099838,5c42c4b05aca820001f71477,64ce5acb97489d65b14ecc7a,64cf4bc36fe1d4873d81d9ca,,,,,,,ctch,resources/DR.BMP,resources/DBN.BMP,Door4,-0.470370356,-0.108333333,1,0,0,1.708,optionLeft,60,4490,2,39,0,39,0,1,,,,,,,,,,,,,,,,,,,,,,,,,,,,,,,,,,,,,,,
,,,,,,,,2023-08-06_08h29.46.557,HF_wild_card,2022.2.4,Win32,59.89099838,5c42c4b05aca820001f71477,64ce5acb97489d65b14ecc7a,64cf4bc36fe1d4873d81d9ca,,,,,,,decisionTrl,resources/DP.BMP,resources/DBN.BMP,Door2,-0.339814801,-0.040740755,1,0,0,1.511,optionLeft,40,4530,2,40,0,40,0,1,,,,,,,,,,,,,,,,,,,,,,,,,,,,,,,,,,,,,,,
,,,,,,,,2023-08-06_08h29.46.557,HF_wild_card,2022.2.4,Win32,59.89099838,5c42c4b05aca820001f71477,64ce5acb97489d65b14ecc7a,64cf4bc36fe1d4873d81d9ca,,,,,,,ctch,resources/DBN.BMP,resources/DR.BMP,Door4,0.33148151,-0.039814843,1,0,0,1.0821,optionRight,80,4610,2,41,0,41,0,1,,,,,,,,,,,,,,,,,,,,,,,,,,,,,,,,,,,,,,,
,,,,,,,,2023-08-06_08h29.46.557,HF_wild_card,2022.2.4,Win32,59.89099838,5c42c4b05aca820001f71477,64ce5acb97489d65b14ecc7a,64cf4bc36fe1d4873d81d9ca,,,,,,,decisionTrl,resources/DB.BMP,resources/DR.BMP,Door4,0.323148176,-0.07129631,1,0,0,1.4188,optionRight,60,4670,2,42,0,42,0,1,,,,,,,,,,,,,,,,,,,,,,,,,,,,,,,,,,,,,,,
,,,,,,,,2023-08-06_08h29.46.557,HF_wild_card,2022.2.4,Win32,59.89099838,5c42c4b05aca820001f71477,64ce5acb97489d65b14ecc7a,64cf4bc36fe1d4873d81d9ca,,,,,,,sngl,resources/Empty.png,resources/DY.BMP,WildCard_NonEx,0.426851908,-0.062037065,1,0,0,1.1245,optionRight,55,4725,2,43,0,43,0,1,,,,,,,,,,,,,,,,,,,,,,,,,,,,,,,,,,,,,,,
,,,,,,,,2023-08-06_08h29.46.557,HF_wild_card,2022.2.4,Win32,59.89099838,5c42c4b05aca820001f71477,64ce5acb97489d65b14ecc7a,64cf4bc36fe1d4873d81d9ca,,,,,,,,,,,,,,,,,,,,,,,,,,1,0,1,0,1,,,,,,,,,,,,,,,,,,,,,,,,,,,,,,,,,,
,,,,,,,,2023-08-06_08h29.46.557,HF_wild_card,2022.2.4,Win32,59.89099838,5c42c4b05aca820001f71477,64ce5acb97489d65b14ecc7a,64cf4bc36fe1d4873d81d9ca,,,,,,,decisionTrl,resources/DR.BMP,resources/DB.BMP,Door4,-0.301851824,-0.142592621,1,0,0,3.3194,optionLeft,60,4785,3,0,0,0,0,1,,,,,,,,,,,,,,,,,,,,,,,,,,,,,,,,,,,,,,,
,,,,,,,,2023-08-06_08h29.46.557,HF_wild_card,2022.2.4,Win32,59.89099838,5c42c4b05aca820001f71477,64ce5acb97489d65b14ecc7a,64cf4bc36fe1d4873d81d9ca,,,,,,,decisionTrl,resources/DY.BMP,resources/DR.BMP,Door4,0.43148151,-0.014814843,1,0,0,1.0092,optionRight,80,4865,3,1,0,1,0,1,,,,,,,,,,,,,,,,,,,,,,,,,,,,,,,,,,,,,,,
,,,,,,,,2023-08-06_08h29.46.557,HF_wild_card,2022.2.4,Win32,59.89099838,5c42c4b05aca820001f71477,64ce5acb97489d65b14ecc7a,64cf4bc36fe1d4873d81d9ca,,,,,,,decisionTrl,resources/DY.BMP,resources/DBN.BMP,WildCard_NonEx,-0.362962935,-0.044444444,1,0,0,2.5574,optionLeft,45,4910,3,2,0,2,0,1,,,,,,,,,,,,,,,,,,,,,,,,,,,,,,,,,,,,,,,
,,,,,,,,2023-08-06_08h29.46.557,HF_wild_card,2022.2.4,Win32,59.89099838,5c42c4b05aca820001f71477,64ce5acb97489d65b14ecc7a,64cf4bc36fe1d4873d81d9ca,,,,,,,ctch,resources/DB.BMP,resources/DP.BMP,Door3,-0.334259245,-0.036111111,1,0,0,2.0032,optionLeft,70,4980,3,3,0,3,0,1,,,,,,,,,,,,,,,,,,,,,,,,,,,,,,,,,,,,,,,
,,,,,,,,2023-08-06_08h29.46.557,HF_wild_card,2022.2.4,Win32,59.89099838,5c42c4b05aca820001f71477,64ce5acb97489d65b14ecc7a,64cf4bc36fe1d4873d81d9ca,,,,,,,decisionTrl,resources/DR.BMP,resources/DB.BMP,Door4,-0.31851849,-0.044444444,1,0,0,1.2783,optionLeft,60,5040,3,4,0,4,0,1,,,,,,,,,,,,,,,,,,,,,,,,,,,,,,,,,,,,,,,
,,,,,,,,2023-08-06_08h29.46.557,HF_wild_card,2022.2.4,Win32,59.89099838,5c42c4b05aca820001f71477,64ce5acb97489d65b14ecc7a,64cf4bc36fe1d4873d81d9ca,,,,,,,ctch,resources/DP.BMP,resources/DB.BMP,Door3,0.355555556,-0.098148176,1,0,0,1.8203,optionRight,70,5110,3,5,0,5,0,1,,,,,,,,,,,,,,,,,,,,,,,,,,,,,,,,,,,,,,,
,,,,,,,,2023-08-06_08h29.46.557,HF_wild_card,2022.2.4,Win32,59.89099838,5c42c4b05aca820001f71477,64ce5acb97489d65b14ecc7a,64cf4bc36fe1d4873d81d9ca,,,,,,,decisionTrl,resources/DR.BMP,resources/DB.BMP,Door4,-0.326851824,-0.037037065,1,0,0,1.2002,optionLeft,60,5170,3,6,0,6,0,1,,,,,,,,,,,,,,,,,,,,,,,,,,,,,,,,,,,,,,,
,,,,,,,,2023-08-06_08h29.46.557,HF_wild_card,2022.2.4,Win32,59.89099838,5c42c4b05aca820001f71477,64ce5acb97489d65b14ecc7a,64cf4bc36fe1d4873d81d9ca,,,,,,,ctch,resources/DBN.BMP,resources/DR.BMP,Door4,0.419444444,-0.059259288,1,0,0,1.0598,optionRight,60,5230,3,7,0,7,0,1,,,,,,,,,,,,,,,,,,,,,,,,,,,,,,,,,,,,,,,
,,,,,,,,2023-08-06_08h29.46.557,HF_wild_card,2022.2.4,Win32,59.89099838,5c42c4b05aca820001f71477,64ce5acb97489d65b14ecc7a,64cf4bc36fe1d4873d81d9ca,,,,,,,sngl,resources/DY.BMP,resources/Empty.png,WildCard_NonEx,-0.349074046,-0.064814843,1,0,0,1.0601,optionLeft,55,5285,3,8,0,8,0,1,,,,,,,,,,,,,,,,,,,,,,,,,,,,,,,,,,,,,,,
,,,,,,,,2023-08-06_08h29.46.557,HF_wild_card,2022.2.4,Win32,59.89099838,5c42c4b05aca820001f71477,64ce5acb97489d65b14ecc7a,64cf4bc36fe1d4873d81d9ca,,,,,,,decisionTrl,resources/DB.BMP,resources/DY.BMP,WildCard_NonEx,0.410185242,-0.03148151,1,0,0,1.2724,optionRight,55,5340,3,9,0,9,0,1,,,,,,,,,,,,,,,,,,,,,,,,,,,,,,,,,,,,,,,
,,,,,,,,2023-08-06_08h29.46.557,HF_wild_card,2022.2.4,Win32,59.89099838,5c42c4b05aca820001f71477,64ce5acb97489d65b14ecc7a,64cf4bc36fe1d4873d81d9ca,,,,,,,decisionTrl,resources/DB.BMP,resources/DR.BMP,Door4,0.357407464,-0.045370399,1,0,0,2.0826,optionRight,80,5420,3,10,0,10,0,1,,,,,,,,,,,,,,,,,,,,,,,,,,,,,,,,,,,,,,,
,,,,,,,,2023-08-06_08h29.46.557,HF_wild_card,2022.2.4,Win32,59.89099838,5c42c4b05aca820001f71477,64ce5acb97489d65b14ecc7a,64cf4bc36fe1d4873d81d9ca,,,,,,,sngl,resources/Empty.png,resources/DY.BMP,WildCard_NonEx,0.423148176,-0.05,1,0,0,1.351,optionRight,55,5475,3,11,0,11,0,1,,,,,,,,,,,,,,,,,,,,,,,,,,,,,,,,,,,,,,,
,,,,,,,,2023-08-06_08h29.46.557,HF_wild_card,2022.2.4,Win32,59.89099838,5c42c4b05aca820001f71477,64ce5acb97489d65b14ecc7a,64cf4bc36fe1d4873d81d9ca,,,,,,,decisionTrl,resources/DP.BMP,resources/DY.BMP,WildCard_NonEx,0.387963019,-0.045370399,1,0,0,1.7238,optionRight,55,5530,3,12,0,12,0,1,,,,,,,,,,,,,,,,,,,,,,,,,,,,,,,,,,,,,,,
,,,,,,,,2023-08-06_08h29.46.557,HF_wild_card,2022.2.4,Win32,59.89099838,5c42c4b05aca820001f71477,64ce5acb97489d65b14ecc7a,64cf4bc36fe1d4873d81d9ca,,,,,,,decisionTrl,resources/DBN.BMP,resources/DP.BMP,Door2,0.410185242,-0.032407422,1,0,0,1.7038,optionRight,40,5570,3,13,0,13,0,1,,,,,,,,,,,,,,,,,,,,,,,,,,,,,,,,,,,,,,,
,,,,,,,,2023-08-06_08h29.46.557,HF_wild_card,2022.2.4,Win32,59.89099838,5c42c4b05aca820001f71477,64ce5acb97489d65b14ecc7a,64cf4bc36fe1d4873d81d9ca,,,,,,,decisionTrl,resources/DP.BMP,resources/DBN.BMP,Door2,-0.396296268,-0.036111111,1,0,0,1.426,optionLeft,20,5590,3,14,0,14,0,1,,,,,,,,,,,,,,,,,,,,,,,,,,,,,,,,,,,,,,,
,,,,,,,,2023-08-06_08h29.46.557,HF_wild_card,2022.2.4,Win32,59.89099838,5c42c4b05aca820001f71477,64ce5acb97489d65b14ecc7a,64cf4bc36fe1d4873d81d9ca,,,,,,,decisionTrl,resources/DP.BMP,resources/DBN.BMP,Door1,0.432407464,-0.004629644,1,0,0,2.0264,optionRight,30,5620,3,15,0,15,0,1,,,,,,,,,,,,,,,,,,,,,,,,,,,,,,,,,,,,,,,
,,,,,,,,2023-08-06_08h29.46.557,HF_wild_card,2022.2.4,Win32,59.89099838,5c42c4b05aca820001f71477,64ce5acb97489d65b14ecc7a,64cf4bc36fe1d4873d81d9ca,,,,,,,decisionTrl,resources/DB.BMP,resources/DR.BMP,Door4,0.364814843,0.012037023,1,0,0,1.2691,optionRight,60,5680,3,16,0,16,0,1,,,,,,,,,,,,,,,,,,,,,,,,,,,,,,,,,,,,,,,
,,,,,,,,2023-08-06_08h29.46.557,HF_wild_card,2022.2.4,Win32,59.89099838,5c42c4b05aca820001f71477,64ce5acb97489d65b14ecc7a,64cf4bc36fe1d4873d81d9ca,,,,,,,decisionTrl,resources/DBN.BMP,resources/DY.BMP,WildCard_NonEx,0.390740797,0.007407379,1,0,0,1.0767,optionRight,45,5725,3,17,0,17,0,1,,,,,,,,,,,,,,,,,,,,,,,,,,,,,,,,,,,,,,,
,,,,,,,,2023-08-06_08h29.46.557,HF_wild_card,2022.2.4,Win32,59.89099838,5c42c4b05aca820001f71477,64ce5acb97489d65b14ecc7a,64cf4bc36fe1d4873d81d9ca,,,,,,,sngl,resources/Empty.png,resources/DBN.BMP,Door1,0.418518575,-0.015740755,1,0,0,1.1484,optionRight,30,5755,3,18,0,18,0,1,,,,,,,,,,,,,,,,,,,,,,,,,,,,,,,,,,,,,,,
,,,,,,,,2023-08-06_08h29.46.557,HF_wild_card,2022.2.4,Win32,59.89099838,5c42c4b05aca820001f71477,64ce5acb97489d65b14ecc7a,64cf4bc36fe1d4873d81d9ca,,,,,,,decisionTrl,resources/DR.BMP,resources/DY.BMP,Door4,-0.270370356,-0.076851866,1,0,0,1.3016,optionLeft,60,5815,3,19,0,19,0,1,,,,,,,,,,,,,,,,,,,,,,,,,,,,,,,,,,,,,,,
,,,,,,,,2023-08-06_08h29.46.557,HF_wild_card,2022.2.4,Win32,59.89099838,5c42c4b05aca820001f71477,64ce5acb97489d65b14ecc7a,64cf4bc36fe1d4873d81d9ca,,,,,,,decisionTrl,resources/DBN.BMP,resources/DP.BMP,Door2,0.43148151,-0.041666667,1,0,0,1.7654,optionRight,40,5855,3,20,0,20,0,1,,,,,,,,,,,,,,,,,,,,,,,,,,,,,,,,,,,,,,,
,,,,,,,,2023-08-06_08h29.46.557,HF_wild_card,2022.2.4,Win32,59.89099838,5c42c4b05aca820001f71477,64ce5acb97489d65b14ecc7a,64cf4bc36fe1d4873d81d9ca,,,,,,,decisionTrl,resources/DBN.BMP,resources/DP.BMP,Door2,0.337963019,-0.054629644,1,0,0,1.1456,optionRight,20,5875,3,21,0,21,0,1,,,,,,,,,,,,,,,,,,,,,,,,,,,,,,,,,,,,,,,
,,,,,,,,2023-08-06_08h29.46.557,HF_wild_card,2022.2.4,Win32,59.89099838,5c42c4b05aca820001f71477,64ce5acb97489d65b14ecc7a,64cf4bc36fe1d4873d81d9ca,,,,,,,ctch,resources/DR.BMP,resources/DBN.BMP,Door4,-0.366666667,-0.02129631,1,0,0,1.3985,optionLeft,80,5955,3,22,0,22,0,1,,,,,,,,,,,,,,,,,,,,,,,,,,,,,,,,,,,,,,,
,,,,,,,,2023-08-06_08h29.46.557,HF_wild_card,2022.2.4,Win32,59.89099838,5c42c4b05aca820001f71477,64ce5acb97489d65b14ecc7a,64cf4bc36fe1d4873d81d9ca,,,,,,,ctch,resources/DR.BMP,resources/DBN.BMP,Door4,-0.324074046,-0.024074088,1,0,0,1.9225,optionLeft,60,6015,3,23,0,23,0,1,,,,,,,,,,,,,,,,,,,,,,,,,,,,,,,,,,,,,,,
,,,,,,,,2023-08-06_08h29.46.557,HF_wild_card,2022.2.4,Win32,59.89099838,5c42c4b05aca820001f71477,64ce5acb97489d65b14ecc7a,64cf4bc36fe1d4873d81d9ca,,,,,,,ctch,resources/DBN.BMP,resources/DR.BMP,Door4,0.366666667,-0.03148151,1,0,0,1.5128,optionRight,80,6095,3,24,0,24,0,1,,,,,,,,,,,,,,,,,,,,,,,,,,,,,,,,,,,,,,,
,,,,,,,,2023-08-06_08h29.46.557,HF_wild_card,2022.2.4,Win32,59.89099838,5c42c4b05aca820001f71477,64ce5acb97489d65b14ecc7a,64cf4bc36fe1d4873d81d9ca,,,,,,,sngl,resources/DY.BMP,resources/Empty.png,WildCard_NonEx,-0.354629601,-0.024074088,1,0,0,1.4315,optionLeft,45,6140,3,25,0,25,0,1,,,,,,,,,,,,,,,,,,,,,,,,,,,,,,,,,,,,,,,
,,,,,,,,2023-08-06_08h29.46.557,HF_wild_card,2022.2.4,Win32,59.89099838,5c42c4b05aca820001f71477,64ce5acb97489d65b14ecc7a,64cf4bc36fe1d4873d81d9ca,,,,,,,decisionTrl,resources/DB.BMP,resources/DR.BMP,Door4,0.454629686,-0.004629644,1,0,0,1.0965,optionRight,60,6200,3,26,0,26,0,1,,,,,,,,,,,,,,,,,,,,,,,,,,,,,,,,,,,,,,,
,,,,,,,,2023-08-06_08h29.46.557,HF_wild_card,2022.2.4,Win32,59.89099838,5c42c4b05aca820001f71477,64ce5acb97489d65b14ecc7a,64cf4bc36fe1d4873d81d9ca,,,,,,,decisionTrl,resources/DY.BMP,resources/DB.BMP,WildCard_NonEx,-0.312037023,-0.05648151,1,0,0,2.2445,optionLeft,45,6245,3,27,0,27,0,1,,,,,,,,,,,,,,,,,,,,,,,,,,,,,,,,,,,,,,,
,,,,,,,,2023-08-06_08h29.46.557,HF_wild_card,2022.2.4,Win32,59.89099838,5c42c4b05aca820001f71477,64ce5acb97489d65b14ecc7a,64cf4bc36fe1d4873d81d9ca,,,,,,,sngl,resources/DBN.BMP,resources/Empty.png,Door1,-0.271296268,-0.03148151,1,0,0,1.6394,optionLeft,30,6275,3,28,0,28,0,1,,,,,,,,,,,,,,,,,,,,,,,,,,,,,,,,,,,,,,,
,,,,,,,,2023-08-06_08h29.46.557,HF_wild_card,2022.2.4,Win32,59.89099838,5c42c4b05aca820001f71477,64ce5acb97489d65b14ecc7a,64cf4bc36fe1d4873d81d9ca,,,,,,,ctch,resources/DP.BMP,resources/DB.BMP,Door3,0.445370399,-0.059259288,1,0,0,1.7471,optionRight,70,6345,3,29,0,29,0,1,,,,,,,,,,,,,,,,,,,,,,,,,,,,,,,,,,,,,,,
,,,,,,,,2023-08-06_08h29.46.557,HF_wild_card,2022.2.4,Win32,59.89099838,5c42c4b05aca820001f71477,64ce5acb97489d65b14ecc7a,64cf4bc36fe1d4873d81d9ca,,,,,,,sngl,resources/Empty.png,resources/DP.BMP,Door2,0.357407464,0.01851849,1,0,0,2.2134,optionRight,20,6365,3,30,0,30,0,1,,,,,,,,,,,,,,,,,,,,,,,,,,,,,,,,,,,,,,,
,,,,,,,,2023-08-06_08h29.46.557,HF_wild_card,2022.2.4,Win32,59.89099838,5c42c4b05aca820001f71477,64ce5acb97489d65b14ecc7a,64cf4bc36fe1d4873d81d9ca,,,,,,,sngl,resources/DR.BMP,resources/Empty.png,Door4,-0.345370356,-0.028703732,1,0,0,0.9944,optionLeft,80,6445,3,31,0,31,0,1,,,,,,,,,,,,,,,,,,,,,,,,,,,,,,,,,,,,,,,
,,,,,,,,2023-08-06_08h29.46.557,HF_wild_card,2022.2.4,Win32,59.89099838,5c42c4b05aca820001f71477,64ce5acb97489d65b14ecc7a,64cf4bc36fe1d4873d81d9ca,,,,,,,sngl,resources/Empty.png,resources/DY.BMP,WildCard_NonEx,0.242592621,-0.065740755,1,0,0,1.0776,optionRight,45,6490,3,32,0,32,0,1,,,,,,,,,,,,,,,,,,,,,,,,,,,,,,,,,,,,,,,
,,,,,,,,2023-08-06_08h29.46.557,HF_wild_card,2022.2.4,Win32,59.89099838,5c42c4b05aca820001f71477,64ce5acb97489d65b14ecc7a,64cf4bc36fe1d4873d81d9ca,,,,,,,sngl,resources/Empty.png,resources/DR.BMP,Door4,0.360185242,-0.038888889,1,0,0,0.8824,optionRight,60,6550,3,33,0,33,0,1,,,,,,,,,,,,,,,,,,,,,,,,,,,,,,,,,,,,,,,
,,,,,,,,2023-08-06_08h29.46.557,HF_wild_card,2022.2.4,Win32,59.89099838,5c42c4b05aca820001f71477,64ce5acb97489d65b14ecc7a,64cf4bc36fe1d4873d81d9ca,,,,,,,decisionTrl,resources/DP.BMP,resources/DBN.BMP,Door1,0.428703732,0.075925912,1,0,0,1.5932,optionRight,30,6580,3,34,0,34,0,1,,,,,,,,,,,,,,,,,,,,,,,,,,,,,,,,,,,,,,,
,,,,,,,,2023-08-06_08h29.46.557,HF_wild_card,2022.2.4,Win32,59.89099838,5c42c4b05aca820001f71477,64ce5acb97489d65b14ecc7a,64cf4bc36fe1d4873d81d9ca,,,,,,,decisionTrl,resources/DY.BMP,resources/DP.BMP,WildCard_NonEx,-0.360185157,-0.088888889,1,0,0,1.7905,optionLeft,45,6625,3,35,0,35,0,1,,,,,,,,,,,,,,,,,,,,,,,,,,,,,,,,,,,,,,,
,,,,,,,,2023-08-06_08h29.46.557,HF_wild_card,2022.2.4,Win32,59.89099838,5c42c4b05aca820001f71477,64ce5acb97489d65b14ecc7a,64cf4bc36fe1d4873d81d9ca,,,,,,,sngl,resources/DP.BMP,resources/Empty.png,Door2,-0.310185157,-0.05,1,0,0,1.243,optionLeft,40,6665,3,36,0,36,0,1,,,,,,,,,,,,,,,,,,,,,,,,,,,,,,,,,,,,,,,
,,,,,,,,2023-08-06_08h29.46.557,HF_wild_card,2022.2.4,Win32,59.89099838,5c42c4b05aca820001f71477,64ce5acb97489d65b14ecc7a,64cf4bc36fe1d4873d81d9ca,,,,,,,decisionTrl,resources/DP.BMP,resources/DBN.BMP,Door2,-0.370370356,-0.051851866,1,0,0,4.1046,optionLeft,40,6705,3,37,0,37,0,1,,,,,,,,,,,,,,,,,,,,,,,,,,,,,,,,,,,,,,,
,,,,,,,,2023-08-06_08h29.46.557,HF_wild_card,2022.2.4,Win32,59.89099838,5c42c4b05aca820001f71477,64ce5acb97489d65b14ecc7a,64cf4bc36fe1d4873d81d9ca,,,,,,,sngl,resources/Empty.png,resources/DB.BMP,Door3,0.174074131,-0.042592621,1,0,0,1.1272,optionRight,70,6775,3,38,0,38,0,1,,,,,,,,,,,,,,,,,,,,,,,,,,,,,,,,,,,,,,,
,,,,,,,,2023-08-06_08h29.46.557,HF_wild_card,2022.2.4,Win32,59.89099838,5c42c4b05aca820001f71477,64ce5acb97489d65b14ecc7a,64cf4bc36fe1d4873d81d9ca,,,,,,,decisionTrl,resources/DR.BMP,resources/DB.BMP,Door4,-0.389814801,-0.07129631,1,0,0,1.5516,optionLeft,80,6855,3,39,0,39,0,1,,,,,,,,,,,,,,,,,,,,,,,,,,,,,,,,,,,,,,,
,,,,,,,,2023-08-06_08h29.46.557,HF_wild_card,2022.2.4,Win32,59.89099838,5c42c4b05aca820001f71477,64ce5acb97489d65b14ecc7a,64cf4bc36fe1d4873d81d9ca,,,,,,,decisionTrl,resources/DBN.BMP,resources/DP.BMP,Door2,0.354629686,-0.104629644,1,0,0,1.5775,optionRight,40,6895,3,40,0,40,0,1,,,,,,,,,,,,,,,,,,,,,,,,,,,,,,,,,,,,,,,
,,,,,,,,2023-08-06_08h29.46.557,HF_wild_card,2022.2.4,Win32,59.89099838,5c42c4b05aca820001f71477,64ce5acb97489d65b14ecc7a,64cf4bc36fe1d4873d81d9ca,,,,,,,ctch,resources/DB.BMP,resources/DP.BMP,Door3,-0.417592578,-0.115740755,1,0,0,1.0082,optionLeft,70,6965,3,41,0,41,0,1,,,,,,,,,,,,,,,,,,,,,,,,,,,,,,,,,,,,,,,
,,,,,,,,2023-08-06_08h29.46.557,HF_wild_card,2022.2.4,Win32,59.89099838,5c42c4b05aca820001f71477,64ce5acb97489d65b14ecc7a,64cf4bc36fe1d4873d81d9ca,,,,,,,decisionTrl,resources/DB.BMP,resources/DR.BMP,Door4,0.347222222,-0.049074088,1,0,0,0.9408,optionRight,80,7045,3,42,0,42,0,1,,,,,,,,,,,,,,,,,,,,,,,,,,,,,,,,,,,,,,,
,,,,,,,,2023-08-06_08h29.46.557,HF_wild_card,2022.2.4,Win32,59.89099838,5c42c4b05aca820001f71477,64ce5acb97489d65b14ecc7a,64cf4bc36fe1d4873d81d9ca,,,,,,,sngl,resources/DB.BMP,resources/Empty.png,Door3,-0.333333333,-0.124074088,1,0,0,1.0066,optionLeft,70,7115,3,43,0,43,0,1,,,,,,,,,,,,,,,,,,,,,,,,,,,,,,,,,,,,,,,
,,,,,,,,2023-08-06_08h29.46.557,HF_wild_card,2022.2.4,Win32,59.89099838,5c42c4b05aca820001f71477,64ce5acb97489d65b14ecc7a,64cf4bc36fe1d4873d81d9ca,,,,,,,,,,,,,,,,,,,,,,,,,,2,0,2,0,1,,,,,,,,,,,,,,,,,,,,,,,,,,,,,,,,,,
,,,,,,,,2023-08-06_08h29.46.557,HF_wild_card,2022.2.4,Win32,59.89099838,5c42c4b05aca820001f71477,64ce5acb97489d65b14ecc7a,64cf4bc36fe1d4873d81d9ca,,,,,,,ctch,resources/DR.BMP,resources/DBN.BMP,Door4,-0.39351849,-0.04629631,1,0,0,1.2941,optionLeft,80,7195,4,0,0,0,0,1,,,,,,,,,,,,,,,,,,,,,,,,,,,,,,,,,,,,,,,
,,,,,,,,2023-08-06_08h29.46.557,HF_wild_card,2022.2.4,Win32,59.89099838,5c42c4b05aca820001f71477,64ce5acb97489d65b14ecc7a,64cf4bc36fe1d4873d81d9ca,,,,,,,ctch,resources/DB.BMP,resources/DP.BMP,Door3,-0.249074046,-0.034259288,1,0,0,1.6194,optionLeft,70,7265,4,1,0,1,0,1,,,,,,,,,,,,,,,,,,,,,,,,,,,,,,,,,,,,,,,
,,,,,,,,2023-08-06_08h29.46.557,HF_wild_card,2022.2.4,Win32,59.89099838,5c42c4b05aca820001f71477,64ce5acb97489d65b14ecc7a,64cf4bc36fe1d4873d81d9ca,,,,,,,decisionTrl,resources/DG.BMP,resources/DR.BMP,Door4,0.362963019,-0.018518533,1,0,0,1.3391,optionRight,80,7345,4,2,0,2,0,1,,,,,,,,,,,,,,,,,,,,,,,,,,,,,,,,,,,,,,,
,,,,,,,,2023-08-06_08h29.46.557,HF_wild_card,2022.2.4,Win32,59.89099838,5c42c4b05aca820001f71477,64ce5acb97489d65b14ecc7a,64cf4bc36fe1d4873d81d9ca,,,,,,,sngl,resources/DG.BMP,resources/Empty.png,WildCard_Ex,-0.347222222,0,1,0,0,1.3592,optionLeft,5,7350,4,3,0,3,0,1,,,,,,,,,,,,,,,,,,,,,,,,,,,,,,,,,,,,,,,
,,,,,,,,2023-08-06_08h29.46.557,HF_wild_card,2022.2.4,Win32,59.89099838,5c42c4b05aca820001f71477,64ce5acb97489d65b14ecc7a,64cf4bc36fe1d4873d81d9ca,,,,,,,sngl,resources/Empty.png,resources/DR.BMP,Door4,0.325,-0.00648151,1,0,0,1.0365,optionRight,80,7430,4,4,0,4,0,1,,,,,,,,,,,,,,,,,,,,,,,,,,,,,,,,,,,,,,,
,,,,,,,,2023-08-06_08h29.46.557,HF_wild_card,2022.2.4,Win32,59.89099838,5c42c4b05aca820001f71477,64ce5acb97489d65b14ecc7a,64cf4bc36fe1d4873d81d9ca,,,,,,,decisionTrl,resources/DP.BMP,resources/DBN.BMP,Door1,0.38148151,-0.012962977,1,0,0,2.2042,optionRight,30,7460,4,5,0,5,0,1,,,,,,,,,,,,,,,,,,,,,,,,,,,,,,,,,,,,,,,
,,,,,,,,2023-08-06_08h29.46.557,HF_wild_card,2022.2.4,Win32,59.89099838,5c42c4b05aca820001f71477,64ce5acb97489d65b14ecc7a,64cf4bc36fe1d4873d81d9ca,,,,,,,decisionTrl,resources/DP.BMP,resources/DBN.BMP,Door2,-0.296296268,-0.091666667,1,0,0,1.4747,optionLeft,20,7480,4,6,0,6,0,1,,,,,,,,,,,,,,,,,,,,,,,,,,,,,,,,,,,,,,,
,,,,,,,,2023-08-06_08h29.46.557,HF_wild_card,2022.2.4,Win32,59.89099838,5c42c4b05aca820001f71477,64ce5acb97489d65b14ecc7a,64cf4bc36fe1d4873d81d9ca,,,,,,,decisionTrl,resources/DR.BMP,resources/DB.BMP,Door4,-0.357407379,-0.051851866,1,0,0,1.8138,optionLeft,60,7540,4,7,0,7,0,1,,,,,,,,,,,,,,,,,,,,,,,,,,,,,,,,,,,,,,,
,,,,,,,,2023-08-06_08h29.46.557,HF_wild_card,2022.2.4,Win32,59.89099838,5c42c4b05aca820001f71477,64ce5acb97489d65b14ecc7a,64cf4bc36fe1d4873d81d9ca,,,,,,,ctch,resources/DBN.BMP,resources/DR.BMP,Door4,0.432407464,-0.050925954,1,0,0,0.8832,optionRight,60,7600,4,8,0,8,0,1,,,,,,,,,,,,,,,,,,,,,,,,,,,,,,,,,,,,,,,
,,,,,,,,2023-08-06_08h29.46.557,HF_wild_card,2022.2.4,Win32,59.89099838,5c42c4b05aca820001f71477,64ce5acb97489d65b14ecc7a,64cf4bc36fe1d4873d81d9ca,,,,,,,ctch,resources/DP.BMP,resources/DB.BMP,Door3,0.365740797,-0.061111111,1,0,0,2.0315,optionRight,70,7670,4,9,0,9,0,1,,,,,,,,,,,,,,,,,,,,,,,,,,,,,,,,,,,,,,,
,,,,,,,,2023-08-06_08h29.46.557,HF_wild_card,2022.2.4,Win32,59.89099838,5c42c4b05aca820001f71477,64ce5acb97489d65b14ecc7a,64cf4bc36fe1d4873d81d9ca,,,,,,,sngl,resources/DP.BMP,resources/Empty.png,Door2,-0.314814801,-0.052777778,1,0,0,1.4752,optionLeft,20,7690,4,10,0,10,0,1,,,,,,,,,,,,,,,,,,,,,,,,,,,,,,,,,,,,,,,
,,,,,,,,2023-08-06_08h29.46.557,HF_wild_card,2022.2.4,Win32,59.89099838,5c42c4b05aca820001f71477,64ce5acb97489d65b14ecc7a,64cf4bc36fe1d4873d81d9ca,,,,,,,decisionTrl,resources/DBN.BMP,resources/DP.BMP,Door2,0.367592621,-0.070370399,1,0,0,1.521,optionRight,20,7710,4,11,0,11,0,1,,,,,,,,,,,,,,,,,,,,,,,,,,,,,,,,,,,,,,,
,,,,,,,,2023-08-06_08h29.46.557,HF_wild_card,2022.2.4,Win32,59.89099838,5c42c4b05aca820001f71477,64ce5acb97489d65b14ecc7a,64cf4bc36fe1d4873d81d9ca,,,,,,,sngl,resources/Empty.png,resources/DG.BMP,WildCard_Ex,0.261111111,-0.032407422,1,0,0,1.5244,optionRight,5,7715,4,12,0,12,0,1,,,,,,,,,,,,,,,,,,,,,,,,,,,,,,,,,,,,,,,
,,,,,,,,2023-08-06_08h29.46.557,HF_wild_card,2022.2.4,Win32,59.89099838,5c42c4b05aca820001f71477,64ce5acb97489d65b14ecc7a,64cf4bc36fe1d4873d81d9ca,,,,,,,ctch,resources/DBN.BMP,resources/DR.BMP,Door4,0.299074131,-0.101851866,1,0,0,1.4858,optionRight,80,7795,4,13,0,13,0,1,,,,,,,,,,,,,,,,,,,,,,,,,,,,,,,,,,,,,,,
,,,,,,,,2023-08-06_08h29.46.557,HF_wild_card,2022.2.4,Win32,59.89099838,5c42c4b05aca820001f71477,64ce5acb97489d65b14ecc7a,64cf4bc36fe1d4873d81d9ca,,,,,,,decisionTrl,resources/DB.BMP,resources/DR.BMP,Door4,0.365740797,-0.069444444,1,0,0,1.9713,optionRight,80,7875,4,14,0,14,0,1,,,,,,,,,,,,,,,,,,,,,,,,,,,,,,,,,,,,,,,
,,,,,,,,2023-08-06_08h29.46.557,HF_wild_card,2022.2.4,Win32,59.89099838,5c42c4b05aca820001f71477,64ce5acb97489d65b14ecc7a,64cf4bc36fe1d4873d81d9ca,,,,,,,decisionTrl,resources/DBN.BMP,resources/DP.BMP,Door1,-0.312037023,-0.05648151,1,0,0,1.5273,optionLeft,30,7905,4,15,0,15,0,1,,,,,,,,,,,,,,,,,,,,,,,,,,,,,,,,,,,,,,,
,,,,,,,,2023-08-06_08h29.46.557,HF_wild_card,2022.2.4,Win32,59.89099838,5c42c4b05aca820001f71477,64ce5acb97489d65b14ecc7a,64cf4bc36fe1d4873d81d9ca,,,,,,,decisionTrl,resources/DBN.BMP,resources/DP.BMP,Door2,0.420370399,-0.076851866,1,0,0,2.1548,optionRight,20,7925,4,16,0,16,0,1,,,,,,,,,,,,,,,,,,,,,,,,,,,,,,,,,,,,,,,
,,,,,,,,2023-08-06_08h29.46.557,HF_wild_card,2022.2.4,Win32,59.89099838,5c42c4b05aca820001f71477,64ce5acb97489d65b14ecc7a,64cf4bc36fe1d4873d81d9ca,,,,,,,decisionTrl,resources/DP.BMP,resources/DBN.BMP,Door1,0.249074131,-0.077777778,1,0,0,2.3262,optionRight,30,7955,4,17,0,17,0,1,,,,,,,,,,,,,,,,,,,,,,,,,,,,,,,,,,,,,,,
,,,,,,,,2023-08-06_08h29.46.557,HF_wild_card,2022.2.4,Win32,59.89099838,5c42c4b05aca820001f71477,64ce5acb97489d65b14ecc7a,64cf4bc36fe1d4873d81d9ca,,,,,,,decisionTrl,resources/DG.BMP,resources/DB.BMP,Door3,0.375,-0.038888889,1,0,0,1.2627,optionRight,70,8025,4,18,0,18,0,1,,,,,,,,,,,,,,,,,,,,,,,,,,,,,,,,,,,,,,,
,,,,,,,,2023-08-06_08h29.46.557,HF_wild_card,2022.2.4,Win32,59.89099838,5c42c4b05aca820001f71477,64ce5acb97489d65b14ecc7a,64cf4bc36fe1d4873d81d9ca,,,,,,,decisionTrl,resources/DB.BMP,resources/DR.BMP,Door4,0.416666667,-0.054629644,1,0,0,1.3305,optionRight,80,8105,4,19,0,19,0,1,,,,,,,,,,,,,,,,,,,,,,,,,,,,,,,,,,,,,,,
,,,,,,,,2023-08-06_08h29.46.557,HF_wild_card,2022.2.4,Win32,59.89099838,5c42c4b05aca820001f71477,64ce5acb97489d65b14ecc7a,64cf4bc36fe1d4873d81d9ca,,,,,,,decisionTrl,resources/DG.BMP,resources/DBN.BMP,Door1,0.425,0.009259245,1,0,0,1.8237,optionRight,30,8135,4,20,0,20,0,1,,,,,,,,,,,,,,,,,,,,,,,,,,,,,,,,,,,,,,,
,,,,,,,,2023-08-06_08h29.46.557,HF_wild_card,2022.2.4,Win32,59.89099838,5c42c4b05aca820001f71477,64ce5acb97489d65b14ecc7a,64cf4bc36fe1d4873d81d9ca,,,,,,,decisionTrl,resources/DBN.BMP,resources/DG.BMP,Door1,-0.37870369,-0.003703732,1,0,0,1.2151,optionLeft,30,8165,4,21,0,21,0,1,,,,,,,,,,,,,,,,,,,,,,,,,,,,,,,,,,,,,,,
,,,,,,,,2023-08-06_08h29.46.557,HF_wild_card,2022.2.4,Win32,59.89099838,5c42c4b05aca820001f71477,64ce5acb97489d65b14ecc7a,64cf4bc36fe1d4873d81d9ca,,,,,,,decisionTrl,resources/DR.BMP,resources/DG.BMP,Door4,-0.367592578,-0.150925954,1,0,0,1.1092,optionLeft,60,8225,4,22,0,22,0,1,,,,,,,,,,,,,,,,,,,,,,,,,,,,,,,,,,,,,,,
,,,,,,,,2023-08-06_08h29.46.557,HF_wild_card,2022.2.4,Win32,59.89099838,5c42c4b05aca820001f71477,64ce5acb97489d65b14ecc7a,64cf4bc36fe1d4873d81d9ca,,,,,,,decisionTrl,resources/DB.BMP,resources/DG.BMP,Door3,-0.306481467,-0.077777778,1,0,0,1.0365,optionLeft,70,8295,4,23,0,23,0,1,,,,,,,,,,,,,,,,,,,,,,,,,,,,,,,,,,,,,,,
,,,,,,,,2023-08-06_08h29.46.557,HF_wild_card,2022.2.4,Win32,59.89099838,5c42c4b05aca820001f71477,64ce5acb97489d65b14ecc7a,64cf4bc36fe1d4873d81d9ca,,,,,,,decisionTrl,resources/DR.BMP,resources/DB.BMP,Door4,-0.362037023,-0.075,1,0,0,1.484,optionLeft,60,8355,4,24,0,24,0,1,,,,,,,,,,,,,,,,,,,,,,,,,,,,,,,,,,,,,,,
,,,,,,,,2023-08-06_08h29.46.557,HF_wild_card,2022.2.4,Win32,59.89099838,5c42c4b05aca820001f71477,64ce5acb97489d65b14ecc7a,64cf4bc36fe1d4873d81d9ca,,,,,,,sngl,resources/DR.BMP,resources/Empty.png,Door4,-0.413888889,-0.082407422,1,0,0,1.1822,optionLeft,60,8415,4,25,0,25,0,1,,,,,,,,,,,,,,,,,,,,,,,,,,,,,,,,,,,,,,,
,,,,,,,,2023-08-06_08h29.46.557,HF_wild_card,2022.2.4,Win32,59.89099838,5c42c4b05aca820001f71477,64ce5acb97489d65b14ecc7a,64cf4bc36fe1d4873d81d9ca,,,,,,,sngl,resources/DBN.BMP,resources/Empty.png,Door1,-0.255555556,0.010185157,1,0,0,1.252,optionLeft,30,8445,4,26,0,26,0,1,,,,,,,,,,,,,,,,,,,,,,,,,,,,,,,,,,,,,,,
,,,,,,,,2023-08-06_08h29.46.557,HF_wild_card,2022.2.4,Win32,59.89099838,5c42c4b05aca820001f71477,64ce5acb97489d65b14ecc7a,64cf4bc36fe1d4873d81d9ca,,,,,,,sngl,resources/Empty.png,resources/DP.BMP,Door2,0.345370399,-0.069444444,1,0,0,2.5073,optionRight,40,8485,4,27,0,27,0,1,,,,,,,,,,,,,,,,,,,,,,,,,,,,,,,,,,,,,,,
,,,,,,,,2023-08-06_08h29.46.557,HF_wild_card,2022.2.4,Win32,59.89099838,5c42c4b05aca820001f71477,64ce5acb97489d65b14ecc7a,64cf4bc36fe1d4873d81d9ca,,,,,,,decisionTrl,resources/DP.BMP,resources/DG.BMP,Door2,-0.331481467,-0.05648151,1,0,0,2.7969,optionLeft,20,8505,4,28,0,28,0,1,,,,,,,,,,,,,,,,,,,,,,,,,,,,,,,,,,,,,,,
,,,,,,,,2023-08-06_08h29.46.557,HF_wild_card,2022.2.4,Win32,59.89099838,5c42c4b05aca820001f71477,64ce5acb97489d65b14ecc7a,64cf4bc36fe1d4873d81d9ca,,,,,,,sngl,resources/DG.BMP,resources/Empty.png,WildCard_Ex,-0.326851824,-0.001851866,1,0,0,1.4262,optionLeft,95,8600,4,29,0,29,0,1,,,,,,,,,,,,,,,,,,,,,,,,,,,,,,,,,,,,,,,
,,,,,,,,2023-08-06_08h29.46.557,HF_wild_card,2022.2.4,Win32,59.89099838,5c42c4b05aca820001f71477,64ce5acb97489d65b14ecc7a,64cf4bc36fe1d4873d81d9ca,,,,,,,sngl,resources/DB.BMP,resources/Empty.png,Door3,-0.291666667,-0.004629644,1,0,0,1.263,optionLeft,70,8670,4,30,0,30,0,1,,,,,,,,,,,,,,,,,,,,,,,,,,,,,,,,,,,,,,,
,,,,,,,,2023-08-06_08h29.46.557,HF_wild_card,2022.2.4,Win32,59.89099838,5c42c4b05aca820001f71477,64ce5acb97489d65b14ecc7a,64cf4bc36fe1d4873d81d9ca,,,,,,,ctch,resources/DR.BMP,resources/DBN.BMP,Door4,-0.355555556,-0.020370399,1,0,0,1.4571,optionLeft,60,8730,4,31,0,31,0,1,,,,,,,,,,,,,,,,,,,,,,,,,,,,,,,,,,,,,,,
,,,,,,,,2023-08-06_08h29.46.557,HF_wild_card,2022.2.4,Win32,59.89099838,5c42c4b05aca820001f71477,64ce5acb97489d65b14ecc7a,64cf4bc36fe1d4873d81d9ca,,,,,,,ctch,resources/DP.BMP,resources/DB.BMP,Door3,0.300925954,-0.09629631,1,0,0,3.0284,optionRight,70,8800,4,32,0,32,0,1,,,,,,,,,,,,,,,,,,,,,,,,,,,,,,,,,,,,,,,
,,,,,,,,2023-08-06_08h29.46.557,HF_wild_card,2022.2.4,Win32,59.89099838,5c42c4b05aca820001f71477,64ce5acb97489d65b14ecc7a,64cf4bc36fe1d4873d81d9ca,,,,,,,ctch,resources/DB.BMP,resources/DP.BMP,Door3,-0.330555556,-0.03148151,1,0,0,1.4849,optionLeft,70,8870,4,33,0,33,0,1,,,,,,,,,,,,,,,,,,,,,,,,,,,,,,,,,,,,,,,
,,,,,,,,2023-08-06_08h29.46.557,HF_wild_card,2022.2.4,Win32,59.89099838,5c42c4b05aca820001f71477,64ce5acb97489d65b14ecc7a,64cf4bc36fe1d4873d81d9ca,,,,,,,decisionTrl,resources/DG.BMP,resources/DP.BMP,WildCard_Ex,-0.307407379,-0.045370399,1,0,0,2.6122,optionLeft,5,8875,4,34,0,34,0,1,,,,,,,,,,,,,,,,,,,,,,,,,,,,,,,,,,,,,,,
,,,,,,,,2023-08-06_08h29.46.557,HF_wild_card,2022.2.4,Win32,59.89099838,5c42c4b05aca820001f71477,64ce5acb97489d65b14ecc7a,64cf4bc36fe1d4873d81d9ca,,,,,,,decisionTrl,resources/DP.BMP,resources/DBN.BMP,Door2,-0.380555556,-0.058333333,1,0,0,1.4335,optionLeft,40,8915,4,35,0,35,0,1,,,,,,,,,,,,,,,,,,,,,,,,,,,,,,,,,,,,,,,
,,,,,,,,2023-08-06_08h29.46.557,HF_wild_card,2022.2.4,Win32,59.89099838,5c42c4b05aca820001f71477,64ce5acb97489d65b14ecc7a,64cf4bc36fe1d4873d81d9ca,,,,,,,sngl,resources/Empty.png,resources/DG.BMP,WildCard_Ex,0.441666667,-0.05,1,0,0,1.1321,optionRight,95,9010,4,36,0,36,0,1,,,,,,,,,,,,,,,,,,,,,,,,,,,,,,,,,,,,,,,
,,,,,,,,2023-08-06_08h29.46.557,HF_wild_card,2022.2.4,Win32,59.89099838,5c42c4b05aca820001f71477,64ce5acb97489d65b14ecc7a,64cf4bc36fe1d4873d81d9ca,,,,,,,decisionTrl,resources/DBN.BMP,resources/DP.BMP,Door2,0.409259288,-0.058333333,1,0,0,1.4134,optionRight,20,9030,4,37,0,37,0,1,,,,,,,,,,,,,,,,,,,,,,,,,,,,,,,,,,,,,,,
,,,,,,,,2023-08-06_08h29.46.557,HF_wild_card,2022.2.4,Win32,59.89099838,5c42c4b05aca820001f71477,64ce5acb97489d65b14ecc7a,64cf4bc36fe1d4873d81d9ca,,,,,,,decisionTrl,resources/DR.BMP,resources/DB.BMP,Door4,-0.325925912,-0.063888889,1,0,0,1.1067,optionLeft,60,9090,4,38,0,38,0,1,,,,,,,,,,,,,,,,,,,,,,,,,,,,,,,,,,,,,,,
,,,,,,,,2023-08-06_08h29.46.557,HF_wild_card,2022.2.4,Win32,59.89099838,5c42c4b05aca820001f71477,64ce5acb97489d65b14ecc7a,64cf4bc36fe1d4873d81d9ca,,,,,,,decisionTrl,resources/DR.BMP,resources/DB.BMP,Door4,-0.307407379,-0.067592621,1,0,0,1.1649,optionLeft,60,9150,4,39,0,39,0,1,,,,,,,,,,,,,,,,,,,,,,,,,,,,,,,,,,,,,,,
,,,,,,,,2023-08-06_08h29.46.557,HF_wild_card,2022.2.4,Win32,59.89099838,5c42c4b05aca820001f71477,64ce5acb97489d65b14ecc7a,64cf4bc36fe1d4873d81d9ca,,,,,,,sngl,resources/Empty.png,resources/DBN.BMP,Door1,0.432407464,0.052777778,1,0,0,1.2119,optionRight,30,9180,4,40,0,40,0,1,,,,,,,,,,,,,,,,,,,,,,,,,,,,,,,,,,,,,,,
,,,,,,,,2023-08-06_08h29.46.557,HF_wild_card,2022.2.4,Win32,59.89099838,5c42c4b05aca820001f71477,64ce5acb97489d65b14ecc7a,64cf4bc36fe1d4873d81d9ca,,,,,,,decisionTrl,resources/DB.BMP,resources/DR.BMP,Door3,-0.40370369,-0.092592621,1,0,0,1.0088,optionLeft,70,9250,4,41,0,41,0,1,,,,,,,,,,,,,,,,,,,,,,,,,,,,,,,,,,,,,,,
,,,,,,,,2023-08-06_08h29.46.557,HF_wild_card,2022.2.4,Win32,59.89099838,5c42c4b05aca820001f71477,64ce5acb97489d65b14ecc7a,64cf4bc36fe1d4873d81d9ca,,,,,,,sngl,resources/Empty.png,resources/DB.BMP,Door3,0.40648151,-0.012962977,1,0,0,0.9997,optionRight,70,9320,4,42,0,42,0,1,,,,,,,,,,,,,,,,,,,,,,,,,,,,,,,,,,,,,,,
,,,,,,,,2023-08-06_08h29.46.557,HF_wild_card,2022.2.4,Win32,59.89099838,5c42c4b05aca820001f71477,64ce5acb97489d65b14ecc7a,64cf4bc36fe1d4873d81d9ca,,,,,,,decisionTrl,resources/DB.BMP,resources/DR.BMP,Door4,0.329629686,-0.064814843,1,0,0,1.7998,optionRight,80,9400,4,43,0,43,0,1,,,,,,,,,,,,,,,,,,,,,,,,,,,,,,,,,,,,,,,
,,,,,,,,2023-08-06_08h29.46.557,HF_wild_card,2022.2.4,Win32,59.89099838,5c42c4b05aca820001f71477,64ce5acb97489d65b14ecc7a,64cf4bc36fe1d4873d81d9ca,,,,,,,,,,,,,,,,,,,,,,,,,,3,0,3,0,1,,,,,,,,,,,,,,,,,,,,,,,,,,,,,,,,,,
,,,,,,,,2023-08-06_08h29.46.557,HF_wild_card,2022.2.4,Win32,59.89099838,5c42c4b05aca820001f71477,64ce5acb97489d65b14ecc7a,64cf4bc36fe1d4873d81d9ca,,,,,,,decisionTrl,resources/DR.BMP,resources/DB.BMP,Door4,-0.326851824,-0.094444444,1,0,0,1.9669,optionLeft,80,9480,5,0,0,0,0,1,,,,,,,,,,,,,,,,,,,,,,,,,,,,,,,,,,,,,,,
,,,,,,,,2023-08-06_08h29.46.557,HF_wild_card,2022.2.4,Win32,59.89099838,5c42c4b05aca820001f71477,64ce5acb97489d65b14ecc7a,64cf4bc36fe1d4873d81d9ca,,,,,,,decisionTrl,resources/DBN.BMP,resources/DG.BMP,WildCard_Ex,0.288888889,-0.152777778,1,0,0,2.9906,optionRight,5,9485,5,1,0,1,0,1,,,,,,,,,,,,,,,,,,,,,,,,,,,,,,,,,,,,,,,
,,,,,,,,2023-08-06_08h29.46.557,HF_wild_card,2022.2.4,Win32,59.89099838,5c42c4b05aca820001f71477,64ce5acb97489d65b14ecc7a,64cf4bc36fe1d4873d81d9ca,,,,,,,decisionTrl,resources/DBN.BMP,resources/DP.BMP,Door1,-0.344444444,-0.063888889,1,0,0,1.7366,optionLeft,30,9515,5,2,0,2,0,1,,,,,,,,,,,,,,,,,,,,,,,,,,,,,,,,,,,,,,,
,,,,,,,,2023-08-06_08h29.46.557,HF_wild_card,2022.2.4,Win32,59.89099838,5c42c4b05aca820001f71477,64ce5acb97489d65b14ecc7a,64cf4bc36fe1d4873d81d9ca,,,,,,,decisionTrl,resources/DBN.BMP,resources/DP.BMP,Door2,0.387037065,-0.018518533,1,0,0,1.3481,optionRight,20,9535,5,3,0,3,0,1,,,,,,,,,,,,,,,,,,,,,,,,,,,,,,,,,,,,,,,
,,,,,,,,2023-08-06_08h29.46.557,HF_wild_card,2022.2.4,Win32,59.89099838,5c42c4b05aca820001f71477,64ce5acb97489d65b14ecc7a,64cf4bc36fe1d4873d81d9ca,,,,,,,decisionTrl,resources/DB.BMP,resources/DG.BMP,Door3,-0.386111111,-0.027777778,1,0,0,1.3458,optionLeft,70,9605,5,4,0,4,0,1,,,,,,,,,,,,,,,,,,,,,,,,,,,,,,,,,,,,,,,
,,,,,,,,2023-08-06_08h29.46.557,HF_wild_card,2022.2.4,Win32,59.89099838,5c42c4b05aca820001f71477,64ce5acb97489d65b14ecc7a,64cf4bc36fe1d4873d81d9ca,,,,,,,decisionTrl,resources/DG.BMP,resources/DB.BMP,Door3,0.343518575,-0.019444444,1,0,0,1.1273,optionRight,70,9675,5,5,0,5,0,1,,,,,,,,,,,,,,,,,,,,,,,,,,,,,,,,,,,,,,,
,,,,,,,,2023-08-06_08h29.46.557,HF_wild_card,2022.2.4,Win32,59.89099838,5c42c4b05aca820001f71477,64ce5acb97489d65b14ecc7a,64cf4bc36fe1d4873d81d9ca,,,,,,,sngl,resources/DP.BMP,resources/Empty.png,Door2,-0.314814801,-0.027777778,1,0,0,0.9331,optionLeft,40,9715,5,6,0,6,0,1,,,,,,,,,,,,,,,,,,,,,,,,,,,,,,,,,,,,,,,
,,,,,,,,2023-08-06_08h29.46.557,HF_wild_card,2022.2.4,Win32,59.89099838,5c42c4b05aca820001f71477,64ce5acb97489d65b14ecc7a,64cf4bc36fe1d4873d81d9ca,,,,,,,sngl,resources/Empty.png,resources/DG.BMP,WildCard_Ex,0.379629686,-0.008333333,1,0,0,0.9253,optionRight,5,9720,5,7,0,7,0,1,,,,,,,,,,,,,,,,,,,,,,,,,,,,,,,,,,,,,,,
,,,,,,,,2023-08-06_08h29.46.557,HF_wild_card,2022.2.4,Win32,59.89099838,5c42c4b05aca820001f71477,64ce5acb97489d65b14ecc7a,64cf4bc36fe1d4873d81d9ca,,,,,,,decisionTrl,resources/DR.BMP,resources/DB.BMP,Door4,-0.342592578,-0.062962977,1,0,0,1.4244,optionLeft,60,9780,5,8,0,8,0,1,,,,,,,,,,,,,,,,,,,,,,,,,,,,,,,,,,,,,,,
,,,,,,,,2023-08-06_08h29.46.557,HF_wild_card,2022.2.4,Win32,59.89099838,5c42c4b05aca820001f71477,64ce5acb97489d65b14ecc7a,64cf4bc36fe1d4873d81d9ca,,,,,,,decisionTrl,resources/DB.BMP,resources/DR.BMP,Door4,0.338888889,-0.008333333,1,0,0,1.3966,optionRight,80,9860,5,9,0,9,0,1,,,,,,,,,,,,,,,,,,,,,,,,,,,,,,,,,,,,,,,
,,,,,,,,2023-08-06_08h29.46.557,HF_wild_card,2022.2.4,Win32,59.89099838,5c42c4b05aca820001f71477,64ce5acb97489d65b14ecc7a,64cf4bc36fe1d4873d81d9ca,,,,,,,sngl,resources/DG.BMP,resources/Empty.png,WildCard_Ex,-0.345370356,-0.069444444,1,0,0,1.1578,optionLeft,5,9865,5,10,0,10,0,1,,,,,,,,,,,,,,,,,,,,,,,,,,,,,,,,,,,,,,,
,,,,,,,,2023-08-06_08h29.46.557,HF_wild_card,2022.2.4,Win32,59.89099838,5c42c4b05aca820001f71477,64ce5acb97489d65b14ecc7a,64cf4bc36fe1d4873d81d9ca,,,,,,,decisionTrl,resources/DP.BMP,resources/DBN.BMP,Door2,-0.287962935,-0.122222222,1,0,0,1.9573,optionLeft,40,9905,5,11,0,11,0,1,,,,,,,,,,,,,,,,,,,,,,,,,,,,,,,,,,,,,,,
,,,,,,,,2023-08-06_08h29.46.557,HF_wild_card,2022.2.4,Win32,59.89099838,5c42c4b05aca820001f71477,64ce5acb97489d65b14ecc7a,64cf4bc36fe1d4873d81d9ca,,,,,,,ctch,resources/DP.BMP,resources/DB.BMP,Door3,0.323148176,-0.040740755,1,0,0,1.4285,optionRight,70,9975,5,12,0,12,0,1,,,,,,,,,,,,,,,,,,,,,,,,,,,,,,,,,,,,,,,
,,,,,,,,2023-08-06_08h29.46.557,HF_wild_card,2022.2.4,Win32,59.89099838,5c42c4b05aca820001f71477,64ce5acb97489d65b14ecc7a,64cf4bc36fe1d4873d81d9ca,,,,,,,sngl,resources/DG.BMP,resources/Empty.png,WildCard_Ex,-0.334259245,-0.078703732,1,0,0,1.3343,optionLeft,95,10070,5,13,0,13,0,1,,,,,,,,,,,,,,,,,,,,,,,,,,,,,,,,,,,,,,,
,,,,,,,,2023-08-06_08h29.46.557,HF_wild_card,2022.2.4,Win32,59.89099838,5c42c4b05aca820001f71477,64ce5acb97489d65b14ecc7a,64cf4bc36fe1d4873d81d9ca,,,,,,,decisionTrl,resources/DB.BMP,resources/DR.BMP,Door4,0.380555556,-0.055555556,1,0,0,1.1478,optionRight,60,10130,5,14,0,14,0,1,,,,,,,,,,,,,,,,,,,,,,,,,,,,,,,,,,,,,,,
,,,,,,,,2023-08-06_08h29.46.557,HF_wild_card,2022.2.4,Win32,59.89099838,5c42c4b05aca820001f71477,64ce5acb97489d65b14ecc7a,64cf4bc36fe1d4873d81d9ca,,,,,,,sngl,resources/DR.BMP,resources/Empty.png,Door4,-0.436111111,-0.069444444,1,0,0,0.9721,optionLeft,80,10210,5,15,0,15,0,1,,,,,,,,,,,,,,,,,,,,,,,,,,,,,,,,,,,,,,,
,,,,,,,,2023-08-06_08h29.46.557,HF_wild_card,2022.2.4,Win32,59.89099838,5c42c4b05aca820001f71477,64ce5acb97489d65b14ecc7a,64cf4bc36fe1d4873d81d9ca,,,,,,,decisionTrl,resources/DR.BMP,resources/DG.BMP,Door4,-0.352777778,-0.098148176,1,0,0,2.3262,optionLeft,80,10290,5,16,0,16,0,1,,,,,,,,,,,,,,,,,,,,,,,,,,,,,,,,,,,,,,,
,,,,,,,,2023-08-06_08h29.46.557,HF_wild_card,2022.2.4,Win32,59.89099838,5c42c4b05aca820001f71477,64ce5acb97489d65b14ecc7a,64cf4bc36fe1d4873d81d9ca,,,,,,,ctch,resources/DP.BMP,resources/DB.BMP,Door3,0.341666667,-0.024074088,1,0,0,1.3919,optionRight,70,10360,5,17,0,17,0,1,,,,,,,,,,,,,,,,,,,,,,,,,,,,,,,,,,,,,,,
,,,,,,,,2023-08-06_08h29.46.557,HF_wild_card,2022.2.4,Win32,59.89099838,5c42c4b05aca820001f71477,64ce5acb97489d65b14ecc7a,64cf4bc36fe1d4873d81d9ca,,,,,,,decisionTrl,resources/DG.BMP,resources/DBN.BMP,Door1,0.33148151,-0.027777778,1,0,0,1.4467,optionRight,30,10390,5,18,0,18,0,1,,,,,,,,,,,,,,,,,,,,,,,,,,,,,,,,,,,,,,,
,,,,,,,,2023-08-06_08h29.46.557,HF_wild_card,2022.2.4,Win32,59.89099838,5c42c4b05aca820001f71477,64ce5acb97489d65b14ecc7a,64cf4bc36fe1d4873d81d9ca,,,,,,,decisionTrl,resources/DB.BMP,resources/DR.BMP,Door4,0.412963019,-0.037037065,1,0,0,1.2465,optionRight,60,10450,5,19,0,19,0,1,,,,,,,,,,,,,,,,,,,,,,,,,,,,,,,,,,,,,,,
,,,,,,,,2023-08-06_08h29.46.557,HF_wild_card,2022.2.4,Win32,59.89099838,5c42c4b05aca820001f71477,64ce5acb97489d65b14ecc7a,64cf4bc36fe1d4873d81d9ca,,,,,,,decisionTrl,resources/DBN.BMP,resources/DP.BMP,Door2,0.370370399,-0.115740755,1,0,0,1.9855,optionRight,40,10490,5,20,0,20,0,1,,,,,,,,,,,,,,,,,,,,,,,,,,,,,,,,,,,,,,,
,,,,,,,,2023-08-06_08h29.46.557,HF_wild_card,2022.2.4,Win32,59.89099838,5c42c4b05aca820001f71477,64ce5acb97489d65b14ecc7a,64cf4bc36fe1d4873d81d9ca,,,,,,,sngl,resources/Empty.png,resources/DG.BMP,WildCard_Ex,0.451851908,-0.117592621,1,0,0,1.444,optionRight,95,10585,5,21,0,21,0,1,,,,,,,,,,,,,,,,,,,,,,,,,,,,,,,,,,,,,,,
,,,,,,,,2023-08-06_08h29.46.557,HF_wild_card,2022.2.4,Win32,59.89099838,5c42c4b05aca820001f71477,64ce5acb97489d65b14ecc7a,64cf4bc36fe1d4873d81d9ca,,,,,,,decisionTrl,resources/DBN.BMP,resources/DP.BMP,Door2,0.362963019,-0.084259288,1,0,0,1.343,optionRight,20,10605,5,22,0,22,0,1,,,,,,,,,,,,,,,,,,,,,,,,,,,,,,,,,,,,,,,
,,,,,,,,2023-08-06_08h29.46.557,HF_wild_card,2022.2.4,Win32,59.89099838,5c42c4b05aca820001f71477,64ce5acb97489d65b14ecc7a,64cf4bc36fe1d4873d81d9ca,,,,,,,decisionTrl,resources/DP.BMP,resources/DBN.BMP,Door2,-0.357407379,-0.074074088,1,0,0,1.5652,optionLeft,20,10625,5,23,0,23,0,1,,,,,,,,,,,,,,,,,,,,,,,,,,,,,,,,,,,,,,,
,,,,,,,,2023-08-06_08h29.46.557,HF_wild_card,2022.2.4,Win32,59.89099838,5c42c4b05aca820001f71477,64ce5acb97489d65b14ecc7a,64cf4bc36fe1d4873d81d9ca,,,,,,,sngl,resources/Empty.png,resources/DP.BMP,Door2,0.415740797,-0.060185199,1,0,0,0.9095,optionRight,20,10645,5,24,0,24,0,1,,,,,,,,,,,,,,,,,,,,,,,,,,,,,,,,,,,,,,,
,,,,,,,,2023-08-06_08h29.46.557,HF_wild_card,2022.2.4,Win32,59.89099838,5c42c4b05aca820001f71477,64ce5acb97489d65b14ecc7a,64cf4bc36fe1d4873d81d9ca,,,,,,,decisionTrl,resources/DR.BMP,resources/DB.BMP,Door4,-0.387962935,-0.072222222,1,0,0,1.4775,optionLeft,80,10725,5,25,0,25,0,1,,,,,,,,,,,,,,,,,,,,,,,,,,,,,,,,,,,,,,,
,,,,,,,,2023-08-06_08h29.46.557,HF_wild_card,2022.2.4,Win32,59.89099838,5c42c4b05aca820001f71477,64ce5acb97489d65b14ecc7a,64cf4bc36fe1d4873d81d9ca,,,,,,,sngl,resources/Empty.png,resources/DB.BMP,Door3,0.402777778,-0.027777778,1,0,0,2.0436,optionRight,70,10795,5,26,0,26,0,1,,,,,,,,,,,,,,,,,,,,,,,,,,,,,,,,,,,,,,,
,,,,,,,,2023-08-06_08h29.46.557,HF_wild_card,2022.2.4,Win32,59.89099838,5c42c4b05aca820001f71477,64ce5acb97489d65b14ecc7a,64cf4bc36fe1d4873d81d9ca,,,,,,,decisionTrl,resources/DP.BMP,resources/DG.BMP,Door2,-0.309259245,-0.104629644,1,0,0,3.581,optionLeft,40,10835,5,27,0,27,0,1,,,,,,,,,,,,,,,,,,,,,,,,,,,,,,,,,,,,,,,
,,,,,,,,2023-08-06_08h29.46.557,HF_wild_card,2022.2.4,Win32,59.89099838,5c42c4b05aca820001f71477,64ce5acb97489d65b14ecc7a,64cf4bc36fe1d4873d81d9ca,,,,,,,ctch,resources/DB.BMP,resources/DP.BMP,Door3,-0.331481467,-0.077777778,1,0,0,1.4278,optionLeft,70,10905,5,28,0,28,0,1,,,,,,,,,,,,,,,,,,,,,,,,,,,,,,,,,,,,,,,
,,,,,,,,2023-08-06_08h29.46.557,HF_wild_card,2022.2.4,Win32,59.89099838,5c42c4b05aca820001f71477,64ce5acb97489d65b14ecc7a,64cf4bc36fe1d4873d81d9ca,,,,,,,decisionTrl,resources/DG.BMP,resources/DP.BMP,Door2,0.421296353,-0.041666667,1,0,0,1.6765,optionRight,20,10925,5,29,0,29,0,1,,,,,,,,,,,,,,,,,,,,,,,,,,,,,,,,,,,,,,,
,,,,,,,,2023-08-06_08h29.46.557,HF_wild_card,2022.2.4,Win32,59.89099838,5c42c4b05aca820001f71477,64ce5acb97489d65b14ecc7a,64cf4bc36fe1d4873d81d9ca,,,,,,,decisionTrl,resources/DP.BMP,resources/DBN.BMP,Door2,-0.305555556,-0.033333333,1,0,0,1.5748,optionLeft,20,10945,5,30,0,30,0,1,,,,,,,,,,,,,,,,,,,,,,,,,,,,,,,,,,,,,,,
,,,,,,,,2023-08-06_08h29.46.557,HF_wild_card,2022.2.4,Win32,59.89099838,5c42c4b05aca820001f71477,64ce5acb97489d65b14ecc7a,64cf4bc36fe1d4873d81d9ca,,,,,,,decisionTrl,resources/DB.BMP,resources/DR.BMP,Door4,0.335185242,-0.012037065,1,0,0,0.9079,optionRight,80,11025,5,31,0,31,0,1,,,,,,,,,,,,,,,,,,,,,,,,,,,,,,,,,,,,,,,
,,,,,,,,2023-08-06_08h29.46.557,HF_wild_card,2022.2.4,Win32,59.89099838,5c42c4b05aca820001f71477,64ce5acb97489d65b14ecc7a,64cf4bc36fe1d4873d81d9ca,,,,,,,decisionTrl,resources/DG.BMP,resources/DR.BMP,Door4,0.359259288,-0.05648151,1,0,0,1.7761,optionRight,80,11105,5,32,0,32,0,1,,,,,,,,,,,,,,,,,,,,,,,,,,,,,,,,,,,,,,,
,,,,,,,,2023-08-06_08h29.46.557,HF_wild_card,2022.2.4,Win32,59.89099838,5c42c4b05aca820001f71477,64ce5acb97489d65b14ecc7a,64cf4bc36fe1d4873d81d9ca,,,,,,,decisionTrl,resources/DP.BMP,resources/DBN.BMP,Door2,-0.427777778,-0.109259288,1,0,0,2.2099,optionLeft,20,11125,5,33,0,33,0,1,,,,,,,,,,,,,,,,,,,,,,,,,,,,,,,,,,,,,,,
,,,,,,,,2023-08-06_08h29.46.557,HF_wild_card,2022.2.4,Win32,59.89099838,5c42c4b05aca820001f71477,64ce5acb97489d65b14ecc7a,64cf4bc36fe1d4873d81d9ca,,,,,,,ctch,resources/DBN.BMP,resources/DR.BMP,Door4,0.304629686,0.001851824,1,0,0,1.8295,optionRight,60,11185,5,34,0,34,0,1,,,,,,,,,,,,,,,,,,,,,,,,,,,,,,,,,,,,,,,
,,,,,,,,2023-08-06_08h29.46.557,HF_wild_card,2022.2.4,Win32,59.89099838,5c42c4b05aca820001f71477,64ce5acb97489d65b14ecc7a,64cf4bc36fe1d4873d81d9ca,,,,,,,sngl,resources/DB.BMP,resources/Empty.png,Door3,-0.317592578,-0.03148151,1,0,0,0.9745,optionLeft,70,11255,5,35,0,35,0,1,,,,,,,,,,,,,,,,,,,,,,,,,,,,,,,,,,,,,,,
,,,,,,,,2023-08-06_08h29.46.557,HF_wild_card,2022.2.4,Win32,59.89099838,5c42c4b05aca820001f71477,64ce5acb97489d65b14ecc7a,64cf4bc36fe1d4873d81d9ca,,,,,,,sngl,resources/Empty.png,resources/DBN.BMP,Door1,0.434259288,0.039814801,1,0,0,0.9945,optionRight,30,11285,5,36,0,36,0,1,,,,,,,,,,,,,,,,,,,,,,,,,,,,,,,,,,,,,,,
,,,,,,,,2023-08-06_08h29.46.557,HF_wild_card,2022.2.4,Win32,59.89099838,5c42c4b05aca820001f71477,64ce5acb97489d65b14ecc7a,64cf4bc36fe1d4873d81d9ca,,,,,,,decisionTrl,resources/DR.BMP,resources/DB.BMP,Door4,-0.519444444,-0.098148176,1,0,0,1.042,optionLeft,80,11365,5,37,0,37,0,1,,,,,,,,,,,,,,,,,,,,,,,,,,,,,,,,,,,,,,,
,,,,,,,,2023-08-06_08h29.46.557,HF_wild_card,2022.2.4,Win32,59.89099838,5c42c4b05aca820001f71477,64ce5acb97489d65b14ecc7a,64cf4bc36fe1d4873d81d9ca,,,,,,,ctch,resources/DB.BMP,resources/DP.BMP,Door3,-0.301851824,-0.053703732,1,0,0,1.407,optionLeft,70,11435,5,38,0,38,0,1,,,,,,,,,,,,,,,,,,,,,,,,,,,,,,,,,,,,,,,
,,,,,,,,2023-08-06_08h29.46.557,HF_wild_card,2022.2.4,Win32,59.89099838,5c42c4b05aca820001f71477,64ce5acb97489d65b14ecc7a,64cf4bc36fe1d4873d81d9ca,,,,,,,sngl,resources/DBN.BMP,resources/Empty.png,Door1,-0.322222222,0.009259245,1,0,0,1.3094,optionLeft,30,11465,5,39,0,39,0,1,,,,,,,,,,,,,,,,,,,,,,,,,,,,,,,,,,,,,,,
,,,,,,,,2023-08-06_08h29.46.557,HF_wild_card,2022.2.4,Win32,59.89099838,5c42c4b05aca820001f71477,64ce5acb97489d65b14ecc7a,64cf4bc36fe1d4873d81d9ca,,,,,,,sngl,resources/Empty.png,resources/DR.BMP,Door4,0.466666667,-0.05648151,1,0,0,1.3584,optionRight,60,11525,5,40,0,40,0,1,,,,,,,,,,,,,,,,,,,,,,,,,,,,,,,,,,,,,,,
,,,,,,,,2023-08-06_08h29.46.557,HF_wild_card,2022.2.4,Win32,59.89099838,5c42c4b05aca820001f71477,64ce5acb97489d65b14ecc7a,64cf4bc36fe1d4873d81d9ca,,,,,,,ctch,resources/DBN.BMP,resources/DR.BMP,Door4,0.393518575,-0.04629631,1,0,0,1.1556,optionRight,60,11585,5,41,0,41,0,1,,,,,,,,,,,,,,,,,,,,,,,,,,,,,,,,,,,,,,,
,,,,,,,,2023-08-06_08h29.46.557,HF_wild_card,2022.2.4,Win32,59.89099838,5c42c4b05aca820001f71477,64ce5acb97489d65b14ecc7a,64cf4bc36fe1d4873d81d9ca,,,,,,,ctch,resources/DR.BMP,resources/DBN.BMP,Door4,-0.355555556,-0.047222222,1,0,0,1.5971,optionLeft,60,11645,5,42,0,42,0,1,,,,,,,,,,,,,,,,,,,,,,,,,,,,,,,,,,,,,,,
,,,,,,,,2023-08-06_08h29.46.557,HF_wild_card,2022.2.4,Win32,59.89099838,5c42c4b05aca820001f71477,64ce5acb97489d65b14ecc7a,64cf4bc36fe1d4873d81d9ca,,,,,,,ctch,resources/DR.BMP,resources/DBN.BMP,Door4,-0.508333333,-0.094444444,1,0,0,1.0778,optionLeft,60,11705,5,43,0,43,0,1,,,,,,,,,,,,,,,,,,,,,,,,,,,,,,,,,,,,,,,
,,,,,,,,2023-08-06_08h29.46.557,HF_wild_card,2022.2.4,Win32,59.89099838,5c42c4b05aca820001f71477,64ce5acb97489d65b14ecc7a,64cf4bc36fe1d4873d81d9ca,,,,,,,,,,,,,,,,,,,,,,,,,,4,0,4,0,1,,,,,,,,,,,,,,,,,,,,,,,,,,,,,,,,,,
,,,,,,,,2023-08-06_08h29.46.557,HF_wild_card,2022.2.4,Win32,59.89099838,5c42c4b05aca820001f71477,64ce5acb97489d65b14ecc7a,64cf4bc36fe1d4873d81d9ca,,,,,,,decisionTrl,resources/DP.BMP,resources/DG.BMP,Door2,-0.385185157,-0.093518533,1,0,0,2.2026,optionLeft,40,11745,6,0,0,0,0,1,,,,,,,,,,,,,,,,,,,,,,,,,,,,,,,,,,,,,,,
,,,,,,,,2023-08-06_08h29.46.557,HF_wild_card,2022.2.4,Win32,59.89099838,5c42c4b05aca820001f71477,64ce5acb97489d65b14ecc7a,64cf4bc36fe1d4873d81d9ca,,,,,,,ctch,resources/DB.BMP,resources/DP.BMP,Door3,-0.386111111,-0.066666667,1,0,0,1.1135,optionLeft,70,11815,6,1,0,1,0,1,,,,,,,,,,,,,,,,,,,,,,,,,,,,,,,,,,,,,,,
,,,,,,,,2023-08-06_08h29.46.557,HF_wild_card,2022.2.4,Win32,59.89099838,5c42c4b05aca820001f71477,64ce5acb97489d65b14ecc7a,64cf4bc36fe1d4873d81d9ca,,,,,,,decisionTrl,resources/DG.BMP,resources/DP.BMP,Door2,0.384259288,-0.087037065,1,0,0,2.9396,optionRight,20,11835,6,2,0,2,0,1,,,,,,,,,,,,,,,,,,,,,,,,,,,,,,,,,,,,,,,
,,,,,,,,2023-08-06_08h29.46.557,HF_wild_card,2022.2.4,Win32,59.89099838,5c42c4b05aca820001f71477,64ce5acb97489d65b14ecc7a,64cf4bc36fe1d4873d81d9ca,,,,,,,sngl,resources/Empty.png,resources/DB.BMP,Door3,0.325,-0.042592621,1,0,0,1.1429,optionRight,70,11905,6,3,0,3,0,1,,,,,,,,,,,,,,,,,,,,,,,,,,,,,,,,,,,,,,,
,,,,,,,,2023-08-06_08h29.46.557,HF_wild_card,2022.2.4,Win32,59.89099838,5c42c4b05aca820001f71477,64ce5acb97489d65b14ecc7a,64cf4bc36fe1d4873d81d9ca,,,,,,,decisionTrl,resources/DBN.BMP,resources/DP.BMP,Door2,0.355555556,-0.078703732,1,0,0,1.8383,optionRight,20,11925,6,4,0,4,0,1,,,,,,,,,,,,,,,,,,,,,,,,,,,,,,,,,,,,,,,
,,,,,,,,2023-08-06_08h29.46.557,HF_wild_card,2022.2.4,Win32,59.89099838,5c42c4b05aca820001f71477,64ce5acb97489d65b14ecc7a,64cf4bc36fe1d4873d81d9ca,,,,,,,sngl,resources/DG.BMP,resources/Empty.png,WildCard_Ex,-0.315740712,-0.075925954,1,0,0,1.4278,optionLeft,5,11930,6,5,0,5,0,1,,,,,,,,,,,,,,,,,,,,,,,,,,,,,,,,,,,,,,,
,,,,,,,,2023-08-06_08h29.46.557,HF_wild_card,2022.2.4,Win32,59.89099838,5c42c4b05aca820001f71477,64ce5acb97489d65b14ecc7a,64cf4bc36fe1d4873d81d9ca,,,,,,,decisionTrl,resources/DP.BMP,resources/DBN.BMP,Door1,0.33148151,-0.054629644,1,0,0,2.3284,optionRight,30,11960,6,6,0,6,0,1,,,,,,,,,,,,,,,,,,,,,,,,,,,,,,,,,,,,,,,
,,,,,,,,2023-08-06_08h29.46.557,HF_wild_card,2022.2.4,Win32,59.89099838,5c42c4b05aca820001f71477,64ce5acb97489d65b14ecc7a,64cf4bc36fe1d4873d81d9ca,,,,,,,ctch,resources/DBN.BMP,resources/DR.BMP,Door4,0.368518575,-0.083333333,1,0,0,1.2874,optionRight,60,12020,6,7,0,7,0,1,,,,,,,,,,,,,,,,,,,,,,,,,,,,,,,,,,,,,,,
,,,,,,,,2023-08-06_08h29.46.557,HF_wild_card,2022.2.4,Win32,59.89099838,5c42c4b05aca820001f71477,64ce5acb97489d65b14ecc7a,64cf4bc36fe1d4873d81d9ca,,,,,,,decisionTrl,resources/DR.BMP,resources/DB.BMP,Door4,-0.419444444,-0.059259288,1,0,0,1.4043,optionLeft,60,12080,6,8,0,8,0,1,,,,,,,,,,,,,,,,,,,,,,,,,,,,,,,,,,,,,,,
,,,,,,,,2023-08-06_08h29.46.557,HF_wild_card,2022.2.4,Win32,59.89099838,5c42c4b05aca820001f71477,64ce5acb97489d65b14ecc7a,64cf4bc36fe1d4873d81d9ca,,,,,,,decisionTrl,resources/DG.BMP,resources/DB.BMP,Door3,0.330555556,-0.009259288,1,0,0,1.2254,optionRight,70,12150,6,9,0,9,0,1,,,,,,,,,,,,,,,,,,,,,,,,,,,,,,,,,,,,,,,
,,,,,,,,2023-08-06_08h29.46.557,HF_wild_card,2022.2.4,Win32,59.89099838,5c42c4b05aca820001f71477,64ce5acb97489d65b14ecc7a,64cf4bc36fe1d4873d81d9ca,,,,,,,decisionTrl,resources/DP.BMP,resources/DBN.BMP,Door1,0.350925954,-0.033333333,1,0,0,2.27,optionRight,30,12180,6,10,0,10,0,1,,,,,,,,,,,,,,,,,,,,,,,,,,,,,,,,,,,,,,,
,,,,,,,,2023-08-06_08h29.46.557,HF_wild_card,2022.2.4,Win32,59.89099838,5c42c4b05aca820001f71477,64ce5acb97489d65b14ecc7a,64cf4bc36fe1d4873d81d9ca,,,,,,,ctch,resources/DBN.BMP,resources/DR.BMP,Door4,0.383333333,-0.045370399,1,0,0,2.2086,optionRight,80,12260,6,11,0,11,0,1,,,,,,,,,,,,,,,,,,,,,,,,,,,,,,,,,,,,,,,
,,,,,,,,2023-08-06_08h29.46.557,HF_wild_card,2022.2.4,Win32,59.89099838,5c42c4b05aca820001f71477,64ce5acb97489d65b14ecc7a,64cf4bc36fe1d4873d81d9ca,,,,,,,sngl,resources/DR.BMP,resources/Empty.png,Door4,-0.319444444,-0.043518533,1,0,0,0.9032,optionLeft,60,12320,6,12,0,12,0,1,,,,,,,,,,,,,,,,,,,,,,,,,,,,,,,,,,,,,,,
,,,,,,,,2023-08-06_08h29.46.557,HF_wild_card,2022.2.4,Win32,59.89099838,5c42c4b05aca820001f71477,64ce5acb97489d65b14ecc7a,64cf4bc36fe1d4873d81d9ca,,,,,,,sngl,resources/Empty.png,resources/DR.BMP,Door4,0.387963019,-0.007407422,1,0,0,0.9593,optionRight,80,12400,6,13,0,13,0,1,,,,,,,,,,,,,,,,,,,,,,,,,,,,,,,,,,,,,,,
,,,,,,,,2023-08-06_08h29.46.557,HF_wild_card,2022.2.4,Win32,59.89099838,5c42c4b05aca820001f71477,64ce5acb97489d65b14ecc7a,64cf4bc36fe1d4873d81d9ca,,,,,,,sngl,resources/DG.BMP,resources/Empty.png,WildCard_Ex,-0.348148134,-0.042592621,1,0,0,2.0284,optionLeft,95,12495,6,14,0,14,0,1,,,,,,,,,,,,,,,,,,,,,,,,,,,,,,,,,,,,,,,
,,,,,,,,2023-08-06_08h29.46.557,HF_wild_card,2022.2.4,Win32,59.89099838,5c42c4b05aca820001f71477,64ce5acb97489d65b14ecc7a,64cf4bc36fe1d4873d81d9ca,,,,,,,ctch,resources/DB.BMP,resources/DP.BMP,Door3,-0.314814801,-0.014814843,1,0,0,1.4381,optionLeft,70,12565,6,15,0,15,0,1,,,,,,,,,,,,,,,,,,,,,,,,,,,,,,,,,,,,,,,
,,,,,,,,2023-08-06_08h29.46.557,HF_wild_card,2022.2.4,Win32,59.89099838,5c42c4b05aca820001f71477,64ce5acb97489d65b14ecc7a,64cf4bc36fe1d4873d81d9ca,,,,,,,decisionTrl,resources/DG.BMP,resources/DBN.BMP,Door1,0.350925954,-0.057407422,1,0,0,1.4098,optionRight,30,12595,6,16,0,16,0,1,,,,,,,,,,,,,,,,,,,,,,,,,,,,,,,,,,,,,,,
,,,,,,,,2023-08-06_08h29.46.557,HF_wild_card,2022.2.4,Win32,59.89099838,5c42c4b05aca820001f71477,64ce5acb97489d65b14ecc7a,64cf4bc36fe1d4873d81d9ca,,,,,,,sngl,resources/Empty.png,resources/DG.BMP,WildCard_Ex,0.485185242,-0.061111111,1,0,0,1.2618,optionRight,95,12690,6,17,0,17,0,1,,,,,,,,,,,,,,,,,,,,,,,,,,,,,,,,,,,,,,,
,,,,,,,,2023-08-06_08h29.46.557,HF_wild_card,2022.2.4,Win32,59.89099838,5c42c4b05aca820001f71477,64ce5acb97489d65b14ecc7a,64cf4bc36fe1d4873d81d9ca,,,,,,,decisionTrl,resources/DBN.BMP,resources/DP.BMP,Door1,-0.394444444,-0.077777778,1,0,0,1.6452,optionLeft,30,12720,6,18,0,18,0,1,,,,,,,,,,,,,,,,,,,,,,,,,,,,,,,,,,,,,,,
,,,,,,,,2023-08-06_08h29.46.557,HF_wild_card,2022.2.4,Win32,59.89099838,5c42c4b05aca820001f71477,64ce5acb97489d65b14ecc7a,64cf4bc36fe1d4873d81d9ca,,,,,,,ctch,resources/DR.BMP,resources/DBN.BMP,Door4,-0.36851849,-0.033333333,1,0,0,1.6124,optionLeft,80,12800,6,19,0,19,0,1,,,,,,,,,,,,,,,,,,,,,,,,,,,,,,,,,,,,,,,
,,,,,,,,2023-08-06_08h29.46.557,HF_wild_card,2022.2.4,Win32,59.89099838,5c42c4b05aca820001f71477,64ce5acb97489d65b14ecc7a,64cf4bc36fe1d4873d81d9ca,,,,,,,sngl,resources/Empty.png,resources/DBN.BMP,Door1,0.449074131,-0.001851866,1,0,0,1.282,optionRight,30,12830,6,20,0,20,0,1,,,,,,,,,,,,,,,,,,,,,,,,,,,,,,,,,,,,,,,
,,,,,,,,2023-08-06_08h29.46.557,HF_wild_card,2022.2.4,Win32,59.89099838,5c42c4b05aca820001f71477,64ce5acb97489d65b14ecc7a,64cf4bc36fe1d4873d81d9ca,,,,,,,sngl,resources/DB.BMP,resources/Empty.png,Door3,-0.212962935,-0.119444444,1,0,0,0.7588,optionLeft,70,12900,6,21,0,21,0,1,,,,,,,,,,,,,,,,,,,,,,,,,,,,,,,,,,,,,,,
,,,,,,,,2023-08-06_08h29.46.557,HF_wild_card,2022.2.4,Win32,59.89099838,5c42c4b05aca820001f71477,64ce5acb97489d65b14ecc7a,64cf4bc36fe1d4873d81d9ca,,,,,,,decisionTrl,resources/DB.BMP,resources/DR.BMP,Door4,0.424074131,-0.105555556,1,0,0,1.4143,optionRight,60,12960,6,22,0,22,0,1,,,,,,,,,,,,,,,,,,,,,,,,,,,,,,,,,,,,,,,
,,,,,,,,2023-08-06_08h29.46.557,HF_wild_card,2022.2.4,Win32,59.89099838,5c42c4b05aca820001f71477,64ce5acb97489d65b14ecc7a,64cf4bc36fe1d4873d81d9ca,,,,,,,sngl,resources/DBN.BMP,resources/Empty.png,Door1,-0.387037023,-0.04629631,1,0,0,1.0428,optionLeft,30,12990,6,23,0,23,0,1,,,,,,,,,,,,,,,,,,,,,,,,,,,,,,,,,,,,,,,
,,,,,,,,2023-08-06_08h29.46.557,HF_wild_card,2022.2.4,Win32,59.89099838,5c42c4b05aca820001f71477,64ce5acb97489d65b14ecc7a,64cf4bc36fe1d4873d81d9ca,,,,,,,decisionTrl,resources/DB.BMP,resources/DG.BMP,Door3,-0.357407379,-0.110185199,1,0,0,1.5618,optionLeft,70,13060,6,24,0,24,0,1,,,,,,,,,,,,,,,,,,,,,,,,,,,,,,,,,,,,,,,
,,,,,,,,2023-08-06_08h29.46.557,HF_wild_card,2022.2.4,Win32,59.89099838,5c42c4b05aca820001f71477,64ce5acb97489d65b14ecc7a,64cf4bc36fe1d4873d81d9ca,,,,,,,ctch,resources/DP.BMP,resources/DB.BMP,Door3,0.352777778,-0.065740755,1,0,0,1.6769,optionRight,70,13130,6,25,0,25,0,1,,,,,,,,,,,,,,,,,,,,,,,,,,,,,,,,,,,,,,,
,,,,,,,,2023-08-06_08h29.46.557,HF_wild_card,2022.2.4,Win32,59.89099838,5c42c4b05aca820001f71477,64ce5acb97489d65b14ecc7a,64cf4bc36fe1d4873d81d9ca,,,,,,,decisionTrl,resources/DR.BMP,resources/DG.BMP,Door4,-0.409259245,-0.062037065,1,0,0,1.2685,optionLeft,80,13210,6,26,0,26,0,1,,,,,,,,,,,,,,,,,,,,,,,,,,,,,,,,,,,,,,,
,,,,,,,,2023-08-06_08h29.46.557,HF_wild_card,2022.2.4,Win32,59.89099838,5c42c4b05aca820001f71477,64ce5acb97489d65b14ecc7a,64cf4bc36fe1d4873d81d9ca,,,,,,,decisionTrl,resources/DR.BMP,resources/DB.BMP,Door4,-0.439814801,-0.108333333,1,0,0,3.817,optionLeft,60,13270,6,27,0,27,0,1,,,,,,,,,,,,,,,,,,,,,,,,,,,,,,,,,,,,,,,
,,,,,,,,2023-08-06_08h29.46.557,HF_wild_card,2022.2.4,Win32,59.89099838,5c42c4b05aca820001f71477,64ce5acb97489d65b14ecc7a,64cf4bc36fe1d4873d81d9ca,,,,,,,ctch,resources/DP.BMP,resources/DB.BMP,Door3,0.285185242,-0.059259288,1,0,0,1.1469,optionRight,70,13340,6,28,0,28,0,1,,,,,,,,,,,,,,,,,,,,,,,,,,,,,,,,,,,,,,,
,,,,,,,,2023-08-06_08h29.46.557,HF_wild_card,2022.2.4,Win32,59.89099838,5c42c4b05aca820001f71477,64ce5acb97489d65b14ecc7a,64cf4bc36fe1d4873d81d9ca,,,,,,,decisionTrl,resources/DBN.BMP,resources/DP.BMP,Door1,-0.264814801,-0.157407422,1,0,0,1.5304,optionLeft,30,13370,6,29,0,29,0,1,,,,,,,,,,,,,,,,,,,,,,,,,,,,,,,,,,,,,,,
,,,,,,,,2023-08-06_08h29.46.557,HF_wild_card,2022.2.4,Win32,59.89099838,5c42c4b05aca820001f71477,64ce5acb97489d65b14ecc7a,64cf4bc36fe1d4873d81d9ca,,,,,,,decisionTrl,resources/DBN.BMP,resources/DP.BMP,Door1,-0.324074046,-0.032407422,1,0,0,1.2118,optionLeft,30,13400,6,30,0,30,0,1,,,,,,,,,,,,,,,,,,,,,,,,,,,,,,,,,,,,,,,
,,,,,,,,2023-08-06_08h29.46.557,HF_wild_card,2022.2.4,Win32,59.89099838,5c42c4b05aca820001f71477,64ce5acb97489d65b14ecc7a,64cf4bc36fe1d4873d81d9ca,,,,,,,decisionTrl,resources/DP.BMP,resources/DBN.BMP,Door1,0.444444444,-0.029629644,1,0,0,1.7667,optionRight,30,13430,6,31,0,31,0,1,,,,,,,,,,,,,,,,,,,,,,,,,,,,,,,,,,,,,,,
,,,,,,,,2023-08-06_08h29.46.557,HF_wild_card,2022.2.4,Win32,59.89099838,5c42c4b05aca820001f71477,64ce5acb97489d65b14ecc7a,64cf4bc36fe1d4873d81d9ca,,,,,,,ctch,resources/DR.BMP,resources/DBN.BMP,Door4,-0.402777778,-0.047222222,1,0,0,1.7861,optionLeft,80,13510,6,32,0,32,0,1,,,,,,,,,,,,,,,,,,,,,,,,,,,,,,,,,,,,,,,
,,,,,,,,2023-08-06_08h29.46.557,HF_wild_card,2022.2.4,Win32,59.89099838,5c42c4b05aca820001f71477,64ce5acb97489d65b14ecc7a,64cf4bc36fe1d4873d81d9ca,,,,,,,decisionTrl,resources/DB.BMP,resources/DR.BMP,Door4,0.361111111,-0.050925954,1,0,0,1.4047,optionRight,60,13570,6,33,0,33,0,1,,,,,,,,,,,,,,,,,,,,,,,,,,,,,,,,,,,,,,,
,,,,,,,,2023-08-06_08h29.46.557,HF_wild_card,2022.2.4,Win32,59.89099838,5c42c4b05aca820001f71477,64ce5acb97489d65b14ecc7a,64cf4bc36fe1d4873d81d9ca,,,,,,,decisionTrl,resources/DB.BMP,resources/DR.BMP,Door4,0.344444444,-0.049074088,1,0,0,1.4749,optionRight,60,13630,6,34,0,34,0,1,,,,,,,,,,,,,,,,,,,,,,,,,,,,,,,,,,,,,,,
,,,,,,,,2023-08-06_08h29.46.557,HF_wild_card,2022.2.4,Win32,59.89099838,5c42c4b05aca820001f71477,64ce5acb97489d65b14ecc7a,64cf4bc36fe1d4873d81d9ca,,,,,,,decisionTrl,resources/DR.BMP,resources/DB.BMP,Door4,-0.212037023,-0.041666667,1,0,0,0.7719,optionLeft,80,13710,6,35,0,35,0,1,,,,,,,,,,,,,,,,,,,,,,,,,,,,,,,,,,,,,,,
,,,,,,,,2023-08-06_08h29.46.557,HF_wild_card,2022.2.4,Win32,59.89099838,5c42c4b05aca820001f71477,64ce5acb97489d65b14ecc7a,64cf4bc36fe1d4873d81d9ca,,,,,,,sngl,resources/Empty.png,resources/DP.BMP,Door2,0.398148176,-0.037037065,1,0,0,1.7386,optionRight,40,13750,6,36,0,36,0,1,,,,,,,,,,,,,,,,,,,,,,,,,,,,,,,,,,,,,,,
,,,,,,,,2023-08-06_08h29.46.557,HF_wild_card,2022.2.4,Win32,59.89099838,5c42c4b05aca820001f71477,64ce5acb97489d65b14ecc7a,64cf4bc36fe1d4873d81d9ca,,,,,,,decisionTrl,resources/DBN.BMP,resources/DG.BMP,Door1,-0.416666667,-0.012962977,1,0,0,1.5061,optionLeft,30,13780,6,37,0,37,0,1,,,,,,,,,,,,,,,,,,,,,,,,,,,,,,,,,,,,,,,
,,,,,,,,2023-08-06_08h29.46.557,HF_wild_card,2022.2.4,Win32,59.89099838,5c42c4b05aca820001f71477,64ce5acb97489d65b14ecc7a,64cf4bc36fe1d4873d81d9ca,,,,,,,sngl,resources/DP.BMP,resources/Empty.png,Door2,-0.351851824,-0.043518533,1,0,0,1.1721,optionLeft,20,13800,6,38,0,38,0,1,,,,,,,,,,,,,,,,,,,,,,,,,,,,,,,,,,,,,,,
,,,,,,,,2023-08-06_08h29.46.557,HF_wild_card,2022.2.4,Win32,59.89099838,5c42c4b05aca820001f71477,64ce5acb97489d65b14ecc7a,64cf4bc36fe1d4873d81d9ca,,,,,,,sngl,resources/Empty.png,resources/DG.BMP,WildCard_Ex,0.242592621,-0.087037065,1,0,0,1.2626,optionRight,5,13805,6,39,0,39,0,1,,,,,,,,,,,,,,,,,,,,,,,,,,,,,,,,,,,,,,,
,,,,,,,,2023-08-06_08h29.46.557,HF_wild_card,2022.2.4,Win32,59.89099838,5c42c4b05aca820001f71477,64ce5acb97489d65b14ecc7a,64cf4bc36fe1d4873d81d9ca,,,,,,,decisionTrl,resources/DR.BMP,resources/DB.BMP,Door4,-0.410185157,-0.012037065,1,0,0,1.4386,optionLeft,60,13865,6,40,0,40,0,1,,,,,,,,,,,,,,,,,,,,,,,,,,,,,,,,,,,,,,,
,,,,,,,,2023-08-06_08h29.46.557,HF_wild_card,2022.2.4,Win32,59.89099838,5c42c4b05aca820001f71477,64ce5acb97489d65b14ecc7a,64cf4bc36fe1d4873d81d9ca,,,,,,,decisionTrl,resources/DG.BMP,resources/DR.BMP,Door4,0.434259288,0,1,0,0,1.4554,optionRight,80,13945,6,41,0,41,0,1,,,,,,,,,,,,,,,,,,,,,,,,,,,,,,,,,,,,,,,
,,,,,,,,2023-08-06_08h29.46.557,HF_wild_card,2022.2.4,Win32,59.89099838,5c42c4b05aca820001f71477,64ce5acb97489d65b14ecc7a,64cf4bc36fe1d4873d81d9ca,,,,,,,decisionTrl,resources/DB.BMP,resources/DR.BMP,Door4,0.312037065,-0.041666667,1,0,0,0.9813,optionRight,60,14005,6,42,0,42,0,1,,,,,,,,,,,,,,,,,,,,,,,,,,,,,,,,,,,,,,,
,,,,,,,,2023-08-06_08h29.46.557,HF_wild_card,2022.2.4,Win32,59.89099838,5c42c4b05aca820001f71477,64ce5acb97489d65b14ecc7a,64cf4bc36fe1d4873d81d9ca,,,,,,,decisionTrl,resources/DP.BMP,resources/DBN.BMP,Door1,0.299074131,-0.051851866,1,0,0,2.1075,optionRight,30,14035,6,43,0,43,0,1,,,,,,,,,,,,,,,,,,,,,,,,,,,,,,,,,,,,,,,
,,,,,,,,2023-08-06_08h29.46.557,HF_wild_card,2022.2.4,Win32,59.89099838,5c42c4b05aca820001f71477,64ce5acb97489d65b14ecc7a,64cf4bc36fe1d4873d81d9ca,,,,,,,,,,,,,,,,,,,,,,,,,,5,0,5,0,1,,,,,,,,,,,,,,,,,,,,,,,,,,,,,,,,,,
,,,,,,,,2023-08-06_08h29.46.557,HF_wild_card,2022.2.4,Win32,59.89099838,5c42c4b05aca820001f71477,64ce5acb97489d65b14ecc7a,64cf4bc36fe1d4873d81d9ca,,,,,,,ctch,resources/DB.BMP,resources/DP.BMP,Door3,-0.379629601,-0.141666667,1,0,0,1.131,optionLeft,70,14105,7,0,0,0,0,1,,,,,,,,,,,,,,,,,,,,,,,,,,,,,,,,,,,,,,,
,,,,,,,,2023-08-06_08h29.46.557,HF_wild_card,2022.2.4,Win32,59.89099838,5c42c4b05aca820001f71477,64ce5acb97489d65b14ecc7a,64cf4bc36fe1d4873d81d9ca,,,,,,,ctch,resources/DR.BMP,resources/DBN.BMP,Door4,-0.367592578,-0.082407422,1,0,0,0.9677,optionLeft,60,14165,7,1,0,1,0,1,,,,,,,,,,,,,,,,,,,,,,,,,,,,,,,,,,,,,,,
,,,,,,,,2023-08-06_08h29.46.557,HF_wild_card,2022.2.4,Win32,59.89099838,5c42c4b05aca820001f71477,64ce5acb97489d65b14ecc7a,64cf4bc36fe1d4873d81d9ca,,,,,,,decisionTrl,resources/DB.BMP,resources/DR.BMP,Door4,0.35,-0.041666667,1,0,0,1.9963,optionRight,60,14225,7,2,0,2,0,1,,,,,,,,,,,,,,,,,,,,,,,,,,,,,,,,,,,,,,,
,,,,,,,,2023-08-06_08h29.46.557,HF_wild_card,2022.2.4,Win32,59.89099838,5c42c4b05aca820001f71477,64ce5acb97489d65b14ecc7a,64cf4bc36fe1d4873d81d9ca,,,,,,,decisionTrl,resources/DB.BMP,resources/DR.BMP,Door3,-0.426851824,-0.075925954,1,0,0,0.9799,optionLeft,70,14295,7,3,0,3,0,1,,,,,,,,,,,,,,,,,,,,,,,,,,,,,,,,,,,,,,,
,,,,,,,,2023-08-06_08h29.46.557,HF_wild_card,2022.2.4,Win32,59.89099838,5c42c4b05aca820001f71477,64ce5acb97489d65b14ecc7a,64cf4bc36fe1d4873d81d9ca,,,,,,,decisionTrl,resources/DBN.BMP,resources/DP.BMP,Door1,-0.337962935,-0.038888889,1,0,0,1.274,optionLeft,30,14325,7,4,0,4,0,1,,,,,,,,,,,,,,,,,,,,,,,,,,,,,,,,,,,,,,,
,,,,,,,,2023-08-06_08h29.46.557,HF_wild_card,2022.2.4,Win32,59.89099838,5c42c4b05aca820001f71477,64ce5acb97489d65b14ecc7a,64cf4bc36fe1d4873d81d9ca,,,,,,,decisionTrl,resources/DBN.BMP,resources/DP.BMP,Door1,-0.319444444,-0.052777778,1,0,0,1.2591,optionLeft,30,14355,7,5,0,5,0,1,,,,,,,,,,,,,,,,,,,,,,,,,,,,,,,,,,,,,,,
,,,,,,,,2023-08-06_08h29.46.557,HF_wild_card,2022.2.4,Win32,59.89099838,5c42c4b05aca820001f71477,64ce5acb97489d65b14ecc7a,64cf4bc36fe1d4873d81d9ca,,,,,,,decisionTrl,resources/DP.BMP,resources/DBN.BMP,Door1,0.462963019,-0.029629644,1,0,0,2.2517,optionRight,30,14385,7,6,0,6,0,1,,,,,,,,,,,,,,,,,,,,,,,,,,,,,,,,,,,,,,,
,,,,,,,,2023-08-06_08h29.46.557,HF_wild_card,2022.2.4,Win32,59.89099838,5c42c4b05aca820001f71477,64ce5acb97489d65b14ecc7a,64cf4bc36fe1d4873d81d9ca,,,,,,,decisionTrl,resources/DP.BMP,resources/DBN.BMP,Door1,0.418518575,-0.040740755,1,0,0,1.5133,optionRight,30,14415,7,7,0,7,0,1,,,,,,,,,,,,,,,,,,,,,,,,,,,,,,,,,,,,,,,
,,,,,,,,2023-08-06_08h29.46.557,HF_wild_card,2022.2.4,Win32,59.89099838,5c42c4b05aca820001f71477,64ce5acb97489d65b14ecc7a,64cf4bc36fe1d4873d81d9ca,,,,,,,decisionTrl,resources/DR.BMP,resources/DB.BMP,Door4,-0.352777778,-0.030555556,1,0,0,1.1798,optionLeft,80,14495,7,8,0,8,0,1,,,,,,,,,,,,,,,,,,,,,,,,,,,,,,,,,,,,,,,
,,,,,,,,2023-08-06_08h29.46.557,HF_wild_card,2022.2.4,Win32,59.89099838,5c42c4b05aca820001f71477,64ce5acb97489d65b14ecc7a,64cf4bc36fe1d4873d81d9ca,,,,,,,ctch,resources/DB.BMP,resources/DP.BMP,Door3,-0.363888889,-0.042592621,1,0,0,1.977,optionLeft,70,14565,7,9,0,9,0,1,,,,,,,,,,,,,,,,,,,,,,,,,,,,,,,,,,,,,,,
,,,,,,,,2023-08-06_08h29.46.557,HF_wild_card,2022.2.4,Win32,59.89099838,5c42c4b05aca820001f71477,64ce5acb97489d65b14ecc7a,64cf4bc36fe1d4873d81d9ca,,,,,,,ctch,resources/DB.BMP,resources/DP.BMP,Door3,-0.409259245,-0.034259288,1,0,0,1.2468,optionLeft,70,14635,7,10,0,10,0,1,,,,,,,,,,,,,,,,,,,,,,,,,,,,,,,,,,,,,,,
,,,,,,,,2023-08-06_08h29.46.557,HF_wild_card,2022.2.4,Win32,59.89099838,5c42c4b05aca820001f71477,64ce5acb97489d65b14ecc7a,64cf4bc36fe1d4873d81d9ca,,,,,,,ctch,resources/DP.BMP,resources/DB.BMP,Door3,0.374074131,-0.030555556,1,0,0,1.2245,optionRight,70,14705,7,11,0,11,0,1,,,,,,,,,,,,,,,,,,,,,,,,,,,,,,,,,,,,,,,
,,,,,,,,2023-08-06_08h29.46.557,HF_wild_card,2022.2.4,Win32,59.89099838,5c42c4b05aca820001f71477,64ce5acb97489d65b14ecc7a,64cf4bc36fe1d4873d81d9ca,,,,,,,ctch,resources/DBN.BMP,resources/DR.BMP,Door4,0.376851908,-0.050925954,1,0,0,1.2434,optionRight,80,14785,7,12,0,12,0,1,,,,,,,,,,,,,,,,,,,,,,,,,,,,,,,,,,,,,,,
,,,,,,,,2023-08-06_08h29.46.557,HF_wild_card,2022.2.4,Win32,59.89099838,5c42c4b05aca820001f71477,64ce5acb97489d65b14ecc7a,64cf4bc36fe1d4873d81d9ca,,,,,,,ctch,resources/DP.BMP,resources/DB.BMP,Door3,0.434259288,-0.065740755,1,0,0,1.4381,optionRight,70,14855,7,13,0,13,0,1,,,,,,,,,,,,,,,,,,,,,,,,,,,,,,,,,,,,,,,
,,,,,,,,2023-08-06_08h29.46.557,HF_wild_card,2022.2.4,Win32,59.89099838,5c42c4b05aca820001f71477,64ce5acb97489d65b14ecc7a,64cf4bc36fe1d4873d81d9ca,,,,,,,decisionTrl,resources/DBN.BMP,resources/DP.BMP,Door1,-0.282407379,-0.064814843,1,0,0,1.5534,optionLeft,30,14885,7,14,0,14,0,1,,,,,,,,,,,,,,,,,,,,,,,,,,,,,,,,,,,,,,,
,,,,,,,,2023-08-06_08h29.46.557,HF_wild_card,2022.2.4,Win32,59.89099838,5c42c4b05aca820001f71477,64ce5acb97489d65b14ecc7a,64cf4bc36fe1d4873d81d9ca,,,,,,,ctch,resources/DP.BMP,resources/DB.BMP,Door3,0.393518575,-0.068518533,1,0,0,1.2006,optionRight,70,14955,7,15,0,15,0,1,,,,,,,,,,,,,,,,,,,,,,,,,,,,,,,,,,,,,,,
,,,,,,,,2023-08-06_08h29.46.557,HF_wild_card,2022.2.4,Win32,59.89099838,5c42c4b05aca820001f71477,64ce5acb97489d65b14ecc7a,64cf4bc36fe1d4873d81d9ca,,,,,,,decisionTrl,resources/DB.BMP,resources/DR.BMP,Door4,0.343518575,-0.058333333,1,0,0,0.9269,optionRight,80,15035,7,16,0,16,0,1,,,,,,,,,,,,,,,,,,,,,,,,,,,,,,,,,,,,,,,
,,,,,,,,2023-08-06_08h29.46.557,HF_wild_card,2022.2.4,Win32,59.89099838,5c42c4b05aca820001f71477,64ce5acb97489d65b14ecc7a,64cf4bc36fe1d4873d81d9ca,,,,,,,decisionTrl,resources/DB.BMP,resources/DR.BMP,Door4,0.346296353,-0.086111111,1,0,0,0.9815,optionRight,60,15095,7,17,0,17,0,1,,,,,,,,,,,,,,,,,,,,,,,,,,,,,,,,,,,,,,,
,,,,,,,,2023-08-06_08h29.46.557,HF_wild_card,2022.2.4,Win32,59.89099838,5c42c4b05aca820001f71477,64ce5acb97489d65b14ecc7a,64cf4bc36fe1d4873d81d9ca,,,,,,,decisionTrl,resources/DP.BMP,resources/DBN.BMP,Door1,0.319444444,-0.080555556,1,0,0,2.1266,optionRight,30,15125,7,18,0,18,0,1,,,,,,,,,,,,,,,,,,,,,,,,,,,,,,,,,,,,,,,
,,,,,,,,2023-08-06_08h29.46.557,HF_wild_card,2022.2.4,Win32,59.89099838,5c42c4b05aca820001f71477,64ce5acb97489d65b14ecc7a,64cf4bc36fe1d4873d81d9ca,,,,,,,ctch,resources/DR.BMP,resources/DBN.BMP,Door4,-0.395370356,-0.084259288,1,0,0,1.0992,optionLeft,60,15185,7,19,0,19,0,1,,,,,,,,,,,,,,,,,,,,,,,,,,,,,,,,,,,,,,,
,,,,,,,,2023-08-06_08h29.46.557,HF_wild_card,2022.2.4,Win32,59.89099838,5c42c4b05aca820001f71477,64ce5acb97489d65b14ecc7a,64cf4bc36fe1d4873d81d9ca,,,,,,,decisionTrl,resources/DP.BMP,resources/DBN.BMP,Door1,0.433333333,-0.044444444,1,0,0,0.9283,optionRight,30,15215,7,20,0,20,0,1,,,,,,,,,,,,,,,,,,,,,,,,,,,,,,,,,,,,,,,
,,,,,,,,2023-08-06_08h29.46.557,HF_wild_card,2022.2.4,Win32,59.89099838,5c42c4b05aca820001f71477,64ce5acb97489d65b14ecc7a,64cf4bc36fe1d4873d81d9ca,,,,,,,decisionTrl,resources/DR.BMP,resources/DB.BMP,Door4,-0.382407379,-0.044444444,1,0,0,1.1581,optionLeft,60,15275,7,21,0,21,0,1,,,,,,,,,,,,,,,,,,,,,,,,,,,,,,,,,,,,,,,
,,,,,,,,2023-08-06_08h29.46.557,HF_wild_card,2022.2.4,Win32,59.89099838,5c42c4b05aca820001f71477,64ce5acb97489d65b14ecc7a,64cf4bc36fe1d4873d81d9ca,,,,,,,decisionTrl,resources/DR.BMP,resources/DB.BMP,Door4,-0.361111111,-0.055555556,1,0,0,0.9279,optionLeft,60,15335,7,22,0,22,0,1,,,,,,,,,,,,,,,,,,,,,,,,,,,,,,,,,,,,,,,
,,,,,,,,2023-08-06_08h29.46.557,HF_wild_card,2022.2.4,Win32,59.89099838,5c42c4b05aca820001f71477,64ce5acb97489d65b14ecc7a,64cf4bc36fe1d4873d81d9ca,,,,,,,decisionTrl,resources/DB.BMP,resources/DR.BMP,Door4,0.359259288,-0.066666667,1,0,0,0.9765,optionRight,80,15415,7,23,0,23,0,1,,,,,,,,,,,,,,,,,,,,,,,,,,,,,,,,,,,,,,,
,,,,,,,,2023-08-06_08h29.46.557,HF_wild_card,2022.2.4,Win32,59.89099838,5c42c4b05aca820001f71477,64ce5acb97489d65b14ecc7a,64cf4bc36fe1d4873d81d9ca,,,,,,,ctch,resources/DR.BMP,resources/DBN.BMP,Door4,-0.309259245,-0.097222222,1,0,0,0.8537,optionLeft,80,15495,7,24,0,24,0,1,,,,,,,,,,,,,,,,,,,,,,,,,,,,,,,,,,,,,,,
,,,,,,,,2023-08-06_08h29.46.557,HF_wild_card,2022.2.4,Win32,59.89099838,5c42c4b05aca820001f71477,64ce5acb97489d65b14ecc7a,64cf4bc36fe1d4873d81d9ca,,,,,,,decisionTrl,resources/DR.BMP,resources/DB.BMP,Door4,-0.307407379,-0.066666667,1,0,0,1.1572,optionLeft,80,15575,7,25,0,25,0,1,,,,,,,,,,,,,,,,,,,,,,,,,,,,,,,,,,,,,,,
,,,,,,,,2023-08-06_08h29.46.557,HF_wild_card,2022.2.4,Win32,59.89099838,5c42c4b05aca820001f71477,64ce5acb97489d65b14ecc7a,64cf4bc36fe1d4873d81d9ca,,,,,,,decisionTrl,resources/DP.BMP,resources/DBN.BMP,Door1,0.425925954,-0.05,1,0,0,1.2155,optionRight,30,15605,7,26,0,26,0,1,,,,,,,,,,,,,,,,,,,,,,,,,,,,,,,,,,,,,,,
,,,,,,,,2023-08-06_08h29.46.557,HF_wild_card,2022.2.4,Win32,59.89099838,5c42c4b05aca820001f71477,64ce5acb97489d65b14ecc7a,64cf4bc36fe1d4873d81d9ca,,,,,,,decisionTrl,resources/DR.BMP,resources/DB.BMP,Door4,-0.314814801,-0.047222222,1,0,0,0.8456,optionLeft,60,15665,7,27,0,27,0,1,,,,,,,,,,,,,,,,,,,,,,,,,,,,,,,,,,,,,,,
,,,,,,,,2023-08-06_08h29.46.557,HF_wild_card,2022.2.4,Win32,59.89099838,5c42c4b05aca820001f71477,64ce5acb97489d65b14ecc7a,64cf4bc36fe1d4873d81d9ca,,,,,,,decisionTrl,resources/DBN.BMP,resources/DP.BMP,Door1,-0.42870369,-0.103703732,1,0,0,2.0014,optionLeft,30,15695,7,28,0,28,0,1,,,,,,,,,,,,,,,,,,,,,,,,,,,,,,,,,,,,,,,
,,,,,,,,2023-08-06_08h29.46.557,HF_wild_card,2022.2.4,Win32,59.89099838,5c42c4b05aca820001f71477,64ce5acb97489d65b14ecc7a,64cf4bc36fe1d4873d81d9ca,,,,,,,decisionTrl,resources/DR.BMP,resources/DB.BMP,Door4,-0.388888889,-0.095370399,1,0,0,1.3479,optionLeft,80,15775,7,29,0,29,0,1,,,,,,,,,,,,,,,,,,,,,,,,,,,,,,,,,,,,,,,
,,,,,,,,2023-08-06_08h29.46.557,HF_wild_card,2022.2.4,Win32,59.89099838,5c42c4b05aca820001f71477,64ce5acb97489d65b14ecc7a,64cf4bc36fe1d4873d81d9ca,,,,,,,decisionTrl,resources/DBN.BMP,resources/DP.BMP,Door1,-0.427777778,-0.062037065,1,0,0,1.2242,optionLeft,30,15805,7,30,0,30,0,1,,,,,,,,,,,,,,,,,,,,,,,,,,,,,,,,,,,,,,,
,,,,,,,,2023-08-06_08h29.46.557,HF_wild_card,2022.2.4,Win32,59.89099838,5c42c4b05aca820001f71477,64ce5acb97489d65b14ecc7a,64cf4bc36fe1d4873d81d9ca,,,,,,,decisionTrl,resources/DB.BMP,resources/DR.BMP,Door4,0.420370399,-0.060185199,1,0,0,0.9367,optionRight,80,15885,7,31,0,31,0,1,,,,,,,,,,,,,,,,,,,,,,,,,,,,,,,,,,,,,,,
,,,,,,,,2023-08-06_08h29.46.557,HF_wild_card,2022.2.4,Win32,59.89099838,5c42c4b05aca820001f71477,64ce5acb97489d65b14ecc7a,64cf4bc36fe1d4873d81d9ca,,,,,,,decisionTrl,resources/DP.BMP,resources/DBN.BMP,Door1,0.384259288,-0.045370399,1,0,0,1.6334,optionRight,30,15915,7,32,0,32,0,1,,,,,,,,,,,,,,,,,,,,,,,,,,,,,,,,,,,,,,,
,,,,,,,,2023-08-06_08h29.46.557,HF_wild_card,2022.2.4,Win32,59.89099838,5c42c4b05aca820001f71477,64ce5acb97489d65b14ecc7a,64cf4bc36fe1d4873d81d9ca,,,,,,,decisionTrl,resources/DBN.BMP,resources/DP.BMP,Door1,-0.27870369,-0.073148176,1,0,0,1.0003,optionLeft,30,15945,7,33,0,33,0,1,,,,,,,,,,,,,,,,,,,,,,,,,,,,,,,,,,,,,,,
,,,,,,,,2023-08-06_08h29.46.557,HF_wild_card,2022.2.4,Win32,59.89099838,5c42c4b05aca820001f71477,64ce5acb97489d65b14ecc7a,64cf4bc36fe1d4873d81d9ca,,,,,,,ctch,resources/DBN.BMP,resources/DR.BMP,Door4,0.412963019,-0.02129631,1,0,0,0.8748,optionRight,60,16005,7,34,0,34,0,1,,,,,,,,,,,,,,,,,,,,,,,,,,,,,,,,,,,,,,,
,,,,,,,,2023-08-06_08h29.46.557,HF_wild_card,2022.2.4,Win32,59.89099838,5c42c4b05aca820001f71477,64ce5acb97489d65b14ecc7a,64cf4bc36fe1d4873d81d9ca,,,,,,,ctch,resources/DBN.BMP,resources/DR.BMP,Door4,0.384259288,-0.012037065,1,0,0,0.8131,optionRight,60,16065,7,35,0,35,0,1,,,,,,,,,,,,,,,,,,,,,,,,,,,,,,,,,,,,,,,
,,,,,,,,2023-08-06_08h29.46.557,HF_wild_card,2022.2.4,Win32,59.89099838,5c42c4b05aca820001f71477,64ce5acb97489d65b14ecc7a,64cf4bc36fe1d4873d81d9ca,,,,,,,,,,,,,,,,,,,,,,,,,,6,0,6,0,1,,,,,,,,,,,,,,,,,,,,,,,,,,,,,,,,,,
,,,,,,,,2023-08-06_08h29.46.557,HF_wild_card,2022.2.4,Win32,59.89099838,5c42c4b05aca820001f71477,64ce5acb97489d65b14ecc7a,64cf4bc36fe1d4873d81d9ca,,,,,,,,,,,,,,,,,,,,,,,,,,,,,,,4,,,,,,,,,,,,,,,,,,,,,,,,,,,,,,,,,
,,,,,,,,2023-08-06_08h29.46.557,HF_wild_card,2022.2.4,Win32,59.89099838,5c42c4b05aca820001f71477,64ce5acb97489d65b14ecc7a,64cf4bc36fe1d4873d81d9ca,,,,,,,,,,,,,,,,,,,,,,,,,,,,,,,,,,,,,,,,,,,,,,,,,,,,,,,,,,,,,,,,
,,,,,,,,2023-08-06_08h29.46.557,HF_wild_card,2022.2.4,Win32,59.89099838,5c42c4b05aca820001f71477,64ce5acb97489d65b14ecc7a,64cf4bc36fe1d4873d81d9ca,,,,,,,,,,,,,,,,,,,,,,,,,,,,,,,,80,Door4,resources/DR.BMP,0,0,0,0,1,,,,,,,,,,,,,,,,,,,,,,,,,
,,,,,,,,2023-08-06_08h29.46.557,HF_wild_card,2022.2.4,Win32,59.89099838,5c42c4b05aca820001f71477,64ce5acb97489d65b14ecc7a,64cf4bc36fe1d4873d81d9ca,,,,,,,,,,,,,,,,,,,,,,,,,,,,,,,,60,Door3,resources/DB.BMP,1,0,1,0,1,,,,,,,,,,,,,,,,,,,,,,,,,
,,,,,,,,2023-08-06_08h29.46.557,HF_wild_card,2022.2.4,Win32,59.89099838,5c42c4b05aca820001f71477,64ce5acb97489d65b14ecc7a,64cf4bc36fe1d4873d81d9ca,,,,,,,,,,,,,,,,,,,,,,,,,,,,,,,,5,WC_extreme,resources/DG.BMP,2,0,2,0,1,,,,,,,,,,,,,,,,,,,,,,,,,
,,,,,,,,2023-08-06_08h29.46.557,HF_wild_card,2022.2.4,Win32,59.89099838,5c42c4b05aca820001f71477,64ce5acb97489d65b14ecc7a,64cf4bc36fe1d4873d81d9ca,,,,,,,,,,,,,,,,,,,,,,,,,,,,,,,,20,WC_nonExtreme,resources/DY.BMP,3,0,3,0,1,,,,,,,,,,,,,,,,,,,,,,,,,
,,,,,,,,2023-08-06_08h29.46.557,HF_wild_card,2022.2.4,Win32,59.89099838,5c42c4b05aca820001f71477,64ce5acb97489d65b14ecc7a,64cf4bc36fe1d4873d81d9ca,,,,,,,,,,,,,,,,,,,,,,,,,,,,,,,,20,Door2,resources/DP.BMP,4,0,4,0,1,,,,,,,,,,,,,,,,,,,,,,,,,
,,,,,,,,2023-08-06_08h29.46.557,HF_wild_card,2022.2.4,Win32,59.89099838,5c42c4b05aca820001f71477,64ce5acb97489d65b14ecc7a,64cf4bc36fe1d4873d81d9ca,,,,,,,,,,,,,,,,,,,,,,,,,,,,,,,,20,Door1,resources/DBN.BMP,5,0,5,0,1,,,,,,,,,,,,,,,,,,,,,,,,,
,,,,,,,,2023-08-06_08h29.46.557,HF_wild_card,2022.2.4,Win32,59.89099838,5c42c4b05aca820001f71477,64ce5acb97489d65b14ecc7a,64cf4bc36fe1d4873d81d9ca,,,,,,,,,,,,,,,,,,,,,,,,,,,,,,,,,,,,,,,,,,,,,,,,,,,,,,,,,,,,,,,,
