Condition,Low fixed image (Door1),Low risky image (Door2),High fixed image (Door3),High risky image (Door4),Extreme Wild Card,NonExtreme Wild Card,,date,expName,psychopyVersion,OS,frameRate,PROLIFIC_PID,STUDY_ID,SESSION_ID,mouse_2.x,mouse_2.y,mouse_2.leftButton,mouse_2.midButton,mouse_2.rightButton,mouse_2.clicked_name,Trial Type,Left Option Image,Right Option Image,Chosen Door,mouse.x,mouse.y,mouse.leftButton,mouse.midButton,mouse.rightButton,mouse.time,mouse.clicked_name,Feedback,Cumulative Reward,Block,trial.thisRepN,trial.thisTrialN,trial.thisN,trial.thisIndex,trial.ran,blocks.thisRepN,blocks.thisTrialN,blocks.thisN,blocks.thisIndex,blocks.ran,Money conversion,First Outcome Reported,Shown Door (First Outcome),Displayed Image (First Outcome),outcomes.thisRepN,outcomes.thisTrialN,outcomes.thisN,outcomes.thisIndex,outcomes.ran,judgments.thisRepN,judgments.thisTrialN,judgments.thisN,judgments.thisIndex,judgments.ran,freqMouse.x,freqMouse.y,freqMouse.leftButton,freqMouse.midButton,freqMouse.rightButton,freqMouse.clicked_name,FQJ for first outcome,FQJ for second outcome,Shown Door,Displayed Image,trials.thisRepN,trials.thisTrialN,trials.thisN,trials.thisIndex,trials.ran,judgBlock.thisRepN,judgBlock.thisTrialN,judgBlock.thisN,judgBlock.thisIndex,judgBlock.ran
0,resources/DP.BMP,resources/DG.BMP,resources/DY.BMP,resources/DB.BMP,resources/DR.BMP,resources/DBN.BMP,,2023-08-16_08h39.31.963,HF_wild_card,2022.2.4,MacIntel,60.0024001,55b78162fdf99b0416ce544e,64d2fd46c836a06233681665,64dc7c5f2ac0a69ca4696226,,,,,,,,,,,,,,,,,,,,,,,,,,,,,,,,,,,,,,,,,,,,,,,,,,,,,,,,,,,,,,,,
,,,,,,,,2023-08-16_08h39.31.963,HF_wild_card,2022.2.4,MacIntel,60.0024001,55b78162fdf99b0416ce544e,64d2fd46c836a06233681665,64dc7c5f2ac0a69ca4696226,0.000342882,-0.424006076,1,0,0,agree,,,,,,,,,,,,,,,,,,,,,,,,,,,,,,,,,,,,,,,,,,,,,,,,,,,,,,,,,,
,,,,,,,,2023-08-16_08h39.31.963,HF_wild_card,2022.2.4,MacIntel,60.0024001,55b78162fdf99b0416ce544e,64d2fd46c836a06233681665,64dc7c5f2ac0a69ca4696226,,,,,,,,,,,,,,,,,,,,,,,,,,,,,,,,,,,,,,,,,,,,,,,,,,,,,,,,,,,,,,,,
,,,,,,,,2023-08-16_08h39.31.963,HF_wild_card,2022.2.4,MacIntel,60.0024001,55b78162fdf99b0416ce544e,64d2fd46c836a06233681665,64dc7c5f2ac0a69ca4696226,,,,,,,decisionTrl,resources/DG.BMP,resources/DP.BMP,Door1,0.394014757,-0.139479167,1,0,0,1.7286,optionRight,30,30,1,0,0,0,0,1,,,,,,,,,,,,,,,,,,,,,,,,,,,,,,,,,,,,,,,
,,,,,,,,2023-08-16_08h39.31.963,HF_wild_card,2022.2.4,MacIntel,60.0024001,55b78162fdf99b0416ce544e,64d2fd46c836a06233681665,64dc7c5f2ac0a69ca4696226,,,,,,,decisionTrl,resources/DY.BMP,resources/DR.BMP,Door3,-0.32109809,-0.062335069,1,0,0,1.5951,optionLeft,70,100,1,1,0,1,0,1,,,,,,,,,,,,,,,,,,,,,,,,,,,,,,,,,,,,,,,
,,,,,,,,2023-08-16_08h39.31.963,HF_wild_card,2022.2.4,MacIntel,60.0024001,55b78162fdf99b0416ce544e,64d2fd46c836a06233681665,64dc7c5f2ac0a69ca4696226,,,,,,,sngl,resources/Empty.png,resources/DR.BMP,WildCard_Ex,0.346493056,-0.032452257,1,0,0,1.021,optionRight,5,105,1,2,0,2,0,1,,,,,,,,,,,,,,,,,,,,,,,,,,,,,,,,,,,,,,,
,,,,,,,,2023-08-16_08h39.31.963,HF_wild_card,2022.2.4,MacIntel,60.0024001,55b78162fdf99b0416ce544e,64d2fd46c836a06233681665,64dc7c5f2ac0a69ca4696226,,,,,,,decisionTrl,resources/DP.BMP,resources/DG.BMP,Door2,0.325373264,-0.009830729,1,0,0,1.4473,optionRight,20,125,1,3,0,3,0,1,,,,,,,,,,,,,,,,,,,,,,,,,,,,,,,,,,,,,,,
,,,,,,,,2023-08-16_08h39.31.963,HF_wild_card,2022.2.4,MacIntel,60.0024001,55b78162fdf99b0416ce544e,64d2fd46c836a06233681665,64dc7c5f2ac0a69ca4696226,,,,,,,sngl,resources/DP.BMP,resources/Empty.png,Door1,-0.290885417,-0.079131944,1,0,0,0.8474,optionLeft,30,155,1,4,0,4,0,1,,,,,,,,,,,,,,,,,,,,,,,,,,,,,,,,,,,,,,,
,,,,,,,,2023-08-16_08h39.31.963,HF_wild_card,2022.2.4,MacIntel,60.0024001,55b78162fdf99b0416ce544e,64d2fd46c836a06233681665,64dc7c5f2ac0a69ca4696226,,,,,,,ctch,resources/DY.BMP,resources/DG.BMP,Door3,-0.241905382,-0.107243924,1,0,0,1.3003,optionLeft,70,225,1,5,0,5,0,1,,,,,,,,,,,,,,,,,,,,,,,,,,,,,,,,,,,,,,,
,,,,,,,,2023-08-16_08h39.31.963,HF_wild_card,2022.2.4,MacIntel,60.0024001,55b78162fdf99b0416ce544e,64d2fd46c836a06233681665,64dc7c5f2ac0a69ca4696226,,,,,,,sngl,resources/DR.BMP,resources/Empty.png,WildCard_Ex,-0.382282986,-0.033945312,1,0,0,0.9612,optionLeft,5,230,1,6,0,6,0,1,,,,,,,,,,,,,,,,,,,,,,,,,,,,,,,,,,,,,,,
,,,,,,,,2023-08-16_08h39.31.963,HF_wild_card,2022.2.4,MacIntel,60.0024001,55b78162fdf99b0416ce544e,64d2fd46c836a06233681665,64dc7c5f2ac0a69ca4696226,,,,,,,decisionTrl,resources/DG.BMP,resources/DP.BMP,Door1,0.326987847,-0.050065104,1,0,0,0.9284,optionRight,30,260,1,7,0,7,0,1,,,,,,,,,,,,,,,,,,,,,,,,,,,,,,,,,,,,,,,
,,,,,,,,2023-08-16_08h39.31.963,HF_wild_card,2022.2.4,MacIntel,60.0024001,55b78162fdf99b0416ce544e,64d2fd46c836a06233681665,64dc7c5f2ac0a69ca4696226,,,,,,,decisionTrl,resources/DP.BMP,resources/DG.BMP,Door1,-0.313710938,-0.081128472,1,0,0,0.8617,optionLeft,30,290,1,8,0,8,0,1,,,,,,,,,,,,,,,,,,,,,,,,,,,,,,,,,,,,,,,
,,,,,,,,2023-08-16_08h39.31.963,HF_wild_card,2022.2.4,MacIntel,60.0024001,55b78162fdf99b0416ce544e,64d2fd46c836a06233681665,64dc7c5f2ac0a69ca4696226,,,,,,,sngl,resources/Empty.png,resources/DR.BMP,WildCard_Ex,0.350976562,-0.064921875,1,0,0,0.8464,optionRight,95,385,1,9,0,9,0,1,,,,,,,,,,,,,,,,,,,,,,,,,,,,,,,,,,,,,,,
,,,,,,,,2023-08-16_08h39.31.963,HF_wild_card,2022.2.4,MacIntel,60.0024001,55b78162fdf99b0416ce544e,64d2fd46c836a06233681665,64dc7c5f2ac0a69ca4696226,,,,,,,decisionTrl,resources/DY.BMP,resources/DB.BMP,Door4,0.324318576,-0.133867188,1,0,0,2.6809,optionRight,60,445,1,10,0,10,0,1,,,,,,,,,,,,,,,,,,,,,,,,,,,,,,,,,,,,,,,
,,,,,,,,2023-08-16_08h39.31.963,HF_wild_card,2022.2.4,MacIntel,60.0024001,55b78162fdf99b0416ce544e,64d2fd46c836a06233681665,64dc7c5f2ac0a69ca4696226,,,,,,,decisionTrl,resources/DY.BMP,resources/DB.BMP,Door3,-0.380798611,-0.006501736,1,0,0,0.848,optionLeft,70,515,1,11,0,11,0,1,,,,,,,,,,,,,,,,,,,,,,,,,,,,,,,,,,,,,,,
,,,,,,,,2023-08-16_08h39.31.963,HF_wild_card,2022.2.4,MacIntel,60.0024001,55b78162fdf99b0416ce544e,64d2fd46c836a06233681665,64dc7c5f2ac0a69ca4696226,,,,,,,decisionTrl,resources/DG.BMP,resources/DR.BMP,WildCard_Ex,0.391215278,-0.098307292,1,0,0,2.1439,optionRight,95,610,1,12,0,12,0,1,,,,,,,,,,,,,,,,,,,,,,,,,,,,,,,,,,,,,,,
,,,,,,,,2023-08-16_08h39.31.963,HF_wild_card,2022.2.4,MacIntel,60.0024001,55b78162fdf99b0416ce544e,64d2fd46c836a06233681665,64dc7c5f2ac0a69ca4696226,,,,,,,decisionTrl,resources/DB.BMP,resources/DY.BMP,Door3,0.330199653,-0.078055556,1,0,0,1.3485,optionRight,70,680,1,13,0,13,0,1,,,,,,,,,,,,,,,,,,,,,,,,,,,,,,,,,,,,,,,
,,,,,,,,2023-08-16_08h39.31.963,HF_wild_card,2022.2.4,MacIntel,60.0024001,55b78162fdf99b0416ce544e,64d2fd46c836a06233681665,64dc7c5f2ac0a69ca4696226,,,,,,,decisionTrl,resources/DB.BMP,resources/DY.BMP,Door4,-0.281536458,-0.07546441,1,0,0,0.848,optionLeft,80,760,1,14,0,14,0,1,,,,,,,,,,,,,,,,,,,,,,,,,,,,,,,,,,,,,,,
,,,,,,,,2023-08-16_08h39.31.963,HF_wild_card,2022.2.4,MacIntel,60.0024001,55b78162fdf99b0416ce544e,64d2fd46c836a06233681665,64dc7c5f2ac0a69ca4696226,,,,,,,sngl,resources/DB.BMP,resources/Empty.png,Door4,-0.332005208,-0.045364583,1,0,0,0.829,optionLeft,80,840,1,15,0,15,0,1,,,,,,,,,,,,,,,,,,,,,,,,,,,,,,,,,,,,,,,
,,,,,,,,2023-08-16_08h39.31.963,HF_wild_card,2022.2.4,MacIntel,60.0024001,55b78162fdf99b0416ce544e,64d2fd46c836a06233681665,64dc7c5f2ac0a69ca4696226,,,,,,,decisionTrl,resources/DY.BMP,resources/DB.BMP,Door3,-0.307738715,-0.090260417,1,0,0,1.5795,optionLeft,70,910,1,16,0,16,0,1,,,,,,,,,,,,,,,,,,,,,,,,,,,,,,,,,,,,,,,
,,,,,,,,2023-08-16_08h39.31.963,HF_wild_card,2022.2.4,MacIntel,60.0024001,55b78162fdf99b0416ce544e,64d2fd46c836a06233681665,64dc7c5f2ac0a69ca4696226,,,,,,,sngl,resources/DR.BMP,resources/Empty.png,WildCard_Ex,-0.455091146,-0.001280382,1,0,0,1.0941,optionLeft,95,1005,1,17,0,17,0,1,,,,,,,,,,,,,,,,,,,,,,,,,,,,,,,,,,,,,,,
,,,,,,,,2023-08-16_08h39.31.963,HF_wild_card,2022.2.4,MacIntel,60.0024001,55b78162fdf99b0416ce544e,64d2fd46c836a06233681665,64dc7c5f2ac0a69ca4696226,,,,,,,decisionTrl,resources/DP.BMP,resources/DG.BMP,Door2,0.378845486,-0.092799479,1,0,0,1.5329,optionRight,20,1025,1,18,0,18,0,1,,,,,,,,,,,,,,,,,,,,,,,,,,,,,,,,,,,,,,,
,,,,,,,,2023-08-16_08h39.31.963,HF_wild_card,2022.2.4,MacIntel,60.0024001,55b78162fdf99b0416ce544e,64d2fd46c836a06233681665,64dc7c5f2ac0a69ca4696226,,,,,,,ctch,resources/DG.BMP,resources/DY.BMP,Door3,0.404965278,-0.031705729,1,0,0,1.1855,optionRight,70,1095,1,19,0,19,0,1,,,,,,,,,,,,,,,,,,,,,,,,,,,,,,,,,,,,,,,
,,,,,,,,2023-08-16_08h39.31.963,HF_wild_card,2022.2.4,MacIntel,60.0024001,55b78162fdf99b0416ce544e,64d2fd46c836a06233681665,64dc7c5f2ac0a69ca4696226,,,,,,,decisionTrl,resources/DB.BMP,resources/DY.BMP,Door4,-0.351888021,-0.038537326,1,0,0,0.8996,optionLeft,60,1155,1,20,0,20,0,1,,,,,,,,,,,,,,,,,,,,,,,,,,,,,,,,,,,,,,,
,,,,,,,,2023-08-16_08h39.31.963,HF_wild_card,2022.2.4,MacIntel,60.0024001,55b78162fdf99b0416ce544e,64d2fd46c836a06233681665,64dc7c5f2ac0a69ca4696226,,,,,,,sngl,resources/Empty.png,resources/DB.BMP,Door4,0.398064236,-0.119578993,1,0,0,0.7285,optionRight,60,1215,1,21,0,21,0,1,,,,,,,,,,,,,,,,,,,,,,,,,,,,,,,,,,,,,,,
,,,,,,,,2023-08-16_08h39.31.963,HF_wild_card,2022.2.4,MacIntel,60.0024001,55b78162fdf99b0416ce544e,64d2fd46c836a06233681665,64dc7c5f2ac0a69ca4696226,,,,,,,sngl,resources/Empty.png,resources/DP.BMP,Door1,0.445169271,-0.091857639,1,0,0,0.7971,optionRight,30,1245,1,22,0,22,0,1,,,,,,,,,,,,,,,,,,,,,,,,,,,,,,,,,,,,,,,
,,,,,,,,2023-08-16_08h39.31.963,HF_wild_card,2022.2.4,MacIntel,60.0024001,55b78162fdf99b0416ce544e,64d2fd46c836a06233681665,64dc7c5f2ac0a69ca4696226,,,,,,,decisionTrl,resources/DB.BMP,resources/DR.BMP,WildCard_Ex,0.289032118,-0.074331597,1,0,0,1.6318,optionRight,95,1340,1,23,0,23,0,1,,,,,,,,,,,,,,,,,,,,,,,,,,,,,,,,,,,,,,,
,,,,,,,,2023-08-16_08h39.31.963,HF_wild_card,2022.2.4,MacIntel,60.0024001,55b78162fdf99b0416ce544e,64d2fd46c836a06233681665,64dc7c5f2ac0a69ca4696226,,,,,,,decisionTrl,resources/DG.BMP,resources/DP.BMP,Door1,0.437000868,-0.097947049,1,0,0,1.6636,optionRight,30,1370,1,24,0,24,0,1,,,,,,,,,,,,,,,,,,,,,,,,,,,,,,,,,,,,,,,
,,,,,,,,2023-08-16_08h39.31.963,HF_wild_card,2022.2.4,MacIntel,60.0024001,55b78162fdf99b0416ce544e,64d2fd46c836a06233681665,64dc7c5f2ac0a69ca4696226,,,,,,,sngl,resources/Empty.png,resources/DY.BMP,Door3,0.411909722,-0.049405382,1,0,0,0.9171,optionRight,70,1440,1,25,0,25,0,1,,,,,,,,,,,,,,,,,,,,,,,,,,,,,,,,,,,,,,,
,,,,,,,,2023-08-16_08h39.31.963,HF_wild_card,2022.2.4,MacIntel,60.0024001,55b78162fdf99b0416ce544e,64d2fd46c836a06233681665,64dc7c5f2ac0a69ca4696226,,,,,,,sngl,resources/Empty.png,resources/DG.BMP,Door2,0.359253472,-0.058967014,1,0,0,0.846,optionRight,20,1460,1,26,0,26,0,1,,,,,,,,,,,,,,,,,,,,,,,,,,,,,,,,,,,,,,,
,,,,,,,,2023-08-16_08h39.31.963,HF_wild_card,2022.2.4,MacIntel,60.0024001,55b78162fdf99b0416ce544e,64d2fd46c836a06233681665,64dc7c5f2ac0a69ca4696226,,,,,,,decisionTrl,resources/DR.BMP,resources/DP.BMP,WildCard_Ex,-0.384587674,-0.102999132,1,0,0,1.0277,optionLeft,5,1465,1,27,0,27,0,1,,,,,,,,,,,,,,,,,,,,,,,,,,,,,,,,,,,,,,,
,,,,,,,,2023-08-16_08h39.31.963,HF_wild_card,2022.2.4,MacIntel,60.0024001,55b78162fdf99b0416ce544e,64d2fd46c836a06233681665,64dc7c5f2ac0a69ca4696226,,,,,,,decisionTrl,resources/DP.BMP,resources/DR.BMP,WildCard_Ex,0.318797743,-0.011085069,1,0,0,2.5463,optionRight,5,1470,1,28,0,28,0,1,,,,,,,,,,,,,,,,,,,,,,,,,,,,,,,,,,,,,,,
,,,,,,,,2023-08-16_08h39.31.963,HF_wild_card,2022.2.4,MacIntel,60.0024001,55b78162fdf99b0416ce544e,64d2fd46c836a06233681665,64dc7c5f2ac0a69ca4696226,,,,,,,sngl,resources/DG.BMP,resources/Empty.png,Door2,-0.326905382,-0.02390625,1,0,0,0.746,optionLeft,40,1510,1,29,0,29,0,1,,,,,,,,,,,,,,,,,,,,,,,,,,,,,,,,,,,,,,,
,,,,,,,,2023-08-16_08h39.31.963,HF_wild_card,2022.2.4,MacIntel,60.0024001,55b78162fdf99b0416ce544e,64d2fd46c836a06233681665,64dc7c5f2ac0a69ca4696226,,,,,,,decisionTrl,resources/DB.BMP,resources/DY.BMP,Door4,-0.348203125,-0.056519097,1,0,0,1.2482,optionLeft,80,1590,1,30,0,30,0,1,,,,,,,,,,,,,,,,,,,,,,,,,,,,,,,,,,,,,,,
,,,,,,,,2023-08-16_08h39.31.963,HF_wild_card,2022.2.4,MacIntel,60.0024001,55b78162fdf99b0416ce544e,64d2fd46c836a06233681665,64dc7c5f2ac0a69ca4696226,,,,,,,ctch,resources/DB.BMP,resources/DP.BMP,Door4,-0.376453993,-0.104305556,1,0,0,1.1123,optionLeft,80,1670,1,31,0,31,0,1,,,,,,,,,,,,,,,,,,,,,,,,,,,,,,,,,,,,,,,
,,,,,,,,2023-08-16_08h39.31.963,HF_wild_card,2022.2.4,MacIntel,60.0024001,55b78162fdf99b0416ce544e,64d2fd46c836a06233681665,64dc7c5f2ac0a69ca4696226,,,,,,,ctch,resources/DY.BMP,resources/DG.BMP,Door3,-0.381536458,-0.063407118,1,0,0,0.8472,optionLeft,70,1740,1,32,0,32,0,1,,,,,,,,,,,,,,,,,,,,,,,,,,,,,,,,,,,,,,,
,,,,,,,,2023-08-16_08h39.31.963,HF_wild_card,2022.2.4,MacIntel,60.0024001,55b78162fdf99b0416ce544e,64d2fd46c836a06233681665,64dc7c5f2ac0a69ca4696226,,,,,,,ctch,resources/DP.BMP,resources/DB.BMP,Door4,0.400989583,-0.04265191,1,0,0,1.0616,optionRight,80,1820,1,33,0,33,0,1,,,,,,,,,,,,,,,,,,,,,,,,,,,,,,,,,,,,,,,
,,,,,,,,2023-08-16_08h39.31.963,HF_wild_card,2022.2.4,MacIntel,60.0024001,55b78162fdf99b0416ce544e,64d2fd46c836a06233681665,64dc7c5f2ac0a69ca4696226,,,,,,,decisionTrl,resources/DR.BMP,resources/DB.BMP,WildCard_Ex,-0.316493056,-0.068059896,1,0,0,0.7792,optionLeft,5,1825,1,34,0,34,0,1,,,,,,,,,,,,,,,,,,,,,,,,,,,,,,,,,,,,,,,
,,,,,,,,2023-08-16_08h39.31.963,HF_wild_card,2022.2.4,MacIntel,60.0024001,55b78162fdf99b0416ce544e,64d2fd46c836a06233681665,64dc7c5f2ac0a69ca4696226,,,,,,,decisionTrl,resources/DY.BMP,resources/DB.BMP,Door4,0.412248264,-0.117052951,1,0,0,0.8983,optionRight,60,1885,1,35,0,35,0,1,,,,,,,,,,,,,,,,,,,,,,,,,,,,,,,,,,,,,,,
,,,,,,,,2023-08-16_08h39.31.963,HF_wild_card,2022.2.4,MacIntel,60.0024001,55b78162fdf99b0416ce544e,64d2fd46c836a06233681665,64dc7c5f2ac0a69ca4696226,,,,,,,decisionTrl,resources/DP.BMP,resources/DG.BMP,Door1,-0.43140191,-0.144006076,1,0,0,5.3318,optionLeft,30,1915,1,36,0,36,0,1,,,,,,,,,,,,,,,,,,,,,,,,,,,,,,,,,,,,,,,
,,,,,,,,2023-08-16_08h39.31.963,HF_wild_card,2022.2.4,MacIntel,60.0024001,55b78162fdf99b0416ce544e,64d2fd46c836a06233681665,64dc7c5f2ac0a69ca4696226,,,,,,,ctch,resources/DB.BMP,resources/DP.BMP,Door4,-0.289934896,-0.037430556,1,0,0,1.4272,optionLeft,60,1975,1,37,0,37,0,1,,,,,,,,,,,,,,,,,,,,,,,,,,,,,,,,,,,,,,,
,,,,,,,,2023-08-16_08h39.31.963,HF_wild_card,2022.2.4,MacIntel,60.0024001,55b78162fdf99b0416ce544e,64d2fd46c836a06233681665,64dc7c5f2ac0a69ca4696226,,,,,,,ctch,resources/DG.BMP,resources/DY.BMP,Door2,-0.324175347,-0.072039931,1,0,0,0.8643,optionLeft,20,1995,1,38,0,38,0,1,,,,,,,,,,,,,,,,,,,,,,,,,,,,,,,,,,,,,,,
,,,,,,,,2023-08-16_08h39.31.963,HF_wild_card,2022.2.4,MacIntel,60.0024001,55b78162fdf99b0416ce544e,64d2fd46c836a06233681665,64dc7c5f2ac0a69ca4696226,,,,,,,ctch,resources/DP.BMP,resources/DB.BMP,Door4,0.471223958,-0.059401042,1,0,0,1.1447,optionRight,60,2055,1,39,0,39,0,1,,,,,,,,,,,,,,,,,,,,,,,,,,,,,,,,,,,,,,,
,,,,,,,,2023-08-16_08h39.31.963,HF_wild_card,2022.2.4,MacIntel,60.0024001,55b78162fdf99b0416ce544e,64d2fd46c836a06233681665,64dc7c5f2ac0a69ca4696226,,,,,,,decisionTrl,resources/DR.BMP,resources/DG.BMP,Door2,0.373355035,-0.059366319,1,0,0,1.0958,optionRight,40,2095,1,40,0,40,0,1,,,,,,,,,,,,,,,,,,,,,,,,,,,,,,,,,,,,,,,
,,,,,,,,2023-08-16_08h39.31.963,HF_wild_card,2022.2.4,MacIntel,60.0024001,55b78162fdf99b0416ce544e,64d2fd46c836a06233681665,64dc7c5f2ac0a69ca4696226,,,,,,,decisionTrl,resources/DR.BMP,resources/DY.BMP,Door3,0.348224826,-0.07953559,1,0,0,1.9114,optionRight,70,2165,1,41,0,41,0,1,,,,,,,,,,,,,,,,,,,,,,,,,,,,,,,,,,,,,,,
,,,,,,,,2023-08-16_08h39.31.963,HF_wild_card,2022.2.4,MacIntel,60.0024001,55b78162fdf99b0416ce544e,64d2fd46c836a06233681665,64dc7c5f2ac0a69ca4696226,,,,,,,sngl,resources/DY.BMP,resources/Empty.png,Door3,-0.306814236,-0.070438368,1,0,0,0.8467,optionLeft,70,2235,1,42,0,42,0,1,,,,,,,,,,,,,,,,,,,,,,,,,,,,,,,,,,,,,,,
,,,,,,,,2023-08-16_08h39.31.963,HF_wild_card,2022.2.4,MacIntel,60.0024001,55b78162fdf99b0416ce544e,64d2fd46c836a06233681665,64dc7c5f2ac0a69ca4696226,,,,,,,decisionTrl,resources/DG.BMP,resources/DP.BMP,Door1,0.371323785,-0.066861979,1,0,0,1.7647,optionRight,30,2265,1,43,0,43,0,1,,,,,,,,,,,,,,,,,,,,,,,,,,,,,,,,,,,,,,,
,,,,,,,,2023-08-16_08h39.31.963,HF_wild_card,2022.2.4,MacIntel,60.0024001,55b78162fdf99b0416ce544e,64d2fd46c836a06233681665,64dc7c5f2ac0a69ca4696226,,,,,,,,,,,,,,,,,,,,,,,,,,0,0,0,0,1,,,,,,,,,,,,,,,,,,,,,,,,,,,,,,,,,,
,,,,,,,,2023-08-16_08h39.31.963,HF_wild_card,2022.2.4,MacIntel,60.0024001,55b78162fdf99b0416ce544e,64d2fd46c836a06233681665,64dc7c5f2ac0a69ca4696226,,,,,,,decisionTrl,resources/DP.BMP,resources/DG.BMP,Door1,-0.442408854,-0.139717882,1,0,0,1.5826,optionLeft,30,2295,2,0,0,0,0,1,,,,,,,,,,,,,,,,,,,,,,,,,,,,,,,,,,,,,,,
,,,,,,,,2023-08-16_08h39.31.963,HF_wild_card,2022.2.4,MacIntel,60.0024001,55b78162fdf99b0416ce544e,64d2fd46c836a06233681665,64dc7c5f2ac0a69ca4696226,,,,,,,ctch,resources/DB.BMP,resources/DP.BMP,Door4,-0.335260417,-0.08094184,1,0,0,0.9321,optionLeft,80,2375,2,1,0,1,0,1,,,,,,,,,,,,,,,,,,,,,,,,,,,,,,,,,,,,,,,
,,,,,,,,2023-08-16_08h39.31.963,HF_wild_card,2022.2.4,MacIntel,60.0024001,55b78162fdf99b0416ce544e,64d2fd46c836a06233681665,64dc7c5f2ac0a69ca4696226,,,,,,,decisionTrl,resources/DG.BMP,resources/DP.BMP,Door2,-0.304874132,-0.092296007,1,0,0,1.7129,optionLeft,20,2395,2,2,0,2,0,1,,,,,,,,,,,,,,,,,,,,,,,,,,,,,,,,,,,,,,,
,,,,,,,,2023-08-16_08h39.31.963,HF_wild_card,2022.2.4,MacIntel,60.0024001,55b78162fdf99b0416ce544e,64d2fd46c836a06233681665,64dc7c5f2ac0a69ca4696226,,,,,,,decisionTrl,resources/DB.BMP,resources/DY.BMP,Door4,-0.339561632,-0.073723958,1,0,0,0.9956,optionLeft,80,2475,2,3,0,3,0,1,,,,,,,,,,,,,,,,,,,,,,,,,,,,,,,,,,,,,,,
,,,,,,,,2023-08-16_08h39.31.963,HF_wild_card,2022.2.4,MacIntel,60.0024001,55b78162fdf99b0416ce544e,64d2fd46c836a06233681665,64dc7c5f2ac0a69ca4696226,,,,,,,sngl,resources/DG.BMP,resources/Empty.png,Door2,-0.355429687,-0.035373264,1,0,0,1.0954,optionLeft,20,2495,2,4,0,4,0,1,,,,,,,,,,,,,,,,,,,,,,,,,,,,,,,,,,,,,,,
,,,,,,,,2023-08-16_08h39.31.963,HF_wild_card,2022.2.4,MacIntel,60.0024001,55b78162fdf99b0416ce544e,64d2fd46c836a06233681665,64dc7c5f2ac0a69ca4696226,,,,,,,decisionTrl,resources/DB.BMP,resources/DY.BMP,Door4,-0.32875,-0.087309028,1,0,0,1.311,optionLeft,80,2575,2,5,0,5,0,1,,,,,,,,,,,,,,,,,,,,,,,,,,,,,,,,,,,,,,,
,,,,,,,,2023-08-16_08h39.31.963,HF_wild_card,2022.2.4,MacIntel,60.0024001,55b78162fdf99b0416ce544e,64d2fd46c836a06233681665,64dc7c5f2ac0a69ca4696226,,,,,,,decisionTrl,resources/DY.BMP,resources/DR.BMP,WildCard_Ex,0.454361979,-0.064288194,1,0,0,1.8299,optionRight,5,2580,2,6,0,6,0,1,,,,,,,,,,,,,,,,,,,,,,,,,,,,,,,,,,,,,,,
,,,,,,,,2023-08-16_08h39.31.963,HF_wild_card,2022.2.4,MacIntel,60.0024001,55b78162fdf99b0416ce544e,64d2fd46c836a06233681665,64dc7c5f2ac0a69ca4696226,,,,,,,sngl,resources/Empty.png,resources/DB.BMP,Door4,0.431957465,-0.074179687,1,0,0,0.8957,optionRight,80,2660,2,7,0,7,0,1,,,,,,,,,,,,,,,,,,,,,,,,,,,,,,,,,,,,,,,
,,,,,,,,2023-08-16_08h39.31.963,HF_wild_card,2022.2.4,MacIntel,60.0024001,55b78162fdf99b0416ce544e,64d2fd46c836a06233681665,64dc7c5f2ac0a69ca4696226,,,,,,,decisionTrl,resources/DP.BMP,resources/DR.BMP,WildCard_Ex,0.471358507,-0.139318576,1,0,0,1.5457,optionRight,95,2755,2,8,0,8,0,1,,,,,,,,,,,,,,,,,,,,,,,,,,,,,,,,,,,,,,,
,,,,,,,,2023-08-16_08h39.31.963,HF_wild_card,2022.2.4,MacIntel,60.0024001,55b78162fdf99b0416ce544e,64d2fd46c836a06233681665,64dc7c5f2ac0a69ca4696226,,,,,,,ctch,resources/DP.BMP,resources/DB.BMP,Door4,0.377309028,-0.088940972,1,0,0,1.1132,optionRight,60,2815,2,9,0,9,0,1,,,,,,,,,,,,,,,,,,,,,,,,,,,,,,,,,,,,,,,
,,,,,,,,2023-08-16_08h39.31.963,HF_wild_card,2022.2.4,MacIntel,60.0024001,55b78162fdf99b0416ce544e,64d2fd46c836a06233681665,64dc7c5f2ac0a69ca4696226,,,,,,,ctch,resources/DG.BMP,resources/DY.BMP,Door3,0.400954861,-0.147426215,1,0,0,1.347,optionRight,70,2885,2,10,0,10,0,1,,,,,,,,,,,,,,,,,,,,,,,,,,,,,,,,,,,,,,,
,,,,,,,,2023-08-16_08h39.31.963,HF_wild_card,2022.2.4,MacIntel,60.0024001,55b78162fdf99b0416ce544e,64d2fd46c836a06233681665,64dc7c5f2ac0a69ca4696226,,,,,,,decisionTrl,resources/DG.BMP,resources/DP.BMP,Door1,0.394257813,-0.064301215,1,0,0,2.4983,optionRight,30,2915,2,11,0,11,0,1,,,,,,,,,,,,,,,,,,,,,,,,,,,,,,,,,,,,,,,
,,,,,,,,2023-08-16_08h39.31.963,HF_wild_card,2022.2.4,MacIntel,60.0024001,55b78162fdf99b0416ce544e,64d2fd46c836a06233681665,64dc7c5f2ac0a69ca4696226,,,,,,,ctch,resources/DY.BMP,resources/DG.BMP,Door3,-0.419505208,-0.041414931,1,0,0,1.162,optionLeft,70,2985,2,12,0,12,0,1,,,,,,,,,,,,,,,,,,,,,,,,,,,,,,,,,,,,,,,
,,,,,,,,2023-08-16_08h39.31.963,HF_wild_card,2022.2.4,MacIntel,60.0024001,55b78162fdf99b0416ce544e,64d2fd46c836a06233681665,64dc7c5f2ac0a69ca4696226,,,,,,,sngl,resources/DB.BMP,resources/Empty.png,Door4,-0.359405382,-0.069318576,1,0,0,0.7793,optionLeft,60,3045,2,13,0,13,0,1,,,,,,,,,,,,,,,,,,,,,,,,,,,,,,,,,,,,,,,
,,,,,,,,2023-08-16_08h39.31.963,HF_wild_card,2022.2.4,MacIntel,60.0024001,55b78162fdf99b0416ce544e,64d2fd46c836a06233681665,64dc7c5f2ac0a69ca4696226,,,,,,,decisionTrl,resources/DR.BMP,resources/DG.BMP,Door2,0.409947917,-0.045225694,1,0,0,1.4947,optionRight,20,3065,2,14,0,14,0,1,,,,,,,,,,,,,,,,,,,,,,,,,,,,,,,,,,,,,,,
,,,,,,,,2023-08-16_08h39.31.963,HF_wild_card,2022.2.4,MacIntel,60.0024001,55b78162fdf99b0416ce544e,64d2fd46c836a06233681665,64dc7c5f2ac0a69ca4696226,,,,,,,decisionTrl,resources/DB.BMP,resources/DR.BMP,WildCard_Ex,0.434900174,-0.061957465,1,0,0,0.8633,optionRight,5,3070,2,15,0,15,0,1,,,,,,,,,,,,,,,,,,,,,,,,,,,,,,,,,,,,,,,
,,,,,,,,2023-08-16_08h39.31.963,HF_wild_card,2022.2.4,MacIntel,60.0024001,55b78162fdf99b0416ce544e,64d2fd46c836a06233681665,64dc7c5f2ac0a69ca4696226,,,,,,,decisionTrl,resources/DB.BMP,resources/DY.BMP,Door4,-0.397439236,-0.082235243,1,0,0,0.8643,optionLeft,80,3150,2,16,0,16,0,1,,,,,,,,,,,,,,,,,,,,,,,,,,,,,,,,,,,,,,,
,,,,,,,,2023-08-16_08h39.31.963,HF_wild_card,2022.2.4,MacIntel,60.0024001,55b78162fdf99b0416ce544e,64d2fd46c836a06233681665,64dc7c5f2ac0a69ca4696226,,,,,,,ctch,resources/DB.BMP,resources/DP.BMP,Door4,-0.329973958,-0.076050347,1,0,0,0.9835,optionLeft,80,3230,2,17,0,17,0,1,,,,,,,,,,,,,,,,,,,,,,,,,,,,,,,,,,,,,,,
,,,,,,,,2023-08-16_08h39.31.963,HF_wild_card,2022.2.4,MacIntel,60.0024001,55b78162fdf99b0416ce544e,64d2fd46c836a06233681665,64dc7c5f2ac0a69ca4696226,,,,,,,decisionTrl,resources/DP.BMP,resources/DG.BMP,Door1,-0.425533854,-0.022482639,1,0,0,1.4971,optionLeft,30,3260,2,18,0,18,0,1,,,,,,,,,,,,,,,,,,,,,,,,,,,,,,,,,,,,,,,
,,,,,,,,2023-08-16_08h39.31.963,HF_wild_card,2022.2.4,MacIntel,60.0024001,55b78162fdf99b0416ce544e,64d2fd46c836a06233681665,64dc7c5f2ac0a69ca4696226,,,,,,,decisionTrl,resources/DY.BMP,resources/DB.BMP,Door4,0.24625434,-0.075533854,1,0,0,1.3779,optionRight,60,3320,2,19,0,19,0,1,,,,,,,,,,,,,,,,,,,,,,,,,,,,,,,,,,,,,,,
,,,,,,,,2023-08-16_08h39.31.963,HF_wild_card,2022.2.4,MacIntel,60.0024001,55b78162fdf99b0416ce544e,64d2fd46c836a06233681665,64dc7c5f2ac0a69ca4696226,,,,,,,sngl,resources/Empty.png,resources/DR.BMP,WildCard_Ex,0.443741319,-0.057465278,1,0,0,0.9277,optionRight,5,3325,2,20,0,20,0,1,,,,,,,,,,,,,,,,,,,,,,,,,,,,,,,,,,,,,,,
,,,,,,,,2023-08-16_08h39.31.963,HF_wild_card,2022.2.4,MacIntel,60.0024001,55b78162fdf99b0416ce544e,64d2fd46c836a06233681665,64dc7c5f2ac0a69ca4696226,,,,,,,decisionTrl,resources/DY.BMP,resources/DB.BMP,Door3,-0.417664931,-0.034392361,1,0,0,0.715,optionLeft,70,3395,2,21,0,21,0,1,,,,,,,,,,,,,,,,,,,,,,,,,,,,,,,,,,,,,,,
,,,,,,,,2023-08-16_08h39.31.963,HF_wild_card,2022.2.4,MacIntel,60.0024001,55b78162fdf99b0416ce544e,64d2fd46c836a06233681665,64dc7c5f2ac0a69ca4696226,,,,,,,sngl,resources/Empty.png,resources/DG.BMP,Door2,0.389101562,-0.063133681,1,0,0,1.0476,optionRight,40,3435,2,22,0,22,0,1,,,,,,,,,,,,,,,,,,,,,,,,,,,,,,,,,,,,,,,
,,,,,,,,2023-08-16_08h39.31.963,HF_wild_card,2022.2.4,MacIntel,60.0024001,55b78162fdf99b0416ce544e,64d2fd46c836a06233681665,64dc7c5f2ac0a69ca4696226,,,,,,,sngl,resources/Empty.png,resources/DR.BMP,WildCard_Ex,0.404375,-0.07077691,1,0,0,0.848,optionRight,95,3530,2,23,0,23,0,1,,,,,,,,,,,,,,,,,,,,,,,,,,,,,,,,,,,,,,,
,,,,,,,,2023-08-16_08h39.31.963,HF_wild_card,2022.2.4,MacIntel,60.0024001,55b78162fdf99b0416ce544e,64d2fd46c836a06233681665,64dc7c5f2ac0a69ca4696226,,,,,,,decisionTrl,resources/DR.BMP,resources/DY.BMP,WildCard_Ex,-0.413168403,-0.006844618,1,0,0,0.852,optionLeft,95,3625,2,24,0,24,0,1,,,,,,,,,,,,,,,,,,,,,,,,,,,,,,,,,,,,,,,
,,,,,,,,2023-08-16_08h39.31.963,HF_wild_card,2022.2.4,MacIntel,60.0024001,55b78162fdf99b0416ce544e,64d2fd46c836a06233681665,64dc7c5f2ac0a69ca4696226,,,,,,,decisionTrl,resources/DG.BMP,resources/DP.BMP,Door2,-0.370920139,-0.033164063,1,0,0,1.7642,optionLeft,40,3665,2,25,0,25,0,1,,,,,,,,,,,,,,,,,,,,,,,,,,,,,,,,,,,,,,,
,,,,,,,,2023-08-16_08h39.31.963,HF_wild_card,2022.2.4,MacIntel,60.0024001,55b78162fdf99b0416ce544e,64d2fd46c836a06233681665,64dc7c5f2ac0a69ca4696226,,,,,,,sngl,resources/Empty.png,resources/DY.BMP,Door3,0.459288194,-0.029665799,1,0,0,0.8635,optionRight,70,3735,2,26,0,26,0,1,,,,,,,,,,,,,,,,,,,,,,,,,,,,,,,,,,,,,,,
,,,,,,,,2023-08-16_08h39.31.963,HF_wild_card,2022.2.4,MacIntel,60.0024001,55b78162fdf99b0416ce544e,64d2fd46c836a06233681665,64dc7c5f2ac0a69ca4696226,,,,,,,decisionTrl,resources/DG.BMP,resources/DP.BMP,Door1,0.488355035,-0.081788194,1,0,0,0.8641,optionRight,30,3765,2,27,0,27,0,1,,,,,,,,,,,,,,,,,,,,,,,,,,,,,,,,,,,,,,,
,,,,,,,,2023-08-16_08h39.31.963,HF_wild_card,2022.2.4,MacIntel,60.0024001,55b78162fdf99b0416ce544e,64d2fd46c836a06233681665,64dc7c5f2ac0a69ca4696226,,,,,,,ctch,resources/DP.BMP,resources/DB.BMP,Door4,0.452282986,-0.046063368,1,0,0,0.9522,optionRight,60,3825,2,28,0,28,0,1,,,,,,,,,,,,,,,,,,,,,,,,,,,,,,,,,,,,,,,
,,,,,,,,2023-08-16_08h39.31.963,HF_wild_card,2022.2.4,MacIntel,60.0024001,55b78162fdf99b0416ce544e,64d2fd46c836a06233681665,64dc7c5f2ac0a69ca4696226,,,,,,,sngl,resources/DY.BMP,resources/Empty.png,Door3,-0.333719618,-0.009665799,1,0,0,0.7524,optionLeft,70,3895,2,29,0,29,0,1,,,,,,,,,,,,,,,,,,,,,,,,,,,,,,,,,,,,,,,
,,,,,,,,2023-08-16_08h39.31.963,HF_wild_card,2022.2.4,MacIntel,60.0024001,55b78162fdf99b0416ce544e,64d2fd46c836a06233681665,64dc7c5f2ac0a69ca4696226,,,,,,,ctch,resources/DY.BMP,resources/DG.BMP,Door3,-0.346905382,-0.064969618,1,0,0,1.4131,optionLeft,70,3965,2,30,0,30,0,1,,,,,,,,,,,,,,,,,,,,,,,,,,,,,,,,,,,,,,,
,,,,,,,,2023-08-16_08h39.31.963,HF_wild_card,2022.2.4,MacIntel,60.0024001,55b78162fdf99b0416ce544e,64d2fd46c836a06233681665,64dc7c5f2ac0a69ca4696226,,,,,,,ctch,resources/DG.BMP,resources/DY.BMP,Door3,0.386046007,-0.013997396,1,0,0,1.2133,optionRight,70,4035,2,31,0,31,0,1,,,,,,,,,,,,,,,,,,,,,,,,,,,,,,,,,,,,,,,
,,,,,,,,2023-08-16_08h39.31.963,HF_wild_card,2022.2.4,MacIntel,60.0024001,55b78162fdf99b0416ce544e,64d2fd46c836a06233681665,64dc7c5f2ac0a69ca4696226,,,,,,,decisionTrl,resources/DY.BMP,resources/DB.BMP,Door4,0.386579861,-0.095755208,1,0,0,0.948,optionRight,80,4115,2,32,0,32,0,1,,,,,,,,,,,,,,,,,,,,,,,,,,,,,,,,,,,,,,,
,,,,,,,,2023-08-16_08h39.31.963,HF_wild_card,2022.2.4,MacIntel,60.0024001,55b78162fdf99b0416ce544e,64d2fd46c836a06233681665,64dc7c5f2ac0a69ca4696226,,,,,,,decisionTrl,resources/DP.BMP,resources/DG.BMP,Door1,-0.321228299,-0.095811632,1,0,0,1.1289,optionLeft,30,4145,2,33,0,33,0,1,,,,,,,,,,,,,,,,,,,,,,,,,,,,,,,,,,,,,,,
,,,,,,,,2023-08-16_08h39.31.963,HF_wild_card,2022.2.4,MacIntel,60.0024001,55b78162fdf99b0416ce544e,64d2fd46c836a06233681665,64dc7c5f2ac0a69ca4696226,,,,,,,sngl,resources/Empty.png,resources/DP.BMP,Door1,0.380212674,-0.063684896,1,0,0,0.8298,optionRight,30,4175,2,34,0,34,0,1,,,,,,,,,,,,,,,,,,,,,,,,,,,,,,,,,,,,,,,
,,,,,,,,2023-08-16_08h39.31.963,HF_wild_card,2022.2.4,MacIntel,60.0024001,55b78162fdf99b0416ce544e,64d2fd46c836a06233681665,64dc7c5f2ac0a69ca4696226,,,,,,,sngl,resources/DP.BMP,resources/Empty.png,Door1,-0.323871528,-0.017296007,1,0,0,0.6816,optionLeft,30,4205,2,35,0,35,0,1,,,,,,,,,,,,,,,,,,,,,,,,,,,,,,,,,,,,,,,
,,,,,,,,2023-08-16_08h39.31.963,HF_wild_card,2022.2.4,MacIntel,60.0024001,55b78162fdf99b0416ce544e,64d2fd46c836a06233681665,64dc7c5f2ac0a69ca4696226,,,,,,,decisionTrl,resources/DP.BMP,resources/DG.BMP,Door2,0.375733507,-0.097074653,1,0,0,0.7824,optionRight,20,4225,2,36,0,36,0,1,,,,,,,,,,,,,,,,,,,,,,,,,,,,,,,,,,,,,,,
,,,,,,,,2023-08-16_08h39.31.963,HF_wild_card,2022.2.4,MacIntel,60.0024001,55b78162fdf99b0416ce544e,64d2fd46c836a06233681665,64dc7c5f2ac0a69ca4696226,,,,,,,decisionTrl,resources/DB.BMP,resources/DY.BMP,Door4,-0.367617187,-0.103502604,1,0,0,0.8317,optionLeft,60,4285,2,37,0,37,0,1,,,,,,,,,,,,,,,,,,,,,,,,,,,,,,,,,,,,,,,
,,,,,,,,2023-08-16_08h39.31.963,HF_wild_card,2022.2.4,MacIntel,60.0024001,55b78162fdf99b0416ce544e,64d2fd46c836a06233681665,64dc7c5f2ac0a69ca4696226,,,,,,,decisionTrl,resources/DR.BMP,resources/DP.BMP,WildCard_Ex,-0.430681424,-0.140269097,1,0,0,1.6127,optionLeft,5,4290,2,38,0,38,0,1,,,,,,,,,,,,,,,,,,,,,,,,,,,,,,,,,,,,,,,
,,,,,,,,2023-08-16_08h39.31.963,HF_wild_card,2022.2.4,MacIntel,60.0024001,55b78162fdf99b0416ce544e,64d2fd46c836a06233681665,64dc7c5f2ac0a69ca4696226,,,,,,,decisionTrl,resources/DY.BMP,resources/DB.BMP,Door4,0.248055556,-0.058194444,1,0,0,1.3983,optionRight,80,4370,2,39,0,39,0,1,,,,,,,,,,,,,,,,,,,,,,,,,,,,,,,,,,,,,,,
,,,,,,,,2023-08-16_08h39.31.963,HF_wild_card,2022.2.4,MacIntel,60.0024001,55b78162fdf99b0416ce544e,64d2fd46c836a06233681665,64dc7c5f2ac0a69ca4696226,,,,,,,sngl,resources/DR.BMP,resources/Empty.png,WildCard_Ex,-0.296927083,-0.045646701,1,0,0,0.9144,optionLeft,5,4375,2,40,0,40,0,1,,,,,,,,,,,,,,,,,,,,,,,,,,,,,,,,,,,,,,,
,,,,,,,,2023-08-16_08h39.31.963,HF_wild_card,2022.2.4,MacIntel,60.0024001,55b78162fdf99b0416ce544e,64d2fd46c836a06233681665,64dc7c5f2ac0a69ca4696226,,,,,,,sngl,resources/DR.BMP,resources/Empty.png,WildCard_Ex,-0.335772569,-0.041636285,1,0,0,0.7789,optionLeft,95,4470,2,41,0,41,0,1,,,,,,,,,,,,,,,,,,,,,,,,,,,,,,,,,,,,,,,
,,,,,,,,2023-08-16_08h39.31.963,HF_wild_card,2022.2.4,MacIntel,60.0024001,55b78162fdf99b0416ce544e,64d2fd46c836a06233681665,64dc7c5f2ac0a69ca4696226,,,,,,,decisionTrl,resources/DG.BMP,resources/DR.BMP,WildCard_Ex,0.258993056,-0.009830729,1,0,0,1.2478,optionRight,95,4565,2,42,0,42,0,1,,,,,,,,,,,,,,,,,,,,,,,,,,,,,,,,,,,,,,,
,,,,,,,,2023-08-16_08h39.31.963,HF_wild_card,2022.2.4,MacIntel,60.0024001,55b78162fdf99b0416ce544e,64d2fd46c836a06233681665,64dc7c5f2ac0a69ca4696226,,,,,,,decisionTrl,resources/DR.BMP,resources/DB.BMP,WildCard_Ex,-0.416536458,-0.045551215,1,0,0,0.8119,optionLeft,95,4660,2,43,0,43,0,1,,,,,,,,,,,,,,,,,,,,,,,,,,,,,,,,,,,,,,,
,,,,,,,,2023-08-16_08h39.31.963,HF_wild_card,2022.2.4,MacIntel,60.0024001,55b78162fdf99b0416ce544e,64d2fd46c836a06233681665,64dc7c5f2ac0a69ca4696226,,,,,,,,,,,,,,,,,,,,,,,,,,1,0,1,0,1,,,,,,,,,,,,,,,,,,,,,,,,,,,,,,,,,,
,,,,,,,,2023-08-16_08h39.31.963,HF_wild_card,2022.2.4,MacIntel,60.0024001,55b78162fdf99b0416ce544e,64d2fd46c836a06233681665,64dc7c5f2ac0a69ca4696226,,,,,,,decisionTrl,resources/DY.BMP,resources/DB.BMP,Door4,0.362009549,-0.172105035,1,0,0,2.0017,optionRight,80,4740,3,0,0,0,0,1,,,,,,,,,,,,,,,,,,,,,,,,,,,,,,,,,,,,,,,
,,,,,,,,2023-08-16_08h39.31.963,HF_wild_card,2022.2.4,MacIntel,60.0024001,55b78162fdf99b0416ce544e,64d2fd46c836a06233681665,64dc7c5f2ac0a69ca4696226,,,,,,,decisionTrl,resources/DG.BMP,resources/DR.BMP,WildCard_Ex,0.363498264,-0.054635417,1,0,0,1.3152,optionRight,95,4835,3,1,0,1,0,1,,,,,,,,,,,,,,,,,,,,,,,,,,,,,,,,,,,,,,,
,,,,,,,,2023-08-16_08h39.31.963,HF_wild_card,2022.2.4,MacIntel,60.0024001,55b78162fdf99b0416ce544e,64d2fd46c836a06233681665,64dc7c5f2ac0a69ca4696226,,,,,,,decisionTrl,resources/DP.BMP,resources/DG.BMP,Door1,-0.363094618,-0.099978299,1,0,0,1.9972,optionLeft,30,4865,3,2,0,2,0,1,,,,,,,,,,,,,,,,,,,,,,,,,,,,,,,,,,,,,,,
,,,,,,,,2023-08-16_08h39.31.963,HF_wild_card,2022.2.4,MacIntel,60.0024001,55b78162fdf99b0416ce544e,64d2fd46c836a06233681665,64dc7c5f2ac0a69ca4696226,,,,,,,decisionTrl,resources/DR.BMP,resources/DG.BMP,WildCard_Ex,-0.366610243,-0.089639757,1,0,0,0.9976,optionLeft,95,4960,3,3,0,3,0,1,,,,,,,,,,,,,,,,,,,,,,,,,,,,,,,,,,,,,,,
,,,,,,,,2023-08-16_08h39.31.963,HF_wild_card,2022.2.4,MacIntel,60.0024001,55b78162fdf99b0416ce544e,64d2fd46c836a06233681665,64dc7c5f2ac0a69ca4696226,,,,,,,sngl,resources/Empty.png,resources/DP.BMP,Door1,0.488103299,-0.054835069,1,0,0,0.8272,optionRight,30,4990,3,4,0,4,0,1,,,,,,,,,,,,,,,,,,,,,,,,,,,,,,,,,,,,,,,
,,,,,,,,2023-08-16_08h39.31.963,HF_wild_card,2022.2.4,MacIntel,60.0024001,55b78162fdf99b0416ce544e,64d2fd46c836a06233681665,64dc7c5f2ac0a69ca4696226,,,,,,,decisionTrl,resources/DB.BMP,resources/DR.BMP,Door4,-0.355394965,-0.079947917,1,0,0,1.0794,optionLeft,80,5070,3,5,0,5,0,1,,,,,,,,,,,,,,,,,,,,,,,,,,,,,,,,,,,,,,,
,,,,,,,,2023-08-16_08h39.31.963,HF_wild_card,2022.2.4,MacIntel,60.0024001,55b78162fdf99b0416ce544e,64d2fd46c836a06233681665,64dc7c5f2ac0a69ca4696226,,,,,,,decisionTrl,resources/DB.BMP,resources/DY.BMP,Door4,-0.335889757,-0.05671441,1,0,0,0.8951,optionLeft,80,5150,3,6,0,6,0,1,,,,,,,,,,,,,,,,,,,,,,,,,,,,,,,,,,,,,,,
,,,,,,,,2023-08-16_08h39.31.963,HF_wild_card,2022.2.4,MacIntel,60.0024001,55b78162fdf99b0416ce544e,64d2fd46c836a06233681665,64dc7c5f2ac0a69ca4696226,,,,,,,sngl,resources/DG.BMP,resources/Empty.png,Door2,-0.347929687,-0.032717014,1,0,0,0.831,optionLeft,40,5190,3,7,0,7,0,1,,,,,,,,,,,,,,,,,,,,,,,,,,,,,,,,,,,,,,,
,,,,,,,,2023-08-16_08h39.31.963,HF_wild_card,2022.2.4,MacIntel,60.0024001,55b78162fdf99b0416ce544e,64d2fd46c836a06233681665,64dc7c5f2ac0a69ca4696226,,,,,,,ctch,resources/DB.BMP,resources/DP.BMP,Door4,-0.326614583,-0.067994792,1,0,0,1.1631,optionLeft,60,5250,3,8,0,8,0,1,,,,,,,,,,,,,,,,,,,,,,,,,,,,,,,,,,,,,,,
,,,,,,,,2023-08-16_08h39.31.963,HF_wild_card,2022.2.4,MacIntel,60.0024001,55b78162fdf99b0416ce544e,64d2fd46c836a06233681665,64dc7c5f2ac0a69ca4696226,,,,,,,sngl,resources/Empty.png,resources/DG.BMP,Door2,0.414709201,-0.082092014,1,0,0,0.8124,optionRight,20,5270,3,9,0,9,0,1,,,,,,,,,,,,,,,,,,,,,,,,,,,,,,,,,,,,,,,
,,,,,,,,2023-08-16_08h39.31.963,HF_wild_card,2022.2.4,MacIntel,60.0024001,55b78162fdf99b0416ce544e,64d2fd46c836a06233681665,64dc7c5f2ac0a69ca4696226,,,,,,,decisionTrl,resources/DY.BMP,resources/DB.BMP,Door4,0.385507812,-0.061223958,1,0,0,0.9318,optionRight,60,5330,3,10,0,10,0,1,,,,,,,,,,,,,,,,,,,,,,,,,,,,,,,,,,,,,,,
,,,,,,,,2023-08-16_08h39.31.963,HF_wild_card,2022.2.4,MacIntel,60.0024001,55b78162fdf99b0416ce544e,64d2fd46c836a06233681665,64dc7c5f2ac0a69ca4696226,,,,,,,ctch,resources/DP.BMP,resources/DB.BMP,Door4,0.378715278,-0.078489583,1,0,0,1.3617,optionRight,60,5390,3,11,0,11,0,1,,,,,,,,,,,,,,,,,,,,,,,,,,,,,,,,,,,,,,,
,,,,,,,,2023-08-16_08h39.31.963,HF_wild_card,2022.2.4,MacIntel,60.0024001,55b78162fdf99b0416ce544e,64d2fd46c836a06233681665,64dc7c5f2ac0a69ca4696226,,,,,,,sngl,resources/DP.BMP,resources/Empty.png,Door1,-0.366493056,-0.036354167,1,0,0,0.6968,optionLeft,30,5420,3,12,0,12,0,1,,,,,,,,,,,,,,,,,,,,,,,,,,,,,,,,,,,,,,,
,,,,,,,,2023-08-16_08h39.31.963,HF_wild_card,2022.2.4,MacIntel,60.0024001,55b78162fdf99b0416ce544e,64d2fd46c836a06233681665,64dc7c5f2ac0a69ca4696226,,,,,,,sngl,resources/Empty.png,resources/DY.BMP,Door3,0.449986979,-0.082573785,1,0,0,0.7814,optionRight,70,5490,3,13,0,13,0,1,,,,,,,,,,,,,,,,,,,,,,,,,,,,,,,,,,,,,,,
,,,,,,,,2023-08-16_08h39.31.963,HF_wild_card,2022.2.4,MacIntel,60.0024001,55b78162fdf99b0416ce544e,64d2fd46c836a06233681665,64dc7c5f2ac0a69ca4696226,,,,,,,decisionTrl,resources/DB.BMP,resources/DY.BMP,Door3,0.443051215,-0.056996528,1,0,0,0.8295,optionRight,70,5560,3,14,0,14,0,1,,,,,,,,,,,,,,,,,,,,,,,,,,,,,,,,,,,,,,,
,,,,,,,,2023-08-16_08h39.31.963,HF_wild_card,2022.2.4,MacIntel,60.0024001,55b78162fdf99b0416ce544e,64d2fd46c836a06233681665,64dc7c5f2ac0a69ca4696226,,,,,,,decisionTrl,resources/DY.BMP,resources/DB.BMP,Door3,-0.3546875,-0.025768229,1,0,0,0.6952,optionLeft,70,5630,3,15,0,15,0,1,,,,,,,,,,,,,,,,,,,,,,,,,,,,,,,,,,,,,,,
,,,,,,,,2023-08-16_08h39.31.963,HF_wild_card,2022.2.4,MacIntel,60.0024001,55b78162fdf99b0416ce544e,64d2fd46c836a06233681665,64dc7c5f2ac0a69ca4696226,,,,,,,decisionTrl,resources/DP.BMP,resources/DG.BMP,Door1,-0.428650174,-0.046284722,1,0,0,2.2648,optionLeft,30,5660,3,16,0,16,0,1,,,,,,,,,,,,,,,,,,,,,,,,,,,,,,,,,,,,,,,
,,,,,,,,2023-08-16_08h39.31.963,HF_wild_card,2022.2.4,MacIntel,60.0024001,55b78162fdf99b0416ce544e,64d2fd46c836a06233681665,64dc7c5f2ac0a69ca4696226,,,,,,,decisionTrl,resources/DP.BMP,resources/DR.BMP,WildCard_Ex,0.394131944,-0.070125868,1,0,0,1.2987,optionRight,5,5665,3,17,0,17,0,1,,,,,,,,,,,,,,,,,,,,,,,,,,,,,,,,,,,,,,,
,,,,,,,,2023-08-16_08h39.31.963,HF_wild_card,2022.2.4,MacIntel,60.0024001,55b78162fdf99b0416ce544e,64d2fd46c836a06233681665,64dc7c5f2ac0a69ca4696226,,,,,,,ctch,resources/DG.BMP,resources/DY.BMP,Door3,0.413715278,-0.080646701,1,0,0,1.1636,optionRight,70,5735,3,18,0,18,0,1,,,,,,,,,,,,,,,,,,,,,,,,,,,,,,,,,,,,,,,
,,,,,,,,2023-08-16_08h39.31.963,HF_wild_card,2022.2.4,MacIntel,60.0024001,55b78162fdf99b0416ce544e,64d2fd46c836a06233681665,64dc7c5f2ac0a69ca4696226,,,,,,,decisionTrl,resources/DB.BMP,resources/DY.BMP,Door3,0.259505208,-0.014192708,1,0,0,1.3126,optionRight,70,5805,3,19,0,19,0,1,,,,,,,,,,,,,,,,,,,,,,,,,,,,,,,,,,,,,,,
,,,,,,,,2023-08-16_08h39.31.963,HF_wild_card,2022.2.4,MacIntel,60.0024001,55b78162fdf99b0416ce544e,64d2fd46c836a06233681665,64dc7c5f2ac0a69ca4696226,,,,,,,decisionTrl,resources/DG.BMP,resources/DP.BMP,Door2,-0.428042535,-0.01984809,1,0,0,1.963,optionLeft,40,5845,3,20,0,20,0,1,,,,,,,,,,,,,,,,,,,,,,,,,,,,,,,,,,,,,,,
,,,,,,,,2023-08-16_08h39.31.963,HF_wild_card,2022.2.4,MacIntel,60.0024001,55b78162fdf99b0416ce544e,64d2fd46c836a06233681665,64dc7c5f2ac0a69ca4696226,,,,,,,decisionTrl,resources/DP.BMP,resources/DG.BMP,Door1,-0.384348958,-0.061666667,1,0,0,0.8843,optionLeft,30,5875,3,21,0,21,0,1,,,,,,,,,,,,,,,,,,,,,,,,,,,,,,,,,,,,,,,
,,,,,,,,2023-08-16_08h39.31.963,HF_wild_card,2022.2.4,MacIntel,60.0024001,55b78162fdf99b0416ce544e,64d2fd46c836a06233681665,64dc7c5f2ac0a69ca4696226,,,,,,,decisionTrl,resources/DY.BMP,resources/DB.BMP,Door3,-0.308220486,-0.058081597,1,0,0,0.9503,optionLeft,70,5945,3,22,0,22,0,1,,,,,,,,,,,,,,,,,,,,,,,,,,,,,,,,,,,,,,,
,,,,,,,,2023-08-16_08h39.31.963,HF_wild_card,2022.2.4,MacIntel,60.0024001,55b78162fdf99b0416ce544e,64d2fd46c836a06233681665,64dc7c5f2ac0a69ca4696226,,,,,,,decisionTrl,resources/DP.BMP,resources/DG.BMP,Door1,-0.363602431,-0.057378472,1,0,0,1.9955,optionLeft,30,5975,3,23,0,23,0,1,,,,,,,,,,,,,,,,,,,,,,,,,,,,,,,,,,,,,,,
,,,,,,,,2023-08-16_08h39.31.963,HF_wild_card,2022.2.4,MacIntel,60.0024001,55b78162fdf99b0416ce544e,64d2fd46c836a06233681665,64dc7c5f2ac0a69ca4696226,,,,,,,sngl,resources/DR.BMP,resources/Empty.png,WildCard_Ex,-0.3534375,-0.064861111,1,0,0,0.8644,optionLeft,5,5980,3,24,0,24,0,1,,,,,,,,,,,,,,,,,,,,,,,,,,,,,,,,,,,,,,,
,,,,,,,,2023-08-16_08h39.31.963,HF_wild_card,2022.2.4,MacIntel,60.0024001,55b78162fdf99b0416ce544e,64d2fd46c836a06233681665,64dc7c5f2ac0a69ca4696226,,,,,,,ctch,resources/DB.BMP,resources/DP.BMP,Door1,0.312821181,-0.003255208,1,0,0,1.7339,optionRight,30,6010,3,25,0,25,0,1,,,,,,,,,,,,,,,,,,,,,,,,,,,,,,,,,,,,,,,
,,,,,,,,2023-08-16_08h39.31.963,HF_wild_card,2022.2.4,MacIntel,60.0024001,55b78162fdf99b0416ce544e,64d2fd46c836a06233681665,64dc7c5f2ac0a69ca4696226,,,,,,,decisionTrl,resources/DR.BMP,resources/DY.BMP,WildCard_Ex,-0.40765625,-0.061128472,1,0,0,1.5985,optionLeft,95,6105,3,26,0,26,0,1,,,,,,,,,,,,,,,,,,,,,,,,,,,,,,,,,,,,,,,
,,,,,,,,2023-08-16_08h39.31.963,HF_wild_card,2022.2.4,MacIntel,60.0024001,55b78162fdf99b0416ce544e,64d2fd46c836a06233681665,64dc7c5f2ac0a69ca4696226,,,,,,,decisionTrl,resources/DG.BMP,resources/DP.BMP,Door1,0.307126736,-0.00828125,1,0,0,2.4997,optionRight,30,6135,3,27,0,27,0,1,,,,,,,,,,,,,,,,,,,,,,,,,,,,,,,,,,,,,,,
,,,,,,,,2023-08-16_08h39.31.963,HF_wild_card,2022.2.4,MacIntel,60.0024001,55b78162fdf99b0416ce544e,64d2fd46c836a06233681665,64dc7c5f2ac0a69ca4696226,,,,,,,decisionTrl,resources/DR.BMP,resources/DP.BMP,WildCard_Ex,-0.284279514,-0.027226562,1,0,0,1.0289,optionLeft,5,6140,3,28,0,28,0,1,,,,,,,,,,,,,,,,,,,,,,,,,,,,,,,,,,,,,,,
,,,,,,,,2023-08-16_08h39.31.963,HF_wild_card,2022.2.4,MacIntel,60.0024001,55b78162fdf99b0416ce544e,64d2fd46c836a06233681665,64dc7c5f2ac0a69ca4696226,,,,,,,ctch,resources/DY.BMP,resources/DG.BMP,Door3,-0.345394965,-0.058802083,1,0,0,0.9482,optionLeft,70,6210,3,29,0,29,0,1,,,,,,,,,,,,,,,,,,,,,,,,,,,,,,,,,,,,,,,
,,,,,,,,2023-08-16_08h39.31.963,HF_wild_card,2022.2.4,MacIntel,60.0024001,55b78162fdf99b0416ce544e,64d2fd46c836a06233681665,64dc7c5f2ac0a69ca4696226,,,,,,,sngl,resources/DB.BMP,resources/Empty.png,Door4,-0.370824653,-0.042747396,1,0,0,0.7799,optionLeft,80,6290,3,30,0,30,0,1,,,,,,,,,,,,,,,,,,,,,,,,,,,,,,,,,,,,,,,
,,,,,,,,2023-08-16_08h39.31.963,HF_wild_card,2022.2.4,MacIntel,60.0024001,55b78162fdf99b0416ce544e,64d2fd46c836a06233681665,64dc7c5f2ac0a69ca4696226,,,,,,,sngl,resources/DR.BMP,resources/Empty.png,WildCard_Ex,-0.294279514,-0.048967014,1,0,0,0.9474,optionLeft,95,6385,3,31,0,31,0,1,,,,,,,,,,,,,,,,,,,,,,,,,,,,,,,,,,,,,,,
,,,,,,,,2023-08-16_08h39.31.963,HF_wild_card,2022.2.4,MacIntel,60.0024001,55b78162fdf99b0416ce544e,64d2fd46c836a06233681665,64dc7c5f2ac0a69ca4696226,,,,,,,sngl,resources/Empty.png,resources/DR.BMP,WildCard_Ex,0.436453993,-0.078220486,1,0,0,0.8481,optionRight,5,6390,3,32,0,32,0,1,,,,,,,,,,,,,,,,,,,,,,,,,,,,,,,,,,,,,,,
,,,,,,,,2023-08-16_08h39.31.963,HF_wild_card,2022.2.4,MacIntel,60.0024001,55b78162fdf99b0416ce544e,64d2fd46c836a06233681665,64dc7c5f2ac0a69ca4696226,,,,,,,decisionTrl,resources/DB.BMP,resources/DY.BMP,Door3,0.290833333,-0.102200521,1,0,0,1.4319,optionRight,70,6460,3,33,0,33,0,1,,,,,,,,,,,,,,,,,,,,,,,,,,,,,,,,,,,,,,,
,,,,,,,,2023-08-16_08h39.31.963,HF_wild_card,2022.2.4,MacIntel,60.0024001,55b78162fdf99b0416ce544e,64d2fd46c836a06233681665,64dc7c5f2ac0a69ca4696226,,,,,,,ctch,resources/DG.BMP,resources/DY.BMP,Door3,0.419722222,-0.063138021,1,0,0,0.8952,optionRight,70,6530,3,34,0,34,0,1,,,,,,,,,,,,,,,,,,,,,,,,,,,,,,,,,,,,,,,
,,,,,,,,2023-08-16_08h39.31.963,HF_wild_card,2022.2.4,MacIntel,60.0024001,55b78162fdf99b0416ce544e,64d2fd46c836a06233681665,64dc7c5f2ac0a69ca4696226,,,,,,,decisionTrl,resources/DY.BMP,resources/DR.BMP,WildCard_Ex,0.311019965,-0.046701389,1,0,0,1.1814,optionRight,5,6535,3,35,0,35,0,1,,,,,,,,,,,,,,,,,,,,,,,,,,,,,,,,,,,,,,,
,,,,,,,,2023-08-16_08h39.31.963,HF_wild_card,2022.2.4,MacIntel,60.0024001,55b78162fdf99b0416ce544e,64d2fd46c836a06233681665,64dc7c5f2ac0a69ca4696226,,,,,,,sngl,resources/Empty.png,resources/DB.BMP,Door4,0.41922309,-0.038789062,1,0,0,0.9132,optionRight,60,6595,3,36,0,36,0,1,,,,,,,,,,,,,,,,,,,,,,,,,,,,,,,,,,,,,,,
,,,,,,,,2023-08-16_08h39.31.963,HF_wild_card,2022.2.4,MacIntel,60.0024001,55b78162fdf99b0416ce544e,64d2fd46c836a06233681665,64dc7c5f2ac0a69ca4696226,,,,,,,ctch,resources/DY.BMP,resources/DG.BMP,Door3,-0.302669271,-0.049457465,1,0,0,0.813,optionLeft,70,6665,3,37,0,37,0,1,,,,,,,,,,,,,,,,,,,,,,,,,,,,,,,,,,,,,,,
,,,,,,,,2023-08-16_08h39.31.963,HF_wild_card,2022.2.4,MacIntel,60.0024001,55b78162fdf99b0416ce544e,64d2fd46c836a06233681665,64dc7c5f2ac0a69ca4696226,,,,,,,sngl,resources/DY.BMP,resources/Empty.png,Door3,-0.287291667,-0.042404514,1,0,0,0.7783,optionLeft,70,6735,3,38,0,38,0,1,,,,,,,,,,,,,,,,,,,,,,,,,,,,,,,,,,,,,,,
,,,,,,,,2023-08-16_08h39.31.963,HF_wild_card,2022.2.4,MacIntel,60.0024001,55b78162fdf99b0416ce544e,64d2fd46c836a06233681665,64dc7c5f2ac0a69ca4696226,,,,,,,decisionTrl,resources/DR.BMP,resources/DB.BMP,WildCard_Ex,-0.233927951,-0.054774306,1,0,0,1.6311,optionLeft,95,6830,3,39,0,39,0,1,,,,,,,,,,,,,,,,,,,,,,,,,,,,,,,,,,,,,,,
,,,,,,,,2023-08-16_08h39.31.963,HF_wild_card,2022.2.4,MacIntel,60.0024001,55b78162fdf99b0416ce544e,64d2fd46c836a06233681665,64dc7c5f2ac0a69ca4696226,,,,,,,decisionTrl,resources/DG.BMP,resources/DP.BMP,Door1,0.295907118,-0.092925347,1,0,0,1.6615,optionRight,30,6860,3,40,0,40,0,1,,,,,,,,,,,,,,,,,,,,,,,,,,,,,,,,,,,,,,,
,,,,,,,,2023-08-16_08h39.31.963,HF_wild_card,2022.2.4,MacIntel,60.0024001,55b78162fdf99b0416ce544e,64d2fd46c836a06233681665,64dc7c5f2ac0a69ca4696226,,,,,,,ctch,resources/DP.BMP,resources/DB.BMP,Door4,0.380915799,-0.044448785,1,0,0,1.2801,optionRight,80,6940,3,41,0,41,0,1,,,,,,,,,,,,,,,,,,,,,,,,,,,,,,,,,,,,,,,
,,,,,,,,2023-08-16_08h39.31.963,HF_wild_card,2022.2.4,MacIntel,60.0024001,55b78162fdf99b0416ce544e,64d2fd46c836a06233681665,64dc7c5f2ac0a69ca4696226,,,,,,,sngl,resources/Empty.png,resources/DR.BMP,WildCard_Ex,0.47140191,-0.069787326,1,0,0,1.0125,optionRight,95,7035,3,42,0,42,0,1,,,,,,,,,,,,,,,,,,,,,,,,,,,,,,,,,,,,,,,
,,,,,,,,2023-08-16_08h39.31.963,HF_wild_card,2022.2.4,MacIntel,60.0024001,55b78162fdf99b0416ce544e,64d2fd46c836a06233681665,64dc7c5f2ac0a69ca4696226,,,,,,,decisionTrl,resources/DG.BMP,resources/DP.BMP,Door2,-0.410008681,-0.069587674,1,0,0,1.0632,optionLeft,20,7055,3,43,0,43,0,1,,,,,,,,,,,,,,,,,,,,,,,,,,,,,,,,,,,,,,,
,,,,,,,,2023-08-16_08h39.31.963,HF_wild_card,2022.2.4,MacIntel,60.0024001,55b78162fdf99b0416ce544e,64d2fd46c836a06233681665,64dc7c5f2ac0a69ca4696226,,,,,,,,,,,,,,,,,,,,,,,,,,2,0,2,0,1,,,,,,,,,,,,,,,,,,,,,,,,,,,,,,,,,,
,,,,,,,,2023-08-16_08h39.31.963,HF_wild_card,2022.2.4,MacIntel,60.0024001,55b78162fdf99b0416ce544e,64d2fd46c836a06233681665,64dc7c5f2ac0a69ca4696226,,,,,,,decisionTrl,resources/DG.BMP,resources/DP.BMP,Door1,0.459288194,-0.005208333,1,0,0,1.5314,optionRight,30,7085,4,0,0,0,0,1,,,,,,,,,,,,,,,,,,,,,,,,,,,,,,,,,,,,,,,
,,,,,,,,2023-08-16_08h39.31.963,HF_wild_card,2022.2.4,MacIntel,60.0024001,55b78162fdf99b0416ce544e,64d2fd46c836a06233681665,64dc7c5f2ac0a69ca4696226,,,,,,,sngl,resources/Empty.png,resources/DP.BMP,Door1,0.493055556,-0.093259549,1,0,0,0.9008,optionRight,30,7115,4,1,0,1,0,1,,,,,,,,,,,,,,,,,,,,,,,,,,,,,,,,,,,,,,,
,,,,,,,,2023-08-16_08h39.31.963,HF_wild_card,2022.2.4,MacIntel,60.0024001,55b78162fdf99b0416ce544e,64d2fd46c836a06233681665,64dc7c5f2ac0a69ca4696226,,,,,,,decisionTrl,resources/DP.BMP,resources/DBN.BMP,WildCard_NonEx,0.409856771,-0.057439236,1,0,0,1.2839,optionRight,45,7160,4,2,0,2,0,1,,,,,,,,,,,,,,,,,,,,,,,,,,,,,,,,,,,,,,,
,,,,,,,,2023-08-16_08h39.31.963,HF_wild_card,2022.2.4,MacIntel,60.0024001,55b78162fdf99b0416ce544e,64d2fd46c836a06233681665,64dc7c5f2ac0a69ca4696226,,,,,,,decisionTrl,resources/DP.BMP,resources/DG.BMP,Door2,0.257517361,-0.037530382,1,0,0,1.196,optionRight,20,7180,4,3,0,3,0,1,,,,,,,,,,,,,,,,,,,,,,,,,,,,,,,,,,,,,,,
,,,,,,,,2023-08-16_08h39.31.963,HF_wild_card,2022.2.4,MacIntel,60.0024001,55b78162fdf99b0416ce544e,64d2fd46c836a06233681665,64dc7c5f2ac0a69ca4696226,,,,,,,decisionTrl,resources/DB.BMP,resources/DY.BMP,Door3,0.307226563,-0.074756944,1,0,0,1.0945,optionRight,70,7250,4,4,0,4,0,1,,,,,,,,,,,,,,,,,,,,,,,,,,,,,,,,,,,,,,,
,,,,,,,,2023-08-16_08h39.31.963,HF_wild_card,2022.2.4,MacIntel,60.0024001,55b78162fdf99b0416ce544e,64d2fd46c836a06233681665,64dc7c5f2ac0a69ca4696226,,,,,,,ctch,resources/DP.BMP,resources/DB.BMP,Door1,-0.417912326,0.000256076,1,0,0,1.5131,optionLeft,30,7280,4,5,0,5,0,1,,,,,,,,,,,,,,,,,,,,,,,,,,,,,,,,,,,,,,,
,,,,,,,,2023-08-16_08h39.31.963,HF_wild_card,2022.2.4,MacIntel,60.0024001,55b78162fdf99b0416ce544e,64d2fd46c836a06233681665,64dc7c5f2ac0a69ca4696226,,,,,,,decisionTrl,resources/DG.BMP,resources/DP.BMP,Door1,0.470898437,-0.052521701,1,0,0,1.3818,optionRight,30,7310,4,6,0,6,0,1,,,,,,,,,,,,,,,,,,,,,,,,,,,,,,,,,,,,,,,
,,,,,,,,2023-08-16_08h39.31.963,HF_wild_card,2022.2.4,MacIntel,60.0024001,55b78162fdf99b0416ce544e,64d2fd46c836a06233681665,64dc7c5f2ac0a69ca4696226,,,,,,,decisionTrl,resources/DB.BMP,resources/DBN.BMP,WildCard_NonEx,0.424309896,-0.095868056,1,0,0,0.984,optionRight,45,7355,4,7,0,7,0,1,,,,,,,,,,,,,,,,,,,,,,,,,,,,,,,,,,,,,,,
,,,,,,,,2023-08-16_08h39.31.963,HF_wild_card,2022.2.4,MacIntel,60.0024001,55b78162fdf99b0416ce544e,64d2fd46c836a06233681665,64dc7c5f2ac0a69ca4696226,,,,,,,decisionTrl,resources/DG.BMP,resources/DP.BMP,Door1,0.416818576,-0.062382813,1,0,0,1.3472,optionRight,30,7385,4,8,0,8,0,1,,,,,,,,,,,,,,,,,,,,,,,,,,,,,,,,,,,,,,,
,,,,,,,,2023-08-16_08h39.31.963,HF_wild_card,2022.2.4,MacIntel,60.0024001,55b78162fdf99b0416ce544e,64d2fd46c836a06233681665,64dc7c5f2ac0a69ca4696226,,,,,,,decisionTrl,resources/DG.BMP,resources/DP.BMP,Door2,-0.391848958,-0.043867188,1,0,0,0.8812,optionLeft,40,7425,4,9,0,9,0,1,,,,,,,,,,,,,,,,,,,,,,,,,,,,,,,,,,,,,,,
,,,,,,,,2023-08-16_08h39.31.963,HF_wild_card,2022.2.4,MacIntel,60.0024001,55b78162fdf99b0416ce544e,64d2fd46c836a06233681665,64dc7c5f2ac0a69ca4696226,,,,,,,sngl,resources/Empty.png,resources/DBN.BMP,WildCard_NonEx,0.364900174,-0.062999132,1,0,0,0.897,optionRight,45,7470,4,10,0,10,0,1,,,,,,,,,,,,,,,,,,,,,,,,,,,,,,,,,,,,,,,
,,,,,,,,2023-08-16_08h39.31.963,HF_wild_card,2022.2.4,MacIntel,60.0024001,55b78162fdf99b0416ce544e,64d2fd46c836a06233681665,64dc7c5f2ac0a69ca4696226,,,,,,,decisionTrl,resources/DY.BMP,resources/DB.BMP,Door3,-0.35875434,-0.078068576,1,0,0,0.8488,optionLeft,70,7540,4,11,0,11,0,1,,,,,,,,,,,,,,,,,,,,,,,,,,,,,,,,,,,,,,,
,,,,,,,,2023-08-16_08h39.31.963,HF_wild_card,2022.2.4,MacIntel,60.0024001,55b78162fdf99b0416ce544e,64d2fd46c836a06233681665,64dc7c5f2ac0a69ca4696226,,,,,,,sngl,resources/Empty.png,resources/DBN.BMP,WildCard_NonEx,0.433832465,-0.025034722,1,0,0,0.7803,optionRight,55,7595,4,12,0,12,0,1,,,,,,,,,,,,,,,,,,,,,,,,,,,,,,,,,,,,,,,
,,,,,,,,2023-08-16_08h39.31.963,HF_wild_card,2022.2.4,MacIntel,60.0024001,55b78162fdf99b0416ce544e,64d2fd46c836a06233681665,64dc7c5f2ac0a69ca4696226,,,,,,,ctch,resources/DY.BMP,resources/DG.BMP,Door3,-0.326289063,-0.093797743,1,0,0,0.9122,optionLeft,70,7665,4,13,0,13,0,1,,,,,,,,,,,,,,,,,,,,,,,,,,,,,,,,,,,,,,,
,,,,,,,,2023-08-16_08h39.31.963,HF_wild_card,2022.2.4,MacIntel,60.0024001,55b78162fdf99b0416ce544e,64d2fd46c836a06233681665,64dc7c5f2ac0a69ca4696226,,,,,,,decisionTrl,resources/DBN.BMP,resources/DG.BMP,WildCard_NonEx,-0.313394097,-0.065490451,1,0,0,1.1619,optionLeft,45,7710,4,14,0,14,0,1,,,,,,,,,,,,,,,,,,,,,,,,,,,,,,,,,,,,,,,
,,,,,,,,2023-08-16_08h39.31.963,HF_wild_card,2022.2.4,MacIntel,60.0024001,55b78162fdf99b0416ce544e,64d2fd46c836a06233681665,64dc7c5f2ac0a69ca4696226,,,,,,,sngl,resources/DBN.BMP,resources/Empty.png,WildCard_NonEx,-0.25953559,0.001905382,1,0,0,0.832,optionLeft,45,7755,4,15,0,15,0,1,,,,,,,,,,,,,,,,,,,,,,,,,,,,,,,,,,,,,,,
,,,,,,,,2023-08-16_08h39.31.963,HF_wild_card,2022.2.4,MacIntel,60.0024001,55b78162fdf99b0416ce544e,64d2fd46c836a06233681665,64dc7c5f2ac0a69ca4696226,,,,,,,sngl,resources/Empty.png,resources/DB.BMP,Door4,0.408138021,-0.066779514,1,0,0,0.7621,optionRight,80,7835,4,16,0,16,0,1,,,,,,,,,,,,,,,,,,,,,,,,,,,,,,,,,,,,,,,
,,,,,,,,2023-08-16_08h39.31.963,HF_wild_card,2022.2.4,MacIntel,60.0024001,55b78162fdf99b0416ce544e,64d2fd46c836a06233681665,64dc7c5f2ac0a69ca4696226,,,,,,,ctch,resources/DB.BMP,resources/DP.BMP,Door4,-0.352369792,-0.071901042,1,0,0,0.8496,optionLeft,60,7895,4,17,0,17,0,1,,,,,,,,,,,,,,,,,,,,,,,,,,,,,,,,,,,,,,,
,,,,,,,,2023-08-16_08h39.31.963,HF_wild_card,2022.2.4,MacIntel,60.0024001,55b78162fdf99b0416ce544e,64d2fd46c836a06233681665,64dc7c5f2ac0a69ca4696226,,,,,,,decisionTrl,resources/DP.BMP,resources/DG.BMP,Door1,-0.3609375,-0.073237847,1,0,0,0.9638,optionLeft,30,7925,4,18,0,18,0,1,,,,,,,,,,,,,,,,,,,,,,,,,,,,,,,,,,,,,,,
,,,,,,,,2023-08-16_08h39.31.963,HF_wild_card,2022.2.4,MacIntel,60.0024001,55b78162fdf99b0416ce544e,64d2fd46c836a06233681665,64dc7c5f2ac0a69ca4696226,,,,,,,decisionTrl,resources/DY.BMP,resources/DB.BMP,Door3,-0.283025174,-0.073116319,1,0,0,0.894,optionLeft,70,7995,4,19,0,19,0,1,,,,,,,,,,,,,,,,,,,,,,,,,,,,,,,,,,,,,,,
,,,,,,,,2023-08-16_08h39.31.963,HF_wild_card,2022.2.4,MacIntel,60.0024001,55b78162fdf99b0416ce544e,64d2fd46c836a06233681665,64dc7c5f2ac0a69ca4696226,,,,,,,sngl,resources/DP.BMP,resources/Empty.png,Door1,-0.299796007,-0.063858507,1,0,0,0.8655,optionLeft,30,8025,4,20,0,20,0,1,,,,,,,,,,,,,,,,,,,,,,,,,,,,,,,,,,,,,,,
,,,,,,,,2023-08-16_08h39.31.963,HF_wild_card,2022.2.4,MacIntel,60.0024001,55b78162fdf99b0416ce544e,64d2fd46c836a06233681665,64dc7c5f2ac0a69ca4696226,,,,,,,sngl,resources/Empty.png,resources/DG.BMP,Door2,0.427677951,-0.031744792,1,0,0,0.8464,optionRight,40,8065,4,21,0,21,0,1,,,,,,,,,,,,,,,,,,,,,,,,,,,,,,,,,,,,,,,
,,,,,,,,2023-08-16_08h39.31.963,HF_wild_card,2022.2.4,MacIntel,60.0024001,55b78162fdf99b0416ce544e,64d2fd46c836a06233681665,64dc7c5f2ac0a69ca4696226,,,,,,,decisionTrl,resources/DB.BMP,resources/DY.BMP,Door3,0.356675347,-0.039982639,1,0,0,1.0321,optionRight,70,8135,4,22,0,22,0,1,,,,,,,,,,,,,,,,,,,,,,,,,,,,,,,,,,,,,,,
,,,,,,,,2023-08-16_08h39.31.963,HF_wild_card,2022.2.4,MacIntel,60.0024001,55b78162fdf99b0416ce544e,64d2fd46c836a06233681665,64dc7c5f2ac0a69ca4696226,,,,,,,decisionTrl,resources/DP.BMP,resources/DG.BMP,Door1,-0.298381076,-0.082044271,1,0,0,1.3333,optionLeft,30,8165,4,23,0,23,0,1,,,,,,,,,,,,,,,,,,,,,,,,,,,,,,,,,,,,,,,
,,,,,,,,2023-08-16_08h39.31.963,HF_wild_card,2022.2.4,MacIntel,60.0024001,55b78162fdf99b0416ce544e,64d2fd46c836a06233681665,64dc7c5f2ac0a69ca4696226,,,,,,,decisionTrl,resources/DB.BMP,resources/DY.BMP,Door3,0.456605903,-0.07530816,1,0,0,0.8807,optionRight,70,8235,4,24,0,24,0,1,,,,,,,,,,,,,,,,,,,,,,,,,,,,,,,,,,,,,,,
,,,,,,,,2023-08-16_08h39.31.963,HF_wild_card,2022.2.4,MacIntel,60.0024001,55b78162fdf99b0416ce544e,64d2fd46c836a06233681665,64dc7c5f2ac0a69ca4696226,,,,,,,decisionTrl,resources/DY.BMP,resources/DB.BMP,Door4,0.420295139,-0.074075521,1,0,0,1.197,optionRight,80,8315,4,25,0,25,0,1,,,,,,,,,,,,,,,,,,,,,,,,,,,,,,,,,,,,,,,
,,,,,,,,2023-08-16_08h39.31.963,HF_wild_card,2022.2.4,MacIntel,60.0024001,55b78162fdf99b0416ce544e,64d2fd46c836a06233681665,64dc7c5f2ac0a69ca4696226,,,,,,,decisionTrl,resources/DB.BMP,resources/DY.BMP,Door3,0.416618924,-0.053233507,1,0,0,1.5511,optionRight,70,8385,4,26,0,26,0,1,,,,,,,,,,,,,,,,,,,,,,,,,,,,,,,,,,,,,,,
,,,,,,,,2023-08-16_08h39.31.963,HF_wild_card,2022.2.4,MacIntel,60.0024001,55b78162fdf99b0416ce544e,64d2fd46c836a06233681665,64dc7c5f2ac0a69ca4696226,,,,,,,sngl,resources/DB.BMP,resources/Empty.png,Door4,-0.320221354,-0.042252604,1,0,0,0.7647,optionLeft,60,8445,4,27,0,27,0,1,,,,,,,,,,,,,,,,,,,,,,,,,,,,,,,,,,,,,,,
,,,,,,,,2023-08-16_08h39.31.963,HF_wild_card,2022.2.4,MacIntel,60.0024001,55b78162fdf99b0416ce544e,64d2fd46c836a06233681665,64dc7c5f2ac0a69ca4696226,,,,,,,ctch,resources/DG.BMP,resources/DY.BMP,Door3,0.372747396,-0.052565104,1,0,0,1.38,optionRight,70,8515,4,28,0,28,0,1,,,,,,,,,,,,,,,,,,,,,,,,,,,,,,,,,,,,,,,
,,,,,,,,2023-08-16_08h39.31.963,HF_wild_card,2022.2.4,MacIntel,60.0024001,55b78162fdf99b0416ce544e,64d2fd46c836a06233681665,64dc7c5f2ac0a69ca4696226,,,,,,,decisionTrl,resources/DY.BMP,resources/DBN.BMP,WildCard_NonEx,0.412000868,-0.043953993,1,0,0,0.9434,optionRight,45,8560,4,29,0,29,0,1,,,,,,,,,,,,,,,,,,,,,,,,,,,,,,,,,,,,,,,
,,,,,,,,2023-08-16_08h39.31.963,HF_wild_card,2022.2.4,MacIntel,60.0024001,55b78162fdf99b0416ce544e,64d2fd46c836a06233681665,64dc7c5f2ac0a69ca4696226,,,,,,,sngl,resources/DBN.BMP,resources/Empty.png,WildCard_NonEx,-0.38062066,-0.003220486,1,0,0,0.7641,optionLeft,55,8615,4,30,0,30,0,1,,,,,,,,,,,,,,,,,,,,,,,,,,,,,,,,,,,,,,,
,,,,,,,,2023-08-16_08h39.31.963,HF_wild_card,2022.2.4,MacIntel,60.0024001,55b78162fdf99b0416ce544e,64d2fd46c836a06233681665,64dc7c5f2ac0a69ca4696226,,,,,,,sngl,resources/DG.BMP,resources/Empty.png,Door2,-0.296675347,-0.039457465,1,0,0,0.7794,optionLeft,20,8635,4,31,0,31,0,1,,,,,,,,,,,,,,,,,,,,,,,,,,,,,,,,,,,,,,,
,,,,,,,,2023-08-16_08h39.31.963,HF_wild_card,2022.2.4,MacIntel,60.0024001,55b78162fdf99b0416ce544e,64d2fd46c836a06233681665,64dc7c5f2ac0a69ca4696226,,,,,,,sngl,resources/Empty.png,resources/DY.BMP,Door3,0.372000868,-0.049171007,1,0,0,0.83,optionRight,70,8705,4,32,0,32,0,1,,,,,,,,,,,,,,,,,,,,,,,,,,,,,,,,,,,,,,,
,,,,,,,,2023-08-16_08h39.31.963,HF_wild_card,2022.2.4,MacIntel,60.0024001,55b78162fdf99b0416ce544e,64d2fd46c836a06233681665,64dc7c5f2ac0a69ca4696226,,,,,,,decisionTrl,resources/DY.BMP,resources/DB.BMP,Door3,-0.413055556,-0.06234809,1,0,0,0.9126,optionLeft,70,8775,4,33,0,33,0,1,,,,,,,,,,,,,,,,,,,,,,,,,,,,,,,,,,,,,,,
,,,,,,,,2023-08-16_08h39.31.963,HF_wild_card,2022.2.4,MacIntel,60.0024001,55b78162fdf99b0416ce544e,64d2fd46c836a06233681665,64dc7c5f2ac0a69ca4696226,,,,,,,ctch,resources/DY.BMP,resources/DG.BMP,Door3,-0.398342014,-0.09516059,1,0,0,1.5773,optionLeft,70,8845,4,34,0,34,0,1,,,,,,,,,,,,,,,,,,,,,,,,,,,,,,,,,,,,,,,
,,,,,,,,2023-08-16_08h39.31.963,HF_wild_card,2022.2.4,MacIntel,60.0024001,55b78162fdf99b0416ce544e,64d2fd46c836a06233681665,64dc7c5f2ac0a69ca4696226,,,,,,,ctch,resources/DB.BMP,resources/DP.BMP,Door4,-0.311124132,-0.082096354,1,0,0,1.1131,optionLeft,80,8925,4,35,0,35,0,1,,,,,,,,,,,,,,,,,,,,,,,,,,,,,,,,,,,,,,,
,,,,,,,,2023-08-16_08h39.31.963,HF_wild_card,2022.2.4,MacIntel,60.0024001,55b78162fdf99b0416ce544e,64d2fd46c836a06233681665,64dc7c5f2ac0a69ca4696226,,,,,,,decisionTrl,resources/DBN.BMP,resources/DY.BMP,Door3,0.369657118,-0.03562934,1,0,0,1.5277,optionRight,70,8995,4,36,0,36,0,1,,,,,,,,,,,,,,,,,,,,,,,,,,,,,,,,,,,,,,,
,,,,,,,,2023-08-16_08h39.31.963,HF_wild_card,2022.2.4,MacIntel,60.0024001,55b78162fdf99b0416ce544e,64d2fd46c836a06233681665,64dc7c5f2ac0a69ca4696226,,,,,,,decisionTrl,resources/DBN.BMP,resources/DP.BMP,WildCard_NonEx,-0.248216146,-0.004626736,1,0,0,2.1649,optionLeft,55,9050,4,37,0,37,0,1,,,,,,,,,,,,,,,,,,,,,,,,,,,,,,,,,,,,,,,
,,,,,,,,2023-08-16_08h39.31.963,HF_wild_card,2022.2.4,MacIntel,60.0024001,55b78162fdf99b0416ce544e,64d2fd46c836a06233681665,64dc7c5f2ac0a69ca4696226,,,,,,,ctch,resources/DP.BMP,resources/DB.BMP,Door4,0.386345486,-0.047955729,1,0,0,1.1474,optionRight,80,9130,4,38,0,38,0,1,,,,,,,,,,,,,,,,,,,,,,,,,,,,,,,,,,,,,,,
,,,,,,,,2023-08-16_08h39.31.963,HF_wild_card,2022.2.4,MacIntel,60.0024001,55b78162fdf99b0416ce544e,64d2fd46c836a06233681665,64dc7c5f2ac0a69ca4696226,,,,,,,decisionTrl,resources/DG.BMP,resources/DBN.BMP,WildCard_NonEx,0.403454861,-0.093168403,1,0,0,0.9974,optionRight,55,9185,4,39,0,39,0,1,,,,,,,,,,,,,,,,,,,,,,,,,,,,,,,,,,,,,,,
,,,,,,,,2023-08-16_08h39.31.963,HF_wild_card,2022.2.4,MacIntel,60.0024001,55b78162fdf99b0416ce544e,64d2fd46c836a06233681665,64dc7c5f2ac0a69ca4696226,,,,,,,decisionTrl,resources/DBN.BMP,resources/DB.BMP,Door4,0.404092882,-0.080598958,1,0,0,1.4964,optionRight,80,9265,4,40,0,40,0,1,,,,,,,,,,,,,,,,,,,,,,,,,,,,,,,,,,,,,,,
,,,,,,,,2023-08-16_08h39.31.963,HF_wild_card,2022.2.4,MacIntel,60.0024001,55b78162fdf99b0416ce544e,64d2fd46c836a06233681665,64dc7c5f2ac0a69ca4696226,,,,,,,ctch,resources/DG.BMP,resources/DY.BMP,Door3,0.440338542,-0.10015191,1,0,0,1.0297,optionRight,70,9335,4,41,0,41,0,1,,,,,,,,,,,,,,,,,,,,,,,,,,,,,,,,,,,,,,,
,,,,,,,,2023-08-16_08h39.31.963,HF_wild_card,2022.2.4,MacIntel,60.0024001,55b78162fdf99b0416ce544e,64d2fd46c836a06233681665,64dc7c5f2ac0a69ca4696226,,,,,,,sngl,resources/DY.BMP,resources/Empty.png,Door3,-0.325980903,-0.054487847,1,0,0,0.7331,optionLeft,70,9405,4,42,0,42,0,1,,,,,,,,,,,,,,,,,,,,,,,,,,,,,,,,,,,,,,,
,,,,,,,,2023-08-16_08h39.31.963,HF_wild_card,2022.2.4,MacIntel,60.0024001,55b78162fdf99b0416ce544e,64d2fd46c836a06233681665,64dc7c5f2ac0a69ca4696226,,,,,,,decisionTrl,resources/DP.BMP,resources/DG.BMP,Door1,-0.350355903,-0.035763889,1,0,0,1.7617,optionLeft,30,9435,4,43,0,43,0,1,,,,,,,,,,,,,,,,,,,,,,,,,,,,,,,,,,,,,,,
,,,,,,,,2023-08-16_08h39.31.963,HF_wild_card,2022.2.4,MacIntel,60.0024001,55b78162fdf99b0416ce544e,64d2fd46c836a06233681665,64dc7c5f2ac0a69ca4696226,,,,,,,,,,,,,,,,,,,,,,,,,,3,0,3,0,1,,,,,,,,,,,,,,,,,,,,,,,,,,,,,,,,,,
,,,,,,,,2023-08-16_08h39.31.963,HF_wild_card,2022.2.4,MacIntel,60.0024001,55b78162fdf99b0416ce544e,64d2fd46c836a06233681665,64dc7c5f2ac0a69ca4696226,,,,,,,decisionTrl,resources/DB.BMP,resources/DY.BMP,Door3,0.394600694,-0.124960937,1,0,0,1.4511,optionRight,70,9505,5,0,0,0,0,1,,,,,,,,,,,,,,,,,,,,,,,,,,,,,,,,,,,,,,,
,,,,,,,,2023-08-16_08h39.31.963,HF_wild_card,2022.2.4,MacIntel,60.0024001,55b78162fdf99b0416ce544e,64d2fd46c836a06233681665,64dc7c5f2ac0a69ca4696226,,,,,,,sngl,resources/Empty.png,resources/DBN.BMP,WildCard_NonEx,0.350447049,-0.077226562,1,0,0,1.0656,optionRight,45,9550,5,1,0,1,0,1,,,,,,,,,,,,,,,,,,,,,,,,,,,,,,,,,,,,,,,
,,,,,,,,2023-08-16_08h39.31.963,HF_wild_card,2022.2.4,MacIntel,60.0024001,55b78162fdf99b0416ce544e,64d2fd46c836a06233681665,64dc7c5f2ac0a69ca4696226,,,,,,,ctch,resources/DP.BMP,resources/DB.BMP,Door4,0.349743924,-0.059704861,1,0,0,2.6291,optionRight,80,9630,5,2,0,2,0,1,,,,,,,,,,,,,,,,,,,,,,,,,,,,,,,,,,,,,,,
,,,,,,,,2023-08-16_08h39.31.963,HF_wild_card,2022.2.4,MacIntel,60.0024001,55b78162fdf99b0416ce544e,64d2fd46c836a06233681665,64dc7c5f2ac0a69ca4696226,,,,,,,sngl,resources/DY.BMP,resources/Empty.png,Door3,-0.374283854,-0.037847222,1,0,0,1.1116,optionLeft,70,9700,5,3,0,3,0,1,,,,,,,,,,,,,,,,,,,,,,,,,,,,,,,,,,,,,,,
,,,,,,,,2023-08-16_08h39.31.963,HF_wild_card,2022.2.4,MacIntel,60.0024001,55b78162fdf99b0416ce544e,64d2fd46c836a06233681665,64dc7c5f2ac0a69ca4696226,,,,,,,sngl,resources/DP.BMP,resources/Empty.png,Door1,-0.354262153,-0.054288194,1,0,0,0.9493,optionLeft,30,9730,5,4,0,4,0,1,,,,,,,,,,,,,,,,,,,,,,,,,,,,,,,,,,,,,,,
,,,,,,,,2023-08-16_08h39.31.963,HF_wild_card,2022.2.4,MacIntel,60.0024001,55b78162fdf99b0416ce544e,64d2fd46c836a06233681665,64dc7c5f2ac0a69ca4696226,,,,,,,sngl,resources/DB.BMP,resources/Empty.png,Door4,-0.392278646,-0.033580729,1,0,0,1.1168,optionLeft,80,9810,5,5,0,5,0,1,,,,,,,,,,,,,,,,,,,,,,,,,,,,,,,,,,,,,,,
,,,,,,,,2023-08-16_08h39.31.963,HF_wild_card,2022.2.4,MacIntel,60.0024001,55b78162fdf99b0416ce544e,64d2fd46c836a06233681665,64dc7c5f2ac0a69ca4696226,,,,,,,decisionTrl,resources/DG.BMP,resources/DP.BMP,Door1,0.275572917,-0.033528646,1,0,0,1.6967,optionRight,30,9840,5,6,0,6,0,1,,,,,,,,,,,,,,,,,,,,,,,,,,,,,,,,,,,,,,,
,,,,,,,,2023-08-16_08h39.31.963,HF_wild_card,2022.2.4,MacIntel,60.0024001,55b78162fdf99b0416ce544e,64d2fd46c836a06233681665,64dc7c5f2ac0a69ca4696226,,,,,,,ctch,resources/DY.BMP,resources/DG.BMP,Door3,-0.33296875,-0.041349826,1,0,0,0.9815,optionLeft,70,9910,5,7,0,7,0,1,,,,,,,,,,,,,,,,,,,,,,,,,,,,,,,,,,,,,,,
,,,,,,,,2023-08-16_08h39.31.963,HF_wild_card,2022.2.4,MacIntel,60.0024001,55b78162fdf99b0416ce544e,64d2fd46c836a06233681665,64dc7c5f2ac0a69ca4696226,,,,,,,decisionTrl,resources/DP.BMP,resources/DBN.BMP,WildCard_NonEx,0.469427083,-0.026050347,1,0,0,2.2654,optionRight,45,9955,5,8,0,8,0,1,,,,,,,,,,,,,,,,,,,,,,,,,,,,,,,,,,,,,,,
,,,,,,,,2023-08-16_08h39.31.963,HF_wild_card,2022.2.4,MacIntel,60.0024001,55b78162fdf99b0416ce544e,64d2fd46c836a06233681665,64dc7c5f2ac0a69ca4696226,,,,,,,decisionTrl,resources/DY.BMP,resources/DB.BMP,Door3,-0.292052951,-0.090585938,1,0,0,1.2782,optionLeft,70,10025,5,9,0,9,0,1,,,,,,,,,,,,,,,,,,,,,,,,,,,,,,,,,,,,,,,
,,,,,,,,2023-08-16_08h39.31.963,HF_wild_card,2022.2.4,MacIntel,60.0024001,55b78162fdf99b0416ce544e,64d2fd46c836a06233681665,64dc7c5f2ac0a69ca4696226,,,,,,,sngl,resources/Empty.png,resources/DP.BMP,Door1,0.359149306,-0.033198785,1,0,0,1.3158,optionRight,30,10055,5,10,0,10,0,1,,,,,,,,,,,,,,,,,,,,,,,,,,,,,,,,,,,,,,,
,,,,,,,,2023-08-16_08h39.31.963,HF_wild_card,2022.2.4,MacIntel,60.0024001,55b78162fdf99b0416ce544e,64d2fd46c836a06233681665,64dc7c5f2ac0a69ca4696226,,,,,,,decisionTrl,resources/DBN.BMP,resources/DP.BMP,WildCard_NonEx,-0.298710937,-0.011293403,1,0,0,1.1321,optionLeft,55,10110,5,11,0,11,0,1,,,,,,,,,,,,,,,,,,,,,,,,,,,,,,,,,,,,,,,
,,,,,,,,2023-08-16_08h39.31.963,HF_wild_card,2022.2.4,MacIntel,60.0024001,55b78162fdf99b0416ce544e,64d2fd46c836a06233681665,64dc7c5f2ac0a69ca4696226,,,,,,,decisionTrl,resources/DB.BMP,resources/DY.BMP,Door3,0.348203125,-0.044696181,1,0,0,2.7819,optionRight,70,10180,5,12,0,12,0,1,,,,,,,,,,,,,,,,,,,,,,,,,,,,,,,,,,,,,,,
,,,,,,,,2023-08-16_08h39.31.963,HF_wild_card,2022.2.4,MacIntel,60.0024001,55b78162fdf99b0416ce544e,64d2fd46c836a06233681665,64dc7c5f2ac0a69ca4696226,,,,,,,decisionTrl,resources/DG.BMP,resources/DP.BMP,Door2,-0.460368924,-0.00016059,1,0,0,1.5304,optionLeft,20,10200,5,13,0,13,0,1,,,,,,,,,,,,,,,,,,,,,,,,,,,,,,,,,,,,,,,
,,,,,,,,2023-08-16_08h39.31.963,HF_wild_card,2022.2.4,MacIntel,60.0024001,55b78162fdf99b0416ce544e,64d2fd46c836a06233681665,64dc7c5f2ac0a69ca4696226,,,,,,,decisionTrl,resources/DP.BMP,resources/DG.BMP,Door1,-0.329283854,-0.079127604,1,0,0,1.1318,optionLeft,30,10230,5,14,0,14,0,1,,,,,,,,,,,,,,,,,,,,,,,,,,,,,,,,,,,,,,,
,,,,,,,,2023-08-16_08h39.31.963,HF_wild_card,2022.2.4,MacIntel,60.0024001,55b78162fdf99b0416ce544e,64d2fd46c836a06233681665,64dc7c5f2ac0a69ca4696226,,,,,,,ctch,resources/DG.BMP,resources/DY.BMP,Door3,0.454301215,-0.045698785,1,0,0,1.0109,optionRight,70,10300,5,15,0,15,0,1,,,,,,,,,,,,,,,,,,,,,,,,,,,,,,,,,,,,,,,
,,,,,,,,2023-08-16_08h39.31.963,HF_wild_card,2022.2.4,MacIntel,60.0024001,55b78162fdf99b0416ce544e,64d2fd46c836a06233681665,64dc7c5f2ac0a69ca4696226,,,,,,,decisionTrl,resources/DP.BMP,resources/DG.BMP,Door1,-0.378993056,-0.058368056,1,0,0,2.2132,optionLeft,30,10330,5,16,0,16,0,1,,,,,,,,,,,,,,,,,,,,,,,,,,,,,,,,,,,,,,,
,,,,,,,,2023-08-16_08h39.31.963,HF_wild_card,2022.2.4,MacIntel,60.0024001,55b78162fdf99b0416ce544e,64d2fd46c836a06233681665,64dc7c5f2ac0a69ca4696226,,,,,,,decisionTrl,resources/DBN.BMP,resources/DB.BMP,Door4,0.311267361,-0.013771701,1,0,0,1.6637,optionRight,60,10390,5,17,0,17,0,1,,,,,,,,,,,,,,,,,,,,,,,,,,,,,,,,,,,,,,,
,,,,,,,,2023-08-16_08h39.31.963,HF_wild_card,2022.2.4,MacIntel,60.0024001,55b78162fdf99b0416ce544e,64d2fd46c836a06233681665,64dc7c5f2ac0a69ca4696226,,,,,,,decisionTrl,resources/DY.BMP,resources/DB.BMP,Door3,-0.3328125,-0.067938368,1,0,0,1.581,optionLeft,70,10460,5,18,0,18,0,1,,,,,,,,,,,,,,,,,,,,,,,,,,,,,,,,,,,,,,,
,,,,,,,,2023-08-16_08h39.31.963,HF_wild_card,2022.2.4,MacIntel,60.0024001,55b78162fdf99b0416ce544e,64d2fd46c836a06233681665,64dc7c5f2ac0a69ca4696226,,,,,,,decisionTrl,resources/DY.BMP,resources/DB.BMP,Door3,-0.374709201,-0.025733507,1,0,0,1.1123,optionLeft,70,10530,5,19,0,19,0,1,,,,,,,,,,,,,,,,,,,,,,,,,,,,,,,,,,,,,,,
,,,,,,,,2023-08-16_08h39.31.963,HF_wild_card,2022.2.4,MacIntel,60.0024001,55b78162fdf99b0416ce544e,64d2fd46c836a06233681665,64dc7c5f2ac0a69ca4696226,,,,,,,ctch,resources/DG.BMP,resources/DY.BMP,Door3,0.483081597,-0.058025174,1,0,0,1.2448,optionRight,70,10600,5,20,0,20,0,1,,,,,,,,,,,,,,,,,,,,,,,,,,,,,,,,,,,,,,,
,,,,,,,,2023-08-16_08h39.31.963,HF_wild_card,2022.2.4,MacIntel,60.0024001,55b78162fdf99b0416ce544e,64d2fd46c836a06233681665,64dc7c5f2ac0a69ca4696226,,,,,,,ctch,resources/DP.BMP,resources/DB.BMP,Door4,0.384678819,-0.034088542,1,0,0,1.0609,optionRight,60,10660,5,21,0,21,0,1,,,,,,,,,,,,,,,,,,,,,,,,,,,,,,,,,,,,,,,
,,,,,,,,2023-08-16_08h39.31.963,HF_wild_card,2022.2.4,MacIntel,60.0024001,55b78162fdf99b0416ce544e,64d2fd46c836a06233681665,64dc7c5f2ac0a69ca4696226,,,,,,,ctch,resources/DB.BMP,resources/DP.BMP,Door4,-0.464761285,-0.068702257,1,0,0,1.3295,optionLeft,80,10740,5,22,0,22,0,1,,,,,,,,,,,,,,,,,,,,,,,,,,,,,,,,,,,,,,,
,,,,,,,,2023-08-16_08h39.31.963,HF_wild_card,2022.2.4,MacIntel,60.0024001,55b78162fdf99b0416ce544e,64d2fd46c836a06233681665,64dc7c5f2ac0a69ca4696226,,,,,,,decisionTrl,resources/DB.BMP,resources/DY.BMP,Door4,-0.410173611,-0.099045139,1,0,0,1.2456,optionLeft,60,10800,5,23,0,23,0,1,,,,,,,,,,,,,,,,,,,,,,,,,,,,,,,,,,,,,,,
,,,,,,,,2023-08-16_08h39.31.963,HF_wild_card,2022.2.4,MacIntel,60.0024001,55b78162fdf99b0416ce544e,64d2fd46c836a06233681665,64dc7c5f2ac0a69ca4696226,,,,,,,decisionTrl,resources/DB.BMP,resources/DY.BMP,Door3,0.408854167,-0.051440972,1,0,0,1.0955,optionRight,70,10870,5,24,0,24,0,1,,,,,,,,,,,,,,,,,,,,,,,,,,,,,,,,,,,,,,,
,,,,,,,,2023-08-16_08h39.31.963,HF_wild_card,2022.2.4,MacIntel,60.0024001,55b78162fdf99b0416ce544e,64d2fd46c836a06233681665,64dc7c5f2ac0a69ca4696226,,,,,,,decisionTrl,resources/DP.BMP,resources/DG.BMP,Door2,0.424210069,-0.065104167,1,0,0,1.1472,optionRight,20,10890,5,25,0,25,0,1,,,,,,,,,,,,,,,,,,,,,,,,,,,,,,,,,,,,,,,
,,,,,,,,2023-08-16_08h39.31.963,HF_wild_card,2022.2.4,MacIntel,60.0024001,55b78162fdf99b0416ce544e,64d2fd46c836a06233681665,64dc7c5f2ac0a69ca4696226,,,,,,,decisionTrl,resources/DY.BMP,resources/DBN.BMP,Door3,-0.46187066,-0.0503125,1,0,0,1.4492,optionLeft,70,10960,5,26,0,26,0,1,,,,,,,,,,,,,,,,,,,,,,,,,,,,,,,,,,,,,,,
,,,,,,,,2023-08-16_08h39.31.963,HF_wild_card,2022.2.4,MacIntel,60.0024001,55b78162fdf99b0416ce544e,64d2fd46c836a06233681665,64dc7c5f2ac0a69ca4696226,,,,,,,decisionTrl,resources/DG.BMP,resources/DBN.BMP,WildCard_NonEx,0.328993056,0.007569444,1,0,0,1.1793,optionRight,45,11005,5,27,0,27,0,1,,,,,,,,,,,,,,,,,,,,,,,,,,,,,,,,,,,,,,,
,,,,,,,,2023-08-16_08h39.31.963,HF_wild_card,2022.2.4,MacIntel,60.0024001,55b78162fdf99b0416ce544e,64d2fd46c836a06233681665,64dc7c5f2ac0a69ca4696226,,,,,,,decisionTrl,resources/DP.BMP,resources/DG.BMP,Door1,-0.297764757,-0.065746528,1,0,0,2.3985,optionLeft,30,11035,5,28,0,28,0,1,,,,,,,,,,,,,,,,,,,,,,,,,,,,,,,,,,,,,,,
,,,,,,,,2023-08-16_08h39.31.963,HF_wild_card,2022.2.4,MacIntel,60.0024001,55b78162fdf99b0416ce544e,64d2fd46c836a06233681665,64dc7c5f2ac0a69ca4696226,,,,,,,sngl,resources/DG.BMP,resources/Empty.png,Door2,-0.422630208,-0.019830729,1,0,0,1.2129,optionLeft,40,11075,5,29,0,29,0,1,,,,,,,,,,,,,,,,,,,,,,,,,,,,,,,,,,,,,,,
,,,,,,,,2023-08-16_08h39.31.963,HF_wild_card,2022.2.4,MacIntel,60.0024001,55b78162fdf99b0416ce544e,64d2fd46c836a06233681665,64dc7c5f2ac0a69ca4696226,,,,,,,decisionTrl,resources/DB.BMP,resources/DBN.BMP,Door4,-0.284861111,-0.062951389,1,0,0,2.9455,optionLeft,60,11135,5,30,0,30,0,1,,,,,,,,,,,,,,,,,,,,,,,,,,,,,,,,,,,,,,,
,,,,,,,,2023-08-16_08h39.31.963,HF_wild_card,2022.2.4,MacIntel,60.0024001,55b78162fdf99b0416ce544e,64d2fd46c836a06233681665,64dc7c5f2ac0a69ca4696226,,,,,,,sngl,resources/Empty.png,resources/DBN.BMP,WildCard_NonEx,0.349500868,-0.069969618,1,0,0,1.5634,optionRight,55,11190,5,31,0,31,0,1,,,,,,,,,,,,,,,,,,,,,,,,,,,,,,,,,,,,,,,
,,,,,,,,2023-08-16_08h39.31.963,HF_wild_card,2022.2.4,MacIntel,60.0024001,55b78162fdf99b0416ce544e,64d2fd46c836a06233681665,64dc7c5f2ac0a69ca4696226,,,,,,,sngl,resources/Empty.png,resources/DB.BMP,Door4,0.431132813,-0.092990451,1,0,0,0.9989,optionRight,60,11250,5,32,0,32,0,1,,,,,,,,,,,,,,,,,,,,,,,,,,,,,,,,,,,,,,,
,,,,,,,,2023-08-16_08h39.31.963,HF_wild_card,2022.2.4,MacIntel,60.0024001,55b78162fdf99b0416ce544e,64d2fd46c836a06233681665,64dc7c5f2ac0a69ca4696226,,,,,,,decisionTrl,resources/DY.BMP,resources/DB.BMP,Door3,-0.250329861,-0.061801215,1,0,0,1.7452,optionLeft,70,11320,5,33,0,33,0,1,,,,,,,,,,,,,,,,,,,,,,,,,,,,,,,,,,,,,,,
,,,,,,,,2023-08-16_08h39.31.963,HF_wild_card,2022.2.4,MacIntel,60.0024001,55b78162fdf99b0416ce544e,64d2fd46c836a06233681665,64dc7c5f2ac0a69ca4696226,,,,,,,decisionTrl,resources/DG.BMP,resources/DP.BMP,Door1,0.342764757,-0.092165799,1,0,0,2.2274,optionRight,30,11350,5,34,0,34,0,1,,,,,,,,,,,,,,,,,,,,,,,,,,,,,,,,,,,,,,,
,,,,,,,,2023-08-16_08h39.31.963,HF_wild_card,2022.2.4,MacIntel,60.0024001,55b78162fdf99b0416ce544e,64d2fd46c836a06233681665,64dc7c5f2ac0a69ca4696226,,,,,,,decisionTrl,resources/DG.BMP,resources/DP.BMP,Door1,0.435989583,-0.102981771,1,0,0,1.2623,optionRight,30,11380,5,35,0,35,0,1,,,,,,,,,,,,,,,,,,,,,,,,,,,,,,,,,,,,,,,
,,,,,,,,2023-08-16_08h39.31.963,HF_wild_card,2022.2.4,MacIntel,60.0024001,55b78162fdf99b0416ce544e,64d2fd46c836a06233681665,64dc7c5f2ac0a69ca4696226,,,,,,,sngl,resources/Empty.png,resources/DY.BMP,Door3,0.351540799,-0.062287326,1,0,0,0.9306,optionRight,70,11450,5,36,0,36,0,1,,,,,,,,,,,,,,,,,,,,,,,,,,,,,,,,,,,,,,,
,,,,,,,,2023-08-16_08h39.31.963,HF_wild_card,2022.2.4,MacIntel,60.0024001,55b78162fdf99b0416ce544e,64d2fd46c836a06233681665,64dc7c5f2ac0a69ca4696226,,,,,,,sngl,resources/DBN.BMP,resources/Empty.png,WildCard_NonEx,-0.309622396,-0.024444444,1,0,0,0.9958,optionLeft,45,11495,5,37,0,37,0,1,,,,,,,,,,,,,,,,,,,,,,,,,,,,,,,,,,,,,,,
,,,,,,,,2023-08-16_08h39.31.963,HF_wild_card,2022.2.4,MacIntel,60.0024001,55b78162fdf99b0416ce544e,64d2fd46c836a06233681665,64dc7c5f2ac0a69ca4696226,,,,,,,decisionTrl,resources/DBN.BMP,resources/DG.BMP,WildCard_NonEx,-0.321258681,-0.031935764,1,0,0,1.613,optionLeft,45,11540,5,38,0,38,0,1,,,,,,,,,,,,,,,,,,,,,,,,,,,,,,,,,,,,,,,
,,,,,,,,2023-08-16_08h39.31.963,HF_wild_card,2022.2.4,MacIntel,60.0024001,55b78162fdf99b0416ce544e,64d2fd46c836a06233681665,64dc7c5f2ac0a69ca4696226,,,,,,,ctch,resources/DB.BMP,resources/DP.BMP,Door4,-0.464249132,-0.037096354,1,0,0,1.0452,optionLeft,80,11620,5,39,0,39,0,1,,,,,,,,,,,,,,,,,,,,,,,,,,,,,,,,,,,,,,,
,,,,,,,,2023-08-16_08h39.31.963,HF_wild_card,2022.2.4,MacIntel,60.0024001,55b78162fdf99b0416ce544e,64d2fd46c836a06233681665,64dc7c5f2ac0a69ca4696226,,,,,,,ctch,resources/DY.BMP,resources/DG.BMP,Door3,-0.35359809,-0.035138889,1,0,0,1.279,optionLeft,70,11690,5,40,0,40,0,1,,,,,,,,,,,,,,,,,,,,,,,,,,,,,,,,,,,,,,,
,,,,,,,,2023-08-16_08h39.31.963,HF_wild_card,2022.2.4,MacIntel,60.0024001,55b78162fdf99b0416ce544e,64d2fd46c836a06233681665,64dc7c5f2ac0a69ca4696226,,,,,,,sngl,resources/Empty.png,resources/DG.BMP,Door2,0.533932292,0.010030382,1,0,0,1.6464,optionRight,20,11710,5,41,0,41,0,1,,,,,,,,,,,,,,,,,,,,,,,,,,,,,,,,,,,,,,,
,,,,,,,,2023-08-16_08h39.31.963,HF_wild_card,2022.2.4,MacIntel,60.0024001,55b78162fdf99b0416ce544e,64d2fd46c836a06233681665,64dc7c5f2ac0a69ca4696226,,,,,,,sngl,resources/DBN.BMP,resources/Empty.png,WildCard_NonEx,-0.395980903,-0.047243924,1,0,0,1.0815,optionLeft,55,11765,5,42,0,42,0,1,,,,,,,,,,,,,,,,,,,,,,,,,,,,,,,,,,,,,,,
,,,,,,,,2023-08-16_08h39.31.963,HF_wild_card,2022.2.4,MacIntel,60.0024001,55b78162fdf99b0416ce544e,64d2fd46c836a06233681665,64dc7c5f2ac0a69ca4696226,,,,,,,decisionTrl,resources/DBN.BMP,resources/DY.BMP,Door3,0.340195313,-0.096158854,1,0,0,1.3503,optionRight,70,11835,5,43,0,43,0,1,,,,,,,,,,,,,,,,,,,,,,,,,,,,,,,,,,,,,,,
,,,,,,,,2023-08-16_08h39.31.963,HF_wild_card,2022.2.4,MacIntel,60.0024001,55b78162fdf99b0416ce544e,64d2fd46c836a06233681665,64dc7c5f2ac0a69ca4696226,,,,,,,,,,,,,,,,,,,,,,,,,,4,0,4,0,1,,,,,,,,,,,,,,,,,,,,,,,,,,,,,,,,,,
,,,,,,,,2023-08-16_08h39.31.963,HF_wild_card,2022.2.4,MacIntel,60.0024001,55b78162fdf99b0416ce544e,64d2fd46c836a06233681665,64dc7c5f2ac0a69ca4696226,,,,,,,decisionTrl,resources/DG.BMP,resources/DP.BMP,Door1,0.327960069,-0.134292535,1,0,0,2.484,optionRight,30,11865,6,0,0,0,0,1,,,,,,,,,,,,,,,,,,,,,,,,,,,,,,,,,,,,,,,
,,,,,,,,2023-08-16_08h39.31.963,HF_wild_card,2022.2.4,MacIntel,60.0024001,55b78162fdf99b0416ce544e,64d2fd46c836a06233681665,64dc7c5f2ac0a69ca4696226,,,,,,,decisionTrl,resources/DBN.BMP,resources/DG.BMP,WildCard_NonEx,-0.347947049,-0.011553819,1,0,0,1.3604,optionLeft,55,11920,6,1,0,1,0,1,,,,,,,,,,,,,,,,,,,,,,,,,,,,,,,,,,,,,,,
,,,,,,,,2023-08-16_08h39.31.963,HF_wild_card,2022.2.4,MacIntel,60.0024001,55b78162fdf99b0416ce544e,64d2fd46c836a06233681665,64dc7c5f2ac0a69ca4696226,,,,,,,decisionTrl,resources/DP.BMP,resources/DG.BMP,Door2,0.498051215,-0.06828559,1,0,0,1.2456,optionRight,40,11960,6,2,0,2,0,1,,,,,,,,,,,,,,,,,,,,,,,,,,,,,,,,,,,,,,,
,,,,,,,,2023-08-16_08h39.31.963,HF_wild_card,2022.2.4,MacIntel,60.0024001,55b78162fdf99b0416ce544e,64d2fd46c836a06233681665,64dc7c5f2ac0a69ca4696226,,,,,,,sngl,resources/DP.BMP,resources/Empty.png,Door1,-0.365902778,-0.042847222,1,0,0,0.7626,optionLeft,30,11990,6,3,0,3,0,1,,,,,,,,,,,,,,,,,,,,,,,,,,,,,,,,,,,,,,,
,,,,,,,,2023-08-16_08h39.31.963,HF_wild_card,2022.2.4,MacIntel,60.0024001,55b78162fdf99b0416ce544e,64d2fd46c836a06233681665,64dc7c5f2ac0a69ca4696226,,,,,,,sngl,resources/Empty.png,resources/DB.BMP,Door4,0.352521701,-0.04499566,1,0,0,0.8624,optionRight,80,12070,6,4,0,4,0,1,,,,,,,,,,,,,,,,,,,,,,,,,,,,,,,,,,,,,,,
,,,,,,,,2023-08-16_08h39.31.963,HF_wild_card,2022.2.4,MacIntel,60.0024001,55b78162fdf99b0416ce544e,64d2fd46c836a06233681665,64dc7c5f2ac0a69ca4696226,,,,,,,decisionTrl,resources/DBN.BMP,resources/DB.BMP,Door4,0.2446875,-0.069713542,1,0,0,1.6496,optionRight,60,12130,6,5,0,5,0,1,,,,,,,,,,,,,,,,,,,,,,,,,,,,,,,,,,,,,,,
,,,,,,,,2023-08-16_08h39.31.963,HF_wild_card,2022.2.4,MacIntel,60.0024001,55b78162fdf99b0416ce544e,64d2fd46c836a06233681665,64dc7c5f2ac0a69ca4696226,,,,,,,ctch,resources/DG.BMP,resources/DY.BMP,Door3,0.385512153,-0.105277778,1,0,0,1.1112,optionRight,70,12200,6,6,0,6,0,1,,,,,,,,,,,,,,,,,,,,,,,,,,,,,,,,,,,,,,,
,,,,,,,,2023-08-16_08h39.31.963,HF_wild_card,2022.2.4,MacIntel,60.0024001,55b78162fdf99b0416ce544e,64d2fd46c836a06233681665,64dc7c5f2ac0a69ca4696226,,,,,,,sngl,resources/DG.BMP,resources/Empty.png,Door2,-0.296883681,-0.00797309,1,0,0,0.8312,optionLeft,20,12220,6,7,0,7,0,1,,,,,,,,,,,,,,,,,,,,,,,,,,,,,,,,,,,,,,,
,,,,,,,,2023-08-16_08h39.31.963,HF_wild_card,2022.2.4,MacIntel,60.0024001,55b78162fdf99b0416ce544e,64d2fd46c836a06233681665,64dc7c5f2ac0a69ca4696226,,,,,,,decisionTrl,resources/DG.BMP,resources/DBN.BMP,WildCard_NonEx,0.256549479,-0.035434028,1,0,0,0.9827,optionRight,45,12265,6,8,0,8,0,1,,,,,,,,,,,,,,,,,,,,,,,,,,,,,,,,,,,,,,,
,,,,,,,,2023-08-16_08h39.31.963,HF_wild_card,2022.2.4,MacIntel,60.0024001,55b78162fdf99b0416ce544e,64d2fd46c836a06233681665,64dc7c5f2ac0a69ca4696226,,,,,,,decisionTrl,resources/DY.BMP,resources/DB.BMP,Door3,-0.264552951,-0.021484375,1,0,0,2.8161,optionLeft,70,12335,6,9,0,9,0,1,,,,,,,,,,,,,,,,,,,,,,,,,,,,,,,,,,,,,,,
,,,,,,,,2023-08-16_08h39.31.963,HF_wild_card,2022.2.4,MacIntel,60.0024001,55b78162fdf99b0416ce544e,64d2fd46c836a06233681665,64dc7c5f2ac0a69ca4696226,,,,,,,sngl,resources/DB.BMP,resources/Empty.png,Door4,-0.311497396,-0.049335938,1,0,0,1.2649,optionLeft,60,12395,6,10,0,10,0,1,,,,,,,,,,,,,,,,,,,,,,,,,,,,,,,,,,,,,,,
,,,,,,,,2023-08-16_08h39.31.963,HF_wild_card,2022.2.4,MacIntel,60.0024001,55b78162fdf99b0416ce544e,64d2fd46c836a06233681665,64dc7c5f2ac0a69ca4696226,,,,,,,decisionTrl,resources/DB.BMP,resources/DY.BMP,Door3,0.367335069,-0.093246528,1,0,0,0.9635,optionRight,70,12465,6,11,0,11,0,1,,,,,,,,,,,,,,,,,,,,,,,,,,,,,,,,,,,,,,,
,,,,,,,,2023-08-16_08h39.31.963,HF_wild_card,2022.2.4,MacIntel,60.0024001,55b78162fdf99b0416ce544e,64d2fd46c836a06233681665,64dc7c5f2ac0a69ca4696226,,,,,,,decisionTrl,resources/DB.BMP,resources/DY.BMP,Door3,0.491336806,-0.064266493,1,0,0,5.2141,optionRight,70,12535,6,12,0,12,0,1,,,,,,,,,,,,,,,,,,,,,,,,,,,,,,,,,,,,,,,
,,,,,,,,2023-08-16_08h39.31.963,HF_wild_card,2022.2.4,MacIntel,60.0024001,55b78162fdf99b0416ce544e,64d2fd46c836a06233681665,64dc7c5f2ac0a69ca4696226,,,,,,,decisionTrl,resources/DBN.BMP,resources/DP.BMP,WildCard_NonEx,-0.307009549,-0.020564236,1,0,0,1.7672,optionLeft,45,12580,6,13,0,13,0,1,,,,,,,,,,,,,,,,,,,,,,,,,,,,,,,,,,,,,,,
,,,,,,,,2023-08-16_08h39.31.963,HF_wild_card,2022.2.4,MacIntel,60.0024001,55b78162fdf99b0416ce544e,64d2fd46c836a06233681665,64dc7c5f2ac0a69ca4696226,,,,,,,decisionTrl,resources/DB.BMP,resources/DBN.BMP,Door4,-0.415238715,-0.060685764,1,0,0,1.8474,optionLeft,60,12640,6,14,0,14,0,1,,,,,,,,,,,,,,,,,,,,,,,,,,,,,,,,,,,,,,,
,,,,,,,,2023-08-16_08h39.31.963,HF_wild_card,2022.2.4,MacIntel,60.0024001,55b78162fdf99b0416ce544e,64d2fd46c836a06233681665,64dc7c5f2ac0a69ca4696226,,,,,,,sngl,resources/DBN.BMP,resources/Empty.png,WildCard_NonEx,-0.319040799,-0.025807292,1,0,0,0.8992,optionLeft,55,12695,6,15,0,15,0,1,,,,,,,,,,,,,,,,,,,,,,,,,,,,,,,,,,,,,,,
,,,,,,,,2023-08-16_08h39.31.963,HF_wild_card,2022.2.4,MacIntel,60.0024001,55b78162fdf99b0416ce544e,64d2fd46c836a06233681665,64dc7c5f2ac0a69ca4696226,,,,,,,decisionTrl,resources/DY.BMP,resources/DBN.BMP,Door3,-0.354826389,-0.070759549,1,0,0,1.5807,optionLeft,70,12765,6,16,0,16,0,1,,,,,,,,,,,,,,,,,,,,,,,,,,,,,,,,,,,,,,,
,,,,,,,,2023-08-16_08h39.31.963,HF_wild_card,2022.2.4,MacIntel,60.0024001,55b78162fdf99b0416ce544e,64d2fd46c836a06233681665,64dc7c5f2ac0a69ca4696226,,,,,,,decisionTrl,resources/DBN.BMP,resources/DY.BMP,Door3,0.419548611,-0.012690972,1,0,0,1.7971,optionRight,70,12835,6,17,0,17,0,1,,,,,,,,,,,,,,,,,,,,,,,,,,,,,,,,,,,,,,,
,,,,,,,,2023-08-16_08h39.31.963,HF_wild_card,2022.2.4,MacIntel,60.0024001,55b78162fdf99b0416ce544e,64d2fd46c836a06233681665,64dc7c5f2ac0a69ca4696226,,,,,,,sngl,resources/Empty.png,resources/DG.BMP,Door2,0.358467882,-0.063155382,1,0,0,1.1473,optionRight,40,12875,6,18,0,18,0,1,,,,,,,,,,,,,,,,,,,,,,,,,,,,,,,,,,,,,,,
,,,,,,,,2023-08-16_08h39.31.963,HF_wild_card,2022.2.4,MacIntel,60.0024001,55b78162fdf99b0416ce544e,64d2fd46c836a06233681665,64dc7c5f2ac0a69ca4696226,,,,,,,decisionTrl,resources/DY.BMP,resources/DB.BMP,Door3,-0.394509549,-0.068619792,1,0,0,2.8133,optionLeft,70,12945,6,19,0,19,0,1,,,,,,,,,,,,,,,,,,,,,,,,,,,,,,,,,,,,,,,
,,,,,,,,2023-08-16_08h39.31.963,HF_wild_card,2022.2.4,MacIntel,60.0024001,55b78162fdf99b0416ce544e,64d2fd46c836a06233681665,64dc7c5f2ac0a69ca4696226,,,,,,,decisionTrl,resources/DY.BMP,resources/DB.BMP,Door3,-0.342673611,-0.073155382,1,0,0,1.7147,optionLeft,70,13015,6,20,0,20,0,1,,,,,,,,,,,,,,,,,,,,,,,,,,,,,,,,,,,,,,,
,,,,,,,,2023-08-16_08h39.31.963,HF_wild_card,2022.2.4,MacIntel,60.0024001,55b78162fdf99b0416ce544e,64d2fd46c836a06233681665,64dc7c5f2ac0a69ca4696226,,,,,,,decisionTrl,resources/DY.BMP,resources/DB.BMP,Door3,-0.292764757,-0.073389757,1,0,0,1.5646,optionLeft,70,13085,6,21,0,21,0,1,,,,,,,,,,,,,,,,,,,,,,,,,,,,,,,,,,,,,,,
,,,,,,,,2023-08-16_08h39.31.963,HF_wild_card,2022.2.4,MacIntel,60.0024001,55b78162fdf99b0416ce544e,64d2fd46c836a06233681665,64dc7c5f2ac0a69ca4696226,,,,,,,decisionTrl,resources/DP.BMP,resources/DG.BMP,Door2,0.271987847,-0.011284722,1,0,0,1.4124,optionRight,40,13125,6,22,0,22,0,1,,,,,,,,,,,,,,,,,,,,,,,,,,,,,,,,,,,,,,,
,,,,,,,,2023-08-16_08h39.31.963,HF_wild_card,2022.2.4,MacIntel,60.0024001,55b78162fdf99b0416ce544e,64d2fd46c836a06233681665,64dc7c5f2ac0a69ca4696226,,,,,,,decisionTrl,resources/DB.BMP,resources/DY.BMP,Door4,-0.323619792,-0.051506076,1,0,0,1.8312,optionLeft,60,13185,6,23,0,23,0,1,,,,,,,,,,,,,,,,,,,,,,,,,,,,,,,,,,,,,,,
,,,,,,,,2023-08-16_08h39.31.963,HF_wild_card,2022.2.4,MacIntel,60.0024001,55b78162fdf99b0416ce544e,64d2fd46c836a06233681665,64dc7c5f2ac0a69ca4696226,,,,,,,ctch,resources/DG.BMP,resources/DY.BMP,Door3,0.397860243,-0.041236979,1,0,0,0.8627,optionRight,70,13255,6,24,0,24,0,1,,,,,,,,,,,,,,,,,,,,,,,,,,,,,,,,,,,,,,,
,,,,,,,,2023-08-16_08h39.31.963,HF_wild_card,2022.2.4,MacIntel,60.0024001,55b78162fdf99b0416ce544e,64d2fd46c836a06233681665,64dc7c5f2ac0a69ca4696226,,,,,,,ctch,resources/DP.BMP,resources/DB.BMP,Door4,0.322699653,-0.051041667,1,0,0,1.3975,optionRight,80,13335,6,25,0,25,0,1,,,,,,,,,,,,,,,,,,,,,,,,,,,,,,,,,,,,,,,
,,,,,,,,2023-08-16_08h39.31.963,HF_wild_card,2022.2.4,MacIntel,60.0024001,55b78162fdf99b0416ce544e,64d2fd46c836a06233681665,64dc7c5f2ac0a69ca4696226,,,,,,,decisionTrl,resources/DG.BMP,resources/DP.BMP,Door2,-0.347517361,-0.055039062,1,0,0,1.8637,optionLeft,40,13375,6,26,0,26,0,1,,,,,,,,,,,,,,,,,,,,,,,,,,,,,,,,,,,,,,,
,,,,,,,,2023-08-16_08h39.31.963,HF_wild_card,2022.2.4,MacIntel,60.0024001,55b78162fdf99b0416ce544e,64d2fd46c836a06233681665,64dc7c5f2ac0a69ca4696226,,,,,,,ctch,resources/DB.BMP,resources/DP.BMP,Door4,-0.379548611,-0.076046007,1,0,0,0.9659,optionLeft,80,13455,6,27,0,27,0,1,,,,,,,,,,,,,,,,,,,,,,,,,,,,,,,,,,,,,,,
,,,,,,,,2023-08-16_08h39.31.963,HF_wild_card,2022.2.4,MacIntel,60.0024001,55b78162fdf99b0416ce544e,64d2fd46c836a06233681665,64dc7c5f2ac0a69ca4696226,,,,,,,ctch,resources/DY.BMP,resources/DG.BMP,Door3,-0.390954861,-0.038871528,1,0,0,1.2683,optionLeft,70,13525,6,28,0,28,0,1,,,,,,,,,,,,,,,,,,,,,,,,,,,,,,,,,,,,,,,
,,,,,,,,2023-08-16_08h39.31.963,HF_wild_card,2022.2.4,MacIntel,60.0024001,55b78162fdf99b0416ce544e,64d2fd46c836a06233681665,64dc7c5f2ac0a69ca4696226,,,,,,,sngl,resources/DY.BMP,resources/Empty.png,Door3,-0.3259375,-0.046276042,1,0,0,0.8996,optionLeft,70,13595,6,29,0,29,0,1,,,,,,,,,,,,,,,,,,,,,,,,,,,,,,,,,,,,,,,
,,,,,,,,2023-08-16_08h39.31.963,HF_wild_card,2022.2.4,MacIntel,60.0024001,55b78162fdf99b0416ce544e,64d2fd46c836a06233681665,64dc7c5f2ac0a69ca4696226,,,,,,,sngl,resources/Empty.png,resources/DBN.BMP,WildCard_NonEx,0.407821181,-0.019105903,1,0,0,0.897,optionRight,55,13650,6,30,0,30,0,1,,,,,,,,,,,,,,,,,,,,,,,,,,,,,,,,,,,,,,,
,,,,,,,,2023-08-16_08h39.31.963,HF_wild_card,2022.2.4,MacIntel,60.0024001,55b78162fdf99b0416ce544e,64d2fd46c836a06233681665,64dc7c5f2ac0a69ca4696226,,,,,,,sngl,resources/Empty.png,resources/DP.BMP,Door1,0.401076389,-0.089756944,1,0,0,0.916,optionRight,30,13680,6,31,0,31,0,1,,,,,,,,,,,,,,,,,,,,,,,,,,,,,,,,,,,,,,,
,,,,,,,,2023-08-16_08h39.31.963,HF_wild_card,2022.2.4,MacIntel,60.0024001,55b78162fdf99b0416ce544e,64d2fd46c836a06233681665,64dc7c5f2ac0a69ca4696226,,,,,,,ctch,resources/DP.BMP,resources/DB.BMP,Door4,0.416692708,-0.098923611,1,0,0,1.0815,optionRight,60,13740,6,32,0,32,0,1,,,,,,,,,,,,,,,,,,,,,,,,,,,,,,,,,,,,,,,
,,,,,,,,2023-08-16_08h39.31.963,HF_wild_card,2022.2.4,MacIntel,60.0024001,55b78162fdf99b0416ce544e,64d2fd46c836a06233681665,64dc7c5f2ac0a69ca4696226,,,,,,,decisionTrl,resources/DG.BMP,resources/DP.BMP,Door2,-0.420217014,-0.041184896,1,0,0,4.2112,optionLeft,40,13780,6,33,0,33,0,1,,,,,,,,,,,,,,,,,,,,,,,,,,,,,,,,,,,,,,,
,,,,,,,,2023-08-16_08h39.31.963,HF_wild_card,2022.2.4,MacIntel,60.0024001,55b78162fdf99b0416ce544e,64d2fd46c836a06233681665,64dc7c5f2ac0a69ca4696226,,,,,,,ctch,resources/DB.BMP,resources/DP.BMP,Door4,-0.373984375,-0.069639757,1,0,0,1.0135,optionLeft,60,13840,6,34,0,34,0,1,,,,,,,,,,,,,,,,,,,,,,,,,,,,,,,,,,,,,,,
,,,,,,,,2023-08-16_08h39.31.963,HF_wild_card,2022.2.4,MacIntel,60.0024001,55b78162fdf99b0416ce544e,64d2fd46c836a06233681665,64dc7c5f2ac0a69ca4696226,,,,,,,ctch,resources/DY.BMP,resources/DG.BMP,Door3,-0.327860243,-0.086931424,1,0,0,1.4337,optionLeft,70,13910,6,35,0,35,0,1,,,,,,,,,,,,,,,,,,,,,,,,,,,,,,,,,,,,,,,
,,,,,,,,2023-08-16_08h39.31.963,HF_wild_card,2022.2.4,MacIntel,60.0024001,55b78162fdf99b0416ce544e,64d2fd46c836a06233681665,64dc7c5f2ac0a69ca4696226,,,,,,,decisionTrl,resources/DP.BMP,resources/DG.BMP,Door2,0.43078559,-0.010611979,1,0,0,5.8292,optionRight,40,13950,6,36,0,36,0,1,,,,,,,,,,,,,,,,,,,,,,,,,,,,,,,,,,,,,,,
,,,,,,,,2023-08-16_08h39.31.963,HF_wild_card,2022.2.4,MacIntel,60.0024001,55b78162fdf99b0416ce544e,64d2fd46c836a06233681665,64dc7c5f2ac0a69ca4696226,,,,,,,decisionTrl,resources/DP.BMP,resources/DG.BMP,Door2,0.418190104,-0.04453559,1,0,0,1.3463,optionRight,40,13990,6,37,0,37,0,1,,,,,,,,,,,,,,,,,,,,,,,,,,,,,,,,,,,,,,,
,,,,,,,,2023-08-16_08h39.31.963,HF_wild_card,2022.2.4,MacIntel,60.0024001,55b78162fdf99b0416ce544e,64d2fd46c836a06233681665,64dc7c5f2ac0a69ca4696226,,,,,,,sngl,resources/Empty.png,resources/DBN.BMP,WildCard_NonEx,0.412287326,-0.045625,1,0,0,1.0287,optionRight,45,14035,6,38,0,38,0,1,,,,,,,,,,,,,,,,,,,,,,,,,,,,,,,,,,,,,,,
,,,,,,,,2023-08-16_08h39.31.963,HF_wild_card,2022.2.4,MacIntel,60.0024001,55b78162fdf99b0416ce544e,64d2fd46c836a06233681665,64dc7c5f2ac0a69ca4696226,,,,,,,decisionTrl,resources/DG.BMP,resources/DP.BMP,Door2,-0.327265625,-0.071102431,1,0,0,1.9789,optionLeft,20,14055,6,39,0,39,0,1,,,,,,,,,,,,,,,,,,,,,,,,,,,,,,,,,,,,,,,
,,,,,,,,2023-08-16_08h39.31.963,HF_wild_card,2022.2.4,MacIntel,60.0024001,55b78162fdf99b0416ce544e,64d2fd46c836a06233681665,64dc7c5f2ac0a69ca4696226,,,,,,,decisionTrl,resources/DP.BMP,resources/DBN.BMP,Door1,-0.402938368,-0.074791667,1,0,0,1.731,optionLeft,30,14085,6,40,0,40,0,1,,,,,,,,,,,,,,,,,,,,,,,,,,,,,,,,,,,,,,,
,,,,,,,,2023-08-16_08h39.31.963,HF_wild_card,2022.2.4,MacIntel,60.0024001,55b78162fdf99b0416ce544e,64d2fd46c836a06233681665,64dc7c5f2ac0a69ca4696226,,,,,,,sngl,resources/Empty.png,resources/DY.BMP,Door3,0.403654514,-0.058732639,1,0,0,0.8146,optionRight,70,14155,6,41,0,41,0,1,,,,,,,,,,,,,,,,,,,,,,,,,,,,,,,,,,,,,,,
,,,,,,,,2023-08-16_08h39.31.963,HF_wild_card,2022.2.4,MacIntel,60.0024001,55b78162fdf99b0416ce544e,64d2fd46c836a06233681665,64dc7c5f2ac0a69ca4696226,,,,,,,sngl,resources/DBN.BMP,resources/Empty.png,WildCard_NonEx,-0.286979167,0.000729167,1,0,0,0.9605,optionLeft,45,14200,6,42,0,42,0,1,,,,,,,,,,,,,,,,,,,,,,,,,,,,,,,,,,,,,,,
,,,,,,,,2023-08-16_08h39.31.963,HF_wild_card,2022.2.4,MacIntel,60.0024001,55b78162fdf99b0416ce544e,64d2fd46c836a06233681665,64dc7c5f2ac0a69ca4696226,,,,,,,decisionTrl,resources/DB.BMP,resources/DY.BMP,Door4,-0.376046007,-0.106215278,1,0,0,1.4165,optionLeft,80,14280,6,43,0,43,0,1,,,,,,,,,,,,,,,,,,,,,,,,,,,,,,,,,,,,,,,
,,,,,,,,2023-08-16_08h39.31.963,HF_wild_card,2022.2.4,MacIntel,60.0024001,55b78162fdf99b0416ce544e,64d2fd46c836a06233681665,64dc7c5f2ac0a69ca4696226,,,,,,,,,,,,,,,,,,,,,,,,,,5,0,5,0,1,,,,,,,,,,,,,,,,,,,,,,,,,,,,,,,,,,
,,,,,,,,2023-08-16_08h39.31.963,HF_wild_card,2022.2.4,MacIntel,60.0024001,55b78162fdf99b0416ce544e,64d2fd46c836a06233681665,64dc7c5f2ac0a69ca4696226,,,,,,,ctch,resources/DB.BMP,resources/DP.BMP,Door4,-0.307061632,-0.091480035,1,0,0,1.093,optionLeft,60,14340,7,0,0,0,0,1,,,,,,,,,,,,,,,,,,,,,,,,,,,,,,,,,,,,,,,
,,,,,,,,2023-08-16_08h39.31.963,HF_wild_card,2022.2.4,MacIntel,60.0024001,55b78162fdf99b0416ce544e,64d2fd46c836a06233681665,64dc7c5f2ac0a69ca4696226,,,,,,,decisionTrl,resources/DG.BMP,resources/DP.BMP,Door2,-0.348298611,-0.02797309,1,0,0,1.3315,optionLeft,20,14360,7,1,0,1,0,1,,,,,,,,,,,,,,,,,,,,,,,,,,,,,,,,,,,,,,,
,,,,,,,,2023-08-16_08h39.31.963,HF_wild_card,2022.2.4,MacIntel,60.0024001,55b78162fdf99b0416ce544e,64d2fd46c836a06233681665,64dc7c5f2ac0a69ca4696226,,,,,,,ctch,resources/DG.BMP,resources/DY.BMP,Door3,0.42202691,-0.141571181,1,0,0,0.9471,optionRight,70,14430,7,2,0,2,0,1,,,,,,,,,,,,,,,,,,,,,,,,,,,,,,,,,,,,,,,
,,,,,,,,2023-08-16_08h39.31.963,HF_wild_card,2022.2.4,MacIntel,60.0024001,55b78162fdf99b0416ce544e,64d2fd46c836a06233681665,64dc7c5f2ac0a69ca4696226,,,,,,,decisionTrl,resources/DP.BMP,resources/DG.BMP,Door2,0.395130208,-0.055581597,1,0,0,1.5975,optionRight,20,14450,7,3,0,3,0,1,,,,,,,,,,,,,,,,,,,,,,,,,,,,,,,,,,,,,,,
,,,,,,,,2023-08-16_08h39.31.963,HF_wild_card,2022.2.4,MacIntel,60.0024001,55b78162fdf99b0416ce544e,64d2fd46c836a06233681665,64dc7c5f2ac0a69ca4696226,,,,,,,decisionTrl,resources/DB.BMP,resources/DY.BMP,Door3,0.387491319,-0.044487847,1,0,0,1.1153,optionRight,70,14520,7,4,0,4,0,1,,,,,,,,,,,,,,,,,,,,,,,,,,,,,,,,,,,,,,,
,,,,,,,,2023-08-16_08h39.31.963,HF_wild_card,2022.2.4,MacIntel,60.0024001,55b78162fdf99b0416ce544e,64d2fd46c836a06233681665,64dc7c5f2ac0a69ca4696226,,,,,,,decisionTrl,resources/DY.BMP,resources/DB.BMP,Door3,-0.372790799,-0.093485243,1,0,0,1.0311,optionLeft,70,14590,7,5,0,5,0,1,,,,,,,,,,,,,,,,,,,,,,,,,,,,,,,,,,,,,,,
,,,,,,,,2023-08-16_08h39.31.963,HF_wild_card,2022.2.4,MacIntel,60.0024001,55b78162fdf99b0416ce544e,64d2fd46c836a06233681665,64dc7c5f2ac0a69ca4696226,,,,,,,decisionTrl,resources/DY.BMP,resources/DB.BMP,Door3,-0.317118056,-0.081197917,1,0,0,0.8006,optionLeft,70,14660,7,6,0,6,0,1,,,,,,,,,,,,,,,,,,,,,,,,,,,,,,,,,,,,,,,
,,,,,,,,2023-08-16_08h39.31.963,HF_wild_card,2022.2.4,MacIntel,60.0024001,55b78162fdf99b0416ce544e,64d2fd46c836a06233681665,64dc7c5f2ac0a69ca4696226,,,,,,,decisionTrl,resources/DG.BMP,resources/DP.BMP,Door2,-0.293467882,-0.063042535,1,0,0,1.2972,optionLeft,40,14700,7,7,0,7,0,1,,,,,,,,,,,,,,,,,,,,,,,,,,,,,,,,,,,,,,,
,,,,,,,,2023-08-16_08h39.31.963,HF_wild_card,2022.2.4,MacIntel,60.0024001,55b78162fdf99b0416ce544e,64d2fd46c836a06233681665,64dc7c5f2ac0a69ca4696226,,,,,,,decisionTrl,resources/DY.BMP,resources/DB.BMP,Door3,-0.311883681,-0.068168403,1,0,0,1.3508,optionLeft,70,14770,7,8,0,8,0,1,,,,,,,,,,,,,,,,,,,,,,,,,,,,,,,,,,,,,,,
,,,,,,,,2023-08-16_08h39.31.963,HF_wild_card,2022.2.4,MacIntel,60.0024001,55b78162fdf99b0416ce544e,64d2fd46c836a06233681665,64dc7c5f2ac0a69ca4696226,,,,,,,ctch,resources/DY.BMP,resources/DG.BMP,Door3,-0.391414931,-0.139986979,1,0,0,0.9177,optionLeft,70,14840,7,9,0,9,0,1,,,,,,,,,,,,,,,,,,,,,,,,,,,,,,,,,,,,,,,
,,,,,,,,2023-08-16_08h39.31.963,HF_wild_card,2022.2.4,MacIntel,60.0024001,55b78162fdf99b0416ce544e,64d2fd46c836a06233681665,64dc7c5f2ac0a69ca4696226,,,,,,,ctch,resources/DY.BMP,resources/DG.BMP,Door3,-0.400659722,-0.110611979,1,0,0,0.7664,optionLeft,70,14910,7,10,0,10,0,1,,,,,,,,,,,,,,,,,,,,,,,,,,,,,,,,,,,,,,,
,,,,,,,,2023-08-16_08h39.31.963,HF_wild_card,2022.2.4,MacIntel,60.0024001,55b78162fdf99b0416ce544e,64d2fd46c836a06233681665,64dc7c5f2ac0a69ca4696226,,,,,,,decisionTrl,resources/DY.BMP,resources/DB.BMP,Door3,-0.316974826,-0.086753472,1,0,0,0.917,optionLeft,70,14980,7,11,0,11,0,1,,,,,,,,,,,,,,,,,,,,,,,,,,,,,,,,,,,,,,,
,,,,,,,,2023-08-16_08h39.31.963,HF_wild_card,2022.2.4,MacIntel,60.0024001,55b78162fdf99b0416ce544e,64d2fd46c836a06233681665,64dc7c5f2ac0a69ca4696226,,,,,,,decisionTrl,resources/DB.BMP,resources/DY.BMP,Door4,-0.356063368,-0.059361979,1,0,0,0.8291,optionLeft,60,15040,7,12,0,12,0,1,,,,,,,,,,,,,,,,,,,,,,,,,,,,,,,,,,,,,,,
,,,,,,,,2023-08-16_08h39.31.963,HF_wild_card,2022.2.4,MacIntel,60.0024001,55b78162fdf99b0416ce544e,64d2fd46c836a06233681665,64dc7c5f2ac0a69ca4696226,,,,,,,decisionTrl,resources/DP.BMP,resources/DG.BMP,Door2,0.408355035,-0.011766493,1,0,0,1.0824,optionRight,40,15080,7,13,0,13,0,1,,,,,,,,,,,,,,,,,,,,,,,,,,,,,,,,,,,,,,,
,,,,,,,,2023-08-16_08h39.31.963,HF_wild_card,2022.2.4,MacIntel,60.0024001,55b78162fdf99b0416ce544e,64d2fd46c836a06233681665,64dc7c5f2ac0a69ca4696226,,,,,,,ctch,resources/DG.BMP,resources/DY.BMP,Door3,0.456883681,-0.073294271,1,0,0,1.1168,optionRight,70,15150,7,14,0,14,0,1,,,,,,,,,,,,,,,,,,,,,,,,,,,,,,,,,,,,,,,
,,,,,,,,2023-08-16_08h39.31.963,HF_wild_card,2022.2.4,MacIntel,60.0024001,55b78162fdf99b0416ce544e,64d2fd46c836a06233681665,64dc7c5f2ac0a69ca4696226,,,,,,,decisionTrl,resources/DP.BMP,resources/DG.BMP,Door2,0.332404514,-0.007226563,1,0,0,0.9641,optionRight,40,15190,7,15,0,15,0,1,,,,,,,,,,,,,,,,,,,,,,,,,,,,,,,,,,,,,,,
,,,,,,,,2023-08-16_08h39.31.963,HF_wild_card,2022.2.4,MacIntel,60.0024001,55b78162fdf99b0416ce544e,64d2fd46c836a06233681665,64dc7c5f2ac0a69ca4696226,,,,,,,decisionTrl,resources/DY.BMP,resources/DB.BMP,Door4,0.431019965,-0.047981771,1,0,0,0.8821,optionRight,60,15250,7,16,0,16,0,1,,,,,,,,,,,,,,,,,,,,,,,,,,,,,,,,,,,,,,,
,,,,,,,,2023-08-16_08h39.31.963,HF_wild_card,2022.2.4,MacIntel,60.0024001,55b78162fdf99b0416ce544e,64d2fd46c836a06233681665,64dc7c5f2ac0a69ca4696226,,,,,,,ctch,resources/DY.BMP,resources/DG.BMP,Door3,-0.338528646,-0.039952257,1,0,0,1.2342,optionLeft,70,15320,7,17,0,17,0,1,,,,,,,,,,,,,,,,,,,,,,,,,,,,,,,,,,,,,,,
,,,,,,,,2023-08-16_08h39.31.963,HF_wild_card,2022.2.4,MacIntel,60.0024001,55b78162fdf99b0416ce544e,64d2fd46c836a06233681665,64dc7c5f2ac0a69ca4696226,,,,,,,decisionTrl,resources/DB.BMP,resources/DY.BMP,Door4,-0.305902778,-0.017916667,1,0,0,1.2634,optionLeft,80,15400,7,18,0,18,0,1,,,,,,,,,,,,,,,,,,,,,,,,,,,,,,,,,,,,,,,
,,,,,,,,2023-08-16_08h39.31.963,HF_wild_card,2022.2.4,MacIntel,60.0024001,55b78162fdf99b0416ce544e,64d2fd46c836a06233681665,64dc7c5f2ac0a69ca4696226,,,,,,,decisionTrl,resources/DG.BMP,resources/DP.BMP,Door2,-0.318546007,-0.028667535,1,0,0,1.2472,optionLeft,20,15420,7,19,0,19,0,1,,,,,,,,,,,,,,,,,,,,,,,,,,,,,,,,,,,,,,,
,,,,,,,,2023-08-16_08h39.31.963,HF_wild_card,2022.2.4,MacIntel,60.0024001,55b78162fdf99b0416ce544e,64d2fd46c836a06233681665,64dc7c5f2ac0a69ca4696226,,,,,,,decisionTrl,resources/DP.BMP,resources/DG.BMP,Door2,0.3534375,-0.058085937,1,0,0,0.981,optionRight,20,15440,7,20,0,20,0,1,,,,,,,,,,,,,,,,,,,,,,,,,,,,,,,,,,,,,,,
,,,,,,,,2023-08-16_08h39.31.963,HF_wild_card,2022.2.4,MacIntel,60.0024001,55b78162fdf99b0416ce544e,64d2fd46c836a06233681665,64dc7c5f2ac0a69ca4696226,,,,,,,decisionTrl,resources/DB.BMP,resources/DY.BMP,Door4,-0.402916667,-0.033085938,1,0,0,1.4492,optionLeft,80,15520,7,21,0,21,0,1,,,,,,,,,,,,,,,,,,,,,,,,,,,,,,,,,,,,,,,
,,,,,,,,2023-08-16_08h39.31.963,HF_wild_card,2022.2.4,MacIntel,60.0024001,55b78162fdf99b0416ce544e,64d2fd46c836a06233681665,64dc7c5f2ac0a69ca4696226,,,,,,,decisionTrl,resources/DB.BMP,resources/DY.BMP,Door3,0.472105035,-0.080690104,1,0,0,0.8315,optionRight,70,15590,7,22,0,22,0,1,,,,,,,,,,,,,,,,,,,,,,,,,,,,,,,,,,,,,,,
,,,,,,,,2023-08-16_08h39.31.963,HF_wild_card,2022.2.4,MacIntel,60.0024001,55b78162fdf99b0416ce544e,64d2fd46c836a06233681665,64dc7c5f2ac0a69ca4696226,,,,,,,ctch,resources/DB.BMP,resources/DP.BMP,Door4,-0.354305556,-0.053732639,1,0,0,0.8653,optionLeft,80,15670,7,23,0,23,0,1,,,,,,,,,,,,,,,,,,,,,,,,,,,,,,,,,,,,,,,
,,,,,,,,2023-08-16_08h39.31.963,HF_wild_card,2022.2.4,MacIntel,60.0024001,55b78162fdf99b0416ce544e,64d2fd46c836a06233681665,64dc7c5f2ac0a69ca4696226,,,,,,,decisionTrl,resources/DG.BMP,resources/DP.BMP,Door2,-0.318320312,-0.055334201,1,0,0,1.0329,optionLeft,40,15710,7,24,0,24,0,1,,,,,,,,,,,,,,,,,,,,,,,,,,,,,,,,,,,,,,,
,,,,,,,,2023-08-16_08h39.31.963,HF_wild_card,2022.2.4,MacIntel,60.0024001,55b78162fdf99b0416ce544e,64d2fd46c836a06233681665,64dc7c5f2ac0a69ca4696226,,,,,,,decisionTrl,resources/DP.BMP,resources/DG.BMP,Door2,0.389466146,-0.010664062,1,0,0,1.0993,optionRight,20,15730,7,25,0,25,0,1,,,,,,,,,,,,,,,,,,,,,,,,,,,,,,,,,,,,,,,
,,,,,,,,2023-08-16_08h39.31.963,HF_wild_card,2022.2.4,MacIntel,60.0024001,55b78162fdf99b0416ce544e,64d2fd46c836a06233681665,64dc7c5f2ac0a69ca4696226,,,,,,,ctch,resources/DG.BMP,resources/DY.BMP,Door3,0.462430556,-0.052165799,1,0,0,2.3005,optionRight,70,15800,7,26,0,26,0,1,,,,,,,,,,,,,,,,,,,,,,,,,,,,,,,,,,,,,,,
,,,,,,,,2023-08-16_08h39.31.963,HF_wild_card,2022.2.4,MacIntel,60.0024001,55b78162fdf99b0416ce544e,64d2fd46c836a06233681665,64dc7c5f2ac0a69ca4696226,,,,,,,ctch,resources/DP.BMP,resources/DB.BMP,Door4,0.406931424,-0.069891493,1,0,0,0.9497,optionRight,60,15860,7,27,0,27,0,1,,,,,,,,,,,,,,,,,,,,,,,,,,,,,,,,,,,,,,,
,,,,,,,,2023-08-16_08h39.31.963,HF_wild_card,2022.2.4,MacIntel,60.0024001,55b78162fdf99b0416ce544e,64d2fd46c836a06233681665,64dc7c5f2ac0a69ca4696226,,,,,,,decisionTrl,resources/DP.BMP,resources/DG.BMP,Door2,0.450334201,-0.114592014,1,0,0,0.983,optionRight,20,15880,7,28,0,28,0,1,,,,,,,,,,,,,,,,,,,,,,,,,,,,,,,,,,,,,,,
,,,,,,,,2023-08-16_08h39.31.963,HF_wild_card,2022.2.4,MacIntel,60.0024001,55b78162fdf99b0416ce544e,64d2fd46c836a06233681665,64dc7c5f2ac0a69ca4696226,,,,,,,decisionTrl,resources/DB.BMP,resources/DY.BMP,Door4,-0.364652778,-0.062122396,1,0,0,1.1291,optionLeft,60,15940,7,29,0,29,0,1,,,,,,,,,,,,,,,,,,,,,,,,,,,,,,,,,,,,,,,
,,,,,,,,2023-08-16_08h39.31.963,HF_wild_card,2022.2.4,MacIntel,60.0024001,55b78162fdf99b0416ce544e,64d2fd46c836a06233681665,64dc7c5f2ac0a69ca4696226,,,,,,,decisionTrl,resources/DG.BMP,resources/DP.BMP,Door2,-0.317013889,-0.007595486,1,0,0,2.4466,optionLeft,40,15980,7,30,0,30,0,1,,,,,,,,,,,,,,,,,,,,,,,,,,,,,,,,,,,,,,,
,,,,,,,,2023-08-16_08h39.31.963,HF_wild_card,2022.2.4,MacIntel,60.0024001,55b78162fdf99b0416ce544e,64d2fd46c836a06233681665,64dc7c5f2ac0a69ca4696226,,,,,,,ctch,resources/DB.BMP,resources/DP.BMP,Door4,-0.344444444,-0.068676215,1,0,0,0.8797,optionLeft,60,16040,7,31,0,31,0,1,,,,,,,,,,,,,,,,,,,,,,,,,,,,,,,,,,,,,,,
,,,,,,,,2023-08-16_08h39.31.963,HF_wild_card,2022.2.4,MacIntel,60.0024001,55b78162fdf99b0416ce544e,64d2fd46c836a06233681665,64dc7c5f2ac0a69ca4696226,,,,,,,ctch,resources/DP.BMP,resources/DB.BMP,Door4,0.398576389,-0.057235243,1,0,0,0.9173,optionRight,60,16100,7,32,0,32,0,1,,,,,,,,,,,,,,,,,,,,,,,,,,,,,,,,,,,,,,,
,,,,,,,,2023-08-16_08h39.31.963,HF_wild_card,2022.2.4,MacIntel,60.0024001,55b78162fdf99b0416ce544e,64d2fd46c836a06233681665,64dc7c5f2ac0a69ca4696226,,,,,,,decisionTrl,resources/DG.BMP,resources/DP.BMP,Door2,-0.322999132,-0.068385417,1,0,0,1.0483,optionLeft,20,16120,7,33,0,33,0,1,,,,,,,,,,,,,,,,,,,,,,,,,,,,,,,,,,,,,,,
,,,,,,,,2023-08-16_08h39.31.963,HF_wild_card,2022.2.4,MacIntel,60.0024001,55b78162fdf99b0416ce544e,64d2fd46c836a06233681665,64dc7c5f2ac0a69ca4696226,,,,,,,decisionTrl,resources/DY.BMP,resources/DB.BMP,Door3,-0.393125,-0.076523437,1,0,0,0.9135,optionLeft,70,16190,7,34,0,34,0,1,,,,,,,,,,,,,,,,,,,,,,,,,,,,,,,,,,,,,,,
,,,,,,,,2023-08-16_08h39.31.963,HF_wild_card,2022.2.4,MacIntel,60.0024001,55b78162fdf99b0416ce544e,64d2fd46c836a06233681665,64dc7c5f2ac0a69ca4696226,,,,,,,ctch,resources/DP.BMP,resources/DB.BMP,Door4,0.449422743,-0.102894965,1,0,0,0.9495,optionRight,60,16250,7,35,0,35,0,1,,,,,,,,,,,,,,,,,,,,,,,,,,,,,,,,,,,,,,,
,,,,,,,,2023-08-16_08h39.31.963,HF_wild_card,2022.2.4,MacIntel,60.0024001,55b78162fdf99b0416ce544e,64d2fd46c836a06233681665,64dc7c5f2ac0a69ca4696226,,,,,,,,,,,,,,,,,,,,,,,,,,6,0,6,0,1,,,,,,,,,,,,,,,,,,,,,,,,,,,,,,,,,,
,,,,,,,,2023-08-16_08h39.31.963,HF_wild_card,2022.2.4,MacIntel,60.0024001,55b78162fdf99b0416ce544e,64d2fd46c836a06233681665,64dc7c5f2ac0a69ca4696226,,,,,,,,,,,,,,,,,,,,,,,,,,,,,,,4,,,,,,,,,,,,,,,,,,,,,,,,,,,,,,,,,
,,,,,,,,2023-08-16_08h39.31.963,HF_wild_card,2022.2.4,MacIntel,60.0024001,55b78162fdf99b0416ce544e,64d2fd46c836a06233681665,64dc7c5f2ac0a69ca4696226,,,,,,,,,,,,,,,,,,,,,,,,,,,,,,,,,,,,,,,,,,,,,,,,,,,,,,,,,,,,,,,,
,,,,,,,,2023-08-16_08h39.31.963,HF_wild_card,2022.2.4,MacIntel,60.0024001,55b78162fdf99b0416ce544e,64d2fd46c836a06233681665,64dc7c5f2ac0a69ca4696226,,,,,,,,,,,,,,,,,,,,,,,,,,,,,,,,80,Door4,resources/DB.BMP,0,0,0,0,1,,,,,,,,,,,,,,,,,,,,,,,,,
,,,,,,,,2023-08-16_08h39.31.963,HF_wild_card,2022.2.4,MacIntel,60.0024001,55b78162fdf99b0416ce544e,64d2fd46c836a06233681665,64dc7c5f2ac0a69ca4696226,,,,,,,,,,,,,,,,,,,,,,,,,,,,,,,,40,Door2,resources/DG.BMP,1,0,1,0,1,,,,,,,,,,,,,,,,,,,,,,,,,
,,,,,,,,2023-08-16_08h39.31.963,HF_wild_card,2022.2.4,MacIntel,60.0024001,55b78162fdf99b0416ce544e,64d2fd46c836a06233681665,64dc7c5f2ac0a69ca4696226,,,,,,,,,,,,,,,,,,,,,,,,,,,,,,,,5,WC_extreme,resources/DR.BMP,2,0,2,0,1,,,,,,,,,,,,,,,,,,,,,,,,,
,,,,,,,,2023-08-16_08h39.31.963,HF_wild_card,2022.2.4,MacIntel,60.0024001,55b78162fdf99b0416ce544e,64d2fd46c836a06233681665,64dc7c5f2ac0a69ca4696226,,,,,,,,,,,,,,,,,,,,,,,,,,,,,,,,70,Door3,resources/DY.BMP,3,0,3,0,1,,,,,,,,,,,,,,,,,,,,,,,,,
