Condition,Low fixed image (Door1),Low risky image (Door2),High fixed image (Door3),High risky image (Door4),NonExtreme Wild Card 1,NonExtreme Wild Card 2,,date,expName,psychopyVersion,OS,frameRate,PROLIFIC_PID,STUDY_ID,SESSION_ID,mouse_2.x,mouse_2.y,mouse_2.leftButton,mouse_2.midButton,mouse_2.rightButton,mouse_2.clicked_name,Trial Type,Left Option Image,Right Option Image,Chosen Door,mouse.x,mouse.y,mouse.leftButton,mouse.midButton,mouse.rightButton,mouse.time,mouse.clicked_name,Feedback,Cumulative Reward,Block,trial.thisRepN,trial.thisTrialN,trial.thisN,trial.thisIndex,trial.ran,blocks.thisRepN,blocks.thisTrialN,blocks.thisN,blocks.thisIndex,blocks.ran,Money conversion,First Outcome Reported,Shown Door (First Outcome),Displayed Image (First Outcome),outcomes.thisRepN,outcomes.thisTrialN,outcomes.thisN,outcomes.thisIndex,outcomes.ran,judgments.thisRepN,judgments.thisTrialN,judgments.thisN,judgments.thisIndex,judgments.ran,freqMouse.x,freqMouse.y,freqMouse.leftButton,freqMouse.midButton,freqMouse.rightButton,freqMouse.clicked_name,FQJ for first outcome,FQJ for second outcome,Shown Door,Displayed Image,trials.thisRepN,trials.thisTrialN,trials.thisN,trials.thisIndex,trials.ran,judgBlock.thisRepN,judgBlock.thisTrialN,judgBlock.thisN,judgBlock.thisIndex,judgBlock.ran
2,resources/DBN.BMP,resources/DR.BMP,resources/DB.BMP,resources/DY.BMP,resources/DP.BMP,resources/DG.BMP,,2023-08-16_08h41.57.651,HF_wild_card,2022.2.4,Win32,60.0240096,59f392ef9618dc0001d33a58,64d2fd46c836a06233681665,64dc7db8e8c79331eb2da865,,,,,,,,,,,,,,,,,,,,,,,,,,,,,,,,,,,,,,,,,,,,,,,,,,,,,,,,,,,,,,,,
,,,,,,,,2023-08-16_08h41.57.651,HF_wild_card,2022.2.4,Win32,60.0240096,59f392ef9618dc0001d33a58,64d2fd46c836a06233681665,64dc7db8e8c79331eb2da865,0.014322917,-0.419270833,1,0,0,agree,,,,,,,,,,,,,,,,,,,,,,,,,,,,,,,,,,,,,,,,,,,,,,,,,,,,,,,,,,
,,,,,,,,2023-08-16_08h41.57.651,HF_wild_card,2022.2.4,Win32,60.0240096,59f392ef9618dc0001d33a58,64d2fd46c836a06233681665,64dc7db8e8c79331eb2da865,,,,,,,,,,,,,,,,,,,,,,,,,,,,,,,,,,,,,,,,,,,,,,,,,,,,,,,,,,,,,,,,
,,,,,,,,2023-08-16_08h41.57.651,HF_wild_card,2022.2.4,Win32,60.0240096,59f392ef9618dc0001d33a58,64d2fd46c836a06233681665,64dc7db8e8c79331eb2da865,,,,,,,sngl,resources/DR.BMP,resources/Empty.png,Door2,-0.408854167,-0.059895833,1,0,0,1.961,optionLeft,40,40,1,0,0,0,0,1,,,,,,,,,,,,,,,,,,,,,,,,,,,,,,,,,,,,,,,
,,,,,,,,2023-08-16_08h41.57.651,HF_wild_card,2022.2.4,Win32,60.0240096,59f392ef9618dc0001d33a58,64d2fd46c836a06233681665,64dc7db8e8c79331eb2da865,,,,,,,ctch,resources/DB.BMP,resources/DR.BMP,Door3,-0.326822917,-0.018229167,1,0,0,2.575,optionLeft,70,110,1,1,0,1,0,1,,,,,,,,,,,,,,,,,,,,,,,,,,,,,,,,,,,,,,,
,,,,,,,,2023-08-16_08h41.57.651,HF_wild_card,2022.2.4,Win32,60.0240096,59f392ef9618dc0001d33a58,64d2fd46c836a06233681665,64dc7db8e8c79331eb2da865,,,,,,,sngl,resources/Empty.png,resources/DB.BMP,Door3,0.4140625,-0.026041667,1,0,0,0.955,optionRight,70,180,1,2,0,2,0,1,,,,,,,,,,,,,,,,,,,,,,,,,,,,,,,,,,,,,,,
,,,,,,,,2023-08-16_08h41.57.651,HF_wild_card,2022.2.4,Win32,60.0240096,59f392ef9618dc0001d33a58,64d2fd46c836a06233681665,64dc7db8e8c79331eb2da865,,,,,,,decisionTrl,resources/DR.BMP,resources/DBN.BMP,Door1,0.33203125,0.040364583,1,0,0,1.79,optionRight,30,210,1,3,0,3,0,1,,,,,,,,,,,,,,,,,,,,,,,,,,,,,,,,,,,,,,,
,,,,,,,,2023-08-16_08h41.57.651,HF_wild_card,2022.2.4,Win32,60.0240096,59f392ef9618dc0001d33a58,64d2fd46c836a06233681665,64dc7db8e8c79331eb2da865,,,,,,,decisionTrl,resources/DG.BMP,resources/DY.BMP,WildCard_NonEx,-0.291666667,-0.0078125,1,0,0,1.458,optionLeft,55,265,1,4,0,4,0,1,,,,,,,,,,,,,,,,,,,,,,,,,,,,,,,,,,,,,,,
,,,,,,,,2023-08-16_08h41.57.651,HF_wild_card,2022.2.4,Win32,60.0240096,59f392ef9618dc0001d33a58,64d2fd46c836a06233681665,64dc7db8e8c79331eb2da865,,,,,,,ctch,resources/DY.BMP,resources/DBN.BMP,Door4,-0.36328125,-0.026041667,1,0,0,1.058,optionLeft,80,345,1,5,0,5,0,1,,,,,,,,,,,,,,,,,,,,,,,,,,,,,,,,,,,,,,,
,,,,,,,,2023-08-16_08h41.57.651,HF_wild_card,2022.2.4,Win32,60.0240096,59f392ef9618dc0001d33a58,64d2fd46c836a06233681665,64dc7db8e8c79331eb2da865,,,,,,,ctch,resources/DBN.BMP,resources/DY.BMP,Door4,0.3046875,0.001302083,1,0,0,1.144,optionRight,60,405,1,6,0,6,0,1,,,,,,,,,,,,,,,,,,,,,,,,,,,,,,,,,,,,,,,
,,,,,,,,2023-08-16_08h41.57.651,HF_wild_card,2022.2.4,Win32,60.0240096,59f392ef9618dc0001d33a58,64d2fd46c836a06233681665,64dc7db8e8c79331eb2da865,,,,,,,sngl,resources/DG.BMP,resources/Empty.png,WildCard_NonEx,-0.264322917,-0.005208333,1,0,0,1.055,optionLeft,55,460,1,7,0,7,0,1,,,,,,,,,,,,,,,,,,,,,,,,,,,,,,,,,,,,,,,
,,,,,,,,2023-08-16_08h41.57.651,HF_wild_card,2022.2.4,Win32,60.0240096,59f392ef9618dc0001d33a58,64d2fd46c836a06233681665,64dc7db8e8c79331eb2da865,,,,,,,decisionTrl,resources/DY.BMP,resources/DB.BMP,Door3,0.259114583,0.00390625,1,0,0,1.774,optionRight,70,530,1,8,0,8,0,1,,,,,,,,,,,,,,,,,,,,,,,,,,,,,,,,,,,,,,,
,,,,,,,,2023-08-16_08h41.57.651,HF_wild_card,2022.2.4,Win32,60.0240096,59f392ef9618dc0001d33a58,64d2fd46c836a06233681665,64dc7db8e8c79331eb2da865,,,,,,,sngl,resources/Empty.png,resources/DR.BMP,Door2,0.359375,-0.009114583,1,0,0,1.122,optionRight,20,550,1,9,0,9,0,1,,,,,,,,,,,,,,,,,,,,,,,,,,,,,,,,,,,,,,,
,,,,,,,,2023-08-16_08h41.57.651,HF_wild_card,2022.2.4,Win32,60.0240096,59f392ef9618dc0001d33a58,64d2fd46c836a06233681665,64dc7db8e8c79331eb2da865,,,,,,,decisionTrl,resources/DBN.BMP,resources/DR.BMP,Door1,-0.380208333,-0.005208333,1,0,0,1.188,optionLeft,30,580,1,10,0,10,0,1,,,,,,,,,,,,,,,,,,,,,,,,,,,,,,,,,,,,,,,
,,,,,,,,2023-08-16_08h41.57.651,HF_wild_card,2022.2.4,Win32,60.0240096,59f392ef9618dc0001d33a58,64d2fd46c836a06233681665,64dc7db8e8c79331eb2da865,,,,,,,decisionTrl,resources/DG.BMP,resources/DB.BMP,Door3,0.2734375,0.00390625,1,0,0,1.425,optionRight,70,650,1,11,0,11,0,1,,,,,,,,,,,,,,,,,,,,,,,,,,,,,,,,,,,,,,,
,,,,,,,,2023-08-16_08h41.57.651,HF_wild_card,2022.2.4,Win32,60.0240096,59f392ef9618dc0001d33a58,64d2fd46c836a06233681665,64dc7db8e8c79331eb2da865,,,,,,,decisionTrl,resources/DG.BMP,resources/DR.BMP,Door2,0.236979167,0.010416667,1,0,0,1.275,optionRight,40,690,1,12,0,12,0,1,,,,,,,,,,,,,,,,,,,,,,,,,,,,,,,,,,,,,,,
,,,,,,,,2023-08-16_08h41.57.651,HF_wild_card,2022.2.4,Win32,60.0240096,59f392ef9618dc0001d33a58,64d2fd46c836a06233681665,64dc7db8e8c79331eb2da865,,,,,,,ctch,resources/DBN.BMP,resources/DY.BMP,Door4,0.265625,0.0078125,1,0,0,1.658,optionRight,80,770,1,13,0,13,0,1,,,,,,,,,,,,,,,,,,,,,,,,,,,,,,,,,,,,,,,
,,,,,,,,2023-08-16_08h41.57.651,HF_wild_card,2022.2.4,Win32,60.0240096,59f392ef9618dc0001d33a58,64d2fd46c836a06233681665,64dc7db8e8c79331eb2da865,,,,,,,decisionTrl,resources/DBN.BMP,resources/DR.BMP,Door2,0.25390625,0.01171875,1,0,0,1.693,optionRight,20,790,1,14,0,14,0,1,,,,,,,,,,,,,,,,,,,,,,,,,,,,,,,,,,,,,,,
,,,,,,,,2023-08-16_08h41.57.651,HF_wild_card,2022.2.4,Win32,60.0240096,59f392ef9618dc0001d33a58,64d2fd46c836a06233681665,64dc7db8e8c79331eb2da865,,,,,,,sngl,resources/Empty.png,resources/DY.BMP,Door4,0.34765625,0.002604167,1,0,0,0.808,optionRight,60,850,1,15,0,15,0,1,,,,,,,,,,,,,,,,,,,,,,,,,,,,,,,,,,,,,,,
,,,,,,,,2023-08-16_08h41.57.651,HF_wild_card,2022.2.4,Win32,60.0240096,59f392ef9618dc0001d33a58,64d2fd46c836a06233681665,64dc7db8e8c79331eb2da865,,,,,,,ctch,resources/DR.BMP,resources/DB.BMP,Door2,-0.34375,-0.009114583,1,0,0,1.277,optionLeft,20,870,1,16,0,16,0,1,,,,,,,,,,,,,,,,,,,,,,,,,,,,,,,,,,,,,,,
,,,,,,,,2023-08-16_08h41.57.651,HF_wild_card,2022.2.4,Win32,60.0240096,59f392ef9618dc0001d33a58,64d2fd46c836a06233681665,64dc7db8e8c79331eb2da865,,,,,,,ctch,resources/DR.BMP,resources/DB.BMP,Door3,0.270833333,0.015625,1,0,0,0.741,optionRight,70,940,1,17,0,17,0,1,,,,,,,,,,,,,,,,,,,,,,,,,,,,,,,,,,,,,,,
,,,,,,,,2023-08-16_08h41.57.651,HF_wild_card,2022.2.4,Win32,60.0240096,59f392ef9618dc0001d33a58,64d2fd46c836a06233681665,64dc7db8e8c79331eb2da865,,,,,,,decisionTrl,resources/DB.BMP,resources/DG.BMP,Door3,-0.283854167,-0.013020833,1,0,0,1.405,optionLeft,70,1010,1,18,0,18,0,1,,,,,,,,,,,,,,,,,,,,,,,,,,,,,,,,,,,,,,,
,,,,,,,,2023-08-16_08h41.57.651,HF_wild_card,2022.2.4,Win32,60.0240096,59f392ef9618dc0001d33a58,64d2fd46c836a06233681665,64dc7db8e8c79331eb2da865,,,,,,,sngl,resources/Empty.png,resources/DG.BMP,WildCard_NonEx,0.274739583,0.005208333,1,0,0,0.71,optionRight,55,1065,1,19,0,19,0,1,,,,,,,,,,,,,,,,,,,,,,,,,,,,,,,,,,,,,,,
,,,,,,,,2023-08-16_08h41.57.651,HF_wild_card,2022.2.4,Win32,60.0240096,59f392ef9618dc0001d33a58,64d2fd46c836a06233681665,64dc7db8e8c79331eb2da865,,,,,,,ctch,resources/DY.BMP,resources/DBN.BMP,Door1,0.34765625,0.036458333,1,0,0,1.344,optionRight,30,1095,1,20,0,20,0,1,,,,,,,,,,,,,,,,,,,,,,,,,,,,,,,,,,,,,,,
,,,,,,,,2023-08-16_08h41.57.651,HF_wild_card,2022.2.4,Win32,60.0240096,59f392ef9618dc0001d33a58,64d2fd46c836a06233681665,64dc7db8e8c79331eb2da865,,,,,,,decisionTrl,resources/DB.BMP,resources/DY.BMP,Door3,-0.291666667,-0.015625,1,0,0,1.376,optionLeft,70,1165,1,21,0,21,0,1,,,,,,,,,,,,,,,,,,,,,,,,,,,,,,,,,,,,,,,
,,,,,,,,2023-08-16_08h41.57.651,HF_wild_card,2022.2.4,Win32,60.0240096,59f392ef9618dc0001d33a58,64d2fd46c836a06233681665,64dc7db8e8c79331eb2da865,,,,,,,decisionTrl,resources/DR.BMP,resources/DG.BMP,Door2,-0.358072917,0.01953125,1,0,0,1.725,optionLeft,40,1205,1,22,0,22,0,1,,,,,,,,,,,,,,,,,,,,,,,,,,,,,,,,,,,,,,,
,,,,,,,,2023-08-16_08h41.57.651,HF_wild_card,2022.2.4,Win32,60.0240096,59f392ef9618dc0001d33a58,64d2fd46c836a06233681665,64dc7db8e8c79331eb2da865,,,,,,,sngl,resources/Empty.png,resources/DBN.BMP,Door1,0.334635417,0.0234375,1,0,0,0.792,optionRight,30,1235,1,23,0,23,0,1,,,,,,,,,,,,,,,,,,,,,,,,,,,,,,,,,,,,,,,
,,,,,,,,2023-08-16_08h41.57.651,HF_wild_card,2022.2.4,Win32,60.0240096,59f392ef9618dc0001d33a58,64d2fd46c836a06233681665,64dc7db8e8c79331eb2da865,,,,,,,decisionTrl,resources/DY.BMP,resources/DB.BMP,Door3,0.342447917,0.041666667,1,0,0,1.359,optionRight,70,1305,1,24,0,24,0,1,,,,,,,,,,,,,,,,,,,,,,,,,,,,,,,,,,,,,,,
,,,,,,,,2023-08-16_08h41.57.651,HF_wild_card,2022.2.4,Win32,60.0240096,59f392ef9618dc0001d33a58,64d2fd46c836a06233681665,64dc7db8e8c79331eb2da865,,,,,,,decisionTrl,resources/DR.BMP,resources/DBN.BMP,Door2,-0.317708333,-0.020833333,1,0,0,1.156,optionLeft,40,1345,1,25,0,25,0,1,,,,,,,,,,,,,,,,,,,,,,,,,,,,,,,,,,,,,,,
,,,,,,,,2023-08-16_08h41.57.651,HF_wild_card,2022.2.4,Win32,60.0240096,59f392ef9618dc0001d33a58,64d2fd46c836a06233681665,64dc7db8e8c79331eb2da865,,,,,,,sngl,resources/DG.BMP,resources/Empty.png,WildCard_NonEx,-0.279947917,-0.00390625,1,0,0,0.843,optionLeft,45,1390,1,26,0,26,0,1,,,,,,,,,,,,,,,,,,,,,,,,,,,,,,,,,,,,,,,
,,,,,,,,2023-08-16_08h41.57.651,HF_wild_card,2022.2.4,Win32,60.0240096,59f392ef9618dc0001d33a58,64d2fd46c836a06233681665,64dc7db8e8c79331eb2da865,,,,,,,decisionTrl,resources/DR.BMP,resources/DBN.BMP,Door2,-0.307291667,-0.015625,1,0,0,1.079,optionLeft,40,1430,1,27,0,27,0,1,,,,,,,,,,,,,,,,,,,,,,,,,,,,,,,,,,,,,,,
,,,,,,,,2023-08-16_08h41.57.651,HF_wild_card,2022.2.4,Win32,60.0240096,59f392ef9618dc0001d33a58,64d2fd46c836a06233681665,64dc7db8e8c79331eb2da865,,,,,,,decisionTrl,resources/DG.BMP,resources/DBN.BMP,WildCard_NonEx,-0.342447917,-0.010416667,1,0,0,1.142,optionLeft,55,1485,1,28,0,28,0,1,,,,,,,,,,,,,,,,,,,,,,,,,,,,,,,,,,,,,,,
,,,,,,,,2023-08-16_08h41.57.651,HF_wild_card,2022.2.4,Win32,60.0240096,59f392ef9618dc0001d33a58,64d2fd46c836a06233681665,64dc7db8e8c79331eb2da865,,,,,,,decisionTrl,resources/DB.BMP,resources/DY.BMP,Door3,-0.372395833,-0.018229167,1,0,0,1.091,optionLeft,70,1555,1,29,0,29,0,1,,,,,,,,,,,,,,,,,,,,,,,,,,,,,,,,,,,,,,,
,,,,,,,,2023-08-16_08h41.57.651,HF_wild_card,2022.2.4,Win32,60.0240096,59f392ef9618dc0001d33a58,64d2fd46c836a06233681665,64dc7db8e8c79331eb2da865,,,,,,,sngl,resources/DB.BMP,resources/Empty.png,Door3,-0.369791667,-0.03125,1,0,0,0.691,optionLeft,70,1625,1,30,0,30,0,1,,,,,,,,,,,,,,,,,,,,,,,,,,,,,,,,,,,,,,,
,,,,,,,,2023-08-16_08h41.57.651,HF_wild_card,2022.2.4,Win32,60.0240096,59f392ef9618dc0001d33a58,64d2fd46c836a06233681665,64dc7db8e8c79331eb2da865,,,,,,,decisionTrl,resources/DR.BMP,resources/DBN.BMP,Door2,-0.3359375,0.0078125,1,0,0,1.326,optionLeft,40,1665,1,31,0,31,0,1,,,,,,,,,,,,,,,,,,,,,,,,,,,,,,,,,,,,,,,
,,,,,,,,2023-08-16_08h41.57.651,HF_wild_card,2022.2.4,Win32,60.0240096,59f392ef9618dc0001d33a58,64d2fd46c836a06233681665,64dc7db8e8c79331eb2da865,,,,,,,decisionTrl,resources/DBN.BMP,resources/DG.BMP,WildCard_NonEx,0.346354167,0.048177083,1,0,0,1.273,optionRight,45,1710,1,32,0,32,0,1,,,,,,,,,,,,,,,,,,,,,,,,,,,,,,,,,,,,,,,
,,,,,,,,2023-08-16_08h41.57.651,HF_wild_card,2022.2.4,Win32,60.0240096,59f392ef9618dc0001d33a58,64d2fd46c836a06233681665,64dc7db8e8c79331eb2da865,,,,,,,sngl,resources/DY.BMP,resources/Empty.png,Door4,-0.3828125,-0.015625,1,0,0,0.807,optionLeft,80,1790,1,33,0,33,0,1,,,,,,,,,,,,,,,,,,,,,,,,,,,,,,,,,,,,,,,
,,,,,,,,2023-08-16_08h41.57.651,HF_wild_card,2022.2.4,Win32,60.0240096,59f392ef9618dc0001d33a58,64d2fd46c836a06233681665,64dc7db8e8c79331eb2da865,,,,,,,decisionTrl,resources/DY.BMP,resources/DB.BMP,Door3,0.317708333,0.01171875,1,0,0,0.924,optionRight,70,1860,1,34,0,34,0,1,,,,,,,,,,,,,,,,,,,,,,,,,,,,,,,,,,,,,,,
,,,,,,,,2023-08-16_08h41.57.651,HF_wild_card,2022.2.4,Win32,60.0240096,59f392ef9618dc0001d33a58,64d2fd46c836a06233681665,64dc7db8e8c79331eb2da865,,,,,,,ctch,resources/DB.BMP,resources/DR.BMP,Door3,-0.372395833,-0.01953125,1,0,0,1.058,optionLeft,70,1930,1,35,0,35,0,1,,,,,,,,,,,,,,,,,,,,,,,,,,,,,,,,,,,,,,,
,,,,,,,,2023-08-16_08h41.57.651,HF_wild_card,2022.2.4,Win32,60.0240096,59f392ef9618dc0001d33a58,64d2fd46c836a06233681665,64dc7db8e8c79331eb2da865,,,,,,,decisionTrl,resources/DBN.BMP,resources/DR.BMP,Door2,0.5703125,0.009114583,1,0,0,1.092,optionRight,20,1950,1,36,0,36,0,1,,,,,,,,,,,,,,,,,,,,,,,,,,,,,,,,,,,,,,,
,,,,,,,,2023-08-16_08h41.57.651,HF_wild_card,2022.2.4,Win32,60.0240096,59f392ef9618dc0001d33a58,64d2fd46c836a06233681665,64dc7db8e8c79331eb2da865,,,,,,,sngl,resources/DBN.BMP,resources/Empty.png,Door1,-0.38671875,0.022135417,1,0,0,0.842,optionLeft,30,1980,1,37,0,37,0,1,,,,,,,,,,,,,,,,,,,,,,,,,,,,,,,,,,,,,,,
,,,,,,,,2023-08-16_08h41.57.651,HF_wild_card,2022.2.4,Win32,60.0240096,59f392ef9618dc0001d33a58,64d2fd46c836a06233681665,64dc7db8e8c79331eb2da865,,,,,,,decisionTrl,resources/DB.BMP,resources/DY.BMP,Door3,-0.375,-0.03125,1,0,0,1.16,optionLeft,70,2050,1,38,0,38,0,1,,,,,,,,,,,,,,,,,,,,,,,,,,,,,,,,,,,,,,,
,,,,,,,,2023-08-16_08h41.57.651,HF_wild_card,2022.2.4,Win32,60.0240096,59f392ef9618dc0001d33a58,64d2fd46c836a06233681665,64dc7db8e8c79331eb2da865,,,,,,,sngl,resources/Empty.png,resources/DG.BMP,WildCard_NonEx,0.31640625,0.03515625,1,0,0,0.79,optionRight,45,2095,1,39,0,39,0,1,,,,,,,,,,,,,,,,,,,,,,,,,,,,,,,,,,,,,,,
,,,,,,,,2023-08-16_08h41.57.651,HF_wild_card,2022.2.4,Win32,60.0240096,59f392ef9618dc0001d33a58,64d2fd46c836a06233681665,64dc7db8e8c79331eb2da865,,,,,,,decisionTrl,resources/DB.BMP,resources/DY.BMP,Door3,-0.315104167,0.015625,1,0,0,1.426,optionLeft,70,2165,1,40,0,40,0,1,,,,,,,,,,,,,,,,,,,,,,,,,,,,,,,,,,,,,,,
,,,,,,,,2023-08-16_08h41.57.651,HF_wild_card,2022.2.4,Win32,60.0240096,59f392ef9618dc0001d33a58,64d2fd46c836a06233681665,64dc7db8e8c79331eb2da865,,,,,,,decisionTrl,resources/DBN.BMP,resources/DR.BMP,Door1,-0.307291667,0.013020833,1,0,0,1.047,optionLeft,30,2195,1,41,0,41,0,1,,,,,,,,,,,,,,,,,,,,,,,,,,,,,,,,,,,,,,,
,,,,,,,,2023-08-16_08h41.57.651,HF_wild_card,2022.2.4,Win32,60.0240096,59f392ef9618dc0001d33a58,64d2fd46c836a06233681665,64dc7db8e8c79331eb2da865,,,,,,,decisionTrl,resources/DY.BMP,resources/DG.BMP,Door4,-0.37109375,0.002604167,1,0,0,2.041,optionLeft,80,2275,1,42,0,42,0,1,,,,,,,,,,,,,,,,,,,,,,,,,,,,,,,,,,,,,,,
,,,,,,,,2023-08-16_08h41.57.651,HF_wild_card,2022.2.4,Win32,60.0240096,59f392ef9618dc0001d33a58,64d2fd46c836a06233681665,64dc7db8e8c79331eb2da865,,,,,,,decisionTrl,resources/DY.BMP,resources/DB.BMP,Door4,-0.290364583,0.001302083,1,0,0,1.025,optionLeft,60,2335,1,43,0,43,0,1,,,,,,,,,,,,,,,,,,,,,,,,,,,,,,,,,,,,,,,
,,,,,,,,2023-08-16_08h41.57.651,HF_wild_card,2022.2.4,Win32,60.0240096,59f392ef9618dc0001d33a58,64d2fd46c836a06233681665,64dc7db8e8c79331eb2da865,,,,,,,,,,,,,,,,,,,,,,,,,,0,0,0,0,1,,,,,,,,,,,,,,,,,,,,,,,,,,,,,,,,,,
,,,,,,,,2023-08-16_08h41.57.651,HF_wild_card,2022.2.4,Win32,60.0240096,59f392ef9618dc0001d33a58,64d2fd46c836a06233681665,64dc7db8e8c79331eb2da865,,,,,,,ctch,resources/DB.BMP,resources/DR.BMP,Door3,-0.40234375,-0.091145833,1,0,0,1.186,optionLeft,70,2405,2,0,0,0,0,1,,,,,,,,,,,,,,,,,,,,,,,,,,,,,,,,,,,,,,,
,,,,,,,,2023-08-16_08h41.57.651,HF_wild_card,2022.2.4,Win32,60.0240096,59f392ef9618dc0001d33a58,64d2fd46c836a06233681665,64dc7db8e8c79331eb2da865,,,,,,,decisionTrl,resources/DB.BMP,resources/DY.BMP,Door3,-0.416666667,0,1,0,0,1.508,optionLeft,70,2475,2,1,0,1,0,1,,,,,,,,,,,,,,,,,,,,,,,,,,,,,,,,,,,,,,,
,,,,,,,,2023-08-16_08h41.57.651,HF_wild_card,2022.2.4,Win32,60.0240096,59f392ef9618dc0001d33a58,64d2fd46c836a06233681665,64dc7db8e8c79331eb2da865,,,,,,,decisionTrl,resources/DY.BMP,resources/DB.BMP,Door3,0.311197917,0.016927083,1,0,0,0.943,optionRight,70,2545,2,2,0,2,0,1,,,,,,,,,,,,,,,,,,,,,,,,,,,,,,,,,,,,,,,
,,,,,,,,2023-08-16_08h41.57.651,HF_wild_card,2022.2.4,Win32,60.0240096,59f392ef9618dc0001d33a58,64d2fd46c836a06233681665,64dc7db8e8c79331eb2da865,,,,,,,decisionTrl,resources/DG.BMP,resources/DB.BMP,Door3,0.354166667,-0.01953125,1,0,0,1.428,optionRight,70,2615,2,3,0,3,0,1,,,,,,,,,,,,,,,,,,,,,,,,,,,,,,,,,,,,,,,
,,,,,,,,2023-08-16_08h41.57.651,HF_wild_card,2022.2.4,Win32,60.0240096,59f392ef9618dc0001d33a58,64d2fd46c836a06233681665,64dc7db8e8c79331eb2da865,,,,,,,sngl,resources/DG.BMP,resources/Empty.png,WildCard_NonEx,-0.3046875,-0.0078125,1,0,0,0.732,optionLeft,55,2670,2,4,0,4,0,1,,,,,,,,,,,,,,,,,,,,,,,,,,,,,,,,,,,,,,,
,,,,,,,,2023-08-16_08h41.57.651,HF_wild_card,2022.2.4,Win32,60.0240096,59f392ef9618dc0001d33a58,64d2fd46c836a06233681665,64dc7db8e8c79331eb2da865,,,,,,,decisionTrl,resources/DR.BMP,resources/DBN.BMP,Door1,0.329427083,0.0078125,1,0,0,1.839,optionRight,30,2700,2,5,0,5,0,1,,,,,,,,,,,,,,,,,,,,,,,,,,,,,,,,,,,,,,,
,,,,,,,,2023-08-16_08h41.57.651,HF_wild_card,2022.2.4,Win32,60.0240096,59f392ef9618dc0001d33a58,64d2fd46c836a06233681665,64dc7db8e8c79331eb2da865,,,,,,,decisionTrl,resources/DY.BMP,resources/DG.BMP,WildCard_NonEx,0.234375,0.009114583,1,0,0,2.523,optionRight,55,2755,2,6,0,6,0,1,,,,,,,,,,,,,,,,,,,,,,,,,,,,,,,,,,,,,,,
,,,,,,,,2023-08-16_08h41.57.651,HF_wild_card,2022.2.4,Win32,60.0240096,59f392ef9618dc0001d33a58,64d2fd46c836a06233681665,64dc7db8e8c79331eb2da865,,,,,,,decisionTrl,resources/DBN.BMP,resources/DR.BMP,Door1,-0.375,0.006510417,1,0,0,4.024,optionLeft,30,2785,2,7,0,7,0,1,,,,,,,,,,,,,,,,,,,,,,,,,,,,,,,,,,,,,,,
,,,,,,,,2023-08-16_08h41.57.651,HF_wild_card,2022.2.4,Win32,60.0240096,59f392ef9618dc0001d33a58,64d2fd46c836a06233681665,64dc7db8e8c79331eb2da865,,,,,,,decisionTrl,resources/DBN.BMP,resources/DR.BMP,Door1,-0.326822917,-0.013020833,1,0,0,1.125,optionLeft,30,2815,2,8,0,8,0,1,,,,,,,,,,,,,,,,,,,,,,,,,,,,,,,,,,,,,,,
,,,,,,,,2023-08-16_08h41.57.651,HF_wild_card,2022.2.4,Win32,60.0240096,59f392ef9618dc0001d33a58,64d2fd46c836a06233681665,64dc7db8e8c79331eb2da865,,,,,,,decisionTrl,resources/DG.BMP,resources/DBN.BMP,WildCard_NonEx,-0.37109375,-0.022135417,1,0,0,1.358,optionLeft,45,2860,2,9,0,9,0,1,,,,,,,,,,,,,,,,,,,,,,,,,,,,,,,,,,,,,,,
,,,,,,,,2023-08-16_08h41.57.651,HF_wild_card,2022.2.4,Win32,60.0240096,59f392ef9618dc0001d33a58,64d2fd46c836a06233681665,64dc7db8e8c79331eb2da865,,,,,,,decisionTrl,resources/DBN.BMP,resources/DR.BMP,Door1,-0.307291667,0.013020833,1,0,0,1.689,optionLeft,30,2890,2,10,0,10,0,1,,,,,,,,,,,,,,,,,,,,,,,,,,,,,,,,,,,,,,,
,,,,,,,,2023-08-16_08h41.57.651,HF_wild_card,2022.2.4,Win32,60.0240096,59f392ef9618dc0001d33a58,64d2fd46c836a06233681665,64dc7db8e8c79331eb2da865,,,,,,,ctch,resources/DR.BMP,resources/DB.BMP,Door3,0.359375,0.014322917,1,0,0,1.175,optionRight,70,2960,2,11,0,11,0,1,,,,,,,,,,,,,,,,,,,,,,,,,,,,,,,,,,,,,,,
,,,,,,,,2023-08-16_08h41.57.651,HF_wild_card,2022.2.4,Win32,60.0240096,59f392ef9618dc0001d33a58,64d2fd46c836a06233681665,64dc7db8e8c79331eb2da865,,,,,,,decisionTrl,resources/DR.BMP,resources/DBN.BMP,Door2,-0.346354167,-0.033854167,1,0,0,2.494,optionLeft,20,2980,2,12,0,12,0,1,,,,,,,,,,,,,,,,,,,,,,,,,,,,,,,,,,,,,,,
,,,,,,,,2023-08-16_08h41.57.651,HF_wild_card,2022.2.4,Win32,60.0240096,59f392ef9618dc0001d33a58,64d2fd46c836a06233681665,64dc7db8e8c79331eb2da865,,,,,,,sngl,resources/DG.BMP,resources/Empty.png,WildCard_NonEx,-0.32421875,-0.03515625,1,0,0,0.686,optionLeft,45,3025,2,13,0,13,0,1,,,,,,,,,,,,,,,,,,,,,,,,,,,,,,,,,,,,,,,
,,,,,,,,2023-08-16_08h41.57.651,HF_wild_card,2022.2.4,Win32,60.0240096,59f392ef9618dc0001d33a58,64d2fd46c836a06233681665,64dc7db8e8c79331eb2da865,,,,,,,ctch,resources/DR.BMP,resources/DB.BMP,Door3,0.286458333,0.010416667,1,0,0,0.857,optionRight,70,3095,2,14,0,14,0,1,,,,,,,,,,,,,,,,,,,,,,,,,,,,,,,,,,,,,,,
,,,,,,,,2023-08-16_08h41.57.651,HF_wild_card,2022.2.4,Win32,60.0240096,59f392ef9618dc0001d33a58,64d2fd46c836a06233681665,64dc7db8e8c79331eb2da865,,,,,,,ctch,resources/DBN.BMP,resources/DY.BMP,Door4,0.440104167,0.006510417,1,0,0,1.291,optionRight,80,3175,2,15,0,15,0,1,,,,,,,,,,,,,,,,,,,,,,,,,,,,,,,,,,,,,,,
,,,,,,,,2023-08-16_08h41.57.651,HF_wild_card,2022.2.4,Win32,60.0240096,59f392ef9618dc0001d33a58,64d2fd46c836a06233681665,64dc7db8e8c79331eb2da865,,,,,,,decisionTrl,resources/DR.BMP,resources/DG.BMP,WildCard_NonEx,0.4296875,0.015625,1,0,0,1.558,optionRight,55,3230,2,16,0,16,0,1,,,,,,,,,,,,,,,,,,,,,,,,,,,,,,,,,,,,,,,
,,,,,,,,2023-08-16_08h41.57.651,HF_wild_card,2022.2.4,Win32,60.0240096,59f392ef9618dc0001d33a58,64d2fd46c836a06233681665,64dc7db8e8c79331eb2da865,,,,,,,decisionTrl,resources/DR.BMP,resources/DBN.BMP,Door1,0.395833333,0.015625,1,0,0,1.375,optionRight,30,3260,2,17,0,17,0,1,,,,,,,,,,,,,,,,,,,,,,,,,,,,,,,,,,,,,,,
,,,,,,,,2023-08-16_08h41.57.651,HF_wild_card,2022.2.4,Win32,60.0240096,59f392ef9618dc0001d33a58,64d2fd46c836a06233681665,64dc7db8e8c79331eb2da865,,,,,,,ctch,resources/DY.BMP,resources/DBN.BMP,Door4,-0.42578125,-0.009114583,1,0,0,1.344,optionLeft,80,3340,2,18,0,18,0,1,,,,,,,,,,,,,,,,,,,,,,,,,,,,,,,,,,,,,,,
,,,,,,,,2023-08-16_08h41.57.651,HF_wild_card,2022.2.4,Win32,60.0240096,59f392ef9618dc0001d33a58,64d2fd46c836a06233681665,64dc7db8e8c79331eb2da865,,,,,,,decisionTrl,resources/DB.BMP,resources/DG.BMP,Door3,-0.3828125,-0.03125,1,0,0,1.092,optionLeft,70,3410,2,19,0,19,0,1,,,,,,,,,,,,,,,,,,,,,,,,,,,,,,,,,,,,,,,
,,,,,,,,2023-08-16_08h41.57.651,HF_wild_card,2022.2.4,Win32,60.0240096,59f392ef9618dc0001d33a58,64d2fd46c836a06233681665,64dc7db8e8c79331eb2da865,,,,,,,sngl,resources/Empty.png,resources/DB.BMP,Door3,0.397135417,0.018229167,1,0,0,0.724,optionRight,70,3480,2,20,0,20,0,1,,,,,,,,,,,,,,,,,,,,,,,,,,,,,,,,,,,,,,,
,,,,,,,,2023-08-16_08h41.57.651,HF_wild_card,2022.2.4,Win32,60.0240096,59f392ef9618dc0001d33a58,64d2fd46c836a06233681665,64dc7db8e8c79331eb2da865,,,,,,,decisionTrl,resources/DG.BMP,resources/DR.BMP,WildCard_NonEx,-0.342447917,-0.022135417,1,0,0,1.392,optionLeft,45,3525,2,21,0,21,0,1,,,,,,,,,,,,,,,,,,,,,,,,,,,,,,,,,,,,,,,
,,,,,,,,2023-08-16_08h41.57.651,HF_wild_card,2022.2.4,Win32,60.0240096,59f392ef9618dc0001d33a58,64d2fd46c836a06233681665,64dc7db8e8c79331eb2da865,,,,,,,decisionTrl,resources/DG.BMP,resources/DY.BMP,Door4,0.259114583,-0.006510417,1,0,0,1.793,optionRight,80,3605,2,22,0,22,0,1,,,,,,,,,,,,,,,,,,,,,,,,,,,,,,,,,,,,,,,
,,,,,,,,2023-08-16_08h41.57.651,HF_wild_card,2022.2.4,Win32,60.0240096,59f392ef9618dc0001d33a58,64d2fd46c836a06233681665,64dc7db8e8c79331eb2da865,,,,,,,decisionTrl,resources/DBN.BMP,resources/DR.BMP,Door1,-0.263020833,-0.010416667,1,0,0,1.323,optionLeft,30,3635,2,23,0,23,0,1,,,,,,,,,,,,,,,,,,,,,,,,,,,,,,,,,,,,,,,
,,,,,,,,2023-08-16_08h41.57.651,HF_wild_card,2022.2.4,Win32,60.0240096,59f392ef9618dc0001d33a58,64d2fd46c836a06233681665,64dc7db8e8c79331eb2da865,,,,,,,decisionTrl,resources/DY.BMP,resources/DB.BMP,Door4,-0.283854167,-0.009114583,1,0,0,1.324,optionLeft,80,3715,2,24,0,24,0,1,,,,,,,,,,,,,,,,,,,,,,,,,,,,,,,,,,,,,,,
,,,,,,,,2023-08-16_08h41.57.651,HF_wild_card,2022.2.4,Win32,60.0240096,59f392ef9618dc0001d33a58,64d2fd46c836a06233681665,64dc7db8e8c79331eb2da865,,,,,,,decisionTrl,resources/DY.BMP,resources/DB.BMP,Door4,-0.333333333,-0.005208333,1,0,0,0.957,optionLeft,80,3795,2,25,0,25,0,1,,,,,,,,,,,,,,,,,,,,,,,,,,,,,,,,,,,,,,,
,,,,,,,,2023-08-16_08h41.57.651,HF_wild_card,2022.2.4,Win32,60.0240096,59f392ef9618dc0001d33a58,64d2fd46c836a06233681665,64dc7db8e8c79331eb2da865,,,,,,,sngl,resources/Empty.png,resources/DBN.BMP,Door1,0.391927083,0.041666667,1,0,0,0.825,optionRight,30,3825,2,26,0,26,0,1,,,,,,,,,,,,,,,,,,,,,,,,,,,,,,,,,,,,,,,
,,,,,,,,2023-08-16_08h41.57.651,HF_wild_card,2022.2.4,Win32,60.0240096,59f392ef9618dc0001d33a58,64d2fd46c836a06233681665,64dc7db8e8c79331eb2da865,,,,,,,ctch,resources/DB.BMP,resources/DR.BMP,Door3,-0.325520833,-0.002604167,1,0,0,1.44,optionLeft,70,3895,2,27,0,27,0,1,,,,,,,,,,,,,,,,,,,,,,,,,,,,,,,,,,,,,,,
,,,,,,,,2023-08-16_08h41.57.651,HF_wild_card,2022.2.4,Win32,60.0240096,59f392ef9618dc0001d33a58,64d2fd46c836a06233681665,64dc7db8e8c79331eb2da865,,,,,,,ctch,resources/DY.BMP,resources/DBN.BMP,Door4,-0.372395833,-0.0390625,1,0,0,1.575,optionLeft,80,3975,2,28,0,28,0,1,,,,,,,,,,,,,,,,,,,,,,,,,,,,,,,,,,,,,,,
,,,,,,,,2023-08-16_08h41.57.651,HF_wild_card,2022.2.4,Win32,60.0240096,59f392ef9618dc0001d33a58,64d2fd46c836a06233681665,64dc7db8e8c79331eb2da865,,,,,,,sngl,resources/Empty.png,resources/DY.BMP,Door4,0.536458333,-0.04296875,1,0,0,1.307,optionRight,80,4055,2,29,0,29,0,1,,,,,,,,,,,,,,,,,,,,,,,,,,,,,,,,,,,,,,,
,,,,,,,,2023-08-16_08h41.57.651,HF_wild_card,2022.2.4,Win32,60.0240096,59f392ef9618dc0001d33a58,64d2fd46c836a06233681665,64dc7db8e8c79331eb2da865,,,,,,,decisionTrl,resources/DY.BMP,resources/DB.BMP,Door4,-0.299479167,-0.009114583,1,0,0,1.092,optionLeft,60,4115,2,30,0,30,0,1,,,,,,,,,,,,,,,,,,,,,,,,,,,,,,,,,,,,,,,
,,,,,,,,2023-08-16_08h41.57.651,HF_wild_card,2022.2.4,Win32,60.0240096,59f392ef9618dc0001d33a58,64d2fd46c836a06233681665,64dc7db8e8c79331eb2da865,,,,,,,decisionTrl,resources/DR.BMP,resources/DBN.BMP,Door1,0.447916667,0.015625,1,0,0,1.392,optionRight,30,4145,2,31,0,31,0,1,,,,,,,,,,,,,,,,,,,,,,,,,,,,,,,,,,,,,,,
,,,,,,,,2023-08-16_08h41.57.651,HF_wild_card,2022.2.4,Win32,60.0240096,59f392ef9618dc0001d33a58,64d2fd46c836a06233681665,64dc7db8e8c79331eb2da865,,,,,,,ctch,resources/DBN.BMP,resources/DY.BMP,Door4,0.569010417,0,1,0,0,1.326,optionRight,80,4225,2,32,0,32,0,1,,,,,,,,,,,,,,,,,,,,,,,,,,,,,,,,,,,,,,,
,,,,,,,,2023-08-16_08h41.57.651,HF_wild_card,2022.2.4,Win32,60.0240096,59f392ef9618dc0001d33a58,64d2fd46c836a06233681665,64dc7db8e8c79331eb2da865,,,,,,,sngl,resources/DR.BMP,resources/Empty.png,Door2,-0.298177083,-0.0234375,1,0,0,0.806,optionLeft,20,4245,2,33,0,33,0,1,,,,,,,,,,,,,,,,,,,,,,,,,,,,,,,,,,,,,,,
,,,,,,,,2023-08-16_08h41.57.651,HF_wild_card,2022.2.4,Win32,60.0240096,59f392ef9618dc0001d33a58,64d2fd46c836a06233681665,64dc7db8e8c79331eb2da865,,,,,,,sngl,resources/DB.BMP,resources/Empty.png,Door3,-0.33203125,0.00390625,1,0,0,0.724,optionLeft,70,4315,2,34,0,34,0,1,,,,,,,,,,,,,,,,,,,,,,,,,,,,,,,,,,,,,,,
,,,,,,,,2023-08-16_08h41.57.651,HF_wild_card,2022.2.4,Win32,60.0240096,59f392ef9618dc0001d33a58,64d2fd46c836a06233681665,64dc7db8e8c79331eb2da865,,,,,,,sngl,resources/DBN.BMP,resources/Empty.png,Door1,-0.274739583,0.002604167,1,0,0,0.757,optionLeft,30,4345,2,35,0,35,0,1,,,,,,,,,,,,,,,,,,,,,,,,,,,,,,,,,,,,,,,
,,,,,,,,2023-08-16_08h41.57.651,HF_wild_card,2022.2.4,Win32,60.0240096,59f392ef9618dc0001d33a58,64d2fd46c836a06233681665,64dc7db8e8c79331eb2da865,,,,,,,decisionTrl,resources/DBN.BMP,resources/DG.BMP,WildCard_NonEx,0.231770833,0.03125,1,0,0,1.391,optionRight,55,4400,2,36,0,36,0,1,,,,,,,,,,,,,,,,,,,,,,,,,,,,,,,,,,,,,,,
,,,,,,,,2023-08-16_08h41.57.651,HF_wild_card,2022.2.4,Win32,60.0240096,59f392ef9618dc0001d33a58,64d2fd46c836a06233681665,64dc7db8e8c79331eb2da865,,,,,,,decisionTrl,resources/DB.BMP,resources/DY.BMP,Door4,0.377604167,0.015625,1,0,0,1.309,optionRight,60,4460,2,37,0,37,0,1,,,,,,,,,,,,,,,,,,,,,,,,,,,,,,,,,,,,,,,
,,,,,,,,2023-08-16_08h41.57.651,HF_wild_card,2022.2.4,Win32,60.0240096,59f392ef9618dc0001d33a58,64d2fd46c836a06233681665,64dc7db8e8c79331eb2da865,,,,,,,sngl,resources/Empty.png,resources/DG.BMP,WildCard_NonEx,0.376302083,0.069010417,1,0,0,0.758,optionRight,45,4505,2,38,0,38,0,1,,,,,,,,,,,,,,,,,,,,,,,,,,,,,,,,,,,,,,,
,,,,,,,,2023-08-16_08h41.57.651,HF_wild_card,2022.2.4,Win32,60.0240096,59f392ef9618dc0001d33a58,64d2fd46c836a06233681665,64dc7db8e8c79331eb2da865,,,,,,,decisionTrl,resources/DB.BMP,resources/DY.BMP,Door3,-0.24609375,0.015625,1,0,0,0.74,optionLeft,70,4575,2,39,0,39,0,1,,,,,,,,,,,,,,,,,,,,,,,,,,,,,,,,,,,,,,,
,,,,,,,,2023-08-16_08h41.57.651,HF_wild_card,2022.2.4,Win32,60.0240096,59f392ef9618dc0001d33a58,64d2fd46c836a06233681665,64dc7db8e8c79331eb2da865,,,,,,,decisionTrl,resources/DB.BMP,resources/DY.BMP,Door3,-0.236979167,0.013020833,1,0,0,0.759,optionLeft,70,4645,2,40,0,40,0,1,,,,,,,,,,,,,,,,,,,,,,,,,,,,,,,,,,,,,,,
,,,,,,,,2023-08-16_08h41.57.651,HF_wild_card,2022.2.4,Win32,60.0240096,59f392ef9618dc0001d33a58,64d2fd46c836a06233681665,64dc7db8e8c79331eb2da865,,,,,,,sngl,resources/Empty.png,resources/DR.BMP,Door2,0.255208333,0.048177083,1,0,0,0.742,optionRight,40,4685,2,41,0,41,0,1,,,,,,,,,,,,,,,,,,,,,,,,,,,,,,,,,,,,,,,
,,,,,,,,2023-08-16_08h41.57.651,HF_wild_card,2022.2.4,Win32,60.0240096,59f392ef9618dc0001d33a58,64d2fd46c836a06233681665,64dc7db8e8c79331eb2da865,,,,,,,sngl,resources/DY.BMP,resources/Empty.png,Door4,-0.40234375,-0.001302083,1,0,0,1.076,optionLeft,60,4745,2,42,0,42,0,1,,,,,,,,,,,,,,,,,,,,,,,,,,,,,,,,,,,,,,,
,,,,,,,,2023-08-16_08h41.57.651,HF_wild_card,2022.2.4,Win32,60.0240096,59f392ef9618dc0001d33a58,64d2fd46c836a06233681665,64dc7db8e8c79331eb2da865,,,,,,,sngl,resources/Empty.png,resources/DG.BMP,WildCard_NonEx,0.424479167,0.046875,1,0,0,1.508,optionRight,55,4800,2,43,0,43,0,1,,,,,,,,,,,,,,,,,,,,,,,,,,,,,,,,,,,,,,,
,,,,,,,,2023-08-16_08h41.57.651,HF_wild_card,2022.2.4,Win32,60.0240096,59f392ef9618dc0001d33a58,64d2fd46c836a06233681665,64dc7db8e8c79331eb2da865,,,,,,,,,,,,,,,,,,,,,,,,,,1,0,1,0,1,,,,,,,,,,,,,,,,,,,,,,,,,,,,,,,,,,
,,,,,,,,2023-08-16_08h41.57.651,HF_wild_card,2022.2.4,Win32,60.0240096,59f392ef9618dc0001d33a58,64d2fd46c836a06233681665,64dc7db8e8c79331eb2da865,,,,,,,decisionTrl,resources/DR.BMP,resources/DBN.BMP,Door2,-0.260416667,-0.028645833,1,0,0,1.104,optionLeft,20,4820,3,0,0,0,0,1,,,,,,,,,,,,,,,,,,,,,,,,,,,,,,,,,,,,,,,
,,,,,,,,2023-08-16_08h41.57.651,HF_wild_card,2022.2.4,Win32,60.0240096,59f392ef9618dc0001d33a58,64d2fd46c836a06233681665,64dc7db8e8c79331eb2da865,,,,,,,ctch,resources/DB.BMP,resources/DR.BMP,Door3,-0.24609375,-0.001302083,1,0,0,1.006,optionLeft,70,4890,3,1,0,1,0,1,,,,,,,,,,,,,,,,,,,,,,,,,,,,,,,,,,,,,,,
,,,,,,,,2023-08-16_08h41.57.651,HF_wild_card,2022.2.4,Win32,60.0240096,59f392ef9618dc0001d33a58,64d2fd46c836a06233681665,64dc7db8e8c79331eb2da865,,,,,,,decisionTrl,resources/DY.BMP,resources/DG.BMP,Door4,-0.342447917,0.005208333,1,0,0,1.589,optionLeft,80,4970,3,2,0,2,0,1,,,,,,,,,,,,,,,,,,,,,,,,,,,,,,,,,,,,,,,
,,,,,,,,2023-08-16_08h41.57.651,HF_wild_card,2022.2.4,Win32,60.0240096,59f392ef9618dc0001d33a58,64d2fd46c836a06233681665,64dc7db8e8c79331eb2da865,,,,,,,decisionTrl,resources/DY.BMP,resources/DB.BMP,Door3,0.26953125,-0.0078125,1,0,0,1.042,optionRight,70,5040,3,3,0,3,0,1,,,,,,,,,,,,,,,,,,,,,,,,,,,,,,,,,,,,,,,
,,,,,,,,2023-08-16_08h41.57.651,HF_wild_card,2022.2.4,Win32,60.0240096,59f392ef9618dc0001d33a58,64d2fd46c836a06233681665,64dc7db8e8c79331eb2da865,,,,,,,decisionTrl,resources/DR.BMP,resources/DBN.BMP,Door1,0.299479167,0.0390625,1,0,0,1.342,optionRight,30,5070,3,4,0,4,0,1,,,,,,,,,,,,,,,,,,,,,,,,,,,,,,,,,,,,,,,
,,,,,,,,2023-08-16_08h41.57.651,HF_wild_card,2022.2.4,Win32,60.0240096,59f392ef9618dc0001d33a58,64d2fd46c836a06233681665,64dc7db8e8c79331eb2da865,,,,,,,sngl,resources/DBN.BMP,resources/Empty.png,Door1,-0.321614583,-0.001302083,1,0,0,0.708,optionLeft,30,5100,3,5,0,5,0,1,,,,,,,,,,,,,,,,,,,,,,,,,,,,,,,,,,,,,,,
,,,,,,,,2023-08-16_08h41.57.651,HF_wild_card,2022.2.4,Win32,60.0240096,59f392ef9618dc0001d33a58,64d2fd46c836a06233681665,64dc7db8e8c79331eb2da865,,,,,,,ctch,resources/DBN.BMP,resources/DY.BMP,Door4,0.299479167,0.013020833,1,0,0,1.311,optionRight,80,5180,3,6,0,6,0,1,,,,,,,,,,,,,,,,,,,,,,,,,,,,,,,,,,,,,,,
,,,,,,,,2023-08-16_08h41.57.651,HF_wild_card,2022.2.4,Win32,60.0240096,59f392ef9618dc0001d33a58,64d2fd46c836a06233681665,64dc7db8e8c79331eb2da865,,,,,,,sngl,resources/DR.BMP,resources/Empty.png,Door2,-0.415364583,-0.022135417,1,0,0,0.659,optionLeft,40,5220,3,7,0,7,0,1,,,,,,,,,,,,,,,,,,,,,,,,,,,,,,,,,,,,,,,
,,,,,,,,2023-08-16_08h41.57.651,HF_wild_card,2022.2.4,Win32,60.0240096,59f392ef9618dc0001d33a58,64d2fd46c836a06233681665,64dc7db8e8c79331eb2da865,,,,,,,sngl,resources/DB.BMP,resources/Empty.png,Door3,-0.337239583,-0.018229167,1,0,0,0.66,optionLeft,70,5290,3,8,0,8,0,1,,,,,,,,,,,,,,,,,,,,,,,,,,,,,,,,,,,,,,,
,,,,,,,,2023-08-16_08h41.57.651,HF_wild_card,2022.2.4,Win32,60.0240096,59f392ef9618dc0001d33a58,64d2fd46c836a06233681665,64dc7db8e8c79331eb2da865,,,,,,,ctch,resources/DR.BMP,resources/DB.BMP,Door3,0.307291667,-0.005208333,1,0,0,1.425,optionRight,70,5360,3,9,0,9,0,1,,,,,,,,,,,,,,,,,,,,,,,,,,,,,,,,,,,,,,,
,,,,,,,,2023-08-16_08h41.57.651,HF_wild_card,2022.2.4,Win32,60.0240096,59f392ef9618dc0001d33a58,64d2fd46c836a06233681665,64dc7db8e8c79331eb2da865,,,,,,,sngl,resources/Empty.png,resources/DBN.BMP,Door1,0.348958333,0.037760417,1,0,0,0.742,optionRight,30,5390,3,10,0,10,0,1,,,,,,,,,,,,,,,,,,,,,,,,,,,,,,,,,,,,,,,
,,,,,,,,2023-08-16_08h41.57.651,HF_wild_card,2022.2.4,Win32,60.0240096,59f392ef9618dc0001d33a58,64d2fd46c836a06233681665,64dc7db8e8c79331eb2da865,,,,,,,decisionTrl,resources/DBN.BMP,resources/DR.BMP,Door2,0.309895833,0.006510417,1,0,0,1.553,optionRight,40,5430,3,11,0,11,0,1,,,,,,,,,,,,,,,,,,,,,,,,,,,,,,,,,,,,,,,
,,,,,,,,2023-08-16_08h41.57.651,HF_wild_card,2022.2.4,Win32,60.0240096,59f392ef9618dc0001d33a58,64d2fd46c836a06233681665,64dc7db8e8c79331eb2da865,,,,,,,decisionTrl,resources/DG.BMP,resources/DB.BMP,Door3,0.251302083,0.033854167,1,0,0,1.823,optionRight,70,5500,3,12,0,12,0,1,,,,,,,,,,,,,,,,,,,,,,,,,,,,,,,,,,,,,,,
,,,,,,,,2023-08-16_08h41.57.651,HF_wild_card,2022.2.4,Win32,60.0240096,59f392ef9618dc0001d33a58,64d2fd46c836a06233681665,64dc7db8e8c79331eb2da865,,,,,,,decisionTrl,resources/DBN.BMP,resources/DR.BMP,Door1,-0.19921875,-0.0078125,1,0,0,1.706,optionLeft,30,5530,3,13,0,13,0,1,,,,,,,,,,,,,,,,,,,,,,,,,,,,,,,,,,,,,,,
,,,,,,,,2023-08-16_08h41.57.651,HF_wild_card,2022.2.4,Win32,60.0240096,59f392ef9618dc0001d33a58,64d2fd46c836a06233681665,64dc7db8e8c79331eb2da865,,,,,,,decisionTrl,resources/DB.BMP,resources/DY.BMP,Door3,-0.30078125,-0.022135417,1,0,0,4.094,optionLeft,70,5600,3,14,0,14,0,1,,,,,,,,,,,,,,,,,,,,,,,,,,,,,,,,,,,,,,,
,,,,,,,,2023-08-16_08h41.57.651,HF_wild_card,2022.2.4,Win32,60.0240096,59f392ef9618dc0001d33a58,64d2fd46c836a06233681665,64dc7db8e8c79331eb2da865,,,,,,,sngl,resources/Empty.png,resources/DB.BMP,Door3,0.388020833,0.010416667,1,0,0,0.607,optionRight,70,5670,3,15,0,15,0,1,,,,,,,,,,,,,,,,,,,,,,,,,,,,,,,,,,,,,,,
,,,,,,,,2023-08-16_08h41.57.651,HF_wild_card,2022.2.4,Win32,60.0240096,59f392ef9618dc0001d33a58,64d2fd46c836a06233681665,64dc7db8e8c79331eb2da865,,,,,,,decisionTrl,resources/DY.BMP,resources/DB.BMP,Door3,0.169270833,-0.00390625,1,0,0,1.013,optionRight,70,5740,3,16,0,16,0,1,,,,,,,,,,,,,,,,,,,,,,,,,,,,,,,,,,,,,,,
,,,,,,,,2023-08-16_08h41.57.651,HF_wild_card,2022.2.4,Win32,60.0240096,59f392ef9618dc0001d33a58,64d2fd46c836a06233681665,64dc7db8e8c79331eb2da865,,,,,,,decisionTrl,resources/DY.BMP,resources/DB.BMP,Door3,0.23828125,0.005208333,1,0,0,0.894,optionRight,70,5810,3,17,0,17,0,1,,,,,,,,,,,,,,,,,,,,,,,,,,,,,,,,,,,,,,,
,,,,,,,,2023-08-16_08h41.57.651,HF_wild_card,2022.2.4,Win32,60.0240096,59f392ef9618dc0001d33a58,64d2fd46c836a06233681665,64dc7db8e8c79331eb2da865,,,,,,,ctch,resources/DY.BMP,resources/DBN.BMP,Door4,-0.26171875,-0.015625,1,0,0,1.242,optionLeft,80,5890,3,18,0,18,0,1,,,,,,,,,,,,,,,,,,,,,,,,,,,,,,,,,,,,,,,
,,,,,,,,2023-08-16_08h41.57.651,HF_wild_card,2022.2.4,Win32,60.0240096,59f392ef9618dc0001d33a58,64d2fd46c836a06233681665,64dc7db8e8c79331eb2da865,,,,,,,sngl,resources/Empty.png,resources/DY.BMP,Door4,0.23828125,0.015625,1,0,0,0.66,optionRight,60,5950,3,19,0,19,0,1,,,,,,,,,,,,,,,,,,,,,,,,,,,,,,,,,,,,,,,
,,,,,,,,2023-08-16_08h41.57.651,HF_wild_card,2022.2.4,Win32,60.0240096,59f392ef9618dc0001d33a58,64d2fd46c836a06233681665,64dc7db8e8c79331eb2da865,,,,,,,decisionTrl,resources/DY.BMP,resources/DB.BMP,Door3,0.32421875,0.01171875,1,0,0,0.926,optionRight,70,6020,3,20,0,20,0,1,,,,,,,,,,,,,,,,,,,,,,,,,,,,,,,,,,,,,,,
,,,,,,,,2023-08-16_08h41.57.651,HF_wild_card,2022.2.4,Win32,60.0240096,59f392ef9618dc0001d33a58,64d2fd46c836a06233681665,64dc7db8e8c79331eb2da865,,,,,,,decisionTrl,resources/DBN.BMP,resources/DR.BMP,Door2,0.364583333,-0.002604167,1,0,0,1.267,optionRight,40,6060,3,21,0,21,0,1,,,,,,,,,,,,,,,,,,,,,,,,,,,,,,,,,,,,,,,
,,,,,,,,2023-08-16_08h41.57.651,HF_wild_card,2022.2.4,Win32,60.0240096,59f392ef9618dc0001d33a58,64d2fd46c836a06233681665,64dc7db8e8c79331eb2da865,,,,,,,ctch,resources/DBN.BMP,resources/DY.BMP,Door4,0.294270833,0.020833333,1,0,0,1.209,optionRight,60,6120,3,22,0,22,0,1,,,,,,,,,,,,,,,,,,,,,,,,,,,,,,,,,,,,,,,
,,,,,,,,2023-08-16_08h41.57.651,HF_wild_card,2022.2.4,Win32,60.0240096,59f392ef9618dc0001d33a58,64d2fd46c836a06233681665,64dc7db8e8c79331eb2da865,,,,,,,decisionTrl,resources/DB.BMP,resources/DY.BMP,Door3,-0.25,-0.013020833,1,0,0,1.509,optionLeft,70,6190,3,23,0,23,0,1,,,,,,,,,,,,,,,,,,,,,,,,,,,,,,,,,,,,,,,
,,,,,,,,2023-08-16_08h41.57.651,HF_wild_card,2022.2.4,Win32,60.0240096,59f392ef9618dc0001d33a58,64d2fd46c836a06233681665,64dc7db8e8c79331eb2da865,,,,,,,ctch,resources/DR.BMP,resources/DB.BMP,Door3,0.279947917,0.005208333,1,0,0,1.455,optionRight,70,6260,3,24,0,24,0,1,,,,,,,,,,,,,,,,,,,,,,,,,,,,,,,,,,,,,,,
,,,,,,,,2023-08-16_08h41.57.651,HF_wild_card,2022.2.4,Win32,60.0240096,59f392ef9618dc0001d33a58,64d2fd46c836a06233681665,64dc7db8e8c79331eb2da865,,,,,,,decisionTrl,resources/DBN.BMP,resources/DG.BMP,WildCard_NonEx,0.34765625,0.015625,1,0,0,1.211,optionRight,45,6305,3,25,0,25,0,1,,,,,,,,,,,,,,,,,,,,,,,,,,,,,,,,,,,,,,,
,,,,,,,,2023-08-16_08h41.57.651,HF_wild_card,2022.2.4,Win32,60.0240096,59f392ef9618dc0001d33a58,64d2fd46c836a06233681665,64dc7db8e8c79331eb2da865,,,,,,,ctch,resources/DY.BMP,resources/DBN.BMP,Door4,-0.194010417,-0.029947917,1,0,0,1.424,optionLeft,80,6385,3,26,0,26,0,1,,,,,,,,,,,,,,,,,,,,,,,,,,,,,,,,,,,,,,,
,,,,,,,,2023-08-16_08h41.57.651,HF_wild_card,2022.2.4,Win32,60.0240096,59f392ef9618dc0001d33a58,64d2fd46c836a06233681665,64dc7db8e8c79331eb2da865,,,,,,,decisionTrl,resources/DG.BMP,resources/DBN.BMP,WildCard_NonEx,-0.313802083,0.005208333,1,0,0,1.359,optionLeft,55,6440,3,27,0,27,0,1,,,,,,,,,,,,,,,,,,,,,,,,,,,,,,,,,,,,,,,
,,,,,,,,2023-08-16_08h41.57.651,HF_wild_card,2022.2.4,Win32,60.0240096,59f392ef9618dc0001d33a58,64d2fd46c836a06233681665,64dc7db8e8c79331eb2da865,,,,,,,decisionTrl,resources/DR.BMP,resources/DBN.BMP,Door2,-0.44921875,0.02734375,1,0,0,2.141,optionLeft,20,6460,3,28,0,28,0,1,,,,,,,,,,,,,,,,,,,,,,,,,,,,,,,,,,,,,,,
,,,,,,,,2023-08-16_08h41.57.651,HF_wild_card,2022.2.4,Win32,60.0240096,59f392ef9618dc0001d33a58,64d2fd46c836a06233681665,64dc7db8e8c79331eb2da865,,,,,,,sngl,resources/DY.BMP,resources/Empty.png,Door4,-0.307291667,0.006510417,1,0,0,0.642,optionLeft,80,6540,3,29,0,29,0,1,,,,,,,,,,,,,,,,,,,,,,,,,,,,,,,,,,,,,,,
,,,,,,,,2023-08-16_08h41.57.651,HF_wild_card,2022.2.4,Win32,60.0240096,59f392ef9618dc0001d33a58,64d2fd46c836a06233681665,64dc7db8e8c79331eb2da865,,,,,,,decisionTrl,resources/DB.BMP,resources/DY.BMP,Door3,-0.279947917,-0.00390625,1,0,0,1.208,optionLeft,70,6610,3,30,0,30,0,1,,,,,,,,,,,,,,,,,,,,,,,,,,,,,,,,,,,,,,,
,,,,,,,,2023-08-16_08h41.57.651,HF_wild_card,2022.2.4,Win32,60.0240096,59f392ef9618dc0001d33a58,64d2fd46c836a06233681665,64dc7db8e8c79331eb2da865,,,,,,,decisionTrl,resources/DR.BMP,resources/DG.BMP,WildCard_NonEx,0.369791667,0.033854167,1,0,0,1.241,optionRight,55,6665,3,31,0,31,0,1,,,,,,,,,,,,,,,,,,,,,,,,,,,,,,,,,,,,,,,
,,,,,,,,2023-08-16_08h41.57.651,HF_wild_card,2022.2.4,Win32,60.0240096,59f392ef9618dc0001d33a58,64d2fd46c836a06233681665,64dc7db8e8c79331eb2da865,,,,,,,decisionTrl,resources/DG.BMP,resources/DR.BMP,WildCard_NonEx,-0.325520833,0.006510417,1,0,0,1.137,optionLeft,55,6720,3,32,0,32,0,1,,,,,,,,,,,,,,,,,,,,,,,,,,,,,,,,,,,,,,,
,,,,,,,,2023-08-16_08h41.57.651,HF_wild_card,2022.2.4,Win32,60.0240096,59f392ef9618dc0001d33a58,64d2fd46c836a06233681665,64dc7db8e8c79331eb2da865,,,,,,,decisionTrl,resources/DR.BMP,resources/DBN.BMP,Door2,-0.352864583,-0.013020833,1,0,0,1.739,optionLeft,40,6760,3,33,0,33,0,1,,,,,,,,,,,,,,,,,,,,,,,,,,,,,,,,,,,,,,,
,,,,,,,,2023-08-16_08h41.57.651,HF_wild_card,2022.2.4,Win32,60.0240096,59f392ef9618dc0001d33a58,64d2fd46c836a06233681665,64dc7db8e8c79331eb2da865,,,,,,,sngl,resources/Empty.png,resources/DG.BMP,WildCard_NonEx,0.321614583,0.029947917,1,0,0,0.692,optionRight,55,6815,3,34,0,34,0,1,,,,,,,,,,,,,,,,,,,,,,,,,,,,,,,,,,,,,,,
,,,,,,,,2023-08-16_08h41.57.651,HF_wild_card,2022.2.4,Win32,60.0240096,59f392ef9618dc0001d33a58,64d2fd46c836a06233681665,64dc7db8e8c79331eb2da865,,,,,,,decisionTrl,resources/DBN.BMP,resources/DR.BMP,Door2,0.294270833,0,1,0,0,1.276,optionRight,20,6835,3,35,0,35,0,1,,,,,,,,,,,,,,,,,,,,,,,,,,,,,,,,,,,,,,,
,,,,,,,,2023-08-16_08h41.57.651,HF_wild_card,2022.2.4,Win32,60.0240096,59f392ef9618dc0001d33a58,64d2fd46c836a06233681665,64dc7db8e8c79331eb2da865,,,,,,,decisionTrl,resources/DG.BMP,resources/DY.BMP,Door4,0.279947917,0.002604167,1,0,0,1.258,optionRight,60,6895,3,36,0,36,0,1,,,,,,,,,,,,,,,,,,,,,,,,,,,,,,,,,,,,,,,
,,,,,,,,2023-08-16_08h41.57.651,HF_wild_card,2022.2.4,Win32,60.0240096,59f392ef9618dc0001d33a58,64d2fd46c836a06233681665,64dc7db8e8c79331eb2da865,,,,,,,sngl,resources/Empty.png,resources/DG.BMP,WildCard_NonEx,0.3515625,0.026041667,1,0,0,0.675,optionRight,45,6940,3,37,0,37,0,1,,,,,,,,,,,,,,,,,,,,,,,,,,,,,,,,,,,,,,,
,,,,,,,,2023-08-16_08h41.57.651,HF_wild_card,2022.2.4,Win32,60.0240096,59f392ef9618dc0001d33a58,64d2fd46c836a06233681665,64dc7db8e8c79331eb2da865,,,,,,,sngl,resources/Empty.png,resources/DR.BMP,Door2,0.32421875,0.024739583,1,0,0,0.664,optionRight,20,6960,3,38,0,38,0,1,,,,,,,,,,,,,,,,,,,,,,,,,,,,,,,,,,,,,,,
,,,,,,,,2023-08-16_08h41.57.651,HF_wild_card,2022.2.4,Win32,60.0240096,59f392ef9618dc0001d33a58,64d2fd46c836a06233681665,64dc7db8e8c79331eb2da865,,,,,,,sngl,resources/DG.BMP,resources/Empty.png,WildCard_NonEx,-0.322916667,0.0078125,1,0,0,0.774,optionLeft,55,7015,3,39,0,39,0,1,,,,,,,,,,,,,,,,,,,,,,,,,,,,,,,,,,,,,,,
,,,,,,,,2023-08-16_08h41.57.651,HF_wild_card,2022.2.4,Win32,60.0240096,59f392ef9618dc0001d33a58,64d2fd46c836a06233681665,64dc7db8e8c79331eb2da865,,,,,,,decisionTrl,resources/DB.BMP,resources/DY.BMP,Door3,-0.359375,-0.024739583,1,0,0,2.208,optionLeft,70,7085,3,40,0,40,0,1,,,,,,,,,,,,,,,,,,,,,,,,,,,,,,,,,,,,,,,
,,,,,,,,2023-08-16_08h41.57.651,HF_wild_card,2022.2.4,Win32,60.0240096,59f392ef9618dc0001d33a58,64d2fd46c836a06233681665,64dc7db8e8c79331eb2da865,,,,,,,decisionTrl,resources/DB.BMP,resources/DG.BMP,Door3,-0.493489583,-0.0078125,1,0,0,1.154,optionLeft,70,7155,3,41,0,41,0,1,,,,,,,,,,,,,,,,,,,,,,,,,,,,,,,,,,,,,,,
,,,,,,,,2023-08-16_08h41.57.651,HF_wild_card,2022.2.4,Win32,60.0240096,59f392ef9618dc0001d33a58,64d2fd46c836a06233681665,64dc7db8e8c79331eb2da865,,,,,,,ctch,resources/DB.BMP,resources/DR.BMP,Door3,-0.354166667,-0.026041667,1,0,0,2.157,optionLeft,70,7225,3,42,0,42,0,1,,,,,,,,,,,,,,,,,,,,,,,,,,,,,,,,,,,,,,,
,,,,,,,,2023-08-16_08h41.57.651,HF_wild_card,2022.2.4,Win32,60.0240096,59f392ef9618dc0001d33a58,64d2fd46c836a06233681665,64dc7db8e8c79331eb2da865,,,,,,,sngl,resources/DG.BMP,resources/Empty.png,WildCard_NonEx,-0.286458333,-0.00390625,1,0,0,0.724,optionLeft,45,7270,3,43,0,43,0,1,,,,,,,,,,,,,,,,,,,,,,,,,,,,,,,,,,,,,,,
,,,,,,,,2023-08-16_08h41.57.651,HF_wild_card,2022.2.4,Win32,60.0240096,59f392ef9618dc0001d33a58,64d2fd46c836a06233681665,64dc7db8e8c79331eb2da865,,,,,,,,,,,,,,,,,,,,,,,,,,2,0,2,0,1,,,,,,,,,,,,,,,,,,,,,,,,,,,,,,,,,,
,,,,,,,,2023-08-16_08h41.57.651,HF_wild_card,2022.2.4,Win32,60.0240096,59f392ef9618dc0001d33a58,64d2fd46c836a06233681665,64dc7db8e8c79331eb2da865,,,,,,,ctch,resources/DB.BMP,resources/DR.BMP,Door3,-0.356770833,-0.09765625,1,0,0,0.903,optionLeft,70,7340,4,0,0,0,0,1,,,,,,,,,,,,,,,,,,,,,,,,,,,,,,,,,,,,,,,
,,,,,,,,2023-08-16_08h41.57.651,HF_wild_card,2022.2.4,Win32,60.0240096,59f392ef9618dc0001d33a58,64d2fd46c836a06233681665,64dc7db8e8c79331eb2da865,,,,,,,ctch,resources/DR.BMP,resources/DB.BMP,Door3,0.290364583,-0.006510417,1,0,0,1.075,optionRight,70,7410,4,1,0,1,0,1,,,,,,,,,,,,,,,,,,,,,,,,,,,,,,,,,,,,,,,
,,,,,,,,2023-08-16_08h41.57.651,HF_wild_card,2022.2.4,Win32,60.0240096,59f392ef9618dc0001d33a58,64d2fd46c836a06233681665,64dc7db8e8c79331eb2da865,,,,,,,ctch,resources/DY.BMP,resources/DBN.BMP,Door4,-0.239583333,-0.024739583,1,0,0,1.289,optionLeft,80,7490,4,2,0,2,0,1,,,,,,,,,,,,,,,,,,,,,,,,,,,,,,,,,,,,,,,
,,,,,,,,2023-08-16_08h41.57.651,HF_wild_card,2022.2.4,Win32,60.0240096,59f392ef9618dc0001d33a58,64d2fd46c836a06233681665,64dc7db8e8c79331eb2da865,,,,,,,decisionTrl,resources/DP.BMP,resources/DBN.BMP,WildCard_Ex,-0.330729167,-0.028645833,1,0,0,1.774,optionLeft,45,7535,4,3,0,3,0,1,,,,,,,,,,,,,,,,,,,,,,,,,,,,,,,,,,,,,,,
,,,,,,,,2023-08-16_08h41.57.651,HF_wild_card,2022.2.4,Win32,60.0240096,59f392ef9618dc0001d33a58,64d2fd46c836a06233681665,64dc7db8e8c79331eb2da865,,,,,,,decisionTrl,resources/DR.BMP,resources/DBN.BMP,Door2,-0.326822917,0.001302083,1,0,0,1.272,optionLeft,20,7555,4,4,0,4,0,1,,,,,,,,,,,,,,,,,,,,,,,,,,,,,,,,,,,,,,,
,,,,,,,,2023-08-16_08h41.57.651,HF_wild_card,2022.2.4,Win32,60.0240096,59f392ef9618dc0001d33a58,64d2fd46c836a06233681665,64dc7db8e8c79331eb2da865,,,,,,,sngl,resources/Empty.png,resources/DP.BMP,WildCard_Ex,0.283854167,0,1,0,0,0.708,optionRight,45,7600,4,5,0,5,0,1,,,,,,,,,,,,,,,,,,,,,,,,,,,,,,,,,,,,,,,
,,,,,,,,2023-08-16_08h41.57.651,HF_wild_card,2022.2.4,Win32,60.0240096,59f392ef9618dc0001d33a58,64d2fd46c836a06233681665,64dc7db8e8c79331eb2da865,,,,,,,sngl,resources/Empty.png,resources/DBN.BMP,Door1,0.26171875,0.015625,1,0,0,0.727,optionRight,30,7630,4,6,0,6,0,1,,,,,,,,,,,,,,,,,,,,,,,,,,,,,,,,,,,,,,,
,,,,,,,,2023-08-16_08h41.57.651,HF_wild_card,2022.2.4,Win32,60.0240096,59f392ef9618dc0001d33a58,64d2fd46c836a06233681665,64dc7db8e8c79331eb2da865,,,,,,,decisionTrl,resources/DP.BMP,resources/DY.BMP,Door4,0.23046875,0.0078125,1,0,0,1.2,optionRight,60,7690,4,7,0,7,0,1,,,,,,,,,,,,,,,,,,,,,,,,,,,,,,,,,,,,,,,
,,,,,,,,2023-08-16_08h41.57.651,HF_wild_card,2022.2.4,Win32,60.0240096,59f392ef9618dc0001d33a58,64d2fd46c836a06233681665,64dc7db8e8c79331eb2da865,,,,,,,decisionTrl,resources/DBN.BMP,resources/DR.BMP,Door2,0.28515625,0.001302083,1,0,0,1.358,optionRight,20,7710,4,8,0,8,0,1,,,,,,,,,,,,,,,,,,,,,,,,,,,,,,,,,,,,,,,
,,,,,,,,2023-08-16_08h41.57.651,HF_wild_card,2022.2.4,Win32,60.0240096,59f392ef9618dc0001d33a58,64d2fd46c836a06233681665,64dc7db8e8c79331eb2da865,,,,,,,sngl,resources/DBN.BMP,resources/Empty.png,Door1,-0.217447917,0.00390625,1,0,0,0.661,optionLeft,30,7740,4,9,0,9,0,1,,,,,,,,,,,,,,,,,,,,,,,,,,,,,,,,,,,,,,,
,,,,,,,,2023-08-16_08h41.57.651,HF_wild_card,2022.2.4,Win32,60.0240096,59f392ef9618dc0001d33a58,64d2fd46c836a06233681665,64dc7db8e8c79331eb2da865,,,,,,,decisionTrl,resources/DBN.BMP,resources/DR.BMP,Door1,-0.364583333,0.002604167,1,0,0,0.942,optionLeft,30,7770,4,10,0,10,0,1,,,,,,,,,,,,,,,,,,,,,,,,,,,,,,,,,,,,,,,
,,,,,,,,2023-08-16_08h41.57.651,HF_wild_card,2022.2.4,Win32,60.0240096,59f392ef9618dc0001d33a58,64d2fd46c836a06233681665,64dc7db8e8c79331eb2da865,,,,,,,decisionTrl,resources/DP.BMP,resources/DR.BMP,WildCard_Ex,-0.423177083,0.010416667,1,0,0,1.659,optionLeft,45,7815,4,11,0,11,0,1,,,,,,,,,,,,,,,,,,,,,,,,,,,,,,,,,,,,,,,
,,,,,,,,2023-08-16_08h41.57.651,HF_wild_card,2022.2.4,Win32,60.0240096,59f392ef9618dc0001d33a58,64d2fd46c836a06233681665,64dc7db8e8c79331eb2da865,,,,,,,decisionTrl,resources/DY.BMP,resources/DP.BMP,Door4,-0.395833333,0.001302083,1,0,0,1.074,optionLeft,60,7875,4,12,0,12,0,1,,,,,,,,,,,,,,,,,,,,,,,,,,,,,,,,,,,,,,,
,,,,,,,,2023-08-16_08h41.57.651,HF_wild_card,2022.2.4,Win32,60.0240096,59f392ef9618dc0001d33a58,64d2fd46c836a06233681665,64dc7db8e8c79331eb2da865,,,,,,,sngl,resources/Empty.png,resources/DB.BMP,Door3,0.342447917,0.00390625,1,0,0,0.825,optionRight,70,7945,4,13,0,13,0,1,,,,,,,,,,,,,,,,,,,,,,,,,,,,,,,,,,,,,,,
,,,,,,,,2023-08-16_08h41.57.651,HF_wild_card,2022.2.4,Win32,60.0240096,59f392ef9618dc0001d33a58,64d2fd46c836a06233681665,64dc7db8e8c79331eb2da865,,,,,,,decisionTrl,resources/DB.BMP,resources/DP.BMP,Door3,-0.26171875,0.002604167,1,0,0,1.392,optionLeft,70,8015,4,14,0,14,0,1,,,,,,,,,,,,,,,,,,,,,,,,,,,,,,,,,,,,,,,
,,,,,,,,2023-08-16_08h41.57.651,HF_wild_card,2022.2.4,Win32,60.0240096,59f392ef9618dc0001d33a58,64d2fd46c836a06233681665,64dc7db8e8c79331eb2da865,,,,,,,sngl,resources/Empty.png,resources/DY.BMP,Door4,0.368489583,0.022135417,1,0,0,0.674,optionRight,80,8095,4,15,0,15,0,1,,,,,,,,,,,,,,,,,,,,,,,,,,,,,,,,,,,,,,,
,,,,,,,,2023-08-16_08h41.57.651,HF_wild_card,2022.2.4,Win32,60.0240096,59f392ef9618dc0001d33a58,64d2fd46c836a06233681665,64dc7db8e8c79331eb2da865,,,,,,,decisionTrl,resources/DR.BMP,resources/DBN.BMP,Door2,-0.494791667,0.005208333,1,0,0,1.843,optionLeft,20,8115,4,16,0,16,0,1,,,,,,,,,,,,,,,,,,,,,,,,,,,,,,,,,,,,,,,
,,,,,,,,2023-08-16_08h41.57.651,HF_wild_card,2022.2.4,Win32,60.0240096,59f392ef9618dc0001d33a58,64d2fd46c836a06233681665,64dc7db8e8c79331eb2da865,,,,,,,sngl,resources/DP.BMP,resources/Empty.png,WildCard_Ex,-0.30859375,-0.0078125,1,0,0,0.659,optionLeft,55,8170,4,17,0,17,0,1,,,,,,,,,,,,,,,,,,,,,,,,,,,,,,,,,,,,,,,
,,,,,,,,2023-08-16_08h41.57.651,HF_wild_card,2022.2.4,Win32,60.0240096,59f392ef9618dc0001d33a58,64d2fd46c836a06233681665,64dc7db8e8c79331eb2da865,,,,,,,ctch,resources/DBN.BMP,resources/DY.BMP,Door4,0.572916667,-0.032552083,1,0,0,1.527,optionRight,80,8250,4,18,0,18,0,1,,,,,,,,,,,,,,,,,,,,,,,,,,,,,,,,,,,,,,,
,,,,,,,,2023-08-16_08h41.57.651,HF_wild_card,2022.2.4,Win32,60.0240096,59f392ef9618dc0001d33a58,64d2fd46c836a06233681665,64dc7db8e8c79331eb2da865,,,,,,,ctch,resources/DY.BMP,resources/DBN.BMP,Door4,-0.287760417,-0.022135417,1,0,0,1.257,optionLeft,80,8330,4,19,0,19,0,1,,,,,,,,,,,,,,,,,,,,,,,,,,,,,,,,,,,,,,,
,,,,,,,,2023-08-16_08h41.57.651,HF_wild_card,2022.2.4,Win32,60.0240096,59f392ef9618dc0001d33a58,64d2fd46c836a06233681665,64dc7db8e8c79331eb2da865,,,,,,,decisionTrl,resources/DY.BMP,resources/DB.BMP,Door4,-0.36328125,-0.010416667,1,0,0,1.508,optionLeft,60,8390,4,20,0,20,0,1,,,,,,,,,,,,,,,,,,,,,,,,,,,,,,,,,,,,,,,
,,,,,,,,2023-08-16_08h41.57.651,HF_wild_card,2022.2.4,Win32,60.0240096,59f392ef9618dc0001d33a58,64d2fd46c836a06233681665,64dc7db8e8c79331eb2da865,,,,,,,decisionTrl,resources/DBN.BMP,resources/DP.BMP,WildCard_Ex,0.325520833,0,1,0,0,1.109,optionRight,55,8445,4,21,0,21,0,1,,,,,,,,,,,,,,,,,,,,,,,,,,,,,,,,,,,,,,,
,,,,,,,,2023-08-16_08h41.57.651,HF_wild_card,2022.2.4,Win32,60.0240096,59f392ef9618dc0001d33a58,64d2fd46c836a06233681665,64dc7db8e8c79331eb2da865,,,,,,,sngl,resources/DY.BMP,resources/Empty.png,Door4,-0.311197917,-0.01171875,1,0,0,0.625,optionLeft,60,8505,4,22,0,22,0,1,,,,,,,,,,,,,,,,,,,,,,,,,,,,,,,,,,,,,,,
,,,,,,,,2023-08-16_08h41.57.651,HF_wild_card,2022.2.4,Win32,60.0240096,59f392ef9618dc0001d33a58,64d2fd46c836a06233681665,64dc7db8e8c79331eb2da865,,,,,,,decisionTrl,resources/DY.BMP,resources/DB.BMP,Door3,0.2421875,0.006510417,1,0,0,1.575,optionRight,70,8575,4,23,0,23,0,1,,,,,,,,,,,,,,,,,,,,,,,,,,,,,,,,,,,,,,,
,,,,,,,,2023-08-16_08h41.57.651,HF_wild_card,2022.2.4,Win32,60.0240096,59f392ef9618dc0001d33a58,64d2fd46c836a06233681665,64dc7db8e8c79331eb2da865,,,,,,,decisionTrl,resources/DR.BMP,resources/DP.BMP,WildCard_Ex,0.40625,0.002604167,1,0,0,1.878,optionRight,55,8630,4,24,0,24,0,1,,,,,,,,,,,,,,,,,,,,,,,,,,,,,,,,,,,,,,,
,,,,,,,,2023-08-16_08h41.57.651,HF_wild_card,2022.2.4,Win32,60.0240096,59f392ef9618dc0001d33a58,64d2fd46c836a06233681665,64dc7db8e8c79331eb2da865,,,,,,,decisionTrl,resources/DY.BMP,resources/DB.BMP,Door3,0.3828125,-0.010416667,1,0,0,2.756,optionRight,70,8700,4,25,0,25,0,1,,,,,,,,,,,,,,,,,,,,,,,,,,,,,,,,,,,,,,,
,,,,,,,,2023-08-16_08h41.57.651,HF_wild_card,2022.2.4,Win32,60.0240096,59f392ef9618dc0001d33a58,64d2fd46c836a06233681665,64dc7db8e8c79331eb2da865,,,,,,,sngl,resources/Empty.png,resources/DR.BMP,Door2,0.25390625,0.005208333,1,0,0,0.757,optionRight,40,8740,4,26,0,26,0,1,,,,,,,,,,,,,,,,,,,,,,,,,,,,,,,,,,,,,,,
,,,,,,,,2023-08-16_08h41.57.651,HF_wild_card,2022.2.4,Win32,60.0240096,59f392ef9618dc0001d33a58,64d2fd46c836a06233681665,64dc7db8e8c79331eb2da865,,,,,,,sngl,resources/DB.BMP,resources/Empty.png,Door3,-0.298177083,-0.024739583,1,0,0,0.675,optionLeft,70,8810,4,27,0,27,0,1,,,,,,,,,,,,,,,,,,,,,,,,,,,,,,,,,,,,,,,
,,,,,,,,2023-08-16_08h41.57.651,HF_wild_card,2022.2.4,Win32,60.0240096,59f392ef9618dc0001d33a58,64d2fd46c836a06233681665,64dc7db8e8c79331eb2da865,,,,,,,sngl,resources/DP.BMP,resources/Empty.png,WildCard_Ex,-0.2578125,-0.024739583,1,0,0,0.66,optionLeft,45,8855,4,28,0,28,0,1,,,,,,,,,,,,,,,,,,,,,,,,,,,,,,,,,,,,,,,
,,,,,,,,2023-08-16_08h41.57.651,HF_wild_card,2022.2.4,Win32,60.0240096,59f392ef9618dc0001d33a58,64d2fd46c836a06233681665,64dc7db8e8c79331eb2da865,,,,,,,ctch,resources/DB.BMP,resources/DR.BMP,Door3,-0.25390625,-0.016927083,1,0,0,1.101,optionLeft,70,8925,4,29,0,29,0,1,,,,,,,,,,,,,,,,,,,,,,,,,,,,,,,,,,,,,,,
,,,,,,,,2023-08-16_08h41.57.651,HF_wild_card,2022.2.4,Win32,60.0240096,59f392ef9618dc0001d33a58,64d2fd46c836a06233681665,64dc7db8e8c79331eb2da865,,,,,,,sngl,resources/Empty.png,resources/DP.BMP,WildCard_Ex,0.294270833,0.02734375,1,0,0,0.675,optionRight,55,8980,4,30,0,30,0,1,,,,,,,,,,,,,,,,,,,,,,,,,,,,,,,,,,,,,,,
,,,,,,,,2023-08-16_08h41.57.651,HF_wild_card,2022.2.4,Win32,60.0240096,59f392ef9618dc0001d33a58,64d2fd46c836a06233681665,64dc7db8e8c79331eb2da865,,,,,,,decisionTrl,resources/DB.BMP,resources/DY.BMP,Door4,0.322916667,0.02734375,1,0,0,1.59,optionRight,80,9060,4,31,0,31,0,1,,,,,,,,,,,,,,,,,,,,,,,,,,,,,,,,,,,,,,,
,,,,,,,,2023-08-16_08h41.57.651,HF_wild_card,2022.2.4,Win32,60.0240096,59f392ef9618dc0001d33a58,64d2fd46c836a06233681665,64dc7db8e8c79331eb2da865,,,,,,,ctch,resources/DBN.BMP,resources/DY.BMP,Door4,0.33203125,0.069010417,1,0,0,1.257,optionRight,60,9120,4,32,0,32,0,1,,,,,,,,,,,,,,,,,,,,,,,,,,,,,,,,,,,,,,,
,,,,,,,,2023-08-16_08h41.57.651,HF_wild_card,2022.2.4,Win32,60.0240096,59f392ef9618dc0001d33a58,64d2fd46c836a06233681665,64dc7db8e8c79331eb2da865,,,,,,,decisionTrl,resources/DB.BMP,resources/DY.BMP,Door4,0.36328125,0.03515625,1,0,0,0.775,optionRight,80,9200,4,33,0,33,0,1,,,,,,,,,,,,,,,,,,,,,,,,,,,,,,,,,,,,,,,
,,,,,,,,2023-08-16_08h41.57.651,HF_wild_card,2022.2.4,Win32,60.0240096,59f392ef9618dc0001d33a58,64d2fd46c836a06233681665,64dc7db8e8c79331eb2da865,,,,,,,decisionTrl,resources/DBN.BMP,resources/DR.BMP,Door1,-0.264322917,0.00390625,1,0,0,2.157,optionLeft,30,9230,4,34,0,34,0,1,,,,,,,,,,,,,,,,,,,,,,,,,,,,,,,,,,,,,,,
,,,,,,,,2023-08-16_08h41.57.651,HF_wild_card,2022.2.4,Win32,60.0240096,59f392ef9618dc0001d33a58,64d2fd46c836a06233681665,64dc7db8e8c79331eb2da865,,,,,,,sngl,resources/DR.BMP,resources/Empty.png,Door2,-0.30859375,0.002604167,1,0,0,0.792,optionLeft,20,9250,4,35,0,35,0,1,,,,,,,,,,,,,,,,,,,,,,,,,,,,,,,,,,,,,,,
,,,,,,,,2023-08-16_08h41.57.651,HF_wild_card,2022.2.4,Win32,60.0240096,59f392ef9618dc0001d33a58,64d2fd46c836a06233681665,64dc7db8e8c79331eb2da865,,,,,,,decisionTrl,resources/DB.BMP,resources/DY.BMP,Door4,0.427083333,0.03125,1,0,0,1.126,optionRight,80,9330,4,36,0,36,0,1,,,,,,,,,,,,,,,,,,,,,,,,,,,,,,,,,,,,,,,
,,,,,,,,2023-08-16_08h41.57.651,HF_wild_card,2022.2.4,Win32,60.0240096,59f392ef9618dc0001d33a58,64d2fd46c836a06233681665,64dc7db8e8c79331eb2da865,,,,,,,decisionTrl,resources/DR.BMP,resources/DBN.BMP,Door2,-0.44140625,-0.037760417,1,0,0,1.558,optionLeft,20,9350,4,37,0,37,0,1,,,,,,,,,,,,,,,,,,,,,,,,,,,,,,,,,,,,,,,
,,,,,,,,2023-08-16_08h41.57.651,HF_wild_card,2022.2.4,Win32,60.0240096,59f392ef9618dc0001d33a58,64d2fd46c836a06233681665,64dc7db8e8c79331eb2da865,,,,,,,decisionTrl,resources/DB.BMP,resources/DY.BMP,Door4,0.4296875,-0.006510417,1,0,0,1.026,optionRight,60,9410,4,38,0,38,0,1,,,,,,,,,,,,,,,,,,,,,,,,,,,,,,,,,,,,,,,
,,,,,,,,2023-08-16_08h41.57.651,HF_wild_card,2022.2.4,Win32,60.0240096,59f392ef9618dc0001d33a58,64d2fd46c836a06233681665,64dc7db8e8c79331eb2da865,,,,,,,ctch,resources/DR.BMP,resources/DB.BMP,Door3,0.259114583,-0.01171875,1,0,0,1.227,optionRight,70,9480,4,39,0,39,0,1,,,,,,,,,,,,,,,,,,,,,,,,,,,,,,,,,,,,,,,
,,,,,,,,2023-08-16_08h41.57.651,HF_wild_card,2022.2.4,Win32,60.0240096,59f392ef9618dc0001d33a58,64d2fd46c836a06233681665,64dc7db8e8c79331eb2da865,,,,,,,decisionTrl,resources/DR.BMP,resources/DBN.BMP,Door1,0.303385417,-0.002604167,1,0,0,1.307,optionRight,30,9510,4,40,0,40,0,1,,,,,,,,,,,,,,,,,,,,,,,,,,,,,,,,,,,,,,,
,,,,,,,,2023-08-16_08h41.57.651,HF_wild_card,2022.2.4,Win32,60.0240096,59f392ef9618dc0001d33a58,64d2fd46c836a06233681665,64dc7db8e8c79331eb2da865,,,,,,,decisionTrl,resources/DP.BMP,resources/DB.BMP,Door3,0.290364583,0.013020833,1,0,0,1.275,optionRight,70,9580,4,41,0,41,0,1,,,,,,,,,,,,,,,,,,,,,,,,,,,,,,,,,,,,,,,
,,,,,,,,2023-08-16_08h41.57.651,HF_wild_card,2022.2.4,Win32,60.0240096,59f392ef9618dc0001d33a58,64d2fd46c836a06233681665,64dc7db8e8c79331eb2da865,,,,,,,decisionTrl,resources/DBN.BMP,resources/DR.BMP,Door1,-0.27734375,-0.020833333,1,0,0,3.256,optionLeft,30,9610,4,42,0,42,0,1,,,,,,,,,,,,,,,,,,,,,,,,,,,,,,,,,,,,,,,
,,,,,,,,2023-08-16_08h41.57.651,HF_wild_card,2022.2.4,Win32,60.0240096,59f392ef9618dc0001d33a58,64d2fd46c836a06233681665,64dc7db8e8c79331eb2da865,,,,,,,decisionTrl,resources/DY.BMP,resources/DB.BMP,Door3,0.348958333,-0.041666667,1,0,0,1.559,optionRight,70,9680,4,43,0,43,0,1,,,,,,,,,,,,,,,,,,,,,,,,,,,,,,,,,,,,,,,
,,,,,,,,2023-08-16_08h41.57.651,HF_wild_card,2022.2.4,Win32,60.0240096,59f392ef9618dc0001d33a58,64d2fd46c836a06233681665,64dc7db8e8c79331eb2da865,,,,,,,,,,,,,,,,,,,,,,,,,,3,0,3,0,1,,,,,,,,,,,,,,,,,,,,,,,,,,,,,,,,,,
,,,,,,,,2023-08-16_08h41.57.651,HF_wild_card,2022.2.4,Win32,60.0240096,59f392ef9618dc0001d33a58,64d2fd46c836a06233681665,64dc7db8e8c79331eb2da865,,,,,,,decisionTrl,resources/DP.BMP,resources/DBN.BMP,WildCard_Ex,-0.4375,0.03125,1,0,0,1.106,optionLeft,55,9735,5,0,0,0,0,1,,,,,,,,,,,,,,,,,,,,,,,,,,,,,,,,,,,,,,,
,,,,,,,,2023-08-16_08h41.57.651,HF_wild_card,2022.2.4,Win32,60.0240096,59f392ef9618dc0001d33a58,64d2fd46c836a06233681665,64dc7db8e8c79331eb2da865,,,,,,,sngl,resources/DR.BMP,resources/Empty.png,Door2,-0.361979167,0.00390625,1,0,0,0.692,optionLeft,40,9775,5,1,0,1,0,1,,,,,,,,,,,,,,,,,,,,,,,,,,,,,,,,,,,,,,,
,,,,,,,,2023-08-16_08h41.57.651,HF_wild_card,2022.2.4,Win32,60.0240096,59f392ef9618dc0001d33a58,64d2fd46c836a06233681665,64dc7db8e8c79331eb2da865,,,,,,,decisionTrl,resources/DB.BMP,resources/DY.BMP,Door3,-0.296875,0.018229167,1,0,0,1.793,optionLeft,70,9845,5,2,0,2,0,1,,,,,,,,,,,,,,,,,,,,,,,,,,,,,,,,,,,,,,,
,,,,,,,,2023-08-16_08h41.57.651,HF_wild_card,2022.2.4,Win32,60.0240096,59f392ef9618dc0001d33a58,64d2fd46c836a06233681665,64dc7db8e8c79331eb2da865,,,,,,,sngl,resources/Empty.png,resources/DB.BMP,Door3,0.234375,0.009114583,1,0,0,0.644,optionRight,70,9915,5,3,0,3,0,1,,,,,,,,,,,,,,,,,,,,,,,,,,,,,,,,,,,,,,,
,,,,,,,,2023-08-16_08h41.57.651,HF_wild_card,2022.2.4,Win32,60.0240096,59f392ef9618dc0001d33a58,64d2fd46c836a06233681665,64dc7db8e8c79331eb2da865,,,,,,,sngl,resources/Empty.png,resources/DR.BMP,Door2,0.213541667,0.005208333,1,0,0,0.581,optionRight,20,9935,5,4,0,4,0,1,,,,,,,,,,,,,,,,,,,,,,,,,,,,,,,,,,,,,,,
,,,,,,,,2023-08-16_08h41.57.651,HF_wild_card,2022.2.4,Win32,60.0240096,59f392ef9618dc0001d33a58,64d2fd46c836a06233681665,64dc7db8e8c79331eb2da865,,,,,,,decisionTrl,resources/DBN.BMP,resources/DR.BMP,Door1,-0.223958333,0.010416667,1,0,0,1.358,optionLeft,30,9965,5,5,0,5,0,1,,,,,,,,,,,,,,,,,,,,,,,,,,,,,,,,,,,,,,,
,,,,,,,,2023-08-16_08h41.57.651,HF_wild_card,2022.2.4,Win32,60.0240096,59f392ef9618dc0001d33a58,64d2fd46c836a06233681665,64dc7db8e8c79331eb2da865,,,,,,,ctch,resources/DBN.BMP,resources/DY.BMP,Door4,0.28515625,-0.006510417,1,0,0,1.089,optionRight,60,10025,5,6,0,6,0,1,,,,,,,,,,,,,,,,,,,,,,,,,,,,,,,,,,,,,,,
,,,,,,,,2023-08-16_08h41.57.651,HF_wild_card,2022.2.4,Win32,60.0240096,59f392ef9618dc0001d33a58,64d2fd46c836a06233681665,64dc7db8e8c79331eb2da865,,,,,,,sngl,resources/Empty.png,resources/DP.BMP,WildCard_Ex,0.264322917,0.002604167,1,0,0,0.675,optionRight,45,10070,5,7,0,7,0,1,,,,,,,,,,,,,,,,,,,,,,,,,,,,,,,,,,,,,,,
,,,,,,,,2023-08-16_08h41.57.651,HF_wild_card,2022.2.4,Win32,60.0240096,59f392ef9618dc0001d33a58,64d2fd46c836a06233681665,64dc7db8e8c79331eb2da865,,,,,,,decisionTrl,resources/DY.BMP,resources/DB.BMP,Door4,-0.296875,0.010416667,1,0,0,1.476,optionLeft,80,10150,5,8,0,8,0,1,,,,,,,,,,,,,,,,,,,,,,,,,,,,,,,,,,,,,,,
,,,,,,,,2023-08-16_08h41.57.651,HF_wild_card,2022.2.4,Win32,60.0240096,59f392ef9618dc0001d33a58,64d2fd46c836a06233681665,64dc7db8e8c79331eb2da865,,,,,,,decisionTrl,resources/DB.BMP,resources/DP.BMP,Door3,-0.2578125,0.014322917,1,0,0,1.324,optionLeft,70,10220,5,9,0,9,0,1,,,,,,,,,,,,,,,,,,,,,,,,,,,,,,,,,,,,,,,
,,,,,,,,2023-08-16_08h41.57.651,HF_wild_card,2022.2.4,Win32,60.0240096,59f392ef9618dc0001d33a58,64d2fd46c836a06233681665,64dc7db8e8c79331eb2da865,,,,,,,ctch,resources/DY.BMP,resources/DBN.BMP,Door4,-0.315104167,0.014322917,1,0,0,0.96,optionLeft,80,10300,5,10,0,10,0,1,,,,,,,,,,,,,,,,,,,,,,,,,,,,,,,,,,,,,,,
,,,,,,,,2023-08-16_08h41.57.651,HF_wild_card,2022.2.4,Win32,60.0240096,59f392ef9618dc0001d33a58,64d2fd46c836a06233681665,64dc7db8e8c79331eb2da865,,,,,,,decisionTrl,resources/DP.BMP,resources/DB.BMP,Door3,0.333333333,0.001302083,1,0,0,1.026,optionRight,70,10370,5,11,0,11,0,1,,,,,,,,,,,,,,,,,,,,,,,,,,,,,,,,,,,,,,,
,,,,,,,,2023-08-16_08h41.57.651,HF_wild_card,2022.2.4,Win32,60.0240096,59f392ef9618dc0001d33a58,64d2fd46c836a06233681665,64dc7db8e8c79331eb2da865,,,,,,,ctch,resources/DR.BMP,resources/DB.BMP,Door3,0.282552083,0.024739583,1,0,0,0.939,optionRight,70,10440,5,12,0,12,0,1,,,,,,,,,,,,,,,,,,,,,,,,,,,,,,,,,,,,,,,
,,,,,,,,2023-08-16_08h41.57.651,HF_wild_card,2022.2.4,Win32,60.0240096,59f392ef9618dc0001d33a58,64d2fd46c836a06233681665,64dc7db8e8c79331eb2da865,,,,,,,sngl,resources/DP.BMP,resources/Empty.png,WildCard_Ex,-0.287760417,0.029947917,1,0,0,0.625,optionLeft,45,10485,5,13,0,13,0,1,,,,,,,,,,,,,,,,,,,,,,,,,,,,,,,,,,,,,,,
,,,,,,,,2023-08-16_08h41.57.651,HF_wild_card,2022.2.4,Win32,60.0240096,59f392ef9618dc0001d33a58,64d2fd46c836a06233681665,64dc7db8e8c79331eb2da865,,,,,,,decisionTrl,resources/DP.BMP,resources/DR.BMP,WildCard_Ex,-0.391927083,0.0546875,1,0,0,2.008,optionLeft,45,10530,5,14,0,14,0,1,,,,,,,,,,,,,,,,,,,,,,,,,,,,,,,,,,,,,,,
,,,,,,,,2023-08-16_08h41.57.651,HF_wild_card,2022.2.4,Win32,60.0240096,59f392ef9618dc0001d33a58,64d2fd46c836a06233681665,64dc7db8e8c79331eb2da865,,,,,,,sngl,resources/DB.BMP,resources/Empty.png,Door3,-0.326822917,0.0390625,1,0,0,0.627,optionLeft,70,10600,5,15,0,15,0,1,,,,,,,,,,,,,,,,,,,,,,,,,,,,,,,,,,,,,,,
,,,,,,,,2023-08-16_08h41.57.651,HF_wild_card,2022.2.4,Win32,60.0240096,59f392ef9618dc0001d33a58,64d2fd46c836a06233681665,64dc7db8e8c79331eb2da865,,,,,,,ctch,resources/DB.BMP,resources/DR.BMP,Door3,-0.48828125,0.072916667,1,0,0,0.873,optionLeft,70,10670,5,16,0,16,0,1,,,,,,,,,,,,,,,,,,,,,,,,,,,,,,,,,,,,,,,
,,,,,,,,2023-08-16_08h41.57.651,HF_wild_card,2022.2.4,Win32,60.0240096,59f392ef9618dc0001d33a58,64d2fd46c836a06233681665,64dc7db8e8c79331eb2da865,,,,,,,sngl,resources/Empty.png,resources/DP.BMP,WildCard_Ex,0.255208333,0.015625,1,0,0,0.643,optionRight,55,10725,5,17,0,17,0,1,,,,,,,,,,,,,,,,,,,,,,,,,,,,,,,,,,,,,,,
,,,,,,,,2023-08-16_08h41.57.651,HF_wild_card,2022.2.4,Win32,60.0240096,59f392ef9618dc0001d33a58,64d2fd46c836a06233681665,64dc7db8e8c79331eb2da865,,,,,,,ctch,resources/DB.BMP,resources/DR.BMP,Door3,-0.296875,0.016927083,1,0,0,0.957,optionLeft,70,10795,5,18,0,18,0,1,,,,,,,,,,,,,,,,,,,,,,,,,,,,,,,,,,,,,,,
,,,,,,,,2023-08-16_08h41.57.651,HF_wild_card,2022.2.4,Win32,60.0240096,59f392ef9618dc0001d33a58,64d2fd46c836a06233681665,64dc7db8e8c79331eb2da865,,,,,,,decisionTrl,resources/DY.BMP,resources/DP.BMP,Door4,-0.345052083,0.0234375,1,0,0,1.407,optionLeft,80,10875,5,19,0,19,0,1,,,,,,,,,,,,,,,,,,,,,,,,,,,,,,,,,,,,,,,
,,,,,,,,2023-08-16_08h41.57.651,HF_wild_card,2022.2.4,Win32,60.0240096,59f392ef9618dc0001d33a58,64d2fd46c836a06233681665,64dc7db8e8c79331eb2da865,,,,,,,decisionTrl,resources/DBN.BMP,resources/DR.BMP,Door1,-0.415364583,0.061197917,1,0,0,1.224,optionLeft,30,10905,5,20,0,20,0,1,,,,,,,,,,,,,,,,,,,,,,,,,,,,,,,,,,,,,,,
,,,,,,,,2023-08-16_08h41.57.651,HF_wild_card,2022.2.4,Win32,60.0240096,59f392ef9618dc0001d33a58,64d2fd46c836a06233681665,64dc7db8e8c79331eb2da865,,,,,,,decisionTrl,resources/DR.BMP,resources/DBN.BMP,Door1,0.30078125,0.016927083,1,0,0,0.992,optionRight,30,10935,5,21,0,21,0,1,,,,,,,,,,,,,,,,,,,,,,,,,,,,,,,,,,,,,,,
,,,,,,,,2023-08-16_08h41.57.651,HF_wild_card,2022.2.4,Win32,60.0240096,59f392ef9618dc0001d33a58,64d2fd46c836a06233681665,64dc7db8e8c79331eb2da865,,,,,,,sngl,resources/DBN.BMP,resources/Empty.png,Door1,-0.640625,0.104166667,1,0,0,0.708,optionLeft,30,10965,5,22,0,22,0,1,,,,,,,,,,,,,,,,,,,,,,,,,,,,,,,,,,,,,,,
,,,,,,,,2023-08-16_08h41.57.651,HF_wild_card,2022.2.4,Win32,60.0240096,59f392ef9618dc0001d33a58,64d2fd46c836a06233681665,64dc7db8e8c79331eb2da865,,,,,,,decisionTrl,resources/DR.BMP,resources/DBN.BMP,Door1,0.34375,0.028645833,1,0,0,0.743,optionRight,30,10995,5,23,0,23,0,1,,,,,,,,,,,,,,,,,,,,,,,,,,,,,,,,,,,,,,,
,,,,,,,,2023-08-16_08h41.57.651,HF_wild_card,2022.2.4,Win32,60.0240096,59f392ef9618dc0001d33a58,64d2fd46c836a06233681665,64dc7db8e8c79331eb2da865,,,,,,,sngl,resources/DP.BMP,resources/Empty.png,WildCard_Ex,-0.2578125,0.009114583,1,0,0,0.859,optionLeft,55,11050,5,24,0,24,0,1,,,,,,,,,,,,,,,,,,,,,,,,,,,,,,,,,,,,,,,
,,,,,,,,2023-08-16_08h41.57.651,HF_wild_card,2022.2.4,Win32,60.0240096,59f392ef9618dc0001d33a58,64d2fd46c836a06233681665,64dc7db8e8c79331eb2da865,,,,,,,decisionTrl,resources/DBN.BMP,resources/DR.BMP,Door1,-0.296875,0.045572917,1,0,0,1.029,optionLeft,30,11080,5,25,0,25,0,1,,,,,,,,,,,,,,,,,,,,,,,,,,,,,,,,,,,,,,,
,,,,,,,,2023-08-16_08h41.57.651,HF_wild_card,2022.2.4,Win32,60.0240096,59f392ef9618dc0001d33a58,64d2fd46c836a06233681665,64dc7db8e8c79331eb2da865,,,,,,,decisionTrl,resources/DY.BMP,resources/DB.BMP,Door4,-0.223958333,0.032552083,1,0,0,2.393,optionLeft,80,11160,5,26,0,26,0,1,,,,,,,,,,,,,,,,,,,,,,,,,,,,,,,,,,,,,,,
,,,,,,,,2023-08-16_08h41.57.651,HF_wild_card,2022.2.4,Win32,60.0240096,59f392ef9618dc0001d33a58,64d2fd46c836a06233681665,64dc7db8e8c79331eb2da865,,,,,,,decisionTrl,resources/DB.BMP,resources/DY.BMP,Door3,-0.322916667,0.033854167,1,0,0,1.052,optionLeft,70,11230,5,27,0,27,0,1,,,,,,,,,,,,,,,,,,,,,,,,,,,,,,,,,,,,,,,
,,,,,,,,2023-08-16_08h41.57.651,HF_wild_card,2022.2.4,Win32,60.0240096,59f392ef9618dc0001d33a58,64d2fd46c836a06233681665,64dc7db8e8c79331eb2da865,,,,,,,decisionTrl,resources/DBN.BMP,resources/DR.BMP,Door1,-0.264322917,0.028645833,1,0,0,1.339,optionLeft,30,11260,5,28,0,28,0,1,,,,,,,,,,,,,,,,,,,,,,,,,,,,,,,,,,,,,,,
,,,,,,,,2023-08-16_08h41.57.651,HF_wild_card,2022.2.4,Win32,60.0240096,59f392ef9618dc0001d33a58,64d2fd46c836a06233681665,64dc7db8e8c79331eb2da865,,,,,,,sngl,resources/DY.BMP,resources/Empty.png,Door4,-0.428385417,0.05078125,1,0,0,0.756,optionLeft,80,11340,5,29,0,29,0,1,,,,,,,,,,,,,,,,,,,,,,,,,,,,,,,,,,,,,,,
,,,,,,,,2023-08-16_08h41.57.651,HF_wild_card,2022.2.4,Win32,60.0240096,59f392ef9618dc0001d33a58,64d2fd46c836a06233681665,64dc7db8e8c79331eb2da865,,,,,,,decisionTrl,resources/DB.BMP,resources/DY.BMP,Door3,-0.420572917,0.044270833,1,0,0,2.171,optionLeft,70,11410,5,30,0,30,0,1,,,,,,,,,,,,,,,,,,,,,,,,,,,,,,,,,,,,,,,
,,,,,,,,2023-08-16_08h41.57.651,HF_wild_card,2022.2.4,Win32,60.0240096,59f392ef9618dc0001d33a58,64d2fd46c836a06233681665,64dc7db8e8c79331eb2da865,,,,,,,decisionTrl,resources/DBN.BMP,resources/DP.BMP,WildCard_Ex,0.236979167,0.010416667,1,0,0,1.008,optionRight,45,11455,5,31,0,31,0,1,,,,,,,,,,,,,,,,,,,,,,,,,,,,,,,,,,,,,,,
,,,,,,,,2023-08-16_08h41.57.651,HF_wild_card,2022.2.4,Win32,60.0240096,59f392ef9618dc0001d33a58,64d2fd46c836a06233681665,64dc7db8e8c79331eb2da865,,,,,,,decisionTrl,resources/DR.BMP,resources/DBN.BMP,Door2,-0.24609375,0.029947917,1,0,0,1.075,optionLeft,40,11495,5,32,0,32,0,1,,,,,,,,,,,,,,,,,,,,,,,,,,,,,,,,,,,,,,,
,,,,,,,,2023-08-16_08h41.57.651,HF_wild_card,2022.2.4,Win32,60.0240096,59f392ef9618dc0001d33a58,64d2fd46c836a06233681665,64dc7db8e8c79331eb2da865,,,,,,,decisionTrl,resources/DB.BMP,resources/DY.BMP,Door3,-0.377604167,0.026041667,1,0,0,3.507,optionLeft,70,11565,5,33,0,33,0,1,,,,,,,,,,,,,,,,,,,,,,,,,,,,,,,,,,,,,,,
,,,,,,,,2023-08-16_08h41.57.651,HF_wild_card,2022.2.4,Win32,60.0240096,59f392ef9618dc0001d33a58,64d2fd46c836a06233681665,64dc7db8e8c79331eb2da865,,,,,,,decisionTrl,resources/DP.BMP,resources/DY.BMP,Door4,0.2578125,0.005208333,1,0,0,1.009,optionRight,60,11625,5,34,0,34,0,1,,,,,,,,,,,,,,,,,,,,,,,,,,,,,,,,,,,,,,,
,,,,,,,,2023-08-16_08h41.57.651,HF_wild_card,2022.2.4,Win32,60.0240096,59f392ef9618dc0001d33a58,64d2fd46c836a06233681665,64dc7db8e8c79331eb2da865,,,,,,,decisionTrl,resources/DY.BMP,resources/DB.BMP,Door4,-0.32421875,0.015625,1,0,0,1.793,optionLeft,60,11685,5,35,0,35,0,1,,,,,,,,,,,,,,,,,,,,,,,,,,,,,,,,,,,,,,,
,,,,,,,,2023-08-16_08h41.57.651,HF_wild_card,2022.2.4,Win32,60.0240096,59f392ef9618dc0001d33a58,64d2fd46c836a06233681665,64dc7db8e8c79331eb2da865,,,,,,,ctch,resources/DY.BMP,resources/DBN.BMP,Door4,-0.25,0.014322917,1,0,0,0.814,optionLeft,80,11765,5,36,0,36,0,1,,,,,,,,,,,,,,,,,,,,,,,,,,,,,,,,,,,,,,,
,,,,,,,,2023-08-16_08h41.57.651,HF_wild_card,2022.2.4,Win32,60.0240096,59f392ef9618dc0001d33a58,64d2fd46c836a06233681665,64dc7db8e8c79331eb2da865,,,,,,,sngl,resources/Empty.png,resources/DY.BMP,Door4,0.30078125,0.040364583,1,0,0,0.873,optionRight,60,11825,5,37,0,37,0,1,,,,,,,,,,,,,,,,,,,,,,,,,,,,,,,,,,,,,,,
,,,,,,,,2023-08-16_08h41.57.651,HF_wild_card,2022.2.4,Win32,60.0240096,59f392ef9618dc0001d33a58,64d2fd46c836a06233681665,64dc7db8e8c79331eb2da865,,,,,,,ctch,resources/DBN.BMP,resources/DY.BMP,Door4,0.337239583,0.045572917,1,0,0,0.857,optionRight,60,11885,5,38,0,38,0,1,,,,,,,,,,,,,,,,,,,,,,,,,,,,,,,,,,,,,,,
,,,,,,,,2023-08-16_08h41.57.651,HF_wild_card,2022.2.4,Win32,60.0240096,59f392ef9618dc0001d33a58,64d2fd46c836a06233681665,64dc7db8e8c79331eb2da865,,,,,,,decisionTrl,resources/DR.BMP,resources/DBN.BMP,Door2,-0.352864583,0.041666667,1,0,0,2.057,optionLeft,20,11905,5,39,0,39,0,1,,,,,,,,,,,,,,,,,,,,,,,,,,,,,,,,,,,,,,,
,,,,,,,,2023-08-16_08h41.57.651,HF_wild_card,2022.2.4,Win32,60.0240096,59f392ef9618dc0001d33a58,64d2fd46c836a06233681665,64dc7db8e8c79331eb2da865,,,,,,,sngl,resources/Empty.png,resources/DBN.BMP,Door1,0.33203125,0.05078125,1,0,0,0.626,optionRight,30,11935,5,40,0,40,0,1,,,,,,,,,,,,,,,,,,,,,,,,,,,,,,,,,,,,,,,
,,,,,,,,2023-08-16_08h41.57.651,HF_wild_card,2022.2.4,Win32,60.0240096,59f392ef9618dc0001d33a58,64d2fd46c836a06233681665,64dc7db8e8c79331eb2da865,,,,,,,ctch,resources/DR.BMP,resources/DB.BMP,Door3,0.234375,0.010416667,1,0,0,1.007,optionRight,70,12005,5,41,0,41,0,1,,,,,,,,,,,,,,,,,,,,,,,,,,,,,,,,,,,,,,,
,,,,,,,,2023-08-16_08h41.57.651,HF_wild_card,2022.2.4,Win32,60.0240096,59f392ef9618dc0001d33a58,64d2fd46c836a06233681665,64dc7db8e8c79331eb2da865,,,,,,,decisionTrl,resources/DR.BMP,resources/DP.BMP,WildCard_Ex,0.325520833,-0.00390625,1,0,0,1.29,optionRight,55,12060,5,42,0,42,0,1,,,,,,,,,,,,,,,,,,,,,,,,,,,,,,,,,,,,,,,
,,,,,,,,2023-08-16_08h41.57.651,HF_wild_card,2022.2.4,Win32,60.0240096,59f392ef9618dc0001d33a58,64d2fd46c836a06233681665,64dc7db8e8c79331eb2da865,,,,,,,decisionTrl,resources/DY.BMP,resources/DB.BMP,Door4,-0.264322917,0.009114583,1,0,0,1.574,optionLeft,60,12120,5,43,0,43,0,1,,,,,,,,,,,,,,,,,,,,,,,,,,,,,,,,,,,,,,,
,,,,,,,,2023-08-16_08h41.57.651,HF_wild_card,2022.2.4,Win32,60.0240096,59f392ef9618dc0001d33a58,64d2fd46c836a06233681665,64dc7db8e8c79331eb2da865,,,,,,,,,,,,,,,,,,,,,,,,,,4,0,4,0,1,,,,,,,,,,,,,,,,,,,,,,,,,,,,,,,,,,
,,,,,,,,2023-08-16_08h41.57.651,HF_wild_card,2022.2.4,Win32,60.0240096,59f392ef9618dc0001d33a58,64d2fd46c836a06233681665,64dc7db8e8c79331eb2da865,,,,,,,sngl,resources/Empty.png,resources/DY.BMP,Door4,0.333333333,-0.072916667,1,0,0,0.721,optionRight,80,12200,6,0,0,0,0,1,,,,,,,,,,,,,,,,,,,,,,,,,,,,,,,,,,,,,,,
,,,,,,,,2023-08-16_08h41.57.651,HF_wild_card,2022.2.4,Win32,60.0240096,59f392ef9618dc0001d33a58,64d2fd46c836a06233681665,64dc7db8e8c79331eb2da865,,,,,,,decisionTrl,resources/DY.BMP,resources/DB.BMP,Door3,0.21875,0.014322917,1,0,0,1.109,optionRight,70,12270,6,1,0,1,0,1,,,,,,,,,,,,,,,,,,,,,,,,,,,,,,,,,,,,,,,
,,,,,,,,2023-08-16_08h41.57.651,HF_wild_card,2022.2.4,Win32,60.0240096,59f392ef9618dc0001d33a58,64d2fd46c836a06233681665,64dc7db8e8c79331eb2da865,,,,,,,decisionTrl,resources/DP.BMP,resources/DB.BMP,Door3,0.334635417,0.002604167,1,0,0,0.968,optionRight,70,12340,6,2,0,2,0,1,,,,,,,,,,,,,,,,,,,,,,,,,,,,,,,,,,,,,,,
,,,,,,,,2023-08-16_08h41.57.651,HF_wild_card,2022.2.4,Win32,60.0240096,59f392ef9618dc0001d33a58,64d2fd46c836a06233681665,64dc7db8e8c79331eb2da865,,,,,,,decisionTrl,resources/DP.BMP,resources/DBN.BMP,WildCard_Ex,-0.190104167,0.014322917,1,0,0,1.089,optionLeft,55,12395,6,3,0,3,0,1,,,,,,,,,,,,,,,,,,,,,,,,,,,,,,,,,,,,,,,
,,,,,,,,2023-08-16_08h41.57.651,HF_wild_card,2022.2.4,Win32,60.0240096,59f392ef9618dc0001d33a58,64d2fd46c836a06233681665,64dc7db8e8c79331eb2da865,,,,,,,decisionTrl,resources/DR.BMP,resources/DBN.BMP,Door1,0.455729167,-0.029947917,1,0,0,1.656,optionRight,30,12425,6,4,0,4,0,1,,,,,,,,,,,,,,,,,,,,,,,,,,,,,,,,,,,,,,,
,,,,,,,,2023-08-16_08h41.57.651,HF_wild_card,2022.2.4,Win32,60.0240096,59f392ef9618dc0001d33a58,64d2fd46c836a06233681665,64dc7db8e8c79331eb2da865,,,,,,,sngl,resources/Empty.png,resources/DR.BMP,Door2,0.342447917,-0.001302083,1,0,0,0.66,optionRight,40,12465,6,5,0,5,0,1,,,,,,,,,,,,,,,,,,,,,,,,,,,,,,,,,,,,,,,
,,,,,,,,2023-08-16_08h41.57.651,HF_wild_card,2022.2.4,Win32,60.0240096,59f392ef9618dc0001d33a58,64d2fd46c836a06233681665,64dc7db8e8c79331eb2da865,,,,,,,ctch,resources/DBN.BMP,resources/DY.BMP,Door4,0.427083333,0.002604167,1,0,0,1.342,optionRight,60,12525,6,6,0,6,0,1,,,,,,,,,,,,,,,,,,,,,,,,,,,,,,,,,,,,,,,
,,,,,,,,2023-08-16_08h41.57.651,HF_wild_card,2022.2.4,Win32,60.0240096,59f392ef9618dc0001d33a58,64d2fd46c836a06233681665,64dc7db8e8c79331eb2da865,,,,,,,decisionTrl,resources/DB.BMP,resources/DY.BMP,Door3,-0.528645833,0.015625,1,0,0,1.675,optionLeft,70,12595,6,7,0,7,0,1,,,,,,,,,,,,,,,,,,,,,,,,,,,,,,,,,,,,,,,
,,,,,,,,2023-08-16_08h41.57.651,HF_wild_card,2022.2.4,Win32,60.0240096,59f392ef9618dc0001d33a58,64d2fd46c836a06233681665,64dc7db8e8c79331eb2da865,,,,,,,sngl,resources/DP.BMP,resources/Empty.png,WildCard_Ex,-0.270833333,0.001302083,1,0,0,0.674,optionLeft,45,12640,6,8,0,8,0,1,,,,,,,,,,,,,,,,,,,,,,,,,,,,,,,,,,,,,,,
,,,,,,,,2023-08-16_08h41.57.651,HF_wild_card,2022.2.4,Win32,60.0240096,59f392ef9618dc0001d33a58,64d2fd46c836a06233681665,64dc7db8e8c79331eb2da865,,,,,,,decisionTrl,resources/DR.BMP,resources/DBN.BMP,Door1,0.305989583,-0.001302083,1,0,0,1.242,optionRight,30,12670,6,9,0,9,0,1,,,,,,,,,,,,,,,,,,,,,,,,,,,,,,,,,,,,,,,
,,,,,,,,2023-08-16_08h41.57.651,HF_wild_card,2022.2.4,Win32,60.0240096,59f392ef9618dc0001d33a58,64d2fd46c836a06233681665,64dc7db8e8c79331eb2da865,,,,,,,decisionTrl,resources/DR.BMP,resources/DP.BMP,WildCard_Ex,0.399739583,-0.020833333,1,0,0,1.125,optionRight,45,12715,6,10,0,10,0,1,,,,,,,,,,,,,,,,,,,,,,,,,,,,,,,,,,,,,,,
,,,,,,,,2023-08-16_08h41.57.651,HF_wild_card,2022.2.4,Win32,60.0240096,59f392ef9618dc0001d33a58,64d2fd46c836a06233681665,64dc7db8e8c79331eb2da865,,,,,,,sngl,resources/DBN.BMP,resources/Empty.png,Door1,-0.233072917,-0.005208333,1,0,0,0.675,optionLeft,30,12745,6,11,0,11,0,1,,,,,,,,,,,,,,,,,,,,,,,,,,,,,,,,,,,,,,,
,,,,,,,,2023-08-16_08h41.57.651,HF_wild_card,2022.2.4,Win32,60.0240096,59f392ef9618dc0001d33a58,64d2fd46c836a06233681665,64dc7db8e8c79331eb2da865,,,,,,,decisionTrl,resources/DP.BMP,resources/DR.BMP,WildCard_Ex,-0.213541667,-0.0078125,1,0,0,1.125,optionLeft,55,12800,6,12,0,12,0,1,,,,,,,,,,,,,,,,,,,,,,,,,,,,,,,,,,,,,,,
,,,,,,,,2023-08-16_08h41.57.651,HF_wild_card,2022.2.4,Win32,60.0240096,59f392ef9618dc0001d33a58,64d2fd46c836a06233681665,64dc7db8e8c79331eb2da865,,,,,,,ctch,resources/DR.BMP,resources/DB.BMP,Door3,0.342447917,-0.01171875,1,0,0,0.963,optionRight,70,12870,6,13,0,13,0,1,,,,,,,,,,,,,,,,,,,,,,,,,,,,,,,,,,,,,,,
,,,,,,,,2023-08-16_08h41.57.651,HF_wild_card,2022.2.4,Win32,60.0240096,59f392ef9618dc0001d33a58,64d2fd46c836a06233681665,64dc7db8e8c79331eb2da865,,,,,,,ctch,resources/DB.BMP,resources/DR.BMP,Door3,-0.197916667,0.00390625,1,0,0,0.874,optionLeft,70,12940,6,14,0,14,0,1,,,,,,,,,,,,,,,,,,,,,,,,,,,,,,,,,,,,,,,
,,,,,,,,2023-08-16_08h41.57.651,HF_wild_card,2022.2.4,Win32,60.0240096,59f392ef9618dc0001d33a58,64d2fd46c836a06233681665,64dc7db8e8c79331eb2da865,,,,,,,sngl,resources/DR.BMP,resources/Empty.png,Door2,-0.208333333,0.002604167,1,0,0,0.792,optionLeft,20,12960,6,15,0,15,0,1,,,,,,,,,,,,,,,,,,,,,,,,,,,,,,,,,,,,,,,
,,,,,,,,2023-08-16_08h41.57.651,HF_wild_card,2022.2.4,Win32,60.0240096,59f392ef9618dc0001d33a58,64d2fd46c836a06233681665,64dc7db8e8c79331eb2da865,,,,,,,decisionTrl,resources/DB.BMP,resources/DY.BMP,Door4,0.43359375,0.015625,1,0,0,1.823,optionRight,80,13040,6,16,0,16,0,1,,,,,,,,,,,,,,,,,,,,,,,,,,,,,,,,,,,,,,,
,,,,,,,,2023-08-16_08h41.57.651,HF_wild_card,2022.2.4,Win32,60.0240096,59f392ef9618dc0001d33a58,64d2fd46c836a06233681665,64dc7db8e8c79331eb2da865,,,,,,,decisionTrl,resources/DB.BMP,resources/DY.BMP,Door4,0.315104167,0.015625,1,0,0,0.744,optionRight,60,13100,6,17,0,17,0,1,,,,,,,,,,,,,,,,,,,,,,,,,,,,,,,,,,,,,,,
,,,,,,,,2023-08-16_08h41.57.651,HF_wild_card,2022.2.4,Win32,60.0240096,59f392ef9618dc0001d33a58,64d2fd46c836a06233681665,64dc7db8e8c79331eb2da865,,,,,,,decisionTrl,resources/DR.BMP,resources/DBN.BMP,Door2,-0.415364583,0.041666667,1,0,0,1.123,optionLeft,20,13120,6,18,0,18,0,1,,,,,,,,,,,,,,,,,,,,,,,,,,,,,,,,,,,,,,,
,,,,,,,,2023-08-16_08h41.57.651,HF_wild_card,2022.2.4,Win32,60.0240096,59f392ef9618dc0001d33a58,64d2fd46c836a06233681665,64dc7db8e8c79331eb2da865,,,,,,,decisionTrl,resources/DBN.BMP,resources/DP.BMP,WildCard_Ex,0.453125,-0.024739583,1,0,0,1.376,optionRight,55,13175,6,19,0,19,0,1,,,,,,,,,,,,,,,,,,,,,,,,,,,,,,,,,,,,,,,
,,,,,,,,2023-08-16_08h41.57.651,HF_wild_card,2022.2.4,Win32,60.0240096,59f392ef9618dc0001d33a58,64d2fd46c836a06233681665,64dc7db8e8c79331eb2da865,,,,,,,decisionTrl,resources/DB.BMP,resources/DP.BMP,Door3,-0.3828125,0.020833333,1,0,0,0.909,optionLeft,70,13245,6,20,0,20,0,1,,,,,,,,,,,,,,,,,,,,,,,,,,,,,,,,,,,,,,,
,,,,,,,,2023-08-16_08h41.57.651,HF_wild_card,2022.2.4,Win32,60.0240096,59f392ef9618dc0001d33a58,64d2fd46c836a06233681665,64dc7db8e8c79331eb2da865,,,,,,,decisionTrl,resources/DBN.BMP,resources/DR.BMP,Door2,0.342447917,0.002604167,1,0,0,1.34,optionRight,20,13265,6,21,0,21,0,1,,,,,,,,,,,,,,,,,,,,,,,,,,,,,,,,,,,,,,,
,,,,,,,,2023-08-16_08h41.57.651,HF_wild_card,2022.2.4,Win32,60.0240096,59f392ef9618dc0001d33a58,64d2fd46c836a06233681665,64dc7db8e8c79331eb2da865,,,,,,,sngl,resources/Empty.png,resources/DP.BMP,WildCard_Ex,0.385416667,0.0234375,1,0,0,0.627,optionRight,45,13310,6,22,0,22,0,1,,,,,,,,,,,,,,,,,,,,,,,,,,,,,,,,,,,,,,,
,,,,,,,,2023-08-16_08h41.57.651,HF_wild_card,2022.2.4,Win32,60.0240096,59f392ef9618dc0001d33a58,64d2fd46c836a06233681665,64dc7db8e8c79331eb2da865,,,,,,,decisionTrl,resources/DB.BMP,resources/DY.BMP,Door3,-0.393229167,0.0078125,1,0,0,1.159,optionLeft,70,13380,6,23,0,23,0,1,,,,,,,,,,,,,,,,,,,,,,,,,,,,,,,,,,,,,,,
,,,,,,,,2023-08-16_08h41.57.651,HF_wild_card,2022.2.4,Win32,60.0240096,59f392ef9618dc0001d33a58,64d2fd46c836a06233681665,64dc7db8e8c79331eb2da865,,,,,,,ctch,resources/DR.BMP,resources/DB.BMP,Door3,0.350260417,0.013020833,1,0,0,0.739,optionRight,70,13450,6,24,0,24,0,1,,,,,,,,,,,,,,,,,,,,,,,,,,,,,,,,,,,,,,,
,,,,,,,,2023-08-16_08h41.57.651,HF_wild_card,2022.2.4,Win32,60.0240096,59f392ef9618dc0001d33a58,64d2fd46c836a06233681665,64dc7db8e8c79331eb2da865,,,,,,,decisionTrl,resources/DP.BMP,resources/DY.BMP,Door4,0.385416667,0.002604167,1,0,0,1.49,optionRight,80,13530,6,25,0,25,0,1,,,,,,,,,,,,,,,,,,,,,,,,,,,,,,,,,,,,,,,
,,,,,,,,2023-08-16_08h41.57.651,HF_wild_card,2022.2.4,Win32,60.0240096,59f392ef9618dc0001d33a58,64d2fd46c836a06233681665,64dc7db8e8c79331eb2da865,,,,,,,ctch,resources/DB.BMP,resources/DR.BMP,Door3,-0.348958333,-0.014322917,1,0,0,0.973,optionLeft,70,13600,6,26,0,26,0,1,,,,,,,,,,,,,,,,,,,,,,,,,,,,,,,,,,,,,,,
,,,,,,,,2023-08-16_08h41.57.651,HF_wild_card,2022.2.4,Win32,60.0240096,59f392ef9618dc0001d33a58,64d2fd46c836a06233681665,64dc7db8e8c79331eb2da865,,,,,,,sngl,resources/DP.BMP,resources/Empty.png,WildCard_Ex,-0.37890625,0.006510417,1,0,0,0.621,optionLeft,55,13655,6,27,0,27,0,1,,,,,,,,,,,,,,,,,,,,,,,,,,,,,,,,,,,,,,,
,,,,,,,,2023-08-16_08h41.57.651,HF_wild_card,2022.2.4,Win32,60.0240096,59f392ef9618dc0001d33a58,64d2fd46c836a06233681665,64dc7db8e8c79331eb2da865,,,,,,,decisionTrl,resources/DY.BMP,resources/DB.BMP,Door3,0.252604167,0.016927083,1,0,0,1.009,optionRight,70,13725,6,28,0,28,0,1,,,,,,,,,,,,,,,,,,,,,,,,,,,,,,,,,,,,,,,
,,,,,,,,2023-08-16_08h41.57.651,HF_wild_card,2022.2.4,Win32,60.0240096,59f392ef9618dc0001d33a58,64d2fd46c836a06233681665,64dc7db8e8c79331eb2da865,,,,,,,decisionTrl,resources/DBN.BMP,resources/DR.BMP,Door2,0.369791667,-0.01953125,1,0,0,1.605,optionRight,20,13745,6,29,0,29,0,1,,,,,,,,,,,,,,,,,,,,,,,,,,,,,,,,,,,,,,,
,,,,,,,,2023-08-16_08h41.57.651,HF_wild_card,2022.2.4,Win32,60.0240096,59f392ef9618dc0001d33a58,64d2fd46c836a06233681665,64dc7db8e8c79331eb2da865,,,,,,,decisionTrl,resources/DR.BMP,resources/DBN.BMP,Door1,0.2734375,0.00390625,1,0,0,1.075,optionRight,30,13775,6,30,0,30,0,1,,,,,,,,,,,,,,,,,,,,,,,,,,,,,,,,,,,,,,,
,,,,,,,,2023-08-16_08h41.57.651,HF_wild_card,2022.2.4,Win32,60.0240096,59f392ef9618dc0001d33a58,64d2fd46c836a06233681665,64dc7db8e8c79331eb2da865,,,,,,,decisionTrl,resources/DY.BMP,resources/DB.BMP,Door3,0.3046875,0.005208333,1,0,0,2.191,optionRight,70,13845,6,31,0,31,0,1,,,,,,,,,,,,,,,,,,,,,,,,,,,,,,,,,,,,,,,
,,,,,,,,2023-08-16_08h41.57.651,HF_wild_card,2022.2.4,Win32,60.0240096,59f392ef9618dc0001d33a58,64d2fd46c836a06233681665,64dc7db8e8c79331eb2da865,,,,,,,sngl,resources/DB.BMP,resources/Empty.png,Door3,-0.3046875,-0.001302083,1,0,0,0.609,optionLeft,70,13915,6,32,0,32,0,1,,,,,,,,,,,,,,,,,,,,,,,,,,,,,,,,,,,,,,,
,,,,,,,,2023-08-16_08h41.57.651,HF_wild_card,2022.2.4,Win32,60.0240096,59f392ef9618dc0001d33a58,64d2fd46c836a06233681665,64dc7db8e8c79331eb2da865,,,,,,,decisionTrl,resources/DY.BMP,resources/DB.BMP,Door3,0.244791667,-0.002604167,1,0,0,0.642,optionRight,70,13985,6,33,0,33,0,1,,,,,,,,,,,,,,,,,,,,,,,,,,,,,,,,,,,,,,,
,,,,,,,,2023-08-16_08h41.57.651,HF_wild_card,2022.2.4,Win32,60.0240096,59f392ef9618dc0001d33a58,64d2fd46c836a06233681665,64dc7db8e8c79331eb2da865,,,,,,,sngl,resources/DY.BMP,resources/Empty.png,Door4,-0.223958333,-0.009114583,1,0,0,0.825,optionLeft,60,14045,6,34,0,34,0,1,,,,,,,,,,,,,,,,,,,,,,,,,,,,,,,,,,,,,,,
,,,,,,,,2023-08-16_08h41.57.651,HF_wild_card,2022.2.4,Win32,60.0240096,59f392ef9618dc0001d33a58,64d2fd46c836a06233681665,64dc7db8e8c79331eb2da865,,,,,,,ctch,resources/DY.BMP,resources/DBN.BMP,Door4,-0.328125,0.010416667,1,0,0,1.058,optionLeft,80,14125,6,35,0,35,0,1,,,,,,,,,,,,,,,,,,,,,,,,,,,,,,,,,,,,,,,
,,,,,,,,2023-08-16_08h41.57.651,HF_wild_card,2022.2.4,Win32,60.0240096,59f392ef9618dc0001d33a58,64d2fd46c836a06233681665,64dc7db8e8c79331eb2da865,,,,,,,sngl,resources/Empty.png,resources/DB.BMP,Door3,0.23828125,-0.014322917,1,0,0,0.621,optionRight,70,14195,6,36,0,36,0,1,,,,,,,,,,,,,,,,,,,,,,,,,,,,,,,,,,,,,,,
,,,,,,,,2023-08-16_08h41.57.651,HF_wild_card,2022.2.4,Win32,60.0240096,59f392ef9618dc0001d33a58,64d2fd46c836a06233681665,64dc7db8e8c79331eb2da865,,,,,,,sngl,resources/Empty.png,resources/DP.BMP,WildCard_Ex,0.3203125,0.016927083,1,0,0,0.608,optionRight,55,14250,6,37,0,37,0,1,,,,,,,,,,,,,,,,,,,,,,,,,,,,,,,,,,,,,,,
,,,,,,,,2023-08-16_08h41.57.651,HF_wild_card,2022.2.4,Win32,60.0240096,59f392ef9618dc0001d33a58,64d2fd46c836a06233681665,64dc7db8e8c79331eb2da865,,,,,,,sngl,resources/Empty.png,resources/DBN.BMP,Door1,0.303385417,0.01171875,1,0,0,0.64,optionRight,30,14280,6,38,0,38,0,1,,,,,,,,,,,,,,,,,,,,,,,,,,,,,,,,,,,,,,,
,,,,,,,,2023-08-16_08h41.57.651,HF_wild_card,2022.2.4,Win32,60.0240096,59f392ef9618dc0001d33a58,64d2fd46c836a06233681665,64dc7db8e8c79331eb2da865,,,,,,,decisionTrl,resources/DBN.BMP,resources/DR.BMP,Door1,-0.252604167,0.015625,1,0,0,0.824,optionLeft,30,14310,6,39,0,39,0,1,,,,,,,,,,,,,,,,,,,,,,,,,,,,,,,,,,,,,,,
,,,,,,,,2023-08-16_08h41.57.651,HF_wild_card,2022.2.4,Win32,60.0240096,59f392ef9618dc0001d33a58,64d2fd46c836a06233681665,64dc7db8e8c79331eb2da865,,,,,,,decisionTrl,resources/DY.BMP,resources/DP.BMP,Door4,-0.251302083,-0.01171875,1,0,0,1.372,optionLeft,80,14390,6,40,0,40,0,1,,,,,,,,,,,,,,,,,,,,,,,,,,,,,,,,,,,,,,,
,,,,,,,,2023-08-16_08h41.57.651,HF_wild_card,2022.2.4,Win32,60.0240096,59f392ef9618dc0001d33a58,64d2fd46c836a06233681665,64dc7db8e8c79331eb2da865,,,,,,,ctch,resources/DY.BMP,resources/DBN.BMP,Door4,-0.244791667,-0.00390625,1,0,0,0.656,optionLeft,80,14470,6,41,0,41,0,1,,,,,,,,,,,,,,,,,,,,,,,,,,,,,,,,,,,,,,,
,,,,,,,,2023-08-16_08h41.57.651,HF_wild_card,2022.2.4,Win32,60.0240096,59f392ef9618dc0001d33a58,64d2fd46c836a06233681665,64dc7db8e8c79331eb2da865,,,,,,,decisionTrl,resources/DBN.BMP,resources/DR.BMP,Door1,-0.298177083,0.024739583,1,0,0,1.425,optionLeft,30,14500,6,42,0,42,0,1,,,,,,,,,,,,,,,,,,,,,,,,,,,,,,,,,,,,,,,
,,,,,,,,2023-08-16_08h41.57.651,HF_wild_card,2022.2.4,Win32,60.0240096,59f392ef9618dc0001d33a58,64d2fd46c836a06233681665,64dc7db8e8c79331eb2da865,,,,,,,ctch,resources/DBN.BMP,resources/DY.BMP,Door4,0.3515625,-0.024739583,1,0,0,1.092,optionRight,80,14580,6,43,0,43,0,1,,,,,,,,,,,,,,,,,,,,,,,,,,,,,,,,,,,,,,,
,,,,,,,,2023-08-16_08h41.57.651,HF_wild_card,2022.2.4,Win32,60.0240096,59f392ef9618dc0001d33a58,64d2fd46c836a06233681665,64dc7db8e8c79331eb2da865,,,,,,,,,,,,,,,,,,,,,,,,,,5,0,5,0,1,,,,,,,,,,,,,,,,,,,,,,,,,,,,,,,,,,
,,,,,,,,2023-08-16_08h41.57.651,HF_wild_card,2022.2.4,Win32,60.0240096,59f392ef9618dc0001d33a58,64d2fd46c836a06233681665,64dc7db8e8c79331eb2da865,,,,,,,decisionTrl,resources/DBN.BMP,resources/DR.BMP,Door1,-0.2578125,-0.0078125,1,0,0,1.279,optionLeft,30,14610,7,0,0,0,0,1,,,,,,,,,,,,,,,,,,,,,,,,,,,,,,,,,,,,,,,
,,,,,,,,2023-08-16_08h41.57.651,HF_wild_card,2022.2.4,Win32,60.0240096,59f392ef9618dc0001d33a58,64d2fd46c836a06233681665,64dc7db8e8c79331eb2da865,,,,,,,decisionTrl,resources/DR.BMP,resources/DBN.BMP,Door1,0.3515625,0.009114583,1,0,0,1.061,optionRight,30,14640,7,1,0,1,0,1,,,,,,,,,,,,,,,,,,,,,,,,,,,,,,,,,,,,,,,
,,,,,,,,2023-08-16_08h41.57.651,HF_wild_card,2022.2.4,Win32,60.0240096,59f392ef9618dc0001d33a58,64d2fd46c836a06233681665,64dc7db8e8c79331eb2da865,,,,,,,decisionTrl,resources/DB.BMP,resources/DY.BMP,Door3,-0.30859375,0.029947917,1,0,0,1.109,optionLeft,70,14710,7,2,0,2,0,1,,,,,,,,,,,,,,,,,,,,,,,,,,,,,,,,,,,,,,,
,,,,,,,,2023-08-16_08h41.57.651,HF_wild_card,2022.2.4,Win32,60.0240096,59f392ef9618dc0001d33a58,64d2fd46c836a06233681665,64dc7db8e8c79331eb2da865,,,,,,,decisionTrl,resources/DR.BMP,resources/DBN.BMP,Door1,0.48046875,0.001302083,1,0,0,1.225,optionRight,30,14740,7,3,0,3,0,1,,,,,,,,,,,,,,,,,,,,,,,,,,,,,,,,,,,,,,,
,,,,,,,,2023-08-16_08h41.57.651,HF_wild_card,2022.2.4,Win32,60.0240096,59f392ef9618dc0001d33a58,64d2fd46c836a06233681665,64dc7db8e8c79331eb2da865,,,,,,,decisionTrl,resources/DB.BMP,resources/DY.BMP,Door3,-0.3515625,0.0078125,1,0,0,0.976,optionLeft,70,14810,7,4,0,4,0,1,,,,,,,,,,,,,,,,,,,,,,,,,,,,,,,,,,,,,,,
,,,,,,,,2023-08-16_08h41.57.651,HF_wild_card,2022.2.4,Win32,60.0240096,59f392ef9618dc0001d33a58,64d2fd46c836a06233681665,64dc7db8e8c79331eb2da865,,,,,,,ctch,resources/DBN.BMP,resources/DY.BMP,Door4,0.389322917,-0.001302083,1,0,0,0.946,optionRight,80,14890,7,5,0,5,0,1,,,,,,,,,,,,,,,,,,,,,,,,,,,,,,,,,,,,,,,
,,,,,,,,2023-08-16_08h41.57.651,HF_wild_card,2022.2.4,Win32,60.0240096,59f392ef9618dc0001d33a58,64d2fd46c836a06233681665,64dc7db8e8c79331eb2da865,,,,,,,decisionTrl,resources/DB.BMP,resources/DY.BMP,Door3,-0.411458333,0.013020833,1,0,0,1.028,optionLeft,70,14960,7,6,0,6,0,1,,,,,,,,,,,,,,,,,,,,,,,,,,,,,,,,,,,,,,,
,,,,,,,,2023-08-16_08h41.57.651,HF_wild_card,2022.2.4,Win32,60.0240096,59f392ef9618dc0001d33a58,64d2fd46c836a06233681665,64dc7db8e8c79331eb2da865,,,,,,,ctch,resources/DB.BMP,resources/DR.BMP,Door3,-0.298177083,0.014322917,1,0,0,0.83,optionLeft,70,15030,7,7,0,7,0,1,,,,,,,,,,,,,,,,,,,,,,,,,,,,,,,,,,,,,,,
,,,,,,,,2023-08-16_08h41.57.651,HF_wild_card,2022.2.4,Win32,60.0240096,59f392ef9618dc0001d33a58,64d2fd46c836a06233681665,64dc7db8e8c79331eb2da865,,,,,,,decisionTrl,resources/DY.BMP,resources/DB.BMP,Door3,0.322916667,-0.001302083,1,0,0,0.762,optionRight,70,15100,7,8,0,8,0,1,,,,,,,,,,,,,,,,,,,,,,,,,,,,,,,,,,,,,,,
,,,,,,,,2023-08-16_08h41.57.651,HF_wild_card,2022.2.4,Win32,60.0240096,59f392ef9618dc0001d33a58,64d2fd46c836a06233681665,64dc7db8e8c79331eb2da865,,,,,,,decisionTrl,resources/DB.BMP,resources/DY.BMP,Door3,-0.25390625,0,1,0,0,0.726,optionLeft,70,15170,7,9,0,9,0,1,,,,,,,,,,,,,,,,,,,,,,,,,,,,,,,,,,,,,,,
,,,,,,,,2023-08-16_08h41.57.651,HF_wild_card,2022.2.4,Win32,60.0240096,59f392ef9618dc0001d33a58,64d2fd46c836a06233681665,64dc7db8e8c79331eb2da865,,,,,,,decisionTrl,resources/DR.BMP,resources/DBN.BMP,Door1,0.341145833,0.005208333,1,0,0,1.224,optionRight,30,15200,7,10,0,10,0,1,,,,,,,,,,,,,,,,,,,,,,,,,,,,,,,,,,,,,,,
,,,,,,,,2023-08-16_08h41.57.651,HF_wild_card,2022.2.4,Win32,60.0240096,59f392ef9618dc0001d33a58,64d2fd46c836a06233681665,64dc7db8e8c79331eb2da865,,,,,,,decisionTrl,resources/DY.BMP,resources/DB.BMP,Door3,0.444010417,-0.009114583,1,0,0,0.946,optionRight,70,15270,7,11,0,11,0,1,,,,,,,,,,,,,,,,,,,,,,,,,,,,,,,,,,,,,,,
,,,,,,,,2023-08-16_08h41.57.651,HF_wild_card,2022.2.4,Win32,60.0240096,59f392ef9618dc0001d33a58,64d2fd46c836a06233681665,64dc7db8e8c79331eb2da865,,,,,,,ctch,resources/DY.BMP,resources/DBN.BMP,Door4,-0.229166667,-0.002604167,1,0,0,0.924,optionLeft,60,15330,7,12,0,12,0,1,,,,,,,,,,,,,,,,,,,,,,,,,,,,,,,,,,,,,,,
,,,,,,,,2023-08-16_08h41.57.651,HF_wild_card,2022.2.4,Win32,60.0240096,59f392ef9618dc0001d33a58,64d2fd46c836a06233681665,64dc7db8e8c79331eb2da865,,,,,,,ctch,resources/DBN.BMP,resources/DY.BMP,Door4,0.272135417,-0.001302083,1,0,0,0.817,optionRight,80,15410,7,13,0,13,0,1,,,,,,,,,,,,,,,,,,,,,,,,,,,,,,,,,,,,,,,
,,,,,,,,2023-08-16_08h41.57.651,HF_wild_card,2022.2.4,Win32,60.0240096,59f392ef9618dc0001d33a58,64d2fd46c836a06233681665,64dc7db8e8c79331eb2da865,,,,,,,decisionTrl,resources/DB.BMP,resources/DY.BMP,Door3,-0.2421875,-0.006510417,1,0,0,1.027,optionLeft,70,15480,7,14,0,14,0,1,,,,,,,,,,,,,,,,,,,,,,,,,,,,,,,,,,,,,,,
,,,,,,,,2023-08-16_08h41.57.651,HF_wild_card,2022.2.4,Win32,60.0240096,59f392ef9618dc0001d33a58,64d2fd46c836a06233681665,64dc7db8e8c79331eb2da865,,,,,,,decisionTrl,resources/DR.BMP,resources/DBN.BMP,Door1,0.466145833,-0.022135417,1,0,0,1.26,optionRight,30,15510,7,15,0,15,0,1,,,,,,,,,,,,,,,,,,,,,,,,,,,,,,,,,,,,,,,
,,,,,,,,2023-08-16_08h41.57.651,HF_wild_card,2022.2.4,Win32,60.0240096,59f392ef9618dc0001d33a58,64d2fd46c836a06233681665,64dc7db8e8c79331eb2da865,,,,,,,decisionTrl,resources/DB.BMP,resources/DY.BMP,Door3,-0.373697917,0.020833333,1,0,0,0.981,optionLeft,70,15580,7,16,0,16,0,1,,,,,,,,,,,,,,,,,,,,,,,,,,,,,,,,,,,,,,,
,,,,,,,,2023-08-16_08h41.57.651,HF_wild_card,2022.2.4,Win32,60.0240096,59f392ef9618dc0001d33a58,64d2fd46c836a06233681665,64dc7db8e8c79331eb2da865,,,,,,,decisionTrl,resources/DBN.BMP,resources/DR.BMP,Door1,-0.32421875,0.00390625,1,0,0,1.174,optionLeft,30,15610,7,17,0,17,0,1,,,,,,,,,,,,,,,,,,,,,,,,,,,,,,,,,,,,,,,
,,,,,,,,2023-08-16_08h41.57.651,HF_wild_card,2022.2.4,Win32,60.0240096,59f392ef9618dc0001d33a58,64d2fd46c836a06233681665,64dc7db8e8c79331eb2da865,,,,,,,ctch,resources/DB.BMP,resources/DR.BMP,Door3,-0.291666667,0.001302083,1,0,0,1.009,optionLeft,70,15680,7,18,0,18,0,1,,,,,,,,,,,,,,,,,,,,,,,,,,,,,,,,,,,,,,,
,,,,,,,,2023-08-16_08h41.57.651,HF_wild_card,2022.2.4,Win32,60.0240096,59f392ef9618dc0001d33a58,64d2fd46c836a06233681665,64dc7db8e8c79331eb2da865,,,,,,,decisionTrl,resources/DBN.BMP,resources/DR.BMP,Door1,-0.294270833,0.001302083,1,0,0,0.912,optionLeft,30,15710,7,19,0,19,0,1,,,,,,,,,,,,,,,,,,,,,,,,,,,,,,,,,,,,,,,
,,,,,,,,2023-08-16_08h41.57.651,HF_wild_card,2022.2.4,Win32,60.0240096,59f392ef9618dc0001d33a58,64d2fd46c836a06233681665,64dc7db8e8c79331eb2da865,,,,,,,decisionTrl,resources/DY.BMP,resources/DB.BMP,Door3,0.315104167,-0.01171875,1,0,0,0.851,optionRight,70,15780,7,20,0,20,0,1,,,,,,,,,,,,,,,,,,,,,,,,,,,,,,,,,,,,,,,
,,,,,,,,2023-08-16_08h41.57.651,HF_wild_card,2022.2.4,Win32,60.0240096,59f392ef9618dc0001d33a58,64d2fd46c836a06233681665,64dc7db8e8c79331eb2da865,,,,,,,ctch,resources/DR.BMP,resources/DB.BMP,Door3,0.372395833,-0.006510417,1,0,0,0.844,optionRight,70,15850,7,21,0,21,0,1,,,,,,,,,,,,,,,,,,,,,,,,,,,,,,,,,,,,,,,
,,,,,,,,2023-08-16_08h41.57.651,HF_wild_card,2022.2.4,Win32,60.0240096,59f392ef9618dc0001d33a58,64d2fd46c836a06233681665,64dc7db8e8c79331eb2da865,,,,,,,ctch,resources/DBN.BMP,resources/DY.BMP,Door4,0.325520833,-0.014322917,1,0,0,1.296,optionRight,60,15910,7,22,0,22,0,1,,,,,,,,,,,,,,,,,,,,,,,,,,,,,,,,,,,,,,,
,,,,,,,,2023-08-16_08h41.57.651,HF_wild_card,2022.2.4,Win32,60.0240096,59f392ef9618dc0001d33a58,64d2fd46c836a06233681665,64dc7db8e8c79331eb2da865,,,,,,,decisionTrl,resources/DY.BMP,resources/DB.BMP,Door3,0.342447917,0,1,0,0,0.908,optionRight,70,15980,7,23,0,23,0,1,,,,,,,,,,,,,,,,,,,,,,,,,,,,,,,,,,,,,,,
,,,,,,,,2023-08-16_08h41.57.651,HF_wild_card,2022.2.4,Win32,60.0240096,59f392ef9618dc0001d33a58,64d2fd46c836a06233681665,64dc7db8e8c79331eb2da865,,,,,,,decisionTrl,resources/DBN.BMP,resources/DR.BMP,Door1,-0.229166667,0,1,0,0,1.205,optionLeft,30,16010,7,24,0,24,0,1,,,,,,,,,,,,,,,,,,,,,,,,,,,,,,,,,,,,,,,
,,,,,,,,2023-08-16_08h41.57.651,HF_wild_card,2022.2.4,Win32,60.0240096,59f392ef9618dc0001d33a58,64d2fd46c836a06233681665,64dc7db8e8c79331eb2da865,,,,,,,decisionTrl,resources/DY.BMP,resources/DB.BMP,Door3,0.34375,0,1,0,0,1.094,optionRight,70,16080,7,25,0,25,0,1,,,,,,,,,,,,,,,,,,,,,,,,,,,,,,,,,,,,,,,
,,,,,,,,2023-08-16_08h41.57.651,HF_wild_card,2022.2.4,Win32,60.0240096,59f392ef9618dc0001d33a58,64d2fd46c836a06233681665,64dc7db8e8c79331eb2da865,,,,,,,ctch,resources/DY.BMP,resources/DBN.BMP,Door4,-0.26953125,-0.00390625,1,0,0,1.259,optionLeft,80,16160,7,26,0,26,0,1,,,,,,,,,,,,,,,,,,,,,,,,,,,,,,,,,,,,,,,
,,,,,,,,2023-08-16_08h41.57.651,HF_wild_card,2022.2.4,Win32,60.0240096,59f392ef9618dc0001d33a58,64d2fd46c836a06233681665,64dc7db8e8c79331eb2da865,,,,,,,ctch,resources/DR.BMP,resources/DB.BMP,Door3,0.28515625,0.01171875,1,0,0,0.894,optionRight,70,16230,7,27,0,27,0,1,,,,,,,,,,,,,,,,,,,,,,,,,,,,,,,,,,,,,,,
,,,,,,,,2023-08-16_08h41.57.651,HF_wild_card,2022.2.4,Win32,60.0240096,59f392ef9618dc0001d33a58,64d2fd46c836a06233681665,64dc7db8e8c79331eb2da865,,,,,,,decisionTrl,resources/DBN.BMP,resources/DR.BMP,Door1,-0.295572917,-0.00390625,1,0,0,1.243,optionLeft,30,16260,7,28,0,28,0,1,,,,,,,,,,,,,,,,,,,,,,,,,,,,,,,,,,,,,,,
,,,,,,,,2023-08-16_08h41.57.651,HF_wild_card,2022.2.4,Win32,60.0240096,59f392ef9618dc0001d33a58,64d2fd46c836a06233681665,64dc7db8e8c79331eb2da865,,,,,,,ctch,resources/DR.BMP,resources/DB.BMP,Door3,0.278645833,-0.01953125,1,0,0,0.958,optionRight,70,16330,7,29,0,29,0,1,,,,,,,,,,,,,,,,,,,,,,,,,,,,,,,,,,,,,,,
,,,,,,,,2023-08-16_08h41.57.651,HF_wild_card,2022.2.4,Win32,60.0240096,59f392ef9618dc0001d33a58,64d2fd46c836a06233681665,64dc7db8e8c79331eb2da865,,,,,,,decisionTrl,resources/DR.BMP,resources/DBN.BMP,Door1,0.330729167,0.001302083,1,0,0,0.828,optionRight,30,16360,7,30,0,30,0,1,,,,,,,,,,,,,,,,,,,,,,,,,,,,,,,,,,,,,,,
,,,,,,,,2023-08-16_08h41.57.651,HF_wild_card,2022.2.4,Win32,60.0240096,59f392ef9618dc0001d33a58,64d2fd46c836a06233681665,64dc7db8e8c79331eb2da865,,,,,,,decisionTrl,resources/DY.BMP,resources/DB.BMP,Door3,0.322916667,-0.024739583,1,0,0,0.912,optionRight,70,16430,7,31,0,31,0,1,,,,,,,,,,,,,,,,,,,,,,,,,,,,,,,,,,,,,,,
,,,,,,,,2023-08-16_08h41.57.651,HF_wild_card,2022.2.4,Win32,60.0240096,59f392ef9618dc0001d33a58,64d2fd46c836a06233681665,64dc7db8e8c79331eb2da865,,,,,,,decisionTrl,resources/DR.BMP,resources/DBN.BMP,Door1,0.27734375,-0.005208333,1,0,0,1.062,optionRight,30,16460,7,32,0,32,0,1,,,,,,,,,,,,,,,,,,,,,,,,,,,,,,,,,,,,,,,
,,,,,,,,2023-08-16_08h41.57.651,HF_wild_card,2022.2.4,Win32,60.0240096,59f392ef9618dc0001d33a58,64d2fd46c836a06233681665,64dc7db8e8c79331eb2da865,,,,,,,decisionTrl,resources/DBN.BMP,resources/DR.BMP,Door1,-0.356770833,0.024739583,1,0,0,1.078,optionLeft,30,16490,7,33,0,33,0,1,,,,,,,,,,,,,,,,,,,,,,,,,,,,,,,,,,,,,,,
,,,,,,,,2023-08-16_08h41.57.651,HF_wild_card,2022.2.4,Win32,60.0240096,59f392ef9618dc0001d33a58,64d2fd46c836a06233681665,64dc7db8e8c79331eb2da865,,,,,,,ctch,resources/DY.BMP,resources/DBN.BMP,Door4,-0.266927083,0.00390625,1,0,0,1.128,optionLeft,80,16570,7,34,0,34,0,1,,,,,,,,,,,,,,,,,,,,,,,,,,,,,,,,,,,,,,,
,,,,,,,,2023-08-16_08h41.57.651,HF_wild_card,2022.2.4,Win32,60.0240096,59f392ef9618dc0001d33a58,64d2fd46c836a06233681665,64dc7db8e8c79331eb2da865,,,,,,,ctch,resources/DB.BMP,resources/DR.BMP,Door3,-0.291666667,0.001302083,1,0,0,1.063,optionLeft,70,16640,7,35,0,35,0,1,,,,,,,,,,,,,,,,,,,,,,,,,,,,,,,,,,,,,,,
,,,,,,,,2023-08-16_08h41.57.651,HF_wild_card,2022.2.4,Win32,60.0240096,59f392ef9618dc0001d33a58,64d2fd46c836a06233681665,64dc7db8e8c79331eb2da865,,,,,,,,,,,,,,,,,,,,,,,,,,6,0,6,0,1,,,,,,,,,,,,,,,,,,,,,,,,,,,,,,,,,,
,,,,,,,,2023-08-16_08h41.57.651,HF_wild_card,2022.2.4,Win32,60.0240096,59f392ef9618dc0001d33a58,64d2fd46c836a06233681665,64dc7db8e8c79331eb2da865,,,,,,,,,,,,,,,,,,,,,,,,,,,,,,,4,,,,,,,,,,,,,,,,,,,,,,,,,,,,,,,,,
,,,,,,,,2023-08-16_08h41.57.651,HF_wild_card,2022.2.4,Win32,60.0240096,59f392ef9618dc0001d33a58,64d2fd46c836a06233681665,64dc7db8e8c79331eb2da865,,,,,,,,,,,,,,,,,,,,,,,,,,,,,,,,,,,,,,,,,,,,,,,,,,,,,,,,,,,,,,,,
,,,,,,,,2023-08-16_08h41.57.651,HF_wild_card,2022.2.4,Win32,60.0240096,59f392ef9618dc0001d33a58,64d2fd46c836a06233681665,64dc7db8e8c79331eb2da865,,,,,,,,,,,,,,,,,,,,,,,,,,,,,,,,20,Door2,resources/DR.BMP,0,0,0,0,1,,,,,,,,,,,,,,,,,,,,,,,,,
,,,,,,,,2023-08-16_08h41.57.651,HF_wild_card,2022.2.4,Win32,60.0240096,59f392ef9618dc0001d33a58,64d2fd46c836a06233681665,64dc7db8e8c79331eb2da865,,,,,,,,,,,,,,,,,,,,,,,,,,,,,,,,70,Door3,resources/DB.BMP,1,0,1,0,1,,,,,,,,,,,,,,,,,,,,,,,,,
,,,,,,,,2023-08-16_08h41.57.651,HF_wild_card,2022.2.4,Win32,60.0240096,59f392ef9618dc0001d33a58,64d2fd46c836a06233681665,64dc7db8e8c79331eb2da865,,,,,,,,,,,,,,,,,,,,,,,,,,,,,,,,55,WC_extreme,resources/DP.BMP,2,0,2,0,1,,,,,,,,,,,,,,,,,,,,,,,,,
,,,,,,,,2023-08-16_08h41.57.651,HF_wild_card,2022.2.4,Win32,60.0240096,59f392ef9618dc0001d33a58,64d2fd46c836a06233681665,64dc7db8e8c79331eb2da865,,,,,,,,,,,,,,,,,,,,,,,,,,,,,,,,45,WC_nonExtreme,resources/DG.BMP,3,0,3,0,1,,,,,,,,,,,,,,,,,,,,,,,,,
,,,,,,,,2023-08-16_08h41.57.651,HF_wild_card,2022.2.4,Win32,60.0240096,59f392ef9618dc0001d33a58,64d2fd46c836a06233681665,64dc7db8e8c79331eb2da865,,,,,,,,,,,,,,,,,,,,,,,,,,,,,,,,80,Door4,resources/DY.BMP,4,0,4,0,1,,,,,,,,,,,,,,,,,,,,,,,,,
,,,,,,,,2023-08-16_08h41.57.651,HF_wild_card,2022.2.4,Win32,60.0240096,59f392ef9618dc0001d33a58,64d2fd46c836a06233681665,64dc7db8e8c79331eb2da865,,,,,,,,,,,,,,,,,,,,,,,,,,,,,,,,30,Door1,resources/DBN.BMP,5,0,5,0,1,,,,,,,,,,,,,,,,,,,,,,,,,
,,,,,,,,2023-08-16_08h41.57.651,HF_wild_card,2022.2.4,Win32,60.0240096,59f392ef9618dc0001d33a58,64d2fd46c836a06233681665,64dc7db8e8c79331eb2da865,,,,,,,,,,,,,,,,,,,,,,,,,,,,,,,,,,,,,,,,,,,,,,,,,,,,,,,,,,,,,,,,
,,,,,,,,2023-08-16_08h41.57.651,HF_wild_card,2022.2.4,Win32,60.0240096,59f392ef9618dc0001d33a58,64d2fd46c836a06233681665,64dc7db8e8c79331eb2da865,,,,,,,,,,,,,,,,,,,,,,,,,,,,,,,,,,,,,,,,0,0,0,0,1,,,,,,,,,,,,,,,,,,,,
,,,,,,,,2023-08-16_08h41.57.651,HF_wild_card,2022.2.4,Win32,60.0240096,59f392ef9618dc0001d33a58,64d2fd46c836a06233681665,64dc7db8e8c79331eb2da865,,,,,,,,,,,,,,,,,,,,,,,,,,,,,,,,,,,,,,,,1,0,1,0,1,,,,,,,,,,,,,,,,,,,,
,,,,,,,,2023-08-16_08h41.57.651,HF_wild_card,2022.2.4,Win32,60.0240096,59f392ef9618dc0001d33a58,64d2fd46c836a06233681665,64dc7db8e8c79331eb2da865,,,,,,,,,,,,,,,,,,,,,,,,,,,,,,,,,,,,,,,,,,,,,-0.26171875,-0.41796875,1,0,0,yes,0%,100%,Door3,resources/DB.BMP,0,0,0,0,1,,,,,
,,,,,,,,2023-08-16_08h41.57.651,HF_wild_card,2022.2.4,Win32,60.0240096,59f392ef9618dc0001d33a58,64d2fd46c836a06233681665,64dc7db8e8c79331eb2da865,,,,,,,,,,,,,,,,,,,,,,,,,,,,,,,,,,,,,,,,,,,,,,,,,,,,,,,,,,,,0,0,0,0,1
